onset	duration	cue_type	current_mean_accuracy	duration_error	is_hit	isi_adjusted	onset_delay	response	response_type	reward	rt	rt_time	total_reward	trial_number	trial_phase	trial_type	one_press
11.102	0.25	Control	1.0	0.0	Yes	2.948	0.002	n/a	GoodResponse	0	n/a	n/a	0	0	Cue	Neutral	True
11.353	3.85	Control	1.0	0.0	Yes	2.948	0.001	n/a	GoodResponse	0	n/a	n/a	0	0	Fixation	Neutral	True
15.198	0.4	Control	1.0	0.004	Yes	2.948	-0.004	2.0	GoodResponse	0	0.271	14.469	0	0	Target	Neutral	True
15.469	0.3	Control	1.0	0.004	Yes	2.948	-0.004	2.0	GoodResponse	0	0.271	n/a	0	0	ButtonPress	Neutral	True
15.599	0.3	Control	1.0	n/a	Yes	2.948	n/a	n/a	GoodResponse	0	n/a	n/a	0	0	Blank	Neutral	True
15.9	1.45	Control	1.0	n/a	Yes	2.948	n/a	5.0	GoodResponse	0	0.026	14.926	0	0	Feedback	Neutral	True
17.354	2.948	Control	1.0	n/a	Yes	2.948	n/a	n/a	GoodResponse	0	0.0	n/a	0	0	ISIslide	Neutral	True
20.33	0.25	Lose2	1.0	0.0	Yes	2.77	0.03	n/a	GoodResponse	0	n/a	n/a	0	1	Cue	AvoidedLoss	True
20.58	4.0	Lose2	1.0	0.001	Yes	2.77	0.0	n/a	GoodResponse	0	n/a	n/a	0	1	Fixation	AvoidedLoss	True
24.576	0.39	Lose2	1.0	0.004	Yes	2.77	-0.004	2.0	GoodResponse	0	0.243	23.819	0	1	Target	AvoidedLoss	True
24.819	0.3	Lose2	1.0	0.004	Yes	2.77	-0.004	2.0	GoodResponse	0	0.243	n/a	0	1	ButtonPress	AvoidedLoss	True
24.977	0.31	Lose2	1.0	n/a	Yes	2.77	n/a	n/a	GoodResponse	0	n/a	n/a	0	1	Blank	AvoidedLoss	True
25.278	1.45	Lose2	1.0	n/a	Yes	2.77	n/a	5.0	GoodResponse	0	0.014	24.292	0	1	Feedback	AvoidedLoss	True
26.732	2.77	Lose2	1.0	n/a	Yes	2.77	n/a	n/a	GoodResponse	0	0.0	n/a	0	1	ISIslide	AvoidedLoss	True
29.524	0.25	Control	1.0	0.0	Yes	2.576	0.024	n/a	GoodResponse	0	n/a	n/a	0	2	Cue	Neutral	True
29.775	4.1	Control	1.0	0.0	Yes	2.576	0.001	n/a	GoodResponse	0	n/a	n/a	0	2	Fixation	Neutral	True
33.87	0.38	Control	1.0	0.004	Yes	2.576	-0.004	2.0	GoodResponse	0	0.335	33.205	0	2	Target	Neutral	True
34.205	0.3	Control	1.0	0.004	Yes	2.576	-0.004	2.0	GoodResponse	0	0.335	n/a	0	2	ButtonPress	Neutral	True
34.255	0.32	Control	1.0	n/a	Yes	2.576	n/a	n/a	GoodResponse	0	n/a	n/a	0	2	Blank	Neutral	True
34.572	1.45	Control	1.0	n/a	Yes	2.576	n/a	5.0	GoodResponse	0	0.037	33.609	0	2	Feedback	Neutral	True
36.027	2.576	Control	1.0	n/a	Yes	2.576	n/a	n/a	GoodResponse	0	0.0	n/a	0	2	ISIslide	Neutral	True
38.618	0.25	Win2	1.0	0.0	Yes	2.832	0.018	n/a	GoodResponse	1	n/a	n/a	1	3	Cue	Win	True
38.869	3.95	Win2	1.0	0.0	Yes	2.832	0.001	n/a	GoodResponse	1	n/a	n/a	1	3	Fixation	Win	True
42.814	0.37	Win2	1.0	0.004	Yes	2.832	-0.004	2.0	GoodResponse	1	0.243	42.057	1	3	Target	Win	True
43.057	0.3	Win2	1.0	0.004	Yes	2.832	-0.004	2.0	GoodResponse	1	0.243	n/a	1	3	ButtonPress	Win	True
43.198	0.33	Win2	1.0	n/a	Yes	2.832	n/a	n/a	GoodResponse	1	n/a	n/a	1	3	Blank	Win	True
43.516	1.45	Win2	1.0	n/a	Yes	2.832	n/a	5.0	GoodResponse	1	0.02	42.536	1	3	Feedback	Win	True
44.97	2.832	Win2	1.0	n/a	Yes	2.832	n/a	n/a	GoodResponse	1	0.0	n/a	1	3	ISIslide	Win	True
47.829	0.25	Win2	1.0	0.0	Yes	3.271	0.029	n/a	GoodResponse	1	n/a	n/a	2	4	Cue	Win	True
48.079	4.0	Win2	1.0	0.001	Yes	3.271	0.0	n/a	GoodResponse	1	n/a	n/a	2	4	Fixation	Win	True
52.075	0.36	Win2	1.0	0.004	Yes	3.271	-0.004	2.0	GoodResponse	1	0.25	51.325	2	4	Target	Win	True
52.325	0.3	Win2	1.0	0.004	Yes	3.271	-0.004	2.0	GoodResponse	1	0.25	n/a	2	4	ButtonPress	Win	True
52.443	0.34	Win2	1.0	n/a	Yes	3.271	n/a	n/a	GoodResponse	1	n/a	n/a	2	4	Blank	Win	True
52.777	1.45	Win2	1.0	n/a	Yes	3.271	n/a	5.0	GoodResponse	1	0.027	51.804	2	4	Feedback	Win	True
54.231	3.271	Win2	1.0	n/a	Yes	3.271	n/a	n/a	GoodResponse	1	0.0	n/a	2	4	ISIslide	Win	True
57.524	0.25	Win2	1.0	0.0	Yes	2.776	0.024	n/a	GoodResponse	1	n/a	n/a	3	5	Cue	Win	True
57.775	4.0	Win2	1.0	0.0	Yes	2.776	0.001	n/a	GoodResponse	1	n/a	n/a	3	5	Fixation	Win	True
61.77	0.35	Win2	1.0	0.004	Yes	2.776	-0.004	2.0	GoodResponse	1	0.297	61.067	3	5	Target	Win	True
62.067	0.3	Win2	1.0	0.004	Yes	2.776	-0.004	2.0	GoodResponse	1	0.297	n/a	3	5	ButtonPress	Win	True
62.122	0.35	Win2	1.0	n/a	Yes	2.776	n/a	n/a	GoodResponse	1	n/a	n/a	3	5	Blank	Win	True
62.473	1.45	Win2	1.0	n/a	Yes	2.776	n/a	5.0	GoodResponse	1	0.038	61.511	3	5	Feedback	Win	True
63.927	2.776	Win2	1.0	n/a	Yes	2.776	n/a	n/a	GoodResponse	1	0.0	n/a	3	5	ISIslide	Win	True
66.719	0.25	Lose2	1.0	0.0	Yes	2.731	0.019	n/a	GoodResponse	0	n/a	n/a	3	6	Cue	AvoidedLoss	True
66.969	3.95	Lose2	1.0	0.0	Yes	2.731	0.0	n/a	GoodResponse	0	n/a	n/a	3	6	Fixation	AvoidedLoss	True
70.931	0.34	Lose2	1.0	0.0	Yes	2.731	0.012	2.0	GoodResponse	0	0.278	70.209	3	6	Target	AvoidedLoss	True
71.209	0.3	Lose2	1.0	0.0	Yes	2.731	0.012	2.0	GoodResponse	0	0.278	n/a	3	6	ButtonPress	AvoidedLoss	True
71.266	0.36	Lose2	1.0	n/a	Yes	2.731	n/a	n/a	GoodResponse	0	n/a	n/a	3	6	Blank	AvoidedLoss	True
71.617	1.45	Lose2	1.0	n/a	Yes	2.731	n/a	5.0	GoodResponse	0	0.016	70.633	3	6	Feedback	AvoidedLoss	True
73.071	2.731	Lose2	1.0	n/a	Yes	2.731	n/a	n/a	GoodResponse	0	0.0	n/a	3	6	ISIslide	AvoidedLoss	True
75.829	0.25	Lose2	1.0	0.0	Yes	4.021	0.029	n/a	GoodResponse	0	n/a	n/a	3	7	Cue	AvoidedLoss	True
76.08	4.05	Lose2	1.0	0.0	Yes	4.021	0.001	n/a	GoodResponse	0	n/a	n/a	3	7	Fixation	AvoidedLoss	True
80.125	0.33	Lose2	1.0	0.004	Yes	4.021	-0.004	2.0	GoodResponse	0	0.241	79.366	3	7	Target	AvoidedLoss	True
80.366	0.3	Lose2	1.0	0.004	Yes	4.021	-0.004	2.0	GoodResponse	0	0.241	n/a	3	7	ButtonPress	AvoidedLoss	True
80.46	0.37	Lose2	1.0	n/a	Yes	4.021	n/a	n/a	GoodResponse	0	n/a	n/a	3	7	Blank	AvoidedLoss	True
80.828	1.45	Lose2	1.0	n/a	Yes	4.021	n/a	5.0	GoodResponse	0	0.025	79.853	3	7	Feedback	AvoidedLoss	True
82.282	4.021	Lose2	1.0	n/a	Yes	4.021	n/a	n/a	GoodResponse	0	0.0	n/a	3	7	ISIslide	AvoidedLoss	True
86.327	0.25	Lose2	1.0	0.0	Yes	3.023	0.027	n/a	GoodResponse	0	n/a	n/a	3	8	Cue	AvoidedLoss	True
86.578	3.95	Lose2	1.0	0.0	Yes	3.023	0.001	n/a	GoodResponse	0	n/a	n/a	3	8	Fixation	AvoidedLoss	True
90.523	0.32	Lose2	1.0	0.004	Yes	3.023	-0.004	2.0	GoodResponse	0	0.243	89.766	3	8	Target	AvoidedLoss	True
90.766	0.3	Lose2	1.0	0.004	Yes	3.023	-0.004	2.0	GoodResponse	0	0.243	n/a	3	8	ButtonPress	AvoidedLoss	True
90.858	0.38	Lose2	1.0	n/a	Yes	3.023	n/a	n/a	GoodResponse	0	n/a	n/a	3	8	Blank	AvoidedLoss	True
91.225	1.45	Lose2	1.0	n/a	Yes	3.023	n/a	5.0	GoodResponse	0	0.018	90.243	3	8	Feedback	AvoidedLoss	True
92.68	3.023	Lose2	1.0	n/a	Yes	3.023	n/a	n/a	GoodResponse	0	0.0	n/a	3	8	ISIslide	AvoidedLoss	True
95.722	0.25	Lose2	1.0	0.0	Yes	3.128	0.022	n/a	GoodResponse	0	n/a	n/a	3	9	Cue	AvoidedLoss	True
95.973	3.95	Lose2	1.0	0.0	Yes	3.128	0.001	n/a	GoodResponse	0	n/a	n/a	3	9	Fixation	AvoidedLoss	True
99.918	0.31	Lose2	1.0	0.004	Yes	3.128	-0.004	2.0	GoodResponse	0	0.288	99.206	3	9	Target	AvoidedLoss	True
100.206	0.3	Lose2	1.0	0.004	Yes	3.128	-0.004	2.0	GoodResponse	0	0.288	n/a	3	9	ButtonPress	AvoidedLoss	True
100.236	0.39	Lose2	1.0	n/a	Yes	3.128	n/a	n/a	GoodResponse	0	n/a	n/a	3	9	Blank	AvoidedLoss	True
100.62	1.45	Lose2	1.0	n/a	Yes	3.128	n/a	5.0	GoodResponse	0	0.038	99.658	3	9	Feedback	AvoidedLoss	True
102.074	3.128	Lose2	1.0	n/a	Yes	3.128	n/a	n/a	GoodResponse	0	0.0	n/a	3	9	ISIslide	AvoidedLoss	True
105.217	0.25	Control	1.0	0.0	Yes	3.283	0.017	n/a	GoodResponse	0	n/a	n/a	3	10	Cue	Neutral	True
105.468	4.0	Control	1.0	0.0	Yes	3.283	0.001	n/a	GoodResponse	0	n/a	n/a	3	10	Fixation	Neutral	True
109.463	0.3	Control	1.0	0.004	Yes	3.283	-0.004	2.0	GoodResponse	0	0.297	108.76	3	10	Target	Neutral	True
109.76	0.3	Control	1.0	0.004	Yes	3.283	-0.004	2.0	GoodResponse	0	0.297	n/a	3	10	ButtonPress	Neutral	True
109.764	0.4	Control	1.0	n/a	Yes	3.283	n/a	n/a	GoodResponse	0	n/a	n/a	3	10	Blank	Neutral	True
110.165	1.45	Control	1.0	n/a	Yes	3.283	n/a	5.0	GoodResponse	0	0.007	109.172	3	10	Feedback	Neutral	True
111.62	3.283	Control	1.0	n/a	Yes	3.283	n/a	n/a	GoodResponse	0	0.0	n/a	3	10	ISIslide	Neutral	True
114.93	0.25	Lose2	1.0	0.0	Yes	2.72	0.03	n/a	GoodResponse	0	n/a	n/a	3	11	Cue	AvoidedLoss	True
115.18	4.05	Lose2	1.0	0.0	Yes	2.72	0.0	n/a	GoodResponse	0	n/a	n/a	3	11	Fixation	AvoidedLoss	True
119.226	0.29	Lose2	1.0	0.004	Yes	2.72	-0.004	2.0	GoodResponse	0	0.235	118.461	3	11	Target	AvoidedLoss	True
119.461	0.3	Lose2	1.0	0.004	Yes	2.72	-0.004	2.0	GoodResponse	0	0.235	n/a	3	11	ButtonPress	AvoidedLoss	True
119.527	0.41	Lose2	1.0	n/a	Yes	2.72	n/a	n/a	GoodResponse	0	n/a	n/a	3	11	Blank	AvoidedLoss	True
119.928	1.45	Lose2	1.0	n/a	Yes	2.72	n/a	5.0	GoodResponse	0	0.046	118.974	3	11	Feedback	AvoidedLoss	True
121.382	2.72	Lose2	1.0	n/a	Yes	2.72	n/a	n/a	GoodResponse	0	0.0	n/a	3	11	ISIslide	AvoidedLoss	True
124.124	0.25	Control	0.9231	0.0	No	2.976	0.024	n/a	NoResponse	0	n/a	n/a	3	12	Cue	Neutral	True
124.375	3.9	Control	0.9231	0.0	No	2.976	0.001	n/a	NoResponse	0	n/a	n/a	3	12	Fixation	Neutral	True
128.27	0.28	Control	0.9231	0.004	No	2.976	-0.004	2.0	NoResponse	0	0.298	127.568	3	12	Target	Neutral	True
128.554	0.42	Control	0.9231	n/a	No	2.976	n/a	n/a	NoResponse	0	n/a	n/a	3	12	Blank	Neutral	True
128.568	0.3	Control	0.9231	0.004	No	2.976	-0.004	2.0	NoResponse	0	0.298	n/a	3	12	ButtonPress	Neutral	True
128.972	1.45	Control	0.9231	n/a	No	2.976	n/a	5.0	NoResponse	0	0.026	127.998	3	12	Feedback	Neutral	True
130.426	2.976	Control	0.9231	n/a	No	2.976	n/a	n/a	NoResponse	0	0.0	n/a	3	12	ISIslide	Neutral	True
133.418	0.25	Control	0.8571	0.0	No	2.782	0.018	n/a	LatePress	0	n/a	n/a	3	13	Cue	Neutral	True
133.669	4.0	Control	0.8571	0.0	No	2.782	0.001	n/a	LatePress	0	n/a	n/a	3	13	Fixation	Neutral	True
137.664	0.27	Control	0.8571	0.004	No	2.782	-0.004	2.0	LatePress	0	0.272	136.936	3	13	Target	Neutral	True
137.936	0.3	Control	0.8571	0.004	No	2.782	-0.004	2.0	LatePress	0	0.272	n/a	3	13	ButtonPress	Neutral	True
137.948	0.43	Control	0.8571	n/a	No	2.782	n/a	n/a	LatePress	0	n/a	n/a	3	13	Blank	Neutral	True
138.366	1.45	Control	0.8571	n/a	No	2.782	n/a	5.0	LatePress	0	0.047	137.413	3	13	Feedback	Neutral	True
139.821	2.782	Control	0.8571	n/a	No	2.782	n/a	n/a	LatePress	0	0.0	n/a	3	13	ISIslide	Neutral	True
142.629	0.25	Win2	0.8667	0.0	Yes	2.671	0.029	n/a	GoodResponse	1	n/a	n/a	4	14	Cue	Win	True
142.88	4.1	Win2	0.8667	0.0	Yes	2.671	0.001	n/a	GoodResponse	1	n/a	n/a	4	14	Fixation	Win	True
146.976	0.26	Win2	0.8667	0.003	Yes	2.671	-0.003	2.0	GoodResponse	1	0.233	146.209	4	14	Target	Win	True
147.209	0.3	Win2	0.8667	0.003	Yes	2.671	-0.003	2.0	GoodResponse	1	0.233	n/a	4	14	ButtonPress	Win	True
147.243	0.44	Win2	0.8667	n/a	Yes	2.671	n/a	n/a	GoodResponse	1	n/a	n/a	4	14	Blank	Win	True
147.678	1.45	Win2	0.8667	n/a	Yes	2.671	n/a	5.0	GoodResponse	1	0.005	146.683	4	14	Feedback	Win	True
149.132	2.671	Win2	0.8667	n/a	Yes	2.671	n/a	n/a	GoodResponse	1	0.0	n/a	4	14	ISIslide	Win	True
151.823	0.25	Control	0.8125	0.0	No	2.977	0.023	n/a	NoResponse	0	n/a	n/a	4	15	Cue	Neutral	True
152.074	4.0	Control	0.8125	0.0	No	2.977	0.001	n/a	NoResponse	0	n/a	n/a	4	15	Fixation	Neutral	True
156.069	0.25	Control	0.8125	0.004	No	2.977	-0.004	2.0	NoResponse	0	0.371	155.44	4	15	Target	Neutral	True
156.32	0.45	Control	0.8125	n/a	No	2.977	n/a	n/a	NoResponse	0	n/a	n/a	4	15	Blank	Neutral	True
156.44	0.3	Control	0.8125	0.004	No	2.977	-0.004	2.0	NoResponse	0	0.371	n/a	4	15	ButtonPress	Neutral	True
156.771	1.45	Control	0.8125	n/a	No	2.977	n/a	5.0	NoResponse	0	0.033	155.804	4	15	Feedback	Neutral	True
158.226	2.977	Control	0.8125	n/a	No	2.977	n/a	n/a	NoResponse	0	0.0	n/a	4	15	ISIslide	Neutral	True
161.218	0.25	Win2	0.7646999999999999	0.0	No	2.882	0.018	n/a	LatePress	0	n/a	n/a	4	16	Cue	MissedWin	True
161.469	4.0	Win2	0.7646999999999999	0.0	No	2.882	0.001	n/a	LatePress	0	n/a	n/a	4	16	Fixation	MissedWin	True
165.464	0.24	Win2	0.7646999999999999	0.004	No	2.882	-0.004	2.0	LatePress	0	0.24	164.704	4	16	Target	MissedWin	True
165.704	0.3	Win2	0.7646999999999999	0.004	No	2.882	-0.004	2.0	LatePress	0	0.24	n/a	4	16	ButtonPress	MissedWin	True
165.715	0.46	Win2	0.7646999999999999	n/a	No	2.882	n/a	n/a	LatePress	0	n/a	n/a	4	16	Blank	MissedWin	True
166.166	1.45	Win2	0.7646999999999999	n/a	No	2.882	n/a	5.0	LatePress	0	0.007	165.173	4	16	Feedback	MissedWin	True
167.621	2.882	Win2	0.7646999999999999	n/a	No	2.882	n/a	n/a	LatePress	0	0.0	n/a	4	16	ISIslide	MissedWin	True
170.529	0.25	Lose2	0.7222	0.0	No	2.721	0.029	n/a	NoResponse	-1	n/a	n/a	3	17	Cue	Loss	True
170.78	3.95	Lose2	0.7222	0.0	No	2.721	0.001	n/a	NoResponse	-1	n/a	n/a	3	17	Fixation	Loss	True
174.725	0.23	Lose2	0.7222	0.004	No	2.721	-0.004	2.0	NoResponse	-1	0.271	173.996	3	17	Target	Loss	True
174.959	0.47	Lose2	0.7222	n/a	No	2.721	n/a	n/a	NoResponse	-1	n/a	n/a	3	17	Blank	Loss	True
174.996	0.3	Lose2	0.7222	0.004	No	2.721	-0.004	2.0	NoResponse	-1	0.271	n/a	3	17	ButtonPress	Loss	True
175.427	1.45	Lose2	0.7222	n/a	No	2.721	n/a	5.0	NoResponse	-1	0.01	174.437	3	17	Feedback	Loss	True
176.882	2.721	Lose2	0.7222	n/a	No	2.721	n/a	n/a	NoResponse	-1	0.0	n/a	3	17	ISIslide	Loss	True
179.623	0.25	Lose2	0.7368000000000001	0.0	Yes	2.727	0.023	n/a	GoodResponse	0	n/a	n/a	3	18	Cue	AvoidedLoss	True
179.874	4.05	Lose2	0.7368000000000001	0.0	Yes	2.727	0.001	n/a	GoodResponse	0	n/a	n/a	3	18	Fixation	AvoidedLoss	True
183.919	0.22	Lose2	0.7368000000000001	0.004	Yes	2.727	-0.004	2.0	GoodResponse	0	0.216	183.135	3	18	Target	AvoidedLoss	True
184.135	0.3	Lose2	0.7368000000000001	0.004	Yes	2.727	-0.004	2.0	GoodResponse	0	0.216	n/a	3	18	ButtonPress	AvoidedLoss	True
184.153	0.48	Lose2	0.7368000000000001	n/a	Yes	2.727	n/a	n/a	GoodResponse	0	n/a	n/a	3	18	Blank	AvoidedLoss	True
184.622	1.45	Lose2	0.7368000000000001	n/a	Yes	2.727	n/a	5.0	GoodResponse	0	0.035	183.657	3	18	Feedback	AvoidedLoss	True
186.076	2.727	Lose2	0.7368000000000001	n/a	Yes	2.727	n/a	n/a	GoodResponse	0	0.0	n/a	3	18	ISIslide	AvoidedLoss	True
188.817	0.25	Control	0.7	0.0	No	2.933	0.017	n/a	NoResponse	0	n/a	n/a	3	19	Cue	Neutral	True
189.068	3.95	Control	0.7	0.0	No	2.933	0.001	n/a	NoResponse	0	n/a	n/a	3	19	Fixation	Neutral	True
193.013	0.21	Control	0.7	0.004	No	2.933	-0.004	2.0	NoResponse	0	0.266	192.279	3	19	Target	Neutral	True
193.231	0.49	Control	0.7	n/a	No	2.933	n/a	n/a	NoResponse	0	n/a	n/a	3	19	Blank	Neutral	True
193.279	0.3	Control	0.7	0.004	No	2.933	-0.004	2.0	NoResponse	0	0.266	n/a	3	19	ButtonPress	Neutral	True
193.715	1.45	Control	0.7	n/a	No	2.933	n/a	5.0	NoResponse	0	0.015	192.73	3	19	Feedback	Neutral	True
195.17	2.933	Control	0.7	n/a	No	2.933	n/a	n/a	NoResponse	0	0.0	n/a	3	19	ISIslide	Neutral	True
198.129	0.25	Control	0.6667000000000001	0.0	No	2.621	0.029	n/a	NoResponse	0	n/a	n/a	3	20	Cue	Neutral	True
198.379	4.05	Control	0.6667000000000001	0.0	No	2.621	0.0	n/a	NoResponse	0	n/a	n/a	3	20	Fixation	Neutral	True
202.425	0.2	Control	0.6667000000000001	0.004	No	2.621	-0.004	2.0	NoResponse	0	0.384	201.809	3	20	Target	Neutral	True
202.625	0.5	Control	0.6667000000000001	n/a	No	2.621	n/a	n/a	NoResponse	0	n/a	n/a	3	20	Blank	Neutral	True
202.809	0.3	Control	0.6667000000000001	0.004	No	2.621	-0.004	2.0	NoResponse	0	0.384	n/a	3	20	ButtonPress	Neutral	True
203.127	1.45	Control	0.6667000000000001	n/a	No	2.621	n/a	5.0	NoResponse	0	0.018	202.145	3	20	Feedback	Neutral	True
204.581	2.621	Control	0.6667000000000001	n/a	No	2.621	n/a	n/a	NoResponse	0	0.0	n/a	3	20	ISIslide	Neutral	True
207.223	0.25	Control	0.6364	0.0	No	2.777	0.023	n/a	NoResponse	0	n/a	n/a	3	21	Cue	Neutral	False
207.473	4.1	Control	0.6364	0.0	No	2.777	0.0	2.0	NoResponse	0	0.145	206.618	3	21	Fixation	Neutral	False
207.618	0.3	Control	0.6364	0.0	No	2.777	0.0	2.0	NoResponse	0	0.145	n/a	3	21	ButtonPress	Neutral	False
211.569	0.19	Control	0.6364	0.004	No	2.777	-0.004	2.0	NoResponse	0	0.337	210.906	3	21	Target	Neutral	False
211.769	0.51	Control	0.6364	n/a	No	2.777	n/a	n/a	NoResponse	0	n/a	n/a	3	21	Blank	Neutral	False
211.906	0.3	Control	0.6364	0.004	No	2.777	-0.004	2.0	NoResponse	0	0.337	n/a	3	21	ButtonPress	Neutral	False
212.271	1.45	Control	0.6364	n/a	No	2.777	n/a	5.0	NoResponse	0	0.043	211.314	3	21	Feedback	Neutral	False
213.725	2.777	Control	0.6364	n/a	No	2.777	n/a	n/a	NoResponse	0	0.0	n/a	3	21	ISIslide	Neutral	False
216.517	0.25	Control	0.6087	0.0	No	2.783	0.017	n/a	NoResponse	0	n/a	n/a	3	22	Cue	Neutral	True
216.768	4.0	Control	0.6087	0.0	No	2.783	0.001	n/a	NoResponse	0	n/a	n/a	3	22	Fixation	Neutral	True
220.763	0.2	Control	0.6087	0.004	No	2.783	-0.004	2.0	NoResponse	0	0.263	220.026	3	22	Target	Neutral	True
220.964	0.5	Control	0.6087	n/a	No	2.783	n/a	n/a	NoResponse	0	n/a	n/a	3	22	Blank	Neutral	True
221.026	0.3	Control	0.6087	0.004	No	2.783	-0.004	2.0	NoResponse	0	0.263	n/a	3	22	ButtonPress	Neutral	True
221.465	1.45	Control	0.6087	n/a	No	2.783	n/a	5.0	NoResponse	0	0.02	220.485	3	22	Feedback	Neutral	True
222.919	2.783	Control	0.6087	n/a	No	2.783	n/a	n/a	NoResponse	0	0.0	n/a	3	22	ISIslide	Neutral	True
225.728	0.25	Control	0.5832999999999999	0.0	No	2.772	0.028	n/a	NoResponse	0	n/a	n/a	3	23	Cue	Neutral	True
225.979	3.9	Control	0.5832999999999999	0.0	No	2.772	0.001	n/a	NoResponse	0	n/a	n/a	3	23	Fixation	Neutral	True
229.874	0.21	Control	0.5832999999999999	0.004	No	2.772	-0.004	2.0	NoResponse	0	0.374	229.248	3	23	Target	Neutral	True
230.091	0.49	Control	0.5832999999999999	n/a	No	2.772	n/a	n/a	NoResponse	0	n/a	n/a	3	23	Blank	Neutral	True
230.248	0.3	Control	0.5832999999999999	0.004	No	2.772	-0.004	2.0	NoResponse	0	0.374	n/a	3	23	ButtonPress	Neutral	True
230.576	1.45	Control	0.5832999999999999	n/a	No	2.772	n/a	5.0	NoResponse	0	0.031	229.607	3	23	Feedback	Neutral	True
232.03	2.772	Control	0.5832999999999999	n/a	No	2.772	n/a	n/a	NoResponse	0	0.0	n/a	3	23	ISIslide	Neutral	True
234.822	0.25	Win2	0.56	0.0	No	3.128	0.022	n/a	LatePress	0	n/a	n/a	3	24	Cue	MissedWin	True
235.073	3.95	Win2	0.56	0.0	No	3.128	0.001	n/a	LatePress	0	n/a	n/a	3	24	Fixation	MissedWin	True
239.018	0.22	Win2	0.56	0.004	No	3.128	-0.004	2.0	LatePress	0	0.222	238.24	3	24	Target	MissedWin	True
239.24	0.3	Win2	0.56	0.004	No	3.128	-0.004	2.0	LatePress	0	0.222	n/a	3	24	ButtonPress	MissedWin	True
239.252	0.48	Win2	0.56	n/a	No	3.128	n/a	n/a	LatePress	0	n/a	n/a	3	24	Blank	MissedWin	True
239.72	1.45	Win2	0.56	n/a	No	3.128	n/a	5.0	LatePress	0	0.009	238.729	3	24	Feedback	MissedWin	True
241.174	3.128	Win2	0.56	n/a	No	3.128	n/a	n/a	LatePress	0	0.0	n/a	3	24	ISIslide	MissedWin	True
244.317	0.25	Win2	0.5385	0.0	No	3.083	0.017	n/a	NoResponse	0	n/a	n/a	3	25	Cue	MissedWin	True
244.568	4.0	Win2	0.5385	0.0	No	3.083	0.001	n/a	NoResponse	0	n/a	n/a	3	25	Fixation	MissedWin	True
248.563	0.23	Win2	0.5385	0.004	No	3.083	-0.004	2.0	NoResponse	0	0.276	247.839	3	25	Target	MissedWin	True
248.797	0.47	Win2	0.5385	n/a	No	3.083	n/a	n/a	NoResponse	0	n/a	n/a	3	25	Blank	MissedWin	True
248.839	0.3	Win2	0.5385	0.004	No	3.083	-0.004	2.0	NoResponse	0	0.276	n/a	3	25	ButtonPress	MissedWin	True
249.265	1.45	Win2	0.5385	n/a	No	3.083	n/a	5.0	NoResponse	0	0.025	248.29	3	25	Feedback	MissedWin	True
250.719	3.083	Win2	0.5385	n/a	No	3.083	n/a	n/a	NoResponse	0	0.0	n/a	3	25	ISIslide	MissedWin	True
253.829	0.25	Win2	0.5185	0.0	No	2.921	0.029	n/a	NoResponse	0	n/a	n/a	3	26	Cue	MissedWin	True
254.079	3.95	Win2	0.5185	0.001	No	2.921	0.0	n/a	NoResponse	0	n/a	n/a	3	26	Fixation	MissedWin	True
258.025	0.24	Win2	0.5185	0.004	No	2.921	-0.004	2.0	NoResponse	0	0.259	257.284	3	26	Target	MissedWin	True
258.275	0.46	Win2	0.5185	n/a	No	2.921	n/a	n/a	NoResponse	0	n/a	n/a	3	26	Blank	MissedWin	True
258.284	0.3	Win2	0.5185	0.004	No	2.921	-0.004	2.0	NoResponse	0	0.259	n/a	3	26	ButtonPress	MissedWin	True
258.727	1.45	Win2	0.5185	n/a	No	2.921	n/a	5.0	NoResponse	0	0.027	257.754	3	26	Feedback	MissedWin	True
260.181	2.921	Win2	0.5185	n/a	No	2.921	n/a	n/a	NoResponse	0	0.0	n/a	3	26	ISIslide	MissedWin	True
263.123	0.25	Lose2	0.5	0.0	No	2.827	0.023	n/a	NoResponse	-1	n/a	n/a	2	27	Cue	Loss	True
263.374	4.05	Lose2	0.5	0.0	No	2.827	0.001	n/a	NoResponse	-1	n/a	n/a	2	27	Fixation	Loss	True
267.419	0.25	Lose2	0.5	0.004	No	2.827	-0.004	2.0	NoResponse	-1	0.293	266.712	2	27	Target	Loss	True
267.67	0.45	Lose2	0.5	n/a	No	2.827	n/a	n/a	NoResponse	-1	n/a	n/a	2	27	Blank	Loss	True
267.712	0.3	Lose2	0.5	0.004	No	2.827	-0.004	2.0	NoResponse	-1	0.293	n/a	2	27	ButtonPress	Loss	True
268.121	1.45	Lose2	0.5	n/a	No	2.827	n/a	5.0	NoResponse	-1	0.047	267.168	2	27	Feedback	Loss	True
269.576	2.827	Lose2	0.5	n/a	No	2.827	n/a	n/a	NoResponse	-1	0.0	n/a	2	27	ISIslide	Loss	True
272.418	0.25	Control	0.4828	0.0	No	2.832	0.018	n/a	NoResponse	0	n/a	n/a	2	28	Cue	Neutral	True
272.668	4.05	Control	0.4828	0.0	No	2.832	0.0	n/a	NoResponse	0	n/a	n/a	2	28	Fixation	Neutral	True
276.714	0.26	Control	0.4828	0.004	No	2.832	-0.004	2.0	NoResponse	0	0.287	276.001	2	28	Target	Neutral	True
276.981	0.44	Control	0.4828	n/a	No	2.832	n/a	n/a	NoResponse	0	n/a	n/a	2	28	Blank	Neutral	True
277.001	0.3	Control	0.4828	0.004	No	2.832	-0.004	2.0	NoResponse	0	0.287	n/a	2	28	ButtonPress	Neutral	True
277.416	1.45	Control	0.4828	n/a	No	2.832	n/a	5.0	NoResponse	0	0.02	276.436	2	28	Feedback	Neutral	True
278.87	2.832	Control	0.4828	n/a	No	2.832	n/a	n/a	NoResponse	0	0.0	n/a	2	28	ISIslide	Neutral	True
281.729	0.25	Lose2	0.5	0.0	Yes	2.821	0.029	n/a	GoodResponse	0	n/a	n/a	2	29	Cue	AvoidedLoss	True
281.98	3.95	Lose2	0.5	0.0	Yes	2.821	0.001	n/a	GoodResponse	0	n/a	n/a	2	29	Fixation	AvoidedLoss	True
285.925	0.27	Lose2	0.5	0.004	Yes	2.821	-0.004	2.0	GoodResponse	0	0.184	285.109	2	29	Target	AvoidedLoss	True
286.109	0.3	Lose2	0.5	0.004	Yes	2.821	-0.004	2.0	GoodResponse	0	0.184	n/a	2	29	ButtonPress	AvoidedLoss	True
286.209	0.43	Lose2	0.5	n/a	Yes	2.821	n/a	n/a	GoodResponse	0	n/a	n/a	2	29	Blank	AvoidedLoss	True
286.627	1.45	Lose2	0.5	n/a	Yes	2.821	n/a	5.0	GoodResponse	0	0.029	285.656	2	29	Feedback	AvoidedLoss	True
288.081	2.821	Lose2	0.5	n/a	Yes	2.821	n/a	n/a	GoodResponse	0	0.0	n/a	2	29	ISIslide	AvoidedLoss	True
290.923	0.25	Win2	0.5161	0.0	Yes	2.777	0.023	n/a	GoodResponse	1	n/a	n/a	3	30	Cue	Win	True
291.174	3.9	Win2	0.5161	0.0	Yes	2.777	0.001	n/a	GoodResponse	1	n/a	n/a	3	30	Fixation	Win	True
295.069	0.28	Win2	0.5161	0.004	Yes	2.777	-0.004	2.0	GoodResponse	1	0.191	294.26	3	30	Target	Win	True
295.26	0.3	Win2	0.5161	0.004	Yes	2.777	-0.004	2.0	GoodResponse	1	0.191	n/a	3	30	ButtonPress	Win	True
295.353	0.42	Win2	0.5161	n/a	Yes	2.777	n/a	n/a	GoodResponse	1	n/a	n/a	3	30	Blank	Win	True
295.771	1.45	Win2	0.5161	n/a	Yes	2.777	n/a	5.0	GoodResponse	1	0.007	294.778	3	30	Feedback	Win	True
297.225	2.777	Win2	0.5161	n/a	Yes	2.777	n/a	n/a	GoodResponse	1	0.0	n/a	3	30	ISIslide	Win	True
300.017	0.25	Lose2	0.5312	0.0	Yes	2.833	0.017	n/a	GoodResponse	0	n/a	n/a	3	31	Cue	AvoidedLoss	True
300.268	4.05	Lose2	0.5312	0.0	Yes	2.833	0.001	n/a	GoodResponse	0	n/a	n/a	3	31	Fixation	AvoidedLoss	True
304.313	0.29	Lose2	0.5312	0.004	Yes	2.833	-0.004	2.0	GoodResponse	0	0.177	303.49	3	31	Target	AvoidedLoss	True
304.49	0.3	Lose2	0.5312	0.004	Yes	2.833	-0.004	2.0	GoodResponse	0	0.177	n/a	3	31	ButtonPress	AvoidedLoss	True
304.614	0.41	Lose2	0.5312	n/a	Yes	2.833	n/a	n/a	GoodResponse	0	n/a	n/a	3	31	Blank	AvoidedLoss	True
305.015	1.45	Lose2	0.5312	n/a	Yes	2.833	n/a	5.0	GoodResponse	0	0.031	304.046	3	31	Feedback	AvoidedLoss	True
306.47	2.833	Lose2	0.5312	n/a	Yes	2.833	n/a	n/a	GoodResponse	0	0.0	n/a	3	31	ISIslide	AvoidedLoss	True
309.328	0.25	Lose2	0.5455	0.0	Yes	2.622	0.028	n/a	GoodResponse	0	n/a	n/a	3	32	Cue	AvoidedLoss	True
309.579	4.15	Lose2	0.5455	0.0	Yes	2.622	0.001	n/a	GoodResponse	0	n/a	n/a	3	32	Fixation	AvoidedLoss	True
313.725	0.3	Lose2	0.5455	0.003	Yes	2.622	-0.003	2.0	GoodResponse	0	0.226	312.951	3	32	Target	AvoidedLoss	True
313.951	0.3	Lose2	0.5455	0.003	Yes	2.622	-0.003	2.0	GoodResponse	0	0.226	n/a	3	32	ButtonPress	AvoidedLoss	True
314.026	0.4	Lose2	0.5455	n/a	Yes	2.622	n/a	n/a	GoodResponse	0	n/a	n/a	3	32	Blank	AvoidedLoss	True
314.427	1.45	Lose2	0.5455	n/a	Yes	2.622	n/a	5.0	GoodResponse	0	0.033	313.46	3	32	Feedback	AvoidedLoss	True
315.881	2.622	Lose2	0.5455	n/a	Yes	2.622	n/a	n/a	GoodResponse	0	0.0	n/a	3	32	ISIslide	AvoidedLoss	True
318.522	0.25	Win2	0.5294	0.0	No	2.678	0.022	n/a	NoResponse	0	n/a	n/a	3	33	Cue	MissedWin	True
318.773	4.0	Win2	0.5294	0.0	No	2.678	0.001	n/a	NoResponse	0	n/a	n/a	3	33	Fixation	MissedWin	True
322.768	0.31	Win2	0.5294	0.004	No	2.678	-0.004	2.0	NoResponse	0	0.37	322.138	3	33	Target	MissedWin	True
323.086	0.39	Win2	0.5294	n/a	No	2.678	n/a	n/a	NoResponse	0	n/a	n/a	3	33	Blank	MissedWin	True
323.138	0.3	Win2	0.5294	0.004	No	2.678	-0.004	2.0	NoResponse	0	0.37	n/a	3	33	ButtonPress	MissedWin	True
323.47	1.45	Win2	0.5294	n/a	No	2.678	n/a	5.0	NoResponse	0	0.014	322.484	3	33	Feedback	MissedWin	True
324.925	2.678	Win2	0.5294	n/a	No	2.678	n/a	n/a	NoResponse	0	0.0	n/a	3	33	ISIslide	MissedWin	True
327.616	0.25	Lose2	0.5428999999999999	0.0	Yes	2.634	0.016	n/a	GoodResponse	0	n/a	n/a	3	34	Cue	AvoidedLoss	True
327.867	4.05	Lose2	0.5428999999999999	0.0	Yes	2.634	0.001	n/a	GoodResponse	0	n/a	n/a	3	34	Fixation	AvoidedLoss	True
331.912	0.32	Lose2	0.5428999999999999	0.004	Yes	2.634	-0.004	2.0	GoodResponse	0	0.27	331.182	3	34	Target	AvoidedLoss	True
332.182	0.3	Lose2	0.5428999999999999	0.004	Yes	2.634	-0.004	2.0	GoodResponse	0	0.27	n/a	3	34	ButtonPress	AvoidedLoss	True
332.247	0.38	Lose2	0.5428999999999999	n/a	Yes	2.634	n/a	n/a	GoodResponse	0	n/a	n/a	3	34	Blank	AvoidedLoss	True
332.615	1.45	Lose2	0.5428999999999999	n/a	Yes	2.634	n/a	5.0	GoodResponse	0	0.04	331.655	3	34	Feedback	AvoidedLoss	True
334.069	2.634	Lose2	0.5428999999999999	n/a	Yes	2.634	n/a	n/a	GoodResponse	0	0.0	n/a	3	34	ISIslide	AvoidedLoss	True
336.727	0.25	Lose2	0.5556	0.0	Yes	2.673	0.027	n/a	GoodResponse	0	n/a	n/a	3	35	Cue	AvoidedLoss	True
336.978	4.0	Lose2	0.5556	0.0	Yes	2.673	0.001	n/a	GoodResponse	0	n/a	n/a	3	35	Fixation	AvoidedLoss	True
340.973	0.33	Lose2	0.5556	0.004	Yes	2.673	-0.004	2.0	GoodResponse	0	0.205	340.178	3	35	Target	AvoidedLoss	True
341.178	0.3	Lose2	0.5556	0.004	Yes	2.673	-0.004	2.0	GoodResponse	0	0.205	n/a	3	35	ButtonPress	AvoidedLoss	True
341.307	0.37	Lose2	0.5556	n/a	Yes	2.673	n/a	n/a	GoodResponse	0	n/a	n/a	3	35	Blank	AvoidedLoss	True
341.675	1.45	Lose2	0.5556	n/a	Yes	2.673	n/a	5.0	GoodResponse	0	0.006	340.681	3	35	Feedback	AvoidedLoss	True
343.129	2.673	Lose2	0.5556	n/a	Yes	2.673	n/a	n/a	GoodResponse	0	0.0	n/a	3	35	ISIslide	AvoidedLoss	True
345.821	0.25	Control	0.5676	0.0	Yes	2.679	0.021	n/a	GoodResponse	0	n/a	n/a	3	36	Cue	Neutral	True
346.071	4.0	Control	0.5676	0.001	Yes	2.679	0.0	n/a	GoodResponse	0	n/a	n/a	3	36	Fixation	Neutral	True
350.067	0.34	Control	0.5676	0.004	Yes	2.679	-0.004	2.0	GoodResponse	0	0.327	349.394	3	36	Target	Neutral	True
350.394	0.3	Control	0.5676	0.004	Yes	2.679	-0.004	2.0	GoodResponse	0	0.327	n/a	3	36	ButtonPress	Neutral	True
350.418	0.36	Control	0.5676	n/a	Yes	2.679	n/a	n/a	GoodResponse	0	n/a	n/a	3	36	Blank	Neutral	True
350.769	1.45	Control	0.5676	n/a	Yes	2.679	n/a	5.0	GoodResponse	0	0.033	349.802	3	36	Feedback	Neutral	True
352.223	2.679	Control	0.5676	n/a	Yes	2.679	n/a	n/a	GoodResponse	0	0.0	n/a	3	36	ISIslide	Neutral	True
354.915	0.25	Win2	0.5789	0.0	Yes	2.885	0.015	n/a	GoodResponse	1	n/a	n/a	4	37	Cue	Win	True
355.165	4.0	Win2	0.5789	0.0	Yes	2.885	0.0	n/a	GoodResponse	1	n/a	n/a	4	37	Fixation	Win	True
359.161	0.35	Win2	0.5789	0.004	Yes	2.885	-0.004	2.0	GoodResponse	1	0.238	358.399	4	37	Target	Win	True
359.399	0.3	Win2	0.5789	0.004	Yes	2.885	-0.004	2.0	GoodResponse	1	0.238	n/a	4	37	ButtonPress	Win	True
359.512	0.35	Win2	0.5789	n/a	Yes	2.885	n/a	n/a	GoodResponse	1	n/a	n/a	4	37	Blank	Win	True
359.863	1.45	Win2	0.5789	n/a	Yes	2.885	n/a	5.0	GoodResponse	1	0.012	358.875	4	37	Feedback	Win	True
361.317	2.885	Win2	0.5789	n/a	Yes	2.885	n/a	n/a	GoodResponse	1	0.0	n/a	4	37	ISIslide	Win	True
364.226	0.25	Lose2	0.5897	0.0	Yes	2.824	0.026	n/a	GoodResponse	0	n/a	n/a	4	38	Cue	AvoidedLoss	True
364.477	3.95	Lose2	0.5897	0.0	Yes	2.824	0.001	n/a	GoodResponse	0	n/a	n/a	4	38	Fixation	AvoidedLoss	True
368.422	0.36	Lose2	0.5897	0.004	Yes	2.824	-0.004	2.0	GoodResponse	0	0.287	367.709	4	38	Target	AvoidedLoss	True
368.709	0.3	Lose2	0.5897	0.004	Yes	2.824	-0.004	2.0	GoodResponse	0	0.287	n/a	4	38	ButtonPress	AvoidedLoss	True
368.789	0.34	Lose2	0.5897	n/a	Yes	2.824	n/a	n/a	GoodResponse	0	n/a	n/a	4	38	Blank	AvoidedLoss	True
369.124	1.45	Lose2	0.5897	n/a	Yes	2.824	n/a	5.0	GoodResponse	0	0.019	368.143	4	38	Feedback	AvoidedLoss	True
370.578	2.824	Lose2	0.5897	n/a	Yes	2.824	n/a	n/a	GoodResponse	0	0.0	n/a	4	38	ISIslide	AvoidedLoss	True
373.42	0.25	Win2	0.6	0.0	Yes	2.98	0.02	n/a	GoodResponse	1	n/a	n/a	5	39	Cue	Win	True
373.671	4.1	Win2	0.6	0.0	Yes	2.98	0.001	n/a	GoodResponse	1	n/a	n/a	5	39	Fixation	Win	True
377.766	0.37	Win2	0.6	0.004	Yes	2.98	-0.004	2.0	GoodResponse	1	0.342	377.108	5	39	Target	Win	True
378.108	0.3	Win2	0.6	0.004	Yes	2.98	-0.004	2.0	GoodResponse	1	0.342	n/a	5	39	ButtonPress	Win	True
378.151	0.33	Win2	0.6	n/a	Yes	2.98	n/a	n/a	GoodResponse	1	n/a	n/a	5	39	Blank	Win	True
378.468	1.45	Win2	0.6	n/a	Yes	2.98	n/a	5.0	GoodResponse	1	0.04	377.508	5	39	Feedback	Win	True
379.923	2.98	Win2	0.6	n/a	Yes	2.98	n/a	n/a	GoodResponse	1	0.0	n/a	5	39	ISIslide	Win	True
382.915	0.25	Win2	0.6098	0.0	Yes	2.735	0.015	n/a	GoodResponse	1	n/a	n/a	6	40	Cue	Win	True
383.166	3.95	Win2	0.6098	0.0	Yes	2.735	0.001	n/a	GoodResponse	1	n/a	n/a	6	40	Fixation	Win	True
387.111	0.38	Win2	0.6098	0.004	Yes	2.735	-0.004	2.0	GoodResponse	1	0.289	386.4	6	40	Target	Win	True
387.4	0.3	Win2	0.6098	0.004	Yes	2.735	-0.004	2.0	GoodResponse	1	0.289	n/a	6	40	ButtonPress	Win	True
387.495	0.32	Win2	0.6098	n/a	Yes	2.735	n/a	n/a	GoodResponse	1	n/a	n/a	6	40	Blank	Win	True
387.813	1.45	Win2	0.6098	n/a	Yes	2.735	n/a	5.0	GoodResponse	1	0.013	386.826	6	40	Feedback	Win	True
389.267	2.735	Win2	0.6098	n/a	Yes	2.735	n/a	n/a	GoodResponse	1	0.0	n/a	6	40	ISIslide	Win	True
392.026	0.25	Win2	0.619	0.0	Yes	2.774	0.026	n/a	GoodResponse	1	n/a	n/a	7	41	Cue	Win	True
392.276	3.9	Win2	0.619	0.001	Yes	2.774	0.0	n/a	GoodResponse	1	n/a	n/a	7	41	Fixation	Win	True
396.188	0.39	Win2	0.619	0.0	Yes	2.774	0.012	2.0	GoodResponse	1	0.242	395.43	7	41	Target	Win	True
396.43	0.3	Win2	0.619	0.0	Yes	2.774	0.012	2.0	GoodResponse	1	0.242	n/a	7	41	ButtonPress	Win	True
396.573	0.31	Win2	0.619	n/a	Yes	2.774	n/a	n/a	GoodResponse	1	n/a	n/a	7	41	Blank	Win	True
396.874	1.45	Win2	0.619	n/a	Yes	2.774	n/a	5.0	GoodResponse	1	0.025	395.899	7	41	Feedback	Win	True
398.328	2.774	Win2	0.619	n/a	Yes	2.774	n/a	n/a	GoodResponse	1	0.0	n/a	7	41	ISIslide	Win	True
401.12	0.25	Control	0.6279	0.0	Yes	2.93	0.02	n/a	GoodResponse	0	n/a	n/a	7	42	Cue	Neutral	True
401.37	3.85	Control	0.6279	0.0	Yes	2.93	0.0	n/a	GoodResponse	0	n/a	n/a	7	42	Fixation	Neutral	True
405.232	0.4	Control	0.6279	0.0	Yes	2.93	0.012	2.0	GoodResponse	0	0.25	404.482	7	42	Target	Neutral	True
405.482	0.3	Control	0.6279	0.0	Yes	2.93	0.012	2.0	GoodResponse	0	0.25	n/a	7	42	ButtonPress	Neutral	True
405.616	0.3	Control	0.6279	n/a	Yes	2.93	n/a	n/a	GoodResponse	0	n/a	n/a	7	42	Blank	Neutral	True
405.917	1.45	Control	0.6279	n/a	Yes	2.93	n/a	5.0	GoodResponse	0	0.006	404.923	7	42	Feedback	Neutral	True
407.372	2.93	Control	0.6279	n/a	Yes	2.93	n/a	n/a	GoodResponse	0	0.0	n/a	7	42	ISIslide	Neutral	True
410.314	0.25	Win2	0.6364	0.0	Yes	3.186	0.014	n/a	GoodResponse	1	n/a	n/a	8	43	Cue	Win	False
410.565	4.0	Win2	0.6364	0.0	Yes	3.186	0.001	2.0	GoodResponse	1	0.08	409.645	8	43	Fixation	Win	False
410.645	0.3	Win2	0.6364	0.0	Yes	3.186	0.001	2.0	GoodResponse	1	0.08	n/a	8	43	ButtonPress	Win	False
414.56	0.41	Win2	0.6364	0.004	Yes	3.186	-0.004	2.0	GoodResponse	1	0.234	413.794	8	43	Target	Win	False
414.794	0.3	Win2	0.6364	0.004	Yes	3.186	-0.004	2.0	GoodResponse	1	0.234	n/a	8	43	ButtonPress	Win	False
414.978	0.29	Win2	0.6364	n/a	Yes	3.186	n/a	n/a	GoodResponse	1	n/a	n/a	8	43	Blank	Win	False
415.262	1.45	Win2	0.6364	n/a	Yes	3.186	n/a	5.0	GoodResponse	1	0.026	414.288	8	43	Feedback	Win	False
416.716	3.186	Win2	0.6364	n/a	Yes	3.186	n/a	n/a	GoodResponse	1	0.0	n/a	8	43	ISIslide	Win	False
419.926	0.25	Win2	0.6222	0.0	No	2.974	0.026	n/a	NoResponse	0	n/a	n/a	8	44	Cue	MissedWin	False
420.177	4.0	Win2	0.6222	0.0	No	2.974	0.001	n/a	NoResponse	0	n/a	n/a	8	44	Fixation	MissedWin	False
424.172	0.42	Win2	0.6222	0.004	No	2.974	-0.004	n/a	NoResponse	0	n/a	n/a	8	44	Target	MissedWin	False
424.607	0.28	Win2	0.6222	n/a	No	2.974	n/a	n/a	NoResponse	0	n/a	n/a	8	44	Blank	MissedWin	False
424.874	1.45	Win2	0.6222	n/a	No	2.974	n/a	5.0	NoResponse	0	0.024	423.898	8	44	Feedback	MissedWin	False
426.328	2.974	Win2	0.6222	n/a	No	2.974	n/a	n/a	NoResponse	0	0.0	n/a	8	44	ISIslide	MissedWin	False
429.321	0.25	Control	0.6304	0.0	Yes	2.879	0.021	n/a	GoodResponse	0	n/a	n/a	8	45	Cue	Neutral	True
429.571	4.1	Control	0.6304	0.0	Yes	2.879	0.0	n/a	GoodResponse	0	n/a	n/a	8	45	Fixation	Neutral	True
433.667	0.43	Control	0.6304	0.004	Yes	2.879	-0.004	2.0	GoodResponse	0	0.237	432.904	8	45	Target	Neutral	True
433.904	0.3	Control	0.6304	0.004	Yes	2.879	-0.004	2.0	GoodResponse	0	0.237	n/a	8	45	ButtonPress	Neutral	True
434.102	0.27	Control	0.6304	n/a	Yes	2.879	n/a	n/a	GoodResponse	0	n/a	n/a	8	45	Blank	Neutral	True
434.369	1.45	Control	0.6304	n/a	Yes	2.879	n/a	5.0	GoodResponse	0	0.042	433.411	8	45	Feedback	Neutral	True
435.823	2.879	Control	0.6304	n/a	Yes	2.879	n/a	n/a	GoodResponse	0	0.0	n/a	8	45	ISIslide	Neutral	True
438.715	0.25	Lose2	0.6383	0.001	Yes	3.385	0.015	n/a	GoodResponse	0	n/a	n/a	8	46	Cue	AvoidedLoss	True
438.966	4.0	Lose2	0.6383	0.0	Yes	3.385	0.001	n/a	GoodResponse	0	n/a	n/a	8	46	Fixation	AvoidedLoss	True
442.961	0.44	Lose2	0.6383	0.004	Yes	3.385	-0.004	2.0	GoodResponse	0	0.218	442.179	8	46	Target	AvoidedLoss	True
443.179	0.3	Lose2	0.6383	0.004	Yes	3.385	-0.004	2.0	GoodResponse	0	0.218	n/a	8	46	ButtonPress	AvoidedLoss	True
443.413	0.26	Lose2	0.6383	n/a	Yes	3.385	n/a	n/a	GoodResponse	0	n/a	n/a	8	46	Blank	AvoidedLoss	True
443.664	1.45	Lose2	0.6383	n/a	Yes	3.385	n/a	5.0	GoodResponse	0	0.015	442.679	8	46	Feedback	AvoidedLoss	True
445.118	3.385	Lose2	0.6383	n/a	Yes	3.385	n/a	n/a	GoodResponse	0	0.0	n/a	8	46	ISIslide	AvoidedLoss	True
448.528	0.25	Lose2	0.6457999999999999	0.0	Yes	2.672	0.028	n/a	GoodResponse	0	n/a	n/a	8	47	Cue	AvoidedLoss	True
448.779	4.0	Lose2	0.6457999999999999	0.0	Yes	2.672	0.001	n/a	GoodResponse	0	n/a	n/a	8	47	Fixation	AvoidedLoss	True
452.774	0.45	Lose2	0.6457999999999999	0.004	Yes	2.672	-0.004	2.0	GoodResponse	0	0.297	452.071	8	47	Target	AvoidedLoss	True
453.071	0.3	Lose2	0.6457999999999999	0.004	Yes	2.672	-0.004	2.0	GoodResponse	0	0.297	n/a	8	47	ButtonPress	AvoidedLoss	True
453.226	0.25	Lose2	0.6457999999999999	n/a	Yes	2.672	n/a	n/a	GoodResponse	0	n/a	n/a	8	47	Blank	AvoidedLoss	True
453.476	1.45	Lose2	0.6457999999999999	n/a	Yes	2.672	n/a	5.0	GoodResponse	0	0.008	452.484	8	47	Feedback	AvoidedLoss	True
454.931	2.672	Lose2	0.6457999999999999	n/a	Yes	2.672	n/a	n/a	GoodResponse	0	0.0	n/a	8	47	ISIslide	AvoidedLoss	True
457.622	0.25	Lose2	0.6531	0.0	Yes	3.028	0.022	n/a	GoodResponse	0	n/a	n/a	8	48	Cue	AvoidedLoss	True
457.873	3.95	Lose2	0.6531	0.0	Yes	3.028	0.001	n/a	GoodResponse	0	n/a	n/a	8	48	Fixation	AvoidedLoss	True
461.818	0.46	Lose2	0.6531	0.004	Yes	3.028	-0.004	2.0	GoodResponse	0	0.264	461.082	8	48	Target	AvoidedLoss	True
462.082	0.3	Lose2	0.6531	0.004	Yes	3.028	-0.004	2.0	GoodResponse	0	0.264	n/a	8	48	ButtonPress	AvoidedLoss	True
462.286	0.24	Lose2	0.6531	n/a	Yes	3.028	n/a	n/a	GoodResponse	0	n/a	n/a	8	48	Blank	AvoidedLoss	True
462.52	1.45	Lose2	0.6531	n/a	Yes	3.028	n/a	5.0	GoodResponse	0	0.036	461.556	8	48	Feedback	AvoidedLoss	True
463.974	3.028	Lose2	0.6531	n/a	Yes	3.028	n/a	n/a	GoodResponse	0	0.0	n/a	8	48	ISIslide	AvoidedLoss	True
467.017	0.25	Control	0.66	0.0	Yes	2.883	0.017	n/a	GoodResponse	0	n/a	n/a	8	49	Cue	Neutral	True
467.268	4.0	Control	0.66	0.0	Yes	2.883	0.001	n/a	GoodResponse	0	n/a	n/a	8	49	Fixation	Neutral	True
471.263	0.47	Control	0.66	0.004	Yes	2.883	-0.004	2.0	GoodResponse	0	0.368	470.631	8	49	Target	Neutral	True
471.631	0.3	Control	0.66	0.004	Yes	2.883	-0.004	2.0	GoodResponse	0	0.368	n/a	8	49	ButtonPress	Neutral	True
471.748	0.23	Control	0.66	n/a	Yes	2.883	n/a	n/a	GoodResponse	0	n/a	n/a	8	49	Blank	Neutral	True
471.965	1.45	Control	0.66	n/a	Yes	2.883	n/a	5.0	GoodResponse	0	0.006	470.971	8	49	Feedback	Neutral	True
473.419	2.883	Control	0.66	n/a	Yes	2.883	n/a	n/a	GoodResponse	0	0.0	n/a	8	49	ISIslide	Neutral	True
476.328	0.25	Control	0.6667000000000001	0.0	Yes	2.772	0.028	n/a	GoodResponse	0	n/a	n/a	8	50	Cue	Neutral	True
476.579	4.0	Control	0.6667000000000001	0.0	Yes	2.772	0.001	n/a	GoodResponse	0	n/a	n/a	8	50	Fixation	Neutral	True
480.574	0.47	Control	0.6667000000000001	0.004	Yes	2.772	-0.004	2.0	GoodResponse	0	0.266	479.84	8	50	Target	Neutral	True
480.84	0.3	Control	0.6667000000000001	0.004	Yes	2.772	-0.004	2.0	GoodResponse	0	0.266	n/a	8	50	ButtonPress	Neutral	True
481.059	0.23	Control	0.6667000000000001	n/a	Yes	2.772	n/a	n/a	GoodResponse	0	n/a	n/a	8	50	Blank	Neutral	True
481.276	1.45	Control	0.6667000000000001	n/a	Yes	2.772	n/a	5.0	GoodResponse	0	0.012	480.288	8	50	Feedback	Neutral	True
482.731	2.772	Control	0.6667000000000001	n/a	Yes	2.772	n/a	n/a	GoodResponse	0	0.0	n/a	8	50	ISIslide	Neutral	True
485.522	0.25	Control	0.6731	0.0	Yes	2.728	0.022	n/a	GoodResponse	0	n/a	n/a	8	51	Cue	Neutral	True
485.773	3.95	Control	0.6731	0.0	Yes	2.728	0.001	n/a	GoodResponse	0	n/a	n/a	8	51	Fixation	Neutral	True
489.718	0.46	Control	0.6731	0.004	Yes	2.728	-0.004	2.0	GoodResponse	0	0.256	488.974	8	51	Target	Neutral	True
489.974	0.3	Control	0.6731	0.004	Yes	2.728	-0.004	2.0	GoodResponse	0	0.256	n/a	8	51	ButtonPress	Neutral	True
490.186	0.24	Control	0.6731	n/a	Yes	2.728	n/a	n/a	GoodResponse	0	n/a	n/a	8	51	Blank	Neutral	True
490.42	1.45	Control	0.6731	n/a	Yes	2.728	n/a	5.0	GoodResponse	0	0.039	489.459	8	51	Feedback	Neutral	True
491.875	2.728	Control	0.6731	n/a	Yes	2.728	n/a	n/a	GoodResponse	0	0.0	n/a	8	51	ISIslide	Neutral	True
494.616	0.25	Control	0.6792	0.0	Yes	2.634	0.016	n/a	GoodResponse	0	n/a	n/a	8	52	Cue	Neutral	True
494.867	4.05	Control	0.6792	0.0	Yes	2.634	0.001	n/a	GoodResponse	0	n/a	n/a	8	52	Fixation	Neutral	True
498.912	0.45	Control	0.6792	0.004	Yes	2.634	-0.004	2.0	GoodResponse	0	0.319	498.231	8	52	Target	Neutral	True
499.231	0.3	Control	0.6792	0.004	Yes	2.634	-0.004	2.0	GoodResponse	0	0.319	n/a	8	52	ButtonPress	Neutral	True
499.364	0.25	Control	0.6792	n/a	Yes	2.634	n/a	n/a	GoodResponse	0	n/a	n/a	8	52	Blank	Neutral	True
499.614	1.45	Control	0.6792	n/a	Yes	2.634	n/a	5.0	GoodResponse	0	0.016	498.63	8	52	Feedback	Neutral	True
501.069	2.634	Control	0.6792	n/a	Yes	2.634	n/a	n/a	GoodResponse	0	0.0	n/a	8	52	ISIslide	Neutral	True
503.727	0.25	Win2	0.6851999999999999	0.0	Yes	2.923	0.027	n/a	GoodResponse	1	n/a	n/a	9	53	Cue	Win	False
503.977	4.05	Win2	0.6851999999999999	0.001	Yes	2.923	0.0	2.0	GoodResponse	1	2.82	505.797	9	53	Fixation	Win	False
506.797	0.3	Win2	0.6851999999999999	0.001	Yes	2.923	0.0	2.0	GoodResponse	1	2.82	n/a	9	53	ButtonPress	Win	False
508.023	0.44	Win2	0.6851999999999999	0.004	Yes	2.923	-0.004	2.0	GoodResponse	1	0.299	507.322	9	53	Target	Win	False
508.322	0.3	Win2	0.6851999999999999	0.004	Yes	2.923	-0.004	2.0	GoodResponse	1	0.299	n/a	9	53	ButtonPress	Win	False
508.474	0.26	Win2	0.6851999999999999	n/a	Yes	2.923	n/a	n/a	GoodResponse	1	n/a	n/a	9	53	Blank	Win	False
508.725	1.45	Win2	0.6851999999999999	n/a	Yes	2.923	n/a	5.0	GoodResponse	1	0.027	507.752	9	53	Feedback	Win	False
510.179	2.923	Win2	0.6851999999999999	n/a	Yes	2.923	n/a	n/a	GoodResponse	1	0.0	n/a	9	53	ISIslide	Win	False
513.121	0.25	Win2	0.6727	0.001	No	2.729	0.021	n/a	NoResponse	0	n/a	n/a	9	54	Cue	MissedWin	True
513.372	3.95	Win2	0.6727	0.0	No	2.729	0.001	n/a	NoResponse	0	n/a	n/a	9	54	Fixation	MissedWin	True
517.317	0.43	Win2	0.6727	0.004	No	2.729	-0.004	2.0	NoResponse	0	0.448	516.765	9	54	Target	MissedWin	True
517.752	0.27	Win2	0.6727	n/a	No	2.729	n/a	n/a	NoResponse	0	n/a	n/a	9	54	Blank	MissedWin	True
517.765	0.3	Win2	0.6727	0.004	No	2.729	-0.004	2.0	NoResponse	0	0.448	n/a	9	54	ButtonPress	MissedWin	True
518.019	1.45	Win2	0.6727	n/a	No	2.729	n/a	5.0	NoResponse	0	0.049	517.068	9	54	Feedback	MissedWin	True
519.474	2.729	Win2	0.6727	n/a	No	2.729	n/a	n/a	NoResponse	0	0.0	n/a	9	54	ISIslide	MissedWin	True
522.215	0.25	Control	0.6786	0.0	Yes	3.035	0.015	n/a	GoodResponse	0	n/a	n/a	9	55	Cue	Neutral	True
522.466	3.95	Control	0.6786	0.0	Yes	3.035	0.001	n/a	GoodResponse	0	n/a	n/a	9	55	Fixation	Neutral	True
526.411	0.42	Control	0.6786	0.004	Yes	3.035	-0.004	2.0	GoodResponse	0	0.221	525.632	9	55	Target	Neutral	True
526.632	0.3	Control	0.6786	0.004	Yes	3.035	-0.004	2.0	GoodResponse	0	0.221	n/a	9	55	ButtonPress	Neutral	True
526.846	0.28	Control	0.6786	n/a	Yes	3.035	n/a	n/a	GoodResponse	0	n/a	n/a	9	55	Blank	Neutral	True
527.113	1.45	Control	0.6786	n/a	Yes	3.035	n/a	5.0	GoodResponse	0	0.028	526.141	9	55	Feedback	Neutral	True
528.568	3.035	Control	0.6786	n/a	Yes	3.035	n/a	n/a	GoodResponse	0	0.0	n/a	9	55	ISIslide	Neutral	True
531.627	0.25	Control	0.6842	0.0	Yes	2.823	0.027	n/a	GoodResponse	0	n/a	n/a	9	56	Cue	Neutral	True
531.878	3.95	Control	0.6842	0.0	Yes	2.823	0.001	n/a	GoodResponse	0	n/a	n/a	9	56	Fixation	Neutral	True
535.823	0.41	Control	0.6842	0.004	Yes	2.823	-0.004	2.0	GoodResponse	0	0.249	535.072	9	56	Target	Neutral	True
536.072	0.3	Control	0.6842	0.004	Yes	2.823	-0.004	2.0	GoodResponse	0	0.249	n/a	9	56	ButtonPress	Neutral	True
536.241	0.29	Control	0.6842	n/a	Yes	2.823	n/a	n/a	GoodResponse	0	n/a	n/a	9	56	Blank	Neutral	True
536.525	1.45	Control	0.6842	n/a	Yes	2.823	n/a	5.0	GoodResponse	0	0.031	535.556	9	56	Feedback	Neutral	True
537.979	2.823	Control	0.6842	n/a	Yes	2.823	n/a	n/a	GoodResponse	0	0.0	n/a	9	56	ISIslide	Neutral	True
540.821	0.25	Control	0.6897	0.0	Yes	3.479	0.021	n/a	GoodResponse	0	n/a	n/a	9	57	Cue	Neutral	True
541.072	4.0	Control	0.6897	0.0	Yes	3.479	0.001	n/a	GoodResponse	0	n/a	n/a	9	57	Fixation	Neutral	True
545.067	0.4	Control	0.6897	0.004	Yes	3.479	-0.004	2.0	GoodResponse	0	0.36	544.427	9	57	Target	Neutral	True
545.427	0.3	Control	0.6897	0.004	Yes	3.479	-0.004	2.0	GoodResponse	0	0.36	n/a	9	57	ButtonPress	Neutral	True
545.468	0.3	Control	0.6897	n/a	Yes	3.479	n/a	n/a	GoodResponse	0	n/a	n/a	9	57	Blank	Neutral	True
545.769	1.45	Control	0.6897	n/a	Yes	3.479	n/a	5.0	GoodResponse	0	0.007	544.776	9	57	Feedback	Neutral	True
547.224	3.479	Control	0.6897	n/a	Yes	3.479	n/a	n/a	GoodResponse	0	0.0	n/a	9	57	ISIslide	Neutral	True
550.717	0.25	Win2	0.6949	0.0	Yes	2.733	0.017	n/a	GoodResponse	1	n/a	n/a	10	58	Cue	Win	True
550.968	4.05	Win2	0.6949	0.0	Yes	2.733	0.001	n/a	GoodResponse	1	n/a	n/a	10	58	Fixation	Win	True
555.014	0.39	Win2	0.6949	0.003	Yes	2.733	-0.003	2.0	GoodResponse	1	0.27	554.284	10	58	Target	Win	True
555.284	0.3	Win2	0.6949	0.003	Yes	2.733	-0.003	2.0	GoodResponse	1	0.27	n/a	10	58	ButtonPress	Win	True
555.415	0.31	Win2	0.6949	n/a	Yes	2.733	n/a	n/a	GoodResponse	1	n/a	n/a	10	58	Blank	Win	True
555.716	1.45	Win2	0.6949	n/a	Yes	2.733	n/a	5.0	GoodResponse	1	0.011	554.727	10	58	Feedback	Win	True
557.17	2.733	Win2	0.6949	n/a	Yes	2.733	n/a	n/a	GoodResponse	1	0.0	n/a	10	58	ISIslide	Win	True
559.928	0.25	Lose2	0.7	0.0	Yes	2.672	0.028	n/a	GoodResponse	0	n/a	n/a	10	59	Cue	AvoidedLoss	True
560.179	4.0	Lose2	0.7	0.0	Yes	2.672	0.001	n/a	GoodResponse	0	n/a	n/a	10	59	Fixation	AvoidedLoss	True
564.174	0.38	Lose2	0.7	0.004	Yes	2.672	-0.004	2.0	GoodResponse	0	0.323	563.497	10	59	Target	AvoidedLoss	True
564.497	0.3	Lose2	0.7	0.004	Yes	2.672	-0.004	2.0	GoodResponse	0	0.323	n/a	10	59	ButtonPress	AvoidedLoss	True
564.559	0.32	Lose2	0.7	n/a	Yes	2.672	n/a	n/a	GoodResponse	0	n/a	n/a	10	59	Blank	AvoidedLoss	True
564.876	1.45	Lose2	0.7	n/a	Yes	2.672	n/a	5.0	GoodResponse	0	0.021	563.897	10	59	Feedback	AvoidedLoss	True
566.331	2.672	Lose2	0.7	n/a	Yes	2.672	n/a	n/a	GoodResponse	0	0.0	n/a	10	59	ISIslide	AvoidedLoss	True
569.022	0.25	Control	0.7049	0.0	Yes	2.678	0.022	n/a	GoodResponse	0	n/a	n/a	10	60	Cue	Neutral	True
569.273	4.0	Control	0.7049	0.0	Yes	2.678	0.001	n/a	GoodResponse	0	n/a	n/a	10	60	Fixation	Neutral	True
573.268	0.37	Control	0.7049	0.004	Yes	2.678	-0.004	2.0	GoodResponse	0	0.296	572.564	10	60	Target	Neutral	True
573.564	0.3	Control	0.7049	0.004	Yes	2.678	-0.004	2.0	GoodResponse	0	0.296	n/a	10	60	ButtonPress	Neutral	True
573.653	0.33	Control	0.7049	n/a	Yes	2.678	n/a	n/a	GoodResponse	0	n/a	n/a	10	60	Blank	Neutral	True
573.97	1.45	Control	0.7049	n/a	Yes	2.678	n/a	5.0	GoodResponse	0	0.049	573.019	10	60	Feedback	Neutral	True
575.425	2.678	Control	0.7049	n/a	Yes	2.678	n/a	n/a	GoodResponse	0	0.0	n/a	10	60	ISIslide	Neutral	True
578.116	0.25	Lose2	0.7097	0.0	Yes	2.984	0.016	n/a	GoodResponse	0	n/a	n/a	10	61	Cue	AvoidedLoss	True
578.367	4.0	Lose2	0.7097	0.0	Yes	2.984	0.001	n/a	GoodResponse	0	n/a	n/a	10	61	Fixation	AvoidedLoss	True
582.362	0.36	Lose2	0.7097	0.004	Yes	2.984	-0.004	2.0	GoodResponse	0	0.293	581.655	10	61	Target	AvoidedLoss	True
582.655	0.3	Lose2	0.7097	0.004	Yes	2.984	-0.004	2.0	GoodResponse	0	0.293	n/a	10	61	ButtonPress	AvoidedLoss	True
582.73	0.34	Lose2	0.7097	n/a	Yes	2.984	n/a	n/a	GoodResponse	0	n/a	n/a	10	61	Blank	AvoidedLoss	True
583.064	1.45	Lose2	0.7097	n/a	Yes	2.984	n/a	5.0	GoodResponse	0	0.028	582.092	10	61	Feedback	AvoidedLoss	True
584.519	2.984	Lose2	0.7097	n/a	Yes	2.984	n/a	n/a	GoodResponse	0	0.0	n/a	10	61	ISIslide	AvoidedLoss	True
587.528	0.25	Lose2	0.7143	0.0	Yes	2.872	0.028	n/a	GoodResponse	0	n/a	n/a	10	62	Cue	AvoidedLoss	True
587.778	3.9	Lose2	0.7143	0.0	Yes	2.872	0.0	n/a	GoodResponse	0	n/a	n/a	10	62	Fixation	AvoidedLoss	True
591.69	0.35	Lose2	0.7143	0.0	Yes	2.872	0.012	2.0	GoodResponse	0	0.326	591.016	10	62	Target	AvoidedLoss	True
592.016	0.3	Lose2	0.7143	0.0	Yes	2.872	0.012	2.0	GoodResponse	0	0.326	n/a	10	62	ButtonPress	AvoidedLoss	True
592.024	0.35	Lose2	0.7143	n/a	Yes	2.872	n/a	n/a	GoodResponse	0	n/a	n/a	10	62	Blank	AvoidedLoss	True
592.375	1.45	Lose2	0.7143	n/a	Yes	2.872	n/a	5.0	GoodResponse	0	0.034	591.409	10	62	Feedback	AvoidedLoss	True
593.83	2.872	Lose2	0.7143	n/a	Yes	2.872	n/a	n/a	GoodResponse	0	0.0	n/a	10	62	ISIslide	AvoidedLoss	True
596.722	0.25	Lose2	0.7188	0.0	Yes	2.628	0.022	n/a	GoodResponse	0	n/a	n/a	10	63	Cue	AvoidedLoss	True
596.972	4.05	Lose2	0.7188	0.001	Yes	2.628	0.0	n/a	GoodResponse	0	n/a	n/a	10	63	Fixation	AvoidedLoss	True
601.018	0.34	Lose2	0.7188	0.004	Yes	2.628	-0.004	2.0	GoodResponse	0	0.314	600.332	10	63	Target	AvoidedLoss	True
601.332	0.3	Lose2	0.7188	0.004	Yes	2.628	-0.004	2.0	GoodResponse	0	0.314	n/a	10	63	ButtonPress	AvoidedLoss	True
601.369	0.36	Lose2	0.7188	n/a	Yes	2.628	n/a	n/a	GoodResponse	0	n/a	n/a	10	63	Blank	AvoidedLoss	True
601.72	1.45	Lose2	0.7188	n/a	Yes	2.628	n/a	5.0	GoodResponse	0	0.007	600.727	10	63	Feedback	AvoidedLoss	True
603.174	2.628	Lose2	0.7188	n/a	Yes	2.628	n/a	n/a	GoodResponse	0	0.0	n/a	10	63	ISIslide	AvoidedLoss	True
605.816	0.25	Win2	0.7231000000000001	0.0	Yes	3.134	0.016	n/a	GoodResponse	1	n/a	n/a	11	64	Cue	Win	True
606.066	4.15	Win2	0.7231000000000001	0.0	Yes	3.134	0.0	n/a	GoodResponse	1	n/a	n/a	11	64	Fixation	Win	True
610.212	0.33	Win2	0.7231000000000001	0.004	Yes	3.134	-0.004	2.0	GoodResponse	1	0.289	609.501	11	64	Target	Win	True
610.501	0.3	Win2	0.7231000000000001	0.004	Yes	3.134	-0.004	2.0	GoodResponse	1	0.289	n/a	11	64	ButtonPress	Win	True
610.546	0.37	Win2	0.7231000000000001	n/a	Yes	3.134	n/a	n/a	GoodResponse	1	n/a	n/a	11	64	Blank	Win	True
610.914	1.45	Win2	0.7231000000000001	n/a	Yes	3.134	n/a	5.0	GoodResponse	1	0.032	609.946	11	64	Feedback	Win	True
612.369	3.134	Win2	0.7231000000000001	n/a	Yes	3.134	n/a	n/a	GoodResponse	1	0.0	n/a	11	64	ISIslide	Win	True
615.528	0.25	Control	0.7273000000000001	0.0	Yes	2.772	0.028	n/a	GoodResponse	0	n/a	n/a	11	65	Cue	Neutral	True
615.779	4.0	Control	0.7273000000000001	0.0	Yes	2.772	0.001	n/a	GoodResponse	0	n/a	n/a	11	65	Fixation	Neutral	True
619.774	0.32	Control	0.7273000000000001	0.004	Yes	2.772	-0.004	2.0	GoodResponse	0	0.312	619.086	11	65	Target	Neutral	True
620.086	0.3	Control	0.7273000000000001	0.004	Yes	2.772	-0.004	2.0	GoodResponse	0	0.312	n/a	11	65	ButtonPress	Neutral	True
620.108	0.38	Control	0.7273000000000001	n/a	Yes	2.772	n/a	n/a	GoodResponse	0	n/a	n/a	11	65	Blank	Neutral	True
620.476	1.45	Control	0.7273000000000001	n/a	Yes	2.772	n/a	5.0	GoodResponse	0	0.03	619.506	11	65	Feedback	Neutral	True
621.931	2.772	Control	0.7273000000000001	n/a	Yes	2.772	n/a	n/a	GoodResponse	0	0.0	n/a	11	65	ISIslide	Neutral	True
624.722	0.25	Win2	0.7313	0.0	Yes	2.778	0.022	n/a	GoodResponse	1	n/a	n/a	12	66	Cue	Win	True
624.973	3.9	Win2	0.7313	0.0	Yes	2.778	0.001	n/a	GoodResponse	1	n/a	n/a	12	66	Fixation	Win	True
628.868	0.31	Win2	0.7313	0.004	Yes	2.778	-0.004	2.0	GoodResponse	1	0.256	628.124	12	66	Target	Win	True
629.124	0.3	Win2	0.7313	0.004	Yes	2.778	-0.004	2.0	GoodResponse	1	0.256	n/a	12	66	ButtonPress	Win	True
629.186	0.39	Win2	0.7313	n/a	Yes	2.778	n/a	n/a	GoodResponse	1	n/a	n/a	12	66	Blank	Win	True
629.57	1.45	Win2	0.7313	n/a	Yes	2.778	n/a	5.0	GoodResponse	1	0.01	628.58	12	66	Feedback	Win	True
631.024	2.778	Win2	0.7313	n/a	Yes	2.778	n/a	n/a	GoodResponse	1	0.0	n/a	12	66	ISIslide	Win	True
633.816	0.25	Control	0.7353000000000001	0.0	Yes	2.734	0.016	n/a	GoodResponse	0	n/a	n/a	12	67	Cue	Neutral	True
634.067	3.95	Control	0.7353000000000001	0.0	Yes	2.734	0.001	n/a	GoodResponse	0	n/a	n/a	12	67	Fixation	Neutral	True
638.012	0.3	Control	0.7353000000000001	0.004	Yes	2.734	-0.004	2.0	GoodResponse	0	0.29	637.302	12	67	Target	Neutral	True
638.302	0.3	Control	0.7353000000000001	0.004	Yes	2.734	-0.004	2.0	GoodResponse	0	0.29	n/a	12	67	ButtonPress	Neutral	True
638.313	0.4	Control	0.7353000000000001	n/a	Yes	2.734	n/a	n/a	GoodResponse	0	n/a	n/a	12	67	Blank	Neutral	True
638.714	1.45	Control	0.7353000000000001	n/a	Yes	2.734	n/a	5.0	GoodResponse	0	0.036	637.75	12	67	Feedback	Neutral	True
640.168	2.734	Control	0.7353000000000001	n/a	Yes	2.734	n/a	n/a	GoodResponse	0	0.0	n/a	12	67	ISIslide	Neutral	True
642.927	0.25	Win2	0.7391	0.0	Yes	3.073	0.027	n/a	GoodResponse	1	n/a	n/a	13	68	Cue	Win	True
643.177	4.0	Win2	0.7391	0.001	Yes	3.073	0.0	n/a	GoodResponse	1	n/a	n/a	13	68	Fixation	Win	True
647.173	0.29	Win2	0.7391	0.004	Yes	3.073	-0.004	2.0	GoodResponse	1	0.221	646.394	13	68	Target	Win	True
647.394	0.3	Win2	0.7391	0.004	Yes	3.073	-0.004	2.0	GoodResponse	1	0.221	n/a	13	68	ButtonPress	Win	True
647.474	0.41	Win2	0.7391	n/a	Yes	3.073	n/a	n/a	GoodResponse	1	n/a	n/a	13	68	Blank	Win	True
647.875	1.45	Win2	0.7391	n/a	Yes	3.073	n/a	5.0	GoodResponse	1	0.046	646.921	13	68	Feedback	Win	True
649.329	3.073	Win2	0.7391	n/a	Yes	3.073	n/a	n/a	GoodResponse	1	0.0	n/a	13	68	ISIslide	Win	True
652.422	0.25	Win2	0.7286	0.0	No	3.228	0.022	n/a	NoResponse	0	n/a	n/a	13	69	Cue	MissedWin	True
652.673	3.95	Win2	0.7286	0.0	No	3.228	0.001	n/a	NoResponse	0	n/a	n/a	13	69	Fixation	MissedWin	True
656.618	0.28	Win2	0.7286	0.004	No	3.228	-0.004	2.0	NoResponse	0	0.359	655.977	13	69	Target	MissedWin	True
656.902	0.42	Win2	0.7286	n/a	No	3.228	n/a	n/a	NoResponse	0	n/a	n/a	13	69	Blank	MissedWin	True
656.977	0.3	Win2	0.7286	0.004	No	3.228	-0.004	2.0	NoResponse	0	0.359	n/a	13	69	ButtonPress	MissedWin	True
657.32	1.45	Win2	0.7286	n/a	No	3.228	n/a	5.0	NoResponse	0	0.016	656.336	13	69	Feedback	MissedWin	True
658.774	3.228	Win2	0.7286	n/a	No	3.228	n/a	n/a	NoResponse	0	0.0	n/a	13	69	ISIslide	MissedWin	True
662.017	0.25	Lose2	0.7182999999999999	0.0	No	3.033	0.017	n/a	NoResponse	-1	n/a	n/a	12	70	Cue	Loss	True
662.268	4.05	Lose2	0.7182999999999999	0.0	No	3.033	0.001	n/a	NoResponse	-1	n/a	n/a	12	70	Fixation	Loss	True
666.313	0.27	Lose2	0.7182999999999999	0.004	No	3.033	-0.004	2.0	NoResponse	-1	0.29	665.603	12	70	Target	Loss	True
666.598	0.43	Lose2	0.7182999999999999	n/a	No	3.033	n/a	n/a	NoResponse	-1	n/a	n/a	12	70	Blank	Loss	True
666.603	0.3	Lose2	0.7182999999999999	0.004	No	3.033	-0.004	2.0	NoResponse	-1	0.29	n/a	12	70	ButtonPress	Loss	True
667.015	1.45	Lose2	0.7182999999999999	n/a	No	3.033	n/a	5.0	NoResponse	-1	0.027	666.042	12	70	Feedback	Loss	True
668.47	3.033	Lose2	0.7182999999999999	n/a	No	3.033	n/a	n/a	NoResponse	-1	0.0	n/a	12	70	ISIslide	Loss	True
671.529	0.25	Win2	0.7222	0.0	Yes	2.721	0.029	n/a	GoodResponse	1	n/a	n/a	13	71	Cue	Win	True
671.78	4.05	Win2	0.7222	0.0	Yes	2.721	0.001	n/a	GoodResponse	1	n/a	n/a	13	71	Fixation	Win	True
675.825	0.26	Win2	0.7222	0.004	Yes	2.721	-0.004	2.0	GoodResponse	1	0.232	675.057	13	71	Target	Win	True
676.057	0.3	Win2	0.7222	0.004	Yes	2.721	-0.004	2.0	GoodResponse	1	0.232	n/a	13	71	ButtonPress	Win	True
676.093	0.44	Win2	0.7222	n/a	Yes	2.721	n/a	n/a	GoodResponse	1	n/a	n/a	13	71	Blank	Win	True
676.527	1.45	Win2	0.7222	n/a	Yes	2.721	n/a	5.0	GoodResponse	1	0.028	675.555	13	71	Feedback	Win	True
677.982	2.721	Win2	0.7222	n/a	Yes	2.721	n/a	n/a	GoodResponse	1	0.0	n/a	13	71	ISIslide	Win	True
680.723	0.25	Win2	0.7123	0.0	No	2.777	0.023	n/a	NoResponse	0	n/a	n/a	13	72	Cue	MissedWin	True
680.974	4.1	Win2	0.7123	0.0	No	2.777	0.001	n/a	NoResponse	0	n/a	n/a	13	72	Fixation	MissedWin	True
685.07	0.25	Win2	0.7123	0.003	No	2.777	-0.003	2.0	NoResponse	0	0.253	684.323	13	72	Target	MissedWin	True
685.32	0.45	Win2	0.7123	n/a	No	2.777	n/a	n/a	NoResponse	0	n/a	n/a	13	72	Blank	MissedWin	True
685.323	0.3	Win2	0.7123	0.003	No	2.777	-0.003	2.0	NoResponse	0	0.253	n/a	13	72	ButtonPress	MissedWin	True
685.772	1.45	Win2	0.7123	n/a	No	2.777	n/a	5.0	NoResponse	0	0.004	684.776	13	72	Feedback	MissedWin	True
687.226	2.777	Win2	0.7123	n/a	No	2.777	n/a	n/a	NoResponse	0	0.0	n/a	13	72	ISIslide	MissedWin	True
690.018	0.25	Win2	0.7027	0.0	No	2.682	0.018	n/a	NoResponse	0	n/a	n/a	13	73	Cue	MissedWin	True
690.268	4.0	Win2	0.7027	0.001	No	2.682	0.0	2.0	NoResponse	0	3.599	692.867	13	73	Fixation	MissedWin	True
693.867	0.3	Win2	0.7027	0.001	No	2.682	0.0	2.0	NoResponse	0	3.599	n/a	13	73	ButtonPress	MissedWin	True
694.264	0.24	Win2	0.7027	0.004	No	2.682	-0.004	n/a	NoResponse	0	n/a	n/a	13	73	Target	MissedWin	True
694.514	0.46	Win2	0.7027	n/a	No	2.682	n/a	n/a	NoResponse	0	n/a	n/a	13	73	Blank	MissedWin	True
694.966	1.45	Win2	0.7027	n/a	No	2.682	n/a	5.0	NoResponse	0	0.028	693.994	13	73	Feedback	MissedWin	True
696.42	2.682	Win2	0.7027	n/a	No	2.682	n/a	n/a	NoResponse	0	0.0	n/a	13	73	ISIslide	MissedWin	True
699.128	0.25	Lose2	0.6933	0.0	No	2.622	0.028	n/a	NoResponse	-1	n/a	n/a	12	74	Cue	Loss	True
699.379	4.05	Lose2	0.6933	0.0	No	2.622	0.001	n/a	NoResponse	-1	n/a	n/a	12	74	Fixation	Loss	True
703.424	0.23	Lose2	0.6933	0.004	No	2.622	-0.004	2.0	NoResponse	-1	0.444	702.868	12	74	Target	Loss	True
703.658	0.47	Lose2	0.6933	n/a	No	2.622	n/a	n/a	NoResponse	-1	n/a	n/a	12	74	Blank	Loss	True
703.868	0.3	Lose2	0.6933	0.004	No	2.622	-0.004	2.0	NoResponse	-1	0.444	n/a	12	74	ButtonPress	Loss	True
704.127	1.45	Lose2	0.6933	n/a	No	2.622	n/a	5.0	NoResponse	-1	0.038	703.165	12	74	Feedback	Loss	True
705.581	2.622	Lose2	0.6933	n/a	No	2.622	n/a	n/a	NoResponse	-1	0.0	n/a	12	74	ISIslide	Loss	True
708.222	0.25	Lose2	0.6842	0.0	No	2.928	0.022	n/a	NoResponse	-1	n/a	n/a	11	75	Cue	Loss	True
708.473	3.95	Lose2	0.6842	0.0	No	2.928	0.001	n/a	NoResponse	-1	n/a	n/a	11	75	Fixation	Loss	True
712.418	0.22	Lose2	0.6842	0.004	No	2.928	-0.004	2.0	NoResponse	-1	0.244	711.662	11	75	Target	Loss	True
712.652	0.48	Lose2	0.6842	n/a	No	2.928	n/a	n/a	NoResponse	-1	n/a	n/a	11	75	Blank	Loss	True
712.662	0.3	Lose2	0.6842	0.004	No	2.928	-0.004	2.0	NoResponse	-1	0.244	n/a	11	75	ButtonPress	Loss	True
713.12	1.45	Lose2	0.6842	n/a	No	2.928	n/a	5.0	NoResponse	-1	0.021	712.141	11	75	Feedback	Loss	True
714.575	2.928	Lose2	0.6842	n/a	No	2.928	n/a	n/a	NoResponse	-1	0.0	n/a	11	75	ISIslide	Loss	True
717.517	0.25	Control	0.6883	0.0	Yes	3.233	0.017	n/a	GoodResponse	0	n/a	n/a	11	76	Cue	Neutral	True
717.767	4.05	Control	0.6883	0.001	Yes	3.233	0.0	n/a	GoodResponse	0	n/a	n/a	11	76	Fixation	Neutral	True
721.813	0.21	Control	0.6883	0.004	Yes	3.233	-0.004	2.0	GoodResponse	0	0.19	721.003	11	76	Target	Neutral	True
722.003	0.3	Control	0.6883	0.004	Yes	3.233	-0.004	2.0	GoodResponse	0	0.19	n/a	11	76	ButtonPress	Neutral	True
722.03	0.49	Control	0.6883	n/a	Yes	3.233	n/a	n/a	GoodResponse	0	n/a	n/a	11	76	Blank	Neutral	True
722.515	1.45	Control	0.6883	n/a	Yes	3.233	n/a	5.0	GoodResponse	0	0.039	721.554	11	76	Feedback	Neutral	True
723.969	3.233	Control	0.6883	n/a	Yes	3.233	n/a	n/a	GoodResponse	0	0.0	n/a	11	76	ISIslide	Neutral	True
727.229	0.25	Lose2	0.6795	0.0	No	2.571	0.029	n/a	NoResponse	-1	n/a	n/a	10	77	Cue	Loss	True
727.48	3.95	Lose2	0.6795	0.0	No	2.571	0.001	2.0	NoResponse	-1	3.352	729.832	10	77	Fixation	Loss	True
730.832	0.3	Lose2	0.6795	0.0	No	2.571	0.001	2.0	NoResponse	-1	3.352	n/a	10	77	ButtonPress	Loss	True
731.425	0.2	Lose2	0.6795	0.004	No	2.571	-0.004	n/a	NoResponse	-1	n/a	n/a	10	77	Target	Loss	True
731.626	0.5	Lose2	0.6795	n/a	No	2.571	n/a	n/a	NoResponse	-1	n/a	n/a	10	77	Blank	Loss	True
732.127	1.45	Lose2	0.6795	n/a	No	2.571	n/a	5.0	NoResponse	-1	0.037	731.164	10	77	Feedback	Loss	True
733.581	2.571	Lose2	0.6795	n/a	No	2.571	n/a	n/a	NoResponse	-1	0.0	n/a	10	77	ISIslide	Loss	True
