onset	duration	cue_type	current_mean_accuracy	duration_error	is_hit	isi_adjusted	onset_delay	response	response_type	reward	rt	rt_time	total_reward	trial_number	trial_phase	trial_type	one_press
11.102	0.25	Control	1.0	0.0	Yes	2.948	0.002	n/a	GoodResponse	0	n/a	n/a	0	0	Cue	Neutral	True
11.352	3.85	Control	1.0	0.001	Yes	2.948	0.0	n/a	GoodResponse	0	n/a	n/a	0	0	Fixation	Neutral	True
15.214	0.4	Control	1.0	0.0	Yes	2.948	0.012	2.0	GoodResponse	0	0.23	14.444	0	0	Target	Neutral	True
15.444	0.3	Control	1.0	0.0	Yes	2.948	0.012	2.0	GoodResponse	0	0.23	n/a	0	0	ButtonPress	Neutral	True
15.599	0.3	Control	1.0	n/a	Yes	2.948	n/a	n/a	GoodResponse	0	n/a	n/a	0	0	Blank	Neutral	True
15.899	1.45	Control	1.0	n/a	Yes	2.948	n/a	5.0	GoodResponse	0	0.028	14.927	0	0	Feedback	Neutral	True
17.354	2.948	Control	1.0	n/a	Yes	2.948	n/a	n/a	GoodResponse	0	0.0	n/a	0	0	ISIslide	Neutral	True
20.329	0.25	Lose2	1.0	0.0	Yes	2.771	0.029	n/a	GoodResponse	0	n/a	n/a	0	1	Cue	AvoidedLoss	True
20.58	4.0	Lose2	1.0	0.0	Yes	2.771	0.001	n/a	GoodResponse	0	n/a	n/a	0	1	Fixation	AvoidedLoss	True
24.575	0.39	Lose2	1.0	0.004	Yes	2.771	-0.004	2.0	GoodResponse	0	0.257	23.832	0	1	Target	AvoidedLoss	True
24.832	0.3	Lose2	1.0	0.004	Yes	2.771	-0.004	2.0	GoodResponse	0	0.257	n/a	0	1	ButtonPress	AvoidedLoss	True
24.977	0.31	Lose2	1.0	n/a	Yes	2.771	n/a	n/a	GoodResponse	0	n/a	n/a	0	1	Blank	AvoidedLoss	True
25.278	1.45	Lose2	1.0	n/a	Yes	2.771	n/a	5.0	GoodResponse	0	0.015	24.293	0	1	Feedback	AvoidedLoss	True
26.732	2.771	Lose2	1.0	n/a	Yes	2.771	n/a	n/a	GoodResponse	0	0.0	n/a	0	1	ISIslide	AvoidedLoss	True
29.524	0.25	Control	1.0	0.0	Yes	2.576	0.024	n/a	GoodResponse	0	n/a	n/a	0	2	Cue	Neutral	True
29.774	4.1	Control	1.0	0.0	Yes	2.576	0.0	n/a	GoodResponse	0	n/a	n/a	0	2	Fixation	Neutral	True
33.87	0.38	Control	1.0	0.004	Yes	2.576	-0.004	2.0	GoodResponse	0	0.227	33.097	0	2	Target	Neutral	True
34.097	0.3	Control	1.0	0.004	Yes	2.576	-0.004	2.0	GoodResponse	0	0.227	n/a	0	2	ButtonPress	Neutral	True
34.255	0.32	Control	1.0	n/a	Yes	2.576	n/a	n/a	GoodResponse	0	n/a	n/a	0	2	Blank	Neutral	True
34.572	1.45	Control	1.0	n/a	Yes	2.576	n/a	5.0	GoodResponse	0	0.037	33.609	0	2	Feedback	Neutral	True
36.026	2.576	Control	1.0	n/a	Yes	2.576	n/a	n/a	GoodResponse	0	0.0	n/a	0	2	ISIslide	Neutral	True
38.618	0.25	Win2	1.0	0.0	Yes	2.832	0.018	n/a	GoodResponse	1	n/a	n/a	1	3	Cue	Win	True
38.868	3.95	Win2	1.0	0.0	Yes	2.832	0.0	n/a	GoodResponse	1	n/a	n/a	1	3	Fixation	Win	True
42.814	0.37	Win2	1.0	0.004	Yes	2.832	-0.004	2.0	GoodResponse	1	0.183	41.997	1	3	Target	Win	True
42.997	0.3	Win2	1.0	0.004	Yes	2.832	-0.004	2.0	GoodResponse	1	0.183	n/a	1	3	ButtonPress	Win	True
43.198	0.33	Win2	1.0	n/a	Yes	2.832	n/a	n/a	GoodResponse	1	n/a	n/a	1	3	Blank	Win	True
43.516	1.45	Win2	1.0	n/a	Yes	2.832	n/a	5.0	GoodResponse	1	0.02	42.536	1	3	Feedback	Win	True
44.97	2.832	Win2	1.0	n/a	Yes	2.832	n/a	n/a	GoodResponse	1	0.0	n/a	1	3	ISIslide	Win	True
47.829	0.25	Win2	1.0	0.0	Yes	3.271	0.029	n/a	GoodResponse	1	n/a	n/a	2	4	Cue	Win	True
48.079	4.0	Win2	1.0	0.0	Yes	3.271	0.0	n/a	GoodResponse	1	n/a	n/a	2	4	Fixation	Win	True
52.075	0.36	Win2	1.0	0.004	Yes	3.271	-0.004	2.0	GoodResponse	1	0.273	51.348	2	4	Target	Win	True
52.348	0.3	Win2	1.0	0.004	Yes	3.271	-0.004	2.0	GoodResponse	1	0.273	n/a	2	4	ButtonPress	Win	True
52.442	0.34	Win2	1.0	n/a	Yes	3.271	n/a	n/a	GoodResponse	1	n/a	n/a	2	4	Blank	Win	True
52.777	1.45	Win2	1.0	n/a	Yes	3.271	n/a	5.0	GoodResponse	1	0.027	51.804	2	4	Feedback	Win	True
54.231	3.271	Win2	1.0	n/a	Yes	3.271	n/a	n/a	GoodResponse	1	0.0	n/a	2	4	ISIslide	Win	True
57.524	0.25	Win2	1.0	0.0	Yes	2.776	0.024	n/a	GoodResponse	1	n/a	n/a	3	5	Cue	Win	True
57.775	4.0	Win2	1.0	0.0	Yes	2.776	0.001	n/a	GoodResponse	1	n/a	n/a	3	5	Fixation	Win	True
61.77	0.35	Win2	1.0	0.004	Yes	2.776	-0.004	2.0	GoodResponse	1	0.255	61.025	3	5	Target	Win	True
62.025	0.3	Win2	1.0	0.004	Yes	2.776	-0.004	2.0	GoodResponse	1	0.255	n/a	3	5	ButtonPress	Win	True
62.121	0.35	Win2	1.0	n/a	Yes	2.776	n/a	n/a	GoodResponse	1	n/a	n/a	3	5	Blank	Win	True
62.473	1.45	Win2	1.0	n/a	Yes	2.776	n/a	5.0	GoodResponse	1	0.039	61.512	3	5	Feedback	Win	True
63.927	2.776	Win2	1.0	n/a	Yes	2.776	n/a	n/a	GoodResponse	1	0.0	n/a	3	5	ISIslide	Win	True
66.719	0.25	Lose2	1.0	0.0	Yes	2.731	0.019	n/a	GoodResponse	0	n/a	n/a	3	6	Cue	AvoidedLoss	True
66.969	3.95	Lose2	1.0	0.0	Yes	2.731	0.0	n/a	GoodResponse	0	n/a	n/a	3	6	Fixation	AvoidedLoss	True
70.931	0.34	Lose2	1.0	0.0	Yes	2.731	0.012	2.0	GoodResponse	0	0.191	70.122	3	6	Target	AvoidedLoss	True
71.122	0.3	Lose2	1.0	0.0	Yes	2.731	0.012	2.0	GoodResponse	0	0.191	n/a	3	6	ButtonPress	AvoidedLoss	True
71.266	0.36	Lose2	1.0	n/a	Yes	2.731	n/a	n/a	GoodResponse	0	n/a	n/a	3	6	Blank	AvoidedLoss	True
71.617	1.45	Lose2	1.0	n/a	Yes	2.731	n/a	5.0	GoodResponse	0	0.017	70.634	3	6	Feedback	AvoidedLoss	True
73.071	2.731	Lose2	1.0	n/a	Yes	2.731	n/a	n/a	GoodResponse	0	0.0	n/a	3	6	ISIslide	AvoidedLoss	True
75.829	0.25	Lose2	1.0	0.0	Yes	4.021	0.029	n/a	GoodResponse	0	n/a	n/a	3	7	Cue	AvoidedLoss	True
76.08	4.05	Lose2	1.0	0.0	Yes	4.021	0.001	n/a	GoodResponse	0	n/a	n/a	3	7	Fixation	AvoidedLoss	True
80.125	0.33	Lose2	1.0	0.004	Yes	4.021	-0.004	2.0	GoodResponse	0	0.328	79.453	3	7	Target	AvoidedLoss	True
80.453	0.3	Lose2	1.0	0.004	Yes	4.021	-0.004	2.0	GoodResponse	0	0.328	n/a	3	7	ButtonPress	AvoidedLoss	True
80.46	0.37	Lose2	1.0	n/a	Yes	4.021	n/a	n/a	GoodResponse	0	n/a	n/a	3	7	Blank	AvoidedLoss	True
80.828	1.45	Lose2	1.0	n/a	Yes	4.021	n/a	5.0	GoodResponse	0	0.025	79.853	3	7	Feedback	AvoidedLoss	True
82.282	4.021	Lose2	1.0	n/a	Yes	4.021	n/a	n/a	GoodResponse	0	0.0	n/a	3	7	ISIslide	AvoidedLoss	True
86.327	0.25	Lose2	1.0	0.0	Yes	3.023	0.027	n/a	GoodResponse	0	n/a	n/a	3	8	Cue	AvoidedLoss	True
86.578	3.95	Lose2	1.0	0.0	Yes	3.023	0.001	n/a	GoodResponse	0	n/a	n/a	3	8	Fixation	AvoidedLoss	True
90.523	0.32	Lose2	1.0	0.004	Yes	3.023	-0.004	2.0	GoodResponse	0	0.224	89.747	3	8	Target	AvoidedLoss	True
90.747	0.3	Lose2	1.0	0.004	Yes	3.023	-0.004	2.0	GoodResponse	0	0.224	n/a	3	8	ButtonPress	AvoidedLoss	True
90.858	0.38	Lose2	1.0	n/a	Yes	3.023	n/a	n/a	GoodResponse	0	n/a	n/a	3	8	Blank	AvoidedLoss	True
91.225	1.45	Lose2	1.0	n/a	Yes	3.023	n/a	5.0	GoodResponse	0	0.019	90.244	3	8	Feedback	AvoidedLoss	True
92.68	3.023	Lose2	1.0	n/a	Yes	3.023	n/a	n/a	GoodResponse	0	0.0	n/a	3	8	ISIslide	AvoidedLoss	True
95.722	0.25	Lose2	1.0	0.0	Yes	3.128	0.022	n/a	GoodResponse	0	n/a	n/a	3	9	Cue	AvoidedLoss	True
95.973	3.95	Lose2	1.0	0.0	Yes	3.128	0.001	n/a	GoodResponse	0	n/a	n/a	3	9	Fixation	AvoidedLoss	True
99.918	0.31	Lose2	1.0	0.004	Yes	3.128	-0.004	2.0	GoodResponse	0	0.28	99.198	3	9	Target	AvoidedLoss	True
100.198	0.3	Lose2	1.0	0.004	Yes	3.128	-0.004	2.0	GoodResponse	0	0.28	n/a	3	9	ButtonPress	AvoidedLoss	True
100.236	0.39	Lose2	1.0	n/a	Yes	3.128	n/a	n/a	GoodResponse	0	n/a	n/a	3	9	Blank	AvoidedLoss	True
100.62	1.45	Lose2	1.0	n/a	Yes	3.128	n/a	5.0	GoodResponse	0	0.038	99.658	3	9	Feedback	AvoidedLoss	True
102.075	3.128	Lose2	1.0	n/a	Yes	3.128	n/a	n/a	GoodResponse	0	0.0	n/a	3	9	ISIslide	AvoidedLoss	True
105.217	0.25	Control	1.0	0.0	Yes	3.283	0.017	n/a	GoodResponse	0	n/a	n/a	3	10	Cue	Neutral	True
105.468	4.0	Control	1.0	0.0	Yes	3.283	0.001	n/a	GoodResponse	0	n/a	n/a	3	10	Fixation	Neutral	True
109.463	0.3	Control	1.0	0.004	Yes	3.283	-0.004	2.0	GoodResponse	0	0.194	108.657	3	10	Target	Neutral	True
109.657	0.3	Control	1.0	0.004	Yes	3.283	-0.004	2.0	GoodResponse	0	0.194	n/a	3	10	ButtonPress	Neutral	True
109.764	0.4	Control	1.0	n/a	Yes	3.283	n/a	n/a	GoodResponse	0	n/a	n/a	3	10	Blank	Neutral	True
110.166	1.45	Control	1.0	n/a	Yes	3.283	n/a	5.0	GoodResponse	0	0.006	109.172	3	10	Feedback	Neutral	True
111.62	3.283	Control	1.0	n/a	Yes	3.283	n/a	n/a	GoodResponse	0	0.0	n/a	3	10	ISIslide	Neutral	True
114.93	0.25	Lose2	1.0	0.0	Yes	2.72	0.03	n/a	GoodResponse	0	n/a	n/a	3	11	Cue	AvoidedLoss	True
115.181	4.05	Lose2	1.0	0.0	Yes	2.72	0.001	n/a	GoodResponse	0	n/a	n/a	3	11	Fixation	AvoidedLoss	True
119.226	0.29	Lose2	1.0	0.004	Yes	2.72	-0.004	2.0	GoodResponse	0	0.206	118.432	3	11	Target	AvoidedLoss	True
119.432	0.3	Lose2	1.0	0.004	Yes	2.72	-0.004	2.0	GoodResponse	0	0.206	n/a	3	11	ButtonPress	AvoidedLoss	True
119.527	0.41	Lose2	1.0	n/a	Yes	2.72	n/a	n/a	GoodResponse	0	n/a	n/a	3	11	Blank	AvoidedLoss	True
119.928	1.45	Lose2	1.0	n/a	Yes	2.72	n/a	5.0	GoodResponse	0	0.047	118.975	3	11	Feedback	AvoidedLoss	True
121.383	2.72	Lose2	1.0	n/a	Yes	2.72	n/a	n/a	GoodResponse	0	0.0	n/a	3	11	ISIslide	AvoidedLoss	True
124.124	0.25	Control	1.0	0.0	Yes	2.976	0.024	n/a	GoodResponse	0	n/a	n/a	3	12	Cue	Neutral	True
124.375	3.9	Control	1.0	0.0	Yes	2.976	0.001	n/a	GoodResponse	0	n/a	n/a	3	12	Fixation	Neutral	True
128.27	0.28	Control	1.0	0.004	Yes	2.976	-0.004	2.0	GoodResponse	0	0.251	127.521	3	12	Target	Neutral	True
128.521	0.3	Control	1.0	0.004	Yes	2.976	-0.004	2.0	GoodResponse	0	0.251	n/a	3	12	ButtonPress	Neutral	True
128.554	0.42	Control	1.0	n/a	Yes	2.976	n/a	n/a	GoodResponse	0	n/a	n/a	3	12	Blank	Neutral	True
128.972	1.45	Control	1.0	n/a	Yes	2.976	n/a	5.0	GoodResponse	0	0.027	127.999	3	12	Feedback	Neutral	True
130.426	2.976	Control	1.0	n/a	Yes	2.976	n/a	n/a	GoodResponse	0	0.0	n/a	3	12	ISIslide	Neutral	True
133.419	0.25	Control	1.0	0.0	Yes	2.781	0.019	n/a	GoodResponse	0	n/a	n/a	3	13	Cue	Neutral	False
133.669	4.0	Control	1.0	0.0	Yes	2.781	0.0	2.0	GoodResponse	0	0.051	132.72	3	13	Fixation	Neutral	False
133.72	0.3	Control	1.0	0.0	Yes	2.781	0.0	2.0	GoodResponse	0	0.051	n/a	3	13	ButtonPress	Neutral	False
137.665	0.27	Control	1.0	0.004	Yes	2.781	-0.004	2.0	GoodResponse	0	0.214	136.879	3	13	Target	Neutral	False
137.879	0.3	Control	1.0	0.004	Yes	2.781	-0.004	2.0	GoodResponse	0	0.214	n/a	3	13	ButtonPress	Neutral	False
137.949	0.43	Control	1.0	n/a	Yes	2.781	n/a	n/a	GoodResponse	0	n/a	n/a	3	13	Blank	Neutral	False
138.367	1.45	Control	1.0	n/a	Yes	2.781	n/a	5.0	GoodResponse	0	0.047	137.414	3	13	Feedback	Neutral	False
139.821	2.781	Control	1.0	n/a	Yes	2.781	n/a	n/a	GoodResponse	0	0.0	n/a	3	13	ISIslide	Neutral	False
142.63	0.25	Win2	0.9333	0.0	No	2.67	0.03	n/a	LatePress	0	n/a	n/a	3	14	Cue	MissedWin	True
142.88	4.1	Win2	0.9333	0.0	No	2.67	0.0	n/a	LatePress	0	n/a	n/a	3	14	Fixation	MissedWin	True
146.976	0.26	Win2	0.9333	0.004	No	2.67	-0.004	2.0	LatePress	0	0.263	146.239	3	14	Target	MissedWin	True
147.239	0.3	Win2	0.9333	0.004	No	2.67	-0.004	2.0	LatePress	0	0.263	n/a	3	14	ButtonPress	MissedWin	True
147.243	0.44	Win2	0.9333	n/a	No	2.67	n/a	n/a	LatePress	0	n/a	n/a	3	14	Blank	MissedWin	True
147.678	1.45	Win2	0.9333	n/a	No	2.67	n/a	5.0	LatePress	0	0.008	146.686	3	14	Feedback	MissedWin	True
149.132	2.67	Win2	0.9333	n/a	No	2.67	n/a	n/a	LatePress	0	0.0	n/a	3	14	ISIslide	MissedWin	True
151.824	0.25	Control	0.9375	0.0	Yes	2.976	0.024	n/a	GoodResponse	0	n/a	n/a	3	15	Cue	Neutral	True
152.075	4.0	Control	0.9375	0.0	Yes	2.976	0.001	n/a	GoodResponse	0	n/a	n/a	3	15	Fixation	Neutral	True
156.07	0.25	Control	0.9375	0.004	Yes	2.976	-0.004	2.0	GoodResponse	0	0.232	155.302	3	15	Target	Neutral	True
156.302	0.3	Control	0.9375	0.004	Yes	2.976	-0.004	2.0	GoodResponse	0	0.232	n/a	3	15	ButtonPress	Neutral	True
156.321	0.45	Control	0.9375	n/a	Yes	2.976	n/a	n/a	GoodResponse	0	n/a	n/a	3	15	Blank	Neutral	True
156.772	1.45	Control	0.9375	n/a	Yes	2.976	n/a	5.0	GoodResponse	0	0.032	155.804	3	15	Feedback	Neutral	True
158.226	2.976	Control	0.9375	n/a	Yes	2.976	n/a	n/a	GoodResponse	0	0.0	n/a	3	15	ISIslide	Neutral	True
161.219	0.25	Win2	0.9412	0.0	Yes	2.881	0.019	n/a	GoodResponse	1	n/a	n/a	4	16	Cue	Win	True
161.469	4.0	Win2	0.9412	0.001	Yes	2.881	0.0	n/a	GoodResponse	1	n/a	n/a	4	16	Fixation	Win	True
165.465	0.24	Win2	0.9412	0.004	Yes	2.881	-0.004	2.0	GoodResponse	1	0.209	164.674	4	16	Target	Win	True
165.674	0.3	Win2	0.9412	0.004	Yes	2.881	-0.004	2.0	GoodResponse	1	0.209	n/a	4	16	ButtonPress	Win	True
165.716	0.46	Win2	0.9412	n/a	Yes	2.881	n/a	n/a	GoodResponse	1	n/a	n/a	4	16	Blank	Win	True
166.167	1.45	Win2	0.9412	n/a	Yes	2.881	n/a	5.0	GoodResponse	1	0.008	165.175	4	16	Feedback	Win	True
167.621	2.881	Win2	0.9412	n/a	Yes	2.881	n/a	n/a	GoodResponse	1	0.0	n/a	4	16	ISIslide	Win	True
170.53	0.25	Lose2	0.8889	0.0	No	2.72	0.03	n/a	NoResponse	-1	n/a	n/a	3	17	Cue	Loss	True
170.781	3.95	Lose2	0.8889	0.0	No	2.72	0.001	n/a	NoResponse	-1	n/a	n/a	3	17	Fixation	Loss	True
174.726	0.23	Lose2	0.8889	0.004	No	2.72	-0.004	2.0	NoResponse	-1	0.242	173.968	3	17	Target	Loss	True
174.96	0.47	Lose2	0.8889	n/a	No	2.72	n/a	n/a	NoResponse	-1	n/a	n/a	3	17	Blank	Loss	True
174.968	0.3	Lose2	0.8889	0.004	No	2.72	-0.004	2.0	NoResponse	-1	0.242	n/a	3	17	ButtonPress	Loss	True
175.428	1.45	Lose2	0.8889	n/a	No	2.72	n/a	5.0	NoResponse	-1	0.011	174.439	3	17	Feedback	Loss	True
176.882	2.72	Lose2	0.8889	n/a	No	2.72	n/a	n/a	NoResponse	-1	0.0	n/a	3	17	ISIslide	Loss	True
179.624	0.25	Lose2	0.8421	0.0	No	2.726	0.024	n/a	LatePress	-1	n/a	n/a	2	18	Cue	Loss	True
179.875	4.05	Lose2	0.8421	0.0	No	2.726	0.001	n/a	LatePress	-1	n/a	n/a	2	18	Fixation	Loss	True
183.92	0.22	Lose2	0.8421	0.004	No	2.726	-0.004	2.0	LatePress	-1	0.231	183.151	2	18	Target	Loss	True
184.151	0.3	Lose2	0.8421	0.004	No	2.726	-0.004	2.0	LatePress	-1	0.231	n/a	2	18	ButtonPress	Loss	True
184.154	0.48	Lose2	0.8421	n/a	No	2.726	n/a	n/a	LatePress	-1	n/a	n/a	2	18	Blank	Loss	True
184.622	1.45	Lose2	0.8421	n/a	No	2.726	n/a	5.0	LatePress	-1	0.035	183.657	2	18	Feedback	Loss	True
186.077	2.726	Lose2	0.8421	n/a	No	2.726	n/a	n/a	LatePress	-1	0.0	n/a	2	18	ISIslide	Loss	True
188.818	0.25	Control	0.8	0.0	No	2.932	0.018	n/a	NoResponse	0	n/a	n/a	2	19	Cue	Neutral	True
189.069	3.95	Control	0.8	0.0	No	2.932	0.001	2.0	NoResponse	0	2.593	190.662	2	19	Fixation	Neutral	True
191.662	0.3	Control	0.8	0.0	No	2.932	0.001	2.0	NoResponse	0	2.593	n/a	2	19	ButtonPress	Neutral	True
193.014	0.21	Control	0.8	0.004	No	2.932	-0.004	n/a	NoResponse	0	n/a	n/a	2	19	Target	Neutral	True
193.231	0.49	Control	0.8	n/a	No	2.932	n/a	n/a	NoResponse	0	n/a	n/a	2	19	Blank	Neutral	True
193.716	1.45	Control	0.8	n/a	No	2.932	n/a	5.0	NoResponse	0	0.015	192.731	2	19	Feedback	Neutral	True
195.171	2.932	Control	0.8	n/a	No	2.932	n/a	n/a	NoResponse	0	0.0	n/a	2	19	ISIslide	Neutral	True
198.129	0.25	Control	0.7619	0.001	No	2.621	0.029	n/a	NoResponse	0	n/a	n/a	2	20	Cue	Neutral	True
198.38	4.05	Control	0.7619	0.0	No	2.621	0.001	n/a	NoResponse	0	n/a	n/a	2	20	Fixation	Neutral	True
202.426	0.2	Control	0.7619	0.003	No	2.621	-0.003	2.0	NoResponse	0	0.227	201.653	2	20	Target	Neutral	True
202.626	0.5	Control	0.7619	n/a	No	2.621	n/a	n/a	NoResponse	0	n/a	n/a	2	20	Blank	Neutral	True
202.653	0.3	Control	0.7619	0.003	No	2.621	-0.003	2.0	NoResponse	0	0.227	n/a	2	20	ButtonPress	Neutral	True
203.128	1.45	Control	0.7619	n/a	No	2.621	n/a	5.0	NoResponse	0	0.017	202.145	2	20	Feedback	Neutral	True
204.582	2.621	Control	0.7619	n/a	No	2.621	n/a	n/a	NoResponse	0	0.0	n/a	2	20	ISIslide	Neutral	True
207.223	0.25	Control	0.7273000000000001	0.0	No	2.777	0.023	n/a	NoResponse	0	n/a	n/a	2	21	Cue	Neutral	True
207.474	4.1	Control	0.7273000000000001	0.0	No	2.777	0.001	n/a	NoResponse	0	n/a	n/a	2	21	Fixation	Neutral	True
211.57	0.19	Control	0.7273000000000001	0.003	No	2.777	-0.003	2.0	NoResponse	0	0.337	210.907	2	21	Target	Neutral	True
211.77	0.51	Control	0.7273000000000001	n/a	No	2.777	n/a	n/a	NoResponse	0	n/a	n/a	2	21	Blank	Neutral	True
211.907	0.3	Control	0.7273000000000001	0.003	No	2.777	-0.003	2.0	NoResponse	0	0.337	n/a	2	21	ButtonPress	Neutral	True
212.272	1.45	Control	0.7273000000000001	n/a	No	2.777	n/a	5.0	NoResponse	0	0.044	211.316	2	21	Feedback	Neutral	True
213.726	2.777	Control	0.7273000000000001	n/a	No	2.777	n/a	n/a	NoResponse	0	0.0	n/a	2	21	ISIslide	Neutral	True
216.518	0.25	Control	0.6957	0.0	No	2.782	0.018	n/a	NoResponse	0	n/a	n/a	2	22	Cue	Neutral	True
216.769	4.0	Control	0.6957	0.0	No	2.782	0.001	n/a	NoResponse	0	n/a	n/a	2	22	Fixation	Neutral	True
220.764	0.18	Control	0.6957	0.004	No	2.782	-0.004	2.0	NoResponse	0	0.373	220.137	2	22	Target	Neutral	True
220.948	0.52	Control	0.6957	n/a	No	2.782	n/a	n/a	NoResponse	0	n/a	n/a	2	22	Blank	Neutral	True
221.137	0.3	Control	0.6957	0.004	No	2.782	-0.004	2.0	NoResponse	0	0.373	n/a	2	22	ButtonPress	Neutral	True
221.466	1.45	Control	0.6957	n/a	No	2.782	n/a	5.0	NoResponse	0	0.021	220.487	2	22	Feedback	Neutral	True
222.92	2.782	Control	0.6957	n/a	No	2.782	n/a	n/a	NoResponse	0	0.0	n/a	2	22	ISIslide	Neutral	True
225.729	0.25	Control	0.6667000000000001	0.0	No	2.771	0.029	n/a	NoResponse	0	n/a	n/a	2	23	Cue	Neutral	False
225.98	3.9	Control	0.6667000000000001	0.0	No	2.771	0.001	n/a	NoResponse	0	n/a	n/a	2	23	Fixation	Neutral	False
229.875	0.17	Control	0.6667000000000001	0.004	No	2.771	-0.004	n/a	NoResponse	0	n/a	n/a	2	23	Target	Neutral	False
230.059	0.53	Control	0.6667000000000001	n/a	No	2.771	n/a	n/a	NoResponse	0	n/a	n/a	2	23	Blank	Neutral	False
230.577	1.45	Control	0.6667000000000001	n/a	No	2.771	n/a	5.0	NoResponse	0	0.032	229.609	2	23	Feedback	Neutral	False
232.031	2.771	Control	0.6667000000000001	n/a	No	2.771	n/a	n/a	NoResponse	0	0.0	n/a	2	23	ISIslide	Neutral	False
234.823	0.25	Win2	0.64	0.0	No	3.127	0.023	n/a	NoResponse	0	n/a	n/a	2	24	Cue	MissedWin	True
235.074	3.95	Win2	0.64	0.0	No	3.127	0.001	n/a	NoResponse	0	n/a	n/a	2	24	Fixation	MissedWin	True
239.019	0.16	Win2	0.64	0.004	No	3.127	-0.004	2.0	NoResponse	0	0.214	238.233	2	24	Target	MissedWin	True
239.186	0.54	Win2	0.64	n/a	No	3.127	n/a	n/a	NoResponse	0	n/a	n/a	2	24	Blank	MissedWin	True
239.233	0.3	Win2	0.64	0.004	No	3.127	-0.004	2.0	NoResponse	0	0.214	n/a	2	24	ButtonPress	MissedWin	True
239.721	1.45	Win2	0.64	n/a	No	3.127	n/a	5.0	NoResponse	0	0.01	238.731	2	24	Feedback	MissedWin	True
241.175	3.127	Win2	0.64	n/a	No	3.127	n/a	n/a	NoResponse	0	0.0	n/a	2	24	ISIslide	MissedWin	True
244.318	0.25	Win2	0.6154	0.0	No	3.082	0.018	n/a	NoResponse	0	n/a	n/a	2	25	Cue	MissedWin	True
244.569	4.0	Win2	0.6154	0.0	No	3.082	0.001	n/a	NoResponse	0	n/a	n/a	2	25	Fixation	MissedWin	True
248.564	0.17	Win2	0.6154	0.004	No	3.082	-0.004	2.0	NoResponse	0	0.207	247.771	2	25	Target	MissedWin	True
248.748	0.53	Win2	0.6154	n/a	No	3.082	n/a	n/a	NoResponse	0	n/a	n/a	2	25	Blank	MissedWin	True
248.771	0.3	Win2	0.6154	0.004	No	3.082	-0.004	2.0	NoResponse	0	0.207	n/a	2	25	ButtonPress	MissedWin	True
249.266	1.45	Win2	0.6154	n/a	No	3.082	n/a	5.0	NoResponse	0	0.026	248.292	2	25	Feedback	MissedWin	True
250.721	3.082	Win2	0.6154	n/a	No	3.082	n/a	n/a	NoResponse	0	0.0	n/a	2	25	ISIslide	MissedWin	True
253.83	0.25	Win2	0.6296	0.0	Yes	2.92	0.03	n/a	GoodResponse	1	n/a	n/a	3	26	Cue	Win	True
254.081	3.95	Win2	0.6296	0.0	Yes	2.92	0.001	n/a	GoodResponse	1	n/a	n/a	3	26	Fixation	Win	True
258.026	0.18	Win2	0.6296	0.004	Yes	2.92	-0.004	2.0	GoodResponse	1	0.123	257.149	3	26	Target	Win	True
258.149	0.3	Win2	0.6296	0.004	Yes	2.92	-0.004	2.0	GoodResponse	1	0.123	n/a	3	26	ButtonPress	Win	True
258.21	0.52	Win2	0.6296	n/a	Yes	2.92	n/a	n/a	GoodResponse	1	n/a	n/a	3	26	Blank	Win	True
258.728	1.45	Win2	0.6296	n/a	Yes	2.92	n/a	5.0	GoodResponse	1	0.027	257.755	3	26	Feedback	Win	True
260.182	2.92	Win2	0.6296	n/a	Yes	2.92	n/a	n/a	GoodResponse	1	0.0	n/a	3	26	ISIslide	Win	True
263.124	0.25	Lose2	0.6071	0.001	No	2.826	0.024	n/a	NoResponse	-1	n/a	n/a	2	27	Cue	Loss	True
263.375	4.05	Lose2	0.6071	0.0	No	2.826	0.001	n/a	NoResponse	-1	n/a	n/a	2	27	Fixation	Loss	True
267.421	0.19	Lose2	0.6071	0.003	No	2.826	-0.003	2.0	NoResponse	-1	0.208	266.629	2	27	Target	Loss	True
267.621	0.51	Lose2	0.6071	n/a	No	2.826	n/a	n/a	NoResponse	-1	n/a	n/a	2	27	Blank	Loss	True
267.629	0.3	Lose2	0.6071	0.003	No	2.826	-0.003	2.0	NoResponse	-1	0.208	n/a	2	27	ButtonPress	Loss	True
268.123	1.45	Lose2	0.6071	n/a	No	2.826	n/a	5.0	NoResponse	-1	0.046	267.169	2	27	Feedback	Loss	True
269.577	2.826	Lose2	0.6071	n/a	No	2.826	n/a	n/a	NoResponse	-1	0.0	n/a	2	27	ISIslide	Loss	True
272.419	0.25	Control	0.5861999999999999	0.0	No	2.831	0.019	n/a	NoResponse	0	n/a	n/a	2	28	Cue	Neutral	True
272.67	4.05	Control	0.5861999999999999	0.0	No	2.831	0.001	n/a	NoResponse	0	n/a	n/a	2	28	Fixation	Neutral	True
276.715	0.2	Control	0.5861999999999999	0.004	No	2.831	-0.004	2.0	NoResponse	0	0.281	275.996	2	28	Target	Neutral	True
276.916	0.5	Control	0.5861999999999999	n/a	No	2.831	n/a	n/a	NoResponse	0	n/a	n/a	2	28	Blank	Neutral	True
276.996	0.3	Control	0.5861999999999999	0.004	No	2.831	-0.004	2.0	NoResponse	0	0.281	n/a	2	28	ButtonPress	Neutral	True
277.417	1.45	Control	0.5861999999999999	n/a	No	2.831	n/a	5.0	NoResponse	0	0.021	276.438	2	28	Feedback	Neutral	True
278.872	2.831	Control	0.5861999999999999	n/a	No	2.831	n/a	n/a	NoResponse	0	0.0	n/a	2	28	ISIslide	Neutral	True
281.73	0.25	Lose2	0.5667	0.0	No	2.82	0.03	n/a	NoResponse	-1	n/a	n/a	1	29	Cue	Loss	True
281.981	3.95	Lose2	0.5667	0.0	No	2.82	0.001	n/a	NoResponse	-1	n/a	n/a	1	29	Fixation	Loss	True
285.926	0.21	Lose2	0.5667	0.004	No	2.82	-0.004	2.0	NoResponse	-1	0.282	285.208	1	29	Target	Loss	True
286.143	0.49	Lose2	0.5667	n/a	No	2.82	n/a	n/a	NoResponse	-1	n/a	n/a	1	29	Blank	Loss	True
286.208	0.3	Lose2	0.5667	0.004	No	2.82	-0.004	2.0	NoResponse	-1	0.282	n/a	1	29	ButtonPress	Loss	True
286.628	1.45	Lose2	0.5667	n/a	No	2.82	n/a	5.0	NoResponse	-1	0.029	285.657	1	29	Feedback	Loss	True
288.083	2.82	Lose2	0.5667	n/a	No	2.82	n/a	n/a	NoResponse	-1	0.0	n/a	1	29	ISIslide	Loss	True
290.924	0.25	Win2	0.5806	0.001	Yes	2.776	0.024	n/a	GoodResponse	1	n/a	n/a	2	30	Cue	Win	True
291.175	3.9	Win2	0.5806	0.0	Yes	2.776	0.001	n/a	GoodResponse	1	n/a	n/a	2	30	Fixation	Win	True
295.07	0.22	Win2	0.5806	0.004	Yes	2.776	-0.004	2.0	GoodResponse	1	0.218	294.288	2	30	Target	Win	True
295.288	0.3	Win2	0.5806	0.004	Yes	2.776	-0.004	2.0	GoodResponse	1	0.218	n/a	2	30	ButtonPress	Win	True
295.304	0.48	Win2	0.5806	n/a	Yes	2.776	n/a	n/a	GoodResponse	1	n/a	n/a	2	30	Blank	Win	True
295.772	1.45	Win2	0.5806	n/a	Yes	2.776	n/a	5.0	GoodResponse	1	0.008	294.78	2	30	Feedback	Win	True
297.227	2.776	Win2	0.5806	n/a	Yes	2.776	n/a	n/a	GoodResponse	1	0.0	n/a	2	30	ISIslide	Win	True
300.018	0.25	Lose2	0.5625	0.0	No	2.832	0.018	n/a	NoResponse	-1	n/a	n/a	1	31	Cue	Loss	True
300.269	4.05	Lose2	0.5625	0.0	No	2.832	0.001	n/a	NoResponse	-1	n/a	n/a	1	31	Fixation	Loss	True
304.315	0.23	Lose2	0.5625	0.003	No	2.832	-0.003	2.0	NoResponse	-1	0.275	303.59	1	31	Target	Loss	True
304.549	0.47	Lose2	0.5625	n/a	No	2.832	n/a	n/a	NoResponse	-1	n/a	n/a	1	31	Blank	Loss	True
304.59	0.3	Lose2	0.5625	0.003	No	2.832	-0.003	2.0	NoResponse	-1	0.275	n/a	1	31	ButtonPress	Loss	True
305.017	1.45	Lose2	0.5625	n/a	No	2.832	n/a	5.0	NoResponse	-1	0.031	304.048	1	31	Feedback	Loss	True
306.471	2.832	Lose2	0.5625	n/a	No	2.832	n/a	n/a	NoResponse	-1	0.0	n/a	1	31	ISIslide	Loss	True
309.33	0.25	Lose2	0.5758	0.0	Yes	2.62	0.03	n/a	GoodResponse	0	n/a	n/a	1	32	Cue	AvoidedLoss	True
309.58	4.15	Lose2	0.5758	0.001	Yes	2.62	0.0	n/a	GoodResponse	0	n/a	n/a	1	32	Fixation	AvoidedLoss	True
313.726	0.24	Lose2	0.5758	0.004	Yes	2.62	-0.004	2.0	GoodResponse	0	0.209	312.935	1	32	Target	AvoidedLoss	True
313.935	0.3	Lose2	0.5758	0.004	Yes	2.62	-0.004	2.0	GoodResponse	0	0.209	n/a	1	32	ButtonPress	AvoidedLoss	True
313.977	0.46	Lose2	0.5758	n/a	Yes	2.62	n/a	n/a	GoodResponse	0	n/a	n/a	1	32	Blank	AvoidedLoss	True
314.428	1.45	Lose2	0.5758	n/a	Yes	2.62	n/a	5.0	GoodResponse	0	0.035	313.463	1	32	Feedback	AvoidedLoss	True
315.883	2.62	Lose2	0.5758	n/a	Yes	2.62	n/a	n/a	GoodResponse	0	0.0	n/a	1	32	ISIslide	AvoidedLoss	True
318.524	0.25	Win2	0.5882000000000001	0.0	Yes	2.676	0.024	n/a	GoodResponse	1	n/a	n/a	2	33	Cue	Win	True
318.775	4.0	Win2	0.5882000000000001	0.0	Yes	2.676	0.001	n/a	GoodResponse	1	n/a	n/a	2	33	Fixation	Win	True
322.77	0.25	Win2	0.5882000000000001	0.004	Yes	2.676	-0.004	2.0	GoodResponse	1	0.226	321.996	2	33	Target	Win	True
322.996	0.3	Win2	0.5882000000000001	0.004	Yes	2.676	-0.004	2.0	GoodResponse	1	0.226	n/a	2	33	ButtonPress	Win	True
323.021	0.45	Win2	0.5882000000000001	n/a	Yes	2.676	n/a	n/a	GoodResponse	1	n/a	n/a	2	33	Blank	Win	True
323.472	1.45	Win2	0.5882000000000001	n/a	Yes	2.676	n/a	5.0	GoodResponse	1	0.015	322.487	2	33	Feedback	Win	True
324.926	2.676	Win2	0.5882000000000001	n/a	Yes	2.676	n/a	n/a	GoodResponse	1	0.0	n/a	2	33	ISIslide	Win	True
327.618	0.25	Lose2	0.5714	0.0	No	2.632	0.018	n/a	NoResponse	-1	n/a	n/a	1	34	Cue	Loss	True
327.869	4.05	Lose2	0.5714	0.0	No	2.632	0.001	n/a	NoResponse	-1	n/a	n/a	1	34	Fixation	Loss	True
331.914	0.26	Lose2	0.5714	0.004	No	2.632	-0.004	2.0	NoResponse	-1	0.284	331.198	1	34	Target	Loss	True
332.182	0.44	Lose2	0.5714	n/a	No	2.632	n/a	n/a	NoResponse	-1	n/a	n/a	1	34	Blank	Loss	True
332.198	0.3	Lose2	0.5714	0.004	No	2.632	-0.004	2.0	NoResponse	-1	0.284	n/a	1	34	ButtonPress	Loss	True
332.616	1.45	Lose2	0.5714	n/a	No	2.632	n/a	5.0	NoResponse	-1	0.041	331.657	1	34	Feedback	Loss	True
334.071	2.632	Lose2	0.5714	n/a	No	2.632	n/a	n/a	NoResponse	-1	0.0	n/a	1	34	ISIslide	Loss	True
336.729	0.25	Lose2	0.5556	0.0	No	2.671	0.029	n/a	NoResponse	-1	n/a	n/a	0	35	Cue	Loss	True
336.979	4.0	Lose2	0.5556	0.0	No	2.671	0.0	n/a	NoResponse	-1	n/a	n/a	0	35	Fixation	Loss	True
340.975	0.27	Lose2	0.5556	0.004	No	2.671	-0.004	2.0	NoResponse	-1	0.38	340.355	0	35	Target	Loss	True
341.259	0.43	Lose2	0.5556	n/a	No	2.671	n/a	n/a	NoResponse	-1	n/a	n/a	0	35	Blank	Loss	True
341.355	0.3	Lose2	0.5556	0.004	No	2.671	-0.004	2.0	NoResponse	-1	0.38	n/a	0	35	ButtonPress	Loss	True
341.677	1.45	Lose2	0.5556	n/a	No	2.671	n/a	5.0	NoResponse	-1	0.007	340.684	0	35	Feedback	Loss	True
343.131	2.671	Lose2	0.5556	n/a	No	2.671	n/a	n/a	NoResponse	-1	0.0	n/a	0	35	ISIslide	Loss	True
345.822	0.25	Control	0.5405	0.001	No	2.678	0.022	n/a	NoResponse	0	n/a	n/a	0	36	Cue	Neutral	True
346.073	4.0	Control	0.5405	0.0	No	2.678	0.001	n/a	NoResponse	0	n/a	n/a	0	36	Fixation	Neutral	True
350.069	0.28	Control	0.5405	0.003	No	2.678	-0.003	2.0	NoResponse	0	0.293	349.362	0	36	Target	Neutral	True
350.353	0.42	Control	0.5405	n/a	No	2.678	n/a	n/a	NoResponse	0	n/a	n/a	0	36	Blank	Neutral	True
350.362	0.3	Control	0.5405	0.003	No	2.678	-0.003	2.0	NoResponse	0	0.293	n/a	0	36	ButtonPress	Neutral	True
350.771	1.45	Control	0.5405	n/a	No	2.678	n/a	5.0	NoResponse	0	0.033	349.804	0	36	Feedback	Neutral	True
352.225	2.678	Control	0.5405	n/a	No	2.678	n/a	2.0	NoResponse	0	1.871	n/a	0	36	ISIslide	Neutral	True
354.9	0.25	Win2	0.5526	0.0	Yes	2.9	0.0	n/a	GoodResponse	1	n/a	n/a	1	37	Cue	Win	True
355.15	4.0	Win2	0.5526	0.001	Yes	2.9	0.0	n/a	GoodResponse	1	n/a	n/a	1	37	Fixation	Win	True
359.146	0.29	Win2	0.5526	0.004	Yes	2.9	-0.004	2.0	GoodResponse	1	0.269	358.415	1	37	Target	Win	True
359.415	0.3	Win2	0.5526	0.004	Yes	2.9	-0.004	2.0	GoodResponse	1	0.269	n/a	1	37	ButtonPress	Win	True
359.447	0.41	Win2	0.5526	n/a	Yes	2.9	n/a	n/a	GoodResponse	1	n/a	n/a	1	37	Blank	Win	True
359.848	1.45	Win2	0.5526	n/a	Yes	2.9	n/a	5.0	GoodResponse	1	0.029	358.877	1	37	Feedback	Win	True
361.302	2.9	Win2	0.5526	n/a	Yes	2.9	n/a	n/a	GoodResponse	1	0.0	n/a	1	37	ISIslide	Win	True
364.228	0.25	Lose2	0.5640999999999999	0.0	Yes	2.822	0.028	n/a	GoodResponse	0	n/a	n/a	1	38	Cue	AvoidedLoss	True
364.478	3.95	Lose2	0.5640999999999999	0.001	Yes	2.822	0.0	n/a	GoodResponse	0	n/a	n/a	1	38	Fixation	AvoidedLoss	True
368.424	0.3	Lose2	0.5640999999999999	0.004	Yes	2.822	-0.004	2.0	GoodResponse	0	0.251	367.675	1	38	Target	AvoidedLoss	True
368.675	0.3	Lose2	0.5640999999999999	0.004	Yes	2.822	-0.004	2.0	GoodResponse	0	0.251	n/a	1	38	ButtonPress	AvoidedLoss	True
368.725	0.4	Lose2	0.5640999999999999	n/a	Yes	2.822	n/a	n/a	GoodResponse	0	n/a	n/a	1	38	Blank	AvoidedLoss	True
369.126	1.45	Lose2	0.5640999999999999	n/a	Yes	2.822	n/a	5.0	GoodResponse	0	0.019	368.145	1	38	Feedback	AvoidedLoss	True
370.58	2.822	Lose2	0.5640999999999999	n/a	Yes	2.822	n/a	n/a	GoodResponse	0	0.0	n/a	1	38	ISIslide	AvoidedLoss	True
373.422	0.25	Win2	0.575	0.0	Yes	2.978	0.022	n/a	GoodResponse	1	n/a	n/a	2	39	Cue	Win	True
373.673	4.1	Win2	0.575	0.0	Yes	2.978	0.001	n/a	GoodResponse	1	n/a	n/a	2	39	Fixation	Win	True
377.768	0.31	Win2	0.575	0.004	Yes	2.978	-0.004	2.0	GoodResponse	1	0.201	376.969	2	39	Target	Win	True
377.969	0.3	Win2	0.575	0.004	Yes	2.978	-0.004	2.0	GoodResponse	1	0.201	n/a	2	39	ButtonPress	Win	True
378.086	0.39	Win2	0.575	n/a	Yes	2.978	n/a	n/a	GoodResponse	1	n/a	n/a	2	39	Blank	Win	True
378.47	1.45	Win2	0.575	n/a	Yes	2.978	n/a	5.0	GoodResponse	1	0.041	377.511	2	39	Feedback	Win	True
379.925	2.978	Win2	0.575	n/a	Yes	2.978	n/a	n/a	GoodResponse	1	0.0	n/a	2	39	ISIslide	Win	True
382.917	0.25	Win2	0.5854	0.0	Yes	2.733	0.017	n/a	GoodResponse	1	n/a	n/a	3	40	Cue	Win	True
383.168	3.95	Win2	0.5854	0.0	Yes	2.733	0.001	n/a	GoodResponse	1	n/a	n/a	3	40	Fixation	Win	True
387.113	0.32	Win2	0.5854	0.004	Yes	2.733	-0.004	2.0	GoodResponse	1	0.231	386.344	3	40	Target	Win	True
387.344	0.3	Win2	0.5854	0.004	Yes	2.733	-0.004	2.0	GoodResponse	1	0.231	n/a	3	40	ButtonPress	Win	True
387.447	0.38	Win2	0.5854	n/a	Yes	2.733	n/a	n/a	GoodResponse	1	n/a	n/a	3	40	Blank	Win	True
387.815	1.45	Win2	0.5854	n/a	Yes	2.733	n/a	5.0	GoodResponse	1	0.013	386.828	3	40	Feedback	Win	True
389.269	2.733	Win2	0.5854	n/a	Yes	2.733	n/a	n/a	GoodResponse	1	0.0	n/a	3	40	ISIslide	Win	True
392.028	0.25	Win2	0.5952000000000001	0.0	Yes	2.772	0.028	n/a	GoodResponse	1	n/a	n/a	4	41	Cue	Win	True
392.279	3.9	Win2	0.5952000000000001	0.0	Yes	2.772	0.001	n/a	GoodResponse	1	n/a	n/a	4	41	Fixation	Win	True
396.174	0.33	Win2	0.5952000000000001	0.004	Yes	2.772	-0.004	2.0	GoodResponse	1	0.259	395.433	4	41	Target	Win	True
396.433	0.3	Win2	0.5952000000000001	0.004	Yes	2.772	-0.004	2.0	GoodResponse	1	0.259	n/a	4	41	ButtonPress	Win	True
396.508	0.37	Win2	0.5952000000000001	n/a	Yes	2.772	n/a	n/a	GoodResponse	1	n/a	n/a	4	41	Blank	Win	True
396.876	1.45	Win2	0.5952000000000001	n/a	Yes	2.772	n/a	5.0	GoodResponse	1	0.026	395.902	4	41	Feedback	Win	True
398.33	2.772	Win2	0.5952000000000001	n/a	Yes	2.772	n/a	n/a	GoodResponse	1	0.0	n/a	4	41	ISIslide	Win	True
401.122	0.25	Control	0.6047	0.0	Yes	2.928	0.022	n/a	GoodResponse	0	n/a	n/a	4	42	Cue	Neutral	True
401.372	3.85	Control	0.6047	0.001	Yes	2.928	0.0	n/a	GoodResponse	0	n/a	n/a	4	42	Fixation	Neutral	True
405.234	0.34	Control	0.6047	0.0	Yes	2.928	0.012	2.0	GoodResponse	0	0.218	404.452	4	42	Target	Neutral	True
405.452	0.3	Control	0.6047	0.0	Yes	2.928	0.012	2.0	GoodResponse	0	0.218	n/a	4	42	ButtonPress	Neutral	True
405.568	0.36	Control	0.6047	n/a	Yes	2.928	n/a	n/a	GoodResponse	0	n/a	n/a	4	42	Blank	Neutral	True
405.919	1.45	Control	0.6047	n/a	Yes	2.928	n/a	5.0	GoodResponse	0	0.006	404.925	4	42	Feedback	Neutral	True
407.374	2.928	Control	0.6047	n/a	Yes	2.928	n/a	n/a	GoodResponse	0	0.0	n/a	4	42	ISIslide	Neutral	True
410.316	0.25	Win2	0.6136	0.0	Yes	3.184	0.016	n/a	GoodResponse	1	n/a	n/a	5	43	Cue	Win	True
410.567	4.0	Win2	0.6136	0.0	Yes	3.184	0.001	n/a	GoodResponse	1	n/a	n/a	5	43	Fixation	Win	True
414.562	0.35	Win2	0.6136	0.004	Yes	3.184	-0.004	2.0	GoodResponse	1	0.227	413.789	5	43	Target	Win	True
414.789	0.3	Win2	0.6136	0.004	Yes	3.184	-0.004	2.0	GoodResponse	1	0.227	n/a	5	43	ButtonPress	Win	True
414.913	0.35	Win2	0.6136	n/a	Yes	3.184	n/a	n/a	GoodResponse	1	n/a	n/a	5	43	Blank	Win	True
415.264	1.45	Win2	0.6136	n/a	Yes	3.184	n/a	5.0	GoodResponse	1	0.027	414.291	5	43	Feedback	Win	True
416.719	3.184	Win2	0.6136	n/a	Yes	3.184	n/a	n/a	GoodResponse	1	0.0	n/a	5	43	ISIslide	Win	True
419.928	0.25	Win2	0.6222	0.0	Yes	2.972	0.028	n/a	GoodResponse	1	n/a	n/a	6	44	Cue	Win	True
420.179	4.0	Win2	0.6222	0.0	Yes	2.972	0.001	n/a	GoodResponse	1	n/a	n/a	6	44	Fixation	Win	True
424.174	0.36	Win2	0.6222	0.004	Yes	2.972	-0.004	2.0	GoodResponse	1	0.211	423.385	6	44	Target	Win	True
424.385	0.3	Win2	0.6222	0.004	Yes	2.972	-0.004	2.0	GoodResponse	1	0.211	n/a	6	44	ButtonPress	Win	True
424.542	0.34	Win2	0.6222	n/a	Yes	2.972	n/a	n/a	GoodResponse	1	n/a	n/a	6	44	Blank	Win	True
424.876	1.45	Win2	0.6222	n/a	Yes	2.972	n/a	5.0	GoodResponse	1	0.025	423.901	6	44	Feedback	Win	True
426.331	2.972	Win2	0.6222	n/a	Yes	2.972	n/a	n/a	GoodResponse	1	0.0	n/a	6	44	ISIslide	Win	True
429.323	0.25	Control	0.6304	0.0	Yes	2.877	0.023	n/a	GoodResponse	0	n/a	n/a	6	45	Cue	Neutral	True
429.574	4.1	Control	0.6304	0.0	Yes	2.877	0.001	n/a	GoodResponse	0	n/a	n/a	6	45	Fixation	Neutral	True
433.669	0.37	Control	0.6304	0.004	Yes	2.877	-0.004	2.0	GoodResponse	0	0.227	432.896	6	45	Target	Neutral	True
433.896	0.3	Control	0.6304	0.004	Yes	2.877	-0.004	2.0	GoodResponse	0	0.227	n/a	6	45	ButtonPress	Neutral	True
434.054	0.33	Control	0.6304	n/a	Yes	2.877	n/a	n/a	GoodResponse	0	n/a	n/a	6	45	Blank	Neutral	True
434.371	1.45	Control	0.6304	n/a	Yes	2.877	n/a	5.0	GoodResponse	0	0.042	433.413	6	45	Feedback	Neutral	True
435.826	2.877	Control	0.6304	n/a	Yes	2.877	n/a	n/a	GoodResponse	0	0.0	n/a	6	45	ISIslide	Neutral	True
438.718	0.25	Lose2	0.6383	0.0	Yes	3.382	0.018	n/a	GoodResponse	0	n/a	n/a	6	46	Cue	AvoidedLoss	True
438.969	4.0	Lose2	0.6383	0.0	Yes	3.382	0.001	n/a	GoodResponse	0	n/a	n/a	6	46	Fixation	AvoidedLoss	True
442.964	0.38	Lose2	0.6383	0.004	Yes	3.382	-0.004	2.0	GoodResponse	0	0.322	442.286	6	46	Target	AvoidedLoss	True
443.286	0.3	Lose2	0.6383	0.004	Yes	3.382	-0.004	2.0	GoodResponse	0	0.322	n/a	6	46	ButtonPress	AvoidedLoss	True
443.348	0.32	Lose2	0.6383	n/a	Yes	3.382	n/a	n/a	GoodResponse	0	n/a	n/a	6	46	Blank	AvoidedLoss	True
443.666	1.45	Lose2	0.6383	n/a	Yes	3.382	n/a	5.0	GoodResponse	0	0.016	442.682	6	46	Feedback	AvoidedLoss	True
445.12	3.382	Lose2	0.6383	n/a	Yes	3.382	n/a	n/a	GoodResponse	0	0.0	n/a	6	46	ISIslide	AvoidedLoss	True
448.514	0.25	Lose2	0.6457999999999999	0.0	Yes	2.686	0.014	n/a	GoodResponse	0	n/a	n/a	6	47	Cue	AvoidedLoss	True
448.765	4.0	Lose2	0.6457999999999999	0.0	Yes	2.686	0.001	n/a	GoodResponse	0	n/a	n/a	6	47	Fixation	AvoidedLoss	True
452.76	0.39	Lose2	0.6457999999999999	0.004	Yes	2.686	-0.004	2.0	GoodResponse	0	0.235	451.995	6	47	Target	AvoidedLoss	True
452.995	0.3	Lose2	0.6457999999999999	0.004	Yes	2.686	-0.004	2.0	GoodResponse	0	0.235	n/a	6	47	ButtonPress	AvoidedLoss	True
453.161	0.31	Lose2	0.6457999999999999	n/a	Yes	2.686	n/a	n/a	GoodResponse	0	n/a	n/a	6	47	Blank	AvoidedLoss	True
453.462	1.45	Lose2	0.6457999999999999	n/a	Yes	2.686	n/a	5.0	GoodResponse	0	0.025	452.487	6	47	Feedback	AvoidedLoss	True
454.916	2.686	Lose2	0.6457999999999999	n/a	Yes	2.686	n/a	n/a	GoodResponse	0	0.0	n/a	6	47	ISIslide	AvoidedLoss	True
457.625	0.25	Lose2	0.6531	0.0	Yes	3.025	0.025	n/a	GoodResponse	0	n/a	n/a	6	48	Cue	AvoidedLoss	True
457.875	3.95	Lose2	0.6531	0.0	Yes	3.025	0.0	n/a	GoodResponse	0	n/a	n/a	6	48	Fixation	AvoidedLoss	True
461.837	0.4	Lose2	0.6531	0.0	Yes	3.025	0.012	2.0	GoodResponse	0	0.244	461.081	6	48	Target	AvoidedLoss	True
462.081	0.3	Lose2	0.6531	0.0	Yes	3.025	0.012	2.0	GoodResponse	0	0.244	n/a	6	48	ButtonPress	AvoidedLoss	True
462.222	0.3	Lose2	0.6531	n/a	Yes	3.025	n/a	n/a	GoodResponse	0	n/a	n/a	6	48	Blank	AvoidedLoss	True
462.523	1.45	Lose2	0.6531	n/a	Yes	3.025	n/a	5.0	GoodResponse	0	0.037	461.56	6	48	Feedback	AvoidedLoss	True
463.977	3.025	Lose2	0.6531	n/a	Yes	3.025	n/a	n/a	GoodResponse	0	0.0	n/a	6	48	ISIslide	AvoidedLoss	True
467.019	0.25	Control	0.66	0.0	Yes	2.881	0.019	n/a	GoodResponse	0	n/a	n/a	6	49	Cue	Neutral	True
467.27	4.0	Control	0.66	0.0	Yes	2.881	0.001	n/a	GoodResponse	0	n/a	n/a	6	49	Fixation	Neutral	True
471.265	0.41	Control	0.66	0.004	Yes	2.881	-0.004	2.0	GoodResponse	0	0.277	470.542	6	49	Target	Neutral	True
471.542	0.3	Control	0.66	0.004	Yes	2.881	-0.004	2.0	GoodResponse	0	0.277	n/a	6	49	ButtonPress	Neutral	True
471.683	0.29	Control	0.66	n/a	Yes	2.881	n/a	n/a	GoodResponse	0	n/a	n/a	6	49	Blank	Neutral	True
471.968	1.45	Control	0.66	n/a	Yes	2.881	n/a	5.0	GoodResponse	0	0.007	470.975	6	49	Feedback	Neutral	True
473.422	2.881	Control	0.66	n/a	Yes	2.881	n/a	n/a	GoodResponse	0	0.0	n/a	6	49	ISIslide	Neutral	True
476.314	0.25	Control	0.6667000000000001	0.0	Yes	2.786	0.014	n/a	GoodResponse	0	n/a	n/a	6	50	Cue	Neutral	True
476.565	4.0	Control	0.6667000000000001	0.0	Yes	2.786	0.001	n/a	GoodResponse	0	n/a	n/a	6	50	Fixation	Neutral	True
480.56	0.41	Control	0.6667000000000001	0.004	Yes	2.786	-0.004	2.0	GoodResponse	0	0.252	479.812	6	50	Target	Neutral	True
480.812	0.3	Control	0.6667000000000001	0.004	Yes	2.786	-0.004	2.0	GoodResponse	0	0.252	n/a	6	50	ButtonPress	Neutral	True
480.978	0.29	Control	0.6667000000000001	n/a	Yes	2.786	n/a	n/a	GoodResponse	0	n/a	n/a	6	50	Blank	Neutral	True
481.262	1.45	Control	0.6667000000000001	n/a	Yes	2.786	n/a	5.0	GoodResponse	0	0.029	480.291	6	50	Feedback	Neutral	True
482.716	2.786	Control	0.6667000000000001	n/a	Yes	2.786	n/a	n/a	GoodResponse	0	0.0	n/a	6	50	ISIslide	Neutral	True
485.525	0.25	Control	0.6731	0.0	Yes	2.725	0.025	n/a	GoodResponse	0	n/a	n/a	6	51	Cue	Neutral	True
485.776	3.95	Control	0.6731	0.0	Yes	2.725	0.001	n/a	GoodResponse	0	n/a	n/a	6	51	Fixation	Neutral	True
489.721	0.4	Control	0.6731	0.004	Yes	2.725	-0.004	2.0	GoodResponse	0	0.244	488.965	6	51	Target	Neutral	True
489.965	0.3	Control	0.6731	0.004	Yes	2.725	-0.004	2.0	GoodResponse	0	0.244	n/a	6	51	ButtonPress	Neutral	True
490.122	0.3	Control	0.6731	n/a	Yes	2.725	n/a	n/a	GoodResponse	0	n/a	n/a	6	51	Blank	Neutral	True
490.423	1.45	Control	0.6731	n/a	Yes	2.725	n/a	5.0	GoodResponse	0	0.039	489.462	6	51	Feedback	Neutral	True
491.877	2.725	Control	0.6731	n/a	Yes	2.725	n/a	n/a	GoodResponse	0	0.0	n/a	6	51	ISIslide	Neutral	True
494.619	0.25	Control	0.6792	0.0	Yes	2.631	0.019	n/a	GoodResponse	0	n/a	n/a	6	52	Cue	Neutral	True
494.87	4.05	Control	0.6792	0.0	Yes	2.631	0.001	n/a	GoodResponse	0	n/a	n/a	6	52	Fixation	Neutral	True
498.915	0.39	Control	0.6792	0.004	Yes	2.631	-0.004	2.0	GoodResponse	0	0.262	498.177	6	52	Target	Neutral	True
499.177	0.3	Control	0.6792	0.004	Yes	2.631	-0.004	2.0	GoodResponse	0	0.262	n/a	6	52	ButtonPress	Neutral	True
499.316	0.31	Control	0.6792	n/a	Yes	2.631	n/a	n/a	GoodResponse	0	n/a	n/a	6	52	Blank	Neutral	True
499.617	1.45	Control	0.6792	n/a	Yes	2.631	n/a	5.0	GoodResponse	0	0.015	498.632	6	52	Feedback	Neutral	True
501.072	2.631	Control	0.6792	n/a	Yes	2.631	n/a	n/a	GoodResponse	0	0.0	n/a	6	52	ISIslide	Neutral	True
503.73	0.25	Win2	0.6851999999999999	0.0	Yes	2.92	0.03	n/a	GoodResponse	1	n/a	n/a	7	53	Cue	Win	True
503.98	4.05	Win2	0.6851999999999999	0.0	Yes	2.92	0.0	n/a	GoodResponse	1	n/a	n/a	7	53	Fixation	Win	True
508.026	0.38	Win2	0.6851999999999999	0.004	Yes	2.92	-0.004	2.0	GoodResponse	1	0.185	507.211	7	53	Target	Win	True
508.211	0.3	Win2	0.6851999999999999	0.004	Yes	2.92	-0.004	2.0	GoodResponse	1	0.185	n/a	7	53	ButtonPress	Win	True
508.41	0.32	Win2	0.6851999999999999	n/a	Yes	2.92	n/a	n/a	GoodResponse	1	n/a	n/a	7	53	Blank	Win	True
508.728	1.45	Win2	0.6851999999999999	n/a	Yes	2.92	n/a	5.0	GoodResponse	1	0.026	507.754	7	53	Feedback	Win	True
510.182	2.92	Win2	0.6851999999999999	n/a	Yes	2.92	n/a	n/a	GoodResponse	1	0.0	n/a	7	53	ISIslide	Win	True
513.124	0.25	Win2	0.6909000000000001	0.0	Yes	2.726	0.024	n/a	GoodResponse	1	n/a	n/a	8	54	Cue	Win	True
513.375	3.95	Win2	0.6909000000000001	0.0	Yes	2.726	0.001	n/a	GoodResponse	1	n/a	n/a	8	54	Fixation	Win	True
517.32	0.37	Win2	0.6909000000000001	0.004	Yes	2.726	-0.004	2.0	GoodResponse	1	0.296	516.616	8	54	Target	Win	True
517.616	0.3	Win2	0.6909000000000001	0.004	Yes	2.726	-0.004	2.0	GoodResponse	1	0.296	n/a	8	54	ButtonPress	Win	True
517.705	0.33	Win2	0.6909000000000001	n/a	Yes	2.726	n/a	n/a	GoodResponse	1	n/a	n/a	8	54	Blank	Win	True
518.022	1.45	Win2	0.6909000000000001	n/a	Yes	2.726	n/a	5.0	GoodResponse	1	0.001	517.023	8	54	Feedback	Win	True
519.477	2.726	Win2	0.6909000000000001	n/a	Yes	2.726	n/a	n/a	GoodResponse	1	0.0	n/a	8	54	ISIslide	Win	True
522.218	0.25	Control	0.6786	0.0	No	3.032	0.018	n/a	LatePress	0	n/a	n/a	8	55	Cue	Neutral	True
522.469	3.95	Control	0.6786	0.0	No	3.032	0.001	n/a	LatePress	0	n/a	n/a	8	55	Fixation	Neutral	True
526.414	0.36	Control	0.6786	0.004	No	3.032	-0.004	2.0	LatePress	0	0.362	525.776	8	55	Target	Neutral	True
526.776	0.3	Control	0.6786	0.004	No	3.032	-0.004	2.0	LatePress	0	0.362	n/a	8	55	ButtonPress	Neutral	True
526.782	0.34	Control	0.6786	n/a	No	3.032	n/a	n/a	LatePress	0	n/a	n/a	8	55	Blank	Neutral	True
527.116	1.45	Control	0.6786	n/a	No	3.032	n/a	5.0	LatePress	0	0.029	526.145	8	55	Feedback	Neutral	True
528.571	3.032	Control	0.6786	n/a	No	3.032	n/a	n/a	LatePress	0	0.0	n/a	8	55	ISIslide	Neutral	True
531.613	0.25	Control	0.6667000000000001	0.0	No	2.837	0.013	n/a	NoResponse	0	n/a	n/a	8	56	Cue	Neutral	False
531.864	3.95	Control	0.6667000000000001	0.0	No	2.837	0.001	n/a	NoResponse	0	n/a	n/a	8	56	Fixation	Neutral	False
535.809	0.35	Control	0.6667000000000001	0.004	No	2.837	-0.004	n/a	NoResponse	0	n/a	n/a	8	56	Target	Neutral	False
536.16	0.35	Control	0.6667000000000001	n/a	No	2.837	n/a	n/a	NoResponse	0	n/a	n/a	8	56	Blank	Neutral	False
536.511	1.45	Control	0.6667000000000001	n/a	No	2.837	n/a	5.0	NoResponse	0	0.049	535.56	8	56	Feedback	Neutral	False
537.966	2.837	Control	0.6667000000000001	n/a	No	2.837	n/a	n/a	NoResponse	0	0.0	n/a	8	56	ISIslide	Neutral	False
540.824	0.25	Control	0.6724	0.0	Yes	3.476	0.024	n/a	GoodResponse	0	n/a	n/a	8	57	Cue	Neutral	True
541.075	4.0	Control	0.6724	0.0	Yes	3.476	0.001	n/a	GoodResponse	0	n/a	n/a	8	57	Fixation	Neutral	True
545.07	0.34	Control	0.6724	0.004	Yes	3.476	-0.004	2.0	GoodResponse	0	0.264	544.334	8	57	Target	Neutral	True
545.334	0.3	Control	0.6724	0.004	Yes	3.476	-0.004	2.0	GoodResponse	0	0.264	n/a	8	57	ButtonPress	Neutral	True
545.421	0.36	Control	0.6724	n/a	Yes	3.476	n/a	n/a	GoodResponse	0	n/a	n/a	8	57	Blank	Neutral	True
545.772	1.45	Control	0.6724	n/a	Yes	3.476	n/a	5.0	GoodResponse	0	0.007	544.779	8	57	Feedback	Neutral	True
547.227	3.476	Control	0.6724	n/a	Yes	3.476	n/a	n/a	GoodResponse	0	0.0	n/a	8	57	ISIslide	Neutral	True
550.72	0.25	Win2	0.6779999999999999	0.001	Yes	2.73	0.02	n/a	GoodResponse	1	n/a	n/a	9	58	Cue	Win	True
550.971	4.05	Win2	0.6779999999999999	0.0	Yes	2.73	0.001	n/a	GoodResponse	1	n/a	n/a	9	58	Fixation	Win	True
555.017	0.33	Win2	0.6779999999999999	0.003	Yes	2.73	-0.003	2.0	GoodResponse	1	0.237	554.254	9	58	Target	Win	True
555.254	0.3	Win2	0.6779999999999999	0.003	Yes	2.73	-0.003	2.0	GoodResponse	1	0.237	n/a	9	58	ButtonPress	Win	True
555.351	0.37	Win2	0.6779999999999999	n/a	Yes	2.73	n/a	n/a	GoodResponse	1	n/a	n/a	9	58	Blank	Win	True
555.719	1.45	Win2	0.6779999999999999	n/a	Yes	2.73	n/a	5.0	GoodResponse	1	0.011	554.73	9	58	Feedback	Win	True
557.173	2.73	Win2	0.6779999999999999	n/a	Yes	2.73	n/a	n/a	GoodResponse	1	0.0	n/a	9	58	ISIslide	Win	True
559.915	0.25	Lose2	0.6667000000000001	0.0	No	2.685	0.015	n/a	NoResponse	-1	n/a	n/a	8	59	Cue	Loss	True
560.165	4.0	Lose2	0.6667000000000001	0.001	No	2.685	0.0	n/a	NoResponse	-1	n/a	n/a	8	59	Fixation	Loss	True
564.161	0.32	Lose2	0.6667000000000001	0.004	No	2.685	-0.004	2.0	NoResponse	-1	0.451	563.612	8	59	Target	Loss	True
564.495	0.38	Lose2	0.6667000000000001	n/a	No	2.685	n/a	n/a	NoResponse	-1	n/a	n/a	8	59	Blank	Loss	True
564.612	0.3	Lose2	0.6667000000000001	0.004	No	2.685	-0.004	2.0	NoResponse	-1	0.451	n/a	8	59	ButtonPress	Loss	True
564.863	1.45	Lose2	0.6667000000000001	n/a	No	2.685	n/a	5.0	NoResponse	-1	0.037	563.9	8	59	Feedback	Loss	True
566.317	2.685	Lose2	0.6667000000000001	n/a	No	2.685	n/a	n/a	NoResponse	-1	0.0	n/a	8	59	ISIslide	Loss	True
569.025	0.25	Control	0.6557	0.0	No	2.675	0.025	n/a	NoResponse	0	n/a	n/a	8	60	Cue	Neutral	True
569.276	4.0	Control	0.6557	0.0	No	2.675	0.001	n/a	NoResponse	0	n/a	n/a	8	60	Fixation	Neutral	True
573.271	0.31	Control	0.6557	0.004	No	2.675	-0.004	2.0	NoResponse	0	0.362	572.633	8	60	Target	Neutral	True
573.589	0.39	Control	0.6557	n/a	No	2.675	n/a	n/a	NoResponse	0	n/a	n/a	8	60	Blank	Neutral	True
573.633	0.3	Control	0.6557	0.004	No	2.675	-0.004	2.0	NoResponse	0	0.362	n/a	8	60	ButtonPress	Neutral	True
573.974	1.45	Control	0.6557	n/a	No	2.675	n/a	5.0	NoResponse	0	0.0	572.974	8	60	Feedback	Neutral	True
575.428	2.675	Control	0.6557	n/a	No	2.675	n/a	n/a	NoResponse	0	0.0	n/a	8	60	ISIslide	Neutral	True
578.119	0.25	Lose2	0.6613	0.0	Yes	2.981	0.019	n/a	GoodResponse	0	n/a	n/a	8	61	Cue	AvoidedLoss	True
578.37	4.0	Lose2	0.6613	0.0	Yes	2.981	0.001	n/a	GoodResponse	0	n/a	n/a	8	61	Fixation	AvoidedLoss	True
582.365	0.31	Lose2	0.6613	0.004	Yes	2.981	-0.004	2.0	GoodResponse	0	0.232	581.597	8	61	Target	AvoidedLoss	True
582.597	0.3	Lose2	0.6613	0.004	Yes	2.981	-0.004	2.0	GoodResponse	0	0.232	n/a	8	61	ButtonPress	AvoidedLoss	True
582.683	0.39	Lose2	0.6613	n/a	Yes	2.981	n/a	n/a	GoodResponse	0	n/a	n/a	8	61	Blank	AvoidedLoss	True
583.068	1.45	Lose2	0.6613	n/a	Yes	2.981	n/a	5.0	GoodResponse	0	0.028	582.096	8	61	Feedback	AvoidedLoss	True
584.522	2.981	Lose2	0.6613	n/a	Yes	2.981	n/a	n/a	GoodResponse	0	0.0	n/a	8	61	ISIslide	AvoidedLoss	True
587.514	0.25	Lose2	0.6507999999999999	0.0	No	2.886	0.014	n/a	NoResponse	-1	n/a	n/a	7	62	Cue	Loss	False
587.765	3.9	Lose2	0.6507999999999999	0.0	No	2.886	0.001	n/a	NoResponse	-1	n/a	n/a	7	62	Fixation	Loss	False
591.66	0.31	Lose2	0.6507999999999999	0.004	No	2.886	-0.004	n/a	NoResponse	-1	n/a	n/a	7	62	Target	Loss	False
591.978	0.39	Lose2	0.6507999999999999	n/a	No	2.886	n/a	n/a	NoResponse	-1	n/a	n/a	7	62	Blank	Loss	False
592.362	1.45	Lose2	0.6507999999999999	n/a	No	2.886	n/a	5.0	NoResponse	-1	0.002	591.364	7	62	Feedback	Loss	False
593.816	2.886	Lose2	0.6507999999999999	n/a	No	2.886	n/a	n/a	NoResponse	-1	0.0	n/a	7	62	ISIslide	Loss	False
596.725	0.25	Lose2	0.6562	0.0	Yes	2.625	0.025	n/a	GoodResponse	0	n/a	n/a	7	63	Cue	AvoidedLoss	True
596.976	4.05	Lose2	0.6562	0.0	Yes	2.625	0.001	n/a	GoodResponse	0	n/a	n/a	7	63	Fixation	AvoidedLoss	True
601.021	0.32	Lose2	0.6562	0.004	Yes	2.625	-0.004	2.0	GoodResponse	0	0.205	600.226	7	63	Target	AvoidedLoss	True
601.226	0.3	Lose2	0.6562	0.004	Yes	2.625	-0.004	2.0	GoodResponse	0	0.205	n/a	7	63	ButtonPress	AvoidedLoss	True
601.356	0.38	Lose2	0.6562	n/a	Yes	2.625	n/a	n/a	GoodResponse	0	n/a	n/a	7	63	Blank	AvoidedLoss	True
601.723	1.45	Lose2	0.6562	n/a	Yes	2.625	n/a	5.0	GoodResponse	0	0.007	600.73	7	63	Feedback	AvoidedLoss	True
603.178	2.625	Lose2	0.6562	n/a	Yes	2.625	n/a	n/a	GoodResponse	0	0.0	n/a	7	63	ISIslide	AvoidedLoss	True
605.819	0.25	Win2	0.6615000000000001	0.0	Yes	3.131	0.019	n/a	GoodResponse	1	n/a	n/a	8	64	Cue	Win	False
606.07	4.15	Win2	0.6615000000000001	0.0	Yes	3.131	0.001	2.0	GoodResponse	1	0.24	605.31	8	64	Fixation	Win	False
606.31	0.3	Win2	0.6615000000000001	0.0	Yes	3.131	0.001	2.0	GoodResponse	1	0.24	n/a	8	64	ButtonPress	Win	False
610.216	0.32	Win2	0.6615000000000001	0.003	Yes	3.131	-0.003	2.0	GoodResponse	1	0.223	609.439	8	64	Target	Win	False
610.439	0.3	Win2	0.6615000000000001	0.003	Yes	3.131	-0.003	2.0	GoodResponse	1	0.223	n/a	8	64	ButtonPress	Win	False
610.55	0.38	Win2	0.6615000000000001	n/a	Yes	3.131	n/a	n/a	GoodResponse	1	n/a	n/a	8	64	Blank	Win	False
610.918	1.45	Win2	0.6615000000000001	n/a	Yes	3.131	n/a	5.0	GoodResponse	1	0.032	609.95	8	64	Feedback	Win	False
612.372	3.131	Win2	0.6615000000000001	n/a	Yes	3.131	n/a	n/a	GoodResponse	1	0.0	n/a	8	64	ISIslide	Win	False
615.515	0.25	Control	0.6515000000000001	0.0	No	2.785	0.015	n/a	LatePress	0	n/a	n/a	8	65	Cue	Neutral	True
615.766	4.0	Control	0.6515000000000001	0.0	No	2.785	0.001	n/a	LatePress	0	n/a	n/a	8	65	Fixation	Neutral	True
619.761	0.32	Control	0.6515000000000001	0.004	No	2.785	-0.004	2.0	LatePress	0	0.327	619.088	8	65	Target	Neutral	True
620.088	0.3	Control	0.6515000000000001	0.004	No	2.785	-0.004	2.0	LatePress	0	0.327	n/a	8	65	ButtonPress	Neutral	True
620.095	0.38	Control	0.6515000000000001	n/a	No	2.785	n/a	n/a	LatePress	0	n/a	n/a	8	65	Blank	Neutral	True
620.463	1.45	Control	0.6515000000000001	n/a	No	2.785	n/a	5.0	LatePress	0	0.048	619.511	8	65	Feedback	Neutral	True
621.917	2.785	Control	0.6515000000000001	n/a	No	2.785	n/a	n/a	LatePress	0	0.0	n/a	8	65	ISIslide	Neutral	True
624.726	0.25	Win2	0.6567000000000001	0.0	Yes	2.774	0.026	n/a	GoodResponse	1	n/a	n/a	9	66	Cue	Win	False
624.977	3.9	Win2	0.6567000000000001	0.0	Yes	2.774	0.001	2.0	GoodResponse	1	3.693	627.67	9	66	Fixation	Win	False
628.67	0.3	Win2	0.6567000000000001	0.0	Yes	2.774	0.001	2.0	GoodResponse	1	3.693	n/a	9	66	ButtonPress	Win	False
628.872	0.33	Win2	0.6567000000000001	0.004	Yes	2.774	-0.004	2.0	GoodResponse	1	0.224	628.096	9	66	Target	Win	False
629.096	0.3	Win2	0.6567000000000001	0.004	Yes	2.774	-0.004	2.0	GoodResponse	1	0.224	n/a	9	66	ButtonPress	Win	False
629.206	0.37	Win2	0.6567000000000001	n/a	Yes	2.774	n/a	n/a	GoodResponse	1	n/a	n/a	9	66	Blank	Win	False
629.574	1.45	Win2	0.6567000000000001	n/a	Yes	2.774	n/a	5.0	GoodResponse	1	0.009	628.583	9	66	Feedback	Win	False
631.028	2.774	Win2	0.6567000000000001	n/a	Yes	2.774	n/a	n/a	GoodResponse	1	0.0	n/a	9	66	ISIslide	Win	False
633.82	0.25	Control	0.6470999999999999	0.0	No	2.73	0.02	n/a	NoResponse	0	n/a	n/a	9	67	Cue	Neutral	False
634.071	3.95	Control	0.6470999999999999	0.0	No	2.73	0.001	n/a	NoResponse	0	n/a	n/a	9	67	Fixation	Neutral	False
638.016	0.33	Control	0.6470999999999999	0.004	No	2.73	-0.004	n/a	NoResponse	0	n/a	n/a	9	67	Target	Neutral	False
638.35	0.37	Control	0.6470999999999999	n/a	No	2.73	n/a	n/a	NoResponse	0	n/a	n/a	9	67	Blank	Neutral	False
638.718	1.45	Control	0.6470999999999999	n/a	No	2.73	n/a	5.0	NoResponse	0	0.036	637.754	9	67	Feedback	Neutral	False
640.172	2.73	Control	0.6470999999999999	n/a	No	2.73	n/a	n/a	NoResponse	0	0.0	n/a	9	67	ISIslide	Neutral	False
642.914	0.25	Win2	0.6522	0.0	Yes	3.086	0.014	n/a	GoodResponse	1	n/a	n/a	10	68	Cue	Win	True
643.164	4.0	Win2	0.6522	0.001	Yes	3.086	0.0	n/a	GoodResponse	1	n/a	n/a	10	68	Fixation	Win	True
647.16	0.34	Win2	0.6522	0.004	Yes	3.086	-0.004	2.0	GoodResponse	1	0.224	646.384	10	68	Target	Win	True
647.384	0.3	Win2	0.6522	0.004	Yes	3.086	-0.004	2.0	GoodResponse	1	0.224	n/a	10	68	ButtonPress	Win	True
647.511	0.36	Win2	0.6522	n/a	Yes	3.086	n/a	n/a	GoodResponse	1	n/a	n/a	10	68	Blank	Win	True
647.862	1.45	Win2	0.6522	n/a	Yes	3.086	n/a	5.0	GoodResponse	1	0.014	646.876	10	68	Feedback	Win	True
649.316	3.086	Win2	0.6522	n/a	Yes	3.086	n/a	n/a	GoodResponse	1	0.0	n/a	10	68	ISIslide	Win	True
652.426	0.25	Win2	0.6570999999999999	0.0	Yes	3.224	0.026	n/a	GoodResponse	1	n/a	n/a	11	69	Cue	Win	True
652.676	3.95	Win2	0.6570999999999999	0.0	Yes	3.224	0.0	n/a	GoodResponse	1	n/a	n/a	11	69	Fixation	Win	True
656.622	0.35	Win2	0.6570999999999999	0.004	Yes	3.224	-0.004	2.0	GoodResponse	1	0.287	655.909	11	69	Target	Win	True
656.909	0.3	Win2	0.6570999999999999	0.004	Yes	3.224	-0.004	2.0	GoodResponse	1	0.287	n/a	11	69	ButtonPress	Win	True
656.973	0.35	Win2	0.6570999999999999	n/a	Yes	3.224	n/a	n/a	GoodResponse	1	n/a	n/a	11	69	Blank	Win	True
657.324	1.45	Win2	0.6570999999999999	n/a	Yes	3.224	n/a	5.0	GoodResponse	1	0.015	656.339	11	69	Feedback	Win	True
658.778	3.224	Win2	0.6570999999999999	n/a	Yes	3.224	n/a	n/a	GoodResponse	1	0.0	n/a	11	69	ISIslide	Win	True
662.021	0.25	Lose2	0.662	0.0	Yes	3.029	0.021	n/a	GoodResponse	0	n/a	n/a	11	70	Cue	AvoidedLoss	True
662.272	4.05	Lose2	0.662	0.0	Yes	3.029	0.001	n/a	GoodResponse	0	n/a	n/a	11	70	Fixation	AvoidedLoss	True
666.317	0.35	Lose2	0.662	0.004	Yes	3.029	-0.004	2.0	GoodResponse	0	0.194	665.511	11	70	Target	AvoidedLoss	True
666.511	0.3	Lose2	0.662	0.004	Yes	3.029	-0.004	2.0	GoodResponse	0	0.194	n/a	11	70	ButtonPress	AvoidedLoss	True
666.668	0.35	Lose2	0.662	n/a	Yes	3.029	n/a	n/a	GoodResponse	0	n/a	n/a	11	70	Blank	AvoidedLoss	True
667.019	1.45	Lose2	0.662	n/a	Yes	3.029	n/a	5.0	GoodResponse	0	0.028	666.047	11	70	Feedback	AvoidedLoss	True
668.474	3.029	Lose2	0.662	n/a	Yes	3.029	n/a	n/a	GoodResponse	0	0.0	n/a	11	70	ISIslide	AvoidedLoss	True
671.516	0.25	Win2	0.6667000000000001	0.0	Yes	2.734	0.016	n/a	GoodResponse	1	n/a	n/a	12	71	Cue	Win	True
671.767	4.05	Win2	0.6667000000000001	0.0	Yes	2.734	0.001	n/a	GoodResponse	1	n/a	n/a	12	71	Fixation	Win	True
675.812	0.35	Win2	0.6667000000000001	0.004	Yes	2.734	-0.004	2.0	GoodResponse	1	0.229	675.041	12	71	Target	Win	True
676.041	0.3	Win2	0.6667000000000001	0.004	Yes	2.734	-0.004	2.0	GoodResponse	1	0.229	n/a	12	71	ButtonPress	Win	True
676.163	0.35	Win2	0.6667000000000001	n/a	Yes	2.734	n/a	n/a	GoodResponse	1	n/a	n/a	12	71	Blank	Win	True
676.515	1.45	Win2	0.6667000000000001	n/a	Yes	2.734	n/a	5.0	GoodResponse	1	0.044	675.559	12	71	Feedback	Win	True
677.969	2.734	Win2	0.6667000000000001	n/a	Yes	2.734	n/a	n/a	GoodResponse	1	0.0	n/a	12	71	ISIslide	Win	True
680.727	0.25	Win2	0.6712	0.0	Yes	2.773	0.027	n/a	GoodResponse	1	n/a	n/a	13	72	Cue	Win	True
680.978	4.1	Win2	0.6712	0.0	Yes	2.773	0.001	n/a	GoodResponse	1	n/a	n/a	13	72	Fixation	Win	True
685.074	0.34	Win2	0.6712	0.003	Yes	2.773	-0.003	2.0	GoodResponse	1	0.211	684.285	13	72	Target	Win	True
685.285	0.3	Win2	0.6712	0.003	Yes	2.773	-0.003	2.0	GoodResponse	1	0.211	n/a	13	72	ButtonPress	Win	True
685.425	0.36	Win2	0.6712	n/a	Yes	2.773	n/a	n/a	GoodResponse	1	n/a	n/a	13	72	Blank	Win	True
685.776	1.45	Win2	0.6712	n/a	Yes	2.773	n/a	5.0	GoodResponse	1	0.003	684.779	13	72	Feedback	Win	True
687.23	2.773	Win2	0.6712	n/a	Yes	2.773	n/a	n/a	GoodResponse	1	0.0	n/a	13	72	ISIslide	Win	True
690.022	0.25	Win2	0.6757	0.0	Yes	2.678	0.022	n/a	GoodResponse	1	n/a	n/a	14	73	Cue	Win	True
690.272	4.0	Win2	0.6757	0.001	Yes	2.678	0.0	n/a	GoodResponse	1	n/a	n/a	14	73	Fixation	Win	True
694.268	0.33	Win2	0.6757	0.004	Yes	2.678	-0.004	2.0	GoodResponse	1	0.207	693.475	14	73	Target	Win	True
694.475	0.3	Win2	0.6757	0.004	Yes	2.678	-0.004	2.0	GoodResponse	1	0.207	n/a	14	73	ButtonPress	Win	True
694.602	0.37	Win2	0.6757	n/a	Yes	2.678	n/a	n/a	GoodResponse	1	n/a	n/a	14	73	Blank	Win	True
694.97	1.45	Win2	0.6757	n/a	Yes	2.678	n/a	5.0	GoodResponse	1	0.028	693.998	14	73	Feedback	Win	True
696.424	2.678	Win2	0.6757	n/a	Yes	2.678	n/a	n/a	GoodResponse	1	0.0	n/a	14	73	ISIslide	Win	True
699.116	0.25	Lose2	0.6667000000000001	0.0	No	2.634	0.016	n/a	NoResponse	-1	n/a	n/a	13	74	Cue	Loss	True
699.366	4.05	Lose2	0.6667000000000001	0.0	No	2.634	0.0	n/a	NoResponse	-1	n/a	n/a	13	74	Fixation	Loss	True
703.412	0.32	Lose2	0.6667000000000001	0.004	No	2.634	-0.004	2.0	NoResponse	-1	0.354	702.766	13	74	Target	Loss	True
703.746	0.38	Lose2	0.6667000000000001	n/a	No	2.634	n/a	n/a	NoResponse	-1	n/a	n/a	13	74	Blank	Loss	True
703.766	0.3	Lose2	0.6667000000000001	0.004	No	2.634	-0.004	2.0	NoResponse	-1	0.354	n/a	13	74	ButtonPress	Loss	True
704.114	1.45	Lose2	0.6667000000000001	n/a	No	2.634	n/a	5.0	NoResponse	-1	0.005	703.119	13	74	Feedback	Loss	True
705.568	2.634	Lose2	0.6667000000000001	n/a	No	2.634	n/a	n/a	NoResponse	-1	0.0	n/a	13	74	ISIslide	Loss	True
708.226	0.25	Lose2	0.6711	0.0	Yes	2.924	0.026	n/a	GoodResponse	0	n/a	n/a	13	75	Cue	AvoidedLoss	True
708.477	3.95	Lose2	0.6711	0.0	Yes	2.924	0.001	n/a	GoodResponse	0	n/a	n/a	13	75	Fixation	AvoidedLoss	True
712.422	0.31	Lose2	0.6711	0.004	Yes	2.924	-0.004	2.0	GoodResponse	0	0.189	711.611	13	75	Target	AvoidedLoss	True
712.611	0.3	Lose2	0.6711	0.004	Yes	2.924	-0.004	2.0	GoodResponse	0	0.189	n/a	13	75	ButtonPress	AvoidedLoss	True
712.74	0.39	Lose2	0.6711	n/a	Yes	2.924	n/a	n/a	GoodResponse	0	n/a	n/a	13	75	Blank	AvoidedLoss	True
713.124	1.45	Lose2	0.6711	n/a	Yes	2.924	n/a	5.0	GoodResponse	0	0.02	712.144	13	75	Feedback	AvoidedLoss	True
714.579	2.924	Lose2	0.6711	n/a	Yes	2.924	n/a	n/a	GoodResponse	0	0.0	n/a	13	75	ISIslide	AvoidedLoss	True
717.521	0.25	Control	0.6753	0.0	Yes	3.229	0.021	n/a	GoodResponse	0	n/a	n/a	13	76	Cue	Neutral	True
717.772	4.05	Control	0.6753	0.0	Yes	3.229	0.001	n/a	GoodResponse	0	n/a	n/a	13	76	Fixation	Neutral	True
721.817	0.3	Control	0.6753	0.004	Yes	3.229	-0.004	2.0	GoodResponse	0	0.284	721.101	13	76	Target	Neutral	True
722.101	0.3	Control	0.6753	0.004	Yes	3.229	-0.004	2.0	GoodResponse	0	0.284	n/a	13	76	ButtonPress	Neutral	True
722.118	0.4	Control	0.6753	n/a	Yes	3.229	n/a	n/a	GoodResponse	0	n/a	n/a	13	76	Blank	Neutral	True
722.519	1.45	Control	0.6753	n/a	Yes	3.229	n/a	5.0	GoodResponse	0	0.04	721.559	13	76	Feedback	Neutral	True
723.974	3.229	Control	0.6753	n/a	Yes	3.229	n/a	n/a	GoodResponse	0	0.0	n/a	13	76	ISIslide	Neutral	True
727.217	0.25	Lose2	0.6795	0.0	Yes	2.583	0.017	n/a	GoodResponse	0	n/a	n/a	13	77	Cue	AvoidedLoss	True
727.467	3.95	Lose2	0.6795	0.0	Yes	2.583	0.0	n/a	GoodResponse	0	n/a	n/a	13	77	Fixation	AvoidedLoss	True
731.413	0.29	Lose2	0.6795	0.004	Yes	2.583	-0.004	2.0	GoodResponse	0	0.238	730.651	13	77	Target	AvoidedLoss	True
731.651	0.3	Lose2	0.6795	0.004	Yes	2.583	-0.004	2.0	GoodResponse	0	0.238	n/a	13	77	ButtonPress	AvoidedLoss	True
731.713	0.41	Lose2	0.6795	n/a	Yes	2.583	n/a	n/a	GoodResponse	0	n/a	n/a	13	77	Blank	AvoidedLoss	True
732.115	1.45	Lose2	0.6795	n/a	Yes	2.583	n/a	5.0	GoodResponse	0	0.005	731.12	13	77	Feedback	AvoidedLoss	True
733.569	2.583	Lose2	0.6795	n/a	Yes	2.583	n/a	n/a	GoodResponse	0	0.0	n/a	13	77	ISIslide	AvoidedLoss	True
