onset	duration	cue_type	current_mean_accuracy	duration_error	is_hit	isi_adjusted	onset_delay	response	response_type	reward	rt	rt_time	total_reward	trial_number	trial_phase	trial_type	one_press
11.101	0.25	Control	1.0	0.0	Yes	2.949	0.001	n/a	GoodResponse	0	n/a	n/a	0	0	Cue	Neutral	True
11.351	3.85	Control	1.0	0.0	Yes	2.949	0.0	n/a	GoodResponse	0	n/a	n/a	0	0	Fixation	Neutral	True
15.199	0.4	Control	1.0	0.002	Yes	2.949	-0.002	2.0	GoodResponse	0	0.181	14.38	0	0	Target	Neutral	True
15.38	0.3	Control	1.0	0.002	Yes	2.949	-0.002	2.0	GoodResponse	0	0.181	n/a	0	0	ButtonPress	Neutral	True
15.599	0.3	Control	1.0	n/a	Yes	2.949	n/a	n/a	GoodResponse	0	n/a	n/a	0	0	Blank	Neutral	True
15.899	1.45	Control	1.0	n/a	Yes	2.949	n/a	5.0	GoodResponse	0	0.028	14.927	0	0	Feedback	Neutral	True
17.348	2.949	Control	1.0	n/a	Yes	2.949	n/a	n/a	GoodResponse	0	0.0	n/a	0	0	ISIslide	Neutral	True
20.314	0.25	Lose2	1.0	0.0	Yes	2.786	0.014	n/a	GoodResponse	0	n/a	n/a	0	1	Cue	AvoidedLoss	True
20.564	4.0	Lose2	1.0	0.0	Yes	2.786	0.0	n/a	GoodResponse	0	n/a	n/a	0	1	Fixation	AvoidedLoss	True
24.563	0.39	Lose2	1.0	0.001	Yes	2.786	-0.001	2.0	GoodResponse	0	0.174	23.737	0	1	Target	AvoidedLoss	True
24.737	0.3	Lose2	1.0	0.001	Yes	2.786	-0.001	2.0	GoodResponse	0	0.174	n/a	0	1	ButtonPress	AvoidedLoss	True
24.963	0.31	Lose2	1.0	n/a	Yes	2.786	n/a	n/a	GoodResponse	0	n/a	n/a	0	1	Blank	AvoidedLoss	True
25.262	1.45	Lose2	1.0	n/a	Yes	2.786	n/a	5.0	GoodResponse	0	0.03	24.292	0	1	Feedback	AvoidedLoss	True
26.712	2.786	Lose2	1.0	n/a	Yes	2.786	n/a	n/a	GoodResponse	0	0.0	n/a	0	1	ISIslide	AvoidedLoss	True
29.528	0.25	Control	0.6667000000000001	0.0	No	2.572	0.028	n/a	PrematurePress	0	n/a	n/a	0	2	Cue	Neutral	True
29.777	4.1	Control	0.6667000000000001	0.001	No	2.572	-0.001	n/a	PrematurePress	0	n/a	n/a	0	2	Fixation	Neutral	True
33.876	0.38	Control	0.6667000000000001	0.002	No	2.572	-0.002	2.0	PrematurePress	0	0.008	32.884	0	2	Target	Neutral	True
33.884	0.3	Control	0.6667000000000001	0.002	No	2.572	-0.002	2.0	PrematurePress	0	0.008	n/a	0	2	ButtonPress	Neutral	True
34.259	0.32	Control	0.6667000000000001	n/a	No	2.572	n/a	n/a	PrematurePress	0	n/a	n/a	0	2	Blank	Neutral	True
34.576	1.45	Control	0.6667000000000001	n/a	No	2.572	n/a	5.0	PrematurePress	0	0.033	33.609	0	2	Feedback	Neutral	True
36.025	2.572	Control	0.6667000000000001	n/a	No	2.572	n/a	n/a	PrematurePress	0	0.0	n/a	0	2	ISIslide	Neutral	True
38.624	0.25	Win2	0.75	0.0	Yes	2.826	0.024	n/a	GoodResponse	1	n/a	n/a	1	3	Cue	Win	False
38.874	3.95	Win2	0.75	0.0	Yes	2.826	0.0	2.0	GoodResponse	1	3.942	41.816	1	3	Fixation	Win	False
42.816	0.3	Win2	0.75	0.0	Yes	2.826	0.0	2.0	GoodResponse	1	3.942	n/a	1	3	ButtonPress	Win	False
42.823	0.37	Win2	0.75	0.001	Yes	2.826	-0.001	2.0	GoodResponse	1	0.171	41.994	1	3	Target	Win	False
42.994	0.3	Win2	0.75	0.001	Yes	2.826	-0.001	2.0	GoodResponse	1	0.171	n/a	1	3	ButtonPress	Win	False
43.189	0.33	Win2	0.75	n/a	Yes	2.826	n/a	n/a	GoodResponse	1	n/a	n/a	1	3	Blank	Win	False
43.523	1.45	Win2	0.75	n/a	Yes	2.826	n/a	5.0	GoodResponse	1	0.013	42.536	1	3	Feedback	Win	False
44.972	2.826	Win2	0.75	n/a	Yes	2.826	n/a	n/a	GoodResponse	1	0.0	n/a	1	3	ISIslide	Win	False
47.821	0.25	Win2	0.8	0.0	Yes	3.279	0.021	n/a	GoodResponse	1	n/a	n/a	2	4	Cue	Win	True
48.071	4.0	Win2	0.8	0.0	Yes	3.279	0.0	n/a	GoodResponse	1	n/a	n/a	2	4	Fixation	Win	True
52.07	0.36	Win2	0.8	0.001	Yes	3.279	-0.001	2.0	GoodResponse	1	0.178	51.248	2	4	Target	Win	True
52.248	0.3	Win2	0.8	0.001	Yes	3.279	-0.001	2.0	GoodResponse	1	0.178	n/a	2	4	ButtonPress	Win	True
52.436	0.34	Win2	0.8	n/a	Yes	3.279	n/a	n/a	GoodResponse	1	n/a	n/a	2	4	Blank	Win	True
52.769	1.45	Win2	0.8	n/a	Yes	3.279	n/a	5.0	GoodResponse	1	0.035	51.804	2	4	Feedback	Win	True
54.219	3.279	Win2	0.8	n/a	Yes	3.279	n/a	n/a	GoodResponse	1	0.0	n/a	2	4	ISIslide	Win	True
57.518	0.25	Win2	0.8332999999999999	0.0	Yes	2.782	0.018	n/a	GoodResponse	1	n/a	n/a	3	5	Cue	Win	True
57.768	4.0	Win2	0.8332999999999999	0.0	Yes	2.782	0.0	n/a	GoodResponse	1	n/a	n/a	3	5	Fixation	Win	True
61.766	0.35	Win2	0.8332999999999999	0.002	Yes	2.782	-0.002	2.0	GoodResponse	1	0.188	60.954	3	5	Target	Win	True
61.954	0.3	Win2	0.8332999999999999	0.002	Yes	2.782	-0.002	2.0	GoodResponse	1	0.188	n/a	3	5	ButtonPress	Win	True
62.116	0.35	Win2	0.8332999999999999	n/a	Yes	2.782	n/a	n/a	GoodResponse	1	n/a	n/a	3	5	Blank	Win	True
62.466	1.45	Win2	0.8332999999999999	n/a	Yes	2.782	n/a	5.0	GoodResponse	1	0.046	61.512	3	5	Feedback	Win	True
63.916	2.782	Win2	0.8332999999999999	n/a	Yes	2.782	n/a	n/a	GoodResponse	1	0.0	n/a	3	5	ISIslide	Win	True
66.715	0.25	Lose2	0.8571	0.0	Yes	2.735	0.015	n/a	GoodResponse	0	n/a	n/a	3	6	Cue	AvoidedLoss	False
66.965	3.95	Lose2	0.8571	0.0	Yes	2.735	0.0	2.0	GoodResponse	0	3.668	69.633	3	6	Fixation	AvoidedLoss	False
70.633	0.3	Lose2	0.8571	0.0	Yes	2.735	0.0	2.0	GoodResponse	0	3.668	n/a	3	6	ButtonPress	AvoidedLoss	False
70.913	0.34	Lose2	0.8571	0.002	Yes	2.735	-0.002	2.0	GoodResponse	0	0.181	70.094	3	6	Target	AvoidedLoss	False
71.094	0.3	Lose2	0.8571	0.002	Yes	2.735	-0.002	2.0	GoodResponse	0	0.181	n/a	3	6	ButtonPress	AvoidedLoss	False
71.263	0.36	Lose2	0.8571	n/a	Yes	2.735	n/a	n/a	GoodResponse	0	n/a	n/a	3	6	Blank	AvoidedLoss	False
71.613	1.45	Lose2	0.8571	n/a	Yes	2.735	n/a	5.0	GoodResponse	0	0.02	70.633	3	6	Feedback	AvoidedLoss	False
73.062	2.735	Lose2	0.8571	n/a	Yes	2.735	n/a	n/a	GoodResponse	0	0.0	n/a	3	6	ISIslide	AvoidedLoss	False
75.828	0.25	Lose2	0.875	0.0	Yes	4.022	0.028	n/a	GoodResponse	0	n/a	n/a	3	7	Cue	AvoidedLoss	True
76.078	4.05	Lose2	0.875	0.0	Yes	4.022	0.0	n/a	GoodResponse	0	n/a	n/a	3	7	Fixation	AvoidedLoss	True
80.127	0.33	Lose2	0.875	0.001	Yes	4.022	-0.001	2.0	GoodResponse	0	0.193	79.32	3	7	Target	AvoidedLoss	True
80.32	0.3	Lose2	0.875	0.001	Yes	4.022	-0.001	2.0	GoodResponse	0	0.193	n/a	3	7	ButtonPress	AvoidedLoss	True
80.46	0.37	Lose2	0.875	n/a	Yes	4.022	n/a	n/a	GoodResponse	0	n/a	n/a	3	7	Blank	AvoidedLoss	True
80.826	1.45	Lose2	0.875	n/a	Yes	4.022	n/a	5.0	GoodResponse	0	0.026	79.852	3	7	Feedback	AvoidedLoss	True
82.276	4.022	Lose2	0.875	n/a	Yes	4.022	n/a	n/a	GoodResponse	0	0.0	n/a	3	7	ISIslide	AvoidedLoss	True
86.324	0.25	Lose2	0.8889	0.001	Yes	3.026	0.024	n/a	GoodResponse	0	n/a	n/a	3	8	Cue	AvoidedLoss	True
86.574	3.95	Lose2	0.8889	0.0	Yes	3.026	0.0	n/a	GoodResponse	0	n/a	n/a	3	8	Fixation	AvoidedLoss	True
90.523	0.32	Lose2	0.8889	0.001	Yes	3.026	-0.001	2.0	GoodResponse	0	0.192	89.715	3	8	Target	AvoidedLoss	True
90.715	0.3	Lose2	0.8889	0.001	Yes	3.026	-0.001	2.0	GoodResponse	0	0.192	n/a	3	8	ButtonPress	AvoidedLoss	True
90.84	0.38	Lose2	0.8889	n/a	Yes	3.026	n/a	n/a	GoodResponse	0	n/a	n/a	3	8	Blank	AvoidedLoss	True
91.223	1.45	Lose2	0.8889	n/a	Yes	3.026	n/a	5.0	GoodResponse	0	0.02	90.243	3	8	Feedback	AvoidedLoss	True
92.672	3.026	Lose2	0.8889	n/a	Yes	3.026	n/a	n/a	GoodResponse	0	0.0	n/a	3	8	ISIslide	AvoidedLoss	True
95.721	0.25	Lose2	0.9	0.0	Yes	3.129	0.021	n/a	GoodResponse	0	n/a	n/a	3	9	Cue	AvoidedLoss	True
95.971	3.95	Lose2	0.9	0.0	Yes	3.129	0.0	n/a	GoodResponse	0	n/a	n/a	3	9	Fixation	AvoidedLoss	True
99.92	0.31	Lose2	0.9	0.001	Yes	3.129	-0.001	2.0	GoodResponse	0	0.192	99.112	3	9	Target	AvoidedLoss	True
100.112	0.3	Lose2	0.9	0.001	Yes	3.129	-0.001	2.0	GoodResponse	0	0.192	n/a	3	9	ButtonPress	AvoidedLoss	True
100.236	0.39	Lose2	0.9	n/a	Yes	3.129	n/a	n/a	GoodResponse	0	n/a	n/a	3	9	Blank	AvoidedLoss	True
100.619	1.45	Lose2	0.9	n/a	Yes	3.129	n/a	5.0	GoodResponse	0	0.038	99.657	3	9	Feedback	AvoidedLoss	True
102.069	3.129	Lose2	0.9	n/a	Yes	3.129	n/a	n/a	GoodResponse	0	0.0	n/a	3	9	ISIslide	AvoidedLoss	True
105.218	0.25	Control	0.9091	0.0	Yes	3.282	0.018	n/a	GoodResponse	0	n/a	n/a	3	10	Cue	Neutral	True
105.468	4.0	Control	0.9091	0.0	Yes	3.282	0.0	n/a	GoodResponse	0	n/a	n/a	3	10	Fixation	Neutral	True
109.466	0.3	Control	0.9091	0.002	Yes	3.282	-0.002	2.0	GoodResponse	0	0.205	108.671	3	10	Target	Neutral	True
109.671	0.3	Control	0.9091	0.002	Yes	3.282	-0.002	2.0	GoodResponse	0	0.205	n/a	3	10	ButtonPress	Neutral	True
109.766	0.4	Control	0.9091	n/a	Yes	3.282	n/a	n/a	GoodResponse	0	n/a	n/a	3	10	Blank	Neutral	True
110.166	1.45	Control	0.9091	n/a	Yes	3.282	n/a	5.0	GoodResponse	0	0.007	109.173	3	10	Feedback	Neutral	True
111.616	3.282	Control	0.9091	n/a	Yes	3.282	n/a	n/a	GoodResponse	0	0.0	n/a	3	10	ISIslide	Neutral	True
114.914	0.25	Lose2	0.9167000000000001	0.001	Yes	2.736	0.014	n/a	GoodResponse	0	n/a	n/a	3	11	Cue	AvoidedLoss	True
115.164	4.05	Lose2	0.9167000000000001	0.0	Yes	2.736	0.0	n/a	GoodResponse	0	n/a	n/a	3	11	Fixation	AvoidedLoss	True
119.213	0.29	Lose2	0.9167000000000001	0.001	Yes	2.736	-0.001	2.0	GoodResponse	0	0.179	118.392	3	11	Target	AvoidedLoss	True
119.392	0.3	Lose2	0.9167000000000001	0.001	Yes	2.736	-0.001	2.0	GoodResponse	0	0.179	n/a	3	11	ButtonPress	AvoidedLoss	True
119.513	0.41	Lose2	0.9167000000000001	n/a	Yes	2.736	n/a	n/a	GoodResponse	0	n/a	n/a	3	11	Blank	AvoidedLoss	True
119.913	1.45	Lose2	0.9167000000000001	n/a	Yes	2.736	n/a	5.0	GoodResponse	0	0.013	118.926	3	11	Feedback	AvoidedLoss	True
121.362	2.736	Lose2	0.9167000000000001	n/a	Yes	2.736	n/a	n/a	GoodResponse	0	0.0	n/a	3	11	ISIslide	AvoidedLoss	True
124.128	0.25	Control	0.9231	0.0	Yes	2.972	0.028	n/a	GoodResponse	0	n/a	n/a	3	12	Cue	Neutral	True
124.378	3.9	Control	0.9231	0.0	Yes	2.972	0.0	n/a	GoodResponse	0	n/a	n/a	3	12	Fixation	Neutral	True
128.276	0.28	Control	0.9231	0.002	Yes	2.972	-0.002	2.0	GoodResponse	0	0.192	127.468	3	12	Target	Neutral	True
128.468	0.3	Control	0.9231	0.002	Yes	2.972	-0.002	2.0	GoodResponse	0	0.192	n/a	3	12	ButtonPress	Neutral	True
128.56	0.42	Control	0.9231	n/a	Yes	2.972	n/a	n/a	GoodResponse	0	n/a	n/a	3	12	Blank	Neutral	True
128.976	1.45	Control	0.9231	n/a	Yes	2.972	n/a	5.0	GoodResponse	0	0.022	127.998	3	12	Feedback	Neutral	True
130.426	2.972	Control	0.9231	n/a	Yes	2.972	n/a	n/a	GoodResponse	0	0.0	n/a	3	12	ISIslide	Neutral	True
133.425	0.25	Control	0.9286	0.0	Yes	2.775	0.025	n/a	GoodResponse	0	n/a	n/a	3	13	Cue	Neutral	False
133.675	4.0	Control	0.9286	0.0	Yes	2.775	0.0	2.0	GoodResponse	0	3.628	136.303	3	13	Fixation	Neutral	False
137.303	0.3	Control	0.9286	0.0	Yes	2.775	0.0	2.0	GoodResponse	0	3.628	n/a	3	13	ButtonPress	Neutral	False
137.673	0.27	Control	0.9286	0.002	Yes	2.775	-0.002	2.0	GoodResponse	0	0.167	136.84	3	13	Target	Neutral	False
137.84	0.3	Control	0.9286	0.002	Yes	2.775	-0.002	2.0	GoodResponse	0	0.167	n/a	3	13	ButtonPress	Neutral	False
137.956	0.43	Control	0.9286	n/a	Yes	2.775	n/a	n/a	GoodResponse	0	n/a	n/a	3	13	Blank	Neutral	False
138.373	1.45	Control	0.9286	n/a	Yes	2.775	n/a	5.0	GoodResponse	0	0.04	137.413	3	13	Feedback	Neutral	False
139.822	2.775	Control	0.9286	n/a	Yes	2.775	n/a	n/a	GoodResponse	0	0.0	n/a	3	13	ISIslide	Neutral	False
142.621	0.25	Win2	0.9333	0.001	Yes	2.679	0.021	n/a	GoodResponse	1	n/a	n/a	4	14	Cue	Win	True
142.871	4.1	Win2	0.9333	0.0	Yes	2.679	0.0	n/a	GoodResponse	1	n/a	n/a	4	14	Fixation	Win	True
146.97	0.26	Win2	0.9333	0.001	Yes	2.679	-0.001	2.0	GoodResponse	1	0.179	146.149	4	14	Target	Win	True
147.149	0.3	Win2	0.9333	0.001	Yes	2.679	-0.001	2.0	GoodResponse	1	0.179	n/a	4	14	ButtonPress	Win	True
147.237	0.44	Win2	0.9333	n/a	Yes	2.679	n/a	n/a	GoodResponse	1	n/a	n/a	4	14	Blank	Win	True
147.67	1.45	Win2	0.9333	n/a	Yes	2.679	n/a	5.0	GoodResponse	1	0.011	146.681	4	14	Feedback	Win	True
149.119	2.679	Win2	0.9333	n/a	Yes	2.679	n/a	n/a	GoodResponse	1	0.0	n/a	4	14	ISIslide	Win	True
151.818	0.25	Control	0.9375	0.0	Yes	2.982	0.018	n/a	GoodResponse	0	n/a	n/a	4	15	Cue	Neutral	True
152.068	4.0	Control	0.9375	0.0	Yes	2.982	0.0	n/a	GoodResponse	0	n/a	n/a	4	15	Fixation	Neutral	True
156.067	0.25	Control	0.9375	0.001	Yes	2.982	-0.001	2.0	GoodResponse	0	0.194	155.261	4	15	Target	Neutral	True
156.261	0.3	Control	0.9375	0.001	Yes	2.982	-0.001	2.0	GoodResponse	0	0.194	n/a	4	15	ButtonPress	Neutral	True
156.317	0.45	Control	0.9375	n/a	Yes	2.982	n/a	n/a	GoodResponse	0	n/a	n/a	4	15	Blank	Neutral	True
156.767	1.45	Control	0.9375	n/a	Yes	2.982	n/a	5.0	GoodResponse	0	0.036	155.803	4	15	Feedback	Neutral	True
158.216	2.982	Control	0.9375	n/a	Yes	2.982	n/a	n/a	GoodResponse	0	0.0	n/a	4	15	ISIslide	Neutral	True
161.215	0.25	Win2	0.9412	0.0	Yes	2.885	0.015	n/a	GoodResponse	1	n/a	n/a	5	16	Cue	Win	True
161.465	4.0	Win2	0.9412	0.0	Yes	2.885	0.0	n/a	GoodResponse	1	n/a	n/a	5	16	Fixation	Win	True
165.463	0.24	Win2	0.9412	0.002	Yes	2.885	-0.002	2.0	GoodResponse	1	0.178	164.641	5	16	Target	Win	True
165.641	0.3	Win2	0.9412	0.002	Yes	2.885	-0.002	2.0	GoodResponse	1	0.178	n/a	5	16	ButtonPress	Win	True
165.713	0.46	Win2	0.9412	n/a	Yes	2.885	n/a	n/a	GoodResponse	1	n/a	n/a	5	16	Blank	Win	True
166.163	1.45	Win2	0.9412	n/a	Yes	2.885	n/a	5.0	GoodResponse	1	0.008	165.171	5	16	Feedback	Win	True
167.613	2.885	Win2	0.9412	n/a	Yes	2.885	n/a	n/a	GoodResponse	1	0.0	n/a	5	16	ISIslide	Win	True
170.528	0.25	Lose2	0.9444	0.0	Yes	2.722	0.028	n/a	GoodResponse	0	n/a	n/a	5	17	Cue	AvoidedLoss	True
170.778	3.95	Lose2	0.9444	0.0	Yes	2.722	0.0	n/a	GoodResponse	0	n/a	n/a	5	17	Fixation	AvoidedLoss	True
174.727	0.23	Lose2	0.9444	0.001	Yes	2.722	-0.001	2.0	GoodResponse	0	0.199	173.926	5	17	Target	AvoidedLoss	True
174.926	0.3	Lose2	0.9444	0.001	Yes	2.722	-0.001	2.0	GoodResponse	0	0.199	n/a	5	17	ButtonPress	AvoidedLoss	True
174.96	0.47	Lose2	0.9444	n/a	Yes	2.722	n/a	n/a	GoodResponse	0	n/a	n/a	5	17	Blank	AvoidedLoss	True
175.427	1.45	Lose2	0.9444	n/a	Yes	2.722	n/a	5.0	GoodResponse	0	0.01	174.437	5	17	Feedback	AvoidedLoss	True
176.876	2.722	Lose2	0.9444	n/a	Yes	2.722	n/a	n/a	GoodResponse	0	0.0	n/a	5	17	ISIslide	AvoidedLoss	True
179.625	0.25	Lose2	0.9473999999999999	0.0	Yes	2.725	0.025	n/a	GoodResponse	0	n/a	n/a	5	18	Cue	AvoidedLoss	True
179.875	4.05	Lose2	0.9473999999999999	0.0	Yes	2.725	0.0	n/a	GoodResponse	0	n/a	n/a	5	18	Fixation	AvoidedLoss	True
183.924	0.22	Lose2	0.9473999999999999	0.001	Yes	2.725	-0.001	2.0	GoodResponse	0	0.188	183.112	5	18	Target	AvoidedLoss	True
184.112	0.3	Lose2	0.9473999999999999	0.001	Yes	2.725	-0.001	2.0	GoodResponse	0	0.188	n/a	5	18	ButtonPress	AvoidedLoss	True
184.157	0.48	Lose2	0.9473999999999999	n/a	Yes	2.725	n/a	n/a	GoodResponse	0	n/a	n/a	5	18	Blank	AvoidedLoss	True
184.623	1.45	Lose2	0.9473999999999999	n/a	Yes	2.725	n/a	5.0	GoodResponse	0	0.033	183.656	5	18	Feedback	AvoidedLoss	True
186.073	2.725	Lose2	0.9473999999999999	n/a	Yes	2.725	n/a	n/a	GoodResponse	0	0.0	n/a	5	18	ISIslide	AvoidedLoss	True
188.822	0.25	Control	0.9	0.0	No	2.928	0.022	n/a	NoResponse	0	n/a	n/a	5	19	Cue	Neutral	True
189.072	3.95	Control	0.9	0.0	No	2.928	0.0	n/a	NoResponse	0	n/a	n/a	5	19	Fixation	Neutral	True
193.021	0.21	Control	0.9	0.001	No	2.928	-0.001	2.0	NoResponse	0	0.303	192.324	5	19	Target	Neutral	True
193.237	0.49	Control	0.9	n/a	No	2.928	n/a	n/a	NoResponse	0	n/a	n/a	5	19	Blank	Neutral	True
193.324	0.3	Control	0.9	0.001	No	2.928	-0.001	2.0	NoResponse	0	0.303	n/a	5	19	ButtonPress	Neutral	True
193.72	1.45	Control	0.9	n/a	No	2.928	n/a	5.0	NoResponse	0	0.01	192.73	5	19	Feedback	Neutral	True
195.17	2.928	Control	0.9	n/a	No	2.928	n/a	n/a	NoResponse	0	0.0	n/a	5	19	ISIslide	Neutral	True
198.119	0.25	Control	0.9048	0.0	Yes	2.631	0.019	n/a	GoodResponse	0	n/a	n/a	5	20	Cue	Neutral	True
198.369	4.05	Control	0.9048	0.0	Yes	2.631	0.0	n/a	GoodResponse	0	n/a	n/a	5	20	Fixation	Neutral	True
202.417	0.2	Control	0.9048	0.002	Yes	2.631	-0.002	2.0	GoodResponse	0	0.179	201.596	5	20	Target	Neutral	True
202.596	0.3	Control	0.9048	0.002	Yes	2.631	-0.002	2.0	GoodResponse	0	0.179	n/a	5	20	ButtonPress	Neutral	True
202.617	0.5	Control	0.9048	n/a	Yes	2.631	n/a	n/a	GoodResponse	0	n/a	n/a	5	20	Blank	Neutral	True
203.117	1.45	Control	0.9048	n/a	Yes	2.631	n/a	5.0	GoodResponse	0	0.028	202.145	5	20	Feedback	Neutral	True
204.567	2.631	Control	0.9048	n/a	Yes	2.631	n/a	n/a	GoodResponse	0	0.0	n/a	5	20	ISIslide	Neutral	True
207.216	0.25	Control	0.8636	0.0	No	2.784	0.016	n/a	LatePress	0	n/a	n/a	5	21	Cue	Neutral	True
207.466	4.1	Control	0.8636	0.0	No	2.784	0.0	n/a	LatePress	0	n/a	n/a	5	21	Fixation	Neutral	True
211.564	0.19	Control	0.8636	0.002	No	2.784	-0.002	2.0	LatePress	0	0.196	210.76	5	21	Target	Neutral	True
211.76	0.3	Control	0.8636	0.002	No	2.784	-0.002	2.0	LatePress	0	0.196	n/a	5	21	ButtonPress	Neutral	True
211.764	0.51	Control	0.8636	n/a	No	2.784	n/a	n/a	LatePress	0	n/a	n/a	5	21	Blank	Neutral	True
212.264	1.45	Control	0.8636	n/a	No	2.784	n/a	5.0	LatePress	0	0.006	211.27	5	21	Feedback	Neutral	True
213.713	2.784	Control	0.8636	n/a	No	2.784	n/a	n/a	LatePress	0	0.0	n/a	5	21	ISIslide	Neutral	True
216.512	0.25	Control	0.8261	0.0	No	2.788	0.012	n/a	NoResponse	0	n/a	n/a	5	22	Cue	Neutral	True
216.762	4.0	Control	0.8261	0.0	No	2.788	0.0	n/a	NoResponse	0	n/a	n/a	5	22	Fixation	Neutral	True
220.761	0.18	Control	0.8261	0.001	No	2.788	-0.001	2.0	NoResponse	0	0.191	219.952	5	22	Target	Neutral	True
220.944	0.52	Control	0.8261	n/a	No	2.788	n/a	n/a	NoResponse	0	n/a	n/a	5	22	Blank	Neutral	True
220.952	0.3	Control	0.8261	0.001	No	2.788	-0.001	2.0	NoResponse	0	0.191	n/a	5	22	ButtonPress	Neutral	True
221.461	1.45	Control	0.8261	n/a	No	2.788	n/a	5.0	NoResponse	0	0.024	220.485	5	22	Feedback	Neutral	True
222.91	2.788	Control	0.8261	n/a	No	2.788	n/a	n/a	NoResponse	0	0.0	n/a	5	22	ISIslide	Neutral	True
225.726	0.25	Control	0.8332999999999999	0.0	Yes	2.774	0.026	n/a	GoodResponse	0	n/a	n/a	5	23	Cue	Neutral	True
225.976	3.9	Control	0.8332999999999999	0.0	Yes	2.774	0.0	n/a	GoodResponse	0	n/a	n/a	5	23	Fixation	Neutral	True
229.874	0.17	Control	0.8332999999999999	0.002	Yes	2.774	-0.002	2.0	GoodResponse	0	0.169	229.043	5	23	Target	Neutral	True
230.043	0.3	Control	0.8332999999999999	0.002	Yes	2.774	-0.002	2.0	GoodResponse	0	0.169	n/a	5	23	ButtonPress	Neutral	True
230.058	0.53	Control	0.8332999999999999	n/a	Yes	2.774	n/a	n/a	GoodResponse	0	n/a	n/a	5	23	Blank	Neutral	True
230.574	1.45	Control	0.8332999999999999	n/a	Yes	2.774	n/a	5.0	GoodResponse	0	0.033	229.607	5	23	Feedback	Neutral	True
232.024	2.774	Control	0.8332999999999999	n/a	Yes	2.774	n/a	n/a	GoodResponse	0	0.0	n/a	5	23	ISIslide	Neutral	True
234.823	0.25	Win2	0.8	0.0	No	3.127	0.023	n/a	NoResponse	0	n/a	n/a	5	24	Cue	MissedWin	True
235.073	3.95	Win2	0.8	0.0	No	3.127	0.0	n/a	NoResponse	0	n/a	n/a	5	24	Fixation	MissedWin	True
239.021	0.16	Win2	0.8	0.002	No	3.127	-0.002	2.0	NoResponse	0	0.176	238.197	5	24	Target	MissedWin	True
239.188	0.54	Win2	0.8	n/a	No	3.127	n/a	n/a	NoResponse	0	n/a	n/a	5	24	Blank	MissedWin	True
239.197	0.3	Win2	0.8	0.002	No	3.127	-0.002	2.0	NoResponse	0	0.176	n/a	5	24	ButtonPress	MissedWin	True
239.721	1.45	Win2	0.8	n/a	No	3.127	n/a	5.0	NoResponse	0	0.008	238.729	5	24	Feedback	MissedWin	True
241.17	3.127	Win2	0.8	n/a	No	3.127	n/a	n/a	NoResponse	0	0.0	n/a	5	24	ISIslide	MissedWin	True
244.319	0.25	Win2	0.7692	0.0	No	3.081	0.019	n/a	NoResponse	0	n/a	n/a	5	25	Cue	MissedWin	True
244.569	4.0	Win2	0.7692	0.0	No	3.081	0.0	n/a	NoResponse	0	n/a	n/a	5	25	Fixation	MissedWin	True
248.568	0.15	Win2	0.7692	0.001	No	3.081	-0.001	2.0	NoResponse	0	0.174	247.742	5	25	Target	MissedWin	True
248.718	0.55	Win2	0.7692	n/a	No	3.081	n/a	n/a	NoResponse	0	n/a	n/a	5	25	Blank	MissedWin	True
248.742	0.3	Win2	0.7692	0.001	No	3.081	-0.001	2.0	NoResponse	0	0.174	n/a	5	25	ButtonPress	MissedWin	True
249.268	1.45	Win2	0.7692	n/a	No	3.081	n/a	5.0	NoResponse	0	0.022	248.29	5	25	Feedback	MissedWin	True
250.717	3.081	Win2	0.7692	n/a	No	3.081	n/a	n/a	NoResponse	0	0.0	n/a	5	25	ISIslide	MissedWin	True
253.816	0.25	Win2	0.7406999999999999	0.0	No	2.934	0.016	n/a	NoResponse	0	n/a	n/a	5	26	Cue	MissedWin	True
254.066	3.95	Win2	0.7406999999999999	0.0	No	2.934	0.0	n/a	NoResponse	0	n/a	n/a	5	26	Fixation	MissedWin	True
258.015	0.15	Win2	0.7406999999999999	0.001	No	2.934	-0.001	2.0	NoResponse	0	0.172	257.187	5	26	Target	MissedWin	True
258.164	0.55	Win2	0.7406999999999999	n/a	No	2.934	n/a	n/a	NoResponse	0	n/a	n/a	5	26	Blank	MissedWin	True
258.187	0.3	Win2	0.7406999999999999	0.001	No	2.934	-0.001	2.0	NoResponse	0	0.172	n/a	5	26	ButtonPress	MissedWin	True
258.714	1.45	Win2	0.7406999999999999	n/a	No	2.934	n/a	5.0	NoResponse	0	0.04	257.754	5	26	Feedback	MissedWin	True
260.164	2.934	Win2	0.7406999999999999	n/a	No	2.934	n/a	n/a	NoResponse	0	0.0	n/a	5	26	ISIslide	MissedWin	True
263.129	0.25	Lose2	0.7143	0.0	No	2.821	0.029	n/a	PrematurePress	-1	n/a	n/a	4	27	Cue	Loss	False
263.379	4.05	Lose2	0.7143	0.0	No	2.821	0.0	2.0	PrematurePress	-1	3.722	266.101	4	27	Fixation	Loss	False
267.101	0.3	Lose2	0.7143	0.0	No	2.821	0.0	2.0	PrematurePress	-1	3.722	n/a	4	27	ButtonPress	Loss	False
267.428	0.15	Lose2	0.7143	0.001	No	2.821	-0.001	2.0	PrematurePress	-1	0.067	266.495	4	27	Target	Loss	False
267.495	0.3	Lose2	0.7143	0.001	No	2.821	-0.001	2.0	PrematurePress	-1	0.067	n/a	4	27	ButtonPress	Loss	False
267.578	0.55	Lose2	0.7143	n/a	No	2.821	n/a	n/a	PrematurePress	-1	n/a	n/a	4	27	Blank	Loss	False
268.128	1.45	Lose2	0.7143	n/a	No	2.821	n/a	5.0	PrematurePress	-1	0.041	267.169	4	27	Feedback	Loss	False
269.577	2.821	Lose2	0.7143	n/a	No	2.821	n/a	n/a	PrematurePress	-1	0.0	n/a	4	27	ISIslide	Loss	False
272.426	0.25	Control	0.6897	0.0	No	2.824	0.026	n/a	NoResponse	0	n/a	n/a	4	28	Cue	Neutral	True
272.676	4.05	Control	0.6897	0.0	No	2.824	0.0	n/a	NoResponse	0	n/a	n/a	4	28	Fixation	Neutral	True
276.725	0.15	Control	0.6897	0.001	No	2.824	-0.001	2.0	NoResponse	0	0.244	275.969	4	28	Target	Neutral	True
276.875	0.55	Control	0.6897	n/a	No	2.824	n/a	n/a	NoResponse	0	n/a	n/a	4	28	Blank	Neutral	True
276.969	0.3	Control	0.6897	0.001	No	2.824	-0.001	2.0	NoResponse	0	0.244	n/a	4	28	ButtonPress	Neutral	True
277.424	1.45	Control	0.6897	n/a	No	2.824	n/a	5.0	NoResponse	0	0.012	276.436	4	28	Feedback	Neutral	True
278.874	2.824	Control	0.6897	n/a	No	2.824	n/a	n/a	NoResponse	0	0.0	n/a	4	28	ISIslide	Neutral	True
281.723	0.25	Lose2	0.6667000000000001	0.0	No	2.827	0.023	n/a	NoResponse	-1	n/a	n/a	3	29	Cue	Loss	True
281.973	3.95	Lose2	0.6667000000000001	0.0	No	2.827	0.0	n/a	NoResponse	-1	n/a	n/a	3	29	Fixation	Loss	True
285.921	0.15	Lose2	0.6667000000000001	0.002	No	2.827	-0.002	2.0	NoResponse	-1	0.168	285.089	3	29	Target	Loss	True
286.071	0.55	Lose2	0.6667000000000001	n/a	No	2.827	n/a	n/a	NoResponse	-1	n/a	n/a	3	29	Blank	Loss	True
286.089	0.3	Lose2	0.6667000000000001	0.002	No	2.827	-0.002	2.0	NoResponse	-1	0.168	n/a	3	29	ButtonPress	Loss	True
286.621	1.45	Lose2	0.6667000000000001	n/a	No	2.827	n/a	5.0	NoResponse	-1	0.035	285.656	3	29	Feedback	Loss	True
288.071	2.827	Lose2	0.6667000000000001	n/a	No	2.827	n/a	n/a	NoResponse	-1	0.0	n/a	3	29	ISIslide	Loss	True
290.92	0.25	Win2	0.6452	0.0	No	2.78	0.02	n/a	NoResponse	0	n/a	n/a	3	30	Cue	MissedWin	True
291.17	3.9	Win2	0.6452	0.0	No	2.78	0.0	n/a	NoResponse	0	n/a	n/a	3	30	Fixation	MissedWin	True
295.068	0.15	Win2	0.6452	0.002	No	2.78	-0.002	2.0	NoResponse	0	0.177	294.245	3	30	Target	MissedWin	True
295.218	0.55	Win2	0.6452	n/a	No	2.78	n/a	n/a	NoResponse	0	n/a	n/a	3	30	Blank	MissedWin	True
295.245	0.3	Win2	0.6452	0.002	No	2.78	-0.002	2.0	NoResponse	0	0.177	n/a	3	30	ButtonPress	MissedWin	True
295.768	1.45	Win2	0.6452	n/a	No	2.78	n/a	5.0	NoResponse	0	0.01	294.778	3	30	Feedback	MissedWin	True
297.218	2.78	Win2	0.6452	n/a	No	2.78	n/a	n/a	NoResponse	0	0.0	n/a	3	30	ISIslide	MissedWin	True
300.017	0.25	Lose2	0.625	0.0	No	2.833	0.017	n/a	NoResponse	-1	n/a	n/a	2	31	Cue	Loss	True
300.266	4.05	Lose2	0.625	0.001	No	2.833	-0.001	n/a	NoResponse	-1	n/a	n/a	2	31	Fixation	Loss	True
304.315	0.16	Lose2	0.625	0.002	No	2.833	-0.002	2.0	NoResponse	-1	0.18	303.495	2	31	Target	Loss	True
304.482	0.54	Lose2	0.625	n/a	No	2.833	n/a	n/a	NoResponse	-1	n/a	n/a	2	31	Blank	Loss	True
304.495	0.3	Lose2	0.625	0.002	No	2.833	-0.002	2.0	NoResponse	-1	0.18	n/a	2	31	ButtonPress	Loss	True
305.015	1.45	Lose2	0.625	n/a	No	2.833	n/a	5.0	NoResponse	-1	0.031	304.046	2	31	Feedback	Loss	True
306.464	2.833	Lose2	0.625	n/a	No	2.833	n/a	n/a	NoResponse	-1	0.0	n/a	2	31	ISIslide	Loss	True
309.313	0.25	Lose2	0.6061	0.0	No	2.637	0.013	n/a	NoResponse	-1	n/a	n/a	1	32	Cue	Loss	True
309.563	4.15	Lose2	0.6061	0.0	No	2.637	0.0	n/a	NoResponse	-1	n/a	n/a	1	32	Fixation	Loss	True
313.712	0.17	Lose2	0.6061	0.001	No	2.637	-0.001	2.0	NoResponse	-1	0.179	312.891	1	32	Target	Loss	True
313.878	0.53	Lose2	0.6061	n/a	No	2.637	n/a	n/a	NoResponse	-1	n/a	n/a	1	32	Blank	Loss	True
313.891	0.3	Lose2	0.6061	0.001	No	2.637	-0.001	2.0	NoResponse	-1	0.179	n/a	1	32	ButtonPress	Loss	True
314.412	1.45	Lose2	0.6061	n/a	No	2.637	n/a	5.0	NoResponse	-1	0.0	313.412	1	32	Feedback	Loss	True
315.861	2.637	Lose2	0.6061	n/a	No	2.637	n/a	n/a	NoResponse	-1	0.0	n/a	1	32	ISIslide	Loss	True
318.527	0.25	Win2	0.6175999999999999	0.0	Yes	2.673	0.027	n/a	GoodResponse	1	n/a	n/a	2	33	Cue	Win	True
318.777	4.0	Win2	0.6175999999999999	0.0	Yes	2.673	0.0	n/a	GoodResponse	1	n/a	n/a	2	33	Fixation	Win	True
322.775	0.18	Win2	0.6175999999999999	0.002	Yes	2.673	-0.002	2.0	GoodResponse	1	0.169	321.944	2	33	Target	Win	True
322.944	0.3	Win2	0.6175999999999999	0.002	Yes	2.673	-0.002	2.0	GoodResponse	1	0.169	n/a	2	33	ButtonPress	Win	True
322.959	0.52	Win2	0.6175999999999999	n/a	Yes	2.673	n/a	n/a	GoodResponse	1	n/a	n/a	2	33	Blank	Win	True
323.475	1.45	Win2	0.6175999999999999	n/a	Yes	2.673	n/a	5.0	GoodResponse	1	0.01	322.485	2	33	Feedback	Win	True
324.925	2.673	Win2	0.6175999999999999	n/a	Yes	2.673	n/a	n/a	GoodResponse	1	0.0	n/a	2	33	ISIslide	Win	True
327.624	0.25	Lose2	0.6286	0.0	Yes	2.626	0.024	n/a	GoodResponse	0	n/a	n/a	2	34	Cue	AvoidedLoss	False
327.874	4.05	Lose2	0.6286	0.0	Yes	2.626	0.0	2.0	GoodResponse	0	3.729	330.603	2	34	Fixation	AvoidedLoss	False
331.603	0.3	Lose2	0.6286	0.0	Yes	2.626	0.0	2.0	GoodResponse	0	3.729	n/a	2	34	ButtonPress	AvoidedLoss	False
331.922	0.19	Lose2	0.6286	0.002	Yes	2.626	-0.002	2.0	GoodResponse	0	0.164	331.086	2	34	Target	AvoidedLoss	False
332.086	0.3	Lose2	0.6286	0.002	Yes	2.626	-0.002	2.0	GoodResponse	0	0.164	n/a	2	34	ButtonPress	AvoidedLoss	False
332.122	0.51	Lose2	0.6286	n/a	Yes	2.626	n/a	n/a	GoodResponse	0	n/a	n/a	2	34	Blank	AvoidedLoss	False
332.622	1.45	Lose2	0.6286	n/a	Yes	2.626	n/a	5.0	GoodResponse	0	0.033	331.655	2	34	Feedback	AvoidedLoss	False
334.071	2.626	Lose2	0.6286	n/a	Yes	2.626	n/a	n/a	GoodResponse	0	0.0	n/a	2	34	ISIslide	AvoidedLoss	False
336.72	0.25	Lose2	0.6111	0.0	No	2.68	0.02	n/a	PrematurePress	-1	n/a	n/a	1	35	Cue	Loss	True
336.97	4.0	Lose2	0.6111	0.0	No	2.68	0.0	n/a	PrematurePress	-1	n/a	n/a	1	35	Fixation	Loss	True
340.969	0.2	Lose2	0.6111	0.001	No	2.68	-0.001	2.0	PrematurePress	-1	0.052	340.021	1	35	Target	Loss	True
341.021	0.3	Lose2	0.6111	0.001	No	2.68	-0.001	2.0	PrematurePress	-1	0.052	n/a	1	35	ButtonPress	Loss	True
341.169	0.5	Lose2	0.6111	n/a	No	2.68	n/a	n/a	PrematurePress	-1	n/a	n/a	1	35	Blank	Loss	True
341.669	1.45	Lose2	0.6111	n/a	No	2.68	n/a	5.0	PrematurePress	-1	0.011	340.68	1	35	Feedback	Loss	True
343.118	2.68	Lose2	0.6111	n/a	No	2.68	n/a	n/a	PrematurePress	-1	0.0	n/a	1	35	ISIslide	Loss	True
345.817	0.25	Control	0.6215999999999999	0.0	Yes	2.683	0.017	n/a	GoodResponse	0	n/a	n/a	1	36	Cue	Neutral	True
346.067	4.0	Control	0.6215999999999999	0.0	Yes	2.683	0.0	n/a	GoodResponse	0	n/a	n/a	1	36	Fixation	Neutral	True
350.066	0.21	Control	0.6215999999999999	0.001	Yes	2.683	-0.001	2.0	GoodResponse	0	0.181	349.247	1	36	Target	Neutral	True
350.247	0.3	Control	0.6215999999999999	0.001	Yes	2.683	-0.001	2.0	GoodResponse	0	0.181	n/a	1	36	ButtonPress	Neutral	True
350.282	0.49	Control	0.6215999999999999	n/a	Yes	2.683	n/a	n/a	GoodResponse	0	n/a	n/a	1	36	Blank	Neutral	True
350.766	1.45	Control	0.6215999999999999	n/a	Yes	2.683	n/a	5.0	GoodResponse	0	0.036	349.802	1	36	Feedback	Neutral	True
352.215	2.683	Control	0.6215999999999999	n/a	Yes	2.683	n/a	n/a	GoodResponse	0	0.0	n/a	1	36	ISIslide	Neutral	True
354.914	0.25	Win2	0.6315999999999999	0.0	Yes	2.886	0.014	n/a	GoodResponse	1	n/a	n/a	2	37	Cue	Win	True
355.164	4.0	Win2	0.6315999999999999	0.0	Yes	2.886	0.0	n/a	GoodResponse	1	n/a	n/a	2	37	Fixation	Win	True
359.163	0.22	Win2	0.6315999999999999	0.001	Yes	2.886	-0.001	2.0	GoodResponse	1	0.184	358.347	2	37	Target	Win	True
359.347	0.3	Win2	0.6315999999999999	0.001	Yes	2.886	-0.001	2.0	GoodResponse	1	0.184	n/a	2	37	ButtonPress	Win	True
359.396	0.48	Win2	0.6315999999999999	n/a	Yes	2.886	n/a	n/a	GoodResponse	1	n/a	n/a	2	37	Blank	Win	True
359.862	1.45	Win2	0.6315999999999999	n/a	Yes	2.886	n/a	5.0	GoodResponse	1	0.013	358.875	2	37	Feedback	Win	True
361.312	2.886	Win2	0.6315999999999999	n/a	Yes	2.886	n/a	n/a	GoodResponse	1	0.0	n/a	2	37	ISIslide	Win	True
364.227	0.25	Lose2	0.6154	0.001	No	2.823	0.027	n/a	NoResponse	-1	n/a	n/a	1	38	Cue	Loss	True
364.477	3.95	Lose2	0.6154	0.0	No	2.823	0.0	n/a	NoResponse	-1	n/a	n/a	1	38	Fixation	Loss	True
368.426	0.23	Lose2	0.6154	0.001	No	2.823	-0.001	2.0	NoResponse	-1	0.292	367.718	1	38	Target	Loss	True
368.659	0.47	Lose2	0.6154	n/a	No	2.823	n/a	n/a	NoResponse	-1	n/a	n/a	1	38	Blank	Loss	True
368.718	0.3	Lose2	0.6154	0.001	No	2.823	-0.001	2.0	NoResponse	-1	0.292	n/a	1	38	ButtonPress	Loss	True
369.126	1.45	Lose2	0.6154	n/a	No	2.823	n/a	5.0	NoResponse	-1	0.018	368.144	1	38	Feedback	Loss	True
370.575	2.823	Lose2	0.6154	n/a	No	2.823	n/a	n/a	NoResponse	-1	0.0	n/a	1	38	ISIslide	Loss	True
373.424	0.25	Win2	0.625	0.0	Yes	2.976	0.024	n/a	GoodResponse	1	n/a	n/a	2	39	Cue	Win	True
373.674	4.1	Win2	0.625	0.0	Yes	2.976	0.0	n/a	GoodResponse	1	n/a	n/a	2	39	Fixation	Win	True
377.773	0.24	Win2	0.625	0.001	Yes	2.976	-0.001	2.0	GoodResponse	1	0.146	376.919	2	39	Target	Win	True
377.919	0.3	Win2	0.625	0.001	Yes	2.976	-0.001	2.0	GoodResponse	1	0.146	n/a	2	39	ButtonPress	Win	True
378.023	0.46	Win2	0.625	n/a	Yes	2.976	n/a	n/a	GoodResponse	1	n/a	n/a	2	39	Blank	Win	True
378.473	1.45	Win2	0.625	n/a	Yes	2.976	n/a	5.0	GoodResponse	1	0.036	377.509	2	39	Feedback	Win	True
379.922	2.976	Win2	0.625	n/a	Yes	2.976	n/a	n/a	GoodResponse	1	0.0	n/a	2	39	ISIslide	Win	True
382.921	0.25	Win2	0.6341	0.0	Yes	2.729	0.021	n/a	GoodResponse	1	n/a	n/a	3	40	Cue	Win	True
383.171	3.95	Win2	0.6341	0.0	Yes	2.729	0.0	n/a	GoodResponse	1	n/a	n/a	3	40	Fixation	Win	True
387.119	0.25	Win2	0.6341	0.002	Yes	2.729	-0.002	2.0	GoodResponse	1	0.173	386.292	3	40	Target	Win	True
387.292	0.3	Win2	0.6341	0.002	Yes	2.729	-0.002	2.0	GoodResponse	1	0.173	n/a	3	40	ButtonPress	Win	True
387.369	0.45	Win2	0.6341	n/a	Yes	2.729	n/a	n/a	GoodResponse	1	n/a	n/a	3	40	Blank	Win	True
387.819	1.45	Win2	0.6341	n/a	Yes	2.729	n/a	5.0	GoodResponse	1	0.008	386.827	3	40	Feedback	Win	True
389.269	2.729	Win2	0.6341	n/a	Yes	2.729	n/a	n/a	GoodResponse	1	0.0	n/a	3	40	ISIslide	Win	True
392.018	0.25	Win2	0.6429	0.0	Yes	2.782	0.018	n/a	GoodResponse	1	n/a	n/a	4	41	Cue	Win	True
392.268	3.9	Win2	0.6429	0.0	Yes	2.782	0.0	n/a	GoodResponse	1	n/a	n/a	4	41	Fixation	Win	True
396.166	0.26	Win2	0.6429	0.002	Yes	2.782	-0.002	2.0	GoodResponse	1	0.173	395.339	4	41	Target	Win	True
396.339	0.3	Win2	0.6429	0.002	Yes	2.782	-0.002	2.0	GoodResponse	1	0.173	n/a	4	41	ButtonPress	Win	True
396.433	0.44	Win2	0.6429	n/a	Yes	2.782	n/a	n/a	GoodResponse	1	n/a	n/a	4	41	Blank	Win	True
396.866	1.45	Win2	0.6429	n/a	Yes	2.782	n/a	5.0	GoodResponse	1	0.033	395.899	4	41	Feedback	Win	True
398.316	2.782	Win2	0.6429	n/a	Yes	2.782	n/a	n/a	GoodResponse	1	0.0	n/a	4	41	ISIslide	Win	True
401.115	0.25	Control	0.6512	0.0	Yes	2.935	0.015	n/a	GoodResponse	0	n/a	n/a	4	42	Cue	Neutral	False
401.365	3.85	Control	0.6512	0.0	Yes	2.935	0.0	2.0	GoodResponse	0	3.651	404.016	4	42	Fixation	Neutral	False
405.016	0.3	Control	0.6512	0.0	Yes	2.935	0.0	2.0	GoodResponse	0	3.651	n/a	4	42	ButtonPress	Neutral	False
405.213	0.27	Control	0.6512	0.002	Yes	2.935	-0.002	2.0	GoodResponse	0	0.168	404.381	4	42	Target	Neutral	False
405.381	0.3	Control	0.6512	0.002	Yes	2.935	-0.002	2.0	GoodResponse	0	0.168	n/a	4	42	ButtonPress	Neutral	False
405.496	0.43	Control	0.6512	n/a	Yes	2.935	n/a	n/a	GoodResponse	0	n/a	n/a	4	42	Blank	Neutral	False
405.913	1.45	Control	0.6512	n/a	Yes	2.935	n/a	5.0	GoodResponse	0	0.011	404.924	4	42	Feedback	Neutral	False
407.362	2.935	Control	0.6512	n/a	Yes	2.935	n/a	n/a	GoodResponse	0	0.0	n/a	4	42	ISIslide	Neutral	False
410.328	0.25	Win2	0.6591	0.0	Yes	3.172	0.028	n/a	GoodResponse	1	n/a	n/a	5	43	Cue	Win	True
410.578	4.0	Win2	0.6591	0.0	Yes	3.172	0.0	n/a	GoodResponse	1	n/a	n/a	5	43	Fixation	Win	True
414.577	0.28	Win2	0.6591	0.001	Yes	3.172	-0.001	2.0	GoodResponse	1	0.167	413.744	5	43	Target	Win	True
414.744	0.3	Win2	0.6591	0.001	Yes	3.172	-0.001	2.0	GoodResponse	1	0.167	n/a	5	43	ButtonPress	Win	True
414.86	0.42	Win2	0.6591	n/a	Yes	3.172	n/a	n/a	GoodResponse	1	n/a	n/a	5	43	Blank	Win	True
415.276	1.45	Win2	0.6591	n/a	Yes	3.172	n/a	5.0	GoodResponse	1	0.014	414.29	5	43	Feedback	Win	True
416.726	3.172	Win2	0.6591	n/a	Yes	3.172	n/a	n/a	GoodResponse	1	0.0	n/a	5	43	ISIslide	Win	True
419.925	0.25	Win2	0.6444	0.0	No	2.975	0.025	n/a	PrematurePress	0	n/a	n/a	5	44	Cue	MissedWin	True
420.175	4.0	Win2	0.6444	0.0	No	2.975	0.0	n/a	PrematurePress	0	n/a	n/a	5	44	Fixation	MissedWin	True
424.173	0.28	Win2	0.6444	0.002	No	2.975	-0.002	2.0	PrematurePress	0	0.071	423.244	5	44	Target	MissedWin	True
424.244	0.3	Win2	0.6444	0.002	No	2.975	-0.002	2.0	PrematurePress	0	0.071	n/a	5	44	ButtonPress	MissedWin	True
424.456	0.42	Win2	0.6444	n/a	No	2.975	n/a	n/a	PrematurePress	0	n/a	n/a	5	44	Blank	MissedWin	True
424.873	1.45	Win2	0.6444	n/a	No	2.975	n/a	5.0	PrematurePress	0	0.025	423.898	5	44	Feedback	MissedWin	True
426.322	2.975	Win2	0.6444	n/a	No	2.975	n/a	n/a	PrematurePress	0	0.0	n/a	5	44	ISIslide	MissedWin	True
429.321	0.25	Control	0.6522	0.001	Yes	2.879	0.021	n/a	GoodResponse	0	n/a	n/a	5	45	Cue	Neutral	True
429.571	4.1	Control	0.6522	0.0	Yes	2.879	0.0	n/a	GoodResponse	0	n/a	n/a	5	45	Fixation	Neutral	True
433.67	0.29	Control	0.6522	0.001	Yes	2.879	-0.001	2.0	GoodResponse	0	0.173	432.843	5	45	Target	Neutral	True
433.843	0.3	Control	0.6522	0.001	Yes	2.879	-0.001	2.0	GoodResponse	0	0.173	n/a	5	45	ButtonPress	Neutral	True
433.97	0.41	Control	0.6522	n/a	Yes	2.879	n/a	n/a	GoodResponse	0	n/a	n/a	5	45	Blank	Neutral	True
434.37	1.45	Control	0.6522	n/a	Yes	2.879	n/a	5.0	GoodResponse	0	0.041	433.411	5	45	Feedback	Neutral	True
435.819	2.879	Control	0.6522	n/a	Yes	2.879	n/a	n/a	GoodResponse	0	0.0	n/a	5	45	ISIslide	Neutral	True
438.718	0.25	Lose2	0.6596	0.0	Yes	3.382	0.018	n/a	GoodResponse	0	n/a	n/a	5	46	Cue	AvoidedLoss	True
438.968	4.0	Lose2	0.6596	0.0	Yes	3.382	0.0	n/a	GoodResponse	0	n/a	n/a	5	46	Fixation	AvoidedLoss	True
442.967	0.3	Lose2	0.6596	0.001	Yes	3.382	-0.001	2.0	GoodResponse	0	0.19	442.157	5	46	Target	AvoidedLoss	True
443.157	0.3	Lose2	0.6596	0.001	Yes	3.382	-0.001	2.0	GoodResponse	0	0.19	n/a	5	46	ButtonPress	AvoidedLoss	True
443.267	0.4	Lose2	0.6596	n/a	Yes	3.382	n/a	n/a	GoodResponse	0	n/a	n/a	5	46	Blank	AvoidedLoss	True
443.666	1.45	Lose2	0.6596	n/a	Yes	3.382	n/a	5.0	GoodResponse	0	0.013	442.679	5	46	Feedback	AvoidedLoss	True
445.116	3.382	Lose2	0.6596	n/a	Yes	3.382	n/a	n/a	GoodResponse	0	0.0	n/a	5	46	ISIslide	AvoidedLoss	True
448.515	0.25	Lose2	0.6667000000000001	0.0	Yes	2.685	0.015	n/a	GoodResponse	0	n/a	n/a	5	47	Cue	AvoidedLoss	True
448.765	4.0	Lose2	0.6667000000000001	0.0	Yes	2.685	0.0	n/a	GoodResponse	0	n/a	n/a	5	47	Fixation	AvoidedLoss	True
452.763	0.3	Lose2	0.6667000000000001	0.002	Yes	2.685	-0.002	2.0	GoodResponse	0	0.192	451.955	5	47	Target	AvoidedLoss	True
452.955	0.3	Lose2	0.6667000000000001	0.002	Yes	2.685	-0.002	2.0	GoodResponse	0	0.192	n/a	5	47	ButtonPress	AvoidedLoss	True
453.063	0.4	Lose2	0.6667000000000001	n/a	Yes	2.685	n/a	n/a	GoodResponse	0	n/a	n/a	5	47	Blank	AvoidedLoss	True
453.463	1.45	Lose2	0.6667000000000001	n/a	Yes	2.685	n/a	5.0	GoodResponse	0	0.021	452.484	5	47	Feedback	AvoidedLoss	True
454.913	2.685	Lose2	0.6667000000000001	n/a	Yes	2.685	n/a	n/a	GoodResponse	0	0.0	n/a	5	47	ISIslide	AvoidedLoss	True
457.628	0.25	Lose2	0.6735	0.0	Yes	3.022	0.028	n/a	GoodResponse	0	n/a	n/a	5	48	Cue	AvoidedLoss	True
457.878	3.95	Lose2	0.6735	0.0	Yes	3.022	0.0	n/a	GoodResponse	0	n/a	n/a	5	48	Fixation	AvoidedLoss	True
461.827	0.29	Lose2	0.6735	0.001	Yes	3.022	-0.001	2.0	GoodResponse	0	0.195	461.022	5	48	Target	AvoidedLoss	True
462.022	0.3	Lose2	0.6735	0.001	Yes	3.022	-0.001	2.0	GoodResponse	0	0.195	n/a	5	48	ButtonPress	AvoidedLoss	True
462.127	0.41	Lose2	0.6735	n/a	Yes	3.022	n/a	n/a	GoodResponse	0	n/a	n/a	5	48	Blank	AvoidedLoss	True
462.527	1.45	Lose2	0.6735	n/a	Yes	3.022	n/a	5.0	GoodResponse	0	0.031	461.558	5	48	Feedback	AvoidedLoss	True
463.976	3.022	Lose2	0.6735	n/a	Yes	3.022	n/a	n/a	GoodResponse	0	0.0	n/a	5	48	ISIslide	AvoidedLoss	True
467.025	0.25	Control	0.68	0.0	Yes	2.875	0.025	n/a	GoodResponse	0	n/a	n/a	5	49	Cue	Neutral	True
467.275	4.0	Control	0.68	0.0	Yes	2.875	0.0	n/a	GoodResponse	0	n/a	n/a	5	49	Fixation	Neutral	True
471.273	0.28	Control	0.68	0.002	Yes	2.875	-0.002	2.0	GoodResponse	0	0.188	470.461	5	49	Target	Neutral	True
471.461	0.3	Control	0.68	0.002	Yes	2.875	-0.002	2.0	GoodResponse	0	0.188	n/a	5	49	ButtonPress	Neutral	True
471.557	0.42	Control	0.68	n/a	Yes	2.875	n/a	n/a	GoodResponse	0	n/a	n/a	5	49	Blank	Neutral	True
471.973	1.45	Control	0.68	n/a	Yes	2.875	n/a	5.0	GoodResponse	0	0.048	471.021	5	49	Feedback	Neutral	True
473.423	2.875	Control	0.68	n/a	Yes	2.875	n/a	n/a	GoodResponse	0	0.0	n/a	5	49	ISIslide	Neutral	True
476.322	0.25	Control	0.6862999999999999	0.0	Yes	2.778	0.022	n/a	GoodResponse	0	n/a	n/a	5	50	Cue	Neutral	True
476.572	4.0	Control	0.6862999999999999	0.0	Yes	2.778	0.0	n/a	GoodResponse	0	n/a	n/a	5	50	Fixation	Neutral	True
480.57	0.27	Control	0.6862999999999999	0.002	Yes	2.778	-0.002	2.0	GoodResponse	0	0.211	479.781	5	50	Target	Neutral	True
480.781	0.3	Control	0.6862999999999999	0.002	Yes	2.778	-0.002	2.0	GoodResponse	0	0.211	n/a	5	50	ButtonPress	Neutral	True
480.853	0.43	Control	0.6862999999999999	n/a	Yes	2.778	n/a	n/a	GoodResponse	0	n/a	n/a	5	50	Blank	Neutral	True
481.27	1.45	Control	0.6862999999999999	n/a	Yes	2.778	n/a	5.0	GoodResponse	0	0.019	480.289	5	50	Feedback	Neutral	True
482.719	2.778	Control	0.6862999999999999	n/a	Yes	2.778	n/a	n/a	GoodResponse	0	0.0	n/a	5	50	ISIslide	Neutral	True
485.519	0.25	Control	0.6923	0.0	Yes	2.731	0.019	n/a	GoodResponse	0	n/a	n/a	5	51	Cue	Neutral	True
485.768	3.95	Control	0.6923	0.001	Yes	2.731	-0.001	n/a	GoodResponse	0	n/a	n/a	5	51	Fixation	Neutral	True
489.717	0.26	Control	0.6923	0.002	Yes	2.731	-0.002	2.0	GoodResponse	0	0.195	488.912	5	51	Target	Neutral	True
489.912	0.3	Control	0.6923	0.002	Yes	2.731	-0.002	2.0	GoodResponse	0	0.195	n/a	5	51	ButtonPress	Neutral	True
489.984	0.44	Control	0.6923	n/a	Yes	2.731	n/a	n/a	GoodResponse	0	n/a	n/a	5	51	Blank	Neutral	True
490.417	1.45	Control	0.6923	n/a	Yes	2.731	n/a	5.0	GoodResponse	0	0.042	489.459	5	51	Feedback	Neutral	True
491.866	2.731	Control	0.6923	n/a	Yes	2.731	n/a	n/a	GoodResponse	0	0.0	n/a	5	51	ISIslide	Neutral	True
494.615	0.25	Control	0.6981	0.0	Yes	2.635	0.015	n/a	GoodResponse	0	n/a	n/a	5	52	Cue	Neutral	True
494.865	4.05	Control	0.6981	0.0	Yes	2.635	0.0	n/a	GoodResponse	0	n/a	n/a	5	52	Fixation	Neutral	True
498.914	0.25	Control	0.6981	0.001	Yes	2.635	-0.001	2.0	GoodResponse	0	0.179	498.093	5	52	Target	Neutral	True
499.093	0.3	Control	0.6981	0.001	Yes	2.635	-0.001	2.0	GoodResponse	0	0.179	n/a	5	52	ButtonPress	Neutral	True
499.164	0.45	Control	0.6981	n/a	Yes	2.635	n/a	n/a	GoodResponse	0	n/a	n/a	5	52	Blank	Neutral	True
499.614	1.45	Control	0.6981	n/a	Yes	2.635	n/a	5.0	GoodResponse	0	0.016	498.63	5	52	Feedback	Neutral	True
501.063	2.635	Control	0.6981	n/a	Yes	2.635	n/a	n/a	GoodResponse	0	0.0	n/a	5	52	ISIslide	Neutral	True
503.729	0.25	Win2	0.7037	0.0	Yes	2.921	0.029	n/a	GoodResponse	1	n/a	n/a	6	53	Cue	Win	True
503.979	4.05	Win2	0.7037	0.0	Yes	2.921	0.0	n/a	GoodResponse	1	n/a	n/a	6	53	Fixation	Win	True
508.027	0.24	Win2	0.7037	0.002	Yes	2.921	-0.002	2.0	GoodResponse	1	0.184	507.211	6	53	Target	Win	True
508.211	0.3	Win2	0.7037	0.002	Yes	2.921	-0.002	2.0	GoodResponse	1	0.184	n/a	6	53	ButtonPress	Win	True
508.277	0.46	Win2	0.7037	n/a	Yes	2.921	n/a	n/a	GoodResponse	1	n/a	n/a	6	53	Blank	Win	True
508.727	1.45	Win2	0.7037	n/a	Yes	2.921	n/a	5.0	GoodResponse	1	0.025	507.752	6	53	Feedback	Win	True
510.177	2.921	Win2	0.7037	n/a	Yes	2.921	n/a	n/a	GoodResponse	1	0.0	n/a	6	53	ISIslide	Win	True
513.126	0.25	Win2	0.7091	0.0	Yes	2.724	0.026	n/a	GoodResponse	1	n/a	n/a	7	54	Cue	Win	True
513.375	3.95	Win2	0.7091	0.001	Yes	2.724	-0.001	n/a	GoodResponse	1	n/a	n/a	7	54	Fixation	Win	True
517.324	0.23	Win2	0.7091	0.002	Yes	2.724	-0.002	2.0	GoodResponse	1	0.171	516.495	7	54	Target	Win	True
517.495	0.3	Win2	0.7091	0.002	Yes	2.724	-0.002	2.0	GoodResponse	1	0.171	n/a	7	54	ButtonPress	Win	True
517.557	0.47	Win2	0.7091	n/a	Yes	2.724	n/a	n/a	GoodResponse	1	n/a	n/a	7	54	Blank	Win	True
518.024	1.45	Win2	0.7091	n/a	Yes	2.724	n/a	5.0	GoodResponse	1	0.045	517.069	7	54	Feedback	Win	True
519.473	2.724	Win2	0.7091	n/a	Yes	2.724	n/a	n/a	GoodResponse	1	0.0	n/a	7	54	ISIslide	Win	True
522.222	0.25	Control	0.7143	0.0	Yes	3.028	0.022	n/a	GoodResponse	0	n/a	n/a	7	55	Cue	Neutral	True
522.472	3.95	Control	0.7143	0.0	Yes	3.028	0.0	n/a	GoodResponse	0	n/a	n/a	7	55	Fixation	Neutral	True
526.421	0.22	Control	0.7143	0.001	Yes	3.028	-0.001	2.0	GoodResponse	0	0.202	525.623	7	55	Target	Neutral	True
526.623	0.3	Control	0.7143	0.001	Yes	3.028	-0.001	2.0	GoodResponse	0	0.202	n/a	7	55	ButtonPress	Neutral	True
526.637	0.48	Control	0.7143	n/a	Yes	3.028	n/a	n/a	GoodResponse	0	n/a	n/a	7	55	Blank	Neutral	True
527.121	1.45	Control	0.7143	n/a	Yes	3.028	n/a	5.0	GoodResponse	0	0.021	526.142	7	55	Feedback	Neutral	True
528.57	3.028	Control	0.7143	n/a	Yes	3.028	n/a	n/a	GoodResponse	0	0.0	n/a	7	55	ISIslide	Neutral	True
531.619	0.25	Control	0.7193	0.0	Yes	2.831	0.019	n/a	GoodResponse	0	n/a	n/a	7	56	Cue	Neutral	True
531.869	3.95	Control	0.7193	0.0	Yes	2.831	0.0	n/a	GoodResponse	0	n/a	n/a	7	56	Fixation	Neutral	True
535.818	0.21	Control	0.7193	0.001	Yes	2.831	-0.001	2.0	GoodResponse	0	0.197	535.015	7	56	Target	Neutral	True
536.015	0.3	Control	0.7193	0.001	Yes	2.831	-0.001	2.0	GoodResponse	0	0.197	n/a	7	56	ButtonPress	Neutral	True
536.034	0.49	Control	0.7193	n/a	Yes	2.831	n/a	n/a	GoodResponse	0	n/a	n/a	7	56	Blank	Neutral	True
536.517	1.45	Control	0.7193	n/a	Yes	2.831	n/a	5.0	GoodResponse	0	0.04	535.557	7	56	Feedback	Neutral	True
537.967	2.831	Control	0.7193	n/a	Yes	2.831	n/a	n/a	GoodResponse	0	0.0	n/a	7	56	ISIslide	Neutral	True
540.816	0.25	Control	0.7241	0.0	Yes	3.484	0.016	n/a	GoodResponse	0	n/a	n/a	7	57	Cue	Neutral	True
541.066	4.0	Control	0.7241	0.0	Yes	3.484	0.0	n/a	GoodResponse	0	n/a	n/a	7	57	Fixation	Neutral	True
545.064	0.2	Control	0.7241	0.002	Yes	3.484	-0.002	2.0	GoodResponse	0	0.188	544.252	7	57	Target	Neutral	True
545.252	0.3	Control	0.7241	0.002	Yes	3.484	-0.002	2.0	GoodResponse	0	0.188	n/a	7	57	ButtonPress	Neutral	True
545.264	0.5	Control	0.7241	n/a	Yes	3.484	n/a	n/a	GoodResponse	0	n/a	n/a	7	57	Blank	Neutral	True
545.764	1.45	Control	0.7241	n/a	Yes	3.484	n/a	5.0	GoodResponse	0	0.012	544.776	7	57	Feedback	Neutral	True
547.214	3.484	Control	0.7241	n/a	Yes	3.484	n/a	n/a	GoodResponse	0	0.0	n/a	7	57	ISIslide	Neutral	True
550.729	0.25	Win2	0.7288	0.0	Yes	2.721	0.029	n/a	GoodResponse	1	n/a	n/a	8	58	Cue	Win	True
550.979	4.05	Win2	0.7288	0.0	Yes	2.721	0.0	n/a	GoodResponse	1	n/a	n/a	8	58	Fixation	Win	True
555.028	0.19	Win2	0.7288	0.001	Yes	2.721	-0.001	2.0	GoodResponse	1	0.156	554.184	8	58	Target	Win	True
555.184	0.3	Win2	0.7288	0.001	Yes	2.721	-0.001	2.0	GoodResponse	1	0.156	n/a	8	58	ButtonPress	Win	True
555.228	0.51	Win2	0.7288	n/a	Yes	2.721	n/a	n/a	GoodResponse	1	n/a	n/a	8	58	Blank	Win	True
555.727	1.45	Win2	0.7288	n/a	Yes	2.721	n/a	5.0	GoodResponse	1	0.049	554.776	8	58	Feedback	Win	True
557.177	2.721	Win2	0.7288	n/a	Yes	2.721	n/a	n/a	GoodResponse	1	0.0	n/a	8	58	ISIslide	Win	True
559.926	0.25	Lose2	0.7167	0.0	No	2.674	0.026	n/a	NoResponse	-1	n/a	n/a	7	59	Cue	Loss	True
560.176	4.0	Lose2	0.7167	0.0	No	2.674	0.0	n/a	NoResponse	-1	n/a	n/a	7	59	Fixation	Loss	True
564.174	0.18	Lose2	0.7167	0.002	No	2.674	-0.002	2.0	NoResponse	-1	0.226	563.4	7	59	Target	Loss	True
564.358	0.52	Lose2	0.7167	n/a	No	2.674	n/a	n/a	NoResponse	-1	n/a	n/a	7	59	Blank	Loss	True
564.4	0.3	Lose2	0.7167	0.002	No	2.674	-0.002	2.0	NoResponse	-1	0.226	n/a	7	59	ButtonPress	Loss	True
564.874	1.45	Lose2	0.7167	n/a	No	2.674	n/a	5.0	NoResponse	-1	0.024	563.898	7	59	Feedback	Loss	True
566.324	2.674	Lose2	0.7167	n/a	No	2.674	n/a	n/a	NoResponse	-1	0.0	n/a	7	59	ISIslide	Loss	True
569.023	0.25	Control	0.7049	0.0	No	2.677	0.023	n/a	NoResponse	0	n/a	n/a	7	60	Cue	Neutral	True
569.273	4.0	Control	0.7049	0.0	No	2.677	0.0	n/a	NoResponse	0	n/a	n/a	7	60	Fixation	Neutral	True
573.271	0.17	Control	0.7049	0.002	No	2.677	-0.002	2.0	NoResponse	0	0.302	572.573	7	60	Target	Neutral	True
573.454	0.53	Control	0.7049	n/a	No	2.677	n/a	n/a	NoResponse	0	n/a	n/a	7	60	Blank	Neutral	True
573.573	0.3	Control	0.7049	0.002	No	2.677	-0.002	2.0	NoResponse	0	0.302	n/a	7	60	ButtonPress	Neutral	True
573.971	1.45	Control	0.7049	n/a	No	2.677	n/a	5.0	NoResponse	0	0.0	572.971	7	60	Feedback	Neutral	True
575.42	2.677	Control	0.7049	n/a	No	2.677	n/a	n/a	NoResponse	0	0.0	n/a	7	60	ISIslide	Neutral	True
578.12	0.25	Lose2	0.6934999999999999	0.0	No	2.98	0.02	n/a	NoResponse	-1	n/a	n/a	6	61	Cue	Loss	True
578.369	4.0	Lose2	0.6934999999999999	0.001	No	2.98	-0.001	2.0	NoResponse	-1	3.946	581.315	6	61	Fixation	Loss	True
582.315	0.3	Lose2	0.6934999999999999	0.001	No	2.98	-0.001	2.0	NoResponse	-1	3.946	n/a	6	61	ButtonPress	Loss	True
582.368	0.16	Lose2	0.6934999999999999	0.002	No	2.98	-0.002	n/a	NoResponse	-1	n/a	n/a	6	61	Target	Loss	True
582.535	0.54	Lose2	0.6934999999999999	n/a	No	2.98	n/a	n/a	NoResponse	-1	n/a	n/a	6	61	Blank	Loss	True
583.068	1.45	Lose2	0.6934999999999999	n/a	No	2.98	n/a	5.0	NoResponse	-1	0.025	582.093	6	61	Feedback	Loss	True
584.517	2.98	Lose2	0.6934999999999999	n/a	No	2.98	n/a	n/a	NoResponse	-1	0.0	n/a	6	61	ISIslide	Loss	True
587.516	0.25	Lose2	0.6825	0.0	No	2.884	0.016	n/a	NoResponse	-1	n/a	n/a	5	62	Cue	Loss	True
587.766	3.9	Lose2	0.6825	0.0	No	2.884	0.0	n/a	NoResponse	-1	n/a	n/a	5	62	Fixation	Loss	True
591.665	0.15	Lose2	0.6825	0.001	No	2.884	-0.001	2.0	NoResponse	-1	0.175	590.84	5	62	Target	Loss	True
591.815	0.55	Lose2	0.6825	n/a	No	2.884	n/a	n/a	NoResponse	-1	n/a	n/a	5	62	Blank	Loss	True
591.84	0.3	Lose2	0.6825	0.001	No	2.884	-0.001	2.0	NoResponse	-1	0.175	n/a	5	62	ButtonPress	Loss	True
592.365	1.45	Lose2	0.6825	n/a	No	2.884	n/a	5.0	NoResponse	-1	0.045	591.41	5	62	Feedback	Loss	True
593.814	2.884	Lose2	0.6825	n/a	No	2.884	n/a	n/a	NoResponse	-1	0.0	n/a	5	62	ISIslide	Loss	True
596.713	0.25	Lose2	0.6718999999999999	0.0	No	2.637	0.013	n/a	NoResponse	-1	n/a	n/a	4	63	Cue	Loss	True
596.963	4.05	Lose2	0.6718999999999999	0.0	No	2.637	0.0	n/a	NoResponse	-1	n/a	n/a	4	63	Fixation	Loss	True
601.012	0.15	Lose2	0.6718999999999999	0.001	No	2.637	-0.001	2.0	NoResponse	-1	0.177	600.189	4	63	Target	Loss	True
601.161	0.55	Lose2	0.6718999999999999	n/a	No	2.637	n/a	n/a	NoResponse	-1	n/a	n/a	4	63	Blank	Loss	True
601.189	0.3	Lose2	0.6718999999999999	0.001	No	2.637	-0.001	2.0	NoResponse	-1	0.177	n/a	4	63	ButtonPress	Loss	True
601.711	1.45	Lose2	0.6718999999999999	n/a	No	2.637	n/a	5.0	NoResponse	-1	0.016	600.727	4	63	Feedback	Loss	True
603.161	2.637	Lose2	0.6718999999999999	n/a	No	2.637	n/a	n/a	NoResponse	-1	0.0	n/a	4	63	ISIslide	Loss	True
605.827	0.25	Win2	0.6615000000000001	0.0	No	3.123	0.027	n/a	NoResponse	0	n/a	n/a	4	64	Cue	MissedWin	True
606.076	4.15	Win2	0.6615000000000001	0.001	No	3.123	-0.001	n/a	NoResponse	0	n/a	n/a	4	64	Fixation	MissedWin	True
610.225	0.15	Win2	0.6615000000000001	0.002	No	3.123	-0.002	2.0	NoResponse	0	0.159	609.384	4	64	Target	MissedWin	True
610.375	0.55	Win2	0.6615000000000001	n/a	No	3.123	n/a	n/a	NoResponse	0	n/a	n/a	4	64	Blank	MissedWin	True
610.384	0.3	Win2	0.6615000000000001	0.002	No	3.123	-0.002	2.0	NoResponse	0	0.159	n/a	4	64	ButtonPress	MissedWin	True
610.925	1.45	Win2	0.6615000000000001	n/a	No	3.123	n/a	5.0	NoResponse	0	0.022	609.947	4	64	Feedback	MissedWin	True
612.374	3.123	Win2	0.6615000000000001	n/a	No	3.123	n/a	n/a	NoResponse	0	0.0	n/a	4	64	ISIslide	MissedWin	True
615.523	0.25	Control	0.6515000000000001	0.0	No	2.777	0.023	n/a	NoResponse	0	n/a	n/a	4	65	Cue	Neutral	True
615.773	4.0	Control	0.6515000000000001	0.0	No	2.777	0.0	n/a	NoResponse	0	n/a	n/a	4	65	Fixation	Neutral	True
619.772	0.15	Control	0.6515000000000001	0.001	No	2.777	-0.001	2.0	NoResponse	0	0.163	618.935	4	65	Target	Neutral	True
619.922	0.55	Control	0.6515000000000001	n/a	No	2.777	n/a	n/a	NoResponse	0	n/a	n/a	4	65	Blank	Neutral	True
619.935	0.3	Control	0.6515000000000001	0.001	No	2.777	-0.001	2.0	NoResponse	0	0.163	n/a	4	65	ButtonPress	Neutral	True
620.471	1.45	Control	0.6515000000000001	n/a	No	2.777	n/a	5.0	NoResponse	0	0.037	619.508	4	65	Feedback	Neutral	True
621.921	2.777	Control	0.6515000000000001	n/a	No	2.777	n/a	n/a	NoResponse	0	0.0	n/a	4	65	ISIslide	Neutral	True
624.72	0.25	Win2	0.6418	0.0	No	2.78	0.02	n/a	NoResponse	0	n/a	n/a	4	66	Cue	MissedWin	True
624.97	3.9	Win2	0.6418	0.0	No	2.78	0.0	n/a	NoResponse	0	n/a	n/a	4	66	Fixation	MissedWin	True
628.868	0.16	Win2	0.6418	0.002	No	2.78	-0.002	2.0	NoResponse	0	0.183	628.051	4	66	Target	MissedWin	True
629.035	0.54	Win2	0.6418	n/a	No	2.78	n/a	n/a	NoResponse	0	n/a	n/a	4	66	Blank	MissedWin	True
629.051	0.3	Win2	0.6418	0.002	No	2.78	-0.002	2.0	NoResponse	0	0.183	n/a	4	66	ButtonPress	MissedWin	True
629.568	1.45	Win2	0.6418	n/a	No	2.78	n/a	5.0	NoResponse	0	0.012	628.58	4	66	Feedback	MissedWin	True
631.018	2.78	Win2	0.6418	n/a	No	2.78	n/a	n/a	NoResponse	0	0.0	n/a	4	66	ISIslide	MissedWin	True
633.817	0.25	Control	0.6324000000000001	0.0	No	2.733	0.017	n/a	LatePress	0	n/a	n/a	4	67	Cue	Neutral	True
634.067	3.95	Control	0.6324000000000001	0.0	No	2.733	0.0	n/a	LatePress	0	n/a	n/a	4	67	Fixation	Neutral	True
638.015	0.17	Control	0.6324000000000001	0.002	No	2.733	-0.002	2.0	LatePress	0	0.181	637.196	4	67	Target	Neutral	True
638.196	0.3	Control	0.6324000000000001	0.002	No	2.733	-0.002	2.0	LatePress	0	0.181	n/a	4	67	ButtonPress	Neutral	True
638.199	0.53	Control	0.6324000000000001	n/a	No	2.733	n/a	n/a	LatePress	0	n/a	n/a	4	67	Blank	Neutral	True
638.715	1.45	Control	0.6324000000000001	n/a	No	2.733	n/a	5.0	LatePress	0	0.036	637.751	4	67	Feedback	Neutral	True
640.165	2.733	Control	0.6324000000000001	n/a	No	2.733	n/a	n/a	LatePress	0	0.0	n/a	4	67	ISIslide	Neutral	True
642.914	0.25	Win2	0.6232	0.0	No	3.086	0.014	n/a	NoResponse	0	n/a	n/a	4	68	Cue	MissedWin	True
643.164	4.0	Win2	0.6232	0.0	No	3.086	0.0	n/a	NoResponse	0	n/a	n/a	4	68	Fixation	MissedWin	True
647.162	0.18	Win2	0.6232	0.002	No	3.086	-0.002	2.0	NoResponse	0	0.192	646.354	4	68	Target	MissedWin	True
647.345	0.52	Win2	0.6232	n/a	No	3.086	n/a	n/a	NoResponse	0	n/a	n/a	4	68	Blank	MissedWin	True
647.354	0.3	Win2	0.6232	0.002	No	3.086	-0.002	2.0	NoResponse	0	0.192	n/a	4	68	ButtonPress	MissedWin	True
647.862	1.45	Win2	0.6232	n/a	No	3.086	n/a	5.0	NoResponse	0	0.011	646.873	4	68	Feedback	MissedWin	True
649.311	3.086	Win2	0.6232	n/a	No	3.086	n/a	n/a	NoResponse	0	0.0	n/a	4	68	ISIslide	MissedWin	True
652.427	0.25	Win2	0.6286	0.0	Yes	3.223	0.027	n/a	GoodResponse	1	n/a	n/a	5	69	Cue	Win	True
652.677	3.95	Win2	0.6286	0.0	Yes	3.223	0.0	n/a	GoodResponse	1	n/a	n/a	5	69	Fixation	Win	True
656.625	0.19	Win2	0.6286	0.002	Yes	3.223	-0.002	2.0	GoodResponse	1	0.177	655.802	5	69	Target	Win	True
656.802	0.3	Win2	0.6286	0.002	Yes	3.223	-0.002	2.0	GoodResponse	1	0.177	n/a	5	69	ButtonPress	Win	True
656.825	0.51	Win2	0.6286	n/a	Yes	3.223	n/a	n/a	GoodResponse	1	n/a	n/a	5	69	Blank	Win	True
657.325	1.45	Win2	0.6286	n/a	Yes	3.223	n/a	5.0	GoodResponse	1	0.012	656.337	5	69	Feedback	Win	True
658.775	3.223	Win2	0.6286	n/a	Yes	3.223	n/a	n/a	GoodResponse	1	0.0	n/a	5	69	ISIslide	Win	True
662.024	0.25	Lose2	0.6338	0.0	Yes	3.026	0.024	n/a	GoodResponse	0	n/a	n/a	5	70	Cue	AvoidedLoss	True
662.274	4.05	Lose2	0.6338	0.0	Yes	3.026	0.0	n/a	GoodResponse	0	n/a	n/a	5	70	Fixation	AvoidedLoss	True
666.322	0.2	Lose2	0.6338	0.002	Yes	3.026	-0.002	2.0	GoodResponse	0	0.177	665.499	5	70	Target	AvoidedLoss	True
666.499	0.3	Lose2	0.6338	0.002	Yes	3.026	-0.002	2.0	GoodResponse	0	0.177	n/a	5	70	ButtonPress	AvoidedLoss	True
666.522	0.5	Lose2	0.6338	n/a	Yes	3.026	n/a	n/a	GoodResponse	0	n/a	n/a	5	70	Blank	AvoidedLoss	True
667.022	1.45	Lose2	0.6338	n/a	Yes	3.026	n/a	5.0	GoodResponse	0	0.022	666.044	5	70	Feedback	AvoidedLoss	True
668.471	3.026	Lose2	0.6338	n/a	Yes	3.026	n/a	n/a	GoodResponse	0	0.0	n/a	5	70	ISIslide	AvoidedLoss	True
671.52	0.25	Win2	0.6389	0.0	Yes	2.73	0.02	n/a	GoodResponse	1	n/a	n/a	6	71	Cue	Win	True
671.77	4.05	Win2	0.6389	0.0	Yes	2.73	0.0	n/a	GoodResponse	1	n/a	n/a	6	71	Fixation	Win	True
675.819	0.21	Win2	0.6389	0.001	Yes	2.73	-0.001	2.0	GoodResponse	1	0.161	674.98	6	71	Target	Win	True
675.98	0.3	Win2	0.6389	0.001	Yes	2.73	-0.001	2.0	GoodResponse	1	0.161	n/a	6	71	ButtonPress	Win	True
676.035	0.49	Win2	0.6389	n/a	Yes	2.73	n/a	n/a	GoodResponse	1	n/a	n/a	6	71	Blank	Win	True
676.519	1.45	Win2	0.6389	n/a	Yes	2.73	n/a	5.0	GoodResponse	1	0.036	675.555	6	71	Feedback	Win	True
677.968	2.73	Win2	0.6389	n/a	Yes	2.73	n/a	n/a	GoodResponse	1	0.0	n/a	6	71	ISIslide	Win	True
680.717	0.25	Win2	0.6437999999999999	0.0	Yes	2.783	0.017	n/a	GoodResponse	1	n/a	n/a	7	72	Cue	Win	True
680.967	4.1	Win2	0.6437999999999999	0.0	Yes	2.783	0.0	n/a	GoodResponse	1	n/a	n/a	7	72	Fixation	Win	True
685.066	0.22	Win2	0.6437999999999999	0.001	Yes	2.783	-0.001	2.0	GoodResponse	1	0.168	684.234	7	72	Target	Win	True
685.234	0.3	Win2	0.6437999999999999	0.001	Yes	2.783	-0.001	2.0	GoodResponse	1	0.168	n/a	7	72	ButtonPress	Win	True
685.299	0.48	Win2	0.6437999999999999	n/a	Yes	2.783	n/a	n/a	GoodResponse	1	n/a	n/a	7	72	Blank	Win	True
685.765	1.45	Win2	0.6437999999999999	n/a	Yes	2.783	n/a	5.0	GoodResponse	1	0.01	684.775	7	72	Feedback	Win	True
687.215	2.783	Win2	0.6437999999999999	n/a	Yes	2.783	n/a	n/a	GoodResponse	1	0.0	n/a	7	72	ISIslide	Win	True
690.014	0.25	Win2	0.6486	0.0	Yes	2.686	0.014	n/a	GoodResponse	1	n/a	n/a	8	73	Cue	Win	True
690.264	4.0	Win2	0.6486	0.0	Yes	2.686	0.0	n/a	GoodResponse	1	n/a	n/a	8	73	Fixation	Win	True
694.262	0.23	Win2	0.6486	0.002	Yes	2.686	-0.002	2.0	GoodResponse	1	0.182	693.444	8	73	Target	Win	True
694.444	0.3	Win2	0.6486	0.002	Yes	2.686	-0.002	2.0	GoodResponse	1	0.182	n/a	8	73	ButtonPress	Win	True
694.496	0.47	Win2	0.6486	n/a	Yes	2.686	n/a	n/a	GoodResponse	1	n/a	n/a	8	73	Blank	Win	True
694.962	1.45	Win2	0.6486	n/a	Yes	2.686	n/a	5.0	GoodResponse	1	0.033	693.995	8	73	Feedback	Win	True
696.412	2.686	Win2	0.6486	n/a	Yes	2.686	n/a	n/a	GoodResponse	1	0.0	n/a	8	73	ISIslide	Win	True
699.127	0.25	Lose2	0.6533	0.0	Yes	2.623	0.027	n/a	GoodResponse	0	n/a	n/a	8	74	Cue	AvoidedLoss	True
699.377	4.05	Lose2	0.6533	0.0	Yes	2.623	0.0	n/a	GoodResponse	0	n/a	n/a	8	74	Fixation	AvoidedLoss	True
703.426	0.24	Lose2	0.6533	0.001	Yes	2.623	-0.001	2.0	GoodResponse	0	0.156	702.582	8	74	Target	AvoidedLoss	True
703.582	0.3	Lose2	0.6533	0.001	Yes	2.623	-0.001	2.0	GoodResponse	0	0.156	n/a	8	74	ButtonPress	AvoidedLoss	True
703.676	0.46	Lose2	0.6533	n/a	Yes	2.623	n/a	n/a	GoodResponse	0	n/a	n/a	8	74	Blank	AvoidedLoss	True
704.126	1.45	Lose2	0.6533	n/a	Yes	2.623	n/a	5.0	GoodResponse	0	0.039	703.165	8	74	Feedback	AvoidedLoss	True
705.575	2.623	Lose2	0.6533	n/a	Yes	2.623	n/a	n/a	GoodResponse	0	0.0	n/a	8	74	ISIslide	AvoidedLoss	True
708.224	0.25	Lose2	0.6579	0.0	Yes	2.926	0.024	n/a	GoodResponse	0	n/a	n/a	8	75	Cue	AvoidedLoss	True
708.474	3.95	Lose2	0.6579	0.0	Yes	2.926	0.0	n/a	GoodResponse	0	n/a	n/a	8	75	Fixation	AvoidedLoss	True
712.423	0.25	Lose2	0.6579	0.001	Yes	2.926	-0.001	2.0	GoodResponse	0	0.184	711.607	8	75	Target	AvoidedLoss	True
712.607	0.3	Lose2	0.6579	0.001	Yes	2.926	-0.001	2.0	GoodResponse	0	0.184	n/a	8	75	ButtonPress	AvoidedLoss	True
712.673	0.45	Lose2	0.6579	n/a	Yes	2.926	n/a	n/a	GoodResponse	0	n/a	n/a	8	75	Blank	AvoidedLoss	True
713.122	1.45	Lose2	0.6579	n/a	Yes	2.926	n/a	5.0	GoodResponse	0	0.019	712.141	8	75	Feedback	AvoidedLoss	True
714.572	2.926	Lose2	0.6579	n/a	Yes	2.926	n/a	n/a	GoodResponse	0	0.0	n/a	8	75	ISIslide	AvoidedLoss	True
717.521	0.25	Control	0.6623	0.0	Yes	3.229	0.021	n/a	GoodResponse	0	n/a	n/a	8	76	Cue	Neutral	True
717.771	4.05	Control	0.6623	0.0	Yes	3.229	0.0	n/a	GoodResponse	0	n/a	n/a	8	76	Fixation	Neutral	True
721.819	0.25	Control	0.6623	0.002	Yes	3.229	-0.002	2.0	GoodResponse	0	0.176	720.995	8	76	Target	Neutral	True
721.995	0.3	Control	0.6623	0.002	Yes	3.229	-0.002	2.0	GoodResponse	0	0.176	n/a	8	76	ButtonPress	Neutral	True
722.069	0.45	Control	0.6623	n/a	Yes	3.229	n/a	n/a	GoodResponse	0	n/a	n/a	8	76	Blank	Neutral	True
722.519	1.45	Control	0.6623	n/a	Yes	3.229	n/a	5.0	GoodResponse	0	0.037	721.556	8	76	Feedback	Neutral	True
723.969	3.229	Control	0.6623	n/a	Yes	3.229	n/a	n/a	GoodResponse	0	0.0	n/a	8	76	ISIslide	Neutral	True
727.218	0.25	Lose2	0.6667000000000001	0.0	Yes	2.582	0.018	n/a	GoodResponse	0	n/a	n/a	8	77	Cue	AvoidedLoss	True
727.467	3.95	Lose2	0.6667000000000001	0.001	Yes	2.582	-0.001	n/a	GoodResponse	0	n/a	n/a	8	77	Fixation	AvoidedLoss	True
731.416	0.25	Lose2	0.6667000000000001	0.002	Yes	2.582	-0.002	2.0	GoodResponse	0	0.229	730.645	8	77	Target	AvoidedLoss	True
731.645	0.3	Lose2	0.6667000000000001	0.002	Yes	2.582	-0.002	2.0	GoodResponse	0	0.229	n/a	8	77	ButtonPress	AvoidedLoss	True
731.666	0.45	Lose2	0.6667000000000001	n/a	Yes	2.582	n/a	n/a	GoodResponse	0	n/a	n/a	8	77	Blank	AvoidedLoss	True
732.116	1.45	Lose2	0.6667000000000001	n/a	Yes	2.582	n/a	5.0	GoodResponse	0	0.0	731.116	8	77	Feedback	AvoidedLoss	True
733.565	2.582	Lose2	0.6667000000000001	n/a	Yes	2.582	n/a	n/a	GoodResponse	0	0.0	n/a	8	77	ISIslide	AvoidedLoss	True
