onset	duration	cue_type	current_mean_accuracy	duration_error	is_hit	isi_adjusted	onset_delay	response	response_type	reward	rt	rt_time	total_reward	trial_number	trial_phase	trial_type	one_press
11.108	0.25	Control	1.0	0.001	Yes	2.942	0.008	n/a	GoodResponse	0	n/a	n/a	0	0	Cue	Neutral	True
11.358	3.85	Control	1.0	0.0	Yes	2.942	0.0	n/a	GoodResponse	0	n/a	n/a	0	0	Fixation	Neutral	True
15.207	0.4	Control	1.0	0.001	Yes	2.942	-0.001	4.0	GoodResponse	0	0.351	14.558	0	0	Target	Neutral	True
15.558	0.3	Control	1.0	0.001	Yes	2.942	-0.001	4.0	GoodResponse	0	0.351	n/a	0	0	ButtonPress	Neutral	True
15.607	0.3	Control	1.0	n/a	Yes	2.942	n/a	n/a	GoodResponse	0	n/a	n/a	0	0	Blank	Neutral	True
15.907	1.45	Control	1.0	n/a	Yes	2.942	n/a	5.0	GoodResponse	0	0.022	14.929	0	0	Feedback	Neutral	True
17.356	2.942	Control	1.0	n/a	Yes	2.942	n/a	n/a	GoodResponse	0	0.0	n/a	0	0	ISIslide	Neutral	True
20.322	0.25	Lose2	1.0	0.0	Yes	2.778	0.022	n/a	GoodResponse	0	n/a	n/a	0	1	Cue	AvoidedLoss	True
20.572	4.0	Lose2	1.0	0.0	Yes	2.778	0.0	n/a	GoodResponse	0	n/a	n/a	0	1	Fixation	AvoidedLoss	True
24.57	0.39	Lose2	1.0	0.002	Yes	2.778	-0.002	4.0	GoodResponse	0	0.271	23.841	0	1	Target	AvoidedLoss	True
24.841	0.3	Lose2	1.0	0.002	Yes	2.778	-0.002	4.0	GoodResponse	0	0.271	n/a	0	1	ButtonPress	AvoidedLoss	True
24.97	0.31	Lose2	1.0	n/a	Yes	2.778	n/a	n/a	GoodResponse	0	n/a	n/a	0	1	Blank	AvoidedLoss	True
25.27	1.45	Lose2	1.0	n/a	Yes	2.778	n/a	5.0	GoodResponse	0	0.025	24.295	0	1	Feedback	AvoidedLoss	True
26.72	2.778	Lose2	1.0	n/a	Yes	2.778	n/a	n/a	GoodResponse	0	0.0	n/a	0	1	ISIslide	AvoidedLoss	True
29.519	0.25	Control	1.0	0.0	Yes	2.581	0.019	n/a	GoodResponse	0	n/a	n/a	0	2	Cue	Neutral	True
29.769	4.1	Control	1.0	0.0	Yes	2.581	0.0	n/a	GoodResponse	0	n/a	n/a	0	2	Fixation	Neutral	True
33.867	0.38	Control	1.0	0.002	Yes	2.581	-0.002	4.0	GoodResponse	0	0.257	33.124	0	2	Target	Neutral	True
34.124	0.3	Control	1.0	0.002	Yes	2.581	-0.002	4.0	GoodResponse	0	0.257	n/a	0	2	ButtonPress	Neutral	True
34.25	0.32	Control	1.0	n/a	Yes	2.581	n/a	n/a	GoodResponse	0	n/a	n/a	0	2	Blank	Neutral	True
34.567	1.45	Control	1.0	n/a	Yes	2.581	n/a	5.0	GoodResponse	0	0.045	33.612	0	2	Feedback	Neutral	True
36.017	2.581	Control	1.0	n/a	Yes	2.581	n/a	n/a	GoodResponse	0	0.0	n/a	0	2	ISIslide	Neutral	True
38.616	0.25	Win2	1.0	0.0	Yes	2.834	0.016	n/a	GoodResponse	1	n/a	n/a	1	3	Cue	Win	True
38.866	3.95	Win2	1.0	0.0	Yes	2.834	0.0	n/a	GoodResponse	1	n/a	n/a	1	3	Fixation	Win	True
42.814	0.37	Win2	1.0	0.002	Yes	2.834	-0.002	4.0	GoodResponse	1	0.271	42.085	1	3	Target	Win	True
43.085	0.3	Win2	1.0	0.002	Yes	2.834	-0.002	4.0	GoodResponse	1	0.271	n/a	1	3	ButtonPress	Win	True
43.197	0.33	Win2	1.0	n/a	Yes	2.834	n/a	n/a	GoodResponse	1	n/a	n/a	1	3	Blank	Win	True
43.514	1.45	Win2	1.0	n/a	Yes	2.834	n/a	5.0	GoodResponse	1	0.025	42.539	1	3	Feedback	Win	True
44.963	2.834	Win2	1.0	n/a	Yes	2.834	n/a	n/a	GoodResponse	1	0.0	n/a	1	3	ISIslide	Win	True
47.812	0.25	Win2	1.0	0.001	Yes	3.288	0.012	n/a	GoodResponse	1	n/a	n/a	2	4	Cue	Win	True
48.062	4.0	Win2	1.0	0.0	Yes	3.288	0.0	n/a	GoodResponse	1	n/a	n/a	2	4	Fixation	Win	True
52.061	0.36	Win2	1.0	0.001	Yes	3.288	-0.001	4.0	GoodResponse	1	0.242	51.303	2	4	Target	Win	True
52.303	0.3	Win2	1.0	0.001	Yes	3.288	-0.001	4.0	GoodResponse	1	0.242	n/a	2	4	ButtonPress	Win	True
52.427	0.34	Win2	1.0	n/a	Yes	3.288	n/a	n/a	GoodResponse	1	n/a	n/a	2	4	Blank	Win	True
52.761	1.45	Win2	1.0	n/a	Yes	3.288	n/a	5.0	GoodResponse	1	0.046	51.807	2	4	Feedback	Win	True
54.21	3.288	Win2	1.0	n/a	Yes	3.288	n/a	n/a	GoodResponse	1	0.0	n/a	2	4	ISIslide	Win	True
57.526	0.25	Win2	1.0	0.0	Yes	2.774	0.026	n/a	GoodResponse	1	n/a	n/a	3	5	Cue	Win	True
57.776	4.0	Win2	1.0	0.0	Yes	2.774	0.0	n/a	GoodResponse	1	n/a	n/a	3	5	Fixation	Win	True
61.774	0.35	Win2	1.0	0.002	Yes	2.774	-0.002	4.0	GoodResponse	1	0.312	61.086	3	5	Target	Win	True
62.086	0.3	Win2	1.0	0.002	Yes	2.774	-0.002	4.0	GoodResponse	1	0.312	n/a	3	5	ButtonPress	Win	True
62.124	0.35	Win2	1.0	n/a	Yes	2.774	n/a	n/a	GoodResponse	1	n/a	n/a	3	5	Blank	Win	True
62.474	1.45	Win2	1.0	n/a	Yes	2.774	n/a	5.0	GoodResponse	1	0.04	61.514	3	5	Feedback	Win	True
63.924	2.774	Win2	1.0	n/a	Yes	2.774	n/a	n/a	GoodResponse	1	0.0	n/a	3	5	ISIslide	Win	True
66.723	0.25	Lose2	1.0	0.0	Yes	2.727	0.023	n/a	GoodResponse	0	n/a	n/a	3	6	Cue	AvoidedLoss	True
66.972	3.95	Lose2	1.0	0.001	Yes	2.727	-0.001	n/a	GoodResponse	0	n/a	n/a	3	6	Fixation	AvoidedLoss	True
70.921	0.34	Lose2	1.0	0.002	Yes	2.727	-0.002	4.0	GoodResponse	0	0.257	70.178	3	6	Target	AvoidedLoss	True
71.178	0.3	Lose2	1.0	0.002	Yes	2.727	-0.002	4.0	GoodResponse	0	0.257	n/a	3	6	ButtonPress	AvoidedLoss	True
71.271	0.36	Lose2	1.0	n/a	Yes	2.727	n/a	n/a	GoodResponse	0	n/a	n/a	3	6	Blank	AvoidedLoss	True
71.621	1.45	Lose2	1.0	n/a	Yes	2.727	n/a	5.0	GoodResponse	0	0.015	70.636	3	6	Feedback	AvoidedLoss	True
73.07	2.727	Lose2	1.0	n/a	Yes	2.727	n/a	n/a	GoodResponse	0	0.0	n/a	3	6	ISIslide	AvoidedLoss	True
75.819	0.25	Lose2	1.0	0.0	Yes	4.031	0.019	n/a	GoodResponse	0	n/a	n/a	3	7	Cue	AvoidedLoss	True
76.069	4.05	Lose2	1.0	0.0	Yes	4.031	0.0	n/a	GoodResponse	0	n/a	n/a	3	7	Fixation	AvoidedLoss	True
80.118	0.33	Lose2	1.0	0.001	Yes	4.031	-0.001	4.0	GoodResponse	0	0.259	79.377	3	7	Target	AvoidedLoss	True
80.377	0.3	Lose2	1.0	0.001	Yes	4.031	-0.001	4.0	GoodResponse	0	0.259	n/a	3	7	ButtonPress	AvoidedLoss	True
80.451	0.37	Lose2	1.0	n/a	Yes	4.031	n/a	n/a	GoodResponse	0	n/a	n/a	3	7	Blank	AvoidedLoss	True
80.818	1.45	Lose2	1.0	n/a	Yes	4.031	n/a	5.0	GoodResponse	0	0.037	79.855	3	7	Feedback	AvoidedLoss	True
82.267	4.031	Lose2	1.0	n/a	Yes	4.031	n/a	n/a	GoodResponse	0	0.0	n/a	3	7	ISIslide	AvoidedLoss	True
86.316	0.25	Lose2	1.0	0.0	Yes	3.034	0.016	n/a	GoodResponse	0	n/a	n/a	3	8	Cue	AvoidedLoss	True
86.566	3.95	Lose2	1.0	0.0	Yes	3.034	0.0	n/a	GoodResponse	0	n/a	n/a	3	8	Fixation	AvoidedLoss	True
90.514	0.32	Lose2	1.0	0.002	Yes	3.034	-0.002	4.0	GoodResponse	0	0.276	89.79	3	8	Target	AvoidedLoss	True
90.79	0.3	Lose2	1.0	0.002	Yes	3.034	-0.002	4.0	GoodResponse	0	0.276	n/a	3	8	ButtonPress	AvoidedLoss	True
90.848	0.38	Lose2	1.0	n/a	Yes	3.034	n/a	n/a	GoodResponse	0	n/a	n/a	3	8	Blank	AvoidedLoss	True
91.214	1.45	Lose2	1.0	n/a	Yes	3.034	n/a	5.0	GoodResponse	0	0.032	90.246	3	8	Feedback	AvoidedLoss	True
92.664	3.034	Lose2	1.0	n/a	Yes	3.034	n/a	n/a	GoodResponse	0	0.0	n/a	3	8	ISIslide	AvoidedLoss	True
95.713	0.25	Lose2	1.0	0.0	Yes	3.137	0.013	n/a	GoodResponse	0	n/a	n/a	3	9	Cue	AvoidedLoss	True
95.962	3.95	Lose2	1.0	0.001	Yes	3.137	-0.001	n/a	GoodResponse	0	n/a	n/a	3	9	Fixation	AvoidedLoss	True
99.911	0.31	Lose2	1.0	0.002	Yes	3.137	-0.002	4.0	GoodResponse	0	0.286	99.197	3	9	Target	AvoidedLoss	True
100.197	0.3	Lose2	1.0	0.002	Yes	3.137	-0.002	4.0	GoodResponse	0	0.286	n/a	3	9	ButtonPress	AvoidedLoss	True
100.228	0.39	Lose2	1.0	n/a	Yes	3.137	n/a	n/a	GoodResponse	0	n/a	n/a	3	9	Blank	AvoidedLoss	True
100.611	1.45	Lose2	1.0	n/a	Yes	3.137	n/a	5.0	GoodResponse	0	0.001	99.612	3	9	Feedback	AvoidedLoss	True
102.06	3.137	Lose2	1.0	n/a	Yes	3.137	n/a	n/a	GoodResponse	0	0.0	n/a	3	9	ISIslide	AvoidedLoss	True
105.226	0.25	Control	0.9091	0.0	No	3.274	0.026	n/a	NoResponse	0	n/a	n/a	3	10	Cue	Neutral	True
105.476	4.0	Control	0.9091	0.0	No	3.274	0.0	n/a	NoResponse	0	n/a	n/a	3	10	Fixation	Neutral	True
109.474	0.3	Control	0.9091	0.002	No	3.274	-0.002	4.0	NoResponse	0	0.321	108.795	3	10	Target	Neutral	True
109.774	0.4	Control	0.9091	n/a	No	3.274	n/a	n/a	NoResponse	0	n/a	n/a	3	10	Blank	Neutral	True
109.795	0.3	Control	0.9091	0.002	No	3.274	-0.002	4.0	NoResponse	0	0.321	n/a	3	10	ButtonPress	Neutral	True
110.174	1.45	Control	0.9091	n/a	No	3.274	n/a	5.0	NoResponse	0	0.048	109.222	3	10	Feedback	Neutral	True
111.624	3.274	Control	0.9091	n/a	No	3.274	n/a	n/a	NoResponse	0	0.0	n/a	3	10	ISIslide	Neutral	True
114.923	0.25	Lose2	0.9167000000000001	0.0	Yes	2.727	0.023	n/a	GoodResponse	0	n/a	n/a	3	11	Cue	AvoidedLoss	True
115.172	4.05	Lose2	0.9167000000000001	0.001	Yes	2.727	-0.001	n/a	GoodResponse	0	n/a	n/a	3	11	Fixation	AvoidedLoss	True
119.221	0.29	Lose2	0.9167000000000001	0.002	Yes	2.727	-0.002	4.0	GoodResponse	0	0.273	118.494	3	11	Target	AvoidedLoss	True
119.494	0.3	Lose2	0.9167000000000001	0.002	Yes	2.727	-0.002	4.0	GoodResponse	0	0.273	n/a	3	11	ButtonPress	AvoidedLoss	True
119.521	0.41	Lose2	0.9167000000000001	n/a	Yes	2.727	n/a	n/a	GoodResponse	0	n/a	n/a	3	11	Blank	AvoidedLoss	True
119.921	1.45	Lose2	0.9167000000000001	n/a	Yes	2.727	n/a	5.0	GoodResponse	0	0.008	118.929	3	11	Feedback	AvoidedLoss	True
121.37	2.727	Lose2	0.9167000000000001	n/a	Yes	2.727	n/a	n/a	GoodResponse	0	0.0	n/a	3	11	ISIslide	AvoidedLoss	True
124.119	0.25	Control	0.8462000000000001	0.0	No	2.981	0.019	n/a	NoResponse	0	n/a	n/a	3	12	Cue	Neutral	True
124.369	3.9	Control	0.8462000000000001	0.0	No	2.981	0.0	n/a	NoResponse	0	n/a	n/a	3	12	Fixation	Neutral	True
128.268	0.28	Control	0.8462000000000001	0.001	No	2.981	-0.001	4.0	NoResponse	0	0.289	127.557	3	12	Target	Neutral	True
128.551	0.42	Control	0.8462000000000001	n/a	No	2.981	n/a	n/a	NoResponse	0	n/a	n/a	3	12	Blank	Neutral	True
128.557	0.3	Control	0.8462000000000001	0.001	No	2.981	-0.001	4.0	NoResponse	0	0.289	n/a	3	12	ButtonPress	Neutral	True
128.968	1.45	Control	0.8462000000000001	n/a	No	2.981	n/a	5.0	NoResponse	0	0.033	128.001	3	12	Feedback	Neutral	True
130.417	2.981	Control	0.8462000000000001	n/a	No	2.981	n/a	n/a	NoResponse	0	0.0	n/a	3	12	ISIslide	Neutral	True
133.416	0.25	Control	0.7857	0.0	No	2.784	0.016	n/a	NoResponse	0	n/a	n/a	3	13	Cue	Neutral	True
133.666	4.0	Control	0.7857	0.0	No	2.784	0.0	n/a	NoResponse	0	n/a	n/a	3	13	Fixation	Neutral	True
137.665	0.27	Control	0.7857	0.001	No	2.784	-0.001	4.0	NoResponse	0	0.3	136.965	3	13	Target	Neutral	True
137.948	0.43	Control	0.7857	n/a	No	2.784	n/a	n/a	NoResponse	0	n/a	n/a	3	13	Blank	Neutral	True
137.965	0.3	Control	0.7857	0.001	No	2.784	-0.001	4.0	NoResponse	0	0.3	n/a	3	13	ButtonPress	Neutral	True
138.364	1.45	Control	0.7857	n/a	No	2.784	n/a	5.0	NoResponse	0	0.005	137.369	3	13	Feedback	Neutral	True
139.814	2.784	Control	0.7857	n/a	No	2.784	n/a	n/a	NoResponse	0	0.0	n/a	3	13	ISIslide	Neutral	True
142.613	0.25	Win2	0.7333	0.0	No	2.687	0.013	n/a	NoResponse	0	n/a	n/a	3	14	Cue	MissedWin	True
142.863	4.1	Win2	0.7333	0.0	No	2.687	0.0	n/a	NoResponse	0	n/a	n/a	3	14	Fixation	MissedWin	True
146.961	0.26	Win2	0.7333	0.002	No	2.687	-0.002	4.0	NoResponse	0	0.299	146.26	3	14	Target	MissedWin	True
147.228	0.44	Win2	0.7333	n/a	No	2.687	n/a	n/a	NoResponse	0	n/a	n/a	3	14	Blank	MissedWin	True
147.26	0.3	Win2	0.7333	0.002	No	2.687	-0.002	4.0	NoResponse	0	0.299	n/a	3	14	ButtonPress	MissedWin	True
147.661	1.45	Win2	0.7333	n/a	No	2.687	n/a	5.0	NoResponse	0	0.023	146.684	3	14	Feedback	MissedWin	True
149.111	2.687	Win2	0.7333	n/a	No	2.687	n/a	n/a	NoResponse	0	0.0	n/a	3	14	ISIslide	MissedWin	True
151.826	0.25	Control	0.75	0.001	Yes	2.974	0.026	n/a	GoodResponse	0	n/a	n/a	3	15	Cue	Neutral	True
152.076	4.0	Control	0.75	0.0	Yes	2.974	0.0	n/a	GoodResponse	0	n/a	n/a	3	15	Fixation	Neutral	True
156.075	0.25	Control	0.75	0.001	Yes	2.974	-0.001	4.0	GoodResponse	0	0.236	155.311	3	15	Target	Neutral	True
156.311	0.3	Control	0.75	0.001	Yes	2.974	-0.001	4.0	GoodResponse	0	0.236	n/a	3	15	ButtonPress	Neutral	True
156.325	0.45	Control	0.75	n/a	Yes	2.974	n/a	n/a	GoodResponse	0	n/a	n/a	3	15	Blank	Neutral	True
156.775	1.45	Control	0.75	n/a	Yes	2.974	n/a	5.0	GoodResponse	0	0.032	155.807	3	15	Feedback	Neutral	True
158.224	2.974	Control	0.75	n/a	Yes	2.974	n/a	n/a	GoodResponse	0	0.0	n/a	3	15	ISIslide	Neutral	True
161.223	0.25	Win2	0.7059000000000001	0.0	No	2.877	0.023	n/a	NoResponse	0	n/a	n/a	3	16	Cue	MissedWin	False
161.473	4.0	Win2	0.7059000000000001	0.0	No	2.877	0.0	4.0	NoResponse	0	3.807	164.28	3	16	Fixation	MissedWin	False
165.28	0.3	Win2	0.7059000000000001	0.0	No	2.877	0.0	4.0	NoResponse	0	3.807	n/a	3	16	ButtonPress	MissedWin	False
165.472	0.24	Win2	0.7059000000000001	0.001	No	2.877	-0.001	4.0	NoResponse	0	0.348	164.82	3	16	Target	MissedWin	False
165.722	0.46	Win2	0.7059000000000001	n/a	No	2.877	n/a	n/a	NoResponse	0	n/a	n/a	3	16	Blank	MissedWin	False
165.82	0.3	Win2	0.7059000000000001	0.001	No	2.877	-0.001	4.0	NoResponse	0	0.348	n/a	3	16	ButtonPress	MissedWin	False
166.172	1.45	Win2	0.7059000000000001	n/a	No	2.877	n/a	5.0	NoResponse	0	0.001	165.173	3	16	Feedback	MissedWin	False
167.621	2.877	Win2	0.7059000000000001	n/a	No	2.877	n/a	n/a	NoResponse	0	0.0	n/a	3	16	ISIslide	MissedWin	False
170.52	0.25	Lose2	0.6667000000000001	0.0	No	2.73	0.02	n/a	NoResponse	-1	n/a	n/a	2	17	Cue	Loss	True
170.77	3.95	Lose2	0.6667000000000001	0.0	No	2.73	0.0	n/a	NoResponse	-1	n/a	n/a	2	17	Fixation	Loss	True
174.719	0.23	Lose2	0.6667000000000001	0.001	No	2.73	-0.001	4.0	NoResponse	-1	0.312	174.031	2	17	Target	Loss	True
174.952	0.47	Lose2	0.6667000000000001	n/a	No	2.73	n/a	n/a	NoResponse	-1	n/a	n/a	2	17	Blank	Loss	True
175.031	0.3	Lose2	0.6667000000000001	0.001	No	2.73	-0.001	4.0	NoResponse	-1	0.312	n/a	2	17	ButtonPress	Loss	True
175.418	1.45	Lose2	0.6667000000000001	n/a	No	2.73	n/a	5.0	NoResponse	-1	0.023	174.441	2	17	Feedback	Loss	True
176.868	2.73	Lose2	0.6667000000000001	n/a	No	2.73	n/a	4.0	NoResponse	-1	0.426	n/a	2	17	ISIslide	Loss	True
179.6	0.25	Lose2	0.6315999999999999	0.0	No	2.75	0.0	4.0	NoResponse	-1	0.061	178.661	1	18	Cue	Loss	False
179.661	0.3	Lose2	0.6315999999999999	0.0	No	2.75	0.0	4.0	NoResponse	-1	0.061	n/a	1	18	ButtonPress	Loss	False
179.85	4.05	Lose2	0.6315999999999999	0.0	No	2.75	0.0	4.0	NoResponse	-1	0.104	178.954	1	18	Fixation	Loss	False
179.954	0.3	Lose2	0.6315999999999999	0.0	No	2.75	0.0	4.0	NoResponse	-1	0.104	n/a	1	18	ButtonPress	Loss	False
183.899	0.22	Lose2	0.6315999999999999	0.001	No	2.75	-0.001	4.0	NoResponse	-1	0.251	183.15	1	18	Target	Loss	False
184.132	0.48	Lose2	0.6315999999999999	n/a	No	2.75	n/a	n/a	NoResponse	-1	n/a	n/a	1	18	Blank	Loss	False
184.15	0.3	Lose2	0.6315999999999999	0.001	No	2.75	-0.001	4.0	NoResponse	-1	0.251	n/a	1	18	ButtonPress	Loss	False
184.598	1.45	Lose2	0.6315999999999999	n/a	No	2.75	n/a	5.0	NoResponse	-1	0.013	183.611	1	18	Feedback	Loss	False
186.048	2.75	Lose2	0.6315999999999999	n/a	No	2.75	n/a	n/a	NoResponse	-1	0.0	n/a	1	18	ISIslide	Loss	False
188.814	0.25	Control	0.6	0.0	No	2.936	0.014	n/a	NoResponse	0	n/a	n/a	1	19	Cue	Neutral	True
189.064	3.95	Control	0.6	0.0	No	2.936	0.0	n/a	NoResponse	0	n/a	n/a	1	19	Fixation	Neutral	True
193.012	0.23	Control	0.6	0.002	No	2.936	-0.002	4.0	NoResponse	0	0.263	192.275	1	19	Target	Neutral	True
193.245	0.47	Control	0.6	n/a	No	2.936	n/a	n/a	NoResponse	0	n/a	n/a	1	19	Blank	Neutral	True
193.275	0.3	Control	0.6	0.002	No	2.936	-0.002	4.0	NoResponse	0	0.263	n/a	1	19	ButtonPress	Neutral	True
193.712	1.45	Control	0.6	n/a	No	2.936	n/a	5.0	NoResponse	0	0.021	192.733	1	19	Feedback	Neutral	True
195.161	2.936	Control	0.6	n/a	No	2.936	n/a	n/a	NoResponse	0	0.0	n/a	1	19	ISIslide	Neutral	True
198.127	0.25	Control	0.5714	0.0	No	2.623	0.027	n/a	NoResponse	0	n/a	n/a	1	20	Cue	Neutral	False
198.377	4.05	Control	0.5714	0.0	No	2.623	0.0	4.0	NoResponse	0	0.045	197.422	1	20	Fixation	Neutral	False
198.422	0.3	Control	0.5714	0.0	No	2.623	0.0	4.0	NoResponse	0	0.045	n/a	1	20	ButtonPress	Neutral	False
202.426	0.24	Control	0.5714	0.001	No	2.623	-0.001	4.0	NoResponse	0	0.266	201.692	1	20	Target	Neutral	False
202.676	0.46	Control	0.5714	n/a	No	2.623	n/a	n/a	NoResponse	0	n/a	n/a	1	20	Blank	Neutral	False
202.692	0.3	Control	0.5714	0.001	No	2.623	-0.001	4.0	NoResponse	0	0.266	n/a	1	20	ButtonPress	Neutral	False
203.125	1.45	Control	0.5714	n/a	No	2.623	n/a	5.0	NoResponse	0	0.023	202.148	1	20	Feedback	Neutral	False
204.575	2.623	Control	0.5714	n/a	No	2.623	n/a	n/a	NoResponse	0	0.0	n/a	1	20	ISIslide	Neutral	False
207.224	0.25	Control	0.5909	0.0	Yes	2.776	0.024	n/a	GoodResponse	0	n/a	n/a	1	21	Cue	Neutral	True
207.474	4.1	Control	0.5909	0.0	Yes	2.776	0.0	n/a	GoodResponse	0	n/a	n/a	1	21	Fixation	Neutral	True
211.572	0.25	Control	0.5909	0.002	Yes	2.776	-0.002	4.0	GoodResponse	0	0.239	210.811	1	21	Target	Neutral	True
211.811	0.3	Control	0.5909	0.002	Yes	2.776	-0.002	4.0	GoodResponse	0	0.239	n/a	1	21	ButtonPress	Neutral	True
211.822	0.45	Control	0.5909	n/a	Yes	2.776	n/a	n/a	GoodResponse	0	n/a	n/a	1	21	Blank	Neutral	True
212.272	1.45	Control	0.5909	n/a	Yes	2.776	n/a	5.0	GoodResponse	0	0.046	211.318	1	21	Feedback	Neutral	True
213.722	2.776	Control	0.5909	n/a	Yes	2.776	n/a	4.0	GoodResponse	0	1.147	n/a	1	21	ISIslide	Neutral	True
216.504	0.25	Control	0.6087	0.0	Yes	2.796	0.004	n/a	GoodResponse	0	n/a	n/a	1	22	Cue	Neutral	True
216.754	4.0	Control	0.6087	0.0	Yes	2.796	0.0	n/a	GoodResponse	0	n/a	n/a	1	22	Fixation	Neutral	True
220.753	0.26	Control	0.6087	0.001	Yes	2.796	-0.001	4.0	GoodResponse	0	0.243	219.996	1	22	Target	Neutral	True
220.996	0.3	Control	0.6087	0.001	Yes	2.796	-0.001	4.0	GoodResponse	0	0.243	n/a	1	22	ButtonPress	Neutral	True
221.019	0.44	Control	0.6087	n/a	Yes	2.796	n/a	n/a	GoodResponse	0	n/a	n/a	1	22	Blank	Neutral	True
221.452	1.45	Control	0.6087	n/a	Yes	2.796	n/a	5.0	GoodResponse	0	0.037	220.489	1	22	Feedback	Neutral	True
222.902	2.796	Control	0.6087	n/a	Yes	2.796	n/a	n/a	GoodResponse	0	0.0	n/a	1	22	ISIslide	Neutral	True
225.718	0.25	Control	0.625	0.0	Yes	2.782	0.018	n/a	GoodResponse	0	n/a	n/a	1	23	Cue	Neutral	True
225.967	3.9	Control	0.625	0.001	Yes	2.782	-0.001	n/a	GoodResponse	0	n/a	n/a	1	23	Fixation	Neutral	True
229.866	0.27	Control	0.625	0.002	Yes	2.782	-0.002	4.0	GoodResponse	0	0.233	229.099	1	23	Target	Neutral	True
230.099	0.3	Control	0.625	0.002	Yes	2.782	-0.002	4.0	GoodResponse	0	0.233	n/a	1	23	ButtonPress	Neutral	True
230.149	0.43	Control	0.625	n/a	Yes	2.782	n/a	n/a	GoodResponse	0	n/a	n/a	1	23	Blank	Neutral	True
230.566	1.45	Control	0.625	n/a	Yes	2.782	n/a	5.0	GoodResponse	0	0.045	229.611	1	23	Feedback	Neutral	True
232.015	2.782	Control	0.625	n/a	Yes	2.782	n/a	n/a	GoodResponse	0	0.0	n/a	1	23	ISIslide	Neutral	True
234.814	0.25	Win2	0.64	0.001	Yes	3.136	0.014	4.0	GoodResponse	1	0.219	234.033	2	24	Cue	Win	False
235.033	0.3	Win2	0.64	0.001	Yes	3.136	0.014	4.0	GoodResponse	1	0.219	n/a	2	24	ButtonPress	Win	False
235.064	3.95	Win2	0.64	0.0	Yes	3.136	0.0	4.0	GoodResponse	1	1.847	235.911	2	24	Fixation	Win	False
236.911	0.3	Win2	0.64	0.0	Yes	3.136	0.0	4.0	GoodResponse	1	1.847	n/a	2	24	ButtonPress	Win	False
239.013	0.28	Win2	0.64	0.001	Yes	3.136	-0.001	4.0	GoodResponse	1	0.246	238.259	2	24	Target	Win	False
239.259	0.3	Win2	0.64	0.001	Yes	3.136	-0.001	4.0	GoodResponse	1	0.246	n/a	2	24	ButtonPress	Win	False
239.296	0.42	Win2	0.64	n/a	Yes	3.136	n/a	n/a	GoodResponse	1	n/a	n/a	2	24	Blank	Win	False
239.713	1.45	Win2	0.64	n/a	Yes	3.136	n/a	5.0	GoodResponse	1	0.02	238.733	2	24	Feedback	Win	False
241.162	3.136	Win2	0.64	n/a	Yes	3.136	n/a	4.0	GoodResponse	1	1.084	n/a	2	24	ISIslide	Win	False
244.311	0.25	Win2	0.6154	0.0	No	3.089	0.011	n/a	NoResponse	0	n/a	n/a	2	25	Cue	MissedWin	True
244.561	4.0	Win2	0.6154	0.0	No	3.089	0.0	n/a	NoResponse	0	n/a	n/a	2	25	Fixation	MissedWin	True
248.56	0.29	Win2	0.6154	0.001	No	3.089	-0.001	4.0	NoResponse	0	0.409	247.969	2	25	Target	MissedWin	True
248.86	0.41	Win2	0.6154	n/a	No	3.089	n/a	n/a	NoResponse	0	n/a	n/a	2	25	Blank	MissedWin	True
248.969	0.3	Win2	0.6154	0.001	No	3.089	-0.001	4.0	NoResponse	0	0.409	n/a	2	25	ButtonPress	MissedWin	True
249.259	1.45	Win2	0.6154	n/a	No	3.089	n/a	5.0	NoResponse	0	0.035	248.294	2	25	Feedback	MissedWin	True
250.709	3.089	Win2	0.6154	n/a	No	3.089	n/a	n/a	NoResponse	0	0.0	n/a	2	25	ISIslide	MissedWin	True
253.825	0.25	Win2	0.6296	0.0	Yes	2.925	0.025	n/a	GoodResponse	1	n/a	n/a	3	26	Cue	Win	True
254.074	3.95	Win2	0.6296	0.001	Yes	2.925	-0.001	n/a	GoodResponse	1	n/a	n/a	3	26	Fixation	Win	True
258.023	0.3	Win2	0.6296	0.002	Yes	2.925	-0.002	4.0	GoodResponse	1	0.226	257.249	3	26	Target	Win	True
258.249	0.3	Win2	0.6296	0.002	Yes	2.925	-0.002	4.0	GoodResponse	1	0.226	n/a	3	26	ButtonPress	Win	True
258.323	0.4	Win2	0.6296	n/a	Yes	2.925	n/a	n/a	GoodResponse	1	n/a	n/a	3	26	Blank	Win	True
258.723	1.45	Win2	0.6296	n/a	Yes	2.925	n/a	5.0	GoodResponse	1	0.034	257.757	3	26	Feedback	Win	True
260.172	2.925	Win2	0.6296	n/a	Yes	2.925	n/a	n/a	GoodResponse	1	0.0	n/a	3	26	ISIslide	Win	True
263.121	0.25	Lose2	0.6429	0.0	Yes	2.829	0.021	n/a	GoodResponse	0	n/a	n/a	3	27	Cue	AvoidedLoss	True
263.371	4.05	Lose2	0.6429	0.0	Yes	2.829	0.0	n/a	GoodResponse	0	n/a	n/a	3	27	Fixation	AvoidedLoss	True
267.42	0.31	Lose2	0.6429	0.001	Yes	2.829	-0.001	4.0	GoodResponse	0	0.251	266.671	3	27	Target	AvoidedLoss	True
267.671	0.3	Lose2	0.6429	0.001	Yes	2.829	-0.001	4.0	GoodResponse	0	0.251	n/a	3	27	ButtonPress	AvoidedLoss	True
267.736	0.39	Lose2	0.6429	n/a	Yes	2.829	n/a	n/a	GoodResponse	0	n/a	n/a	3	27	Blank	AvoidedLoss	True
268.12	1.45	Lose2	0.6429	n/a	Yes	2.829	n/a	5.0	GoodResponse	0	0.007	267.127	3	27	Feedback	AvoidedLoss	True
269.569	2.829	Lose2	0.6429	n/a	Yes	2.829	n/a	n/a	GoodResponse	0	0.0	n/a	3	27	ISIslide	AvoidedLoss	True
272.418	0.25	Control	0.6552	0.0	Yes	2.832	0.018	n/a	GoodResponse	0	n/a	n/a	3	28	Cue	Neutral	True
272.668	4.05	Control	0.6552	0.0	Yes	2.832	0.0	n/a	GoodResponse	0	n/a	n/a	3	28	Fixation	Neutral	True
276.717	0.32	Control	0.6552	0.001	Yes	2.832	-0.001	4.0	GoodResponse	0	0.185	275.902	3	28	Target	Neutral	True
276.902	0.3	Control	0.6552	0.001	Yes	2.832	-0.001	4.0	GoodResponse	0	0.185	n/a	3	28	ButtonPress	Neutral	True
277.05	0.38	Control	0.6552	n/a	Yes	2.832	n/a	n/a	GoodResponse	0	n/a	n/a	3	28	Blank	Neutral	True
277.416	1.45	Control	0.6552	n/a	Yes	2.832	n/a	5.0	GoodResponse	0	0.024	276.44	3	28	Feedback	Neutral	True
278.866	2.832	Control	0.6552	n/a	Yes	2.832	n/a	n/a	GoodResponse	0	0.0	n/a	3	28	ISIslide	Neutral	True
281.715	0.25	Lose2	0.6667000000000001	0.0	Yes	2.835	0.015	n/a	GoodResponse	0	n/a	n/a	3	29	Cue	AvoidedLoss	True
281.965	3.95	Lose2	0.6667000000000001	0.0	Yes	2.835	0.0	n/a	GoodResponse	0	n/a	n/a	3	29	Fixation	AvoidedLoss	True
285.913	0.32	Lose2	0.6667000000000001	0.002	Yes	2.835	-0.002	4.0	GoodResponse	0	0.28	285.193	3	29	Target	AvoidedLoss	True
286.193	0.3	Lose2	0.6667000000000001	0.002	Yes	2.835	-0.002	4.0	GoodResponse	0	0.28	n/a	3	29	ButtonPress	AvoidedLoss	True
286.247	0.38	Lose2	0.6667000000000001	n/a	Yes	2.835	n/a	n/a	GoodResponse	0	n/a	n/a	3	29	Blank	AvoidedLoss	True
286.613	1.45	Lose2	0.6667000000000001	n/a	Yes	2.835	n/a	5.0	GoodResponse	0	0.047	285.66	3	29	Feedback	AvoidedLoss	True
288.063	2.835	Lose2	0.6667000000000001	n/a	Yes	2.835	n/a	n/a	GoodResponse	0	0.0	n/a	3	29	ISIslide	AvoidedLoss	True
290.928	0.25	Win2	0.6774	0.0	Yes	2.772	0.028	n/a	GoodResponse	1	n/a	n/a	4	30	Cue	Win	True
291.178	3.9	Win2	0.6774	0.0	Yes	2.772	0.0	n/a	GoodResponse	1	n/a	n/a	4	30	Fixation	Win	True
295.077	0.31	Win2	0.6774	0.001	Yes	2.772	-0.001	4.0	GoodResponse	1	0.241	294.318	4	30	Target	Win	True
295.318	0.3	Win2	0.6774	0.001	Yes	2.772	-0.001	4.0	GoodResponse	1	0.241	n/a	4	30	ButtonPress	Win	True
295.393	0.39	Win2	0.6774	n/a	Yes	2.772	n/a	n/a	GoodResponse	1	n/a	n/a	4	30	Blank	Win	True
295.777	1.45	Win2	0.6774	n/a	Yes	2.772	n/a	5.0	GoodResponse	1	0.007	294.784	4	30	Feedback	Win	True
297.226	2.772	Win2	0.6774	n/a	Yes	2.772	n/a	n/a	GoodResponse	1	0.0	n/a	4	30	ISIslide	Win	True
300.025	0.25	Lose2	0.6875	0.0	Yes	2.825	0.025	n/a	GoodResponse	0	n/a	n/a	4	31	Cue	AvoidedLoss	True
300.275	4.05	Lose2	0.6875	0.0	Yes	2.825	0.0	n/a	GoodResponse	0	n/a	n/a	4	31	Fixation	AvoidedLoss	True
304.324	0.3	Lose2	0.6875	0.001	Yes	2.825	-0.001	4.0	GoodResponse	0	0.25	303.574	4	31	Target	AvoidedLoss	True
304.574	0.3	Lose2	0.6875	0.001	Yes	2.825	-0.001	4.0	GoodResponse	0	0.25	n/a	4	31	ButtonPress	AvoidedLoss	True
304.624	0.4	Lose2	0.6875	n/a	Yes	2.825	n/a	n/a	GoodResponse	0	n/a	n/a	4	31	Blank	AvoidedLoss	True
305.023	1.45	Lose2	0.6875	n/a	Yes	2.825	n/a	5.0	GoodResponse	0	0.026	304.049	4	31	Feedback	AvoidedLoss	True
306.473	2.825	Lose2	0.6875	n/a	Yes	2.825	n/a	n/a	GoodResponse	0	0.0	n/a	4	31	ISIslide	AvoidedLoss	True
309.322	0.25	Lose2	0.6970000000000001	0.0	Yes	2.628	0.022	n/a	GoodResponse	0	n/a	n/a	4	32	Cue	AvoidedLoss	True
309.572	4.15	Lose2	0.6970000000000001	0.0	Yes	2.628	0.0	n/a	GoodResponse	0	n/a	n/a	4	32	Fixation	AvoidedLoss	True
313.72	0.29	Lose2	0.6970000000000001	0.002	Yes	2.628	-0.002	4.0	GoodResponse	0	0.237	312.957	4	32	Target	AvoidedLoss	True
313.957	0.3	Lose2	0.6970000000000001	0.002	Yes	2.628	-0.002	4.0	GoodResponse	0	0.237	n/a	4	32	ButtonPress	AvoidedLoss	True
314.02	0.41	Lose2	0.6970000000000001	n/a	Yes	2.628	n/a	n/a	GoodResponse	0	n/a	n/a	4	32	Blank	AvoidedLoss	True
314.42	1.45	Lose2	0.6970000000000001	n/a	Yes	2.628	n/a	5.0	GoodResponse	0	0.044	313.464	4	32	Feedback	AvoidedLoss	True
315.87	2.628	Lose2	0.6970000000000001	n/a	Yes	2.628	n/a	n/a	GoodResponse	0	0.0	n/a	4	32	ISIslide	AvoidedLoss	True
318.519	0.25	Win2	0.7059000000000001	0.0	Yes	2.681	0.019	n/a	GoodResponse	1	n/a	n/a	5	33	Cue	Win	True
318.769	4.0	Win2	0.7059000000000001	0.0	Yes	2.681	0.0	n/a	GoodResponse	1	n/a	n/a	5	33	Fixation	Win	True
322.767	0.28	Win2	0.7059000000000001	0.002	Yes	2.681	-0.002	4.0	GoodResponse	1	0.223	321.99	5	33	Target	Win	True
322.99	0.3	Win2	0.7059000000000001	0.002	Yes	2.681	-0.002	4.0	GoodResponse	1	0.223	n/a	5	33	ButtonPress	Win	True
323.051	0.42	Win2	0.7059000000000001	n/a	Yes	2.681	n/a	n/a	GoodResponse	1	n/a	n/a	5	33	Blank	Win	True
323.467	1.45	Win2	0.7059000000000001	n/a	Yes	2.681	n/a	5.0	GoodResponse	1	0.022	322.489	5	33	Feedback	Win	True
324.917	2.681	Win2	0.7059000000000001	n/a	Yes	2.681	n/a	n/a	GoodResponse	1	0.0	n/a	5	33	ISIslide	Win	True
327.616	0.25	Lose2	0.7143	0.0	Yes	2.634	0.016	n/a	GoodResponse	0	n/a	n/a	5	34	Cue	AvoidedLoss	False
327.866	4.05	Lose2	0.7143	0.0	Yes	2.634	0.0	4.0	GoodResponse	0	3.26	330.126	5	34	Fixation	AvoidedLoss	False
331.126	0.3	Lose2	0.7143	0.0	Yes	2.634	0.0	4.0	GoodResponse	0	3.26	n/a	5	34	ButtonPress	AvoidedLoss	False
331.914	0.27	Lose2	0.7143	0.002	Yes	2.634	-0.002	4.0	GoodResponse	0	0.232	331.146	5	34	Target	AvoidedLoss	False
332.146	0.3	Lose2	0.7143	0.002	Yes	2.634	-0.002	4.0	GoodResponse	0	0.232	n/a	5	34	ButtonPress	AvoidedLoss	False
332.197	0.43	Lose2	0.7143	n/a	Yes	2.634	n/a	n/a	GoodResponse	0	n/a	n/a	5	34	Blank	AvoidedLoss	False
332.614	1.45	Lose2	0.7143	n/a	Yes	2.634	n/a	5.0	GoodResponse	0	0.046	331.66	5	34	Feedback	AvoidedLoss	False
334.063	2.634	Lose2	0.7143	n/a	Yes	2.634	n/a	n/a	GoodResponse	0	0.0	n/a	5	34	ISIslide	AvoidedLoss	False
336.713	0.25	Lose2	0.6944	0.0	No	2.687	0.013	n/a	NoResponse	-1	n/a	n/a	4	35	Cue	Loss	True
336.962	4.0	Lose2	0.6944	0.001	No	2.687	-0.001	n/a	NoResponse	-1	n/a	n/a	4	35	Fixation	Loss	True
340.961	0.26	Lose2	0.6944	0.002	No	2.687	-0.002	4.0	NoResponse	-1	0.403	340.364	4	35	Target	Loss	True
341.228	0.44	Lose2	0.6944	n/a	No	2.687	n/a	n/a	NoResponse	-1	n/a	n/a	4	35	Blank	Loss	True
341.364	0.3	Lose2	0.6944	0.002	No	2.687	-0.002	4.0	NoResponse	-1	0.403	n/a	4	35	ButtonPress	Loss	True
341.661	1.45	Lose2	0.6944	n/a	No	2.687	n/a	5.0	NoResponse	-1	0.023	340.684	4	35	Feedback	Loss	True
343.11	2.687	Lose2	0.6944	n/a	No	2.687	n/a	n/a	NoResponse	-1	0.0	n/a	4	35	ISIslide	Loss	True
345.826	0.25	Control	0.6757	0.0	No	2.674	0.026	n/a	NoResponse	0	n/a	n/a	4	36	Cue	Neutral	True
346.076	4.0	Control	0.6757	0.0	No	2.674	0.0	4.0	NoResponse	0	3.933	349.009	4	36	Fixation	Neutral	True
350.009	0.3	Control	0.6757	0.0	No	2.674	0.0	4.0	NoResponse	0	3.933	n/a	4	36	ButtonPress	Neutral	True
350.075	0.25	Control	0.6757	0.001	No	2.674	-0.001	n/a	NoResponse	0	n/a	n/a	4	36	Target	Neutral	True
350.324	0.45	Control	0.6757	n/a	No	2.674	n/a	n/a	NoResponse	0	n/a	n/a	4	36	Blank	Neutral	True
350.774	1.45	Control	0.6757	n/a	No	2.674	n/a	5.0	NoResponse	0	0.032	349.806	4	36	Feedback	Neutral	True
352.224	2.674	Control	0.6757	n/a	No	2.674	n/a	n/a	NoResponse	0	0.0	n/a	4	36	ISIslide	Neutral	True
354.923	0.25	Win2	0.6579	0.0	No	2.877	0.023	n/a	LatePress	0	n/a	n/a	4	37	Cue	MissedWin	True
355.173	4.0	Win2	0.6579	0.0	No	2.877	0.0	n/a	LatePress	0	n/a	n/a	4	37	Fixation	MissedWin	True
359.171	0.24	Win2	0.6579	0.002	No	2.877	-0.002	4.0	LatePress	0	0.24	358.411	4	37	Target	MissedWin	True
359.411	0.3	Win2	0.6579	0.002	No	2.877	-0.002	4.0	LatePress	0	0.24	n/a	4	37	ButtonPress	MissedWin	True
359.421	0.46	Win2	0.6579	n/a	No	2.877	n/a	n/a	LatePress	0	n/a	n/a	4	37	Blank	MissedWin	True
359.871	1.45	Win2	0.6579	n/a	No	2.877	n/a	5.0	LatePress	0	0.008	358.879	4	37	Feedback	MissedWin	True
361.321	2.877	Win2	0.6579	n/a	No	2.877	n/a	n/a	LatePress	0	0.0	n/a	4	37	ISIslide	MissedWin	True
364.22	0.25	Lose2	0.6409999999999999	0.0	No	2.83	0.02	n/a	NoResponse	-1	n/a	n/a	3	38	Cue	Loss	True
364.47	3.95	Lose2	0.6409999999999999	0.0	No	2.83	0.0	n/a	NoResponse	-1	n/a	n/a	3	38	Fixation	Loss	True
368.418	0.24	Lose2	0.6409999999999999	0.002	No	2.83	-0.002	4.0	NoResponse	-1	0.261	367.679	3	38	Target	Loss	True
368.668	0.46	Lose2	0.6409999999999999	n/a	No	2.83	n/a	n/a	NoResponse	-1	n/a	n/a	3	38	Blank	Loss	True
368.679	0.3	Lose2	0.6409999999999999	0.002	No	2.83	-0.002	4.0	NoResponse	-1	0.261	n/a	3	38	ButtonPress	Loss	True
369.118	1.45	Lose2	0.6409999999999999	n/a	No	2.83	n/a	5.0	NoResponse	-1	0.029	368.147	3	38	Feedback	Loss	True
370.567	2.83	Lose2	0.6409999999999999	n/a	No	2.83	n/a	n/a	NoResponse	-1	0.0	n/a	3	38	ISIslide	Loss	True
373.417	0.25	Win2	0.65	0.0	Yes	2.983	0.017	n/a	GoodResponse	1	n/a	n/a	4	39	Cue	Win	True
373.666	4.1	Win2	0.65	0.001	Yes	2.983	-0.001	n/a	GoodResponse	1	n/a	n/a	4	39	Fixation	Win	True
377.765	0.25	Win2	0.65	0.002	Yes	2.983	-0.002	4.0	GoodResponse	1	0.245	377.01	4	39	Target	Win	True
378.01	0.3	Win2	0.65	0.002	Yes	2.983	-0.002	4.0	GoodResponse	1	0.245	n/a	4	39	ButtonPress	Win	True
378.015	0.45	Win2	0.65	n/a	Yes	2.983	n/a	n/a	GoodResponse	1	n/a	n/a	4	39	Blank	Win	True
378.465	1.45	Win2	0.65	n/a	Yes	2.983	n/a	5.0	GoodResponse	1	0.048	377.513	4	39	Feedback	Win	True
379.914	2.983	Win2	0.65	n/a	Yes	2.983	n/a	n/a	GoodResponse	1	0.0	n/a	4	39	ISIslide	Win	True
382.93	0.25	Win2	0.6585	0.0	Yes	2.72	0.03	n/a	GoodResponse	1	n/a	n/a	5	40	Cue	Win	True
383.18	3.95	Win2	0.6585	0.0	Yes	2.72	0.0	n/a	GoodResponse	1	n/a	n/a	5	40	Fixation	Win	True
387.128	0.26	Win2	0.6585	0.002	Yes	2.72	-0.002	4.0	GoodResponse	1	0.258	386.386	5	40	Target	Win	True
387.386	0.3	Win2	0.6585	0.002	Yes	2.72	-0.002	4.0	GoodResponse	1	0.258	n/a	5	40	ButtonPress	Win	True
387.395	0.44	Win2	0.6585	n/a	Yes	2.72	n/a	n/a	GoodResponse	1	n/a	n/a	5	40	Blank	Win	True
387.828	1.45	Win2	0.6585	n/a	Yes	2.72	n/a	5.0	GoodResponse	1	0.002	386.83	5	40	Feedback	Win	True
389.278	2.72	Win2	0.6585	n/a	Yes	2.72	n/a	n/a	GoodResponse	1	0.0	n/a	5	40	ISIslide	Win	True
392.027	0.25	Win2	0.6667000000000001	0.0	Yes	2.773	0.027	n/a	GoodResponse	1	n/a	n/a	6	41	Cue	Win	True
392.277	3.9	Win2	0.6667000000000001	0.0	Yes	2.773	0.0	n/a	GoodResponse	1	n/a	n/a	6	41	Fixation	Win	True
396.175	0.26	Win2	0.6667000000000001	0.002	Yes	2.773	-0.002	4.0	GoodResponse	1	0.253	395.428	6	41	Target	Win	True
396.428	0.3	Win2	0.6667000000000001	0.002	Yes	2.773	-0.002	4.0	GoodResponse	1	0.253	n/a	6	41	ButtonPress	Win	True
396.442	0.44	Win2	0.6667000000000001	n/a	Yes	2.773	n/a	n/a	GoodResponse	1	n/a	n/a	6	41	Blank	Win	True
396.875	1.45	Win2	0.6667000000000001	n/a	Yes	2.773	n/a	5.0	GoodResponse	1	0.028	395.903	6	41	Feedback	Win	True
398.325	2.773	Win2	0.6667000000000001	n/a	Yes	2.773	n/a	n/a	GoodResponse	1	0.0	n/a	6	41	ISIslide	Win	True
401.124	0.25	Control	0.6512	0.0	No	2.926	0.024	n/a	NoResponse	0	n/a	n/a	6	42	Cue	Neutral	True
401.374	3.85	Control	0.6512	0.0	No	2.926	0.0	n/a	NoResponse	0	n/a	n/a	6	42	Fixation	Neutral	True
405.222	0.25	Control	0.6512	0.002	No	2.926	-0.002	4.0	NoResponse	0	0.266	404.488	6	42	Target	Neutral	True
405.472	0.45	Control	0.6512	n/a	No	2.926	n/a	n/a	NoResponse	0	n/a	n/a	6	42	Blank	Neutral	True
405.488	0.3	Control	0.6512	0.002	No	2.926	-0.002	4.0	NoResponse	0	0.266	n/a	6	42	ButtonPress	Neutral	True
405.922	1.45	Control	0.6512	n/a	No	2.926	n/a	5.0	NoResponse	0	0.007	404.929	6	42	Feedback	Neutral	True
407.371	2.926	Control	0.6512	n/a	No	2.926	n/a	n/a	NoResponse	0	0.0	n/a	6	42	ISIslide	Neutral	True
410.32	0.25	Win2	0.6364	0.001	No	3.18	0.02	n/a	LatePress	0	n/a	n/a	6	43	Cue	MissedWin	True
410.57	4.0	Win2	0.6364	0.0	No	3.18	0.0	n/a	LatePress	0	n/a	n/a	6	43	Fixation	MissedWin	True
414.569	0.26	Win2	0.6364	0.001	No	3.18	-0.001	4.0	LatePress	0	0.266	413.835	6	43	Target	MissedWin	True
414.835	0.3	Win2	0.6364	0.001	No	3.18	-0.001	4.0	LatePress	0	0.266	n/a	6	43	ButtonPress	MissedWin	True
414.836	0.44	Win2	0.6364	n/a	No	3.18	n/a	n/a	LatePress	0	n/a	n/a	6	43	Blank	MissedWin	True
415.269	1.45	Win2	0.6364	n/a	No	3.18	n/a	5.0	LatePress	0	0.025	414.294	6	43	Feedback	MissedWin	True
416.718	3.18	Win2	0.6364	n/a	No	3.18	n/a	4.0	LatePress	0	0.16	n/a	6	43	ISIslide	MissedWin	True
419.9	0.25	Win2	0.6444	0.001	Yes	3.0	0.0	n/a	GoodResponse	1	n/a	n/a	7	44	Cue	Win	True
420.15	4.0	Win2	0.6444	0.0	Yes	3.0	0.0	n/a	GoodResponse	1	n/a	n/a	7	44	Fixation	Win	True
424.149	0.27	Win2	0.6444	0.001	Yes	3.0	-0.001	4.0	GoodResponse	1	0.203	423.352	7	44	Target	Win	True
424.352	0.3	Win2	0.6444	0.001	Yes	3.0	-0.001	4.0	GoodResponse	1	0.203	n/a	7	44	ButtonPress	Win	True
424.416	0.43	Win2	0.6444	n/a	Yes	3.0	n/a	n/a	GoodResponse	1	n/a	n/a	7	44	Blank	Win	True
424.849	1.45	Win2	0.6444	n/a	Yes	3.0	n/a	5.0	GoodResponse	1	0.007	423.856	7	44	Feedback	Win	True
426.298	3.0	Win2	0.6444	n/a	Yes	3.0	n/a	n/a	GoodResponse	1	0.0	n/a	7	44	ISIslide	Win	True
429.314	0.25	Control	0.6304	0.0	No	2.886	0.014	n/a	LatePress	0	n/a	n/a	7	45	Cue	Neutral	True
429.564	4.1	Control	0.6304	0.0	No	2.886	0.0	n/a	LatePress	0	n/a	n/a	7	45	Fixation	Neutral	True
433.662	0.28	Control	0.6304	0.002	No	2.886	-0.002	4.0	LatePress	0	0.28	432.942	7	45	Target	Neutral	True
433.942	0.3	Control	0.6304	0.002	No	2.886	-0.002	4.0	LatePress	0	0.28	n/a	7	45	ButtonPress	Neutral	True
433.946	0.42	Control	0.6304	n/a	No	2.886	n/a	n/a	LatePress	0	n/a	n/a	7	45	Blank	Neutral	True
434.362	1.45	Control	0.6304	n/a	No	2.886	n/a	5.0	LatePress	0	0.008	433.37	7	45	Feedback	Neutral	True
435.812	2.886	Control	0.6304	n/a	No	2.886	n/a	n/a	LatePress	0	0.0	n/a	7	45	ISIslide	Neutral	True
438.727	0.25	Lose2	0.6383	0.0	Yes	3.373	0.027	n/a	GoodResponse	0	n/a	n/a	7	46	Cue	AvoidedLoss	True
438.977	4.0	Lose2	0.6383	0.0	Yes	3.373	0.0	n/a	GoodResponse	0	n/a	n/a	7	46	Fixation	AvoidedLoss	True
442.976	0.29	Lose2	0.6383	0.001	Yes	3.373	-0.001	4.0	GoodResponse	0	0.275	442.251	7	46	Target	AvoidedLoss	True
443.251	0.3	Lose2	0.6383	0.001	Yes	3.373	-0.001	4.0	GoodResponse	0	0.275	n/a	7	46	ButtonPress	AvoidedLoss	True
443.276	0.41	Lose2	0.6383	n/a	Yes	3.373	n/a	n/a	GoodResponse	0	n/a	n/a	7	46	Blank	AvoidedLoss	True
443.676	1.45	Lose2	0.6383	n/a	Yes	3.373	n/a	5.0	GoodResponse	0	0.007	442.683	7	46	Feedback	AvoidedLoss	True
445.125	3.373	Lose2	0.6383	n/a	Yes	3.373	n/a	n/a	GoodResponse	0	0.0	n/a	7	46	ISIslide	AvoidedLoss	True
448.524	0.25	Lose2	0.6457999999999999	0.0	Yes	2.676	0.024	n/a	GoodResponse	0	n/a	n/a	7	47	Cue	AvoidedLoss	True
448.774	4.0	Lose2	0.6457999999999999	0.0	Yes	2.676	0.0	n/a	GoodResponse	0	n/a	n/a	7	47	Fixation	AvoidedLoss	True
452.772	0.3	Lose2	0.6457999999999999	0.002	Yes	2.676	-0.002	4.0	GoodResponse	0	0.231	452.003	7	47	Target	AvoidedLoss	True
453.003	0.3	Lose2	0.6457999999999999	0.002	Yes	2.676	-0.002	4.0	GoodResponse	0	0.231	n/a	7	47	ButtonPress	AvoidedLoss	True
453.072	0.4	Lose2	0.6457999999999999	n/a	Yes	2.676	n/a	n/a	GoodResponse	0	n/a	n/a	7	47	Blank	AvoidedLoss	True
453.472	1.45	Lose2	0.6457999999999999	n/a	Yes	2.676	n/a	5.0	GoodResponse	0	0.016	452.488	7	47	Feedback	AvoidedLoss	True
454.922	2.676	Lose2	0.6457999999999999	n/a	Yes	2.676	n/a	n/a	GoodResponse	0	0.0	n/a	7	47	ISIslide	AvoidedLoss	True
457.621	0.25	Lose2	0.6531	0.0	Yes	3.029	0.021	n/a	GoodResponse	0	n/a	n/a	7	48	Cue	AvoidedLoss	True
457.871	3.95	Lose2	0.6531	0.0	Yes	3.029	0.0	n/a	GoodResponse	0	n/a	n/a	7	48	Fixation	AvoidedLoss	True
461.819	0.31	Lose2	0.6531	0.002	Yes	3.029	-0.002	4.0	GoodResponse	0	0.227	461.046	7	48	Target	AvoidedLoss	True
462.046	0.3	Lose2	0.6531	0.002	Yes	3.029	-0.002	4.0	GoodResponse	0	0.227	n/a	7	48	ButtonPress	AvoidedLoss	True
462.136	0.39	Lose2	0.6531	n/a	Yes	3.029	n/a	n/a	GoodResponse	0	n/a	n/a	7	48	Blank	AvoidedLoss	True
462.519	1.45	Lose2	0.6531	n/a	Yes	3.029	n/a	5.0	GoodResponse	0	0.043	461.562	7	48	Feedback	AvoidedLoss	True
463.969	3.029	Lose2	0.6531	n/a	Yes	3.029	n/a	n/a	GoodResponse	0	0.0	n/a	7	48	ISIslide	AvoidedLoss	True
467.017	0.25	Control	0.66	0.001	Yes	2.883	0.017	n/a	GoodResponse	0	n/a	n/a	7	49	Cue	Neutral	True
467.267	4.0	Control	0.66	0.0	Yes	2.883	0.0	n/a	GoodResponse	0	n/a	n/a	7	49	Fixation	Neutral	True
471.266	0.32	Control	0.66	0.001	Yes	2.883	-0.001	4.0	GoodResponse	0	0.304	470.57	7	49	Target	Neutral	True
471.57	0.3	Control	0.66	0.001	Yes	2.883	-0.001	4.0	GoodResponse	0	0.304	n/a	7	49	ButtonPress	Neutral	True
471.583	0.38	Control	0.66	n/a	Yes	2.883	n/a	n/a	GoodResponse	0	n/a	n/a	7	49	Blank	Neutral	True
471.966	1.45	Control	0.66	n/a	Yes	2.883	n/a	5.0	GoodResponse	0	0.01	470.976	7	49	Feedback	Neutral	True
473.415	2.883	Control	0.66	n/a	Yes	2.883	n/a	n/a	GoodResponse	0	0.0	n/a	7	49	ISIslide	Neutral	True
476.314	0.25	Control	0.6667000000000001	0.0	Yes	2.786	0.014	n/a	GoodResponse	0	n/a	n/a	7	50	Cue	Neutral	True
476.564	4.0	Control	0.6667000000000001	0.0	Yes	2.786	0.0	n/a	GoodResponse	0	n/a	n/a	7	50	Fixation	Neutral	True
480.563	0.32	Control	0.6667000000000001	0.001	Yes	2.786	-0.001	4.0	GoodResponse	0	0.229	479.792	7	50	Target	Neutral	True
480.792	0.3	Control	0.6667000000000001	0.001	Yes	2.786	-0.001	4.0	GoodResponse	0	0.229	n/a	7	50	ButtonPress	Neutral	True
480.896	0.38	Control	0.6667000000000001	n/a	Yes	2.786	n/a	n/a	GoodResponse	0	n/a	n/a	7	50	Blank	Neutral	True
481.263	1.45	Control	0.6667000000000001	n/a	Yes	2.786	n/a	5.0	GoodResponse	0	0.03	480.293	7	50	Feedback	Neutral	True
482.712	2.786	Control	0.6667000000000001	n/a	Yes	2.786	n/a	n/a	GoodResponse	0	0.0	n/a	7	50	ISIslide	Neutral	True
485.528	0.25	Control	0.6537999999999999	0.0	No	2.722	0.028	n/a	NoResponse	0	n/a	n/a	7	51	Cue	Neutral	True
485.778	3.95	Control	0.6537999999999999	0.0	No	2.722	0.0	n/a	NoResponse	0	n/a	n/a	7	51	Fixation	Neutral	True
489.726	0.31	Control	0.6537999999999999	0.002	No	2.722	-0.002	4.0	NoResponse	0	0.336	489.062	7	51	Target	Neutral	True
490.043	0.39	Control	0.6537999999999999	n/a	No	2.722	n/a	n/a	NoResponse	0	n/a	n/a	7	51	Blank	Neutral	True
490.062	0.3	Control	0.6537999999999999	0.002	No	2.722	-0.002	4.0	NoResponse	0	0.336	n/a	7	51	ButtonPress	Neutral	True
490.426	1.45	Control	0.6537999999999999	n/a	No	2.722	n/a	5.0	NoResponse	0	0.037	489.463	7	51	Feedback	Neutral	True
491.876	2.722	Control	0.6537999999999999	n/a	No	2.722	n/a	n/a	NoResponse	0	0.0	n/a	7	51	ISIslide	Neutral	True
494.625	0.25	Control	0.6604000000000001	0.0	Yes	2.625	0.025	n/a	GoodResponse	0	n/a	n/a	7	52	Cue	Neutral	True
494.875	4.05	Control	0.6604000000000001	0.0	Yes	2.625	0.0	n/a	GoodResponse	0	n/a	n/a	7	52	Fixation	Neutral	True
498.923	0.32	Control	0.6604000000000001	0.002	Yes	2.625	-0.002	4.0	GoodResponse	0	0.22	498.143	7	52	Target	Neutral	True
499.143	0.3	Control	0.6604000000000001	0.002	Yes	2.625	-0.002	4.0	GoodResponse	0	0.22	n/a	7	52	ButtonPress	Neutral	True
499.256	0.38	Control	0.6604000000000001	n/a	Yes	2.625	n/a	n/a	GoodResponse	0	n/a	n/a	7	52	Blank	Neutral	True
499.623	1.45	Control	0.6604000000000001	n/a	Yes	2.625	n/a	5.0	GoodResponse	0	0.011	498.634	7	52	Feedback	Neutral	True
501.072	2.625	Control	0.6604000000000001	n/a	Yes	2.625	n/a	n/a	GoodResponse	0	0.0	n/a	7	52	ISIslide	Neutral	True
503.721	0.25	Win2	0.6667000000000001	0.001	Yes	2.929	0.021	n/a	GoodResponse	1	n/a	n/a	8	53	Cue	Win	True
503.971	4.05	Win2	0.6667000000000001	0.0	Yes	2.929	0.0	n/a	GoodResponse	1	n/a	n/a	8	53	Fixation	Win	True
508.02	0.32	Win2	0.6667000000000001	0.001	Yes	2.929	-0.001	4.0	GoodResponse	1	0.277	507.297	8	53	Target	Win	True
508.297	0.3	Win2	0.6667000000000001	0.001	Yes	2.929	-0.001	4.0	GoodResponse	1	0.277	n/a	8	53	ButtonPress	Win	True
508.337	0.38	Win2	0.6667000000000001	n/a	Yes	2.929	n/a	n/a	GoodResponse	1	n/a	n/a	8	53	Blank	Win	True
508.72	1.45	Win2	0.6667000000000001	n/a	Yes	2.929	n/a	5.0	GoodResponse	1	0.036	507.756	8	53	Feedback	Win	True
510.169	2.929	Win2	0.6667000000000001	n/a	Yes	2.929	n/a	n/a	GoodResponse	1	0.0	n/a	8	53	ISIslide	Win	True
513.118	0.25	Win2	0.6545000000000001	0.0	No	2.732	0.018	n/a	NoResponse	0	n/a	n/a	8	54	Cue	MissedWin	True
513.368	3.95	Win2	0.6545000000000001	0.0	No	2.732	0.0	n/a	NoResponse	0	n/a	n/a	8	54	Fixation	MissedWin	True
517.317	0.31	Win2	0.6545000000000001	0.001	No	2.732	-0.001	4.0	NoResponse	0	0.573	516.89	8	54	Target	MissedWin	True
517.633	0.39	Win2	0.6545000000000001	n/a	No	2.732	n/a	n/a	NoResponse	0	n/a	n/a	8	54	Blank	MissedWin	True
517.89	0.3	Win2	0.6545000000000001	0.001	No	2.732	-0.001	4.0	NoResponse	0	0.573	n/a	8	54	ButtonPress	MissedWin	True
518.017	1.45	Win2	0.6545000000000001	n/a	No	2.732	n/a	5.0	NoResponse	0	0.008	517.025	8	54	Feedback	MissedWin	True
519.466	2.732	Win2	0.6545000000000001	n/a	No	2.732	n/a	n/a	NoResponse	0	0.0	n/a	8	54	ISIslide	MissedWin	True
522.215	0.25	Control	0.6607	0.0	Yes	3.035	0.015	n/a	GoodResponse	0	n/a	n/a	8	55	Cue	Neutral	True
522.465	3.95	Control	0.6607	0.0	Yes	3.035	0.0	n/a	GoodResponse	0	n/a	n/a	8	55	Fixation	Neutral	True
526.414	0.32	Control	0.6607	0.001	Yes	3.035	-0.001	4.0	GoodResponse	0	0.282	525.696	8	55	Target	Neutral	True
526.696	0.3	Control	0.6607	0.001	Yes	3.035	-0.001	4.0	GoodResponse	0	0.282	n/a	8	55	ButtonPress	Neutral	True
526.747	0.38	Control	0.6607	n/a	Yes	3.035	n/a	n/a	GoodResponse	0	n/a	n/a	8	55	Blank	Neutral	True
527.113	1.45	Control	0.6607	n/a	Yes	3.035	n/a	5.0	GoodResponse	0	0.034	526.147	8	55	Feedback	Neutral	True
528.563	3.035	Control	0.6607	n/a	Yes	3.035	n/a	n/a	GoodResponse	0	0.0	n/a	8	55	ISIslide	Neutral	True
531.628	0.25	Control	0.6667000000000001	0.001	Yes	2.822	0.028	n/a	GoodResponse	0	n/a	n/a	8	56	Cue	Neutral	True
531.878	3.95	Control	0.6667000000000001	0.0	Yes	2.822	0.0	n/a	GoodResponse	0	n/a	n/a	8	56	Fixation	Neutral	True
535.827	0.32	Control	0.6667000000000001	0.001	Yes	2.822	-0.001	4.0	GoodResponse	0	0.29	535.117	8	56	Target	Neutral	True
536.117	0.3	Control	0.6667000000000001	0.001	Yes	2.822	-0.001	4.0	GoodResponse	0	0.29	n/a	8	56	ButtonPress	Neutral	True
536.144	0.38	Control	0.6667000000000001	n/a	Yes	2.822	n/a	n/a	GoodResponse	0	n/a	n/a	8	56	Blank	Neutral	True
536.527	1.45	Control	0.6667000000000001	n/a	Yes	2.822	n/a	5.0	GoodResponse	0	0.035	535.562	8	56	Feedback	Neutral	True
537.976	2.822	Control	0.6667000000000001	n/a	Yes	2.822	n/a	n/a	GoodResponse	0	0.0	n/a	8	56	ISIslide	Neutral	True
540.825	0.25	Control	0.6724	0.0	Yes	3.475	0.025	n/a	GoodResponse	0	n/a	n/a	8	57	Cue	Neutral	True
541.075	4.0	Control	0.6724	0.0	Yes	3.475	0.0	n/a	GoodResponse	0	n/a	n/a	8	57	Fixation	Neutral	True
545.074	0.31	Control	0.6724	0.001	Yes	3.475	-0.001	4.0	GoodResponse	0	0.275	544.349	8	57	Target	Neutral	True
545.349	0.3	Control	0.6724	0.001	Yes	3.475	-0.001	4.0	GoodResponse	0	0.275	n/a	8	57	ButtonPress	Neutral	True
545.39	0.39	Control	0.6724	n/a	Yes	3.475	n/a	n/a	GoodResponse	0	n/a	n/a	8	57	Blank	Neutral	True
545.774	1.45	Control	0.6724	n/a	Yes	3.475	n/a	5.0	GoodResponse	0	0.007	544.781	8	57	Feedback	Neutral	True
547.223	3.475	Control	0.6724	n/a	Yes	3.475	n/a	n/a	GoodResponse	0	0.0	n/a	8	57	ISIslide	Neutral	True
550.722	0.25	Win2	0.6779999999999999	0.0	Yes	2.728	0.022	n/a	GoodResponse	1	n/a	n/a	9	58	Cue	Win	True
550.972	4.05	Win2	0.6779999999999999	0.0	Yes	2.728	0.0	n/a	GoodResponse	1	n/a	n/a	9	58	Fixation	Win	True
555.02	0.3	Win2	0.6779999999999999	0.002	Yes	2.728	-0.002	4.0	GoodResponse	1	0.26	554.28	9	58	Target	Win	True
555.28	0.3	Win2	0.6779999999999999	0.002	Yes	2.728	-0.002	4.0	GoodResponse	1	0.26	n/a	9	58	ButtonPress	Win	True
555.32	0.4	Win2	0.6779999999999999	n/a	Yes	2.728	n/a	n/a	GoodResponse	1	n/a	n/a	9	58	Blank	Win	True
555.72	1.45	Win2	0.6779999999999999	n/a	Yes	2.728	n/a	5.0	GoodResponse	1	0.012	554.732	9	58	Feedback	Win	True
557.17	2.728	Win2	0.6779999999999999	n/a	Yes	2.728	n/a	n/a	GoodResponse	1	0.0	n/a	9	58	ISIslide	Win	True
559.919	0.25	Lose2	0.6667000000000001	0.0	No	2.681	0.019	n/a	NoResponse	-1	n/a	n/a	8	59	Cue	Loss	True
560.169	4.0	Lose2	0.6667000000000001	0.0	No	2.681	0.0	n/a	NoResponse	-1	n/a	n/a	8	59	Fixation	Loss	True
564.167	0.29	Lose2	0.6667000000000001	0.002	No	2.681	-0.002	4.0	NoResponse	-1	0.375	563.542	8	59	Target	Loss	True
564.467	0.41	Lose2	0.6667000000000001	n/a	No	2.681	n/a	n/a	NoResponse	-1	n/a	n/a	8	59	Blank	Loss	True
564.542	0.3	Lose2	0.6667000000000001	0.002	No	2.681	-0.002	4.0	NoResponse	-1	0.375	n/a	8	59	ButtonPress	Loss	True
564.867	1.45	Lose2	0.6667000000000001	n/a	No	2.681	n/a	5.0	NoResponse	-1	0.035	563.902	8	59	Feedback	Loss	True
566.316	2.681	Lose2	0.6667000000000001	n/a	No	2.681	n/a	n/a	NoResponse	-1	0.0	n/a	8	59	ISIslide	Loss	True
569.016	0.25	Control	0.6557	0.0	No	2.684	0.016	n/a	NoResponse	0	n/a	n/a	8	60	Cue	Neutral	True
569.265	4.0	Control	0.6557	0.001	No	2.684	-0.001	n/a	NoResponse	0	n/a	n/a	8	60	Fixation	Neutral	True
573.264	0.28	Control	0.6557	0.002	No	2.684	-0.002	4.0	NoResponse	0	0.291	572.555	8	60	Target	Neutral	True
573.547	0.42	Control	0.6557	n/a	No	2.684	n/a	n/a	NoResponse	0	n/a	n/a	8	60	Blank	Neutral	True
573.555	0.3	Control	0.6557	0.002	No	2.684	-0.002	4.0	NoResponse	0	0.291	n/a	8	60	ButtonPress	Neutral	True
573.964	1.45	Control	0.6557	n/a	No	2.684	n/a	5.0	NoResponse	0	0.012	572.976	8	60	Feedback	Neutral	True
575.413	2.684	Control	0.6557	n/a	No	2.684	n/a	n/a	NoResponse	0	0.0	n/a	8	60	ISIslide	Neutral	True
578.129	0.25	Lose2	0.6613	0.0	Yes	2.971	0.029	n/a	GoodResponse	0	n/a	n/a	8	61	Cue	AvoidedLoss	True
578.379	4.0	Lose2	0.6613	0.0	Yes	2.971	0.0	n/a	GoodResponse	0	n/a	n/a	8	61	Fixation	AvoidedLoss	True
582.378	0.28	Lose2	0.6613	0.001	Yes	2.971	-0.001	4.0	GoodResponse	0	0.26	581.638	8	61	Target	AvoidedLoss	True
582.638	0.3	Lose2	0.6613	0.001	Yes	2.971	-0.001	4.0	GoodResponse	0	0.26	n/a	8	61	ButtonPress	AvoidedLoss	True
582.661	0.42	Lose2	0.6613	n/a	Yes	2.971	n/a	n/a	GoodResponse	0	n/a	n/a	8	61	Blank	AvoidedLoss	True
583.077	1.45	Lose2	0.6613	n/a	Yes	2.971	n/a	5.0	GoodResponse	0	0.021	582.098	8	61	Feedback	AvoidedLoss	True
584.527	2.971	Lose2	0.6613	n/a	Yes	2.971	n/a	n/a	GoodResponse	0	0.0	n/a	8	61	ISIslide	AvoidedLoss	True
587.526	0.25	Lose2	0.6507999999999999	0.0	No	2.874	0.026	n/a	NoResponse	-1	n/a	n/a	7	62	Cue	Loss	True
587.776	3.9	Lose2	0.6507999999999999	0.0	No	2.874	0.0	n/a	NoResponse	-1	n/a	n/a	7	62	Fixation	Loss	True
591.674	0.28	Lose2	0.6507999999999999	0.002	No	2.874	-0.002	4.0	NoResponse	-1	0.308	590.982	7	62	Target	Loss	True
591.958	0.42	Lose2	0.6507999999999999	n/a	No	2.874	n/a	n/a	NoResponse	-1	n/a	n/a	7	62	Blank	Loss	True
591.982	0.3	Lose2	0.6507999999999999	0.002	No	2.874	-0.002	4.0	NoResponse	-1	0.308	n/a	7	62	ButtonPress	Loss	True
592.374	1.45	Lose2	0.6507999999999999	n/a	No	2.874	n/a	5.0	NoResponse	-1	0.041	591.415	7	62	Feedback	Loss	True
593.824	2.874	Lose2	0.6507999999999999	n/a	No	2.874	n/a	n/a	NoResponse	-1	0.0	n/a	7	62	ISIslide	Loss	True
596.723	0.25	Lose2	0.6562	0.0	Yes	2.627	0.023	n/a	GoodResponse	0	n/a	n/a	7	63	Cue	AvoidedLoss	True
596.973	4.05	Lose2	0.6562	0.0	Yes	2.627	0.0	n/a	GoodResponse	0	n/a	n/a	7	63	Fixation	AvoidedLoss	True
601.021	0.29	Lose2	0.6562	0.002	Yes	2.627	-0.002	4.0	GoodResponse	0	0.275	600.296	7	63	Target	AvoidedLoss	True
601.296	0.3	Lose2	0.6562	0.002	Yes	2.627	-0.002	4.0	GoodResponse	0	0.275	n/a	7	63	ButtonPress	AvoidedLoss	True
601.321	0.41	Lose2	0.6562	n/a	Yes	2.627	n/a	n/a	GoodResponse	0	n/a	n/a	7	63	Blank	AvoidedLoss	True
601.721	1.45	Lose2	0.6562	n/a	Yes	2.627	n/a	5.0	GoodResponse	0	0.01	600.731	7	63	Feedback	AvoidedLoss	True
603.17	2.627	Lose2	0.6562	n/a	Yes	2.627	n/a	n/a	GoodResponse	0	0.0	n/a	7	63	ISIslide	AvoidedLoss	True
605.819	0.25	Win2	0.6615000000000001	0.001	Yes	3.131	0.019	n/a	GoodResponse	1	n/a	n/a	8	64	Cue	Win	True
606.069	4.15	Win2	0.6615000000000001	0.0	Yes	3.131	0.0	n/a	GoodResponse	1	n/a	n/a	8	64	Fixation	Win	True
610.218	0.29	Win2	0.6615000000000001	0.001	Yes	3.131	-0.001	4.0	GoodResponse	1	0.208	609.426	8	64	Target	Win	True
610.426	0.3	Win2	0.6615000000000001	0.001	Yes	3.131	-0.001	4.0	GoodResponse	1	0.208	n/a	8	64	ButtonPress	Win	True
610.518	0.41	Win2	0.6615000000000001	n/a	Yes	3.131	n/a	n/a	GoodResponse	1	n/a	n/a	8	64	Blank	Win	True
610.918	1.45	Win2	0.6615000000000001	n/a	Yes	3.131	n/a	5.0	GoodResponse	1	0.033	609.951	8	64	Feedback	Win	True
612.367	3.131	Win2	0.6615000000000001	n/a	Yes	3.131	n/a	n/a	GoodResponse	1	0.0	n/a	8	64	ISIslide	Win	True
615.516	0.25	Control	0.6667000000000001	0.0	Yes	2.784	0.016	n/a	GoodResponse	0	n/a	n/a	8	65	Cue	Neutral	True
615.766	4.0	Control	0.6667000000000001	0.0	Yes	2.784	0.0	n/a	GoodResponse	0	n/a	n/a	8	65	Fixation	Neutral	True
619.765	0.29	Control	0.6667000000000001	0.001	Yes	2.784	-0.001	4.0	GoodResponse	0	0.268	619.033	8	65	Target	Neutral	True
620.033	0.3	Control	0.6667000000000001	0.001	Yes	2.784	-0.001	4.0	GoodResponse	0	0.268	n/a	8	65	ButtonPress	Neutral	True
620.065	0.41	Control	0.6667000000000001	n/a	Yes	2.784	n/a	n/a	GoodResponse	0	n/a	n/a	8	65	Blank	Neutral	True
620.464	1.45	Control	0.6667000000000001	n/a	Yes	2.784	n/a	5.0	GoodResponse	0	0.048	619.512	8	65	Feedback	Neutral	True
621.914	2.784	Control	0.6667000000000001	n/a	Yes	2.784	n/a	n/a	GoodResponse	0	0.0	n/a	8	65	ISIslide	Neutral	True
624.73	0.25	Win2	0.6716	0.0	Yes	2.77	0.03	n/a	GoodResponse	1	n/a	n/a	9	66	Cue	Win	True
624.98	3.9	Win2	0.6716	0.0	Yes	2.77	0.0	n/a	GoodResponse	1	n/a	n/a	9	66	Fixation	Win	True
628.878	0.28	Win2	0.6716	0.002	Yes	2.77	-0.002	4.0	GoodResponse	1	0.257	628.135	9	66	Target	Win	True
629.135	0.3	Win2	0.6716	0.002	Yes	2.77	-0.002	4.0	GoodResponse	1	0.257	n/a	9	66	ButtonPress	Win	True
629.161	0.42	Win2	0.6716	n/a	Yes	2.77	n/a	n/a	GoodResponse	1	n/a	n/a	9	66	Blank	Win	True
629.578	1.45	Win2	0.6716	n/a	Yes	2.77	n/a	5.0	GoodResponse	1	0.007	628.585	9	66	Feedback	Win	True
631.027	2.77	Win2	0.6716	n/a	Yes	2.77	n/a	n/a	GoodResponse	1	0.0	n/a	9	66	ISIslide	Win	True
633.826	0.25	Control	0.6618	0.001	No	2.724	0.026	n/a	NoResponse	0	n/a	n/a	9	67	Cue	Neutral	True
634.076	3.95	Control	0.6618	0.0	No	2.724	0.0	n/a	NoResponse	0	n/a	n/a	9	67	Fixation	Neutral	True
638.025	0.27	Control	0.6618	0.001	No	2.724	-0.001	4.0	NoResponse	0	0.293	637.318	9	67	Target	Neutral	True
638.292	0.43	Control	0.6618	n/a	No	2.724	n/a	n/a	NoResponse	0	n/a	n/a	9	67	Blank	Neutral	True
638.318	0.3	Control	0.6618	0.001	No	2.724	-0.001	4.0	NoResponse	0	0.293	n/a	9	67	ButtonPress	Neutral	True
638.725	1.45	Control	0.6618	n/a	No	2.724	n/a	5.0	NoResponse	0	0.031	637.756	9	67	Feedback	Neutral	True
640.174	2.724	Control	0.6618	n/a	No	2.724	n/a	n/a	NoResponse	0	0.0	n/a	9	67	ISIslide	Neutral	True
642.923	0.25	Win2	0.6667000000000001	0.0	Yes	3.077	0.023	n/a	GoodResponse	1	n/a	n/a	10	68	Cue	Win	True
643.173	4.0	Win2	0.6667000000000001	0.0	Yes	3.077	0.0	n/a	GoodResponse	1	n/a	n/a	10	68	Fixation	Win	True
647.172	0.27	Win2	0.6667000000000001	0.001	Yes	3.077	-0.001	4.0	GoodResponse	1	0.246	646.418	10	68	Target	Win	True
647.418	0.3	Win2	0.6667000000000001	0.001	Yes	3.077	-0.001	4.0	GoodResponse	1	0.246	n/a	10	68	ButtonPress	Win	True
647.438	0.43	Win2	0.6667000000000001	n/a	Yes	3.077	n/a	n/a	GoodResponse	1	n/a	n/a	10	68	Blank	Win	True
647.872	1.45	Win2	0.6667000000000001	n/a	Yes	3.077	n/a	5.0	GoodResponse	1	0.006	646.878	10	68	Feedback	Win	True
649.321	3.077	Win2	0.6667000000000001	n/a	Yes	3.077	n/a	n/a	GoodResponse	1	0.0	n/a	10	68	ISIslide	Win	True
652.42	0.25	Win2	0.6714	0.0	Yes	3.23	0.02	n/a	GoodResponse	1	n/a	n/a	11	69	Cue	Win	False
652.67	3.95	Win2	0.6714	0.0	Yes	3.23	0.0	4.0	GoodResponse	1	3.691	655.361	11	69	Fixation	Win	False
656.361	0.3	Win2	0.6714	0.0	Yes	3.23	0.0	4.0	GoodResponse	1	3.691	n/a	11	69	ButtonPress	Win	False
656.619	0.26	Win2	0.6714	0.001	Yes	3.23	-0.001	4.0	GoodResponse	1	0.249	655.868	11	69	Target	Win	False
656.868	0.3	Win2	0.6714	0.001	Yes	3.23	-0.001	4.0	GoodResponse	1	0.249	n/a	11	69	ButtonPress	Win	False
656.885	0.44	Win2	0.6714	n/a	Yes	3.23	n/a	n/a	GoodResponse	1	n/a	n/a	11	69	Blank	Win	False
657.318	1.45	Win2	0.6714	n/a	Yes	3.23	n/a	5.0	GoodResponse	1	0.024	656.342	11	69	Feedback	Win	False
658.768	3.23	Win2	0.6714	n/a	Yes	3.23	n/a	n/a	GoodResponse	1	0.0	n/a	11	69	ISIslide	Win	False
662.017	0.25	Lose2	0.662	0.0	No	3.033	0.017	n/a	NoResponse	-1	n/a	n/a	10	70	Cue	Loss	True
662.267	4.05	Lose2	0.662	0.0	No	3.033	0.0	n/a	NoResponse	-1	n/a	n/a	10	70	Fixation	Loss	True
666.315	0.25	Lose2	0.662	0.002	No	3.033	-0.002	4.0	NoResponse	-1	0.28	665.595	10	70	Target	Loss	True
666.565	0.45	Lose2	0.662	n/a	No	3.033	n/a	n/a	NoResponse	-1	n/a	n/a	10	70	Blank	Loss	True
666.595	0.3	Lose2	0.662	0.002	No	3.033	-0.002	4.0	NoResponse	-1	0.28	n/a	10	70	ButtonPress	Loss	True
667.015	1.45	Lose2	0.662	n/a	No	3.033	n/a	5.0	NoResponse	-1	0.033	666.048	10	70	Feedback	Loss	True
668.464	3.033	Lose2	0.662	n/a	No	3.033	n/a	n/a	NoResponse	-1	0.0	n/a	10	70	ISIslide	Loss	True
671.513	0.25	Win2	0.6667000000000001	0.001	Yes	2.737	0.013	n/a	GoodResponse	1	n/a	n/a	11	71	Cue	Win	True
671.763	4.05	Win2	0.6667000000000001	0.0	Yes	2.737	0.0	n/a	GoodResponse	1	n/a	n/a	11	71	Fixation	Win	True
675.812	0.25	Win2	0.6667000000000001	0.001	Yes	2.737	-0.001	4.0	GoodResponse	1	0.241	675.053	11	71	Target	Win	True
676.053	0.3	Win2	0.6667000000000001	0.001	Yes	2.737	-0.001	4.0	GoodResponse	1	0.241	n/a	11	71	ButtonPress	Win	True
676.062	0.45	Win2	0.6667000000000001	n/a	Yes	2.737	n/a	n/a	GoodResponse	1	n/a	n/a	11	71	Blank	Win	True
676.512	1.45	Win2	0.6667000000000001	n/a	Yes	2.737	n/a	5.0	GoodResponse	1	0.0	675.512	11	71	Feedback	Win	True
677.961	2.737	Win2	0.6667000000000001	n/a	Yes	2.737	n/a	n/a	GoodResponse	1	0.0	n/a	11	71	ISIslide	Win	True
680.727	0.25	Win2	0.6575	0.0	No	2.773	0.027	n/a	NoResponse	0	n/a	n/a	11	72	Cue	MissedWin	True
680.977	4.1	Win2	0.6575	0.0	No	2.773	0.0	n/a	NoResponse	0	n/a	n/a	11	72	Fixation	MissedWin	True
685.075	0.24	Win2	0.6575	0.002	No	2.773	-0.002	4.0	NoResponse	0	0.264	684.339	11	72	Target	MissedWin	True
685.325	0.46	Win2	0.6575	n/a	No	2.773	n/a	n/a	NoResponse	0	n/a	n/a	11	72	Blank	MissedWin	True
685.339	0.3	Win2	0.6575	0.002	No	2.773	-0.002	4.0	NoResponse	0	0.264	n/a	11	72	ButtonPress	MissedWin	True
685.775	1.45	Win2	0.6575	n/a	No	2.773	n/a	5.0	NoResponse	0	0.007	684.782	11	72	Feedback	MissedWin	True
687.225	2.773	Win2	0.6575	n/a	No	2.773	n/a	n/a	NoResponse	0	0.0	n/a	11	72	ISIslide	MissedWin	True
690.024	0.25	Win2	0.6486	0.0	No	2.676	0.024	n/a	NoResponse	0	n/a	n/a	11	73	Cue	MissedWin	True
690.274	4.0	Win2	0.6486	0.0	No	2.676	0.0	n/a	NoResponse	0	n/a	n/a	11	73	Fixation	MissedWin	True
694.272	0.24	Win2	0.6486	0.002	No	2.676	-0.002	4.0	NoResponse	0	0.279	693.551	11	73	Target	MissedWin	True
694.522	0.46	Win2	0.6486	n/a	No	2.676	n/a	n/a	NoResponse	0	n/a	n/a	11	73	Blank	MissedWin	True
694.551	0.3	Win2	0.6486	0.002	No	2.676	-0.002	4.0	NoResponse	0	0.279	n/a	11	73	ButtonPress	MissedWin	True
694.972	1.45	Win2	0.6486	n/a	No	2.676	n/a	5.0	NoResponse	0	0.028	694.0	11	73	Feedback	MissedWin	True
696.421	2.676	Win2	0.6486	n/a	No	2.676	n/a	n/a	NoResponse	0	0.0	n/a	11	73	ISIslide	MissedWin	True
699.121	0.25	Lose2	0.64	0.0	No	2.629	0.021	n/a	NoResponse	-1	n/a	n/a	10	74	Cue	Loss	False
699.37	4.05	Lose2	0.64	0.001	No	2.629	-0.001	n/a	NoResponse	-1	n/a	n/a	10	74	Fixation	Loss	False
703.419	0.25	Lose2	0.64	0.002	No	2.629	-0.002	n/a	NoResponse	-1	n/a	n/a	10	74	Target	Loss	False
703.669	0.45	Lose2	0.64	n/a	No	2.629	n/a	n/a	NoResponse	-1	n/a	n/a	10	74	Blank	Loss	False
704.119	1.45	Lose2	0.64	n/a	No	2.629	n/a	5.0	NoResponse	-1	0.008	703.127	10	74	Feedback	Loss	False
705.568	2.629	Lose2	0.64	n/a	No	2.629	n/a	n/a	NoResponse	-1	0.0	n/a	10	74	ISIslide	Loss	False
708.217	0.25	Lose2	0.6446999999999999	0.0	Yes	2.933	0.017	n/a	GoodResponse	0	n/a	n/a	10	75	Cue	AvoidedLoss	True
708.467	3.95	Lose2	0.6446999999999999	0.0	Yes	2.933	0.0	n/a	GoodResponse	0	n/a	n/a	10	75	Fixation	AvoidedLoss	True
712.416	0.26	Lose2	0.6446999999999999	0.001	Yes	2.933	-0.001	4.0	GoodResponse	0	0.253	711.669	10	75	Target	AvoidedLoss	True
712.669	0.3	Lose2	0.6446999999999999	0.001	Yes	2.933	-0.001	4.0	GoodResponse	0	0.253	n/a	10	75	ButtonPress	AvoidedLoss	True
712.683	0.44	Lose2	0.6446999999999999	n/a	Yes	2.933	n/a	n/a	GoodResponse	0	n/a	n/a	10	75	Blank	AvoidedLoss	True
713.116	1.45	Lose2	0.6446999999999999	n/a	Yes	2.933	n/a	5.0	GoodResponse	0	0.03	712.146	10	75	Feedback	AvoidedLoss	True
714.565	2.933	Lose2	0.6446999999999999	n/a	Yes	2.933	n/a	n/a	GoodResponse	0	0.0	n/a	10	75	ISIslide	AvoidedLoss	True
717.531	0.25	Control	0.6364	0.0	No	3.219	0.031	n/a	NoResponse	0	n/a	n/a	10	76	Cue	Neutral	True
717.781	4.05	Control	0.6364	0.0	No	3.219	0.0	n/a	NoResponse	0	n/a	n/a	10	76	Fixation	Neutral	True
721.829	0.27	Control	0.6364	0.002	No	3.219	-0.002	4.0	NoResponse	0	0.294	721.123	10	76	Target	Neutral	True
722.113	0.43	Control	0.6364	n/a	No	3.219	n/a	n/a	NoResponse	0	n/a	n/a	10	76	Blank	Neutral	True
722.123	0.3	Control	0.6364	0.002	No	3.219	-0.002	4.0	NoResponse	0	0.294	n/a	10	76	ButtonPress	Neutral	True
722.529	1.45	Control	0.6364	n/a	No	3.219	n/a	5.0	NoResponse	0	0.031	721.56	10	76	Feedback	Neutral	True
723.979	3.219	Control	0.6364	n/a	No	3.219	n/a	n/a	NoResponse	0	0.0	n/a	10	76	ISIslide	Neutral	True
727.227	0.25	Lose2	0.6282	0.001	No	2.573	0.027	n/a	NoResponse	-1	n/a	n/a	9	77	Cue	Loss	False
727.477	3.95	Lose2	0.6282	0.0	No	2.573	0.0	4.0	NoResponse	-1	0.08	726.557	9	77	Fixation	Loss	False
727.557	0.3	Lose2	0.6282	0.0	No	2.573	0.0	4.0	NoResponse	-1	0.08	n/a	9	77	ButtonPress	Loss	False
731.426	0.28	Lose2	0.6282	0.001	No	2.573	-0.001	4.0	NoResponse	-1	0.399	730.825	9	77	Target	Loss	False
731.709	0.42	Lose2	0.6282	n/a	No	2.573	n/a	n/a	NoResponse	-1	n/a	n/a	9	77	Blank	Loss	False
731.825	0.3	Lose2	0.6282	0.001	No	2.573	-0.001	4.0	NoResponse	-1	0.399	n/a	9	77	ButtonPress	Loss	False
732.126	1.45	Lose2	0.6282	n/a	No	2.573	n/a	5.0	NoResponse	-1	0.044	731.17	9	77	Feedback	Loss	False
733.575	2.573	Lose2	0.6282	n/a	No	2.573	n/a	n/a	NoResponse	-1	0.0	n/a	9	77	ISIslide	Loss	False
