onset	duration	cue_type	current_mean_accuracy	duration_error	is_hit	isi_adjusted	onset_delay	response	response_type	reward	rt	rt_time	total_reward	trial_number	trial_phase	trial_type	one_press
11.101	0.25	Control	1.0	0.0	Yes	2.949	0.001	n/a	GoodResponse	0	n/a	n/a	0	0	Cue	Neutral	True
11.352	3.85	Control	1.0	0.0	Yes	2.949	0.001	n/a	GoodResponse	0	n/a	n/a	0	0	Fixation	Neutral	True
15.197	0.4	Control	1.0	0.004	Yes	2.949	-0.004	2.0	GoodResponse	0	0.383	14.58	0	0	Target	Neutral	True
15.58	0.3	Control	1.0	0.004	Yes	2.949	-0.004	2.0	GoodResponse	0	0.383	n/a	0	0	ButtonPress	Neutral	True
15.598	0.3	Control	1.0	n/a	Yes	2.949	n/a	n/a	GoodResponse	0	n/a	n/a	0	0	Blank	Neutral	True
15.899	1.45	Control	1.0	n/a	Yes	2.949	n/a	5.0	GoodResponse	0	0.027	14.926	0	0	Feedback	Neutral	True
17.353	2.949	Control	1.0	n/a	Yes	2.949	n/a	n/a	GoodResponse	0	0.0	n/a	0	0	ISIslide	Neutral	True
20.329	0.25	Lose2	1.0	0.0	Yes	2.771	0.029	n/a	GoodResponse	0	n/a	n/a	0	1	Cue	AvoidedLoss	True
20.579	4.0	Lose2	1.0	0.0	Yes	2.771	0.0	n/a	GoodResponse	0	n/a	n/a	0	1	Fixation	AvoidedLoss	True
24.575	0.39	Lose2	1.0	0.004	Yes	2.771	-0.004	2.0	GoodResponse	0	0.205	23.78	0	1	Target	AvoidedLoss	True
24.78	0.3	Lose2	1.0	0.004	Yes	2.771	-0.004	2.0	GoodResponse	0	0.205	n/a	0	1	ButtonPress	AvoidedLoss	True
24.976	0.31	Lose2	1.0	n/a	Yes	2.771	n/a	n/a	GoodResponse	0	n/a	n/a	0	1	Blank	AvoidedLoss	True
25.277	1.45	Lose2	1.0	n/a	Yes	2.771	n/a	5.0	GoodResponse	0	0.014	24.291	0	1	Feedback	AvoidedLoss	True
26.731	2.771	Lose2	1.0	n/a	Yes	2.771	n/a	n/a	GoodResponse	0	0.0	n/a	0	1	ISIslide	AvoidedLoss	True
29.523	0.25	Control	1.0	0.0	Yes	2.577	0.023	n/a	GoodResponse	0	n/a	n/a	0	2	Cue	Neutral	True
29.773	4.1	Control	1.0	0.0	Yes	2.577	0.0	n/a	GoodResponse	0	n/a	n/a	0	2	Fixation	Neutral	True
33.869	0.38	Control	1.0	0.004	Yes	2.577	-0.004	2.0	GoodResponse	0	0.249	33.118	0	2	Target	Neutral	True
34.118	0.3	Control	1.0	0.004	Yes	2.577	-0.004	2.0	GoodResponse	0	0.249	n/a	0	2	ButtonPress	Neutral	True
34.253	0.32	Control	1.0	n/a	Yes	2.577	n/a	n/a	GoodResponse	0	n/a	n/a	0	2	Blank	Neutral	True
34.571	1.45	Control	1.0	n/a	Yes	2.577	n/a	5.0	GoodResponse	0	0.037	33.608	0	2	Feedback	Neutral	True
36.025	2.577	Control	1.0	n/a	Yes	2.577	n/a	n/a	GoodResponse	0	0.0	n/a	0	2	ISIslide	Neutral	True
38.617	0.25	Win2	1.0	0.0	Yes	2.833	0.017	n/a	GoodResponse	1	n/a	n/a	1	3	Cue	Win	True
38.867	3.95	Win2	1.0	0.0	Yes	2.833	0.0	n/a	GoodResponse	1	n/a	n/a	1	3	Fixation	Win	True
42.829	0.37	Win2	1.0	0.0	Yes	2.833	0.012	2.0	GoodResponse	1	0.234	42.063	1	3	Target	Win	True
43.063	0.3	Win2	1.0	0.0	Yes	2.833	0.012	2.0	GoodResponse	1	0.234	n/a	1	3	ButtonPress	Win	True
43.197	0.33	Win2	1.0	n/a	Yes	2.833	n/a	n/a	GoodResponse	1	n/a	n/a	1	3	Blank	Win	True
43.515	1.45	Win2	1.0	n/a	Yes	2.833	n/a	5.0	GoodResponse	1	0.02	42.535	1	3	Feedback	Win	True
44.969	2.833	Win2	1.0	n/a	Yes	2.833	n/a	n/a	GoodResponse	1	0.0	n/a	1	3	ISIslide	Win	True
47.827	0.25	Win2	1.0	0.0	Yes	3.273	0.027	n/a	GoodResponse	1	n/a	n/a	2	4	Cue	Win	True
48.078	4.0	Win2	1.0	0.0	Yes	3.273	0.001	n/a	GoodResponse	1	n/a	n/a	2	4	Fixation	Win	True
52.073	0.36	Win2	1.0	0.004	Yes	3.273	-0.004	2.0	GoodResponse	1	0.244	51.317	2	4	Target	Win	True
52.317	0.3	Win2	1.0	0.004	Yes	3.273	-0.004	2.0	GoodResponse	1	0.244	n/a	2	4	ButtonPress	Win	True
52.441	0.34	Win2	1.0	n/a	Yes	3.273	n/a	n/a	GoodResponse	1	n/a	n/a	2	4	Blank	Win	True
52.776	1.45	Win2	1.0	n/a	Yes	3.273	n/a	5.0	GoodResponse	1	0.028	51.804	2	4	Feedback	Win	True
54.23	3.273	Win2	1.0	n/a	Yes	3.273	n/a	n/a	GoodResponse	1	0.0	n/a	2	4	ISIslide	Win	True
57.523	0.25	Win2	1.0	0.0	Yes	2.777	0.023	n/a	GoodResponse	1	n/a	n/a	3	5	Cue	Win	True
57.774	4.0	Win2	1.0	0.0	Yes	2.777	0.001	n/a	GoodResponse	1	n/a	n/a	3	5	Fixation	Win	True
61.769	0.35	Win2	1.0	0.004	Yes	2.777	-0.004	2.0	GoodResponse	1	0.211	60.98	3	5	Target	Win	True
61.98	0.3	Win2	1.0	0.004	Yes	2.777	-0.004	2.0	GoodResponse	1	0.211	n/a	3	5	ButtonPress	Win	True
62.12	0.35	Win2	1.0	n/a	Yes	2.777	n/a	n/a	GoodResponse	1	n/a	n/a	3	5	Blank	Win	True
62.471	1.45	Win2	1.0	n/a	Yes	2.777	n/a	5.0	GoodResponse	1	0.04	61.511	3	5	Feedback	Win	True
63.926	2.777	Win2	1.0	n/a	Yes	2.777	n/a	n/a	GoodResponse	1	0.0	n/a	3	5	ISIslide	Win	True
66.717	0.25	Lose2	1.0	0.0	Yes	2.733	0.017	n/a	GoodResponse	0	n/a	n/a	3	6	Cue	AvoidedLoss	True
66.968	3.95	Lose2	1.0	0.0	Yes	2.733	0.001	n/a	GoodResponse	0	n/a	n/a	3	6	Fixation	AvoidedLoss	True
70.913	0.34	Lose2	1.0	0.004	Yes	2.733	-0.004	2.0	GoodResponse	0	0.222	70.135	3	6	Target	AvoidedLoss	True
71.135	0.3	Lose2	1.0	0.004	Yes	2.733	-0.004	2.0	GoodResponse	0	0.222	n/a	3	6	ButtonPress	AvoidedLoss	True
71.264	0.36	Lose2	1.0	n/a	Yes	2.733	n/a	n/a	GoodResponse	0	n/a	n/a	3	6	Blank	AvoidedLoss	True
71.615	1.45	Lose2	1.0	n/a	Yes	2.733	n/a	5.0	GoodResponse	0	0.017	70.632	3	6	Feedback	AvoidedLoss	True
73.07	2.733	Lose2	1.0	n/a	Yes	2.733	n/a	n/a	GoodResponse	0	0.0	n/a	3	6	ISIslide	AvoidedLoss	True
75.828	0.25	Lose2	1.0	0.0	Yes	4.022	0.028	n/a	GoodResponse	0	n/a	n/a	3	7	Cue	AvoidedLoss	True
76.079	4.05	Lose2	1.0	0.0	Yes	4.022	0.001	n/a	GoodResponse	0	n/a	n/a	3	7	Fixation	AvoidedLoss	True
80.124	0.33	Lose2	1.0	0.004	Yes	4.022	-0.004	2.0	GoodResponse	0	0.224	79.348	3	7	Target	AvoidedLoss	True
80.348	0.3	Lose2	1.0	0.004	Yes	4.022	-0.004	2.0	GoodResponse	0	0.224	n/a	3	7	ButtonPress	AvoidedLoss	True
80.458	0.37	Lose2	1.0	n/a	Yes	4.022	n/a	n/a	GoodResponse	0	n/a	n/a	3	7	Blank	AvoidedLoss	True
80.826	1.45	Lose2	1.0	n/a	Yes	4.022	n/a	5.0	GoodResponse	0	0.026	79.852	3	7	Feedback	AvoidedLoss	True
82.28	4.022	Lose2	1.0	n/a	Yes	4.022	n/a	n/a	GoodResponse	0	0.0	n/a	3	7	ISIslide	AvoidedLoss	True
86.326	0.25	Lose2	1.0	0.0	Yes	3.024	0.026	n/a	GoodResponse	0	n/a	n/a	3	8	Cue	AvoidedLoss	True
86.577	3.95	Lose2	1.0	0.0	Yes	3.024	0.001	n/a	GoodResponse	0	n/a	n/a	3	8	Fixation	AvoidedLoss	True
90.522	0.32	Lose2	1.0	0.004	Yes	3.024	-0.004	2.0	GoodResponse	0	0.238	89.76	3	8	Target	AvoidedLoss	True
90.76	0.3	Lose2	1.0	0.004	Yes	3.024	-0.004	2.0	GoodResponse	0	0.238	n/a	3	8	ButtonPress	AvoidedLoss	True
90.856	0.38	Lose2	1.0	n/a	Yes	3.024	n/a	n/a	GoodResponse	0	n/a	n/a	3	8	Blank	AvoidedLoss	True
91.224	1.45	Lose2	1.0	n/a	Yes	3.024	n/a	5.0	GoodResponse	0	0.018	90.242	3	8	Feedback	AvoidedLoss	True
92.678	3.024	Lose2	1.0	n/a	Yes	3.024	n/a	n/a	GoodResponse	0	0.0	n/a	3	8	ISIslide	AvoidedLoss	True
95.721	0.25	Lose2	1.0	0.0	Yes	3.129	0.021	n/a	GoodResponse	0	n/a	n/a	3	9	Cue	AvoidedLoss	True
95.971	3.95	Lose2	1.0	0.0	Yes	3.129	0.0	n/a	GoodResponse	0	n/a	n/a	3	9	Fixation	AvoidedLoss	True
99.933	0.31	Lose2	1.0	0.0	Yes	3.129	0.012	2.0	GoodResponse	0	0.235	99.168	3	9	Target	AvoidedLoss	True
100.168	0.3	Lose2	1.0	0.0	Yes	3.129	0.012	2.0	GoodResponse	0	0.235	n/a	3	9	ButtonPress	AvoidedLoss	True
100.234	0.39	Lose2	1.0	n/a	Yes	3.129	n/a	n/a	GoodResponse	0	n/a	n/a	3	9	Blank	AvoidedLoss	True
100.619	1.45	Lose2	1.0	n/a	Yes	3.129	n/a	5.0	GoodResponse	0	0.038	99.657	3	9	Feedback	AvoidedLoss	True
102.073	3.129	Lose2	1.0	n/a	Yes	3.129	n/a	n/a	GoodResponse	0	0.0	n/a	3	9	ISIslide	AvoidedLoss	True
105.216	0.25	Control	1.0	0.0	Yes	3.284	0.016	n/a	GoodResponse	0	n/a	n/a	3	10	Cue	Neutral	True
105.466	4.0	Control	1.0	0.0	Yes	3.284	0.0	n/a	GoodResponse	0	n/a	n/a	3	10	Fixation	Neutral	True
109.462	0.3	Control	1.0	0.004	Yes	3.284	-0.004	2.0	GoodResponse	0	0.2	108.662	3	10	Target	Neutral	True
109.662	0.3	Control	1.0	0.004	Yes	3.284	-0.004	2.0	GoodResponse	0	0.2	n/a	3	10	ButtonPress	Neutral	True
109.763	0.4	Control	1.0	n/a	Yes	3.284	n/a	n/a	GoodResponse	0	n/a	n/a	3	10	Blank	Neutral	True
110.164	1.45	Control	1.0	n/a	Yes	3.284	n/a	5.0	GoodResponse	0	0.008	109.172	3	10	Feedback	Neutral	True
111.618	3.284	Control	1.0	n/a	Yes	3.284	n/a	n/a	GoodResponse	0	0.0	n/a	3	10	ISIslide	Neutral	True
114.928	0.25	Lose2	1.0	0.0	Yes	2.722	0.028	n/a	GoodResponse	0	n/a	n/a	3	11	Cue	AvoidedLoss	True
115.179	4.05	Lose2	1.0	0.0	Yes	2.722	0.001	n/a	GoodResponse	0	n/a	n/a	3	11	Fixation	AvoidedLoss	True
119.224	0.29	Lose2	1.0	0.004	Yes	2.722	-0.004	2.0	GoodResponse	0	0.244	118.468	3	11	Target	AvoidedLoss	True
119.468	0.3	Lose2	1.0	0.004	Yes	2.722	-0.004	2.0	GoodResponse	0	0.244	n/a	3	11	ButtonPress	AvoidedLoss	True
119.525	0.41	Lose2	1.0	n/a	Yes	2.722	n/a	n/a	GoodResponse	0	n/a	n/a	3	11	Blank	AvoidedLoss	True
119.926	1.45	Lose2	1.0	n/a	Yes	2.722	n/a	5.0	GoodResponse	0	0.047	118.973	3	11	Feedback	AvoidedLoss	True
121.381	2.722	Lose2	1.0	n/a	Yes	2.722	n/a	n/a	GoodResponse	0	0.0	n/a	3	11	ISIslide	AvoidedLoss	True
124.122	0.25	Control	1.0	0.0	Yes	2.978	0.022	n/a	GoodResponse	0	n/a	n/a	3	12	Cue	Neutral	True
124.373	3.9	Control	1.0	0.0	Yes	2.978	0.001	n/a	GoodResponse	0	n/a	n/a	3	12	Fixation	Neutral	True
128.268	0.28	Control	1.0	0.004	Yes	2.978	-0.004	2.0	GoodResponse	0	0.243	127.511	3	12	Target	Neutral	True
128.511	0.3	Control	1.0	0.004	Yes	2.978	-0.004	2.0	GoodResponse	0	0.243	n/a	3	12	ButtonPress	Neutral	True
128.552	0.42	Control	1.0	n/a	Yes	2.978	n/a	n/a	GoodResponse	0	n/a	n/a	3	12	Blank	Neutral	True
128.97	1.45	Control	1.0	n/a	Yes	2.978	n/a	5.0	GoodResponse	0	0.028	127.998	3	12	Feedback	Neutral	True
130.424	2.978	Control	1.0	n/a	Yes	2.978	n/a	n/a	GoodResponse	0	0.0	n/a	3	12	ISIslide	Neutral	True
133.417	0.25	Control	1.0	0.0	Yes	2.783	0.017	n/a	GoodResponse	0	n/a	n/a	3	13	Cue	Neutral	True
133.667	4.0	Control	1.0	0.0	Yes	2.783	0.0	n/a	GoodResponse	0	n/a	n/a	3	13	Fixation	Neutral	True
137.663	0.27	Control	1.0	0.004	Yes	2.783	-0.004	2.0	GoodResponse	0	0.229	136.892	3	13	Target	Neutral	True
137.892	0.3	Control	1.0	0.004	Yes	2.783	-0.004	2.0	GoodResponse	0	0.229	n/a	3	13	ButtonPress	Neutral	True
137.947	0.43	Control	1.0	n/a	Yes	2.783	n/a	n/a	GoodResponse	0	n/a	n/a	3	13	Blank	Neutral	True
138.365	1.45	Control	1.0	n/a	Yes	2.783	n/a	5.0	GoodResponse	0	0.047	137.412	3	13	Feedback	Neutral	True
139.819	2.783	Control	1.0	n/a	Yes	2.783	n/a	n/a	GoodResponse	0	0.0	n/a	3	13	ISIslide	Neutral	True
142.628	0.25	Win2	1.0	0.0	Yes	2.672	0.028	n/a	GoodResponse	1	n/a	n/a	4	14	Cue	Win	True
142.878	4.1	Win2	1.0	0.0	Yes	2.672	0.0	n/a	GoodResponse	1	n/a	n/a	4	14	Fixation	Win	True
146.974	0.26	Win2	1.0	0.004	Yes	2.672	-0.004	2.0	GoodResponse	1	0.236	146.21	4	14	Target	Win	True
147.21	0.3	Win2	1.0	0.004	Yes	2.672	-0.004	2.0	GoodResponse	1	0.236	n/a	4	14	ButtonPress	Win	True
147.241	0.44	Win2	1.0	n/a	Yes	2.672	n/a	n/a	GoodResponse	1	n/a	n/a	4	14	Blank	Win	True
147.676	1.45	Win2	1.0	n/a	Yes	2.672	n/a	5.0	GoodResponse	1	0.008	146.684	4	14	Feedback	Win	True
149.13	2.672	Win2	1.0	n/a	Yes	2.672	n/a	n/a	GoodResponse	1	0.0	n/a	4	14	ISIslide	Win	True
151.822	0.25	Control	0.9375	0.0	No	2.978	0.022	n/a	NoResponse	0	n/a	n/a	4	15	Cue	Neutral	True
152.072	4.0	Control	0.9375	0.001	No	2.978	0.0	n/a	NoResponse	0	n/a	n/a	4	15	Fixation	Neutral	True
156.068	0.25	Control	0.9375	0.004	No	2.978	-0.004	2.0	NoResponse	0	0.342	155.41	4	15	Target	Neutral	True
156.318	0.45	Control	0.9375	n/a	No	2.978	n/a	n/a	NoResponse	0	n/a	n/a	4	15	Blank	Neutral	True
156.41	0.3	Control	0.9375	0.004	No	2.978	-0.004	2.0	NoResponse	0	0.342	n/a	4	15	ButtonPress	Neutral	True
156.77	1.45	Control	0.9375	n/a	No	2.978	n/a	5.0	NoResponse	0	0.032	155.802	4	15	Feedback	Neutral	True
158.224	2.978	Control	0.9375	n/a	No	2.978	n/a	n/a	NoResponse	0	0.0	n/a	4	15	ISIslide	Neutral	True
161.216	0.25	Win2	0.9412	0.001	Yes	2.884	0.016	n/a	GoodResponse	1	n/a	n/a	5	16	Cue	Win	True
161.467	4.0	Win2	0.9412	0.0	Yes	2.884	0.001	n/a	GoodResponse	1	n/a	n/a	5	16	Fixation	Win	True
165.462	0.24	Win2	0.9412	0.004	Yes	2.884	-0.004	2.0	GoodResponse	1	0.191	164.653	5	16	Target	Win	True
165.653	0.3	Win2	0.9412	0.004	Yes	2.884	-0.004	2.0	GoodResponse	1	0.191	n/a	5	16	ButtonPress	Win	True
165.713	0.46	Win2	0.9412	n/a	Yes	2.884	n/a	n/a	GoodResponse	1	n/a	n/a	5	16	Blank	Win	True
166.165	1.45	Win2	0.9412	n/a	Yes	2.884	n/a	5.0	GoodResponse	1	0.006	165.171	5	16	Feedback	Win	True
167.619	2.884	Win2	0.9412	n/a	Yes	2.884	n/a	n/a	GoodResponse	1	0.0	n/a	5	16	ISIslide	Win	True
170.528	0.25	Lose2	0.8889	0.0	No	2.722	0.028	n/a	NoResponse	-1	n/a	n/a	4	17	Cue	Loss	True
170.778	3.95	Lose2	0.8889	0.0	No	2.722	0.0	n/a	NoResponse	-1	n/a	n/a	4	17	Fixation	Loss	True
174.74	0.23	Lose2	0.8889	0.0	No	2.722	0.012	2.0	NoResponse	-1	0.245	173.985	4	17	Target	Loss	True
174.958	0.47	Lose2	0.8889	n/a	No	2.722	n/a	n/a	NoResponse	-1	n/a	n/a	4	17	Blank	Loss	True
174.985	0.3	Lose2	0.8889	0.0	No	2.722	0.012	2.0	NoResponse	-1	0.245	n/a	4	17	ButtonPress	Loss	True
175.426	1.45	Lose2	0.8889	n/a	No	2.722	n/a	5.0	NoResponse	-1	0.01	174.436	4	17	Feedback	Loss	True
176.88	2.722	Lose2	0.8889	n/a	No	2.722	n/a	n/a	NoResponse	-1	0.0	n/a	4	17	ISIslide	Loss	True
179.621	0.25	Lose2	0.8946999999999999	0.001	Yes	2.729	0.021	n/a	GoodResponse	0	n/a	n/a	4	18	Cue	AvoidedLoss	True
179.872	4.05	Lose2	0.8946999999999999	0.0	Yes	2.729	0.001	n/a	GoodResponse	0	n/a	n/a	4	18	Fixation	AvoidedLoss	True
183.918	0.22	Lose2	0.8946999999999999	0.003	Yes	2.729	-0.003	2.0	GoodResponse	0	0.205	183.123	4	18	Target	AvoidedLoss	True
184.123	0.3	Lose2	0.8946999999999999	0.003	Yes	2.729	-0.003	2.0	GoodResponse	0	0.205	n/a	4	18	ButtonPress	AvoidedLoss	True
184.152	0.48	Lose2	0.8946999999999999	n/a	Yes	2.729	n/a	n/a	GoodResponse	0	n/a	n/a	4	18	Blank	AvoidedLoss	True
184.62	1.45	Lose2	0.8946999999999999	n/a	Yes	2.729	n/a	5.0	GoodResponse	0	0.036	183.656	4	18	Feedback	AvoidedLoss	True
186.074	2.729	Lose2	0.8946999999999999	n/a	Yes	2.729	n/a	n/a	GoodResponse	0	0.0	n/a	4	18	ISIslide	AvoidedLoss	True
188.816	0.25	Control	0.85	0.0	No	2.934	0.016	n/a	NoResponse	0	n/a	n/a	4	19	Cue	Neutral	True
189.066	3.95	Control	0.85	0.0	No	2.934	0.0	n/a	NoResponse	0	n/a	n/a	4	19	Fixation	Neutral	True
193.011	0.21	Control	0.85	0.005	No	2.934	-0.005	2.0	NoResponse	0	0.257	192.268	4	19	Target	Neutral	True
193.229	0.49	Control	0.85	n/a	No	2.934	n/a	n/a	NoResponse	0	n/a	n/a	4	19	Blank	Neutral	True
193.268	0.3	Control	0.85	0.005	No	2.934	-0.005	2.0	NoResponse	0	0.257	n/a	4	19	ButtonPress	Neutral	True
193.714	1.45	Control	0.85	n/a	No	2.934	n/a	5.0	NoResponse	0	0.015	192.729	4	19	Feedback	Neutral	True
195.168	2.934	Control	0.85	n/a	No	2.934	n/a	n/a	NoResponse	0	0.0	n/a	4	19	ISIslide	Neutral	True
198.127	0.25	Control	0.8095	0.0	No	2.623	0.027	n/a	NoResponse	0	n/a	n/a	4	20	Cue	Neutral	True
198.378	4.05	Control	0.8095	0.0	No	2.623	0.001	n/a	NoResponse	0	n/a	n/a	4	20	Fixation	Neutral	True
202.423	0.2	Control	0.8095	0.004	No	2.623	-0.004	2.0	NoResponse	0	0.217	201.64	4	20	Target	Neutral	True
202.624	0.5	Control	0.8095	n/a	No	2.623	n/a	n/a	NoResponse	0	n/a	n/a	4	20	Blank	Neutral	True
202.64	0.3	Control	0.8095	0.004	No	2.623	-0.004	2.0	NoResponse	0	0.217	n/a	4	20	ButtonPress	Neutral	True
203.125	1.45	Control	0.8095	n/a	No	2.623	n/a	5.0	NoResponse	0	0.018	202.143	4	20	Feedback	Neutral	True
204.579	2.623	Control	0.8095	n/a	No	2.623	n/a	n/a	NoResponse	0	0.0	n/a	4	20	ISIslide	Neutral	True
207.221	0.25	Control	0.7726999999999999	0.0	No	2.779	0.021	n/a	NoResponse	0	n/a	n/a	4	21	Cue	Neutral	True
207.471	4.1	Control	0.7726999999999999	0.0	No	2.779	0.0	n/a	NoResponse	0	n/a	n/a	4	21	Fixation	Neutral	True
211.567	0.19	Control	0.7726999999999999	0.004	No	2.779	-0.004	2.0	NoResponse	0	0.213	210.78	4	21	Target	Neutral	True
211.768	0.51	Control	0.7726999999999999	n/a	No	2.779	n/a	n/a	NoResponse	0	n/a	n/a	4	21	Blank	Neutral	True
211.78	0.3	Control	0.7726999999999999	0.004	No	2.779	-0.004	2.0	NoResponse	0	0.213	n/a	4	21	ButtonPress	Neutral	True
212.269	1.45	Control	0.7726999999999999	n/a	No	2.779	n/a	5.0	NoResponse	0	0.045	211.314	4	21	Feedback	Neutral	True
213.723	2.779	Control	0.7726999999999999	n/a	No	2.779	n/a	n/a	NoResponse	0	0.0	n/a	4	21	ISIslide	Neutral	True
216.515	0.25	Control	0.7391	0.0	No	2.785	0.015	n/a	NoResponse	0	n/a	n/a	4	22	Cue	Neutral	True
216.766	4.0	Control	0.7391	0.0	No	2.785	0.001	n/a	NoResponse	0	n/a	n/a	4	22	Fixation	Neutral	True
220.761	0.18	Control	0.7391	0.004	No	2.785	-0.004	2.0	NoResponse	0	0.225	219.986	4	22	Target	Neutral	True
220.945	0.52	Control	0.7391	n/a	No	2.785	n/a	n/a	NoResponse	0	n/a	n/a	4	22	Blank	Neutral	True
220.986	0.3	Control	0.7391	0.004	No	2.785	-0.004	2.0	NoResponse	0	0.225	n/a	4	22	ButtonPress	Neutral	True
221.463	1.45	Control	0.7391	n/a	No	2.785	n/a	5.0	NoResponse	0	0.021	220.484	4	22	Feedback	Neutral	True
222.918	2.785	Control	0.7391	n/a	No	2.785	n/a	n/a	NoResponse	0	0.0	n/a	4	22	ISIslide	Neutral	True
225.726	0.25	Control	0.7082999999999999	0.0	No	2.774	0.026	n/a	NoResponse	0	n/a	n/a	4	23	Cue	Neutral	True
225.977	3.9	Control	0.7082999999999999	0.0	No	2.774	0.001	n/a	NoResponse	0	n/a	n/a	4	23	Fixation	Neutral	True
229.872	0.17	Control	0.7082999999999999	0.004	No	2.774	-0.004	2.0	NoResponse	0	0.193	229.065	4	23	Target	Neutral	True
230.056	0.53	Control	0.7082999999999999	n/a	No	2.774	n/a	n/a	NoResponse	0	n/a	n/a	4	23	Blank	Neutral	True
230.065	0.3	Control	0.7082999999999999	0.004	No	2.774	-0.004	2.0	NoResponse	0	0.193	n/a	4	23	ButtonPress	Neutral	True
230.574	1.45	Control	0.7082999999999999	n/a	No	2.774	n/a	5.0	NoResponse	0	0.032	229.606	4	23	Feedback	Neutral	True
232.028	2.774	Control	0.7082999999999999	n/a	No	2.774	n/a	n/a	NoResponse	0	0.0	n/a	4	23	ISIslide	Neutral	True
234.82	0.25	Win2	0.68	0.0	No	3.13	0.02	n/a	NoResponse	0	n/a	n/a	4	24	Cue	MissedWin	True
235.071	3.95	Win2	0.68	0.0	No	3.13	0.001	n/a	NoResponse	0	n/a	n/a	4	24	Fixation	MissedWin	True
239.016	0.16	Win2	0.68	0.004	No	3.13	-0.004	2.0	NoResponse	0	0.222	238.238	4	24	Target	MissedWin	True
239.183	0.54	Win2	0.68	n/a	No	3.13	n/a	n/a	NoResponse	0	n/a	n/a	4	24	Blank	MissedWin	True
239.238	0.3	Win2	0.68	0.004	No	3.13	-0.004	2.0	NoResponse	0	0.222	n/a	4	24	ButtonPress	MissedWin	True
239.718	1.45	Win2	0.68	n/a	No	3.13	n/a	5.0	NoResponse	0	0.01	238.728	4	24	Feedback	MissedWin	True
241.172	3.13	Win2	0.68	n/a	No	3.13	n/a	n/a	NoResponse	0	0.0	n/a	4	24	ISIslide	MissedWin	True
244.332	0.25	Win2	0.6537999999999999	0.0	No	3.068	0.032	n/a	NoResponse	0	n/a	n/a	4	25	Cue	MissedWin	True
244.582	4.0	Win2	0.6537999999999999	0.0	No	3.068	0.0	n/a	NoResponse	0	n/a	n/a	4	25	Fixation	MissedWin	True
248.578	0.15	Win2	0.6537999999999999	0.004	No	3.068	-0.004	2.0	NoResponse	0	0.225	247.803	4	25	Target	MissedWin	True
248.728	0.55	Win2	0.6537999999999999	n/a	No	3.068	n/a	n/a	NoResponse	0	n/a	n/a	4	25	Blank	MissedWin	True
248.803	0.3	Win2	0.6537999999999999	0.004	No	3.068	-0.004	2.0	NoResponse	0	0.225	n/a	4	25	ButtonPress	MissedWin	True
249.28	1.45	Win2	0.6537999999999999	n/a	No	3.068	n/a	5.0	NoResponse	0	0.009	248.289	4	25	Feedback	MissedWin	True
250.734	3.068	Win2	0.6537999999999999	n/a	No	3.068	n/a	n/a	NoResponse	0	0.0	n/a	4	25	ISIslide	MissedWin	True
253.827	0.25	Win2	0.6296	0.0	No	2.923	0.027	n/a	NoResponse	0	n/a	n/a	4	26	Cue	MissedWin	True
254.077	3.95	Win2	0.6296	0.0	No	2.923	0.0	n/a	NoResponse	0	n/a	n/a	4	26	Fixation	MissedWin	True
258.023	0.16	Win2	0.6296	0.004	No	2.923	-0.004	2.0	NoResponse	0	0.222	257.245	4	26	Target	MissedWin	True
258.19	0.54	Win2	0.6296	n/a	No	2.923	n/a	n/a	NoResponse	0	n/a	n/a	4	26	Blank	MissedWin	True
258.245	0.3	Win2	0.6296	0.004	No	2.923	-0.004	2.0	NoResponse	0	0.222	n/a	4	26	ButtonPress	MissedWin	True
258.725	1.45	Win2	0.6296	n/a	No	2.923	n/a	5.0	NoResponse	0	0.027	257.752	4	26	Feedback	MissedWin	True
260.179	2.923	Win2	0.6296	n/a	No	2.923	n/a	n/a	NoResponse	0	0.0	n/a	4	26	ISIslide	MissedWin	True
263.121	0.25	Lose2	0.6071	0.0	No	2.829	0.021	n/a	NoResponse	-1	n/a	n/a	3	27	Cue	Loss	True
263.372	4.05	Lose2	0.6071	0.0	No	2.829	0.001	n/a	NoResponse	-1	n/a	n/a	3	27	Fixation	Loss	True
267.417	0.17	Lose2	0.6071	0.004	No	2.829	-0.004	2.0	NoResponse	-1	0.203	266.62	3	27	Target	Loss	True
267.601	0.53	Lose2	0.6071	n/a	No	2.829	n/a	n/a	NoResponse	-1	n/a	n/a	3	27	Blank	Loss	True
267.62	0.3	Lose2	0.6071	0.004	No	2.829	-0.004	2.0	NoResponse	-1	0.203	n/a	3	27	ButtonPress	Loss	True
268.119	1.45	Lose2	0.6071	n/a	No	2.829	n/a	5.0	NoResponse	-1	0.048	267.167	3	27	Feedback	Loss	True
269.574	2.829	Lose2	0.6071	n/a	No	2.829	n/a	n/a	NoResponse	-1	0.0	n/a	3	27	ISIslide	Loss	True
272.416	0.25	Control	0.5861999999999999	0.0	No	2.834	0.016	n/a	NoResponse	0	n/a	n/a	3	28	Cue	Neutral	True
272.666	4.05	Control	0.5861999999999999	0.0	No	2.834	0.0	n/a	NoResponse	0	n/a	n/a	3	28	Fixation	Neutral	True
276.712	0.18	Control	0.5861999999999999	0.004	No	2.834	-0.004	2.0	NoResponse	0	0.241	275.953	3	28	Target	Neutral	True
276.896	0.52	Control	0.5861999999999999	n/a	No	2.834	n/a	n/a	NoResponse	0	n/a	n/a	3	28	Blank	Neutral	True
276.953	0.3	Control	0.5861999999999999	0.004	No	2.834	-0.004	2.0	NoResponse	0	0.241	n/a	3	28	ButtonPress	Neutral	True
277.414	1.45	Control	0.5861999999999999	n/a	No	2.834	n/a	5.0	NoResponse	0	0.021	276.435	3	28	Feedback	Neutral	True
278.868	2.834	Control	0.5861999999999999	n/a	No	2.834	n/a	n/a	NoResponse	0	0.0	n/a	3	28	ISIslide	Neutral	True
281.727	0.25	Lose2	0.6	0.0	Yes	2.823	0.027	n/a	GoodResponse	0	n/a	n/a	3	29	Cue	AvoidedLoss	True
281.977	3.95	Lose2	0.6	0.001	Yes	2.823	0.0	n/a	GoodResponse	0	n/a	n/a	3	29	Fixation	AvoidedLoss	True
285.923	0.19	Lose2	0.6	0.004	Yes	2.823	-0.004	2.0	GoodResponse	0	0.181	285.104	3	29	Target	AvoidedLoss	True
286.104	0.3	Lose2	0.6	0.004	Yes	2.823	-0.004	2.0	GoodResponse	0	0.181	n/a	3	29	ButtonPress	AvoidedLoss	True
286.123	0.51	Lose2	0.6	n/a	Yes	2.823	n/a	n/a	GoodResponse	0	n/a	n/a	3	29	Blank	AvoidedLoss	True
286.625	1.45	Lose2	0.6	n/a	Yes	2.823	n/a	5.0	GoodResponse	0	0.029	285.654	3	29	Feedback	AvoidedLoss	True
288.079	2.823	Lose2	0.6	n/a	Yes	2.823	n/a	n/a	GoodResponse	0	0.0	n/a	3	29	ISIslide	AvoidedLoss	True
290.921	0.25	Win2	0.5806	0.0	No	2.779	0.021	n/a	NoResponse	0	n/a	n/a	3	30	Cue	MissedWin	True
291.172	3.9	Win2	0.5806	0.0	No	2.779	0.001	n/a	NoResponse	0	n/a	n/a	3	30	Fixation	MissedWin	True
295.067	0.2	Win2	0.5806	0.004	No	2.779	-0.004	2.0	NoResponse	0	0.227	294.294	3	30	Target	MissedWin	True
295.267	0.5	Win2	0.5806	n/a	No	2.779	n/a	n/a	NoResponse	0	n/a	n/a	3	30	Blank	MissedWin	True
295.294	0.3	Win2	0.5806	0.004	No	2.779	-0.004	2.0	NoResponse	0	0.227	n/a	3	30	ButtonPress	MissedWin	True
295.769	1.45	Win2	0.5806	n/a	No	2.779	n/a	5.0	NoResponse	0	0.007	294.776	3	30	Feedback	MissedWin	True
297.223	2.779	Win2	0.5806	n/a	No	2.779	n/a	n/a	NoResponse	0	0.0	n/a	3	30	ISIslide	MissedWin	True
300.015	0.25	Lose2	0.5938	0.0	Yes	2.835	0.015	n/a	GoodResponse	0	n/a	n/a	3	31	Cue	AvoidedLoss	True
300.265	4.05	Lose2	0.5938	0.001	Yes	2.835	0.0	n/a	GoodResponse	0	n/a	n/a	3	31	Fixation	AvoidedLoss	True
304.311	0.21	Lose2	0.5938	0.004	Yes	2.835	-0.004	2.0	GoodResponse	0	0.171	303.482	3	31	Target	AvoidedLoss	True
304.482	0.3	Lose2	0.5938	0.004	Yes	2.835	-0.004	2.0	GoodResponse	0	0.171	n/a	3	31	ButtonPress	AvoidedLoss	True
304.528	0.49	Lose2	0.5938	n/a	Yes	2.835	n/a	n/a	GoodResponse	0	n/a	n/a	3	31	Blank	AvoidedLoss	True
305.013	1.45	Lose2	0.5938	n/a	Yes	2.835	n/a	5.0	GoodResponse	0	0.031	304.044	3	31	Feedback	AvoidedLoss	True
306.467	2.835	Lose2	0.5938	n/a	Yes	2.835	n/a	n/a	GoodResponse	0	0.0	n/a	3	31	ISIslide	AvoidedLoss	True
309.326	0.25	Lose2	0.6061	0.0	Yes	2.624	0.026	n/a	GoodResponse	0	n/a	n/a	3	32	Cue	AvoidedLoss	True
309.577	4.15	Lose2	0.6061	0.0	Yes	2.624	0.001	n/a	GoodResponse	0	n/a	n/a	3	32	Fixation	AvoidedLoss	True
313.722	0.22	Lose2	0.6061	0.004	Yes	2.624	-0.004	2.0	GoodResponse	0	0.218	312.94	3	32	Target	AvoidedLoss	True
313.94	0.3	Lose2	0.6061	0.004	Yes	2.624	-0.004	2.0	GoodResponse	0	0.218	n/a	3	32	ButtonPress	AvoidedLoss	True
313.956	0.48	Lose2	0.6061	n/a	Yes	2.624	n/a	n/a	GoodResponse	0	n/a	n/a	3	32	Blank	AvoidedLoss	True
314.424	1.45	Lose2	0.6061	n/a	Yes	2.624	n/a	5.0	GoodResponse	0	0.035	313.459	3	32	Feedback	AvoidedLoss	True
315.879	2.624	Lose2	0.6061	n/a	Yes	2.624	n/a	n/a	GoodResponse	0	0.0	n/a	3	32	ISIslide	AvoidedLoss	True
318.52	0.25	Win2	0.6175999999999999	0.0	Yes	2.68	0.02	n/a	GoodResponse	1	n/a	n/a	4	33	Cue	Win	True
318.771	4.0	Win2	0.6175999999999999	0.0	Yes	2.68	0.001	n/a	GoodResponse	1	n/a	n/a	4	33	Fixation	Win	True
322.766	0.23	Win2	0.6175999999999999	0.004	Yes	2.68	-0.004	2.0	GoodResponse	1	0.213	321.979	4	33	Target	Win	True
322.979	0.3	Win2	0.6175999999999999	0.004	Yes	2.68	-0.004	2.0	GoodResponse	1	0.213	n/a	4	33	ButtonPress	Win	True
323	0.47	Win2	0.6175999999999999	n/a	Yes	2.68	n/a	n/a	GoodResponse	1	n/a	n/a	4	33	Blank	Win	True
323.468	1.45	Win2	0.6175999999999999	n/a	Yes	2.68	n/a	5.0	GoodResponse	1	0.016	322.484	4	33	Feedback	Win	True
324.923	2.68	Win2	0.6175999999999999	n/a	Yes	2.68	n/a	n/a	GoodResponse	1	0.0	n/a	4	33	ISIslide	Win	True
327.631	0.25	Lose2	0.6286	0.0	Yes	2.619	0.031	n/a	GoodResponse	0	n/a	n/a	4	34	Cue	AvoidedLoss	True
327.881	4.05	Lose2	0.6286	0.001	Yes	2.619	0.0	n/a	GoodResponse	0	n/a	n/a	4	34	Fixation	AvoidedLoss	True
331.927	0.24	Lose2	0.6286	0.004	Yes	2.619	-0.004	2.0	GoodResponse	0	0.238	331.165	4	34	Target	AvoidedLoss	True
332.165	0.3	Lose2	0.6286	0.004	Yes	2.619	-0.004	2.0	GoodResponse	0	0.238	n/a	4	34	ButtonPress	AvoidedLoss	True
332.178	0.46	Lose2	0.6286	n/a	Yes	2.619	n/a	n/a	GoodResponse	0	n/a	n/a	4	34	Blank	AvoidedLoss	True
332.629	1.45	Lose2	0.6286	n/a	Yes	2.619	n/a	5.0	GoodResponse	0	0.024	331.653	4	34	Feedback	AvoidedLoss	True
334.083	2.619	Lose2	0.6286	n/a	Yes	2.619	n/a	n/a	GoodResponse	0	0.0	n/a	4	34	ISIslide	AvoidedLoss	True
336.725	0.25	Lose2	0.6389	0.0	Yes	2.675	0.025	n/a	GoodResponse	0	n/a	n/a	4	35	Cue	AvoidedLoss	True
336.975	4.0	Lose2	0.6389	0.0	Yes	2.675	0.0	n/a	GoodResponse	0	n/a	n/a	4	35	Fixation	AvoidedLoss	True
340.971	0.25	Lose2	0.6389	0.004	Yes	2.675	-0.004	2.0	GoodResponse	0	0.232	340.203	4	35	Target	AvoidedLoss	True
341.203	0.3	Lose2	0.6389	0.004	Yes	2.675	-0.004	2.0	GoodResponse	0	0.232	n/a	4	35	ButtonPress	AvoidedLoss	True
341.221	0.45	Lose2	0.6389	n/a	Yes	2.675	n/a	n/a	GoodResponse	0	n/a	n/a	4	35	Blank	AvoidedLoss	True
341.673	1.45	Lose2	0.6389	n/a	Yes	2.675	n/a	5.0	GoodResponse	0	0.008	340.681	4	35	Feedback	AvoidedLoss	True
343.127	2.675	Lose2	0.6389	n/a	Yes	2.675	n/a	n/a	GoodResponse	0	0.0	n/a	4	35	ISIslide	AvoidedLoss	True
345.818	0.25	Control	0.6486	0.0	Yes	2.682	0.018	n/a	GoodResponse	0	n/a	n/a	4	36	Cue	Neutral	True
346.069	4.0	Control	0.6486	0.0	Yes	2.682	0.001	n/a	GoodResponse	0	n/a	n/a	4	36	Fixation	Neutral	True
350.064	0.26	Control	0.6486	0.004	Yes	2.682	-0.004	2.0	GoodResponse	0	0.236	349.3	4	36	Target	Neutral	True
350.3	0.3	Control	0.6486	0.004	Yes	2.682	-0.004	2.0	GoodResponse	0	0.236	n/a	4	36	ButtonPress	Neutral	True
350.332	0.44	Control	0.6486	n/a	Yes	2.682	n/a	n/a	GoodResponse	0	n/a	n/a	4	36	Blank	Neutral	True
350.766	1.45	Control	0.6486	n/a	Yes	2.682	n/a	5.0	GoodResponse	0	0.034	349.8	4	36	Feedback	Neutral	True
352.221	2.682	Control	0.6486	n/a	Yes	2.682	n/a	n/a	GoodResponse	0	0.0	n/a	4	36	ISIslide	Neutral	True
354.929	0.25	Win2	0.6315999999999999	0.0	No	2.871	0.029	n/a	NoResponse	0	n/a	n/a	4	37	Cue	MissedWin	True
355.18	4.0	Win2	0.6315999999999999	0.0	No	2.871	0.001	n/a	NoResponse	0	n/a	n/a	4	37	Fixation	MissedWin	True
359.175	0.27	Win2	0.6315999999999999	0.004	No	2.871	-0.004	2.0	NoResponse	0	0.316	358.491	4	37	Target	MissedWin	True
359.459	0.43	Win2	0.6315999999999999	n/a	No	2.871	n/a	n/a	NoResponse	0	n/a	n/a	4	37	Blank	MissedWin	True
359.491	0.3	Win2	0.6315999999999999	0.004	No	2.871	-0.004	2.0	NoResponse	0	0.316	n/a	4	37	ButtonPress	MissedWin	True
359.877	1.45	Win2	0.6315999999999999	n/a	No	2.871	n/a	5.0	NoResponse	0	0.045	358.922	4	37	Feedback	MissedWin	True
361.331	2.871	Win2	0.6315999999999999	n/a	No	2.871	n/a	n/a	NoResponse	0	0.0	n/a	4	37	ISIslide	MissedWin	True
364.223	0.25	Lose2	0.6409999999999999	0.0	Yes	2.827	0.023	n/a	GoodResponse	0	n/a	n/a	4	38	Cue	AvoidedLoss	True
364.474	3.95	Lose2	0.6409999999999999	0.0	Yes	2.827	0.001	n/a	GoodResponse	0	n/a	n/a	4	38	Fixation	AvoidedLoss	True
368.419	0.28	Lose2	0.6409999999999999	0.004	Yes	2.827	-0.004	2.0	GoodResponse	0	0.231	367.65	4	38	Target	AvoidedLoss	True
368.65	0.3	Lose2	0.6409999999999999	0.004	Yes	2.827	-0.004	2.0	GoodResponse	0	0.231	n/a	4	38	ButtonPress	AvoidedLoss	True
368.703	0.42	Lose2	0.6409999999999999	n/a	Yes	2.827	n/a	n/a	GoodResponse	0	n/a	n/a	4	38	Blank	AvoidedLoss	True
369.121	1.45	Lose2	0.6409999999999999	n/a	Yes	2.827	n/a	5.0	GoodResponse	0	0.02	368.141	4	38	Feedback	AvoidedLoss	True
370.576	2.827	Lose2	0.6409999999999999	n/a	Yes	2.827	n/a	n/a	GoodResponse	0	0.0	n/a	4	38	ISIslide	AvoidedLoss	True
373.418	0.25	Win2	0.65	0.0	Yes	2.982	0.018	n/a	GoodResponse	1	n/a	n/a	5	39	Cue	Win	True
373.668	4.1	Win2	0.65	0.0	Yes	2.982	0.0	n/a	GoodResponse	1	n/a	n/a	5	39	Fixation	Win	True
377.764	0.29	Win2	0.65	0.004	Yes	2.982	-0.004	2.0	GoodResponse	1	0.183	376.947	5	39	Target	Win	True
377.947	0.3	Win2	0.65	0.004	Yes	2.982	-0.004	2.0	GoodResponse	1	0.183	n/a	5	39	ButtonPress	Win	True
378.065	0.41	Win2	0.65	n/a	Yes	2.982	n/a	n/a	GoodResponse	1	n/a	n/a	5	39	Blank	Win	True
378.466	1.45	Win2	0.65	n/a	Yes	2.982	n/a	5.0	GoodResponse	1	0.04	377.506	5	39	Feedback	Win	True
379.92	2.982	Win2	0.65	n/a	Yes	2.982	n/a	n/a	GoodResponse	1	0.0	n/a	5	39	ISIslide	Win	True
382.929	0.25	Win2	0.6585	0.0	Yes	2.721	0.029	n/a	GoodResponse	1	n/a	n/a	6	40	Cue	Win	True
383.18	3.95	Win2	0.6585	0.0	Yes	2.721	0.001	n/a	GoodResponse	1	n/a	n/a	6	40	Fixation	Win	True
387.125	0.3	Win2	0.6585	0.004	Yes	2.721	-0.004	2.0	GoodResponse	1	0.175	386.3	6	40	Target	Win	True
387.3	0.3	Win2	0.6585	0.004	Yes	2.721	-0.004	2.0	GoodResponse	1	0.175	n/a	6	40	ButtonPress	Win	True
387.426	0.4	Win2	0.6585	n/a	Yes	2.721	n/a	n/a	GoodResponse	1	n/a	n/a	6	40	Blank	Win	True
387.827	1.45	Win2	0.6585	n/a	Yes	2.721	n/a	5.0	GoodResponse	1	0.045	386.872	6	40	Feedback	Win	True
389.282	2.721	Win2	0.6585	n/a	Yes	2.721	n/a	n/a	GoodResponse	1	0.0	n/a	6	40	ISIslide	Win	True
392.023	0.25	Win2	0.6667000000000001	0.0	Yes	2.777	0.023	n/a	GoodResponse	1	n/a	n/a	7	41	Cue	Win	True
392.274	3.9	Win2	0.6667000000000001	0.0	Yes	2.777	0.001	n/a	GoodResponse	1	n/a	n/a	7	41	Fixation	Win	True
396.169	0.3	Win2	0.6667000000000001	0.004	Yes	2.777	-0.004	2.0	GoodResponse	1	0.262	395.431	7	41	Target	Win	True
396.431	0.3	Win2	0.6667000000000001	0.004	Yes	2.777	-0.004	2.0	GoodResponse	1	0.262	n/a	7	41	ButtonPress	Win	True
396.47	0.4	Win2	0.6667000000000001	n/a	Yes	2.777	n/a	n/a	GoodResponse	1	n/a	n/a	7	41	Blank	Win	True
396.871	1.45	Win2	0.6667000000000001	n/a	Yes	2.777	n/a	5.0	GoodResponse	1	0.026	395.897	7	41	Feedback	Win	True
398.325	2.777	Win2	0.6667000000000001	n/a	Yes	2.777	n/a	n/a	GoodResponse	1	0.0	n/a	7	41	ISIslide	Win	True
401.117	0.25	Control	0.6744	0.0	Yes	2.933	0.017	n/a	GoodResponse	0	n/a	n/a	7	42	Cue	Neutral	True
401.368	3.85	Control	0.6744	0.0	Yes	2.933	0.001	n/a	GoodResponse	0	n/a	n/a	7	42	Fixation	Neutral	True
405.213	0.29	Control	0.6744	0.004	Yes	2.933	-0.004	2.0	GoodResponse	0	0.269	404.482	7	42	Target	Neutral	True
405.482	0.3	Control	0.6744	0.004	Yes	2.933	-0.004	2.0	GoodResponse	0	0.269	n/a	7	42	ButtonPress	Neutral	True
405.514	0.41	Control	0.6744	n/a	Yes	2.933	n/a	n/a	GoodResponse	0	n/a	n/a	7	42	Blank	Neutral	True
405.915	1.45	Control	0.6744	n/a	Yes	2.933	n/a	5.0	GoodResponse	0	0.007	404.922	7	42	Feedback	Neutral	True
407.369	2.933	Control	0.6744	n/a	Yes	2.933	n/a	n/a	GoodResponse	0	0.0	n/a	7	42	ISIslide	Neutral	True
410.328	0.25	Win2	0.6818000000000001	0.0	Yes	3.172	0.028	n/a	GoodResponse	1	n/a	n/a	8	43	Cue	Win	True
410.579	4.0	Win2	0.6818000000000001	0.0	Yes	3.172	0.001	n/a	GoodResponse	1	n/a	n/a	8	43	Fixation	Win	True
414.574	0.28	Win2	0.6818000000000001	0.004	Yes	3.172	-0.004	2.0	GoodResponse	1	0.235	413.809	8	43	Target	Win	True
414.809	0.3	Win2	0.6818000000000001	0.004	Yes	3.172	-0.004	2.0	GoodResponse	1	0.235	n/a	8	43	ButtonPress	Win	True
414.858	0.42	Win2	0.6818000000000001	n/a	Yes	3.172	n/a	n/a	GoodResponse	1	n/a	n/a	8	43	Blank	Win	True
415.276	1.45	Win2	0.6818000000000001	n/a	Yes	3.172	n/a	5.0	GoodResponse	1	0.01	414.286	8	43	Feedback	Win	True
416.73	3.172	Win2	0.6818000000000001	n/a	Yes	3.172	n/a	n/a	GoodResponse	1	0.0	n/a	8	43	ISIslide	Win	True
419.923	0.25	Win2	0.6889	0.0	Yes	2.977	0.023	n/a	GoodResponse	1	n/a	n/a	9	44	Cue	Win	True
420.174	4.0	Win2	0.6889	0.0	Yes	2.977	0.001	n/a	GoodResponse	1	n/a	n/a	9	44	Fixation	Win	True
424.169	0.27	Win2	0.6889	0.004	Yes	2.977	-0.004	2.0	GoodResponse	1	0.209	423.378	9	44	Target	Win	True
424.378	0.3	Win2	0.6889	0.004	Yes	2.977	-0.004	2.0	GoodResponse	1	0.209	n/a	9	44	ButtonPress	Win	True
424.453	0.43	Win2	0.6889	n/a	Yes	2.977	n/a	n/a	GoodResponse	1	n/a	n/a	9	44	Blank	Win	True
424.871	1.45	Win2	0.6889	n/a	Yes	2.977	n/a	5.0	GoodResponse	1	0.025	423.896	9	44	Feedback	Win	True
426.326	2.977	Win2	0.6889	n/a	Yes	2.977	n/a	n/a	GoodResponse	1	0.0	n/a	9	44	ISIslide	Win	True
429.318	0.25	Control	0.6957	0.0	Yes	2.882	0.018	n/a	GoodResponse	0	n/a	n/a	9	45	Cue	Neutral	True
429.569	4.1	Control	0.6957	0.0	Yes	2.882	0.001	n/a	GoodResponse	0	n/a	n/a	9	45	Fixation	Neutral	True
433.664	0.26	Control	0.6957	0.004	Yes	2.882	-0.004	2.0	GoodResponse	0	0.241	432.905	9	45	Target	Neutral	True
433.905	0.3	Control	0.6957	0.004	Yes	2.882	-0.004	2.0	GoodResponse	0	0.241	n/a	9	45	ButtonPress	Neutral	True
433.932	0.44	Control	0.6957	n/a	Yes	2.882	n/a	n/a	GoodResponse	0	n/a	n/a	9	45	Blank	Neutral	True
434.366	1.45	Control	0.6957	n/a	Yes	2.882	n/a	5.0	GoodResponse	0	0.043	433.409	9	45	Feedback	Neutral	True
435.821	2.882	Control	0.6957	n/a	Yes	2.882	n/a	n/a	GoodResponse	0	0.0	n/a	9	45	ISIslide	Neutral	True
438.729	0.25	Lose2	0.7021	0.001	Yes	3.371	0.029	n/a	GoodResponse	0	n/a	n/a	9	46	Cue	AvoidedLoss	True
438.98	4.0	Lose2	0.7021	0.0	Yes	3.371	0.001	n/a	GoodResponse	0	n/a	n/a	9	46	Fixation	AvoidedLoss	True
442.976	0.25	Lose2	0.7021	0.003	Yes	3.371	-0.003	2.0	GoodResponse	0	0.234	442.21	9	46	Target	AvoidedLoss	True
443.21	0.3	Lose2	0.7021	0.003	Yes	3.371	-0.003	2.0	GoodResponse	0	0.234	n/a	9	46	ButtonPress	AvoidedLoss	True
443.226	0.45	Lose2	0.7021	n/a	Yes	3.371	n/a	n/a	GoodResponse	0	n/a	n/a	9	46	Blank	AvoidedLoss	True
443.678	1.45	Lose2	0.7021	n/a	Yes	3.371	n/a	5.0	GoodResponse	0	0.048	442.726	9	46	Feedback	AvoidedLoss	True
445.132	3.371	Lose2	0.7021	n/a	Yes	3.371	n/a	n/a	GoodResponse	0	0.0	n/a	9	46	ISIslide	AvoidedLoss	True
448.525	0.25	Lose2	0.7082999999999999	0.001	Yes	2.675	0.025	n/a	GoodResponse	0	n/a	n/a	9	47	Cue	AvoidedLoss	True
448.776	4.0	Lose2	0.7082999999999999	0.0	Yes	2.675	0.001	n/a	GoodResponse	0	n/a	n/a	9	47	Fixation	AvoidedLoss	True
452.771	0.24	Lose2	0.7082999999999999	0.004	Yes	2.675	-0.004	2.0	GoodResponse	0	0.189	451.96	9	47	Target	AvoidedLoss	True
452.96	0.3	Lose2	0.7082999999999999	0.004	Yes	2.675	-0.004	2.0	GoodResponse	0	0.189	n/a	9	47	ButtonPress	AvoidedLoss	True
453.022	0.46	Lose2	0.7082999999999999	n/a	Yes	2.675	n/a	n/a	GoodResponse	0	n/a	n/a	9	47	Blank	AvoidedLoss	True
453.474	1.45	Lose2	0.7082999999999999	n/a	Yes	2.675	n/a	5.0	GoodResponse	0	0.008	452.482	9	47	Feedback	AvoidedLoss	True
454.928	2.675	Lose2	0.7082999999999999	n/a	Yes	2.675	n/a	n/a	GoodResponse	0	0.0	n/a	9	47	ISIslide	AvoidedLoss	True
457.619	0.25	Lose2	0.6939	0.0	No	3.031	0.019	n/a	NoResponse	-1	n/a	n/a	8	48	Cue	Loss	True
457.87	3.95	Lose2	0.6939	0.0	No	3.031	0.001	n/a	NoResponse	-1	n/a	n/a	8	48	Fixation	Loss	True
461.815	0.23	Lose2	0.6939	0.004	No	3.031	-0.004	2.0	NoResponse	-1	0.272	461.087	8	48	Target	Loss	True
462.049	0.47	Lose2	0.6939	n/a	No	3.031	n/a	n/a	NoResponse	-1	n/a	n/a	8	48	Blank	Loss	True
462.087	0.3	Lose2	0.6939	0.004	No	3.031	-0.004	2.0	NoResponse	-1	0.272	n/a	8	48	ButtonPress	Loss	True
462.517	1.45	Lose2	0.6939	n/a	No	3.031	n/a	5.0	NoResponse	-1	0.037	461.554	8	48	Feedback	Loss	True
463.972	3.031	Lose2	0.6939	n/a	No	3.031	n/a	n/a	NoResponse	-1	0.0	n/a	8	48	ISIslide	Loss	True
467.031	0.25	Control	0.7	0.0	Yes	2.869	0.031	n/a	GoodResponse	0	n/a	n/a	8	49	Cue	Neutral	True
467.282	4.0	Control	0.7	0.0	Yes	2.869	0.001	n/a	GoodResponse	0	n/a	n/a	8	49	Fixation	Neutral	True
471.277	0.22	Control	0.7	0.004	Yes	2.869	-0.004	2.0	GoodResponse	0	0.218	470.495	8	49	Target	Neutral	True
471.495	0.3	Control	0.7	0.004	Yes	2.869	-0.004	2.0	GoodResponse	0	0.218	n/a	8	49	ButtonPress	Neutral	True
471.511	0.48	Control	0.7	n/a	Yes	2.869	n/a	n/a	GoodResponse	0	n/a	n/a	8	49	Blank	Neutral	True
471.979	1.45	Control	0.7	n/a	Yes	2.869	n/a	5.0	GoodResponse	0	0.039	471.018	8	49	Feedback	Neutral	True
473.433	2.869	Control	0.7	n/a	Yes	2.869	n/a	n/a	GoodResponse	0	0.0	n/a	8	49	ISIslide	Neutral	True
476.325	0.25	Control	0.6862999999999999	0.0	No	2.775	0.025	n/a	NoResponse	0	n/a	n/a	8	50	Cue	Neutral	True
476.576	4.0	Control	0.6862999999999999	0.0	No	2.775	0.001	n/a	NoResponse	0	n/a	n/a	8	50	Fixation	Neutral	True
480.571	0.21	Control	0.6862999999999999	0.004	No	2.775	-0.004	2.0	NoResponse	0	0.23	479.801	8	50	Target	Neutral	True
480.789	0.49	Control	0.6862999999999999	n/a	No	2.775	n/a	n/a	NoResponse	0	n/a	n/a	8	50	Blank	Neutral	True
480.801	0.3	Control	0.6862999999999999	0.004	No	2.775	-0.004	2.0	NoResponse	0	0.23	n/a	8	50	ButtonPress	Neutral	True
481.273	1.45	Control	0.6862999999999999	n/a	No	2.775	n/a	5.0	NoResponse	0	0.013	480.286	8	50	Feedback	Neutral	True
482.728	2.775	Control	0.6862999999999999	n/a	No	2.775	n/a	n/a	NoResponse	0	0.0	n/a	8	50	ISIslide	Neutral	True
485.519	0.25	Control	0.6731	0.0	No	2.731	0.019	n/a	NoResponse	0	n/a	n/a	8	51	Cue	Neutral	True
485.77	3.95	Control	0.6731	0.0	No	2.731	0.001	n/a	NoResponse	0	n/a	n/a	8	51	Fixation	Neutral	True
489.715	0.2	Control	0.6731	0.004	No	2.731	-0.004	2.0	NoResponse	0	0.232	488.947	8	51	Target	Neutral	True
489.916	0.5	Control	0.6731	n/a	No	2.731	n/a	n/a	NoResponse	0	n/a	n/a	8	51	Blank	Neutral	True
489.947	0.3	Control	0.6731	0.004	No	2.731	-0.004	2.0	NoResponse	0	0.232	n/a	8	51	ButtonPress	Neutral	True
490.417	1.45	Control	0.6731	n/a	No	2.731	n/a	5.0	NoResponse	0	0.04	489.457	8	51	Feedback	Neutral	True
491.872	2.731	Control	0.6731	n/a	No	2.731	n/a	n/a	NoResponse	0	0.0	n/a	8	51	ISIslide	Neutral	True
494.63	0.25	Control	0.6604000000000001	0.0	No	2.62	0.03	n/a	NoResponse	0	n/a	n/a	8	52	Cue	Neutral	True
494.881	4.05	Control	0.6604000000000001	0.0	No	2.62	0.001	n/a	NoResponse	0	n/a	n/a	8	52	Fixation	Neutral	True
498.926	0.19	Control	0.6604000000000001	0.004	No	2.62	-0.004	2.0	NoResponse	0	0.202	498.128	8	52	Target	Neutral	True
499.127	0.51	Control	0.6604000000000001	n/a	No	2.62	n/a	n/a	NoResponse	0	n/a	n/a	8	52	Blank	Neutral	True
499.128	0.3	Control	0.6604000000000001	0.004	No	2.62	-0.004	2.0	NoResponse	0	0.202	n/a	8	52	ButtonPress	Neutral	True
499.628	1.45	Control	0.6604000000000001	n/a	No	2.62	n/a	5.0	NoResponse	0	0.047	498.675	8	52	Feedback	Neutral	True
501.083	2.62	Control	0.6604000000000001	n/a	No	2.62	n/a	n/a	NoResponse	0	0.0	n/a	8	52	ISIslide	Neutral	True
503.724	0.25	Win2	0.6481	0.0	No	2.926	0.024	n/a	NoResponse	0	n/a	n/a	8	53	Cue	MissedWin	False
503.975	4.05	Win2	0.6481	0.0	No	2.926	0.001	2.0	NoResponse	0	3.838	506.813	8	53	Fixation	MissedWin	False
507.813	0.3	Win2	0.6481	0.0	No	2.926	0.001	2.0	NoResponse	0	3.838	n/a	8	53	ButtonPress	MissedWin	False
508.02	0.19	Win2	0.6481	0.004	No	2.926	-0.004	2.0	NoResponse	0	0.287	507.307	8	53	Target	MissedWin	False
508.221	0.51	Win2	0.6481	n/a	No	2.926	n/a	n/a	NoResponse	0	n/a	n/a	8	53	Blank	MissedWin	False
508.307	0.3	Win2	0.6481	0.004	No	2.926	-0.004	2.0	NoResponse	0	0.287	n/a	8	53	ButtonPress	MissedWin	False
508.722	1.45	Win2	0.6481	n/a	No	2.926	n/a	5.0	NoResponse	0	0.027	507.749	8	53	Feedback	MissedWin	False
510.176	2.926	Win2	0.6481	n/a	No	2.926	n/a	n/a	NoResponse	0	0.0	n/a	8	53	ISIslide	MissedWin	False
513.119	0.25	Win2	0.6364	0.0	No	2.731	0.019	n/a	NoResponse	0	n/a	n/a	8	54	Cue	MissedWin	True
513.369	3.95	Win2	0.6364	0.0	No	2.731	0.0	n/a	NoResponse	0	n/a	n/a	8	54	Fixation	MissedWin	True
517.331	0.2	Win2	0.6364	0.0	No	2.731	0.012	2.0	NoResponse	0	0.239	516.57	8	54	Target	MissedWin	True
517.515	0.5	Win2	0.6364	n/a	No	2.731	n/a	n/a	NoResponse	0	n/a	n/a	8	54	Blank	MissedWin	True
517.57	0.3	Win2	0.6364	0.0	No	2.731	0.012	2.0	NoResponse	0	0.239	n/a	8	54	ButtonPress	MissedWin	True
518.017	1.45	Win2	0.6364	n/a	No	2.731	n/a	5.0	NoResponse	0	0.0	517.017	8	54	Feedback	MissedWin	True
519.471	2.731	Win2	0.6364	n/a	No	2.731	n/a	n/a	NoResponse	0	0.0	n/a	8	54	ISIslide	MissedWin	True
522.229	0.25	Control	0.625	0.0	No	3.021	0.029	n/a	NoResponse	0	n/a	n/a	8	55	Cue	Neutral	True
522.48	3.95	Control	0.625	0.0	No	3.021	0.001	n/a	NoResponse	0	n/a	n/a	8	55	Fixation	Neutral	True
526.425	0.21	Control	0.625	0.004	No	3.021	-0.004	2.0	NoResponse	0	0.313	525.738	8	55	Target	Neutral	True
526.642	0.49	Control	0.625	n/a	No	3.021	n/a	n/a	NoResponse	0	n/a	n/a	8	55	Blank	Neutral	True
526.738	0.3	Control	0.625	0.004	No	3.021	-0.004	2.0	NoResponse	0	0.313	n/a	8	55	ButtonPress	Neutral	True
527.127	1.45	Control	0.625	n/a	No	3.021	n/a	5.0	NoResponse	0	0.012	526.139	8	55	Feedback	Neutral	True
528.581	3.021	Control	0.625	n/a	No	3.021	n/a	n/a	NoResponse	0	0.0	n/a	8	55	ISIslide	Neutral	True
531.624	0.25	Control	0.6315999999999999	0.0	Yes	2.826	0.024	n/a	GoodResponse	0	n/a	n/a	8	56	Cue	Neutral	True
531.875	3.95	Control	0.6315999999999999	0.0	Yes	2.826	0.001	n/a	GoodResponse	0	n/a	n/a	8	56	Fixation	Neutral	True
535.82	0.22	Control	0.6315999999999999	0.004	Yes	2.826	-0.004	2.0	GoodResponse	0	0.217	535.037	8	56	Target	Neutral	True
536.037	0.3	Control	0.6315999999999999	0.004	Yes	2.826	-0.004	2.0	GoodResponse	0	0.217	n/a	8	56	ButtonPress	Neutral	True
536.054	0.48	Control	0.6315999999999999	n/a	Yes	2.826	n/a	n/a	GoodResponse	0	n/a	n/a	8	56	Blank	Neutral	True
536.522	1.45	Control	0.6315999999999999	n/a	Yes	2.826	n/a	5.0	GoodResponse	0	0.032	535.554	8	56	Feedback	Neutral	True
537.976	2.826	Control	0.6315999999999999	n/a	Yes	2.826	n/a	n/a	GoodResponse	0	0.0	n/a	8	56	ISIslide	Neutral	True
540.818	0.25	Control	0.6207	0.0	No	3.482	0.018	n/a	LatePress	0	n/a	n/a	8	57	Cue	Neutral	True
541.069	4.0	Control	0.6207	0.0	No	3.482	0.001	n/a	LatePress	0	n/a	n/a	8	57	Fixation	Neutral	True
545.064	0.23	Control	0.6207	0.004	No	3.482	-0.004	2.0	LatePress	0	0.23	544.294	8	57	Target	Neutral	True
545.294	0.3	Control	0.6207	0.004	No	3.482	-0.004	2.0	LatePress	0	0.23	n/a	8	57	ButtonPress	Neutral	True
545.298	0.47	Control	0.6207	n/a	No	3.482	n/a	n/a	LatePress	0	n/a	n/a	8	57	Blank	Neutral	True
545.766	1.45	Control	0.6207	n/a	No	3.482	n/a	5.0	LatePress	0	0.008	544.774	8	57	Feedback	Neutral	True
547.221	3.482	Control	0.6207	n/a	No	3.482	n/a	n/a	LatePress	0	0.0	n/a	8	57	ISIslide	Neutral	True
550.714	0.25	Win2	0.6271	0.0	Yes	2.736	0.014	n/a	GoodResponse	1	n/a	n/a	9	58	Cue	Win	True
550.965	4.05	Win2	0.6271	0.0	Yes	2.736	0.001	n/a	GoodResponse	1	n/a	n/a	9	58	Fixation	Win	True
555.01	0.24	Win2	0.6271	0.004	Yes	2.736	-0.004	2.0	GoodResponse	1	0.238	554.248	9	58	Target	Win	True
555.248	0.3	Win2	0.6271	0.004	Yes	2.736	-0.004	2.0	GoodResponse	1	0.238	n/a	9	58	ButtonPress	Win	True
555.261	0.46	Win2	0.6271	n/a	Yes	2.736	n/a	n/a	GoodResponse	1	n/a	n/a	9	58	Blank	Win	True
555.713	1.45	Win2	0.6271	n/a	Yes	2.736	n/a	5.0	GoodResponse	1	0.011	554.724	9	58	Feedback	Win	True
557.167	2.736	Win2	0.6271	n/a	Yes	2.736	n/a	n/a	GoodResponse	1	0.0	n/a	9	58	ISIslide	Win	True
559.925	0.25	Lose2	0.6333	0.0	Yes	2.675	0.025	n/a	GoodResponse	0	n/a	n/a	9	59	Cue	AvoidedLoss	True
560.176	4.0	Lose2	0.6333	0.0	Yes	2.675	0.001	n/a	GoodResponse	0	n/a	n/a	9	59	Fixation	AvoidedLoss	True
564.171	0.25	Lose2	0.6333	0.004	Yes	2.675	-0.004	2.0	GoodResponse	0	0.237	563.408	9	59	Target	AvoidedLoss	True
564.408	0.3	Lose2	0.6333	0.004	Yes	2.675	-0.004	2.0	GoodResponse	0	0.237	n/a	9	59	ButtonPress	AvoidedLoss	True
564.422	0.45	Lose2	0.6333	n/a	Yes	2.675	n/a	n/a	GoodResponse	0	n/a	n/a	9	59	Blank	AvoidedLoss	True
564.873	1.45	Lose2	0.6333	n/a	Yes	2.675	n/a	5.0	GoodResponse	0	0.022	563.895	9	59	Feedback	AvoidedLoss	True
566.328	2.675	Lose2	0.6333	n/a	Yes	2.675	n/a	n/a	GoodResponse	0	0.0	n/a	9	59	ISIslide	AvoidedLoss	True
569.019	0.25	Control	0.6393	0.0	Yes	2.681	0.019	n/a	GoodResponse	0	n/a	n/a	9	60	Cue	Neutral	True
569.27	4.0	Control	0.6393	0.0	Yes	2.681	0.001	n/a	GoodResponse	0	n/a	n/a	9	60	Fixation	Neutral	True
573.265	0.26	Control	0.6393	0.004	Yes	2.681	-0.004	2.0	GoodResponse	0	0.255	572.52	9	60	Target	Neutral	True
573.52	0.3	Control	0.6393	0.004	Yes	2.681	-0.004	2.0	GoodResponse	0	0.255	n/a	9	60	ButtonPress	Neutral	True
573.533	0.44	Control	0.6393	n/a	Yes	2.681	n/a	n/a	GoodResponse	0	n/a	n/a	9	60	Blank	Neutral	True
573.967	1.45	Control	0.6393	n/a	Yes	2.681	n/a	5.0	GoodResponse	0	0.001	572.968	9	60	Feedback	Neutral	True
575.422	2.681	Control	0.6393	n/a	Yes	2.681	n/a	n/a	GoodResponse	0	0.0	n/a	9	60	ISIslide	Neutral	True
578.13	0.25	Lose2	0.6452	0.0	Yes	2.97	0.03	n/a	GoodResponse	0	n/a	n/a	9	61	Cue	AvoidedLoss	True
578.38	4.0	Lose2	0.6452	0.0	Yes	2.97	0.0	n/a	GoodResponse	0	n/a	n/a	9	61	Fixation	AvoidedLoss	True
582.376	0.27	Lose2	0.6452	0.004	Yes	2.97	-0.004	2.0	GoodResponse	0	0.223	581.599	9	61	Target	AvoidedLoss	True
582.599	0.3	Lose2	0.6452	0.004	Yes	2.97	-0.004	2.0	GoodResponse	0	0.223	n/a	9	61	ButtonPress	AvoidedLoss	True
582.66	0.43	Lose2	0.6452	n/a	Yes	2.97	n/a	n/a	GoodResponse	0	n/a	n/a	9	61	Blank	AvoidedLoss	True
583.078	1.45	Lose2	0.6452	n/a	Yes	2.97	n/a	5.0	GoodResponse	0	0.012	582.09	9	61	Feedback	AvoidedLoss	True
584.532	2.97	Lose2	0.6452	n/a	Yes	2.97	n/a	n/a	GoodResponse	0	0.0	n/a	9	61	ISIslide	AvoidedLoss	True
587.524	0.25	Lose2	0.6507999999999999	0.0	Yes	2.876	0.024	n/a	GoodResponse	0	n/a	n/a	9	62	Cue	AvoidedLoss	True
587.775	3.9	Lose2	0.6507999999999999	0.0	Yes	2.876	0.001	n/a	GoodResponse	0	n/a	n/a	9	62	Fixation	AvoidedLoss	True
591.67	0.28	Lose2	0.6507999999999999	0.004	Yes	2.876	-0.004	2.0	GoodResponse	0	0.267	590.937	9	62	Target	AvoidedLoss	True
591.937	0.3	Lose2	0.6507999999999999	0.004	Yes	2.876	-0.004	2.0	GoodResponse	0	0.267	n/a	9	62	ButtonPress	AvoidedLoss	True
591.954	0.42	Lose2	0.6507999999999999	n/a	Yes	2.876	n/a	n/a	GoodResponse	0	n/a	n/a	9	62	Blank	AvoidedLoss	True
592.372	1.45	Lose2	0.6507999999999999	n/a	Yes	2.876	n/a	5.0	GoodResponse	0	0.034	591.406	9	62	Feedback	AvoidedLoss	True
593.827	2.876	Lose2	0.6507999999999999	n/a	Yes	2.876	n/a	n/a	GoodResponse	0	0.0	n/a	9	62	ISIslide	AvoidedLoss	True
596.719	0.25	Lose2	0.6562	0.0	Yes	2.631	0.019	n/a	GoodResponse	0	n/a	n/a	9	63	Cue	AvoidedLoss	True
596.969	4.05	Lose2	0.6562	0.0	Yes	2.631	0.0	n/a	GoodResponse	0	n/a	n/a	9	63	Fixation	AvoidedLoss	True
601.015	0.29	Lose2	0.6562	0.004	Yes	2.631	-0.004	2.0	GoodResponse	0	0.219	600.234	9	63	Target	AvoidedLoss	True
601.234	0.3	Lose2	0.6562	0.004	Yes	2.631	-0.004	2.0	GoodResponse	0	0.219	n/a	9	63	ButtonPress	AvoidedLoss	True
601.316	0.41	Lose2	0.6562	n/a	Yes	2.631	n/a	n/a	GoodResponse	0	n/a	n/a	9	63	Blank	AvoidedLoss	True
601.717	1.45	Lose2	0.6562	n/a	Yes	2.631	n/a	5.0	GoodResponse	0	0.008	600.725	9	63	Feedback	AvoidedLoss	True
603.171	2.631	Lose2	0.6562	n/a	Yes	2.631	n/a	n/a	GoodResponse	0	0.0	n/a	9	63	ISIslide	AvoidedLoss	True
605.829	0.25	Win2	0.6615000000000001	0.0	Yes	3.121	0.029	n/a	GoodResponse	1	n/a	n/a	10	64	Cue	Win	True
606.08	4.15	Win2	0.6615000000000001	0.0	Yes	3.121	0.001	n/a	GoodResponse	1	n/a	n/a	10	64	Fixation	Win	True
610.226	0.29	Win2	0.6615000000000001	0.003	Yes	3.121	-0.003	2.0	GoodResponse	1	0.201	609.427	10	64	Target	Win	True
610.427	0.3	Win2	0.6615000000000001	0.003	Yes	3.121	-0.003	2.0	GoodResponse	1	0.201	n/a	10	64	ButtonPress	Win	True
610.526	0.41	Win2	0.6615000000000001	n/a	Yes	3.121	n/a	n/a	GoodResponse	1	n/a	n/a	10	64	Blank	Win	True
610.928	1.45	Win2	0.6615000000000001	n/a	Yes	3.121	n/a	5.0	GoodResponse	1	0.015	609.943	10	64	Feedback	Win	True
612.382	3.121	Win2	0.6615000000000001	n/a	Yes	3.121	n/a	n/a	GoodResponse	1	0.0	n/a	10	64	ISIslide	Win	True
615.525	0.25	Control	0.6667000000000001	0.0	Yes	2.775	0.025	n/a	GoodResponse	0	n/a	n/a	10	65	Cue	Neutral	True
615.776	4.0	Control	0.6667000000000001	0.0	Yes	2.775	0.001	n/a	GoodResponse	0	n/a	n/a	10	65	Fixation	Neutral	True
619.771	0.29	Control	0.6667000000000001	0.004	Yes	2.775	-0.004	2.0	GoodResponse	0	0.227	618.998	10	65	Target	Neutral	True
619.998	0.3	Control	0.6667000000000001	0.004	Yes	2.775	-0.004	2.0	GoodResponse	0	0.227	n/a	10	65	ButtonPress	Neutral	True
620.072	0.41	Control	0.6667000000000001	n/a	Yes	2.775	n/a	n/a	GoodResponse	0	n/a	n/a	10	65	Blank	Neutral	True
620.473	1.45	Control	0.6667000000000001	n/a	Yes	2.775	n/a	5.0	GoodResponse	0	0.031	619.504	10	65	Feedback	Neutral	True
621.927	2.775	Control	0.6667000000000001	n/a	Yes	2.775	n/a	n/a	GoodResponse	0	0.0	n/a	10	65	ISIslide	Neutral	True
624.719	0.25	Win2	0.6567000000000001	0.0	No	2.781	0.019	n/a	NoResponse	0	n/a	n/a	10	66	Cue	MissedWin	True
624.97	3.9	Win2	0.6567000000000001	0.0	No	2.781	0.001	n/a	NoResponse	0	n/a	n/a	10	66	Fixation	MissedWin	True
628.865	0.28	Win2	0.6567000000000001	0.004	No	2.781	-0.004	2.0	NoResponse	0	0.293	628.158	10	66	Target	MissedWin	True
629.149	0.42	Win2	0.6567000000000001	n/a	No	2.781	n/a	n/a	NoResponse	0	n/a	n/a	10	66	Blank	MissedWin	True
629.158	0.3	Win2	0.6567000000000001	0.004	No	2.781	-0.004	2.0	NoResponse	0	0.293	n/a	10	66	ButtonPress	MissedWin	True
629.567	1.45	Win2	0.6567000000000001	n/a	No	2.781	n/a	5.0	NoResponse	0	0.009	628.576	10	66	Feedback	MissedWin	True
631.021	2.781	Win2	0.6567000000000001	n/a	No	2.781	n/a	n/a	NoResponse	0	0.0	n/a	10	66	ISIslide	MissedWin	True
633.829	0.25	Control	0.6618	0.001	Yes	2.721	0.029	n/a	GoodResponse	0	n/a	n/a	10	67	Cue	Neutral	True
634.08	3.95	Control	0.6618	0.0	Yes	2.721	0.001	n/a	GoodResponse	0	n/a	n/a	10	67	Fixation	Neutral	True
638.025	0.28	Control	0.6618	0.004	Yes	2.721	-0.004	2.0	GoodResponse	0	0.224	637.249	10	67	Target	Neutral	True
638.249	0.3	Control	0.6618	0.004	Yes	2.721	-0.004	2.0	GoodResponse	0	0.224	n/a	10	67	ButtonPress	Neutral	True
638.31	0.42	Control	0.6618	n/a	Yes	2.721	n/a	n/a	GoodResponse	0	n/a	n/a	10	67	Blank	Neutral	True
638.727	1.45	Control	0.6618	n/a	Yes	2.721	n/a	5.0	GoodResponse	0	0.02	637.747	10	67	Feedback	Neutral	True
640.182	2.721	Control	0.6618	n/a	Yes	2.721	n/a	n/a	GoodResponse	0	0.0	n/a	10	67	ISIslide	Neutral	True
642.923	0.25	Win2	0.6667000000000001	0.0	Yes	3.077	0.023	n/a	GoodResponse	1	n/a	n/a	11	68	Cue	Win	True
643.174	4.0	Win2	0.6667000000000001	0.0	Yes	3.077	0.001	n/a	GoodResponse	1	n/a	n/a	11	68	Fixation	Win	True
647.169	0.28	Win2	0.6667000000000001	0.004	Yes	3.077	-0.004	2.0	GoodResponse	1	0.206	646.375	11	68	Target	Win	True
647.375	0.3	Win2	0.6667000000000001	0.004	Yes	3.077	-0.004	2.0	GoodResponse	1	0.206	n/a	11	68	ButtonPress	Win	True
647.454	0.42	Win2	0.6667000000000001	n/a	Yes	3.077	n/a	n/a	GoodResponse	1	n/a	n/a	11	68	Blank	Win	True
647.871	1.45	Win2	0.6667000000000001	n/a	Yes	3.077	n/a	5.0	GoodResponse	1	0.047	646.918	11	68	Feedback	Win	True
649.326	3.077	Win2	0.6667000000000001	n/a	Yes	3.077	n/a	n/a	GoodResponse	1	0.0	n/a	11	68	ISIslide	Win	True
652.418	0.25	Win2	0.6570999999999999	0.0	No	3.232	0.018	n/a	NoResponse	0	n/a	n/a	11	69	Cue	MissedWin	True
652.669	3.95	Win2	0.6570999999999999	0.0	No	3.232	0.001	n/a	NoResponse	0	n/a	n/a	11	69	Fixation	MissedWin	True
656.614	0.27	Win2	0.6570999999999999	0.004	No	3.232	-0.004	2.0	NoResponse	0	0.293	655.907	11	69	Target	MissedWin	True
656.898	0.43	Win2	0.6570999999999999	n/a	No	3.232	n/a	n/a	NoResponse	0	n/a	n/a	11	69	Blank	MissedWin	True
656.907	0.3	Win2	0.6570999999999999	0.004	No	3.232	-0.004	2.0	NoResponse	0	0.293	n/a	11	69	ButtonPress	MissedWin	True
657.316	1.45	Win2	0.6570999999999999	n/a	No	3.232	n/a	5.0	NoResponse	0	0.017	656.333	11	69	Feedback	MissedWin	True
658.771	3.232	Win2	0.6570999999999999	n/a	No	3.232	n/a	n/a	NoResponse	0	0.0	n/a	11	69	ISIslide	MissedWin	True
662.03	0.25	Lose2	0.662	0.001	Yes	3.02	0.03	n/a	GoodResponse	0	n/a	n/a	11	70	Cue	AvoidedLoss	True
662.281	4.05	Lose2	0.662	0.0	Yes	3.02	0.001	n/a	GoodResponse	0	n/a	n/a	11	70	Fixation	AvoidedLoss	True
666.327	0.27	Lose2	0.662	0.003	Yes	3.02	-0.003	2.0	GoodResponse	0	0.203	665.53	11	70	Target	AvoidedLoss	True
666.53	0.3	Lose2	0.662	0.003	Yes	3.02	-0.003	2.0	GoodResponse	0	0.203	n/a	11	70	ButtonPress	AvoidedLoss	True
666.611	0.43	Lose2	0.662	n/a	Yes	3.02	n/a	n/a	GoodResponse	0	n/a	n/a	11	70	Blank	AvoidedLoss	True
667.029	1.45	Lose2	0.662	n/a	Yes	3.02	n/a	5.0	GoodResponse	0	0.011	666.04	11	70	Feedback	AvoidedLoss	True
668.483	3.02	Lose2	0.662	n/a	Yes	3.02	n/a	n/a	GoodResponse	0	0.0	n/a	11	70	ISIslide	AvoidedLoss	True
671.526	0.25	Win2	0.6667000000000001	0.0	Yes	2.724	0.026	n/a	GoodResponse	1	n/a	n/a	12	71	Cue	Win	True
671.776	4.05	Win2	0.6667000000000001	0.0	Yes	2.724	0.0	n/a	GoodResponse	1	n/a	n/a	12	71	Fixation	Win	True
675.822	0.27	Win2	0.6667000000000001	0.004	Yes	2.724	-0.004	2.0	GoodResponse	1	0.205	675.027	12	71	Target	Win	True
676.027	0.3	Win2	0.6667000000000001	0.004	Yes	2.724	-0.004	2.0	GoodResponse	1	0.205	n/a	12	71	ButtonPress	Win	True
676.106	0.43	Win2	0.6667000000000001	n/a	Yes	2.724	n/a	n/a	GoodResponse	1	n/a	n/a	12	71	Blank	Win	True
676.524	1.45	Win2	0.6667000000000001	n/a	Yes	2.724	n/a	5.0	GoodResponse	1	0.027	675.551	12	71	Feedback	Win	True
677.978	2.724	Win2	0.6667000000000001	n/a	Yes	2.724	n/a	n/a	GoodResponse	1	0.0	n/a	12	71	ISIslide	Win	True
680.72	0.25	Win2	0.6712	0.0	Yes	2.78	0.02	n/a	GoodResponse	1	n/a	n/a	13	72	Cue	Win	True
680.97	4.1	Win2	0.6712	0.001	Yes	2.78	0.0	n/a	GoodResponse	1	n/a	n/a	13	72	Fixation	Win	True
685.066	0.26	Win2	0.6712	0.004	Yes	2.78	-0.004	2.0	GoodResponse	1	0.226	684.292	13	72	Target	Win	True
685.292	0.3	Win2	0.6712	0.004	Yes	2.78	-0.004	2.0	GoodResponse	1	0.226	n/a	13	72	ButtonPress	Win	True
685.333	0.44	Win2	0.6712	n/a	Yes	2.78	n/a	n/a	GoodResponse	1	n/a	n/a	13	72	Blank	Win	True
685.768	1.45	Win2	0.6712	n/a	Yes	2.78	n/a	5.0	GoodResponse	1	0.008	684.776	13	72	Feedback	Win	True
687.222	2.78	Win2	0.6712	n/a	Yes	2.78	n/a	n/a	GoodResponse	1	0.0	n/a	13	72	ISIslide	Win	True
690.031	0.25	Win2	0.6757	0.0	Yes	2.669	0.031	n/a	GoodResponse	1	n/a	n/a	14	73	Cue	Win	True
690.282	4.0	Win2	0.6757	0.0	Yes	2.669	0.001	n/a	GoodResponse	1	n/a	n/a	14	73	Fixation	Win	True
694.277	0.25	Win2	0.6757	0.004	Yes	2.669	-0.004	2.0	GoodResponse	1	0.218	693.495	14	73	Target	Win	True
694.495	0.3	Win2	0.6757	0.004	Yes	2.669	-0.004	2.0	GoodResponse	1	0.218	n/a	14	73	ButtonPress	Win	True
694.528	0.45	Win2	0.6757	n/a	Yes	2.669	n/a	n/a	GoodResponse	1	n/a	n/a	14	73	Blank	Win	True
694.979	1.45	Win2	0.6757	n/a	Yes	2.669	n/a	5.0	GoodResponse	1	0.012	693.991	14	73	Feedback	Win	True
696.433	2.669	Win2	0.6757	n/a	Yes	2.669	n/a	n/a	GoodResponse	1	0.0	n/a	14	73	ISIslide	Win	True
699.125	0.25	Lose2	0.68	0.0	Yes	2.625	0.025	n/a	GoodResponse	0	n/a	n/a	14	74	Cue	AvoidedLoss	True
699.375	4.05	Lose2	0.68	0.001	Yes	2.625	0.0	n/a	GoodResponse	0	n/a	n/a	14	74	Fixation	AvoidedLoss	True
703.421	0.24	Lose2	0.68	0.004	Yes	2.625	-0.004	2.0	GoodResponse	0	0.212	702.633	14	74	Target	AvoidedLoss	True
703.633	0.3	Lose2	0.68	0.004	Yes	2.625	-0.004	2.0	GoodResponse	0	0.212	n/a	14	74	ButtonPress	AvoidedLoss	True
703.672	0.46	Lose2	0.68	n/a	Yes	2.625	n/a	n/a	GoodResponse	0	n/a	n/a	14	74	Blank	AvoidedLoss	True
704.123	1.45	Lose2	0.68	n/a	Yes	2.625	n/a	5.0	GoodResponse	0	0.038	703.161	14	74	Feedback	AvoidedLoss	True
705.577	2.625	Lose2	0.68	n/a	Yes	2.625	n/a	n/a	GoodResponse	0	0.0	n/a	14	74	ISIslide	AvoidedLoss	True
708.219	0.25	Lose2	0.6842	0.0	Yes	2.931	0.019	n/a	GoodResponse	0	n/a	n/a	14	75	Cue	AvoidedLoss	True
708.469	3.95	Lose2	0.6842	0.0	Yes	2.931	0.0	n/a	GoodResponse	0	n/a	n/a	14	75	Fixation	AvoidedLoss	True
712.414	0.23	Lose2	0.6842	0.005	Yes	2.931	-0.005	2.0	GoodResponse	0	0.228	711.642	14	75	Target	AvoidedLoss	True
712.642	0.3	Lose2	0.6842	0.005	Yes	2.931	-0.005	2.0	GoodResponse	0	0.228	n/a	14	75	ButtonPress	AvoidedLoss	True
712.648	0.47	Lose2	0.6842	n/a	Yes	2.931	n/a	n/a	GoodResponse	0	n/a	n/a	14	75	Blank	AvoidedLoss	True
713.117	1.45	Lose2	0.6842	n/a	Yes	2.931	n/a	5.0	GoodResponse	0	0.019	712.136	14	75	Feedback	AvoidedLoss	True
714.571	2.931	Lose2	0.6842	n/a	Yes	2.931	n/a	n/a	GoodResponse	0	0.0	n/a	14	75	ISIslide	AvoidedLoss	True
717.53	0.25	Control	0.6883	0.0	Yes	3.22	0.03	n/a	GoodResponse	0	n/a	n/a	14	76	Cue	Neutral	True
717.78	4.05	Control	0.6883	0.001	Yes	3.22	0.0	n/a	GoodResponse	0	n/a	n/a	14	76	Fixation	Neutral	True
721.826	0.22	Control	0.6883	0.004	Yes	3.22	-0.004	2.0	GoodResponse	0	0.215	721.041	14	76	Target	Neutral	True
722.041	0.3	Control	0.6883	0.004	Yes	3.22	-0.004	2.0	GoodResponse	0	0.215	n/a	14	76	ButtonPress	Neutral	True
722.06	0.48	Control	0.6883	n/a	Yes	3.22	n/a	n/a	GoodResponse	0	n/a	n/a	14	76	Blank	Neutral	True
722.528	1.45	Control	0.6883	n/a	Yes	3.22	n/a	5.0	GoodResponse	0	0.023	721.551	14	76	Feedback	Neutral	True
723.982	3.22	Control	0.6883	n/a	Yes	3.22	n/a	n/a	GoodResponse	0	0.0	n/a	14	76	ISIslide	Neutral	True
727.225	0.25	Lose2	0.6923	0.0	Yes	2.575	0.025	n/a	GoodResponse	0	n/a	n/a	14	77	Cue	AvoidedLoss	True
727.476	3.95	Lose2	0.6923	0.0	Yes	2.575	0.001	n/a	GoodResponse	0	n/a	n/a	14	77	Fixation	AvoidedLoss	True
731.421	0.21	Lose2	0.6923	0.004	Yes	2.575	-0.004	2.0	GoodResponse	0	0.204	730.625	14	77	Target	AvoidedLoss	True
731.625	0.3	Lose2	0.6923	0.004	Yes	2.575	-0.004	2.0	GoodResponse	0	0.204	n/a	14	77	ButtonPress	AvoidedLoss	True
731.639	0.49	Lose2	0.6923	n/a	Yes	2.575	n/a	n/a	GoodResponse	0	n/a	n/a	14	77	Blank	AvoidedLoss	True
732.123	1.45	Lose2	0.6923	n/a	Yes	2.575	n/a	5.0	GoodResponse	0	0.038	731.161	14	77	Feedback	AvoidedLoss	True
733.578	2.575	Lose2	0.6923	n/a	Yes	2.575	n/a	n/a	GoodResponse	0	0.0	n/a	14	77	ISIslide	AvoidedLoss	True
