onset	duration	cue_type	current_mean_accuracy	duration_error	is_hit	isi_adjusted	onset_delay	response	response_type	reward	rt	rt_time	total_reward	trial_number	trial_phase	trial_type	one_press
11.104	0.25	Control	1.0	0.001	Yes	2.946	0.004	n/a	GoodResponse	0	n/a	n/a	0	0	Cue	Neutral	True
11.355	3.85	Control	1.0	0.0	Yes	2.946	0.001	n/a	GoodResponse	0	n/a	n/a	0	0	Fixation	Neutral	True
15.2	0.4	Control	1.0	0.004	Yes	2.946	-0.004	2.0	GoodResponse	0	0.299	14.499	0	0	Target	Neutral	True
15.499	0.3	Control	1.0	0.004	Yes	2.946	-0.004	2.0	GoodResponse	0	0.299	n/a	0	0	ButtonPress	Neutral	True
15.601	0.3	Control	1.0	n/a	Yes	2.946	n/a	n/a	GoodResponse	0	n/a	n/a	0	0	Blank	Neutral	True
15.902	1.45	Control	1.0	n/a	Yes	2.946	n/a	5.0	GoodResponse	0	0.028	14.93	0	0	Feedback	Neutral	True
17.357	2.946	Control	1.0	n/a	Yes	2.946	n/a	n/a	GoodResponse	0	0.0	n/a	0	0	ISIslide	Neutral	True
20.315	0.25	Lose2	1.0	0.0	Yes	2.785	0.015	n/a	GoodResponse	0	n/a	n/a	0	1	Cue	AvoidedLoss	True
20.566	4.0	Lose2	1.0	0.0	Yes	2.785	0.001	n/a	GoodResponse	0	n/a	n/a	0	1	Fixation	AvoidedLoss	True
24.561	0.39	Lose2	1.0	0.004	Yes	2.785	-0.004	2.0	GoodResponse	0	0.272	23.833	0	1	Target	AvoidedLoss	True
24.833	0.3	Lose2	1.0	0.004	Yes	2.785	-0.004	2.0	GoodResponse	0	0.272	n/a	0	1	ButtonPress	AvoidedLoss	True
24.963	0.31	Lose2	1.0	n/a	Yes	2.785	n/a	n/a	GoodResponse	0	n/a	n/a	0	1	Blank	AvoidedLoss	True
25.264	1.45	Lose2	1.0	n/a	Yes	2.785	n/a	5.0	GoodResponse	0	0.031	24.295	0	1	Feedback	AvoidedLoss	True
26.718	2.785	Lose2	1.0	n/a	Yes	2.785	n/a	n/a	GoodResponse	0	0.0	n/a	0	1	ISIslide	AvoidedLoss	True
29.526	0.25	Control	1.0	0.0	Yes	2.574	0.026	n/a	GoodResponse	0	n/a	n/a	0	2	Cue	Neutral	True
29.777	4.1	Control	1.0	0.0	Yes	2.574	0.001	n/a	GoodResponse	0	n/a	n/a	0	2	Fixation	Neutral	True
33.873	0.38	Control	1.0	0.003	Yes	2.574	-0.003	2.0	GoodResponse	0	0.234	33.107	0	2	Target	Neutral	True
34.107	0.3	Control	1.0	0.003	Yes	2.574	-0.003	2.0	GoodResponse	0	0.234	n/a	0	2	ButtonPress	Neutral	True
34.257	0.32	Control	1.0	n/a	Yes	2.574	n/a	n/a	GoodResponse	0	n/a	n/a	0	2	Blank	Neutral	True
34.575	1.45	Control	1.0	n/a	Yes	2.574	n/a	5.0	GoodResponse	0	0.037	33.612	0	2	Feedback	Neutral	True
36.029	2.574	Control	1.0	n/a	Yes	2.574	n/a	n/a	GoodResponse	0	0.0	n/a	0	2	ISIslide	Neutral	True
38.62	0.25	Win2	1.0	0.0	Yes	2.83	0.02	n/a	GoodResponse	1	n/a	n/a	1	3	Cue	Win	True
38.871	3.95	Win2	1.0	0.0	Yes	2.83	0.001	n/a	GoodResponse	1	n/a	n/a	1	3	Fixation	Win	True
42.816	0.37	Win2	1.0	0.004	Yes	2.83	-0.004	2.0	GoodResponse	1	0.205	42.021	1	3	Target	Win	True
43.021	0.3	Win2	1.0	0.004	Yes	2.83	-0.004	2.0	GoodResponse	1	0.205	n/a	1	3	ButtonPress	Win	True
43.201	0.33	Win2	1.0	n/a	Yes	2.83	n/a	n/a	GoodResponse	1	n/a	n/a	1	3	Blank	Win	True
43.518	1.45	Win2	1.0	n/a	Yes	2.83	n/a	5.0	GoodResponse	1	0.021	42.539	1	3	Feedback	Win	True
44.973	2.83	Win2	1.0	n/a	Yes	2.83	n/a	n/a	GoodResponse	1	0.0	n/a	1	3	ISIslide	Win	True
47.814	0.25	Win2	1.0	0.001	Yes	3.286	0.014	n/a	GoodResponse	1	n/a	n/a	2	4	Cue	Win	True
48.065	4.0	Win2	1.0	0.0	Yes	3.286	0.001	n/a	GoodResponse	1	n/a	n/a	2	4	Fixation	Win	True
52.061	0.36	Win2	1.0	0.003	Yes	3.286	-0.003	2.0	GoodResponse	1	0.231	51.292	2	4	Target	Win	True
52.292	0.3	Win2	1.0	0.003	Yes	3.286	-0.003	2.0	GoodResponse	1	0.231	n/a	2	4	ButtonPress	Win	True
52.428	0.34	Win2	1.0	n/a	Yes	3.286	n/a	n/a	GoodResponse	1	n/a	n/a	2	4	Blank	Win	True
52.763	1.45	Win2	1.0	n/a	Yes	3.286	n/a	5.0	GoodResponse	1	0.044	51.807	2	4	Feedback	Win	True
54.217	3.286	Win2	1.0	n/a	Yes	3.286	n/a	n/a	GoodResponse	1	0.0	n/a	2	4	ISIslide	Win	True
57.527	0.25	Win2	1.0	0.0	Yes	2.773	0.027	n/a	GoodResponse	1	n/a	n/a	3	5	Cue	Win	True
57.778	4.0	Win2	1.0	0.0	Yes	2.773	0.001	n/a	GoodResponse	1	n/a	n/a	3	5	Fixation	Win	True
61.773	0.35	Win2	1.0	0.004	Yes	2.773	-0.004	2.0	GoodResponse	1	0.218	60.991	3	5	Target	Win	True
61.991	0.3	Win2	1.0	0.004	Yes	2.773	-0.004	2.0	GoodResponse	1	0.218	n/a	3	5	ButtonPress	Win	True
62.124	0.35	Win2	1.0	n/a	Yes	2.773	n/a	n/a	GoodResponse	1	n/a	n/a	3	5	Blank	Win	True
62.475	1.45	Win2	1.0	n/a	Yes	2.773	n/a	5.0	GoodResponse	1	0.04	61.515	3	5	Feedback	Win	True
63.929	2.773	Win2	1.0	n/a	Yes	2.773	n/a	n/a	GoodResponse	1	0.0	n/a	3	5	ISIslide	Win	True
66.721	0.25	Lose2	1.0	0.0	Yes	2.729	0.021	n/a	GoodResponse	0	n/a	n/a	3	6	Cue	AvoidedLoss	True
66.972	3.95	Lose2	1.0	0.0	Yes	2.729	0.001	n/a	GoodResponse	0	n/a	n/a	3	6	Fixation	AvoidedLoss	True
70.917	0.34	Lose2	1.0	0.004	Yes	2.729	-0.004	2.0	GoodResponse	0	0.292	70.209	3	6	Target	AvoidedLoss	True
71.209	0.3	Lose2	1.0	0.004	Yes	2.729	-0.004	2.0	GoodResponse	0	0.292	n/a	3	6	ButtonPress	AvoidedLoss	True
71.268	0.36	Lose2	1.0	n/a	Yes	2.729	n/a	n/a	GoodResponse	0	n/a	n/a	3	6	Blank	AvoidedLoss	True
71.619	1.45	Lose2	1.0	n/a	Yes	2.729	n/a	5.0	GoodResponse	0	0.018	70.637	3	6	Feedback	AvoidedLoss	True
73.073	2.729	Lose2	1.0	n/a	Yes	2.729	n/a	n/a	GoodResponse	0	0.0	n/a	3	6	ISIslide	AvoidedLoss	True
75.815	0.25	Lose2	1.0	0.0	Yes	4.035	0.015	n/a	GoodResponse	0	n/a	n/a	3	7	Cue	AvoidedLoss	True
76.066	4.05	Lose2	1.0	0.0	Yes	4.035	0.001	n/a	GoodResponse	0	n/a	n/a	3	7	Fixation	AvoidedLoss	True
80.111	0.33	Lose2	1.0	0.004	Yes	4.035	-0.004	2.0	GoodResponse	0	0.215	79.326	3	7	Target	AvoidedLoss	True
80.326	0.3	Lose2	1.0	0.004	Yes	4.035	-0.004	2.0	GoodResponse	0	0.215	n/a	3	7	ButtonPress	AvoidedLoss	True
80.446	0.37	Lose2	1.0	n/a	Yes	4.035	n/a	n/a	GoodResponse	0	n/a	n/a	3	7	Blank	AvoidedLoss	True
80.813	1.45	Lose2	1.0	n/a	Yes	4.035	n/a	5.0	GoodResponse	0	0.044	79.857	3	7	Feedback	AvoidedLoss	True
82.268	4.035	Lose2	1.0	n/a	Yes	4.035	n/a	n/a	GoodResponse	0	0.0	n/a	3	7	ISIslide	AvoidedLoss	True
86.33	0.25	Lose2	1.0	0.0	Yes	3.02	0.03	n/a	GoodResponse	0	n/a	n/a	3	8	Cue	AvoidedLoss	True
86.581	3.95	Lose2	1.0	0.0	Yes	3.02	0.001	n/a	GoodResponse	0	n/a	n/a	3	8	Fixation	AvoidedLoss	True
90.526	0.32	Lose2	1.0	0.004	Yes	3.02	-0.004	2.0	GoodResponse	0	0.308	89.834	3	8	Target	AvoidedLoss	True
90.834	0.3	Lose2	1.0	0.004	Yes	3.02	-0.004	2.0	GoodResponse	0	0.308	n/a	3	8	ButtonPress	AvoidedLoss	True
90.86	0.38	Lose2	1.0	n/a	Yes	3.02	n/a	n/a	GoodResponse	0	n/a	n/a	3	8	Blank	AvoidedLoss	True
91.228	1.45	Lose2	1.0	n/a	Yes	3.02	n/a	5.0	GoodResponse	0	0.018	90.246	3	8	Feedback	AvoidedLoss	True
92.682	3.02	Lose2	1.0	n/a	Yes	3.02	n/a	n/a	GoodResponse	0	0.0	n/a	3	8	ISIslide	AvoidedLoss	True
95.725	0.25	Lose2	1.0	0.0	Yes	3.125	0.025	n/a	GoodResponse	0	n/a	n/a	3	9	Cue	AvoidedLoss	True
95.975	3.95	Lose2	1.0	0.001	Yes	3.125	0.0	n/a	GoodResponse	0	n/a	n/a	3	9	Fixation	AvoidedLoss	True
99.921	0.31	Lose2	1.0	0.004	Yes	3.125	-0.004	2.0	GoodResponse	0	0.271	99.192	3	9	Target	AvoidedLoss	True
100.192	0.3	Lose2	1.0	0.004	Yes	3.125	-0.004	2.0	GoodResponse	0	0.271	n/a	3	9	ButtonPress	AvoidedLoss	True
100.238	0.39	Lose2	1.0	n/a	Yes	3.125	n/a	n/a	GoodResponse	0	n/a	n/a	3	9	Blank	AvoidedLoss	True
100.623	1.45	Lose2	1.0	n/a	Yes	3.125	n/a	5.0	GoodResponse	0	0.038	99.661	3	9	Feedback	AvoidedLoss	True
102.077	3.125	Lose2	1.0	n/a	Yes	3.125	n/a	n/a	GoodResponse	0	0.0	n/a	3	9	ISIslide	AvoidedLoss	True
105.22	0.25	Control	0.9091	0.0	No	3.28	0.02	n/a	NoResponse	0	n/a	n/a	3	10	Cue	Neutral	True
105.471	4.0	Control	0.9091	0.0	No	3.28	0.001	n/a	NoResponse	0	n/a	n/a	3	10	Fixation	Neutral	True
109.466	0.3	Control	0.9091	0.004	No	3.28	-0.004	2.0	NoResponse	0	0.377	108.843	3	10	Target	Neutral	True
109.767	0.4	Control	0.9091	n/a	No	3.28	n/a	n/a	NoResponse	0	n/a	n/a	3	10	Blank	Neutral	True
109.843	0.3	Control	0.9091	0.004	No	3.28	-0.004	2.0	NoResponse	0	0.377	n/a	3	10	ButtonPress	Neutral	True
110.168	1.45	Control	0.9091	n/a	No	3.28	n/a	5.0	NoResponse	0	0.005	109.173	3	10	Feedback	Neutral	True
111.622	3.28	Control	0.9091	n/a	No	3.28	n/a	n/a	NoResponse	0	0.0	n/a	3	10	ISIslide	Neutral	True
114.916	0.25	Lose2	0.8332999999999999	0.0	No	2.734	0.016	n/a	LatePress	-1	n/a	n/a	2	11	Cue	Loss	True
115.166	4.05	Lose2	0.8332999999999999	0.0	No	2.734	0.0	n/a	LatePress	-1	n/a	n/a	2	11	Fixation	Loss	True
119.212	0.29	Lose2	0.8332999999999999	0.004	No	2.734	-0.004	2.0	LatePress	-1	0.3	118.512	2	11	Target	Loss	True
119.512	0.3	Lose2	0.8332999999999999	0.004	No	2.734	-0.004	2.0	LatePress	-1	0.3	n/a	2	11	ButtonPress	Loss	True
119.513	0.41	Lose2	0.8332999999999999	n/a	No	2.734	n/a	n/a	LatePress	-1	n/a	n/a	2	11	Blank	Loss	True
119.914	1.45	Lose2	0.8332999999999999	n/a	No	2.734	n/a	5.0	LatePress	-1	0.015	118.929	2	11	Feedback	Loss	True
121.368	2.734	Lose2	0.8332999999999999	n/a	No	2.734	n/a	n/a	LatePress	-1	0.0	n/a	2	11	ISIslide	Loss	True
124.126	0.25	Control	0.8462000000000001	0.001	Yes	2.974	0.026	n/a	GoodResponse	0	n/a	n/a	2	12	Cue	Neutral	True
124.377	3.9	Control	0.8462000000000001	0.0	Yes	2.974	0.001	n/a	GoodResponse	0	n/a	n/a	2	12	Fixation	Neutral	True
128.272	0.28	Control	0.8462000000000001	0.004	Yes	2.974	-0.004	2.0	GoodResponse	0	0.234	127.506	2	12	Target	Neutral	True
128.506	0.3	Control	0.8462000000000001	0.004	Yes	2.974	-0.004	2.0	GoodResponse	0	0.234	n/a	2	12	ButtonPress	Neutral	True
128.556	0.42	Control	0.8462000000000001	n/a	Yes	2.974	n/a	n/a	GoodResponse	0	n/a	n/a	2	12	Blank	Neutral	True
128.974	1.45	Control	0.8462000000000001	n/a	Yes	2.974	n/a	5.0	GoodResponse	0	0.029	128.003	2	12	Feedback	Neutral	True
130.429	2.974	Control	0.8462000000000001	n/a	Yes	2.974	n/a	n/a	GoodResponse	0	0.0	n/a	2	12	ISIslide	Neutral	True
133.421	0.25	Control	0.8571	0.0	Yes	2.779	0.021	n/a	GoodResponse	0	n/a	n/a	2	13	Cue	Neutral	True
133.672	4.0	Control	0.8571	0.0	Yes	2.779	0.001	n/a	GoodResponse	0	n/a	n/a	2	13	Fixation	Neutral	True
137.667	0.27	Control	0.8571	0.004	Yes	2.779	-0.004	2.0	GoodResponse	0	0.249	136.916	2	13	Target	Neutral	True
137.916	0.3	Control	0.8571	0.004	Yes	2.779	-0.004	2.0	GoodResponse	0	0.249	n/a	2	13	ButtonPress	Neutral	True
137.951	0.43	Control	0.8571	n/a	Yes	2.779	n/a	n/a	GoodResponse	0	n/a	n/a	2	13	Blank	Neutral	True
138.369	1.45	Control	0.8571	n/a	Yes	2.779	n/a	5.0	GoodResponse	0	0.048	137.417	2	13	Feedback	Neutral	True
139.823	2.779	Control	0.8571	n/a	Yes	2.779	n/a	n/a	GoodResponse	0	0.0	n/a	2	13	ISIslide	Neutral	True
142.615	0.25	Win2	0.8667	0.0	Yes	2.685	0.015	n/a	GoodResponse	1	n/a	n/a	3	14	Cue	Win	True
142.866	4.1	Win2	0.8667	0.0	Yes	2.685	0.001	n/a	GoodResponse	1	n/a	n/a	3	14	Fixation	Win	True
146.962	0.26	Win2	0.8667	0.003	Yes	2.685	-0.003	2.0	GoodResponse	1	0.235	146.197	3	14	Target	Win	True
147.197	0.3	Win2	0.8667	0.003	Yes	2.685	-0.003	2.0	GoodResponse	1	0.235	n/a	3	14	ButtonPress	Win	True
147.229	0.44	Win2	0.8667	n/a	Yes	2.685	n/a	n/a	GoodResponse	1	n/a	n/a	3	14	Blank	Win	True
147.664	1.45	Win2	0.8667	n/a	Yes	2.685	n/a	5.0	GoodResponse	1	0.021	146.685	3	14	Feedback	Win	True
149.118	2.685	Win2	0.8667	n/a	Yes	2.685	n/a	n/a	GoodResponse	1	0.0	n/a	3	14	ISIslide	Win	True
151.826	0.25	Control	0.875	0.0	Yes	2.974	0.026	n/a	GoodResponse	0	n/a	n/a	3	15	Cue	Neutral	True
152.077	4.0	Control	0.875	0.0	Yes	2.974	0.001	n/a	GoodResponse	0	n/a	n/a	3	15	Fixation	Neutral	True
156.072	0.25	Control	0.875	0.004	Yes	2.974	-0.004	2.0	GoodResponse	0	0.241	155.313	3	15	Target	Neutral	True
156.313	0.3	Control	0.875	0.004	Yes	2.974	-0.004	2.0	GoodResponse	0	0.241	n/a	3	15	ButtonPress	Neutral	True
156.323	0.45	Control	0.875	n/a	Yes	2.974	n/a	n/a	GoodResponse	0	n/a	n/a	3	15	Blank	Neutral	True
156.774	1.45	Control	0.875	n/a	Yes	2.974	n/a	5.0	GoodResponse	0	0.033	155.807	3	15	Feedback	Neutral	True
158.229	2.974	Control	0.875	n/a	Yes	2.974	n/a	n/a	GoodResponse	0	0.0	n/a	3	15	ISIslide	Neutral	True
161.221	0.25	Win2	0.8824	0.0	Yes	2.879	0.021	n/a	GoodResponse	1	n/a	n/a	4	16	Cue	Win	True
161.472	4.0	Win2	0.8824	0.0	Yes	2.879	0.001	n/a	GoodResponse	1	n/a	n/a	4	16	Fixation	Win	True
165.467	0.24	Win2	0.8824	0.004	Yes	2.879	-0.004	2.0	GoodResponse	1	0.222	164.689	4	16	Target	Win	True
165.689	0.3	Win2	0.8824	0.004	Yes	2.879	-0.004	2.0	GoodResponse	1	0.222	n/a	4	16	ButtonPress	Win	True
165.718	0.46	Win2	0.8824	n/a	Yes	2.879	n/a	n/a	GoodResponse	1	n/a	n/a	4	16	Blank	Win	True
166.169	1.45	Win2	0.8824	n/a	Yes	2.879	n/a	5.0	GoodResponse	1	0.004	165.173	4	16	Feedback	Win	True
167.623	2.879	Win2	0.8824	n/a	Yes	2.879	n/a	n/a	GoodResponse	1	0.0	n/a	4	16	ISIslide	Win	True
170.515	0.25	Lose2	0.8332999999999999	0.001	No	2.735	0.015	n/a	NoResponse	-1	n/a	n/a	3	17	Cue	Loss	True
170.766	3.95	Lose2	0.8332999999999999	0.0	No	2.735	0.001	n/a	NoResponse	-1	n/a	n/a	3	17	Fixation	Loss	True
174.711	0.23	Lose2	0.8332999999999999	0.004	No	2.735	-0.004	2.0	NoResponse	-1	0.331	174.042	3	17	Target	Loss	True
174.945	0.47	Lose2	0.8332999999999999	n/a	No	2.735	n/a	n/a	NoResponse	-1	n/a	n/a	3	17	Blank	Loss	True
175.042	0.3	Lose2	0.8332999999999999	0.004	No	2.735	-0.004	2.0	NoResponse	-1	0.331	n/a	3	17	ButtonPress	Loss	True
175.413	1.45	Lose2	0.8332999999999999	n/a	No	2.735	n/a	5.0	NoResponse	-1	0.028	174.441	3	17	Feedback	Loss	True
176.868	2.735	Lose2	0.8332999999999999	n/a	No	2.735	n/a	n/a	NoResponse	-1	0.0	n/a	3	17	ISIslide	Loss	True
179.626	0.25	Lose2	0.7895	0.0	No	2.724	0.026	n/a	NoResponse	-1	n/a	n/a	2	18	Cue	Loss	True
179.877	4.05	Lose2	0.7895	0.0	No	2.724	0.001	n/a	NoResponse	-1	n/a	n/a	2	18	Fixation	Loss	True
183.922	0.22	Lose2	0.7895	0.004	No	2.724	-0.004	2.0	NoResponse	-1	0.272	183.194	2	18	Target	Loss	True
184.156	0.48	Lose2	0.7895	n/a	No	2.724	n/a	n/a	NoResponse	-1	n/a	n/a	2	18	Blank	Loss	True
184.194	0.3	Lose2	0.7895	0.004	No	2.724	-0.004	2.0	NoResponse	-1	0.272	n/a	2	18	ButtonPress	Loss	True
184.624	1.45	Lose2	0.7895	n/a	No	2.724	n/a	5.0	NoResponse	-1	0.037	183.661	2	18	Feedback	Loss	True
186.079	2.724	Lose2	0.7895	n/a	No	2.724	n/a	n/a	NoResponse	-1	0.0	n/a	2	18	ISIslide	Loss	True
188.82	0.25	Control	0.75	0.0	No	2.93	0.02	n/a	NoResponse	0	n/a	n/a	2	19	Cue	Neutral	True
189.071	3.95	Control	0.75	0.0	No	2.93	0.001	n/a	NoResponse	0	n/a	n/a	2	19	Fixation	Neutral	True
193.016	0.21	Control	0.75	0.004	No	2.93	-0.004	2.0	NoResponse	0	0.224	192.24	2	19	Target	Neutral	True
193.234	0.49	Control	0.75	n/a	No	2.93	n/a	n/a	NoResponse	0	n/a	n/a	2	19	Blank	Neutral	True
193.24	0.3	Control	0.75	0.004	No	2.93	-0.004	2.0	NoResponse	0	0.224	n/a	2	19	ButtonPress	Neutral	True
193.718	1.45	Control	0.75	n/a	No	2.93	n/a	5.0	NoResponse	0	0.016	192.734	2	19	Feedback	Neutral	True
195.173	2.93	Control	0.75	n/a	No	2.93	n/a	n/a	NoResponse	0	0.0	n/a	2	19	ISIslide	Neutral	True
198.115	0.25	Control	0.7143	0.0	No	2.635	0.015	n/a	NoResponse	0	n/a	n/a	2	20	Cue	Neutral	True
198.366	4.05	Control	0.7143	0.0	No	2.635	0.001	n/a	NoResponse	0	n/a	n/a	2	20	Fixation	Neutral	True
202.411	0.2	Control	0.7143	0.004	No	2.635	-0.004	2.0	NoResponse	0	0.235	201.646	2	20	Target	Neutral	True
202.612	0.5	Control	0.7143	n/a	No	2.635	n/a	n/a	NoResponse	0	n/a	n/a	2	20	Blank	Neutral	True
202.646	0.3	Control	0.7143	0.004	No	2.635	-0.004	2.0	NoResponse	0	0.235	n/a	2	20	ButtonPress	Neutral	True
203.113	1.45	Control	0.7143	n/a	No	2.635	n/a	5.0	NoResponse	0	0.035	202.148	2	20	Feedback	Neutral	True
204.567	2.635	Control	0.7143	n/a	No	2.635	n/a	n/a	NoResponse	0	0.0	n/a	2	20	ISIslide	Neutral	True
207.225	0.25	Control	0.6818000000000001	0.001	No	2.775	0.025	n/a	NoResponse	0	n/a	n/a	2	21	Cue	Neutral	True
207.476	4.1	Control	0.6818000000000001	0.0	No	2.775	0.001	n/a	NoResponse	0	n/a	n/a	2	21	Fixation	Neutral	True
211.572	0.19	Control	0.6818000000000001	0.003	No	2.775	-0.003	2.0	NoResponse	0	0.219	210.791	2	21	Target	Neutral	True
211.772	0.51	Control	0.6818000000000001	n/a	No	2.775	n/a	n/a	NoResponse	0	n/a	n/a	2	21	Blank	Neutral	True
211.791	0.3	Control	0.6818000000000001	0.003	No	2.775	-0.003	2.0	NoResponse	0	0.219	n/a	2	21	ButtonPress	Neutral	True
212.274	1.45	Control	0.6818000000000001	n/a	No	2.775	n/a	5.0	NoResponse	0	0.045	211.319	2	21	Feedback	Neutral	True
213.728	2.775	Control	0.6818000000000001	n/a	No	2.775	n/a	n/a	NoResponse	0	0.0	n/a	2	21	ISIslide	Neutral	True
216.52	0.25	Control	0.6522	0.0	No	2.78	0.02	n/a	NoResponse	0	n/a	n/a	2	22	Cue	Neutral	True
216.771	4.0	Control	0.6522	0.0	No	2.78	0.001	n/a	NoResponse	0	n/a	n/a	2	22	Fixation	Neutral	True
220.766	0.18	Control	0.6522	0.004	No	2.78	-0.004	2.0	NoResponse	0	0.573	220.339	2	22	Target	Neutral	True
220.95	0.52	Control	0.6522	n/a	No	2.78	n/a	n/a	NoResponse	0	n/a	n/a	2	22	Blank	Neutral	True
221.339	0.3	Control	0.6522	0.004	No	2.78	-0.004	2.0	NoResponse	0	0.573	n/a	2	22	ButtonPress	Neutral	True
221.468	1.45	Control	0.6522	n/a	No	2.78	n/a	5.0	NoResponse	0	0.022	220.49	2	22	Feedback	Neutral	True
222.922	2.78	Control	0.6522	n/a	No	2.78	n/a	n/a	NoResponse	0	0.0	n/a	2	22	ISIslide	Neutral	True
225.714	0.25	Control	0.625	0.0	No	2.786	0.014	n/a	NoResponse	0	n/a	n/a	2	23	Cue	Neutral	True
225.965	3.9	Control	0.625	0.0	No	2.786	0.001	n/a	NoResponse	0	n/a	n/a	2	23	Fixation	Neutral	True
229.86	0.19	Control	0.625	0.004	No	2.786	-0.004	2.0	NoResponse	0	0.233	229.093	2	23	Target	Neutral	True
230.061	0.51	Control	0.625	n/a	No	2.786	n/a	n/a	NoResponse	0	n/a	n/a	2	23	Blank	Neutral	True
230.093	0.3	Control	0.625	0.004	No	2.786	-0.004	2.0	NoResponse	0	0.233	n/a	2	23	ButtonPress	Neutral	True
230.562	1.45	Control	0.625	n/a	No	2.786	n/a	5.0	NoResponse	0	0.001	229.563	2	23	Feedback	Neutral	True
232.016	2.786	Control	0.625	n/a	No	2.786	n/a	n/a	NoResponse	0	0.0	n/a	2	23	ISIslide	Neutral	True
234.825	0.25	Win2	0.64	0.0	Yes	3.125	0.025	n/a	GoodResponse	1	n/a	n/a	3	24	Cue	Win	True
235.076	3.95	Win2	0.64	0.0	Yes	3.125	0.001	n/a	GoodResponse	1	n/a	n/a	3	24	Fixation	Win	True
239.021	0.2	Win2	0.64	0.004	Yes	3.125	-0.004	2.0	GoodResponse	1	0.198	238.219	3	24	Target	Win	True
239.219	0.3	Win2	0.64	0.004	Yes	3.125	-0.004	2.0	GoodResponse	1	0.198	n/a	3	24	ButtonPress	Win	True
239.221	0.5	Win2	0.64	n/a	Yes	3.125	n/a	n/a	GoodResponse	1	n/a	n/a	3	24	Blank	Win	True
239.723	1.45	Win2	0.64	n/a	Yes	3.125	n/a	5.0	GoodResponse	1	0.011	238.734	3	24	Feedback	Win	True
241.177	3.125	Win2	0.64	n/a	Yes	3.125	n/a	n/a	GoodResponse	1	0.0	n/a	3	24	ISIslide	Win	True
244.32	0.25	Win2	0.6537999999999999	0.0	Yes	3.08	0.02	n/a	GoodResponse	1	n/a	n/a	4	25	Cue	Win	True
244.571	4.0	Win2	0.6537999999999999	0.0	Yes	3.08	0.001	n/a	GoodResponse	1	n/a	n/a	4	25	Fixation	Win	True
248.566	0.21	Win2	0.6537999999999999	0.004	Yes	3.08	-0.004	2.0	GoodResponse	1	0.182	247.748	4	25	Target	Win	True
248.748	0.3	Win2	0.6537999999999999	0.004	Yes	3.08	-0.004	2.0	GoodResponse	1	0.182	n/a	4	25	ButtonPress	Win	True
248.783	0.49	Win2	0.6537999999999999	n/a	Yes	3.08	n/a	n/a	GoodResponse	1	n/a	n/a	4	25	Blank	Win	True
249.268	1.45	Win2	0.6537999999999999	n/a	Yes	3.08	n/a	5.0	GoodResponse	1	0.027	248.295	4	25	Feedback	Win	True
250.722	3.08	Win2	0.6537999999999999	n/a	Yes	3.08	n/a	n/a	GoodResponse	1	0.0	n/a	4	25	ISIslide	Win	True
253.815	0.25	Win2	0.6667000000000001	0.0	Yes	2.935	0.015	n/a	GoodResponse	1	n/a	n/a	5	26	Cue	Win	True
254.066	3.95	Win2	0.6667000000000001	0.0	Yes	2.935	0.001	n/a	GoodResponse	1	n/a	n/a	5	26	Fixation	Win	True
258.011	0.22	Win2	0.6667000000000001	0.004	Yes	2.935	-0.004	2.0	GoodResponse	1	0.184	257.195	5	26	Target	Win	True
258.195	0.3	Win2	0.6667000000000001	0.004	Yes	2.935	-0.004	2.0	GoodResponse	1	0.184	n/a	5	26	ButtonPress	Win	True
258.245	0.48	Win2	0.6667000000000001	n/a	Yes	2.935	n/a	n/a	GoodResponse	1	n/a	n/a	5	26	Blank	Win	True
258.713	1.45	Win2	0.6667000000000001	n/a	Yes	2.935	n/a	5.0	GoodResponse	1	0.045	257.758	5	26	Feedback	Win	True
260.167	2.935	Win2	0.6667000000000001	n/a	Yes	2.935	n/a	n/a	GoodResponse	1	0.0	n/a	5	26	ISIslide	Win	True
263.126	0.25	Lose2	0.6429	0.0	No	2.824	0.026	n/a	LatePress	-1	n/a	n/a	4	27	Cue	Loss	True
263.377	4.05	Lose2	0.6429	0.0	No	2.824	0.001	n/a	LatePress	-1	n/a	n/a	4	27	Fixation	Loss	True
267.422	0.21	Lose2	0.6429	0.004	No	2.824	-0.004	2.0	LatePress	-1	0.21	266.632	4	27	Target	Loss	True
267.632	0.3	Lose2	0.6429	0.004	No	2.824	-0.004	2.0	LatePress	-1	0.21	n/a	4	27	ButtonPress	Loss	True
267.64	0.49	Lose2	0.6429	n/a	No	2.824	n/a	n/a	LatePress	-1	n/a	n/a	4	27	Blank	Loss	True
268.125	1.45	Lose2	0.6429	n/a	No	2.824	n/a	5.0	LatePress	-1	0.047	267.172	4	27	Feedback	Loss	True
269.579	2.824	Lose2	0.6429	n/a	No	2.824	n/a	n/a	LatePress	-1	0.0	n/a	4	27	ISIslide	Loss	True
272.421	0.25	Control	0.6552	0.0	Yes	2.829	0.021	n/a	GoodResponse	0	n/a	n/a	4	28	Cue	Neutral	True
272.672	4.05	Control	0.6552	0.0	Yes	2.829	0.001	n/a	GoodResponse	0	n/a	n/a	4	28	Fixation	Neutral	True
276.717	0.22	Control	0.6552	0.004	Yes	2.829	-0.004	2.0	GoodResponse	0	0.219	275.936	4	28	Target	Neutral	True
276.936	0.3	Control	0.6552	0.004	Yes	2.829	-0.004	2.0	GoodResponse	0	0.219	n/a	4	28	ButtonPress	Neutral	True
276.951	0.48	Control	0.6552	n/a	Yes	2.829	n/a	n/a	GoodResponse	0	n/a	n/a	4	28	Blank	Neutral	True
277.419	1.45	Control	0.6552	n/a	Yes	2.829	n/a	5.0	GoodResponse	0	0.022	276.441	4	28	Feedback	Neutral	True
278.873	2.829	Control	0.6552	n/a	Yes	2.829	n/a	n/a	GoodResponse	0	0.0	n/a	4	28	ISIslide	Neutral	True
281.715	0.25	Lose2	0.6667000000000001	0.0	Yes	2.835	0.015	n/a	GoodResponse	0	n/a	n/a	4	29	Cue	AvoidedLoss	True
281.966	3.95	Lose2	0.6667000000000001	0.0	Yes	2.835	0.001	n/a	GoodResponse	0	n/a	n/a	4	29	Fixation	AvoidedLoss	True
285.911	0.22	Lose2	0.6667000000000001	0.004	Yes	2.835	-0.004	2.0	GoodResponse	0	0.195	285.106	4	29	Target	AvoidedLoss	True
286.106	0.3	Lose2	0.6667000000000001	0.004	Yes	2.835	-0.004	2.0	GoodResponse	0	0.195	n/a	4	29	ButtonPress	AvoidedLoss	True
286.145	0.48	Lose2	0.6667000000000001	n/a	Yes	2.835	n/a	n/a	GoodResponse	0	n/a	n/a	4	29	Blank	AvoidedLoss	True
286.613	1.45	Lose2	0.6667000000000001	n/a	Yes	2.835	n/a	5.0	GoodResponse	0	0.047	285.66	4	29	Feedback	AvoidedLoss	True
288.068	2.835	Lose2	0.6667000000000001	n/a	Yes	2.835	n/a	n/a	GoodResponse	0	0.0	n/a	4	29	ISIslide	AvoidedLoss	True
290.926	0.25	Win2	0.6774	0.0	Yes	2.774	0.026	n/a	GoodResponse	1	n/a	n/a	5	30	Cue	Win	True
291.177	3.9	Win2	0.6774	0.0	Yes	2.774	0.001	n/a	GoodResponse	1	n/a	n/a	5	30	Fixation	Win	True
295.072	0.21	Win2	0.6774	0.004	Yes	2.774	-0.004	2.0	GoodResponse	1	0.188	294.26	5	30	Target	Win	True
295.26	0.3	Win2	0.6774	0.004	Yes	2.774	-0.004	2.0	GoodResponse	1	0.188	n/a	5	30	ButtonPress	Win	True
295.289	0.49	Win2	0.6774	n/a	Yes	2.774	n/a	n/a	GoodResponse	1	n/a	n/a	5	30	Blank	Win	True
295.774	1.45	Win2	0.6774	n/a	Yes	2.774	n/a	5.0	GoodResponse	1	0.008	294.782	5	30	Feedback	Win	True
297.228	2.774	Win2	0.6774	n/a	Yes	2.774	n/a	n/a	GoodResponse	1	0.0	n/a	5	30	ISIslide	Win	True
300.02	0.25	Lose2	0.6875	0.0	Yes	2.83	0.02	n/a	GoodResponse	0	n/a	n/a	5	31	Cue	AvoidedLoss	True
300.271	4.05	Lose2	0.6875	0.0	Yes	2.83	0.001	n/a	GoodResponse	0	n/a	n/a	5	31	Fixation	AvoidedLoss	True
304.316	0.2	Lose2	0.6875	0.004	Yes	2.83	-0.004	2.0	GoodResponse	0	0.199	303.515	5	31	Target	AvoidedLoss	True
304.515	0.3	Lose2	0.6875	0.004	Yes	2.83	-0.004	2.0	GoodResponse	0	0.199	n/a	5	31	ButtonPress	AvoidedLoss	True
304.517	0.5	Lose2	0.6875	n/a	Yes	2.83	n/a	n/a	GoodResponse	0	n/a	n/a	5	31	Blank	AvoidedLoss	True
305.018	1.45	Lose2	0.6875	n/a	Yes	2.83	n/a	5.0	GoodResponse	0	0.033	304.051	5	31	Feedback	AvoidedLoss	True
306.473	2.83	Lose2	0.6875	n/a	Yes	2.83	n/a	n/a	GoodResponse	0	0.0	n/a	5	31	ISIslide	AvoidedLoss	True
309.331	0.25	Lose2	0.6667000000000001	0.0	No	2.619	0.031	n/a	NoResponse	-1	n/a	n/a	4	32	Cue	Loss	True
309.582	4.15	Lose2	0.6667000000000001	0.0	No	2.619	0.001	n/a	NoResponse	-1	n/a	n/a	4	32	Fixation	Loss	True
313.728	0.19	Lose2	0.6667000000000001	0.003	No	2.619	-0.003	2.0	NoResponse	-1	0.214	312.942	4	32	Target	Loss	True
313.928	0.51	Lose2	0.6667000000000001	n/a	No	2.619	n/a	n/a	NoResponse	-1	n/a	n/a	4	32	Blank	Loss	True
313.942	0.3	Lose2	0.6667000000000001	0.003	No	2.619	-0.003	2.0	NoResponse	-1	0.214	n/a	4	32	ButtonPress	Loss	True
314.43	1.45	Lose2	0.6667000000000001	n/a	No	2.619	n/a	5.0	NoResponse	-1	0.035	313.465	4	32	Feedback	Loss	True
315.884	2.619	Lose2	0.6667000000000001	n/a	No	2.619	n/a	n/a	NoResponse	-1	0.0	n/a	4	32	ISIslide	Loss	True
318.526	0.25	Win2	0.6470999999999999	0.0	No	2.674	0.026	n/a	NoResponse	0	n/a	n/a	4	33	Cue	MissedWin	True
318.776	4.0	Win2	0.6470999999999999	0.0	No	2.674	0.0	n/a	NoResponse	0	n/a	n/a	4	33	Fixation	MissedWin	True
322.772	0.18	Win2	0.6470999999999999	0.004	No	2.674	-0.004	2.0	NoResponse	0	0.331	322.103	4	33	Target	MissedWin	True
322.956	0.52	Win2	0.6470999999999999	n/a	No	2.674	n/a	n/a	NoResponse	0	n/a	n/a	4	33	Blank	MissedWin	True
323.103	0.3	Win2	0.6470999999999999	0.004	No	2.674	-0.004	2.0	NoResponse	0	0.331	n/a	4	33	ButtonPress	MissedWin	True
323.474	1.45	Win2	0.6470999999999999	n/a	No	2.674	n/a	5.0	NoResponse	0	0.015	322.489	4	33	Feedback	MissedWin	True
324.928	2.674	Win2	0.6470999999999999	n/a	No	2.674	n/a	n/a	NoResponse	0	0.0	n/a	4	33	ISIslide	MissedWin	True
327.62	0.25	Lose2	0.6570999999999999	0.0	Yes	2.63	0.02	n/a	GoodResponse	0	n/a	n/a	4	34	Cue	AvoidedLoss	True
327.87	4.05	Lose2	0.6570999999999999	0.0	Yes	2.63	0.0	n/a	GoodResponse	0	n/a	n/a	4	34	Fixation	AvoidedLoss	True
331.916	0.19	Lose2	0.6570999999999999	0.004	Yes	2.63	-0.004	2.0	GoodResponse	0	0.178	331.094	4	34	Target	AvoidedLoss	True
332.094	0.3	Lose2	0.6570999999999999	0.004	Yes	2.63	-0.004	2.0	GoodResponse	0	0.178	n/a	4	34	ButtonPress	AvoidedLoss	True
332.116	0.51	Lose2	0.6570999999999999	n/a	Yes	2.63	n/a	n/a	GoodResponse	0	n/a	n/a	4	34	Blank	AvoidedLoss	True
332.618	1.45	Lose2	0.6570999999999999	n/a	Yes	2.63	n/a	5.0	GoodResponse	0	0.042	331.66	4	34	Feedback	AvoidedLoss	True
334.072	2.63	Lose2	0.6570999999999999	n/a	Yes	2.63	n/a	n/a	GoodResponse	0	0.0	n/a	4	34	ISIslide	AvoidedLoss	True
336.73	0.25	Lose2	0.6389	0.0	No	2.67	0.03	n/a	NoResponse	-1	n/a	n/a	3	35	Cue	Loss	True
336.981	4.0	Lose2	0.6389	0.0	No	2.67	0.001	n/a	NoResponse	-1	n/a	n/a	3	35	Fixation	Loss	True
340.976	0.19	Lose2	0.6389	0.004	No	2.67	-0.004	2.0	NoResponse	-1	0.215	340.191	3	35	Target	Loss	True
341.177	0.51	Lose2	0.6389	n/a	No	2.67	n/a	n/a	NoResponse	-1	n/a	n/a	3	35	Blank	Loss	True
341.191	0.3	Lose2	0.6389	0.004	No	2.67	-0.004	2.0	NoResponse	-1	0.215	n/a	3	35	ButtonPress	Loss	True
341.678	1.45	Lose2	0.6389	n/a	No	2.67	n/a	5.0	NoResponse	-1	0.006	340.684	3	35	Feedback	Loss	True
343.133	2.67	Lose2	0.6389	n/a	No	2.67	n/a	n/a	NoResponse	-1	0.0	n/a	3	35	ISIslide	Loss	True
345.824	0.25	Control	0.6215999999999999	0.0	No	2.676	0.024	n/a	NoResponse	0	n/a	n/a	3	36	Cue	Neutral	True
346.075	4.0	Control	0.6215999999999999	0.0	No	2.676	0.001	n/a	NoResponse	0	n/a	n/a	3	36	Fixation	Neutral	True
350.07	0.2	Control	0.6215999999999999	0.004	No	2.676	-0.004	2.0	NoResponse	0	0.212	349.282	3	36	Target	Neutral	True
350.271	0.5	Control	0.6215999999999999	n/a	No	2.676	n/a	n/a	NoResponse	0	n/a	n/a	3	36	Blank	Neutral	True
350.282	0.3	Control	0.6215999999999999	0.004	No	2.676	-0.004	2.0	NoResponse	0	0.212	n/a	3	36	ButtonPress	Neutral	True
350.772	1.45	Control	0.6215999999999999	n/a	No	2.676	n/a	5.0	NoResponse	0	0.034	349.806	3	36	Feedback	Neutral	True
352.227	2.676	Control	0.6215999999999999	n/a	No	2.676	n/a	n/a	NoResponse	0	0.0	n/a	3	36	ISIslide	Neutral	True
354.918	0.25	Win2	0.6053000000000001	0.0	No	2.882	0.018	n/a	NoResponse	0	n/a	n/a	3	37	Cue	MissedWin	True
355.169	4.0	Win2	0.6053000000000001	0.0	No	2.882	0.001	2.0	NoResponse	0	3.866	358.035	3	37	Fixation	MissedWin	True
359.035	0.3	Win2	0.6053000000000001	0.0	No	2.882	0.001	2.0	NoResponse	0	3.866	n/a	3	37	ButtonPress	MissedWin	True
359.164	0.21	Win2	0.6053000000000001	0.004	No	2.882	-0.004	n/a	NoResponse	0	n/a	n/a	3	37	Target	MissedWin	True
359.381	0.49	Win2	0.6053000000000001	n/a	No	2.882	n/a	n/a	NoResponse	0	n/a	n/a	3	37	Blank	MissedWin	True
359.866	1.45	Win2	0.6053000000000001	n/a	No	2.882	n/a	5.0	NoResponse	0	0.014	358.88	3	37	Feedback	MissedWin	True
361.321	2.882	Win2	0.6053000000000001	n/a	No	2.882	n/a	n/a	NoResponse	0	0.0	n/a	3	37	ISIslide	MissedWin	True
364.229	0.25	Lose2	0.5897	0.0	No	2.821	0.029	n/a	NoResponse	-1	n/a	n/a	2	38	Cue	Loss	True
364.48	3.95	Lose2	0.5897	0.0	No	2.821	0.001	n/a	NoResponse	-1	n/a	n/a	2	38	Fixation	Loss	True
368.425	0.22	Lose2	0.5897	0.004	No	2.821	-0.004	2.0	NoResponse	-1	0.307	367.732	2	38	Target	Loss	True
368.659	0.48	Lose2	0.5897	n/a	No	2.821	n/a	n/a	NoResponse	-1	n/a	n/a	2	38	Blank	Loss	True
368.732	0.3	Lose2	0.5897	0.004	No	2.821	-0.004	2.0	NoResponse	-1	0.307	n/a	2	38	ButtonPress	Loss	True
369.127	1.45	Lose2	0.5897	n/a	No	2.821	n/a	5.0	NoResponse	-1	0.021	368.148	2	38	Feedback	Loss	True
370.582	2.821	Lose2	0.5897	n/a	No	2.821	n/a	n/a	NoResponse	-1	0.0	n/a	2	38	ISIslide	Loss	True
373.423	0.25	Win2	0.6	0.001	Yes	2.977	0.023	n/a	GoodResponse	1	n/a	n/a	3	39	Cue	Win	True
373.674	4.1	Win2	0.6	0.0	Yes	2.977	0.001	n/a	GoodResponse	1	n/a	n/a	3	39	Fixation	Win	True
377.77	0.23	Win2	0.6	0.003	Yes	2.977	-0.003	2.0	GoodResponse	1	0.199	376.969	3	39	Target	Win	True
377.969	0.3	Win2	0.6	0.003	Yes	2.977	-0.003	2.0	GoodResponse	1	0.199	n/a	3	39	ButtonPress	Win	True
378.004	0.47	Win2	0.6	n/a	Yes	2.977	n/a	n/a	GoodResponse	1	n/a	n/a	3	39	Blank	Win	True
378.472	1.45	Win2	0.6	n/a	Yes	2.977	n/a	5.0	GoodResponse	1	0.042	377.514	3	39	Feedback	Win	True
379.926	2.977	Win2	0.6	n/a	Yes	2.977	n/a	n/a	GoodResponse	1	0.0	n/a	3	39	ISIslide	Win	True
382.919	0.25	Win2	0.5854	0.0	No	2.731	0.019	n/a	NoResponse	0	n/a	n/a	3	40	Cue	MissedWin	True
383.169	3.95	Win2	0.5854	0.0	No	2.731	0.0	n/a	NoResponse	0	n/a	n/a	3	40	Fixation	MissedWin	True
387.131	0.24	Win2	0.5854	0.0	No	2.731	0.012	2.0	NoResponse	0	0.259	386.39	3	40	Target	MissedWin	True
387.365	0.46	Win2	0.5854	n/a	No	2.731	n/a	n/a	NoResponse	0	n/a	n/a	3	40	Blank	MissedWin	True
387.39	0.3	Win2	0.5854	0.0	No	2.731	0.012	2.0	NoResponse	0	0.259	n/a	3	40	ButtonPress	MissedWin	True
387.817	1.45	Win2	0.5854	n/a	No	2.731	n/a	5.0	NoResponse	0	0.013	386.83	3	40	Feedback	MissedWin	True
389.271	2.731	Win2	0.5854	n/a	No	2.731	n/a	n/a	NoResponse	0	0.0	n/a	3	40	ISIslide	MissedWin	True
392.029	0.25	Win2	0.5952000000000001	0.0	Yes	2.771	0.029	n/a	GoodResponse	1	n/a	n/a	4	41	Cue	Win	True
392.28	3.9	Win2	0.5952000000000001	0.0	Yes	2.771	0.001	n/a	GoodResponse	1	n/a	n/a	4	41	Fixation	Win	True
396.175	0.25	Win2	0.5952000000000001	0.004	Yes	2.771	-0.004	2.0	GoodResponse	1	0.212	395.387	4	41	Target	Win	True
396.387	0.3	Win2	0.5952000000000001	0.004	Yes	2.771	-0.004	2.0	GoodResponse	1	0.212	n/a	4	41	ButtonPress	Win	True
396.426	0.45	Win2	0.5952000000000001	n/a	Yes	2.771	n/a	n/a	GoodResponse	1	n/a	n/a	4	41	Blank	Win	True
396.877	1.45	Win2	0.5952000000000001	n/a	Yes	2.771	n/a	5.0	GoodResponse	1	0.027	395.904	4	41	Feedback	Win	True
398.331	2.771	Win2	0.5952000000000001	n/a	Yes	2.771	n/a	n/a	GoodResponse	1	0.0	n/a	4	41	ISIslide	Win	True
401.123	0.25	Control	0.5814	0.0	No	2.927	0.023	n/a	NoResponse	0	n/a	n/a	4	42	Cue	Neutral	False
401.374	3.85	Control	0.5814	0.0	No	2.927	0.001	2.0	NoResponse	0	3.513	403.887	4	42	Fixation	Neutral	False
404.887	0.3	Control	0.5814	0.0	No	2.927	0.001	2.0	NoResponse	0	3.513	n/a	4	42	ButtonPress	Neutral	False
405.219	0.26	Control	0.5814	0.004	No	2.927	-0.004	2.0	NoResponse	0	0.521	404.74	4	42	Target	Neutral	False
405.486	0.44	Control	0.5814	n/a	No	2.927	n/a	n/a	NoResponse	0	n/a	n/a	4	42	Blank	Neutral	False
405.74	0.3	Control	0.5814	0.004	No	2.927	-0.004	2.0	NoResponse	0	0.521	n/a	4	42	ButtonPress	Neutral	False
405.921	1.45	Control	0.5814	n/a	No	2.927	n/a	5.0	NoResponse	0	0.007	404.928	4	42	Feedback	Neutral	False
407.375	2.927	Control	0.5814	n/a	No	2.927	n/a	n/a	NoResponse	0	0.0	n/a	4	42	ISIslide	Neutral	False
410.317	0.25	Win2	0.5909	0.0	Yes	3.183	0.017	n/a	GoodResponse	1	n/a	n/a	5	43	Cue	Win	True
410.568	4.0	Win2	0.5909	0.0	Yes	3.183	0.001	n/a	GoodResponse	1	n/a	n/a	5	43	Fixation	Win	True
414.563	0.27	Win2	0.5909	0.004	Yes	3.183	-0.004	2.0	GoodResponse	1	0.21	413.773	5	43	Target	Win	True
414.773	0.3	Win2	0.5909	0.004	Yes	3.183	-0.004	2.0	GoodResponse	1	0.21	n/a	5	43	ButtonPress	Win	True
414.848	0.43	Win2	0.5909	n/a	Yes	3.183	n/a	n/a	GoodResponse	1	n/a	n/a	5	43	Blank	Win	True
415.265	1.45	Win2	0.5909	n/a	Yes	3.183	n/a	5.0	GoodResponse	1	0.029	414.294	5	43	Feedback	Win	True
416.72	3.183	Win2	0.5909	n/a	Yes	3.183	n/a	n/a	GoodResponse	1	0.0	n/a	5	43	ISIslide	Win	True
419.929	0.25	Win2	0.6	0.001	Yes	2.971	0.029	n/a	GoodResponse	1	n/a	n/a	6	44	Cue	Win	True
420.18	4.0	Win2	0.6	0.0	Yes	2.971	0.001	n/a	GoodResponse	1	n/a	n/a	6	44	Fixation	Win	True
424.176	0.28	Win2	0.6	0.003	Yes	2.971	-0.003	2.0	GoodResponse	1	0.277	423.453	6	44	Target	Win	True
424.453	0.3	Win2	0.6	0.003	Yes	2.971	-0.003	2.0	GoodResponse	1	0.277	n/a	6	44	ButtonPress	Win	True
424.46	0.42	Win2	0.6	n/a	Yes	2.971	n/a	n/a	GoodResponse	1	n/a	n/a	6	44	Blank	Win	True
424.878	1.45	Win2	0.6	n/a	Yes	2.971	n/a	5.0	GoodResponse	1	0.026	423.904	6	44	Feedback	Win	True
426.332	2.971	Win2	0.6	n/a	Yes	2.971	n/a	n/a	GoodResponse	1	0.0	n/a	6	44	ISIslide	Win	True
429.324	0.25	Control	0.6087	0.0	Yes	2.876	0.024	n/a	GoodResponse	0	n/a	n/a	6	45	Cue	Neutral	True
429.575	4.1	Control	0.6087	0.0	Yes	2.876	0.001	n/a	GoodResponse	0	n/a	n/a	6	45	Fixation	Neutral	True
433.671	0.29	Control	0.6087	0.003	Yes	2.876	-0.003	2.0	GoodResponse	0	0.219	432.89	6	45	Target	Neutral	True
433.89	0.3	Control	0.6087	0.003	Yes	2.876	-0.003	2.0	GoodResponse	0	0.219	n/a	6	45	ButtonPress	Neutral	True
433.972	0.41	Control	0.6087	n/a	Yes	2.876	n/a	n/a	GoodResponse	0	n/a	n/a	6	45	Blank	Neutral	True
434.373	1.45	Control	0.6087	n/a	Yes	2.876	n/a	5.0	GoodResponse	0	0.043	433.416	6	45	Feedback	Neutral	True
435.827	2.876	Control	0.6087	n/a	Yes	2.876	n/a	n/a	GoodResponse	0	0.0	n/a	6	45	ISIslide	Neutral	True
438.719	0.25	Lose2	0.617	0.0	Yes	3.381	0.019	n/a	GoodResponse	0	n/a	n/a	6	46	Cue	AvoidedLoss	True
438.97	4.0	Lose2	0.617	0.0	Yes	3.381	0.001	n/a	GoodResponse	0	n/a	n/a	6	46	Fixation	AvoidedLoss	True
442.965	0.3	Lose2	0.617	0.004	Yes	3.381	-0.004	2.0	GoodResponse	0	0.239	442.204	6	46	Target	AvoidedLoss	True
443.204	0.3	Lose2	0.617	0.004	Yes	3.381	-0.004	2.0	GoodResponse	0	0.239	n/a	6	46	ButtonPress	AvoidedLoss	True
443.266	0.4	Lose2	0.617	n/a	Yes	3.381	n/a	n/a	GoodResponse	0	n/a	n/a	6	46	Blank	AvoidedLoss	True
443.667	1.45	Lose2	0.617	n/a	Yes	3.381	n/a	5.0	GoodResponse	0	0.017	442.684	6	46	Feedback	AvoidedLoss	True
445.122	3.381	Lose2	0.617	n/a	Yes	3.381	n/a	n/a	GoodResponse	0	0.0	n/a	6	46	ISIslide	AvoidedLoss	True
448.515	0.25	Lose2	0.6042000000000001	0.0	No	2.685	0.015	n/a	NoResponse	-1	n/a	n/a	5	47	Cue	Loss	True
448.766	4.0	Lose2	0.6042000000000001	0.0	No	2.685	0.001	n/a	NoResponse	-1	n/a	n/a	5	47	Fixation	Loss	True
452.761	0.31	Lose2	0.6042000000000001	0.004	No	2.685	-0.004	2.0	NoResponse	-1	0.354	452.115	5	47	Target	Loss	True
453.079	0.39	Lose2	0.6042000000000001	n/a	No	2.685	n/a	n/a	NoResponse	-1	n/a	n/a	5	47	Blank	Loss	True
453.115	0.3	Lose2	0.6042000000000001	0.004	No	2.685	-0.004	2.0	NoResponse	-1	0.354	n/a	5	47	ButtonPress	Loss	True
453.463	1.45	Lose2	0.6042000000000001	n/a	No	2.685	n/a	5.0	NoResponse	-1	0.026	452.489	5	47	Feedback	Loss	True
454.918	2.685	Lose2	0.6042000000000001	n/a	No	2.685	n/a	n/a	NoResponse	-1	0.0	n/a	5	47	ISIslide	Loss	True
457.626	0.25	Lose2	0.6122	0.0	Yes	3.024	0.026	n/a	GoodResponse	0	n/a	n/a	5	48	Cue	AvoidedLoss	True
457.876	3.95	Lose2	0.6122	0.001	Yes	3.024	0.0	n/a	GoodResponse	0	n/a	n/a	5	48	Fixation	AvoidedLoss	True
461.822	0.32	Lose2	0.6122	0.004	Yes	3.024	-0.004	2.0	GoodResponse	0	0.2	461.022	5	48	Target	AvoidedLoss	True
462.022	0.3	Lose2	0.6122	0.004	Yes	3.024	-0.004	2.0	GoodResponse	0	0.2	n/a	5	48	ButtonPress	AvoidedLoss	True
462.156	0.38	Lose2	0.6122	n/a	Yes	3.024	n/a	n/a	GoodResponse	0	n/a	n/a	5	48	Blank	AvoidedLoss	True
462.524	1.45	Lose2	0.6122	n/a	Yes	3.024	n/a	5.0	GoodResponse	0	0.038	461.562	5	48	Feedback	AvoidedLoss	True
463.978	3.024	Lose2	0.6122	n/a	Yes	3.024	n/a	n/a	GoodResponse	0	0.0	n/a	5	48	ISIslide	AvoidedLoss	True
467.021	0.25	Control	0.62	0.0	Yes	2.879	0.021	n/a	GoodResponse	0	n/a	n/a	5	49	Cue	Neutral	True
467.271	4.0	Control	0.62	0.0	Yes	2.879	0.0	n/a	GoodResponse	0	n/a	n/a	5	49	Fixation	Neutral	True
471.267	0.33	Control	0.62	0.004	Yes	2.879	-0.004	2.0	GoodResponse	0	0.229	470.496	5	49	Target	Neutral	True
471.496	0.3	Control	0.62	0.004	Yes	2.879	-0.004	2.0	GoodResponse	0	0.229	n/a	5	49	ButtonPress	Neutral	True
471.601	0.37	Control	0.62	n/a	Yes	2.879	n/a	n/a	GoodResponse	0	n/a	n/a	5	49	Blank	Neutral	True
471.969	1.45	Control	0.62	n/a	Yes	2.879	n/a	5.0	GoodResponse	0	0.008	470.977	5	49	Feedback	Neutral	True
473.423	2.879	Control	0.62	n/a	Yes	2.879	n/a	n/a	GoodResponse	0	0.0	n/a	5	49	ISIslide	Neutral	True
476.315	0.25	Control	0.6078	0.0	No	2.785	0.015	n/a	LatePress	0	n/a	n/a	5	50	Cue	Neutral	False
476.566	4.0	Control	0.6078	0.0	No	2.785	0.001	2.0	LatePress	0	3.319	478.885	5	50	Fixation	Neutral	False
479.885	0.3	Control	0.6078	0.0	No	2.785	0.001	2.0	LatePress	0	3.319	n/a	5	50	ButtonPress	Neutral	False
480.561	0.34	Control	0.6078	0.004	No	2.785	-0.004	2.0	LatePress	0	0.345	479.906	5	50	Target	Neutral	False
480.906	0.3	Control	0.6078	0.004	No	2.785	-0.004	2.0	LatePress	0	0.345	n/a	5	50	ButtonPress	Neutral	False
480.912	0.36	Control	0.6078	n/a	No	2.785	n/a	n/a	LatePress	0	n/a	n/a	5	50	Blank	Neutral	False
481.263	1.45	Control	0.6078	n/a	No	2.785	n/a	5.0	LatePress	0	0.031	480.294	5	50	Feedback	Neutral	False
482.718	2.785	Control	0.6078	n/a	No	2.785	n/a	n/a	LatePress	0	0.0	n/a	5	50	ISIslide	Neutral	False
485.526	0.25	Control	0.6154	0.0	Yes	2.724	0.026	n/a	GoodResponse	0	n/a	n/a	5	51	Cue	Neutral	True
485.777	3.95	Control	0.6154	0.0	Yes	2.724	0.001	n/a	GoodResponse	0	n/a	n/a	5	51	Fixation	Neutral	True
489.722	0.35	Control	0.6154	0.004	Yes	2.724	-0.004	2.0	GoodResponse	0	0.248	488.97	5	51	Target	Neutral	True
489.97	0.3	Control	0.6154	0.004	Yes	2.724	-0.004	2.0	GoodResponse	0	0.248	n/a	5	51	ButtonPress	Neutral	True
490.073	0.35	Control	0.6154	n/a	Yes	2.724	n/a	n/a	GoodResponse	0	n/a	n/a	5	51	Blank	Neutral	True
490.424	1.45	Control	0.6154	n/a	Yes	2.724	n/a	5.0	GoodResponse	0	0.041	489.465	5	51	Feedback	Neutral	True
491.878	2.724	Control	0.6154	n/a	Yes	2.724	n/a	n/a	GoodResponse	0	0.0	n/a	5	51	ISIslide	Neutral	True
494.62	0.25	Control	0.6038	0.0	No	2.63	0.02	n/a	NoResponse	0	n/a	n/a	5	52	Cue	Neutral	True
494.871	4.05	Control	0.6038	0.0	No	2.63	0.001	n/a	NoResponse	0	n/a	n/a	5	52	Fixation	Neutral	True
498.916	0.36	Control	0.6038	0.004	No	2.63	-0.004	2.0	NoResponse	0	0.42	498.336	5	52	Target	Neutral	True
499.284	0.34	Control	0.6038	n/a	No	2.63	n/a	n/a	NoResponse	0	n/a	n/a	5	52	Blank	Neutral	True
499.336	0.3	Control	0.6038	0.004	No	2.63	-0.004	2.0	NoResponse	0	0.42	n/a	5	52	ButtonPress	Neutral	True
499.618	1.45	Control	0.6038	n/a	No	2.63	n/a	5.0	NoResponse	0	0.018	498.636	5	52	Feedback	Neutral	True
501.073	2.63	Control	0.6038	n/a	No	2.63	n/a	n/a	NoResponse	0	0.0	n/a	5	52	ISIslide	Neutral	True
503.714	0.25	Win2	0.6111	0.0	Yes	2.936	0.014	n/a	GoodResponse	1	n/a	n/a	6	53	Cue	Win	True
503.965	4.05	Win2	0.6111	0.0	Yes	2.936	0.001	n/a	GoodResponse	1	n/a	n/a	6	53	Fixation	Win	True
508.01	0.37	Win2	0.6111	0.004	Yes	2.936	-0.004	2.0	GoodResponse	1	0.287	507.297	6	53	Target	Win	True
508.297	0.3	Win2	0.6111	0.004	Yes	2.936	-0.004	2.0	GoodResponse	1	0.287	n/a	6	53	ButtonPress	Win	True
508.395	0.33	Win2	0.6111	n/a	Yes	2.936	n/a	n/a	GoodResponse	1	n/a	n/a	6	53	Blank	Win	True
508.712	1.45	Win2	0.6111	n/a	Yes	2.936	n/a	5.0	GoodResponse	1	0.045	507.757	6	53	Feedback	Win	True
510.167	2.936	Win2	0.6111	n/a	Yes	2.936	n/a	n/a	GoodResponse	1	0.0	n/a	6	53	ISIslide	Win	True
513.125	0.25	Win2	0.6182	0.0	Yes	2.725	0.025	n/a	GoodResponse	1	n/a	n/a	7	54	Cue	Win	True
513.376	3.95	Win2	0.6182	0.0	Yes	2.725	0.001	n/a	GoodResponse	1	n/a	n/a	7	54	Fixation	Win	True
517.321	0.38	Win2	0.6182	0.004	Yes	2.725	-0.004	2.0	GoodResponse	1	0.214	516.535	7	54	Target	Win	True
517.535	0.3	Win2	0.6182	0.004	Yes	2.725	-0.004	2.0	GoodResponse	1	0.214	n/a	7	54	ButtonPress	Win	True
517.706	0.32	Win2	0.6182	n/a	Yes	2.725	n/a	n/a	GoodResponse	1	n/a	n/a	7	54	Blank	Win	True
518.023	1.45	Win2	0.6182	n/a	Yes	2.725	n/a	5.0	GoodResponse	1	0.006	517.029	7	54	Feedback	Win	True
519.478	2.725	Win2	0.6182	n/a	Yes	2.725	n/a	n/a	GoodResponse	1	0.0	n/a	7	54	ISIslide	Win	True
522.219	0.25	Control	0.625	0.0	Yes	3.031	0.019	n/a	GoodResponse	0	n/a	n/a	7	55	Cue	Neutral	True
522.47	3.95	Control	0.625	0.0	Yes	3.031	0.001	n/a	GoodResponse	0	n/a	n/a	7	55	Fixation	Neutral	True
526.415	0.39	Control	0.625	0.004	Yes	3.031	-0.004	2.0	GoodResponse	0	0.272	525.687	7	55	Target	Neutral	True
526.687	0.3	Control	0.625	0.004	Yes	3.031	-0.004	2.0	GoodResponse	0	0.272	n/a	7	55	ButtonPress	Neutral	True
526.816	0.31	Control	0.625	n/a	Yes	3.031	n/a	n/a	GoodResponse	0	n/a	n/a	7	55	Blank	Neutral	True
527.117	1.45	Control	0.625	n/a	Yes	3.031	n/a	5.0	GoodResponse	0	0.03	526.147	7	55	Feedback	Neutral	True
528.572	3.031	Control	0.625	n/a	Yes	3.031	n/a	n/a	GoodResponse	0	0.0	n/a	7	55	ISIslide	Neutral	True
531.614	0.25	Control	0.6315999999999999	0.0	Yes	2.836	0.014	n/a	GoodResponse	0	n/a	n/a	7	56	Cue	Neutral	True
531.865	3.95	Control	0.6315999999999999	0.0	Yes	2.836	0.001	n/a	GoodResponse	0	n/a	n/a	7	56	Fixation	Neutral	True
535.81	0.4	Control	0.6315999999999999	0.004	Yes	2.836	-0.004	2.0	GoodResponse	0	0.324	535.134	7	56	Target	Neutral	True
536.134	0.3	Control	0.6315999999999999	0.004	Yes	2.836	-0.004	2.0	GoodResponse	0	0.324	n/a	7	56	ButtonPress	Neutral	True
536.211	0.3	Control	0.6315999999999999	n/a	Yes	2.836	n/a	n/a	GoodResponse	0	n/a	n/a	7	56	Blank	Neutral	True
536.512	1.45	Control	0.6315999999999999	n/a	Yes	2.836	n/a	5.0	GoodResponse	0	0.001	535.513	7	56	Feedback	Neutral	True
537.966	2.836	Control	0.6315999999999999	n/a	Yes	2.836	n/a	n/a	GoodResponse	0	0.0	n/a	7	56	ISIslide	Neutral	True
540.825	0.25	Control	0.6379	0.0	Yes	3.475	0.025	n/a	GoodResponse	0	n/a	n/a	7	57	Cue	Neutral	False
541.076	4.0	Control	0.6379	0.0	Yes	3.475	0.001	2.0	GoodResponse	0	0.093	540.169	7	57	Fixation	Neutral	False
541.169	0.3	Control	0.6379	0.0	Yes	3.475	0.001	2.0	GoodResponse	0	0.093	n/a	7	57	ButtonPress	Neutral	False
545.071	0.41	Control	0.6379	0.004	Yes	3.475	-0.004	2.0	GoodResponse	0	0.281	544.352	7	57	Target	Neutral	False
545.352	0.3	Control	0.6379	0.004	Yes	3.475	-0.004	2.0	GoodResponse	0	0.281	n/a	7	57	ButtonPress	Neutral	False
545.489	0.29	Control	0.6379	n/a	Yes	3.475	n/a	n/a	GoodResponse	0	n/a	n/a	7	57	Blank	Neutral	False
545.773	1.45	Control	0.6379	n/a	Yes	3.475	n/a	5.0	GoodResponse	0	0.009	544.782	7	57	Feedback	Neutral	False
547.228	3.475	Control	0.6379	n/a	Yes	3.475	n/a	n/a	GoodResponse	0	0.0	n/a	7	57	ISIslide	Neutral	False
550.721	0.25	Win2	0.6441	0.0	Yes	2.729	0.021	n/a	GoodResponse	1	n/a	n/a	8	58	Cue	Win	True
550.972	4.05	Win2	0.6441	0.0	Yes	2.729	0.001	n/a	GoodResponse	1	n/a	n/a	8	58	Fixation	Win	True
555.018	0.42	Win2	0.6441	0.003	Yes	2.729	-0.003	2.0	GoodResponse	1	0.234	554.252	8	58	Target	Win	True
555.252	0.3	Win2	0.6441	0.003	Yes	2.729	-0.003	2.0	GoodResponse	1	0.234	n/a	8	58	ButtonPress	Win	True
555.452	0.28	Win2	0.6441	n/a	Yes	2.729	n/a	n/a	GoodResponse	1	n/a	n/a	8	58	Blank	Win	True
555.72	1.45	Win2	0.6441	n/a	Yes	2.729	n/a	5.0	GoodResponse	1	0.013	554.733	8	58	Feedback	Win	True
557.174	2.729	Win2	0.6441	n/a	Yes	2.729	n/a	n/a	GoodResponse	1	0.0	n/a	8	58	ISIslide	Win	True
559.916	0.25	Lose2	0.65	0.0	Yes	2.684	0.016	n/a	GoodResponse	0	n/a	n/a	8	59	Cue	AvoidedLoss	True
560.166	4.0	Lose2	0.65	0.0	Yes	2.684	0.0	n/a	GoodResponse	0	n/a	n/a	8	59	Fixation	AvoidedLoss	True
564.162	0.43	Lose2	0.65	0.004	Yes	2.684	-0.004	2.0	GoodResponse	0	0.372	563.534	8	59	Target	AvoidedLoss	True
564.534	0.3	Lose2	0.65	0.004	Yes	2.684	-0.004	2.0	GoodResponse	0	0.372	n/a	8	59	ButtonPress	AvoidedLoss	True
564.596	0.27	Lose2	0.65	n/a	Yes	2.684	n/a	n/a	GoodResponse	0	n/a	n/a	8	59	Blank	AvoidedLoss	True
564.864	1.45	Lose2	0.65	n/a	Yes	2.684	n/a	5.0	GoodResponse	0	0.039	563.903	8	59	Feedback	AvoidedLoss	True
566.318	2.684	Lose2	0.65	n/a	Yes	2.684	n/a	n/a	GoodResponse	0	0.0	n/a	8	59	ISIslide	AvoidedLoss	True
569.026	0.25	Control	0.6557	0.0	Yes	2.674	0.026	n/a	GoodResponse	0	n/a	n/a	8	60	Cue	Neutral	True
569.277	4.0	Control	0.6557	0.0	Yes	2.674	0.001	n/a	GoodResponse	0	n/a	n/a	8	60	Fixation	Neutral	True
573.272	0.44	Control	0.6557	0.004	Yes	2.674	-0.004	2.0	GoodResponse	0	0.411	572.683	8	60	Target	Neutral	True
573.683	0.3	Control	0.6557	0.004	Yes	2.674	-0.004	2.0	GoodResponse	0	0.411	n/a	8	60	ButtonPress	Neutral	True
573.724	0.26	Control	0.6557	n/a	Yes	2.674	n/a	n/a	GoodResponse	0	n/a	n/a	8	60	Blank	Neutral	True
573.974	1.45	Control	0.6557	n/a	Yes	2.674	n/a	5.0	GoodResponse	0	0.007	572.981	8	60	Feedback	Neutral	True
575.429	2.674	Control	0.6557	n/a	Yes	2.674	n/a	n/a	GoodResponse	0	0.0	n/a	8	60	ISIslide	Neutral	True
578.12	0.25	Lose2	0.6613	0.0	Yes	2.98	0.02	n/a	GoodResponse	0	n/a	n/a	8	61	Cue	AvoidedLoss	True
578.371	4.0	Lose2	0.6613	0.0	Yes	2.98	0.001	n/a	GoodResponse	0	n/a	n/a	8	61	Fixation	AvoidedLoss	True
582.366	0.44	Lose2	0.6613	0.004	Yes	2.98	-0.004	2.0	GoodResponse	0	0.215	581.581	8	61	Target	AvoidedLoss	True
582.581	0.3	Lose2	0.6613	0.004	Yes	2.98	-0.004	2.0	GoodResponse	0	0.215	n/a	8	61	ButtonPress	AvoidedLoss	True
582.818	0.26	Lose2	0.6613	n/a	Yes	2.98	n/a	n/a	GoodResponse	0	n/a	n/a	8	61	Blank	AvoidedLoss	True
583.068	1.45	Lose2	0.6613	n/a	Yes	2.98	n/a	5.0	GoodResponse	0	0.03	582.098	8	61	Feedback	AvoidedLoss	True
584.523	2.98	Lose2	0.6613	n/a	Yes	2.98	n/a	n/a	GoodResponse	0	0.0	n/a	8	61	ISIslide	AvoidedLoss	True
587.515	0.25	Lose2	0.6667000000000001	0.0	Yes	2.885	0.015	n/a	GoodResponse	0	n/a	n/a	8	62	Cue	AvoidedLoss	True
587.766	3.9	Lose2	0.6667000000000001	0.0	Yes	2.885	0.001	n/a	GoodResponse	0	n/a	n/a	8	62	Fixation	AvoidedLoss	True
591.661	0.44	Lose2	0.6667000000000001	0.004	Yes	2.885	-0.004	2.0	GoodResponse	0	0.373	591.034	8	62	Target	AvoidedLoss	True
592.034	0.3	Lose2	0.6667000000000001	0.004	Yes	2.885	-0.004	2.0	GoodResponse	0	0.373	n/a	8	62	ButtonPress	AvoidedLoss	True
592.112	0.26	Lose2	0.6667000000000001	n/a	Yes	2.885	n/a	n/a	GoodResponse	0	n/a	n/a	8	62	Blank	AvoidedLoss	True
592.363	1.45	Lose2	0.6667000000000001	n/a	Yes	2.885	n/a	5.0	GoodResponse	0	0.007	591.37	8	62	Feedback	AvoidedLoss	True
593.817	2.885	Lose2	0.6667000000000001	n/a	Yes	2.885	n/a	n/a	GoodResponse	0	0.0	n/a	8	62	ISIslide	AvoidedLoss	True
596.726	0.25	Lose2	0.6718999999999999	0.0	Yes	2.624	0.026	n/a	GoodResponse	0	n/a	n/a	8	63	Cue	AvoidedLoss	True
596.977	4.05	Lose2	0.6718999999999999	0.0	Yes	2.624	0.001	n/a	GoodResponse	0	n/a	n/a	8	63	Fixation	AvoidedLoss	True
601.022	0.43	Lose2	0.6718999999999999	0.004	Yes	2.624	-0.004	2.0	GoodResponse	0	0.254	600.276	8	63	Target	AvoidedLoss	True
601.276	0.3	Lose2	0.6718999999999999	0.004	Yes	2.624	-0.004	2.0	GoodResponse	0	0.254	n/a	8	63	ButtonPress	AvoidedLoss	True
601.457	0.27	Lose2	0.6718999999999999	n/a	Yes	2.624	n/a	n/a	GoodResponse	0	n/a	n/a	8	63	Blank	AvoidedLoss	True
601.724	1.45	Lose2	0.6718999999999999	n/a	Yes	2.624	n/a	5.0	GoodResponse	0	0.009	600.733	8	63	Feedback	AvoidedLoss	True
603.179	2.624	Lose2	0.6718999999999999	n/a	Yes	2.624	n/a	n/a	GoodResponse	0	0.0	n/a	8	63	ISIslide	AvoidedLoss	True
605.82	0.25	Win2	0.6769	0.0	Yes	3.13	0.02	n/a	GoodResponse	1	n/a	n/a	9	64	Cue	Win	True
606.071	4.15	Win2	0.6769	0.0	Yes	3.13	0.001	n/a	GoodResponse	1	n/a	n/a	9	64	Fixation	Win	True
610.216	0.42	Win2	0.6769	0.004	Yes	3.13	-0.004	2.0	GoodResponse	1	0.209	609.425	9	64	Target	Win	True
610.425	0.3	Win2	0.6769	0.004	Yes	3.13	-0.004	2.0	GoodResponse	1	0.209	n/a	9	64	ButtonPress	Win	True
610.651	0.28	Win2	0.6769	n/a	Yes	3.13	n/a	n/a	GoodResponse	1	n/a	n/a	9	64	Blank	Win	True
610.918	1.45	Win2	0.6769	n/a	Yes	3.13	n/a	5.0	GoodResponse	1	0.034	609.952	9	64	Feedback	Win	True
612.373	3.13	Win2	0.6769	n/a	Yes	3.13	n/a	n/a	GoodResponse	1	0.0	n/a	9	64	ISIslide	Win	True
615.516	0.25	Control	0.6818000000000001	0.0	Yes	2.784	0.016	n/a	GoodResponse	0	n/a	n/a	9	65	Cue	Neutral	True
615.766	4.0	Control	0.6818000000000001	0.0	Yes	2.784	0.0	n/a	GoodResponse	0	n/a	n/a	9	65	Fixation	Neutral	True
619.762	0.41	Control	0.6818000000000001	0.004	Yes	2.784	-0.004	2.0	GoodResponse	0	0.216	618.978	9	65	Target	Neutral	True
619.978	0.3	Control	0.6818000000000001	0.004	Yes	2.784	-0.004	2.0	GoodResponse	0	0.216	n/a	9	65	ButtonPress	Neutral	True
620.179	0.29	Control	0.6818000000000001	n/a	Yes	2.784	n/a	n/a	GoodResponse	0	n/a	n/a	9	65	Blank	Neutral	True
620.464	1.45	Control	0.6818000000000001	n/a	Yes	2.784	n/a	5.0	GoodResponse	0	0.048	619.512	9	65	Feedback	Neutral	True
621.918	2.784	Control	0.6818000000000001	n/a	Yes	2.784	n/a	n/a	GoodResponse	0	0.0	n/a	9	65	ISIslide	Neutral	True
624.726	0.25	Win2	0.6866	0.001	Yes	2.774	0.026	n/a	GoodResponse	1	n/a	n/a	10	66	Cue	Win	True
624.977	3.9	Win2	0.6866	0.0	Yes	2.774	0.001	n/a	GoodResponse	1	n/a	n/a	10	66	Fixation	Win	True
628.872	0.4	Win2	0.6866	0.004	Yes	2.774	-0.004	2.0	GoodResponse	1	0.293	628.165	10	66	Target	Win	True
629.165	0.3	Win2	0.6866	0.004	Yes	2.774	-0.004	2.0	GoodResponse	1	0.293	n/a	10	66	ButtonPress	Win	True
629.273	0.3	Win2	0.6866	n/a	Yes	2.774	n/a	n/a	GoodResponse	1	n/a	n/a	10	66	Blank	Win	True
629.574	1.45	Win2	0.6866	n/a	Yes	2.774	n/a	5.0	GoodResponse	1	0.012	628.586	10	66	Feedback	Win	True
631.029	2.774	Win2	0.6866	n/a	Yes	2.774	n/a	n/a	GoodResponse	1	0.0	n/a	10	66	ISIslide	Win	True
633.82	0.25	Control	0.6912	0.0	Yes	2.73	0.02	n/a	GoodResponse	0	n/a	n/a	10	67	Cue	Neutral	True
634.071	3.95	Control	0.6912	0.0	Yes	2.73	0.001	n/a	GoodResponse	0	n/a	n/a	10	67	Fixation	Neutral	True
638.016	0.39	Control	0.6912	0.004	Yes	2.73	-0.004	2.0	GoodResponse	0	0.227	637.243	10	67	Target	Neutral	True
638.243	0.3	Control	0.6912	0.004	Yes	2.73	-0.004	2.0	GoodResponse	0	0.227	n/a	10	67	ButtonPress	Neutral	True
638.417	0.31	Control	0.6912	n/a	Yes	2.73	n/a	n/a	GoodResponse	0	n/a	n/a	10	67	Blank	Neutral	True
638.718	1.45	Control	0.6912	n/a	Yes	2.73	n/a	5.0	GoodResponse	0	0.038	637.756	10	67	Feedback	Neutral	True
640.173	2.73	Control	0.6912	n/a	Yes	2.73	n/a	n/a	GoodResponse	0	0.0	n/a	10	67	ISIslide	Neutral	True
642.931	0.25	Win2	0.6957	0.0	Yes	3.069	0.031	n/a	GoodResponse	1	n/a	n/a	11	68	Cue	Win	True
643.182	4.0	Win2	0.6957	0.0	Yes	3.069	0.001	n/a	GoodResponse	1	n/a	n/a	11	68	Fixation	Win	True
647.177	0.38	Win2	0.6957	0.004	Yes	3.069	-0.004	2.0	GoodResponse	1	0.292	646.469	11	68	Target	Win	True
647.469	0.3	Win2	0.6957	0.004	Yes	3.069	-0.004	2.0	GoodResponse	1	0.292	n/a	11	68	ButtonPress	Win	True
647.562	0.32	Win2	0.6957	n/a	Yes	3.069	n/a	n/a	GoodResponse	1	n/a	n/a	11	68	Blank	Win	True
647.879	1.45	Win2	0.6957	n/a	Yes	3.069	n/a	5.0	GoodResponse	1	0.048	646.927	11	68	Feedback	Win	True
649.334	3.069	Win2	0.6957	n/a	Yes	3.069	n/a	n/a	GoodResponse	1	0.0	n/a	11	68	ISIslide	Win	True
652.426	0.25	Win2	0.7	0.0	Yes	3.224	0.026	n/a	GoodResponse	1	n/a	n/a	12	69	Cue	Win	True
652.677	3.95	Win2	0.7	0.0	Yes	3.224	0.001	n/a	GoodResponse	1	n/a	n/a	12	69	Fixation	Win	True
656.622	0.37	Win2	0.7	0.004	Yes	3.224	-0.004	2.0	GoodResponse	1	0.297	655.919	12	69	Target	Win	True
656.919	0.3	Win2	0.7	0.004	Yes	3.224	-0.004	2.0	GoodResponse	1	0.297	n/a	12	69	ButtonPress	Win	True
657.006	0.33	Win2	0.7	n/a	Yes	3.224	n/a	n/a	GoodResponse	1	n/a	n/a	12	69	Blank	Win	True
657.324	1.45	Win2	0.7	n/a	Yes	3.224	n/a	5.0	GoodResponse	1	0.018	656.342	12	69	Feedback	Win	True
658.778	3.224	Win2	0.7	n/a	Yes	3.224	n/a	n/a	GoodResponse	1	0.0	n/a	12	69	ISIslide	Win	True
662.022	0.25	Lose2	0.7042	0.0	Yes	3.028	0.022	n/a	GoodResponse	0	n/a	n/a	12	70	Cue	AvoidedLoss	True
662.272	4.05	Lose2	0.7042	0.0	Yes	3.028	0.0	n/a	GoodResponse	0	n/a	n/a	12	70	Fixation	AvoidedLoss	True
666.318	0.36	Lose2	0.7042	0.004	Yes	3.028	-0.004	2.0	GoodResponse	0	0.345	665.663	12	70	Target	AvoidedLoss	True
666.663	0.3	Lose2	0.7042	0.004	Yes	3.028	-0.004	2.0	GoodResponse	0	0.345	n/a	12	70	ButtonPress	AvoidedLoss	True
666.686	0.34	Lose2	0.7042	n/a	Yes	3.028	n/a	n/a	GoodResponse	0	n/a	n/a	12	70	Blank	AvoidedLoss	True
667.02	1.45	Lose2	0.7042	n/a	Yes	3.028	n/a	5.0	GoodResponse	0	0.029	666.049	12	70	Feedback	AvoidedLoss	True
668.474	3.028	Lose2	0.7042	n/a	Yes	3.028	n/a	n/a	GoodResponse	0	0.0	n/a	12	70	ISIslide	AvoidedLoss	True
671.517	0.25	Win2	0.6944	0.0	No	2.733	0.017	n/a	NoResponse	0	n/a	n/a	12	71	Cue	MissedWin	True
671.767	4.05	Win2	0.6944	0.0	No	2.733	0.0	n/a	NoResponse	0	n/a	n/a	12	71	Fixation	MissedWin	True
675.813	0.35	Win2	0.6944	0.004	No	2.733	-0.004	2.0	NoResponse	0	0.384	675.197	12	71	Target	MissedWin	True
676.164	0.35	Win2	0.6944	n/a	No	2.733	n/a	n/a	NoResponse	0	n/a	n/a	12	71	Blank	MissedWin	True
676.197	0.3	Win2	0.6944	0.004	No	2.733	-0.004	2.0	NoResponse	0	0.384	n/a	12	71	ButtonPress	MissedWin	True
676.515	1.45	Win2	0.6944	n/a	No	2.733	n/a	5.0	NoResponse	0	0.047	675.562	12	71	Feedback	MissedWin	True
677.969	2.733	Win2	0.6944	n/a	No	2.733	n/a	n/a	NoResponse	0	0.0	n/a	12	71	ISIslide	MissedWin	True
680.728	0.25	Win2	0.6986	0.0	Yes	2.772	0.028	n/a	GoodResponse	1	n/a	n/a	13	72	Cue	Win	True
680.978	4.1	Win2	0.6986	0.0	Yes	2.772	0.0	n/a	GoodResponse	1	n/a	n/a	13	72	Fixation	Win	True
685.074	0.34	Win2	0.6986	0.004	Yes	2.772	-0.004	2.0	GoodResponse	1	0.226	684.3	13	72	Target	Win	True
685.3	0.3	Win2	0.6986	0.004	Yes	2.772	-0.004	2.0	GoodResponse	1	0.226	n/a	13	72	ButtonPress	Win	True
685.425	0.36	Win2	0.6986	n/a	Yes	2.772	n/a	n/a	GoodResponse	1	n/a	n/a	13	72	Blank	Win	True
685.776	1.45	Win2	0.6986	n/a	Yes	2.772	n/a	5.0	GoodResponse	1	0.007	684.783	13	72	Feedback	Win	True
687.23	2.772	Win2	0.6986	n/a	Yes	2.772	n/a	n/a	GoodResponse	1	0.0	n/a	13	72	ISIslide	Win	True
690.022	0.25	Win2	0.6892	0.0	No	2.678	0.022	n/a	NoResponse	0	n/a	n/a	13	73	Cue	MissedWin	True
690.273	4.0	Win2	0.6892	0.0	No	2.678	0.001	n/a	NoResponse	0	n/a	n/a	13	73	Fixation	MissedWin	True
694.268	0.33	Win2	0.6892	0.004	No	2.678	-0.004	2.0	NoResponse	0	0.349	693.617	13	73	Target	MissedWin	True
694.602	0.37	Win2	0.6892	n/a	No	2.678	n/a	n/a	NoResponse	0	n/a	n/a	13	73	Blank	MissedWin	True
694.617	0.3	Win2	0.6892	0.004	No	2.678	-0.004	2.0	NoResponse	0	0.349	n/a	13	73	ButtonPress	MissedWin	True
694.97	1.45	Win2	0.6892	n/a	No	2.678	n/a	5.0	NoResponse	0	0.03	694.0	13	73	Feedback	MissedWin	True
696.425	2.678	Win2	0.6892	n/a	No	2.678	n/a	n/a	NoResponse	0	0.0	n/a	13	73	ISIslide	MissedWin	True
699.116	0.25	Lose2	0.6933	0.0	Yes	2.634	0.016	n/a	GoodResponse	0	n/a	n/a	13	74	Cue	AvoidedLoss	True
699.367	4.05	Lose2	0.6933	0.0	Yes	2.634	0.001	n/a	GoodResponse	0	n/a	n/a	13	74	Fixation	AvoidedLoss	True
703.412	0.32	Lose2	0.6933	0.004	Yes	2.634	-0.004	2.0	GoodResponse	0	0.214	702.626	13	74	Target	AvoidedLoss	True
703.626	0.3	Lose2	0.6933	0.004	Yes	2.634	-0.004	2.0	GoodResponse	0	0.214	n/a	13	74	ButtonPress	AvoidedLoss	True
703.747	0.38	Lose2	0.6933	n/a	Yes	2.634	n/a	n/a	GoodResponse	0	n/a	n/a	13	74	Blank	AvoidedLoss	True
704.114	1.45	Lose2	0.6933	n/a	Yes	2.634	n/a	5.0	GoodResponse	0	0.008	703.122	13	74	Feedback	AvoidedLoss	True
705.569	2.634	Lose2	0.6933	n/a	Yes	2.634	n/a	n/a	GoodResponse	0	0.0	n/a	13	74	ISIslide	AvoidedLoss	True
708.227	0.25	Lose2	0.6973999999999999	0.0	Yes	2.923	0.027	n/a	GoodResponse	0	n/a	n/a	13	75	Cue	AvoidedLoss	True
708.477	3.95	Lose2	0.6973999999999999	0.0	Yes	2.923	0.0	n/a	GoodResponse	0	n/a	n/a	13	75	Fixation	AvoidedLoss	True
712.423	0.31	Lose2	0.6973999999999999	0.004	Yes	2.923	-0.004	2.0	GoodResponse	0	0.225	711.648	13	75	Target	AvoidedLoss	True
712.648	0.3	Lose2	0.6973999999999999	0.004	Yes	2.923	-0.004	2.0	GoodResponse	0	0.225	n/a	13	75	ButtonPress	AvoidedLoss	True
712.74	0.39	Lose2	0.6973999999999999	n/a	Yes	2.923	n/a	n/a	GoodResponse	0	n/a	n/a	13	75	Blank	AvoidedLoss	True
713.125	1.45	Lose2	0.6973999999999999	n/a	Yes	2.923	n/a	5.0	GoodResponse	0	0.022	712.147	13	75	Feedback	AvoidedLoss	True
714.579	2.923	Lose2	0.6973999999999999	n/a	Yes	2.923	n/a	n/a	GoodResponse	0	0.0	n/a	13	75	ISIslide	AvoidedLoss	True
717.521	0.25	Control	0.7012999999999999	0.0	Yes	3.229	0.021	n/a	GoodResponse	0	n/a	n/a	13	76	Cue	Neutral	True
717.772	4.05	Control	0.7012999999999999	0.0	Yes	3.229	0.001	n/a	GoodResponse	0	n/a	n/a	13	76	Fixation	Neutral	True
721.817	0.3	Control	0.7012999999999999	0.004	Yes	3.229	-0.004	2.0	GoodResponse	0	0.286	721.103	13	76	Target	Neutral	True
722.103	0.3	Control	0.7012999999999999	0.004	Yes	3.229	-0.004	2.0	GoodResponse	0	0.286	n/a	13	76	ButtonPress	Neutral	True
722.118	0.4	Control	0.7012999999999999	n/a	Yes	3.229	n/a	n/a	GoodResponse	0	n/a	n/a	13	76	Blank	Neutral	True
722.519	1.45	Control	0.7012999999999999	n/a	Yes	3.229	n/a	5.0	GoodResponse	0	0.042	721.561	13	76	Feedback	Neutral	True
723.974	3.229	Control	0.7012999999999999	n/a	Yes	3.229	n/a	n/a	GoodResponse	0	0.0	n/a	13	76	ISIslide	Neutral	True
727.217	0.25	Lose2	0.6923	0.0	No	2.583	0.017	n/a	NoResponse	-1	n/a	n/a	12	77	Cue	Loss	False
727.468	3.95	Lose2	0.6923	0.0	No	2.583	0.001	n/a	NoResponse	-1	n/a	n/a	12	77	Fixation	Loss	False
731.413	0.29	Lose2	0.6923	0.004	No	2.583	-0.004	n/a	NoResponse	-1	n/a	n/a	12	77	Target	Loss	False
731.714	0.41	Lose2	0.6923	n/a	No	2.583	n/a	n/a	NoResponse	-1	n/a	n/a	12	77	Blank	Loss	False
732.115	1.45	Lose2	0.6923	n/a	No	2.583	n/a	5.0	NoResponse	-1	0.008	731.123	12	77	Feedback	Loss	False
733.569	2.583	Lose2	0.6923	n/a	No	2.583	n/a	n/a	NoResponse	-1	0.0	n/a	12	77	ISIslide	Loss	False
