onset	duration	cue_type	current_mean_accuracy	duration_error	is_hit	isi_adjusted	onset_delay	response	response_type	reward	rt	rt_time	total_reward	trial_number	trial_phase	trial_type	one_press
11.104	0.25	Control	1.0	0.0	Yes	2.946	0.004	n/a	GoodResponse	0	n/a	n/a	0	0	Cue	Neutral	True
11.354	3.85	Control	1.0	0.0	Yes	2.946	0.0	n/a	GoodResponse	0	n/a	n/a	0	0	Fixation	Neutral	True
15.203	0.4	Control	1.0	0.001	Yes	2.946	-0.001	4.0	GoodResponse	0	0.279	14.482	0	0	Target	Neutral	True
15.482	0.3	Control	1.0	0.001	Yes	2.946	-0.001	4.0	GoodResponse	0	0.279	n/a	0	0	ButtonPress	Neutral	True
15.603	0.3	Control	1.0	n/a	Yes	2.946	n/a	n/a	GoodResponse	0	n/a	n/a	0	0	Blank	Neutral	True
15.903	1.45	Control	1.0	n/a	Yes	2.946	n/a	5.0	GoodResponse	0	0.026	14.929	0	0	Feedback	Neutral	True
17.352	2.946	Control	1.0	n/a	Yes	2.946	n/a	1.0	GoodResponse	0	0.837	n/a	0	0	ISIslide	Neutral	True
20.301	0.25	Lose2	1.0	0.0	Yes	2.799	0.001	n/a	GoodResponse	0	n/a	n/a	0	1	Cue	AvoidedLoss	True
20.551	4.0	Lose2	1.0	0.0	Yes	2.799	0.0	n/a	GoodResponse	0	n/a	n/a	0	1	Fixation	AvoidedLoss	True
24.55	0.39	Lose2	1.0	0.001	Yes	2.799	-0.001	4.0	GoodResponse	0	0.225	23.775	0	1	Target	AvoidedLoss	True
24.775	0.3	Lose2	1.0	0.001	Yes	2.799	-0.001	4.0	GoodResponse	0	0.225	n/a	0	1	ButtonPress	AvoidedLoss	True
24.95	0.31	Lose2	1.0	n/a	Yes	2.799	n/a	n/a	GoodResponse	0	n/a	n/a	0	1	Blank	AvoidedLoss	True
25.249	1.45	Lose2	1.0	n/a	Yes	2.799	n/a	5.0	GoodResponse	0	0.046	24.295	0	1	Feedback	AvoidedLoss	True
26.699	2.799	Lose2	1.0	n/a	Yes	2.799	n/a	n/a	GoodResponse	0	0.0	n/a	0	1	ISIslide	AvoidedLoss	True
29.515	0.25	Control	1.0	0.0	Yes	2.585	0.015	n/a	GoodResponse	0	n/a	n/a	0	2	Cue	Neutral	True
29.765	4.1	Control	1.0	0.0	Yes	2.585	0.0	n/a	GoodResponse	0	n/a	n/a	0	2	Fixation	Neutral	True
33.863	0.38	Control	1.0	0.002	Yes	2.585	-0.002	4.0	GoodResponse	0	0.228	33.091	0	2	Target	Neutral	True
34.091	0.3	Control	1.0	0.002	Yes	2.585	-0.002	4.0	GoodResponse	0	0.228	n/a	0	2	ButtonPress	Neutral	True
34.246	0.32	Control	1.0	n/a	Yes	2.585	n/a	n/a	GoodResponse	0	n/a	n/a	0	2	Blank	Neutral	True
34.563	1.45	Control	1.0	n/a	Yes	2.585	n/a	5.0	GoodResponse	0	0.001	33.564	0	2	Feedback	Neutral	True
36.012	2.585	Control	1.0	n/a	Yes	2.585	n/a	n/a	GoodResponse	0	0.0	n/a	0	2	ISIslide	Neutral	True
38.628	0.25	Win2	1.0	0.0	Yes	2.822	0.028	n/a	GoodResponse	1	n/a	n/a	1	3	Cue	Win	True
38.878	3.95	Win2	1.0	0.0	Yes	2.822	0.0	n/a	GoodResponse	1	n/a	n/a	1	3	Fixation	Win	True
42.827	0.37	Win2	1.0	0.001	Yes	2.822	-0.001	4.0	GoodResponse	1	0.262	42.089	1	3	Target	Win	True
43.089	0.3	Win2	1.0	0.001	Yes	2.822	-0.001	4.0	GoodResponse	1	0.262	n/a	1	3	ButtonPress	Win	True
43.21	0.33	Win2	1.0	n/a	Yes	2.822	n/a	n/a	GoodResponse	1	n/a	n/a	1	3	Blank	Win	True
43.526	1.45	Win2	1.0	n/a	Yes	2.822	n/a	5.0	GoodResponse	1	0.013	42.539	1	3	Feedback	Win	True
44.976	2.822	Win2	1.0	n/a	Yes	2.822	n/a	n/a	GoodResponse	1	0.0	n/a	1	3	ISIslide	Win	True
47.825	0.25	Win2	1.0	0.0	Yes	3.275	0.025	n/a	GoodResponse	1	n/a	n/a	2	4	Cue	Win	True
48.075	4.0	Win2	1.0	0.0	Yes	3.275	0.0	n/a	GoodResponse	1	n/a	n/a	2	4	Fixation	Win	True
52.074	0.36	Win2	1.0	0.001	Yes	3.275	-0.001	4.0	GoodResponse	1	0.231	51.305	2	4	Target	Win	True
52.305	0.3	Win2	1.0	0.001	Yes	3.275	-0.001	4.0	GoodResponse	1	0.231	n/a	2	4	ButtonPress	Win	True
52.44	0.34	Win2	1.0	n/a	Yes	3.275	n/a	n/a	GoodResponse	1	n/a	n/a	2	4	Blank	Win	True
52.773	1.45	Win2	1.0	n/a	Yes	3.275	n/a	5.0	GoodResponse	1	0.034	51.807	2	4	Feedback	Win	True
54.223	3.275	Win2	1.0	n/a	Yes	3.275	n/a	n/a	GoodResponse	1	0.0	n/a	2	4	ISIslide	Win	True
57.522	0.25	Win2	1.0	0.0	Yes	2.778	0.022	n/a	GoodResponse	1	n/a	n/a	3	5	Cue	Win	True
57.772	4.0	Win2	1.0	0.0	Yes	2.778	0.0	n/a	GoodResponse	1	n/a	n/a	3	5	Fixation	Win	True
61.77	0.35	Win2	1.0	0.002	Yes	2.778	-0.002	4.0	GoodResponse	1	0.232	61.002	3	5	Target	Win	True
62.002	0.3	Win2	1.0	0.002	Yes	2.778	-0.002	4.0	GoodResponse	1	0.232	n/a	3	5	ButtonPress	Win	True
62.12	0.35	Win2	1.0	n/a	Yes	2.778	n/a	n/a	GoodResponse	1	n/a	n/a	3	5	Blank	Win	True
62.47	1.45	Win2	1.0	n/a	Yes	2.778	n/a	5.0	GoodResponse	1	0.044	61.514	3	5	Feedback	Win	True
63.919	2.778	Win2	1.0	n/a	Yes	2.778	n/a	n/a	GoodResponse	1	0.0	n/a	3	5	ISIslide	Win	True
66.719	0.25	Lose2	1.0	0.0	Yes	2.731	0.019	n/a	GoodResponse	0	n/a	n/a	3	6	Cue	AvoidedLoss	True
66.968	3.95	Lose2	1.0	0.001	Yes	2.731	-0.001	n/a	GoodResponse	0	n/a	n/a	3	6	Fixation	AvoidedLoss	True
70.917	0.34	Lose2	1.0	0.002	Yes	2.731	-0.002	4.0	GoodResponse	0	0.238	70.155	3	6	Target	AvoidedLoss	True
71.155	0.3	Lose2	1.0	0.002	Yes	2.731	-0.002	4.0	GoodResponse	0	0.238	n/a	3	6	ButtonPress	AvoidedLoss	True
71.267	0.36	Lose2	1.0	n/a	Yes	2.731	n/a	n/a	GoodResponse	0	n/a	n/a	3	6	Blank	AvoidedLoss	True
71.617	1.45	Lose2	1.0	n/a	Yes	2.731	n/a	5.0	GoodResponse	0	0.019	70.636	3	6	Feedback	AvoidedLoss	True
73.066	2.731	Lose2	1.0	n/a	Yes	2.731	n/a	n/a	GoodResponse	0	0.0	n/a	3	6	ISIslide	AvoidedLoss	True
75.815	0.25	Lose2	1.0	0.001	Yes	4.035	0.015	n/a	GoodResponse	0	n/a	n/a	3	7	Cue	AvoidedLoss	True
76.065	4.05	Lose2	1.0	0.0	Yes	4.035	0.0	n/a	GoodResponse	0	n/a	n/a	3	7	Fixation	AvoidedLoss	True
80.114	0.33	Lose2	1.0	0.001	Yes	4.035	-0.001	4.0	GoodResponse	0	0.207	79.321	3	7	Target	AvoidedLoss	True
80.321	0.3	Lose2	1.0	0.001	Yes	4.035	-0.001	4.0	GoodResponse	0	0.207	n/a	3	7	ButtonPress	AvoidedLoss	True
80.447	0.37	Lose2	1.0	n/a	Yes	4.035	n/a	n/a	GoodResponse	0	n/a	n/a	3	7	Blank	AvoidedLoss	True
80.814	1.45	Lose2	1.0	n/a	Yes	4.035	n/a	5.0	GoodResponse	0	0.042	79.856	3	7	Feedback	AvoidedLoss	True
82.263	4.035	Lose2	1.0	n/a	Yes	4.035	n/a	n/a	GoodResponse	0	0.0	n/a	3	7	ISIslide	AvoidedLoss	True
86.312	0.25	Lose2	1.0	0.0	Yes	3.038	0.012	n/a	GoodResponse	0	n/a	n/a	3	8	Cue	AvoidedLoss	True
86.562	3.95	Lose2	1.0	0.0	Yes	3.038	0.0	n/a	GoodResponse	0	n/a	n/a	3	8	Fixation	AvoidedLoss	True
90.51	0.32	Lose2	1.0	0.002	Yes	3.038	-0.002	4.0	GoodResponse	0	0.221	89.731	3	8	Target	AvoidedLoss	True
90.731	0.3	Lose2	1.0	0.002	Yes	3.038	-0.002	4.0	GoodResponse	0	0.221	n/a	3	8	ButtonPress	AvoidedLoss	True
90.844	0.38	Lose2	1.0	n/a	Yes	3.038	n/a	n/a	GoodResponse	0	n/a	n/a	3	8	Blank	AvoidedLoss	True
91.21	1.45	Lose2	1.0	n/a	Yes	3.038	n/a	5.0	GoodResponse	0	0.036	90.246	3	8	Feedback	AvoidedLoss	True
92.66	3.038	Lose2	1.0	n/a	Yes	3.038	n/a	n/a	GoodResponse	0	0.0	n/a	3	8	ISIslide	AvoidedLoss	True
95.725	0.25	Lose2	1.0	0.0	Yes	3.125	0.025	n/a	GoodResponse	0	n/a	n/a	3	9	Cue	AvoidedLoss	True
95.975	3.95	Lose2	1.0	0.0	Yes	3.125	0.0	n/a	GoodResponse	0	n/a	n/a	3	9	Fixation	AvoidedLoss	True
99.924	0.31	Lose2	1.0	0.001	Yes	3.125	-0.001	4.0	GoodResponse	0	0.263	99.187	3	9	Target	AvoidedLoss	True
100.187	0.3	Lose2	1.0	0.001	Yes	3.125	-0.001	4.0	GoodResponse	0	0.263	n/a	3	9	ButtonPress	AvoidedLoss	True
100.24	0.39	Lose2	1.0	n/a	Yes	3.125	n/a	n/a	GoodResponse	0	n/a	n/a	3	9	Blank	AvoidedLoss	True
100.624	1.45	Lose2	1.0	n/a	Yes	3.125	n/a	5.0	GoodResponse	0	0.037	99.661	3	9	Feedback	AvoidedLoss	True
102.073	3.125	Lose2	1.0	n/a	Yes	3.125	n/a	n/a	GoodResponse	0	0.0	n/a	3	9	ISIslide	AvoidedLoss	True
105.222	0.25	Control	1.0	0.0	Yes	3.278	0.022	n/a	GoodResponse	0	n/a	n/a	3	10	Cue	Neutral	True
105.472	4.0	Control	1.0	0.0	Yes	3.278	0.0	n/a	GoodResponse	0	n/a	n/a	3	10	Fixation	Neutral	True
109.471	0.3	Control	1.0	0.001	Yes	3.278	-0.001	4.0	GoodResponse	0	0.225	108.696	3	10	Target	Neutral	True
109.696	0.3	Control	1.0	0.001	Yes	3.278	-0.001	4.0	GoodResponse	0	0.225	n/a	3	10	ButtonPress	Neutral	True
109.77	0.4	Control	1.0	n/a	Yes	3.278	n/a	n/a	GoodResponse	0	n/a	n/a	3	10	Blank	Neutral	True
110.17	1.45	Control	1.0	n/a	Yes	3.278	n/a	5.0	GoodResponse	0	0.005	109.175	3	10	Feedback	Neutral	True
111.62	3.278	Control	1.0	n/a	Yes	3.278	n/a	n/a	GoodResponse	0	0.0	n/a	3	10	ISIslide	Neutral	True
114.919	0.25	Lose2	1.0	0.0	Yes	2.731	0.019	n/a	GoodResponse	0	n/a	n/a	3	11	Cue	AvoidedLoss	True
115.169	4.05	Lose2	1.0	0.0	Yes	2.731	0.0	n/a	GoodResponse	0	n/a	n/a	3	11	Fixation	AvoidedLoss	True
119.217	0.29	Lose2	1.0	0.002	Yes	2.731	-0.002	4.0	GoodResponse	0	0.209	118.426	3	11	Target	AvoidedLoss	True
119.426	0.3	Lose2	1.0	0.002	Yes	2.731	-0.002	4.0	GoodResponse	0	0.209	n/a	3	11	ButtonPress	AvoidedLoss	True
119.517	0.41	Lose2	1.0	n/a	Yes	2.731	n/a	n/a	GoodResponse	0	n/a	n/a	3	11	Blank	AvoidedLoss	True
119.917	1.45	Lose2	1.0	n/a	Yes	2.731	n/a	5.0	GoodResponse	0	0.012	118.929	3	11	Feedback	AvoidedLoss	True
121.367	2.731	Lose2	1.0	n/a	Yes	2.731	n/a	n/a	GoodResponse	0	0.0	n/a	3	11	ISIslide	AvoidedLoss	True
124.116	0.25	Control	1.0	0.0	Yes	2.984	0.016	4.0	GoodResponse	0	0.226	123.342	3	12	Cue	Neutral	False
124.342	0.3	Control	1.0	0.0	Yes	2.984	0.016	4.0	GoodResponse	0	0.226	n/a	3	12	ButtonPress	Neutral	False
124.365	3.9	Control	1.0	0.001	Yes	2.984	-0.001	n/a	GoodResponse	0	n/a	n/a	3	12	Fixation	Neutral	False
128.264	0.28	Control	1.0	0.002	Yes	2.984	-0.002	4.0	GoodResponse	0	0.233	127.497	3	12	Target	Neutral	False
128.497	0.3	Control	1.0	0.002	Yes	2.984	-0.002	4.0	GoodResponse	0	0.233	n/a	3	12	ButtonPress	Neutral	False
128.547	0.42	Control	1.0	n/a	Yes	2.984	n/a	n/a	GoodResponse	0	n/a	n/a	3	12	Blank	Neutral	False
128.964	1.45	Control	1.0	n/a	Yes	2.984	n/a	5.0	GoodResponse	0	0.038	128.002	3	12	Feedback	Neutral	False
130.413	2.984	Control	1.0	n/a	Yes	2.984	n/a	n/a	GoodResponse	0	0.0	n/a	3	12	ISIslide	Neutral	False
133.412	0.25	Control	1.0	0.001	Yes	2.788	0.012	n/a	GoodResponse	0	n/a	n/a	3	13	Cue	Neutral	False
133.662	4.0	Control	1.0	0.0	Yes	2.788	0.0	4.0	GoodResponse	0	0.101	132.763	3	13	Fixation	Neutral	False
133.763	0.3	Control	1.0	0.0	Yes	2.788	0.0	4.0	GoodResponse	0	0.101	n/a	3	13	ButtonPress	Neutral	False
137.661	0.27	Control	1.0	0.001	Yes	2.788	-0.001	4.0	GoodResponse	0	0.226	136.887	3	13	Target	Neutral	False
137.887	0.3	Control	1.0	0.001	Yes	2.788	-0.001	4.0	GoodResponse	0	0.226	n/a	3	13	ButtonPress	Neutral	False
137.928	0.43	Control	1.0	n/a	Yes	2.788	n/a	n/a	GoodResponse	0	n/a	n/a	3	13	Blank	Neutral	False
138.361	1.45	Control	1.0	n/a	Yes	2.788	n/a	5.0	GoodResponse	0	0.007	137.368	3	13	Feedback	Neutral	False
139.81	2.788	Control	1.0	n/a	Yes	2.788	n/a	n/a	GoodResponse	0	0.0	n/a	3	13	ISIslide	Neutral	False
142.626	0.25	Win2	1.0	0.0	Yes	2.674	0.026	n/a	GoodResponse	1	n/a	n/a	4	14	Cue	Win	False
142.876	4.1	Win2	1.0	0.0	Yes	2.674	0.0	4.0	GoodResponse	1	0.094	141.97	4	14	Fixation	Win	False
142.97	0.3	Win2	1.0	0.0	Yes	2.674	0.0	4.0	GoodResponse	1	0.094	n/a	4	14	ButtonPress	Win	False
146.974	0.26	Win2	1.0	0.002	Yes	2.674	-0.002	4.0	GoodResponse	1	0.21	146.184	4	14	Target	Win	False
147.184	0.3	Win2	1.0	0.002	Yes	2.674	-0.002	4.0	GoodResponse	1	0.21	n/a	4	14	ButtonPress	Win	False
147.241	0.44	Win2	1.0	n/a	Yes	2.674	n/a	n/a	GoodResponse	1	n/a	n/a	4	14	Blank	Win	False
147.674	1.45	Win2	1.0	n/a	Yes	2.674	n/a	5.0	GoodResponse	1	0.011	146.685	4	14	Feedback	Win	False
149.124	2.674	Win2	1.0	n/a	Yes	2.674	n/a	n/a	GoodResponse	1	0.0	n/a	4	14	ISIslide	Win	False
151.823	0.25	Control	1.0	0.0	Yes	2.977	0.023	n/a	GoodResponse	0	n/a	n/a	4	15	Cue	Neutral	True
152.073	4.0	Control	1.0	0.0	Yes	2.977	0.0	n/a	GoodResponse	0	n/a	n/a	4	15	Fixation	Neutral	True
156.071	0.25	Control	1.0	0.002	Yes	2.977	-0.002	4.0	GoodResponse	0	0.2	155.271	4	15	Target	Neutral	True
156.271	0.3	Control	1.0	0.002	Yes	2.977	-0.002	4.0	GoodResponse	0	0.2	n/a	4	15	ButtonPress	Neutral	True
156.321	0.45	Control	1.0	n/a	Yes	2.977	n/a	n/a	GoodResponse	0	n/a	n/a	4	15	Blank	Neutral	True
156.771	1.45	Control	1.0	n/a	Yes	2.977	n/a	5.0	GoodResponse	0	0.036	155.807	4	15	Feedback	Neutral	True
158.221	2.977	Control	1.0	n/a	Yes	2.977	n/a	n/a	GoodResponse	0	0.0	n/a	4	15	ISIslide	Neutral	True
161.22	0.25	Win2	1.0	0.0	Yes	2.88	0.02	n/a	GoodResponse	1	n/a	n/a	5	16	Cue	Win	True
161.469	4.0	Win2	1.0	0.001	Yes	2.88	-0.001	n/a	GoodResponse	1	n/a	n/a	5	16	Fixation	Win	True
165.468	0.24	Win2	1.0	0.002	Yes	2.88	-0.002	4.0	GoodResponse	1	0.216	164.684	5	16	Target	Win	True
165.684	0.3	Win2	1.0	0.002	Yes	2.88	-0.002	4.0	GoodResponse	1	0.216	n/a	5	16	ButtonPress	Win	True
165.718	0.46	Win2	1.0	n/a	Yes	2.88	n/a	n/a	GoodResponse	1	n/a	n/a	5	16	Blank	Win	True
166.168	1.45	Win2	1.0	n/a	Yes	2.88	n/a	5.0	GoodResponse	1	0.007	165.175	5	16	Feedback	Win	True
167.617	2.88	Win2	1.0	n/a	Yes	2.88	n/a	n/a	GoodResponse	1	0.0	n/a	5	16	ISIslide	Win	True
170.516	0.25	Lose2	0.9444	0.0	No	2.734	0.016	n/a	NoResponse	-1	n/a	n/a	4	17	Cue	Loss	True
170.766	3.95	Lose2	0.9444	0.0	No	2.734	0.0	n/a	NoResponse	-1	n/a	n/a	4	17	Fixation	Loss	True
174.715	0.23	Lose2	0.9444	0.001	No	2.734	-0.001	4.0	NoResponse	-1	0.269	173.984	4	17	Target	Loss	True
174.948	0.47	Lose2	0.9444	n/a	No	2.734	n/a	n/a	NoResponse	-1	n/a	n/a	4	17	Blank	Loss	True
174.984	0.3	Lose2	0.9444	0.001	No	2.734	-0.001	4.0	NoResponse	-1	0.269	n/a	4	17	ButtonPress	Loss	True
175.415	1.45	Lose2	0.9444	n/a	No	2.734	n/a	5.0	NoResponse	-1	0.026	174.441	4	17	Feedback	Loss	True
176.864	2.734	Lose2	0.9444	n/a	No	2.734	n/a	n/a	NoResponse	-1	0.0	n/a	4	17	ISIslide	Loss	True
179.63	0.25	Lose2	0.8946999999999999	0.0	No	2.72	0.03	n/a	LatePress	-1	n/a	n/a	3	18	Cue	Loss	True
179.88	4.05	Lose2	0.8946999999999999	0.0	No	2.72	0.0	n/a	LatePress	-1	n/a	n/a	3	18	Fixation	Loss	True
183.928	0.22	Lose2	0.8946999999999999	0.002	No	2.72	-0.002	4.0	LatePress	-1	0.222	183.15	3	18	Target	Loss	True
184.15	0.3	Lose2	0.8946999999999999	0.002	No	2.72	-0.002	4.0	LatePress	-1	0.222	n/a	3	18	ButtonPress	Loss	True
184.162	0.48	Lose2	0.8946999999999999	n/a	No	2.72	n/a	n/a	LatePress	-1	n/a	n/a	3	18	Blank	Loss	True
184.628	1.45	Lose2	0.8946999999999999	n/a	No	2.72	n/a	5.0	LatePress	-1	0.033	183.661	3	18	Feedback	Loss	True
186.078	2.72	Lose2	0.8946999999999999	n/a	No	2.72	n/a	n/a	LatePress	-1	0.0	n/a	3	18	ISIslide	Loss	True
188.827	0.25	Control	0.85	0.0	No	2.923	0.027	4.0	NoResponse	0	0.238	188.065	3	19	Cue	Neutral	False
189.065	0.3	Control	0.85	0.0	No	2.923	0.027	4.0	NoResponse	0	0.238	n/a	3	19	ButtonPress	Neutral	False
189.077	3.95	Control	0.85	0.0	No	2.923	0.0	n/a	NoResponse	0	n/a	n/a	3	19	Fixation	Neutral	False
193.025	0.21	Control	0.85	0.002	No	2.923	-0.002	4.0	NoResponse	0	0.345	192.37	3	19	Target	Neutral	False
193.242	0.49	Control	0.85	n/a	No	2.923	n/a	n/a	NoResponse	0	n/a	n/a	3	19	Blank	Neutral	False
193.37	0.3	Control	0.85	0.002	No	2.923	-0.002	4.0	NoResponse	0	0.345	n/a	3	19	ButtonPress	Neutral	False
193.725	1.45	Control	0.85	n/a	No	2.923	n/a	5.0	NoResponse	0	0.009	192.734	3	19	Feedback	Neutral	False
195.175	2.923	Control	0.85	n/a	No	2.923	n/a	n/a	NoResponse	0	0.0	n/a	3	19	ISIslide	Neutral	False
198.124	0.25	Control	0.8095	0.0	No	2.626	0.024	n/a	NoResponse	0	n/a	n/a	3	20	Cue	Neutral	True
198.373	4.05	Control	0.8095	0.001	No	2.626	-0.001	n/a	NoResponse	0	n/a	n/a	3	20	Fixation	Neutral	True
202.422	0.2	Control	0.8095	0.002	No	2.626	-0.002	4.0	NoResponse	0	0.366	201.788	3	20	Target	Neutral	True
202.622	0.5	Control	0.8095	n/a	No	2.626	n/a	n/a	NoResponse	0	n/a	n/a	3	20	Blank	Neutral	True
202.788	0.3	Control	0.8095	0.002	No	2.626	-0.002	4.0	NoResponse	0	0.366	n/a	3	20	ButtonPress	Neutral	True
203.122	1.45	Control	0.8095	n/a	No	2.626	n/a	5.0	NoResponse	0	0.026	202.148	3	20	Feedback	Neutral	True
204.571	2.626	Control	0.8095	n/a	No	2.626	n/a	n/a	NoResponse	0	0.0	n/a	3	20	ISIslide	Neutral	True
207.22	0.25	Control	0.7726999999999999	0.001	No	2.78	0.02	n/a	NoResponse	0	n/a	n/a	3	21	Cue	Neutral	False
207.47	4.1	Control	0.7726999999999999	0.0	No	2.78	0.0	4.0	NoResponse	0	0.017	206.487	3	21	Fixation	Neutral	False
207.487	0.3	Control	0.7726999999999999	0.0	No	2.78	0.0	4.0	NoResponse	0	0.017	n/a	3	21	ButtonPress	Neutral	False
211.569	0.19	Control	0.7726999999999999	0.001	No	2.78	-0.001	4.0	NoResponse	0	0.223	210.792	3	21	Target	Neutral	False
211.769	0.51	Control	0.7726999999999999	n/a	No	2.78	n/a	n/a	NoResponse	0	n/a	n/a	3	21	Blank	Neutral	False
211.792	0.3	Control	0.7726999999999999	0.001	No	2.78	-0.001	4.0	NoResponse	0	0.223	n/a	3	21	ButtonPress	Neutral	False
212.269	1.45	Control	0.7726999999999999	n/a	No	2.78	n/a	5.0	NoResponse	0	0.006	211.275	3	21	Feedback	Neutral	False
213.718	2.78	Control	0.7726999999999999	n/a	No	2.78	n/a	n/a	NoResponse	0	0.0	n/a	3	21	ISIslide	Neutral	False
216.517	0.25	Control	0.7391	0.0	No	2.783	0.017	4.0	NoResponse	0	0.213	215.73	3	22	Cue	Neutral	False
216.73	0.3	Control	0.7391	0.0	No	2.783	0.017	4.0	NoResponse	0	0.213	n/a	3	22	ButtonPress	Neutral	False
216.767	4.0	Control	0.7391	0.0	No	2.783	0.0	4.0	NoResponse	0	3.879	219.646	3	22	Fixation	Neutral	False
220.646	0.3	Control	0.7391	0.0	No	2.783	0.0	4.0	NoResponse	0	3.879	n/a	3	22	ButtonPress	Neutral	False
220.766	0.18	Control	0.7391	0.001	No	2.783	-0.001	n/a	NoResponse	0	n/a	n/a	3	22	Target	Neutral	False
220.949	0.52	Control	0.7391	n/a	No	2.783	n/a	n/a	NoResponse	0	n/a	n/a	3	22	Blank	Neutral	False
221.466	1.45	Control	0.7391	n/a	No	2.783	n/a	5.0	NoResponse	0	0.024	220.49	3	22	Feedback	Neutral	False
222.915	2.783	Control	0.7391	n/a	No	2.783	n/a	n/a	NoResponse	0	0.0	n/a	3	22	ISIslide	Neutral	False
225.714	0.25	Control	0.7082999999999999	0.0	No	2.786	0.014	4.0	NoResponse	0	0.221	224.935	3	23	Cue	Neutral	False
225.935	0.3	Control	0.7082999999999999	0.0	No	2.786	0.014	4.0	NoResponse	0	0.221	n/a	3	23	ButtonPress	Neutral	False
225.964	3.9	Control	0.7082999999999999	0.0	No	2.786	0.0	n/a	NoResponse	0	n/a	n/a	3	23	Fixation	Neutral	False
229.863	0.17	Control	0.7082999999999999	0.001	No	2.786	-0.001	4.0	NoResponse	0	0.196	229.059	3	23	Target	Neutral	False
230.046	0.53	Control	0.7082999999999999	n/a	No	2.786	n/a	n/a	NoResponse	0	n/a	n/a	3	23	Blank	Neutral	False
230.059	0.3	Control	0.7082999999999999	0.001	No	2.786	-0.001	4.0	NoResponse	0	0.196	n/a	3	23	ButtonPress	Neutral	False
230.562	1.45	Control	0.7082999999999999	n/a	No	2.786	n/a	5.0	NoResponse	0	0.001	229.563	3	23	Feedback	Neutral	False
232.012	2.786	Control	0.7082999999999999	n/a	No	2.786	n/a	n/a	NoResponse	0	0.0	n/a	3	23	ISIslide	Neutral	False
234.828	0.25	Win2	0.68	0.0	No	3.122	0.028	4.0	NoResponse	0	0.229	234.057	3	24	Cue	MissedWin	False
235.057	0.3	Win2	0.68	0.0	No	3.122	0.028	4.0	NoResponse	0	0.229	n/a	3	24	ButtonPress	MissedWin	False
235.078	3.95	Win2	0.68	0.0	No	3.122	0.0	n/a	NoResponse	0	n/a	n/a	3	24	Fixation	MissedWin	False
239.026	0.16	Win2	0.68	0.002	No	3.122	-0.002	4.0	NoResponse	0	0.319	238.345	3	24	Target	MissedWin	False
239.193	0.54	Win2	0.68	n/a	No	3.122	n/a	n/a	NoResponse	0	n/a	n/a	3	24	Blank	MissedWin	False
239.345	0.3	Win2	0.68	0.002	No	3.122	-0.002	4.0	NoResponse	0	0.319	n/a	3	24	ButtonPress	MissedWin	False
239.726	1.45	Win2	0.68	n/a	No	3.122	n/a	5.0	NoResponse	0	0.008	238.734	3	24	Feedback	MissedWin	False
241.175	3.122	Win2	0.68	n/a	No	3.122	n/a	n/a	NoResponse	0	0.0	n/a	3	24	ISIslide	MissedWin	False
244.324	0.25	Win2	0.6537999999999999	0.001	No	3.076	0.024	4.0	NoResponse	0	0.24	243.564	3	25	Cue	MissedWin	False
244.564	0.3	Win2	0.6537999999999999	0.001	No	3.076	0.024	4.0	NoResponse	0	0.24	n/a	3	25	ButtonPress	MissedWin	False
244.574	4.0	Win2	0.6537999999999999	0.0	No	3.076	0.0	n/a	NoResponse	0	n/a	n/a	3	25	Fixation	MissedWin	False
248.573	0.15	Win2	0.6537999999999999	0.001	No	3.076	-0.001	4.0	NoResponse	0	0.237	247.81	3	25	Target	MissedWin	False
248.723	0.55	Win2	0.6537999999999999	n/a	No	3.076	n/a	n/a	NoResponse	0	n/a	n/a	3	25	Blank	MissedWin	False
248.81	0.3	Win2	0.6537999999999999	0.001	No	3.076	-0.001	4.0	NoResponse	0	0.237	n/a	3	25	ButtonPress	MissedWin	False
249.273	1.45	Win2	0.6537999999999999	n/a	No	3.076	n/a	5.0	NoResponse	0	0.022	248.295	3	25	Feedback	MissedWin	False
250.722	3.076	Win2	0.6537999999999999	n/a	No	3.076	n/a	n/a	NoResponse	0	0.0	n/a	3	25	ISIslide	MissedWin	False
253.821	0.25	Win2	0.6296	0.0	No	2.929	0.021	n/a	NoResponse	0	n/a	n/a	3	26	Cue	MissedWin	False
254.071	3.95	Win2	0.6296	0.0	No	2.929	0.0	4.0	NoResponse	0	0.076	253.147	3	26	Fixation	MissedWin	False
254.147	0.3	Win2	0.6296	0.0	No	2.929	0.0	4.0	NoResponse	0	0.076	n/a	3	26	ButtonPress	MissedWin	False
258.02	0.16	Win2	0.6296	0.001	No	2.929	-0.001	4.0	NoResponse	0	0.203	257.223	3	26	Target	MissedWin	False
258.186	0.54	Win2	0.6296	n/a	No	2.929	n/a	n/a	NoResponse	0	n/a	n/a	3	26	Blank	MissedWin	False
258.223	0.3	Win2	0.6296	0.001	No	2.929	-0.001	4.0	NoResponse	0	0.203	n/a	3	26	ButtonPress	MissedWin	False
258.719	1.45	Win2	0.6296	n/a	No	2.929	n/a	5.0	NoResponse	0	0.04	257.759	3	26	Feedback	MissedWin	False
260.169	2.929	Win2	0.6296	n/a	No	2.929	n/a	n/a	NoResponse	0	0.0	n/a	3	26	ISIslide	MissedWin	False
263.118	0.25	Lose2	0.6071	0.0	No	2.832	0.018	n/a	NoResponse	-1	n/a	n/a	2	27	Cue	Loss	False
263.368	4.05	Lose2	0.6071	0.0	No	2.832	0.0	4.0	NoResponse	-1	0.021	262.389	2	27	Fixation	Loss	False
263.389	0.3	Lose2	0.6071	0.0	No	2.832	0.0	4.0	NoResponse	-1	0.021	n/a	2	27	ButtonPress	Loss	False
267.417	0.17	Lose2	0.6071	0.001	No	2.832	-0.001	4.0	NoResponse	-1	0.239	266.656	2	27	Target	Loss	False
267.6	0.53	Lose2	0.6071	n/a	No	2.832	n/a	n/a	NoResponse	-1	n/a	n/a	2	27	Blank	Loss	False
267.656	0.3	Lose2	0.6071	0.001	No	2.832	-0.001	4.0	NoResponse	-1	0.239	n/a	2	27	ButtonPress	Loss	False
268.116	1.45	Lose2	0.6071	n/a	No	2.832	n/a	5.0	NoResponse	-1	0.009	267.125	2	27	Feedback	Loss	False
269.566	2.832	Lose2	0.6071	n/a	No	2.832	n/a	n/a	NoResponse	-1	0.0	n/a	2	27	ISIslide	Loss	False
272.415	0.25	Control	0.5861999999999999	0.0	No	2.835	0.015	4.0	NoResponse	0	0.238	271.653	2	28	Cue	Neutral	False
272.653	0.3	Control	0.5861999999999999	0.0	No	2.835	0.015	4.0	NoResponse	0	0.238	n/a	2	28	ButtonPress	Neutral	False
272.665	4.05	Control	0.5861999999999999	0.0	No	2.835	0.0	n/a	NoResponse	0	n/a	n/a	2	28	Fixation	Neutral	False
276.713	0.18	Control	0.5861999999999999	0.002	No	2.835	-0.002	4.0	NoResponse	0	0.267	275.98	2	28	Target	Neutral	False
276.897	0.52	Control	0.5861999999999999	n/a	No	2.835	n/a	n/a	NoResponse	0	n/a	n/a	2	28	Blank	Neutral	False
276.98	0.3	Control	0.5861999999999999	0.002	No	2.835	-0.002	4.0	NoResponse	0	0.267	n/a	2	28	ButtonPress	Neutral	False
277.413	1.45	Control	0.5861999999999999	n/a	No	2.835	n/a	5.0	NoResponse	0	0.028	276.441	2	28	Feedback	Neutral	False
278.863	2.835	Control	0.5861999999999999	n/a	No	2.835	n/a	n/a	NoResponse	0	0.0	n/a	2	28	ISIslide	Neutral	False
281.728	0.25	Lose2	0.5667	0.0	No	2.822	0.028	n/a	LatePress	-1	n/a	n/a	1	29	Cue	Loss	False
281.978	3.95	Lose2	0.5667	0.0	No	2.822	0.0	4.0	LatePress	-1	0.044	281.022	1	29	Fixation	Loss	False
282.022	0.3	Lose2	0.5667	0.0	No	2.822	0.0	4.0	LatePress	-1	0.044	n/a	1	29	ButtonPress	Loss	False
285.927	0.19	Lose2	0.5667	0.001	No	2.822	-0.001	4.0	LatePress	-1	0.195	285.122	1	29	Target	Loss	False
286.122	0.3	Lose2	0.5667	0.001	No	2.822	-0.001	4.0	LatePress	-1	0.195	n/a	1	29	ButtonPress	Loss	False
286.127	0.51	Lose2	0.5667	n/a	No	2.822	n/a	n/a	LatePress	-1	n/a	n/a	1	29	Blank	Loss	False
286.627	1.45	Lose2	0.5667	n/a	No	2.822	n/a	5.0	LatePress	-1	0.033	285.66	1	29	Feedback	Loss	False
288.076	2.822	Lose2	0.5667	n/a	No	2.822	n/a	n/a	LatePress	-1	0.0	n/a	1	29	ISIslide	Loss	False
290.925	0.25	Win2	0.5484	0.0	No	2.775	0.025	n/a	NoResponse	0	n/a	n/a	1	30	Cue	MissedWin	True
291.175	3.9	Win2	0.5484	0.0	No	2.775	0.0	n/a	NoResponse	0	n/a	n/a	1	30	Fixation	MissedWin	True
295.074	0.2	Win2	0.5484	0.001	No	2.775	-0.001	4.0	NoResponse	0	0.304	294.378	1	30	Target	MissedWin	True
295.274	0.5	Win2	0.5484	n/a	No	2.775	n/a	n/a	NoResponse	0	n/a	n/a	1	30	Blank	MissedWin	True
295.378	0.3	Win2	0.5484	0.001	No	2.775	-0.001	4.0	NoResponse	0	0.304	n/a	1	30	ButtonPress	MissedWin	True
295.773	1.45	Win2	0.5484	n/a	No	2.775	n/a	5.0	NoResponse	0	0.009	294.782	1	30	Feedback	MissedWin	True
297.223	2.775	Win2	0.5484	n/a	No	2.775	n/a	n/a	NoResponse	0	0.0	n/a	1	30	ISIslide	MissedWin	True
300.022	0.25	Lose2	0.5312	0.0	No	2.828	0.022	n/a	NoResponse	-1	n/a	n/a	0	31	Cue	Loss	True
300.272	4.05	Lose2	0.5312	0.0	No	2.828	0.0	4.0	NoResponse	-1	3.868	303.14	0	31	Fixation	Loss	True
304.14	0.3	Lose2	0.5312	0.0	No	2.828	0.0	4.0	NoResponse	-1	3.868	n/a	0	31	ButtonPress	Loss	True
304.321	0.21	Lose2	0.5312	0.001	No	2.828	-0.001	n/a	NoResponse	-1	n/a	n/a	0	31	Target	Loss	True
304.537	0.49	Lose2	0.5312	n/a	No	2.828	n/a	n/a	NoResponse	-1	n/a	n/a	0	31	Blank	Loss	True
305.02	1.45	Lose2	0.5312	n/a	No	2.828	n/a	5.0	NoResponse	-1	0.031	304.051	0	31	Feedback	Loss	True
306.47	2.828	Lose2	0.5312	n/a	No	2.828	n/a	n/a	NoResponse	-1	0.0	n/a	0	31	ISIslide	Loss	True
309.319	0.25	Lose2	0.5152	0.0	No	2.631	0.019	n/a	LatePress	-1	n/a	n/a	-1	32	Cue	Loss	True
309.569	4.15	Lose2	0.5152	0.0	No	2.631	0.0	n/a	LatePress	-1	n/a	n/a	-1	32	Fixation	Loss	True
313.717	0.22	Lose2	0.5152	0.002	No	2.631	-0.002	4.0	LatePress	-1	0.233	312.95	-1	32	Target	Loss	True
313.95	0.3	Lose2	0.5152	0.002	No	2.631	-0.002	4.0	LatePress	-1	0.233	n/a	-1	32	ButtonPress	Loss	True
313.951	0.48	Lose2	0.5152	n/a	No	2.631	n/a	n/a	LatePress	-1	n/a	n/a	-1	32	Blank	Loss	True
314.417	1.45	Lose2	0.5152	n/a	No	2.631	n/a	5.0	LatePress	-1	0.049	313.466	-1	32	Feedback	Loss	True
315.867	2.631	Lose2	0.5152	n/a	No	2.631	n/a	n/a	LatePress	-1	0.0	n/a	-1	32	ISIslide	Loss	True
318.516	0.25	Win2	0.5294	0.0	Yes	2.684	0.016	n/a	GoodResponse	1	n/a	n/a	0	33	Cue	Win	True
318.766	4.0	Win2	0.5294	0.0	Yes	2.684	0.0	n/a	GoodResponse	1	n/a	n/a	0	33	Fixation	Win	True
322.764	0.23	Win2	0.5294	0.002	Yes	2.684	-0.002	4.0	GoodResponse	1	0.228	321.992	0	33	Target	Win	True
322.992	0.3	Win2	0.5294	0.002	Yes	2.684	-0.002	4.0	GoodResponse	1	0.228	n/a	0	33	ButtonPress	Win	True
322.997	0.47	Win2	0.5294	n/a	Yes	2.684	n/a	n/a	GoodResponse	1	n/a	n/a	0	33	Blank	Win	True
323.464	1.45	Win2	0.5294	n/a	Yes	2.684	n/a	5.0	GoodResponse	1	0.026	322.49	0	33	Feedback	Win	True
324.913	2.684	Win2	0.5294	n/a	Yes	2.684	n/a	n/a	GoodResponse	1	0.0	n/a	0	33	ISIslide	Win	True
327.629	0.25	Lose2	0.5428999999999999	0.0	Yes	2.621	0.029	n/a	GoodResponse	0	n/a	n/a	0	34	Cue	AvoidedLoss	True
327.879	4.05	Lose2	0.5428999999999999	0.0	Yes	2.621	0.0	n/a	GoodResponse	0	n/a	n/a	0	34	Fixation	AvoidedLoss	True
331.928	0.24	Lose2	0.5428999999999999	0.001	Yes	2.621	-0.001	4.0	GoodResponse	0	0.211	331.139	0	34	Target	AvoidedLoss	True
332.139	0.3	Lose2	0.5428999999999999	0.001	Yes	2.621	-0.001	4.0	GoodResponse	0	0.211	n/a	0	34	ButtonPress	AvoidedLoss	True
332.178	0.46	Lose2	0.5428999999999999	n/a	Yes	2.621	n/a	n/a	GoodResponse	0	n/a	n/a	0	34	Blank	AvoidedLoss	True
332.628	1.45	Lose2	0.5428999999999999	n/a	Yes	2.621	n/a	5.0	GoodResponse	0	0.033	331.661	0	34	Feedback	AvoidedLoss	True
334.077	2.621	Lose2	0.5428999999999999	n/a	Yes	2.621	n/a	n/a	GoodResponse	0	0.0	n/a	0	34	ISIslide	AvoidedLoss	True
336.726	0.25	Lose2	0.5556	0.0	Yes	2.674	0.026	4.0	GoodResponse	0	0.236	335.962	0	35	Cue	AvoidedLoss	False
336.962	0.3	Lose2	0.5556	0.0	Yes	2.674	0.026	4.0	GoodResponse	0	0.236	n/a	0	35	ButtonPress	AvoidedLoss	False
336.976	4.0	Lose2	0.5556	0.0	Yes	2.674	0.0	n/a	GoodResponse	0	n/a	n/a	0	35	Fixation	AvoidedLoss	False
340.975	0.25	Lose2	0.5556	0.001	Yes	2.674	-0.001	4.0	GoodResponse	0	0.193	340.168	0	35	Target	AvoidedLoss	False
341.168	0.3	Lose2	0.5556	0.001	Yes	2.674	-0.001	4.0	GoodResponse	0	0.193	n/a	0	35	ButtonPress	AvoidedLoss	False
341.225	0.45	Lose2	0.5556	n/a	Yes	2.674	n/a	n/a	GoodResponse	0	n/a	n/a	0	35	Blank	AvoidedLoss	False
341.674	1.45	Lose2	0.5556	n/a	Yes	2.674	n/a	5.0	GoodResponse	0	0.011	340.685	0	35	Feedback	AvoidedLoss	False
343.124	2.674	Lose2	0.5556	n/a	Yes	2.674	n/a	n/a	GoodResponse	0	0.0	n/a	0	35	ISIslide	AvoidedLoss	False
345.823	0.25	Control	0.5405	0.0	No	2.677	0.023	n/a	NoResponse	0	n/a	n/a	0	36	Cue	Neutral	False
346.073	4.0	Control	0.5405	0.0	No	2.677	0.0	4.0	NoResponse	0	0.056	345.129	0	36	Fixation	Neutral	False
346.129	0.3	Control	0.5405	0.0	No	2.677	0.0	4.0	NoResponse	0	0.056	n/a	0	36	ButtonPress	Neutral	False
350.072	0.26	Control	0.5405	0.001	No	2.677	-0.001	4.0	NoResponse	0	0.275	349.347	0	36	Target	Neutral	False
350.338	0.44	Control	0.5405	n/a	No	2.677	n/a	n/a	NoResponse	0	n/a	n/a	0	36	Blank	Neutral	False
350.347	0.3	Control	0.5405	0.001	No	2.677	-0.001	4.0	NoResponse	0	0.275	n/a	0	36	ButtonPress	Neutral	False
350.771	1.45	Control	0.5405	n/a	No	2.677	n/a	5.0	NoResponse	0	0.036	349.807	0	36	Feedback	Neutral	False
352.221	2.677	Control	0.5405	n/a	No	2.677	n/a	n/a	NoResponse	0	0.0	n/a	0	36	ISIslide	Neutral	False
354.92	0.25	Win2	0.5526	0.0	Yes	2.88	0.02	n/a	GoodResponse	1	n/a	n/a	1	37	Cue	Win	True
355.17	4.0	Win2	0.5526	0.0	Yes	2.88	0.0	n/a	GoodResponse	1	n/a	n/a	1	37	Fixation	Win	True
359.168	0.27	Win2	0.5526	0.002	Yes	2.88	-0.002	4.0	GoodResponse	1	0.216	358.384	1	37	Target	Win	True
359.384	0.3	Win2	0.5526	0.002	Yes	2.88	-0.002	4.0	GoodResponse	1	0.216	n/a	1	37	ButtonPress	Win	True
359.452	0.43	Win2	0.5526	n/a	Yes	2.88	n/a	n/a	GoodResponse	1	n/a	n/a	1	37	Blank	Win	True
359.868	1.45	Win2	0.5526	n/a	Yes	2.88	n/a	5.0	GoodResponse	1	0.012	358.88	1	37	Feedback	Win	True
361.318	2.88	Win2	0.5526	n/a	Yes	2.88	n/a	n/a	GoodResponse	1	0.0	n/a	1	37	ISIslide	Win	True
364.217	0.25	Lose2	0.5640999999999999	0.0	Yes	2.833	0.017	n/a	GoodResponse	0	n/a	n/a	1	38	Cue	AvoidedLoss	True
364.467	3.95	Lose2	0.5640999999999999	0.0	Yes	2.833	0.0	n/a	GoodResponse	0	n/a	n/a	1	38	Fixation	AvoidedLoss	True
368.415	0.28	Lose2	0.5640999999999999	0.002	Yes	2.833	-0.002	4.0	GoodResponse	0	0.209	367.624	1	38	Target	AvoidedLoss	True
368.624	0.3	Lose2	0.5640999999999999	0.002	Yes	2.833	-0.002	4.0	GoodResponse	0	0.209	n/a	1	38	ButtonPress	AvoidedLoss	True
368.698	0.42	Lose2	0.5640999999999999	n/a	Yes	2.833	n/a	n/a	GoodResponse	0	n/a	n/a	1	38	Blank	AvoidedLoss	True
369.115	1.45	Lose2	0.5640999999999999	n/a	Yes	2.833	n/a	5.0	GoodResponse	0	0.033	368.148	1	38	Feedback	AvoidedLoss	True
370.565	2.833	Lose2	0.5640999999999999	n/a	Yes	2.833	n/a	n/a	GoodResponse	0	0.0	n/a	1	38	ISIslide	AvoidedLoss	True
373.414	0.25	Win2	0.575	0.0	Yes	2.986	0.014	n/a	GoodResponse	1	n/a	n/a	2	39	Cue	Win	True
373.663	4.1	Win2	0.575	0.001	Yes	2.986	-0.001	n/a	GoodResponse	1	n/a	n/a	2	39	Fixation	Win	True
377.762	0.29	Win2	0.575	0.002	Yes	2.986	-0.002	4.0	GoodResponse	1	0.245	377.007	2	39	Target	Win	True
378.007	0.3	Win2	0.575	0.002	Yes	2.986	-0.002	4.0	GoodResponse	1	0.245	n/a	2	39	ButtonPress	Win	True
378.062	0.41	Win2	0.575	n/a	Yes	2.986	n/a	n/a	GoodResponse	1	n/a	n/a	2	39	Blank	Win	True
378.462	1.45	Win2	0.575	n/a	Yes	2.986	n/a	5.0	GoodResponse	1	0.007	377.469	2	39	Feedback	Win	True
379.911	2.986	Win2	0.575	n/a	Yes	2.986	n/a	n/a	GoodResponse	1	0.0	n/a	2	39	ISIslide	Win	True
382.927	0.25	Win2	0.5854	0.0	Yes	2.723	0.027	n/a	GoodResponse	1	n/a	n/a	3	40	Cue	Win	True
383.177	3.95	Win2	0.5854	0.0	Yes	2.723	0.0	n/a	GoodResponse	1	n/a	n/a	3	40	Fixation	Win	True
387.126	0.3	Win2	0.5854	0.001	Yes	2.723	-0.001	4.0	GoodResponse	1	0.217	386.343	3	40	Target	Win	True
387.343	0.3	Win2	0.5854	0.001	Yes	2.723	-0.001	4.0	GoodResponse	1	0.217	n/a	3	40	ButtonPress	Win	True
387.425	0.4	Win2	0.5854	n/a	Yes	2.723	n/a	n/a	GoodResponse	1	n/a	n/a	3	40	Blank	Win	True
387.825	1.45	Win2	0.5854	n/a	Yes	2.723	n/a	5.0	GoodResponse	1	0.007	386.832	3	40	Feedback	Win	True
389.275	2.723	Win2	0.5854	n/a	Yes	2.723	n/a	n/a	GoodResponse	1	0.0	n/a	3	40	ISIslide	Win	True
392.024	0.25	Win2	0.5952000000000001	0.0	Yes	2.776	0.024	n/a	GoodResponse	1	n/a	n/a	4	41	Cue	Win	True
392.274	3.9	Win2	0.5952000000000001	0.0	Yes	2.776	0.0	n/a	GoodResponse	1	n/a	n/a	4	41	Fixation	Win	True
396.172	0.31	Win2	0.5952000000000001	0.002	Yes	2.776	-0.002	4.0	GoodResponse	1	0.231	395.403	4	41	Target	Win	True
396.403	0.3	Win2	0.5952000000000001	0.002	Yes	2.776	-0.002	4.0	GoodResponse	1	0.231	n/a	4	41	ButtonPress	Win	True
396.489	0.39	Win2	0.5952000000000001	n/a	Yes	2.776	n/a	n/a	GoodResponse	1	n/a	n/a	4	41	Blank	Win	True
396.872	1.45	Win2	0.5952000000000001	n/a	Yes	2.776	n/a	5.0	GoodResponse	1	0.033	395.905	4	41	Feedback	Win	True
398.322	2.776	Win2	0.5952000000000001	n/a	Yes	2.776	n/a	n/a	GoodResponse	1	0.0	n/a	4	41	ISIslide	Win	True
401.121	0.25	Control	0.6047	0.0	Yes	2.929	0.021	n/a	GoodResponse	0	n/a	n/a	4	42	Cue	Neutral	True
401.371	3.85	Control	0.6047	0.0	Yes	2.929	0.0	n/a	GoodResponse	0	n/a	n/a	4	42	Fixation	Neutral	True
405.219	0.32	Control	0.6047	0.002	Yes	2.929	-0.002	4.0	GoodResponse	0	0.216	404.435	4	42	Target	Neutral	True
405.435	0.3	Control	0.6047	0.002	Yes	2.929	-0.002	4.0	GoodResponse	0	0.216	n/a	4	42	ButtonPress	Neutral	True
405.553	0.38	Control	0.6047	n/a	Yes	2.929	n/a	n/a	GoodResponse	0	n/a	n/a	4	42	Blank	Neutral	True
405.919	1.45	Control	0.6047	n/a	Yes	2.929	n/a	5.0	GoodResponse	0	0.01	404.929	4	42	Feedback	Neutral	True
407.369	2.929	Control	0.6047	n/a	Yes	2.929	n/a	n/a	GoodResponse	0	0.0	n/a	4	42	ISIslide	Neutral	True
410.318	0.25	Win2	0.6136	0.0	Yes	3.182	0.018	n/a	GoodResponse	1	n/a	n/a	5	43	Cue	Win	True
410.567	4.0	Win2	0.6136	0.001	Yes	3.182	-0.001	n/a	GoodResponse	1	n/a	n/a	5	43	Fixation	Win	True
414.566	0.33	Win2	0.6136	0.002	Yes	3.182	-0.002	4.0	GoodResponse	1	0.219	413.785	5	43	Target	Win	True
414.785	0.3	Win2	0.6136	0.002	Yes	3.182	-0.002	4.0	GoodResponse	1	0.219	n/a	5	43	ButtonPress	Win	True
414.899	0.37	Win2	0.6136	n/a	Yes	3.182	n/a	n/a	GoodResponse	1	n/a	n/a	5	43	Blank	Win	True
415.266	1.45	Win2	0.6136	n/a	Yes	3.182	n/a	5.0	GoodResponse	1	0.029	414.295	5	43	Feedback	Win	True
416.715	3.182	Win2	0.6136	n/a	Yes	3.182	n/a	n/a	GoodResponse	1	0.0	n/a	5	43	ISIslide	Win	True
419.914	0.25	Win2	0.6	0.0	No	2.986	0.014	n/a	PrematurePress	0	n/a	n/a	5	44	Cue	MissedWin	True
420.164	4.0	Win2	0.6	0.0	No	2.986	0.0	n/a	PrematurePress	0	n/a	n/a	5	44	Fixation	MissedWin	True
424.163	0.34	Win2	0.6	0.001	No	2.986	-0.001	4.0	PrematurePress	0	0.059	423.222	5	44	Target	MissedWin	True
424.222	0.3	Win2	0.6	0.001	No	2.986	-0.001	4.0	PrematurePress	0	0.059	n/a	5	44	ButtonPress	MissedWin	True
424.513	0.36	Win2	0.6	n/a	No	2.986	n/a	n/a	PrematurePress	0	n/a	n/a	5	44	Blank	MissedWin	True
424.863	1.45	Win2	0.6	n/a	No	2.986	n/a	5.0	PrematurePress	0	0.041	423.904	5	44	Feedback	MissedWin	True
426.312	2.986	Win2	0.6	n/a	No	2.986	n/a	n/a	PrematurePress	0	0.0	n/a	5	44	ISIslide	MissedWin	True
429.328	0.25	Control	0.6087	0.0	Yes	2.872	0.028	n/a	GoodResponse	0	n/a	n/a	5	45	Cue	Neutral	True
429.578	4.1	Control	0.6087	0.0	Yes	2.872	0.0	n/a	GoodResponse	0	n/a	n/a	5	45	Fixation	Neutral	True
433.676	0.35	Control	0.6087	0.002	Yes	2.872	-0.002	4.0	GoodResponse	0	0.215	432.891	5	45	Target	Neutral	True
433.891	0.3	Control	0.6087	0.002	Yes	2.872	-0.002	4.0	GoodResponse	0	0.215	n/a	5	45	ButtonPress	Neutral	True
434.026	0.35	Control	0.6087	n/a	Yes	2.872	n/a	n/a	GoodResponse	0	n/a	n/a	5	45	Blank	Neutral	True
434.376	1.45	Control	0.6087	n/a	Yes	2.872	n/a	5.0	GoodResponse	0	0.04	433.416	5	45	Feedback	Neutral	True
435.826	2.872	Control	0.6087	n/a	Yes	2.872	n/a	n/a	GoodResponse	0	0.0	n/a	5	45	ISIslide	Neutral	True
438.725	0.25	Lose2	0.617	0.0	Yes	3.375	0.025	n/a	GoodResponse	0	n/a	n/a	5	46	Cue	AvoidedLoss	True
438.974	4.0	Lose2	0.617	0.001	Yes	3.375	-0.001	n/a	GoodResponse	0	n/a	n/a	5	46	Fixation	AvoidedLoss	True
442.973	0.36	Lose2	0.617	0.002	Yes	3.375	-0.002	4.0	GoodResponse	0	0.199	442.172	5	46	Target	AvoidedLoss	True
443.172	0.3	Lose2	0.617	0.002	Yes	3.375	-0.002	4.0	GoodResponse	0	0.199	n/a	5	46	ButtonPress	AvoidedLoss	True
443.34	0.34	Lose2	0.617	n/a	Yes	3.375	n/a	n/a	GoodResponse	0	n/a	n/a	5	46	Blank	AvoidedLoss	True
443.673	1.45	Lose2	0.617	n/a	Yes	3.375	n/a	5.0	GoodResponse	0	0.012	442.685	5	46	Feedback	AvoidedLoss	True
445.122	3.375	Lose2	0.617	n/a	Yes	3.375	n/a	n/a	GoodResponse	0	0.0	n/a	5	46	ISIslide	AvoidedLoss	True
448.521	0.25	Lose2	0.625	0.0	Yes	2.679	0.021	n/a	GoodResponse	0	n/a	n/a	5	47	Cue	AvoidedLoss	True
448.771	4.0	Lose2	0.625	0.0	Yes	2.679	0.0	n/a	GoodResponse	0	n/a	n/a	5	47	Fixation	AvoidedLoss	True
452.77	0.37	Lose2	0.625	0.001	Yes	2.679	-0.001	4.0	GoodResponse	0	0.188	451.958	5	47	Target	AvoidedLoss	True
452.958	0.3	Lose2	0.625	0.001	Yes	2.679	-0.001	4.0	GoodResponse	0	0.188	n/a	5	47	ButtonPress	AvoidedLoss	True
453.153	0.33	Lose2	0.625	n/a	Yes	2.679	n/a	n/a	GoodResponse	0	n/a	n/a	5	47	Blank	AvoidedLoss	True
453.469	1.45	Lose2	0.625	n/a	Yes	2.679	n/a	5.0	GoodResponse	0	0.021	452.49	5	47	Feedback	AvoidedLoss	True
454.919	2.679	Lose2	0.625	n/a	Yes	2.679	n/a	n/a	GoodResponse	0	0.0	n/a	5	47	ISIslide	AvoidedLoss	True
457.618	0.25	Lose2	0.6327	0.0	Yes	3.032	0.018	n/a	GoodResponse	0	n/a	n/a	5	48	Cue	AvoidedLoss	True
457.868	3.95	Lose2	0.6327	0.0	Yes	3.032	0.0	n/a	GoodResponse	0	n/a	n/a	5	48	Fixation	AvoidedLoss	True
461.817	0.38	Lose2	0.6327	0.001	Yes	3.032	-0.001	4.0	GoodResponse	0	0.25	461.067	5	48	Target	AvoidedLoss	True
462.067	0.3	Lose2	0.6327	0.001	Yes	3.032	-0.001	4.0	GoodResponse	0	0.25	n/a	5	48	ButtonPress	AvoidedLoss	True
462.2	0.32	Lose2	0.6327	n/a	Yes	3.032	n/a	n/a	GoodResponse	0	n/a	n/a	5	48	Blank	AvoidedLoss	True
462.516	1.45	Lose2	0.6327	n/a	Yes	3.032	n/a	5.0	GoodResponse	0	0.047	461.563	5	48	Feedback	AvoidedLoss	True
463.966	3.032	Lose2	0.6327	n/a	Yes	3.032	n/a	n/a	GoodResponse	0	0.0	n/a	5	48	ISIslide	AvoidedLoss	True
467.015	0.25	Control	0.64	0.0	Yes	2.885	0.015	4.0	GoodResponse	0	0.244	466.259	5	49	Cue	Neutral	False
467.259	0.3	Control	0.64	0.0	Yes	2.885	0.015	4.0	GoodResponse	0	0.244	n/a	5	49	ButtonPress	Neutral	False
467.265	4.0	Control	0.64	0.0	Yes	2.885	0.0	n/a	GoodResponse	0	n/a	n/a	5	49	Fixation	Neutral	False
471.263	0.39	Control	0.64	0.002	Yes	2.885	-0.002	4.0	GoodResponse	0	0.222	470.485	5	49	Target	Neutral	False
471.485	0.3	Control	0.64	0.002	Yes	2.885	-0.002	4.0	GoodResponse	0	0.222	n/a	5	49	ButtonPress	Neutral	False
471.663	0.31	Control	0.64	n/a	Yes	2.885	n/a	n/a	GoodResponse	0	n/a	n/a	5	49	Blank	Neutral	False
471.963	1.45	Control	0.64	n/a	Yes	2.885	n/a	5.0	GoodResponse	0	0.015	470.978	5	49	Feedback	Neutral	False
473.413	2.885	Control	0.64	n/a	Yes	2.885	n/a	n/a	GoodResponse	0	0.0	n/a	5	49	ISIslide	Neutral	False
476.328	0.25	Control	0.6470999999999999	0.0	Yes	2.772	0.028	n/a	GoodResponse	0	n/a	n/a	5	50	Cue	Neutral	True
476.578	4.0	Control	0.6470999999999999	0.0	Yes	2.772	0.0	n/a	GoodResponse	0	n/a	n/a	5	50	Fixation	Neutral	True
480.577	0.4	Control	0.6470999999999999	0.001	Yes	2.772	-0.001	4.0	GoodResponse	0	0.186	479.763	5	50	Target	Neutral	True
480.763	0.3	Control	0.6470999999999999	0.001	Yes	2.772	-0.001	4.0	GoodResponse	0	0.186	n/a	5	50	ButtonPress	Neutral	True
480.977	0.3	Control	0.6470999999999999	n/a	Yes	2.772	n/a	n/a	GoodResponse	0	n/a	n/a	5	50	Blank	Neutral	True
481.277	1.45	Control	0.6470999999999999	n/a	Yes	2.772	n/a	5.0	GoodResponse	0	0.018	480.295	5	50	Feedback	Neutral	True
482.726	2.772	Control	0.6470999999999999	n/a	Yes	2.772	n/a	n/a	GoodResponse	0	0.0	n/a	5	50	ISIslide	Neutral	True
485.525	0.25	Control	0.6537999999999999	0.0	Yes	2.725	0.025	4.0	GoodResponse	0	0.233	484.758	5	51	Cue	Neutral	False
485.758	0.3	Control	0.6537999999999999	0.0	Yes	2.725	0.025	4.0	GoodResponse	0	0.233	n/a	5	51	ButtonPress	Neutral	False
485.775	3.95	Control	0.6537999999999999	0.0	Yes	2.725	0.0	n/a	GoodResponse	0	n/a	n/a	5	51	Fixation	Neutral	False
489.724	0.41	Control	0.6537999999999999	0.001	Yes	2.725	-0.001	4.0	GoodResponse	0	0.255	488.979	5	51	Target	Neutral	False
489.979	0.3	Control	0.6537999999999999	0.001	Yes	2.725	-0.001	4.0	GoodResponse	0	0.255	n/a	5	51	ButtonPress	Neutral	False
490.14	0.29	Control	0.6537999999999999	n/a	Yes	2.725	n/a	n/a	GoodResponse	0	n/a	n/a	5	51	Blank	Neutral	False
490.423	1.45	Control	0.6537999999999999	n/a	Yes	2.725	n/a	5.0	GoodResponse	0	0.043	489.466	5	51	Feedback	Neutral	False
491.873	2.725	Control	0.6537999999999999	n/a	Yes	2.725	n/a	n/a	GoodResponse	0	0.0	n/a	5	51	ISIslide	Neutral	False
494.622	0.25	Control	0.6604000000000001	0.0	Yes	2.628	0.022	n/a	GoodResponse	0	n/a	n/a	5	52	Cue	Neutral	False
494.872	4.05	Control	0.6604000000000001	0.0	Yes	2.628	0.0	4.0	GoodResponse	0	0.049	493.921	5	52	Fixation	Neutral	False
494.921	0.3	Control	0.6604000000000001	0.0	Yes	2.628	0.0	4.0	GoodResponse	0	0.049	n/a	5	52	ButtonPress	Neutral	False
498.921	0.42	Control	0.6604000000000001	0.001	Yes	2.628	-0.001	4.0	GoodResponse	0	0.205	498.126	5	52	Target	Neutral	False
499.126	0.3	Control	0.6604000000000001	0.001	Yes	2.628	-0.001	4.0	GoodResponse	0	0.205	n/a	5	52	ButtonPress	Neutral	False
499.354	0.28	Control	0.6604000000000001	n/a	Yes	2.628	n/a	n/a	GoodResponse	0	n/a	n/a	5	52	Blank	Neutral	False
499.62	1.45	Control	0.6604000000000001	n/a	Yes	2.628	n/a	5.0	GoodResponse	0	0.016	498.636	5	52	Feedback	Neutral	False
501.07	2.628	Control	0.6604000000000001	n/a	Yes	2.628	n/a	n/a	GoodResponse	0	0.0	n/a	5	52	ISIslide	Neutral	False
503.719	0.25	Win2	0.6667000000000001	0.0	Yes	2.931	0.019	4.0	GoodResponse	1	0.244	502.963	6	53	Cue	Win	False
503.963	0.3	Win2	0.6667000000000001	0.0	Yes	2.931	0.019	4.0	GoodResponse	1	0.244	n/a	6	53	ButtonPress	Win	False
503.969	4.05	Win2	0.6667000000000001	0.0	Yes	2.931	0.0	n/a	GoodResponse	1	n/a	n/a	6	53	Fixation	Win	False
508.017	0.42	Win2	0.6667000000000001	0.002	Yes	2.931	-0.002	4.0	GoodResponse	1	0.218	507.235	6	53	Target	Win	False
508.235	0.3	Win2	0.6667000000000001	0.002	Yes	2.931	-0.002	4.0	GoodResponse	1	0.218	n/a	6	53	ButtonPress	Win	False
508.451	0.28	Win2	0.6667000000000001	n/a	Yes	2.931	n/a	n/a	GoodResponse	1	n/a	n/a	6	53	Blank	Win	False
508.717	1.45	Win2	0.6667000000000001	n/a	Yes	2.931	n/a	5.0	GoodResponse	1	0.041	507.758	6	53	Feedback	Win	False
510.167	2.931	Win2	0.6667000000000001	n/a	Yes	2.931	n/a	n/a	GoodResponse	1	0.0	n/a	6	53	ISIslide	Win	False
513.116	0.25	Win2	0.6727	0.0	Yes	2.734	0.016	n/a	GoodResponse	1	n/a	n/a	7	54	Cue	Win	False
513.366	3.95	Win2	0.6727	0.0	Yes	2.734	0.0	4.0	GoodResponse	1	0.035	512.401	7	54	Fixation	Win	False
513.401	0.3	Win2	0.6727	0.0	Yes	2.734	0.0	4.0	GoodResponse	1	0.035	n/a	7	54	ButtonPress	Win	False
517.314	0.41	Win2	0.6727	0.002	Yes	2.734	-0.002	4.0	GoodResponse	1	0.192	516.506	7	54	Target	Win	False
517.506	0.3	Win2	0.6727	0.002	Yes	2.734	-0.002	4.0	GoodResponse	1	0.192	n/a	7	54	ButtonPress	Win	False
517.731	0.29	Win2	0.6727	n/a	Yes	2.734	n/a	n/a	GoodResponse	1	n/a	n/a	7	54	Blank	Win	False
518.014	1.45	Win2	0.6727	n/a	Yes	2.734	n/a	5.0	GoodResponse	1	0.012	517.026	7	54	Feedback	Win	False
519.464	2.734	Win2	0.6727	n/a	Yes	2.734	n/a	n/a	GoodResponse	1	0.0	n/a	7	54	ISIslide	Win	False
522.213	0.25	Control	0.6786	0.0	Yes	3.037	0.013	n/a	GoodResponse	0	n/a	n/a	7	55	Cue	Neutral	True
522.463	3.95	Control	0.6786	0.0	Yes	3.037	0.0	n/a	GoodResponse	0	n/a	n/a	7	55	Fixation	Neutral	True
526.411	0.4	Control	0.6786	0.002	Yes	3.037	-0.002	4.0	GoodResponse	0	0.235	525.646	7	55	Target	Neutral	True
526.646	0.3	Control	0.6786	0.002	Yes	3.037	-0.002	4.0	GoodResponse	0	0.235	n/a	7	55	ButtonPress	Neutral	True
526.811	0.3	Control	0.6786	n/a	Yes	3.037	n/a	n/a	GoodResponse	0	n/a	n/a	7	55	Blank	Neutral	True
527.111	1.45	Control	0.6786	n/a	Yes	3.037	n/a	5.0	GoodResponse	0	0.037	526.148	7	55	Feedback	Neutral	True
528.56	3.037	Control	0.6786	n/a	Yes	3.037	n/a	n/a	GoodResponse	0	0.0	n/a	7	55	ISIslide	Neutral	True
531.626	0.25	Control	0.6842	0.0	Yes	2.824	0.026	n/a	GoodResponse	0	n/a	n/a	7	56	Cue	Neutral	False
531.876	3.95	Control	0.6842	0.0	Yes	2.824	0.0	4.0	GoodResponse	0	0.082	530.958	7	56	Fixation	Neutral	False
531.958	0.3	Control	0.6842	0.0	Yes	2.824	0.0	4.0	GoodResponse	0	0.082	n/a	7	56	ButtonPress	Neutral	False
535.825	0.39	Control	0.6842	0.001	Yes	2.824	-0.001	4.0	GoodResponse	0	0.177	535.002	7	56	Target	Neutral	False
536.002	0.3	Control	0.6842	0.001	Yes	2.824	-0.001	4.0	GoodResponse	0	0.177	n/a	7	56	ButtonPress	Neutral	False
536.224	0.31	Control	0.6842	n/a	Yes	2.824	n/a	n/a	GoodResponse	0	n/a	n/a	7	56	Blank	Neutral	False
536.524	1.45	Control	0.6842	n/a	Yes	2.824	n/a	5.0	GoodResponse	0	0.039	535.563	7	56	Feedback	Neutral	False
537.974	2.824	Control	0.6842	n/a	Yes	2.824	n/a	n/a	GoodResponse	0	0.0	n/a	7	56	ISIslide	Neutral	False
540.823	0.25	Control	0.6897	0.0	Yes	3.477	0.023	4.0	GoodResponse	0	0.219	540.042	7	57	Cue	Neutral	False
541.042	0.3	Control	0.6897	0.0	Yes	3.477	0.023	4.0	GoodResponse	0	0.219	n/a	7	57	ButtonPress	Neutral	False
541.073	4.0	Control	0.6897	0.0	Yes	3.477	0.0	n/a	GoodResponse	0	n/a	n/a	7	57	Fixation	Neutral	False
545.071	0.38	Control	0.6897	0.002	Yes	3.477	-0.002	4.0	GoodResponse	0	0.219	544.29	7	57	Target	Neutral	False
545.29	0.3	Control	0.6897	0.002	Yes	3.477	-0.002	4.0	GoodResponse	0	0.219	n/a	7	57	ButtonPress	Neutral	False
545.455	0.32	Control	0.6897	n/a	Yes	3.477	n/a	n/a	GoodResponse	0	n/a	n/a	7	57	Blank	Neutral	False
545.771	1.45	Control	0.6897	n/a	Yes	3.477	n/a	5.0	GoodResponse	0	0.012	544.783	7	57	Feedback	Neutral	False
547.221	3.477	Control	0.6897	n/a	Yes	3.477	n/a	n/a	GoodResponse	0	0.0	n/a	7	57	ISIslide	Neutral	False
550.72	0.25	Win2	0.6949	0.0	Yes	2.73	0.02	n/a	GoodResponse	1	n/a	n/a	8	58	Cue	Win	False
550.969	4.05	Win2	0.6949	0.001	Yes	2.73	-0.001	4.0	GoodResponse	1	0.008	549.977	8	58	Fixation	Win	False
550.977	0.3	Win2	0.6949	0.001	Yes	2.73	-0.001	4.0	GoodResponse	1	0.008	n/a	8	58	ButtonPress	Win	False
555.018	0.37	Win2	0.6949	0.002	Yes	2.73	-0.002	4.0	GoodResponse	1	0.314	554.332	8	58	Target	Win	False
555.332	0.3	Win2	0.6949	0.002	Yes	2.73	-0.002	4.0	GoodResponse	1	0.314	n/a	8	58	ButtonPress	Win	False
555.401	0.33	Win2	0.6949	n/a	Yes	2.73	n/a	n/a	GoodResponse	1	n/a	n/a	8	58	Blank	Win	False
555.718	1.45	Win2	0.6949	n/a	Yes	2.73	n/a	5.0	GoodResponse	1	0.016	554.734	8	58	Feedback	Win	False
557.167	2.73	Win2	0.6949	n/a	Yes	2.73	n/a	n/a	GoodResponse	1	0.0	n/a	8	58	ISIslide	Win	False
559.916	0.25	Lose2	0.7	0.0	Yes	2.684	0.016	n/a	GoodResponse	0	n/a	n/a	8	59	Cue	AvoidedLoss	False
560.166	4.0	Lose2	0.7	0.0	Yes	2.684	0.0	4.0	GoodResponse	0	0.025	559.191	8	59	Fixation	AvoidedLoss	False
560.191	0.3	Lose2	0.7	0.0	Yes	2.684	0.0	4.0	GoodResponse	0	0.025	n/a	8	59	ButtonPress	AvoidedLoss	False
564.165	0.36	Lose2	0.7	0.001	Yes	2.684	-0.001	4.0	GoodResponse	0	0.269	563.434	8	59	Target	AvoidedLoss	False
564.434	0.3	Lose2	0.7	0.001	Yes	2.684	-0.001	4.0	GoodResponse	0	0.269	n/a	8	59	ButtonPress	AvoidedLoss	False
564.531	0.34	Lose2	0.7	n/a	Yes	2.684	n/a	n/a	GoodResponse	0	n/a	n/a	8	59	Blank	AvoidedLoss	False
564.865	1.45	Lose2	0.7	n/a	Yes	2.684	n/a	5.0	GoodResponse	0	0.04	563.905	8	59	Feedback	AvoidedLoss	False
566.314	2.684	Lose2	0.7	n/a	Yes	2.684	n/a	n/a	GoodResponse	0	0.0	n/a	8	59	ISIslide	AvoidedLoss	False
569.013	0.25	Control	0.7049	0.0	Yes	2.687	0.013	n/a	GoodResponse	0	n/a	n/a	8	60	Cue	Neutral	False
569.263	4.0	Control	0.7049	0.0	Yes	2.687	0.0	4.0	GoodResponse	0	0.08	568.343	8	60	Fixation	Neutral	False
569.343	0.3	Control	0.7049	0.0	Yes	2.687	0.0	4.0	GoodResponse	0	0.08	n/a	8	60	ButtonPress	Neutral	False
573.262	0.35	Control	0.7049	0.001	Yes	2.687	-0.001	4.0	GoodResponse	0	0.263	572.525	8	60	Target	Neutral	False
573.525	0.3	Control	0.7049	0.001	Yes	2.687	-0.001	4.0	GoodResponse	0	0.263	n/a	8	60	ButtonPress	Neutral	False
573.612	0.35	Control	0.7049	n/a	Yes	2.687	n/a	n/a	GoodResponse	0	n/a	n/a	8	60	Blank	Neutral	False
573.962	1.45	Control	0.7049	n/a	Yes	2.687	n/a	5.0	GoodResponse	0	0.015	572.977	8	60	Feedback	Neutral	False
575.411	2.687	Control	0.7049	n/a	Yes	2.687	n/a	n/a	GoodResponse	0	0.0	n/a	8	60	ISIslide	Neutral	False
578.127	0.25	Lose2	0.7097	0.0	Yes	2.973	0.027	n/a	GoodResponse	0	n/a	n/a	8	61	Cue	AvoidedLoss	True
578.377	4.0	Lose2	0.7097	0.0	Yes	2.973	0.0	n/a	GoodResponse	0	n/a	n/a	8	61	Fixation	AvoidedLoss	True
582.375	0.34	Lose2	0.7097	0.002	Yes	2.973	-0.002	4.0	GoodResponse	0	0.292	581.667	8	61	Target	AvoidedLoss	True
582.667	0.3	Lose2	0.7097	0.002	Yes	2.973	-0.002	4.0	GoodResponse	0	0.292	n/a	8	61	ButtonPress	AvoidedLoss	True
582.725	0.36	Lose2	0.7097	n/a	Yes	2.973	n/a	n/a	GoodResponse	0	n/a	n/a	8	61	Blank	AvoidedLoss	True
583.075	1.45	Lose2	0.7097	n/a	Yes	2.973	n/a	5.0	GoodResponse	0	0.024	582.099	8	61	Feedback	AvoidedLoss	True
584.525	2.973	Lose2	0.7097	n/a	Yes	2.973	n/a	n/a	GoodResponse	0	0.0	n/a	8	61	ISIslide	AvoidedLoss	True
587.524	0.25	Lose2	0.6984	0.0	No	2.876	0.024	n/a	NoResponse	-1	n/a	n/a	7	62	Cue	Loss	True
587.773	3.9	Lose2	0.6984	0.001	No	2.876	-0.001	n/a	NoResponse	-1	n/a	n/a	7	62	Fixation	Loss	True
591.672	0.33	Lose2	0.6984	0.002	No	2.876	-0.002	4.0	NoResponse	-1	0.463	591.135	7	62	Target	Loss	True
592.005	0.37	Lose2	0.6984	n/a	No	2.876	n/a	n/a	NoResponse	-1	n/a	n/a	7	62	Blank	Loss	True
592.135	0.3	Lose2	0.6984	0.002	No	2.876	-0.002	4.0	NoResponse	-1	0.463	n/a	7	62	ButtonPress	Loss	True
592.372	1.45	Lose2	0.6984	n/a	No	2.876	n/a	5.0	NoResponse	-1	0.044	591.416	7	62	Feedback	Loss	True
593.821	2.876	Lose2	0.6984	n/a	No	2.876	n/a	n/a	NoResponse	-1	0.0	n/a	7	62	ISIslide	Loss	True
596.72	0.25	Lose2	0.6875	0.001	No	2.63	0.02	n/a	NoResponse	-1	n/a	n/a	6	63	Cue	Loss	False
596.97	4.05	Lose2	0.6875	0.0	No	2.63	0.0	n/a	NoResponse	-1	n/a	n/a	6	63	Fixation	Loss	False
601.019	0.32	Lose2	0.6875	0.001	No	2.63	-0.001	n/a	NoResponse	-1	n/a	n/a	6	63	Target	Loss	False
601.336	0.38	Lose2	0.6875	n/a	No	2.63	n/a	n/a	NoResponse	-1	n/a	n/a	6	63	Blank	Loss	False
601.719	1.45	Lose2	0.6875	n/a	No	2.63	n/a	5.0	NoResponse	-1	0.015	600.734	6	63	Feedback	Loss	False
603.168	2.63	Lose2	0.6875	n/a	No	2.63	n/a	n/a	NoResponse	-1	0.0	n/a	6	63	ISIslide	Loss	False
605.817	0.25	Win2	0.6923	0.0	Yes	3.133	0.017	n/a	GoodResponse	1	n/a	n/a	7	64	Cue	Win	False
606.067	4.15	Win2	0.6923	0.0	Yes	3.133	0.0	4.0	GoodResponse	1	0.005	605.072	7	64	Fixation	Win	False
606.072	0.3	Win2	0.6923	0.0	Yes	3.133	0.0	4.0	GoodResponse	1	0.005	n/a	7	64	ButtonPress	Win	False
610.216	0.31	Win2	0.6923	0.001	Yes	3.133	-0.001	4.0	GoodResponse	1	0.212	609.428	7	64	Target	Win	False
610.428	0.3	Win2	0.6923	0.001	Yes	3.133	-0.001	4.0	GoodResponse	1	0.212	n/a	7	64	ButtonPress	Win	False
610.532	0.39	Win2	0.6923	n/a	Yes	3.133	n/a	n/a	GoodResponse	1	n/a	n/a	7	64	Blank	Win	False
610.916	1.45	Win2	0.6923	n/a	Yes	3.133	n/a	5.0	GoodResponse	1	0.037	609.953	7	64	Feedback	Win	False
612.365	3.133	Win2	0.6923	n/a	Yes	3.133	n/a	n/a	GoodResponse	1	0.0	n/a	7	64	ISIslide	Win	False
615.514	0.25	Control	0.6818000000000001	0.0	No	2.786	0.014	n/a	NoResponse	0	n/a	n/a	7	65	Cue	Neutral	False
615.764	4.0	Control	0.6818000000000001	0.0	No	2.786	0.0	4.0	NoResponse	0	0.007	614.771	7	65	Fixation	Neutral	False
615.771	0.3	Control	0.6818000000000001	0.0	No	2.786	0.0	4.0	NoResponse	0	0.007	n/a	7	65	ButtonPress	Neutral	False
619.763	0.3	Control	0.6818000000000001	0.001	No	2.786	-0.001	4.0	NoResponse	0	0.442	619.205	7	65	Target	Neutral	False
620.062	0.4	Control	0.6818000000000001	n/a	No	2.786	n/a	n/a	NoResponse	0	n/a	n/a	7	65	Blank	Neutral	False
620.205	0.3	Control	0.6818000000000001	0.001	No	2.786	-0.001	4.0	NoResponse	0	0.442	n/a	7	65	ButtonPress	Neutral	False
620.462	1.45	Control	0.6818000000000001	n/a	No	2.786	n/a	5.0	NoResponse	0	0.005	619.467	7	65	Feedback	Neutral	False
621.912	2.786	Control	0.6818000000000001	n/a	No	2.786	n/a	n/a	NoResponse	0	0.0	n/a	7	65	ISIslide	Neutral	False
624.728	0.25	Win2	0.6866	0.0	Yes	2.772	0.028	n/a	GoodResponse	1	n/a	n/a	8	66	Cue	Win	False
624.977	3.9	Win2	0.6866	0.001	Yes	2.772	-0.001	4.0	GoodResponse	1	0.302	624.279	8	66	Fixation	Win	False
625.279	0.3	Win2	0.6866	0.001	Yes	2.772	-0.001	4.0	GoodResponse	1	0.302	n/a	8	66	ButtonPress	Win	False
628.876	0.29	Win2	0.6866	0.002	Yes	2.772	-0.002	4.0	GoodResponse	1	0.219	628.095	8	66	Target	Win	False
629.095	0.3	Win2	0.6866	0.002	Yes	2.772	-0.002	4.0	GoodResponse	1	0.219	n/a	8	66	ButtonPress	Win	False
629.176	0.41	Win2	0.6866	n/a	Yes	2.772	n/a	n/a	GoodResponse	1	n/a	n/a	8	66	Blank	Win	False
629.576	1.45	Win2	0.6866	n/a	Yes	2.772	n/a	5.0	GoodResponse	1	0.012	628.588	8	66	Feedback	Win	False
631.025	2.772	Win2	0.6866	n/a	Yes	2.772	n/a	n/a	GoodResponse	1	0.0	n/a	8	66	ISIslide	Win	False
633.824	0.25	Control	0.6912	0.0	Yes	2.726	0.024	n/a	GoodResponse	0	n/a	n/a	8	67	Cue	Neutral	True
634.074	3.95	Control	0.6912	0.0	Yes	2.726	0.0	n/a	GoodResponse	0	n/a	n/a	8	67	Fixation	Neutral	True
638.023	0.28	Control	0.6912	0.001	Yes	2.726	-0.001	4.0	GoodResponse	0	0.226	637.249	8	67	Target	Neutral	True
638.249	0.3	Control	0.6912	0.001	Yes	2.726	-0.001	4.0	GoodResponse	0	0.226	n/a	8	67	ButtonPress	Neutral	True
638.306	0.42	Control	0.6912	n/a	Yes	2.726	n/a	n/a	GoodResponse	0	n/a	n/a	8	67	Blank	Neutral	True
638.723	1.45	Control	0.6912	n/a	Yes	2.726	n/a	5.0	GoodResponse	0	0.035	637.758	8	67	Feedback	Neutral	True
640.172	2.726	Control	0.6912	n/a	Yes	2.726	n/a	n/a	GoodResponse	0	0.0	n/a	8	67	ISIslide	Neutral	True
642.921	0.25	Win2	0.6812	0.0	No	3.079	0.021	n/a	NoResponse	0	n/a	n/a	8	68	Cue	MissedWin	True
643.171	4.0	Win2	0.6812	0.0	No	3.079	0.0	n/a	NoResponse	0	n/a	n/a	8	68	Fixation	MissedWin	True
647.17	0.27	Win2	0.6812	0.001	No	3.079	-0.001	4.0	NoResponse	0	0.304	646.474	8	68	Target	MissedWin	True
647.436	0.43	Win2	0.6812	n/a	No	3.079	n/a	n/a	NoResponse	0	n/a	n/a	8	68	Blank	MissedWin	True
647.474	0.3	Win2	0.6812	0.001	No	3.079	-0.001	4.0	NoResponse	0	0.304	n/a	8	68	ButtonPress	MissedWin	True
647.87	1.45	Win2	0.6812	n/a	No	3.079	n/a	5.0	NoResponse	0	0.01	646.88	8	68	Feedback	MissedWin	True
649.319	3.079	Win2	0.6812	n/a	No	3.079	n/a	n/a	NoResponse	0	0.0	n/a	8	68	ISIslide	MissedWin	True
652.418	0.25	Win2	0.6857	0.0	Yes	3.232	0.018	4.0	GoodResponse	1	0.214	651.632	9	69	Cue	Win	False
652.632	0.3	Win2	0.6857	0.0	Yes	3.232	0.018	4.0	GoodResponse	1	0.214	n/a	9	69	ButtonPress	Win	False
652.668	3.95	Win2	0.6857	0.0	Yes	3.232	0.0	n/a	GoodResponse	1	n/a	n/a	9	69	Fixation	Win	False
656.617	0.26	Win2	0.6857	0.001	Yes	3.232	-0.001	4.0	GoodResponse	1	0.212	655.829	9	69	Target	Win	False
656.829	0.3	Win2	0.6857	0.001	Yes	3.232	-0.001	4.0	GoodResponse	1	0.212	n/a	9	69	ButtonPress	Win	False
656.883	0.44	Win2	0.6857	n/a	Yes	3.232	n/a	n/a	GoodResponse	1	n/a	n/a	9	69	Blank	Win	False
657.316	1.45	Win2	0.6857	n/a	Yes	3.232	n/a	5.0	GoodResponse	1	0.027	656.343	9	69	Feedback	Win	False
658.766	3.232	Win2	0.6857	n/a	Yes	3.232	n/a	n/a	GoodResponse	1	0.0	n/a	9	69	ISIslide	Win	False
662.015	0.25	Lose2	0.6901	0.0	Yes	3.035	0.015	4.0	GoodResponse	0	0.223	661.238	9	70	Cue	AvoidedLoss	False
662.238	0.3	Lose2	0.6901	0.0	Yes	3.035	0.015	4.0	GoodResponse	0	0.223	n/a	9	70	ButtonPress	AvoidedLoss	False
662.265	4.05	Lose2	0.6901	0.0	Yes	3.035	0.0	n/a	GoodResponse	0	n/a	n/a	9	70	Fixation	AvoidedLoss	False
666.313	0.25	Lose2	0.6901	0.002	Yes	3.035	-0.002	4.0	GoodResponse	0	0.177	665.49	9	70	Target	AvoidedLoss	False
666.49	0.3	Lose2	0.6901	0.002	Yes	3.035	-0.002	4.0	GoodResponse	0	0.177	n/a	9	70	ButtonPress	AvoidedLoss	False
666.563	0.45	Lose2	0.6901	n/a	Yes	3.035	n/a	n/a	GoodResponse	0	n/a	n/a	9	70	Blank	AvoidedLoss	False
667.013	1.45	Lose2	0.6901	n/a	Yes	3.035	n/a	5.0	GoodResponse	0	0.038	666.051	9	70	Feedback	AvoidedLoss	False
668.463	3.035	Lose2	0.6901	n/a	Yes	3.035	n/a	n/a	GoodResponse	0	0.0	n/a	9	70	ISIslide	AvoidedLoss	False
671.528	0.25	Win2	0.6944	0.0	Yes	2.722	0.028	4.0	GoodResponse	1	0.235	670.763	10	71	Cue	Win	False
671.763	0.3	Win2	0.6944	0.0	Yes	2.722	0.028	4.0	GoodResponse	1	0.235	n/a	10	71	ButtonPress	Win	False
671.778	4.05	Win2	0.6944	0.0	Yes	2.722	0.0	n/a	GoodResponse	1	n/a	n/a	10	71	Fixation	Win	False
675.827	0.24	Win2	0.6944	0.001	Yes	2.722	-0.001	4.0	GoodResponse	1	0.235	675.062	10	71	Target	Win	False
676.062	0.3	Win2	0.6944	0.001	Yes	2.722	-0.001	4.0	GoodResponse	1	0.235	n/a	10	71	ButtonPress	Win	False
676.077	0.46	Win2	0.6944	n/a	Yes	2.722	n/a	n/a	GoodResponse	1	n/a	n/a	10	71	Blank	Win	False
676.526	1.45	Win2	0.6944	n/a	Yes	2.722	n/a	5.0	GoodResponse	1	0.037	675.563	10	71	Feedback	Win	False
677.976	2.722	Win2	0.6944	n/a	Yes	2.722	n/a	n/a	GoodResponse	1	0.0	n/a	10	71	ISIslide	Win	False
680.725	0.25	Win2	0.6986	0.0	Yes	2.775	0.025	4.0	GoodResponse	1	0.248	679.973	11	72	Cue	Win	False
680.973	0.3	Win2	0.6986	0.0	Yes	2.775	0.025	4.0	GoodResponse	1	0.248	n/a	11	72	ButtonPress	Win	False
680.975	4.1	Win2	0.6986	0.0	Yes	2.775	0.0	n/a	GoodResponse	1	n/a	n/a	11	72	Fixation	Win	False
685.074	0.23	Win2	0.6986	0.001	Yes	2.775	-0.001	4.0	GoodResponse	1	0.209	684.283	11	72	Target	Win	False
685.283	0.3	Win2	0.6986	0.001	Yes	2.775	-0.001	4.0	GoodResponse	1	0.209	n/a	11	72	ButtonPress	Win	False
685.307	0.47	Win2	0.6986	n/a	Yes	2.775	n/a	n/a	GoodResponse	1	n/a	n/a	11	72	Blank	Win	False
685.773	1.45	Win2	0.6986	n/a	Yes	2.775	n/a	5.0	GoodResponse	1	0.009	684.782	11	72	Feedback	Win	False
687.223	2.775	Win2	0.6986	n/a	Yes	2.775	n/a	n/a	GoodResponse	1	0.0	n/a	11	72	ISIslide	Win	False
690.022	0.25	Win2	0.6892	0.0	No	2.678	0.022	n/a	LatePress	0	n/a	n/a	11	73	Cue	MissedWin	False
690.272	4.0	Win2	0.6892	0.0	No	2.678	0.0	4.0	LatePress	0	0.058	689.33	11	73	Fixation	MissedWin	False
690.33	0.3	Win2	0.6892	0.0	No	2.678	0.0	4.0	LatePress	0	0.058	n/a	11	73	ButtonPress	MissedWin	False
694.27	0.22	Win2	0.6892	0.002	No	2.678	-0.002	4.0	LatePress	0	0.232	693.502	11	73	Target	MissedWin	False
694.502	0.3	Win2	0.6892	0.002	No	2.678	-0.002	4.0	LatePress	0	0.232	n/a	11	73	ButtonPress	MissedWin	False
694.504	0.48	Win2	0.6892	n/a	No	2.678	n/a	n/a	LatePress	0	n/a	n/a	11	73	Blank	MissedWin	False
694.97	1.45	Win2	0.6892	n/a	No	2.678	n/a	5.0	LatePress	0	0.032	694.002	11	73	Feedback	MissedWin	False
696.42	2.678	Win2	0.6892	n/a	No	2.678	n/a	n/a	LatePress	0	0.0	n/a	11	73	ISIslide	MissedWin	False
699.119	0.25	Lose2	0.68	0.0	No	2.631	0.019	n/a	NoResponse	-1	n/a	n/a	10	74	Cue	Loss	True
699.369	4.05	Lose2	0.68	0.0	No	2.631	0.0	4.0	NoResponse	-1	3.627	701.996	10	74	Fixation	Loss	True
702.996	0.3	Lose2	0.68	0.0	No	2.631	0.0	4.0	NoResponse	-1	3.627	n/a	10	74	ButtonPress	Loss	True
703.417	0.21	Lose2	0.68	0.002	No	2.631	-0.002	n/a	NoResponse	-1	n/a	n/a	10	74	Target	Loss	True
703.634	0.49	Lose2	0.68	n/a	No	2.631	n/a	n/a	NoResponse	-1	n/a	n/a	10	74	Blank	Loss	True
704.117	1.45	Lose2	0.68	n/a	No	2.631	n/a	5.0	NoResponse	-1	0.007	703.124	10	74	Feedback	Loss	True
705.567	2.631	Lose2	0.68	n/a	No	2.631	n/a	n/a	NoResponse	-1	0.0	n/a	10	74	ISIslide	Loss	True
708.216	0.25	Lose2	0.6711	0.0	No	2.934	0.016	4.0	NoResponse	-1	0.147	707.363	9	75	Cue	Loss	False
708.363	0.3	Lose2	0.6711	0.0	No	2.934	0.016	4.0	NoResponse	-1	0.147	n/a	9	75	ButtonPress	Loss	False
708.466	3.95	Lose2	0.6711	0.0	No	2.934	0.0	n/a	NoResponse	-1	n/a	n/a	9	75	Fixation	Loss	False
712.414	0.2	Lose2	0.6711	0.002	No	2.934	-0.002	4.0	NoResponse	-1	0.203	711.617	9	75	Target	Loss	False
712.614	0.5	Lose2	0.6711	n/a	No	2.934	n/a	n/a	NoResponse	-1	n/a	n/a	9	75	Blank	Loss	False
712.617	0.3	Lose2	0.6711	0.002	No	2.934	-0.002	4.0	NoResponse	-1	0.203	n/a	9	75	ButtonPress	Loss	False
713.114	1.45	Lose2	0.6711	n/a	No	2.934	n/a	5.0	NoResponse	-1	0.035	712.149	9	75	Feedback	Loss	False
714.563	2.934	Lose2	0.6711	n/a	No	2.934	n/a	n/a	NoResponse	-1	0.0	n/a	9	75	ISIslide	Loss	False
717.512	0.25	Control	0.6623	0.001	No	3.238	0.012	4.0	NoResponse	0	0.243	716.755	9	76	Cue	Neutral	False
717.755	0.3	Control	0.6623	0.001	No	3.238	0.012	4.0	NoResponse	0	0.243	n/a	9	76	ButtonPress	Neutral	False
717.762	4.05	Control	0.6623	0.0	No	3.238	0.0	n/a	NoResponse	0	n/a	n/a	9	76	Fixation	Neutral	False
721.811	0.19	Control	0.6623	0.001	No	3.238	-0.001	4.0	NoResponse	0	0.235	721.046	9	76	Target	Neutral	False
722.011	0.51	Control	0.6623	n/a	No	3.238	n/a	n/a	NoResponse	0	n/a	n/a	9	76	Blank	Neutral	False
722.046	0.3	Control	0.6623	0.001	No	3.238	-0.001	4.0	NoResponse	0	0.235	n/a	9	76	ButtonPress	Neutral	False
722.511	1.45	Control	0.6623	n/a	No	3.238	n/a	5.0	NoResponse	0	0.004	721.515	9	76	Feedback	Neutral	False
723.96	3.238	Control	0.6623	n/a	No	3.238	n/a	n/a	NoResponse	0	0.0	n/a	9	76	ISIslide	Neutral	False
727.226	0.25	Lose2	0.6537999999999999	0.0	No	2.574	0.026	4.0	NoResponse	-1	0.227	726.453	8	77	Cue	Loss	False
727.453	0.3	Lose2	0.6537999999999999	0.0	No	2.574	0.026	4.0	NoResponse	-1	0.227	n/a	8	77	ButtonPress	Loss	False
727.476	3.95	Lose2	0.6537999999999999	0.0	No	2.574	0.0	n/a	NoResponse	-1	n/a	n/a	8	77	Fixation	Loss	False
731.424	0.19	Lose2	0.6537999999999999	0.002	No	2.574	-0.002	4.0	NoResponse	-1	0.206	730.63	8	77	Target	Loss	False
731.624	0.51	Lose2	0.6537999999999999	n/a	No	2.574	n/a	n/a	NoResponse	-1	n/a	n/a	8	77	Blank	Loss	False
731.63	0.3	Lose2	0.6537999999999999	0.002	No	2.574	-0.002	4.0	NoResponse	-1	0.206	n/a	8	77	ButtonPress	Loss	False
732.124	1.45	Lose2	0.6537999999999999	n/a	No	2.574	n/a	5.0	NoResponse	-1	0.0	731.124	8	77	Feedback	Loss	False
733.574	2.574	Lose2	0.6537999999999999	n/a	No	2.574	n/a	n/a	NoResponse	-1	0.0	n/a	8	77	ISIslide	Loss	False
