onset	duration	cue_type	current_mean_accuracy	duration_error	is_hit	isi_adjusted	onset_delay	response	response_type	reward	rt	rt_time	total_reward	trial_number	trial_phase	trial_type	one_press
11.098	0.25	Control	1.0	0.0	Yes	2.952	-0.002	n/a	GoodResponse	0	n/a	n/a	0	0	Cue	Neutral	True
11.348	3.85	Control	1.0	0.0	Yes	2.952	0.0	n/a	GoodResponse	0	n/a	n/a	0	0	Fixation	Neutral	True
15.197	0.4	Control	1.0	0.001	Yes	2.952	-0.001	4.0	GoodResponse	0	0.213	14.41	0	0	Target	Neutral	True
15.41	0.3	Control	1.0	0.001	Yes	2.952	-0.001	4.0	GoodResponse	0	0.213	n/a	0	0	ButtonPress	Neutral	True
15.596	0.3	Control	1.0	n/a	Yes	2.952	n/a	n/a	GoodResponse	0	n/a	n/a	0	0	Blank	Neutral	True
15.896	1.45	Control	1.0	n/a	Yes	2.952	n/a	5.0	GoodResponse	0	0.033	14.929	0	0	Feedback	Neutral	True
17.346	2.952	Control	1.0	n/a	Yes	2.952	n/a	n/a	GoodResponse	0	0.0	n/a	0	0	ISIslide	Neutral	True
20.311	0.25	Lose2	1.0	0.001	Yes	2.789	0.011	n/a	GoodResponse	0	n/a	n/a	0	1	Cue	AvoidedLoss	True
20.561	4.0	Lose2	1.0	0.0	Yes	2.789	0.0	n/a	GoodResponse	0	n/a	n/a	0	1	Fixation	AvoidedLoss	True
24.56	0.39	Lose2	1.0	0.001	Yes	2.789	-0.001	4.0	GoodResponse	0	0.229	23.789	0	1	Target	AvoidedLoss	True
24.789	0.3	Lose2	1.0	0.001	Yes	2.789	-0.001	4.0	GoodResponse	0	0.229	n/a	0	1	ButtonPress	AvoidedLoss	True
24.96	0.31	Lose2	1.0	n/a	Yes	2.789	n/a	n/a	GoodResponse	0	n/a	n/a	0	1	Blank	AvoidedLoss	True
25.26	1.45	Lose2	1.0	n/a	Yes	2.789	n/a	5.0	GoodResponse	0	0.035	24.295	0	1	Feedback	AvoidedLoss	True
26.709	2.789	Lose2	1.0	n/a	Yes	2.789	n/a	n/a	GoodResponse	0	0.0	n/a	0	1	ISIslide	AvoidedLoss	True
29.525	0.25	Control	1.0	0.0	Yes	2.575	0.025	4.0	GoodResponse	0	0.23	28.755	0	2	Cue	Neutral	False
29.755	0.3	Control	1.0	0.0	Yes	2.575	0.025	4.0	GoodResponse	0	0.23	n/a	0	2	ButtonPress	Neutral	False
29.775	4.1	Control	1.0	0.0	Yes	2.575	0.0	n/a	GoodResponse	0	n/a	n/a	0	2	Fixation	Neutral	False
33.873	0.38	Control	1.0	0.002	Yes	2.575	-0.002	4.0	GoodResponse	0	0.212	33.085	0	2	Target	Neutral	False
34.085	0.3	Control	1.0	0.002	Yes	2.575	-0.002	4.0	GoodResponse	0	0.212	n/a	0	2	ButtonPress	Neutral	False
34.257	0.32	Control	1.0	n/a	Yes	2.575	n/a	n/a	GoodResponse	0	n/a	n/a	0	2	Blank	Neutral	False
34.573	1.45	Control	1.0	n/a	Yes	2.575	n/a	5.0	GoodResponse	0	0.039	33.612	0	2	Feedback	Neutral	False
36.023	2.575	Control	1.0	n/a	Yes	2.575	n/a	n/a	GoodResponse	0	0.0	n/a	0	2	ISIslide	Neutral	False
38.622	0.25	Win2	1.0	0.0	Yes	2.828	0.022	n/a	GoodResponse	1	n/a	n/a	1	3	Cue	Win	False
38.872	3.95	Win2	1.0	0.0	Yes	2.828	0.0	4.0	GoodResponse	1	0.068	37.94	1	3	Fixation	Win	False
38.94	0.3	Win2	1.0	0.0	Yes	2.828	0.0	4.0	GoodResponse	1	0.068	n/a	1	3	ButtonPress	Win	False
42.82	0.37	Win2	1.0	0.002	Yes	2.828	-0.002	4.0	GoodResponse	1	0.228	42.048	1	3	Target	Win	False
43.048	0.3	Win2	1.0	0.002	Yes	2.828	-0.002	4.0	GoodResponse	1	0.228	n/a	1	3	ButtonPress	Win	False
43.204	0.33	Win2	1.0	n/a	Yes	2.828	n/a	n/a	GoodResponse	1	n/a	n/a	1	3	Blank	Win	False
43.52	1.45	Win2	1.0	n/a	Yes	2.828	n/a	5.0	GoodResponse	1	0.019	42.539	1	3	Feedback	Win	False
44.97	2.828	Win2	1.0	n/a	Yes	2.828	n/a	n/a	GoodResponse	1	0.0	n/a	1	3	ISIslide	Win	False
47.819	0.25	Win2	1.0	0.0	Yes	3.281	0.019	4.0	GoodResponse	1	0.249	47.068	2	4	Cue	Win	False
48.068	0.3	Win2	1.0	0.0	Yes	3.281	0.019	4.0	GoodResponse	1	0.249	n/a	2	4	ButtonPress	Win	False
48.069	4.0	Win2	1.0	0.0	Yes	3.281	0.0	n/a	GoodResponse	1	n/a	n/a	2	4	Fixation	Win	False
52.067	0.36	Win2	1.0	0.002	Yes	3.281	-0.002	4.0	GoodResponse	1	0.22	51.287	2	4	Target	Win	False
52.287	0.3	Win2	1.0	0.002	Yes	3.281	-0.002	4.0	GoodResponse	1	0.22	n/a	2	4	ButtonPress	Win	False
52.434	0.34	Win2	1.0	n/a	Yes	3.281	n/a	n/a	GoodResponse	1	n/a	n/a	2	4	Blank	Win	False
52.767	1.45	Win2	1.0	n/a	Yes	3.281	n/a	5.0	GoodResponse	1	0.041	51.808	2	4	Feedback	Win	False
54.217	3.281	Win2	1.0	n/a	Yes	3.281	n/a	n/a	GoodResponse	1	0.0	n/a	2	4	ISIslide	Win	False
57.515	0.25	Win2	1.0	0.001	Yes	2.785	0.015	n/a	GoodResponse	1	n/a	n/a	3	5	Cue	Win	False
57.765	4.0	Win2	1.0	0.0	Yes	2.785	0.0	4.0	GoodResponse	1	0.205	56.97	3	5	Fixation	Win	False
57.97	0.3	Win2	1.0	0.0	Yes	2.785	0.0	4.0	GoodResponse	1	0.205	n/a	3	5	ButtonPress	Win	False
61.764	0.35	Win2	1.0	0.001	Yes	2.785	-0.001	4.0	GoodResponse	1	0.221	60.985	3	5	Target	Win	False
61.985	0.3	Win2	1.0	0.001	Yes	2.785	-0.001	4.0	GoodResponse	1	0.221	n/a	3	5	ButtonPress	Win	False
62.114	0.35	Win2	1.0	n/a	Yes	2.785	n/a	n/a	GoodResponse	1	n/a	n/a	3	5	Blank	Win	False
62.464	1.45	Win2	1.0	n/a	Yes	2.785	n/a	5.0	GoodResponse	1	0.004	61.468	3	5	Feedback	Win	False
63.913	2.785	Win2	1.0	n/a	Yes	2.785	n/a	n/a	GoodResponse	1	0.0	n/a	3	5	ISIslide	Win	False
66.712	0.25	Lose2	1.0	0.0	Yes	2.738	0.012	n/a	GoodResponse	0	n/a	n/a	3	6	Cue	AvoidedLoss	True
66.962	3.95	Lose2	1.0	0.0	Yes	2.738	0.0	n/a	GoodResponse	0	n/a	n/a	3	6	Fixation	AvoidedLoss	True
70.911	0.34	Lose2	1.0	0.001	Yes	2.738	-0.001	4.0	GoodResponse	0	0.183	70.094	3	6	Target	AvoidedLoss	True
71.094	0.3	Lose2	1.0	0.001	Yes	2.738	-0.001	4.0	GoodResponse	0	0.183	n/a	3	6	ButtonPress	AvoidedLoss	True
71.261	0.36	Lose2	1.0	n/a	Yes	2.738	n/a	n/a	GoodResponse	0	n/a	n/a	3	6	Blank	AvoidedLoss	True
71.611	1.45	Lose2	1.0	n/a	Yes	2.738	n/a	5.0	GoodResponse	0	0.025	70.636	3	6	Feedback	AvoidedLoss	True
73.06	2.738	Lose2	1.0	n/a	Yes	2.738	n/a	n/a	GoodResponse	0	0.0	n/a	3	6	ISIslide	AvoidedLoss	True
75.826	0.25	Lose2	1.0	0.0	Yes	4.024	0.026	n/a	GoodResponse	0	n/a	n/a	3	7	Cue	AvoidedLoss	True
76.076	4.05	Lose2	1.0	0.0	Yes	4.024	0.0	n/a	GoodResponse	0	n/a	n/a	3	7	Fixation	AvoidedLoss	True
80.124	0.33	Lose2	1.0	0.002	Yes	4.024	-0.002	4.0	GoodResponse	0	0.221	79.345	3	7	Target	AvoidedLoss	True
80.345	0.3	Lose2	1.0	0.002	Yes	4.024	-0.002	4.0	GoodResponse	0	0.221	n/a	3	7	ButtonPress	AvoidedLoss	True
80.458	0.37	Lose2	1.0	n/a	Yes	4.024	n/a	n/a	GoodResponse	0	n/a	n/a	3	7	Blank	AvoidedLoss	True
80.824	1.45	Lose2	1.0	n/a	Yes	4.024	n/a	5.0	GoodResponse	0	0.032	79.856	3	7	Feedback	AvoidedLoss	True
82.274	4.024	Lose2	1.0	n/a	Yes	4.024	n/a	n/a	GoodResponse	0	0.0	n/a	3	7	ISIslide	AvoidedLoss	True
86.322	0.25	Lose2	1.0	0.0	Yes	3.028	0.022	n/a	GoodResponse	0	n/a	n/a	3	8	Cue	AvoidedLoss	True
86.572	3.95	Lose2	1.0	0.0	Yes	3.028	0.0	n/a	GoodResponse	0	n/a	n/a	3	8	Fixation	AvoidedLoss	True
90.521	0.32	Lose2	1.0	0.001	Yes	3.028	-0.001	4.0	GoodResponse	0	0.291	89.812	3	8	Target	AvoidedLoss	True
90.812	0.3	Lose2	1.0	0.001	Yes	3.028	-0.001	4.0	GoodResponse	0	0.291	n/a	3	8	ButtonPress	AvoidedLoss	True
90.854	0.38	Lose2	1.0	n/a	Yes	3.028	n/a	n/a	GoodResponse	0	n/a	n/a	3	8	Blank	AvoidedLoss	True
91.22	1.45	Lose2	1.0	n/a	Yes	3.028	n/a	5.0	GoodResponse	0	0.026	90.246	3	8	Feedback	AvoidedLoss	True
92.67	3.028	Lose2	1.0	n/a	Yes	3.028	n/a	n/a	GoodResponse	0	0.0	n/a	3	8	ISIslide	AvoidedLoss	True
95.719	0.25	Lose2	1.0	0.0	Yes	3.131	0.019	n/a	GoodResponse	0	n/a	n/a	3	9	Cue	AvoidedLoss	True
95.969	3.95	Lose2	1.0	0.0	Yes	3.131	0.0	n/a	GoodResponse	0	n/a	n/a	3	9	Fixation	AvoidedLoss	True
99.918	0.31	Lose2	1.0	0.001	Yes	3.131	-0.001	4.0	GoodResponse	0	0.238	99.156	3	9	Target	AvoidedLoss	True
100.156	0.3	Lose2	1.0	0.001	Yes	3.131	-0.001	4.0	GoodResponse	0	0.238	n/a	3	9	ButtonPress	AvoidedLoss	True
100.234	0.39	Lose2	1.0	n/a	Yes	3.131	n/a	n/a	GoodResponse	0	n/a	n/a	3	9	Blank	AvoidedLoss	True
100.617	1.45	Lose2	1.0	n/a	Yes	3.131	n/a	5.0	GoodResponse	0	0.044	99.661	3	9	Feedback	AvoidedLoss	True
102.067	3.131	Lose2	1.0	n/a	Yes	3.131	n/a	n/a	GoodResponse	0	0.0	n/a	3	9	ISIslide	AvoidedLoss	True
105.216	0.25	Control	1.0	0.0	Yes	3.284	0.016	n/a	GoodResponse	0	n/a	n/a	3	10	Cue	Neutral	True
105.466	4.0	Control	1.0	0.0	Yes	3.284	0.0	n/a	GoodResponse	0	n/a	n/a	3	10	Fixation	Neutral	True
109.464	0.3	Control	1.0	0.002	Yes	3.284	-0.002	4.0	GoodResponse	0	0.262	108.726	3	10	Target	Neutral	True
109.726	0.3	Control	1.0	0.002	Yes	3.284	-0.002	4.0	GoodResponse	0	0.262	n/a	3	10	ButtonPress	Neutral	True
109.764	0.4	Control	1.0	n/a	Yes	3.284	n/a	n/a	GoodResponse	0	n/a	n/a	3	10	Blank	Neutral	True
110.164	1.45	Control	1.0	n/a	Yes	3.284	n/a	5.0	GoodResponse	0	0.009	109.173	3	10	Feedback	Neutral	True
111.614	3.284	Control	1.0	n/a	Yes	3.284	n/a	4.0	GoodResponse	0	3.237	n/a	3	10	ISIslide	Neutral	True
114.896	0.25	Lose2	1.0	0.0	Yes	2.754	-0.004	n/a	GoodResponse	0	n/a	n/a	3	11	Cue	AvoidedLoss	True
115.146	4.05	Lose2	1.0	0.0	Yes	2.754	0.0	n/a	GoodResponse	0	n/a	n/a	3	11	Fixation	AvoidedLoss	True
119.194	0.29	Lose2	1.0	0.002	Yes	2.754	-0.002	4.0	GoodResponse	0	0.215	118.409	3	11	Target	AvoidedLoss	True
119.409	0.3	Lose2	1.0	0.002	Yes	2.754	-0.002	4.0	GoodResponse	0	0.215	n/a	3	11	ButtonPress	AvoidedLoss	True
119.494	0.41	Lose2	1.0	n/a	Yes	2.754	n/a	n/a	GoodResponse	0	n/a	n/a	3	11	Blank	AvoidedLoss	True
119.894	1.45	Lose2	1.0	n/a	Yes	2.754	n/a	5.0	GoodResponse	0	0.036	118.93	3	11	Feedback	AvoidedLoss	True
121.344	2.754	Lose2	1.0	n/a	Yes	2.754	n/a	n/a	GoodResponse	0	0.0	n/a	3	11	ISIslide	AvoidedLoss	True
124.126	0.25	Control	1.0	0.0	Yes	2.974	0.026	n/a	GoodResponse	0	n/a	n/a	3	12	Cue	Neutral	True
124.376	3.9	Control	1.0	0.0	Yes	2.974	0.0	n/a	GoodResponse	0	n/a	n/a	3	12	Fixation	Neutral	True
128.274	0.28	Control	1.0	0.002	Yes	2.974	-0.002	4.0	GoodResponse	0	0.246	127.52	3	12	Target	Neutral	True
128.52	0.3	Control	1.0	0.002	Yes	2.974	-0.002	4.0	GoodResponse	0	0.246	n/a	3	12	ButtonPress	Neutral	True
128.558	0.42	Control	1.0	n/a	Yes	2.974	n/a	n/a	GoodResponse	0	n/a	n/a	3	12	Blank	Neutral	True
128.974	1.45	Control	1.0	n/a	Yes	2.974	n/a	5.0	GoodResponse	0	0.029	128.003	3	12	Feedback	Neutral	True
130.424	2.974	Control	1.0	n/a	Yes	2.974	n/a	n/a	GoodResponse	0	0.0	n/a	3	12	ISIslide	Neutral	True
133.423	0.25	Control	1.0	0.0	Yes	2.777	0.023	n/a	GoodResponse	0	n/a	n/a	3	13	Cue	Neutral	False
133.673	4.0	Control	1.0	0.0	Yes	2.777	0.0	4.0	GoodResponse	0	0.091	132.764	3	13	Fixation	Neutral	False
133.764	0.3	Control	1.0	0.0	Yes	2.777	0.0	4.0	GoodResponse	0	0.091	n/a	3	13	ButtonPress	Neutral	False
137.671	0.27	Control	1.0	0.002	Yes	2.777	-0.002	4.0	GoodResponse	0	0.205	136.876	3	13	Target	Neutral	False
137.876	0.3	Control	1.0	0.002	Yes	2.777	-0.002	4.0	GoodResponse	0	0.205	n/a	3	13	ButtonPress	Neutral	False
137.955	0.43	Control	1.0	n/a	Yes	2.777	n/a	n/a	GoodResponse	0	n/a	n/a	3	13	Blank	Neutral	False
138.371	1.45	Control	1.0	n/a	Yes	2.777	n/a	5.0	GoodResponse	0	0.046	137.417	3	13	Feedback	Neutral	False
139.821	2.777	Control	1.0	n/a	Yes	2.777	n/a	n/a	GoodResponse	0	0.0	n/a	3	13	ISIslide	Neutral	False
142.62	0.25	Win2	1.0	0.0	Yes	2.68	0.02	4.0	GoodResponse	1	0.22	141.84	4	14	Cue	Win	False
142.84	0.3	Win2	1.0	0.0	Yes	2.68	0.02	4.0	GoodResponse	1	0.22	n/a	4	14	ButtonPress	Win	False
142.869	4.1	Win2	1.0	0.001	Yes	2.68	-0.001	n/a	GoodResponse	1	n/a	n/a	4	14	Fixation	Win	False
146.968	0.26	Win2	1.0	0.002	Yes	2.68	-0.002	4.0	GoodResponse	1	0.212	146.18	4	14	Target	Win	False
147.18	0.3	Win2	1.0	0.002	Yes	2.68	-0.002	4.0	GoodResponse	1	0.212	n/a	4	14	ButtonPress	Win	False
147.235	0.44	Win2	1.0	n/a	Yes	2.68	n/a	n/a	GoodResponse	1	n/a	n/a	4	14	Blank	Win	False
147.668	1.45	Win2	1.0	n/a	Yes	2.68	n/a	5.0	GoodResponse	1	0.017	146.685	4	14	Feedback	Win	False
149.117	2.68	Win2	1.0	n/a	Yes	2.68	n/a	n/a	GoodResponse	1	0.0	n/a	4	14	ISIslide	Win	False
151.816	0.25	Control	1.0	0.001	Yes	2.984	0.016	n/a	GoodResponse	0	n/a	n/a	4	15	Cue	Neutral	True
152.066	4.0	Control	1.0	0.0	Yes	2.984	0.0	n/a	GoodResponse	0	n/a	n/a	4	15	Fixation	Neutral	True
156.065	0.25	Control	1.0	0.001	Yes	2.984	-0.001	4.0	GoodResponse	0	0.229	155.294	4	15	Target	Neutral	True
156.294	0.3	Control	1.0	0.001	Yes	2.984	-0.001	4.0	GoodResponse	0	0.229	n/a	4	15	ButtonPress	Neutral	True
156.315	0.45	Control	1.0	n/a	Yes	2.984	n/a	n/a	GoodResponse	0	n/a	n/a	4	15	Blank	Neutral	True
156.765	1.45	Control	1.0	n/a	Yes	2.984	n/a	5.0	GoodResponse	0	0.042	155.807	4	15	Feedback	Neutral	True
158.214	2.984	Control	1.0	n/a	Yes	2.984	n/a	n/a	GoodResponse	0	0.0	n/a	4	15	ISIslide	Neutral	True
161.213	0.25	Win2	0.9412	0.0	No	2.887	0.013	4.0	NoResponse	0	0.243	160.456	4	16	Cue	MissedWin	False
161.456	0.3	Win2	0.9412	0.0	No	2.887	0.013	4.0	NoResponse	0	0.243	n/a	4	16	ButtonPress	MissedWin	False
161.463	4.0	Win2	0.9412	0.0	No	2.887	0.0	n/a	NoResponse	0	n/a	n/a	4	16	Fixation	MissedWin	False
165.462	0.24	Win2	0.9412	0.001	No	2.887	-0.001	4.0	NoResponse	0	0.318	164.78	4	16	Target	MissedWin	False
165.712	0.46	Win2	0.9412	n/a	No	2.887	n/a	n/a	NoResponse	0	n/a	n/a	4	16	Blank	MissedWin	False
165.78	0.3	Win2	0.9412	0.001	No	2.887	-0.001	4.0	NoResponse	0	0.318	n/a	4	16	ButtonPress	MissedWin	False
166.162	1.45	Win2	0.9412	n/a	No	2.887	n/a	5.0	NoResponse	0	0.011	165.173	4	16	Feedback	MissedWin	False
167.611	2.887	Win2	0.9412	n/a	No	2.887	n/a	n/a	NoResponse	0	0.0	n/a	4	16	ISIslide	MissedWin	False
170.527	0.25	Lose2	0.9444	0.0	Yes	2.723	0.027	4.0	GoodResponse	0	0.245	169.772	4	17	Cue	AvoidedLoss	False
170.772	0.3	Lose2	0.9444	0.0	Yes	2.723	0.027	4.0	GoodResponse	0	0.245	n/a	4	17	ButtonPress	AvoidedLoss	False
170.777	3.95	Lose2	0.9444	0.0	Yes	2.723	0.0	n/a	GoodResponse	0	n/a	n/a	4	17	Fixation	AvoidedLoss	False
174.725	0.23	Lose2	0.9444	0.002	Yes	2.723	-0.002	4.0	GoodResponse	0	0.221	173.946	4	17	Target	AvoidedLoss	False
174.946	0.3	Lose2	0.9444	0.002	Yes	2.723	-0.002	4.0	GoodResponse	0	0.221	n/a	4	17	ButtonPress	AvoidedLoss	False
174.958	0.47	Lose2	0.9444	n/a	Yes	2.723	n/a	n/a	GoodResponse	0	n/a	n/a	4	17	Blank	AvoidedLoss	False
175.425	1.45	Lose2	0.9444	n/a	Yes	2.723	n/a	5.0	GoodResponse	0	0.017	174.442	4	17	Feedback	AvoidedLoss	False
176.875	2.723	Lose2	0.9444	n/a	Yes	2.723	n/a	n/a	GoodResponse	0	0.0	n/a	4	17	ISIslide	AvoidedLoss	False
179.624	0.25	Lose2	0.8946999999999999	0.0	No	2.726	0.024	n/a	NoResponse	-1	n/a	n/a	3	18	Cue	Loss	True
179.873	4.05	Lose2	0.8946999999999999	0.001	No	2.726	-0.001	n/a	NoResponse	-1	n/a	n/a	3	18	Fixation	Loss	True
183.922	0.22	Lose2	0.8946999999999999	0.002	No	2.726	-0.002	4.0	NoResponse	-1	0.264	183.186	3	18	Target	Loss	True
184.155	0.48	Lose2	0.8946999999999999	n/a	No	2.726	n/a	n/a	NoResponse	-1	n/a	n/a	3	18	Blank	Loss	True
184.186	0.3	Lose2	0.8946999999999999	0.002	No	2.726	-0.002	4.0	NoResponse	-1	0.264	n/a	3	18	ButtonPress	Loss	True
184.622	1.45	Lose2	0.8946999999999999	n/a	No	2.726	n/a	5.0	NoResponse	-1	0.039	183.661	3	18	Feedback	Loss	True
186.071	2.726	Lose2	0.8946999999999999	n/a	No	2.726	n/a	n/a	NoResponse	-1	0.0	n/a	3	18	ISIslide	Loss	True
188.82	0.25	Control	0.85	0.001	No	2.93	0.02	n/a	NoResponse	0	n/a	n/a	3	19	Cue	Neutral	True
189.07	3.95	Control	0.85	0.0	No	2.93	0.0	n/a	NoResponse	0	n/a	n/a	3	19	Fixation	Neutral	True
193.019	0.21	Control	0.85	0.001	No	2.93	-0.001	4.0	NoResponse	0	0.272	192.291	3	19	Target	Neutral	True
193.236	0.49	Control	0.85	n/a	No	2.93	n/a	n/a	NoResponse	0	n/a	n/a	3	19	Blank	Neutral	True
193.291	0.3	Control	0.85	0.001	No	2.93	-0.001	4.0	NoResponse	0	0.272	n/a	3	19	ButtonPress	Neutral	True
193.719	1.45	Control	0.85	n/a	No	2.93	n/a	5.0	NoResponse	0	0.015	192.734	3	19	Feedback	Neutral	True
195.168	2.93	Control	0.85	n/a	No	2.93	n/a	n/a	NoResponse	0	0.0	n/a	3	19	ISIslide	Neutral	True
198.117	0.25	Control	0.8095	0.0	No	2.633	0.017	n/a	NoResponse	0	n/a	n/a	3	20	Cue	Neutral	False
198.367	4.05	Control	0.8095	0.0	No	2.633	0.0	4.0	NoResponse	0	0.106	197.473	3	20	Fixation	Neutral	False
198.473	0.3	Control	0.8095	0.0	No	2.633	0.0	4.0	NoResponse	0	0.106	n/a	3	20	ButtonPress	Neutral	False
202.416	0.2	Control	0.8095	0.001	No	2.633	-0.001	4.0	NoResponse	0	0.215	201.631	3	20	Target	Neutral	False
202.616	0.5	Control	0.8095	n/a	No	2.633	n/a	n/a	NoResponse	0	n/a	n/a	3	20	Blank	Neutral	False
202.631	0.3	Control	0.8095	0.001	No	2.633	-0.001	4.0	NoResponse	0	0.215	n/a	3	20	ButtonPress	Neutral	False
203.116	1.45	Control	0.8095	n/a	No	2.633	n/a	5.0	NoResponse	0	0.033	202.149	3	20	Feedback	Neutral	False
204.565	2.633	Control	0.8095	n/a	No	2.633	n/a	n/a	NoResponse	0	0.0	n/a	3	20	ISIslide	Neutral	False
207.214	0.25	Control	0.7726999999999999	0.0	No	2.786	0.014	n/a	NoResponse	0	n/a	n/a	3	21	Cue	Neutral	False
207.464	4.1	Control	0.7726999999999999	0.0	No	2.786	0.0	4.0	NoResponse	0	0.038	206.502	3	21	Fixation	Neutral	False
207.502	0.3	Control	0.7726999999999999	0.0	No	2.786	0.0	4.0	NoResponse	0	0.038	n/a	3	21	ButtonPress	Neutral	False
211.563	0.19	Control	0.7726999999999999	0.001	No	2.786	-0.001	4.0	NoResponse	0	0.207	210.77	3	21	Target	Neutral	False
211.763	0.51	Control	0.7726999999999999	n/a	No	2.786	n/a	n/a	NoResponse	0	n/a	n/a	3	21	Blank	Neutral	False
211.77	0.3	Control	0.7726999999999999	0.001	No	2.786	-0.001	4.0	NoResponse	0	0.207	n/a	3	21	ButtonPress	Neutral	False
212.262	1.45	Control	0.7726999999999999	n/a	No	2.786	n/a	5.0	NoResponse	0	0.008	211.27	3	21	Feedback	Neutral	False
213.712	2.786	Control	0.7726999999999999	n/a	No	2.786	n/a	n/a	NoResponse	0	0.0	n/a	3	21	ISIslide	Neutral	False
216.511	0.25	Control	0.7391	0.0	No	2.789	0.011	4.0	NoResponse	0	0.205	215.716	3	22	Cue	Neutral	False
216.716	0.3	Control	0.7391	0.0	No	2.789	0.011	4.0	NoResponse	0	0.205	n/a	3	22	ButtonPress	Neutral	False
216.761	4.0	Control	0.7391	0.0	No	2.789	0.0	n/a	NoResponse	0	n/a	n/a	3	22	Fixation	Neutral	False
220.759	0.18	Control	0.7391	0.002	No	2.789	-0.002	4.0	NoResponse	0	0.241	220.0	3	22	Target	Neutral	False
220.943	0.52	Control	0.7391	n/a	No	2.789	n/a	n/a	NoResponse	0	n/a	n/a	3	22	Blank	Neutral	False
221	0.3	Control	0.7391	0.002	No	2.789	-0.002	4.0	NoResponse	0	0.241	n/a	3	22	ButtonPress	Neutral	False
221.459	1.45	Control	0.7391	n/a	No	2.789	n/a	5.0	NoResponse	0	0.031	220.49	3	22	Feedback	Neutral	False
222.909	2.789	Control	0.7391	n/a	No	2.789	n/a	n/a	NoResponse	0	0.0	n/a	3	22	ISIslide	Neutral	False
225.724	0.25	Control	0.7082999999999999	0.001	No	2.776	0.024	4.0	NoResponse	0	0.223	224.947	3	23	Cue	Neutral	False
225.947	0.3	Control	0.7082999999999999	0.001	No	2.776	0.024	4.0	NoResponse	0	0.223	n/a	3	23	ButtonPress	Neutral	False
225.974	3.9	Control	0.7082999999999999	0.0	No	2.776	0.0	n/a	NoResponse	0	n/a	n/a	3	23	Fixation	Neutral	False
229.873	0.17	Control	0.7082999999999999	0.001	No	2.776	-0.001	4.0	NoResponse	0	0.229	229.102	3	23	Target	Neutral	False
230.04	0.53	Control	0.7082999999999999	n/a	No	2.776	n/a	n/a	NoResponse	0	n/a	n/a	3	23	Blank	Neutral	False
230.102	0.3	Control	0.7082999999999999	0.001	No	2.776	-0.001	4.0	NoResponse	0	0.229	n/a	3	23	ButtonPress	Neutral	False
230.573	1.45	Control	0.7082999999999999	n/a	No	2.776	n/a	5.0	NoResponse	0	0.039	229.612	3	23	Feedback	Neutral	False
232.022	2.776	Control	0.7082999999999999	n/a	No	2.776	n/a	n/a	NoResponse	0	0.0	n/a	3	23	ISIslide	Neutral	False
234.821	0.25	Win2	0.68	0.0	No	3.129	0.021	4.0	NoResponse	0	0.227	234.048	3	24	Cue	MissedWin	False
235.048	0.3	Win2	0.68	0.0	No	3.129	0.021	4.0	NoResponse	0	0.227	n/a	3	24	ButtonPress	MissedWin	False
235.071	3.95	Win2	0.68	0.0	No	3.129	0.0	n/a	NoResponse	0	n/a	n/a	3	24	Fixation	MissedWin	False
239.02	0.16	Win2	0.68	0.001	No	3.129	-0.001	4.0	NoResponse	0	0.189	238.209	3	24	Target	MissedWin	False
239.187	0.54	Win2	0.68	n/a	No	3.129	n/a	n/a	NoResponse	0	n/a	n/a	3	24	Blank	MissedWin	False
239.209	0.3	Win2	0.68	0.001	No	3.129	-0.001	4.0	NoResponse	0	0.189	n/a	3	24	ButtonPress	MissedWin	False
239.72	1.45	Win2	0.68	n/a	No	3.129	n/a	5.0	NoResponse	0	0.014	238.734	3	24	Feedback	MissedWin	False
241.169	3.129	Win2	0.68	n/a	No	3.129	n/a	n/a	NoResponse	0	0.0	n/a	3	24	ISIslide	MissedWin	False
244.318	0.25	Win2	0.6537999999999999	0.0	No	3.082	0.018	4.0	NoResponse	0	0.22	243.538	3	25	Cue	MissedWin	False
244.538	0.3	Win2	0.6537999999999999	0.0	No	3.082	0.018	4.0	NoResponse	0	0.22	n/a	3	25	ButtonPress	MissedWin	False
244.568	4.0	Win2	0.6537999999999999	0.0	No	3.082	0.0	n/a	NoResponse	0	n/a	n/a	3	25	Fixation	MissedWin	False
248.567	0.15	Win2	0.6537999999999999	0.001	No	3.082	-0.001	4.0	NoResponse	0	0.182	247.749	3	25	Target	MissedWin	False
248.717	0.55	Win2	0.6537999999999999	n/a	No	3.082	n/a	n/a	NoResponse	0	n/a	n/a	3	25	Blank	MissedWin	False
248.749	0.3	Win2	0.6537999999999999	0.001	No	3.082	-0.001	4.0	NoResponse	0	0.182	n/a	3	25	ButtonPress	MissedWin	False
249.266	1.45	Win2	0.6537999999999999	n/a	No	3.082	n/a	5.0	NoResponse	0	0.029	248.295	3	25	Feedback	MissedWin	False
250.716	3.082	Win2	0.6537999999999999	n/a	No	3.082	n/a	n/a	NoResponse	0	0.0	n/a	3	25	ISIslide	MissedWin	False
253.815	0.25	Win2	0.6296	0.0	No	2.935	0.015	4.0	NoResponse	0	0.198	253.013	3	26	Cue	MissedWin	False
254.013	0.3	Win2	0.6296	0.0	No	2.935	0.015	4.0	NoResponse	0	0.198	n/a	3	26	ButtonPress	MissedWin	False
254.065	3.95	Win2	0.6296	0.0	No	2.935	0.0	n/a	NoResponse	0	n/a	n/a	3	26	Fixation	MissedWin	False
258.013	0.16	Win2	0.6296	0.002	No	2.935	-0.002	4.0	NoResponse	0	0.195	257.208	3	26	Target	MissedWin	False
258.18	0.54	Win2	0.6296	n/a	No	2.935	n/a	n/a	NoResponse	0	n/a	n/a	3	26	Blank	MissedWin	False
258.208	0.3	Win2	0.6296	0.002	No	2.935	-0.002	4.0	NoResponse	0	0.195	n/a	3	26	ButtonPress	MissedWin	False
258.713	1.45	Win2	0.6296	n/a	No	2.935	n/a	5.0	NoResponse	0	0.046	257.759	3	26	Feedback	MissedWin	False
260.163	2.935	Win2	0.6296	n/a	No	2.935	n/a	4.0	NoResponse	0	1.972	n/a	3	26	ISIslide	MissedWin	False
263.112	0.25	Lose2	0.6071	0.0	No	2.838	0.012	4.0	NoResponse	-1	0.23	262.342	2	27	Cue	Loss	False
263.342	0.3	Lose2	0.6071	0.0	No	2.838	0.012	4.0	NoResponse	-1	0.23	n/a	2	27	ButtonPress	Loss	False
263.362	4.05	Lose2	0.6071	0.0	No	2.838	0.0	n/a	NoResponse	-1	n/a	n/a	2	27	Fixation	Loss	False
267.41	0.17	Lose2	0.6071	0.002	No	2.838	-0.002	4.0	NoResponse	-1	0.206	266.616	2	27	Target	Loss	False
267.593	0.53	Lose2	0.6071	n/a	No	2.838	n/a	n/a	NoResponse	-1	n/a	n/a	2	27	Blank	Loss	False
267.616	0.3	Lose2	0.6071	0.002	No	2.838	-0.002	4.0	NoResponse	-1	0.206	n/a	2	27	ButtonPress	Loss	False
268.11	1.45	Lose2	0.6071	n/a	No	2.838	n/a	5.0	NoResponse	-1	0.015	267.125	2	27	Feedback	Loss	False
269.559	2.838	Lose2	0.6071	n/a	No	2.838	n/a	n/a	NoResponse	-1	0.0	n/a	2	27	ISIslide	Loss	False
272.425	0.25	Control	0.5861999999999999	0.0	No	2.825	0.025	n/a	NoResponse	0	n/a	n/a	2	28	Cue	Neutral	False
272.675	4.05	Control	0.5861999999999999	0.0	No	2.825	0.0	4.0	NoResponse	0	0.051	271.726	2	28	Fixation	Neutral	False
272.726	0.3	Control	0.5861999999999999	0.0	No	2.825	0.0	4.0	NoResponse	0	0.051	n/a	2	28	ButtonPress	Neutral	False
276.724	0.18	Control	0.5861999999999999	0.001	No	2.825	-0.001	4.0	NoResponse	0	0.219	275.943	2	28	Target	Neutral	False
276.907	0.52	Control	0.5861999999999999	n/a	No	2.825	n/a	n/a	NoResponse	0	n/a	n/a	2	28	Blank	Neutral	False
276.943	0.3	Control	0.5861999999999999	0.001	No	2.825	-0.001	4.0	NoResponse	0	0.219	n/a	2	28	ButtonPress	Neutral	False
277.423	1.45	Control	0.5861999999999999	n/a	No	2.825	n/a	5.0	NoResponse	0	0.019	276.442	2	28	Feedback	Neutral	False
278.873	2.825	Control	0.5861999999999999	n/a	No	2.825	n/a	n/a	NoResponse	0	0.0	n/a	2	28	ISIslide	Neutral	False
281.722	0.25	Lose2	0.5667	0.0	No	2.828	0.022	n/a	NoResponse	-1	n/a	n/a	1	29	Cue	Loss	True
281.972	3.95	Lose2	0.5667	0.0	No	2.828	0.0	n/a	NoResponse	-1	n/a	n/a	1	29	Fixation	Loss	True
285.921	0.19	Lose2	0.5667	0.001	No	2.828	-0.001	4.0	NoResponse	-1	0.336	285.257	1	29	Target	Loss	True
286.12	0.51	Lose2	0.5667	n/a	No	2.828	n/a	n/a	NoResponse	-1	n/a	n/a	1	29	Blank	Loss	True
286.257	0.3	Lose2	0.5667	0.001	No	2.828	-0.001	4.0	NoResponse	-1	0.336	n/a	1	29	ButtonPress	Loss	True
286.62	1.45	Lose2	0.5667	n/a	No	2.828	n/a	5.0	NoResponse	-1	0.04	285.66	1	29	Feedback	Loss	True
288.07	2.828	Lose2	0.5667	n/a	No	2.828	n/a	n/a	NoResponse	-1	0.0	n/a	1	29	ISIslide	Loss	True
290.919	0.25	Win2	0.5806	0.0	Yes	2.781	0.019	4.0	GoodResponse	1	0.196	290.115	2	30	Cue	Win	False
291.115	0.3	Win2	0.5806	0.0	Yes	2.781	0.019	4.0	GoodResponse	1	0.196	n/a	2	30	ButtonPress	Win	False
291.169	3.9	Win2	0.5806	0.0	Yes	2.781	0.0	n/a	GoodResponse	1	n/a	n/a	2	30	Fixation	Win	False
295.067	0.2	Win2	0.5806	0.002	Yes	2.781	-0.002	4.0	GoodResponse	1	0.198	294.265	2	30	Target	Win	False
295.265	0.3	Win2	0.5806	0.002	Yes	2.781	-0.002	4.0	GoodResponse	1	0.198	n/a	2	30	ButtonPress	Win	False
295.267	0.5	Win2	0.5806	n/a	Yes	2.781	n/a	n/a	GoodResponse	1	n/a	n/a	2	30	Blank	Win	False
295.767	1.45	Win2	0.5806	n/a	Yes	2.781	n/a	5.0	GoodResponse	1	0.016	294.783	2	30	Feedback	Win	False
297.217	2.781	Win2	0.5806	n/a	Yes	2.781	n/a	n/a	GoodResponse	1	0.0	n/a	2	30	ISIslide	Win	False
300.016	0.25	Lose2	0.5625	0.0	No	2.834	0.016	n/a	NoResponse	-1	n/a	n/a	1	31	Cue	Loss	True
300.266	4.05	Lose2	0.5625	0.0	No	2.834	0.0	n/a	NoResponse	-1	n/a	n/a	1	31	Fixation	Loss	True
304.314	0.21	Lose2	0.5625	0.002	No	2.834	-0.002	4.0	NoResponse	-1	0.222	303.536	1	31	Target	Loss	True
304.531	0.49	Lose2	0.5625	n/a	No	2.834	n/a	n/a	NoResponse	-1	n/a	n/a	1	31	Blank	Loss	True
304.536	0.3	Lose2	0.5625	0.002	No	2.834	-0.002	4.0	NoResponse	-1	0.222	n/a	1	31	ButtonPress	Loss	True
305.014	1.45	Lose2	0.5625	n/a	No	2.834	n/a	5.0	NoResponse	-1	0.037	304.051	1	31	Feedback	Loss	True
306.463	2.834	Lose2	0.5625	n/a	No	2.834	n/a	n/a	NoResponse	-1	0.0	n/a	1	31	ISIslide	Loss	True
309.312	0.25	Lose2	0.5758	0.001	Yes	2.638	0.012	n/a	GoodResponse	0	n/a	n/a	1	32	Cue	AvoidedLoss	False
309.562	4.15	Lose2	0.5758	0.001	Yes	2.638	0.0	4.0	GoodResponse	0	0.027	308.589	1	32	Fixation	AvoidedLoss	False
309.589	0.3	Lose2	0.5758	0.001	Yes	2.638	0.0	4.0	GoodResponse	0	0.027	n/a	1	32	ButtonPress	AvoidedLoss	False
313.711	0.22	Lose2	0.5758	0.001	Yes	2.638	-0.001	4.0	GoodResponse	0	0.214	312.925	1	32	Target	AvoidedLoss	False
313.925	0.3	Lose2	0.5758	0.001	Yes	2.638	-0.001	4.0	GoodResponse	0	0.214	n/a	1	32	ButtonPress	AvoidedLoss	False
313.928	0.48	Lose2	0.5758	n/a	Yes	2.638	n/a	n/a	GoodResponse	0	n/a	n/a	1	32	Blank	AvoidedLoss	False
314.411	1.45	Lose2	0.5758	n/a	Yes	2.638	n/a	5.0	GoodResponse	0	0.006	313.417	1	32	Feedback	AvoidedLoss	False
315.86	2.638	Lose2	0.5758	n/a	Yes	2.638	n/a	n/a	GoodResponse	0	0.0	n/a	1	32	ISIslide	AvoidedLoss	False
318.526	0.25	Win2	0.5882000000000001	0.0	Yes	2.674	0.026	n/a	GoodResponse	1	n/a	n/a	2	33	Cue	Win	True
318.776	4.0	Win2	0.5882000000000001	0.0	Yes	2.674	0.0	n/a	GoodResponse	1	n/a	n/a	2	33	Fixation	Win	True
322.775	0.23	Win2	0.5882000000000001	0.001	Yes	2.674	-0.001	4.0	GoodResponse	1	0.207	321.982	2	33	Target	Win	True
322.982	0.3	Win2	0.5882000000000001	0.001	Yes	2.674	-0.001	4.0	GoodResponse	1	0.207	n/a	2	33	ButtonPress	Win	True
323.008	0.47	Win2	0.5882000000000001	n/a	Yes	2.674	n/a	n/a	GoodResponse	1	n/a	n/a	2	33	Blank	Win	True
323.474	1.45	Win2	0.5882000000000001	n/a	Yes	2.674	n/a	5.0	GoodResponse	1	0.016	322.49	2	33	Feedback	Win	True
324.924	2.674	Win2	0.5882000000000001	n/a	Yes	2.674	n/a	n/a	GoodResponse	1	0.0	n/a	2	33	ISIslide	Win	True
327.623	0.25	Lose2	0.5714	0.0	No	2.627	0.023	n/a	NoResponse	-1	n/a	n/a	1	34	Cue	Loss	False
327.873	4.05	Lose2	0.5714	0.0	No	2.627	0.0	n/a	NoResponse	-1	n/a	n/a	1	34	Fixation	Loss	False
331.921	0.24	Lose2	0.5714	0.002	No	2.627	-0.002	n/a	NoResponse	-1	n/a	n/a	1	34	Target	Loss	False
332.171	0.46	Lose2	0.5714	n/a	No	2.627	n/a	n/a	NoResponse	-1	n/a	n/a	1	34	Blank	Loss	False
332.621	1.45	Lose2	0.5714	n/a	No	2.627	n/a	5.0	NoResponse	-1	0.04	331.661	1	34	Feedback	Loss	False
334.071	2.627	Lose2	0.5714	n/a	No	2.627	n/a	n/a	NoResponse	-1	0.0	n/a	1	34	ISIslide	Loss	False
336.72	0.25	Lose2	0.5832999999999999	0.0	Yes	2.68	0.02	n/a	GoodResponse	0	n/a	n/a	1	35	Cue	AvoidedLoss	True
336.97	4.0	Lose2	0.5832999999999999	0.0	Yes	2.68	0.0	n/a	GoodResponse	0	n/a	n/a	1	35	Fixation	AvoidedLoss	True
340.968	0.25	Lose2	0.5832999999999999	0.002	Yes	2.68	-0.002	4.0	GoodResponse	0	0.213	340.181	1	35	Target	AvoidedLoss	True
341.181	0.3	Lose2	0.5832999999999999	0.002	Yes	2.68	-0.002	4.0	GoodResponse	0	0.213	n/a	1	35	ButtonPress	AvoidedLoss	True
341.218	0.45	Lose2	0.5832999999999999	n/a	Yes	2.68	n/a	n/a	GoodResponse	0	n/a	n/a	1	35	Blank	AvoidedLoss	True
341.668	1.45	Lose2	0.5832999999999999	n/a	Yes	2.68	n/a	5.0	GoodResponse	0	0.018	340.686	1	35	Feedback	AvoidedLoss	True
343.118	2.68	Lose2	0.5832999999999999	n/a	Yes	2.68	n/a	n/a	GoodResponse	0	0.0	n/a	1	35	ISIslide	AvoidedLoss	True
345.817	0.25	Control	0.5946	0.0	Yes	2.683	0.017	4.0	GoodResponse	0	0.211	345.028	1	36	Cue	Neutral	False
346.028	0.3	Control	0.5946	0.0	Yes	2.683	0.017	4.0	GoodResponse	0	0.211	n/a	1	36	ButtonPress	Neutral	False
346.067	4.0	Control	0.5946	0.0	Yes	2.683	0.0	n/a	GoodResponse	0	n/a	n/a	1	36	Fixation	Neutral	False
350.065	0.26	Control	0.5946	0.002	Yes	2.683	-0.002	4.0	GoodResponse	0	0.204	349.269	1	36	Target	Neutral	False
350.269	0.3	Control	0.5946	0.002	Yes	2.683	-0.002	4.0	GoodResponse	0	0.204	n/a	1	36	ButtonPress	Neutral	False
350.332	0.44	Control	0.5946	n/a	Yes	2.683	n/a	n/a	GoodResponse	0	n/a	n/a	1	36	Blank	Neutral	False
350.765	1.45	Control	0.5946	n/a	Yes	2.683	n/a	5.0	GoodResponse	0	0.043	349.808	1	36	Feedback	Neutral	False
352.214	2.683	Control	0.5946	n/a	Yes	2.683	n/a	n/a	GoodResponse	0	0.0	n/a	1	36	ISIslide	Neutral	False
354.914	0.25	Win2	0.6053000000000001	0.0	Yes	2.886	0.014	4.0	GoodResponse	1	0.222	354.136	2	37	Cue	Win	False
355.136	0.3	Win2	0.6053000000000001	0.0	Yes	2.886	0.014	4.0	GoodResponse	1	0.222	n/a	2	37	ButtonPress	Win	False
355.163	4.0	Win2	0.6053000000000001	0.001	Yes	2.886	-0.001	n/a	GoodResponse	1	n/a	n/a	2	37	Fixation	Win	False
359.162	0.27	Win2	0.6053000000000001	0.002	Yes	2.886	-0.002	4.0	GoodResponse	1	0.206	358.368	2	37	Target	Win	False
359.368	0.3	Win2	0.6053000000000001	0.002	Yes	2.886	-0.002	4.0	GoodResponse	1	0.206	n/a	2	37	ButtonPress	Win	False
359.445	0.43	Win2	0.6053000000000001	n/a	Yes	2.886	n/a	n/a	GoodResponse	1	n/a	n/a	2	37	Blank	Win	False
359.862	1.45	Win2	0.6053000000000001	n/a	Yes	2.886	n/a	5.0	GoodResponse	1	0.019	358.881	2	37	Feedback	Win	False
361.311	2.886	Win2	0.6053000000000001	n/a	Yes	2.886	n/a	n/a	GoodResponse	1	0.0	n/a	2	37	ISIslide	Win	False
364.227	0.25	Lose2	0.6154	0.0	Yes	2.823	0.027	4.0	GoodResponse	0	0.228	363.455	2	38	Cue	AvoidedLoss	False
364.455	0.3	Lose2	0.6154	0.0	Yes	2.823	0.027	4.0	GoodResponse	0	0.228	n/a	2	38	ButtonPress	AvoidedLoss	False
364.477	3.95	Lose2	0.6154	0.0	Yes	2.823	0.0	n/a	GoodResponse	0	n/a	n/a	2	38	Fixation	AvoidedLoss	False
368.426	0.28	Lose2	0.6154	0.001	Yes	2.823	-0.001	4.0	GoodResponse	0	0.187	367.613	2	38	Target	AvoidedLoss	False
368.613	0.3	Lose2	0.6154	0.001	Yes	2.823	-0.001	4.0	GoodResponse	0	0.187	n/a	2	38	ButtonPress	AvoidedLoss	False
368.709	0.42	Lose2	0.6154	n/a	Yes	2.823	n/a	n/a	GoodResponse	0	n/a	n/a	2	38	Blank	AvoidedLoss	False
369.125	1.45	Lose2	0.6154	n/a	Yes	2.823	n/a	5.0	GoodResponse	0	0.023	368.148	2	38	Feedback	AvoidedLoss	False
370.575	2.823	Lose2	0.6154	n/a	Yes	2.823	n/a	n/a	GoodResponse	0	0.0	n/a	2	38	ISIslide	AvoidedLoss	False
373.424	0.25	Win2	0.625	0.0	Yes	2.976	0.024	n/a	GoodResponse	1	n/a	n/a	3	39	Cue	Win	False
373.674	4.1	Win2	0.625	0.0	Yes	2.976	0.0	4.0	GoodResponse	1	0.015	372.689	3	39	Fixation	Win	False
373.689	0.3	Win2	0.625	0.0	Yes	2.976	0.0	4.0	GoodResponse	1	0.015	n/a	3	39	ButtonPress	Win	False
377.772	0.29	Win2	0.625	0.002	Yes	2.976	-0.002	4.0	GoodResponse	1	0.227	376.999	3	39	Target	Win	False
377.999	0.3	Win2	0.625	0.002	Yes	2.976	-0.002	4.0	GoodResponse	1	0.227	n/a	3	39	ButtonPress	Win	False
378.072	0.41	Win2	0.625	n/a	Yes	2.976	n/a	n/a	GoodResponse	1	n/a	n/a	3	39	Blank	Win	False
378.472	1.45	Win2	0.625	n/a	Yes	2.976	n/a	5.0	GoodResponse	1	0.042	377.514	3	39	Feedback	Win	False
379.922	2.976	Win2	0.625	n/a	Yes	2.976	n/a	n/a	GoodResponse	1	0.0	n/a	3	39	ISIslide	Win	False
382.921	0.25	Win2	0.6341	0.0	Yes	2.729	0.021	4.0	GoodResponse	1	0.222	382.143	4	40	Cue	Win	False
383.143	0.3	Win2	0.6341	0.0	Yes	2.729	0.021	4.0	GoodResponse	1	0.222	n/a	4	40	ButtonPress	Win	False
383.171	3.95	Win2	0.6341	0.0	Yes	2.729	0.0	n/a	GoodResponse	1	n/a	n/a	4	40	Fixation	Win	False
387.119	0.3	Win2	0.6341	0.002	Yes	2.729	-0.002	4.0	GoodResponse	1	0.203	386.322	4	40	Target	Win	False
387.322	0.3	Win2	0.6341	0.002	Yes	2.729	-0.002	4.0	GoodResponse	1	0.203	n/a	4	40	ButtonPress	Win	False
387.419	0.4	Win2	0.6341	n/a	Yes	2.729	n/a	n/a	GoodResponse	1	n/a	n/a	4	40	Blank	Win	False
387.819	1.45	Win2	0.6341	n/a	Yes	2.729	n/a	5.0	GoodResponse	1	0.013	386.832	4	40	Feedback	Win	False
389.268	2.729	Win2	0.6341	n/a	Yes	2.729	n/a	n/a	GoodResponse	1	0.0	n/a	4	40	ISIslide	Win	False
392.018	0.25	Win2	0.6429	0.0	Yes	2.782	0.018	4.0	GoodResponse	1	0.216	391.234	5	41	Cue	Win	False
392.234	0.3	Win2	0.6429	0.0	Yes	2.782	0.018	4.0	GoodResponse	1	0.216	n/a	5	41	ButtonPress	Win	False
392.267	3.9	Win2	0.6429	0.001	Yes	2.782	-0.001	n/a	GoodResponse	1	n/a	n/a	5	41	Fixation	Win	False
396.166	0.31	Win2	0.6429	0.002	Yes	2.782	-0.002	4.0	GoodResponse	1	0.167	395.333	5	41	Target	Win	False
396.333	0.3	Win2	0.6429	0.002	Yes	2.782	-0.002	4.0	GoodResponse	1	0.167	n/a	5	41	ButtonPress	Win	False
396.483	0.39	Win2	0.6429	n/a	Yes	2.782	n/a	n/a	GoodResponse	1	n/a	n/a	5	41	Blank	Win	False
396.866	1.45	Win2	0.6429	n/a	Yes	2.782	n/a	5.0	GoodResponse	1	0.039	395.905	5	41	Feedback	Win	False
398.315	2.782	Win2	0.6429	n/a	Yes	2.782	n/a	n/a	GoodResponse	1	0.0	n/a	5	41	ISIslide	Win	False
401.114	0.25	Control	0.6512	0.0	Yes	2.936	0.014	4.0	GoodResponse	0	0.24	400.354	5	42	Cue	Neutral	False
401.354	0.3	Control	0.6512	0.0	Yes	2.936	0.014	4.0	GoodResponse	0	0.24	n/a	5	42	ButtonPress	Neutral	False
401.364	3.85	Control	0.6512	0.0	Yes	2.936	0.0	n/a	GoodResponse	0	n/a	n/a	5	42	Fixation	Neutral	False
405.213	0.32	Control	0.6512	0.001	Yes	2.936	-0.001	4.0	GoodResponse	0	0.295	404.508	5	42	Target	Neutral	False
405.508	0.3	Control	0.6512	0.001	Yes	2.936	-0.001	4.0	GoodResponse	0	0.295	n/a	5	42	ButtonPress	Neutral	False
405.53	0.38	Control	0.6512	n/a	Yes	2.936	n/a	n/a	GoodResponse	0	n/a	n/a	5	42	Blank	Neutral	False
405.913	1.45	Control	0.6512	n/a	Yes	2.936	n/a	5.0	GoodResponse	0	0.016	404.929	5	42	Feedback	Neutral	False
407.362	2.936	Control	0.6512	n/a	Yes	2.936	n/a	n/a	GoodResponse	0	0.0	n/a	5	42	ISIslide	Neutral	False
410.328	0.25	Win2	0.6591	0.0	Yes	3.172	0.028	n/a	GoodResponse	1	n/a	n/a	6	43	Cue	Win	False
410.578	4.0	Win2	0.6591	0.0	Yes	3.172	0.0	4.0	GoodResponse	1	0.007	409.585	6	43	Fixation	Win	False
410.585	0.3	Win2	0.6591	0.0	Yes	3.172	0.0	4.0	GoodResponse	1	0.007	n/a	6	43	ButtonPress	Win	False
414.576	0.33	Win2	0.6591	0.002	Yes	3.172	-0.002	4.0	GoodResponse	1	0.216	413.792	6	43	Target	Win	False
414.792	0.3	Win2	0.6591	0.002	Yes	3.172	-0.002	4.0	GoodResponse	1	0.216	n/a	6	43	ButtonPress	Win	False
414.91	0.37	Win2	0.6591	n/a	Yes	3.172	n/a	n/a	GoodResponse	1	n/a	n/a	6	43	Blank	Win	False
415.276	1.45	Win2	0.6591	n/a	Yes	3.172	n/a	5.0	GoodResponse	1	0.019	414.295	6	43	Feedback	Win	False
416.726	3.172	Win2	0.6591	n/a	Yes	3.172	n/a	n/a	GoodResponse	1	0.0	n/a	6	43	ISIslide	Win	False
419.925	0.25	Win2	0.6667000000000001	0.0	Yes	2.975	0.025	4.0	GoodResponse	1	0.221	419.146	7	44	Cue	Win	False
420.146	0.3	Win2	0.6667000000000001	0.0	Yes	2.975	0.025	4.0	GoodResponse	1	0.221	n/a	7	44	ButtonPress	Win	False
420.175	4.0	Win2	0.6667000000000001	0.0	Yes	2.975	0.0	n/a	GoodResponse	1	n/a	n/a	7	44	Fixation	Win	False
424.173	0.33	Win2	0.6667000000000001	0.002	Yes	2.975	-0.002	4.0	GoodResponse	1	0.203	423.376	7	44	Target	Win	False
424.376	0.3	Win2	0.6667000000000001	0.002	Yes	2.975	-0.002	4.0	GoodResponse	1	0.203	n/a	7	44	ButtonPress	Win	False
424.506	0.37	Win2	0.6667000000000001	n/a	Yes	2.975	n/a	n/a	GoodResponse	1	n/a	n/a	7	44	Blank	Win	False
424.873	1.45	Win2	0.6667000000000001	n/a	Yes	2.975	n/a	5.0	GoodResponse	1	0.032	423.905	7	44	Feedback	Win	False
426.322	2.975	Win2	0.6667000000000001	n/a	Yes	2.975	n/a	n/a	GoodResponse	1	0.0	n/a	7	44	ISIslide	Win	False
429.321	0.25	Control	0.6522	0.001	No	2.879	0.021	4.0	NoResponse	0	0.206	428.527	7	45	Cue	Neutral	False
429.527	0.3	Control	0.6522	0.001	No	2.879	0.021	4.0	NoResponse	0	0.206	n/a	7	45	ButtonPress	Neutral	False
429.571	4.1	Control	0.6522	0.0	No	2.879	0.0	4.0	NoResponse	0	4.033	432.604	7	45	Fixation	Neutral	False
433.604	0.3	Control	0.6522	0.0	No	2.879	0.0	4.0	NoResponse	0	4.033	n/a	7	45	ButtonPress	Neutral	False
433.67	0.32	Control	0.6522	0.001	No	2.879	-0.001	n/a	NoResponse	0	n/a	n/a	7	45	Target	Neutral	False
433.986	0.38	Control	0.6522	n/a	No	2.879	n/a	n/a	NoResponse	0	n/a	n/a	7	45	Blank	Neutral	False
434.37	1.45	Control	0.6522	n/a	No	2.879	n/a	5.0	NoResponse	0	0.046	433.416	7	45	Feedback	Neutral	False
435.819	2.879	Control	0.6522	n/a	No	2.879	n/a	n/a	NoResponse	0	0.0	n/a	7	45	ISIslide	Neutral	False
438.718	0.25	Lose2	0.6596	0.0	Yes	3.382	0.018	4.0	GoodResponse	0	0.217	437.935	7	46	Cue	AvoidedLoss	False
438.935	0.3	Lose2	0.6596	0.0	Yes	3.382	0.018	4.0	GoodResponse	0	0.217	n/a	7	46	ButtonPress	AvoidedLoss	False
438.968	4.0	Lose2	0.6596	0.0	Yes	3.382	0.0	n/a	GoodResponse	0	n/a	n/a	7	46	Fixation	AvoidedLoss	False
442.967	0.33	Lose2	0.6596	0.001	Yes	3.382	-0.001	4.0	GoodResponse	0	0.194	442.161	7	46	Target	AvoidedLoss	False
443.161	0.3	Lose2	0.6596	0.001	Yes	3.382	-0.001	4.0	GoodResponse	0	0.194	n/a	7	46	ButtonPress	AvoidedLoss	False
443.3	0.37	Lose2	0.6596	n/a	Yes	3.382	n/a	n/a	GoodResponse	0	n/a	n/a	7	46	Blank	AvoidedLoss	False
443.667	1.45	Lose2	0.6596	n/a	Yes	3.382	n/a	5.0	GoodResponse	0	0.018	442.685	7	46	Feedback	AvoidedLoss	False
445.116	3.382	Lose2	0.6596	n/a	Yes	3.382	n/a	n/a	GoodResponse	0	0.0	n/a	7	46	ISIslide	AvoidedLoss	False
448.515	0.25	Lose2	0.6667000000000001	0.0	Yes	2.685	0.015	4.0	GoodResponse	0	0.205	447.72	7	47	Cue	AvoidedLoss	False
448.72	0.3	Lose2	0.6667000000000001	0.0	Yes	2.685	0.015	4.0	GoodResponse	0	0.205	n/a	7	47	ButtonPress	AvoidedLoss	False
448.765	4.0	Lose2	0.6667000000000001	0.0	Yes	2.685	0.0	n/a	GoodResponse	0	n/a	n/a	7	47	Fixation	AvoidedLoss	False
452.763	0.33	Lose2	0.6667000000000001	0.002	Yes	2.685	-0.002	4.0	GoodResponse	0	0.184	451.947	7	47	Target	AvoidedLoss	False
452.947	0.3	Lose2	0.6667000000000001	0.002	Yes	2.685	-0.002	4.0	GoodResponse	0	0.184	n/a	7	47	ButtonPress	AvoidedLoss	False
453.097	0.37	Lose2	0.6667000000000001	n/a	Yes	2.685	n/a	n/a	GoodResponse	0	n/a	n/a	7	47	Blank	AvoidedLoss	False
453.463	1.45	Lose2	0.6667000000000001	n/a	Yes	2.685	n/a	5.0	GoodResponse	0	0.027	452.49	7	47	Feedback	AvoidedLoss	False
454.913	2.685	Lose2	0.6667000000000001	n/a	Yes	2.685	n/a	n/a	GoodResponse	0	0.0	n/a	7	47	ISIslide	AvoidedLoss	False
457.628	0.25	Lose2	0.6735	0.0	Yes	3.022	0.028	n/a	GoodResponse	0	n/a	n/a	7	48	Cue	AvoidedLoss	True
457.878	3.95	Lose2	0.6735	0.0	Yes	3.022	0.0	n/a	GoodResponse	0	n/a	n/a	7	48	Fixation	AvoidedLoss	True
461.827	0.32	Lose2	0.6735	0.001	Yes	3.022	-0.001	4.0	GoodResponse	0	0.307	461.134	7	48	Target	AvoidedLoss	True
462.134	0.3	Lose2	0.6735	0.001	Yes	3.022	-0.001	4.0	GoodResponse	0	0.307	n/a	7	48	ButtonPress	AvoidedLoss	True
462.144	0.38	Lose2	0.6735	n/a	Yes	3.022	n/a	n/a	GoodResponse	0	n/a	n/a	7	48	Blank	AvoidedLoss	True
462.527	1.45	Lose2	0.6735	n/a	Yes	3.022	n/a	5.0	GoodResponse	0	0.036	461.563	7	48	Feedback	AvoidedLoss	True
463.976	3.022	Lose2	0.6735	n/a	Yes	3.022	n/a	n/a	GoodResponse	0	0.0	n/a	7	48	ISIslide	AvoidedLoss	True
467.025	0.25	Control	0.68	0.0	Yes	2.875	0.025	4.0	GoodResponse	0	0.186	466.211	7	49	Cue	Neutral	False
467.211	0.3	Control	0.68	0.0	Yes	2.875	0.025	4.0	GoodResponse	0	0.186	n/a	7	49	ButtonPress	Neutral	False
467.275	4.0	Control	0.68	0.0	Yes	2.875	0.0	n/a	GoodResponse	0	n/a	n/a	7	49	Fixation	Neutral	False
471.274	0.31	Control	0.68	0.001	Yes	2.875	-0.001	4.0	GoodResponse	0	0.26	470.534	7	49	Target	Neutral	False
471.534	0.3	Control	0.68	0.001	Yes	2.875	-0.001	4.0	GoodResponse	0	0.26	n/a	7	49	ButtonPress	Neutral	False
471.59	0.39	Control	0.68	n/a	Yes	2.875	n/a	n/a	GoodResponse	0	n/a	n/a	7	49	Blank	Neutral	False
471.973	1.45	Control	0.68	n/a	Yes	2.875	n/a	5.0	GoodResponse	0	0.008	470.981	7	49	Feedback	Neutral	False
473.423	2.875	Control	0.68	n/a	Yes	2.875	n/a	n/a	GoodResponse	0	0.0	n/a	7	49	ISIslide	Neutral	False
476.322	0.25	Control	0.6862999999999999	0.0	Yes	2.778	0.022	n/a	GoodResponse	0	n/a	n/a	7	50	Cue	Neutral	False
476.572	4.0	Control	0.6862999999999999	0.0	Yes	2.778	0.0	4.0	GoodResponse	0	0.02	475.592	7	50	Fixation	Neutral	False
476.592	0.3	Control	0.6862999999999999	0.0	Yes	2.778	0.0	4.0	GoodResponse	0	0.02	n/a	7	50	ButtonPress	Neutral	False
480.571	0.3	Control	0.6862999999999999	0.001	Yes	2.778	-0.001	4.0	GoodResponse	0	0.197	479.768	7	50	Target	Neutral	False
480.768	0.3	Control	0.6862999999999999	0.001	Yes	2.778	-0.001	4.0	GoodResponse	0	0.197	n/a	7	50	ButtonPress	Neutral	False
480.87	0.4	Control	0.6862999999999999	n/a	Yes	2.778	n/a	n/a	GoodResponse	0	n/a	n/a	7	50	Blank	Neutral	False
481.27	1.45	Control	0.6862999999999999	n/a	Yes	2.778	n/a	5.0	GoodResponse	0	0.025	480.295	7	50	Feedback	Neutral	False
482.72	2.778	Control	0.6862999999999999	n/a	Yes	2.778	n/a	n/a	GoodResponse	0	0.0	n/a	7	50	ISIslide	Neutral	False
485.519	0.25	Control	0.6923	0.0	Yes	2.731	0.019	n/a	GoodResponse	0	n/a	n/a	7	51	Cue	Neutral	False
485.769	3.95	Control	0.6923	0.0	Yes	2.731	0.0	4.0	GoodResponse	0	0.154	484.923	7	51	Fixation	Neutral	False
485.923	0.3	Control	0.6923	0.0	Yes	2.731	0.0	4.0	GoodResponse	0	0.154	n/a	7	51	ButtonPress	Neutral	False
489.717	0.29	Control	0.6923	0.002	Yes	2.731	-0.002	4.0	GoodResponse	0	0.235	488.952	7	51	Target	Neutral	False
489.952	0.3	Control	0.6923	0.002	Yes	2.731	-0.002	4.0	GoodResponse	0	0.235	n/a	7	51	ButtonPress	Neutral	False
490.017	0.41	Control	0.6923	n/a	Yes	2.731	n/a	n/a	GoodResponse	0	n/a	n/a	7	51	Blank	Neutral	False
490.417	1.45	Control	0.6923	n/a	Yes	2.731	n/a	5.0	GoodResponse	0	0.049	489.466	7	51	Feedback	Neutral	False
491.867	2.731	Control	0.6923	n/a	Yes	2.731	n/a	n/a	GoodResponse	0	0.0	n/a	7	51	ISIslide	Neutral	False
494.616	0.25	Control	0.6981	0.0	Yes	2.634	0.016	n/a	GoodResponse	0	n/a	n/a	7	52	Cue	Neutral	True
494.866	4.05	Control	0.6981	0.0	Yes	2.634	0.0	n/a	GoodResponse	0	n/a	n/a	7	52	Fixation	Neutral	True
498.914	0.28	Control	0.6981	0.002	Yes	2.634	-0.002	4.0	GoodResponse	0	0.259	498.173	7	52	Target	Neutral	True
499.173	0.3	Control	0.6981	0.002	Yes	2.634	-0.002	4.0	GoodResponse	0	0.259	n/a	7	52	ButtonPress	Neutral	True
499.197	0.42	Control	0.6981	n/a	Yes	2.634	n/a	n/a	GoodResponse	0	n/a	n/a	7	52	Blank	Neutral	True
499.614	1.45	Control	0.6981	n/a	Yes	2.634	n/a	5.0	GoodResponse	0	0.023	498.637	7	52	Feedback	Neutral	True
501.064	2.634	Control	0.6981	n/a	Yes	2.634	n/a	n/a	GoodResponse	0	0.0	n/a	7	52	ISIslide	Neutral	True
503.729	0.25	Win2	0.7037	0.0	Yes	2.921	0.029	4.0	GoodResponse	1	0.194	502.923	8	53	Cue	Win	False
503.923	0.3	Win2	0.7037	0.0	Yes	2.921	0.029	4.0	GoodResponse	1	0.194	n/a	8	53	ButtonPress	Win	False
503.979	4.05	Win2	0.7037	0.0	Yes	2.921	0.0	n/a	GoodResponse	1	n/a	n/a	8	53	Fixation	Win	False
508.028	0.27	Win2	0.7037	0.001	Yes	2.921	-0.001	4.0	GoodResponse	1	0.224	507.252	8	53	Target	Win	False
508.252	0.3	Win2	0.7037	0.001	Yes	2.921	-0.001	4.0	GoodResponse	1	0.224	n/a	8	53	ButtonPress	Win	False
508.294	0.43	Win2	0.7037	n/a	Yes	2.921	n/a	n/a	GoodResponse	1	n/a	n/a	8	53	Blank	Win	False
508.728	1.45	Win2	0.7037	n/a	Yes	2.921	n/a	5.0	GoodResponse	1	0.03	507.758	8	53	Feedback	Win	False
510.177	2.921	Win2	0.7037	n/a	Yes	2.921	n/a	n/a	GoodResponse	1	0.0	n/a	8	53	ISIslide	Win	False
513.126	0.25	Win2	0.7091	0.0	Yes	2.724	0.026	n/a	GoodResponse	1	n/a	n/a	9	54	Cue	Win	True
513.376	3.95	Win2	0.7091	0.0	Yes	2.724	0.0	n/a	GoodResponse	1	n/a	n/a	9	54	Fixation	Win	True
517.325	0.26	Win2	0.7091	0.001	Yes	2.724	-0.001	4.0	GoodResponse	1	0.231	516.556	9	54	Target	Win	True
517.556	0.3	Win2	0.7091	0.001	Yes	2.724	-0.001	4.0	GoodResponse	1	0.231	n/a	9	54	ButtonPress	Win	True
517.591	0.44	Win2	0.7091	n/a	Yes	2.724	n/a	n/a	GoodResponse	1	n/a	n/a	9	54	Blank	Win	True
518.024	1.45	Win2	0.7091	n/a	Yes	2.724	n/a	5.0	GoodResponse	1	0.005	517.029	9	54	Feedback	Win	True
519.474	2.724	Win2	0.7091	n/a	Yes	2.724	n/a	n/a	GoodResponse	1	0.0	n/a	9	54	ISIslide	Win	True
522.223	0.25	Control	0.7143	0.0	Yes	3.027	0.023	n/a	GoodResponse	0	n/a	n/a	9	55	Cue	Neutral	True
522.473	3.95	Control	0.7143	0.0	Yes	3.027	0.0	n/a	GoodResponse	0	n/a	n/a	9	55	Fixation	Neutral	True
526.422	0.25	Control	0.7143	0.001	Yes	3.027	-0.001	4.0	GoodResponse	0	0.229	525.651	9	55	Target	Neutral	True
526.651	0.3	Control	0.7143	0.001	Yes	3.027	-0.001	4.0	GoodResponse	0	0.229	n/a	9	55	ButtonPress	Neutral	True
526.671	0.45	Control	0.7143	n/a	Yes	3.027	n/a	n/a	GoodResponse	0	n/a	n/a	9	55	Blank	Neutral	True
527.121	1.45	Control	0.7143	n/a	Yes	3.027	n/a	5.0	GoodResponse	0	0.027	526.148	9	55	Feedback	Neutral	True
528.571	3.027	Control	0.7143	n/a	Yes	3.027	n/a	n/a	GoodResponse	0	0.0	n/a	9	55	ISIslide	Neutral	True
531.62	0.25	Control	0.7193	0.0	Yes	2.83	0.02	n/a	GoodResponse	0	n/a	n/a	9	56	Cue	Neutral	True
531.87	3.95	Control	0.7193	0.0	Yes	2.83	0.0	n/a	GoodResponse	0	n/a	n/a	9	56	Fixation	Neutral	True
535.818	0.24	Control	0.7193	0.002	Yes	2.83	-0.002	4.0	GoodResponse	0	0.219	535.037	9	56	Target	Neutral	True
536.037	0.3	Control	0.7193	0.002	Yes	2.83	-0.002	4.0	GoodResponse	0	0.219	n/a	9	56	ButtonPress	Neutral	True
536.068	0.46	Control	0.7193	n/a	Yes	2.83	n/a	n/a	GoodResponse	0	n/a	n/a	9	56	Blank	Neutral	True
536.518	1.45	Control	0.7193	n/a	Yes	2.83	n/a	5.0	GoodResponse	0	0.045	535.563	9	56	Feedback	Neutral	True
537.968	2.83	Control	0.7193	n/a	Yes	2.83	n/a	n/a	GoodResponse	0	0.0	n/a	9	56	ISIslide	Neutral	True
540.817	0.25	Control	0.7241	0.0	Yes	3.483	0.017	n/a	GoodResponse	0	n/a	n/a	9	57	Cue	Neutral	True
541.066	4.0	Control	0.7241	0.001	Yes	3.483	-0.001	n/a	GoodResponse	0	n/a	n/a	9	57	Fixation	Neutral	True
545.065	0.23	Control	0.7241	0.002	Yes	3.483	-0.002	4.0	GoodResponse	0	0.204	544.269	9	57	Target	Neutral	True
545.269	0.3	Control	0.7241	0.002	Yes	3.483	-0.002	4.0	GoodResponse	0	0.204	n/a	9	57	ButtonPress	Neutral	True
545.298	0.47	Control	0.7241	n/a	Yes	3.483	n/a	n/a	GoodResponse	0	n/a	n/a	9	57	Blank	Neutral	True
545.765	1.45	Control	0.7241	n/a	Yes	3.483	n/a	5.0	GoodResponse	0	0.018	544.783	9	57	Feedback	Neutral	True
547.214	3.483	Control	0.7241	n/a	Yes	3.483	n/a	n/a	GoodResponse	0	0.0	n/a	9	57	ISIslide	Neutral	True
550.713	0.25	Win2	0.7288	0.0	Yes	2.737	0.013	n/a	GoodResponse	1	n/a	n/a	10	58	Cue	Win	True
550.963	4.05	Win2	0.7288	0.0	Yes	2.737	0.0	n/a	GoodResponse	1	n/a	n/a	10	58	Fixation	Win	True
555.012	0.22	Win2	0.7288	0.001	Yes	2.737	-0.001	4.0	GoodResponse	1	0.184	554.196	10	58	Target	Win	True
555.196	0.3	Win2	0.7288	0.001	Yes	2.737	-0.001	4.0	GoodResponse	1	0.184	n/a	10	58	ButtonPress	Win	True
555.245	0.48	Win2	0.7288	n/a	Yes	2.737	n/a	n/a	GoodResponse	1	n/a	n/a	10	58	Blank	Win	True
555.711	1.45	Win2	0.7288	n/a	Yes	2.737	n/a	5.0	GoodResponse	1	0.023	554.734	10	58	Feedback	Win	True
557.161	2.737	Win2	0.7288	n/a	Yes	2.737	n/a	n/a	GoodResponse	1	0.0	n/a	10	58	ISIslide	Win	True
559.927	0.25	Lose2	0.7167	0.0	No	2.673	0.027	n/a	NoResponse	-1	n/a	n/a	9	59	Cue	Loss	False
560.177	4.0	Lose2	0.7167	0.0	No	2.673	0.0	n/a	NoResponse	-1	n/a	n/a	9	59	Fixation	Loss	False
564.175	0.21	Lose2	0.7167	0.002	No	2.673	-0.002	n/a	NoResponse	-1	n/a	n/a	9	59	Target	Loss	False
564.392	0.49	Lose2	0.7167	n/a	No	2.673	n/a	n/a	NoResponse	-1	n/a	n/a	9	59	Blank	Loss	False
564.875	1.45	Lose2	0.7167	n/a	No	2.673	n/a	5.0	NoResponse	-1	0.03	563.905	9	59	Feedback	Loss	False
566.325	2.673	Lose2	0.7167	n/a	No	2.673	n/a	n/a	NoResponse	-1	0.0	n/a	9	59	ISIslide	Loss	False
569.024	0.25	Control	0.7212999999999999	0.0	Yes	2.676	0.024	n/a	GoodResponse	0	n/a	n/a	9	60	Cue	Neutral	True
569.274	4.0	Control	0.7212999999999999	0.0	Yes	2.676	0.0	n/a	GoodResponse	0	n/a	n/a	9	60	Fixation	Neutral	True
573.272	0.2	Control	0.7212999999999999	0.002	Yes	2.676	-0.002	4.0	GoodResponse	0	0.183	572.455	9	60	Target	Neutral	True
573.455	0.3	Control	0.7212999999999999	0.002	Yes	2.676	-0.002	4.0	GoodResponse	0	0.183	n/a	9	60	ButtonPress	Neutral	True
573.472	0.5	Control	0.7212999999999999	n/a	Yes	2.676	n/a	n/a	GoodResponse	0	n/a	n/a	9	60	Blank	Neutral	True
573.972	1.45	Control	0.7212999999999999	n/a	Yes	2.676	n/a	5.0	GoodResponse	0	0.006	572.978	9	60	Feedback	Neutral	True
575.421	2.676	Control	0.7212999999999999	n/a	Yes	2.676	n/a	n/a	GoodResponse	0	0.0	n/a	9	60	ISIslide	Neutral	True
578.12	0.25	Lose2	0.7097	0.001	No	2.98	0.02	n/a	NoResponse	-1	n/a	n/a	8	61	Cue	Loss	True
578.37	4.0	Lose2	0.7097	0.001	No	2.98	0.0	n/a	NoResponse	-1	n/a	n/a	8	61	Fixation	Loss	True
582.369	0.19	Lose2	0.7097	0.001	No	2.98	-0.001	4.0	NoResponse	-1	0.207	581.576	8	61	Target	Loss	True
582.569	0.51	Lose2	0.7097	n/a	No	2.98	n/a	n/a	NoResponse	-1	n/a	n/a	8	61	Blank	Loss	True
582.576	0.3	Lose2	0.7097	0.001	No	2.98	-0.001	4.0	NoResponse	-1	0.207	n/a	8	61	ButtonPress	Loss	True
583.069	1.45	Lose2	0.7097	n/a	No	2.98	n/a	5.0	NoResponse	-1	0.031	582.1	8	61	Feedback	Loss	True
584.518	2.98	Lose2	0.7097	n/a	No	2.98	n/a	n/a	NoResponse	-1	0.0	n/a	8	61	ISIslide	Loss	True
587.517	0.25	Lose2	0.6984	0.0	No	2.883	0.017	n/a	NoResponse	-1	n/a	n/a	7	62	Cue	Loss	True
587.767	3.9	Lose2	0.6984	0.0	No	2.883	0.0	n/a	NoResponse	-1	n/a	n/a	7	62	Fixation	Loss	True
591.666	0.18	Lose2	0.6984	0.001	No	2.883	-0.001	4.0	NoResponse	-1	0.277	590.943	7	62	Target	Loss	True
591.849	0.52	Lose2	0.6984	n/a	No	2.883	n/a	n/a	NoResponse	-1	n/a	n/a	7	62	Blank	Loss	True
591.943	0.3	Lose2	0.6984	0.001	No	2.883	-0.001	4.0	NoResponse	-1	0.277	n/a	7	62	ButtonPress	Loss	True
592.366	1.45	Lose2	0.6984	n/a	No	2.883	n/a	5.0	NoResponse	-1	0.004	591.37	7	62	Feedback	Loss	True
593.815	2.883	Lose2	0.6984	n/a	No	2.883	n/a	n/a	NoResponse	-1	0.0	n/a	7	62	ISIslide	Loss	True
596.714	0.25	Lose2	0.6875	0.0	No	2.636	0.014	n/a	NoResponse	-1	n/a	n/a	6	63	Cue	Loss	True
596.964	4.05	Lose2	0.6875	0.0	No	2.636	0.0	n/a	NoResponse	-1	n/a	n/a	6	63	Fixation	Loss	True
601.013	0.17	Lose2	0.6875	0.001	No	2.636	-0.001	4.0	NoResponse	-1	0.198	600.211	6	63	Target	Loss	True
601.196	0.53	Lose2	0.6875	n/a	No	2.636	n/a	n/a	NoResponse	-1	n/a	n/a	6	63	Blank	Loss	True
601.211	0.3	Lose2	0.6875	0.001	No	2.636	-0.001	4.0	NoResponse	-1	0.198	n/a	6	63	ButtonPress	Loss	True
601.712	1.45	Lose2	0.6875	n/a	No	2.636	n/a	5.0	NoResponse	-1	0.022	600.734	6	63	Feedback	Loss	True
603.162	2.636	Lose2	0.6875	n/a	No	2.636	n/a	n/a	NoResponse	-1	0.0	n/a	6	63	ISIslide	Loss	True
605.828	0.25	Win2	0.6769	0.0	No	3.122	0.028	n/a	NoResponse	0	n/a	n/a	6	64	Cue	MissedWin	True
606.078	4.15	Win2	0.6769	0.0	No	3.122	0.0	n/a	NoResponse	0	n/a	n/a	6	64	Fixation	MissedWin	True
610.226	0.16	Win2	0.6769	0.002	No	3.122	-0.002	4.0	NoResponse	0	0.319	609.545	6	64	Target	MissedWin	True
610.393	0.54	Win2	0.6769	n/a	No	3.122	n/a	n/a	NoResponse	0	n/a	n/a	6	64	Blank	MissedWin	True
610.545	0.3	Win2	0.6769	0.002	No	3.122	-0.002	4.0	NoResponse	0	0.319	n/a	6	64	ButtonPress	MissedWin	True
610.926	1.45	Win2	0.6769	n/a	No	3.122	n/a	5.0	NoResponse	0	0.027	609.953	6	64	Feedback	MissedWin	True
612.375	3.122	Win2	0.6769	n/a	No	3.122	n/a	n/a	NoResponse	0	0.0	n/a	6	64	ISIslide	MissedWin	True
615.524	0.25	Control	0.6667000000000001	0.0	No	2.776	0.024	n/a	NoResponse	0	n/a	n/a	6	65	Cue	Neutral	True
615.774	4.0	Control	0.6667000000000001	0.0	No	2.776	0.0	n/a	NoResponse	0	n/a	n/a	6	65	Fixation	Neutral	True
619.773	0.15	Control	0.6667000000000001	0.001	No	2.776	-0.001	4.0	NoResponse	0	0.218	618.991	6	65	Target	Neutral	True
619.923	0.55	Control	0.6667000000000001	n/a	No	2.776	n/a	n/a	NoResponse	0	n/a	n/a	6	65	Blank	Neutral	True
619.991	0.3	Control	0.6667000000000001	0.001	No	2.776	-0.001	4.0	NoResponse	0	0.218	n/a	6	65	ButtonPress	Neutral	True
620.473	1.45	Control	0.6667000000000001	n/a	No	2.776	n/a	5.0	NoResponse	0	0.041	619.514	6	65	Feedback	Neutral	True
621.922	2.776	Control	0.6667000000000001	n/a	No	2.776	n/a	n/a	NoResponse	0	0.0	n/a	6	65	ISIslide	Neutral	True
624.721	0.25	Win2	0.6567000000000001	0.0	No	2.779	0.021	n/a	NoResponse	0	n/a	n/a	6	66	Cue	MissedWin	False
624.971	3.9	Win2	0.6567000000000001	0.0	No	2.779	0.0	4.0	NoResponse	0	0.005	623.976	6	66	Fixation	MissedWin	False
624.976	0.3	Win2	0.6567000000000001	0.0	No	2.779	0.0	4.0	NoResponse	0	0.005	n/a	6	66	ButtonPress	MissedWin	False
628.87	0.15	Win2	0.6567000000000001	0.001	No	2.779	-0.001	4.0	NoResponse	0	0.276	628.146	6	66	Target	MissedWin	False
629.02	0.55	Win2	0.6567000000000001	n/a	No	2.779	n/a	n/a	NoResponse	0	n/a	n/a	6	66	Blank	MissedWin	False
629.146	0.3	Win2	0.6567000000000001	0.001	No	2.779	-0.001	4.0	NoResponse	0	0.276	n/a	6	66	ButtonPress	MissedWin	False
629.57	1.45	Win2	0.6567000000000001	n/a	No	2.779	n/a	5.0	NoResponse	0	0.018	628.588	6	66	Feedback	MissedWin	False
631.019	2.779	Win2	0.6567000000000001	n/a	No	2.779	n/a	n/a	NoResponse	0	0.0	n/a	6	66	ISIslide	MissedWin	False
633.818	0.25	Control	0.6470999999999999	0.0	No	2.732	0.018	4.0	NoResponse	0	0.015	632.833	6	67	Cue	Neutral	False
633.833	0.3	Control	0.6470999999999999	0.0	No	2.732	0.018	4.0	NoResponse	0	0.015	n/a	6	67	ButtonPress	Neutral	False
634.068	3.95	Control	0.6470999999999999	0.0	No	2.732	0.0	n/a	NoResponse	0	n/a	n/a	6	67	Fixation	Neutral	False
638.017	0.15	Control	0.6470999999999999	0.001	No	2.732	-0.001	4.0	NoResponse	0	0.21	637.227	6	67	Target	Neutral	False
638.167	0.55	Control	0.6470999999999999	n/a	No	2.732	n/a	n/a	NoResponse	0	n/a	n/a	6	67	Blank	Neutral	False
638.227	0.3	Control	0.6470999999999999	0.001	No	2.732	-0.001	4.0	NoResponse	0	0.21	n/a	6	67	ButtonPress	Neutral	False
638.716	1.45	Control	0.6470999999999999	n/a	No	2.732	n/a	5.0	NoResponse	0	0.043	637.759	6	67	Feedback	Neutral	False
640.166	2.732	Control	0.6470999999999999	n/a	No	2.732	n/a	n/a	NoResponse	0	0.0	n/a	6	67	ISIslide	Neutral	False
642.915	0.25	Win2	0.6377	0.0	No	3.085	0.015	n/a	NoResponse	0	n/a	n/a	6	68	Cue	MissedWin	False
643.165	4.0	Win2	0.6377	0.0	No	3.085	0.0	4.0	NoResponse	0	0.01	642.175	6	68	Fixation	MissedWin	False
643.175	0.3	Win2	0.6377	0.0	No	3.085	0.0	4.0	NoResponse	0	0.01	n/a	6	68	ButtonPress	MissedWin	False
647.164	0.16	Win2	0.6377	0.001	No	3.085	-0.001	4.0	NoResponse	0	0.2	646.364	6	68	Target	MissedWin	False
647.33	0.54	Win2	0.6377	n/a	No	3.085	n/a	n/a	NoResponse	0	n/a	n/a	6	68	Blank	MissedWin	False
647.364	0.3	Win2	0.6377	0.001	No	3.085	-0.001	4.0	NoResponse	0	0.2	n/a	6	68	ButtonPress	MissedWin	False
647.863	1.45	Win2	0.6377	n/a	No	3.085	n/a	5.0	NoResponse	0	0.018	646.881	6	68	Feedback	MissedWin	False
649.313	3.085	Win2	0.6377	n/a	No	3.085	n/a	n/a	NoResponse	0	0.0	n/a	6	68	ISIslide	MissedWin	False
652.412	0.25	Win2	0.6286	0.0	No	3.238	0.012	4.0	NoResponse	0	0.195	651.607	6	69	Cue	MissedWin	False
652.607	0.3	Win2	0.6286	0.0	No	3.238	0.012	4.0	NoResponse	0	0.195	n/a	6	69	ButtonPress	MissedWin	False
652.662	3.95	Win2	0.6286	0.0	No	3.238	0.0	n/a	NoResponse	0	n/a	n/a	6	69	Fixation	MissedWin	False
656.61	0.17	Win2	0.6286	0.002	No	3.238	-0.002	4.0	NoResponse	0	0.243	655.853	6	69	Target	MissedWin	False
656.794	0.53	Win2	0.6286	n/a	No	3.238	n/a	n/a	NoResponse	0	n/a	n/a	6	69	Blank	MissedWin	False
656.853	0.3	Win2	0.6286	0.002	No	3.238	-0.002	4.0	NoResponse	0	0.243	n/a	6	69	ButtonPress	MissedWin	False
657.31	1.45	Win2	0.6286	n/a	No	3.238	n/a	5.0	NoResponse	0	0.034	656.344	6	69	Feedback	MissedWin	False
658.76	3.238	Win2	0.6286	n/a	No	3.238	n/a	n/a	NoResponse	0	0.0	n/a	6	69	ISIslide	MissedWin	False
662.025	0.25	Lose2	0.6197	0.0	No	3.025	0.025	4.0	NoResponse	-1	0.047	661.072	5	70	Cue	Loss	False
662.072	0.3	Lose2	0.6197	0.0	No	3.025	0.025	4.0	NoResponse	-1	0.047	n/a	5	70	ButtonPress	Loss	False
662.275	4.05	Lose2	0.6197	0.0	No	3.025	0.0	n/a	NoResponse	-1	n/a	n/a	5	70	Fixation	Loss	False
666.324	0.18	Lose2	0.6197	0.001	No	3.025	-0.001	4.0	NoResponse	-1	0.223	665.547	5	70	Target	Loss	False
666.507	0.52	Lose2	0.6197	n/a	No	3.025	n/a	n/a	NoResponse	-1	n/a	n/a	5	70	Blank	Loss	False
666.547	0.3	Lose2	0.6197	0.001	No	3.025	-0.001	4.0	NoResponse	-1	0.223	n/a	5	70	ButtonPress	Loss	False
667.023	1.45	Lose2	0.6197	n/a	No	3.025	n/a	5.0	NoResponse	-1	0.028	666.051	5	70	Feedback	Loss	False
668.473	3.025	Lose2	0.6197	n/a	No	3.025	n/a	n/a	NoResponse	-1	0.0	n/a	5	70	ISIslide	Loss	False
671.522	0.25	Win2	0.6111	0.0	No	2.728	0.022	n/a	NoResponse	0	n/a	n/a	5	71	Cue	MissedWin	False
671.772	4.05	Win2	0.6111	0.0	No	2.728	0.0	4.0	NoResponse	0	0.093	670.865	5	71	Fixation	MissedWin	False
671.865	0.3	Win2	0.6111	0.0	No	2.728	0.0	4.0	NoResponse	0	0.093	n/a	5	71	ButtonPress	MissedWin	False
675.82	0.19	Win2	0.6111	0.002	No	2.728	-0.002	4.0	NoResponse	0	0.242	675.062	5	71	Target	MissedWin	False
676.02	0.51	Win2	0.6111	n/a	No	2.728	n/a	n/a	NoResponse	0	n/a	n/a	5	71	Blank	MissedWin	False
676.062	0.3	Win2	0.6111	0.002	No	2.728	-0.002	4.0	NoResponse	0	0.242	n/a	5	71	ButtonPress	MissedWin	False
676.52	1.45	Win2	0.6111	n/a	No	2.728	n/a	5.0	NoResponse	0	0.043	675.563	5	71	Feedback	MissedWin	False
677.97	2.728	Win2	0.6111	n/a	No	2.728	n/a	n/a	NoResponse	0	0.0	n/a	5	71	ISIslide	MissedWin	False
680.719	0.25	Win2	0.6027	0.0	No	2.781	0.019	n/a	NoResponse	0	n/a	n/a	5	72	Cue	MissedWin	True
680.969	4.1	Win2	0.6027	0.0	No	2.781	0.0	n/a	NoResponse	0	n/a	n/a	5	72	Fixation	MissedWin	True
685.067	0.2	Win2	0.6027	0.002	No	2.781	-0.002	4.0	NoResponse	0	0.217	684.284	5	72	Target	MissedWin	True
685.267	0.5	Win2	0.6027	n/a	No	2.781	n/a	n/a	NoResponse	0	n/a	n/a	5	72	Blank	MissedWin	True
685.284	0.3	Win2	0.6027	0.002	No	2.781	-0.002	4.0	NoResponse	0	0.217	n/a	5	72	ButtonPress	MissedWin	True
685.767	1.45	Win2	0.6027	n/a	No	2.781	n/a	5.0	NoResponse	0	0.016	684.783	5	72	Feedback	MissedWin	True
687.216	2.781	Win2	0.6027	n/a	No	2.781	n/a	n/a	NoResponse	0	0.0	n/a	5	72	ISIslide	MissedWin	True
690.016	0.25	Win2	0.5946	0.0	No	2.684	0.016	4.0	NoResponse	0	0.216	689.232	5	73	Cue	MissedWin	False
690.232	0.3	Win2	0.5946	0.0	No	2.684	0.016	4.0	NoResponse	0	0.216	n/a	5	73	ButtonPress	MissedWin	False
690.265	4.0	Win2	0.5946	0.001	No	2.684	-0.001	n/a	NoResponse	0	n/a	n/a	5	73	Fixation	MissedWin	False
694.264	0.21	Win2	0.5946	0.002	No	2.684	-0.002	4.0	NoResponse	0	0.273	693.537	5	73	Target	MissedWin	False
694.481	0.49	Win2	0.5946	n/a	No	2.684	n/a	n/a	NoResponse	0	n/a	n/a	5	73	Blank	MissedWin	False
694.537	0.3	Win2	0.5946	0.002	No	2.684	-0.002	4.0	NoResponse	0	0.273	n/a	5	73	ButtonPress	MissedWin	False
694.964	1.45	Win2	0.5946	n/a	No	2.684	n/a	5.0	NoResponse	0	0.038	694.002	5	73	Feedback	MissedWin	False
696.413	2.684	Win2	0.5946	n/a	No	2.684	n/a	n/a	NoResponse	0	0.0	n/a	5	73	ISIslide	MissedWin	False
699.112	0.25	Lose2	0.6	0.0	Yes	2.638	0.012	4.0	GoodResponse	0	0.233	698.345	5	74	Cue	AvoidedLoss	False
699.345	0.3	Lose2	0.6	0.0	Yes	2.638	0.012	4.0	GoodResponse	0	0.233	n/a	5	74	ButtonPress	AvoidedLoss	False
699.362	4.05	Lose2	0.6	0.0	Yes	2.638	0.0	n/a	GoodResponse	0	n/a	n/a	5	74	Fixation	AvoidedLoss	False
703.411	0.22	Lose2	0.6	0.001	Yes	2.638	-0.001	4.0	GoodResponse	0	0.162	702.573	5	74	Target	AvoidedLoss	False
703.573	0.3	Lose2	0.6	0.001	Yes	2.638	-0.001	4.0	GoodResponse	0	0.162	n/a	5	74	ButtonPress	AvoidedLoss	False
703.628	0.48	Lose2	0.6	n/a	Yes	2.638	n/a	n/a	GoodResponse	0	n/a	n/a	5	74	Blank	AvoidedLoss	False
704.111	1.45	Lose2	0.6	n/a	Yes	2.638	n/a	5.0	GoodResponse	0	0.013	703.124	5	74	Feedback	AvoidedLoss	False
705.56	2.638	Lose2	0.6	n/a	Yes	2.638	n/a	n/a	GoodResponse	0	0.0	n/a	5	74	ISIslide	AvoidedLoss	False
708.226	0.25	Lose2	0.6053000000000001	0.0	Yes	2.924	0.026	4.0	GoodResponse	0	0.214	707.44	5	75	Cue	AvoidedLoss	False
708.44	0.3	Lose2	0.6053000000000001	0.0	Yes	2.924	0.026	4.0	GoodResponse	0	0.214	n/a	5	75	ButtonPress	AvoidedLoss	False
708.476	3.95	Lose2	0.6053000000000001	0.0	Yes	2.924	0.0	n/a	GoodResponse	0	n/a	n/a	5	75	Fixation	AvoidedLoss	False
712.425	0.23	Lose2	0.6053000000000001	0.001	Yes	2.924	-0.001	4.0	GoodResponse	0	0.197	711.622	5	75	Target	AvoidedLoss	False
712.622	0.3	Lose2	0.6053000000000001	0.001	Yes	2.924	-0.001	4.0	GoodResponse	0	0.197	n/a	5	75	ButtonPress	AvoidedLoss	False
712.658	0.47	Lose2	0.6053000000000001	n/a	Yes	2.924	n/a	n/a	GoodResponse	0	n/a	n/a	5	75	Blank	AvoidedLoss	False
713.124	1.45	Lose2	0.6053000000000001	n/a	Yes	2.924	n/a	5.0	GoodResponse	0	0.025	712.149	5	75	Feedback	AvoidedLoss	False
714.574	2.924	Lose2	0.6053000000000001	n/a	Yes	2.924	n/a	n/a	GoodResponse	0	0.0	n/a	5	75	ISIslide	AvoidedLoss	False
717.523	0.25	Control	0.6103999999999999	0.0	Yes	3.227	0.023	4.0	GoodResponse	0	0.237	716.76	5	76	Cue	Neutral	False
717.76	0.3	Control	0.6103999999999999	0.0	Yes	3.227	0.023	4.0	GoodResponse	0	0.237	n/a	5	76	ButtonPress	Neutral	False
717.773	4.05	Control	0.6103999999999999	0.0	Yes	3.227	0.0	n/a	GoodResponse	0	n/a	n/a	5	76	Fixation	Neutral	False
721.821	0.24	Control	0.6103999999999999	0.002	Yes	3.227	-0.002	4.0	GoodResponse	0	0.216	721.037	5	76	Target	Neutral	False
722.037	0.3	Control	0.6103999999999999	0.002	Yes	3.227	-0.002	4.0	GoodResponse	0	0.216	n/a	5	76	ButtonPress	Neutral	False
722.071	0.46	Control	0.6103999999999999	n/a	Yes	3.227	n/a	n/a	GoodResponse	0	n/a	n/a	5	76	Blank	Neutral	False
722.521	1.45	Control	0.6103999999999999	n/a	Yes	3.227	n/a	5.0	GoodResponse	0	0.043	721.564	5	76	Feedback	Neutral	False
723.971	3.227	Control	0.6103999999999999	n/a	Yes	3.227	n/a	4.0	GoodResponse	0	3.071	n/a	5	76	ISIslide	Neutral	False
727.203	0.25	Lose2	0.6026	0.0	No	2.597	0.003	n/a	NoResponse	-1	n/a	n/a	4	77	Cue	Loss	True
727.453	3.95	Lose2	0.6026	0.0	No	2.597	0.0	n/a	NoResponse	-1	n/a	n/a	4	77	Fixation	Loss	True
731.401	0.25	Lose2	0.6026	0.002	No	2.597	-0.002	4.0	NoResponse	-1	0.262	730.663	4	77	Target	Loss	True
731.651	0.45	Lose2	0.6026	n/a	No	2.597	n/a	n/a	NoResponse	-1	n/a	n/a	4	77	Blank	Loss	True
731.663	0.3	Lose2	0.6026	0.002	No	2.597	-0.002	4.0	NoResponse	-1	0.262	n/a	4	77	ButtonPress	Loss	True
732.101	1.45	Lose2	0.6026	n/a	No	2.597	n/a	5.0	NoResponse	-1	0.024	731.125	4	77	Feedback	Loss	True
733.551	2.597	Lose2	0.6026	n/a	No	2.597	n/a	n/a	NoResponse	-1	0.0	n/a	4	77	ISIslide	Loss	True
