onset	duration	cue_type	current_mean_accuracy	duration_error	is_hit	isi_adjusted	onset_delay	response	response_type	reward	rt	rt_time	total_reward	trial_number	trial_phase	trial_type	one_press
11.098	0.25	Control	1.0	0.0	Yes	2.952	-0.002	n/a	GoodResponse	0	n/a	n/a	0	0	Cue	Neutral	True
11.349	3.85	Control	1.0	0.0	Yes	2.952	0.001	n/a	GoodResponse	0	n/a	n/a	0	0	Fixation	Neutral	True
15.194	0.4	Control	1.0	0.004	Yes	2.952	-0.004	4.0	GoodResponse	0	0.252	14.446	0	0	Target	Neutral	True
15.446	0.3	Control	1.0	0.004	Yes	2.952	-0.004	4.0	GoodResponse	0	0.252	n/a	0	0	ButtonPress	Neutral	True
15.595	0.3	Control	1.0	n/a	Yes	2.952	n/a	n/a	GoodResponse	0	n/a	n/a	0	0	Blank	Neutral	True
15.896	1.45	Control	1.0	n/a	Yes	2.952	n/a	5.0	GoodResponse	0	0.031	14.927	0	0	Feedback	Neutral	True
17.35	2.952	Control	1.0	n/a	Yes	2.952	n/a	n/a	GoodResponse	0	0.0	n/a	0	0	ISIslide	Neutral	True
20.326	0.25	Lose2	1.0	0.0	Yes	2.774	0.026	n/a	GoodResponse	0	n/a	n/a	0	1	Cue	AvoidedLoss	True
20.576	4.0	Lose2	1.0	0.0	Yes	2.774	0.0	n/a	GoodResponse	0	n/a	n/a	0	1	Fixation	AvoidedLoss	True
24.572	0.39	Lose2	1.0	0.004	Yes	2.774	-0.004	4.0	GoodResponse	0	0.223	23.795	0	1	Target	AvoidedLoss	True
24.795	0.3	Lose2	1.0	0.004	Yes	2.774	-0.004	4.0	GoodResponse	0	0.223	n/a	0	1	ButtonPress	AvoidedLoss	True
24.973	0.31	Lose2	1.0	n/a	Yes	2.774	n/a	n/a	GoodResponse	0	n/a	n/a	0	1	Blank	AvoidedLoss	True
25.274	1.45	Lose2	1.0	n/a	Yes	2.774	n/a	5.0	GoodResponse	0	0.018	24.292	0	1	Feedback	AvoidedLoss	True
26.728	2.774	Lose2	1.0	n/a	Yes	2.774	n/a	n/a	GoodResponse	0	0.0	n/a	0	1	ISIslide	AvoidedLoss	True
29.52	0.25	Control	1.0	0.0	Yes	2.58	0.02	n/a	GoodResponse	0	n/a	n/a	0	2	Cue	Neutral	True
29.77	4.1	Control	1.0	0.001	Yes	2.58	0.0	n/a	GoodResponse	0	n/a	n/a	0	2	Fixation	Neutral	True
33.866	0.38	Control	1.0	0.004	Yes	2.58	-0.004	4.0	GoodResponse	0	0.214	33.08	0	2	Target	Neutral	True
34.08	0.3	Control	1.0	0.004	Yes	2.58	-0.004	4.0	GoodResponse	0	0.214	n/a	0	2	ButtonPress	Neutral	True
34.251	0.32	Control	1.0	n/a	Yes	2.58	n/a	n/a	GoodResponse	0	n/a	n/a	0	2	Blank	Neutral	True
34.568	1.45	Control	1.0	n/a	Yes	2.58	n/a	5.0	GoodResponse	0	0.041	33.609	0	2	Feedback	Neutral	True
36.022	2.58	Control	1.0	n/a	Yes	2.58	n/a	n/a	GoodResponse	0	0.0	n/a	0	2	ISIslide	Neutral	True
38.614	0.25	Win2	1.0	0.0	Yes	2.836	0.014	n/a	GoodResponse	1	n/a	n/a	1	3	Cue	Win	False
38.864	3.95	Win2	1.0	0.0	Yes	2.836	0.0	4.0	GoodResponse	1	0.032	37.896	1	3	Fixation	Win	False
38.896	0.3	Win2	1.0	0.0	Yes	2.836	0.0	4.0	GoodResponse	1	0.032	n/a	1	3	ButtonPress	Win	False
42.809	0.37	Win2	1.0	0.005	Yes	2.836	-0.005	4.0	GoodResponse	1	0.194	42.003	1	3	Target	Win	False
43.003	0.3	Win2	1.0	0.005	Yes	2.836	-0.005	4.0	GoodResponse	1	0.194	n/a	1	3	ButtonPress	Win	False
43.194	0.33	Win2	1.0	n/a	Yes	2.836	n/a	n/a	GoodResponse	1	n/a	n/a	1	3	Blank	Win	False
43.511	1.45	Win2	1.0	n/a	Yes	2.836	n/a	5.0	GoodResponse	1	0.025	42.536	1	3	Feedback	Win	False
44.966	2.836	Win2	1.0	n/a	Yes	2.836	n/a	n/a	GoodResponse	1	0.0	n/a	1	3	ISIslide	Win	False
47.824	0.25	Win2	0.8	0.0	No	3.276	0.024	n/a	NoResponse	0	n/a	n/a	1	4	Cue	MissedWin	False
48.075	4.0	Win2	0.8	0.0	No	3.276	0.001	n/a	NoResponse	0	n/a	n/a	1	4	Fixation	MissedWin	False
52.07	0.36	Win2	0.8	0.004	No	3.276	-0.004	n/a	NoResponse	0	n/a	n/a	1	4	Target	MissedWin	False
52.438	0.34	Win2	0.8	n/a	No	3.276	n/a	n/a	NoResponse	0	n/a	n/a	1	4	Blank	MissedWin	False
52.772	1.45	Win2	0.8	n/a	No	3.276	n/a	5.0	NoResponse	0	0.032	51.804	1	4	Feedback	MissedWin	False
54.227	3.276	Win2	0.8	n/a	No	3.276	n/a	n/a	NoResponse	0	0.0	n/a	1	4	ISIslide	MissedWin	False
57.52	0.25	Win2	0.8332999999999999	0.0	Yes	2.78	0.02	n/a	GoodResponse	1	n/a	n/a	2	5	Cue	Win	True
57.771	4.0	Win2	0.8332999999999999	0.0	Yes	2.78	0.001	n/a	GoodResponse	1	n/a	n/a	2	5	Fixation	Win	True
61.766	0.35	Win2	0.8332999999999999	0.004	Yes	2.78	-0.004	4.0	GoodResponse	1	0.298	61.064	2	5	Target	Win	True
62.064	0.3	Win2	0.8332999999999999	0.004	Yes	2.78	-0.004	4.0	GoodResponse	1	0.298	n/a	2	5	ButtonPress	Win	True
62.117	0.35	Win2	0.8332999999999999	n/a	Yes	2.78	n/a	n/a	GoodResponse	1	n/a	n/a	2	5	Blank	Win	True
62.468	1.45	Win2	0.8332999999999999	n/a	Yes	2.78	n/a	5.0	GoodResponse	1	0.043	61.511	2	5	Feedback	Win	True
63.922	2.78	Win2	0.8332999999999999	n/a	Yes	2.78	n/a	n/a	GoodResponse	1	0.0	n/a	2	5	ISIslide	Win	True
66.714	0.25	Lose2	0.8571	0.0	Yes	2.736	0.014	n/a	GoodResponse	0	n/a	n/a	2	6	Cue	AvoidedLoss	True
66.965	3.95	Lose2	0.8571	0.0	Yes	2.736	0.001	n/a	GoodResponse	0	n/a	n/a	2	6	Fixation	AvoidedLoss	True
70.91	0.34	Lose2	0.8571	0.004	Yes	2.736	-0.004	4.0	GoodResponse	0	0.222	70.132	2	6	Target	AvoidedLoss	True
71.132	0.3	Lose2	0.8571	0.004	Yes	2.736	-0.004	4.0	GoodResponse	0	0.222	n/a	2	6	ButtonPress	AvoidedLoss	True
71.261	0.36	Lose2	0.8571	n/a	Yes	2.736	n/a	n/a	GoodResponse	0	n/a	n/a	2	6	Blank	AvoidedLoss	True
71.612	1.45	Lose2	0.8571	n/a	Yes	2.736	n/a	5.0	GoodResponse	0	0.02	70.632	2	6	Feedback	AvoidedLoss	True
73.066	2.736	Lose2	0.8571	n/a	Yes	2.736	n/a	n/a	GoodResponse	0	0.0	n/a	2	6	ISIslide	AvoidedLoss	True
75.825	0.25	Lose2	0.875	0.0	Yes	4.025	0.025	n/a	GoodResponse	0	n/a	n/a	2	7	Cue	AvoidedLoss	True
76.075	4.05	Lose2	0.875	0.001	Yes	4.025	0.0	n/a	GoodResponse	0	n/a	n/a	2	7	Fixation	AvoidedLoss	True
80.121	0.33	Lose2	0.875	0.004	Yes	4.025	-0.004	4.0	GoodResponse	0	0.293	79.414	2	7	Target	AvoidedLoss	True
80.414	0.3	Lose2	0.875	0.004	Yes	4.025	-0.004	4.0	GoodResponse	0	0.293	n/a	2	7	ButtonPress	AvoidedLoss	True
80.455	0.37	Lose2	0.875	n/a	Yes	4.025	n/a	n/a	GoodResponse	0	n/a	n/a	2	7	Blank	AvoidedLoss	True
80.823	1.45	Lose2	0.875	n/a	Yes	4.025	n/a	5.0	GoodResponse	0	0.029	79.852	2	7	Feedback	AvoidedLoss	True
82.277	4.025	Lose2	0.875	n/a	Yes	4.025	n/a	n/a	GoodResponse	0	0.0	n/a	2	7	ISIslide	AvoidedLoss	True
86.323	0.25	Lose2	0.8889	0.0	Yes	3.027	0.023	n/a	GoodResponse	0	n/a	n/a	2	8	Cue	AvoidedLoss	True
86.573	3.95	Lose2	0.8889	0.001	Yes	3.027	0.0	n/a	GoodResponse	0	n/a	n/a	2	8	Fixation	AvoidedLoss	True
90.519	0.32	Lose2	0.8889	0.004	Yes	3.027	-0.004	4.0	GoodResponse	0	0.195	89.714	2	8	Target	AvoidedLoss	True
90.714	0.3	Lose2	0.8889	0.004	Yes	3.027	-0.004	4.0	GoodResponse	0	0.195	n/a	2	8	ButtonPress	AvoidedLoss	True
90.853	0.38	Lose2	0.8889	n/a	Yes	3.027	n/a	n/a	GoodResponse	0	n/a	n/a	2	8	Blank	AvoidedLoss	True
91.221	1.45	Lose2	0.8889	n/a	Yes	3.027	n/a	5.0	GoodResponse	0	0.021	90.242	2	8	Feedback	AvoidedLoss	True
92.675	3.027	Lose2	0.8889	n/a	Yes	3.027	n/a	n/a	GoodResponse	0	0.0	n/a	2	8	ISIslide	AvoidedLoss	True
95.717	0.25	Lose2	0.8	0.0	No	3.133	0.017	n/a	NoResponse	-1	n/a	n/a	1	9	Cue	Loss	True
95.968	3.95	Lose2	0.8	0.0	No	3.133	0.001	n/a	NoResponse	-1	n/a	n/a	1	9	Fixation	Loss	True
99.913	0.31	Lose2	0.8	0.004	No	3.133	-0.004	4.0	NoResponse	-1	0.427	99.34	1	9	Target	Loss	True
100.231	0.39	Lose2	0.8	n/a	No	3.133	n/a	n/a	NoResponse	-1	n/a	n/a	1	9	Blank	Loss	True
100.34	0.3	Lose2	0.8	0.004	No	3.133	-0.004	4.0	NoResponse	-1	0.427	n/a	1	9	ButtonPress	Loss	True
100.615	1.45	Lose2	0.8	n/a	No	3.133	n/a	5.0	NoResponse	-1	0.042	99.657	1	9	Feedback	Loss	True
102.07	3.133	Lose2	0.8	n/a	No	3.133	n/a	n/a	NoResponse	-1	0.0	n/a	1	9	ISIslide	Loss	True
105.212	0.25	Control	0.7273000000000001	0.001	No	3.288	0.012	n/a	LatePress	0	n/a	n/a	1	10	Cue	Neutral	True
105.463	4.0	Control	0.7273000000000001	0.0	No	3.288	0.001	n/a	LatePress	0	n/a	n/a	1	10	Fixation	Neutral	True
109.458	0.3	Control	0.7273000000000001	0.004	No	3.288	-0.004	4.0	LatePress	0	0.303	108.761	1	10	Target	Neutral	True
109.759	0.4	Control	0.7273000000000001	n/a	No	3.288	n/a	n/a	LatePress	0	n/a	n/a	1	10	Blank	Neutral	True
109.761	0.3	Control	0.7273000000000001	0.004	No	3.288	-0.004	4.0	LatePress	0	0.303	n/a	1	10	ButtonPress	Neutral	True
110.161	1.45	Control	0.7273000000000001	n/a	No	3.288	n/a	5.0	LatePress	0	0.008	109.169	1	10	Feedback	Neutral	True
111.615	3.288	Control	0.7273000000000001	n/a	No	3.288	n/a	n/a	LatePress	0	0.0	n/a	1	10	ISIslide	Neutral	True
114.925	0.25	Lose2	0.6667000000000001	0.0	No	2.725	0.025	n/a	NoResponse	-1	n/a	n/a	0	11	Cue	Loss	False
115.176	4.05	Lose2	0.6667000000000001	0.0	No	2.725	0.001	n/a	NoResponse	-1	n/a	n/a	0	11	Fixation	Loss	False
119.221	0.29	Lose2	0.6667000000000001	0.004	No	2.725	-0.004	n/a	NoResponse	-1	n/a	n/a	0	11	Target	Loss	False
119.522	0.41	Lose2	0.6667000000000001	n/a	No	2.725	n/a	n/a	NoResponse	-1	n/a	n/a	0	11	Blank	Loss	False
119.923	1.45	Lose2	0.6667000000000001	n/a	No	2.725	n/a	5.0	NoResponse	-1	0.002	118.925	0	11	Feedback	Loss	False
121.377	2.725	Lose2	0.6667000000000001	n/a	No	2.725	n/a	n/a	NoResponse	-1	0.0	n/a	0	11	ISIslide	Loss	False
124.119	0.25	Control	0.6923	0.0	Yes	2.981	0.019	n/a	GoodResponse	0	n/a	n/a	0	12	Cue	Neutral	True
124.37	3.9	Control	0.6923	0.0	Yes	2.981	0.001	n/a	GoodResponse	0	n/a	n/a	0	12	Fixation	Neutral	True
128.265	0.28	Control	0.6923	0.004	Yes	2.981	-0.004	4.0	GoodResponse	0	0.208	127.473	0	12	Target	Neutral	True
128.473	0.3	Control	0.6923	0.004	Yes	2.981	-0.004	4.0	GoodResponse	0	0.208	n/a	0	12	ButtonPress	Neutral	True
128.549	0.42	Control	0.6923	n/a	Yes	2.981	n/a	n/a	GoodResponse	0	n/a	n/a	0	12	Blank	Neutral	True
128.967	1.45	Control	0.6923	n/a	Yes	2.981	n/a	5.0	GoodResponse	0	0.031	127.998	0	12	Feedback	Neutral	True
130.421	2.981	Control	0.6923	n/a	Yes	2.981	n/a	n/a	GoodResponse	0	0.0	n/a	0	12	ISIslide	Neutral	True
133.413	0.25	Control	0.7143	0.0	Yes	2.787	0.013	n/a	GoodResponse	0	n/a	n/a	0	13	Cue	Neutral	True
133.664	4.0	Control	0.7143	0.0	Yes	2.787	0.001	n/a	GoodResponse	0	n/a	n/a	0	13	Fixation	Neutral	True
137.659	0.27	Control	0.7143	0.004	Yes	2.787	-0.004	4.0	GoodResponse	0	0.262	136.921	0	13	Target	Neutral	True
137.921	0.3	Control	0.7143	0.004	Yes	2.787	-0.004	4.0	GoodResponse	0	0.262	n/a	0	13	ButtonPress	Neutral	True
137.944	0.43	Control	0.7143	n/a	Yes	2.787	n/a	n/a	GoodResponse	0	n/a	n/a	0	13	Blank	Neutral	True
138.361	1.45	Control	0.7143	n/a	Yes	2.787	n/a	5.0	GoodResponse	0	0.004	137.365	0	13	Feedback	Neutral	True
139.816	2.787	Control	0.7143	n/a	Yes	2.787	n/a	n/a	GoodResponse	0	0.0	n/a	0	13	ISIslide	Neutral	True
142.624	0.25	Win2	0.7333	0.0	Yes	2.676	0.024	n/a	GoodResponse	1	n/a	n/a	1	14	Cue	Win	False
142.875	4.1	Win2	0.7333	0.0	Yes	2.676	0.001	4.0	GoodResponse	1	3.794	145.669	1	14	Fixation	Win	False
146.669	0.3	Win2	0.7333	0.0	Yes	2.676	0.001	4.0	GoodResponse	1	3.794	n/a	1	14	ButtonPress	Win	False
146.97	0.26	Win2	0.7333	0.004	Yes	2.676	-0.004	4.0	GoodResponse	1	0.152	146.122	1	14	Target	Win	False
147.122	0.3	Win2	0.7333	0.004	Yes	2.676	-0.004	4.0	GoodResponse	1	0.152	n/a	1	14	ButtonPress	Win	False
147.238	0.44	Win2	0.7333	n/a	Yes	2.676	n/a	n/a	GoodResponse	1	n/a	n/a	1	14	Blank	Win	False
147.673	1.45	Win2	0.7333	n/a	Yes	2.676	n/a	5.0	GoodResponse	1	0.007	146.68	1	14	Feedback	Win	False
149.127	2.676	Win2	0.7333	n/a	Yes	2.676	n/a	n/a	GoodResponse	1	0.0	n/a	1	14	ISIslide	Win	False
151.818	0.25	Control	0.75	0.0	Yes	2.982	0.018	n/a	GoodResponse	0	n/a	n/a	1	15	Cue	Neutral	True
152.069	4.0	Control	0.75	0.0	Yes	2.982	0.001	n/a	GoodResponse	0	n/a	n/a	1	15	Fixation	Neutral	True
156.064	0.25	Control	0.75	0.004	Yes	2.982	-0.004	4.0	GoodResponse	0	0.234	155.298	1	15	Target	Neutral	True
156.298	0.3	Control	0.75	0.004	Yes	2.982	-0.004	4.0	GoodResponse	0	0.234	n/a	1	15	ButtonPress	Neutral	True
156.315	0.45	Control	0.75	n/a	Yes	2.982	n/a	n/a	GoodResponse	0	n/a	n/a	1	15	Blank	Neutral	True
156.766	1.45	Control	0.75	n/a	Yes	2.982	n/a	5.0	GoodResponse	0	0.036	155.802	1	15	Feedback	Neutral	True
158.221	2.982	Control	0.75	n/a	Yes	2.982	n/a	n/a	GoodResponse	0	0.0	n/a	1	15	ISIslide	Neutral	True
161.213	0.25	Win2	0.7646999999999999	0.0	Yes	2.887	0.013	n/a	GoodResponse	1	n/a	n/a	2	16	Cue	Win	True
161.464	4.0	Win2	0.7646999999999999	0.0	Yes	2.887	0.001	n/a	GoodResponse	1	n/a	n/a	2	16	Fixation	Win	True
165.459	0.24	Win2	0.7646999999999999	0.004	Yes	2.887	-0.004	4.0	GoodResponse	1	0.188	164.647	2	16	Target	Win	True
165.647	0.3	Win2	0.7646999999999999	0.004	Yes	2.887	-0.004	4.0	GoodResponse	1	0.188	n/a	2	16	ButtonPress	Win	True
165.71	0.46	Win2	0.7646999999999999	n/a	Yes	2.887	n/a	n/a	GoodResponse	1	n/a	n/a	2	16	Blank	Win	True
166.161	1.45	Win2	0.7646999999999999	n/a	Yes	2.887	n/a	5.0	GoodResponse	1	0.007	165.168	2	16	Feedback	Win	True
167.615	2.887	Win2	0.7646999999999999	n/a	Yes	2.887	n/a	n/a	GoodResponse	1	0.0	n/a	2	16	ISIslide	Win	True
170.524	0.25	Lose2	0.7222	0.0	No	2.726	0.024	n/a	NoResponse	-1	n/a	n/a	1	17	Cue	Loss	False
170.775	3.95	Lose2	0.7222	0.0	No	2.726	0.001	n/a	NoResponse	-1	n/a	n/a	1	17	Fixation	Loss	False
174.72	0.23	Lose2	0.7222	0.004	No	2.726	-0.004	n/a	NoResponse	-1	n/a	n/a	1	17	Target	Loss	False
174.954	0.47	Lose2	0.7222	n/a	No	2.726	n/a	n/a	NoResponse	-1	n/a	n/a	1	17	Blank	Loss	False
175.422	1.45	Lose2	0.7222	n/a	No	2.726	n/a	5.0	NoResponse	-1	0.015	174.437	1	17	Feedback	Loss	False
176.876	2.726	Lose2	0.7222	n/a	No	2.726	n/a	n/a	NoResponse	-1	0.0	n/a	1	17	ISIslide	Loss	False
179.618	0.25	Lose2	0.6842	0.0	No	2.732	0.018	n/a	NoResponse	-1	n/a	n/a	0	18	Cue	Loss	False
179.869	4.05	Lose2	0.6842	0.0	No	2.732	0.001	n/a	NoResponse	-1	n/a	n/a	0	18	Fixation	Loss	False
183.914	0.22	Lose2	0.6842	0.004	No	2.732	-0.004	n/a	NoResponse	-1	n/a	n/a	0	18	Target	Loss	False
184.148	0.48	Lose2	0.6842	n/a	No	2.732	n/a	n/a	NoResponse	-1	n/a	n/a	0	18	Blank	Loss	False
184.616	1.45	Lose2	0.6842	n/a	No	2.732	n/a	5.0	NoResponse	-1	0.039	183.655	0	18	Feedback	Loss	False
186.071	2.732	Lose2	0.6842	n/a	No	2.732	n/a	n/a	NoResponse	-1	0.0	n/a	0	18	ISIslide	Loss	False
188.829	0.25	Control	0.65	0.0	No	2.921	0.029	n/a	NoResponse	0	n/a	n/a	0	19	Cue	Neutral	False
189.08	3.95	Control	0.65	0.0	No	2.921	0.001	n/a	NoResponse	0	n/a	n/a	0	19	Fixation	Neutral	False
193.025	0.21	Control	0.65	0.004	No	2.921	-0.004	n/a	NoResponse	0	n/a	n/a	0	19	Target	Neutral	False
193.242	0.49	Control	0.65	n/a	No	2.921	n/a	n/a	NoResponse	0	n/a	n/a	0	19	Blank	Neutral	False
193.727	1.45	Control	0.65	n/a	No	2.921	n/a	5.0	NoResponse	0	0.001	192.728	0	19	Feedback	Neutral	False
195.181	2.921	Control	0.65	n/a	No	2.921	n/a	n/a	NoResponse	0	0.0	n/a	0	19	ISIslide	Neutral	False
198.123	0.25	Control	0.6667000000000001	0.0	Yes	2.627	0.023	n/a	GoodResponse	0	n/a	n/a	0	20	Cue	Neutral	True
198.374	4.05	Control	0.6667000000000001	0.0	Yes	2.627	0.001	n/a	GoodResponse	0	n/a	n/a	0	20	Fixation	Neutral	True
202.419	0.22	Control	0.6667000000000001	0.004	Yes	2.627	-0.004	4.0	GoodResponse	0	0.181	201.6	0	20	Target	Neutral	True
202.6	0.3	Control	0.6667000000000001	0.004	Yes	2.627	-0.004	4.0	GoodResponse	0	0.181	n/a	0	20	ButtonPress	Neutral	True
202.653	0.48	Control	0.6667000000000001	n/a	Yes	2.627	n/a	n/a	GoodResponse	0	n/a	n/a	0	20	Blank	Neutral	True
203.122	1.45	Control	0.6667000000000001	n/a	Yes	2.627	n/a	5.0	GoodResponse	0	0.021	202.143	0	20	Feedback	Neutral	True
204.576	2.627	Control	0.6667000000000001	n/a	Yes	2.627	n/a	n/a	GoodResponse	0	0.0	n/a	0	20	ISIslide	Neutral	True
207.217	0.25	Control	0.6364	0.0	No	2.783	0.017	n/a	NoResponse	0	n/a	n/a	0	21	Cue	Neutral	True
207.468	4.1	Control	0.6364	0.0	No	2.783	0.001	n/a	NoResponse	0	n/a	n/a	0	21	Fixation	Neutral	True
211.563	0.21	Control	0.6364	0.004	No	2.783	-0.004	4.0	NoResponse	0	0.257	210.82	0	21	Target	Neutral	True
211.781	0.49	Control	0.6364	n/a	No	2.783	n/a	n/a	NoResponse	0	n/a	n/a	0	21	Blank	Neutral	True
211.82	0.3	Control	0.6364	0.004	No	2.783	-0.004	4.0	NoResponse	0	0.257	n/a	0	21	ButtonPress	Neutral	True
212.265	1.45	Control	0.6364	n/a	No	2.783	n/a	5.0	NoResponse	0	0.049	211.314	0	21	Feedback	Neutral	True
213.72	2.783	Control	0.6364	n/a	No	2.783	n/a	n/a	NoResponse	0	0.0	n/a	0	21	ISIslide	Neutral	True
216.528	0.25	Control	0.6522	0.0	Yes	2.772	0.028	n/a	GoodResponse	0	n/a	n/a	0	22	Cue	Neutral	True
216.779	4.0	Control	0.6522	0.0	Yes	2.772	0.001	n/a	GoodResponse	0	n/a	n/a	0	22	Fixation	Neutral	True
220.774	0.22	Control	0.6522	0.004	Yes	2.772	-0.004	4.0	GoodResponse	0	0.187	219.961	0	22	Target	Neutral	True
220.961	0.3	Control	0.6522	0.004	Yes	2.772	-0.004	4.0	GoodResponse	0	0.187	n/a	0	22	ButtonPress	Neutral	True
221.008	0.48	Control	0.6522	n/a	Yes	2.772	n/a	n/a	GoodResponse	0	n/a	n/a	0	22	Blank	Neutral	True
221.476	1.45	Control	0.6522	n/a	Yes	2.772	n/a	5.0	GoodResponse	0	0.008	220.484	0	22	Feedback	Neutral	True
222.931	2.772	Control	0.6522	n/a	Yes	2.772	n/a	n/a	GoodResponse	0	0.0	n/a	0	22	ISIslide	Neutral	True
225.722	0.25	Control	0.6667000000000001	0.0	Yes	2.778	0.022	n/a	GoodResponse	0	n/a	n/a	0	23	Cue	Neutral	True
225.973	3.9	Control	0.6667000000000001	0.0	Yes	2.778	0.001	n/a	GoodResponse	0	n/a	n/a	0	23	Fixation	Neutral	True
229.868	0.23	Control	0.6667000000000001	0.004	Yes	2.778	-0.004	4.0	GoodResponse	0	0.194	229.062	0	23	Target	Neutral	True
230.062	0.3	Control	0.6667000000000001	0.004	Yes	2.778	-0.004	4.0	GoodResponse	0	0.194	n/a	0	23	ButtonPress	Neutral	True
230.102	0.47	Control	0.6667000000000001	n/a	Yes	2.778	n/a	n/a	GoodResponse	0	n/a	n/a	0	23	Blank	Neutral	True
230.57	1.45	Control	0.6667000000000001	n/a	Yes	2.778	n/a	5.0	GoodResponse	0	0.036	229.606	0	23	Feedback	Neutral	True
232.024	2.778	Control	0.6667000000000001	n/a	Yes	2.778	n/a	n/a	GoodResponse	0	0.0	n/a	0	23	ISIslide	Neutral	True
234.816	0.25	Win2	0.68	0.0	Yes	3.134	0.016	n/a	GoodResponse	1	n/a	n/a	1	24	Cue	Win	True
235.067	3.95	Win2	0.68	0.0	Yes	3.134	0.001	n/a	GoodResponse	1	n/a	n/a	1	24	Fixation	Win	True
239.012	0.22	Win2	0.68	0.004	Yes	3.134	-0.004	4.0	GoodResponse	1	0.199	238.211	1	24	Target	Win	True
239.211	0.3	Win2	0.68	0.004	Yes	3.134	-0.004	4.0	GoodResponse	1	0.199	n/a	1	24	ButtonPress	Win	True
239.246	0.48	Win2	0.68	n/a	Yes	3.134	n/a	n/a	GoodResponse	1	n/a	n/a	1	24	Blank	Win	True
239.714	1.45	Win2	0.68	n/a	Yes	3.134	n/a	5.0	GoodResponse	1	0.014	238.728	1	24	Feedback	Win	True
241.168	3.134	Win2	0.68	n/a	Yes	3.134	n/a	n/a	GoodResponse	1	0.0	n/a	1	24	ISIslide	Win	True
244.328	0.25	Win2	0.6923	0.0	Yes	3.072	0.028	n/a	GoodResponse	1	n/a	n/a	2	25	Cue	Win	True
244.579	4.0	Win2	0.6923	0.0	Yes	3.072	0.001	n/a	GoodResponse	1	n/a	n/a	2	25	Fixation	Win	True
248.574	0.21	Win2	0.6923	0.004	Yes	3.072	-0.004	4.0	GoodResponse	1	0.172	247.746	2	25	Target	Win	True
248.746	0.3	Win2	0.6923	0.004	Yes	3.072	-0.004	4.0	GoodResponse	1	0.172	n/a	2	25	ButtonPress	Win	True
248.791	0.49	Win2	0.6923	n/a	Yes	3.072	n/a	n/a	GoodResponse	1	n/a	n/a	2	25	Blank	Win	True
249.276	1.45	Win2	0.6923	n/a	Yes	3.072	n/a	5.0	GoodResponse	1	0.013	248.289	2	25	Feedback	Win	True
250.73	3.072	Win2	0.6923	n/a	Yes	3.072	n/a	n/a	GoodResponse	1	0.0	n/a	2	25	ISIslide	Win	True
253.823	0.25	Win2	0.6667000000000001	0.0	No	2.927	0.023	n/a	NoResponse	0	n/a	n/a	2	26	Cue	MissedWin	True
254.074	3.95	Win2	0.6667000000000001	0.0	No	2.927	0.001	n/a	NoResponse	0	n/a	n/a	2	26	Fixation	MissedWin	True
258.019	0.2	Win2	0.6667000000000001	0.004	No	2.927	-0.004	4.0	NoResponse	0	0.237	257.256	2	26	Target	MissedWin	True
258.219	0.5	Win2	0.6667000000000001	n/a	No	2.927	n/a	n/a	NoResponse	0	n/a	n/a	2	26	Blank	MissedWin	True
258.256	0.3	Win2	0.6667000000000001	0.004	No	2.927	-0.004	4.0	NoResponse	0	0.237	n/a	2	26	ButtonPress	MissedWin	True
258.721	1.45	Win2	0.6667000000000001	n/a	No	2.927	n/a	5.0	NoResponse	0	0.031	257.752	2	26	Feedback	MissedWin	True
260.175	2.927	Win2	0.6667000000000001	n/a	No	2.927	n/a	n/a	NoResponse	0	0.0	n/a	2	26	ISIslide	MissedWin	True
263.117	0.25	Lose2	0.6429	0.0	No	2.833	0.017	n/a	NoResponse	-1	n/a	n/a	1	27	Cue	Loss	True
263.368	4.05	Lose2	0.6429	0.0	No	2.833	0.001	n/a	NoResponse	-1	n/a	n/a	1	27	Fixation	Loss	True
267.414	0.19	Lose2	0.6429	0.003	No	2.833	-0.003	4.0	NoResponse	-1	0.297	266.711	1	27	Target	Loss	True
267.614	0.51	Lose2	0.6429	n/a	No	2.833	n/a	n/a	NoResponse	-1	n/a	n/a	1	27	Blank	Loss	True
267.711	0.3	Lose2	0.6429	0.003	No	2.833	-0.003	4.0	NoResponse	-1	0.297	n/a	1	27	ButtonPress	Loss	True
268.116	1.45	Lose2	0.6429	n/a	No	2.833	n/a	5.0	NoResponse	-1	0.003	267.119	1	27	Feedback	Loss	True
269.57	2.833	Lose2	0.6429	n/a	No	2.833	n/a	n/a	NoResponse	-1	0.0	n/a	1	27	ISIslide	Loss	True
272.428	0.25	Control	0.6207	0.001	No	2.822	0.028	n/a	NoResponse	0	n/a	n/a	1	28	Cue	Neutral	True
272.679	4.05	Control	0.6207	0.0	No	2.822	0.001	n/a	NoResponse	0	n/a	n/a	1	28	Fixation	Neutral	True
276.725	0.2	Control	0.6207	0.003	No	2.822	-0.003	4.0	NoResponse	0	0.352	276.077	1	28	Target	Neutral	True
276.925	0.5	Control	0.6207	n/a	No	2.822	n/a	n/a	NoResponse	0	n/a	n/a	1	28	Blank	Neutral	True
277.077	0.3	Control	0.6207	0.003	No	2.822	-0.003	4.0	NoResponse	0	0.352	n/a	1	28	ButtonPress	Neutral	True
277.427	1.45	Control	0.6207	n/a	No	2.822	n/a	5.0	NoResponse	0	0.008	276.435	1	28	Feedback	Neutral	True
278.881	2.822	Control	0.6207	n/a	No	2.822	n/a	n/a	NoResponse	0	0.0	n/a	1	28	ISIslide	Neutral	True
281.723	0.25	Lose2	0.6333	0.0	Yes	2.827	0.023	n/a	GoodResponse	0	n/a	n/a	1	29	Cue	AvoidedLoss	True
281.974	3.95	Lose2	0.6333	0.0	Yes	2.827	0.001	n/a	GoodResponse	0	n/a	n/a	1	29	Fixation	AvoidedLoss	True
285.919	0.21	Lose2	0.6333	0.004	Yes	2.827	-0.004	4.0	GoodResponse	0	0.203	285.122	1	29	Target	AvoidedLoss	True
286.122	0.3	Lose2	0.6333	0.004	Yes	2.827	-0.004	4.0	GoodResponse	0	0.203	n/a	1	29	ButtonPress	AvoidedLoss	True
286.136	0.49	Lose2	0.6333	n/a	Yes	2.827	n/a	n/a	GoodResponse	0	n/a	n/a	1	29	Blank	AvoidedLoss	True
286.621	1.45	Lose2	0.6333	n/a	Yes	2.827	n/a	5.0	GoodResponse	0	0.033	285.654	1	29	Feedback	AvoidedLoss	True
288.075	2.827	Lose2	0.6333	n/a	Yes	2.827	n/a	n/a	GoodResponse	0	0.0	n/a	1	29	ISIslide	AvoidedLoss	True
290.917	0.25	Win2	0.6452	0.0	Yes	2.783	0.017	n/a	GoodResponse	1	n/a	n/a	2	30	Cue	Win	True
291.168	3.9	Win2	0.6452	0.0	Yes	2.783	0.001	n/a	GoodResponse	1	n/a	n/a	2	30	Fixation	Win	True
295.063	0.22	Win2	0.6452	0.004	Yes	2.783	-0.004	4.0	GoodResponse	1	0.194	294.257	2	30	Target	Win	True
295.257	0.3	Win2	0.6452	0.004	Yes	2.783	-0.004	4.0	GoodResponse	1	0.194	n/a	2	30	ButtonPress	Win	True
295.297	0.48	Win2	0.6452	n/a	Yes	2.783	n/a	n/a	GoodResponse	1	n/a	n/a	2	30	Blank	Win	True
295.765	1.45	Win2	0.6452	n/a	Yes	2.783	n/a	5.0	GoodResponse	1	0.01	294.775	2	30	Feedback	Win	True
297.219	2.783	Win2	0.6452	n/a	Yes	2.783	n/a	n/a	GoodResponse	1	0.0	n/a	2	30	ISIslide	Win	True
300.028	0.25	Lose2	0.625	0.0	No	2.822	0.028	n/a	PrematurePress	-1	n/a	n/a	1	31	Cue	Loss	True
300.278	4.05	Lose2	0.625	0.0	No	2.822	0.0	n/a	PrematurePress	-1	n/a	n/a	1	31	Fixation	Loss	True
304.324	0.23	Lose2	0.625	0.004	No	2.822	-0.004	4.0	PrematurePress	-1	0.009	303.333	1	31	Target	Loss	True
304.333	0.3	Lose2	0.625	0.004	No	2.822	-0.004	4.0	PrematurePress	-1	0.009	n/a	1	31	ButtonPress	Loss	True
304.558	0.47	Lose2	0.625	n/a	No	2.822	n/a	n/a	PrematurePress	-1	n/a	n/a	1	31	Blank	Loss	True
305.026	1.45	Lose2	0.625	n/a	No	2.822	n/a	5.0	PrematurePress	-1	0.018	304.044	1	31	Feedback	Loss	True
306.48	2.822	Lose2	0.625	n/a	No	2.822	n/a	n/a	PrematurePress	-1	0.0	n/a	1	31	ISIslide	Loss	True
309.322	0.25	Lose2	0.6061	0.0	No	2.628	0.022	n/a	NoResponse	-1	n/a	n/a	0	32	Cue	Loss	False
309.573	4.15	Lose2	0.6061	0.0	No	2.628	0.001	n/a	NoResponse	-1	n/a	n/a	0	32	Fixation	Loss	False
313.718	0.24	Lose2	0.6061	0.004	No	2.628	-0.004	n/a	NoResponse	-1	n/a	n/a	0	32	Target	Loss	False
313.969	0.46	Lose2	0.6061	n/a	No	2.628	n/a	n/a	NoResponse	-1	n/a	n/a	0	32	Blank	Loss	False
314.421	1.45	Lose2	0.6061	n/a	No	2.628	n/a	5.0	NoResponse	-1	0.037	313.458	0	32	Feedback	Loss	False
315.875	2.628	Lose2	0.6061	n/a	No	2.628	n/a	n/a	NoResponse	-1	0.0	n/a	0	32	ISIslide	Loss	False
318.516	0.25	Win2	0.5882000000000001	0.0	No	2.684	0.016	n/a	NoResponse	0	n/a	n/a	0	33	Cue	MissedWin	True
318.767	4.0	Win2	0.5882000000000001	0.0	No	2.684	0.001	n/a	NoResponse	0	n/a	n/a	0	33	Fixation	MissedWin	True
322.762	0.25	Win2	0.5882000000000001	0.004	No	2.684	-0.004	4.0	NoResponse	0	0.329	322.091	0	33	Target	MissedWin	True
323.013	0.45	Win2	0.5882000000000001	n/a	No	2.684	n/a	n/a	NoResponse	0	n/a	n/a	0	33	Blank	MissedWin	True
323.091	0.3	Win2	0.5882000000000001	0.004	No	2.684	-0.004	4.0	NoResponse	0	0.329	n/a	0	33	ButtonPress	MissedWin	True
323.464	1.45	Win2	0.5882000000000001	n/a	No	2.684	n/a	5.0	NoResponse	0	0.019	322.483	0	33	Feedback	MissedWin	True
324.919	2.684	Win2	0.5882000000000001	n/a	No	2.684	n/a	n/a	NoResponse	0	0.0	n/a	0	33	ISIslide	MissedWin	True
327.627	0.25	Lose2	0.6	0.0	Yes	2.623	0.027	n/a	GoodResponse	0	n/a	n/a	0	34	Cue	AvoidedLoss	True
327.877	4.05	Lose2	0.6	0.001	Yes	2.623	0.0	n/a	GoodResponse	0	n/a	n/a	0	34	Fixation	AvoidedLoss	True
331.923	0.26	Lose2	0.6	0.004	Yes	2.623	-0.004	4.0	GoodResponse	0	0.205	331.128	0	34	Target	AvoidedLoss	True
332.128	0.3	Lose2	0.6	0.004	Yes	2.623	-0.004	4.0	GoodResponse	0	0.205	n/a	0	34	ButtonPress	AvoidedLoss	True
332.19	0.44	Lose2	0.6	n/a	Yes	2.623	n/a	n/a	GoodResponse	0	n/a	n/a	0	34	Blank	AvoidedLoss	True
332.625	1.45	Lose2	0.6	n/a	Yes	2.623	n/a	5.0	GoodResponse	0	0.028	331.653	0	34	Feedback	AvoidedLoss	True
334.079	2.623	Lose2	0.6	n/a	Yes	2.623	n/a	n/a	GoodResponse	0	0.0	n/a	0	34	ISIslide	AvoidedLoss	True
336.721	0.25	Lose2	0.5832999999999999	0.0	No	2.679	0.021	n/a	NoResponse	-1	n/a	n/a	-1	35	Cue	Loss	False
336.971	4.0	Lose2	0.5832999999999999	0.0	No	2.679	0.0	n/a	NoResponse	-1	n/a	n/a	-1	35	Fixation	Loss	False
340.967	0.27	Lose2	0.5832999999999999	0.004	No	2.679	-0.004	n/a	NoResponse	-1	n/a	n/a	-1	35	Target	Loss	False
341.251	0.43	Lose2	0.5832999999999999	n/a	No	2.679	n/a	n/a	NoResponse	-1	n/a	n/a	-1	35	Blank	Loss	False
341.669	1.45	Lose2	0.5832999999999999	n/a	No	2.679	n/a	5.0	NoResponse	-1	0.008	340.677	-1	35	Feedback	Loss	False
343.123	2.679	Lose2	0.5832999999999999	n/a	No	2.679	n/a	n/a	NoResponse	-1	0.0	n/a	-1	35	ISIslide	Loss	False
345.814	0.25	Control	0.5946	0.0	Yes	2.686	0.014	n/a	GoodResponse	0	n/a	n/a	-1	36	Cue	Neutral	True
346.065	4.0	Control	0.5946	0.0	Yes	2.686	0.001	n/a	GoodResponse	0	n/a	n/a	-1	36	Fixation	Neutral	True
350.06	0.28	Control	0.5946	0.004	Yes	2.686	-0.004	4.0	GoodResponse	0	0.186	349.246	-1	36	Target	Neutral	True
350.246	0.3	Control	0.5946	0.004	Yes	2.686	-0.004	4.0	GoodResponse	0	0.186	n/a	-1	36	ButtonPress	Neutral	True
350.345	0.42	Control	0.5946	n/a	Yes	2.686	n/a	n/a	GoodResponse	0	n/a	n/a	-1	36	Blank	Neutral	True
350.762	1.45	Control	0.5946	n/a	Yes	2.686	n/a	5.0	GoodResponse	0	0.037	349.799	-1	36	Feedback	Neutral	True
352.217	2.686	Control	0.5946	n/a	Yes	2.686	n/a	n/a	GoodResponse	0	0.0	n/a	-1	36	ISIslide	Neutral	True
354.925	0.25	Win2	0.6053000000000001	0.0	Yes	2.875	0.025	n/a	GoodResponse	1	n/a	n/a	0	37	Cue	Win	True
355.176	4.0	Win2	0.6053000000000001	0.0	Yes	2.875	0.001	n/a	GoodResponse	1	n/a	n/a	0	37	Fixation	Win	True
359.171	0.29	Win2	0.6053000000000001	0.004	Yes	2.875	-0.004	4.0	GoodResponse	1	0.172	358.343	0	37	Target	Win	True
359.343	0.3	Win2	0.6053000000000001	0.004	Yes	2.875	-0.004	4.0	GoodResponse	1	0.172	n/a	0	37	ButtonPress	Win	True
359.472	0.41	Win2	0.6053000000000001	n/a	Yes	2.875	n/a	n/a	GoodResponse	1	n/a	n/a	0	37	Blank	Win	True
359.873	1.45	Win2	0.6053000000000001	n/a	Yes	2.875	n/a	5.0	GoodResponse	1	0.048	358.921	0	37	Feedback	Win	True
361.327	2.875	Win2	0.6053000000000001	n/a	Yes	2.875	n/a	n/a	GoodResponse	1	0.0	n/a	0	37	ISIslide	Win	True
364.219	0.25	Lose2	0.6154	0.0	Yes	2.831	0.019	n/a	GoodResponse	0	n/a	n/a	0	38	Cue	AvoidedLoss	True
364.47	3.95	Lose2	0.6154	0.0	Yes	2.831	0.001	n/a	GoodResponse	0	n/a	n/a	0	38	Fixation	AvoidedLoss	True
368.415	0.3	Lose2	0.6154	0.004	Yes	2.831	-0.004	4.0	GoodResponse	0	0.219	367.634	0	38	Target	AvoidedLoss	True
368.634	0.3	Lose2	0.6154	0.004	Yes	2.831	-0.004	4.0	GoodResponse	0	0.219	n/a	0	38	ButtonPress	AvoidedLoss	True
368.716	0.4	Lose2	0.6154	n/a	Yes	2.831	n/a	n/a	GoodResponse	0	n/a	n/a	0	38	Blank	AvoidedLoss	True
369.117	1.45	Lose2	0.6154	n/a	Yes	2.831	n/a	5.0	GoodResponse	0	0.023	368.14	0	38	Feedback	AvoidedLoss	True
370.572	2.831	Lose2	0.6154	n/a	Yes	2.831	n/a	n/a	GoodResponse	0	0.0	n/a	0	38	ISIslide	AvoidedLoss	True
373.413	0.25	Win2	0.625	0.0	Yes	2.987	0.013	n/a	GoodResponse	1	n/a	n/a	1	39	Cue	Win	True
373.664	4.1	Win2	0.625	0.0	Yes	2.987	0.001	n/a	GoodResponse	1	n/a	n/a	1	39	Fixation	Win	True
377.76	0.31	Win2	0.625	0.003	Yes	2.987	-0.003	4.0	GoodResponse	1	0.279	377.039	1	39	Target	Win	True
378.039	0.3	Win2	0.625	0.003	Yes	2.987	-0.003	4.0	GoodResponse	1	0.279	n/a	1	39	ButtonPress	Win	True
378.077	0.39	Win2	0.625	n/a	Yes	2.987	n/a	n/a	GoodResponse	1	n/a	n/a	1	39	Blank	Win	True
378.462	1.45	Win2	0.625	n/a	Yes	2.987	n/a	5.0	GoodResponse	1	0.044	377.506	1	39	Feedback	Win	True
379.916	2.987	Win2	0.625	n/a	Yes	2.987	n/a	n/a	GoodResponse	1	0.0	n/a	1	39	ISIslide	Win	True
382.925	0.25	Win2	0.6341	0.0	Yes	2.725	0.025	n/a	GoodResponse	1	n/a	n/a	2	40	Cue	Win	True
383.176	3.95	Win2	0.6341	0.0	Yes	2.725	0.001	n/a	GoodResponse	1	n/a	n/a	2	40	Fixation	Win	True
387.121	0.32	Win2	0.6341	0.004	Yes	2.725	-0.004	4.0	GoodResponse	1	0.234	386.355	2	40	Target	Win	True
387.355	0.3	Win2	0.6341	0.004	Yes	2.725	-0.004	4.0	GoodResponse	1	0.234	n/a	2	40	ButtonPress	Win	True
387.455	0.38	Win2	0.6341	n/a	Yes	2.725	n/a	n/a	GoodResponse	1	n/a	n/a	2	40	Blank	Win	True
387.823	1.45	Win2	0.6341	n/a	Yes	2.725	n/a	5.0	GoodResponse	1	0.049	386.872	2	40	Feedback	Win	True
389.277	2.725	Win2	0.6341	n/a	Yes	2.725	n/a	n/a	GoodResponse	1	0.0	n/a	2	40	ISIslide	Win	True
392.019	0.25	Win2	0.6429	0.0	Yes	2.781	0.019	n/a	GoodResponse	1	n/a	n/a	3	41	Cue	Win	True
392.27	3.9	Win2	0.6429	0.0	Yes	2.781	0.001	n/a	GoodResponse	1	n/a	n/a	3	41	Fixation	Win	True
396.165	0.33	Win2	0.6429	0.004	Yes	2.781	-0.004	4.0	GoodResponse	1	0.23	395.395	3	41	Target	Win	True
396.395	0.3	Win2	0.6429	0.004	Yes	2.781	-0.004	4.0	GoodResponse	1	0.23	n/a	3	41	ButtonPress	Win	True
396.499	0.37	Win2	0.6429	n/a	Yes	2.781	n/a	n/a	GoodResponse	1	n/a	n/a	3	41	Blank	Win	True
396.867	1.45	Win2	0.6429	n/a	Yes	2.781	n/a	5.0	GoodResponse	1	0.029	395.896	3	41	Feedback	Win	True
398.321	2.781	Win2	0.6429	n/a	Yes	2.781	n/a	n/a	GoodResponse	1	0.0	n/a	3	41	ISIslide	Win	True
401.113	0.25	Control	0.6512	0.0	Yes	2.937	0.013	n/a	GoodResponse	0	n/a	n/a	3	42	Cue	Neutral	True
401.364	3.85	Control	0.6512	0.0	Yes	2.937	0.001	n/a	GoodResponse	0	n/a	n/a	3	42	Fixation	Neutral	True
405.225	0.34	Control	0.6512	0.0	Yes	2.937	0.012	4.0	GoodResponse	0	0.191	404.416	3	42	Target	Neutral	True
405.416	0.3	Control	0.6512	0.0	Yes	2.937	0.012	4.0	GoodResponse	0	0.191	n/a	3	42	ButtonPress	Neutral	True
405.559	0.36	Control	0.6512	n/a	Yes	2.937	n/a	n/a	GoodResponse	0	n/a	n/a	3	42	Blank	Neutral	True
405.91	1.45	Control	0.6512	n/a	Yes	2.937	n/a	5.0	GoodResponse	0	0.011	404.921	3	42	Feedback	Neutral	True
407.365	2.937	Control	0.6512	n/a	Yes	2.937	n/a	n/a	GoodResponse	0	0.0	n/a	3	42	ISIslide	Neutral	True
410.324	0.25	Win2	0.6591	0.0	Yes	3.176	0.024	n/a	GoodResponse	1	n/a	n/a	4	43	Cue	Win	True
410.574	4.0	Win2	0.6591	0.0	Yes	3.176	0.0	n/a	GoodResponse	1	n/a	n/a	4	43	Fixation	Win	True
414.57	0.35	Win2	0.6591	0.004	Yes	3.176	-0.004	4.0	GoodResponse	1	0.189	413.759	4	43	Target	Win	True
414.759	0.3	Win2	0.6591	0.004	Yes	3.176	-0.004	4.0	GoodResponse	1	0.189	n/a	4	43	ButtonPress	Win	True
414.921	0.35	Win2	0.6591	n/a	Yes	3.176	n/a	n/a	GoodResponse	1	n/a	n/a	4	43	Blank	Win	True
415.272	1.45	Win2	0.6591	n/a	Yes	3.176	n/a	5.0	GoodResponse	1	0.014	414.286	4	43	Feedback	Win	True
416.726	3.176	Win2	0.6591	n/a	Yes	3.176	n/a	n/a	GoodResponse	1	0.0	n/a	4	43	ISIslide	Win	True
419.919	0.25	Win2	0.6667000000000001	0.0	Yes	2.981	0.019	n/a	GoodResponse	1	n/a	n/a	5	44	Cue	Win	True
420.17	4.0	Win2	0.6667000000000001	0.0	Yes	2.981	0.001	n/a	GoodResponse	1	n/a	n/a	5	44	Fixation	Win	True
424.165	0.35	Win2	0.6667000000000001	0.004	Yes	2.981	-0.004	4.0	GoodResponse	1	0.219	423.384	5	44	Target	Win	True
424.384	0.3	Win2	0.6667000000000001	0.004	Yes	2.981	-0.004	4.0	GoodResponse	1	0.219	n/a	5	44	ButtonPress	Win	True
424.516	0.35	Win2	0.6667000000000001	n/a	Yes	2.981	n/a	n/a	GoodResponse	1	n/a	n/a	5	44	Blank	Win	True
424.867	1.45	Win2	0.6667000000000001	n/a	Yes	2.981	n/a	5.0	GoodResponse	1	0.029	423.896	5	44	Feedback	Win	True
426.321	2.981	Win2	0.6667000000000001	n/a	Yes	2.981	n/a	n/a	GoodResponse	1	0.0	n/a	5	44	ISIslide	Win	True
429.314	0.25	Control	0.6739	0.0	Yes	2.886	0.014	n/a	GoodResponse	0	n/a	n/a	5	45	Cue	Neutral	True
429.564	4.1	Control	0.6739	0.001	Yes	2.886	0.0	n/a	GoodResponse	0	n/a	n/a	5	45	Fixation	Neutral	True
433.66	0.34	Control	0.6739	0.004	Yes	2.886	-0.004	4.0	GoodResponse	0	0.182	432.842	5	45	Target	Neutral	True
433.842	0.3	Control	0.6739	0.004	Yes	2.886	-0.004	4.0	GoodResponse	0	0.182	n/a	5	45	ButtonPress	Neutral	True
434.011	0.36	Control	0.6739	n/a	Yes	2.886	n/a	n/a	GoodResponse	0	n/a	n/a	5	45	Blank	Neutral	True
434.362	1.45	Control	0.6739	n/a	Yes	2.886	n/a	5.0	GoodResponse	0	0.046	433.408	5	45	Feedback	Neutral	True
435.816	2.886	Control	0.6739	n/a	Yes	2.886	n/a	n/a	GoodResponse	0	0.0	n/a	5	45	ISIslide	Neutral	True
438.725	0.25	Lose2	0.6809000000000001	0.0	Yes	3.375	0.025	n/a	GoodResponse	0	n/a	n/a	5	46	Cue	AvoidedLoss	True
438.976	4.0	Lose2	0.6809000000000001	0.0	Yes	3.375	0.001	n/a	GoodResponse	0	n/a	n/a	5	46	Fixation	AvoidedLoss	True
442.971	0.33	Lose2	0.6809000000000001	0.004	Yes	3.375	-0.004	4.0	GoodResponse	0	0.23	442.201	5	46	Target	AvoidedLoss	True
443.201	0.3	Lose2	0.6809000000000001	0.004	Yes	3.375	-0.004	4.0	GoodResponse	0	0.23	n/a	5	46	ButtonPress	AvoidedLoss	True
443.305	0.37	Lose2	0.6809000000000001	n/a	Yes	3.375	n/a	n/a	GoodResponse	0	n/a	n/a	5	46	Blank	AvoidedLoss	True
443.673	1.45	Lose2	0.6809000000000001	n/a	Yes	3.375	n/a	5.0	GoodResponse	0	0.007	442.68	5	46	Feedback	AvoidedLoss	True
445.128	3.375	Lose2	0.6809000000000001	n/a	Yes	3.375	n/a	n/a	GoodResponse	0	0.0	n/a	5	46	ISIslide	AvoidedLoss	True
448.521	0.25	Lose2	0.6875	0.0	Yes	2.679	0.021	n/a	GoodResponse	0	n/a	n/a	5	47	Cue	AvoidedLoss	True
448.772	4.0	Lose2	0.6875	0.0	Yes	2.679	0.001	n/a	GoodResponse	0	n/a	n/a	5	47	Fixation	AvoidedLoss	True
452.767	0.32	Lose2	0.6875	0.004	Yes	2.679	-0.004	4.0	GoodResponse	0	0.25	452.017	5	47	Target	AvoidedLoss	True
453.017	0.3	Lose2	0.6875	0.004	Yes	2.679	-0.004	4.0	GoodResponse	0	0.25	n/a	5	47	ButtonPress	AvoidedLoss	True
453.101	0.38	Lose2	0.6875	n/a	Yes	2.679	n/a	n/a	GoodResponse	0	n/a	n/a	5	47	Blank	AvoidedLoss	True
453.469	1.45	Lose2	0.6875	n/a	Yes	2.679	n/a	5.0	GoodResponse	0	0.011	452.48	5	47	Feedback	AvoidedLoss	True
454.924	2.679	Lose2	0.6875	n/a	Yes	2.679	n/a	n/a	GoodResponse	0	0.0	n/a	5	47	ISIslide	AvoidedLoss	True
457.615	0.25	Lose2	0.6939	0.0	Yes	3.035	0.015	n/a	GoodResponse	0	n/a	n/a	5	48	Cue	AvoidedLoss	True
457.866	3.95	Lose2	0.6939	0.0	Yes	3.035	0.001	n/a	GoodResponse	0	n/a	n/a	5	48	Fixation	AvoidedLoss	True
461.811	0.31	Lose2	0.6939	0.004	Yes	3.035	-0.004	4.0	GoodResponse	0	0.188	460.999	5	48	Target	AvoidedLoss	True
461.999	0.3	Lose2	0.6939	0.004	Yes	3.035	-0.004	4.0	GoodResponse	0	0.188	n/a	5	48	ButtonPress	AvoidedLoss	True
462.128	0.39	Lose2	0.6939	n/a	Yes	3.035	n/a	n/a	GoodResponse	0	n/a	n/a	5	48	Blank	AvoidedLoss	True
462.513	1.45	Lose2	0.6939	n/a	Yes	3.035	n/a	5.0	GoodResponse	0	0.041	461.554	5	48	Feedback	AvoidedLoss	True
463.967	3.035	Lose2	0.6939	n/a	Yes	3.035	n/a	n/a	GoodResponse	0	0.0	n/a	5	48	ISIslide	AvoidedLoss	True
467.026	0.25	Control	0.68	0.0	No	2.874	0.026	n/a	NoResponse	0	n/a	n/a	5	49	Cue	Neutral	False
467.277	4.0	Control	0.68	0.0	No	2.874	0.001	n/a	NoResponse	0	n/a	n/a	5	49	Fixation	Neutral	False
471.272	0.3	Control	0.68	0.004	No	2.874	-0.004	n/a	NoResponse	0	n/a	n/a	5	49	Target	Neutral	False
471.573	0.4	Control	0.68	n/a	No	2.874	n/a	n/a	NoResponse	0	n/a	n/a	5	49	Blank	Neutral	False
471.974	1.45	Control	0.68	n/a	No	2.874	n/a	5.0	NoResponse	0	0.043	471.017	5	49	Feedback	Neutral	False
473.429	2.874	Control	0.68	n/a	No	2.874	n/a	n/a	NoResponse	0	0.0	n/a	5	49	ISIslide	Neutral	False
476.321	0.25	Control	0.6862999999999999	0.0	Yes	2.779	0.021	n/a	GoodResponse	0	n/a	n/a	5	50	Cue	Neutral	True
476.571	4.0	Control	0.6862999999999999	0.001	Yes	2.779	0.0	n/a	GoodResponse	0	n/a	n/a	5	50	Fixation	Neutral	True
480.567	0.29	Control	0.6862999999999999	0.004	Yes	2.779	-0.004	4.0	GoodResponse	0	0.2	479.767	5	50	Target	Neutral	True
480.767	0.3	Control	0.6862999999999999	0.004	Yes	2.779	-0.004	4.0	GoodResponse	0	0.2	n/a	5	50	ButtonPress	Neutral	True
480.868	0.41	Control	0.6862999999999999	n/a	Yes	2.779	n/a	n/a	GoodResponse	0	n/a	n/a	5	50	Blank	Neutral	True
481.269	1.45	Control	0.6862999999999999	n/a	Yes	2.779	n/a	5.0	GoodResponse	0	0.017	480.286	5	50	Feedback	Neutral	True
482.723	2.779	Control	0.6862999999999999	n/a	Yes	2.779	n/a	n/a	GoodResponse	0	0.0	n/a	5	50	ISIslide	Neutral	True
485.515	0.25	Control	0.6923	0.0	Yes	2.735	0.015	n/a	GoodResponse	0	n/a	n/a	5	51	Cue	Neutral	True
485.766	3.95	Control	0.6923	0.0	Yes	2.735	0.001	n/a	GoodResponse	0	n/a	n/a	5	51	Fixation	Neutral	True
489.711	0.28	Control	0.6923	0.004	Yes	2.735	-0.004	4.0	GoodResponse	0	0.276	488.987	5	51	Target	Neutral	True
489.987	0.3	Control	0.6923	0.004	Yes	2.735	-0.004	4.0	GoodResponse	0	0.276	n/a	5	51	ButtonPress	Neutral	True
489.995	0.42	Control	0.6923	n/a	Yes	2.735	n/a	n/a	GoodResponse	0	n/a	n/a	5	51	Blank	Neutral	True
490.413	1.45	Control	0.6923	n/a	Yes	2.735	n/a	5.0	GoodResponse	0	0.042	489.455	5	51	Feedback	Neutral	True
491.867	2.735	Control	0.6923	n/a	Yes	2.735	n/a	n/a	GoodResponse	0	0.0	n/a	5	51	ISIslide	Neutral	True
494.625	0.25	Control	0.6792	0.001	No	2.625	0.025	n/a	NoResponse	0	n/a	n/a	5	52	Cue	Neutral	False
494.876	4.05	Control	0.6792	0.0	No	2.625	0.001	n/a	NoResponse	0	n/a	n/a	5	52	Fixation	Neutral	False
498.922	0.27	Control	0.6792	0.003	No	2.625	-0.003	n/a	NoResponse	0	n/a	n/a	5	52	Target	Neutral	False
499.206	0.43	Control	0.6792	n/a	No	2.625	n/a	n/a	NoResponse	0	n/a	n/a	5	52	Blank	Neutral	False
499.624	1.45	Control	0.6792	n/a	No	2.625	n/a	5.0	NoResponse	0	0.006	498.63	5	52	Feedback	Neutral	False
501.078	2.625	Control	0.6792	n/a	No	2.625	n/a	n/a	NoResponse	0	0.0	n/a	5	52	ISIslide	Neutral	False
503.719	0.25	Win2	0.6851999999999999	0.0	Yes	2.931	0.019	n/a	GoodResponse	1	n/a	n/a	6	53	Cue	Win	True
503.97	4.05	Win2	0.6851999999999999	0.0	Yes	2.931	0.001	n/a	GoodResponse	1	n/a	n/a	6	53	Fixation	Win	True
508.015	0.26	Win2	0.6851999999999999	0.004	Yes	2.931	-0.004	4.0	GoodResponse	1	0.185	507.2	6	53	Target	Win	True
508.2	0.3	Win2	0.6851999999999999	0.004	Yes	2.931	-0.004	4.0	GoodResponse	1	0.185	n/a	6	53	ButtonPress	Win	True
508.283	0.44	Win2	0.6851999999999999	n/a	Yes	2.931	n/a	n/a	GoodResponse	1	n/a	n/a	6	53	Blank	Win	True
508.718	1.45	Win2	0.6851999999999999	n/a	Yes	2.931	n/a	5.0	GoodResponse	1	0.03	507.748	6	53	Feedback	Win	True
510.172	2.931	Win2	0.6851999999999999	n/a	Yes	2.931	n/a	n/a	GoodResponse	1	0.0	n/a	6	53	ISIslide	Win	True
513.131	0.25	Win2	0.6727	0.0	No	2.719	0.031	n/a	NoResponse	0	n/a	n/a	6	54	Cue	MissedWin	True
513.381	3.95	Win2	0.6727	0.0	No	2.719	0.0	n/a	NoResponse	0	n/a	n/a	6	54	Fixation	MissedWin	True
517.327	0.25	Win2	0.6727	0.004	No	2.719	-0.004	4.0	NoResponse	0	0.268	516.595	6	54	Target	MissedWin	True
517.577	0.45	Win2	0.6727	n/a	No	2.719	n/a	n/a	NoResponse	0	n/a	n/a	6	54	Blank	MissedWin	True
517.595	0.3	Win2	0.6727	0.004	No	2.719	-0.004	4.0	NoResponse	0	0.268	n/a	6	54	ButtonPress	MissedWin	True
518.029	1.45	Win2	0.6727	n/a	No	2.719	n/a	5.0	NoResponse	0	0.037	517.066	6	54	Feedback	MissedWin	True
519.483	2.719	Win2	0.6727	n/a	No	2.719	n/a	n/a	NoResponse	0	0.0	n/a	6	54	ISIslide	MissedWin	True
522.225	0.25	Control	0.6786	0.0	Yes	3.025	0.025	n/a	GoodResponse	0	n/a	n/a	6	55	Cue	Neutral	True
522.475	3.95	Control	0.6786	0.0	Yes	3.025	0.0	n/a	GoodResponse	0	n/a	n/a	6	55	Fixation	Neutral	True
526.437	0.24	Control	0.6786	0.0	Yes	3.025	0.012	4.0	GoodResponse	0	0.202	525.639	6	55	Target	Neutral	True
526.639	0.3	Control	0.6786	0.0	Yes	3.025	0.012	4.0	GoodResponse	0	0.202	n/a	6	55	ButtonPress	Neutral	True
526.671	0.46	Control	0.6786	n/a	Yes	3.025	n/a	n/a	GoodResponse	0	n/a	n/a	6	55	Blank	Neutral	True
527.122	1.45	Control	0.6786	n/a	Yes	3.025	n/a	5.0	GoodResponse	0	0.016	526.138	6	55	Feedback	Neutral	True
528.577	3.025	Control	0.6786	n/a	Yes	3.025	n/a	n/a	GoodResponse	0	0.0	n/a	6	55	ISIslide	Neutral	True
531.619	0.25	Control	0.6842	0.0	Yes	2.831	0.019	n/a	GoodResponse	0	n/a	n/a	6	56	Cue	Neutral	True
531.87	3.95	Control	0.6842	0.0	Yes	2.831	0.001	n/a	GoodResponse	0	n/a	n/a	6	56	Fixation	Neutral	True
535.815	0.23	Control	0.6842	0.004	Yes	2.831	-0.004	4.0	GoodResponse	0	0.204	535.019	6	56	Target	Neutral	True
536.019	0.3	Control	0.6842	0.004	Yes	2.831	-0.004	4.0	GoodResponse	0	0.204	n/a	6	56	ButtonPress	Neutral	True
536.049	0.47	Control	0.6842	n/a	Yes	2.831	n/a	n/a	GoodResponse	0	n/a	n/a	6	56	Blank	Neutral	True
536.517	1.45	Control	0.6842	n/a	Yes	2.831	n/a	5.0	GoodResponse	0	0.036	535.553	6	56	Feedback	Neutral	True
537.972	2.831	Control	0.6842	n/a	Yes	2.831	n/a	n/a	GoodResponse	0	0.0	n/a	6	56	ISIslide	Neutral	True
540.813	0.25	Control	0.6724	0.0	No	3.487	0.013	n/a	NoResponse	0	n/a	n/a	6	57	Cue	Neutral	True
541.064	4.0	Control	0.6724	0.0	No	3.487	0.001	n/a	NoResponse	0	n/a	n/a	6	57	Fixation	Neutral	True
545.059	0.22	Control	0.6724	0.004	No	3.487	-0.004	4.0	NoResponse	0	0.269	544.328	6	57	Target	Neutral	True
545.293	0.48	Control	0.6724	n/a	No	3.487	n/a	n/a	NoResponse	0	n/a	n/a	6	57	Blank	Neutral	True
545.328	0.3	Control	0.6724	0.004	No	3.487	-0.004	4.0	NoResponse	0	0.269	n/a	6	57	ButtonPress	Neutral	True
545.761	1.45	Control	0.6724	n/a	No	3.487	n/a	5.0	NoResponse	0	0.011	544.772	6	57	Feedback	Neutral	True
547.216	3.487	Control	0.6724	n/a	No	3.487	n/a	n/a	NoResponse	0	0.0	n/a	6	57	ISIslide	Neutral	True
550.726	0.25	Win2	0.6779999999999999	0.0	Yes	2.724	0.026	n/a	GoodResponse	1	n/a	n/a	7	58	Cue	Win	True
550.977	4.05	Win2	0.6779999999999999	0.0	Yes	2.724	0.001	n/a	GoodResponse	1	n/a	n/a	7	58	Fixation	Win	True
555.022	0.21	Win2	0.6779999999999999	0.004	Yes	2.724	-0.004	4.0	GoodResponse	1	0.187	554.209	7	58	Target	Win	True
555.209	0.3	Win2	0.6779999999999999	0.004	Yes	2.724	-0.004	4.0	GoodResponse	1	0.187	n/a	7	58	ButtonPress	Win	True
555.24	0.49	Win2	0.6779999999999999	n/a	Yes	2.724	n/a	n/a	GoodResponse	1	n/a	n/a	7	58	Blank	Win	True
555.725	1.45	Win2	0.6779999999999999	n/a	Yes	2.724	n/a	5.0	GoodResponse	1	0.046	554.771	7	58	Feedback	Win	True
557.179	2.724	Win2	0.6779999999999999	n/a	Yes	2.724	n/a	n/a	GoodResponse	1	0.0	n/a	7	58	ISIslide	Win	True
559.92	0.25	Lose2	0.6667000000000001	0.001	No	2.68	0.02	n/a	NoResponse	-1	n/a	n/a	6	59	Cue	Loss	True
560.171	4.0	Lose2	0.6667000000000001	0.0	No	2.68	0.001	n/a	NoResponse	-1	n/a	n/a	6	59	Fixation	Loss	True
564.166	0.2	Lose2	0.6667000000000001	0.004	No	2.68	-0.004	4.0	NoResponse	-1	0.215	563.381	6	59	Target	Loss	True
564.367	0.5	Lose2	0.6667000000000001	n/a	No	2.68	n/a	n/a	NoResponse	-1	n/a	n/a	6	59	Blank	Loss	True
564.381	0.3	Lose2	0.6667000000000001	0.004	No	2.68	-0.004	4.0	NoResponse	-1	0.215	n/a	6	59	ButtonPress	Loss	True
564.869	1.45	Lose2	0.6667000000000001	n/a	No	2.68	n/a	5.0	NoResponse	-1	0.024	563.893	6	59	Feedback	Loss	True
566.323	2.68	Lose2	0.6667000000000001	n/a	No	2.68	n/a	n/a	NoResponse	-1	0.0	n/a	6	59	ISIslide	Loss	True
569.014	0.25	Control	0.6557	0.0	No	2.686	0.014	n/a	NoResponse	0	n/a	n/a	6	60	Cue	Neutral	False
569.265	4.0	Control	0.6557	0.0	No	2.686	0.001	n/a	NoResponse	0	n/a	n/a	6	60	Fixation	Neutral	False
573.26	0.19	Control	0.6557	0.004	No	2.686	-0.004	n/a	NoResponse	0	n/a	n/a	6	60	Target	Neutral	False
573.461	0.51	Control	0.6557	n/a	No	2.686	n/a	n/a	NoResponse	0	n/a	n/a	6	60	Blank	Neutral	False
573.962	1.45	Control	0.6557	n/a	No	2.686	n/a	5.0	NoResponse	0	0.007	572.969	6	60	Feedback	Neutral	False
575.417	2.686	Control	0.6557	n/a	No	2.686	n/a	n/a	NoResponse	0	0.0	n/a	6	60	ISIslide	Neutral	False
578.125	0.25	Lose2	0.6613	0.0	Yes	2.975	0.025	n/a	GoodResponse	0	n/a	n/a	6	61	Cue	AvoidedLoss	True
578.376	4.0	Lose2	0.6613	0.0	Yes	2.975	0.001	n/a	GoodResponse	0	n/a	n/a	6	61	Fixation	AvoidedLoss	True
582.371	0.19	Lose2	0.6613	0.004	Yes	2.975	-0.004	4.0	GoodResponse	0	0.172	581.543	6	61	Target	AvoidedLoss	True
582.543	0.3	Lose2	0.6613	0.004	Yes	2.975	-0.004	4.0	GoodResponse	0	0.172	n/a	6	61	ButtonPress	AvoidedLoss	True
582.571	0.51	Lose2	0.6613	n/a	Yes	2.975	n/a	n/a	GoodResponse	0	n/a	n/a	6	61	Blank	AvoidedLoss	True
583.073	1.45	Lose2	0.6613	n/a	Yes	2.975	n/a	5.0	GoodResponse	0	0.016	582.089	6	61	Feedback	AvoidedLoss	True
584.527	2.975	Lose2	0.6613	n/a	Yes	2.975	n/a	n/a	GoodResponse	0	0.0	n/a	6	61	ISIslide	AvoidedLoss	True
587.52	0.25	Lose2	0.6507999999999999	0.0	No	2.88	0.02	n/a	NoResponse	-1	n/a	n/a	5	62	Cue	Loss	True
587.77	3.9	Lose2	0.6507999999999999	0.0	No	2.88	0.0	n/a	NoResponse	-1	n/a	n/a	5	62	Fixation	Loss	True
591.682	0.19	Lose2	0.6507999999999999	0.0	No	2.88	0.012	4.0	NoResponse	-1	0.195	590.877	5	62	Target	Loss	True
591.866	0.51	Lose2	0.6507999999999999	n/a	No	2.88	n/a	n/a	NoResponse	-1	n/a	n/a	5	62	Blank	Loss	True
591.877	0.3	Lose2	0.6507999999999999	0.0	No	2.88	0.012	4.0	NoResponse	-1	0.195	n/a	5	62	ButtonPress	Loss	True
592.367	1.45	Lose2	0.6507999999999999	n/a	No	2.88	n/a	5.0	NoResponse	-1	0.039	591.406	5	62	Feedback	Loss	True
593.822	2.88	Lose2	0.6507999999999999	n/a	No	2.88	n/a	n/a	NoResponse	-1	0.0	n/a	5	62	ISIslide	Loss	True
596.73	0.25	Lose2	0.6562	0.0	Yes	2.62	0.03	n/a	GoodResponse	0	n/a	n/a	5	63	Cue	AvoidedLoss	True
596.981	4.05	Lose2	0.6562	0.0	Yes	2.62	0.001	n/a	GoodResponse	0	n/a	n/a	5	63	Fixation	AvoidedLoss	True
601.027	0.2	Lose2	0.6562	0.003	Yes	2.62	-0.003	4.0	GoodResponse	0	0.174	600.201	5	63	Target	AvoidedLoss	True
601.201	0.3	Lose2	0.6562	0.003	Yes	2.62	-0.003	4.0	GoodResponse	0	0.174	n/a	5	63	ButtonPress	AvoidedLoss	True
601.227	0.5	Lose2	0.6562	n/a	Yes	2.62	n/a	n/a	GoodResponse	0	n/a	n/a	5	63	Blank	AvoidedLoss	True
601.729	1.45	Lose2	0.6562	n/a	Yes	2.62	n/a	5.0	GoodResponse	0	0.042	600.771	5	63	Feedback	AvoidedLoss	True
603.183	2.62	Lose2	0.6562	n/a	Yes	2.62	n/a	n/a	GoodResponse	0	0.0	n/a	5	63	ISIslide	AvoidedLoss	True
605.824	0.25	Win2	0.6615000000000001	0.0	Yes	3.126	0.024	n/a	GoodResponse	1	n/a	n/a	6	64	Cue	Win	True
606.075	4.15	Win2	0.6615000000000001	0.0	Yes	3.126	0.001	n/a	GoodResponse	1	n/a	n/a	6	64	Fixation	Win	True
610.221	0.2	Win2	0.6615000000000001	0.003	Yes	3.126	-0.003	4.0	GoodResponse	1	0.178	609.399	6	64	Target	Win	True
610.399	0.3	Win2	0.6615000000000001	0.003	Yes	3.126	-0.003	4.0	GoodResponse	1	0.178	n/a	6	64	ButtonPress	Win	True
610.421	0.5	Win2	0.6615000000000001	n/a	Yes	3.126	n/a	n/a	GoodResponse	1	n/a	n/a	6	64	Blank	Win	True
610.923	1.45	Win2	0.6615000000000001	n/a	Yes	3.126	n/a	5.0	GoodResponse	1	0.019	609.942	6	64	Feedback	Win	True
612.377	3.126	Win2	0.6615000000000001	n/a	Yes	3.126	n/a	n/a	GoodResponse	1	0.0	n/a	6	64	ISIslide	Win	True
615.52	0.25	Control	0.6515000000000001	0.0	No	2.78	0.02	n/a	NoResponse	0	n/a	n/a	6	65	Cue	Neutral	True
615.771	4.0	Control	0.6515000000000001	0.0	No	2.78	0.001	n/a	NoResponse	0	n/a	n/a	6	65	Fixation	Neutral	True
619.766	0.2	Control	0.6515000000000001	0.004	No	2.78	-0.004	4.0	NoResponse	0	0.233	618.999	6	65	Target	Neutral	True
619.966	0.5	Control	0.6515000000000001	n/a	No	2.78	n/a	n/a	NoResponse	0	n/a	n/a	6	65	Blank	Neutral	True
619.999	0.3	Control	0.6515000000000001	0.004	No	2.78	-0.004	4.0	NoResponse	0	0.233	n/a	6	65	ButtonPress	Neutral	True
620.468	1.45	Control	0.6515000000000001	n/a	No	2.78	n/a	5.0	NoResponse	0	0.035	619.503	6	65	Feedback	Neutral	True
621.922	2.78	Control	0.6515000000000001	n/a	No	2.78	n/a	n/a	NoResponse	0	0.0	n/a	6	65	ISIslide	Neutral	True
624.731	0.25	Win2	0.6567000000000001	0.0	Yes	2.769	0.031	n/a	GoodResponse	1	n/a	n/a	7	66	Cue	Win	True
624.981	3.9	Win2	0.6567000000000001	0.0	Yes	2.769	0.0	n/a	GoodResponse	1	n/a	n/a	7	66	Fixation	Win	True
628.893	0.21	Win2	0.6567000000000001	0.0	Yes	2.769	0.012	4.0	GoodResponse	1	0.177	628.07	7	66	Target	Win	True
629.07	0.3	Win2	0.6567000000000001	0.0	Yes	2.769	0.012	4.0	GoodResponse	1	0.177	n/a	7	66	ButtonPress	Win	True
629.094	0.49	Win2	0.6567000000000001	n/a	Yes	2.769	n/a	n/a	GoodResponse	1	n/a	n/a	7	66	Blank	Win	True
629.578	1.45	Win2	0.6567000000000001	n/a	Yes	2.769	n/a	5.0	GoodResponse	1	0.047	628.625	7	66	Feedback	Win	True
631.033	2.769	Win2	0.6567000000000001	n/a	Yes	2.769	n/a	n/a	GoodResponse	1	0.0	n/a	7	66	ISIslide	Win	True
633.824	0.25	Control	0.6618	0.001	Yes	2.726	0.024	n/a	GoodResponse	0	n/a	n/a	7	67	Cue	Neutral	False
634.075	3.95	Control	0.6618	0.0	Yes	2.726	0.001	4.0	GoodResponse	0	3.741	636.816	7	67	Fixation	Neutral	False
637.816	0.3	Control	0.6618	0.0	Yes	2.726	0.001	4.0	GoodResponse	0	3.741	n/a	7	67	ButtonPress	Neutral	False
638.02	0.21	Control	0.6618	0.004	Yes	2.726	-0.004	4.0	GoodResponse	0	0.205	637.225	7	67	Target	Neutral	False
638.225	0.3	Control	0.6618	0.004	Yes	2.726	-0.004	4.0	GoodResponse	0	0.205	n/a	7	67	ButtonPress	Neutral	False
638.238	0.49	Control	0.6618	n/a	Yes	2.726	n/a	n/a	GoodResponse	0	n/a	n/a	7	67	Blank	Neutral	False
638.722	1.45	Control	0.6618	n/a	Yes	2.726	n/a	5.0	GoodResponse	0	0.024	637.746	7	67	Feedback	Neutral	False
640.177	2.726	Control	0.6618	n/a	Yes	2.726	n/a	n/a	GoodResponse	0	0.0	n/a	7	67	ISIslide	Neutral	False
642.918	0.25	Win2	0.6522	0.0	No	3.082	0.018	n/a	NoResponse	0	n/a	n/a	7	68	Cue	MissedWin	False
643.169	4.0	Win2	0.6522	0.0	No	3.082	0.001	n/a	NoResponse	0	n/a	n/a	7	68	Fixation	MissedWin	False
647.164	0.21	Win2	0.6522	0.004	No	3.082	-0.004	n/a	NoResponse	0	n/a	n/a	7	68	Target	MissedWin	False
647.382	0.49	Win2	0.6522	n/a	No	3.082	n/a	n/a	NoResponse	0	n/a	n/a	7	68	Blank	MissedWin	False
647.866	1.45	Win2	0.6522	n/a	No	3.082	n/a	5.0	NoResponse	0	0.002	646.868	7	68	Feedback	MissedWin	False
649.321	3.082	Win2	0.6522	n/a	No	3.082	n/a	n/a	NoResponse	0	0.0	n/a	7	68	ISIslide	MissedWin	False
652.43	0.25	Win2	0.6570999999999999	0.0	Yes	3.22	0.03	n/a	GoodResponse	1	n/a	n/a	8	69	Cue	Win	True
652.681	3.95	Win2	0.6570999999999999	0.0	Yes	3.22	0.001	n/a	GoodResponse	1	n/a	n/a	8	69	Fixation	Win	True
656.626	0.22	Win2	0.6570999999999999	0.004	Yes	3.22	-0.004	4.0	GoodResponse	1	0.194	655.82	8	69	Target	Win	True
656.82	0.3	Win2	0.6570999999999999	0.004	Yes	3.22	-0.004	4.0	GoodResponse	1	0.194	n/a	8	69	ButtonPress	Win	True
656.86	0.48	Win2	0.6570999999999999	n/a	Yes	3.22	n/a	n/a	GoodResponse	1	n/a	n/a	8	69	Blank	Win	True
657.328	1.45	Win2	0.6570999999999999	n/a	Yes	3.22	n/a	5.0	GoodResponse	1	0.008	656.336	8	69	Feedback	Win	True
658.782	3.22	Win2	0.6570999999999999	n/a	Yes	3.22	n/a	n/a	GoodResponse	1	0.0	n/a	8	69	ISIslide	Win	True
662.025	0.25	Lose2	0.662	0.0	Yes	3.025	0.025	n/a	GoodResponse	0	n/a	n/a	8	70	Cue	AvoidedLoss	True
662.276	4.05	Lose2	0.662	0.0	Yes	3.025	0.001	n/a	GoodResponse	0	n/a	n/a	8	70	Fixation	AvoidedLoss	True
666.322	0.22	Lose2	0.662	0.003	Yes	3.025	-0.003	4.0	GoodResponse	0	0.194	665.516	8	70	Target	AvoidedLoss	True
666.516	0.3	Lose2	0.662	0.003	Yes	3.025	-0.003	4.0	GoodResponse	0	0.194	n/a	8	70	ButtonPress	AvoidedLoss	True
666.556	0.48	Lose2	0.662	n/a	Yes	3.025	n/a	n/a	GoodResponse	0	n/a	n/a	8	70	Blank	AvoidedLoss	True
667.024	1.45	Lose2	0.662	n/a	Yes	3.025	n/a	5.0	GoodResponse	0	0.015	666.039	8	70	Feedback	AvoidedLoss	True
668.478	3.025	Lose2	0.662	n/a	Yes	3.025	n/a	n/a	GoodResponse	0	0.0	n/a	8	70	ISIslide	AvoidedLoss	True
671.52	0.25	Win2	0.6667000000000001	0.0	Yes	2.73	0.02	n/a	GoodResponse	1	n/a	n/a	9	71	Cue	Win	True
671.771	4.05	Win2	0.6667000000000001	0.0	Yes	2.73	0.001	n/a	GoodResponse	1	n/a	n/a	9	71	Fixation	Win	True
675.817	0.22	Win2	0.6667000000000001	0.003	Yes	2.73	-0.003	4.0	GoodResponse	1	0.218	675.035	9	71	Target	Win	True
676.035	0.3	Win2	0.6667000000000001	0.003	Yes	2.73	-0.003	4.0	GoodResponse	1	0.218	n/a	9	71	ButtonPress	Win	True
676.051	0.48	Win2	0.6667000000000001	n/a	Yes	2.73	n/a	n/a	GoodResponse	1	n/a	n/a	9	71	Blank	Win	True
676.519	1.45	Win2	0.6667000000000001	n/a	Yes	2.73	n/a	5.0	GoodResponse	1	0.031	675.55	9	71	Feedback	Win	True
677.973	2.73	Win2	0.6667000000000001	n/a	Yes	2.73	n/a	n/a	GoodResponse	1	0.0	n/a	9	71	ISIslide	Win	True
680.731	0.25	Win2	0.6712	0.0	Yes	2.769	0.031	n/a	GoodResponse	1	n/a	n/a	10	72	Cue	Win	True
680.982	4.1	Win2	0.6712	0.0	Yes	2.769	0.001	n/a	GoodResponse	1	n/a	n/a	10	72	Fixation	Win	True
685.078	0.21	Win2	0.6712	0.003	Yes	2.769	-0.003	4.0	GoodResponse	1	0.2	684.278	10	72	Target	Win	True
685.278	0.3	Win2	0.6712	0.003	Yes	2.769	-0.003	4.0	GoodResponse	1	0.2	n/a	10	72	ButtonPress	Win	True
685.295	0.49	Win2	0.6712	n/a	Yes	2.769	n/a	n/a	GoodResponse	1	n/a	n/a	10	72	Blank	Win	True
685.78	1.45	Win2	0.6712	n/a	Yes	2.769	n/a	5.0	GoodResponse	1	0.038	684.818	10	72	Feedback	Win	True
687.234	2.769	Win2	0.6712	n/a	Yes	2.769	n/a	n/a	GoodResponse	1	0.0	n/a	10	72	ISIslide	Win	True
690.026	0.25	Win2	0.6622	0.0	No	2.674	0.026	n/a	NoResponse	0	n/a	n/a	10	73	Cue	MissedWin	True
690.276	4.0	Win2	0.6622	0.0	No	2.674	0.0	n/a	NoResponse	0	n/a	n/a	10	73	Fixation	MissedWin	True
694.272	0.2	Win2	0.6622	0.004	No	2.674	-0.004	4.0	NoResponse	0	0.218	693.49	10	73	Target	MissedWin	True
694.472	0.5	Win2	0.6622	n/a	No	2.674	n/a	n/a	NoResponse	0	n/a	n/a	10	73	Blank	MissedWin	True
694.49	0.3	Win2	0.6622	0.004	No	2.674	-0.004	4.0	NoResponse	0	0.218	n/a	10	73	ButtonPress	MissedWin	True
694.974	1.45	Win2	0.6622	n/a	No	2.674	n/a	5.0	NoResponse	0	0.015	693.989	10	73	Feedback	MissedWin	True
696.428	2.674	Win2	0.6622	n/a	No	2.674	n/a	n/a	NoResponse	0	0.0	n/a	10	73	ISIslide	MissedWin	True
699.119	0.25	Lose2	0.6667000000000001	0.001	Yes	2.631	0.019	n/a	GoodResponse	0	n/a	n/a	10	74	Cue	AvoidedLoss	True
699.37	4.05	Lose2	0.6667000000000001	0.0	Yes	2.631	0.001	n/a	GoodResponse	0	n/a	n/a	10	74	Fixation	AvoidedLoss	True
703.416	0.2	Lose2	0.6667000000000001	0.003	Yes	2.631	-0.003	4.0	GoodResponse	0	0.173	702.589	10	74	Target	AvoidedLoss	True
703.589	0.3	Lose2	0.6667000000000001	0.003	Yes	2.631	-0.003	4.0	GoodResponse	0	0.173	n/a	10	74	ButtonPress	AvoidedLoss	True
703.616	0.5	Lose2	0.6667000000000001	n/a	Yes	2.631	n/a	n/a	GoodResponse	0	n/a	n/a	10	74	Blank	AvoidedLoss	True
704.118	1.45	Lose2	0.6667000000000001	n/a	Yes	2.631	n/a	5.0	GoodResponse	0	0.042	703.16	10	74	Feedback	AvoidedLoss	True
705.572	2.631	Lose2	0.6667000000000001	n/a	Yes	2.631	n/a	n/a	GoodResponse	0	0.0	n/a	10	74	ISIslide	AvoidedLoss	True
708.23	0.25	Lose2	0.6579	0.0	No	2.92	0.03	n/a	NoResponse	-1	n/a	n/a	9	75	Cue	Loss	False
708.481	3.95	Lose2	0.6579	0.0	No	2.92	0.001	n/a	NoResponse	-1	n/a	n/a	9	75	Fixation	Loss	False
712.426	0.19	Lose2	0.6579	0.004	No	2.92	-0.004	n/a	NoResponse	-1	n/a	n/a	9	75	Target	Loss	False
712.626	0.51	Lose2	0.6579	n/a	No	2.92	n/a	n/a	NoResponse	-1	n/a	n/a	9	75	Blank	Loss	False
713.128	1.45	Lose2	0.6579	n/a	No	2.92	n/a	5.0	NoResponse	-1	0.008	712.136	9	75	Feedback	Loss	False
714.582	2.92	Lose2	0.6579	n/a	No	2.92	n/a	n/a	NoResponse	-1	0.0	n/a	9	75	ISIslide	Loss	False
717.524	0.25	Control	0.6494	0.001	No	3.226	0.024	n/a	NoResponse	0	n/a	n/a	9	76	Cue	Neutral	True
717.775	4.05	Control	0.6494	0.0	No	3.226	0.001	n/a	NoResponse	0	n/a	n/a	9	76	Fixation	Neutral	True
721.821	0.19	Control	0.6494	0.003	No	3.226	-0.003	4.0	NoResponse	0	0.209	721.03	9	76	Target	Neutral	True
722.021	0.51	Control	0.6494	n/a	No	3.226	n/a	n/a	NoResponse	0	n/a	n/a	9	76	Blank	Neutral	True
722.03	0.3	Control	0.6494	0.003	No	3.226	-0.003	4.0	NoResponse	0	0.209	n/a	9	76	ButtonPress	Neutral	True
722.523	1.45	Control	0.6494	n/a	No	3.226	n/a	5.0	NoResponse	0	0.027	721.55	9	76	Feedback	Neutral	True
723.977	3.226	Control	0.6494	n/a	No	3.226	n/a	n/a	NoResponse	0	0.0	n/a	9	76	ISIslide	Neutral	True
727.22	0.25	Lose2	0.6409999999999999	0.0	No	2.58	0.02	n/a	NoResponse	-1	n/a	n/a	8	77	Cue	Loss	True
727.471	3.95	Lose2	0.6409999999999999	0.0	No	2.58	0.001	n/a	NoResponse	-1	n/a	n/a	8	77	Fixation	Loss	True
731.416	0.2	Lose2	0.6409999999999999	0.004	No	2.58	-0.004	4.0	NoResponse	-1	0.243	730.659	8	77	Target	Loss	True
731.617	0.5	Lose2	0.6409999999999999	n/a	No	2.58	n/a	n/a	NoResponse	-1	n/a	n/a	8	77	Blank	Loss	True
731.659	0.3	Lose2	0.6409999999999999	0.004	No	2.58	-0.004	4.0	NoResponse	-1	0.243	n/a	8	77	ButtonPress	Loss	True
732.118	1.45	Lose2	0.6409999999999999	n/a	No	2.58	n/a	5.0	NoResponse	-1	0.041	731.159	8	77	Feedback	Loss	True
733.572	2.58	Lose2	0.6409999999999999	n/a	No	2.58	n/a	n/a	NoResponse	-1	0.0	n/a	8	77	ISIslide	Loss	True
