onset	duration	cue_type	current_mean_accuracy	duration_error	is_hit	isi_adjusted	onset_delay	response	response_type	reward	rt	rt_time	total_reward	trial_number	trial_phase	trial_type	one_press
11.103	0.25	Control	1.0	0.0	Yes	2.947	0.003	n/a	GoodResponse	0	n/a	n/a	0	0	Cue	Neutral	True
11.353	3.85	Control	1.0	0.001	Yes	2.947	0.0	n/a	GoodResponse	0	n/a	n/a	0	0	Fixation	Neutral	True
15.215	0.4	Control	1.0	0.0	Yes	2.947	0.012	4.0	GoodResponse	0	0.268	14.483	0	0	Target	Neutral	True
15.483	0.3	Control	1.0	0.0	Yes	2.947	0.012	4.0	GoodResponse	0	0.268	n/a	0	0	ButtonPress	Neutral	True
15.599	0.3	Control	1.0	n/a	Yes	2.947	n/a	n/a	GoodResponse	0	n/a	n/a	0	0	Blank	Neutral	True
15.9	1.45	Control	1.0	n/a	Yes	2.947	n/a	5.0	GoodResponse	0	0.03	14.93	0	0	Feedback	Neutral	True
17.355	2.947	Control	1.0	n/a	Yes	2.947	n/a	n/a	GoodResponse	0	0.0	n/a	0	0	ISIslide	Neutral	True
20.33	0.25	Lose2	1.0	0.0	Yes	2.77	0.03	n/a	GoodResponse	0	n/a	n/a	0	1	Cue	AvoidedLoss	True
20.581	4.0	Lose2	1.0	0.0	Yes	2.77	0.001	n/a	GoodResponse	0	n/a	n/a	0	1	Fixation	AvoidedLoss	True
24.576	0.39	Lose2	1.0	0.004	Yes	2.77	-0.004	4.0	GoodResponse	0	0.28	23.856	0	1	Target	AvoidedLoss	True
24.856	0.3	Lose2	1.0	0.004	Yes	2.77	-0.004	4.0	GoodResponse	0	0.28	n/a	0	1	ButtonPress	AvoidedLoss	True
24.978	0.31	Lose2	1.0	n/a	Yes	2.77	n/a	n/a	GoodResponse	0	n/a	n/a	0	1	Blank	AvoidedLoss	True
25.278	1.45	Lose2	1.0	n/a	Yes	2.77	n/a	5.0	GoodResponse	0	0.018	24.296	0	1	Feedback	AvoidedLoss	True
26.733	2.77	Lose2	1.0	n/a	Yes	2.77	n/a	n/a	GoodResponse	0	0.0	n/a	0	1	ISIslide	AvoidedLoss	True
29.525	0.25	Control	1.0	0.0	Yes	2.575	0.025	n/a	GoodResponse	0	n/a	n/a	0	2	Cue	Neutral	True
29.775	4.1	Control	1.0	0.0	Yes	2.575	0.0	n/a	GoodResponse	0	n/a	n/a	0	2	Fixation	Neutral	True
33.871	0.38	Control	1.0	0.004	Yes	2.575	-0.004	4.0	GoodResponse	0	0.234	33.105	0	2	Target	Neutral	True
34.105	0.3	Control	1.0	0.004	Yes	2.575	-0.004	4.0	GoodResponse	0	0.234	n/a	0	2	ButtonPress	Neutral	True
34.255	0.32	Control	1.0	n/a	Yes	2.575	n/a	n/a	GoodResponse	0	n/a	n/a	0	2	Blank	Neutral	True
34.573	1.45	Control	1.0	n/a	Yes	2.575	n/a	5.0	GoodResponse	0	0.04	33.613	0	2	Feedback	Neutral	True
36.027	2.575	Control	1.0	n/a	Yes	2.575	n/a	n/a	GoodResponse	0	0.0	n/a	0	2	ISIslide	Neutral	True
38.618	0.25	Win2	1.0	0.001	Yes	2.832	0.018	n/a	GoodResponse	1	n/a	n/a	1	3	Cue	Win	True
38.869	3.95	Win2	1.0	0.0	Yes	2.832	0.001	n/a	GoodResponse	1	n/a	n/a	1	3	Fixation	Win	True
42.814	0.37	Win2	1.0	0.004	Yes	2.832	-0.004	4.0	GoodResponse	1	0.255	42.069	1	3	Target	Win	True
43.069	0.3	Win2	1.0	0.004	Yes	2.832	-0.004	4.0	GoodResponse	1	0.255	n/a	1	3	ButtonPress	Win	True
43.199	0.33	Win2	1.0	n/a	Yes	2.832	n/a	n/a	GoodResponse	1	n/a	n/a	1	3	Blank	Win	True
43.516	1.45	Win2	1.0	n/a	Yes	2.832	n/a	5.0	GoodResponse	1	0.024	42.54	1	3	Feedback	Win	True
44.971	2.832	Win2	1.0	n/a	Yes	2.832	n/a	n/a	GoodResponse	1	0.0	n/a	1	3	ISIslide	Win	True
47.829	0.25	Win2	1.0	0.0	Yes	3.271	0.029	n/a	GoodResponse	1	n/a	n/a	2	4	Cue	Win	True
48.08	4.0	Win2	1.0	0.0	Yes	3.271	0.001	n/a	GoodResponse	1	n/a	n/a	2	4	Fixation	Win	True
52.075	0.36	Win2	1.0	0.004	Yes	3.271	-0.004	4.0	GoodResponse	1	0.26	51.335	2	4	Target	Win	True
52.335	0.3	Win2	1.0	0.004	Yes	3.271	-0.004	4.0	GoodResponse	1	0.26	n/a	2	4	ButtonPress	Win	True
52.443	0.34	Win2	1.0	n/a	Yes	3.271	n/a	n/a	GoodResponse	1	n/a	n/a	2	4	Blank	Win	True
52.777	1.45	Win2	1.0	n/a	Yes	3.271	n/a	5.0	GoodResponse	1	0.03	51.807	2	4	Feedback	Win	True
54.232	3.271	Win2	1.0	n/a	Yes	3.271	n/a	n/a	GoodResponse	1	0.0	n/a	2	4	ISIslide	Win	True
57.525	0.25	Win2	1.0	0.0	Yes	2.775	0.025	n/a	GoodResponse	1	n/a	n/a	3	5	Cue	Win	True
57.776	4.0	Win2	1.0	0.0	Yes	2.775	0.001	n/a	GoodResponse	1	n/a	n/a	3	5	Fixation	Win	True
61.771	0.35	Win2	1.0	0.004	Yes	2.775	-0.004	4.0	GoodResponse	1	0.257	61.028	3	5	Target	Win	True
62.028	0.3	Win2	1.0	0.004	Yes	2.775	-0.004	4.0	GoodResponse	1	0.257	n/a	3	5	ButtonPress	Win	True
62.122	0.35	Win2	1.0	n/a	Yes	2.775	n/a	n/a	GoodResponse	1	n/a	n/a	3	5	Blank	Win	True
62.473	1.45	Win2	1.0	n/a	Yes	2.775	n/a	5.0	GoodResponse	1	0.042	61.515	3	5	Feedback	Win	True
63.927	2.775	Win2	1.0	n/a	Yes	2.775	n/a	n/a	GoodResponse	1	0.0	n/a	3	5	ISIslide	Win	True
66.719	0.25	Lose2	1.0	0.0	Yes	2.731	0.019	n/a	GoodResponse	0	n/a	n/a	3	6	Cue	AvoidedLoss	True
66.97	3.95	Lose2	1.0	0.0	Yes	2.731	0.001	n/a	GoodResponse	0	n/a	n/a	3	6	Fixation	AvoidedLoss	True
70.915	0.34	Lose2	1.0	0.004	Yes	2.731	-0.004	4.0	GoodResponse	0	0.241	70.156	3	6	Target	AvoidedLoss	True
71.156	0.3	Lose2	1.0	0.004	Yes	2.731	-0.004	4.0	GoodResponse	0	0.241	n/a	3	6	ButtonPress	AvoidedLoss	True
71.266	0.36	Lose2	1.0	n/a	Yes	2.731	n/a	n/a	GoodResponse	0	n/a	n/a	3	6	Blank	AvoidedLoss	True
71.617	1.45	Lose2	1.0	n/a	Yes	2.731	n/a	5.0	GoodResponse	0	0.02	70.637	3	6	Feedback	AvoidedLoss	True
73.072	2.731	Lose2	1.0	n/a	Yes	2.731	n/a	n/a	GoodResponse	0	0.0	n/a	3	6	ISIslide	AvoidedLoss	True
75.83	0.25	Lose2	1.0	0.0	Yes	4.02	0.03	n/a	GoodResponse	0	n/a	n/a	3	7	Cue	AvoidedLoss	True
76.081	4.05	Lose2	1.0	0.0	Yes	4.02	0.001	n/a	GoodResponse	0	n/a	n/a	3	7	Fixation	AvoidedLoss	True
80.126	0.33	Lose2	1.0	0.004	Yes	4.02	-0.004	4.0	GoodResponse	0	0.215	79.341	3	7	Target	AvoidedLoss	True
80.341	0.3	Lose2	1.0	0.004	Yes	4.02	-0.004	4.0	GoodResponse	0	0.215	n/a	3	7	ButtonPress	AvoidedLoss	True
80.46	0.37	Lose2	1.0	n/a	Yes	4.02	n/a	n/a	GoodResponse	0	n/a	n/a	3	7	Blank	AvoidedLoss	True
80.828	1.45	Lose2	1.0	n/a	Yes	4.02	n/a	5.0	GoodResponse	0	0.029	79.857	3	7	Feedback	AvoidedLoss	True
82.282	4.02	Lose2	1.0	n/a	Yes	4.02	n/a	n/a	GoodResponse	0	0.0	n/a	3	7	ISIslide	AvoidedLoss	True
86.328	0.25	Lose2	1.0	0.0	Yes	3.022	0.028	n/a	GoodResponse	0	n/a	n/a	3	8	Cue	AvoidedLoss	True
86.579	3.95	Lose2	1.0	0.0	Yes	3.022	0.001	n/a	GoodResponse	0	n/a	n/a	3	8	Fixation	AvoidedLoss	True
90.524	0.32	Lose2	1.0	0.004	Yes	3.022	-0.004	4.0	GoodResponse	0	0.286	89.81	3	8	Target	AvoidedLoss	True
90.81	0.3	Lose2	1.0	0.004	Yes	3.022	-0.004	4.0	GoodResponse	0	0.286	n/a	3	8	ButtonPress	AvoidedLoss	True
90.858	0.38	Lose2	1.0	n/a	Yes	3.022	n/a	n/a	GoodResponse	0	n/a	n/a	3	8	Blank	AvoidedLoss	True
91.226	1.45	Lose2	1.0	n/a	Yes	3.022	n/a	5.0	GoodResponse	0	0.021	90.247	3	8	Feedback	AvoidedLoss	True
92.68	3.022	Lose2	1.0	n/a	Yes	3.022	n/a	n/a	GoodResponse	0	0.0	n/a	3	8	ISIslide	AvoidedLoss	True
95.723	0.25	Lose2	1.0	0.0	Yes	3.127	0.023	n/a	GoodResponse	0	n/a	n/a	3	9	Cue	AvoidedLoss	True
95.973	3.95	Lose2	1.0	0.0	Yes	3.127	0.0	n/a	GoodResponse	0	n/a	n/a	3	9	Fixation	AvoidedLoss	True
99.919	0.31	Lose2	1.0	0.004	Yes	3.127	-0.004	4.0	GoodResponse	0	0.308	99.227	3	9	Target	AvoidedLoss	True
100.227	0.3	Lose2	1.0	0.004	Yes	3.127	-0.004	4.0	GoodResponse	0	0.308	n/a	3	9	ButtonPress	AvoidedLoss	True
100.236	0.39	Lose2	1.0	n/a	Yes	3.127	n/a	n/a	GoodResponse	0	n/a	n/a	3	9	Blank	AvoidedLoss	True
100.621	1.45	Lose2	1.0	n/a	Yes	3.127	n/a	5.0	GoodResponse	0	0.04	99.661	3	9	Feedback	AvoidedLoss	True
102.075	3.127	Lose2	1.0	n/a	Yes	3.127	n/a	n/a	GoodResponse	0	0.0	n/a	3	9	ISIslide	AvoidedLoss	True
105.218	0.25	Control	0.9091	0.0	No	3.282	0.018	n/a	NoResponse	0	n/a	n/a	3	10	Cue	Neutral	True
105.468	4.0	Control	0.9091	0.001	No	3.282	0.0	n/a	NoResponse	0	n/a	n/a	3	10	Fixation	Neutral	True
109.464	0.3	Control	0.9091	0.004	No	3.282	-0.004	4.0	NoResponse	0	0.304	108.768	3	10	Target	Neutral	True
109.765	0.4	Control	0.9091	n/a	No	3.282	n/a	n/a	NoResponse	0	n/a	n/a	3	10	Blank	Neutral	True
109.768	0.3	Control	0.9091	0.004	No	3.282	-0.004	4.0	NoResponse	0	0.304	n/a	3	10	ButtonPress	Neutral	True
110.166	1.45	Control	0.9091	n/a	No	3.282	n/a	5.0	NoResponse	0	0.007	109.173	3	10	Feedback	Neutral	True
111.62	3.282	Control	0.9091	n/a	No	3.282	n/a	n/a	NoResponse	0	0.0	n/a	3	10	ISIslide	Neutral	True
114.93	0.25	Lose2	0.9167000000000001	0.0	Yes	2.72	0.03	n/a	GoodResponse	0	n/a	n/a	3	11	Cue	AvoidedLoss	True
115.181	4.05	Lose2	0.9167000000000001	0.0	Yes	2.72	0.001	n/a	GoodResponse	0	n/a	n/a	3	11	Fixation	AvoidedLoss	True
119.226	0.29	Lose2	0.9167000000000001	0.004	Yes	2.72	-0.004	4.0	GoodResponse	0	0.227	118.453	3	11	Target	AvoidedLoss	True
119.453	0.3	Lose2	0.9167000000000001	0.004	Yes	2.72	-0.004	4.0	GoodResponse	0	0.227	n/a	3	11	ButtonPress	AvoidedLoss	True
119.527	0.41	Lose2	0.9167000000000001	n/a	Yes	2.72	n/a	n/a	GoodResponse	0	n/a	n/a	3	11	Blank	AvoidedLoss	True
119.928	1.45	Lose2	0.9167000000000001	n/a	Yes	2.72	n/a	5.0	GoodResponse	0	0.001	118.929	3	11	Feedback	AvoidedLoss	True
121.383	2.72	Lose2	0.9167000000000001	n/a	Yes	2.72	n/a	n/a	GoodResponse	0	0.0	n/a	3	11	ISIslide	AvoidedLoss	True
124.124	0.25	Control	0.9231	0.0	Yes	2.976	0.024	n/a	GoodResponse	0	n/a	n/a	3	12	Cue	Neutral	True
124.375	3.9	Control	0.9231	0.0	Yes	2.976	0.001	n/a	GoodResponse	0	n/a	n/a	3	12	Fixation	Neutral	True
128.27	0.28	Control	0.9231	0.004	Yes	2.976	-0.004	4.0	GoodResponse	0	0.278	127.548	3	12	Target	Neutral	True
128.548	0.3	Control	0.9231	0.004	Yes	2.976	-0.004	4.0	GoodResponse	0	0.278	n/a	3	12	ButtonPress	Neutral	True
128.554	0.42	Control	0.9231	n/a	Yes	2.976	n/a	n/a	GoodResponse	0	n/a	n/a	3	12	Blank	Neutral	True
128.972	1.45	Control	0.9231	n/a	Yes	2.976	n/a	5.0	GoodResponse	0	0.031	128.003	3	12	Feedback	Neutral	True
130.427	2.976	Control	0.9231	n/a	Yes	2.976	n/a	n/a	GoodResponse	0	0.0	n/a	3	12	ISIslide	Neutral	True
133.419	0.25	Control	0.9286	0.0	Yes	2.781	0.019	n/a	GoodResponse	0	n/a	n/a	3	13	Cue	Neutral	True
133.67	4.0	Control	0.9286	0.0	Yes	2.781	0.001	n/a	GoodResponse	0	n/a	n/a	3	13	Fixation	Neutral	True
137.665	0.27	Control	0.9286	0.004	Yes	2.781	-0.004	4.0	GoodResponse	0	0.225	136.89	3	13	Target	Neutral	True
137.89	0.3	Control	0.9286	0.004	Yes	2.781	-0.004	4.0	GoodResponse	0	0.225	n/a	3	13	ButtonPress	Neutral	True
137.949	0.43	Control	0.9286	n/a	Yes	2.781	n/a	n/a	GoodResponse	0	n/a	n/a	3	13	Blank	Neutral	True
138.367	1.45	Control	0.9286	n/a	Yes	2.781	n/a	5.0	GoodResponse	0	0.002	137.369	3	13	Feedback	Neutral	True
139.821	2.781	Control	0.9286	n/a	Yes	2.781	n/a	n/a	GoodResponse	0	0.0	n/a	3	13	ISIslide	Neutral	True
142.63	0.25	Win2	0.8667	0.0	No	2.67	0.03	n/a	LatePress	0	n/a	n/a	3	14	Cue	MissedWin	True
142.88	4.1	Win2	0.8667	0.001	No	2.67	0.0	n/a	LatePress	0	n/a	n/a	3	14	Fixation	MissedWin	True
146.976	0.26	Win2	0.8667	0.004	No	2.67	-0.004	4.0	LatePress	0	0.266	146.242	3	14	Target	MissedWin	True
147.242	0.3	Win2	0.8667	0.004	No	2.67	-0.004	4.0	LatePress	0	0.266	n/a	3	14	ButtonPress	MissedWin	True
147.244	0.44	Win2	0.8667	n/a	No	2.67	n/a	n/a	LatePress	0	n/a	n/a	3	14	Blank	MissedWin	True
147.678	1.45	Win2	0.8667	n/a	No	2.67	n/a	5.0	LatePress	0	0.008	146.686	3	14	Feedback	MissedWin	True
149.133	2.67	Win2	0.8667	n/a	No	2.67	n/a	n/a	LatePress	0	0.0	n/a	3	14	ISIslide	MissedWin	True
151.824	0.25	Control	0.875	0.0	Yes	2.976	0.024	n/a	GoodResponse	0	n/a	n/a	3	15	Cue	Neutral	True
152.075	4.0	Control	0.875	0.0	Yes	2.976	0.001	n/a	GoodResponse	0	n/a	n/a	3	15	Fixation	Neutral	True
156.07	0.25	Control	0.875	0.004	Yes	2.976	-0.004	4.0	GoodResponse	0	0.245	155.315	3	15	Target	Neutral	True
156.315	0.3	Control	0.875	0.004	Yes	2.976	-0.004	4.0	GoodResponse	0	0.245	n/a	3	15	ButtonPress	Neutral	True
156.321	0.45	Control	0.875	n/a	Yes	2.976	n/a	n/a	GoodResponse	0	n/a	n/a	3	15	Blank	Neutral	True
156.772	1.45	Control	0.875	n/a	Yes	2.976	n/a	5.0	GoodResponse	0	0.035	155.807	3	15	Feedback	Neutral	True
158.226	2.976	Control	0.875	n/a	Yes	2.976	n/a	n/a	GoodResponse	0	0.0	n/a	3	15	ISIslide	Neutral	True
161.219	0.25	Win2	0.8824	0.0	Yes	2.881	0.019	n/a	GoodResponse	1	n/a	n/a	4	16	Cue	Win	True
161.469	4.0	Win2	0.8824	0.001	Yes	2.881	0.0	n/a	GoodResponse	1	n/a	n/a	4	16	Fixation	Win	True
165.465	0.24	Win2	0.8824	0.004	Yes	2.881	-0.004	4.0	GoodResponse	1	0.226	164.691	4	16	Target	Win	True
165.691	0.3	Win2	0.8824	0.004	Yes	2.881	-0.004	4.0	GoodResponse	1	0.226	n/a	4	16	ButtonPress	Win	True
165.715	0.46	Win2	0.8824	n/a	Yes	2.881	n/a	n/a	GoodResponse	1	n/a	n/a	4	16	Blank	Win	True
166.167	1.45	Win2	0.8824	n/a	Yes	2.881	n/a	5.0	GoodResponse	1	0.006	165.173	4	16	Feedback	Win	True
167.621	2.881	Win2	0.8824	n/a	Yes	2.881	n/a	n/a	GoodResponse	1	0.0	n/a	4	16	ISIslide	Win	True
170.53	0.25	Lose2	0.8332999999999999	0.0	No	2.72	0.03	n/a	NoResponse	-1	n/a	n/a	3	17	Cue	Loss	True
170.781	3.95	Lose2	0.8332999999999999	0.0	No	2.72	0.001	n/a	NoResponse	-1	n/a	n/a	3	17	Fixation	Loss	True
174.726	0.23	Lose2	0.8332999999999999	0.006	No	2.72	-0.004	4.0	NoResponse	-1	0.253	173.979	3	17	Target	Loss	True
174.96	0.47	Lose2	0.8332999999999999	n/a	No	2.72	n/a	n/a	NoResponse	-1	n/a	n/a	3	17	Blank	Loss	True
174.979	0.3	Lose2	0.8332999999999999	0.006	No	2.72	-0.004	4.0	NoResponse	-1	0.253	n/a	3	17	ButtonPress	Loss	True
175.428	1.45	Lose2	0.8332999999999999	n/a	No	2.72	n/a	5.0	NoResponse	-1	0.013	174.441	3	17	Feedback	Loss	True
176.882	2.72	Lose2	0.8332999999999999	n/a	No	2.72	n/a	n/a	NoResponse	-1	0.0	n/a	3	17	ISIslide	Loss	True
179.624	0.25	Lose2	0.7895	0.0	No	2.726	0.024	n/a	NoResponse	-1	n/a	n/a	2	18	Cue	Loss	False
179.875	4.05	Lose2	0.7895	0.0	No	2.726	0.001	n/a	NoResponse	-1	n/a	n/a	2	18	Fixation	Loss	False
183.92	0.22	Lose2	0.7895	0.004	No	2.726	-0.004	n/a	NoResponse	-1	n/a	n/a	2	18	Target	Loss	False
184.154	0.48	Lose2	0.7895	n/a	No	2.726	n/a	n/a	NoResponse	-1	n/a	n/a	2	18	Blank	Loss	False
184.622	1.45	Lose2	0.7895	n/a	No	2.726	n/a	5.0	NoResponse	-1	0.039	183.661	2	18	Feedback	Loss	False
186.076	2.726	Lose2	0.7895	n/a	No	2.726	n/a	n/a	NoResponse	-1	0.0	n/a	2	18	ISIslide	Loss	False
188.818	0.25	Control	0.8	0.0	Yes	2.932	0.018	n/a	GoodResponse	0	n/a	n/a	2	19	Cue	Neutral	True
189.069	3.95	Control	0.8	0.0	Yes	2.932	0.001	n/a	GoodResponse	0	n/a	n/a	2	19	Fixation	Neutral	True
193.014	0.21	Control	0.8	0.004	Yes	2.932	-0.004	4.0	GoodResponse	0	0.185	192.199	2	19	Target	Neutral	True
193.199	0.3	Control	0.8	0.004	Yes	2.932	-0.004	4.0	GoodResponse	0	0.185	n/a	2	19	ButtonPress	Neutral	True
193.231	0.49	Control	0.8	n/a	Yes	2.932	n/a	n/a	GoodResponse	0	n/a	n/a	2	19	Blank	Neutral	True
193.716	1.45	Control	0.8	n/a	Yes	2.932	n/a	5.0	GoodResponse	0	0.018	192.734	2	19	Feedback	Neutral	True
195.17	2.932	Control	0.8	n/a	Yes	2.932	n/a	n/a	GoodResponse	0	0.0	n/a	2	19	ISIslide	Neutral	True
198.129	0.25	Control	0.7619	0.0	No	2.621	0.029	n/a	NoResponse	0	n/a	n/a	2	20	Cue	Neutral	False
198.38	4.05	Control	0.7619	0.0	No	2.621	0.001	n/a	NoResponse	0	n/a	n/a	2	20	Fixation	Neutral	False
202.425	0.2	Control	0.7619	0.004	No	2.621	-0.004	n/a	NoResponse	0	n/a	n/a	2	20	Target	Neutral	False
202.626	0.5	Control	0.7619	n/a	No	2.621	n/a	n/a	NoResponse	0	n/a	n/a	2	20	Blank	Neutral	False
203.127	1.45	Control	0.7619	n/a	No	2.621	n/a	5.0	NoResponse	0	0.021	202.148	2	20	Feedback	Neutral	False
204.582	2.621	Control	0.7619	n/a	No	2.621	n/a	n/a	NoResponse	0	0.0	n/a	2	20	ISIslide	Neutral	False
207.223	0.25	Control	0.7273000000000001	0.0	No	2.777	0.023	n/a	NoResponse	0	n/a	n/a	2	21	Cue	Neutral	True
207.474	4.1	Control	0.7273000000000001	0.0	No	2.777	0.001	n/a	NoResponse	0	n/a	n/a	2	21	Fixation	Neutral	True
211.569	0.19	Control	0.7273000000000001	0.004	No	2.777	-0.004	4.0	NoResponse	0	0.234	210.803	2	21	Target	Neutral	True
211.77	0.51	Control	0.7273000000000001	n/a	No	2.777	n/a	n/a	NoResponse	0	n/a	n/a	2	21	Blank	Neutral	True
211.803	0.3	Control	0.7273000000000001	0.004	No	2.777	-0.004	4.0	NoResponse	0	0.234	n/a	2	21	ButtonPress	Neutral	True
212.272	1.45	Control	0.7273000000000001	n/a	No	2.777	n/a	5.0	NoResponse	0	0.047	211.319	2	21	Feedback	Neutral	True
213.726	2.777	Control	0.7273000000000001	n/a	No	2.777	n/a	n/a	NoResponse	0	0.0	n/a	2	21	ISIslide	Neutral	True
216.518	0.25	Control	0.6957	0.0	No	2.782	0.018	n/a	NoResponse	0	n/a	n/a	2	22	Cue	Neutral	True
216.768	4.0	Control	0.6957	0.0	No	2.782	0.0	4.0	NoResponse	0	3.965	219.733	2	22	Fixation	Neutral	True
220.733	0.3	Control	0.6957	0.0	No	2.782	0.0	4.0	NoResponse	0	3.965	n/a	2	22	ButtonPress	Neutral	True
220.764	0.18	Control	0.6957	0.004	No	2.782	-0.004	n/a	NoResponse	0	n/a	n/a	2	22	Target	Neutral	True
220.947	0.52	Control	0.6957	n/a	No	2.782	n/a	n/a	NoResponse	0	n/a	n/a	2	22	Blank	Neutral	True
221.466	1.45	Control	0.6957	n/a	No	2.782	n/a	5.0	NoResponse	0	0.024	220.49	2	22	Feedback	Neutral	True
222.92	2.782	Control	0.6957	n/a	No	2.782	n/a	n/a	NoResponse	0	0.0	n/a	2	22	ISIslide	Neutral	True
225.728	0.25	Control	0.6667000000000001	0.001	No	2.772	0.028	n/a	NoResponse	0	n/a	n/a	2	23	Cue	Neutral	True
225.979	3.9	Control	0.6667000000000001	0.0	No	2.772	0.001	n/a	NoResponse	0	n/a	n/a	2	23	Fixation	Neutral	True
229.874	0.17	Control	0.6667000000000001	0.004	No	2.772	-0.004	4.0	NoResponse	0	0.238	229.112	2	23	Target	Neutral	True
230.058	0.53	Control	0.6667000000000001	n/a	No	2.772	n/a	n/a	NoResponse	0	n/a	n/a	2	23	Blank	Neutral	True
230.112	0.3	Control	0.6667000000000001	0.004	No	2.772	-0.004	4.0	NoResponse	0	0.238	n/a	2	23	ButtonPress	Neutral	True
230.576	1.45	Control	0.6667000000000001	n/a	No	2.772	n/a	5.0	NoResponse	0	0.036	229.612	2	23	Feedback	Neutral	True
232.031	2.772	Control	0.6667000000000001	n/a	No	2.772	n/a	n/a	NoResponse	0	0.0	n/a	2	23	ISIslide	Neutral	True
234.822	0.25	Win2	0.64	0.0	No	3.128	0.022	n/a	NoResponse	0	n/a	n/a	2	24	Cue	MissedWin	True
235.073	3.95	Win2	0.64	0.0	No	3.128	0.001	n/a	NoResponse	0	n/a	n/a	2	24	Fixation	MissedWin	True
239.018	0.16	Win2	0.64	0.004	No	3.128	-0.004	4.0	NoResponse	0	0.21	238.228	2	24	Target	MissedWin	True
239.185	0.54	Win2	0.64	n/a	No	3.128	n/a	n/a	NoResponse	0	n/a	n/a	2	24	Blank	MissedWin	True
239.228	0.3	Win2	0.64	0.004	No	3.128	-0.004	4.0	NoResponse	0	0.21	n/a	2	24	ButtonPress	MissedWin	True
239.72	1.45	Win2	0.64	n/a	No	3.128	n/a	5.0	NoResponse	0	0.014	238.734	2	24	Feedback	MissedWin	True
241.175	3.128	Win2	0.64	n/a	No	3.128	n/a	n/a	NoResponse	0	0.0	n/a	2	24	ISIslide	MissedWin	True
244.317	0.25	Win2	0.6154	0.001	No	3.083	0.017	n/a	NoResponse	0	n/a	n/a	2	25	Cue	MissedWin	True
244.568	4.0	Win2	0.6154	0.0	No	3.083	0.001	n/a	NoResponse	0	n/a	n/a	2	25	Fixation	MissedWin	True
248.563	0.17	Win2	0.6154	0.004	No	3.083	-0.004	4.0	NoResponse	0	0.221	247.784	2	25	Target	MissedWin	True
248.747	0.53	Win2	0.6154	n/a	No	3.083	n/a	n/a	NoResponse	0	n/a	n/a	2	25	Blank	MissedWin	True
248.784	0.3	Win2	0.6154	0.004	No	3.083	-0.004	4.0	NoResponse	0	0.221	n/a	2	25	ButtonPress	MissedWin	True
249.266	1.45	Win2	0.6154	n/a	No	3.083	n/a	5.0	NoResponse	0	0.028	248.294	2	25	Feedback	MissedWin	True
250.72	3.083	Win2	0.6154	n/a	No	3.083	n/a	n/a	NoResponse	0	0.0	n/a	2	25	ISIslide	MissedWin	True
253.829	0.25	Win2	0.5926	0.0	No	2.921	0.029	n/a	NoResponse	0	n/a	n/a	2	26	Cue	MissedWin	True
254.08	3.95	Win2	0.5926	0.0	No	2.921	0.001	n/a	NoResponse	0	n/a	n/a	2	26	Fixation	MissedWin	True
258.025	0.18	Win2	0.5926	0.004	No	2.921	-0.004	4.0	NoResponse	0	0.233	257.258	2	26	Target	MissedWin	True
258.209	0.52	Win2	0.5926	n/a	No	2.921	n/a	n/a	NoResponse	0	n/a	n/a	2	26	Blank	MissedWin	True
258.258	0.3	Win2	0.5926	0.004	No	2.921	-0.004	4.0	NoResponse	0	0.233	n/a	2	26	ButtonPress	MissedWin	True
258.727	1.45	Win2	0.5926	n/a	No	2.921	n/a	5.0	NoResponse	0	0.03	257.757	2	26	Feedback	MissedWin	True
260.182	2.921	Win2	0.5926	n/a	No	2.921	n/a	n/a	NoResponse	0	0.0	n/a	2	26	ISIslide	MissedWin	True
263.124	0.25	Lose2	0.6071	0.0	Yes	2.826	0.024	n/a	GoodResponse	0	n/a	n/a	2	27	Cue	AvoidedLoss	False
263.374	4.05	Lose2	0.6071	0.001	Yes	2.826	0.0	4.0	GoodResponse	0	3.498	265.872	2	27	Fixation	AvoidedLoss	False
266.872	0.3	Lose2	0.6071	0.001	Yes	2.826	0.0	4.0	GoodResponse	0	3.498	n/a	2	27	ButtonPress	AvoidedLoss	False
267.42	0.19	Lose2	0.6071	0.004	Yes	2.826	-0.004	4.0	GoodResponse	0	0.173	266.593	2	27	Target	AvoidedLoss	False
267.593	0.3	Lose2	0.6071	0.004	Yes	2.826	-0.004	4.0	GoodResponse	0	0.173	n/a	2	27	ButtonPress	AvoidedLoss	False
267.621	0.51	Lose2	0.6071	n/a	Yes	2.826	n/a	n/a	GoodResponse	0	n/a	n/a	2	27	Blank	AvoidedLoss	False
268.122	1.45	Lose2	0.6071	n/a	Yes	2.826	n/a	5.0	GoodResponse	0	0.001	267.123	2	27	Feedback	AvoidedLoss	False
269.576	2.826	Lose2	0.6071	n/a	Yes	2.826	n/a	4.0	GoodResponse	0	0.184	n/a	2	27	ISIslide	AvoidedLoss	False
272.402	0.25	Control	0.6207	0.0	Yes	2.848	0.002	n/a	GoodResponse	0	n/a	n/a	2	28	Cue	Neutral	False
272.652	4.05	Control	0.6207	0.0	Yes	2.848	0.0	4.0	GoodResponse	0	3.658	275.31	2	28	Fixation	Neutral	False
276.31	0.3	Control	0.6207	0.0	Yes	2.848	0.0	4.0	GoodResponse	0	3.658	n/a	2	28	ButtonPress	Neutral	False
276.698	0.2	Control	0.6207	0.004	Yes	2.848	-0.004	4.0	GoodResponse	0	0.189	275.887	2	28	Target	Neutral	False
276.887	0.3	Control	0.6207	0.004	Yes	2.848	-0.004	4.0	GoodResponse	0	0.189	n/a	2	28	ButtonPress	Neutral	False
276.898	0.5	Control	0.6207	n/a	Yes	2.848	n/a	n/a	GoodResponse	0	n/a	n/a	2	28	Blank	Neutral	False
277.4	1.45	Control	0.6207	n/a	Yes	2.848	n/a	5.0	GoodResponse	0	0.041	276.441	2	28	Feedback	Neutral	False
278.854	2.848	Control	0.6207	n/a	Yes	2.848	n/a	n/a	GoodResponse	0	0.0	n/a	2	28	ISIslide	Neutral	False
281.729	0.25	Lose2	0.6	0.001	No	2.821	0.029	n/a	NoResponse	-1	n/a	n/a	1	29	Cue	Loss	True
281.98	3.95	Lose2	0.6	0.0	No	2.821	0.001	n/a	NoResponse	-1	n/a	n/a	1	29	Fixation	Loss	True
285.925	0.21	Lose2	0.6	0.004	No	2.821	-0.004	4.0	NoResponse	-1	0.226	285.151	1	29	Target	Loss	True
286.143	0.49	Lose2	0.6	n/a	No	2.821	n/a	n/a	NoResponse	-1	n/a	n/a	1	29	Blank	Loss	True
286.151	0.3	Lose2	0.6	0.004	No	2.821	-0.004	4.0	NoResponse	-1	0.226	n/a	1	29	ButtonPress	Loss	True
286.627	1.45	Lose2	0.6	n/a	No	2.821	n/a	5.0	NoResponse	-1	0.033	285.66	1	29	Feedback	Loss	True
288.082	2.821	Lose2	0.6	n/a	No	2.821	n/a	n/a	NoResponse	-1	0.0	n/a	1	29	ISIslide	Loss	True
290.924	0.25	Win2	0.5806	0.0	No	2.776	0.024	n/a	NoResponse	0	n/a	n/a	1	30	Cue	MissedWin	True
291.174	3.9	Win2	0.5806	0.0	No	2.776	0.0	n/a	NoResponse	0	n/a	n/a	1	30	Fixation	MissedWin	True
295.086	0.22	Win2	0.5806	0.0	No	2.776	0.012	4.0	NoResponse	0	0.225	294.311	1	30	Target	MissedWin	True
295.303	0.48	Win2	0.5806	n/a	No	2.776	n/a	n/a	NoResponse	0	n/a	n/a	1	30	Blank	MissedWin	True
295.311	0.3	Win2	0.5806	0.0	No	2.776	0.012	4.0	NoResponse	0	0.225	n/a	1	30	ButtonPress	MissedWin	True
295.771	1.45	Win2	0.5806	n/a	No	2.776	n/a	5.0	NoResponse	0	0.011	294.782	1	30	Feedback	MissedWin	True
297.226	2.776	Win2	0.5806	n/a	No	2.776	n/a	n/a	NoResponse	0	0.0	n/a	1	30	ISIslide	MissedWin	True
300.018	0.25	Lose2	0.5938	0.0	Yes	2.832	0.018	n/a	GoodResponse	0	n/a	n/a	1	31	Cue	AvoidedLoss	True
300.268	4.05	Lose2	0.5938	0.0	Yes	2.832	0.0	n/a	GoodResponse	0	n/a	n/a	1	31	Fixation	AvoidedLoss	True
304.314	0.23	Lose2	0.5938	0.004	Yes	2.832	-0.004	4.0	GoodResponse	0	0.229	303.543	1	31	Target	AvoidedLoss	True
304.543	0.3	Lose2	0.5938	0.004	Yes	2.832	-0.004	4.0	GoodResponse	0	0.229	n/a	1	31	ButtonPress	AvoidedLoss	True
304.548	0.47	Lose2	0.5938	n/a	Yes	2.832	n/a	n/a	GoodResponse	0	n/a	n/a	1	31	Blank	AvoidedLoss	True
305.016	1.45	Lose2	0.5938	n/a	Yes	2.832	n/a	5.0	GoodResponse	0	0.034	304.05	1	31	Feedback	AvoidedLoss	True
306.47	2.832	Lose2	0.5938	n/a	Yes	2.832	n/a	n/a	GoodResponse	0	0.0	n/a	1	31	ISIslide	AvoidedLoss	True
309.329	0.25	Lose2	0.5758	0.0	No	2.621	0.029	n/a	LatePress	-1	n/a	n/a	0	32	Cue	Loss	True
309.579	4.15	Lose2	0.5758	0.001	No	2.621	0.0	n/a	LatePress	-1	n/a	n/a	0	32	Fixation	Loss	True
313.725	0.24	Lose2	0.5758	0.004	No	2.621	-0.004	4.0	LatePress	-1	0.246	312.971	0	32	Target	Loss	True
313.971	0.3	Lose2	0.5758	0.004	No	2.621	-0.004	4.0	LatePress	-1	0.246	n/a	0	32	ButtonPress	Loss	True
313.976	0.46	Lose2	0.5758	n/a	No	2.621	n/a	n/a	LatePress	-1	n/a	n/a	0	32	Blank	Loss	True
314.427	1.45	Lose2	0.5758	n/a	No	2.621	n/a	5.0	LatePress	-1	0.037	313.464	0	32	Feedback	Loss	True
315.882	2.621	Lose2	0.5758	n/a	No	2.621	n/a	n/a	LatePress	-1	0.0	n/a	0	32	ISIslide	Loss	True
318.523	0.25	Win2	0.5882000000000001	0.0	Yes	2.677	0.023	n/a	GoodResponse	1	n/a	n/a	1	33	Cue	Win	True
318.774	4.0	Win2	0.5882000000000001	0.0	Yes	2.677	0.001	n/a	GoodResponse	1	n/a	n/a	1	33	Fixation	Win	True
322.769	0.25	Win2	0.5882000000000001	0.004	Yes	2.677	-0.004	4.0	GoodResponse	1	0.233	322.002	1	33	Target	Win	True
323.002	0.3	Win2	0.5882000000000001	0.004	Yes	2.677	-0.004	4.0	GoodResponse	1	0.233	n/a	1	33	ButtonPress	Win	True
323.02	0.45	Win2	0.5882000000000001	n/a	Yes	2.677	n/a	n/a	GoodResponse	1	n/a	n/a	1	33	Blank	Win	True
323.471	1.45	Win2	0.5882000000000001	n/a	Yes	2.677	n/a	5.0	GoodResponse	1	0.018	322.489	1	33	Feedback	Win	True
324.925	2.677	Win2	0.5882000000000001	n/a	Yes	2.677	n/a	n/a	GoodResponse	1	0.0	n/a	1	33	ISIslide	Win	True
327.617	0.25	Lose2	0.6	0.0	Yes	2.633	0.017	n/a	GoodResponse	0	n/a	n/a	1	34	Cue	AvoidedLoss	True
327.868	4.05	Lose2	0.6	0.0	Yes	2.633	0.001	n/a	GoodResponse	0	n/a	n/a	1	34	Fixation	AvoidedLoss	True
331.913	0.26	Lose2	0.6	0.004	Yes	2.633	-0.004	4.0	GoodResponse	0	0.223	331.136	1	34	Target	AvoidedLoss	True
332.136	0.3	Lose2	0.6	0.004	Yes	2.633	-0.004	4.0	GoodResponse	0	0.223	n/a	1	34	ButtonPress	AvoidedLoss	True
332.18	0.44	Lose2	0.6	n/a	Yes	2.633	n/a	n/a	GoodResponse	0	n/a	n/a	1	34	Blank	AvoidedLoss	True
332.615	1.45	Lose2	0.6	n/a	Yes	2.633	n/a	5.0	GoodResponse	0	0.045	331.66	1	34	Feedback	AvoidedLoss	True
334.069	2.633	Lose2	0.6	n/a	Yes	2.633	n/a	n/a	GoodResponse	0	0.0	n/a	1	34	ISIslide	AvoidedLoss	True
336.727	0.25	Lose2	0.6111	0.0	Yes	2.673	0.027	n/a	GoodResponse	0	n/a	n/a	1	35	Cue	AvoidedLoss	True
336.978	4.0	Lose2	0.6111	0.0	Yes	2.673	0.001	n/a	GoodResponse	0	n/a	n/a	1	35	Fixation	AvoidedLoss	True
340.973	0.27	Lose2	0.6111	0.004	Yes	2.673	-0.004	4.0	GoodResponse	0	0.247	340.22	1	35	Target	AvoidedLoss	True
341.22	0.3	Lose2	0.6111	0.004	Yes	2.673	-0.004	4.0	GoodResponse	0	0.247	n/a	1	35	ButtonPress	AvoidedLoss	True
341.258	0.43	Lose2	0.6111	n/a	Yes	2.673	n/a	n/a	GoodResponse	0	n/a	n/a	1	35	Blank	AvoidedLoss	True
341.676	1.45	Lose2	0.6111	n/a	Yes	2.673	n/a	5.0	GoodResponse	0	0.008	340.684	1	35	Feedback	AvoidedLoss	True
343.13	2.673	Lose2	0.6111	n/a	Yes	2.673	n/a	n/a	GoodResponse	0	0.0	n/a	1	35	ISIslide	AvoidedLoss	True
345.821	0.25	Control	0.6215999999999999	0.0	Yes	2.679	0.021	n/a	GoodResponse	0	n/a	n/a	1	36	Cue	Neutral	True
346.072	4.0	Control	0.6215999999999999	0.0	Yes	2.679	0.001	n/a	GoodResponse	0	n/a	n/a	1	36	Fixation	Neutral	True
350.067	0.28	Control	0.6215999999999999	0.004	Yes	2.679	-0.004	4.0	GoodResponse	0	0.221	349.288	1	36	Target	Neutral	True
350.288	0.3	Control	0.6215999999999999	0.004	Yes	2.679	-0.004	4.0	GoodResponse	0	0.221	n/a	1	36	ButtonPress	Neutral	True
350.352	0.42	Control	0.6215999999999999	n/a	Yes	2.679	n/a	n/a	GoodResponse	0	n/a	n/a	1	36	Blank	Neutral	True
350.769	1.45	Control	0.6215999999999999	n/a	Yes	2.679	n/a	5.0	GoodResponse	0	0.036	349.805	1	36	Feedback	Neutral	True
352.224	2.679	Control	0.6215999999999999	n/a	Yes	2.679	n/a	n/a	GoodResponse	0	0.0	n/a	1	36	ISIslide	Neutral	True
354.915	0.25	Win2	0.6315999999999999	0.0	Yes	2.885	0.015	n/a	GoodResponse	1	n/a	n/a	2	37	Cue	Win	True
355.166	4.0	Win2	0.6315999999999999	0.0	Yes	2.885	0.001	n/a	GoodResponse	1	n/a	n/a	2	37	Fixation	Win	True
359.161	0.29	Win2	0.6315999999999999	0.004	Yes	2.885	-0.004	4.0	GoodResponse	1	0.212	358.373	2	37	Target	Win	True
359.373	0.3	Win2	0.6315999999999999	0.004	Yes	2.885	-0.004	4.0	GoodResponse	1	0.212	n/a	2	37	ButtonPress	Win	True
359.462	0.41	Win2	0.6315999999999999	n/a	Yes	2.885	n/a	n/a	GoodResponse	1	n/a	n/a	2	37	Blank	Win	True
359.863	1.45	Win2	0.6315999999999999	n/a	Yes	2.885	n/a	5.0	GoodResponse	1	0.016	358.879	2	37	Feedback	Win	True
361.318	2.885	Win2	0.6315999999999999	n/a	Yes	2.885	n/a	n/a	GoodResponse	1	0.0	n/a	2	37	ISIslide	Win	True
364.226	0.25	Lose2	0.6409999999999999	0.0	Yes	2.824	0.026	n/a	GoodResponse	0	n/a	n/a	2	38	Cue	AvoidedLoss	True
364.477	3.95	Lose2	0.6409999999999999	0.0	Yes	2.824	0.001	n/a	GoodResponse	0	n/a	n/a	2	38	Fixation	AvoidedLoss	True
368.422	0.3	Lose2	0.6409999999999999	0.004	Yes	2.824	-0.004	4.0	GoodResponse	0	0.247	367.669	2	38	Target	AvoidedLoss	True
368.669	0.3	Lose2	0.6409999999999999	0.004	Yes	2.824	-0.004	4.0	GoodResponse	0	0.247	n/a	2	38	ButtonPress	AvoidedLoss	True
368.723	0.4	Lose2	0.6409999999999999	n/a	Yes	2.824	n/a	n/a	GoodResponse	0	n/a	n/a	2	38	Blank	AvoidedLoss	True
369.124	1.45	Lose2	0.6409999999999999	n/a	Yes	2.824	n/a	5.0	GoodResponse	0	0.023	368.147	2	38	Feedback	AvoidedLoss	True
370.579	2.824	Lose2	0.6409999999999999	n/a	Yes	2.824	n/a	n/a	GoodResponse	0	0.0	n/a	2	38	ISIslide	AvoidedLoss	True
373.421	0.25	Win2	0.65	0.0	Yes	2.979	0.021	n/a	GoodResponse	1	n/a	n/a	3	39	Cue	Win	True
373.671	4.1	Win2	0.65	0.0	Yes	2.979	0.0	n/a	GoodResponse	1	n/a	n/a	3	39	Fixation	Win	True
377.767	0.31	Win2	0.65	0.004	Yes	2.979	-0.004	4.0	GoodResponse	1	0.245	377.012	3	39	Target	Win	True
378.012	0.3	Win2	0.65	0.004	Yes	2.979	-0.004	4.0	GoodResponse	1	0.245	n/a	3	39	ButtonPress	Win	True
378.085	0.39	Win2	0.65	n/a	Yes	2.979	n/a	n/a	GoodResponse	1	n/a	n/a	3	39	Blank	Win	True
378.469	1.45	Win2	0.65	n/a	Yes	2.979	n/a	5.0	GoodResponse	1	0.044	377.513	3	39	Feedback	Win	True
379.923	2.979	Win2	0.65	n/a	Yes	2.979	n/a	n/a	GoodResponse	1	0.0	n/a	3	39	ISIslide	Win	True
382.916	0.25	Win2	0.6341	0.0	No	2.734	0.016	n/a	PrematurePress	0	n/a	n/a	3	40	Cue	MissedWin	False
383.166	3.95	Win2	0.6341	0.0	No	2.734	0.0	4.0	PrematurePress	0	3.454	385.62	3	40	Fixation	MissedWin	False
386.62	0.3	Win2	0.6341	0.0	No	2.734	0.0	4.0	PrematurePress	0	3.454	n/a	3	40	ButtonPress	MissedWin	False
387.112	0.32	Win2	0.6341	0.004	No	2.734	-0.004	4.0	PrematurePress	0	0.003	386.115	3	40	Target	MissedWin	False
387.115	0.3	Win2	0.6341	0.004	No	2.734	-0.004	4.0	PrematurePress	0	0.003	n/a	3	40	ButtonPress	MissedWin	False
387.446	0.38	Win2	0.6341	n/a	No	2.734	n/a	n/a	PrematurePress	0	n/a	n/a	3	40	Blank	MissedWin	False
387.814	1.45	Win2	0.6341	n/a	No	2.734	n/a	5.0	PrematurePress	0	0.016	386.83	3	40	Feedback	MissedWin	False
389.268	2.734	Win2	0.6341	n/a	No	2.734	n/a	n/a	PrematurePress	0	0.0	n/a	3	40	ISIslide	MissedWin	False
392.026	0.25	Win2	0.6429	0.0	Yes	2.774	0.026	n/a	GoodResponse	1	n/a	n/a	4	41	Cue	Win	True
392.277	3.9	Win2	0.6429	0.0	Yes	2.774	0.001	n/a	GoodResponse	1	n/a	n/a	4	41	Fixation	Win	True
396.172	0.33	Win2	0.6429	0.004	Yes	2.774	-0.004	4.0	GoodResponse	1	0.256	395.428	4	41	Target	Win	True
396.428	0.3	Win2	0.6429	0.004	Yes	2.774	-0.004	4.0	GoodResponse	1	0.256	n/a	4	41	ButtonPress	Win	True
396.506	0.37	Win2	0.6429	n/a	Yes	2.774	n/a	n/a	GoodResponse	1	n/a	n/a	4	41	Blank	Win	True
396.874	1.45	Win2	0.6429	n/a	Yes	2.774	n/a	5.0	GoodResponse	1	0.03	395.904	4	41	Feedback	Win	True
398.328	2.774	Win2	0.6429	n/a	Yes	2.774	n/a	n/a	GoodResponse	1	0.0	n/a	4	41	ISIslide	Win	True
401.12	0.25	Control	0.6512	0.0	Yes	2.93	0.02	n/a	GoodResponse	0	n/a	n/a	4	42	Cue	Neutral	True
401.371	3.85	Control	0.6512	0.0	Yes	2.93	0.001	n/a	GoodResponse	0	n/a	n/a	4	42	Fixation	Neutral	True
405.216	0.34	Control	0.6512	0.004	Yes	2.93	-0.004	4.0	GoodResponse	0	0.249	404.465	4	42	Target	Neutral	True
405.465	0.3	Control	0.6512	0.004	Yes	2.93	-0.004	4.0	GoodResponse	0	0.249	n/a	4	42	ButtonPress	Neutral	True
405.567	0.36	Control	0.6512	n/a	Yes	2.93	n/a	n/a	GoodResponse	0	n/a	n/a	4	42	Blank	Neutral	True
405.918	1.45	Control	0.6512	n/a	Yes	2.93	n/a	5.0	GoodResponse	0	0.009	404.927	4	42	Feedback	Neutral	True
407.372	2.93	Control	0.6512	n/a	Yes	2.93	n/a	n/a	GoodResponse	0	0.0	n/a	4	42	ISIslide	Neutral	True
410.331	0.25	Win2	0.6591	0.0	Yes	3.169	0.031	n/a	GoodResponse	1	n/a	n/a	5	43	Cue	Win	False
410.582	4.0	Win2	0.6591	0.0	Yes	3.169	0.001	4.0	GoodResponse	1	3.918	413.5	5	43	Fixation	Win	False
414.5	0.3	Win2	0.6591	0.0	Yes	3.169	0.001	4.0	GoodResponse	1	3.918	n/a	5	43	ButtonPress	Win	False
414.577	0.35	Win2	0.6591	0.004	Yes	3.169	-0.004	4.0	GoodResponse	1	0.289	413.866	5	43	Target	Win	False
414.866	0.3	Win2	0.6591	0.004	Yes	3.169	-0.004	4.0	GoodResponse	1	0.289	n/a	5	43	ButtonPress	Win	False
414.928	0.35	Win2	0.6591	n/a	Yes	3.169	n/a	n/a	GoodResponse	1	n/a	n/a	5	43	Blank	Win	False
415.279	1.45	Win2	0.6591	n/a	Yes	3.169	n/a	5.0	GoodResponse	1	0.014	414.293	5	43	Feedback	Win	False
416.734	3.169	Win2	0.6591	n/a	Yes	3.169	n/a	n/a	GoodResponse	1	0.0	n/a	5	43	ISIslide	Win	False
419.926	0.25	Win2	0.6667000000000001	0.001	Yes	2.974	0.026	n/a	GoodResponse	1	n/a	n/a	6	44	Cue	Win	True
420.177	4.0	Win2	0.6667000000000001	0.0	Yes	2.974	0.001	n/a	GoodResponse	1	n/a	n/a	6	44	Fixation	Win	True
424.172	0.35	Win2	0.6667000000000001	0.004	Yes	2.974	-0.004	4.0	GoodResponse	1	0.262	423.434	6	44	Target	Win	True
424.434	0.3	Win2	0.6667000000000001	0.004	Yes	2.974	-0.004	4.0	GoodResponse	1	0.262	n/a	6	44	ButtonPress	Win	True
424.524	0.35	Win2	0.6667000000000001	n/a	Yes	2.974	n/a	n/a	GoodResponse	1	n/a	n/a	6	44	Blank	Win	True
424.875	1.45	Win2	0.6667000000000001	n/a	Yes	2.974	n/a	5.0	GoodResponse	1	0.028	423.903	6	44	Feedback	Win	True
426.329	2.974	Win2	0.6667000000000001	n/a	Yes	2.974	n/a	n/a	GoodResponse	1	0.0	n/a	6	44	ISIslide	Win	True
429.321	0.25	Control	0.6522	0.0	No	2.879	0.021	n/a	LatePress	0	n/a	n/a	6	45	Cue	Neutral	True
429.572	4.1	Control	0.6522	0.0	No	2.879	0.001	n/a	LatePress	0	n/a	n/a	6	45	Fixation	Neutral	True
433.668	0.34	Control	0.6522	0.003	No	2.879	-0.003	4.0	LatePress	0	0.348	433.016	6	45	Target	Neutral	True
434.016	0.3	Control	0.6522	0.003	No	2.879	-0.003	4.0	LatePress	0	0.348	n/a	6	45	ButtonPress	Neutral	True
434.019	0.36	Control	0.6522	n/a	No	2.879	n/a	n/a	LatePress	0	n/a	n/a	6	45	Blank	Neutral	True
434.37	1.45	Control	0.6522	n/a	No	2.879	n/a	5.0	LatePress	0	0.045	433.415	6	45	Feedback	Neutral	True
435.824	2.879	Control	0.6522	n/a	No	2.879	n/a	n/a	LatePress	0	0.0	n/a	6	45	ISIslide	Neutral	True
438.716	0.25	Lose2	0.6596	0.0	Yes	3.384	0.016	n/a	GoodResponse	0	n/a	n/a	6	46	Cue	AvoidedLoss	True
438.967	4.0	Lose2	0.6596	0.0	Yes	3.384	0.001	n/a	GoodResponse	0	n/a	n/a	6	46	Fixation	AvoidedLoss	True
442.962	0.35	Lose2	0.6596	0.004	Yes	3.384	-0.004	4.0	GoodResponse	0	0.224	442.186	6	46	Target	AvoidedLoss	True
443.186	0.3	Lose2	0.6596	0.004	Yes	3.384	-0.004	4.0	GoodResponse	0	0.224	n/a	6	46	ButtonPress	AvoidedLoss	True
443.313	0.35	Lose2	0.6596	n/a	Yes	3.384	n/a	n/a	GoodResponse	0	n/a	n/a	6	46	Blank	AvoidedLoss	True
443.664	1.45	Lose2	0.6596	n/a	Yes	3.384	n/a	5.0	GoodResponse	0	0.02	442.684	6	46	Feedback	AvoidedLoss	True
445.119	3.384	Lose2	0.6596	n/a	Yes	3.384	n/a	n/a	GoodResponse	0	0.0	n/a	6	46	ISIslide	AvoidedLoss	True
448.529	0.25	Lose2	0.6667000000000001	0.0	Yes	2.671	0.029	n/a	GoodResponse	0	n/a	n/a	6	47	Cue	AvoidedLoss	True
448.779	4.0	Lose2	0.6667000000000001	0.001	Yes	2.671	0.0	n/a	GoodResponse	0	n/a	n/a	6	47	Fixation	AvoidedLoss	True
452.775	0.35	Lose2	0.6667000000000001	0.004	Yes	2.671	-0.004	4.0	GoodResponse	0	0.283	452.058	6	47	Target	AvoidedLoss	True
453.058	0.3	Lose2	0.6667000000000001	0.004	Yes	2.671	-0.004	4.0	GoodResponse	0	0.283	n/a	6	47	ButtonPress	AvoidedLoss	True
453.126	0.35	Lose2	0.6667000000000001	n/a	Yes	2.671	n/a	n/a	GoodResponse	0	n/a	n/a	6	47	Blank	AvoidedLoss	True
453.477	1.45	Lose2	0.6667000000000001	n/a	Yes	2.671	n/a	5.0	GoodResponse	0	0.011	452.488	6	47	Feedback	AvoidedLoss	True
454.931	2.671	Lose2	0.6667000000000001	n/a	Yes	2.671	n/a	n/a	GoodResponse	0	0.0	n/a	6	47	ISIslide	AvoidedLoss	True
457.623	0.25	Lose2	0.6735	0.0	Yes	3.027	0.023	n/a	GoodResponse	0	n/a	n/a	6	48	Cue	AvoidedLoss	True
457.873	3.95	Lose2	0.6735	0.0	Yes	3.027	0.0	n/a	GoodResponse	0	n/a	n/a	6	48	Fixation	AvoidedLoss	True
461.835	0.34	Lose2	0.6735	0.0	Yes	3.027	0.012	4.0	GoodResponse	0	0.232	461.067	6	48	Target	AvoidedLoss	True
462.067	0.3	Lose2	0.6735	0.0	Yes	3.027	0.012	4.0	GoodResponse	0	0.232	n/a	6	48	ButtonPress	AvoidedLoss	True
462.17	0.36	Lose2	0.6735	n/a	Yes	3.027	n/a	n/a	GoodResponse	0	n/a	n/a	6	48	Blank	AvoidedLoss	True
462.521	1.45	Lose2	0.6735	n/a	Yes	3.027	n/a	5.0	GoodResponse	0	0.04	461.561	6	48	Feedback	AvoidedLoss	True
463.975	3.027	Lose2	0.6735	n/a	Yes	3.027	n/a	n/a	GoodResponse	0	0.0	n/a	6	48	ISIslide	AvoidedLoss	True
467.017	0.25	Control	0.68	0.0	Yes	2.883	0.017	n/a	GoodResponse	0	n/a	n/a	6	49	Cue	Neutral	True
467.268	4.0	Control	0.68	0.0	Yes	2.883	0.001	n/a	GoodResponse	0	n/a	n/a	6	49	Fixation	Neutral	True
471.263	0.33	Control	0.68	0.004	Yes	2.883	-0.004	4.0	GoodResponse	0	0.24	470.503	6	49	Target	Neutral	True
471.503	0.3	Control	0.68	0.004	Yes	2.883	-0.004	4.0	GoodResponse	0	0.24	n/a	6	49	ButtonPress	Neutral	True
471.598	0.37	Control	0.68	n/a	Yes	2.883	n/a	n/a	GoodResponse	0	n/a	n/a	6	49	Blank	Neutral	True
471.966	1.45	Control	0.68	n/a	Yes	2.883	n/a	5.0	GoodResponse	0	0.01	470.976	6	49	Feedback	Neutral	True
473.42	2.883	Control	0.68	n/a	Yes	2.883	n/a	n/a	GoodResponse	0	0.0	n/a	6	49	ISIslide	Neutral	True
476.329	0.25	Control	0.6667000000000001	0.0	No	2.771	0.029	n/a	NoResponse	0	n/a	n/a	6	50	Cue	Neutral	False
476.579	4.0	Control	0.6667000000000001	0.0	No	2.771	0.0	n/a	NoResponse	0	n/a	n/a	6	50	Fixation	Neutral	False
480.575	0.32	Control	0.6667000000000001	0.004	No	2.771	-0.004	n/a	NoResponse	0	n/a	n/a	6	50	Target	Neutral	False
480.909	0.38	Control	0.6667000000000001	n/a	No	2.771	n/a	n/a	NoResponse	0	n/a	n/a	6	50	Blank	Neutral	False
481.277	1.45	Control	0.6667000000000001	n/a	No	2.771	n/a	5.0	NoResponse	0	0.016	480.293	6	50	Feedback	Neutral	False
482.731	2.771	Control	0.6667000000000001	n/a	No	2.771	n/a	n/a	NoResponse	0	0.0	n/a	6	50	ISIslide	Neutral	False
485.523	0.25	Control	0.6731	0.0	Yes	2.727	0.023	n/a	GoodResponse	0	n/a	n/a	6	51	Cue	Neutral	True
485.774	3.95	Control	0.6731	0.0	Yes	2.727	0.001	n/a	GoodResponse	0	n/a	n/a	6	51	Fixation	Neutral	True
489.719	0.31	Control	0.6731	0.004	Yes	2.727	-0.004	4.0	GoodResponse	0	0.238	488.957	6	51	Target	Neutral	True
489.957	0.3	Control	0.6731	0.004	Yes	2.727	-0.004	4.0	GoodResponse	0	0.238	n/a	6	51	ButtonPress	Neutral	True
490.036	0.39	Control	0.6731	n/a	Yes	2.727	n/a	n/a	GoodResponse	0	n/a	n/a	6	51	Blank	Neutral	True
490.421	1.45	Control	0.6731	n/a	Yes	2.727	n/a	5.0	GoodResponse	0	0.043	489.464	6	51	Feedback	Neutral	True
491.875	2.727	Control	0.6731	n/a	Yes	2.727	n/a	n/a	GoodResponse	0	0.0	n/a	6	51	ISIslide	Neutral	True
494.617	0.25	Control	0.6792	0.0	Yes	2.633	0.017	n/a	GoodResponse	0	n/a	n/a	6	52	Cue	Neutral	True
494.867	4.05	Control	0.6792	0.0	Yes	2.633	0.0	n/a	GoodResponse	0	n/a	n/a	6	52	Fixation	Neutral	True
498.913	0.3	Control	0.6792	0.004	Yes	2.633	-0.004	4.0	GoodResponse	0	0.217	498.13	6	52	Target	Neutral	True
499.13	0.3	Control	0.6792	0.004	Yes	2.633	-0.004	4.0	GoodResponse	0	0.217	n/a	6	52	ButtonPress	Neutral	True
499.214	0.4	Control	0.6792	n/a	Yes	2.633	n/a	n/a	GoodResponse	0	n/a	n/a	6	52	Blank	Neutral	True
499.615	1.45	Control	0.6792	n/a	Yes	2.633	n/a	5.0	GoodResponse	0	0.019	498.634	6	52	Feedback	Neutral	True
501.069	2.633	Control	0.6792	n/a	Yes	2.633	n/a	n/a	GoodResponse	0	0.0	n/a	6	52	ISIslide	Neutral	True
503.727	0.25	Win2	0.6851999999999999	0.0	Yes	2.923	0.027	n/a	GoodResponse	1	n/a	n/a	7	53	Cue	Win	True
503.978	4.05	Win2	0.6851999999999999	0.0	Yes	2.923	0.001	n/a	GoodResponse	1	n/a	n/a	7	53	Fixation	Win	True
508.023	0.29	Win2	0.6851999999999999	0.004	Yes	2.923	-0.004	4.0	GoodResponse	1	0.17	507.193	7	53	Target	Win	True
508.193	0.3	Win2	0.6851999999999999	0.004	Yes	2.923	-0.004	4.0	GoodResponse	1	0.17	n/a	7	53	ButtonPress	Win	True
508.324	0.41	Win2	0.6851999999999999	n/a	Yes	2.923	n/a	n/a	GoodResponse	1	n/a	n/a	7	53	Blank	Win	True
508.726	1.45	Win2	0.6851999999999999	n/a	Yes	2.923	n/a	5.0	GoodResponse	1	0.03	507.756	7	53	Feedback	Win	True
510.18	2.923	Win2	0.6851999999999999	n/a	Yes	2.923	n/a	n/a	GoodResponse	1	0.0	n/a	7	53	ISIslide	Win	True
513.122	0.25	Win2	0.6909000000000001	0.0	Yes	2.728	0.022	n/a	GoodResponse	1	n/a	n/a	8	54	Cue	Win	True
513.373	3.95	Win2	0.6909000000000001	0.0	Yes	2.728	0.001	n/a	GoodResponse	1	n/a	n/a	8	54	Fixation	Win	True
517.318	0.28	Win2	0.6909000000000001	0.004	Yes	2.728	-0.004	4.0	GoodResponse	1	0.226	516.544	8	54	Target	Win	True
517.544	0.3	Win2	0.6909000000000001	0.004	Yes	2.728	-0.004	4.0	GoodResponse	1	0.226	n/a	8	54	ButtonPress	Win	True
517.602	0.42	Win2	0.6909000000000001	n/a	Yes	2.728	n/a	n/a	GoodResponse	1	n/a	n/a	8	54	Blank	Win	True
518.02	1.45	Win2	0.6909000000000001	n/a	Yes	2.728	n/a	5.0	GoodResponse	1	0.005	517.025	8	54	Feedback	Win	True
519.474	2.728	Win2	0.6909000000000001	n/a	Yes	2.728	n/a	n/a	GoodResponse	1	0.0	n/a	8	54	ISIslide	Win	True
522.216	0.25	Control	0.6964	0.0	Yes	3.034	0.016	n/a	GoodResponse	0	n/a	n/a	8	55	Cue	Neutral	True
522.467	3.95	Control	0.6964	0.0	Yes	3.034	0.001	n/a	GoodResponse	0	n/a	n/a	8	55	Fixation	Neutral	True
526.412	0.27	Control	0.6964	0.004	Yes	3.034	-0.004	4.0	GoodResponse	0	0.241	525.653	8	55	Target	Neutral	True
526.653	0.3	Control	0.6964	0.004	Yes	3.034	-0.004	4.0	GoodResponse	0	0.241	n/a	8	55	ButtonPress	Neutral	True
526.696	0.43	Control	0.6964	n/a	Yes	3.034	n/a	n/a	GoodResponse	0	n/a	n/a	8	55	Blank	Neutral	True
527.114	1.45	Control	0.6964	n/a	Yes	3.034	n/a	5.0	GoodResponse	0	0.032	526.146	8	55	Feedback	Neutral	True
528.568	3.034	Control	0.6964	n/a	Yes	3.034	n/a	n/a	GoodResponse	0	0.0	n/a	8	55	ISIslide	Neutral	True
531.627	0.25	Control	0.6842	0.001	No	2.823	0.027	n/a	NoResponse	0	n/a	n/a	8	56	Cue	Neutral	True
531.878	3.95	Control	0.6842	0.0	No	2.823	0.001	n/a	NoResponse	0	n/a	n/a	8	56	Fixation	Neutral	True
535.823	0.26	Control	0.6842	0.004	No	2.823	-0.004	4.0	NoResponse	0	0.536	535.359	8	56	Target	Neutral	True
536.091	0.44	Control	0.6842	n/a	No	2.823	n/a	n/a	NoResponse	0	n/a	n/a	8	56	Blank	Neutral	True
536.359	0.3	Control	0.6842	0.004	No	2.823	-0.004	4.0	NoResponse	0	0.536	n/a	8	56	ButtonPress	Neutral	True
536.525	1.45	Control	0.6842	n/a	No	2.823	n/a	5.0	NoResponse	0	0.036	535.561	8	56	Feedback	Neutral	True
537.98	2.823	Control	0.6842	n/a	No	2.823	n/a	n/a	NoResponse	0	0.0	n/a	8	56	ISIslide	Neutral	True
540.822	0.25	Control	0.6724	0.0	No	3.478	0.022	n/a	NoResponse	0	n/a	n/a	8	57	Cue	Neutral	True
541.072	4.0	Control	0.6724	0.0	No	3.478	0.0	n/a	NoResponse	0	n/a	n/a	8	57	Fixation	Neutral	True
545.068	0.25	Control	0.6724	0.004	No	3.478	-0.004	4.0	NoResponse	0	0.263	544.331	8	57	Target	Neutral	True
545.318	0.45	Control	0.6724	n/a	No	3.478	n/a	n/a	NoResponse	0	n/a	n/a	8	57	Blank	Neutral	True
545.331	0.3	Control	0.6724	0.004	No	3.478	-0.004	4.0	NoResponse	0	0.263	n/a	8	57	ButtonPress	Neutral	True
545.77	1.45	Control	0.6724	n/a	No	3.478	n/a	5.0	NoResponse	0	0.011	544.781	8	57	Feedback	Neutral	True
547.224	3.478	Control	0.6724	n/a	No	3.478	n/a	n/a	NoResponse	0	0.0	n/a	8	57	ISIslide	Neutral	True
550.718	0.25	Win2	0.6779999999999999	0.0	Yes	2.732	0.018	n/a	GoodResponse	1	n/a	n/a	9	58	Cue	Win	True
550.969	4.05	Win2	0.6779999999999999	0.0	Yes	2.732	0.001	n/a	GoodResponse	1	n/a	n/a	9	58	Fixation	Win	True
555.014	0.24	Win2	0.6779999999999999	0.004	Yes	2.732	-0.004	4.0	GoodResponse	1	0.223	554.237	9	58	Target	Win	True
555.237	0.3	Win2	0.6779999999999999	0.004	Yes	2.732	-0.004	4.0	GoodResponse	1	0.223	n/a	9	58	ButtonPress	Win	True
555.265	0.46	Win2	0.6779999999999999	n/a	Yes	2.732	n/a	n/a	GoodResponse	1	n/a	n/a	9	58	Blank	Win	True
555.716	1.45	Win2	0.6779999999999999	n/a	Yes	2.732	n/a	5.0	GoodResponse	1	0.015	554.731	9	58	Feedback	Win	True
557.171	2.732	Win2	0.6779999999999999	n/a	Yes	2.732	n/a	n/a	GoodResponse	1	0.0	n/a	9	58	ISIslide	Win	True
559.929	0.25	Lose2	0.6833	0.0	Yes	2.671	0.029	n/a	GoodResponse	0	n/a	n/a	9	59	Cue	AvoidedLoss	True
560.18	4.0	Lose2	0.6833	0.0	Yes	2.671	0.001	n/a	GoodResponse	0	n/a	n/a	9	59	Fixation	AvoidedLoss	True
564.175	0.23	Lose2	0.6833	0.004	Yes	2.671	-0.004	4.0	GoodResponse	0	0.216	563.391	9	59	Target	AvoidedLoss	True
564.391	0.3	Lose2	0.6833	0.004	Yes	2.671	-0.004	4.0	GoodResponse	0	0.216	n/a	9	59	ButtonPress	AvoidedLoss	True
564.409	0.47	Lose2	0.6833	n/a	Yes	2.671	n/a	n/a	GoodResponse	0	n/a	n/a	9	59	Blank	AvoidedLoss	True
564.877	1.45	Lose2	0.6833	n/a	Yes	2.671	n/a	5.0	GoodResponse	0	0.025	563.902	9	59	Feedback	AvoidedLoss	True
566.331	2.671	Lose2	0.6833	n/a	Yes	2.671	n/a	n/a	GoodResponse	0	0.0	n/a	9	59	ISIslide	AvoidedLoss	True
569.023	0.25	Control	0.6720999999999999	0.0	No	2.677	0.023	n/a	NoResponse	0	n/a	n/a	9	60	Cue	Neutral	True
569.273	4.0	Control	0.6720999999999999	0.001	No	2.677	0.0	n/a	NoResponse	0	n/a	n/a	9	60	Fixation	Neutral	True
573.269	0.22	Control	0.6720999999999999	0.004	No	2.677	-0.004	4.0	NoResponse	0	0.275	572.544	9	60	Target	Neutral	True
573.503	0.48	Control	0.6720999999999999	n/a	No	2.677	n/a	n/a	NoResponse	0	n/a	n/a	9	60	Blank	Neutral	True
573.544	0.3	Control	0.6720999999999999	0.004	No	2.677	-0.004	4.0	NoResponse	0	0.275	n/a	9	60	ButtonPress	Neutral	True
573.971	1.45	Control	0.6720999999999999	n/a	No	2.677	n/a	5.0	NoResponse	0	0.006	572.977	9	60	Feedback	Neutral	True
575.425	2.677	Control	0.6720999999999999	n/a	No	2.677	n/a	n/a	NoResponse	0	0.0	n/a	9	60	ISIslide	Neutral	True
578.117	0.25	Lose2	0.6613	0.0	No	2.983	0.017	n/a	NoResponse	-1	n/a	n/a	8	61	Cue	Loss	True
578.367	4.0	Lose2	0.6613	0.0	No	2.983	0.0	n/a	NoResponse	-1	n/a	n/a	8	61	Fixation	Loss	True
582.363	0.21	Lose2	0.6613	0.004	No	2.983	-0.004	4.0	NoResponse	-1	0.293	581.656	8	61	Target	Loss	True
582.58	0.49	Lose2	0.6613	n/a	No	2.983	n/a	n/a	NoResponse	-1	n/a	n/a	8	61	Blank	Loss	True
582.656	0.3	Lose2	0.6613	0.004	No	2.983	-0.004	4.0	NoResponse	-1	0.293	n/a	8	61	ButtonPress	Loss	True
583.065	1.45	Lose2	0.6613	n/a	No	2.983	n/a	5.0	NoResponse	-1	0.032	582.097	8	61	Feedback	Loss	True
584.519	2.983	Lose2	0.6613	n/a	No	2.983	n/a	n/a	NoResponse	-1	0.0	n/a	8	61	ISIslide	Loss	True
587.528	0.25	Lose2	0.6507999999999999	0.0	No	2.872	0.028	n/a	NoResponse	-1	n/a	n/a	7	62	Cue	Loss	True
587.779	3.9	Lose2	0.6507999999999999	0.0	No	2.872	0.001	n/a	NoResponse	-1	n/a	n/a	7	62	Fixation	Loss	True
591.674	0.21	Lose2	0.6507999999999999	0.004	No	2.872	-0.004	4.0	NoResponse	-1	0.226	590.9	7	62	Target	Loss	True
591.891	0.49	Lose2	0.6507999999999999	n/a	No	2.872	n/a	n/a	NoResponse	-1	n/a	n/a	7	62	Blank	Loss	True
591.9	0.3	Lose2	0.6507999999999999	0.004	No	2.872	-0.004	4.0	NoResponse	-1	0.226	n/a	7	62	ButtonPress	Loss	True
592.376	1.45	Lose2	0.6507999999999999	n/a	No	2.872	n/a	5.0	NoResponse	-1	0.038	591.414	7	62	Feedback	Loss	True
593.83	2.872	Lose2	0.6507999999999999	n/a	No	2.872	n/a	n/a	NoResponse	-1	0.0	n/a	7	62	ISIslide	Loss	True
596.722	0.25	Lose2	0.6406000000000001	0.0	No	2.628	0.022	n/a	LatePress	-1	n/a	n/a	6	63	Cue	Loss	True
596.973	4.05	Lose2	0.6406000000000001	0.0	No	2.628	0.001	n/a	LatePress	-1	n/a	n/a	6	63	Fixation	Loss	True
601.019	0.22	Lose2	0.6406000000000001	0.003	No	2.628	-0.003	4.0	LatePress	-1	0.221	600.24	6	63	Target	Loss	True
601.24	0.3	Lose2	0.6406000000000001	0.003	No	2.628	-0.003	4.0	LatePress	-1	0.221	n/a	6	63	ButtonPress	Loss	True
601.253	0.48	Lose2	0.6406000000000001	n/a	No	2.628	n/a	n/a	LatePress	-1	n/a	n/a	6	63	Blank	Loss	True
601.721	1.45	Lose2	0.6406000000000001	n/a	No	2.628	n/a	5.0	LatePress	-1	0.01	600.731	6	63	Feedback	Loss	True
603.175	2.628	Lose2	0.6406000000000001	n/a	No	2.628	n/a	n/a	LatePress	-1	0.0	n/a	6	63	ISIslide	Loss	True
605.816	0.25	Win2	0.6308	0.0	No	3.134	0.016	n/a	NoResponse	0	n/a	n/a	6	64	Cue	MissedWin	True
606.067	4.15	Win2	0.6308	0.0	No	3.134	0.001	n/a	NoResponse	0	n/a	n/a	6	64	Fixation	MissedWin	True
610.213	0.23	Win2	0.6308	0.003	No	3.134	-0.003	4.0	NoResponse	0	0.254	609.467	6	64	Target	MissedWin	True
610.447	0.47	Win2	0.6308	n/a	No	3.134	n/a	n/a	NoResponse	0	n/a	n/a	6	64	Blank	MissedWin	True
610.467	0.3	Win2	0.6308	0.003	No	3.134	-0.003	4.0	NoResponse	0	0.254	n/a	6	64	ButtonPress	MissedWin	True
610.915	1.45	Win2	0.6308	n/a	No	3.134	n/a	5.0	NoResponse	0	0.035	609.95	6	64	Feedback	MissedWin	True
612.369	3.134	Win2	0.6308	n/a	No	3.134	n/a	n/a	NoResponse	0	0.0	n/a	6	64	ISIslide	MissedWin	True
615.529	0.25	Control	0.6212	0.0	No	2.771	0.029	n/a	NoResponse	0	n/a	n/a	6	65	Cue	Neutral	True
615.779	4.0	Control	0.6212	0.0	No	2.771	0.0	n/a	NoResponse	0	n/a	n/a	6	65	Fixation	Neutral	True
619.775	0.24	Control	0.6212	0.004	No	2.771	-0.004	4.0	NoResponse	0	0.273	619.048	6	65	Target	Neutral	True
620.025	0.46	Control	0.6212	n/a	No	2.771	n/a	n/a	NoResponse	0	n/a	n/a	6	65	Blank	Neutral	True
620.048	0.3	Control	0.6212	0.004	No	2.771	-0.004	4.0	NoResponse	0	0.273	n/a	6	65	ButtonPress	Neutral	True
620.477	1.45	Control	0.6212	n/a	No	2.771	n/a	5.0	NoResponse	0	0.034	619.511	6	65	Feedback	Neutral	True
621.931	2.771	Control	0.6212	n/a	No	2.771	n/a	n/a	NoResponse	0	0.0	n/a	6	65	ISIslide	Neutral	True
624.723	0.25	Win2	0.6119	0.0	No	2.777	0.023	n/a	LatePress	0	n/a	n/a	6	66	Cue	MissedWin	True
624.974	3.9	Win2	0.6119	0.0	No	2.777	0.001	n/a	LatePress	0	n/a	n/a	6	66	Fixation	MissedWin	True
628.869	0.25	Win2	0.6119	0.004	No	2.777	-0.004	4.0	LatePress	0	0.252	628.121	6	66	Target	MissedWin	True
629.119	0.45	Win2	0.6119	n/a	No	2.777	n/a	n/a	LatePress	0	n/a	n/a	6	66	Blank	MissedWin	True
629.121	0.3	Win2	0.6119	0.004	No	2.777	-0.004	4.0	LatePress	0	0.252	n/a	6	66	ButtonPress	MissedWin	True
629.571	1.45	Win2	0.6119	n/a	No	2.777	n/a	5.0	LatePress	0	0.014	628.585	6	66	Feedback	MissedWin	True
631.025	2.777	Win2	0.6119	n/a	No	2.777	n/a	n/a	LatePress	0	0.0	n/a	6	66	ISIslide	MissedWin	True
633.817	0.25	Control	0.6029	0.0	No	2.733	0.017	n/a	NoResponse	0	n/a	n/a	6	67	Cue	Neutral	False
634.067	3.95	Control	0.6029	0.0	No	2.733	0.0	n/a	NoResponse	0	n/a	n/a	6	67	Fixation	Neutral	False
638.013	0.26	Control	0.6029	0.004	No	2.733	-0.004	n/a	NoResponse	0	n/a	n/a	6	67	Target	Neutral	False
638.28	0.44	Control	0.6029	n/a	No	2.733	n/a	n/a	NoResponse	0	n/a	n/a	6	67	Blank	Neutral	False
638.715	1.45	Control	0.6029	n/a	No	2.733	n/a	5.0	NoResponse	0	0.04	637.755	6	67	Feedback	Neutral	False
640.169	2.733	Control	0.6029	n/a	No	2.733	n/a	n/a	NoResponse	0	0.0	n/a	6	67	ISIslide	Neutral	False
642.927	0.25	Win2	0.6087	0.0	Yes	3.073	0.027	n/a	GoodResponse	1	n/a	n/a	7	68	Cue	Win	True
643.178	4.0	Win2	0.6087	0.0	Yes	3.073	0.001	n/a	GoodResponse	1	n/a	n/a	7	68	Fixation	Win	True
647.173	0.27	Win2	0.6087	0.004	Yes	3.073	-0.004	4.0	GoodResponse	1	0.233	646.406	7	68	Target	Win	True
647.406	0.3	Win2	0.6087	0.004	Yes	3.073	-0.004	4.0	GoodResponse	1	0.233	n/a	7	68	ButtonPress	Win	True
647.458	0.43	Win2	0.6087	n/a	Yes	3.073	n/a	n/a	GoodResponse	1	n/a	n/a	7	68	Blank	Win	True
647.875	1.45	Win2	0.6087	n/a	Yes	3.073	n/a	5.0	GoodResponse	1	0.002	646.877	7	68	Feedback	Win	True
649.33	3.073	Win2	0.6087	n/a	Yes	3.073	n/a	n/a	GoodResponse	1	0.0	n/a	7	68	ISIslide	Win	True
652.422	0.25	Win2	0.6143	0.0	Yes	3.228	0.022	n/a	GoodResponse	1	n/a	n/a	8	69	Cue	Win	True
652.673	3.95	Win2	0.6143	0.0	Yes	3.228	0.001	n/a	GoodResponse	1	n/a	n/a	8	69	Fixation	Win	True
656.618	0.28	Win2	0.6143	0.004	Yes	3.228	-0.004	4.0	GoodResponse	1	0.248	655.866	8	69	Target	Win	True
656.866	0.3	Win2	0.6143	0.004	Yes	3.228	-0.004	4.0	GoodResponse	1	0.248	n/a	8	69	ButtonPress	Win	True
656.902	0.42	Win2	0.6143	n/a	Yes	3.228	n/a	n/a	GoodResponse	1	n/a	n/a	8	69	Blank	Win	True
657.32	1.45	Win2	0.6143	n/a	Yes	3.228	n/a	5.0	GoodResponse	1	0.02	656.34	8	69	Feedback	Win	True
658.775	3.228	Win2	0.6143	n/a	Yes	3.228	n/a	n/a	GoodResponse	1	0.0	n/a	8	69	ISIslide	Win	True
662.018	0.25	Lose2	0.6197	0.0	Yes	3.032	0.018	n/a	GoodResponse	0	n/a	n/a	8	70	Cue	AvoidedLoss	True
662.269	4.05	Lose2	0.6197	0.0	Yes	3.032	0.001	n/a	GoodResponse	0	n/a	n/a	8	70	Fixation	AvoidedLoss	True
666.314	0.29	Lose2	0.6197	0.004	Yes	3.032	-0.004	4.0	GoodResponse	0	0.237	665.551	8	70	Target	AvoidedLoss	True
666.551	0.3	Lose2	0.6197	0.004	Yes	3.032	-0.004	4.0	GoodResponse	0	0.237	n/a	8	70	ButtonPress	AvoidedLoss	True
666.615	0.41	Lose2	0.6197	n/a	Yes	3.032	n/a	n/a	GoodResponse	0	n/a	n/a	8	70	Blank	AvoidedLoss	True
667.016	1.45	Lose2	0.6197	n/a	Yes	3.032	n/a	5.0	GoodResponse	0	0.031	666.047	8	70	Feedback	AvoidedLoss	True
668.47	3.032	Lose2	0.6197	n/a	Yes	3.032	n/a	n/a	GoodResponse	0	0.0	n/a	8	70	ISIslide	AvoidedLoss	True
671.53	0.25	Win2	0.625	0.0	Yes	2.72	0.03	n/a	GoodResponse	1	n/a	n/a	9	71	Cue	Win	True
671.78	4.05	Win2	0.625	0.0	Yes	2.72	0.0	n/a	GoodResponse	1	n/a	n/a	9	71	Fixation	Win	True
675.826	0.3	Win2	0.625	0.004	Yes	2.72	-0.004	4.0	GoodResponse	1	0.237	675.063	9	71	Target	Win	True
676.063	0.3	Win2	0.625	0.004	Yes	2.72	-0.004	4.0	GoodResponse	1	0.237	n/a	9	71	ButtonPress	Win	True
676.127	0.4	Win2	0.625	n/a	Yes	2.72	n/a	n/a	GoodResponse	1	n/a	n/a	9	71	Blank	Win	True
676.528	1.45	Win2	0.625	n/a	Yes	2.72	n/a	5.0	GoodResponse	1	0.032	675.56	9	71	Feedback	Win	True
677.982	2.72	Win2	0.625	n/a	Yes	2.72	n/a	n/a	GoodResponse	1	0.0	n/a	9	71	ISIslide	Win	True
680.724	0.25	Win2	0.6301	0.0	Yes	2.776	0.024	n/a	GoodResponse	1	n/a	n/a	10	72	Cue	Win	True
680.974	4.1	Win2	0.6301	0.001	Yes	2.776	0.0	n/a	GoodResponse	1	n/a	n/a	10	72	Fixation	Win	True
685.07	0.31	Win2	0.6301	0.004	Yes	2.776	-0.004	4.0	GoodResponse	1	0.232	684.302	10	72	Target	Win	True
685.302	0.3	Win2	0.6301	0.004	Yes	2.776	-0.004	4.0	GoodResponse	1	0.232	n/a	10	72	ButtonPress	Win	True
685.388	0.39	Win2	0.6301	n/a	Yes	2.776	n/a	n/a	GoodResponse	1	n/a	n/a	10	72	Blank	Win	True
685.772	1.45	Win2	0.6301	n/a	Yes	2.776	n/a	5.0	GoodResponse	1	0.007	684.779	10	72	Feedback	Win	True
687.227	2.776	Win2	0.6301	n/a	Yes	2.776	n/a	n/a	GoodResponse	1	0.0	n/a	10	72	ISIslide	Win	True
690.018	0.25	Win2	0.6351	0.0	Yes	2.682	0.018	n/a	GoodResponse	1	n/a	n/a	11	73	Cue	Win	True
690.269	4.0	Win2	0.6351	0.0	Yes	2.682	0.001	n/a	GoodResponse	1	n/a	n/a	11	73	Fixation	Win	True
694.264	0.32	Win2	0.6351	0.004	Yes	2.682	-0.004	4.0	GoodResponse	1	0.214	693.478	11	73	Target	Win	True
694.478	0.3	Win2	0.6351	0.004	Yes	2.682	-0.004	4.0	GoodResponse	1	0.214	n/a	11	73	ButtonPress	Win	True
694.599	0.38	Win2	0.6351	n/a	Yes	2.682	n/a	n/a	GoodResponse	1	n/a	n/a	11	73	Blank	Win	True
694.966	1.45	Win2	0.6351	n/a	Yes	2.682	n/a	5.0	GoodResponse	1	0.033	693.999	11	73	Feedback	Win	True
696.421	2.682	Win2	0.6351	n/a	Yes	2.682	n/a	n/a	GoodResponse	1	0.0	n/a	11	73	ISIslide	Win	True
699.129	0.25	Lose2	0.64	0.0	Yes	2.621	0.029	n/a	GoodResponse	0	n/a	n/a	11	74	Cue	AvoidedLoss	True
699.38	4.05	Lose2	0.64	0.0	Yes	2.621	0.001	n/a	GoodResponse	0	n/a	n/a	11	74	Fixation	AvoidedLoss	True
703.425	0.33	Lose2	0.64	0.004	Yes	2.621	-0.004	4.0	GoodResponse	0	0.231	702.656	11	74	Target	AvoidedLoss	True
703.656	0.3	Lose2	0.64	0.004	Yes	2.621	-0.004	4.0	GoodResponse	0	0.231	n/a	11	74	ButtonPress	AvoidedLoss	True
703.759	0.37	Lose2	0.64	n/a	Yes	2.621	n/a	n/a	GoodResponse	0	n/a	n/a	11	74	Blank	AvoidedLoss	True
704.127	1.45	Lose2	0.64	n/a	Yes	2.621	n/a	5.0	GoodResponse	0	0.042	703.169	11	74	Feedback	AvoidedLoss	True
705.581	2.621	Lose2	0.64	n/a	Yes	2.621	n/a	n/a	GoodResponse	0	0.0	n/a	11	74	ISIslide	AvoidedLoss	True
708.223	0.25	Lose2	0.6446999999999999	0.0	Yes	2.927	0.023	n/a	GoodResponse	0	n/a	n/a	11	75	Cue	AvoidedLoss	True
708.473	3.95	Lose2	0.6446999999999999	0.001	Yes	2.927	0.0	n/a	GoodResponse	0	n/a	n/a	11	75	Fixation	AvoidedLoss	True
712.419	0.34	Lose2	0.6446999999999999	0.004	Yes	2.927	-0.004	4.0	GoodResponse	0	0.232	711.651	11	75	Target	AvoidedLoss	True
712.651	0.3	Lose2	0.6446999999999999	0.004	Yes	2.927	-0.004	4.0	GoodResponse	0	0.232	n/a	11	75	ButtonPress	AvoidedLoss	True
712.77	0.36	Lose2	0.6446999999999999	n/a	Yes	2.927	n/a	n/a	GoodResponse	0	n/a	n/a	11	75	Blank	AvoidedLoss	True
713.121	1.45	Lose2	0.6446999999999999	n/a	Yes	2.927	n/a	5.0	GoodResponse	0	0.024	712.145	11	75	Feedback	AvoidedLoss	True
714.575	2.927	Lose2	0.6446999999999999	n/a	Yes	2.927	n/a	n/a	GoodResponse	0	0.0	n/a	11	75	ISIslide	AvoidedLoss	True
717.517	0.25	Control	0.6494	0.0	Yes	3.233	0.017	n/a	GoodResponse	0	n/a	n/a	11	76	Cue	Neutral	True
717.768	4.05	Control	0.6494	0.0	Yes	3.233	0.001	n/a	GoodResponse	0	n/a	n/a	11	76	Fixation	Neutral	True
721.813	0.35	Control	0.6494	0.004	Yes	3.233	-0.004	4.0	GoodResponse	0	0.225	721.038	11	76	Target	Neutral	True
722.038	0.3	Control	0.6494	0.004	Yes	3.233	-0.004	4.0	GoodResponse	0	0.225	n/a	11	76	ButtonPress	Neutral	True
722.164	0.35	Control	0.6494	n/a	Yes	3.233	n/a	n/a	GoodResponse	0	n/a	n/a	11	76	Blank	Neutral	True
722.516	1.45	Control	0.6494	n/a	Yes	3.233	n/a	5.0	GoodResponse	0	0.043	721.559	11	76	Feedback	Neutral	True
723.97	3.233	Control	0.6494	n/a	Yes	3.233	n/a	n/a	GoodResponse	0	0.0	n/a	11	76	ISIslide	Neutral	True
727.23	0.25	Lose2	0.6537999999999999	0.0	Yes	2.57	0.03	n/a	GoodResponse	0	n/a	n/a	11	77	Cue	AvoidedLoss	True
727.48	3.95	Lose2	0.6537999999999999	0.0	Yes	2.57	0.0	n/a	GoodResponse	0	n/a	n/a	11	77	Fixation	AvoidedLoss	True
731.426	0.36	Lose2	0.6537999999999999	0.004	Yes	2.57	-0.004	4.0	GoodResponse	0	0.221	730.647	11	77	Target	AvoidedLoss	True
731.647	0.3	Lose2	0.6537999999999999	0.004	Yes	2.57	-0.004	4.0	GoodResponse	0	0.221	n/a	11	77	ButtonPress	AvoidedLoss	True
731.793	0.34	Lose2	0.6537999999999999	n/a	Yes	2.57	n/a	n/a	GoodResponse	0	n/a	n/a	11	77	Blank	AvoidedLoss	True
732.128	1.45	Lose2	0.6537999999999999	n/a	Yes	2.57	n/a	5.0	GoodResponse	0	0.041	731.169	11	77	Feedback	AvoidedLoss	True
733.582	2.57	Lose2	0.6537999999999999	n/a	Yes	2.57	n/a	n/a	GoodResponse	0	0.0	n/a	11	77	ISIslide	AvoidedLoss	True
