onset	duration	cue_type	current_mean_accuracy	duration_error	is_hit	isi_adjusted	onset_delay	response	response_type	reward	rt	rt_time	total_reward	trial_number	trial_phase	trial_type	one_press
11.112	0.25	Control	1.0	0.0	Yes	2.938	0.012	n/a	GoodResponse	0	n/a	n/a	0	0	Cue	Neutral	True
11.362	3.85	Control	1.0	0.0	Yes	2.938	0.0	n/a	GoodResponse	0	n/a	n/a	0	0	Fixation	Neutral	True
15.211	0.4	Control	1.0	0.001	Yes	2.938	-0.001	1.0	GoodResponse	0	0.249	14.46	0	0	Target	Neutral	True
15.46	0.3	Control	1.0	0.001	Yes	2.938	-0.001	1.0	GoodResponse	0	0.249	n/a	0	0	ButtonPress	Neutral	True
15.61	0.3	Control	1.0	n/a	Yes	2.938	n/a	n/a	GoodResponse	0	n/a	n/a	0	0	Blank	Neutral	True
15.91	1.45	Control	1.0	n/a	Yes	2.938	n/a	5.0	GoodResponse	0	0.019	14.929	0	0	Feedback	Neutral	True
17.36	2.938	Control	1.0	n/a	Yes	2.938	n/a	n/a	GoodResponse	0	0.0	n/a	0	0	ISIslide	Neutral	True
20.375	0.25	Lose2	1.0	0.001	Yes	2.725	0.075	n/a	GoodResponse	0	n/a	n/a	0	1	Cue	AvoidedLoss	True
20.625	4.0	Lose2	1.0	0.0	Yes	2.725	0.0	n/a	GoodResponse	0	n/a	n/a	0	1	Fixation	AvoidedLoss	True
24.624	0.39	Lose2	1.0	0.001	Yes	2.725	-0.001	1.0	GoodResponse	0	0.222	23.846	0	1	Target	AvoidedLoss	True
24.846	0.3	Lose2	1.0	0.001	Yes	2.725	-0.001	1.0	GoodResponse	0	0.222	n/a	0	1	ButtonPress	AvoidedLoss	True
25.024	0.31	Lose2	1.0	n/a	Yes	2.725	n/a	n/a	GoodResponse	0	n/a	n/a	0	1	Blank	AvoidedLoss	True
25.324	1.45	Lose2	1.0	n/a	Yes	2.725	n/a	5.0	GoodResponse	0	0.02	24.344	0	1	Feedback	AvoidedLoss	True
26.773	2.725	Lose2	1.0	n/a	Yes	2.725	n/a	n/a	GoodResponse	0	0.0	n/a	0	1	ISIslide	AvoidedLoss	True
29.522	0.25	Control	1.0	0.0	Yes	2.578	0.022	n/a	GoodResponse	0	n/a	n/a	0	2	Cue	Neutral	True
29.772	4.1	Control	1.0	0.0	Yes	2.578	0.0	n/a	GoodResponse	0	n/a	n/a	0	2	Fixation	Neutral	True
33.871	0.38	Control	1.0	0.001	Yes	2.578	-0.001	1.0	GoodResponse	0	0.23	33.101	0	2	Target	Neutral	True
34.101	0.3	Control	1.0	0.001	Yes	2.578	-0.001	1.0	GoodResponse	0	0.23	n/a	0	2	ButtonPress	Neutral	True
34.254	0.32	Control	1.0	n/a	Yes	2.578	n/a	n/a	GoodResponse	0	n/a	n/a	0	2	Blank	Neutral	True
34.571	1.45	Control	1.0	n/a	Yes	2.578	n/a	5.0	GoodResponse	0	0.041	33.612	0	2	Feedback	Neutral	True
36.02	2.578	Control	1.0	n/a	Yes	2.578	n/a	n/a	GoodResponse	0	0.0	n/a	0	2	ISIslide	Neutral	True
38.686	0.25	Win2	1.0	0.0	Yes	2.764	0.086	n/a	GoodResponse	1	n/a	n/a	1	3	Cue	Win	True
38.936	3.95	Win2	1.0	0.0	Yes	2.764	0.0	n/a	GoodResponse	1	n/a	n/a	1	3	Fixation	Win	True
42.884	0.37	Win2	1.0	0.002	Yes	2.764	-0.002	1.0	GoodResponse	1	0.233	42.117	1	3	Target	Win	True
43.117	0.3	Win2	1.0	0.002	Yes	2.764	-0.002	1.0	GoodResponse	1	0.233	n/a	1	3	ButtonPress	Win	True
43.268	0.33	Win2	1.0	n/a	Yes	2.764	n/a	n/a	GoodResponse	1	n/a	n/a	1	3	Blank	Win	True
43.584	1.45	Win2	1.0	n/a	Yes	2.764	n/a	5.0	GoodResponse	1	0.007	42.591	1	3	Feedback	Win	True
45.034	2.764	Win2	1.0	n/a	Yes	2.764	n/a	n/a	GoodResponse	1	0.0	n/a	1	3	ISIslide	Win	True
47.816	0.25	Win2	1.0	0.0	Yes	3.284	0.016	n/a	GoodResponse	1	n/a	n/a	2	4	Cue	Win	True
48.066	4.0	Win2	1.0	0.0	Yes	3.284	0.0	n/a	GoodResponse	1	n/a	n/a	2	4	Fixation	Win	True
52.065	0.36	Win2	1.0	0.001	Yes	3.284	-0.001	1.0	GoodResponse	1	0.245	51.31	2	4	Target	Win	True
52.31	0.3	Win2	1.0	0.001	Yes	3.284	-0.001	1.0	GoodResponse	1	0.245	n/a	2	4	ButtonPress	Win	True
52.431	0.34	Win2	1.0	n/a	Yes	3.284	n/a	n/a	GoodResponse	1	n/a	n/a	2	4	Blank	Win	True
52.764	1.45	Win2	1.0	n/a	Yes	3.284	n/a	5.0	GoodResponse	1	0.043	51.807	2	4	Feedback	Win	True
54.214	3.284	Win2	1.0	n/a	Yes	3.284	n/a	n/a	GoodResponse	1	0.0	n/a	2	4	ISIslide	Win	True
57.529	0.25	Win2	1.0	0.0	Yes	2.771	0.029	n/a	GoodResponse	1	n/a	n/a	3	5	Cue	Win	True
57.779	4.0	Win2	1.0	0.0	Yes	2.771	0.0	n/a	GoodResponse	1	n/a	n/a	3	5	Fixation	Win	True
61.778	0.35	Win2	1.0	0.001	Yes	2.771	-0.001	1.0	GoodResponse	1	0.233	61.011	3	5	Target	Win	True
62.011	0.3	Win2	1.0	0.001	Yes	2.771	-0.001	1.0	GoodResponse	1	0.233	n/a	3	5	ButtonPress	Win	True
62.128	0.35	Win2	1.0	n/a	Yes	2.771	n/a	n/a	GoodResponse	1	n/a	n/a	3	5	Blank	Win	True
62.478	1.45	Win2	1.0	n/a	Yes	2.771	n/a	5.0	GoodResponse	1	0.036	61.514	3	5	Feedback	Win	True
63.927	2.771	Win2	1.0	n/a	Yes	2.771	n/a	n/a	GoodResponse	1	0.0	n/a	3	5	ISIslide	Win	True
66.726	0.25	Lose2	1.0	0.0	Yes	2.724	0.026	n/a	GoodResponse	0	n/a	n/a	3	6	Cue	AvoidedLoss	True
66.976	3.95	Lose2	1.0	0.0	Yes	2.724	0.0	n/a	GoodResponse	0	n/a	n/a	3	6	Fixation	AvoidedLoss	True
70.925	0.34	Lose2	1.0	0.001	Yes	2.724	-0.001	1.0	GoodResponse	0	0.248	70.173	3	6	Target	AvoidedLoss	True
71.173	0.3	Lose2	1.0	0.001	Yes	2.724	-0.001	1.0	GoodResponse	0	0.248	n/a	3	6	ButtonPress	AvoidedLoss	True
71.275	0.36	Lose2	1.0	n/a	Yes	2.724	n/a	n/a	GoodResponse	0	n/a	n/a	3	6	Blank	AvoidedLoss	True
71.624	1.45	Lose2	1.0	n/a	Yes	2.724	n/a	5.0	GoodResponse	0	0.012	70.636	3	6	Feedback	AvoidedLoss	True
73.074	2.724	Lose2	1.0	n/a	Yes	2.724	n/a	n/a	GoodResponse	0	0.0	n/a	3	6	ISIslide	AvoidedLoss	True
75.823	0.25	Lose2	1.0	0.0	Yes	4.027	0.023	n/a	GoodResponse	0	n/a	n/a	3	7	Cue	AvoidedLoss	True
76.073	4.05	Lose2	1.0	0.0	Yes	4.027	0.0	n/a	GoodResponse	0	n/a	n/a	3	7	Fixation	AvoidedLoss	True
80.121	0.33	Lose2	1.0	0.002	Yes	4.027	-0.002	1.0	GoodResponse	0	0.225	79.346	3	7	Target	AvoidedLoss	True
80.346	0.3	Lose2	1.0	0.002	Yes	4.027	-0.002	1.0	GoodResponse	0	0.225	n/a	3	7	ButtonPress	AvoidedLoss	True
80.455	0.37	Lose2	1.0	n/a	Yes	4.027	n/a	n/a	GoodResponse	0	n/a	n/a	3	7	Blank	AvoidedLoss	True
80.821	1.45	Lose2	1.0	n/a	Yes	4.027	n/a	5.0	GoodResponse	0	0.035	79.856	3	7	Feedback	AvoidedLoss	True
82.271	4.027	Lose2	1.0	n/a	Yes	4.027	n/a	n/a	GoodResponse	0	0.0	n/a	3	7	ISIslide	AvoidedLoss	True
86.319	0.25	Lose2	1.0	0.0	Yes	3.031	0.019	n/a	GoodResponse	0	n/a	n/a	3	8	Cue	AvoidedLoss	True
86.569	3.95	Lose2	1.0	0.0	Yes	3.031	0.0	n/a	GoodResponse	0	n/a	n/a	3	8	Fixation	AvoidedLoss	True
90.518	0.32	Lose2	1.0	0.001	Yes	3.031	-0.001	1.0	GoodResponse	0	0.225	89.743	3	8	Target	AvoidedLoss	True
90.743	0.3	Lose2	1.0	0.001	Yes	3.031	-0.001	1.0	GoodResponse	0	0.225	n/a	3	8	ButtonPress	AvoidedLoss	True
90.834	0.38	Lose2	1.0	n/a	Yes	3.031	n/a	n/a	GoodResponse	0	n/a	n/a	3	8	Blank	AvoidedLoss	True
91.218	1.45	Lose2	1.0	n/a	Yes	3.031	n/a	5.0	GoodResponse	0	0.028	90.246	3	8	Feedback	AvoidedLoss	True
92.667	3.031	Lose2	1.0	n/a	Yes	3.031	n/a	n/a	GoodResponse	0	0.0	n/a	3	8	ISIslide	AvoidedLoss	True
95.716	0.25	Lose2	1.0	0.0	Yes	3.134	0.016	n/a	GoodResponse	0	n/a	n/a	3	9	Cue	AvoidedLoss	True
95.966	3.95	Lose2	1.0	0.0	Yes	3.134	0.0	n/a	GoodResponse	0	n/a	n/a	3	9	Fixation	AvoidedLoss	True
99.915	0.31	Lose2	1.0	0.001	Yes	3.134	-0.001	1.0	GoodResponse	0	0.291	99.206	3	9	Target	AvoidedLoss	True
100.206	0.3	Lose2	1.0	0.001	Yes	3.134	-0.001	1.0	GoodResponse	0	0.291	n/a	3	9	ButtonPress	AvoidedLoss	True
100.231	0.39	Lose2	1.0	n/a	Yes	3.134	n/a	n/a	GoodResponse	0	n/a	n/a	3	9	Blank	AvoidedLoss	True
100.614	1.45	Lose2	1.0	n/a	Yes	3.134	n/a	5.0	GoodResponse	0	0.046	99.66	3	9	Feedback	AvoidedLoss	True
102.064	3.134	Lose2	1.0	n/a	Yes	3.134	n/a	n/a	GoodResponse	0	0.0	n/a	3	9	ISIslide	AvoidedLoss	True
105.213	0.25	Control	1.0	0.0	Yes	3.287	0.013	n/a	GoodResponse	0	n/a	n/a	3	10	Cue	Neutral	True
105.463	4.0	Control	1.0	0.0	Yes	3.287	0.0	n/a	GoodResponse	0	n/a	n/a	3	10	Fixation	Neutral	True
109.461	0.3	Control	1.0	0.002	Yes	3.287	-0.002	1.0	GoodResponse	0	0.26	108.721	3	10	Target	Neutral	True
109.721	0.3	Control	1.0	0.002	Yes	3.287	-0.002	1.0	GoodResponse	0	0.26	n/a	3	10	ButtonPress	Neutral	True
109.761	0.4	Control	1.0	n/a	Yes	3.287	n/a	n/a	GoodResponse	0	n/a	n/a	3	10	Blank	Neutral	True
110.161	1.45	Control	1.0	n/a	Yes	3.287	n/a	5.0	GoodResponse	0	0.011	109.172	3	10	Feedback	Neutral	True
111.611	3.287	Control	1.0	n/a	Yes	3.287	n/a	n/a	GoodResponse	0	0.0	n/a	3	10	ISIslide	Neutral	True
114.926	0.25	Lose2	1.0	0.0	Yes	2.724	0.026	n/a	GoodResponse	0	n/a	n/a	3	11	Cue	AvoidedLoss	True
115.176	4.05	Lose2	1.0	0.0	Yes	2.724	0.0	n/a	GoodResponse	0	n/a	n/a	3	11	Fixation	AvoidedLoss	True
119.225	0.29	Lose2	1.0	0.001	Yes	2.724	-0.001	1.0	GoodResponse	0	0.267	118.492	3	11	Target	AvoidedLoss	True
119.492	0.3	Lose2	1.0	0.001	Yes	2.724	-0.001	1.0	GoodResponse	0	0.267	n/a	3	11	ButtonPress	AvoidedLoss	True
119.525	0.41	Lose2	1.0	n/a	Yes	2.724	n/a	n/a	GoodResponse	0	n/a	n/a	3	11	Blank	AvoidedLoss	True
119.924	1.45	Lose2	1.0	n/a	Yes	2.724	n/a	5.0	GoodResponse	0	0.007	118.931	3	11	Feedback	AvoidedLoss	True
121.374	2.724	Lose2	1.0	n/a	Yes	2.724	n/a	n/a	GoodResponse	0	0.0	n/a	3	11	ISIslide	AvoidedLoss	True
124.123	0.25	Control	1.0	0.0	Yes	2.977	0.023	n/a	GoodResponse	0	n/a	n/a	3	12	Cue	Neutral	True
124.373	3.9	Control	1.0	0.0	Yes	2.977	0.0	n/a	GoodResponse	0	n/a	n/a	3	12	Fixation	Neutral	True
128.272	0.28	Control	1.0	0.001	Yes	2.977	-0.001	1.0	GoodResponse	0	0.236	127.508	3	12	Target	Neutral	True
128.508	0.3	Control	1.0	0.001	Yes	2.977	-0.001	1.0	GoodResponse	0	0.236	n/a	3	12	ButtonPress	Neutral	True
128.555	0.42	Control	1.0	n/a	Yes	2.977	n/a	n/a	GoodResponse	0	n/a	n/a	3	12	Blank	Neutral	True
128.971	1.45	Control	1.0	n/a	Yes	2.977	n/a	5.0	GoodResponse	0	0.031	128.002	3	12	Feedback	Neutral	True
130.421	2.977	Control	1.0	n/a	Yes	2.977	n/a	n/a	GoodResponse	0	0.0	n/a	3	12	ISIslide	Neutral	True
133.42	0.25	Control	1.0	0.0	Yes	2.78	0.02	n/a	GoodResponse	0	n/a	n/a	3	13	Cue	Neutral	True
133.67	4.0	Control	1.0	0.0	Yes	2.78	0.0	n/a	GoodResponse	0	n/a	n/a	3	13	Fixation	Neutral	True
137.668	0.27	Control	1.0	0.002	Yes	2.78	-0.002	1.0	GoodResponse	0	0.227	136.895	3	13	Target	Neutral	True
137.895	0.3	Control	1.0	0.002	Yes	2.78	-0.002	1.0	GoodResponse	0	0.227	n/a	3	13	ButtonPress	Neutral	True
137.952	0.43	Control	1.0	n/a	Yes	2.78	n/a	n/a	GoodResponse	0	n/a	n/a	3	13	Blank	Neutral	True
138.368	1.45	Control	1.0	n/a	Yes	2.78	n/a	5.0	GoodResponse	0	0.048	137.416	3	13	Feedback	Neutral	True
139.818	2.78	Control	1.0	n/a	Yes	2.78	n/a	n/a	GoodResponse	0	0.0	n/a	3	13	ISIslide	Neutral	True
142.617	0.25	Win2	1.0	0.0	Yes	2.683	0.017	n/a	GoodResponse	1	n/a	n/a	4	14	Cue	Win	True
142.866	4.1	Win2	1.0	0.001	Yes	2.683	-0.001	n/a	GoodResponse	1	n/a	n/a	4	14	Fixation	Win	True
146.965	0.26	Win2	1.0	0.002	Yes	2.683	-0.002	1.0	GoodResponse	1	0.241	146.206	4	14	Target	Win	True
147.206	0.3	Win2	1.0	0.002	Yes	2.683	-0.002	1.0	GoodResponse	1	0.241	n/a	4	14	ButtonPress	Win	True
147.232	0.44	Win2	1.0	n/a	Yes	2.683	n/a	n/a	GoodResponse	1	n/a	n/a	4	14	Blank	Win	True
147.665	1.45	Win2	1.0	n/a	Yes	2.683	n/a	5.0	GoodResponse	1	0.02	146.685	4	14	Feedback	Win	True
149.114	2.683	Win2	1.0	n/a	Yes	2.683	n/a	n/a	GoodResponse	1	0.0	n/a	4	14	ISIslide	Win	True
151.813	0.25	Control	1.0	0.0	Yes	2.987	0.013	n/a	GoodResponse	0	n/a	n/a	4	15	Cue	Neutral	True
152.063	4.0	Control	1.0	0.0	Yes	2.987	0.0	n/a	GoodResponse	0	n/a	n/a	4	15	Fixation	Neutral	True
156.062	0.25	Control	1.0	0.001	Yes	2.987	-0.001	1.0	GoodResponse	0	0.238	155.3	4	15	Target	Neutral	True
156.3	0.3	Control	1.0	0.001	Yes	2.987	-0.001	1.0	GoodResponse	0	0.238	n/a	4	15	ButtonPress	Neutral	True
156.312	0.45	Control	1.0	n/a	Yes	2.987	n/a	n/a	GoodResponse	0	n/a	n/a	4	15	Blank	Neutral	True
156.762	1.45	Control	1.0	n/a	Yes	2.987	n/a	5.0	GoodResponse	0	0.045	155.807	4	15	Feedback	Neutral	True
158.211	2.987	Control	1.0	n/a	Yes	2.987	n/a	n/a	GoodResponse	0	0.0	n/a	4	15	ISIslide	Neutral	True
161.227	0.25	Win2	0.9412	0.0	No	2.873	0.027	n/a	NoResponse	0	n/a	n/a	4	16	Cue	MissedWin	True
161.477	4.0	Win2	0.9412	0.0	No	2.873	0.0	n/a	NoResponse	0	n/a	n/a	4	16	Fixation	MissedWin	True
165.475	0.24	Win2	0.9412	0.002	No	2.873	-0.002	1.0	NoResponse	0	0.266	164.741	4	16	Target	MissedWin	True
165.725	0.46	Win2	0.9412	n/a	No	2.873	n/a	n/a	NoResponse	0	n/a	n/a	4	16	Blank	MissedWin	True
165.741	0.3	Win2	0.9412	0.002	No	2.873	-0.002	1.0	NoResponse	0	0.266	n/a	4	16	ButtonPress	MissedWin	True
166.175	1.45	Win2	0.9412	n/a	No	2.873	n/a	5.0	NoResponse	0	0.046	165.221	4	16	Feedback	MissedWin	True
167.625	2.873	Win2	0.9412	n/a	No	2.873	n/a	n/a	NoResponse	0	0.0	n/a	4	16	ISIslide	MissedWin	True
170.524	0.25	Lose2	0.8889	0.0	No	2.726	0.024	n/a	NoResponse	-1	n/a	n/a	3	17	Cue	Loss	True
170.773	3.95	Lose2	0.8889	0.001	No	2.726	-0.001	n/a	NoResponse	-1	n/a	n/a	3	17	Fixation	Loss	True
174.722	0.23	Lose2	0.8889	0.002	No	2.726	-0.002	1.0	NoResponse	-1	0.261	173.983	3	17	Target	Loss	True
174.955	0.47	Lose2	0.8889	n/a	No	2.726	n/a	n/a	NoResponse	-1	n/a	n/a	3	17	Blank	Loss	True
174.983	0.3	Lose2	0.8889	0.002	No	2.726	-0.002	1.0	NoResponse	-1	0.261	n/a	3	17	ButtonPress	Loss	True
175.422	1.45	Lose2	0.8889	n/a	No	2.726	n/a	5.0	NoResponse	-1	0.018	174.44	3	17	Feedback	Loss	True
176.871	2.726	Lose2	0.8889	n/a	No	2.726	n/a	n/a	NoResponse	-1	0.0	n/a	3	17	ISIslide	Loss	True
179.62	0.25	Lose2	0.8421	0.0	No	2.73	0.02	n/a	NoResponse	-1	n/a	n/a	2	18	Cue	Loss	True
179.87	4.05	Lose2	0.8421	0.0	No	2.73	0.0	n/a	NoResponse	-1	n/a	n/a	2	18	Fixation	Loss	True
183.919	0.22	Lose2	0.8421	0.001	No	2.73	-0.001	1.0	NoResponse	-1	0.319	183.238	2	18	Target	Loss	True
184.136	0.48	Lose2	0.8421	n/a	No	2.73	n/a	n/a	NoResponse	-1	n/a	n/a	2	18	Blank	Loss	True
184.238	0.3	Lose2	0.8421	0.001	No	2.73	-0.001	1.0	NoResponse	-1	0.319	n/a	2	18	ButtonPress	Loss	True
184.619	1.45	Lose2	0.8421	n/a	No	2.73	n/a	5.0	NoResponse	-1	0.041	183.66	2	18	Feedback	Loss	True
186.068	2.73	Lose2	0.8421	n/a	No	2.73	n/a	n/a	NoResponse	-1	0.0	n/a	2	18	ISIslide	Loss	True
188.817	0.25	Control	0.8	0.0	No	2.933	0.017	n/a	NoResponse	0	n/a	n/a	2	19	Cue	Neutral	False
189.067	3.95	Control	0.8	0.0	No	2.933	0.0	1.0	NoResponse	0	2.991	191.058	2	19	Fixation	Neutral	False
192.058	0.3	Control	0.8	0.0	No	2.933	0.0	1.0	NoResponse	0	2.991	n/a	2	19	ButtonPress	Neutral	False
193.016	0.21	Control	0.8	0.001	No	2.933	-0.001	1.0	NoResponse	0	0.291	192.307	2	19	Target	Neutral	False
193.232	0.49	Control	0.8	n/a	No	2.933	n/a	n/a	NoResponse	0	n/a	n/a	2	19	Blank	Neutral	False
193.307	0.3	Control	0.8	0.001	No	2.933	-0.001	1.0	NoResponse	0	0.291	n/a	2	19	ButtonPress	Neutral	False
193.716	1.45	Control	0.8	n/a	No	2.933	n/a	5.0	NoResponse	0	0.017	192.733	2	19	Feedback	Neutral	False
195.165	2.933	Control	0.8	n/a	No	2.933	n/a	n/a	NoResponse	0	0.0	n/a	2	19	ISIslide	Neutral	False
198.114	0.25	Control	0.7619	0.0	No	2.636	0.014	n/a	NoResponse	0	n/a	n/a	2	20	Cue	Neutral	True
198.364	4.05	Control	0.7619	0.0	No	2.636	0.0	n/a	NoResponse	0	n/a	n/a	2	20	Fixation	Neutral	True
202.413	0.2	Control	0.7619	0.001	No	2.636	-0.001	1.0	NoResponse	0	0.262	201.675	2	20	Target	Neutral	True
202.612	0.5	Control	0.7619	n/a	No	2.636	n/a	n/a	NoResponse	0	n/a	n/a	2	20	Blank	Neutral	True
202.675	0.3	Control	0.7619	0.001	No	2.636	-0.001	1.0	NoResponse	0	0.262	n/a	2	20	ButtonPress	Neutral	True
203.112	1.45	Control	0.7619	n/a	No	2.636	n/a	5.0	NoResponse	0	0.036	202.148	2	20	Feedback	Neutral	True
204.562	2.636	Control	0.7619	n/a	No	2.636	n/a	n/a	NoResponse	0	0.0	n/a	2	20	ISIslide	Neutral	True
207.228	0.25	Control	0.7726999999999999	0.0	Yes	2.772	0.028	n/a	GoodResponse	0	n/a	n/a	2	21	Cue	Neutral	True
207.477	4.1	Control	0.7726999999999999	0.001	Yes	2.772	-0.001	n/a	GoodResponse	0	n/a	n/a	2	21	Fixation	Neutral	True
211.576	0.19	Control	0.7726999999999999	0.002	Yes	2.772	-0.002	1.0	GoodResponse	0	0.168	210.744	2	21	Target	Neutral	True
211.744	0.3	Control	0.7726999999999999	0.002	Yes	2.772	-0.002	1.0	GoodResponse	0	0.168	n/a	2	21	ButtonPress	Neutral	True
211.776	0.51	Control	0.7726999999999999	n/a	Yes	2.772	n/a	n/a	GoodResponse	0	n/a	n/a	2	21	Blank	Neutral	True
212.276	1.45	Control	0.7726999999999999	n/a	Yes	2.772	n/a	5.0	GoodResponse	0	0.043	211.319	2	21	Feedback	Neutral	True
213.725	2.772	Control	0.7726999999999999	n/a	Yes	2.772	n/a	n/a	GoodResponse	0	0.0	n/a	2	21	ISIslide	Neutral	True
216.524	0.25	Control	0.7391	0.0	No	2.776	0.024	n/a	NoResponse	0	n/a	n/a	2	22	Cue	Neutral	True
216.774	4.0	Control	0.7391	0.0	No	2.776	0.0	n/a	NoResponse	0	n/a	n/a	2	22	Fixation	Neutral	True
220.773	0.18	Control	0.7391	0.001	No	2.776	-0.001	1.0	NoResponse	0	0.243	220.016	2	22	Target	Neutral	True
220.956	0.52	Control	0.7391	n/a	No	2.776	n/a	n/a	NoResponse	0	n/a	n/a	2	22	Blank	Neutral	True
221.016	0.3	Control	0.7391	0.001	No	2.776	-0.001	1.0	NoResponse	0	0.243	n/a	2	22	ButtonPress	Neutral	True
221.473	1.45	Control	0.7391	n/a	No	2.776	n/a	5.0	NoResponse	0	0.016	220.489	2	22	Feedback	Neutral	True
222.922	2.776	Control	0.7391	n/a	No	2.776	n/a	n/a	NoResponse	0	0.0	n/a	2	22	ISIslide	Neutral	True
225.721	0.25	Control	0.7082999999999999	0.0	No	2.779	0.021	n/a	NoResponse	0	n/a	n/a	2	23	Cue	Neutral	True
225.971	3.9	Control	0.7082999999999999	0.0	No	2.779	0.0	n/a	NoResponse	0	n/a	n/a	2	23	Fixation	Neutral	True
229.87	0.17	Control	0.7082999999999999	0.001	No	2.779	-0.001	1.0	NoResponse	0	0.225	229.095	2	23	Target	Neutral	True
230.053	0.53	Control	0.7082999999999999	n/a	No	2.779	n/a	n/a	NoResponse	0	n/a	n/a	2	23	Blank	Neutral	True
230.095	0.3	Control	0.7082999999999999	0.001	No	2.779	-0.001	1.0	NoResponse	0	0.225	n/a	2	23	ButtonPress	Neutral	True
230.569	1.45	Control	0.7082999999999999	n/a	No	2.779	n/a	5.0	NoResponse	0	0.042	229.611	2	23	Feedback	Neutral	True
232.019	2.779	Control	0.7082999999999999	n/a	No	2.779	n/a	n/a	NoResponse	0	0.0	n/a	2	23	ISIslide	Neutral	True
234.818	0.25	Win2	0.68	0.0	No	3.132	0.018	n/a	NoResponse	0	n/a	n/a	2	24	Cue	MissedWin	True
235.068	3.95	Win2	0.68	0.0	No	3.132	0.0	1.0	NoResponse	0	2.46	236.528	2	24	Fixation	MissedWin	True
237.528	0.3	Win2	0.68	0.0	No	3.132	0.0	1.0	NoResponse	0	2.46	n/a	2	24	ButtonPress	MissedWin	True
239.017	0.16	Win2	0.68	0.001	No	3.132	-0.001	n/a	NoResponse	0	n/a	n/a	2	24	Target	MissedWin	True
239.183	0.54	Win2	0.68	n/a	No	3.132	n/a	n/a	NoResponse	0	n/a	n/a	2	24	Blank	MissedWin	True
239.716	1.45	Win2	0.68	n/a	No	3.132	n/a	5.0	NoResponse	0	0.017	238.733	2	24	Feedback	MissedWin	True
241.166	3.132	Win2	0.68	n/a	No	3.132	n/a	n/a	NoResponse	0	0.0	n/a	2	24	ISIslide	MissedWin	True
244.331	0.25	Win2	0.6537999999999999	0.0	No	3.069	0.031	n/a	NoResponse	0	n/a	n/a	2	25	Cue	MissedWin	True
244.581	4.0	Win2	0.6537999999999999	0.0	No	3.069	0.0	n/a	NoResponse	0	n/a	n/a	2	25	Fixation	MissedWin	True
248.58	0.15	Win2	0.6537999999999999	0.001	No	3.069	-0.001	1.0	NoResponse	0	0.219	247.799	2	25	Target	MissedWin	True
248.73	0.55	Win2	0.6537999999999999	n/a	No	3.069	n/a	n/a	NoResponse	0	n/a	n/a	2	25	Blank	MissedWin	True
248.799	0.3	Win2	0.6537999999999999	0.001	No	3.069	-0.001	1.0	NoResponse	0	0.219	n/a	2	25	ButtonPress	MissedWin	True
249.28	1.45	Win2	0.6537999999999999	n/a	No	3.069	n/a	5.0	NoResponse	0	0.014	248.294	2	25	Feedback	MissedWin	True
250.729	3.069	Win2	0.6537999999999999	n/a	No	3.069	n/a	n/a	NoResponse	0	0.0	n/a	2	25	ISIslide	MissedWin	True
253.828	0.25	Win2	0.6296	0.0	No	2.922	0.028	n/a	NoResponse	0	n/a	n/a	2	26	Cue	MissedWin	True
254.078	3.95	Win2	0.6296	0.0	No	2.922	0.0	n/a	NoResponse	0	n/a	n/a	2	26	Fixation	MissedWin	True
258.027	0.16	Win2	0.6296	0.001	No	2.922	-0.001	1.0	NoResponse	0	0.272	257.299	2	26	Target	MissedWin	True
258.193	0.54	Win2	0.6296	n/a	No	2.922	n/a	n/a	NoResponse	0	n/a	n/a	2	26	Blank	MissedWin	True
258.299	0.3	Win2	0.6296	0.001	No	2.922	-0.001	1.0	NoResponse	0	0.272	n/a	2	26	ButtonPress	MissedWin	True
258.726	1.45	Win2	0.6296	n/a	No	2.922	n/a	5.0	NoResponse	0	0.031	257.757	2	26	Feedback	MissedWin	True
260.176	2.922	Win2	0.6296	n/a	No	2.922	n/a	n/a	NoResponse	0	0.0	n/a	2	26	ISIslide	MissedWin	True
263.125	0.25	Lose2	0.6071	0.0	No	2.825	0.025	n/a	NoResponse	-1	n/a	n/a	1	27	Cue	Loss	True
263.375	4.05	Lose2	0.6071	0.0	No	2.825	0.0	1.0	NoResponse	-1	3.404	265.779	1	27	Fixation	Loss	True
266.779	0.3	Lose2	0.6071	0.0	No	2.825	0.0	1.0	NoResponse	-1	3.404	n/a	1	27	ButtonPress	Loss	True
267.423	0.17	Lose2	0.6071	0.002	No	2.825	-0.002	n/a	NoResponse	-1	n/a	n/a	1	27	Target	Loss	True
267.607	0.53	Lose2	0.6071	n/a	No	2.825	n/a	n/a	NoResponse	-1	n/a	n/a	1	27	Blank	Loss	True
268.123	1.45	Lose2	0.6071	n/a	No	2.825	n/a	5.0	NoResponse	-1	0.049	267.172	1	27	Feedback	Loss	True
269.573	2.825	Lose2	0.6071	n/a	No	2.825	n/a	n/a	NoResponse	-1	0.0	n/a	1	27	ISIslide	Loss	True
272.422	0.25	Control	0.5861999999999999	0.0	No	2.828	0.022	n/a	NoResponse	0	n/a	n/a	1	28	Cue	Neutral	True
272.672	4.05	Control	0.5861999999999999	0.0	No	2.828	0.0	n/a	NoResponse	0	n/a	n/a	1	28	Fixation	Neutral	True
276.72	0.18	Control	0.5861999999999999	0.002	No	2.828	-0.002	1.0	NoResponse	0	0.255	275.975	1	28	Target	Neutral	True
276.904	0.52	Control	0.5861999999999999	n/a	No	2.828	n/a	n/a	NoResponse	0	n/a	n/a	1	28	Blank	Neutral	True
276.975	0.3	Control	0.5861999999999999	0.002	No	2.828	-0.002	1.0	NoResponse	0	0.255	n/a	1	28	ButtonPress	Neutral	True
277.42	1.45	Control	0.5861999999999999	n/a	No	2.828	n/a	5.0	NoResponse	0	0.019	276.439	1	28	Feedback	Neutral	True
278.869	2.828	Control	0.5861999999999999	n/a	No	2.828	n/a	n/a	NoResponse	0	0.0	n/a	1	28	ISIslide	Neutral	True
281.718	0.25	Lose2	0.5667	0.001	No	2.832	0.018	n/a	NoResponse	-1	n/a	n/a	0	29	Cue	Loss	True
281.968	3.95	Lose2	0.5667	0.0	No	2.832	0.0	n/a	NoResponse	-1	n/a	n/a	0	29	Fixation	Loss	True
285.917	0.19	Lose2	0.5667	0.001	No	2.832	-0.001	1.0	NoResponse	-1	0.209	285.126	0	29	Target	Loss	True
286.117	0.51	Lose2	0.5667	n/a	No	2.832	n/a	n/a	NoResponse	-1	n/a	n/a	0	29	Blank	Loss	True
286.126	0.3	Lose2	0.5667	0.001	No	2.832	-0.001	1.0	NoResponse	-1	0.209	n/a	0	29	ButtonPress	Loss	True
286.617	1.45	Lose2	0.5667	n/a	No	2.832	n/a	5.0	NoResponse	-1	0.042	285.659	0	29	Feedback	Loss	True
288.066	2.832	Lose2	0.5667	n/a	No	2.832	n/a	n/a	NoResponse	-1	0.0	n/a	0	29	ISIslide	Loss	True
290.915	0.25	Win2	0.5484	0.0	No	2.785	0.015	n/a	NoResponse	0	n/a	n/a	0	30	Cue	MissedWin	True
291.165	3.9	Win2	0.5484	0.0	No	2.785	0.0	n/a	NoResponse	0	n/a	n/a	0	30	Fixation	MissedWin	True
295.064	0.2	Win2	0.5484	0.001	No	2.785	-0.001	1.0	NoResponse	0	0.243	294.307	0	30	Target	MissedWin	True
295.264	0.5	Win2	0.5484	n/a	No	2.785	n/a	n/a	NoResponse	0	n/a	n/a	0	30	Blank	MissedWin	True
295.307	0.3	Win2	0.5484	0.001	No	2.785	-0.001	1.0	NoResponse	0	0.243	n/a	0	30	ButtonPress	MissedWin	True
295.764	1.45	Win2	0.5484	n/a	No	2.785	n/a	5.0	NoResponse	0	0.017	294.781	0	30	Feedback	MissedWin	True
297.213	2.785	Win2	0.5484	n/a	No	2.785	n/a	n/a	NoResponse	0	0.0	n/a	0	30	ISIslide	MissedWin	True
300.029	0.25	Lose2	0.5312	0.0	No	2.821	0.029	n/a	NoResponse	-1	n/a	n/a	-1	31	Cue	Loss	True
300.279	4.05	Lose2	0.5312	0.0	No	2.821	0.0	n/a	NoResponse	-1	n/a	n/a	-1	31	Fixation	Loss	True
304.327	0.21	Lose2	0.5312	0.002	No	2.821	-0.002	1.0	NoResponse	-1	0.225	303.552	-1	31	Target	Loss	True
304.544	0.49	Lose2	0.5312	n/a	No	2.821	n/a	n/a	NoResponse	-1	n/a	n/a	-1	31	Blank	Loss	True
304.552	0.3	Lose2	0.5312	0.002	No	2.821	-0.002	1.0	NoResponse	-1	0.225	n/a	-1	31	ButtonPress	Loss	True
305.027	1.45	Lose2	0.5312	n/a	No	2.821	n/a	5.0	NoResponse	-1	0.023	304.05	-1	31	Feedback	Loss	True
306.477	2.821	Lose2	0.5312	n/a	No	2.821	n/a	n/a	NoResponse	-1	0.0	n/a	-1	31	ISIslide	Loss	True
309.326	0.25	Lose2	0.5152	0.0	No	2.624	0.026	n/a	LatePress	-1	n/a	n/a	-2	32	Cue	Loss	True
309.575	4.15	Lose2	0.5152	0.001	No	2.624	-0.001	n/a	LatePress	-1	n/a	n/a	-2	32	Fixation	Loss	True
313.724	0.22	Lose2	0.5152	0.002	No	2.624	-0.002	1.0	LatePress	-1	0.221	312.945	-2	32	Target	Loss	True
313.945	0.3	Lose2	0.5152	0.002	No	2.624	-0.002	1.0	LatePress	-1	0.221	n/a	-2	32	ButtonPress	Loss	True
313.957	0.48	Lose2	0.5152	n/a	No	2.624	n/a	n/a	LatePress	-1	n/a	n/a	-2	32	Blank	Loss	True
314.424	1.45	Lose2	0.5152	n/a	No	2.624	n/a	5.0	LatePress	-1	0.04	313.464	-2	32	Feedback	Loss	True
315.873	2.624	Lose2	0.5152	n/a	No	2.624	n/a	n/a	LatePress	-1	0.0	n/a	-2	32	ISIslide	Loss	True
318.522	0.25	Win2	0.5	0.0	No	2.678	0.022	n/a	NoResponse	0	n/a	n/a	-2	33	Cue	MissedWin	True
318.772	4.0	Win2	0.5	0.0	No	2.678	0.0	n/a	NoResponse	0	n/a	n/a	-2	33	Fixation	MissedWin	True
322.771	0.23	Win2	0.5	0.001	No	2.678	-0.001	1.0	NoResponse	0	0.247	322.018	-2	33	Target	MissedWin	True
323.004	0.47	Win2	0.5	n/a	No	2.678	n/a	n/a	NoResponse	0	n/a	n/a	-2	33	Blank	MissedWin	True
323.018	0.3	Win2	0.5	0.001	No	2.678	-0.001	1.0	NoResponse	0	0.247	n/a	-2	33	ButtonPress	MissedWin	True
323.471	1.45	Win2	0.5	n/a	No	2.678	n/a	5.0	NoResponse	0	0.018	322.489	-2	33	Feedback	MissedWin	True
324.92	2.678	Win2	0.5	n/a	No	2.678	n/a	n/a	NoResponse	0	0.0	n/a	-2	33	ISIslide	MissedWin	True
327.619	0.25	Lose2	0.5143	0.0	Yes	2.631	0.019	n/a	GoodResponse	0	n/a	n/a	-2	34	Cue	AvoidedLoss	True
327.869	4.05	Lose2	0.5143	0.0	Yes	2.631	0.0	n/a	GoodResponse	0	n/a	n/a	-2	34	Fixation	AvoidedLoss	True
331.918	0.24	Lose2	0.5143	0.001	Yes	2.631	-0.001	1.0	GoodResponse	0	0.197	331.115	-2	34	Target	AvoidedLoss	True
332.115	0.3	Lose2	0.5143	0.001	Yes	2.631	-0.001	1.0	GoodResponse	0	0.197	n/a	-2	34	ButtonPress	AvoidedLoss	True
332.168	0.46	Lose2	0.5143	n/a	Yes	2.631	n/a	n/a	GoodResponse	0	n/a	n/a	-2	34	Blank	AvoidedLoss	True
332.618	1.45	Lose2	0.5143	n/a	Yes	2.631	n/a	5.0	GoodResponse	0	0.042	331.66	-2	34	Feedback	AvoidedLoss	True
334.067	2.631	Lose2	0.5143	n/a	Yes	2.631	n/a	n/a	GoodResponse	0	0.0	n/a	-2	34	ISIslide	AvoidedLoss	True
336.716	0.25	Lose2	0.5278	0.0	Yes	2.684	0.016	n/a	GoodResponse	0	n/a	n/a	-2	35	Cue	AvoidedLoss	True
336.966	4.0	Lose2	0.5278	0.0	Yes	2.684	0.0	n/a	GoodResponse	0	n/a	n/a	-2	35	Fixation	AvoidedLoss	True
340.965	0.25	Lose2	0.5278	0.001	Yes	2.684	-0.001	1.0	GoodResponse	0	0.207	340.172	-2	35	Target	AvoidedLoss	True
341.172	0.3	Lose2	0.5278	0.001	Yes	2.684	-0.001	1.0	GoodResponse	0	0.207	n/a	-2	35	ButtonPress	AvoidedLoss	True
341.215	0.45	Lose2	0.5278	n/a	Yes	2.684	n/a	n/a	GoodResponse	0	n/a	n/a	-2	35	Blank	AvoidedLoss	True
341.664	1.45	Lose2	0.5278	n/a	Yes	2.684	n/a	5.0	GoodResponse	0	0.019	340.683	-2	35	Feedback	AvoidedLoss	True
343.114	2.684	Lose2	0.5278	n/a	Yes	2.684	n/a	n/a	GoodResponse	0	0.0	n/a	-2	35	ISIslide	AvoidedLoss	True
345.813	0.25	Control	0.5405	0.0	Yes	2.687	0.013	n/a	GoodResponse	0	n/a	n/a	-2	36	Cue	Neutral	True
346.063	4.0	Control	0.5405	0.0	Yes	2.687	0.0	n/a	GoodResponse	0	n/a	n/a	-2	36	Fixation	Neutral	True
350.061	0.26	Control	0.5405	0.002	Yes	2.687	-0.002	1.0	GoodResponse	0	0.207	349.268	-2	36	Target	Neutral	True
350.268	0.3	Control	0.5405	0.002	Yes	2.687	-0.002	1.0	GoodResponse	0	0.207	n/a	-2	36	ButtonPress	Neutral	True
350.328	0.44	Control	0.5405	n/a	Yes	2.687	n/a	n/a	GoodResponse	0	n/a	n/a	-2	36	Blank	Neutral	True
350.761	1.45	Control	0.5405	n/a	Yes	2.687	n/a	5.0	GoodResponse	0	0.044	349.805	-2	36	Feedback	Neutral	True
352.211	2.687	Control	0.5405	n/a	Yes	2.687	n/a	n/a	GoodResponse	0	0.0	n/a	-2	36	ISIslide	Neutral	True
354.926	0.25	Win2	0.5526	0.001	Yes	2.874	0.026	n/a	GoodResponse	1	n/a	n/a	-1	37	Cue	Win	True
355.176	4.0	Win2	0.5526	0.0	Yes	2.874	0.0	n/a	GoodResponse	1	n/a	n/a	-1	37	Fixation	Win	True
359.175	0.27	Win2	0.5526	0.001	Yes	2.874	-0.001	1.0	GoodResponse	1	0.212	358.387	-1	37	Target	Win	True
359.387	0.3	Win2	0.5526	0.001	Yes	2.874	-0.001	1.0	GoodResponse	1	0.212	n/a	-1	37	ButtonPress	Win	True
359.442	0.43	Win2	0.5526	n/a	Yes	2.874	n/a	n/a	GoodResponse	1	n/a	n/a	-1	37	Blank	Win	True
359.875	1.45	Win2	0.5526	n/a	Yes	2.874	n/a	5.0	GoodResponse	1	0.006	358.881	-1	37	Feedback	Win	True
361.324	2.874	Win2	0.5526	n/a	Yes	2.874	n/a	n/a	GoodResponse	1	0.0	n/a	-1	37	ISIslide	Win	True
364.223	0.25	Lose2	0.5385	0.0	No	2.827	0.023	n/a	NoResponse	-1	n/a	n/a	-2	38	Cue	Loss	True
364.473	3.95	Lose2	0.5385	0.0	No	2.827	0.0	1.0	NoResponse	-1	1.483	364.956	-2	38	Fixation	Loss	True
365.956	0.3	Lose2	0.5385	0.0	No	2.827	0.0	1.0	NoResponse	-1	1.483	n/a	-2	38	ButtonPress	Loss	True
368.422	0.28	Lose2	0.5385	0.001	No	2.827	-0.001	n/a	NoResponse	-1	n/a	n/a	-2	38	Target	Loss	True
368.705	0.42	Lose2	0.5385	n/a	No	2.827	n/a	n/a	NoResponse	-1	n/a	n/a	-2	38	Blank	Loss	True
369.122	1.45	Lose2	0.5385	n/a	No	2.827	n/a	5.0	NoResponse	-1	0.025	368.147	-2	38	Feedback	Loss	True
370.571	2.827	Lose2	0.5385	n/a	No	2.827	n/a	n/a	NoResponse	-1	0.0	n/a	-2	38	ISIslide	Loss	True
373.42	0.25	Win2	0.55	0.0	Yes	2.98	0.02	n/a	GoodResponse	1	n/a	n/a	-1	39	Cue	Win	True
373.67	4.1	Win2	0.55	0.0	Yes	2.98	0.0	n/a	GoodResponse	1	n/a	n/a	-1	39	Fixation	Win	True
377.769	0.29	Win2	0.55	0.001	Yes	2.98	-0.001	1.0	GoodResponse	1	0.201	376.97	-1	39	Target	Win	True
377.97	0.3	Win2	0.55	0.001	Yes	2.98	-0.001	1.0	GoodResponse	1	0.201	n/a	-1	39	ButtonPress	Win	True
378.068	0.41	Win2	0.55	n/a	Yes	2.98	n/a	n/a	GoodResponse	1	n/a	n/a	-1	39	Blank	Win	True
378.468	1.45	Win2	0.55	n/a	Yes	2.98	n/a	5.0	GoodResponse	1	0.045	377.513	-1	39	Feedback	Win	True
379.918	2.98	Win2	0.55	n/a	Yes	2.98	n/a	n/a	GoodResponse	1	0.0	n/a	-1	39	ISIslide	Win	True
382.917	0.25	Win2	0.561	0.0	Yes	2.733	0.017	n/a	GoodResponse	1	n/a	n/a	0	40	Cue	Win	True
383.167	3.95	Win2	0.561	0.0	Yes	2.733	0.0	n/a	GoodResponse	1	n/a	n/a	0	40	Fixation	Win	True
387.115	0.3	Win2	0.561	0.002	Yes	2.733	-0.002	1.0	GoodResponse	1	0.224	386.339	0	40	Target	Win	True
387.339	0.3	Win2	0.561	0.002	Yes	2.733	-0.002	1.0	GoodResponse	1	0.224	n/a	0	40	ButtonPress	Win	True
387.415	0.4	Win2	0.561	n/a	Yes	2.733	n/a	n/a	GoodResponse	1	n/a	n/a	0	40	Blank	Win	True
387.815	1.45	Win2	0.561	n/a	Yes	2.733	n/a	5.0	GoodResponse	1	0.015	386.83	0	40	Feedback	Win	True
389.265	2.733	Win2	0.561	n/a	Yes	2.733	n/a	n/a	GoodResponse	1	0.0	n/a	0	40	ISIslide	Win	True
392.014	0.25	Win2	0.5714	0.0	Yes	2.786	0.014	n/a	GoodResponse	1	n/a	n/a	1	41	Cue	Win	True
392.264	3.9	Win2	0.5714	0.0	Yes	2.786	0.0	n/a	GoodResponse	1	n/a	n/a	1	41	Fixation	Win	True
396.162	0.31	Win2	0.5714	0.002	Yes	2.786	-0.002	1.0	GoodResponse	1	0.218	395.38	1	41	Target	Win	True
396.38	0.3	Win2	0.5714	0.002	Yes	2.786	-0.002	1.0	GoodResponse	1	0.218	n/a	1	41	ButtonPress	Win	True
396.479	0.39	Win2	0.5714	n/a	Yes	2.786	n/a	n/a	GoodResponse	1	n/a	n/a	1	41	Blank	Win	True
396.862	1.45	Win2	0.5714	n/a	Yes	2.786	n/a	5.0	GoodResponse	1	0.04	395.902	1	41	Feedback	Win	True
398.311	2.786	Win2	0.5714	n/a	Yes	2.786	n/a	n/a	GoodResponse	1	0.0	n/a	1	41	ISIslide	Win	True
401.127	0.25	Control	0.5814	0.0	Yes	2.923	0.027	n/a	GoodResponse	0	n/a	n/a	1	42	Cue	Neutral	True
401.377	3.85	Control	0.5814	0.0	Yes	2.923	0.0	n/a	GoodResponse	0	n/a	n/a	1	42	Fixation	Neutral	True
405.226	0.32	Control	0.5814	0.001	Yes	2.923	-0.001	1.0	GoodResponse	0	0.256	404.482	1	42	Target	Neutral	True
405.482	0.3	Control	0.5814	0.001	Yes	2.923	-0.001	1.0	GoodResponse	0	0.256	n/a	1	42	ButtonPress	Neutral	True
405.542	0.38	Control	0.5814	n/a	Yes	2.923	n/a	n/a	GoodResponse	0	n/a	n/a	1	42	Blank	Neutral	True
405.926	1.45	Control	0.5814	n/a	Yes	2.923	n/a	5.0	GoodResponse	0	0.007	404.933	1	42	Feedback	Neutral	True
407.375	2.923	Control	0.5814	n/a	Yes	2.923	n/a	n/a	GoodResponse	0	0.0	n/a	1	42	ISIslide	Neutral	True
410.324	0.25	Win2	0.5909	0.0	Yes	3.176	0.024	n/a	GoodResponse	1	n/a	n/a	2	43	Cue	Win	True
410.574	4.0	Win2	0.5909	0.0	Yes	3.176	0.0	n/a	GoodResponse	1	n/a	n/a	2	43	Fixation	Win	True
414.573	0.33	Win2	0.5909	0.001	Yes	3.176	-0.001	1.0	GoodResponse	1	0.214	413.787	2	43	Target	Win	True
414.787	0.3	Win2	0.5909	0.001	Yes	3.176	-0.001	1.0	GoodResponse	1	0.214	n/a	2	43	ButtonPress	Win	True
414.906	0.37	Win2	0.5909	n/a	Yes	3.176	n/a	n/a	GoodResponse	1	n/a	n/a	2	43	Blank	Win	True
415.272	1.45	Win2	0.5909	n/a	Yes	3.176	n/a	5.0	GoodResponse	1	0.021	414.293	2	43	Feedback	Win	True
416.722	3.176	Win2	0.5909	n/a	Yes	3.176	n/a	n/a	GoodResponse	1	0.0	n/a	2	43	ISIslide	Win	True
419.921	0.25	Win2	0.6	0.0	Yes	2.979	0.021	n/a	GoodResponse	1	n/a	n/a	3	44	Cue	Win	True
420.171	4.0	Win2	0.6	0.0	Yes	2.979	0.0	n/a	GoodResponse	1	n/a	n/a	3	44	Fixation	Win	True
424.169	0.34	Win2	0.6	0.002	Yes	2.979	-0.002	1.0	GoodResponse	1	0.223	423.392	3	44	Target	Win	True
424.392	0.3	Win2	0.6	0.002	Yes	2.979	-0.002	1.0	GoodResponse	1	0.223	n/a	3	44	ButtonPress	Win	True
424.519	0.36	Win2	0.6	n/a	Yes	2.979	n/a	n/a	GoodResponse	1	n/a	n/a	3	44	Blank	Win	True
424.869	1.45	Win2	0.6	n/a	Yes	2.979	n/a	5.0	GoodResponse	1	0.034	423.903	3	44	Feedback	Win	True
426.318	2.979	Win2	0.6	n/a	Yes	2.979	n/a	n/a	GoodResponse	1	0.0	n/a	3	44	ISIslide	Win	True
429.317	0.25	Control	0.6087	0.001	Yes	2.883	0.017	n/a	GoodResponse	0	n/a	n/a	3	45	Cue	Neutral	True
429.567	4.1	Control	0.6087	0.0	Yes	2.883	0.0	n/a	GoodResponse	0	n/a	n/a	3	45	Fixation	Neutral	True
433.666	0.35	Control	0.6087	0.001	Yes	2.883	-0.001	1.0	GoodResponse	0	0.243	432.909	3	45	Target	Neutral	True
433.909	0.3	Control	0.6087	0.001	Yes	2.883	-0.001	1.0	GoodResponse	0	0.243	n/a	3	45	ButtonPress	Neutral	True
434.016	0.35	Control	0.6087	n/a	Yes	2.883	n/a	n/a	GoodResponse	0	n/a	n/a	3	45	Blank	Neutral	True
434.366	1.45	Control	0.6087	n/a	Yes	2.883	n/a	5.0	GoodResponse	0	0.0	433.366	3	45	Feedback	Neutral	True
435.815	2.883	Control	0.6087	n/a	Yes	2.883	n/a	n/a	GoodResponse	0	0.0	n/a	3	45	ISIslide	Neutral	True
438.714	0.25	Lose2	0.617	0.0	Yes	3.386	0.014	n/a	GoodResponse	0	n/a	n/a	3	46	Cue	AvoidedLoss	True
438.964	4.0	Lose2	0.617	0.0	Yes	3.386	0.0	n/a	GoodResponse	0	n/a	n/a	3	46	Fixation	AvoidedLoss	True
442.963	0.36	Lose2	0.617	0.001	Yes	3.386	-0.001	1.0	GoodResponse	0	0.201	442.164	3	46	Target	AvoidedLoss	True
443.164	0.3	Lose2	0.617	0.001	Yes	3.386	-0.001	1.0	GoodResponse	0	0.201	n/a	3	46	ButtonPress	AvoidedLoss	True
443.329	0.34	Lose2	0.617	n/a	Yes	3.386	n/a	n/a	GoodResponse	0	n/a	n/a	3	46	Blank	AvoidedLoss	True
443.662	1.45	Lose2	0.617	n/a	Yes	3.386	n/a	5.0	GoodResponse	0	0.021	442.683	3	46	Feedback	AvoidedLoss	True
445.112	3.386	Lose2	0.617	n/a	Yes	3.386	n/a	n/a	GoodResponse	0	0.0	n/a	3	46	ISIslide	AvoidedLoss	True
448.527	0.25	Lose2	0.625	0.001	Yes	2.673	0.027	n/a	GoodResponse	0	n/a	n/a	3	47	Cue	AvoidedLoss	True
448.777	4.0	Lose2	0.625	0.0	Yes	2.673	0.0	n/a	GoodResponse	0	n/a	n/a	3	47	Fixation	AvoidedLoss	True
452.776	0.37	Lose2	0.625	0.001	Yes	2.673	-0.001	1.0	GoodResponse	0	0.229	452.005	3	47	Target	AvoidedLoss	True
453.005	0.3	Lose2	0.625	0.001	Yes	2.673	-0.001	1.0	GoodResponse	0	0.229	n/a	3	47	ButtonPress	AvoidedLoss	True
453.143	0.33	Lose2	0.625	n/a	Yes	2.673	n/a	n/a	GoodResponse	0	n/a	n/a	3	47	Blank	AvoidedLoss	True
453.476	1.45	Lose2	0.625	n/a	Yes	2.673	n/a	5.0	GoodResponse	0	0.012	452.488	3	47	Feedback	AvoidedLoss	True
454.925	2.673	Lose2	0.625	n/a	Yes	2.673	n/a	n/a	GoodResponse	0	0.0	n/a	3	47	ISIslide	AvoidedLoss	True
457.624	0.25	Lose2	0.6327	0.0	Yes	3.026	0.024	n/a	GoodResponse	0	n/a	n/a	3	48	Cue	AvoidedLoss	True
457.874	3.95	Lose2	0.6327	0.0	Yes	3.026	0.0	n/a	GoodResponse	0	n/a	n/a	3	48	Fixation	AvoidedLoss	True
461.823	0.38	Lose2	0.6327	0.001	Yes	3.026	-0.001	1.0	GoodResponse	0	0.221	461.044	3	48	Target	AvoidedLoss	True
462.044	0.3	Lose2	0.6327	0.001	Yes	3.026	-0.001	1.0	GoodResponse	0	0.221	n/a	3	48	ButtonPress	AvoidedLoss	True
462.206	0.32	Lose2	0.6327	n/a	Yes	3.026	n/a	n/a	GoodResponse	0	n/a	n/a	3	48	Blank	AvoidedLoss	True
462.523	1.45	Lose2	0.6327	n/a	Yes	3.026	n/a	5.0	GoodResponse	0	0.038	461.561	3	48	Feedback	AvoidedLoss	True
463.972	3.026	Lose2	0.6327	n/a	Yes	3.026	n/a	n/a	GoodResponse	0	0.0	n/a	3	48	ISIslide	AvoidedLoss	True
467.021	0.25	Control	0.64	0.0	Yes	2.879	0.021	n/a	GoodResponse	0	n/a	n/a	3	49	Cue	Neutral	True
467.271	4.0	Control	0.64	0.0	Yes	2.879	0.0	n/a	GoodResponse	0	n/a	n/a	3	49	Fixation	Neutral	True
471.27	0.39	Control	0.64	0.001	Yes	2.879	-0.001	1.0	GoodResponse	0	0.279	470.549	3	49	Target	Neutral	True
471.549	0.3	Control	0.64	0.001	Yes	2.879	-0.001	1.0	GoodResponse	0	0.279	n/a	3	49	ButtonPress	Neutral	True
471.669	0.31	Control	0.64	n/a	Yes	2.879	n/a	n/a	GoodResponse	0	n/a	n/a	3	49	Blank	Neutral	True
471.969	1.45	Control	0.64	n/a	Yes	2.879	n/a	5.0	GoodResponse	0	0.007	470.976	3	49	Feedback	Neutral	True
473.419	2.879	Control	0.64	n/a	Yes	2.879	n/a	n/a	GoodResponse	0	0.0	n/a	3	49	ISIslide	Neutral	True
476.318	0.25	Control	0.6470999999999999	0.0	Yes	2.782	0.018	n/a	GoodResponse	0	n/a	n/a	3	50	Cue	Neutral	True
476.568	4.0	Control	0.6470999999999999	0.0	Yes	2.782	0.0	n/a	GoodResponse	0	n/a	n/a	3	50	Fixation	Neutral	True
480.566	0.4	Control	0.6470999999999999	0.002	Yes	2.782	-0.002	1.0	GoodResponse	0	0.243	479.809	3	50	Target	Neutral	True
480.809	0.3	Control	0.6470999999999999	0.002	Yes	2.782	-0.002	1.0	GoodResponse	0	0.243	n/a	3	50	ButtonPress	Neutral	True
480.966	0.3	Control	0.6470999999999999	n/a	Yes	2.782	n/a	n/a	GoodResponse	0	n/a	n/a	3	50	Blank	Neutral	True
481.266	1.45	Control	0.6470999999999999	n/a	Yes	2.782	n/a	5.0	GoodResponse	0	0.027	480.293	3	50	Feedback	Neutral	True
482.716	2.782	Control	0.6470999999999999	n/a	Yes	2.782	n/a	n/a	GoodResponse	0	0.0	n/a	3	50	ISIslide	Neutral	True
485.515	0.25	Control	0.6537999999999999	0.0	Yes	2.735	0.015	n/a	GoodResponse	0	n/a	n/a	3	51	Cue	Neutral	True
485.765	3.95	Control	0.6537999999999999	0.0	Yes	2.735	0.0	n/a	GoodResponse	0	n/a	n/a	3	51	Fixation	Neutral	True
489.713	0.41	Control	0.6537999999999999	0.002	Yes	2.735	-0.002	1.0	GoodResponse	0	0.331	489.044	3	51	Target	Neutral	True
490.044	0.3	Control	0.6537999999999999	0.002	Yes	2.735	-0.002	1.0	GoodResponse	0	0.331	n/a	3	51	ButtonPress	Neutral	True
490.13	0.29	Control	0.6537999999999999	n/a	Yes	2.735	n/a	n/a	GoodResponse	0	n/a	n/a	3	51	Blank	Neutral	True
490.413	1.45	Control	0.6537999999999999	n/a	Yes	2.735	n/a	5.0	GoodResponse	0	0.002	489.415	3	51	Feedback	Neutral	True
491.862	2.735	Control	0.6537999999999999	n/a	Yes	2.735	n/a	n/a	GoodResponse	0	0.0	n/a	3	51	ISIslide	Neutral	True
494.628	0.25	Control	0.6604000000000001	0.0	Yes	2.622	0.028	n/a	GoodResponse	0	n/a	n/a	3	52	Cue	Neutral	True
494.878	4.05	Control	0.6604000000000001	0.0	Yes	2.622	0.0	n/a	GoodResponse	0	n/a	n/a	3	52	Fixation	Neutral	True
498.927	0.42	Control	0.6604000000000001	0.001	Yes	2.622	-0.001	1.0	GoodResponse	0	0.302	498.229	3	52	Target	Neutral	True
499.229	0.3	Control	0.6604000000000001	0.001	Yes	2.622	-0.001	1.0	GoodResponse	0	0.302	n/a	3	52	ButtonPress	Neutral	True
499.36	0.28	Control	0.6604000000000001	n/a	Yes	2.622	n/a	n/a	GoodResponse	0	n/a	n/a	3	52	Blank	Neutral	True
499.626	1.45	Control	0.6604000000000001	n/a	Yes	2.622	n/a	5.0	GoodResponse	0	0.008	498.634	3	52	Feedback	Neutral	True
501.076	2.622	Control	0.6604000000000001	n/a	Yes	2.622	n/a	n/a	GoodResponse	0	0.0	n/a	3	52	ISIslide	Neutral	True
503.725	0.25	Win2	0.6667000000000001	0.0	Yes	2.925	0.025	n/a	GoodResponse	1	n/a	n/a	4	53	Cue	Win	True
503.975	4.05	Win2	0.6667000000000001	0.0	Yes	2.925	0.0	n/a	GoodResponse	1	n/a	n/a	4	53	Fixation	Win	True
508.024	0.42	Win2	0.6667000000000001	0.001	Yes	2.925	-0.001	1.0	GoodResponse	1	0.209	507.233	4	53	Target	Win	True
508.233	0.3	Win2	0.6667000000000001	0.001	Yes	2.925	-0.001	1.0	GoodResponse	1	0.209	n/a	4	53	ButtonPress	Win	True
508.457	0.28	Win2	0.6667000000000001	n/a	Yes	2.925	n/a	n/a	GoodResponse	1	n/a	n/a	4	53	Blank	Win	True
508.723	1.45	Win2	0.6667000000000001	n/a	Yes	2.925	n/a	5.0	GoodResponse	1	0.033	507.756	4	53	Feedback	Win	True
510.173	2.925	Win2	0.6667000000000001	n/a	Yes	2.925	n/a	n/a	GoodResponse	1	0.0	n/a	4	53	ISIslide	Win	True
513.122	0.25	Win2	0.6727	0.0	Yes	2.728	0.022	n/a	GoodResponse	1	n/a	n/a	5	54	Cue	Win	True
513.372	3.95	Win2	0.6727	0.0	Yes	2.728	0.0	n/a	GoodResponse	1	n/a	n/a	5	54	Fixation	Win	True
517.32	0.41	Win2	0.6727	0.002	Yes	2.728	-0.002	1.0	GoodResponse	1	0.256	516.576	5	54	Target	Win	True
517.576	0.3	Win2	0.6727	0.002	Yes	2.728	-0.002	1.0	GoodResponse	1	0.256	n/a	5	54	ButtonPress	Win	True
517.737	0.29	Win2	0.6727	n/a	Yes	2.728	n/a	n/a	GoodResponse	1	n/a	n/a	5	54	Blank	Win	True
518.02	1.45	Win2	0.6727	n/a	Yes	2.728	n/a	5.0	GoodResponse	1	0.007	517.027	5	54	Feedback	Win	True
519.47	2.728	Win2	0.6727	n/a	Yes	2.728	n/a	n/a	GoodResponse	1	0.0	n/a	5	54	ISIslide	Win	True
522.219	0.25	Control	0.6786	0.0	Yes	3.031	0.019	n/a	GoodResponse	0	n/a	n/a	5	55	Cue	Neutral	True
522.469	3.95	Control	0.6786	0.0	Yes	3.031	0.0	n/a	GoodResponse	0	n/a	n/a	5	55	Fixation	Neutral	True
526.417	0.4	Control	0.6786	0.002	Yes	3.031	-0.002	1.0	GoodResponse	0	0.296	525.713	5	55	Target	Neutral	True
526.713	0.3	Control	0.6786	0.002	Yes	3.031	-0.002	1.0	GoodResponse	0	0.296	n/a	5	55	ButtonPress	Neutral	True
526.817	0.3	Control	0.6786	n/a	Yes	3.031	n/a	n/a	GoodResponse	0	n/a	n/a	5	55	Blank	Neutral	True
527.117	1.45	Control	0.6786	n/a	Yes	3.031	n/a	5.0	GoodResponse	0	0.029	526.146	5	55	Feedback	Neutral	True
528.566	3.031	Control	0.6786	n/a	Yes	3.031	n/a	n/a	GoodResponse	0	0.0	n/a	5	55	ISIslide	Neutral	True
531.615	0.25	Control	0.6842	0.0	Yes	2.835	0.015	n/a	GoodResponse	0	n/a	n/a	5	56	Cue	Neutral	True
531.865	3.95	Control	0.6842	0.0	Yes	2.835	0.0	n/a	GoodResponse	0	n/a	n/a	5	56	Fixation	Neutral	True
535.814	0.39	Control	0.6842	0.001	Yes	2.835	-0.001	1.0	GoodResponse	0	0.273	535.087	5	56	Target	Neutral	True
536.087	0.3	Control	0.6842	0.001	Yes	2.835	-0.001	1.0	GoodResponse	0	0.273	n/a	5	56	ButtonPress	Neutral	True
536.214	0.31	Control	0.6842	n/a	Yes	2.835	n/a	n/a	GoodResponse	0	n/a	n/a	5	56	Blank	Neutral	True
536.514	1.45	Control	0.6842	n/a	Yes	2.835	n/a	5.0	GoodResponse	0	0.047	535.561	5	56	Feedback	Neutral	True
537.963	2.835	Control	0.6842	n/a	Yes	2.835	n/a	n/a	GoodResponse	0	0.0	n/a	5	56	ISIslide	Neutral	True
540.829	0.25	Control	0.6724	0.0	No	3.471	0.029	n/a	NoResponse	0	n/a	n/a	5	57	Cue	Neutral	False
541.079	4.0	Control	0.6724	0.0	No	3.471	0.0	n/a	NoResponse	0	n/a	n/a	5	57	Fixation	Neutral	False
545.077	0.38	Control	0.6724	0.002	No	3.471	-0.002	n/a	NoResponse	0	n/a	n/a	5	57	Target	Neutral	False
545.461	0.32	Control	0.6724	n/a	No	3.471	n/a	n/a	NoResponse	0	n/a	n/a	5	57	Blank	Neutral	False
545.777	1.45	Control	0.6724	n/a	No	3.471	n/a	5.0	NoResponse	0	0.007	544.784	5	57	Feedback	Neutral	False
547.227	3.471	Control	0.6724	n/a	No	3.471	n/a	n/a	NoResponse	0	0.0	n/a	5	57	ISIslide	Neutral	False
550.725	0.25	Win2	0.6609999999999999	0.001	No	2.725	0.025	n/a	NoResponse	0	n/a	n/a	5	58	Cue	MissedWin	True
550.975	4.05	Win2	0.6609999999999999	0.0	No	2.725	0.0	1.0	NoResponse	0	3.986	553.961	5	58	Fixation	MissedWin	True
554.961	0.3	Win2	0.6609999999999999	0.0	No	2.725	0.0	1.0	NoResponse	0	3.986	n/a	5	58	ButtonPress	MissedWin	True
555.024	0.37	Win2	0.6609999999999999	0.001	No	2.725	-0.001	n/a	NoResponse	0	n/a	n/a	5	58	Target	MissedWin	True
555.39	0.33	Win2	0.6609999999999999	n/a	No	2.725	n/a	n/a	NoResponse	0	n/a	n/a	5	58	Blank	MissedWin	True
555.724	1.45	Win2	0.6609999999999999	n/a	No	2.725	n/a	5.0	NoResponse	0	0.008	554.732	5	58	Feedback	MissedWin	True
557.173	2.725	Win2	0.6609999999999999	n/a	No	2.725	n/a	n/a	NoResponse	0	0.0	n/a	5	58	ISIslide	MissedWin	True
559.922	0.25	Lose2	0.6667000000000001	0.0	Yes	2.678	0.022	n/a	GoodResponse	0	n/a	n/a	5	59	Cue	AvoidedLoss	True
560.172	4.0	Lose2	0.6667000000000001	0.0	Yes	2.678	0.0	n/a	GoodResponse	0	n/a	n/a	5	59	Fixation	AvoidedLoss	True
564.171	0.37	Lose2	0.6667000000000001	0.001	Yes	2.678	-0.001	1.0	GoodResponse	0	0.25	563.421	5	59	Target	AvoidedLoss	True
564.421	0.3	Lose2	0.6667000000000001	0.001	Yes	2.678	-0.001	1.0	GoodResponse	0	0.25	n/a	5	59	ButtonPress	AvoidedLoss	True
564.554	0.33	Lose2	0.6667000000000001	n/a	Yes	2.678	n/a	n/a	GoodResponse	0	n/a	n/a	5	59	Blank	AvoidedLoss	True
564.871	1.45	Lose2	0.6667000000000001	n/a	Yes	2.678	n/a	5.0	GoodResponse	0	0.031	563.902	5	59	Feedback	AvoidedLoss	True
566.32	2.678	Lose2	0.6667000000000001	n/a	Yes	2.678	n/a	n/a	GoodResponse	0	0.0	n/a	5	59	ISIslide	AvoidedLoss	True
569.019	0.25	Control	0.6720999999999999	0.0	Yes	2.681	0.019	n/a	GoodResponse	0	n/a	n/a	5	60	Cue	Neutral	True
569.269	4.0	Control	0.6720999999999999	0.0	Yes	2.681	0.0	n/a	GoodResponse	0	n/a	n/a	5	60	Fixation	Neutral	True
573.268	0.36	Control	0.6720999999999999	0.001	Yes	2.681	-0.001	1.0	GoodResponse	0	0.226	572.494	5	60	Target	Neutral	True
573.494	0.3	Control	0.6720999999999999	0.001	Yes	2.681	-0.001	1.0	GoodResponse	0	0.226	n/a	5	60	ButtonPress	Neutral	True
573.634	0.34	Control	0.6720999999999999	n/a	Yes	2.681	n/a	n/a	GoodResponse	0	n/a	n/a	5	60	Blank	Neutral	True
573.967	1.45	Control	0.6720999999999999	n/a	Yes	2.681	n/a	5.0	GoodResponse	0	0.009	572.976	5	60	Feedback	Neutral	True
575.417	2.681	Control	0.6720999999999999	n/a	Yes	2.681	n/a	n/a	GoodResponse	0	0.0	n/a	5	60	ISIslide	Neutral	True
578.116	0.25	Lose2	0.6774	0.0	Yes	2.984	0.016	n/a	GoodResponse	0	n/a	n/a	5	61	Cue	AvoidedLoss	True
578.366	4.0	Lose2	0.6774	0.0	Yes	2.984	0.0	n/a	GoodResponse	0	n/a	n/a	5	61	Fixation	AvoidedLoss	True
582.364	0.35	Lose2	0.6774	0.002	Yes	2.984	-0.002	1.0	GoodResponse	0	0.206	581.57	5	61	Target	AvoidedLoss	True
582.57	0.3	Lose2	0.6774	0.002	Yes	2.984	-0.002	1.0	GoodResponse	0	0.206	n/a	5	61	ButtonPress	AvoidedLoss	True
582.714	0.35	Lose2	0.6774	n/a	Yes	2.984	n/a	n/a	GoodResponse	0	n/a	n/a	5	61	Blank	AvoidedLoss	True
583.064	1.45	Lose2	0.6774	n/a	Yes	2.984	n/a	5.0	GoodResponse	0	0.033	582.097	5	61	Feedback	AvoidedLoss	True
584.514	2.984	Lose2	0.6774	n/a	Yes	2.984	n/a	n/a	GoodResponse	0	0.0	n/a	5	61	ISIslide	AvoidedLoss	True
587.529	0.25	Lose2	0.6825	0.0	Yes	2.871	0.029	n/a	GoodResponse	0	n/a	n/a	5	62	Cue	AvoidedLoss	True
587.779	3.9	Lose2	0.6825	0.0	Yes	2.871	0.0	n/a	GoodResponse	0	n/a	n/a	5	62	Fixation	AvoidedLoss	True
591.678	0.34	Lose2	0.6825	0.001	Yes	2.871	-0.001	1.0	GoodResponse	0	0.302	590.98	5	62	Target	AvoidedLoss	True
591.98	0.3	Lose2	0.6825	0.001	Yes	2.871	-0.001	1.0	GoodResponse	0	0.302	n/a	5	62	ButtonPress	AvoidedLoss	True
592.028	0.36	Lose2	0.6825	n/a	Yes	2.871	n/a	n/a	GoodResponse	0	n/a	n/a	5	62	Blank	AvoidedLoss	True
592.378	1.45	Lose2	0.6825	n/a	Yes	2.871	n/a	5.0	GoodResponse	0	0.036	591.414	5	62	Feedback	AvoidedLoss	True
593.827	2.871	Lose2	0.6825	n/a	Yes	2.871	n/a	n/a	GoodResponse	0	0.0	n/a	5	62	ISIslide	AvoidedLoss	True
596.726	0.25	Lose2	0.6875	0.0	Yes	2.624	0.026	n/a	GoodResponse	0	n/a	n/a	5	63	Cue	AvoidedLoss	True
596.976	4.05	Lose2	0.6875	0.0	Yes	2.624	0.0	n/a	GoodResponse	0	n/a	n/a	5	63	Fixation	AvoidedLoss	True
601.025	0.33	Lose2	0.6875	0.001	Yes	2.624	-0.001	1.0	GoodResponse	0	0.295	600.32	5	63	Target	AvoidedLoss	True
601.32	0.3	Lose2	0.6875	0.001	Yes	2.624	-0.001	1.0	GoodResponse	0	0.295	n/a	5	63	ButtonPress	AvoidedLoss	True
601.358	0.37	Lose2	0.6875	n/a	Yes	2.624	n/a	n/a	GoodResponse	0	n/a	n/a	5	63	Blank	AvoidedLoss	True
601.724	1.45	Lose2	0.6875	n/a	Yes	2.624	n/a	5.0	GoodResponse	0	0.007	600.731	5	63	Feedback	AvoidedLoss	True
603.174	2.624	Lose2	0.6875	n/a	Yes	2.624	n/a	n/a	GoodResponse	0	0.0	n/a	5	63	ISIslide	AvoidedLoss	True
605.823	0.25	Win2	0.6923	0.0	Yes	3.127	0.023	n/a	GoodResponse	1	n/a	n/a	6	64	Cue	Win	True
606.073	4.15	Win2	0.6923	0.0	Yes	3.127	0.0	n/a	GoodResponse	1	n/a	n/a	6	64	Fixation	Win	True
610.222	0.32	Win2	0.6923	0.001	Yes	3.127	-0.001	1.0	GoodResponse	1	0.174	609.396	6	64	Target	Win	True
610.396	0.3	Win2	0.6923	0.001	Yes	3.127	-0.001	1.0	GoodResponse	1	0.174	n/a	6	64	ButtonPress	Win	True
610.555	0.38	Win2	0.6923	n/a	Yes	3.127	n/a	n/a	GoodResponse	1	n/a	n/a	6	64	Blank	Win	True
610.921	1.45	Win2	0.6923	n/a	Yes	3.127	n/a	5.0	GoodResponse	1	0.03	609.951	6	64	Feedback	Win	True
612.371	3.127	Win2	0.6923	n/a	Yes	3.127	n/a	n/a	GoodResponse	1	0.0	n/a	6	64	ISIslide	Win	True
615.52	0.25	Control	0.6970000000000001	0.0	Yes	2.78	0.02	n/a	GoodResponse	0	n/a	n/a	6	65	Cue	Neutral	True
615.77	4.0	Control	0.6970000000000001	0.0	Yes	2.78	0.0	n/a	GoodResponse	0	n/a	n/a	6	65	Fixation	Neutral	True
619.768	0.31	Control	0.6970000000000001	0.002	Yes	2.78	-0.002	1.0	GoodResponse	0	0.263	619.031	6	65	Target	Neutral	True
620.031	0.3	Control	0.6970000000000001	0.002	Yes	2.78	-0.002	1.0	GoodResponse	0	0.263	n/a	6	65	ButtonPress	Neutral	True
620.085	0.39	Control	0.6970000000000001	n/a	Yes	2.78	n/a	n/a	GoodResponse	0	n/a	n/a	6	65	Blank	Neutral	True
620.468	1.45	Control	0.6970000000000001	n/a	Yes	2.78	n/a	5.0	GoodResponse	0	0.044	619.512	6	65	Feedback	Neutral	True
621.917	2.78	Control	0.6970000000000001	n/a	Yes	2.78	n/a	n/a	GoodResponse	0	0.0	n/a	6	65	ISIslide	Neutral	True
624.717	0.25	Win2	0.6866	0.0	No	2.783	0.017	n/a	NoResponse	0	n/a	n/a	6	66	Cue	MissedWin	True
624.966	3.9	Win2	0.6866	0.001	No	2.783	-0.001	n/a	NoResponse	0	n/a	n/a	6	66	Fixation	MissedWin	True
628.865	0.3	Win2	0.6866	0.002	No	2.783	-0.002	1.0	NoResponse	0	0.332	628.197	6	66	Target	MissedWin	True
629.165	0.4	Win2	0.6866	n/a	No	2.783	n/a	n/a	NoResponse	0	n/a	n/a	6	66	Blank	MissedWin	True
629.197	0.3	Win2	0.6866	0.002	No	2.783	-0.002	1.0	NoResponse	0	0.332	n/a	6	66	ButtonPress	MissedWin	True
629.565	1.45	Win2	0.6866	n/a	No	2.783	n/a	5.0	NoResponse	0	0.02	628.585	6	66	Feedback	MissedWin	True
631.014	2.783	Win2	0.6866	n/a	No	2.783	n/a	n/a	NoResponse	0	0.0	n/a	6	66	ISIslide	MissedWin	True
633.813	0.25	Control	0.6912	0.0	Yes	2.737	0.013	n/a	GoodResponse	0	n/a	n/a	6	67	Cue	Neutral	True
634.063	3.95	Control	0.6912	0.0	Yes	2.737	0.0	n/a	GoodResponse	0	n/a	n/a	6	67	Fixation	Neutral	True
638.012	0.29	Control	0.6912	0.001	Yes	2.737	-0.001	1.0	GoodResponse	0	0.203	637.215	6	67	Target	Neutral	True
638.215	0.3	Control	0.6912	0.001	Yes	2.737	-0.001	1.0	GoodResponse	0	0.203	n/a	6	67	ButtonPress	Neutral	True
638.312	0.41	Control	0.6912	n/a	Yes	2.737	n/a	n/a	GoodResponse	0	n/a	n/a	6	67	Blank	Neutral	True
638.712	1.45	Control	0.6912	n/a	Yes	2.737	n/a	5.0	GoodResponse	0	0.043	637.755	6	67	Feedback	Neutral	True
640.161	2.737	Control	0.6912	n/a	Yes	2.737	n/a	n/a	GoodResponse	0	0.0	n/a	6	67	ISIslide	Neutral	True
642.927	0.25	Win2	0.6957	0.0	Yes	3.073	0.027	n/a	GoodResponse	1	n/a	n/a	7	68	Cue	Win	True
643.177	4.0	Win2	0.6957	0.0	Yes	3.073	0.0	n/a	GoodResponse	1	n/a	n/a	7	68	Fixation	Win	True
647.175	0.28	Win2	0.6957	0.002	Yes	3.073	-0.002	1.0	GoodResponse	1	0.217	646.392	7	68	Target	Win	True
647.392	0.3	Win2	0.6957	0.002	Yes	3.073	-0.002	1.0	GoodResponse	1	0.217	n/a	7	68	ButtonPress	Win	True
647.459	0.42	Win2	0.6957	n/a	Yes	3.073	n/a	n/a	GoodResponse	1	n/a	n/a	7	68	Blank	Win	True
647.875	1.45	Win2	0.6957	n/a	Yes	3.073	n/a	5.0	GoodResponse	1	0.007	646.882	7	68	Feedback	Win	True
649.325	3.073	Win2	0.6957	n/a	Yes	3.073	n/a	n/a	GoodResponse	1	0.0	n/a	7	68	ISIslide	Win	True
652.424	0.25	Win2	0.7	0.0	Yes	3.226	0.024	n/a	GoodResponse	1	n/a	n/a	8	69	Cue	Win	True
652.674	3.95	Win2	0.7	0.0	Yes	3.226	0.0	n/a	GoodResponse	1	n/a	n/a	8	69	Fixation	Win	True
656.622	0.27	Win2	0.7	0.002	Yes	3.226	-0.002	1.0	GoodResponse	1	0.245	655.867	8	69	Target	Win	True
656.867	0.3	Win2	0.7	0.002	Yes	3.226	-0.002	1.0	GoodResponse	1	0.245	n/a	8	69	ButtonPress	Win	True
656.905	0.43	Win2	0.7	n/a	Yes	3.226	n/a	n/a	GoodResponse	1	n/a	n/a	8	69	Blank	Win	True
657.322	1.45	Win2	0.7	n/a	Yes	3.226	n/a	5.0	GoodResponse	1	0.019	656.341	8	69	Feedback	Win	True
658.771	3.226	Win2	0.7	n/a	Yes	3.226	n/a	n/a	GoodResponse	1	0.0	n/a	8	69	ISIslide	Win	True
662.02	0.25	Lose2	0.7042	0.0	Yes	3.03	0.02	n/a	GoodResponse	0	n/a	n/a	8	70	Cue	AvoidedLoss	True
662.27	4.05	Lose2	0.7042	0.0	Yes	3.03	0.0	n/a	GoodResponse	0	n/a	n/a	8	70	Fixation	AvoidedLoss	True
666.319	0.26	Lose2	0.7042	0.001	Yes	3.03	-0.001	1.0	GoodResponse	0	0.217	665.536	8	70	Target	AvoidedLoss	True
666.536	0.3	Lose2	0.7042	0.001	Yes	3.03	-0.001	1.0	GoodResponse	0	0.217	n/a	8	70	ButtonPress	AvoidedLoss	True
666.585	0.44	Lose2	0.7042	n/a	Yes	3.03	n/a	n/a	GoodResponse	0	n/a	n/a	8	70	Blank	AvoidedLoss	True
667.019	1.45	Lose2	0.7042	n/a	Yes	3.03	n/a	5.0	GoodResponse	0	0.029	666.048	8	70	Feedback	AvoidedLoss	True
668.468	3.03	Lose2	0.7042	n/a	Yes	3.03	n/a	n/a	GoodResponse	0	0.0	n/a	8	70	ISIslide	AvoidedLoss	True
671.517	0.25	Win2	0.7082999999999999	0.0	Yes	2.733	0.017	n/a	GoodResponse	1	n/a	n/a	9	71	Cue	Win	True
671.767	4.05	Win2	0.7082999999999999	0.0	Yes	2.733	0.0	n/a	GoodResponse	1	n/a	n/a	9	71	Fixation	Win	True
675.816	0.25	Win2	0.7082999999999999	0.001	Yes	2.733	-0.001	1.0	GoodResponse	1	0.214	675.03	9	71	Target	Win	True
676.03	0.3	Win2	0.7082999999999999	0.001	Yes	2.733	-0.001	1.0	GoodResponse	1	0.214	n/a	9	71	ButtonPress	Win	True
676.065	0.45	Win2	0.7082999999999999	n/a	Yes	2.733	n/a	n/a	GoodResponse	1	n/a	n/a	9	71	Blank	Win	True
676.515	1.45	Win2	0.7082999999999999	n/a	Yes	2.733	n/a	5.0	GoodResponse	1	0.045	675.56	9	71	Feedback	Win	True
677.965	2.733	Win2	0.7082999999999999	n/a	Yes	2.733	n/a	n/a	GoodResponse	1	0.0	n/a	9	71	ISIslide	Win	True
680.714	0.25	Win2	0.6986	0.0	No	2.786	0.014	n/a	LatePress	0	n/a	n/a	9	72	Cue	MissedWin	True
680.964	4.1	Win2	0.6986	0.0	No	2.786	0.0	n/a	LatePress	0	n/a	n/a	9	72	Fixation	MissedWin	True
685.062	0.24	Win2	0.6986	0.002	No	2.786	-0.002	1.0	LatePress	0	0.247	684.309	9	72	Target	MissedWin	True
685.309	0.3	Win2	0.6986	0.002	No	2.786	-0.002	1.0	LatePress	0	0.247	n/a	9	72	ButtonPress	MissedWin	True
685.312	0.46	Win2	0.6986	n/a	No	2.786	n/a	n/a	LatePress	0	n/a	n/a	9	72	Blank	MissedWin	True
685.762	1.45	Win2	0.6986	n/a	No	2.786	n/a	5.0	LatePress	0	0.018	684.78	9	72	Feedback	MissedWin	True
687.212	2.786	Win2	0.6986	n/a	No	2.786	n/a	n/a	LatePress	0	0.0	n/a	9	72	ISIslide	MissedWin	True
690.027	0.25	Win2	0.7027	0.0	Yes	2.673	0.027	n/a	GoodResponse	1	n/a	n/a	10	73	Cue	Win	True
690.277	4.0	Win2	0.7027	0.0	Yes	2.673	0.0	n/a	GoodResponse	1	n/a	n/a	10	73	Fixation	Win	True
694.276	0.23	Win2	0.7027	0.001	Yes	2.673	-0.001	1.0	GoodResponse	1	0.2	693.476	10	73	Target	Win	True
694.476	0.3	Win2	0.7027	0.001	Yes	2.673	-0.001	1.0	GoodResponse	1	0.2	n/a	10	73	ButtonPress	Win	True
694.509	0.47	Win2	0.7027	n/a	Yes	2.673	n/a	n/a	GoodResponse	1	n/a	n/a	10	73	Blank	Win	True
694.976	1.45	Win2	0.7027	n/a	Yes	2.673	n/a	5.0	GoodResponse	1	0.024	694.0	10	73	Feedback	Win	True
696.425	2.673	Win2	0.7027	n/a	Yes	2.673	n/a	n/a	GoodResponse	1	0.0	n/a	10	73	ISIslide	Win	True
699.124	0.25	Lose2	0.7067	0.0	Yes	2.626	0.024	n/a	GoodResponse	0	n/a	n/a	10	74	Cue	AvoidedLoss	True
699.374	4.05	Lose2	0.7067	0.0	Yes	2.626	0.0	n/a	GoodResponse	0	n/a	n/a	10	74	Fixation	AvoidedLoss	True
703.423	0.22	Lose2	0.7067	0.001	Yes	2.626	-0.001	1.0	GoodResponse	0	0.184	702.607	10	74	Target	AvoidedLoss	True
703.607	0.3	Lose2	0.7067	0.001	Yes	2.626	-0.001	1.0	GoodResponse	0	0.184	n/a	10	74	ButtonPress	AvoidedLoss	True
703.656	0.48	Lose2	0.7067	n/a	Yes	2.626	n/a	n/a	GoodResponse	0	n/a	n/a	10	74	Blank	AvoidedLoss	True
704.122	1.45	Lose2	0.7067	n/a	Yes	2.626	n/a	5.0	GoodResponse	0	0.048	703.17	10	74	Feedback	AvoidedLoss	True
705.572	2.626	Lose2	0.7067	n/a	Yes	2.626	n/a	n/a	GoodResponse	0	0.0	n/a	10	74	ISIslide	AvoidedLoss	True
708.221	0.25	Lose2	0.6973999999999999	0.0	No	2.929	0.021	n/a	NoResponse	-1	n/a	n/a	9	75	Cue	Loss	True
708.471	3.95	Lose2	0.6973999999999999	0.0	No	2.929	0.0	n/a	NoResponse	-1	n/a	n/a	9	75	Fixation	Loss	True
712.42	0.21	Lose2	0.6973999999999999	0.001	No	2.929	-0.001	1.0	NoResponse	-1	0.224	711.644	9	75	Target	Loss	True
712.636	0.49	Lose2	0.6973999999999999	n/a	No	2.929	n/a	n/a	NoResponse	-1	n/a	n/a	9	75	Blank	Loss	True
712.644	0.3	Lose2	0.6973999999999999	0.001	No	2.929	-0.001	1.0	NoResponse	-1	0.224	n/a	9	75	ButtonPress	Loss	True
713.119	1.45	Lose2	0.6973999999999999	n/a	No	2.929	n/a	5.0	NoResponse	-1	0.026	712.145	9	75	Feedback	Loss	True
714.569	2.929	Lose2	0.6973999999999999	n/a	No	2.929	n/a	n/a	NoResponse	-1	0.0	n/a	9	75	ISIslide	Loss	True
717.518	0.25	Control	0.6883	0.0	No	3.232	0.018	n/a	NoResponse	0	n/a	n/a	9	76	Cue	Neutral	False
717.768	4.05	Control	0.6883	0.0	No	3.232	0.0	n/a	NoResponse	0	n/a	n/a	9	76	Fixation	Neutral	False
721.816	0.2	Control	0.6883	0.002	No	3.232	-0.002	n/a	NoResponse	0	n/a	n/a	9	76	Target	Neutral	False
722.016	0.5	Control	0.6883	n/a	No	3.232	n/a	n/a	NoResponse	0	n/a	n/a	9	76	Blank	Neutral	False
722.516	1.45	Control	0.6883	n/a	No	3.232	n/a	5.0	NoResponse	0	0.044	721.56	9	76	Feedback	Neutral	False
723.966	3.232	Control	0.6883	n/a	No	3.232	n/a	n/a	NoResponse	0	0.0	n/a	9	76	ISIslide	Neutral	False
727.214	0.25	Lose2	0.6795	0.001	No	2.586	0.014	n/a	LatePress	-1	n/a	n/a	8	77	Cue	Loss	True
727.464	3.95	Lose2	0.6795	0.0	No	2.586	0.0	n/a	LatePress	-1	n/a	n/a	8	77	Fixation	Loss	True
731.413	0.19	Lose2	0.6795	0.001	No	2.586	-0.001	1.0	LatePress	-1	0.198	730.611	8	77	Target	Loss	True
731.611	0.3	Lose2	0.6795	0.001	No	2.586	-0.001	1.0	LatePress	-1	0.198	n/a	8	77	ButtonPress	Loss	True
731.613	0.51	Lose2	0.6795	n/a	No	2.586	n/a	n/a	LatePress	-1	n/a	n/a	8	77	Blank	Loss	True
732.113	1.45	Lose2	0.6795	n/a	No	2.586	n/a	5.0	LatePress	-1	0.008	731.121	8	77	Feedback	Loss	True
733.562	2.586	Lose2	0.6795	n/a	No	2.586	n/a	n/a	LatePress	-1	0.0	n/a	8	77	ISIslide	Loss	True
