onset	duration	cue_type	current_mean_accuracy	duration_error	is_hit	isi_adjusted	onset_delay	response	response_type	reward	rt	rt_time	total_reward	trial_number	trial_phase	trial_type	one_press
11.103	0.25	Control	1.0	0.0	Yes	2.947	0.003	n/a	GoodResponse	0	n/a	n/a	0	0	Cue	Neutral	False
11.354	3.85	Control	1.0	0.0	Yes	2.947	0.001	2.0	GoodResponse	0	0.357	10.711	0	0	Fixation	Neutral	False
11.711	0.3	Control	1.0	0.0	Yes	2.947	0.001	2.0	GoodResponse	0	0.357	n/a	0	0	ButtonPress	Neutral	False
15.215	0.4	Control	1.0	0.0	Yes	2.947	0.012	2.0	GoodResponse	0	0.273	14.488	0	0	Target	Neutral	False
15.488	0.3	Control	1.0	0.0	Yes	2.947	0.012	2.0	GoodResponse	0	0.273	n/a	0	0	ButtonPress	Neutral	False
15.6	0.3	Control	1.0	n/a	Yes	2.947	n/a	n/a	GoodResponse	0	n/a	n/a	0	0	Blank	Neutral	False
15.901	1.45	Control	1.0	n/a	Yes	2.947	n/a	5.0	GoodResponse	0	0.024	14.925	0	0	Feedback	Neutral	False
17.355	2.947	Control	1.0	n/a	Yes	2.947	n/a	2.0	GoodResponse	0	0.052	n/a	0	0	ISIslide	Neutral	False
20.297	0.25	Lose2	1.0	0.0	Yes	2.803	-0.003	n/a	GoodResponse	0	n/a	n/a	0	1	Cue	AvoidedLoss	True
20.548	4.0	Lose2	1.0	0.0	Yes	2.803	0.001	n/a	GoodResponse	0	n/a	n/a	0	1	Fixation	AvoidedLoss	True
24.543	0.39	Lose2	1.0	0.004	Yes	2.803	-0.004	2.0	GoodResponse	0	0.191	23.734	0	1	Target	AvoidedLoss	True
24.734	0.3	Lose2	1.0	0.004	Yes	2.803	-0.004	2.0	GoodResponse	0	0.191	n/a	0	1	ButtonPress	AvoidedLoss	True
24.944	0.31	Lose2	1.0	n/a	Yes	2.803	n/a	n/a	GoodResponse	0	n/a	n/a	0	1	Blank	AvoidedLoss	True
25.245	1.45	Lose2	1.0	n/a	Yes	2.803	n/a	5.0	GoodResponse	0	0.046	24.291	0	1	Feedback	AvoidedLoss	True
26.699	2.803	Lose2	1.0	n/a	Yes	2.803	n/a	n/a	GoodResponse	0	0.0	n/a	0	1	ISIslide	AvoidedLoss	True
29.525	0.25	Control	0.6667000000000001	0.0	No	2.575	0.025	n/a	NoResponse	0	n/a	n/a	0	2	Cue	Neutral	False
29.775	4.1	Control	0.6667000000000001	0.0	No	2.575	0.0	n/a	NoResponse	0	n/a	n/a	0	2	Fixation	Neutral	False
33.871	0.38	Control	0.6667000000000001	0.004	No	2.575	-0.004	n/a	NoResponse	0	n/a	n/a	0	2	Target	Neutral	False
34.255	0.32	Control	0.6667000000000001	n/a	No	2.575	n/a	n/a	NoResponse	0	n/a	n/a	0	2	Blank	Neutral	False
34.573	1.45	Control	0.6667000000000001	n/a	No	2.575	n/a	5.0	NoResponse	0	0.035	33.608	0	2	Feedback	Neutral	False
36.027	2.575	Control	0.6667000000000001	n/a	No	2.575	n/a	n/a	NoResponse	0	0.0	n/a	0	2	ISIslide	Neutral	False
38.618	0.25	Win2	0.5	0.001	No	2.832	0.018	n/a	PrematurePress	0	n/a	n/a	0	3	Cue	MissedWin	True
38.869	3.95	Win2	0.5	0.0	No	2.832	0.001	n/a	PrematurePress	0	n/a	n/a	0	3	Fixation	MissedWin	True
42.814	0.37	Win2	0.5	0.004	No	2.832	-0.004	2.0	PrematurePress	0	0.01	41.824	0	3	Target	MissedWin	True
42.824	0.3	Win2	0.5	0.004	No	2.832	-0.004	2.0	PrematurePress	0	0.01	n/a	0	3	ButtonPress	MissedWin	True
43.199	0.33	Win2	0.5	n/a	No	2.832	n/a	n/a	PrematurePress	0	n/a	n/a	0	3	Blank	MissedWin	True
43.516	1.45	Win2	0.5	n/a	No	2.832	n/a	5.0	PrematurePress	0	0.019	42.535	0	3	Feedback	MissedWin	True
44.971	2.832	Win2	0.5	n/a	No	2.832	n/a	n/a	PrematurePress	0	0.0	n/a	0	3	ISIslide	MissedWin	True
47.829	0.25	Win2	0.6	0.0	Yes	3.271	0.029	n/a	GoodResponse	1	n/a	n/a	1	4	Cue	Win	True
48.08	4.0	Win2	0.6	0.0	Yes	3.271	0.001	n/a	GoodResponse	1	n/a	n/a	1	4	Fixation	Win	True
52.075	0.38	Win2	0.6	0.004	Yes	3.271	-0.004	2.0	GoodResponse	1	0.351	51.426	1	4	Target	Win	True
52.426	0.3	Win2	0.6	0.004	Yes	3.271	-0.004	2.0	GoodResponse	1	0.351	n/a	1	4	ButtonPress	Win	True
52.46	0.32	Win2	0.6	n/a	Yes	3.271	n/a	n/a	GoodResponse	1	n/a	n/a	1	4	Blank	Win	True
52.777	1.45	Win2	0.6	n/a	Yes	3.271	n/a	5.0	GoodResponse	1	0.026	51.803	1	4	Feedback	Win	True
54.232	3.271	Win2	0.6	n/a	Yes	3.271	n/a	n/a	GoodResponse	1	0.0	n/a	1	4	ISIslide	Win	True
57.525	0.25	Win2	0.6667000000000001	0.0	Yes	2.775	0.025	n/a	GoodResponse	1	n/a	n/a	2	5	Cue	Win	True
57.776	4.0	Win2	0.6667000000000001	0.0	Yes	2.775	0.001	n/a	GoodResponse	1	n/a	n/a	2	5	Fixation	Win	True
61.771	0.39	Win2	0.6667000000000001	0.004	Yes	2.775	-0.004	2.0	GoodResponse	1	0.221	60.992	2	5	Target	Win	True
61.992	0.3	Win2	0.6667000000000001	0.004	Yes	2.775	-0.004	2.0	GoodResponse	1	0.221	n/a	2	5	ButtonPress	Win	True
62.172	0.31	Win2	0.6667000000000001	n/a	Yes	2.775	n/a	n/a	GoodResponse	1	n/a	n/a	2	5	Blank	Win	True
62.473	1.45	Win2	0.6667000000000001	n/a	Yes	2.775	n/a	5.0	GoodResponse	1	0.037	61.51	2	5	Feedback	Win	True
63.927	2.775	Win2	0.6667000000000001	n/a	Yes	2.775	n/a	n/a	GoodResponse	1	0.0	n/a	2	5	ISIslide	Win	True
66.719	0.25	Lose2	0.7143	0.0	Yes	2.731	0.019	n/a	GoodResponse	0	n/a	n/a	2	6	Cue	AvoidedLoss	True
66.97	3.95	Lose2	0.7143	0.0	Yes	2.731	0.001	n/a	GoodResponse	0	n/a	n/a	2	6	Fixation	AvoidedLoss	True
70.915	0.38	Lose2	0.7143	0.004	Yes	2.731	-0.004	2.0	GoodResponse	0	0.23	70.145	2	6	Target	AvoidedLoss	True
71.145	0.3	Lose2	0.7143	0.004	Yes	2.731	-0.004	2.0	GoodResponse	0	0.23	n/a	2	6	ButtonPress	AvoidedLoss	True
71.299	0.32	Lose2	0.7143	n/a	Yes	2.731	n/a	n/a	GoodResponse	0	n/a	n/a	2	6	Blank	AvoidedLoss	True
71.617	1.45	Lose2	0.7143	n/a	Yes	2.731	n/a	5.0	GoodResponse	0	0.015	70.632	2	6	Feedback	AvoidedLoss	True
73.071	2.731	Lose2	0.7143	n/a	Yes	2.731	n/a	n/a	GoodResponse	0	0.0	n/a	2	6	ISIslide	AvoidedLoss	True
75.83	0.25	Lose2	0.75	0.0	Yes	4.02	0.03	n/a	GoodResponse	0	n/a	n/a	2	7	Cue	AvoidedLoss	True
76.08	4.05	Lose2	0.75	0.001	Yes	4.02	0.0	n/a	GoodResponse	0	n/a	n/a	2	7	Fixation	AvoidedLoss	True
80.126	0.37	Lose2	0.75	0.004	Yes	4.02	-0.004	2.0	GoodResponse	0	0.162	79.288	2	7	Target	AvoidedLoss	True
80.288	0.3	Lose2	0.75	0.004	Yes	4.02	-0.004	2.0	GoodResponse	0	0.162	n/a	2	7	ButtonPress	AvoidedLoss	True
80.51	0.33	Lose2	0.75	n/a	Yes	4.02	n/a	n/a	GoodResponse	0	n/a	n/a	2	7	Blank	AvoidedLoss	True
80.828	1.45	Lose2	0.75	n/a	Yes	4.02	n/a	5.0	GoodResponse	0	0.024	79.852	2	7	Feedback	AvoidedLoss	True
82.282	4.02	Lose2	0.75	n/a	Yes	4.02	n/a	n/a	GoodResponse	0	0.0	n/a	2	7	ISIslide	AvoidedLoss	True
86.328	0.25	Lose2	0.7778	0.0	Yes	3.022	0.028	n/a	GoodResponse	0	n/a	n/a	2	8	Cue	AvoidedLoss	True
86.579	3.95	Lose2	0.7778	0.0	Yes	3.022	0.001	n/a	GoodResponse	0	n/a	n/a	2	8	Fixation	AvoidedLoss	True
90.524	0.36	Lose2	0.7778	0.004	Yes	3.022	-0.004	2.0	GoodResponse	0	0.236	89.76	2	8	Target	AvoidedLoss	True
90.76	0.3	Lose2	0.7778	0.004	Yes	3.022	-0.004	2.0	GoodResponse	0	0.236	n/a	2	8	ButtonPress	AvoidedLoss	True
90.891	0.34	Lose2	0.7778	n/a	Yes	3.022	n/a	n/a	GoodResponse	0	n/a	n/a	2	8	Blank	AvoidedLoss	True
91.226	1.45	Lose2	0.7778	n/a	Yes	3.022	n/a	5.0	GoodResponse	0	0.015	90.241	2	8	Feedback	AvoidedLoss	True
92.68	3.022	Lose2	0.7778	n/a	Yes	3.022	n/a	n/a	GoodResponse	0	0.0	n/a	2	8	ISIslide	AvoidedLoss	True
95.723	0.25	Lose2	0.8	0.0	Yes	3.127	0.023	n/a	GoodResponse	0	n/a	n/a	2	9	Cue	AvoidedLoss	True
95.973	3.95	Lose2	0.8	0.0	Yes	3.127	0.0	n/a	GoodResponse	0	n/a	n/a	2	9	Fixation	AvoidedLoss	True
99.935	0.35	Lose2	0.8	0.0	Yes	3.127	0.012	2.0	GoodResponse	0	0.197	99.132	2	9	Target	AvoidedLoss	True
100.132	0.3	Lose2	0.8	0.0	Yes	3.127	0.012	2.0	GoodResponse	0	0.197	n/a	2	9	ButtonPress	AvoidedLoss	True
100.269	0.35	Lose2	0.8	n/a	Yes	3.127	n/a	n/a	GoodResponse	0	n/a	n/a	2	9	Blank	AvoidedLoss	True
100.62	1.45	Lose2	0.8	n/a	Yes	3.127	n/a	5.0	GoodResponse	0	0.036	99.656	2	9	Feedback	AvoidedLoss	True
102.075	3.127	Lose2	0.8	n/a	Yes	3.127	n/a	n/a	GoodResponse	0	0.0	n/a	2	9	ISIslide	AvoidedLoss	True
105.218	0.25	Control	0.7273000000000001	0.0	No	3.282	0.018	n/a	NoResponse	0	n/a	n/a	2	10	Cue	Neutral	False
105.468	4.0	Control	0.7273000000000001	0.0	No	3.282	0.0	n/a	NoResponse	0	n/a	n/a	2	10	Fixation	Neutral	False
109.464	0.34	Control	0.7273000000000001	0.004	No	3.282	-0.004	n/a	NoResponse	0	n/a	n/a	2	10	Target	Neutral	False
109.815	0.36	Control	0.7273000000000001	n/a	No	3.282	n/a	n/a	NoResponse	0	n/a	n/a	2	10	Blank	Neutral	False
110.166	1.45	Control	0.7273000000000001	n/a	No	3.282	n/a	5.0	NoResponse	0	0.002	109.168	2	10	Feedback	Neutral	False
111.62	3.282	Control	0.7273000000000001	n/a	No	3.282	n/a	n/a	NoResponse	0	0.0	n/a	2	10	ISIslide	Neutral	False
114.93	0.25	Lose2	0.75	0.0	Yes	2.72	0.03	n/a	GoodResponse	0	n/a	n/a	2	11	Cue	AvoidedLoss	True
115.181	4.05	Lose2	0.75	0.0	Yes	2.72	0.001	n/a	GoodResponse	0	n/a	n/a	2	11	Fixation	AvoidedLoss	True
119.226	0.33	Lose2	0.75	0.004	Yes	2.72	-0.004	2.0	GoodResponse	0	0.217	118.443	2	11	Target	AvoidedLoss	True
119.443	0.3	Lose2	0.75	0.004	Yes	2.72	-0.004	2.0	GoodResponse	0	0.217	n/a	2	11	ButtonPress	AvoidedLoss	True
119.56	0.37	Lose2	0.75	n/a	Yes	2.72	n/a	n/a	GoodResponse	0	n/a	n/a	2	11	Blank	AvoidedLoss	True
119.928	1.45	Lose2	0.75	n/a	Yes	2.72	n/a	5.0	GoodResponse	0	0.045	118.973	2	11	Feedback	AvoidedLoss	True
121.383	2.72	Lose2	0.75	n/a	Yes	2.72	n/a	n/a	GoodResponse	0	0.0	n/a	2	11	ISIslide	AvoidedLoss	True
124.124	0.25	Control	0.7692	0.0	Yes	2.976	0.024	n/a	GoodResponse	0	n/a	n/a	2	12	Cue	Neutral	True
124.375	3.9	Control	0.7692	0.0	Yes	2.976	0.001	n/a	GoodResponse	0	n/a	n/a	2	12	Fixation	Neutral	True
128.27	0.32	Control	0.7692	0.004	Yes	2.976	-0.004	2.0	GoodResponse	0	0.227	127.497	2	12	Target	Neutral	True
128.497	0.3	Control	0.7692	0.004	Yes	2.976	-0.004	2.0	GoodResponse	0	0.227	n/a	2	12	ButtonPress	Neutral	True
128.604	0.38	Control	0.7692	n/a	Yes	2.976	n/a	n/a	GoodResponse	0	n/a	n/a	2	12	Blank	Neutral	True
128.972	1.45	Control	0.7692	n/a	Yes	2.976	n/a	5.0	GoodResponse	0	0.026	127.998	2	12	Feedback	Neutral	True
130.426	2.976	Control	0.7692	n/a	Yes	2.976	n/a	n/a	GoodResponse	0	0.0	n/a	2	12	ISIslide	Neutral	True
133.419	0.25	Control	0.7143	0.0	No	2.781	0.019	n/a	NoResponse	0	n/a	n/a	2	13	Cue	Neutral	False
133.669	4.0	Control	0.7143	0.0	No	2.781	0.0	n/a	NoResponse	0	n/a	n/a	2	13	Fixation	Neutral	False
137.665	0.31	Control	0.7143	0.004	No	2.781	-0.004	n/a	NoResponse	0	n/a	n/a	2	13	Target	Neutral	False
137.982	0.39	Control	0.7143	n/a	No	2.781	n/a	n/a	NoResponse	0	n/a	n/a	2	13	Blank	Neutral	False
138.367	1.45	Control	0.7143	n/a	No	2.781	n/a	5.0	NoResponse	0	0.044	137.411	2	13	Feedback	Neutral	False
139.821	2.781	Control	0.7143	n/a	No	2.781	n/a	n/a	NoResponse	0	0.0	n/a	2	13	ISIslide	Neutral	False
142.629	0.25	Win2	0.7333	0.001	Yes	2.671	0.029	n/a	GoodResponse	1	n/a	n/a	3	14	Cue	Win	True
142.88	4.1	Win2	0.7333	0.0	Yes	2.671	0.001	n/a	GoodResponse	1	n/a	n/a	3	14	Fixation	Win	True
146.976	0.3	Win2	0.7333	0.003	Yes	2.671	-0.003	2.0	GoodResponse	1	0.223	146.199	3	14	Target	Win	True
147.199	0.3	Win2	0.7333	0.003	Yes	2.671	-0.003	2.0	GoodResponse	1	0.223	n/a	3	14	ButtonPress	Win	True
147.277	0.4	Win2	0.7333	n/a	Yes	2.671	n/a	n/a	GoodResponse	1	n/a	n/a	3	14	Blank	Win	True
147.678	1.45	Win2	0.7333	n/a	Yes	2.671	n/a	5.0	GoodResponse	1	0.007	146.685	3	14	Feedback	Win	True
149.132	2.671	Win2	0.7333	n/a	Yes	2.671	n/a	n/a	GoodResponse	1	0.0	n/a	3	14	ISIslide	Win	True
151.824	0.25	Control	0.75	0.0	Yes	2.976	0.024	n/a	GoodResponse	0	n/a	n/a	3	15	Cue	Neutral	True
152.074	4.0	Control	0.75	0.0	Yes	2.976	0.0	n/a	GoodResponse	0	n/a	n/a	3	15	Fixation	Neutral	True
156.07	0.29	Control	0.75	0.004	Yes	2.976	-0.004	2.0	GoodResponse	0	0.217	155.287	3	15	Target	Neutral	True
156.287	0.3	Control	0.75	0.004	Yes	2.976	-0.004	2.0	GoodResponse	0	0.217	n/a	3	15	ButtonPress	Neutral	True
156.371	0.41	Control	0.75	n/a	Yes	2.976	n/a	n/a	GoodResponse	0	n/a	n/a	3	15	Blank	Neutral	True
156.772	1.45	Control	0.75	n/a	Yes	2.976	n/a	5.0	GoodResponse	0	0.03	155.802	3	15	Feedback	Neutral	True
158.226	2.976	Control	0.75	n/a	Yes	2.976	n/a	n/a	GoodResponse	0	0.0	n/a	3	15	ISIslide	Neutral	True
161.218	0.25	Win2	0.7646999999999999	0.0	Yes	2.882	0.018	n/a	GoodResponse	1	n/a	n/a	4	16	Cue	Win	True
161.469	4.0	Win2	0.7646999999999999	0.0	Yes	2.882	0.001	n/a	GoodResponse	1	n/a	n/a	4	16	Fixation	Win	True
165.464	0.28	Win2	0.7646999999999999	0.004	Yes	2.882	-0.004	2.0	GoodResponse	1	0.27	164.734	4	16	Target	Win	True
165.734	0.3	Win2	0.7646999999999999	0.004	Yes	2.882	-0.004	2.0	GoodResponse	1	0.27	n/a	4	16	ButtonPress	Win	True
165.749	0.42	Win2	0.7646999999999999	n/a	Yes	2.882	n/a	n/a	GoodResponse	1	n/a	n/a	4	16	Blank	Win	True
166.166	1.45	Win2	0.7646999999999999	n/a	Yes	2.882	n/a	5.0	GoodResponse	1	0.002	165.168	4	16	Feedback	Win	True
167.621	2.882	Win2	0.7646999999999999	n/a	Yes	2.882	n/a	n/a	GoodResponse	1	0.0	n/a	4	16	ISIslide	Win	True
170.53	0.25	Lose2	0.7778	0.0	Yes	2.72	0.03	n/a	GoodResponse	0	n/a	n/a	4	17	Cue	AvoidedLoss	True
170.78	3.95	Lose2	0.7778	0.0	Yes	2.72	0.0	n/a	GoodResponse	0	n/a	n/a	4	17	Fixation	AvoidedLoss	True
174.725	0.27	Lose2	0.7778	0.005	Yes	2.72	-0.005	2.0	GoodResponse	0	0.216	173.941	4	17	Target	AvoidedLoss	True
174.941	0.3	Lose2	0.7778	0.005	Yes	2.72	-0.005	2.0	GoodResponse	0	0.216	n/a	4	17	ButtonPress	AvoidedLoss	True
175.01	0.43	Lose2	0.7778	n/a	Yes	2.72	n/a	n/a	GoodResponse	0	n/a	n/a	4	17	Blank	AvoidedLoss	True
175.427	1.45	Lose2	0.7778	n/a	Yes	2.72	n/a	5.0	GoodResponse	0	0.009	174.436	4	17	Feedback	AvoidedLoss	True
176.882	2.72	Lose2	0.7778	n/a	Yes	2.72	n/a	n/a	GoodResponse	0	0.0	n/a	4	17	ISIslide	AvoidedLoss	True
179.623	0.25	Lose2	0.7895	0.0	Yes	2.727	0.023	n/a	GoodResponse	0	n/a	n/a	4	18	Cue	AvoidedLoss	True
179.874	4.05	Lose2	0.7895	0.0	Yes	2.727	0.001	n/a	GoodResponse	0	n/a	n/a	4	18	Fixation	AvoidedLoss	True
183.92	0.26	Lose2	0.7895	0.003	Yes	2.727	-0.003	2.0	GoodResponse	0	0.252	183.172	4	18	Target	AvoidedLoss	True
184.172	0.3	Lose2	0.7895	0.003	Yes	2.727	-0.003	2.0	GoodResponse	0	0.252	n/a	4	18	ButtonPress	AvoidedLoss	True
184.187	0.44	Lose2	0.7895	n/a	Yes	2.727	n/a	n/a	GoodResponse	0	n/a	n/a	4	18	Blank	AvoidedLoss	True
184.622	1.45	Lose2	0.7895	n/a	Yes	2.727	n/a	5.0	GoodResponse	0	0.033	183.655	4	18	Feedback	AvoidedLoss	True
186.076	2.727	Lose2	0.7895	n/a	Yes	2.727	n/a	n/a	GoodResponse	0	0.0	n/a	4	18	ISIslide	AvoidedLoss	True
188.818	0.25	Control	0.75	0.0	No	2.932	0.018	n/a	NoResponse	0	n/a	n/a	4	19	Cue	Neutral	True
189.068	3.95	Control	0.75	0.0	No	2.932	0.0	n/a	NoResponse	0	n/a	n/a	4	19	Fixation	Neutral	True
193.013	0.25	Control	0.75	0.005	No	2.932	-0.005	2.0	NoResponse	0	0.362	192.375	4	19	Target	Neutral	True
193.264	0.45	Control	0.75	n/a	No	2.932	n/a	n/a	NoResponse	0	n/a	n/a	4	19	Blank	Neutral	True
193.375	0.3	Control	0.75	0.005	No	2.932	-0.005	2.0	NoResponse	0	0.362	n/a	4	19	ButtonPress	Neutral	True
193.716	1.45	Control	0.75	n/a	No	2.932	n/a	5.0	NoResponse	0	0.012	192.728	4	19	Feedback	Neutral	True
195.17	2.932	Control	0.75	n/a	No	2.932	n/a	n/a	NoResponse	0	0.0	n/a	4	19	ISIslide	Neutral	True
198.129	0.25	Control	0.7619	0.0	Yes	2.621	0.029	n/a	GoodResponse	0	n/a	n/a	4	20	Cue	Neutral	True
198.379	4.05	Control	0.7619	0.001	Yes	2.621	0.0	n/a	GoodResponse	0	n/a	n/a	4	20	Fixation	Neutral	True
202.425	0.24	Control	0.7619	0.004	Yes	2.621	-0.004	2.0	GoodResponse	0	0.224	201.649	4	20	Target	Neutral	True
202.649	0.3	Control	0.7619	0.004	Yes	2.621	-0.004	2.0	GoodResponse	0	0.224	n/a	4	20	ButtonPress	Neutral	True
202.676	0.46	Control	0.7619	n/a	Yes	2.621	n/a	n/a	GoodResponse	0	n/a	n/a	4	20	Blank	Neutral	True
203.127	1.45	Control	0.7619	n/a	Yes	2.621	n/a	5.0	GoodResponse	0	0.016	202.143	4	20	Feedback	Neutral	True
204.581	2.621	Control	0.7619	n/a	Yes	2.621	n/a	n/a	GoodResponse	0	0.0	n/a	4	20	ISIslide	Neutral	True
207.223	0.25	Control	0.7726999999999999	0.0	Yes	2.777	0.023	n/a	GoodResponse	0	n/a	n/a	4	21	Cue	Neutral	True
207.473	4.1	Control	0.7726999999999999	0.0	Yes	2.777	0.0	n/a	GoodResponse	0	n/a	n/a	4	21	Fixation	Neutral	True
211.569	0.23	Control	0.7726999999999999	0.004	Yes	2.777	-0.004	2.0	GoodResponse	0	0.21	210.779	4	21	Target	Neutral	True
211.779	0.3	Control	0.7726999999999999	0.004	Yes	2.777	-0.004	2.0	GoodResponse	0	0.21	n/a	4	21	ButtonPress	Neutral	True
211.803	0.47	Control	0.7726999999999999	n/a	Yes	2.777	n/a	n/a	GoodResponse	0	n/a	n/a	4	21	Blank	Neutral	True
212.271	1.45	Control	0.7726999999999999	n/a	Yes	2.777	n/a	5.0	GoodResponse	0	0.043	211.314	4	21	Feedback	Neutral	True
213.725	2.777	Control	0.7726999999999999	n/a	Yes	2.777	n/a	n/a	GoodResponse	0	0.0	n/a	4	21	ISIslide	Neutral	True
216.517	0.25	Control	0.7391	0.0	No	2.783	0.017	n/a	LatePress	0	n/a	n/a	4	22	Cue	Neutral	True
216.768	4.0	Control	0.7391	0.0	No	2.783	0.001	n/a	LatePress	0	n/a	n/a	4	22	Fixation	Neutral	True
220.763	0.22	Control	0.7391	0.004	No	2.783	-0.004	2.0	LatePress	0	0.23	219.993	4	22	Target	Neutral	True
220.993	0.3	Control	0.7391	0.004	No	2.783	-0.004	2.0	LatePress	0	0.23	n/a	4	22	ButtonPress	Neutral	True
220.997	0.48	Control	0.7391	n/a	No	2.783	n/a	n/a	LatePress	0	n/a	n/a	4	22	Blank	Neutral	True
221.465	1.45	Control	0.7391	n/a	No	2.783	n/a	5.0	LatePress	0	0.018	220.483	4	22	Feedback	Neutral	True
222.919	2.783	Control	0.7391	n/a	No	2.783	n/a	n/a	LatePress	0	0.0	n/a	4	22	ISIslide	Neutral	True
225.728	0.25	Control	0.75	0.0	Yes	2.772	0.028	n/a	GoodResponse	0	n/a	n/a	4	23	Cue	Neutral	True
225.979	3.9	Control	0.75	0.0	Yes	2.772	0.001	n/a	GoodResponse	0	n/a	n/a	4	23	Fixation	Neutral	True
229.874	0.21	Control	0.75	0.004	Yes	2.772	-0.004	2.0	GoodResponse	0	0.189	229.063	4	23	Target	Neutral	True
230.063	0.3	Control	0.75	0.004	Yes	2.772	-0.004	2.0	GoodResponse	0	0.189	n/a	4	23	ButtonPress	Neutral	True
230.091	0.49	Control	0.75	n/a	Yes	2.772	n/a	n/a	GoodResponse	0	n/a	n/a	4	23	Blank	Neutral	True
230.576	1.45	Control	0.75	n/a	Yes	2.772	n/a	5.0	GoodResponse	0	0.03	229.606	4	23	Feedback	Neutral	True
232.03	2.772	Control	0.75	n/a	Yes	2.772	n/a	n/a	GoodResponse	0	0.0	n/a	4	23	ISIslide	Neutral	True
234.822	0.25	Win2	0.72	0.0	No	3.128	0.022	n/a	NoResponse	0	n/a	n/a	4	24	Cue	MissedWin	False
235.072	3.95	Win2	0.72	0.001	No	3.128	0.0	n/a	NoResponse	0	n/a	n/a	4	24	Fixation	MissedWin	False
239.018	0.2	Win2	0.72	0.004	No	3.128	-0.004	n/a	NoResponse	0	n/a	n/a	4	24	Target	MissedWin	False
239.218	0.5	Win2	0.72	n/a	No	3.128	n/a	n/a	NoResponse	0	n/a	n/a	4	24	Blank	MissedWin	False
239.72	1.45	Win2	0.72	n/a	No	3.128	n/a	5.0	NoResponse	0	0.008	238.728	4	24	Feedback	MissedWin	False
241.174	3.128	Win2	0.72	n/a	No	3.128	n/a	n/a	NoResponse	0	0.0	n/a	4	24	ISIslide	MissedWin	False
244.317	0.25	Win2	0.6923	0.0	No	3.083	0.017	n/a	NoResponse	0	n/a	n/a	4	25	Cue	MissedWin	True
244.568	4.0	Win2	0.6923	0.0	No	3.083	0.001	n/a	NoResponse	0	n/a	n/a	4	25	Fixation	MissedWin	True
248.563	0.19	Win2	0.6923	0.004	No	3.083	-0.004	2.0	NoResponse	0	0.221	247.784	4	25	Target	MissedWin	True
248.763	0.51	Win2	0.6923	n/a	No	3.083	n/a	n/a	NoResponse	0	n/a	n/a	4	25	Blank	MissedWin	True
248.784	0.3	Win2	0.6923	0.004	No	3.083	-0.004	2.0	NoResponse	0	0.221	n/a	4	25	ButtonPress	MissedWin	True
249.265	1.45	Win2	0.6923	n/a	No	3.083	n/a	5.0	NoResponse	0	0.024	248.289	4	25	Feedback	MissedWin	True
250.719	3.083	Win2	0.6923	n/a	No	3.083	n/a	n/a	NoResponse	0	0.0	n/a	4	25	ISIslide	MissedWin	True
253.829	0.25	Win2	0.6667000000000001	0.0	No	2.921	0.029	n/a	NoResponse	0	n/a	n/a	4	26	Cue	MissedWin	True
254.079	3.95	Win2	0.6667000000000001	0.0	No	2.921	0.0	n/a	NoResponse	0	n/a	n/a	4	26	Fixation	MissedWin	True
258.041	0.18	Win2	0.6667000000000001	0.0	No	2.921	0.012	2.0	NoResponse	0	0.292	257.333	4	26	Target	MissedWin	True
258.208	0.52	Win2	0.6667000000000001	n/a	No	2.921	n/a	n/a	NoResponse	0	n/a	n/a	4	26	Blank	MissedWin	True
258.333	0.3	Win2	0.6667000000000001	0.0	No	2.921	0.012	2.0	NoResponse	0	0.292	n/a	4	26	ButtonPress	MissedWin	True
258.727	1.45	Win2	0.6667000000000001	n/a	No	2.921	n/a	5.0	NoResponse	0	0.025	257.752	4	26	Feedback	MissedWin	True
260.181	2.921	Win2	0.6667000000000001	n/a	No	2.921	n/a	n/a	NoResponse	0	0.0	n/a	4	26	ISIslide	MissedWin	True
263.123	0.25	Lose2	0.6429	0.0	No	2.827	0.023	n/a	PrematurePress	-1	n/a	n/a	3	27	Cue	Loss	True
263.374	4.05	Lose2	0.6429	0.0	No	2.827	0.001	n/a	PrematurePress	-1	n/a	n/a	3	27	Fixation	Loss	True
267.419	0.17	Lose2	0.6429	0.004	No	2.827	-0.004	2.0	PrematurePress	-1	0.021	266.44	3	27	Target	Loss	True
267.44	0.3	Lose2	0.6429	0.004	No	2.827	-0.004	2.0	PrematurePress	-1	0.021	n/a	3	27	ButtonPress	Loss	True
267.603	0.53	Lose2	0.6429	n/a	No	2.827	n/a	n/a	PrematurePress	-1	n/a	n/a	3	27	Blank	Loss	True
268.121	1.45	Lose2	0.6429	n/a	No	2.827	n/a	5.0	PrematurePress	-1	0.045	267.166	3	27	Feedback	Loss	True
269.576	2.827	Lose2	0.6429	n/a	No	2.827	n/a	n/a	PrematurePress	-1	0.0	n/a	3	27	ISIslide	Loss	True
272.417	0.25	Control	0.6207	0.001	No	2.833	0.017	n/a	NoResponse	0	n/a	n/a	3	28	Cue	Neutral	True
272.668	4.05	Control	0.6207	0.0	No	2.833	0.001	n/a	NoResponse	0	n/a	n/a	3	28	Fixation	Neutral	True
276.714	0.18	Control	0.6207	0.003	No	2.833	-0.003	2.0	NoResponse	0	0.222	275.936	3	28	Target	Neutral	True
276.898	0.52	Control	0.6207	n/a	No	2.833	n/a	n/a	NoResponse	0	n/a	n/a	3	28	Blank	Neutral	True
276.936	0.3	Control	0.6207	0.003	No	2.833	-0.003	2.0	NoResponse	0	0.222	n/a	3	28	ButtonPress	Neutral	True
277.416	1.45	Control	0.6207	n/a	No	2.833	n/a	5.0	NoResponse	0	0.018	276.434	3	28	Feedback	Neutral	True
278.87	2.833	Control	0.6207	n/a	No	2.833	n/a	n/a	NoResponse	0	0.0	n/a	3	28	ISIslide	Neutral	True
281.729	0.25	Lose2	0.6	0.0	No	2.821	0.029	n/a	PrematurePress	-1	n/a	n/a	2	29	Cue	Loss	True
281.979	3.95	Lose2	0.6	0.0	No	2.821	0.0	n/a	PrematurePress	-1	n/a	n/a	2	29	Fixation	Loss	True
285.925	0.19	Lose2	0.6	0.004	No	2.821	-0.004	2.0	PrematurePress	-1	0.047	284.972	2	29	Target	Loss	True
285.972	0.3	Lose2	0.6	0.004	No	2.821	-0.004	2.0	PrematurePress	-1	0.047	n/a	2	29	ButtonPress	Loss	True
286.125	0.51	Lose2	0.6	n/a	No	2.821	n/a	n/a	PrematurePress	-1	n/a	n/a	2	29	Blank	Loss	True
286.627	1.45	Lose2	0.6	n/a	No	2.821	n/a	5.0	PrematurePress	-1	0.027	285.654	2	29	Feedback	Loss	True
288.081	2.821	Lose2	0.6	n/a	No	2.821	n/a	n/a	PrematurePress	-1	0.0	n/a	2	29	ISIslide	Loss	True
290.923	0.25	Win2	0.5806	0.0	No	2.777	0.023	n/a	NoResponse	0	n/a	n/a	2	30	Cue	MissedWin	False
291.174	3.9	Win2	0.5806	0.0	No	2.777	0.001	n/a	NoResponse	0	n/a	n/a	2	30	Fixation	MissedWin	False
295.069	0.2	Win2	0.5806	0.004	No	2.777	-0.004	n/a	NoResponse	0	n/a	n/a	2	30	Target	MissedWin	False
295.269	0.5	Win2	0.5806	n/a	No	2.777	n/a	n/a	NoResponse	0	n/a	n/a	2	30	Blank	MissedWin	False
295.771	1.45	Win2	0.5806	n/a	No	2.777	n/a	5.0	NoResponse	0	0.008	294.779	2	30	Feedback	MissedWin	False
297.225	2.777	Win2	0.5806	n/a	No	2.777	n/a	n/a	NoResponse	0	0.0	n/a	2	30	ISIslide	MissedWin	False
300.017	0.25	Lose2	0.5938	0.0	Yes	2.833	0.017	n/a	GoodResponse	0	n/a	n/a	2	31	Cue	AvoidedLoss	True
300.267	4.05	Lose2	0.5938	0.001	Yes	2.833	0.0	n/a	GoodResponse	0	n/a	n/a	2	31	Fixation	AvoidedLoss	True
304.313	0.21	Lose2	0.5938	0.004	Yes	2.833	-0.004	2.0	GoodResponse	0	0.203	303.516	2	31	Target	AvoidedLoss	True
304.516	0.3	Lose2	0.5938	0.004	Yes	2.833	-0.004	2.0	GoodResponse	0	0.203	n/a	2	31	ButtonPress	AvoidedLoss	True
304.53	0.49	Lose2	0.5938	n/a	Yes	2.833	n/a	n/a	GoodResponse	0	n/a	n/a	2	31	Blank	AvoidedLoss	True
305.015	1.45	Lose2	0.5938	n/a	Yes	2.833	n/a	5.0	GoodResponse	0	0.028	304.043	2	31	Feedback	AvoidedLoss	True
306.469	2.833	Lose2	0.5938	n/a	Yes	2.833	n/a	n/a	GoodResponse	0	0.0	n/a	2	31	ISIslide	AvoidedLoss	True
309.328	0.25	Lose2	0.6061	0.0	Yes	2.622	0.028	n/a	GoodResponse	0	n/a	n/a	2	32	Cue	AvoidedLoss	True
309.579	4.15	Lose2	0.6061	0.0	Yes	2.622	0.001	n/a	GoodResponse	0	n/a	n/a	2	32	Fixation	AvoidedLoss	True
313.724	0.22	Lose2	0.6061	0.004	Yes	2.622	-0.004	2.0	GoodResponse	0	0.208	312.932	2	32	Target	AvoidedLoss	True
313.932	0.3	Lose2	0.6061	0.004	Yes	2.622	-0.004	2.0	GoodResponse	0	0.208	n/a	2	32	ButtonPress	AvoidedLoss	True
313.958	0.48	Lose2	0.6061	n/a	Yes	2.622	n/a	n/a	GoodResponse	0	n/a	n/a	2	32	Blank	AvoidedLoss	True
314.426	1.45	Lose2	0.6061	n/a	Yes	2.622	n/a	5.0	GoodResponse	0	0.032	313.458	2	32	Feedback	AvoidedLoss	True
315.881	2.622	Lose2	0.6061	n/a	Yes	2.622	n/a	n/a	GoodResponse	0	0.0	n/a	2	32	ISIslide	AvoidedLoss	True
318.522	0.25	Win2	0.5882000000000001	0.0	No	2.678	0.022	n/a	NoResponse	0	n/a	n/a	2	33	Cue	MissedWin	True
318.773	4.0	Win2	0.5882000000000001	0.0	No	2.678	0.001	n/a	NoResponse	0	n/a	n/a	2	33	Fixation	MissedWin	True
322.768	0.23	Win2	0.5882000000000001	0.004	No	2.678	-0.004	2.0	NoResponse	0	0.281	322.049	2	33	Target	MissedWin	True
323.002	0.47	Win2	0.5882000000000001	n/a	No	2.678	n/a	n/a	NoResponse	0	n/a	n/a	2	33	Blank	MissedWin	True
323.049	0.3	Win2	0.5882000000000001	0.004	No	2.678	-0.004	2.0	NoResponse	0	0.281	n/a	2	33	ButtonPress	MissedWin	True
323.47	1.45	Win2	0.5882000000000001	n/a	No	2.678	n/a	5.0	NoResponse	0	0.013	322.483	2	33	Feedback	MissedWin	True
324.924	2.678	Win2	0.5882000000000001	n/a	No	2.678	n/a	n/a	NoResponse	0	0.0	n/a	2	33	ISIslide	MissedWin	True
327.616	0.25	Lose2	0.5714	0.0	No	2.634	0.016	n/a	NoResponse	-1	n/a	n/a	1	34	Cue	Loss	False
327.867	4.05	Lose2	0.5714	0.0	No	2.634	0.001	n/a	NoResponse	-1	n/a	n/a	1	34	Fixation	Loss	False
331.912	0.24	Lose2	0.5714	0.004	No	2.634	-0.004	n/a	NoResponse	-1	n/a	n/a	1	34	Target	Loss	False
332.163	0.46	Lose2	0.5714	n/a	No	2.634	n/a	n/a	NoResponse	-1	n/a	n/a	1	34	Blank	Loss	False
332.614	1.45	Lose2	0.5714	n/a	No	2.634	n/a	5.0	NoResponse	-1	0.039	331.653	1	34	Feedback	Loss	False
334.068	2.634	Lose2	0.5714	n/a	No	2.634	n/a	n/a	NoResponse	-1	0.0	n/a	1	34	ISIslide	Loss	False
336.726	0.25	Lose2	0.5556	0.001	No	2.674	0.026	n/a	NoResponse	-1	n/a	n/a	0	35	Cue	Loss	True
336.977	4.0	Lose2	0.5556	0.0	No	2.674	0.001	2.0	NoResponse	-1	3.636	339.613	0	35	Fixation	Loss	True
340.613	0.3	Lose2	0.5556	0.0	No	2.674	0.001	2.0	NoResponse	-1	3.636	n/a	0	35	ButtonPress	Loss	True
340.972	0.25	Lose2	0.5556	0.004	No	2.674	-0.004	n/a	NoResponse	-1	n/a	n/a	0	35	Target	Loss	True
341.223	0.45	Lose2	0.5556	n/a	No	2.674	n/a	n/a	NoResponse	-1	n/a	n/a	0	35	Blank	Loss	True
341.675	1.45	Lose2	0.5556	n/a	No	2.674	n/a	5.0	NoResponse	-1	0.007	340.682	0	35	Feedback	Loss	True
343.129	2.674	Lose2	0.5556	n/a	No	2.674	n/a	n/a	NoResponse	-1	0.0	n/a	0	35	ISIslide	Loss	True
345.82	0.25	Control	0.5676	0.0	Yes	2.68	0.02	n/a	GoodResponse	0	n/a	n/a	0	36	Cue	Neutral	True
346.071	4.0	Control	0.5676	0.0	Yes	2.68	0.001	n/a	GoodResponse	0	n/a	n/a	0	36	Fixation	Neutral	True
350.066	0.26	Control	0.5676	0.004	Yes	2.68	-0.004	2.0	GoodResponse	0	0.232	349.298	0	36	Target	Neutral	True
350.298	0.3	Control	0.5676	0.004	Yes	2.68	-0.004	2.0	GoodResponse	0	0.232	n/a	0	36	ButtonPress	Neutral	True
350.334	0.44	Control	0.5676	n/a	Yes	2.68	n/a	n/a	GoodResponse	0	n/a	n/a	0	36	Blank	Neutral	True
350.768	1.45	Control	0.5676	n/a	Yes	2.68	n/a	5.0	GoodResponse	0	0.031	349.799	0	36	Feedback	Neutral	True
352.223	2.68	Control	0.5676	n/a	Yes	2.68	n/a	n/a	GoodResponse	0	0.0	n/a	0	36	ISIslide	Neutral	True
354.931	0.25	Win2	0.5789	0.0	Yes	2.869	0.031	n/a	GoodResponse	1	n/a	n/a	1	37	Cue	Win	True
355.182	4.0	Win2	0.5789	0.0	Yes	2.869	0.001	n/a	GoodResponse	1	n/a	n/a	1	37	Fixation	Win	True
359.177	0.27	Win2	0.5789	0.004	Yes	2.869	-0.004	2.0	GoodResponse	1	0.224	358.401	1	37	Target	Win	True
359.401	0.3	Win2	0.5789	0.004	Yes	2.869	-0.004	2.0	GoodResponse	1	0.224	n/a	1	37	ButtonPress	Win	True
359.461	0.43	Win2	0.5789	n/a	Yes	2.869	n/a	n/a	GoodResponse	1	n/a	n/a	1	37	Blank	Win	True
359.879	1.45	Win2	0.5789	n/a	Yes	2.869	n/a	5.0	GoodResponse	1	0.042	358.921	1	37	Feedback	Win	True
361.333	2.869	Win2	0.5789	n/a	Yes	2.869	n/a	n/a	GoodResponse	1	0.0	n/a	1	37	ISIslide	Win	True
364.225	0.25	Lose2	0.5640999999999999	0.0	No	2.825	0.025	n/a	NoResponse	-1	n/a	n/a	0	38	Cue	Loss	False
364.476	3.95	Lose2	0.5640999999999999	0.0	No	2.825	0.001	n/a	NoResponse	-1	n/a	n/a	0	38	Fixation	Loss	False
368.421	0.28	Lose2	0.5640999999999999	0.004	No	2.825	-0.004	n/a	NoResponse	-1	n/a	n/a	0	38	Target	Loss	False
368.705	0.42	Lose2	0.5640999999999999	n/a	No	2.825	n/a	n/a	NoResponse	-1	n/a	n/a	0	38	Blank	Loss	False
369.123	1.45	Lose2	0.5640999999999999	n/a	No	2.825	n/a	5.0	NoResponse	-1	0.018	368.141	0	38	Feedback	Loss	False
370.578	2.825	Lose2	0.5640999999999999	n/a	No	2.825	n/a	n/a	NoResponse	-1	0.0	n/a	0	38	ISIslide	Loss	False
373.419	0.25	Win2	0.55	0.001	No	2.981	0.019	n/a	NoResponse	0	n/a	n/a	0	39	Cue	MissedWin	True
373.67	4.1	Win2	0.55	0.0	No	2.981	0.001	n/a	NoResponse	0	n/a	n/a	0	39	Fixation	MissedWin	True
377.766	0.29	Win2	0.55	0.003	No	2.981	-0.003	2.0	NoResponse	0	0.359	377.125	0	39	Target	MissedWin	True
378.067	0.41	Win2	0.55	n/a	No	2.981	n/a	n/a	NoResponse	0	n/a	n/a	0	39	Blank	MissedWin	True
378.125	0.3	Win2	0.55	0.003	No	2.981	-0.003	2.0	NoResponse	0	0.359	n/a	0	39	ButtonPress	MissedWin	True
378.468	1.45	Win2	0.55	n/a	No	2.981	n/a	5.0	NoResponse	0	0.039	377.507	0	39	Feedback	MissedWin	True
379.922	2.981	Win2	0.55	n/a	No	2.981	n/a	n/a	NoResponse	0	0.0	n/a	0	39	ISIslide	MissedWin	True
382.931	0.25	Win2	0.5366	0.0	No	2.719	0.031	n/a	NoResponse	0	n/a	n/a	0	40	Cue	MissedWin	True
383.182	3.95	Win2	0.5366	0.0	No	2.719	0.001	n/a	NoResponse	0	n/a	n/a	0	40	Fixation	MissedWin	True
387.127	0.3	Win2	0.5366	0.004	No	2.719	-0.004	2.0	NoResponse	0	0.319	386.446	0	40	Target	MissedWin	True
387.428	0.4	Win2	0.5366	n/a	No	2.719	n/a	n/a	NoResponse	0	n/a	n/a	0	40	Blank	MissedWin	True
387.446	0.3	Win2	0.5366	0.004	No	2.719	-0.004	2.0	NoResponse	0	0.319	n/a	0	40	ButtonPress	MissedWin	True
387.829	1.45	Win2	0.5366	n/a	No	2.719	n/a	5.0	NoResponse	0	0.043	386.872	0	40	Feedback	MissedWin	True
389.284	2.719	Win2	0.5366	n/a	No	2.719	n/a	n/a	NoResponse	0	0.0	n/a	0	40	ISIslide	MissedWin	True
392.025	0.25	Win2	0.5238	0.0	No	2.775	0.025	n/a	NoResponse	0	n/a	n/a	0	41	Cue	MissedWin	False
392.276	3.9	Win2	0.5238	0.0	No	2.775	0.001	n/a	NoResponse	0	n/a	n/a	0	41	Fixation	MissedWin	False
396.171	0.31	Win2	0.5238	0.004	No	2.775	-0.004	n/a	NoResponse	0	n/a	n/a	0	41	Target	MissedWin	False
396.488	0.39	Win2	0.5238	n/a	No	2.775	n/a	n/a	NoResponse	0	n/a	n/a	0	41	Blank	MissedWin	False
396.873	1.45	Win2	0.5238	n/a	No	2.775	n/a	5.0	NoResponse	0	0.023	395.896	0	41	Feedback	MissedWin	False
398.327	2.775	Win2	0.5238	n/a	No	2.775	n/a	n/a	NoResponse	0	0.0	n/a	0	41	ISIslide	MissedWin	False
401.119	0.25	Control	0.5349	0.0	Yes	2.931	0.019	n/a	GoodResponse	0	n/a	n/a	0	42	Cue	Neutral	True
401.37	3.85	Control	0.5349	0.0	Yes	2.931	0.001	n/a	GoodResponse	0	n/a	n/a	0	42	Fixation	Neutral	True
405.215	0.32	Control	0.5349	0.004	Yes	2.931	-0.004	2.0	GoodResponse	0	0.222	404.437	0	42	Target	Neutral	True
405.437	0.3	Control	0.5349	0.004	Yes	2.931	-0.004	2.0	GoodResponse	0	0.222	n/a	0	42	ButtonPress	Neutral	True
405.549	0.38	Control	0.5349	n/a	Yes	2.931	n/a	n/a	GoodResponse	0	n/a	n/a	0	42	Blank	Neutral	True
405.917	1.45	Control	0.5349	n/a	Yes	2.931	n/a	5.0	GoodResponse	0	0.008	404.925	0	42	Feedback	Neutral	True
407.371	2.931	Control	0.5349	n/a	Yes	2.931	n/a	n/a	GoodResponse	0	0.0	n/a	0	42	ISIslide	Neutral	True
410.33	0.25	Win2	0.5227	0.0	No	3.17	0.03	n/a	NoResponse	0	n/a	n/a	0	43	Cue	MissedWin	True
410.581	4.0	Win2	0.5227	0.0	No	3.17	0.001	n/a	NoResponse	0	n/a	n/a	0	43	Fixation	MissedWin	True
414.576	0.33	Win2	0.5227	0.004	No	3.17	-0.004	2.0	NoResponse	0	0.524	414.1	0	43	Target	MissedWin	True
414.91	0.37	Win2	0.5227	n/a	No	3.17	n/a	n/a	NoResponse	0	n/a	n/a	0	43	Blank	MissedWin	True
415.1	0.3	Win2	0.5227	0.004	No	3.17	-0.004	2.0	NoResponse	0	0.524	n/a	0	43	ButtonPress	MissedWin	True
415.278	1.45	Win2	0.5227	n/a	No	3.17	n/a	5.0	NoResponse	0	0.008	414.286	0	43	Feedback	MissedWin	True
416.732	3.17	Win2	0.5227	n/a	No	3.17	n/a	n/a	NoResponse	0	0.0	n/a	0	43	ISIslide	MissedWin	True
419.925	0.25	Win2	0.5333	0.0	Yes	2.975	0.025	n/a	GoodResponse	1	n/a	n/a	1	44	Cue	Win	True
420.176	4.0	Win2	0.5333	0.0	Yes	2.975	0.001	n/a	GoodResponse	1	n/a	n/a	1	44	Fixation	Win	True
424.171	0.34	Win2	0.5333	0.004	Yes	2.975	-0.004	2.0	GoodResponse	1	0.323	423.494	1	44	Target	Win	True
424.494	0.3	Win2	0.5333	0.004	Yes	2.975	-0.004	2.0	GoodResponse	1	0.323	n/a	1	44	ButtonPress	Win	True
424.522	0.36	Win2	0.5333	n/a	Yes	2.975	n/a	n/a	GoodResponse	1	n/a	n/a	1	44	Blank	Win	True
424.873	1.45	Win2	0.5333	n/a	Yes	2.975	n/a	5.0	GoodResponse	1	0.023	423.896	1	44	Feedback	Win	True
426.328	2.975	Win2	0.5333	n/a	Yes	2.975	n/a	n/a	GoodResponse	1	0.0	n/a	1	44	ISIslide	Win	True
429.32	0.25	Control	0.5217	0.0	No	2.88	0.02	n/a	NoResponse	0	n/a	n/a	1	45	Cue	Neutral	False
429.571	4.1	Control	0.5217	0.0	No	2.88	0.001	n/a	NoResponse	0	n/a	n/a	1	45	Fixation	Neutral	False
433.666	0.35	Control	0.5217	0.004	No	2.88	-0.004	n/a	NoResponse	0	n/a	n/a	1	45	Target	Neutral	False
434.017	0.35	Control	0.5217	n/a	No	2.88	n/a	n/a	NoResponse	0	n/a	n/a	1	45	Blank	Neutral	False
434.368	1.45	Control	0.5217	n/a	No	2.88	n/a	5.0	NoResponse	0	0.04	433.408	1	45	Feedback	Neutral	False
435.823	2.88	Control	0.5217	n/a	No	2.88	n/a	n/a	NoResponse	0	0.0	n/a	1	45	ISIslide	Neutral	False
438.731	0.25	Lose2	0.5106	0.0	No	3.369	0.031	n/a	NoResponse	-1	n/a	n/a	0	46	Cue	Loss	True
438.982	4.0	Lose2	0.5106	0.0	No	3.369	0.001	n/a	NoResponse	-1	n/a	n/a	0	46	Fixation	Loss	True
442.977	0.36	Lose2	0.5106	0.004	No	3.369	-0.004	2.0	NoResponse	-1	0.456	442.433	0	46	Target	Loss	True
443.345	0.34	Lose2	0.5106	n/a	No	3.369	n/a	n/a	NoResponse	-1	n/a	n/a	0	46	Blank	Loss	True
443.433	0.3	Lose2	0.5106	0.004	No	3.369	-0.004	2.0	NoResponse	-1	0.456	n/a	0	46	ButtonPress	Loss	True
443.68	1.45	Lose2	0.5106	n/a	No	3.369	n/a	5.0	NoResponse	-1	0.045	442.725	0	46	Feedback	Loss	True
445.134	3.369	Lose2	0.5106	n/a	No	3.369	n/a	2.0	NoResponse	-1	0.151	n/a	0	46	ISIslide	Loss	True
448.511	0.25	Lose2	0.5207999999999999	0.0	Yes	2.689	0.011	2.0	GoodResponse	0	0.203	447.714	0	47	Cue	AvoidedLoss	False
448.714	0.3	Lose2	0.5207999999999999	0.0	Yes	2.689	0.011	2.0	GoodResponse	0	0.203	n/a	0	47	ButtonPress	AvoidedLoss	False
448.761	4.0	Lose2	0.5207999999999999	0.0	Yes	2.689	0.0	n/a	GoodResponse	0	n/a	n/a	0	47	Fixation	AvoidedLoss	False
452.757	0.37	Lose2	0.5207999999999999	0.004	Yes	2.689	-0.004	2.0	GoodResponse	0	0.217	451.974	0	47	Target	AvoidedLoss	False
452.974	0.3	Lose2	0.5207999999999999	0.004	Yes	2.689	-0.004	2.0	GoodResponse	0	0.217	n/a	0	47	ButtonPress	AvoidedLoss	False
453.141	0.33	Lose2	0.5207999999999999	n/a	Yes	2.689	n/a	n/a	GoodResponse	0	n/a	n/a	0	47	Blank	AvoidedLoss	False
453.459	1.45	Lose2	0.5207999999999999	n/a	Yes	2.689	n/a	5.0	GoodResponse	0	0.022	452.481	0	47	Feedback	AvoidedLoss	False
454.913	2.689	Lose2	0.5207999999999999	n/a	Yes	2.689	n/a	n/a	GoodResponse	0	0.0	n/a	0	47	ISIslide	AvoidedLoss	False
457.621	0.25	Lose2	0.5306000000000001	0.0	Yes	3.029	0.021	n/a	GoodResponse	0	n/a	n/a	0	48	Cue	AvoidedLoss	True
457.872	3.95	Lose2	0.5306000000000001	0.0	Yes	3.029	0.001	n/a	GoodResponse	0	n/a	n/a	0	48	Fixation	AvoidedLoss	True
461.817	0.38	Lose2	0.5306000000000001	0.004	Yes	3.029	-0.004	2.0	GoodResponse	0	0.306	461.123	0	48	Target	AvoidedLoss	True
462.123	0.3	Lose2	0.5306000000000001	0.004	Yes	3.029	-0.004	2.0	GoodResponse	0	0.306	n/a	0	48	ButtonPress	AvoidedLoss	True
462.202	0.32	Lose2	0.5306000000000001	n/a	Yes	3.029	n/a	n/a	GoodResponse	0	n/a	n/a	0	48	Blank	AvoidedLoss	True
462.519	1.45	Lose2	0.5306000000000001	n/a	Yes	3.029	n/a	5.0	GoodResponse	0	0.035	461.554	0	48	Feedback	AvoidedLoss	True
463.974	3.029	Lose2	0.5306000000000001	n/a	Yes	3.029	n/a	n/a	GoodResponse	0	0.0	n/a	0	48	ISIslide	AvoidedLoss	True
467.016	0.25	Control	0.52	0.0	No	2.884	0.016	n/a	NoResponse	0	n/a	n/a	0	49	Cue	Neutral	False
467.267	4.0	Control	0.52	0.0	No	2.884	0.001	n/a	NoResponse	0	n/a	n/a	0	49	Fixation	Neutral	False
471.262	0.39	Control	0.52	0.004	No	2.884	-0.004	n/a	NoResponse	0	n/a	n/a	0	49	Target	Neutral	False
471.663	0.31	Control	0.52	n/a	No	2.884	n/a	n/a	NoResponse	0	n/a	n/a	0	49	Blank	Neutral	False
471.964	1.45	Control	0.52	n/a	No	2.884	n/a	5.0	NoResponse	0	0.007	470.971	0	49	Feedback	Neutral	False
473.418	2.884	Control	0.52	n/a	No	2.884	n/a	n/a	NoResponse	0	0.0	n/a	0	49	ISIslide	Neutral	False
476.327	0.25	Control	0.5097999999999999	0.0	No	2.773	0.027	n/a	NoResponse	0	n/a	n/a	0	50	Cue	Neutral	False
476.578	4.0	Control	0.5097999999999999	0.0	No	2.773	0.001	n/a	NoResponse	0	n/a	n/a	0	50	Fixation	Neutral	False
480.573	0.4	Control	0.5097999999999999	0.004	No	2.773	-0.004	n/a	NoResponse	0	n/a	n/a	0	50	Target	Neutral	False
480.974	0.3	Control	0.5097999999999999	n/a	No	2.773	n/a	n/a	NoResponse	0	n/a	n/a	0	50	Blank	Neutral	False
481.275	1.45	Control	0.5097999999999999	n/a	No	2.773	n/a	5.0	NoResponse	0	0.01	480.285	0	50	Feedback	Neutral	False
482.73	2.773	Control	0.5097999999999999	n/a	No	2.773	n/a	n/a	NoResponse	0	0.0	n/a	0	50	ISIslide	Neutral	False
485.521	0.25	Control	0.5	0.0	No	2.729	0.021	n/a	NoResponse	0	n/a	n/a	0	51	Cue	Neutral	True
485.772	3.95	Control	0.5	0.0	No	2.729	0.001	2.0	NoResponse	0	3.642	488.414	0	51	Fixation	Neutral	True
489.414	0.3	Control	0.5	0.0	No	2.729	0.001	2.0	NoResponse	0	3.642	n/a	0	51	ButtonPress	Neutral	True
489.717	0.41	Control	0.5	0.004	No	2.729	-0.004	n/a	NoResponse	0	n/a	n/a	0	51	Target	Neutral	True
490.135	0.29	Control	0.5	n/a	No	2.729	n/a	n/a	NoResponse	0	n/a	n/a	0	51	Blank	Neutral	True
490.419	1.45	Control	0.5	n/a	No	2.729	n/a	5.0	NoResponse	0	0.037	489.456	0	51	Feedback	Neutral	True
491.874	2.729	Control	0.5	n/a	No	2.729	n/a	n/a	NoResponse	0	0.0	n/a	0	51	ISIslide	Neutral	True
494.615	0.25	Control	0.5094	0.0	Yes	2.635	0.015	n/a	GoodResponse	0	n/a	n/a	0	52	Cue	Neutral	False
494.866	4.05	Control	0.5094	0.0	Yes	2.635	0.001	2.0	GoodResponse	0	3.536	497.402	0	52	Fixation	Neutral	False
498.402	0.3	Control	0.5094	0.0	Yes	2.635	0.001	2.0	GoodResponse	0	3.536	n/a	0	52	ButtonPress	Neutral	False
498.911	0.42	Control	0.5094	0.004	Yes	2.635	-0.004	2.0	GoodResponse	0	0.114	498.025	0	52	Target	Neutral	False
499.025	0.3	Control	0.5094	0.004	Yes	2.635	-0.004	2.0	GoodResponse	0	0.114	n/a	0	52	ButtonPress	Neutral	False
499.346	0.28	Control	0.5094	n/a	Yes	2.635	n/a	n/a	GoodResponse	0	n/a	n/a	0	52	Blank	Neutral	False
499.613	1.45	Control	0.5094	n/a	Yes	2.635	n/a	5.0	GoodResponse	0	0.014	498.627	0	52	Feedback	Neutral	False
501.068	2.635	Control	0.5094	n/a	Yes	2.635	n/a	n/a	GoodResponse	0	0.0	n/a	0	52	ISIslide	Neutral	False
503.726	0.25	Win2	0.5185	0.0	Yes	2.924	0.026	n/a	GoodResponse	1	n/a	n/a	1	53	Cue	Win	True
503.976	4.05	Win2	0.5185	0.001	Yes	2.924	0.0	n/a	GoodResponse	1	n/a	n/a	1	53	Fixation	Win	True
508.022	0.43	Win2	0.5185	0.004	Yes	2.924	-0.004	2.0	GoodResponse	1	0.262	507.284	1	53	Target	Win	True
508.284	0.3	Win2	0.5185	0.004	Yes	2.924	-0.004	2.0	GoodResponse	1	0.262	n/a	1	53	ButtonPress	Win	True
508.457	0.27	Win2	0.5185	n/a	Yes	2.924	n/a	n/a	GoodResponse	1	n/a	n/a	1	53	Blank	Win	True
508.724	1.45	Win2	0.5185	n/a	Yes	2.924	n/a	5.0	GoodResponse	1	0.025	507.749	1	53	Feedback	Win	True
510.178	2.924	Win2	0.5185	n/a	Yes	2.924	n/a	n/a	GoodResponse	1	0.0	n/a	1	53	ISIslide	Win	True
513.121	0.25	Win2	0.5273	0.0	Yes	2.729	0.021	n/a	GoodResponse	1	n/a	n/a	2	54	Cue	Win	True
513.371	3.95	Win2	0.5273	0.0	Yes	2.729	0.0	n/a	GoodResponse	1	n/a	n/a	2	54	Fixation	Win	True
517.333	0.44	Win2	0.5273	0.0	Yes	2.729	0.012	2.0	GoodResponse	1	0.209	516.542	2	54	Target	Win	True
517.542	0.3	Win2	0.5273	0.0	Yes	2.729	0.012	2.0	GoodResponse	1	0.209	n/a	2	54	ButtonPress	Win	True
517.768	0.26	Win2	0.5273	n/a	Yes	2.729	n/a	n/a	GoodResponse	1	n/a	n/a	2	54	Blank	Win	True
518.018	1.45	Win2	0.5273	n/a	Yes	2.729	n/a	5.0	GoodResponse	1	0.047	517.065	2	54	Feedback	Win	True
519.473	2.729	Win2	0.5273	n/a	Yes	2.729	n/a	n/a	GoodResponse	1	0.0	n/a	2	54	ISIslide	Win	True
522.214	0.25	Control	0.5179	0.0	No	3.036	0.014	n/a	NoResponse	0	n/a	n/a	2	55	Cue	Neutral	True
522.465	3.95	Control	0.5179	0.0	No	3.036	0.001	n/a	NoResponse	0	n/a	n/a	2	55	Fixation	Neutral	True
526.41	0.45	Control	0.5179	0.004	No	3.036	-0.004	2.0	NoResponse	0	0.632	526.042	2	55	Target	Neutral	True
526.862	0.25	Control	0.5179	n/a	No	3.036	n/a	n/a	NoResponse	0	n/a	n/a	2	55	Blank	Neutral	True
527.042	0.3	Control	0.5179	0.004	No	3.036	-0.004	2.0	NoResponse	0	0.632	n/a	2	55	ButtonPress	Neutral	True
527.112	1.45	Control	0.5179	n/a	No	3.036	n/a	5.0	NoResponse	0	0.026	526.138	2	55	Feedback	Neutral	True
528.567	3.036	Control	0.5179	n/a	No	3.036	n/a	n/a	NoResponse	0	0.0	n/a	2	55	ISIslide	Neutral	True
531.626	0.25	Control	0.5263	0.0	Yes	2.824	0.026	n/a	GoodResponse	0	n/a	n/a	2	56	Cue	Neutral	True
531.877	3.95	Control	0.5263	0.0	Yes	2.824	0.001	n/a	GoodResponse	0	n/a	n/a	2	56	Fixation	Neutral	True
535.822	0.46	Control	0.5263	0.004	Yes	2.824	-0.004	2.0	GoodResponse	0	0.237	535.059	2	56	Target	Neutral	True
536.059	0.3	Control	0.5263	0.004	Yes	2.824	-0.004	2.0	GoodResponse	0	0.237	n/a	2	56	ButtonPress	Neutral	True
536.29	0.24	Control	0.5263	n/a	Yes	2.824	n/a	n/a	GoodResponse	0	n/a	n/a	2	56	Blank	Neutral	True
536.524	1.45	Control	0.5263	n/a	Yes	2.824	n/a	5.0	GoodResponse	0	0.029	535.553	2	56	Feedback	Neutral	True
537.978	2.824	Control	0.5263	n/a	Yes	2.824	n/a	n/a	GoodResponse	0	0.0	n/a	2	56	ISIslide	Neutral	True
540.82	0.25	Control	0.5172	0.0	No	3.48	0.02	n/a	NoResponse	0	n/a	n/a	2	57	Cue	Neutral	False
541.071	4.0	Control	0.5172	0.0	No	3.48	0.001	n/a	NoResponse	0	n/a	n/a	2	57	Fixation	Neutral	False
545.066	0.47	Control	0.5172	0.004	No	3.48	-0.004	n/a	NoResponse	0	n/a	n/a	2	57	Target	Neutral	False
545.551	0.23	Control	0.5172	n/a	No	3.48	n/a	n/a	NoResponse	0	n/a	n/a	2	57	Blank	Neutral	False
545.768	1.45	Control	0.5172	n/a	No	3.48	n/a	5.0	NoResponse	0	0.008	544.776	2	57	Feedback	Neutral	False
547.222	3.48	Control	0.5172	n/a	No	3.48	n/a	n/a	NoResponse	0	0.0	n/a	2	57	ISIslide	Neutral	False
550.716	0.25	Win2	0.5254	0.0	Yes	2.734	0.016	n/a	GoodResponse	1	n/a	n/a	3	58	Cue	Win	True
550.967	4.05	Win2	0.5254	0.0	Yes	2.734	0.001	n/a	GoodResponse	1	n/a	n/a	3	58	Fixation	Win	True
555.012	0.48	Win2	0.5254	0.004	Yes	2.734	-0.004	2.0	GoodResponse	1	0.276	554.288	3	58	Target	Win	True
555.288	0.3	Win2	0.5254	0.004	Yes	2.734	-0.004	2.0	GoodResponse	1	0.276	n/a	3	58	ButtonPress	Win	True
555.497	0.22	Win2	0.5254	n/a	Yes	2.734	n/a	n/a	GoodResponse	1	n/a	n/a	3	58	Blank	Win	True
555.715	1.45	Win2	0.5254	n/a	Yes	2.734	n/a	5.0	GoodResponse	1	0.009	554.724	3	58	Feedback	Win	True
557.169	2.734	Win2	0.5254	n/a	Yes	2.734	n/a	n/a	GoodResponse	1	0.0	n/a	3	58	ISIslide	Win	True
559.927	0.25	Lose2	0.5167	0.0	No	2.673	0.027	n/a	NoResponse	-1	n/a	n/a	2	59	Cue	Loss	False
560.178	4.0	Lose2	0.5167	0.0	No	2.673	0.001	n/a	NoResponse	-1	n/a	n/a	2	59	Fixation	Loss	False
564.173	0.49	Lose2	0.5167	0.004	No	2.673	-0.004	n/a	NoResponse	-1	n/a	n/a	2	59	Target	Loss	False
564.675	0.21	Lose2	0.5167	n/a	No	2.673	n/a	n/a	NoResponse	-1	n/a	n/a	2	59	Blank	Loss	False
564.875	1.45	Lose2	0.5167	n/a	No	2.673	n/a	5.0	NoResponse	-1	0.019	563.894	2	59	Feedback	Loss	False
566.33	2.673	Lose2	0.5167	n/a	No	2.673	n/a	n/a	NoResponse	-1	0.0	n/a	2	59	ISIslide	Loss	False
569.021	0.25	Control	0.5246	0.0	Yes	2.679	0.021	n/a	GoodResponse	0	n/a	n/a	2	60	Cue	Neutral	True
569.272	4.0	Control	0.5246	0.0	Yes	2.679	0.001	n/a	GoodResponse	0	n/a	n/a	2	60	Fixation	Neutral	True
573.267	0.5	Control	0.5246	0.004	Yes	2.679	-0.004	2.0	GoodResponse	0	0.375	572.642	2	60	Target	Neutral	True
573.642	0.3	Control	0.5246	0.004	Yes	2.679	-0.004	2.0	GoodResponse	0	0.375	n/a	2	60	ButtonPress	Neutral	True
573.769	0.2	Control	0.5246	n/a	Yes	2.679	n/a	n/a	GoodResponse	0	n/a	n/a	2	60	Blank	Neutral	True
573.969	1.45	Control	0.5246	n/a	Yes	2.679	n/a	5.0	GoodResponse	0	0.047	573.016	2	60	Feedback	Neutral	True
575.423	2.679	Control	0.5246	n/a	Yes	2.679	n/a	n/a	GoodResponse	0	0.0	n/a	2	60	ISIslide	Neutral	True
578.115	0.25	Lose2	0.5323	0.0	Yes	2.985	0.015	n/a	GoodResponse	0	n/a	n/a	2	61	Cue	AvoidedLoss	True
578.366	4.0	Lose2	0.5323	0.0	Yes	2.985	0.001	n/a	GoodResponse	0	n/a	n/a	2	61	Fixation	AvoidedLoss	True
582.361	0.5	Lose2	0.5323	0.004	Yes	2.985	-0.004	2.0	GoodResponse	0	0.248	581.609	2	61	Target	AvoidedLoss	True
582.609	0.3	Lose2	0.5323	0.004	Yes	2.985	-0.004	2.0	GoodResponse	0	0.248	n/a	2	61	ButtonPress	AvoidedLoss	True
582.862	0.2	Lose2	0.5323	n/a	Yes	2.985	n/a	n/a	GoodResponse	0	n/a	n/a	2	61	Blank	AvoidedLoss	True
583.063	1.45	Lose2	0.5323	n/a	Yes	2.985	n/a	5.0	GoodResponse	0	0.026	582.089	2	61	Feedback	AvoidedLoss	True
584.517	2.985	Lose2	0.5323	n/a	Yes	2.985	n/a	n/a	GoodResponse	0	0.0	n/a	2	61	ISIslide	AvoidedLoss	True
587.526	0.25	Lose2	0.5238	0.0	No	2.874	0.026	n/a	NoResponse	-1	n/a	n/a	1	62	Cue	Loss	True
587.777	3.9	Lose2	0.5238	0.0	No	2.874	0.001	n/a	NoResponse	-1	n/a	n/a	1	62	Fixation	Loss	True
591.672	0.5	Lose2	0.5238	0.004	No	2.874	-0.004	2.0	NoResponse	-1	0.548	591.22	1	62	Target	Loss	True
592.174	0.2	Lose2	0.5238	n/a	No	2.874	n/a	n/a	NoResponse	-1	n/a	n/a	1	62	Blank	Loss	True
592.22	0.3	Lose2	0.5238	0.004	No	2.874	-0.004	2.0	NoResponse	-1	0.548	n/a	1	62	ButtonPress	Loss	True
592.374	1.45	Lose2	0.5238	n/a	No	2.874	n/a	5.0	NoResponse	-1	0.032	591.406	1	62	Feedback	Loss	True
593.828	2.874	Lose2	0.5238	n/a	No	2.874	n/a	n/a	NoResponse	-1	0.0	n/a	1	62	ISIslide	Loss	True
596.72	0.25	Lose2	0.5312	0.001	Yes	2.63	0.02	n/a	GoodResponse	0	n/a	n/a	1	63	Cue	AvoidedLoss	True
596.971	4.05	Lose2	0.5312	0.0	Yes	2.63	0.001	n/a	GoodResponse	0	n/a	n/a	1	63	Fixation	AvoidedLoss	True
601.017	0.5	Lose2	0.5312	0.003	Yes	2.63	-0.003	2.0	GoodResponse	0	0.257	600.274	1	63	Target	AvoidedLoss	True
601.274	0.3	Lose2	0.5312	0.003	Yes	2.63	-0.003	2.0	GoodResponse	0	0.257	n/a	1	63	ButtonPress	AvoidedLoss	True
601.518	0.2	Lose2	0.5312	n/a	Yes	2.63	n/a	n/a	GoodResponse	0	n/a	n/a	1	63	Blank	AvoidedLoss	True
601.719	1.45	Lose2	0.5312	n/a	Yes	2.63	n/a	5.0	GoodResponse	0	0.006	600.725	1	63	Feedback	AvoidedLoss	True
603.173	2.63	Lose2	0.5312	n/a	Yes	2.63	n/a	n/a	GoodResponse	0	0.0	n/a	1	63	ISIslide	AvoidedLoss	True
605.831	0.25	Win2	0.5385	0.0	Yes	3.119	0.031	n/a	GoodResponse	1	n/a	n/a	2	64	Cue	Win	True
606.082	4.15	Win2	0.5385	0.0	Yes	3.119	0.001	n/a	GoodResponse	1	n/a	n/a	2	64	Fixation	Win	True
610.228	0.5	Win2	0.5385	0.003	Yes	3.119	-0.003	2.0	GoodResponse	1	0.189	609.417	2	64	Target	Win	True
610.417	0.3	Win2	0.5385	0.003	Yes	3.119	-0.003	2.0	GoodResponse	1	0.189	n/a	2	64	ButtonPress	Win	True
610.729	0.2	Win2	0.5385	n/a	Yes	3.119	n/a	n/a	GoodResponse	1	n/a	n/a	2	64	Blank	Win	True
610.93	1.45	Win2	0.5385	n/a	Yes	3.119	n/a	5.0	GoodResponse	1	0.012	609.942	2	64	Feedback	Win	True
612.384	3.119	Win2	0.5385	n/a	Yes	3.119	n/a	n/a	GoodResponse	1	0.0	n/a	2	64	ISIslide	Win	True
615.527	0.25	Control	0.5303	0.0	No	2.773	0.027	n/a	NoResponse	0	n/a	n/a	2	65	Cue	Neutral	False
615.777	4.0	Control	0.5303	0.001	No	2.773	0.0	n/a	NoResponse	0	n/a	n/a	2	65	Fixation	Neutral	False
619.773	0.5	Control	0.5303	0.004	No	2.773	-0.004	n/a	NoResponse	0	n/a	n/a	2	65	Target	Neutral	False
620.274	0.2	Control	0.5303	n/a	No	2.773	n/a	n/a	NoResponse	0	n/a	n/a	2	65	Blank	Neutral	False
620.475	1.45	Control	0.5303	n/a	No	2.773	n/a	5.0	NoResponse	0	0.028	619.503	2	65	Feedback	Neutral	False
621.929	2.773	Control	0.5303	n/a	No	2.773	n/a	n/a	NoResponse	0	0.0	n/a	2	65	ISIslide	Neutral	False
624.721	0.25	Win2	0.5373	0.0	Yes	2.779	0.021	n/a	GoodResponse	1	n/a	n/a	3	66	Cue	Win	True
624.972	3.9	Win2	0.5373	0.0	Yes	2.779	0.001	n/a	GoodResponse	1	n/a	n/a	3	66	Fixation	Win	True
628.867	0.5	Win2	0.5373	0.004	Yes	2.779	-0.004	2.0	GoodResponse	1	0.185	628.052	3	66	Target	Win	True
629.052	0.3	Win2	0.5373	0.004	Yes	2.779	-0.004	2.0	GoodResponse	1	0.185	n/a	3	66	ButtonPress	Win	True
629.368	0.2	Win2	0.5373	n/a	Yes	2.779	n/a	n/a	GoodResponse	1	n/a	n/a	3	66	Blank	Win	True
629.569	1.45	Win2	0.5373	n/a	Yes	2.779	n/a	5.0	GoodResponse	1	0.007	628.576	3	66	Feedback	Win	True
631.023	2.779	Win2	0.5373	n/a	Yes	2.779	n/a	n/a	GoodResponse	1	0.0	n/a	3	66	ISIslide	Win	True
633.815	0.25	Control	0.5294	0.0	No	2.735	0.015	n/a	NoResponse	0	n/a	n/a	3	67	Cue	Neutral	False
634.065	3.95	Control	0.5294	0.001	No	2.735	0.0	n/a	NoResponse	0	n/a	n/a	3	67	Fixation	Neutral	False
638.011	0.5	Control	0.5294	0.004	No	2.735	-0.004	n/a	NoResponse	0	n/a	n/a	3	67	Target	Neutral	False
638.512	0.2	Control	0.5294	n/a	No	2.735	n/a	n/a	NoResponse	0	n/a	n/a	3	67	Blank	Neutral	False
638.713	1.45	Control	0.5294	n/a	No	2.735	n/a	5.0	NoResponse	0	0.034	637.747	3	67	Feedback	Neutral	False
640.167	2.735	Control	0.5294	n/a	No	2.735	n/a	n/a	NoResponse	0	0.0	n/a	3	67	ISIslide	Neutral	False
642.925	0.25	Win2	0.5362	0.0	Yes	3.075	0.025	n/a	GoodResponse	1	n/a	n/a	4	68	Cue	Win	True
643.176	4.0	Win2	0.5362	0.0	Yes	3.075	0.001	n/a	GoodResponse	1	n/a	n/a	4	68	Fixation	Win	True
647.171	0.5	Win2	0.5362	0.004	Yes	3.075	-0.004	2.0	GoodResponse	1	0.248	646.419	4	68	Target	Win	True
647.419	0.3	Win2	0.5362	0.004	Yes	3.075	-0.004	2.0	GoodResponse	1	0.248	n/a	4	68	ButtonPress	Win	True
647.673	0.2	Win2	0.5362	n/a	Yes	3.075	n/a	n/a	GoodResponse	1	n/a	n/a	4	68	Blank	Win	True
647.873	1.45	Win2	0.5362	n/a	Yes	3.075	n/a	5.0	GoodResponse	1	0.044	646.917	4	68	Feedback	Win	True
649.328	3.075	Win2	0.5362	n/a	Yes	3.075	n/a	n/a	GoodResponse	1	0.0	n/a	4	68	ISIslide	Win	True
652.42	0.25	Win2	0.5428999999999999	0.0	Yes	3.23	0.02	n/a	GoodResponse	1	n/a	n/a	5	69	Cue	Win	True
652.671	3.95	Win2	0.5428999999999999	0.0	Yes	3.23	0.001	n/a	GoodResponse	1	n/a	n/a	5	69	Fixation	Win	True
656.616	0.5	Win2	0.5428999999999999	0.004	Yes	3.23	-0.004	2.0	GoodResponse	1	0.237	655.853	5	69	Target	Win	True
656.853	0.3	Win2	0.5428999999999999	0.004	Yes	3.23	-0.004	2.0	GoodResponse	1	0.237	n/a	5	69	ButtonPress	Win	True
657.118	0.2	Win2	0.5428999999999999	n/a	Yes	3.23	n/a	n/a	GoodResponse	1	n/a	n/a	5	69	Blank	Win	True
657.318	1.45	Win2	0.5428999999999999	n/a	Yes	3.23	n/a	5.0	GoodResponse	1	0.014	656.332	5	69	Feedback	Win	True
658.773	3.23	Win2	0.5428999999999999	n/a	Yes	3.23	n/a	n/a	GoodResponse	1	0.0	n/a	5	69	ISIslide	Win	True
662.016	0.25	Lose2	0.5493	0.0	Yes	3.034	0.016	n/a	GoodResponse	0	n/a	n/a	5	70	Cue	AvoidedLoss	True
662.266	4.05	Lose2	0.5493	0.001	Yes	3.034	0.0	n/a	GoodResponse	0	n/a	n/a	5	70	Fixation	AvoidedLoss	True
666.312	0.5	Lose2	0.5493	0.004	Yes	3.034	-0.004	2.0	GoodResponse	0	0.228	665.54	5	70	Target	AvoidedLoss	True
666.54	0.3	Lose2	0.5493	0.004	Yes	3.034	-0.004	2.0	GoodResponse	0	0.228	n/a	5	70	ButtonPress	AvoidedLoss	True
666.813	0.2	Lose2	0.5493	n/a	Yes	3.034	n/a	n/a	GoodResponse	0	n/a	n/a	5	70	Blank	AvoidedLoss	True
667.014	1.45	Lose2	0.5493	n/a	Yes	3.034	n/a	5.0	GoodResponse	0	0.025	666.039	5	70	Feedback	AvoidedLoss	True
668.468	3.034	Lose2	0.5493	n/a	Yes	3.034	n/a	n/a	GoodResponse	0	0.0	n/a	5	70	ISIslide	AvoidedLoss	True
671.527	0.25	Win2	0.5417000000000001	0.001	No	2.723	0.027	n/a	NoResponse	0	n/a	n/a	5	71	Cue	MissedWin	False
671.778	4.05	Win2	0.5417000000000001	0.0	No	2.723	0.001	n/a	NoResponse	0	n/a	n/a	5	71	Fixation	MissedWin	False
675.824	0.5	Win2	0.5417000000000001	0.003	No	2.723	-0.003	n/a	NoResponse	0	n/a	n/a	5	71	Target	MissedWin	False
676.325	0.2	Win2	0.5417000000000001	n/a	No	2.723	n/a	n/a	NoResponse	0	n/a	n/a	5	71	Blank	MissedWin	False
676.526	1.45	Win2	0.5417000000000001	n/a	No	2.723	n/a	5.0	NoResponse	0	0.025	675.551	5	71	Feedback	MissedWin	False
677.98	2.723	Win2	0.5417000000000001	n/a	No	2.723	n/a	n/a	NoResponse	0	0.0	n/a	5	71	ISIslide	MissedWin	False
680.722	0.25	Win2	0.5342	0.0	No	2.778	0.022	n/a	NoResponse	0	n/a	n/a	5	72	Cue	MissedWin	False
680.972	4.1	Win2	0.5342	0.0	No	2.778	0.0	n/a	NoResponse	0	n/a	n/a	5	72	Fixation	MissedWin	False
685.068	0.5	Win2	0.5342	0.004	No	2.778	-0.004	n/a	NoResponse	0	n/a	n/a	5	72	Target	MissedWin	False
685.569	0.2	Win2	0.5342	n/a	No	2.778	n/a	n/a	NoResponse	0	n/a	n/a	5	72	Blank	MissedWin	False
685.77	1.45	Win2	0.5342	n/a	No	2.778	n/a	5.0	NoResponse	0	0.001	684.771	5	72	Feedback	MissedWin	False
687.224	2.778	Win2	0.5342	n/a	No	2.778	n/a	n/a	NoResponse	0	0.0	n/a	5	72	ISIslide	MissedWin	False
690.016	0.25	Win2	0.5405	0.0	Yes	2.684	0.016	n/a	GoodResponse	1	n/a	n/a	6	73	Cue	Win	True
690.267	4.0	Win2	0.5405	0.0	Yes	2.684	0.001	n/a	GoodResponse	1	n/a	n/a	6	73	Fixation	Win	True
694.262	0.5	Win2	0.5405	0.004	Yes	2.684	-0.004	2.0	GoodResponse	1	0.244	693.506	6	73	Target	Win	True
694.506	0.3	Win2	0.5405	0.004	Yes	2.684	-0.004	2.0	GoodResponse	1	0.244	n/a	6	73	ButtonPress	Win	True
694.764	0.2	Win2	0.5405	n/a	Yes	2.684	n/a	n/a	GoodResponse	1	n/a	n/a	6	73	Blank	Win	True
694.964	1.45	Win2	0.5405	n/a	Yes	2.684	n/a	5.0	GoodResponse	1	0.026	693.99	6	73	Feedback	Win	True
696.419	2.684	Win2	0.5405	n/a	Yes	2.684	n/a	n/a	GoodResponse	1	0.0	n/a	6	73	ISIslide	Win	True
699.127	0.25	Lose2	0.5333	0.0	No	2.623	0.027	n/a	NoResponse	-1	n/a	n/a	5	74	Cue	Loss	False
699.377	4.05	Lose2	0.5333	0.0	No	2.623	0.0	n/a	NoResponse	-1	n/a	n/a	5	74	Fixation	Loss	False
703.423	0.5	Lose2	0.5333	0.004	No	2.623	-0.004	n/a	NoResponse	-1	n/a	n/a	5	74	Target	Loss	False
703.924	0.2	Lose2	0.5333	n/a	No	2.623	n/a	n/a	NoResponse	-1	n/a	n/a	5	74	Blank	Loss	False
704.125	1.45	Lose2	0.5333	n/a	No	2.623	n/a	5.0	NoResponse	-1	0.035	703.16	5	74	Feedback	Loss	False
705.579	2.623	Lose2	0.5333	n/a	No	2.623	n/a	n/a	NoResponse	-1	0.0	n/a	5	74	ISIslide	Loss	False
708.22	0.25	Lose2	0.5395	0.001	Yes	2.93	0.02	n/a	GoodResponse	0	n/a	n/a	5	75	Cue	AvoidedLoss	True
708.471	3.95	Lose2	0.5395	0.0	Yes	2.93	0.001	n/a	GoodResponse	0	n/a	n/a	5	75	Fixation	AvoidedLoss	True
712.416	0.5	Lose2	0.5395	0.004	Yes	2.93	-0.004	2.0	GoodResponse	0	0.218	711.634	5	75	Target	AvoidedLoss	True
712.634	0.3	Lose2	0.5395	0.004	Yes	2.93	-0.004	2.0	GoodResponse	0	0.218	n/a	5	75	ButtonPress	AvoidedLoss	True
712.918	0.2	Lose2	0.5395	n/a	Yes	2.93	n/a	n/a	GoodResponse	0	n/a	n/a	5	75	Blank	AvoidedLoss	True
713.118	1.45	Lose2	0.5395	n/a	Yes	2.93	n/a	5.0	GoodResponse	0	0.018	712.136	5	75	Feedback	AvoidedLoss	True
714.573	2.93	Lose2	0.5395	n/a	Yes	2.93	n/a	n/a	GoodResponse	0	0.0	n/a	5	75	ISIslide	AvoidedLoss	True
717.515	0.25	Control	0.5455	0.0	Yes	3.235	0.015	n/a	GoodResponse	0	n/a	n/a	5	76	Cue	Neutral	True
717.766	4.05	Control	0.5455	0.0	Yes	3.235	0.001	n/a	GoodResponse	0	n/a	n/a	5	76	Fixation	Neutral	True
721.811	0.5	Control	0.5455	0.004	Yes	3.235	-0.004	2.0	GoodResponse	0	0.258	721.069	5	76	Target	Neutral	True
722.069	0.3	Control	0.5455	0.004	Yes	3.235	-0.004	2.0	GoodResponse	0	0.258	n/a	5	76	ButtonPress	Neutral	True
722.313	0.2	Control	0.5455	n/a	Yes	3.235	n/a	n/a	GoodResponse	0	n/a	n/a	5	76	Blank	Neutral	True
722.513	1.45	Control	0.5455	n/a	Yes	3.235	n/a	5.0	GoodResponse	0	0.038	721.551	5	76	Feedback	Neutral	True
723.968	3.235	Control	0.5455	n/a	Yes	3.235	n/a	n/a	GoodResponse	0	0.0	n/a	5	76	ISIslide	Neutral	True
727.227	0.25	Lose2	0.5513	0.0	Yes	2.573	0.027	n/a	GoodResponse	0	n/a	n/a	5	77	Cue	AvoidedLoss	True
727.478	3.95	Lose2	0.5513	0.0	Yes	2.573	0.001	n/a	GoodResponse	0	n/a	n/a	5	77	Fixation	AvoidedLoss	True
731.423	0.5	Lose2	0.5513	0.004	Yes	2.573	-0.004	2.0	GoodResponse	0	0.256	730.679	5	77	Target	AvoidedLoss	True
731.679	0.3	Lose2	0.5513	0.004	Yes	2.573	-0.004	2.0	GoodResponse	0	0.256	n/a	5	77	ButtonPress	AvoidedLoss	True
731.925	0.2	Lose2	0.5513	n/a	Yes	2.573	n/a	n/a	GoodResponse	0	n/a	n/a	5	77	Blank	AvoidedLoss	True
732.125	1.45	Lose2	0.5513	n/a	Yes	2.573	n/a	5.0	GoodResponse	0	0.036	731.161	5	77	Feedback	AvoidedLoss	True
733.58	2.573	Lose2	0.5513	n/a	Yes	2.573	n/a	n/a	GoodResponse	0	0.0	n/a	5	77	ISIslide	AvoidedLoss	True
