onset	duration	cue_type	current_mean_accuracy	duration_error	is_hit	isi_adjusted	onset_delay	response	response_type	reward	rt	rt_time	total_reward	trial_number	trial_phase	trial_type	one_press
11.1	0.25	Control	1.0	0.0	Yes	2.95	0.0	n/a	GoodResponse	0	n/a	n/a	0	0	Cue	Neutral	False
11.35	3.85	Control	1.0	0.0	Yes	2.95	0.0	2.0	GoodResponse	0	0.532	10.882	0	0	Fixation	Neutral	False
11.882	0.3	Control	1.0	0.0	Yes	2.95	0.0	2.0	GoodResponse	0	0.532	n/a	0	0	ButtonPress	Neutral	False
15.198	0.4	Control	1.0	0.002	Yes	2.95	-0.002	2.0	GoodResponse	0	0.225	14.423	0	0	Target	Neutral	False
15.423	0.3	Control	1.0	0.002	Yes	2.95	-0.002	2.0	GoodResponse	0	0.225	n/a	0	0	ButtonPress	Neutral	False
15.598	0.3	Control	1.0	n/a	Yes	2.95	n/a	n/a	GoodResponse	0	n/a	n/a	0	0	Blank	Neutral	False
15.898	1.45	Control	1.0	n/a	Yes	2.95	n/a	5.0	GoodResponse	0	0.028	14.926	0	0	Feedback	Neutral	False
17.348	2.95	Control	1.0	n/a	Yes	2.95	n/a	n/a	GoodResponse	0	0.0	n/a	0	0	ISIslide	Neutral	False
20.313	0.25	Lose2	1.0	0.0	Yes	2.787	0.013	n/a	GoodResponse	0	n/a	n/a	0	1	Cue	AvoidedLoss	True
20.563	4.0	Lose2	1.0	0.0	Yes	2.787	0.0	n/a	GoodResponse	0	n/a	n/a	0	1	Fixation	AvoidedLoss	True
24.562	0.39	Lose2	1.0	0.001	Yes	2.787	-0.001	2.0	GoodResponse	0	0.204	23.766	0	1	Target	AvoidedLoss	True
24.766	0.3	Lose2	1.0	0.001	Yes	2.787	-0.001	2.0	GoodResponse	0	0.204	n/a	0	1	ButtonPress	AvoidedLoss	True
24.962	0.31	Lose2	1.0	n/a	Yes	2.787	n/a	n/a	GoodResponse	0	n/a	n/a	0	1	Blank	AvoidedLoss	True
25.262	1.45	Lose2	1.0	n/a	Yes	2.787	n/a	5.0	GoodResponse	0	0.03	24.292	0	1	Feedback	AvoidedLoss	True
26.711	2.787	Lose2	1.0	n/a	Yes	2.787	n/a	n/a	GoodResponse	0	0.0	n/a	0	1	ISIslide	AvoidedLoss	True
29.527	0.25	Control	1.0	0.0	Yes	2.573	0.027	n/a	GoodResponse	0	n/a	n/a	0	2	Cue	Neutral	True
29.777	4.1	Control	1.0	0.0	Yes	2.573	0.0	n/a	GoodResponse	0	n/a	n/a	0	2	Fixation	Neutral	True
33.875	0.38	Control	1.0	0.002	Yes	2.573	-0.002	2.0	GoodResponse	0	0.191	33.066	0	2	Target	Neutral	True
34.066	0.3	Control	1.0	0.002	Yes	2.573	-0.002	2.0	GoodResponse	0	0.191	n/a	0	2	ButtonPress	Neutral	True
34.258	0.32	Control	1.0	n/a	Yes	2.573	n/a	n/a	GoodResponse	0	n/a	n/a	0	2	Blank	Neutral	True
34.575	1.45	Control	1.0	n/a	Yes	2.573	n/a	5.0	GoodResponse	0	0.034	33.609	0	2	Feedback	Neutral	True
36.024	2.573	Control	1.0	n/a	Yes	2.573	n/a	n/a	GoodResponse	0	0.0	n/a	0	2	ISIslide	Neutral	True
38.623	0.25	Win2	1.0	0.001	Yes	2.827	0.023	n/a	GoodResponse	1	n/a	n/a	1	3	Cue	Win	True
38.873	3.95	Win2	1.0	0.0	Yes	2.827	0.0	n/a	GoodResponse	1	n/a	n/a	1	3	Fixation	Win	True
42.822	0.37	Win2	1.0	0.001	Yes	2.827	-0.001	2.0	GoodResponse	1	0.183	42.005	1	3	Target	Win	True
43.005	0.3	Win2	1.0	0.001	Yes	2.827	-0.001	2.0	GoodResponse	1	0.183	n/a	1	3	ButtonPress	Win	True
43.189	0.33	Win2	1.0	n/a	Yes	2.827	n/a	n/a	GoodResponse	1	n/a	n/a	1	3	Blank	Win	True
43.522	1.45	Win2	1.0	n/a	Yes	2.827	n/a	5.0	GoodResponse	1	0.014	42.536	1	3	Feedback	Win	True
44.971	2.827	Win2	1.0	n/a	Yes	2.827	n/a	2.0	GoodResponse	1	1.703	n/a	1	3	ISIslide	Win	True
47.804	0.25	Win2	1.0	0.0	Yes	3.296	0.004	n/a	GoodResponse	1	n/a	n/a	2	4	Cue	Win	True
48.053	4.0	Win2	1.0	0.001	Yes	3.296	-0.001	n/a	GoodResponse	1	n/a	n/a	2	4	Fixation	Win	True
52.052	0.36	Win2	1.0	0.002	Yes	3.296	-0.002	2.0	GoodResponse	1	0.16	51.212	2	4	Target	Win	True
52.212	0.3	Win2	1.0	0.002	Yes	3.296	-0.002	2.0	GoodResponse	1	0.16	n/a	2	4	ButtonPress	Win	True
52.419	0.34	Win2	1.0	n/a	Yes	3.296	n/a	n/a	GoodResponse	1	n/a	n/a	2	4	Blank	Win	True
52.752	1.45	Win2	1.0	n/a	Yes	3.296	n/a	5.0	GoodResponse	1	0.007	51.759	2	4	Feedback	Win	True
54.201	3.296	Win2	1.0	n/a	Yes	3.296	n/a	n/a	GoodResponse	1	0.0	n/a	2	4	ISIslide	Win	True
57.517	0.25	Win2	1.0	0.0	Yes	2.783	0.017	n/a	GoodResponse	1	n/a	n/a	3	5	Cue	Win	True
57.767	4.0	Win2	1.0	0.0	Yes	2.783	0.0	n/a	GoodResponse	1	n/a	n/a	3	5	Fixation	Win	True
61.765	0.35	Win2	1.0	0.002	Yes	2.783	-0.002	2.0	GoodResponse	1	0.209	60.974	3	5	Target	Win	True
61.974	0.3	Win2	1.0	0.002	Yes	2.783	-0.002	2.0	GoodResponse	1	0.209	n/a	3	5	ButtonPress	Win	True
62.115	0.35	Win2	1.0	n/a	Yes	2.783	n/a	n/a	GoodResponse	1	n/a	n/a	3	5	Blank	Win	True
62.465	1.45	Win2	1.0	n/a	Yes	2.783	n/a	5.0	GoodResponse	1	0.046	61.511	3	5	Feedback	Win	True
63.915	2.783	Win2	1.0	n/a	Yes	2.783	n/a	n/a	GoodResponse	1	0.0	n/a	3	5	ISIslide	Win	True
66.714	0.25	Lose2	1.0	0.0	Yes	2.736	0.014	n/a	GoodResponse	0	n/a	n/a	3	6	Cue	AvoidedLoss	True
66.963	3.95	Lose2	1.0	0.001	Yes	2.736	-0.001	n/a	GoodResponse	0	n/a	n/a	3	6	Fixation	AvoidedLoss	True
70.912	0.34	Lose2	1.0	0.002	Yes	2.736	-0.002	2.0	GoodResponse	0	0.19	70.102	3	6	Target	AvoidedLoss	True
71.102	0.3	Lose2	1.0	0.002	Yes	2.736	-0.002	2.0	GoodResponse	0	0.19	n/a	3	6	ButtonPress	AvoidedLoss	True
71.262	0.36	Lose2	1.0	n/a	Yes	2.736	n/a	n/a	GoodResponse	0	n/a	n/a	3	6	Blank	AvoidedLoss	True
71.612	1.45	Lose2	1.0	n/a	Yes	2.736	n/a	5.0	GoodResponse	0	0.021	70.633	3	6	Feedback	AvoidedLoss	True
73.061	2.736	Lose2	1.0	n/a	Yes	2.736	n/a	n/a	GoodResponse	0	0.0	n/a	3	6	ISIslide	AvoidedLoss	True
75.827	0.25	Lose2	1.0	0.0	Yes	4.023	0.027	n/a	GoodResponse	0	n/a	n/a	3	7	Cue	AvoidedLoss	True
76.077	4.05	Lose2	1.0	0.0	Yes	4.023	0.0	n/a	GoodResponse	0	n/a	n/a	3	7	Fixation	AvoidedLoss	True
80.126	0.33	Lose2	1.0	0.001	Yes	4.023	-0.001	2.0	GoodResponse	0	0.218	79.344	3	7	Target	AvoidedLoss	True
80.344	0.3	Lose2	1.0	0.001	Yes	4.023	-0.001	2.0	GoodResponse	0	0.218	n/a	3	7	ButtonPress	AvoidedLoss	True
80.459	0.37	Lose2	1.0	n/a	Yes	4.023	n/a	n/a	GoodResponse	0	n/a	n/a	3	7	Blank	AvoidedLoss	True
80.825	1.45	Lose2	1.0	n/a	Yes	4.023	n/a	5.0	GoodResponse	0	0.028	79.853	3	7	Feedback	AvoidedLoss	True
82.275	4.023	Lose2	1.0	n/a	Yes	4.023	n/a	n/a	GoodResponse	0	0.0	n/a	3	7	ISIslide	AvoidedLoss	True
86.323	0.25	Lose2	1.0	0.0	Yes	3.027	0.023	n/a	GoodResponse	0	n/a	n/a	3	8	Cue	AvoidedLoss	True
86.573	3.95	Lose2	1.0	0.0	Yes	3.027	0.0	n/a	GoodResponse	0	n/a	n/a	3	8	Fixation	AvoidedLoss	True
90.522	0.32	Lose2	1.0	0.001	Yes	3.027	-0.001	2.0	GoodResponse	0	0.208	89.73	3	8	Target	AvoidedLoss	True
90.73	0.3	Lose2	1.0	0.001	Yes	3.027	-0.001	2.0	GoodResponse	0	0.208	n/a	3	8	ButtonPress	AvoidedLoss	True
90.838	0.38	Lose2	1.0	n/a	Yes	3.027	n/a	n/a	GoodResponse	0	n/a	n/a	3	8	Blank	AvoidedLoss	True
91.222	1.45	Lose2	1.0	n/a	Yes	3.027	n/a	5.0	GoodResponse	0	0.021	90.243	3	8	Feedback	AvoidedLoss	True
92.671	3.027	Lose2	1.0	n/a	Yes	3.027	n/a	n/a	GoodResponse	0	0.0	n/a	3	8	ISIslide	AvoidedLoss	True
95.72	0.25	Lose2	1.0	0.0	Yes	3.13	0.02	n/a	GoodResponse	0	n/a	n/a	3	9	Cue	AvoidedLoss	True
95.97	3.95	Lose2	1.0	0.0	Yes	3.13	0.0	n/a	GoodResponse	0	n/a	n/a	3	9	Fixation	AvoidedLoss	True
99.919	0.31	Lose2	1.0	0.001	Yes	3.13	-0.001	2.0	GoodResponse	0	0.179	99.098	3	9	Target	AvoidedLoss	True
100.098	0.3	Lose2	1.0	0.001	Yes	3.13	-0.001	2.0	GoodResponse	0	0.179	n/a	3	9	ButtonPress	AvoidedLoss	True
100.235	0.39	Lose2	1.0	n/a	Yes	3.13	n/a	n/a	GoodResponse	0	n/a	n/a	3	9	Blank	AvoidedLoss	True
100.618	1.45	Lose2	1.0	n/a	Yes	3.13	n/a	5.0	GoodResponse	0	0.039	99.657	3	9	Feedback	AvoidedLoss	True
102.068	3.13	Lose2	1.0	n/a	Yes	3.13	n/a	n/a	GoodResponse	0	0.0	n/a	3	9	ISIslide	AvoidedLoss	True
105.217	0.25	Control	0.9091	0.0	No	3.283	0.017	n/a	NoResponse	0	n/a	n/a	3	10	Cue	Neutral	False
105.467	4.0	Control	0.9091	0.0	No	3.283	0.0	2.0	NoResponse	0	3.878	108.345	3	10	Fixation	Neutral	False
109.345	0.3	Control	0.9091	0.0	No	3.283	0.0	2.0	NoResponse	0	3.878	n/a	3	10	ButtonPress	Neutral	False
109.465	0.3	Control	0.9091	0.002	No	3.283	-0.002	2.0	NoResponse	0	0.389	108.854	3	10	Target	Neutral	False
109.765	0.4	Control	0.9091	n/a	No	3.283	n/a	n/a	NoResponse	0	n/a	n/a	3	10	Blank	Neutral	False
109.854	0.3	Control	0.9091	0.002	No	3.283	-0.002	2.0	NoResponse	0	0.389	n/a	3	10	ButtonPress	Neutral	False
110.165	1.45	Control	0.9091	n/a	No	3.283	n/a	5.0	NoResponse	0	0.006	109.171	3	10	Feedback	Neutral	False
111.614	3.283	Control	0.9091	n/a	No	3.283	n/a	n/a	NoResponse	0	0.0	n/a	3	10	ISIslide	Neutral	False
114.913	0.25	Lose2	0.9167000000000001	0.0	Yes	2.737	0.013	n/a	GoodResponse	0	n/a	n/a	3	11	Cue	AvoidedLoss	False
115.163	4.05	Lose2	0.9167000000000001	0.0	Yes	2.737	0.0	2.0	GoodResponse	0	2.077	116.24	3	11	Fixation	AvoidedLoss	False
117.24	0.3	Lose2	0.9167000000000001	0.0	Yes	2.737	0.0	2.0	GoodResponse	0	2.077	n/a	3	11	ButtonPress	AvoidedLoss	False
119.212	0.29	Lose2	0.9167000000000001	0.001	Yes	2.737	-0.001	2.0	GoodResponse	0	0.201	118.413	3	11	Target	AvoidedLoss	False
119.413	0.3	Lose2	0.9167000000000001	0.001	Yes	2.737	-0.001	2.0	GoodResponse	0	0.201	n/a	3	11	ButtonPress	AvoidedLoss	False
119.512	0.41	Lose2	0.9167000000000001	n/a	Yes	2.737	n/a	n/a	GoodResponse	0	n/a	n/a	3	11	Blank	AvoidedLoss	False
119.912	1.45	Lose2	0.9167000000000001	n/a	Yes	2.737	n/a	5.0	GoodResponse	0	0.013	118.925	3	11	Feedback	AvoidedLoss	False
121.361	2.737	Lose2	0.9167000000000001	n/a	Yes	2.737	n/a	n/a	GoodResponse	0	0.0	n/a	3	11	ISIslide	AvoidedLoss	False
124.127	0.25	Control	0.9231	0.0	Yes	2.973	0.027	n/a	GoodResponse	0	n/a	n/a	3	12	Cue	Neutral	True
124.377	3.9	Control	0.9231	0.0	Yes	2.973	0.0	n/a	GoodResponse	0	n/a	n/a	3	12	Fixation	Neutral	True
128.275	0.28	Control	0.9231	0.002	Yes	2.973	-0.002	2.0	GoodResponse	0	0.241	127.516	3	12	Target	Neutral	True
128.516	0.3	Control	0.9231	0.002	Yes	2.973	-0.002	2.0	GoodResponse	0	0.241	n/a	3	12	ButtonPress	Neutral	True
128.558	0.42	Control	0.9231	n/a	Yes	2.973	n/a	n/a	GoodResponse	0	n/a	n/a	3	12	Blank	Neutral	True
128.975	1.45	Control	0.9231	n/a	Yes	2.973	n/a	5.0	GoodResponse	0	0.023	127.998	3	12	Feedback	Neutral	True
130.424	2.973	Control	0.9231	n/a	Yes	2.973	n/a	n/a	GoodResponse	0	0.0	n/a	3	12	ISIslide	Neutral	True
133.423	0.25	Control	0.8571	0.001	No	2.777	0.023	n/a	NoResponse	0	n/a	n/a	3	13	Cue	Neutral	True
133.673	4.0	Control	0.8571	0.0	No	2.777	0.0	n/a	NoResponse	0	n/a	n/a	3	13	Fixation	Neutral	True
137.672	0.27	Control	0.8571	0.001	No	2.777	-0.001	2.0	NoResponse	0	0.318	136.99	3	13	Target	Neutral	True
137.939	0.43	Control	0.8571	n/a	No	2.777	n/a	n/a	NoResponse	0	n/a	n/a	3	13	Blank	Neutral	True
137.99	0.3	Control	0.8571	0.001	No	2.777	-0.001	2.0	NoResponse	0	0.318	n/a	3	13	ButtonPress	Neutral	True
138.372	1.45	Control	0.8571	n/a	No	2.777	n/a	5.0	NoResponse	0	0.041	137.413	3	13	Feedback	Neutral	True
139.821	2.777	Control	0.8571	n/a	No	2.777	n/a	n/a	NoResponse	0	0.0	n/a	3	13	ISIslide	Neutral	True
142.62	0.25	Win2	0.8667	0.0	Yes	2.68	0.02	n/a	GoodResponse	1	n/a	n/a	4	14	Cue	Win	True
142.87	4.1	Win2	0.8667	0.0	Yes	2.68	0.0	n/a	GoodResponse	1	n/a	n/a	4	14	Fixation	Win	True
146.969	0.26	Win2	0.8667	0.001	Yes	2.68	-0.001	2.0	GoodResponse	1	0.174	146.143	4	14	Target	Win	True
147.143	0.3	Win2	0.8667	0.001	Yes	2.68	-0.001	2.0	GoodResponse	1	0.174	n/a	4	14	ButtonPress	Win	True
147.235	0.44	Win2	0.8667	n/a	Yes	2.68	n/a	n/a	GoodResponse	1	n/a	n/a	4	14	Blank	Win	True
147.668	1.45	Win2	0.8667	n/a	Yes	2.68	n/a	5.0	GoodResponse	1	0.013	146.681	4	14	Feedback	Win	True
149.118	2.68	Win2	0.8667	n/a	Yes	2.68	n/a	n/a	GoodResponse	1	0.0	n/a	4	14	ISIslide	Win	True
151.817	0.25	Control	0.875	0.0	Yes	2.983	0.017	n/a	GoodResponse	0	n/a	n/a	4	15	Cue	Neutral	True
152.067	4.0	Control	0.875	0.0	Yes	2.983	0.0	n/a	GoodResponse	0	n/a	n/a	4	15	Fixation	Neutral	True
156.065	0.25	Control	0.875	0.002	Yes	2.983	-0.002	2.0	GoodResponse	0	0.217	155.282	4	15	Target	Neutral	True
156.282	0.3	Control	0.875	0.002	Yes	2.983	-0.002	2.0	GoodResponse	0	0.217	n/a	4	15	ButtonPress	Neutral	True
156.315	0.45	Control	0.875	n/a	Yes	2.983	n/a	n/a	GoodResponse	0	n/a	n/a	4	15	Blank	Neutral	True
156.765	1.45	Control	0.875	n/a	Yes	2.983	n/a	5.0	GoodResponse	0	0.038	155.803	4	15	Feedback	Neutral	True
158.215	2.983	Control	0.875	n/a	Yes	2.983	n/a	n/a	GoodResponse	0	0.0	n/a	4	15	ISIslide	Neutral	True
161.214	0.25	Win2	0.8824	0.0	Yes	2.886	0.014	n/a	GoodResponse	1	n/a	n/a	5	16	Cue	Win	False
161.464	4.0	Win2	0.8824	0.0	Yes	2.886	0.0	2.0	GoodResponse	1	3.419	163.883	5	16	Fixation	Win	False
164.883	0.3	Win2	0.8824	0.0	Yes	2.886	0.0	2.0	GoodResponse	1	3.419	n/a	5	16	ButtonPress	Win	False
165.462	0.24	Win2	0.8824	0.002	Yes	2.886	-0.002	2.0	GoodResponse	1	0.186	164.648	5	16	Target	Win	False
165.648	0.3	Win2	0.8824	0.002	Yes	2.886	-0.002	2.0	GoodResponse	1	0.186	n/a	5	16	ButtonPress	Win	False
165.712	0.46	Win2	0.8824	n/a	Yes	2.886	n/a	n/a	GoodResponse	1	n/a	n/a	5	16	Blank	Win	False
166.162	1.45	Win2	0.8824	n/a	Yes	2.886	n/a	5.0	GoodResponse	1	0.007	165.169	5	16	Feedback	Win	False
167.611	2.886	Win2	0.8824	n/a	Yes	2.886	n/a	n/a	GoodResponse	1	0.0	n/a	5	16	ISIslide	Win	False
170.527	0.25	Lose2	0.8889	0.0	Yes	2.723	0.027	n/a	GoodResponse	0	n/a	n/a	5	17	Cue	AvoidedLoss	True
170.777	3.95	Lose2	0.8889	0.0	Yes	2.723	0.0	n/a	GoodResponse	0	n/a	n/a	5	17	Fixation	AvoidedLoss	True
174.726	0.23	Lose2	0.8889	0.001	Yes	2.723	-0.001	2.0	GoodResponse	0	0.219	173.945	5	17	Target	AvoidedLoss	True
174.945	0.3	Lose2	0.8889	0.001	Yes	2.723	-0.001	2.0	GoodResponse	0	0.219	n/a	5	17	ButtonPress	AvoidedLoss	True
174.959	0.47	Lose2	0.8889	n/a	Yes	2.723	n/a	n/a	GoodResponse	0	n/a	n/a	5	17	Blank	AvoidedLoss	True
175.425	1.45	Lose2	0.8889	n/a	Yes	2.723	n/a	5.0	GoodResponse	0	0.012	174.437	5	17	Feedback	AvoidedLoss	True
176.875	2.723	Lose2	0.8889	n/a	Yes	2.723	n/a	n/a	GoodResponse	0	0.0	n/a	5	17	ISIslide	AvoidedLoss	True
179.624	0.25	Lose2	0.8946999999999999	0.0	Yes	2.726	0.024	n/a	GoodResponse	0	n/a	n/a	5	18	Cue	AvoidedLoss	True
179.874	4.05	Lose2	0.8946999999999999	0.0	Yes	2.726	0.0	n/a	GoodResponse	0	n/a	n/a	5	18	Fixation	AvoidedLoss	True
183.922	0.22	Lose2	0.8946999999999999	0.002	Yes	2.726	-0.002	2.0	GoodResponse	0	0.183	183.105	5	18	Target	AvoidedLoss	True
184.105	0.3	Lose2	0.8946999999999999	0.002	Yes	2.726	-0.002	2.0	GoodResponse	0	0.183	n/a	5	18	ButtonPress	AvoidedLoss	True
184.156	0.48	Lose2	0.8946999999999999	n/a	Yes	2.726	n/a	n/a	GoodResponse	0	n/a	n/a	5	18	Blank	AvoidedLoss	True
184.622	1.45	Lose2	0.8946999999999999	n/a	Yes	2.726	n/a	5.0	GoodResponse	0	0.034	183.656	5	18	Feedback	AvoidedLoss	True
186.072	2.726	Lose2	0.8946999999999999	n/a	Yes	2.726	n/a	2.0	GoodResponse	0	2.123	n/a	5	18	ISIslide	AvoidedLoss	True
188.804	0.25	Control	0.9	0.0	Yes	2.946	0.004	n/a	GoodResponse	0	n/a	n/a	5	19	Cue	Neutral	False
189.054	3.95	Control	0.9	0.0	Yes	2.946	0.0	2.0	GoodResponse	0	1.416	189.47	5	19	Fixation	Neutral	False
190.47	0.3	Control	0.9	0.0	Yes	2.946	0.0	2.0	GoodResponse	0	1.416	n/a	5	19	ButtonPress	Neutral	False
193.002	0.21	Control	0.9	0.002	Yes	2.946	-0.002	2.0	GoodResponse	0	0.18	192.182	5	19	Target	Neutral	False
193.182	0.3	Control	0.9	0.002	Yes	2.946	-0.002	2.0	GoodResponse	0	0.18	n/a	5	19	ButtonPress	Neutral	False
193.219	0.49	Control	0.9	n/a	Yes	2.946	n/a	n/a	GoodResponse	0	n/a	n/a	5	19	Blank	Neutral	False
193.702	1.45	Control	0.9	n/a	Yes	2.946	n/a	5.0	GoodResponse	0	0.027	192.729	5	19	Feedback	Neutral	False
195.152	2.946	Control	0.9	n/a	Yes	2.946	n/a	n/a	GoodResponse	0	0.0	n/a	5	19	ISIslide	Neutral	False
198.117	0.25	Control	0.8571	0.0	No	2.633	0.017	n/a	NoResponse	0	n/a	n/a	5	20	Cue	Neutral	True
198.367	4.05	Control	0.8571	0.0	No	2.633	0.0	n/a	NoResponse	0	n/a	n/a	5	20	Fixation	Neutral	True
202.416	0.2	Control	0.8571	0.001	No	2.633	-0.001	2.0	NoResponse	0	0.222	201.638	5	20	Target	Neutral	True
202.616	0.5	Control	0.8571	n/a	No	2.633	n/a	n/a	NoResponse	0	n/a	n/a	5	20	Blank	Neutral	True
202.638	0.3	Control	0.8571	0.001	No	2.633	-0.001	2.0	NoResponse	0	0.222	n/a	5	20	ButtonPress	Neutral	True
203.116	1.45	Control	0.8571	n/a	No	2.633	n/a	5.0	NoResponse	0	0.028	202.144	5	20	Feedback	Neutral	True
204.565	2.633	Control	0.8571	n/a	No	2.633	n/a	n/a	NoResponse	0	0.0	n/a	5	20	ISIslide	Neutral	True
207.214	0.25	Control	0.8181999999999999	0.0	No	2.786	0.014	n/a	NoResponse	0	n/a	n/a	5	21	Cue	Neutral	True
207.464	4.1	Control	0.8181999999999999	0.0	No	2.786	0.0	n/a	NoResponse	0	n/a	n/a	5	21	Fixation	Neutral	True
211.563	0.19	Control	0.8181999999999999	0.001	No	2.786	-0.001	2.0	NoResponse	0	0.206	210.769	5	21	Target	Neutral	True
211.762	0.51	Control	0.8181999999999999	n/a	No	2.786	n/a	n/a	NoResponse	0	n/a	n/a	5	21	Blank	Neutral	True
211.769	0.3	Control	0.8181999999999999	0.001	No	2.786	-0.001	2.0	NoResponse	0	0.206	n/a	5	21	ButtonPress	Neutral	True
212.262	1.45	Control	0.8181999999999999	n/a	No	2.786	n/a	5.0	NoResponse	0	0.007	211.269	5	21	Feedback	Neutral	True
213.712	2.786	Control	0.8181999999999999	n/a	No	2.786	n/a	n/a	NoResponse	0	0.0	n/a	5	21	ISIslide	Neutral	True
216.527	0.25	Control	0.7826000000000001	0.001	No	2.773	0.027	n/a	NoResponse	0	n/a	n/a	5	22	Cue	Neutral	True
216.777	4.0	Control	0.7826000000000001	0.0	No	2.773	0.0	n/a	NoResponse	0	n/a	n/a	5	22	Fixation	Neutral	True
220.776	0.18	Control	0.7826000000000001	0.001	No	2.773	-0.001	2.0	NoResponse	0	0.23	220.006	5	22	Target	Neutral	True
220.959	0.52	Control	0.7826000000000001	n/a	No	2.773	n/a	n/a	NoResponse	0	n/a	n/a	5	22	Blank	Neutral	True
221.006	0.3	Control	0.7826000000000001	0.001	No	2.773	-0.001	2.0	NoResponse	0	0.23	n/a	5	22	ButtonPress	Neutral	True
221.476	1.45	Control	0.7826000000000001	n/a	No	2.773	n/a	5.0	NoResponse	0	0.009	220.485	5	22	Feedback	Neutral	True
222.925	2.773	Control	0.7826000000000001	n/a	No	2.773	n/a	n/a	NoResponse	0	0.0	n/a	5	22	ISIslide	Neutral	True
225.724	0.25	Control	0.75	0.0	No	2.776	0.024	n/a	NoResponse	0	n/a	n/a	5	23	Cue	Neutral	True
225.974	3.9	Control	0.75	0.0	No	2.776	0.0	n/a	NoResponse	0	n/a	n/a	5	23	Fixation	Neutral	True
229.873	0.17	Control	0.75	0.001	No	2.776	-0.001	2.0	NoResponse	0	0.19	229.063	5	23	Target	Neutral	True
230.039	0.53	Control	0.75	n/a	No	2.776	n/a	n/a	NoResponse	0	n/a	n/a	5	23	Blank	Neutral	True
230.063	0.3	Control	0.75	0.001	No	2.776	-0.001	2.0	NoResponse	0	0.19	n/a	5	23	ButtonPress	Neutral	True
230.573	1.45	Control	0.75	n/a	No	2.776	n/a	5.0	NoResponse	0	0.034	229.607	5	23	Feedback	Neutral	True
232.022	2.776	Control	0.75	n/a	No	2.776	n/a	n/a	NoResponse	0	0.0	n/a	5	23	ISIslide	Neutral	True
234.821	0.25	Win2	0.72	0.0	No	3.129	0.021	n/a	NoResponse	0	n/a	n/a	5	24	Cue	MissedWin	True
235.071	3.95	Win2	0.72	0.0	No	3.129	0.0	n/a	NoResponse	0	n/a	n/a	5	24	Fixation	MissedWin	True
239.02	0.16	Win2	0.72	0.001	No	3.129	-0.001	2.0	NoResponse	0	0.196	238.216	5	24	Target	MissedWin	True
239.186	0.54	Win2	0.72	n/a	No	3.129	n/a	n/a	NoResponse	0	n/a	n/a	5	24	Blank	MissedWin	True
239.216	0.3	Win2	0.72	0.001	No	3.129	-0.001	2.0	NoResponse	0	0.196	n/a	5	24	ButtonPress	MissedWin	True
239.719	1.45	Win2	0.72	n/a	No	3.129	n/a	5.0	NoResponse	0	0.01	238.729	5	24	Feedback	MissedWin	True
241.169	3.129	Win2	0.72	n/a	No	3.129	n/a	n/a	NoResponse	0	0.0	n/a	5	24	ISIslide	MissedWin	True
244.318	0.25	Win2	0.6923	0.0	No	3.082	0.018	n/a	NoResponse	0	n/a	n/a	5	25	Cue	MissedWin	False
244.568	4.0	Win2	0.6923	0.0	No	3.082	0.0	2.0	NoResponse	0	2.432	246.0	5	25	Fixation	MissedWin	False
247	0.3	Win2	0.6923	0.0	No	3.082	0.0	2.0	NoResponse	0	2.432	n/a	5	25	ButtonPress	MissedWin	False
248.566	0.15	Win2	0.6923	0.002	No	3.082	-0.002	2.0	NoResponse	0	0.195	247.761	5	25	Target	MissedWin	False
248.716	0.55	Win2	0.6923	n/a	No	3.082	n/a	n/a	NoResponse	0	n/a	n/a	5	25	Blank	MissedWin	False
248.761	0.3	Win2	0.6923	0.002	No	3.082	-0.002	2.0	NoResponse	0	0.195	n/a	5	25	ButtonPress	MissedWin	False
249.266	1.45	Win2	0.6923	n/a	No	3.082	n/a	5.0	NoResponse	0	0.024	248.29	5	25	Feedback	MissedWin	False
250.715	3.082	Win2	0.6923	n/a	No	3.082	n/a	n/a	NoResponse	0	0.0	n/a	5	25	ISIslide	MissedWin	False
253.814	0.25	Win2	0.6667000000000001	0.0	No	2.936	0.014	n/a	NoResponse	0	n/a	n/a	5	26	Cue	MissedWin	True
254.064	3.95	Win2	0.6667000000000001	0.0	No	2.936	0.0	n/a	NoResponse	0	n/a	n/a	5	26	Fixation	MissedWin	True
258.013	0.15	Win2	0.6667000000000001	0.001	No	2.936	-0.001	2.0	NoResponse	0	0.202	257.215	5	26	Target	MissedWin	True
258.163	0.55	Win2	0.6667000000000001	n/a	No	2.936	n/a	n/a	NoResponse	0	n/a	n/a	5	26	Blank	MissedWin	True
258.215	0.3	Win2	0.6667000000000001	0.001	No	2.936	-0.001	2.0	NoResponse	0	0.202	n/a	5	26	ButtonPress	MissedWin	True
258.713	1.45	Win2	0.6667000000000001	n/a	No	2.936	n/a	5.0	NoResponse	0	0.04	257.753	5	26	Feedback	MissedWin	True
260.162	2.936	Win2	0.6667000000000001	n/a	No	2.936	n/a	n/a	NoResponse	0	0.0	n/a	5	26	ISIslide	MissedWin	True
263.128	0.25	Lose2	0.6429	0.0	No	2.822	0.028	n/a	NoResponse	-1	n/a	n/a	4	27	Cue	Loss	True
263.378	4.05	Lose2	0.6429	0.0	No	2.822	0.0	n/a	NoResponse	-1	n/a	n/a	4	27	Fixation	Loss	True
267.426	0.15	Lose2	0.6429	0.002	No	2.822	-0.002	2.0	NoResponse	-1	0.19	266.616	4	27	Target	Loss	True
267.576	0.55	Lose2	0.6429	n/a	No	2.822	n/a	n/a	NoResponse	-1	n/a	n/a	4	27	Blank	Loss	True
267.616	0.3	Lose2	0.6429	0.002	No	2.822	-0.002	2.0	NoResponse	-1	0.19	n/a	4	27	ButtonPress	Loss	True
268.126	1.45	Lose2	0.6429	n/a	No	2.822	n/a	5.0	NoResponse	-1	0.042	267.168	4	27	Feedback	Loss	True
269.575	2.822	Lose2	0.6429	n/a	No	2.822	n/a	n/a	NoResponse	-1	0.0	n/a	4	27	ISIslide	Loss	True
272.424	0.25	Control	0.6207	0.001	No	2.826	0.024	n/a	NoResponse	0	n/a	n/a	4	28	Cue	Neutral	False
272.674	4.05	Control	0.6207	0.0	No	2.826	0.0	2.0	NoResponse	0	3.35	275.024	4	28	Fixation	Neutral	False
276.024	0.3	Control	0.6207	0.0	No	2.826	0.0	2.0	NoResponse	0	3.35	n/a	4	28	ButtonPress	Neutral	False
276.723	0.16	Control	0.6207	0.001	No	2.826	-0.001	2.0	NoResponse	0	0.186	275.909	4	28	Target	Neutral	False
276.89	0.54	Control	0.6207	n/a	No	2.826	n/a	n/a	NoResponse	0	n/a	n/a	4	28	Blank	Neutral	False
276.909	0.3	Control	0.6207	0.001	No	2.826	-0.001	2.0	NoResponse	0	0.186	n/a	4	28	ButtonPress	Neutral	False
277.423	1.45	Control	0.6207	n/a	No	2.826	n/a	5.0	NoResponse	0	0.012	276.435	4	28	Feedback	Neutral	False
278.872	2.826	Control	0.6207	n/a	No	2.826	n/a	n/a	NoResponse	0	0.0	n/a	4	28	ISIslide	Neutral	False
281.721	0.25	Lose2	0.6	0.0	No	2.829	0.021	n/a	LatePress	-1	n/a	n/a	3	29	Cue	Loss	True
281.971	3.95	Lose2	0.6	0.0	No	2.829	0.0	n/a	LatePress	-1	n/a	n/a	3	29	Fixation	Loss	True
285.92	0.17	Lose2	0.6	0.001	No	2.829	-0.001	2.0	LatePress	-1	0.179	285.099	3	29	Target	Loss	True
286.099	0.3	Lose2	0.6	0.001	No	2.829	-0.001	2.0	LatePress	-1	0.179	n/a	3	29	ButtonPress	Loss	True
286.103	0.53	Lose2	0.6	n/a	No	2.829	n/a	n/a	LatePress	-1	n/a	n/a	3	29	Blank	Loss	True
286.619	1.45	Lose2	0.6	n/a	No	2.829	n/a	5.0	LatePress	-1	0.036	285.655	3	29	Feedback	Loss	True
288.069	2.829	Lose2	0.6	n/a	No	2.829	n/a	2.0	LatePress	-1	0.441	n/a	3	29	ISIslide	Loss	True
290.901	0.25	Win2	0.5806	0.0	No	2.799	0.001	n/a	NoResponse	0	n/a	n/a	3	30	Cue	MissedWin	True
291.151	3.9	Win2	0.5806	0.0	No	2.799	0.0	n/a	NoResponse	0	n/a	n/a	3	30	Fixation	MissedWin	True
295.05	0.18	Win2	0.5806	0.001	No	2.799	-0.001	2.0	NoResponse	0	0.195	294.245	3	30	Target	MissedWin	True
295.233	0.52	Win2	0.5806	n/a	No	2.799	n/a	n/a	NoResponse	0	n/a	n/a	3	30	Blank	MissedWin	True
295.245	0.3	Win2	0.5806	0.001	No	2.799	-0.001	2.0	NoResponse	0	0.195	n/a	3	30	ButtonPress	MissedWin	True
295.75	1.45	Win2	0.5806	n/a	No	2.799	n/a	5.0	NoResponse	0	0.027	294.777	3	30	Feedback	MissedWin	True
297.199	2.799	Win2	0.5806	n/a	No	2.799	n/a	n/a	NoResponse	0	0.0	n/a	3	30	ISIslide	MissedWin	True
300.015	0.25	Lose2	0.5938	0.0	Yes	2.835	0.015	n/a	GoodResponse	0	n/a	n/a	3	31	Cue	AvoidedLoss	True
300.265	4.05	Lose2	0.5938	0.0	Yes	2.835	0.0	n/a	GoodResponse	0	n/a	n/a	3	31	Fixation	AvoidedLoss	True
304.313	0.19	Lose2	0.5938	0.002	Yes	2.835	-0.002	2.0	GoodResponse	0	0.176	303.489	3	31	Target	AvoidedLoss	True
304.489	0.3	Lose2	0.5938	0.002	Yes	2.835	-0.002	2.0	GoodResponse	0	0.176	n/a	3	31	ButtonPress	AvoidedLoss	True
304.513	0.51	Lose2	0.5938	n/a	Yes	2.835	n/a	n/a	GoodResponse	0	n/a	n/a	3	31	Blank	AvoidedLoss	True
305.013	1.45	Lose2	0.5938	n/a	Yes	2.835	n/a	5.0	GoodResponse	0	0.032	304.045	3	31	Feedback	AvoidedLoss	True
306.462	2.835	Lose2	0.5938	n/a	Yes	2.835	n/a	n/a	GoodResponse	0	0.0	n/a	3	31	ISIslide	AvoidedLoss	True
309.328	0.25	Lose2	0.5758	0.0	No	2.622	0.028	n/a	NoResponse	-1	n/a	n/a	2	32	Cue	Loss	True
309.578	4.15	Lose2	0.5758	0.0	No	2.622	0.0	n/a	NoResponse	-1	n/a	n/a	2	32	Fixation	Loss	True
313.727	0.2	Lose2	0.5758	0.001	No	2.622	-0.001	2.0	NoResponse	-1	0.209	312.936	2	32	Target	Loss	True
313.927	0.5	Lose2	0.5758	n/a	No	2.622	n/a	n/a	NoResponse	-1	n/a	n/a	2	32	Blank	Loss	True
313.936	0.3	Lose2	0.5758	0.001	No	2.622	-0.001	2.0	NoResponse	-1	0.209	n/a	2	32	ButtonPress	Loss	True
314.426	1.45	Lose2	0.5758	n/a	No	2.622	n/a	5.0	NoResponse	-1	0.033	313.459	2	32	Feedback	Loss	True
315.876	2.622	Lose2	0.5758	n/a	No	2.622	n/a	n/a	NoResponse	-1	0.0	n/a	2	32	ISIslide	Loss	True
318.525	0.25	Win2	0.5882000000000001	0.0	Yes	2.675	0.025	n/a	GoodResponse	1	n/a	n/a	3	33	Cue	Win	True
318.775	4.0	Win2	0.5882000000000001	0.0	Yes	2.675	0.0	n/a	GoodResponse	1	n/a	n/a	3	33	Fixation	Win	True
322.773	0.21	Win2	0.5882000000000001	0.002	Yes	2.675	-0.002	2.0	GoodResponse	1	0.165	321.938	3	33	Target	Win	True
322.938	0.3	Win2	0.5882000000000001	0.002	Yes	2.675	-0.002	2.0	GoodResponse	1	0.165	n/a	3	33	ButtonPress	Win	True
322.99	0.49	Win2	0.5882000000000001	n/a	Yes	2.675	n/a	n/a	GoodResponse	1	n/a	n/a	3	33	Blank	Win	True
323.473	1.45	Win2	0.5882000000000001	n/a	Yes	2.675	n/a	5.0	GoodResponse	1	0.011	322.484	3	33	Feedback	Win	True
324.923	2.675	Win2	0.5882000000000001	n/a	Yes	2.675	n/a	n/a	GoodResponse	1	0.0	n/a	3	33	ISIslide	Win	True
327.622	0.25	Lose2	0.5714	0.0	No	2.628	0.022	n/a	NoResponse	-1	n/a	n/a	2	34	Cue	Loss	True
327.872	4.05	Lose2	0.5714	0.0	No	2.628	0.0	2.0	NoResponse	-1	3.052	329.924	2	34	Fixation	Loss	True
330.924	0.3	Lose2	0.5714	0.0	No	2.628	0.0	2.0	NoResponse	-1	3.052	n/a	2	34	ButtonPress	Loss	True
331.92	0.22	Lose2	0.5714	0.002	No	2.628	-0.002	n/a	NoResponse	-1	n/a	n/a	2	34	Target	Loss	True
332.153	0.48	Lose2	0.5714	n/a	No	2.628	n/a	n/a	NoResponse	-1	n/a	n/a	2	34	Blank	Loss	True
332.62	1.45	Lose2	0.5714	n/a	No	2.628	n/a	5.0	NoResponse	-1	0.035	331.655	2	34	Feedback	Loss	True
334.069	2.628	Lose2	0.5714	n/a	No	2.628	n/a	2.0	NoResponse	-1	1.417	n/a	2	34	ISIslide	Loss	True
336.702	0.25	Lose2	0.5832999999999999	0.0	Yes	2.698	0.002	n/a	GoodResponse	0	n/a	n/a	2	35	Cue	AvoidedLoss	True
336.952	4.0	Lose2	0.5832999999999999	0.0	Yes	2.698	0.0	n/a	GoodResponse	0	n/a	n/a	2	35	Fixation	AvoidedLoss	True
340.95	0.23	Lose2	0.5832999999999999	0.002	Yes	2.698	-0.002	2.0	GoodResponse	0	0.219	340.169	2	35	Target	AvoidedLoss	True
341.169	0.3	Lose2	0.5832999999999999	0.002	Yes	2.698	-0.002	2.0	GoodResponse	0	0.219	n/a	2	35	ButtonPress	AvoidedLoss	True
341.184	0.47	Lose2	0.5832999999999999	n/a	Yes	2.698	n/a	n/a	GoodResponse	0	n/a	n/a	2	35	Blank	AvoidedLoss	True
341.65	1.45	Lose2	0.5832999999999999	n/a	Yes	2.698	n/a	5.0	GoodResponse	0	0.029	340.679	2	35	Feedback	AvoidedLoss	True
343.1	2.698	Lose2	0.5832999999999999	n/a	Yes	2.698	n/a	n/a	GoodResponse	0	0.0	n/a	2	35	ISIslide	AvoidedLoss	True
345.815	0.25	Control	0.5676	0.0	No	2.685	0.015	n/a	PrematurePress	0	n/a	n/a	2	36	Cue	Neutral	True
346.065	4.0	Control	0.5676	0.0	No	2.685	0.0	n/a	PrematurePress	0	n/a	n/a	2	36	Fixation	Neutral	True
350.064	0.24	Control	0.5676	0.001	No	2.685	-0.001	2.0	PrematurePress	0	0.052	349.116	2	36	Target	Neutral	True
350.116	0.3	Control	0.5676	0.001	No	2.685	-0.001	2.0	PrematurePress	0	0.052	n/a	2	36	ButtonPress	Neutral	True
350.314	0.46	Control	0.5676	n/a	No	2.685	n/a	n/a	PrematurePress	0	n/a	n/a	2	36	Blank	Neutral	True
350.764	1.45	Control	0.5676	n/a	No	2.685	n/a	5.0	PrematurePress	0	0.037	349.801	2	36	Feedback	Neutral	True
352.213	2.685	Control	0.5676	n/a	No	2.685	n/a	n/a	PrematurePress	0	0.0	n/a	2	36	ISIslide	Neutral	True
354.929	0.25	Win2	0.5789	0.0	Yes	2.871	0.029	n/a	GoodResponse	1	n/a	n/a	3	37	Cue	Win	True
355.179	4.0	Win2	0.5789	0.0	Yes	2.871	0.0	n/a	GoodResponse	1	n/a	n/a	3	37	Fixation	Win	True
359.177	0.25	Win2	0.5789	0.002	Yes	2.871	-0.002	2.0	GoodResponse	1	0.237	358.414	3	37	Target	Win	True
359.414	0.3	Win2	0.5789	0.002	Yes	2.871	-0.002	2.0	GoodResponse	1	0.237	n/a	3	37	ButtonPress	Win	True
359.427	0.45	Win2	0.5789	n/a	Yes	2.871	n/a	n/a	GoodResponse	1	n/a	n/a	3	37	Blank	Win	True
359.877	1.45	Win2	0.5789	n/a	Yes	2.871	n/a	5.0	GoodResponse	1	0.045	358.922	3	37	Feedback	Win	True
361.326	2.871	Win2	0.5789	n/a	Yes	2.871	n/a	n/a	GoodResponse	1	0.0	n/a	3	37	ISIslide	Win	True
364.225	0.25	Lose2	0.5897	0.001	Yes	2.825	0.025	n/a	GoodResponse	0	n/a	n/a	3	38	Cue	AvoidedLoss	True
364.475	3.95	Lose2	0.5897	0.0	Yes	2.825	0.0	n/a	GoodResponse	0	n/a	n/a	3	38	Fixation	AvoidedLoss	True
368.424	0.26	Lose2	0.5897	0.001	Yes	2.825	-0.001	2.0	GoodResponse	0	0.202	367.626	3	38	Target	AvoidedLoss	True
368.626	0.3	Lose2	0.5897	0.001	Yes	2.825	-0.001	2.0	GoodResponse	0	0.202	n/a	3	38	ButtonPress	AvoidedLoss	True
368.691	0.44	Lose2	0.5897	n/a	Yes	2.825	n/a	n/a	GoodResponse	0	n/a	n/a	3	38	Blank	AvoidedLoss	True
369.124	1.45	Lose2	0.5897	n/a	Yes	2.825	n/a	5.0	GoodResponse	0	0.018	368.142	3	38	Feedback	AvoidedLoss	True
370.573	2.825	Lose2	0.5897	n/a	Yes	2.825	n/a	n/a	GoodResponse	0	0.0	n/a	3	38	ISIslide	AvoidedLoss	True
373.422	0.25	Win2	0.6	0.0	Yes	2.978	0.022	n/a	GoodResponse	1	n/a	n/a	4	39	Cue	Win	True
373.672	4.1	Win2	0.6	0.0	Yes	2.978	0.0	n/a	GoodResponse	1	n/a	n/a	4	39	Fixation	Win	True
377.771	0.27	Win2	0.6	0.001	Yes	2.978	-0.001	2.0	GoodResponse	1	0.179	376.95	4	39	Target	Win	True
377.95	0.3	Win2	0.6	0.001	Yes	2.978	-0.001	2.0	GoodResponse	1	0.179	n/a	4	39	ButtonPress	Win	True
378.054	0.43	Win2	0.6	n/a	Yes	2.978	n/a	n/a	GoodResponse	1	n/a	n/a	4	39	Blank	Win	True
378.47	1.45	Win2	0.6	n/a	Yes	2.978	n/a	5.0	GoodResponse	1	0.038	377.508	4	39	Feedback	Win	True
379.92	2.978	Win2	0.6	n/a	Yes	2.978	n/a	n/a	GoodResponse	1	0.0	n/a	4	39	ISIslide	Win	True
382.919	0.25	Win2	0.6098	0.0	Yes	2.731	0.019	n/a	GoodResponse	1	n/a	n/a	5	40	Cue	Win	True
383.169	3.95	Win2	0.6098	0.0	Yes	2.731	0.0	n/a	GoodResponse	1	n/a	n/a	5	40	Fixation	Win	True
387.117	0.28	Win2	0.6098	0.002	Yes	2.731	-0.002	2.0	GoodResponse	1	0.231	386.348	5	40	Target	Win	True
387.348	0.3	Win2	0.6098	0.002	Yes	2.731	-0.002	2.0	GoodResponse	1	0.231	n/a	5	40	ButtonPress	Win	True
387.401	0.42	Win2	0.6098	n/a	Yes	2.731	n/a	n/a	GoodResponse	1	n/a	n/a	5	40	Blank	Win	True
387.817	1.45	Win2	0.6098	n/a	Yes	2.731	n/a	5.0	GoodResponse	1	0.008	386.825	5	40	Feedback	Win	True
389.267	2.731	Win2	0.6098	n/a	Yes	2.731	n/a	n/a	GoodResponse	1	0.0	n/a	5	40	ISIslide	Win	True
392.016	0.25	Win2	0.619	0.0	Yes	2.784	0.016	n/a	GoodResponse	1	n/a	n/a	6	41	Cue	Win	False
392.266	3.9	Win2	0.619	0.0	Yes	2.784	0.0	2.0	GoodResponse	1	3.265	394.531	6	41	Fixation	Win	False
395.531	0.3	Win2	0.619	0.0	Yes	2.784	0.0	2.0	GoodResponse	1	3.265	n/a	6	41	ButtonPress	Win	False
396.164	0.29	Win2	0.619	0.002	Yes	2.784	-0.002	2.0	GoodResponse	1	0.117	395.281	6	41	Target	Win	False
396.281	0.3	Win2	0.619	0.002	Yes	2.784	-0.002	2.0	GoodResponse	1	0.117	n/a	6	41	ButtonPress	Win	False
396.464	0.41	Win2	0.619	n/a	Yes	2.784	n/a	n/a	GoodResponse	1	n/a	n/a	6	41	Blank	Win	False
396.864	1.45	Win2	0.619	n/a	Yes	2.784	n/a	5.0	GoodResponse	1	0.034	395.898	6	41	Feedback	Win	False
398.313	2.784	Win2	0.619	n/a	Yes	2.784	n/a	n/a	GoodResponse	1	0.0	n/a	6	41	ISIslide	Win	False
401.112	0.25	Control	0.6279	0.001	Yes	2.938	0.012	n/a	GoodResponse	0	n/a	n/a	6	42	Cue	Neutral	True
401.362	3.85	Control	0.6279	0.0	Yes	2.938	0.0	n/a	GoodResponse	0	n/a	n/a	6	42	Fixation	Neutral	True
405.211	0.3	Control	0.6279	0.001	Yes	2.938	-0.001	2.0	GoodResponse	0	0.175	404.386	6	42	Target	Neutral	True
405.386	0.3	Control	0.6279	0.001	Yes	2.938	-0.001	2.0	GoodResponse	0	0.175	n/a	6	42	ButtonPress	Neutral	True
405.511	0.4	Control	0.6279	n/a	Yes	2.938	n/a	n/a	GoodResponse	0	n/a	n/a	6	42	Blank	Neutral	True
405.911	1.45	Control	0.6279	n/a	Yes	2.938	n/a	5.0	GoodResponse	0	0.011	404.922	6	42	Feedback	Neutral	True
407.36	2.938	Control	0.6279	n/a	Yes	2.938	n/a	n/a	GoodResponse	0	0.0	n/a	6	42	ISIslide	Neutral	True
410.326	0.25	Win2	0.6364	0.0	Yes	3.174	0.026	n/a	GoodResponse	1	n/a	n/a	7	43	Cue	Win	True
410.576	4.0	Win2	0.6364	0.0	Yes	3.174	0.0	n/a	GoodResponse	1	n/a	n/a	7	43	Fixation	Win	True
414.574	0.31	Win2	0.6364	0.002	Yes	3.174	-0.002	2.0	GoodResponse	1	0.193	413.767	7	43	Target	Win	True
414.767	0.3	Win2	0.6364	0.002	Yes	3.174	-0.002	2.0	GoodResponse	1	0.193	n/a	7	43	ButtonPress	Win	True
414.891	0.39	Win2	0.6364	n/a	Yes	3.174	n/a	n/a	GoodResponse	1	n/a	n/a	7	43	Blank	Win	True
415.274	1.45	Win2	0.6364	n/a	Yes	3.174	n/a	5.0	GoodResponse	1	0.014	414.288	7	43	Feedback	Win	True
416.724	3.174	Win2	0.6364	n/a	Yes	3.174	n/a	n/a	GoodResponse	1	0.0	n/a	7	43	ISIslide	Win	True
419.922	0.25	Win2	0.6444	0.001	Yes	2.978	0.022	n/a	GoodResponse	1	n/a	n/a	8	44	Cue	Win	True
420.172	4.0	Win2	0.6444	0.001	Yes	2.978	0.0	n/a	GoodResponse	1	n/a	n/a	8	44	Fixation	Win	True
424.171	0.32	Win2	0.6444	0.001	Yes	2.978	-0.001	2.0	GoodResponse	1	0.196	423.367	8	44	Target	Win	True
424.367	0.3	Win2	0.6444	0.001	Yes	2.978	-0.001	2.0	GoodResponse	1	0.196	n/a	8	44	ButtonPress	Win	True
424.488	0.38	Win2	0.6444	n/a	Yes	2.978	n/a	n/a	GoodResponse	1	n/a	n/a	8	44	Blank	Win	True
424.871	1.45	Win2	0.6444	n/a	Yes	2.978	n/a	5.0	GoodResponse	1	0.027	423.898	8	44	Feedback	Win	True
426.32	2.978	Win2	0.6444	n/a	Yes	2.978	n/a	n/a	GoodResponse	1	0.0	n/a	8	44	ISIslide	Win	True
429.319	0.25	Control	0.6522	0.0	Yes	2.881	0.019	n/a	GoodResponse	0	n/a	n/a	8	45	Cue	Neutral	True
429.569	4.1	Control	0.6522	0.0	Yes	2.881	0.0	n/a	GoodResponse	0	n/a	n/a	8	45	Fixation	Neutral	True
433.668	0.33	Control	0.6522	0.001	Yes	2.881	-0.001	2.0	GoodResponse	0	0.215	432.883	8	45	Target	Neutral	True
433.883	0.3	Control	0.6522	0.001	Yes	2.881	-0.001	2.0	GoodResponse	0	0.215	n/a	8	45	ButtonPress	Neutral	True
434.001	0.37	Control	0.6522	n/a	Yes	2.881	n/a	n/a	GoodResponse	0	n/a	n/a	8	45	Blank	Neutral	True
434.367	1.45	Control	0.6522	n/a	Yes	2.881	n/a	5.0	GoodResponse	0	0.043	433.41	8	45	Feedback	Neutral	True
435.817	2.881	Control	0.6522	n/a	Yes	2.881	n/a	n/a	GoodResponse	0	0.0	n/a	8	45	ISIslide	Neutral	True
438.716	0.25	Lose2	0.6596	0.0	Yes	3.384	0.016	n/a	GoodResponse	0	n/a	n/a	8	46	Cue	AvoidedLoss	True
438.966	4.0	Lose2	0.6596	0.0	Yes	3.384	0.0	n/a	GoodResponse	0	n/a	n/a	8	46	Fixation	AvoidedLoss	True
442.964	0.34	Lose2	0.6596	0.002	Yes	3.384	-0.002	2.0	GoodResponse	0	0.218	442.182	8	46	Target	AvoidedLoss	True
443.182	0.3	Lose2	0.6596	0.002	Yes	3.384	-0.002	2.0	GoodResponse	0	0.218	n/a	8	46	ButtonPress	AvoidedLoss	True
443.314	0.36	Lose2	0.6596	n/a	Yes	3.384	n/a	n/a	GoodResponse	0	n/a	n/a	8	46	Blank	AvoidedLoss	True
443.664	1.45	Lose2	0.6596	n/a	Yes	3.384	n/a	5.0	GoodResponse	0	0.013	442.677	8	46	Feedback	AvoidedLoss	True
445.114	3.384	Lose2	0.6596	n/a	Yes	3.384	n/a	n/a	GoodResponse	0	0.0	n/a	8	46	ISIslide	AvoidedLoss	True
448.529	0.25	Lose2	0.6667000000000001	0.0	Yes	2.671	0.029	n/a	GoodResponse	0	n/a	n/a	8	47	Cue	AvoidedLoss	True
448.779	4.0	Lose2	0.6667000000000001	0.0	Yes	2.671	0.0	n/a	GoodResponse	0	n/a	n/a	8	47	Fixation	AvoidedLoss	True
452.778	0.34	Lose2	0.6667000000000001	0.001	Yes	2.671	-0.001	2.0	GoodResponse	0	0.204	451.982	8	47	Target	AvoidedLoss	True
452.982	0.3	Lose2	0.6667000000000001	0.001	Yes	2.671	-0.001	2.0	GoodResponse	0	0.204	n/a	8	47	ButtonPress	AvoidedLoss	True
453.127	0.36	Lose2	0.6667000000000001	n/a	Yes	2.671	n/a	n/a	GoodResponse	0	n/a	n/a	8	47	Blank	AvoidedLoss	True
453.477	1.45	Lose2	0.6667000000000001	n/a	Yes	2.671	n/a	5.0	GoodResponse	0	0.007	452.484	8	47	Feedback	AvoidedLoss	True
454.927	2.671	Lose2	0.6667000000000001	n/a	Yes	2.671	n/a	n/a	GoodResponse	0	0.0	n/a	8	47	ISIslide	AvoidedLoss	True
457.626	0.25	Lose2	0.6735	0.0	Yes	3.024	0.026	n/a	GoodResponse	0	n/a	n/a	8	48	Cue	AvoidedLoss	False
457.876	3.95	Lose2	0.6735	0.0	Yes	3.024	0.0	2.0	GoodResponse	0	3.585	460.461	8	48	Fixation	AvoidedLoss	False
461.461	0.3	Lose2	0.6735	0.0	Yes	3.024	0.0	2.0	GoodResponse	0	3.585	n/a	8	48	ButtonPress	AvoidedLoss	False
461.824	0.33	Lose2	0.6735	0.002	Yes	3.024	-0.002	2.0	GoodResponse	0	0.216	461.04	8	48	Target	AvoidedLoss	False
462.04	0.3	Lose2	0.6735	0.002	Yes	3.024	-0.002	2.0	GoodResponse	0	0.216	n/a	8	48	ButtonPress	AvoidedLoss	False
462.158	0.37	Lose2	0.6735	n/a	Yes	3.024	n/a	n/a	GoodResponse	0	n/a	n/a	8	48	Blank	AvoidedLoss	False
462.524	1.45	Lose2	0.6735	n/a	Yes	3.024	n/a	5.0	GoodResponse	0	0.032	461.556	8	48	Feedback	AvoidedLoss	False
463.974	3.024	Lose2	0.6735	n/a	Yes	3.024	n/a	n/a	GoodResponse	0	0.0	n/a	8	48	ISIslide	AvoidedLoss	False
467.023	0.25	Control	0.66	0.0	No	2.877	0.023	n/a	PrematurePress	0	n/a	n/a	8	49	Cue	Neutral	False
467.272	4.0	Control	0.66	0.001	No	2.877	-0.001	2.0	PrematurePress	0	0.912	467.184	8	49	Fixation	Neutral	False
468.184	0.3	Control	0.66	0.001	No	2.877	-0.001	2.0	PrematurePress	0	0.912	n/a	8	49	ButtonPress	Neutral	False
471.271	0.32	Control	0.66	0.002	No	2.877	-0.002	2.0	PrematurePress	0	0.097	470.368	8	49	Target	Neutral	False
471.368	0.3	Control	0.66	0.002	No	2.877	-0.002	2.0	PrematurePress	0	0.097	n/a	8	49	ButtonPress	Neutral	False
471.604	0.38	Control	0.66	n/a	No	2.877	n/a	n/a	PrematurePress	0	n/a	n/a	8	49	Blank	Neutral	False
471.971	1.45	Control	0.66	n/a	No	2.877	n/a	5.0	PrematurePress	0	0.048	471.019	8	49	Feedback	Neutral	False
473.42	2.877	Control	0.66	n/a	No	2.877	n/a	n/a	PrematurePress	0	0.0	n/a	8	49	ISIslide	Neutral	False
476.319	0.25	Control	0.6667000000000001	0.0	Yes	2.781	0.019	n/a	GoodResponse	0	n/a	n/a	8	50	Cue	Neutral	True
476.569	4.0	Control	0.6667000000000001	0.0	Yes	2.781	0.0	n/a	GoodResponse	0	n/a	n/a	8	50	Fixation	Neutral	True
480.568	0.32	Control	0.6667000000000001	0.001	Yes	2.781	-0.001	2.0	GoodResponse	0	0.194	479.762	8	50	Target	Neutral	True
480.762	0.3	Control	0.6667000000000001	0.001	Yes	2.781	-0.001	2.0	GoodResponse	0	0.194	n/a	8	50	ButtonPress	Neutral	True
480.901	0.38	Control	0.6667000000000001	n/a	Yes	2.781	n/a	n/a	GoodResponse	0	n/a	n/a	8	50	Blank	Neutral	True
481.268	1.45	Control	0.6667000000000001	n/a	Yes	2.781	n/a	5.0	GoodResponse	0	0.02	480.288	8	50	Feedback	Neutral	True
482.717	2.781	Control	0.6667000000000001	n/a	Yes	2.781	n/a	n/a	GoodResponse	0	0.0	n/a	8	50	ISIslide	Neutral	True
485.516	0.25	Control	0.6731	0.0	Yes	2.734	0.016	n/a	GoodResponse	0	n/a	n/a	8	51	Cue	Neutral	True
485.766	3.95	Control	0.6731	0.0	Yes	2.734	0.0	n/a	GoodResponse	0	n/a	n/a	8	51	Fixation	Neutral	True
489.715	0.31	Control	0.6731	0.001	Yes	2.734	-0.001	2.0	GoodResponse	0	0.229	488.944	8	51	Target	Neutral	True
489.944	0.3	Control	0.6731	0.001	Yes	2.734	-0.001	2.0	GoodResponse	0	0.229	n/a	8	51	ButtonPress	Neutral	True
490.031	0.39	Control	0.6731	n/a	Yes	2.734	n/a	n/a	GoodResponse	0	n/a	n/a	8	51	Blank	Neutral	True
490.414	1.45	Control	0.6731	n/a	Yes	2.734	n/a	5.0	GoodResponse	0	0.043	489.457	8	51	Feedback	Neutral	True
491.864	2.734	Control	0.6731	n/a	Yes	2.734	n/a	2.0	GoodResponse	0	0.211	n/a	8	51	ISIslide	Neutral	True
494.596	0.25	Control	0.6792	0.0	Yes	2.654	-0.004	n/a	GoodResponse	0	n/a	n/a	8	52	Cue	Neutral	False
494.846	4.05	Control	0.6792	0.0	Yes	2.654	0.0	2.0	GoodResponse	0	3.682	497.528	8	52	Fixation	Neutral	False
498.528	0.3	Control	0.6792	0.0	Yes	2.654	0.0	2.0	GoodResponse	0	3.682	n/a	8	52	ButtonPress	Neutral	False
498.895	0.3	Control	0.6792	0.001	Yes	2.654	-0.001	2.0	GoodResponse	0	0.162	498.057	8	52	Target	Neutral	False
499.057	0.3	Control	0.6792	0.001	Yes	2.654	-0.001	2.0	GoodResponse	0	0.162	n/a	8	52	ButtonPress	Neutral	False
499.195	0.4	Control	0.6792	n/a	Yes	2.654	n/a	n/a	GoodResponse	0	n/a	n/a	8	52	Blank	Neutral	False
499.594	1.45	Control	0.6792	n/a	Yes	2.654	n/a	5.0	GoodResponse	0	0.034	498.628	8	52	Feedback	Neutral	False
501.044	2.654	Control	0.6792	n/a	Yes	2.654	n/a	n/a	GoodResponse	0	0.0	n/a	8	52	ISIslide	Neutral	False
503.726	0.25	Win2	0.6851999999999999	0.0	Yes	2.924	0.026	n/a	GoodResponse	1	n/a	n/a	9	53	Cue	Win	True
503.976	4.05	Win2	0.6851999999999999	0.0	Yes	2.924	0.0	n/a	GoodResponse	1	n/a	n/a	9	53	Fixation	Win	True
508.025	0.29	Win2	0.6851999999999999	0.001	Yes	2.924	-0.001	2.0	GoodResponse	1	0.221	507.246	9	53	Target	Win	True
508.246	0.3	Win2	0.6851999999999999	0.001	Yes	2.924	-0.001	2.0	GoodResponse	1	0.221	n/a	9	53	ButtonPress	Win	True
508.325	0.41	Win2	0.6851999999999999	n/a	Yes	2.924	n/a	n/a	GoodResponse	1	n/a	n/a	9	53	Blank	Win	True
508.725	1.45	Win2	0.6851999999999999	n/a	Yes	2.924	n/a	5.0	GoodResponse	1	0.025	507.75	9	53	Feedback	Win	True
510.174	2.924	Win2	0.6851999999999999	n/a	Yes	2.924	n/a	n/a	GoodResponse	1	0.0	n/a	9	53	ISIslide	Win	True
513.123	0.25	Win2	0.6909000000000001	0.0	Yes	2.727	0.023	n/a	GoodResponse	1	n/a	n/a	10	54	Cue	Win	True
513.373	3.95	Win2	0.6909000000000001	0.0	Yes	2.727	0.0	n/a	GoodResponse	1	n/a	n/a	10	54	Fixation	Win	True
517.322	0.28	Win2	0.6909000000000001	0.001	Yes	2.727	-0.001	2.0	GoodResponse	1	0.217	516.539	10	54	Target	Win	True
517.539	0.3	Win2	0.6909000000000001	0.001	Yes	2.727	-0.001	2.0	GoodResponse	1	0.217	n/a	10	54	ButtonPress	Win	True
517.605	0.42	Win2	0.6909000000000001	n/a	Yes	2.727	n/a	n/a	GoodResponse	1	n/a	n/a	10	54	Blank	Win	True
518.021	1.45	Win2	0.6909000000000001	n/a	Yes	2.727	n/a	5.0	GoodResponse	1	0.047	517.068	10	54	Feedback	Win	True
519.471	2.727	Win2	0.6909000000000001	n/a	Yes	2.727	n/a	n/a	GoodResponse	1	0.0	n/a	10	54	ISIslide	Win	True
522.22	0.25	Control	0.6964	0.0	Yes	3.03	0.02	n/a	GoodResponse	0	n/a	n/a	10	55	Cue	Neutral	True
522.47	3.95	Control	0.6964	0.0	Yes	3.03	0.0	n/a	GoodResponse	0	n/a	n/a	10	55	Fixation	Neutral	True
526.418	0.27	Control	0.6964	0.002	Yes	3.03	-0.002	2.0	GoodResponse	0	0.173	525.591	10	55	Target	Neutral	True
526.591	0.3	Control	0.6964	0.002	Yes	3.03	-0.002	2.0	GoodResponse	0	0.173	n/a	10	55	ButtonPress	Neutral	True
526.702	0.43	Control	0.6964	n/a	Yes	3.03	n/a	n/a	GoodResponse	0	n/a	n/a	10	55	Blank	Neutral	True
527.118	1.45	Control	0.6964	n/a	Yes	3.03	n/a	5.0	GoodResponse	0	0.023	526.141	10	55	Feedback	Neutral	True
528.568	3.03	Control	0.6964	n/a	Yes	3.03	n/a	n/a	GoodResponse	0	0.0	n/a	10	55	ISIslide	Neutral	True
531.616	0.25	Control	0.7018000000000001	0.001	Yes	2.834	0.016	n/a	GoodResponse	0	n/a	n/a	10	56	Cue	Neutral	True
531.866	3.95	Control	0.7018000000000001	0.0	Yes	2.834	0.0	n/a	GoodResponse	0	n/a	n/a	10	56	Fixation	Neutral	True
535.815	0.26	Control	0.7018000000000001	0.001	Yes	2.834	-0.001	2.0	GoodResponse	0	0.194	535.009	10	56	Target	Neutral	True
536.009	0.3	Control	0.7018000000000001	0.001	Yes	2.834	-0.001	2.0	GoodResponse	0	0.194	n/a	10	56	ButtonPress	Neutral	True
536.082	0.44	Control	0.7018000000000001	n/a	Yes	2.834	n/a	n/a	GoodResponse	0	n/a	n/a	10	56	Blank	Neutral	True
536.515	1.45	Control	0.7018000000000001	n/a	Yes	2.834	n/a	5.0	GoodResponse	0	0.04	535.555	10	56	Feedback	Neutral	True
537.964	2.834	Control	0.7018000000000001	n/a	Yes	2.834	n/a	n/a	GoodResponse	0	0.0	n/a	10	56	ISIslide	Neutral	True
540.813	0.25	Control	0.7069	0.0	Yes	3.487	0.013	n/a	GoodResponse	0	n/a	n/a	10	57	Cue	Neutral	True
541.063	4.0	Control	0.7069	0.0	Yes	3.487	0.0	n/a	GoodResponse	0	n/a	n/a	10	57	Fixation	Neutral	True
545.062	0.25	Control	0.7069	0.001	Yes	3.487	-0.001	2.0	GoodResponse	0	0.226	544.288	10	57	Target	Neutral	True
545.288	0.3	Control	0.7069	0.001	Yes	3.487	-0.001	2.0	GoodResponse	0	0.226	n/a	10	57	ButtonPress	Neutral	True
545.312	0.45	Control	0.7069	n/a	Yes	3.487	n/a	n/a	GoodResponse	0	n/a	n/a	10	57	Blank	Neutral	True
545.761	1.45	Control	0.7069	n/a	Yes	3.487	n/a	5.0	GoodResponse	0	0.013	544.774	10	57	Feedback	Neutral	True
547.211	3.487	Control	0.7069	n/a	Yes	3.487	n/a	n/a	GoodResponse	0	0.0	n/a	10	57	ISIslide	Neutral	True
550.726	0.25	Win2	0.7119	0.001	Yes	2.724	0.026	n/a	GoodResponse	1	n/a	n/a	11	58	Cue	Win	True
550.976	4.05	Win2	0.7119	0.0	Yes	2.724	0.0	n/a	GoodResponse	1	n/a	n/a	11	58	Fixation	Win	True
555.025	0.24	Win2	0.7119	0.001	Yes	2.724	-0.001	2.0	GoodResponse	1	0.183	554.208	11	58	Target	Win	True
555.208	0.3	Win2	0.7119	0.001	Yes	2.724	-0.001	2.0	GoodResponse	1	0.183	n/a	11	58	ButtonPress	Win	True
555.275	0.46	Win2	0.7119	n/a	Yes	2.724	n/a	n/a	GoodResponse	1	n/a	n/a	11	58	Blank	Win	True
555.725	1.45	Win2	0.7119	n/a	Yes	2.724	n/a	5.0	GoodResponse	1	0.001	554.726	11	58	Feedback	Win	True
557.174	2.724	Win2	0.7119	n/a	Yes	2.724	n/a	n/a	GoodResponse	1	0.0	n/a	11	58	ISIslide	Win	True
559.923	0.25	Lose2	0.7167	0.0	Yes	2.677	0.023	n/a	GoodResponse	0	n/a	n/a	11	59	Cue	AvoidedLoss	True
560.173	4.0	Lose2	0.7167	0.0	Yes	2.677	0.0	n/a	GoodResponse	0	n/a	n/a	11	59	Fixation	AvoidedLoss	True
564.172	0.23	Lose2	0.7167	0.001	Yes	2.677	-0.001	2.0	GoodResponse	0	0.199	563.371	11	59	Target	AvoidedLoss	True
564.371	0.3	Lose2	0.7167	0.001	Yes	2.677	-0.001	2.0	GoodResponse	0	0.199	n/a	11	59	ButtonPress	AvoidedLoss	True
564.405	0.47	Lose2	0.7167	n/a	Yes	2.677	n/a	n/a	GoodResponse	0	n/a	n/a	11	59	Blank	AvoidedLoss	True
564.871	1.45	Lose2	0.7167	n/a	Yes	2.677	n/a	5.0	GoodResponse	0	0.025	563.896	11	59	Feedback	AvoidedLoss	True
566.321	2.677	Lose2	0.7167	n/a	Yes	2.677	n/a	n/a	GoodResponse	0	0.0	n/a	11	59	ISIslide	AvoidedLoss	True
569.02	0.25	Control	0.7212999999999999	0.0	Yes	2.68	0.02	n/a	GoodResponse	0	n/a	n/a	11	60	Cue	Neutral	True
569.27	4.0	Control	0.7212999999999999	0.0	Yes	2.68	0.0	n/a	GoodResponse	0	n/a	n/a	11	60	Fixation	Neutral	True
573.268	0.22	Control	0.7212999999999999	0.002	Yes	2.68	-0.002	2.0	GoodResponse	0	0.202	572.47	11	60	Target	Neutral	True
573.47	0.3	Control	0.7212999999999999	0.002	Yes	2.68	-0.002	2.0	GoodResponse	0	0.202	n/a	11	60	ButtonPress	Neutral	True
573.502	0.48	Control	0.7212999999999999	n/a	Yes	2.68	n/a	n/a	GoodResponse	0	n/a	n/a	11	60	Blank	Neutral	True
573.968	1.45	Control	0.7212999999999999	n/a	Yes	2.68	n/a	5.0	GoodResponse	0	0.001	572.969	11	60	Feedback	Neutral	True
575.418	2.68	Control	0.7212999999999999	n/a	Yes	2.68	n/a	n/a	GoodResponse	0	0.0	n/a	11	60	ISIslide	Neutral	True
578.117	0.25	Lose2	0.7258	0.0	Yes	2.983	0.017	n/a	GoodResponse	0	n/a	n/a	11	61	Cue	AvoidedLoss	True
578.367	4.0	Lose2	0.7258	0.0	Yes	2.983	0.0	n/a	GoodResponse	0	n/a	n/a	11	61	Fixation	AvoidedLoss	True
582.365	0.21	Lose2	0.7258	0.002	Yes	2.983	-0.002	2.0	GoodResponse	0	0.194	581.559	11	61	Target	AvoidedLoss	True
582.559	0.3	Lose2	0.7258	0.002	Yes	2.983	-0.002	2.0	GoodResponse	0	0.194	n/a	11	61	ButtonPress	AvoidedLoss	True
582.582	0.49	Lose2	0.7258	n/a	Yes	2.983	n/a	n/a	GoodResponse	0	n/a	n/a	11	61	Blank	AvoidedLoss	True
583.065	1.45	Lose2	0.7258	n/a	Yes	2.983	n/a	5.0	GoodResponse	0	0.026	582.091	11	61	Feedback	AvoidedLoss	True
584.515	2.983	Lose2	0.7258	n/a	Yes	2.983	n/a	n/a	GoodResponse	0	0.0	n/a	11	61	ISIslide	AvoidedLoss	True
587.513	0.25	Lose2	0.7302	0.001	Yes	2.887	0.013	n/a	GoodResponse	0	n/a	n/a	11	62	Cue	AvoidedLoss	True
587.763	3.9	Lose2	0.7302	0.0	Yes	2.887	0.0	n/a	GoodResponse	0	n/a	n/a	11	62	Fixation	AvoidedLoss	True
591.662	0.2	Lose2	0.7302	0.001	Yes	2.887	-0.001	2.0	GoodResponse	0	0.174	590.836	11	62	Target	AvoidedLoss	True
591.836	0.3	Lose2	0.7302	0.001	Yes	2.887	-0.001	2.0	GoodResponse	0	0.174	n/a	11	62	ButtonPress	AvoidedLoss	True
591.862	0.5	Lose2	0.7302	n/a	Yes	2.887	n/a	n/a	GoodResponse	0	n/a	n/a	11	62	Blank	AvoidedLoss	True
592.362	1.45	Lose2	0.7302	n/a	Yes	2.887	n/a	5.0	GoodResponse	0	0.046	591.408	11	62	Feedback	AvoidedLoss	True
593.811	2.887	Lose2	0.7302	n/a	Yes	2.887	n/a	n/a	GoodResponse	0	0.0	n/a	11	62	ISIslide	AvoidedLoss	True
596.727	0.25	Lose2	0.7188	0.0	No	2.623	0.027	n/a	PrematurePress	-1	n/a	n/a	10	63	Cue	Loss	False
596.977	4.05	Lose2	0.7188	0.0	No	2.623	0.0	2.0	PrematurePress	-1	3.275	599.252	10	63	Fixation	Loss	False
600.252	0.3	Lose2	0.7188	0.0	No	2.623	0.0	2.0	PrematurePress	-1	3.275	n/a	10	63	ButtonPress	Loss	False
601.025	0.19	Lose2	0.7188	0.002	No	2.623	-0.002	2.0	PrematurePress	-1	0.007	600.032	10	63	Target	Loss	False
601.032	0.3	Lose2	0.7188	0.002	No	2.623	-0.002	2.0	PrematurePress	-1	0.007	n/a	10	63	ButtonPress	Loss	False
601.225	0.51	Lose2	0.7188	n/a	No	2.623	n/a	n/a	PrematurePress	-1	n/a	n/a	10	63	Blank	Loss	False
601.725	1.45	Lose2	0.7188	n/a	No	2.623	n/a	5.0	PrematurePress	-1	0.049	600.774	10	63	Feedback	Loss	False
603.175	2.623	Lose2	0.7188	n/a	No	2.623	n/a	n/a	PrematurePress	-1	0.0	n/a	10	63	ISIslide	Loss	False
605.824	0.25	Win2	0.7077	0.0	No	3.126	0.024	n/a	NoResponse	0	n/a	n/a	10	64	Cue	MissedWin	True
606.074	4.15	Win2	0.7077	0.0	No	3.126	0.0	n/a	NoResponse	0	n/a	n/a	10	64	Fixation	MissedWin	True
610.222	0.18	Win2	0.7077	0.002	No	3.126	-0.002	2.0	NoResponse	0	0.191	609.413	10	64	Target	MissedWin	True
610.405	0.52	Win2	0.7077	n/a	No	3.126	n/a	n/a	NoResponse	0	n/a	n/a	10	64	Blank	MissedWin	True
610.413	0.3	Win2	0.7077	0.002	No	3.126	-0.002	2.0	NoResponse	0	0.191	n/a	10	64	ButtonPress	MissedWin	True
610.922	1.45	Win2	0.7077	n/a	No	3.126	n/a	5.0	NoResponse	0	0.023	609.945	10	64	Feedback	MissedWin	True
612.371	3.126	Win2	0.7077	n/a	No	3.126	n/a	2.0	NoResponse	0	2.025	n/a	10	64	ISIslide	MissedWin	True
615.504	0.25	Control	0.6970000000000001	0.0	No	2.796	0.004	n/a	NoResponse	0	n/a	n/a	10	65	Cue	Neutral	False
615.753	4.0	Control	0.6970000000000001	0.001	No	2.796	-0.001	2.0	NoResponse	0	2.186	616.939	10	65	Fixation	Neutral	False
617.939	0.3	Control	0.6970000000000001	0.001	No	2.796	-0.001	2.0	NoResponse	0	2.186	n/a	10	65	ButtonPress	Neutral	False
619.752	0.17	Control	0.6970000000000001	0.002	No	2.796	-0.002	2.0	NoResponse	0	0.194	618.946	10	65	Target	Neutral	False
619.935	0.53	Control	0.6970000000000001	n/a	No	2.796	n/a	n/a	NoResponse	0	n/a	n/a	10	65	Blank	Neutral	False
619.946	0.3	Control	0.6970000000000001	0.002	No	2.796	-0.002	2.0	NoResponse	0	0.194	n/a	10	65	ButtonPress	Neutral	False
620.452	1.45	Control	0.6970000000000001	n/a	No	2.796	n/a	5.0	NoResponse	0	0.006	619.458	10	65	Feedback	Neutral	False
621.901	2.796	Control	0.6970000000000001	n/a	No	2.796	n/a	n/a	NoResponse	0	0.0	n/a	10	65	ISIslide	Neutral	False
624.717	0.25	Win2	0.6866	0.0	No	2.783	0.017	n/a	LatePress	0	n/a	n/a	10	66	Cue	MissedWin	False
624.967	3.9	Win2	0.6866	0.0	No	2.783	0.0	2.0	LatePress	0	0.916	624.883	10	66	Fixation	MissedWin	False
625.883	0.3	Win2	0.6866	0.0	No	2.783	0.0	2.0	LatePress	0	0.916	n/a	10	66	ButtonPress	MissedWin	False
628.866	0.16	Win2	0.6866	0.001	No	2.783	-0.001	2.0	LatePress	0	0.165	628.031	10	66	Target	MissedWin	False
629.031	0.3	Win2	0.6866	0.001	No	2.783	-0.001	2.0	LatePress	0	0.165	n/a	10	66	ButtonPress	MissedWin	False
629.032	0.54	Win2	0.6866	n/a	No	2.783	n/a	n/a	LatePress	0	n/a	n/a	10	66	Blank	MissedWin	False
629.565	1.45	Win2	0.6866	n/a	No	2.783	n/a	5.0	LatePress	0	0.013	628.578	10	66	Feedback	MissedWin	False
631.015	2.783	Win2	0.6866	n/a	No	2.783	n/a	n/a	LatePress	0	0.0	n/a	10	66	ISIslide	MissedWin	False
633.83	0.25	Control	0.6765000000000001	0.001	No	2.72	0.03	n/a	NoResponse	0	n/a	n/a	10	67	Cue	Neutral	True
634.08	3.95	Control	0.6765000000000001	0.0	No	2.72	0.0	n/a	NoResponse	0	n/a	n/a	10	67	Fixation	Neutral	True
638.029	0.15	Control	0.6765000000000001	0.001	No	2.72	-0.001	2.0	NoResponse	0	0.203	637.232	10	67	Target	Neutral	True
638.179	0.55	Control	0.6765000000000001	n/a	No	2.72	n/a	n/a	NoResponse	0	n/a	n/a	10	67	Blank	Neutral	True
638.232	0.3	Control	0.6765000000000001	0.001	No	2.72	-0.001	2.0	NoResponse	0	0.203	n/a	10	67	ButtonPress	Neutral	True
638.729	1.45	Control	0.6765000000000001	n/a	No	2.72	n/a	5.0	NoResponse	0	0.021	637.75	10	67	Feedback	Neutral	True
640.178	2.72	Control	0.6765000000000001	n/a	No	2.72	n/a	n/a	NoResponse	0	0.0	n/a	10	67	ISIslide	Neutral	True
642.927	0.25	Win2	0.6667000000000001	0.0	No	3.073	0.027	n/a	NoResponse	0	n/a	n/a	10	68	Cue	MissedWin	True
643.177	4.0	Win2	0.6667000000000001	0.0	No	3.073	0.0	n/a	NoResponse	0	n/a	n/a	10	68	Fixation	MissedWin	True
647.176	0.15	Win2	0.6667000000000001	0.001	No	3.073	-0.001	2.0	NoResponse	0	0.168	646.344	10	68	Target	MissedWin	True
647.326	0.55	Win2	0.6667000000000001	n/a	No	3.073	n/a	n/a	NoResponse	0	n/a	n/a	10	68	Blank	MissedWin	True
647.344	0.3	Win2	0.6667000000000001	0.001	No	3.073	-0.001	2.0	NoResponse	0	0.168	n/a	10	68	ButtonPress	MissedWin	True
647.876	1.45	Win2	0.6667000000000001	n/a	No	3.073	n/a	5.0	NoResponse	0	0.044	646.92	10	68	Feedback	MissedWin	True
649.325	3.073	Win2	0.6667000000000001	n/a	No	3.073	n/a	n/a	NoResponse	0	0.0	n/a	10	68	ISIslide	MissedWin	True
652.424	0.25	Win2	0.6570999999999999	0.0	No	3.226	0.024	n/a	NoResponse	0	n/a	n/a	10	69	Cue	MissedWin	True
652.674	3.95	Win2	0.6570999999999999	0.0	No	3.226	0.0	n/a	NoResponse	0	n/a	n/a	10	69	Fixation	MissedWin	True
656.622	0.15	Win2	0.6570999999999999	0.002	No	3.226	-0.002	2.0	NoResponse	0	0.175	655.797	10	69	Target	MissedWin	True
656.772	0.55	Win2	0.6570999999999999	n/a	No	3.226	n/a	n/a	NoResponse	0	n/a	n/a	10	69	Blank	MissedWin	True
656.797	0.3	Win2	0.6570999999999999	0.002	No	3.226	-0.002	2.0	NoResponse	0	0.175	n/a	10	69	ButtonPress	MissedWin	True
657.322	1.45	Win2	0.6570999999999999	n/a	No	3.226	n/a	5.0	NoResponse	0	0.013	656.335	10	69	Feedback	MissedWin	True
658.772	3.226	Win2	0.6570999999999999	n/a	No	3.226	n/a	2.0	NoResponse	0	3.223	n/a	10	69	ISIslide	MissedWin	True
662.021	0.25	Lose2	0.6479	0.0	No	3.029	0.021	n/a	NoResponse	-1	n/a	n/a	9	70	Cue	Loss	True
662.27	4.05	Lose2	0.6479	0.001	No	3.029	-0.001	n/a	NoResponse	-1	n/a	n/a	9	70	Fixation	Loss	True
666.319	0.15	Lose2	0.6479	0.002	No	3.029	-0.002	2.0	NoResponse	-1	0.167	665.486	9	70	Target	Loss	True
666.469	0.55	Lose2	0.6479	n/a	No	3.029	n/a	n/a	NoResponse	-1	n/a	n/a	9	70	Blank	Loss	True
666.486	0.3	Lose2	0.6479	0.002	No	3.029	-0.002	2.0	NoResponse	-1	0.167	n/a	9	70	ButtonPress	Loss	True
667.019	1.45	Lose2	0.6479	n/a	No	3.029	n/a	5.0	NoResponse	-1	0.022	666.041	9	70	Feedback	Loss	True
668.468	3.029	Lose2	0.6479	n/a	No	3.029	n/a	2.0	NoResponse	-1	1.353	n/a	9	70	ISIslide	Loss	True
671.501	0.25	Win2	0.6528	0.0	Yes	2.749	0.001	n/a	GoodResponse	1	n/a	n/a	10	71	Cue	Win	True
671.75	4.05	Win2	0.6528	0.001	Yes	2.749	-0.001	n/a	GoodResponse	1	n/a	n/a	10	71	Fixation	Win	True
675.799	0.16	Win2	0.6528	0.002	Yes	2.749	-0.002	2.0	GoodResponse	1	0.113	674.912	10	71	Target	Win	True
675.912	0.3	Win2	0.6528	0.002	Yes	2.749	-0.002	2.0	GoodResponse	1	0.113	n/a	10	71	ButtonPress	Win	True
675.966	0.54	Win2	0.6528	n/a	Yes	2.749	n/a	n/a	GoodResponse	1	n/a	n/a	10	71	Blank	Win	True
676.499	1.45	Win2	0.6528	n/a	Yes	2.749	n/a	5.0	GoodResponse	1	0.007	675.506	10	71	Feedback	Win	True
677.948	2.749	Win2	0.6528	n/a	Yes	2.749	n/a	n/a	GoodResponse	1	0.0	n/a	10	71	ISIslide	Win	True
680.714	0.25	Win2	0.6437999999999999	0.0	No	2.786	0.014	n/a	LatePress	0	n/a	n/a	10	72	Cue	MissedWin	True
680.964	4.1	Win2	0.6437999999999999	0.0	No	2.786	0.0	n/a	LatePress	0	n/a	n/a	10	72	Fixation	MissedWin	True
685.062	0.17	Win2	0.6437999999999999	0.002	No	2.786	-0.002	2.0	LatePress	0	0.171	684.233	10	72	Target	MissedWin	True
685.233	0.3	Win2	0.6437999999999999	0.002	No	2.786	-0.002	2.0	LatePress	0	0.171	n/a	10	72	ButtonPress	MissedWin	True
685.246	0.53	Win2	0.6437999999999999	n/a	No	2.786	n/a	n/a	LatePress	0	n/a	n/a	10	72	Blank	MissedWin	True
685.762	1.45	Win2	0.6437999999999999	n/a	No	2.786	n/a	5.0	LatePress	0	0.011	684.773	10	72	Feedback	MissedWin	True
687.212	2.786	Win2	0.6437999999999999	n/a	No	2.786	n/a	n/a	LatePress	0	0.0	n/a	10	72	ISIslide	MissedWin	True
690.027	0.25	Win2	0.6351	0.0	No	2.673	0.027	2.0	NoResponse	0	0.179	689.206	10	73	Cue	MissedWin	False
690.206	0.3	Win2	0.6351	0.0	No	2.673	0.027	2.0	NoResponse	0	0.179	n/a	10	73	ButtonPress	MissedWin	False
690.277	4.0	Win2	0.6351	0.0	No	2.673	0.0	2.0	NoResponse	0	3.091	692.368	10	73	Fixation	MissedWin	False
693.368	0.3	Win2	0.6351	0.0	No	2.673	0.0	2.0	NoResponse	0	3.091	n/a	10	73	ButtonPress	MissedWin	False
694.276	0.18	Win2	0.6351	0.001	No	2.673	-0.001	2.0	NoResponse	0	0.211	693.487	10	73	Target	MissedWin	False
694.459	0.52	Win2	0.6351	n/a	No	2.673	n/a	n/a	NoResponse	0	n/a	n/a	10	73	Blank	MissedWin	False
694.487	0.3	Win2	0.6351	0.001	No	2.673	-0.001	2.0	NoResponse	0	0.211	n/a	10	73	ButtonPress	MissedWin	False
694.976	1.45	Win2	0.6351	n/a	No	2.673	n/a	5.0	NoResponse	0	0.017	693.993	10	73	Feedback	MissedWin	False
696.425	2.673	Win2	0.6351	n/a	No	2.673	n/a	n/a	NoResponse	0	0.0	n/a	10	73	ISIslide	MissedWin	False
699.124	0.25	Lose2	0.6267	0.0	No	2.626	0.024	n/a	NoResponse	-1	n/a	n/a	9	74	Cue	Loss	True
699.374	4.05	Lose2	0.6267	0.0	No	2.626	0.0	n/a	NoResponse	-1	n/a	n/a	9	74	Fixation	Loss	True
703.423	0.19	Lose2	0.6267	0.001	No	2.626	-0.001	2.0	NoResponse	-1	0.224	702.647	9	74	Target	Loss	True
703.623	0.51	Lose2	0.6267	n/a	No	2.626	n/a	n/a	NoResponse	-1	n/a	n/a	9	74	Blank	Loss	True
703.647	0.3	Lose2	0.6267	0.001	No	2.626	-0.001	2.0	NoResponse	-1	0.224	n/a	9	74	ButtonPress	Loss	True
704.122	1.45	Lose2	0.6267	n/a	No	2.626	n/a	5.0	NoResponse	-1	0.041	703.163	9	74	Feedback	Loss	True
705.572	2.626	Lose2	0.6267	n/a	No	2.626	n/a	2.0	NoResponse	-1	1.677	n/a	9	74	ISIslide	Loss	True
708.204	0.25	Lose2	0.6315999999999999	0.0	Yes	2.946	0.004	n/a	GoodResponse	0	n/a	n/a	9	75	Cue	AvoidedLoss	False
708.454	3.95	Lose2	0.6315999999999999	0.0	Yes	2.946	0.0	2.0	GoodResponse	0	3.524	710.978	9	75	Fixation	AvoidedLoss	False
711.978	0.3	Lose2	0.6315999999999999	0.0	Yes	2.946	0.0	2.0	GoodResponse	0	3.524	n/a	9	75	ButtonPress	AvoidedLoss	False
712.403	0.2	Lose2	0.6315999999999999	0.001	Yes	2.946	-0.001	2.0	GoodResponse	0	0.195	711.598	9	75	Target	AvoidedLoss	False
712.598	0.3	Lose2	0.6315999999999999	0.001	Yes	2.946	-0.001	2.0	GoodResponse	0	0.195	n/a	9	75	ButtonPress	AvoidedLoss	False
712.603	0.5	Lose2	0.6315999999999999	n/a	Yes	2.946	n/a	n/a	GoodResponse	0	n/a	n/a	9	75	Blank	AvoidedLoss	False
713.103	1.45	Lose2	0.6315999999999999	n/a	Yes	2.946	n/a	5.0	GoodResponse	0	0.035	712.138	9	75	Feedback	AvoidedLoss	False
714.552	2.946	Lose2	0.6315999999999999	n/a	Yes	2.946	n/a	n/a	GoodResponse	0	0.0	n/a	9	75	ISIslide	AvoidedLoss	False
717.518	0.25	Control	0.6234000000000001	0.0	No	3.232	0.018	n/a	NoResponse	0	n/a	n/a	9	76	Cue	Neutral	True
717.768	4.05	Control	0.6234000000000001	0.0	No	3.232	0.0	n/a	NoResponse	0	n/a	n/a	9	76	Fixation	Neutral	True
721.816	0.21	Control	0.6234000000000001	0.002	No	3.232	-0.002	2.0	NoResponse	0	0.246	721.062	9	76	Target	Neutral	True
722.033	0.49	Control	0.6234000000000001	n/a	No	3.232	n/a	n/a	NoResponse	0	n/a	n/a	9	76	Blank	Neutral	True
722.062	0.3	Control	0.6234000000000001	0.002	No	3.232	-0.002	2.0	NoResponse	0	0.246	n/a	9	76	ButtonPress	Neutral	True
722.516	1.45	Control	0.6234000000000001	n/a	No	3.232	n/a	5.0	NoResponse	0	0.037	721.553	9	76	Feedback	Neutral	True
723.965	3.232	Control	0.6234000000000001	n/a	No	3.232	n/a	n/a	NoResponse	0	0.0	n/a	9	76	ISIslide	Neutral	True
727.214	0.25	Lose2	0.6282	0.0	Yes	2.586	0.014	n/a	GoodResponse	0	n/a	n/a	9	77	Cue	AvoidedLoss	True
727.464	3.95	Lose2	0.6282	0.0	Yes	2.586	0.0	n/a	GoodResponse	0	n/a	n/a	9	77	Fixation	AvoidedLoss	True
731.413	0.22	Lose2	0.6282	0.001	Yes	2.586	-0.001	2.0	GoodResponse	0	0.194	730.607	9	77	Target	AvoidedLoss	True
731.607	0.3	Lose2	0.6282	0.001	Yes	2.586	-0.001	2.0	GoodResponse	0	0.194	n/a	9	77	ButtonPress	AvoidedLoss	True
731.629	0.48	Lose2	0.6282	n/a	Yes	2.586	n/a	n/a	GoodResponse	0	n/a	n/a	9	77	Blank	AvoidedLoss	True
732.113	1.45	Lose2	0.6282	n/a	Yes	2.586	n/a	5.0	GoodResponse	0	0.001	731.114	9	77	Feedback	AvoidedLoss	True
733.562	2.586	Lose2	0.6282	n/a	Yes	2.586	n/a	n/a	GoodResponse	0	0.0	n/a	9	77	ISIslide	AvoidedLoss	True
