onset	duration	cue_type	current_mean_accuracy	duration_error	is_hit	isi_adjusted	onset_delay	response	response_type	reward	rt	rt_time	total_reward	trial_number	trial_phase	trial_type	one_press
11.1	0.25	Control	1.0	0.001	Yes	2.95	0.0	n/a	GoodResponse	0	n/a	n/a	0	0	Cue	Neutral	True
11.351	3.85	Control	1.0	0.0	Yes	2.95	0.001	n/a	GoodResponse	0	n/a	n/a	0	0	Fixation	Neutral	True
15.196	0.4	Control	1.0	0.004	Yes	2.95	-0.004	2.0	GoodResponse	0	0.345	14.541	0	0	Target	Neutral	True
15.541	0.3	Control	1.0	0.004	Yes	2.95	-0.004	2.0	GoodResponse	0	0.345	n/a	0	0	ButtonPress	Neutral	True
15.597	0.3	Control	1.0	n/a	Yes	2.95	n/a	n/a	GoodResponse	0	n/a	n/a	0	0	Blank	Neutral	True
15.898	1.45	Control	1.0	n/a	Yes	2.95	n/a	5.0	GoodResponse	0	0.029	14.927	0	0	Feedback	Neutral	True
17.352	2.95	Control	1.0	n/a	Yes	2.95	n/a	n/a	GoodResponse	0	0.0	n/a	0	0	ISIslide	Neutral	True
20.328	0.25	Lose2	1.0	0.0	Yes	2.772	0.028	n/a	GoodResponse	0	n/a	n/a	0	1	Cue	AvoidedLoss	True
20.579	4.0	Lose2	1.0	0.0	Yes	2.772	0.001	n/a	GoodResponse	0	n/a	n/a	0	1	Fixation	AvoidedLoss	True
24.574	0.39	Lose2	1.0	0.004	Yes	2.772	-0.004	2.0	GoodResponse	0	0.216	23.79	0	1	Target	AvoidedLoss	True
24.79	0.3	Lose2	1.0	0.004	Yes	2.772	-0.004	2.0	GoodResponse	0	0.216	n/a	0	1	ButtonPress	AvoidedLoss	True
24.975	0.31	Lose2	1.0	n/a	Yes	2.772	n/a	n/a	GoodResponse	0	n/a	n/a	0	1	Blank	AvoidedLoss	True
25.276	1.45	Lose2	1.0	n/a	Yes	2.772	n/a	5.0	GoodResponse	0	0.017	24.293	0	1	Feedback	AvoidedLoss	True
26.731	2.772	Lose2	1.0	n/a	Yes	2.772	n/a	n/a	GoodResponse	0	0.0	n/a	0	1	ISIslide	AvoidedLoss	True
29.522	0.25	Control	1.0	0.0	Yes	2.578	0.022	n/a	GoodResponse	0	n/a	n/a	0	2	Cue	Neutral	True
29.773	4.1	Control	1.0	0.0	Yes	2.578	0.001	n/a	GoodResponse	0	n/a	n/a	0	2	Fixation	Neutral	True
33.869	0.38	Control	1.0	0.003	Yes	2.578	-0.003	2.0	GoodResponse	0	0.193	33.062	0	2	Target	Neutral	True
34.062	0.3	Control	1.0	0.003	Yes	2.578	-0.003	2.0	GoodResponse	0	0.193	n/a	0	2	ButtonPress	Neutral	True
34.253	0.32	Control	1.0	n/a	Yes	2.578	n/a	n/a	GoodResponse	0	n/a	n/a	0	2	Blank	Neutral	True
34.571	1.45	Control	1.0	n/a	Yes	2.578	n/a	5.0	GoodResponse	0	0.038	33.609	0	2	Feedback	Neutral	True
36.025	2.578	Control	1.0	n/a	Yes	2.578	n/a	n/a	GoodResponse	0	0.0	n/a	0	2	ISIslide	Neutral	True
38.633	0.25	Win2	1.0	0.0	Yes	2.817	0.033	n/a	GoodResponse	1	n/a	n/a	1	3	Cue	Win	False
38.884	3.95	Win2	1.0	0.0	Yes	2.817	0.001	2.0	GoodResponse	1	3.218	41.102	1	3	Fixation	Win	False
42.102	0.3	Win2	1.0	0.0	Yes	2.817	0.001	2.0	GoodResponse	1	3.218	n/a	1	3	ButtonPress	Win	False
42.829	0.37	Win2	1.0	0.004	Yes	2.817	-0.004	2.0	GoodResponse	1	0.233	42.062	1	3	Target	Win	False
43.062	0.3	Win2	1.0	0.004	Yes	2.817	-0.004	2.0	GoodResponse	1	0.233	n/a	1	3	ButtonPress	Win	False
43.213	0.33	Win2	1.0	n/a	Yes	2.817	n/a	n/a	GoodResponse	1	n/a	n/a	1	3	Blank	Win	False
43.531	1.45	Win2	1.0	n/a	Yes	2.817	n/a	5.0	GoodResponse	1	0.007	42.538	1	3	Feedback	Win	False
44.985	2.817	Win2	1.0	n/a	Yes	2.817	n/a	n/a	GoodResponse	1	0.0	n/a	1	3	ISIslide	Win	False
47.827	0.25	Win2	1.0	0.0	Yes	3.273	0.027	n/a	GoodResponse	1	n/a	n/a	2	4	Cue	Win	True
48.078	4.0	Win2	1.0	0.0	Yes	3.273	0.001	n/a	GoodResponse	1	n/a	n/a	2	4	Fixation	Win	True
52.073	0.36	Win2	1.0	0.004	Yes	3.273	-0.004	2.0	GoodResponse	1	0.328	51.401	2	4	Target	Win	True
52.401	0.3	Win2	1.0	0.004	Yes	3.273	-0.004	2.0	GoodResponse	1	0.328	n/a	2	4	ButtonPress	Win	True
52.441	0.34	Win2	1.0	n/a	Yes	3.273	n/a	n/a	GoodResponse	1	n/a	n/a	2	4	Blank	Win	True
52.775	1.45	Win2	1.0	n/a	Yes	3.273	n/a	5.0	GoodResponse	1	0.03	51.805	2	4	Feedback	Win	True
54.23	3.273	Win2	1.0	n/a	Yes	3.273	n/a	n/a	GoodResponse	1	0.0	n/a	2	4	ISIslide	Win	True
57.523	0.25	Win2	1.0	0.0	Yes	2.777	0.023	n/a	GoodResponse	1	n/a	n/a	3	5	Cue	Win	True
57.774	4.0	Win2	1.0	0.0	Yes	2.777	0.001	n/a	GoodResponse	1	n/a	n/a	3	5	Fixation	Win	True
61.769	0.35	Win2	1.0	0.004	Yes	2.777	-0.004	2.0	GoodResponse	1	0.292	61.061	3	5	Target	Win	True
62.061	0.3	Win2	1.0	0.004	Yes	2.777	-0.004	2.0	GoodResponse	1	0.292	n/a	3	5	ButtonPress	Win	True
62.12	0.35	Win2	1.0	n/a	Yes	2.777	n/a	n/a	GoodResponse	1	n/a	n/a	3	5	Blank	Win	True
62.471	1.45	Win2	1.0	n/a	Yes	2.777	n/a	5.0	GoodResponse	1	0.041	61.512	3	5	Feedback	Win	True
63.925	2.777	Win2	1.0	n/a	Yes	2.777	n/a	n/a	GoodResponse	1	0.0	n/a	3	5	ISIslide	Win	True
66.717	0.25	Lose2	1.0	0.0	Yes	2.733	0.017	n/a	GoodResponse	0	n/a	n/a	3	6	Cue	AvoidedLoss	True
66.968	3.95	Lose2	1.0	0.0	Yes	2.733	0.001	n/a	GoodResponse	0	n/a	n/a	3	6	Fixation	AvoidedLoss	True
70.913	0.34	Lose2	1.0	0.004	Yes	2.733	-0.004	2.0	GoodResponse	0	0.273	70.186	3	6	Target	AvoidedLoss	True
71.186	0.3	Lose2	1.0	0.004	Yes	2.733	-0.004	2.0	GoodResponse	0	0.273	n/a	3	6	ButtonPress	AvoidedLoss	True
71.264	0.36	Lose2	1.0	n/a	Yes	2.733	n/a	n/a	GoodResponse	0	n/a	n/a	3	6	Blank	AvoidedLoss	True
71.615	1.45	Lose2	1.0	n/a	Yes	2.733	n/a	5.0	GoodResponse	0	0.019	70.634	3	6	Feedback	AvoidedLoss	True
73.069	2.733	Lose2	1.0	n/a	Yes	2.733	n/a	n/a	GoodResponse	0	0.0	n/a	3	6	ISIslide	AvoidedLoss	True
75.828	0.25	Lose2	1.0	0.0	Yes	4.022	0.028	n/a	GoodResponse	0	n/a	n/a	3	7	Cue	AvoidedLoss	True
76.078	4.05	Lose2	1.0	0.001	Yes	4.022	0.0	n/a	GoodResponse	0	n/a	n/a	3	7	Fixation	AvoidedLoss	True
80.124	0.33	Lose2	1.0	0.004	Yes	4.022	-0.004	2.0	GoodResponse	0	0.279	79.403	3	7	Target	AvoidedLoss	True
80.403	0.3	Lose2	1.0	0.004	Yes	4.022	-0.004	2.0	GoodResponse	0	0.279	n/a	3	7	ButtonPress	AvoidedLoss	True
80.458	0.37	Lose2	1.0	n/a	Yes	4.022	n/a	n/a	GoodResponse	0	n/a	n/a	3	7	Blank	AvoidedLoss	True
80.826	1.45	Lose2	1.0	n/a	Yes	4.022	n/a	5.0	GoodResponse	0	0.028	79.854	3	7	Feedback	AvoidedLoss	True
82.28	4.022	Lose2	1.0	n/a	Yes	4.022	n/a	n/a	GoodResponse	0	0.0	n/a	3	7	ISIslide	AvoidedLoss	True
86.326	0.25	Lose2	1.0	0.0	Yes	3.024	0.026	n/a	GoodResponse	0	n/a	n/a	3	8	Cue	AvoidedLoss	True
86.577	3.95	Lose2	1.0	0.0	Yes	3.024	0.001	n/a	GoodResponse	0	n/a	n/a	3	8	Fixation	AvoidedLoss	True
90.522	0.32	Lose2	1.0	0.004	Yes	3.024	-0.004	2.0	GoodResponse	0	0.227	89.749	3	8	Target	AvoidedLoss	True
90.749	0.3	Lose2	1.0	0.004	Yes	3.024	-0.004	2.0	GoodResponse	0	0.227	n/a	3	8	ButtonPress	AvoidedLoss	True
90.856	0.38	Lose2	1.0	n/a	Yes	3.024	n/a	n/a	GoodResponse	0	n/a	n/a	3	8	Blank	AvoidedLoss	True
91.224	1.45	Lose2	1.0	n/a	Yes	3.024	n/a	5.0	GoodResponse	0	0.019	90.243	3	8	Feedback	AvoidedLoss	True
92.678	3.024	Lose2	1.0	n/a	Yes	3.024	n/a	n/a	GoodResponse	0	0.0	n/a	3	8	ISIslide	AvoidedLoss	True
95.721	0.25	Lose2	1.0	0.0	Yes	3.129	0.021	n/a	GoodResponse	0	n/a	n/a	3	9	Cue	AvoidedLoss	True
95.971	3.95	Lose2	1.0	0.0	Yes	3.129	0.0	n/a	GoodResponse	0	n/a	n/a	3	9	Fixation	AvoidedLoss	True
99.917	0.31	Lose2	1.0	0.004	Yes	3.129	-0.004	2.0	GoodResponse	0	0.279	99.196	3	9	Target	AvoidedLoss	True
100.196	0.3	Lose2	1.0	0.004	Yes	3.129	-0.004	2.0	GoodResponse	0	0.279	n/a	3	9	ButtonPress	AvoidedLoss	True
100.234	0.39	Lose2	1.0	n/a	Yes	3.129	n/a	n/a	GoodResponse	0	n/a	n/a	3	9	Blank	AvoidedLoss	True
100.619	1.45	Lose2	1.0	n/a	Yes	3.129	n/a	5.0	GoodResponse	0	0.039	99.658	3	9	Feedback	AvoidedLoss	True
102.073	3.129	Lose2	1.0	n/a	Yes	3.129	n/a	n/a	GoodResponse	0	0.0	n/a	3	9	ISIslide	AvoidedLoss	True
105.216	0.25	Control	1.0	0.0	Yes	3.284	0.016	n/a	GoodResponse	0	n/a	n/a	3	10	Cue	Neutral	True
105.466	4.0	Control	1.0	0.001	Yes	3.284	0.0	n/a	GoodResponse	0	n/a	n/a	3	10	Fixation	Neutral	True
109.462	0.3	Control	1.0	0.004	Yes	3.284	-0.004	2.0	GoodResponse	0	0.265	108.727	3	10	Target	Neutral	True
109.727	0.3	Control	1.0	0.004	Yes	3.284	-0.004	2.0	GoodResponse	0	0.265	n/a	3	10	ButtonPress	Neutral	True
109.763	0.4	Control	1.0	n/a	Yes	3.284	n/a	n/a	GoodResponse	0	n/a	n/a	3	10	Blank	Neutral	True
110.164	1.45	Control	1.0	n/a	Yes	3.284	n/a	5.0	GoodResponse	0	0.008	109.172	3	10	Feedback	Neutral	True
111.618	3.284	Control	1.0	n/a	Yes	3.284	n/a	n/a	GoodResponse	0	0.0	n/a	3	10	ISIslide	Neutral	True
114.928	0.25	Lose2	1.0	0.0	Yes	2.722	0.028	n/a	GoodResponse	0	n/a	n/a	3	11	Cue	AvoidedLoss	True
115.179	4.05	Lose2	1.0	0.0	Yes	2.722	0.001	n/a	GoodResponse	0	n/a	n/a	3	11	Fixation	AvoidedLoss	True
119.224	0.29	Lose2	1.0	0.004	Yes	2.722	-0.004	2.0	GoodResponse	0	0.257	118.481	3	11	Target	AvoidedLoss	True
119.481	0.3	Lose2	1.0	0.004	Yes	2.722	-0.004	2.0	GoodResponse	0	0.257	n/a	3	11	ButtonPress	AvoidedLoss	True
119.525	0.41	Lose2	1.0	n/a	Yes	2.722	n/a	n/a	GoodResponse	0	n/a	n/a	3	11	Blank	AvoidedLoss	True
119.926	1.45	Lose2	1.0	n/a	Yes	2.722	n/a	5.0	GoodResponse	0	0.049	118.975	3	11	Feedback	AvoidedLoss	True
121.381	2.722	Lose2	1.0	n/a	Yes	2.722	n/a	n/a	GoodResponse	0	0.0	n/a	3	11	ISIslide	AvoidedLoss	True
124.122	0.25	Control	1.0	0.001	Yes	2.978	0.022	n/a	GoodResponse	0	n/a	n/a	3	12	Cue	Neutral	True
124.373	3.9	Control	1.0	0.0	Yes	2.978	0.001	n/a	GoodResponse	0	n/a	n/a	3	12	Fixation	Neutral	True
128.268	0.28	Control	1.0	0.004	Yes	2.978	-0.004	2.0	GoodResponse	0	0.254	127.522	3	12	Target	Neutral	True
128.522	0.3	Control	1.0	0.004	Yes	2.978	-0.004	2.0	GoodResponse	0	0.254	n/a	3	12	ButtonPress	Neutral	True
128.552	0.42	Control	1.0	n/a	Yes	2.978	n/a	n/a	GoodResponse	0	n/a	n/a	3	12	Blank	Neutral	True
128.97	1.45	Control	1.0	n/a	Yes	2.978	n/a	5.0	GoodResponse	0	0.03	128.0	3	12	Feedback	Neutral	True
130.425	2.978	Control	1.0	n/a	Yes	2.978	n/a	n/a	GoodResponse	0	0.0	n/a	3	12	ISIslide	Neutral	True
133.417	0.25	Control	1.0	0.0	Yes	2.783	0.017	n/a	GoodResponse	0	n/a	n/a	3	13	Cue	Neutral	True
133.668	4.0	Control	1.0	0.0	Yes	2.783	0.001	n/a	GoodResponse	0	n/a	n/a	3	13	Fixation	Neutral	True
137.663	0.27	Control	1.0	0.004	Yes	2.783	-0.004	2.0	GoodResponse	0	0.261	136.924	3	13	Target	Neutral	True
137.924	0.3	Control	1.0	0.004	Yes	2.783	-0.004	2.0	GoodResponse	0	0.261	n/a	3	13	ButtonPress	Neutral	True
137.947	0.43	Control	1.0	n/a	Yes	2.783	n/a	n/a	GoodResponse	0	n/a	n/a	3	13	Blank	Neutral	True
138.365	1.45	Control	1.0	n/a	Yes	2.783	n/a	5.0	GoodResponse	0	0.049	137.414	3	13	Feedback	Neutral	True
139.819	2.783	Control	1.0	n/a	Yes	2.783	n/a	n/a	GoodResponse	0	0.0	n/a	3	13	ISIslide	Neutral	True
142.628	0.25	Win2	1.0	0.0	Yes	2.672	0.028	n/a	GoodResponse	1	n/a	n/a	4	14	Cue	Win	True
142.879	4.1	Win2	1.0	0.0	Yes	2.672	0.001	n/a	GoodResponse	1	n/a	n/a	4	14	Fixation	Win	True
146.974	0.26	Win2	1.0	0.004	Yes	2.672	-0.004	2.0	GoodResponse	1	0.217	146.191	4	14	Target	Win	True
147.191	0.3	Win2	1.0	0.004	Yes	2.672	-0.004	2.0	GoodResponse	1	0.217	n/a	4	14	ButtonPress	Win	True
147.242	0.44	Win2	1.0	n/a	Yes	2.672	n/a	n/a	GoodResponse	1	n/a	n/a	4	14	Blank	Win	True
147.676	1.45	Win2	1.0	n/a	Yes	2.672	n/a	5.0	GoodResponse	1	0.007	146.683	4	14	Feedback	Win	True
149.131	2.672	Win2	1.0	n/a	Yes	2.672	n/a	n/a	GoodResponse	1	0.0	n/a	4	14	ISIslide	Win	True
151.822	0.25	Control	1.0	0.0	Yes	2.978	0.022	n/a	GoodResponse	0	n/a	n/a	4	15	Cue	Neutral	True
152.073	4.0	Control	1.0	0.0	Yes	2.978	0.001	n/a	GoodResponse	0	n/a	n/a	4	15	Fixation	Neutral	True
156.068	0.25	Control	1.0	0.004	Yes	2.978	-0.004	2.0	GoodResponse	0	0.213	155.281	4	15	Target	Neutral	True
156.281	0.3	Control	1.0	0.004	Yes	2.978	-0.004	2.0	GoodResponse	0	0.213	n/a	4	15	ButtonPress	Neutral	True
156.319	0.45	Control	1.0	n/a	Yes	2.978	n/a	n/a	GoodResponse	0	n/a	n/a	4	15	Blank	Neutral	True
156.77	1.45	Control	1.0	n/a	Yes	2.978	n/a	5.0	GoodResponse	0	0.034	155.804	4	15	Feedback	Neutral	True
158.225	2.978	Control	1.0	n/a	Yes	2.978	n/a	n/a	GoodResponse	0	0.0	n/a	4	15	ISIslide	Neutral	True
161.217	0.25	Win2	0.9412	0.0	No	2.883	0.017	n/a	LatePress	0	n/a	n/a	4	16	Cue	MissedWin	True
161.468	4.0	Win2	0.9412	0.0	No	2.883	0.001	n/a	LatePress	0	n/a	n/a	4	16	Fixation	MissedWin	True
165.463	0.24	Win2	0.9412	0.004	No	2.883	-0.004	2.0	LatePress	0	0.241	164.704	4	16	Target	MissedWin	True
165.704	0.3	Win2	0.9412	0.004	No	2.883	-0.004	2.0	LatePress	0	0.241	n/a	4	16	ButtonPress	MissedWin	True
165.714	0.46	Win2	0.9412	n/a	No	2.883	n/a	n/a	LatePress	0	n/a	n/a	4	16	Blank	MissedWin	True
166.165	1.45	Win2	0.9412	n/a	No	2.883	n/a	5.0	LatePress	0	0.008	165.173	4	16	Feedback	MissedWin	True
167.619	2.883	Win2	0.9412	n/a	No	2.883	n/a	n/a	LatePress	0	0.0	n/a	4	16	ISIslide	MissedWin	True
170.528	0.25	Lose2	0.9444	0.0	Yes	2.722	0.028	n/a	GoodResponse	0	n/a	n/a	4	17	Cue	AvoidedLoss	True
170.779	3.95	Lose2	0.9444	0.0	Yes	2.722	0.001	n/a	GoodResponse	0	n/a	n/a	4	17	Fixation	AvoidedLoss	True
174.724	0.23	Lose2	0.9444	0.004	Yes	2.722	-0.004	2.0	GoodResponse	0	0.219	173.943	4	17	Target	AvoidedLoss	True
174.943	0.3	Lose2	0.9444	0.004	Yes	2.722	-0.004	2.0	GoodResponse	0	0.219	n/a	4	17	ButtonPress	AvoidedLoss	True
174.958	0.47	Lose2	0.9444	n/a	Yes	2.722	n/a	n/a	GoodResponse	0	n/a	n/a	4	17	Blank	AvoidedLoss	True
175.426	1.45	Lose2	0.9444	n/a	Yes	2.722	n/a	5.0	GoodResponse	0	0.012	174.438	4	17	Feedback	AvoidedLoss	True
176.88	2.722	Lose2	0.9444	n/a	Yes	2.722	n/a	n/a	GoodResponse	0	0.0	n/a	4	17	ISIslide	AvoidedLoss	True
179.622	0.25	Lose2	0.9473999999999999	0.0	Yes	2.728	0.022	n/a	GoodResponse	0	n/a	n/a	4	18	Cue	AvoidedLoss	True
179.873	4.05	Lose2	0.9473999999999999	0.0	Yes	2.728	0.001	n/a	GoodResponse	0	n/a	n/a	4	18	Fixation	AvoidedLoss	True
183.918	0.22	Lose2	0.9473999999999999	0.004	Yes	2.728	-0.004	2.0	GoodResponse	0	0.2	183.118	4	18	Target	AvoidedLoss	True
184.118	0.3	Lose2	0.9473999999999999	0.004	Yes	2.728	-0.004	2.0	GoodResponse	0	0.2	n/a	4	18	ButtonPress	AvoidedLoss	True
184.152	0.48	Lose2	0.9473999999999999	n/a	Yes	2.728	n/a	n/a	GoodResponse	0	n/a	n/a	4	18	Blank	AvoidedLoss	True
184.62	1.45	Lose2	0.9473999999999999	n/a	Yes	2.728	n/a	5.0	GoodResponse	0	0.038	183.658	4	18	Feedback	AvoidedLoss	True
186.075	2.728	Lose2	0.9473999999999999	n/a	Yes	2.728	n/a	n/a	GoodResponse	0	0.0	n/a	4	18	ISIslide	AvoidedLoss	True
188.816	0.25	Control	0.9	0.0	No	2.934	0.016	n/a	LatePress	0	n/a	n/a	4	19	Cue	Neutral	True
189.067	3.95	Control	0.9	0.0	No	2.934	0.001	n/a	LatePress	0	n/a	n/a	4	19	Fixation	Neutral	True
193.012	0.21	Control	0.9	0.004	No	2.934	-0.004	2.0	LatePress	0	0.211	192.223	4	19	Target	Neutral	True
193.223	0.3	Control	0.9	0.004	No	2.934	-0.004	2.0	LatePress	0	0.211	n/a	4	19	ButtonPress	Neutral	True
193.229	0.49	Control	0.9	n/a	No	2.934	n/a	n/a	LatePress	0	n/a	n/a	4	19	Blank	Neutral	True
193.714	1.45	Control	0.9	n/a	No	2.934	n/a	5.0	LatePress	0	0.017	192.731	4	19	Feedback	Neutral	True
195.169	2.934	Control	0.9	n/a	No	2.934	n/a	n/a	LatePress	0	0.0	n/a	4	19	ISIslide	Neutral	True
198.127	0.25	Control	0.8571	0.001	No	2.623	0.027	n/a	NoResponse	0	n/a	n/a	4	20	Cue	Neutral	True
198.378	4.05	Control	0.8571	0.0	No	2.623	0.001	n/a	NoResponse	0	n/a	n/a	4	20	Fixation	Neutral	True
202.424	0.2	Control	0.8571	0.003	No	2.623	-0.003	2.0	NoResponse	0	0.295	201.719	4	20	Target	Neutral	True
202.624	0.5	Control	0.8571	n/a	No	2.623	n/a	n/a	NoResponse	0	n/a	n/a	4	20	Blank	Neutral	True
202.719	0.3	Control	0.8571	0.003	No	2.623	-0.003	2.0	NoResponse	0	0.295	n/a	4	20	ButtonPress	Neutral	True
203.126	1.45	Control	0.8571	n/a	No	2.623	n/a	5.0	NoResponse	0	0.02	202.146	4	20	Feedback	Neutral	True
204.58	2.623	Control	0.8571	n/a	No	2.623	n/a	n/a	NoResponse	0	0.0	n/a	4	20	ISIslide	Neutral	True
207.221	0.25	Control	0.8181999999999999	0.001	No	2.779	0.021	n/a	NoResponse	0	n/a	n/a	4	21	Cue	Neutral	True
207.472	4.1	Control	0.8181999999999999	0.0	No	2.779	0.001	n/a	NoResponse	0	n/a	n/a	4	21	Fixation	Neutral	True
211.568	0.19	Control	0.8181999999999999	0.003	No	2.779	-0.003	2.0	NoResponse	0	0.234	210.802	4	21	Target	Neutral	True
211.768	0.51	Control	0.8181999999999999	n/a	No	2.779	n/a	n/a	NoResponse	0	n/a	n/a	4	21	Blank	Neutral	True
211.802	0.3	Control	0.8181999999999999	0.003	No	2.779	-0.003	2.0	NoResponse	0	0.234	n/a	4	21	ButtonPress	Neutral	True
212.27	1.45	Control	0.8181999999999999	n/a	No	2.779	n/a	5.0	NoResponse	0	0.046	211.316	4	21	Feedback	Neutral	True
213.724	2.779	Control	0.8181999999999999	n/a	No	2.779	n/a	n/a	NoResponse	0	0.0	n/a	4	21	ISIslide	Neutral	True
216.516	0.25	Control	0.7826000000000001	0.0	No	2.784	0.016	n/a	NoResponse	0	n/a	n/a	4	22	Cue	Neutral	True
216.767	4.0	Control	0.7826000000000001	0.0	No	2.784	0.001	n/a	NoResponse	0	n/a	n/a	4	22	Fixation	Neutral	True
220.762	0.18	Control	0.7826000000000001	0.004	No	2.784	-0.004	2.0	NoResponse	0	0.214	219.976	4	22	Target	Neutral	True
220.946	0.52	Control	0.7826000000000001	n/a	No	2.784	n/a	n/a	NoResponse	0	n/a	n/a	4	22	Blank	Neutral	True
220.976	0.3	Control	0.7826000000000001	0.004	No	2.784	-0.004	2.0	NoResponse	0	0.214	n/a	4	22	ButtonPress	Neutral	True
221.464	1.45	Control	0.7826000000000001	n/a	No	2.784	n/a	5.0	NoResponse	0	0.022	220.486	4	22	Feedback	Neutral	True
222.918	2.784	Control	0.7826000000000001	n/a	No	2.784	n/a	n/a	NoResponse	0	0.0	n/a	4	22	ISIslide	Neutral	True
225.727	0.25	Control	0.75	0.0	No	2.773	0.027	n/a	NoResponse	0	n/a	n/a	4	23	Cue	Neutral	True
225.978	3.9	Control	0.75	0.0	No	2.773	0.001	n/a	NoResponse	0	n/a	n/a	4	23	Fixation	Neutral	True
229.873	0.17	Control	0.75	0.004	No	2.773	-0.004	2.0	NoResponse	0	0.221	229.094	4	23	Target	Neutral	True
230.056	0.53	Control	0.75	n/a	No	2.773	n/a	n/a	NoResponse	0	n/a	n/a	4	23	Blank	Neutral	True
230.094	0.3	Control	0.75	0.004	No	2.773	-0.004	2.0	NoResponse	0	0.221	n/a	4	23	ButtonPress	Neutral	True
230.575	1.45	Control	0.75	n/a	No	2.773	n/a	5.0	NoResponse	0	0.033	229.608	4	23	Feedback	Neutral	True
232.029	2.773	Control	0.75	n/a	No	2.773	n/a	n/a	NoResponse	0	0.0	n/a	4	23	ISIslide	Neutral	True
234.821	0.25	Win2	0.72	0.0	No	3.129	0.021	n/a	NoResponse	0	n/a	n/a	4	24	Cue	MissedWin	True
235.072	3.95	Win2	0.72	0.0	No	3.129	0.001	n/a	NoResponse	0	n/a	n/a	4	24	Fixation	MissedWin	True
239.017	0.16	Win2	0.72	0.004	No	3.129	-0.004	2.0	NoResponse	0	0.194	238.211	4	24	Target	MissedWin	True
239.184	0.54	Win2	0.72	n/a	No	3.129	n/a	n/a	NoResponse	0	n/a	n/a	4	24	Blank	MissedWin	True
239.211	0.3	Win2	0.72	0.004	No	3.129	-0.004	2.0	NoResponse	0	0.194	n/a	4	24	ButtonPress	MissedWin	True
239.719	1.45	Win2	0.72	n/a	No	3.129	n/a	5.0	NoResponse	0	0.011	238.73	4	24	Feedback	MissedWin	True
241.173	3.129	Win2	0.72	n/a	No	3.129	n/a	n/a	NoResponse	0	0.0	n/a	4	24	ISIslide	MissedWin	True
244.316	0.25	Win2	0.6923	0.0	No	3.084	0.016	n/a	NoResponse	0	n/a	n/a	4	25	Cue	MissedWin	True
244.567	4.0	Win2	0.6923	0.0	No	3.084	0.001	n/a	NoResponse	0	n/a	n/a	4	25	Fixation	MissedWin	True
248.562	0.15	Win2	0.6923	0.004	No	3.084	-0.004	2.0	NoResponse	0	0.223	247.785	4	25	Target	MissedWin	True
248.712	0.55	Win2	0.6923	n/a	No	3.084	n/a	n/a	NoResponse	0	n/a	n/a	4	25	Blank	MissedWin	True
248.785	0.3	Win2	0.6923	0.004	No	3.084	-0.004	2.0	NoResponse	0	0.223	n/a	4	25	ButtonPress	MissedWin	True
249.264	1.45	Win2	0.6923	n/a	No	3.084	n/a	5.0	NoResponse	0	0.028	248.292	4	25	Feedback	MissedWin	True
250.718	3.084	Win2	0.6923	n/a	No	3.084	n/a	n/a	NoResponse	0	0.0	n/a	4	25	ISIslide	MissedWin	True
253.828	0.25	Win2	0.6667000000000001	0.0	No	2.922	0.028	n/a	NoResponse	0	n/a	n/a	4	26	Cue	MissedWin	True
254.078	3.95	Win2	0.6667000000000001	0.001	No	2.922	0.0	2.0	NoResponse	0	3.82	256.898	4	26	Fixation	MissedWin	True
257.898	0.3	Win2	0.6667000000000001	0.001	No	2.922	0.0	2.0	NoResponse	0	3.82	n/a	4	26	ButtonPress	MissedWin	True
258.024	0.15	Win2	0.6667000000000001	0.004	No	2.922	-0.004	n/a	NoResponse	0	n/a	n/a	4	26	Target	MissedWin	True
258.174	0.55	Win2	0.6667000000000001	n/a	No	2.922	n/a	n/a	NoResponse	0	n/a	n/a	4	26	Blank	MissedWin	True
258.726	1.45	Win2	0.6667000000000001	n/a	No	2.922	n/a	5.0	NoResponse	0	0.029	257.755	4	26	Feedback	MissedWin	True
260.18	2.922	Win2	0.6667000000000001	n/a	No	2.922	n/a	n/a	NoResponse	0	0.0	n/a	4	26	ISIslide	MissedWin	True
263.122	0.25	Lose2	0.6429	0.0	No	2.828	0.022	n/a	NoResponse	-1	n/a	n/a	3	27	Cue	Loss	True
263.373	4.05	Lose2	0.6429	0.0	No	2.828	0.001	n/a	NoResponse	-1	n/a	n/a	3	27	Fixation	Loss	True
267.418	0.15	Lose2	0.6429	0.004	No	2.828	-0.004	2.0	NoResponse	-1	0.171	266.589	3	27	Target	Loss	True
267.569	0.55	Lose2	0.6429	n/a	No	2.828	n/a	n/a	NoResponse	-1	n/a	n/a	3	27	Blank	Loss	True
267.589	0.3	Lose2	0.6429	0.004	No	2.828	-0.004	2.0	NoResponse	-1	0.171	n/a	3	27	ButtonPress	Loss	True
268.121	1.45	Lose2	0.6429	n/a	No	2.828	n/a	5.0	NoResponse	-1	0.048	267.169	3	27	Feedback	Loss	True
269.575	2.828	Lose2	0.6429	n/a	No	2.828	n/a	n/a	NoResponse	-1	0.0	n/a	3	27	ISIslide	Loss	True
272.417	0.25	Control	0.6207	0.0	No	2.833	0.017	n/a	NoResponse	0	n/a	n/a	3	28	Cue	Neutral	True
272.668	4.05	Control	0.6207	0.0	No	2.833	0.001	2.0	NoResponse	0	4.041	275.709	3	28	Fixation	Neutral	True
276.709	0.3	Control	0.6207	0.0	No	2.833	0.001	2.0	NoResponse	0	4.041	n/a	3	28	ButtonPress	Neutral	True
276.713	0.16	Control	0.6207	0.004	No	2.833	-0.004	n/a	NoResponse	0	n/a	n/a	3	28	Target	Neutral	True
276.88	0.54	Control	0.6207	n/a	No	2.833	n/a	n/a	NoResponse	0	n/a	n/a	3	28	Blank	Neutral	True
277.415	1.45	Control	0.6207	n/a	No	2.833	n/a	5.0	NoResponse	0	0.022	276.437	3	28	Feedback	Neutral	True
278.869	2.833	Control	0.6207	n/a	No	2.833	n/a	n/a	NoResponse	0	0.0	n/a	3	28	ISIslide	Neutral	True
281.728	0.25	Lose2	0.6	0.0	No	2.822	0.028	n/a	LatePress	-1	n/a	n/a	2	29	Cue	Loss	True
281.979	3.95	Lose2	0.6	0.0	No	2.822	0.001	n/a	LatePress	-1	n/a	n/a	2	29	Fixation	Loss	True
285.924	0.17	Lose2	0.6	0.004	No	2.822	-0.004	2.0	LatePress	-1	0.182	285.106	2	29	Target	Loss	True
286.106	0.3	Lose2	0.6	0.004	No	2.822	-0.004	2.0	LatePress	-1	0.182	n/a	2	29	ButtonPress	Loss	True
286.108	0.53	Lose2	0.6	n/a	No	2.822	n/a	n/a	LatePress	-1	n/a	n/a	2	29	Blank	Loss	True
286.626	1.45	Lose2	0.6	n/a	No	2.822	n/a	5.0	LatePress	-1	0.031	285.657	2	29	Feedback	Loss	True
288.08	2.822	Lose2	0.6	n/a	No	2.822	n/a	n/a	LatePress	-1	0.0	n/a	2	29	ISIslide	Loss	True
290.922	0.25	Win2	0.5806	0.0	No	2.778	0.022	n/a	PrematurePress	0	n/a	n/a	2	30	Cue	MissedWin	True
291.173	3.9	Win2	0.5806	0.0	No	2.778	0.001	n/a	PrematurePress	0	n/a	n/a	2	30	Fixation	MissedWin	True
295.068	0.18	Win2	0.5806	0.004	No	2.778	-0.004	2.0	PrematurePress	0	0.013	294.081	2	30	Target	MissedWin	True
295.081	0.3	Win2	0.5806	0.004	No	2.778	-0.004	2.0	PrematurePress	0	0.013	n/a	2	30	ButtonPress	MissedWin	True
295.252	0.52	Win2	0.5806	n/a	No	2.778	n/a	n/a	PrematurePress	0	n/a	n/a	2	30	Blank	MissedWin	True
295.77	1.45	Win2	0.5806	n/a	No	2.778	n/a	5.0	PrematurePress	0	0.009	294.779	2	30	Feedback	MissedWin	True
297.224	2.778	Win2	0.5806	n/a	No	2.778	n/a	n/a	PrematurePress	0	0.0	n/a	2	30	ISIslide	MissedWin	True
300.016	0.25	Lose2	0.5625	0.0	No	2.834	0.016	n/a	NoResponse	-1	n/a	n/a	1	31	Cue	Loss	True
300.267	4.05	Lose2	0.5625	0.0	No	2.834	0.001	2.0	NoResponse	-1	4.039	303.306	1	31	Fixation	Loss	True
304.306	0.3	Lose2	0.5625	0.0	No	2.834	0.001	2.0	NoResponse	-1	4.039	n/a	1	31	ButtonPress	Loss	True
304.312	0.19	Lose2	0.5625	0.004	No	2.834	-0.004	n/a	NoResponse	-1	n/a	n/a	1	31	Target	Loss	True
304.513	0.51	Lose2	0.5625	n/a	No	2.834	n/a	n/a	NoResponse	-1	n/a	n/a	1	31	Blank	Loss	True
305.014	1.45	Lose2	0.5625	n/a	No	2.834	n/a	5.0	NoResponse	-1	0.033	304.047	1	31	Feedback	Loss	True
306.469	2.834	Lose2	0.5625	n/a	No	2.834	n/a	n/a	NoResponse	-1	0.0	n/a	1	31	ISIslide	Loss	True
309.327	0.25	Lose2	0.5455	0.0	No	2.623	0.027	n/a	NoResponse	-1	n/a	n/a	0	32	Cue	Loss	True
309.578	4.15	Lose2	0.5455	0.0	No	2.623	0.001	n/a	NoResponse	-1	n/a	n/a	0	32	Fixation	Loss	True
313.724	0.2	Lose2	0.5455	0.003	No	2.623	-0.003	2.0	NoResponse	-1	0.215	312.939	0	32	Target	Loss	True
313.924	0.5	Lose2	0.5455	n/a	No	2.623	n/a	n/a	NoResponse	-1	n/a	n/a	0	32	Blank	Loss	True
313.939	0.3	Lose2	0.5455	0.003	No	2.623	-0.003	2.0	NoResponse	-1	0.215	n/a	0	32	ButtonPress	Loss	True
314.426	1.45	Lose2	0.5455	n/a	No	2.623	n/a	5.0	NoResponse	-1	0.036	313.462	0	32	Feedback	Loss	True
315.88	2.623	Lose2	0.5455	n/a	No	2.623	n/a	n/a	NoResponse	-1	0.0	n/a	0	32	ISIslide	Loss	True
318.522	0.25	Win2	0.5294	0.0	No	2.678	0.022	n/a	NoResponse	0	n/a	n/a	0	33	Cue	MissedWin	True
318.772	4.0	Win2	0.5294	0.0	No	2.678	0.0	2.0	NoResponse	0	3.796	321.568	0	33	Fixation	MissedWin	True
322.568	0.3	Win2	0.5294	0.0	No	2.678	0.0	2.0	NoResponse	0	3.796	n/a	0	33	ButtonPress	MissedWin	True
322.768	0.21	Win2	0.5294	0.004	No	2.678	-0.004	n/a	NoResponse	0	n/a	n/a	0	33	Target	MissedWin	True
322.985	0.49	Win2	0.5294	n/a	No	2.678	n/a	n/a	NoResponse	0	n/a	n/a	0	33	Blank	MissedWin	True
323.47	1.45	Win2	0.5294	n/a	No	2.678	n/a	5.0	NoResponse	0	0.016	322.486	0	33	Feedback	MissedWin	True
324.924	2.678	Win2	0.5294	n/a	No	2.678	n/a	n/a	NoResponse	0	0.0	n/a	0	33	ISIslide	MissedWin	True
327.615	0.25	Lose2	0.5143	0.001	No	2.635	0.015	n/a	NoResponse	-1	n/a	n/a	-1	34	Cue	Loss	True
327.866	4.05	Lose2	0.5143	0.0	No	2.635	0.001	2.0	NoResponse	-1	3.949	330.815	-1	34	Fixation	Loss	True
331.815	0.3	Lose2	0.5143	0.0	No	2.635	0.001	2.0	NoResponse	-1	3.949	n/a	-1	34	ButtonPress	Loss	True
331.912	0.22	Lose2	0.5143	0.003	No	2.635	-0.003	n/a	NoResponse	-1	n/a	n/a	-1	34	Target	Loss	True
332.146	0.48	Lose2	0.5143	n/a	No	2.635	n/a	n/a	NoResponse	-1	n/a	n/a	-1	34	Blank	Loss	True
332.614	1.45	Lose2	0.5143	n/a	No	2.635	n/a	5.0	NoResponse	-1	0.042	331.656	-1	34	Feedback	Loss	True
334.068	2.635	Lose2	0.5143	n/a	No	2.635	n/a	n/a	NoResponse	-1	0.0	n/a	-1	34	ISIslide	Loss	True
336.726	0.25	Lose2	0.5	0.0	No	2.674	0.026	n/a	NoResponse	-1	n/a	n/a	-2	35	Cue	Loss	True
336.977	4.0	Lose2	0.5	0.0	No	2.674	0.001	n/a	NoResponse	-1	n/a	n/a	-2	35	Fixation	Loss	True
340.972	0.23	Lose2	0.5	0.004	No	2.674	-0.004	2.0	NoResponse	-1	0.259	340.231	-2	35	Target	Loss	True
341.206	0.47	Lose2	0.5	n/a	No	2.674	n/a	n/a	NoResponse	-1	n/a	n/a	-2	35	Blank	Loss	True
341.231	0.3	Lose2	0.5	0.004	No	2.674	-0.004	2.0	NoResponse	-1	0.259	n/a	-2	35	ButtonPress	Loss	True
341.674	1.45	Lose2	0.5	n/a	No	2.674	n/a	5.0	NoResponse	-1	0.007	340.681	-2	35	Feedback	Loss	True
343.129	2.674	Lose2	0.5	n/a	No	2.674	n/a	n/a	NoResponse	-1	0.0	n/a	-2	35	ISIslide	Loss	True
345.82	0.25	Control	0.5135000000000001	0.0	Yes	2.68	0.02	n/a	GoodResponse	0	n/a	n/a	-2	36	Cue	Neutral	True
346.071	4.0	Control	0.5135000000000001	0.0	Yes	2.68	0.001	n/a	GoodResponse	0	n/a	n/a	-2	36	Fixation	Neutral	True
350.066	0.24	Control	0.5135000000000001	0.004	Yes	2.68	-0.004	2.0	GoodResponse	0	0.199	349.265	-2	36	Target	Neutral	True
350.265	0.3	Control	0.5135000000000001	0.004	Yes	2.68	-0.004	2.0	GoodResponse	0	0.199	n/a	-2	36	ButtonPress	Neutral	True
350.317	0.46	Control	0.5135000000000001	n/a	Yes	2.68	n/a	n/a	GoodResponse	0	n/a	n/a	-2	36	Blank	Neutral	True
350.768	1.45	Control	0.5135000000000001	n/a	Yes	2.68	n/a	5.0	GoodResponse	0	0.035	349.803	-2	36	Feedback	Neutral	True
352.223	2.68	Control	0.5135000000000001	n/a	Yes	2.68	n/a	n/a	GoodResponse	0	0.0	n/a	-2	36	ISIslide	Neutral	True
354.931	0.25	Win2	0.5	0.0	No	2.869	0.031	n/a	PrematurePress	0	n/a	n/a	-2	37	Cue	MissedWin	True
355.181	4.0	Win2	0.5	0.0	No	2.869	0.0	n/a	PrematurePress	0	n/a	n/a	-2	37	Fixation	MissedWin	True
359.177	0.25	Win2	0.5	0.004	No	2.869	-0.004	2.0	PrematurePress	0	0.054	358.231	-2	37	Target	MissedWin	True
359.231	0.3	Win2	0.5	0.004	No	2.869	-0.004	2.0	PrematurePress	0	0.054	n/a	-2	37	ButtonPress	MissedWin	True
359.427	0.45	Win2	0.5	n/a	No	2.869	n/a	n/a	PrematurePress	0	n/a	n/a	-2	37	Blank	MissedWin	True
359.879	1.45	Win2	0.5	n/a	No	2.869	n/a	5.0	PrematurePress	0	0.046	358.925	-2	37	Feedback	MissedWin	True
361.333	2.869	Win2	0.5	n/a	No	2.869	n/a	n/a	PrematurePress	0	0.0	n/a	-2	37	ISIslide	MissedWin	True
364.225	0.25	Lose2	0.5128	0.0	Yes	2.825	0.025	n/a	GoodResponse	0	n/a	n/a	-2	38	Cue	AvoidedLoss	True
364.476	3.95	Lose2	0.5128	0.0	Yes	2.825	0.001	n/a	GoodResponse	0	n/a	n/a	-2	38	Fixation	AvoidedLoss	True
368.421	0.26	Lose2	0.5128	0.004	Yes	2.825	-0.004	2.0	GoodResponse	0	0.225	367.646	-2	38	Target	AvoidedLoss	True
368.646	0.3	Lose2	0.5128	0.004	Yes	2.825	-0.004	2.0	GoodResponse	0	0.225	n/a	-2	38	ButtonPress	AvoidedLoss	True
368.689	0.44	Lose2	0.5128	n/a	Yes	2.825	n/a	n/a	GoodResponse	0	n/a	n/a	-2	38	Blank	AvoidedLoss	True
369.123	1.45	Lose2	0.5128	n/a	Yes	2.825	n/a	5.0	GoodResponse	0	0.022	368.145	-2	38	Feedback	AvoidedLoss	True
370.578	2.825	Lose2	0.5128	n/a	Yes	2.825	n/a	n/a	GoodResponse	0	0.0	n/a	-2	38	ISIslide	AvoidedLoss	True
373.419	0.25	Win2	0.525	0.0	Yes	2.981	0.019	n/a	GoodResponse	1	n/a	n/a	-1	39	Cue	Win	True
373.67	4.1	Win2	0.525	0.0	Yes	2.981	0.001	n/a	GoodResponse	1	n/a	n/a	-1	39	Fixation	Win	True
377.766	0.27	Win2	0.525	0.003	Yes	2.981	-0.003	2.0	GoodResponse	1	0.169	376.935	-1	39	Target	Win	True
377.935	0.3	Win2	0.525	0.003	Yes	2.981	-0.003	2.0	GoodResponse	1	0.169	n/a	-1	39	ButtonPress	Win	True
378.05	0.43	Win2	0.525	n/a	Yes	2.981	n/a	n/a	GoodResponse	1	n/a	n/a	-1	39	Blank	Win	True
378.468	1.45	Win2	0.525	n/a	Yes	2.981	n/a	5.0	GoodResponse	1	0.042	377.51	-1	39	Feedback	Win	True
379.922	2.981	Win2	0.525	n/a	Yes	2.981	n/a	n/a	GoodResponse	1	0.0	n/a	-1	39	ISIslide	Win	True
382.931	0.25	Win2	0.5122	0.0	No	2.719	0.031	n/a	NoResponse	0	n/a	n/a	-1	40	Cue	MissedWin	True
383.182	3.95	Win2	0.5122	0.0	No	2.719	0.001	2.0	NoResponse	0	3.873	386.055	-1	40	Fixation	MissedWin	True
387.055	0.3	Win2	0.5122	0.0	No	2.719	0.001	2.0	NoResponse	0	3.873	n/a	-1	40	ButtonPress	MissedWin	True
387.127	0.28	Win2	0.5122	0.004	No	2.719	-0.004	n/a	NoResponse	0	n/a	n/a	-1	40	Target	MissedWin	True
387.411	0.42	Win2	0.5122	n/a	No	2.719	n/a	n/a	NoResponse	0	n/a	n/a	-1	40	Blank	MissedWin	True
387.829	1.45	Win2	0.5122	n/a	No	2.719	n/a	5.0	NoResponse	0	0.046	386.875	-1	40	Feedback	MissedWin	True
389.284	2.719	Win2	0.5122	n/a	No	2.719	n/a	n/a	NoResponse	0	0.0	n/a	-1	40	ISIslide	MissedWin	True
392.025	0.25	Win2	0.5238	0.0	Yes	2.775	0.025	n/a	GoodResponse	1	n/a	n/a	0	41	Cue	Win	True
392.276	3.9	Win2	0.5238	0.0	Yes	2.775	0.001	n/a	GoodResponse	1	n/a	n/a	0	41	Fixation	Win	True
396.171	0.29	Win2	0.5238	0.004	Yes	2.775	-0.004	2.0	GoodResponse	1	0.197	395.368	0	41	Target	Win	True
396.368	0.3	Win2	0.5238	0.004	Yes	2.775	-0.004	2.0	GoodResponse	1	0.197	n/a	0	41	ButtonPress	Win	True
396.472	0.41	Win2	0.5238	n/a	Yes	2.775	n/a	n/a	GoodResponse	1	n/a	n/a	0	41	Blank	Win	True
396.873	1.45	Win2	0.5238	n/a	Yes	2.775	n/a	5.0	GoodResponse	1	0.027	395.9	0	41	Feedback	Win	True
398.327	2.775	Win2	0.5238	n/a	Yes	2.775	n/a	n/a	GoodResponse	1	0.0	n/a	0	41	ISIslide	Win	True
401.119	0.25	Control	0.5349	0.0	Yes	2.931	0.019	n/a	GoodResponse	0	n/a	n/a	0	42	Cue	Neutral	True
401.37	3.85	Control	0.5349	0.0	Yes	2.931	0.001	n/a	GoodResponse	0	n/a	n/a	0	42	Fixation	Neutral	True
405.215	0.3	Control	0.5349	0.004	Yes	2.931	-0.004	2.0	GoodResponse	0	0.219	404.434	0	42	Target	Neutral	True
405.434	0.3	Control	0.5349	0.004	Yes	2.931	-0.004	2.0	GoodResponse	0	0.219	n/a	0	42	ButtonPress	Neutral	True
405.516	0.4	Control	0.5349	n/a	Yes	2.931	n/a	n/a	GoodResponse	0	n/a	n/a	0	42	Blank	Neutral	True
405.917	1.45	Control	0.5349	n/a	Yes	2.931	n/a	5.0	GoodResponse	0	0.007	404.924	0	42	Feedback	Neutral	True
407.371	2.931	Control	0.5349	n/a	Yes	2.931	n/a	n/a	GoodResponse	0	0.0	n/a	0	42	ISIslide	Neutral	True
410.33	0.25	Win2	0.5455	0.0	Yes	3.17	0.03	n/a	GoodResponse	1	n/a	n/a	1	43	Cue	Win	True
410.581	4.0	Win2	0.5455	0.0	Yes	3.17	0.001	n/a	GoodResponse	1	n/a	n/a	1	43	Fixation	Win	True
414.576	0.31	Win2	0.5455	0.004	Yes	3.17	-0.004	2.0	GoodResponse	1	0.136	413.712	1	43	Target	Win	True
414.712	0.3	Win2	0.5455	0.004	Yes	3.17	-0.004	2.0	GoodResponse	1	0.136	n/a	1	43	ButtonPress	Win	True
414.894	0.39	Win2	0.5455	n/a	Yes	3.17	n/a	n/a	GoodResponse	1	n/a	n/a	1	43	Blank	Win	True
415.278	1.45	Win2	0.5455	n/a	Yes	3.17	n/a	5.0	GoodResponse	1	0.012	414.29	1	43	Feedback	Win	True
416.733	3.17	Win2	0.5455	n/a	Yes	3.17	n/a	n/a	GoodResponse	1	0.0	n/a	1	43	ISIslide	Win	True
419.925	0.25	Win2	0.5556	0.001	Yes	2.975	0.025	n/a	GoodResponse	1	n/a	n/a	2	44	Cue	Win	True
420.176	4.0	Win2	0.5556	0.0	Yes	2.975	0.001	n/a	GoodResponse	1	n/a	n/a	2	44	Fixation	Win	True
424.171	0.32	Win2	0.5556	0.004	Yes	2.975	-0.004	2.0	GoodResponse	1	0.194	423.365	2	44	Target	Win	True
424.365	0.3	Win2	0.5556	0.004	Yes	2.975	-0.004	2.0	GoodResponse	1	0.194	n/a	2	44	ButtonPress	Win	True
424.506	0.38	Win2	0.5556	n/a	Yes	2.975	n/a	n/a	GoodResponse	1	n/a	n/a	2	44	Blank	Win	True
424.874	1.45	Win2	0.5556	n/a	Yes	2.975	n/a	5.0	GoodResponse	1	0.026	423.9	2	44	Feedback	Win	True
426.328	2.975	Win2	0.5556	n/a	Yes	2.975	n/a	n/a	GoodResponse	1	0.0	n/a	2	44	ISIslide	Win	True
429.32	0.25	Control	0.5652	0.0	Yes	2.88	0.02	n/a	GoodResponse	0	n/a	n/a	2	45	Cue	Neutral	True
429.571	4.1	Control	0.5652	0.0	Yes	2.88	0.001	n/a	GoodResponse	0	n/a	n/a	2	45	Fixation	Neutral	True
433.667	0.33	Control	0.5652	0.003	Yes	2.88	-0.003	2.0	GoodResponse	0	0.274	432.941	2	45	Target	Neutral	True
433.941	0.3	Control	0.5652	0.003	Yes	2.88	-0.003	2.0	GoodResponse	0	0.274	n/a	2	45	ButtonPress	Neutral	True
434.001	0.37	Control	0.5652	n/a	Yes	2.88	n/a	n/a	GoodResponse	0	n/a	n/a	2	45	Blank	Neutral	True
434.369	1.45	Control	0.5652	n/a	Yes	2.88	n/a	5.0	GoodResponse	0	0.043	433.412	2	45	Feedback	Neutral	True
435.823	2.88	Control	0.5652	n/a	Yes	2.88	n/a	n/a	GoodResponse	0	0.0	n/a	2	45	ISIslide	Neutral	True
438.715	0.25	Lose2	0.5532	0.0	No	3.385	0.015	n/a	NoResponse	-1	n/a	n/a	1	46	Cue	Loss	False
438.966	4.0	Lose2	0.5532	0.0	No	3.385	0.001	2.0	NoResponse	-1	3.803	441.769	1	46	Fixation	Loss	False
442.769	0.3	Lose2	0.5532	0.0	No	3.385	0.001	2.0	NoResponse	-1	3.803	n/a	1	46	ButtonPress	Loss	False
442.961	0.34	Lose2	0.5532	0.004	No	3.385	-0.004	2.0	NoResponse	-1	0.467	442.428	1	46	Target	Loss	False
443.312	0.36	Lose2	0.5532	n/a	No	3.385	n/a	n/a	NoResponse	-1	n/a	n/a	1	46	Blank	Loss	False
443.428	0.3	Lose2	0.5532	0.004	No	3.385	-0.004	2.0	NoResponse	-1	0.467	n/a	1	46	ButtonPress	Loss	False
443.663	1.45	Lose2	0.5532	n/a	No	3.385	n/a	5.0	NoResponse	-1	0.018	442.681	1	46	Feedback	Loss	False
445.118	3.385	Lose2	0.5532	n/a	No	3.385	n/a	n/a	NoResponse	-1	0.0	n/a	1	46	ISIslide	Loss	False
448.528	0.25	Lose2	0.5417000000000001	0.0	No	2.672	0.028	n/a	PrematurePress	-1	n/a	n/a	0	47	Cue	Loss	False
448.779	4.0	Lose2	0.5417000000000001	0.0	No	2.672	0.001	2.0	PrematurePress	-1	3.998	451.777	0	47	Fixation	Loss	False
452.774	0.35	Lose2	0.5417000000000001	0.004	No	2.672	-0.004	2.0	PrematurePress	-1	0.003	451.777	0	47	Target	Loss	False
452.777	0.3	Lose2	0.5417000000000001	0.0	No	2.672	0.001	2.0	PrematurePress	-1	3.998	n/a	0	47	ButtonPress	Loss	False
452.777	0.3	Lose2	0.5417000000000001	0.004	No	2.672	-0.004	2.0	PrematurePress	-1	0.003	n/a	0	47	ButtonPress	Loss	False
453.125	0.35	Lose2	0.5417000000000001	n/a	No	2.672	n/a	n/a	PrematurePress	-1	n/a	n/a	0	47	Blank	Loss	False
453.476	1.45	Lose2	0.5417000000000001	n/a	No	2.672	n/a	5.0	PrematurePress	-1	0.009	452.485	0	47	Feedback	Loss	False
454.93	2.672	Lose2	0.5417000000000001	n/a	No	2.672	n/a	n/a	PrematurePress	-1	0.0	n/a	0	47	ISIslide	Loss	False
457.622	0.25	Lose2	0.551	0.0	Yes	3.028	0.022	n/a	GoodResponse	0	n/a	n/a	0	48	Cue	AvoidedLoss	True
457.872	3.95	Lose2	0.551	0.001	Yes	3.028	0.0	n/a	GoodResponse	0	n/a	n/a	0	48	Fixation	AvoidedLoss	True
461.818	0.36	Lose2	0.551	0.004	Yes	3.028	-0.004	2.0	GoodResponse	0	0.199	461.017	0	48	Target	AvoidedLoss	True
462.017	0.3	Lose2	0.551	0.004	Yes	3.028	-0.004	2.0	GoodResponse	0	0.199	n/a	0	48	ButtonPress	AvoidedLoss	True
462.185	0.34	Lose2	0.551	n/a	Yes	3.028	n/a	n/a	GoodResponse	0	n/a	n/a	0	48	Blank	AvoidedLoss	True
462.52	1.45	Lose2	0.551	n/a	Yes	3.028	n/a	5.0	GoodResponse	0	0.038	461.558	0	48	Feedback	AvoidedLoss	True
463.974	3.028	Lose2	0.551	n/a	Yes	3.028	n/a	n/a	GoodResponse	0	0.0	n/a	0	48	ISIslide	AvoidedLoss	True
467.017	0.25	Control	0.56	0.0	Yes	2.883	0.017	n/a	GoodResponse	0	n/a	n/a	0	49	Cue	Neutral	True
467.267	4.0	Control	0.56	0.0	Yes	2.883	0.0	n/a	GoodResponse	0	n/a	n/a	0	49	Fixation	Neutral	True
471.263	0.37	Control	0.56	0.004	Yes	2.883	-0.004	2.0	GoodResponse	0	0.257	470.52	0	49	Target	Neutral	True
471.52	0.3	Control	0.56	0.004	Yes	2.883	-0.004	2.0	GoodResponse	0	0.257	n/a	0	49	ButtonPress	Neutral	True
471.647	0.33	Control	0.56	n/a	Yes	2.883	n/a	n/a	GoodResponse	0	n/a	n/a	0	49	Blank	Neutral	True
471.965	1.45	Control	0.56	n/a	Yes	2.883	n/a	5.0	GoodResponse	0	0.008	470.973	0	49	Feedback	Neutral	True
473.419	2.883	Control	0.56	n/a	Yes	2.883	n/a	n/a	GoodResponse	0	0.0	n/a	0	49	ISIslide	Neutral	True
476.328	0.25	Control	0.5686	0.0	Yes	2.772	0.028	n/a	GoodResponse	0	n/a	n/a	0	50	Cue	Neutral	True
476.578	4.0	Control	0.5686	0.001	Yes	2.772	0.0	n/a	GoodResponse	0	n/a	n/a	0	50	Fixation	Neutral	True
480.574	0.38	Control	0.5686	0.004	Yes	2.772	-0.004	2.0	GoodResponse	0	0.195	479.769	0	50	Target	Neutral	True
480.769	0.3	Control	0.5686	0.004	Yes	2.772	-0.004	2.0	GoodResponse	0	0.195	n/a	0	50	ButtonPress	Neutral	True
480.958	0.32	Control	0.5686	n/a	Yes	2.772	n/a	n/a	GoodResponse	0	n/a	n/a	0	50	Blank	Neutral	True
481.276	1.45	Control	0.5686	n/a	Yes	2.772	n/a	5.0	GoodResponse	0	0.014	480.29	0	50	Feedback	Neutral	True
482.73	2.772	Control	0.5686	n/a	Yes	2.772	n/a	n/a	GoodResponse	0	0.0	n/a	0	50	ISIslide	Neutral	True
485.522	0.25	Control	0.5769	0.0	Yes	2.728	0.022	n/a	GoodResponse	0	n/a	n/a	0	51	Cue	Neutral	True
485.773	3.95	Control	0.5769	0.0	Yes	2.728	0.001	n/a	GoodResponse	0	n/a	n/a	0	51	Fixation	Neutral	True
489.718	0.39	Control	0.5769	0.004	Yes	2.728	-0.004	2.0	GoodResponse	0	0.247	488.965	0	51	Target	Neutral	True
489.965	0.3	Control	0.5769	0.004	Yes	2.728	-0.004	2.0	GoodResponse	0	0.247	n/a	0	51	ButtonPress	Neutral	True
490.119	0.31	Control	0.5769	n/a	Yes	2.728	n/a	n/a	GoodResponse	0	n/a	n/a	0	51	Blank	Neutral	True
490.42	1.45	Control	0.5769	n/a	Yes	2.728	n/a	5.0	GoodResponse	0	0.041	489.461	0	51	Feedback	Neutral	True
491.874	2.728	Control	0.5769	n/a	Yes	2.728	n/a	n/a	GoodResponse	0	0.0	n/a	0	51	ISIslide	Neutral	True
494.616	0.25	Control	0.5849	0.0	Yes	2.634	0.016	n/a	GoodResponse	0	n/a	n/a	0	52	Cue	Neutral	True
494.867	4.05	Control	0.5849	0.0	Yes	2.634	0.001	n/a	GoodResponse	0	n/a	n/a	0	52	Fixation	Neutral	True
498.912	0.4	Control	0.5849	0.004	Yes	2.634	-0.004	2.0	GoodResponse	0	0.24	498.152	0	52	Target	Neutral	True
499.152	0.3	Control	0.5849	0.004	Yes	2.634	-0.004	2.0	GoodResponse	0	0.24	n/a	0	52	ButtonPress	Neutral	True
499.313	0.3	Control	0.5849	n/a	Yes	2.634	n/a	n/a	GoodResponse	0	n/a	n/a	0	52	Blank	Neutral	True
499.614	1.45	Control	0.5849	n/a	Yes	2.634	n/a	5.0	GoodResponse	0	0.018	498.632	0	52	Feedback	Neutral	True
501.069	2.634	Control	0.5849	n/a	Yes	2.634	n/a	n/a	GoodResponse	0	0.0	n/a	0	52	ISIslide	Neutral	True
503.727	0.25	Win2	0.5926	0.0	Yes	2.923	0.027	n/a	GoodResponse	1	n/a	n/a	1	53	Cue	Win	False
503.977	4.05	Win2	0.5926	0.0	Yes	2.923	0.0	2.0	GoodResponse	1	3.726	506.703	1	53	Fixation	Win	False
507.703	0.3	Win2	0.5926	0.0	Yes	2.923	0.0	2.0	GoodResponse	1	3.726	n/a	1	53	ButtonPress	Win	False
508.023	0.41	Win2	0.5926	0.004	Yes	2.923	-0.004	2.0	GoodResponse	1	0.244	507.267	1	53	Target	Win	False
508.267	0.3	Win2	0.5926	0.004	Yes	2.923	-0.004	2.0	GoodResponse	1	0.244	n/a	1	53	ButtonPress	Win	False
508.441	0.29	Win2	0.5926	n/a	Yes	2.923	n/a	n/a	GoodResponse	1	n/a	n/a	1	53	Blank	Win	False
508.725	1.45	Win2	0.5926	n/a	Yes	2.923	n/a	5.0	GoodResponse	1	0.028	507.753	1	53	Feedback	Win	False
510.179	2.923	Win2	0.5926	n/a	Yes	2.923	n/a	n/a	GoodResponse	1	0.0	n/a	1	53	ISIslide	Win	False
513.121	0.25	Win2	0.6	0.0	Yes	2.729	0.021	n/a	GoodResponse	1	n/a	n/a	2	54	Cue	Win	True
513.372	3.95	Win2	0.6	0.0	Yes	2.729	0.001	n/a	GoodResponse	1	n/a	n/a	2	54	Fixation	Win	True
517.317	0.42	Win2	0.6	0.004	Yes	2.729	-0.004	2.0	GoodResponse	1	0.264	516.581	2	54	Target	Win	True
517.581	0.3	Win2	0.6	0.004	Yes	2.729	-0.004	2.0	GoodResponse	1	0.264	n/a	2	54	ButtonPress	Win	True
517.752	0.28	Win2	0.6	n/a	Yes	2.729	n/a	n/a	GoodResponse	1	n/a	n/a	2	54	Blank	Win	True
518.019	1.45	Win2	0.6	n/a	Yes	2.729	n/a	5.0	GoodResponse	1	0.008	517.027	2	54	Feedback	Win	True
519.474	2.729	Win2	0.6	n/a	Yes	2.729	n/a	n/a	GoodResponse	1	0.0	n/a	2	54	ISIslide	Win	True
522.215	0.25	Control	0.6071	0.0	Yes	3.035	0.015	n/a	GoodResponse	0	n/a	n/a	2	55	Cue	Neutral	True
522.466	3.95	Control	0.6071	0.0	Yes	3.035	0.001	n/a	GoodResponse	0	n/a	n/a	2	55	Fixation	Neutral	True
526.411	0.43	Control	0.6071	0.004	Yes	3.035	-0.004	2.0	GoodResponse	0	0.209	525.62	2	55	Target	Neutral	True
526.62	0.3	Control	0.6071	0.004	Yes	3.035	-0.004	2.0	GoodResponse	0	0.209	n/a	2	55	ButtonPress	Neutral	True
526.846	0.27	Control	0.6071	n/a	Yes	3.035	n/a	n/a	GoodResponse	0	n/a	n/a	2	55	Blank	Neutral	True
527.113	1.45	Control	0.6071	n/a	Yes	3.035	n/a	5.0	GoodResponse	0	0.03	526.143	2	55	Feedback	Neutral	True
528.568	3.035	Control	0.6071	n/a	Yes	3.035	n/a	n/a	GoodResponse	0	0.0	n/a	2	55	ISIslide	Neutral	True
531.627	0.25	Control	0.614	0.0	Yes	2.823	0.027	n/a	GoodResponse	0	n/a	n/a	2	56	Cue	Neutral	True
531.878	3.95	Control	0.614	0.0	Yes	2.823	0.001	n/a	GoodResponse	0	n/a	n/a	2	56	Fixation	Neutral	True
535.823	0.44	Control	0.614	0.004	Yes	2.823	-0.004	2.0	GoodResponse	0	0.228	535.051	2	56	Target	Neutral	True
536.051	0.3	Control	0.614	0.004	Yes	2.823	-0.004	2.0	GoodResponse	0	0.228	n/a	2	56	ButtonPress	Neutral	True
536.274	0.26	Control	0.614	n/a	Yes	2.823	n/a	n/a	GoodResponse	0	n/a	n/a	2	56	Blank	Neutral	True
536.525	1.45	Control	0.614	n/a	Yes	2.823	n/a	5.0	GoodResponse	0	0.033	535.558	2	56	Feedback	Neutral	True
537.979	2.823	Control	0.614	n/a	Yes	2.823	n/a	n/a	GoodResponse	0	0.0	n/a	2	56	ISIslide	Neutral	True
540.821	0.25	Control	0.6207	0.0	Yes	3.479	0.021	n/a	GoodResponse	0	n/a	n/a	2	57	Cue	Neutral	True
541.072	4.0	Control	0.6207	0.0	Yes	3.479	0.001	n/a	GoodResponse	0	n/a	n/a	2	57	Fixation	Neutral	True
545.067	0.45	Control	0.6207	0.004	Yes	3.479	-0.004	2.0	GoodResponse	0	0.249	544.316	2	57	Target	Neutral	True
545.316	0.3	Control	0.6207	0.004	Yes	3.479	-0.004	2.0	GoodResponse	0	0.249	n/a	2	57	ButtonPress	Neutral	True
545.518	0.25	Control	0.6207	n/a	Yes	3.479	n/a	n/a	GoodResponse	0	n/a	n/a	2	57	Blank	Neutral	True
545.769	1.45	Control	0.6207	n/a	Yes	3.479	n/a	5.0	GoodResponse	0	0.009	544.778	2	57	Feedback	Neutral	True
547.224	3.479	Control	0.6207	n/a	Yes	3.479	n/a	n/a	GoodResponse	0	0.0	n/a	2	57	ISIslide	Neutral	True
550.717	0.25	Win2	0.6271	0.0	Yes	2.733	0.017	n/a	GoodResponse	1	n/a	n/a	3	58	Cue	Win	True
550.968	4.05	Win2	0.6271	0.0	Yes	2.733	0.001	n/a	GoodResponse	1	n/a	n/a	3	58	Fixation	Win	True
555.014	0.46	Win2	0.6271	0.003	Yes	2.733	-0.003	2.0	GoodResponse	1	0.198	554.212	3	58	Target	Win	True
555.212	0.3	Win2	0.6271	0.003	Yes	2.733	-0.003	2.0	GoodResponse	1	0.198	n/a	3	58	ButtonPress	Win	True
555.482	0.24	Win2	0.6271	n/a	Yes	2.733	n/a	n/a	GoodResponse	1	n/a	n/a	3	58	Blank	Win	True
555.716	1.45	Win2	0.6271	n/a	Yes	2.733	n/a	5.0	GoodResponse	1	0.013	554.729	3	58	Feedback	Win	True
557.17	2.733	Win2	0.6271	n/a	Yes	2.733	n/a	n/a	GoodResponse	1	0.0	n/a	3	58	ISIslide	Win	True
559.928	0.25	Lose2	0.6333	0.0	Yes	2.672	0.028	n/a	GoodResponse	0	n/a	n/a	3	59	Cue	AvoidedLoss	True
560.179	4.0	Lose2	0.6333	0.0	Yes	2.672	0.001	n/a	GoodResponse	0	n/a	n/a	3	59	Fixation	AvoidedLoss	True
564.174	0.47	Lose2	0.6333	0.004	Yes	2.672	-0.004	2.0	GoodResponse	0	0.148	563.322	3	59	Target	AvoidedLoss	True
564.322	0.3	Lose2	0.6333	0.004	Yes	2.672	-0.004	2.0	GoodResponse	0	0.148	n/a	3	59	ButtonPress	AvoidedLoss	True
564.659	0.23	Lose2	0.6333	n/a	Yes	2.672	n/a	n/a	GoodResponse	0	n/a	n/a	3	59	Blank	AvoidedLoss	True
564.876	1.45	Lose2	0.6333	n/a	Yes	2.672	n/a	5.0	GoodResponse	0	0.024	563.9	3	59	Feedback	AvoidedLoss	True
566.331	2.672	Lose2	0.6333	n/a	Yes	2.672	n/a	n/a	GoodResponse	0	0.0	n/a	3	59	ISIslide	AvoidedLoss	True
569.022	0.25	Control	0.6393	0.0	Yes	2.678	0.022	n/a	GoodResponse	0	n/a	n/a	3	60	Cue	Neutral	True
569.273	4.0	Control	0.6393	0.0	Yes	2.678	0.001	n/a	GoodResponse	0	n/a	n/a	3	60	Fixation	Neutral	True
573.268	0.48	Control	0.6393	0.004	Yes	2.678	-0.004	2.0	GoodResponse	0	0.272	572.54	3	60	Target	Neutral	True
573.54	0.3	Control	0.6393	0.004	Yes	2.678	-0.004	2.0	GoodResponse	0	0.272	n/a	3	60	ButtonPress	Neutral	True
573.753	0.22	Control	0.6393	n/a	Yes	2.678	n/a	n/a	GoodResponse	0	n/a	n/a	3	60	Blank	Neutral	True
573.97	1.45	Control	0.6393	n/a	Yes	2.678	n/a	5.0	GoodResponse	0	0.007	572.977	3	60	Feedback	Neutral	True
575.425	2.678	Control	0.6393	n/a	Yes	2.678	n/a	n/a	GoodResponse	0	0.0	n/a	3	60	ISIslide	Neutral	True
578.116	0.25	Lose2	0.6452	0.0	Yes	2.984	0.016	n/a	GoodResponse	0	n/a	n/a	3	61	Cue	AvoidedLoss	True
578.367	4.0	Lose2	0.6452	0.0	Yes	2.984	0.001	n/a	GoodResponse	0	n/a	n/a	3	61	Fixation	AvoidedLoss	True
582.362	0.49	Lose2	0.6452	0.004	Yes	2.984	-0.004	2.0	GoodResponse	0	0.185	581.547	3	61	Target	AvoidedLoss	True
582.547	0.3	Lose2	0.6452	0.004	Yes	2.984	-0.004	2.0	GoodResponse	0	0.185	n/a	3	61	ButtonPress	AvoidedLoss	True
582.864	0.21	Lose2	0.6452	n/a	Yes	2.984	n/a	n/a	GoodResponse	0	n/a	n/a	3	61	Blank	AvoidedLoss	True
583.064	1.45	Lose2	0.6452	n/a	Yes	2.984	n/a	5.0	GoodResponse	0	0.03	582.094	3	61	Feedback	AvoidedLoss	True
584.519	2.984	Lose2	0.6452	n/a	Yes	2.984	n/a	n/a	GoodResponse	0	0.0	n/a	3	61	ISIslide	AvoidedLoss	True
587.528	0.25	Lose2	0.6507999999999999	0.0	Yes	2.872	0.028	n/a	GoodResponse	0	n/a	n/a	3	62	Cue	AvoidedLoss	True
587.778	3.9	Lose2	0.6507999999999999	0.0	Yes	2.872	0.0	n/a	GoodResponse	0	n/a	n/a	3	62	Fixation	AvoidedLoss	True
591.69	0.5	Lose2	0.6507999999999999	0.0	Yes	2.872	0.012	2.0	GoodResponse	0	0.259	590.949	3	62	Target	AvoidedLoss	True
591.949	0.3	Lose2	0.6507999999999999	0.0	Yes	2.872	0.012	2.0	GoodResponse	0	0.259	n/a	3	62	ButtonPress	AvoidedLoss	True
592.175	0.2	Lose2	0.6507999999999999	n/a	Yes	2.872	n/a	n/a	GoodResponse	0	n/a	n/a	3	62	Blank	AvoidedLoss	True
592.375	1.45	Lose2	0.6507999999999999	n/a	Yes	2.872	n/a	5.0	GoodResponse	0	0.036	591.411	3	62	Feedback	AvoidedLoss	True
593.83	2.872	Lose2	0.6507999999999999	n/a	Yes	2.872	n/a	n/a	GoodResponse	0	0.0	n/a	3	62	ISIslide	AvoidedLoss	True
596.722	0.25	Lose2	0.6562	0.0	Yes	2.628	0.022	n/a	GoodResponse	0	n/a	n/a	3	63	Cue	AvoidedLoss	True
596.973	4.05	Lose2	0.6562	0.0	Yes	2.628	0.001	n/a	GoodResponse	0	n/a	n/a	3	63	Fixation	AvoidedLoss	True
601.018	0.5	Lose2	0.6562	0.004	Yes	2.628	-0.004	2.0	GoodResponse	0	0.228	600.246	3	63	Target	AvoidedLoss	True
601.246	0.3	Lose2	0.6562	0.004	Yes	2.628	-0.004	2.0	GoodResponse	0	0.228	n/a	3	63	ButtonPress	AvoidedLoss	True
601.52	0.2	Lose2	0.6562	n/a	Yes	2.628	n/a	n/a	GoodResponse	0	n/a	n/a	3	63	Blank	AvoidedLoss	True
601.72	1.45	Lose2	0.6562	n/a	Yes	2.628	n/a	5.0	GoodResponse	0	0.008	600.728	3	63	Feedback	AvoidedLoss	True
603.174	2.628	Lose2	0.6562	n/a	Yes	2.628	n/a	n/a	GoodResponse	0	0.0	n/a	3	63	ISIslide	AvoidedLoss	True
605.816	0.25	Win2	0.6615000000000001	0.0	Yes	3.134	0.016	n/a	GoodResponse	1	n/a	n/a	4	64	Cue	Win	True
606.066	4.15	Win2	0.6615000000000001	0.001	Yes	3.134	0.0	n/a	GoodResponse	1	n/a	n/a	4	64	Fixation	Win	True
610.212	0.5	Win2	0.6615000000000001	0.004	Yes	3.134	-0.004	2.0	GoodResponse	1	0.247	609.459	4	64	Target	Win	True
610.459	0.3	Win2	0.6615000000000001	0.004	Yes	3.134	-0.004	2.0	GoodResponse	1	0.247	n/a	4	64	ButtonPress	Win	True
610.714	0.2	Win2	0.6615000000000001	n/a	Yes	3.134	n/a	n/a	GoodResponse	1	n/a	n/a	4	64	Blank	Win	True
610.914	1.45	Win2	0.6615000000000001	n/a	Yes	3.134	n/a	5.0	GoodResponse	1	0.034	609.948	4	64	Feedback	Win	True
612.369	3.134	Win2	0.6615000000000001	n/a	Yes	3.134	n/a	n/a	GoodResponse	1	0.0	n/a	4	64	ISIslide	Win	True
615.528	0.25	Control	0.6667000000000001	0.0	Yes	2.772	0.028	n/a	GoodResponse	0	n/a	n/a	4	65	Cue	Neutral	True
615.779	4.0	Control	0.6667000000000001	0.0	Yes	2.772	0.001	n/a	GoodResponse	0	n/a	n/a	4	65	Fixation	Neutral	True
619.774	0.5	Control	0.6667000000000001	0.004	Yes	2.772	-0.004	2.0	GoodResponse	0	0.314	619.088	4	65	Target	Neutral	True
620.088	0.3	Control	0.6667000000000001	0.004	Yes	2.772	-0.004	2.0	GoodResponse	0	0.314	n/a	4	65	ButtonPress	Neutral	True
620.276	0.2	Control	0.6667000000000001	n/a	Yes	2.772	n/a	n/a	GoodResponse	0	n/a	n/a	4	65	Blank	Neutral	True
620.476	1.45	Control	0.6667000000000001	n/a	Yes	2.772	n/a	5.0	GoodResponse	0	0.033	619.509	4	65	Feedback	Neutral	True
621.931	2.772	Control	0.6667000000000001	n/a	Yes	2.772	n/a	n/a	GoodResponse	0	0.0	n/a	4	65	ISIslide	Neutral	True
624.722	0.25	Win2	0.6716	0.0	Yes	2.778	0.022	n/a	GoodResponse	1	n/a	n/a	5	66	Cue	Win	True
624.973	3.9	Win2	0.6716	0.0	Yes	2.778	0.001	n/a	GoodResponse	1	n/a	n/a	5	66	Fixation	Win	True
628.868	0.49	Win2	0.6716	0.004	Yes	2.778	-0.004	2.0	GoodResponse	1	0.314	628.182	5	66	Target	Win	True
629.182	0.3	Win2	0.6716	0.004	Yes	2.778	-0.004	2.0	GoodResponse	1	0.314	n/a	5	66	ButtonPress	Win	True
629.37	0.21	Win2	0.6716	n/a	Yes	2.778	n/a	n/a	GoodResponse	1	n/a	n/a	5	66	Blank	Win	True
629.57	1.45	Win2	0.6716	n/a	Yes	2.778	n/a	5.0	GoodResponse	1	0.011	628.581	5	66	Feedback	Win	True
631.025	2.778	Win2	0.6716	n/a	Yes	2.778	n/a	n/a	GoodResponse	1	0.0	n/a	5	66	ISIslide	Win	True
633.816	0.25	Control	0.6765000000000001	0.0	Yes	2.734	0.016	n/a	GoodResponse	0	n/a	n/a	5	67	Cue	Neutral	True
634.067	3.95	Control	0.6765000000000001	0.0	Yes	2.734	0.001	n/a	GoodResponse	0	n/a	n/a	5	67	Fixation	Neutral	True
638.012	0.48	Control	0.6765000000000001	0.004	Yes	2.734	-0.004	2.0	GoodResponse	0	0.221	637.233	5	67	Target	Neutral	True
638.233	0.3	Control	0.6765000000000001	0.004	Yes	2.734	-0.004	2.0	GoodResponse	0	0.221	n/a	5	67	ButtonPress	Neutral	True
638.497	0.22	Control	0.6765000000000001	n/a	Yes	2.734	n/a	n/a	GoodResponse	0	n/a	n/a	5	67	Blank	Neutral	True
638.714	1.45	Control	0.6765000000000001	n/a	Yes	2.734	n/a	5.0	GoodResponse	0	0.038	637.752	5	67	Feedback	Neutral	True
640.169	2.734	Control	0.6765000000000001	n/a	Yes	2.734	n/a	n/a	GoodResponse	0	0.0	n/a	5	67	ISIslide	Neutral	True
642.927	0.25	Win2	0.6812	0.0	Yes	3.073	0.027	n/a	GoodResponse	1	n/a	n/a	6	68	Cue	Win	True
643.178	4.0	Win2	0.6812	0.0	Yes	3.073	0.001	n/a	GoodResponse	1	n/a	n/a	6	68	Fixation	Win	True
647.173	0.47	Win2	0.6812	0.004	Yes	3.073	-0.004	2.0	GoodResponse	1	0.242	646.415	6	68	Target	Win	True
647.415	0.3	Win2	0.6812	0.004	Yes	3.073	-0.004	2.0	GoodResponse	1	0.242	n/a	6	68	ButtonPress	Win	True
647.658	0.23	Win2	0.6812	n/a	Yes	3.073	n/a	n/a	GoodResponse	1	n/a	n/a	6	68	Blank	Win	True
647.875	1.45	Win2	0.6812	n/a	Yes	3.073	n/a	5.0	GoodResponse	1	0.048	646.923	6	68	Feedback	Win	True
649.329	3.073	Win2	0.6812	n/a	Yes	3.073	n/a	n/a	GoodResponse	1	0.0	n/a	6	68	ISIslide	Win	True
652.422	0.25	Win2	0.6857	0.0	Yes	3.228	0.022	n/a	GoodResponse	1	n/a	n/a	7	69	Cue	Win	True
652.673	3.95	Win2	0.6857	0.0	Yes	3.228	0.001	n/a	GoodResponse	1	n/a	n/a	7	69	Fixation	Win	True
656.618	0.46	Win2	0.6857	0.004	Yes	3.228	-0.004	2.0	GoodResponse	1	0.222	655.84	7	69	Target	Win	True
656.84	0.3	Win2	0.6857	0.004	Yes	3.228	-0.004	2.0	GoodResponse	1	0.222	n/a	7	69	ButtonPress	Win	True
657.086	0.24	Win2	0.6857	n/a	Yes	3.228	n/a	n/a	GoodResponse	1	n/a	n/a	7	69	Blank	Win	True
657.32	1.45	Win2	0.6857	n/a	Yes	3.228	n/a	5.0	GoodResponse	1	0.018	656.338	7	69	Feedback	Win	True
658.774	3.228	Win2	0.6857	n/a	Yes	3.228	n/a	n/a	GoodResponse	1	0.0	n/a	7	69	ISIslide	Win	True
662.017	0.25	Lose2	0.6901	0.001	Yes	3.033	0.017	n/a	GoodResponse	0	n/a	n/a	7	70	Cue	AvoidedLoss	True
662.268	4.05	Lose2	0.6901	0.0	Yes	3.033	0.001	n/a	GoodResponse	0	n/a	n/a	7	70	Fixation	AvoidedLoss	True
666.314	0.45	Lose2	0.6901	0.003	Yes	3.033	-0.003	2.0	GoodResponse	0	0.213	665.527	7	70	Target	AvoidedLoss	True
666.527	0.3	Lose2	0.6901	0.003	Yes	3.033	-0.003	2.0	GoodResponse	0	0.213	n/a	7	70	ButtonPress	AvoidedLoss	True
666.765	0.25	Lose2	0.6901	n/a	Yes	3.033	n/a	n/a	GoodResponse	0	n/a	n/a	7	70	Blank	AvoidedLoss	True
667.016	1.45	Lose2	0.6901	n/a	Yes	3.033	n/a	5.0	GoodResponse	0	0.029	666.045	7	70	Feedback	AvoidedLoss	True
668.47	3.033	Lose2	0.6901	n/a	Yes	3.033	n/a	n/a	GoodResponse	0	0.0	n/a	7	70	ISIslide	AvoidedLoss	True
671.529	0.25	Win2	0.6944	0.0	Yes	2.721	0.029	n/a	GoodResponse	1	n/a	n/a	8	71	Cue	Win	True
671.78	4.05	Win2	0.6944	0.0	Yes	2.721	0.001	n/a	GoodResponse	1	n/a	n/a	8	71	Fixation	Win	True
675.826	0.44	Win2	0.6944	0.003	Yes	2.721	-0.003	2.0	GoodResponse	1	0.192	675.018	8	71	Target	Win	True
676.018	0.3	Win2	0.6944	0.003	Yes	2.721	-0.003	2.0	GoodResponse	1	0.192	n/a	8	71	ButtonPress	Win	True
676.277	0.26	Win2	0.6944	n/a	Yes	2.721	n/a	n/a	GoodResponse	1	n/a	n/a	8	71	Blank	Win	True
676.528	1.45	Win2	0.6944	n/a	Yes	2.721	n/a	5.0	GoodResponse	1	0.03	675.558	8	71	Feedback	Win	True
677.982	2.721	Win2	0.6944	n/a	Yes	2.721	n/a	n/a	GoodResponse	1	0.0	n/a	8	71	ISIslide	Win	True
680.724	0.25	Win2	0.6986	0.0	Yes	2.776	0.024	n/a	GoodResponse	1	n/a	n/a	9	72	Cue	Win	True
680.974	4.1	Win2	0.6986	0.0	Yes	2.776	0.0	n/a	GoodResponse	1	n/a	n/a	9	72	Fixation	Win	True
685.07	0.43	Win2	0.6986	0.004	Yes	2.776	-0.004	2.0	GoodResponse	1	0.239	684.309	9	72	Target	Win	True
685.309	0.3	Win2	0.6986	0.004	Yes	2.776	-0.004	2.0	GoodResponse	1	0.239	n/a	9	72	ButtonPress	Win	True
685.505	0.27	Win2	0.6986	n/a	Yes	2.776	n/a	n/a	GoodResponse	1	n/a	n/a	9	72	Blank	Win	True
685.772	1.45	Win2	0.6986	n/a	Yes	2.776	n/a	5.0	GoodResponse	1	0.008	684.78	9	72	Feedback	Win	True
687.226	2.776	Win2	0.6986	n/a	Yes	2.776	n/a	n/a	GoodResponse	1	0.0	n/a	9	72	ISIslide	Win	True
690.018	0.25	Win2	0.7027	0.0	Yes	2.682	0.018	n/a	GoodResponse	1	n/a	n/a	10	73	Cue	Win	True
690.269	4.0	Win2	0.7027	0.0	Yes	2.682	0.001	n/a	GoodResponse	1	n/a	n/a	10	73	Fixation	Win	True
694.264	0.42	Win2	0.7027	0.004	Yes	2.682	-0.004	2.0	GoodResponse	1	0.243	693.507	10	73	Target	Win	True
694.507	0.3	Win2	0.7027	0.004	Yes	2.682	-0.004	2.0	GoodResponse	1	0.243	n/a	10	73	ButtonPress	Win	True
694.699	0.28	Win2	0.7027	n/a	Yes	2.682	n/a	n/a	GoodResponse	1	n/a	n/a	10	73	Blank	Win	True
694.966	1.45	Win2	0.7027	n/a	Yes	2.682	n/a	5.0	GoodResponse	1	0.03	693.996	10	73	Feedback	Win	True
696.421	2.682	Win2	0.7027	n/a	Yes	2.682	n/a	n/a	GoodResponse	1	0.0	n/a	10	73	ISIslide	Win	True
699.129	0.25	Lose2	0.7067	0.0	Yes	2.621	0.029	n/a	GoodResponse	0	n/a	n/a	10	74	Cue	AvoidedLoss	True
699.379	4.05	Lose2	0.7067	0.0	Yes	2.621	0.0	n/a	GoodResponse	0	n/a	n/a	10	74	Fixation	AvoidedLoss	True
703.425	0.41	Lose2	0.7067	0.004	Yes	2.621	-0.004	2.0	GoodResponse	0	0.31	702.735	10	74	Target	AvoidedLoss	True
703.735	0.3	Lose2	0.7067	0.004	Yes	2.621	-0.004	2.0	GoodResponse	0	0.31	n/a	10	74	ButtonPress	AvoidedLoss	True
703.843	0.29	Lose2	0.7067	n/a	Yes	2.621	n/a	n/a	GoodResponse	0	n/a	n/a	10	74	Blank	AvoidedLoss	True
704.127	1.45	Lose2	0.7067	n/a	Yes	2.621	n/a	5.0	GoodResponse	0	0.04	703.167	10	74	Feedback	AvoidedLoss	True
705.581	2.621	Lose2	0.7067	n/a	Yes	2.621	n/a	n/a	GoodResponse	0	0.0	n/a	10	74	ISIslide	AvoidedLoss	True
708.223	0.25	Lose2	0.7105	0.0	Yes	2.927	0.023	n/a	GoodResponse	0	n/a	n/a	10	75	Cue	AvoidedLoss	True
708.473	3.95	Lose2	0.7105	0.0	Yes	2.927	0.0	n/a	GoodResponse	0	n/a	n/a	10	75	Fixation	AvoidedLoss	True
712.435	0.4	Lose2	0.7105	0.0	Yes	2.927	0.012	2.0	GoodResponse	0	0.222	711.657	10	75	Target	AvoidedLoss	True
712.657	0.3	Lose2	0.7105	0.0	Yes	2.927	0.012	2.0	GoodResponse	0	0.222	n/a	10	75	ButtonPress	AvoidedLoss	True
712.82	0.3	Lose2	0.7105	n/a	Yes	2.927	n/a	n/a	GoodResponse	0	n/a	n/a	10	75	Blank	AvoidedLoss	True
713.121	1.45	Lose2	0.7105	n/a	Yes	2.927	n/a	5.0	GoodResponse	0	0.021	712.142	10	75	Feedback	AvoidedLoss	True
714.575	2.927	Lose2	0.7105	n/a	Yes	2.927	n/a	n/a	GoodResponse	0	0.0	n/a	10	75	ISIslide	AvoidedLoss	True
717.517	0.25	Control	0.7143	0.0	Yes	3.233	0.017	n/a	GoodResponse	0	n/a	n/a	10	76	Cue	Neutral	True
717.768	4.05	Control	0.7143	0.0	Yes	3.233	0.001	n/a	GoodResponse	0	n/a	n/a	10	76	Fixation	Neutral	True
721.813	0.39	Control	0.7143	0.004	Yes	3.233	-0.004	2.0	GoodResponse	0	0.199	721.012	10	76	Target	Neutral	True
722.012	0.3	Control	0.7143	0.004	Yes	3.233	-0.004	2.0	GoodResponse	0	0.199	n/a	10	76	ButtonPress	Neutral	True
722.215	0.31	Control	0.7143	n/a	Yes	3.233	n/a	n/a	GoodResponse	0	n/a	n/a	10	76	Blank	Neutral	True
722.515	1.45	Control	0.7143	n/a	Yes	3.233	n/a	5.0	GoodResponse	0	0.042	721.557	10	76	Feedback	Neutral	True
723.97	3.233	Control	0.7143	n/a	Yes	3.233	n/a	n/a	GoodResponse	0	0.0	n/a	10	76	ISIslide	Neutral	True
727.23	0.25	Lose2	0.7179000000000001	0.0	Yes	2.57	0.03	n/a	GoodResponse	0	n/a	n/a	10	77	Cue	AvoidedLoss	True
727.48	3.95	Lose2	0.7179000000000001	0.0	Yes	2.57	0.0	n/a	GoodResponse	0	n/a	n/a	10	77	Fixation	AvoidedLoss	True
731.442	0.38	Lose2	0.7179000000000001	0.0	Yes	2.57	0.012	2.0	GoodResponse	0	0.237	730.679	10	77	Target	AvoidedLoss	True
731.679	0.3	Lose2	0.7179000000000001	0.0	Yes	2.57	0.012	2.0	GoodResponse	0	0.237	n/a	10	77	ButtonPress	AvoidedLoss	True
731.81	0.32	Lose2	0.7179000000000001	n/a	Yes	2.57	n/a	n/a	GoodResponse	0	n/a	n/a	10	77	Blank	AvoidedLoss	True
732.128	1.45	Lose2	0.7179000000000001	n/a	Yes	2.57	n/a	5.0	GoodResponse	0	0.039	731.167	10	77	Feedback	AvoidedLoss	True
733.582	2.57	Lose2	0.7179000000000001	n/a	Yes	2.57	n/a	n/a	GoodResponse	0	0.0	n/a	10	77	ISIslide	AvoidedLoss	True
