onset	duration	cue_type	current_mean_accuracy	duration_error	is_hit	isi_adjusted	onset_delay	response	response_type	reward	rt	rt_time	total_reward	trial_number	trial_phase	trial_type	one_press
11.11	0.25	Control	1.0	0.0	Yes	2.94	0.01	n/a	GoodResponse	0	n/a	n/a	0	0	Cue	Neutral	True
11.36	3.85	Control	1.0	0.0	Yes	2.94	0.0	n/a	GoodResponse	0	n/a	n/a	0	0	Fixation	Neutral	True
15.222	0.4	Control	1.0	0.0	Yes	2.94	0.012	2.0	GoodResponse	0	0.197	14.419	0	0	Target	Neutral	True
15.419	0.3	Control	1.0	0.0	Yes	2.94	0.012	2.0	GoodResponse	0	0.197	n/a	0	0	ButtonPress	Neutral	True
15.606	0.3	Control	1.0	n/a	Yes	2.94	n/a	n/a	GoodResponse	0	n/a	n/a	0	0	Blank	Neutral	True
15.907	1.45	Control	1.0	n/a	Yes	2.94	n/a	5.0	GoodResponse	0	0.02	14.927	0	0	Feedback	Neutral	True
17.362	2.94	Control	1.0	n/a	Yes	2.94	n/a	n/a	GoodResponse	0	0.0	n/a	0	0	ISIslide	Neutral	True
20.32	0.25	Lose2	1.0	0.001	Yes	2.78	0.02	n/a	GoodResponse	0	n/a	n/a	0	1	Cue	AvoidedLoss	True
20.571	4.0	Lose2	1.0	0.0	Yes	2.78	0.001	n/a	GoodResponse	0	n/a	n/a	0	1	Fixation	AvoidedLoss	True
24.566	0.39	Lose2	1.0	0.004	Yes	2.78	-0.004	2.0	GoodResponse	0	0.197	23.763	0	1	Target	AvoidedLoss	True
24.763	0.3	Lose2	1.0	0.004	Yes	2.78	-0.004	2.0	GoodResponse	0	0.197	n/a	0	1	ButtonPress	AvoidedLoss	True
24.968	0.31	Lose2	1.0	n/a	Yes	2.78	n/a	n/a	GoodResponse	0	n/a	n/a	0	1	Blank	AvoidedLoss	True
25.269	1.45	Lose2	1.0	n/a	Yes	2.78	n/a	5.0	GoodResponse	0	0.023	24.292	0	1	Feedback	AvoidedLoss	True
26.723	2.78	Lose2	1.0	n/a	Yes	2.78	n/a	n/a	GoodResponse	0	0.0	n/a	0	1	ISIslide	AvoidedLoss	True
29.515	0.25	Control	1.0	0.0	Yes	2.585	0.015	n/a	GoodResponse	0	n/a	n/a	0	2	Cue	Neutral	True
29.765	4.1	Control	1.0	0.0	Yes	2.585	0.0	n/a	GoodResponse	0	n/a	n/a	0	2	Fixation	Neutral	True
33.861	0.38	Control	1.0	0.004	Yes	2.585	-0.004	2.0	GoodResponse	0	0.248	33.109	0	2	Target	Neutral	True
34.109	0.3	Control	1.0	0.004	Yes	2.585	-0.004	2.0	GoodResponse	0	0.248	n/a	0	2	ButtonPress	Neutral	True
34.245	0.32	Control	1.0	n/a	Yes	2.585	n/a	n/a	GoodResponse	0	n/a	n/a	0	2	Blank	Neutral	True
34.563	1.45	Control	1.0	n/a	Yes	2.585	n/a	5.0	GoodResponse	0	0.046	33.609	0	2	Feedback	Neutral	True
36.017	2.585	Control	1.0	n/a	Yes	2.585	n/a	n/a	GoodResponse	0	0.0	n/a	0	2	ISIslide	Neutral	True
38.625	0.25	Win2	1.0	0.0	Yes	2.825	0.025	n/a	GoodResponse	1	n/a	n/a	1	3	Cue	Win	True
38.876	3.95	Win2	1.0	0.0	Yes	2.825	0.001	n/a	GoodResponse	1	n/a	n/a	1	3	Fixation	Win	True
42.821	0.37	Win2	1.0	0.004	Yes	2.825	-0.004	2.0	GoodResponse	1	0.198	42.019	1	3	Target	Win	True
43.019	0.3	Win2	1.0	0.004	Yes	2.825	-0.004	2.0	GoodResponse	1	0.198	n/a	1	3	ButtonPress	Win	True
43.206	0.33	Win2	1.0	n/a	Yes	2.825	n/a	n/a	GoodResponse	1	n/a	n/a	1	3	Blank	Win	True
43.523	1.45	Win2	1.0	n/a	Yes	2.825	n/a	5.0	GoodResponse	1	0.013	42.536	1	3	Feedback	Win	True
44.978	2.825	Win2	1.0	n/a	Yes	2.825	n/a	n/a	GoodResponse	1	0.0	n/a	1	3	ISIslide	Win	True
47.819	0.25	Win2	1.0	0.0	Yes	3.281	0.019	n/a	GoodResponse	1	n/a	n/a	2	4	Cue	Win	True
48.07	4.0	Win2	1.0	0.0	Yes	3.281	0.001	n/a	GoodResponse	1	n/a	n/a	2	4	Fixation	Win	True
52.065	0.36	Win2	1.0	0.004	Yes	3.281	-0.004	2.0	GoodResponse	1	0.206	51.271	2	4	Target	Win	True
52.271	0.3	Win2	1.0	0.004	Yes	3.281	-0.004	2.0	GoodResponse	1	0.206	n/a	2	4	ButtonPress	Win	True
52.433	0.34	Win2	1.0	n/a	Yes	3.281	n/a	n/a	GoodResponse	1	n/a	n/a	2	4	Blank	Win	True
52.768	1.45	Win2	1.0	n/a	Yes	3.281	n/a	5.0	GoodResponse	1	0.036	51.804	2	4	Feedback	Win	True
54.222	3.281	Win2	1.0	n/a	Yes	3.281	n/a	n/a	GoodResponse	1	0.0	n/a	2	4	ISIslide	Win	True
57.515	0.25	Win2	1.0	0.0	Yes	2.785	0.015	n/a	GoodResponse	1	n/a	n/a	3	5	Cue	Win	True
57.766	4.0	Win2	1.0	0.0	Yes	2.785	0.001	n/a	GoodResponse	1	n/a	n/a	3	5	Fixation	Win	True
61.761	0.35	Win2	1.0	0.004	Yes	2.785	-0.004	2.0	GoodResponse	1	0.235	60.996	3	5	Target	Win	True
61.996	0.3	Win2	1.0	0.004	Yes	2.785	-0.004	2.0	GoodResponse	1	0.235	n/a	3	5	ButtonPress	Win	True
62.112	0.35	Win2	1.0	n/a	Yes	2.785	n/a	n/a	GoodResponse	1	n/a	n/a	3	5	Blank	Win	True
62.463	1.45	Win2	1.0	n/a	Yes	2.785	n/a	5.0	GoodResponse	1	0.049	61.512	3	5	Feedback	Win	True
63.918	2.785	Win2	1.0	n/a	Yes	2.785	n/a	n/a	GoodResponse	1	0.0	n/a	3	5	ISIslide	Win	True
66.726	0.25	Lose2	1.0	0.0	Yes	2.724	0.026	n/a	GoodResponse	0	n/a	n/a	3	6	Cue	AvoidedLoss	False
66.977	3.95	Lose2	1.0	0.0	Yes	2.724	0.001	2.0	GoodResponse	0	3.187	69.164	3	6	Fixation	AvoidedLoss	False
70.164	0.3	Lose2	1.0	0.0	Yes	2.724	0.001	2.0	GoodResponse	0	3.187	n/a	3	6	ButtonPress	AvoidedLoss	False
70.922	0.34	Lose2	1.0	0.004	Yes	2.724	-0.004	2.0	GoodResponse	0	0.214	70.136	3	6	Target	AvoidedLoss	False
71.136	0.3	Lose2	1.0	0.004	Yes	2.724	-0.004	2.0	GoodResponse	0	0.214	n/a	3	6	ButtonPress	AvoidedLoss	False
71.273	0.36	Lose2	1.0	n/a	Yes	2.724	n/a	n/a	GoodResponse	0	n/a	n/a	3	6	Blank	AvoidedLoss	False
71.624	1.45	Lose2	1.0	n/a	Yes	2.724	n/a	5.0	GoodResponse	0	0.009	70.633	3	6	Feedback	AvoidedLoss	False
73.078	2.724	Lose2	1.0	n/a	Yes	2.724	n/a	n/a	GoodResponse	0	0.0	n/a	3	6	ISIslide	AvoidedLoss	False
75.82	0.25	Lose2	1.0	0.0	Yes	4.03	0.02	n/a	GoodResponse	0	n/a	n/a	3	7	Cue	AvoidedLoss	True
76.071	4.05	Lose2	1.0	0.0	Yes	4.03	0.001	n/a	GoodResponse	0	n/a	n/a	3	7	Fixation	AvoidedLoss	True
80.116	0.33	Lose2	1.0	0.004	Yes	4.03	-0.004	2.0	GoodResponse	0	0.195	79.311	3	7	Target	AvoidedLoss	True
80.311	0.3	Lose2	1.0	0.004	Yes	4.03	-0.004	2.0	GoodResponse	0	0.195	n/a	3	7	ButtonPress	AvoidedLoss	True
80.45	0.37	Lose2	1.0	n/a	Yes	4.03	n/a	n/a	GoodResponse	0	n/a	n/a	3	7	Blank	AvoidedLoss	True
80.818	1.45	Lose2	1.0	n/a	Yes	4.03	n/a	5.0	GoodResponse	0	0.034	79.852	3	7	Feedback	AvoidedLoss	True
82.273	4.03	Lose2	1.0	n/a	Yes	4.03	n/a	n/a	GoodResponse	0	0.0	n/a	3	7	ISIslide	AvoidedLoss	True
86.318	0.25	Lose2	1.0	0.0	Yes	3.032	0.018	n/a	GoodResponse	0	n/a	n/a	3	8	Cue	AvoidedLoss	True
86.569	3.95	Lose2	1.0	0.0	Yes	3.032	0.001	n/a	GoodResponse	0	n/a	n/a	3	8	Fixation	AvoidedLoss	True
90.514	0.32	Lose2	1.0	0.004	Yes	3.032	-0.004	2.0	GoodResponse	0	0.204	89.718	3	8	Target	AvoidedLoss	True
90.718	0.3	Lose2	1.0	0.004	Yes	3.032	-0.004	2.0	GoodResponse	0	0.204	n/a	3	8	ButtonPress	AvoidedLoss	True
90.848	0.38	Lose2	1.0	n/a	Yes	3.032	n/a	n/a	GoodResponse	0	n/a	n/a	3	8	Blank	AvoidedLoss	True
91.216	1.45	Lose2	1.0	n/a	Yes	3.032	n/a	5.0	GoodResponse	0	0.027	90.243	3	8	Feedback	AvoidedLoss	True
92.67	3.032	Lose2	1.0	n/a	Yes	3.032	n/a	n/a	GoodResponse	0	0.0	n/a	3	8	ISIslide	AvoidedLoss	True
95.73	0.25	Lose2	1.0	0.0	Yes	3.12	0.03	n/a	GoodResponse	0	n/a	n/a	3	9	Cue	AvoidedLoss	True
95.98	3.95	Lose2	1.0	0.0	Yes	3.12	0.0	n/a	GoodResponse	0	n/a	n/a	3	9	Fixation	AvoidedLoss	True
99.942	0.31	Lose2	1.0	0.0	Yes	3.12	0.012	2.0	GoodResponse	0	0.224	99.166	3	9	Target	AvoidedLoss	True
100.166	0.3	Lose2	1.0	0.0	Yes	3.12	0.012	2.0	GoodResponse	0	0.224	n/a	3	9	ButtonPress	AvoidedLoss	True
100.243	0.39	Lose2	1.0	n/a	Yes	3.12	n/a	n/a	GoodResponse	0	n/a	n/a	3	9	Blank	AvoidedLoss	True
100.627	1.45	Lose2	1.0	n/a	Yes	3.12	n/a	5.0	GoodResponse	0	0.03	99.657	3	9	Feedback	AvoidedLoss	True
102.082	3.12	Lose2	1.0	n/a	Yes	3.12	n/a	n/a	GoodResponse	0	0.0	n/a	3	9	ISIslide	AvoidedLoss	True
105.225	0.25	Control	1.0	0.0	Yes	3.275	0.025	n/a	GoodResponse	0	n/a	n/a	3	10	Cue	Neutral	True
105.475	4.0	Control	1.0	0.0	Yes	3.275	0.0	n/a	GoodResponse	0	n/a	n/a	3	10	Fixation	Neutral	True
109.471	0.3	Control	1.0	0.004	Yes	3.275	-0.004	2.0	GoodResponse	0	0.224	108.695	3	10	Target	Neutral	True
109.695	0.3	Control	1.0	0.004	Yes	3.275	-0.004	2.0	GoodResponse	0	0.224	n/a	3	10	ButtonPress	Neutral	True
109.772	0.4	Control	1.0	n/a	Yes	3.275	n/a	n/a	GoodResponse	0	n/a	n/a	3	10	Blank	Neutral	True
110.173	1.45	Control	1.0	n/a	Yes	3.275	n/a	5.0	GoodResponse	0	0.046	109.219	3	10	Feedback	Neutral	True
111.627	3.275	Control	1.0	n/a	Yes	3.275	n/a	n/a	GoodResponse	0	0.0	n/a	3	10	ISIslide	Neutral	True
114.92	0.25	Lose2	0.9167000000000001	0.0	No	2.73	0.02	n/a	NoResponse	-1	n/a	n/a	2	11	Cue	Loss	True
115.171	4.05	Lose2	0.9167000000000001	0.0	No	2.73	0.001	n/a	NoResponse	-1	n/a	n/a	2	11	Fixation	Loss	True
119.216	0.29	Lose2	0.9167000000000001	0.004	No	2.73	-0.004	2.0	NoResponse	-1	0.392	118.608	2	11	Target	Loss	True
119.517	0.41	Lose2	0.9167000000000001	n/a	No	2.73	n/a	n/a	NoResponse	-1	n/a	n/a	2	11	Blank	Loss	True
119.608	0.3	Lose2	0.9167000000000001	0.004	No	2.73	-0.004	2.0	NoResponse	-1	0.392	n/a	2	11	ButtonPress	Loss	True
119.919	1.45	Lose2	0.9167000000000001	n/a	No	2.73	n/a	5.0	NoResponse	-1	0.006	118.925	2	11	Feedback	Loss	True
121.373	2.73	Lose2	0.9167000000000001	n/a	No	2.73	n/a	n/a	NoResponse	-1	0.0	n/a	2	11	ISIslide	Loss	True
124.114	0.25	Control	0.9231	0.001	Yes	2.986	0.014	n/a	GoodResponse	0	n/a	n/a	2	12	Cue	Neutral	True
124.365	3.9	Control	0.9231	0.0	Yes	2.986	0.001	n/a	GoodResponse	0	n/a	n/a	2	12	Fixation	Neutral	True
128.26	0.28	Control	0.9231	0.004	Yes	2.986	-0.004	2.0	GoodResponse	0	0.211	127.471	2	12	Target	Neutral	True
128.471	0.3	Control	0.9231	0.004	Yes	2.986	-0.004	2.0	GoodResponse	0	0.211	n/a	2	12	ButtonPress	Neutral	True
128.544	0.42	Control	0.9231	n/a	Yes	2.986	n/a	n/a	GoodResponse	0	n/a	n/a	2	12	Blank	Neutral	True
128.962	1.45	Control	0.9231	n/a	Yes	2.986	n/a	5.0	GoodResponse	0	0.036	127.998	2	12	Feedback	Neutral	True
130.417	2.986	Control	0.9231	n/a	Yes	2.986	n/a	n/a	GoodResponse	0	0.0	n/a	2	12	ISIslide	Neutral	True
133.426	0.25	Control	0.9286	0.0	Yes	2.774	0.026	n/a	GoodResponse	0	n/a	n/a	2	13	Cue	Neutral	True
133.676	4.0	Control	0.9286	0.0	Yes	2.774	0.0	n/a	GoodResponse	0	n/a	n/a	2	13	Fixation	Neutral	True
137.672	0.27	Control	0.9286	0.004	Yes	2.774	-0.004	2.0	GoodResponse	0	0.199	136.871	2	13	Target	Neutral	True
137.871	0.3	Control	0.9286	0.004	Yes	2.774	-0.004	2.0	GoodResponse	0	0.199	n/a	2	13	ButtonPress	Neutral	True
137.956	0.43	Control	0.9286	n/a	Yes	2.774	n/a	n/a	GoodResponse	0	n/a	n/a	2	13	Blank	Neutral	True
138.374	1.45	Control	0.9286	n/a	Yes	2.774	n/a	5.0	GoodResponse	0	0.039	137.413	2	13	Feedback	Neutral	True
139.828	2.774	Control	0.9286	n/a	Yes	2.774	n/a	n/a	GoodResponse	0	0.0	n/a	2	13	ISIslide	Neutral	True
142.62	0.25	Win2	0.9333	0.0	Yes	2.68	0.02	n/a	GoodResponse	1	n/a	n/a	3	14	Cue	Win	True
142.871	4.1	Win2	0.9333	0.0	Yes	2.68	0.001	n/a	GoodResponse	1	n/a	n/a	3	14	Fixation	Win	True
146.966	0.26	Win2	0.9333	0.004	Yes	2.68	-0.004	2.0	GoodResponse	1	0.192	146.158	3	14	Target	Win	True
147.158	0.3	Win2	0.9333	0.004	Yes	2.68	-0.004	2.0	GoodResponse	1	0.192	n/a	3	14	ButtonPress	Win	True
147.234	0.44	Win2	0.9333	n/a	Yes	2.68	n/a	n/a	GoodResponse	1	n/a	n/a	3	14	Blank	Win	True
147.668	1.45	Win2	0.9333	n/a	Yes	2.68	n/a	5.0	GoodResponse	1	0.013	146.681	3	14	Feedback	Win	True
149.123	2.68	Win2	0.9333	n/a	Yes	2.68	n/a	n/a	GoodResponse	1	0.0	n/a	3	14	ISIslide	Win	True
151.814	0.25	Control	0.875	0.0	No	2.986	0.014	n/a	NoResponse	0	n/a	n/a	3	15	Cue	Neutral	True
152.065	4.0	Control	0.875	0.0	No	2.986	0.001	n/a	NoResponse	0	n/a	n/a	3	15	Fixation	Neutral	True
156.06	0.25	Control	0.875	0.004	No	2.986	-0.004	2.0	NoResponse	0	0.26	155.32	3	15	Target	Neutral	True
156.311	0.45	Control	0.875	n/a	No	2.986	n/a	n/a	NoResponse	0	n/a	n/a	3	15	Blank	Neutral	True
156.32	0.3	Control	0.875	0.004	No	2.986	-0.004	2.0	NoResponse	0	0.26	n/a	3	15	ButtonPress	Neutral	True
156.762	1.45	Control	0.875	n/a	No	2.986	n/a	5.0	NoResponse	0	0.041	155.803	3	15	Feedback	Neutral	True
158.217	2.986	Control	0.875	n/a	No	2.986	n/a	n/a	NoResponse	0	0.0	n/a	3	15	ISIslide	Neutral	True
161.226	0.25	Win2	0.8824	0.0	Yes	2.874	0.026	n/a	GoodResponse	1	n/a	n/a	4	16	Cue	Win	True
161.476	4.0	Win2	0.8824	0.0	Yes	2.874	0.0	n/a	GoodResponse	1	n/a	n/a	4	16	Fixation	Win	True
165.472	0.24	Win2	0.8824	0.004	Yes	2.874	-0.004	2.0	GoodResponse	1	0.199	164.671	4	16	Target	Win	True
165.671	0.3	Win2	0.8824	0.004	Yes	2.874	-0.004	2.0	GoodResponse	1	0.199	n/a	4	16	ButtonPress	Win	True
165.722	0.46	Win2	0.8824	n/a	Yes	2.874	n/a	n/a	GoodResponse	1	n/a	n/a	4	16	Blank	Win	True
166.174	1.45	Win2	0.8824	n/a	Yes	2.874	n/a	5.0	GoodResponse	1	0.044	165.218	4	16	Feedback	Win	True
167.628	2.874	Win2	0.8824	n/a	Yes	2.874	n/a	n/a	GoodResponse	1	0.0	n/a	4	16	ISIslide	Win	True
170.52	0.25	Lose2	0.8332999999999999	0.0	No	2.73	0.02	n/a	NoResponse	-1	n/a	n/a	3	17	Cue	Loss	True
170.771	3.95	Lose2	0.8332999999999999	0.0	No	2.73	0.001	n/a	NoResponse	-1	n/a	n/a	3	17	Fixation	Loss	True
174.716	0.23	Lose2	0.8332999999999999	0.004	No	2.73	-0.004	2.0	NoResponse	-1	0.419	174.135	3	17	Target	Loss	True
174.95	0.47	Lose2	0.8332999999999999	n/a	No	2.73	n/a	n/a	NoResponse	-1	n/a	n/a	3	17	Blank	Loss	True
175.135	0.3	Lose2	0.8332999999999999	0.004	No	2.73	-0.004	2.0	NoResponse	-1	0.419	n/a	3	17	ButtonPress	Loss	True
175.418	1.45	Lose2	0.8332999999999999	n/a	No	2.73	n/a	5.0	NoResponse	-1	0.019	174.437	3	17	Feedback	Loss	True
176.872	2.73	Lose2	0.8332999999999999	n/a	No	2.73	n/a	n/a	NoResponse	-1	0.0	n/a	3	17	ISIslide	Loss	True
179.631	0.25	Lose2	0.7895	0.0	No	2.719	0.031	n/a	NoResponse	-1	n/a	n/a	2	18	Cue	Loss	False
179.881	4.05	Lose2	0.7895	0.0	No	2.719	0.0	2.0	NoResponse	-1	3.918	182.799	2	18	Fixation	Loss	False
183.799	0.3	Lose2	0.7895	0.0	No	2.719	0.0	2.0	NoResponse	-1	3.918	n/a	2	18	ButtonPress	Loss	False
183.927	0.22	Lose2	0.7895	0.004	No	2.719	-0.004	2.0	NoResponse	-1	0.615	183.542	2	18	Target	Loss	False
184.161	0.48	Lose2	0.7895	n/a	No	2.719	n/a	n/a	NoResponse	-1	n/a	n/a	2	18	Blank	Loss	False
184.542	0.3	Lose2	0.7895	0.004	No	2.719	-0.004	2.0	NoResponse	-1	0.615	n/a	2	18	ButtonPress	Loss	False
184.629	1.45	Lose2	0.7895	n/a	No	2.719	n/a	5.0	NoResponse	-1	0.027	183.656	2	18	Feedback	Loss	False
186.083	2.719	Lose2	0.7895	n/a	No	2.719	n/a	n/a	NoResponse	-1	0.0	n/a	2	18	ISIslide	Loss	False
188.825	0.25	Control	0.75	0.0	No	2.925	0.025	n/a	LatePress	0	n/a	n/a	2	19	Cue	Neutral	True
189.076	3.95	Control	0.75	0.0	No	2.925	0.001	n/a	LatePress	0	n/a	n/a	2	19	Fixation	Neutral	True
193.021	0.21	Control	0.75	0.004	No	2.925	-0.004	2.0	LatePress	0	0.216	192.237	2	19	Target	Neutral	True
193.237	0.3	Control	0.75	0.004	No	2.925	-0.004	2.0	LatePress	0	0.216	n/a	2	19	ButtonPress	Neutral	True
193.238	0.49	Control	0.75	n/a	No	2.925	n/a	n/a	LatePress	0	n/a	n/a	2	19	Blank	Neutral	True
193.723	1.45	Control	0.75	n/a	No	2.925	n/a	5.0	LatePress	0	0.007	192.73	2	19	Feedback	Neutral	True
195.177	2.925	Control	0.75	n/a	No	2.925	n/a	n/a	LatePress	0	0.0	n/a	2	19	ISIslide	Neutral	True
198.119	0.25	Control	0.7619	0.0	Yes	2.631	0.019	n/a	GoodResponse	0	n/a	n/a	2	20	Cue	Neutral	True
198.37	4.05	Control	0.7619	0.0	Yes	2.631	0.001	n/a	GoodResponse	0	n/a	n/a	2	20	Fixation	Neutral	True
202.416	0.2	Control	0.7619	0.003	Yes	2.631	-0.003	2.0	GoodResponse	0	0.199	201.615	2	20	Target	Neutral	True
202.615	0.3	Control	0.7619	0.003	Yes	2.631	-0.003	2.0	GoodResponse	0	0.199	n/a	2	20	ButtonPress	Neutral	True
202.616	0.5	Control	0.7619	n/a	Yes	2.631	n/a	n/a	GoodResponse	0	n/a	n/a	2	20	Blank	Neutral	True
203.118	1.45	Control	0.7619	n/a	Yes	2.631	n/a	5.0	GoodResponse	0	0.026	202.144	2	20	Feedback	Neutral	True
204.572	2.631	Control	0.7619	n/a	Yes	2.631	n/a	n/a	GoodResponse	0	0.0	n/a	2	20	ISIslide	Neutral	True
207.23	0.25	Control	0.7726999999999999	0.0	Yes	2.77	0.03	n/a	GoodResponse	0	n/a	n/a	2	21	Cue	Neutral	True
207.481	4.1	Control	0.7726999999999999	0.0	Yes	2.77	0.001	n/a	GoodResponse	0	n/a	n/a	2	21	Fixation	Neutral	True
211.576	0.19	Control	0.7726999999999999	0.004	Yes	2.77	-0.004	2.0	GoodResponse	0	0.172	210.748	2	21	Target	Neutral	True
211.748	0.3	Control	0.7726999999999999	0.004	Yes	2.77	-0.004	2.0	GoodResponse	0	0.172	n/a	2	21	ButtonPress	Neutral	True
211.777	0.51	Control	0.7726999999999999	n/a	Yes	2.77	n/a	n/a	GoodResponse	0	n/a	n/a	2	21	Blank	Neutral	True
212.278	1.45	Control	0.7726999999999999	n/a	Yes	2.77	n/a	5.0	GoodResponse	0	0.037	211.315	2	21	Feedback	Neutral	True
213.733	2.77	Control	0.7726999999999999	n/a	Yes	2.77	n/a	n/a	GoodResponse	0	0.0	n/a	2	21	ISIslide	Neutral	True
216.524	0.25	Control	0.7391	0.0	No	2.776	0.024	n/a	NoResponse	0	n/a	n/a	2	22	Cue	Neutral	True
216.775	4.0	Control	0.7391	0.0	No	2.776	0.001	n/a	NoResponse	0	n/a	n/a	2	22	Fixation	Neutral	True
220.77	0.18	Control	0.7391	0.004	No	2.776	-0.004	2.0	NoResponse	0	0.246	220.016	2	22	Target	Neutral	True
220.954	0.52	Control	0.7391	n/a	No	2.776	n/a	n/a	NoResponse	0	n/a	n/a	2	22	Blank	Neutral	True
221.016	0.3	Control	0.7391	0.004	No	2.776	-0.004	2.0	NoResponse	0	0.246	n/a	2	22	ButtonPress	Neutral	True
221.473	1.45	Control	0.7391	n/a	No	2.776	n/a	5.0	NoResponse	0	0.012	220.485	2	22	Feedback	Neutral	True
222.927	2.776	Control	0.7391	n/a	No	2.776	n/a	n/a	NoResponse	0	0.0	n/a	2	22	ISIslide	Neutral	True
225.719	0.25	Control	0.7082999999999999	0.0	No	2.781	0.019	n/a	NoResponse	0	n/a	n/a	2	23	Cue	Neutral	True
225.969	3.9	Control	0.7082999999999999	0.0	No	2.781	0.0	n/a	NoResponse	0	n/a	n/a	2	23	Fixation	Neutral	True
229.881	0.17	Control	0.7082999999999999	0.0	No	2.781	0.012	2.0	NoResponse	0	0.243	229.124	2	23	Target	Neutral	True
230.048	0.53	Control	0.7082999999999999	n/a	No	2.781	n/a	n/a	NoResponse	0	n/a	n/a	2	23	Blank	Neutral	True
230.124	0.3	Control	0.7082999999999999	0.0	No	2.781	0.012	2.0	NoResponse	0	0.243	n/a	2	23	ButtonPress	Neutral	True
230.566	1.45	Control	0.7082999999999999	n/a	No	2.781	n/a	5.0	NoResponse	0	0.041	229.607	2	23	Feedback	Neutral	True
232.021	2.781	Control	0.7082999999999999	n/a	No	2.781	n/a	n/a	NoResponse	0	0.0	n/a	2	23	ISIslide	Neutral	True
234.829	0.25	Win2	0.68	0.0	No	3.121	0.029	n/a	NoResponse	0	n/a	n/a	2	24	Cue	MissedWin	True
235.08	3.95	Win2	0.68	0.0	No	3.121	0.001	n/a	NoResponse	0	n/a	n/a	2	24	Fixation	MissedWin	True
239.025	0.16	Win2	0.68	0.004	No	3.121	-0.004	2.0	NoResponse	0	0.185	238.21	2	24	Target	MissedWin	True
239.192	0.54	Win2	0.68	n/a	No	3.121	n/a	n/a	NoResponse	0	n/a	n/a	2	24	Blank	MissedWin	True
239.21	0.3	Win2	0.68	0.004	No	3.121	-0.004	2.0	NoResponse	0	0.185	n/a	2	24	ButtonPress	MissedWin	True
239.727	1.45	Win2	0.68	n/a	No	3.121	n/a	5.0	NoResponse	0	0.002	238.729	2	24	Feedback	MissedWin	True
241.182	3.121	Win2	0.68	n/a	No	3.121	n/a	n/a	NoResponse	0	0.0	n/a	2	24	ISIslide	MissedWin	True
244.324	0.25	Win2	0.6537999999999999	0.0	No	3.076	0.024	n/a	NoResponse	0	n/a	n/a	2	25	Cue	MissedWin	True
244.575	4.0	Win2	0.6537999999999999	0.0	No	3.076	0.001	n/a	NoResponse	0	n/a	n/a	2	25	Fixation	MissedWin	True
248.57	0.15	Win2	0.6537999999999999	0.004	No	3.076	-0.004	2.0	NoResponse	0	0.176	247.746	2	25	Target	MissedWin	True
248.721	0.55	Win2	0.6537999999999999	n/a	No	3.076	n/a	n/a	NoResponse	0	n/a	n/a	2	25	Blank	MissedWin	True
248.746	0.3	Win2	0.6537999999999999	0.004	No	3.076	-0.004	2.0	NoResponse	0	0.176	n/a	2	25	ButtonPress	MissedWin	True
249.272	1.45	Win2	0.6537999999999999	n/a	No	3.076	n/a	5.0	NoResponse	0	0.018	248.29	2	25	Feedback	MissedWin	True
250.727	3.076	Win2	0.6537999999999999	n/a	No	3.076	n/a	n/a	NoResponse	0	0.0	n/a	2	25	ISIslide	MissedWin	True
253.819	0.25	Win2	0.6296	0.0	No	2.931	0.019	n/a	NoResponse	0	n/a	n/a	2	26	Cue	MissedWin	False
254.07	3.95	Win2	0.6296	0.0	No	2.931	0.001	2.0	NoResponse	0	2.678	255.748	2	26	Fixation	MissedWin	False
256.748	0.3	Win2	0.6296	0.0	No	2.931	0.001	2.0	NoResponse	0	2.678	n/a	2	26	ButtonPress	MissedWin	False
258.015	0.16	Win2	0.6296	0.004	No	2.931	-0.004	2.0	NoResponse	0	0.208	257.223	2	26	Target	MissedWin	False
258.182	0.54	Win2	0.6296	n/a	No	2.931	n/a	n/a	NoResponse	0	n/a	n/a	2	26	Blank	MissedWin	False
258.223	0.3	Win2	0.6296	0.004	No	2.931	-0.004	2.0	NoResponse	0	0.208	n/a	2	26	ButtonPress	MissedWin	False
258.717	1.45	Win2	0.6296	n/a	No	2.931	n/a	5.0	NoResponse	0	0.037	257.754	2	26	Feedback	MissedWin	False
260.172	2.931	Win2	0.6296	n/a	No	2.931	n/a	n/a	NoResponse	0	0.0	n/a	2	26	ISIslide	MissedWin	False
263.114	0.25	Lose2	0.6071	0.0	No	2.836	0.014	n/a	LatePress	-1	n/a	n/a	1	27	Cue	Loss	True
263.365	4.05	Lose2	0.6071	0.0	No	2.836	0.001	n/a	LatePress	-1	n/a	n/a	1	27	Fixation	Loss	True
267.41	0.17	Lose2	0.6071	0.004	No	2.836	-0.004	2.0	LatePress	-1	0.172	266.582	1	27	Target	Loss	True
267.582	0.3	Lose2	0.6071	0.004	No	2.836	-0.004	2.0	LatePress	-1	0.172	n/a	1	27	ButtonPress	Loss	True
267.594	0.53	Lose2	0.6071	n/a	No	2.836	n/a	n/a	LatePress	-1	n/a	n/a	1	27	Blank	Loss	True
268.112	1.45	Lose2	0.6071	n/a	No	2.836	n/a	5.0	LatePress	-1	0.008	267.12	1	27	Feedback	Loss	True
269.567	2.836	Lose2	0.6071	n/a	No	2.836	n/a	n/a	LatePress	-1	0.0	n/a	1	27	ISIslide	Loss	True
272.425	0.25	Control	0.5861999999999999	0.0	No	2.825	0.025	n/a	NoResponse	0	n/a	n/a	1	28	Cue	Neutral	True
272.676	4.05	Control	0.5861999999999999	0.0	No	2.825	0.001	n/a	NoResponse	0	n/a	n/a	1	28	Fixation	Neutral	True
276.721	0.18	Control	0.5861999999999999	0.004	No	2.825	-0.004	2.0	NoResponse	0	0.236	275.957	1	28	Target	Neutral	True
276.905	0.52	Control	0.5861999999999999	n/a	No	2.825	n/a	n/a	NoResponse	0	n/a	n/a	1	28	Blank	Neutral	True
276.957	0.3	Control	0.5861999999999999	0.004	No	2.825	-0.004	2.0	NoResponse	0	0.236	n/a	1	28	ButtonPress	Neutral	True
277.423	1.45	Control	0.5861999999999999	n/a	No	2.825	n/a	5.0	NoResponse	0	0.013	276.436	1	28	Feedback	Neutral	True
278.878	2.825	Control	0.5861999999999999	n/a	No	2.825	n/a	n/a	NoResponse	0	0.0	n/a	1	28	ISIslide	Neutral	True
281.72	0.25	Lose2	0.5667	0.0	No	2.83	0.02	n/a	NoResponse	-1	n/a	n/a	0	29	Cue	Loss	True
281.97	3.95	Lose2	0.5667	0.0	No	2.83	0.0	n/a	NoResponse	-1	n/a	n/a	0	29	Fixation	Loss	True
285.932	0.19	Lose2	0.5667	0.0	No	2.83	0.012	2.0	NoResponse	-1	0.249	285.181	0	29	Target	Loss	True
286.116	0.51	Lose2	0.5667	n/a	No	2.83	n/a	n/a	NoResponse	-1	n/a	n/a	0	29	Blank	Loss	True
286.181	0.3	Lose2	0.5667	0.0	No	2.83	0.012	2.0	NoResponse	-1	0.249	n/a	0	29	ButtonPress	Loss	True
286.618	1.45	Lose2	0.5667	n/a	No	2.83	n/a	5.0	NoResponse	-1	0.037	285.655	0	29	Feedback	Loss	True
288.072	2.83	Lose2	0.5667	n/a	No	2.83	n/a	n/a	NoResponse	-1	0.0	n/a	0	29	ISIslide	Loss	True
290.93	0.25	Win2	0.5806	0.001	Yes	2.77	0.03	n/a	GoodResponse	1	n/a	n/a	1	30	Cue	Win	True
291.181	3.9	Win2	0.5806	0.0	Yes	2.77	0.001	n/a	GoodResponse	1	n/a	n/a	1	30	Fixation	Win	True
295.076	0.2	Win2	0.5806	0.004	Yes	2.77	-0.004	2.0	GoodResponse	1	0.187	294.263	1	30	Target	Win	True
295.263	0.3	Win2	0.5806	0.004	Yes	2.77	-0.004	2.0	GoodResponse	1	0.187	n/a	1	30	ButtonPress	Win	True
295.277	0.5	Win2	0.5806	n/a	Yes	2.77	n/a	n/a	GoodResponse	1	n/a	n/a	1	30	Blank	Win	True
295.778	1.45	Win2	0.5806	n/a	Yes	2.77	n/a	5.0	GoodResponse	1	0.048	294.826	1	30	Feedback	Win	True
297.233	2.77	Win2	0.5806	n/a	Yes	2.77	n/a	n/a	GoodResponse	1	0.0	n/a	1	30	ISIslide	Win	True
300.024	0.25	Lose2	0.5938	0.0	Yes	2.826	0.024	n/a	GoodResponse	0	n/a	n/a	1	31	Cue	AvoidedLoss	True
300.275	4.05	Lose2	0.5938	0.0	Yes	2.826	0.001	n/a	GoodResponse	0	n/a	n/a	1	31	Fixation	AvoidedLoss	True
304.321	0.21	Lose2	0.5938	0.003	Yes	2.826	-0.003	2.0	GoodResponse	0	0.186	303.507	1	31	Target	AvoidedLoss	True
304.507	0.3	Lose2	0.5938	0.003	Yes	2.826	-0.003	2.0	GoodResponse	0	0.186	n/a	1	31	ButtonPress	AvoidedLoss	True
304.538	0.49	Lose2	0.5938	n/a	Yes	2.826	n/a	n/a	GoodResponse	0	n/a	n/a	1	31	Blank	AvoidedLoss	True
305.023	1.45	Lose2	0.5938	n/a	Yes	2.826	n/a	5.0	GoodResponse	0	0.023	304.046	1	31	Feedback	AvoidedLoss	True
306.477	2.826	Lose2	0.5938	n/a	Yes	2.826	n/a	n/a	GoodResponse	0	0.0	n/a	1	31	ISIslide	AvoidedLoss	True
309.319	0.25	Lose2	0.5758	0.0	No	2.631	0.019	n/a	NoResponse	-1	n/a	n/a	0	32	Cue	Loss	True
309.57	4.15	Lose2	0.5758	0.0	No	2.631	0.001	n/a	NoResponse	-1	n/a	n/a	0	32	Fixation	Loss	True
313.715	0.22	Lose2	0.5758	0.004	No	2.631	-0.004	2.0	NoResponse	-1	0.251	312.966	0	32	Target	Loss	True
313.949	0.48	Lose2	0.5758	n/a	No	2.631	n/a	n/a	NoResponse	-1	n/a	n/a	0	32	Blank	Loss	True
313.966	0.3	Lose2	0.5758	0.004	No	2.631	-0.004	2.0	NoResponse	-1	0.251	n/a	0	32	ButtonPress	Loss	True
314.417	1.45	Lose2	0.5758	n/a	No	2.631	n/a	5.0	NoResponse	-1	0.044	313.461	0	32	Feedback	Loss	True
315.872	2.631	Lose2	0.5758	n/a	No	2.631	n/a	n/a	NoResponse	-1	0.0	n/a	0	32	ISIslide	Loss	True
318.53	0.25	Win2	0.5882000000000001	0.0	Yes	2.67	0.03	n/a	GoodResponse	1	n/a	n/a	1	33	Cue	Win	True
318.78	4.0	Win2	0.5882000000000001	0.001	Yes	2.67	0.0	n/a	GoodResponse	1	n/a	n/a	1	33	Fixation	Win	True
322.776	0.23	Win2	0.5882000000000001	0.004	Yes	2.67	-0.004	2.0	GoodResponse	1	0.22	321.996	1	33	Target	Win	True
322.996	0.3	Win2	0.5882000000000001	0.004	Yes	2.67	-0.004	2.0	GoodResponse	1	0.22	n/a	1	33	ButtonPress	Win	True
323.01	0.47	Win2	0.5882000000000001	n/a	Yes	2.67	n/a	n/a	GoodResponse	1	n/a	n/a	1	33	Blank	Win	True
323.478	1.45	Win2	0.5882000000000001	n/a	Yes	2.67	n/a	5.0	GoodResponse	1	0.006	322.484	1	33	Feedback	Win	True
324.932	2.67	Win2	0.5882000000000001	n/a	Yes	2.67	n/a	n/a	GoodResponse	1	0.0	n/a	1	33	ISIslide	Win	True
327.624	0.25	Lose2	0.6	0.0	Yes	2.626	0.024	n/a	GoodResponse	0	n/a	n/a	1	34	Cue	AvoidedLoss	True
327.874	4.05	Lose2	0.6	0.0	Yes	2.626	0.0	n/a	GoodResponse	0	n/a	n/a	1	34	Fixation	AvoidedLoss	True
331.92	0.24	Lose2	0.6	0.004	Yes	2.626	-0.004	2.0	GoodResponse	0	0.206	331.126	1	34	Target	AvoidedLoss	True
332.126	0.3	Lose2	0.6	0.004	Yes	2.626	-0.004	2.0	GoodResponse	0	0.206	n/a	1	34	ButtonPress	AvoidedLoss	True
332.171	0.46	Lose2	0.6	n/a	Yes	2.626	n/a	n/a	GoodResponse	0	n/a	n/a	1	34	Blank	AvoidedLoss	True
332.622	1.45	Lose2	0.6	n/a	Yes	2.626	n/a	5.0	GoodResponse	0	0.033	331.655	1	34	Feedback	AvoidedLoss	True
334.076	2.626	Lose2	0.6	n/a	Yes	2.626	n/a	2.0	GoodResponse	0	1.396	n/a	1	34	ISIslide	AvoidedLoss	True
336.701	0.25	Lose2	0.6111	0.0	Yes	2.699	0.001	n/a	GoodResponse	0	n/a	n/a	1	35	Cue	AvoidedLoss	True
336.952	4.0	Lose2	0.6111	0.0	Yes	2.699	0.001	n/a	GoodResponse	0	n/a	n/a	1	35	Fixation	AvoidedLoss	True
340.947	0.25	Lose2	0.6111	0.004	Yes	2.699	-0.004	2.0	GoodResponse	0	0.236	340.183	1	35	Target	AvoidedLoss	True
341.183	0.3	Lose2	0.6111	0.004	Yes	2.699	-0.004	2.0	GoodResponse	0	0.236	n/a	1	35	ButtonPress	AvoidedLoss	True
341.198	0.45	Lose2	0.6111	n/a	Yes	2.699	n/a	n/a	GoodResponse	0	n/a	n/a	1	35	Blank	AvoidedLoss	True
341.649	1.45	Lose2	0.6111	n/a	Yes	2.699	n/a	5.0	GoodResponse	0	0.03	340.679	1	35	Feedback	AvoidedLoss	True
343.103	2.699	Lose2	0.6111	n/a	Yes	2.699	n/a	n/a	GoodResponse	0	0.0	n/a	1	35	ISIslide	AvoidedLoss	True
345.828	0.25	Control	0.6215999999999999	0.0	Yes	2.672	0.028	n/a	GoodResponse	0	n/a	n/a	1	36	Cue	Neutral	True
346.079	4.0	Control	0.6215999999999999	0.0	Yes	2.672	0.001	n/a	GoodResponse	0	n/a	n/a	1	36	Fixation	Neutral	True
350.074	0.26	Control	0.6215999999999999	0.004	Yes	2.672	-0.004	2.0	GoodResponse	0	0.212	349.286	1	36	Target	Neutral	True
350.286	0.3	Control	0.6215999999999999	0.004	Yes	2.672	-0.004	2.0	GoodResponse	0	0.212	n/a	1	36	ButtonPress	Neutral	True
350.342	0.44	Control	0.6215999999999999	n/a	Yes	2.672	n/a	n/a	GoodResponse	0	n/a	n/a	1	36	Blank	Neutral	True
350.776	1.45	Control	0.6215999999999999	n/a	Yes	2.672	n/a	5.0	GoodResponse	0	0.025	349.801	1	36	Feedback	Neutral	True
352.231	2.672	Control	0.6215999999999999	n/a	Yes	2.672	n/a	n/a	GoodResponse	0	0.0	n/a	1	36	ISIslide	Neutral	True
354.922	0.25	Win2	0.6315999999999999	0.0	Yes	2.878	0.022	n/a	GoodResponse	1	n/a	n/a	2	37	Cue	Win	True
355.173	4.0	Win2	0.6315999999999999	0.0	Yes	2.878	0.001	n/a	GoodResponse	1	n/a	n/a	2	37	Fixation	Win	True
359.168	0.27	Win2	0.6315999999999999	0.004	Yes	2.878	-0.004	2.0	GoodResponse	1	0.192	358.36	2	37	Target	Win	True
359.36	0.3	Win2	0.6315999999999999	0.004	Yes	2.878	-0.004	2.0	GoodResponse	1	0.192	n/a	2	37	ButtonPress	Win	True
359.452	0.43	Win2	0.6315999999999999	n/a	Yes	2.878	n/a	n/a	GoodResponse	1	n/a	n/a	2	37	Blank	Win	True
359.87	1.45	Win2	0.6315999999999999	n/a	Yes	2.878	n/a	5.0	GoodResponse	1	0.006	358.876	2	37	Feedback	Win	True
361.325	2.878	Win2	0.6315999999999999	n/a	Yes	2.878	n/a	n/a	GoodResponse	1	0.0	n/a	2	37	ISIslide	Win	True
364.216	0.25	Lose2	0.6409999999999999	0.001	Yes	2.834	0.016	n/a	GoodResponse	0	n/a	n/a	2	38	Cue	AvoidedLoss	True
364.467	3.95	Lose2	0.6409999999999999	0.0	Yes	2.834	0.001	n/a	GoodResponse	0	n/a	n/a	2	38	Fixation	AvoidedLoss	True
368.412	0.28	Lose2	0.6409999999999999	0.004	Yes	2.834	-0.004	2.0	GoodResponse	0	0.216	367.628	2	38	Target	AvoidedLoss	True
368.628	0.3	Lose2	0.6409999999999999	0.004	Yes	2.834	-0.004	2.0	GoodResponse	0	0.216	n/a	2	38	ButtonPress	AvoidedLoss	True
368.697	0.42	Lose2	0.6409999999999999	n/a	Yes	2.834	n/a	n/a	GoodResponse	0	n/a	n/a	2	38	Blank	AvoidedLoss	True
369.114	1.45	Lose2	0.6409999999999999	n/a	Yes	2.834	n/a	5.0	GoodResponse	0	0.029	368.143	2	38	Feedback	AvoidedLoss	True
370.569	2.834	Lose2	0.6409999999999999	n/a	Yes	2.834	n/a	n/a	GoodResponse	0	0.0	n/a	2	38	ISIslide	AvoidedLoss	True
373.427	0.25	Win2	0.65	0.0	Yes	2.973	0.027	n/a	GoodResponse	1	n/a	n/a	3	39	Cue	Win	True
373.678	4.1	Win2	0.65	0.0	Yes	2.973	0.001	n/a	GoodResponse	1	n/a	n/a	3	39	Fixation	Win	True
377.774	0.29	Win2	0.65	0.003	Yes	2.973	-0.003	2.0	GoodResponse	1	0.242	377.016	3	39	Target	Win	True
378.016	0.3	Win2	0.65	0.003	Yes	2.973	-0.003	2.0	GoodResponse	1	0.242	n/a	3	39	ButtonPress	Win	True
378.075	0.41	Win2	0.65	n/a	Yes	2.973	n/a	n/a	GoodResponse	1	n/a	n/a	3	39	Blank	Win	True
378.476	1.45	Win2	0.65	n/a	Yes	2.973	n/a	5.0	GoodResponse	1	0.032	377.508	3	39	Feedback	Win	True
379.93	2.973	Win2	0.65	n/a	Yes	2.973	n/a	2.0	GoodResponse	1	1.677	n/a	3	39	ISIslide	Win	True
382.906	0.25	Win2	0.6585	0.0	Yes	2.744	0.006	n/a	GoodResponse	1	n/a	n/a	4	40	Cue	Win	True
383.157	3.95	Win2	0.6585	0.0	Yes	2.744	0.001	n/a	GoodResponse	1	n/a	n/a	4	40	Fixation	Win	True
387.102	0.3	Win2	0.6585	0.004	Yes	2.744	-0.004	2.0	GoodResponse	1	0.204	386.306	4	40	Target	Win	True
387.306	0.3	Win2	0.6585	0.004	Yes	2.744	-0.004	2.0	GoodResponse	1	0.204	n/a	4	40	ButtonPress	Win	True
387.403	0.4	Win2	0.6585	n/a	Yes	2.744	n/a	n/a	GoodResponse	1	n/a	n/a	4	40	Blank	Win	True
387.804	1.45	Win2	0.6585	n/a	Yes	2.744	n/a	5.0	GoodResponse	1	0.021	386.825	4	40	Feedback	Win	True
389.258	2.744	Win2	0.6585	n/a	Yes	2.744	n/a	n/a	GoodResponse	1	0.0	n/a	4	40	ISIslide	Win	True
392.016	0.25	Win2	0.6667000000000001	0.0	Yes	2.784	0.016	n/a	GoodResponse	1	n/a	n/a	5	41	Cue	Win	True
392.267	3.9	Win2	0.6667000000000001	0.0	Yes	2.784	0.001	n/a	GoodResponse	1	n/a	n/a	5	41	Fixation	Win	True
396.162	0.3	Win2	0.6667000000000001	0.004	Yes	2.784	-0.004	2.0	GoodResponse	1	0.184	395.346	5	41	Target	Win	True
396.346	0.3	Win2	0.6667000000000001	0.004	Yes	2.784	-0.004	2.0	GoodResponse	1	0.184	n/a	5	41	ButtonPress	Win	True
396.463	0.4	Win2	0.6667000000000001	n/a	Yes	2.784	n/a	n/a	GoodResponse	1	n/a	n/a	5	41	Blank	Win	True
396.864	1.45	Win2	0.6667000000000001	n/a	Yes	2.784	n/a	5.0	GoodResponse	1	0.035	395.899	5	41	Feedback	Win	True
398.319	2.784	Win2	0.6667000000000001	n/a	Yes	2.784	n/a	n/a	GoodResponse	1	0.0	n/a	5	41	ISIslide	Win	True
401.127	0.25	Control	0.6744	0.0	Yes	2.923	0.027	n/a	GoodResponse	0	n/a	n/a	5	42	Cue	Neutral	True
401.378	3.85	Control	0.6744	0.0	Yes	2.923	0.001	n/a	GoodResponse	0	n/a	n/a	5	42	Fixation	Neutral	True
405.223	0.29	Control	0.6744	0.004	Yes	2.923	-0.004	2.0	GoodResponse	0	0.273	404.496	5	42	Target	Neutral	True
405.496	0.3	Control	0.6744	0.004	Yes	2.923	-0.004	2.0	GoodResponse	0	0.273	n/a	5	42	ButtonPress	Neutral	True
405.523	0.41	Control	0.6744	n/a	Yes	2.923	n/a	n/a	GoodResponse	0	n/a	n/a	5	42	Blank	Neutral	True
405.925	1.45	Control	0.6744	n/a	Yes	2.923	n/a	5.0	GoodResponse	0	0.047	404.972	5	42	Feedback	Neutral	True
407.379	2.923	Control	0.6744	n/a	Yes	2.923	n/a	n/a	GoodResponse	0	0.0	n/a	5	42	ISIslide	Neutral	True
410.321	0.25	Win2	0.6818000000000001	0.0	Yes	3.179	0.021	n/a	GoodResponse	1	n/a	n/a	6	43	Cue	Win	True
410.572	4.0	Win2	0.6818000000000001	0.0	Yes	3.179	0.001	n/a	GoodResponse	1	n/a	n/a	6	43	Fixation	Win	True
414.567	0.28	Win2	0.6818000000000001	0.004	Yes	3.179	-0.004	2.0	GoodResponse	1	0.216	413.783	6	43	Target	Win	True
414.783	0.3	Win2	0.6818000000000001	0.004	Yes	3.179	-0.004	2.0	GoodResponse	1	0.216	n/a	6	43	ButtonPress	Win	True
414.851	0.42	Win2	0.6818000000000001	n/a	Yes	3.179	n/a	n/a	GoodResponse	1	n/a	n/a	6	43	Blank	Win	True
415.269	1.45	Win2	0.6818000000000001	n/a	Yes	3.179	n/a	5.0	GoodResponse	1	0.02	414.289	6	43	Feedback	Win	True
416.724	3.179	Win2	0.6818000000000001	n/a	Yes	3.179	n/a	n/a	GoodResponse	1	0.0	n/a	6	43	ISIslide	Win	True
419.917	0.25	Win2	0.6889	0.0	Yes	2.983	0.017	n/a	GoodResponse	1	n/a	n/a	7	44	Cue	Win	True
420.167	4.0	Win2	0.6889	0.0	Yes	2.983	0.0	n/a	GoodResponse	1	n/a	n/a	7	44	Fixation	Win	True
424.163	0.27	Win2	0.6889	0.004	Yes	2.983	-0.004	2.0	GoodResponse	1	0.195	423.358	7	44	Target	Win	True
424.358	0.3	Win2	0.6889	0.004	Yes	2.983	-0.004	2.0	GoodResponse	1	0.195	n/a	7	44	ButtonPress	Win	True
424.447	0.43	Win2	0.6889	n/a	Yes	2.983	n/a	n/a	GoodResponse	1	n/a	n/a	7	44	Blank	Win	True
424.865	1.45	Win2	0.6889	n/a	Yes	2.983	n/a	5.0	GoodResponse	1	0.033	423.898	7	44	Feedback	Win	True
426.319	2.983	Win2	0.6889	n/a	Yes	2.983	n/a	n/a	GoodResponse	1	0.0	n/a	7	44	ISIslide	Win	True
429.328	0.25	Control	0.6957	0.0	Yes	2.872	0.028	n/a	GoodResponse	0	n/a	n/a	7	45	Cue	Neutral	True
429.579	4.1	Control	0.6957	0.0	Yes	2.872	0.001	n/a	GoodResponse	0	n/a	n/a	7	45	Fixation	Neutral	True
433.674	0.26	Control	0.6957	0.004	Yes	2.872	-0.004	2.0	GoodResponse	0	0.238	432.912	7	45	Target	Neutral	True
433.912	0.3	Control	0.6957	0.004	Yes	2.872	-0.004	2.0	GoodResponse	0	0.238	n/a	7	45	ButtonPress	Neutral	True
433.942	0.44	Control	0.6957	n/a	Yes	2.872	n/a	n/a	GoodResponse	0	n/a	n/a	7	45	Blank	Neutral	True
434.377	1.45	Control	0.6957	n/a	Yes	2.872	n/a	5.0	GoodResponse	0	0.033	433.41	7	45	Feedback	Neutral	True
435.831	2.872	Control	0.6957	n/a	Yes	2.872	n/a	n/a	GoodResponse	0	0.0	n/a	7	45	ISIslide	Neutral	True
438.723	0.25	Lose2	0.7021	0.0	Yes	3.377	0.023	n/a	GoodResponse	0	n/a	n/a	7	46	Cue	AvoidedLoss	True
438.974	4.0	Lose2	0.7021	0.0	Yes	3.377	0.001	n/a	GoodResponse	0	n/a	n/a	7	46	Fixation	AvoidedLoss	True
442.969	0.25	Lose2	0.7021	0.004	Yes	3.377	-0.004	2.0	GoodResponse	0	0.231	442.2	7	46	Target	AvoidedLoss	True
443.2	0.3	Lose2	0.7021	0.004	Yes	3.377	-0.004	2.0	GoodResponse	0	0.231	n/a	7	46	ButtonPress	AvoidedLoss	True
443.22	0.45	Lose2	0.7021	n/a	Yes	3.377	n/a	n/a	GoodResponse	0	n/a	n/a	7	46	Blank	AvoidedLoss	True
443.671	1.45	Lose2	0.7021	n/a	Yes	3.377	n/a	5.0	GoodResponse	0	0.008	442.679	7	46	Feedback	AvoidedLoss	True
445.125	3.377	Lose2	0.7021	n/a	Yes	3.377	n/a	n/a	GoodResponse	0	0.0	n/a	7	46	ISIslide	AvoidedLoss	True
448.519	0.25	Lose2	0.6875	0.0	No	2.681	0.019	n/a	NoResponse	-1	n/a	n/a	6	47	Cue	Loss	True
448.77	4.0	Lose2	0.6875	0.0	No	2.681	0.001	n/a	NoResponse	-1	n/a	n/a	6	47	Fixation	Loss	True
452.765	0.24	Lose2	0.6875	0.004	No	2.681	-0.004	2.0	NoResponse	-1	0.285	452.05	6	47	Target	Loss	True
453.016	0.46	Lose2	0.6875	n/a	No	2.681	n/a	n/a	NoResponse	-1	n/a	n/a	6	47	Blank	Loss	True
453.05	0.3	Lose2	0.6875	0.004	No	2.681	-0.004	2.0	NoResponse	-1	0.285	n/a	6	47	ButtonPress	Loss	True
453.467	1.45	Lose2	0.6875	n/a	No	2.681	n/a	5.0	NoResponse	-1	0.017	452.484	6	47	Feedback	Loss	True
454.921	2.681	Lose2	0.6875	n/a	No	2.681	n/a	n/a	NoResponse	-1	0.0	n/a	6	47	ISIslide	Loss	True
457.629	0.25	Lose2	0.6939	0.001	Yes	3.021	0.029	n/a	GoodResponse	0	n/a	n/a	6	48	Cue	AvoidedLoss	False
457.88	3.95	Lose2	0.6939	0.0	Yes	3.021	0.001	2.0	GoodResponse	0	3.482	460.362	6	48	Fixation	AvoidedLoss	False
461.362	0.3	Lose2	0.6939	0.0	Yes	3.021	0.001	2.0	GoodResponse	0	3.482	n/a	6	48	ButtonPress	AvoidedLoss	False
461.825	0.23	Lose2	0.6939	0.004	Yes	3.021	-0.004	2.0	GoodResponse	0	0.21	461.035	6	48	Target	AvoidedLoss	False
462.035	0.3	Lose2	0.6939	0.004	Yes	3.021	-0.004	2.0	GoodResponse	0	0.21	n/a	6	48	ButtonPress	AvoidedLoss	False
462.059	0.47	Lose2	0.6939	n/a	Yes	3.021	n/a	n/a	GoodResponse	0	n/a	n/a	6	48	Blank	AvoidedLoss	False
462.527	1.45	Lose2	0.6939	n/a	Yes	3.021	n/a	5.0	GoodResponse	0	0.03	461.557	6	48	Feedback	AvoidedLoss	False
463.982	3.021	Lose2	0.6939	n/a	Yes	3.021	n/a	n/a	GoodResponse	0	0.0	n/a	6	48	ISIslide	AvoidedLoss	False
467.024	0.25	Control	0.7	0.0	Yes	2.876	0.024	n/a	GoodResponse	0	n/a	n/a	6	49	Cue	Neutral	True
467.275	4.0	Control	0.7	0.0	Yes	2.876	0.001	n/a	GoodResponse	0	n/a	n/a	6	49	Fixation	Neutral	True
471.27	0.22	Control	0.7	0.004	Yes	2.876	-0.004	2.0	GoodResponse	0	0.183	470.453	6	49	Target	Neutral	True
471.453	0.3	Control	0.7	0.004	Yes	2.876	-0.004	2.0	GoodResponse	0	0.183	n/a	6	49	ButtonPress	Neutral	True
471.504	0.48	Control	0.7	n/a	Yes	2.876	n/a	n/a	GoodResponse	0	n/a	n/a	6	49	Blank	Neutral	True
471.972	1.45	Control	0.7	n/a	Yes	2.876	n/a	5.0	GoodResponse	0	0.048	471.02	6	49	Feedback	Neutral	True
473.427	2.876	Control	0.7	n/a	Yes	2.876	n/a	n/a	GoodResponse	0	0.0	n/a	6	49	ISIslide	Neutral	True
476.319	0.25	Control	0.6862999999999999	0.0	No	2.781	0.019	n/a	NoResponse	0	n/a	n/a	6	50	Cue	Neutral	True
476.569	4.0	Control	0.6862999999999999	0.001	No	2.781	0.0	n/a	NoResponse	0	n/a	n/a	6	50	Fixation	Neutral	True
480.565	0.21	Control	0.6862999999999999	0.004	No	2.781	-0.004	2.0	NoResponse	0	0.237	479.802	6	50	Target	Neutral	True
480.782	0.49	Control	0.6862999999999999	n/a	No	2.781	n/a	n/a	NoResponse	0	n/a	n/a	6	50	Blank	Neutral	True
480.802	0.3	Control	0.6862999999999999	0.004	No	2.781	-0.004	2.0	NoResponse	0	0.237	n/a	6	50	ButtonPress	Neutral	True
481.267	1.45	Control	0.6862999999999999	n/a	No	2.781	n/a	5.0	NoResponse	0	0.021	480.288	6	50	Feedback	Neutral	True
482.721	2.781	Control	0.6862999999999999	n/a	No	2.781	n/a	n/a	NoResponse	0	0.0	n/a	6	50	ISIslide	Neutral	True
485.53	0.25	Control	0.6923	0.0	Yes	2.72	0.03	n/a	GoodResponse	0	n/a	n/a	6	51	Cue	Neutral	True
485.78	3.95	Control	0.6923	0.0	Yes	2.72	0.0	n/a	GoodResponse	0	n/a	n/a	6	51	Fixation	Neutral	True
489.726	0.2	Control	0.6923	0.004	Yes	2.72	-0.004	2.0	GoodResponse	0	0.193	488.919	6	51	Target	Neutral	True
489.919	0.3	Control	0.6923	0.004	Yes	2.72	-0.004	2.0	GoodResponse	0	0.193	n/a	6	51	ButtonPress	Neutral	True
489.926	0.5	Control	0.6923	n/a	Yes	2.72	n/a	n/a	GoodResponse	0	n/a	n/a	6	51	Blank	Neutral	True
490.428	1.45	Control	0.6923	n/a	Yes	2.72	n/a	5.0	GoodResponse	0	0.031	489.459	6	51	Feedback	Neutral	True
491.882	2.72	Control	0.6923	n/a	Yes	2.72	n/a	2.0	GoodResponse	0	0.319	n/a	6	51	ISIslide	Neutral	True
494.607	0.25	Control	0.6792	0.0	No	2.643	0.007	n/a	NoResponse	0	n/a	n/a	6	52	Cue	Neutral	True
494.858	4.05	Control	0.6792	0.0	No	2.643	0.001	n/a	NoResponse	0	n/a	n/a	6	52	Fixation	Neutral	True
498.903	0.19	Control	0.6792	0.004	No	2.643	-0.004	2.0	NoResponse	0	0.286	498.189	6	52	Target	Neutral	True
499.104	0.51	Control	0.6792	n/a	No	2.643	n/a	n/a	NoResponse	0	n/a	n/a	6	52	Blank	Neutral	True
499.189	0.3	Control	0.6792	0.004	No	2.643	-0.004	2.0	NoResponse	0	0.286	n/a	6	52	ButtonPress	Neutral	True
499.605	1.45	Control	0.6792	n/a	No	2.643	n/a	5.0	NoResponse	0	0.024	498.629	6	52	Feedback	Neutral	True
501.059	2.643	Control	0.6792	n/a	No	2.643	n/a	n/a	NoResponse	0	0.0	n/a	6	52	ISIslide	Neutral	True
503.717	0.25	Win2	0.6667000000000001	0.0	No	2.933	0.017	n/a	NoResponse	0	n/a	n/a	6	53	Cue	MissedWin	True
503.968	4.05	Win2	0.6667000000000001	0.0	No	2.933	0.001	n/a	NoResponse	0	n/a	n/a	6	53	Fixation	MissedWin	True
508.014	0.18	Win2	0.6667000000000001	0.003	No	2.933	-0.003	2.0	NoResponse	0	0.208	507.222	6	53	Target	MissedWin	True
508.197	0.52	Win2	0.6667000000000001	n/a	No	2.933	n/a	n/a	NoResponse	0	n/a	n/a	6	53	Blank	MissedWin	True
508.222	0.3	Win2	0.6667000000000001	0.003	No	2.933	-0.003	2.0	NoResponse	0	0.208	n/a	6	53	ButtonPress	MissedWin	True
508.716	1.45	Win2	0.6667000000000001	n/a	No	2.933	n/a	5.0	NoResponse	0	0.035	507.751	6	53	Feedback	MissedWin	True
510.17	2.933	Win2	0.6667000000000001	n/a	No	2.933	n/a	n/a	NoResponse	0	0.0	n/a	6	53	ISIslide	MissedWin	True
513.129	0.25	Win2	0.6545000000000001	0.0	No	2.721	0.029	n/a	NoResponse	0	n/a	n/a	6	54	Cue	MissedWin	True
513.38	3.95	Win2	0.6545000000000001	0.0	No	2.721	0.001	n/a	NoResponse	0	n/a	n/a	6	54	Fixation	MissedWin	True
517.325	0.17	Win2	0.6545000000000001	0.004	No	2.721	-0.004	2.0	NoResponse	0	0.204	516.529	6	54	Target	MissedWin	True
517.509	0.53	Win2	0.6545000000000001	n/a	No	2.721	n/a	n/a	NoResponse	0	n/a	n/a	6	54	Blank	MissedWin	True
517.529	0.3	Win2	0.6545000000000001	0.004	No	2.721	-0.004	2.0	NoResponse	0	0.204	n/a	6	54	ButtonPress	MissedWin	True
518.027	1.45	Win2	0.6545000000000001	n/a	No	2.721	n/a	5.0	NoResponse	0	0.042	517.069	6	54	Feedback	MissedWin	True
519.481	2.721	Win2	0.6545000000000001	n/a	No	2.721	n/a	2.0	NoResponse	0	0.931	n/a	6	54	ISIslide	MissedWin	True
522.206	0.25	Control	0.6429	0.0	No	3.044	0.006	n/a	NoResponse	0	n/a	n/a	6	55	Cue	Neutral	True
522.457	3.95	Control	0.6429	0.0	No	3.044	0.001	n/a	NoResponse	0	n/a	n/a	6	55	Fixation	Neutral	True
526.402	0.18	Control	0.6429	0.004	No	3.044	-0.004	2.0	NoResponse	0	0.235	525.637	6	55	Target	Neutral	True
526.586	0.52	Control	0.6429	n/a	No	3.044	n/a	n/a	NoResponse	0	n/a	n/a	6	55	Blank	Neutral	True
526.637	0.3	Control	0.6429	0.004	No	3.044	-0.004	2.0	NoResponse	0	0.235	n/a	6	55	ButtonPress	Neutral	True
527.104	1.45	Control	0.6429	n/a	No	3.044	n/a	5.0	NoResponse	0	0.037	526.141	6	55	Feedback	Neutral	True
528.558	3.044	Control	0.6429	n/a	No	3.044	n/a	n/a	NoResponse	0	0.0	n/a	6	55	ISIslide	Neutral	True
531.618	0.25	Control	0.6315999999999999	0.0	No	2.832	0.018	n/a	NoResponse	0	n/a	n/a	6	56	Cue	Neutral	False
531.868	3.95	Control	0.6315999999999999	0.0	No	2.832	0.0	2.0	NoResponse	0	0.026	530.894	6	56	Fixation	Neutral	False
531.894	0.3	Control	0.6315999999999999	0.0	No	2.832	0.0	2.0	NoResponse	0	0.026	n/a	6	56	ButtonPress	Neutral	False
535.813	0.19	Control	0.6315999999999999	0.005	No	2.832	-0.005	2.0	NoResponse	0	0.223	535.036	6	56	Target	Neutral	False
536.014	0.51	Control	0.6315999999999999	n/a	No	2.832	n/a	n/a	NoResponse	0	n/a	n/a	6	56	Blank	Neutral	False
536.036	0.3	Control	0.6315999999999999	0.005	No	2.832	-0.005	2.0	NoResponse	0	0.223	n/a	6	56	ButtonPress	Neutral	False
536.516	1.45	Control	0.6315999999999999	n/a	No	2.832	n/a	5.0	NoResponse	0	0.04	535.556	6	56	Feedback	Neutral	False
537.97	2.832	Control	0.6315999999999999	n/a	No	2.832	n/a	n/a	NoResponse	0	0.0	n/a	6	56	ISIslide	Neutral	False
540.828	0.25	Control	0.6207	0.001	No	3.472	0.028	n/a	NoResponse	0	n/a	n/a	6	57	Cue	Neutral	True
541.079	4.0	Control	0.6207	0.0	No	3.472	0.001	n/a	NoResponse	0	n/a	n/a	6	57	Fixation	Neutral	True
545.075	0.2	Control	0.6207	0.003	No	3.472	-0.003	2.0	NoResponse	0	0.249	544.324	6	57	Target	Neutral	True
545.275	0.5	Control	0.6207	n/a	No	3.472	n/a	n/a	NoResponse	0	n/a	n/a	6	57	Blank	Neutral	True
545.324	0.3	Control	0.6207	0.003	No	3.472	-0.003	2.0	NoResponse	0	0.249	n/a	6	57	ButtonPress	Neutral	True
545.777	1.45	Control	0.6207	n/a	No	3.472	n/a	5.0	NoResponse	0	0.047	544.824	6	57	Feedback	Neutral	True
547.231	3.472	Control	0.6207	n/a	No	3.472	n/a	n/a	NoResponse	0	0.0	n/a	6	57	ISIslide	Neutral	True
550.725	0.25	Win2	0.6271	0.0	Yes	2.725	0.025	n/a	GoodResponse	1	n/a	n/a	7	58	Cue	Win	True
550.976	4.05	Win2	0.6271	0.0	Yes	2.725	0.001	n/a	GoodResponse	1	n/a	n/a	7	58	Fixation	Win	True
555.021	0.21	Win2	0.6271	0.004	Yes	2.725	-0.004	2.0	GoodResponse	1	0.202	554.223	7	58	Target	Win	True
555.223	0.3	Win2	0.6271	0.004	Yes	2.725	-0.004	2.0	GoodResponse	1	0.202	n/a	7	58	ButtonPress	Win	True
555.238	0.49	Win2	0.6271	n/a	Yes	2.725	n/a	n/a	GoodResponse	1	n/a	n/a	7	58	Blank	Win	True
555.723	1.45	Win2	0.6271	n/a	Yes	2.725	n/a	5.0	GoodResponse	1	0.006	554.729	7	58	Feedback	Win	True
557.177	2.725	Win2	0.6271	n/a	Yes	2.725	n/a	n/a	GoodResponse	1	0.0	n/a	7	58	ISIslide	Win	True
559.919	0.25	Lose2	0.6333	0.0	Yes	2.681	0.019	n/a	GoodResponse	0	n/a	n/a	7	59	Cue	AvoidedLoss	True
560.17	4.0	Lose2	0.6333	0.0	Yes	2.681	0.001	n/a	GoodResponse	0	n/a	n/a	7	59	Fixation	AvoidedLoss	True
564.165	0.22	Lose2	0.6333	0.004	Yes	2.681	-0.004	2.0	GoodResponse	0	0.196	563.361	7	59	Target	AvoidedLoss	True
564.361	0.3	Lose2	0.6333	0.004	Yes	2.681	-0.004	2.0	GoodResponse	0	0.196	n/a	7	59	ButtonPress	AvoidedLoss	True
564.399	0.48	Lose2	0.6333	n/a	Yes	2.681	n/a	n/a	GoodResponse	0	n/a	n/a	7	59	Blank	AvoidedLoss	True
564.867	1.45	Lose2	0.6333	n/a	Yes	2.681	n/a	5.0	GoodResponse	0	0.03	563.897	7	59	Feedback	AvoidedLoss	True
566.321	2.681	Lose2	0.6333	n/a	Yes	2.681	n/a	n/a	GoodResponse	0	0.0	n/a	7	59	ISIslide	AvoidedLoss	True
569.03	0.25	Control	0.623	0.0	No	2.67	0.03	n/a	NoResponse	0	n/a	n/a	7	60	Cue	Neutral	True
569.28	4.0	Control	0.623	0.0	No	2.67	0.0	n/a	NoResponse	0	n/a	n/a	7	60	Fixation	Neutral	True
573.276	0.23	Control	0.623	0.004	No	2.67	-0.004	2.0	NoResponse	0	0.245	572.521	7	60	Target	Neutral	True
573.51	0.47	Control	0.623	n/a	No	2.67	n/a	n/a	NoResponse	0	n/a	n/a	7	60	Blank	Neutral	True
573.521	0.3	Control	0.623	0.004	No	2.67	-0.004	2.0	NoResponse	0	0.245	n/a	7	60	ButtonPress	Neutral	True
573.978	1.45	Control	0.623	n/a	No	2.67	n/a	5.0	NoResponse	0	0.04	573.018	7	60	Feedback	Neutral	True
575.432	2.67	Control	0.623	n/a	No	2.67	n/a	n/a	NoResponse	0	0.0	n/a	7	60	ISIslide	Neutral	True
578.123	0.25	Lose2	0.629	0.001	Yes	2.977	0.023	n/a	GoodResponse	0	n/a	n/a	7	61	Cue	AvoidedLoss	True
578.374	4.0	Lose2	0.629	0.0	Yes	2.977	0.001	n/a	GoodResponse	0	n/a	n/a	7	61	Fixation	AvoidedLoss	True
582.37	0.24	Lose2	0.629	0.003	Yes	2.977	-0.003	2.0	GoodResponse	0	0.198	581.568	7	61	Target	AvoidedLoss	True
582.568	0.3	Lose2	0.629	0.003	Yes	2.977	-0.003	2.0	GoodResponse	0	0.198	n/a	7	61	ButtonPress	AvoidedLoss	True
582.62	0.46	Lose2	0.629	n/a	Yes	2.977	n/a	n/a	GoodResponse	0	n/a	n/a	7	61	Blank	AvoidedLoss	True
583.072	1.45	Lose2	0.629	n/a	Yes	2.977	n/a	5.0	GoodResponse	0	0.02	582.092	7	61	Feedback	AvoidedLoss	True
584.526	2.977	Lose2	0.629	n/a	Yes	2.977	n/a	n/a	GoodResponse	0	0.0	n/a	7	61	ISIslide	AvoidedLoss	True
587.518	0.25	Lose2	0.6349	0.0	Yes	2.882	0.018	n/a	GoodResponse	0	n/a	n/a	7	62	Cue	AvoidedLoss	True
587.769	3.9	Lose2	0.6349	0.0	Yes	2.882	0.001	n/a	GoodResponse	0	n/a	n/a	7	62	Fixation	AvoidedLoss	True
591.664	0.25	Lose2	0.6349	0.004	Yes	2.882	-0.004	2.0	GoodResponse	0	0.236	590.9	7	62	Target	AvoidedLoss	True
591.9	0.3	Lose2	0.6349	0.004	Yes	2.882	-0.004	2.0	GoodResponse	0	0.236	n/a	7	62	ButtonPress	AvoidedLoss	True
591.915	0.45	Lose2	0.6349	n/a	Yes	2.882	n/a	n/a	GoodResponse	0	n/a	n/a	7	62	Blank	AvoidedLoss	True
592.366	1.45	Lose2	0.6349	n/a	Yes	2.882	n/a	5.0	GoodResponse	0	0.043	591.409	7	62	Feedback	AvoidedLoss	True
593.82	2.882	Lose2	0.6349	n/a	Yes	2.882	n/a	n/a	GoodResponse	0	0.0	n/a	7	62	ISIslide	AvoidedLoss	True
596.729	0.25	Lose2	0.6406000000000001	0.0	Yes	2.621	0.029	n/a	GoodResponse	0	n/a	n/a	7	63	Cue	AvoidedLoss	True
596.98	4.05	Lose2	0.6406000000000001	0.0	Yes	2.621	0.001	n/a	GoodResponse	0	n/a	n/a	7	63	Fixation	AvoidedLoss	True
601.025	0.26	Lose2	0.6406000000000001	0.004	Yes	2.621	-0.004	2.0	GoodResponse	0	0.239	600.264	7	63	Target	AvoidedLoss	True
601.264	0.3	Lose2	0.6406000000000001	0.004	Yes	2.621	-0.004	2.0	GoodResponse	0	0.239	n/a	7	63	ButtonPress	AvoidedLoss	True
601.293	0.44	Lose2	0.6406000000000001	n/a	Yes	2.621	n/a	n/a	GoodResponse	0	n/a	n/a	7	63	Blank	AvoidedLoss	True
601.727	1.45	Lose2	0.6406000000000001	n/a	Yes	2.621	n/a	5.0	GoodResponse	0	0.048	600.775	7	63	Feedback	AvoidedLoss	True
603.182	2.621	Lose2	0.6406000000000001	n/a	Yes	2.621	n/a	n/a	GoodResponse	0	0.0	n/a	7	63	ISIslide	AvoidedLoss	True
605.823	0.25	Win2	0.6462	0.0	Yes	3.127	0.023	n/a	GoodResponse	1	n/a	n/a	8	64	Cue	Win	True
606.074	4.15	Win2	0.6462	0.0	Yes	3.127	0.001	n/a	GoodResponse	1	n/a	n/a	8	64	Fixation	Win	True
610.22	0.27	Win2	0.6462	0.003	Yes	3.127	-0.003	2.0	GoodResponse	1	0.202	609.422	8	64	Target	Win	True
610.422	0.3	Win2	0.6462	0.003	Yes	3.127	-0.003	2.0	GoodResponse	1	0.202	n/a	8	64	ButtonPress	Win	True
610.504	0.43	Win2	0.6462	n/a	Yes	3.127	n/a	n/a	GoodResponse	1	n/a	n/a	8	64	Blank	Win	True
610.922	1.45	Win2	0.6462	n/a	Yes	3.127	n/a	5.0	GoodResponse	1	0.024	609.946	8	64	Feedback	Win	True
612.376	3.127	Win2	0.6462	n/a	Yes	3.127	n/a	n/a	GoodResponse	1	0.0	n/a	8	64	ISIslide	Win	True
615.519	0.25	Control	0.6364	0.0	No	2.781	0.019	n/a	NoResponse	0	n/a	n/a	8	65	Cue	Neutral	True
615.769	4.0	Control	0.6364	0.001	No	2.781	0.0	n/a	NoResponse	0	n/a	n/a	8	65	Fixation	Neutral	True
619.765	0.28	Control	0.6364	0.004	No	2.781	-0.004	2.0	NoResponse	0	0.312	619.077	8	65	Target	Neutral	True
620.049	0.42	Control	0.6364	n/a	No	2.781	n/a	n/a	NoResponse	0	n/a	n/a	8	65	Blank	Neutral	True
620.077	0.3	Control	0.6364	0.004	No	2.781	-0.004	2.0	NoResponse	0	0.312	n/a	8	65	ButtonPress	Neutral	True
620.467	1.45	Control	0.6364	n/a	No	2.781	n/a	5.0	NoResponse	0	0.04	619.507	8	65	Feedback	Neutral	True
621.921	2.781	Control	0.6364	n/a	No	2.781	n/a	n/a	NoResponse	0	0.0	n/a	8	65	ISIslide	Neutral	True
624.73	0.25	Win2	0.6418	0.0	Yes	2.77	0.03	n/a	GoodResponse	1	n/a	n/a	9	66	Cue	Win	True
624.98	3.9	Win2	0.6418	0.0	Yes	2.77	0.0	n/a	GoodResponse	1	n/a	n/a	9	66	Fixation	Win	True
628.892	0.29	Win2	0.6418	0.0	Yes	2.77	0.012	2.0	GoodResponse	1	0.249	628.141	9	66	Target	Win	True
629.141	0.3	Win2	0.6418	0.0	Yes	2.77	0.012	2.0	GoodResponse	1	0.249	n/a	9	66	ButtonPress	Win	True
629.176	0.41	Win2	0.6418	n/a	Yes	2.77	n/a	n/a	GoodResponse	1	n/a	n/a	9	66	Blank	Win	True
629.577	1.45	Win2	0.6418	n/a	Yes	2.77	n/a	5.0	GoodResponse	1	0.002	628.579	9	66	Feedback	Win	True
631.032	2.77	Win2	0.6418	n/a	Yes	2.77	n/a	n/a	GoodResponse	1	0.0	n/a	9	66	ISIslide	Win	True
633.824	0.25	Control	0.6470999999999999	0.0	Yes	2.726	0.024	n/a	GoodResponse	0	n/a	n/a	9	67	Cue	Neutral	True
634.074	3.95	Control	0.6470999999999999	0.0	Yes	2.726	0.0	n/a	GoodResponse	0	n/a	n/a	9	67	Fixation	Neutral	True
638.019	0.3	Control	0.6470999999999999	0.005	Yes	2.726	-0.005	2.0	GoodResponse	0	0.213	637.232	9	67	Target	Neutral	True
638.232	0.3	Control	0.6470999999999999	0.005	Yes	2.726	-0.005	2.0	GoodResponse	0	0.213	n/a	9	67	ButtonPress	Neutral	True
638.32	0.4	Control	0.6470999999999999	n/a	Yes	2.726	n/a	n/a	GoodResponse	0	n/a	n/a	9	67	Blank	Neutral	True
638.722	1.45	Control	0.6470999999999999	n/a	Yes	2.726	n/a	5.0	GoodResponse	0	0.028	637.75	9	67	Feedback	Neutral	True
640.176	2.726	Control	0.6470999999999999	n/a	Yes	2.726	n/a	n/a	GoodResponse	0	0.0	n/a	9	67	ISIslide	Neutral	True
642.917	0.25	Win2	0.6522	0.001	Yes	3.083	0.017	n/a	GoodResponse	1	n/a	n/a	10	68	Cue	Win	True
643.168	4.0	Win2	0.6522	0.0	Yes	3.083	0.001	n/a	GoodResponse	1	n/a	n/a	10	68	Fixation	Win	True
647.163	0.31	Win2	0.6522	0.004	Yes	3.083	-0.004	2.0	GoodResponse	1	0.227	646.39	10	68	Target	Win	True
647.39	0.3	Win2	0.6522	0.004	Yes	3.083	-0.004	2.0	GoodResponse	1	0.227	n/a	10	68	ButtonPress	Win	True
647.481	0.39	Win2	0.6522	n/a	Yes	3.083	n/a	n/a	GoodResponse	1	n/a	n/a	10	68	Blank	Win	True
647.866	1.45	Win2	0.6522	n/a	Yes	3.083	n/a	5.0	GoodResponse	1	0.006	646.872	10	68	Feedback	Win	True
649.32	3.083	Win2	0.6522	n/a	Yes	3.083	n/a	n/a	GoodResponse	1	0.0	n/a	10	68	ISIslide	Win	True
652.429	0.25	Win2	0.6570999999999999	0.0	Yes	3.221	0.029	n/a	GoodResponse	1	n/a	n/a	11	69	Cue	Win	True
652.68	3.95	Win2	0.6570999999999999	0.0	Yes	3.221	0.001	n/a	GoodResponse	1	n/a	n/a	11	69	Fixation	Win	True
656.625	0.32	Win2	0.6570999999999999	0.004	Yes	3.221	-0.004	2.0	GoodResponse	1	0.273	655.898	11	69	Target	Win	True
656.898	0.3	Win2	0.6570999999999999	0.004	Yes	3.221	-0.004	2.0	GoodResponse	1	0.273	n/a	11	69	ButtonPress	Win	True
656.959	0.38	Win2	0.6570999999999999	n/a	Yes	3.221	n/a	n/a	GoodResponse	1	n/a	n/a	11	69	Blank	Win	True
657.327	1.45	Win2	0.6570999999999999	n/a	Yes	3.221	n/a	5.0	GoodResponse	1	0.008	656.335	11	69	Feedback	Win	True
658.782	3.221	Win2	0.6570999999999999	n/a	Yes	3.221	n/a	n/a	GoodResponse	1	0.0	n/a	11	69	ISIslide	Win	True
662.025	0.25	Lose2	0.6479	0.0	No	3.025	0.025	n/a	NoResponse	-1	n/a	n/a	10	70	Cue	Loss	False
662.275	4.05	Lose2	0.6479	0.0	No	3.025	0.0	2.0	NoResponse	-1	3.974	665.249	10	70	Fixation	Loss	False
666.249	0.3	Lose2	0.6479	0.0	No	3.025	0.0	2.0	NoResponse	-1	3.974	n/a	10	70	ButtonPress	Loss	False
666.321	0.32	Lose2	0.6479	0.004	No	3.025	-0.004	2.0	NoResponse	-1	0.435	665.756	10	70	Target	Loss	False
666.655	0.38	Lose2	0.6479	n/a	No	3.025	n/a	n/a	NoResponse	-1	n/a	n/a	10	70	Blank	Loss	False
666.756	0.3	Lose2	0.6479	0.004	No	3.025	-0.004	2.0	NoResponse	-1	0.435	n/a	10	70	ButtonPress	Loss	False
667.023	1.45	Lose2	0.6479	n/a	No	3.025	n/a	5.0	NoResponse	-1	0.02	666.043	10	70	Feedback	Loss	False
668.477	3.025	Lose2	0.6479	n/a	No	3.025	n/a	n/a	NoResponse	-1	0.0	n/a	10	70	ISIslide	Loss	False
671.52	0.25	Win2	0.6528	0.0	Yes	2.73	0.02	n/a	GoodResponse	1	n/a	n/a	11	71	Cue	Win	True
671.77	4.05	Win2	0.6528	0.001	Yes	2.73	0.0	n/a	GoodResponse	1	n/a	n/a	11	71	Fixation	Win	True
675.816	0.33	Win2	0.6528	0.004	Yes	2.73	-0.004	2.0	GoodResponse	1	0.208	675.024	11	71	Target	Win	True
676.024	0.3	Win2	0.6528	0.004	Yes	2.73	-0.004	2.0	GoodResponse	1	0.208	n/a	11	71	ButtonPress	Win	True
676.15	0.37	Win2	0.6528	n/a	Yes	2.73	n/a	n/a	GoodResponse	1	n/a	n/a	11	71	Blank	Win	True
676.518	1.45	Win2	0.6528	n/a	Yes	2.73	n/a	5.0	GoodResponse	1	0.036	675.554	11	71	Feedback	Win	True
677.972	2.73	Win2	0.6528	n/a	Yes	2.73	n/a	n/a	GoodResponse	1	0.0	n/a	11	71	ISIslide	Win	True
680.731	0.25	Win2	0.6575	0.0	Yes	2.769	0.031	n/a	GoodResponse	1	n/a	n/a	12	72	Cue	Win	True
680.981	4.1	Win2	0.6575	0.0	Yes	2.769	0.0	n/a	GoodResponse	1	n/a	n/a	12	72	Fixation	Win	True
685.077	0.34	Win2	0.6575	0.004	Yes	2.769	-0.004	2.0	GoodResponse	1	0.206	684.283	12	72	Target	Win	True
685.283	0.3	Win2	0.6575	0.004	Yes	2.769	-0.004	2.0	GoodResponse	1	0.206	n/a	12	72	ButtonPress	Win	True
685.428	0.36	Win2	0.6575	n/a	Yes	2.769	n/a	n/a	GoodResponse	1	n/a	n/a	12	72	Blank	Win	True
685.779	1.45	Win2	0.6575	n/a	Yes	2.769	n/a	5.0	GoodResponse	1	0.044	684.823	12	72	Feedback	Win	True
687.233	2.769	Win2	0.6575	n/a	Yes	2.769	n/a	n/a	GoodResponse	1	0.0	n/a	12	72	ISIslide	Win	True
690.025	0.25	Win2	0.6622	0.0	Yes	2.675	0.025	n/a	GoodResponse	1	n/a	n/a	13	73	Cue	Win	True
690.276	4.0	Win2	0.6622	0.0	Yes	2.675	0.001	n/a	GoodResponse	1	n/a	n/a	13	73	Fixation	Win	True
694.271	0.34	Win2	0.6622	0.004	Yes	2.675	-0.004	2.0	GoodResponse	1	0.29	693.561	13	73	Target	Win	True
694.561	0.3	Win2	0.6622	0.004	Yes	2.675	-0.004	2.0	GoodResponse	1	0.29	n/a	13	73	ButtonPress	Win	True
694.622	0.36	Win2	0.6622	n/a	Yes	2.675	n/a	n/a	GoodResponse	1	n/a	n/a	13	73	Blank	Win	True
694.973	1.45	Win2	0.6622	n/a	Yes	2.675	n/a	5.0	GoodResponse	1	0.02	693.993	13	73	Feedback	Win	True
696.428	2.675	Win2	0.6622	n/a	Yes	2.675	n/a	n/a	GoodResponse	1	0.0	n/a	13	73	ISIslide	Win	True
699.119	0.25	Lose2	0.6667000000000001	0.0	Yes	2.631	0.019	n/a	GoodResponse	0	n/a	n/a	13	74	Cue	AvoidedLoss	True
699.37	4.05	Lose2	0.6667000000000001	0.0	Yes	2.631	0.001	n/a	GoodResponse	0	n/a	n/a	13	74	Fixation	AvoidedLoss	True
703.415	0.34	Lose2	0.6667000000000001	0.004	Yes	2.631	-0.004	2.0	GoodResponse	0	0.216	702.631	13	74	Target	AvoidedLoss	True
703.631	0.3	Lose2	0.6667000000000001	0.004	Yes	2.631	-0.004	2.0	GoodResponse	0	0.216	n/a	13	74	ButtonPress	AvoidedLoss	True
703.766	0.36	Lose2	0.6667000000000001	n/a	Yes	2.631	n/a	n/a	GoodResponse	0	n/a	n/a	13	74	Blank	AvoidedLoss	True
704.117	1.45	Lose2	0.6667000000000001	n/a	Yes	2.631	n/a	5.0	GoodResponse	0	0.047	703.164	13	74	Feedback	AvoidedLoss	True
705.572	2.631	Lose2	0.6667000000000001	n/a	Yes	2.631	n/a	n/a	GoodResponse	0	0.0	n/a	13	74	ISIslide	AvoidedLoss	True
708.23	0.25	Lose2	0.6711	0.0	Yes	2.92	0.03	n/a	GoodResponse	0	n/a	n/a	13	75	Cue	AvoidedLoss	True
708.48	3.95	Lose2	0.6711	0.0	Yes	2.92	0.0	n/a	GoodResponse	0	n/a	n/a	13	75	Fixation	AvoidedLoss	True
712.442	0.33	Lose2	0.6711	0.0	Yes	2.92	0.012	2.0	GoodResponse	0	0.227	711.669	13	75	Target	AvoidedLoss	True
712.669	0.3	Lose2	0.6711	0.0	Yes	2.92	0.012	2.0	GoodResponse	0	0.227	n/a	13	75	ButtonPress	AvoidedLoss	True
712.76	0.37	Lose2	0.6711	n/a	Yes	2.92	n/a	n/a	GoodResponse	0	n/a	n/a	13	75	Blank	AvoidedLoss	True
713.128	1.45	Lose2	0.6711	n/a	Yes	2.92	n/a	5.0	GoodResponse	0	0.012	712.14	13	75	Feedback	AvoidedLoss	True
714.582	2.92	Lose2	0.6711	n/a	Yes	2.92	n/a	n/a	GoodResponse	0	0.0	n/a	13	75	ISIslide	AvoidedLoss	True
717.524	0.25	Control	0.6753	0.0	Yes	3.226	0.024	n/a	GoodResponse	0	n/a	n/a	13	76	Cue	Neutral	True
717.775	4.05	Control	0.6753	0.0	Yes	3.226	0.001	n/a	GoodResponse	0	n/a	n/a	13	76	Fixation	Neutral	True
721.82	0.32	Control	0.6753	0.004	Yes	3.226	-0.004	2.0	GoodResponse	0	0.285	721.105	13	76	Target	Neutral	True
722.105	0.3	Control	0.6753	0.004	Yes	3.226	-0.004	2.0	GoodResponse	0	0.285	n/a	13	76	ButtonPress	Neutral	True
722.155	0.38	Control	0.6753	n/a	Yes	3.226	n/a	n/a	GoodResponse	0	n/a	n/a	13	76	Blank	Neutral	True
722.522	1.45	Control	0.6753	n/a	Yes	3.226	n/a	5.0	GoodResponse	0	0.033	721.555	13	76	Feedback	Neutral	True
723.977	3.226	Control	0.6753	n/a	Yes	3.226	n/a	n/a	GoodResponse	0	0.0	n/a	13	76	ISIslide	Neutral	True
727.22	0.25	Lose2	0.6667000000000001	0.0	No	2.58	0.02	n/a	NoResponse	-1	n/a	n/a	12	77	Cue	Loss	True
727.471	3.95	Lose2	0.6667000000000001	0.0	No	2.58	0.001	n/a	NoResponse	-1	n/a	n/a	12	77	Fixation	Loss	True
731.416	0.31	Lose2	0.6667000000000001	0.004	No	2.58	-0.004	2.0	NoResponse	-1	0.324	730.74	12	77	Target	Loss	True
731.733	0.39	Lose2	0.6667000000000001	n/a	No	2.58	n/a	n/a	NoResponse	-1	n/a	n/a	12	77	Blank	Loss	True
731.74	0.3	Lose2	0.6667000000000001	0.004	No	2.58	-0.004	2.0	NoResponse	-1	0.324	n/a	12	77	ButtonPress	Loss	True
732.118	1.45	Lose2	0.6667000000000001	n/a	No	2.58	n/a	5.0	NoResponse	-1	0.046	731.164	12	77	Feedback	Loss	True
733.572	2.58	Lose2	0.6667000000000001	n/a	No	2.58	n/a	n/a	NoResponse	-1	0.0	n/a	12	77	ISIslide	Loss	True
