onset	duration	cue_type	current_mean_accuracy	duration_error	is_hit	isi_adjusted	onset_delay	response	response_type	reward	rt	rt_time	total_reward	trial_number	trial_phase	trial_type	one_press
11.112	0.25	Control	1.0	0.0	Yes	2.938	0.012	n/a	GoodResponse	0	n/a	n/a	0	0	Cue	Neutral	False
11.362	3.85	Control	1.0	0.0	Yes	2.938	0.0	1.0	GoodResponse	0	0.425	10.787	0	0	Fixation	Neutral	False
11.787	0.3	Control	1.0	0.0	Yes	2.938	0.0	1.0	GoodResponse	0	0.425	n/a	0	0	ButtonPress	Neutral	False
15.211	0.4	Control	1.0	0.001	Yes	2.938	-0.001	1.0	GoodResponse	0	0.203	14.414	0	0	Target	Neutral	False
15.414	0.3	Control	1.0	0.001	Yes	2.938	-0.001	1.0	GoodResponse	0	0.203	n/a	0	0	ButtonPress	Neutral	False
15.611	0.3	Control	1.0	n/a	Yes	2.938	n/a	n/a	GoodResponse	0	n/a	n/a	0	0	Blank	Neutral	False
15.911	1.45	Control	1.0	n/a	Yes	2.938	n/a	5.0	GoodResponse	0	0.015	14.926	0	0	Feedback	Neutral	False
17.36	2.938	Control	1.0	n/a	Yes	2.938	n/a	n/a	GoodResponse	0	0.0	n/a	0	0	ISIslide	Neutral	False
20.326	0.25	Lose2	1.0	0.0	Yes	2.774	0.026	n/a	GoodResponse	0	n/a	n/a	0	1	Cue	AvoidedLoss	True
20.576	4.0	Lose2	1.0	0.0	Yes	2.774	0.0	n/a	GoodResponse	0	n/a	n/a	0	1	Fixation	AvoidedLoss	True
24.574	0.39	Lose2	1.0	0.002	Yes	2.774	-0.002	1.0	GoodResponse	0	0.204	23.778	0	1	Target	AvoidedLoss	True
24.778	0.3	Lose2	1.0	0.002	Yes	2.774	-0.002	1.0	GoodResponse	0	0.204	n/a	0	1	ButtonPress	AvoidedLoss	True
24.974	0.31	Lose2	1.0	n/a	Yes	2.774	n/a	n/a	GoodResponse	0	n/a	n/a	0	1	Blank	AvoidedLoss	True
25.274	1.45	Lose2	1.0	n/a	Yes	2.774	n/a	5.0	GoodResponse	0	0.018	24.292	0	1	Feedback	AvoidedLoss	True
26.724	2.774	Lose2	1.0	n/a	Yes	2.774	n/a	n/a	GoodResponse	0	0.0	n/a	0	1	ISIslide	AvoidedLoss	True
29.523	0.25	Control	1.0	0.0	Yes	2.577	0.023	n/a	GoodResponse	0	n/a	n/a	0	2	Cue	Neutral	True
29.772	4.1	Control	1.0	0.001	Yes	2.577	-0.001	n/a	GoodResponse	0	n/a	n/a	0	2	Fixation	Neutral	True
33.871	0.38	Control	1.0	0.002	Yes	2.577	-0.002	1.0	GoodResponse	0	0.24	33.111	0	2	Target	Neutral	True
34.111	0.3	Control	1.0	0.002	Yes	2.577	-0.002	1.0	GoodResponse	0	0.24	n/a	0	2	ButtonPress	Neutral	True
34.254	0.32	Control	1.0	n/a	Yes	2.577	n/a	n/a	GoodResponse	0	n/a	n/a	0	2	Blank	Neutral	True
34.571	1.45	Control	1.0	n/a	Yes	2.577	n/a	5.0	GoodResponse	0	0.038	33.609	0	2	Feedback	Neutral	True
36.02	2.577	Control	1.0	n/a	Yes	2.577	n/a	n/a	GoodResponse	0	0.0	n/a	0	2	ISIslide	Neutral	True
38.619	0.25	Win2	1.0	0.0	Yes	2.831	0.019	n/a	GoodResponse	1	n/a	n/a	1	3	Cue	Win	True
38.869	3.95	Win2	1.0	0.0	Yes	2.831	0.0	n/a	GoodResponse	1	n/a	n/a	1	3	Fixation	Win	True
42.818	0.37	Win2	1.0	0.001	Yes	2.831	-0.001	1.0	GoodResponse	1	0.233	42.051	1	3	Target	Win	True
43.051	0.3	Win2	1.0	0.001	Yes	2.831	-0.001	1.0	GoodResponse	1	0.233	n/a	1	3	ButtonPress	Win	True
43.184	0.33	Win2	1.0	n/a	Yes	2.831	n/a	n/a	GoodResponse	1	n/a	n/a	1	3	Blank	Win	True
43.518	1.45	Win2	1.0	n/a	Yes	2.831	n/a	5.0	GoodResponse	1	0.018	42.536	1	3	Feedback	Win	True
44.967	2.831	Win2	1.0	n/a	Yes	2.831	n/a	n/a	GoodResponse	1	0.0	n/a	1	3	ISIslide	Win	True
47.816	0.25	Win2	1.0	0.0	Yes	3.284	0.016	n/a	GoodResponse	1	n/a	n/a	2	4	Cue	Win	True
48.066	4.0	Win2	1.0	0.0	Yes	3.284	0.0	n/a	GoodResponse	1	n/a	n/a	2	4	Fixation	Win	True
52.065	0.36	Win2	1.0	0.001	Yes	3.284	-0.001	1.0	GoodResponse	1	0.204	51.269	2	4	Target	Win	True
52.269	0.3	Win2	1.0	0.001	Yes	3.284	-0.001	1.0	GoodResponse	1	0.204	n/a	2	4	ButtonPress	Win	True
52.431	0.34	Win2	1.0	n/a	Yes	3.284	n/a	n/a	GoodResponse	1	n/a	n/a	2	4	Blank	Win	True
52.764	1.45	Win2	1.0	n/a	Yes	3.284	n/a	5.0	GoodResponse	1	0.04	51.804	2	4	Feedback	Win	True
54.214	3.284	Win2	1.0	n/a	Yes	3.284	n/a	n/a	GoodResponse	1	0.0	n/a	2	4	ISIslide	Win	True
57.529	0.25	Win2	0.8332999999999999	0.001	No	2.771	0.029	n/a	NoResponse	0	n/a	n/a	2	5	Cue	MissedWin	True
57.779	4.0	Win2	0.8332999999999999	0.0	No	2.771	0.0	n/a	NoResponse	0	n/a	n/a	2	5	Fixation	MissedWin	True
61.778	0.35	Win2	0.8332999999999999	0.001	No	2.771	-0.001	1.0	NoResponse	0	0.363	61.141	2	5	Target	MissedWin	True
62.128	0.35	Win2	0.8332999999999999	n/a	No	2.771	n/a	n/a	NoResponse	0	n/a	n/a	2	5	Blank	MissedWin	True
62.141	0.3	Win2	0.8332999999999999	0.001	No	2.771	-0.001	1.0	NoResponse	0	0.363	n/a	2	5	ButtonPress	MissedWin	True
62.478	1.45	Win2	0.8332999999999999	n/a	No	2.771	n/a	5.0	NoResponse	0	0.033	61.511	2	5	Feedback	MissedWin	True
63.927	2.771	Win2	0.8332999999999999	n/a	No	2.771	n/a	n/a	NoResponse	0	0.0	n/a	2	5	ISIslide	MissedWin	True
66.726	0.25	Lose2	0.8571	0.0	Yes	2.724	0.026	n/a	GoodResponse	0	n/a	n/a	2	6	Cue	AvoidedLoss	True
66.976	3.95	Lose2	0.8571	0.0	Yes	2.724	0.0	n/a	GoodResponse	0	n/a	n/a	2	6	Fixation	AvoidedLoss	True
70.925	0.34	Lose2	0.8571	0.001	Yes	2.724	-0.001	1.0	GoodResponse	0	0.301	70.226	2	6	Target	AvoidedLoss	True
71.226	0.3	Lose2	0.8571	0.001	Yes	2.724	-0.001	1.0	GoodResponse	0	0.301	n/a	2	6	ButtonPress	AvoidedLoss	True
71.275	0.36	Lose2	0.8571	n/a	Yes	2.724	n/a	n/a	GoodResponse	0	n/a	n/a	2	6	Blank	AvoidedLoss	True
71.625	1.45	Lose2	0.8571	n/a	Yes	2.724	n/a	5.0	GoodResponse	0	0.008	70.633	2	6	Feedback	AvoidedLoss	True
73.074	2.724	Lose2	0.8571	n/a	Yes	2.724	n/a	n/a	GoodResponse	0	0.0	n/a	2	6	ISIslide	AvoidedLoss	True
75.823	0.25	Lose2	0.875	0.0	Yes	4.027	0.023	n/a	GoodResponse	0	n/a	n/a	2	7	Cue	AvoidedLoss	True
76.073	4.05	Lose2	0.875	0.0	Yes	4.027	0.0	n/a	GoodResponse	0	n/a	n/a	2	7	Fixation	AvoidedLoss	True
80.122	0.33	Lose2	0.875	0.001	Yes	4.027	-0.001	1.0	GoodResponse	0	0.209	79.331	2	7	Target	AvoidedLoss	True
80.331	0.3	Lose2	0.875	0.001	Yes	4.027	-0.001	1.0	GoodResponse	0	0.209	n/a	2	7	ButtonPress	AvoidedLoss	True
80.455	0.37	Lose2	0.875	n/a	Yes	4.027	n/a	n/a	GoodResponse	0	n/a	n/a	2	7	Blank	AvoidedLoss	True
80.821	1.45	Lose2	0.875	n/a	Yes	4.027	n/a	5.0	GoodResponse	0	0.031	79.852	2	7	Feedback	AvoidedLoss	True
82.271	4.027	Lose2	0.875	n/a	Yes	4.027	n/a	n/a	GoodResponse	0	0.0	n/a	2	7	ISIslide	AvoidedLoss	True
86.319	0.25	Lose2	0.8889	0.001	Yes	3.031	0.019	n/a	GoodResponse	0	n/a	n/a	2	8	Cue	AvoidedLoss	True
86.569	3.95	Lose2	0.8889	0.0	Yes	3.031	0.0	n/a	GoodResponse	0	n/a	n/a	2	8	Fixation	AvoidedLoss	True
90.518	0.32	Lose2	0.8889	0.001	Yes	3.031	-0.001	1.0	GoodResponse	0	0.249	89.767	2	8	Target	AvoidedLoss	True
90.767	0.3	Lose2	0.8889	0.001	Yes	3.031	-0.001	1.0	GoodResponse	0	0.249	n/a	2	8	ButtonPress	AvoidedLoss	True
90.835	0.38	Lose2	0.8889	n/a	Yes	3.031	n/a	n/a	GoodResponse	0	n/a	n/a	2	8	Blank	AvoidedLoss	True
91.218	1.45	Lose2	0.8889	n/a	Yes	3.031	n/a	5.0	GoodResponse	0	0.025	90.243	2	8	Feedback	AvoidedLoss	True
92.667	3.031	Lose2	0.8889	n/a	Yes	3.031	n/a	n/a	GoodResponse	0	0.0	n/a	2	8	ISIslide	AvoidedLoss	True
95.716	0.25	Lose2	0.8	0.0	No	3.134	0.016	n/a	NoResponse	-1	n/a	n/a	1	9	Cue	Loss	True
95.966	3.95	Lose2	0.8	0.0	No	3.134	0.0	n/a	NoResponse	-1	n/a	n/a	1	9	Fixation	Loss	True
99.915	0.31	Lose2	0.8	0.001	No	3.134	-0.001	1.0	NoResponse	-1	0.389	99.304	1	9	Target	Loss	True
100.231	0.39	Lose2	0.8	n/a	No	3.134	n/a	n/a	NoResponse	-1	n/a	n/a	1	9	Blank	Loss	True
100.304	0.3	Lose2	0.8	0.001	No	3.134	-0.001	1.0	NoResponse	-1	0.389	n/a	1	9	ButtonPress	Loss	True
100.614	1.45	Lose2	0.8	n/a	No	3.134	n/a	5.0	NoResponse	-1	0.001	99.615	1	9	Feedback	Loss	True
102.064	3.134	Lose2	0.8	n/a	No	3.134	n/a	n/a	NoResponse	-1	0.0	n/a	1	9	ISIslide	Loss	True
105.213	0.25	Control	0.8181999999999999	0.0	Yes	3.287	0.013	n/a	GoodResponse	0	n/a	n/a	1	10	Cue	Neutral	True
105.463	4.0	Control	0.8181999999999999	0.0	Yes	3.287	0.0	n/a	GoodResponse	0	n/a	n/a	1	10	Fixation	Neutral	True
109.461	0.3	Control	0.8181999999999999	0.002	Yes	3.287	-0.002	1.0	GoodResponse	0	0.235	108.696	1	10	Target	Neutral	True
109.696	0.3	Control	0.8181999999999999	0.002	Yes	3.287	-0.002	1.0	GoodResponse	0	0.235	n/a	1	10	ButtonPress	Neutral	True
109.761	0.4	Control	0.8181999999999999	n/a	Yes	3.287	n/a	n/a	GoodResponse	0	n/a	n/a	1	10	Blank	Neutral	True
110.161	1.45	Control	0.8181999999999999	n/a	Yes	3.287	n/a	5.0	GoodResponse	0	0.008	109.169	1	10	Feedback	Neutral	True
111.611	3.287	Control	0.8181999999999999	n/a	Yes	3.287	n/a	n/a	GoodResponse	0	0.0	n/a	1	10	ISIslide	Neutral	True
114.926	0.25	Lose2	0.8332999999999999	0.0	Yes	2.724	0.026	n/a	GoodResponse	0	n/a	n/a	1	11	Cue	AvoidedLoss	True
115.176	4.05	Lose2	0.8332999999999999	0.0	Yes	2.724	0.0	n/a	GoodResponse	0	n/a	n/a	1	11	Fixation	AvoidedLoss	True
119.225	0.29	Lose2	0.8332999999999999	0.001	Yes	2.724	-0.001	1.0	GoodResponse	0	0.185	118.41	1	11	Target	AvoidedLoss	True
119.41	0.3	Lose2	0.8332999999999999	0.001	Yes	2.724	-0.001	1.0	GoodResponse	0	0.185	n/a	1	11	ButtonPress	AvoidedLoss	True
119.524	0.41	Lose2	0.8332999999999999	n/a	Yes	2.724	n/a	n/a	GoodResponse	0	n/a	n/a	1	11	Blank	AvoidedLoss	True
119.924	1.45	Lose2	0.8332999999999999	n/a	Yes	2.724	n/a	5.0	GoodResponse	0	0.001	118.925	1	11	Feedback	AvoidedLoss	True
121.374	2.724	Lose2	0.8332999999999999	n/a	Yes	2.724	n/a	n/a	GoodResponse	0	0.0	n/a	1	11	ISIslide	AvoidedLoss	True
124.123	0.25	Control	0.8462000000000001	0.0	Yes	2.977	0.023	n/a	GoodResponse	0	n/a	n/a	1	12	Cue	Neutral	True
124.373	3.9	Control	0.8462000000000001	0.0	Yes	2.977	0.0	n/a	GoodResponse	0	n/a	n/a	1	12	Fixation	Neutral	True
128.271	0.28	Control	0.8462000000000001	0.002	Yes	2.977	-0.002	1.0	GoodResponse	0	0.203	127.474	1	12	Target	Neutral	True
128.474	0.3	Control	0.8462000000000001	0.002	Yes	2.977	-0.002	1.0	GoodResponse	0	0.203	n/a	1	12	ButtonPress	Neutral	True
128.555	0.42	Control	0.8462000000000001	n/a	Yes	2.977	n/a	n/a	GoodResponse	0	n/a	n/a	1	12	Blank	Neutral	True
128.971	1.45	Control	0.8462000000000001	n/a	Yes	2.977	n/a	5.0	GoodResponse	0	0.027	127.998	1	12	Feedback	Neutral	True
130.421	2.977	Control	0.8462000000000001	n/a	Yes	2.977	n/a	n/a	GoodResponse	0	0.0	n/a	1	12	ISIslide	Neutral	True
133.42	0.25	Control	0.7857	0.0	No	2.78	0.02	n/a	NoResponse	0	n/a	n/a	1	13	Cue	Neutral	True
133.67	4.0	Control	0.7857	0.0	No	2.78	0.0	n/a	NoResponse	0	n/a	n/a	1	13	Fixation	Neutral	True
137.668	0.27	Control	0.7857	0.002	No	2.78	-0.002	1.0	NoResponse	0	0.487	137.155	1	13	Target	Neutral	True
137.951	0.43	Control	0.7857	n/a	No	2.78	n/a	n/a	NoResponse	0	n/a	n/a	1	13	Blank	Neutral	True
138.155	0.3	Control	0.7857	0.002	No	2.78	-0.002	1.0	NoResponse	0	0.487	n/a	1	13	ButtonPress	Neutral	True
138.368	1.45	Control	0.7857	n/a	No	2.78	n/a	5.0	NoResponse	0	0.0	137.368	1	13	Feedback	Neutral	True
139.817	2.78	Control	0.7857	n/a	No	2.78	n/a	n/a	NoResponse	0	0.0	n/a	1	13	ISIslide	Neutral	True
142.616	0.25	Win2	0.8	0.001	Yes	2.684	0.016	n/a	GoodResponse	1	n/a	n/a	2	14	Cue	Win	True
142.866	4.1	Win2	0.8	0.0	Yes	2.684	0.0	n/a	GoodResponse	1	n/a	n/a	2	14	Fixation	Win	True
146.965	0.26	Win2	0.8	0.001	Yes	2.684	-0.001	1.0	GoodResponse	1	0.191	146.156	2	14	Target	Win	True
147.156	0.3	Win2	0.8	0.001	Yes	2.684	-0.001	1.0	GoodResponse	1	0.191	n/a	2	14	ButtonPress	Win	True
147.232	0.44	Win2	0.8	n/a	Yes	2.684	n/a	n/a	GoodResponse	1	n/a	n/a	2	14	Blank	Win	True
147.665	1.45	Win2	0.8	n/a	Yes	2.684	n/a	5.0	GoodResponse	1	0.017	146.682	2	14	Feedback	Win	True
149.114	2.684	Win2	0.8	n/a	Yes	2.684	n/a	n/a	GoodResponse	1	0.0	n/a	2	14	ISIslide	Win	True
151.813	0.25	Control	0.8125	0.0	Yes	2.987	0.013	n/a	GoodResponse	0	n/a	n/a	2	15	Cue	Neutral	True
152.063	4.0	Control	0.8125	0.0	Yes	2.987	0.0	n/a	GoodResponse	0	n/a	n/a	2	15	Fixation	Neutral	True
156.062	0.25	Control	0.8125	0.001	Yes	2.987	-0.001	1.0	GoodResponse	0	0.242	155.304	2	15	Target	Neutral	True
156.304	0.3	Control	0.8125	0.001	Yes	2.987	-0.001	1.0	GoodResponse	0	0.242	n/a	2	15	ButtonPress	Neutral	True
156.312	0.45	Control	0.8125	n/a	Yes	2.987	n/a	n/a	GoodResponse	0	n/a	n/a	2	15	Blank	Neutral	True
156.762	1.45	Control	0.8125	n/a	Yes	2.987	n/a	5.0	GoodResponse	0	0.042	155.804	2	15	Feedback	Neutral	True
158.211	2.987	Control	0.8125	n/a	Yes	2.987	n/a	n/a	GoodResponse	0	0.0	n/a	2	15	ISIslide	Neutral	True
161.227	0.25	Win2	0.8234999999999999	0.0	Yes	2.873	0.027	n/a	GoodResponse	1	n/a	n/a	3	16	Cue	Win	True
161.477	4.0	Win2	0.8234999999999999	0.0	Yes	2.873	0.0	n/a	GoodResponse	1	n/a	n/a	3	16	Fixation	Win	True
165.475	0.24	Win2	0.8234999999999999	0.002	Yes	2.873	-0.002	1.0	GoodResponse	1	0.161	164.636	3	16	Target	Win	True
165.636	0.3	Win2	0.8234999999999999	0.002	Yes	2.873	-0.002	1.0	GoodResponse	1	0.161	n/a	3	16	ButtonPress	Win	True
165.725	0.46	Win2	0.8234999999999999	n/a	Yes	2.873	n/a	n/a	GoodResponse	1	n/a	n/a	3	16	Blank	Win	True
166.175	1.45	Win2	0.8234999999999999	n/a	Yes	2.873	n/a	5.0	GoodResponse	1	0.042	165.217	3	16	Feedback	Win	True
167.624	2.873	Win2	0.8234999999999999	n/a	Yes	2.873	n/a	n/a	GoodResponse	1	0.0	n/a	3	16	ISIslide	Win	True
170.523	0.25	Lose2	0.8332999999999999	0.0	Yes	2.727	0.023	n/a	GoodResponse	0	n/a	n/a	3	17	Cue	AvoidedLoss	True
170.773	3.95	Lose2	0.8332999999999999	0.0	Yes	2.727	0.0	n/a	GoodResponse	0	n/a	n/a	3	17	Fixation	AvoidedLoss	True
174.722	0.23	Lose2	0.8332999999999999	0.001	Yes	2.727	-0.001	1.0	GoodResponse	0	0.19	173.912	3	17	Target	AvoidedLoss	True
174.912	0.3	Lose2	0.8332999999999999	0.001	Yes	2.727	-0.001	1.0	GoodResponse	0	0.19	n/a	3	17	ButtonPress	AvoidedLoss	True
174.955	0.47	Lose2	0.8332999999999999	n/a	Yes	2.727	n/a	n/a	GoodResponse	0	n/a	n/a	3	17	Blank	AvoidedLoss	True
175.422	1.45	Lose2	0.8332999999999999	n/a	Yes	2.727	n/a	5.0	GoodResponse	0	0.015	174.437	3	17	Feedback	AvoidedLoss	True
176.871	2.727	Lose2	0.8332999999999999	n/a	Yes	2.727	n/a	n/a	GoodResponse	0	0.0	n/a	3	17	ISIslide	AvoidedLoss	True
179.62	0.25	Lose2	0.8421	0.0	Yes	2.73	0.02	n/a	GoodResponse	0	n/a	n/a	3	18	Cue	AvoidedLoss	True
179.87	4.05	Lose2	0.8421	0.0	Yes	2.73	0.0	n/a	GoodResponse	0	n/a	n/a	3	18	Fixation	AvoidedLoss	True
183.919	0.22	Lose2	0.8421	0.001	Yes	2.73	-0.001	1.0	GoodResponse	0	0.208	183.127	3	18	Target	AvoidedLoss	True
184.127	0.3	Lose2	0.8421	0.001	Yes	2.73	-0.001	1.0	GoodResponse	0	0.208	n/a	3	18	ButtonPress	AvoidedLoss	True
184.135	0.48	Lose2	0.8421	n/a	Yes	2.73	n/a	n/a	GoodResponse	0	n/a	n/a	3	18	Blank	AvoidedLoss	True
184.618	1.45	Lose2	0.8421	n/a	Yes	2.73	n/a	5.0	GoodResponse	0	0.039	183.657	3	18	Feedback	AvoidedLoss	True
186.068	2.73	Lose2	0.8421	n/a	Yes	2.73	n/a	n/a	GoodResponse	0	0.0	n/a	3	18	ISIslide	AvoidedLoss	True
188.817	0.25	Control	0.8	0.0	No	2.933	0.017	n/a	NoResponse	0	n/a	n/a	3	19	Cue	Neutral	True
189.067	3.95	Control	0.8	0.0	No	2.933	0.0	n/a	NoResponse	0	n/a	n/a	3	19	Fixation	Neutral	True
193.016	0.21	Control	0.8	0.001	No	2.933	-0.001	1.0	NoResponse	0	0.238	192.254	3	19	Target	Neutral	True
193.232	0.49	Control	0.8	n/a	No	2.933	n/a	n/a	NoResponse	0	n/a	n/a	3	19	Blank	Neutral	True
193.254	0.3	Control	0.8	0.001	No	2.933	-0.001	1.0	NoResponse	0	0.238	n/a	3	19	ButtonPress	Neutral	True
193.715	1.45	Control	0.8	n/a	No	2.933	n/a	5.0	NoResponse	0	0.015	192.73	3	19	Feedback	Neutral	True
195.165	2.933	Control	0.8	n/a	No	2.933	n/a	n/a	NoResponse	0	0.0	n/a	3	19	ISIslide	Neutral	True
198.114	0.25	Control	0.8095	0.0	Yes	2.636	0.014	n/a	GoodResponse	0	n/a	n/a	3	20	Cue	Neutral	True
198.364	4.05	Control	0.8095	0.0	Yes	2.636	0.0	n/a	GoodResponse	0	n/a	n/a	3	20	Fixation	Neutral	True
202.412	0.2	Control	0.8095	0.002	Yes	2.636	-0.002	1.0	GoodResponse	0	0.197	201.609	3	20	Target	Neutral	True
202.609	0.3	Control	0.8095	0.002	Yes	2.636	-0.002	1.0	GoodResponse	0	0.197	n/a	3	20	ButtonPress	Neutral	True
202.612	0.5	Control	0.8095	n/a	Yes	2.636	n/a	n/a	GoodResponse	0	n/a	n/a	3	20	Blank	Neutral	True
203.112	1.45	Control	0.8095	n/a	Yes	2.636	n/a	5.0	GoodResponse	0	0.033	202.145	3	20	Feedback	Neutral	True
204.562	2.636	Control	0.8095	n/a	Yes	2.636	n/a	n/a	GoodResponse	0	0.0	n/a	3	20	ISIslide	Neutral	True
207.227	0.25	Control	0.8181999999999999	0.0	Yes	2.773	0.027	n/a	GoodResponse	0	n/a	n/a	3	21	Cue	Neutral	True
207.477	4.1	Control	0.8181999999999999	0.0	Yes	2.773	0.0	n/a	GoodResponse	0	n/a	n/a	3	21	Fixation	Neutral	True
211.576	0.19	Control	0.8181999999999999	0.001	Yes	2.773	-0.001	1.0	GoodResponse	0	0.185	210.761	3	21	Target	Neutral	True
211.761	0.3	Control	0.8181999999999999	0.001	Yes	2.773	-0.001	1.0	GoodResponse	0	0.185	n/a	3	21	ButtonPress	Neutral	True
211.776	0.51	Control	0.8181999999999999	n/a	Yes	2.773	n/a	n/a	GoodResponse	0	n/a	n/a	3	21	Blank	Neutral	True
212.275	1.45	Control	0.8181999999999999	n/a	Yes	2.773	n/a	5.0	GoodResponse	0	0.04	211.315	3	21	Feedback	Neutral	True
213.725	2.773	Control	0.8181999999999999	n/a	Yes	2.773	n/a	n/a	GoodResponse	0	0.0	n/a	3	21	ISIslide	Neutral	True
216.524	0.25	Control	0.7826000000000001	0.0	No	2.776	0.024	n/a	NoResponse	0	n/a	n/a	3	22	Cue	Neutral	True
216.774	4.0	Control	0.7826000000000001	0.0	No	2.776	0.0	n/a	NoResponse	0	n/a	n/a	3	22	Fixation	Neutral	True
220.773	0.18	Control	0.7826000000000001	0.001	No	2.776	-0.001	1.0	NoResponse	0	0.306	220.079	3	22	Target	Neutral	True
220.956	0.52	Control	0.7826000000000001	n/a	No	2.776	n/a	n/a	NoResponse	0	n/a	n/a	3	22	Blank	Neutral	True
221.079	0.3	Control	0.7826000000000001	0.001	No	2.776	-0.001	1.0	NoResponse	0	0.306	n/a	3	22	ButtonPress	Neutral	True
221.472	1.45	Control	0.7826000000000001	n/a	No	2.776	n/a	5.0	NoResponse	0	0.013	220.485	3	22	Feedback	Neutral	True
222.922	2.776	Control	0.7826000000000001	n/a	No	2.776	n/a	n/a	NoResponse	0	0.0	n/a	3	22	ISIslide	Neutral	True
225.721	0.25	Control	0.75	0.0	No	2.779	0.021	n/a	NoResponse	0	n/a	n/a	3	23	Cue	Neutral	True
225.971	3.9	Control	0.75	0.0	No	2.779	0.0	n/a	NoResponse	0	n/a	n/a	3	23	Fixation	Neutral	True
229.869	0.17	Control	0.75	0.002	No	2.779	-0.002	1.0	NoResponse	0	0.22	229.089	3	23	Target	Neutral	True
230.053	0.53	Control	0.75	n/a	No	2.779	n/a	n/a	NoResponse	0	n/a	n/a	3	23	Blank	Neutral	True
230.089	0.3	Control	0.75	0.002	No	2.779	-0.002	1.0	NoResponse	0	0.22	n/a	3	23	ButtonPress	Neutral	True
230.569	1.45	Control	0.75	n/a	No	2.779	n/a	5.0	NoResponse	0	0.038	229.607	3	23	Feedback	Neutral	True
232.019	2.779	Control	0.75	n/a	No	2.779	n/a	n/a	NoResponse	0	0.0	n/a	3	23	ISIslide	Neutral	True
234.818	0.25	Win2	0.72	0.0	No	3.132	0.018	n/a	NoResponse	0	n/a	n/a	3	24	Cue	MissedWin	True
235.068	3.95	Win2	0.72	0.0	No	3.132	0.0	n/a	NoResponse	0	n/a	n/a	3	24	Fixation	MissedWin	True
239.016	0.16	Win2	0.72	0.002	No	3.132	-0.002	1.0	NoResponse	0	0.192	238.208	3	24	Target	MissedWin	True
239.183	0.54	Win2	0.72	n/a	No	3.132	n/a	n/a	NoResponse	0	n/a	n/a	3	24	Blank	MissedWin	True
239.208	0.3	Win2	0.72	0.002	No	3.132	-0.002	1.0	NoResponse	0	0.192	n/a	3	24	ButtonPress	MissedWin	True
239.716	1.45	Win2	0.72	n/a	No	3.132	n/a	5.0	NoResponse	0	0.013	238.729	3	24	Feedback	MissedWin	True
241.165	3.132	Win2	0.72	n/a	No	3.132	n/a	n/a	NoResponse	0	0.0	n/a	3	24	ISIslide	MissedWin	True
244.331	0.25	Win2	0.6923	0.0	No	3.069	0.031	n/a	NoResponse	0	n/a	n/a	3	25	Cue	MissedWin	True
244.581	4.0	Win2	0.6923	0.0	No	3.069	0.0	n/a	NoResponse	0	n/a	n/a	3	25	Fixation	MissedWin	True
248.579	0.15	Win2	0.6923	0.002	No	3.069	-0.002	1.0	NoResponse	0	0.178	247.757	3	25	Target	MissedWin	True
248.729	0.55	Win2	0.6923	n/a	No	3.069	n/a	n/a	NoResponse	0	n/a	n/a	3	25	Blank	MissedWin	True
248.757	0.3	Win2	0.6923	0.002	No	3.069	-0.002	1.0	NoResponse	0	0.178	n/a	3	25	ButtonPress	MissedWin	True
249.279	1.45	Win2	0.6923	n/a	No	3.069	n/a	5.0	NoResponse	0	0.012	248.291	3	25	Feedback	MissedWin	True
250.729	3.069	Win2	0.6923	n/a	No	3.069	n/a	n/a	NoResponse	0	0.0	n/a	3	25	ISIslide	MissedWin	True
253.828	0.25	Win2	0.6667000000000001	0.0	No	2.922	0.028	n/a	NoResponse	0	n/a	n/a	3	26	Cue	MissedWin	True
254.078	3.95	Win2	0.6667000000000001	0.0	No	2.922	0.0	n/a	NoResponse	0	n/a	n/a	3	26	Fixation	MissedWin	True
258.026	0.15	Win2	0.6667000000000001	0.002	No	2.922	-0.002	1.0	NoResponse	0	0.183	257.209	3	26	Target	MissedWin	True
258.176	0.55	Win2	0.6667000000000001	n/a	No	2.922	n/a	n/a	NoResponse	0	n/a	n/a	3	26	Blank	MissedWin	True
258.209	0.3	Win2	0.6667000000000001	0.002	No	2.922	-0.002	1.0	NoResponse	0	0.183	n/a	3	26	ButtonPress	MissedWin	True
258.726	1.45	Win2	0.6667000000000001	n/a	No	2.922	n/a	5.0	NoResponse	0	0.028	257.754	3	26	Feedback	MissedWin	True
260.175	2.922	Win2	0.6667000000000001	n/a	No	2.922	n/a	n/a	NoResponse	0	0.0	n/a	3	26	ISIslide	MissedWin	True
263.124	0.25	Lose2	0.6429	0.0	No	2.826	0.024	n/a	NoResponse	-1	n/a	n/a	2	27	Cue	Loss	True
263.374	4.05	Lose2	0.6429	0.0	No	2.826	0.0	n/a	NoResponse	-1	n/a	n/a	2	27	Fixation	Loss	True
267.423	0.15	Lose2	0.6429	0.001	No	2.826	-0.001	1.0	NoResponse	-1	0.178	266.601	2	27	Target	Loss	True
267.573	0.55	Lose2	0.6429	n/a	No	2.826	n/a	n/a	NoResponse	-1	n/a	n/a	2	27	Blank	Loss	True
267.601	0.3	Lose2	0.6429	0.001	No	2.826	-0.001	1.0	NoResponse	-1	0.178	n/a	2	27	ButtonPress	Loss	True
268.123	1.45	Lose2	0.6429	n/a	No	2.826	n/a	5.0	NoResponse	-1	0.045	267.168	2	27	Feedback	Loss	True
269.572	2.826	Lose2	0.6429	n/a	No	2.826	n/a	n/a	NoResponse	-1	0.0	n/a	2	27	ISIslide	Loss	True
272.421	0.25	Control	0.6207	0.0	No	2.829	0.021	n/a	NoResponse	0	n/a	n/a	2	28	Cue	Neutral	True
272.671	4.05	Control	0.6207	0.0	No	2.829	0.0	n/a	NoResponse	0	n/a	n/a	2	28	Fixation	Neutral	True
276.72	0.16	Control	0.6207	0.001	No	2.829	-0.001	1.0	NoResponse	0	0.242	275.962	2	28	Target	Neutral	True
276.886	0.54	Control	0.6207	n/a	No	2.829	n/a	n/a	NoResponse	0	n/a	n/a	2	28	Blank	Neutral	True
276.962	0.3	Control	0.6207	0.001	No	2.829	-0.001	1.0	NoResponse	0	0.242	n/a	2	28	ButtonPress	Neutral	True
277.419	1.45	Control	0.6207	n/a	No	2.829	n/a	5.0	NoResponse	0	0.017	276.436	2	28	Feedback	Neutral	True
278.869	2.829	Control	0.6207	n/a	No	2.829	n/a	n/a	NoResponse	0	0.0	n/a	2	28	ISIslide	Neutral	True
281.718	0.25	Lose2	0.6	0.0	No	2.832	0.018	n/a	NoResponse	-1	n/a	n/a	1	29	Cue	Loss	True
281.968	3.95	Lose2	0.6	0.0	No	2.832	0.0	1.0	NoResponse	-1	3.733	284.701	1	29	Fixation	Loss	True
285.701	0.3	Lose2	0.6	0.0	No	2.832	0.0	1.0	NoResponse	-1	3.733	n/a	1	29	ButtonPress	Loss	True
285.916	0.17	Lose2	0.6	0.002	No	2.832	-0.002	n/a	NoResponse	-1	n/a	n/a	1	29	Target	Loss	True
286.1	0.53	Lose2	0.6	n/a	No	2.832	n/a	n/a	NoResponse	-1	n/a	n/a	1	29	Blank	Loss	True
286.616	1.45	Lose2	0.6	n/a	No	2.832	n/a	5.0	NoResponse	-1	0.04	285.656	1	29	Feedback	Loss	True
288.066	2.832	Lose2	0.6	n/a	No	2.832	n/a	n/a	NoResponse	-1	0.0	n/a	1	29	ISIslide	Loss	True
290.915	0.25	Win2	0.5806	0.0	No	2.785	0.015	n/a	NoResponse	0	n/a	n/a	1	30	Cue	MissedWin	True
291.165	3.9	Win2	0.5806	0.0	No	2.785	0.0	n/a	NoResponse	0	n/a	n/a	1	30	Fixation	MissedWin	True
295.063	0.18	Win2	0.5806	0.002	No	2.785	-0.002	1.0	NoResponse	0	0.191	294.254	1	30	Target	MissedWin	True
295.247	0.52	Win2	0.5806	n/a	No	2.785	n/a	n/a	NoResponse	0	n/a	n/a	1	30	Blank	MissedWin	True
295.254	0.3	Win2	0.5806	0.002	No	2.785	-0.002	1.0	NoResponse	0	0.191	n/a	1	30	ButtonPress	MissedWin	True
295.763	1.45	Win2	0.5806	n/a	No	2.785	n/a	5.0	NoResponse	0	0.015	294.778	1	30	Feedback	MissedWin	True
297.213	2.785	Win2	0.5806	n/a	No	2.785	n/a	n/a	NoResponse	0	0.0	n/a	1	30	ISIslide	MissedWin	True
300.028	0.25	Lose2	0.5625	0.0	No	2.822	0.028	n/a	NoResponse	-1	n/a	n/a	0	31	Cue	Loss	True
300.278	4.05	Lose2	0.5625	0.0	No	2.822	0.0	n/a	NoResponse	-1	n/a	n/a	0	31	Fixation	Loss	True
304.327	0.19	Lose2	0.5625	0.001	No	2.822	-0.001	1.0	NoResponse	-1	0.224	303.551	0	31	Target	Loss	True
304.527	0.51	Lose2	0.5625	n/a	No	2.822	n/a	n/a	NoResponse	-1	n/a	n/a	0	31	Blank	Loss	True
304.551	0.3	Lose2	0.5625	0.001	No	2.822	-0.001	1.0	NoResponse	-1	0.224	n/a	0	31	ButtonPress	Loss	True
305.026	1.45	Lose2	0.5625	n/a	No	2.822	n/a	5.0	NoResponse	-1	0.02	304.046	0	31	Feedback	Loss	True
306.476	2.822	Lose2	0.5625	n/a	No	2.822	n/a	n/a	NoResponse	-1	0.0	n/a	0	31	ISIslide	Loss	True
309.325	0.25	Lose2	0.5455	0.0	No	2.625	0.025	n/a	LatePress	-1	n/a	n/a	-1	32	Cue	Loss	True
309.575	4.15	Lose2	0.5455	0.0	No	2.625	0.0	n/a	LatePress	-1	n/a	n/a	-1	32	Fixation	Loss	True
313.723	0.2	Lose2	0.5455	0.002	No	2.625	-0.002	1.0	LatePress	-1	0.201	312.924	-1	32	Target	Loss	True
313.923	0.5	Lose2	0.5455	n/a	No	2.625	n/a	n/a	LatePress	-1	n/a	n/a	-1	32	Blank	Loss	True
313.924	0.3	Lose2	0.5455	0.002	No	2.625	-0.002	1.0	LatePress	-1	0.201	n/a	-1	32	ButtonPress	Loss	True
314.423	1.45	Lose2	0.5455	n/a	No	2.625	n/a	5.0	LatePress	-1	0.037	313.46	-1	32	Feedback	Loss	True
315.873	2.625	Lose2	0.5455	n/a	No	2.625	n/a	n/a	LatePress	-1	0.0	n/a	-1	32	ISIslide	Loss	True
318.522	0.25	Win2	0.5588000000000001	0.0	Yes	2.678	0.022	n/a	GoodResponse	1	n/a	n/a	0	33	Cue	Win	True
318.772	4.0	Win2	0.5588000000000001	0.0	Yes	2.678	0.0	n/a	GoodResponse	1	n/a	n/a	0	33	Fixation	Win	True
322.77	0.21	Win2	0.5588000000000001	0.002	Yes	2.678	-0.002	1.0	GoodResponse	1	0.189	321.959	0	33	Target	Win	True
322.959	0.3	Win2	0.5588000000000001	0.002	Yes	2.678	-0.002	1.0	GoodResponse	1	0.189	n/a	0	33	ButtonPress	Win	True
322.987	0.49	Win2	0.5588000000000001	n/a	Yes	2.678	n/a	n/a	GoodResponse	1	n/a	n/a	0	33	Blank	Win	True
323.47	1.45	Win2	0.5588000000000001	n/a	Yes	2.678	n/a	5.0	GoodResponse	1	0.015	322.485	0	33	Feedback	Win	True
324.92	2.678	Win2	0.5588000000000001	n/a	Yes	2.678	n/a	n/a	GoodResponse	1	0.0	n/a	0	33	ISIslide	Win	True
327.619	0.25	Lose2	0.5714	0.0	Yes	2.631	0.019	n/a	GoodResponse	0	n/a	n/a	0	34	Cue	AvoidedLoss	True
327.868	4.05	Lose2	0.5714	0.001	Yes	2.631	-0.001	n/a	GoodResponse	0	n/a	n/a	0	34	Fixation	AvoidedLoss	True
331.917	0.22	Lose2	0.5714	0.002	Yes	2.631	-0.002	1.0	GoodResponse	0	0.208	331.125	0	34	Target	AvoidedLoss	True
332.125	0.3	Lose2	0.5714	0.002	Yes	2.631	-0.002	1.0	GoodResponse	0	0.208	n/a	0	34	ButtonPress	AvoidedLoss	True
332.15	0.48	Lose2	0.5714	n/a	Yes	2.631	n/a	n/a	GoodResponse	0	n/a	n/a	0	34	Blank	AvoidedLoss	True
332.617	1.45	Lose2	0.5714	n/a	Yes	2.631	n/a	5.0	GoodResponse	0	0.04	331.657	0	34	Feedback	AvoidedLoss	True
334.066	2.631	Lose2	0.5714	n/a	Yes	2.631	n/a	n/a	GoodResponse	0	0.0	n/a	0	34	ISIslide	AvoidedLoss	True
336.715	0.25	Lose2	0.5832999999999999	0.0	Yes	2.685	0.015	n/a	GoodResponse	0	n/a	n/a	0	35	Cue	AvoidedLoss	True
336.965	4.0	Lose2	0.5832999999999999	0.0	Yes	2.685	0.0	n/a	GoodResponse	0	n/a	n/a	0	35	Fixation	AvoidedLoss	True
340.964	0.23	Lose2	0.5832999999999999	0.001	Yes	2.685	-0.001	1.0	GoodResponse	0	0.219	340.183	0	35	Target	AvoidedLoss	True
341.183	0.3	Lose2	0.5832999999999999	0.001	Yes	2.685	-0.001	1.0	GoodResponse	0	0.219	n/a	0	35	ButtonPress	AvoidedLoss	True
341.197	0.47	Lose2	0.5832999999999999	n/a	Yes	2.685	n/a	n/a	GoodResponse	0	n/a	n/a	0	35	Blank	AvoidedLoss	True
341.664	1.45	Lose2	0.5832999999999999	n/a	Yes	2.685	n/a	5.0	GoodResponse	0	0.016	340.68	0	35	Feedback	AvoidedLoss	True
343.113	2.685	Lose2	0.5832999999999999	n/a	Yes	2.685	n/a	n/a	GoodResponse	0	0.0	n/a	0	35	ISIslide	AvoidedLoss	True
345.829	0.25	Control	0.5946	0.0	Yes	2.671	0.029	n/a	GoodResponse	0	n/a	n/a	0	36	Cue	Neutral	True
346.079	4.0	Control	0.5946	0.0	Yes	2.671	0.0	n/a	GoodResponse	0	n/a	n/a	0	36	Fixation	Neutral	True
350.077	0.24	Control	0.5946	0.002	Yes	2.671	-0.002	1.0	GoodResponse	0	0.194	349.271	0	36	Target	Neutral	True
350.271	0.3	Control	0.5946	0.002	Yes	2.671	-0.002	1.0	GoodResponse	0	0.194	n/a	0	36	ButtonPress	Neutral	True
350.327	0.46	Control	0.5946	n/a	Yes	2.671	n/a	n/a	GoodResponse	0	n/a	n/a	0	36	Blank	Neutral	True
350.777	1.45	Control	0.5946	n/a	Yes	2.671	n/a	5.0	GoodResponse	0	0.025	349.802	0	36	Feedback	Neutral	True
352.227	2.671	Control	0.5946	n/a	Yes	2.671	n/a	n/a	GoodResponse	0	0.0	n/a	0	36	ISIslide	Neutral	True
354.926	0.25	Win2	0.6053000000000001	0.0	Yes	2.874	0.026	n/a	GoodResponse	1	n/a	n/a	1	37	Cue	Win	True
355.176	4.0	Win2	0.6053000000000001	0.0	Yes	2.874	0.0	n/a	GoodResponse	1	n/a	n/a	1	37	Fixation	Win	True
359.174	0.25	Win2	0.6053000000000001	0.002	Yes	2.874	-0.002	1.0	GoodResponse	1	0.193	358.367	1	37	Target	Win	True
359.367	0.3	Win2	0.6053000000000001	0.002	Yes	2.874	-0.002	1.0	GoodResponse	1	0.193	n/a	1	37	ButtonPress	Win	True
359.424	0.45	Win2	0.6053000000000001	n/a	Yes	2.874	n/a	n/a	GoodResponse	1	n/a	n/a	1	37	Blank	Win	True
359.874	1.45	Win2	0.6053000000000001	n/a	Yes	2.874	n/a	5.0	GoodResponse	1	0.001	358.875	1	37	Feedback	Win	True
361.323	2.874	Win2	0.6053000000000001	n/a	Yes	2.874	n/a	n/a	GoodResponse	1	0.0	n/a	1	37	ISIslide	Win	True
364.222	0.25	Lose2	0.6154	0.001	Yes	2.828	0.022	n/a	GoodResponse	0	n/a	n/a	1	38	Cue	AvoidedLoss	True
364.472	3.95	Lose2	0.6154	0.0	Yes	2.828	0.0	n/a	GoodResponse	0	n/a	n/a	1	38	Fixation	AvoidedLoss	True
368.421	0.26	Lose2	0.6154	0.001	Yes	2.828	-0.001	1.0	GoodResponse	0	0.2	367.621	1	38	Target	AvoidedLoss	True
368.621	0.3	Lose2	0.6154	0.001	Yes	2.828	-0.001	1.0	GoodResponse	0	0.2	n/a	1	38	ButtonPress	AvoidedLoss	True
368.688	0.44	Lose2	0.6154	n/a	Yes	2.828	n/a	n/a	GoodResponse	0	n/a	n/a	1	38	Blank	AvoidedLoss	True
369.121	1.45	Lose2	0.6154	n/a	Yes	2.828	n/a	5.0	GoodResponse	0	0.022	368.143	1	38	Feedback	AvoidedLoss	True
370.57	2.828	Lose2	0.6154	n/a	Yes	2.828	n/a	n/a	GoodResponse	0	0.0	n/a	1	38	ISIslide	AvoidedLoss	True
373.419	0.25	Win2	0.625	0.0	Yes	2.981	0.019	n/a	GoodResponse	1	n/a	n/a	2	39	Cue	Win	True
373.669	4.1	Win2	0.625	0.0	Yes	2.981	0.0	n/a	GoodResponse	1	n/a	n/a	2	39	Fixation	Win	True
377.768	0.27	Win2	0.625	0.001	Yes	2.981	-0.001	1.0	GoodResponse	1	0.187	376.955	2	39	Target	Win	True
377.955	0.3	Win2	0.625	0.001	Yes	2.981	-0.001	1.0	GoodResponse	1	0.187	n/a	2	39	ButtonPress	Win	True
378.051	0.43	Win2	0.625	n/a	Yes	2.981	n/a	n/a	GoodResponse	1	n/a	n/a	2	39	Blank	Win	True
378.467	1.45	Win2	0.625	n/a	Yes	2.981	n/a	5.0	GoodResponse	1	0.007	377.474	2	39	Feedback	Win	True
379.917	2.981	Win2	0.625	n/a	Yes	2.981	n/a	n/a	GoodResponse	1	0.0	n/a	2	39	ISIslide	Win	True
382.916	0.25	Win2	0.6341	0.0	Yes	2.734	0.016	n/a	GoodResponse	1	n/a	n/a	3	40	Cue	Win	True
383.166	3.95	Win2	0.6341	0.0	Yes	2.734	0.0	n/a	GoodResponse	1	n/a	n/a	3	40	Fixation	Win	True
387.114	0.28	Win2	0.6341	0.002	Yes	2.734	-0.002	1.0	GoodResponse	1	0.228	386.342	3	40	Target	Win	True
387.342	0.3	Win2	0.6341	0.002	Yes	2.734	-0.002	1.0	GoodResponse	1	0.228	n/a	3	40	ButtonPress	Win	True
387.398	0.42	Win2	0.6341	n/a	Yes	2.734	n/a	n/a	GoodResponse	1	n/a	n/a	3	40	Blank	Win	True
387.814	1.45	Win2	0.6341	n/a	Yes	2.734	n/a	5.0	GoodResponse	1	0.012	386.826	3	40	Feedback	Win	True
389.264	2.734	Win2	0.6341	n/a	Yes	2.734	n/a	n/a	GoodResponse	1	0.0	n/a	3	40	ISIslide	Win	True
392.029	0.25	Win2	0.6429	0.001	Yes	2.771	0.029	n/a	GoodResponse	1	n/a	n/a	4	41	Cue	Win	True
392.279	3.9	Win2	0.6429	0.0	Yes	2.771	0.0	n/a	GoodResponse	1	n/a	n/a	4	41	Fixation	Win	True
396.178	0.29	Win2	0.6429	0.002	Yes	2.771	-0.001	1.0	GoodResponse	1	0.213	395.391	4	41	Target	Win	True
396.391	0.3	Win2	0.6429	0.002	Yes	2.771	-0.001	1.0	GoodResponse	1	0.213	n/a	4	41	ButtonPress	Win	True
396.478	0.41	Win2	0.6429	n/a	Yes	2.771	n/a	n/a	GoodResponse	1	n/a	n/a	4	41	Blank	Win	True
396.878	1.45	Win2	0.6429	n/a	Yes	2.771	n/a	5.0	GoodResponse	1	0.021	395.899	4	41	Feedback	Win	True
398.327	2.771	Win2	0.6429	n/a	Yes	2.771	n/a	n/a	GoodResponse	1	0.0	n/a	4	41	ISIslide	Win	True
401.126	0.25	Control	0.6512	0.0	Yes	2.924	0.026	n/a	GoodResponse	0	n/a	n/a	4	42	Cue	Neutral	True
401.376	3.85	Control	0.6512	0.0	Yes	2.924	0.0	n/a	GoodResponse	0	n/a	n/a	4	42	Fixation	Neutral	True
405.225	0.3	Control	0.6512	0.001	Yes	2.924	-0.001	1.0	GoodResponse	0	0.199	404.424	4	42	Target	Neutral	True
405.424	0.3	Control	0.6512	0.001	Yes	2.924	-0.001	1.0	GoodResponse	0	0.199	n/a	4	42	ButtonPress	Neutral	True
405.525	0.4	Control	0.6512	n/a	Yes	2.924	n/a	n/a	GoodResponse	0	n/a	n/a	4	42	Blank	Neutral	True
405.925	1.45	Control	0.6512	n/a	Yes	2.924	n/a	5.0	GoodResponse	0	0.047	404.972	4	42	Feedback	Neutral	True
407.374	2.924	Control	0.6512	n/a	Yes	2.924	n/a	n/a	GoodResponse	0	0.0	n/a	4	42	ISIslide	Neutral	True
410.323	0.25	Win2	0.6364	0.0	No	3.177	0.023	n/a	NoResponse	0	n/a	n/a	4	43	Cue	MissedWin	False
410.573	4.0	Win2	0.6364	0.0	No	3.177	0.0	1.0	NoResponse	0	3.978	413.551	4	43	Fixation	MissedWin	False
414.551	0.3	Win2	0.6364	0.0	No	3.177	0.0	1.0	NoResponse	0	3.978	n/a	4	43	ButtonPress	MissedWin	False
414.572	0.31	Win2	0.6364	0.001	No	3.177	-0.001	1.0	NoResponse	0	0.376	413.948	4	43	Target	MissedWin	False
414.888	0.39	Win2	0.6364	n/a	No	3.177	n/a	n/a	NoResponse	0	n/a	n/a	4	43	Blank	MissedWin	False
414.948	0.3	Win2	0.6364	0.001	No	3.177	-0.001	1.0	NoResponse	0	0.376	n/a	4	43	ButtonPress	MissedWin	False
415.271	1.45	Win2	0.6364	n/a	No	3.177	n/a	5.0	NoResponse	0	0.018	414.289	4	43	Feedback	MissedWin	False
416.721	3.177	Win2	0.6364	n/a	No	3.177	n/a	n/a	NoResponse	0	0.0	n/a	4	43	ISIslide	MissedWin	False
419.92	0.25	Win2	0.6444	0.0	Yes	2.98	0.02	n/a	GoodResponse	1	n/a	n/a	5	44	Cue	Win	True
420.17	4.0	Win2	0.6444	0.0	Yes	2.98	0.0	n/a	GoodResponse	1	n/a	n/a	5	44	Fixation	Win	True
424.168	0.32	Win2	0.6444	0.002	Yes	2.98	-0.002	1.0	GoodResponse	1	0.213	423.381	5	44	Target	Win	True
424.381	0.3	Win2	0.6444	0.002	Yes	2.98	-0.002	1.0	GoodResponse	1	0.213	n/a	5	44	ButtonPress	Win	True
424.501	0.38	Win2	0.6444	n/a	Yes	2.98	n/a	n/a	GoodResponse	1	n/a	n/a	5	44	Blank	Win	True
424.868	1.45	Win2	0.6444	n/a	Yes	2.98	n/a	5.0	GoodResponse	1	0.031	423.899	5	44	Feedback	Win	True
426.317	2.98	Win2	0.6444	n/a	Yes	2.98	n/a	n/a	GoodResponse	1	0.0	n/a	5	44	ISIslide	Win	True
429.316	0.25	Control	0.6522	0.001	Yes	2.884	0.016	n/a	GoodResponse	0	n/a	n/a	5	45	Cue	Neutral	True
429.566	4.1	Control	0.6522	0.0	Yes	2.884	0.0	n/a	GoodResponse	0	n/a	n/a	5	45	Fixation	Neutral	True
433.665	0.33	Control	0.6522	0.001	Yes	2.884	-0.001	1.0	GoodResponse	0	0.238	432.903	5	45	Target	Neutral	True
433.903	0.3	Control	0.6522	0.001	Yes	2.884	-0.001	1.0	GoodResponse	0	0.238	n/a	5	45	ButtonPress	Neutral	True
433.998	0.37	Control	0.6522	n/a	Yes	2.884	n/a	n/a	GoodResponse	0	n/a	n/a	5	45	Blank	Neutral	True
434.365	1.45	Control	0.6522	n/a	Yes	2.884	n/a	5.0	GoodResponse	0	0.0	433.365	5	45	Feedback	Neutral	True
435.814	2.884	Control	0.6522	n/a	Yes	2.884	n/a	n/a	GoodResponse	0	0.0	n/a	5	45	ISIslide	Neutral	True
438.73	0.25	Lose2	0.6596	0.0	Yes	3.37	0.03	n/a	GoodResponse	0	n/a	n/a	5	46	Cue	AvoidedLoss	True
438.98	4.0	Lose2	0.6596	0.0	Yes	3.37	0.0	n/a	GoodResponse	0	n/a	n/a	5	46	Fixation	AvoidedLoss	True
442.978	0.34	Lose2	0.6596	0.002	Yes	3.37	-0.002	1.0	GoodResponse	0	0.199	442.177	5	46	Target	AvoidedLoss	True
443.177	0.3	Lose2	0.6596	0.002	Yes	3.37	-0.002	1.0	GoodResponse	0	0.199	n/a	5	46	ButtonPress	AvoidedLoss	True
443.328	0.36	Lose2	0.6596	n/a	Yes	3.37	n/a	n/a	GoodResponse	0	n/a	n/a	5	46	Blank	AvoidedLoss	True
443.678	1.45	Lose2	0.6596	n/a	Yes	3.37	n/a	5.0	GoodResponse	0	0.001	442.679	5	46	Feedback	AvoidedLoss	True
445.128	3.37	Lose2	0.6596	n/a	Yes	3.37	n/a	n/a	GoodResponse	0	0.0	n/a	5	46	ISIslide	AvoidedLoss	True
448.526	0.25	Lose2	0.6667000000000001	0.0	Yes	2.674	0.026	n/a	GoodResponse	0	n/a	n/a	5	47	Cue	AvoidedLoss	True
448.776	4.0	Lose2	0.6667000000000001	0.0	Yes	2.674	0.0	n/a	GoodResponse	0	n/a	n/a	5	47	Fixation	AvoidedLoss	True
452.775	0.34	Lose2	0.6667000000000001	0.001	Yes	2.674	-0.001	1.0	GoodResponse	0	0.23	452.005	5	47	Target	AvoidedLoss	True
453.005	0.3	Lose2	0.6667000000000001	0.001	Yes	2.674	-0.001	1.0	GoodResponse	0	0.23	n/a	5	47	ButtonPress	AvoidedLoss	True
453.125	0.36	Lose2	0.6667000000000001	n/a	Yes	2.674	n/a	n/a	GoodResponse	0	n/a	n/a	5	47	Blank	AvoidedLoss	True
453.475	1.45	Lose2	0.6667000000000001	n/a	Yes	2.674	n/a	5.0	GoodResponse	0	0.009	452.484	5	47	Feedback	AvoidedLoss	True
454.924	2.674	Lose2	0.6667000000000001	n/a	Yes	2.674	n/a	n/a	GoodResponse	0	0.0	n/a	5	47	ISIslide	AvoidedLoss	True
457.623	0.25	Lose2	0.6735	0.0	Yes	3.027	0.023	n/a	GoodResponse	0	n/a	n/a	5	48	Cue	AvoidedLoss	True
457.873	3.95	Lose2	0.6735	0.0	Yes	3.027	0.0	n/a	GoodResponse	0	n/a	n/a	5	48	Fixation	AvoidedLoss	True
461.822	0.33	Lose2	0.6735	0.001	Yes	3.027	-0.001	1.0	GoodResponse	0	0.25	461.072	5	48	Target	AvoidedLoss	True
462.072	0.3	Lose2	0.6735	0.001	Yes	3.027	-0.001	1.0	GoodResponse	0	0.25	n/a	5	48	ButtonPress	AvoidedLoss	True
462.155	0.37	Lose2	0.6735	n/a	Yes	3.027	n/a	n/a	GoodResponse	0	n/a	n/a	5	48	Blank	AvoidedLoss	True
462.521	1.45	Lose2	0.6735	n/a	Yes	3.027	n/a	5.0	GoodResponse	0	0.037	461.558	5	48	Feedback	AvoidedLoss	True
463.971	3.027	Lose2	0.6735	n/a	Yes	3.027	n/a	n/a	GoodResponse	0	0.0	n/a	5	48	ISIslide	AvoidedLoss	True
467.02	0.25	Control	0.68	0.0	Yes	2.88	0.02	n/a	GoodResponse	0	n/a	n/a	5	49	Cue	Neutral	True
467.27	4.0	Control	0.68	0.0	Yes	2.88	0.0	n/a	GoodResponse	0	n/a	n/a	5	49	Fixation	Neutral	True
471.268	0.32	Control	0.68	0.002	Yes	2.88	-0.002	1.0	GoodResponse	0	0.231	470.499	5	49	Target	Neutral	True
471.499	0.3	Control	0.68	0.002	Yes	2.88	-0.002	1.0	GoodResponse	0	0.231	n/a	5	49	ButtonPress	Neutral	True
471.602	0.38	Control	0.68	n/a	Yes	2.88	n/a	n/a	GoodResponse	0	n/a	n/a	5	49	Blank	Neutral	True
471.968	1.45	Control	0.68	n/a	Yes	2.88	n/a	5.0	GoodResponse	0	0.006	470.974	5	49	Feedback	Neutral	True
473.418	2.88	Control	0.68	n/a	Yes	2.88	n/a	n/a	GoodResponse	0	0.0	n/a	5	49	ISIslide	Neutral	True
476.317	0.25	Control	0.6862999999999999	0.0	Yes	2.783	0.017	n/a	GoodResponse	0	n/a	n/a	5	50	Cue	Neutral	True
476.567	4.0	Control	0.6862999999999999	0.0	Yes	2.783	0.0	n/a	GoodResponse	0	n/a	n/a	5	50	Fixation	Neutral	True
480.565	0.31	Control	0.6862999999999999	0.002	Yes	2.783	-0.002	1.0	GoodResponse	0	0.235	479.8	5	50	Target	Neutral	True
480.8	0.3	Control	0.6862999999999999	0.002	Yes	2.783	-0.002	1.0	GoodResponse	0	0.235	n/a	5	50	ButtonPress	Neutral	True
480.882	0.39	Control	0.6862999999999999	n/a	Yes	2.783	n/a	n/a	GoodResponse	0	n/a	n/a	5	50	Blank	Neutral	True
481.265	1.45	Control	0.6862999999999999	n/a	Yes	2.783	n/a	5.0	GoodResponse	0	0.024	480.289	5	50	Feedback	Neutral	True
482.714	2.783	Control	0.6862999999999999	n/a	Yes	2.783	n/a	n/a	GoodResponse	0	0.0	n/a	5	50	ISIslide	Neutral	True
485.53	0.25	Control	0.6923	0.0	Yes	2.72	0.03	n/a	GoodResponse	0	n/a	n/a	5	51	Cue	Neutral	True
485.78	3.95	Control	0.6923	0.0	Yes	2.72	0.0	n/a	GoodResponse	0	n/a	n/a	5	51	Fixation	Neutral	True
489.729	0.3	Control	0.6923	0.001	Yes	2.72	-0.001	1.0	GoodResponse	0	0.206	488.935	5	51	Target	Neutral	True
489.935	0.3	Control	0.6923	0.001	Yes	2.72	-0.001	1.0	GoodResponse	0	0.206	n/a	5	51	ButtonPress	Neutral	True
490.029	0.4	Control	0.6923	n/a	Yes	2.72	n/a	n/a	GoodResponse	0	n/a	n/a	5	51	Blank	Neutral	True
490.428	1.45	Control	0.6923	n/a	Yes	2.72	n/a	5.0	GoodResponse	0	0.031	489.459	5	51	Feedback	Neutral	True
491.878	2.72	Control	0.6923	n/a	Yes	2.72	n/a	n/a	GoodResponse	0	0.0	n/a	5	51	ISIslide	Neutral	True
494.627	0.25	Control	0.6981	0.0	Yes	2.623	0.027	n/a	GoodResponse	0	n/a	n/a	5	52	Cue	Neutral	True
494.877	4.05	Control	0.6981	0.0	Yes	2.623	0.0	n/a	GoodResponse	0	n/a	n/a	5	52	Fixation	Neutral	True
498.925	0.29	Control	0.6981	0.002	Yes	2.623	-0.002	1.0	GoodResponse	0	0.186	498.111	5	52	Target	Neutral	True
499.111	0.3	Control	0.6981	0.002	Yes	2.623	-0.002	1.0	GoodResponse	0	0.186	n/a	5	52	ButtonPress	Neutral	True
499.225	0.41	Control	0.6981	n/a	Yes	2.623	n/a	n/a	GoodResponse	0	n/a	n/a	5	52	Blank	Neutral	True
499.625	1.45	Control	0.6981	n/a	Yes	2.623	n/a	5.0	GoodResponse	0	0.006	498.631	5	52	Feedback	Neutral	True
501.075	2.623	Control	0.6981	n/a	Yes	2.623	n/a	n/a	GoodResponse	0	0.0	n/a	5	52	ISIslide	Neutral	True
503.724	0.25	Win2	0.7037	0.0	Yes	2.926	0.024	n/a	GoodResponse	1	n/a	n/a	6	53	Cue	Win	True
503.974	4.05	Win2	0.7037	0.0	Yes	2.926	0.0	n/a	GoodResponse	1	n/a	n/a	6	53	Fixation	Win	True
508.022	0.28	Win2	0.7037	0.002	Yes	2.926	-0.002	1.0	GoodResponse	1	0.199	507.221	6	53	Target	Win	True
508.221	0.3	Win2	0.7037	0.002	Yes	2.926	-0.002	1.0	GoodResponse	1	0.199	n/a	6	53	ButtonPress	Win	True
508.306	0.42	Win2	0.7037	n/a	Yes	2.926	n/a	n/a	GoodResponse	1	n/a	n/a	6	53	Blank	Win	True
508.722	1.45	Win2	0.7037	n/a	Yes	2.926	n/a	5.0	GoodResponse	1	0.03	507.752	6	53	Feedback	Win	True
510.172	2.926	Win2	0.7037	n/a	Yes	2.926	n/a	n/a	GoodResponse	1	0.0	n/a	6	53	ISIslide	Win	True
513.121	0.25	Win2	0.7091	0.0	Yes	2.729	0.021	n/a	GoodResponse	1	n/a	n/a	7	54	Cue	Win	True
513.37	3.95	Win2	0.7091	0.001	Yes	2.729	-0.001	n/a	GoodResponse	1	n/a	n/a	7	54	Fixation	Win	True
517.319	0.27	Win2	0.7091	0.002	Yes	2.729	-0.002	1.0	GoodResponse	1	0.202	516.521	7	54	Target	Win	True
517.521	0.3	Win2	0.7091	0.002	Yes	2.729	-0.002	1.0	GoodResponse	1	0.202	n/a	7	54	ButtonPress	Win	True
517.602	0.43	Win2	0.7091	n/a	Yes	2.729	n/a	n/a	GoodResponse	1	n/a	n/a	7	54	Blank	Win	True
518.019	1.45	Win2	0.7091	n/a	Yes	2.729	n/a	5.0	GoodResponse	1	0.001	517.02	7	54	Feedback	Win	True
519.468	2.729	Win2	0.7091	n/a	Yes	2.729	n/a	n/a	GoodResponse	1	0.0	n/a	7	54	ISIslide	Win	True
522.217	0.25	Control	0.6964	0.0	No	3.033	0.017	n/a	LatePress	0	n/a	n/a	7	55	Cue	Neutral	True
522.467	3.95	Control	0.6964	0.0	No	3.033	0.0	n/a	LatePress	0	n/a	n/a	7	55	Fixation	Neutral	True
526.416	0.26	Control	0.6964	0.001	No	3.033	-0.001	1.0	LatePress	0	0.264	525.68	7	55	Target	Neutral	True
526.68	0.3	Control	0.6964	0.001	No	3.033	-0.001	1.0	LatePress	0	0.264	n/a	7	55	ButtonPress	Neutral	True
526.682	0.44	Control	0.6964	n/a	No	3.033	n/a	n/a	LatePress	0	n/a	n/a	7	55	Blank	Neutral	True
527.116	1.45	Control	0.6964	n/a	No	3.033	n/a	5.0	LatePress	0	0.026	526.142	7	55	Feedback	Neutral	True
528.565	3.033	Control	0.6964	n/a	No	3.033	n/a	n/a	LatePress	0	0.0	n/a	7	55	ISIslide	Neutral	True
531.614	0.25	Control	0.6842	0.0	No	2.836	0.014	n/a	NoResponse	0	n/a	n/a	7	56	Cue	Neutral	True
531.864	3.95	Control	0.6842	0.0	No	2.836	0.0	n/a	NoResponse	0	n/a	n/a	7	56	Fixation	Neutral	True
535.813	0.25	Control	0.6842	0.001	No	2.836	-0.001	1.0	NoResponse	0	0.291	535.104	7	56	Target	Neutral	True
536.063	0.45	Control	0.6842	n/a	No	2.836	n/a	n/a	NoResponse	0	n/a	n/a	7	56	Blank	Neutral	True
536.104	0.3	Control	0.6842	0.001	No	2.836	-0.001	1.0	NoResponse	0	0.291	n/a	7	56	ButtonPress	Neutral	True
536.512	1.45	Control	0.6842	n/a	No	2.836	n/a	5.0	NoResponse	0	0.045	535.557	7	56	Feedback	Neutral	True
537.962	2.836	Control	0.6842	n/a	No	2.836	n/a	n/a	NoResponse	0	0.0	n/a	7	56	ISIslide	Neutral	True
540.828	0.25	Control	0.6897	0.0	Yes	3.472	0.028	n/a	GoodResponse	0	n/a	n/a	7	57	Cue	Neutral	True
541.077	4.0	Control	0.6897	0.001	Yes	3.472	-0.001	n/a	GoodResponse	0	n/a	n/a	7	57	Fixation	Neutral	True
545.076	0.24	Control	0.6897	0.002	Yes	3.472	-0.002	1.0	GoodResponse	0	0.165	544.241	7	57	Target	Neutral	True
545.241	0.3	Control	0.6897	0.002	Yes	3.472	-0.002	1.0	GoodResponse	0	0.165	n/a	7	57	ButtonPress	Neutral	True
545.326	0.46	Control	0.6897	n/a	Yes	3.472	n/a	n/a	GoodResponse	0	n/a	n/a	7	57	Blank	Neutral	True
545.776	1.45	Control	0.6897	n/a	Yes	3.472	n/a	5.0	GoodResponse	0	0.049	544.825	7	57	Feedback	Neutral	True
547.225	3.472	Control	0.6897	n/a	Yes	3.472	n/a	n/a	GoodResponse	0	0.0	n/a	7	57	ISIslide	Neutral	True
550.724	0.25	Win2	0.6949	0.0	Yes	2.726	0.024	n/a	GoodResponse	1	n/a	n/a	8	58	Cue	Win	True
550.974	4.05	Win2	0.6949	0.0	Yes	2.726	0.0	n/a	GoodResponse	1	n/a	n/a	8	58	Fixation	Win	True
555.023	0.23	Win2	0.6949	0.001	Yes	2.726	-0.001	1.0	GoodResponse	1	0.195	554.218	8	58	Target	Win	True
555.218	0.3	Win2	0.6949	0.001	Yes	2.726	-0.001	1.0	GoodResponse	1	0.195	n/a	8	58	ButtonPress	Win	True
555.256	0.47	Win2	0.6949	n/a	Yes	2.726	n/a	n/a	GoodResponse	1	n/a	n/a	8	58	Blank	Win	True
555.722	1.45	Win2	0.6949	n/a	Yes	2.726	n/a	5.0	GoodResponse	1	0.006	554.728	8	58	Feedback	Win	True
557.172	2.726	Win2	0.6949	n/a	Yes	2.726	n/a	n/a	GoodResponse	1	0.0	n/a	8	58	ISIslide	Win	True
559.921	0.25	Lose2	0.7	0.0	Yes	2.679	0.021	n/a	GoodResponse	0	n/a	n/a	8	59	Cue	AvoidedLoss	True
560.171	4.0	Lose2	0.7	0.0	Yes	2.679	0.0	n/a	GoodResponse	0	n/a	n/a	8	59	Fixation	AvoidedLoss	True
564.169	0.22	Lose2	0.7	0.002	Yes	2.679	-0.002	1.0	GoodResponse	0	0.187	563.356	8	59	Target	AvoidedLoss	True
564.356	0.3	Lose2	0.7	0.002	Yes	2.679	-0.002	1.0	GoodResponse	0	0.187	n/a	8	59	ButtonPress	AvoidedLoss	True
564.403	0.48	Lose2	0.7	n/a	Yes	2.679	n/a	n/a	GoodResponse	0	n/a	n/a	8	59	Blank	AvoidedLoss	True
564.869	1.45	Lose2	0.7	n/a	Yes	2.679	n/a	5.0	GoodResponse	0	0.028	563.897	8	59	Feedback	AvoidedLoss	True
566.319	2.679	Lose2	0.7	n/a	Yes	2.679	n/a	n/a	GoodResponse	0	0.0	n/a	8	59	ISIslide	AvoidedLoss	True
569.018	0.25	Control	0.6884999999999999	0.0	No	2.682	0.018	n/a	LatePress	0	n/a	n/a	8	60	Cue	Neutral	True
569.268	4.0	Control	0.6884999999999999	0.0	No	2.682	0.0	n/a	LatePress	0	n/a	n/a	8	60	Fixation	Neutral	True
573.266	0.21	Control	0.6884999999999999	0.002	No	2.682	-0.002	1.0	LatePress	0	0.211	572.477	8	60	Target	Neutral	True
573.477	0.3	Control	0.6884999999999999	0.002	No	2.682	-0.002	1.0	LatePress	0	0.211	n/a	8	60	ButtonPress	Neutral	True
573.483	0.49	Control	0.6884999999999999	n/a	No	2.682	n/a	n/a	LatePress	0	n/a	n/a	8	60	Blank	Neutral	True
573.966	1.45	Control	0.6884999999999999	n/a	No	2.682	n/a	5.0	LatePress	0	0.007	572.973	8	60	Feedback	Neutral	True
575.415	2.682	Control	0.6884999999999999	n/a	No	2.682	n/a	n/a	LatePress	0	0.0	n/a	8	60	ISIslide	Neutral	True
578.115	0.25	Lose2	0.6774	0.0	No	2.985	0.015	n/a	NoResponse	-1	n/a	n/a	7	61	Cue	Loss	True
578.364	4.0	Lose2	0.6774	0.001	No	2.985	-0.001	n/a	NoResponse	-1	n/a	n/a	7	61	Fixation	Loss	True
582.363	0.2	Lose2	0.6774	0.002	No	2.985	-0.002	1.0	NoResponse	-1	0.202	581.565	7	61	Target	Loss	True
582.563	0.5	Lose2	0.6774	n/a	No	2.985	n/a	n/a	NoResponse	-1	n/a	n/a	7	61	Blank	Loss	True
582.565	0.3	Lose2	0.6774	0.002	No	2.985	-0.002	1.0	NoResponse	-1	0.202	n/a	7	61	ButtonPress	Loss	True
583.063	1.45	Lose2	0.6774	n/a	No	2.985	n/a	5.0	NoResponse	-1	0.03	582.093	7	61	Feedback	Loss	True
584.512	2.985	Lose2	0.6774	n/a	No	2.985	n/a	n/a	NoResponse	-1	0.0	n/a	7	61	ISIslide	Loss	True
587.528	0.25	Lose2	0.6825	0.0	Yes	2.872	0.028	n/a	GoodResponse	0	n/a	n/a	7	62	Cue	AvoidedLoss	True
587.778	3.9	Lose2	0.6825	0.0	Yes	2.872	0.0	n/a	GoodResponse	0	n/a	n/a	7	62	Fixation	AvoidedLoss	True
591.676	0.19	Lose2	0.6825	0.002	Yes	2.872	-0.002	1.0	GoodResponse	0	0.175	590.851	7	62	Target	AvoidedLoss	True
591.851	0.3	Lose2	0.6825	0.002	Yes	2.872	-0.002	1.0	GoodResponse	0	0.175	n/a	7	62	ButtonPress	AvoidedLoss	True
591.876	0.51	Lose2	0.6825	n/a	Yes	2.872	n/a	n/a	GoodResponse	0	n/a	n/a	7	62	Blank	AvoidedLoss	True
592.376	1.45	Lose2	0.6825	n/a	Yes	2.872	n/a	5.0	GoodResponse	0	0.034	591.41	7	62	Feedback	AvoidedLoss	True
593.826	2.872	Lose2	0.6825	n/a	Yes	2.872	n/a	n/a	GoodResponse	0	0.0	n/a	7	62	ISIslide	AvoidedLoss	True
596.725	0.25	Lose2	0.6718999999999999	0.0	No	2.625	0.025	n/a	NoResponse	-1	n/a	n/a	6	63	Cue	Loss	True
596.975	4.05	Lose2	0.6718999999999999	0.0	No	2.625	0.0	n/a	NoResponse	-1	n/a	n/a	6	63	Fixation	Loss	True
601.023	0.18	Lose2	0.6718999999999999	0.002	No	2.625	-0.002	1.0	NoResponse	-1	0.191	600.214	6	63	Target	Loss	True
601.206	0.52	Lose2	0.6718999999999999	n/a	No	2.625	n/a	n/a	NoResponse	-1	n/a	n/a	6	63	Blank	Loss	True
601.214	0.3	Lose2	0.6718999999999999	0.002	No	2.625	-0.002	1.0	NoResponse	-1	0.191	n/a	6	63	ButtonPress	Loss	True
601.723	1.45	Lose2	0.6718999999999999	n/a	No	2.625	n/a	5.0	NoResponse	-1	0.006	600.729	6	63	Feedback	Loss	True
603.172	2.625	Lose2	0.6718999999999999	n/a	No	2.625	n/a	n/a	NoResponse	-1	0.0	n/a	6	63	ISIslide	Loss	True
605.822	0.25	Win2	0.6615000000000001	0.0	No	3.128	0.022	n/a	NoResponse	0	n/a	n/a	6	64	Cue	MissedWin	True
606.071	4.15	Win2	0.6615000000000001	0.001	No	3.128	-0.001	n/a	NoResponse	0	n/a	n/a	6	64	Fixation	MissedWin	True
610.22	0.17	Win2	0.6615000000000001	0.002	No	3.128	-0.002	1.0	NoResponse	0	0.191	609.411	6	64	Target	MissedWin	True
610.403	0.53	Win2	0.6615000000000001	n/a	No	3.128	n/a	n/a	NoResponse	0	n/a	n/a	6	64	Blank	MissedWin	True
610.411	0.3	Win2	0.6615000000000001	0.002	No	3.128	-0.002	1.0	NoResponse	0	0.191	n/a	6	64	ButtonPress	MissedWin	True
610.92	1.45	Win2	0.6615000000000001	n/a	No	3.128	n/a	5.0	NoResponse	0	0.027	609.947	6	64	Feedback	MissedWin	True
612.369	3.128	Win2	0.6615000000000001	n/a	No	3.128	n/a	n/a	NoResponse	0	0.0	n/a	6	64	ISIslide	MissedWin	True
615.518	0.25	Control	0.6515000000000001	0.0	No	2.782	0.018	n/a	NoResponse	0	n/a	n/a	6	65	Cue	Neutral	True
615.768	4.0	Control	0.6515000000000001	0.0	No	2.782	0.0	n/a	NoResponse	0	n/a	n/a	6	65	Fixation	Neutral	True
619.767	0.17	Control	0.6515000000000001	0.001	No	2.782	-0.001	1.0	NoResponse	0	0.194	618.961	6	65	Target	Neutral	True
619.95	0.53	Control	0.6515000000000001	n/a	No	2.782	n/a	n/a	NoResponse	0	n/a	n/a	6	65	Blank	Neutral	True
619.961	0.3	Control	0.6515000000000001	0.001	No	2.782	-0.001	1.0	NoResponse	0	0.194	n/a	6	65	ButtonPress	Neutral	True
620.466	1.45	Control	0.6515000000000001	n/a	No	2.782	n/a	5.0	NoResponse	0	0.001	619.467	6	65	Feedback	Neutral	True
621.916	2.782	Control	0.6515000000000001	n/a	No	2.782	n/a	n/a	NoResponse	0	0.0	n/a	6	65	ISIslide	Neutral	True
624.715	0.25	Win2	0.6418	0.0	No	2.785	0.015	n/a	NoResponse	0	n/a	n/a	6	66	Cue	MissedWin	True
624.965	3.9	Win2	0.6418	0.0	No	2.785	0.0	n/a	NoResponse	0	n/a	n/a	6	66	Fixation	MissedWin	True
628.863	0.18	Win2	0.6418	0.002	No	2.785	-0.002	1.0	NoResponse	0	0.191	628.054	6	66	Target	MissedWin	True
629.047	0.52	Win2	0.6418	n/a	No	2.785	n/a	n/a	NoResponse	0	n/a	n/a	6	66	Blank	MissedWin	True
629.054	0.3	Win2	0.6418	0.002	No	2.785	-0.002	1.0	NoResponse	0	0.191	n/a	6	66	ButtonPress	MissedWin	True
629.563	1.45	Win2	0.6418	n/a	No	2.785	n/a	5.0	NoResponse	0	0.017	628.58	6	66	Feedback	MissedWin	True
631.013	2.785	Win2	0.6418	n/a	No	2.785	n/a	n/a	NoResponse	0	0.0	n/a	6	66	ISIslide	MissedWin	True
633.828	0.25	Control	0.6470999999999999	0.001	Yes	2.722	0.028	n/a	GoodResponse	0	n/a	n/a	6	67	Cue	Neutral	True
634.078	3.95	Control	0.6470999999999999	0.0	Yes	2.722	0.0	n/a	GoodResponse	0	n/a	n/a	6	67	Fixation	Neutral	True
638.027	0.19	Control	0.6470999999999999	0.001	Yes	2.722	-0.001	1.0	GoodResponse	0	0.18	637.207	6	67	Target	Neutral	True
638.207	0.3	Control	0.6470999999999999	0.001	Yes	2.722	-0.001	1.0	GoodResponse	0	0.18	n/a	6	67	ButtonPress	Neutral	True
638.227	0.51	Control	0.6470999999999999	n/a	Yes	2.722	n/a	n/a	GoodResponse	0	n/a	n/a	6	67	Blank	Neutral	True
638.727	1.45	Control	0.6470999999999999	n/a	Yes	2.722	n/a	5.0	GoodResponse	0	0.024	637.751	6	67	Feedback	Neutral	True
640.176	2.722	Control	0.6470999999999999	n/a	Yes	2.722	n/a	n/a	GoodResponse	0	0.0	n/a	6	67	ISIslide	Neutral	True
642.925	0.25	Win2	0.6522	0.0	Yes	3.075	0.025	n/a	GoodResponse	1	n/a	n/a	7	68	Cue	Win	True
643.175	4.0	Win2	0.6522	0.0	Yes	3.075	0.0	n/a	GoodResponse	1	n/a	n/a	7	68	Fixation	Win	True
647.174	0.2	Win2	0.6522	0.001	Yes	3.075	-0.001	1.0	GoodResponse	1	0.187	646.361	7	68	Target	Win	True
647.361	0.3	Win2	0.6522	0.001	Yes	3.075	-0.001	1.0	GoodResponse	1	0.187	n/a	7	68	ButtonPress	Win	True
647.374	0.5	Win2	0.6522	n/a	Yes	3.075	n/a	n/a	GoodResponse	1	n/a	n/a	7	68	Blank	Win	True
647.874	1.45	Win2	0.6522	n/a	Yes	3.075	n/a	5.0	GoodResponse	1	0.048	646.922	7	68	Feedback	Win	True
649.323	3.075	Win2	0.6522	n/a	Yes	3.075	n/a	n/a	GoodResponse	1	0.0	n/a	7	68	ISIslide	Win	True
652.422	0.25	Win2	0.6429	0.0	No	3.228	0.022	n/a	LatePress	0	n/a	n/a	7	69	Cue	MissedWin	True
652.672	3.95	Win2	0.6429	0.0	No	3.228	0.0	n/a	LatePress	0	n/a	n/a	7	69	Fixation	MissedWin	True
656.62	0.21	Win2	0.6429	0.002	No	3.228	-0.002	1.0	LatePress	0	0.213	655.833	7	69	Target	MissedWin	True
656.833	0.3	Win2	0.6429	0.002	No	3.228	-0.002	1.0	LatePress	0	0.213	n/a	7	69	ButtonPress	MissedWin	True
656.837	0.49	Win2	0.6429	n/a	No	3.228	n/a	n/a	LatePress	0	n/a	n/a	7	69	Blank	MissedWin	True
657.32	1.45	Win2	0.6429	n/a	No	3.228	n/a	5.0	LatePress	0	0.017	656.337	7	69	Feedback	MissedWin	True
658.77	3.228	Win2	0.6429	n/a	No	3.228	n/a	n/a	LatePress	0	0.0	n/a	7	69	ISIslide	MissedWin	True
662.019	0.25	Lose2	0.6479	0.0	Yes	3.031	0.019	n/a	GoodResponse	0	n/a	n/a	7	70	Cue	AvoidedLoss	True
662.268	4.05	Lose2	0.6479	0.001	Yes	3.031	-0.001	n/a	GoodResponse	0	n/a	n/a	7	70	Fixation	AvoidedLoss	True
666.317	0.22	Lose2	0.6479	0.002	Yes	3.031	-0.002	1.0	GoodResponse	0	0.192	665.509	7	70	Target	AvoidedLoss	True
666.509	0.3	Lose2	0.6479	0.002	Yes	3.031	-0.002	1.0	GoodResponse	0	0.192	n/a	7	70	ButtonPress	AvoidedLoss	True
666.55	0.48	Lose2	0.6479	n/a	Yes	3.031	n/a	n/a	GoodResponse	0	n/a	n/a	7	70	Blank	AvoidedLoss	True
667.017	1.45	Lose2	0.6479	n/a	Yes	3.031	n/a	5.0	GoodResponse	0	0.026	666.043	7	70	Feedback	AvoidedLoss	True
668.466	3.031	Lose2	0.6479	n/a	Yes	3.031	n/a	n/a	GoodResponse	0	0.0	n/a	7	70	ISIslide	AvoidedLoss	True
671.515	0.25	Win2	0.6528	0.0	Yes	2.735	0.015	n/a	GoodResponse	1	n/a	n/a	8	71	Cue	Win	True
671.765	4.05	Win2	0.6528	0.0	Yes	2.735	0.0	n/a	GoodResponse	1	n/a	n/a	8	71	Fixation	Win	True
675.814	0.23	Win2	0.6528	0.001	Yes	2.735	-0.001	1.0	GoodResponse	1	0.177	674.991	8	71	Target	Win	True
675.991	0.3	Win2	0.6528	0.001	Yes	2.735	-0.001	1.0	GoodResponse	1	0.177	n/a	8	71	ButtonPress	Win	True
676.047	0.47	Win2	0.6528	n/a	Yes	2.735	n/a	n/a	GoodResponse	1	n/a	n/a	8	71	Blank	Win	True
676.514	1.45	Win2	0.6528	n/a	Yes	2.735	n/a	5.0	GoodResponse	1	0.0	675.514	8	71	Feedback	Win	True
677.963	2.735	Win2	0.6528	n/a	Yes	2.735	n/a	n/a	GoodResponse	1	0.0	n/a	8	71	ISIslide	Win	True
680.729	0.25	Win2	0.6575	0.0	Yes	2.771	0.029	n/a	GoodResponse	1	n/a	n/a	9	72	Cue	Win	True
680.979	4.1	Win2	0.6575	0.0	Yes	2.771	0.0	n/a	GoodResponse	1	n/a	n/a	9	72	Fixation	Win	True
685.077	0.24	Win2	0.6575	0.002	Yes	2.771	-0.002	1.0	GoodResponse	1	0.195	684.272	9	72	Target	Win	True
685.272	0.3	Win2	0.6575	0.002	Yes	2.771	-0.002	1.0	GoodResponse	1	0.195	n/a	9	72	ButtonPress	Win	True
685.327	0.46	Win2	0.6575	n/a	Yes	2.771	n/a	n/a	GoodResponse	1	n/a	n/a	9	72	Blank	Win	True
685.777	1.45	Win2	0.6575	n/a	Yes	2.771	n/a	5.0	GoodResponse	1	0.0	684.777	9	72	Feedback	Win	True
687.226	2.771	Win2	0.6575	n/a	Yes	2.771	n/a	n/a	GoodResponse	1	0.0	n/a	9	72	ISIslide	Win	True
690.025	0.25	Win2	0.6622	0.001	Yes	2.675	0.025	n/a	GoodResponse	1	n/a	n/a	10	73	Cue	Win	True
690.275	4.0	Win2	0.6622	0.0	Yes	2.675	0.0	n/a	GoodResponse	1	n/a	n/a	10	73	Fixation	Win	True
694.274	0.24	Win2	0.6622	0.001	Yes	2.675	-0.001	1.0	GoodResponse	1	0.205	693.479	10	73	Target	Win	True
694.479	0.3	Win2	0.6622	0.001	Yes	2.675	-0.001	1.0	GoodResponse	1	0.205	n/a	10	73	ButtonPress	Win	True
694.524	0.46	Win2	0.6622	n/a	Yes	2.675	n/a	n/a	GoodResponse	1	n/a	n/a	10	73	Blank	Win	True
694.974	1.45	Win2	0.6622	n/a	Yes	2.675	n/a	5.0	GoodResponse	1	0.021	693.995	10	73	Feedback	Win	True
696.423	2.675	Win2	0.6622	n/a	Yes	2.675	n/a	n/a	GoodResponse	1	0.0	n/a	10	73	ISIslide	Win	True
699.122	0.25	Lose2	0.6667000000000001	0.0	Yes	2.628	0.022	n/a	GoodResponse	0	n/a	n/a	10	74	Cue	AvoidedLoss	True
699.372	4.05	Lose2	0.6667000000000001	0.0	Yes	2.628	0.0	n/a	GoodResponse	0	n/a	n/a	10	74	Fixation	AvoidedLoss	True
703.421	0.24	Lose2	0.6667000000000001	0.001	Yes	2.628	-0.001	1.0	GoodResponse	0	0.199	702.62	10	74	Target	AvoidedLoss	True
703.62	0.3	Lose2	0.6667000000000001	0.001	Yes	2.628	-0.001	1.0	GoodResponse	0	0.199	n/a	10	74	ButtonPress	AvoidedLoss	True
703.671	0.46	Lose2	0.6667000000000001	n/a	Yes	2.628	n/a	n/a	GoodResponse	0	n/a	n/a	10	74	Blank	AvoidedLoss	True
704.121	1.45	Lose2	0.6667000000000001	n/a	Yes	2.628	n/a	5.0	GoodResponse	0	0.044	703.165	10	74	Feedback	AvoidedLoss	True
705.57	2.628	Lose2	0.6667000000000001	n/a	Yes	2.628	n/a	n/a	GoodResponse	0	0.0	n/a	10	74	ISIslide	AvoidedLoss	True
708.219	0.25	Lose2	0.6711	0.0	Yes	2.931	0.019	n/a	GoodResponse	0	n/a	n/a	10	75	Cue	AvoidedLoss	True
708.469	3.95	Lose2	0.6711	0.0	Yes	2.931	0.0	n/a	GoodResponse	0	n/a	n/a	10	75	Fixation	AvoidedLoss	True
712.418	0.23	Lose2	0.6711	0.001	Yes	2.931	-0.001	1.0	GoodResponse	0	0.2	711.618	10	75	Target	AvoidedLoss	True
712.618	0.3	Lose2	0.6711	0.001	Yes	2.931	-0.001	1.0	GoodResponse	0	0.2	n/a	10	75	ButtonPress	AvoidedLoss	True
712.651	0.47	Lose2	0.6711	n/a	Yes	2.931	n/a	n/a	GoodResponse	0	n/a	n/a	10	75	Blank	AvoidedLoss	True
713.117	1.45	Lose2	0.6711	n/a	Yes	2.931	n/a	5.0	GoodResponse	0	0.024	712.141	10	75	Feedback	AvoidedLoss	True
714.567	2.931	Lose2	0.6711	n/a	Yes	2.931	n/a	n/a	GoodResponse	0	0.0	n/a	10	75	ISIslide	AvoidedLoss	True
717.516	0.25	Control	0.6753	0.0	Yes	3.234	0.016	n/a	GoodResponse	0	n/a	n/a	10	76	Cue	Neutral	True
717.766	4.05	Control	0.6753	0.0	Yes	3.234	0.0	n/a	GoodResponse	0	n/a	n/a	10	76	Fixation	Neutral	True
721.814	0.22	Control	0.6753	0.002	Yes	3.234	-0.002	1.0	GoodResponse	0	0.19	721.004	10	76	Target	Neutral	True
722.004	0.3	Control	0.6753	0.002	Yes	3.234	-0.002	1.0	GoodResponse	0	0.19	n/a	10	76	ButtonPress	Neutral	True
722.048	0.48	Control	0.6753	n/a	Yes	3.234	n/a	n/a	GoodResponse	0	n/a	n/a	10	76	Blank	Neutral	True
722.514	1.45	Control	0.6753	n/a	Yes	3.234	n/a	5.0	GoodResponse	0	0.0	721.514	10	76	Feedback	Neutral	True
723.964	3.234	Control	0.6753	n/a	Yes	3.234	n/a	n/a	GoodResponse	0	0.0	n/a	10	76	ISIslide	Neutral	True
727.229	0.25	Lose2	0.6795	0.0	Yes	2.571	0.029	n/a	GoodResponse	0	n/a	n/a	10	77	Cue	AvoidedLoss	True
727.479	3.95	Lose2	0.6795	0.0	Yes	2.571	0.0	n/a	GoodResponse	0	n/a	n/a	10	77	Fixation	AvoidedLoss	True
731.428	0.21	Lose2	0.6795	0.001	Yes	2.571	-0.001	1.0	GoodResponse	0	0.184	730.612	10	77	Target	AvoidedLoss	True
731.612	0.3	Lose2	0.6795	0.001	Yes	2.571	-0.001	1.0	GoodResponse	0	0.184	n/a	10	77	ButtonPress	AvoidedLoss	True
731.644	0.49	Lose2	0.6795	n/a	Yes	2.571	n/a	n/a	GoodResponse	0	n/a	n/a	10	77	Blank	AvoidedLoss	True
732.127	1.45	Lose2	0.6795	n/a	Yes	2.571	n/a	5.0	GoodResponse	0	0.038	731.165	10	77	Feedback	AvoidedLoss	True
733.577	2.571	Lose2	0.6795	n/a	Yes	2.571	n/a	n/a	GoodResponse	0	0.0	n/a	10	77	ISIslide	AvoidedLoss	True
