onset	duration	cue_type	current_mean_accuracy	duration_error	is_hit	isi_adjusted	onset_delay	response	response_type	reward	rt	rt_time	total_reward	trial_number	trial_phase	trial_type	one_press
11.107	0.25	Control	1.0	0.0	Yes	2.943	0.007	n/a	GoodResponse	0	n/a	n/a	0	0	Cue	Neutral	True
11.358	3.85	Control	1.0	0.0	Yes	2.943	0.001	n/a	GoodResponse	0	n/a	n/a	0	0	Fixation	Neutral	True
15.203	0.4	Control	1.0	0.004	Yes	2.943	-0.004	2.0	GoodResponse	0	0.332	14.535	0	0	Target	Neutral	True
15.535	0.3	Control	1.0	0.004	Yes	2.943	-0.004	2.0	GoodResponse	0	0.332	n/a	0	0	ButtonPress	Neutral	True
15.604	0.3	Control	1.0	n/a	Yes	2.943	n/a	n/a	GoodResponse	0	n/a	n/a	0	0	Blank	Neutral	True
15.905	1.45	Control	1.0	n/a	Yes	2.943	n/a	5.0	GoodResponse	0	0.022	14.927	0	0	Feedback	Neutral	True
17.359	2.943	Control	1.0	n/a	Yes	2.943	n/a	n/a	GoodResponse	0	0.0	n/a	0	0	ISIslide	Neutral	True
20.318	0.25	Lose2	1.0	0.0	Yes	2.782	0.018	n/a	GoodResponse	0	n/a	n/a	0	1	Cue	AvoidedLoss	True
20.569	4.0	Lose2	1.0	0.0	Yes	2.782	0.001	n/a	GoodResponse	0	n/a	n/a	0	1	Fixation	AvoidedLoss	True
24.564	0.39	Lose2	1.0	0.004	Yes	2.782	-0.004	2.0	GoodResponse	0	0.241	23.805	0	1	Target	AvoidedLoss	True
24.805	0.3	Lose2	1.0	0.004	Yes	2.782	-0.004	2.0	GoodResponse	0	0.241	n/a	0	1	ButtonPress	AvoidedLoss	True
24.965	0.31	Lose2	1.0	n/a	Yes	2.782	n/a	n/a	GoodResponse	0	n/a	n/a	0	1	Blank	AvoidedLoss	True
25.266	1.45	Lose2	1.0	n/a	Yes	2.782	n/a	5.0	GoodResponse	0	0.026	24.292	0	1	Feedback	AvoidedLoss	True
26.721	2.782	Lose2	1.0	n/a	Yes	2.782	n/a	n/a	GoodResponse	0	0.0	n/a	0	1	ISIslide	AvoidedLoss	True
29.529	0.25	Control	1.0	0.0	Yes	2.571	0.029	n/a	GoodResponse	0	n/a	n/a	0	2	Cue	Neutral	True
29.78	4.1	Control	1.0	0.0	Yes	2.571	0.001	n/a	GoodResponse	0	n/a	n/a	0	2	Fixation	Neutral	True
33.875	0.38	Control	1.0	0.004	Yes	2.571	-0.004	2.0	GoodResponse	0	0.223	33.098	0	2	Target	Neutral	True
34.098	0.3	Control	1.0	0.004	Yes	2.571	-0.004	2.0	GoodResponse	0	0.223	n/a	0	2	ButtonPress	Neutral	True
34.26	0.32	Control	1.0	n/a	Yes	2.571	n/a	n/a	GoodResponse	0	n/a	n/a	0	2	Blank	Neutral	True
34.577	1.45	Control	1.0	n/a	Yes	2.571	n/a	5.0	GoodResponse	0	0.032	33.609	0	2	Feedback	Neutral	True
36.032	2.571	Control	1.0	n/a	Yes	2.571	n/a	n/a	GoodResponse	0	0.0	n/a	0	2	ISIslide	Neutral	True
38.623	0.25	Win2	1.0	0.0	Yes	2.827	0.023	n/a	GoodResponse	1	n/a	n/a	1	3	Cue	Win	True
38.874	3.95	Win2	1.0	0.0	Yes	2.827	0.001	n/a	GoodResponse	1	n/a	n/a	1	3	Fixation	Win	True
42.819	0.37	Win2	1.0	0.004	Yes	2.827	-0.004	2.0	GoodResponse	1	0.192	42.011	1	3	Target	Win	True
43.011	0.3	Win2	1.0	0.004	Yes	2.827	-0.004	2.0	GoodResponse	1	0.192	n/a	1	3	ButtonPress	Win	True
43.203	0.33	Win2	1.0	n/a	Yes	2.827	n/a	n/a	GoodResponse	1	n/a	n/a	1	3	Blank	Win	True
43.521	1.45	Win2	1.0	n/a	Yes	2.827	n/a	5.0	GoodResponse	1	0.015	42.536	1	3	Feedback	Win	True
44.975	2.827	Win2	1.0	n/a	Yes	2.827	n/a	n/a	GoodResponse	1	0.0	n/a	1	3	ISIslide	Win	True
47.817	0.25	Win2	0.8	0.0	No	3.283	0.017	n/a	NoResponse	0	n/a	n/a	1	4	Cue	MissedWin	False
48.068	4.0	Win2	0.8	0.0	No	3.283	0.001	2.0	NoResponse	0	3.967	51.035	1	4	Fixation	MissedWin	False
52.035	0.3	Win2	0.8	0.0	No	3.283	0.001	2.0	NoResponse	0	3.967	n/a	1	4	ButtonPress	MissedWin	False
52.063	0.36	Win2	0.8	0.004	No	3.283	-0.004	2.0	NoResponse	0	0.478	51.541	1	4	Target	MissedWin	False
52.431	0.34	Win2	0.8	n/a	No	3.283	n/a	n/a	NoResponse	0	n/a	n/a	1	4	Blank	MissedWin	False
52.541	0.3	Win2	0.8	0.004	No	3.283	-0.004	2.0	NoResponse	0	0.478	n/a	1	4	ButtonPress	MissedWin	False
52.765	1.45	Win2	0.8	n/a	No	3.283	n/a	5.0	NoResponse	0	0.039	51.804	1	4	Feedback	MissedWin	False
54.22	3.283	Win2	0.8	n/a	No	3.283	n/a	n/a	NoResponse	0	0.0	n/a	1	4	ISIslide	MissedWin	False
57.529	0.25	Win2	0.8332999999999999	0.001	Yes	2.771	0.029	n/a	GoodResponse	1	n/a	n/a	2	5	Cue	Win	True
57.78	4.0	Win2	0.8332999999999999	0.0	Yes	2.771	0.001	n/a	GoodResponse	1	n/a	n/a	2	5	Fixation	Win	True
61.775	0.35	Win2	0.8332999999999999	0.004	Yes	2.771	-0.004	2.0	GoodResponse	1	0.278	61.053	2	5	Target	Win	True
62.053	0.3	Win2	0.8332999999999999	0.004	Yes	2.771	-0.004	2.0	GoodResponse	1	0.278	n/a	2	5	ButtonPress	Win	True
62.127	0.35	Win2	0.8332999999999999	n/a	Yes	2.771	n/a	n/a	GoodResponse	1	n/a	n/a	2	5	Blank	Win	True
62.478	1.45	Win2	0.8332999999999999	n/a	Yes	2.771	n/a	5.0	GoodResponse	1	0.034	61.512	2	5	Feedback	Win	True
63.932	2.771	Win2	0.8332999999999999	n/a	Yes	2.771	n/a	n/a	GoodResponse	1	0.0	n/a	2	5	ISIslide	Win	True
66.724	0.25	Lose2	0.8571	0.0	Yes	2.726	0.024	n/a	GoodResponse	0	n/a	n/a	2	6	Cue	AvoidedLoss	True
66.974	3.95	Lose2	0.8571	0.0	Yes	2.726	0.0	n/a	GoodResponse	0	n/a	n/a	2	6	Fixation	AvoidedLoss	True
70.936	0.34	Lose2	0.8571	0.0	Yes	2.726	0.012	2.0	GoodResponse	0	0.31	70.246	2	6	Target	AvoidedLoss	True
71.246	0.3	Lose2	0.8571	0.0	Yes	2.726	0.012	2.0	GoodResponse	0	0.31	n/a	2	6	ButtonPress	AvoidedLoss	True
71.271	0.36	Lose2	0.8571	n/a	Yes	2.726	n/a	n/a	GoodResponse	0	n/a	n/a	2	6	Blank	AvoidedLoss	True
71.622	1.45	Lose2	0.8571	n/a	Yes	2.726	n/a	5.0	GoodResponse	0	0.011	70.633	2	6	Feedback	AvoidedLoss	True
73.076	2.726	Lose2	0.8571	n/a	Yes	2.726	n/a	n/a	GoodResponse	0	0.0	n/a	2	6	ISIslide	AvoidedLoss	True
75.817	0.25	Lose2	0.875	0.001	Yes	4.033	0.017	n/a	GoodResponse	0	n/a	n/a	2	7	Cue	AvoidedLoss	True
76.068	4.05	Lose2	0.875	0.0	Yes	4.033	0.001	n/a	GoodResponse	0	n/a	n/a	2	7	Fixation	AvoidedLoss	True
80.114	0.33	Lose2	0.875	0.003	Yes	4.033	-0.003	2.0	GoodResponse	0	0.261	79.375	2	7	Target	AvoidedLoss	True
80.375	0.3	Lose2	0.875	0.003	Yes	4.033	-0.003	2.0	GoodResponse	0	0.261	n/a	2	7	ButtonPress	AvoidedLoss	True
80.448	0.37	Lose2	0.875	n/a	Yes	4.033	n/a	n/a	GoodResponse	0	n/a	n/a	2	7	Blank	AvoidedLoss	True
80.816	1.45	Lose2	0.875	n/a	Yes	4.033	n/a	5.0	GoodResponse	0	0.036	79.852	2	7	Feedback	AvoidedLoss	True
82.27	4.033	Lose2	0.875	n/a	Yes	4.033	n/a	n/a	GoodResponse	0	0.0	n/a	2	7	ISIslide	AvoidedLoss	True
86.316	0.25	Lose2	0.8889	0.0	Yes	3.034	0.016	n/a	GoodResponse	0	n/a	n/a	2	8	Cue	AvoidedLoss	True
86.566	3.95	Lose2	0.8889	0.0	Yes	3.034	0.0	n/a	GoodResponse	0	n/a	n/a	2	8	Fixation	AvoidedLoss	True
90.528	0.32	Lose2	0.8889	0.0	Yes	3.034	0.012	2.0	GoodResponse	0	0.226	89.754	2	8	Target	AvoidedLoss	True
90.754	0.3	Lose2	0.8889	0.0	Yes	3.034	0.012	2.0	GoodResponse	0	0.226	n/a	2	8	ButtonPress	AvoidedLoss	True
90.846	0.38	Lose2	0.8889	n/a	Yes	3.034	n/a	n/a	GoodResponse	0	n/a	n/a	2	8	Blank	AvoidedLoss	True
91.213	1.45	Lose2	0.8889	n/a	Yes	3.034	n/a	5.0	GoodResponse	0	0.03	90.243	2	8	Feedback	AvoidedLoss	True
92.668	3.034	Lose2	0.8889	n/a	Yes	3.034	n/a	n/a	GoodResponse	0	0.0	n/a	2	8	ISIslide	AvoidedLoss	True
95.727	0.25	Lose2	0.9	0.0	Yes	3.123	0.027	n/a	GoodResponse	0	n/a	n/a	2	9	Cue	AvoidedLoss	True
95.978	3.95	Lose2	0.9	0.0	Yes	3.123	0.001	n/a	GoodResponse	0	n/a	n/a	2	9	Fixation	AvoidedLoss	True
99.923	0.31	Lose2	0.9	0.004	Yes	3.123	-0.004	2.0	GoodResponse	0	0.202	99.125	2	9	Target	AvoidedLoss	True
100.125	0.3	Lose2	0.9	0.004	Yes	3.123	-0.004	2.0	GoodResponse	0	0.202	n/a	2	9	ButtonPress	AvoidedLoss	True
100.24	0.39	Lose2	0.9	n/a	Yes	3.123	n/a	n/a	GoodResponse	0	n/a	n/a	2	9	Blank	AvoidedLoss	True
100.625	1.45	Lose2	0.9	n/a	Yes	3.123	n/a	5.0	GoodResponse	0	0.032	99.657	2	9	Feedback	AvoidedLoss	True
102.079	3.123	Lose2	0.9	n/a	Yes	3.123	n/a	n/a	GoodResponse	0	0.0	n/a	2	9	ISIslide	AvoidedLoss	True
105.222	0.25	Control	0.9091	0.0	Yes	3.278	0.022	n/a	GoodResponse	0	n/a	n/a	2	10	Cue	Neutral	True
105.473	4.0	Control	0.9091	0.0	Yes	3.278	0.001	n/a	GoodResponse	0	n/a	n/a	2	10	Fixation	Neutral	True
109.468	0.3	Control	0.9091	0.004	Yes	3.278	-0.004	2.0	GoodResponse	0	0.297	108.765	2	10	Target	Neutral	True
109.765	0.3	Control	0.9091	0.004	Yes	3.278	-0.004	2.0	GoodResponse	0	0.297	n/a	2	10	ButtonPress	Neutral	True
109.769	0.4	Control	0.9091	n/a	Yes	3.278	n/a	n/a	GoodResponse	0	n/a	n/a	2	10	Blank	Neutral	True
110.17	1.45	Control	0.9091	n/a	Yes	3.278	n/a	5.0	GoodResponse	0	0.047	109.217	2	10	Feedback	Neutral	True
111.625	3.278	Control	0.9091	n/a	Yes	3.278	n/a	n/a	GoodResponse	0	0.0	n/a	2	10	ISIslide	Neutral	True
114.918	0.25	Lose2	0.9167000000000001	0.0	Yes	2.732	0.018	n/a	GoodResponse	0	n/a	n/a	2	11	Cue	AvoidedLoss	True
115.168	4.05	Lose2	0.9167000000000001	0.001	Yes	2.732	0.0	n/a	GoodResponse	0	n/a	n/a	2	11	Fixation	AvoidedLoss	True
119.214	0.29	Lose2	0.9167000000000001	0.004	Yes	2.732	-0.004	2.0	GoodResponse	0	0.209	118.423	2	11	Target	AvoidedLoss	True
119.423	0.3	Lose2	0.9167000000000001	0.004	Yes	2.732	-0.004	2.0	GoodResponse	0	0.209	n/a	2	11	ButtonPress	AvoidedLoss	True
119.515	0.41	Lose2	0.9167000000000001	n/a	Yes	2.732	n/a	n/a	GoodResponse	0	n/a	n/a	2	11	Blank	AvoidedLoss	True
119.916	1.45	Lose2	0.9167000000000001	n/a	Yes	2.732	n/a	5.0	GoodResponse	0	0.009	118.925	2	11	Feedback	AvoidedLoss	True
121.37	2.732	Lose2	0.9167000000000001	n/a	Yes	2.732	n/a	n/a	GoodResponse	0	0.0	n/a	2	11	ISIslide	AvoidedLoss	True
124.129	0.25	Control	0.8462000000000001	0.0	No	2.971	0.029	n/a	NoResponse	0	n/a	n/a	2	12	Cue	Neutral	True
124.379	3.9	Control	0.8462000000000001	0.0	No	2.971	0.0	n/a	NoResponse	0	n/a	n/a	2	12	Fixation	Neutral	True
128.291	0.28	Control	0.8462000000000001	0.0	No	2.971	0.012	2.0	NoResponse	0	0.45	127.741	2	12	Target	Neutral	True
128.558	0.42	Control	0.8462000000000001	n/a	No	2.971	n/a	n/a	NoResponse	0	n/a	n/a	2	12	Blank	Neutral	True
128.741	0.3	Control	0.8462000000000001	0.0	No	2.971	0.012	2.0	NoResponse	0	0.45	n/a	2	12	ButtonPress	Neutral	True
128.976	1.45	Control	0.8462000000000001	n/a	No	2.971	n/a	5.0	NoResponse	0	0.022	127.998	2	12	Feedback	Neutral	True
130.431	2.971	Control	0.8462000000000001	n/a	No	2.971	n/a	n/a	NoResponse	0	0.0	n/a	2	12	ISIslide	Neutral	True
133.423	0.25	Control	0.8571	0.0	Yes	2.777	0.023	n/a	GoodResponse	0	n/a	n/a	2	13	Cue	Neutral	True
133.674	4.0	Control	0.8571	0.0	Yes	2.777	0.001	n/a	GoodResponse	0	n/a	n/a	2	13	Fixation	Neutral	True
137.669	0.27	Control	0.8571	0.004	Yes	2.777	-0.004	2.0	GoodResponse	0	0.206	136.875	2	13	Target	Neutral	True
137.875	0.3	Control	0.8571	0.004	Yes	2.777	-0.004	2.0	GoodResponse	0	0.206	n/a	2	13	ButtonPress	Neutral	True
137.953	0.43	Control	0.8571	n/a	Yes	2.777	n/a	n/a	GoodResponse	0	n/a	n/a	2	13	Blank	Neutral	True
138.371	1.45	Control	0.8571	n/a	Yes	2.777	n/a	5.0	GoodResponse	0	0.042	137.413	2	13	Feedback	Neutral	True
139.825	2.777	Control	0.8571	n/a	Yes	2.777	n/a	n/a	GoodResponse	0	0.0	n/a	2	13	ISIslide	Neutral	True
142.617	0.25	Win2	0.8	0.0	No	2.683	0.017	n/a	NoResponse	0	n/a	n/a	2	14	Cue	MissedWin	True
142.868	4.1	Win2	0.8	0.0	No	2.683	0.001	n/a	NoResponse	0	n/a	n/a	2	14	Fixation	MissedWin	True
146.964	0.26	Win2	0.8	0.003	No	2.683	-0.003	2.0	NoResponse	0	0.276	146.24	2	14	Target	MissedWin	True
147.231	0.44	Win2	0.8	n/a	No	2.683	n/a	n/a	NoResponse	0	n/a	n/a	2	14	Blank	MissedWin	True
147.24	0.3	Win2	0.8	0.003	No	2.683	-0.003	2.0	NoResponse	0	0.276	n/a	2	14	ButtonPress	MissedWin	True
147.666	1.45	Win2	0.8	n/a	No	2.683	n/a	5.0	NoResponse	0	0.015	146.681	2	14	Feedback	MissedWin	True
149.12	2.683	Win2	0.8	n/a	No	2.683	n/a	n/a	NoResponse	0	0.0	n/a	2	14	ISIslide	MissedWin	True
151.828	0.25	Control	0.8125	0.0	Yes	2.972	0.028	n/a	GoodResponse	0	n/a	n/a	2	15	Cue	Neutral	True
152.079	4.0	Control	0.8125	0.0	Yes	2.972	0.001	n/a	GoodResponse	0	n/a	n/a	2	15	Fixation	Neutral	True
156.074	0.25	Control	0.8125	0.004	Yes	2.972	-0.004	2.0	GoodResponse	0	0.191	155.265	2	15	Target	Neutral	True
156.265	0.3	Control	0.8125	0.004	Yes	2.972	-0.004	2.0	GoodResponse	0	0.191	n/a	2	15	ButtonPress	Neutral	True
156.325	0.45	Control	0.8125	n/a	Yes	2.972	n/a	n/a	GoodResponse	0	n/a	n/a	2	15	Blank	Neutral	True
156.776	1.45	Control	0.8125	n/a	Yes	2.972	n/a	5.0	GoodResponse	0	0.026	155.802	2	15	Feedback	Neutral	True
158.231	2.972	Control	0.8125	n/a	Yes	2.972	n/a	n/a	GoodResponse	0	0.0	n/a	2	15	ISIslide	Neutral	True
161.223	0.25	Win2	0.8234999999999999	0.0	Yes	2.877	0.023	n/a	GoodResponse	1	n/a	n/a	3	16	Cue	Win	True
161.474	4.0	Win2	0.8234999999999999	0.0	Yes	2.877	0.001	n/a	GoodResponse	1	n/a	n/a	3	16	Fixation	Win	True
165.469	0.24	Win2	0.8234999999999999	0.004	Yes	2.877	-0.004	2.0	GoodResponse	1	0.18	164.649	3	16	Target	Win	True
165.649	0.3	Win2	0.8234999999999999	0.004	Yes	2.877	-0.004	2.0	GoodResponse	1	0.18	n/a	3	16	ButtonPress	Win	True
165.72	0.46	Win2	0.8234999999999999	n/a	Yes	2.877	n/a	n/a	GoodResponse	1	n/a	n/a	3	16	Blank	Win	True
166.171	1.45	Win2	0.8234999999999999	n/a	Yes	2.877	n/a	5.0	GoodResponse	1	0.046	165.217	3	16	Feedback	Win	True
167.625	2.877	Win2	0.8234999999999999	n/a	Yes	2.877	n/a	n/a	GoodResponse	1	0.0	n/a	3	16	ISIslide	Win	True
170.517	0.25	Lose2	0.7778	0.0	No	2.733	0.017	n/a	NoResponse	-1	n/a	n/a	2	17	Cue	Loss	True
170.768	3.95	Lose2	0.7778	0.0	No	2.733	0.001	n/a	NoResponse	-1	n/a	n/a	2	17	Fixation	Loss	True
174.713	0.23	Lose2	0.7778	0.004	No	2.733	-0.004	2.0	NoResponse	-1	0.241	173.954	2	17	Target	Loss	True
174.947	0.47	Lose2	0.7778	n/a	No	2.733	n/a	n/a	NoResponse	-1	n/a	n/a	2	17	Blank	Loss	True
174.954	0.3	Lose2	0.7778	0.004	No	2.733	-0.004	2.0	NoResponse	-1	0.241	n/a	2	17	ButtonPress	Loss	True
175.415	1.45	Lose2	0.7778	n/a	No	2.733	n/a	5.0	NoResponse	-1	0.022	174.437	2	17	Feedback	Loss	True
176.87	2.733	Lose2	0.7778	n/a	No	2.733	n/a	n/a	NoResponse	-1	0.0	n/a	2	17	ISIslide	Loss	True
179.628	0.25	Lose2	0.7895	0.0	Yes	2.722	0.028	n/a	GoodResponse	0	n/a	n/a	2	18	Cue	AvoidedLoss	True
179.879	4.05	Lose2	0.7895	0.0	Yes	2.722	0.001	n/a	GoodResponse	0	n/a	n/a	2	18	Fixation	AvoidedLoss	True
183.924	0.22	Lose2	0.7895	0.004	Yes	2.722	-0.004	2.0	GoodResponse	0	0.161	183.085	2	18	Target	AvoidedLoss	True
184.085	0.3	Lose2	0.7895	0.004	Yes	2.722	-0.004	2.0	GoodResponse	0	0.161	n/a	2	18	ButtonPress	AvoidedLoss	True
184.158	0.48	Lose2	0.7895	n/a	Yes	2.722	n/a	n/a	GoodResponse	0	n/a	n/a	2	18	Blank	AvoidedLoss	True
184.626	1.45	Lose2	0.7895	n/a	Yes	2.722	n/a	5.0	GoodResponse	0	0.03	183.656	2	18	Feedback	AvoidedLoss	True
186.08	2.722	Lose2	0.7895	n/a	Yes	2.722	n/a	n/a	GoodResponse	0	0.0	n/a	2	18	ISIslide	AvoidedLoss	True
188.822	0.25	Control	0.8	0.0	Yes	2.928	0.022	n/a	GoodResponse	0	n/a	n/a	2	19	Cue	Neutral	True
189.073	3.95	Control	0.8	0.0	Yes	2.928	0.001	n/a	GoodResponse	0	n/a	n/a	2	19	Fixation	Neutral	True
193.018	0.21	Control	0.8	0.004	Yes	2.928	-0.004	2.0	GoodResponse	0	0.172	192.19	2	19	Target	Neutral	True
193.19	0.3	Control	0.8	0.004	Yes	2.928	-0.004	2.0	GoodResponse	0	0.172	n/a	2	19	ButtonPress	Neutral	True
193.235	0.49	Control	0.8	n/a	Yes	2.928	n/a	n/a	GoodResponse	0	n/a	n/a	2	19	Blank	Neutral	True
193.72	1.45	Control	0.8	n/a	Yes	2.928	n/a	5.0	GoodResponse	0	0.008	192.728	2	19	Feedback	Neutral	True
195.174	2.928	Control	0.8	n/a	Yes	2.928	n/a	n/a	GoodResponse	0	0.0	n/a	2	19	ISIslide	Neutral	True
198.116	0.25	Control	0.7619	0.001	No	2.634	0.016	n/a	NoResponse	0	n/a	n/a	2	20	Cue	Neutral	True
198.367	4.05	Control	0.7619	0.0	No	2.634	0.001	n/a	NoResponse	0	n/a	n/a	2	20	Fixation	Neutral	True
202.413	0.2	Control	0.7619	0.003	No	2.634	-0.003	2.0	NoResponse	0	0.274	201.687	2	20	Target	Neutral	True
202.613	0.5	Control	0.7619	n/a	No	2.634	n/a	n/a	NoResponse	0	n/a	n/a	2	20	Blank	Neutral	True
202.687	0.3	Control	0.7619	0.003	No	2.634	-0.003	2.0	NoResponse	0	0.274	n/a	2	20	ButtonPress	Neutral	True
203.115	1.45	Control	0.7619	n/a	No	2.634	n/a	5.0	NoResponse	0	0.028	202.143	2	20	Feedback	Neutral	True
204.569	2.634	Control	0.7619	n/a	No	2.634	n/a	n/a	NoResponse	0	0.0	n/a	2	20	ISIslide	Neutral	True
207.227	0.25	Control	0.7273000000000001	0.0	No	2.773	0.027	n/a	NoResponse	0	n/a	n/a	2	21	Cue	Neutral	False
207.478	4.1	Control	0.7273000000000001	0.0	No	2.773	0.001	2.0	NoResponse	0	3.096	209.574	2	21	Fixation	Neutral	False
210.574	0.3	Control	0.7273000000000001	0.0	No	2.773	0.001	2.0	NoResponse	0	3.096	n/a	2	21	ButtonPress	Neutral	False
211.573	0.19	Control	0.7273000000000001	0.004	No	2.773	-0.004	2.0	NoResponse	0	0.214	210.787	2	21	Target	Neutral	False
211.774	0.51	Control	0.7273000000000001	n/a	No	2.773	n/a	n/a	NoResponse	0	n/a	n/a	2	21	Blank	Neutral	False
211.787	0.3	Control	0.7273000000000001	0.004	No	2.773	-0.004	2.0	NoResponse	0	0.214	n/a	2	21	ButtonPress	Neutral	False
212.275	1.45	Control	0.7273000000000001	n/a	No	2.773	n/a	5.0	NoResponse	0	0.039	211.314	2	21	Feedback	Neutral	False
213.73	2.773	Control	0.7273000000000001	n/a	No	2.773	n/a	n/a	NoResponse	0	0.0	n/a	2	21	ISIslide	Neutral	False
216.521	0.25	Control	0.6957	0.001	No	2.779	0.021	n/a	NoResponse	0	n/a	n/a	2	22	Cue	Neutral	True
216.772	4.0	Control	0.6957	0.0	No	2.779	0.001	n/a	NoResponse	0	n/a	n/a	2	22	Fixation	Neutral	True
220.768	0.18	Control	0.6957	0.003	No	2.779	-0.003	2.0	NoResponse	0	0.198	219.966	2	22	Target	Neutral	True
220.951	0.52	Control	0.6957	n/a	No	2.779	n/a	n/a	NoResponse	0	n/a	n/a	2	22	Blank	Neutral	True
220.966	0.3	Control	0.6957	0.003	No	2.779	-0.003	2.0	NoResponse	0	0.198	n/a	2	22	ButtonPress	Neutral	True
221.47	1.45	Control	0.6957	n/a	No	2.779	n/a	5.0	NoResponse	0	0.015	220.485	2	22	Feedback	Neutral	True
222.924	2.779	Control	0.6957	n/a	No	2.779	n/a	n/a	NoResponse	0	0.0	n/a	2	22	ISIslide	Neutral	True
225.716	0.25	Control	0.6667000000000001	0.0	No	2.784	0.016	n/a	NoResponse	0	n/a	n/a	2	23	Cue	Neutral	True
225.966	3.9	Control	0.6667000000000001	0.0	No	2.784	0.0	n/a	NoResponse	0	n/a	n/a	2	23	Fixation	Neutral	True
229.878	0.17	Control	0.6667000000000001	0.0	No	2.784	0.012	2.0	NoResponse	0	0.229	229.107	2	23	Target	Neutral	True
230.045	0.53	Control	0.6667000000000001	n/a	No	2.784	n/a	n/a	NoResponse	0	n/a	n/a	2	23	Blank	Neutral	True
230.107	0.3	Control	0.6667000000000001	0.0	No	2.784	0.012	2.0	NoResponse	0	0.229	n/a	2	23	ButtonPress	Neutral	True
230.563	1.45	Control	0.6667000000000001	n/a	No	2.784	n/a	5.0	NoResponse	0	0.044	229.607	2	23	Feedback	Neutral	True
232.018	2.784	Control	0.6667000000000001	n/a	No	2.784	n/a	n/a	NoResponse	0	0.0	n/a	2	23	ISIslide	Neutral	True
234.826	0.25	Win2	0.64	0.0	No	3.124	0.026	n/a	LatePress	0	n/a	n/a	2	24	Cue	MissedWin	True
235.077	3.95	Win2	0.64	0.0	No	3.124	0.001	n/a	LatePress	0	n/a	n/a	2	24	Fixation	MissedWin	True
239.022	0.16	Win2	0.64	0.004	No	3.124	-0.004	2.0	LatePress	0	0.166	238.188	2	24	Target	MissedWin	True
239.188	0.3	Win2	0.64	0.004	No	3.124	-0.004	2.0	LatePress	0	0.166	n/a	2	24	ButtonPress	MissedWin	True
239.189	0.54	Win2	0.64	n/a	No	3.124	n/a	n/a	LatePress	0	n/a	n/a	2	24	Blank	MissedWin	True
239.724	1.45	Win2	0.64	n/a	No	3.124	n/a	5.0	LatePress	0	0.006	238.73	2	24	Feedback	MissedWin	True
241.179	3.124	Win2	0.64	n/a	No	3.124	n/a	n/a	LatePress	0	0.0	n/a	2	24	ISIslide	MissedWin	True
244.321	0.25	Win2	0.6154	0.0	No	3.079	0.021	n/a	NoResponse	0	n/a	n/a	2	25	Cue	MissedWin	False
244.572	4.0	Win2	0.6154	0.0	No	3.079	0.001	2.0	NoResponse	0	2.78	246.352	2	25	Fixation	MissedWin	False
247.352	0.3	Win2	0.6154	0.0	No	3.079	0.001	2.0	NoResponse	0	2.78	n/a	2	25	ButtonPress	MissedWin	False
248.567	0.17	Win2	0.6154	0.004	No	3.079	-0.004	2.0	NoResponse	0	0.214	247.781	2	25	Target	MissedWin	False
248.751	0.53	Win2	0.6154	n/a	No	3.079	n/a	n/a	NoResponse	0	n/a	n/a	2	25	Blank	MissedWin	False
248.781	0.3	Win2	0.6154	0.004	No	3.079	-0.004	2.0	NoResponse	0	0.214	n/a	2	25	ButtonPress	MissedWin	False
249.269	1.45	Win2	0.6154	n/a	No	3.079	n/a	5.0	NoResponse	0	0.02	248.289	2	25	Feedback	MissedWin	False
250.724	3.079	Win2	0.6154	n/a	No	3.079	n/a	n/a	NoResponse	0	0.0	n/a	2	25	ISIslide	MissedWin	False
253.816	0.25	Win2	0.5926	0.0	No	2.934	0.016	n/a	NoResponse	0	n/a	n/a	2	26	Cue	MissedWin	True
254.067	3.95	Win2	0.5926	0.0	No	2.934	0.001	n/a	NoResponse	0	n/a	n/a	2	26	Fixation	MissedWin	True
258.012	0.18	Win2	0.5926	0.004	No	2.934	-0.004	2.0	NoResponse	0	0.193	257.205	2	26	Target	MissedWin	True
258.196	0.52	Win2	0.5926	n/a	No	2.934	n/a	n/a	NoResponse	0	n/a	n/a	2	26	Blank	MissedWin	True
258.205	0.3	Win2	0.5926	0.004	No	2.934	-0.004	2.0	NoResponse	0	0.193	n/a	2	26	ButtonPress	MissedWin	True
258.714	1.45	Win2	0.5926	n/a	No	2.934	n/a	5.0	NoResponse	0	0.039	257.753	2	26	Feedback	MissedWin	True
260.169	2.934	Win2	0.5926	n/a	No	2.934	n/a	n/a	NoResponse	0	0.0	n/a	2	26	ISIslide	MissedWin	True
263.127	0.25	Lose2	0.5714	0.001	No	2.823	0.027	n/a	LatePress	-1	n/a	n/a	1	27	Cue	Loss	True
263.378	4.05	Lose2	0.5714	0.0	No	2.823	0.001	n/a	LatePress	-1	n/a	n/a	1	27	Fixation	Loss	True
267.424	0.19	Lose2	0.5714	0.003	No	2.823	-0.003	2.0	LatePress	-1	0.196	266.62	1	27	Target	Loss	True
267.62	0.3	Lose2	0.5714	0.003	No	2.823	-0.003	2.0	LatePress	-1	0.196	n/a	1	27	ButtonPress	Loss	True
267.624	0.51	Lose2	0.5714	n/a	No	2.823	n/a	n/a	LatePress	-1	n/a	n/a	1	27	Blank	Loss	True
268.126	1.45	Lose2	0.5714	n/a	No	2.823	n/a	5.0	LatePress	-1	0.041	267.167	1	27	Feedback	Loss	True
269.58	2.823	Lose2	0.5714	n/a	No	2.823	n/a	n/a	LatePress	-1	0.0	n/a	1	27	ISIslide	Loss	True
272.422	0.25	Control	0.5517	0.0	No	2.828	0.022	n/a	NoResponse	0	n/a	n/a	1	28	Cue	Neutral	True
272.673	4.05	Control	0.5517	0.0	No	2.828	0.001	n/a	NoResponse	0	n/a	n/a	1	28	Fixation	Neutral	True
276.718	0.2	Control	0.5517	0.004	No	2.828	-0.004	2.0	NoResponse	0	0.226	275.944	1	28	Target	Neutral	True
276.919	0.5	Control	0.5517	n/a	No	2.828	n/a	n/a	NoResponse	0	n/a	n/a	1	28	Blank	Neutral	True
276.944	0.3	Control	0.5517	0.004	No	2.828	-0.004	2.0	NoResponse	0	0.226	n/a	1	28	ButtonPress	Neutral	True
277.42	1.45	Control	0.5517	n/a	No	2.828	n/a	5.0	NoResponse	0	0.016	276.436	1	28	Feedback	Neutral	True
278.875	2.828	Control	0.5517	n/a	No	2.828	n/a	n/a	NoResponse	0	0.0	n/a	1	28	ISIslide	Neutral	True
281.716	0.25	Lose2	0.5333	0.0	No	2.834	0.016	n/a	NoResponse	-1	n/a	n/a	0	29	Cue	Loss	True
281.967	3.95	Lose2	0.5333	0.0	No	2.834	0.001	n/a	NoResponse	-1	n/a	n/a	0	29	Fixation	Loss	True
285.912	0.21	Lose2	0.5333	0.004	No	2.834	-0.004	2.0	NoResponse	-1	0.229	285.141	0	29	Target	Loss	True
286.13	0.49	Lose2	0.5333	n/a	No	2.834	n/a	n/a	NoResponse	-1	n/a	n/a	0	29	Blank	Loss	True
286.141	0.3	Lose2	0.5333	0.004	No	2.834	-0.004	2.0	NoResponse	-1	0.229	n/a	0	29	ButtonPress	Loss	True
286.614	1.45	Lose2	0.5333	n/a	No	2.834	n/a	5.0	NoResponse	-1	0.04	285.654	0	29	Feedback	Loss	True
288.069	2.834	Lose2	0.5333	n/a	No	2.834	n/a	n/a	NoResponse	-1	0.0	n/a	0	29	ISIslide	Loss	True
290.927	0.25	Win2	0.5161	0.0	No	2.773	0.027	n/a	NoResponse	0	n/a	n/a	0	30	Cue	MissedWin	False
291.178	3.9	Win2	0.5161	0.0	No	2.773	0.001	2.0	NoResponse	0	1.472	291.65	0	30	Fixation	MissedWin	False
292.65	0.3	Win2	0.5161	0.0	No	2.773	0.001	2.0	NoResponse	0	1.472	n/a	0	30	ButtonPress	MissedWin	False
295.073	0.22	Win2	0.5161	0.004	No	2.773	-0.004	2.0	NoResponse	0	0.403	294.476	0	30	Target	MissedWin	False
295.307	0.48	Win2	0.5161	n/a	No	2.773	n/a	n/a	NoResponse	0	n/a	n/a	0	30	Blank	MissedWin	False
295.476	0.3	Win2	0.5161	0.004	No	2.773	-0.004	2.0	NoResponse	0	0.403	n/a	0	30	ButtonPress	MissedWin	False
295.775	1.45	Win2	0.5161	n/a	No	2.773	n/a	5.0	NoResponse	0	0.001	294.776	0	30	Feedback	MissedWin	False
297.229	2.773	Win2	0.5161	n/a	No	2.773	n/a	n/a	NoResponse	0	0.0	n/a	0	30	ISIslide	MissedWin	False
300.021	0.25	Lose2	0.5312	0.0	Yes	2.829	0.021	n/a	GoodResponse	0	n/a	n/a	0	31	Cue	AvoidedLoss	True
300.272	4.05	Lose2	0.5312	0.0	Yes	2.829	0.001	n/a	GoodResponse	0	n/a	n/a	0	31	Fixation	AvoidedLoss	True
304.317	0.23	Lose2	0.5312	0.004	Yes	2.829	-0.004	2.0	GoodResponse	0	0.217	303.534	0	31	Target	AvoidedLoss	True
304.534	0.3	Lose2	0.5312	0.004	Yes	2.829	-0.004	2.0	GoodResponse	0	0.217	n/a	0	31	ButtonPress	AvoidedLoss	True
304.551	0.47	Lose2	0.5312	n/a	Yes	2.829	n/a	n/a	GoodResponse	0	n/a	n/a	0	31	Blank	AvoidedLoss	True
305.019	1.45	Lose2	0.5312	n/a	Yes	2.829	n/a	5.0	GoodResponse	0	0.026	304.045	0	31	Feedback	AvoidedLoss	True
306.474	2.829	Lose2	0.5312	n/a	Yes	2.829	n/a	n/a	GoodResponse	0	0.0	n/a	0	31	ISIslide	AvoidedLoss	True
309.316	0.25	Lose2	0.5455	0.0	Yes	2.634	0.016	n/a	GoodResponse	0	n/a	n/a	0	32	Cue	AvoidedLoss	True
309.566	4.15	Lose2	0.5455	0.0	Yes	2.634	0.0	n/a	GoodResponse	0	n/a	n/a	0	32	Fixation	AvoidedLoss	True
313.712	0.24	Lose2	0.5455	0.004	Yes	2.634	-0.004	2.0	GoodResponse	0	0.188	312.9	0	32	Target	AvoidedLoss	True
313.9	0.3	Lose2	0.5455	0.004	Yes	2.634	-0.004	2.0	GoodResponse	0	0.188	n/a	0	32	ButtonPress	AvoidedLoss	True
313.963	0.46	Lose2	0.5455	n/a	Yes	2.634	n/a	n/a	GoodResponse	0	n/a	n/a	0	32	Blank	AvoidedLoss	True
314.414	1.45	Lose2	0.5455	n/a	Yes	2.634	n/a	5.0	GoodResponse	0	0.046	313.46	0	32	Feedback	AvoidedLoss	True
315.869	2.634	Lose2	0.5455	n/a	Yes	2.634	n/a	n/a	GoodResponse	0	0.0	n/a	0	32	ISIslide	AvoidedLoss	True
318.526	0.25	Win2	0.5588000000000001	0.001	Yes	2.674	0.026	n/a	GoodResponse	1	n/a	n/a	1	33	Cue	Win	True
318.777	4.0	Win2	0.5588000000000001	0.0	Yes	2.674	0.001	n/a	GoodResponse	1	n/a	n/a	1	33	Fixation	Win	True
322.772	0.25	Win2	0.5588000000000001	0.004	Yes	2.674	-0.004	2.0	GoodResponse	1	0.216	321.988	1	33	Target	Win	True
322.988	0.3	Win2	0.5588000000000001	0.004	Yes	2.674	-0.004	2.0	GoodResponse	1	0.216	n/a	1	33	ButtonPress	Win	True
323.023	0.45	Win2	0.5588000000000001	n/a	Yes	2.674	n/a	n/a	GoodResponse	1	n/a	n/a	1	33	Blank	Win	True
323.475	1.45	Win2	0.5588000000000001	n/a	Yes	2.674	n/a	5.0	GoodResponse	1	0.008	322.483	1	33	Feedback	Win	True
324.929	2.674	Win2	0.5588000000000001	n/a	Yes	2.674	n/a	n/a	GoodResponse	1	0.0	n/a	1	33	ISIslide	Win	True
327.62	0.25	Lose2	0.5714	0.0	Yes	2.63	0.02	n/a	GoodResponse	0	n/a	n/a	1	34	Cue	AvoidedLoss	True
327.871	4.05	Lose2	0.5714	0.0	Yes	2.63	0.001	n/a	GoodResponse	0	n/a	n/a	1	34	Fixation	AvoidedLoss	True
331.916	0.26	Lose2	0.5714	0.004	Yes	2.63	-0.004	2.0	GoodResponse	0	0.214	331.13	1	34	Target	AvoidedLoss	True
332.13	0.3	Lose2	0.5714	0.004	Yes	2.63	-0.004	2.0	GoodResponse	0	0.214	n/a	1	34	ButtonPress	AvoidedLoss	True
332.184	0.44	Lose2	0.5714	n/a	Yes	2.63	n/a	n/a	GoodResponse	0	n/a	n/a	1	34	Blank	AvoidedLoss	True
332.619	1.45	Lose2	0.5714	n/a	Yes	2.63	n/a	5.0	GoodResponse	0	0.035	331.654	1	34	Feedback	AvoidedLoss	True
334.073	2.63	Lose2	0.5714	n/a	Yes	2.63	n/a	n/a	GoodResponse	0	0.0	n/a	1	34	ISIslide	AvoidedLoss	True
336.731	0.25	Lose2	0.5832999999999999	0.0	Yes	2.669	0.031	n/a	GoodResponse	0	n/a	n/a	1	35	Cue	AvoidedLoss	True
336.982	4.0	Lose2	0.5832999999999999	0.0	Yes	2.669	0.001	n/a	GoodResponse	0	n/a	n/a	1	35	Fixation	AvoidedLoss	True
340.977	0.27	Lose2	0.5832999999999999	0.004	Yes	2.669	-0.004	2.0	GoodResponse	0	0.195	340.172	1	35	Target	AvoidedLoss	True
341.172	0.3	Lose2	0.5832999999999999	0.004	Yes	2.669	-0.004	2.0	GoodResponse	0	0.195	n/a	1	35	ButtonPress	AvoidedLoss	True
341.261	0.43	Lose2	0.5832999999999999	n/a	Yes	2.669	n/a	n/a	GoodResponse	0	n/a	n/a	1	35	Blank	AvoidedLoss	True
341.679	1.45	Lose2	0.5832999999999999	n/a	Yes	2.669	n/a	5.0	GoodResponse	0	0.048	340.727	1	35	Feedback	AvoidedLoss	True
343.133	2.669	Lose2	0.5832999999999999	n/a	Yes	2.669	n/a	n/a	GoodResponse	0	0.0	n/a	1	35	ISIslide	AvoidedLoss	True
345.825	0.25	Control	0.5946	0.0	Yes	2.675	0.025	n/a	GoodResponse	0	n/a	n/a	1	36	Cue	Neutral	True
346.076	4.0	Control	0.5946	0.0	Yes	2.675	0.001	n/a	GoodResponse	0	n/a	n/a	1	36	Fixation	Neutral	True
350.071	0.28	Control	0.5946	0.004	Yes	2.675	-0.004	2.0	GoodResponse	0	0.194	349.265	1	36	Target	Neutral	True
350.265	0.3	Control	0.5946	0.004	Yes	2.675	-0.004	2.0	GoodResponse	0	0.194	n/a	1	36	ButtonPress	Neutral	True
350.355	0.42	Control	0.5946	n/a	Yes	2.675	n/a	n/a	GoodResponse	0	n/a	n/a	1	36	Blank	Neutral	True
350.773	1.45	Control	0.5946	n/a	Yes	2.675	n/a	5.0	GoodResponse	0	0.027	349.8	1	36	Feedback	Neutral	True
352.227	2.675	Control	0.5946	n/a	Yes	2.675	n/a	n/a	GoodResponse	0	0.0	n/a	1	36	ISIslide	Neutral	True
354.919	0.25	Win2	0.6053000000000001	0.0	Yes	2.881	0.019	n/a	GoodResponse	1	n/a	n/a	2	37	Cue	Win	True
355.169	4.0	Win2	0.6053000000000001	0.0	Yes	2.881	0.0	n/a	GoodResponse	1	n/a	n/a	2	37	Fixation	Win	True
359.165	0.29	Win2	0.6053000000000001	0.004	Yes	2.881	-0.004	2.0	GoodResponse	1	0.195	358.36	2	37	Target	Win	True
359.36	0.3	Win2	0.6053000000000001	0.004	Yes	2.881	-0.004	2.0	GoodResponse	1	0.195	n/a	2	37	ButtonPress	Win	True
359.466	0.41	Win2	0.6053000000000001	n/a	Yes	2.881	n/a	n/a	GoodResponse	1	n/a	n/a	2	37	Blank	Win	True
359.867	1.45	Win2	0.6053000000000001	n/a	Yes	2.881	n/a	5.0	GoodResponse	1	0.007	358.874	2	37	Feedback	Win	True
361.321	2.881	Win2	0.6053000000000001	n/a	Yes	2.881	n/a	n/a	GoodResponse	1	0.0	n/a	2	37	ISIslide	Win	True
364.23	0.25	Lose2	0.5897	0.0	No	2.82	0.03	n/a	NoResponse	-1	n/a	n/a	1	38	Cue	Loss	True
364.481	3.95	Lose2	0.5897	0.0	No	2.82	0.001	n/a	NoResponse	-1	n/a	n/a	1	38	Fixation	Loss	True
368.426	0.3	Lose2	0.5897	0.004	No	2.82	-0.004	2.0	NoResponse	-1	0.344	367.77	1	38	Target	Loss	True
368.727	0.4	Lose2	0.5897	n/a	No	2.82	n/a	n/a	NoResponse	-1	n/a	n/a	1	38	Blank	Loss	True
368.77	0.3	Lose2	0.5897	0.004	No	2.82	-0.004	2.0	NoResponse	-1	0.344	n/a	1	38	ButtonPress	Loss	True
369.128	1.45	Lose2	0.5897	n/a	No	2.82	n/a	5.0	NoResponse	-1	0.013	368.141	1	38	Feedback	Loss	True
370.582	2.82	Lose2	0.5897	n/a	No	2.82	n/a	n/a	NoResponse	-1	0.0	n/a	1	38	ISIslide	Loss	True
373.424	0.25	Win2	0.6	0.0	Yes	2.976	0.024	n/a	GoodResponse	1	n/a	n/a	2	39	Cue	Win	True
373.675	4.1	Win2	0.6	0.0	Yes	2.976	0.001	n/a	GoodResponse	1	n/a	n/a	2	39	Fixation	Win	True
377.77	0.31	Win2	0.6	0.004	Yes	2.976	-0.004	2.0	GoodResponse	1	0.216	376.986	2	39	Target	Win	True
377.986	0.3	Win2	0.6	0.004	Yes	2.976	-0.004	2.0	GoodResponse	1	0.216	n/a	2	39	ButtonPress	Win	True
378.088	0.39	Win2	0.6	n/a	Yes	2.976	n/a	n/a	GoodResponse	1	n/a	n/a	2	39	Blank	Win	True
378.472	1.45	Win2	0.6	n/a	Yes	2.976	n/a	5.0	GoodResponse	1	0.035	377.507	2	39	Feedback	Win	True
379.927	2.976	Win2	0.6	n/a	Yes	2.976	n/a	n/a	GoodResponse	1	0.0	n/a	2	39	ISIslide	Win	True
382.919	0.25	Win2	0.6098	0.0	Yes	2.731	0.019	n/a	GoodResponse	1	n/a	n/a	3	40	Cue	Win	True
383.17	3.95	Win2	0.6098	0.0	Yes	2.731	0.001	n/a	GoodResponse	1	n/a	n/a	3	40	Fixation	Win	True
387.115	0.32	Win2	0.6098	0.004	Yes	2.731	-0.004	2.0	GoodResponse	1	0.2	386.315	3	40	Target	Win	True
387.315	0.3	Win2	0.6098	0.004	Yes	2.731	-0.004	2.0	GoodResponse	1	0.2	n/a	3	40	ButtonPress	Win	True
387.449	0.38	Win2	0.6098	n/a	Yes	2.731	n/a	n/a	GoodResponse	1	n/a	n/a	3	40	Blank	Win	True
387.817	1.45	Win2	0.6098	n/a	Yes	2.731	n/a	5.0	GoodResponse	1	0.007	386.824	3	40	Feedback	Win	True
389.271	2.731	Win2	0.6098	n/a	Yes	2.731	n/a	n/a	GoodResponse	1	0.0	n/a	3	40	ISIslide	Win	True
392.03	0.25	Win2	0.619	0.0	Yes	2.77	0.03	n/a	GoodResponse	1	n/a	n/a	4	41	Cue	Win	True
392.28	3.9	Win2	0.619	0.0	Yes	2.77	0.0	n/a	GoodResponse	1	n/a	n/a	4	41	Fixation	Win	True
396.192	0.33	Win2	0.619	0.0	Yes	2.77	0.012	2.0	GoodResponse	1	0.207	395.399	4	41	Target	Win	True
396.399	0.3	Win2	0.619	0.0	Yes	2.77	0.012	2.0	GoodResponse	1	0.207	n/a	4	41	ButtonPress	Win	True
396.51	0.37	Win2	0.619	n/a	Yes	2.77	n/a	n/a	GoodResponse	1	n/a	n/a	4	41	Blank	Win	True
396.877	1.45	Win2	0.619	n/a	Yes	2.77	n/a	5.0	GoodResponse	1	0.02	395.897	4	41	Feedback	Win	True
398.332	2.77	Win2	0.619	n/a	Yes	2.77	n/a	n/a	GoodResponse	1	0.0	n/a	4	41	ISIslide	Win	True
401.123	0.25	Control	0.6279	0.0	Yes	2.927	0.023	n/a	GoodResponse	0	n/a	n/a	4	42	Cue	Neutral	True
401.374	3.85	Control	0.6279	0.0	Yes	2.927	0.001	n/a	GoodResponse	0	n/a	n/a	4	42	Fixation	Neutral	True
405.219	0.34	Control	0.6279	0.004	Yes	2.927	-0.004	2.0	GoodResponse	0	0.197	404.416	4	42	Target	Neutral	True
405.416	0.3	Control	0.6279	0.004	Yes	2.927	-0.004	2.0	GoodResponse	0	0.197	n/a	4	42	ButtonPress	Neutral	True
405.57	0.36	Control	0.6279	n/a	Yes	2.927	n/a	n/a	GoodResponse	0	n/a	n/a	4	42	Blank	Neutral	True
405.921	1.45	Control	0.6279	n/a	Yes	2.927	n/a	5.0	GoodResponse	0	0.001	404.922	4	42	Feedback	Neutral	True
407.375	2.927	Control	0.6279	n/a	Yes	2.927	n/a	n/a	GoodResponse	0	0.0	n/a	4	42	ISIslide	Neutral	True
410.318	0.25	Win2	0.6364	0.0	Yes	3.182	0.018	n/a	GoodResponse	1	n/a	n/a	5	43	Cue	Win	True
410.568	4.0	Win2	0.6364	0.0	Yes	3.182	0.0	n/a	GoodResponse	1	n/a	n/a	5	43	Fixation	Win	True
414.564	0.35	Win2	0.6364	0.004	Yes	3.182	-0.004	2.0	GoodResponse	1	0.23	413.794	5	43	Target	Win	True
414.794	0.3	Win2	0.6364	0.004	Yes	3.182	-0.004	2.0	GoodResponse	1	0.23	n/a	5	43	ButtonPress	Win	True
414.915	0.35	Win2	0.6364	n/a	Yes	3.182	n/a	n/a	GoodResponse	1	n/a	n/a	5	43	Blank	Win	True
415.266	1.45	Win2	0.6364	n/a	Yes	3.182	n/a	5.0	GoodResponse	1	0.021	414.287	5	43	Feedback	Win	True
416.72	3.182	Win2	0.6364	n/a	Yes	3.182	n/a	n/a	GoodResponse	1	0.0	n/a	5	43	ISIslide	Win	True
419.93	0.25	Win2	0.6444	0.0	Yes	2.97	0.03	n/a	GoodResponse	1	n/a	n/a	6	44	Cue	Win	True
420.18	4.0	Win2	0.6444	0.0	Yes	2.97	0.0	n/a	GoodResponse	1	n/a	n/a	6	44	Fixation	Win	True
424.176	0.36	Win2	0.6444	0.004	Yes	2.97	-0.004	2.0	GoodResponse	1	0.219	423.395	6	44	Target	Win	True
424.395	0.3	Win2	0.6444	0.004	Yes	2.97	-0.004	2.0	GoodResponse	1	0.219	n/a	6	44	ButtonPress	Win	True
424.543	0.34	Win2	0.6444	n/a	Yes	2.97	n/a	n/a	GoodResponse	1	n/a	n/a	6	44	Blank	Win	True
424.878	1.45	Win2	0.6444	n/a	Yes	2.97	n/a	5.0	GoodResponse	1	0.019	423.897	6	44	Feedback	Win	True
426.332	2.97	Win2	0.6444	n/a	Yes	2.97	n/a	n/a	GoodResponse	1	0.0	n/a	6	44	ISIslide	Win	True
429.324	0.25	Control	0.6522	0.0	Yes	2.876	0.024	n/a	GoodResponse	0	n/a	n/a	6	45	Cue	Neutral	True
429.575	4.1	Control	0.6522	0.0	Yes	2.876	0.001	n/a	GoodResponse	0	n/a	n/a	6	45	Fixation	Neutral	True
433.671	0.37	Control	0.6522	0.003	Yes	2.876	-0.003	2.0	GoodResponse	0	0.201	432.872	6	45	Target	Neutral	True
433.872	0.3	Control	0.6522	0.003	Yes	2.876	-0.003	2.0	GoodResponse	0	0.201	n/a	6	45	ButtonPress	Neutral	True
434.055	0.33	Control	0.6522	n/a	Yes	2.876	n/a	n/a	GoodResponse	0	n/a	n/a	6	45	Blank	Neutral	True
434.373	1.45	Control	0.6522	n/a	Yes	2.876	n/a	5.0	GoodResponse	0	0.036	433.409	6	45	Feedback	Neutral	True
435.827	2.876	Control	0.6522	n/a	Yes	2.876	n/a	n/a	GoodResponse	0	0.0	n/a	6	45	ISIslide	Neutral	True
438.719	0.25	Lose2	0.6596	0.0	Yes	3.381	0.019	n/a	GoodResponse	0	n/a	n/a	6	46	Cue	AvoidedLoss	True
438.97	4.0	Lose2	0.6596	0.0	Yes	3.381	0.001	n/a	GoodResponse	0	n/a	n/a	6	46	Fixation	AvoidedLoss	True
442.965	0.38	Lose2	0.6596	0.004	Yes	3.381	-0.004	2.0	GoodResponse	0	0.188	442.153	6	46	Target	AvoidedLoss	True
443.153	0.3	Lose2	0.6596	0.004	Yes	3.381	-0.004	2.0	GoodResponse	0	0.188	n/a	6	46	ButtonPress	AvoidedLoss	True
443.35	0.32	Lose2	0.6596	n/a	Yes	3.381	n/a	n/a	GoodResponse	0	n/a	n/a	6	46	Blank	AvoidedLoss	True
443.667	1.45	Lose2	0.6596	n/a	Yes	3.381	n/a	5.0	GoodResponse	0	0.01	442.677	6	46	Feedback	AvoidedLoss	True
445.122	3.381	Lose2	0.6596	n/a	Yes	3.381	n/a	n/a	GoodResponse	0	0.0	n/a	6	46	ISIslide	AvoidedLoss	True
448.515	0.25	Lose2	0.6667000000000001	0.0	Yes	2.685	0.015	n/a	GoodResponse	0	n/a	n/a	6	47	Cue	AvoidedLoss	True
448.766	4.0	Lose2	0.6667000000000001	0.0	Yes	2.685	0.001	n/a	GoodResponse	0	n/a	n/a	6	47	Fixation	AvoidedLoss	True
452.761	0.38	Lose2	0.6667000000000001	0.004	Yes	2.685	-0.004	2.0	GoodResponse	0	0.207	451.968	6	47	Target	AvoidedLoss	True
452.968	0.3	Lose2	0.6667000000000001	0.004	Yes	2.685	-0.004	2.0	GoodResponse	0	0.207	n/a	6	47	ButtonPress	AvoidedLoss	True
453.146	0.32	Lose2	0.6667000000000001	n/a	Yes	2.685	n/a	n/a	GoodResponse	0	n/a	n/a	6	47	Blank	AvoidedLoss	True
453.463	1.45	Lose2	0.6667000000000001	n/a	Yes	2.685	n/a	5.0	GoodResponse	0	0.018	452.481	6	47	Feedback	AvoidedLoss	True
454.918	2.685	Lose2	0.6667000000000001	n/a	Yes	2.685	n/a	n/a	GoodResponse	0	0.0	n/a	6	47	ISIslide	AvoidedLoss	True
457.626	0.25	Lose2	0.6735	0.0	Yes	3.024	0.026	n/a	GoodResponse	0	n/a	n/a	6	48	Cue	AvoidedLoss	True
457.876	3.95	Lose2	0.6735	0.001	Yes	3.024	0.0	n/a	GoodResponse	0	n/a	n/a	6	48	Fixation	AvoidedLoss	True
461.822	0.37	Lose2	0.6735	0.004	Yes	3.024	-0.004	2.0	GoodResponse	0	0.221	461.043	6	48	Target	AvoidedLoss	True
462.043	0.3	Lose2	0.6735	0.004	Yes	3.024	-0.004	2.0	GoodResponse	0	0.221	n/a	6	48	ButtonPress	AvoidedLoss	True
462.206	0.33	Lose2	0.6735	n/a	Yes	3.024	n/a	n/a	GoodResponse	0	n/a	n/a	6	48	Blank	AvoidedLoss	True
462.524	1.45	Lose2	0.6735	n/a	Yes	3.024	n/a	5.0	GoodResponse	0	0.031	461.555	6	48	Feedback	AvoidedLoss	True
463.978	3.024	Lose2	0.6735	n/a	Yes	3.024	n/a	n/a	GoodResponse	0	0.0	n/a	6	48	ISIslide	AvoidedLoss	True
467.02	0.25	Control	0.68	0.001	Yes	2.88	0.02	n/a	GoodResponse	0	n/a	n/a	6	49	Cue	Neutral	True
467.271	4.0	Control	0.68	0.0	Yes	2.88	0.001	n/a	GoodResponse	0	n/a	n/a	6	49	Fixation	Neutral	True
471.266	0.36	Control	0.68	0.004	Yes	2.88	-0.004	2.0	GoodResponse	0	0.252	470.518	6	49	Target	Neutral	True
471.518	0.3	Control	0.68	0.004	Yes	2.88	-0.004	2.0	GoodResponse	0	0.252	n/a	6	49	ButtonPress	Neutral	True
471.634	0.34	Control	0.68	n/a	Yes	2.88	n/a	n/a	GoodResponse	0	n/a	n/a	6	49	Blank	Neutral	True
471.969	1.45	Control	0.68	n/a	Yes	2.88	n/a	5.0	GoodResponse	0	0.0	470.969	6	49	Feedback	Neutral	True
473.423	2.88	Control	0.68	n/a	Yes	2.88	n/a	n/a	GoodResponse	0	0.0	n/a	6	49	ISIslide	Neutral	True
476.315	0.25	Control	0.6667000000000001	0.0	No	2.785	0.015	n/a	NoResponse	0	n/a	n/a	6	50	Cue	Neutral	True
476.566	4.0	Control	0.6667000000000001	0.0	No	2.785	0.001	n/a	NoResponse	0	n/a	n/a	6	50	Fixation	Neutral	True
480.561	0.35	Control	0.6667000000000001	0.004	No	2.785	-0.004	2.0	NoResponse	0	0.376	479.937	6	50	Target	Neutral	True
480.912	0.35	Control	0.6667000000000001	n/a	No	2.785	n/a	n/a	NoResponse	0	n/a	n/a	6	50	Blank	Neutral	True
480.937	0.3	Control	0.6667000000000001	0.004	No	2.785	-0.004	2.0	NoResponse	0	0.376	n/a	6	50	ButtonPress	Neutral	True
481.263	1.45	Control	0.6667000000000001	n/a	No	2.785	n/a	5.0	NoResponse	0	0.024	480.287	6	50	Feedback	Neutral	True
482.717	2.785	Control	0.6667000000000001	n/a	No	2.785	n/a	n/a	NoResponse	0	0.0	n/a	6	50	ISIslide	Neutral	True
485.526	0.25	Control	0.6731	0.0	Yes	2.724	0.026	n/a	GoodResponse	0	n/a	n/a	6	51	Cue	Neutral	True
485.777	3.95	Control	0.6731	0.0	Yes	2.724	0.001	n/a	GoodResponse	0	n/a	n/a	6	51	Fixation	Neutral	True
489.722	0.34	Control	0.6731	0.004	Yes	2.724	-0.004	2.0	GoodResponse	0	0.297	489.019	6	51	Target	Neutral	True
490.019	0.3	Control	0.6731	0.004	Yes	2.724	-0.004	2.0	GoodResponse	0	0.297	n/a	6	51	ButtonPress	Neutral	True
490.073	0.36	Control	0.6731	n/a	Yes	2.724	n/a	n/a	GoodResponse	0	n/a	n/a	6	51	Blank	Neutral	True
490.424	1.45	Control	0.6731	n/a	Yes	2.724	n/a	5.0	GoodResponse	0	0.033	489.457	6	51	Feedback	Neutral	True
491.878	2.724	Control	0.6731	n/a	Yes	2.724	n/a	n/a	GoodResponse	0	0.0	n/a	6	51	ISIslide	Neutral	True
494.62	0.25	Control	0.6792	0.0	Yes	2.63	0.02	n/a	GoodResponse	0	n/a	n/a	6	52	Cue	Neutral	True
494.87	4.05	Control	0.6792	0.0	Yes	2.63	0.0	n/a	GoodResponse	0	n/a	n/a	6	52	Fixation	Neutral	True
498.916	0.33	Control	0.6792	0.004	Yes	2.63	-0.004	2.0	GoodResponse	0	0.189	498.105	6	52	Target	Neutral	True
499.105	0.3	Control	0.6792	0.004	Yes	2.63	-0.004	2.0	GoodResponse	0	0.189	n/a	6	52	ButtonPress	Neutral	True
499.25	0.37	Control	0.6792	n/a	Yes	2.63	n/a	n/a	GoodResponse	0	n/a	n/a	6	52	Blank	Neutral	True
499.618	1.45	Control	0.6792	n/a	Yes	2.63	n/a	5.0	GoodResponse	0	0.009	498.627	6	52	Feedback	Neutral	True
501.072	2.63	Control	0.6792	n/a	Yes	2.63	n/a	n/a	GoodResponse	0	0.0	n/a	6	52	ISIslide	Neutral	True
503.713	0.25	Win2	0.6851999999999999	0.001	Yes	2.937	0.013	n/a	GoodResponse	1	n/a	n/a	7	53	Cue	Win	True
503.964	4.05	Win2	0.6851999999999999	0.0	Yes	2.937	0.001	n/a	GoodResponse	1	n/a	n/a	7	53	Fixation	Win	True
508.01	0.32	Win2	0.6851999999999999	0.003	Yes	2.937	-0.003	2.0	GoodResponse	1	0.195	507.205	7	53	Target	Win	True
508.205	0.3	Win2	0.6851999999999999	0.003	Yes	2.937	-0.003	2.0	GoodResponse	1	0.195	n/a	7	53	ButtonPress	Win	True
508.344	0.38	Win2	0.6851999999999999	n/a	Yes	2.937	n/a	n/a	GoodResponse	1	n/a	n/a	7	53	Blank	Win	True
508.712	1.45	Win2	0.6851999999999999	n/a	Yes	2.937	n/a	5.0	GoodResponse	1	0.037	507.749	7	53	Feedback	Win	True
510.166	2.937	Win2	0.6851999999999999	n/a	Yes	2.937	n/a	n/a	GoodResponse	1	0.0	n/a	7	53	ISIslide	Win	True
513.125	0.25	Win2	0.6909000000000001	0.0	Yes	2.725	0.025	n/a	GoodResponse	1	n/a	n/a	8	54	Cue	Win	True
513.376	3.95	Win2	0.6909000000000001	0.0	Yes	2.725	0.001	n/a	GoodResponse	1	n/a	n/a	8	54	Fixation	Win	True
517.321	0.31	Win2	0.6909000000000001	0.004	Yes	2.725	-0.004	2.0	GoodResponse	1	0.21	516.531	8	54	Target	Win	True
517.531	0.3	Win2	0.6909000000000001	0.004	Yes	2.725	-0.004	2.0	GoodResponse	1	0.21	n/a	8	54	ButtonPress	Win	True
517.638	0.39	Win2	0.6909000000000001	n/a	Yes	2.725	n/a	n/a	GoodResponse	1	n/a	n/a	8	54	Blank	Win	True
518.023	1.45	Win2	0.6909000000000001	n/a	Yes	2.725	n/a	5.0	GoodResponse	1	0.043	517.066	8	54	Feedback	Win	True
519.477	2.725	Win2	0.6909000000000001	n/a	Yes	2.725	n/a	n/a	GoodResponse	1	0.0	n/a	8	54	ISIslide	Win	True
522.219	0.25	Control	0.6964	0.0	Yes	3.031	0.019	n/a	GoodResponse	0	n/a	n/a	8	55	Cue	Neutral	True
522.47	3.95	Control	0.6964	0.0	Yes	3.031	0.001	n/a	GoodResponse	0	n/a	n/a	8	55	Fixation	Neutral	True
526.415	0.3	Control	0.6964	0.004	Yes	3.031	-0.004	2.0	GoodResponse	0	0.22	525.635	8	55	Target	Neutral	True
526.635	0.3	Control	0.6964	0.004	Yes	3.031	-0.004	2.0	GoodResponse	0	0.22	n/a	8	55	ButtonPress	Neutral	True
526.716	0.4	Control	0.6964	n/a	Yes	3.031	n/a	n/a	GoodResponse	0	n/a	n/a	8	55	Blank	Neutral	True
527.117	1.45	Control	0.6964	n/a	Yes	3.031	n/a	5.0	GoodResponse	0	0.023	526.14	8	55	Feedback	Neutral	True
528.571	3.031	Control	0.6964	n/a	Yes	3.031	n/a	n/a	GoodResponse	0	0.0	n/a	8	55	ISIslide	Neutral	True
531.614	0.25	Control	0.6842	0.0	No	2.836	0.014	n/a	NoResponse	0	n/a	n/a	8	56	Cue	Neutral	False
531.864	3.95	Control	0.6842	0.0	No	2.836	0.0	2.0	NoResponse	0	0.616	531.48	8	56	Fixation	Neutral	False
532.48	0.3	Control	0.6842	0.0	No	2.836	0.0	2.0	NoResponse	0	0.616	n/a	8	56	ButtonPress	Neutral	False
535.809	0.29	Control	0.6842	0.005	No	2.836	-0.005	2.0	NoResponse	0	0.307	535.116	8	56	Target	Neutral	False
536.11	0.41	Control	0.6842	n/a	No	2.836	n/a	n/a	NoResponse	0	n/a	n/a	8	56	Blank	Neutral	False
536.116	0.3	Control	0.6842	0.005	No	2.836	-0.005	2.0	NoResponse	0	0.307	n/a	8	56	ButtonPress	Neutral	False
536.512	1.45	Control	0.6842	n/a	No	2.836	n/a	5.0	NoResponse	0	0.041	535.553	8	56	Feedback	Neutral	False
537.966	2.836	Control	0.6842	n/a	No	2.836	n/a	n/a	NoResponse	0	0.0	n/a	8	56	ISIslide	Neutral	False
540.824	0.25	Control	0.6724	0.001	No	3.476	0.024	n/a	NoResponse	0	n/a	n/a	8	57	Cue	Neutral	True
541.075	4.0	Control	0.6724	0.0	No	3.476	0.001	n/a	NoResponse	0	n/a	n/a	8	57	Fixation	Neutral	True
545.07	0.28	Control	0.6724	0.004	No	3.476	-0.004	2.0	NoResponse	0	0.338	544.408	8	57	Target	Neutral	True
545.355	0.42	Control	0.6724	n/a	No	3.476	n/a	n/a	NoResponse	0	n/a	n/a	8	57	Blank	Neutral	True
545.408	0.3	Control	0.6724	0.004	No	3.476	-0.004	2.0	NoResponse	0	0.338	n/a	8	57	ButtonPress	Neutral	True
545.773	1.45	Control	0.6724	n/a	No	3.476	n/a	5.0	NoResponse	0	0.0	544.773	8	57	Feedback	Neutral	True
547.227	3.476	Control	0.6724	n/a	No	3.476	n/a	n/a	NoResponse	0	0.0	n/a	8	57	ISIslide	Neutral	True
550.721	0.25	Win2	0.6779999999999999	0.0	Yes	2.729	0.021	n/a	GoodResponse	1	n/a	n/a	9	58	Cue	Win	True
550.971	4.05	Win2	0.6779999999999999	0.001	Yes	2.729	0.0	n/a	GoodResponse	1	n/a	n/a	9	58	Fixation	Win	True
555.017	0.27	Win2	0.6779999999999999	0.004	Yes	2.729	-0.004	2.0	GoodResponse	1	0.215	554.232	9	58	Target	Win	True
555.232	0.3	Win2	0.6779999999999999	0.004	Yes	2.729	-0.004	2.0	GoodResponse	1	0.215	n/a	9	58	ButtonPress	Win	True
555.301	0.43	Win2	0.6779999999999999	n/a	Yes	2.729	n/a	n/a	GoodResponse	1	n/a	n/a	9	58	Blank	Win	True
555.719	1.45	Win2	0.6779999999999999	n/a	Yes	2.729	n/a	5.0	GoodResponse	1	0.005	554.724	9	58	Feedback	Win	True
557.173	2.729	Win2	0.6779999999999999	n/a	Yes	2.729	n/a	n/a	GoodResponse	1	0.0	n/a	9	58	ISIslide	Win	True
559.915	0.25	Lose2	0.6833	0.0	Yes	2.685	0.015	n/a	GoodResponse	0	n/a	n/a	9	59	Cue	AvoidedLoss	True
560.166	4.0	Lose2	0.6833	0.0	Yes	2.685	0.001	n/a	GoodResponse	0	n/a	n/a	9	59	Fixation	AvoidedLoss	True
564.161	0.26	Lose2	0.6833	0.004	Yes	2.685	-0.004	2.0	GoodResponse	0	0.187	563.348	9	59	Target	AvoidedLoss	True
564.348	0.3	Lose2	0.6833	0.004	Yes	2.685	-0.004	2.0	GoodResponse	0	0.187	n/a	9	59	ButtonPress	AvoidedLoss	True
564.428	0.44	Lose2	0.6833	n/a	Yes	2.685	n/a	n/a	GoodResponse	0	n/a	n/a	9	59	Blank	AvoidedLoss	True
564.863	1.45	Lose2	0.6833	n/a	Yes	2.685	n/a	5.0	GoodResponse	0	0.032	563.895	9	59	Feedback	AvoidedLoss	True
566.317	2.685	Lose2	0.6833	n/a	Yes	2.685	n/a	n/a	GoodResponse	0	0.0	n/a	9	59	ISIslide	AvoidedLoss	True
569.025	0.25	Control	0.6720999999999999	0.001	No	2.675	0.025	n/a	NoResponse	0	n/a	n/a	9	60	Cue	Neutral	True
569.276	4.0	Control	0.6720999999999999	0.0	No	2.675	0.001	n/a	NoResponse	0	n/a	n/a	9	60	Fixation	Neutral	True
573.271	0.25	Control	0.6720999999999999	0.004	No	2.675	-0.004	2.0	NoResponse	0	0.29	572.561	9	60	Target	Neutral	True
573.522	0.45	Control	0.6720999999999999	n/a	No	2.675	n/a	n/a	NoResponse	0	n/a	n/a	9	60	Blank	Neutral	True
573.561	0.3	Control	0.6720999999999999	0.004	No	2.675	-0.004	2.0	NoResponse	0	0.29	n/a	9	60	ButtonPress	Neutral	True
573.974	1.45	Control	0.6720999999999999	n/a	No	2.675	n/a	5.0	NoResponse	0	0.043	573.017	9	60	Feedback	Neutral	True
575.428	2.675	Control	0.6720999999999999	n/a	No	2.675	n/a	n/a	NoResponse	0	0.0	n/a	9	60	ISIslide	Neutral	True
578.119	0.25	Lose2	0.6774	0.0	Yes	2.981	0.019	n/a	GoodResponse	0	n/a	n/a	9	61	Cue	AvoidedLoss	True
578.37	4.0	Lose2	0.6774	0.0	Yes	2.981	0.001	n/a	GoodResponse	0	n/a	n/a	9	61	Fixation	AvoidedLoss	True
582.365	0.24	Lose2	0.6774	0.004	Yes	2.981	-0.004	2.0	GoodResponse	0	0.196	581.561	9	61	Target	AvoidedLoss	True
582.561	0.3	Lose2	0.6774	0.004	Yes	2.981	-0.004	2.0	GoodResponse	0	0.196	n/a	9	61	ButtonPress	AvoidedLoss	True
582.616	0.46	Lose2	0.6774	n/a	Yes	2.981	n/a	n/a	GoodResponse	0	n/a	n/a	9	61	Blank	AvoidedLoss	True
583.067	1.45	Lose2	0.6774	n/a	Yes	2.981	n/a	5.0	GoodResponse	0	0.023	582.09	9	61	Feedback	AvoidedLoss	True
584.522	2.981	Lose2	0.6774	n/a	Yes	2.981	n/a	n/a	GoodResponse	0	0.0	n/a	9	61	ISIslide	AvoidedLoss	True
587.514	0.25	Lose2	0.6825	0.0	Yes	2.886	0.014	n/a	GoodResponse	0	n/a	n/a	9	62	Cue	AvoidedLoss	True
587.765	3.9	Lose2	0.6825	0.0	Yes	2.886	0.001	n/a	GoodResponse	0	n/a	n/a	9	62	Fixation	AvoidedLoss	True
591.66	0.23	Lose2	0.6825	0.004	Yes	2.886	-0.004	2.0	GoodResponse	0	0.166	590.826	9	62	Target	AvoidedLoss	True
591.826	0.3	Lose2	0.6825	0.004	Yes	2.886	-0.004	2.0	GoodResponse	0	0.166	n/a	9	62	ButtonPress	AvoidedLoss	True
591.894	0.47	Lose2	0.6825	n/a	Yes	2.886	n/a	n/a	GoodResponse	0	n/a	n/a	9	62	Blank	AvoidedLoss	True
592.362	1.45	Lose2	0.6825	n/a	Yes	2.886	n/a	5.0	GoodResponse	0	0.045	591.407	9	62	Feedback	AvoidedLoss	True
593.816	2.886	Lose2	0.6825	n/a	Yes	2.886	n/a	n/a	GoodResponse	0	0.0	n/a	9	62	ISIslide	AvoidedLoss	True
596.725	0.25	Lose2	0.6875	0.0	Yes	2.625	0.025	n/a	GoodResponse	0	n/a	n/a	9	63	Cue	AvoidedLoss	True
596.976	4.05	Lose2	0.6875	0.0	Yes	2.625	0.001	n/a	GoodResponse	0	n/a	n/a	9	63	Fixation	AvoidedLoss	True
601.021	0.22	Lose2	0.6875	0.004	Yes	2.625	-0.004	2.0	GoodResponse	0	0.198	600.219	9	63	Target	AvoidedLoss	True
601.219	0.3	Lose2	0.6875	0.004	Yes	2.625	-0.004	2.0	GoodResponse	0	0.198	n/a	9	63	ButtonPress	AvoidedLoss	True
601.255	0.48	Lose2	0.6875	n/a	Yes	2.625	n/a	n/a	GoodResponse	0	n/a	n/a	9	63	Blank	AvoidedLoss	True
601.723	1.45	Lose2	0.6875	n/a	Yes	2.625	n/a	5.0	GoodResponse	0	0.001	600.724	9	63	Feedback	AvoidedLoss	True
603.178	2.625	Lose2	0.6875	n/a	Yes	2.625	n/a	n/a	GoodResponse	0	0.0	n/a	9	63	ISIslide	AvoidedLoss	True
605.819	0.25	Win2	0.6769	0.0	No	3.131	0.019	n/a	NoResponse	0	n/a	n/a	9	64	Cue	MissedWin	True
606.07	4.15	Win2	0.6769	0.0	No	3.131	0.001	n/a	NoResponse	0	n/a	n/a	9	64	Fixation	MissedWin	True
610.215	0.21	Win2	0.6769	0.004	No	3.131	-0.004	2.0	NoResponse	0	0.232	609.447	9	64	Target	MissedWin	True
610.433	0.49	Win2	0.6769	n/a	No	3.131	n/a	n/a	NoResponse	0	n/a	n/a	9	64	Blank	MissedWin	True
610.447	0.3	Win2	0.6769	0.004	No	3.131	-0.004	2.0	NoResponse	0	0.232	n/a	9	64	ButtonPress	MissedWin	True
610.917	1.45	Win2	0.6769	n/a	No	3.131	n/a	5.0	NoResponse	0	0.027	609.944	9	64	Feedback	MissedWin	True
612.372	3.131	Win2	0.6769	n/a	No	3.131	n/a	n/a	NoResponse	0	0.0	n/a	9	64	ISIslide	MissedWin	True
615.514	0.25	Control	0.6667000000000001	0.0	No	2.786	0.014	n/a	NoResponse	0	n/a	n/a	9	65	Cue	Neutral	True
615.765	4.0	Control	0.6667000000000001	0.0	No	2.786	0.001	n/a	NoResponse	0	n/a	n/a	9	65	Fixation	Neutral	True
619.76	0.2	Control	0.6667000000000001	0.004	No	2.786	-0.004	2.0	NoResponse	0	0.232	618.992	9	65	Target	Neutral	True
619.961	0.5	Control	0.6667000000000001	n/a	No	2.786	n/a	n/a	NoResponse	0	n/a	n/a	9	65	Blank	Neutral	True
619.992	0.3	Control	0.6667000000000001	0.004	No	2.786	-0.004	2.0	NoResponse	0	0.232	n/a	9	65	ButtonPress	Neutral	True
620.463	1.45	Control	0.6667000000000001	n/a	No	2.786	n/a	5.0	NoResponse	0	0.042	619.505	9	65	Feedback	Neutral	True
621.917	2.786	Control	0.6667000000000001	n/a	No	2.786	n/a	n/a	NoResponse	0	0.0	n/a	9	65	ISIslide	Neutral	True
624.725	0.25	Win2	0.6567000000000001	0.0	No	2.775	0.025	n/a	NoResponse	0	n/a	n/a	9	66	Cue	MissedWin	True
624.976	3.9	Win2	0.6567000000000001	0.0	No	2.775	0.001	n/a	NoResponse	0	n/a	n/a	9	66	Fixation	MissedWin	True
628.871	0.19	Win2	0.6567000000000001	0.004	No	2.775	-0.004	2.0	NoResponse	0	0.206	628.077	9	66	Target	MissedWin	True
629.072	0.51	Win2	0.6567000000000001	n/a	No	2.775	n/a	n/a	NoResponse	0	n/a	n/a	9	66	Blank	MissedWin	True
629.077	0.3	Win2	0.6567000000000001	0.004	No	2.775	-0.004	2.0	NoResponse	0	0.206	n/a	9	66	ButtonPress	MissedWin	True
629.573	1.45	Win2	0.6567000000000001	n/a	No	2.775	n/a	5.0	NoResponse	0	0.004	628.577	9	66	Feedback	MissedWin	True
631.027	2.775	Win2	0.6567000000000001	n/a	No	2.775	n/a	n/a	NoResponse	0	0.0	n/a	9	66	ISIslide	MissedWin	True
633.819	0.25	Control	0.6470999999999999	0.0	No	2.731	0.019	n/a	NoResponse	0	n/a	n/a	9	67	Cue	Neutral	True
634.07	3.95	Control	0.6470999999999999	0.0	No	2.731	0.001	n/a	NoResponse	0	n/a	n/a	9	67	Fixation	Neutral	True
638.015	0.19	Control	0.6470999999999999	0.004	No	2.731	-0.004	2.0	NoResponse	0	0.344	637.359	9	67	Target	Neutral	True
638.216	0.51	Control	0.6470999999999999	n/a	No	2.731	n/a	n/a	NoResponse	0	n/a	n/a	9	67	Blank	Neutral	True
638.359	0.3	Control	0.6470999999999999	0.004	No	2.731	-0.004	2.0	NoResponse	0	0.344	n/a	9	67	ButtonPress	Neutral	True
638.717	1.45	Control	0.6470999999999999	n/a	No	2.731	n/a	5.0	NoResponse	0	0.031	637.748	9	67	Feedback	Neutral	True
640.171	2.731	Control	0.6470999999999999	n/a	No	2.731	n/a	n/a	NoResponse	0	0.0	n/a	9	67	ISIslide	Neutral	True
642.93	0.25	Win2	0.6377	0.0	No	3.07	0.03	n/a	NoResponse	0	n/a	n/a	9	68	Cue	MissedWin	True
643.18	4.0	Win2	0.6377	0.001	No	3.07	0.0	n/a	NoResponse	0	n/a	n/a	9	68	Fixation	MissedWin	True
647.176	0.2	Win2	0.6377	0.004	No	3.07	-0.004	2.0	NoResponse	0	0.22	646.396	9	68	Target	MissedWin	True
647.376	0.5	Win2	0.6377	n/a	No	3.07	n/a	n/a	NoResponse	0	n/a	n/a	9	68	Blank	MissedWin	True
647.396	0.3	Win2	0.6377	0.004	No	3.07	-0.004	2.0	NoResponse	0	0.22	n/a	9	68	ButtonPress	MissedWin	True
647.878	1.45	Win2	0.6377	n/a	No	3.07	n/a	5.0	NoResponse	0	0.041	646.919	9	68	Feedback	MissedWin	True
649.332	3.07	Win2	0.6377	n/a	No	3.07	n/a	n/a	NoResponse	0	0.0	n/a	9	68	ISIslide	MissedWin	True
652.425	0.25	Win2	0.6429	0.0	Yes	3.225	0.025	n/a	GoodResponse	1	n/a	n/a	10	69	Cue	Win	True
652.676	3.95	Win2	0.6429	0.0	Yes	3.225	0.001	n/a	GoodResponse	1	n/a	n/a	10	69	Fixation	Win	True
656.621	0.21	Win2	0.6429	0.004	Yes	3.225	-0.004	2.0	GoodResponse	1	0.185	655.806	10	69	Target	Win	True
656.806	0.3	Win2	0.6429	0.004	Yes	3.225	-0.004	2.0	GoodResponse	1	0.185	n/a	10	69	ButtonPress	Win	True
656.838	0.49	Win2	0.6429	n/a	Yes	3.225	n/a	n/a	GoodResponse	1	n/a	n/a	10	69	Blank	Win	True
657.323	1.45	Win2	0.6429	n/a	Yes	3.225	n/a	5.0	GoodResponse	1	0.01	656.333	10	69	Feedback	Win	True
658.777	3.225	Win2	0.6429	n/a	Yes	3.225	n/a	n/a	GoodResponse	1	0.0	n/a	10	69	ISIslide	Win	True
662.02	0.25	Lose2	0.6479	0.0	Yes	3.03	0.02	n/a	GoodResponse	0	n/a	n/a	10	70	Cue	AvoidedLoss	True
662.271	4.05	Lose2	0.6479	0.0	Yes	3.03	0.001	n/a	GoodResponse	0	n/a	n/a	10	70	Fixation	AvoidedLoss	True
666.316	0.22	Lose2	0.6479	0.004	Yes	3.03	-0.004	2.0	GoodResponse	0	0.188	665.504	10	70	Target	AvoidedLoss	True
666.504	0.3	Lose2	0.6479	0.004	Yes	3.03	-0.004	2.0	GoodResponse	0	0.188	n/a	10	70	ButtonPress	AvoidedLoss	True
666.55	0.48	Lose2	0.6479	n/a	Yes	3.03	n/a	n/a	GoodResponse	0	n/a	n/a	10	70	Blank	AvoidedLoss	True
667.018	1.45	Lose2	0.6479	n/a	Yes	3.03	n/a	5.0	GoodResponse	0	0.022	666.04	10	70	Feedback	AvoidedLoss	True
668.473	3.03	Lose2	0.6479	n/a	Yes	3.03	n/a	n/a	GoodResponse	0	0.0	n/a	10	70	ISIslide	AvoidedLoss	True
671.515	0.25	Win2	0.6528	0.0	Yes	2.735	0.015	n/a	GoodResponse	1	n/a	n/a	11	71	Cue	Win	True
671.766	4.05	Win2	0.6528	0.0	Yes	2.735	0.001	n/a	GoodResponse	1	n/a	n/a	11	71	Fixation	Win	True
675.811	0.23	Win2	0.6528	0.004	Yes	2.735	-0.004	2.0	GoodResponse	1	0.211	675.022	11	71	Target	Win	True
676.022	0.3	Win2	0.6528	0.004	Yes	2.735	-0.004	2.0	GoodResponse	1	0.211	n/a	11	71	ButtonPress	Win	True
676.045	0.47	Win2	0.6528	n/a	Yes	2.735	n/a	n/a	GoodResponse	1	n/a	n/a	11	71	Blank	Win	True
676.513	1.45	Win2	0.6528	n/a	Yes	2.735	n/a	5.0	GoodResponse	1	0.039	675.552	11	71	Feedback	Win	True
677.968	2.735	Win2	0.6528	n/a	Yes	2.735	n/a	n/a	GoodResponse	1	0.0	n/a	11	71	ISIslide	Win	True
680.726	0.25	Win2	0.6437999999999999	0.0	No	2.774	0.026	n/a	LatePress	0	n/a	n/a	11	72	Cue	MissedWin	True
680.977	4.1	Win2	0.6437999999999999	0.0	No	2.774	0.001	n/a	LatePress	0	n/a	n/a	11	72	Fixation	MissedWin	True
685.072	0.24	Win2	0.6437999999999999	0.004	No	2.774	-0.004	2.0	LatePress	0	0.242	684.314	11	72	Target	MissedWin	True
685.314	0.3	Win2	0.6437999999999999	0.004	No	2.774	-0.004	2.0	LatePress	0	0.242	n/a	11	72	ButtonPress	MissedWin	True
685.323	0.46	Win2	0.6437999999999999	n/a	No	2.774	n/a	n/a	LatePress	0	n/a	n/a	11	72	Blank	MissedWin	True
685.774	1.45	Win2	0.6437999999999999	n/a	No	2.774	n/a	5.0	LatePress	0	0.046	684.82	11	72	Feedback	MissedWin	True
687.229	2.774	Win2	0.6437999999999999	n/a	No	2.774	n/a	n/a	LatePress	0	0.0	n/a	11	72	ISIslide	MissedWin	True
690.021	0.25	Win2	0.6486	0.0	Yes	2.679	0.021	n/a	GoodResponse	1	n/a	n/a	12	73	Cue	Win	True
690.271	4.0	Win2	0.6486	0.0	Yes	2.679	0.0	n/a	GoodResponse	1	n/a	n/a	12	73	Fixation	Win	True
694.267	0.25	Win2	0.6486	0.004	Yes	2.679	-0.004	2.0	GoodResponse	1	0.2	693.467	12	73	Target	Win	True
694.467	0.3	Win2	0.6486	0.004	Yes	2.679	-0.004	2.0	GoodResponse	1	0.2	n/a	12	73	ButtonPress	Win	True
694.517	0.45	Win2	0.6486	n/a	Yes	2.679	n/a	n/a	GoodResponse	1	n/a	n/a	12	73	Blank	Win	True
694.969	1.45	Win2	0.6486	n/a	Yes	2.679	n/a	5.0	GoodResponse	1	0.022	693.991	12	73	Feedback	Win	True
696.423	2.679	Win2	0.6486	n/a	Yes	2.679	n/a	n/a	GoodResponse	1	0.0	n/a	12	73	ISIslide	Win	True
699.114	0.25	Lose2	0.6533	0.0	Yes	2.636	0.014	n/a	GoodResponse	0	n/a	n/a	12	74	Cue	AvoidedLoss	True
699.365	4.05	Lose2	0.6533	0.0	Yes	2.636	0.001	n/a	GoodResponse	0	n/a	n/a	12	74	Fixation	AvoidedLoss	True
703.411	0.26	Lose2	0.6533	0.003	Yes	2.636	-0.003	2.0	GoodResponse	0	0.18	702.591	12	74	Target	AvoidedLoss	True
703.591	0.3	Lose2	0.6533	0.003	Yes	2.636	-0.003	2.0	GoodResponse	0	0.18	n/a	12	74	ButtonPress	AvoidedLoss	True
703.678	0.44	Lose2	0.6533	n/a	Yes	2.636	n/a	n/a	GoodResponse	0	n/a	n/a	12	74	Blank	AvoidedLoss	True
704.113	1.45	Lose2	0.6533	n/a	Yes	2.636	n/a	5.0	GoodResponse	0	0.049	703.162	12	74	Feedback	AvoidedLoss	True
705.567	2.636	Lose2	0.6533	n/a	Yes	2.636	n/a	n/a	GoodResponse	0	0.0	n/a	12	74	ISIslide	AvoidedLoss	True
708.225	0.25	Lose2	0.6579	0.0	Yes	2.925	0.025	n/a	GoodResponse	0	n/a	n/a	12	75	Cue	AvoidedLoss	True
708.476	3.95	Lose2	0.6579	0.0	Yes	2.925	0.001	n/a	GoodResponse	0	n/a	n/a	12	75	Fixation	AvoidedLoss	True
712.421	0.27	Lose2	0.6579	0.004	Yes	2.925	-0.004	2.0	GoodResponse	0	0.243	711.664	12	75	Target	AvoidedLoss	True
712.664	0.3	Lose2	0.6579	0.004	Yes	2.925	-0.004	2.0	GoodResponse	0	0.243	n/a	12	75	ButtonPress	AvoidedLoss	True
712.705	0.43	Lose2	0.6579	n/a	Yes	2.925	n/a	n/a	GoodResponse	0	n/a	n/a	12	75	Blank	AvoidedLoss	True
713.123	1.45	Lose2	0.6579	n/a	Yes	2.925	n/a	5.0	GoodResponse	0	0.014	712.137	12	75	Feedback	AvoidedLoss	True
714.577	2.925	Lose2	0.6579	n/a	Yes	2.925	n/a	n/a	GoodResponse	0	0.0	n/a	12	75	ISIslide	AvoidedLoss	True
717.519	0.25	Control	0.6494	0.0	No	3.231	0.019	n/a	NoResponse	0	n/a	n/a	12	76	Cue	Neutral	True
717.77	4.05	Control	0.6494	0.0	No	3.231	0.001	n/a	NoResponse	0	n/a	n/a	12	76	Fixation	Neutral	True
721.816	0.27	Control	0.6494	0.003	No	3.231	-0.003	2.0	NoResponse	0	0.391	721.207	12	76	Target	Neutral	True
722.1	0.43	Control	0.6494	n/a	No	3.231	n/a	n/a	NoResponse	0	n/a	n/a	12	76	Blank	Neutral	True
722.207	0.3	Control	0.6494	0.003	No	3.231	-0.003	2.0	NoResponse	0	0.391	n/a	12	76	ButtonPress	Neutral	True
722.518	1.45	Control	0.6494	n/a	No	3.231	n/a	5.0	NoResponse	0	0.034	721.552	12	76	Feedback	Neutral	True
723.972	3.231	Control	0.6494	n/a	No	3.231	n/a	n/a	NoResponse	0	0.0	n/a	12	76	ISIslide	Neutral	True
727.215	0.25	Lose2	0.6537999999999999	0.0	Yes	2.585	0.015	n/a	GoodResponse	0	n/a	n/a	12	77	Cue	AvoidedLoss	True
727.466	3.95	Lose2	0.6537999999999999	0.0	Yes	2.585	0.001	n/a	GoodResponse	0	n/a	n/a	12	77	Fixation	AvoidedLoss	True
731.411	0.28	Lose2	0.6537999999999999	0.004	Yes	2.585	-0.004	2.0	GoodResponse	0	0.239	730.65	12	77	Target	AvoidedLoss	True
731.65	0.3	Lose2	0.6537999999999999	0.004	Yes	2.585	-0.004	2.0	GoodResponse	0	0.239	n/a	12	77	ButtonPress	AvoidedLoss	True
731.695	0.42	Lose2	0.6537999999999999	n/a	Yes	2.585	n/a	n/a	GoodResponse	0	n/a	n/a	12	77	Blank	AvoidedLoss	True
732.113	1.45	Lose2	0.6537999999999999	n/a	Yes	2.585	n/a	5.0	GoodResponse	0	0.048	731.161	12	77	Feedback	AvoidedLoss	True
733.567	2.585	Lose2	0.6537999999999999	n/a	Yes	2.585	n/a	n/a	GoodResponse	0	0.0	n/a	12	77	ISIslide	AvoidedLoss	True
