onset	duration	cue_type	current_mean_accuracy	duration_error	is_hit	isi_adjusted	onset_delay	response	response_type	reward	rt	rt_time	total_reward	trial_number	trial_phase	trial_type	one_press
11.109	0.25	Control	1.0	0.0	Yes	2.941	0.009	n/a	GoodResponse	0	n/a	n/a	0	0	Cue	Neutral	True
11.359	3.85	Control	1.0	0.0	Yes	2.941	0.0	n/a	GoodResponse	0	n/a	n/a	0	0	Fixation	Neutral	True
15.208	0.4	Control	1.0	0.001	Yes	2.941	-0.001	3.0	GoodResponse	0	0.239	14.447	0	0	Target	Neutral	True
15.447	0.3	Control	1.0	0.001	Yes	2.941	-0.001	3.0	GoodResponse	0	0.239	n/a	0	0	ButtonPress	Neutral	True
15.608	0.3	Control	1.0	n/a	Yes	2.941	n/a	n/a	GoodResponse	0	n/a	n/a	0	0	Blank	Neutral	True
15.908	1.45	Control	1.0	n/a	Yes	2.941	n/a	5.0	GoodResponse	0	0.021	14.929	0	0	Feedback	Neutral	True
17.357	2.941	Control	1.0	n/a	Yes	2.941	n/a	n/a	GoodResponse	0	0.0	n/a	0	0	ISIslide	Neutral	True
20.323	0.25	Lose2	1.0	0.0	Yes	2.777	0.023	n/a	GoodResponse	0	n/a	n/a	0	1	Cue	AvoidedLoss	True
20.573	4.0	Lose2	1.0	0.0	Yes	2.777	0.0	n/a	GoodResponse	0	n/a	n/a	0	1	Fixation	AvoidedLoss	True
24.571	0.39	Lose2	1.0	0.002	Yes	2.777	-0.002	3.0	GoodResponse	0	0.208	23.779	0	1	Target	AvoidedLoss	True
24.779	0.3	Lose2	1.0	0.002	Yes	2.777	-0.002	3.0	GoodResponse	0	0.208	n/a	0	1	ButtonPress	AvoidedLoss	True
24.971	0.31	Lose2	1.0	n/a	Yes	2.777	n/a	n/a	GoodResponse	0	n/a	n/a	0	1	Blank	AvoidedLoss	True
25.271	1.45	Lose2	1.0	n/a	Yes	2.777	n/a	5.0	GoodResponse	0	0.024	24.295	0	1	Feedback	AvoidedLoss	True
26.72	2.777	Lose2	1.0	n/a	Yes	2.777	n/a	n/a	GoodResponse	0	0.0	n/a	0	1	ISIslide	AvoidedLoss	True
29.519	0.25	Control	1.0	0.001	Yes	2.581	0.019	n/a	GoodResponse	0	n/a	n/a	0	2	Cue	Neutral	True
29.769	4.1	Control	1.0	0.0	Yes	2.581	0.0	n/a	GoodResponse	0	n/a	n/a	0	2	Fixation	Neutral	True
33.868	0.38	Control	1.0	0.001	Yes	2.581	-0.001	3.0	GoodResponse	0	0.241	33.109	0	2	Target	Neutral	True
34.109	0.3	Control	1.0	0.001	Yes	2.581	-0.001	3.0	GoodResponse	0	0.241	n/a	0	2	ButtonPress	Neutral	True
34.251	0.32	Control	1.0	n/a	Yes	2.581	n/a	n/a	GoodResponse	0	n/a	n/a	0	2	Blank	Neutral	True
34.568	1.45	Control	1.0	n/a	Yes	2.581	n/a	5.0	GoodResponse	0	0.044	33.612	0	2	Feedback	Neutral	True
36.017	2.581	Control	1.0	n/a	Yes	2.581	n/a	n/a	GoodResponse	0	0.0	n/a	0	2	ISIslide	Neutral	True
38.616	0.25	Win2	1.0	0.0	Yes	2.834	0.016	n/a	GoodResponse	1	n/a	n/a	1	3	Cue	Win	True
38.866	3.95	Win2	1.0	0.0	Yes	2.834	0.0	n/a	GoodResponse	1	n/a	n/a	1	3	Fixation	Win	True
42.815	0.37	Win2	1.0	0.001	Yes	2.834	-0.001	3.0	GoodResponse	1	0.204	42.019	1	3	Target	Win	True
43.019	0.3	Win2	1.0	0.001	Yes	2.834	-0.001	3.0	GoodResponse	1	0.204	n/a	1	3	ButtonPress	Win	True
43.181	0.33	Win2	1.0	n/a	Yes	2.834	n/a	n/a	GoodResponse	1	n/a	n/a	1	3	Blank	Win	True
43.515	1.45	Win2	1.0	n/a	Yes	2.834	n/a	5.0	GoodResponse	1	0.024	42.539	1	3	Feedback	Win	True
44.964	2.834	Win2	1.0	n/a	Yes	2.834	n/a	n/a	GoodResponse	1	0.0	n/a	1	3	ISIslide	Win	True
47.813	0.25	Win2	1.0	0.0	Yes	3.287	0.013	n/a	GoodResponse	1	n/a	n/a	2	4	Cue	Win	True
48.063	4.0	Win2	1.0	0.0	Yes	3.287	0.0	n/a	GoodResponse	1	n/a	n/a	2	4	Fixation	Win	True
52.062	0.36	Win2	1.0	0.001	Yes	3.287	-0.001	3.0	GoodResponse	1	0.192	51.254	2	4	Target	Win	True
52.254	0.3	Win2	1.0	0.001	Yes	3.287	-0.001	3.0	GoodResponse	1	0.192	n/a	2	4	ButtonPress	Win	True
52.428	0.34	Win2	1.0	n/a	Yes	3.287	n/a	n/a	GoodResponse	1	n/a	n/a	2	4	Blank	Win	True
52.761	1.45	Win2	1.0	n/a	Yes	3.287	n/a	5.0	GoodResponse	1	0.046	51.807	2	4	Feedback	Win	True
54.211	3.287	Win2	1.0	n/a	Yes	3.287	n/a	n/a	GoodResponse	1	0.0	n/a	2	4	ISIslide	Win	True
57.526	0.25	Win2	1.0	0.0	Yes	2.774	0.026	n/a	GoodResponse	1	n/a	n/a	3	5	Cue	Win	True
57.776	4.0	Win2	1.0	0.0	Yes	2.774	0.0	n/a	GoodResponse	1	n/a	n/a	3	5	Fixation	Win	True
61.775	0.35	Win2	1.0	0.001	Yes	2.774	-0.001	3.0	GoodResponse	1	0.212	60.987	3	5	Target	Win	True
61.987	0.3	Win2	1.0	0.001	Yes	2.774	-0.001	3.0	GoodResponse	1	0.212	n/a	3	5	ButtonPress	Win	True
62.125	0.35	Win2	1.0	n/a	Yes	2.774	n/a	n/a	GoodResponse	1	n/a	n/a	3	5	Blank	Win	True
62.475	1.45	Win2	1.0	n/a	Yes	2.774	n/a	5.0	GoodResponse	1	0.039	61.514	3	5	Feedback	Win	True
63.924	2.774	Win2	1.0	n/a	Yes	2.774	n/a	n/a	GoodResponse	1	0.0	n/a	3	5	ISIslide	Win	True
66.723	0.25	Lose2	1.0	0.0	Yes	2.727	0.023	n/a	GoodResponse	0	n/a	n/a	3	6	Cue	AvoidedLoss	True
66.973	3.95	Lose2	1.0	0.0	Yes	2.727	0.0	n/a	GoodResponse	0	n/a	n/a	3	6	Fixation	AvoidedLoss	True
70.922	0.34	Lose2	1.0	0.001	Yes	2.727	-0.001	3.0	GoodResponse	0	0.201	70.123	3	6	Target	AvoidedLoss	True
71.123	0.3	Lose2	1.0	0.001	Yes	2.727	-0.001	3.0	GoodResponse	0	0.201	n/a	3	6	ButtonPress	AvoidedLoss	True
71.272	0.36	Lose2	1.0	n/a	Yes	2.727	n/a	n/a	GoodResponse	0	n/a	n/a	3	6	Blank	AvoidedLoss	True
71.621	1.45	Lose2	1.0	n/a	Yes	2.727	n/a	5.0	GoodResponse	0	0.015	70.636	3	6	Feedback	AvoidedLoss	True
73.071	2.727	Lose2	1.0	n/a	Yes	2.727	n/a	n/a	GoodResponse	0	0.0	n/a	3	6	ISIslide	AvoidedLoss	True
75.82	0.25	Lose2	1.0	0.0	Yes	4.03	0.02	n/a	GoodResponse	0	n/a	n/a	3	7	Cue	AvoidedLoss	True
76.07	4.05	Lose2	1.0	0.0	Yes	4.03	0.0	n/a	GoodResponse	0	n/a	n/a	3	7	Fixation	AvoidedLoss	True
80.118	0.33	Lose2	1.0	0.002	Yes	4.03	-0.002	3.0	GoodResponse	0	0.205	79.323	3	7	Target	AvoidedLoss	True
80.323	0.3	Lose2	1.0	0.002	Yes	4.03	-0.002	3.0	GoodResponse	0	0.205	n/a	3	7	ButtonPress	AvoidedLoss	True
80.452	0.37	Lose2	1.0	n/a	Yes	4.03	n/a	n/a	GoodResponse	0	n/a	n/a	3	7	Blank	AvoidedLoss	True
80.818	1.45	Lose2	1.0	n/a	Yes	4.03	n/a	5.0	GoodResponse	0	0.037	79.855	3	7	Feedback	AvoidedLoss	True
82.268	4.03	Lose2	1.0	n/a	Yes	4.03	n/a	n/a	GoodResponse	0	0.0	n/a	3	7	ISIslide	AvoidedLoss	True
86.316	0.25	Lose2	1.0	0.0	Yes	3.034	0.016	n/a	GoodResponse	0	n/a	n/a	3	8	Cue	AvoidedLoss	True
86.566	3.95	Lose2	1.0	0.0	Yes	3.034	0.0	n/a	GoodResponse	0	n/a	n/a	3	8	Fixation	AvoidedLoss	True
90.515	0.32	Lose2	1.0	0.001	Yes	3.034	-0.001	3.0	GoodResponse	0	0.248	89.763	3	8	Target	AvoidedLoss	True
90.763	0.3	Lose2	1.0	0.001	Yes	3.034	-0.001	3.0	GoodResponse	0	0.248	n/a	3	8	ButtonPress	AvoidedLoss	True
90.831	0.38	Lose2	1.0	n/a	Yes	3.034	n/a	n/a	GoodResponse	0	n/a	n/a	3	8	Blank	AvoidedLoss	True
91.215	1.45	Lose2	1.0	n/a	Yes	3.034	n/a	5.0	GoodResponse	0	0.031	90.246	3	8	Feedback	AvoidedLoss	True
92.664	3.034	Lose2	1.0	n/a	Yes	3.034	n/a	n/a	GoodResponse	0	0.0	n/a	3	8	ISIslide	AvoidedLoss	True
95.73	0.25	Lose2	1.0	0.0	Yes	3.12	0.03	n/a	GoodResponse	0	n/a	n/a	3	9	Cue	AvoidedLoss	True
95.98	3.95	Lose2	1.0	0.0	Yes	3.12	0.0	n/a	GoodResponse	0	n/a	n/a	3	9	Fixation	AvoidedLoss	True
99.928	0.31	Lose2	1.0	0.002	Yes	3.12	-0.002	3.0	GoodResponse	0	0.229	99.157	3	9	Target	AvoidedLoss	True
100.157	0.3	Lose2	1.0	0.002	Yes	3.12	-0.002	3.0	GoodResponse	0	0.229	n/a	3	9	ButtonPress	AvoidedLoss	True
100.245	0.39	Lose2	1.0	n/a	Yes	3.12	n/a	n/a	GoodResponse	0	n/a	n/a	3	9	Blank	AvoidedLoss	True
100.628	1.45	Lose2	1.0	n/a	Yes	3.12	n/a	5.0	GoodResponse	0	0.033	99.661	3	9	Feedback	AvoidedLoss	True
102.077	3.12	Lose2	1.0	n/a	Yes	3.12	n/a	n/a	GoodResponse	0	0.0	n/a	3	9	ISIslide	AvoidedLoss	True
105.226	0.25	Control	1.0	0.0	Yes	3.274	0.026	n/a	GoodResponse	0	n/a	n/a	3	10	Cue	Neutral	True
105.476	4.0	Control	1.0	0.0	Yes	3.274	0.0	n/a	GoodResponse	0	n/a	n/a	3	10	Fixation	Neutral	True
109.475	0.3	Control	1.0	0.001	Yes	3.274	-0.001	3.0	GoodResponse	0	0.218	108.693	3	10	Target	Neutral	True
109.693	0.3	Control	1.0	0.001	Yes	3.274	-0.001	3.0	GoodResponse	0	0.218	n/a	3	10	ButtonPress	Neutral	True
109.775	0.4	Control	1.0	n/a	Yes	3.274	n/a	n/a	GoodResponse	0	n/a	n/a	3	10	Blank	Neutral	True
110.175	1.45	Control	1.0	n/a	Yes	3.274	n/a	5.0	GoodResponse	0	0.047	109.222	3	10	Feedback	Neutral	True
111.624	3.274	Control	1.0	n/a	Yes	3.274	n/a	n/a	GoodResponse	0	0.0	n/a	3	10	ISIslide	Neutral	True
114.923	0.25	Lose2	1.0	0.0	Yes	2.727	0.023	n/a	GoodResponse	0	n/a	n/a	3	11	Cue	AvoidedLoss	True
115.173	4.05	Lose2	1.0	0.0	Yes	2.727	0.0	n/a	GoodResponse	0	n/a	n/a	3	11	Fixation	AvoidedLoss	True
119.221	0.29	Lose2	1.0	0.002	Yes	2.727	-0.002	3.0	GoodResponse	0	0.285	118.506	3	11	Target	AvoidedLoss	True
119.506	0.3	Lose2	1.0	0.002	Yes	2.727	-0.002	3.0	GoodResponse	0	0.285	n/a	3	11	ButtonPress	AvoidedLoss	True
119.521	0.41	Lose2	1.0	n/a	Yes	2.727	n/a	n/a	GoodResponse	0	n/a	n/a	3	11	Blank	AvoidedLoss	True
119.921	1.45	Lose2	1.0	n/a	Yes	2.727	n/a	5.0	GoodResponse	0	0.008	118.929	3	11	Feedback	AvoidedLoss	True
121.371	2.727	Lose2	1.0	n/a	Yes	2.727	n/a	n/a	GoodResponse	0	0.0	n/a	3	11	ISIslide	AvoidedLoss	True
124.12	0.25	Control	0.9231	0.0	No	2.98	0.02	n/a	NoResponse	0	n/a	n/a	3	12	Cue	Neutral	True
124.37	3.9	Control	0.9231	0.0	No	2.98	0.0	n/a	NoResponse	0	n/a	n/a	3	12	Fixation	Neutral	True
128.268	0.28	Control	0.9231	0.002	No	2.98	-0.002	3.0	NoResponse	0	0.298	127.566	3	12	Target	Neutral	True
128.552	0.42	Control	0.9231	n/a	No	2.98	n/a	n/a	NoResponse	0	n/a	n/a	3	12	Blank	Neutral	True
128.566	0.3	Control	0.9231	0.002	No	2.98	-0.002	3.0	NoResponse	0	0.298	n/a	3	12	ButtonPress	Neutral	True
128.968	1.45	Control	0.9231	n/a	No	2.98	n/a	5.0	NoResponse	0	0.033	128.001	3	12	Feedback	Neutral	True
130.418	2.98	Control	0.9231	n/a	No	2.98	n/a	n/a	NoResponse	0	0.0	n/a	3	12	ISIslide	Neutral	True
133.417	0.25	Control	0.9286	0.0	Yes	2.783	0.017	n/a	GoodResponse	0	n/a	n/a	3	13	Cue	Neutral	True
133.666	4.0	Control	0.9286	0.001	Yes	2.783	-0.001	n/a	GoodResponse	0	n/a	n/a	3	13	Fixation	Neutral	True
137.665	0.27	Control	0.9286	0.002	Yes	2.783	-0.002	3.0	GoodResponse	0	0.225	136.89	3	13	Target	Neutral	True
137.89	0.3	Control	0.9286	0.002	Yes	2.783	-0.002	3.0	GoodResponse	0	0.225	n/a	3	13	ButtonPress	Neutral	True
137.948	0.43	Control	0.9286	n/a	Yes	2.783	n/a	n/a	GoodResponse	0	n/a	n/a	3	13	Blank	Neutral	True
138.365	1.45	Control	0.9286	n/a	Yes	2.783	n/a	5.0	GoodResponse	0	0.002	137.367	3	13	Feedback	Neutral	True
139.814	2.783	Control	0.9286	n/a	Yes	2.783	n/a	n/a	GoodResponse	0	0.0	n/a	3	13	ISIslide	Neutral	True
142.613	0.25	Win2	0.9333	0.0	Yes	2.687	0.013	n/a	GoodResponse	1	n/a	n/a	4	14	Cue	Win	True
142.863	4.1	Win2	0.9333	0.0	Yes	2.687	0.0	n/a	GoodResponse	1	n/a	n/a	4	14	Fixation	Win	True
146.962	0.26	Win2	0.9333	0.001	Yes	2.687	-0.001	3.0	GoodResponse	1	0.204	146.166	4	14	Target	Win	True
147.166	0.3	Win2	0.9333	0.001	Yes	2.687	-0.001	3.0	GoodResponse	1	0.204	n/a	4	14	ButtonPress	Win	True
147.228	0.44	Win2	0.9333	n/a	Yes	2.687	n/a	n/a	GoodResponse	1	n/a	n/a	4	14	Blank	Win	True
147.662	1.45	Win2	0.9333	n/a	Yes	2.687	n/a	5.0	GoodResponse	1	0.023	146.685	4	14	Feedback	Win	True
149.111	2.687	Win2	0.9333	n/a	Yes	2.687	n/a	n/a	GoodResponse	1	0.0	n/a	4	14	ISIslide	Win	True
151.827	0.25	Control	0.9375	0.0	Yes	2.973	0.027	n/a	GoodResponse	0	n/a	n/a	4	15	Cue	Neutral	True
152.077	4.0	Control	0.9375	0.0	Yes	2.973	0.0	n/a	GoodResponse	0	n/a	n/a	4	15	Fixation	Neutral	True
156.075	0.25	Control	0.9375	0.002	Yes	2.973	-0.002	3.0	GoodResponse	0	0.238	155.313	4	15	Target	Neutral	True
156.313	0.3	Control	0.9375	0.002	Yes	2.973	-0.002	3.0	GoodResponse	0	0.238	n/a	4	15	ButtonPress	Neutral	True
156.325	0.45	Control	0.9375	n/a	Yes	2.973	n/a	n/a	GoodResponse	0	n/a	n/a	4	15	Blank	Neutral	True
156.775	1.45	Control	0.9375	n/a	Yes	2.973	n/a	5.0	GoodResponse	0	0.032	155.807	4	15	Feedback	Neutral	True
158.225	2.973	Control	0.9375	n/a	Yes	2.973	n/a	n/a	GoodResponse	0	0.0	n/a	4	15	ISIslide	Neutral	True
161.223	0.25	Win2	0.9412	0.001	Yes	2.877	0.023	n/a	GoodResponse	1	n/a	n/a	5	16	Cue	Win	True
161.473	4.0	Win2	0.9412	0.0	Yes	2.877	0.0	n/a	GoodResponse	1	n/a	n/a	5	16	Fixation	Win	True
165.472	0.24	Win2	0.9412	0.001	Yes	2.877	-0.001	3.0	GoodResponse	1	0.225	164.697	5	16	Target	Win	True
165.697	0.3	Win2	0.9412	0.001	Yes	2.877	-0.001	3.0	GoodResponse	1	0.225	n/a	5	16	ButtonPress	Win	True
165.722	0.46	Win2	0.9412	n/a	Yes	2.877	n/a	n/a	GoodResponse	1	n/a	n/a	5	16	Blank	Win	True
166.172	1.45	Win2	0.9412	n/a	Yes	2.877	n/a	5.0	GoodResponse	1	0.0	165.172	5	16	Feedback	Win	True
167.621	2.877	Win2	0.9412	n/a	Yes	2.877	n/a	n/a	GoodResponse	1	0.0	n/a	5	16	ISIslide	Win	True
170.52	0.25	Lose2	0.9444	0.0	Yes	2.73	0.02	n/a	GoodResponse	0	n/a	n/a	5	17	Cue	AvoidedLoss	True
170.77	3.95	Lose2	0.9444	0.0	Yes	2.73	0.0	n/a	GoodResponse	0	n/a	n/a	5	17	Fixation	AvoidedLoss	True
174.719	0.23	Lose2	0.9444	0.001	Yes	2.73	-0.001	3.0	GoodResponse	0	0.196	173.915	5	17	Target	AvoidedLoss	True
174.915	0.3	Lose2	0.9444	0.001	Yes	2.73	-0.001	3.0	GoodResponse	0	0.196	n/a	5	17	ButtonPress	AvoidedLoss	True
174.952	0.47	Lose2	0.9444	n/a	Yes	2.73	n/a	n/a	GoodResponse	0	n/a	n/a	5	17	Blank	AvoidedLoss	True
175.419	1.45	Lose2	0.9444	n/a	Yes	2.73	n/a	5.0	GoodResponse	0	0.021	174.44	5	17	Feedback	AvoidedLoss	True
176.868	2.73	Lose2	0.9444	n/a	Yes	2.73	n/a	n/a	GoodResponse	0	0.0	n/a	5	17	ISIslide	AvoidedLoss	True
179.617	0.25	Lose2	0.9473999999999999	0.0	Yes	2.733	0.017	n/a	GoodResponse	0	n/a	n/a	5	18	Cue	AvoidedLoss	True
179.867	4.05	Lose2	0.9473999999999999	0.0	Yes	2.733	0.0	n/a	GoodResponse	0	n/a	n/a	5	18	Fixation	AvoidedLoss	True
183.916	0.22	Lose2	0.9473999999999999	0.001	Yes	2.733	-0.001	3.0	GoodResponse	0	0.208	183.124	5	18	Target	AvoidedLoss	True
184.124	0.3	Lose2	0.9473999999999999	0.001	Yes	2.733	-0.001	3.0	GoodResponse	0	0.208	n/a	5	18	ButtonPress	AvoidedLoss	True
184.149	0.48	Lose2	0.9473999999999999	n/a	Yes	2.733	n/a	n/a	GoodResponse	0	n/a	n/a	5	18	Blank	AvoidedLoss	True
184.615	1.45	Lose2	0.9473999999999999	n/a	Yes	2.733	n/a	5.0	GoodResponse	0	0.045	183.66	5	18	Feedback	AvoidedLoss	True
186.065	2.733	Lose2	0.9473999999999999	n/a	Yes	2.733	n/a	n/a	GoodResponse	0	0.0	n/a	5	18	ISIslide	AvoidedLoss	True
188.814	0.25	Control	0.9	0.0	No	2.936	0.014	n/a	NoResponse	0	n/a	n/a	5	19	Cue	Neutral	True
189.064	3.95	Control	0.9	0.0	No	2.936	0.0	n/a	NoResponse	0	n/a	n/a	5	19	Fixation	Neutral	True
193.012	0.21	Control	0.9	0.002	No	2.936	-0.002	3.0	NoResponse	0	0.231	192.243	5	19	Target	Neutral	True
193.229	0.49	Control	0.9	n/a	No	2.936	n/a	n/a	NoResponse	0	n/a	n/a	5	19	Blank	Neutral	True
193.243	0.3	Control	0.9	0.002	No	2.936	-0.002	3.0	NoResponse	0	0.231	n/a	5	19	ButtonPress	Neutral	True
193.712	1.45	Control	0.9	n/a	No	2.936	n/a	5.0	NoResponse	0	0.021	192.733	5	19	Feedback	Neutral	True
195.162	2.936	Control	0.9	n/a	No	2.936	n/a	n/a	NoResponse	0	0.0	n/a	5	19	ISIslide	Neutral	True
198.127	0.25	Control	0.9048	0.0	Yes	2.623	0.027	n/a	GoodResponse	0	n/a	n/a	5	20	Cue	Neutral	True
198.377	4.05	Control	0.9048	0.0	Yes	2.623	0.0	n/a	GoodResponse	0	n/a	n/a	5	20	Fixation	Neutral	True
202.426	0.2	Control	0.9048	0.001	Yes	2.623	-0.001	3.0	GoodResponse	0	0.187	201.613	5	20	Target	Neutral	True
202.613	0.3	Control	0.9048	0.001	Yes	2.623	-0.001	3.0	GoodResponse	0	0.187	n/a	5	20	ButtonPress	Neutral	True
202.626	0.5	Control	0.9048	n/a	Yes	2.623	n/a	n/a	GoodResponse	0	n/a	n/a	5	20	Blank	Neutral	True
203.126	1.45	Control	0.9048	n/a	Yes	2.623	n/a	5.0	GoodResponse	0	0.022	202.148	5	20	Feedback	Neutral	True
204.575	2.623	Control	0.9048	n/a	Yes	2.623	n/a	n/a	GoodResponse	0	0.0	n/a	5	20	ISIslide	Neutral	True
207.224	0.25	Control	0.8636	0.0	No	2.776	0.024	n/a	NoResponse	0	n/a	n/a	5	21	Cue	Neutral	True
207.474	4.1	Control	0.8636	0.0	No	2.776	0.0	n/a	NoResponse	0	n/a	n/a	5	21	Fixation	Neutral	True
211.573	0.19	Control	0.8636	0.001	No	2.776	-0.001	3.0	NoResponse	0	0.231	210.804	5	21	Target	Neutral	True
211.773	0.51	Control	0.8636	n/a	No	2.776	n/a	n/a	NoResponse	0	n/a	n/a	5	21	Blank	Neutral	True
211.804	0.3	Control	0.8636	0.001	No	2.776	-0.001	3.0	NoResponse	0	0.231	n/a	5	21	ButtonPress	Neutral	True
212.272	1.45	Control	0.8636	n/a	No	2.776	n/a	5.0	NoResponse	0	0.046	211.318	5	21	Feedback	Neutral	True
213.722	2.776	Control	0.8636	n/a	No	2.776	n/a	n/a	NoResponse	0	0.0	n/a	5	21	ISIslide	Neutral	True
216.521	0.25	Control	0.8261	0.0	No	2.779	0.021	n/a	NoResponse	0	n/a	n/a	5	22	Cue	Neutral	True
216.771	4.0	Control	0.8261	0.0	No	2.779	0.0	n/a	NoResponse	0	n/a	n/a	5	22	Fixation	Neutral	True
220.769	0.18	Control	0.8261	0.002	No	2.779	-0.002	3.0	NoResponse	0	0.23	219.999	5	22	Target	Neutral	True
220.953	0.52	Control	0.8261	n/a	No	2.779	n/a	n/a	NoResponse	0	n/a	n/a	5	22	Blank	Neutral	True
220.999	0.3	Control	0.8261	0.002	No	2.779	-0.002	3.0	NoResponse	0	0.23	n/a	5	22	ButtonPress	Neutral	True
221.469	1.45	Control	0.8261	n/a	No	2.779	n/a	5.0	NoResponse	0	0.019	220.488	5	22	Feedback	Neutral	True
222.919	2.779	Control	0.8261	n/a	No	2.779	n/a	n/a	NoResponse	0	0.0	n/a	5	22	ISIslide	Neutral	True
225.718	0.25	Control	0.7917000000000001	0.0	No	2.782	0.018	n/a	NoResponse	0	n/a	n/a	5	23	Cue	Neutral	True
225.968	3.9	Control	0.7917000000000001	0.0	No	2.782	0.0	n/a	NoResponse	0	n/a	n/a	5	23	Fixation	Neutral	True
229.866	0.17	Control	0.7917000000000001	0.002	No	2.782	-0.002	3.0	NoResponse	0	0.246	229.112	5	23	Target	Neutral	True
230.049	0.53	Control	0.7917000000000001	n/a	No	2.782	n/a	n/a	NoResponse	0	n/a	n/a	5	23	Blank	Neutral	True
230.112	0.3	Control	0.7917000000000001	0.002	No	2.782	-0.002	3.0	NoResponse	0	0.246	n/a	5	23	ButtonPress	Neutral	True
230.566	1.45	Control	0.7917000000000001	n/a	No	2.782	n/a	5.0	NoResponse	0	0.044	229.61	5	23	Feedback	Neutral	True
232.015	2.782	Control	0.7917000000000001	n/a	No	2.782	n/a	n/a	NoResponse	0	0.0	n/a	5	23	ISIslide	Neutral	True
234.814	0.25	Win2	0.76	0.001	No	3.136	0.014	n/a	NoResponse	0	n/a	n/a	5	24	Cue	MissedWin	True
235.064	3.95	Win2	0.76	0.0	No	3.136	0.0	n/a	NoResponse	0	n/a	n/a	5	24	Fixation	MissedWin	True
239.013	0.16	Win2	0.76	0.001	No	3.136	-0.001	3.0	NoResponse	0	0.194	238.207	5	24	Target	MissedWin	True
239.18	0.54	Win2	0.76	n/a	No	3.136	n/a	n/a	NoResponse	0	n/a	n/a	5	24	Blank	MissedWin	True
239.207	0.3	Win2	0.76	0.001	No	3.136	-0.001	3.0	NoResponse	0	0.194	n/a	5	24	ButtonPress	MissedWin	True
239.713	1.45	Win2	0.76	n/a	No	3.136	n/a	5.0	NoResponse	0	0.02	238.733	5	24	Feedback	MissedWin	True
241.162	3.136	Win2	0.76	n/a	No	3.136	n/a	n/a	NoResponse	0	0.0	n/a	5	24	ISIslide	MissedWin	True
244.328	0.25	Win2	0.7308	0.0	No	3.072	0.028	n/a	NoResponse	0	n/a	n/a	5	25	Cue	MissedWin	True
244.578	4.0	Win2	0.7308	0.0	No	3.072	0.0	n/a	NoResponse	0	n/a	n/a	5	25	Fixation	MissedWin	True
248.576	0.15	Win2	0.7308	0.002	No	3.072	-0.002	3.0	NoResponse	0	0.231	247.807	5	25	Target	MissedWin	True
248.726	0.55	Win2	0.7308	n/a	No	3.072	n/a	n/a	NoResponse	0	n/a	n/a	5	25	Blank	MissedWin	True
248.807	0.3	Win2	0.7308	0.002	No	3.072	-0.002	3.0	NoResponse	0	0.231	n/a	5	25	ButtonPress	MissedWin	True
249.276	1.45	Win2	0.7308	n/a	No	3.072	n/a	5.0	NoResponse	0	0.018	248.294	5	25	Feedback	MissedWin	True
250.726	3.072	Win2	0.7308	n/a	No	3.072	n/a	n/a	NoResponse	0	0.0	n/a	5	25	ISIslide	MissedWin	True
253.825	0.25	Win2	0.7037	0.0	No	2.925	0.025	n/a	NoResponse	0	n/a	n/a	5	26	Cue	MissedWin	True
254.074	3.95	Win2	0.7037	0.001	No	2.925	-0.001	n/a	NoResponse	0	n/a	n/a	5	26	Fixation	MissedWin	True
258.023	0.15	Win2	0.7037	0.002	No	2.925	-0.002	3.0	NoResponse	0	0.204	257.227	5	26	Target	MissedWin	True
258.173	0.55	Win2	0.7037	n/a	No	2.925	n/a	n/a	NoResponse	0	n/a	n/a	5	26	Blank	MissedWin	True
258.227	0.3	Win2	0.7037	0.002	No	2.925	-0.002	3.0	NoResponse	0	0.204	n/a	5	26	ButtonPress	MissedWin	True
258.723	1.45	Win2	0.7037	n/a	No	2.925	n/a	5.0	NoResponse	0	0.034	257.757	5	26	Feedback	MissedWin	True
260.172	2.925	Win2	0.7037	n/a	No	2.925	n/a	n/a	NoResponse	0	0.0	n/a	5	26	ISIslide	MissedWin	True
263.121	0.25	Lose2	0.6786	0.0	No	2.829	0.021	n/a	NoResponse	-1	n/a	n/a	4	27	Cue	Loss	True
263.371	4.05	Lose2	0.6786	0.0	No	2.829	0.0	n/a	NoResponse	-1	n/a	n/a	4	27	Fixation	Loss	True
267.42	0.15	Lose2	0.6786	0.001	No	2.829	-0.001	3.0	NoResponse	-1	0.167	266.587	4	27	Target	Loss	True
267.57	0.55	Lose2	0.6786	n/a	No	2.829	n/a	n/a	NoResponse	-1	n/a	n/a	4	27	Blank	Loss	True
267.587	0.3	Lose2	0.6786	0.001	No	2.829	-0.001	3.0	NoResponse	-1	0.167	n/a	4	27	ButtonPress	Loss	True
268.12	1.45	Lose2	0.6786	n/a	No	2.829	n/a	5.0	NoResponse	-1	0.007	267.127	4	27	Feedback	Loss	True
269.569	2.829	Lose2	0.6786	n/a	No	2.829	n/a	n/a	NoResponse	-1	0.0	n/a	4	27	ISIslide	Loss	True
272.418	0.25	Control	0.6552	0.0	No	2.832	0.018	n/a	NoResponse	0	n/a	n/a	4	28	Cue	Neutral	True
272.668	4.05	Control	0.6552	0.0	No	2.832	0.0	n/a	NoResponse	0	n/a	n/a	4	28	Fixation	Neutral	True
276.717	0.15	Control	0.6552	0.001	No	2.832	-0.001	3.0	NoResponse	0	0.262	275.979	4	28	Target	Neutral	True
276.866	0.55	Control	0.6552	n/a	No	2.832	n/a	n/a	NoResponse	0	n/a	n/a	4	28	Blank	Neutral	True
276.979	0.3	Control	0.6552	0.001	No	2.832	-0.001	3.0	NoResponse	0	0.262	n/a	4	28	ButtonPress	Neutral	True
277.416	1.45	Control	0.6552	n/a	No	2.832	n/a	5.0	NoResponse	0	0.023	276.439	4	28	Feedback	Neutral	True
278.866	2.832	Control	0.6552	n/a	No	2.832	n/a	n/a	NoResponse	0	0.0	n/a	4	28	ISIslide	Neutral	True
281.715	0.25	Lose2	0.6333	0.0	No	2.835	0.015	n/a	NoResponse	-1	n/a	n/a	3	29	Cue	Loss	True
281.965	3.95	Lose2	0.6333	0.0	No	2.835	0.0	n/a	NoResponse	-1	n/a	n/a	3	29	Fixation	Loss	True
285.913	0.15	Lose2	0.6333	0.002	No	2.835	-0.002	3.0	NoResponse	-1	0.202	285.115	3	29	Target	Loss	True
286.063	0.55	Lose2	0.6333	n/a	No	2.835	n/a	n/a	NoResponse	-1	n/a	n/a	3	29	Blank	Loss	True
286.115	0.3	Lose2	0.6333	0.002	No	2.835	-0.002	3.0	NoResponse	-1	0.202	n/a	3	29	ButtonPress	Loss	True
286.613	1.45	Lose2	0.6333	n/a	No	2.835	n/a	5.0	NoResponse	-1	0.046	285.659	3	29	Feedback	Loss	True
288.063	2.835	Lose2	0.6333	n/a	No	2.835	n/a	n/a	NoResponse	-1	0.0	n/a	3	29	ISIslide	Loss	True
290.928	0.25	Win2	0.6129	0.0	No	2.772	0.028	n/a	NoResponse	0	n/a	n/a	3	30	Cue	MissedWin	False
291.178	3.9	Win2	0.6129	0.0	No	2.772	0.0	3.0	NoResponse	0	0.397	290.575	3	30	Fixation	MissedWin	False
291.575	0.3	Win2	0.6129	0.0	No	2.772	0.0	3.0	NoResponse	0	0.397	n/a	3	30	ButtonPress	MissedWin	False
295.077	0.16	Win2	0.6129	0.001	No	2.772	-0.001	3.0	NoResponse	0	0.222	294.299	3	30	Target	MissedWin	False
295.243	0.54	Win2	0.6129	n/a	No	2.772	n/a	n/a	NoResponse	0	n/a	n/a	3	30	Blank	MissedWin	False
295.299	0.3	Win2	0.6129	0.001	No	2.772	-0.001	3.0	NoResponse	0	0.222	n/a	3	30	ButtonPress	MissedWin	False
295.777	1.45	Win2	0.6129	n/a	No	2.772	n/a	5.0	NoResponse	0	0.007	294.784	3	30	Feedback	MissedWin	False
297.226	2.772	Win2	0.6129	n/a	No	2.772	n/a	n/a	NoResponse	0	0.0	n/a	3	30	ISIslide	MissedWin	False
300.025	0.25	Lose2	0.5938	0.0	No	2.825	0.025	n/a	NoResponse	-1	n/a	n/a	2	31	Cue	Loss	True
300.275	4.05	Lose2	0.5938	0.0	No	2.825	0.0	n/a	NoResponse	-1	n/a	n/a	2	31	Fixation	Loss	True
304.324	0.17	Lose2	0.5938	0.001	No	2.825	-0.001	3.0	NoResponse	-1	0.196	303.52	2	31	Target	Loss	True
304.507	0.53	Lose2	0.5938	n/a	No	2.825	n/a	n/a	NoResponse	-1	n/a	n/a	2	31	Blank	Loss	True
304.52	0.3	Lose2	0.5938	0.001	No	2.825	-0.001	3.0	NoResponse	-1	0.196	n/a	2	31	ButtonPress	Loss	True
305.023	1.45	Lose2	0.5938	n/a	No	2.825	n/a	5.0	NoResponse	-1	0.026	304.049	2	31	Feedback	Loss	True
306.473	2.825	Lose2	0.5938	n/a	No	2.825	n/a	n/a	NoResponse	-1	0.0	n/a	2	31	ISIslide	Loss	True
309.322	0.25	Lose2	0.5758	0.0	No	2.628	0.022	n/a	NoResponse	-1	n/a	n/a	1	32	Cue	Loss	True
309.572	4.15	Lose2	0.5758	0.0	No	2.628	0.0	n/a	NoResponse	-1	n/a	n/a	1	32	Fixation	Loss	True
313.72	0.18	Lose2	0.5758	0.002	No	2.628	-0.002	3.0	NoResponse	-1	0.218	312.938	1	32	Target	Loss	True
313.904	0.52	Lose2	0.5758	n/a	No	2.628	n/a	n/a	NoResponse	-1	n/a	n/a	1	32	Blank	Loss	True
313.938	0.3	Lose2	0.5758	0.002	No	2.628	-0.002	3.0	NoResponse	-1	0.218	n/a	1	32	ButtonPress	Loss	True
314.42	1.45	Lose2	0.5758	n/a	No	2.628	n/a	5.0	NoResponse	-1	0.043	313.463	1	32	Feedback	Loss	True
315.87	2.628	Lose2	0.5758	n/a	No	2.628	n/a	n/a	NoResponse	-1	0.0	n/a	1	32	ISIslide	Loss	True
318.519	0.25	Win2	0.5588000000000001	0.0	No	2.681	0.019	n/a	NoResponse	0	n/a	n/a	1	33	Cue	MissedWin	True
318.769	4.0	Win2	0.5588000000000001	0.0	No	2.681	0.0	3.0	NoResponse	0	3.506	321.275	1	33	Fixation	MissedWin	True
322.275	0.3	Win2	0.5588000000000001	0.0	No	2.681	0.0	3.0	NoResponse	0	3.506	n/a	1	33	ButtonPress	MissedWin	True
322.767	0.19	Win2	0.5588000000000001	0.002	No	2.681	-0.002	n/a	NoResponse	0	n/a	n/a	1	33	Target	MissedWin	True
322.967	0.51	Win2	0.5588000000000001	n/a	No	2.681	n/a	n/a	NoResponse	0	n/a	n/a	1	33	Blank	MissedWin	True
323.467	1.45	Win2	0.5588000000000001	n/a	No	2.681	n/a	5.0	NoResponse	0	0.021	322.488	1	33	Feedback	MissedWin	True
324.916	2.681	Win2	0.5588000000000001	n/a	No	2.681	n/a	n/a	NoResponse	0	0.0	n/a	1	33	ISIslide	MissedWin	True
327.615	0.25	Lose2	0.5428999999999999	0.001	No	2.635	0.015	n/a	NoResponse	-1	n/a	n/a	0	34	Cue	Loss	True
327.865	4.05	Lose2	0.5428999999999999	0.0	No	2.635	0.0	n/a	NoResponse	-1	n/a	n/a	0	34	Fixation	Loss	True
331.914	0.2	Lose2	0.5428999999999999	0.001	No	2.635	-0.001	3.0	NoResponse	-1	0.216	331.13	0	34	Target	Loss	True
332.114	0.5	Lose2	0.5428999999999999	n/a	No	2.635	n/a	n/a	NoResponse	-1	n/a	n/a	0	34	Blank	Loss	True
332.13	0.3	Lose2	0.5428999999999999	0.001	No	2.635	-0.001	3.0	NoResponse	-1	0.216	n/a	0	34	ButtonPress	Loss	True
332.614	1.45	Lose2	0.5428999999999999	n/a	No	2.635	n/a	5.0	NoResponse	-1	0.045	331.659	0	34	Feedback	Loss	True
334.063	2.635	Lose2	0.5428999999999999	n/a	No	2.635	n/a	n/a	NoResponse	-1	0.0	n/a	0	34	ISIslide	Loss	True
336.729	0.25	Lose2	0.5556	0.0	Yes	2.671	0.029	n/a	GoodResponse	0	n/a	n/a	0	35	Cue	AvoidedLoss	True
336.979	4.0	Lose2	0.5556	0.0	Yes	2.671	0.0	n/a	GoodResponse	0	n/a	n/a	0	35	Fixation	AvoidedLoss	True
340.977	0.21	Lose2	0.5556	0.002	Yes	2.671	-0.002	3.0	GoodResponse	0	0.206	340.183	0	35	Target	AvoidedLoss	True
341.183	0.3	Lose2	0.5556	0.002	Yes	2.671	-0.002	3.0	GoodResponse	0	0.206	n/a	0	35	ButtonPress	AvoidedLoss	True
341.194	0.49	Lose2	0.5556	n/a	Yes	2.671	n/a	n/a	GoodResponse	0	n/a	n/a	0	35	Blank	AvoidedLoss	True
341.677	1.45	Lose2	0.5556	n/a	Yes	2.671	n/a	5.0	GoodResponse	0	0.008	340.685	0	35	Feedback	AvoidedLoss	True
343.127	2.671	Lose2	0.5556	n/a	Yes	2.671	n/a	n/a	GoodResponse	0	0.0	n/a	0	35	ISIslide	AvoidedLoss	True
345.826	0.25	Control	0.5676	0.0	Yes	2.674	0.026	n/a	GoodResponse	0	n/a	n/a	0	36	Cue	Neutral	True
346.076	4.0	Control	0.5676	0.0	Yes	2.674	0.0	n/a	GoodResponse	0	n/a	n/a	0	36	Fixation	Neutral	True
350.074	0.22	Control	0.5676	0.002	Yes	2.674	-0.002	3.0	GoodResponse	0	0.205	349.279	0	36	Target	Neutral	True
350.279	0.3	Control	0.5676	0.002	Yes	2.674	-0.002	3.0	GoodResponse	0	0.205	n/a	0	36	ButtonPress	Neutral	True
350.308	0.48	Control	0.5676	n/a	Yes	2.674	n/a	n/a	GoodResponse	0	n/a	n/a	0	36	Blank	Neutral	True
350.774	1.45	Control	0.5676	n/a	Yes	2.674	n/a	5.0	GoodResponse	0	0.031	349.805	0	36	Feedback	Neutral	True
352.224	2.674	Control	0.5676	n/a	Yes	2.674	n/a	n/a	GoodResponse	0	0.0	n/a	0	36	ISIslide	Neutral	True
354.923	0.25	Win2	0.5789	0.0	Yes	2.877	0.023	n/a	GoodResponse	1	n/a	n/a	1	37	Cue	Win	True
355.172	4.0	Win2	0.5789	0.001	Yes	2.877	-0.001	n/a	GoodResponse	1	n/a	n/a	1	37	Fixation	Win	True
359.171	0.23	Win2	0.5789	0.002	Yes	2.877	-0.002	3.0	GoodResponse	1	0.172	358.343	1	37	Target	Win	True
359.343	0.3	Win2	0.5789	0.002	Yes	2.877	-0.002	3.0	GoodResponse	1	0.172	n/a	1	37	ButtonPress	Win	True
359.404	0.47	Win2	0.5789	n/a	Yes	2.877	n/a	n/a	GoodResponse	1	n/a	n/a	1	37	Blank	Win	True
359.871	1.45	Win2	0.5789	n/a	Yes	2.877	n/a	5.0	GoodResponse	1	0.008	358.879	1	37	Feedback	Win	True
361.32	2.877	Win2	0.5789	n/a	Yes	2.877	n/a	n/a	GoodResponse	1	0.0	n/a	1	37	ISIslide	Win	True
364.219	0.25	Lose2	0.5897	0.0	Yes	2.831	0.019	n/a	GoodResponse	0	n/a	n/a	1	38	Cue	AvoidedLoss	True
364.469	3.95	Lose2	0.5897	0.0	Yes	2.831	0.0	n/a	GoodResponse	0	n/a	n/a	1	38	Fixation	AvoidedLoss	True
368.418	0.24	Lose2	0.5897	0.001	Yes	2.831	-0.001	3.0	GoodResponse	0	0.171	367.589	1	38	Target	AvoidedLoss	True
368.589	0.3	Lose2	0.5897	0.001	Yes	2.831	-0.001	3.0	GoodResponse	0	0.171	n/a	1	38	ButtonPress	AvoidedLoss	True
368.668	0.46	Lose2	0.5897	n/a	Yes	2.831	n/a	n/a	GoodResponse	0	n/a	n/a	1	38	Blank	AvoidedLoss	True
369.118	1.45	Lose2	0.5897	n/a	Yes	2.831	n/a	5.0	GoodResponse	0	0.028	368.146	1	38	Feedback	AvoidedLoss	True
370.567	2.831	Lose2	0.5897	n/a	Yes	2.831	n/a	n/a	GoodResponse	0	0.0	n/a	1	38	ISIslide	AvoidedLoss	True
373.416	0.25	Win2	0.6	0.0	Yes	2.984	0.016	n/a	GoodResponse	1	n/a	n/a	2	39	Cue	Win	True
373.666	4.1	Win2	0.6	0.0	Yes	2.984	0.0	n/a	GoodResponse	1	n/a	n/a	2	39	Fixation	Win	True
377.765	0.25	Win2	0.6	0.001	Yes	2.984	-0.001	3.0	GoodResponse	1	0.224	376.989	2	39	Target	Win	True
377.989	0.3	Win2	0.6	0.001	Yes	2.984	-0.001	3.0	GoodResponse	1	0.224	n/a	2	39	ButtonPress	Win	True
378.015	0.45	Win2	0.6	n/a	Yes	2.984	n/a	n/a	GoodResponse	1	n/a	n/a	2	39	Blank	Win	True
378.464	1.45	Win2	0.6	n/a	Yes	2.984	n/a	5.0	GoodResponse	1	0.048	377.512	2	39	Feedback	Win	True
379.914	2.984	Win2	0.6	n/a	Yes	2.984	n/a	n/a	GoodResponse	1	0.0	n/a	2	39	ISIslide	Win	True
382.929	0.25	Win2	0.6098	0.001	Yes	2.721	0.029	n/a	GoodResponse	1	n/a	n/a	3	40	Cue	Win	True
383.179	3.95	Win2	0.6098	0.0	Yes	2.721	0.0	n/a	GoodResponse	1	n/a	n/a	3	40	Fixation	Win	True
387.128	0.26	Win2	0.6098	0.001	Yes	2.721	-0.001	3.0	GoodResponse	1	0.209	386.337	3	40	Target	Win	True
387.337	0.3	Win2	0.6098	0.001	Yes	2.721	-0.001	3.0	GoodResponse	1	0.209	n/a	3	40	ButtonPress	Win	True
387.395	0.44	Win2	0.6098	n/a	Yes	2.721	n/a	n/a	GoodResponse	1	n/a	n/a	3	40	Blank	Win	True
387.828	1.45	Win2	0.6098	n/a	Yes	2.721	n/a	5.0	GoodResponse	1	0.001	386.829	3	40	Feedback	Win	True
389.277	2.721	Win2	0.6098	n/a	Yes	2.721	n/a	n/a	GoodResponse	1	0.0	n/a	3	40	ISIslide	Win	True
392.026	0.25	Win2	0.619	0.0	Yes	2.774	0.026	n/a	GoodResponse	1	n/a	n/a	4	41	Cue	Win	True
392.276	3.9	Win2	0.619	0.0	Yes	2.774	0.0	n/a	GoodResponse	1	n/a	n/a	4	41	Fixation	Win	True
396.175	0.27	Win2	0.619	0.001	Yes	2.774	-0.001	3.0	GoodResponse	1	0.195	395.37	4	41	Target	Win	True
396.37	0.3	Win2	0.619	0.001	Yes	2.774	-0.001	3.0	GoodResponse	1	0.195	n/a	4	41	ButtonPress	Win	True
396.441	0.43	Win2	0.619	n/a	Yes	2.774	n/a	n/a	GoodResponse	1	n/a	n/a	4	41	Blank	Win	True
396.875	1.45	Win2	0.619	n/a	Yes	2.774	n/a	5.0	GoodResponse	1	0.027	395.902	4	41	Feedback	Win	True
398.324	2.774	Win2	0.619	n/a	Yes	2.774	n/a	n/a	GoodResponse	1	0.0	n/a	4	41	ISIslide	Win	True
401.123	0.25	Control	0.6279	0.0	Yes	2.927	0.023	n/a	GoodResponse	0	n/a	n/a	4	42	Cue	Neutral	True
401.373	3.85	Control	0.6279	0.0	Yes	2.927	0.0	n/a	GoodResponse	0	n/a	n/a	4	42	Fixation	Neutral	True
405.222	0.28	Control	0.6279	0.001	Yes	2.927	-0.001	3.0	GoodResponse	0	0.197	404.419	4	42	Target	Neutral	True
405.419	0.3	Control	0.6279	0.001	Yes	2.927	-0.001	3.0	GoodResponse	0	0.197	n/a	4	42	ButtonPress	Neutral	True
405.505	0.42	Control	0.6279	n/a	Yes	2.927	n/a	n/a	GoodResponse	0	n/a	n/a	4	42	Blank	Neutral	True
405.921	1.45	Control	0.6279	n/a	Yes	2.927	n/a	5.0	GoodResponse	0	0.006	404.927	4	42	Feedback	Neutral	True
407.371	2.927	Control	0.6279	n/a	Yes	2.927	n/a	n/a	GoodResponse	0	0.0	n/a	4	42	ISIslide	Neutral	True
410.32	0.25	Win2	0.6364	0.0	Yes	3.18	0.02	n/a	GoodResponse	1	n/a	n/a	5	43	Cue	Win	True
410.57	4.0	Win2	0.6364	0.0	Yes	3.18	0.0	n/a	GoodResponse	1	n/a	n/a	5	43	Fixation	Win	True
414.568	0.29	Win2	0.6364	0.002	Yes	3.18	-0.002	3.0	GoodResponse	1	0.254	413.822	5	43	Target	Win	True
414.822	0.3	Win2	0.6364	0.002	Yes	3.18	-0.002	3.0	GoodResponse	1	0.254	n/a	5	43	ButtonPress	Win	True
414.868	0.41	Win2	0.6364	n/a	Yes	3.18	n/a	n/a	GoodResponse	1	n/a	n/a	5	43	Blank	Win	True
415.268	1.45	Win2	0.6364	n/a	Yes	3.18	n/a	5.0	GoodResponse	1	0.024	414.292	5	43	Feedback	Win	True
416.718	3.18	Win2	0.6364	n/a	Yes	3.18	n/a	n/a	GoodResponse	1	0.0	n/a	5	43	ISIslide	Win	True
419.917	0.25	Win2	0.6444	0.0	Yes	2.983	0.017	n/a	GoodResponse	1	n/a	n/a	6	44	Cue	Win	True
420.166	4.0	Win2	0.6444	0.001	Yes	2.983	-0.001	n/a	GoodResponse	1	n/a	n/a	6	44	Fixation	Win	True
424.165	0.3	Win2	0.6444	0.002	Yes	2.983	-0.002	3.0	GoodResponse	1	0.187	423.352	6	44	Target	Win	True
424.352	0.3	Win2	0.6444	0.002	Yes	2.983	-0.002	3.0	GoodResponse	1	0.187	n/a	6	44	ButtonPress	Win	True
424.465	0.4	Win2	0.6444	n/a	Yes	2.983	n/a	n/a	GoodResponse	1	n/a	n/a	6	44	Blank	Win	True
424.865	1.45	Win2	0.6444	n/a	Yes	2.983	n/a	5.0	GoodResponse	1	0.037	423.902	6	44	Feedback	Win	True
426.314	2.983	Win2	0.6444	n/a	Yes	2.983	n/a	n/a	GoodResponse	1	0.0	n/a	6	44	ISIslide	Win	True
429.313	0.25	Control	0.6304	0.0	No	2.887	0.013	n/a	NoResponse	0	n/a	n/a	6	45	Cue	Neutral	False
429.563	4.1	Control	0.6304	0.0	No	2.887	0.0	n/a	NoResponse	0	n/a	n/a	6	45	Fixation	Neutral	False
433.662	0.31	Control	0.6304	0.001	No	2.887	-0.001	n/a	NoResponse	0	n/a	n/a	6	45	Target	Neutral	False
433.978	0.39	Control	0.6304	n/a	No	2.887	n/a	n/a	NoResponse	0	n/a	n/a	6	45	Blank	Neutral	False
434.362	1.45	Control	0.6304	n/a	No	2.887	n/a	5.0	NoResponse	0	0.006	433.368	6	45	Feedback	Neutral	False
435.811	2.887	Control	0.6304	n/a	No	2.887	n/a	n/a	NoResponse	0	0.0	n/a	6	45	ISIslide	Neutral	False
438.727	0.25	Lose2	0.6383	0.0	Yes	3.373	0.027	n/a	GoodResponse	0	n/a	n/a	6	46	Cue	AvoidedLoss	True
438.977	4.0	Lose2	0.6383	0.0	Yes	3.373	0.0	n/a	GoodResponse	0	n/a	n/a	6	46	Fixation	AvoidedLoss	True
442.975	0.32	Lose2	0.6383	0.002	Yes	3.373	-0.002	3.0	GoodResponse	0	0.216	442.191	6	46	Target	AvoidedLoss	True
443.191	0.3	Lose2	0.6383	0.002	Yes	3.373	-0.002	3.0	GoodResponse	0	0.216	n/a	6	46	ButtonPress	AvoidedLoss	True
443.308	0.38	Lose2	0.6383	n/a	Yes	3.373	n/a	n/a	GoodResponse	0	n/a	n/a	6	46	Blank	AvoidedLoss	True
443.675	1.45	Lose2	0.6383	n/a	Yes	3.373	n/a	5.0	GoodResponse	0	0.007	442.682	6	46	Feedback	AvoidedLoss	True
445.124	3.373	Lose2	0.6383	n/a	Yes	3.373	n/a	n/a	GoodResponse	0	0.0	n/a	6	46	ISIslide	AvoidedLoss	True
448.523	0.25	Lose2	0.6457999999999999	0.0	Yes	2.677	0.023	n/a	GoodResponse	0	n/a	n/a	6	47	Cue	AvoidedLoss	True
448.773	4.0	Lose2	0.6457999999999999	0.0	Yes	2.677	0.0	n/a	GoodResponse	0	n/a	n/a	6	47	Fixation	AvoidedLoss	True
452.772	0.33	Lose2	0.6457999999999999	0.001	Yes	2.677	-0.001	3.0	GoodResponse	0	0.21	451.982	6	47	Target	AvoidedLoss	True
452.982	0.3	Lose2	0.6457999999999999	0.001	Yes	2.677	-0.001	3.0	GoodResponse	0	0.21	n/a	6	47	ButtonPress	AvoidedLoss	True
453.105	0.37	Lose2	0.6457999999999999	n/a	Yes	2.677	n/a	n/a	GoodResponse	0	n/a	n/a	6	47	Blank	AvoidedLoss	True
453.472	1.45	Lose2	0.6457999999999999	n/a	Yes	2.677	n/a	5.0	GoodResponse	0	0.015	452.487	6	47	Feedback	AvoidedLoss	True
454.921	2.677	Lose2	0.6457999999999999	n/a	Yes	2.677	n/a	n/a	GoodResponse	0	0.0	n/a	6	47	ISIslide	AvoidedLoss	True
457.62	0.25	Lose2	0.6531	0.0	Yes	3.03	0.02	n/a	GoodResponse	0	n/a	n/a	6	48	Cue	AvoidedLoss	True
457.87	3.95	Lose2	0.6531	0.0	Yes	3.03	0.0	n/a	GoodResponse	0	n/a	n/a	6	48	Fixation	AvoidedLoss	True
461.819	0.34	Lose2	0.6531	0.001	Yes	3.03	-0.001	3.0	GoodResponse	0	0.211	461.03	6	48	Target	AvoidedLoss	True
462.03	0.3	Lose2	0.6531	0.001	Yes	3.03	-0.001	3.0	GoodResponse	0	0.211	n/a	6	48	ButtonPress	AvoidedLoss	True
462.168	0.36	Lose2	0.6531	n/a	Yes	3.03	n/a	n/a	GoodResponse	0	n/a	n/a	6	48	Blank	AvoidedLoss	True
462.518	1.45	Lose2	0.6531	n/a	Yes	3.03	n/a	5.0	GoodResponse	0	0.043	461.561	6	48	Feedback	AvoidedLoss	True
463.968	3.03	Lose2	0.6531	n/a	Yes	3.03	n/a	n/a	GoodResponse	0	0.0	n/a	6	48	ISIslide	AvoidedLoss	True
467.017	0.25	Control	0.66	0.0	Yes	2.883	0.017	n/a	GoodResponse	0	n/a	n/a	6	49	Cue	Neutral	True
467.267	4.0	Control	0.66	0.0	Yes	2.883	0.0	n/a	GoodResponse	0	n/a	n/a	6	49	Fixation	Neutral	True
471.265	0.35	Control	0.66	0.002	Yes	2.883	-0.002	3.0	GoodResponse	0	0.202	470.467	6	49	Target	Neutral	True
471.467	0.3	Control	0.66	0.002	Yes	2.883	-0.002	3.0	GoodResponse	0	0.202	n/a	6	49	ButtonPress	Neutral	True
471.615	0.35	Control	0.66	n/a	Yes	2.883	n/a	n/a	GoodResponse	0	n/a	n/a	6	49	Blank	Neutral	True
471.965	1.45	Control	0.66	n/a	Yes	2.883	n/a	5.0	GoodResponse	0	0.009	470.974	6	49	Feedback	Neutral	True
473.415	2.883	Control	0.66	n/a	Yes	2.883	n/a	n/a	GoodResponse	0	0.0	n/a	6	49	ISIslide	Neutral	True
476.314	0.25	Control	0.6667000000000001	0.0	Yes	2.786	0.014	n/a	GoodResponse	0	n/a	n/a	6	50	Cue	Neutral	True
476.563	4.0	Control	0.6667000000000001	0.001	Yes	2.786	-0.001	n/a	GoodResponse	0	n/a	n/a	6	50	Fixation	Neutral	True
480.562	0.35	Control	0.6667000000000001	0.002	Yes	2.786	-0.002	3.0	GoodResponse	0	0.33	479.892	6	50	Target	Neutral	True
480.892	0.3	Control	0.6667000000000001	0.002	Yes	2.786	-0.002	3.0	GoodResponse	0	0.33	n/a	6	50	ButtonPress	Neutral	True
480.912	0.35	Control	0.6667000000000001	n/a	Yes	2.786	n/a	n/a	GoodResponse	0	n/a	n/a	6	50	Blank	Neutral	True
481.262	1.45	Control	0.6667000000000001	n/a	Yes	2.786	n/a	5.0	GoodResponse	0	0.03	480.292	6	50	Feedback	Neutral	True
482.711	2.786	Control	0.6667000000000001	n/a	Yes	2.786	n/a	n/a	GoodResponse	0	0.0	n/a	6	50	ISIslide	Neutral	True
485.527	0.25	Control	0.6731	0.0	Yes	2.723	0.027	n/a	GoodResponse	0	n/a	n/a	6	51	Cue	Neutral	True
485.777	3.95	Control	0.6731	0.0	Yes	2.723	0.0	n/a	GoodResponse	0	n/a	n/a	6	51	Fixation	Neutral	True
489.726	0.34	Control	0.6731	0.001	Yes	2.723	-0.001	3.0	GoodResponse	0	0.231	488.957	6	51	Target	Neutral	True
489.957	0.3	Control	0.6731	0.001	Yes	2.723	-0.001	3.0	GoodResponse	0	0.231	n/a	6	51	ButtonPress	Neutral	True
490.075	0.36	Control	0.6731	n/a	Yes	2.723	n/a	n/a	GoodResponse	0	n/a	n/a	6	51	Blank	Neutral	True
490.425	1.45	Control	0.6731	n/a	Yes	2.723	n/a	5.0	GoodResponse	0	0.037	489.462	6	51	Feedback	Neutral	True
491.875	2.723	Control	0.6731	n/a	Yes	2.723	n/a	n/a	GoodResponse	0	0.0	n/a	6	51	ISIslide	Neutral	True
494.624	0.25	Control	0.6792	0.0	Yes	2.626	0.024	n/a	GoodResponse	0	n/a	n/a	6	52	Cue	Neutral	True
494.874	4.05	Control	0.6792	0.0	Yes	2.626	0.0	n/a	GoodResponse	0	n/a	n/a	6	52	Fixation	Neutral	True
498.922	0.33	Control	0.6792	0.002	Yes	2.626	-0.002	3.0	GoodResponse	0	0.216	498.138	6	52	Target	Neutral	True
499.138	0.3	Control	0.6792	0.002	Yes	2.626	-0.002	3.0	GoodResponse	0	0.216	n/a	6	52	ButtonPress	Neutral	True
499.256	0.37	Control	0.6792	n/a	Yes	2.626	n/a	n/a	GoodResponse	0	n/a	n/a	6	52	Blank	Neutral	True
499.622	1.45	Control	0.6792	n/a	Yes	2.626	n/a	5.0	GoodResponse	0	0.011	498.633	6	52	Feedback	Neutral	True
501.072	2.626	Control	0.6792	n/a	Yes	2.626	n/a	n/a	GoodResponse	0	0.0	n/a	6	52	ISIslide	Neutral	True
503.721	0.25	Win2	0.6851999999999999	0.0	Yes	2.929	0.021	n/a	GoodResponse	1	n/a	n/a	7	53	Cue	Win	True
503.971	4.05	Win2	0.6851999999999999	0.0	Yes	2.929	0.0	n/a	GoodResponse	1	n/a	n/a	7	53	Fixation	Win	True
508.019	0.32	Win2	0.6851999999999999	0.002	Yes	2.929	-0.002	3.0	GoodResponse	1	0.218	507.237	7	53	Target	Win	True
508.237	0.3	Win2	0.6851999999999999	0.002	Yes	2.929	-0.002	3.0	GoodResponse	1	0.218	n/a	7	53	ButtonPress	Win	True
508.352	0.38	Win2	0.6851999999999999	n/a	Yes	2.929	n/a	n/a	GoodResponse	1	n/a	n/a	7	53	Blank	Win	True
508.719	1.45	Win2	0.6851999999999999	n/a	Yes	2.929	n/a	5.0	GoodResponse	1	0.036	507.755	7	53	Feedback	Win	True
510.168	2.929	Win2	0.6851999999999999	n/a	Yes	2.929	n/a	n/a	GoodResponse	1	0.0	n/a	7	53	ISIslide	Win	True
513.117	0.25	Win2	0.6909000000000001	0.0	Yes	2.733	0.017	n/a	GoodResponse	1	n/a	n/a	8	54	Cue	Win	True
513.367	3.95	Win2	0.6909000000000001	0.0	Yes	2.733	0.0	n/a	GoodResponse	1	n/a	n/a	8	54	Fixation	Win	True
517.316	0.31	Win2	0.6909000000000001	0.001	Yes	2.733	-0.001	3.0	GoodResponse	1	0.208	516.524	8	54	Target	Win	True
517.524	0.3	Win2	0.6909000000000001	0.001	Yes	2.733	-0.001	3.0	GoodResponse	1	0.208	n/a	8	54	ButtonPress	Win	True
517.632	0.39	Win2	0.6909000000000001	n/a	Yes	2.733	n/a	n/a	GoodResponse	1	n/a	n/a	8	54	Blank	Win	True
518.016	1.45	Win2	0.6909000000000001	n/a	Yes	2.733	n/a	5.0	GoodResponse	1	0.007	517.023	8	54	Feedback	Win	True
519.465	2.733	Win2	0.6909000000000001	n/a	Yes	2.733	n/a	n/a	GoodResponse	1	0.0	n/a	8	54	ISIslide	Win	True
522.214	0.25	Control	0.6964	0.0	Yes	3.036	0.014	n/a	GoodResponse	0	n/a	n/a	8	55	Cue	Neutral	True
522.464	3.95	Control	0.6964	0.0	Yes	3.036	0.0	n/a	GoodResponse	0	n/a	n/a	8	55	Fixation	Neutral	True
526.413	0.3	Control	0.6964	0.001	Yes	3.036	-0.001	3.0	GoodResponse	0	0.22	525.633	8	55	Target	Neutral	True
526.633	0.3	Control	0.6964	0.001	Yes	3.036	-0.001	3.0	GoodResponse	0	0.22	n/a	8	55	ButtonPress	Neutral	True
526.713	0.4	Control	0.6964	n/a	Yes	3.036	n/a	n/a	GoodResponse	0	n/a	n/a	8	55	Blank	Neutral	True
527.113	1.45	Control	0.6964	n/a	Yes	3.036	n/a	5.0	GoodResponse	0	0.032	526.145	8	55	Feedback	Neutral	True
528.562	3.036	Control	0.6964	n/a	Yes	3.036	n/a	n/a	GoodResponse	0	0.0	n/a	8	55	ISIslide	Neutral	True
531.628	0.25	Control	0.7018000000000001	0.0	Yes	2.822	0.028	n/a	GoodResponse	0	n/a	n/a	8	56	Cue	Neutral	True
531.878	3.95	Control	0.7018000000000001	0.0	Yes	2.822	0.0	n/a	GoodResponse	0	n/a	n/a	8	56	Fixation	Neutral	True
535.826	0.29	Control	0.7018000000000001	0.002	Yes	2.822	-0.002	3.0	GoodResponse	0	0.207	535.033	8	56	Target	Neutral	True
536.033	0.3	Control	0.7018000000000001	0.002	Yes	2.822	-0.002	3.0	GoodResponse	0	0.207	n/a	8	56	ButtonPress	Neutral	True
536.126	0.41	Control	0.7018000000000001	n/a	Yes	2.822	n/a	n/a	GoodResponse	0	n/a	n/a	8	56	Blank	Neutral	True
536.526	1.45	Control	0.7018000000000001	n/a	Yes	2.822	n/a	5.0	GoodResponse	0	0.034	535.56	8	56	Feedback	Neutral	True
537.975	2.822	Control	0.7018000000000001	n/a	Yes	2.822	n/a	n/a	GoodResponse	0	0.0	n/a	8	56	ISIslide	Neutral	True
540.824	0.25	Control	0.7069	0.0	Yes	3.476	0.024	n/a	GoodResponse	0	n/a	n/a	8	57	Cue	Neutral	True
541.074	4.0	Control	0.7069	0.0	Yes	3.476	0.0	n/a	GoodResponse	0	n/a	n/a	8	57	Fixation	Neutral	True
545.073	0.28	Control	0.7069	0.001	Yes	3.476	-0.001	3.0	GoodResponse	0	0.246	544.319	8	57	Target	Neutral	True
545.319	0.3	Control	0.7069	0.001	Yes	3.476	-0.001	3.0	GoodResponse	0	0.246	n/a	8	57	ButtonPress	Neutral	True
545.356	0.42	Control	0.7069	n/a	Yes	3.476	n/a	n/a	GoodResponse	0	n/a	n/a	8	57	Blank	Neutral	True
545.773	1.45	Control	0.7069	n/a	Yes	3.476	n/a	5.0	GoodResponse	0	0.006	544.779	8	57	Feedback	Neutral	True
547.222	3.476	Control	0.7069	n/a	Yes	3.476	n/a	n/a	GoodResponse	0	0.0	n/a	8	57	ISIslide	Neutral	True
550.721	0.25	Win2	0.7119	0.0	Yes	2.729	0.021	n/a	GoodResponse	1	n/a	n/a	9	58	Cue	Win	True
550.971	4.05	Win2	0.7119	0.0	Yes	2.729	0.0	n/a	GoodResponse	1	n/a	n/a	9	58	Fixation	Win	True
555.019	0.27	Win2	0.7119	0.002	Yes	2.729	-0.002	3.0	GoodResponse	1	0.243	554.262	9	58	Target	Win	True
555.262	0.3	Win2	0.7119	0.002	Yes	2.729	-0.002	3.0	GoodResponse	1	0.243	n/a	9	58	ButtonPress	Win	True
555.303	0.43	Win2	0.7119	n/a	Yes	2.729	n/a	n/a	GoodResponse	1	n/a	n/a	9	58	Blank	Win	True
555.719	1.45	Win2	0.7119	n/a	Yes	2.729	n/a	5.0	GoodResponse	1	0.012	554.731	9	58	Feedback	Win	True
557.169	2.729	Win2	0.7119	n/a	Yes	2.729	n/a	n/a	GoodResponse	1	0.0	n/a	9	58	ISIslide	Win	True
559.918	0.25	Lose2	0.7167	0.0	Yes	2.682	0.018	n/a	GoodResponse	0	n/a	n/a	9	59	Cue	AvoidedLoss	True
560.168	4.0	Lose2	0.7167	0.0	Yes	2.682	0.0	n/a	GoodResponse	0	n/a	n/a	9	59	Fixation	AvoidedLoss	True
564.166	0.26	Lose2	0.7167	0.002	Yes	2.682	-0.002	3.0	GoodResponse	0	0.209	563.375	9	59	Target	AvoidedLoss	True
564.375	0.3	Lose2	0.7167	0.002	Yes	2.682	-0.002	3.0	GoodResponse	0	0.209	n/a	9	59	ButtonPress	AvoidedLoss	True
564.433	0.44	Lose2	0.7167	n/a	Yes	2.682	n/a	n/a	GoodResponse	0	n/a	n/a	9	59	Blank	AvoidedLoss	True
564.866	1.45	Lose2	0.7167	n/a	Yes	2.682	n/a	5.0	GoodResponse	0	0.035	563.901	9	59	Feedback	AvoidedLoss	True
566.316	2.682	Lose2	0.7167	n/a	Yes	2.682	n/a	n/a	GoodResponse	0	0.0	n/a	9	59	ISIslide	AvoidedLoss	True
569.015	0.25	Control	0.7049	0.0	No	2.685	0.015	n/a	NoResponse	0	n/a	n/a	9	60	Cue	Neutral	True
569.264	4.0	Control	0.7049	0.001	No	2.685	-0.001	n/a	NoResponse	0	n/a	n/a	9	60	Fixation	Neutral	True
573.263	0.25	Control	0.7049	0.002	No	2.685	-0.002	3.0	NoResponse	0	0.339	572.602	9	60	Target	Neutral	True
573.513	0.45	Control	0.7049	n/a	No	2.685	n/a	n/a	NoResponse	0	n/a	n/a	9	60	Blank	Neutral	True
573.602	0.3	Control	0.7049	0.002	No	2.685	-0.002	3.0	NoResponse	0	0.339	n/a	9	60	ButtonPress	Neutral	True
573.963	1.45	Control	0.7049	n/a	No	2.685	n/a	5.0	NoResponse	0	0.011	572.974	9	60	Feedback	Neutral	True
575.412	2.685	Control	0.7049	n/a	No	2.685	n/a	n/a	NoResponse	0	0.0	n/a	9	60	ISIslide	Neutral	True
578.111	0.25	Lose2	0.7097	0.0	Yes	2.989	0.011	n/a	GoodResponse	0	n/a	n/a	9	61	Cue	AvoidedLoss	True
578.361	4.0	Lose2	0.7097	0.0	Yes	2.989	0.0	n/a	GoodResponse	0	n/a	n/a	9	61	Fixation	AvoidedLoss	True
582.36	0.24	Lose2	0.7097	0.001	Yes	2.989	-0.001	3.0	GoodResponse	0	0.198	581.558	9	61	Target	AvoidedLoss	True
582.558	0.3	Lose2	0.7097	0.001	Yes	2.989	-0.001	3.0	GoodResponse	0	0.198	n/a	9	61	ButtonPress	AvoidedLoss	True
582.61	0.46	Lose2	0.7097	n/a	Yes	2.989	n/a	n/a	GoodResponse	0	n/a	n/a	9	61	Blank	AvoidedLoss	True
583.06	1.45	Lose2	0.7097	n/a	Yes	2.989	n/a	5.0	GoodResponse	0	0.036	582.096	9	61	Feedback	AvoidedLoss	True
584.509	2.989	Lose2	0.7097	n/a	Yes	2.989	n/a	n/a	GoodResponse	0	0.0	n/a	9	61	ISIslide	AvoidedLoss	True
587.525	0.25	Lose2	0.7143	0.0	Yes	2.875	0.025	n/a	GoodResponse	0	n/a	n/a	9	62	Cue	AvoidedLoss	True
587.775	3.9	Lose2	0.7143	0.0	Yes	2.875	0.0	n/a	GoodResponse	0	n/a	n/a	9	62	Fixation	AvoidedLoss	True
591.673	0.23	Lose2	0.7143	0.002	Yes	2.875	-0.002	3.0	GoodResponse	0	0.156	590.829	9	62	Target	AvoidedLoss	True
591.829	0.3	Lose2	0.7143	0.002	Yes	2.875	-0.002	3.0	GoodResponse	0	0.156	n/a	9	62	ButtonPress	AvoidedLoss	True
591.907	0.47	Lose2	0.7143	n/a	Yes	2.875	n/a	n/a	GoodResponse	0	n/a	n/a	9	62	Blank	AvoidedLoss	True
592.373	1.45	Lose2	0.7143	n/a	Yes	2.875	n/a	5.0	GoodResponse	0	0.04	591.413	9	62	Feedback	AvoidedLoss	True
593.823	2.875	Lose2	0.7143	n/a	Yes	2.875	n/a	n/a	GoodResponse	0	0.0	n/a	9	62	ISIslide	AvoidedLoss	True
596.722	0.25	Lose2	0.7188	0.0	Yes	2.628	0.022	n/a	GoodResponse	0	n/a	n/a	9	63	Cue	AvoidedLoss	True
596.971	4.05	Lose2	0.7188	0.001	Yes	2.628	-0.001	n/a	GoodResponse	0	n/a	n/a	9	63	Fixation	AvoidedLoss	True
601.02	0.22	Lose2	0.7188	0.002	Yes	2.628	-0.002	3.0	GoodResponse	0	0.205	600.225	9	63	Target	AvoidedLoss	True
601.225	0.3	Lose2	0.7188	0.002	Yes	2.628	-0.002	3.0	GoodResponse	0	0.205	n/a	9	63	ButtonPress	AvoidedLoss	True
601.253	0.48	Lose2	0.7188	n/a	Yes	2.628	n/a	n/a	GoodResponse	0	n/a	n/a	9	63	Blank	AvoidedLoss	True
601.72	1.45	Lose2	0.7188	n/a	Yes	2.628	n/a	5.0	GoodResponse	0	0.01	600.73	9	63	Feedback	AvoidedLoss	True
603.169	2.628	Lose2	0.7188	n/a	Yes	2.628	n/a	n/a	GoodResponse	0	0.0	n/a	9	63	ISIslide	AvoidedLoss	True
605.818	0.25	Win2	0.7231000000000001	0.0	Yes	3.132	0.018	n/a	GoodResponse	1	n/a	n/a	10	64	Cue	Win	True
606.068	4.15	Win2	0.7231000000000001	0.0	Yes	3.132	0.0	n/a	GoodResponse	1	n/a	n/a	10	64	Fixation	Win	True
610.217	0.21	Win2	0.7231000000000001	0.001	Yes	3.132	-0.001	3.0	GoodResponse	1	0.188	609.405	10	64	Target	Win	True
610.405	0.3	Win2	0.7231000000000001	0.001	Yes	3.132	-0.001	3.0	GoodResponse	1	0.188	n/a	10	64	ButtonPress	Win	True
610.433	0.49	Win2	0.7231000000000001	n/a	Yes	3.132	n/a	n/a	GoodResponse	1	n/a	n/a	10	64	Blank	Win	True
610.917	1.45	Win2	0.7231000000000001	n/a	Yes	3.132	n/a	5.0	GoodResponse	1	0.033	609.95	10	64	Feedback	Win	True
612.366	3.132	Win2	0.7231000000000001	n/a	Yes	3.132	n/a	n/a	GoodResponse	1	0.0	n/a	10	64	ISIslide	Win	True
615.515	0.25	Control	0.7121	0.0	No	2.785	0.015	n/a	NoResponse	0	n/a	n/a	10	65	Cue	Neutral	True
615.765	4.0	Control	0.7121	0.0	No	2.785	0.0	n/a	NoResponse	0	n/a	n/a	10	65	Fixation	Neutral	True
619.764	0.2	Control	0.7121	0.001	No	2.785	-0.001	3.0	NoResponse	0	0.336	619.1	10	65	Target	Neutral	True
619.963	0.5	Control	0.7121	n/a	No	2.785	n/a	n/a	NoResponse	0	n/a	n/a	10	65	Blank	Neutral	True
620.1	0.3	Control	0.7121	0.001	No	2.785	-0.001	3.0	NoResponse	0	0.336	n/a	10	65	ButtonPress	Neutral	True
620.463	1.45	Control	0.7121	n/a	No	2.785	n/a	5.0	NoResponse	0	0.047	619.51	10	65	Feedback	Neutral	True
621.913	2.785	Control	0.7121	n/a	No	2.785	n/a	n/a	NoResponse	0	0.0	n/a	10	65	ISIslide	Neutral	True
624.712	0.25	Win2	0.7015	0.0	No	2.788	0.012	n/a	NoResponse	0	n/a	n/a	10	66	Cue	MissedWin	True
624.962	3.9	Win2	0.7015	0.0	No	2.788	0.0	n/a	NoResponse	0	n/a	n/a	10	66	Fixation	MissedWin	True
628.86	0.19	Win2	0.7015	0.002	No	2.788	-0.002	3.0	NoResponse	0	0.254	628.114	10	66	Target	MissedWin	True
629.06	0.51	Win2	0.7015	n/a	No	2.788	n/a	n/a	NoResponse	0	n/a	n/a	10	66	Blank	MissedWin	True
629.114	0.3	Win2	0.7015	0.002	No	2.788	-0.002	3.0	NoResponse	0	0.254	n/a	10	66	ButtonPress	MissedWin	True
629.56	1.45	Win2	0.7015	n/a	No	2.788	n/a	5.0	NoResponse	0	0.023	628.583	10	66	Feedback	MissedWin	True
631.01	2.788	Win2	0.7015	n/a	No	2.788	n/a	n/a	NoResponse	0	0.0	n/a	10	66	ISIslide	MissedWin	True
633.825	0.25	Control	0.6912	0.0	No	2.725	0.025	n/a	NoResponse	0	n/a	n/a	10	67	Cue	Neutral	True
634.075	3.95	Control	0.6912	0.0	No	2.725	0.0	n/a	NoResponse	0	n/a	n/a	10	67	Fixation	Neutral	True
638.024	0.18	Control	0.6912	0.001	No	2.725	-0.001	3.0	NoResponse	0	0.274	637.298	10	67	Target	Neutral	True
638.207	0.52	Control	0.6912	n/a	No	2.725	n/a	n/a	NoResponse	0	n/a	n/a	10	67	Blank	Neutral	True
638.298	0.3	Control	0.6912	0.001	No	2.725	-0.001	3.0	NoResponse	0	0.274	n/a	10	67	ButtonPress	Neutral	True
638.724	1.45	Control	0.6912	n/a	No	2.725	n/a	5.0	NoResponse	0	0.03	637.754	10	67	Feedback	Neutral	True
640.173	2.725	Control	0.6912	n/a	No	2.725	n/a	n/a	NoResponse	0	0.0	n/a	10	67	ISIslide	Neutral	True
642.922	0.25	Win2	0.6812	0.0	No	3.078	0.022	n/a	NoResponse	0	n/a	n/a	10	68	Cue	MissedWin	True
643.172	4.0	Win2	0.6812	0.0	No	3.078	0.0	n/a	NoResponse	0	n/a	n/a	10	68	Fixation	MissedWin	True
647.171	0.17	Win2	0.6812	0.001	No	3.078	-0.001	3.0	NoResponse	0	0.191	646.362	10	68	Target	MissedWin	True
647.354	0.53	Win2	0.6812	n/a	No	3.078	n/a	n/a	NoResponse	0	n/a	n/a	10	68	Blank	MissedWin	True
647.362	0.3	Win2	0.6812	0.001	No	3.078	-0.001	3.0	NoResponse	0	0.191	n/a	10	68	ButtonPress	MissedWin	True
647.87	1.45	Win2	0.6812	n/a	No	3.078	n/a	5.0	NoResponse	0	0.006	646.876	10	68	Feedback	MissedWin	True
649.32	3.078	Win2	0.6812	n/a	No	3.078	n/a	n/a	NoResponse	0	0.0	n/a	10	68	ISIslide	MissedWin	True
652.419	0.25	Win2	0.6714	0.0	No	3.231	0.019	n/a	NoResponse	0	n/a	n/a	10	69	Cue	MissedWin	True
652.669	3.95	Win2	0.6714	0.0	No	3.231	0.0	3.0	NoResponse	0	3.286	654.955	10	69	Fixation	MissedWin	True
655.955	0.3	Win2	0.6714	0.0	No	3.231	0.0	3.0	NoResponse	0	3.286	n/a	10	69	ButtonPress	MissedWin	True
656.617	0.16	Win2	0.6714	0.002	No	3.231	-0.002	n/a	NoResponse	0	n/a	n/a	10	69	Target	MissedWin	True
656.784	0.54	Win2	0.6714	n/a	No	3.231	n/a	n/a	NoResponse	0	n/a	n/a	10	69	Blank	MissedWin	True
657.317	1.45	Win2	0.6714	n/a	No	3.231	n/a	5.0	NoResponse	0	0.023	656.34	10	69	Feedback	MissedWin	True
658.767	3.231	Win2	0.6714	n/a	No	3.231	n/a	n/a	NoResponse	0	0.0	n/a	10	69	ISIslide	MissedWin	True
662.015	0.25	Lose2	0.662	0.001	No	3.035	0.015	n/a	NoResponse	-1	n/a	n/a	9	70	Cue	Loss	True
662.265	4.05	Lose2	0.662	0.0	No	3.035	0.0	n/a	NoResponse	-1	n/a	n/a	9	70	Fixation	Loss	True
666.314	0.15	Lose2	0.662	0.001	No	3.035	-0.001	3.0	NoResponse	-1	0.182	665.496	9	70	Target	Loss	True
666.464	0.55	Lose2	0.662	n/a	No	3.035	n/a	n/a	NoResponse	-1	n/a	n/a	9	70	Blank	Loss	True
666.496	0.3	Lose2	0.662	0.001	No	3.035	-0.001	3.0	NoResponse	-1	0.182	n/a	9	70	ButtonPress	Loss	True
667.014	1.45	Lose2	0.662	n/a	No	3.035	n/a	5.0	NoResponse	-1	0.032	666.046	9	70	Feedback	Loss	True
668.463	3.035	Lose2	0.662	n/a	No	3.035	n/a	n/a	NoResponse	-1	0.0	n/a	9	70	ISIslide	Loss	True
671.512	0.25	Win2	0.6528	0.0	No	2.738	0.012	n/a	NoResponse	0	n/a	n/a	9	71	Cue	MissedWin	True
671.762	4.05	Win2	0.6528	0.0	No	2.738	0.0	n/a	NoResponse	0	n/a	n/a	9	71	Fixation	MissedWin	True
675.811	0.15	Win2	0.6528	0.001	No	2.738	-0.001	3.0	NoResponse	0	0.197	675.008	9	71	Target	MissedWin	True
675.961	0.55	Win2	0.6528	n/a	No	2.738	n/a	n/a	NoResponse	0	n/a	n/a	9	71	Blank	MissedWin	True
676.008	0.3	Win2	0.6528	0.001	No	2.738	-0.001	3.0	NoResponse	0	0.197	n/a	9	71	ButtonPress	MissedWin	True
676.51	1.45	Win2	0.6528	n/a	No	2.738	n/a	5.0	NoResponse	0	0.049	675.559	9	71	Feedback	MissedWin	True
677.96	2.738	Win2	0.6528	n/a	No	2.738	n/a	n/a	NoResponse	0	0.0	n/a	9	71	ISIslide	MissedWin	True
680.726	0.25	Win2	0.6437999999999999	0.0	No	2.774	0.026	n/a	NoResponse	0	n/a	n/a	9	72	Cue	MissedWin	True
680.976	4.1	Win2	0.6437999999999999	0.0	No	2.774	0.0	n/a	NoResponse	0	n/a	n/a	9	72	Fixation	MissedWin	True
685.074	0.16	Win2	0.6437999999999999	0.002	No	2.774	-0.002	3.0	NoResponse	0	0.203	684.277	9	72	Target	MissedWin	True
685.241	0.54	Win2	0.6437999999999999	n/a	No	2.774	n/a	n/a	NoResponse	0	n/a	n/a	9	72	Blank	MissedWin	True
685.277	0.3	Win2	0.6437999999999999	0.002	No	2.774	-0.002	3.0	NoResponse	0	0.203	n/a	9	72	ButtonPress	MissedWin	True
685.774	1.45	Win2	0.6437999999999999	n/a	No	2.774	n/a	5.0	NoResponse	0	0.004	684.778	9	72	Feedback	MissedWin	True
687.223	2.774	Win2	0.6437999999999999	n/a	No	2.774	n/a	n/a	NoResponse	0	0.0	n/a	9	72	ISIslide	MissedWin	True
690.022	0.25	Win2	0.6351	0.0	No	2.678	0.022	n/a	NoResponse	0	n/a	n/a	9	73	Cue	MissedWin	True
690.272	4.0	Win2	0.6351	0.0	No	2.678	0.0	3.0	NoResponse	0	3.998	693.27	9	73	Fixation	MissedWin	True
694.27	0.3	Win2	0.6351	0.0	No	2.678	0.0	3.0	NoResponse	0	3.998	n/a	9	73	ButtonPress	MissedWin	True
694.271	0.17	Win2	0.6351	0.001	No	2.678	-0.001	n/a	NoResponse	0	n/a	n/a	9	73	Target	MissedWin	True
694.437	0.53	Win2	0.6351	n/a	No	2.678	n/a	n/a	NoResponse	0	n/a	n/a	9	73	Blank	MissedWin	True
694.971	1.45	Win2	0.6351	n/a	No	2.678	n/a	5.0	NoResponse	0	0.027	693.998	9	73	Feedback	MissedWin	True
696.42	2.678	Win2	0.6351	n/a	No	2.678	n/a	n/a	NoResponse	0	0.0	n/a	9	73	ISIslide	MissedWin	True
699.119	0.25	Lose2	0.6267	0.0	No	2.631	0.019	n/a	NoResponse	-1	n/a	n/a	8	74	Cue	Loss	True
699.369	4.05	Lose2	0.6267	0.0	No	2.631	0.0	n/a	NoResponse	-1	n/a	n/a	8	74	Fixation	Loss	True
703.418	0.18	Lose2	0.6267	0.001	No	2.631	-0.001	3.0	NoResponse	-1	0.207	702.625	8	74	Target	Loss	True
703.601	0.52	Lose2	0.6267	n/a	No	2.631	n/a	n/a	NoResponse	-1	n/a	n/a	8	74	Blank	Loss	True
703.625	0.3	Lose2	0.6267	0.001	No	2.631	-0.001	3.0	NoResponse	-1	0.207	n/a	8	74	ButtonPress	Loss	True
704.117	1.45	Lose2	0.6267	n/a	No	2.631	n/a	5.0	NoResponse	-1	0.004	703.121	8	74	Feedback	Loss	True
705.567	2.631	Lose2	0.6267	n/a	No	2.631	n/a	n/a	NoResponse	-1	0.0	n/a	8	74	ISIslide	Loss	True
708.216	0.25	Lose2	0.6184000000000001	0.0	No	2.934	0.016	n/a	LatePress	-1	n/a	n/a	7	75	Cue	Loss	True
708.466	3.95	Lose2	0.6184000000000001	0.0	No	2.934	0.0	n/a	LatePress	-1	n/a	n/a	7	75	Fixation	Loss	True
712.415	0.19	Lose2	0.6184000000000001	0.001	No	2.934	-0.001	3.0	LatePress	-1	0.198	711.613	7	75	Target	Loss	True
712.613	0.3	Lose2	0.6184000000000001	0.001	No	2.934	-0.001	3.0	LatePress	-1	0.198	n/a	7	75	ButtonPress	Loss	True
712.614	0.51	Lose2	0.6184000000000001	n/a	No	2.934	n/a	n/a	LatePress	-1	n/a	n/a	7	75	Blank	Loss	True
713.114	1.45	Lose2	0.6184000000000001	n/a	No	2.934	n/a	5.0	LatePress	-1	0.03	712.144	7	75	Feedback	Loss	True
714.564	2.934	Lose2	0.6184000000000001	n/a	No	2.934	n/a	n/a	LatePress	-1	0.0	n/a	7	75	ISIslide	Loss	True
717.513	0.25	Control	0.6103999999999999	0.0	No	3.237	0.013	n/a	NoResponse	0	n/a	n/a	7	76	Cue	Neutral	True
717.763	4.05	Control	0.6103999999999999	0.0	No	3.237	0.0	3.0	NoResponse	0	2.547	719.31	7	76	Fixation	Neutral	True
720.31	0.3	Control	0.6103999999999999	0.0	No	3.237	0.0	3.0	NoResponse	0	2.547	n/a	7	76	ButtonPress	Neutral	True
721.811	0.2	Control	0.6103999999999999	0.002	No	3.237	-0.002	n/a	NoResponse	0	n/a	n/a	7	76	Target	Neutral	True
722.011	0.5	Control	0.6103999999999999	n/a	No	3.237	n/a	n/a	NoResponse	0	n/a	n/a	7	76	Blank	Neutral	True
722.511	1.45	Control	0.6103999999999999	n/a	No	3.237	n/a	5.0	NoResponse	0	0.047	721.558	7	76	Feedback	Neutral	True
723.961	3.237	Control	0.6103999999999999	n/a	No	3.237	n/a	n/a	NoResponse	0	0.0	n/a	7	76	ISIslide	Neutral	True
727.226	0.25	Lose2	0.6026	0.0	No	2.574	0.026	n/a	NoResponse	-1	n/a	n/a	6	77	Cue	Loss	True
727.476	3.95	Lose2	0.6026	0.0	No	2.574	0.0	n/a	NoResponse	-1	n/a	n/a	6	77	Fixation	Loss	True
731.425	0.21	Lose2	0.6026	0.001	No	2.574	-0.001	3.0	NoResponse	-1	0.237	730.662	6	77	Target	Loss	True
731.641	0.49	Lose2	0.6026	n/a	No	2.574	n/a	n/a	NoResponse	-1	n/a	n/a	6	77	Blank	Loss	True
731.662	0.3	Lose2	0.6026	0.001	No	2.574	-0.001	3.0	NoResponse	-1	0.237	n/a	6	77	ButtonPress	Loss	True
732.124	1.45	Lose2	0.6026	n/a	No	2.574	n/a	5.0	NoResponse	-1	0.044	731.168	6	77	Feedback	Loss	True
733.574	2.574	Lose2	0.6026	n/a	No	2.574	n/a	n/a	NoResponse	-1	0.0	n/a	6	77	ISIslide	Loss	True
