onset	duration	cue_type	current_mean_accuracy	duration_error	is_hit	isi_adjusted	onset_delay	response	response_type	reward	rt	rt_time	total_reward	trial_number	trial_phase	trial_type	one_press
11.107	0.25	Control	1.0	0.0	Yes	2.943	0.007	n/a	GoodResponse	0	n/a	n/a	0	0	Cue	Neutral	True
11.357	3.85	Control	1.0	0.0	Yes	2.943	0.0	n/a	GoodResponse	0	n/a	n/a	0	0	Fixation	Neutral	True
15.205	0.4	Control	1.0	0.002	Yes	2.943	-0.002	4.0	GoodResponse	0	0.242	14.447	0	0	Target	Neutral	True
15.447	0.3	Control	1.0	0.002	Yes	2.943	-0.002	4.0	GoodResponse	0	0.242	n/a	0	0	ButtonPress	Neutral	True
15.605	0.3	Control	1.0	n/a	Yes	2.943	n/a	n/a	GoodResponse	0	n/a	n/a	0	0	Blank	Neutral	True
15.905	1.45	Control	1.0	n/a	Yes	2.943	n/a	5.0	GoodResponse	0	0.024	14.929	0	0	Feedback	Neutral	True
17.355	2.943	Control	1.0	n/a	Yes	2.943	n/a	n/a	GoodResponse	0	0.0	n/a	0	0	ISIslide	Neutral	True
20.32	0.25	Lose2	1.0	0.0	Yes	2.78	0.02	n/a	GoodResponse	0	n/a	n/a	0	1	Cue	AvoidedLoss	True
20.57	4.0	Lose2	1.0	0.0	Yes	2.78	0.0	n/a	GoodResponse	0	n/a	n/a	0	1	Fixation	AvoidedLoss	True
24.569	0.39	Lose2	1.0	0.001	Yes	2.78	-0.001	4.0	GoodResponse	0	0.212	23.781	0	1	Target	AvoidedLoss	True
24.781	0.3	Lose2	1.0	0.001	Yes	2.78	-0.001	4.0	GoodResponse	0	0.212	n/a	0	1	ButtonPress	AvoidedLoss	True
24.969	0.31	Lose2	1.0	n/a	Yes	2.78	n/a	n/a	GoodResponse	0	n/a	n/a	0	1	Blank	AvoidedLoss	True
25.268	1.45	Lose2	1.0	n/a	Yes	2.78	n/a	5.0	GoodResponse	0	0.026	24.294	0	1	Feedback	AvoidedLoss	True
26.718	2.78	Lose2	1.0	n/a	Yes	2.78	n/a	n/a	GoodResponse	0	0.0	n/a	0	1	ISIslide	AvoidedLoss	True
29.517	0.25	Control	1.0	0.0	Yes	2.583	0.017	n/a	GoodResponse	0	n/a	n/a	0	2	Cue	Neutral	True
29.767	4.1	Control	1.0	0.0	Yes	2.583	0.0	n/a	GoodResponse	0	n/a	n/a	0	2	Fixation	Neutral	True
33.865	0.38	Control	1.0	0.002	Yes	2.583	-0.002	4.0	GoodResponse	0	0.25	33.115	0	2	Target	Neutral	True
34.115	0.3	Control	1.0	0.002	Yes	2.583	-0.002	4.0	GoodResponse	0	0.25	n/a	0	2	ButtonPress	Neutral	True
34.249	0.32	Control	1.0	n/a	Yes	2.583	n/a	n/a	GoodResponse	0	n/a	n/a	0	2	Blank	Neutral	True
34.565	1.45	Control	1.0	n/a	Yes	2.583	n/a	5.0	GoodResponse	0	0.046	33.611	0	2	Feedback	Neutral	True
36.015	2.583	Control	1.0	n/a	Yes	2.583	n/a	n/a	GoodResponse	0	0.0	n/a	0	2	ISIslide	Neutral	True
38.614	0.25	Win2	1.0	0.0	Yes	2.836	0.014	n/a	GoodResponse	1	n/a	n/a	1	3	Cue	Win	True
38.864	3.95	Win2	1.0	0.0	Yes	2.836	0.0	n/a	GoodResponse	1	n/a	n/a	1	3	Fixation	Win	True
42.812	0.37	Win2	1.0	0.002	Yes	2.836	-0.002	4.0	GoodResponse	1	0.203	42.015	1	3	Target	Win	True
43.015	0.3	Win2	1.0	0.002	Yes	2.836	-0.002	4.0	GoodResponse	1	0.203	n/a	1	3	ButtonPress	Win	True
43.196	0.33	Win2	1.0	n/a	Yes	2.836	n/a	n/a	GoodResponse	1	n/a	n/a	1	3	Blank	Win	True
43.512	1.45	Win2	1.0	n/a	Yes	2.836	n/a	5.0	GoodResponse	1	0.026	42.538	1	3	Feedback	Win	True
44.962	2.836	Win2	1.0	n/a	Yes	2.836	n/a	n/a	GoodResponse	1	0.0	n/a	1	3	ISIslide	Win	True
47.827	0.25	Win2	1.0	0.0	Yes	3.273	0.027	n/a	GoodResponse	1	n/a	n/a	2	4	Cue	Win	True
48.077	4.0	Win2	1.0	0.0	Yes	3.273	0.0	n/a	GoodResponse	1	n/a	n/a	2	4	Fixation	Win	True
52.076	0.36	Win2	1.0	0.001	Yes	3.273	-0.001	4.0	GoodResponse	1	0.192	51.268	2	4	Target	Win	True
52.268	0.3	Win2	1.0	0.001	Yes	3.273	-0.001	4.0	GoodResponse	1	0.192	n/a	2	4	ButtonPress	Win	True
52.442	0.34	Win2	1.0	n/a	Yes	3.273	n/a	n/a	GoodResponse	1	n/a	n/a	2	4	Blank	Win	True
52.775	1.45	Win2	1.0	n/a	Yes	3.273	n/a	5.0	GoodResponse	1	0.032	51.807	2	4	Feedback	Win	True
54.225	3.273	Win2	1.0	n/a	Yes	3.273	n/a	n/a	GoodResponse	1	0.0	n/a	2	4	ISIslide	Win	True
57.524	0.25	Win2	1.0	0.0	Yes	2.776	0.024	n/a	GoodResponse	1	n/a	n/a	3	5	Cue	Win	True
57.774	4.0	Win2	1.0	0.0	Yes	2.776	0.0	n/a	GoodResponse	1	n/a	n/a	3	5	Fixation	Win	True
61.772	0.35	Win2	1.0	0.002	Yes	2.776	-0.002	4.0	GoodResponse	1	0.216	60.988	3	5	Target	Win	True
61.988	0.3	Win2	1.0	0.002	Yes	2.776	-0.002	4.0	GoodResponse	1	0.216	n/a	3	5	ButtonPress	Win	True
62.122	0.35	Win2	1.0	n/a	Yes	2.776	n/a	n/a	GoodResponse	1	n/a	n/a	3	5	Blank	Win	True
62.472	1.45	Win2	1.0	n/a	Yes	2.776	n/a	5.0	GoodResponse	1	0.042	61.514	3	5	Feedback	Win	True
63.922	2.776	Win2	1.0	n/a	Yes	2.776	n/a	n/a	GoodResponse	1	0.0	n/a	3	5	ISIslide	Win	True
66.721	0.25	Lose2	1.0	0.0	Yes	2.729	0.021	n/a	GoodResponse	0	n/a	n/a	3	6	Cue	AvoidedLoss	True
66.97	3.95	Lose2	1.0	0.001	Yes	2.729	-0.001	n/a	GoodResponse	0	n/a	n/a	3	6	Fixation	AvoidedLoss	True
70.919	0.34	Lose2	1.0	0.002	Yes	2.729	-0.002	4.0	GoodResponse	0	0.212	70.131	3	6	Target	AvoidedLoss	True
71.131	0.3	Lose2	1.0	0.002	Yes	2.729	-0.002	4.0	GoodResponse	0	0.212	n/a	3	6	ButtonPress	AvoidedLoss	True
71.269	0.36	Lose2	1.0	n/a	Yes	2.729	n/a	n/a	GoodResponse	0	n/a	n/a	3	6	Blank	AvoidedLoss	True
71.619	1.45	Lose2	1.0	n/a	Yes	2.729	n/a	5.0	GoodResponse	0	0.016	70.635	3	6	Feedback	AvoidedLoss	True
73.068	2.729	Lose2	1.0	n/a	Yes	2.729	n/a	n/a	GoodResponse	0	0.0	n/a	3	6	ISIslide	AvoidedLoss	True
75.817	0.25	Lose2	1.0	0.0	Yes	4.033	0.017	n/a	GoodResponse	0	n/a	n/a	3	7	Cue	AvoidedLoss	True
76.067	4.05	Lose2	1.0	0.0	Yes	4.033	0.0	n/a	GoodResponse	0	n/a	n/a	3	7	Fixation	AvoidedLoss	True
80.116	0.33	Lose2	1.0	0.001	Yes	4.033	-0.001	4.0	GoodResponse	0	0.209	79.325	3	7	Target	AvoidedLoss	True
80.325	0.3	Lose2	1.0	0.001	Yes	4.033	-0.001	4.0	GoodResponse	0	0.209	n/a	3	7	ButtonPress	AvoidedLoss	True
80.449	0.37	Lose2	1.0	n/a	Yes	4.033	n/a	n/a	GoodResponse	0	n/a	n/a	3	7	Blank	AvoidedLoss	True
80.816	1.45	Lose2	1.0	n/a	Yes	4.033	n/a	5.0	GoodResponse	0	0.039	79.855	3	7	Feedback	AvoidedLoss	True
82.265	4.033	Lose2	1.0	n/a	Yes	4.033	n/a	n/a	GoodResponse	0	0.0	n/a	3	7	ISIslide	AvoidedLoss	True
86.314	0.25	Lose2	1.0	0.0	Yes	3.036	0.014	n/a	GoodResponse	0	n/a	n/a	3	8	Cue	AvoidedLoss	True
86.564	3.95	Lose2	1.0	0.0	Yes	3.036	0.0	n/a	GoodResponse	0	n/a	n/a	3	8	Fixation	AvoidedLoss	True
90.512	0.32	Lose2	1.0	0.002	Yes	3.036	-0.002	4.0	GoodResponse	0	0.209	89.721	3	8	Target	AvoidedLoss	True
90.721	0.3	Lose2	1.0	0.002	Yes	3.036	-0.002	4.0	GoodResponse	0	0.209	n/a	3	8	ButtonPress	AvoidedLoss	True
90.845	0.38	Lose2	1.0	n/a	Yes	3.036	n/a	n/a	GoodResponse	0	n/a	n/a	3	8	Blank	AvoidedLoss	True
91.212	1.45	Lose2	1.0	n/a	Yes	3.036	n/a	5.0	GoodResponse	0	0.033	90.245	3	8	Feedback	AvoidedLoss	True
92.661	3.036	Lose2	1.0	n/a	Yes	3.036	n/a	n/a	GoodResponse	0	0.0	n/a	3	8	ISIslide	AvoidedLoss	True
95.727	0.25	Lose2	1.0	0.0	Yes	3.123	0.027	n/a	GoodResponse	0	n/a	n/a	3	9	Cue	AvoidedLoss	True
95.977	3.95	Lose2	1.0	0.0	Yes	3.123	0.0	n/a	GoodResponse	0	n/a	n/a	3	9	Fixation	AvoidedLoss	True
99.926	0.31	Lose2	1.0	0.001	Yes	3.123	-0.001	4.0	GoodResponse	0	0.217	99.143	3	9	Target	AvoidedLoss	True
100.143	0.3	Lose2	1.0	0.001	Yes	3.123	-0.001	4.0	GoodResponse	0	0.217	n/a	3	9	ButtonPress	AvoidedLoss	True
100.242	0.39	Lose2	1.0	n/a	Yes	3.123	n/a	n/a	GoodResponse	0	n/a	n/a	3	9	Blank	AvoidedLoss	True
100.625	1.45	Lose2	1.0	n/a	Yes	3.123	n/a	5.0	GoodResponse	0	0.035	99.66	3	9	Feedback	AvoidedLoss	True
102.075	3.123	Lose2	1.0	n/a	Yes	3.123	n/a	n/a	GoodResponse	0	0.0	n/a	3	9	ISIslide	AvoidedLoss	True
105.224	0.25	Control	1.0	0.0	Yes	3.276	0.024	n/a	GoodResponse	0	n/a	n/a	3	10	Cue	Neutral	True
105.474	4.0	Control	1.0	0.0	Yes	3.276	0.0	n/a	GoodResponse	0	n/a	n/a	3	10	Fixation	Neutral	True
109.472	0.3	Control	1.0	0.002	Yes	3.276	-0.002	4.0	GoodResponse	0	0.224	108.696	3	10	Target	Neutral	True
109.696	0.3	Control	1.0	0.002	Yes	3.276	-0.002	4.0	GoodResponse	0	0.224	n/a	3	10	ButtonPress	Neutral	True
109.772	0.4	Control	1.0	n/a	Yes	3.276	n/a	n/a	GoodResponse	0	n/a	n/a	3	10	Blank	Neutral	True
110.172	1.45	Control	1.0	n/a	Yes	3.276	n/a	5.0	GoodResponse	0	0.048	109.22	3	10	Feedback	Neutral	True
111.621	3.276	Control	1.0	n/a	Yes	3.276	n/a	n/a	GoodResponse	0	0.0	n/a	3	10	ISIslide	Neutral	True
114.92	0.25	Lose2	1.0	0.0	Yes	2.73	0.02	n/a	GoodResponse	0	n/a	n/a	3	11	Cue	AvoidedLoss	True
115.17	4.05	Lose2	1.0	0.0	Yes	2.73	0.0	n/a	GoodResponse	0	n/a	n/a	3	11	Fixation	AvoidedLoss	True
119.219	0.29	Lose2	1.0	0.001	Yes	2.73	-0.001	4.0	GoodResponse	0	0.278	118.497	3	11	Target	AvoidedLoss	True
119.497	0.3	Lose2	1.0	0.001	Yes	2.73	-0.001	4.0	GoodResponse	0	0.278	n/a	3	11	ButtonPress	AvoidedLoss	True
119.519	0.41	Lose2	1.0	n/a	Yes	2.73	n/a	n/a	GoodResponse	0	n/a	n/a	3	11	Blank	AvoidedLoss	True
119.918	1.45	Lose2	1.0	n/a	Yes	2.73	n/a	5.0	GoodResponse	0	0.01	118.928	3	11	Feedback	AvoidedLoss	True
121.368	2.73	Lose2	1.0	n/a	Yes	2.73	n/a	n/a	GoodResponse	0	0.0	n/a	3	11	ISIslide	AvoidedLoss	True
124.117	0.25	Control	1.0	0.0	Yes	2.983	0.017	n/a	GoodResponse	0	n/a	n/a	3	12	Cue	Neutral	True
124.367	3.9	Control	1.0	0.0	Yes	2.983	0.0	n/a	GoodResponse	0	n/a	n/a	3	12	Fixation	Neutral	True
128.266	0.28	Control	1.0	0.001	Yes	2.983	-0.001	4.0	GoodResponse	0	0.261	127.527	3	12	Target	Neutral	True
128.527	0.3	Control	1.0	0.001	Yes	2.983	-0.001	4.0	GoodResponse	0	0.261	n/a	3	12	ButtonPress	Neutral	True
128.549	0.42	Control	1.0	n/a	Yes	2.983	n/a	n/a	GoodResponse	0	n/a	n/a	3	12	Blank	Neutral	True
128.965	1.45	Control	1.0	n/a	Yes	2.983	n/a	5.0	GoodResponse	0	0.036	128.001	3	12	Feedback	Neutral	True
130.415	2.983	Control	1.0	n/a	Yes	2.983	n/a	n/a	GoodResponse	0	0.0	n/a	3	12	ISIslide	Neutral	True
133.414	0.25	Control	0.9286	0.0	No	2.786	0.014	n/a	PrematurePress	0	n/a	n/a	3	13	Cue	Neutral	True
133.664	4.0	Control	0.9286	0.0	No	2.786	0.0	n/a	PrematurePress	0	n/a	n/a	3	13	Fixation	Neutral	True
137.662	0.27	Control	0.9286	0.002	No	2.786	-0.002	4.0	PrematurePress	0	0.067	136.729	3	13	Target	Neutral	True
137.729	0.3	Control	0.9286	0.002	No	2.786	-0.002	4.0	PrematurePress	0	0.067	n/a	3	13	ButtonPress	Neutral	True
137.945	0.43	Control	0.9286	n/a	No	2.786	n/a	n/a	PrematurePress	0	n/a	n/a	3	13	Blank	Neutral	True
138.362	1.45	Control	0.9286	n/a	No	2.786	n/a	5.0	PrematurePress	0	0.008	137.37	3	13	Feedback	Neutral	True
139.811	2.786	Control	0.9286	n/a	No	2.786	n/a	n/a	PrematurePress	0	0.0	n/a	3	13	ISIslide	Neutral	True
142.627	0.25	Win2	0.9333	0.0	Yes	2.673	0.027	n/a	GoodResponse	1	n/a	n/a	4	14	Cue	Win	True
142.877	4.1	Win2	0.9333	0.0	Yes	2.673	0.0	n/a	GoodResponse	1	n/a	n/a	4	14	Fixation	Win	True
146.976	0.26	Win2	0.9333	0.001	Yes	2.673	-0.001	4.0	GoodResponse	1	0.194	146.17	4	14	Target	Win	True
147.17	0.3	Win2	0.9333	0.001	Yes	2.673	-0.001	4.0	GoodResponse	1	0.194	n/a	4	14	ButtonPress	Win	True
147.242	0.44	Win2	0.9333	n/a	Yes	2.673	n/a	n/a	GoodResponse	1	n/a	n/a	4	14	Blank	Win	True
147.675	1.45	Win2	0.9333	n/a	Yes	2.673	n/a	5.0	GoodResponse	1	0.009	146.684	4	14	Feedback	Win	True
149.125	2.673	Win2	0.9333	n/a	Yes	2.673	n/a	n/a	GoodResponse	1	0.0	n/a	4	14	ISIslide	Win	True
151.824	0.25	Control	0.9375	0.0	Yes	2.976	0.024	n/a	GoodResponse	0	n/a	n/a	4	15	Cue	Neutral	True
152.074	4.0	Control	0.9375	0.0	Yes	2.976	0.0	n/a	GoodResponse	0	n/a	n/a	4	15	Fixation	Neutral	True
156.072	0.25	Control	0.9375	0.002	Yes	2.976	-0.002	4.0	GoodResponse	0	0.191	155.263	4	15	Target	Neutral	True
156.263	0.3	Control	0.9375	0.002	Yes	2.976	-0.002	4.0	GoodResponse	0	0.191	n/a	4	15	ButtonPress	Neutral	True
156.322	0.45	Control	0.9375	n/a	Yes	2.976	n/a	n/a	GoodResponse	0	n/a	n/a	4	15	Blank	Neutral	True
156.772	1.45	Control	0.9375	n/a	Yes	2.976	n/a	5.0	GoodResponse	0	0.033	155.805	4	15	Feedback	Neutral	True
158.222	2.976	Control	0.9375	n/a	Yes	2.976	n/a	n/a	GoodResponse	0	0.0	n/a	4	15	ISIslide	Neutral	True
161.221	0.25	Win2	0.9412	0.0	Yes	2.879	0.021	n/a	GoodResponse	1	n/a	n/a	5	16	Cue	Win	True
161.471	4.0	Win2	0.9412	0.0	Yes	2.879	0.0	n/a	GoodResponse	1	n/a	n/a	5	16	Fixation	Win	True
165.469	0.24	Win2	0.9412	0.002	Yes	2.879	-0.002	4.0	GoodResponse	1	0.215	164.684	5	16	Target	Win	True
165.684	0.3	Win2	0.9412	0.002	Yes	2.879	-0.002	4.0	GoodResponse	1	0.215	n/a	5	16	ButtonPress	Win	True
165.719	0.46	Win2	0.9412	n/a	Yes	2.879	n/a	n/a	GoodResponse	1	n/a	n/a	5	16	Blank	Win	True
166.169	1.45	Win2	0.9412	n/a	Yes	2.879	n/a	5.0	GoodResponse	1	0.002	165.171	5	16	Feedback	Win	True
167.618	2.879	Win2	0.9412	n/a	Yes	2.879	n/a	n/a	GoodResponse	1	0.0	n/a	5	16	ISIslide	Win	True
170.517	0.25	Lose2	0.8889	0.0	No	2.733	0.017	n/a	NoResponse	-1	n/a	n/a	4	17	Cue	Loss	True
170.767	3.95	Lose2	0.8889	0.0	No	2.733	0.0	n/a	NoResponse	-1	n/a	n/a	4	17	Fixation	Loss	True
174.716	0.23	Lose2	0.8889	0.001	No	2.733	-0.001	4.0	NoResponse	-1	0.286	174.002	4	17	Target	Loss	True
174.949	0.47	Lose2	0.8889	n/a	No	2.733	n/a	n/a	NoResponse	-1	n/a	n/a	4	17	Blank	Loss	True
175.002	0.3	Lose2	0.8889	0.001	No	2.733	-0.001	4.0	NoResponse	-1	0.286	n/a	4	17	ButtonPress	Loss	True
175.416	1.45	Lose2	0.8889	n/a	No	2.733	n/a	5.0	NoResponse	-1	0.024	174.44	4	17	Feedback	Loss	True
176.865	2.733	Lose2	0.8889	n/a	No	2.733	n/a	n/a	NoResponse	-1	0.0	n/a	4	17	ISIslide	Loss	True
179.614	0.25	Lose2	0.8421	0.0	No	2.736	0.014	n/a	NoResponse	-1	n/a	n/a	3	18	Cue	Loss	False
179.864	4.05	Lose2	0.8421	0.0	No	2.736	0.0	4.0	NoResponse	-1	3.882	182.746	3	18	Fixation	Loss	False
183.746	0.3	Lose2	0.8421	0.0	No	2.736	0.0	4.0	NoResponse	-1	3.882	n/a	3	18	ButtonPress	Loss	False
183.913	0.22	Lose2	0.8421	0.001	No	2.736	-0.001	4.0	NoResponse	-1	0.264	183.177	3	18	Target	Loss	False
184.146	0.48	Lose2	0.8421	n/a	No	2.736	n/a	n/a	NoResponse	-1	n/a	n/a	3	18	Blank	Loss	False
184.177	0.3	Lose2	0.8421	0.001	No	2.736	-0.001	4.0	NoResponse	-1	0.264	n/a	3	18	ButtonPress	Loss	False
184.612	1.45	Lose2	0.8421	n/a	No	2.736	n/a	5.0	NoResponse	-1	0.047	183.659	3	18	Feedback	Loss	False
186.062	2.736	Lose2	0.8421	n/a	No	2.736	n/a	n/a	NoResponse	-1	0.0	n/a	3	18	ISIslide	Loss	False
188.828	0.25	Control	0.85	0.0	Yes	2.922	0.028	n/a	GoodResponse	0	n/a	n/a	3	19	Cue	Neutral	True
189.077	3.95	Control	0.85	0.001	Yes	2.922	-0.001	n/a	GoodResponse	0	n/a	n/a	3	19	Fixation	Neutral	True
193.026	0.21	Control	0.85	0.002	Yes	2.922	-0.002	4.0	GoodResponse	0	0.209	192.235	3	19	Target	Neutral	True
193.235	0.3	Control	0.85	0.002	Yes	2.922	-0.002	4.0	GoodResponse	0	0.209	n/a	3	19	ButtonPress	Neutral	True
193.243	0.49	Control	0.85	n/a	Yes	2.922	n/a	n/a	GoodResponse	0	n/a	n/a	3	19	Blank	Neutral	True
193.726	1.45	Control	0.85	n/a	Yes	2.922	n/a	5.0	GoodResponse	0	0.008	192.734	3	19	Feedback	Neutral	True
195.175	2.922	Control	0.85	n/a	Yes	2.922	n/a	n/a	GoodResponse	0	0.0	n/a	3	19	ISIslide	Neutral	True
198.124	0.25	Control	0.8571	0.0	Yes	2.626	0.024	n/a	GoodResponse	0	n/a	n/a	3	20	Cue	Neutral	True
198.374	4.05	Control	0.8571	0.0	Yes	2.626	0.0	n/a	GoodResponse	0	n/a	n/a	3	20	Fixation	Neutral	True
202.423	0.2	Control	0.8571	0.001	Yes	2.626	-0.001	4.0	GoodResponse	0	0.189	201.612	3	20	Target	Neutral	True
202.612	0.3	Control	0.8571	0.001	Yes	2.626	-0.001	4.0	GoodResponse	0	0.189	n/a	3	20	ButtonPress	Neutral	True
202.623	0.5	Control	0.8571	n/a	Yes	2.626	n/a	n/a	GoodResponse	0	n/a	n/a	3	20	Blank	Neutral	True
203.122	1.45	Control	0.8571	n/a	Yes	2.626	n/a	5.0	GoodResponse	0	0.024	202.146	3	20	Feedback	Neutral	True
204.572	2.626	Control	0.8571	n/a	Yes	2.626	n/a	n/a	GoodResponse	0	0.0	n/a	3	20	ISIslide	Neutral	True
207.221	0.25	Control	0.8636	0.0	Yes	2.779	0.021	n/a	GoodResponse	0	n/a	n/a	3	21	Cue	Neutral	False
207.471	4.1	Control	0.8636	0.0	Yes	2.779	0.0	4.0	GoodResponse	0	0.026	206.497	3	21	Fixation	Neutral	False
207.497	0.3	Control	0.8636	0.0	Yes	2.779	0.0	4.0	GoodResponse	0	0.026	n/a	3	21	ButtonPress	Neutral	False
211.57	0.19	Control	0.8636	0.001	Yes	2.779	-0.001	4.0	GoodResponse	0	0.142	210.712	3	21	Target	Neutral	False
211.712	0.3	Control	0.8636	0.001	Yes	2.779	-0.001	4.0	GoodResponse	0	0.142	n/a	3	21	ButtonPress	Neutral	False
211.769	0.51	Control	0.8636	n/a	Yes	2.779	n/a	n/a	GoodResponse	0	n/a	n/a	3	21	Blank	Neutral	False
212.269	1.45	Control	0.8636	n/a	Yes	2.779	n/a	5.0	GoodResponse	0	0.048	211.317	3	21	Feedback	Neutral	False
213.719	2.779	Control	0.8636	n/a	Yes	2.779	n/a	n/a	GoodResponse	0	0.0	n/a	3	21	ISIslide	Neutral	False
216.518	0.25	Control	0.8695999999999999	0.0	Yes	2.782	0.018	n/a	GoodResponse	0	n/a	n/a	3	22	Cue	Neutral	True
216.768	4.0	Control	0.8695999999999999	0.0	Yes	2.782	0.0	n/a	GoodResponse	0	n/a	n/a	3	22	Fixation	Neutral	True
220.766	0.18	Control	0.8695999999999999	0.002	Yes	2.782	-0.002	4.0	GoodResponse	0	0.158	219.924	3	22	Target	Neutral	True
220.924	0.3	Control	0.8695999999999999	0.002	Yes	2.782	-0.002	4.0	GoodResponse	0	0.158	n/a	3	22	ButtonPress	Neutral	True
220.95	0.52	Control	0.8695999999999999	n/a	Yes	2.782	n/a	n/a	GoodResponse	0	n/a	n/a	3	22	Blank	Neutral	True
221.466	1.45	Control	0.8695999999999999	n/a	Yes	2.782	n/a	5.0	GoodResponse	0	0.022	220.488	3	22	Feedback	Neutral	True
222.916	2.782	Control	0.8695999999999999	n/a	Yes	2.782	n/a	n/a	GoodResponse	0	0.0	n/a	3	22	ISIslide	Neutral	True
225.715	0.25	Control	0.8332999999999999	0.0	No	2.785	0.015	n/a	NoResponse	0	n/a	n/a	3	23	Cue	Neutral	True
225.964	3.9	Control	0.8332999999999999	0.001	No	2.785	-0.001	n/a	NoResponse	0	n/a	n/a	3	23	Fixation	Neutral	True
229.863	0.17	Control	0.8332999999999999	0.002	No	2.785	-0.002	4.0	NoResponse	0	0.206	229.069	3	23	Target	Neutral	True
230.046	0.53	Control	0.8332999999999999	n/a	No	2.785	n/a	n/a	NoResponse	0	n/a	n/a	3	23	Blank	Neutral	True
230.069	0.3	Control	0.8332999999999999	0.002	No	2.785	-0.002	4.0	NoResponse	0	0.206	n/a	3	23	ButtonPress	Neutral	True
230.563	1.45	Control	0.8332999999999999	n/a	No	2.785	n/a	5.0	NoResponse	0	0.047	229.61	3	23	Feedback	Neutral	True
232.012	2.785	Control	0.8332999999999999	n/a	No	2.785	n/a	n/a	NoResponse	0	0.0	n/a	3	23	ISIslide	Neutral	True
234.828	0.25	Win2	0.8	0.0	No	3.122	0.028	n/a	NoResponse	0	n/a	n/a	3	24	Cue	MissedWin	True
235.078	3.95	Win2	0.8	0.0	No	3.122	0.0	n/a	NoResponse	0	n/a	n/a	3	24	Fixation	MissedWin	True
239.027	0.16	Win2	0.8	0.001	No	3.122	-0.001	4.0	NoResponse	0	0.204	238.231	3	24	Target	MissedWin	True
239.193	0.54	Win2	0.8	n/a	No	3.122	n/a	n/a	NoResponse	0	n/a	n/a	3	24	Blank	MissedWin	True
239.231	0.3	Win2	0.8	0.001	No	3.122	-0.001	4.0	NoResponse	0	0.204	n/a	3	24	ButtonPress	MissedWin	True
239.726	1.45	Win2	0.8	n/a	No	3.122	n/a	5.0	NoResponse	0	0.008	238.734	3	24	Feedback	MissedWin	True
241.176	3.122	Win2	0.8	n/a	No	3.122	n/a	n/a	NoResponse	0	0.0	n/a	3	24	ISIslide	MissedWin	True
244.325	0.25	Win2	0.7692	0.0	No	3.075	0.025	n/a	NoResponse	0	n/a	n/a	3	25	Cue	MissedWin	True
244.575	4.0	Win2	0.7692	0.0	No	3.075	0.0	n/a	NoResponse	0	n/a	n/a	3	25	Fixation	MissedWin	True
248.573	0.15	Win2	0.7692	0.002	No	3.075	-0.002	4.0	NoResponse	0	0.193	247.766	3	25	Target	MissedWin	True
248.723	0.55	Win2	0.7692	n/a	No	3.075	n/a	n/a	NoResponse	0	n/a	n/a	3	25	Blank	MissedWin	True
248.766	0.3	Win2	0.7692	0.002	No	3.075	-0.002	4.0	NoResponse	0	0.193	n/a	3	25	ButtonPress	MissedWin	True
249.273	1.45	Win2	0.7692	n/a	No	3.075	n/a	5.0	NoResponse	0	0.019	248.292	3	25	Feedback	MissedWin	True
250.722	3.075	Win2	0.7692	n/a	No	3.075	n/a	n/a	NoResponse	0	0.0	n/a	3	25	ISIslide	MissedWin	True
253.821	0.25	Win2	0.7406999999999999	0.0	No	2.929	0.021	n/a	NoResponse	0	n/a	n/a	3	26	Cue	MissedWin	True
254.071	3.95	Win2	0.7406999999999999	0.0	No	2.929	0.0	n/a	NoResponse	0	n/a	n/a	3	26	Fixation	MissedWin	True
258.02	0.15	Win2	0.7406999999999999	0.001	No	2.929	-0.001	4.0	NoResponse	0	0.201	257.221	3	26	Target	MissedWin	True
258.17	0.55	Win2	0.7406999999999999	n/a	No	2.929	n/a	n/a	NoResponse	0	n/a	n/a	3	26	Blank	MissedWin	True
258.221	0.3	Win2	0.7406999999999999	0.001	No	2.929	-0.001	4.0	NoResponse	0	0.201	n/a	3	26	ButtonPress	MissedWin	True
258.72	1.45	Win2	0.7406999999999999	n/a	No	2.929	n/a	5.0	NoResponse	0	0.036	257.756	3	26	Feedback	MissedWin	True
260.169	2.929	Win2	0.7406999999999999	n/a	No	2.929	n/a	n/a	NoResponse	0	0.0	n/a	3	26	ISIslide	MissedWin	True
263.118	0.25	Lose2	0.7143	0.0	No	2.832	0.018	n/a	NoResponse	-1	n/a	n/a	2	27	Cue	Loss	True
263.368	4.05	Lose2	0.7143	0.0	No	2.832	0.0	n/a	NoResponse	-1	n/a	n/a	2	27	Fixation	Loss	True
267.417	0.15	Lose2	0.7143	0.001	No	2.832	-0.001	4.0	NoResponse	-1	0.19	266.607	2	27	Target	Loss	True
267.566	0.55	Lose2	0.7143	n/a	No	2.832	n/a	n/a	NoResponse	-1	n/a	n/a	2	27	Blank	Loss	True
267.607	0.3	Lose2	0.7143	0.001	No	2.832	-0.001	4.0	NoResponse	-1	0.19	n/a	2	27	ButtonPress	Loss	True
268.116	1.45	Lose2	0.7143	n/a	No	2.832	n/a	5.0	NoResponse	-1	0.007	267.123	2	27	Feedback	Loss	True
269.566	2.832	Lose2	0.7143	n/a	No	2.832	n/a	n/a	NoResponse	-1	0.0	n/a	2	27	ISIslide	Loss	True
272.415	0.25	Control	0.6897	0.0	No	2.835	0.015	n/a	NoResponse	0	n/a	n/a	2	28	Cue	Neutral	True
272.665	4.05	Control	0.6897	0.0	No	2.835	0.0	n/a	NoResponse	0	n/a	n/a	2	28	Fixation	Neutral	True
276.713	0.15	Control	0.6897	0.002	No	2.835	-0.002	4.0	NoResponse	0	0.187	275.9	2	28	Target	Neutral	True
276.863	0.55	Control	0.6897	n/a	No	2.835	n/a	n/a	NoResponse	0	n/a	n/a	2	28	Blank	Neutral	True
276.9	0.3	Control	0.6897	0.002	No	2.835	-0.002	4.0	NoResponse	0	0.187	n/a	2	28	ButtonPress	Neutral	True
277.413	1.45	Control	0.6897	n/a	No	2.835	n/a	5.0	NoResponse	0	0.026	276.439	2	28	Feedback	Neutral	True
278.862	2.835	Control	0.6897	n/a	No	2.835	n/a	n/a	NoResponse	0	0.0	n/a	2	28	ISIslide	Neutral	True
281.728	0.25	Lose2	0.6667000000000001	0.0	No	2.822	0.028	n/a	NoResponse	-1	n/a	n/a	1	29	Cue	Loss	True
281.978	3.95	Lose2	0.6667000000000001	0.0	No	2.822	0.0	n/a	NoResponse	-1	n/a	n/a	1	29	Fixation	Loss	True
285.927	0.15	Lose2	0.6667000000000001	0.001	No	2.822	-0.001	4.0	NoResponse	-1	0.213	285.14	1	29	Target	Loss	True
286.077	0.55	Lose2	0.6667000000000001	n/a	No	2.822	n/a	n/a	NoResponse	-1	n/a	n/a	1	29	Blank	Loss	True
286.14	0.3	Lose2	0.6667000000000001	0.001	No	2.822	-0.001	4.0	NoResponse	-1	0.213	n/a	1	29	ButtonPress	Loss	True
286.626	1.45	Lose2	0.6667000000000001	n/a	No	2.822	n/a	5.0	NoResponse	-1	0.032	285.658	1	29	Feedback	Loss	True
288.076	2.822	Lose2	0.6667000000000001	n/a	No	2.822	n/a	n/a	NoResponse	-1	0.0	n/a	1	29	ISIslide	Loss	True
290.925	0.25	Win2	0.6452	0.0	No	2.775	0.025	n/a	NoResponse	0	n/a	n/a	1	30	Cue	MissedWin	True
291.175	3.9	Win2	0.6452	0.0	No	2.775	0.0	n/a	NoResponse	0	n/a	n/a	1	30	Fixation	MissedWin	True
295.073	0.15	Win2	0.6452	0.002	No	2.775	-0.002	4.0	NoResponse	0	0.236	294.309	1	30	Target	MissedWin	True
295.223	0.55	Win2	0.6452	n/a	No	2.775	n/a	n/a	NoResponse	0	n/a	n/a	1	30	Blank	MissedWin	True
295.309	0.3	Win2	0.6452	0.002	No	2.775	-0.002	4.0	NoResponse	0	0.236	n/a	1	30	ButtonPress	MissedWin	True
295.773	1.45	Win2	0.6452	n/a	No	2.775	n/a	5.0	NoResponse	0	0.008	294.781	1	30	Feedback	MissedWin	True
297.223	2.775	Win2	0.6452	n/a	No	2.775	n/a	n/a	NoResponse	0	0.0	n/a	1	30	ISIslide	MissedWin	True
300.022	0.25	Lose2	0.625	0.0	No	2.828	0.022	n/a	PrematurePress	-1	n/a	n/a	0	31	Cue	Loss	False
300.272	4.05	Lose2	0.625	0.0	No	2.828	0.0	4.0	PrematurePress	-1	3.66	302.932	0	31	Fixation	Loss	False
303.932	0.3	Lose2	0.625	0.0	No	2.828	0.0	4.0	PrematurePress	-1	3.66	n/a	0	31	ButtonPress	Loss	False
304.32	0.16	Lose2	0.625	0.002	No	2.828	-0.002	4.0	PrematurePress	-1	0.059	303.379	0	31	Target	Loss	False
304.379	0.3	Lose2	0.625	0.002	No	2.828	-0.002	4.0	PrematurePress	-1	0.059	n/a	0	31	ButtonPress	Loss	False
304.487	0.54	Lose2	0.625	n/a	No	2.828	n/a	n/a	PrematurePress	-1	n/a	n/a	0	31	Blank	Loss	False
305.02	1.45	Lose2	0.625	n/a	No	2.828	n/a	5.0	PrematurePress	-1	0.028	304.048	0	31	Feedback	Loss	False
306.469	2.828	Lose2	0.625	n/a	No	2.828	n/a	n/a	PrematurePress	-1	0.0	n/a	0	31	ISIslide	Loss	False
309.318	0.25	Lose2	0.6061	0.001	No	2.632	0.018	n/a	NoResponse	-1	n/a	n/a	-1	32	Cue	Loss	True
309.568	4.15	Lose2	0.6061	0.0	No	2.632	0.0	n/a	NoResponse	-1	n/a	n/a	-1	32	Fixation	Loss	True
313.717	0.17	Lose2	0.6061	0.001	No	2.632	-0.001	4.0	NoResponse	-1	0.197	312.914	-1	32	Target	Loss	True
313.883	0.53	Lose2	0.6061	n/a	No	2.632	n/a	n/a	NoResponse	-1	n/a	n/a	-1	32	Blank	Loss	True
313.914	0.3	Lose2	0.6061	0.001	No	2.632	-0.001	4.0	NoResponse	-1	0.197	n/a	-1	32	ButtonPress	Loss	True
314.417	1.45	Lose2	0.6061	n/a	No	2.632	n/a	5.0	NoResponse	-1	0.046	313.463	-1	32	Feedback	Loss	True
315.866	2.632	Lose2	0.6061	n/a	No	2.632	n/a	n/a	NoResponse	-1	0.0	n/a	-1	32	ISIslide	Loss	True
318.515	0.25	Win2	0.5882000000000001	0.0	No	2.685	0.015	n/a	NoResponse	0	n/a	n/a	-1	33	Cue	MissedWin	True
318.765	4.0	Win2	0.5882000000000001	0.0	No	2.685	0.0	n/a	NoResponse	0	n/a	n/a	-1	33	Fixation	MissedWin	True
322.764	0.18	Win2	0.5882000000000001	0.001	No	2.685	-0.001	4.0	NoResponse	0	0.192	321.956	-1	33	Target	MissedWin	True
322.947	0.52	Win2	0.5882000000000001	n/a	No	2.685	n/a	n/a	NoResponse	0	n/a	n/a	-1	33	Blank	MissedWin	True
322.956	0.3	Win2	0.5882000000000001	0.001	No	2.685	-0.001	4.0	NoResponse	0	0.192	n/a	-1	33	ButtonPress	MissedWin	True
323.463	1.45	Win2	0.5882000000000001	n/a	No	2.685	n/a	5.0	NoResponse	0	0.023	322.486	-1	33	Feedback	MissedWin	True
324.913	2.685	Win2	0.5882000000000001	n/a	No	2.685	n/a	n/a	NoResponse	0	0.0	n/a	-1	33	ISIslide	MissedWin	True
327.629	0.25	Lose2	0.5714	0.0	No	2.621	0.029	n/a	LatePress	-1	n/a	n/a	-2	34	Cue	Loss	True
327.879	4.05	Lose2	0.5714	0.0	No	2.621	0.0	n/a	LatePress	-1	n/a	n/a	-2	34	Fixation	Loss	True
331.927	0.19	Lose2	0.5714	0.002	No	2.621	-0.002	4.0	LatePress	-1	0.19	331.117	-2	34	Target	Loss	True
332.117	0.3	Lose2	0.5714	0.002	No	2.621	-0.002	4.0	LatePress	-1	0.19	n/a	-2	34	ButtonPress	Loss	True
332.127	0.51	Lose2	0.5714	n/a	No	2.621	n/a	n/a	LatePress	-1	n/a	n/a	-2	34	Blank	Loss	True
332.627	1.45	Lose2	0.5714	n/a	No	2.621	n/a	5.0	LatePress	-1	0.03	331.657	-2	34	Feedback	Loss	True
334.076	2.621	Lose2	0.5714	n/a	No	2.621	n/a	n/a	LatePress	-1	0.0	n/a	-2	34	ISIslide	Loss	True
336.725	0.25	Lose2	0.5556	0.001	No	2.675	0.025	n/a	NoResponse	-1	n/a	n/a	-3	35	Cue	Loss	True
336.975	4.0	Lose2	0.5556	0.0	No	2.675	0.0	n/a	NoResponse	-1	n/a	n/a	-3	35	Fixation	Loss	True
340.974	0.2	Lose2	0.5556	0.001	No	2.675	-0.001	4.0	NoResponse	-1	0.246	340.22	-3	35	Target	Loss	True
341.174	0.5	Lose2	0.5556	n/a	No	2.675	n/a	n/a	NoResponse	-1	n/a	n/a	-3	35	Blank	Loss	True
341.22	0.3	Lose2	0.5556	0.001	No	2.675	-0.001	4.0	NoResponse	-1	0.246	n/a	-3	35	ButtonPress	Loss	True
341.674	1.45	Lose2	0.5556	n/a	No	2.675	n/a	5.0	NoResponse	-1	0.008	340.682	-3	35	Feedback	Loss	True
343.123	2.675	Lose2	0.5556	n/a	No	2.675	n/a	n/a	NoResponse	-1	0.0	n/a	-3	35	ISIslide	Loss	True
345.822	0.25	Control	0.5676	0.0	Yes	2.678	0.022	n/a	GoodResponse	0	n/a	n/a	-3	36	Cue	Neutral	True
346.072	4.0	Control	0.5676	0.0	Yes	2.678	0.0	n/a	GoodResponse	0	n/a	n/a	-3	36	Fixation	Neutral	True
350.071	0.21	Control	0.5676	0.001	Yes	2.678	-0.001	4.0	GoodResponse	0	0.179	349.25	-3	36	Target	Neutral	True
350.25	0.3	Control	0.5676	0.001	Yes	2.678	-0.001	4.0	GoodResponse	0	0.179	n/a	-3	36	ButtonPress	Neutral	True
350.287	0.49	Control	0.5676	n/a	Yes	2.678	n/a	n/a	GoodResponse	0	n/a	n/a	-3	36	Blank	Neutral	True
350.77	1.45	Control	0.5676	n/a	Yes	2.678	n/a	5.0	GoodResponse	0	0.034	349.804	-3	36	Feedback	Neutral	True
352.22	2.678	Control	0.5676	n/a	Yes	2.678	n/a	n/a	GoodResponse	0	0.0	n/a	-3	36	ISIslide	Neutral	True
354.919	0.25	Win2	0.5789	0.0	Yes	2.881	0.019	n/a	GoodResponse	1	n/a	n/a	-2	37	Cue	Win	True
355.169	4.0	Win2	0.5789	0.0	Yes	2.881	0.0	n/a	GoodResponse	1	n/a	n/a	-2	37	Fixation	Win	True
359.168	0.22	Win2	0.5789	0.001	Yes	2.881	-0.001	4.0	GoodResponse	1	0.176	358.344	-2	37	Target	Win	True
359.344	0.3	Win2	0.5789	0.001	Yes	2.881	-0.001	4.0	GoodResponse	1	0.176	n/a	-2	37	ButtonPress	Win	True
359.401	0.48	Win2	0.5789	n/a	Yes	2.881	n/a	n/a	GoodResponse	1	n/a	n/a	-2	37	Blank	Win	True
359.867	1.45	Win2	0.5789	n/a	Yes	2.881	n/a	5.0	GoodResponse	1	0.01	358.877	-2	37	Feedback	Win	True
361.317	2.881	Win2	0.5789	n/a	Yes	2.881	n/a	n/a	GoodResponse	1	0.0	n/a	-2	37	ISIslide	Win	True
364.216	0.25	Lose2	0.5640999999999999	0.0	No	2.834	0.016	n/a	NoResponse	-1	n/a	n/a	-3	38	Cue	Loss	True
364.466	3.95	Lose2	0.5640999999999999	0.0	No	2.834	0.0	n/a	NoResponse	-1	n/a	n/a	-3	38	Fixation	Loss	True
368.414	0.23	Lose2	0.5640999999999999	0.002	No	2.834	-0.002	4.0	NoResponse	-1	0.405	367.819	-3	38	Target	Loss	True
368.648	0.47	Lose2	0.5640999999999999	n/a	No	2.834	n/a	n/a	NoResponse	-1	n/a	n/a	-3	38	Blank	Loss	True
368.819	0.3	Lose2	0.5640999999999999	0.002	No	2.834	-0.002	4.0	NoResponse	-1	0.405	n/a	-3	38	ButtonPress	Loss	True
369.114	1.45	Lose2	0.5640999999999999	n/a	No	2.834	n/a	5.0	NoResponse	-1	0.03	368.144	-3	38	Feedback	Loss	True
370.564	2.834	Lose2	0.5640999999999999	n/a	No	2.834	n/a	n/a	NoResponse	-1	0.0	n/a	-3	38	ISIslide	Loss	True
373.429	0.25	Win2	0.575	0.0	Yes	2.971	0.029	n/a	GoodResponse	1	n/a	n/a	-2	39	Cue	Win	True
373.679	4.1	Win2	0.575	0.0	Yes	2.971	0.0	n/a	GoodResponse	1	n/a	n/a	-2	39	Fixation	Win	True
377.778	0.24	Win2	0.575	0.001	Yes	2.971	-0.001	4.0	GoodResponse	1	0.192	376.97	-2	39	Target	Win	True
377.97	0.3	Win2	0.575	0.001	Yes	2.971	-0.001	4.0	GoodResponse	1	0.192	n/a	-2	39	ButtonPress	Win	True
378.028	0.46	Win2	0.575	n/a	Yes	2.971	n/a	n/a	GoodResponse	1	n/a	n/a	-2	39	Blank	Win	True
378.477	1.45	Win2	0.575	n/a	Yes	2.971	n/a	5.0	GoodResponse	1	0.033	377.51	-2	39	Feedback	Win	True
379.927	2.971	Win2	0.575	n/a	Yes	2.971	n/a	n/a	GoodResponse	1	0.0	n/a	-2	39	ISIslide	Win	True
382.926	0.25	Win2	0.5854	0.0	Yes	2.724	0.026	n/a	GoodResponse	1	n/a	n/a	-1	40	Cue	Win	True
383.176	3.95	Win2	0.5854	0.0	Yes	2.724	0.0	n/a	GoodResponse	1	n/a	n/a	-1	40	Fixation	Win	True
387.124	0.25	Win2	0.5854	0.002	Yes	2.724	-0.002	4.0	GoodResponse	1	0.204	386.328	-1	40	Target	Win	True
387.328	0.3	Win2	0.5854	0.002	Yes	2.724	-0.002	4.0	GoodResponse	1	0.204	n/a	-1	40	ButtonPress	Win	True
387.374	0.45	Win2	0.5854	n/a	Yes	2.724	n/a	n/a	GoodResponse	1	n/a	n/a	-1	40	Blank	Win	True
387.824	1.45	Win2	0.5854	n/a	Yes	2.724	n/a	5.0	GoodResponse	1	0.006	386.83	-1	40	Feedback	Win	True
389.274	2.724	Win2	0.5854	n/a	Yes	2.724	n/a	n/a	GoodResponse	1	0.0	n/a	-1	40	ISIslide	Win	True
392.023	0.25	Win2	0.5952000000000001	0.0	Yes	2.777	0.023	n/a	GoodResponse	1	n/a	n/a	0	41	Cue	Win	True
392.273	3.9	Win2	0.5952000000000001	0.0	Yes	2.777	0.0	n/a	GoodResponse	1	n/a	n/a	0	41	Fixation	Win	True
396.171	0.26	Win2	0.5952000000000001	0.002	Yes	2.777	-0.002	4.0	GoodResponse	1	0.188	395.359	0	41	Target	Win	True
396.359	0.3	Win2	0.5952000000000001	0.002	Yes	2.777	-0.002	4.0	GoodResponse	1	0.188	n/a	0	41	ButtonPress	Win	True
396.438	0.44	Win2	0.5952000000000001	n/a	Yes	2.777	n/a	n/a	GoodResponse	1	n/a	n/a	0	41	Blank	Win	True
396.871	1.45	Win2	0.5952000000000001	n/a	Yes	2.777	n/a	5.0	GoodResponse	1	0.03	395.901	0	41	Feedback	Win	True
398.32	2.777	Win2	0.5952000000000001	n/a	Yes	2.777	n/a	n/a	GoodResponse	1	0.0	n/a	0	41	ISIslide	Win	True
401.119	0.25	Control	0.5814	0.001	No	2.931	0.019	n/a	NoResponse	0	n/a	n/a	0	42	Cue	Neutral	False
401.369	3.85	Control	0.5814	0.0	No	2.931	0.0	n/a	NoResponse	0	n/a	n/a	0	42	Fixation	Neutral	False
405.218	0.27	Control	0.5814	0.001	No	2.931	-0.001	n/a	NoResponse	0	n/a	n/a	0	42	Target	Neutral	False
405.485	0.43	Control	0.5814	n/a	No	2.931	n/a	n/a	NoResponse	0	n/a	n/a	0	42	Blank	Neutral	False
405.918	1.45	Control	0.5814	n/a	No	2.931	n/a	5.0	NoResponse	0	0.007	404.925	0	42	Feedback	Neutral	False
407.367	2.931	Control	0.5814	n/a	No	2.931	n/a	n/a	NoResponse	0	0.0	n/a	0	42	ISIslide	Neutral	False
410.316	0.25	Win2	0.5909	0.0	Yes	3.184	0.016	n/a	GoodResponse	1	n/a	n/a	1	43	Cue	Win	True
410.566	4.0	Win2	0.5909	0.0	Yes	3.184	0.0	n/a	GoodResponse	1	n/a	n/a	1	43	Fixation	Win	True
414.565	0.28	Win2	0.5909	0.001	Yes	3.184	-0.001	4.0	GoodResponse	1	0.223	413.788	1	43	Target	Win	True
414.788	0.3	Win2	0.5909	0.001	Yes	3.184	-0.001	4.0	GoodResponse	1	0.223	n/a	1	43	ButtonPress	Win	True
414.848	0.42	Win2	0.5909	n/a	Yes	3.184	n/a	n/a	GoodResponse	1	n/a	n/a	1	43	Blank	Win	True
415.264	1.45	Win2	0.5909	n/a	Yes	3.184	n/a	5.0	GoodResponse	1	0.026	414.29	1	43	Feedback	Win	True
416.714	3.184	Win2	0.5909	n/a	Yes	3.184	n/a	n/a	GoodResponse	1	0.0	n/a	1	43	ISIslide	Win	True
419.929	0.25	Win2	0.6	0.001	Yes	2.971	0.029	n/a	GoodResponse	1	n/a	n/a	2	44	Cue	Win	True
420.179	4.0	Win2	0.6	0.0	Yes	2.971	0.0	n/a	GoodResponse	1	n/a	n/a	2	44	Fixation	Win	True
424.178	0.29	Win2	0.6	0.001	Yes	2.971	-0.001	4.0	GoodResponse	1	0.196	423.374	2	44	Target	Win	True
424.374	0.3	Win2	0.6	0.001	Yes	2.971	-0.001	4.0	GoodResponse	1	0.196	n/a	2	44	ButtonPress	Win	True
424.478	0.41	Win2	0.6	n/a	Yes	2.971	n/a	n/a	GoodResponse	1	n/a	n/a	2	44	Blank	Win	True
424.878	1.45	Win2	0.6	n/a	Yes	2.971	n/a	5.0	GoodResponse	1	0.022	423.9	2	44	Feedback	Win	True
426.327	2.971	Win2	0.6	n/a	Yes	2.971	n/a	n/a	GoodResponse	1	0.0	n/a	2	44	ISIslide	Win	True
429.326	0.25	Control	0.6087	0.0	Yes	2.874	0.026	n/a	GoodResponse	0	n/a	n/a	2	45	Cue	Neutral	True
429.576	4.1	Control	0.6087	0.0	Yes	2.874	0.0	n/a	GoodResponse	0	n/a	n/a	2	45	Fixation	Neutral	True
433.675	0.3	Control	0.6087	0.001	Yes	2.874	-0.001	4.0	GoodResponse	0	0.192	432.867	2	45	Target	Neutral	True
433.867	0.3	Control	0.6087	0.001	Yes	2.874	-0.001	4.0	GoodResponse	0	0.192	n/a	2	45	ButtonPress	Neutral	True
433.975	0.4	Control	0.6087	n/a	Yes	2.874	n/a	n/a	GoodResponse	0	n/a	n/a	2	45	Blank	Neutral	True
434.374	1.45	Control	0.6087	n/a	Yes	2.874	n/a	5.0	GoodResponse	0	0.039	433.413	2	45	Feedback	Neutral	True
435.824	2.874	Control	0.6087	n/a	Yes	2.874	n/a	n/a	GoodResponse	0	0.0	n/a	2	45	ISIslide	Neutral	True
438.723	0.25	Lose2	0.617	0.0	Yes	3.377	0.023	n/a	GoodResponse	0	n/a	n/a	2	46	Cue	AvoidedLoss	True
438.973	4.0	Lose2	0.617	0.0	Yes	3.377	0.0	n/a	GoodResponse	0	n/a	n/a	2	46	Fixation	AvoidedLoss	True
442.971	0.31	Lose2	0.617	0.002	Yes	3.377	-0.002	4.0	GoodResponse	0	0.196	442.167	2	46	Target	AvoidedLoss	True
443.167	0.3	Lose2	0.617	0.002	Yes	3.377	-0.002	4.0	GoodResponse	0	0.196	n/a	2	46	ButtonPress	AvoidedLoss	True
443.288	0.39	Lose2	0.617	n/a	Yes	3.377	n/a	n/a	GoodResponse	0	n/a	n/a	2	46	Blank	AvoidedLoss	True
443.671	1.45	Lose2	0.617	n/a	Yes	3.377	n/a	5.0	GoodResponse	0	0.01	442.681	2	46	Feedback	AvoidedLoss	True
445.121	3.377	Lose2	0.617	n/a	Yes	3.377	n/a	n/a	GoodResponse	0	0.0	n/a	2	46	ISIslide	AvoidedLoss	True
448.519	0.25	Lose2	0.625	0.0	Yes	2.681	0.019	n/a	GoodResponse	0	n/a	n/a	2	47	Cue	AvoidedLoss	True
448.769	4.0	Lose2	0.625	0.0	Yes	2.681	0.0	n/a	GoodResponse	0	n/a	n/a	2	47	Fixation	AvoidedLoss	True
452.768	0.32	Lose2	0.625	0.001	Yes	2.681	-0.001	4.0	GoodResponse	0	0.168	451.936	2	47	Target	AvoidedLoss	True
452.936	0.3	Lose2	0.625	0.001	Yes	2.681	-0.001	4.0	GoodResponse	0	0.168	n/a	2	47	ButtonPress	AvoidedLoss	True
453.084	0.38	Lose2	0.625	n/a	Yes	2.681	n/a	n/a	GoodResponse	0	n/a	n/a	2	47	Blank	AvoidedLoss	True
453.468	1.45	Lose2	0.625	n/a	Yes	2.681	n/a	5.0	GoodResponse	0	0.017	452.485	2	47	Feedback	AvoidedLoss	True
454.917	2.681	Lose2	0.625	n/a	Yes	2.681	n/a	n/a	GoodResponse	0	0.0	n/a	2	47	ISIslide	AvoidedLoss	True
457.616	0.25	Lose2	0.6327	0.0	Yes	3.034	0.016	n/a	GoodResponse	0	n/a	n/a	2	48	Cue	AvoidedLoss	True
457.866	3.95	Lose2	0.6327	0.0	Yes	3.034	0.0	n/a	GoodResponse	0	n/a	n/a	2	48	Fixation	AvoidedLoss	True
461.815	0.33	Lose2	0.6327	0.001	Yes	3.034	-0.001	4.0	GoodResponse	0	0.162	460.977	2	48	Target	AvoidedLoss	True
461.977	0.3	Lose2	0.6327	0.001	Yes	3.034	-0.001	4.0	GoodResponse	0	0.162	n/a	2	48	ButtonPress	AvoidedLoss	True
462.148	0.37	Lose2	0.6327	n/a	Yes	3.034	n/a	n/a	GoodResponse	0	n/a	n/a	2	48	Blank	AvoidedLoss	True
462.514	1.45	Lose2	0.6327	n/a	Yes	3.034	n/a	5.0	GoodResponse	0	0.044	461.558	2	48	Feedback	AvoidedLoss	True
463.964	3.034	Lose2	0.6327	n/a	Yes	3.034	n/a	n/a	GoodResponse	0	0.0	n/a	2	48	ISIslide	AvoidedLoss	True
467.013	0.25	Control	0.64	0.0	Yes	2.887	0.013	n/a	GoodResponse	0	n/a	n/a	2	49	Cue	Neutral	True
467.263	4.0	Control	0.64	0.0	Yes	2.887	0.0	n/a	GoodResponse	0	n/a	n/a	2	49	Fixation	Neutral	True
471.261	0.34	Control	0.64	0.002	Yes	2.887	-0.002	4.0	GoodResponse	0	0.191	470.452	2	49	Target	Neutral	True
471.452	0.3	Control	0.64	0.002	Yes	2.887	-0.002	4.0	GoodResponse	0	0.191	n/a	2	49	ButtonPress	Neutral	True
471.611	0.36	Control	0.64	n/a	Yes	2.887	n/a	n/a	GoodResponse	0	n/a	n/a	2	49	Blank	Neutral	True
471.961	1.45	Control	0.64	n/a	Yes	2.887	n/a	5.0	GoodResponse	0	0.012	470.973	2	49	Feedback	Neutral	True
473.411	2.887	Control	0.64	n/a	Yes	2.887	n/a	n/a	GoodResponse	0	0.0	n/a	2	49	ISIslide	Neutral	True
476.326	0.25	Control	0.6470999999999999	0.0	Yes	2.774	0.026	n/a	GoodResponse	0	n/a	n/a	2	50	Cue	Neutral	True
476.576	4.0	Control	0.6470999999999999	0.0	Yes	2.774	0.0	n/a	GoodResponse	0	n/a	n/a	2	50	Fixation	Neutral	True
480.575	0.35	Control	0.6470999999999999	0.001	Yes	2.774	-0.001	4.0	GoodResponse	0	0.196	479.771	2	50	Target	Neutral	True
480.771	0.3	Control	0.6470999999999999	0.001	Yes	2.774	-0.001	4.0	GoodResponse	0	0.196	n/a	2	50	ButtonPress	Neutral	True
480.925	0.35	Control	0.6470999999999999	n/a	Yes	2.774	n/a	n/a	GoodResponse	0	n/a	n/a	2	50	Blank	Neutral	True
481.275	1.45	Control	0.6470999999999999	n/a	Yes	2.774	n/a	5.0	GoodResponse	0	0.015	480.29	2	50	Feedback	Neutral	True
482.724	2.774	Control	0.6470999999999999	n/a	Yes	2.774	n/a	n/a	GoodResponse	0	0.0	n/a	2	50	ISIslide	Neutral	True
485.523	0.25	Control	0.6537999999999999	0.0	Yes	2.727	0.023	n/a	GoodResponse	0	n/a	n/a	2	51	Cue	Neutral	True
485.773	3.95	Control	0.6537999999999999	0.0	Yes	2.727	0.0	n/a	GoodResponse	0	n/a	n/a	2	51	Fixation	Neutral	True
489.722	0.36	Control	0.6537999999999999	0.001	Yes	2.727	-0.001	4.0	GoodResponse	0	0.186	488.908	2	51	Target	Neutral	True
489.908	0.3	Control	0.6537999999999999	0.001	Yes	2.727	-0.001	4.0	GoodResponse	0	0.186	n/a	2	51	ButtonPress	Neutral	True
490.088	0.34	Control	0.6537999999999999	n/a	Yes	2.727	n/a	n/a	GoodResponse	0	n/a	n/a	2	51	Blank	Neutral	True
490.421	1.45	Control	0.6537999999999999	n/a	Yes	2.727	n/a	5.0	GoodResponse	0	0.04	489.461	2	51	Feedback	Neutral	True
491.871	2.727	Control	0.6537999999999999	n/a	Yes	2.727	n/a	n/a	GoodResponse	0	0.0	n/a	2	51	ISIslide	Neutral	True
494.62	0.25	Control	0.6604000000000001	0.0	Yes	2.63	0.02	n/a	GoodResponse	0	n/a	n/a	2	52	Cue	Neutral	True
494.87	4.05	Control	0.6604000000000001	0.0	Yes	2.63	0.0	n/a	GoodResponse	0	n/a	n/a	2	52	Fixation	Neutral	True
498.918	0.37	Control	0.6604000000000001	0.002	Yes	2.63	-0.002	4.0	GoodResponse	0	0.236	498.154	2	52	Target	Neutral	True
499.154	0.3	Control	0.6604000000000001	0.002	Yes	2.63	-0.002	4.0	GoodResponse	0	0.236	n/a	2	52	ButtonPress	Neutral	True
499.301	0.33	Control	0.6604000000000001	n/a	Yes	2.63	n/a	n/a	GoodResponse	0	n/a	n/a	2	52	Blank	Neutral	True
499.618	1.45	Control	0.6604000000000001	n/a	Yes	2.63	n/a	5.0	GoodResponse	0	0.013	498.631	2	52	Feedback	Neutral	True
501.068	2.63	Control	0.6604000000000001	n/a	Yes	2.63	n/a	n/a	GoodResponse	0	0.0	n/a	2	52	ISIslide	Neutral	True
503.717	0.25	Win2	0.6481	0.0	No	2.933	0.017	n/a	PrematurePress	0	n/a	n/a	2	53	Cue	MissedWin	True
503.967	4.05	Win2	0.6481	0.0	No	2.933	0.0	n/a	PrematurePress	0	n/a	n/a	2	53	Fixation	MissedWin	True
508.015	0.37	Win2	0.6481	0.002	No	2.933	-0.002	4.0	PrematurePress	0	0.059	507.074	2	53	Target	MissedWin	True
508.074	0.3	Win2	0.6481	0.002	No	2.933	-0.002	4.0	PrematurePress	0	0.059	n/a	2	53	ButtonPress	MissedWin	True
508.398	0.33	Win2	0.6481	n/a	No	2.933	n/a	n/a	PrematurePress	0	n/a	n/a	2	53	Blank	MissedWin	True
508.715	1.45	Win2	0.6481	n/a	No	2.933	n/a	5.0	PrematurePress	0	0.038	507.753	2	53	Feedback	MissedWin	True
510.164	2.933	Win2	0.6481	n/a	No	2.933	n/a	n/a	PrematurePress	0	0.0	n/a	2	53	ISIslide	MissedWin	True
513.13	0.25	Win2	0.6545000000000001	0.0	Yes	2.72	0.03	n/a	GoodResponse	1	n/a	n/a	3	54	Cue	Win	True
513.38	3.95	Win2	0.6545000000000001	0.0	Yes	2.72	0.0	n/a	GoodResponse	1	n/a	n/a	3	54	Fixation	Win	True
517.328	0.38	Win2	0.6545000000000001	0.002	Yes	2.72	-0.002	4.0	GoodResponse	1	0.212	516.54	3	54	Target	Win	True
517.54	0.3	Win2	0.6545000000000001	0.002	Yes	2.72	-0.002	4.0	GoodResponse	1	0.212	n/a	3	54	ButtonPress	Win	True
517.712	0.32	Win2	0.6545000000000001	n/a	Yes	2.72	n/a	n/a	GoodResponse	1	n/a	n/a	3	54	Blank	Win	True
518.028	1.45	Win2	0.6545000000000001	n/a	Yes	2.72	n/a	5.0	GoodResponse	1	0.042	517.07	3	54	Feedback	Win	True
519.478	2.72	Win2	0.6545000000000001	n/a	Yes	2.72	n/a	n/a	GoodResponse	1	0.0	n/a	3	54	ISIslide	Win	True
522.227	0.25	Control	0.6607	0.0	Yes	3.023	0.027	n/a	GoodResponse	0	n/a	n/a	3	55	Cue	Neutral	True
522.477	3.95	Control	0.6607	0.0	Yes	3.023	0.0	n/a	GoodResponse	0	n/a	n/a	3	55	Fixation	Neutral	True
526.425	0.39	Control	0.6607	0.002	Yes	3.023	-0.002	4.0	GoodResponse	0	0.206	525.631	3	55	Target	Neutral	True
526.631	0.3	Control	0.6607	0.002	Yes	3.023	-0.002	4.0	GoodResponse	0	0.206	n/a	3	55	ButtonPress	Neutral	True
526.825	0.31	Control	0.6607	n/a	Yes	3.023	n/a	n/a	GoodResponse	0	n/a	n/a	3	55	Blank	Neutral	True
527.125	1.45	Control	0.6607	n/a	Yes	3.023	n/a	5.0	GoodResponse	0	0.018	526.143	3	55	Feedback	Neutral	True
528.575	3.023	Control	0.6607	n/a	Yes	3.023	n/a	n/a	GoodResponse	0	0.0	n/a	3	55	ISIslide	Neutral	True
531.623	0.25	Control	0.6667000000000001	0.001	Yes	2.827	0.023	n/a	GoodResponse	0	n/a	n/a	3	56	Cue	Neutral	True
531.873	3.95	Control	0.6667000000000001	0.0	Yes	2.827	0.0	n/a	GoodResponse	0	n/a	n/a	3	56	Fixation	Neutral	True
535.822	0.39	Control	0.6667000000000001	0.001	Yes	2.827	-0.001	4.0	GoodResponse	0	0.167	534.989	3	56	Target	Neutral	True
535.989	0.3	Control	0.6667000000000001	0.001	Yes	2.827	-0.001	4.0	GoodResponse	0	0.167	n/a	3	56	ButtonPress	Neutral	True
536.222	0.31	Control	0.6667000000000001	n/a	Yes	2.827	n/a	n/a	GoodResponse	0	n/a	n/a	3	56	Blank	Neutral	True
536.522	1.45	Control	0.6667000000000001	n/a	Yes	2.827	n/a	5.0	GoodResponse	0	0.036	535.558	3	56	Feedback	Neutral	True
537.971	2.827	Control	0.6667000000000001	n/a	Yes	2.827	n/a	n/a	GoodResponse	0	0.0	n/a	3	56	ISIslide	Neutral	True
540.82	0.25	Control	0.6724	0.0	Yes	3.48	0.02	n/a	GoodResponse	0	n/a	n/a	3	57	Cue	Neutral	True
541.07	4.0	Control	0.6724	0.0	Yes	3.48	0.0	n/a	GoodResponse	0	n/a	n/a	3	57	Fixation	Neutral	True
545.069	0.38	Control	0.6724	0.001	Yes	3.48	-0.001	4.0	GoodResponse	0	0.204	544.273	3	57	Target	Neutral	True
545.273	0.3	Control	0.6724	0.001	Yes	3.48	-0.001	4.0	GoodResponse	0	0.204	n/a	3	57	ButtonPress	Neutral	True
545.452	0.32	Control	0.6724	n/a	Yes	3.48	n/a	n/a	GoodResponse	0	n/a	n/a	3	57	Blank	Neutral	True
545.768	1.45	Control	0.6724	n/a	Yes	3.48	n/a	5.0	GoodResponse	0	0.009	544.777	3	57	Feedback	Neutral	True
547.218	3.48	Control	0.6724	n/a	Yes	3.48	n/a	n/a	GoodResponse	0	0.0	n/a	3	57	ISIslide	Neutral	True
550.717	0.25	Win2	0.6779999999999999	0.0	Yes	2.733	0.017	n/a	GoodResponse	1	n/a	n/a	4	58	Cue	Win	True
550.967	4.05	Win2	0.6779999999999999	0.0	Yes	2.733	0.0	n/a	GoodResponse	1	n/a	n/a	4	58	Fixation	Win	True
555.015	0.37	Win2	0.6779999999999999	0.002	Yes	2.733	-0.002	4.0	GoodResponse	1	0.212	554.227	4	58	Target	Win	True
555.227	0.3	Win2	0.6779999999999999	0.002	Yes	2.733	-0.002	4.0	GoodResponse	1	0.212	n/a	4	58	ButtonPress	Win	True
555.398	0.33	Win2	0.6779999999999999	n/a	Yes	2.733	n/a	n/a	GoodResponse	1	n/a	n/a	4	58	Blank	Win	True
555.715	1.45	Win2	0.6779999999999999	n/a	Yes	2.733	n/a	5.0	GoodResponse	1	0.013	554.728	4	58	Feedback	Win	True
557.164	2.733	Win2	0.6779999999999999	n/a	Yes	2.733	n/a	n/a	GoodResponse	1	0.0	n/a	4	58	ISIslide	Win	True
559.913	0.25	Lose2	0.6833	0.001	Yes	2.687	0.013	n/a	GoodResponse	0	n/a	n/a	4	59	Cue	AvoidedLoss	True
560.163	4.0	Lose2	0.6833	0.0	Yes	2.687	0.0	n/a	GoodResponse	0	n/a	n/a	4	59	Fixation	AvoidedLoss	True
564.162	0.36	Lose2	0.6833	0.001	Yes	2.687	-0.001	4.0	GoodResponse	0	0.247	563.409	4	59	Target	AvoidedLoss	True
564.409	0.3	Lose2	0.6833	0.001	Yes	2.687	-0.001	4.0	GoodResponse	0	0.247	n/a	4	59	ButtonPress	AvoidedLoss	True
564.529	0.34	Lose2	0.6833	n/a	Yes	2.687	n/a	n/a	GoodResponse	0	n/a	n/a	4	59	Blank	AvoidedLoss	True
564.862	1.45	Lose2	0.6833	n/a	Yes	2.687	n/a	5.0	GoodResponse	0	0.037	563.899	4	59	Feedback	AvoidedLoss	True
566.311	2.687	Lose2	0.6833	n/a	Yes	2.687	n/a	n/a	GoodResponse	0	0.0	n/a	4	59	ISIslide	AvoidedLoss	True
569.027	0.25	Control	0.6884999999999999	0.0	Yes	2.673	0.027	n/a	GoodResponse	0	n/a	n/a	4	60	Cue	Neutral	True
569.277	4.0	Control	0.6884999999999999	0.0	Yes	2.673	0.0	n/a	GoodResponse	0	n/a	n/a	4	60	Fixation	Neutral	True
573.275	0.35	Control	0.6884999999999999	0.002	Yes	2.673	-0.002	4.0	GoodResponse	0	0.218	572.493	4	60	Target	Neutral	True
573.493	0.3	Control	0.6884999999999999	0.002	Yes	2.673	-0.002	4.0	GoodResponse	0	0.218	n/a	4	60	ButtonPress	Neutral	True
573.625	0.35	Control	0.6884999999999999	n/a	Yes	2.673	n/a	n/a	GoodResponse	0	n/a	n/a	4	60	Blank	Neutral	True
573.975	1.45	Control	0.6884999999999999	n/a	Yes	2.673	n/a	5.0	GoodResponse	0	0.046	573.021	4	60	Feedback	Neutral	True
575.425	2.673	Control	0.6884999999999999	n/a	Yes	2.673	n/a	n/a	GoodResponse	0	0.0	n/a	4	60	ISIslide	Neutral	True
578.124	0.25	Lose2	0.6934999999999999	0.0	Yes	2.976	0.024	n/a	GoodResponse	0	n/a	n/a	4	61	Cue	AvoidedLoss	True
578.374	4.0	Lose2	0.6934999999999999	0.0	Yes	2.976	0.0	n/a	GoodResponse	0	n/a	n/a	4	61	Fixation	AvoidedLoss	True
582.372	0.34	Lose2	0.6934999999999999	0.002	Yes	2.976	-0.002	4.0	GoodResponse	0	0.195	581.567	4	61	Target	AvoidedLoss	True
582.567	0.3	Lose2	0.6934999999999999	0.002	Yes	2.976	-0.002	4.0	GoodResponse	0	0.195	n/a	4	61	ButtonPress	AvoidedLoss	True
582.722	0.36	Lose2	0.6934999999999999	n/a	Yes	2.976	n/a	n/a	GoodResponse	0	n/a	n/a	4	61	Blank	AvoidedLoss	True
583.072	1.45	Lose2	0.6934999999999999	n/a	Yes	2.976	n/a	5.0	GoodResponse	0	0.021	582.093	4	61	Feedback	AvoidedLoss	True
584.521	2.976	Lose2	0.6934999999999999	n/a	Yes	2.976	n/a	n/a	GoodResponse	0	0.0	n/a	4	61	ISIslide	AvoidedLoss	True
587.52	0.25	Lose2	0.6984	0.0	Yes	2.88	0.02	n/a	GoodResponse	0	n/a	n/a	4	62	Cue	AvoidedLoss	True
587.77	3.9	Lose2	0.6984	0.0	Yes	2.88	0.0	n/a	GoodResponse	0	n/a	n/a	4	62	Fixation	AvoidedLoss	True
591.669	0.33	Lose2	0.6984	0.001	Yes	2.88	-0.001	4.0	GoodResponse	0	0.222	590.891	4	62	Target	AvoidedLoss	True
591.891	0.3	Lose2	0.6984	0.001	Yes	2.88	-0.001	4.0	GoodResponse	0	0.222	n/a	4	62	ButtonPress	AvoidedLoss	True
592.002	0.37	Lose2	0.6984	n/a	Yes	2.88	n/a	n/a	GoodResponse	0	n/a	n/a	4	62	Blank	AvoidedLoss	True
592.369	1.45	Lose2	0.6984	n/a	Yes	2.88	n/a	5.0	GoodResponse	0	0.042	591.411	4	62	Feedback	AvoidedLoss	True
593.818	2.88	Lose2	0.6984	n/a	Yes	2.88	n/a	n/a	GoodResponse	0	0.0	n/a	4	62	ISIslide	AvoidedLoss	True
596.717	0.25	Lose2	0.6875	0.0	No	2.633	0.017	n/a	NoResponse	-1	n/a	n/a	3	63	Cue	Loss	False
596.967	4.05	Lose2	0.6875	0.0	No	2.633	0.0	n/a	NoResponse	-1	n/a	n/a	3	63	Fixation	Loss	False
601.016	0.32	Lose2	0.6875	0.001	No	2.633	-0.001	n/a	NoResponse	-1	n/a	n/a	3	63	Target	Loss	False
601.349	0.38	Lose2	0.6875	n/a	No	2.633	n/a	n/a	NoResponse	-1	n/a	n/a	3	63	Blank	Loss	False
601.715	1.45	Lose2	0.6875	n/a	No	2.633	n/a	5.0	NoResponse	-1	0.013	600.728	3	63	Feedback	Loss	False
603.165	2.633	Lose2	0.6875	n/a	No	2.633	n/a	n/a	NoResponse	-1	0.0	n/a	3	63	ISIslide	Loss	False
605.814	0.25	Win2	0.6923	0.0	Yes	3.136	0.014	n/a	GoodResponse	1	n/a	n/a	4	64	Cue	Win	True
606.064	4.15	Win2	0.6923	0.0	Yes	3.136	0.0	n/a	GoodResponse	1	n/a	n/a	4	64	Fixation	Win	True
610.212	0.31	Win2	0.6923	0.002	Yes	3.136	-0.002	4.0	GoodResponse	1	0.167	609.379	4	64	Target	Win	True
610.379	0.3	Win2	0.6923	0.002	Yes	3.136	-0.002	4.0	GoodResponse	1	0.167	n/a	4	64	ButtonPress	Win	True
610.529	0.39	Win2	0.6923	n/a	Yes	3.136	n/a	n/a	GoodResponse	1	n/a	n/a	4	64	Blank	Win	True
610.912	1.45	Win2	0.6923	n/a	Yes	3.136	n/a	5.0	GoodResponse	1	0.035	609.947	4	64	Feedback	Win	True
612.362	3.136	Win2	0.6923	n/a	Yes	3.136	n/a	n/a	GoodResponse	1	0.0	n/a	4	64	ISIslide	Win	True
615.527	0.25	Control	0.6970000000000001	0.0	Yes	2.773	0.027	n/a	GoodResponse	0	n/a	n/a	4	65	Cue	Neutral	True
615.777	4.0	Control	0.6970000000000001	0.0	Yes	2.773	0.0	n/a	GoodResponse	0	n/a	n/a	4	65	Fixation	Neutral	True
619.776	0.3	Control	0.6970000000000001	0.001	Yes	2.773	-0.001	4.0	GoodResponse	0	0.197	618.973	4	65	Target	Neutral	True
619.973	0.3	Control	0.6970000000000001	0.001	Yes	2.773	-0.001	4.0	GoodResponse	0	0.197	n/a	4	65	ButtonPress	Neutral	True
620.076	0.4	Control	0.6970000000000001	n/a	Yes	2.773	n/a	n/a	GoodResponse	0	n/a	n/a	4	65	Blank	Neutral	True
620.475	1.45	Control	0.6970000000000001	n/a	Yes	2.773	n/a	5.0	GoodResponse	0	0.034	619.509	4	65	Feedback	Neutral	True
621.925	2.773	Control	0.6970000000000001	n/a	Yes	2.773	n/a	n/a	GoodResponse	0	0.0	n/a	4	65	ISIslide	Neutral	True
624.724	0.25	Win2	0.7015	0.0	Yes	2.776	0.024	n/a	GoodResponse	1	n/a	n/a	5	66	Cue	Win	True
624.974	3.9	Win2	0.7015	0.0	Yes	2.776	0.0	n/a	GoodResponse	1	n/a	n/a	5	66	Fixation	Win	True
628.873	0.29	Win2	0.7015	0.001	Yes	2.776	-0.001	4.0	GoodResponse	1	0.179	628.052	5	66	Target	Win	True
629.052	0.3	Win2	0.7015	0.001	Yes	2.776	-0.001	4.0	GoodResponse	1	0.179	n/a	5	66	ButtonPress	Win	True
629.172	0.41	Win2	0.7015	n/a	Yes	2.776	n/a	n/a	GoodResponse	1	n/a	n/a	5	66	Blank	Win	True
629.572	1.45	Win2	0.7015	n/a	Yes	2.776	n/a	5.0	GoodResponse	1	0.009	628.581	5	66	Feedback	Win	True
631.022	2.776	Win2	0.7015	n/a	Yes	2.776	n/a	n/a	GoodResponse	1	0.0	n/a	5	66	ISIslide	Win	True
633.821	0.25	Control	0.7059000000000001	0.0	Yes	2.729	0.021	n/a	GoodResponse	0	n/a	n/a	5	67	Cue	Neutral	True
634.071	3.95	Control	0.7059000000000001	0.0	Yes	2.729	0.0	n/a	GoodResponse	0	n/a	n/a	5	67	Fixation	Neutral	True
638.019	0.28	Control	0.7059000000000001	0.002	Yes	2.729	-0.002	4.0	GoodResponse	0	0.188	637.207	5	67	Target	Neutral	True
638.207	0.3	Control	0.7059000000000001	0.002	Yes	2.729	-0.002	4.0	GoodResponse	0	0.188	n/a	5	67	ButtonPress	Neutral	True
638.303	0.42	Control	0.7059000000000001	n/a	Yes	2.729	n/a	n/a	GoodResponse	0	n/a	n/a	5	67	Blank	Neutral	True
638.719	1.45	Control	0.7059000000000001	n/a	Yes	2.729	n/a	5.0	GoodResponse	0	0.033	637.752	5	67	Feedback	Neutral	True
640.169	2.729	Control	0.7059000000000001	n/a	Yes	2.729	n/a	n/a	GoodResponse	0	0.0	n/a	5	67	ISIslide	Neutral	True
642.918	0.25	Win2	0.7101000000000001	0.0	Yes	3.082	0.018	n/a	GoodResponse	1	n/a	n/a	6	68	Cue	Win	True
643.167	4.0	Win2	0.7101000000000001	0.001	Yes	3.082	-0.001	n/a	GoodResponse	1	n/a	n/a	6	68	Fixation	Win	True
647.166	0.27	Win2	0.7101000000000001	0.002	Yes	3.082	-0.002	4.0	GoodResponse	1	0.21	646.376	6	68	Target	Win	True
647.376	0.3	Win2	0.7101000000000001	0.002	Yes	3.082	-0.002	4.0	GoodResponse	1	0.21	n/a	6	68	ButtonPress	Win	True
647.449	0.43	Win2	0.7101000000000001	n/a	Yes	3.082	n/a	n/a	GoodResponse	1	n/a	n/a	6	68	Blank	Win	True
647.866	1.45	Win2	0.7101000000000001	n/a	Yes	3.082	n/a	5.0	GoodResponse	1	0.008	646.874	6	68	Feedback	Win	True
649.315	3.082	Win2	0.7101000000000001	n/a	Yes	3.082	n/a	n/a	GoodResponse	1	0.0	n/a	6	68	ISIslide	Win	True
652.414	0.25	Win2	0.7143	0.0	Yes	3.236	0.014	n/a	GoodResponse	1	n/a	n/a	7	69	Cue	Win	True
652.664	3.95	Win2	0.7143	0.0	Yes	3.236	0.0	n/a	GoodResponse	1	n/a	n/a	7	69	Fixation	Win	True
656.613	0.26	Win2	0.7143	0.001	Yes	3.236	-0.001	4.0	GoodResponse	1	0.204	655.817	7	69	Target	Win	True
656.817	0.3	Win2	0.7143	0.001	Yes	3.236	-0.001	4.0	GoodResponse	1	0.204	n/a	7	69	ButtonPress	Win	True
656.879	0.44	Win2	0.7143	n/a	Yes	3.236	n/a	n/a	GoodResponse	1	n/a	n/a	7	69	Blank	Win	True
657.312	1.45	Win2	0.7143	n/a	Yes	3.236	n/a	5.0	GoodResponse	1	0.025	656.337	7	69	Feedback	Win	True
658.762	3.236	Win2	0.7143	n/a	Yes	3.236	n/a	n/a	GoodResponse	1	0.0	n/a	7	69	ISIslide	Win	True
662.028	0.25	Lose2	0.7182999999999999	0.0	Yes	3.022	0.028	n/a	GoodResponse	0	n/a	n/a	7	70	Cue	AvoidedLoss	True
662.277	4.05	Lose2	0.7182999999999999	0.001	Yes	3.022	-0.001	n/a	GoodResponse	0	n/a	n/a	7	70	Fixation	AvoidedLoss	True
666.326	0.25	Lose2	0.7182999999999999	0.002	Yes	3.022	-0.002	4.0	GoodResponse	0	0.227	665.553	7	70	Target	AvoidedLoss	True
666.553	0.3	Lose2	0.7182999999999999	0.002	Yes	3.022	-0.002	4.0	GoodResponse	0	0.227	n/a	7	70	ButtonPress	AvoidedLoss	True
666.576	0.45	Lose2	0.7182999999999999	n/a	Yes	3.022	n/a	n/a	GoodResponse	0	n/a	n/a	7	70	Blank	AvoidedLoss	True
667.026	1.45	Lose2	0.7182999999999999	n/a	Yes	3.022	n/a	5.0	GoodResponse	0	0.019	666.045	7	70	Feedback	AvoidedLoss	True
668.475	3.022	Lose2	0.7182999999999999	n/a	Yes	3.022	n/a	n/a	GoodResponse	0	0.0	n/a	7	70	ISIslide	AvoidedLoss	True
671.524	0.25	Win2	0.7222	0.0	Yes	2.726	0.024	n/a	GoodResponse	1	n/a	n/a	8	71	Cue	Win	False
671.774	4.05	Win2	0.7222	0.0	Yes	2.726	0.0	4.0	GoodResponse	1	3.418	674.192	8	71	Fixation	Win	False
675.192	0.3	Win2	0.7222	0.0	Yes	2.726	0.0	4.0	GoodResponse	1	3.418	n/a	8	71	ButtonPress	Win	False
675.823	0.24	Win2	0.7222	0.001	Yes	2.726	-0.001	4.0	GoodResponse	1	0.186	675.009	8	71	Target	Win	False
676.009	0.3	Win2	0.7222	0.001	Yes	2.726	-0.001	4.0	GoodResponse	1	0.186	n/a	8	71	ButtonPress	Win	False
676.073	0.46	Win2	0.7222	n/a	Yes	2.726	n/a	n/a	GoodResponse	1	n/a	n/a	8	71	Blank	Win	False
676.522	1.45	Win2	0.7222	n/a	Yes	2.726	n/a	5.0	GoodResponse	1	0.034	675.556	8	71	Feedback	Win	False
677.972	2.726	Win2	0.7222	n/a	Yes	2.726	n/a	n/a	GoodResponse	1	0.0	n/a	8	71	ISIslide	Win	False
680.721	0.25	Win2	0.7123	0.0	No	2.779	0.021	n/a	NoResponse	0	n/a	n/a	8	72	Cue	MissedWin	True
680.971	4.1	Win2	0.7123	0.0	No	2.779	0.0	n/a	NoResponse	0	n/a	n/a	8	72	Fixation	MissedWin	True
685.069	0.23	Win2	0.7123	0.002	No	2.779	-0.002	4.0	NoResponse	0	0.274	684.343	8	72	Target	MissedWin	True
685.303	0.47	Win2	0.7123	n/a	No	2.779	n/a	n/a	NoResponse	0	n/a	n/a	8	72	Blank	MissedWin	True
685.343	0.3	Win2	0.7123	0.002	No	2.779	-0.002	4.0	NoResponse	0	0.274	n/a	8	72	ButtonPress	MissedWin	True
685.769	1.45	Win2	0.7123	n/a	No	2.779	n/a	5.0	NoResponse	0	0.008	684.777	8	72	Feedback	MissedWin	True
687.219	2.779	Win2	0.7123	n/a	No	2.779	n/a	n/a	NoResponse	0	0.0	n/a	8	72	ISIslide	MissedWin	True
690.018	0.25	Win2	0.7027	0.0	No	2.682	0.018	n/a	NoResponse	0	n/a	n/a	8	73	Cue	MissedWin	True
690.268	4.0	Win2	0.7027	0.0	No	2.682	0.0	4.0	NoResponse	0	3.65	692.918	8	73	Fixation	MissedWin	True
693.918	0.3	Win2	0.7027	0.0	No	2.682	0.0	4.0	NoResponse	0	3.65	n/a	8	73	ButtonPress	MissedWin	True
694.266	0.22	Win2	0.7027	0.002	No	2.682	-0.002	n/a	NoResponse	0	n/a	n/a	8	73	Target	MissedWin	True
694.499	0.48	Win2	0.7027	n/a	No	2.682	n/a	n/a	NoResponse	0	n/a	n/a	8	73	Blank	MissedWin	True
694.966	1.45	Win2	0.7027	n/a	No	2.682	n/a	5.0	NoResponse	0	0.029	693.995	8	73	Feedback	MissedWin	True
696.415	2.682	Win2	0.7027	n/a	No	2.682	n/a	n/a	NoResponse	0	0.0	n/a	8	73	ISIslide	MissedWin	True
699.114	0.25	Lose2	0.7067	0.001	Yes	2.636	0.014	n/a	GoodResponse	0	n/a	n/a	8	74	Cue	AvoidedLoss	True
699.364	4.05	Lose2	0.7067	0.0	Yes	2.636	0.0	n/a	GoodResponse	0	n/a	n/a	8	74	Fixation	AvoidedLoss	True
703.413	0.21	Lose2	0.7067	0.001	Yes	2.636	-0.001	4.0	GoodResponse	0	0.195	702.608	8	74	Target	AvoidedLoss	True
703.608	0.3	Lose2	0.7067	0.001	Yes	2.636	-0.001	4.0	GoodResponse	0	0.195	n/a	8	74	ButtonPress	AvoidedLoss	True
703.63	0.49	Lose2	0.7067	n/a	Yes	2.636	n/a	n/a	GoodResponse	0	n/a	n/a	8	74	Blank	AvoidedLoss	True
704.113	1.45	Lose2	0.7067	n/a	Yes	2.636	n/a	5.0	GoodResponse	0	0.007	703.12	8	74	Feedback	AvoidedLoss	True
705.562	2.636	Lose2	0.7067	n/a	Yes	2.636	n/a	n/a	GoodResponse	0	0.0	n/a	8	74	ISIslide	AvoidedLoss	True
708.228	0.25	Lose2	0.6973999999999999	0.0	No	2.922	0.028	n/a	NoResponse	-1	n/a	n/a	7	75	Cue	Loss	True
708.478	3.95	Lose2	0.6973999999999999	0.0	No	2.922	0.0	n/a	NoResponse	-1	n/a	n/a	7	75	Fixation	Loss	True
712.426	0.2	Lose2	0.6973999999999999	0.002	No	2.922	-0.002	4.0	NoResponse	-1	0.21	711.636	7	75	Target	Loss	True
712.626	0.5	Lose2	0.6973999999999999	n/a	No	2.922	n/a	n/a	NoResponse	-1	n/a	n/a	7	75	Blank	Loss	True
712.636	0.3	Lose2	0.6973999999999999	0.002	No	2.922	-0.002	4.0	NoResponse	-1	0.21	n/a	7	75	ButtonPress	Loss	True
713.126	1.45	Lose2	0.6973999999999999	n/a	No	2.922	n/a	5.0	NoResponse	-1	0.015	712.141	7	75	Feedback	Loss	True
714.576	2.922	Lose2	0.6973999999999999	n/a	No	2.922	n/a	n/a	NoResponse	-1	0.0	n/a	7	75	ISIslide	Loss	True
717.525	0.25	Control	0.6883	0.0	No	3.225	0.025	n/a	NoResponse	0	n/a	n/a	7	76	Cue	Neutral	True
717.775	4.05	Control	0.6883	0.0	No	3.225	0.0	n/a	NoResponse	0	n/a	n/a	7	76	Fixation	Neutral	True
721.823	0.19	Control	0.6883	0.002	No	3.225	-0.002	4.0	NoResponse	0	0.373	721.196	7	76	Target	Neutral	True
722.023	0.51	Control	0.6883	n/a	No	3.225	n/a	n/a	NoResponse	0	n/a	n/a	7	76	Blank	Neutral	True
722.196	0.3	Control	0.6883	0.002	No	3.225	-0.002	4.0	NoResponse	0	0.373	n/a	7	76	ButtonPress	Neutral	True
722.523	1.45	Control	0.6883	n/a	No	3.225	n/a	5.0	NoResponse	0	0.033	721.556	7	76	Feedback	Neutral	True
723.972	3.225	Control	0.6883	n/a	No	3.225	n/a	n/a	NoResponse	0	0.0	n/a	7	76	ISIslide	Neutral	True
727.221	0.25	Lose2	0.6795	0.0	No	2.579	0.021	n/a	NoResponse	-1	n/a	n/a	6	77	Cue	Loss	True
727.471	3.95	Lose2	0.6795	0.0	No	2.579	0.0	n/a	NoResponse	-1	n/a	n/a	6	77	Fixation	Loss	True
731.42	0.18	Lose2	0.6795	0.001	No	2.579	-0.001	4.0	NoResponse	-1	0.194	730.614	6	77	Target	Loss	True
731.603	0.52	Lose2	0.6795	n/a	No	2.579	n/a	n/a	NoResponse	-1	n/a	n/a	6	77	Blank	Loss	True
731.614	0.3	Lose2	0.6795	0.001	No	2.579	-0.001	4.0	NoResponse	-1	0.194	n/a	6	77	ButtonPress	Loss	True
732.119	1.45	Lose2	0.6795	n/a	No	2.579	n/a	5.0	NoResponse	-1	0.047	731.166	6	77	Feedback	Loss	True
733.569	2.579	Lose2	0.6795	n/a	No	2.579	n/a	n/a	NoResponse	-1	0.0	n/a	6	77	ISIslide	Loss	True
