onset	duration	cue_type	current_mean_accuracy	duration_error	is_hit	isi_adjusted	onset_delay	response	response_type	reward	rt	rt_time	total_reward	trial_number	trial_phase	trial_type	one_press
11.097	0.25	Control	1.0	0.0	Yes	2.953	-0.003	n/a	GoodResponse	0	n/a	n/a	0	0	Cue	Neutral	True
11.348	3.85	Control	1.0	0.0	Yes	2.953	0.001	n/a	GoodResponse	0	n/a	n/a	0	0	Fixation	Neutral	True
15.193	0.4	Control	1.0	0.004	Yes	2.953	-0.004	3.0	GoodResponse	0	0.26	14.453	0	0	Target	Neutral	True
15.453	0.3	Control	1.0	0.004	Yes	2.953	-0.004	3.0	GoodResponse	0	0.26	n/a	0	0	ButtonPress	Neutral	True
15.594	0.3	Control	1.0	n/a	Yes	2.953	n/a	n/a	GoodResponse	0	n/a	n/a	0	0	Blank	Neutral	True
15.895	1.45	Control	1.0	n/a	Yes	2.953	n/a	5.0	GoodResponse	0	0.042	14.937	0	0	Feedback	Neutral	True
17.349	2.953	Control	1.0	n/a	Yes	2.953	n/a	n/a	GoodResponse	0	0.0	n/a	0	0	ISIslide	Neutral	True
20.325	0.25	Lose2	1.0	0.0	Yes	2.775	0.025	n/a	GoodResponse	0	n/a	n/a	0	1	Cue	AvoidedLoss	True
20.576	4.0	Lose2	1.0	0.0	Yes	2.775	0.001	n/a	GoodResponse	0	n/a	n/a	0	1	Fixation	AvoidedLoss	True
24.571	0.39	Lose2	1.0	0.004	Yes	2.775	-0.004	3.0	GoodResponse	0	0.247	23.818	0	1	Target	AvoidedLoss	True
24.818	0.3	Lose2	1.0	0.004	Yes	2.775	-0.004	3.0	GoodResponse	0	0.247	n/a	0	1	ButtonPress	AvoidedLoss	True
24.972	0.31	Lose2	1.0	n/a	Yes	2.775	n/a	n/a	GoodResponse	0	n/a	n/a	0	1	Blank	AvoidedLoss	True
25.273	1.45	Lose2	1.0	n/a	Yes	2.775	n/a	5.0	GoodResponse	0	0.04	24.313	0	1	Feedback	AvoidedLoss	True
26.727	2.775	Lose2	1.0	n/a	Yes	2.775	n/a	n/a	GoodResponse	0	0.0	n/a	0	1	ISIslide	AvoidedLoss	True
29.519	0.25	Control	1.0	0.0	Yes	2.581	0.019	n/a	GoodResponse	0	n/a	n/a	0	2	Cue	Neutral	True
29.77	4.1	Control	1.0	0.0	Yes	2.581	0.001	n/a	GoodResponse	0	n/a	n/a	0	2	Fixation	Neutral	True
33.865	0.38	Control	1.0	0.004	Yes	2.581	-0.004	3.0	GoodResponse	0	0.211	33.076	0	2	Target	Neutral	True
34.076	0.3	Control	1.0	0.004	Yes	2.581	-0.004	3.0	GoodResponse	0	0.211	n/a	0	2	ButtonPress	Neutral	True
34.25	0.32	Control	1.0	n/a	Yes	2.581	n/a	n/a	GoodResponse	0	n/a	n/a	0	2	Blank	Neutral	True
34.568	1.45	Control	1.0	n/a	Yes	2.581	n/a	5.0	GoodResponse	0	0.057	33.625	0	2	Feedback	Neutral	True
36.022	2.581	Control	1.0	n/a	Yes	2.581	n/a	n/a	GoodResponse	0	0.0	n/a	0	2	ISIslide	Neutral	True
38.63	0.25	Win2	1.0	0.0	Yes	2.82	0.03	n/a	GoodResponse	1	n/a	n/a	1	3	Cue	Win	True
38.88	3.95	Win2	1.0	0.001	Yes	2.82	0.0	n/a	GoodResponse	1	n/a	n/a	1	3	Fixation	Win	True
42.826	0.37	Win2	1.0	0.004	Yes	2.82	-0.004	3.0	GoodResponse	1	0.2	42.026	1	3	Target	Win	True
43.026	0.3	Win2	1.0	0.004	Yes	2.82	-0.004	3.0	GoodResponse	1	0.2	n/a	1	3	ButtonPress	Win	True
43.21	0.33	Win2	1.0	n/a	Yes	2.82	n/a	n/a	GoodResponse	1	n/a	n/a	1	3	Blank	Win	True
43.528	1.45	Win2	1.0	n/a	Yes	2.82	n/a	5.0	GoodResponse	1	0.034	42.562	1	3	Feedback	Win	True
44.982	2.82	Win2	1.0	n/a	Yes	2.82	n/a	n/a	GoodResponse	1	0.0	n/a	1	3	ISIslide	Win	True
47.824	0.25	Win2	1.0	0.0	Yes	3.276	0.024	n/a	GoodResponse	1	n/a	n/a	2	4	Cue	Win	True
48.075	4.0	Win2	1.0	0.0	Yes	3.276	0.001	n/a	GoodResponse	1	n/a	n/a	2	4	Fixation	Win	True
52.07	0.36	Win2	1.0	0.004	Yes	3.276	-0.004	3.0	GoodResponse	1	0.186	51.256	2	4	Target	Win	True
52.256	0.3	Win2	1.0	0.004	Yes	3.276	-0.004	3.0	GoodResponse	1	0.186	n/a	2	4	ButtonPress	Win	True
52.438	0.34	Win2	1.0	n/a	Yes	3.276	n/a	n/a	GoodResponse	1	n/a	n/a	2	4	Blank	Win	True
52.772	1.45	Win2	1.0	n/a	Yes	3.276	n/a	5.0	GoodResponse	1	0.04	51.812	2	4	Feedback	Win	True
54.226	3.276	Win2	1.0	n/a	Yes	3.276	n/a	n/a	GoodResponse	1	0.0	n/a	2	4	ISIslide	Win	True
57.52	0.25	Win2	1.0	0.0	Yes	2.78	0.02	n/a	GoodResponse	1	n/a	n/a	3	5	Cue	Win	True
57.77	4.0	Win2	1.0	0.0	Yes	2.78	0.0	n/a	GoodResponse	1	n/a	n/a	3	5	Fixation	Win	True
61.766	0.35	Win2	1.0	0.004	Yes	2.78	-0.004	3.0	GoodResponse	1	0.198	60.964	3	5	Target	Win	True
61.964	0.3	Win2	1.0	0.004	Yes	2.78	-0.004	3.0	GoodResponse	1	0.198	n/a	3	5	ButtonPress	Win	True
62.117	0.35	Win2	1.0	n/a	Yes	2.78	n/a	n/a	GoodResponse	1	n/a	n/a	3	5	Blank	Win	True
62.468	1.45	Win2	1.0	n/a	Yes	2.78	n/a	5.0	GoodResponse	1	0.031	61.499	3	5	Feedback	Win	True
63.922	2.78	Win2	1.0	n/a	Yes	2.78	n/a	n/a	GoodResponse	1	0.0	n/a	3	5	ISIslide	Win	True
66.73	0.25	Lose2	1.0	0.0	Yes	2.72	0.03	n/a	GoodResponse	0	n/a	n/a	3	6	Cue	AvoidedLoss	True
66.981	3.95	Lose2	1.0	0.0	Yes	2.72	0.001	n/a	GoodResponse	0	n/a	n/a	3	6	Fixation	AvoidedLoss	True
70.926	0.34	Lose2	1.0	0.004	Yes	2.72	-0.004	3.0	GoodResponse	0	0.188	70.114	3	6	Target	AvoidedLoss	True
71.114	0.3	Lose2	1.0	0.004	Yes	2.72	-0.004	3.0	GoodResponse	0	0.188	n/a	3	6	ButtonPress	AvoidedLoss	True
71.277	0.36	Lose2	1.0	n/a	Yes	2.72	n/a	n/a	GoodResponse	0	n/a	n/a	3	6	Blank	AvoidedLoss	True
71.628	1.45	Lose2	1.0	n/a	Yes	2.72	n/a	5.0	GoodResponse	0	0.059	70.687	3	6	Feedback	AvoidedLoss	True
73.083	2.72	Lose2	1.0	n/a	Yes	2.72	n/a	n/a	GoodResponse	0	0.0	n/a	3	6	ISIslide	AvoidedLoss	True
75.824	0.25	Lose2	1.0	0.0	Yes	4.026	0.024	n/a	GoodResponse	0	n/a	n/a	3	7	Cue	AvoidedLoss	True
76.075	4.05	Lose2	1.0	0.0	Yes	4.026	0.001	n/a	GoodResponse	0	n/a	n/a	3	7	Fixation	AvoidedLoss	True
80.12	0.33	Lose2	1.0	0.004	Yes	4.026	-0.004	3.0	GoodResponse	0	0.188	79.308	3	7	Target	AvoidedLoss	True
80.308	0.3	Lose2	1.0	0.004	Yes	4.026	-0.004	3.0	GoodResponse	0	0.188	n/a	3	7	ButtonPress	AvoidedLoss	True
80.455	0.37	Lose2	1.0	n/a	Yes	4.026	n/a	n/a	GoodResponse	0	n/a	n/a	3	7	Blank	AvoidedLoss	True
80.823	1.45	Lose2	1.0	n/a	Yes	4.026	n/a	5.0	GoodResponse	0	0.051	79.874	3	7	Feedback	AvoidedLoss	True
82.277	4.026	Lose2	1.0	n/a	Yes	4.026	n/a	n/a	GoodResponse	0	0.0	n/a	3	7	ISIslide	AvoidedLoss	True
86.322	0.25	Lose2	0.8889	0.0	No	3.028	0.022	n/a	NoResponse	-1	n/a	n/a	2	8	Cue	Loss	True
86.573	3.95	Lose2	0.8889	0.0	No	3.028	0.001	3.0	NoResponse	-1	3.837	89.41	2	8	Fixation	Loss	True
90.41	0.3	Lose2	0.8889	0.0	No	3.028	0.001	3.0	NoResponse	-1	3.837	n/a	2	8	ButtonPress	Loss	True
90.518	0.32	Lose2	0.8889	0.004	No	3.028	-0.004	n/a	NoResponse	-1	n/a	n/a	2	8	Target	Loss	True
90.852	0.38	Lose2	0.8889	n/a	No	3.028	n/a	n/a	NoResponse	-1	n/a	n/a	2	8	Blank	Loss	True
91.22	1.45	Lose2	0.8889	n/a	No	3.028	n/a	5.0	NoResponse	-1	0.029	90.249	2	8	Feedback	Loss	True
92.675	3.028	Lose2	0.8889	n/a	No	3.028	n/a	n/a	NoResponse	-1	0.0	n/a	2	8	ISIslide	Loss	True
95.717	0.25	Lose2	0.9	0.0	Yes	3.133	0.017	n/a	GoodResponse	0	n/a	n/a	2	9	Cue	AvoidedLoss	True
95.968	3.95	Lose2	0.9	0.0	Yes	3.133	0.001	n/a	GoodResponse	0	n/a	n/a	2	9	Fixation	AvoidedLoss	True
99.913	0.31	Lose2	0.9	0.004	Yes	3.133	-0.004	3.0	GoodResponse	0	0.264	99.177	2	9	Target	AvoidedLoss	True
100.177	0.3	Lose2	0.9	0.004	Yes	3.133	-0.004	3.0	GoodResponse	0	0.264	n/a	2	9	ButtonPress	AvoidedLoss	True
100.231	0.39	Lose2	0.9	n/a	Yes	3.133	n/a	n/a	GoodResponse	0	n/a	n/a	2	9	Blank	AvoidedLoss	True
100.615	1.45	Lose2	0.9	n/a	Yes	3.133	n/a	5.0	GoodResponse	0	0.009	99.624	2	9	Feedback	AvoidedLoss	True
102.069	3.133	Lose2	0.9	n/a	Yes	3.133	n/a	n/a	GoodResponse	0	0.0	n/a	2	9	ISIslide	AvoidedLoss	True
105.229	0.25	Control	0.9091	0.0	Yes	3.271	0.029	n/a	GoodResponse	0	n/a	n/a	2	10	Cue	Neutral	True
105.48	4.0	Control	0.9091	0.0	Yes	3.271	0.001	n/a	GoodResponse	0	n/a	n/a	2	10	Fixation	Neutral	True
109.475	0.3	Control	0.9091	0.004	Yes	3.271	-0.004	3.0	GoodResponse	0	0.218	108.693	2	10	Target	Neutral	True
109.693	0.3	Control	0.9091	0.004	Yes	3.271	-0.004	3.0	GoodResponse	0	0.218	n/a	2	10	ButtonPress	Neutral	True
109.776	0.4	Control	0.9091	n/a	Yes	3.271	n/a	n/a	GoodResponse	0	n/a	n/a	2	10	Blank	Neutral	True
110.177	1.45	Control	0.9091	n/a	Yes	3.271	n/a	5.0	GoodResponse	0	0.009	109.186	2	10	Feedback	Neutral	True
111.631	3.271	Control	0.9091	n/a	Yes	3.271	n/a	n/a	GoodResponse	0	0.0	n/a	2	10	ISIslide	Neutral	True
114.924	0.25	Lose2	0.9167000000000001	0.001	Yes	2.726	0.024	n/a	GoodResponse	0	n/a	n/a	2	11	Cue	AvoidedLoss	True
115.175	4.05	Lose2	0.9167000000000001	0.0	Yes	2.726	0.001	n/a	GoodResponse	0	n/a	n/a	2	11	Fixation	AvoidedLoss	True
119.221	0.29	Lose2	0.9167000000000001	0.003	Yes	2.726	-0.003	3.0	GoodResponse	0	0.192	118.413	2	11	Target	AvoidedLoss	True
119.413	0.3	Lose2	0.9167000000000001	0.003	Yes	2.726	-0.003	3.0	GoodResponse	0	0.192	n/a	2	11	ButtonPress	AvoidedLoss	True
119.522	0.41	Lose2	0.9167000000000001	n/a	Yes	2.726	n/a	n/a	GoodResponse	0	n/a	n/a	2	11	Blank	AvoidedLoss	True
119.923	1.45	Lose2	0.9167000000000001	n/a	Yes	2.726	n/a	5.0	GoodResponse	0	0.014	118.937	2	11	Feedback	AvoidedLoss	True
121.377	2.726	Lose2	0.9167000000000001	n/a	Yes	2.726	n/a	n/a	GoodResponse	0	0.0	n/a	2	11	ISIslide	AvoidedLoss	True
124.119	0.25	Control	0.9231	0.0	Yes	2.981	0.019	n/a	GoodResponse	0	n/a	n/a	2	12	Cue	Neutral	True
124.369	3.9	Control	0.9231	0.0	Yes	2.981	0.0	n/a	GoodResponse	0	n/a	n/a	2	12	Fixation	Neutral	True
128.281	0.28	Control	0.9231	0.0	Yes	2.981	0.012	3.0	GoodResponse	0	0.256	127.537	2	12	Target	Neutral	True
128.537	0.3	Control	0.9231	0.0	Yes	2.981	0.012	3.0	GoodResponse	0	0.256	n/a	2	12	ButtonPress	Neutral	True
128.549	0.42	Control	0.9231	n/a	Yes	2.981	n/a	n/a	GoodResponse	0	n/a	n/a	2	12	Blank	Neutral	True
128.966	1.45	Control	0.9231	n/a	Yes	2.981	n/a	5.0	GoodResponse	0	0.032	127.998	2	12	Feedback	Neutral	True
130.421	2.981	Control	0.9231	n/a	Yes	2.981	n/a	n/a	GoodResponse	0	0.0	n/a	2	12	ISIslide	Neutral	True
133.43	0.25	Control	0.9286	0.0	Yes	2.77	0.03	n/a	GoodResponse	0	n/a	n/a	2	13	Cue	Neutral	True
133.681	4.0	Control	0.9286	0.0	Yes	2.77	0.001	n/a	GoodResponse	0	n/a	n/a	2	13	Fixation	Neutral	True
137.676	0.27	Control	0.9286	0.004	Yes	2.77	-0.004	3.0	GoodResponse	0	0.233	136.909	2	13	Target	Neutral	True
137.909	0.3	Control	0.9286	0.004	Yes	2.77	-0.004	3.0	GoodResponse	0	0.233	n/a	2	13	ButtonPress	Neutral	True
137.96	0.43	Control	0.9286	n/a	Yes	2.77	n/a	n/a	GoodResponse	0	n/a	n/a	2	13	Blank	Neutral	True
138.378	1.45	Control	0.9286	n/a	Yes	2.77	n/a	5.0	GoodResponse	0	0.058	137.436	2	13	Feedback	Neutral	True
139.832	2.77	Control	0.9286	n/a	Yes	2.77	n/a	n/a	GoodResponse	0	0.0	n/a	2	13	ISIslide	Neutral	True
142.624	0.25	Win2	0.9333	0.0	Yes	2.676	0.024	n/a	GoodResponse	1	n/a	n/a	3	14	Cue	Win	True
142.875	4.1	Win2	0.9333	0.0	Yes	2.676	0.001	n/a	GoodResponse	1	n/a	n/a	3	14	Fixation	Win	True
146.97	0.26	Win2	0.9333	0.004	Yes	2.676	-0.004	3.0	GoodResponse	1	0.226	146.196	3	14	Target	Win	True
147.196	0.3	Win2	0.9333	0.004	Yes	2.676	-0.004	3.0	GoodResponse	1	0.226	n/a	3	14	ButtonPress	Win	True
147.238	0.44	Win2	0.9333	n/a	Yes	2.676	n/a	n/a	GoodResponse	1	n/a	n/a	3	14	Blank	Win	True
147.672	1.45	Win2	0.9333	n/a	Yes	2.676	n/a	5.0	GoodResponse	1	0.014	146.686	3	14	Feedback	Win	True
149.127	2.676	Win2	0.9333	n/a	Yes	2.676	n/a	n/a	GoodResponse	1	0.0	n/a	3	14	ISIslide	Win	True
151.818	0.25	Control	0.875	0.0	No	2.982	0.018	n/a	NoResponse	0	n/a	n/a	3	15	Cue	Neutral	True
152.069	4.0	Control	0.875	0.0	No	2.982	0.001	n/a	NoResponse	0	n/a	n/a	3	15	Fixation	Neutral	True
156.064	0.25	Control	0.875	0.004	No	2.982	-0.004	3.0	NoResponse	0	0.282	155.346	3	15	Target	Neutral	True
156.315	0.45	Control	0.875	n/a	No	2.982	n/a	n/a	NoResponse	0	n/a	n/a	3	15	Blank	Neutral	True
156.346	0.3	Control	0.875	0.004	No	2.982	-0.004	3.0	NoResponse	0	0.282	n/a	3	15	ButtonPress	Neutral	True
156.766	1.45	Control	0.875	n/a	No	2.982	n/a	5.0	NoResponse	0	0.045	155.811	3	15	Feedback	Neutral	True
158.221	2.982	Control	0.875	n/a	No	2.982	n/a	n/a	NoResponse	0	0.0	n/a	3	15	ISIslide	Neutral	True
161.23	0.25	Win2	0.8824	0.0	Yes	2.87	0.03	n/a	GoodResponse	1	n/a	n/a	4	16	Cue	Win	True
161.48	4.0	Win2	0.8824	0.0	Yes	2.87	0.0	n/a	GoodResponse	1	n/a	n/a	4	16	Fixation	Win	True
165.476	0.24	Win2	0.8824	0.004	Yes	2.87	-0.004	3.0	GoodResponse	1	0.197	164.673	4	16	Target	Win	True
165.673	0.3	Win2	0.8824	0.004	Yes	2.87	-0.004	3.0	GoodResponse	1	0.197	n/a	4	16	ButtonPress	Win	True
165.726	0.46	Win2	0.8824	n/a	Yes	2.87	n/a	n/a	GoodResponse	1	n/a	n/a	4	16	Blank	Win	True
166.178	1.45	Win2	0.8824	n/a	Yes	2.87	n/a	5.0	GoodResponse	1	0.008	165.186	4	16	Feedback	Win	True
167.632	2.87	Win2	0.8824	n/a	Yes	2.87	n/a	n/a	GoodResponse	1	0.0	n/a	4	16	ISIslide	Win	True
170.524	0.25	Lose2	0.8332999999999999	0.0	No	2.726	0.024	n/a	NoResponse	-1	n/a	n/a	3	17	Cue	Loss	True
170.775	3.95	Lose2	0.8332999999999999	0.0	No	2.726	0.001	n/a	NoResponse	-1	n/a	n/a	3	17	Fixation	Loss	True
174.72	0.23	Lose2	0.8332999999999999	0.004	No	2.726	-0.004	3.0	NoResponse	-1	0.27	173.99	3	17	Target	Loss	True
174.954	0.47	Lose2	0.8332999999999999	n/a	No	2.726	n/a	n/a	NoResponse	-1	n/a	n/a	3	17	Blank	Loss	True
174.99	0.3	Lose2	0.8332999999999999	0.004	No	2.726	-0.004	3.0	NoResponse	-1	0.27	n/a	3	17	ButtonPress	Loss	True
175.422	1.45	Lose2	0.8332999999999999	n/a	No	2.726	n/a	5.0	NoResponse	-1	0.013	174.435	3	17	Feedback	Loss	True
176.876	2.726	Lose2	0.8332999999999999	n/a	No	2.726	n/a	n/a	NoResponse	-1	0.0	n/a	3	17	ISIslide	Loss	True
179.618	0.25	Lose2	0.7895	0.0	No	2.732	0.018	n/a	LatePress	-1	n/a	n/a	2	18	Cue	Loss	True
179.869	4.05	Lose2	0.7895	0.0	No	2.732	0.001	n/a	LatePress	-1	n/a	n/a	2	18	Fixation	Loss	True
183.914	0.22	Lose2	0.7895	0.004	No	2.732	-0.004	3.0	LatePress	-1	0.233	183.147	2	18	Target	Loss	True
184.147	0.3	Lose2	0.7895	0.004	No	2.732	-0.004	3.0	LatePress	-1	0.233	n/a	2	18	ButtonPress	Loss	True
184.148	0.48	Lose2	0.7895	n/a	No	2.732	n/a	n/a	LatePress	-1	n/a	n/a	2	18	Blank	Loss	True
184.616	1.45	Lose2	0.7895	n/a	No	2.732	n/a	5.0	LatePress	-1	0.007	183.623	2	18	Feedback	Loss	True
186.071	2.732	Lose2	0.7895	n/a	No	2.732	n/a	n/a	LatePress	-1	0.0	n/a	2	18	ISIslide	Loss	True
188.829	0.25	Control	0.75	0.0	No	2.921	0.029	n/a	NoResponse	0	n/a	n/a	2	19	Cue	Neutral	True
189.08	3.95	Control	0.75	0.0	No	2.921	0.001	n/a	NoResponse	0	n/a	n/a	2	19	Fixation	Neutral	True
193.025	0.21	Control	0.75	0.004	No	2.921	-0.004	3.0	NoResponse	0	0.25	192.275	2	19	Target	Neutral	True
193.242	0.49	Control	0.75	n/a	No	2.921	n/a	n/a	NoResponse	0	n/a	n/a	2	19	Blank	Neutral	True
193.275	0.3	Control	0.75	0.004	No	2.921	-0.004	3.0	NoResponse	0	0.25	n/a	2	19	ButtonPress	Neutral	True
193.727	1.45	Control	0.75	n/a	No	2.921	n/a	5.0	NoResponse	0	0.021	192.748	2	19	Feedback	Neutral	True
195.181	2.921	Control	0.75	n/a	No	2.921	n/a	n/a	NoResponse	0	0.0	n/a	2	19	ISIslide	Neutral	True
198.123	0.25	Control	0.7143	0.0	No	2.627	0.023	n/a	NoResponse	0	n/a	n/a	2	20	Cue	Neutral	True
198.374	4.05	Control	0.7143	0.0	No	2.627	0.001	n/a	NoResponse	0	n/a	n/a	2	20	Fixation	Neutral	True
202.419	0.2	Control	0.7143	0.004	No	2.627	-0.004	3.0	NoResponse	0	0.267	201.686	2	20	Target	Neutral	True
202.62	0.5	Control	0.7143	n/a	No	2.627	n/a	n/a	NoResponse	0	n/a	n/a	2	20	Blank	Neutral	True
202.686	0.3	Control	0.7143	0.004	No	2.627	-0.004	3.0	NoResponse	0	0.267	n/a	2	20	ButtonPress	Neutral	True
203.122	1.45	Control	0.7143	n/a	No	2.627	n/a	5.0	NoResponse	0	0.001	202.123	2	20	Feedback	Neutral	True
204.576	2.627	Control	0.7143	n/a	No	2.627	n/a	n/a	NoResponse	0	0.0	n/a	2	20	ISIslide	Neutral	True
207.217	0.25	Control	0.6818000000000001	0.0	No	2.783	0.017	n/a	NoResponse	0	n/a	n/a	2	21	Cue	Neutral	True
207.468	4.1	Control	0.6818000000000001	0.0	No	2.783	0.001	n/a	NoResponse	0	n/a	n/a	2	21	Fixation	Neutral	True
211.563	0.19	Control	0.6818000000000001	0.004	No	2.783	-0.004	3.0	NoResponse	0	0.213	210.776	2	21	Target	Neutral	True
211.764	0.51	Control	0.6818000000000001	n/a	No	2.783	n/a	n/a	NoResponse	0	n/a	n/a	2	21	Blank	Neutral	True
211.776	0.3	Control	0.6818000000000001	0.004	No	2.783	-0.004	3.0	NoResponse	0	0.213	n/a	2	21	ButtonPress	Neutral	True
212.266	1.45	Control	0.6818000000000001	n/a	No	2.783	n/a	5.0	NoResponse	0	0.044	211.31	2	21	Feedback	Neutral	True
213.72	2.783	Control	0.6818000000000001	n/a	No	2.783	n/a	n/a	NoResponse	0	0.0	n/a	2	21	ISIslide	Neutral	True
216.528	0.25	Control	0.6522	0.0	No	2.772	0.028	n/a	NoResponse	0	n/a	n/a	2	22	Cue	Neutral	True
216.779	4.0	Control	0.6522	0.0	No	2.772	0.001	n/a	NoResponse	0	n/a	n/a	2	22	Fixation	Neutral	True
220.774	0.18	Control	0.6522	0.004	No	2.772	-0.004	3.0	NoResponse	0	0.298	220.072	2	22	Target	Neutral	True
220.958	0.52	Control	0.6522	n/a	No	2.772	n/a	n/a	NoResponse	0	n/a	n/a	2	22	Blank	Neutral	True
221.072	0.3	Control	0.6522	0.004	No	2.772	-0.004	3.0	NoResponse	0	0.298	n/a	2	22	ButtonPress	Neutral	True
221.476	1.45	Control	0.6522	n/a	No	2.772	n/a	5.0	NoResponse	0	0.021	220.497	2	22	Feedback	Neutral	True
222.931	2.772	Control	0.6522	n/a	No	2.772	n/a	n/a	NoResponse	0	0.0	n/a	2	22	ISIslide	Neutral	True
225.722	0.25	Control	0.625	0.0	No	2.778	0.022	n/a	NoResponse	0	n/a	n/a	2	23	Cue	Neutral	True
225.973	3.9	Control	0.625	0.0	No	2.778	0.001	n/a	NoResponse	0	n/a	n/a	2	23	Fixation	Neutral	True
229.868	0.19	Control	0.625	0.004	No	2.778	-0.004	3.0	NoResponse	0	0.217	229.085	2	23	Target	Neutral	True
230.069	0.51	Control	0.625	n/a	No	2.778	n/a	n/a	NoResponse	0	n/a	n/a	2	23	Blank	Neutral	True
230.085	0.3	Control	0.625	0.004	No	2.778	-0.004	3.0	NoResponse	0	0.217	n/a	2	23	ButtonPress	Neutral	True
230.57	1.45	Control	0.625	n/a	No	2.778	n/a	5.0	NoResponse	0	0.052	229.622	2	23	Feedback	Neutral	True
232.025	2.778	Control	0.625	n/a	No	2.778	n/a	n/a	NoResponse	0	0.0	n/a	2	23	ISIslide	Neutral	True
234.816	0.25	Win2	0.6	0.0	No	3.134	0.016	n/a	NoResponse	0	n/a	n/a	2	24	Cue	MissedWin	True
235.067	3.95	Win2	0.6	0.0	No	3.134	0.001	n/a	NoResponse	0	n/a	n/a	2	24	Fixation	MissedWin	True
239.012	0.2	Win2	0.6	0.004	No	3.134	-0.004	3.0	NoResponse	0	0.212	238.224	2	24	Target	MissedWin	True
239.213	0.5	Win2	0.6	n/a	No	3.134	n/a	n/a	NoResponse	0	n/a	n/a	2	24	Blank	MissedWin	True
239.224	0.3	Win2	0.6	0.004	No	3.134	-0.004	3.0	NoResponse	0	0.212	n/a	2	24	ButtonPress	MissedWin	True
239.714	1.45	Win2	0.6	n/a	No	3.134	n/a	5.0	NoResponse	0	0.033	238.747	2	24	Feedback	MissedWin	True
241.169	3.134	Win2	0.6	n/a	No	3.134	n/a	n/a	NoResponse	0	0.0	n/a	2	24	ISIslide	MissedWin	True
244.328	0.25	Win2	0.5769	0.0	No	3.072	0.028	n/a	LatePress	0	n/a	n/a	2	25	Cue	MissedWin	True
244.579	4.0	Win2	0.5769	0.0	No	3.072	0.001	n/a	LatePress	0	n/a	n/a	2	25	Fixation	MissedWin	True
248.574	0.21	Win2	0.5769	0.004	No	3.072	-0.004	3.0	LatePress	0	0.213	247.787	2	25	Target	MissedWin	True
248.787	0.3	Win2	0.5769	0.004	No	3.072	-0.004	3.0	LatePress	0	0.213	n/a	2	25	ButtonPress	MissedWin	True
248.791	0.49	Win2	0.5769	n/a	No	3.072	n/a	n/a	LatePress	0	n/a	n/a	2	25	Blank	MissedWin	True
249.276	1.45	Win2	0.5769	n/a	No	3.072	n/a	5.0	LatePress	0	0.034	248.31	2	25	Feedback	MissedWin	True
250.731	3.072	Win2	0.5769	n/a	No	3.072	n/a	n/a	LatePress	0	0.0	n/a	2	25	ISIslide	MissedWin	True
253.823	0.25	Win2	0.5926	0.0	Yes	2.927	0.023	n/a	GoodResponse	1	n/a	n/a	3	26	Cue	Win	True
254.074	3.95	Win2	0.5926	0.0	Yes	2.927	0.001	n/a	GoodResponse	1	n/a	n/a	3	26	Fixation	Win	True
258.019	0.22	Win2	0.5926	0.004	Yes	2.927	-0.004	3.0	GoodResponse	1	0.201	257.22	3	26	Target	Win	True
258.22	0.3	Win2	0.5926	0.004	Yes	2.927	-0.004	3.0	GoodResponse	1	0.201	n/a	3	26	ButtonPress	Win	True
258.253	0.48	Win2	0.5926	n/a	Yes	2.927	n/a	n/a	GoodResponse	1	n/a	n/a	3	26	Blank	Win	True
258.721	1.45	Win2	0.5926	n/a	Yes	2.927	n/a	5.0	GoodResponse	1	0.026	257.747	3	26	Feedback	Win	True
260.175	2.927	Win2	0.5926	n/a	Yes	2.927	n/a	n/a	GoodResponse	1	0.0	n/a	3	26	ISIslide	Win	True
263.118	0.25	Lose2	0.6071	0.0	Yes	2.832	0.018	n/a	GoodResponse	0	n/a	n/a	3	27	Cue	AvoidedLoss	True
263.368	4.05	Lose2	0.6071	0.0	Yes	2.832	0.0	n/a	GoodResponse	0	n/a	n/a	3	27	Fixation	AvoidedLoss	True
267.414	0.23	Lose2	0.6071	0.004	Yes	2.832	-0.004	3.0	GoodResponse	0	0.223	266.637	3	27	Target	AvoidedLoss	True
267.637	0.3	Lose2	0.6071	0.004	Yes	2.832	-0.004	3.0	GoodResponse	0	0.223	n/a	3	27	ButtonPress	AvoidedLoss	True
267.648	0.47	Lose2	0.6071	n/a	Yes	2.832	n/a	n/a	GoodResponse	0	n/a	n/a	3	27	Blank	AvoidedLoss	True
268.116	1.45	Lose2	0.6071	n/a	Yes	2.832	n/a	5.0	GoodResponse	0	0.007	267.123	3	27	Feedback	AvoidedLoss	True
269.57	2.832	Lose2	0.6071	n/a	Yes	2.832	n/a	n/a	GoodResponse	0	0.0	n/a	3	27	ISIslide	AvoidedLoss	True
272.429	0.25	Control	0.5861999999999999	0.0	No	2.821	0.029	n/a	NoResponse	0	n/a	n/a	3	28	Cue	Neutral	True
272.679	4.05	Control	0.5861999999999999	0.001	No	2.821	0.0	n/a	NoResponse	0	n/a	n/a	3	28	Fixation	Neutral	True
276.725	0.24	Control	0.5861999999999999	0.004	No	2.821	-0.004	3.0	NoResponse	0	0.352	276.077	3	28	Target	Neutral	True
276.976	0.46	Control	0.5861999999999999	n/a	No	2.821	n/a	n/a	NoResponse	0	n/a	n/a	3	28	Blank	Neutral	True
277.077	0.3	Control	0.5861999999999999	0.004	No	2.821	-0.004	3.0	NoResponse	0	0.352	n/a	3	28	ButtonPress	Neutral	True
277.427	1.45	Control	0.5861999999999999	n/a	No	2.821	n/a	5.0	NoResponse	0	0.007	276.434	3	28	Feedback	Neutral	True
278.881	2.821	Control	0.5861999999999999	n/a	No	2.821	n/a	n/a	NoResponse	0	0.0	n/a	3	28	ISIslide	Neutral	True
281.723	0.25	Lose2	0.6	0.0	Yes	2.827	0.023	n/a	GoodResponse	0	n/a	n/a	3	29	Cue	AvoidedLoss	True
281.974	3.95	Lose2	0.6	0.0	Yes	2.827	0.001	n/a	GoodResponse	0	n/a	n/a	3	29	Fixation	AvoidedLoss	True
285.919	0.25	Lose2	0.6	0.004	Yes	2.827	-0.004	3.0	GoodResponse	0	0.205	285.124	3	29	Target	AvoidedLoss	True
286.124	0.3	Lose2	0.6	0.004	Yes	2.827	-0.004	3.0	GoodResponse	0	0.205	n/a	3	29	ButtonPress	AvoidedLoss	True
286.17	0.45	Lose2	0.6	n/a	Yes	2.827	n/a	n/a	GoodResponse	0	n/a	n/a	3	29	Blank	AvoidedLoss	True
286.621	1.45	Lose2	0.6	n/a	Yes	2.827	n/a	5.0	GoodResponse	0	0.001	285.622	3	29	Feedback	AvoidedLoss	True
288.076	2.827	Lose2	0.6	n/a	Yes	2.827	n/a	n/a	GoodResponse	0	0.0	n/a	3	29	ISIslide	AvoidedLoss	True
290.917	0.25	Win2	0.6129	0.0	Yes	2.783	0.017	n/a	GoodResponse	1	n/a	n/a	4	30	Cue	Win	True
291.168	3.9	Win2	0.6129	0.0	Yes	2.783	0.001	n/a	GoodResponse	1	n/a	n/a	4	30	Fixation	Win	True
295.063	0.26	Win2	0.6129	0.004	Yes	2.783	-0.004	3.0	GoodResponse	1	0.193	294.256	4	30	Target	Win	True
295.256	0.3	Win2	0.6129	0.004	Yes	2.783	-0.004	3.0	GoodResponse	1	0.193	n/a	4	30	ButtonPress	Win	True
295.331	0.44	Win2	0.6129	n/a	Yes	2.783	n/a	n/a	GoodResponse	1	n/a	n/a	4	30	Blank	Win	True
295.765	1.45	Win2	0.6129	n/a	Yes	2.783	n/a	5.0	GoodResponse	1	0.043	294.808	4	30	Feedback	Win	True
297.22	2.783	Win2	0.6129	n/a	Yes	2.783	n/a	n/a	GoodResponse	1	0.0	n/a	4	30	ISIslide	Win	True
300.028	0.25	Lose2	0.625	0.0	Yes	2.822	0.028	n/a	GoodResponse	0	n/a	n/a	4	31	Cue	AvoidedLoss	True
300.279	4.05	Lose2	0.625	0.0	Yes	2.822	0.001	n/a	GoodResponse	0	n/a	n/a	4	31	Fixation	AvoidedLoss	True
304.324	0.27	Lose2	0.625	0.004	Yes	2.822	-0.004	3.0	GoodResponse	0	0.212	303.536	4	31	Target	AvoidedLoss	True
304.536	0.3	Lose2	0.625	0.004	Yes	2.822	-0.004	3.0	GoodResponse	0	0.212	n/a	4	31	ButtonPress	AvoidedLoss	True
304.608	0.43	Lose2	0.625	n/a	Yes	2.822	n/a	n/a	GoodResponse	0	n/a	n/a	4	31	Blank	AvoidedLoss	True
305.026	1.45	Lose2	0.625	n/a	Yes	2.822	n/a	5.0	GoodResponse	0	0.033	304.059	4	31	Feedback	AvoidedLoss	True
306.481	2.822	Lose2	0.625	n/a	Yes	2.822	n/a	n/a	GoodResponse	0	0.0	n/a	4	31	ISIslide	AvoidedLoss	True
309.322	0.25	Lose2	0.6364	0.0	Yes	2.628	0.022	n/a	GoodResponse	0	n/a	n/a	4	32	Cue	AvoidedLoss	True
309.573	4.15	Lose2	0.6364	0.0	Yes	2.628	0.001	n/a	GoodResponse	0	n/a	n/a	4	32	Fixation	AvoidedLoss	True
313.719	0.28	Lose2	0.6364	0.003	Yes	2.628	-0.003	3.0	GoodResponse	0	0.271	312.99	4	32	Target	AvoidedLoss	True
313.99	0.3	Lose2	0.6364	0.003	Yes	2.628	-0.003	3.0	GoodResponse	0	0.271	n/a	4	32	ButtonPress	AvoidedLoss	True
314.003	0.42	Lose2	0.6364	n/a	Yes	2.628	n/a	n/a	GoodResponse	0	n/a	n/a	4	32	Blank	AvoidedLoss	True
314.421	1.45	Lose2	0.6364	n/a	Yes	2.628	n/a	5.0	GoodResponse	0	0.013	313.434	4	32	Feedback	AvoidedLoss	True
315.875	2.628	Lose2	0.6364	n/a	Yes	2.628	n/a	n/a	GoodResponse	0	0.0	n/a	4	32	ISIslide	AvoidedLoss	True
318.517	0.25	Win2	0.6470999999999999	0.0	Yes	2.683	0.017	n/a	GoodResponse	1	n/a	n/a	5	33	Cue	Win	True
318.767	4.0	Win2	0.6470999999999999	0.0	Yes	2.683	0.0	n/a	GoodResponse	1	n/a	n/a	5	33	Fixation	Win	True
322.763	0.29	Win2	0.6470999999999999	0.004	Yes	2.683	-0.004	3.0	GoodResponse	1	0.227	321.99	5	33	Target	Win	True
322.99	0.3	Win2	0.6470999999999999	0.004	Yes	2.683	-0.004	3.0	GoodResponse	1	0.227	n/a	5	33	ButtonPress	Win	True
323.063	0.41	Win2	0.6470999999999999	n/a	Yes	2.683	n/a	n/a	GoodResponse	1	n/a	n/a	5	33	Blank	Win	True
323.465	1.45	Win2	0.6470999999999999	n/a	Yes	2.683	n/a	5.0	GoodResponse	1	0.031	322.496	5	33	Feedback	Win	True
324.919	2.683	Win2	0.6470999999999999	n/a	Yes	2.683	n/a	n/a	GoodResponse	1	0.0	n/a	5	33	ISIslide	Win	True
327.627	0.25	Lose2	0.6570999999999999	0.0	Yes	2.623	0.027	n/a	GoodResponse	0	n/a	n/a	5	34	Cue	AvoidedLoss	True
327.878	4.05	Lose2	0.6570999999999999	0.0	Yes	2.623	0.001	n/a	GoodResponse	0	n/a	n/a	5	34	Fixation	AvoidedLoss	True
331.923	0.3	Lose2	0.6570999999999999	0.004	Yes	2.623	-0.004	3.0	GoodResponse	0	0.218	331.141	5	34	Target	AvoidedLoss	True
332.141	0.3	Lose2	0.6570999999999999	0.004	Yes	2.623	-0.004	3.0	GoodResponse	0	0.218	n/a	5	34	ButtonPress	AvoidedLoss	True
332.224	0.4	Lose2	0.6570999999999999	n/a	Yes	2.623	n/a	n/a	GoodResponse	0	n/a	n/a	5	34	Blank	AvoidedLoss	True
332.625	1.45	Lose2	0.6570999999999999	n/a	Yes	2.623	n/a	5.0	GoodResponse	0	0.059	331.684	5	34	Feedback	AvoidedLoss	True
334.08	2.623	Lose2	0.6570999999999999	n/a	Yes	2.623	n/a	n/a	GoodResponse	0	0.0	n/a	5	34	ISIslide	AvoidedLoss	True
336.721	0.25	Lose2	0.6667000000000001	0.0	Yes	2.679	0.021	n/a	GoodResponse	0	n/a	n/a	5	35	Cue	AvoidedLoss	True
336.972	4.0	Lose2	0.6667000000000001	0.0	Yes	2.679	0.001	n/a	GoodResponse	0	n/a	n/a	5	35	Fixation	AvoidedLoss	True
340.967	0.3	Lose2	0.6667000000000001	0.004	Yes	2.679	-0.004	3.0	GoodResponse	0	0.282	340.249	5	35	Target	AvoidedLoss	True
341.249	0.3	Lose2	0.6667000000000001	0.004	Yes	2.679	-0.004	3.0	GoodResponse	0	0.282	n/a	5	35	ButtonPress	AvoidedLoss	True
341.268	0.4	Lose2	0.6667000000000001	n/a	Yes	2.679	n/a	n/a	GoodResponse	0	n/a	n/a	5	35	Blank	AvoidedLoss	True
341.669	1.45	Lose2	0.6667000000000001	n/a	Yes	2.679	n/a	5.0	GoodResponse	0	0.014	340.683	5	35	Feedback	AvoidedLoss	True
343.123	2.679	Lose2	0.6667000000000001	n/a	Yes	2.679	n/a	n/a	GoodResponse	0	0.0	n/a	5	35	ISIslide	AvoidedLoss	True
345.815	0.25	Control	0.6486	0.0	No	2.685	0.015	n/a	NoResponse	0	n/a	n/a	5	36	Cue	Neutral	True
346.066	4.0	Control	0.6486	0.0	No	2.685	0.001	n/a	NoResponse	0	n/a	n/a	5	36	Fixation	Neutral	True
350.061	0.29	Control	0.6486	0.004	No	2.685	-0.004	3.0	NoResponse	0	0.327	349.388	5	36	Target	Neutral	True
350.362	0.41	Control	0.6486	n/a	No	2.685	n/a	n/a	NoResponse	0	n/a	n/a	5	36	Blank	Neutral	True
350.388	0.3	Control	0.6486	0.004	No	2.685	-0.004	3.0	NoResponse	0	0.327	n/a	5	36	ButtonPress	Neutral	True
350.763	1.45	Control	0.6486	n/a	No	2.685	n/a	5.0	NoResponse	0	0.045	349.808	5	36	Feedback	Neutral	True
352.217	2.685	Control	0.6486	n/a	No	2.685	n/a	n/a	NoResponse	0	0.0	n/a	5	36	ISIslide	Neutral	True
354.925	0.25	Win2	0.6579	0.0	Yes	2.875	0.025	n/a	GoodResponse	1	n/a	n/a	6	37	Cue	Win	True
355.176	4.0	Win2	0.6579	0.0	Yes	2.875	0.001	n/a	GoodResponse	1	n/a	n/a	6	37	Fixation	Win	True
359.171	0.3	Win2	0.6579	0.004	Yes	2.875	-0.004	3.0	GoodResponse	1	0.231	358.402	6	37	Target	Win	True
359.402	0.3	Win2	0.6579	0.004	Yes	2.875	-0.004	3.0	GoodResponse	1	0.231	n/a	6	37	ButtonPress	Win	True
359.472	0.4	Win2	0.6579	n/a	Yes	2.875	n/a	n/a	GoodResponse	1	n/a	n/a	6	37	Blank	Win	True
359.874	1.45	Win2	0.6579	n/a	Yes	2.875	n/a	5.0	GoodResponse	1	0.059	358.933	6	37	Feedback	Win	True
361.328	2.875	Win2	0.6579	n/a	Yes	2.875	n/a	n/a	GoodResponse	1	0.0	n/a	6	37	ISIslide	Win	True
364.22	0.25	Lose2	0.6667000000000001	0.0	Yes	2.83	0.02	n/a	GoodResponse	0	n/a	n/a	6	38	Cue	AvoidedLoss	True
364.471	3.95	Lose2	0.6667000000000001	0.0	Yes	2.83	0.001	n/a	GoodResponse	0	n/a	n/a	6	38	Fixation	AvoidedLoss	True
368.416	0.3	Lose2	0.6667000000000001	0.004	Yes	2.83	-0.004	3.0	GoodResponse	0	0.193	367.609	6	38	Target	AvoidedLoss	True
368.609	0.3	Lose2	0.6667000000000001	0.004	Yes	2.83	-0.004	3.0	GoodResponse	0	0.193	n/a	6	38	ButtonPress	AvoidedLoss	True
368.717	0.4	Lose2	0.6667000000000001	n/a	Yes	2.83	n/a	n/a	GoodResponse	0	n/a	n/a	6	38	Blank	AvoidedLoss	True
369.118	1.45	Lose2	0.6667000000000001	n/a	Yes	2.83	n/a	5.0	GoodResponse	0	0.007	368.125	6	38	Feedback	AvoidedLoss	True
370.572	2.83	Lose2	0.6667000000000001	n/a	Yes	2.83	n/a	n/a	GoodResponse	0	0.0	n/a	6	38	ISIslide	AvoidedLoss	True
373.431	0.25	Win2	0.675	0.0	Yes	2.969	0.031	n/a	GoodResponse	1	n/a	n/a	7	39	Cue	Win	True
373.681	4.1	Win2	0.675	0.001	Yes	2.969	0.0	n/a	GoodResponse	1	n/a	n/a	7	39	Fixation	Win	True
377.777	0.29	Win2	0.675	0.004	Yes	2.969	-0.004	3.0	GoodResponse	1	0.22	376.997	7	39	Target	Win	True
377.997	0.3	Win2	0.675	0.004	Yes	2.969	-0.004	3.0	GoodResponse	1	0.22	n/a	7	39	ButtonPress	Win	True
378.078	0.41	Win2	0.675	n/a	Yes	2.969	n/a	n/a	GoodResponse	1	n/a	n/a	7	39	Blank	Win	True
378.479	1.45	Win2	0.675	n/a	Yes	2.969	n/a	5.0	GoodResponse	1	0.017	377.496	7	39	Feedback	Win	True
379.934	2.969	Win2	0.675	n/a	Yes	2.969	n/a	n/a	GoodResponse	1	0.0	n/a	7	39	ISIslide	Win	True
382.926	0.25	Win2	0.6829000000000001	0.0	Yes	2.724	0.026	n/a	GoodResponse	1	n/a	n/a	8	40	Cue	Win	True
383.177	3.95	Win2	0.6829000000000001	0.0	Yes	2.724	0.001	n/a	GoodResponse	1	n/a	n/a	8	40	Fixation	Win	True
387.122	0.28	Win2	0.6829000000000001	0.004	Yes	2.724	-0.004	3.0	GoodResponse	1	0.21	386.332	8	40	Target	Win	True
387.332	0.3	Win2	0.6829000000000001	0.004	Yes	2.724	-0.004	3.0	GoodResponse	1	0.21	n/a	8	40	ButtonPress	Win	True
387.406	0.42	Win2	0.6829000000000001	n/a	Yes	2.724	n/a	n/a	GoodResponse	1	n/a	n/a	8	40	Blank	Win	True
387.824	1.45	Win2	0.6829000000000001	n/a	Yes	2.724	n/a	5.0	GoodResponse	1	0.046	386.87	8	40	Feedback	Win	True
389.278	2.724	Win2	0.6829000000000001	n/a	Yes	2.724	n/a	n/a	GoodResponse	1	0.0	n/a	8	40	ISIslide	Win	True
392.02	0.25	Win2	0.6905	0.0	Yes	2.78	0.02	n/a	GoodResponse	1	n/a	n/a	9	41	Cue	Win	True
392.27	3.9	Win2	0.6905	0.0	Yes	2.78	0.0	n/a	GoodResponse	1	n/a	n/a	9	41	Fixation	Win	True
396.182	0.27	Win2	0.6905	0.0	Yes	2.78	0.012	3.0	GoodResponse	1	0.216	395.398	9	41	Target	Win	True
396.398	0.3	Win2	0.6905	0.0	Yes	2.78	0.012	3.0	GoodResponse	1	0.216	n/a	9	41	ButtonPress	Win	True
396.45	0.43	Win2	0.6905	n/a	Yes	2.78	n/a	n/a	GoodResponse	1	n/a	n/a	9	41	Blank	Win	True
396.867	1.45	Win2	0.6905	n/a	Yes	2.78	n/a	5.0	GoodResponse	1	0.003	395.87	9	41	Feedback	Win	True
398.322	2.78	Win2	0.6905	n/a	Yes	2.78	n/a	n/a	GoodResponse	1	0.0	n/a	9	41	ISIslide	Win	True
401.13	0.25	Control	0.6977	0.0	Yes	2.92	0.03	n/a	GoodResponse	0	n/a	n/a	9	42	Cue	Neutral	True
401.381	3.85	Control	0.6977	0.0	Yes	2.92	0.001	n/a	GoodResponse	0	n/a	n/a	9	42	Fixation	Neutral	True
405.226	0.26	Control	0.6977	0.004	Yes	2.92	-0.004	3.0	GoodResponse	0	0.249	404.475	9	42	Target	Neutral	True
405.475	0.3	Control	0.6977	0.004	Yes	2.92	-0.004	3.0	GoodResponse	0	0.249	n/a	9	42	ButtonPress	Neutral	True
405.493	0.44	Control	0.6977	n/a	Yes	2.92	n/a	n/a	GoodResponse	0	n/a	n/a	9	42	Blank	Neutral	True
405.928	1.45	Control	0.6977	n/a	Yes	2.92	n/a	5.0	GoodResponse	0	0.007	404.935	9	42	Feedback	Neutral	True
407.382	2.92	Control	0.6977	n/a	Yes	2.92	n/a	n/a	GoodResponse	0	0.0	n/a	9	42	ISIslide	Neutral	True
410.324	0.25	Win2	0.7045	0.0	Yes	3.176	0.024	n/a	GoodResponse	1	n/a	n/a	10	43	Cue	Win	True
410.575	4.0	Win2	0.7045	0.0	Yes	3.176	0.001	n/a	GoodResponse	1	n/a	n/a	10	43	Fixation	Win	True
414.57	0.25	Win2	0.7045	0.004	Yes	3.176	-0.004	3.0	GoodResponse	1	0.196	413.766	10	43	Target	Win	True
414.766	0.3	Win2	0.7045	0.004	Yes	3.176	-0.004	3.0	GoodResponse	1	0.196	n/a	10	43	ButtonPress	Win	True
414.821	0.45	Win2	0.7045	n/a	Yes	3.176	n/a	n/a	GoodResponse	1	n/a	n/a	10	43	Blank	Win	True
415.272	1.45	Win2	0.7045	n/a	Yes	3.176	n/a	5.0	GoodResponse	1	0.036	414.308	10	43	Feedback	Win	True
416.727	3.176	Win2	0.7045	n/a	Yes	3.176	n/a	n/a	GoodResponse	1	0.0	n/a	10	43	ISIslide	Win	True
419.92	0.25	Win2	0.7111	0.0	Yes	2.98	0.02	n/a	GoodResponse	1	n/a	n/a	11	44	Cue	Win	True
420.17	4.0	Win2	0.7111	0.001	Yes	2.98	0.0	n/a	GoodResponse	1	n/a	n/a	11	44	Fixation	Win	True
424.166	0.24	Win2	0.7111	0.004	Yes	2.98	-0.004	3.0	GoodResponse	1	0.235	423.401	11	44	Target	Win	True
424.401	0.3	Win2	0.7111	0.004	Yes	2.98	-0.004	3.0	GoodResponse	1	0.235	n/a	11	44	ButtonPress	Win	True
424.416	0.46	Win2	0.7111	n/a	Yes	2.98	n/a	n/a	GoodResponse	1	n/a	n/a	11	44	Blank	Win	True
424.868	1.45	Win2	0.7111	n/a	Yes	2.98	n/a	5.0	GoodResponse	1	0.001	423.869	11	44	Feedback	Win	True
426.322	2.98	Win2	0.7111	n/a	Yes	2.98	n/a	n/a	GoodResponse	1	0.0	n/a	11	44	ISIslide	Win	True
429.314	0.25	Control	0.6957	0.001	No	2.886	0.014	n/a	NoResponse	0	n/a	n/a	11	45	Cue	Neutral	True
429.565	4.1	Control	0.6957	0.0	No	2.886	0.001	n/a	NoResponse	0	n/a	n/a	11	45	Fixation	Neutral	True
433.661	0.23	Control	0.6957	0.003	No	2.886	-0.003	3.0	NoResponse	0	0.245	432.906	11	45	Target	Neutral	True
433.895	0.47	Control	0.6957	n/a	No	2.886	n/a	n/a	NoResponse	0	n/a	n/a	11	45	Blank	Neutral	True
433.906	0.3	Control	0.6957	0.003	No	2.886	-0.003	3.0	NoResponse	0	0.245	n/a	11	45	ButtonPress	Neutral	True
434.363	1.45	Control	0.6957	n/a	No	2.886	n/a	5.0	NoResponse	0	0.006	433.369	11	45	Feedback	Neutral	True
435.817	2.886	Control	0.6957	n/a	No	2.886	n/a	n/a	NoResponse	0	0.0	n/a	11	45	ISIslide	Neutral	True
438.726	0.25	Lose2	0.7021	0.0	Yes	3.374	0.026	n/a	GoodResponse	0	n/a	n/a	11	46	Cue	AvoidedLoss	True
438.977	4.0	Lose2	0.7021	0.0	Yes	3.374	0.001	n/a	GoodResponse	0	n/a	n/a	11	46	Fixation	AvoidedLoss	True
442.972	0.22	Lose2	0.7021	0.004	Yes	3.374	-0.004	3.0	GoodResponse	0	0.212	442.184	11	46	Target	AvoidedLoss	True
443.184	0.3	Lose2	0.7021	0.004	Yes	3.374	-0.004	3.0	GoodResponse	0	0.212	n/a	11	46	ButtonPress	AvoidedLoss	True
443.206	0.48	Lose2	0.7021	n/a	Yes	3.374	n/a	n/a	GoodResponse	0	n/a	n/a	11	46	Blank	AvoidedLoss	True
443.674	1.45	Lose2	0.7021	n/a	Yes	3.374	n/a	5.0	GoodResponse	0	0.008	442.682	11	46	Feedback	AvoidedLoss	True
445.128	3.374	Lose2	0.7021	n/a	Yes	3.374	n/a	n/a	GoodResponse	0	0.0	n/a	11	46	ISIslide	AvoidedLoss	True
448.522	0.25	Lose2	0.6875	0.0	No	2.678	0.022	n/a	LatePress	-1	n/a	n/a	10	47	Cue	Loss	True
448.773	4.0	Lose2	0.6875	0.0	No	2.678	0.001	n/a	LatePress	-1	n/a	n/a	10	47	Fixation	Loss	True
452.768	0.21	Lose2	0.6875	0.004	No	2.678	-0.004	3.0	LatePress	-1	0.21	451.978	10	47	Target	Loss	True
452.978	0.3	Lose2	0.6875	0.004	No	2.678	-0.004	3.0	LatePress	-1	0.21	n/a	10	47	ButtonPress	Loss	True
452.985	0.49	Lose2	0.6875	n/a	No	2.678	n/a	n/a	LatePress	-1	n/a	n/a	10	47	Blank	Loss	True
453.47	1.45	Lose2	0.6875	n/a	No	2.678	n/a	5.0	LatePress	-1	0.025	452.495	10	47	Feedback	Loss	True
454.924	2.678	Lose2	0.6875	n/a	No	2.678	n/a	n/a	LatePress	-1	0.0	n/a	10	47	ISIslide	Loss	True
457.616	0.25	Lose2	0.6735	0.0	No	3.034	0.016	n/a	NoResponse	-1	n/a	n/a	9	48	Cue	Loss	True
457.867	3.95	Lose2	0.6735	0.0	No	3.034	0.001	n/a	NoResponse	-1	n/a	n/a	9	48	Fixation	Loss	True
461.812	0.2	Lose2	0.6735	0.004	No	3.034	-0.004	3.0	NoResponse	-1	0.243	461.055	9	48	Target	Loss	True
462.012	0.5	Lose2	0.6735	n/a	No	3.034	n/a	n/a	NoResponse	-1	n/a	n/a	9	48	Blank	Loss	True
462.055	0.3	Lose2	0.6735	0.004	No	3.034	-0.004	3.0	NoResponse	-1	0.243	n/a	9	48	ButtonPress	Loss	True
462.514	1.45	Lose2	0.6735	n/a	No	3.034	n/a	5.0	NoResponse	-1	0.043	461.557	9	48	Feedback	Loss	True
463.968	3.034	Lose2	0.6735	n/a	No	3.034	n/a	n/a	NoResponse	-1	0.0	n/a	9	48	ISIslide	Loss	True
467.027	0.25	Control	0.66	0.0	No	2.873	0.027	n/a	NoResponse	0	n/a	n/a	9	49	Cue	Neutral	True
467.278	4.0	Control	0.66	0.0	No	2.873	0.001	n/a	NoResponse	0	n/a	n/a	9	49	Fixation	Neutral	True
471.273	0.19	Control	0.66	0.004	No	2.873	-0.004	3.0	NoResponse	0	0.206	470.479	9	49	Target	Neutral	True
471.474	0.51	Control	0.66	n/a	No	2.873	n/a	n/a	NoResponse	0	n/a	n/a	9	49	Blank	Neutral	True
471.479	0.3	Control	0.66	0.004	No	2.873	-0.004	3.0	NoResponse	0	0.206	n/a	9	49	ButtonPress	Neutral	True
471.975	1.45	Control	0.66	n/a	No	2.873	n/a	5.0	NoResponse	0	0.019	470.994	9	49	Feedback	Neutral	True
473.43	2.873	Control	0.66	n/a	No	2.873	n/a	n/a	NoResponse	0	0.0	n/a	9	49	ISIslide	Neutral	True
476.322	0.25	Control	0.6470999999999999	0.0	No	2.778	0.022	n/a	NoResponse	0	n/a	n/a	9	50	Cue	Neutral	True
476.572	4.0	Control	0.6470999999999999	0.001	No	2.778	0.0	n/a	NoResponse	0	n/a	n/a	9	50	Fixation	Neutral	True
480.568	0.19	Control	0.6470999999999999	0.004	No	2.778	-0.004	3.0	NoResponse	0	0.275	479.843	9	50	Target	Neutral	True
480.768	0.51	Control	0.6470999999999999	n/a	No	2.778	n/a	n/a	NoResponse	0	n/a	n/a	9	50	Blank	Neutral	True
480.843	0.3	Control	0.6470999999999999	0.004	No	2.778	-0.004	3.0	NoResponse	0	0.275	n/a	9	50	ButtonPress	Neutral	True
481.27	1.45	Control	0.6470999999999999	n/a	No	2.778	n/a	5.0	NoResponse	0	0.036	480.306	9	50	Feedback	Neutral	True
482.724	2.778	Control	0.6470999999999999	n/a	No	2.778	n/a	n/a	NoResponse	0	0.0	n/a	9	50	ISIslide	Neutral	True
485.516	0.25	Control	0.6537999999999999	0.0	Yes	2.734	0.016	n/a	GoodResponse	0	n/a	n/a	9	51	Cue	Neutral	True
485.767	3.95	Control	0.6537999999999999	0.0	Yes	2.734	0.001	n/a	GoodResponse	0	n/a	n/a	9	51	Fixation	Neutral	True
489.712	0.2	Control	0.6537999999999999	0.004	Yes	2.734	-0.004	3.0	GoodResponse	0	0.196	488.908	9	51	Target	Neutral	True
489.908	0.3	Control	0.6537999999999999	0.004	Yes	2.734	-0.004	3.0	GoodResponse	0	0.196	n/a	9	51	ButtonPress	Neutral	True
489.912	0.5	Control	0.6537999999999999	n/a	Yes	2.734	n/a	n/a	GoodResponse	0	n/a	n/a	9	51	Blank	Neutral	True
490.414	1.45	Control	0.6537999999999999	n/a	Yes	2.734	n/a	5.0	GoodResponse	0	0.018	489.432	9	51	Feedback	Neutral	True
491.868	2.734	Control	0.6537999999999999	n/a	Yes	2.734	n/a	n/a	GoodResponse	0	0.0	n/a	9	51	ISIslide	Neutral	True
494.626	0.25	Control	0.6415000000000001	0.001	No	2.624	0.026	n/a	NoResponse	0	n/a	n/a	9	52	Cue	Neutral	True
494.877	4.05	Control	0.6415000000000001	0.0	No	2.624	0.001	n/a	NoResponse	0	n/a	n/a	9	52	Fixation	Neutral	True
498.923	0.21	Control	0.6415000000000001	0.003	No	2.624	-0.003	3.0	NoResponse	0	0.322	498.245	9	52	Target	Neutral	True
499.14	0.49	Control	0.6415000000000001	n/a	No	2.624	n/a	n/a	NoResponse	0	n/a	n/a	9	52	Blank	Neutral	True
499.245	0.3	Control	0.6415000000000001	0.003	No	2.624	-0.003	3.0	NoResponse	0	0.322	n/a	9	52	ButtonPress	Neutral	True
499.625	1.45	Control	0.6415000000000001	n/a	No	2.624	n/a	5.0	NoResponse	0	0.057	498.682	9	52	Feedback	Neutral	True
501.079	2.624	Control	0.6415000000000001	n/a	No	2.624	n/a	n/a	NoResponse	0	0.0	n/a	9	52	ISIslide	Neutral	True
503.72	0.25	Win2	0.6481	0.0	Yes	2.93	0.02	n/a	GoodResponse	1	n/a	n/a	10	53	Cue	Win	True
503.971	4.05	Win2	0.6481	0.0	Yes	2.93	0.001	n/a	GoodResponse	1	n/a	n/a	10	53	Fixation	Win	True
508.016	0.22	Win2	0.6481	0.004	Yes	2.93	-0.004	3.0	GoodResponse	1	0.204	507.22	10	53	Target	Win	True
508.22	0.3	Win2	0.6481	0.004	Yes	2.93	-0.004	3.0	GoodResponse	1	0.204	n/a	10	53	ButtonPress	Win	True
508.25	0.48	Win2	0.6481	n/a	Yes	2.93	n/a	n/a	GoodResponse	1	n/a	n/a	10	53	Blank	Win	True
508.719	1.45	Win2	0.6481	n/a	Yes	2.93	n/a	5.0	GoodResponse	1	0.025	507.744	10	53	Feedback	Win	True
510.173	2.93	Win2	0.6481	n/a	Yes	2.93	n/a	n/a	GoodResponse	1	0.0	n/a	10	53	ISIslide	Win	True
513.115	0.25	Win2	0.6545000000000001	0.0	Yes	2.735	0.015	n/a	GoodResponse	1	n/a	n/a	11	54	Cue	Win	True
513.366	3.95	Win2	0.6545000000000001	0.0	Yes	2.735	0.001	n/a	GoodResponse	1	n/a	n/a	11	54	Fixation	Win	True
517.311	0.23	Win2	0.6545000000000001	0.004	Yes	2.735	-0.004	3.0	GoodResponse	1	0.202	516.513	11	54	Target	Win	True
517.513	0.3	Win2	0.6545000000000001	0.004	Yes	2.735	-0.004	3.0	GoodResponse	1	0.202	n/a	11	54	ButtonPress	Win	True
517.545	0.47	Win2	0.6545000000000001	n/a	Yes	2.735	n/a	n/a	GoodResponse	1	n/a	n/a	11	54	Blank	Win	True
518.013	1.45	Win2	0.6545000000000001	n/a	Yes	2.735	n/a	5.0	GoodResponse	1	0.043	517.056	11	54	Feedback	Win	True
519.467	2.735	Win2	0.6545000000000001	n/a	Yes	2.735	n/a	n/a	GoodResponse	1	0.0	n/a	11	54	ISIslide	Win	True
522.226	0.25	Control	0.6429	0.0	No	3.024	0.026	n/a	NoResponse	0	n/a	n/a	11	55	Cue	Neutral	True
522.476	3.95	Control	0.6429	0.0	No	3.024	0.0	n/a	NoResponse	0	n/a	n/a	11	55	Fixation	Neutral	True
526.438	0.24	Control	0.6429	0.0	No	3.024	0.012	3.0	NoResponse	0	0.331	525.769	11	55	Target	Neutral	True
526.672	0.46	Control	0.6429	n/a	No	3.024	n/a	n/a	NoResponse	0	n/a	n/a	11	55	Blank	Neutral	True
526.769	0.3	Control	0.6429	0.0	No	3.024	0.012	3.0	NoResponse	0	0.331	n/a	11	55	ButtonPress	Neutral	True
527.124	1.45	Control	0.6429	n/a	No	3.024	n/a	5.0	NoResponse	0	0.057	526.181	11	55	Feedback	Neutral	True
528.578	3.024	Control	0.6429	n/a	No	3.024	n/a	n/a	NoResponse	0	0.0	n/a	11	55	ISIslide	Neutral	True
531.62	0.25	Control	0.6315999999999999	0.0	No	2.83	0.02	n/a	NoResponse	0	n/a	n/a	11	56	Cue	Neutral	True
531.871	3.95	Control	0.6315999999999999	0.0	No	2.83	0.001	n/a	NoResponse	0	n/a	n/a	11	56	Fixation	Neutral	True
535.816	0.25	Control	0.6315999999999999	0.004	No	2.83	-0.004	3.0	NoResponse	0	0.305	535.121	11	56	Target	Neutral	True
536.067	0.45	Control	0.6315999999999999	n/a	No	2.83	n/a	n/a	NoResponse	0	n/a	n/a	11	56	Blank	Neutral	True
536.121	0.3	Control	0.6315999999999999	0.004	No	2.83	-0.004	3.0	NoResponse	0	0.305	n/a	11	56	ButtonPress	Neutral	True
536.518	1.45	Control	0.6315999999999999	n/a	No	2.83	n/a	5.0	NoResponse	0	0.038	535.556	11	56	Feedback	Neutral	True
537.973	2.83	Control	0.6315999999999999	n/a	No	2.83	n/a	n/a	NoResponse	0	0.0	n/a	11	56	ISIslide	Neutral	True
540.815	0.25	Control	0.6379	0.0	Yes	3.485	0.015	n/a	GoodResponse	0	n/a	n/a	11	57	Cue	Neutral	True
541.065	4.0	Control	0.6379	0.0	Yes	3.485	0.0	n/a	GoodResponse	0	n/a	n/a	11	57	Fixation	Neutral	True
545.061	0.26	Control	0.6379	0.004	Yes	3.485	-0.004	3.0	GoodResponse	0	0.244	544.305	11	57	Target	Neutral	True
545.305	0.3	Control	0.6379	0.004	Yes	3.485	-0.004	3.0	GoodResponse	0	0.244	n/a	11	57	ButtonPress	Neutral	True
545.328	0.44	Control	0.6379	n/a	Yes	3.485	n/a	n/a	GoodResponse	0	n/a	n/a	11	57	Blank	Neutral	True
545.763	1.45	Control	0.6379	n/a	Yes	3.485	n/a	5.0	GoodResponse	0	0.043	544.806	11	57	Feedback	Neutral	True
547.217	3.485	Control	0.6379	n/a	Yes	3.485	n/a	n/a	GoodResponse	0	0.0	n/a	11	57	ISIslide	Neutral	True
550.727	0.25	Win2	0.6441	0.001	Yes	2.723	0.027	n/a	GoodResponse	1	n/a	n/a	12	58	Cue	Win	True
550.978	4.05	Win2	0.6441	0.0	Yes	2.723	0.001	n/a	GoodResponse	1	n/a	n/a	12	58	Fixation	Win	True
555.024	0.27	Win2	0.6441	0.003	Yes	2.723	-0.003	3.0	GoodResponse	1	0.21	554.234	12	58	Target	Win	True
555.234	0.3	Win2	0.6441	0.003	Yes	2.723	-0.003	3.0	GoodResponse	1	0.21	n/a	12	58	ButtonPress	Win	True
555.308	0.43	Win2	0.6441	n/a	Yes	2.723	n/a	n/a	GoodResponse	1	n/a	n/a	12	58	Blank	Win	True
555.726	1.45	Win2	0.6441	n/a	Yes	2.723	n/a	5.0	GoodResponse	1	0.017	554.743	12	58	Feedback	Win	True
557.18	2.723	Win2	0.6441	n/a	Yes	2.723	n/a	n/a	GoodResponse	1	0.0	n/a	12	58	ISIslide	Win	True
559.922	0.25	Lose2	0.65	0.0	Yes	2.678	0.022	n/a	GoodResponse	0	n/a	n/a	12	59	Cue	AvoidedLoss	True
560.172	4.0	Lose2	0.65	0.0	Yes	2.678	0.0	n/a	GoodResponse	0	n/a	n/a	12	59	Fixation	AvoidedLoss	True
564.168	0.28	Lose2	0.65	0.004	Yes	2.678	-0.004	3.0	GoodResponse	0	0.161	563.329	12	59	Target	AvoidedLoss	True
564.329	0.3	Lose2	0.65	0.004	Yes	2.678	-0.004	3.0	GoodResponse	0	0.161	n/a	12	59	ButtonPress	AvoidedLoss	True
564.452	0.42	Lose2	0.65	n/a	Yes	2.678	n/a	n/a	GoodResponse	0	n/a	n/a	12	59	Blank	AvoidedLoss	True
564.87	1.45	Lose2	0.65	n/a	Yes	2.678	n/a	5.0	GoodResponse	0	0.06	563.93	12	59	Feedback	AvoidedLoss	True
566.324	2.678	Lose2	0.65	n/a	Yes	2.678	n/a	n/a	GoodResponse	0	0.0	n/a	12	59	ISIslide	AvoidedLoss	True
569.016	0.25	Control	0.6557	0.0	Yes	2.684	0.016	n/a	GoodResponse	0	n/a	n/a	12	60	Cue	Neutral	True
569.266	4.0	Control	0.6557	0.0	Yes	2.684	0.0	n/a	GoodResponse	0	n/a	n/a	12	60	Fixation	Neutral	True
573.262	0.29	Control	0.6557	0.004	Yes	2.684	-0.004	3.0	GoodResponse	0	0.22	572.482	12	60	Target	Neutral	True
573.482	0.3	Control	0.6557	0.004	Yes	2.684	-0.004	3.0	GoodResponse	0	0.22	n/a	12	60	ButtonPress	Neutral	True
573.562	0.41	Control	0.6557	n/a	Yes	2.684	n/a	n/a	GoodResponse	0	n/a	n/a	12	60	Blank	Neutral	True
573.964	1.45	Control	0.6557	n/a	Yes	2.684	n/a	5.0	GoodResponse	0	0.029	572.993	12	60	Feedback	Neutral	True
575.418	2.684	Control	0.6557	n/a	Yes	2.684	n/a	n/a	GoodResponse	0	0.0	n/a	12	60	ISIslide	Neutral	True
578.126	0.25	Lose2	0.6613	0.0	Yes	2.974	0.026	n/a	GoodResponse	0	n/a	n/a	12	61	Cue	AvoidedLoss	True
578.377	4.0	Lose2	0.6613	0.0	Yes	2.974	0.001	n/a	GoodResponse	0	n/a	n/a	12	61	Fixation	AvoidedLoss	True
582.372	0.29	Lose2	0.6613	0.004	Yes	2.974	-0.004	3.0	GoodResponse	0	0.26	581.632	12	61	Target	AvoidedLoss	True
582.632	0.3	Lose2	0.6613	0.004	Yes	2.974	-0.004	3.0	GoodResponse	0	0.26	n/a	12	61	ButtonPress	AvoidedLoss	True
582.673	0.41	Lose2	0.6613	n/a	Yes	2.974	n/a	n/a	GoodResponse	0	n/a	n/a	12	61	Blank	AvoidedLoss	True
583.074	1.45	Lose2	0.6613	n/a	Yes	2.974	n/a	5.0	GoodResponse	0	0.044	582.118	12	61	Feedback	AvoidedLoss	True
584.529	2.974	Lose2	0.6613	n/a	Yes	2.974	n/a	n/a	GoodResponse	0	0.0	n/a	12	61	ISIslide	AvoidedLoss	True
587.521	0.25	Lose2	0.6667000000000001	0.0	Yes	2.879	0.021	n/a	GoodResponse	0	n/a	n/a	12	62	Cue	AvoidedLoss	True
587.772	3.9	Lose2	0.6667000000000001	0.0	Yes	2.879	0.001	n/a	GoodResponse	0	n/a	n/a	12	62	Fixation	AvoidedLoss	True
591.667	0.29	Lose2	0.6667000000000001	0.004	Yes	2.879	-0.004	3.0	GoodResponse	0	0.263	590.93	12	62	Target	AvoidedLoss	True
591.93	0.3	Lose2	0.6667000000000001	0.004	Yes	2.879	-0.004	3.0	GoodResponse	0	0.263	n/a	12	62	ButtonPress	AvoidedLoss	True
591.967	0.41	Lose2	0.6667000000000001	n/a	Yes	2.879	n/a	n/a	GoodResponse	0	n/a	n/a	12	62	Blank	AvoidedLoss	True
592.369	1.45	Lose2	0.6667000000000001	n/a	Yes	2.879	n/a	5.0	GoodResponse	0	0.062	591.431	12	62	Feedback	AvoidedLoss	True
593.823	2.879	Lose2	0.6667000000000001	n/a	Yes	2.879	n/a	n/a	GoodResponse	0	0.0	n/a	12	62	ISIslide	AvoidedLoss	True
596.715	0.25	Lose2	0.6718999999999999	0.0	Yes	2.635	0.015	n/a	GoodResponse	0	n/a	n/a	12	63	Cue	AvoidedLoss	True
596.966	4.05	Lose2	0.6718999999999999	0.0	Yes	2.635	0.001	n/a	GoodResponse	0	n/a	n/a	12	63	Fixation	AvoidedLoss	True
601.011	0.28	Lose2	0.6718999999999999	0.004	Yes	2.635	-0.004	3.0	GoodResponse	0	0.163	600.174	12	63	Target	AvoidedLoss	True
601.174	0.3	Lose2	0.6718999999999999	0.004	Yes	2.635	-0.004	3.0	GoodResponse	0	0.163	n/a	12	63	ButtonPress	AvoidedLoss	True
601.295	0.42	Lose2	0.6718999999999999	n/a	Yes	2.635	n/a	n/a	GoodResponse	0	n/a	n/a	12	63	Blank	AvoidedLoss	True
601.713	1.45	Lose2	0.6718999999999999	n/a	Yes	2.635	n/a	5.0	GoodResponse	0	0.029	600.742	12	63	Feedback	AvoidedLoss	True
603.168	2.635	Lose2	0.6718999999999999	n/a	Yes	2.635	n/a	n/a	GoodResponse	0	0.0	n/a	12	63	ISIslide	AvoidedLoss	True
605.826	0.25	Win2	0.6769	0.0	Yes	3.124	0.026	n/a	GoodResponse	1	n/a	n/a	13	64	Cue	Win	True
606.076	4.15	Win2	0.6769	0.0	Yes	3.124	0.0	n/a	GoodResponse	1	n/a	n/a	13	64	Fixation	Win	True
610.222	0.27	Win2	0.6769	0.004	Yes	3.124	-0.004	3.0	GoodResponse	1	0.209	609.431	13	64	Target	Win	True
610.431	0.3	Win2	0.6769	0.004	Yes	3.124	-0.004	3.0	GoodResponse	1	0.209	n/a	13	64	ButtonPress	Win	True
610.506	0.43	Win2	0.6769	n/a	Yes	3.124	n/a	n/a	GoodResponse	1	n/a	n/a	13	64	Blank	Win	True
610.924	1.45	Win2	0.6769	n/a	Yes	3.124	n/a	5.0	GoodResponse	1	0.006	609.93	13	64	Feedback	Win	True
612.378	3.124	Win2	0.6769	n/a	Yes	3.124	n/a	n/a	GoodResponse	1	0.0	n/a	13	64	ISIslide	Win	True
615.521	0.25	Control	0.6667000000000001	0.0	No	2.779	0.021	n/a	NoResponse	0	n/a	n/a	13	65	Cue	Neutral	True
615.772	4.0	Control	0.6667000000000001	0.0	No	2.779	0.001	n/a	NoResponse	0	n/a	n/a	13	65	Fixation	Neutral	True
619.767	0.26	Control	0.6667000000000001	0.004	No	2.779	-0.004	3.0	NoResponse	0	0.335	619.102	13	65	Target	Neutral	True
620.035	0.44	Control	0.6667000000000001	n/a	No	2.779	n/a	n/a	NoResponse	0	n/a	n/a	13	65	Blank	Neutral	True
620.102	0.3	Control	0.6667000000000001	0.004	No	2.779	-0.004	3.0	NoResponse	0	0.335	n/a	13	65	ButtonPress	Neutral	True
620.469	1.45	Control	0.6667000000000001	n/a	No	2.779	n/a	5.0	NoResponse	0	0.023	619.492	13	65	Feedback	Neutral	True
621.924	2.779	Control	0.6667000000000001	n/a	No	2.779	n/a	n/a	NoResponse	0	0.0	n/a	13	65	ISIslide	Neutral	True
624.715	0.25	Win2	0.6716	0.0	Yes	2.785	0.015	n/a	GoodResponse	1	n/a	n/a	14	66	Cue	Win	True
624.966	3.9	Win2	0.6716	0.0	Yes	2.785	0.001	n/a	GoodResponse	1	n/a	n/a	14	66	Fixation	Win	True
628.861	0.25	Win2	0.6716	0.004	Yes	2.785	-0.004	3.0	GoodResponse	1	0.2	628.061	14	66	Target	Win	True
629.061	0.3	Win2	0.6716	0.004	Yes	2.785	-0.004	3.0	GoodResponse	1	0.2	n/a	14	66	ButtonPress	Win	True
629.112	0.45	Win2	0.6716	n/a	Yes	2.785	n/a	n/a	GoodResponse	1	n/a	n/a	14	66	Blank	Win	True
629.563	1.45	Win2	0.6716	n/a	Yes	2.785	n/a	5.0	GoodResponse	1	0.055	628.618	14	66	Feedback	Win	True
631.018	2.785	Win2	0.6716	n/a	Yes	2.785	n/a	n/a	GoodResponse	1	0.0	n/a	14	66	ISIslide	Win	True
633.826	0.25	Control	0.6618	0.0	No	2.724	0.026	n/a	NoResponse	0	n/a	n/a	14	67	Cue	Neutral	True
634.077	3.95	Control	0.6618	0.0	No	2.724	0.001	n/a	NoResponse	0	n/a	n/a	14	67	Fixation	Neutral	True
638.022	0.24	Control	0.6618	0.004	No	2.724	-0.004	3.0	NoResponse	0	0.263	637.285	14	67	Target	Neutral	True
638.273	0.46	Control	0.6618	n/a	No	2.724	n/a	n/a	NoResponse	0	n/a	n/a	14	67	Blank	Neutral	True
638.285	0.3	Control	0.6618	0.004	No	2.724	-0.004	3.0	NoResponse	0	0.263	n/a	14	67	ButtonPress	Neutral	True
638.724	1.45	Control	0.6618	n/a	No	2.724	n/a	5.0	NoResponse	0	0.018	637.742	14	67	Feedback	Neutral	True
640.178	2.724	Control	0.6618	n/a	No	2.724	n/a	n/a	NoResponse	0	0.0	n/a	14	67	ISIslide	Neutral	True
642.92	0.25	Win2	0.6522	0.0	No	3.08	0.02	n/a	NoResponse	0	n/a	n/a	14	68	Cue	MissedWin	False
643.171	4.0	Win2	0.6522	0.0	No	3.08	0.001	3.0	NoResponse	0	3.724	645.895	14	68	Fixation	MissedWin	False
646.895	0.3	Win2	0.6522	0.0	No	3.08	0.001	3.0	NoResponse	0	3.724	n/a	14	68	ButtonPress	MissedWin	False
647.166	0.24	Win2	0.6522	0.004	No	3.08	-0.004	3.0	NoResponse	0	0.341	646.507	14	68	Target	MissedWin	False
647.417	0.46	Win2	0.6522	n/a	No	3.08	n/a	n/a	NoResponse	0	n/a	n/a	14	68	Blank	MissedWin	False
647.507	0.3	Win2	0.6522	0.004	No	3.08	-0.004	3.0	NoResponse	0	0.341	n/a	14	68	ButtonPress	MissedWin	False
647.868	1.45	Win2	0.6522	n/a	No	3.08	n/a	5.0	NoResponse	0	0.061	646.929	14	68	Feedback	MissedWin	False
649.322	3.08	Win2	0.6522	n/a	No	3.08	n/a	n/a	NoResponse	0	0.0	n/a	14	68	ISIslide	MissedWin	False
652.415	0.25	Win2	0.6429	0.0	No	3.235	0.015	n/a	NoResponse	0	n/a	n/a	14	69	Cue	MissedWin	True
652.666	3.95	Win2	0.6429	0.0	No	3.235	0.001	n/a	NoResponse	0	n/a	n/a	14	69	Fixation	MissedWin	True
656.611	0.25	Win2	0.6429	0.004	No	3.235	-0.004	3.0	NoResponse	0	0.26	655.871	14	69	Target	MissedWin	True
656.861	0.45	Win2	0.6429	n/a	No	3.235	n/a	n/a	NoResponse	0	n/a	n/a	14	69	Blank	MissedWin	True
656.871	0.3	Win2	0.6429	0.004	No	3.235	-0.004	3.0	NoResponse	0	0.26	n/a	14	69	ButtonPress	MissedWin	True
657.313	1.45	Win2	0.6429	n/a	No	3.235	n/a	5.0	NoResponse	0	0.054	656.367	14	69	Feedback	MissedWin	True
658.767	3.235	Win2	0.6429	n/a	No	3.235	n/a	n/a	NoResponse	0	0.0	n/a	14	69	ISIslide	MissedWin	True
662.027	0.25	Lose2	0.6338	0.0	No	3.023	0.027	n/a	LatePress	-1	n/a	n/a	13	70	Cue	Loss	True
662.278	4.05	Lose2	0.6338	0.0	No	3.023	0.001	n/a	LatePress	-1	n/a	n/a	13	70	Fixation	Loss	True
666.323	0.26	Lose2	0.6338	0.004	No	3.023	-0.004	3.0	LatePress	-1	0.267	665.59	13	70	Target	Loss	True
666.59	0.3	Lose2	0.6338	0.004	No	3.023	-0.004	3.0	LatePress	-1	0.267	n/a	13	70	ButtonPress	Loss	True
666.591	0.44	Lose2	0.6338	n/a	No	3.023	n/a	n/a	LatePress	-1	n/a	n/a	13	70	Blank	Loss	True
667.025	1.45	Lose2	0.6338	n/a	No	3.023	n/a	5.0	LatePress	-1	0.029	666.054	13	70	Feedback	Loss	True
668.48	3.023	Lose2	0.6338	n/a	No	3.023	n/a	n/a	LatePress	-1	0.0	n/a	13	70	ISIslide	Loss	True
671.522	0.25	Win2	0.6389	0.0	Yes	2.728	0.022	n/a	GoodResponse	1	n/a	n/a	14	71	Cue	Win	True
671.773	4.05	Win2	0.6389	0.0	Yes	2.728	0.001	n/a	GoodResponse	1	n/a	n/a	14	71	Fixation	Win	True
675.818	0.27	Win2	0.6389	0.004	Yes	2.728	-0.004	3.0	GoodResponse	1	0.224	675.042	14	71	Target	Win	True
676.042	0.3	Win2	0.6389	0.004	Yes	2.728	-0.004	3.0	GoodResponse	1	0.224	n/a	14	71	ButtonPress	Win	True
676.102	0.43	Win2	0.6389	n/a	Yes	2.728	n/a	n/a	GoodResponse	1	n/a	n/a	14	71	Blank	Win	True
676.52	1.45	Win2	0.6389	n/a	Yes	2.728	n/a	5.0	GoodResponse	1	0.035	675.555	14	71	Feedback	Win	True
677.975	2.728	Win2	0.6389	n/a	Yes	2.728	n/a	n/a	GoodResponse	1	0.0	n/a	14	71	ISIslide	Win	True
680.716	0.25	Win2	0.6437999999999999	0.0	Yes	2.784	0.016	n/a	GoodResponse	1	n/a	n/a	15	72	Cue	Win	True
680.967	4.1	Win2	0.6437999999999999	0.0	Yes	2.784	0.001	n/a	GoodResponse	1	n/a	n/a	15	72	Fixation	Win	True
685.062	0.28	Win2	0.6437999999999999	0.004	Yes	2.784	-0.004	3.0	GoodResponse	1	0.207	684.269	15	72	Target	Win	True
685.269	0.3	Win2	0.6437999999999999	0.004	Yes	2.784	-0.004	3.0	GoodResponse	1	0.207	n/a	15	72	ButtonPress	Win	True
685.347	0.42	Win2	0.6437999999999999	n/a	Yes	2.784	n/a	n/a	GoodResponse	1	n/a	n/a	15	72	Blank	Win	True
685.765	1.45	Win2	0.6437999999999999	n/a	Yes	2.784	n/a	5.0	GoodResponse	1	0.039	684.804	15	72	Feedback	Win	True
687.219	2.784	Win2	0.6437999999999999	n/a	Yes	2.784	n/a	n/a	GoodResponse	1	0.0	n/a	15	72	ISIslide	Win	True
690.027	0.25	Win2	0.6486	0.0	Yes	2.673	0.027	n/a	GoodResponse	1	n/a	n/a	16	73	Cue	Win	True
690.278	4.0	Win2	0.6486	0.0	Yes	2.673	0.001	n/a	GoodResponse	1	n/a	n/a	16	73	Fixation	Win	True
694.273	0.29	Win2	0.6486	0.004	Yes	2.673	-0.004	3.0	GoodResponse	1	0.232	693.505	16	73	Target	Win	True
694.505	0.3	Win2	0.6486	0.004	Yes	2.673	-0.004	3.0	GoodResponse	1	0.232	n/a	16	73	ButtonPress	Win	True
694.574	0.41	Win2	0.6486	n/a	Yes	2.673	n/a	n/a	GoodResponse	1	n/a	n/a	16	73	Blank	Win	True
694.975	1.45	Win2	0.6486	n/a	Yes	2.673	n/a	5.0	GoodResponse	1	0.016	693.991	16	73	Feedback	Win	True
696.43	2.673	Win2	0.6486	n/a	Yes	2.673	n/a	n/a	GoodResponse	1	0.0	n/a	16	73	ISIslide	Win	True
699.121	0.25	Lose2	0.6533	0.0	Yes	2.629	0.021	n/a	GoodResponse	0	n/a	n/a	16	74	Cue	AvoidedLoss	True
699.372	4.05	Lose2	0.6533	0.0	Yes	2.629	0.001	n/a	GoodResponse	0	n/a	n/a	16	74	Fixation	AvoidedLoss	True
703.417	0.3	Lose2	0.6533	0.004	Yes	2.629	-0.004	3.0	GoodResponse	0	0.219	702.636	16	74	Target	AvoidedLoss	True
703.636	0.3	Lose2	0.6533	0.004	Yes	2.629	-0.004	3.0	GoodResponse	0	0.219	n/a	16	74	ButtonPress	AvoidedLoss	True
703.718	0.4	Lose2	0.6533	n/a	Yes	2.629	n/a	n/a	GoodResponse	0	n/a	n/a	16	74	Blank	AvoidedLoss	True
704.119	1.45	Lose2	0.6533	n/a	Yes	2.629	n/a	5.0	GoodResponse	0	0.06	703.179	16	74	Feedback	AvoidedLoss	True
705.574	2.629	Lose2	0.6533	n/a	Yes	2.629	n/a	n/a	GoodResponse	0	0.0	n/a	16	74	ISIslide	AvoidedLoss	True
708.215	0.25	Lose2	0.6579	0.0	Yes	2.935	0.015	n/a	GoodResponse	0	n/a	n/a	16	75	Cue	AvoidedLoss	True
708.466	3.95	Lose2	0.6579	0.0	Yes	2.935	0.001	n/a	GoodResponse	0	n/a	n/a	16	75	Fixation	AvoidedLoss	True
712.411	0.31	Lose2	0.6579	0.004	Yes	2.935	-0.004	3.0	GoodResponse	0	0.226	711.637	16	75	Target	AvoidedLoss	True
712.637	0.3	Lose2	0.6579	0.004	Yes	2.935	-0.004	3.0	GoodResponse	0	0.226	n/a	16	75	ButtonPress	AvoidedLoss	True
712.729	0.39	Lose2	0.6579	n/a	Yes	2.935	n/a	n/a	GoodResponse	0	n/a	n/a	16	75	Blank	AvoidedLoss	True
713.113	1.45	Lose2	0.6579	n/a	Yes	2.935	n/a	5.0	GoodResponse	0	0.004	712.117	16	75	Feedback	AvoidedLoss	True
714.567	2.935	Lose2	0.6579	n/a	Yes	2.935	n/a	n/a	GoodResponse	0	0.0	n/a	16	75	ISIslide	AvoidedLoss	True
717.526	0.25	Control	0.6623	0.0	Yes	3.224	0.026	n/a	GoodResponse	0	n/a	n/a	16	76	Cue	Neutral	True
717.777	4.05	Control	0.6623	0.0	Yes	3.224	0.001	n/a	GoodResponse	0	n/a	n/a	16	76	Fixation	Neutral	True
721.822	0.31	Control	0.6623	0.004	Yes	3.224	-0.004	3.0	GoodResponse	0	0.209	721.031	16	76	Target	Neutral	True
722.031	0.3	Control	0.6623	0.004	Yes	3.224	-0.004	3.0	GoodResponse	0	0.209	n/a	16	76	ButtonPress	Neutral	True
722.14	0.39	Control	0.6623	n/a	Yes	3.224	n/a	n/a	GoodResponse	0	n/a	n/a	16	76	Blank	Neutral	True
722.524	1.45	Control	0.6623	n/a	Yes	3.224	n/a	5.0	GoodResponse	0	0.03	721.554	16	76	Feedback	Neutral	True
723.979	3.224	Control	0.6623	n/a	Yes	3.224	n/a	n/a	GoodResponse	0	0.0	n/a	16	76	ISIslide	Neutral	True
727.222	0.25	Lose2	0.6667000000000001	0.0	Yes	2.578	0.022	n/a	GoodResponse	0	n/a	n/a	16	77	Cue	AvoidedLoss	True
727.473	3.95	Lose2	0.6667000000000001	0.0	Yes	2.578	0.001	n/a	GoodResponse	0	n/a	n/a	16	77	Fixation	AvoidedLoss	True
731.418	0.31	Lose2	0.6667000000000001	0.004	Yes	2.578	-0.004	3.0	GoodResponse	0	0.236	730.654	16	77	Target	AvoidedLoss	True
731.654	0.3	Lose2	0.6667000000000001	0.004	Yes	2.578	-0.004	3.0	GoodResponse	0	0.236	n/a	16	77	ButtonPress	AvoidedLoss	True
731.735	0.39	Lose2	0.6667000000000001	n/a	Yes	2.578	n/a	n/a	GoodResponse	0	n/a	n/a	16	77	Blank	AvoidedLoss	True
732.12	1.45	Lose2	0.6667000000000001	n/a	Yes	2.578	n/a	5.0	GoodResponse	0	0.058	731.178	16	77	Feedback	AvoidedLoss	True
733.574	2.578	Lose2	0.6667000000000001	n/a	Yes	2.578	n/a	n/a	GoodResponse	0	0.0	n/a	16	77	ISIslide	AvoidedLoss	True
