onset	duration	cue_type	current_mean_accuracy	duration_error	is_hit	isi_adjusted	onset_delay	response	response_type	reward	rt	rt_time	total_reward	trial_number	trial_phase	trial_type	one_press
11.106	0.25	Control	1.0	0.0	Yes	2.944	0.006	n/a	GoodResponse	0	n/a	n/a	0	0	Cue	Neutral	True
11.356	3.85	Control	1.0	0.0	Yes	2.944	0.0	n/a	GoodResponse	0	n/a	n/a	0	0	Fixation	Neutral	True
15.218	0.4	Control	1.0	0.0	Yes	2.944	0.012	2.0	GoodResponse	0	0.204	14.422	0	0	Target	Neutral	True
15.422	0.3	Control	1.0	0.0	Yes	2.944	0.012	2.0	GoodResponse	0	0.204	n/a	0	0	ButtonPress	Neutral	True
15.602	0.3	Control	1.0	n/a	Yes	2.944	n/a	n/a	GoodResponse	0	n/a	n/a	0	0	Blank	Neutral	True
15.903	1.45	Control	1.0	n/a	Yes	2.944	n/a	5.0	GoodResponse	0	0.027	14.93	0	0	Feedback	Neutral	True
17.358	2.944	Control	1.0	n/a	Yes	2.944	n/a	n/a	GoodResponse	0	0.0	n/a	0	0	ISIslide	Neutral	True
20.316	0.25	Lose2	1.0	0.001	Yes	2.784	0.016	n/a	GoodResponse	0	n/a	n/a	0	1	Cue	AvoidedLoss	True
20.567	4.0	Lose2	1.0	0.0	Yes	2.784	0.001	n/a	GoodResponse	0	n/a	n/a	0	1	Fixation	AvoidedLoss	True
24.562	0.39	Lose2	1.0	0.004	Yes	2.784	-0.004	2.0	GoodResponse	0	0.229	23.791	0	1	Target	AvoidedLoss	True
24.791	0.3	Lose2	1.0	0.004	Yes	2.784	-0.004	2.0	GoodResponse	0	0.229	n/a	0	1	ButtonPress	AvoidedLoss	True
24.964	0.31	Lose2	1.0	n/a	Yes	2.784	n/a	n/a	GoodResponse	0	n/a	n/a	0	1	Blank	AvoidedLoss	True
25.265	1.45	Lose2	1.0	n/a	Yes	2.784	n/a	5.0	GoodResponse	0	0.03	24.295	0	1	Feedback	AvoidedLoss	True
26.719	2.784	Lose2	1.0	n/a	Yes	2.784	n/a	n/a	GoodResponse	0	0.0	n/a	0	1	ISIslide	AvoidedLoss	True
29.527	0.25	Control	1.0	0.0	Yes	2.573	0.027	n/a	GoodResponse	0	n/a	n/a	0	2	Cue	Neutral	False
29.778	4.1	Control	1.0	0.0	Yes	2.573	0.001	2.0	GoodResponse	0	2.923	31.701	0	2	Fixation	Neutral	False
32.701	0.3	Control	1.0	0.0	Yes	2.573	0.001	2.0	GoodResponse	0	2.923	n/a	0	2	ButtonPress	Neutral	False
33.874	0.38	Control	1.0	0.003	Yes	2.573	-0.003	2.0	GoodResponse	0	0.248	33.122	0	2	Target	Neutral	False
34.122	0.3	Control	1.0	0.003	Yes	2.573	-0.003	2.0	GoodResponse	0	0.248	n/a	0	2	ButtonPress	Neutral	False
34.258	0.32	Control	1.0	n/a	Yes	2.573	n/a	n/a	GoodResponse	0	n/a	n/a	0	2	Blank	Neutral	False
34.576	1.45	Control	1.0	n/a	Yes	2.573	n/a	5.0	GoodResponse	0	0.036	33.612	0	2	Feedback	Neutral	False
36.03	2.573	Control	1.0	n/a	Yes	2.573	n/a	n/a	GoodResponse	0	0.0	n/a	0	2	ISIslide	Neutral	False
38.621	0.25	Win2	1.0	0.0	Yes	2.829	0.021	n/a	GoodResponse	1	n/a	n/a	1	3	Cue	Win	True
38.872	3.95	Win2	1.0	0.0	Yes	2.829	0.001	n/a	GoodResponse	1	n/a	n/a	1	3	Fixation	Win	True
42.817	0.37	Win2	1.0	0.004	Yes	2.829	-0.004	2.0	GoodResponse	1	0.29	42.107	1	3	Target	Win	True
43.107	0.3	Win2	1.0	0.004	Yes	2.829	-0.004	2.0	GoodResponse	1	0.29	n/a	1	3	ButtonPress	Win	True
43.202	0.33	Win2	1.0	n/a	Yes	2.829	n/a	n/a	GoodResponse	1	n/a	n/a	1	3	Blank	Win	True
43.519	1.45	Win2	1.0	n/a	Yes	2.829	n/a	5.0	GoodResponse	1	0.02	42.539	1	3	Feedback	Win	True
44.973	2.829	Win2	1.0	n/a	Yes	2.829	n/a	n/a	GoodResponse	1	0.0	n/a	1	3	ISIslide	Win	True
47.815	0.25	Win2	1.0	0.0	Yes	3.285	0.015	n/a	GoodResponse	1	n/a	n/a	2	4	Cue	Win	True
48.066	4.0	Win2	1.0	0.0	Yes	3.285	0.001	n/a	GoodResponse	1	n/a	n/a	2	4	Fixation	Win	True
52.061	0.36	Win2	1.0	0.004	Yes	3.285	-0.004	2.0	GoodResponse	1	0.242	51.303	2	4	Target	Win	True
52.303	0.3	Win2	1.0	0.004	Yes	3.285	-0.004	2.0	GoodResponse	1	0.242	n/a	2	4	ButtonPress	Win	True
52.429	0.34	Win2	1.0	n/a	Yes	3.285	n/a	n/a	GoodResponse	1	n/a	n/a	2	4	Blank	Win	True
52.763	1.45	Win2	1.0	n/a	Yes	3.285	n/a	5.0	GoodResponse	1	0.044	51.807	2	4	Feedback	Win	True
54.218	3.285	Win2	1.0	n/a	Yes	3.285	n/a	n/a	GoodResponse	1	0.0	n/a	2	4	ISIslide	Win	True
57.528	0.25	Win2	0.8332999999999999	0.0	No	2.772	0.028	n/a	NoResponse	0	n/a	n/a	2	5	Cue	MissedWin	True
57.778	4.0	Win2	0.8332999999999999	0.001	No	2.772	0.0	n/a	NoResponse	0	n/a	n/a	2	5	Fixation	MissedWin	True
61.774	0.35	Win2	0.8332999999999999	0.004	No	2.772	-0.004	2.0	NoResponse	0	0.387	61.161	2	5	Target	MissedWin	True
62.125	0.35	Win2	0.8332999999999999	n/a	No	2.772	n/a	n/a	NoResponse	0	n/a	n/a	2	5	Blank	MissedWin	True
62.161	0.3	Win2	0.8332999999999999	0.004	No	2.772	-0.004	2.0	NoResponse	0	0.387	n/a	2	5	ButtonPress	MissedWin	True
62.476	1.45	Win2	0.8332999999999999	n/a	No	2.772	n/a	5.0	NoResponse	0	0.039	61.515	2	5	Feedback	MissedWin	True
63.93	2.772	Win2	0.8332999999999999	n/a	No	2.772	n/a	n/a	NoResponse	0	0.0	n/a	2	5	ISIslide	MissedWin	True
66.722	0.25	Lose2	0.8571	0.0	Yes	2.728	0.022	n/a	GoodResponse	0	n/a	n/a	2	6	Cue	AvoidedLoss	True
66.973	3.95	Lose2	0.8571	0.0	Yes	2.728	0.001	n/a	GoodResponse	0	n/a	n/a	2	6	Fixation	AvoidedLoss	True
70.918	0.34	Lose2	0.8571	0.004	Yes	2.728	-0.004	2.0	GoodResponse	0	0.229	70.147	2	6	Target	AvoidedLoss	True
71.147	0.3	Lose2	0.8571	0.004	Yes	2.728	-0.004	2.0	GoodResponse	0	0.229	n/a	2	6	ButtonPress	AvoidedLoss	True
71.269	0.36	Lose2	0.8571	n/a	Yes	2.728	n/a	n/a	GoodResponse	0	n/a	n/a	2	6	Blank	AvoidedLoss	True
71.62	1.45	Lose2	0.8571	n/a	Yes	2.728	n/a	5.0	GoodResponse	0	0.016	70.636	2	6	Feedback	AvoidedLoss	True
73.074	2.728	Lose2	0.8571	n/a	Yes	2.728	n/a	n/a	GoodResponse	0	0.0	n/a	2	6	ISIslide	AvoidedLoss	True
75.816	0.25	Lose2	0.875	0.0	Yes	4.034	0.016	n/a	GoodResponse	0	n/a	n/a	2	7	Cue	AvoidedLoss	True
76.066	4.05	Lose2	0.875	0.001	Yes	4.034	0.0	n/a	GoodResponse	0	n/a	n/a	2	7	Fixation	AvoidedLoss	True
80.112	0.33	Lose2	0.875	0.004	Yes	4.034	-0.004	2.0	GoodResponse	0	0.21	79.322	2	7	Target	AvoidedLoss	True
80.322	0.3	Lose2	0.875	0.004	Yes	4.034	-0.004	2.0	GoodResponse	0	0.21	n/a	2	7	ButtonPress	AvoidedLoss	True
80.446	0.37	Lose2	0.875	n/a	Yes	4.034	n/a	n/a	GoodResponse	0	n/a	n/a	2	7	Blank	AvoidedLoss	True
80.814	1.45	Lose2	0.875	n/a	Yes	4.034	n/a	5.0	GoodResponse	0	0.042	79.856	2	7	Feedback	AvoidedLoss	True
82.268	4.034	Lose2	0.875	n/a	Yes	4.034	n/a	n/a	GoodResponse	0	0.0	n/a	2	7	ISIslide	AvoidedLoss	True
86.33	0.25	Lose2	0.8889	0.001	Yes	3.02	0.03	n/a	GoodResponse	0	n/a	n/a	2	8	Cue	AvoidedLoss	True
86.581	3.95	Lose2	0.8889	0.0	Yes	3.02	0.001	n/a	GoodResponse	0	n/a	n/a	2	8	Fixation	AvoidedLoss	True
90.526	0.32	Lose2	0.8889	0.004	Yes	3.02	-0.004	2.0	GoodResponse	0	0.206	89.732	2	8	Target	AvoidedLoss	True
90.732	0.3	Lose2	0.8889	0.004	Yes	3.02	-0.004	2.0	GoodResponse	0	0.206	n/a	2	8	ButtonPress	AvoidedLoss	True
90.861	0.38	Lose2	0.8889	n/a	Yes	3.02	n/a	n/a	GoodResponse	0	n/a	n/a	2	8	Blank	AvoidedLoss	True
91.228	1.45	Lose2	0.8889	n/a	Yes	3.02	n/a	5.0	GoodResponse	0	0.018	90.246	2	8	Feedback	AvoidedLoss	True
92.683	3.02	Lose2	0.8889	n/a	Yes	3.02	n/a	n/a	GoodResponse	0	0.0	n/a	2	8	ISIslide	AvoidedLoss	True
95.725	0.25	Lose2	0.9	0.0	Yes	3.125	0.025	n/a	GoodResponse	0	n/a	n/a	2	9	Cue	AvoidedLoss	True
95.976	3.95	Lose2	0.9	0.0	Yes	3.125	0.001	n/a	GoodResponse	0	n/a	n/a	2	9	Fixation	AvoidedLoss	True
99.921	0.31	Lose2	0.9	0.004	Yes	3.125	-0.004	2.0	GoodResponse	0	0.246	99.167	2	9	Target	AvoidedLoss	True
100.167	0.3	Lose2	0.9	0.004	Yes	3.125	-0.004	2.0	GoodResponse	0	0.246	n/a	2	9	ButtonPress	AvoidedLoss	True
100.239	0.39	Lose2	0.9	n/a	Yes	3.125	n/a	n/a	GoodResponse	0	n/a	n/a	2	9	Blank	AvoidedLoss	True
100.623	1.45	Lose2	0.9	n/a	Yes	3.125	n/a	5.0	GoodResponse	0	0.038	99.661	2	9	Feedback	AvoidedLoss	True
102.078	3.125	Lose2	0.9	n/a	Yes	3.125	n/a	n/a	GoodResponse	0	0.0	n/a	2	9	ISIslide	AvoidedLoss	True
105.22	0.25	Control	0.9091	0.0	Yes	3.28	0.02	n/a	GoodResponse	0	n/a	n/a	2	10	Cue	Neutral	True
105.471	4.0	Control	0.9091	0.0	Yes	3.28	0.001	n/a	GoodResponse	0	n/a	n/a	2	10	Fixation	Neutral	True
109.466	0.3	Control	0.9091	0.004	Yes	3.28	-0.004	2.0	GoodResponse	0	0.188	108.654	2	10	Target	Neutral	True
109.654	0.3	Control	0.9091	0.004	Yes	3.28	-0.004	2.0	GoodResponse	0	0.188	n/a	2	10	ButtonPress	Neutral	True
109.767	0.4	Control	0.9091	n/a	Yes	3.28	n/a	n/a	GoodResponse	0	n/a	n/a	2	10	Blank	Neutral	True
110.168	1.45	Control	0.9091	n/a	Yes	3.28	n/a	5.0	GoodResponse	0	0.006	109.174	2	10	Feedback	Neutral	True
111.623	3.28	Control	0.9091	n/a	Yes	3.28	n/a	n/a	GoodResponse	0	0.0	n/a	2	10	ISIslide	Neutral	True
114.916	0.25	Lose2	0.9167000000000001	0.0	Yes	2.734	0.016	n/a	GoodResponse	0	n/a	n/a	2	11	Cue	AvoidedLoss	True
115.167	4.05	Lose2	0.9167000000000001	0.0	Yes	2.734	0.001	n/a	GoodResponse	0	n/a	n/a	2	11	Fixation	AvoidedLoss	True
119.212	0.29	Lose2	0.9167000000000001	0.004	Yes	2.734	-0.004	2.0	GoodResponse	0	0.242	118.454	2	11	Target	AvoidedLoss	True
119.454	0.3	Lose2	0.9167000000000001	0.004	Yes	2.734	-0.004	2.0	GoodResponse	0	0.242	n/a	2	11	ButtonPress	AvoidedLoss	True
119.513	0.41	Lose2	0.9167000000000001	n/a	Yes	2.734	n/a	n/a	GoodResponse	0	n/a	n/a	2	11	Blank	AvoidedLoss	True
119.914	1.45	Lose2	0.9167000000000001	n/a	Yes	2.734	n/a	5.0	GoodResponse	0	0.014	118.928	2	11	Feedback	AvoidedLoss	True
121.369	2.734	Lose2	0.9167000000000001	n/a	Yes	2.734	n/a	n/a	GoodResponse	0	0.0	n/a	2	11	ISIslide	AvoidedLoss	True
124.127	0.25	Control	0.9231	0.0	Yes	2.973	0.027	n/a	GoodResponse	0	n/a	n/a	2	12	Cue	Neutral	True
124.378	3.9	Control	0.9231	0.0	Yes	2.973	0.001	n/a	GoodResponse	0	n/a	n/a	2	12	Fixation	Neutral	True
128.273	0.28	Control	0.9231	0.004	Yes	2.973	-0.004	2.0	GoodResponse	0	0.245	127.518	2	12	Target	Neutral	True
128.518	0.3	Control	0.9231	0.004	Yes	2.973	-0.004	2.0	GoodResponse	0	0.245	n/a	2	12	ButtonPress	Neutral	True
128.557	0.42	Control	0.9231	n/a	Yes	2.973	n/a	n/a	GoodResponse	0	n/a	n/a	2	12	Blank	Neutral	True
128.975	1.45	Control	0.9231	n/a	Yes	2.973	n/a	5.0	GoodResponse	0	0.027	128.002	2	12	Feedback	Neutral	True
130.429	2.973	Control	0.9231	n/a	Yes	2.973	n/a	n/a	GoodResponse	0	0.0	n/a	2	12	ISIslide	Neutral	True
133.421	0.25	Control	0.9286	0.0	Yes	2.779	0.021	n/a	GoodResponse	0	n/a	n/a	2	13	Cue	Neutral	True
133.672	4.0	Control	0.9286	0.0	Yes	2.779	0.001	n/a	GoodResponse	0	n/a	n/a	2	13	Fixation	Neutral	True
137.667	0.27	Control	0.9286	0.004	Yes	2.779	-0.004	2.0	GoodResponse	0	0.218	136.885	2	13	Target	Neutral	True
137.885	0.3	Control	0.9286	0.004	Yes	2.779	-0.004	2.0	GoodResponse	0	0.218	n/a	2	13	ButtonPress	Neutral	True
137.951	0.43	Control	0.9286	n/a	Yes	2.779	n/a	n/a	GoodResponse	0	n/a	n/a	2	13	Blank	Neutral	True
138.369	1.45	Control	0.9286	n/a	Yes	2.779	n/a	5.0	GoodResponse	0	0.047	137.416	2	13	Feedback	Neutral	True
139.824	2.779	Control	0.9286	n/a	Yes	2.779	n/a	n/a	GoodResponse	0	0.0	n/a	2	13	ISIslide	Neutral	True
142.615	0.25	Win2	0.9333	0.001	Yes	2.685	0.015	n/a	GoodResponse	1	n/a	n/a	3	14	Cue	Win	True
142.866	4.1	Win2	0.9333	0.0	Yes	2.685	0.001	n/a	GoodResponse	1	n/a	n/a	3	14	Fixation	Win	True
146.962	0.26	Win2	0.9333	0.003	Yes	2.685	-0.003	2.0	GoodResponse	1	0.197	146.159	3	14	Target	Win	True
147.159	0.3	Win2	0.9333	0.003	Yes	2.685	-0.003	2.0	GoodResponse	1	0.197	n/a	3	14	ButtonPress	Win	True
147.229	0.44	Win2	0.9333	n/a	Yes	2.685	n/a	n/a	GoodResponse	1	n/a	n/a	3	14	Blank	Win	True
147.664	1.45	Win2	0.9333	n/a	Yes	2.685	n/a	5.0	GoodResponse	1	0.021	146.685	3	14	Feedback	Win	True
149.118	2.685	Win2	0.9333	n/a	Yes	2.685	n/a	n/a	GoodResponse	1	0.0	n/a	3	14	ISIslide	Win	True
151.826	0.25	Control	0.875	0.0	No	2.974	0.026	n/a	LatePress	0	n/a	n/a	3	15	Cue	Neutral	True
152.077	4.0	Control	0.875	0.0	No	2.974	0.001	n/a	LatePress	0	n/a	n/a	3	15	Fixation	Neutral	True
156.072	0.25	Control	0.875	0.004	No	2.974	-0.004	2.0	LatePress	0	0.253	155.325	3	15	Target	Neutral	True
156.323	0.45	Control	0.875	n/a	No	2.974	n/a	n/a	LatePress	0	n/a	n/a	3	15	Blank	Neutral	True
156.325	0.3	Control	0.875	0.004	No	2.974	-0.004	2.0	LatePress	0	0.253	n/a	3	15	ButtonPress	Neutral	True
156.774	1.45	Control	0.875	n/a	No	2.974	n/a	5.0	LatePress	0	0.032	155.806	3	15	Feedback	Neutral	True
158.229	2.974	Control	0.875	n/a	No	2.974	n/a	n/a	LatePress	0	0.0	n/a	3	15	ISIslide	Neutral	True
161.221	0.25	Win2	0.8824	0.0	Yes	2.879	0.021	n/a	GoodResponse	1	n/a	n/a	4	16	Cue	Win	True
161.472	4.0	Win2	0.8824	0.0	Yes	2.879	0.001	n/a	GoodResponse	1	n/a	n/a	4	16	Fixation	Win	True
165.467	0.24	Win2	0.8824	0.004	Yes	2.879	-0.004	2.0	GoodResponse	1	0.212	164.679	4	16	Target	Win	True
165.679	0.3	Win2	0.8824	0.004	Yes	2.879	-0.004	2.0	GoodResponse	1	0.212	n/a	4	16	ButtonPress	Win	True
165.718	0.46	Win2	0.8824	n/a	Yes	2.879	n/a	n/a	GoodResponse	1	n/a	n/a	4	16	Blank	Win	True
166.169	1.45	Win2	0.8824	n/a	Yes	2.879	n/a	5.0	GoodResponse	1	0.006	165.175	4	16	Feedback	Win	True
167.624	2.879	Win2	0.8824	n/a	Yes	2.879	n/a	n/a	GoodResponse	1	0.0	n/a	4	16	ISIslide	Win	True
170.516	0.25	Lose2	0.8889	0.0	Yes	2.734	0.016	n/a	GoodResponse	0	n/a	n/a	4	17	Cue	AvoidedLoss	True
170.766	3.95	Lose2	0.8889	0.0	Yes	2.734	0.0	n/a	GoodResponse	0	n/a	n/a	4	17	Fixation	AvoidedLoss	True
174.728	0.23	Lose2	0.8889	0.0	Yes	2.734	0.012	2.0	GoodResponse	0	0.169	173.897	4	17	Target	AvoidedLoss	True
174.897	0.3	Lose2	0.8889	0.0	Yes	2.734	0.012	2.0	GoodResponse	0	0.169	n/a	4	17	ButtonPress	AvoidedLoss	True
174.945	0.47	Lose2	0.8889	n/a	Yes	2.734	n/a	n/a	GoodResponse	0	n/a	n/a	4	17	Blank	AvoidedLoss	True
175.414	1.45	Lose2	0.8889	n/a	Yes	2.734	n/a	5.0	GoodResponse	0	0.026	174.44	4	17	Feedback	AvoidedLoss	True
176.868	2.734	Lose2	0.8889	n/a	Yes	2.734	n/a	n/a	GoodResponse	0	0.0	n/a	4	17	ISIslide	AvoidedLoss	True
179.626	0.25	Lose2	0.8421	0.0	No	2.724	0.026	n/a	NoResponse	-1	n/a	n/a	3	18	Cue	Loss	True
179.877	4.05	Lose2	0.8421	0.0	No	2.724	0.001	n/a	NoResponse	-1	n/a	n/a	3	18	Fixation	Loss	True
183.922	0.22	Lose2	0.8421	0.004	No	2.724	-0.004	2.0	NoResponse	-1	0.269	183.191	3	18	Target	Loss	True
184.156	0.48	Lose2	0.8421	n/a	No	2.724	n/a	n/a	NoResponse	-1	n/a	n/a	3	18	Blank	Loss	True
184.191	0.3	Lose2	0.8421	0.004	No	2.724	-0.004	2.0	NoResponse	-1	0.269	n/a	3	18	ButtonPress	Loss	True
184.624	1.45	Lose2	0.8421	n/a	No	2.724	n/a	5.0	NoResponse	-1	0.036	183.66	3	18	Feedback	Loss	True
186.079	2.724	Lose2	0.8421	n/a	No	2.724	n/a	n/a	NoResponse	-1	0.0	n/a	3	18	ISIslide	Loss	True
188.82	0.25	Control	0.8	0.0	No	2.93	0.02	n/a	NoResponse	0	n/a	n/a	3	19	Cue	Neutral	True
189.071	3.95	Control	0.8	0.0	No	2.93	0.001	n/a	NoResponse	0	n/a	n/a	3	19	Fixation	Neutral	True
193.016	0.21	Control	0.8	0.004	No	2.93	-0.004	2.0	NoResponse	0	0.29	192.306	3	19	Target	Neutral	True
193.233	0.49	Control	0.8	n/a	No	2.93	n/a	n/a	NoResponse	0	n/a	n/a	3	19	Blank	Neutral	True
193.306	0.3	Control	0.8	0.004	No	2.93	-0.004	2.0	NoResponse	0	0.29	n/a	3	19	ButtonPress	Neutral	True
193.718	1.45	Control	0.8	n/a	No	2.93	n/a	5.0	NoResponse	0	0.015	192.733	3	19	Feedback	Neutral	True
195.173	2.93	Control	0.8	n/a	No	2.93	n/a	n/a	NoResponse	0	0.0	n/a	3	19	ISIslide	Neutral	True
198.115	0.25	Control	0.7619	0.0	No	2.635	0.015	n/a	NoResponse	0	n/a	n/a	3	20	Cue	Neutral	True
198.365	4.05	Control	0.7619	0.001	No	2.635	0.0	n/a	NoResponse	0	n/a	n/a	3	20	Fixation	Neutral	True
202.411	0.2	Control	0.7619	0.004	No	2.635	-0.004	2.0	NoResponse	0	0.261	201.672	3	20	Target	Neutral	True
202.611	0.5	Control	0.7619	n/a	No	2.635	n/a	n/a	NoResponse	0	n/a	n/a	3	20	Blank	Neutral	True
202.672	0.3	Control	0.7619	0.004	No	2.635	-0.004	2.0	NoResponse	0	0.261	n/a	3	20	ButtonPress	Neutral	True
203.113	1.45	Control	0.7619	n/a	No	2.635	n/a	5.0	NoResponse	0	0.034	202.147	3	20	Feedback	Neutral	True
204.567	2.635	Control	0.7619	n/a	No	2.635	n/a	n/a	NoResponse	0	0.0	n/a	3	20	ISIslide	Neutral	True
207.225	0.25	Control	0.7273000000000001	0.0	No	2.775	0.025	n/a	NoResponse	0	n/a	n/a	3	21	Cue	Neutral	True
207.476	4.1	Control	0.7273000000000001	0.0	No	2.775	0.001	n/a	NoResponse	0	n/a	n/a	3	21	Fixation	Neutral	True
211.572	0.19	Control	0.7273000000000001	0.003	No	2.775	-0.003	2.0	NoResponse	0	0.224	210.796	3	21	Target	Neutral	True
211.772	0.51	Control	0.7273000000000001	n/a	No	2.775	n/a	n/a	NoResponse	0	n/a	n/a	3	21	Blank	Neutral	True
211.796	0.3	Control	0.7273000000000001	0.003	No	2.775	-0.003	2.0	NoResponse	0	0.224	n/a	3	21	ButtonPress	Neutral	True
212.274	1.45	Control	0.7273000000000001	n/a	No	2.775	n/a	5.0	NoResponse	0	0.044	211.318	3	21	Feedback	Neutral	True
213.728	2.775	Control	0.7273000000000001	n/a	No	2.775	n/a	n/a	NoResponse	0	0.0	n/a	3	21	ISIslide	Neutral	True
216.52	0.25	Control	0.6957	0.0	No	2.78	0.02	n/a	NoResponse	0	n/a	n/a	3	22	Cue	Neutral	True
216.77	4.0	Control	0.6957	0.001	No	2.78	0.0	n/a	NoResponse	0	n/a	n/a	3	22	Fixation	Neutral	True
220.766	0.18	Control	0.6957	0.004	No	2.78	-0.004	2.0	NoResponse	0	0.23	219.996	3	22	Target	Neutral	True
220.95	0.52	Control	0.6957	n/a	No	2.78	n/a	n/a	NoResponse	0	n/a	n/a	3	22	Blank	Neutral	True
220.996	0.3	Control	0.6957	0.004	No	2.78	-0.004	2.0	NoResponse	0	0.23	n/a	3	22	ButtonPress	Neutral	True
221.468	1.45	Control	0.6957	n/a	No	2.78	n/a	5.0	NoResponse	0	0.021	220.489	3	22	Feedback	Neutral	True
222.922	2.78	Control	0.6957	n/a	No	2.78	n/a	n/a	NoResponse	0	0.0	n/a	3	22	ISIslide	Neutral	True
225.714	0.25	Control	0.6667000000000001	0.0	No	2.786	0.014	n/a	NoResponse	0	n/a	n/a	3	23	Cue	Neutral	True
225.965	3.9	Control	0.6667000000000001	0.0	No	2.786	0.001	n/a	NoResponse	0	n/a	n/a	3	23	Fixation	Neutral	True
229.86	0.17	Control	0.6667000000000001	0.004	No	2.786	-0.004	2.0	NoResponse	0	0.273	229.133	3	23	Target	Neutral	True
230.044	0.53	Control	0.6667000000000001	n/a	No	2.786	n/a	n/a	NoResponse	0	n/a	n/a	3	23	Blank	Neutral	True
230.133	0.3	Control	0.6667000000000001	0.004	No	2.786	-0.004	2.0	NoResponse	0	0.273	n/a	3	23	ButtonPress	Neutral	True
230.562	1.45	Control	0.6667000000000001	n/a	No	2.786	n/a	5.0	NoResponse	0	0.049	229.611	3	23	Feedback	Neutral	True
232.016	2.786	Control	0.6667000000000001	n/a	No	2.786	n/a	n/a	NoResponse	0	0.0	n/a	3	23	ISIslide	Neutral	True
234.824	0.25	Win2	0.64	0.001	No	3.126	0.024	n/a	NoResponse	0	n/a	n/a	3	24	Cue	MissedWin	True
235.075	3.95	Win2	0.64	0.0	No	3.126	0.001	n/a	NoResponse	0	n/a	n/a	3	24	Fixation	MissedWin	True
239.02	0.16	Win2	0.64	0.004	No	3.126	-0.004	2.0	NoResponse	0	0.199	238.219	3	24	Target	MissedWin	True
239.188	0.54	Win2	0.64	n/a	No	3.126	n/a	n/a	NoResponse	0	n/a	n/a	3	24	Blank	MissedWin	True
239.219	0.3	Win2	0.64	0.004	No	3.126	-0.004	2.0	NoResponse	0	0.199	n/a	3	24	ButtonPress	MissedWin	True
239.722	1.45	Win2	0.64	n/a	No	3.126	n/a	5.0	NoResponse	0	0.01	238.732	3	24	Feedback	MissedWin	True
241.177	3.126	Win2	0.64	n/a	No	3.126	n/a	n/a	NoResponse	0	0.0	n/a	3	24	ISIslide	MissedWin	True
244.32	0.25	Win2	0.6154	0.0	No	3.08	0.02	n/a	NoResponse	0	n/a	n/a	3	25	Cue	MissedWin	True
244.57	4.0	Win2	0.6154	0.0	No	3.08	0.0	n/a	NoResponse	0	n/a	n/a	3	25	Fixation	MissedWin	True
248.566	0.17	Win2	0.6154	0.004	No	3.08	-0.004	2.0	NoResponse	0	0.196	247.762	3	25	Target	MissedWin	True
248.749	0.53	Win2	0.6154	n/a	No	3.08	n/a	n/a	NoResponse	0	n/a	n/a	3	25	Blank	MissedWin	True
248.762	0.3	Win2	0.6154	0.004	No	3.08	-0.004	2.0	NoResponse	0	0.196	n/a	3	25	ButtonPress	MissedWin	True
249.268	1.45	Win2	0.6154	n/a	No	3.08	n/a	5.0	NoResponse	0	0.025	248.293	3	25	Feedback	MissedWin	True
250.722	3.08	Win2	0.6154	n/a	No	3.08	n/a	n/a	NoResponse	0	0.0	n/a	3	25	ISIslide	MissedWin	True
253.831	0.25	Win2	0.5926	0.0	No	2.919	0.031	n/a	NoResponse	0	n/a	n/a	3	26	Cue	MissedWin	True
254.082	3.95	Win2	0.5926	0.0	No	2.919	0.001	n/a	NoResponse	0	n/a	n/a	3	26	Fixation	MissedWin	True
258.027	0.18	Win2	0.5926	0.004	No	2.919	-0.004	2.0	NoResponse	0	0.212	257.239	3	26	Target	MissedWin	True
258.211	0.52	Win2	0.5926	n/a	No	2.919	n/a	n/a	NoResponse	0	n/a	n/a	3	26	Blank	MissedWin	True
258.239	0.3	Win2	0.5926	0.004	No	2.919	-0.004	2.0	NoResponse	0	0.212	n/a	3	26	ButtonPress	MissedWin	True
258.729	1.45	Win2	0.5926	n/a	No	2.919	n/a	5.0	NoResponse	0	0.027	257.756	3	26	Feedback	MissedWin	True
260.184	2.919	Win2	0.5926	n/a	No	2.919	n/a	n/a	NoResponse	0	0.0	n/a	3	26	ISIslide	MissedWin	True
263.126	0.25	Lose2	0.5714	0.0	No	2.824	0.026	n/a	NoResponse	-1	n/a	n/a	2	27	Cue	Loss	True
263.376	4.05	Lose2	0.5714	0.001	No	2.824	0.0	n/a	NoResponse	-1	n/a	n/a	2	27	Fixation	Loss	True
267.422	0.19	Lose2	0.5714	0.004	No	2.824	-0.004	2.0	NoResponse	-1	0.219	266.641	2	27	Target	Loss	True
267.623	0.51	Lose2	0.5714	n/a	No	2.824	n/a	n/a	NoResponse	-1	n/a	n/a	2	27	Blank	Loss	True
267.641	0.3	Lose2	0.5714	0.004	No	2.824	-0.004	2.0	NoResponse	-1	0.219	n/a	2	27	ButtonPress	Loss	True
268.124	1.45	Lose2	0.5714	n/a	No	2.824	n/a	5.0	NoResponse	-1	0.047	267.171	2	27	Feedback	Loss	True
269.578	2.824	Lose2	0.5714	n/a	No	2.824	n/a	n/a	NoResponse	-1	0.0	n/a	2	27	ISIslide	Loss	True
272.42	0.25	Control	0.5517	0.0	No	2.83	0.02	n/a	NoResponse	0	n/a	n/a	2	28	Cue	Neutral	True
272.671	4.05	Control	0.5517	0.0	No	2.83	0.001	n/a	NoResponse	0	n/a	n/a	2	28	Fixation	Neutral	True
276.716	0.2	Control	0.5517	0.004	No	2.83	-0.004	2.0	NoResponse	0	0.272	275.988	2	28	Target	Neutral	True
276.917	0.5	Control	0.5517	n/a	No	2.83	n/a	n/a	NoResponse	0	n/a	n/a	2	28	Blank	Neutral	True
276.988	0.3	Control	0.5517	0.004	No	2.83	-0.004	2.0	NoResponse	0	0.272	n/a	2	28	ButtonPress	Neutral	True
277.418	1.45	Control	0.5517	n/a	No	2.83	n/a	5.0	NoResponse	0	0.022	276.44	2	28	Feedback	Neutral	True
278.873	2.83	Control	0.5517	n/a	No	2.83	n/a	n/a	NoResponse	0	0.0	n/a	2	28	ISIslide	Neutral	True
281.715	0.25	Lose2	0.5667	0.0	Yes	2.835	0.015	n/a	GoodResponse	0	n/a	n/a	2	29	Cue	AvoidedLoss	True
281.965	3.95	Lose2	0.5667	0.0	Yes	2.835	0.0	n/a	GoodResponse	0	n/a	n/a	2	29	Fixation	AvoidedLoss	True
285.911	0.21	Lose2	0.5667	0.004	Yes	2.835	-0.004	2.0	GoodResponse	0	0.199	285.11	2	29	Target	AvoidedLoss	True
286.11	0.3	Lose2	0.5667	0.004	Yes	2.835	-0.004	2.0	GoodResponse	0	0.199	n/a	2	29	ButtonPress	AvoidedLoss	True
286.128	0.49	Lose2	0.5667	n/a	Yes	2.835	n/a	n/a	GoodResponse	0	n/a	n/a	2	29	Blank	AvoidedLoss	True
286.613	1.45	Lose2	0.5667	n/a	Yes	2.835	n/a	5.0	GoodResponse	0	0.045	285.658	2	29	Feedback	AvoidedLoss	True
288.067	2.835	Lose2	0.5667	n/a	Yes	2.835	n/a	n/a	GoodResponse	0	0.0	n/a	2	29	ISIslide	AvoidedLoss	True
290.926	0.25	Win2	0.5806	0.0	Yes	2.774	0.026	n/a	GoodResponse	1	n/a	n/a	3	30	Cue	Win	True
291.176	3.9	Win2	0.5806	0.0	Yes	2.774	0.0	n/a	GoodResponse	1	n/a	n/a	3	30	Fixation	Win	True
295.088	0.22	Win2	0.5806	0.0	Yes	2.774	0.012	2.0	GoodResponse	1	0.198	294.286	3	30	Target	Win	True
295.286	0.3	Win2	0.5806	0.0	Yes	2.774	0.012	2.0	GoodResponse	1	0.198	n/a	3	30	ButtonPress	Win	True
295.305	0.48	Win2	0.5806	n/a	Yes	2.774	n/a	n/a	GoodResponse	1	n/a	n/a	3	30	Blank	Win	True
295.773	1.45	Win2	0.5806	n/a	Yes	2.774	n/a	5.0	GoodResponse	1	0.008	294.781	3	30	Feedback	Win	True
297.228	2.774	Win2	0.5806	n/a	Yes	2.774	n/a	n/a	GoodResponse	1	0.0	n/a	3	30	ISIslide	Win	True
300.019	0.25	Lose2	0.5625	0.0	No	2.831	0.019	n/a	NoResponse	-1	n/a	n/a	2	31	Cue	Loss	True
300.27	4.05	Lose2	0.5625	0.0	No	2.831	0.001	n/a	NoResponse	-1	n/a	n/a	2	31	Fixation	Loss	True
304.316	0.23	Lose2	0.5625	0.003	No	2.831	-0.003	2.0	NoResponse	-1	0.241	303.557	2	31	Target	Loss	True
304.55	0.47	Lose2	0.5625	n/a	No	2.831	n/a	n/a	NoResponse	-1	n/a	n/a	2	31	Blank	Loss	True
304.557	0.3	Lose2	0.5625	0.003	No	2.831	-0.003	2.0	NoResponse	-1	0.241	n/a	2	31	ButtonPress	Loss	True
305.018	1.45	Lose2	0.5625	n/a	No	2.831	n/a	5.0	NoResponse	-1	0.031	304.049	2	31	Feedback	Loss	True
306.472	2.831	Lose2	0.5625	n/a	No	2.831	n/a	n/a	NoResponse	-1	0.0	n/a	2	31	ISIslide	Loss	True
309.331	0.25	Lose2	0.5758	0.0	Yes	2.619	0.031	n/a	GoodResponse	0	n/a	n/a	2	32	Cue	AvoidedLoss	True
309.581	4.15	Lose2	0.5758	0.0	Yes	2.619	0.0	n/a	GoodResponse	0	n/a	n/a	2	32	Fixation	AvoidedLoss	True
313.727	0.24	Lose2	0.5758	0.004	Yes	2.619	-0.004	2.0	GoodResponse	0	0.202	312.929	2	32	Target	AvoidedLoss	True
313.929	0.3	Lose2	0.5758	0.004	Yes	2.619	-0.004	2.0	GoodResponse	0	0.202	n/a	2	32	ButtonPress	AvoidedLoss	True
313.978	0.46	Lose2	0.5758	n/a	Yes	2.619	n/a	n/a	GoodResponse	0	n/a	n/a	2	32	Blank	AvoidedLoss	True
314.429	1.45	Lose2	0.5758	n/a	Yes	2.619	n/a	5.0	GoodResponse	0	0.034	313.463	2	32	Feedback	AvoidedLoss	True
315.883	2.619	Lose2	0.5758	n/a	Yes	2.619	n/a	n/a	GoodResponse	0	0.0	n/a	2	32	ISIslide	AvoidedLoss	True
318.525	0.25	Win2	0.5882000000000001	0.0	Yes	2.675	0.025	n/a	GoodResponse	1	n/a	n/a	3	33	Cue	Win	True
318.775	4.0	Win2	0.5882000000000001	0.001	Yes	2.675	0.0	n/a	GoodResponse	1	n/a	n/a	3	33	Fixation	Win	True
322.771	0.25	Win2	0.5882000000000001	0.004	Yes	2.675	-0.004	2.0	GoodResponse	1	0.225	321.996	3	33	Target	Win	True
322.996	0.3	Win2	0.5882000000000001	0.004	Yes	2.675	-0.004	2.0	GoodResponse	1	0.225	n/a	3	33	ButtonPress	Win	True
323.021	0.45	Win2	0.5882000000000001	n/a	Yes	2.675	n/a	n/a	GoodResponse	1	n/a	n/a	3	33	Blank	Win	True
323.473	1.45	Win2	0.5882000000000001	n/a	Yes	2.675	n/a	5.0	GoodResponse	1	0.015	322.488	3	33	Feedback	Win	True
324.927	2.675	Win2	0.5882000000000001	n/a	Yes	2.675	n/a	n/a	GoodResponse	1	0.0	n/a	3	33	ISIslide	Win	True
327.619	0.25	Lose2	0.6	0.0	Yes	2.631	0.019	n/a	GoodResponse	0	n/a	n/a	3	34	Cue	AvoidedLoss	True
327.869	4.05	Lose2	0.6	0.0	Yes	2.631	0.0	n/a	GoodResponse	0	n/a	n/a	3	34	Fixation	AvoidedLoss	True
331.915	0.26	Lose2	0.6	0.004	Yes	2.631	-0.004	2.0	GoodResponse	0	0.175	331.09	3	34	Target	AvoidedLoss	True
332.09	0.3	Lose2	0.6	0.004	Yes	2.631	-0.004	2.0	GoodResponse	0	0.175	n/a	3	34	ButtonPress	AvoidedLoss	True
332.182	0.44	Lose2	0.6	n/a	Yes	2.631	n/a	n/a	GoodResponse	0	n/a	n/a	3	34	Blank	AvoidedLoss	True
332.617	1.45	Lose2	0.6	n/a	Yes	2.631	n/a	5.0	GoodResponse	0	0.041	331.658	3	34	Feedback	AvoidedLoss	True
334.071	2.631	Lose2	0.6	n/a	Yes	2.631	n/a	n/a	GoodResponse	0	0.0	n/a	3	34	ISIslide	AvoidedLoss	True
336.729	0.25	Lose2	0.6111	0.0	Yes	2.671	0.029	n/a	GoodResponse	0	n/a	n/a	3	35	Cue	AvoidedLoss	True
336.98	4.0	Lose2	0.6111	0.0	Yes	2.671	0.001	n/a	GoodResponse	0	n/a	n/a	3	35	Fixation	AvoidedLoss	True
340.975	0.27	Lose2	0.6111	0.004	Yes	2.671	-0.004	2.0	GoodResponse	0	0.197	340.172	3	35	Target	AvoidedLoss	True
341.172	0.3	Lose2	0.6111	0.004	Yes	2.671	-0.004	2.0	GoodResponse	0	0.197	n/a	3	35	ButtonPress	AvoidedLoss	True
341.259	0.43	Lose2	0.6111	n/a	Yes	2.671	n/a	n/a	GoodResponse	0	n/a	n/a	3	35	Blank	AvoidedLoss	True
341.677	1.45	Lose2	0.6111	n/a	Yes	2.671	n/a	5.0	GoodResponse	0	0.007	340.684	3	35	Feedback	AvoidedLoss	True
343.132	2.671	Lose2	0.6111	n/a	Yes	2.671	n/a	n/a	GoodResponse	0	0.0	n/a	3	35	ISIslide	AvoidedLoss	True
345.823	0.25	Control	0.5946	0.0	No	2.677	0.023	n/a	NoResponse	0	n/a	n/a	3	36	Cue	Neutral	True
346.074	4.0	Control	0.5946	0.0	No	2.677	0.001	n/a	NoResponse	0	n/a	n/a	3	36	Fixation	Neutral	True
350.069	0.28	Control	0.5946	0.004	No	2.677	-0.004	2.0	NoResponse	0	0.293	349.362	3	36	Target	Neutral	True
350.353	0.42	Control	0.5946	n/a	No	2.677	n/a	n/a	NoResponse	0	n/a	n/a	3	36	Blank	Neutral	True
350.362	0.3	Control	0.5946	0.004	No	2.677	-0.004	2.0	NoResponse	0	0.293	n/a	3	36	ButtonPress	Neutral	True
350.771	1.45	Control	0.5946	n/a	No	2.677	n/a	5.0	NoResponse	0	0.033	349.804	3	36	Feedback	Neutral	True
352.225	2.677	Control	0.5946	n/a	No	2.677	n/a	n/a	NoResponse	0	0.0	n/a	3	36	ISIslide	Neutral	True
354.917	0.25	Win2	0.5789	0.0	No	2.883	0.017	n/a	NoResponse	0	n/a	n/a	3	37	Cue	MissedWin	False
355.168	4.0	Win2	0.5789	0.0	No	2.883	0.001	2.0	NoResponse	0	3.857	358.025	3	37	Fixation	MissedWin	False
359.025	0.3	Win2	0.5789	0.0	No	2.883	0.001	2.0	NoResponse	0	3.857	n/a	3	37	ButtonPress	MissedWin	False
359.163	0.29	Win2	0.5789	0.004	No	2.883	-0.004	2.0	NoResponse	0	0.517	358.68	3	37	Target	MissedWin	False
359.464	0.41	Win2	0.5789	n/a	No	2.883	n/a	n/a	NoResponse	0	n/a	n/a	3	37	Blank	MissedWin	False
359.68	0.3	Win2	0.5789	0.004	No	2.883	-0.004	2.0	NoResponse	0	0.517	n/a	3	37	ButtonPress	MissedWin	False
359.865	1.45	Win2	0.5789	n/a	No	2.883	n/a	5.0	NoResponse	0	0.013	358.878	3	37	Feedback	MissedWin	False
361.319	2.883	Win2	0.5789	n/a	No	2.883	n/a	n/a	NoResponse	0	0.0	n/a	3	37	ISIslide	MissedWin	False
364.228	0.25	Lose2	0.5897	0.0	Yes	2.822	0.028	n/a	GoodResponse	0	n/a	n/a	3	38	Cue	AvoidedLoss	True
364.479	3.95	Lose2	0.5897	0.0	Yes	2.822	0.001	n/a	GoodResponse	0	n/a	n/a	3	38	Fixation	AvoidedLoss	True
368.424	0.3	Lose2	0.5897	0.004	Yes	2.822	-0.004	2.0	GoodResponse	0	0.244	367.668	3	38	Target	AvoidedLoss	True
368.668	0.3	Lose2	0.5897	0.004	Yes	2.822	-0.004	2.0	GoodResponse	0	0.244	n/a	3	38	ButtonPress	AvoidedLoss	True
368.725	0.4	Lose2	0.5897	n/a	Yes	2.822	n/a	n/a	GoodResponse	0	n/a	n/a	3	38	Blank	AvoidedLoss	True
369.126	1.45	Lose2	0.5897	n/a	Yes	2.822	n/a	5.0	GoodResponse	0	0.019	368.145	3	38	Feedback	AvoidedLoss	True
370.58	2.822	Lose2	0.5897	n/a	Yes	2.822	n/a	n/a	GoodResponse	0	0.0	n/a	3	38	ISIslide	AvoidedLoss	True
373.422	0.25	Win2	0.6	0.0	Yes	2.978	0.022	n/a	GoodResponse	1	n/a	n/a	4	39	Cue	Win	True
373.673	4.1	Win2	0.6	0.0	Yes	2.978	0.001	n/a	GoodResponse	1	n/a	n/a	4	39	Fixation	Win	True
377.769	0.31	Win2	0.6	0.003	Yes	2.978	-0.003	2.0	GoodResponse	1	0.214	376.983	4	39	Target	Win	True
377.983	0.3	Win2	0.6	0.003	Yes	2.978	-0.003	2.0	GoodResponse	1	0.214	n/a	4	39	ButtonPress	Win	True
378.086	0.39	Win2	0.6	n/a	Yes	2.978	n/a	n/a	GoodResponse	1	n/a	n/a	4	39	Blank	Win	True
378.471	1.45	Win2	0.6	n/a	Yes	2.978	n/a	5.0	GoodResponse	1	0.04	377.511	4	39	Feedback	Win	True
379.925	2.978	Win2	0.6	n/a	Yes	2.978	n/a	n/a	GoodResponse	1	0.0	n/a	4	39	ISIslide	Win	True
382.917	0.25	Win2	0.6098	0.0	Yes	2.733	0.017	n/a	GoodResponse	1	n/a	n/a	5	40	Cue	Win	True
383.168	3.95	Win2	0.6098	0.0	Yes	2.733	0.001	n/a	GoodResponse	1	n/a	n/a	5	40	Fixation	Win	True
387.113	0.32	Win2	0.6098	0.004	Yes	2.733	-0.004	2.0	GoodResponse	1	0.2	386.313	5	40	Target	Win	True
387.313	0.3	Win2	0.6098	0.004	Yes	2.733	-0.004	2.0	GoodResponse	1	0.2	n/a	5	40	ButtonPress	Win	True
387.447	0.38	Win2	0.6098	n/a	Yes	2.733	n/a	n/a	GoodResponse	1	n/a	n/a	5	40	Blank	Win	True
387.815	1.45	Win2	0.6098	n/a	Yes	2.733	n/a	5.0	GoodResponse	1	0.013	386.828	5	40	Feedback	Win	True
389.27	2.733	Win2	0.6098	n/a	Yes	2.733	n/a	n/a	GoodResponse	1	0.0	n/a	5	40	ISIslide	Win	True
392.028	0.25	Win2	0.619	0.0	Yes	2.772	0.028	n/a	GoodResponse	1	n/a	n/a	6	41	Cue	Win	True
392.279	3.9	Win2	0.619	0.0	Yes	2.772	0.001	n/a	GoodResponse	1	n/a	n/a	6	41	Fixation	Win	True
396.174	0.33	Win2	0.619	0.004	Yes	2.772	-0.004	2.0	GoodResponse	1	0.204	395.378	6	41	Target	Win	True
396.378	0.3	Win2	0.619	0.004	Yes	2.772	-0.004	2.0	GoodResponse	1	0.204	n/a	6	41	ButtonPress	Win	True
396.508	0.37	Win2	0.619	n/a	Yes	2.772	n/a	n/a	GoodResponse	1	n/a	n/a	6	41	Blank	Win	True
396.876	1.45	Win2	0.619	n/a	Yes	2.772	n/a	5.0	GoodResponse	1	0.026	395.902	6	41	Feedback	Win	True
398.33	2.772	Win2	0.619	n/a	Yes	2.772	n/a	n/a	GoodResponse	1	0.0	n/a	6	41	ISIslide	Win	True
401.122	0.25	Control	0.6279	0.0	Yes	2.928	0.022	n/a	GoodResponse	0	n/a	n/a	6	42	Cue	Neutral	True
401.372	3.85	Control	0.6279	0.001	Yes	2.928	0.0	n/a	GoodResponse	0	n/a	n/a	6	42	Fixation	Neutral	True
405.234	0.34	Control	0.6279	0.0	Yes	2.928	0.012	2.0	GoodResponse	0	0.201	404.435	6	42	Target	Neutral	True
405.435	0.3	Control	0.6279	0.0	Yes	2.928	0.012	2.0	GoodResponse	0	0.201	n/a	6	42	ButtonPress	Neutral	True
405.568	0.36	Control	0.6279	n/a	Yes	2.928	n/a	n/a	GoodResponse	0	n/a	n/a	6	42	Blank	Neutral	True
405.919	1.45	Control	0.6279	n/a	Yes	2.928	n/a	5.0	GoodResponse	0	0.007	404.926	6	42	Feedback	Neutral	True
407.374	2.928	Control	0.6279	n/a	Yes	2.928	n/a	n/a	GoodResponse	0	0.0	n/a	6	42	ISIslide	Neutral	True
410.316	0.25	Win2	0.6364	0.0	Yes	3.184	0.016	n/a	GoodResponse	1	n/a	n/a	7	43	Cue	Win	True
410.567	4.0	Win2	0.6364	0.0	Yes	3.184	0.001	n/a	GoodResponse	1	n/a	n/a	7	43	Fixation	Win	True
414.562	0.35	Win2	0.6364	0.004	Yes	3.184	-0.004	2.0	GoodResponse	1	0.213	413.775	7	43	Target	Win	True
414.775	0.3	Win2	0.6364	0.004	Yes	3.184	-0.004	2.0	GoodResponse	1	0.213	n/a	7	43	ButtonPress	Win	True
414.913	0.35	Win2	0.6364	n/a	Yes	3.184	n/a	n/a	GoodResponse	1	n/a	n/a	7	43	Blank	Win	True
415.264	1.45	Win2	0.6364	n/a	Yes	3.184	n/a	5.0	GoodResponse	1	0.027	414.291	7	43	Feedback	Win	True
416.718	3.184	Win2	0.6364	n/a	Yes	3.184	n/a	n/a	GoodResponse	1	0.0	n/a	7	43	ISIslide	Win	True
419.928	0.25	Win2	0.6444	0.0	Yes	2.972	0.028	n/a	GoodResponse	1	n/a	n/a	8	44	Cue	Win	True
420.179	4.0	Win2	0.6444	0.0	Yes	2.972	0.001	n/a	GoodResponse	1	n/a	n/a	8	44	Fixation	Win	True
424.174	0.36	Win2	0.6444	0.004	Yes	2.972	-0.004	2.0	GoodResponse	1	0.214	423.388	8	44	Target	Win	True
424.388	0.3	Win2	0.6444	0.004	Yes	2.972	-0.004	2.0	GoodResponse	1	0.214	n/a	8	44	ButtonPress	Win	True
424.542	0.34	Win2	0.6444	n/a	Yes	2.972	n/a	n/a	GoodResponse	1	n/a	n/a	8	44	Blank	Win	True
424.876	1.45	Win2	0.6444	n/a	Yes	2.972	n/a	5.0	GoodResponse	1	0.025	423.901	8	44	Feedback	Win	True
426.33	2.972	Win2	0.6444	n/a	Yes	2.972	n/a	n/a	GoodResponse	1	0.0	n/a	8	44	ISIslide	Win	True
429.323	0.25	Control	0.6522	0.0	Yes	2.877	0.023	n/a	GoodResponse	0	n/a	n/a	8	45	Cue	Neutral	True
429.573	4.1	Control	0.6522	0.0	Yes	2.877	0.0	n/a	GoodResponse	0	n/a	n/a	8	45	Fixation	Neutral	True
433.669	0.37	Control	0.6522	0.004	Yes	2.877	-0.004	2.0	GoodResponse	0	0.226	432.895	8	45	Target	Neutral	True
433.895	0.3	Control	0.6522	0.004	Yes	2.877	-0.004	2.0	GoodResponse	0	0.226	n/a	8	45	ButtonPress	Neutral	True
434.053	0.33	Control	0.6522	n/a	Yes	2.877	n/a	n/a	GoodResponse	0	n/a	n/a	8	45	Blank	Neutral	True
434.371	1.45	Control	0.6522	n/a	Yes	2.877	n/a	5.0	GoodResponse	0	0.042	433.413	8	45	Feedback	Neutral	True
435.825	2.877	Control	0.6522	n/a	Yes	2.877	n/a	n/a	GoodResponse	0	0.0	n/a	8	45	ISIslide	Neutral	True
438.717	0.25	Lose2	0.6596	0.001	Yes	3.383	0.017	n/a	GoodResponse	0	n/a	n/a	8	46	Cue	AvoidedLoss	True
438.968	4.0	Lose2	0.6596	0.0	Yes	3.383	0.001	n/a	GoodResponse	0	n/a	n/a	8	46	Fixation	AvoidedLoss	True
442.963	0.38	Lose2	0.6596	0.004	Yes	3.383	-0.004	2.0	GoodResponse	0	0.206	442.169	8	46	Target	AvoidedLoss	True
443.169	0.3	Lose2	0.6596	0.004	Yes	3.383	-0.004	2.0	GoodResponse	0	0.206	n/a	8	46	ButtonPress	AvoidedLoss	True
443.348	0.32	Lose2	0.6596	n/a	Yes	3.383	n/a	n/a	GoodResponse	0	n/a	n/a	8	46	Blank	AvoidedLoss	True
443.666	1.45	Lose2	0.6596	n/a	Yes	3.383	n/a	5.0	GoodResponse	0	0.016	442.682	8	46	Feedback	AvoidedLoss	True
445.12	3.383	Lose2	0.6596	n/a	Yes	3.383	n/a	n/a	GoodResponse	0	0.0	n/a	8	46	ISIslide	AvoidedLoss	True
448.53	0.25	Lose2	0.6667000000000001	0.0	Yes	2.67	0.03	n/a	GoodResponse	0	n/a	n/a	8	47	Cue	AvoidedLoss	True
448.781	4.0	Lose2	0.6667000000000001	0.0	Yes	2.67	0.001	n/a	GoodResponse	0	n/a	n/a	8	47	Fixation	AvoidedLoss	True
452.776	0.38	Lose2	0.6667000000000001	0.004	Yes	2.67	-0.004	2.0	GoodResponse	0	0.224	452.0	8	47	Target	AvoidedLoss	True
453	0.3	Lose2	0.6667000000000001	0.004	Yes	2.67	-0.004	2.0	GoodResponse	0	0.224	n/a	8	47	ButtonPress	AvoidedLoss	True
453.161	0.32	Lose2	0.6667000000000001	n/a	Yes	2.67	n/a	n/a	GoodResponse	0	n/a	n/a	8	47	Blank	AvoidedLoss	True
453.478	1.45	Lose2	0.6667000000000001	n/a	Yes	2.67	n/a	5.0	GoodResponse	0	0.009	452.487	8	47	Feedback	AvoidedLoss	True
454.933	2.67	Lose2	0.6667000000000001	n/a	Yes	2.67	n/a	n/a	GoodResponse	0	0.0	n/a	8	47	ISIslide	AvoidedLoss	True
457.624	0.25	Lose2	0.6735	0.0	Yes	3.026	0.024	n/a	GoodResponse	0	n/a	n/a	8	48	Cue	AvoidedLoss	True
457.875	3.95	Lose2	0.6735	0.0	Yes	3.026	0.001	n/a	GoodResponse	0	n/a	n/a	8	48	Fixation	AvoidedLoss	True
461.82	0.37	Lose2	0.6735	0.004	Yes	3.026	-0.004	2.0	GoodResponse	0	0.212	461.032	8	48	Target	AvoidedLoss	True
462.032	0.3	Lose2	0.6735	0.004	Yes	3.026	-0.004	2.0	GoodResponse	0	0.212	n/a	8	48	ButtonPress	AvoidedLoss	True
462.204	0.33	Lose2	0.6735	n/a	Yes	3.026	n/a	n/a	GoodResponse	0	n/a	n/a	8	48	Blank	AvoidedLoss	True
462.522	1.45	Lose2	0.6735	n/a	Yes	3.026	n/a	5.0	GoodResponse	0	0.037	461.559	8	48	Feedback	AvoidedLoss	True
463.976	3.026	Lose2	0.6735	n/a	Yes	3.026	n/a	n/a	GoodResponse	0	0.0	n/a	8	48	ISIslide	AvoidedLoss	True
467.019	0.25	Control	0.68	0.0	Yes	2.881	0.019	n/a	GoodResponse	0	n/a	n/a	8	49	Cue	Neutral	True
467.269	4.0	Control	0.68	0.001	Yes	2.881	0.0	n/a	GoodResponse	0	n/a	n/a	8	49	Fixation	Neutral	True
471.265	0.36	Control	0.68	0.004	Yes	2.881	-0.004	2.0	GoodResponse	0	0.199	470.464	8	49	Target	Neutral	True
471.464	0.3	Control	0.68	0.004	Yes	2.881	-0.004	2.0	GoodResponse	0	0.199	n/a	8	49	ButtonPress	Neutral	True
471.632	0.34	Control	0.68	n/a	Yes	2.881	n/a	n/a	GoodResponse	0	n/a	n/a	8	49	Blank	Neutral	True
471.967	1.45	Control	0.68	n/a	Yes	2.881	n/a	5.0	GoodResponse	0	0.007	470.974	8	49	Feedback	Neutral	True
473.421	2.881	Control	0.68	n/a	Yes	2.881	n/a	n/a	GoodResponse	0	0.0	n/a	8	49	ISIslide	Neutral	True
476.33	0.25	Control	0.6862999999999999	0.0	Yes	2.77	0.03	n/a	GoodResponse	0	n/a	n/a	8	50	Cue	Neutral	True
476.581	4.0	Control	0.6862999999999999	0.0	Yes	2.77	0.001	n/a	GoodResponse	0	n/a	n/a	8	50	Fixation	Neutral	True
480.576	0.35	Control	0.6862999999999999	0.004	Yes	2.77	-0.004	2.0	GoodResponse	0	0.288	479.864	8	50	Target	Neutral	True
480.864	0.3	Control	0.6862999999999999	0.004	Yes	2.77	-0.004	2.0	GoodResponse	0	0.288	n/a	8	50	ButtonPress	Neutral	True
480.927	0.35	Control	0.6862999999999999	n/a	Yes	2.77	n/a	n/a	GoodResponse	0	n/a	n/a	8	50	Blank	Neutral	True
481.278	1.45	Control	0.6862999999999999	n/a	Yes	2.77	n/a	5.0	GoodResponse	0	0.013	480.291	8	50	Feedback	Neutral	True
482.732	2.77	Control	0.6862999999999999	n/a	Yes	2.77	n/a	n/a	GoodResponse	0	0.0	n/a	8	50	ISIslide	Neutral	True
485.524	0.25	Control	0.6923	0.0	Yes	2.726	0.024	n/a	GoodResponse	0	n/a	n/a	8	51	Cue	Neutral	True
485.775	3.95	Control	0.6923	0.0	Yes	2.726	0.001	n/a	GoodResponse	0	n/a	n/a	8	51	Fixation	Neutral	True
489.72	0.34	Control	0.6923	0.004	Yes	2.726	-0.004	2.0	GoodResponse	0	0.208	488.928	8	51	Target	Neutral	True
489.928	0.3	Control	0.6923	0.004	Yes	2.726	-0.004	2.0	GoodResponse	0	0.208	n/a	8	51	ButtonPress	Neutral	True
490.071	0.36	Control	0.6923	n/a	Yes	2.726	n/a	n/a	GoodResponse	0	n/a	n/a	8	51	Blank	Neutral	True
490.422	1.45	Control	0.6923	n/a	Yes	2.726	n/a	5.0	GoodResponse	0	0.04	489.462	8	51	Feedback	Neutral	True
491.876	2.726	Control	0.6923	n/a	Yes	2.726	n/a	n/a	GoodResponse	0	0.0	n/a	8	51	ISIslide	Neutral	True
494.618	0.25	Control	0.6981	0.0	Yes	2.632	0.018	n/a	GoodResponse	0	n/a	n/a	8	52	Cue	Neutral	True
494.869	4.05	Control	0.6981	0.0	Yes	2.632	0.001	n/a	GoodResponse	0	n/a	n/a	8	52	Fixation	Neutral	True
498.914	0.33	Control	0.6981	0.004	Yes	2.632	-0.004	2.0	GoodResponse	0	0.275	498.189	8	52	Target	Neutral	True
499.189	0.3	Control	0.6981	0.004	Yes	2.632	-0.004	2.0	GoodResponse	0	0.275	n/a	8	52	ButtonPress	Neutral	True
499.248	0.37	Control	0.6981	n/a	Yes	2.632	n/a	n/a	GoodResponse	0	n/a	n/a	8	52	Blank	Neutral	True
499.616	1.45	Control	0.6981	n/a	Yes	2.632	n/a	5.0	GoodResponse	0	0.016	498.632	8	52	Feedback	Neutral	True
501.071	2.632	Control	0.6981	n/a	Yes	2.632	n/a	n/a	GoodResponse	0	0.0	n/a	8	52	ISIslide	Neutral	True
503.728	0.25	Win2	0.7037	0.001	Yes	2.922	0.028	n/a	GoodResponse	1	n/a	n/a	9	53	Cue	Win	True
503.979	4.05	Win2	0.7037	0.0	Yes	2.922	0.001	n/a	GoodResponse	1	n/a	n/a	9	53	Fixation	Win	True
508.025	0.32	Win2	0.7037	0.003	Yes	2.922	-0.003	2.0	GoodResponse	1	0.198	507.223	9	53	Target	Win	True
508.223	0.3	Win2	0.7037	0.003	Yes	2.922	-0.003	2.0	GoodResponse	1	0.198	n/a	9	53	ButtonPress	Win	True
508.359	0.38	Win2	0.7037	n/a	Yes	2.922	n/a	n/a	GoodResponse	1	n/a	n/a	9	53	Blank	Win	True
508.727	1.45	Win2	0.7037	n/a	Yes	2.922	n/a	5.0	GoodResponse	1	0.027	507.754	9	53	Feedback	Win	True
510.181	2.922	Win2	0.7037	n/a	Yes	2.922	n/a	n/a	GoodResponse	1	0.0	n/a	9	53	ISIslide	Win	True
513.123	0.25	Win2	0.7091	0.0	Yes	2.727	0.023	n/a	GoodResponse	1	n/a	n/a	10	54	Cue	Win	True
513.374	3.95	Win2	0.7091	0.0	Yes	2.727	0.001	n/a	GoodResponse	1	n/a	n/a	10	54	Fixation	Win	True
517.319	0.31	Win2	0.7091	0.004	Yes	2.727	-0.004	2.0	GoodResponse	1	0.239	516.558	10	54	Target	Win	True
517.558	0.3	Win2	0.7091	0.004	Yes	2.727	-0.004	2.0	GoodResponse	1	0.239	n/a	10	54	ButtonPress	Win	True
517.637	0.39	Win2	0.7091	n/a	Yes	2.727	n/a	n/a	GoodResponse	1	n/a	n/a	10	54	Blank	Win	True
518.021	1.45	Win2	0.7091	n/a	Yes	2.727	n/a	5.0	GoodResponse	1	0.001	517.022	10	54	Feedback	Win	True
519.476	2.727	Win2	0.7091	n/a	Yes	2.727	n/a	n/a	GoodResponse	1	0.0	n/a	10	54	ISIslide	Win	True
522.217	0.25	Control	0.7143	0.0	Yes	3.033	0.017	n/a	GoodResponse	0	n/a	n/a	10	55	Cue	Neutral	True
522.468	3.95	Control	0.7143	0.0	Yes	3.033	0.001	n/a	GoodResponse	0	n/a	n/a	10	55	Fixation	Neutral	True
526.413	0.3	Control	0.7143	0.004	Yes	3.033	-0.004	2.0	GoodResponse	0	0.222	525.635	10	55	Target	Neutral	True
526.635	0.3	Control	0.7143	0.004	Yes	3.033	-0.004	2.0	GoodResponse	0	0.222	n/a	10	55	ButtonPress	Neutral	True
526.714	0.4	Control	0.7143	n/a	Yes	3.033	n/a	n/a	GoodResponse	0	n/a	n/a	10	55	Blank	Neutral	True
527.115	1.45	Control	0.7143	n/a	Yes	3.033	n/a	5.0	GoodResponse	0	0.029	526.144	10	55	Feedback	Neutral	True
528.569	3.033	Control	0.7143	n/a	Yes	3.033	n/a	n/a	GoodResponse	0	0.0	n/a	10	55	ISIslide	Neutral	True
531.629	0.25	Control	0.7193	0.0	Yes	2.821	0.029	n/a	GoodResponse	0	n/a	n/a	10	56	Cue	Neutral	True
531.879	3.95	Control	0.7193	0.0	Yes	2.821	0.0	n/a	GoodResponse	0	n/a	n/a	10	56	Fixation	Neutral	True
535.824	0.29	Control	0.7193	0.005	Yes	2.821	-0.005	2.0	GoodResponse	0	0.275	535.099	10	56	Target	Neutral	True
536.099	0.3	Control	0.7193	0.005	Yes	2.821	-0.005	2.0	GoodResponse	0	0.275	n/a	10	56	ButtonPress	Neutral	True
536.125	0.41	Control	0.7193	n/a	Yes	2.821	n/a	n/a	GoodResponse	0	n/a	n/a	10	56	Blank	Neutral	True
536.527	1.45	Control	0.7193	n/a	Yes	2.821	n/a	5.0	GoodResponse	0	0.032	535.559	10	56	Feedback	Neutral	True
537.981	2.821	Control	0.7193	n/a	Yes	2.821	n/a	n/a	GoodResponse	0	0.0	n/a	10	56	ISIslide	Neutral	True
540.823	0.25	Control	0.7241	0.0	Yes	3.477	0.023	n/a	GoodResponse	0	n/a	n/a	10	57	Cue	Neutral	True
541.073	4.0	Control	0.7241	0.001	Yes	3.477	0.0	n/a	GoodResponse	0	n/a	n/a	10	57	Fixation	Neutral	True
545.069	0.28	Control	0.7241	0.004	Yes	3.477	-0.004	2.0	GoodResponse	0	0.227	544.296	10	57	Target	Neutral	True
545.296	0.3	Control	0.7241	0.004	Yes	3.477	-0.004	2.0	GoodResponse	0	0.227	n/a	10	57	ButtonPress	Neutral	True
545.353	0.42	Control	0.7241	n/a	Yes	3.477	n/a	n/a	GoodResponse	0	n/a	n/a	10	57	Blank	Neutral	True
545.771	1.45	Control	0.7241	n/a	Yes	3.477	n/a	5.0	GoodResponse	0	0.007	544.778	10	57	Feedback	Neutral	True
547.225	3.477	Control	0.7241	n/a	Yes	3.477	n/a	n/a	GoodResponse	0	0.0	n/a	10	57	ISIslide	Neutral	True
550.719	0.25	Win2	0.7288	0.0	Yes	2.731	0.019	n/a	GoodResponse	1	n/a	n/a	11	58	Cue	Win	True
550.97	4.05	Win2	0.7288	0.0	Yes	2.731	0.001	n/a	GoodResponse	1	n/a	n/a	11	58	Fixation	Win	True
555.015	0.27	Win2	0.7288	0.004	Yes	2.731	-0.004	2.0	GoodResponse	1	0.107	554.122	11	58	Target	Win	True
555.122	0.3	Win2	0.7288	0.004	Yes	2.731	-0.004	2.0	GoodResponse	1	0.107	n/a	11	58	ButtonPress	Win	True
555.299	0.43	Win2	0.7288	n/a	Yes	2.731	n/a	n/a	GoodResponse	1	n/a	n/a	11	58	Blank	Win	True
555.717	1.45	Win2	0.7288	n/a	Yes	2.731	n/a	5.0	GoodResponse	1	0.012	554.729	11	58	Feedback	Win	True
557.172	2.731	Win2	0.7288	n/a	Yes	2.731	n/a	n/a	GoodResponse	1	0.0	n/a	11	58	ISIslide	Win	True
559.93	0.25	Lose2	0.7333	0.0	Yes	2.67	0.03	n/a	GoodResponse	0	n/a	n/a	11	59	Cue	AvoidedLoss	True
560.181	4.0	Lose2	0.7333	0.0	Yes	2.67	0.001	n/a	GoodResponse	0	n/a	n/a	11	59	Fixation	AvoidedLoss	True
564.176	0.26	Lose2	0.7333	0.004	Yes	2.67	-0.004	2.0	GoodResponse	0	0.214	563.39	11	59	Target	AvoidedLoss	True
564.39	0.3	Lose2	0.7333	0.004	Yes	2.67	-0.004	2.0	GoodResponse	0	0.214	n/a	11	59	ButtonPress	AvoidedLoss	True
564.443	0.44	Lose2	0.7333	n/a	Yes	2.67	n/a	n/a	GoodResponse	0	n/a	n/a	11	59	Blank	AvoidedLoss	True
564.878	1.45	Lose2	0.7333	n/a	Yes	2.67	n/a	5.0	GoodResponse	0	0.022	563.9	11	59	Feedback	AvoidedLoss	True
566.332	2.67	Lose2	0.7333	n/a	Yes	2.67	n/a	n/a	GoodResponse	0	0.0	n/a	11	59	ISIslide	AvoidedLoss	True
569.024	0.25	Control	0.7212999999999999	0.0	No	2.676	0.024	n/a	NoResponse	0	n/a	n/a	11	60	Cue	Neutral	True
569.274	4.0	Control	0.7212999999999999	0.001	No	2.676	0.0	n/a	NoResponse	0	n/a	n/a	11	60	Fixation	Neutral	True
573.27	0.25	Control	0.7212999999999999	0.004	No	2.676	-0.004	2.0	NoResponse	0	0.317	572.587	11	60	Target	Neutral	True
573.52	0.45	Control	0.7212999999999999	n/a	No	2.676	n/a	n/a	NoResponse	0	n/a	n/a	11	60	Blank	Neutral	True
573.587	0.3	Control	0.7212999999999999	0.004	No	2.676	-0.004	2.0	NoResponse	0	0.317	n/a	11	60	ButtonPress	Neutral	True
573.972	1.45	Control	0.7212999999999999	n/a	No	2.676	n/a	5.0	NoResponse	0	0.001	572.973	11	60	Feedback	Neutral	True
575.426	2.676	Control	0.7212999999999999	n/a	No	2.676	n/a	n/a	NoResponse	0	0.0	n/a	11	60	ISIslide	Neutral	True
578.118	0.25	Lose2	0.7258	0.0	Yes	2.982	0.018	n/a	GoodResponse	0	n/a	n/a	11	61	Cue	AvoidedLoss	True
578.368	4.0	Lose2	0.7258	0.0	Yes	2.982	0.0	n/a	GoodResponse	0	n/a	n/a	11	61	Fixation	AvoidedLoss	True
582.364	0.24	Lose2	0.7258	0.004	Yes	2.982	-0.004	2.0	GoodResponse	0	0.203	581.567	11	61	Target	AvoidedLoss	True
582.567	0.3	Lose2	0.7258	0.004	Yes	2.982	-0.004	2.0	GoodResponse	0	0.203	n/a	11	61	ButtonPress	AvoidedLoss	True
582.614	0.46	Lose2	0.7258	n/a	Yes	2.982	n/a	n/a	GoodResponse	0	n/a	n/a	11	61	Blank	AvoidedLoss	True
583.066	1.45	Lose2	0.7258	n/a	Yes	2.982	n/a	5.0	GoodResponse	0	0.028	582.094	11	61	Feedback	AvoidedLoss	True
584.52	2.982	Lose2	0.7258	n/a	Yes	2.982	n/a	n/a	GoodResponse	0	0.0	n/a	11	61	ISIslide	AvoidedLoss	True
587.529	0.25	Lose2	0.7143	0.0	No	2.871	0.029	n/a	NoResponse	-1	n/a	n/a	10	62	Cue	Loss	True
587.78	3.9	Lose2	0.7143	0.0	No	2.871	0.001	n/a	NoResponse	-1	n/a	n/a	10	62	Fixation	Loss	True
591.675	0.23	Lose2	0.7143	0.004	No	2.871	-0.004	2.0	NoResponse	-1	0.285	590.96	10	62	Target	Loss	True
591.909	0.47	Lose2	0.7143	n/a	No	2.871	n/a	n/a	NoResponse	-1	n/a	n/a	10	62	Blank	Loss	True
591.96	0.3	Lose2	0.7143	0.004	No	2.871	-0.004	2.0	NoResponse	-1	0.285	n/a	10	62	ButtonPress	Loss	True
592.377	1.45	Lose2	0.7143	n/a	No	2.871	n/a	5.0	NoResponse	-1	0.034	591.411	10	62	Feedback	Loss	True
593.831	2.871	Lose2	0.7143	n/a	No	2.871	n/a	n/a	NoResponse	-1	0.0	n/a	10	62	ISIslide	Loss	True
596.723	0.25	Lose2	0.7188	0.0	Yes	2.627	0.023	n/a	GoodResponse	0	n/a	n/a	10	63	Cue	AvoidedLoss	True
596.974	4.05	Lose2	0.7188	0.0	Yes	2.627	0.001	n/a	GoodResponse	0	n/a	n/a	10	63	Fixation	AvoidedLoss	True
601.019	0.22	Lose2	0.7188	0.004	Yes	2.627	-0.004	2.0	GoodResponse	0	0.198	600.217	10	63	Target	AvoidedLoss	True
601.217	0.3	Lose2	0.7188	0.004	Yes	2.627	-0.004	2.0	GoodResponse	0	0.198	n/a	10	63	ButtonPress	AvoidedLoss	True
601.253	0.48	Lose2	0.7188	n/a	Yes	2.627	n/a	n/a	GoodResponse	0	n/a	n/a	10	63	Blank	AvoidedLoss	True
601.721	1.45	Lose2	0.7188	n/a	Yes	2.627	n/a	5.0	GoodResponse	0	0.008	600.729	10	63	Feedback	AvoidedLoss	True
603.176	2.627	Lose2	0.7188	n/a	Yes	2.627	n/a	n/a	GoodResponse	0	0.0	n/a	10	63	ISIslide	AvoidedLoss	True
605.817	0.25	Win2	0.7231000000000001	0.0	Yes	3.133	0.017	n/a	GoodResponse	1	n/a	n/a	11	64	Cue	Win	True
606.068	4.15	Win2	0.7231000000000001	0.0	Yes	3.133	0.001	n/a	GoodResponse	1	n/a	n/a	11	64	Fixation	Win	True
610.214	0.21	Win2	0.7231000000000001	0.003	Yes	3.133	-0.003	2.0	GoodResponse	1	0.208	609.422	11	64	Target	Win	True
610.422	0.3	Win2	0.7231000000000001	0.003	Yes	3.133	-0.003	2.0	GoodResponse	1	0.208	n/a	11	64	ButtonPress	Win	True
610.431	0.49	Win2	0.7231000000000001	n/a	Yes	3.133	n/a	n/a	GoodResponse	1	n/a	n/a	11	64	Blank	Win	True
610.916	1.45	Win2	0.7231000000000001	n/a	Yes	3.133	n/a	5.0	GoodResponse	1	0.032	609.948	11	64	Feedback	Win	True
612.37	3.133	Win2	0.7231000000000001	n/a	Yes	3.133	n/a	n/a	GoodResponse	1	0.0	n/a	11	64	ISIslide	Win	True
615.529	0.25	Control	0.7121	0.0	No	2.771	0.029	n/a	NoResponse	0	n/a	n/a	11	65	Cue	Neutral	True
615.78	4.0	Control	0.7121	0.0	No	2.771	0.001	n/a	NoResponse	0	n/a	n/a	11	65	Fixation	Neutral	True
619.775	0.2	Control	0.7121	0.004	No	2.771	-0.004	2.0	NoResponse	0	0.273	619.048	11	65	Target	Neutral	True
619.976	0.5	Control	0.7121	n/a	No	2.771	n/a	n/a	NoResponse	0	n/a	n/a	11	65	Blank	Neutral	True
620.048	0.3	Control	0.7121	0.004	No	2.771	-0.004	2.0	NoResponse	0	0.273	n/a	11	65	ButtonPress	Neutral	True
620.478	1.45	Control	0.7121	n/a	No	2.771	n/a	5.0	NoResponse	0	0.031	619.509	11	65	Feedback	Neutral	True
621.932	2.771	Control	0.7121	n/a	No	2.771	n/a	n/a	NoResponse	0	0.0	n/a	11	65	ISIslide	Neutral	True
624.724	0.25	Win2	0.7015	0.0	No	2.776	0.024	n/a	NoResponse	0	n/a	n/a	11	66	Cue	MissedWin	True
624.974	3.9	Win2	0.7015	0.0	No	2.776	0.0	n/a	NoResponse	0	n/a	n/a	11	66	Fixation	MissedWin	True
628.886	0.19	Win2	0.7015	0.0	No	2.776	0.012	2.0	NoResponse	0	0.193	628.079	11	66	Target	MissedWin	True
629.07	0.51	Win2	0.7015	n/a	No	2.776	n/a	n/a	NoResponse	0	n/a	n/a	11	66	Blank	MissedWin	True
629.079	0.3	Win2	0.7015	0.0	No	2.776	0.012	2.0	NoResponse	0	0.193	n/a	11	66	ButtonPress	MissedWin	True
629.571	1.45	Win2	0.7015	n/a	No	2.776	n/a	5.0	NoResponse	0	0.011	628.582	11	66	Feedback	MissedWin	True
631.026	2.776	Win2	0.7015	n/a	No	2.776	n/a	n/a	NoResponse	0	0.0	n/a	11	66	ISIslide	MissedWin	True
633.817	0.25	Control	0.6912	0.0	No	2.733	0.017	n/a	NoResponse	0	n/a	n/a	11	67	Cue	Neutral	True
634.068	3.95	Control	0.6912	0.0	No	2.733	0.001	n/a	NoResponse	0	n/a	n/a	11	67	Fixation	Neutral	True
638.013	0.18	Control	0.6912	0.004	No	2.733	-0.004	2.0	NoResponse	0	0.246	637.259	11	67	Target	Neutral	True
638.197	0.52	Control	0.6912	n/a	No	2.733	n/a	n/a	NoResponse	0	n/a	n/a	11	67	Blank	Neutral	True
638.259	0.3	Control	0.6912	0.004	No	2.733	-0.004	2.0	NoResponse	0	0.246	n/a	11	67	ButtonPress	Neutral	True
638.715	1.45	Control	0.6912	n/a	No	2.733	n/a	5.0	NoResponse	0	0.037	637.752	11	67	Feedback	Neutral	True
640.17	2.733	Control	0.6912	n/a	No	2.733	n/a	n/a	NoResponse	0	0.0	n/a	11	67	ISIslide	Neutral	True
642.928	0.25	Win2	0.6812	0.0	No	3.072	0.028	n/a	NoResponse	0	n/a	n/a	11	68	Cue	MissedWin	True
643.179	4.0	Win2	0.6812	0.0	No	3.072	0.001	n/a	NoResponse	0	n/a	n/a	11	68	Fixation	MissedWin	True
647.174	0.17	Win2	0.6812	0.004	No	3.072	-0.004	2.0	NoResponse	0	0.196	646.37	11	68	Target	MissedWin	True
647.358	0.53	Win2	0.6812	n/a	No	3.072	n/a	n/a	NoResponse	0	n/a	n/a	11	68	Blank	MissedWin	True
647.37	0.3	Win2	0.6812	0.004	No	3.072	-0.004	2.0	NoResponse	0	0.196	n/a	11	68	ButtonPress	MissedWin	True
647.876	1.45	Win2	0.6812	n/a	No	3.072	n/a	5.0	NoResponse	0	0.047	646.923	11	68	Feedback	MissedWin	True
649.33	3.072	Win2	0.6812	n/a	No	3.072	n/a	n/a	NoResponse	0	0.0	n/a	11	68	ISIslide	MissedWin	True
652.423	0.25	Win2	0.6714	0.0	No	3.227	0.023	n/a	NoResponse	0	n/a	n/a	11	69	Cue	MissedWin	True
652.674	3.95	Win2	0.6714	0.0	No	3.227	0.001	n/a	NoResponse	0	n/a	n/a	11	69	Fixation	MissedWin	True
656.619	0.16	Win2	0.6714	0.004	No	3.227	-0.004	2.0	NoResponse	0	0.221	655.84	11	69	Target	MissedWin	True
656.786	0.54	Win2	0.6714	n/a	No	3.227	n/a	n/a	NoResponse	0	n/a	n/a	11	69	Blank	MissedWin	True
656.84	0.3	Win2	0.6714	0.004	No	3.227	-0.004	2.0	NoResponse	0	0.221	n/a	11	69	ButtonPress	MissedWin	True
657.321	1.45	Win2	0.6714	n/a	No	3.227	n/a	5.0	NoResponse	0	0.017	656.338	11	69	Feedback	MissedWin	True
658.775	3.227	Win2	0.6714	n/a	No	3.227	n/a	n/a	NoResponse	0	0.0	n/a	11	69	ISIslide	MissedWin	True
662.018	0.25	Lose2	0.662	0.0	No	3.032	0.018	n/a	NoResponse	-1	n/a	n/a	10	70	Cue	Loss	True
662.269	4.05	Lose2	0.662	0.0	No	3.032	0.001	n/a	NoResponse	-1	n/a	n/a	10	70	Fixation	Loss	True
666.315	0.15	Lose2	0.662	0.003	No	3.032	-0.003	2.0	NoResponse	-1	0.207	665.522	10	70	Target	Loss	True
666.465	0.55	Lose2	0.662	n/a	No	3.032	n/a	n/a	NoResponse	-1	n/a	n/a	10	70	Blank	Loss	True
666.522	0.3	Lose2	0.662	0.003	No	3.032	-0.003	2.0	NoResponse	-1	0.207	n/a	10	70	ButtonPress	Loss	True
667.017	1.45	Lose2	0.662	n/a	No	3.032	n/a	5.0	NoResponse	-1	0.028	666.045	10	70	Feedback	Loss	True
668.471	3.032	Lose2	0.662	n/a	No	3.032	n/a	n/a	NoResponse	-1	0.0	n/a	10	70	ISIslide	Loss	True
671.53	0.25	Win2	0.6528	0.0	No	2.72	0.03	n/a	NoResponse	0	n/a	n/a	10	71	Cue	MissedWin	True
671.781	4.05	Win2	0.6528	0.0	No	2.72	0.001	n/a	NoResponse	0	n/a	n/a	10	71	Fixation	MissedWin	True
675.826	0.15	Win2	0.6528	0.004	No	2.72	-0.004	2.0	NoResponse	0	0.229	675.055	10	71	Target	MissedWin	True
675.977	0.55	Win2	0.6528	n/a	No	2.72	n/a	n/a	NoResponse	0	n/a	n/a	10	71	Blank	MissedWin	True
676.055	0.3	Win2	0.6528	0.004	No	2.72	-0.004	2.0	NoResponse	0	0.229	n/a	10	71	ButtonPress	MissedWin	True
676.528	1.45	Win2	0.6528	n/a	No	2.72	n/a	5.0	NoResponse	0	0.029	675.557	10	71	Feedback	MissedWin	True
677.983	2.72	Win2	0.6528	n/a	No	2.72	n/a	n/a	NoResponse	0	0.0	n/a	10	71	ISIslide	MissedWin	True
680.724	0.25	Win2	0.6437999999999999	0.0	No	2.776	0.024	n/a	NoResponse	0	n/a	n/a	10	72	Cue	MissedWin	False
680.975	4.1	Win2	0.6437999999999999	0.0	No	2.776	0.001	2.0	NoResponse	0	3.187	683.162	10	72	Fixation	MissedWin	False
684.162	0.3	Win2	0.6437999999999999	0.0	No	2.776	0.001	2.0	NoResponse	0	3.187	n/a	10	72	ButtonPress	MissedWin	False
685.071	0.16	Win2	0.6437999999999999	0.003	No	2.776	-0.003	2.0	NoResponse	0	0.275	684.346	10	72	Target	MissedWin	False
685.238	0.54	Win2	0.6437999999999999	n/a	No	2.776	n/a	n/a	NoResponse	0	n/a	n/a	10	72	Blank	MissedWin	False
685.346	0.3	Win2	0.6437999999999999	0.003	No	2.776	-0.003	2.0	NoResponse	0	0.275	n/a	10	72	ButtonPress	MissedWin	False
685.773	1.45	Win2	0.6437999999999999	n/a	No	2.776	n/a	5.0	NoResponse	0	0.005	684.778	10	72	Feedback	MissedWin	False
687.227	2.776	Win2	0.6437999999999999	n/a	No	2.776	n/a	n/a	NoResponse	0	0.0	n/a	10	72	ISIslide	MissedWin	False
690.019	0.25	Win2	0.6351	0.0	No	2.681	0.019	n/a	NoResponse	0	n/a	n/a	10	73	Cue	MissedWin	True
690.27	4.0	Win2	0.6351	0.0	No	2.681	0.001	n/a	NoResponse	0	n/a	n/a	10	73	Fixation	MissedWin	True
694.265	0.17	Win2	0.6351	0.004	No	2.681	-0.004	2.0	NoResponse	0	0.236	693.501	10	73	Target	MissedWin	True
694.449	0.53	Win2	0.6351	n/a	No	2.681	n/a	n/a	NoResponse	0	n/a	n/a	10	73	Blank	MissedWin	True
694.501	0.3	Win2	0.6351	0.004	No	2.681	-0.004	2.0	NoResponse	0	0.236	n/a	10	73	ButtonPress	MissedWin	True
694.967	1.45	Win2	0.6351	n/a	No	2.681	n/a	5.0	NoResponse	0	0.029	693.996	10	73	Feedback	MissedWin	True
696.421	2.681	Win2	0.6351	n/a	No	2.681	n/a	n/a	NoResponse	0	0.0	n/a	10	73	ISIslide	MissedWin	True
699.129	0.25	Lose2	0.6267	0.0	No	2.621	0.029	n/a	NoResponse	-1	n/a	n/a	9	74	Cue	Loss	True
699.38	4.05	Lose2	0.6267	0.0	No	2.621	0.001	n/a	NoResponse	-1	n/a	n/a	9	74	Fixation	Loss	True
703.426	0.18	Lose2	0.6267	0.003	No	2.621	-0.003	2.0	NoResponse	-1	0.249	702.675	9	74	Target	Loss	True
703.609	0.52	Lose2	0.6267	n/a	No	2.621	n/a	n/a	NoResponse	-1	n/a	n/a	9	74	Blank	Loss	True
703.675	0.3	Lose2	0.6267	0.003	No	2.621	-0.003	2.0	NoResponse	-1	0.249	n/a	9	74	ButtonPress	Loss	True
704.128	1.45	Lose2	0.6267	n/a	No	2.621	n/a	5.0	NoResponse	-1	0.039	703.167	9	74	Feedback	Loss	True
705.582	2.621	Lose2	0.6267	n/a	No	2.621	n/a	n/a	NoResponse	-1	0.0	n/a	9	74	ISIslide	Loss	True
708.223	0.25	Lose2	0.6184000000000001	0.0	No	2.927	0.023	n/a	LatePress	-1	n/a	n/a	8	75	Cue	Loss	True
708.474	3.95	Lose2	0.6184000000000001	0.0	No	2.927	0.001	n/a	LatePress	-1	n/a	n/a	8	75	Fixation	Loss	True
712.419	0.19	Lose2	0.6184000000000001	0.004	No	2.927	-0.004	2.0	LatePress	-1	0.199	711.618	8	75	Target	Loss	True
712.618	0.3	Lose2	0.6184000000000001	0.004	No	2.927	-0.004	2.0	LatePress	-1	0.199	n/a	8	75	ButtonPress	Loss	True
712.62	0.51	Lose2	0.6184000000000001	n/a	No	2.927	n/a	n/a	LatePress	-1	n/a	n/a	8	75	Blank	Loss	True
713.121	1.45	Lose2	0.6184000000000001	n/a	No	2.927	n/a	5.0	LatePress	-1	0.021	712.142	8	75	Feedback	Loss	True
714.576	2.927	Lose2	0.6184000000000001	n/a	No	2.927	n/a	n/a	LatePress	-1	0.0	n/a	8	75	ISIslide	Loss	True
717.518	0.25	Control	0.6103999999999999	0.0	No	3.232	0.018	n/a	NoResponse	0	n/a	n/a	8	76	Cue	Neutral	True
717.768	4.05	Control	0.6103999999999999	0.0	No	3.232	0.0	2.0	NoResponse	0	4.045	720.813	8	76	Fixation	Neutral	True
721.813	0.3	Control	0.6103999999999999	0.0	No	3.232	0.0	2.0	NoResponse	0	4.045	n/a	8	76	ButtonPress	Neutral	True
721.814	0.2	Control	0.6103999999999999	0.004	No	3.232	-0.004	n/a	NoResponse	0	n/a	n/a	8	76	Target	Neutral	True
722.014	0.5	Control	0.6103999999999999	n/a	No	3.232	n/a	n/a	NoResponse	0	n/a	n/a	8	76	Blank	Neutral	True
722.516	1.45	Control	0.6103999999999999	n/a	No	3.232	n/a	5.0	NoResponse	0	0.04	721.556	8	76	Feedback	Neutral	True
723.97	3.232	Control	0.6103999999999999	n/a	No	3.232	n/a	n/a	NoResponse	0	0.0	n/a	8	76	ISIslide	Neutral	True
727.23	0.25	Lose2	0.6026	0.0	No	2.57	0.03	n/a	LatePress	-1	n/a	n/a	7	77	Cue	Loss	True
727.481	3.95	Lose2	0.6026	0.0	No	2.57	0.001	n/a	LatePress	-1	n/a	n/a	7	77	Fixation	Loss	True
731.426	0.21	Lose2	0.6026	0.004	No	2.57	-0.004	2.0	LatePress	-1	0.215	730.641	7	77	Target	Loss	True
731.641	0.3	Lose2	0.6026	0.004	No	2.57	-0.004	2.0	LatePress	-1	0.215	n/a	7	77	ButtonPress	Loss	True
731.643	0.49	Lose2	0.6026	n/a	No	2.57	n/a	n/a	LatePress	-1	n/a	n/a	7	77	Blank	Loss	True
732.128	1.45	Lose2	0.6026	n/a	No	2.57	n/a	5.0	LatePress	-1	0.038	731.166	7	77	Feedback	Loss	True
733.582	2.57	Lose2	0.6026	n/a	No	2.57	n/a	n/a	LatePress	-1	0.0	n/a	7	77	ISIslide	Loss	True
