onset	duration	cue_type	current_mean_accuracy	duration_error	is_hit	isi_adjusted	onset_delay	response	response_type	reward	rt	rt_time	total_reward	trial_number	trial_phase	trial_type	one_press
11.105	0.25	Control	1.0	0.001	Yes	2.945	0.005	n/a	GoodResponse	0	n/a	n/a	0	0	Cue	Neutral	False
11.355	3.85	Control	1.0	0.0	Yes	2.945	0.0	2.0	GoodResponse	0	0.182	10.537	0	0	Fixation	Neutral	False
11.537	0.3	Control	1.0	0.0	Yes	2.945	0.0	2.0	GoodResponse	0	0.182	n/a	0	0	ButtonPress	Neutral	False
15.204	0.4	Control	1.0	0.001	Yes	2.945	-0.001	2.0	GoodResponse	0	0.223	14.427	0	0	Target	Neutral	False
15.427	0.3	Control	1.0	0.001	Yes	2.945	-0.001	2.0	GoodResponse	0	0.223	n/a	0	0	ButtonPress	Neutral	False
15.604	0.3	Control	1.0	n/a	Yes	2.945	n/a	n/a	GoodResponse	0	n/a	n/a	0	0	Blank	Neutral	False
15.904	1.45	Control	1.0	n/a	Yes	2.945	n/a	5.0	GoodResponse	0	0.026	14.93	0	0	Feedback	Neutral	False
17.353	2.945	Control	1.0	n/a	Yes	2.945	n/a	n/a	GoodResponse	0	0.0	n/a	0	0	ISIslide	Neutral	False
20.386	0.25	Lose2	1.0	0.0	Yes	2.714	0.086	n/a	GoodResponse	0	n/a	n/a	0	1	Cue	AvoidedLoss	True
20.636	4.0	Lose2	1.0	0.0	Yes	2.714	0.0	n/a	GoodResponse	0	n/a	n/a	0	1	Fixation	AvoidedLoss	True
24.634	0.39	Lose2	1.0	0.002	Yes	2.714	-0.002	2.0	GoodResponse	0	0.213	23.847	0	1	Target	AvoidedLoss	True
24.847	0.3	Lose2	1.0	0.002	Yes	2.714	-0.002	2.0	GoodResponse	0	0.213	n/a	0	1	ButtonPress	AvoidedLoss	True
25.034	0.31	Lose2	1.0	n/a	Yes	2.714	n/a	n/a	GoodResponse	0	n/a	n/a	0	1	Blank	AvoidedLoss	True
25.334	1.45	Lose2	1.0	n/a	Yes	2.714	n/a	5.0	GoodResponse	0	0.011	24.345	0	1	Feedback	AvoidedLoss	True
26.783	2.714	Lose2	1.0	n/a	Yes	2.714	n/a	n/a	GoodResponse	0	0.0	n/a	0	1	ISIslide	AvoidedLoss	True
29.516	0.25	Control	1.0	0.0	Yes	2.584	0.016	n/a	GoodResponse	0	n/a	n/a	0	2	Cue	Neutral	True
29.766	4.1	Control	1.0	0.0	Yes	2.584	0.0	n/a	GoodResponse	0	n/a	n/a	0	2	Fixation	Neutral	True
33.864	0.38	Control	1.0	0.002	Yes	2.584	-0.002	2.0	GoodResponse	0	0.197	33.061	0	2	Target	Neutral	True
34.061	0.3	Control	1.0	0.002	Yes	2.584	-0.002	2.0	GoodResponse	0	0.197	n/a	0	2	ButtonPress	Neutral	True
34.247	0.32	Control	1.0	n/a	Yes	2.584	n/a	n/a	GoodResponse	0	n/a	n/a	0	2	Blank	Neutral	True
34.564	1.45	Control	1.0	n/a	Yes	2.584	n/a	5.0	GoodResponse	0	0.049	33.613	0	2	Feedback	Neutral	True
36.014	2.584	Control	1.0	n/a	Yes	2.584	n/a	n/a	GoodResponse	0	0.0	n/a	0	2	ISIslide	Neutral	True
38.629	0.25	Win2	0.75	0.0	No	2.821	0.029	n/a	PrematurePress	0	n/a	n/a	0	3	Cue	MissedWin	True
38.879	3.95	Win2	0.75	0.0	No	2.821	0.0	n/a	PrematurePress	0	n/a	n/a	0	3	Fixation	MissedWin	True
42.828	0.37	Win2	0.75	0.001	No	2.821	-0.001	2.0	PrematurePress	0	0.011	41.839	0	3	Target	MissedWin	True
42.839	0.3	Win2	0.75	0.001	No	2.821	-0.001	2.0	PrematurePress	0	0.011	n/a	0	3	ButtonPress	MissedWin	True
43.194	0.33	Win2	0.75	n/a	No	2.821	n/a	n/a	PrematurePress	0	n/a	n/a	0	3	Blank	MissedWin	True
43.528	1.45	Win2	0.75	n/a	No	2.821	n/a	5.0	PrematurePress	0	0.011	42.539	0	3	Feedback	MissedWin	True
44.977	2.821	Win2	0.75	n/a	No	2.821	n/a	n/a	PrematurePress	0	0.0	n/a	0	3	ISIslide	MissedWin	True
47.826	0.25	Win2	0.6	0.0	No	3.274	0.026	n/a	PrematurePress	0	n/a	n/a	0	4	Cue	MissedWin	True
48.076	4.0	Win2	0.6	0.0	No	3.274	0.0	n/a	PrematurePress	0	n/a	n/a	0	4	Fixation	MissedWin	True
52.075	0.36	Win2	0.6	0.001	No	3.274	-0.001	2.0	PrematurePress	0	0.064	51.139	0	4	Target	MissedWin	True
52.139	0.3	Win2	0.6	0.001	No	3.274	-0.001	2.0	PrematurePress	0	0.064	n/a	0	4	ButtonPress	MissedWin	True
52.441	0.34	Win2	0.6	n/a	No	3.274	n/a	n/a	PrematurePress	0	n/a	n/a	0	4	Blank	MissedWin	True
52.774	1.45	Win2	0.6	n/a	No	3.274	n/a	5.0	PrematurePress	0	0.033	51.807	0	4	Feedback	MissedWin	True
54.224	3.274	Win2	0.6	n/a	No	3.274	n/a	n/a	PrematurePress	0	0.0	n/a	0	4	ISIslide	MissedWin	True
57.523	0.25	Win2	0.6667000000000001	0.0	Yes	2.777	0.023	n/a	GoodResponse	1	n/a	n/a	1	5	Cue	Win	True
57.773	4.0	Win2	0.6667000000000001	0.0	Yes	2.777	0.0	n/a	GoodResponse	1	n/a	n/a	1	5	Fixation	Win	True
61.771	0.37	Win2	0.6667000000000001	0.002	Yes	2.777	-0.002	2.0	GoodResponse	1	0.192	60.963	1	5	Target	Win	True
61.963	0.3	Win2	0.6667000000000001	0.002	Yes	2.777	-0.002	2.0	GoodResponse	1	0.192	n/a	1	5	ButtonPress	Win	True
62.154	0.33	Win2	0.6667000000000001	n/a	Yes	2.777	n/a	n/a	GoodResponse	1	n/a	n/a	1	5	Blank	Win	True
62.471	1.45	Win2	0.6667000000000001	n/a	Yes	2.777	n/a	5.0	GoodResponse	1	0.044	61.515	1	5	Feedback	Win	True
63.921	2.777	Win2	0.6667000000000001	n/a	Yes	2.777	n/a	n/a	GoodResponse	1	0.0	n/a	1	5	ISIslide	Win	True
66.72	0.25	Lose2	0.7143	0.0	Yes	2.73	0.02	n/a	GoodResponse	0	n/a	n/a	1	6	Cue	AvoidedLoss	True
66.969	3.95	Lose2	0.7143	0.001	Yes	2.73	-0.001	n/a	GoodResponse	0	n/a	n/a	1	6	Fixation	AvoidedLoss	True
70.918	0.36	Lose2	0.7143	0.002	Yes	2.73	-0.002	2.0	GoodResponse	0	0.2	70.118	1	6	Target	AvoidedLoss	True
71.118	0.3	Lose2	0.7143	0.002	Yes	2.73	-0.002	2.0	GoodResponse	0	0.2	n/a	1	6	ButtonPress	AvoidedLoss	True
71.285	0.34	Lose2	0.7143	n/a	Yes	2.73	n/a	n/a	GoodResponse	0	n/a	n/a	1	6	Blank	AvoidedLoss	True
71.618	1.45	Lose2	0.7143	n/a	Yes	2.73	n/a	5.0	GoodResponse	0	0.019	70.637	1	6	Feedback	AvoidedLoss	True
73.067	2.73	Lose2	0.7143	n/a	Yes	2.73	n/a	n/a	GoodResponse	0	0.0	n/a	1	6	ISIslide	AvoidedLoss	True
75.816	0.25	Lose2	0.75	0.001	Yes	4.034	0.016	n/a	GoodResponse	0	n/a	n/a	1	7	Cue	AvoidedLoss	True
76.066	4.05	Lose2	0.75	0.0	Yes	4.034	0.0	n/a	GoodResponse	0	n/a	n/a	1	7	Fixation	AvoidedLoss	True
80.115	0.35	Lose2	0.75	0.001	Yes	4.034	-0.001	2.0	GoodResponse	0	0.16	79.275	1	7	Target	AvoidedLoss	True
80.275	0.3	Lose2	0.75	0.001	Yes	4.034	-0.001	2.0	GoodResponse	0	0.16	n/a	1	7	ButtonPress	AvoidedLoss	True
80.465	0.35	Lose2	0.75	n/a	Yes	4.034	n/a	n/a	GoodResponse	0	n/a	n/a	1	7	Blank	AvoidedLoss	True
80.815	1.45	Lose2	0.75	n/a	Yes	4.034	n/a	5.0	GoodResponse	0	0.041	79.856	1	7	Feedback	AvoidedLoss	True
82.264	4.034	Lose2	0.75	n/a	Yes	4.034	n/a	n/a	GoodResponse	0	0.0	n/a	1	7	ISIslide	AvoidedLoss	True
86.329	0.25	Lose2	0.7778	0.001	Yes	3.021	0.029	n/a	GoodResponse	0	n/a	n/a	1	8	Cue	AvoidedLoss	True
86.579	3.95	Lose2	0.7778	0.0	Yes	3.021	0.0	n/a	GoodResponse	0	n/a	n/a	1	8	Fixation	AvoidedLoss	True
90.528	0.34	Lose2	0.7778	0.001	Yes	3.021	-0.001	2.0	GoodResponse	0	0.209	89.737	1	8	Target	AvoidedLoss	True
90.737	0.3	Lose2	0.7778	0.001	Yes	3.021	-0.001	2.0	GoodResponse	0	0.209	n/a	1	8	ButtonPress	AvoidedLoss	True
90.878	0.36	Lose2	0.7778	n/a	Yes	3.021	n/a	n/a	GoodResponse	0	n/a	n/a	1	8	Blank	AvoidedLoss	True
91.228	1.45	Lose2	0.7778	n/a	Yes	3.021	n/a	5.0	GoodResponse	0	0.019	90.247	1	8	Feedback	AvoidedLoss	True
92.677	3.021	Lose2	0.7778	n/a	Yes	3.021	n/a	n/a	GoodResponse	0	0.0	n/a	1	8	ISIslide	AvoidedLoss	True
95.726	0.25	Lose2	0.7	0.0	No	3.124	0.026	n/a	NoResponse	-1	n/a	n/a	0	9	Cue	Loss	True
95.976	3.95	Lose2	0.7	0.0	No	3.124	0.0	2.0	NoResponse	-1	3.899	98.875	0	9	Fixation	Loss	True
99.875	0.3	Lose2	0.7	0.0	No	3.124	0.0	2.0	NoResponse	-1	3.899	n/a	0	9	ButtonPress	Loss	True
99.925	0.33	Lose2	0.7	0.001	No	3.124	-0.001	n/a	NoResponse	-1	n/a	n/a	0	9	Target	Loss	True
100.258	0.37	Lose2	0.7	n/a	No	3.124	n/a	n/a	NoResponse	-1	n/a	n/a	0	9	Blank	Loss	True
100.625	1.45	Lose2	0.7	n/a	No	3.124	n/a	5.0	NoResponse	-1	0.036	99.661	0	9	Feedback	Loss	True
102.074	3.124	Lose2	0.7	n/a	No	3.124	n/a	n/a	NoResponse	-1	0.0	n/a	0	9	ISIslide	Loss	True
105.223	0.25	Control	0.7273000000000001	0.0	Yes	3.277	0.023	n/a	GoodResponse	0	n/a	n/a	0	10	Cue	Neutral	True
105.473	4.0	Control	0.7273000000000001	0.0	Yes	3.277	0.0	n/a	GoodResponse	0	n/a	n/a	0	10	Fixation	Neutral	True
109.471	0.32	Control	0.7273000000000001	0.002	Yes	3.277	-0.002	2.0	GoodResponse	0	0.218	108.689	0	10	Target	Neutral	True
109.689	0.3	Control	0.7273000000000001	0.002	Yes	3.277	-0.002	2.0	GoodResponse	0	0.218	n/a	0	10	ButtonPress	Neutral	True
109.805	0.38	Control	0.7273000000000001	n/a	Yes	3.277	n/a	n/a	GoodResponse	0	n/a	n/a	0	10	Blank	Neutral	True
110.171	1.45	Control	0.7273000000000001	n/a	Yes	3.277	n/a	5.0	GoodResponse	0	0.007	109.178	0	10	Feedback	Neutral	True
111.621	3.277	Control	0.7273000000000001	n/a	Yes	3.277	n/a	n/a	GoodResponse	0	0.0	n/a	0	10	ISIslide	Neutral	True
114.92	0.25	Lose2	0.75	0.0	Yes	2.73	0.02	n/a	GoodResponse	0	n/a	n/a	0	11	Cue	AvoidedLoss	True
115.169	4.05	Lose2	0.75	0.001	Yes	2.73	-0.001	n/a	GoodResponse	0	n/a	n/a	0	11	Fixation	AvoidedLoss	True
119.218	0.31	Lose2	0.75	0.002	Yes	2.73	-0.002	2.0	GoodResponse	0	0.196	118.414	0	11	Target	AvoidedLoss	True
119.414	0.3	Lose2	0.75	0.002	Yes	2.73	-0.002	2.0	GoodResponse	0	0.196	n/a	0	11	ButtonPress	AvoidedLoss	True
119.535	0.39	Lose2	0.75	n/a	Yes	2.73	n/a	n/a	GoodResponse	0	n/a	n/a	0	11	Blank	AvoidedLoss	True
119.918	1.45	Lose2	0.75	n/a	Yes	2.73	n/a	5.0	GoodResponse	0	0.011	118.929	0	11	Feedback	AvoidedLoss	True
121.367	2.73	Lose2	0.75	n/a	Yes	2.73	n/a	n/a	GoodResponse	0	0.0	n/a	0	11	ISIslide	AvoidedLoss	True
124.116	0.25	Control	0.7692	0.0	Yes	2.984	0.016	n/a	GoodResponse	0	n/a	n/a	0	12	Cue	Neutral	True
124.366	3.9	Control	0.7692	0.0	Yes	2.984	0.0	n/a	GoodResponse	0	n/a	n/a	0	12	Fixation	Neutral	True
128.265	0.3	Control	0.7692	0.001	Yes	2.984	-0.001	2.0	GoodResponse	0	0.211	127.476	0	12	Target	Neutral	True
128.476	0.3	Control	0.7692	0.001	Yes	2.984	-0.001	2.0	GoodResponse	0	0.211	n/a	0	12	ButtonPress	Neutral	True
128.565	0.4	Control	0.7692	n/a	Yes	2.984	n/a	n/a	GoodResponse	0	n/a	n/a	0	12	Blank	Neutral	True
128.965	1.45	Control	0.7692	n/a	Yes	2.984	n/a	5.0	GoodResponse	0	0.037	128.002	0	12	Feedback	Neutral	True
130.414	2.984	Control	0.7692	n/a	Yes	2.984	n/a	n/a	GoodResponse	0	0.0	n/a	0	12	ISIslide	Neutral	True
133.413	0.25	Control	0.7857	0.0	Yes	2.787	0.013	n/a	GoodResponse	0	n/a	n/a	0	13	Cue	Neutral	True
133.663	4.0	Control	0.7857	0.0	Yes	2.787	0.0	n/a	GoodResponse	0	n/a	n/a	0	13	Fixation	Neutral	True
137.662	0.29	Control	0.7857	0.001	Yes	2.787	-0.001	2.0	GoodResponse	0	0.198	136.86	0	13	Target	Neutral	True
137.86	0.3	Control	0.7857	0.001	Yes	2.787	-0.001	2.0	GoodResponse	0	0.198	n/a	0	13	ButtonPress	Neutral	True
137.962	0.41	Control	0.7857	n/a	Yes	2.787	n/a	n/a	GoodResponse	0	n/a	n/a	0	13	Blank	Neutral	True
138.361	1.45	Control	0.7857	n/a	Yes	2.787	n/a	5.0	GoodResponse	0	0.007	137.368	0	13	Feedback	Neutral	True
139.811	2.787	Control	0.7857	n/a	Yes	2.787	n/a	n/a	GoodResponse	0	0.0	n/a	0	13	ISIslide	Neutral	True
142.627	0.25	Win2	0.8	0.0	Yes	2.673	0.027	n/a	GoodResponse	1	n/a	n/a	1	14	Cue	Win	True
142.877	4.1	Win2	0.8	0.0	Yes	2.673	0.0	n/a	GoodResponse	1	n/a	n/a	1	14	Fixation	Win	True
146.975	0.28	Win2	0.8	0.002	Yes	2.673	-0.002	2.0	GoodResponse	1	0.19	146.165	1	14	Target	Win	True
147.165	0.3	Win2	0.8	0.002	Yes	2.673	-0.002	2.0	GoodResponse	1	0.19	n/a	1	14	ButtonPress	Win	True
147.258	0.42	Win2	0.8	n/a	Yes	2.673	n/a	n/a	GoodResponse	1	n/a	n/a	1	14	Blank	Win	True
147.675	1.45	Win2	0.8	n/a	Yes	2.673	n/a	5.0	GoodResponse	1	0.011	146.686	1	14	Feedback	Win	True
149.124	2.673	Win2	0.8	n/a	Yes	2.673	n/a	n/a	GoodResponse	1	0.0	n/a	1	14	ISIslide	Win	True
151.823	0.25	Control	0.8125	0.001	Yes	2.977	0.023	n/a	GoodResponse	0	n/a	n/a	1	15	Cue	Neutral	True
152.073	4.0	Control	0.8125	0.0	Yes	2.977	0.0	n/a	GoodResponse	0	n/a	n/a	1	15	Fixation	Neutral	True
156.072	0.27	Control	0.8125	0.001	Yes	2.977	-0.001	2.0	GoodResponse	0	0.183	155.255	1	15	Target	Neutral	True
156.255	0.3	Control	0.8125	0.001	Yes	2.977	-0.001	2.0	GoodResponse	0	0.183	n/a	1	15	ButtonPress	Neutral	True
156.339	0.43	Control	0.8125	n/a	Yes	2.977	n/a	n/a	GoodResponse	0	n/a	n/a	1	15	Blank	Neutral	True
156.772	1.45	Control	0.8125	n/a	Yes	2.977	n/a	5.0	GoodResponse	0	0.035	155.807	1	15	Feedback	Neutral	True
158.221	2.977	Control	0.8125	n/a	Yes	2.977	n/a	n/a	GoodResponse	0	0.0	n/a	1	15	ISIslide	Neutral	True
161.22	0.25	Win2	0.8234999999999999	0.0	Yes	2.88	0.02	n/a	GoodResponse	1	n/a	n/a	2	16	Cue	Win	True
161.47	4.0	Win2	0.8234999999999999	0.0	Yes	2.88	0.0	n/a	GoodResponse	1	n/a	n/a	2	16	Fixation	Win	True
165.469	0.26	Win2	0.8234999999999999	0.001	Yes	2.88	-0.001	2.0	GoodResponse	1	0.187	164.656	2	16	Target	Win	True
165.656	0.3	Win2	0.8234999999999999	0.001	Yes	2.88	-0.001	2.0	GoodResponse	1	0.187	n/a	2	16	ButtonPress	Win	True
165.735	0.44	Win2	0.8234999999999999	n/a	Yes	2.88	n/a	n/a	GoodResponse	1	n/a	n/a	2	16	Blank	Win	True
166.169	1.45	Win2	0.8234999999999999	n/a	Yes	2.88	n/a	5.0	GoodResponse	1	0.005	165.174	2	16	Feedback	Win	True
167.618	2.88	Win2	0.8234999999999999	n/a	Yes	2.88	n/a	n/a	GoodResponse	1	0.0	n/a	2	16	ISIslide	Win	True
170.517	0.25	Lose2	0.8332999999999999	0.0	Yes	2.733	0.017	n/a	GoodResponse	0	n/a	n/a	2	17	Cue	AvoidedLoss	True
170.767	3.95	Lose2	0.8332999999999999	0.0	Yes	2.733	0.0	n/a	GoodResponse	0	n/a	n/a	2	17	Fixation	AvoidedLoss	True
174.716	0.25	Lose2	0.8332999999999999	0.001	Yes	2.733	-0.001	2.0	GoodResponse	0	0.198	173.914	2	17	Target	AvoidedLoss	True
174.914	0.3	Lose2	0.8332999999999999	0.001	Yes	2.733	-0.001	2.0	GoodResponse	0	0.198	n/a	2	17	ButtonPress	AvoidedLoss	True
174.965	0.45	Lose2	0.8332999999999999	n/a	Yes	2.733	n/a	n/a	GoodResponse	0	n/a	n/a	2	17	Blank	AvoidedLoss	True
175.415	1.45	Lose2	0.8332999999999999	n/a	Yes	2.733	n/a	5.0	GoodResponse	0	0.026	174.441	2	17	Feedback	AvoidedLoss	True
176.865	2.733	Lose2	0.8332999999999999	n/a	Yes	2.733	n/a	n/a	GoodResponse	0	0.0	n/a	2	17	ISIslide	AvoidedLoss	True
179.631	0.25	Lose2	0.7895	0.0	No	2.719	0.031	n/a	NoResponse	-1	n/a	n/a	1	18	Cue	Loss	True
179.88	4.05	Lose2	0.7895	0.001	No	2.719	-0.001	n/a	NoResponse	-1	n/a	n/a	1	18	Fixation	Loss	True
183.929	0.24	Lose2	0.7895	0.002	No	2.719	-0.002	2.0	NoResponse	-1	0.279	183.208	1	18	Target	Loss	True
184.179	0.46	Lose2	0.7895	n/a	No	2.719	n/a	n/a	NoResponse	-1	n/a	n/a	1	18	Blank	Loss	True
184.208	0.3	Lose2	0.7895	0.002	No	2.719	-0.002	2.0	NoResponse	-1	0.279	n/a	1	18	ButtonPress	Loss	True
184.629	1.45	Lose2	0.7895	n/a	No	2.719	n/a	5.0	NoResponse	-1	0.032	183.661	1	18	Feedback	Loss	True
186.078	2.719	Lose2	0.7895	n/a	No	2.719	n/a	n/a	NoResponse	-1	0.0	n/a	1	18	ISIslide	Loss	True
188.827	0.25	Control	0.8	0.0	Yes	2.923	0.027	n/a	GoodResponse	0	n/a	n/a	1	19	Cue	Neutral	True
189.077	3.95	Control	0.8	0.0	Yes	2.923	0.0	n/a	GoodResponse	0	n/a	n/a	1	19	Fixation	Neutral	True
193.026	0.23	Control	0.8	0.001	Yes	2.923	-0.001	2.0	GoodResponse	0	0.189	192.215	1	19	Target	Neutral	True
193.215	0.3	Control	0.8	0.001	Yes	2.923	-0.001	2.0	GoodResponse	0	0.189	n/a	1	19	ButtonPress	Neutral	True
193.259	0.47	Control	0.8	n/a	Yes	2.923	n/a	n/a	GoodResponse	0	n/a	n/a	1	19	Blank	Neutral	True
193.726	1.45	Control	0.8	n/a	Yes	2.923	n/a	5.0	GoodResponse	0	0.008	192.734	1	19	Feedback	Neutral	True
195.175	2.923	Control	0.8	n/a	Yes	2.923	n/a	n/a	GoodResponse	0	0.0	n/a	1	19	ISIslide	Neutral	True
198.124	0.25	Control	0.8095	0.0	Yes	2.626	0.024	n/a	GoodResponse	0	n/a	n/a	1	20	Cue	Neutral	True
198.374	4.05	Control	0.8095	0.0	Yes	2.626	0.0	n/a	GoodResponse	0	n/a	n/a	1	20	Fixation	Neutral	True
202.423	0.22	Control	0.8095	0.001	Yes	2.626	-0.001	2.0	GoodResponse	0	0.209	201.632	1	20	Target	Neutral	True
202.632	0.3	Control	0.8095	0.001	Yes	2.626	-0.001	2.0	GoodResponse	0	0.209	n/a	1	20	ButtonPress	Neutral	True
202.656	0.48	Control	0.8095	n/a	Yes	2.626	n/a	n/a	GoodResponse	0	n/a	n/a	1	20	Blank	Neutral	True
203.122	1.45	Control	0.8095	n/a	Yes	2.626	n/a	5.0	GoodResponse	0	0.027	202.149	1	20	Feedback	Neutral	True
204.572	2.626	Control	0.8095	n/a	Yes	2.626	n/a	n/a	GoodResponse	0	0.0	n/a	1	20	ISIslide	Neutral	True
207.221	0.25	Control	0.8181999999999999	0.0	Yes	2.779	0.021	n/a	GoodResponse	0	n/a	n/a	1	21	Cue	Neutral	True
207.471	4.1	Control	0.8181999999999999	0.0	Yes	2.779	0.0	n/a	GoodResponse	0	n/a	n/a	1	21	Fixation	Neutral	True
211.57	0.21	Control	0.8181999999999999	0.001	Yes	2.779	-0.001	2.0	GoodResponse	0	0.187	210.757	1	21	Target	Neutral	True
211.757	0.3	Control	0.8181999999999999	0.001	Yes	2.779	-0.001	2.0	GoodResponse	0	0.187	n/a	1	21	ButtonPress	Neutral	True
211.786	0.49	Control	0.8181999999999999	n/a	Yes	2.779	n/a	n/a	GoodResponse	0	n/a	n/a	1	21	Blank	Neutral	True
212.269	1.45	Control	0.8181999999999999	n/a	Yes	2.779	n/a	5.0	GoodResponse	0	0.002	211.271	1	21	Feedback	Neutral	True
213.719	2.779	Control	0.8181999999999999	n/a	Yes	2.779	n/a	n/a	GoodResponse	0	0.0	n/a	1	21	ISIslide	Neutral	True
216.518	0.25	Control	0.7826000000000001	0.0	No	2.782	0.018	n/a	NoResponse	0	n/a	n/a	1	22	Cue	Neutral	True
216.768	4.0	Control	0.7826000000000001	0.0	No	2.782	0.0	n/a	NoResponse	0	n/a	n/a	1	22	Fixation	Neutral	True
220.766	0.2	Control	0.7826000000000001	0.002	No	2.782	-0.002	2.0	NoResponse	0	0.244	220.01	1	22	Target	Neutral	True
220.966	0.5	Control	0.7826000000000001	n/a	No	2.782	n/a	n/a	NoResponse	0	n/a	n/a	1	22	Blank	Neutral	True
221.01	0.3	Control	0.7826000000000001	0.002	No	2.782	-0.002	2.0	NoResponse	0	0.244	n/a	1	22	ButtonPress	Neutral	True
221.466	1.45	Control	0.7826000000000001	n/a	No	2.782	n/a	5.0	NoResponse	0	0.023	220.489	1	22	Feedback	Neutral	True
222.916	2.782	Control	0.7826000000000001	n/a	No	2.782	n/a	n/a	NoResponse	0	0.0	n/a	1	22	ISIslide	Neutral	True
225.715	0.25	Control	0.75	0.0	No	2.785	0.015	n/a	NoResponse	0	n/a	n/a	1	23	Cue	Neutral	True
225.965	3.9	Control	0.75	0.0	No	2.785	0.0	n/a	NoResponse	0	n/a	n/a	1	23	Fixation	Neutral	True
229.863	0.19	Control	0.75	0.002	No	2.785	-0.002	2.0	NoResponse	0	0.234	229.097	1	23	Target	Neutral	True
230.063	0.51	Control	0.75	n/a	No	2.785	n/a	n/a	NoResponse	0	n/a	n/a	1	23	Blank	Neutral	True
230.097	0.3	Control	0.75	0.002	No	2.785	-0.002	2.0	NoResponse	0	0.234	n/a	1	23	ButtonPress	Neutral	True
230.563	1.45	Control	0.75	n/a	No	2.785	n/a	5.0	NoResponse	0	0.0	229.563	1	23	Feedback	Neutral	True
232.012	2.785	Control	0.75	n/a	No	2.785	n/a	n/a	NoResponse	0	0.0	n/a	1	23	ISIslide	Neutral	True
234.828	0.25	Win2	0.76	0.0	Yes	3.122	0.028	n/a	GoodResponse	1	n/a	n/a	2	24	Cue	Win	True
235.078	3.95	Win2	0.76	0.0	Yes	3.122	0.0	n/a	GoodResponse	1	n/a	n/a	2	24	Fixation	Win	True
239.027	0.18	Win2	0.76	0.001	Yes	3.122	-0.001	2.0	GoodResponse	1	0.172	238.199	2	24	Target	Win	True
239.199	0.3	Win2	0.76	0.001	Yes	3.122	-0.001	2.0	GoodResponse	1	0.172	n/a	2	24	ButtonPress	Win	True
239.21	0.52	Win2	0.76	n/a	Yes	3.122	n/a	n/a	GoodResponse	1	n/a	n/a	2	24	Blank	Win	True
239.726	1.45	Win2	0.76	n/a	Yes	3.122	n/a	5.0	GoodResponse	1	0.008	238.734	2	24	Feedback	Win	True
241.176	3.122	Win2	0.76	n/a	Yes	3.122	n/a	n/a	GoodResponse	1	0.0	n/a	2	24	ISIslide	Win	True
244.325	0.25	Win2	0.7308	0.0	No	3.075	0.025	n/a	LatePress	0	n/a	n/a	2	25	Cue	MissedWin	True
244.575	4.0	Win2	0.7308	0.0	No	3.075	0.0	n/a	LatePress	0	n/a	n/a	2	25	Fixation	MissedWin	True
248.573	0.17	Win2	0.7308	0.002	No	3.075	-0.002	2.0	LatePress	0	0.181	247.754	2	25	Target	MissedWin	True
248.754	0.3	Win2	0.7308	0.002	No	3.075	-0.002	2.0	LatePress	0	0.181	n/a	2	25	ButtonPress	MissedWin	True
248.757	0.53	Win2	0.7308	n/a	No	3.075	n/a	n/a	LatePress	0	n/a	n/a	2	25	Blank	MissedWin	True
249.273	1.45	Win2	0.7308	n/a	No	3.075	n/a	5.0	LatePress	0	0.022	248.295	2	25	Feedback	MissedWin	True
250.723	3.075	Win2	0.7308	n/a	No	3.075	n/a	n/a	LatePress	0	0.0	n/a	2	25	ISIslide	MissedWin	True
253.822	0.25	Win2	0.7037	0.0	No	2.928	0.022	n/a	NoResponse	0	n/a	n/a	2	26	Cue	MissedWin	True
254.071	3.95	Win2	0.7037	0.001	No	2.928	-0.001	n/a	NoResponse	0	n/a	n/a	2	26	Fixation	MissedWin	True
258.02	0.16	Win2	0.7037	0.002	No	2.928	-0.002	2.0	NoResponse	0	0.223	257.243	2	26	Target	MissedWin	True
258.187	0.54	Win2	0.7037	n/a	No	2.928	n/a	n/a	NoResponse	0	n/a	n/a	2	26	Blank	MissedWin	True
258.243	0.3	Win2	0.7037	0.002	No	2.928	-0.002	2.0	NoResponse	0	0.223	n/a	2	26	ButtonPress	MissedWin	True
258.72	1.45	Win2	0.7037	n/a	No	2.928	n/a	5.0	NoResponse	0	0.038	257.758	2	26	Feedback	MissedWin	True
260.169	2.928	Win2	0.7037	n/a	No	2.928	n/a	n/a	NoResponse	0	0.0	n/a	2	26	ISIslide	MissedWin	True
263.118	0.25	Lose2	0.6786	0.0	No	2.832	0.018	n/a	NoResponse	-1	n/a	n/a	1	27	Cue	Loss	True
263.368	4.05	Lose2	0.6786	0.0	No	2.832	0.0	n/a	NoResponse	-1	n/a	n/a	1	27	Fixation	Loss	True
267.417	0.15	Lose2	0.6786	0.001	No	2.832	-0.001	2.0	NoResponse	-1	0.176	266.593	1	27	Target	Loss	True
267.567	0.55	Lose2	0.6786	n/a	No	2.832	n/a	n/a	NoResponse	-1	n/a	n/a	1	27	Blank	Loss	True
267.593	0.3	Lose2	0.6786	0.001	No	2.832	-0.001	2.0	NoResponse	-1	0.176	n/a	1	27	ButtonPress	Loss	True
268.117	1.45	Lose2	0.6786	n/a	No	2.832	n/a	5.0	NoResponse	-1	0.007	267.124	1	27	Feedback	Loss	True
269.566	2.832	Lose2	0.6786	n/a	No	2.832	n/a	n/a	NoResponse	-1	0.0	n/a	1	27	ISIslide	Loss	True
272.415	0.25	Control	0.6552	0.0	No	2.835	0.015	n/a	NoResponse	0	n/a	n/a	1	28	Cue	Neutral	True
272.665	4.05	Control	0.6552	0.0	No	2.835	0.0	n/a	NoResponse	0	n/a	n/a	1	28	Fixation	Neutral	True
276.714	0.15	Control	0.6552	0.001	No	2.835	-0.001	2.0	NoResponse	0	0.198	275.912	1	28	Target	Neutral	True
276.864	0.55	Control	0.6552	n/a	No	2.835	n/a	n/a	NoResponse	0	n/a	n/a	1	28	Blank	Neutral	True
276.912	0.3	Control	0.6552	0.001	No	2.835	-0.001	2.0	NoResponse	0	0.198	n/a	1	28	ButtonPress	Neutral	True
277.413	1.45	Control	0.6552	n/a	No	2.835	n/a	5.0	NoResponse	0	0.027	276.44	1	28	Feedback	Neutral	True
278.863	2.835	Control	0.6552	n/a	No	2.835	n/a	n/a	NoResponse	0	0.0	n/a	1	28	ISIslide	Neutral	True
281.729	0.25	Lose2	0.6667000000000001	0.0	Yes	2.821	0.029	n/a	GoodResponse	0	n/a	n/a	1	29	Cue	AvoidedLoss	True
281.978	3.95	Lose2	0.6667000000000001	0.001	Yes	2.821	-0.001	n/a	GoodResponse	0	n/a	n/a	1	29	Fixation	AvoidedLoss	True
285.927	0.15	Lose2	0.6667000000000001	0.002	Yes	2.821	-0.002	2.0	GoodResponse	0	0.149	285.076	1	29	Target	AvoidedLoss	True
286.076	0.3	Lose2	0.6667000000000001	0.002	Yes	2.821	-0.002	2.0	GoodResponse	0	0.149	n/a	1	29	ButtonPress	AvoidedLoss	True
286.077	0.55	Lose2	0.6667000000000001	n/a	Yes	2.821	n/a	n/a	GoodResponse	0	n/a	n/a	1	29	Blank	AvoidedLoss	True
286.627	1.45	Lose2	0.6667000000000001	n/a	Yes	2.821	n/a	5.0	GoodResponse	0	0.033	285.66	1	29	Feedback	AvoidedLoss	True
288.076	2.821	Lose2	0.6667000000000001	n/a	Yes	2.821	n/a	n/a	GoodResponse	0	0.0	n/a	1	29	ISIslide	AvoidedLoss	True
290.925	0.25	Win2	0.6774	0.001	Yes	2.775	0.025	n/a	GoodResponse	1	n/a	n/a	2	30	Cue	Win	True
291.175	3.9	Win2	0.6774	0.0	Yes	2.775	0.0	n/a	GoodResponse	1	n/a	n/a	2	30	Fixation	Win	True
295.074	0.15	Win2	0.6774	0.001	Yes	2.775	-0.001	2.0	GoodResponse	1	0.124	294.198	2	30	Target	Win	True
295.198	0.3	Win2	0.6774	0.001	Yes	2.775	-0.001	2.0	GoodResponse	1	0.124	n/a	2	30	ButtonPress	Win	True
295.224	0.55	Win2	0.6774	n/a	Yes	2.775	n/a	n/a	GoodResponse	1	n/a	n/a	2	30	Blank	Win	True
295.774	1.45	Win2	0.6774	n/a	Yes	2.775	n/a	5.0	GoodResponse	1	0.008	294.782	2	30	Feedback	Win	True
297.223	2.775	Win2	0.6774	n/a	Yes	2.775	n/a	n/a	GoodResponse	1	0.0	n/a	2	30	ISIslide	Win	True
300.022	0.25	Lose2	0.6562	0.0	No	2.828	0.022	n/a	NoResponse	-1	n/a	n/a	1	31	Cue	Loss	True
300.272	4.05	Lose2	0.6562	0.0	No	2.828	0.0	n/a	NoResponse	-1	n/a	n/a	1	31	Fixation	Loss	True
304.321	0.15	Lose2	0.6562	0.001	No	2.828	-0.001	2.0	NoResponse	-1	0.166	303.487	1	31	Target	Loss	True
304.471	0.55	Lose2	0.6562	n/a	No	2.828	n/a	n/a	NoResponse	-1	n/a	n/a	1	31	Blank	Loss	True
304.487	0.3	Lose2	0.6562	0.001	No	2.828	-0.001	2.0	NoResponse	-1	0.166	n/a	1	31	ButtonPress	Loss	True
305.021	1.45	Lose2	0.6562	n/a	No	2.828	n/a	5.0	NoResponse	-1	0.029	304.05	1	31	Feedback	Loss	True
306.47	2.828	Lose2	0.6562	n/a	No	2.828	n/a	n/a	NoResponse	-1	0.0	n/a	1	31	ISIslide	Loss	True
309.319	0.25	Lose2	0.6364	0.0	No	2.631	0.019	n/a	NoResponse	-1	n/a	n/a	0	32	Cue	Loss	True
309.569	4.15	Lose2	0.6364	0.0	No	2.631	0.0	2.0	NoResponse	-1	4.068	312.637	0	32	Fixation	Loss	True
313.637	0.3	Lose2	0.6364	0.0	No	2.631	0.0	2.0	NoResponse	-1	4.068	n/a	0	32	ButtonPress	Loss	True
313.718	0.15	Lose2	0.6364	0.001	No	2.631	-0.001	n/a	NoResponse	-1	n/a	n/a	0	32	Target	Loss	True
313.867	0.55	Lose2	0.6364	n/a	No	2.631	n/a	n/a	NoResponse	-1	n/a	n/a	0	32	Blank	Loss	True
314.417	1.45	Lose2	0.6364	n/a	No	2.631	n/a	5.0	NoResponse	-1	0.048	313.465	0	32	Feedback	Loss	True
315.867	2.631	Lose2	0.6364	n/a	No	2.631	n/a	n/a	NoResponse	-1	0.0	n/a	0	32	ISIslide	Loss	True
318.516	0.25	Win2	0.6175999999999999	0.0	No	2.684	0.016	n/a	NoResponse	0	n/a	n/a	0	33	Cue	MissedWin	True
318.766	4.0	Win2	0.6175999999999999	0.0	No	2.684	0.0	n/a	NoResponse	0	n/a	n/a	0	33	Fixation	MissedWin	True
322.764	0.16	Win2	0.6175999999999999	0.002	No	2.684	-0.002	2.0	NoResponse	0	0.3	322.064	0	33	Target	MissedWin	True
322.931	0.54	Win2	0.6175999999999999	n/a	No	2.684	n/a	n/a	NoResponse	0	n/a	n/a	0	33	Blank	MissedWin	True
323.064	0.3	Win2	0.6175999999999999	0.002	No	2.684	-0.002	2.0	NoResponse	0	0.3	n/a	0	33	ButtonPress	MissedWin	True
323.464	1.45	Win2	0.6175999999999999	n/a	No	2.684	n/a	5.0	NoResponse	0	0.026	322.49	0	33	Feedback	MissedWin	True
324.914	2.684	Win2	0.6175999999999999	n/a	No	2.684	n/a	n/a	NoResponse	0	0.0	n/a	0	33	ISIslide	MissedWin	True
327.613	0.25	Lose2	0.6	0.0	No	2.637	0.013	n/a	LatePress	-1	n/a	n/a	-1	34	Cue	Loss	True
327.863	4.05	Lose2	0.6	0.0	No	2.637	0.0	n/a	LatePress	-1	n/a	n/a	-1	34	Fixation	Loss	True
331.911	0.17	Lose2	0.6	0.002	No	2.637	-0.002	2.0	LatePress	-1	0.178	331.089	-1	34	Target	Loss	True
332.089	0.3	Lose2	0.6	0.002	No	2.637	-0.002	2.0	LatePress	-1	0.178	n/a	-1	34	ButtonPress	Loss	True
332.095	0.53	Lose2	0.6	n/a	No	2.637	n/a	n/a	LatePress	-1	n/a	n/a	-1	34	Blank	Loss	True
332.611	1.45	Lose2	0.6	n/a	No	2.637	n/a	5.0	LatePress	-1	0.0	331.611	-1	34	Feedback	Loss	True
334.06	2.637	Lose2	0.6	n/a	No	2.637	n/a	n/a	LatePress	-1	0.0	n/a	-1	34	ISIslide	Loss	True
336.726	0.25	Lose2	0.5832999999999999	0.0	No	2.674	0.026	n/a	NoResponse	-1	n/a	n/a	-2	35	Cue	Loss	True
336.976	4.0	Lose2	0.5832999999999999	0.0	No	2.674	0.0	n/a	NoResponse	-1	n/a	n/a	-2	35	Fixation	Loss	True
340.975	0.18	Lose2	0.5832999999999999	0.001	No	2.674	-0.001	2.0	NoResponse	-1	0.222	340.197	-2	35	Target	Loss	True
341.158	0.52	Lose2	0.5832999999999999	n/a	No	2.674	n/a	n/a	NoResponse	-1	n/a	n/a	-2	35	Blank	Loss	True
341.197	0.3	Lose2	0.5832999999999999	0.001	No	2.674	-0.001	2.0	NoResponse	-1	0.222	n/a	-2	35	ButtonPress	Loss	True
341.675	1.45	Lose2	0.5832999999999999	n/a	No	2.674	n/a	5.0	NoResponse	-1	0.009	340.684	-2	35	Feedback	Loss	True
343.124	2.674	Lose2	0.5832999999999999	n/a	No	2.674	n/a	n/a	NoResponse	-1	0.0	n/a	-2	35	ISIslide	Loss	True
345.823	0.25	Control	0.5676	0.0	No	2.677	0.023	n/a	LatePress	0	n/a	n/a	-2	36	Cue	Neutral	True
346.073	4.0	Control	0.5676	0.0	No	2.677	0.0	n/a	LatePress	0	n/a	n/a	-2	36	Fixation	Neutral	True
350.072	0.19	Control	0.5676	0.001	No	2.677	-0.001	2.0	LatePress	0	0.199	349.271	-2	36	Target	Neutral	True
350.271	0.3	Control	0.5676	0.001	No	2.677	-0.001	2.0	LatePress	0	0.199	n/a	-2	36	ButtonPress	Neutral	True
350.272	0.51	Control	0.5676	n/a	No	2.677	n/a	n/a	LatePress	0	n/a	n/a	-2	36	Blank	Neutral	True
350.771	1.45	Control	0.5676	n/a	No	2.677	n/a	5.0	LatePress	0	0.035	349.806	-2	36	Feedback	Neutral	True
352.221	2.677	Control	0.5676	n/a	No	2.677	n/a	n/a	LatePress	0	0.0	n/a	-2	36	ISIslide	Neutral	True
354.92	0.25	Win2	0.5789	0.0	Yes	2.88	0.02	n/a	GoodResponse	1	n/a	n/a	-1	37	Cue	Win	True
355.17	4.0	Win2	0.5789	0.0	Yes	2.88	0.0	n/a	GoodResponse	1	n/a	n/a	-1	37	Fixation	Win	True
359.168	0.2	Win2	0.5789	0.002	Yes	2.88	-0.002	2.0	GoodResponse	1	0.186	358.354	-1	37	Target	Win	True
359.354	0.3	Win2	0.5789	0.002	Yes	2.88	-0.002	2.0	GoodResponse	1	0.186	n/a	-1	37	ButtonPress	Win	True
359.368	0.5	Win2	0.5789	n/a	Yes	2.88	n/a	n/a	GoodResponse	1	n/a	n/a	-1	37	Blank	Win	True
359.868	1.45	Win2	0.5789	n/a	Yes	2.88	n/a	5.0	GoodResponse	1	0.011	358.879	-1	37	Feedback	Win	True
361.318	2.88	Win2	0.5789	n/a	Yes	2.88	n/a	n/a	GoodResponse	1	0.0	n/a	-1	37	ISIslide	Win	True
364.217	0.25	Lose2	0.5897	0.0	Yes	2.833	0.017	n/a	GoodResponse	0	n/a	n/a	-1	38	Cue	AvoidedLoss	True
364.467	3.95	Lose2	0.5897	0.0	Yes	2.833	0.0	n/a	GoodResponse	0	n/a	n/a	-1	38	Fixation	AvoidedLoss	True
368.415	0.21	Lose2	0.5897	0.002	Yes	2.833	-0.002	2.0	GoodResponse	0	0.17	367.585	-1	38	Target	AvoidedLoss	True
368.585	0.3	Lose2	0.5897	0.002	Yes	2.833	-0.002	2.0	GoodResponse	0	0.17	n/a	-1	38	ButtonPress	AvoidedLoss	True
368.632	0.49	Lose2	0.5897	n/a	Yes	2.833	n/a	n/a	GoodResponse	0	n/a	n/a	-1	38	Blank	AvoidedLoss	True
369.115	1.45	Lose2	0.5897	n/a	Yes	2.833	n/a	5.0	GoodResponse	0	0.033	368.148	-1	38	Feedback	AvoidedLoss	True
370.565	2.833	Lose2	0.5897	n/a	Yes	2.833	n/a	n/a	GoodResponse	0	0.0	n/a	-1	38	ISIslide	AvoidedLoss	True
373.414	0.25	Win2	0.575	0.0	No	2.986	0.014	n/a	NoResponse	0	n/a	n/a	-1	39	Cue	MissedWin	False
373.663	4.1	Win2	0.575	0.001	No	2.986	-0.001	2.0	NoResponse	0	3.891	376.554	-1	39	Fixation	MissedWin	False
377.554	0.3	Win2	0.575	0.001	No	2.986	-0.001	2.0	NoResponse	0	3.891	n/a	-1	39	ButtonPress	MissedWin	False
377.762	0.22	Win2	0.575	0.002	No	2.986	-0.002	2.0	NoResponse	0	0.526	377.288	-1	39	Target	MissedWin	False
377.995	0.48	Win2	0.575	n/a	No	2.986	n/a	n/a	NoResponse	0	n/a	n/a	-1	39	Blank	MissedWin	False
378.288	0.3	Win2	0.575	0.002	No	2.986	-0.002	2.0	NoResponse	0	0.526	n/a	-1	39	ButtonPress	MissedWin	False
378.462	1.45	Win2	0.575	n/a	No	2.986	n/a	5.0	NoResponse	0	0.007	377.469	-1	39	Feedback	MissedWin	False
379.911	2.986	Win2	0.575	n/a	No	2.986	n/a	n/a	NoResponse	0	0.0	n/a	-1	39	ISIslide	MissedWin	False
382.927	0.25	Win2	0.5854	0.0	Yes	2.723	0.027	n/a	GoodResponse	1	n/a	n/a	0	40	Cue	Win	True
383.177	3.95	Win2	0.5854	0.0	Yes	2.723	0.0	n/a	GoodResponse	1	n/a	n/a	0	40	Fixation	Win	True
387.125	0.23	Win2	0.5854	0.002	Yes	2.723	-0.002	2.0	GoodResponse	1	0.196	386.321	0	40	Target	Win	True
387.321	0.3	Win2	0.5854	0.002	Yes	2.723	-0.002	2.0	GoodResponse	1	0.196	n/a	0	40	ButtonPress	Win	True
387.359	0.47	Win2	0.5854	n/a	Yes	2.723	n/a	n/a	GoodResponse	1	n/a	n/a	0	40	Blank	Win	True
387.825	1.45	Win2	0.5854	n/a	Yes	2.723	n/a	5.0	GoodResponse	1	0.006	386.831	0	40	Feedback	Win	True
389.275	2.723	Win2	0.5854	n/a	Yes	2.723	n/a	n/a	GoodResponse	1	0.0	n/a	0	40	ISIslide	Win	True
392.024	0.25	Win2	0.5714	0.0	No	2.776	0.024	n/a	NoResponse	0	n/a	n/a	0	41	Cue	MissedWin	True
392.274	3.9	Win2	0.5714	0.0	No	2.776	0.0	n/a	NoResponse	0	n/a	n/a	0	41	Fixation	MissedWin	True
396.172	0.24	Win2	0.5714	0.002	No	2.776	-0.002	2.0	NoResponse	0	0.258	395.43	0	41	Target	MissedWin	True
396.422	0.46	Win2	0.5714	n/a	No	2.776	n/a	n/a	NoResponse	0	n/a	n/a	0	41	Blank	MissedWin	True
396.43	0.3	Win2	0.5714	0.002	No	2.776	-0.002	2.0	NoResponse	0	0.258	n/a	0	41	ButtonPress	MissedWin	True
396.872	1.45	Win2	0.5714	n/a	No	2.776	n/a	5.0	NoResponse	0	0.031	395.903	0	41	Feedback	MissedWin	True
398.322	2.776	Win2	0.5714	n/a	No	2.776	n/a	n/a	NoResponse	0	0.0	n/a	0	41	ISIslide	MissedWin	True
401.121	0.25	Control	0.5814	0.0	Yes	2.929	0.021	n/a	GoodResponse	0	n/a	n/a	0	42	Cue	Neutral	False
401.371	3.85	Control	0.5814	0.0	Yes	2.929	0.0	2.0	GoodResponse	0	3.319	403.69	0	42	Fixation	Neutral	False
404.69	0.3	Control	0.5814	0.0	Yes	2.929	0.0	2.0	GoodResponse	0	3.319	n/a	0	42	ButtonPress	Neutral	False
405.219	0.25	Control	0.5814	0.002	Yes	2.929	-0.002	2.0	GoodResponse	0	0.189	404.408	0	42	Target	Neutral	False
405.408	0.3	Control	0.5814	0.002	Yes	2.929	-0.002	2.0	GoodResponse	0	0.189	n/a	0	42	ButtonPress	Neutral	False
405.469	0.45	Control	0.5814	n/a	Yes	2.929	n/a	n/a	GoodResponse	0	n/a	n/a	0	42	Blank	Neutral	False
405.919	1.45	Control	0.5814	n/a	Yes	2.929	n/a	5.0	GoodResponse	0	0.009	404.928	0	42	Feedback	Neutral	False
407.368	2.929	Control	0.5814	n/a	Yes	2.929	n/a	n/a	GoodResponse	0	0.0	n/a	0	42	ISIslide	Neutral	False
410.317	0.25	Win2	0.5909	0.001	Yes	3.183	0.017	n/a	GoodResponse	1	n/a	n/a	1	43	Cue	Win	True
410.567	4.0	Win2	0.5909	0.0	Yes	3.183	0.0	n/a	GoodResponse	1	n/a	n/a	1	43	Fixation	Win	True
414.566	0.26	Win2	0.5909	0.001	Yes	3.183	-0.001	2.0	GoodResponse	1	0.175	413.741	1	43	Target	Win	True
414.741	0.3	Win2	0.5909	0.001	Yes	3.183	-0.001	2.0	GoodResponse	1	0.175	n/a	1	43	ButtonPress	Win	True
414.833	0.44	Win2	0.5909	n/a	Yes	3.183	n/a	n/a	GoodResponse	1	n/a	n/a	1	43	Blank	Win	True
415.266	1.45	Win2	0.5909	n/a	Yes	3.183	n/a	5.0	GoodResponse	1	0.028	414.294	1	43	Feedback	Win	True
416.715	3.183	Win2	0.5909	n/a	Yes	3.183	n/a	n/a	GoodResponse	1	0.0	n/a	1	43	ISIslide	Win	True
419.914	0.25	Win2	0.6	0.0	Yes	2.986	0.014	n/a	GoodResponse	1	n/a	n/a	2	44	Cue	Win	True
420.164	4.0	Win2	0.6	0.0	Yes	2.986	0.0	n/a	GoodResponse	1	n/a	n/a	2	44	Fixation	Win	True
424.163	0.27	Win2	0.6	0.001	Yes	2.986	-0.001	2.0	GoodResponse	1	0.176	423.339	2	44	Target	Win	True
424.339	0.3	Win2	0.6	0.001	Yes	2.986	-0.001	2.0	GoodResponse	1	0.176	n/a	2	44	ButtonPress	Win	True
424.446	0.43	Win2	0.6	n/a	Yes	2.986	n/a	n/a	GoodResponse	1	n/a	n/a	2	44	Blank	Win	True
424.862	1.45	Win2	0.6	n/a	Yes	2.986	n/a	5.0	GoodResponse	1	0.042	423.904	2	44	Feedback	Win	True
426.312	2.986	Win2	0.6	n/a	Yes	2.986	n/a	n/a	GoodResponse	1	0.0	n/a	2	44	ISIslide	Win	True
429.328	0.25	Control	0.6087	0.0	Yes	2.872	0.028	n/a	GoodResponse	0	n/a	n/a	2	45	Cue	Neutral	True
429.577	4.1	Control	0.6087	0.001	Yes	2.872	-0.001	n/a	GoodResponse	0	n/a	n/a	2	45	Fixation	Neutral	True
433.676	0.28	Control	0.6087	0.002	Yes	2.872	-0.002	2.0	GoodResponse	0	0.218	432.894	2	45	Target	Neutral	True
433.894	0.3	Control	0.6087	0.002	Yes	2.872	-0.002	2.0	GoodResponse	0	0.218	n/a	2	45	ButtonPress	Neutral	True
433.959	0.42	Control	0.6087	n/a	Yes	2.872	n/a	n/a	GoodResponse	0	n/a	n/a	2	45	Blank	Neutral	True
434.376	1.45	Control	0.6087	n/a	Yes	2.872	n/a	5.0	GoodResponse	0	0.04	433.416	2	45	Feedback	Neutral	True
435.825	2.872	Control	0.6087	n/a	Yes	2.872	n/a	n/a	GoodResponse	0	0.0	n/a	2	45	ISIslide	Neutral	True
438.724	0.25	Lose2	0.617	0.0	Yes	3.376	0.024	n/a	GoodResponse	0	n/a	n/a	2	46	Cue	AvoidedLoss	True
438.974	4.0	Lose2	0.617	0.0	Yes	3.376	0.0	n/a	GoodResponse	0	n/a	n/a	2	46	Fixation	AvoidedLoss	True
442.973	0.29	Lose2	0.617	0.001	Yes	3.376	-0.001	2.0	GoodResponse	0	0.202	442.175	2	46	Target	AvoidedLoss	True
443.175	0.3	Lose2	0.617	0.001	Yes	3.376	-0.001	2.0	GoodResponse	0	0.202	n/a	2	46	ButtonPress	AvoidedLoss	True
443.273	0.41	Lose2	0.617	n/a	Yes	3.376	n/a	n/a	GoodResponse	0	n/a	n/a	2	46	Blank	AvoidedLoss	True
443.673	1.45	Lose2	0.617	n/a	Yes	3.376	n/a	5.0	GoodResponse	0	0.011	442.684	2	46	Feedback	AvoidedLoss	True
445.122	3.376	Lose2	0.617	n/a	Yes	3.376	n/a	n/a	GoodResponse	0	0.0	n/a	2	46	ISIslide	AvoidedLoss	True
448.521	0.25	Lose2	0.625	0.0	Yes	2.679	0.021	n/a	GoodResponse	0	n/a	n/a	2	47	Cue	AvoidedLoss	True
448.771	4.0	Lose2	0.625	0.0	Yes	2.679	0.0	n/a	GoodResponse	0	n/a	n/a	2	47	Fixation	AvoidedLoss	True
452.769	0.3	Lose2	0.625	0.002	Yes	2.679	-0.002	2.0	GoodResponse	0	0.202	451.971	2	47	Target	AvoidedLoss	True
452.971	0.3	Lose2	0.625	0.002	Yes	2.679	-0.002	2.0	GoodResponse	0	0.202	n/a	2	47	ButtonPress	AvoidedLoss	True
453.069	0.4	Lose2	0.625	n/a	Yes	2.679	n/a	n/a	GoodResponse	0	n/a	n/a	2	47	Blank	AvoidedLoss	True
453.469	1.45	Lose2	0.625	n/a	Yes	2.679	n/a	5.0	GoodResponse	0	0.019	452.488	2	47	Feedback	AvoidedLoss	True
454.919	2.679	Lose2	0.625	n/a	Yes	2.679	n/a	n/a	GoodResponse	0	0.0	n/a	2	47	ISIslide	AvoidedLoss	True
457.618	0.25	Lose2	0.6327	0.0	Yes	3.032	0.018	n/a	GoodResponse	0	n/a	n/a	2	48	Cue	AvoidedLoss	True
457.868	3.95	Lose2	0.6327	0.0	Yes	3.032	0.0	n/a	GoodResponse	0	n/a	n/a	2	48	Fixation	AvoidedLoss	True
461.816	0.31	Lose2	0.6327	0.002	Yes	3.032	-0.002	2.0	GoodResponse	0	0.187	461.003	2	48	Target	AvoidedLoss	True
462.003	0.3	Lose2	0.6327	0.002	Yes	3.032	-0.002	2.0	GoodResponse	0	0.187	n/a	2	48	ButtonPress	AvoidedLoss	True
462.133	0.39	Lose2	0.6327	n/a	Yes	3.032	n/a	n/a	GoodResponse	0	n/a	n/a	2	48	Blank	AvoidedLoss	True
462.516	1.45	Lose2	0.6327	n/a	Yes	3.032	n/a	5.0	GoodResponse	0	0.046	461.562	2	48	Feedback	AvoidedLoss	True
463.966	3.032	Lose2	0.6327	n/a	Yes	3.032	n/a	n/a	GoodResponse	0	0.0	n/a	2	48	ISIslide	AvoidedLoss	True
467.015	0.25	Control	0.64	0.0	Yes	2.885	0.015	n/a	GoodResponse	0	n/a	n/a	2	49	Cue	Neutral	True
467.264	4.0	Control	0.64	0.001	Yes	2.885	-0.001	n/a	GoodResponse	0	n/a	n/a	2	49	Fixation	Neutral	True
471.263	0.32	Control	0.64	0.002	Yes	2.885	-0.002	2.0	GoodResponse	0	0.2	470.463	2	49	Target	Neutral	True
471.463	0.3	Control	0.64	0.002	Yes	2.885	-0.002	2.0	GoodResponse	0	0.2	n/a	2	49	ButtonPress	Neutral	True
471.596	0.38	Control	0.64	n/a	Yes	2.885	n/a	n/a	GoodResponse	0	n/a	n/a	2	49	Blank	Neutral	True
471.963	1.45	Control	0.64	n/a	Yes	2.885	n/a	5.0	GoodResponse	0	0.013	470.976	2	49	Feedback	Neutral	True
473.412	2.885	Control	0.64	n/a	Yes	2.885	n/a	n/a	GoodResponse	0	0.0	n/a	2	49	ISIslide	Neutral	True
476.328	0.25	Control	0.6470999999999999	0.0	Yes	2.772	0.028	n/a	GoodResponse	0	n/a	n/a	2	50	Cue	Neutral	True
476.578	4.0	Control	0.6470999999999999	0.0	Yes	2.772	0.0	n/a	GoodResponse	0	n/a	n/a	2	50	Fixation	Neutral	True
480.576	0.33	Control	0.6470999999999999	0.002	Yes	2.772	-0.002	2.0	GoodResponse	0	0.163	479.739	2	50	Target	Neutral	True
480.739	0.3	Control	0.6470999999999999	0.002	Yes	2.772	-0.002	2.0	GoodResponse	0	0.163	n/a	2	50	ButtonPress	Neutral	True
480.91	0.37	Control	0.6470999999999999	n/a	Yes	2.772	n/a	n/a	GoodResponse	0	n/a	n/a	2	50	Blank	Neutral	True
481.276	1.45	Control	0.6470999999999999	n/a	Yes	2.772	n/a	5.0	GoodResponse	0	0.018	480.294	2	50	Feedback	Neutral	True
482.726	2.772	Control	0.6470999999999999	n/a	Yes	2.772	n/a	n/a	GoodResponse	0	0.0	n/a	2	50	ISIslide	Neutral	True
485.525	0.25	Control	0.6537999999999999	0.0	Yes	2.725	0.025	n/a	GoodResponse	0	n/a	n/a	2	51	Cue	Neutral	True
485.775	3.95	Control	0.6537999999999999	0.0	Yes	2.725	0.0	n/a	GoodResponse	0	n/a	n/a	2	51	Fixation	Neutral	True
489.723	0.34	Control	0.6537999999999999	0.002	Yes	2.725	-0.002	2.0	GoodResponse	0	0.169	488.892	2	51	Target	Neutral	True
489.892	0.3	Control	0.6537999999999999	0.002	Yes	2.725	-0.002	2.0	GoodResponse	0	0.169	n/a	2	51	ButtonPress	Neutral	True
490.073	0.36	Control	0.6537999999999999	n/a	Yes	2.725	n/a	n/a	GoodResponse	0	n/a	n/a	2	51	Blank	Neutral	True
490.423	1.45	Control	0.6537999999999999	n/a	Yes	2.725	n/a	5.0	GoodResponse	0	0.041	489.464	2	51	Feedback	Neutral	True
491.873	2.725	Control	0.6537999999999999	n/a	Yes	2.725	n/a	n/a	GoodResponse	0	0.0	n/a	2	51	ISIslide	Neutral	True
494.622	0.25	Control	0.6604000000000001	0.0	Yes	2.628	0.022	n/a	GoodResponse	0	n/a	n/a	2	52	Cue	Neutral	True
494.872	4.05	Control	0.6604000000000001	0.0	Yes	2.628	0.0	n/a	GoodResponse	0	n/a	n/a	2	52	Fixation	Neutral	True
498.92	0.35	Control	0.6604000000000001	0.002	Yes	2.628	-0.002	2.0	GoodResponse	0	0.18	498.1	2	52	Target	Neutral	True
499.1	0.3	Control	0.6604000000000001	0.002	Yes	2.628	-0.002	2.0	GoodResponse	0	0.18	n/a	2	52	ButtonPress	Neutral	True
499.27	0.35	Control	0.6604000000000001	n/a	Yes	2.628	n/a	n/a	GoodResponse	0	n/a	n/a	2	52	Blank	Neutral	True
499.62	1.45	Control	0.6604000000000001	n/a	Yes	2.628	n/a	5.0	GoodResponse	0	0.015	498.635	2	52	Feedback	Neutral	True
501.069	2.628	Control	0.6604000000000001	n/a	Yes	2.628	n/a	n/a	GoodResponse	0	0.0	n/a	2	52	ISIslide	Neutral	True
503.718	0.25	Win2	0.6667000000000001	0.001	Yes	2.932	0.018	n/a	GoodResponse	1	n/a	n/a	3	53	Cue	Win	False
503.968	4.05	Win2	0.6667000000000001	0.0	Yes	2.932	0.0	2.0	GoodResponse	1	0.041	503.009	3	53	Fixation	Win	False
504.009	0.3	Win2	0.6667000000000001	0.0	Yes	2.932	0.0	2.0	GoodResponse	1	0.041	n/a	3	53	ButtonPress	Win	False
508.017	0.35	Win2	0.6667000000000001	0.001	Yes	2.932	-0.001	2.0	GoodResponse	1	0.174	507.191	3	53	Target	Win	False
508.191	0.3	Win2	0.6667000000000001	0.001	Yes	2.932	-0.001	2.0	GoodResponse	1	0.174	n/a	3	53	ButtonPress	Win	False
508.367	0.35	Win2	0.6667000000000001	n/a	Yes	2.932	n/a	n/a	GoodResponse	1	n/a	n/a	3	53	Blank	Win	False
508.717	1.45	Win2	0.6667000000000001	n/a	Yes	2.932	n/a	5.0	GoodResponse	1	0.04	507.757	3	53	Feedback	Win	False
510.166	2.932	Win2	0.6667000000000001	n/a	Yes	2.932	n/a	n/a	GoodResponse	1	0.0	n/a	3	53	ISIslide	Win	False
513.115	0.25	Win2	0.6727	0.0	Yes	2.735	0.015	n/a	GoodResponse	1	n/a	n/a	4	54	Cue	Win	True
513.365	3.95	Win2	0.6727	0.0	Yes	2.735	0.0	n/a	GoodResponse	1	n/a	n/a	4	54	Fixation	Win	True
517.314	0.34	Win2	0.6727	0.001	Yes	2.735	-0.001	2.0	GoodResponse	1	0.179	516.493	4	54	Target	Win	True
517.493	0.3	Win2	0.6727	0.001	Yes	2.735	-0.001	2.0	GoodResponse	1	0.179	n/a	4	54	ButtonPress	Win	True
517.664	0.36	Win2	0.6727	n/a	Yes	2.735	n/a	n/a	GoodResponse	1	n/a	n/a	4	54	Blank	Win	True
518.014	1.45	Win2	0.6727	n/a	Yes	2.735	n/a	5.0	GoodResponse	1	0.011	517.025	4	54	Feedback	Win	True
519.463	2.735	Win2	0.6727	n/a	Yes	2.735	n/a	n/a	GoodResponse	1	0.0	n/a	4	54	ISIslide	Win	True
522.229	0.25	Control	0.6786	0.0	Yes	3.021	0.029	n/a	GoodResponse	0	n/a	n/a	4	55	Cue	Neutral	True
522.479	3.95	Control	0.6786	0.0	Yes	3.021	0.0	n/a	GoodResponse	0	n/a	n/a	4	55	Fixation	Neutral	True
526.427	0.33	Control	0.6786	0.002	Yes	3.021	-0.002	2.0	GoodResponse	0	0.23	525.657	4	55	Target	Neutral	True
526.657	0.3	Control	0.6786	0.002	Yes	3.021	-0.002	2.0	GoodResponse	0	0.23	n/a	4	55	ButtonPress	Neutral	True
526.761	0.37	Control	0.6786	n/a	Yes	3.021	n/a	n/a	GoodResponse	0	n/a	n/a	4	55	Blank	Neutral	True
527.127	1.45	Control	0.6786	n/a	Yes	3.021	n/a	5.0	GoodResponse	0	0.02	526.147	4	55	Feedback	Neutral	True
528.577	3.021	Control	0.6786	n/a	Yes	3.021	n/a	n/a	GoodResponse	0	0.0	n/a	4	55	ISIslide	Neutral	True
531.625	0.25	Control	0.6842	0.001	Yes	2.825	0.025	n/a	GoodResponse	0	n/a	n/a	4	56	Cue	Neutral	True
531.875	3.95	Control	0.6842	0.0	Yes	2.825	0.0	n/a	GoodResponse	0	n/a	n/a	4	56	Fixation	Neutral	True
535.824	0.32	Control	0.6842	0.001	Yes	2.825	-0.001	2.0	GoodResponse	0	0.202	535.026	4	56	Target	Neutral	True
536.026	0.3	Control	0.6842	0.001	Yes	2.825	-0.001	2.0	GoodResponse	0	0.202	n/a	4	56	ButtonPress	Neutral	True
536.141	0.38	Control	0.6842	n/a	Yes	2.825	n/a	n/a	GoodResponse	0	n/a	n/a	4	56	Blank	Neutral	True
536.524	1.45	Control	0.6842	n/a	Yes	2.825	n/a	5.0	GoodResponse	0	0.038	535.562	4	56	Feedback	Neutral	True
537.973	2.825	Control	0.6842	n/a	Yes	2.825	n/a	n/a	GoodResponse	0	0.0	n/a	4	56	ISIslide	Neutral	True
540.822	0.25	Control	0.6897	0.0	Yes	3.478	0.022	n/a	GoodResponse	0	n/a	n/a	4	57	Cue	Neutral	True
541.072	4.0	Control	0.6897	0.0	Yes	3.478	0.0	n/a	GoodResponse	0	n/a	n/a	4	57	Fixation	Neutral	True
545.071	0.31	Control	0.6897	0.001	Yes	3.478	-0.001	2.0	GoodResponse	0	0.223	544.294	4	57	Target	Neutral	True
545.294	0.3	Control	0.6897	0.001	Yes	3.478	-0.001	2.0	GoodResponse	0	0.223	n/a	4	57	ButtonPress	Neutral	True
545.387	0.39	Control	0.6897	n/a	Yes	3.478	n/a	n/a	GoodResponse	0	n/a	n/a	4	57	Blank	Neutral	True
545.771	1.45	Control	0.6897	n/a	Yes	3.478	n/a	5.0	GoodResponse	0	0.01	544.781	4	57	Feedback	Neutral	True
547.22	3.478	Control	0.6897	n/a	Yes	3.478	n/a	n/a	GoodResponse	0	0.0	n/a	4	57	ISIslide	Neutral	True
550.719	0.25	Win2	0.6949	0.0	Yes	2.731	0.019	n/a	GoodResponse	1	n/a	n/a	5	58	Cue	Win	True
550.969	4.05	Win2	0.6949	0.0	Yes	2.731	0.0	n/a	GoodResponse	1	n/a	n/a	5	58	Fixation	Win	True
555.017	0.3	Win2	0.6949	0.002	Yes	2.731	-0.002	2.0	GoodResponse	1	0.178	554.195	5	58	Target	Win	True
555.195	0.3	Win2	0.6949	0.002	Yes	2.731	-0.002	2.0	GoodResponse	1	0.178	n/a	5	58	ButtonPress	Win	True
555.317	0.4	Win2	0.6949	n/a	Yes	2.731	n/a	n/a	GoodResponse	1	n/a	n/a	5	58	Blank	Win	True
555.717	1.45	Win2	0.6949	n/a	Yes	2.731	n/a	5.0	GoodResponse	1	0.016	554.733	5	58	Feedback	Win	True
557.167	2.731	Win2	0.6949	n/a	Yes	2.731	n/a	n/a	GoodResponse	1	0.0	n/a	5	58	ISIslide	Win	True
559.916	0.25	Lose2	0.7	0.0	Yes	2.684	0.016	n/a	GoodResponse	0	n/a	n/a	5	59	Cue	AvoidedLoss	True
560.166	4.0	Lose2	0.7	0.0	Yes	2.684	0.0	n/a	GoodResponse	0	n/a	n/a	5	59	Fixation	AvoidedLoss	True
564.164	0.29	Lose2	0.7	0.002	Yes	2.684	-0.002	2.0	GoodResponse	0	0.181	563.345	5	59	Target	AvoidedLoss	True
564.345	0.3	Lose2	0.7	0.002	Yes	2.684	-0.002	2.0	GoodResponse	0	0.181	n/a	5	59	ButtonPress	AvoidedLoss	True
564.464	0.41	Lose2	0.7	n/a	Yes	2.684	n/a	n/a	GoodResponse	0	n/a	n/a	5	59	Blank	AvoidedLoss	True
564.864	1.45	Lose2	0.7	n/a	Yes	2.684	n/a	5.0	GoodResponse	0	0.039	563.903	5	59	Feedback	AvoidedLoss	True
566.313	2.684	Lose2	0.7	n/a	Yes	2.684	n/a	n/a	GoodResponse	0	0.0	n/a	5	59	ISIslide	AvoidedLoss	True
569.013	0.25	Control	0.7049	0.0	Yes	2.687	0.013	n/a	GoodResponse	0	n/a	n/a	5	60	Cue	Neutral	True
569.262	4.0	Control	0.7049	0.001	Yes	2.687	-0.001	n/a	GoodResponse	0	n/a	n/a	5	60	Fixation	Neutral	True
573.261	0.28	Control	0.7049	0.002	Yes	2.687	-0.002	2.0	GoodResponse	0	0.161	572.422	5	60	Target	Neutral	True
573.422	0.3	Control	0.7049	0.002	Yes	2.687	-0.002	2.0	GoodResponse	0	0.161	n/a	5	60	ButtonPress	Neutral	True
573.544	0.42	Control	0.7049	n/a	Yes	2.687	n/a	n/a	GoodResponse	0	n/a	n/a	5	60	Blank	Neutral	True
573.961	1.45	Control	0.7049	n/a	Yes	2.687	n/a	5.0	GoodResponse	0	0.015	572.976	5	60	Feedback	Neutral	True
575.41	2.687	Control	0.7049	n/a	Yes	2.687	n/a	n/a	GoodResponse	0	0.0	n/a	5	60	ISIslide	Neutral	True
578.126	0.25	Lose2	0.7097	0.0	Yes	2.974	0.026	n/a	GoodResponse	0	n/a	n/a	5	61	Cue	AvoidedLoss	False
578.376	4.0	Lose2	0.7097	0.0	Yes	2.974	0.0	2.0	GoodResponse	0	3.096	580.472	5	61	Fixation	AvoidedLoss	False
581.472	0.3	Lose2	0.7097	0.0	Yes	2.974	0.0	2.0	GoodResponse	0	3.096	n/a	5	61	ButtonPress	AvoidedLoss	False
582.375	0.27	Lose2	0.7097	0.001	Yes	2.974	-0.001	2.0	GoodResponse	0	0.206	581.581	5	61	Target	AvoidedLoss	False
582.581	0.3	Lose2	0.7097	0.001	Yes	2.974	-0.001	2.0	GoodResponse	0	0.206	n/a	5	61	ButtonPress	AvoidedLoss	False
582.658	0.43	Lose2	0.7097	n/a	Yes	2.974	n/a	n/a	GoodResponse	0	n/a	n/a	5	61	Blank	AvoidedLoss	False
583.074	1.45	Lose2	0.7097	n/a	Yes	2.974	n/a	5.0	GoodResponse	0	0.024	582.098	5	61	Feedback	AvoidedLoss	False
584.524	2.974	Lose2	0.7097	n/a	Yes	2.974	n/a	n/a	GoodResponse	0	0.0	n/a	5	61	ISIslide	AvoidedLoss	False
587.523	0.25	Lose2	0.7143	0.0	Yes	2.877	0.023	n/a	GoodResponse	0	n/a	n/a	5	62	Cue	AvoidedLoss	True
587.773	3.9	Lose2	0.7143	0.0	Yes	2.877	0.0	n/a	GoodResponse	0	n/a	n/a	5	62	Fixation	AvoidedLoss	True
591.671	0.26	Lose2	0.7143	0.002	Yes	2.877	-0.002	2.0	GoodResponse	0	0.169	590.84	5	62	Target	AvoidedLoss	True
591.84	0.3	Lose2	0.7143	0.002	Yes	2.877	-0.002	2.0	GoodResponse	0	0.169	n/a	5	62	ButtonPress	AvoidedLoss	True
591.938	0.44	Lose2	0.7143	n/a	Yes	2.877	n/a	n/a	GoodResponse	0	n/a	n/a	5	62	Blank	AvoidedLoss	True
592.371	1.45	Lose2	0.7143	n/a	Yes	2.877	n/a	5.0	GoodResponse	0	0.044	591.415	5	62	Feedback	AvoidedLoss	True
593.821	2.877	Lose2	0.7143	n/a	Yes	2.877	n/a	n/a	GoodResponse	0	0.0	n/a	5	62	ISIslide	AvoidedLoss	True
596.72	0.25	Lose2	0.7188	0.0	Yes	2.63	0.02	n/a	GoodResponse	0	n/a	n/a	5	63	Cue	AvoidedLoss	True
596.97	4.05	Lose2	0.7188	0.0	Yes	2.63	0.0	n/a	GoodResponse	0	n/a	n/a	5	63	Fixation	AvoidedLoss	True
601.018	0.25	Lose2	0.7188	0.002	Yes	2.63	-0.002	2.0	GoodResponse	0	0.18	600.198	5	63	Target	AvoidedLoss	True
601.198	0.3	Lose2	0.7188	0.002	Yes	2.63	-0.002	2.0	GoodResponse	0	0.18	n/a	5	63	ButtonPress	AvoidedLoss	True
601.268	0.45	Lose2	0.7188	n/a	Yes	2.63	n/a	n/a	GoodResponse	0	n/a	n/a	5	63	Blank	AvoidedLoss	True
601.718	1.45	Lose2	0.7188	n/a	Yes	2.63	n/a	5.0	GoodResponse	0	0.014	600.732	5	63	Feedback	AvoidedLoss	True
603.167	2.63	Lose2	0.7188	n/a	Yes	2.63	n/a	n/a	GoodResponse	0	0.0	n/a	5	63	ISIslide	AvoidedLoss	True
605.817	0.25	Win2	0.7231000000000001	0.0	Yes	3.133	0.017	n/a	GoodResponse	1	n/a	n/a	6	64	Cue	Win	True
606.066	4.15	Win2	0.7231000000000001	0.001	Yes	3.133	-0.001	n/a	GoodResponse	1	n/a	n/a	6	64	Fixation	Win	True
610.215	0.24	Win2	0.7231000000000001	0.002	Yes	3.133	-0.002	2.0	GoodResponse	1	0.192	609.407	6	64	Target	Win	True
610.407	0.3	Win2	0.7231000000000001	0.002	Yes	3.133	-0.002	2.0	GoodResponse	1	0.192	n/a	6	64	ButtonPress	Win	True
610.465	0.46	Win2	0.7231000000000001	n/a	Yes	3.133	n/a	n/a	GoodResponse	1	n/a	n/a	6	64	Blank	Win	True
610.915	1.45	Win2	0.7231000000000001	n/a	Yes	3.133	n/a	5.0	GoodResponse	1	0.037	609.952	6	64	Feedback	Win	True
612.364	3.133	Win2	0.7231000000000001	n/a	Yes	3.133	n/a	n/a	GoodResponse	1	0.0	n/a	6	64	ISIslide	Win	True
615.53	0.25	Control	0.7273000000000001	0.0	Yes	2.77	0.03	n/a	GoodResponse	0	n/a	n/a	6	65	Cue	Neutral	True
615.78	4.0	Control	0.7273000000000001	0.0	Yes	2.77	0.0	n/a	GoodResponse	0	n/a	n/a	6	65	Fixation	Neutral	True
619.778	0.23	Control	0.7273000000000001	0.002	Yes	2.77	-0.002	2.0	GoodResponse	0	0.221	618.999	6	65	Target	Neutral	True
619.999	0.3	Control	0.7273000000000001	0.002	Yes	2.77	-0.002	2.0	GoodResponse	0	0.221	n/a	6	65	ButtonPress	Neutral	True
620.012	0.47	Control	0.7273000000000001	n/a	Yes	2.77	n/a	n/a	GoodResponse	0	n/a	n/a	6	65	Blank	Neutral	True
620.478	1.45	Control	0.7273000000000001	n/a	Yes	2.77	n/a	5.0	GoodResponse	0	0.035	619.513	6	65	Feedback	Neutral	True
621.928	2.77	Control	0.7273000000000001	n/a	Yes	2.77	n/a	n/a	GoodResponse	0	0.0	n/a	6	65	ISIslide	Neutral	True
624.727	0.25	Win2	0.7313	0.0	Yes	2.773	0.027	n/a	GoodResponse	1	n/a	n/a	7	66	Cue	Win	True
624.977	3.9	Win2	0.7313	0.0	Yes	2.773	0.0	n/a	GoodResponse	1	n/a	n/a	7	66	Fixation	Win	True
628.875	0.22	Win2	0.7313	0.002	Yes	2.773	-0.002	2.0	GoodResponse	1	0.2	628.075	7	66	Target	Win	True
629.075	0.3	Win2	0.7313	0.002	Yes	2.773	-0.002	2.0	GoodResponse	1	0.2	n/a	7	66	ButtonPress	Win	True
629.108	0.48	Win2	0.7313	n/a	Yes	2.773	n/a	n/a	GoodResponse	1	n/a	n/a	7	66	Blank	Win	True
629.575	1.45	Win2	0.7313	n/a	Yes	2.773	n/a	5.0	GoodResponse	1	0.011	628.586	7	66	Feedback	Win	True
631.024	2.773	Win2	0.7313	n/a	Yes	2.773	n/a	n/a	GoodResponse	1	0.0	n/a	7	66	ISIslide	Win	True
633.823	0.25	Control	0.7206	0.001	No	2.727	0.023	n/a	NoResponse	0	n/a	n/a	7	67	Cue	Neutral	True
634.073	3.95	Control	0.7206	0.0	No	2.727	0.0	n/a	NoResponse	0	n/a	n/a	7	67	Fixation	Neutral	True
638.022	0.21	Control	0.7206	0.001	No	2.727	-0.001	2.0	NoResponse	0	0.325	637.347	7	67	Target	Neutral	True
638.239	0.49	Control	0.7206	n/a	No	2.727	n/a	n/a	NoResponse	0	n/a	n/a	7	67	Blank	Neutral	True
638.347	0.3	Control	0.7206	0.001	No	2.727	-0.001	2.0	NoResponse	0	0.325	n/a	7	67	ButtonPress	Neutral	True
638.722	1.45	Control	0.7206	n/a	No	2.727	n/a	5.0	NoResponse	0	0.034	637.756	7	67	Feedback	Neutral	True
640.171	2.727	Control	0.7206	n/a	No	2.727	n/a	n/a	NoResponse	0	0.0	n/a	7	67	ISIslide	Neutral	True
642.92	0.25	Win2	0.7101000000000001	0.0	No	3.08	0.02	n/a	NoResponse	0	n/a	n/a	7	68	Cue	MissedWin	True
643.17	4.0	Win2	0.7101000000000001	0.0	No	3.08	0.0	n/a	NoResponse	0	n/a	n/a	7	68	Fixation	MissedWin	True
647.169	0.2	Win2	0.7101000000000001	0.001	No	3.08	-0.001	2.0	NoResponse	0	0.238	646.407	7	68	Target	MissedWin	True
647.369	0.5	Win2	0.7101000000000001	n/a	No	3.08	n/a	n/a	NoResponse	0	n/a	n/a	7	68	Blank	MissedWin	True
647.407	0.3	Win2	0.7101000000000001	0.001	No	3.08	-0.001	2.0	NoResponse	0	0.238	n/a	7	68	ButtonPress	MissedWin	True
647.869	1.45	Win2	0.7101000000000001	n/a	No	3.08	n/a	5.0	NoResponse	0	0.009	646.878	7	68	Feedback	MissedWin	True
649.318	3.08	Win2	0.7101000000000001	n/a	No	3.08	n/a	n/a	NoResponse	0	0.0	n/a	7	68	ISIslide	MissedWin	True
652.417	0.25	Win2	0.7143	0.0	Yes	3.233	0.017	n/a	GoodResponse	1	n/a	n/a	8	69	Cue	Win	True
652.667	3.95	Win2	0.7143	0.0	Yes	3.233	0.0	n/a	GoodResponse	1	n/a	n/a	8	69	Fixation	Win	True
656.616	0.19	Win2	0.7143	0.001	Yes	3.233	-0.001	2.0	GoodResponse	1	0.17	655.786	8	69	Target	Win	True
656.786	0.3	Win2	0.7143	0.001	Yes	3.233	-0.001	2.0	GoodResponse	1	0.17	n/a	8	69	ButtonPress	Win	True
656.816	0.51	Win2	0.7143	n/a	Yes	3.233	n/a	n/a	GoodResponse	1	n/a	n/a	8	69	Blank	Win	True
657.315	1.45	Win2	0.7143	n/a	Yes	3.233	n/a	5.0	GoodResponse	1	0.027	656.342	8	69	Feedback	Win	True
658.765	3.233	Win2	0.7143	n/a	Yes	3.233	n/a	n/a	GoodResponse	1	0.0	n/a	8	69	ISIslide	Win	True
662.014	0.25	Lose2	0.7042	0.0	No	3.036	0.014	n/a	NoResponse	-1	n/a	n/a	7	70	Cue	Loss	True
662.264	4.05	Lose2	0.7042	0.0	No	3.036	0.0	n/a	NoResponse	-1	n/a	n/a	7	70	Fixation	Loss	True
666.312	0.18	Lose2	0.7042	0.002	No	3.036	-0.002	2.0	NoResponse	-1	0.191	665.503	7	70	Target	Loss	True
666.496	0.52	Lose2	0.7042	n/a	No	3.036	n/a	n/a	NoResponse	-1	n/a	n/a	7	70	Blank	Loss	True
666.503	0.3	Lose2	0.7042	0.002	No	3.036	-0.002	2.0	NoResponse	-1	0.191	n/a	7	70	ButtonPress	Loss	True
667.012	1.45	Lose2	0.7042	n/a	No	3.036	n/a	5.0	NoResponse	-1	0.037	666.049	7	70	Feedback	Loss	True
668.462	3.036	Lose2	0.7042	n/a	No	3.036	n/a	n/a	NoResponse	-1	0.0	n/a	7	70	ISIslide	Loss	True
671.527	0.25	Win2	0.6944	0.0	No	2.723	0.027	n/a	LatePress	0	n/a	n/a	7	71	Cue	MissedWin	True
671.777	4.05	Win2	0.6944	0.0	No	2.723	0.0	n/a	LatePress	0	n/a	n/a	7	71	Fixation	MissedWin	True
675.826	0.17	Win2	0.6944	0.001	No	2.723	-0.001	2.0	LatePress	0	0.179	675.005	7	71	Target	MissedWin	True
676.005	0.3	Win2	0.6944	0.001	No	2.723	-0.001	2.0	LatePress	0	0.179	n/a	7	71	ButtonPress	MissedWin	True
676.009	0.53	Win2	0.6944	n/a	No	2.723	n/a	n/a	LatePress	0	n/a	n/a	7	71	Blank	MissedWin	True
676.525	1.45	Win2	0.6944	n/a	No	2.723	n/a	5.0	LatePress	0	0.036	675.561	7	71	Feedback	MissedWin	True
677.975	2.723	Win2	0.6944	n/a	No	2.723	n/a	n/a	LatePress	0	0.0	n/a	7	71	ISIslide	MissedWin	True
680.724	0.25	Win2	0.6849	0.0	No	2.776	0.024	n/a	NoResponse	0	n/a	n/a	7	72	Cue	MissedWin	True
680.974	4.1	Win2	0.6849	0.0	No	2.776	0.0	n/a	NoResponse	0	n/a	n/a	7	72	Fixation	MissedWin	True
685.072	0.16	Win2	0.6849	0.002	No	2.776	-0.002	2.0	NoResponse	0	0.194	684.266	7	72	Target	MissedWin	True
685.239	0.54	Win2	0.6849	n/a	No	2.776	n/a	n/a	NoResponse	0	n/a	n/a	7	72	Blank	MissedWin	True
685.266	0.3	Win2	0.6849	0.002	No	2.776	-0.002	2.0	NoResponse	0	0.194	n/a	7	72	ButtonPress	MissedWin	True
685.772	1.45	Win2	0.6849	n/a	No	2.776	n/a	5.0	NoResponse	0	0.009	684.781	7	72	Feedback	MissedWin	True
687.222	2.776	Win2	0.6849	n/a	No	2.776	n/a	n/a	NoResponse	0	0.0	n/a	7	72	ISIslide	MissedWin	True
690.021	0.25	Win2	0.6757	0.0	No	2.679	0.021	n/a	NoResponse	0	n/a	n/a	7	73	Cue	MissedWin	True
690.271	4.0	Win2	0.6757	0.0	No	2.679	0.0	n/a	NoResponse	0	n/a	n/a	7	73	Fixation	MissedWin	True
694.269	0.15	Win2	0.6757	0.002	No	2.679	-0.002	2.0	NoResponse	0	0.173	693.442	7	73	Target	MissedWin	True
694.419	0.55	Win2	0.6757	n/a	No	2.679	n/a	n/a	NoResponse	0	n/a	n/a	7	73	Blank	MissedWin	True
694.442	0.3	Win2	0.6757	0.002	No	2.679	-0.002	2.0	NoResponse	0	0.173	n/a	7	73	ButtonPress	MissedWin	True
694.969	1.45	Win2	0.6757	n/a	No	2.679	n/a	5.0	NoResponse	0	0.031	694.0	7	73	Feedback	MissedWin	True
696.419	2.679	Win2	0.6757	n/a	No	2.679	n/a	n/a	NoResponse	0	0.0	n/a	7	73	ISIslide	MissedWin	True
699.118	0.25	Lose2	0.6667000000000001	0.0	No	2.632	0.018	n/a	NoResponse	-1	n/a	n/a	6	74	Cue	Loss	True
699.367	4.05	Lose2	0.6667000000000001	0.001	No	2.632	-0.001	n/a	NoResponse	-1	n/a	n/a	6	74	Fixation	Loss	True
703.416	0.15	Lose2	0.6667000000000001	0.002	No	2.632	-0.002	2.0	NoResponse	-1	0.318	702.734	6	74	Target	Loss	True
703.566	0.55	Lose2	0.6667000000000001	n/a	No	2.632	n/a	n/a	NoResponse	-1	n/a	n/a	6	74	Blank	Loss	True
703.734	0.3	Lose2	0.6667000000000001	0.002	No	2.632	-0.002	2.0	NoResponse	-1	0.318	n/a	6	74	ButtonPress	Loss	True
704.116	1.45	Lose2	0.6667000000000001	n/a	No	2.632	n/a	5.0	NoResponse	-1	0.006	703.122	6	74	Feedback	Loss	True
705.565	2.632	Lose2	0.6667000000000001	n/a	No	2.632	n/a	n/a	NoResponse	-1	0.0	n/a	6	74	ISIslide	Loss	True
708.214	0.25	Lose2	0.6579	0.001	No	2.936	0.014	n/a	NoResponse	-1	n/a	n/a	5	75	Cue	Loss	True
708.464	3.95	Lose2	0.6579	0.0	No	2.936	0.0	n/a	NoResponse	-1	n/a	n/a	5	75	Fixation	Loss	True
712.413	0.15	Lose2	0.6579	0.001	No	2.936	-0.001	2.0	NoResponse	-1	0.309	711.722	5	75	Target	Loss	True
712.563	0.55	Lose2	0.6579	n/a	No	2.936	n/a	n/a	NoResponse	-1	n/a	n/a	5	75	Blank	Loss	True
712.722	0.3	Lose2	0.6579	0.001	No	2.936	-0.001	2.0	NoResponse	-1	0.309	n/a	5	75	ButtonPress	Loss	True
713.113	1.45	Lose2	0.6579	n/a	No	2.936	n/a	5.0	NoResponse	-1	0.033	712.146	5	75	Feedback	Loss	True
714.562	2.936	Lose2	0.6579	n/a	No	2.936	n/a	n/a	NoResponse	-1	0.0	n/a	5	75	ISIslide	Loss	True
717.528	0.25	Control	0.6494	0.0	No	3.222	0.028	n/a	NoResponse	0	n/a	n/a	5	76	Cue	Neutral	False
717.778	4.05	Control	0.6494	0.0	No	3.222	0.0	2.0	NoResponse	0	3.992	720.77	5	76	Fixation	Neutral	False
721.77	0.3	Control	0.6494	0.0	No	3.222	0.0	2.0	NoResponse	0	3.992	n/a	5	76	ButtonPress	Neutral	False
721.826	0.15	Control	0.6494	0.002	No	3.222	-0.002	2.0	NoResponse	0	0.221	721.047	5	76	Target	Neutral	False
721.976	0.55	Control	0.6494	n/a	No	3.222	n/a	n/a	NoResponse	0	n/a	n/a	5	76	Blank	Neutral	False
722.047	0.3	Control	0.6494	0.002	No	3.222	-0.002	2.0	NoResponse	0	0.221	n/a	5	76	ButtonPress	Neutral	False
722.526	1.45	Control	0.6494	n/a	No	3.222	n/a	5.0	NoResponse	0	0.035	721.561	5	76	Feedback	Neutral	False
723.976	3.222	Control	0.6494	n/a	No	3.222	n/a	n/a	NoResponse	0	0.0	n/a	5	76	ISIslide	Neutral	False
727.225	0.25	Lose2	0.6409999999999999	0.0	No	2.575	0.025	n/a	NoResponse	-1	n/a	n/a	4	77	Cue	Loss	True
727.474	3.95	Lose2	0.6409999999999999	0.001	No	2.575	-0.001	n/a	NoResponse	-1	n/a	n/a	4	77	Fixation	Loss	True
731.423	0.16	Lose2	0.6409999999999999	0.002	No	2.575	-0.002	2.0	NoResponse	-1	0.181	730.604	4	77	Target	Loss	True
731.59	0.54	Lose2	0.6409999999999999	n/a	No	2.575	n/a	n/a	NoResponse	-1	n/a	n/a	4	77	Blank	Loss	True
731.604	0.3	Lose2	0.6409999999999999	0.002	No	2.575	-0.002	2.0	NoResponse	-1	0.181	n/a	4	77	ButtonPress	Loss	True
732.123	1.45	Lose2	0.6409999999999999	n/a	No	2.575	n/a	5.0	NoResponse	-1	0.048	731.171	4	77	Feedback	Loss	True
733.572	2.575	Lose2	0.6409999999999999	n/a	No	2.575	n/a	n/a	NoResponse	-1	0.0	n/a	4	77	ISIslide	Loss	True
