onset	duration	cue_type	current_mean_accuracy	duration_error	is_hit	isi_adjusted	onset_delay	response	response_type	reward	rt	rt_time	total_reward	trial_number	trial_phase	trial_type	one_press
11.096	0.25	Control	1.0	0.001	Yes	2.954	-0.004	n/a	GoodResponse	0	n/a	n/a	0	0	Cue	Neutral	True
11.347	3.85	Control	1.0	0.0	Yes	2.954	0.001	n/a	GoodResponse	0	n/a	n/a	0	0	Fixation	Neutral	True
15.192	0.4	Control	1.0	0.004	Yes	2.954	-0.004	2.0	GoodResponse	0	0.288	14.48	0	0	Target	Neutral	True
15.48	0.3	Control	1.0	0.004	Yes	2.954	-0.004	2.0	GoodResponse	0	0.288	n/a	0	0	ButtonPress	Neutral	True
15.593	0.3	Control	1.0	n/a	Yes	2.954	n/a	n/a	GoodResponse	0	n/a	n/a	0	0	Blank	Neutral	True
15.894	1.45	Control	1.0	n/a	Yes	2.954	n/a	5.0	GoodResponse	0	0.031	14.925	0	0	Feedback	Neutral	True
17.349	2.954	Control	1.0	n/a	Yes	2.954	n/a	n/a	GoodResponse	0	0.0	n/a	0	0	ISIslide	Neutral	True
20.391	0.25	Lose2	1.0	0.0	Yes	2.709	0.091	n/a	GoodResponse	0	n/a	n/a	0	1	Cue	AvoidedLoss	True
20.642	4.0	Lose2	1.0	0.0	Yes	2.709	0.001	n/a	GoodResponse	0	n/a	n/a	0	1	Fixation	AvoidedLoss	True
24.637	0.39	Lose2	1.0	0.004	Yes	2.709	-0.004	2.0	GoodResponse	0	0.238	23.875	0	1	Target	AvoidedLoss	True
24.875	0.3	Lose2	1.0	0.004	Yes	2.709	-0.004	2.0	GoodResponse	0	0.238	n/a	0	1	ButtonPress	AvoidedLoss	True
25.038	0.31	Lose2	1.0	n/a	Yes	2.709	n/a	n/a	GoodResponse	0	n/a	n/a	0	1	Blank	AvoidedLoss	True
25.339	1.45	Lose2	1.0	n/a	Yes	2.709	n/a	5.0	GoodResponse	0	0.001	24.34	0	1	Feedback	AvoidedLoss	True
26.793	2.709	Lose2	1.0	n/a	Yes	2.709	n/a	n/a	GoodResponse	0	0.0	n/a	0	1	ISIslide	AvoidedLoss	True
29.518	0.25	Control	1.0	0.0	Yes	2.582	0.018	n/a	GoodResponse	0	n/a	n/a	0	2	Cue	Neutral	True
29.769	4.1	Control	1.0	0.0	Yes	2.582	0.001	n/a	GoodResponse	0	n/a	n/a	0	2	Fixation	Neutral	True
33.865	0.38	Control	1.0	0.003	Yes	2.582	-0.003	2.0	GoodResponse	0	0.255	33.12	0	2	Target	Neutral	True
34.12	0.3	Control	1.0	0.003	Yes	2.582	-0.003	2.0	GoodResponse	0	0.255	n/a	0	2	ButtonPress	Neutral	True
34.249	0.32	Control	1.0	n/a	Yes	2.582	n/a	n/a	GoodResponse	0	n/a	n/a	0	2	Blank	Neutral	True
34.567	1.45	Control	1.0	n/a	Yes	2.582	n/a	5.0	GoodResponse	0	0.042	33.609	0	2	Feedback	Neutral	True
36.021	2.582	Control	1.0	n/a	Yes	2.582	n/a	n/a	GoodResponse	0	0.0	n/a	0	2	ISIslide	Neutral	True
38.629	0.25	Win2	1.0	0.0	Yes	2.821	0.029	n/a	GoodResponse	1	n/a	n/a	1	3	Cue	Win	True
38.88	3.95	Win2	1.0	0.0	Yes	2.821	0.001	n/a	GoodResponse	1	n/a	n/a	1	3	Fixation	Win	True
42.825	0.37	Win2	1.0	0.004	Yes	2.821	-0.004	2.0	GoodResponse	1	0.26	42.085	1	3	Target	Win	True
43.085	0.3	Win2	1.0	0.004	Yes	2.821	-0.004	2.0	GoodResponse	1	0.26	n/a	1	3	ButtonPress	Win	True
43.209	0.33	Win2	1.0	n/a	Yes	2.821	n/a	n/a	GoodResponse	1	n/a	n/a	1	3	Blank	Win	True
43.527	1.45	Win2	1.0	n/a	Yes	2.821	n/a	5.0	GoodResponse	1	0.009	42.536	1	3	Feedback	Win	True
44.981	2.821	Win2	1.0	n/a	Yes	2.821	n/a	n/a	GoodResponse	1	0.0	n/a	1	3	ISIslide	Win	True
47.823	0.25	Win2	1.0	0.0	Yes	3.277	0.023	n/a	GoodResponse	1	n/a	n/a	2	4	Cue	Win	True
48.074	4.0	Win2	1.0	0.0	Yes	3.277	0.001	n/a	GoodResponse	1	n/a	n/a	2	4	Fixation	Win	True
52.069	0.36	Win2	1.0	0.004	Yes	3.277	-0.004	2.0	GoodResponse	1	0.302	51.371	2	4	Target	Win	True
52.371	0.3	Win2	1.0	0.004	Yes	3.277	-0.004	2.0	GoodResponse	1	0.302	n/a	2	4	ButtonPress	Win	True
52.437	0.34	Win2	1.0	n/a	Yes	3.277	n/a	n/a	GoodResponse	1	n/a	n/a	2	4	Blank	Win	True
52.771	1.45	Win2	1.0	n/a	Yes	3.277	n/a	5.0	GoodResponse	1	0.033	51.804	2	4	Feedback	Win	True
54.226	3.277	Win2	1.0	n/a	Yes	3.277	n/a	n/a	GoodResponse	1	0.0	n/a	2	4	ISIslide	Win	True
57.519	0.25	Win2	1.0	0.0	Yes	2.781	0.019	n/a	GoodResponse	1	n/a	n/a	3	5	Cue	Win	True
57.77	4.0	Win2	1.0	0.0	Yes	2.781	0.001	n/a	GoodResponse	1	n/a	n/a	3	5	Fixation	Win	True
61.765	0.35	Win2	1.0	0.004	Yes	2.781	-0.004	2.0	GoodResponse	1	0.252	61.017	3	5	Target	Win	True
62.017	0.3	Win2	1.0	0.004	Yes	2.781	-0.004	2.0	GoodResponse	1	0.252	n/a	3	5	ButtonPress	Win	True
62.116	0.35	Win2	1.0	n/a	Yes	2.781	n/a	n/a	GoodResponse	1	n/a	n/a	3	5	Blank	Win	True
62.467	1.45	Win2	1.0	n/a	Yes	2.781	n/a	5.0	GoodResponse	1	0.043	61.51	3	5	Feedback	Win	True
63.921	2.781	Win2	1.0	n/a	Yes	2.781	n/a	n/a	GoodResponse	1	0.0	n/a	3	5	ISIslide	Win	True
66.73	0.25	Lose2	1.0	0.0	Yes	2.72	0.03	n/a	GoodResponse	0	n/a	n/a	3	6	Cue	AvoidedLoss	True
66.98	3.95	Lose2	1.0	0.001	Yes	2.72	0.0	n/a	GoodResponse	0	n/a	n/a	3	6	Fixation	AvoidedLoss	True
70.926	0.34	Lose2	1.0	0.004	Yes	2.72	-0.004	2.0	GoodResponse	0	0.263	70.189	3	6	Target	AvoidedLoss	True
71.189	0.3	Lose2	1.0	0.004	Yes	2.72	-0.004	2.0	GoodResponse	0	0.263	n/a	3	6	ButtonPress	AvoidedLoss	True
71.277	0.36	Lose2	1.0	n/a	Yes	2.72	n/a	n/a	GoodResponse	0	n/a	n/a	3	6	Blank	AvoidedLoss	True
71.628	1.45	Lose2	1.0	n/a	Yes	2.72	n/a	5.0	GoodResponse	0	0.008	70.636	3	6	Feedback	AvoidedLoss	True
73.082	2.72	Lose2	1.0	n/a	Yes	2.72	n/a	n/a	GoodResponse	0	0.0	n/a	3	6	ISIslide	AvoidedLoss	True
75.824	0.25	Lose2	1.0	0.0	Yes	4.026	0.024	n/a	GoodResponse	0	n/a	n/a	3	7	Cue	AvoidedLoss	True
76.074	4.05	Lose2	1.0	0.0	Yes	4.026	0.0	n/a	GoodResponse	0	n/a	n/a	3	7	Fixation	AvoidedLoss	True
80.12	0.33	Lose2	1.0	0.004	Yes	4.026	-0.004	2.0	GoodResponse	0	0.228	79.348	3	7	Target	AvoidedLoss	True
80.348	0.3	Lose2	1.0	0.004	Yes	4.026	-0.004	2.0	GoodResponse	0	0.228	n/a	3	7	ButtonPress	AvoidedLoss	True
80.454	0.37	Lose2	1.0	n/a	Yes	4.026	n/a	n/a	GoodResponse	0	n/a	n/a	3	7	Blank	AvoidedLoss	True
80.822	1.45	Lose2	1.0	n/a	Yes	4.026	n/a	5.0	GoodResponse	0	0.03	79.852	3	7	Feedback	AvoidedLoss	True
82.276	4.026	Lose2	1.0	n/a	Yes	4.026	n/a	n/a	GoodResponse	0	0.0	n/a	3	7	ISIslide	AvoidedLoss	True
86.322	0.25	Lose2	0.8889	0.0	No	3.028	0.022	n/a	NoResponse	-1	n/a	n/a	2	8	Cue	Loss	True
86.572	3.95	Lose2	0.8889	0.0	No	3.028	0.0	n/a	NoResponse	-1	n/a	n/a	2	8	Fixation	Loss	True
90.518	0.32	Lose2	0.8889	0.004	No	3.028	-0.004	2.0	NoResponse	-1	0.392	89.91	2	8	Target	Loss	True
90.852	0.38	Lose2	0.8889	n/a	No	3.028	n/a	n/a	NoResponse	-1	n/a	n/a	2	8	Blank	Loss	True
90.91	0.3	Lose2	0.8889	0.004	No	3.028	-0.004	2.0	NoResponse	-1	0.392	n/a	2	8	ButtonPress	Loss	True
91.22	1.45	Lose2	0.8889	n/a	No	3.028	n/a	5.0	NoResponse	-1	0.022	90.242	2	8	Feedback	Loss	True
92.674	3.028	Lose2	0.8889	n/a	No	3.028	n/a	n/a	NoResponse	-1	0.0	n/a	2	8	ISIslide	Loss	True
95.716	0.25	Lose2	0.9	0.001	Yes	3.134	0.016	n/a	GoodResponse	0	n/a	n/a	2	9	Cue	AvoidedLoss	True
95.967	3.95	Lose2	0.9	0.0	Yes	3.134	0.001	n/a	GoodResponse	0	n/a	n/a	2	9	Fixation	AvoidedLoss	True
99.912	0.31	Lose2	0.9	0.004	Yes	3.134	-0.004	2.0	GoodResponse	0	0.242	99.154	2	9	Target	AvoidedLoss	True
100.154	0.3	Lose2	0.9	0.004	Yes	3.134	-0.004	2.0	GoodResponse	0	0.242	n/a	2	9	ButtonPress	AvoidedLoss	True
100.23	0.39	Lose2	0.9	n/a	Yes	3.134	n/a	n/a	GoodResponse	0	n/a	n/a	2	9	Blank	AvoidedLoss	True
100.614	1.45	Lose2	0.9	n/a	Yes	3.134	n/a	5.0	GoodResponse	0	0.043	99.657	2	9	Feedback	AvoidedLoss	True
102.069	3.134	Lose2	0.9	n/a	Yes	3.134	n/a	n/a	GoodResponse	0	0.0	n/a	2	9	ISIslide	AvoidedLoss	True
105.228	0.25	Control	0.9091	0.0	Yes	3.272	0.028	n/a	GoodResponse	0	n/a	n/a	2	10	Cue	Neutral	True
105.479	4.0	Control	0.9091	0.0	Yes	3.272	0.001	n/a	GoodResponse	0	n/a	n/a	2	10	Fixation	Neutral	True
109.474	0.3	Control	0.9091	0.004	Yes	3.272	-0.004	2.0	GoodResponse	0	0.295	108.769	2	10	Target	Neutral	True
109.769	0.3	Control	0.9091	0.004	Yes	3.272	-0.004	2.0	GoodResponse	0	0.295	n/a	2	10	ButtonPress	Neutral	True
109.775	0.4	Control	0.9091	n/a	Yes	3.272	n/a	n/a	GoodResponse	0	n/a	n/a	2	10	Blank	Neutral	True
110.176	1.45	Control	0.9091	n/a	Yes	3.272	n/a	5.0	GoodResponse	0	0.041	109.217	2	10	Feedback	Neutral	True
111.631	3.272	Control	0.9091	n/a	Yes	3.272	n/a	n/a	GoodResponse	0	0.0	n/a	2	10	ISIslide	Neutral	True
114.924	0.25	Lose2	0.8332999999999999	0.0	No	2.726	0.024	n/a	LatePress	-1	n/a	n/a	1	11	Cue	Loss	True
115.175	4.05	Lose2	0.8332999999999999	0.0	No	2.726	0.001	n/a	LatePress	-1	n/a	n/a	1	11	Fixation	Loss	True
119.22	0.29	Lose2	0.8332999999999999	0.004	No	2.726	-0.004	2.0	LatePress	-1	0.291	118.511	1	11	Target	Loss	True
119.511	0.3	Lose2	0.8332999999999999	0.004	No	2.726	-0.004	2.0	LatePress	-1	0.291	n/a	1	11	ButtonPress	Loss	True
119.521	0.41	Lose2	0.8332999999999999	n/a	No	2.726	n/a	n/a	LatePress	-1	n/a	n/a	1	11	Blank	Loss	True
119.922	1.45	Lose2	0.8332999999999999	n/a	No	2.726	n/a	5.0	LatePress	-1	0.007	118.929	1	11	Feedback	Loss	True
121.377	2.726	Lose2	0.8332999999999999	n/a	No	2.726	n/a	n/a	LatePress	-1	0.0	n/a	1	11	ISIslide	Loss	True
124.118	0.25	Control	0.7692	0.0	No	2.982	0.018	n/a	NoResponse	0	n/a	n/a	1	12	Cue	Neutral	True
124.369	3.9	Control	0.7692	0.0	No	2.982	0.001	n/a	NoResponse	0	n/a	n/a	1	12	Fixation	Neutral	True
128.264	0.28	Control	0.7692	0.004	No	2.982	-0.004	2.0	NoResponse	0	0.407	127.671	1	12	Target	Neutral	True
128.548	0.42	Control	0.7692	n/a	No	2.982	n/a	n/a	NoResponse	0	n/a	n/a	1	12	Blank	Neutral	True
128.671	0.3	Control	0.7692	0.004	No	2.982	-0.004	2.0	NoResponse	0	0.407	n/a	1	12	ButtonPress	Neutral	True
128.966	1.45	Control	0.7692	n/a	No	2.982	n/a	5.0	NoResponse	0	0.032	127.998	1	12	Feedback	Neutral	True
130.42	2.982	Control	0.7692	n/a	No	2.982	n/a	n/a	NoResponse	0	0.0	n/a	1	12	ISIslide	Neutral	True
133.429	0.25	Control	0.7143	0.0	No	2.771	0.029	n/a	NoResponse	0	n/a	n/a	1	13	Cue	Neutral	True
133.68	4.0	Control	0.7143	0.0	No	2.771	0.001	n/a	NoResponse	0	n/a	n/a	1	13	Fixation	Neutral	True
137.675	0.27	Control	0.7143	0.004	No	2.771	-0.004	2.0	NoResponse	0	0.298	136.973	1	13	Target	Neutral	True
137.96	0.43	Control	0.7143	n/a	No	2.771	n/a	n/a	NoResponse	0	n/a	n/a	1	13	Blank	Neutral	True
137.973	0.3	Control	0.7143	0.004	No	2.771	-0.004	2.0	NoResponse	0	0.298	n/a	1	13	ButtonPress	Neutral	True
138.377	1.45	Control	0.7143	n/a	No	2.771	n/a	5.0	NoResponse	0	0.036	137.413	1	13	Feedback	Neutral	True
139.832	2.771	Control	0.7143	n/a	No	2.771	n/a	n/a	NoResponse	0	0.0	n/a	1	13	ISIslide	Neutral	True
142.624	0.25	Win2	0.6667000000000001	0.0	No	2.676	0.024	n/a	NoResponse	0	n/a	n/a	1	14	Cue	MissedWin	False
142.874	4.1	Win2	0.6667000000000001	0.0	No	2.676	0.0	2.0	NoResponse	0	0.189	142.063	1	14	Fixation	MissedWin	False
143.063	0.3	Win2	0.6667000000000001	0.0	No	2.676	0.0	2.0	NoResponse	0	0.189	n/a	1	14	ButtonPress	MissedWin	False
146.97	0.26	Win2	0.6667000000000001	0.004	No	2.676	-0.004	2.0	NoResponse	0	0.278	146.248	1	14	Target	MissedWin	False
147.237	0.44	Win2	0.6667000000000001	n/a	No	2.676	n/a	n/a	NoResponse	0	n/a	n/a	1	14	Blank	MissedWin	False
147.248	0.3	Win2	0.6667000000000001	0.004	No	2.676	-0.004	2.0	NoResponse	0	0.278	n/a	1	14	ButtonPress	MissedWin	False
147.672	1.45	Win2	0.6667000000000001	n/a	No	2.676	n/a	5.0	NoResponse	0	0.009	146.681	1	14	Feedback	MissedWin	False
149.126	2.676	Win2	0.6667000000000001	n/a	No	2.676	n/a	n/a	NoResponse	0	0.0	n/a	1	14	ISIslide	MissedWin	False
151.818	0.25	Control	0.625	0.0	No	2.982	0.018	n/a	NoResponse	0	n/a	n/a	1	15	Cue	Neutral	True
152.068	4.0	Control	0.625	0.001	No	2.982	0.0	n/a	NoResponse	0	n/a	n/a	1	15	Fixation	Neutral	True
156.064	0.25	Control	0.625	0.004	No	2.982	-0.004	2.0	NoResponse	0	0.556	155.62	1	15	Target	Neutral	True
156.315	0.45	Control	0.625	n/a	No	2.982	n/a	n/a	NoResponse	0	n/a	n/a	1	15	Blank	Neutral	True
156.62	0.3	Control	0.625	0.004	No	2.982	-0.004	2.0	NoResponse	0	0.556	n/a	1	15	ButtonPress	Neutral	True
156.766	1.45	Control	0.625	n/a	No	2.982	n/a	5.0	NoResponse	0	0.037	155.803	1	15	Feedback	Neutral	True
158.22	2.982	Control	0.625	n/a	No	2.982	n/a	n/a	NoResponse	0	0.0	n/a	1	15	ISIslide	Neutral	True
161.229	0.25	Win2	0.6470999999999999	0.0	Yes	2.871	0.029	n/a	GoodResponse	1	n/a	n/a	2	16	Cue	Win	True
161.48	4.0	Win2	0.6470999999999999	0.0	Yes	2.871	0.001	n/a	GoodResponse	1	n/a	n/a	2	16	Fixation	Win	True
165.475	0.26	Win2	0.6470999999999999	0.004	Yes	2.871	-0.004	2.0	GoodResponse	1	0.232	164.707	2	16	Target	Win	True
165.707	0.3	Win2	0.6470999999999999	0.004	Yes	2.871	-0.004	2.0	GoodResponse	1	0.232	n/a	2	16	ButtonPress	Win	True
165.743	0.44	Win2	0.6470999999999999	n/a	Yes	2.871	n/a	n/a	GoodResponse	1	n/a	n/a	2	16	Blank	Win	True
166.177	1.45	Win2	0.6470999999999999	n/a	Yes	2.871	n/a	5.0	GoodResponse	1	0.04	165.217	2	16	Feedback	Win	True
167.632	2.871	Win2	0.6470999999999999	n/a	Yes	2.871	n/a	n/a	GoodResponse	1	0.0	n/a	2	16	ISIslide	Win	True
170.524	0.25	Lose2	0.6111	0.0	No	2.726	0.024	n/a	LatePress	-1	n/a	n/a	1	17	Cue	Loss	True
170.774	3.95	Lose2	0.6111	0.001	No	2.726	0.0	n/a	LatePress	-1	n/a	n/a	1	17	Fixation	Loss	True
174.72	0.27	Lose2	0.6111	0.004	No	2.726	-0.004	2.0	LatePress	-1	0.282	174.002	1	17	Target	Loss	True
175.002	0.3	Lose2	0.6111	0.004	No	2.726	-0.004	2.0	LatePress	-1	0.282	n/a	1	17	ButtonPress	Loss	True
175.004	0.43	Lose2	0.6111	n/a	No	2.726	n/a	n/a	LatePress	-1	n/a	n/a	1	17	Blank	Loss	True
175.422	1.45	Lose2	0.6111	n/a	No	2.726	n/a	5.0	LatePress	-1	0.014	174.436	1	17	Feedback	Loss	True
176.876	2.726	Lose2	0.6111	n/a	No	2.726	n/a	n/a	LatePress	-1	0.0	n/a	1	17	ISIslide	Loss	True
179.618	0.25	Lose2	0.6315999999999999	0.0	Yes	2.732	0.018	n/a	GoodResponse	0	n/a	n/a	1	18	Cue	AvoidedLoss	True
179.868	4.05	Lose2	0.6315999999999999	0.0	Yes	2.732	0.0	n/a	GoodResponse	0	n/a	n/a	1	18	Fixation	AvoidedLoss	True
183.914	0.28	Lose2	0.6315999999999999	0.004	Yes	2.732	-0.004	2.0	GoodResponse	0	0.215	183.129	1	18	Target	AvoidedLoss	True
184.129	0.3	Lose2	0.6315999999999999	0.004	Yes	2.732	-0.004	2.0	GoodResponse	0	0.215	n/a	1	18	ButtonPress	AvoidedLoss	True
184.198	0.42	Lose2	0.6315999999999999	n/a	Yes	2.732	n/a	n/a	GoodResponse	0	n/a	n/a	1	18	Blank	AvoidedLoss	True
184.616	1.45	Lose2	0.6315999999999999	n/a	Yes	2.732	n/a	5.0	GoodResponse	0	0.04	183.656	1	18	Feedback	AvoidedLoss	True
186.07	2.732	Lose2	0.6315999999999999	n/a	Yes	2.732	n/a	n/a	GoodResponse	0	0.0	n/a	1	18	ISIslide	AvoidedLoss	True
188.829	0.25	Control	0.6	0.0	No	2.921	0.029	n/a	NoResponse	0	n/a	n/a	1	19	Cue	Neutral	True
189.079	3.95	Control	0.6	0.0	No	2.921	0.0	n/a	NoResponse	0	n/a	n/a	1	19	Fixation	Neutral	True
193.041	0.29	Control	0.6	0.0	No	2.921	0.012	2.0	NoResponse	0	0.297	192.338	1	19	Target	Neutral	True
193.325	0.41	Control	0.6	n/a	No	2.921	n/a	n/a	NoResponse	0	n/a	n/a	1	19	Blank	Neutral	True
193.338	0.3	Control	0.6	0.0	No	2.921	0.012	2.0	NoResponse	0	0.297	n/a	1	19	ButtonPress	Neutral	True
193.726	1.45	Control	0.6	n/a	No	2.921	n/a	5.0	NoResponse	0	0.003	192.729	1	19	Feedback	Neutral	True
195.181	2.921	Control	0.6	n/a	No	2.921	n/a	n/a	NoResponse	0	0.0	n/a	1	19	ISIslide	Neutral	True
198.123	0.25	Control	0.5714	0.0	No	2.627	0.023	n/a	NoResponse	0	n/a	n/a	1	20	Cue	Neutral	True
198.374	4.05	Control	0.5714	0.0	No	2.627	0.001	n/a	NoResponse	0	n/a	n/a	1	20	Fixation	Neutral	True
202.419	0.3	Control	0.5714	0.004	No	2.627	-0.004	2.0	NoResponse	0	0.305	201.724	1	20	Target	Neutral	True
202.72	0.4	Control	0.5714	n/a	No	2.627	n/a	n/a	NoResponse	0	n/a	n/a	1	20	Blank	Neutral	True
202.724	0.3	Control	0.5714	0.004	No	2.627	-0.004	2.0	NoResponse	0	0.305	n/a	1	20	ButtonPress	Neutral	True
203.121	1.45	Control	0.5714	n/a	No	2.627	n/a	5.0	NoResponse	0	0.023	202.144	1	20	Feedback	Neutral	True
204.576	2.627	Control	0.5714	n/a	No	2.627	n/a	n/a	NoResponse	0	0.0	n/a	1	20	ISIslide	Neutral	True
207.217	0.25	Control	0.5455	0.0	No	2.783	0.017	n/a	NoResponse	0	n/a	n/a	1	21	Cue	Neutral	True
207.468	4.1	Control	0.5455	0.0	No	2.783	0.001	n/a	NoResponse	0	n/a	n/a	1	21	Fixation	Neutral	True
211.563	0.31	Control	0.5455	0.004	No	2.783	-0.004	2.0	NoResponse	0	0.333	210.896	1	21	Target	Neutral	True
211.881	0.39	Control	0.5455	n/a	No	2.783	n/a	n/a	NoResponse	0	n/a	n/a	1	21	Blank	Neutral	True
211.896	0.3	Control	0.5455	0.004	No	2.783	-0.004	2.0	NoResponse	0	0.333	n/a	1	21	ButtonPress	Neutral	True
212.265	1.45	Control	0.5455	n/a	No	2.783	n/a	5.0	NoResponse	0	0.0	211.265	1	21	Feedback	Neutral	True
213.72	2.783	Control	0.5455	n/a	No	2.783	n/a	n/a	NoResponse	0	0.0	n/a	1	21	ISIslide	Neutral	True
216.528	0.25	Control	0.5217	0.0	No	2.772	0.028	n/a	NoResponse	0	n/a	n/a	1	22	Cue	Neutral	True
216.779	4.0	Control	0.5217	0.0	No	2.772	0.001	n/a	NoResponse	0	n/a	n/a	1	22	Fixation	Neutral	True
220.774	0.32	Control	0.5217	0.004	No	2.772	-0.004	2.0	NoResponse	0	0.513	220.287	1	22	Target	Neutral	True
221.108	0.38	Control	0.5217	n/a	No	2.772	n/a	n/a	NoResponse	0	n/a	n/a	1	22	Blank	Neutral	True
221.287	0.3	Control	0.5217	0.004	No	2.772	-0.004	2.0	NoResponse	0	0.513	n/a	1	22	ButtonPress	Neutral	True
221.476	1.45	Control	0.5217	n/a	No	2.772	n/a	5.0	NoResponse	0	0.009	220.485	1	22	Feedback	Neutral	True
222.931	2.772	Control	0.5217	n/a	No	2.772	n/a	n/a	NoResponse	0	0.0	n/a	1	22	ISIslide	Neutral	True
225.722	0.25	Control	0.5417000000000001	0.0	Yes	2.778	0.022	n/a	GoodResponse	0	n/a	n/a	1	23	Cue	Neutral	True
225.973	3.9	Control	0.5417000000000001	0.0	Yes	2.778	0.001	n/a	GoodResponse	0	n/a	n/a	1	23	Fixation	Neutral	True
229.868	0.33	Control	0.5417000000000001	0.004	Yes	2.778	-0.004	2.0	GoodResponse	0	0.233	229.101	1	23	Target	Neutral	True
230.101	0.3	Control	0.5417000000000001	0.004	Yes	2.778	-0.004	2.0	GoodResponse	0	0.233	n/a	1	23	ButtonPress	Neutral	True
230.202	0.37	Control	0.5417000000000001	n/a	Yes	2.778	n/a	n/a	GoodResponse	0	n/a	n/a	1	23	Blank	Neutral	True
230.57	1.45	Control	0.5417000000000001	n/a	Yes	2.778	n/a	5.0	GoodResponse	0	0.037	229.607	1	23	Feedback	Neutral	True
232.024	2.778	Control	0.5417000000000001	n/a	Yes	2.778	n/a	n/a	GoodResponse	0	0.0	n/a	1	23	ISIslide	Neutral	True
234.816	0.25	Win2	0.56	0.0	Yes	3.134	0.016	n/a	GoodResponse	1	n/a	n/a	2	24	Cue	Win	True
235.067	3.95	Win2	0.56	0.0	Yes	3.134	0.001	n/a	GoodResponse	1	n/a	n/a	2	24	Fixation	Win	True
239.012	0.34	Win2	0.56	0.004	Yes	3.134	-0.004	2.0	GoodResponse	1	0.224	238.236	2	24	Target	Win	True
239.236	0.3	Win2	0.56	0.004	Yes	3.134	-0.004	2.0	GoodResponse	1	0.224	n/a	2	24	ButtonPress	Win	True
239.363	0.36	Win2	0.56	n/a	Yes	3.134	n/a	n/a	GoodResponse	1	n/a	n/a	2	24	Blank	Win	True
239.714	1.45	Win2	0.56	n/a	Yes	3.134	n/a	5.0	GoodResponse	1	0.015	238.729	2	24	Feedback	Win	True
241.168	3.134	Win2	0.56	n/a	Yes	3.134	n/a	n/a	GoodResponse	1	0.0	n/a	2	24	ISIslide	Win	True
244.328	0.25	Win2	0.5769	0.0	Yes	3.072	0.028	n/a	GoodResponse	1	n/a	n/a	3	25	Cue	Win	True
244.579	4.0	Win2	0.5769	0.0	Yes	3.072	0.001	n/a	GoodResponse	1	n/a	n/a	3	25	Fixation	Win	True
248.574	0.35	Win2	0.5769	0.004	Yes	3.072	-0.004	2.0	GoodResponse	1	0.274	247.848	3	25	Target	Win	True
248.848	0.3	Win2	0.5769	0.004	Yes	3.072	-0.004	2.0	GoodResponse	1	0.274	n/a	3	25	ButtonPress	Win	True
248.925	0.35	Win2	0.5769	n/a	Yes	3.072	n/a	n/a	GoodResponse	1	n/a	n/a	3	25	Blank	Win	True
249.276	1.45	Win2	0.5769	n/a	Yes	3.072	n/a	5.0	GoodResponse	1	0.014	248.29	3	25	Feedback	Win	True
250.73	3.072	Win2	0.5769	n/a	Yes	3.072	n/a	n/a	GoodResponse	1	0.0	n/a	3	25	ISIslide	Win	True
253.823	0.25	Win2	0.5926	0.0	Yes	2.927	0.023	n/a	GoodResponse	1	n/a	n/a	4	26	Cue	Win	True
254.074	3.95	Win2	0.5926	0.0	Yes	2.927	0.001	n/a	GoodResponse	1	n/a	n/a	4	26	Fixation	Win	True
258.019	0.36	Win2	0.5926	0.004	Yes	2.927	-0.004	2.0	GoodResponse	1	0.235	257.254	4	26	Target	Win	True
258.254	0.3	Win2	0.5926	0.004	Yes	2.927	-0.004	2.0	GoodResponse	1	0.235	n/a	4	26	ButtonPress	Win	True
258.387	0.34	Win2	0.5926	n/a	Yes	2.927	n/a	n/a	GoodResponse	1	n/a	n/a	4	26	Blank	Win	True
258.721	1.45	Win2	0.5926	n/a	Yes	2.927	n/a	5.0	GoodResponse	1	0.031	257.752	4	26	Feedback	Win	True
260.175	2.927	Win2	0.5926	n/a	Yes	2.927	n/a	n/a	GoodResponse	1	0.0	n/a	4	26	ISIslide	Win	True
263.118	0.25	Lose2	0.6071	0.0	Yes	2.832	0.018	n/a	GoodResponse	0	n/a	n/a	4	27	Cue	AvoidedLoss	True
263.368	4.05	Lose2	0.6071	0.0	Yes	2.832	0.0	n/a	GoodResponse	0	n/a	n/a	4	27	Fixation	AvoidedLoss	True
267.414	0.37	Lose2	0.6071	0.004	Yes	2.832	-0.004	2.0	GoodResponse	0	0.195	266.609	4	27	Target	AvoidedLoss	True
267.609	0.3	Lose2	0.6071	0.004	Yes	2.832	-0.004	2.0	GoodResponse	0	0.195	n/a	4	27	ButtonPress	AvoidedLoss	True
267.798	0.33	Lose2	0.6071	n/a	Yes	2.832	n/a	n/a	GoodResponse	0	n/a	n/a	4	27	Blank	AvoidedLoss	True
268.116	1.45	Lose2	0.6071	n/a	Yes	2.832	n/a	5.0	GoodResponse	0	0.008	267.124	4	27	Feedback	AvoidedLoss	True
269.57	2.832	Lose2	0.6071	n/a	Yes	2.832	n/a	n/a	GoodResponse	0	0.0	n/a	4	27	ISIslide	AvoidedLoss	True
272.429	0.25	Control	0.6207	0.0	Yes	2.821	0.029	n/a	GoodResponse	0	n/a	n/a	4	28	Cue	Neutral	True
272.679	4.05	Control	0.6207	0.001	Yes	2.821	0.0	n/a	GoodResponse	0	n/a	n/a	4	28	Fixation	Neutral	True
276.725	0.38	Control	0.6207	0.004	Yes	2.821	-0.004	2.0	GoodResponse	0	0.372	276.097	4	28	Target	Neutral	True
277.097	0.3	Control	0.6207	0.004	Yes	2.821	-0.004	2.0	GoodResponse	0	0.372	n/a	4	28	ButtonPress	Neutral	True
277.109	0.32	Control	0.6207	n/a	Yes	2.821	n/a	n/a	GoodResponse	0	n/a	n/a	4	28	Blank	Neutral	True
277.427	1.45	Control	0.6207	n/a	Yes	2.821	n/a	5.0	GoodResponse	0	0.009	276.436	4	28	Feedback	Neutral	True
278.881	2.821	Control	0.6207	n/a	Yes	2.821	n/a	n/a	GoodResponse	0	0.0	n/a	4	28	ISIslide	Neutral	True
281.723	0.25	Lose2	0.6333	0.0	Yes	2.827	0.023	n/a	GoodResponse	0	n/a	n/a	4	29	Cue	AvoidedLoss	True
281.974	3.95	Lose2	0.6333	0.0	Yes	2.827	0.001	n/a	GoodResponse	0	n/a	n/a	4	29	Fixation	AvoidedLoss	True
285.919	0.39	Lose2	0.6333	0.004	Yes	2.827	-0.004	2.0	GoodResponse	0	0.274	285.193	4	29	Target	AvoidedLoss	True
286.193	0.3	Lose2	0.6333	0.004	Yes	2.827	-0.004	2.0	GoodResponse	0	0.274	n/a	4	29	ButtonPress	AvoidedLoss	True
286.32	0.31	Lose2	0.6333	n/a	Yes	2.827	n/a	n/a	GoodResponse	0	n/a	n/a	4	29	Blank	AvoidedLoss	True
286.621	1.45	Lose2	0.6333	n/a	Yes	2.827	n/a	5.0	GoodResponse	0	0.034	285.655	4	29	Feedback	AvoidedLoss	True
288.076	2.827	Lose2	0.6333	n/a	Yes	2.827	n/a	n/a	GoodResponse	0	0.0	n/a	4	29	ISIslide	AvoidedLoss	True
290.917	0.25	Win2	0.6452	0.0	Yes	2.783	0.017	n/a	GoodResponse	1	n/a	n/a	5	30	Cue	Win	True
291.168	3.9	Win2	0.6452	0.0	Yes	2.783	0.001	n/a	GoodResponse	1	n/a	n/a	5	30	Fixation	Win	True
295.063	0.4	Win2	0.6452	0.004	Yes	2.783	-0.004	2.0	GoodResponse	1	0.229	294.292	5	30	Target	Win	True
295.292	0.3	Win2	0.6452	0.004	Yes	2.783	-0.004	2.0	GoodResponse	1	0.229	n/a	5	30	ButtonPress	Win	True
295.464	0.3	Win2	0.6452	n/a	Yes	2.783	n/a	n/a	GoodResponse	1	n/a	n/a	5	30	Blank	Win	True
295.765	1.45	Win2	0.6452	n/a	Yes	2.783	n/a	5.0	GoodResponse	1	0.012	294.777	5	30	Feedback	Win	True
297.22	2.783	Win2	0.6452	n/a	Yes	2.783	n/a	n/a	GoodResponse	1	0.0	n/a	5	30	ISIslide	Win	True
300.028	0.25	Lose2	0.6562	0.0	Yes	2.822	0.028	n/a	GoodResponse	0	n/a	n/a	5	31	Cue	AvoidedLoss	True
300.279	4.05	Lose2	0.6562	0.0	Yes	2.822	0.001	n/a	GoodResponse	0	n/a	n/a	5	31	Fixation	AvoidedLoss	True
304.324	0.41	Lose2	0.6562	0.004	Yes	2.822	-0.004	2.0	GoodResponse	0	0.212	303.536	5	31	Target	AvoidedLoss	True
304.536	0.3	Lose2	0.6562	0.004	Yes	2.822	-0.004	2.0	GoodResponse	0	0.212	n/a	5	31	ButtonPress	AvoidedLoss	True
304.742	0.29	Lose2	0.6562	n/a	Yes	2.822	n/a	n/a	GoodResponse	0	n/a	n/a	5	31	Blank	AvoidedLoss	True
305.026	1.45	Lose2	0.6562	n/a	Yes	2.822	n/a	5.0	GoodResponse	0	0.02	304.046	5	31	Feedback	AvoidedLoss	True
306.481	2.822	Lose2	0.6562	n/a	Yes	2.822	n/a	n/a	GoodResponse	0	0.0	n/a	5	31	ISIslide	AvoidedLoss	True
309.323	0.25	Lose2	0.6667000000000001	0.0	Yes	2.627	0.023	n/a	GoodResponse	0	n/a	n/a	5	32	Cue	AvoidedLoss	True
309.573	4.15	Lose2	0.6667000000000001	0.0	Yes	2.627	0.0	n/a	GoodResponse	0	n/a	n/a	5	32	Fixation	AvoidedLoss	True
313.719	0.41	Lose2	0.6667000000000001	0.004	Yes	2.627	-0.004	2.0	GoodResponse	0	0.269	312.988	5	32	Target	AvoidedLoss	True
313.988	0.3	Lose2	0.6667000000000001	0.004	Yes	2.627	-0.004	2.0	GoodResponse	0	0.269	n/a	5	32	ButtonPress	AvoidedLoss	True
314.137	0.29	Lose2	0.6667000000000001	n/a	Yes	2.627	n/a	n/a	GoodResponse	0	n/a	n/a	5	32	Blank	AvoidedLoss	True
314.421	1.45	Lose2	0.6667000000000001	n/a	Yes	2.627	n/a	5.0	GoodResponse	0	0.038	313.459	5	32	Feedback	AvoidedLoss	True
315.875	2.627	Lose2	0.6667000000000001	n/a	Yes	2.627	n/a	n/a	GoodResponse	0	0.0	n/a	5	32	ISIslide	AvoidedLoss	True
318.517	0.25	Win2	0.6765000000000001	0.0	Yes	2.683	0.017	n/a	GoodResponse	1	n/a	n/a	6	33	Cue	Win	True
318.767	4.0	Win2	0.6765000000000001	0.001	Yes	2.683	0.0	n/a	GoodResponse	1	n/a	n/a	6	33	Fixation	Win	True
322.763	0.4	Win2	0.6765000000000001	0.004	Yes	2.683	-0.004	2.0	GoodResponse	1	0.244	322.007	6	33	Target	Win	True
323.007	0.3	Win2	0.6765000000000001	0.004	Yes	2.683	-0.004	2.0	GoodResponse	1	0.244	n/a	6	33	ButtonPress	Win	True
323.164	0.3	Win2	0.6765000000000001	n/a	Yes	2.683	n/a	n/a	GoodResponse	1	n/a	n/a	6	33	Blank	Win	True
323.465	1.45	Win2	0.6765000000000001	n/a	Yes	2.683	n/a	5.0	GoodResponse	1	0.019	322.484	6	33	Feedback	Win	True
324.919	2.683	Win2	0.6765000000000001	n/a	Yes	2.683	n/a	n/a	GoodResponse	1	0.0	n/a	6	33	ISIslide	Win	True
327.627	0.25	Lose2	0.6857	0.0	Yes	2.623	0.027	n/a	GoodResponse	0	n/a	n/a	6	34	Cue	AvoidedLoss	True
327.878	4.05	Lose2	0.6857	0.0	Yes	2.623	0.001	n/a	GoodResponse	0	n/a	n/a	6	34	Fixation	AvoidedLoss	True
331.923	0.39	Lose2	0.6857	0.004	Yes	2.623	-0.004	2.0	GoodResponse	0	0.231	331.154	6	34	Target	AvoidedLoss	True
332.154	0.3	Lose2	0.6857	0.004	Yes	2.623	-0.004	2.0	GoodResponse	0	0.231	n/a	6	34	ButtonPress	AvoidedLoss	True
332.325	0.31	Lose2	0.6857	n/a	Yes	2.623	n/a	n/a	GoodResponse	0	n/a	n/a	6	34	Blank	AvoidedLoss	True
332.626	1.45	Lose2	0.6857	n/a	Yes	2.623	n/a	5.0	GoodResponse	0	0.029	331.655	6	34	Feedback	AvoidedLoss	True
334.08	2.623	Lose2	0.6857	n/a	Yes	2.623	n/a	n/a	GoodResponse	0	0.0	n/a	6	34	ISIslide	AvoidedLoss	True
336.721	0.25	Lose2	0.6944	0.0	Yes	2.679	0.021	n/a	GoodResponse	0	n/a	n/a	6	35	Cue	AvoidedLoss	True
336.972	4.0	Lose2	0.6944	0.0	Yes	2.679	0.001	n/a	GoodResponse	0	n/a	n/a	6	35	Fixation	AvoidedLoss	True
340.967	0.38	Lose2	0.6944	0.004	Yes	2.679	-0.004	2.0	GoodResponse	0	0.27	340.237	6	35	Target	AvoidedLoss	True
341.237	0.3	Lose2	0.6944	0.004	Yes	2.679	-0.004	2.0	GoodResponse	0	0.27	n/a	6	35	ButtonPress	AvoidedLoss	True
341.352	0.32	Lose2	0.6944	n/a	Yes	2.679	n/a	n/a	GoodResponse	0	n/a	n/a	6	35	Blank	AvoidedLoss	True
341.669	1.45	Lose2	0.6944	n/a	Yes	2.679	n/a	5.0	GoodResponse	0	0.01	340.679	6	35	Feedback	AvoidedLoss	True
343.124	2.679	Lose2	0.6944	n/a	Yes	2.679	n/a	n/a	GoodResponse	0	0.0	n/a	6	35	ISIslide	AvoidedLoss	True
345.815	0.25	Control	0.7027	0.0	Yes	2.685	0.015	n/a	GoodResponse	0	n/a	n/a	6	36	Cue	Neutral	True
346.066	4.0	Control	0.7027	0.0	Yes	2.685	0.001	n/a	GoodResponse	0	n/a	n/a	6	36	Fixation	Neutral	True
350.061	0.37	Control	0.7027	0.004	Yes	2.685	-0.004	2.0	GoodResponse	0	0.243	349.304	6	36	Target	Neutral	True
350.304	0.3	Control	0.7027	0.004	Yes	2.685	-0.004	2.0	GoodResponse	0	0.243	n/a	6	36	ButtonPress	Neutral	True
350.446	0.33	Control	0.7027	n/a	Yes	2.685	n/a	n/a	GoodResponse	0	n/a	n/a	6	36	Blank	Neutral	True
350.763	1.45	Control	0.7027	n/a	Yes	2.685	n/a	5.0	GoodResponse	0	0.038	349.801	6	36	Feedback	Neutral	True
352.218	2.685	Control	0.7027	n/a	Yes	2.685	n/a	n/a	GoodResponse	0	0.0	n/a	6	36	ISIslide	Neutral	True
354.926	0.25	Win2	0.7105	0.0	Yes	2.874	0.026	n/a	GoodResponse	1	n/a	n/a	7	37	Cue	Win	True
355.176	4.0	Win2	0.7105	0.001	Yes	2.874	0.0	n/a	GoodResponse	1	n/a	n/a	7	37	Fixation	Win	True
359.172	0.36	Win2	0.7105	0.004	Yes	2.874	-0.004	2.0	GoodResponse	1	0.2	358.372	7	37	Target	Win	True
359.372	0.3	Win2	0.7105	0.004	Yes	2.874	-0.004	2.0	GoodResponse	1	0.2	n/a	7	37	ButtonPress	Win	True
359.539	0.34	Win2	0.7105	n/a	Yes	2.874	n/a	n/a	GoodResponse	1	n/a	n/a	7	37	Blank	Win	True
359.874	1.45	Win2	0.7105	n/a	Yes	2.874	n/a	5.0	GoodResponse	1	0.048	358.922	7	37	Feedback	Win	True
361.328	2.874	Win2	0.7105	n/a	Yes	2.874	n/a	n/a	GoodResponse	1	0.0	n/a	7	37	ISIslide	Win	True
364.22	0.25	Lose2	0.7179000000000001	0.0	Yes	2.83	0.02	n/a	GoodResponse	0	n/a	n/a	7	38	Cue	AvoidedLoss	True
364.471	3.95	Lose2	0.7179000000000001	0.0	Yes	2.83	0.001	n/a	GoodResponse	0	n/a	n/a	7	38	Fixation	AvoidedLoss	True
368.416	0.35	Lose2	0.7179000000000001	0.004	Yes	2.83	-0.004	2.0	GoodResponse	0	0.263	367.679	7	38	Target	AvoidedLoss	True
368.679	0.3	Lose2	0.7179000000000001	0.004	Yes	2.83	-0.004	2.0	GoodResponse	0	0.263	n/a	7	38	ButtonPress	AvoidedLoss	True
368.767	0.35	Lose2	0.7179000000000001	n/a	Yes	2.83	n/a	n/a	GoodResponse	0	n/a	n/a	7	38	Blank	AvoidedLoss	True
369.118	1.45	Lose2	0.7179000000000001	n/a	Yes	2.83	n/a	5.0	GoodResponse	0	0.024	368.142	7	38	Feedback	AvoidedLoss	True
370.573	2.83	Lose2	0.7179000000000001	n/a	Yes	2.83	n/a	n/a	GoodResponse	0	0.0	n/a	7	38	ISIslide	AvoidedLoss	True
373.414	0.25	Win2	0.725	0.0	Yes	2.986	0.014	n/a	GoodResponse	1	n/a	n/a	8	39	Cue	Win	True
373.665	4.1	Win2	0.725	0.0	Yes	2.986	0.001	n/a	GoodResponse	1	n/a	n/a	8	39	Fixation	Win	True
377.761	0.34	Win2	0.725	0.003	Yes	2.986	-0.003	2.0	GoodResponse	1	0.216	376.977	8	39	Target	Win	True
377.977	0.3	Win2	0.725	0.003	Yes	2.986	-0.003	2.0	GoodResponse	1	0.216	n/a	8	39	ButtonPress	Win	True
378.112	0.36	Win2	0.725	n/a	Yes	2.986	n/a	n/a	GoodResponse	1	n/a	n/a	8	39	Blank	Win	True
378.463	1.45	Win2	0.725	n/a	Yes	2.986	n/a	5.0	GoodResponse	1	0.045	377.508	8	39	Feedback	Win	True
379.917	2.986	Win2	0.725	n/a	Yes	2.986	n/a	n/a	GoodResponse	1	0.0	n/a	8	39	ISIslide	Win	True
382.926	0.25	Win2	0.7317	0.0	Yes	2.724	0.026	n/a	GoodResponse	1	n/a	n/a	9	40	Cue	Win	True
383.177	3.95	Win2	0.7317	0.0	Yes	2.724	0.001	n/a	GoodResponse	1	n/a	n/a	9	40	Fixation	Win	True
387.122	0.33	Win2	0.7317	0.004	Yes	2.724	-0.004	2.0	GoodResponse	1	0.232	386.354	9	40	Target	Win	True
387.354	0.3	Win2	0.7317	0.004	Yes	2.724	-0.004	2.0	GoodResponse	1	0.232	n/a	9	40	ButtonPress	Win	True
387.456	0.37	Win2	0.7317	n/a	Yes	2.724	n/a	n/a	GoodResponse	1	n/a	n/a	9	40	Blank	Win	True
387.824	1.45	Win2	0.7317	n/a	Yes	2.724	n/a	5.0	GoodResponse	1	0.001	386.825	9	40	Feedback	Win	True
389.279	2.724	Win2	0.7317	n/a	Yes	2.724	n/a	n/a	GoodResponse	1	0.0	n/a	9	40	ISIslide	Win	True
392.02	0.25	Win2	0.7381	0.0	Yes	2.78	0.02	n/a	GoodResponse	1	n/a	n/a	10	41	Cue	Win	True
392.271	3.9	Win2	0.7381	0.0	Yes	2.78	0.001	n/a	GoodResponse	1	n/a	n/a	10	41	Fixation	Win	True
396.166	0.32	Win2	0.7381	0.004	Yes	2.78	-0.004	2.0	GoodResponse	1	0.225	395.391	10	41	Target	Win	True
396.391	0.3	Win2	0.7381	0.004	Yes	2.78	-0.004	2.0	GoodResponse	1	0.225	n/a	10	41	ButtonPress	Win	True
396.5	0.38	Win2	0.7381	n/a	Yes	2.78	n/a	n/a	GoodResponse	1	n/a	n/a	10	41	Blank	Win	True
396.868	1.45	Win2	0.7381	n/a	Yes	2.78	n/a	5.0	GoodResponse	1	0.03	395.898	10	41	Feedback	Win	True
398.322	2.78	Win2	0.7381	n/a	Yes	2.78	n/a	n/a	GoodResponse	1	0.0	n/a	10	41	ISIslide	Win	True
401.114	0.25	Control	0.7209	0.0	No	2.936	0.014	n/a	NoResponse	0	n/a	n/a	10	42	Cue	Neutral	True
401.365	3.85	Control	0.7209	0.0	No	2.936	0.001	n/a	NoResponse	0	n/a	n/a	10	42	Fixation	Neutral	True
405.21	0.31	Control	0.7209	0.004	No	2.936	-0.004	2.0	NoResponse	0	0.49	404.7	10	42	Target	Neutral	True
405.527	0.39	Control	0.7209	n/a	No	2.936	n/a	n/a	NoResponse	0	n/a	n/a	10	42	Blank	Neutral	True
405.7	0.3	Control	0.7209	0.004	No	2.936	-0.004	2.0	NoResponse	0	0.49	n/a	10	42	ButtonPress	Neutral	True
405.912	1.45	Control	0.7209	n/a	No	2.936	n/a	5.0	NoResponse	0	0.011	404.923	10	42	Feedback	Neutral	True
407.366	2.936	Control	0.7209	n/a	No	2.936	n/a	n/a	NoResponse	0	0.0	n/a	10	42	ISIslide	Neutral	True
410.325	0.25	Win2	0.7273000000000001	0.0	Yes	3.175	0.025	n/a	GoodResponse	1	n/a	n/a	11	43	Cue	Win	True
410.576	4.0	Win2	0.7273000000000001	0.0	Yes	3.175	0.001	n/a	GoodResponse	1	n/a	n/a	11	43	Fixation	Win	True
414.571	0.3	Win2	0.7273000000000001	0.004	Yes	3.175	-0.004	2.0	GoodResponse	1	0.199	413.77	11	43	Target	Win	True
414.77	0.3	Win2	0.7273000000000001	0.004	Yes	3.175	-0.004	2.0	GoodResponse	1	0.199	n/a	11	43	ButtonPress	Win	True
414.872	0.4	Win2	0.7273000000000001	n/a	Yes	3.175	n/a	n/a	GoodResponse	1	n/a	n/a	11	43	Blank	Win	True
415.273	1.45	Win2	0.7273000000000001	n/a	Yes	3.175	n/a	5.0	GoodResponse	1	0.015	414.288	11	43	Feedback	Win	True
416.727	3.175	Win2	0.7273000000000001	n/a	Yes	3.175	n/a	n/a	GoodResponse	1	0.0	n/a	11	43	ISIslide	Win	True
419.92	0.25	Win2	0.7333	0.0	Yes	2.98	0.02	n/a	GoodResponse	1	n/a	n/a	12	44	Cue	Win	True
420.171	4.0	Win2	0.7333	0.0	Yes	2.98	0.001	n/a	GoodResponse	1	n/a	n/a	12	44	Fixation	Win	True
424.166	0.29	Win2	0.7333	0.004	Yes	2.98	-0.004	2.0	GoodResponse	1	0.228	423.394	12	44	Target	Win	True
424.394	0.3	Win2	0.7333	0.004	Yes	2.98	-0.004	2.0	GoodResponse	1	0.228	n/a	12	44	ButtonPress	Win	True
424.467	0.41	Win2	0.7333	n/a	Yes	2.98	n/a	n/a	GoodResponse	1	n/a	n/a	12	44	Blank	Win	True
424.868	1.45	Win2	0.7333	n/a	Yes	2.98	n/a	5.0	GoodResponse	1	0.03	423.898	12	44	Feedback	Win	True
426.323	2.98	Win2	0.7333	n/a	Yes	2.98	n/a	n/a	GoodResponse	1	0.0	n/a	12	44	ISIslide	Win	True
429.315	0.25	Control	0.7173999999999999	0.0	No	2.885	0.015	n/a	NoResponse	0	n/a	n/a	12	45	Cue	Neutral	True
429.566	4.1	Control	0.7173999999999999	0.0	No	2.885	0.001	n/a	NoResponse	0	n/a	n/a	12	45	Fixation	Neutral	True
433.661	0.28	Control	0.7173999999999999	0.004	No	2.885	-0.004	2.0	NoResponse	0	0.391	433.052	12	45	Target	Neutral	True
433.946	0.42	Control	0.7173999999999999	n/a	No	2.885	n/a	n/a	NoResponse	0	n/a	n/a	12	45	Blank	Neutral	True
434.052	0.3	Control	0.7173999999999999	0.004	No	2.885	-0.004	2.0	NoResponse	0	0.391	n/a	12	45	ButtonPress	Neutral	True
434.363	1.45	Control	0.7173999999999999	n/a	No	2.885	n/a	5.0	NoResponse	0	0.047	433.41	12	45	Feedback	Neutral	True
435.818	2.885	Control	0.7173999999999999	n/a	No	2.885	n/a	n/a	NoResponse	0	0.0	n/a	12	45	ISIslide	Neutral	True
438.727	0.25	Lose2	0.7234	0.0	Yes	3.373	0.027	n/a	GoodResponse	0	n/a	n/a	12	46	Cue	AvoidedLoss	True
438.977	4.0	Lose2	0.7234	0.0	Yes	3.373	0.0	n/a	GoodResponse	0	n/a	n/a	12	46	Fixation	AvoidedLoss	True
442.973	0.27	Lose2	0.7234	0.004	Yes	3.373	-0.004	2.0	GoodResponse	0	0.228	442.201	12	46	Target	AvoidedLoss	True
443.201	0.3	Lose2	0.7234	0.004	Yes	3.373	-0.004	2.0	GoodResponse	0	0.228	n/a	12	46	ButtonPress	AvoidedLoss	True
443.257	0.43	Lose2	0.7234	n/a	Yes	3.373	n/a	n/a	GoodResponse	0	n/a	n/a	12	46	Blank	AvoidedLoss	True
443.675	1.45	Lose2	0.7234	n/a	Yes	3.373	n/a	5.0	GoodResponse	0	0.005	442.68	12	46	Feedback	AvoidedLoss	True
445.129	3.373	Lose2	0.7234	n/a	Yes	3.373	n/a	n/a	GoodResponse	0	0.0	n/a	12	46	ISIslide	AvoidedLoss	True
448.523	0.25	Lose2	0.7082999999999999	0.0	No	2.677	0.023	n/a	LatePress	-1	n/a	n/a	11	47	Cue	Loss	True
448.773	4.0	Lose2	0.7082999999999999	0.0	No	2.677	0.0	n/a	LatePress	-1	n/a	n/a	11	47	Fixation	Loss	True
452.769	0.26	Lose2	0.7082999999999999	0.004	No	2.677	-0.004	2.0	LatePress	-1	0.263	452.032	11	47	Target	Loss	True
453.032	0.3	Lose2	0.7082999999999999	0.004	No	2.677	-0.004	2.0	LatePress	-1	0.263	n/a	11	47	ButtonPress	Loss	True
453.036	0.44	Lose2	0.7082999999999999	n/a	No	2.677	n/a	n/a	LatePress	-1	n/a	n/a	11	47	Blank	Loss	True
453.471	1.45	Lose2	0.7082999999999999	n/a	No	2.677	n/a	5.0	LatePress	-1	0.012	452.483	11	47	Feedback	Loss	True
454.925	2.677	Lose2	0.7082999999999999	n/a	No	2.677	n/a	n/a	LatePress	-1	0.0	n/a	11	47	ISIslide	Loss	True
457.616	0.25	Lose2	0.7143	0.0	Yes	3.034	0.016	n/a	GoodResponse	0	n/a	n/a	11	48	Cue	AvoidedLoss	True
457.867	3.95	Lose2	0.7143	0.0	Yes	3.034	0.001	n/a	GoodResponse	0	n/a	n/a	11	48	Fixation	AvoidedLoss	True
461.812	0.25	Lose2	0.7143	0.004	Yes	3.034	-0.004	2.0	GoodResponse	0	0.235	461.047	11	48	Target	AvoidedLoss	True
462.047	0.3	Lose2	0.7143	0.004	Yes	3.034	-0.004	2.0	GoodResponse	0	0.235	n/a	11	48	ButtonPress	AvoidedLoss	True
462.063	0.45	Lose2	0.7143	n/a	Yes	3.034	n/a	n/a	GoodResponse	0	n/a	n/a	11	48	Blank	AvoidedLoss	True
462.514	1.45	Lose2	0.7143	n/a	Yes	3.034	n/a	5.0	GoodResponse	0	0.042	461.556	11	48	Feedback	AvoidedLoss	True
463.969	3.034	Lose2	0.7143	n/a	Yes	3.034	n/a	n/a	GoodResponse	0	0.0	n/a	11	48	ISIslide	AvoidedLoss	True
467.028	0.25	Control	0.7	0.0	No	2.872	0.028	n/a	NoResponse	0	n/a	n/a	11	49	Cue	Neutral	True
467.279	4.0	Control	0.7	0.0	No	2.872	0.001	n/a	NoResponse	0	n/a	n/a	11	49	Fixation	Neutral	True
471.274	0.24	Control	0.7	0.004	No	2.872	-0.004	2.0	NoResponse	0	0.258	470.532	11	49	Target	Neutral	True
471.525	0.46	Control	0.7	n/a	No	2.872	n/a	n/a	NoResponse	0	n/a	n/a	11	49	Blank	Neutral	True
471.532	0.3	Control	0.7	0.004	No	2.872	-0.004	2.0	NoResponse	0	0.258	n/a	11	49	ButtonPress	Neutral	True
471.976	1.45	Control	0.7	n/a	No	2.872	n/a	5.0	NoResponse	0	0.043	471.019	11	49	Feedback	Neutral	True
473.43	2.872	Control	0.7	n/a	No	2.872	n/a	n/a	NoResponse	0	0.0	n/a	11	49	ISIslide	Neutral	True
476.322	0.25	Control	0.6862999999999999	0.0	No	2.778	0.022	n/a	NoResponse	0	n/a	n/a	11	50	Cue	Neutral	True
476.573	4.0	Control	0.6862999999999999	0.0	No	2.778	0.001	n/a	NoResponse	0	n/a	n/a	11	50	Fixation	Neutral	True
480.568	0.23	Control	0.6862999999999999	0.004	No	2.778	-0.004	2.0	NoResponse	0	0.313	479.881	11	50	Target	Neutral	True
480.802	0.47	Control	0.6862999999999999	n/a	No	2.778	n/a	n/a	NoResponse	0	n/a	n/a	11	50	Blank	Neutral	True
480.881	0.3	Control	0.6862999999999999	0.004	No	2.778	-0.004	2.0	NoResponse	0	0.313	n/a	11	50	ButtonPress	Neutral	True
481.271	1.45	Control	0.6862999999999999	n/a	No	2.778	n/a	5.0	NoResponse	0	0.016	480.287	11	50	Feedback	Neutral	True
482.725	2.778	Control	0.6862999999999999	n/a	No	2.778	n/a	n/a	NoResponse	0	0.0	n/a	11	50	ISIslide	Neutral	True
485.517	0.25	Control	0.6731	0.0	No	2.733	0.017	n/a	NoResponse	0	n/a	n/a	11	51	Cue	Neutral	True
485.767	3.95	Control	0.6731	0.0	No	2.733	0.0	n/a	NoResponse	0	n/a	n/a	11	51	Fixation	Neutral	True
489.729	0.22	Control	0.6731	0.0	No	2.733	0.012	2.0	NoResponse	0	0.279	489.008	11	51	Target	Neutral	True
489.947	0.48	Control	0.6731	n/a	No	2.733	n/a	n/a	NoResponse	0	n/a	n/a	11	51	Blank	Neutral	True
490.008	0.3	Control	0.6731	0.0	No	2.733	0.012	2.0	NoResponse	0	0.279	n/a	11	51	ButtonPress	Neutral	True
490.415	1.45	Control	0.6731	n/a	No	2.733	n/a	5.0	NoResponse	0	0.043	489.458	11	51	Feedback	Neutral	True
491.869	2.733	Control	0.6731	n/a	No	2.733	n/a	n/a	NoResponse	0	0.0	n/a	11	51	ISIslide	Neutral	True
494.627	0.25	Control	0.6604000000000001	0.0	No	2.623	0.027	n/a	NoResponse	0	n/a	n/a	11	52	Cue	Neutral	False
494.878	4.05	Control	0.6604000000000001	0.0	No	2.623	0.001	2.0	NoResponse	0	0.144	494.022	11	52	Fixation	Neutral	False
495.022	0.3	Control	0.6604000000000001	0.0	No	2.623	0.001	2.0	NoResponse	0	0.144	n/a	11	52	ButtonPress	Neutral	False
498.923	0.21	Control	0.6604000000000001	0.004	No	2.623	-0.004	2.0	NoResponse	0	0.362	498.285	11	52	Target	Neutral	False
499.141	0.49	Control	0.6604000000000001	n/a	No	2.623	n/a	n/a	NoResponse	0	n/a	n/a	11	52	Blank	Neutral	False
499.285	0.3	Control	0.6604000000000001	0.004	No	2.623	-0.004	2.0	NoResponse	0	0.362	n/a	11	52	ButtonPress	Neutral	False
499.625	1.45	Control	0.6604000000000001	n/a	No	2.623	n/a	5.0	NoResponse	0	0.004	498.629	11	52	Feedback	Neutral	False
501.08	2.623	Control	0.6604000000000001	n/a	No	2.623	n/a	n/a	NoResponse	0	0.0	n/a	11	52	ISIslide	Neutral	False
503.721	0.25	Win2	0.6481	0.0	No	2.929	0.021	n/a	NoResponse	0	n/a	n/a	11	53	Cue	MissedWin	True
503.972	4.05	Win2	0.6481	0.0	No	2.929	0.001	n/a	NoResponse	0	n/a	n/a	11	53	Fixation	MissedWin	True
508.017	0.21	Win2	0.6481	0.004	No	2.929	-0.004	2.0	NoResponse	0	0.245	507.262	11	53	Target	MissedWin	True
508.235	0.49	Win2	0.6481	n/a	No	2.929	n/a	n/a	NoResponse	0	n/a	n/a	11	53	Blank	MissedWin	True
508.262	0.3	Win2	0.6481	0.004	No	2.929	-0.004	2.0	NoResponse	0	0.245	n/a	11	53	ButtonPress	MissedWin	True
508.719	1.45	Win2	0.6481	n/a	No	2.929	n/a	5.0	NoResponse	0	0.032	507.751	11	53	Feedback	MissedWin	True
510.174	2.929	Win2	0.6481	n/a	No	2.929	n/a	n/a	NoResponse	0	0.0	n/a	11	53	ISIslide	MissedWin	True
513.116	0.25	Win2	0.6364	0.0	No	2.734	0.016	n/a	NoResponse	0	n/a	n/a	11	54	Cue	MissedWin	True
513.367	3.95	Win2	0.6364	0.0	No	2.734	0.001	n/a	NoResponse	0	n/a	n/a	11	54	Fixation	MissedWin	True
517.312	0.22	Win2	0.6364	0.004	No	2.734	-0.004	2.0	NoResponse	0	0.241	516.553	11	54	Target	MissedWin	True
517.546	0.48	Win2	0.6364	n/a	No	2.734	n/a	n/a	NoResponse	0	n/a	n/a	11	54	Blank	MissedWin	True
517.553	0.3	Win2	0.6364	0.004	No	2.734	-0.004	2.0	NoResponse	0	0.241	n/a	11	54	ButtonPress	MissedWin	True
518.014	1.45	Win2	0.6364	n/a	No	2.734	n/a	5.0	NoResponse	0	0.005	517.019	11	54	Feedback	MissedWin	True
519.468	2.734	Win2	0.6364	n/a	No	2.734	n/a	n/a	NoResponse	0	0.0	n/a	11	54	ISIslide	MissedWin	True
522.226	0.25	Control	0.625	0.001	No	3.024	0.026	n/a	NoResponse	0	n/a	n/a	11	55	Cue	Neutral	True
522.477	3.95	Control	0.625	0.0	No	3.024	0.001	n/a	NoResponse	0	n/a	n/a	11	55	Fixation	Neutral	True
526.422	0.23	Control	0.625	0.004	No	3.024	-0.004	2.0	NoResponse	0	0.296	525.718	11	55	Target	Neutral	True
526.656	0.47	Control	0.625	n/a	No	3.024	n/a	n/a	NoResponse	0	n/a	n/a	11	55	Blank	Neutral	True
526.718	0.3	Control	0.625	0.004	No	3.024	-0.004	2.0	NoResponse	0	0.296	n/a	11	55	ButtonPress	Neutral	True
527.124	1.45	Control	0.625	n/a	No	3.024	n/a	5.0	NoResponse	0	0.017	526.141	11	55	Feedback	Neutral	True
528.579	3.024	Control	0.625	n/a	No	3.024	n/a	n/a	NoResponse	0	0.0	n/a	11	55	ISIslide	Neutral	True
531.621	0.25	Control	0.614	0.0	No	2.829	0.021	n/a	NoResponse	0	n/a	n/a	11	56	Cue	Neutral	True
531.872	3.95	Control	0.614	0.0	No	2.829	0.001	n/a	NoResponse	0	n/a	n/a	11	56	Fixation	Neutral	True
535.817	0.24	Control	0.614	0.004	No	2.829	-0.004	2.0	NoResponse	0	0.28	535.097	11	56	Target	Neutral	True
536.068	0.46	Control	0.614	n/a	No	2.829	n/a	n/a	NoResponse	0	n/a	n/a	11	56	Blank	Neutral	True
536.097	0.3	Control	0.614	0.004	No	2.829	-0.004	2.0	NoResponse	0	0.28	n/a	11	56	ButtonPress	Neutral	True
536.519	1.45	Control	0.614	n/a	No	2.829	n/a	5.0	NoResponse	0	0.036	535.555	11	56	Feedback	Neutral	True
537.974	2.829	Control	0.614	n/a	No	2.829	n/a	n/a	NoResponse	0	0.0	n/a	11	56	ISIslide	Neutral	True
540.815	0.25	Control	0.6034	0.001	No	3.485	0.015	n/a	NoResponse	0	n/a	n/a	11	57	Cue	Neutral	True
541.066	4.0	Control	0.6034	0.0	No	3.485	0.001	n/a	NoResponse	0	n/a	n/a	11	57	Fixation	Neutral	True
545.061	0.25	Control	0.6034	0.004	No	3.485	-0.004	2.0	NoResponse	0	0.563	544.624	11	57	Target	Neutral	True
545.312	0.45	Control	0.6034	n/a	No	3.485	n/a	n/a	NoResponse	0	n/a	n/a	11	57	Blank	Neutral	True
545.624	0.3	Control	0.6034	0.004	No	3.485	-0.004	2.0	NoResponse	0	0.563	n/a	11	57	ButtonPress	Neutral	True
545.764	1.45	Control	0.6034	n/a	No	3.485	n/a	5.0	NoResponse	0	0.011	544.775	11	57	Feedback	Neutral	True
547.218	3.485	Control	0.6034	n/a	No	3.485	n/a	n/a	NoResponse	0	0.0	n/a	11	57	ISIslide	Neutral	True
550.728	0.25	Win2	0.5932	0.001	No	2.722	0.028	n/a	NoResponse	0	n/a	n/a	11	58	Cue	MissedWin	False
550.979	4.05	Win2	0.5932	0.0	No	2.722	0.001	2.0	NoResponse	0	0.405	550.384	11	58	Fixation	MissedWin	False
551.384	0.3	Win2	0.5932	0.0	No	2.722	0.001	2.0	NoResponse	0	0.405	n/a	11	58	ButtonPress	MissedWin	False
555.025	0.26	Win2	0.5932	0.003	No	2.722	-0.003	2.0	NoResponse	0	0.412	554.437	11	58	Target	MissedWin	False
555.292	0.44	Win2	0.5932	n/a	No	2.722	n/a	n/a	NoResponse	0	n/a	n/a	11	58	Blank	MissedWin	False
555.437	0.3	Win2	0.5932	0.003	No	2.722	-0.003	2.0	NoResponse	0	0.412	n/a	11	58	ButtonPress	MissedWin	False
555.727	1.45	Win2	0.5932	n/a	No	2.722	n/a	5.0	NoResponse	0	0.048	554.775	11	58	Feedback	MissedWin	False
557.181	2.722	Win2	0.5932	n/a	No	2.722	n/a	n/a	NoResponse	0	0.0	n/a	11	58	ISIslide	MissedWin	False
559.923	0.25	Lose2	0.6	0.0	Yes	2.677	0.023	n/a	GoodResponse	0	n/a	n/a	11	59	Cue	AvoidedLoss	True
560.173	4.0	Lose2	0.6	0.0	Yes	2.677	0.0	n/a	GoodResponse	0	n/a	n/a	11	59	Fixation	AvoidedLoss	True
564.169	0.27	Lose2	0.6	0.004	Yes	2.677	-0.004	2.0	GoodResponse	0	0.221	563.39	11	59	Target	AvoidedLoss	True
564.39	0.3	Lose2	0.6	0.004	Yes	2.677	-0.004	2.0	GoodResponse	0	0.221	n/a	11	59	ButtonPress	AvoidedLoss	True
564.453	0.43	Lose2	0.6	n/a	Yes	2.677	n/a	n/a	GoodResponse	0	n/a	n/a	11	59	Blank	AvoidedLoss	True
564.871	1.45	Lose2	0.6	n/a	Yes	2.677	n/a	5.0	GoodResponse	0	0.025	563.896	11	59	Feedback	AvoidedLoss	True
566.325	2.677	Lose2	0.6	n/a	Yes	2.677	n/a	n/a	GoodResponse	0	0.0	n/a	11	59	ISIslide	AvoidedLoss	True
569.017	0.25	Control	0.5902000000000001	0.0	No	2.683	0.017	n/a	NoResponse	0	n/a	n/a	11	60	Cue	Neutral	True
569.267	4.0	Control	0.5902000000000001	0.0	No	2.683	0.0	n/a	NoResponse	0	n/a	n/a	11	60	Fixation	Neutral	True
573.263	0.28	Control	0.5902000000000001	0.004	No	2.683	-0.004	2.0	NoResponse	0	0.292	572.555	11	60	Target	Neutral	True
573.547	0.42	Control	0.5902000000000001	n/a	No	2.683	n/a	n/a	NoResponse	0	n/a	n/a	11	60	Blank	Neutral	True
573.555	0.3	Control	0.5902000000000001	0.004	No	2.683	-0.004	2.0	NoResponse	0	0.292	n/a	11	60	ButtonPress	Neutral	True
573.965	1.45	Control	0.5902000000000001	n/a	No	2.683	n/a	5.0	NoResponse	0	0.005	572.97	11	60	Feedback	Neutral	True
575.419	2.683	Control	0.5902000000000001	n/a	No	2.683	n/a	n/a	NoResponse	0	0.0	n/a	11	60	ISIslide	Neutral	True
578.127	0.25	Lose2	0.5968	0.0	Yes	2.973	0.027	n/a	GoodResponse	0	n/a	n/a	11	61	Cue	AvoidedLoss	True
578.378	4.0	Lose2	0.5968	0.0	Yes	2.973	0.001	n/a	GoodResponse	0	n/a	n/a	11	61	Fixation	AvoidedLoss	True
582.373	0.29	Lose2	0.5968	0.004	Yes	2.973	-0.004	2.0	GoodResponse	0	0.212	581.585	11	61	Target	AvoidedLoss	True
582.585	0.3	Lose2	0.5968	0.004	Yes	2.973	-0.004	2.0	GoodResponse	0	0.212	n/a	11	61	ButtonPress	AvoidedLoss	True
582.674	0.41	Lose2	0.5968	n/a	Yes	2.973	n/a	n/a	GoodResponse	0	n/a	n/a	11	61	Blank	AvoidedLoss	True
583.075	1.45	Lose2	0.5968	n/a	Yes	2.973	n/a	5.0	GoodResponse	0	0.016	582.091	11	61	Feedback	AvoidedLoss	True
584.53	2.973	Lose2	0.5968	n/a	Yes	2.973	n/a	n/a	GoodResponse	0	0.0	n/a	11	61	ISIslide	AvoidedLoss	True
587.522	0.25	Lose2	0.6032	0.0	Yes	2.878	0.022	n/a	GoodResponse	0	n/a	n/a	11	62	Cue	AvoidedLoss	True
587.773	3.9	Lose2	0.6032	0.0	Yes	2.878	0.001	n/a	GoodResponse	0	n/a	n/a	11	62	Fixation	AvoidedLoss	True
591.668	0.3	Lose2	0.6032	0.004	Yes	2.878	-0.004	2.0	GoodResponse	0	0.24	590.908	11	62	Target	AvoidedLoss	True
591.908	0.3	Lose2	0.6032	0.004	Yes	2.878	-0.004	2.0	GoodResponse	0	0.24	n/a	11	62	ButtonPress	AvoidedLoss	True
591.969	0.4	Lose2	0.6032	n/a	Yes	2.878	n/a	n/a	GoodResponse	0	n/a	n/a	11	62	Blank	AvoidedLoss	True
592.37	1.45	Lose2	0.6032	n/a	Yes	2.878	n/a	5.0	GoodResponse	0	0.039	591.409	11	62	Feedback	AvoidedLoss	True
593.824	2.878	Lose2	0.6032	n/a	Yes	2.878	n/a	n/a	GoodResponse	0	0.0	n/a	11	62	ISIslide	AvoidedLoss	True
596.716	0.25	Lose2	0.6093999999999999	0.0	Yes	2.634	0.016	n/a	GoodResponse	0	n/a	n/a	11	63	Cue	AvoidedLoss	True
596.967	4.05	Lose2	0.6093999999999999	0.0	Yes	2.634	0.001	n/a	GoodResponse	0	n/a	n/a	11	63	Fixation	AvoidedLoss	True
601.012	0.31	Lose2	0.6093999999999999	0.004	Yes	2.634	-0.004	2.0	GoodResponse	0	0.224	600.236	11	63	Target	AvoidedLoss	True
601.236	0.3	Lose2	0.6093999999999999	0.004	Yes	2.634	-0.004	2.0	GoodResponse	0	0.224	n/a	11	63	ButtonPress	AvoidedLoss	True
601.33	0.39	Lose2	0.6093999999999999	n/a	Yes	2.634	n/a	n/a	GoodResponse	0	n/a	n/a	11	63	Blank	AvoidedLoss	True
601.714	1.45	Lose2	0.6093999999999999	n/a	Yes	2.634	n/a	5.0	GoodResponse	0	0.012	600.726	11	63	Feedback	AvoidedLoss	True
603.169	2.634	Lose2	0.6093999999999999	n/a	Yes	2.634	n/a	n/a	GoodResponse	0	0.0	n/a	11	63	ISIslide	AvoidedLoss	True
605.827	0.25	Win2	0.6154	0.0	Yes	3.123	0.027	n/a	GoodResponse	1	n/a	n/a	12	64	Cue	Win	True
606.077	4.15	Win2	0.6154	0.001	Yes	3.123	0.0	n/a	GoodResponse	1	n/a	n/a	12	64	Fixation	Win	True
610.223	0.32	Win2	0.6154	0.004	Yes	3.123	-0.004	2.0	GoodResponse	1	0.227	609.45	12	64	Target	Win	True
610.45	0.3	Win2	0.6154	0.004	Yes	3.123	-0.004	2.0	GoodResponse	1	0.227	n/a	12	64	ButtonPress	Win	True
610.558	0.38	Win2	0.6154	n/a	Yes	3.123	n/a	n/a	GoodResponse	1	n/a	n/a	12	64	Blank	Win	True
610.925	1.45	Win2	0.6154	n/a	Yes	3.123	n/a	5.0	GoodResponse	1	0.02	609.945	12	64	Feedback	Win	True
612.38	3.123	Win2	0.6154	n/a	Yes	3.123	n/a	n/a	GoodResponse	1	0.0	n/a	12	64	ISIslide	Win	True
615.522	0.25	Control	0.6212	0.0	Yes	2.778	0.022	n/a	GoodResponse	0	n/a	n/a	12	65	Cue	Neutral	True
615.773	4.0	Control	0.6212	0.0	Yes	2.778	0.001	n/a	GoodResponse	0	n/a	n/a	12	65	Fixation	Neutral	True
619.768	0.33	Control	0.6212	0.004	Yes	2.778	-0.004	2.0	GoodResponse	0	0.285	619.053	12	65	Target	Neutral	True
620.053	0.3	Control	0.6212	0.004	Yes	2.778	-0.004	2.0	GoodResponse	0	0.285	n/a	12	65	ButtonPress	Neutral	True
620.103	0.37	Control	0.6212	n/a	Yes	2.778	n/a	n/a	GoodResponse	0	n/a	n/a	12	65	Blank	Neutral	True
620.471	1.45	Control	0.6212	n/a	Yes	2.778	n/a	5.0	GoodResponse	0	0.034	619.505	12	65	Feedback	Neutral	True
621.925	2.778	Control	0.6212	n/a	Yes	2.778	n/a	n/a	GoodResponse	0	0.0	n/a	12	65	ISIslide	Neutral	True
624.717	0.25	Win2	0.6269	0.0	Yes	2.783	0.017	n/a	GoodResponse	1	n/a	n/a	13	66	Cue	Win	True
624.967	3.9	Win2	0.6269	0.0	Yes	2.783	0.0	n/a	GoodResponse	1	n/a	n/a	13	66	Fixation	Win	True
628.879	0.34	Win2	0.6269	0.0	Yes	2.783	0.012	2.0	GoodResponse	1	0.295	628.174	13	66	Target	Win	True
629.174	0.3	Win2	0.6269	0.0	Yes	2.783	0.012	2.0	GoodResponse	1	0.295	n/a	13	66	ButtonPress	Win	True
629.213	0.36	Win2	0.6269	n/a	Yes	2.783	n/a	n/a	GoodResponse	1	n/a	n/a	13	66	Blank	Win	True
629.564	1.45	Win2	0.6269	n/a	Yes	2.783	n/a	5.0	GoodResponse	1	0.015	628.579	13	66	Feedback	Win	True
631.019	2.783	Win2	0.6269	n/a	Yes	2.783	n/a	n/a	GoodResponse	1	0.0	n/a	13	66	ISIslide	Win	True
633.827	0.25	Control	0.6324000000000001	0.0	Yes	2.723	0.027	n/a	GoodResponse	0	n/a	n/a	13	67	Cue	Neutral	True
634.078	3.95	Control	0.6324000000000001	0.0	Yes	2.723	0.001	n/a	GoodResponse	0	n/a	n/a	13	67	Fixation	Neutral	True
638.023	0.35	Control	0.6324000000000001	0.004	Yes	2.723	-0.004	2.0	GoodResponse	0	0.224	637.247	13	67	Target	Neutral	True
638.247	0.3	Control	0.6324000000000001	0.004	Yes	2.723	-0.004	2.0	GoodResponse	0	0.224	n/a	13	67	ButtonPress	Neutral	True
638.374	0.35	Control	0.6324000000000001	n/a	Yes	2.723	n/a	n/a	GoodResponse	0	n/a	n/a	13	67	Blank	Neutral	True
638.725	1.45	Control	0.6324000000000001	n/a	Yes	2.723	n/a	5.0	GoodResponse	0	0.025	637.75	13	67	Feedback	Neutral	True
640.18	2.723	Control	0.6324000000000001	n/a	Yes	2.723	n/a	n/a	GoodResponse	0	0.0	n/a	13	67	ISIslide	Neutral	True
642.921	0.25	Win2	0.6377	0.0	Yes	3.079	0.021	n/a	GoodResponse	1	n/a	n/a	14	68	Cue	Win	True
643.172	4.0	Win2	0.6377	0.0	Yes	3.079	0.001	n/a	GoodResponse	1	n/a	n/a	14	68	Fixation	Win	True
647.167	0.36	Win2	0.6377	0.004	Yes	3.079	-0.004	2.0	GoodResponse	1	0.271	646.438	14	68	Target	Win	True
647.438	0.3	Win2	0.6377	0.004	Yes	3.079	-0.004	2.0	GoodResponse	1	0.271	n/a	14	68	ButtonPress	Win	True
647.535	0.34	Win2	0.6377	n/a	Yes	3.079	n/a	n/a	GoodResponse	1	n/a	n/a	14	68	Blank	Win	True
647.869	1.45	Win2	0.6377	n/a	Yes	3.079	n/a	5.0	GoodResponse	1	0.005	646.874	14	68	Feedback	Win	True
649.324	3.079	Win2	0.6377	n/a	Yes	3.079	n/a	n/a	GoodResponse	1	0.0	n/a	14	68	ISIslide	Win	True
652.416	0.25	Win2	0.6429	0.0	Yes	3.234	0.016	n/a	GoodResponse	1	n/a	n/a	15	69	Cue	Win	True
652.667	3.95	Win2	0.6429	0.0	Yes	3.234	0.001	n/a	GoodResponse	1	n/a	n/a	15	69	Fixation	Win	True
656.612	0.37	Win2	0.6429	0.004	Yes	3.234	-0.004	2.0	GoodResponse	1	0.359	655.971	15	69	Target	Win	True
656.971	0.3	Win2	0.6429	0.004	Yes	3.234	-0.004	2.0	GoodResponse	1	0.359	n/a	15	69	ButtonPress	Win	True
656.997	0.33	Win2	0.6429	n/a	Yes	3.234	n/a	n/a	GoodResponse	1	n/a	n/a	15	69	Blank	Win	True
657.314	1.45	Win2	0.6429	n/a	Yes	3.234	n/a	5.0	GoodResponse	1	0.021	656.335	15	69	Feedback	Win	True
658.769	3.234	Win2	0.6429	n/a	Yes	3.234	n/a	n/a	GoodResponse	1	0.0	n/a	15	69	ISIslide	Win	True
662.028	0.25	Lose2	0.6479	0.0	Yes	3.022	0.028	n/a	GoodResponse	0	n/a	n/a	15	70	Cue	AvoidedLoss	True
662.279	4.05	Lose2	0.6479	0.0	Yes	3.022	0.001	n/a	GoodResponse	0	n/a	n/a	15	70	Fixation	AvoidedLoss	True
666.324	0.38	Lose2	0.6479	0.004	Yes	3.022	-0.004	2.0	GoodResponse	0	0.23	665.554	15	70	Target	AvoidedLoss	True
666.554	0.3	Lose2	0.6479	0.004	Yes	3.022	-0.004	2.0	GoodResponse	0	0.23	n/a	15	70	ButtonPress	AvoidedLoss	True
666.709	0.32	Lose2	0.6479	n/a	Yes	3.022	n/a	n/a	GoodResponse	0	n/a	n/a	15	70	Blank	AvoidedLoss	True
667.027	1.45	Lose2	0.6479	n/a	Yes	3.022	n/a	5.0	GoodResponse	0	0.015	666.042	15	70	Feedback	AvoidedLoss	True
668.481	3.022	Lose2	0.6479	n/a	Yes	3.022	n/a	n/a	GoodResponse	0	0.0	n/a	15	70	ISIslide	AvoidedLoss	True
671.523	0.25	Win2	0.6389	0.0	No	2.727	0.023	n/a	NoResponse	0	n/a	n/a	15	71	Cue	MissedWin	True
671.774	4.05	Win2	0.6389	0.0	No	2.727	0.001	n/a	NoResponse	0	n/a	n/a	15	71	Fixation	MissedWin	True
675.82	0.39	Win2	0.6389	0.003	No	2.727	-0.003	2.0	NoResponse	0	0.486	675.306	15	71	Target	MissedWin	True
676.221	0.31	Win2	0.6389	n/a	No	2.727	n/a	n/a	NoResponse	0	n/a	n/a	15	71	Blank	MissedWin	True
676.306	0.3	Win2	0.6389	0.003	No	2.727	-0.003	2.0	NoResponse	0	0.486	n/a	15	71	ButtonPress	MissedWin	True
676.522	1.45	Win2	0.6389	n/a	No	2.727	n/a	5.0	NoResponse	0	0.032	675.554	15	71	Feedback	MissedWin	True
677.976	2.727	Win2	0.6389	n/a	No	2.727	n/a	n/a	NoResponse	0	0.0	n/a	15	71	ISIslide	MissedWin	True
680.718	0.25	Win2	0.6437999999999999	0.0	Yes	2.782	0.018	n/a	GoodResponse	1	n/a	n/a	16	72	Cue	Win	True
680.968	4.1	Win2	0.6437999999999999	0.0	Yes	2.782	0.0	n/a	GoodResponse	1	n/a	n/a	16	72	Fixation	Win	True
685.064	0.4	Win2	0.6437999999999999	0.004	Yes	2.782	-0.004	2.0	GoodResponse	1	0.247	684.311	16	72	Target	Win	True
685.311	0.3	Win2	0.6437999999999999	0.004	Yes	2.782	-0.004	2.0	GoodResponse	1	0.247	n/a	16	72	ButtonPress	Win	True
685.465	0.3	Win2	0.6437999999999999	n/a	Yes	2.782	n/a	n/a	GoodResponse	1	n/a	n/a	16	72	Blank	Win	True
685.766	1.45	Win2	0.6437999999999999	n/a	Yes	2.782	n/a	5.0	GoodResponse	1	0.007	684.773	16	72	Feedback	Win	True
687.22	2.782	Win2	0.6437999999999999	n/a	Yes	2.782	n/a	n/a	GoodResponse	1	0.0	n/a	16	72	ISIslide	Win	True
690.029	0.25	Win2	0.6486	0.0	Yes	2.671	0.029	n/a	GoodResponse	1	n/a	n/a	17	73	Cue	Win	True
690.28	4.0	Win2	0.6486	0.0	Yes	2.671	0.001	n/a	GoodResponse	1	n/a	n/a	17	73	Fixation	Win	True
694.275	0.41	Win2	0.6486	0.004	Yes	2.671	-0.004	2.0	GoodResponse	1	0.295	693.57	17	73	Target	Win	True
694.57	0.3	Win2	0.6486	0.004	Yes	2.671	-0.004	2.0	GoodResponse	1	0.295	n/a	17	73	ButtonPress	Win	True
694.693	0.29	Win2	0.6486	n/a	Yes	2.671	n/a	n/a	GoodResponse	1	n/a	n/a	17	73	Blank	Win	True
694.977	1.45	Win2	0.6486	n/a	Yes	2.671	n/a	5.0	GoodResponse	1	0.016	693.993	17	73	Feedback	Win	True
696.431	2.671	Win2	0.6486	n/a	Yes	2.671	n/a	n/a	GoodResponse	1	0.0	n/a	17	73	ISIslide	Win	True
699.123	0.25	Lose2	0.6533	0.0	Yes	2.627	0.023	n/a	GoodResponse	0	n/a	n/a	17	74	Cue	AvoidedLoss	True
699.373	4.05	Lose2	0.6533	0.0	Yes	2.627	0.0	n/a	GoodResponse	0	n/a	n/a	17	74	Fixation	AvoidedLoss	True
703.419	0.42	Lose2	0.6533	0.004	Yes	2.627	-0.004	2.0	GoodResponse	0	0.308	702.727	17	74	Target	AvoidedLoss	True
703.727	0.3	Lose2	0.6533	0.004	Yes	2.627	-0.004	2.0	GoodResponse	0	0.308	n/a	17	74	ButtonPress	AvoidedLoss	True
703.853	0.28	Lose2	0.6533	n/a	Yes	2.627	n/a	n/a	GoodResponse	0	n/a	n/a	17	74	Blank	AvoidedLoss	True
704.121	1.45	Lose2	0.6533	n/a	Yes	2.627	n/a	5.0	GoodResponse	0	0.043	703.164	17	74	Feedback	AvoidedLoss	True
705.575	2.627	Lose2	0.6533	n/a	Yes	2.627	n/a	n/a	GoodResponse	0	0.0	n/a	17	74	ISIslide	AvoidedLoss	True
708.217	0.25	Lose2	0.6579	0.0	Yes	2.933	0.017	n/a	GoodResponse	0	n/a	n/a	17	75	Cue	AvoidedLoss	True
708.467	3.95	Lose2	0.6579	0.0	Yes	2.933	0.0	n/a	GoodResponse	0	n/a	n/a	17	75	Fixation	AvoidedLoss	True
712.429	0.43	Lose2	0.6579	0.0	Yes	2.933	0.012	2.0	GoodResponse	0	0.358	711.787	17	75	Target	AvoidedLoss	True
712.787	0.3	Lose2	0.6579	0.0	Yes	2.933	0.012	2.0	GoodResponse	0	0.358	n/a	17	75	ButtonPress	AvoidedLoss	True
712.847	0.27	Lose2	0.6579	n/a	Yes	2.933	n/a	n/a	GoodResponse	0	n/a	n/a	17	75	Blank	AvoidedLoss	True
713.115	1.45	Lose2	0.6579	n/a	Yes	2.933	n/a	5.0	GoodResponse	0	0.024	712.139	17	75	Feedback	AvoidedLoss	True
714.569	2.933	Lose2	0.6579	n/a	Yes	2.933	n/a	n/a	GoodResponse	0	0.0	n/a	17	75	ISIslide	AvoidedLoss	True
717.528	0.25	Control	0.6494	0.0	No	3.222	0.028	n/a	NoResponse	0	n/a	n/a	17	76	Cue	Neutral	True
717.778	4.05	Control	0.6494	0.001	No	3.222	0.0	n/a	NoResponse	0	n/a	n/a	17	76	Fixation	Neutral	True
721.824	0.43	Control	0.6494	0.004	No	3.222	-0.004	2.0	NoResponse	0	0.471	721.295	17	76	Target	Neutral	True
722.259	0.27	Control	0.6494	n/a	No	3.222	n/a	n/a	NoResponse	0	n/a	n/a	17	76	Blank	Neutral	True
722.295	0.3	Control	0.6494	0.004	No	3.222	-0.004	2.0	NoResponse	0	0.471	n/a	17	76	ButtonPress	Neutral	True
722.526	1.45	Control	0.6494	n/a	No	3.222	n/a	5.0	NoResponse	0	0.027	721.553	17	76	Feedback	Neutral	True
723.98	3.222	Control	0.6494	n/a	No	3.222	n/a	n/a	NoResponse	0	0.0	n/a	17	76	ISIslide	Neutral	True
727.223	0.25	Lose2	0.6537999999999999	0.001	Yes	2.577	0.023	n/a	GoodResponse	0	n/a	n/a	17	77	Cue	AvoidedLoss	True
727.474	3.95	Lose2	0.6537999999999999	0.0	Yes	2.577	0.001	n/a	GoodResponse	0	n/a	n/a	17	77	Fixation	AvoidedLoss	True
731.419	0.44	Lose2	0.6537999999999999	0.004	Yes	2.577	-0.004	2.0	GoodResponse	0	0.24	730.659	17	77	Target	AvoidedLoss	True
731.659	0.3	Lose2	0.6537999999999999	0.004	Yes	2.577	-0.004	2.0	GoodResponse	0	0.24	n/a	17	77	ButtonPress	AvoidedLoss	True
731.871	0.26	Lose2	0.6537999999999999	n/a	Yes	2.577	n/a	n/a	GoodResponse	0	n/a	n/a	17	77	Blank	AvoidedLoss	True
732.121	1.45	Lose2	0.6537999999999999	n/a	Yes	2.577	n/a	5.0	GoodResponse	0	0.042	731.163	17	77	Feedback	AvoidedLoss	True
733.576	2.577	Lose2	0.6537999999999999	n/a	Yes	2.577	n/a	n/a	GoodResponse	0	0.0	n/a	17	77	ISIslide	AvoidedLoss	True
