onset	duration	cue_type	current_mean_accuracy	duration_error	is_hit	isi_adjusted	onset_delay	response	response_type	reward	rt	rt_time	total_reward	trial_number	trial_phase	trial_type	one_press
11.11	0.25	Control	1.0	0.0	Yes	2.94	0.01	n/a	GoodResponse	0	n/a	n/a	0	0	Cue	Neutral	True
11.361	3.85	Control	1.0	0.0	Yes	2.94	0.001	n/a	GoodResponse	0	n/a	n/a	0	0	Fixation	Neutral	True
15.206	0.4	Control	1.0	0.004	Yes	2.94	-0.004	4.0	GoodResponse	0	0.221	14.427	0	0	Target	Neutral	True
15.427	0.3	Control	1.0	0.004	Yes	2.94	-0.004	4.0	GoodResponse	0	0.221	n/a	0	0	ButtonPress	Neutral	True
15.607	0.3	Control	1.0	n/a	Yes	2.94	n/a	n/a	GoodResponse	0	n/a	n/a	0	0	Blank	Neutral	True
15.908	1.45	Control	1.0	n/a	Yes	2.94	n/a	5.0	GoodResponse	0	0.017	14.925	0	0	Feedback	Neutral	True
17.362	2.94	Control	1.0	n/a	Yes	2.94	n/a	n/a	GoodResponse	0	0.0	n/a	0	0	ISIslide	Neutral	True
20.388	0.25	Lose2	1.0	0.0	Yes	2.712	0.088	n/a	GoodResponse	0	n/a	n/a	0	1	Cue	AvoidedLoss	True
20.639	4.0	Lose2	1.0	0.0	Yes	2.712	0.001	n/a	GoodResponse	0	n/a	n/a	0	1	Fixation	AvoidedLoss	True
24.634	0.39	Lose2	1.0	0.004	Yes	2.712	-0.004	1.0	GoodResponse	0	0.232	23.866	0	1	Target	AvoidedLoss	True
24.866	0.3	Lose2	1.0	0.004	Yes	2.712	-0.004	1.0	GoodResponse	0	0.232	n/a	0	1	ButtonPress	AvoidedLoss	True
25.035	0.31	Lose2	1.0	n/a	Yes	2.712	n/a	n/a	GoodResponse	0	n/a	n/a	0	1	Blank	AvoidedLoss	True
25.336	1.45	Lose2	1.0	n/a	Yes	2.712	n/a	5.0	GoodResponse	0	0.008	24.344	0	1	Feedback	AvoidedLoss	True
26.79	2.712	Lose2	1.0	n/a	Yes	2.712	n/a	n/a	GoodResponse	0	0.0	n/a	0	1	ISIslide	AvoidedLoss	True
29.515	0.25	Control	1.0	0.0	Yes	2.585	0.015	n/a	GoodResponse	0	n/a	n/a	0	2	Cue	Neutral	True
29.766	4.1	Control	1.0	0.0	Yes	2.585	0.001	n/a	GoodResponse	0	n/a	n/a	0	2	Fixation	Neutral	True
33.862	0.38	Control	1.0	0.003	Yes	2.585	-0.003	1.0	GoodResponse	0	0.227	33.089	0	2	Target	Neutral	True
34.089	0.3	Control	1.0	0.003	Yes	2.585	-0.003	1.0	GoodResponse	0	0.227	n/a	0	2	ButtonPress	Neutral	True
34.246	0.32	Control	1.0	n/a	Yes	2.585	n/a	n/a	GoodResponse	0	n/a	n/a	0	2	Blank	Neutral	True
34.564	1.45	Control	1.0	n/a	Yes	2.585	n/a	5.0	GoodResponse	0	0.044	33.608	0	2	Feedback	Neutral	True
36.018	2.585	Control	1.0	n/a	Yes	2.585	n/a	n/a	GoodResponse	0	0.0	n/a	0	2	ISIslide	Neutral	True
38.626	0.25	Win2	1.0	0.0	Yes	2.824	0.026	n/a	GoodResponse	1	n/a	n/a	1	3	Cue	Win	True
38.877	3.95	Win2	1.0	0.0	Yes	2.824	0.001	n/a	GoodResponse	1	n/a	n/a	1	3	Fixation	Win	True
42.822	0.37	Win2	1.0	0.004	Yes	2.824	-0.004	1.0	GoodResponse	1	0.215	42.037	1	3	Target	Win	True
43.037	0.3	Win2	1.0	0.004	Yes	2.824	-0.004	1.0	GoodResponse	1	0.215	n/a	1	3	ButtonPress	Win	True
43.206	0.33	Win2	1.0	n/a	Yes	2.824	n/a	n/a	GoodResponse	1	n/a	n/a	1	3	Blank	Win	True
43.524	1.45	Win2	1.0	n/a	Yes	2.824	n/a	5.0	GoodResponse	1	0.011	42.535	1	3	Feedback	Win	True
44.978	2.824	Win2	1.0	n/a	Yes	2.824	n/a	n/a	GoodResponse	1	0.0	n/a	1	3	ISIslide	Win	True
47.82	0.25	Win2	0.8	0.0	No	3.28	0.02	n/a	NoResponse	0	n/a	n/a	1	4	Cue	MissedWin	False
48.071	4.0	Win2	0.8	0.0	No	3.28	0.001	n/a	NoResponse	0	n/a	n/a	1	4	Fixation	MissedWin	False
52.066	0.36	Win2	0.8	0.004	No	3.28	-0.004	n/a	NoResponse	0	n/a	n/a	1	4	Target	MissedWin	False
52.434	0.34	Win2	0.8	n/a	No	3.28	n/a	n/a	NoResponse	0	n/a	n/a	1	4	Blank	MissedWin	False
52.768	1.45	Win2	0.8	n/a	No	3.28	n/a	5.0	NoResponse	0	0.036	51.804	1	4	Feedback	MissedWin	False
54.223	3.28	Win2	0.8	n/a	No	3.28	n/a	n/a	NoResponse	0	0.0	n/a	1	4	ISIslide	MissedWin	False
57.516	0.25	Win2	0.8332999999999999	0.0	Yes	2.784	0.016	n/a	GoodResponse	1	n/a	n/a	2	5	Cue	Win	True
57.767	4.0	Win2	0.8332999999999999	0.0	Yes	2.784	0.001	n/a	GoodResponse	1	n/a	n/a	2	5	Fixation	Win	True
61.762	0.35	Win2	0.8332999999999999	0.004	Yes	2.784	-0.004	1.0	GoodResponse	1	0.244	61.006	2	5	Target	Win	True
62.006	0.3	Win2	0.8332999999999999	0.004	Yes	2.784	-0.004	1.0	GoodResponse	1	0.244	n/a	2	5	ButtonPress	Win	True
62.113	0.35	Win2	0.8332999999999999	n/a	Yes	2.784	n/a	n/a	GoodResponse	1	n/a	n/a	2	5	Blank	Win	True
62.464	1.45	Win2	0.8332999999999999	n/a	Yes	2.784	n/a	5.0	GoodResponse	1	0.047	61.511	2	5	Feedback	Win	True
63.918	2.784	Win2	0.8332999999999999	n/a	Yes	2.784	n/a	n/a	GoodResponse	1	0.0	n/a	2	5	ISIslide	Win	True
66.727	0.25	Lose2	0.8571	0.0	Yes	2.723	0.027	n/a	GoodResponse	0	n/a	n/a	2	6	Cue	AvoidedLoss	True
66.978	3.95	Lose2	0.8571	0.0	Yes	2.723	0.001	n/a	GoodResponse	0	n/a	n/a	2	6	Fixation	AvoidedLoss	True
70.923	0.34	Lose2	0.8571	0.004	Yes	2.723	-0.004	1.0	GoodResponse	0	0.231	70.154	2	6	Target	AvoidedLoss	True
71.154	0.3	Lose2	0.8571	0.004	Yes	2.723	-0.004	1.0	GoodResponse	0	0.231	n/a	2	6	ButtonPress	AvoidedLoss	True
71.274	0.36	Lose2	0.8571	n/a	Yes	2.723	n/a	n/a	GoodResponse	0	n/a	n/a	2	6	Blank	AvoidedLoss	True
71.625	1.45	Lose2	0.8571	n/a	Yes	2.723	n/a	5.0	GoodResponse	0	0.008	70.633	2	6	Feedback	AvoidedLoss	True
73.079	2.723	Lose2	0.8571	n/a	Yes	2.723	n/a	n/a	GoodResponse	0	0.0	n/a	2	6	ISIslide	AvoidedLoss	True
75.821	0.25	Lose2	0.875	0.0	Yes	4.029	0.021	n/a	GoodResponse	0	n/a	n/a	2	7	Cue	AvoidedLoss	True
76.071	4.05	Lose2	0.875	0.001	Yes	4.029	0.0	n/a	GoodResponse	0	n/a	n/a	2	7	Fixation	AvoidedLoss	True
80.117	0.33	Lose2	0.875	0.004	Yes	4.029	-0.004	1.0	GoodResponse	0	0.22	79.337	2	7	Target	AvoidedLoss	True
80.337	0.3	Lose2	0.875	0.004	Yes	4.029	-0.004	1.0	GoodResponse	0	0.22	n/a	2	7	ButtonPress	AvoidedLoss	True
80.451	0.37	Lose2	0.875	n/a	Yes	4.029	n/a	n/a	GoodResponse	0	n/a	n/a	2	7	Blank	AvoidedLoss	True
80.819	1.45	Lose2	0.875	n/a	Yes	4.029	n/a	5.0	GoodResponse	0	0.033	79.852	2	7	Feedback	AvoidedLoss	True
82.273	4.029	Lose2	0.875	n/a	Yes	4.029	n/a	n/a	GoodResponse	0	0.0	n/a	2	7	ISIslide	AvoidedLoss	True
86.319	0.25	Lose2	0.8889	0.0	Yes	3.031	0.019	n/a	GoodResponse	0	n/a	n/a	2	8	Cue	AvoidedLoss	True
86.57	3.95	Lose2	0.8889	0.0	Yes	3.031	0.001	n/a	GoodResponse	0	n/a	n/a	2	8	Fixation	AvoidedLoss	True
90.515	0.32	Lose2	0.8889	0.004	Yes	3.031	-0.004	1.0	GoodResponse	0	0.226	89.741	2	8	Target	AvoidedLoss	True
90.741	0.3	Lose2	0.8889	0.004	Yes	3.031	-0.004	1.0	GoodResponse	0	0.226	n/a	2	8	ButtonPress	AvoidedLoss	True
90.849	0.38	Lose2	0.8889	n/a	Yes	3.031	n/a	n/a	GoodResponse	0	n/a	n/a	2	8	Blank	AvoidedLoss	True
91.217	1.45	Lose2	0.8889	n/a	Yes	3.031	n/a	5.0	GoodResponse	0	0.025	90.242	2	8	Feedback	AvoidedLoss	True
92.671	3.031	Lose2	0.8889	n/a	Yes	3.031	n/a	n/a	GoodResponse	0	0.0	n/a	2	8	ISIslide	AvoidedLoss	True
95.73	0.25	Lose2	0.9	0.0	Yes	3.12	0.03	n/a	GoodResponse	0	n/a	n/a	2	9	Cue	AvoidedLoss	True
95.981	3.95	Lose2	0.9	0.0	Yes	3.12	0.001	n/a	GoodResponse	0	n/a	n/a	2	9	Fixation	AvoidedLoss	True
99.926	0.31	Lose2	0.9	0.004	Yes	3.12	-0.004	1.0	GoodResponse	0	0.189	99.115	2	9	Target	AvoidedLoss	True
100.115	0.3	Lose2	0.9	0.004	Yes	3.12	-0.004	1.0	GoodResponse	0	0.189	n/a	2	9	ButtonPress	AvoidedLoss	True
100.244	0.39	Lose2	0.9	n/a	Yes	3.12	n/a	n/a	GoodResponse	0	n/a	n/a	2	9	Blank	AvoidedLoss	True
100.628	1.45	Lose2	0.9	n/a	Yes	3.12	n/a	5.0	GoodResponse	0	0.029	99.657	2	9	Feedback	AvoidedLoss	True
102.083	3.12	Lose2	0.9	n/a	Yes	3.12	n/a	n/a	GoodResponse	0	0.0	n/a	2	9	ISIslide	AvoidedLoss	True
105.225	0.25	Control	0.9091	0.001	Yes	3.275	0.025	n/a	GoodResponse	0	n/a	n/a	2	10	Cue	Neutral	True
105.476	4.0	Control	0.9091	0.0	Yes	3.275	0.001	n/a	GoodResponse	0	n/a	n/a	2	10	Fixation	Neutral	True
109.472	0.3	Control	0.9091	0.003	Yes	3.275	-0.003	1.0	GoodResponse	0	0.216	108.688	2	10	Target	Neutral	True
109.688	0.3	Control	0.9091	0.003	Yes	3.275	-0.003	1.0	GoodResponse	0	0.216	n/a	2	10	ButtonPress	Neutral	True
109.772	0.4	Control	0.9091	n/a	Yes	3.275	n/a	n/a	GoodResponse	0	n/a	n/a	2	10	Blank	Neutral	True
110.174	1.45	Control	0.9091	n/a	Yes	3.275	n/a	5.0	GoodResponse	0	0.044	109.218	2	10	Feedback	Neutral	True
111.628	3.275	Control	0.9091	n/a	Yes	3.275	n/a	n/a	GoodResponse	0	0.0	n/a	2	10	ISIslide	Neutral	True
114.921	0.25	Lose2	0.9167000000000001	0.0	Yes	2.729	0.021	n/a	GoodResponse	0	n/a	n/a	2	11	Cue	AvoidedLoss	True
115.172	4.05	Lose2	0.9167000000000001	0.0	Yes	2.729	0.001	n/a	GoodResponse	0	n/a	n/a	2	11	Fixation	AvoidedLoss	True
119.217	0.29	Lose2	0.9167000000000001	0.004	Yes	2.729	-0.004	1.0	GoodResponse	0	0.19	118.407	2	11	Target	AvoidedLoss	True
119.407	0.3	Lose2	0.9167000000000001	0.004	Yes	2.729	-0.004	1.0	GoodResponse	0	0.19	n/a	2	11	ButtonPress	AvoidedLoss	True
119.518	0.41	Lose2	0.9167000000000001	n/a	Yes	2.729	n/a	n/a	GoodResponse	0	n/a	n/a	2	11	Blank	AvoidedLoss	True
119.919	1.45	Lose2	0.9167000000000001	n/a	Yes	2.729	n/a	5.0	GoodResponse	0	0.008	118.927	2	11	Feedback	AvoidedLoss	True
121.374	2.729	Lose2	0.9167000000000001	n/a	Yes	2.729	n/a	n/a	GoodResponse	0	0.0	n/a	2	11	ISIslide	AvoidedLoss	True
124.115	0.25	Control	0.8462000000000001	0.0	No	2.985	0.015	n/a	NoResponse	0	n/a	n/a	2	12	Cue	Neutral	False
124.366	3.9	Control	0.8462000000000001	0.0	No	2.985	0.001	n/a	NoResponse	0	n/a	n/a	2	12	Fixation	Neutral	False
128.261	0.28	Control	0.8462000000000001	0.004	No	2.985	-0.004	n/a	NoResponse	0	n/a	n/a	2	12	Target	Neutral	False
128.545	0.42	Control	0.8462000000000001	n/a	No	2.985	n/a	n/a	NoResponse	0	n/a	n/a	2	12	Blank	Neutral	False
128.963	1.45	Control	0.8462000000000001	n/a	No	2.985	n/a	5.0	NoResponse	0	0.036	127.999	2	12	Feedback	Neutral	False
130.418	2.985	Control	0.8462000000000001	n/a	No	2.985	n/a	n/a	NoResponse	0	0.0	n/a	2	12	ISIslide	Neutral	False
133.427	0.25	Control	0.7857	0.0	No	2.773	0.027	n/a	NoResponse	0	n/a	n/a	2	13	Cue	Neutral	False
133.677	4.0	Control	0.7857	0.0	No	2.773	0.0	1.0	NoResponse	0	3.771	136.448	2	13	Fixation	Neutral	False
137.448	0.3	Control	0.7857	0.0	No	2.773	0.0	1.0	NoResponse	0	3.771	n/a	2	13	ButtonPress	Neutral	False
137.673	0.27	Control	0.7857	0.004	No	2.773	-0.004	1.0	NoResponse	0	0.413	137.086	2	13	Target	Neutral	False
137.957	0.43	Control	0.7857	n/a	No	2.773	n/a	n/a	NoResponse	0	n/a	n/a	2	13	Blank	Neutral	False
138.086	0.3	Control	0.7857	0.004	No	2.773	-0.004	1.0	NoResponse	0	0.413	n/a	2	13	ButtonPress	Neutral	False
138.375	1.45	Control	0.7857	n/a	No	2.773	n/a	5.0	NoResponse	0	0.037	137.412	2	13	Feedback	Neutral	False
139.829	2.773	Control	0.7857	n/a	No	2.773	n/a	n/a	NoResponse	0	0.0	n/a	2	13	ISIslide	Neutral	False
142.621	0.25	Win2	0.8	0.0	Yes	2.679	0.021	n/a	GoodResponse	1	n/a	n/a	3	14	Cue	Win	True
142.872	4.1	Win2	0.8	0.0	Yes	2.679	0.001	n/a	GoodResponse	1	n/a	n/a	3	14	Fixation	Win	True
146.967	0.26	Win2	0.8	0.004	Yes	2.679	-0.004	1.0	GoodResponse	1	0.234	146.201	3	14	Target	Win	True
147.201	0.3	Win2	0.8	0.004	Yes	2.679	-0.004	1.0	GoodResponse	1	0.234	n/a	3	14	ButtonPress	Win	True
147.235	0.44	Win2	0.8	n/a	Yes	2.679	n/a	n/a	GoodResponse	1	n/a	n/a	3	14	Blank	Win	True
147.669	1.45	Win2	0.8	n/a	Yes	2.679	n/a	5.0	GoodResponse	1	0.012	146.681	3	14	Feedback	Win	True
149.124	2.679	Win2	0.8	n/a	Yes	2.679	n/a	n/a	GoodResponse	1	0.0	n/a	3	14	ISIslide	Win	True
151.815	0.25	Control	0.8125	0.0	Yes	2.985	0.015	n/a	GoodResponse	0	n/a	n/a	3	15	Cue	Neutral	True
152.066	4.0	Control	0.8125	0.0	Yes	2.985	0.001	n/a	GoodResponse	0	n/a	n/a	3	15	Fixation	Neutral	True
156.061	0.25	Control	0.8125	0.004	Yes	2.985	-0.004	1.0	GoodResponse	0	0.201	155.262	3	15	Target	Neutral	True
156.262	0.3	Control	0.8125	0.004	Yes	2.985	-0.004	1.0	GoodResponse	0	0.201	n/a	3	15	ButtonPress	Neutral	True
156.312	0.45	Control	0.8125	n/a	Yes	2.985	n/a	n/a	GoodResponse	0	n/a	n/a	3	15	Blank	Neutral	True
156.763	1.45	Control	0.8125	n/a	Yes	2.985	n/a	5.0	GoodResponse	0	0.04	155.803	3	15	Feedback	Neutral	True
158.218	2.985	Control	0.8125	n/a	Yes	2.985	n/a	n/a	GoodResponse	0	0.0	n/a	3	15	ISIslide	Neutral	True
161.227	0.25	Win2	0.8234999999999999	0.0	Yes	2.873	0.027	n/a	GoodResponse	1	n/a	n/a	4	16	Cue	Win	True
161.477	4.0	Win2	0.8234999999999999	0.0	Yes	2.873	0.0	n/a	GoodResponse	1	n/a	n/a	4	16	Fixation	Win	True
165.473	0.24	Win2	0.8234999999999999	0.004	Yes	2.873	-0.004	1.0	GoodResponse	1	0.211	164.684	4	16	Target	Win	True
165.684	0.3	Win2	0.8234999999999999	0.004	Yes	2.873	-0.004	1.0	GoodResponse	1	0.211	n/a	4	16	ButtonPress	Win	True
165.723	0.46	Win2	0.8234999999999999	n/a	Yes	2.873	n/a	n/a	GoodResponse	1	n/a	n/a	4	16	Blank	Win	True
166.175	1.45	Win2	0.8234999999999999	n/a	Yes	2.873	n/a	5.0	GoodResponse	1	0.043	165.218	4	16	Feedback	Win	True
167.629	2.873	Win2	0.8234999999999999	n/a	Yes	2.873	n/a	n/a	GoodResponse	1	0.0	n/a	4	16	ISIslide	Win	True
170.521	0.25	Lose2	0.8332999999999999	0.0	Yes	2.729	0.021	n/a	GoodResponse	0	n/a	n/a	4	17	Cue	AvoidedLoss	True
170.772	3.95	Lose2	0.8332999999999999	0.0	Yes	2.729	0.001	n/a	GoodResponse	0	n/a	n/a	4	17	Fixation	AvoidedLoss	True
174.717	0.23	Lose2	0.8332999999999999	0.004	Yes	2.729	-0.004	1.0	GoodResponse	0	0.182	173.899	4	17	Target	AvoidedLoss	True
174.899	0.3	Lose2	0.8332999999999999	0.004	Yes	2.729	-0.004	1.0	GoodResponse	0	0.182	n/a	4	17	ButtonPress	AvoidedLoss	True
174.951	0.47	Lose2	0.8332999999999999	n/a	Yes	2.729	n/a	n/a	GoodResponse	0	n/a	n/a	4	17	Blank	AvoidedLoss	True
175.419	1.45	Lose2	0.8332999999999999	n/a	Yes	2.729	n/a	5.0	GoodResponse	0	0.018	174.437	4	17	Feedback	AvoidedLoss	True
176.873	2.729	Lose2	0.8332999999999999	n/a	Yes	2.729	n/a	n/a	GoodResponse	0	0.0	n/a	4	17	ISIslide	AvoidedLoss	True
179.615	0.25	Lose2	0.8421	0.0	Yes	2.735	0.015	n/a	GoodResponse	0	n/a	n/a	4	18	Cue	AvoidedLoss	True
179.866	4.05	Lose2	0.8421	0.0	Yes	2.735	0.001	n/a	GoodResponse	0	n/a	n/a	4	18	Fixation	AvoidedLoss	True
183.911	0.22	Lose2	0.8421	0.004	Yes	2.735	-0.004	1.0	GoodResponse	0	0.177	183.088	4	18	Target	AvoidedLoss	True
184.088	0.3	Lose2	0.8421	0.004	Yes	2.735	-0.004	1.0	GoodResponse	0	0.177	n/a	4	18	ButtonPress	AvoidedLoss	True
184.145	0.48	Lose2	0.8421	n/a	Yes	2.735	n/a	n/a	GoodResponse	0	n/a	n/a	4	18	Blank	AvoidedLoss	True
184.613	1.45	Lose2	0.8421	n/a	Yes	2.735	n/a	5.0	GoodResponse	0	0.044	183.657	4	18	Feedback	AvoidedLoss	True
186.068	2.735	Lose2	0.8421	n/a	Yes	2.735	n/a	n/a	GoodResponse	0	0.0	n/a	4	18	ISIslide	AvoidedLoss	True
188.826	0.25	Control	0.85	0.0	Yes	2.924	0.026	n/a	GoodResponse	0	n/a	n/a	4	19	Cue	Neutral	True
189.077	3.95	Control	0.85	0.0	Yes	2.924	0.001	n/a	GoodResponse	0	n/a	n/a	4	19	Fixation	Neutral	True
193.022	0.21	Control	0.85	0.004	Yes	2.924	-0.004	1.0	GoodResponse	0	0.196	192.218	4	19	Target	Neutral	True
193.218	0.3	Control	0.85	0.004	Yes	2.924	-0.004	1.0	GoodResponse	0	0.196	n/a	4	19	ButtonPress	Neutral	True
193.239	0.49	Control	0.85	n/a	Yes	2.924	n/a	n/a	GoodResponse	0	n/a	n/a	4	19	Blank	Neutral	True
193.724	1.45	Control	0.85	n/a	Yes	2.924	n/a	5.0	GoodResponse	0	0.008	192.732	4	19	Feedback	Neutral	True
195.178	2.924	Control	0.85	n/a	Yes	2.924	n/a	n/a	GoodResponse	0	0.0	n/a	4	19	ISIslide	Neutral	True
198.12	0.25	Control	0.8571	0.001	Yes	2.63	0.02	n/a	GoodResponse	0	n/a	n/a	4	20	Cue	Neutral	True
198.371	4.05	Control	0.8571	0.0	Yes	2.63	0.001	n/a	GoodResponse	0	n/a	n/a	4	20	Fixation	Neutral	True
202.417	0.2	Control	0.8571	0.003	Yes	2.63	-0.003	1.0	GoodResponse	0	0.198	201.615	4	20	Target	Neutral	True
202.615	0.3	Control	0.8571	0.003	Yes	2.63	-0.003	1.0	GoodResponse	0	0.198	n/a	4	20	ButtonPress	Neutral	True
202.617	0.5	Control	0.8571	n/a	Yes	2.63	n/a	n/a	GoodResponse	0	n/a	n/a	4	20	Blank	Neutral	True
203.119	1.45	Control	0.8571	n/a	Yes	2.63	n/a	5.0	GoodResponse	0	0.025	202.144	4	20	Feedback	Neutral	True
204.573	2.63	Control	0.8571	n/a	Yes	2.63	n/a	n/a	GoodResponse	0	0.0	n/a	4	20	ISIslide	Neutral	True
207.214	0.25	Control	0.8181999999999999	0.0	No	2.786	0.014	n/a	LatePress	0	n/a	n/a	4	21	Cue	Neutral	True
207.465	4.1	Control	0.8181999999999999	0.0	No	2.786	0.001	n/a	LatePress	0	n/a	n/a	4	21	Fixation	Neutral	True
211.561	0.19	Control	0.8181999999999999	0.003	No	2.786	-0.003	1.0	LatePress	0	0.197	210.758	4	21	Target	Neutral	True
211.758	0.3	Control	0.8181999999999999	0.003	No	2.786	-0.003	1.0	LatePress	0	0.197	n/a	4	21	ButtonPress	Neutral	True
211.761	0.51	Control	0.8181999999999999	n/a	No	2.786	n/a	n/a	LatePress	0	n/a	n/a	4	21	Blank	Neutral	True
212.263	1.45	Control	0.8181999999999999	n/a	No	2.786	n/a	5.0	LatePress	0	0.007	211.27	4	21	Feedback	Neutral	True
213.717	2.786	Control	0.8181999999999999	n/a	No	2.786	n/a	n/a	LatePress	0	0.0	n/a	4	21	ISIslide	Neutral	True
216.526	0.25	Control	0.7826000000000001	0.0	No	2.774	0.026	n/a	NoResponse	0	n/a	n/a	4	22	Cue	Neutral	True
216.776	4.0	Control	0.7826000000000001	0.0	No	2.774	0.0	n/a	NoResponse	0	n/a	n/a	4	22	Fixation	Neutral	True
220.772	0.18	Control	0.7826000000000001	0.004	No	2.774	-0.004	1.0	NoResponse	0	0.3	220.072	4	22	Target	Neutral	True
220.956	0.52	Control	0.7826000000000001	n/a	No	2.774	n/a	n/a	NoResponse	0	n/a	n/a	4	22	Blank	Neutral	True
221.072	0.3	Control	0.7826000000000001	0.004	No	2.774	-0.004	1.0	NoResponse	0	0.3	n/a	4	22	ButtonPress	Neutral	True
221.474	1.45	Control	0.7826000000000001	n/a	No	2.774	n/a	5.0	NoResponse	0	0.011	220.485	4	22	Feedback	Neutral	True
222.928	2.774	Control	0.7826000000000001	n/a	No	2.774	n/a	n/a	NoResponse	0	0.0	n/a	4	22	ISIslide	Neutral	True
225.72	0.25	Control	0.75	0.0	No	2.78	0.02	n/a	NoResponse	0	n/a	n/a	4	23	Cue	Neutral	True
225.971	3.9	Control	0.75	0.0	No	2.78	0.001	n/a	NoResponse	0	n/a	n/a	4	23	Fixation	Neutral	True
229.866	0.17	Control	0.75	0.004	No	2.78	-0.004	1.0	NoResponse	0	0.192	229.058	4	23	Target	Neutral	True
230.049	0.53	Control	0.75	n/a	No	2.78	n/a	n/a	NoResponse	0	n/a	n/a	4	23	Blank	Neutral	True
230.058	0.3	Control	0.75	0.004	No	2.78	-0.004	1.0	NoResponse	0	0.192	n/a	4	23	ButtonPress	Neutral	True
230.568	1.45	Control	0.75	n/a	No	2.78	n/a	5.0	NoResponse	0	0.04	229.608	4	23	Feedback	Neutral	True
232.022	2.78	Control	0.75	n/a	No	2.78	n/a	n/a	NoResponse	0	0.0	n/a	4	23	ISIslide	Neutral	True
234.83	0.25	Win2	0.72	0.001	No	3.12	0.03	n/a	NoResponse	0	n/a	n/a	4	24	Cue	MissedWin	True
235.081	3.95	Win2	0.72	0.0	No	3.12	0.001	n/a	NoResponse	0	n/a	n/a	4	24	Fixation	MissedWin	True
239.026	0.16	Win2	0.72	0.004	No	3.12	-0.004	1.0	NoResponse	0	0.192	238.218	4	24	Target	MissedWin	True
239.194	0.54	Win2	0.72	n/a	No	3.12	n/a	n/a	NoResponse	0	n/a	n/a	4	24	Blank	MissedWin	True
239.218	0.3	Win2	0.72	0.004	No	3.12	-0.004	1.0	NoResponse	0	0.192	n/a	4	24	ButtonPress	MissedWin	True
239.728	1.45	Win2	0.72	n/a	No	3.12	n/a	5.0	NoResponse	0	0.002	238.73	4	24	Feedback	MissedWin	True
241.183	3.12	Win2	0.72	n/a	No	3.12	n/a	n/a	NoResponse	0	0.0	n/a	4	24	ISIslide	MissedWin	True
244.326	0.25	Win2	0.6923	0.0	No	3.074	0.026	n/a	PrematurePress	0	n/a	n/a	4	25	Cue	MissedWin	False
244.576	4.0	Win2	0.6923	0.0	No	3.074	0.0	1.0	PrematurePress	0	3.999	247.575	4	25	Fixation	MissedWin	False
248.572	0.15	Win2	0.6923	0.004	No	3.074	-0.004	1.0	PrematurePress	0	0.003	247.575	4	25	Target	MissedWin	False
248.575	0.3	Win2	0.6923	0.0	No	3.074	0.0	1.0	PrematurePress	0	3.999	n/a	4	25	ButtonPress	MissedWin	False
248.575	0.3	Win2	0.6923	0.004	No	3.074	-0.004	1.0	PrematurePress	0	0.003	n/a	4	25	ButtonPress	MissedWin	False
248.722	0.55	Win2	0.6923	n/a	No	3.074	n/a	n/a	PrematurePress	0	n/a	n/a	4	25	Blank	MissedWin	False
249.274	1.45	Win2	0.6923	n/a	No	3.074	n/a	5.0	PrematurePress	0	0.017	248.291	4	25	Feedback	MissedWin	False
250.728	3.074	Win2	0.6923	n/a	No	3.074	n/a	n/a	PrematurePress	0	0.0	n/a	4	25	ISIslide	MissedWin	False
253.821	0.25	Win2	0.6667000000000001	0.0	No	2.929	0.021	n/a	NoResponse	0	n/a	n/a	4	26	Cue	MissedWin	True
254.071	3.95	Win2	0.6667000000000001	0.001	No	2.929	0.0	n/a	NoResponse	0	n/a	n/a	4	26	Fixation	MissedWin	True
258.017	0.15	Win2	0.6667000000000001	0.004	No	2.929	-0.004	1.0	NoResponse	0	0.276	257.293	4	26	Target	MissedWin	True
258.167	0.55	Win2	0.6667000000000001	n/a	No	2.929	n/a	n/a	NoResponse	0	n/a	n/a	4	26	Blank	MissedWin	True
258.293	0.3	Win2	0.6667000000000001	0.004	No	2.929	-0.004	1.0	NoResponse	0	0.276	n/a	4	26	ButtonPress	MissedWin	True
258.719	1.45	Win2	0.6667000000000001	n/a	No	2.929	n/a	5.0	NoResponse	0	0.034	257.753	4	26	Feedback	MissedWin	True
260.173	2.929	Win2	0.6667000000000001	n/a	No	2.929	n/a	n/a	NoResponse	0	0.0	n/a	4	26	ISIslide	MissedWin	True
263.115	0.25	Lose2	0.6429	0.0	No	2.835	0.015	n/a	NoResponse	-1	n/a	n/a	3	27	Cue	Loss	True
263.366	4.05	Lose2	0.6429	0.0	No	2.835	0.001	n/a	NoResponse	-1	n/a	n/a	3	27	Fixation	Loss	True
267.411	0.15	Lose2	0.6429	0.004	No	2.835	-0.004	1.0	NoResponse	-1	0.175	266.586	3	27	Target	Loss	True
267.562	0.55	Lose2	0.6429	n/a	No	2.835	n/a	n/a	NoResponse	-1	n/a	n/a	3	27	Blank	Loss	True
267.586	0.3	Lose2	0.6429	0.004	No	2.835	-0.004	1.0	NoResponse	-1	0.175	n/a	3	27	ButtonPress	Loss	True
268.114	1.45	Lose2	0.6429	n/a	No	2.835	n/a	5.0	NoResponse	-1	0.007	267.121	3	27	Feedback	Loss	True
269.568	2.835	Lose2	0.6429	n/a	No	2.835	n/a	n/a	NoResponse	-1	0.0	n/a	3	27	ISIslide	Loss	True
272.426	0.25	Control	0.6207	0.001	No	2.824	0.026	n/a	NoResponse	0	n/a	n/a	3	28	Cue	Neutral	True
272.677	4.05	Control	0.6207	0.0	No	2.824	0.001	n/a	NoResponse	0	n/a	n/a	3	28	Fixation	Neutral	True
276.723	0.16	Control	0.6207	0.003	No	2.824	-0.003	1.0	NoResponse	0	0.201	275.924	3	28	Target	Neutral	True
276.89	0.54	Control	0.6207	n/a	No	2.824	n/a	n/a	NoResponse	0	n/a	n/a	3	28	Blank	Neutral	True
276.924	0.3	Control	0.6207	0.003	No	2.824	-0.003	1.0	NoResponse	0	0.201	n/a	3	28	ButtonPress	Neutral	True
277.425	1.45	Control	0.6207	n/a	No	2.824	n/a	5.0	NoResponse	0	0.011	276.436	3	28	Feedback	Neutral	True
278.879	2.824	Control	0.6207	n/a	No	2.824	n/a	n/a	NoResponse	0	0.0	n/a	3	28	ISIslide	Neutral	True
281.721	0.25	Lose2	0.6	0.0	No	2.829	0.021	n/a	NoResponse	-1	n/a	n/a	2	29	Cue	Loss	False
281.972	3.95	Lose2	0.6	0.0	No	2.829	0.001	1.0	NoResponse	-1	1.901	282.873	2	29	Fixation	Loss	False
283.873	0.3	Lose2	0.6	0.0	No	2.829	0.001	1.0	NoResponse	-1	1.901	n/a	2	29	ButtonPress	Loss	False
285.917	0.17	Lose2	0.6	0.004	No	2.829	-0.004	1.0	NoResponse	-1	0.191	285.108	2	29	Target	Loss	False
286.101	0.53	Lose2	0.6	n/a	No	2.829	n/a	n/a	NoResponse	-1	n/a	n/a	2	29	Blank	Loss	False
286.108	0.3	Lose2	0.6	0.004	No	2.829	-0.004	1.0	NoResponse	-1	0.191	n/a	2	29	ButtonPress	Loss	False
286.619	1.45	Lose2	0.6	n/a	No	2.829	n/a	5.0	NoResponse	-1	0.037	285.656	2	29	Feedback	Loss	False
288.073	2.829	Lose2	0.6	n/a	No	2.829	n/a	n/a	NoResponse	-1	0.0	n/a	2	29	ISIslide	Loss	False
290.915	0.25	Win2	0.5806	0.0	No	2.785	0.015	n/a	NoResponse	0	n/a	n/a	2	30	Cue	MissedWin	True
291.166	3.9	Win2	0.5806	0.0	No	2.785	0.001	n/a	NoResponse	0	n/a	n/a	2	30	Fixation	MissedWin	True
295.061	0.18	Win2	0.5806	0.004	No	2.785	-0.004	1.0	NoResponse	0	0.195	294.256	2	30	Target	MissedWin	True
295.245	0.52	Win2	0.5806	n/a	No	2.785	n/a	n/a	NoResponse	0	n/a	n/a	2	30	Blank	MissedWin	True
295.256	0.3	Win2	0.5806	0.004	No	2.785	-0.004	1.0	NoResponse	0	0.195	n/a	2	30	ButtonPress	MissedWin	True
295.763	1.45	Win2	0.5806	n/a	No	2.785	n/a	5.0	NoResponse	0	0.015	294.778	2	30	Feedback	MissedWin	True
297.217	2.785	Win2	0.5806	n/a	No	2.785	n/a	n/a	NoResponse	0	0.0	n/a	2	30	ISIslide	MissedWin	True
300.026	0.25	Lose2	0.5938	0.0	Yes	2.824	0.026	n/a	GoodResponse	0	n/a	n/a	2	31	Cue	AvoidedLoss	True
300.277	4.05	Lose2	0.5938	0.0	Yes	2.824	0.001	n/a	GoodResponse	0	n/a	n/a	2	31	Fixation	AvoidedLoss	True
304.322	0.19	Lose2	0.5938	0.004	Yes	2.824	-0.004	1.0	GoodResponse	0	0.185	303.507	2	31	Target	AvoidedLoss	True
304.507	0.3	Lose2	0.5938	0.004	Yes	2.824	-0.004	1.0	GoodResponse	0	0.185	n/a	2	31	ButtonPress	AvoidedLoss	True
304.523	0.51	Lose2	0.5938	n/a	Yes	2.824	n/a	n/a	GoodResponse	0	n/a	n/a	2	31	Blank	AvoidedLoss	True
305.024	1.45	Lose2	0.5938	n/a	Yes	2.824	n/a	5.0	GoodResponse	0	0.022	304.046	2	31	Feedback	AvoidedLoss	True
306.478	2.824	Lose2	0.5938	n/a	Yes	2.824	n/a	n/a	GoodResponse	0	0.0	n/a	2	31	ISIslide	AvoidedLoss	True
309.32	0.25	Lose2	0.5758	0.0	No	2.63	0.02	n/a	NoResponse	-1	n/a	n/a	1	32	Cue	Loss	True
309.571	4.15	Lose2	0.5758	0.0	No	2.63	0.001	1.0	NoResponse	-1	3.642	312.213	1	32	Fixation	Loss	True
313.213	0.3	Lose2	0.5758	0.0	No	2.63	0.001	1.0	NoResponse	-1	3.642	n/a	1	32	ButtonPress	Loss	True
313.717	0.2	Lose2	0.5758	0.003	No	2.63	-0.003	n/a	NoResponse	-1	n/a	n/a	1	32	Target	Loss	True
313.917	0.5	Lose2	0.5758	n/a	No	2.63	n/a	n/a	NoResponse	-1	n/a	n/a	1	32	Blank	Loss	True
314.419	1.45	Lose2	0.5758	n/a	No	2.63	n/a	5.0	NoResponse	-1	0.041	313.46	1	32	Feedback	Loss	True
315.873	2.63	Lose2	0.5758	n/a	No	2.63	n/a	n/a	NoResponse	-1	0.0	n/a	1	32	ISIslide	Loss	True
318.531	0.25	Win2	0.5882000000000001	0.0	Yes	2.669	0.031	n/a	GoodResponse	1	n/a	n/a	2	33	Cue	Win	True
318.782	4.0	Win2	0.5882000000000001	0.0	Yes	2.669	0.001	n/a	GoodResponse	1	n/a	n/a	2	33	Fixation	Win	True
322.777	0.21	Win2	0.5882000000000001	0.004	Yes	2.669	-0.004	1.0	GoodResponse	1	0.172	321.949	2	33	Target	Win	True
322.949	0.3	Win2	0.5882000000000001	0.004	Yes	2.669	-0.004	1.0	GoodResponse	1	0.172	n/a	2	33	ButtonPress	Win	True
322.995	0.49	Win2	0.5882000000000001	n/a	Yes	2.669	n/a	n/a	GoodResponse	1	n/a	n/a	2	33	Blank	Win	True
323.479	1.45	Win2	0.5882000000000001	n/a	Yes	2.669	n/a	5.0	GoodResponse	1	0.008	322.487	2	33	Feedback	Win	True
324.934	2.669	Win2	0.5882000000000001	n/a	Yes	2.669	n/a	n/a	GoodResponse	1	0.0	n/a	2	33	ISIslide	Win	True
327.625	0.25	Lose2	0.6	0.0	Yes	2.625	0.025	n/a	GoodResponse	0	n/a	n/a	2	34	Cue	AvoidedLoss	True
327.876	4.05	Lose2	0.6	0.0	Yes	2.625	0.001	n/a	GoodResponse	0	n/a	n/a	2	34	Fixation	AvoidedLoss	True
331.921	0.22	Lose2	0.6	0.004	Yes	2.625	-0.004	1.0	GoodResponse	0	0.177	331.098	2	34	Target	AvoidedLoss	True
332.098	0.3	Lose2	0.6	0.004	Yes	2.625	-0.004	1.0	GoodResponse	0	0.177	n/a	2	34	ButtonPress	AvoidedLoss	True
332.155	0.48	Lose2	0.6	n/a	Yes	2.625	n/a	n/a	GoodResponse	0	n/a	n/a	2	34	Blank	AvoidedLoss	True
332.623	1.45	Lose2	0.6	n/a	Yes	2.625	n/a	5.0	GoodResponse	0	0.032	331.655	2	34	Feedback	AvoidedLoss	True
334.078	2.625	Lose2	0.6	n/a	Yes	2.625	n/a	n/a	GoodResponse	0	0.0	n/a	2	34	ISIslide	AvoidedLoss	True
336.719	0.25	Lose2	0.5832999999999999	0.0	No	2.681	0.019	n/a	PrematurePress	-1	n/a	n/a	1	35	Cue	Loss	True
336.97	4.0	Lose2	0.5832999999999999	0.0	No	2.681	0.001	n/a	PrematurePress	-1	n/a	n/a	1	35	Fixation	Loss	True
340.965	0.23	Lose2	0.5832999999999999	0.004	No	2.681	-0.004	1.0	PrematurePress	-1	0.088	340.053	1	35	Target	Loss	True
341.053	0.3	Lose2	0.5832999999999999	0.004	No	2.681	-0.004	1.0	PrematurePress	-1	0.088	n/a	1	35	ButtonPress	Loss	True
341.199	0.47	Lose2	0.5832999999999999	n/a	No	2.681	n/a	n/a	PrematurePress	-1	n/a	n/a	1	35	Blank	Loss	True
341.667	1.45	Lose2	0.5832999999999999	n/a	No	2.681	n/a	5.0	PrematurePress	-1	0.013	340.68	1	35	Feedback	Loss	True
343.122	2.681	Lose2	0.5832999999999999	n/a	No	2.681	n/a	n/a	PrematurePress	-1	0.0	n/a	1	35	ISIslide	Loss	True
345.83	0.25	Control	0.5946	0.0	Yes	2.67	0.03	n/a	GoodResponse	0	n/a	n/a	1	36	Cue	Neutral	True
346.08	4.0	Control	0.5946	0.001	Yes	2.67	0.0	n/a	GoodResponse	0	n/a	n/a	1	36	Fixation	Neutral	True
350.076	0.24	Control	0.5946	0.004	Yes	2.67	-0.004	1.0	GoodResponse	0	0.236	349.312	1	36	Target	Neutral	True
350.312	0.3	Control	0.5946	0.004	Yes	2.67	-0.004	1.0	GoodResponse	0	0.236	n/a	1	36	ButtonPress	Neutral	True
350.327	0.46	Control	0.5946	n/a	Yes	2.67	n/a	n/a	GoodResponse	0	n/a	n/a	1	36	Blank	Neutral	True
350.778	1.45	Control	0.5946	n/a	Yes	2.67	n/a	5.0	GoodResponse	0	0.024	349.802	1	36	Feedback	Neutral	True
352.232	2.67	Control	0.5946	n/a	Yes	2.67	n/a	n/a	GoodResponse	0	0.0	n/a	1	36	ISIslide	Neutral	True
354.924	0.25	Win2	0.5789	0.0	No	2.876	0.024	n/a	NoResponse	0	n/a	n/a	1	37	Cue	MissedWin	True
355.174	4.0	Win2	0.5789	0.0	No	2.876	0.0	n/a	NoResponse	0	n/a	n/a	1	37	Fixation	MissedWin	True
359.17	0.25	Win2	0.5789	0.004	No	2.876	-0.004	1.0	NoResponse	0	0.268	358.438	1	37	Target	MissedWin	True
359.42	0.45	Win2	0.5789	n/a	No	2.876	n/a	n/a	NoResponse	0	n/a	n/a	1	37	Blank	MissedWin	True
359.438	0.3	Win2	0.5789	0.004	No	2.876	-0.004	1.0	NoResponse	0	0.268	n/a	1	37	ButtonPress	MissedWin	True
359.872	1.45	Win2	0.5789	n/a	No	2.876	n/a	5.0	NoResponse	0	0.006	358.878	1	37	Feedback	MissedWin	True
361.326	2.876	Win2	0.5789	n/a	No	2.876	n/a	n/a	NoResponse	0	0.0	n/a	1	37	ISIslide	MissedWin	True
364.218	0.25	Lose2	0.5897	0.0	Yes	2.832	0.018	n/a	GoodResponse	0	n/a	n/a	1	38	Cue	AvoidedLoss	False
364.469	3.95	Lose2	0.5897	0.0	Yes	2.832	0.001	1.0	GoodResponse	0	3.694	367.163	1	38	Fixation	AvoidedLoss	False
368.163	0.3	Lose2	0.5897	0.0	Yes	2.832	0.001	1.0	GoodResponse	0	3.694	n/a	1	38	ButtonPress	AvoidedLoss	False
368.414	0.26	Lose2	0.5897	0.004	Yes	2.832	-0.004	1.0	GoodResponse	0	0.218	367.632	1	38	Target	AvoidedLoss	False
368.632	0.3	Lose2	0.5897	0.004	Yes	2.832	-0.004	1.0	GoodResponse	0	0.218	n/a	1	38	ButtonPress	AvoidedLoss	False
368.682	0.44	Lose2	0.5897	n/a	Yes	2.832	n/a	n/a	GoodResponse	0	n/a	n/a	1	38	Blank	AvoidedLoss	False
369.116	1.45	Lose2	0.5897	n/a	Yes	2.832	n/a	5.0	GoodResponse	0	0.027	368.143	1	38	Feedback	AvoidedLoss	False
370.571	2.832	Lose2	0.5897	n/a	Yes	2.832	n/a	n/a	GoodResponse	0	0.0	n/a	1	38	ISIslide	AvoidedLoss	False
373.429	0.25	Win2	0.6	0.0	Yes	2.971	0.029	n/a	GoodResponse	1	n/a	n/a	2	39	Cue	Win	True
373.68	4.1	Win2	0.6	0.0	Yes	2.971	0.001	n/a	GoodResponse	1	n/a	n/a	2	39	Fixation	Win	True
377.775	0.27	Win2	0.6	0.004	Yes	2.971	-0.004	1.0	GoodResponse	1	0.177	376.952	2	39	Target	Win	True
377.952	0.3	Win2	0.6	0.004	Yes	2.971	-0.004	1.0	GoodResponse	1	0.177	n/a	2	39	ButtonPress	Win	True
378.06	0.43	Win2	0.6	n/a	Yes	2.971	n/a	n/a	GoodResponse	1	n/a	n/a	2	39	Blank	Win	True
378.478	1.45	Win2	0.6	n/a	Yes	2.971	n/a	5.0	GoodResponse	1	0.031	377.509	2	39	Feedback	Win	True
379.932	2.971	Win2	0.6	n/a	Yes	2.971	n/a	n/a	GoodResponse	1	0.0	n/a	2	39	ISIslide	Win	True
382.924	0.25	Win2	0.6098	0.0	Yes	2.726	0.024	n/a	GoodResponse	1	n/a	n/a	3	40	Cue	Win	True
383.175	3.95	Win2	0.6098	0.0	Yes	2.726	0.001	n/a	GoodResponse	1	n/a	n/a	3	40	Fixation	Win	True
387.12	0.28	Win2	0.6098	0.004	Yes	2.726	-0.004	1.0	GoodResponse	1	0.274	386.394	3	40	Target	Win	True
387.394	0.3	Win2	0.6098	0.004	Yes	2.726	-0.004	1.0	GoodResponse	1	0.274	n/a	3	40	ButtonPress	Win	True
387.404	0.42	Win2	0.6098	n/a	Yes	2.726	n/a	n/a	GoodResponse	1	n/a	n/a	3	40	Blank	Win	True
387.822	1.45	Win2	0.6098	n/a	Yes	2.726	n/a	5.0	GoodResponse	1	0.008	386.83	3	40	Feedback	Win	True
389.277	2.726	Win2	0.6098	n/a	Yes	2.726	n/a	n/a	GoodResponse	1	0.0	n/a	3	40	ISIslide	Win	True
392.018	0.25	Win2	0.619	0.0	Yes	2.782	0.018	n/a	GoodResponse	1	n/a	n/a	4	41	Cue	Win	True
392.269	3.9	Win2	0.619	0.0	Yes	2.782	0.001	n/a	GoodResponse	1	n/a	n/a	4	41	Fixation	Win	True
396.164	0.29	Win2	0.619	0.004	Yes	2.782	-0.004	1.0	GoodResponse	1	0.183	395.347	4	41	Target	Win	True
396.347	0.3	Win2	0.619	0.004	Yes	2.782	-0.004	1.0	GoodResponse	1	0.183	n/a	4	41	ButtonPress	Win	True
396.465	0.41	Win2	0.619	n/a	Yes	2.782	n/a	n/a	GoodResponse	1	n/a	n/a	4	41	Blank	Win	True
396.866	1.45	Win2	0.619	n/a	Yes	2.782	n/a	5.0	GoodResponse	1	0.033	395.899	4	41	Feedback	Win	True
398.32	2.782	Win2	0.619	n/a	Yes	2.782	n/a	n/a	GoodResponse	1	0.0	n/a	4	41	ISIslide	Win	True
401.129	0.25	Control	0.6279	0.0	Yes	2.921	0.029	n/a	GoodResponse	0	n/a	n/a	4	42	Cue	Neutral	True
401.38	3.85	Control	0.6279	0.0	Yes	2.921	0.001	n/a	GoodResponse	0	n/a	n/a	4	42	Fixation	Neutral	True
405.241	0.3	Control	0.6279	0.0	Yes	2.921	0.012	1.0	GoodResponse	0	0.203	404.444	4	42	Target	Neutral	True
405.444	0.3	Control	0.6279	0.0	Yes	2.921	0.012	1.0	GoodResponse	0	0.203	n/a	4	42	ButtonPress	Neutral	True
405.525	0.4	Control	0.6279	n/a	Yes	2.921	n/a	n/a	GoodResponse	0	n/a	n/a	4	42	Blank	Neutral	True
405.926	1.45	Control	0.6279	n/a	Yes	2.921	n/a	5.0	GoodResponse	0	0.046	404.972	4	42	Feedback	Neutral	True
407.381	2.921	Control	0.6279	n/a	Yes	2.921	n/a	n/a	GoodResponse	0	0.0	n/a	4	42	ISIslide	Neutral	True
410.323	0.25	Win2	0.6136	0.0	No	3.177	0.023	n/a	NoResponse	0	n/a	n/a	4	43	Cue	MissedWin	False
410.574	4.0	Win2	0.6136	0.0	No	3.177	0.001	1.0	NoResponse	0	3.314	412.888	4	43	Fixation	MissedWin	False
413.888	0.3	Win2	0.6136	0.0	No	3.177	0.001	1.0	NoResponse	0	3.314	n/a	4	43	ButtonPress	MissedWin	False
414.569	0.31	Win2	0.6136	0.004	No	3.177	-0.004	1.0	NoResponse	0	0.362	413.931	4	43	Target	MissedWin	False
414.887	0.39	Win2	0.6136	n/a	No	3.177	n/a	n/a	NoResponse	0	n/a	n/a	4	43	Blank	MissedWin	False
414.931	0.3	Win2	0.6136	0.004	No	3.177	-0.004	1.0	NoResponse	0	0.362	n/a	4	43	ButtonPress	MissedWin	False
415.271	1.45	Win2	0.6136	n/a	No	3.177	n/a	5.0	NoResponse	0	0.018	414.289	4	43	Feedback	MissedWin	False
416.725	3.177	Win2	0.6136	n/a	No	3.177	n/a	n/a	NoResponse	0	0.0	n/a	4	43	ISIslide	MissedWin	False
419.918	0.25	Win2	0.6222	0.0	Yes	2.982	0.018	n/a	GoodResponse	1	n/a	n/a	5	44	Cue	Win	True
420.169	4.0	Win2	0.6222	0.0	Yes	2.982	0.001	n/a	GoodResponse	1	n/a	n/a	5	44	Fixation	Win	True
424.164	0.32	Win2	0.6222	0.004	Yes	2.982	-0.004	1.0	GoodResponse	1	0.201	423.365	5	44	Target	Win	True
424.365	0.3	Win2	0.6222	0.004	Yes	2.982	-0.004	1.0	GoodResponse	1	0.201	n/a	5	44	ButtonPress	Win	True
424.499	0.38	Win2	0.6222	n/a	Yes	2.982	n/a	n/a	GoodResponse	1	n/a	n/a	5	44	Blank	Win	True
424.867	1.45	Win2	0.6222	n/a	Yes	2.982	n/a	5.0	GoodResponse	1	0.032	423.899	5	44	Feedback	Win	True
426.321	2.982	Win2	0.6222	n/a	Yes	2.982	n/a	n/a	GoodResponse	1	0.0	n/a	5	44	ISIslide	Win	True
429.33	0.25	Control	0.6304	0.0	Yes	2.87	0.03	n/a	GoodResponse	0	n/a	n/a	5	45	Cue	Neutral	True
429.581	4.1	Control	0.6304	0.0	Yes	2.87	0.001	n/a	GoodResponse	0	n/a	n/a	5	45	Fixation	Neutral	True
433.676	0.33	Control	0.6304	0.004	Yes	2.87	-0.004	1.0	GoodResponse	0	0.241	432.917	5	45	Target	Neutral	True
433.917	0.3	Control	0.6304	0.004	Yes	2.87	-0.004	1.0	GoodResponse	0	0.241	n/a	5	45	ButtonPress	Neutral	True
434.011	0.37	Control	0.6304	n/a	Yes	2.87	n/a	n/a	GoodResponse	0	n/a	n/a	5	45	Blank	Neutral	True
434.378	1.45	Control	0.6304	n/a	Yes	2.87	n/a	5.0	GoodResponse	0	0.033	433.411	5	45	Feedback	Neutral	True
435.833	2.87	Control	0.6304	n/a	Yes	2.87	n/a	n/a	GoodResponse	0	0.0	n/a	5	45	ISIslide	Neutral	True
438.725	0.25	Lose2	0.6383	0.0	Yes	3.375	0.025	n/a	GoodResponse	0	n/a	n/a	5	46	Cue	AvoidedLoss	True
438.975	4.0	Lose2	0.6383	0.001	Yes	3.375	0.0	n/a	GoodResponse	0	n/a	n/a	5	46	Fixation	AvoidedLoss	True
442.971	0.34	Lose2	0.6383	0.004	Yes	3.375	-0.004	1.0	GoodResponse	0	0.19	442.161	5	46	Target	AvoidedLoss	True
443.161	0.3	Lose2	0.6383	0.004	Yes	3.375	-0.004	1.0	GoodResponse	0	0.19	n/a	5	46	ButtonPress	AvoidedLoss	True
443.322	0.36	Lose2	0.6383	n/a	Yes	3.375	n/a	n/a	GoodResponse	0	n/a	n/a	5	46	Blank	AvoidedLoss	True
443.673	1.45	Lose2	0.6383	n/a	Yes	3.375	n/a	5.0	GoodResponse	0	0.008	442.681	5	46	Feedback	AvoidedLoss	True
445.127	3.375	Lose2	0.6383	n/a	Yes	3.375	n/a	n/a	GoodResponse	0	0.0	n/a	5	46	ISIslide	AvoidedLoss	True
448.521	0.25	Lose2	0.6457999999999999	0.0	Yes	2.679	0.021	n/a	GoodResponse	0	n/a	n/a	5	47	Cue	AvoidedLoss	True
448.771	4.0	Lose2	0.6457999999999999	0.001	Yes	2.679	0.0	n/a	GoodResponse	0	n/a	n/a	5	47	Fixation	AvoidedLoss	True
452.767	0.35	Lose2	0.6457999999999999	0.004	Yes	2.679	-0.004	1.0	GoodResponse	0	0.197	451.964	5	47	Target	AvoidedLoss	True
452.964	0.3	Lose2	0.6457999999999999	0.004	Yes	2.679	-0.004	1.0	GoodResponse	0	0.197	n/a	5	47	ButtonPress	AvoidedLoss	True
453.118	0.35	Lose2	0.6457999999999999	n/a	Yes	2.679	n/a	n/a	GoodResponse	0	n/a	n/a	5	47	Blank	AvoidedLoss	True
453.469	1.45	Lose2	0.6457999999999999	n/a	Yes	2.679	n/a	5.0	GoodResponse	0	0.015	452.484	5	47	Feedback	AvoidedLoss	True
454.923	2.679	Lose2	0.6457999999999999	n/a	Yes	2.679	n/a	n/a	GoodResponse	0	0.0	n/a	5	47	ISIslide	AvoidedLoss	True
457.631	0.25	Lose2	0.6531	0.0	Yes	3.019	0.031	n/a	GoodResponse	0	n/a	n/a	5	48	Cue	AvoidedLoss	True
457.882	3.95	Lose2	0.6531	0.0	Yes	3.019	0.001	n/a	GoodResponse	0	n/a	n/a	5	48	Fixation	AvoidedLoss	True
461.827	0.36	Lose2	0.6531	0.004	Yes	3.019	-0.004	1.0	GoodResponse	0	0.238	461.065	5	48	Target	AvoidedLoss	True
462.065	0.3	Lose2	0.6531	0.004	Yes	3.019	-0.004	1.0	GoodResponse	0	0.238	n/a	5	48	ButtonPress	AvoidedLoss	True
462.195	0.34	Lose2	0.6531	n/a	Yes	3.019	n/a	n/a	GoodResponse	0	n/a	n/a	5	48	Blank	AvoidedLoss	True
462.529	1.45	Lose2	0.6531	n/a	Yes	3.019	n/a	5.0	GoodResponse	0	0.028	461.557	5	48	Feedback	AvoidedLoss	True
463.984	3.019	Lose2	0.6531	n/a	Yes	3.019	n/a	n/a	GoodResponse	0	0.0	n/a	5	48	ISIslide	AvoidedLoss	True
467.026	0.25	Control	0.66	0.0	Yes	2.874	0.026	n/a	GoodResponse	0	n/a	n/a	5	49	Cue	Neutral	True
467.277	4.0	Control	0.66	0.0	Yes	2.874	0.001	n/a	GoodResponse	0	n/a	n/a	5	49	Fixation	Neutral	True
471.272	0.37	Control	0.66	0.004	Yes	2.874	-0.004	1.0	GoodResponse	0	0.258	470.53	5	49	Target	Neutral	True
471.53	0.3	Control	0.66	0.004	Yes	2.874	-0.004	1.0	GoodResponse	0	0.258	n/a	5	49	ButtonPress	Neutral	True
471.657	0.33	Control	0.66	n/a	Yes	2.874	n/a	n/a	GoodResponse	0	n/a	n/a	5	49	Blank	Neutral	True
471.974	1.45	Control	0.66	n/a	Yes	2.874	n/a	5.0	GoodResponse	0	0.047	471.021	5	49	Feedback	Neutral	True
473.429	2.874	Control	0.66	n/a	Yes	2.874	n/a	n/a	GoodResponse	0	0.0	n/a	5	49	ISIslide	Neutral	True
476.321	0.25	Control	0.6667000000000001	0.0	Yes	2.779	0.021	n/a	GoodResponse	0	n/a	n/a	5	50	Cue	Neutral	True
476.571	4.0	Control	0.6667000000000001	0.001	Yes	2.779	0.0	n/a	GoodResponse	0	n/a	n/a	5	50	Fixation	Neutral	True
480.567	0.37	Control	0.6667000000000001	0.004	Yes	2.779	-0.004	1.0	GoodResponse	0	0.245	479.812	5	50	Target	Neutral	True
480.812	0.3	Control	0.6667000000000001	0.004	Yes	2.779	-0.004	1.0	GoodResponse	0	0.245	n/a	5	50	ButtonPress	Neutral	True
480.951	0.33	Control	0.6667000000000001	n/a	Yes	2.779	n/a	n/a	GoodResponse	0	n/a	n/a	5	50	Blank	Neutral	True
481.269	1.45	Control	0.6667000000000001	n/a	Yes	2.779	n/a	5.0	GoodResponse	0	0.02	480.289	5	50	Feedback	Neutral	True
482.723	2.779	Control	0.6667000000000001	n/a	Yes	2.779	n/a	n/a	GoodResponse	0	0.0	n/a	5	50	ISIslide	Neutral	True
485.515	0.25	Control	0.6731	0.0	Yes	2.735	0.015	n/a	GoodResponse	0	n/a	n/a	5	51	Cue	Neutral	True
485.766	3.95	Control	0.6731	0.0	Yes	2.735	0.001	n/a	GoodResponse	0	n/a	n/a	5	51	Fixation	Neutral	True
489.711	0.36	Control	0.6731	0.004	Yes	2.735	-0.004	1.0	GoodResponse	0	0.262	488.973	5	51	Target	Neutral	True
489.973	0.3	Control	0.6731	0.004	Yes	2.735	-0.004	1.0	GoodResponse	0	0.262	n/a	5	51	ButtonPress	Neutral	True
490.079	0.34	Control	0.6731	n/a	Yes	2.735	n/a	n/a	GoodResponse	0	n/a	n/a	5	51	Blank	Neutral	True
490.413	1.45	Control	0.6731	n/a	Yes	2.735	n/a	5.0	GoodResponse	0	0.046	489.459	5	51	Feedback	Neutral	True
491.867	2.735	Control	0.6731	n/a	Yes	2.735	n/a	n/a	GoodResponse	0	0.0	n/a	5	51	ISIslide	Neutral	True
494.626	0.25	Control	0.6792	0.0	Yes	2.624	0.026	n/a	GoodResponse	0	n/a	n/a	5	52	Cue	Neutral	True
494.876	4.05	Control	0.6792	0.0	Yes	2.624	0.0	n/a	GoodResponse	0	n/a	n/a	5	52	Fixation	Neutral	True
498.922	0.35	Control	0.6792	0.004	Yes	2.624	-0.004	1.0	GoodResponse	0	0.182	498.104	5	52	Target	Neutral	True
499.104	0.3	Control	0.6792	0.004	Yes	2.624	-0.004	1.0	GoodResponse	0	0.182	n/a	5	52	ButtonPress	Neutral	True
499.273	0.35	Control	0.6792	n/a	Yes	2.624	n/a	n/a	GoodResponse	0	n/a	n/a	5	52	Blank	Neutral	True
499.624	1.45	Control	0.6792	n/a	Yes	2.624	n/a	5.0	GoodResponse	0	0.008	498.632	5	52	Feedback	Neutral	True
501.078	2.624	Control	0.6792	n/a	Yes	2.624	n/a	n/a	GoodResponse	0	0.0	n/a	5	52	ISIslide	Neutral	True
503.719	0.25	Win2	0.6851999999999999	0.001	Yes	2.931	0.019	n/a	GoodResponse	1	n/a	n/a	6	53	Cue	Win	True
503.97	4.05	Win2	0.6851999999999999	0.0	Yes	2.931	0.001	n/a	GoodResponse	1	n/a	n/a	6	53	Fixation	Win	True
508.016	0.34	Win2	0.6851999999999999	0.003	Yes	2.931	-0.003	1.0	GoodResponse	1	0.188	507.204	6	53	Target	Win	True
508.204	0.3	Win2	0.6851999999999999	0.003	Yes	2.931	-0.003	1.0	GoodResponse	1	0.188	n/a	6	53	ButtonPress	Win	True
508.367	0.36	Win2	0.6851999999999999	n/a	Yes	2.931	n/a	n/a	GoodResponse	1	n/a	n/a	6	53	Blank	Win	True
508.718	1.45	Win2	0.6851999999999999	n/a	Yes	2.931	n/a	5.0	GoodResponse	1	0.034	507.752	6	53	Feedback	Win	True
510.172	2.931	Win2	0.6851999999999999	n/a	Yes	2.931	n/a	n/a	GoodResponse	1	0.0	n/a	6	53	ISIslide	Win	True
513.131	0.25	Win2	0.6909000000000001	0.0	Yes	2.719	0.031	n/a	GoodResponse	1	n/a	n/a	7	54	Cue	Win	True
513.382	3.95	Win2	0.6909000000000001	0.0	Yes	2.719	0.001	n/a	GoodResponse	1	n/a	n/a	7	54	Fixation	Win	True
517.327	0.33	Win2	0.6909000000000001	0.004	Yes	2.719	-0.004	1.0	GoodResponse	1	0.218	516.545	7	54	Target	Win	True
517.545	0.3	Win2	0.6909000000000001	0.004	Yes	2.719	-0.004	1.0	GoodResponse	1	0.218	n/a	7	54	ButtonPress	Win	True
517.661	0.37	Win2	0.6909000000000001	n/a	Yes	2.719	n/a	n/a	GoodResponse	1	n/a	n/a	7	54	Blank	Win	True
518.029	1.45	Win2	0.6909000000000001	n/a	Yes	2.719	n/a	5.0	GoodResponse	1	0.04	517.069	7	54	Feedback	Win	True
519.483	2.719	Win2	0.6909000000000001	n/a	Yes	2.719	n/a	n/a	GoodResponse	1	0.0	n/a	7	54	ISIslide	Win	True
522.225	0.25	Control	0.6964	0.0	Yes	3.025	0.025	n/a	GoodResponse	0	n/a	n/a	7	55	Cue	Neutral	True
522.476	3.95	Control	0.6964	0.0	Yes	3.025	0.001	n/a	GoodResponse	0	n/a	n/a	7	55	Fixation	Neutral	True
526.421	0.32	Control	0.6964	0.004	Yes	3.025	-0.004	1.0	GoodResponse	0	0.194	525.615	7	55	Target	Neutral	True
526.615	0.3	Control	0.6964	0.004	Yes	3.025	-0.004	1.0	GoodResponse	0	0.194	n/a	7	55	ButtonPress	Neutral	True
526.755	0.38	Control	0.6964	n/a	Yes	3.025	n/a	n/a	GoodResponse	0	n/a	n/a	7	55	Blank	Neutral	True
527.123	1.45	Control	0.6964	n/a	Yes	3.025	n/a	5.0	GoodResponse	0	0.019	526.142	7	55	Feedback	Neutral	True
528.577	3.025	Control	0.6964	n/a	Yes	3.025	n/a	n/a	GoodResponse	0	0.0	n/a	7	55	ISIslide	Neutral	True
531.62	0.25	Control	0.7018000000000001	0.0	Yes	2.83	0.02	n/a	GoodResponse	0	n/a	n/a	7	56	Cue	Neutral	True
531.871	3.95	Control	0.7018000000000001	0.0	Yes	2.83	0.001	n/a	GoodResponse	0	n/a	n/a	7	56	Fixation	Neutral	True
535.816	0.31	Control	0.7018000000000001	0.004	Yes	2.83	-0.004	1.0	GoodResponse	0	0.202	535.018	7	56	Target	Neutral	True
536.018	0.3	Control	0.7018000000000001	0.004	Yes	2.83	-0.004	1.0	GoodResponse	0	0.202	n/a	7	56	ButtonPress	Neutral	True
536.133	0.39	Control	0.7018000000000001	n/a	Yes	2.83	n/a	n/a	GoodResponse	0	n/a	n/a	7	56	Blank	Neutral	True
536.518	1.45	Control	0.7018000000000001	n/a	Yes	2.83	n/a	5.0	GoodResponse	0	0.039	535.557	7	56	Feedback	Neutral	True
537.972	2.83	Control	0.7018000000000001	n/a	Yes	2.83	n/a	n/a	GoodResponse	0	0.0	n/a	7	56	ISIslide	Neutral	True
540.831	0.25	Control	0.7069	0.0	Yes	3.469	0.031	n/a	GoodResponse	0	n/a	n/a	7	57	Cue	Neutral	True
541.081	4.0	Control	0.7069	0.001	Yes	3.469	0.0	n/a	GoodResponse	0	n/a	n/a	7	57	Fixation	Neutral	True
545.077	0.3	Control	0.7069	0.004	Yes	3.469	-0.004	1.0	GoodResponse	0	0.252	544.329	7	57	Target	Neutral	True
545.329	0.3	Control	0.7069	0.004	Yes	3.469	-0.004	1.0	GoodResponse	0	0.252	n/a	7	57	ButtonPress	Neutral	True
545.378	0.4	Control	0.7069	n/a	Yes	3.469	n/a	n/a	GoodResponse	0	n/a	n/a	7	57	Blank	Neutral	True
545.779	1.45	Control	0.7069	n/a	Yes	3.469	n/a	5.0	GoodResponse	0	0.045	544.824	7	57	Feedback	Neutral	True
547.233	3.469	Control	0.7069	n/a	Yes	3.469	n/a	n/a	GoodResponse	0	0.0	n/a	7	57	ISIslide	Neutral	True
550.727	0.25	Win2	0.7119	0.0	Yes	2.723	0.027	n/a	GoodResponse	1	n/a	n/a	8	58	Cue	Win	True
550.978	4.05	Win2	0.7119	0.0	Yes	2.723	0.001	n/a	GoodResponse	1	n/a	n/a	8	58	Fixation	Win	True
555.023	0.29	Win2	0.7119	0.004	Yes	2.723	-0.004	1.0	GoodResponse	1	0.237	554.26	8	58	Target	Win	True
555.26	0.3	Win2	0.7119	0.004	Yes	2.723	-0.004	1.0	GoodResponse	1	0.237	n/a	8	58	ButtonPress	Win	True
555.324	0.41	Win2	0.7119	n/a	Yes	2.723	n/a	n/a	GoodResponse	1	n/a	n/a	8	58	Blank	Win	True
555.725	1.45	Win2	0.7119	n/a	Yes	2.723	n/a	5.0	GoodResponse	1	0.007	554.732	8	58	Feedback	Win	True
557.18	2.723	Win2	0.7119	n/a	Yes	2.723	n/a	n/a	GoodResponse	1	0.0	n/a	8	58	ISIslide	Win	True
559.921	0.25	Lose2	0.7167	0.0	Yes	2.679	0.021	n/a	GoodResponse	0	n/a	n/a	8	59	Cue	AvoidedLoss	True
560.172	4.0	Lose2	0.7167	0.0	Yes	2.679	0.001	n/a	GoodResponse	0	n/a	n/a	8	59	Fixation	AvoidedLoss	True
564.167	0.28	Lose2	0.7167	0.004	Yes	2.679	-0.004	1.0	GoodResponse	0	0.199	563.366	8	59	Target	AvoidedLoss	True
564.366	0.3	Lose2	0.7167	0.004	Yes	2.679	-0.004	1.0	GoodResponse	0	0.199	n/a	8	59	ButtonPress	AvoidedLoss	True
564.451	0.42	Lose2	0.7167	n/a	Yes	2.679	n/a	n/a	GoodResponse	0	n/a	n/a	8	59	Blank	AvoidedLoss	True
564.869	1.45	Lose2	0.7167	n/a	Yes	2.679	n/a	5.0	GoodResponse	0	0.029	563.898	8	59	Feedback	AvoidedLoss	True
566.324	2.679	Lose2	0.7167	n/a	Yes	2.679	n/a	n/a	GoodResponse	0	0.0	n/a	8	59	ISIslide	AvoidedLoss	True
569.015	0.25	Control	0.7049	0.0	No	2.685	0.015	n/a	NoResponse	0	n/a	n/a	8	60	Cue	Neutral	False
569.266	4.0	Control	0.7049	0.0	No	2.685	0.001	n/a	NoResponse	0	n/a	n/a	8	60	Fixation	Neutral	False
573.261	0.27	Control	0.7049	0.004	No	2.685	-0.004	n/a	NoResponse	0	n/a	n/a	8	60	Target	Neutral	False
573.545	0.43	Control	0.7049	n/a	No	2.685	n/a	n/a	NoResponse	0	n/a	n/a	8	60	Blank	Neutral	False
573.963	1.45	Control	0.7049	n/a	No	2.685	n/a	5.0	NoResponse	0	0.008	572.971	8	60	Feedback	Neutral	False
575.418	2.685	Control	0.7049	n/a	No	2.685	n/a	n/a	NoResponse	0	0.0	n/a	8	60	ISIslide	Neutral	False
578.126	0.25	Lose2	0.7097	0.0	Yes	2.974	0.026	n/a	GoodResponse	0	n/a	n/a	8	61	Cue	AvoidedLoss	True
578.377	4.0	Lose2	0.7097	0.0	Yes	2.974	0.001	n/a	GoodResponse	0	n/a	n/a	8	61	Fixation	AvoidedLoss	True
582.372	0.26	Lose2	0.7097	0.004	Yes	2.974	-0.004	1.0	GoodResponse	0	0.197	581.569	8	61	Target	AvoidedLoss	True
582.569	0.3	Lose2	0.7097	0.004	Yes	2.974	-0.004	1.0	GoodResponse	0	0.197	n/a	8	61	ButtonPress	AvoidedLoss	True
582.639	0.44	Lose2	0.7097	n/a	Yes	2.974	n/a	n/a	GoodResponse	0	n/a	n/a	8	61	Blank	AvoidedLoss	True
583.074	1.45	Lose2	0.7097	n/a	Yes	2.974	n/a	5.0	GoodResponse	0	0.019	582.093	8	61	Feedback	AvoidedLoss	True
584.528	2.974	Lose2	0.7097	n/a	Yes	2.974	n/a	n/a	GoodResponse	0	0.0	n/a	8	61	ISIslide	AvoidedLoss	True
587.521	0.25	Lose2	0.7143	0.0	Yes	2.879	0.021	n/a	GoodResponse	0	n/a	n/a	8	62	Cue	AvoidedLoss	True
587.771	3.9	Lose2	0.7143	0.0	Yes	2.879	0.0	n/a	GoodResponse	0	n/a	n/a	8	62	Fixation	AvoidedLoss	True
591.683	0.25	Lose2	0.7143	0.0	Yes	2.879	0.012	1.0	GoodResponse	0	0.237	590.92	8	62	Target	AvoidedLoss	True
591.917	0.45	Lose2	0.7143	n/a	Yes	2.879	n/a	n/a	GoodResponse	0	n/a	n/a	8	62	Blank	AvoidedLoss	True
591.92	0.3	Lose2	0.7143	0.0	Yes	2.879	0.012	1.0	GoodResponse	0	0.237	n/a	8	62	ButtonPress	AvoidedLoss	True
592.368	1.45	Lose2	0.7143	n/a	Yes	2.879	n/a	5.0	GoodResponse	0	0.042	591.41	8	62	Feedback	AvoidedLoss	True
593.823	2.879	Lose2	0.7143	n/a	Yes	2.879	n/a	n/a	GoodResponse	0	0.0	n/a	8	62	ISIslide	AvoidedLoss	True
596.715	0.25	Lose2	0.7188	0.0	Yes	2.635	0.015	n/a	GoodResponse	0	n/a	n/a	8	63	Cue	AvoidedLoss	True
596.966	4.05	Lose2	0.7188	0.0	Yes	2.635	0.001	n/a	GoodResponse	0	n/a	n/a	8	63	Fixation	AvoidedLoss	True
601.011	0.24	Lose2	0.7188	0.004	Yes	2.635	-0.004	1.0	GoodResponse	0	0.203	600.214	8	63	Target	AvoidedLoss	True
601.214	0.3	Lose2	0.7188	0.004	Yes	2.635	-0.004	1.0	GoodResponse	0	0.203	n/a	8	63	ButtonPress	AvoidedLoss	True
601.262	0.46	Lose2	0.7188	n/a	Yes	2.635	n/a	n/a	GoodResponse	0	n/a	n/a	8	63	Blank	AvoidedLoss	True
601.713	1.45	Lose2	0.7188	n/a	Yes	2.635	n/a	5.0	GoodResponse	0	0.014	600.727	8	63	Feedback	AvoidedLoss	True
603.167	2.635	Lose2	0.7188	n/a	Yes	2.635	n/a	n/a	GoodResponse	0	0.0	n/a	8	63	ISIslide	AvoidedLoss	True
605.825	0.25	Win2	0.7231000000000001	0.001	Yes	3.125	0.025	n/a	GoodResponse	1	n/a	n/a	9	64	Cue	Win	True
606.076	4.15	Win2	0.7231000000000001	0.0	Yes	3.125	0.001	n/a	GoodResponse	1	n/a	n/a	9	64	Fixation	Win	True
610.222	0.23	Win2	0.7231000000000001	0.003	Yes	3.125	-0.003	1.0	GoodResponse	1	0.217	609.439	9	64	Target	Win	True
610.439	0.3	Win2	0.7231000000000001	0.003	Yes	3.125	-0.003	1.0	GoodResponse	1	0.217	n/a	9	64	ButtonPress	Win	True
610.456	0.47	Win2	0.7231000000000001	n/a	Yes	3.125	n/a	n/a	GoodResponse	1	n/a	n/a	9	64	Blank	Win	True
610.924	1.45	Win2	0.7231000000000001	n/a	Yes	3.125	n/a	5.0	GoodResponse	1	0.022	609.946	9	64	Feedback	Win	True
612.378	3.125	Win2	0.7231000000000001	n/a	Yes	3.125	n/a	n/a	GoodResponse	1	0.0	n/a	9	64	ISIslide	Win	True
615.521	0.25	Control	0.7121	0.0	No	2.779	0.021	n/a	NoResponse	0	n/a	n/a	9	65	Cue	Neutral	True
615.772	4.0	Control	0.7121	0.0	No	2.779	0.001	n/a	NoResponse	0	n/a	n/a	9	65	Fixation	Neutral	True
619.767	0.22	Control	0.7121	0.004	No	2.779	-0.004	1.0	NoResponse	0	0.261	619.028	9	65	Target	Neutral	True
620.001	0.48	Control	0.7121	n/a	No	2.779	n/a	n/a	NoResponse	0	n/a	n/a	9	65	Blank	Neutral	True
620.028	0.3	Control	0.7121	0.004	No	2.779	-0.004	1.0	NoResponse	0	0.261	n/a	9	65	ButtonPress	Neutral	True
620.469	1.45	Control	0.7121	n/a	No	2.779	n/a	5.0	NoResponse	0	0.038	619.507	9	65	Feedback	Neutral	True
621.924	2.779	Control	0.7121	n/a	No	2.779	n/a	n/a	NoResponse	0	0.0	n/a	9	65	ISIslide	Neutral	True
624.715	0.25	Win2	0.7164	0.0	Yes	2.785	0.015	n/a	GoodResponse	1	n/a	n/a	10	66	Cue	Win	True
624.966	3.9	Win2	0.7164	0.0	Yes	2.785	0.001	n/a	GoodResponse	1	n/a	n/a	10	66	Fixation	Win	True
628.861	0.21	Win2	0.7164	0.004	Yes	2.785	-0.004	1.0	GoodResponse	1	0.204	628.065	10	66	Target	Win	True
629.065	0.3	Win2	0.7164	0.004	Yes	2.785	-0.004	1.0	GoodResponse	1	0.204	n/a	10	66	ButtonPress	Win	True
629.078	0.49	Win2	0.7164	n/a	Yes	2.785	n/a	n/a	GoodResponse	1	n/a	n/a	10	66	Blank	Win	True
629.563	1.45	Win2	0.7164	n/a	Yes	2.785	n/a	5.0	GoodResponse	1	0.017	628.58	10	66	Feedback	Win	True
631.018	2.785	Win2	0.7164	n/a	Yes	2.785	n/a	n/a	GoodResponse	1	0.0	n/a	10	66	ISIslide	Win	True
633.826	0.25	Control	0.7059000000000001	0.0	No	2.724	0.026	n/a	NoResponse	0	n/a	n/a	10	67	Cue	Neutral	False
634.077	3.95	Control	0.7059000000000001	0.0	No	2.724	0.001	n/a	NoResponse	0	n/a	n/a	10	67	Fixation	Neutral	False
638.022	0.2	Control	0.7059000000000001	0.004	No	2.724	-0.004	n/a	NoResponse	0	n/a	n/a	10	67	Target	Neutral	False
638.223	0.5	Control	0.7059000000000001	n/a	No	2.724	n/a	n/a	NoResponse	0	n/a	n/a	10	67	Blank	Neutral	False
638.724	1.45	Control	0.7059000000000001	n/a	No	2.724	n/a	5.0	NoResponse	0	0.027	637.751	10	67	Feedback	Neutral	False
640.178	2.724	Control	0.7059000000000001	n/a	No	2.724	n/a	n/a	NoResponse	0	0.0	n/a	10	67	ISIslide	Neutral	False
642.92	0.25	Win2	0.7101000000000001	0.0	Yes	3.08	0.02	n/a	GoodResponse	1	n/a	n/a	11	68	Cue	Win	True
643.171	4.0	Win2	0.7101000000000001	0.0	Yes	3.08	0.001	n/a	GoodResponse	1	n/a	n/a	11	68	Fixation	Win	True
647.166	0.19	Win2	0.7101000000000001	0.004	Yes	3.08	-0.004	1.0	GoodResponse	1	0.189	646.355	11	68	Target	Win	True
647.355	0.3	Win2	0.7101000000000001	0.004	Yes	3.08	-0.004	1.0	GoodResponse	1	0.189	n/a	11	68	ButtonPress	Win	True
647.367	0.51	Win2	0.7101000000000001	n/a	Yes	3.08	n/a	n/a	GoodResponse	1	n/a	n/a	11	68	Blank	Win	True
647.868	1.45	Win2	0.7101000000000001	n/a	Yes	3.08	n/a	5.0	GoodResponse	1	0.008	646.876	11	68	Feedback	Win	True
649.322	3.08	Win2	0.7101000000000001	n/a	Yes	3.08	n/a	n/a	GoodResponse	1	0.0	n/a	11	68	ISIslide	Win	True
652.415	0.25	Win2	0.7	0.0	No	3.235	0.015	n/a	NoResponse	0	n/a	n/a	11	69	Cue	MissedWin	True
652.666	3.95	Win2	0.7	0.0	No	3.235	0.001	n/a	NoResponse	0	n/a	n/a	11	69	Fixation	MissedWin	True
656.611	0.18	Win2	0.7	0.004	No	3.235	-0.004	1.0	NoResponse	0	0.289	655.9	11	69	Target	MissedWin	True
656.795	0.52	Win2	0.7	n/a	No	3.235	n/a	n/a	NoResponse	0	n/a	n/a	11	69	Blank	MissedWin	True
656.9	0.3	Win2	0.7	0.004	No	3.235	-0.004	1.0	NoResponse	0	0.289	n/a	11	69	ButtonPress	MissedWin	True
657.313	1.45	Win2	0.7	n/a	No	3.235	n/a	5.0	NoResponse	0	0.024	656.337	11	69	Feedback	MissedWin	True
658.767	3.235	Win2	0.7	n/a	No	3.235	n/a	n/a	NoResponse	0	0.0	n/a	11	69	ISIslide	MissedWin	True
662.027	0.25	Lose2	0.6901	0.0	No	3.023	0.027	n/a	PrematurePress	-1	n/a	n/a	10	70	Cue	Loss	True
662.278	4.05	Lose2	0.6901	0.0	No	3.023	0.001	n/a	PrematurePress	-1	n/a	n/a	10	70	Fixation	Loss	True
666.323	0.17	Lose2	0.6901	0.004	No	3.023	-0.004	1.0	PrematurePress	-1	0.085	665.408	10	70	Target	Loss	True
666.408	0.3	Lose2	0.6901	0.004	No	3.023	-0.004	1.0	PrematurePress	-1	0.085	n/a	10	70	ButtonPress	Loss	True
666.507	0.53	Lose2	0.6901	n/a	No	3.023	n/a	n/a	PrematurePress	-1	n/a	n/a	10	70	Blank	Loss	True
667.025	1.45	Lose2	0.6901	n/a	No	3.023	n/a	5.0	PrematurePress	-1	0.019	666.044	10	70	Feedback	Loss	True
668.48	3.023	Lose2	0.6901	n/a	No	3.023	n/a	n/a	PrematurePress	-1	0.0	n/a	10	70	ISIslide	Loss	True
671.522	0.25	Win2	0.6806	0.0	No	2.728	0.022	n/a	NoResponse	0	n/a	n/a	10	71	Cue	MissedWin	True
671.773	4.05	Win2	0.6806	0.0	No	2.728	0.001	n/a	NoResponse	0	n/a	n/a	10	71	Fixation	MissedWin	True
675.818	0.16	Win2	0.6806	0.004	No	2.728	-0.004	1.0	NoResponse	0	0.183	675.001	10	71	Target	MissedWin	True
675.986	0.54	Win2	0.6806	n/a	No	2.728	n/a	n/a	NoResponse	0	n/a	n/a	10	71	Blank	MissedWin	True
676.001	0.3	Win2	0.6806	0.004	No	2.728	-0.004	1.0	NoResponse	0	0.183	n/a	10	71	ButtonPress	MissedWin	True
676.521	1.45	Win2	0.6806	n/a	No	2.728	n/a	5.0	NoResponse	0	0.035	675.556	10	71	Feedback	MissedWin	True
677.975	2.728	Win2	0.6806	n/a	No	2.728	n/a	n/a	NoResponse	0	0.0	n/a	10	71	ISIslide	MissedWin	True
680.717	0.25	Win2	0.6712	0.0	No	2.783	0.017	n/a	NoResponse	0	n/a	n/a	10	72	Cue	MissedWin	True
680.967	4.1	Win2	0.6712	0.0	No	2.783	0.0	n/a	NoResponse	0	n/a	n/a	10	72	Fixation	MissedWin	True
685.063	0.15	Win2	0.6712	0.004	No	2.783	-0.004	1.0	NoResponse	0	0.182	684.245	10	72	Target	MissedWin	True
685.213	0.55	Win2	0.6712	n/a	No	2.783	n/a	n/a	NoResponse	0	n/a	n/a	10	72	Blank	MissedWin	True
685.245	0.3	Win2	0.6712	0.004	No	2.783	-0.004	1.0	NoResponse	0	0.182	n/a	10	72	ButtonPress	MissedWin	True
685.765	1.45	Win2	0.6712	n/a	No	2.783	n/a	5.0	NoResponse	0	0.01	684.775	10	72	Feedback	MissedWin	True
687.219	2.783	Win2	0.6712	n/a	No	2.783	n/a	n/a	NoResponse	0	0.0	n/a	10	72	ISIslide	MissedWin	True
690.028	0.25	Win2	0.6622	0.0	No	2.672	0.028	n/a	NoResponse	0	n/a	n/a	10	73	Cue	MissedWin	False
690.278	4.0	Win2	0.6622	0.001	No	2.672	0.0	1.0	NoResponse	0	3.098	692.376	10	73	Fixation	MissedWin	False
693.376	0.3	Win2	0.6622	0.001	No	2.672	0.0	1.0	NoResponse	0	3.098	n/a	10	73	ButtonPress	MissedWin	False
694.274	0.15	Win2	0.6622	0.004	No	2.672	-0.004	1.0	NoResponse	0	0.194	693.468	10	73	Target	MissedWin	False
694.424	0.55	Win2	0.6622	n/a	No	2.672	n/a	n/a	NoResponse	0	n/a	n/a	10	73	Blank	MissedWin	False
694.468	0.3	Win2	0.6622	0.004	No	2.672	-0.004	1.0	NoResponse	0	0.194	n/a	10	73	ButtonPress	MissedWin	False
694.976	1.45	Win2	0.6622	n/a	No	2.672	n/a	5.0	NoResponse	0	0.019	693.995	10	73	Feedback	MissedWin	False
696.43	2.672	Win2	0.6622	n/a	No	2.672	n/a	n/a	NoResponse	0	0.0	n/a	10	73	ISIslide	MissedWin	False
699.122	0.25	Lose2	0.6533	0.0	No	2.628	0.022	n/a	NoResponse	-1	n/a	n/a	9	74	Cue	Loss	True
699.372	4.05	Lose2	0.6533	0.0	No	2.628	0.0	n/a	NoResponse	-1	n/a	n/a	9	74	Fixation	Loss	True
703.418	0.15	Lose2	0.6533	0.004	No	2.628	-0.004	1.0	NoResponse	-1	0.204	702.622	9	74	Target	Loss	True
703.568	0.55	Lose2	0.6533	n/a	No	2.628	n/a	n/a	NoResponse	-1	n/a	n/a	9	74	Blank	Loss	True
703.622	0.3	Lose2	0.6533	0.004	No	2.628	-0.004	1.0	NoResponse	-1	0.204	n/a	9	74	ButtonPress	Loss	True
704.12	1.45	Lose2	0.6533	n/a	No	2.628	n/a	5.0	NoResponse	-1	0.046	703.166	9	74	Feedback	Loss	True
705.574	2.628	Lose2	0.6533	n/a	No	2.628	n/a	n/a	NoResponse	-1	0.0	n/a	9	74	ISIslide	Loss	True
708.216	0.25	Lose2	0.6446999999999999	0.0	No	2.934	0.016	n/a	NoResponse	-1	n/a	n/a	8	75	Cue	Loss	True
708.466	3.95	Lose2	0.6446999999999999	0.0	No	2.934	0.0	n/a	NoResponse	-1	n/a	n/a	8	75	Fixation	Loss	True
712.428	0.16	Lose2	0.6446999999999999	0.0	No	2.934	0.012	1.0	NoResponse	-1	0.178	711.606	8	75	Target	Loss	True
712.579	0.54	Lose2	0.6446999999999999	n/a	No	2.934	n/a	n/a	NoResponse	-1	n/a	n/a	8	75	Blank	Loss	True
712.606	0.3	Lose2	0.6446999999999999	0.0	No	2.934	0.012	1.0	NoResponse	-1	0.178	n/a	8	75	ButtonPress	Loss	True
713.114	1.45	Lose2	0.6446999999999999	n/a	No	2.934	n/a	5.0	NoResponse	-1	0.027	712.141	8	75	Feedback	Loss	True
714.568	2.934	Lose2	0.6446999999999999	n/a	No	2.934	n/a	n/a	NoResponse	-1	0.0	n/a	8	75	ISIslide	Loss	True
717.527	0.25	Control	0.6364	0.0	No	3.223	0.027	n/a	NoResponse	0	n/a	n/a	8	76	Cue	Neutral	True
717.778	4.05	Control	0.6364	0.0	No	3.223	0.001	n/a	NoResponse	0	n/a	n/a	8	76	Fixation	Neutral	True
721.823	0.17	Control	0.6364	0.004	No	3.223	-0.004	1.0	NoResponse	0	0.202	721.025	8	76	Target	Neutral	True
722.007	0.53	Control	0.6364	n/a	No	3.223	n/a	n/a	NoResponse	0	n/a	n/a	8	76	Blank	Neutral	True
722.025	0.3	Control	0.6364	0.004	No	3.223	-0.004	1.0	NoResponse	0	0.202	n/a	8	76	ButtonPress	Neutral	True
722.525	1.45	Control	0.6364	n/a	No	3.223	n/a	5.0	NoResponse	0	0.031	721.556	8	76	Feedback	Neutral	True
723.979	3.223	Control	0.6364	n/a	No	3.223	n/a	n/a	NoResponse	0	0.0	n/a	8	76	ISIslide	Neutral	True
727.223	0.25	Lose2	0.6282	0.0	No	2.577	0.023	n/a	NoResponse	-1	n/a	n/a	7	77	Cue	Loss	True
727.473	3.95	Lose2	0.6282	0.0	No	2.577	0.0	n/a	NoResponse	-1	n/a	n/a	7	77	Fixation	Loss	True
731.435	0.18	Lose2	0.6282	0.0	No	2.577	0.012	1.0	NoResponse	-1	0.175	730.61	7	77	Target	Loss	True
731.602	0.52	Lose2	0.6282	n/a	No	2.577	n/a	n/a	NoResponse	-1	n/a	n/a	7	77	Blank	Loss	True
731.61	0.3	Lose2	0.6282	0.0	No	2.577	0.012	1.0	NoResponse	-1	0.175	n/a	7	77	ButtonPress	Loss	True
732.121	1.45	Lose2	0.6282	n/a	No	2.577	n/a	5.0	NoResponse	-1	0.044	731.165	7	77	Feedback	Loss	True
733.575	2.577	Lose2	0.6282	n/a	No	2.577	n/a	n/a	NoResponse	-1	0.0	n/a	7	77	ISIslide	Loss	True
