onset	duration	cue_type	current_mean_accuracy	duration_error	is_hit	isi_adjusted	onset_delay	response	response_type	reward	rt	rt_time	total_reward	trial_number	trial_phase	trial_type	one_press
11.097	0.25	Control	1.0	0.0	Yes	2.953	-0.003	n/a	GoodResponse	0	n/a	n/a	0	0	Cue	Neutral	True
11.348	3.85	Control	1.0	0.0	Yes	2.953	0.001	n/a	GoodResponse	0	n/a	n/a	0	0	Fixation	Neutral	True
15.193	0.4	Control	1.0	0.004	Yes	2.953	-0.004	2.0	GoodResponse	0	0.238	14.431	0	0	Target	Neutral	True
15.431	0.3	Control	1.0	0.004	Yes	2.953	-0.004	2.0	GoodResponse	0	0.238	n/a	0	0	ButtonPress	Neutral	True
15.594	0.3	Control	1.0	n/a	Yes	2.953	n/a	n/a	GoodResponse	0	n/a	n/a	0	0	Blank	Neutral	True
15.895	1.45	Control	1.0	n/a	Yes	2.953	n/a	5.0	GoodResponse	0	0.031	14.926	0	0	Feedback	Neutral	True
17.349	2.953	Control	1.0	n/a	Yes	2.953	n/a	n/a	GoodResponse	0	0.0	n/a	0	0	ISIslide	Neutral	True
20.325	0.25	Lose2	1.0	0.0	Yes	2.775	0.025	n/a	GoodResponse	0	n/a	n/a	0	1	Cue	AvoidedLoss	True
20.576	4.0	Lose2	1.0	0.0	Yes	2.775	0.001	n/a	GoodResponse	0	n/a	n/a	0	1	Fixation	AvoidedLoss	True
24.571	0.39	Lose2	1.0	0.004	Yes	2.775	-0.004	2.0	GoodResponse	0	0.216	23.787	0	1	Target	AvoidedLoss	True
24.787	0.3	Lose2	1.0	0.004	Yes	2.775	-0.004	2.0	GoodResponse	0	0.216	n/a	0	1	ButtonPress	AvoidedLoss	True
24.972	0.31	Lose2	1.0	n/a	Yes	2.775	n/a	n/a	GoodResponse	0	n/a	n/a	0	1	Blank	AvoidedLoss	True
25.273	1.45	Lose2	1.0	n/a	Yes	2.775	n/a	5.0	GoodResponse	0	0.019	24.292	0	1	Feedback	AvoidedLoss	True
26.727	2.775	Lose2	1.0	n/a	Yes	2.775	n/a	n/a	GoodResponse	0	0.0	n/a	0	1	ISIslide	AvoidedLoss	True
29.519	0.25	Control	1.0	0.0	Yes	2.581	0.019	n/a	GoodResponse	0	n/a	n/a	0	2	Cue	Neutral	True
29.77	4.1	Control	1.0	0.0	Yes	2.581	0.001	n/a	GoodResponse	0	n/a	n/a	0	2	Fixation	Neutral	True
33.865	0.38	Control	1.0	0.004	Yes	2.581	-0.004	2.0	GoodResponse	0	0.202	33.067	0	2	Target	Neutral	True
34.067	0.3	Control	1.0	0.004	Yes	2.581	-0.004	2.0	GoodResponse	0	0.202	n/a	0	2	ButtonPress	Neutral	True
34.25	0.32	Control	1.0	n/a	Yes	2.581	n/a	n/a	GoodResponse	0	n/a	n/a	0	2	Blank	Neutral	True
34.567	1.45	Control	1.0	n/a	Yes	2.581	n/a	5.0	GoodResponse	0	0.042	33.609	0	2	Feedback	Neutral	True
36.022	2.581	Control	1.0	n/a	Yes	2.581	n/a	n/a	GoodResponse	0	0.0	n/a	0	2	ISIslide	Neutral	True
38.63	0.25	Win2	1.0	0.0	Yes	2.82	0.03	n/a	GoodResponse	1	n/a	n/a	1	3	Cue	Win	True
38.88	3.95	Win2	1.0	0.0	Yes	2.82	0.0	n/a	GoodResponse	1	n/a	n/a	1	3	Fixation	Win	True
42.825	0.37	Win2	1.0	0.005	Yes	2.82	-0.005	2.0	GoodResponse	1	0.232	42.057	1	3	Target	Win	True
43.057	0.3	Win2	1.0	0.005	Yes	2.82	-0.005	2.0	GoodResponse	1	0.232	n/a	1	3	ButtonPress	Win	True
43.21	0.33	Win2	1.0	n/a	Yes	2.82	n/a	n/a	GoodResponse	1	n/a	n/a	1	3	Blank	Win	True
43.528	1.45	Win2	1.0	n/a	Yes	2.82	n/a	5.0	GoodResponse	1	0.007	42.535	1	3	Feedback	Win	True
44.982	2.82	Win2	1.0	n/a	Yes	2.82	n/a	n/a	GoodResponse	1	0.0	n/a	1	3	ISIslide	Win	True
47.824	0.25	Win2	1.0	0.0	Yes	3.276	0.024	n/a	GoodResponse	1	n/a	n/a	2	4	Cue	Win	True
48.074	4.0	Win2	1.0	0.001	Yes	3.276	0.0	n/a	GoodResponse	1	n/a	n/a	2	4	Fixation	Win	True
52.07	0.36	Win2	1.0	0.004	Yes	3.276	-0.004	2.0	GoodResponse	1	0.236	51.306	2	4	Target	Win	True
52.306	0.3	Win2	1.0	0.004	Yes	3.276	-0.004	2.0	GoodResponse	1	0.236	n/a	2	4	ButtonPress	Win	True
52.437	0.34	Win2	1.0	n/a	Yes	3.276	n/a	n/a	GoodResponse	1	n/a	n/a	2	4	Blank	Win	True
52.772	1.45	Win2	1.0	n/a	Yes	3.276	n/a	5.0	GoodResponse	1	0.031	51.803	2	4	Feedback	Win	True
54.226	3.276	Win2	1.0	n/a	Yes	3.276	n/a	n/a	GoodResponse	1	0.0	n/a	2	4	ISIslide	Win	True
57.519	0.25	Win2	0.8332999999999999	0.0	No	2.781	0.019	n/a	NoResponse	0	n/a	n/a	2	5	Cue	MissedWin	True
57.77	4.0	Win2	0.8332999999999999	0.0	No	2.781	0.001	n/a	NoResponse	0	n/a	n/a	2	5	Fixation	MissedWin	True
61.765	0.35	Win2	0.8332999999999999	0.004	No	2.781	-0.004	2.0	NoResponse	0	0.363	61.128	2	5	Target	MissedWin	True
62.116	0.35	Win2	0.8332999999999999	n/a	No	2.781	n/a	n/a	NoResponse	0	n/a	n/a	2	5	Blank	MissedWin	True
62.128	0.3	Win2	0.8332999999999999	0.004	No	2.781	-0.004	2.0	NoResponse	0	0.363	n/a	2	5	ButtonPress	MissedWin	True
62.467	1.45	Win2	0.8332999999999999	n/a	No	2.781	n/a	5.0	NoResponse	0	0.044	61.511	2	5	Feedback	MissedWin	True
63.922	2.781	Win2	0.8332999999999999	n/a	No	2.781	n/a	n/a	NoResponse	0	0.0	n/a	2	5	ISIslide	MissedWin	True
66.73	0.25	Lose2	0.7143	0.0	No	2.72	0.03	n/a	LatePress	-1	n/a	n/a	1	6	Cue	Loss	True
66.981	3.95	Lose2	0.7143	0.0	No	2.72	0.001	n/a	LatePress	-1	n/a	n/a	1	6	Fixation	Loss	True
70.926	0.34	Lose2	0.7143	0.004	No	2.72	-0.004	2.0	LatePress	-1	0.341	70.267	1	6	Target	Loss	True
71.267	0.3	Lose2	0.7143	0.004	No	2.72	-0.004	2.0	LatePress	-1	0.341	n/a	1	6	ButtonPress	Loss	True
71.277	0.36	Lose2	0.7143	n/a	No	2.72	n/a	n/a	LatePress	-1	n/a	n/a	1	6	Blank	Loss	True
71.628	1.45	Lose2	0.7143	n/a	No	2.72	n/a	5.0	LatePress	-1	0.006	70.634	1	6	Feedback	Loss	True
73.082	2.72	Lose2	0.7143	n/a	No	2.72	n/a	n/a	LatePress	-1	0.0	n/a	1	6	ISIslide	Loss	True
75.824	0.25	Lose2	0.75	0.0	Yes	4.026	0.024	n/a	GoodResponse	0	n/a	n/a	1	7	Cue	AvoidedLoss	True
76.075	4.05	Lose2	0.75	0.0	Yes	4.026	0.001	n/a	GoodResponse	0	n/a	n/a	1	7	Fixation	AvoidedLoss	True
80.12	0.33	Lose2	0.75	0.004	Yes	4.026	-0.004	2.0	GoodResponse	0	0.218	79.338	1	7	Target	AvoidedLoss	True
80.338	0.3	Lose2	0.75	0.004	Yes	4.026	-0.004	2.0	GoodResponse	0	0.218	n/a	1	7	ButtonPress	AvoidedLoss	True
80.454	0.37	Lose2	0.75	n/a	Yes	4.026	n/a	n/a	GoodResponse	0	n/a	n/a	1	7	Blank	AvoidedLoss	True
80.822	1.45	Lose2	0.75	n/a	Yes	4.026	n/a	5.0	GoodResponse	0	0.029	79.851	1	7	Feedback	AvoidedLoss	True
82.277	4.026	Lose2	0.75	n/a	Yes	4.026	n/a	n/a	GoodResponse	0	0.0	n/a	1	7	ISIslide	AvoidedLoss	True
86.322	0.25	Lose2	0.7778	0.0	Yes	3.028	0.022	n/a	GoodResponse	0	n/a	n/a	1	8	Cue	AvoidedLoss	True
86.573	3.95	Lose2	0.7778	0.0	Yes	3.028	0.001	n/a	GoodResponse	0	n/a	n/a	1	8	Fixation	AvoidedLoss	True
90.518	0.32	Lose2	0.7778	0.004	Yes	3.028	-0.004	2.0	GoodResponse	0	0.212	89.73	1	8	Target	AvoidedLoss	True
90.73	0.3	Lose2	0.7778	0.004	Yes	3.028	-0.004	2.0	GoodResponse	0	0.212	n/a	1	8	ButtonPress	AvoidedLoss	True
90.852	0.38	Lose2	0.7778	n/a	Yes	3.028	n/a	n/a	GoodResponse	0	n/a	n/a	1	8	Blank	AvoidedLoss	True
91.22	1.45	Lose2	0.7778	n/a	Yes	3.028	n/a	5.0	GoodResponse	0	0.022	90.242	1	8	Feedback	AvoidedLoss	True
92.674	3.028	Lose2	0.7778	n/a	Yes	3.028	n/a	n/a	GoodResponse	0	0.0	n/a	1	8	ISIslide	AvoidedLoss	True
95.717	0.25	Lose2	0.8	0.0	Yes	3.133	0.017	n/a	GoodResponse	0	n/a	n/a	1	9	Cue	AvoidedLoss	True
95.967	3.95	Lose2	0.8	0.001	Yes	3.133	0.0	n/a	GoodResponse	0	n/a	n/a	1	9	Fixation	AvoidedLoss	True
99.913	0.31	Lose2	0.8	0.004	Yes	3.133	-0.004	2.0	GoodResponse	0	0.226	99.139	1	9	Target	AvoidedLoss	True
100.139	0.3	Lose2	0.8	0.004	Yes	3.133	-0.004	2.0	GoodResponse	0	0.226	n/a	1	9	ButtonPress	AvoidedLoss	True
100.23	0.39	Lose2	0.8	n/a	Yes	3.133	n/a	n/a	GoodResponse	0	n/a	n/a	1	9	Blank	AvoidedLoss	True
100.615	1.45	Lose2	0.8	n/a	Yes	3.133	n/a	5.0	GoodResponse	0	0.041	99.656	1	9	Feedback	AvoidedLoss	True
102.069	3.133	Lose2	0.8	n/a	Yes	3.133	n/a	n/a	GoodResponse	0	0.0	n/a	1	9	ISIslide	AvoidedLoss	True
105.228	0.25	Control	0.8181999999999999	0.001	Yes	3.272	0.028	n/a	GoodResponse	0	n/a	n/a	1	10	Cue	Neutral	True
105.479	4.0	Control	0.8181999999999999	0.0	Yes	3.272	0.001	n/a	GoodResponse	0	n/a	n/a	1	10	Fixation	Neutral	True
109.474	0.3	Control	0.8181999999999999	0.004	Yes	3.272	-0.004	2.0	GoodResponse	0	0.232	108.706	1	10	Target	Neutral	True
109.706	0.3	Control	0.8181999999999999	0.004	Yes	3.272	-0.004	2.0	GoodResponse	0	0.232	n/a	1	10	ButtonPress	Neutral	True
109.775	0.4	Control	0.8181999999999999	n/a	Yes	3.272	n/a	n/a	GoodResponse	0	n/a	n/a	1	10	Blank	Neutral	True
110.177	1.45	Control	0.8181999999999999	n/a	Yes	3.272	n/a	5.0	GoodResponse	0	0.04	109.217	1	10	Feedback	Neutral	True
111.631	3.272	Control	0.8181999999999999	n/a	Yes	3.272	n/a	n/a	GoodResponse	0	0.0	n/a	1	10	ISIslide	Neutral	True
114.924	0.25	Lose2	0.8332999999999999	0.0	Yes	2.726	0.024	n/a	GoodResponse	0	n/a	n/a	1	11	Cue	AvoidedLoss	True
115.175	4.05	Lose2	0.8332999999999999	0.0	Yes	2.726	0.001	n/a	GoodResponse	0	n/a	n/a	1	11	Fixation	AvoidedLoss	True
119.22	0.29	Lose2	0.8332999999999999	0.004	Yes	2.726	-0.004	2.0	GoodResponse	0	0.204	118.424	1	11	Target	AvoidedLoss	True
119.424	0.3	Lose2	0.8332999999999999	0.004	Yes	2.726	-0.004	2.0	GoodResponse	0	0.204	n/a	1	11	ButtonPress	AvoidedLoss	True
119.521	0.41	Lose2	0.8332999999999999	n/a	Yes	2.726	n/a	n/a	GoodResponse	0	n/a	n/a	1	11	Blank	AvoidedLoss	True
119.922	1.45	Lose2	0.8332999999999999	n/a	Yes	2.726	n/a	5.0	GoodResponse	0	0.006	118.928	1	11	Feedback	AvoidedLoss	True
121.377	2.726	Lose2	0.8332999999999999	n/a	Yes	2.726	n/a	n/a	GoodResponse	0	0.0	n/a	1	11	ISIslide	AvoidedLoss	True
124.118	0.25	Control	0.8462000000000001	0.0	Yes	2.982	0.018	n/a	GoodResponse	0	n/a	n/a	1	12	Cue	Neutral	True
124.369	3.9	Control	0.8462000000000001	0.0	Yes	2.982	0.001	n/a	GoodResponse	0	n/a	n/a	1	12	Fixation	Neutral	True
128.264	0.28	Control	0.8462000000000001	0.004	Yes	2.982	-0.004	2.0	GoodResponse	0	0.218	127.482	1	12	Target	Neutral	True
128.482	0.3	Control	0.8462000000000001	0.004	Yes	2.982	-0.004	2.0	GoodResponse	0	0.218	n/a	1	12	ButtonPress	Neutral	True
128.548	0.42	Control	0.8462000000000001	n/a	Yes	2.982	n/a	n/a	GoodResponse	0	n/a	n/a	1	12	Blank	Neutral	True
128.966	1.45	Control	0.8462000000000001	n/a	Yes	2.982	n/a	5.0	GoodResponse	0	0.031	127.997	1	12	Feedback	Neutral	True
130.42	2.982	Control	0.8462000000000001	n/a	Yes	2.982	n/a	n/a	GoodResponse	0	0.0	n/a	1	12	ISIslide	Neutral	True
133.429	0.25	Control	0.7857	0.0	No	2.771	0.029	n/a	NoResponse	0	n/a	n/a	1	13	Cue	Neutral	True
133.68	4.0	Control	0.7857	0.0	No	2.771	0.001	n/a	NoResponse	0	n/a	n/a	1	13	Fixation	Neutral	True
137.675	0.27	Control	0.7857	0.004	No	2.771	-0.004	2.0	NoResponse	0	0.337	137.012	1	13	Target	Neutral	True
137.96	0.43	Control	0.7857	n/a	No	2.771	n/a	n/a	NoResponse	0	n/a	n/a	1	13	Blank	Neutral	True
138.012	0.3	Control	0.7857	0.004	No	2.771	-0.004	2.0	NoResponse	0	0.337	n/a	1	13	ButtonPress	Neutral	True
138.377	1.45	Control	0.7857	n/a	No	2.771	n/a	5.0	NoResponse	0	0.035	137.412	1	13	Feedback	Neutral	True
139.832	2.771	Control	0.7857	n/a	No	2.771	n/a	n/a	NoResponse	0	0.0	n/a	1	13	ISIslide	Neutral	True
142.623	0.25	Win2	0.8	0.001	Yes	2.677	0.023	n/a	GoodResponse	1	n/a	n/a	2	14	Cue	Win	True
142.874	4.1	Win2	0.8	0.0	Yes	2.677	0.001	n/a	GoodResponse	1	n/a	n/a	2	14	Fixation	Win	True
146.97	0.26	Win2	0.8	0.003	Yes	2.677	-0.003	2.0	GoodResponse	1	0.201	146.171	2	14	Target	Win	True
147.171	0.3	Win2	0.8	0.003	Yes	2.677	-0.003	2.0	GoodResponse	1	0.201	n/a	2	14	ButtonPress	Win	True
147.237	0.44	Win2	0.8	n/a	Yes	2.677	n/a	n/a	GoodResponse	1	n/a	n/a	2	14	Blank	Win	True
147.672	1.45	Win2	0.8	n/a	Yes	2.677	n/a	5.0	GoodResponse	1	0.008	146.68	2	14	Feedback	Win	True
149.126	2.677	Win2	0.8	n/a	Yes	2.677	n/a	n/a	GoodResponse	1	0.0	n/a	2	14	ISIslide	Win	True
151.818	0.25	Control	0.8125	0.0	Yes	2.982	0.018	n/a	GoodResponse	0	n/a	n/a	2	15	Cue	Neutral	True
152.068	4.0	Control	0.8125	0.0	Yes	2.982	0.0	n/a	GoodResponse	0	n/a	n/a	2	15	Fixation	Neutral	True
156.064	0.25	Control	0.8125	0.004	Yes	2.982	-0.004	2.0	GoodResponse	0	0.18	155.244	2	15	Target	Neutral	True
156.244	0.3	Control	0.8125	0.004	Yes	2.982	-0.004	2.0	GoodResponse	0	0.18	n/a	2	15	ButtonPress	Neutral	True
156.314	0.45	Control	0.8125	n/a	Yes	2.982	n/a	n/a	GoodResponse	0	n/a	n/a	2	15	Blank	Neutral	True
156.766	1.45	Control	0.8125	n/a	Yes	2.982	n/a	5.0	GoodResponse	0	0.035	155.801	2	15	Feedback	Neutral	True
158.22	2.982	Control	0.8125	n/a	Yes	2.982	n/a	n/a	GoodResponse	0	0.0	n/a	2	15	ISIslide	Neutral	True
161.229	0.25	Win2	0.7646999999999999	0.0	No	2.871	0.029	n/a	NoResponse	0	n/a	n/a	2	16	Cue	MissedWin	True
161.48	4.0	Win2	0.7646999999999999	0.0	No	2.871	0.001	n/a	NoResponse	0	n/a	n/a	2	16	Fixation	MissedWin	True
165.475	0.24	Win2	0.7646999999999999	0.004	No	2.871	-0.004	2.0	NoResponse	0	0.272	164.747	2	16	Target	MissedWin	True
165.726	0.46	Win2	0.7646999999999999	n/a	No	2.871	n/a	n/a	NoResponse	0	n/a	n/a	2	16	Blank	MissedWin	True
165.747	0.3	Win2	0.7646999999999999	0.004	No	2.871	-0.004	2.0	NoResponse	0	0.272	n/a	2	16	ButtonPress	MissedWin	True
166.177	1.45	Win2	0.7646999999999999	n/a	No	2.871	n/a	5.0	NoResponse	0	0.039	165.216	2	16	Feedback	MissedWin	True
167.632	2.871	Win2	0.7646999999999999	n/a	No	2.871	n/a	n/a	NoResponse	0	0.0	n/a	2	16	ISIslide	MissedWin	True
170.523	0.25	Lose2	0.7222	0.001	No	2.727	0.023	n/a	NoResponse	-1	n/a	n/a	1	17	Cue	Loss	True
170.774	3.95	Lose2	0.7222	0.0	No	2.727	0.001	n/a	NoResponse	-1	n/a	n/a	1	17	Fixation	Loss	True
174.719	0.23	Lose2	0.7222	0.004	No	2.727	-0.004	2.0	NoResponse	-1	0.313	174.032	1	17	Target	Loss	True
174.953	0.47	Lose2	0.7222	n/a	No	2.727	n/a	n/a	NoResponse	-1	n/a	n/a	1	17	Blank	Loss	True
175.032	0.3	Lose2	0.7222	0.004	No	2.727	-0.004	2.0	NoResponse	-1	0.313	n/a	1	17	ButtonPress	Loss	True
175.421	1.45	Lose2	0.7222	n/a	No	2.727	n/a	5.0	NoResponse	-1	0.015	174.436	1	17	Feedback	Loss	True
176.876	2.727	Lose2	0.7222	n/a	No	2.727	n/a	n/a	NoResponse	-1	0.0	n/a	1	17	ISIslide	Loss	True
179.617	0.25	Lose2	0.7368000000000001	0.0	Yes	2.733	0.017	n/a	GoodResponse	0	n/a	n/a	1	18	Cue	AvoidedLoss	True
179.868	4.05	Lose2	0.7368000000000001	0.0	Yes	2.733	0.001	n/a	GoodResponse	0	n/a	n/a	1	18	Fixation	AvoidedLoss	True
183.913	0.22	Lose2	0.7368000000000001	0.004	Yes	2.733	-0.004	2.0	GoodResponse	0	0.188	183.101	1	18	Target	AvoidedLoss	True
184.101	0.3	Lose2	0.7368000000000001	0.004	Yes	2.733	-0.004	2.0	GoodResponse	0	0.188	n/a	1	18	ButtonPress	AvoidedLoss	True
184.147	0.48	Lose2	0.7368000000000001	n/a	Yes	2.733	n/a	n/a	GoodResponse	0	n/a	n/a	1	18	Blank	AvoidedLoss	True
184.616	1.45	Lose2	0.7368000000000001	n/a	Yes	2.733	n/a	5.0	GoodResponse	0	0.039	183.655	1	18	Feedback	AvoidedLoss	True
186.07	2.733	Lose2	0.7368000000000001	n/a	Yes	2.733	n/a	n/a	GoodResponse	0	0.0	n/a	1	18	ISIslide	AvoidedLoss	True
188.828	0.25	Control	0.7	0.0	No	2.922	0.028	n/a	NoResponse	0	n/a	n/a	1	19	Cue	Neutral	True
189.079	3.95	Control	0.7	0.0	No	2.922	0.001	n/a	NoResponse	0	n/a	n/a	1	19	Fixation	Neutral	True
193.024	0.21	Control	0.7	0.004	No	2.922	-0.004	2.0	NoResponse	0	0.259	192.283	1	19	Target	Neutral	True
193.241	0.49	Control	0.7	n/a	No	2.922	n/a	n/a	NoResponse	0	n/a	n/a	1	19	Blank	Neutral	True
193.283	0.3	Control	0.7	0.004	No	2.922	-0.004	2.0	NoResponse	0	0.259	n/a	1	19	ButtonPress	Neutral	True
193.726	1.45	Control	0.7	n/a	No	2.922	n/a	5.0	NoResponse	0	0.001	192.727	1	19	Feedback	Neutral	True
195.18	2.922	Control	0.7	n/a	No	2.922	n/a	n/a	NoResponse	0	0.0	n/a	1	19	ISIslide	Neutral	True
198.123	0.25	Control	0.6667000000000001	0.0	No	2.627	0.023	n/a	NoResponse	0	n/a	n/a	1	20	Cue	Neutral	True
198.373	4.05	Control	0.6667000000000001	0.0	No	2.627	0.0	n/a	NoResponse	0	n/a	n/a	1	20	Fixation	Neutral	True
202.419	0.2	Control	0.6667000000000001	0.004	No	2.627	-0.004	2.0	NoResponse	0	0.265	201.684	1	20	Target	Neutral	True
202.619	0.5	Control	0.6667000000000001	n/a	No	2.627	n/a	n/a	NoResponse	0	n/a	n/a	1	20	Blank	Neutral	True
202.684	0.3	Control	0.6667000000000001	0.004	No	2.627	-0.004	2.0	NoResponse	0	0.265	n/a	1	20	ButtonPress	Neutral	True
203.121	1.45	Control	0.6667000000000001	n/a	No	2.627	n/a	5.0	NoResponse	0	0.021	202.142	1	20	Feedback	Neutral	True
204.575	2.627	Control	0.6667000000000001	n/a	No	2.627	n/a	n/a	NoResponse	0	0.0	n/a	1	20	ISIslide	Neutral	True
207.216	0.25	Control	0.6364	0.001	No	2.784	0.016	n/a	LatePress	0	n/a	n/a	1	21	Cue	Neutral	True
207.467	4.1	Control	0.6364	0.0	No	2.784	0.001	n/a	LatePress	0	n/a	n/a	1	21	Fixation	Neutral	True
211.563	0.19	Control	0.6364	0.003	No	2.784	-0.003	2.0	LatePress	0	0.19	210.753	1	21	Target	Neutral	True
211.753	0.3	Control	0.6364	0.003	No	2.784	-0.003	2.0	LatePress	0	0.19	n/a	1	21	ButtonPress	Neutral	True
211.763	0.51	Control	0.6364	n/a	No	2.784	n/a	n/a	LatePress	0	n/a	n/a	1	21	Blank	Neutral	True
212.265	1.45	Control	0.6364	n/a	No	2.784	n/a	5.0	LatePress	0	0.048	211.313	1	21	Feedback	Neutral	True
213.719	2.784	Control	0.6364	n/a	No	2.784	n/a	n/a	LatePress	0	0.0	n/a	1	21	ISIslide	Neutral	True
216.528	0.25	Control	0.6522	0.0	Yes	2.772	0.028	n/a	GoodResponse	0	n/a	n/a	1	22	Cue	Neutral	True
216.778	4.0	Control	0.6522	0.0	Yes	2.772	0.0	n/a	GoodResponse	0	n/a	n/a	1	22	Fixation	Neutral	True
220.774	0.2	Control	0.6522	0.004	Yes	2.772	-0.004	2.0	GoodResponse	0	0.198	219.972	1	22	Target	Neutral	True
220.972	0.3	Control	0.6522	0.004	Yes	2.772	-0.004	2.0	GoodResponse	0	0.198	n/a	1	22	ButtonPress	Neutral	True
220.974	0.5	Control	0.6522	n/a	Yes	2.772	n/a	n/a	GoodResponse	0	n/a	n/a	1	22	Blank	Neutral	True
221.476	1.45	Control	0.6522	n/a	Yes	2.772	n/a	5.0	GoodResponse	0	0.008	220.484	1	22	Feedback	Neutral	True
222.93	2.772	Control	0.6522	n/a	Yes	2.772	n/a	n/a	GoodResponse	0	0.0	n/a	1	22	ISIslide	Neutral	True
225.722	0.25	Control	0.625	0.0	No	2.778	0.022	n/a	NoResponse	0	n/a	n/a	1	23	Cue	Neutral	True
225.972	3.9	Control	0.625	0.001	No	2.778	0.0	n/a	NoResponse	0	n/a	n/a	1	23	Fixation	Neutral	True
229.884	0.21	Control	0.625	0.0	No	2.778	0.012	2.0	NoResponse	0	0.222	229.106	1	23	Target	Neutral	True
230.085	0.49	Control	0.625	n/a	No	2.778	n/a	n/a	NoResponse	0	n/a	n/a	1	23	Blank	Neutral	True
230.106	0.3	Control	0.625	0.0	No	2.778	0.012	2.0	NoResponse	0	0.222	n/a	1	23	ButtonPress	Neutral	True
230.569	1.45	Control	0.625	n/a	No	2.778	n/a	5.0	NoResponse	0	0.036	229.605	1	23	Feedback	Neutral	True
232.024	2.778	Control	0.625	n/a	No	2.778	n/a	n/a	NoResponse	0	0.0	n/a	1	23	ISIslide	Neutral	True
234.815	0.25	Win2	0.6	0.001	No	3.135	0.015	n/a	NoResponse	0	n/a	n/a	1	24	Cue	MissedWin	True
235.066	3.95	Win2	0.6	0.0	No	3.135	0.001	2.0	NoResponse	0	3.907	237.973	1	24	Fixation	MissedWin	True
238.973	0.3	Win2	0.6	0.0	No	3.135	0.001	2.0	NoResponse	0	3.907	n/a	1	24	ButtonPress	MissedWin	True
239.011	0.22	Win2	0.6	0.004	No	3.135	-0.004	n/a	NoResponse	0	n/a	n/a	1	24	Target	MissedWin	True
239.245	0.48	Win2	0.6	n/a	No	3.135	n/a	n/a	NoResponse	0	n/a	n/a	1	24	Blank	MissedWin	True
239.713	1.45	Win2	0.6	n/a	No	3.135	n/a	5.0	NoResponse	0	0.014	238.727	1	24	Feedback	MissedWin	True
241.168	3.135	Win2	0.6	n/a	No	3.135	n/a	n/a	NoResponse	0	0.0	n/a	1	24	ISIslide	MissedWin	True
244.327	0.25	Win2	0.6154	0.0	Yes	3.073	0.027	n/a	GoodResponse	1	n/a	n/a	2	25	Cue	Win	True
244.578	4.0	Win2	0.6154	0.0	Yes	3.073	0.001	n/a	GoodResponse	1	n/a	n/a	2	25	Fixation	Win	True
248.573	0.23	Win2	0.6154	0.004	Yes	3.073	-0.004	2.0	GoodResponse	1	0.206	247.779	2	25	Target	Win	True
248.779	0.3	Win2	0.6154	0.004	Yes	3.073	-0.004	2.0	GoodResponse	1	0.206	n/a	2	25	ButtonPress	Win	True
248.807	0.47	Win2	0.6154	n/a	Yes	3.073	n/a	n/a	GoodResponse	1	n/a	n/a	2	25	Blank	Win	True
249.275	1.45	Win2	0.6154	n/a	Yes	3.073	n/a	5.0	GoodResponse	1	0.013	248.288	2	25	Feedback	Win	True
250.73	3.073	Win2	0.6154	n/a	Yes	3.073	n/a	n/a	GoodResponse	1	0.0	n/a	2	25	ISIslide	Win	True
253.822	0.25	Win2	0.6296	0.0	Yes	2.928	0.022	n/a	GoodResponse	1	n/a	n/a	3	26	Cue	Win	True
254.073	3.95	Win2	0.6296	0.0	Yes	2.928	0.001	n/a	GoodResponse	1	n/a	n/a	3	26	Fixation	Win	True
258.018	0.24	Win2	0.6296	0.004	Yes	2.928	-0.004	2.0	GoodResponse	1	0.214	257.232	3	26	Target	Win	True
258.232	0.3	Win2	0.6296	0.004	Yes	2.928	-0.004	2.0	GoodResponse	1	0.214	n/a	3	26	ButtonPress	Win	True
258.269	0.46	Win2	0.6296	n/a	Yes	2.928	n/a	n/a	GoodResponse	1	n/a	n/a	3	26	Blank	Win	True
258.72	1.45	Win2	0.6296	n/a	Yes	2.928	n/a	5.0	GoodResponse	1	0.031	257.751	3	26	Feedback	Win	True
260.175	2.928	Win2	0.6296	n/a	Yes	2.928	n/a	n/a	GoodResponse	1	0.0	n/a	3	26	ISIslide	Win	True
263.117	0.25	Lose2	0.6429	0.0	Yes	2.833	0.017	n/a	GoodResponse	0	n/a	n/a	3	27	Cue	AvoidedLoss	True
263.367	4.05	Lose2	0.6429	0.0	Yes	2.833	0.0	n/a	GoodResponse	0	n/a	n/a	3	27	Fixation	AvoidedLoss	True
267.413	0.25	Lose2	0.6429	0.004	Yes	2.833	-0.004	2.0	GoodResponse	0	0.246	266.659	3	27	Target	AvoidedLoss	True
267.659	0.3	Lose2	0.6429	0.004	Yes	2.833	-0.004	2.0	GoodResponse	0	0.246	n/a	3	27	ButtonPress	AvoidedLoss	True
267.664	0.45	Lose2	0.6429	n/a	Yes	2.833	n/a	n/a	GoodResponse	0	n/a	n/a	3	27	Blank	AvoidedLoss	True
268.115	1.45	Lose2	0.6429	n/a	Yes	2.833	n/a	5.0	GoodResponse	0	0.001	267.116	3	27	Feedback	AvoidedLoss	True
269.569	2.833	Lose2	0.6429	n/a	Yes	2.833	n/a	n/a	GoodResponse	0	0.0	n/a	3	27	ISIslide	AvoidedLoss	True
272.428	0.25	Control	0.6207	0.0	No	2.822	0.028	n/a	NoResponse	0	n/a	n/a	3	28	Cue	Neutral	True
272.679	4.05	Control	0.6207	0.0	No	2.822	0.001	n/a	NoResponse	0	n/a	n/a	3	28	Fixation	Neutral	True
276.724	0.26	Control	0.6207	0.004	No	2.822	-0.004	2.0	NoResponse	0	0.274	275.998	3	28	Target	Neutral	True
276.991	0.44	Control	0.6207	n/a	No	2.822	n/a	n/a	NoResponse	0	n/a	n/a	3	28	Blank	Neutral	True
276.998	0.3	Control	0.6207	0.004	No	2.822	-0.004	2.0	NoResponse	0	0.274	n/a	3	28	ButtonPress	Neutral	True
277.426	1.45	Control	0.6207	n/a	No	2.822	n/a	5.0	NoResponse	0	0.008	276.434	3	28	Feedback	Neutral	True
278.88	2.822	Control	0.6207	n/a	No	2.822	n/a	n/a	NoResponse	0	0.0	n/a	3	28	ISIslide	Neutral	True
281.722	0.25	Lose2	0.6333	0.0	Yes	2.828	0.022	n/a	GoodResponse	0	n/a	n/a	3	29	Cue	AvoidedLoss	True
281.973	3.95	Lose2	0.6333	0.0	Yes	2.828	0.001	n/a	GoodResponse	0	n/a	n/a	3	29	Fixation	AvoidedLoss	True
285.918	0.27	Lose2	0.6333	0.004	Yes	2.828	-0.004	2.0	GoodResponse	0	0.21	285.128	3	29	Target	AvoidedLoss	True
286.128	0.3	Lose2	0.6333	0.004	Yes	2.828	-0.004	2.0	GoodResponse	0	0.21	n/a	3	29	ButtonPress	AvoidedLoss	True
286.202	0.43	Lose2	0.6333	n/a	Yes	2.828	n/a	n/a	GoodResponse	0	n/a	n/a	3	29	Blank	AvoidedLoss	True
286.62	1.45	Lose2	0.6333	n/a	Yes	2.828	n/a	5.0	GoodResponse	0	0.033	285.653	3	29	Feedback	AvoidedLoss	True
288.075	2.828	Lose2	0.6333	n/a	Yes	2.828	n/a	n/a	GoodResponse	0	0.0	n/a	3	29	ISIslide	AvoidedLoss	True
290.916	0.25	Win2	0.6129	0.0	No	2.784	0.016	n/a	NoResponse	0	n/a	n/a	3	30	Cue	MissedWin	True
291.167	3.9	Win2	0.6129	0.0	No	2.784	0.001	n/a	NoResponse	0	n/a	n/a	3	30	Fixation	MissedWin	True
295.062	0.28	Win2	0.6129	0.004	No	2.784	-0.004	2.0	NoResponse	0	0.328	294.39	3	30	Target	MissedWin	True
295.346	0.42	Win2	0.6129	n/a	No	2.784	n/a	n/a	NoResponse	0	n/a	n/a	3	30	Blank	MissedWin	True
295.39	0.3	Win2	0.6129	0.004	No	2.784	-0.004	2.0	NoResponse	0	0.328	n/a	3	30	ButtonPress	MissedWin	True
295.764	1.45	Win2	0.6129	n/a	No	2.784	n/a	5.0	NoResponse	0	0.011	294.775	3	30	Feedback	MissedWin	True
297.219	2.784	Win2	0.6129	n/a	No	2.784	n/a	n/a	NoResponse	0	0.0	n/a	3	30	ISIslide	MissedWin	True
300.027	0.25	Lose2	0.625	0.0	Yes	2.823	0.027	n/a	GoodResponse	0	n/a	n/a	3	31	Cue	AvoidedLoss	True
300.278	4.05	Lose2	0.625	0.0	Yes	2.823	0.001	n/a	GoodResponse	0	n/a	n/a	3	31	Fixation	AvoidedLoss	True
304.323	0.29	Lose2	0.625	0.004	Yes	2.823	-0.004	2.0	GoodResponse	0	0.195	303.518	3	31	Target	AvoidedLoss	True
304.518	0.3	Lose2	0.625	0.004	Yes	2.823	-0.004	2.0	GoodResponse	0	0.195	n/a	3	31	ButtonPress	AvoidedLoss	True
304.624	0.41	Lose2	0.625	n/a	Yes	2.823	n/a	n/a	GoodResponse	0	n/a	n/a	3	31	Blank	AvoidedLoss	True
305.025	1.45	Lose2	0.625	n/a	Yes	2.823	n/a	5.0	GoodResponse	0	0.018	304.043	3	31	Feedback	AvoidedLoss	True
306.48	2.823	Lose2	0.625	n/a	Yes	2.823	n/a	n/a	GoodResponse	0	0.0	n/a	3	31	ISIslide	AvoidedLoss	True
309.321	0.25	Lose2	0.6364	0.0	Yes	2.629	0.021	n/a	GoodResponse	0	n/a	n/a	3	32	Cue	AvoidedLoss	True
309.572	4.15	Lose2	0.6364	0.0	Yes	2.629	0.001	n/a	GoodResponse	0	n/a	n/a	3	32	Fixation	AvoidedLoss	True
313.718	0.3	Lose2	0.6364	0.003	Yes	2.629	-0.003	2.0	GoodResponse	0	0.197	312.915	3	32	Target	AvoidedLoss	True
313.915	0.3	Lose2	0.6364	0.003	Yes	2.629	-0.003	2.0	GoodResponse	0	0.197	n/a	3	32	ButtonPress	AvoidedLoss	True
314.019	0.4	Lose2	0.6364	n/a	Yes	2.629	n/a	n/a	GoodResponse	0	n/a	n/a	3	32	Blank	AvoidedLoss	True
314.42	1.45	Lose2	0.6364	n/a	Yes	2.629	n/a	5.0	GoodResponse	0	0.037	313.457	3	32	Feedback	AvoidedLoss	True
315.874	2.629	Lose2	0.6364	n/a	Yes	2.629	n/a	n/a	GoodResponse	0	0.0	n/a	3	32	ISIslide	AvoidedLoss	True
318.515	0.25	Win2	0.6470999999999999	0.001	Yes	2.685	0.015	n/a	GoodResponse	1	n/a	n/a	4	33	Cue	Win	True
318.766	4.0	Win2	0.6470999999999999	0.0	Yes	2.685	0.001	n/a	GoodResponse	1	n/a	n/a	4	33	Fixation	Win	True
322.761	0.31	Win2	0.6470999999999999	0.004	Yes	2.685	-0.004	2.0	GoodResponse	1	0.246	322.007	4	33	Target	Win	True
323.007	0.3	Win2	0.6470999999999999	0.004	Yes	2.685	-0.004	2.0	GoodResponse	1	0.246	n/a	4	33	ButtonPress	Win	True
323.079	0.39	Win2	0.6470999999999999	n/a	Yes	2.685	n/a	n/a	GoodResponse	1	n/a	n/a	4	33	Blank	Win	True
323.464	1.45	Win2	0.6470999999999999	n/a	Yes	2.685	n/a	5.0	GoodResponse	1	0.018	322.482	4	33	Feedback	Win	True
324.918	2.685	Win2	0.6470999999999999	n/a	Yes	2.685	n/a	n/a	GoodResponse	1	0.0	n/a	4	33	ISIslide	Win	True
327.626	0.25	Lose2	0.6286	0.0	No	2.624	0.026	n/a	NoResponse	-1	n/a	n/a	3	34	Cue	Loss	True
327.877	4.05	Lose2	0.6286	0.0	No	2.624	0.001	n/a	NoResponse	-1	n/a	n/a	3	34	Fixation	Loss	True
331.922	0.32	Lose2	0.6286	0.004	No	2.624	-0.004	2.0	NoResponse	-1	0.413	331.335	3	34	Target	Loss	True
332.256	0.38	Lose2	0.6286	n/a	No	2.624	n/a	n/a	NoResponse	-1	n/a	n/a	3	34	Blank	Loss	True
332.335	0.3	Lose2	0.6286	0.004	No	2.624	-0.004	2.0	NoResponse	-1	0.413	n/a	3	34	ButtonPress	Loss	True
332.624	1.45	Lose2	0.6286	n/a	No	2.624	n/a	5.0	NoResponse	-1	0.029	331.653	3	34	Feedback	Loss	True
334.079	2.624	Lose2	0.6286	n/a	No	2.624	n/a	n/a	NoResponse	-1	0.0	n/a	3	34	ISIslide	Loss	True
336.72	0.25	Lose2	0.6389	0.0	Yes	2.68	0.02	n/a	GoodResponse	0	n/a	n/a	3	35	Cue	AvoidedLoss	True
336.971	4.0	Lose2	0.6389	0.0	Yes	2.68	0.001	n/a	GoodResponse	0	n/a	n/a	3	35	Fixation	AvoidedLoss	True
340.966	0.33	Lose2	0.6389	0.004	Yes	2.68	-0.004	2.0	GoodResponse	0	0.275	340.241	3	35	Target	AvoidedLoss	True
341.241	0.3	Lose2	0.6389	0.004	Yes	2.68	-0.004	2.0	GoodResponse	0	0.275	n/a	3	35	ButtonPress	AvoidedLoss	True
341.3	0.37	Lose2	0.6389	n/a	Yes	2.68	n/a	n/a	GoodResponse	0	n/a	n/a	3	35	Blank	AvoidedLoss	True
341.668	1.45	Lose2	0.6389	n/a	Yes	2.68	n/a	5.0	GoodResponse	0	0.008	340.676	3	35	Feedback	AvoidedLoss	True
343.122	2.68	Lose2	0.6389	n/a	Yes	2.68	n/a	n/a	GoodResponse	0	0.0	n/a	3	35	ISIslide	AvoidedLoss	True
345.83	0.25	Control	0.6486	0.0	Yes	2.67	0.03	n/a	GoodResponse	0	n/a	n/a	3	36	Cue	Neutral	True
346.081	4.0	Control	0.6486	0.0	Yes	2.67	0.001	n/a	GoodResponse	0	n/a	n/a	3	36	Fixation	Neutral	True
350.076	0.34	Control	0.6486	0.004	Yes	2.67	-0.004	2.0	GoodResponse	0	0.22	349.296	3	36	Target	Neutral	True
350.296	0.3	Control	0.6486	0.004	Yes	2.67	-0.004	2.0	GoodResponse	0	0.22	n/a	3	36	ButtonPress	Neutral	True
350.427	0.36	Control	0.6486	n/a	Yes	2.67	n/a	n/a	GoodResponse	0	n/a	n/a	3	36	Blank	Neutral	True
350.778	1.45	Control	0.6486	n/a	Yes	2.67	n/a	5.0	GoodResponse	0	0.02	349.798	3	36	Feedback	Neutral	True
352.233	2.67	Control	0.6486	n/a	Yes	2.67	n/a	n/a	GoodResponse	0	0.0	n/a	3	36	ISIslide	Neutral	True
354.924	0.25	Win2	0.6579	0.0	Yes	2.876	0.024	n/a	GoodResponse	1	n/a	n/a	4	37	Cue	Win	True
355.175	4.0	Win2	0.6579	0.0	Yes	2.876	0.001	n/a	GoodResponse	1	n/a	n/a	4	37	Fixation	Win	True
359.17	0.35	Win2	0.6579	0.004	Yes	2.876	-0.004	2.0	GoodResponse	1	0.198	358.368	4	37	Target	Win	True
359.368	0.3	Win2	0.6579	0.004	Yes	2.876	-0.004	2.0	GoodResponse	1	0.198	n/a	4	37	ButtonPress	Win	True
359.521	0.35	Win2	0.6579	n/a	Yes	2.876	n/a	n/a	GoodResponse	1	n/a	n/a	4	37	Blank	Win	True
359.872	1.45	Win2	0.6579	n/a	Yes	2.876	n/a	5.0	GoodResponse	1	0.048	358.92	4	37	Feedback	Win	True
361.327	2.876	Win2	0.6579	n/a	Yes	2.876	n/a	n/a	GoodResponse	1	0.0	n/a	4	37	ISIslide	Win	True
364.219	0.25	Lose2	0.6667000000000001	0.0	Yes	2.831	0.019	n/a	GoodResponse	0	n/a	n/a	4	38	Cue	AvoidedLoss	True
364.469	3.95	Lose2	0.6667000000000001	0.0	Yes	2.831	0.0	n/a	GoodResponse	0	n/a	n/a	4	38	Fixation	AvoidedLoss	True
368.414	0.35	Lose2	0.6667000000000001	0.005	Yes	2.831	-0.005	2.0	GoodResponse	0	0.238	367.652	4	38	Target	AvoidedLoss	True
368.652	0.3	Lose2	0.6667000000000001	0.005	Yes	2.831	-0.005	2.0	GoodResponse	0	0.238	n/a	4	38	ButtonPress	AvoidedLoss	True
368.766	0.35	Lose2	0.6667000000000001	n/a	Yes	2.831	n/a	n/a	GoodResponse	0	n/a	n/a	4	38	Blank	AvoidedLoss	True
369.117	1.45	Lose2	0.6667000000000001	n/a	Yes	2.831	n/a	5.0	GoodResponse	0	0.023	368.14	4	38	Feedback	AvoidedLoss	True
370.571	2.831	Lose2	0.6667000000000001	n/a	Yes	2.831	n/a	n/a	GoodResponse	0	0.0	n/a	4	38	ISIslide	AvoidedLoss	True
373.429	0.25	Win2	0.675	0.001	Yes	2.971	0.029	n/a	GoodResponse	1	n/a	n/a	5	39	Cue	Win	True
373.68	4.1	Win2	0.675	0.0	Yes	2.971	0.001	n/a	GoodResponse	1	n/a	n/a	5	39	Fixation	Win	True
377.776	0.34	Win2	0.675	0.003	Yes	2.971	-0.003	2.0	GoodResponse	1	0.272	377.048	5	39	Target	Win	True
378.048	0.3	Win2	0.675	0.003	Yes	2.971	-0.003	2.0	GoodResponse	1	0.272	n/a	5	39	ButtonPress	Win	True
378.127	0.36	Win2	0.675	n/a	Yes	2.971	n/a	n/a	GoodResponse	1	n/a	n/a	5	39	Blank	Win	True
378.478	1.45	Win2	0.675	n/a	Yes	2.971	n/a	5.0	GoodResponse	1	0.027	377.505	5	39	Feedback	Win	True
379.932	2.971	Win2	0.675	n/a	Yes	2.971	n/a	n/a	GoodResponse	1	0.0	n/a	5	39	ISIslide	Win	True
382.924	0.25	Win2	0.6829000000000001	0.001	Yes	2.726	0.024	n/a	GoodResponse	1	n/a	n/a	6	40	Cue	Win	True
383.175	3.95	Win2	0.6829000000000001	0.0	Yes	2.726	0.001	n/a	GoodResponse	1	n/a	n/a	6	40	Fixation	Win	True
387.12	0.33	Win2	0.6829000000000001	0.004	Yes	2.726	-0.004	2.0	GoodResponse	1	0.11	386.23	6	40	Target	Win	True
387.23	0.3	Win2	0.6829000000000001	0.004	Yes	2.726	-0.004	2.0	GoodResponse	1	0.11	n/a	6	40	ButtonPress	Win	True
387.455	0.37	Win2	0.6829000000000001	n/a	Yes	2.726	n/a	n/a	GoodResponse	1	n/a	n/a	6	40	Blank	Win	True
387.822	1.45	Win2	0.6829000000000001	n/a	Yes	2.726	n/a	5.0	GoodResponse	1	0.049	386.871	6	40	Feedback	Win	True
389.277	2.726	Win2	0.6829000000000001	n/a	Yes	2.726	n/a	n/a	GoodResponse	1	0.0	n/a	6	40	ISIslide	Win	True
392.018	0.25	Win2	0.6905	0.0	Yes	2.782	0.018	n/a	GoodResponse	1	n/a	n/a	7	41	Cue	Win	True
392.269	3.9	Win2	0.6905	0.0	Yes	2.782	0.001	n/a	GoodResponse	1	n/a	n/a	7	41	Fixation	Win	True
396.164	0.32	Win2	0.6905	0.004	Yes	2.782	-0.004	2.0	GoodResponse	1	0.218	395.382	7	41	Target	Win	True
396.382	0.3	Win2	0.6905	0.004	Yes	2.782	-0.004	2.0	GoodResponse	1	0.218	n/a	7	41	ButtonPress	Win	True
396.498	0.38	Win2	0.6905	n/a	Yes	2.782	n/a	n/a	GoodResponse	1	n/a	n/a	7	41	Blank	Win	True
396.866	1.45	Win2	0.6905	n/a	Yes	2.782	n/a	5.0	GoodResponse	1	0.029	395.895	7	41	Feedback	Win	True
398.32	2.782	Win2	0.6905	n/a	Yes	2.782	n/a	n/a	GoodResponse	1	0.0	n/a	7	41	ISIslide	Win	True
401.129	0.25	Control	0.6977	0.0	Yes	2.921	0.029	n/a	GoodResponse	0	n/a	n/a	7	42	Cue	Neutral	True
401.38	3.85	Control	0.6977	0.0	Yes	2.921	0.001	n/a	GoodResponse	0	n/a	n/a	7	42	Fixation	Neutral	True
405.224	0.31	Control	0.6977	0.005	Yes	2.921	-0.005	2.0	GoodResponse	0	0.247	404.471	7	42	Target	Neutral	True
405.471	0.3	Control	0.6977	0.005	Yes	2.921	-0.005	2.0	GoodResponse	0	0.247	n/a	7	42	ButtonPress	Neutral	True
405.542	0.39	Control	0.6977	n/a	Yes	2.921	n/a	n/a	GoodResponse	0	n/a	n/a	7	42	Blank	Neutral	True
405.927	1.45	Control	0.6977	n/a	Yes	2.921	n/a	5.0	GoodResponse	0	0.042	404.969	7	42	Feedback	Neutral	True
407.381	2.921	Control	0.6977	n/a	Yes	2.921	n/a	n/a	GoodResponse	0	0.0	n/a	7	42	ISIslide	Neutral	True
410.323	0.25	Win2	0.7045	0.0	Yes	3.177	0.023	n/a	GoodResponse	1	n/a	n/a	8	43	Cue	Win	True
410.574	4.0	Win2	0.7045	0.0	Yes	3.177	0.001	n/a	GoodResponse	1	n/a	n/a	8	43	Fixation	Win	True
414.569	0.3	Win2	0.7045	0.004	Yes	3.177	-0.004	2.0	GoodResponse	1	0.237	413.806	8	43	Target	Win	True
414.806	0.3	Win2	0.7045	0.004	Yes	3.177	-0.004	2.0	GoodResponse	1	0.237	n/a	8	43	ButtonPress	Win	True
414.87	0.4	Win2	0.7045	n/a	Yes	3.177	n/a	n/a	GoodResponse	1	n/a	n/a	8	43	Blank	Win	True
415.271	1.45	Win2	0.7045	n/a	Yes	3.177	n/a	5.0	GoodResponse	1	0.014	414.285	8	43	Feedback	Win	True
416.725	3.177	Win2	0.7045	n/a	Yes	3.177	n/a	n/a	GoodResponse	1	0.0	n/a	8	43	ISIslide	Win	True
419.918	0.25	Win2	0.7111	0.0	Yes	2.982	0.018	n/a	GoodResponse	1	n/a	n/a	9	44	Cue	Win	True
420.169	4.0	Win2	0.7111	0.0	Yes	2.982	0.001	n/a	GoodResponse	1	n/a	n/a	9	44	Fixation	Win	True
424.164	0.29	Win2	0.7111	0.004	Yes	2.982	-0.004	2.0	GoodResponse	1	0.227	423.391	9	44	Target	Win	True
424.391	0.3	Win2	0.7111	0.004	Yes	2.982	-0.004	2.0	GoodResponse	1	0.227	n/a	9	44	ButtonPress	Win	True
424.465	0.41	Win2	0.7111	n/a	Yes	2.982	n/a	n/a	GoodResponse	1	n/a	n/a	9	44	Blank	Win	True
424.866	1.45	Win2	0.7111	n/a	Yes	2.982	n/a	5.0	GoodResponse	1	0.029	423.895	9	44	Feedback	Win	True
426.321	2.982	Win2	0.7111	n/a	Yes	2.982	n/a	n/a	GoodResponse	1	0.0	n/a	9	44	ISIslide	Win	True
429.313	0.25	Control	0.6957	0.0	No	2.887	0.013	n/a	NoResponse	0	n/a	n/a	9	45	Cue	Neutral	False
429.564	4.1	Control	0.6957	0.0	No	2.887	0.001	n/a	NoResponse	0	n/a	n/a	9	45	Fixation	Neutral	False
433.659	0.28	Control	0.6957	0.004	No	2.887	-0.004	n/a	NoResponse	0	n/a	n/a	9	45	Target	Neutral	False
433.944	0.42	Control	0.6957	n/a	No	2.887	n/a	n/a	NoResponse	0	n/a	n/a	9	45	Blank	Neutral	False
434.361	1.45	Control	0.6957	n/a	No	2.887	n/a	5.0	NoResponse	0	0.046	433.407	9	45	Feedback	Neutral	False
435.816	2.887	Control	0.6957	n/a	No	2.887	n/a	n/a	NoResponse	0	0.0	n/a	9	45	ISIslide	Neutral	False
438.724	0.25	Lose2	0.7021	0.001	Yes	3.376	0.024	n/a	GoodResponse	0	n/a	n/a	9	46	Cue	AvoidedLoss	True
438.975	4.0	Lose2	0.7021	0.0	Yes	3.376	0.001	n/a	GoodResponse	0	n/a	n/a	9	46	Fixation	AvoidedLoss	True
442.97	0.27	Lose2	0.7021	0.004	Yes	3.376	-0.004	2.0	GoodResponse	0	0.211	442.181	9	46	Target	AvoidedLoss	True
443.181	0.3	Lose2	0.7021	0.004	Yes	3.376	-0.004	2.0	GoodResponse	0	0.211	n/a	9	46	ButtonPress	AvoidedLoss	True
443.255	0.43	Lose2	0.7021	n/a	Yes	3.376	n/a	n/a	GoodResponse	0	n/a	n/a	9	46	Blank	AvoidedLoss	True
443.673	1.45	Lose2	0.7021	n/a	Yes	3.376	n/a	5.0	GoodResponse	0	0.004	442.677	9	46	Feedback	AvoidedLoss	True
445.127	3.376	Lose2	0.7021	n/a	Yes	3.376	n/a	n/a	GoodResponse	0	0.0	n/a	9	46	ISIslide	AvoidedLoss	True
448.52	0.25	Lose2	0.7082999999999999	0.0	Yes	2.68	0.02	n/a	GoodResponse	0	n/a	n/a	9	47	Cue	AvoidedLoss	True
448.771	4.0	Lose2	0.7082999999999999	0.0	Yes	2.68	0.001	n/a	GoodResponse	0	n/a	n/a	9	47	Fixation	AvoidedLoss	True
452.766	0.26	Lose2	0.7082999999999999	0.004	Yes	2.68	-0.004	2.0	GoodResponse	0	0.212	451.978	9	47	Target	AvoidedLoss	True
452.978	0.3	Lose2	0.7082999999999999	0.004	Yes	2.68	-0.004	2.0	GoodResponse	0	0.212	n/a	9	47	ButtonPress	AvoidedLoss	True
453.034	0.44	Lose2	0.7082999999999999	n/a	Yes	2.68	n/a	n/a	GoodResponse	0	n/a	n/a	9	47	Blank	AvoidedLoss	True
453.468	1.45	Lose2	0.7082999999999999	n/a	Yes	2.68	n/a	5.0	GoodResponse	0	0.011	452.479	9	47	Feedback	AvoidedLoss	True
454.923	2.68	Lose2	0.7082999999999999	n/a	Yes	2.68	n/a	n/a	GoodResponse	0	0.0	n/a	9	47	ISIslide	AvoidedLoss	True
457.631	0.25	Lose2	0.6939	0.0	No	3.019	0.031	n/a	NoResponse	-1	n/a	n/a	8	48	Cue	Loss	True
457.882	3.95	Lose2	0.6939	0.0	No	3.019	0.001	n/a	NoResponse	-1	n/a	n/a	8	48	Fixation	Loss	True
461.827	0.25	Lose2	0.6939	0.004	No	3.019	-0.004	2.0	NoResponse	-1	0.326	461.153	8	48	Target	Loss	True
462.078	0.45	Lose2	0.6939	n/a	No	3.019	n/a	n/a	NoResponse	-1	n/a	n/a	8	48	Blank	Loss	True
462.153	0.3	Lose2	0.6939	0.004	No	3.019	-0.004	2.0	NoResponse	-1	0.326	n/a	8	48	ButtonPress	Loss	True
462.529	1.45	Lose2	0.6939	n/a	No	3.019	n/a	5.0	NoResponse	-1	0.024	461.553	8	48	Feedback	Loss	True
463.983	3.019	Lose2	0.6939	n/a	No	3.019	n/a	n/a	NoResponse	-1	0.0	n/a	8	48	ISIslide	Loss	True
467.026	0.25	Control	0.7	0.0	Yes	2.874	0.026	n/a	GoodResponse	0	n/a	n/a	8	49	Cue	Neutral	True
467.276	4.0	Control	0.7	0.0	Yes	2.874	0.0	n/a	GoodResponse	0	n/a	n/a	8	49	Fixation	Neutral	True
471.272	0.24	Control	0.7	0.004	Yes	2.874	-0.004	2.0	GoodResponse	0	0.2	470.472	8	49	Target	Neutral	True
471.472	0.3	Control	0.7	0.004	Yes	2.874	-0.004	2.0	GoodResponse	0	0.2	n/a	8	49	ButtonPress	Neutral	True
471.522	0.46	Control	0.7	n/a	Yes	2.874	n/a	n/a	GoodResponse	0	n/a	n/a	8	49	Blank	Neutral	True
471.974	1.45	Control	0.7	n/a	Yes	2.874	n/a	5.0	GoodResponse	0	0.042	471.016	8	49	Feedback	Neutral	True
473.428	2.874	Control	0.7	n/a	Yes	2.874	n/a	n/a	GoodResponse	0	0.0	n/a	8	49	ISIslide	Neutral	True
476.32	0.25	Control	0.6862999999999999	0.0	No	2.78	0.02	n/a	NoResponse	0	n/a	n/a	8	50	Cue	Neutral	True
476.571	4.0	Control	0.6862999999999999	0.0	No	2.78	0.001	n/a	NoResponse	0	n/a	n/a	8	50	Fixation	Neutral	True
480.566	0.23	Control	0.6862999999999999	0.004	No	2.78	-0.004	2.0	NoResponse	0	0.309	479.875	8	50	Target	Neutral	True
480.8	0.47	Control	0.6862999999999999	n/a	No	2.78	n/a	n/a	NoResponse	0	n/a	n/a	8	50	Blank	Neutral	True
480.875	0.3	Control	0.6862999999999999	0.004	No	2.78	-0.004	2.0	NoResponse	0	0.309	n/a	8	50	ButtonPress	Neutral	True
481.268	1.45	Control	0.6862999999999999	n/a	No	2.78	n/a	5.0	NoResponse	0	0.016	480.284	8	50	Feedback	Neutral	True
482.723	2.78	Control	0.6862999999999999	n/a	No	2.78	n/a	n/a	NoResponse	0	0.0	n/a	8	50	ISIslide	Neutral	True
485.514	0.25	Control	0.6731	0.0	No	2.736	0.014	n/a	NoResponse	0	n/a	n/a	8	51	Cue	Neutral	True
485.765	3.95	Control	0.6731	0.0	No	2.736	0.001	n/a	NoResponse	0	n/a	n/a	8	51	Fixation	Neutral	True
489.71	0.22	Control	0.6731	0.004	No	2.736	-0.004	2.0	NoResponse	0	0.241	488.951	8	51	Target	Neutral	True
489.944	0.48	Control	0.6731	n/a	No	2.736	n/a	n/a	NoResponse	0	n/a	n/a	8	51	Blank	Neutral	True
489.951	0.3	Control	0.6731	0.004	No	2.736	-0.004	2.0	NoResponse	0	0.241	n/a	8	51	ButtonPress	Neutral	True
490.412	1.45	Control	0.6731	n/a	No	2.736	n/a	5.0	NoResponse	0	0.042	489.454	8	51	Feedback	Neutral	True
491.867	2.736	Control	0.6731	n/a	No	2.736	n/a	n/a	NoResponse	0	0.0	n/a	8	51	ISIslide	Neutral	True
494.625	0.25	Control	0.6792	0.0	Yes	2.625	0.025	n/a	GoodResponse	0	n/a	n/a	8	52	Cue	Neutral	True
494.875	4.05	Control	0.6792	0.001	Yes	2.625	0.0	n/a	GoodResponse	0	n/a	n/a	8	52	Fixation	Neutral	True
498.921	0.21	Control	0.6792	0.004	Yes	2.625	-0.004	2.0	GoodResponse	0	0.176	498.097	8	52	Target	Neutral	True
499.097	0.3	Control	0.6792	0.004	Yes	2.625	-0.004	2.0	GoodResponse	0	0.176	n/a	8	52	ButtonPress	Neutral	True
499.138	0.49	Control	0.6792	n/a	Yes	2.625	n/a	n/a	GoodResponse	0	n/a	n/a	8	52	Blank	Neutral	True
499.623	1.45	Control	0.6792	n/a	Yes	2.625	n/a	5.0	GoodResponse	0	0.006	498.629	8	52	Feedback	Neutral	True
501.077	2.625	Control	0.6792	n/a	Yes	2.625	n/a	n/a	GoodResponse	0	0.0	n/a	8	52	ISIslide	Neutral	True
503.719	0.25	Win2	0.6667000000000001	0.0	No	2.931	0.019	n/a	NoResponse	0	n/a	n/a	8	53	Cue	MissedWin	False
503.969	4.05	Win2	0.6667000000000001	0.0	No	2.931	0.0	2.0	NoResponse	0	3.916	506.885	8	53	Fixation	MissedWin	False
507.885	0.3	Win2	0.6667000000000001	0.0	No	2.931	0.0	2.0	NoResponse	0	3.916	n/a	8	53	ButtonPress	MissedWin	False
508.015	0.2	Win2	0.6667000000000001	0.004	No	2.931	-0.004	2.0	NoResponse	0	0.545	507.56	8	53	Target	MissedWin	False
508.215	0.5	Win2	0.6667000000000001	n/a	No	2.931	n/a	n/a	NoResponse	0	n/a	n/a	8	53	Blank	MissedWin	False
508.56	0.3	Win2	0.6667000000000001	0.004	No	2.931	-0.004	2.0	NoResponse	0	0.545	n/a	8	53	ButtonPress	MissedWin	False
508.717	1.45	Win2	0.6667000000000001	n/a	No	2.931	n/a	5.0	NoResponse	0	0.03	507.747	8	53	Feedback	MissedWin	False
510.171	2.931	Win2	0.6667000000000001	n/a	No	2.931	n/a	n/a	NoResponse	0	0.0	n/a	8	53	ISIslide	MissedWin	False
513.13	0.25	Win2	0.6545000000000001	0.0	No	2.72	0.03	n/a	NoResponse	0	n/a	n/a	8	54	Cue	MissedWin	True
513.381	3.95	Win2	0.6545000000000001	0.0	No	2.72	0.001	n/a	NoResponse	0	n/a	n/a	8	54	Fixation	MissedWin	True
517.326	0.19	Win2	0.6545000000000001	0.004	No	2.72	-0.004	2.0	NoResponse	0	0.23	516.556	8	54	Target	MissedWin	True
517.526	0.51	Win2	0.6545000000000001	n/a	No	2.72	n/a	n/a	NoResponse	0	n/a	n/a	8	54	Blank	MissedWin	True
517.556	0.3	Win2	0.6545000000000001	0.004	No	2.72	-0.004	2.0	NoResponse	0	0.23	n/a	8	54	ButtonPress	MissedWin	True
518.028	1.45	Win2	0.6545000000000001	n/a	No	2.72	n/a	5.0	NoResponse	0	0.036	517.064	8	54	Feedback	MissedWin	True
519.482	2.72	Win2	0.6545000000000001	n/a	No	2.72	n/a	n/a	NoResponse	0	0.0	n/a	8	54	ISIslide	MissedWin	True
522.224	0.25	Control	0.6429	0.0	No	3.026	0.024	n/a	NoResponse	0	n/a	n/a	8	55	Cue	Neutral	False
522.475	3.95	Control	0.6429	0.0	No	3.026	0.001	n/a	NoResponse	0	n/a	n/a	8	55	Fixation	Neutral	False
526.42	0.2	Control	0.6429	0.004	No	3.026	-0.004	n/a	NoResponse	0	n/a	n/a	8	55	Target	Neutral	False
526.62	0.5	Control	0.6429	n/a	No	3.026	n/a	n/a	NoResponse	0	n/a	n/a	8	55	Blank	Neutral	False
527.122	1.45	Control	0.6429	n/a	No	3.026	n/a	5.0	NoResponse	0	0.015	526.137	8	55	Feedback	Neutral	False
528.576	3.026	Control	0.6429	n/a	No	3.026	n/a	n/a	NoResponse	0	0.0	n/a	8	55	ISIslide	Neutral	False
531.619	0.25	Control	0.6315999999999999	0.0	No	2.831	0.019	n/a	NoResponse	0	n/a	n/a	8	56	Cue	Neutral	True
531.869	3.95	Control	0.6315999999999999	0.0	No	2.831	0.0	n/a	NoResponse	0	n/a	n/a	8	56	Fixation	Neutral	True
535.831	0.21	Control	0.6315999999999999	0.0	No	2.831	0.012	2.0	NoResponse	0	0.208	535.039	8	56	Target	Neutral	True
536.032	0.49	Control	0.6315999999999999	n/a	No	2.831	n/a	n/a	NoResponse	0	n/a	n/a	8	56	Blank	Neutral	True
536.039	0.3	Control	0.6315999999999999	0.0	No	2.831	0.012	2.0	NoResponse	0	0.208	n/a	8	56	ButtonPress	Neutral	True
536.517	1.45	Control	0.6315999999999999	n/a	No	2.831	n/a	5.0	NoResponse	0	0.034	535.551	8	56	Feedback	Neutral	True
537.971	2.831	Control	0.6315999999999999	n/a	No	2.831	n/a	n/a	NoResponse	0	0.0	n/a	8	56	ISIslide	Neutral	True
540.829	0.25	Control	0.6379	0.0	Yes	3.471	0.029	n/a	GoodResponse	0	n/a	n/a	8	57	Cue	Neutral	True
541.08	4.0	Control	0.6379	0.0	Yes	3.471	0.001	n/a	GoodResponse	0	n/a	n/a	8	57	Fixation	Neutral	True
545.075	0.22	Control	0.6379	0.004	Yes	3.471	-0.004	2.0	GoodResponse	0	0.209	544.284	8	57	Target	Neutral	True
545.284	0.3	Control	0.6379	0.004	Yes	3.471	-0.004	2.0	GoodResponse	0	0.209	n/a	8	57	ButtonPress	Neutral	True
545.309	0.48	Control	0.6379	n/a	Yes	3.471	n/a	n/a	GoodResponse	0	n/a	n/a	8	57	Blank	Neutral	True
545.778	1.45	Control	0.6379	n/a	Yes	3.471	n/a	5.0	GoodResponse	0	0.042	544.82	8	57	Feedback	Neutral	True
547.232	3.471	Control	0.6379	n/a	Yes	3.471	n/a	n/a	GoodResponse	0	0.0	n/a	8	57	ISIslide	Neutral	True
550.726	0.25	Win2	0.6441	0.0	Yes	2.724	0.026	2.0	GoodResponse	1	0.226	549.952	9	58	Cue	Win	False
550.952	0.3	Win2	0.6441	0.0	Yes	2.724	0.026	2.0	GoodResponse	1	0.226	n/a	9	58	ButtonPress	Win	False
550.976	4.05	Win2	0.6441	0.0	Yes	2.724	0.0	n/a	GoodResponse	1	n/a	n/a	9	58	Fixation	Win	False
555.022	0.23	Win2	0.6441	0.004	Yes	2.724	-0.004	2.0	GoodResponse	1	0.185	554.207	9	58	Target	Win	False
555.207	0.3	Win2	0.6441	0.004	Yes	2.724	-0.004	2.0	GoodResponse	1	0.185	n/a	9	58	ButtonPress	Win	False
555.256	0.47	Win2	0.6441	n/a	Yes	2.724	n/a	n/a	GoodResponse	1	n/a	n/a	9	58	Blank	Win	False
555.724	1.45	Win2	0.6441	n/a	Yes	2.724	n/a	5.0	GoodResponse	1	0.047	554.771	9	58	Feedback	Win	False
557.178	2.724	Win2	0.6441	n/a	Yes	2.724	n/a	n/a	GoodResponse	1	0.0	n/a	9	58	ISIslide	Win	False
559.92	0.25	Lose2	0.65	0.0	Yes	2.68	0.02	n/a	GoodResponse	0	n/a	n/a	9	59	Cue	AvoidedLoss	True
560.17	4.0	Lose2	0.65	0.001	Yes	2.68	0.0	n/a	GoodResponse	0	n/a	n/a	9	59	Fixation	AvoidedLoss	True
564.166	0.24	Lose2	0.65	0.004	Yes	2.68	-0.004	2.0	GoodResponse	0	0.214	563.38	9	59	Target	AvoidedLoss	True
564.38	0.3	Lose2	0.65	0.004	Yes	2.68	-0.004	2.0	GoodResponse	0	0.214	n/a	9	59	ButtonPress	AvoidedLoss	True
564.417	0.46	Lose2	0.65	n/a	Yes	2.68	n/a	n/a	GoodResponse	0	n/a	n/a	9	59	Blank	AvoidedLoss	True
564.868	1.45	Lose2	0.65	n/a	Yes	2.68	n/a	5.0	GoodResponse	0	0.024	563.892	9	59	Feedback	AvoidedLoss	True
566.322	2.68	Lose2	0.65	n/a	Yes	2.68	n/a	n/a	GoodResponse	0	0.0	n/a	9	59	ISIslide	AvoidedLoss	True
569.014	0.25	Control	0.6557	0.0	Yes	2.686	0.014	n/a	GoodResponse	0	n/a	n/a	9	60	Cue	Neutral	True
569.264	4.0	Control	0.6557	0.0	Yes	2.686	0.0	n/a	GoodResponse	0	n/a	n/a	9	60	Fixation	Neutral	True
573.26	0.25	Control	0.6557	0.004	Yes	2.686	-0.004	2.0	GoodResponse	0	0.212	572.472	9	60	Target	Neutral	True
573.472	0.3	Control	0.6557	0.004	Yes	2.686	-0.004	2.0	GoodResponse	0	0.212	n/a	9	60	ButtonPress	Neutral	True
573.51	0.45	Control	0.6557	n/a	Yes	2.686	n/a	n/a	GoodResponse	0	n/a	n/a	9	60	Blank	Neutral	True
573.962	1.45	Control	0.6557	n/a	Yes	2.686	n/a	5.0	GoodResponse	0	0.006	572.968	9	60	Feedback	Neutral	True
575.416	2.686	Control	0.6557	n/a	Yes	2.686	n/a	n/a	GoodResponse	0	0.0	n/a	9	60	ISIslide	Neutral	True
578.124	0.25	Lose2	0.6452	0.0	No	2.976	0.024	n/a	NoResponse	-1	n/a	n/a	8	61	Cue	Loss	False
578.375	4.0	Lose2	0.6452	0.0	No	2.976	0.001	n/a	NoResponse	-1	n/a	n/a	8	61	Fixation	Loss	False
582.37	0.25	Lose2	0.6452	0.004	No	2.976	-0.004	n/a	NoResponse	-1	n/a	n/a	8	61	Target	Loss	False
582.621	0.45	Lose2	0.6452	n/a	No	2.976	n/a	n/a	NoResponse	-1	n/a	n/a	8	61	Blank	Loss	False
583.072	1.45	Lose2	0.6452	n/a	No	2.976	n/a	5.0	NoResponse	-1	0.015	582.087	8	61	Feedback	Loss	False
584.527	2.976	Lose2	0.6452	n/a	No	2.976	n/a	n/a	NoResponse	-1	0.0	n/a	8	61	ISIslide	Loss	False
587.519	0.25	Lose2	0.6349	0.0	No	2.881	0.019	n/a	NoResponse	-1	n/a	n/a	7	62	Cue	Loss	True
587.77	3.9	Lose2	0.6349	0.0	No	2.881	0.001	n/a	NoResponse	-1	n/a	n/a	7	62	Fixation	Loss	True
591.665	0.26	Lose2	0.6349	0.004	No	2.881	-0.004	2.0	NoResponse	-1	0.275	590.94	7	62	Target	Loss	True
591.932	0.44	Lose2	0.6349	n/a	No	2.881	n/a	n/a	NoResponse	-1	n/a	n/a	7	62	Blank	Loss	True
591.94	0.3	Lose2	0.6349	0.004	No	2.881	-0.004	2.0	NoResponse	-1	0.275	n/a	7	62	ButtonPress	Loss	True
592.367	1.45	Lose2	0.6349	n/a	No	2.881	n/a	5.0	NoResponse	-1	0.038	591.405	7	62	Feedback	Loss	True
593.821	2.881	Lose2	0.6349	n/a	No	2.881	n/a	n/a	NoResponse	-1	0.0	n/a	7	62	ISIslide	Loss	True
596.73	0.25	Lose2	0.6406000000000001	0.0	Yes	2.62	0.03	n/a	GoodResponse	0	n/a	n/a	7	63	Cue	AvoidedLoss	True
596.98	4.05	Lose2	0.6406000000000001	0.0	Yes	2.62	0.0	n/a	GoodResponse	0	n/a	n/a	7	63	Fixation	AvoidedLoss	True
601.026	0.27	Lose2	0.6406000000000001	0.004	Yes	2.62	-0.004	2.0	GoodResponse	0	0.198	600.224	7	63	Target	AvoidedLoss	True
601.224	0.3	Lose2	0.6406000000000001	0.004	Yes	2.62	-0.004	2.0	GoodResponse	0	0.198	n/a	7	63	ButtonPress	AvoidedLoss	True
601.31	0.43	Lose2	0.6406000000000001	n/a	Yes	2.62	n/a	n/a	GoodResponse	0	n/a	n/a	7	63	Blank	AvoidedLoss	True
601.728	1.45	Lose2	0.6406000000000001	n/a	Yes	2.62	n/a	5.0	GoodResponse	0	0.042	600.77	7	63	Feedback	AvoidedLoss	True
603.182	2.62	Lose2	0.6406000000000001	n/a	Yes	2.62	n/a	n/a	GoodResponse	0	0.0	n/a	7	63	ISIslide	AvoidedLoss	True
605.823	0.25	Win2	0.6462	0.001	Yes	3.127	0.023	n/a	GoodResponse	1	n/a	n/a	8	64	Cue	Win	True
606.074	4.15	Win2	0.6462	0.0	Yes	3.127	0.001	n/a	GoodResponse	1	n/a	n/a	8	64	Fixation	Win	True
610.22	0.28	Win2	0.6462	0.003	Yes	3.127	-0.003	2.0	GoodResponse	1	0.2	609.42	8	64	Target	Win	True
610.42	0.3	Win2	0.6462	0.003	Yes	3.127	-0.003	2.0	GoodResponse	1	0.2	n/a	8	64	ButtonPress	Win	True
610.504	0.42	Win2	0.6462	n/a	Yes	3.127	n/a	n/a	GoodResponse	1	n/a	n/a	8	64	Blank	Win	True
610.922	1.45	Win2	0.6462	n/a	Yes	3.127	n/a	5.0	GoodResponse	1	0.018	609.94	8	64	Feedback	Win	True
612.376	3.127	Win2	0.6462	n/a	Yes	3.127	n/a	n/a	GoodResponse	1	0.0	n/a	8	64	ISIslide	Win	True
615.519	0.25	Control	0.6364	0.0	No	2.781	0.019	n/a	NoResponse	0	n/a	n/a	8	65	Cue	Neutral	True
615.77	4.0	Control	0.6364	0.0	No	2.781	0.001	n/a	NoResponse	0	n/a	n/a	8	65	Fixation	Neutral	True
619.765	0.29	Control	0.6364	0.004	No	2.781	-0.004	2.0	NoResponse	0	0.343	619.108	8	65	Target	Neutral	True
620.066	0.41	Control	0.6364	n/a	No	2.781	n/a	n/a	NoResponse	0	n/a	n/a	8	65	Blank	Neutral	True
620.108	0.3	Control	0.6364	0.004	No	2.781	-0.004	2.0	NoResponse	0	0.343	n/a	8	65	ButtonPress	Neutral	True
620.467	1.45	Control	0.6364	n/a	No	2.781	n/a	5.0	NoResponse	0	0.034	619.501	8	65	Feedback	Neutral	True
621.922	2.781	Control	0.6364	n/a	No	2.781	n/a	n/a	NoResponse	0	0.0	n/a	8	65	ISIslide	Neutral	True
624.73	0.25	Win2	0.6418	0.0	Yes	2.77	0.03	n/a	GoodResponse	1	n/a	n/a	9	66	Cue	Win	True
624.981	3.9	Win2	0.6418	0.0	Yes	2.77	0.001	n/a	GoodResponse	1	n/a	n/a	9	66	Fixation	Win	True
628.876	0.3	Win2	0.6418	0.004	Yes	2.77	-0.004	2.0	GoodResponse	1	0.212	628.088	9	66	Target	Win	True
629.088	0.3	Win2	0.6418	0.004	Yes	2.77	-0.004	2.0	GoodResponse	1	0.212	n/a	9	66	ButtonPress	Win	True
629.177	0.4	Win2	0.6418	n/a	Yes	2.77	n/a	n/a	GoodResponse	1	n/a	n/a	9	66	Blank	Win	True
629.578	1.45	Win2	0.6418	n/a	Yes	2.77	n/a	5.0	GoodResponse	1	0.045	628.623	9	66	Feedback	Win	True
631.032	2.77	Win2	0.6418	n/a	Yes	2.77	n/a	n/a	GoodResponse	1	0.0	n/a	9	66	ISIslide	Win	True
633.824	0.25	Control	0.6324000000000001	0.0	No	2.726	0.024	n/a	NoResponse	0	n/a	n/a	9	67	Cue	Neutral	True
634.075	3.95	Control	0.6324000000000001	0.0	No	2.726	0.001	n/a	NoResponse	0	n/a	n/a	9	67	Fixation	Neutral	True
638.02	0.31	Control	0.6324000000000001	0.004	No	2.726	-0.004	2.0	NoResponse	0	0.594	637.614	9	67	Target	Neutral	True
638.337	0.39	Control	0.6324000000000001	n/a	No	2.726	n/a	n/a	NoResponse	0	n/a	n/a	9	67	Blank	Neutral	True
638.614	0.3	Control	0.6324000000000001	0.004	No	2.726	-0.004	2.0	NoResponse	0	0.594	n/a	9	67	ButtonPress	Neutral	True
638.722	1.45	Control	0.6324000000000001	n/a	No	2.726	n/a	5.0	NoResponse	0	0.023	637.745	9	67	Feedback	Neutral	True
640.176	2.726	Control	0.6324000000000001	n/a	No	2.726	n/a	n/a	NoResponse	0	0.0	n/a	9	67	ISIslide	Neutral	True
642.918	0.25	Win2	0.6377	0.0	Yes	3.082	0.018	n/a	GoodResponse	1	n/a	n/a	10	68	Cue	Win	True
643.168	4.0	Win2	0.6377	0.0	Yes	3.082	0.0	n/a	GoodResponse	1	n/a	n/a	10	68	Fixation	Win	True
647.164	0.32	Win2	0.6377	0.004	Yes	3.082	-0.004	2.0	GoodResponse	1	0.208	646.372	10	68	Target	Win	True
647.372	0.3	Win2	0.6377	0.004	Yes	3.082	-0.004	2.0	GoodResponse	1	0.208	n/a	10	68	ButtonPress	Win	True
647.498	0.38	Win2	0.6377	n/a	Yes	3.082	n/a	n/a	GoodResponse	1	n/a	n/a	10	68	Blank	Win	True
647.866	1.45	Win2	0.6377	n/a	Yes	3.082	n/a	5.0	GoodResponse	1	0.001	646.867	10	68	Feedback	Win	True
649.32	3.082	Win2	0.6377	n/a	Yes	3.082	n/a	n/a	GoodResponse	1	0.0	n/a	10	68	ISIslide	Win	True
652.429	0.25	Win2	0.6429	0.0	Yes	3.221	0.029	n/a	GoodResponse	1	n/a	n/a	11	69	Cue	Win	True
652.68	3.95	Win2	0.6429	0.0	Yes	3.221	0.001	n/a	GoodResponse	1	n/a	n/a	11	69	Fixation	Win	True
656.625	0.33	Win2	0.6429	0.004	Yes	3.221	-0.004	2.0	GoodResponse	1	0.186	655.811	11	69	Target	Win	True
656.811	0.3	Win2	0.6429	0.004	Yes	3.221	-0.004	2.0	GoodResponse	1	0.186	n/a	11	69	ButtonPress	Win	True
656.96	0.37	Win2	0.6429	n/a	Yes	3.221	n/a	n/a	GoodResponse	1	n/a	n/a	11	69	Blank	Win	True
657.327	1.45	Win2	0.6429	n/a	Yes	3.221	n/a	5.0	GoodResponse	1	0.006	656.333	11	69	Feedback	Win	True
658.782	3.221	Win2	0.6429	n/a	Yes	3.221	n/a	n/a	GoodResponse	1	0.0	n/a	11	69	ISIslide	Win	True
662.025	0.25	Lose2	0.6479	0.0	Yes	3.025	0.025	n/a	GoodResponse	0	n/a	n/a	11	70	Cue	AvoidedLoss	True
662.275	4.05	Lose2	0.6479	0.0	Yes	3.025	0.0	n/a	GoodResponse	0	n/a	n/a	11	70	Fixation	AvoidedLoss	True
666.321	0.34	Lose2	0.6479	0.004	Yes	3.025	-0.004	2.0	GoodResponse	0	0.23	665.551	11	70	Target	AvoidedLoss	True
666.551	0.3	Lose2	0.6479	0.004	Yes	3.025	-0.004	2.0	GoodResponse	0	0.23	n/a	11	70	ButtonPress	AvoidedLoss	True
666.672	0.36	Lose2	0.6479	n/a	Yes	3.025	n/a	n/a	GoodResponse	0	n/a	n/a	11	70	Blank	AvoidedLoss	True
667.023	1.45	Lose2	0.6479	n/a	Yes	3.025	n/a	5.0	GoodResponse	0	0.014	666.037	11	70	Feedback	AvoidedLoss	True
668.477	3.025	Lose2	0.6479	n/a	Yes	3.025	n/a	n/a	GoodResponse	0	0.0	n/a	11	70	ISIslide	AvoidedLoss	True
671.52	0.25	Win2	0.6528	0.0	Yes	2.73	0.02	n/a	GoodResponse	1	n/a	n/a	12	71	Cue	Win	True
671.77	4.05	Win2	0.6528	0.001	Yes	2.73	0.0	n/a	GoodResponse	1	n/a	n/a	12	71	Fixation	Win	True
675.816	0.35	Win2	0.6528	0.004	Yes	2.73	-0.004	2.0	GoodResponse	1	0.197	675.013	12	71	Target	Win	True
676.013	0.3	Win2	0.6528	0.004	Yes	2.73	-0.004	2.0	GoodResponse	1	0.197	n/a	12	71	ButtonPress	Win	True
676.167	0.35	Win2	0.6528	n/a	Yes	2.73	n/a	n/a	GoodResponse	1	n/a	n/a	12	71	Blank	Win	True
676.518	1.45	Win2	0.6528	n/a	Yes	2.73	n/a	5.0	GoodResponse	1	0.031	675.549	12	71	Feedback	Win	True
677.972	2.73	Win2	0.6528	n/a	Yes	2.73	n/a	n/a	GoodResponse	1	0.0	n/a	12	71	ISIslide	Win	True
680.731	0.25	Win2	0.6575	0.0	Yes	2.769	0.031	n/a	GoodResponse	1	n/a	n/a	13	72	Cue	Win	True
680.981	4.1	Win2	0.6575	0.0	Yes	2.769	0.0	n/a	GoodResponse	1	n/a	n/a	13	72	Fixation	Win	True
685.077	0.36	Win2	0.6575	0.004	Yes	2.769	-0.004	2.0	GoodResponse	1	0.208	684.285	13	72	Target	Win	True
685.285	0.3	Win2	0.6575	0.004	Yes	2.769	-0.004	2.0	GoodResponse	1	0.208	n/a	13	72	ButtonPress	Win	True
685.445	0.34	Win2	0.6575	n/a	Yes	2.769	n/a	n/a	GoodResponse	1	n/a	n/a	13	72	Blank	Win	True
685.779	1.45	Win2	0.6575	n/a	Yes	2.769	n/a	5.0	GoodResponse	1	0.038	684.817	13	72	Feedback	Win	True
687.233	2.769	Win2	0.6575	n/a	Yes	2.769	n/a	n/a	GoodResponse	1	0.0	n/a	13	72	ISIslide	Win	True
690.025	0.25	Win2	0.6622	0.0	Yes	2.675	0.025	n/a	GoodResponse	1	n/a	n/a	14	73	Cue	Win	True
690.276	4.0	Win2	0.6622	0.0	Yes	2.675	0.001	n/a	GoodResponse	1	n/a	n/a	14	73	Fixation	Win	True
694.271	0.36	Win2	0.6622	0.004	Yes	2.675	-0.004	2.0	GoodResponse	1	0.217	693.488	14	73	Target	Win	True
694.488	0.3	Win2	0.6622	0.004	Yes	2.675	-0.004	2.0	GoodResponse	1	0.217	n/a	14	73	ButtonPress	Win	True
694.639	0.34	Win2	0.6622	n/a	Yes	2.675	n/a	n/a	GoodResponse	1	n/a	n/a	14	73	Blank	Win	True
694.973	1.45	Win2	0.6622	n/a	Yes	2.675	n/a	5.0	GoodResponse	1	0.015	693.988	14	73	Feedback	Win	True
696.427	2.675	Win2	0.6622	n/a	Yes	2.675	n/a	n/a	GoodResponse	1	0.0	n/a	14	73	ISIslide	Win	True
699.119	0.25	Lose2	0.6667000000000001	0.0	Yes	2.631	0.019	n/a	GoodResponse	0	n/a	n/a	14	74	Cue	AvoidedLoss	True
699.37	4.05	Lose2	0.6667000000000001	0.0	Yes	2.631	0.001	n/a	GoodResponse	0	n/a	n/a	14	74	Fixation	AvoidedLoss	True
703.415	0.36	Lose2	0.6667000000000001	0.004	Yes	2.631	-0.004	2.0	GoodResponse	0	0.185	702.6	14	74	Target	AvoidedLoss	True
703.6	0.3	Lose2	0.6667000000000001	0.004	Yes	2.631	-0.004	2.0	GoodResponse	0	0.185	n/a	14	74	ButtonPress	AvoidedLoss	True
703.783	0.34	Lose2	0.6667000000000001	n/a	Yes	2.631	n/a	n/a	GoodResponse	0	n/a	n/a	14	74	Blank	AvoidedLoss	True
704.117	1.45	Lose2	0.6667000000000001	n/a	Yes	2.631	n/a	5.0	GoodResponse	0	0.042	703.159	14	74	Feedback	AvoidedLoss	True
705.571	2.631	Lose2	0.6667000000000001	n/a	Yes	2.631	n/a	n/a	GoodResponse	0	0.0	n/a	14	74	ISIslide	AvoidedLoss	True
708.229	0.25	Lose2	0.6711	0.0	Yes	2.921	0.029	n/a	GoodResponse	0	n/a	n/a	14	75	Cue	AvoidedLoss	True
708.48	3.95	Lose2	0.6711	0.0	Yes	2.921	0.001	n/a	GoodResponse	0	n/a	n/a	14	75	Fixation	AvoidedLoss	True
712.425	0.35	Lose2	0.6711	0.004	Yes	2.921	-0.004	2.0	GoodResponse	0	0.252	711.677	14	75	Target	AvoidedLoss	True
712.677	0.3	Lose2	0.6711	0.004	Yes	2.921	-0.004	2.0	GoodResponse	0	0.252	n/a	14	75	ButtonPress	AvoidedLoss	True
712.776	0.35	Lose2	0.6711	n/a	Yes	2.921	n/a	n/a	GoodResponse	0	n/a	n/a	14	75	Blank	AvoidedLoss	True
713.127	1.45	Lose2	0.6711	n/a	Yes	2.921	n/a	5.0	GoodResponse	0	0.007	712.134	14	75	Feedback	AvoidedLoss	True
714.582	2.921	Lose2	0.6711	n/a	Yes	2.921	n/a	n/a	GoodResponse	0	0.0	n/a	14	75	ISIslide	AvoidedLoss	True
717.524	0.25	Control	0.6753	0.0	Yes	3.226	0.024	n/a	GoodResponse	0	n/a	n/a	14	76	Cue	Neutral	True
717.775	4.05	Control	0.6753	0.0	Yes	3.226	0.001	n/a	GoodResponse	0	n/a	n/a	14	76	Fixation	Neutral	True
721.82	0.34	Control	0.6753	0.004	Yes	3.226	-0.004	2.0	GoodResponse	0	0.226	721.046	14	76	Target	Neutral	True
722.046	0.3	Control	0.6753	0.004	Yes	3.226	-0.004	2.0	GoodResponse	0	0.226	n/a	14	76	ButtonPress	Neutral	True
722.171	0.36	Control	0.6753	n/a	Yes	3.226	n/a	n/a	GoodResponse	0	n/a	n/a	14	76	Blank	Neutral	True
722.522	1.45	Control	0.6753	n/a	Yes	3.226	n/a	5.0	GoodResponse	0	0.026	721.548	14	76	Feedback	Neutral	True
723.976	3.226	Control	0.6753	n/a	Yes	3.226	n/a	n/a	GoodResponse	0	0.0	n/a	14	76	ISIslide	Neutral	True
727.219	0.25	Lose2	0.6795	0.0	Yes	2.581	0.019	n/a	GoodResponse	0	n/a	n/a	14	77	Cue	AvoidedLoss	True
727.47	3.95	Lose2	0.6795	0.0	Yes	2.581	0.001	n/a	GoodResponse	0	n/a	n/a	14	77	Fixation	AvoidedLoss	True
731.415	0.33	Lose2	0.6795	0.004	Yes	2.581	-0.004	2.0	GoodResponse	0	0.236	730.651	14	77	Target	AvoidedLoss	True
731.651	0.3	Lose2	0.6795	0.004	Yes	2.581	-0.004	2.0	GoodResponse	0	0.236	n/a	14	77	ButtonPress	AvoidedLoss	True
731.75	0.37	Lose2	0.6795	n/a	Yes	2.581	n/a	n/a	GoodResponse	0	n/a	n/a	14	77	Blank	AvoidedLoss	True
732.117	1.45	Lose2	0.6795	n/a	Yes	2.581	n/a	5.0	GoodResponse	0	0.041	731.158	14	77	Feedback	AvoidedLoss	True
733.572	2.581	Lose2	0.6795	n/a	Yes	2.581	n/a	n/a	GoodResponse	0	0.0	n/a	14	77	ISIslide	AvoidedLoss	True
