onset	duration	cue_type	current_mean_accuracy	duration_error	is_hit	isi_adjusted	onset_delay	response	response_type	reward	rt	rt_time	total_reward	trial_number	trial_phase	trial_type	one_press
11.097	0.25	Control	1.0	0.0	Yes	2.953	-0.003	n/a	GoodResponse	0	n/a	n/a	0	0	Cue	Neutral	True
11.348	3.85	Control	1.0	0.0	Yes	2.953	0.001	n/a	GoodResponse	0	n/a	n/a	0	0	Fixation	Neutral	True
15.209	0.4	Control	1.0	0.0	Yes	2.953	0.012	4.0	GoodResponse	0	0.221	14.43	0	0	Target	Neutral	True
15.43	0.3	Control	1.0	0.0	Yes	2.953	0.012	4.0	GoodResponse	0	0.221	n/a	0	0	ButtonPress	Neutral	True
15.594	0.3	Control	1.0	n/a	Yes	2.953	n/a	n/a	GoodResponse	0	n/a	n/a	0	0	Blank	Neutral	True
15.895	1.45	Control	1.0	n/a	Yes	2.953	n/a	5.0	GoodResponse	0	0.031	14.926	0	0	Feedback	Neutral	True
17.349	2.953	Control	1.0	n/a	Yes	2.953	n/a	n/a	GoodResponse	0	0.0	n/a	0	0	ISIslide	Neutral	True
20.324	0.25	Lose2	1.0	0.001	Yes	2.776	0.024	n/a	GoodResponse	0	n/a	n/a	0	1	Cue	AvoidedLoss	True
20.575	4.0	Lose2	1.0	0.0	Yes	2.776	0.001	n/a	GoodResponse	0	n/a	n/a	0	1	Fixation	AvoidedLoss	True
24.571	0.39	Lose2	1.0	0.003	Yes	2.776	-0.003	4.0	GoodResponse	0	0.183	23.754	0	1	Target	AvoidedLoss	True
24.754	0.3	Lose2	1.0	0.003	Yes	2.776	-0.003	4.0	GoodResponse	0	0.183	n/a	0	1	ButtonPress	AvoidedLoss	True
24.972	0.31	Lose2	1.0	n/a	Yes	2.776	n/a	n/a	GoodResponse	0	n/a	n/a	0	1	Blank	AvoidedLoss	True
25.273	1.45	Lose2	1.0	n/a	Yes	2.776	n/a	5.0	GoodResponse	0	0.018	24.291	0	1	Feedback	AvoidedLoss	True
26.727	2.776	Lose2	1.0	n/a	Yes	2.776	n/a	n/a	GoodResponse	0	0.0	n/a	0	1	ISIslide	AvoidedLoss	True
29.519	0.25	Control	1.0	0.0	Yes	2.581	0.019	n/a	GoodResponse	0	n/a	n/a	0	2	Cue	Neutral	True
29.769	4.1	Control	1.0	0.0	Yes	2.581	0.0	n/a	GoodResponse	0	n/a	n/a	0	2	Fixation	Neutral	True
33.865	0.38	Control	1.0	0.004	Yes	2.581	-0.004	4.0	GoodResponse	0	0.266	33.131	0	2	Target	Neutral	True
34.131	0.3	Control	1.0	0.004	Yes	2.581	-0.004	4.0	GoodResponse	0	0.266	n/a	0	2	ButtonPress	Neutral	True
34.25	0.32	Control	1.0	n/a	Yes	2.581	n/a	n/a	GoodResponse	0	n/a	n/a	0	2	Blank	Neutral	True
34.567	1.45	Control	1.0	n/a	Yes	2.581	n/a	5.0	GoodResponse	0	0.041	33.608	0	2	Feedback	Neutral	True
36.021	2.581	Control	1.0	n/a	Yes	2.581	n/a	n/a	GoodResponse	0	0.0	n/a	0	2	ISIslide	Neutral	True
38.629	0.25	Win2	1.0	0.0	Yes	2.821	0.029	n/a	GoodResponse	1	n/a	n/a	1	3	Cue	Win	True
38.88	3.95	Win2	1.0	0.0	Yes	2.821	0.001	n/a	GoodResponse	1	n/a	n/a	1	3	Fixation	Win	True
42.825	0.37	Win2	1.0	0.004	Yes	2.821	-0.004	4.0	GoodResponse	1	0.268	42.093	1	3	Target	Win	True
43.093	0.3	Win2	1.0	0.004	Yes	2.821	-0.004	4.0	GoodResponse	1	0.268	n/a	1	3	ButtonPress	Win	True
43.21	0.33	Win2	1.0	n/a	Yes	2.821	n/a	n/a	GoodResponse	1	n/a	n/a	1	3	Blank	Win	True
43.527	1.45	Win2	1.0	n/a	Yes	2.821	n/a	5.0	GoodResponse	1	0.008	42.535	1	3	Feedback	Win	True
44.982	2.821	Win2	1.0	n/a	Yes	2.821	n/a	n/a	GoodResponse	1	0.0	n/a	1	3	ISIslide	Win	True
47.823	0.25	Win2	0.8	0.001	No	3.277	0.023	n/a	PrematurePress	0	n/a	n/a	1	4	Cue	MissedWin	False
48.074	4.0	Win2	0.8	0.0	No	3.277	0.001	4.0	PrematurePress	0	3.742	50.816	1	4	Fixation	MissedWin	False
51.816	0.3	Win2	0.8	0.0	No	3.277	0.001	4.0	PrematurePress	0	3.742	n/a	1	4	ButtonPress	MissedWin	False
52.07	0.36	Win2	0.8	0.003	No	3.277	-0.003	4.0	PrematurePress	0	0.008	51.078	1	4	Target	MissedWin	False
52.078	0.3	Win2	0.8	0.003	No	3.277	-0.003	4.0	PrematurePress	0	0.008	n/a	1	4	ButtonPress	MissedWin	False
52.437	0.34	Win2	0.8	n/a	No	3.277	n/a	n/a	PrematurePress	0	n/a	n/a	1	4	Blank	MissedWin	False
52.772	1.45	Win2	0.8	n/a	No	3.277	n/a	5.0	PrematurePress	0	0.032	51.804	1	4	Feedback	MissedWin	False
54.226	3.277	Win2	0.8	n/a	No	3.277	n/a	n/a	PrematurePress	0	0.0	n/a	1	4	ISIslide	MissedWin	False
57.519	0.25	Win2	0.8332999999999999	0.0	Yes	2.781	0.019	n/a	GoodResponse	1	n/a	n/a	2	5	Cue	Win	True
57.77	4.0	Win2	0.8332999999999999	0.0	Yes	2.781	0.001	n/a	GoodResponse	1	n/a	n/a	2	5	Fixation	Win	True
61.765	0.35	Win2	0.8332999999999999	0.004	Yes	2.781	-0.004	4.0	GoodResponse	1	0.308	61.073	2	5	Target	Win	True
62.073	0.3	Win2	0.8332999999999999	0.004	Yes	2.781	-0.004	4.0	GoodResponse	1	0.308	n/a	2	5	ButtonPress	Win	True
62.116	0.35	Win2	0.8332999999999999	n/a	Yes	2.781	n/a	n/a	GoodResponse	1	n/a	n/a	2	5	Blank	Win	True
62.467	1.45	Win2	0.8332999999999999	n/a	Yes	2.781	n/a	5.0	GoodResponse	1	0.044	61.511	2	5	Feedback	Win	True
63.922	2.781	Win2	0.8332999999999999	n/a	Yes	2.781	n/a	n/a	GoodResponse	1	0.0	n/a	2	5	ISIslide	Win	True
66.73	0.25	Lose2	0.8571	0.0	Yes	2.72	0.03	n/a	GoodResponse	0	n/a	n/a	2	6	Cue	AvoidedLoss	True
66.981	3.95	Lose2	0.8571	0.0	Yes	2.72	0.001	n/a	GoodResponse	0	n/a	n/a	2	6	Fixation	AvoidedLoss	True
70.926	0.34	Lose2	0.8571	0.004	Yes	2.72	-0.004	4.0	GoodResponse	0	0.298	70.224	2	6	Target	AvoidedLoss	True
71.224	0.3	Lose2	0.8571	0.004	Yes	2.72	-0.004	4.0	GoodResponse	0	0.298	n/a	2	6	ButtonPress	AvoidedLoss	True
71.277	0.36	Lose2	0.8571	n/a	Yes	2.72	n/a	n/a	GoodResponse	0	n/a	n/a	2	6	Blank	AvoidedLoss	True
71.628	1.45	Lose2	0.8571	n/a	Yes	2.72	n/a	5.0	GoodResponse	0	0.008	70.636	2	6	Feedback	AvoidedLoss	True
73.082	2.72	Lose2	0.8571	n/a	Yes	2.72	n/a	n/a	GoodResponse	0	0.0	n/a	2	6	ISIslide	AvoidedLoss	True
75.824	0.25	Lose2	0.875	0.0	Yes	4.026	0.024	n/a	GoodResponse	0	n/a	n/a	2	7	Cue	AvoidedLoss	True
76.075	4.05	Lose2	0.875	0.0	Yes	4.026	0.001	n/a	GoodResponse	0	n/a	n/a	2	7	Fixation	AvoidedLoss	True
80.12	0.33	Lose2	0.875	0.004	Yes	4.026	-0.004	4.0	GoodResponse	0	0.223	79.343	2	7	Target	AvoidedLoss	True
80.343	0.3	Lose2	0.875	0.004	Yes	4.026	-0.004	4.0	GoodResponse	0	0.223	n/a	2	7	ButtonPress	AvoidedLoss	True
80.454	0.37	Lose2	0.875	n/a	Yes	4.026	n/a	n/a	GoodResponse	0	n/a	n/a	2	7	Blank	AvoidedLoss	True
80.822	1.45	Lose2	0.875	n/a	Yes	4.026	n/a	5.0	GoodResponse	0	0.03	79.852	2	7	Feedback	AvoidedLoss	True
82.277	4.026	Lose2	0.875	n/a	Yes	4.026	n/a	n/a	GoodResponse	0	0.0	n/a	2	7	ISIslide	AvoidedLoss	True
86.322	0.25	Lose2	0.8889	0.0	Yes	3.028	0.022	n/a	GoodResponse	0	n/a	n/a	2	8	Cue	AvoidedLoss	True
86.573	3.95	Lose2	0.8889	0.0	Yes	3.028	0.001	n/a	GoodResponse	0	n/a	n/a	2	8	Fixation	AvoidedLoss	True
90.518	0.32	Lose2	0.8889	0.004	Yes	3.028	-0.004	4.0	GoodResponse	0	0.205	89.723	2	8	Target	AvoidedLoss	True
90.723	0.3	Lose2	0.8889	0.004	Yes	3.028	-0.004	4.0	GoodResponse	0	0.205	n/a	2	8	ButtonPress	AvoidedLoss	True
90.852	0.38	Lose2	0.8889	n/a	Yes	3.028	n/a	n/a	GoodResponse	0	n/a	n/a	2	8	Blank	AvoidedLoss	True
91.22	1.45	Lose2	0.8889	n/a	Yes	3.028	n/a	5.0	GoodResponse	0	0.022	90.242	2	8	Feedback	AvoidedLoss	True
92.674	3.028	Lose2	0.8889	n/a	Yes	3.028	n/a	n/a	GoodResponse	0	0.0	n/a	2	8	ISIslide	AvoidedLoss	True
95.717	0.25	Lose2	0.8	0.0	No	3.133	0.017	n/a	NoResponse	-1	n/a	n/a	1	9	Cue	Loss	True
95.968	3.95	Lose2	0.8	0.0	No	3.133	0.001	n/a	NoResponse	-1	n/a	n/a	1	9	Fixation	Loss	True
99.913	0.31	Lose2	0.8	0.004	No	3.133	-0.004	4.0	NoResponse	-1	0.358	99.271	1	9	Target	Loss	True
100.23	0.39	Lose2	0.8	n/a	No	3.133	n/a	n/a	NoResponse	-1	n/a	n/a	1	9	Blank	Loss	True
100.271	0.3	Lose2	0.8	0.004	No	3.133	-0.004	4.0	NoResponse	-1	0.358	n/a	1	9	ButtonPress	Loss	True
100.615	1.45	Lose2	0.8	n/a	No	3.133	n/a	5.0	NoResponse	-1	0.042	99.657	1	9	Feedback	Loss	True
102.069	3.133	Lose2	0.8	n/a	No	3.133	n/a	n/a	NoResponse	-1	0.0	n/a	1	9	ISIslide	Loss	True
105.229	0.25	Control	0.7273000000000001	0.0	No	3.271	0.029	n/a	NoResponse	0	n/a	n/a	1	10	Cue	Neutral	False
105.479	4.0	Control	0.7273000000000001	0.0	No	3.271	0.0	n/a	NoResponse	0	n/a	n/a	1	10	Fixation	Neutral	False
109.475	0.3	Control	0.7273000000000001	0.004	No	3.271	-0.004	n/a	NoResponse	0	n/a	n/a	1	10	Target	Neutral	False
109.776	0.4	Control	0.7273000000000001	n/a	No	3.271	n/a	n/a	NoResponse	0	n/a	n/a	1	10	Blank	Neutral	False
110.177	1.45	Control	0.7273000000000001	n/a	No	3.271	n/a	5.0	NoResponse	0	0.041	109.218	1	10	Feedback	Neutral	False
111.631	3.271	Control	0.7273000000000001	n/a	No	3.271	n/a	n/a	NoResponse	0	0.0	n/a	1	10	ISIslide	Neutral	False
114.924	0.25	Lose2	0.75	0.0	Yes	2.726	0.024	n/a	GoodResponse	0	n/a	n/a	1	11	Cue	AvoidedLoss	True
115.175	4.05	Lose2	0.75	0.0	Yes	2.726	0.001	n/a	GoodResponse	0	n/a	n/a	1	11	Fixation	AvoidedLoss	True
119.221	0.29	Lose2	0.75	0.003	Yes	2.726	-0.003	4.0	GoodResponse	0	0.183	118.404	1	11	Target	AvoidedLoss	True
119.404	0.3	Lose2	0.75	0.003	Yes	2.726	-0.003	4.0	GoodResponse	0	0.183	n/a	1	11	ButtonPress	AvoidedLoss	True
119.521	0.41	Lose2	0.75	n/a	Yes	2.726	n/a	n/a	GoodResponse	0	n/a	n/a	1	11	Blank	AvoidedLoss	True
119.923	1.45	Lose2	0.75	n/a	Yes	2.726	n/a	5.0	GoodResponse	0	0.007	118.93	1	11	Feedback	AvoidedLoss	True
121.377	2.726	Lose2	0.75	n/a	Yes	2.726	n/a	n/a	GoodResponse	0	0.0	n/a	1	11	ISIslide	AvoidedLoss	True
124.119	0.25	Control	0.7692	0.0	Yes	2.981	0.019	n/a	GoodResponse	0	n/a	n/a	1	12	Cue	Neutral	True
124.369	3.9	Control	0.7692	0.0	Yes	2.981	0.0	n/a	GoodResponse	0	n/a	n/a	1	12	Fixation	Neutral	True
128.281	0.28	Control	0.7692	0.0	Yes	2.981	0.012	4.0	GoodResponse	0	0.243	127.524	1	12	Target	Neutral	True
128.524	0.3	Control	0.7692	0.0	Yes	2.981	0.012	4.0	GoodResponse	0	0.243	n/a	1	12	ButtonPress	Neutral	True
128.548	0.42	Control	0.7692	n/a	Yes	2.981	n/a	n/a	GoodResponse	0	n/a	n/a	1	12	Blank	Neutral	True
128.966	1.45	Control	0.7692	n/a	Yes	2.981	n/a	5.0	GoodResponse	0	0.032	127.998	1	12	Feedback	Neutral	True
130.421	2.981	Control	0.7692	n/a	Yes	2.981	n/a	n/a	GoodResponse	0	0.0	n/a	1	12	ISIslide	Neutral	True
133.43	0.25	Control	0.7857	0.0	Yes	2.77	0.03	n/a	GoodResponse	0	n/a	n/a	1	13	Cue	Neutral	True
133.68	4.0	Control	0.7857	0.001	Yes	2.77	0.0	n/a	GoodResponse	0	n/a	n/a	1	13	Fixation	Neutral	True
137.676	0.27	Control	0.7857	0.004	Yes	2.77	-0.004	4.0	GoodResponse	0	0.243	136.919	1	13	Target	Neutral	True
137.919	0.3	Control	0.7857	0.004	Yes	2.77	-0.004	4.0	GoodResponse	0	0.243	n/a	1	13	ButtonPress	Neutral	True
137.96	0.43	Control	0.7857	n/a	Yes	2.77	n/a	n/a	GoodResponse	0	n/a	n/a	1	13	Blank	Neutral	True
138.378	1.45	Control	0.7857	n/a	Yes	2.77	n/a	5.0	GoodResponse	0	0.034	137.412	1	13	Feedback	Neutral	True
139.832	2.77	Control	0.7857	n/a	Yes	2.77	n/a	n/a	GoodResponse	0	0.0	n/a	1	13	ISIslide	Neutral	True
142.624	0.25	Win2	0.8	0.0	Yes	2.676	0.024	n/a	GoodResponse	1	n/a	n/a	2	14	Cue	Win	True
142.875	4.1	Win2	0.8	0.0	Yes	2.676	0.001	n/a	GoodResponse	1	n/a	n/a	2	14	Fixation	Win	True
146.97	0.26	Win2	0.8	0.004	Yes	2.676	-0.004	4.0	GoodResponse	1	0.196	146.166	2	14	Target	Win	True
147.166	0.3	Win2	0.8	0.004	Yes	2.676	-0.004	4.0	GoodResponse	1	0.196	n/a	2	14	ButtonPress	Win	True
147.238	0.44	Win2	0.8	n/a	Yes	2.676	n/a	n/a	GoodResponse	1	n/a	n/a	2	14	Blank	Win	True
147.672	1.45	Win2	0.8	n/a	Yes	2.676	n/a	5.0	GoodResponse	1	0.009	146.681	2	14	Feedback	Win	True
149.127	2.676	Win2	0.8	n/a	Yes	2.676	n/a	n/a	GoodResponse	1	0.0	n/a	2	14	ISIslide	Win	True
151.818	0.25	Control	0.75	0.0	No	2.982	0.018	n/a	NoResponse	0	n/a	n/a	2	15	Cue	Neutral	True
152.069	4.0	Control	0.75	0.0	No	2.982	0.001	n/a	NoResponse	0	n/a	n/a	2	15	Fixation	Neutral	True
156.064	0.25	Control	0.75	0.004	No	2.982	-0.004	4.0	NoResponse	0	0.325	155.389	2	15	Target	Neutral	True
156.315	0.45	Control	0.75	n/a	No	2.982	n/a	n/a	NoResponse	0	n/a	n/a	2	15	Blank	Neutral	True
156.389	0.3	Control	0.75	0.004	No	2.982	-0.004	4.0	NoResponse	0	0.325	n/a	2	15	ButtonPress	Neutral	True
156.766	1.45	Control	0.75	n/a	No	2.982	n/a	5.0	NoResponse	0	0.037	155.803	2	15	Feedback	Neutral	True
158.221	2.982	Control	0.75	n/a	No	2.982	n/a	n/a	NoResponse	0	0.0	n/a	2	15	ISIslide	Neutral	True
161.23	0.25	Win2	0.7646999999999999	0.0	Yes	2.87	0.03	n/a	GoodResponse	1	n/a	n/a	3	16	Cue	Win	True
161.48	4.0	Win2	0.7646999999999999	0.0	Yes	2.87	0.0	n/a	GoodResponse	1	n/a	n/a	3	16	Fixation	Win	True
165.476	0.24	Win2	0.7646999999999999	0.004	Yes	2.87	-0.004	4.0	GoodResponse	1	0.179	164.655	3	16	Target	Win	True
165.655	0.3	Win2	0.7646999999999999	0.004	Yes	2.87	-0.004	4.0	GoodResponse	1	0.179	n/a	3	16	ButtonPress	Win	True
165.726	0.46	Win2	0.7646999999999999	n/a	Yes	2.87	n/a	n/a	GoodResponse	1	n/a	n/a	3	16	Blank	Win	True
166.178	1.45	Win2	0.7646999999999999	n/a	Yes	2.87	n/a	5.0	GoodResponse	1	0.04	165.218	3	16	Feedback	Win	True
167.632	2.87	Win2	0.7646999999999999	n/a	Yes	2.87	n/a	n/a	GoodResponse	1	0.0	n/a	3	16	ISIslide	Win	True
170.524	0.25	Lose2	0.7778	0.0	Yes	2.726	0.024	n/a	GoodResponse	0	n/a	n/a	3	17	Cue	AvoidedLoss	True
170.775	3.95	Lose2	0.7778	0.0	Yes	2.726	0.001	n/a	GoodResponse	0	n/a	n/a	3	17	Fixation	AvoidedLoss	True
174.72	0.23	Lose2	0.7778	0.004	Yes	2.726	-0.004	4.0	GoodResponse	0	0.213	173.933	3	17	Target	AvoidedLoss	True
174.933	0.3	Lose2	0.7778	0.004	Yes	2.726	-0.004	4.0	GoodResponse	0	0.213	n/a	3	17	ButtonPress	AvoidedLoss	True
174.954	0.47	Lose2	0.7778	n/a	Yes	2.726	n/a	n/a	GoodResponse	0	n/a	n/a	3	17	Blank	AvoidedLoss	True
175.422	1.45	Lose2	0.7778	n/a	Yes	2.726	n/a	5.0	GoodResponse	0	0.014	174.436	3	17	Feedback	AvoidedLoss	True
176.876	2.726	Lose2	0.7778	n/a	Yes	2.726	n/a	n/a	GoodResponse	0	0.0	n/a	3	17	ISIslide	AvoidedLoss	True
179.618	0.25	Lose2	0.7895	0.0	Yes	2.732	0.018	n/a	GoodResponse	0	n/a	n/a	3	18	Cue	AvoidedLoss	True
179.869	4.05	Lose2	0.7895	0.0	Yes	2.732	0.001	n/a	GoodResponse	0	n/a	n/a	3	18	Fixation	AvoidedLoss	True
183.914	0.22	Lose2	0.7895	0.004	Yes	2.732	-0.004	4.0	GoodResponse	0	0.19	183.104	3	18	Target	AvoidedLoss	True
184.104	0.3	Lose2	0.7895	0.004	Yes	2.732	-0.004	4.0	GoodResponse	0	0.19	n/a	3	18	ButtonPress	AvoidedLoss	True
184.148	0.48	Lose2	0.7895	n/a	Yes	2.732	n/a	n/a	GoodResponse	0	n/a	n/a	3	18	Blank	AvoidedLoss	True
184.616	1.45	Lose2	0.7895	n/a	Yes	2.732	n/a	5.0	GoodResponse	0	0.04	183.656	3	18	Feedback	AvoidedLoss	True
186.071	2.732	Lose2	0.7895	n/a	Yes	2.732	n/a	n/a	GoodResponse	0	0.0	n/a	3	18	ISIslide	AvoidedLoss	True
188.829	0.25	Control	0.8	0.0	Yes	2.921	0.029	n/a	GoodResponse	0	n/a	n/a	3	19	Cue	Neutral	True
189.08	3.95	Control	0.8	0.0	Yes	2.921	0.001	n/a	GoodResponse	0	n/a	n/a	3	19	Fixation	Neutral	True
193.025	0.21	Control	0.8	0.004	Yes	2.921	-0.004	4.0	GoodResponse	0	0.206	192.231	3	19	Target	Neutral	True
193.231	0.3	Control	0.8	0.004	Yes	2.921	-0.004	4.0	GoodResponse	0	0.206	n/a	3	19	ButtonPress	Neutral	True
193.242	0.49	Control	0.8	n/a	Yes	2.921	n/a	n/a	GoodResponse	0	n/a	n/a	3	19	Blank	Neutral	True
193.727	1.45	Control	0.8	n/a	Yes	2.921	n/a	5.0	GoodResponse	0	0.002	192.729	3	19	Feedback	Neutral	True
195.181	2.921	Control	0.8	n/a	Yes	2.921	n/a	n/a	GoodResponse	0	0.0	n/a	3	19	ISIslide	Neutral	True
198.123	0.25	Control	0.7619	0.0	No	2.627	0.023	n/a	NoResponse	0	n/a	n/a	3	20	Cue	Neutral	True
198.374	4.05	Control	0.7619	0.0	No	2.627	0.001	n/a	NoResponse	0	n/a	n/a	3	20	Fixation	Neutral	True
202.42	0.2	Control	0.7619	0.003	No	2.627	-0.003	4.0	NoResponse	0	0.269	201.689	3	20	Target	Neutral	True
202.62	0.5	Control	0.7619	n/a	No	2.627	n/a	n/a	NoResponse	0	n/a	n/a	3	20	Blank	Neutral	True
202.689	0.3	Control	0.7619	0.003	No	2.627	-0.003	4.0	NoResponse	0	0.269	n/a	3	20	ButtonPress	Neutral	True
203.122	1.45	Control	0.7619	n/a	No	2.627	n/a	5.0	NoResponse	0	0.022	202.144	3	20	Feedback	Neutral	True
204.576	2.627	Control	0.7619	n/a	No	2.627	n/a	n/a	NoResponse	0	0.0	n/a	3	20	ISIslide	Neutral	True
207.217	0.25	Control	0.7273000000000001	0.0	No	2.783	0.017	n/a	LatePress	0	n/a	n/a	3	21	Cue	Neutral	True
207.468	4.1	Control	0.7273000000000001	0.0	No	2.783	0.001	n/a	LatePress	0	n/a	n/a	3	21	Fixation	Neutral	True
211.564	0.19	Control	0.7273000000000001	0.003	No	2.783	-0.003	4.0	LatePress	0	0.195	210.759	3	21	Target	Neutral	True
211.759	0.3	Control	0.7273000000000001	0.003	No	2.783	-0.003	4.0	LatePress	0	0.195	n/a	3	21	ButtonPress	Neutral	True
211.764	0.51	Control	0.7273000000000001	n/a	No	2.783	n/a	n/a	LatePress	0	n/a	n/a	3	21	Blank	Neutral	True
212.266	1.45	Control	0.7273000000000001	n/a	No	2.783	n/a	5.0	LatePress	0	0.049	211.315	3	21	Feedback	Neutral	True
213.72	2.783	Control	0.7273000000000001	n/a	No	2.783	n/a	n/a	LatePress	0	0.0	n/a	3	21	ISIslide	Neutral	True
216.528	0.25	Control	0.6957	0.001	No	2.772	0.028	n/a	NoResponse	0	n/a	n/a	3	22	Cue	Neutral	False
216.779	4.0	Control	0.6957	0.0	No	2.772	0.001	4.0	NoResponse	0	3.916	219.695	3	22	Fixation	Neutral	False
220.695	0.3	Control	0.6957	0.0	No	2.772	0.001	4.0	NoResponse	0	3.916	n/a	3	22	ButtonPress	Neutral	False
220.775	0.18	Control	0.6957	0.003	No	2.772	-0.003	4.0	NoResponse	0	0.217	219.992	3	22	Target	Neutral	False
220.958	0.52	Control	0.6957	n/a	No	2.772	n/a	n/a	NoResponse	0	n/a	n/a	3	22	Blank	Neutral	False
220.992	0.3	Control	0.6957	0.003	No	2.772	-0.003	4.0	NoResponse	0	0.217	n/a	3	22	ButtonPress	Neutral	False
221.477	1.45	Control	0.6957	n/a	No	2.772	n/a	5.0	NoResponse	0	0.008	220.485	3	22	Feedback	Neutral	False
222.931	2.772	Control	0.6957	n/a	No	2.772	n/a	n/a	NoResponse	0	0.0	n/a	3	22	ISIslide	Neutral	False
225.723	0.25	Control	0.6667000000000001	0.0	No	2.777	0.023	n/a	NoResponse	0	n/a	n/a	3	23	Cue	Neutral	True
225.973	3.9	Control	0.6667000000000001	0.001	No	2.777	0.0	n/a	NoResponse	0	n/a	n/a	3	23	Fixation	Neutral	True
229.885	0.17	Control	0.6667000000000001	0.0	No	2.777	0.012	4.0	NoResponse	0	0.194	229.079	3	23	Target	Neutral	True
230.052	0.53	Control	0.6667000000000001	n/a	No	2.777	n/a	n/a	NoResponse	0	n/a	n/a	3	23	Blank	Neutral	True
230.079	0.3	Control	0.6667000000000001	0.0	No	2.777	0.012	4.0	NoResponse	0	0.194	n/a	3	23	ButtonPress	Neutral	True
230.57	1.45	Control	0.6667000000000001	n/a	No	2.777	n/a	5.0	NoResponse	0	0.037	229.607	3	23	Feedback	Neutral	True
232.025	2.777	Control	0.6667000000000001	n/a	No	2.777	n/a	n/a	NoResponse	0	0.0	n/a	3	23	ISIslide	Neutral	True
234.817	0.25	Win2	0.64	0.0	No	3.133	0.017	n/a	NoResponse	0	n/a	n/a	3	24	Cue	MissedWin	True
235.067	3.95	Win2	0.64	0.0	No	3.133	0.0	n/a	NoResponse	0	n/a	n/a	3	24	Fixation	MissedWin	True
239.029	0.16	Win2	0.64	0.0	No	3.133	0.012	4.0	NoResponse	0	0.173	238.202	3	24	Target	MissedWin	True
239.18	0.54	Win2	0.64	n/a	No	3.133	n/a	n/a	NoResponse	0	n/a	n/a	3	24	Blank	MissedWin	True
239.202	0.3	Win2	0.64	0.0	No	3.133	0.012	4.0	NoResponse	0	0.173	n/a	3	24	ButtonPress	MissedWin	True
239.715	1.45	Win2	0.64	n/a	No	3.133	n/a	5.0	NoResponse	0	0.014	238.729	3	24	Feedback	MissedWin	True
241.169	3.133	Win2	0.64	n/a	No	3.133	n/a	n/a	NoResponse	0	0.0	n/a	3	24	ISIslide	MissedWin	True
244.328	0.25	Win2	0.6154	0.0	No	3.072	0.028	n/a	LatePress	0	n/a	n/a	3	25	Cue	MissedWin	True
244.579	4.0	Win2	0.6154	0.0	No	3.072	0.001	n/a	LatePress	0	n/a	n/a	3	25	Fixation	MissedWin	True
248.574	0.17	Win2	0.6154	0.004	No	3.072	-0.004	4.0	LatePress	0	0.179	247.753	3	25	Target	MissedWin	True
248.753	0.3	Win2	0.6154	0.004	No	3.072	-0.004	4.0	LatePress	0	0.179	n/a	3	25	ButtonPress	MissedWin	True
248.758	0.53	Win2	0.6154	n/a	No	3.072	n/a	n/a	LatePress	0	n/a	n/a	3	25	Blank	MissedWin	True
249.276	1.45	Win2	0.6154	n/a	No	3.072	n/a	5.0	LatePress	0	0.014	248.29	3	25	Feedback	MissedWin	True
250.731	3.072	Win2	0.6154	n/a	No	3.072	n/a	n/a	LatePress	0	0.0	n/a	3	25	ISIslide	MissedWin	True
253.823	0.25	Win2	0.5926	0.001	No	2.927	0.023	n/a	NoResponse	0	n/a	n/a	3	26	Cue	MissedWin	True
254.074	3.95	Win2	0.5926	0.0	No	2.927	0.001	n/a	NoResponse	0	n/a	n/a	3	26	Fixation	MissedWin	True
258.019	0.18	Win2	0.5926	0.004	No	2.927	-0.004	4.0	NoResponse	0	0.185	257.204	3	26	Target	MissedWin	True
258.203	0.52	Win2	0.5926	n/a	No	2.927	n/a	n/a	NoResponse	0	n/a	n/a	3	26	Blank	MissedWin	True
258.204	0.3	Win2	0.5926	0.004	No	2.927	-0.004	4.0	NoResponse	0	0.185	n/a	3	26	ButtonPress	MissedWin	True
258.721	1.45	Win2	0.5926	n/a	No	2.927	n/a	5.0	NoResponse	0	0.032	257.753	3	26	Feedback	MissedWin	True
260.176	2.927	Win2	0.5926	n/a	No	2.927	n/a	n/a	NoResponse	0	0.0	n/a	3	26	ISIslide	MissedWin	True
263.118	0.25	Lose2	0.5714	0.0	No	2.832	0.018	n/a	NoResponse	-1	n/a	n/a	2	27	Cue	Loss	True
263.369	4.05	Lose2	0.5714	0.0	No	2.832	0.001	n/a	NoResponse	-1	n/a	n/a	2	27	Fixation	Loss	True
267.414	0.19	Lose2	0.5714	0.004	No	2.832	-0.004	4.0	NoResponse	-1	0.225	266.639	2	27	Target	Loss	True
267.615	0.51	Lose2	0.5714	n/a	No	2.832	n/a	n/a	NoResponse	-1	n/a	n/a	2	27	Blank	Loss	True
267.639	0.3	Lose2	0.5714	0.004	No	2.832	-0.004	4.0	NoResponse	-1	0.225	n/a	2	27	ButtonPress	Loss	True
268.116	1.45	Lose2	0.5714	n/a	No	2.832	n/a	5.0	NoResponse	-1	0.008	267.124	2	27	Feedback	Loss	True
269.571	2.832	Lose2	0.5714	n/a	No	2.832	n/a	n/a	NoResponse	-1	0.0	n/a	2	27	ISIslide	Loss	True
272.429	0.25	Control	0.5517	0.0	No	2.821	0.029	n/a	NoResponse	0	n/a	n/a	2	28	Cue	Neutral	False
272.68	4.05	Control	0.5517	0.0	No	2.821	0.001	n/a	NoResponse	0	n/a	n/a	2	28	Fixation	Neutral	False
276.725	0.2	Control	0.5517	0.004	No	2.821	-0.004	n/a	NoResponse	0	n/a	n/a	2	28	Target	Neutral	False
276.926	0.5	Control	0.5517	n/a	No	2.821	n/a	n/a	NoResponse	0	n/a	n/a	2	28	Blank	Neutral	False
277.427	1.45	Control	0.5517	n/a	No	2.821	n/a	5.0	NoResponse	0	0.008	276.435	2	28	Feedback	Neutral	False
278.882	2.821	Control	0.5517	n/a	No	2.821	n/a	n/a	NoResponse	0	0.0	n/a	2	28	ISIslide	Neutral	False
281.724	0.25	Lose2	0.5333	0.0	No	2.826	0.024	n/a	NoResponse	-1	n/a	n/a	1	29	Cue	Loss	True
281.974	3.95	Lose2	0.5333	0.0	No	2.826	0.0	n/a	NoResponse	-1	n/a	n/a	1	29	Fixation	Loss	True
285.92	0.21	Lose2	0.5333	0.004	No	2.826	-0.004	4.0	NoResponse	-1	0.251	285.171	1	29	Target	Loss	True
286.137	0.49	Lose2	0.5333	n/a	No	2.826	n/a	n/a	NoResponse	-1	n/a	n/a	1	29	Blank	Loss	True
286.171	0.3	Lose2	0.5333	0.004	No	2.826	-0.004	4.0	NoResponse	-1	0.251	n/a	1	29	ButtonPress	Loss	True
286.622	1.45	Lose2	0.5333	n/a	No	2.826	n/a	5.0	NoResponse	-1	0.033	285.655	1	29	Feedback	Loss	True
288.076	2.826	Lose2	0.5333	n/a	No	2.826	n/a	n/a	NoResponse	-1	0.0	n/a	1	29	ISIslide	Loss	True
290.918	0.25	Win2	0.5484	0.0	Yes	2.782	0.018	n/a	GoodResponse	1	n/a	n/a	2	30	Cue	Win	True
291.169	3.9	Win2	0.5484	0.0	Yes	2.782	0.001	n/a	GoodResponse	1	n/a	n/a	2	30	Fixation	Win	True
295.064	0.22	Win2	0.5484	0.004	Yes	2.782	-0.004	4.0	GoodResponse	1	0.18	294.244	2	30	Target	Win	True
295.244	0.3	Win2	0.5484	0.004	Yes	2.782	-0.004	4.0	GoodResponse	1	0.18	n/a	2	30	ButtonPress	Win	True
295.298	0.48	Win2	0.5484	n/a	Yes	2.782	n/a	n/a	GoodResponse	1	n/a	n/a	2	30	Blank	Win	True
295.766	1.45	Win2	0.5484	n/a	Yes	2.782	n/a	5.0	GoodResponse	1	0.011	294.777	2	30	Feedback	Win	True
297.22	2.782	Win2	0.5484	n/a	Yes	2.782	n/a	n/a	GoodResponse	1	0.0	n/a	2	30	ISIslide	Win	True
300.028	0.25	Lose2	0.5625	0.001	Yes	2.822	0.028	n/a	GoodResponse	0	n/a	n/a	2	31	Cue	AvoidedLoss	True
300.279	4.05	Lose2	0.5625	0.0	Yes	2.822	0.001	n/a	GoodResponse	0	n/a	n/a	2	31	Fixation	AvoidedLoss	True
304.325	0.23	Lose2	0.5625	0.003	Yes	2.822	-0.003	4.0	GoodResponse	0	0.194	303.519	2	31	Target	AvoidedLoss	True
304.519	0.3	Lose2	0.5625	0.003	Yes	2.822	-0.003	4.0	GoodResponse	0	0.194	n/a	2	31	ButtonPress	AvoidedLoss	True
304.559	0.47	Lose2	0.5625	n/a	Yes	2.822	n/a	n/a	GoodResponse	0	n/a	n/a	2	31	Blank	AvoidedLoss	True
305.027	1.45	Lose2	0.5625	n/a	Yes	2.822	n/a	5.0	GoodResponse	0	0.018	304.045	2	31	Feedback	AvoidedLoss	True
306.481	2.822	Lose2	0.5625	n/a	Yes	2.822	n/a	n/a	GoodResponse	0	0.0	n/a	2	31	ISIslide	AvoidedLoss	True
309.323	0.25	Lose2	0.5758	0.0	Yes	2.627	0.023	n/a	GoodResponse	0	n/a	n/a	2	32	Cue	AvoidedLoss	True
309.574	4.15	Lose2	0.5758	0.0	Yes	2.627	0.001	n/a	GoodResponse	0	n/a	n/a	2	32	Fixation	AvoidedLoss	True
313.719	0.24	Lose2	0.5758	0.004	Yes	2.627	-0.004	4.0	GoodResponse	0	0.185	312.904	2	32	Target	AvoidedLoss	True
313.904	0.3	Lose2	0.5758	0.004	Yes	2.627	-0.004	4.0	GoodResponse	0	0.185	n/a	2	32	ButtonPress	AvoidedLoss	True
313.97	0.46	Lose2	0.5758	n/a	Yes	2.627	n/a	n/a	GoodResponse	0	n/a	n/a	2	32	Blank	AvoidedLoss	True
314.421	1.45	Lose2	0.5758	n/a	Yes	2.627	n/a	5.0	GoodResponse	0	0.039	313.46	2	32	Feedback	AvoidedLoss	True
315.876	2.627	Lose2	0.5758	n/a	Yes	2.627	n/a	n/a	GoodResponse	0	0.0	n/a	2	32	ISIslide	AvoidedLoss	True
318.517	0.25	Win2	0.5882000000000001	0.0	Yes	2.683	0.017	n/a	GoodResponse	1	n/a	n/a	3	33	Cue	Win	True
318.768	4.0	Win2	0.5882000000000001	0.0	Yes	2.683	0.001	n/a	GoodResponse	1	n/a	n/a	3	33	Fixation	Win	True
322.763	0.25	Win2	0.5882000000000001	0.004	Yes	2.683	-0.004	4.0	GoodResponse	1	0.188	321.951	3	33	Target	Win	True
322.951	0.3	Win2	0.5882000000000001	0.004	Yes	2.683	-0.004	4.0	GoodResponse	1	0.188	n/a	3	33	ButtonPress	Win	True
323.014	0.45	Win2	0.5882000000000001	n/a	Yes	2.683	n/a	n/a	GoodResponse	1	n/a	n/a	3	33	Blank	Win	True
323.465	1.45	Win2	0.5882000000000001	n/a	Yes	2.683	n/a	5.0	GoodResponse	1	0.019	322.484	3	33	Feedback	Win	True
324.92	2.683	Win2	0.5882000000000001	n/a	Yes	2.683	n/a	n/a	GoodResponse	1	0.0	n/a	3	33	ISIslide	Win	True
327.628	0.25	Lose2	0.6	0.0	Yes	2.622	0.028	n/a	GoodResponse	0	n/a	n/a	3	34	Cue	AvoidedLoss	True
327.878	4.05	Lose2	0.6	0.001	Yes	2.622	0.0	n/a	GoodResponse	0	n/a	n/a	3	34	Fixation	AvoidedLoss	True
331.924	0.26	Lose2	0.6	0.004	Yes	2.622	-0.004	4.0	GoodResponse	0	0.177	331.101	3	34	Target	AvoidedLoss	True
332.101	0.3	Lose2	0.6	0.004	Yes	2.622	-0.004	4.0	GoodResponse	0	0.177	n/a	3	34	ButtonPress	AvoidedLoss	True
332.191	0.44	Lose2	0.6	n/a	Yes	2.622	n/a	n/a	GoodResponse	0	n/a	n/a	3	34	Blank	AvoidedLoss	True
332.626	1.45	Lose2	0.6	n/a	Yes	2.622	n/a	5.0	GoodResponse	0	0.029	331.655	3	34	Feedback	AvoidedLoss	True
334.08	2.622	Lose2	0.6	n/a	Yes	2.622	n/a	n/a	GoodResponse	0	0.0	n/a	3	34	ISIslide	AvoidedLoss	True
336.722	0.25	Lose2	0.6111	0.0	Yes	2.678	0.022	n/a	GoodResponse	0	n/a	n/a	3	35	Cue	AvoidedLoss	True
336.972	4.0	Lose2	0.6111	0.0	Yes	2.678	0.0	n/a	GoodResponse	0	n/a	n/a	3	35	Fixation	AvoidedLoss	True
340.968	0.27	Lose2	0.6111	0.004	Yes	2.678	-0.004	4.0	GoodResponse	0	0.178	340.146	3	35	Target	AvoidedLoss	True
341.146	0.3	Lose2	0.6111	0.004	Yes	2.678	-0.004	4.0	GoodResponse	0	0.178	n/a	3	35	ButtonPress	AvoidedLoss	True
341.252	0.43	Lose2	0.6111	n/a	Yes	2.678	n/a	n/a	GoodResponse	0	n/a	n/a	3	35	Blank	AvoidedLoss	True
341.67	1.45	Lose2	0.6111	n/a	Yes	2.678	n/a	5.0	GoodResponse	0	0.009	340.679	3	35	Feedback	AvoidedLoss	True
343.124	2.678	Lose2	0.6111	n/a	Yes	2.678	n/a	n/a	GoodResponse	0	0.0	n/a	3	35	ISIslide	AvoidedLoss	True
345.815	0.25	Control	0.5946	0.001	No	2.685	0.015	n/a	NoResponse	0	n/a	n/a	3	36	Cue	Neutral	False
346.066	4.0	Control	0.5946	0.0	No	2.685	0.001	n/a	NoResponse	0	n/a	n/a	3	36	Fixation	Neutral	False
350.061	0.28	Control	0.5946	0.004	No	2.685	-0.004	n/a	NoResponse	0	n/a	n/a	3	36	Target	Neutral	False
350.346	0.42	Control	0.5946	n/a	No	2.685	n/a	n/a	NoResponse	0	n/a	n/a	3	36	Blank	Neutral	False
350.764	1.45	Control	0.5946	n/a	No	2.685	n/a	5.0	NoResponse	0	0.037	349.801	3	36	Feedback	Neutral	False
352.218	2.685	Control	0.5946	n/a	No	2.685	n/a	n/a	NoResponse	0	0.0	n/a	3	36	ISIslide	Neutral	False
354.926	0.25	Win2	0.6053000000000001	0.0	Yes	2.874	0.026	n/a	GoodResponse	1	n/a	n/a	4	37	Cue	Win	True
355.177	4.0	Win2	0.6053000000000001	0.0	Yes	2.874	0.001	n/a	GoodResponse	1	n/a	n/a	4	37	Fixation	Win	True
359.172	0.29	Win2	0.6053000000000001	0.004	Yes	2.874	-0.004	4.0	GoodResponse	1	0.207	358.379	4	37	Target	Win	True
359.379	0.3	Win2	0.6053000000000001	0.004	Yes	2.874	-0.004	4.0	GoodResponse	1	0.207	n/a	4	37	ButtonPress	Win	True
359.473	0.41	Win2	0.6053000000000001	n/a	Yes	2.874	n/a	n/a	GoodResponse	1	n/a	n/a	4	37	Blank	Win	True
359.874	1.45	Win2	0.6053000000000001	n/a	Yes	2.874	n/a	5.0	GoodResponse	1	0.049	358.923	4	37	Feedback	Win	True
361.329	2.874	Win2	0.6053000000000001	n/a	Yes	2.874	n/a	n/a	GoodResponse	1	0.0	n/a	4	37	ISIslide	Win	True
364.221	0.25	Lose2	0.6154	0.0	Yes	2.829	0.021	n/a	GoodResponse	0	n/a	n/a	4	38	Cue	AvoidedLoss	True
364.471	3.95	Lose2	0.6154	0.0	Yes	2.829	0.0	n/a	GoodResponse	0	n/a	n/a	4	38	Fixation	AvoidedLoss	True
368.433	0.3	Lose2	0.6154	0.0	Yes	2.829	0.012	4.0	GoodResponse	0	0.201	367.634	4	38	Target	AvoidedLoss	True
368.634	0.3	Lose2	0.6154	0.0	Yes	2.829	0.012	4.0	GoodResponse	0	0.201	n/a	4	38	ButtonPress	AvoidedLoss	True
368.717	0.4	Lose2	0.6154	n/a	Yes	2.829	n/a	n/a	GoodResponse	0	n/a	n/a	4	38	Blank	AvoidedLoss	True
369.119	1.45	Lose2	0.6154	n/a	Yes	2.829	n/a	5.0	GoodResponse	0	0.024	368.143	4	38	Feedback	AvoidedLoss	True
370.573	2.829	Lose2	0.6154	n/a	Yes	2.829	n/a	n/a	GoodResponse	0	0.0	n/a	4	38	ISIslide	AvoidedLoss	True
373.431	0.25	Win2	0.625	0.001	Yes	2.969	0.031	n/a	GoodResponse	1	n/a	n/a	5	39	Cue	Win	True
373.682	4.1	Win2	0.625	0.0	Yes	2.969	0.001	n/a	GoodResponse	1	n/a	n/a	5	39	Fixation	Win	True
377.778	0.31	Win2	0.625	0.003	Yes	2.969	-0.003	4.0	GoodResponse	1	0.251	377.029	5	39	Target	Win	True
378.029	0.3	Win2	0.625	0.003	Yes	2.969	-0.003	4.0	GoodResponse	1	0.251	n/a	5	39	ButtonPress	Win	True
378.095	0.39	Win2	0.625	n/a	Yes	2.969	n/a	n/a	GoodResponse	1	n/a	n/a	5	39	Blank	Win	True
378.48	1.45	Win2	0.625	n/a	Yes	2.969	n/a	5.0	GoodResponse	1	0.028	377.508	5	39	Feedback	Win	True
379.934	2.969	Win2	0.625	n/a	Yes	2.969	n/a	n/a	GoodResponse	1	0.0	n/a	5	39	ISIslide	Win	True
382.927	0.25	Win2	0.6341	0.0	Yes	2.723	0.027	n/a	GoodResponse	1	n/a	n/a	6	40	Cue	Win	True
383.177	3.95	Win2	0.6341	0.0	Yes	2.723	0.0	n/a	GoodResponse	1	n/a	n/a	6	40	Fixation	Win	True
387.122	0.32	Win2	0.6341	0.005	Yes	2.723	-0.005	4.0	GoodResponse	1	0.178	386.3	6	40	Target	Win	True
387.3	0.3	Win2	0.6341	0.005	Yes	2.723	-0.005	4.0	GoodResponse	1	0.178	n/a	6	40	ButtonPress	Win	True
387.457	0.38	Win2	0.6341	n/a	Yes	2.723	n/a	n/a	GoodResponse	1	n/a	n/a	6	40	Blank	Win	True
387.825	1.45	Win2	0.6341	n/a	Yes	2.723	n/a	5.0	GoodResponse	1	0.0	386.825	6	40	Feedback	Win	True
389.279	2.723	Win2	0.6341	n/a	Yes	2.723	n/a	n/a	GoodResponse	1	0.0	n/a	6	40	ISIslide	Win	True
392.02	0.25	Win2	0.6429	0.001	Yes	2.78	0.02	n/a	GoodResponse	1	n/a	n/a	7	41	Cue	Win	True
392.271	3.9	Win2	0.6429	0.0	Yes	2.78	0.001	n/a	GoodResponse	1	n/a	n/a	7	41	Fixation	Win	True
396.166	0.33	Win2	0.6429	0.004	Yes	2.78	-0.004	4.0	GoodResponse	1	0.184	395.35	7	41	Target	Win	True
396.35	0.3	Win2	0.6429	0.004	Yes	2.78	-0.004	4.0	GoodResponse	1	0.184	n/a	7	41	ButtonPress	Win	True
396.501	0.37	Win2	0.6429	n/a	Yes	2.78	n/a	n/a	GoodResponse	1	n/a	n/a	7	41	Blank	Win	True
396.868	1.45	Win2	0.6429	n/a	Yes	2.78	n/a	5.0	GoodResponse	1	0.03	395.898	7	41	Feedback	Win	True
398.323	2.78	Win2	0.6429	n/a	Yes	2.78	n/a	n/a	GoodResponse	1	0.0	n/a	7	41	ISIslide	Win	True
401.114	0.25	Control	0.6279	0.0	No	2.936	0.014	n/a	NoResponse	0	n/a	n/a	7	42	Cue	Neutral	False
401.365	3.85	Control	0.6279	0.0	No	2.936	0.001	n/a	NoResponse	0	n/a	n/a	7	42	Fixation	Neutral	False
405.21	0.34	Control	0.6279	0.004	No	2.936	-0.004	n/a	NoResponse	0	n/a	n/a	7	42	Target	Neutral	False
405.561	0.36	Control	0.6279	n/a	No	2.936	n/a	n/a	NoResponse	0	n/a	n/a	7	42	Blank	Neutral	False
405.912	1.45	Control	0.6279	n/a	No	2.936	n/a	5.0	NoResponse	0	0.011	404.923	7	42	Feedback	Neutral	False
407.366	2.936	Control	0.6279	n/a	No	2.936	n/a	n/a	NoResponse	0	0.0	n/a	7	42	ISIslide	Neutral	False
410.325	0.25	Win2	0.6364	0.0	Yes	3.175	0.025	n/a	GoodResponse	1	n/a	n/a	8	43	Cue	Win	True
410.576	4.0	Win2	0.6364	0.0	Yes	3.175	0.001	n/a	GoodResponse	1	n/a	n/a	8	43	Fixation	Win	True
414.571	0.35	Win2	0.6364	0.004	Yes	3.175	-0.004	4.0	GoodResponse	1	0.222	413.793	8	43	Target	Win	True
414.793	0.3	Win2	0.6364	0.004	Yes	3.175	-0.004	4.0	GoodResponse	1	0.222	n/a	8	43	ButtonPress	Win	True
414.922	0.35	Win2	0.6364	n/a	Yes	3.175	n/a	n/a	GoodResponse	1	n/a	n/a	8	43	Blank	Win	True
415.273	1.45	Win2	0.6364	n/a	Yes	3.175	n/a	5.0	GoodResponse	1	0.016	414.289	8	43	Feedback	Win	True
416.728	3.175	Win2	0.6364	n/a	Yes	3.175	n/a	n/a	GoodResponse	1	0.0	n/a	8	43	ISIslide	Win	True
419.921	0.25	Win2	0.6444	0.0	Yes	2.979	0.021	n/a	GoodResponse	1	n/a	n/a	9	44	Cue	Win	True
420.171	4.0	Win2	0.6444	0.0	Yes	2.979	0.0	n/a	GoodResponse	1	n/a	n/a	9	44	Fixation	Win	True
424.167	0.36	Win2	0.6444	0.004	Yes	2.979	-0.004	4.0	GoodResponse	1	0.171	423.338	9	44	Target	Win	True
424.338	0.3	Win2	0.6444	0.004	Yes	2.979	-0.004	4.0	GoodResponse	1	0.171	n/a	9	44	ButtonPress	Win	True
424.534	0.34	Win2	0.6444	n/a	Yes	2.979	n/a	n/a	GoodResponse	1	n/a	n/a	9	44	Blank	Win	True
424.869	1.45	Win2	0.6444	n/a	Yes	2.979	n/a	5.0	GoodResponse	1	0.028	423.897	9	44	Feedback	Win	True
426.323	2.979	Win2	0.6444	n/a	Yes	2.979	n/a	n/a	GoodResponse	1	0.0	n/a	9	44	ISIslide	Win	True
429.315	0.25	Control	0.6304	0.001	No	2.885	0.015	n/a	NoResponse	0	n/a	n/a	9	45	Cue	Neutral	False
429.566	4.1	Control	0.6304	0.0	No	2.885	0.001	n/a	NoResponse	0	n/a	n/a	9	45	Fixation	Neutral	False
433.662	0.37	Control	0.6304	0.003	No	2.885	-0.003	n/a	NoResponse	0	n/a	n/a	9	45	Target	Neutral	False
434.046	0.33	Control	0.6304	n/a	No	2.885	n/a	n/a	NoResponse	0	n/a	n/a	9	45	Blank	Neutral	False
434.364	1.45	Control	0.6304	n/a	No	2.885	n/a	5.0	NoResponse	0	0.046	433.41	9	45	Feedback	Neutral	False
435.818	2.885	Control	0.6304	n/a	No	2.885	n/a	n/a	NoResponse	0	0.0	n/a	9	45	ISIslide	Neutral	False
438.727	0.25	Lose2	0.6383	0.0	Yes	3.373	0.027	n/a	GoodResponse	0	n/a	n/a	9	46	Cue	AvoidedLoss	True
438.978	4.0	Lose2	0.6383	0.0	Yes	3.373	0.001	n/a	GoodResponse	0	n/a	n/a	9	46	Fixation	AvoidedLoss	True
442.973	0.38	Lose2	0.6383	0.004	Yes	3.373	-0.004	4.0	GoodResponse	0	0.205	442.178	9	46	Target	AvoidedLoss	True
443.178	0.3	Lose2	0.6383	0.004	Yes	3.373	-0.004	4.0	GoodResponse	0	0.205	n/a	9	46	ButtonPress	AvoidedLoss	True
443.357	0.32	Lose2	0.6383	n/a	Yes	3.373	n/a	n/a	GoodResponse	0	n/a	n/a	9	46	Blank	AvoidedLoss	True
443.675	1.45	Lose2	0.6383	n/a	Yes	3.373	n/a	5.0	GoodResponse	0	0.008	442.683	9	46	Feedback	AvoidedLoss	True
445.129	3.373	Lose2	0.6383	n/a	Yes	3.373	n/a	n/a	GoodResponse	0	0.0	n/a	9	46	ISIslide	AvoidedLoss	True
448.523	0.25	Lose2	0.6457999999999999	0.0	Yes	2.677	0.023	n/a	GoodResponse	0	n/a	n/a	9	47	Cue	AvoidedLoss	True
448.774	4.0	Lose2	0.6457999999999999	0.0	Yes	2.677	0.001	n/a	GoodResponse	0	n/a	n/a	9	47	Fixation	AvoidedLoss	True
452.769	0.39	Lose2	0.6457999999999999	0.004	Yes	2.677	-0.004	4.0	GoodResponse	0	0.173	451.942	9	47	Target	AvoidedLoss	True
452.942	0.3	Lose2	0.6457999999999999	0.004	Yes	2.677	-0.004	4.0	GoodResponse	0	0.173	n/a	9	47	ButtonPress	AvoidedLoss	True
453.17	0.31	Lose2	0.6457999999999999	n/a	Yes	2.677	n/a	n/a	GoodResponse	0	n/a	n/a	9	47	Blank	AvoidedLoss	True
453.471	1.45	Lose2	0.6457999999999999	n/a	Yes	2.677	n/a	5.0	GoodResponse	0	0.012	452.483	9	47	Feedback	AvoidedLoss	True
454.925	2.677	Lose2	0.6457999999999999	n/a	Yes	2.677	n/a	n/a	GoodResponse	0	0.0	n/a	9	47	ISIslide	AvoidedLoss	True
457.617	0.25	Lose2	0.6531	0.0	Yes	3.033	0.017	n/a	GoodResponse	0	n/a	n/a	9	48	Cue	AvoidedLoss	True
457.868	3.95	Lose2	0.6531	0.0	Yes	3.033	0.001	n/a	GoodResponse	0	n/a	n/a	9	48	Fixation	AvoidedLoss	True
461.813	0.4	Lose2	0.6531	0.004	Yes	3.033	-0.004	4.0	GoodResponse	0	0.186	460.999	9	48	Target	AvoidedLoss	True
461.999	0.3	Lose2	0.6531	0.004	Yes	3.033	-0.004	4.0	GoodResponse	0	0.186	n/a	9	48	ButtonPress	AvoidedLoss	True
462.214	0.3	Lose2	0.6531	n/a	Yes	3.033	n/a	n/a	GoodResponse	0	n/a	n/a	9	48	Blank	AvoidedLoss	True
462.515	1.45	Lose2	0.6531	n/a	Yes	3.033	n/a	5.0	GoodResponse	0	0.041	461.556	9	48	Feedback	AvoidedLoss	True
463.969	3.033	Lose2	0.6531	n/a	Yes	3.033	n/a	n/a	GoodResponse	0	0.0	n/a	9	48	ISIslide	AvoidedLoss	True
467.028	0.25	Control	0.64	0.0	No	2.872	0.028	n/a	NoResponse	0	n/a	n/a	9	49	Cue	Neutral	False
467.279	4.0	Control	0.64	0.0	No	2.872	0.001	n/a	NoResponse	0	n/a	n/a	9	49	Fixation	Neutral	False
471.274	0.41	Control	0.64	0.004	No	2.872	-0.004	n/a	NoResponse	0	n/a	n/a	9	49	Target	Neutral	False
471.692	0.29	Control	0.64	n/a	No	2.872	n/a	n/a	NoResponse	0	n/a	n/a	9	49	Blank	Neutral	False
471.976	1.45	Control	0.64	n/a	No	2.872	n/a	5.0	NoResponse	0	0.043	471.019	9	49	Feedback	Neutral	False
473.431	2.872	Control	0.64	n/a	No	2.872	n/a	n/a	NoResponse	0	0.0	n/a	9	49	ISIslide	Neutral	False
476.323	0.25	Control	0.6275	0.0	No	2.777	0.023	n/a	NoResponse	0	n/a	n/a	9	50	Cue	Neutral	False
476.574	4.0	Control	0.6275	0.0	No	2.777	0.001	n/a	NoResponse	0	n/a	n/a	9	50	Fixation	Neutral	False
480.569	0.42	Control	0.6275	0.004	No	2.777	-0.004	n/a	NoResponse	0	n/a	n/a	9	50	Target	Neutral	False
481.003	0.28	Control	0.6275	n/a	No	2.777	n/a	n/a	NoResponse	0	n/a	n/a	9	50	Blank	Neutral	False
481.271	1.45	Control	0.6275	n/a	No	2.777	n/a	5.0	NoResponse	0	0.016	480.287	9	50	Feedback	Neutral	False
482.725	2.777	Control	0.6275	n/a	No	2.777	n/a	n/a	NoResponse	0	0.0	n/a	9	50	ISIslide	Neutral	False
485.517	0.25	Control	0.6154	0.0	No	2.733	0.017	n/a	NoResponse	0	n/a	n/a	9	51	Cue	Neutral	False
485.768	3.95	Control	0.6154	0.0	No	2.733	0.001	n/a	NoResponse	0	n/a	n/a	9	51	Fixation	Neutral	False
489.713	0.43	Control	0.6154	0.004	No	2.733	-0.004	n/a	NoResponse	0	n/a	n/a	9	51	Target	Neutral	False
490.147	0.27	Control	0.6154	n/a	No	2.733	n/a	n/a	NoResponse	0	n/a	n/a	9	51	Blank	Neutral	False
490.415	1.45	Control	0.6154	n/a	No	2.733	n/a	5.0	NoResponse	0	0.043	489.458	9	51	Feedback	Neutral	False
491.869	2.733	Control	0.6154	n/a	No	2.733	n/a	n/a	NoResponse	0	0.0	n/a	9	51	ISIslide	Neutral	False
494.628	0.25	Control	0.6038	0.0	No	2.622	0.028	n/a	NoResponse	0	n/a	n/a	9	52	Cue	Neutral	False
494.878	4.05	Control	0.6038	0.0	No	2.622	0.0	n/a	NoResponse	0	n/a	n/a	9	52	Fixation	Neutral	False
498.924	0.44	Control	0.6038	0.004	No	2.622	-0.004	n/a	NoResponse	0	n/a	n/a	9	52	Target	Neutral	False
499.375	0.26	Control	0.6038	n/a	No	2.622	n/a	n/a	NoResponse	0	n/a	n/a	9	52	Blank	Neutral	False
499.626	1.45	Control	0.6038	n/a	No	2.622	n/a	5.0	NoResponse	0	0.008	498.634	9	52	Feedback	Neutral	False
501.08	2.622	Control	0.6038	n/a	No	2.622	n/a	n/a	NoResponse	0	0.0	n/a	9	52	ISIslide	Neutral	False
503.721	0.25	Win2	0.6111	0.001	Yes	2.929	0.021	n/a	GoodResponse	1	n/a	n/a	10	53	Cue	Win	True
503.972	4.05	Win2	0.6111	0.0	Yes	2.929	0.001	n/a	GoodResponse	1	n/a	n/a	10	53	Fixation	Win	True
508.018	0.45	Win2	0.6111	0.003	Yes	2.929	-0.003	4.0	GoodResponse	1	0.185	507.203	10	53	Target	Win	True
508.203	0.3	Win2	0.6111	0.003	Yes	2.929	-0.003	4.0	GoodResponse	1	0.185	n/a	10	53	ButtonPress	Win	True
508.469	0.25	Win2	0.6111	n/a	Yes	2.929	n/a	n/a	GoodResponse	1	n/a	n/a	10	53	Blank	Win	True
508.72	1.45	Win2	0.6111	n/a	Yes	2.929	n/a	5.0	GoodResponse	1	0.031	507.751	10	53	Feedback	Win	True
510.174	2.929	Win2	0.6111	n/a	Yes	2.929	n/a	n/a	GoodResponse	1	0.0	n/a	10	53	ISIslide	Win	True
513.116	0.25	Win2	0.6182	0.0	Yes	2.734	0.016	n/a	GoodResponse	1	n/a	n/a	11	54	Cue	Win	True
513.367	3.95	Win2	0.6182	0.0	Yes	2.734	0.001	n/a	GoodResponse	1	n/a	n/a	11	54	Fixation	Win	True
517.312	0.46	Win2	0.6182	0.004	Yes	2.734	-0.004	4.0	GoodResponse	1	0.256	516.568	11	54	Target	Win	True
517.568	0.3	Win2	0.6182	0.004	Yes	2.734	-0.004	4.0	GoodResponse	1	0.256	n/a	11	54	ButtonPress	Win	True
517.78	0.24	Win2	0.6182	n/a	Yes	2.734	n/a	n/a	GoodResponse	1	n/a	n/a	11	54	Blank	Win	True
518.014	1.45	Win2	0.6182	n/a	Yes	2.734	n/a	5.0	GoodResponse	1	0.008	517.022	11	54	Feedback	Win	True
519.469	2.734	Win2	0.6182	n/a	Yes	2.734	n/a	n/a	GoodResponse	1	0.0	n/a	11	54	ISIslide	Win	True
522.227	0.25	Control	0.6071	0.0	No	3.023	0.027	n/a	NoResponse	0	n/a	n/a	11	55	Cue	Neutral	False
522.478	3.95	Control	0.6071	0.0	No	3.023	0.001	n/a	NoResponse	0	n/a	n/a	11	55	Fixation	Neutral	False
526.423	0.47	Control	0.6071	0.004	No	3.023	-0.004	n/a	NoResponse	0	n/a	n/a	11	55	Target	Neutral	False
526.908	0.23	Control	0.6071	n/a	No	3.023	n/a	n/a	NoResponse	0	n/a	n/a	11	55	Blank	Neutral	False
527.125	1.45	Control	0.6071	n/a	No	3.023	n/a	5.0	NoResponse	0	0.015	526.14	11	55	Feedback	Neutral	False
528.579	3.023	Control	0.6071	n/a	No	3.023	n/a	n/a	NoResponse	0	0.0	n/a	11	55	ISIslide	Neutral	False
531.622	0.25	Control	0.5965	0.0	No	2.828	0.022	n/a	NoResponse	0	n/a	n/a	11	56	Cue	Neutral	False
531.872	3.95	Control	0.5965	0.0	No	2.828	0.0	n/a	NoResponse	0	n/a	n/a	11	56	Fixation	Neutral	False
535.818	0.48	Control	0.5965	0.004	No	2.828	-0.004	n/a	NoResponse	0	n/a	n/a	11	56	Target	Neutral	False
536.302	0.22	Control	0.5965	n/a	No	2.828	n/a	n/a	NoResponse	0	n/a	n/a	11	56	Blank	Neutral	False
536.52	1.45	Control	0.5965	n/a	No	2.828	n/a	5.0	NoResponse	0	0.035	535.555	11	56	Feedback	Neutral	False
537.974	2.828	Control	0.5965	n/a	No	2.828	n/a	n/a	NoResponse	0	0.0	n/a	11	56	ISIslide	Neutral	False
540.816	0.25	Control	0.5861999999999999	0.0	No	3.484	0.016	n/a	NoResponse	0	n/a	n/a	11	57	Cue	Neutral	False
541.067	4.0	Control	0.5861999999999999	0.0	No	3.484	0.001	n/a	NoResponse	0	n/a	n/a	11	57	Fixation	Neutral	False
545.062	0.49	Control	0.5861999999999999	0.004	No	3.484	-0.004	n/a	NoResponse	0	n/a	n/a	11	57	Target	Neutral	False
545.563	0.21	Control	0.5861999999999999	n/a	No	3.484	n/a	n/a	NoResponse	0	n/a	n/a	11	57	Blank	Neutral	False
545.764	1.45	Control	0.5861999999999999	n/a	No	3.484	n/a	5.0	NoResponse	0	0.011	544.775	11	57	Feedback	Neutral	False
547.218	3.484	Control	0.5861999999999999	n/a	No	3.484	n/a	n/a	NoResponse	0	0.0	n/a	11	57	ISIslide	Neutral	False
550.729	0.25	Win2	0.5932	0.0	Yes	2.721	0.029	n/a	GoodResponse	1	n/a	n/a	12	58	Cue	Win	True
550.98	4.05	Win2	0.5932	0.0	Yes	2.721	0.001	n/a	GoodResponse	1	n/a	n/a	12	58	Fixation	Win	True
555.025	0.5	Win2	0.5932	0.004	Yes	2.721	-0.004	4.0	GoodResponse	1	0.167	554.192	12	58	Target	Win	True
555.192	0.3	Win2	0.5932	0.004	Yes	2.721	-0.004	4.0	GoodResponse	1	0.167	n/a	12	58	ButtonPress	Win	True
555.527	0.2	Win2	0.5932	n/a	Yes	2.721	n/a	n/a	GoodResponse	1	n/a	n/a	12	58	Blank	Win	True
555.727	1.45	Win2	0.5932	n/a	Yes	2.721	n/a	5.0	GoodResponse	1	0.048	554.775	12	58	Feedback	Win	True
557.181	2.721	Win2	0.5932	n/a	Yes	2.721	n/a	n/a	GoodResponse	1	0.0	n/a	12	58	ISIslide	Win	True
559.923	0.25	Lose2	0.6	0.0	Yes	2.677	0.023	n/a	GoodResponse	0	n/a	n/a	12	59	Cue	AvoidedLoss	True
560.174	4.0	Lose2	0.6	0.0	Yes	2.677	0.001	n/a	GoodResponse	0	n/a	n/a	12	59	Fixation	AvoidedLoss	True
564.169	0.5	Lose2	0.6	0.004	Yes	2.677	-0.004	4.0	GoodResponse	0	0.196	563.365	12	59	Target	AvoidedLoss	True
564.365	0.3	Lose2	0.6	0.004	Yes	2.677	-0.004	4.0	GoodResponse	0	0.196	n/a	12	59	ButtonPress	AvoidedLoss	True
564.671	0.2	Lose2	0.6	n/a	Yes	2.677	n/a	n/a	GoodResponse	0	n/a	n/a	12	59	Blank	AvoidedLoss	True
564.871	1.45	Lose2	0.6	n/a	Yes	2.677	n/a	5.0	GoodResponse	0	0.026	563.897	12	59	Feedback	AvoidedLoss	True
566.326	2.677	Lose2	0.6	n/a	Yes	2.677	n/a	n/a	GoodResponse	0	0.0	n/a	12	59	ISIslide	AvoidedLoss	True
569.017	0.25	Control	0.5902000000000001	0.0	No	2.683	0.017	n/a	NoResponse	0	n/a	n/a	12	60	Cue	Neutral	False
569.268	4.0	Control	0.5902000000000001	0.0	No	2.683	0.001	n/a	NoResponse	0	n/a	n/a	12	60	Fixation	Neutral	False
573.263	0.5	Control	0.5902000000000001	0.004	No	2.683	-0.004	n/a	NoResponse	0	n/a	n/a	12	60	Target	Neutral	False
573.764	0.2	Control	0.5902000000000001	n/a	No	2.683	n/a	n/a	NoResponse	0	n/a	n/a	12	60	Blank	Neutral	False
573.965	1.45	Control	0.5902000000000001	n/a	No	2.683	n/a	5.0	NoResponse	0	0.008	572.973	12	60	Feedback	Neutral	False
575.419	2.683	Control	0.5902000000000001	n/a	No	2.683	n/a	n/a	NoResponse	0	0.0	n/a	12	60	ISIslide	Neutral	False
578.128	0.25	Lose2	0.5968	0.0	Yes	2.972	0.028	n/a	GoodResponse	0	n/a	n/a	12	61	Cue	AvoidedLoss	True
578.378	4.0	Lose2	0.5968	0.0	Yes	2.972	0.0	n/a	GoodResponse	0	n/a	n/a	12	61	Fixation	AvoidedLoss	True
582.374	0.5	Lose2	0.5968	0.004	Yes	2.972	-0.004	4.0	GoodResponse	0	0.223	581.597	12	61	Target	AvoidedLoss	True
582.597	0.3	Lose2	0.5968	0.004	Yes	2.972	-0.004	4.0	GoodResponse	0	0.223	n/a	12	61	ButtonPress	AvoidedLoss	True
582.875	0.2	Lose2	0.5968	n/a	Yes	2.972	n/a	n/a	GoodResponse	0	n/a	n/a	12	61	Blank	AvoidedLoss	True
583.076	1.45	Lose2	0.5968	n/a	Yes	2.972	n/a	5.0	GoodResponse	0	0.015	582.091	12	61	Feedback	AvoidedLoss	True
584.53	2.972	Lose2	0.5968	n/a	Yes	2.972	n/a	n/a	GoodResponse	0	0.0	n/a	12	61	ISIslide	AvoidedLoss	True
587.522	0.25	Lose2	0.6032	0.0	Yes	2.878	0.022	n/a	GoodResponse	0	n/a	n/a	12	62	Cue	AvoidedLoss	True
587.773	3.9	Lose2	0.6032	0.0	Yes	2.878	0.001	n/a	GoodResponse	0	n/a	n/a	12	62	Fixation	AvoidedLoss	True
591.668	0.5	Lose2	0.6032	0.004	Yes	2.878	-0.004	4.0	GoodResponse	0	0.313	590.981	12	62	Target	AvoidedLoss	True
591.981	0.3	Lose2	0.6032	0.004	Yes	2.878	-0.004	4.0	GoodResponse	0	0.313	n/a	12	62	ButtonPress	AvoidedLoss	True
592.17	0.2	Lose2	0.6032	n/a	Yes	2.878	n/a	n/a	GoodResponse	0	n/a	n/a	12	62	Blank	AvoidedLoss	True
592.37	1.45	Lose2	0.6032	n/a	Yes	2.878	n/a	5.0	GoodResponse	0	0.038	591.408	12	62	Feedback	AvoidedLoss	True
593.824	2.878	Lose2	0.6032	n/a	Yes	2.878	n/a	n/a	GoodResponse	0	0.0	n/a	12	62	ISIslide	AvoidedLoss	True
596.716	0.25	Lose2	0.6093999999999999	0.001	Yes	2.634	0.016	n/a	GoodResponse	0	n/a	n/a	12	63	Cue	AvoidedLoss	True
596.967	4.05	Lose2	0.6093999999999999	0.0	Yes	2.634	0.001	n/a	GoodResponse	0	n/a	n/a	12	63	Fixation	AvoidedLoss	True
601.013	0.5	Lose2	0.6093999999999999	0.003	Yes	2.634	-0.003	4.0	GoodResponse	0	0.168	600.181	12	63	Target	AvoidedLoss	True
601.181	0.3	Lose2	0.6093999999999999	0.003	Yes	2.634	-0.003	4.0	GoodResponse	0	0.168	n/a	12	63	ButtonPress	AvoidedLoss	True
601.514	0.2	Lose2	0.6093999999999999	n/a	Yes	2.634	n/a	n/a	GoodResponse	0	n/a	n/a	12	63	Blank	AvoidedLoss	True
601.715	1.45	Lose2	0.6093999999999999	n/a	Yes	2.634	n/a	5.0	GoodResponse	0	0.011	600.726	12	63	Feedback	AvoidedLoss	True
603.169	2.634	Lose2	0.6093999999999999	n/a	Yes	2.634	n/a	n/a	GoodResponse	0	0.0	n/a	12	63	ISIslide	AvoidedLoss	True
605.827	0.25	Win2	0.6154	0.0	Yes	3.123	0.027	n/a	GoodResponse	1	n/a	n/a	13	64	Cue	Win	True
606.078	4.15	Win2	0.6154	0.0	Yes	3.123	0.001	n/a	GoodResponse	1	n/a	n/a	13	64	Fixation	Win	True
610.224	0.5	Win2	0.6154	0.003	Yes	3.123	-0.003	4.0	GoodResponse	1	0.177	609.401	13	64	Target	Win	True
610.401	0.3	Win2	0.6154	0.003	Yes	3.123	-0.003	4.0	GoodResponse	1	0.177	n/a	13	64	ButtonPress	Win	True
610.725	0.2	Win2	0.6154	n/a	Yes	3.123	n/a	n/a	GoodResponse	1	n/a	n/a	13	64	Blank	Win	True
610.926	1.45	Win2	0.6154	n/a	Yes	3.123	n/a	5.0	GoodResponse	1	0.019	609.945	13	64	Feedback	Win	True
612.38	3.123	Win2	0.6154	n/a	Yes	3.123	n/a	n/a	GoodResponse	1	0.0	n/a	13	64	ISIslide	Win	True
615.523	0.25	Control	0.6061	0.0	No	2.777	0.023	n/a	NoResponse	0	n/a	n/a	13	65	Cue	Neutral	False
615.774	4.0	Control	0.6061	0.0	No	2.777	0.001	n/a	NoResponse	0	n/a	n/a	13	65	Fixation	Neutral	False
619.769	0.5	Control	0.6061	0.004	No	2.777	-0.004	n/a	NoResponse	0	n/a	n/a	13	65	Target	Neutral	False
620.27	0.2	Control	0.6061	n/a	No	2.777	n/a	n/a	NoResponse	0	n/a	n/a	13	65	Blank	Neutral	False
620.471	1.45	Control	0.6061	n/a	No	2.777	n/a	5.0	NoResponse	0	0.035	619.506	13	65	Feedback	Neutral	False
621.925	2.777	Control	0.6061	n/a	No	2.777	n/a	n/a	NoResponse	0	0.0	n/a	13	65	ISIslide	Neutral	False
624.717	0.25	Win2	0.6119	0.0	Yes	2.783	0.017	n/a	GoodResponse	1	n/a	n/a	14	66	Cue	Win	True
624.968	3.9	Win2	0.6119	0.0	Yes	2.783	0.001	n/a	GoodResponse	1	n/a	n/a	14	66	Fixation	Win	True
628.863	0.5	Win2	0.6119	0.004	Yes	2.783	-0.004	4.0	GoodResponse	1	0.239	628.102	14	66	Target	Win	True
629.102	0.3	Win2	0.6119	0.004	Yes	2.783	-0.004	4.0	GoodResponse	1	0.239	n/a	14	66	ButtonPress	Win	True
629.364	0.2	Win2	0.6119	n/a	Yes	2.783	n/a	n/a	GoodResponse	1	n/a	n/a	14	66	Blank	Win	True
629.565	1.45	Win2	0.6119	n/a	Yes	2.783	n/a	5.0	GoodResponse	1	0.014	628.579	14	66	Feedback	Win	True
631.019	2.783	Win2	0.6119	n/a	Yes	2.783	n/a	n/a	GoodResponse	1	0.0	n/a	14	66	ISIslide	Win	True
633.828	0.25	Control	0.6029	0.0	No	2.722	0.028	n/a	NoResponse	0	n/a	n/a	14	67	Cue	Neutral	False
634.078	3.95	Control	0.6029	0.0	No	2.722	0.0	n/a	NoResponse	0	n/a	n/a	14	67	Fixation	Neutral	False
638.04	0.5	Control	0.6029	0.0	No	2.722	0.012	n/a	NoResponse	0	n/a	n/a	14	67	Target	Neutral	False
638.525	0.2	Control	0.6029	n/a	No	2.722	n/a	n/a	NoResponse	0	n/a	n/a	14	67	Blank	Neutral	False
638.726	1.45	Control	0.6029	n/a	No	2.722	n/a	5.0	NoResponse	0	0.023	637.749	14	67	Feedback	Neutral	False
640.18	2.722	Control	0.6029	n/a	No	2.722	n/a	n/a	NoResponse	0	0.0	n/a	14	67	ISIslide	Neutral	False
642.921	0.25	Win2	0.6087	0.001	Yes	3.079	0.021	n/a	GoodResponse	1	n/a	n/a	15	68	Cue	Win	True
643.172	4.0	Win2	0.6087	0.0	Yes	3.079	0.001	n/a	GoodResponse	1	n/a	n/a	15	68	Fixation	Win	True
647.168	0.5	Win2	0.6087	0.003	Yes	3.079	-0.003	4.0	GoodResponse	1	0.259	646.427	15	68	Target	Win	True
647.427	0.3	Win2	0.6087	0.003	Yes	3.079	-0.003	4.0	GoodResponse	1	0.259	n/a	15	68	ButtonPress	Win	True
647.669	0.2	Win2	0.6087	n/a	Yes	3.079	n/a	n/a	GoodResponse	1	n/a	n/a	15	68	Blank	Win	True
647.87	1.45	Win2	0.6087	n/a	Yes	3.079	n/a	5.0	GoodResponse	1	0.001	646.871	15	68	Feedback	Win	True
649.324	3.079	Win2	0.6087	n/a	Yes	3.079	n/a	n/a	GoodResponse	1	0.0	n/a	15	68	ISIslide	Win	True
652.417	0.25	Win2	0.6143	0.0	Yes	3.233	0.017	n/a	GoodResponse	1	n/a	n/a	16	69	Cue	Win	True
652.667	3.95	Win2	0.6143	0.0	Yes	3.233	0.0	n/a	GoodResponse	1	n/a	n/a	16	69	Fixation	Win	True
656.629	0.5	Win2	0.6143	0.0	Yes	3.233	0.012	4.0	GoodResponse	1	0.18	655.809	16	69	Target	Win	True
656.809	0.3	Win2	0.6143	0.0	Yes	3.233	0.012	4.0	GoodResponse	1	0.18	n/a	16	69	ButtonPress	Win	True
657.114	0.2	Win2	0.6143	n/a	Yes	3.233	n/a	n/a	GoodResponse	1	n/a	n/a	16	69	Blank	Win	True
657.315	1.45	Win2	0.6143	n/a	Yes	3.233	n/a	5.0	GoodResponse	1	0.02	656.335	16	69	Feedback	Win	True
658.769	3.233	Win2	0.6143	n/a	Yes	3.233	n/a	n/a	GoodResponse	1	0.0	n/a	16	69	ISIslide	Win	True
662.029	0.25	Lose2	0.6197	0.0	Yes	3.021	0.029	n/a	GoodResponse	0	n/a	n/a	16	70	Cue	AvoidedLoss	True
662.279	4.05	Lose2	0.6197	0.0	Yes	3.021	0.0	n/a	GoodResponse	0	n/a	n/a	16	70	Fixation	AvoidedLoss	True
666.325	0.5	Lose2	0.6197	0.004	Yes	3.021	-0.004	4.0	GoodResponse	0	0.203	665.528	16	70	Target	AvoidedLoss	True
666.528	0.3	Lose2	0.6197	0.004	Yes	3.021	-0.004	4.0	GoodResponse	0	0.203	n/a	16	70	ButtonPress	AvoidedLoss	True
666.826	0.2	Lose2	0.6197	n/a	Yes	3.021	n/a	n/a	GoodResponse	0	n/a	n/a	16	70	Blank	AvoidedLoss	True
667.027	1.45	Lose2	0.6197	n/a	Yes	3.021	n/a	5.0	GoodResponse	0	0.015	666.042	16	70	Feedback	AvoidedLoss	True
668.481	3.021	Lose2	0.6197	n/a	Yes	3.021	n/a	n/a	GoodResponse	0	0.0	n/a	16	70	ISIslide	AvoidedLoss	True
671.524	0.25	Win2	0.625	0.0	Yes	2.726	0.024	n/a	GoodResponse	1	n/a	n/a	17	71	Cue	Win	True
671.774	4.05	Win2	0.625	0.001	Yes	2.726	0.0	n/a	GoodResponse	1	n/a	n/a	17	71	Fixation	Win	True
675.82	0.5	Win2	0.625	0.004	Yes	2.726	-0.004	4.0	GoodResponse	1	0.188	675.008	17	71	Target	Win	True
676.008	0.3	Win2	0.625	0.004	Yes	2.726	-0.004	4.0	GoodResponse	1	0.188	n/a	17	71	ButtonPress	Win	True
676.321	0.2	Win2	0.625	n/a	Yes	2.726	n/a	n/a	GoodResponse	1	n/a	n/a	17	71	Blank	Win	True
676.522	1.45	Win2	0.625	n/a	Yes	2.726	n/a	5.0	GoodResponse	1	0.032	675.554	17	71	Feedback	Win	True
677.976	2.726	Win2	0.625	n/a	Yes	2.726	n/a	n/a	GoodResponse	1	0.0	n/a	17	71	ISIslide	Win	True
680.718	0.25	Win2	0.6301	0.0	Yes	2.782	0.018	n/a	GoodResponse	1	n/a	n/a	18	72	Cue	Win	True
680.969	4.1	Win2	0.6301	0.0	Yes	2.782	0.001	n/a	GoodResponse	1	n/a	n/a	18	72	Fixation	Win	True
685.064	0.5	Win2	0.6301	0.004	Yes	2.782	-0.004	4.0	GoodResponse	1	0.399	684.463	18	72	Target	Win	True
685.463	0.3	Win2	0.6301	0.004	Yes	2.782	-0.004	4.0	GoodResponse	1	0.399	n/a	18	72	ButtonPress	Win	True
685.566	0.2	Win2	0.6301	n/a	Yes	2.782	n/a	n/a	GoodResponse	1	n/a	n/a	18	72	Blank	Win	True
685.766	1.45	Win2	0.6301	n/a	Yes	2.782	n/a	5.0	GoodResponse	1	0.007	684.773	18	72	Feedback	Win	True
687.221	2.782	Win2	0.6301	n/a	Yes	2.782	n/a	n/a	GoodResponse	1	0.0	n/a	18	72	ISIslide	Win	True
690.029	0.25	Win2	0.6351	0.0	Yes	2.671	0.029	n/a	GoodResponse	1	n/a	n/a	19	73	Cue	Win	True
690.28	4.0	Win2	0.6351	0.0	Yes	2.671	0.001	n/a	GoodResponse	1	n/a	n/a	19	73	Fixation	Win	True
694.275	0.5	Win2	0.6351	0.004	Yes	2.671	-0.004	4.0	GoodResponse	1	0.251	693.526	19	73	Target	Win	True
694.526	0.3	Win2	0.6351	0.004	Yes	2.671	-0.004	4.0	GoodResponse	1	0.251	n/a	19	73	ButtonPress	Win	True
694.777	0.2	Win2	0.6351	n/a	Yes	2.671	n/a	n/a	GoodResponse	1	n/a	n/a	19	73	Blank	Win	True
694.977	1.45	Win2	0.6351	n/a	Yes	2.671	n/a	5.0	GoodResponse	1	0.016	693.993	19	73	Feedback	Win	True
696.432	2.671	Win2	0.6351	n/a	Yes	2.671	n/a	n/a	GoodResponse	1	0.0	n/a	19	73	ISIslide	Win	True
699.123	0.25	Lose2	0.64	0.0	Yes	2.627	0.023	n/a	GoodResponse	0	n/a	n/a	19	74	Cue	AvoidedLoss	False
699.374	4.05	Lose2	0.64	0.0	Yes	2.627	0.001	4.0	GoodResponse	0	0.025	698.399	19	74	Fixation	AvoidedLoss	False
699.399	0.3	Lose2	0.64	0.0	Yes	2.627	0.001	4.0	GoodResponse	0	0.025	n/a	19	74	ButtonPress	AvoidedLoss	False
703.419	0.5	Lose2	0.64	0.004	Yes	2.627	-0.004	4.0	GoodResponse	0	0.184	702.603	19	74	Target	AvoidedLoss	False
703.603	0.3	Lose2	0.64	0.004	Yes	2.627	-0.004	4.0	GoodResponse	0	0.184	n/a	19	74	ButtonPress	AvoidedLoss	False
703.921	0.2	Lose2	0.64	n/a	Yes	2.627	n/a	n/a	GoodResponse	0	n/a	n/a	19	74	Blank	AvoidedLoss	False
704.121	1.45	Lose2	0.64	n/a	Yes	2.627	n/a	5.0	GoodResponse	0	0.043	703.164	19	74	Feedback	AvoidedLoss	False
705.576	2.627	Lose2	0.64	n/a	Yes	2.627	n/a	n/a	GoodResponse	0	0.0	n/a	19	74	ISIslide	AvoidedLoss	False
708.217	0.25	Lose2	0.6446999999999999	0.0	Yes	2.933	0.017	n/a	GoodResponse	0	n/a	n/a	19	75	Cue	AvoidedLoss	True
708.468	3.95	Lose2	0.6446999999999999	0.0	Yes	2.933	0.001	n/a	GoodResponse	0	n/a	n/a	19	75	Fixation	AvoidedLoss	True
712.413	0.5	Lose2	0.6446999999999999	0.004	Yes	2.933	-0.004	4.0	GoodResponse	0	0.2	711.613	19	75	Target	AvoidedLoss	True
712.613	0.3	Lose2	0.6446999999999999	0.004	Yes	2.933	-0.004	4.0	GoodResponse	0	0.2	n/a	19	75	ButtonPress	AvoidedLoss	True
712.914	0.2	Lose2	0.6446999999999999	n/a	Yes	2.933	n/a	n/a	GoodResponse	0	n/a	n/a	19	75	Blank	AvoidedLoss	True
713.115	1.45	Lose2	0.6446999999999999	n/a	Yes	2.933	n/a	5.0	GoodResponse	0	0.024	712.139	19	75	Feedback	AvoidedLoss	True
714.569	2.933	Lose2	0.6446999999999999	n/a	Yes	2.933	n/a	n/a	GoodResponse	0	0.0	n/a	19	75	ISIslide	AvoidedLoss	True
717.528	0.25	Control	0.6364	0.0	No	3.222	0.028	n/a	NoResponse	0	n/a	n/a	19	76	Cue	Neutral	False
717.779	4.05	Control	0.6364	0.0	No	3.222	0.001	n/a	NoResponse	0	n/a	n/a	19	76	Fixation	Neutral	False
721.824	0.5	Control	0.6364	0.004	No	3.222	-0.004	n/a	NoResponse	0	n/a	n/a	19	76	Target	Neutral	False
722.326	0.2	Control	0.6364	n/a	No	3.222	n/a	n/a	NoResponse	0	n/a	n/a	19	76	Blank	Neutral	False
722.526	1.45	Control	0.6364	n/a	No	3.222	n/a	5.0	NoResponse	0	0.027	721.553	19	76	Feedback	Neutral	False
723.981	3.222	Control	0.6364	n/a	No	3.222	n/a	n/a	NoResponse	0	0.0	n/a	19	76	ISIslide	Neutral	False
727.224	0.25	Lose2	0.6409999999999999	0.0	Yes	2.576	0.024	n/a	GoodResponse	0	n/a	n/a	19	77	Cue	AvoidedLoss	True
727.475	3.95	Lose2	0.6409999999999999	0.0	Yes	2.576	0.001	n/a	GoodResponse	0	n/a	n/a	19	77	Fixation	AvoidedLoss	True
731.42	0.5	Lose2	0.6409999999999999	0.004	Yes	2.576	-0.004	4.0	GoodResponse	0	0.207	730.627	19	77	Target	AvoidedLoss	True
731.627	0.3	Lose2	0.6409999999999999	0.004	Yes	2.576	-0.004	4.0	GoodResponse	0	0.207	n/a	19	77	ButtonPress	AvoidedLoss	True
731.921	0.2	Lose2	0.6409999999999999	n/a	Yes	2.576	n/a	n/a	GoodResponse	0	n/a	n/a	19	77	Blank	AvoidedLoss	True
732.122	1.45	Lose2	0.6409999999999999	n/a	Yes	2.576	n/a	5.0	GoodResponse	0	0.041	731.163	19	77	Feedback	AvoidedLoss	True
733.576	2.576	Lose2	0.6409999999999999	n/a	Yes	2.576	n/a	n/a	GoodResponse	0	0.0	n/a	19	77	ISIslide	AvoidedLoss	True
