onset	duration	cue_type	current_mean_accuracy	duration_error	is_hit	isi_adjusted	onset_delay	response	response_type	reward	rt	rt_time	total_reward	trial_number	trial_phase	trial_type	one_press
11.112	0.25	Control	1.0	0.0	Yes	2.938	0.012	n/a	GoodResponse	0	n/a	n/a	0	0	Cue	Neutral	True
11.363	3.85	Control	1.0	0.0	Yes	2.938	0.001	n/a	GoodResponse	0	n/a	n/a	0	0	Fixation	Neutral	True
15.208	0.4	Control	1.0	0.004	Yes	2.938	-0.004	2.0	GoodResponse	0	0.216	14.424	0	0	Target	Neutral	True
15.424	0.3	Control	1.0	0.004	Yes	2.938	-0.004	2.0	GoodResponse	0	0.216	n/a	0	0	ButtonPress	Neutral	True
15.609	0.3	Control	1.0	n/a	Yes	2.938	n/a	n/a	GoodResponse	0	n/a	n/a	0	0	Blank	Neutral	True
15.91	1.45	Control	1.0	n/a	Yes	2.938	n/a	5.0	GoodResponse	0	0.017	14.927	0	0	Feedback	Neutral	True
17.364	2.938	Control	1.0	n/a	Yes	2.938	n/a	n/a	GoodResponse	0	0.0	n/a	0	0	ISIslide	Neutral	True
20.323	0.25	Lose2	1.0	0.0	Yes	2.777	0.023	n/a	GoodResponse	0	n/a	n/a	0	1	Cue	AvoidedLoss	True
20.574	4.0	Lose2	1.0	0.0	Yes	2.777	0.001	n/a	GoodResponse	0	n/a	n/a	0	1	Fixation	AvoidedLoss	True
24.569	0.39	Lose2	1.0	0.004	Yes	2.777	-0.004	2.0	GoodResponse	0	0.176	23.745	0	1	Target	AvoidedLoss	True
24.745	0.3	Lose2	1.0	0.004	Yes	2.777	-0.004	2.0	GoodResponse	0	0.176	n/a	0	1	ButtonPress	AvoidedLoss	True
24.97	0.31	Lose2	1.0	n/a	Yes	2.777	n/a	n/a	GoodResponse	0	n/a	n/a	0	1	Blank	AvoidedLoss	True
25.271	1.45	Lose2	1.0	n/a	Yes	2.777	n/a	5.0	GoodResponse	0	0.022	24.293	0	1	Feedback	AvoidedLoss	True
26.726	2.777	Lose2	1.0	n/a	Yes	2.777	n/a	n/a	GoodResponse	0	0.0	n/a	0	1	ISIslide	AvoidedLoss	True
29.517	0.25	Control	1.0	0.0	Yes	2.583	0.017	n/a	GoodResponse	0	n/a	n/a	0	2	Cue	Neutral	True
29.768	4.1	Control	1.0	0.0	Yes	2.583	0.001	n/a	GoodResponse	0	n/a	n/a	0	2	Fixation	Neutral	True
33.864	0.38	Control	1.0	0.003	Yes	2.583	-0.003	2.0	GoodResponse	0	0.219	33.083	0	2	Target	Neutral	True
34.083	0.3	Control	1.0	0.003	Yes	2.583	-0.003	2.0	GoodResponse	0	0.219	n/a	0	2	ButtonPress	Neutral	True
34.248	0.32	Control	1.0	n/a	Yes	2.583	n/a	n/a	GoodResponse	0	n/a	n/a	0	2	Blank	Neutral	True
34.566	1.45	Control	1.0	n/a	Yes	2.583	n/a	5.0	GoodResponse	0	0.044	33.61	0	2	Feedback	Neutral	True
36.02	2.583	Control	1.0	n/a	Yes	2.583	n/a	n/a	GoodResponse	0	0.0	n/a	0	2	ISIslide	Neutral	True
38.628	0.25	Win2	1.0	0.0	Yes	2.822	0.028	n/a	GoodResponse	1	n/a	n/a	1	3	Cue	Win	True
38.879	3.95	Win2	1.0	0.0	Yes	2.822	0.001	n/a	GoodResponse	1	n/a	n/a	1	3	Fixation	Win	True
42.824	0.37	Win2	1.0	0.004	Yes	2.822	-0.004	2.0	GoodResponse	1	0.191	42.015	1	3	Target	Win	True
43.015	0.3	Win2	1.0	0.004	Yes	2.822	-0.004	2.0	GoodResponse	1	0.191	n/a	1	3	ButtonPress	Win	True
43.208	0.33	Win2	1.0	n/a	Yes	2.822	n/a	n/a	GoodResponse	1	n/a	n/a	1	3	Blank	Win	True
43.526	1.45	Win2	1.0	n/a	Yes	2.822	n/a	5.0	GoodResponse	1	0.01	42.536	1	3	Feedback	Win	True
44.98	2.822	Win2	1.0	n/a	Yes	2.822	n/a	n/a	GoodResponse	1	0.0	n/a	1	3	ISIslide	Win	True
47.822	0.25	Win2	0.8	0.0	No	3.278	0.022	n/a	NoResponse	0	n/a	n/a	1	4	Cue	MissedWin	False
48.073	4.0	Win2	0.8	0.0	No	3.278	0.001	2.0	NoResponse	0	3.899	50.972	1	4	Fixation	MissedWin	False
51.972	0.3	Win2	0.8	0.0	No	3.278	0.001	2.0	NoResponse	0	3.899	n/a	1	4	ButtonPress	MissedWin	False
52.068	0.36	Win2	0.8	0.004	No	3.278	-0.004	2.0	NoResponse	0	0.564	51.632	1	4	Target	MissedWin	False
52.436	0.34	Win2	0.8	n/a	No	3.278	n/a	n/a	NoResponse	0	n/a	n/a	1	4	Blank	MissedWin	False
52.632	0.3	Win2	0.8	0.004	No	3.278	-0.004	2.0	NoResponse	0	0.564	n/a	1	4	ButtonPress	MissedWin	False
52.77	1.45	Win2	0.8	n/a	No	3.278	n/a	5.0	NoResponse	0	0.034	51.804	1	4	Feedback	MissedWin	False
54.224	3.278	Win2	0.8	n/a	No	3.278	n/a	n/a	NoResponse	0	0.0	n/a	1	4	ISIslide	MissedWin	False
57.518	0.25	Win2	0.8332999999999999	0.0	Yes	2.782	0.018	n/a	GoodResponse	1	n/a	n/a	2	5	Cue	Win	True
57.768	4.0	Win2	0.8332999999999999	0.001	Yes	2.782	0.0	n/a	GoodResponse	1	n/a	n/a	2	5	Fixation	Win	True
61.764	0.35	Win2	0.8332999999999999	0.004	Yes	2.782	-0.004	2.0	GoodResponse	1	0.205	60.969	2	5	Target	Win	True
61.969	0.3	Win2	0.8332999999999999	0.004	Yes	2.782	-0.004	2.0	GoodResponse	1	0.205	n/a	2	5	ButtonPress	Win	True
62.115	0.35	Win2	0.8332999999999999	n/a	Yes	2.782	n/a	n/a	GoodResponse	1	n/a	n/a	2	5	Blank	Win	True
62.466	1.45	Win2	0.8332999999999999	n/a	Yes	2.782	n/a	5.0	GoodResponse	1	0.046	61.512	2	5	Feedback	Win	True
63.92	2.782	Win2	0.8332999999999999	n/a	Yes	2.782	n/a	n/a	GoodResponse	1	0.0	n/a	2	5	ISIslide	Win	True
66.729	0.25	Lose2	0.8571	0.0	Yes	2.721	0.029	n/a	GoodResponse	0	n/a	n/a	2	6	Cue	AvoidedLoss	True
66.979	3.95	Lose2	0.8571	0.0	Yes	2.721	0.0	n/a	GoodResponse	0	n/a	n/a	2	6	Fixation	AvoidedLoss	True
70.941	0.34	Lose2	0.8571	0.0	Yes	2.721	0.012	2.0	GoodResponse	0	0.197	70.138	2	6	Target	AvoidedLoss	True
71.138	0.3	Lose2	0.8571	0.0	Yes	2.721	0.012	2.0	GoodResponse	0	0.197	n/a	2	6	ButtonPress	AvoidedLoss	True
71.276	0.36	Lose2	0.8571	n/a	Yes	2.721	n/a	n/a	GoodResponse	0	n/a	n/a	2	6	Blank	AvoidedLoss	True
71.627	1.45	Lose2	0.8571	n/a	Yes	2.721	n/a	5.0	GoodResponse	0	0.007	70.634	2	6	Feedback	AvoidedLoss	True
73.081	2.721	Lose2	0.8571	n/a	Yes	2.721	n/a	n/a	GoodResponse	0	0.0	n/a	2	6	ISIslide	AvoidedLoss	True
75.822	0.25	Lose2	0.875	0.001	Yes	4.028	0.022	n/a	GoodResponse	0	n/a	n/a	2	7	Cue	AvoidedLoss	True
76.073	4.05	Lose2	0.875	0.0	Yes	4.028	0.001	n/a	GoodResponse	0	n/a	n/a	2	7	Fixation	AvoidedLoss	True
80.119	0.33	Lose2	0.875	0.003	Yes	4.028	-0.003	2.0	GoodResponse	0	0.187	79.306	2	7	Target	AvoidedLoss	True
80.306	0.3	Lose2	0.875	0.003	Yes	4.028	-0.003	2.0	GoodResponse	0	0.187	n/a	2	7	ButtonPress	AvoidedLoss	True
80.453	0.37	Lose2	0.875	n/a	Yes	4.028	n/a	n/a	GoodResponse	0	n/a	n/a	2	7	Blank	AvoidedLoss	True
80.821	1.45	Lose2	0.875	n/a	Yes	4.028	n/a	5.0	GoodResponse	0	0.032	79.853	2	7	Feedback	AvoidedLoss	True
82.275	4.028	Lose2	0.875	n/a	Yes	4.028	n/a	n/a	GoodResponse	0	0.0	n/a	2	7	ISIslide	AvoidedLoss	True
86.321	0.25	Lose2	0.8889	0.0	Yes	3.029	0.021	n/a	GoodResponse	0	n/a	n/a	2	8	Cue	AvoidedLoss	True
86.571	3.95	Lose2	0.8889	0.0	Yes	3.029	0.0	n/a	GoodResponse	0	n/a	n/a	2	8	Fixation	AvoidedLoss	True
90.533	0.32	Lose2	0.8889	0.0	Yes	3.029	0.012	2.0	GoodResponse	0	0.178	89.711	2	8	Target	AvoidedLoss	True
90.711	0.3	Lose2	0.8889	0.0	Yes	3.029	0.012	2.0	GoodResponse	0	0.178	n/a	2	8	ButtonPress	AvoidedLoss	True
90.851	0.38	Lose2	0.8889	n/a	Yes	3.029	n/a	n/a	GoodResponse	0	n/a	n/a	2	8	Blank	AvoidedLoss	True
91.219	1.45	Lose2	0.8889	n/a	Yes	3.029	n/a	5.0	GoodResponse	0	0.025	90.244	2	8	Feedback	AvoidedLoss	True
92.673	3.029	Lose2	0.8889	n/a	Yes	3.029	n/a	n/a	GoodResponse	0	0.0	n/a	2	8	ISIslide	AvoidedLoss	True
95.715	0.25	Lose2	0.9	0.0	Yes	3.135	0.015	n/a	GoodResponse	0	n/a	n/a	2	9	Cue	AvoidedLoss	False
95.966	3.95	Lose2	0.9	0.0	Yes	3.135	0.001	2.0	GoodResponse	0	3.706	98.672	2	9	Fixation	AvoidedLoss	False
99.672	0.3	Lose2	0.9	0.0	Yes	3.135	0.001	2.0	GoodResponse	0	3.706	n/a	2	9	ButtonPress	AvoidedLoss	False
99.911	0.31	Lose2	0.9	0.004	Yes	3.135	-0.004	2.0	GoodResponse	0	0.292	99.203	2	9	Target	AvoidedLoss	False
100.203	0.3	Lose2	0.9	0.004	Yes	3.135	-0.004	2.0	GoodResponse	0	0.292	n/a	2	9	ButtonPress	AvoidedLoss	False
100.229	0.39	Lose2	0.9	n/a	Yes	3.135	n/a	n/a	GoodResponse	0	n/a	n/a	2	9	Blank	AvoidedLoss	False
100.613	1.45	Lose2	0.9	n/a	Yes	3.135	n/a	5.0	GoodResponse	0	0.044	99.657	2	9	Feedback	AvoidedLoss	False
102.068	3.135	Lose2	0.9	n/a	Yes	3.135	n/a	n/a	GoodResponse	0	0.0	n/a	2	9	ISIslide	AvoidedLoss	False
105.227	0.25	Control	0.9091	0.0	Yes	3.273	0.027	n/a	GoodResponse	0	n/a	n/a	2	10	Cue	Neutral	True
105.478	4.0	Control	0.9091	0.0	Yes	3.273	0.001	n/a	GoodResponse	0	n/a	n/a	2	10	Fixation	Neutral	True
109.473	0.3	Control	0.9091	0.004	Yes	3.273	-0.004	2.0	GoodResponse	0	0.201	108.674	2	10	Target	Neutral	True
109.674	0.3	Control	0.9091	0.004	Yes	3.273	-0.004	2.0	GoodResponse	0	0.201	n/a	2	10	ButtonPress	Neutral	True
109.774	0.4	Control	0.9091	n/a	Yes	3.273	n/a	n/a	GoodResponse	0	n/a	n/a	2	10	Blank	Neutral	True
110.175	1.45	Control	0.9091	n/a	Yes	3.273	n/a	5.0	GoodResponse	0	0.044	109.219	2	10	Feedback	Neutral	True
111.63	3.273	Control	0.9091	n/a	Yes	3.273	n/a	n/a	GoodResponse	0	0.0	n/a	2	10	ISIslide	Neutral	True
114.923	0.25	Lose2	0.9167000000000001	0.0	Yes	2.727	0.023	n/a	GoodResponse	0	n/a	n/a	2	11	Cue	AvoidedLoss	True
115.174	4.05	Lose2	0.9167000000000001	0.0	Yes	2.727	0.001	n/a	GoodResponse	0	n/a	n/a	2	11	Fixation	AvoidedLoss	True
119.219	0.29	Lose2	0.9167000000000001	0.004	Yes	2.727	-0.004	2.0	GoodResponse	0	0.184	118.403	2	11	Target	AvoidedLoss	True
119.403	0.3	Lose2	0.9167000000000001	0.004	Yes	2.727	-0.004	2.0	GoodResponse	0	0.184	n/a	2	11	ButtonPress	AvoidedLoss	True
119.52	0.41	Lose2	0.9167000000000001	n/a	Yes	2.727	n/a	n/a	GoodResponse	0	n/a	n/a	2	11	Blank	AvoidedLoss	True
119.921	1.45	Lose2	0.9167000000000001	n/a	Yes	2.727	n/a	5.0	GoodResponse	0	0.005	118.926	2	11	Feedback	AvoidedLoss	True
121.375	2.727	Lose2	0.9167000000000001	n/a	Yes	2.727	n/a	n/a	GoodResponse	0	0.0	n/a	2	11	ISIslide	AvoidedLoss	True
124.117	0.25	Control	0.9231	0.0	Yes	2.983	0.017	n/a	GoodResponse	0	n/a	n/a	2	12	Cue	Neutral	True
124.368	3.9	Control	0.9231	0.0	Yes	2.983	0.001	n/a	GoodResponse	0	n/a	n/a	2	12	Fixation	Neutral	True
128.263	0.28	Control	0.9231	0.004	Yes	2.983	-0.004	2.0	GoodResponse	0	0.163	127.426	2	12	Target	Neutral	True
128.426	0.3	Control	0.9231	0.004	Yes	2.983	-0.004	2.0	GoodResponse	0	0.163	n/a	2	12	ButtonPress	Neutral	True
128.547	0.42	Control	0.9231	n/a	Yes	2.983	n/a	n/a	GoodResponse	0	n/a	n/a	2	12	Blank	Neutral	True
128.965	1.45	Control	0.9231	n/a	Yes	2.983	n/a	5.0	GoodResponse	0	0.034	127.999	2	12	Feedback	Neutral	True
130.419	2.983	Control	0.9231	n/a	Yes	2.983	n/a	n/a	GoodResponse	0	0.0	n/a	2	12	ISIslide	Neutral	True
133.428	0.25	Control	0.9286	0.0	Yes	2.772	0.028	n/a	GoodResponse	0	n/a	n/a	2	13	Cue	Neutral	True
133.679	4.0	Control	0.9286	0.0	Yes	2.772	0.001	n/a	GoodResponse	0	n/a	n/a	2	13	Fixation	Neutral	True
137.674	0.27	Control	0.9286	0.004	Yes	2.772	-0.004	2.0	GoodResponse	0	0.165	136.839	2	13	Target	Neutral	True
137.839	0.3	Control	0.9286	0.004	Yes	2.772	-0.004	2.0	GoodResponse	0	0.165	n/a	2	13	ButtonPress	Neutral	True
137.958	0.43	Control	0.9286	n/a	Yes	2.772	n/a	n/a	GoodResponse	0	n/a	n/a	2	13	Blank	Neutral	True
138.376	1.45	Control	0.9286	n/a	Yes	2.772	n/a	5.0	GoodResponse	0	0.038	137.414	2	13	Feedback	Neutral	True
139.831	2.772	Control	0.9286	n/a	Yes	2.772	n/a	n/a	GoodResponse	0	0.0	n/a	2	13	ISIslide	Neutral	True
142.622	0.25	Win2	0.9333	0.001	Yes	2.678	0.022	n/a	GoodResponse	1	n/a	n/a	3	14	Cue	Win	True
142.873	4.1	Win2	0.9333	0.0	Yes	2.678	0.001	n/a	GoodResponse	1	n/a	n/a	3	14	Fixation	Win	True
146.969	0.26	Win2	0.9333	0.003	Yes	2.678	-0.003	2.0	GoodResponse	1	0.182	146.151	3	14	Target	Win	True
147.151	0.3	Win2	0.9333	0.003	Yes	2.678	-0.003	2.0	GoodResponse	1	0.182	n/a	3	14	ButtonPress	Win	True
147.236	0.44	Win2	0.9333	n/a	Yes	2.678	n/a	n/a	GoodResponse	1	n/a	n/a	3	14	Blank	Win	True
147.671	1.45	Win2	0.9333	n/a	Yes	2.678	n/a	5.0	GoodResponse	1	0.01	146.681	3	14	Feedback	Win	True
149.125	2.678	Win2	0.9333	n/a	Yes	2.678	n/a	n/a	GoodResponse	1	0.0	n/a	3	14	ISIslide	Win	True
151.817	0.25	Control	0.9375	0.0	Yes	2.983	0.017	n/a	GoodResponse	0	n/a	n/a	3	15	Cue	Neutral	True
152.067	4.0	Control	0.9375	0.0	Yes	2.983	0.0	n/a	GoodResponse	0	n/a	n/a	3	15	Fixation	Neutral	True
156.063	0.25	Control	0.9375	0.004	Yes	2.983	-0.004	2.0	GoodResponse	0	0.218	155.281	3	15	Target	Neutral	True
156.281	0.3	Control	0.9375	0.004	Yes	2.983	-0.004	2.0	GoodResponse	0	0.218	n/a	3	15	ButtonPress	Neutral	True
156.313	0.45	Control	0.9375	n/a	Yes	2.983	n/a	n/a	GoodResponse	0	n/a	n/a	3	15	Blank	Neutral	True
156.765	1.45	Control	0.9375	n/a	Yes	2.983	n/a	5.0	GoodResponse	0	0.038	155.803	3	15	Feedback	Neutral	True
158.219	2.983	Control	0.9375	n/a	Yes	2.983	n/a	n/a	GoodResponse	0	0.0	n/a	3	15	ISIslide	Neutral	True
161.228	0.25	Win2	0.9412	0.0	Yes	2.872	0.028	n/a	GoodResponse	1	n/a	n/a	4	16	Cue	Win	True
161.479	4.0	Win2	0.9412	0.0	Yes	2.872	0.001	n/a	GoodResponse	1	n/a	n/a	4	16	Fixation	Win	True
165.474	0.24	Win2	0.9412	0.004	Yes	2.872	-0.004	2.0	GoodResponse	1	0.173	164.647	4	16	Target	Win	True
165.647	0.3	Win2	0.9412	0.004	Yes	2.872	-0.004	2.0	GoodResponse	1	0.173	n/a	4	16	ButtonPress	Win	True
165.725	0.46	Win2	0.9412	n/a	Yes	2.872	n/a	n/a	GoodResponse	1	n/a	n/a	4	16	Blank	Win	True
166.176	1.45	Win2	0.9412	n/a	Yes	2.872	n/a	5.0	GoodResponse	1	0.042	165.218	4	16	Feedback	Win	True
167.631	2.872	Win2	0.9412	n/a	Yes	2.872	n/a	n/a	GoodResponse	1	0.0	n/a	4	16	ISIslide	Win	True
170.523	0.25	Lose2	0.9444	0.0	Yes	2.727	0.023	n/a	GoodResponse	0	n/a	n/a	4	17	Cue	AvoidedLoss	True
170.773	3.95	Lose2	0.9444	0.0	Yes	2.727	0.0	n/a	GoodResponse	0	n/a	n/a	4	17	Fixation	AvoidedLoss	True
174.735	0.23	Lose2	0.9444	0.0	Yes	2.727	0.012	2.0	GoodResponse	0	0.209	173.944	4	17	Target	AvoidedLoss	True
174.944	0.3	Lose2	0.9444	0.0	Yes	2.727	0.012	2.0	GoodResponse	0	0.209	n/a	4	17	ButtonPress	AvoidedLoss	True
174.953	0.47	Lose2	0.9444	n/a	Yes	2.727	n/a	n/a	GoodResponse	0	n/a	n/a	4	17	Blank	AvoidedLoss	True
175.421	1.45	Lose2	0.9444	n/a	Yes	2.727	n/a	5.0	GoodResponse	0	0.017	174.438	4	17	Feedback	AvoidedLoss	True
176.875	2.727	Lose2	0.9444	n/a	Yes	2.727	n/a	n/a	GoodResponse	0	0.0	n/a	4	17	ISIslide	AvoidedLoss	True
179.616	0.25	Lose2	0.9473999999999999	0.001	Yes	2.734	0.016	n/a	GoodResponse	0	n/a	n/a	4	18	Cue	AvoidedLoss	True
179.867	4.05	Lose2	0.9473999999999999	0.0	Yes	2.734	0.001	n/a	GoodResponse	0	n/a	n/a	4	18	Fixation	AvoidedLoss	True
183.913	0.22	Lose2	0.9473999999999999	0.003	Yes	2.734	-0.003	2.0	GoodResponse	0	0.198	183.111	4	18	Target	AvoidedLoss	True
184.111	0.3	Lose2	0.9473999999999999	0.003	Yes	2.734	-0.003	2.0	GoodResponse	0	0.198	n/a	4	18	ButtonPress	AvoidedLoss	True
184.147	0.48	Lose2	0.9473999999999999	n/a	Yes	2.734	n/a	n/a	GoodResponse	0	n/a	n/a	4	18	Blank	AvoidedLoss	True
184.615	1.45	Lose2	0.9473999999999999	n/a	Yes	2.734	n/a	5.0	GoodResponse	0	0.042	183.657	4	18	Feedback	AvoidedLoss	True
186.069	2.734	Lose2	0.9473999999999999	n/a	Yes	2.734	n/a	n/a	GoodResponse	0	0.0	n/a	4	18	ISIslide	AvoidedLoss	True
188.827	0.25	Control	0.95	0.001	Yes	2.923	0.027	n/a	GoodResponse	0	n/a	n/a	4	19	Cue	Neutral	True
189.078	3.95	Control	0.95	0.0	Yes	2.923	0.001	n/a	GoodResponse	0	n/a	n/a	4	19	Fixation	Neutral	True
193.023	0.21	Control	0.95	0.004	Yes	2.923	-0.004	2.0	GoodResponse	0	0.174	192.197	4	19	Target	Neutral	True
193.197	0.3	Control	0.95	0.004	Yes	2.923	-0.004	2.0	GoodResponse	0	0.174	n/a	4	19	ButtonPress	Neutral	True
193.241	0.49	Control	0.95	n/a	Yes	2.923	n/a	n/a	GoodResponse	0	n/a	n/a	4	19	Blank	Neutral	True
193.725	1.45	Control	0.95	n/a	Yes	2.923	n/a	5.0	GoodResponse	0	0.005	192.73	4	19	Feedback	Neutral	True
195.18	2.923	Control	0.95	n/a	Yes	2.923	n/a	n/a	GoodResponse	0	0.0	n/a	4	19	ISIslide	Neutral	True
198.122	0.25	Control	0.9048	0.0	No	2.628	0.022	n/a	NoResponse	0	n/a	n/a	4	20	Cue	Neutral	True
198.373	4.05	Control	0.9048	0.0	No	2.628	0.001	n/a	NoResponse	0	n/a	n/a	4	20	Fixation	Neutral	True
202.418	0.2	Control	0.9048	0.004	No	2.628	-0.004	2.0	NoResponse	0	0.234	201.652	4	20	Target	Neutral	True
202.619	0.5	Control	0.9048	n/a	No	2.628	n/a	n/a	NoResponse	0	n/a	n/a	4	20	Blank	Neutral	True
202.652	0.3	Control	0.9048	0.004	No	2.628	-0.004	2.0	NoResponse	0	0.234	n/a	4	20	ButtonPress	Neutral	True
203.12	1.45	Control	0.9048	n/a	No	2.628	n/a	5.0	NoResponse	0	0.024	202.144	4	20	Feedback	Neutral	True
204.575	2.628	Control	0.9048	n/a	No	2.628	n/a	n/a	NoResponse	0	0.0	n/a	4	20	ISIslide	Neutral	True
207.216	0.25	Control	0.9091	0.0	Yes	2.784	0.016	n/a	GoodResponse	0	n/a	n/a	4	21	Cue	Neutral	True
207.467	4.1	Control	0.9091	0.0	Yes	2.784	0.001	n/a	GoodResponse	0	n/a	n/a	4	21	Fixation	Neutral	True
211.562	0.19	Control	0.9091	0.004	Yes	2.784	-0.004	2.0	GoodResponse	0	0.166	210.728	4	21	Target	Neutral	True
211.728	0.3	Control	0.9091	0.004	Yes	2.784	-0.004	2.0	GoodResponse	0	0.166	n/a	4	21	ButtonPress	Neutral	True
211.763	0.51	Control	0.9091	n/a	Yes	2.784	n/a	n/a	GoodResponse	0	n/a	n/a	4	21	Blank	Neutral	True
212.264	1.45	Control	0.9091	n/a	Yes	2.784	n/a	5.0	GoodResponse	0	0.002	211.266	4	21	Feedback	Neutral	True
213.719	2.784	Control	0.9091	n/a	Yes	2.784	n/a	n/a	GoodResponse	0	0.0	n/a	4	21	ISIslide	Neutral	True
216.527	0.25	Control	0.8695999999999999	0.0	No	2.773	0.027	n/a	NoResponse	0	n/a	n/a	4	22	Cue	Neutral	True
216.778	4.0	Control	0.8695999999999999	0.0	No	2.773	0.001	n/a	NoResponse	0	n/a	n/a	4	22	Fixation	Neutral	True
220.773	0.18	Control	0.8695999999999999	0.004	No	2.773	-0.004	2.0	NoResponse	0	0.209	219.982	4	22	Target	Neutral	True
220.957	0.52	Control	0.8695999999999999	n/a	No	2.773	n/a	n/a	NoResponse	0	n/a	n/a	4	22	Blank	Neutral	True
220.982	0.3	Control	0.8695999999999999	0.004	No	2.773	-0.004	2.0	NoResponse	0	0.209	n/a	4	22	ButtonPress	Neutral	True
221.475	1.45	Control	0.8695999999999999	n/a	No	2.773	n/a	5.0	NoResponse	0	0.011	220.486	4	22	Feedback	Neutral	True
222.929	2.773	Control	0.8695999999999999	n/a	No	2.773	n/a	n/a	NoResponse	0	0.0	n/a	4	22	ISIslide	Neutral	True
225.721	0.25	Control	0.875	0.0	Yes	2.779	0.021	n/a	GoodResponse	0	n/a	n/a	4	23	Cue	Neutral	True
225.972	3.9	Control	0.875	0.0	Yes	2.779	0.001	n/a	GoodResponse	0	n/a	n/a	4	23	Fixation	Neutral	True
229.867	0.17	Control	0.875	0.004	Yes	2.779	-0.004	2.0	GoodResponse	0	0.158	229.025	4	23	Target	Neutral	True
230.025	0.3	Control	0.875	0.004	Yes	2.779	-0.004	2.0	GoodResponse	0	0.158	n/a	4	23	ButtonPress	Neutral	True
230.051	0.53	Control	0.875	n/a	Yes	2.779	n/a	n/a	GoodResponse	0	n/a	n/a	4	23	Blank	Neutral	True
230.569	1.45	Control	0.875	n/a	Yes	2.779	n/a	5.0	GoodResponse	0	0.039	229.608	4	23	Feedback	Neutral	True
232.023	2.779	Control	0.875	n/a	Yes	2.779	n/a	n/a	GoodResponse	0	0.0	n/a	4	23	ISIslide	Neutral	True
234.815	0.25	Win2	0.88	0.0	Yes	3.135	0.015	n/a	GoodResponse	1	n/a	n/a	5	24	Cue	Win	True
235.066	3.95	Win2	0.88	0.0	Yes	3.135	0.001	n/a	GoodResponse	1	n/a	n/a	5	24	Fixation	Win	True
239.011	0.16	Win2	0.88	0.004	Yes	3.135	-0.004	2.0	GoodResponse	1	0.157	238.168	5	24	Target	Win	True
239.168	0.3	Win2	0.88	0.004	Yes	3.135	-0.004	2.0	GoodResponse	1	0.157	n/a	5	24	ButtonPress	Win	True
239.178	0.54	Win2	0.88	n/a	Yes	3.135	n/a	n/a	GoodResponse	1	n/a	n/a	5	24	Blank	Win	True
239.713	1.45	Win2	0.88	n/a	Yes	3.135	n/a	5.0	GoodResponse	1	0.017	238.73	5	24	Feedback	Win	True
241.167	3.135	Win2	0.88	n/a	Yes	3.135	n/a	n/a	GoodResponse	1	0.0	n/a	5	24	ISIslide	Win	True
244.327	0.25	Win2	0.8462000000000001	0.0	No	3.073	0.027	n/a	NoResponse	0	n/a	n/a	5	25	Cue	MissedWin	True
244.578	4.0	Win2	0.8462000000000001	0.0	No	3.073	0.001	n/a	NoResponse	0	n/a	n/a	5	25	Fixation	MissedWin	True
248.573	0.15	Win2	0.8462000000000001	0.004	No	3.073	-0.004	2.0	NoResponse	0	0.218	247.791	5	25	Target	MissedWin	True
248.723	0.55	Win2	0.8462000000000001	n/a	No	3.073	n/a	n/a	NoResponse	0	n/a	n/a	5	25	Blank	MissedWin	True
248.791	0.3	Win2	0.8462000000000001	0.004	No	3.073	-0.004	2.0	NoResponse	0	0.218	n/a	5	25	ButtonPress	MissedWin	True
249.275	1.45	Win2	0.8462000000000001	n/a	No	3.073	n/a	5.0	NoResponse	0	0.015	248.29	5	25	Feedback	MissedWin	True
250.729	3.073	Win2	0.8462000000000001	n/a	No	3.073	n/a	n/a	NoResponse	0	0.0	n/a	5	25	ISIslide	MissedWin	True
253.822	0.25	Win2	0.8148000000000001	0.0	No	2.928	0.022	n/a	NoResponse	0	n/a	n/a	5	26	Cue	MissedWin	False
254.073	3.95	Win2	0.8148000000000001	0.0	No	2.928	0.001	2.0	NoResponse	0	0.358	253.431	5	26	Fixation	MissedWin	False
254.431	0.3	Win2	0.8148000000000001	0.0	No	2.928	0.001	2.0	NoResponse	0	0.358	n/a	5	26	ButtonPress	MissedWin	False
258.018	0.15	Win2	0.8148000000000001	0.004	No	2.928	-0.004	2.0	NoResponse	0	0.253	257.271	5	26	Target	MissedWin	False
258.168	0.55	Win2	0.8148000000000001	n/a	No	2.928	n/a	n/a	NoResponse	0	n/a	n/a	5	26	Blank	MissedWin	False
258.271	0.3	Win2	0.8148000000000001	0.004	No	2.928	-0.004	2.0	NoResponse	0	0.253	n/a	5	26	ButtonPress	MissedWin	False
258.72	1.45	Win2	0.8148000000000001	n/a	No	2.928	n/a	5.0	NoResponse	0	0.034	257.754	5	26	Feedback	MissedWin	False
260.174	2.928	Win2	0.8148000000000001	n/a	No	2.928	n/a	n/a	NoResponse	0	0.0	n/a	5	26	ISIslide	MissedWin	False
263.116	0.25	Lose2	0.7857	0.001	No	2.834	0.016	n/a	LatePress	-1	n/a	n/a	4	27	Cue	Loss	True
263.367	4.05	Lose2	0.7857	0.0	No	2.834	0.001	n/a	LatePress	-1	n/a	n/a	4	27	Fixation	Loss	True
267.413	0.15	Lose2	0.7857	0.003	No	2.834	-0.003	2.0	LatePress	-1	0.15	266.563	4	27	Target	Loss	True
267.563	0.55	Lose2	0.7857	n/a	No	2.834	n/a	n/a	LatePress	-1	n/a	n/a	4	27	Blank	Loss	True
267.563	0.3	Lose2	0.7857	0.003	No	2.834	-0.003	2.0	LatePress	-1	0.15	n/a	4	27	ButtonPress	Loss	True
268.115	1.45	Lose2	0.7857	n/a	No	2.834	n/a	5.0	LatePress	-1	0.005	267.12	4	27	Feedback	Loss	True
269.569	2.834	Lose2	0.7857	n/a	No	2.834	n/a	n/a	LatePress	-1	0.0	n/a	4	27	ISIslide	Loss	True
272.428	0.25	Control	0.7585999999999999	0.0	No	2.822	0.028	n/a	NoResponse	0	n/a	n/a	4	28	Cue	Neutral	True
272.678	4.05	Control	0.7585999999999999	0.0	No	2.822	0.0	n/a	NoResponse	0	n/a	n/a	4	28	Fixation	Neutral	True
276.724	0.15	Control	0.7585999999999999	0.004	No	2.822	-0.004	2.0	NoResponse	0	0.181	275.905	4	28	Target	Neutral	True
276.874	0.55	Control	0.7585999999999999	n/a	No	2.822	n/a	n/a	NoResponse	0	n/a	n/a	4	28	Blank	Neutral	True
276.905	0.3	Control	0.7585999999999999	0.004	No	2.822	-0.004	2.0	NoResponse	0	0.181	n/a	4	28	ButtonPress	Neutral	True
277.426	1.45	Control	0.7585999999999999	n/a	No	2.822	n/a	5.0	NoResponse	0	0.011	276.437	4	28	Feedback	Neutral	True
278.88	2.822	Control	0.7585999999999999	n/a	No	2.822	n/a	n/a	NoResponse	0	0.0	n/a	4	28	ISIslide	Neutral	True
281.722	0.25	Lose2	0.7333	0.0	No	2.828	0.022	n/a	PrematurePress	-1	n/a	n/a	3	29	Cue	Loss	False
281.973	3.95	Lose2	0.7333	0.0	No	2.828	0.001	2.0	PrematurePress	-1	3.452	284.425	3	29	Fixation	Loss	False
285.425	0.3	Lose2	0.7333	0.0	No	2.828	0.001	2.0	PrematurePress	-1	3.452	n/a	3	29	ButtonPress	Loss	False
285.918	0.15	Lose2	0.7333	0.004	No	2.828	-0.004	2.0	PrematurePress	-1	0.061	284.979	3	29	Target	Loss	False
285.979	0.3	Lose2	0.7333	0.004	No	2.828	-0.004	2.0	PrematurePress	-1	0.061	n/a	3	29	ButtonPress	Loss	False
286.068	0.55	Lose2	0.7333	n/a	No	2.828	n/a	n/a	PrematurePress	-1	n/a	n/a	3	29	Blank	Loss	False
286.62	1.45	Lose2	0.7333	n/a	No	2.828	n/a	5.0	PrematurePress	-1	0.036	285.656	3	29	Feedback	Loss	False
288.074	2.828	Lose2	0.7333	n/a	No	2.828	n/a	n/a	PrematurePress	-1	0.0	n/a	3	29	ISIslide	Loss	False
290.916	0.25	Win2	0.7097	0.0	No	2.784	0.016	n/a	NoResponse	0	n/a	n/a	3	30	Cue	MissedWin	True
291.167	3.9	Win2	0.7097	0.0	No	2.784	0.001	n/a	NoResponse	0	n/a	n/a	3	30	Fixation	MissedWin	True
295.062	0.15	Win2	0.7097	0.004	No	2.784	-0.004	2.0	NoResponse	0	0.168	294.23	3	30	Target	MissedWin	True
295.213	0.55	Win2	0.7097	n/a	No	2.784	n/a	n/a	NoResponse	0	n/a	n/a	3	30	Blank	MissedWin	True
295.23	0.3	Win2	0.7097	0.004	No	2.784	-0.004	2.0	NoResponse	0	0.168	n/a	3	30	ButtonPress	MissedWin	True
295.764	1.45	Win2	0.7097	n/a	No	2.784	n/a	5.0	NoResponse	0	0.013	294.777	3	30	Feedback	MissedWin	True
297.219	2.784	Win2	0.7097	n/a	No	2.784	n/a	n/a	NoResponse	0	0.0	n/a	3	30	ISIslide	MissedWin	True
300.027	0.25	Lose2	0.6875	0.0	No	2.823	0.027	n/a	NoResponse	-1	n/a	n/a	2	31	Cue	Loss	True
300.278	4.05	Lose2	0.6875	0.0	No	2.823	0.001	n/a	NoResponse	-1	n/a	n/a	2	31	Fixation	Loss	True
304.323	0.15	Lose2	0.6875	0.004	No	2.823	-0.004	2.0	NoResponse	-1	0.161	303.484	2	31	Target	Loss	True
304.474	0.55	Lose2	0.6875	n/a	No	2.823	n/a	n/a	NoResponse	-1	n/a	n/a	2	31	Blank	Loss	True
304.484	0.3	Lose2	0.6875	0.004	No	2.823	-0.004	2.0	NoResponse	-1	0.161	n/a	2	31	ButtonPress	Loss	True
305.025	1.45	Lose2	0.6875	n/a	No	2.823	n/a	5.0	NoResponse	-1	0.021	304.046	2	31	Feedback	Loss	True
306.48	2.823	Lose2	0.6875	n/a	No	2.823	n/a	n/a	NoResponse	-1	0.0	n/a	2	31	ISIslide	Loss	True
309.321	0.25	Lose2	0.6667000000000001	0.001	No	2.629	0.021	n/a	NoResponse	-1	n/a	n/a	1	32	Cue	Loss	True
309.572	4.15	Lose2	0.6667000000000001	0.0	No	2.629	0.001	n/a	NoResponse	-1	n/a	n/a	1	32	Fixation	Loss	True
313.718	0.15	Lose2	0.6667000000000001	0.003	No	2.629	-0.003	2.0	NoResponse	-1	0.179	312.897	1	32	Target	Loss	True
313.868	0.55	Lose2	0.6667000000000001	n/a	No	2.629	n/a	n/a	NoResponse	-1	n/a	n/a	1	32	Blank	Loss	True
313.897	0.3	Lose2	0.6667000000000001	0.003	No	2.629	-0.003	2.0	NoResponse	-1	0.179	n/a	1	32	ButtonPress	Loss	True
314.42	1.45	Lose2	0.6667000000000001	n/a	No	2.629	n/a	5.0	NoResponse	-1	0.041	313.461	1	32	Feedback	Loss	True
315.874	2.629	Lose2	0.6667000000000001	n/a	No	2.629	n/a	n/a	NoResponse	-1	0.0	n/a	1	32	ISIslide	Loss	True
318.516	0.25	Win2	0.6470999999999999	0.0	No	2.684	0.016	n/a	NoResponse	0	n/a	n/a	1	33	Cue	MissedWin	False
318.766	4.0	Win2	0.6470999999999999	0.0	No	2.684	0.0	2.0	NoResponse	0	3.128	320.894	1	33	Fixation	MissedWin	False
321.894	0.3	Win2	0.6470999999999999	0.0	No	2.684	0.0	2.0	NoResponse	0	3.128	n/a	1	33	ButtonPress	MissedWin	False
322.762	0.15	Win2	0.6470999999999999	0.004	No	2.684	-0.004	2.0	NoResponse	0	0.287	322.049	1	33	Target	MissedWin	False
322.912	0.55	Win2	0.6470999999999999	n/a	No	2.684	n/a	n/a	NoResponse	0	n/a	n/a	1	33	Blank	MissedWin	False
323.049	0.3	Win2	0.6470999999999999	0.004	No	2.684	-0.004	2.0	NoResponse	0	0.287	n/a	1	33	ButtonPress	MissedWin	False
323.464	1.45	Win2	0.6470999999999999	n/a	No	2.684	n/a	5.0	NoResponse	0	0.021	322.485	1	33	Feedback	MissedWin	False
324.918	2.684	Win2	0.6470999999999999	n/a	No	2.684	n/a	n/a	NoResponse	0	0.0	n/a	1	33	ISIslide	MissedWin	False
327.626	0.25	Lose2	0.6286	0.0	No	2.624	0.026	n/a	NoResponse	-1	n/a	n/a	0	34	Cue	Loss	False
327.877	4.05	Lose2	0.6286	0.0	No	2.624	0.001	n/a	NoResponse	-1	n/a	n/a	0	34	Fixation	Loss	False
331.922	0.16	Lose2	0.6286	0.004	No	2.624	-0.004	n/a	NoResponse	-1	n/a	n/a	0	34	Target	Loss	False
332.09	0.54	Lose2	0.6286	n/a	No	2.624	n/a	n/a	NoResponse	-1	n/a	n/a	0	34	Blank	Loss	False
332.624	1.45	Lose2	0.6286	n/a	No	2.624	n/a	5.0	NoResponse	-1	0.032	331.656	0	34	Feedback	Loss	False
334.079	2.624	Lose2	0.6286	n/a	No	2.624	n/a	n/a	NoResponse	-1	0.0	n/a	0	34	ISIslide	Loss	False
336.72	0.25	Lose2	0.6111	0.0	No	2.68	0.02	n/a	NoResponse	-1	n/a	n/a	-1	35	Cue	Loss	True
336.971	4.0	Lose2	0.6111	0.0	No	2.68	0.001	2.0	NoResponse	-1	3.056	339.027	-1	35	Fixation	Loss	True
340.027	0.3	Lose2	0.6111	0.0	No	2.68	0.001	2.0	NoResponse	-1	3.056	n/a	-1	35	ButtonPress	Loss	True
340.966	0.17	Lose2	0.6111	0.004	No	2.68	-0.004	n/a	NoResponse	-1	n/a	n/a	-1	35	Target	Loss	True
341.15	0.53	Lose2	0.6111	n/a	No	2.68	n/a	n/a	NoResponse	-1	n/a	n/a	-1	35	Blank	Loss	True
341.668	1.45	Lose2	0.6111	n/a	No	2.68	n/a	5.0	NoResponse	-1	0.012	340.68	-1	35	Feedback	Loss	True
343.123	2.68	Lose2	0.6111	n/a	No	2.68	n/a	n/a	NoResponse	-1	0.0	n/a	-1	35	ISIslide	Loss	True
345.814	0.25	Control	0.5946	0.0	No	2.686	0.014	n/a	NoResponse	0	n/a	n/a	-1	36	Cue	Neutral	True
346.065	4.0	Control	0.5946	0.0	No	2.686	0.001	2.0	NoResponse	0	3.9	348.965	-1	36	Fixation	Neutral	True
349.965	0.3	Control	0.5946	0.0	No	2.686	0.001	2.0	NoResponse	0	3.9	n/a	-1	36	ButtonPress	Neutral	True
350.06	0.18	Control	0.5946	0.004	No	2.686	-0.004	n/a	NoResponse	0	n/a	n/a	-1	36	Target	Neutral	True
350.244	0.52	Control	0.5946	n/a	No	2.686	n/a	n/a	NoResponse	0	n/a	n/a	-1	36	Blank	Neutral	True
350.762	1.45	Control	0.5946	n/a	No	2.686	n/a	5.0	NoResponse	0	0.039	349.801	-1	36	Feedback	Neutral	True
352.216	2.686	Control	0.5946	n/a	No	2.686	n/a	n/a	NoResponse	0	0.0	n/a	-1	36	ISIslide	Neutral	True
354.925	0.25	Win2	0.5789	0.0	No	2.875	0.025	n/a	NoResponse	0	n/a	n/a	-1	37	Cue	MissedWin	False
355.175	4.0	Win2	0.5789	0.0	No	2.875	0.0	2.0	NoResponse	0	3.277	357.452	-1	37	Fixation	MissedWin	False
358.452	0.3	Win2	0.5789	0.0	No	2.875	0.0	2.0	NoResponse	0	3.277	n/a	-1	37	ButtonPress	MissedWin	False
359.171	0.19	Win2	0.5789	0.004	No	2.875	-0.004	2.0	NoResponse	0	0.247	358.418	-1	37	Target	MissedWin	False
359.371	0.51	Win2	0.5789	n/a	No	2.875	n/a	n/a	NoResponse	0	n/a	n/a	-1	37	Blank	MissedWin	False
359.418	0.3	Win2	0.5789	0.004	No	2.875	-0.004	2.0	NoResponse	0	0.247	n/a	-1	37	ButtonPress	MissedWin	False
359.873	1.45	Win2	0.5789	n/a	No	2.875	n/a	5.0	NoResponse	0	0.002	358.875	-1	37	Feedback	MissedWin	False
361.327	2.875	Win2	0.5789	n/a	No	2.875	n/a	n/a	NoResponse	0	0.0	n/a	-1	37	ISIslide	MissedWin	False
364.219	0.25	Lose2	0.5640999999999999	0.0	No	2.831	0.019	n/a	NoResponse	-1	n/a	n/a	-2	38	Cue	Loss	True
364.47	3.95	Lose2	0.5640999999999999	0.0	No	2.831	0.001	n/a	NoResponse	-1	n/a	n/a	-2	38	Fixation	Loss	True
368.415	0.2	Lose2	0.5640999999999999	0.004	No	2.831	-0.004	2.0	NoResponse	-1	0.241	367.656	-2	38	Target	Loss	True
368.616	0.5	Lose2	0.5640999999999999	n/a	No	2.831	n/a	n/a	NoResponse	-1	n/a	n/a	-2	38	Blank	Loss	True
368.656	0.3	Lose2	0.5640999999999999	0.004	No	2.831	-0.004	2.0	NoResponse	-1	0.241	n/a	-2	38	ButtonPress	Loss	True
369.117	1.45	Lose2	0.5640999999999999	n/a	No	2.831	n/a	5.0	NoResponse	-1	0.026	368.143	-2	38	Feedback	Loss	True
370.571	2.831	Lose2	0.5640999999999999	n/a	No	2.831	n/a	n/a	NoResponse	-1	0.0	n/a	-2	38	ISIslide	Loss	True
373.413	0.25	Win2	0.575	0.0	Yes	2.987	0.013	n/a	GoodResponse	1	n/a	n/a	-1	39	Cue	Win	True
373.664	4.1	Win2	0.575	0.0	Yes	2.987	0.001	n/a	GoodResponse	1	n/a	n/a	-1	39	Fixation	Win	True
377.76	0.21	Win2	0.575	0.003	Yes	2.987	-0.003	2.0	GoodResponse	1	0.17	376.93	-1	39	Target	Win	True
377.93	0.3	Win2	0.575	0.003	Yes	2.987	-0.003	2.0	GoodResponse	1	0.17	n/a	-1	39	ButtonPress	Win	True
377.977	0.49	Win2	0.575	n/a	Yes	2.987	n/a	n/a	GoodResponse	1	n/a	n/a	-1	39	Blank	Win	True
378.462	1.45	Win2	0.575	n/a	Yes	2.987	n/a	5.0	GoodResponse	1	0.047	377.509	-1	39	Feedback	Win	True
379.916	2.987	Win2	0.575	n/a	Yes	2.987	n/a	n/a	GoodResponse	1	0.0	n/a	-1	39	ISIslide	Win	True
382.925	0.25	Win2	0.5854	0.0	Yes	2.725	0.025	n/a	GoodResponse	1	n/a	n/a	0	40	Cue	Win	True
383.176	3.95	Win2	0.5854	0.0	Yes	2.725	0.001	n/a	GoodResponse	1	n/a	n/a	0	40	Fixation	Win	True
387.121	0.22	Win2	0.5854	0.004	Yes	2.725	-0.004	2.0	GoodResponse	1	0.164	386.285	0	40	Target	Win	True
387.285	0.3	Win2	0.5854	0.004	Yes	2.725	-0.004	2.0	GoodResponse	1	0.164	n/a	0	40	ButtonPress	Win	True
387.355	0.48	Win2	0.5854	n/a	Yes	2.725	n/a	n/a	GoodResponse	1	n/a	n/a	0	40	Blank	Win	True
387.823	1.45	Win2	0.5854	n/a	Yes	2.725	n/a	5.0	GoodResponse	1	0.005	386.828	0	40	Feedback	Win	True
389.277	2.725	Win2	0.5854	n/a	Yes	2.725	n/a	n/a	GoodResponse	1	0.0	n/a	0	40	ISIslide	Win	True
392.019	0.25	Win2	0.5952000000000001	0.0	Yes	2.781	0.019	n/a	GoodResponse	1	n/a	n/a	1	41	Cue	Win	True
392.27	3.9	Win2	0.5952000000000001	0.0	Yes	2.781	0.001	n/a	GoodResponse	1	n/a	n/a	1	41	Fixation	Win	True
396.165	0.23	Win2	0.5952000000000001	0.004	Yes	2.781	-0.004	2.0	GoodResponse	1	0.194	395.359	1	41	Target	Win	True
396.359	0.3	Win2	0.5952000000000001	0.004	Yes	2.781	-0.004	2.0	GoodResponse	1	0.194	n/a	1	41	ButtonPress	Win	True
396.399	0.47	Win2	0.5952000000000001	n/a	Yes	2.781	n/a	n/a	GoodResponse	1	n/a	n/a	1	41	Blank	Win	True
396.867	1.45	Win2	0.5952000000000001	n/a	Yes	2.781	n/a	5.0	GoodResponse	1	0.031	395.898	1	41	Feedback	Win	True
398.321	2.781	Win2	0.5952000000000001	n/a	Yes	2.781	n/a	n/a	GoodResponse	1	0.0	n/a	1	41	ISIslide	Win	True
401.113	0.25	Control	0.6047	0.0	Yes	2.937	0.013	n/a	GoodResponse	0	n/a	n/a	1	42	Cue	Neutral	False
401.364	3.85	Control	0.6047	0.0	Yes	2.937	0.001	2.0	GoodResponse	0	3.64	404.004	1	42	Fixation	Neutral	False
405.004	0.3	Control	0.6047	0.0	Yes	2.937	0.001	2.0	GoodResponse	0	3.64	n/a	1	42	ButtonPress	Neutral	False
405.225	0.24	Control	0.6047	0.0	Yes	2.937	0.012	2.0	GoodResponse	0	0.23	404.455	1	42	Target	Neutral	False
405.455	0.3	Control	0.6047	0.0	Yes	2.937	0.012	2.0	GoodResponse	0	0.23	n/a	1	42	ButtonPress	Neutral	False
405.459	0.46	Control	0.6047	n/a	Yes	2.937	n/a	n/a	GoodResponse	0	n/a	n/a	1	42	Blank	Neutral	False
405.911	1.45	Control	0.6047	n/a	Yes	2.937	n/a	5.0	GoodResponse	0	0.012	404.923	1	42	Feedback	Neutral	False
407.365	2.937	Control	0.6047	n/a	Yes	2.937	n/a	n/a	GoodResponse	0	0.0	n/a	1	42	ISIslide	Neutral	False
410.324	0.25	Win2	0.6136	0.0	Yes	3.176	0.024	n/a	GoodResponse	1	n/a	n/a	2	43	Cue	Win	True
410.574	4.0	Win2	0.6136	0.001	Yes	3.176	0.0	n/a	GoodResponse	1	n/a	n/a	2	43	Fixation	Win	True
414.57	0.25	Win2	0.6136	0.004	Yes	3.176	-0.004	2.0	GoodResponse	1	0.164	413.734	2	43	Target	Win	True
414.734	0.3	Win2	0.6136	0.004	Yes	3.176	-0.004	2.0	GoodResponse	1	0.164	n/a	2	43	ButtonPress	Win	True
414.821	0.45	Win2	0.6136	n/a	Yes	3.176	n/a	n/a	GoodResponse	1	n/a	n/a	2	43	Blank	Win	True
415.272	1.45	Win2	0.6136	n/a	Yes	3.176	n/a	5.0	GoodResponse	1	0.017	414.289	2	43	Feedback	Win	True
416.726	3.176	Win2	0.6136	n/a	Yes	3.176	n/a	n/a	GoodResponse	1	0.0	n/a	2	43	ISIslide	Win	True
419.919	0.25	Win2	0.6222	0.0	Yes	2.981	0.019	n/a	GoodResponse	1	n/a	n/a	3	44	Cue	Win	True
420.17	4.0	Win2	0.6222	0.0	Yes	2.981	0.001	n/a	GoodResponse	1	n/a	n/a	3	44	Fixation	Win	True
424.165	0.26	Win2	0.6222	0.004	Yes	2.981	-0.004	2.0	GoodResponse	1	0.161	423.326	3	44	Target	Win	True
424.326	0.3	Win2	0.6222	0.004	Yes	2.981	-0.004	2.0	GoodResponse	1	0.161	n/a	3	44	ButtonPress	Win	True
424.433	0.44	Win2	0.6222	n/a	Yes	2.981	n/a	n/a	GoodResponse	1	n/a	n/a	3	44	Blank	Win	True
424.867	1.45	Win2	0.6222	n/a	Yes	2.981	n/a	5.0	GoodResponse	1	0.032	423.899	3	44	Feedback	Win	True
426.322	2.981	Win2	0.6222	n/a	Yes	2.981	n/a	n/a	GoodResponse	1	0.0	n/a	3	44	ISIslide	Win	True
429.314	0.25	Control	0.6304	0.0	Yes	2.886	0.014	n/a	GoodResponse	0	n/a	n/a	3	45	Cue	Neutral	True
429.565	4.1	Control	0.6304	0.0	Yes	2.886	0.001	n/a	GoodResponse	0	n/a	n/a	3	45	Fixation	Neutral	True
433.66	0.27	Control	0.6304	0.004	Yes	2.886	-0.004	2.0	GoodResponse	0	0.159	432.819	3	45	Target	Neutral	True
433.819	0.3	Control	0.6304	0.004	Yes	2.886	-0.004	2.0	GoodResponse	0	0.159	n/a	3	45	ButtonPress	Neutral	True
433.944	0.43	Control	0.6304	n/a	Yes	2.886	n/a	n/a	GoodResponse	0	n/a	n/a	3	45	Blank	Neutral	True
434.362	1.45	Control	0.6304	n/a	Yes	2.886	n/a	5.0	GoodResponse	0	0.049	433.411	3	45	Feedback	Neutral	True
435.817	2.886	Control	0.6304	n/a	Yes	2.886	n/a	n/a	GoodResponse	0	0.0	n/a	3	45	ISIslide	Neutral	True
438.725	0.25	Lose2	0.6383	0.001	Yes	3.375	0.025	n/a	GoodResponse	0	n/a	n/a	3	46	Cue	AvoidedLoss	True
438.976	4.0	Lose2	0.6383	0.0	Yes	3.375	0.001	n/a	GoodResponse	0	n/a	n/a	3	46	Fixation	AvoidedLoss	True
442.971	0.28	Lose2	0.6383	0.004	Yes	3.375	-0.004	2.0	GoodResponse	0	0.154	442.125	3	46	Target	AvoidedLoss	True
443.125	0.3	Lose2	0.6383	0.004	Yes	3.375	-0.004	2.0	GoodResponse	0	0.154	n/a	3	46	ButtonPress	AvoidedLoss	True
443.256	0.42	Lose2	0.6383	n/a	Yes	3.375	n/a	n/a	GoodResponse	0	n/a	n/a	3	46	Blank	AvoidedLoss	True
443.674	1.45	Lose2	0.6383	n/a	Yes	3.375	n/a	5.0	GoodResponse	0	0.005	442.679	3	46	Feedback	AvoidedLoss	True
445.128	3.375	Lose2	0.6383	n/a	Yes	3.375	n/a	n/a	GoodResponse	0	0.0	n/a	3	46	ISIslide	AvoidedLoss	True
448.521	0.25	Lose2	0.6457999999999999	0.0	Yes	2.679	0.021	n/a	GoodResponse	0	n/a	n/a	3	47	Cue	AvoidedLoss	True
448.772	4.0	Lose2	0.6457999999999999	0.0	Yes	2.679	0.001	n/a	GoodResponse	0	n/a	n/a	3	47	Fixation	AvoidedLoss	True
452.767	0.29	Lose2	0.6457999999999999	0.004	Yes	2.679	-0.004	2.0	GoodResponse	0	0.182	451.949	3	47	Target	AvoidedLoss	True
452.949	0.3	Lose2	0.6457999999999999	0.004	Yes	2.679	-0.004	2.0	GoodResponse	0	0.182	n/a	3	47	ButtonPress	AvoidedLoss	True
453.068	0.41	Lose2	0.6457999999999999	n/a	Yes	2.679	n/a	n/a	GoodResponse	0	n/a	n/a	3	47	Blank	AvoidedLoss	True
453.47	1.45	Lose2	0.6457999999999999	n/a	Yes	2.679	n/a	5.0	GoodResponse	0	0.013	452.483	3	47	Feedback	AvoidedLoss	True
454.924	2.679	Lose2	0.6457999999999999	n/a	Yes	2.679	n/a	n/a	GoodResponse	0	0.0	n/a	3	47	ISIslide	AvoidedLoss	True
457.615	0.25	Lose2	0.6531	0.0	Yes	3.035	0.015	n/a	GoodResponse	0	n/a	n/a	3	48	Cue	AvoidedLoss	True
457.866	3.95	Lose2	0.6531	0.0	Yes	3.035	0.001	n/a	GoodResponse	0	n/a	n/a	3	48	Fixation	AvoidedLoss	True
461.811	0.3	Lose2	0.6531	0.004	Yes	3.035	-0.004	2.0	GoodResponse	0	0.172	460.983	3	48	Target	AvoidedLoss	True
461.983	0.3	Lose2	0.6531	0.004	Yes	3.035	-0.004	2.0	GoodResponse	0	0.172	n/a	3	48	ButtonPress	AvoidedLoss	True
462.112	0.4	Lose2	0.6531	n/a	Yes	3.035	n/a	n/a	GoodResponse	0	n/a	n/a	3	48	Blank	AvoidedLoss	True
462.513	1.45	Lose2	0.6531	n/a	Yes	3.035	n/a	5.0	GoodResponse	0	0.044	461.557	3	48	Feedback	AvoidedLoss	True
463.968	3.035	Lose2	0.6531	n/a	Yes	3.035	n/a	n/a	GoodResponse	0	0.0	n/a	3	48	ISIslide	AvoidedLoss	True
467.027	0.25	Control	0.64	0.0	No	2.873	0.027	n/a	NoResponse	0	n/a	n/a	3	49	Cue	Neutral	False
467.278	4.0	Control	0.64	0.0	No	2.873	0.001	2.0	NoResponse	0	3.941	470.219	3	49	Fixation	Neutral	False
471.219	0.3	Control	0.64	0.0	No	2.873	0.001	2.0	NoResponse	0	3.941	n/a	3	49	ButtonPress	Neutral	False
471.273	0.31	Control	0.64	0.004	No	2.873	-0.004	2.0	NoResponse	0	0.404	470.677	3	49	Target	Neutral	False
471.59	0.39	Control	0.64	n/a	No	2.873	n/a	n/a	NoResponse	0	n/a	n/a	3	49	Blank	Neutral	False
471.677	0.3	Control	0.64	0.004	No	2.873	-0.004	2.0	NoResponse	0	0.404	n/a	3	49	ButtonPress	Neutral	False
471.975	1.45	Control	0.64	n/a	No	2.873	n/a	5.0	NoResponse	0	0.045	471.02	3	49	Feedback	Neutral	False
473.429	2.873	Control	0.64	n/a	No	2.873	n/a	n/a	NoResponse	0	0.0	n/a	3	49	ISIslide	Neutral	False
476.321	0.25	Control	0.6470999999999999	0.0	Yes	2.779	0.021	n/a	GoodResponse	0	n/a	n/a	3	50	Cue	Neutral	True
476.572	4.0	Control	0.6470999999999999	0.0	Yes	2.779	0.001	n/a	GoodResponse	0	n/a	n/a	3	50	Fixation	Neutral	True
480.567	0.32	Control	0.6470999999999999	0.004	Yes	2.779	-0.004	2.0	GoodResponse	0	0.169	479.736	3	50	Target	Neutral	True
480.736	0.3	Control	0.6470999999999999	0.004	Yes	2.779	-0.004	2.0	GoodResponse	0	0.169	n/a	3	50	ButtonPress	Neutral	True
480.902	0.38	Control	0.6470999999999999	n/a	Yes	2.779	n/a	n/a	GoodResponse	0	n/a	n/a	3	50	Blank	Neutral	True
481.269	1.45	Control	0.6470999999999999	n/a	Yes	2.779	n/a	5.0	GoodResponse	0	0.02	480.289	3	50	Feedback	Neutral	True
482.724	2.779	Control	0.6470999999999999	n/a	Yes	2.779	n/a	n/a	GoodResponse	0	0.0	n/a	3	50	ISIslide	Neutral	True
485.515	0.25	Control	0.6537999999999999	0.001	Yes	2.735	0.015	n/a	GoodResponse	0	n/a	n/a	3	51	Cue	Neutral	True
485.766	3.95	Control	0.6537999999999999	0.0	Yes	2.735	0.001	n/a	GoodResponse	0	n/a	n/a	3	51	Fixation	Neutral	True
489.711	0.33	Control	0.6537999999999999	0.004	Yes	2.735	-0.004	2.0	GoodResponse	0	0.264	488.975	3	51	Target	Neutral	True
489.975	0.3	Control	0.6537999999999999	0.004	Yes	2.735	-0.004	2.0	GoodResponse	0	0.264	n/a	3	51	ButtonPress	Neutral	True
490.046	0.37	Control	0.6537999999999999	n/a	Yes	2.735	n/a	n/a	GoodResponse	0	n/a	n/a	3	51	Blank	Neutral	True
490.413	1.45	Control	0.6537999999999999	n/a	Yes	2.735	n/a	5.0	GoodResponse	0	0.046	489.459	3	51	Feedback	Neutral	True
491.868	2.735	Control	0.6537999999999999	n/a	Yes	2.735	n/a	n/a	GoodResponse	0	0.0	n/a	3	51	ISIslide	Neutral	True
494.626	0.25	Control	0.6604000000000001	0.0	Yes	2.624	0.026	n/a	GoodResponse	0	n/a	n/a	3	52	Cue	Neutral	True
494.877	4.05	Control	0.6604000000000001	0.0	Yes	2.624	0.001	n/a	GoodResponse	0	n/a	n/a	3	52	Fixation	Neutral	True
498.922	0.34	Control	0.6604000000000001	0.004	Yes	2.624	-0.004	2.0	GoodResponse	0	0.293	498.215	3	52	Target	Neutral	True
499.215	0.3	Control	0.6604000000000001	0.004	Yes	2.624	-0.004	2.0	GoodResponse	0	0.293	n/a	3	52	ButtonPress	Neutral	True
499.273	0.36	Control	0.6604000000000001	n/a	Yes	2.624	n/a	n/a	GoodResponse	0	n/a	n/a	3	52	Blank	Neutral	True
499.624	1.45	Control	0.6604000000000001	n/a	Yes	2.624	n/a	5.0	GoodResponse	0	0.005	498.629	3	52	Feedback	Neutral	True
501.079	2.624	Control	0.6604000000000001	n/a	Yes	2.624	n/a	n/a	GoodResponse	0	0.0	n/a	3	52	ISIslide	Neutral	True
503.72	0.25	Win2	0.6667000000000001	0.0	Yes	2.93	0.02	n/a	GoodResponse	1	n/a	n/a	4	53	Cue	Win	False
503.971	4.05	Win2	0.6667000000000001	0.0	Yes	2.93	0.001	2.0	GoodResponse	1	2.782	505.753	4	53	Fixation	Win	False
506.753	0.3	Win2	0.6667000000000001	0.0	Yes	2.93	0.001	2.0	GoodResponse	1	2.782	n/a	4	53	ButtonPress	Win	False
508.016	0.34	Win2	0.6667000000000001	0.004	Yes	2.93	-0.004	2.0	GoodResponse	1	0.197	507.213	4	53	Target	Win	False
508.213	0.3	Win2	0.6667000000000001	0.004	Yes	2.93	-0.004	2.0	GoodResponse	1	0.197	n/a	4	53	ButtonPress	Win	False
508.367	0.36	Win2	0.6667000000000001	n/a	Yes	2.93	n/a	n/a	GoodResponse	1	n/a	n/a	4	53	Blank	Win	False
508.718	1.45	Win2	0.6667000000000001	n/a	Yes	2.93	n/a	5.0	GoodResponse	1	0.033	507.751	4	53	Feedback	Win	False
510.173	2.93	Win2	0.6667000000000001	n/a	Yes	2.93	n/a	n/a	GoodResponse	1	0.0	n/a	4	53	ISIslide	Win	False
513.115	0.25	Win2	0.6727	0.0	Yes	2.735	0.015	n/a	GoodResponse	1	n/a	n/a	5	54	Cue	Win	True
513.366	3.95	Win2	0.6727	0.0	Yes	2.735	0.001	n/a	GoodResponse	1	n/a	n/a	5	54	Fixation	Win	True
517.311	0.33	Win2	0.6727	0.004	Yes	2.735	-0.004	2.0	GoodResponse	1	0.19	516.501	5	54	Target	Win	True
517.501	0.3	Win2	0.6727	0.004	Yes	2.735	-0.004	2.0	GoodResponse	1	0.19	n/a	5	54	ButtonPress	Win	True
517.645	0.37	Win2	0.6727	n/a	Yes	2.735	n/a	n/a	GoodResponse	1	n/a	n/a	5	54	Blank	Win	True
518.013	1.45	Win2	0.6727	n/a	Yes	2.735	n/a	5.0	GoodResponse	1	0.007	517.02	5	54	Feedback	Win	True
519.467	2.735	Win2	0.6727	n/a	Yes	2.735	n/a	n/a	GoodResponse	1	0.0	n/a	5	54	ISIslide	Win	True
522.225	0.25	Control	0.6786	0.0	Yes	3.025	0.025	n/a	GoodResponse	0	n/a	n/a	5	55	Cue	Neutral	True
522.476	3.95	Control	0.6786	0.0	Yes	3.025	0.001	n/a	GoodResponse	0	n/a	n/a	5	55	Fixation	Neutral	True
526.421	0.32	Control	0.6786	0.004	Yes	3.025	-0.004	2.0	GoodResponse	0	0.164	525.585	5	55	Target	Neutral	True
526.585	0.3	Control	0.6786	0.004	Yes	3.025	-0.004	2.0	GoodResponse	0	0.164	n/a	5	55	ButtonPress	Neutral	True
526.756	0.38	Control	0.6786	n/a	Yes	3.025	n/a	n/a	GoodResponse	0	n/a	n/a	5	55	Blank	Neutral	True
527.123	1.45	Control	0.6786	n/a	Yes	3.025	n/a	5.0	GoodResponse	0	0.019	526.142	5	55	Feedback	Neutral	True
528.578	3.025	Control	0.6786	n/a	Yes	3.025	n/a	n/a	GoodResponse	0	0.0	n/a	5	55	ISIslide	Neutral	True
531.62	0.25	Control	0.6667000000000001	0.0	No	2.83	0.02	n/a	NoResponse	0	n/a	n/a	5	56	Cue	Neutral	True
531.871	3.95	Control	0.6667000000000001	0.0	No	2.83	0.001	n/a	NoResponse	0	n/a	n/a	5	56	Fixation	Neutral	True
535.816	0.31	Control	0.6667000000000001	0.004	No	2.83	-0.004	2.0	NoResponse	0	0.353	535.169	5	56	Target	Neutral	True
536.134	0.39	Control	0.6667000000000001	n/a	No	2.83	n/a	n/a	NoResponse	0	n/a	n/a	5	56	Blank	Neutral	True
536.169	0.3	Control	0.6667000000000001	0.004	No	2.83	-0.004	2.0	NoResponse	0	0.353	n/a	5	56	ButtonPress	Neutral	True
536.518	1.45	Control	0.6667000000000001	n/a	No	2.83	n/a	5.0	NoResponse	0	0.038	535.556	5	56	Feedback	Neutral	True
537.972	2.83	Control	0.6667000000000001	n/a	No	2.83	n/a	n/a	NoResponse	0	0.0	n/a	5	56	ISIslide	Neutral	True
540.814	0.25	Control	0.6724	0.0	Yes	3.486	0.014	n/a	GoodResponse	0	n/a	n/a	5	57	Cue	Neutral	True
541.065	4.0	Control	0.6724	0.0	Yes	3.486	0.001	n/a	GoodResponse	0	n/a	n/a	5	57	Fixation	Neutral	True
545.06	0.3	Control	0.6724	0.004	Yes	3.486	-0.004	2.0	GoodResponse	0	0.152	544.212	5	57	Target	Neutral	True
545.212	0.3	Control	0.6724	0.004	Yes	3.486	-0.004	2.0	GoodResponse	0	0.152	n/a	5	57	ButtonPress	Neutral	True
545.361	0.4	Control	0.6724	n/a	Yes	3.486	n/a	n/a	GoodResponse	0	n/a	n/a	5	57	Blank	Neutral	True
545.762	1.45	Control	0.6724	n/a	Yes	3.486	n/a	5.0	GoodResponse	0	0.013	544.775	5	57	Feedback	Neutral	True
547.217	3.486	Control	0.6724	n/a	Yes	3.486	n/a	n/a	GoodResponse	0	0.0	n/a	5	57	ISIslide	Neutral	True
550.727	0.25	Win2	0.6779999999999999	0.0	Yes	2.723	0.027	n/a	GoodResponse	1	n/a	n/a	6	58	Cue	Win	True
550.978	4.05	Win2	0.6779999999999999	0.0	Yes	2.723	0.001	n/a	GoodResponse	1	n/a	n/a	6	58	Fixation	Win	True
555.024	0.29	Win2	0.6779999999999999	0.003	Yes	2.723	-0.003	2.0	GoodResponse	1	0.154	554.178	6	58	Target	Win	True
555.178	0.3	Win2	0.6779999999999999	0.003	Yes	2.723	-0.003	2.0	GoodResponse	1	0.154	n/a	6	58	ButtonPress	Win	True
555.324	0.41	Win2	0.6779999999999999	n/a	Yes	2.723	n/a	n/a	GoodResponse	1	n/a	n/a	6	58	Blank	Win	True
555.726	1.45	Win2	0.6779999999999999	n/a	Yes	2.723	n/a	5.0	GoodResponse	1	0.0	554.726	6	58	Feedback	Win	True
557.18	2.723	Win2	0.6779999999999999	n/a	Yes	2.723	n/a	n/a	GoodResponse	1	0.0	n/a	6	58	ISIslide	Win	True
559.922	0.25	Lose2	0.6667000000000001	0.0	No	2.678	0.022	n/a	NoResponse	-1	n/a	n/a	5	59	Cue	Loss	False
560.172	4.0	Lose2	0.6667000000000001	0.0	No	2.678	0.0	2.0	NoResponse	-1	3.996	563.168	5	59	Fixation	Loss	False
564.168	0.28	Lose2	0.6667000000000001	0.004	No	2.678	-0.004	2.0	NoResponse	-1	0.0	563.168	5	59	Target	Loss	False
564.168	0.3	Lose2	0.6667000000000001	0.0	No	2.678	0.0	2.0	NoResponse	-1	3.996	n/a	5	59	ButtonPress	Loss	False
564.168	0.3	Lose2	0.6667000000000001	0.004	No	2.678	-0.004	2.0	NoResponse	-1	0.0	n/a	5	59	ButtonPress	Loss	False
564.452	0.42	Lose2	0.6667000000000001	n/a	No	2.678	n/a	n/a	NoResponse	-1	n/a	n/a	5	59	Blank	Loss	False
564.87	1.45	Lose2	0.6667000000000001	n/a	No	2.678	n/a	5.0	NoResponse	-1	0.027	563.897	5	59	Feedback	Loss	False
566.324	2.678	Lose2	0.6667000000000001	n/a	No	2.678	n/a	n/a	NoResponse	-1	0.0	n/a	5	59	ISIslide	Loss	False
569.015	0.25	Control	0.6720999999999999	0.001	Yes	2.685	0.015	n/a	GoodResponse	0	n/a	n/a	5	60	Cue	Neutral	True
569.266	4.0	Control	0.6720999999999999	0.0	Yes	2.685	0.001	n/a	GoodResponse	0	n/a	n/a	5	60	Fixation	Neutral	True
573.261	0.27	Control	0.6720999999999999	0.004	Yes	2.685	-0.004	2.0	GoodResponse	0	0.196	572.457	5	60	Target	Neutral	True
573.457	0.3	Control	0.6720999999999999	0.004	Yes	2.685	-0.004	2.0	GoodResponse	0	0.196	n/a	5	60	ButtonPress	Neutral	True
573.546	0.43	Control	0.6720999999999999	n/a	Yes	2.685	n/a	n/a	GoodResponse	0	n/a	n/a	5	60	Blank	Neutral	True
573.964	1.45	Control	0.6720999999999999	n/a	Yes	2.685	n/a	5.0	GoodResponse	0	0.007	572.971	5	60	Feedback	Neutral	True
575.418	2.685	Control	0.6720999999999999	n/a	Yes	2.685	n/a	n/a	GoodResponse	0	0.0	n/a	5	60	ISIslide	Neutral	True
578.126	0.25	Lose2	0.6774	0.0	Yes	2.974	0.026	n/a	GoodResponse	0	n/a	n/a	5	61	Cue	AvoidedLoss	True
578.377	4.0	Lose2	0.6774	0.0	Yes	2.974	0.001	n/a	GoodResponse	0	n/a	n/a	5	61	Fixation	AvoidedLoss	True
582.372	0.26	Lose2	0.6774	0.004	Yes	2.974	-0.004	2.0	GoodResponse	0	0.171	581.543	5	61	Target	AvoidedLoss	True
582.543	0.3	Lose2	0.6774	0.004	Yes	2.974	-0.004	2.0	GoodResponse	0	0.171	n/a	5	61	ButtonPress	AvoidedLoss	True
582.64	0.44	Lose2	0.6774	n/a	Yes	2.974	n/a	n/a	GoodResponse	0	n/a	n/a	5	61	Blank	AvoidedLoss	True
583.074	1.45	Lose2	0.6774	n/a	Yes	2.974	n/a	5.0	GoodResponse	0	0.019	582.093	5	61	Feedback	AvoidedLoss	True
584.529	2.974	Lose2	0.6774	n/a	Yes	2.974	n/a	n/a	GoodResponse	0	0.0	n/a	5	61	ISIslide	AvoidedLoss	True
587.521	0.25	Lose2	0.6667000000000001	0.0	No	2.879	0.021	n/a	NoResponse	-1	n/a	n/a	4	62	Cue	Loss	True
587.772	3.9	Lose2	0.6667000000000001	0.0	No	2.879	0.001	n/a	NoResponse	-1	n/a	n/a	4	62	Fixation	Loss	True
591.667	0.25	Lose2	0.6667000000000001	0.004	No	2.879	-0.004	2.0	NoResponse	-1	0.264	590.931	4	62	Target	Loss	True
591.917	0.45	Lose2	0.6667000000000001	n/a	No	2.879	n/a	n/a	NoResponse	-1	n/a	n/a	4	62	Blank	Loss	True
591.931	0.3	Lose2	0.6667000000000001	0.004	No	2.879	-0.004	2.0	NoResponse	-1	0.264	n/a	4	62	ButtonPress	Loss	True
592.369	1.45	Lose2	0.6667000000000001	n/a	No	2.879	n/a	5.0	NoResponse	-1	0.041	591.41	4	62	Feedback	Loss	True
593.823	2.879	Lose2	0.6667000000000001	n/a	No	2.879	n/a	n/a	NoResponse	-1	0.0	n/a	4	62	ISIslide	Loss	True
596.715	0.25	Lose2	0.6718999999999999	0.0	Yes	2.635	0.015	n/a	GoodResponse	0	n/a	n/a	4	63	Cue	AvoidedLoss	True
596.966	4.05	Lose2	0.6718999999999999	0.0	Yes	2.635	0.001	n/a	GoodResponse	0	n/a	n/a	4	63	Fixation	AvoidedLoss	True
601.011	0.24	Lose2	0.6718999999999999	0.004	Yes	2.635	-0.004	2.0	GoodResponse	0	0.176	600.187	4	63	Target	AvoidedLoss	True
601.187	0.3	Lose2	0.6718999999999999	0.004	Yes	2.635	-0.004	2.0	GoodResponse	0	0.176	n/a	4	63	ButtonPress	AvoidedLoss	True
601.262	0.46	Lose2	0.6718999999999999	n/a	Yes	2.635	n/a	n/a	GoodResponse	0	n/a	n/a	4	63	Blank	AvoidedLoss	True
601.713	1.45	Lose2	0.6718999999999999	n/a	Yes	2.635	n/a	5.0	GoodResponse	0	0.013	600.726	4	63	Feedback	AvoidedLoss	True
603.168	2.635	Lose2	0.6718999999999999	n/a	Yes	2.635	n/a	n/a	GoodResponse	0	0.0	n/a	4	63	ISIslide	AvoidedLoss	True
605.826	0.25	Win2	0.6769	0.0	Yes	3.124	0.026	n/a	GoodResponse	1	n/a	n/a	5	64	Cue	Win	False
606.076	4.15	Win2	0.6769	0.0	Yes	3.124	0.0	2.0	GoodResponse	1	3.999	609.075	5	64	Fixation	Win	False
610.075	0.3	Win2	0.6769	0.0	Yes	3.124	0.0	2.0	GoodResponse	1	3.999	n/a	5	64	ButtonPress	Win	False
610.222	0.23	Win2	0.6769	0.004	Yes	3.124	-0.004	2.0	GoodResponse	1	0.219	609.441	5	64	Target	Win	False
610.441	0.3	Win2	0.6769	0.004	Yes	3.124	-0.004	2.0	GoodResponse	1	0.219	n/a	5	64	ButtonPress	Win	False
610.456	0.47	Win2	0.6769	n/a	Yes	3.124	n/a	n/a	GoodResponse	1	n/a	n/a	5	64	Blank	Win	False
610.924	1.45	Win2	0.6769	n/a	Yes	3.124	n/a	5.0	GoodResponse	1	0.022	609.946	5	64	Feedback	Win	False
612.379	3.124	Win2	0.6769	n/a	Yes	3.124	n/a	n/a	GoodResponse	1	0.0	n/a	5	64	ISIslide	Win	False
615.521	0.25	Control	0.6667000000000001	0.0	No	2.779	0.021	n/a	NoResponse	0	n/a	n/a	5	65	Cue	Neutral	True
615.772	4.0	Control	0.6667000000000001	0.0	No	2.779	0.001	n/a	NoResponse	0	n/a	n/a	5	65	Fixation	Neutral	True
619.767	0.22	Control	0.6667000000000001	0.004	No	2.779	-0.004	2.0	NoResponse	0	0.246	619.013	5	65	Target	Neutral	True
620.001	0.48	Control	0.6667000000000001	n/a	No	2.779	n/a	n/a	NoResponse	0	n/a	n/a	5	65	Blank	Neutral	True
620.013	0.3	Control	0.6667000000000001	0.004	No	2.779	-0.004	2.0	NoResponse	0	0.246	n/a	5	65	ButtonPress	Neutral	True
620.469	1.45	Control	0.6667000000000001	n/a	No	2.779	n/a	5.0	NoResponse	0	0.038	619.507	5	65	Feedback	Neutral	True
621.924	2.779	Control	0.6667000000000001	n/a	No	2.779	n/a	n/a	NoResponse	0	0.0	n/a	5	65	ISIslide	Neutral	True
624.715	0.25	Win2	0.6567000000000001	0.001	No	2.785	0.015	n/a	LatePress	0	n/a	n/a	5	66	Cue	MissedWin	True
624.966	3.9	Win2	0.6567000000000001	0.0	No	2.785	0.001	n/a	LatePress	0	n/a	n/a	5	66	Fixation	MissedWin	True
628.861	0.21	Win2	0.6567000000000001	0.004	No	2.785	-0.004	2.0	LatePress	0	0.215	628.076	5	66	Target	MissedWin	True
629.076	0.3	Win2	0.6567000000000001	0.004	No	2.785	-0.004	2.0	LatePress	0	0.215	n/a	5	66	ButtonPress	MissedWin	True
629.079	0.49	Win2	0.6567000000000001	n/a	No	2.785	n/a	n/a	LatePress	0	n/a	n/a	5	66	Blank	MissedWin	True
629.563	1.45	Win2	0.6567000000000001	n/a	No	2.785	n/a	5.0	LatePress	0	0.017	628.58	5	66	Feedback	MissedWin	True
631.018	2.785	Win2	0.6567000000000001	n/a	No	2.785	n/a	n/a	LatePress	0	0.0	n/a	5	66	ISIslide	MissedWin	True
633.826	0.25	Control	0.6618	0.0	Yes	2.724	0.026	n/a	GoodResponse	0	n/a	n/a	5	67	Cue	Neutral	True
634.077	3.95	Control	0.6618	0.0	Yes	2.724	0.001	n/a	GoodResponse	0	n/a	n/a	5	67	Fixation	Neutral	True
638.022	0.21	Control	0.6618	0.004	Yes	2.724	-0.004	2.0	GoodResponse	0	0.166	637.188	5	67	Target	Neutral	True
638.188	0.3	Control	0.6618	0.004	Yes	2.724	-0.004	2.0	GoodResponse	0	0.166	n/a	5	67	ButtonPress	Neutral	True
638.239	0.49	Control	0.6618	n/a	Yes	2.724	n/a	n/a	GoodResponse	0	n/a	n/a	5	67	Blank	Neutral	True
638.724	1.45	Control	0.6618	n/a	Yes	2.724	n/a	5.0	GoodResponse	0	0.027	637.751	5	67	Feedback	Neutral	True
640.178	2.724	Control	0.6618	n/a	Yes	2.724	n/a	n/a	GoodResponse	0	0.0	n/a	5	67	ISIslide	Neutral	True
642.92	0.25	Win2	0.6522	0.0	No	3.08	0.02	n/a	NoResponse	0	n/a	n/a	5	68	Cue	MissedWin	False
643.171	4.0	Win2	0.6522	0.0	No	3.08	0.001	2.0	NoResponse	0	3.869	646.04	5	68	Fixation	MissedWin	False
647.04	0.3	Win2	0.6522	0.0	No	3.08	0.001	2.0	NoResponse	0	3.869	n/a	5	68	ButtonPress	MissedWin	False
647.166	0.21	Win2	0.6522	0.004	No	3.08	-0.004	2.0	NoResponse	0	0.313	646.479	5	68	Target	MissedWin	False
647.383	0.49	Win2	0.6522	n/a	No	3.08	n/a	n/a	NoResponse	0	n/a	n/a	5	68	Blank	MissedWin	False
647.479	0.3	Win2	0.6522	0.004	No	3.08	-0.004	2.0	NoResponse	0	0.313	n/a	5	68	ButtonPress	MissedWin	False
647.868	1.45	Win2	0.6522	n/a	No	3.08	n/a	5.0	NoResponse	0	0.005	646.873	5	68	Feedback	MissedWin	False
649.322	3.08	Win2	0.6522	n/a	No	3.08	n/a	n/a	NoResponse	0	0.0	n/a	5	68	ISIslide	MissedWin	False
652.415	0.25	Win2	0.6570999999999999	0.0	Yes	3.235	0.015	n/a	GoodResponse	1	n/a	n/a	6	69	Cue	Win	True
652.666	3.95	Win2	0.6570999999999999	0.0	Yes	3.235	0.001	n/a	GoodResponse	1	n/a	n/a	6	69	Fixation	Win	True
656.611	0.22	Win2	0.6570999999999999	0.004	Yes	3.235	-0.004	2.0	GoodResponse	1	0.164	655.775	6	69	Target	Win	True
656.775	0.3	Win2	0.6570999999999999	0.004	Yes	3.235	-0.004	2.0	GoodResponse	1	0.164	n/a	6	69	ButtonPress	Win	True
656.845	0.48	Win2	0.6570999999999999	n/a	Yes	3.235	n/a	n/a	GoodResponse	1	n/a	n/a	6	69	Blank	Win	True
657.313	1.45	Win2	0.6570999999999999	n/a	Yes	3.235	n/a	5.0	GoodResponse	1	0.022	656.335	6	69	Feedback	Win	True
658.767	3.235	Win2	0.6570999999999999	n/a	Yes	3.235	n/a	n/a	GoodResponse	1	0.0	n/a	6	69	ISIslide	Win	True
662.027	0.25	Lose2	0.6479	0.0	No	3.023	0.027	n/a	NoResponse	-1	n/a	n/a	5	70	Cue	Loss	False
662.278	4.05	Lose2	0.6479	0.0	No	3.023	0.001	2.0	NoResponse	-1	3.847	665.125	5	70	Fixation	Loss	False
666.125	0.3	Lose2	0.6479	0.0	No	3.023	0.001	2.0	NoResponse	-1	3.847	n/a	5	70	ButtonPress	Loss	False
666.323	0.22	Lose2	0.6479	0.004	No	3.023	-0.004	2.0	NoResponse	-1	0.352	665.675	5	70	Target	Loss	False
666.557	0.48	Lose2	0.6479	n/a	No	3.023	n/a	n/a	NoResponse	-1	n/a	n/a	5	70	Blank	Loss	False
666.675	0.3	Lose2	0.6479	0.004	No	3.023	-0.004	2.0	NoResponse	-1	0.352	n/a	5	70	ButtonPress	Loss	False
667.025	1.45	Lose2	0.6479	n/a	No	3.023	n/a	5.0	NoResponse	-1	0.018	666.043	5	70	Feedback	Loss	False
668.48	3.023	Lose2	0.6479	n/a	No	3.023	n/a	n/a	NoResponse	-1	0.0	n/a	5	70	ISIslide	Loss	False
671.522	0.25	Win2	0.6528	0.0	Yes	2.728	0.022	n/a	GoodResponse	1	n/a	n/a	6	71	Cue	Win	True
671.773	4.05	Win2	0.6528	0.0	Yes	2.728	0.001	n/a	GoodResponse	1	n/a	n/a	6	71	Fixation	Win	True
675.818	0.23	Win2	0.6528	0.004	Yes	2.728	-0.004	2.0	GoodResponse	1	0.162	674.98	6	71	Target	Win	True
675.98	0.3	Win2	0.6528	0.004	Yes	2.728	-0.004	2.0	GoodResponse	1	0.162	n/a	6	71	ButtonPress	Win	True
676.052	0.47	Win2	0.6528	n/a	Yes	2.728	n/a	n/a	GoodResponse	1	n/a	n/a	6	71	Blank	Win	True
676.521	1.45	Win2	0.6528	n/a	Yes	2.728	n/a	5.0	GoodResponse	1	0.034	675.555	6	71	Feedback	Win	True
677.975	2.728	Win2	0.6528	n/a	Yes	2.728	n/a	n/a	GoodResponse	1	0.0	n/a	6	71	ISIslide	Win	True
680.716	0.25	Win2	0.6575	0.001	Yes	2.784	0.016	n/a	GoodResponse	1	n/a	n/a	7	72	Cue	Win	True
680.967	4.1	Win2	0.6575	0.0	Yes	2.784	0.001	n/a	GoodResponse	1	n/a	n/a	7	72	Fixation	Win	True
685.063	0.24	Win2	0.6575	0.003	Yes	2.784	-0.003	2.0	GoodResponse	1	0.221	684.284	7	72	Target	Win	True
685.284	0.3	Win2	0.6575	0.003	Yes	2.784	-0.003	2.0	GoodResponse	1	0.221	n/a	7	72	ButtonPress	Win	True
685.314	0.46	Win2	0.6575	n/a	Yes	2.784	n/a	n/a	GoodResponse	1	n/a	n/a	7	72	Blank	Win	True
685.765	1.45	Win2	0.6575	n/a	Yes	2.784	n/a	5.0	GoodResponse	1	0.01	684.775	7	72	Feedback	Win	True
687.219	2.784	Win2	0.6575	n/a	Yes	2.784	n/a	n/a	GoodResponse	1	0.0	n/a	7	72	ISIslide	Win	True
690.028	0.25	Win2	0.6622	0.0	Yes	2.672	0.028	n/a	GoodResponse	1	n/a	n/a	8	73	Cue	Win	True
690.278	4.0	Win2	0.6622	0.0	Yes	2.672	0.0	n/a	GoodResponse	1	n/a	n/a	8	73	Fixation	Win	True
694.274	0.24	Win2	0.6622	0.004	Yes	2.672	-0.004	2.0	GoodResponse	1	0.206	693.48	8	73	Target	Win	True
694.48	0.3	Win2	0.6622	0.004	Yes	2.672	-0.004	2.0	GoodResponse	1	0.206	n/a	8	73	ButtonPress	Win	True
694.524	0.46	Win2	0.6622	n/a	Yes	2.672	n/a	n/a	GoodResponse	1	n/a	n/a	8	73	Blank	Win	True
694.976	1.45	Win2	0.6622	n/a	Yes	2.672	n/a	5.0	GoodResponse	1	0.018	693.994	8	73	Feedback	Win	True
696.43	2.672	Win2	0.6622	n/a	Yes	2.672	n/a	n/a	GoodResponse	1	0.0	n/a	8	73	ISIslide	Win	True
699.122	0.25	Lose2	0.6667000000000001	0.0	Yes	2.628	0.022	n/a	GoodResponse	0	n/a	n/a	8	74	Cue	AvoidedLoss	True
699.372	4.05	Lose2	0.6667000000000001	0.0	Yes	2.628	0.0	n/a	GoodResponse	0	n/a	n/a	8	74	Fixation	AvoidedLoss	True
703.418	0.24	Lose2	0.6667000000000001	0.004	Yes	2.628	-0.004	2.0	GoodResponse	0	0.141	702.559	8	74	Target	AvoidedLoss	True
703.559	0.3	Lose2	0.6667000000000001	0.004	Yes	2.628	-0.004	2.0	GoodResponse	0	0.141	n/a	8	74	ButtonPress	AvoidedLoss	True
703.668	0.46	Lose2	0.6667000000000001	n/a	Yes	2.628	n/a	n/a	GoodResponse	0	n/a	n/a	8	74	Blank	AvoidedLoss	True
704.12	1.45	Lose2	0.6667000000000001	n/a	Yes	2.628	n/a	5.0	GoodResponse	0	0.044	703.164	8	74	Feedback	AvoidedLoss	True
705.574	2.628	Lose2	0.6667000000000001	n/a	Yes	2.628	n/a	n/a	GoodResponse	0	0.0	n/a	8	74	ISIslide	AvoidedLoss	True
708.215	0.25	Lose2	0.6711	0.001	Yes	2.935	0.015	n/a	GoodResponse	0	n/a	n/a	8	75	Cue	AvoidedLoss	True
708.466	3.95	Lose2	0.6711	0.0	Yes	2.935	0.001	n/a	GoodResponse	0	n/a	n/a	8	75	Fixation	AvoidedLoss	True
712.411	0.23	Lose2	0.6711	0.004	Yes	2.935	-0.004	2.0	GoodResponse	0	0.175	711.586	8	75	Target	AvoidedLoss	True
712.586	0.3	Lose2	0.6711	0.004	Yes	2.935	-0.004	2.0	GoodResponse	0	0.175	n/a	8	75	ButtonPress	AvoidedLoss	True
712.645	0.47	Lose2	0.6711	n/a	Yes	2.935	n/a	n/a	GoodResponse	0	n/a	n/a	8	75	Blank	AvoidedLoss	True
713.113	1.45	Lose2	0.6711	n/a	Yes	2.935	n/a	5.0	GoodResponse	0	0.027	712.14	8	75	Feedback	AvoidedLoss	True
714.568	2.935	Lose2	0.6711	n/a	Yes	2.935	n/a	n/a	GoodResponse	0	0.0	n/a	8	75	ISIslide	AvoidedLoss	True
717.527	0.25	Control	0.6623	0.0	No	3.223	0.027	n/a	NoResponse	0	n/a	n/a	8	76	Cue	Neutral	True
717.777	4.05	Control	0.6623	0.0	No	3.223	0.0	n/a	NoResponse	0	n/a	n/a	8	76	Fixation	Neutral	True
721.823	0.22	Control	0.6623	0.004	No	3.223	-0.004	2.0	NoResponse	0	0.245	721.068	8	76	Target	Neutral	True
722.057	0.48	Control	0.6623	n/a	No	3.223	n/a	n/a	NoResponse	0	n/a	n/a	8	76	Blank	Neutral	True
722.068	0.3	Control	0.6623	0.004	No	3.223	-0.004	2.0	NoResponse	0	0.245	n/a	8	76	ButtonPress	Neutral	True
722.525	1.45	Control	0.6623	n/a	No	3.223	n/a	5.0	NoResponse	0	0.029	721.554	8	76	Feedback	Neutral	True
723.979	3.223	Control	0.6623	n/a	No	3.223	n/a	n/a	NoResponse	0	0.0	n/a	8	76	ISIslide	Neutral	True
727.222	0.25	Lose2	0.6537999999999999	0.0	No	2.578	0.022	n/a	NoResponse	-1	n/a	n/a	7	77	Cue	Loss	False
727.473	3.95	Lose2	0.6537999999999999	0.0	No	2.578	0.001	2.0	NoResponse	-1	3.93	730.403	7	77	Fixation	Loss	False
731.403	0.3	Lose2	0.6537999999999999	0.0	No	2.578	0.001	2.0	NoResponse	-1	3.93	n/a	7	77	ButtonPress	Loss	False
731.418	0.22	Lose2	0.6537999999999999	0.004	No	2.578	-0.004	2.0	NoResponse	-1	0.276	730.694	7	77	Target	Loss	False
731.652	0.48	Lose2	0.6537999999999999	n/a	No	2.578	n/a	n/a	NoResponse	-1	n/a	n/a	7	77	Blank	Loss	False
731.694	0.3	Lose2	0.6537999999999999	0.004	No	2.578	-0.004	2.0	NoResponse	-1	0.276	n/a	7	77	ButtonPress	Loss	False
732.12	1.45	Lose2	0.6537999999999999	n/a	No	2.578	n/a	5.0	NoResponse	-1	0.044	731.164	7	77	Feedback	Loss	False
733.575	2.578	Lose2	0.6537999999999999	n/a	No	2.578	n/a	n/a	NoResponse	-1	0.0	n/a	7	77	ISIslide	Loss	False
