onset	duration	cue_type	current_mean_accuracy	duration_error	is_hit	isi_adjusted	onset_delay	response	response_type	reward	rt	rt_time	total_reward	trial_number	trial_phase	trial_type	one_press
11.109	0.25	Control	0.0	0.0	No	2.941	0.009	n/a	NoResponse	0	n/a	n/a	0	0	Cue	Neutral	True
11.359	3.85	Control	0.0	0.0	No	2.941	0.0	n/a	NoResponse	0	n/a	n/a	0	0	Fixation	Neutral	True
15.208	0.4	Control	0.0	0.001	No	2.941	-0.001	4.0	NoResponse	0	0.432	14.64	0	0	Target	Neutral	True
15.608	0.3	Control	0.0	n/a	No	2.941	n/a	n/a	NoResponse	0	n/a	n/a	0	0	Blank	Neutral	True
15.64	0.3	Control	0.0	0.001	No	2.941	-0.001	4.0	NoResponse	0	0.432	n/a	0	0	ButtonPress	Neutral	True
15.907	1.45	Control	0.0	n/a	No	2.941	n/a	5.0	NoResponse	0	0.022	14.929	0	0	Feedback	Neutral	True
17.357	2.941	Control	0.0	n/a	No	2.941	n/a	n/a	NoResponse	0	0.0	n/a	0	0	ISIslide	Neutral	True
20.323	0.25	Lose2	0.5	0.0	Yes	2.777	0.023	n/a	GoodResponse	0	n/a	n/a	0	1	Cue	AvoidedLoss	True
20.573	4.0	Lose2	0.5	0.0	Yes	2.777	0.0	n/a	GoodResponse	0	n/a	n/a	0	1	Fixation	AvoidedLoss	True
24.571	0.41	Lose2	0.5	0.002	Yes	2.777	-0.002	4.0	GoodResponse	0	0.325	23.896	0	1	Target	AvoidedLoss	True
24.896	0.3	Lose2	0.5	0.002	Yes	2.777	-0.002	4.0	GoodResponse	0	0.325	n/a	0	1	ButtonPress	AvoidedLoss	True
24.988	0.29	Lose2	0.5	n/a	Yes	2.777	n/a	n/a	GoodResponse	0	n/a	n/a	0	1	Blank	AvoidedLoss	True
25.271	1.45	Lose2	0.5	n/a	Yes	2.777	n/a	5.0	GoodResponse	0	0.024	24.295	0	1	Feedback	AvoidedLoss	True
26.72	2.777	Lose2	0.5	n/a	Yes	2.777	n/a	n/a	GoodResponse	0	0.0	n/a	0	1	ISIslide	AvoidedLoss	True
29.519	0.25	Control	0.6667000000000001	0.001	Yes	2.581	0.019	n/a	GoodResponse	0	n/a	n/a	0	2	Cue	Neutral	True
29.769	4.1	Control	0.6667000000000001	0.0	Yes	2.581	0.0	n/a	GoodResponse	0	n/a	n/a	0	2	Fixation	Neutral	True
33.868	0.42	Control	0.6667000000000001	0.001	Yes	2.581	-0.001	4.0	GoodResponse	0	0.303	33.171	0	2	Target	Neutral	True
34.171	0.3	Control	0.6667000000000001	0.001	Yes	2.581	-0.001	4.0	GoodResponse	0	0.303	n/a	0	2	ButtonPress	Neutral	True
34.284	0.28	Control	0.6667000000000001	n/a	Yes	2.581	n/a	n/a	GoodResponse	0	n/a	n/a	0	2	Blank	Neutral	True
34.568	1.45	Control	0.6667000000000001	n/a	Yes	2.581	n/a	5.0	GoodResponse	0	0.044	33.612	0	2	Feedback	Neutral	True
36.017	2.581	Control	0.6667000000000001	n/a	Yes	2.581	n/a	n/a	GoodResponse	0	0.0	n/a	0	2	ISIslide	Neutral	True
38.616	0.25	Win2	0.75	0.0	Yes	2.834	0.016	n/a	GoodResponse	1	n/a	n/a	1	3	Cue	Win	True
38.866	3.95	Win2	0.75	0.0	Yes	2.834	0.0	n/a	GoodResponse	1	n/a	n/a	1	3	Fixation	Win	True
42.815	0.41	Win2	0.75	0.001	Yes	2.834	-0.001	4.0	GoodResponse	1	0.353	42.168	1	3	Target	Win	True
43.168	0.3	Win2	0.75	0.001	Yes	2.834	-0.001	4.0	GoodResponse	1	0.353	n/a	1	3	ButtonPress	Win	True
43.231	0.29	Win2	0.75	n/a	Yes	2.834	n/a	n/a	GoodResponse	1	n/a	n/a	1	3	Blank	Win	True
43.515	1.45	Win2	0.75	n/a	Yes	2.834	n/a	5.0	GoodResponse	1	0.024	42.539	1	3	Feedback	Win	True
44.964	2.834	Win2	0.75	n/a	Yes	2.834	n/a	n/a	GoodResponse	1	0.0	n/a	1	3	ISIslide	Win	True
47.83	0.25	Win2	0.8	0.0	Yes	3.27	0.03	n/a	GoodResponse	1	n/a	n/a	2	4	Cue	Win	True
48.08	4.0	Win2	0.8	0.0	Yes	3.27	0.0	n/a	GoodResponse	1	n/a	n/a	2	4	Fixation	Win	True
52.078	0.4	Win2	0.8	0.002	Yes	3.27	-0.002	4.0	GoodResponse	1	0.336	51.414	2	4	Target	Win	True
52.414	0.3	Win2	0.8	0.002	Yes	3.27	-0.002	4.0	GoodResponse	1	0.336	n/a	2	4	ButtonPress	Win	True
52.478	0.3	Win2	0.8	n/a	Yes	3.27	n/a	n/a	GoodResponse	1	n/a	n/a	2	4	Blank	Win	True
52.778	1.45	Win2	0.8	n/a	Yes	3.27	n/a	5.0	GoodResponse	1	0.029	51.807	2	4	Feedback	Win	True
54.228	3.27	Win2	0.8	n/a	Yes	3.27	n/a	n/a	GoodResponse	1	0.0	n/a	2	4	ISIslide	Win	True
57.526	0.25	Win2	0.8332999999999999	0.0	Yes	2.774	0.026	n/a	GoodResponse	1	n/a	n/a	3	5	Cue	Win	True
57.776	4.0	Win2	0.8332999999999999	0.0	Yes	2.774	0.0	n/a	GoodResponse	1	n/a	n/a	3	5	Fixation	Win	True
61.775	0.39	Win2	0.8332999999999999	0.001	Yes	2.774	-0.001	4.0	GoodResponse	1	0.304	61.079	3	5	Target	Win	True
62.079	0.3	Win2	0.8332999999999999	0.001	Yes	2.774	-0.001	4.0	GoodResponse	1	0.304	n/a	3	5	ButtonPress	Win	True
62.175	0.31	Win2	0.8332999999999999	n/a	Yes	2.774	n/a	n/a	GoodResponse	1	n/a	n/a	3	5	Blank	Win	True
62.475	1.45	Win2	0.8332999999999999	n/a	Yes	2.774	n/a	5.0	GoodResponse	1	0.04	61.515	3	5	Feedback	Win	True
63.924	2.774	Win2	0.8332999999999999	n/a	Yes	2.774	n/a	n/a	GoodResponse	1	0.0	n/a	3	5	ISIslide	Win	True
66.723	0.25	Lose2	0.8571	0.0	Yes	2.727	0.023	n/a	GoodResponse	0	n/a	n/a	3	6	Cue	AvoidedLoss	True
66.973	3.95	Lose2	0.8571	0.0	Yes	2.727	0.0	n/a	GoodResponse	0	n/a	n/a	3	6	Fixation	AvoidedLoss	True
70.922	0.38	Lose2	0.8571	0.001	Yes	2.727	-0.001	4.0	GoodResponse	0	0.258	70.18	3	6	Target	AvoidedLoss	True
71.18	0.3	Lose2	0.8571	0.001	Yes	2.727	-0.001	4.0	GoodResponse	0	0.258	n/a	3	6	ButtonPress	AvoidedLoss	True
71.305	0.32	Lose2	0.8571	n/a	Yes	2.727	n/a	n/a	GoodResponse	0	n/a	n/a	3	6	Blank	AvoidedLoss	True
71.622	1.45	Lose2	0.8571	n/a	Yes	2.727	n/a	5.0	GoodResponse	0	0.014	70.636	3	6	Feedback	AvoidedLoss	True
73.071	2.727	Lose2	0.8571	n/a	Yes	2.727	n/a	n/a	GoodResponse	0	0.0	n/a	3	6	ISIslide	AvoidedLoss	True
75.82	0.25	Lose2	0.875	0.0	Yes	4.03	0.02	n/a	GoodResponse	0	n/a	n/a	3	7	Cue	AvoidedLoss	True
76.07	4.05	Lose2	0.875	0.0	Yes	4.03	0.0	n/a	GoodResponse	0	n/a	n/a	3	7	Fixation	AvoidedLoss	True
80.119	0.37	Lose2	0.875	0.001	Yes	4.03	-0.001	4.0	GoodResponse	0	0.275	79.394	3	7	Target	AvoidedLoss	True
80.394	0.3	Lose2	0.875	0.001	Yes	4.03	-0.001	4.0	GoodResponse	0	0.275	n/a	3	7	ButtonPress	AvoidedLoss	True
80.502	0.33	Lose2	0.875	n/a	Yes	4.03	n/a	n/a	GoodResponse	0	n/a	n/a	3	7	Blank	AvoidedLoss	True
80.818	1.45	Lose2	0.875	n/a	Yes	4.03	n/a	5.0	GoodResponse	0	0.038	79.856	3	7	Feedback	AvoidedLoss	True
82.268	4.03	Lose2	0.875	n/a	Yes	4.03	n/a	n/a	GoodResponse	0	0.0	n/a	3	7	ISIslide	AvoidedLoss	True
86.316	0.25	Lose2	0.7778	0.001	No	3.034	0.016	n/a	NoResponse	-1	n/a	n/a	2	8	Cue	Loss	True
86.566	3.95	Lose2	0.7778	0.0	No	3.034	0.0	n/a	NoResponse	-1	n/a	n/a	2	8	Fixation	Loss	True
90.515	0.36	Lose2	0.7778	0.001	No	3.034	-0.001	4.0	NoResponse	-1	0.462	89.977	2	8	Target	Loss	True
90.882	0.34	Lose2	0.7778	n/a	No	3.034	n/a	n/a	NoResponse	-1	n/a	n/a	2	8	Blank	Loss	True
90.977	0.3	Lose2	0.7778	0.001	No	3.034	-0.001	4.0	NoResponse	-1	0.462	n/a	2	8	ButtonPress	Loss	True
91.215	1.45	Lose2	0.7778	n/a	No	3.034	n/a	5.0	NoResponse	-1	0.031	90.246	2	8	Feedback	Loss	True
92.664	3.034	Lose2	0.7778	n/a	No	3.034	n/a	n/a	NoResponse	-1	0.0	n/a	2	8	ISIslide	Loss	True
95.713	0.25	Lose2	0.7	0.0	No	3.137	0.013	n/a	NoResponse	-1	n/a	n/a	1	9	Cue	Loss	True
95.963	3.95	Lose2	0.7	0.0	No	3.137	0.0	n/a	NoResponse	-1	n/a	n/a	1	9	Fixation	Loss	True
99.912	0.35	Lose2	0.7	0.001	No	3.137	-0.001	4.0	NoResponse	-1	0.449	99.361	1	9	Target	Loss	True
100.262	0.35	Lose2	0.7	n/a	No	3.137	n/a	n/a	NoResponse	-1	n/a	n/a	1	9	Blank	Loss	True
100.361	0.3	Lose2	0.7	0.001	No	3.137	-0.001	4.0	NoResponse	-1	0.449	n/a	1	9	ButtonPress	Loss	True
100.612	1.45	Lose2	0.7	n/a	No	3.137	n/a	5.0	NoResponse	-1	0.0	99.612	1	9	Feedback	Loss	True
102.061	3.137	Lose2	0.7	n/a	No	3.137	n/a	n/a	NoResponse	-1	0.0	n/a	1	9	ISIslide	Loss	True
105.227	0.25	Control	0.7273000000000001	0.0	Yes	3.273	0.027	n/a	GoodResponse	0	n/a	n/a	1	10	Cue	Neutral	True
105.476	4.0	Control	0.7273000000000001	0.001	Yes	3.273	-0.001	n/a	GoodResponse	0	n/a	n/a	1	10	Fixation	Neutral	True
109.475	0.34	Control	0.7273000000000001	0.002	Yes	3.273	-0.002	4.0	GoodResponse	0	0.25	108.725	1	10	Target	Neutral	True
109.725	0.3	Control	0.7273000000000001	0.002	Yes	3.273	-0.002	4.0	GoodResponse	0	0.25	n/a	1	10	ButtonPress	Neutral	True
109.825	0.36	Control	0.7273000000000001	n/a	Yes	3.273	n/a	n/a	GoodResponse	0	n/a	n/a	1	10	Blank	Neutral	True
110.175	1.45	Control	0.7273000000000001	n/a	Yes	3.273	n/a	5.0	GoodResponse	0	0.047	109.222	1	10	Feedback	Neutral	True
111.624	3.273	Control	0.7273000000000001	n/a	Yes	3.273	n/a	n/a	GoodResponse	0	0.0	n/a	1	10	ISIslide	Neutral	True
114.923	0.25	Lose2	0.75	0.0	Yes	2.727	0.023	n/a	GoodResponse	0	n/a	n/a	1	11	Cue	AvoidedLoss	False
115.173	4.05	Lose2	0.75	0.0	Yes	2.727	0.0	4.0	GoodResponse	0	0.076	114.249	1	11	Fixation	AvoidedLoss	False
115.249	0.3	Lose2	0.75	0.0	Yes	2.727	0.0	4.0	GoodResponse	0	0.076	n/a	1	11	ButtonPress	AvoidedLoss	False
119.222	0.33	Lose2	0.75	0.001	Yes	2.727	-0.001	4.0	GoodResponse	0	0.291	118.513	1	11	Target	AvoidedLoss	False
119.513	0.3	Lose2	0.75	0.001	Yes	2.727	-0.001	4.0	GoodResponse	0	0.291	n/a	1	11	ButtonPress	AvoidedLoss	False
119.555	0.37	Lose2	0.75	n/a	Yes	2.727	n/a	n/a	GoodResponse	0	n/a	n/a	1	11	Blank	AvoidedLoss	False
119.922	1.45	Lose2	0.75	n/a	Yes	2.727	n/a	5.0	GoodResponse	0	0.007	118.929	1	11	Feedback	AvoidedLoss	False
121.371	2.727	Lose2	0.75	n/a	Yes	2.727	n/a	n/a	GoodResponse	0	0.0	n/a	1	11	ISIslide	AvoidedLoss	False
124.12	0.25	Control	0.7692	0.0	Yes	2.98	0.02	n/a	GoodResponse	0	n/a	n/a	1	12	Cue	Neutral	True
124.37	3.9	Control	0.7692	0.0	Yes	2.98	0.0	n/a	GoodResponse	0	n/a	n/a	1	12	Fixation	Neutral	True
128.269	0.32	Control	0.7692	0.001	Yes	2.98	-0.001	4.0	GoodResponse	0	0.274	127.543	1	12	Target	Neutral	True
128.543	0.3	Control	0.7692	0.001	Yes	2.98	-0.001	4.0	GoodResponse	0	0.274	n/a	1	12	ButtonPress	Neutral	True
128.602	0.38	Control	0.7692	n/a	Yes	2.98	n/a	n/a	GoodResponse	0	n/a	n/a	1	12	Blank	Neutral	True
128.968	1.45	Control	0.7692	n/a	Yes	2.98	n/a	5.0	GoodResponse	0	0.035	128.003	1	12	Feedback	Neutral	True
130.418	2.98	Control	0.7692	n/a	Yes	2.98	n/a	n/a	GoodResponse	0	0.0	n/a	1	12	ISIslide	Neutral	True
133.417	0.25	Control	0.7143	0.0	No	2.783	0.017	n/a	NoResponse	0	n/a	n/a	1	13	Cue	Neutral	True
133.667	4.0	Control	0.7143	0.0	No	2.783	0.0	n/a	NoResponse	0	n/a	n/a	1	13	Fixation	Neutral	True
137.665	0.31	Control	0.7143	0.002	No	2.783	-0.002	4.0	NoResponse	0	0.362	137.027	1	13	Target	Neutral	True
137.982	0.39	Control	0.7143	n/a	No	2.783	n/a	n/a	NoResponse	0	n/a	n/a	1	13	Blank	Neutral	True
138.027	0.3	Control	0.7143	0.002	No	2.783	-0.002	4.0	NoResponse	0	0.362	n/a	1	13	ButtonPress	Neutral	True
138.365	1.45	Control	0.7143	n/a	No	2.783	n/a	5.0	NoResponse	0	0.007	137.372	1	13	Feedback	Neutral	True
139.815	2.783	Control	0.7143	n/a	No	2.783	n/a	n/a	NoResponse	0	0.0	n/a	1	13	ISIslide	Neutral	True
142.63	0.25	Win2	0.7333	0.0	Yes	2.67	0.03	n/a	GoodResponse	1	n/a	n/a	2	14	Cue	Win	True
142.88	4.1	Win2	0.7333	0.0	Yes	2.67	0.0	n/a	GoodResponse	1	n/a	n/a	2	14	Fixation	Win	True
146.979	0.3	Win2	0.7333	0.001	Yes	2.67	-0.001	4.0	GoodResponse	1	0.254	146.233	2	14	Target	Win	True
147.233	0.3	Win2	0.7333	0.001	Yes	2.67	-0.001	4.0	GoodResponse	1	0.254	n/a	2	14	ButtonPress	Win	True
147.279	0.4	Win2	0.7333	n/a	Yes	2.67	n/a	n/a	GoodResponse	1	n/a	n/a	2	14	Blank	Win	True
147.679	1.45	Win2	0.7333	n/a	Yes	2.67	n/a	5.0	GoodResponse	1	0.006	146.685	2	14	Feedback	Win	True
149.128	2.67	Win2	0.7333	n/a	Yes	2.67	n/a	n/a	GoodResponse	1	0.0	n/a	2	14	ISIslide	Win	True
151.827	0.25	Control	0.6875	0.0	No	2.973	0.027	n/a	NoResponse	0	n/a	n/a	2	15	Cue	Neutral	False
152.077	4.0	Control	0.6875	0.0	No	2.973	0.0	n/a	NoResponse	0	n/a	n/a	2	15	Fixation	Neutral	False
156.076	0.29	Control	0.6875	0.001	No	2.973	-0.001	n/a	NoResponse	0	n/a	n/a	2	15	Target	Neutral	False
156.376	0.41	Control	0.6875	n/a	No	2.973	n/a	n/a	NoResponse	0	n/a	n/a	2	15	Blank	Neutral	False
156.775	1.45	Control	0.6875	n/a	No	2.973	n/a	5.0	NoResponse	0	0.032	155.807	2	15	Feedback	Neutral	False
158.225	2.973	Control	0.6875	n/a	No	2.973	n/a	n/a	NoResponse	0	0.0	n/a	2	15	ISIslide	Neutral	False
161.224	0.25	Win2	0.7059000000000001	0.0	Yes	2.876	0.024	n/a	GoodResponse	1	n/a	n/a	3	16	Cue	Win	True
161.474	4.0	Win2	0.7059000000000001	0.0	Yes	2.876	0.0	n/a	GoodResponse	1	n/a	n/a	3	16	Fixation	Win	True
165.472	0.28	Win2	0.7059000000000001	0.002	Yes	2.876	-0.002	4.0	GoodResponse	1	0.246	164.718	3	16	Target	Win	True
165.718	0.3	Win2	0.7059000000000001	0.002	Yes	2.876	-0.002	4.0	GoodResponse	1	0.246	n/a	3	16	ButtonPress	Win	True
165.756	0.42	Win2	0.7059000000000001	n/a	Yes	2.876	n/a	n/a	GoodResponse	1	n/a	n/a	3	16	Blank	Win	True
166.172	1.45	Win2	0.7059000000000001	n/a	Yes	2.876	n/a	5.0	GoodResponse	1	0.001	165.173	3	16	Feedback	Win	True
167.622	2.876	Win2	0.7059000000000001	n/a	Yes	2.876	n/a	n/a	GoodResponse	1	0.0	n/a	3	16	ISIslide	Win	True
170.521	0.25	Lose2	0.6667000000000001	0.0	No	2.729	0.021	n/a	NoResponse	-1	n/a	n/a	2	17	Cue	Loss	True
170.771	3.95	Lose2	0.6667000000000001	0.0	No	2.729	0.0	n/a	NoResponse	-1	n/a	n/a	2	17	Fixation	Loss	True
174.719	0.27	Lose2	0.6667000000000001	0.002	No	2.729	-0.002	4.0	NoResponse	-1	0.328	174.047	2	17	Target	Loss	True
175.002	0.43	Lose2	0.6667000000000001	n/a	No	2.729	n/a	n/a	NoResponse	-1	n/a	n/a	2	17	Blank	Loss	True
175.047	0.3	Lose2	0.6667000000000001	0.002	No	2.729	-0.002	4.0	NoResponse	-1	0.328	n/a	2	17	ButtonPress	Loss	True
175.419	1.45	Lose2	0.6667000000000001	n/a	No	2.729	n/a	5.0	NoResponse	-1	0.022	174.441	2	17	Feedback	Loss	True
176.868	2.729	Lose2	0.6667000000000001	n/a	No	2.729	n/a	n/a	NoResponse	-1	0.0	n/a	2	17	ISIslide	Loss	True
179.618	0.25	Lose2	0.6315999999999999	0.0	No	2.732	0.018	n/a	NoResponse	-1	n/a	n/a	1	18	Cue	Loss	True
179.867	4.05	Lose2	0.6315999999999999	0.001	No	2.732	-0.001	n/a	NoResponse	-1	n/a	n/a	1	18	Fixation	Loss	True
183.916	0.26	Lose2	0.6315999999999999	0.002	No	2.732	-0.002	4.0	NoResponse	-1	0.309	183.225	1	18	Target	Loss	True
184.183	0.44	Lose2	0.6315999999999999	n/a	No	2.732	n/a	n/a	NoResponse	-1	n/a	n/a	1	18	Blank	Loss	True
184.225	0.3	Lose2	0.6315999999999999	0.002	No	2.732	-0.002	4.0	NoResponse	-1	0.309	n/a	1	18	ButtonPress	Loss	True
184.616	1.45	Lose2	0.6315999999999999	n/a	No	2.732	n/a	5.0	NoResponse	-1	0.045	183.661	1	18	Feedback	Loss	True
186.065	2.732	Lose2	0.6315999999999999	n/a	No	2.732	n/a	n/a	NoResponse	-1	0.0	n/a	1	18	ISIslide	Loss	True
188.814	0.25	Control	0.6	0.0	No	2.936	0.014	n/a	NoResponse	0	n/a	n/a	1	19	Cue	Neutral	False
189.064	3.95	Control	0.6	0.0	No	2.936	0.0	4.0	NoResponse	0	0.3	188.364	1	19	Fixation	Neutral	False
189.364	0.3	Control	0.6	0.0	No	2.936	0.0	4.0	NoResponse	0	0.3	n/a	1	19	ButtonPress	Neutral	False
193.013	0.27	Control	0.6	0.001	No	2.936	-0.001	4.0	NoResponse	0	0.303	192.316	1	19	Target	Neutral	False
193.279	0.43	Control	0.6	n/a	No	2.936	n/a	n/a	NoResponse	0	n/a	n/a	1	19	Blank	Neutral	False
193.316	0.3	Control	0.6	0.001	No	2.936	-0.001	4.0	NoResponse	0	0.303	n/a	1	19	ButtonPress	Neutral	False
193.713	1.45	Control	0.6	n/a	No	2.936	n/a	5.0	NoResponse	0	0.02	192.733	1	19	Feedback	Neutral	False
195.162	2.936	Control	0.6	n/a	No	2.936	n/a	n/a	NoResponse	0	0.0	n/a	1	19	ISIslide	Neutral	False
198.128	0.25	Control	0.5714	0.0	No	2.622	0.028	n/a	NoResponse	0	n/a	n/a	1	20	Cue	Neutral	True
198.378	4.05	Control	0.5714	0.0	No	2.622	0.0	n/a	NoResponse	0	n/a	n/a	1	20	Fixation	Neutral	True
202.426	0.28	Control	0.5714	0.002	No	2.622	-0.002	4.0	NoResponse	0	0.341	201.767	1	20	Target	Neutral	True
202.71	0.42	Control	0.5714	n/a	No	2.622	n/a	n/a	NoResponse	0	n/a	n/a	1	20	Blank	Neutral	True
202.767	0.3	Control	0.5714	0.002	No	2.622	-0.002	4.0	NoResponse	0	0.341	n/a	1	20	ButtonPress	Neutral	True
203.126	1.45	Control	0.5714	n/a	No	2.622	n/a	5.0	NoResponse	0	0.022	202.148	1	20	Feedback	Neutral	True
204.576	2.622	Control	0.5714	n/a	No	2.622	n/a	n/a	NoResponse	0	0.0	n/a	1	20	ISIslide	Neutral	True
207.225	0.25	Control	0.5909	0.0	Yes	2.775	0.025	n/a	GoodResponse	0	n/a	n/a	1	21	Cue	Neutral	True
207.475	4.1	Control	0.5909	0.0	Yes	2.775	0.0	n/a	GoodResponse	0	n/a	n/a	1	21	Fixation	Neutral	True
211.573	0.29	Control	0.5909	0.002	Yes	2.775	-0.002	4.0	GoodResponse	0	0.277	210.85	1	21	Target	Neutral	True
211.85	0.3	Control	0.5909	0.002	Yes	2.775	-0.002	4.0	GoodResponse	0	0.277	n/a	1	21	ButtonPress	Neutral	True
211.873	0.41	Control	0.5909	n/a	Yes	2.775	n/a	n/a	GoodResponse	0	n/a	n/a	1	21	Blank	Neutral	True
212.273	1.45	Control	0.5909	n/a	Yes	2.775	n/a	5.0	GoodResponse	0	0.046	211.319	1	21	Feedback	Neutral	True
213.722	2.775	Control	0.5909	n/a	Yes	2.775	n/a	n/a	GoodResponse	0	0.0	n/a	1	21	ISIslide	Neutral	True
216.521	0.25	Control	0.6087	0.001	Yes	2.779	0.021	n/a	GoodResponse	0	n/a	n/a	1	22	Cue	Neutral	True
216.771	4.0	Control	0.6087	0.0	Yes	2.779	0.0	n/a	GoodResponse	0	n/a	n/a	1	22	Fixation	Neutral	True
220.77	0.3	Control	0.6087	0.001	Yes	2.779	-0.001	4.0	GoodResponse	0	0.256	220.026	1	22	Target	Neutral	True
221.026	0.3	Control	0.6087	0.001	Yes	2.779	-0.001	4.0	GoodResponse	0	0.256	n/a	1	22	ButtonPress	Neutral	True
221.07	0.4	Control	0.6087	n/a	Yes	2.779	n/a	n/a	GoodResponse	0	n/a	n/a	1	22	Blank	Neutral	True
221.47	1.45	Control	0.6087	n/a	Yes	2.779	n/a	5.0	GoodResponse	0	0.02	220.49	1	22	Feedback	Neutral	True
222.919	2.779	Control	0.6087	n/a	Yes	2.779	n/a	n/a	GoodResponse	0	0.0	n/a	1	22	ISIslide	Neutral	True
225.718	0.25	Control	0.5832999999999999	0.0	No	2.782	0.018	n/a	LatePress	0	n/a	n/a	1	23	Cue	Neutral	True
225.968	3.9	Control	0.5832999999999999	0.0	No	2.782	0.0	n/a	LatePress	0	n/a	n/a	1	23	Fixation	Neutral	True
229.867	0.31	Control	0.5832999999999999	0.001	No	2.782	-0.001	4.0	LatePress	0	0.31	229.177	1	23	Target	Neutral	True
230.177	0.3	Control	0.5832999999999999	0.001	No	2.782	-0.001	4.0	LatePress	0	0.31	n/a	1	23	ButtonPress	Neutral	True
230.183	0.39	Control	0.5832999999999999	n/a	No	2.782	n/a	n/a	LatePress	0	n/a	n/a	1	23	Blank	Neutral	True
230.567	1.45	Control	0.5832999999999999	n/a	No	2.782	n/a	5.0	LatePress	0	0.045	229.612	1	23	Feedback	Neutral	True
232.016	2.782	Control	0.5832999999999999	n/a	No	2.782	n/a	n/a	LatePress	0	0.0	n/a	1	23	ISIslide	Neutral	True
234.815	0.25	Win2	0.6	0.0	Yes	3.135	0.015	n/a	GoodResponse	1	n/a	n/a	2	24	Cue	Win	True
235.065	3.95	Win2	0.6	0.0	Yes	3.135	0.0	n/a	GoodResponse	1	n/a	n/a	2	24	Fixation	Win	True
239.014	0.32	Win2	0.6	0.001	Yes	3.135	-0.001	4.0	GoodResponse	1	0.298	238.312	2	24	Target	Win	True
239.312	0.3	Win2	0.6	0.001	Yes	3.135	-0.001	4.0	GoodResponse	1	0.298	n/a	2	24	ButtonPress	Win	True
239.347	0.38	Win2	0.6	n/a	Yes	3.135	n/a	n/a	GoodResponse	1	n/a	n/a	2	24	Blank	Win	True
239.713	1.45	Win2	0.6	n/a	Yes	3.135	n/a	5.0	GoodResponse	1	0.021	238.734	2	24	Feedback	Win	True
241.163	3.135	Win2	0.6	n/a	Yes	3.135	n/a	n/a	GoodResponse	1	0.0	n/a	2	24	ISIslide	Win	True
244.328	0.25	Win2	0.5769	0.001	No	3.072	0.028	n/a	LatePress	0	n/a	n/a	2	25	Cue	MissedWin	True
244.578	4.0	Win2	0.5769	0.0	No	3.072	0.0	n/a	LatePress	0	n/a	n/a	2	25	Fixation	MissedWin	True
248.577	0.33	Win2	0.5769	0.001	No	3.072	-0.001	4.0	LatePress	0	0.331	247.908	2	25	Target	MissedWin	True
248.908	0.3	Win2	0.5769	0.001	No	3.072	-0.001	4.0	LatePress	0	0.331	n/a	2	25	ButtonPress	MissedWin	True
248.91	0.37	Win2	0.5769	n/a	No	3.072	n/a	n/a	LatePress	0	n/a	n/a	2	25	Blank	MissedWin	True
249.277	1.45	Win2	0.5769	n/a	No	3.072	n/a	5.0	LatePress	0	0.017	248.294	2	25	Feedback	MissedWin	True
250.726	3.072	Win2	0.5769	n/a	No	3.072	n/a	n/a	LatePress	0	0.0	n/a	2	25	ISIslide	MissedWin	True
253.825	0.25	Win2	0.5926	0.0	Yes	2.925	0.025	n/a	GoodResponse	1	n/a	n/a	3	26	Cue	Win	True
254.075	3.95	Win2	0.5926	0.0	Yes	2.925	0.0	n/a	GoodResponse	1	n/a	n/a	3	26	Fixation	Win	True
258.024	0.34	Win2	0.5926	0.001	Yes	2.925	-0.001	4.0	GoodResponse	1	0.304	257.328	3	26	Target	Win	True
258.328	0.3	Win2	0.5926	0.001	Yes	2.925	-0.001	4.0	GoodResponse	1	0.304	n/a	3	26	ButtonPress	Win	True
258.374	0.36	Win2	0.5926	n/a	Yes	2.925	n/a	n/a	GoodResponse	1	n/a	n/a	3	26	Blank	Win	True
258.724	1.45	Win2	0.5926	n/a	Yes	2.925	n/a	5.0	GoodResponse	1	0.033	257.757	3	26	Feedback	Win	True
260.173	2.925	Win2	0.5926	n/a	Yes	2.925	n/a	n/a	GoodResponse	1	0.0	n/a	3	26	ISIslide	Win	True
263.122	0.25	Lose2	0.5714	0.0	No	2.828	0.022	n/a	NoResponse	-1	n/a	n/a	2	27	Cue	Loss	True
263.372	4.05	Lose2	0.5714	0.0	No	2.828	0.0	n/a	NoResponse	-1	n/a	n/a	2	27	Fixation	Loss	True
267.421	0.35	Lose2	0.5714	0.001	No	2.828	-0.001	4.0	NoResponse	-1	0.359	266.78	2	27	Target	Loss	True
267.77	0.35	Lose2	0.5714	n/a	No	2.828	n/a	n/a	NoResponse	-1	n/a	n/a	2	27	Blank	Loss	True
267.78	0.3	Lose2	0.5714	0.001	No	2.828	-0.001	4.0	NoResponse	-1	0.359	n/a	2	27	ButtonPress	Loss	True
268.12	1.45	Lose2	0.5714	n/a	No	2.828	n/a	5.0	NoResponse	-1	0.007	267.127	2	27	Feedback	Loss	True
269.57	2.828	Lose2	0.5714	n/a	No	2.828	n/a	n/a	NoResponse	-1	0.0	n/a	2	27	ISIslide	Loss	True
272.419	0.25	Control	0.5861999999999999	0.0	Yes	2.831	0.019	n/a	GoodResponse	0	n/a	n/a	2	28	Cue	Neutral	True
272.669	4.05	Control	0.5861999999999999	0.0	Yes	2.831	0.0	n/a	GoodResponse	0	n/a	n/a	2	28	Fixation	Neutral	True
276.717	0.36	Control	0.5861999999999999	0.002	Yes	2.831	-0.002	4.0	GoodResponse	0	0.289	276.006	2	28	Target	Neutral	True
277.006	0.3	Control	0.5861999999999999	0.002	Yes	2.831	-0.002	4.0	GoodResponse	0	0.289	n/a	2	28	ButtonPress	Neutral	True
277.084	0.34	Control	0.5861999999999999	n/a	Yes	2.831	n/a	n/a	GoodResponse	0	n/a	n/a	2	28	Blank	Neutral	True
277.417	1.45	Control	0.5861999999999999	n/a	Yes	2.831	n/a	5.0	GoodResponse	0	0.023	276.44	2	28	Feedback	Neutral	True
278.867	2.831	Control	0.5861999999999999	n/a	Yes	2.831	n/a	n/a	GoodResponse	0	0.0	n/a	2	28	ISIslide	Neutral	True
281.716	0.25	Lose2	0.6	0.0	Yes	2.834	0.016	n/a	GoodResponse	0	n/a	n/a	2	29	Cue	AvoidedLoss	True
281.965	3.95	Lose2	0.6	0.001	Yes	2.834	-0.001	n/a	GoodResponse	0	n/a	n/a	2	29	Fixation	AvoidedLoss	True
285.914	0.37	Lose2	0.6	0.002	Yes	2.834	-0.002	4.0	GoodResponse	0	0.34	285.254	2	29	Target	AvoidedLoss	True
286.254	0.3	Lose2	0.6	0.002	Yes	2.834	-0.002	4.0	GoodResponse	0	0.34	n/a	2	29	ButtonPress	AvoidedLoss	True
286.297	0.33	Lose2	0.6	n/a	Yes	2.834	n/a	n/a	GoodResponse	0	n/a	n/a	2	29	Blank	AvoidedLoss	True
286.614	1.45	Lose2	0.6	n/a	Yes	2.834	n/a	5.0	GoodResponse	0	0.046	285.66	2	29	Feedback	AvoidedLoss	True
288.063	2.834	Lose2	0.6	n/a	Yes	2.834	n/a	n/a	GoodResponse	0	0.0	n/a	2	29	ISIslide	AvoidedLoss	True
290.912	0.25	Win2	0.6129	0.0	Yes	2.788	0.012	n/a	GoodResponse	1	n/a	n/a	3	30	Cue	Win	False
291.162	3.9	Win2	0.6129	0.0	Yes	2.788	0.0	4.0	GoodResponse	1	0.114	290.276	3	30	Fixation	Win	False
291.276	0.3	Win2	0.6129	0.0	Yes	2.788	0.0	4.0	GoodResponse	1	0.114	n/a	3	30	ButtonPress	Win	False
295.061	0.38	Win2	0.6129	0.001	Yes	2.788	-0.001	4.0	GoodResponse	1	0.335	294.396	3	30	Target	Win	False
295.396	0.3	Win2	0.6129	0.001	Yes	2.788	-0.001	4.0	GoodResponse	1	0.335	n/a	3	30	ButtonPress	Win	False
295.444	0.32	Win2	0.6129	n/a	Yes	2.788	n/a	n/a	GoodResponse	1	n/a	n/a	3	30	Blank	Win	False
295.761	1.45	Win2	0.6129	n/a	Yes	2.788	n/a	5.0	GoodResponse	1	0.021	294.782	3	30	Feedback	Win	False
297.21	2.788	Win2	0.6129	n/a	Yes	2.788	n/a	n/a	GoodResponse	1	0.0	n/a	3	30	ISIslide	Win	False
300.026	0.25	Lose2	0.5938	0.0	No	2.824	0.026	n/a	NoResponse	-1	n/a	n/a	2	31	Cue	Loss	True
300.276	4.05	Lose2	0.5938	0.0	No	2.824	0.0	n/a	NoResponse	-1	n/a	n/a	2	31	Fixation	Loss	True
304.324	0.39	Lose2	0.5938	0.002	No	2.824	-0.002	4.0	NoResponse	-1	0.453	303.777	2	31	Target	Loss	True
304.724	0.31	Lose2	0.5938	n/a	No	2.824	n/a	n/a	NoResponse	-1	n/a	n/a	2	31	Blank	Loss	True
304.777	0.3	Lose2	0.5938	0.002	No	2.824	-0.002	4.0	NoResponse	-1	0.453	n/a	2	31	ButtonPress	Loss	True
305.024	1.45	Lose2	0.5938	n/a	No	2.824	n/a	5.0	NoResponse	-1	0.027	304.051	2	31	Feedback	Loss	True
306.474	2.824	Lose2	0.5938	n/a	No	2.824	n/a	n/a	NoResponse	-1	0.0	n/a	2	31	ISIslide	Loss	True
309.323	0.25	Lose2	0.6061	0.0	Yes	2.627	0.023	n/a	GoodResponse	0	n/a	n/a	2	32	Cue	AvoidedLoss	True
309.573	4.15	Lose2	0.6061	0.0	Yes	2.627	0.0	n/a	GoodResponse	0	n/a	n/a	2	32	Fixation	AvoidedLoss	True
313.721	0.4	Lose2	0.6061	0.002	Yes	2.627	-0.002	4.0	GoodResponse	0	0.324	313.045	2	32	Target	AvoidedLoss	True
314.045	0.3	Lose2	0.6061	0.002	Yes	2.627	-0.002	4.0	GoodResponse	0	0.324	n/a	2	32	ButtonPress	AvoidedLoss	True
314.121	0.3	Lose2	0.6061	n/a	Yes	2.627	n/a	n/a	GoodResponse	0	n/a	n/a	2	32	Blank	AvoidedLoss	True
314.421	1.45	Lose2	0.6061	n/a	Yes	2.627	n/a	5.0	GoodResponse	0	0.043	313.464	2	32	Feedback	AvoidedLoss	True
315.87	2.627	Lose2	0.6061	n/a	Yes	2.627	n/a	n/a	GoodResponse	0	0.0	n/a	2	32	ISIslide	AvoidedLoss	True
318.52	0.25	Win2	0.6175999999999999	0.0	Yes	2.68	0.02	n/a	GoodResponse	1	n/a	n/a	3	33	Cue	Win	True
318.769	4.0	Win2	0.6175999999999999	0.001	Yes	2.68	-0.001	n/a	GoodResponse	1	n/a	n/a	3	33	Fixation	Win	True
322.768	0.41	Win2	0.6175999999999999	0.002	Yes	2.68	-0.002	4.0	GoodResponse	1	0.286	322.054	3	33	Target	Win	True
323.054	0.3	Win2	0.6175999999999999	0.002	Yes	2.68	-0.002	4.0	GoodResponse	1	0.286	n/a	3	33	ButtonPress	Win	True
323.185	0.29	Win2	0.6175999999999999	n/a	Yes	2.68	n/a	n/a	GoodResponse	1	n/a	n/a	3	33	Blank	Win	True
323.468	1.45	Win2	0.6175999999999999	n/a	Yes	2.68	n/a	5.0	GoodResponse	1	0.021	322.489	3	33	Feedback	Win	True
324.917	2.68	Win2	0.6175999999999999	n/a	Yes	2.68	n/a	n/a	GoodResponse	1	0.0	n/a	3	33	ISIslide	Win	True
327.616	0.25	Lose2	0.6	0.0	No	2.634	0.016	n/a	NoResponse	-1	n/a	n/a	2	34	Cue	Loss	True
327.866	4.05	Lose2	0.6	0.0	No	2.634	0.0	n/a	NoResponse	-1	n/a	n/a	2	34	Fixation	Loss	True
331.915	0.42	Lose2	0.6	0.001	No	2.634	-0.001	4.0	NoResponse	-1	0.539	331.454	2	34	Target	Loss	True
332.331	0.28	Lose2	0.6	n/a	No	2.634	n/a	n/a	NoResponse	-1	n/a	n/a	2	34	Blank	Loss	True
332.454	0.3	Lose2	0.6	0.001	No	2.634	-0.001	4.0	NoResponse	-1	0.539	n/a	2	34	ButtonPress	Loss	True
332.615	1.45	Lose2	0.6	n/a	No	2.634	n/a	5.0	NoResponse	-1	0.045	331.66	2	34	Feedback	Loss	True
334.064	2.634	Lose2	0.6	n/a	No	2.634	n/a	n/a	NoResponse	-1	0.0	n/a	2	34	ISIslide	Loss	True
336.713	0.25	Lose2	0.6111	0.0	Yes	2.687	0.013	n/a	GoodResponse	0	n/a	n/a	2	35	Cue	AvoidedLoss	True
336.963	4.0	Lose2	0.6111	0.0	Yes	2.687	0.0	n/a	GoodResponse	0	n/a	n/a	2	35	Fixation	AvoidedLoss	True
340.962	0.43	Lose2	0.6111	0.001	Yes	2.687	-0.001	4.0	GoodResponse	0	0.321	340.283	2	35	Target	AvoidedLoss	True
341.283	0.3	Lose2	0.6111	0.001	Yes	2.687	-0.001	4.0	GoodResponse	0	0.321	n/a	2	35	ButtonPress	AvoidedLoss	True
341.395	0.27	Lose2	0.6111	n/a	Yes	2.687	n/a	n/a	GoodResponse	0	n/a	n/a	2	35	Blank	AvoidedLoss	True
341.662	1.45	Lose2	0.6111	n/a	Yes	2.687	n/a	5.0	GoodResponse	0	0.022	340.684	2	35	Feedback	AvoidedLoss	True
343.111	2.687	Lose2	0.6111	n/a	Yes	2.687	n/a	n/a	GoodResponse	0	0.0	n/a	2	35	ISIslide	AvoidedLoss	True
345.827	0.25	Control	0.6215999999999999	0.0	Yes	2.673	0.027	n/a	GoodResponse	0	n/a	n/a	2	36	Cue	Neutral	True
346.077	4.0	Control	0.6215999999999999	0.0	Yes	2.673	0.0	n/a	GoodResponse	0	n/a	n/a	2	36	Fixation	Neutral	True
350.075	0.44	Control	0.6215999999999999	0.002	Yes	2.673	-0.002	4.0	GoodResponse	0	0.233	349.308	2	36	Target	Neutral	True
350.308	0.3	Control	0.6215999999999999	0.002	Yes	2.673	-0.002	4.0	GoodResponse	0	0.233	n/a	2	36	ButtonPress	Neutral	True
350.525	0.26	Control	0.6215999999999999	n/a	Yes	2.673	n/a	n/a	GoodResponse	0	n/a	n/a	2	36	Blank	Neutral	True
350.775	1.45	Control	0.6215999999999999	n/a	Yes	2.673	n/a	5.0	GoodResponse	0	0.031	349.806	2	36	Feedback	Neutral	True
352.225	2.673	Control	0.6215999999999999	n/a	Yes	2.673	n/a	n/a	GoodResponse	0	0.0	n/a	2	36	ISIslide	Neutral	True
354.924	0.25	Win2	0.6315999999999999	0.0	Yes	2.876	0.024	n/a	GoodResponse	1	n/a	n/a	3	37	Cue	Win	True
355.173	4.0	Win2	0.6315999999999999	0.001	Yes	2.876	-0.001	n/a	GoodResponse	1	n/a	n/a	3	37	Fixation	Win	True
359.172	0.45	Win2	0.6315999999999999	0.002	Yes	2.876	-0.002	4.0	GoodResponse	1	0.26	358.432	3	37	Target	Win	True
359.432	0.3	Win2	0.6315999999999999	0.002	Yes	2.876	-0.002	4.0	GoodResponse	1	0.26	n/a	3	37	ButtonPress	Win	True
359.622	0.25	Win2	0.6315999999999999	n/a	Yes	2.876	n/a	n/a	GoodResponse	1	n/a	n/a	3	37	Blank	Win	True
359.872	1.45	Win2	0.6315999999999999	n/a	Yes	2.876	n/a	5.0	GoodResponse	1	0.007	358.879	3	37	Feedback	Win	True
361.321	2.876	Win2	0.6315999999999999	n/a	Yes	2.876	n/a	n/a	GoodResponse	1	0.0	n/a	3	37	ISIslide	Win	True
364.22	0.25	Lose2	0.6409999999999999	0.0	Yes	2.83	0.02	n/a	GoodResponse	0	n/a	n/a	3	38	Cue	AvoidedLoss	True
364.47	3.95	Lose2	0.6409999999999999	0.0	Yes	2.83	0.0	n/a	GoodResponse	0	n/a	n/a	3	38	Fixation	AvoidedLoss	True
368.419	0.46	Lose2	0.6409999999999999	0.001	Yes	2.83	-0.001	4.0	GoodResponse	0	0.316	367.735	3	38	Target	AvoidedLoss	True
368.735	0.3	Lose2	0.6409999999999999	0.001	Yes	2.83	-0.001	4.0	GoodResponse	0	0.316	n/a	3	38	ButtonPress	AvoidedLoss	True
368.885	0.24	Lose2	0.6409999999999999	n/a	Yes	2.83	n/a	n/a	GoodResponse	0	n/a	n/a	3	38	Blank	AvoidedLoss	True
369.119	1.45	Lose2	0.6409999999999999	n/a	Yes	2.83	n/a	5.0	GoodResponse	0	0.028	368.147	3	38	Feedback	AvoidedLoss	True
370.568	2.83	Lose2	0.6409999999999999	n/a	Yes	2.83	n/a	n/a	GoodResponse	0	0.0	n/a	3	38	ISIslide	AvoidedLoss	True
373.417	0.25	Win2	0.65	0.0	Yes	2.983	0.017	n/a	GoodResponse	1	n/a	n/a	4	39	Cue	Win	True
373.667	4.1	Win2	0.65	0.0	Yes	2.983	0.0	n/a	GoodResponse	1	n/a	n/a	4	39	Fixation	Win	True
377.766	0.47	Win2	0.65	0.001	Yes	2.983	-0.001	4.0	GoodResponse	1	0.249	377.015	4	39	Target	Win	True
378.015	0.3	Win2	0.65	0.001	Yes	2.983	-0.001	4.0	GoodResponse	1	0.249	n/a	4	39	ButtonPress	Win	True
378.249	0.23	Win2	0.65	n/a	Yes	2.983	n/a	n/a	GoodResponse	1	n/a	n/a	4	39	Blank	Win	True
378.465	1.45	Win2	0.65	n/a	Yes	2.983	n/a	5.0	GoodResponse	1	0.048	377.513	4	39	Feedback	Win	True
379.915	2.983	Win2	0.65	n/a	Yes	2.983	n/a	n/a	GoodResponse	1	0.0	n/a	4	39	ISIslide	Win	True
382.914	0.25	Win2	0.6585	0.0	Yes	2.736	0.014	n/a	GoodResponse	1	n/a	n/a	5	40	Cue	Win	True
383.164	3.95	Win2	0.6585	0.0	Yes	2.736	0.0	n/a	GoodResponse	1	n/a	n/a	5	40	Fixation	Win	True
387.112	0.48	Win2	0.6585	0.002	Yes	2.736	-0.002	4.0	GoodResponse	1	0.352	386.464	5	40	Target	Win	True
387.464	0.3	Win2	0.6585	0.002	Yes	2.736	-0.002	4.0	GoodResponse	1	0.352	n/a	5	40	ButtonPress	Win	True
387.596	0.22	Win2	0.6585	n/a	Yes	2.736	n/a	n/a	GoodResponse	1	n/a	n/a	5	40	Blank	Win	True
387.812	1.45	Win2	0.6585	n/a	Yes	2.736	n/a	5.0	GoodResponse	1	0.018	386.83	5	40	Feedback	Win	True
389.262	2.736	Win2	0.6585	n/a	Yes	2.736	n/a	n/a	GoodResponse	1	0.0	n/a	5	40	ISIslide	Win	True
392.027	0.25	Win2	0.6667000000000001	0.001	Yes	2.773	0.027	n/a	GoodResponse	1	n/a	n/a	6	41	Cue	Win	True
392.277	3.9	Win2	0.6667000000000001	0.0	Yes	2.773	0.0	n/a	GoodResponse	1	n/a	n/a	6	41	Fixation	Win	True
396.176	0.48	Win2	0.6667000000000001	0.001	Yes	2.773	-0.001	4.0	GoodResponse	1	0.367	395.543	6	41	Target	Win	True
396.543	0.3	Win2	0.6667000000000001	0.001	Yes	2.773	-0.001	4.0	GoodResponse	1	0.367	n/a	6	41	ButtonPress	Win	True
396.659	0.22	Win2	0.6667000000000001	n/a	Yes	2.773	n/a	n/a	GoodResponse	1	n/a	n/a	6	41	Blank	Win	True
396.876	1.45	Win2	0.6667000000000001	n/a	Yes	2.773	n/a	5.0	GoodResponse	1	0.027	395.903	6	41	Feedback	Win	True
398.325	2.773	Win2	0.6667000000000001	n/a	Yes	2.773	n/a	n/a	GoodResponse	1	0.0	n/a	6	41	ISIslide	Win	True
401.124	0.25	Control	0.6744	0.0	Yes	2.926	0.024	n/a	GoodResponse	0	n/a	n/a	6	42	Cue	Neutral	True
401.374	3.85	Control	0.6744	0.0	Yes	2.926	0.0	n/a	GoodResponse	0	n/a	n/a	6	42	Fixation	Neutral	True
405.223	0.47	Control	0.6744	0.001	Yes	2.926	-0.001	4.0	GoodResponse	0	0.313	404.536	6	42	Target	Neutral	True
405.536	0.3	Control	0.6744	0.001	Yes	2.926	-0.001	4.0	GoodResponse	0	0.313	n/a	6	42	ButtonPress	Neutral	True
405.706	0.23	Control	0.6744	n/a	Yes	2.926	n/a	n/a	GoodResponse	0	n/a	n/a	6	42	Blank	Neutral	True
405.923	1.45	Control	0.6744	n/a	Yes	2.926	n/a	5.0	GoodResponse	0	0.006	404.929	6	42	Feedback	Neutral	True
407.372	2.926	Control	0.6744	n/a	Yes	2.926	n/a	n/a	GoodResponse	0	0.0	n/a	6	42	ISIslide	Neutral	True
410.321	0.25	Win2	0.6818000000000001	0.0	Yes	3.179	0.021	n/a	GoodResponse	1	n/a	n/a	7	43	Cue	Win	True
410.571	4.0	Win2	0.6818000000000001	0.0	Yes	3.179	0.0	n/a	GoodResponse	1	n/a	n/a	7	43	Fixation	Win	True
414.57	0.46	Win2	0.6818000000000001	0.001	Yes	3.179	-0.001	4.0	GoodResponse	1	0.372	413.942	7	43	Target	Win	True
414.942	0.3	Win2	0.6818000000000001	0.001	Yes	3.179	-0.001	4.0	GoodResponse	1	0.372	n/a	7	43	ButtonPress	Win	True
415.036	0.24	Win2	0.6818000000000001	n/a	Yes	3.179	n/a	n/a	GoodResponse	1	n/a	n/a	7	43	Blank	Win	True
415.269	1.45	Win2	0.6818000000000001	n/a	Yes	3.179	n/a	5.0	GoodResponse	1	0.025	414.294	7	43	Feedback	Win	True
416.719	3.179	Win2	0.6818000000000001	n/a	Yes	3.179	n/a	n/a	GoodResponse	1	0.0	n/a	7	43	ISIslide	Win	True
419.918	0.25	Win2	0.6889	0.0	Yes	2.982	0.018	n/a	GoodResponse	1	n/a	n/a	8	44	Cue	Win	True
420.168	4.0	Win2	0.6889	0.0	Yes	2.982	0.0	n/a	GoodResponse	1	n/a	n/a	8	44	Fixation	Win	True
424.166	0.45	Win2	0.6889	0.002	Yes	2.982	-0.002	4.0	GoodResponse	1	0.3	423.466	8	44	Target	Win	True
424.466	0.3	Win2	0.6889	0.002	Yes	2.982	-0.002	4.0	GoodResponse	1	0.3	n/a	8	44	ButtonPress	Win	True
424.616	0.25	Win2	0.6889	n/a	Yes	2.982	n/a	n/a	GoodResponse	1	n/a	n/a	8	44	Blank	Win	True
424.866	1.45	Win2	0.6889	n/a	Yes	2.982	n/a	5.0	GoodResponse	1	0.038	423.904	8	44	Feedback	Win	True
426.316	2.982	Win2	0.6889	n/a	Yes	2.982	n/a	n/a	GoodResponse	1	0.0	n/a	8	44	ISIslide	Win	True
429.315	0.25	Control	0.6739	0.0	No	2.885	0.015	n/a	NoResponse	0	n/a	n/a	8	45	Cue	Neutral	False
429.564	4.1	Control	0.6739	0.001	No	2.885	-0.001	n/a	NoResponse	0	n/a	n/a	8	45	Fixation	Neutral	False
433.663	0.44	Control	0.6739	0.002	No	2.885	-0.002	n/a	NoResponse	0	n/a	n/a	8	45	Target	Neutral	False
434.113	0.26	Control	0.6739	n/a	No	2.885	n/a	n/a	NoResponse	0	n/a	n/a	8	45	Blank	Neutral	False
434.363	1.45	Control	0.6739	n/a	No	2.885	n/a	5.0	NoResponse	0	0.007	433.37	8	45	Feedback	Neutral	False
435.812	2.885	Control	0.6739	n/a	No	2.885	n/a	n/a	NoResponse	0	0.0	n/a	8	45	ISIslide	Neutral	False
438.728	0.25	Lose2	0.6596	0.0	No	3.372	0.028	n/a	NoResponse	-1	n/a	n/a	7	46	Cue	Loss	True
438.978	4.0	Lose2	0.6596	0.0	No	3.372	0.0	n/a	NoResponse	-1	n/a	n/a	7	46	Fixation	Loss	True
442.976	0.43	Lose2	0.6596	0.002	No	3.372	-0.002	4.0	NoResponse	-1	0.623	442.599	7	46	Target	Loss	True
443.41	0.27	Lose2	0.6596	n/a	No	3.372	n/a	n/a	NoResponse	-1	n/a	n/a	7	46	Blank	Loss	True
443.599	0.3	Lose2	0.6596	0.002	No	3.372	-0.002	4.0	NoResponse	-1	0.623	n/a	7	46	ButtonPress	Loss	True
443.676	1.45	Lose2	0.6596	n/a	No	3.372	n/a	5.0	NoResponse	-1	0.007	442.683	7	46	Feedback	Loss	True
445.126	3.372	Lose2	0.6596	n/a	No	3.372	n/a	n/a	NoResponse	-1	0.0	n/a	7	46	ISIslide	Loss	True
448.525	0.25	Lose2	0.6667000000000001	0.0	Yes	2.675	0.025	n/a	GoodResponse	0	n/a	n/a	7	47	Cue	AvoidedLoss	True
448.774	4.0	Lose2	0.6667000000000001	0.001	Yes	2.675	-0.001	n/a	GoodResponse	0	n/a	n/a	7	47	Fixation	AvoidedLoss	True
452.773	0.43	Lose2	0.6667000000000001	0.002	Yes	2.675	-0.002	4.0	GoodResponse	0	0.292	452.065	7	47	Target	AvoidedLoss	True
453.065	0.3	Lose2	0.6667000000000001	0.002	Yes	2.675	-0.002	4.0	GoodResponse	0	0.292	n/a	7	47	ButtonPress	AvoidedLoss	True
453.206	0.27	Lose2	0.6667000000000001	n/a	Yes	2.675	n/a	n/a	GoodResponse	0	n/a	n/a	7	47	Blank	AvoidedLoss	True
453.473	1.45	Lose2	0.6667000000000001	n/a	Yes	2.675	n/a	5.0	GoodResponse	0	0.015	452.488	7	47	Feedback	AvoidedLoss	True
454.922	2.675	Lose2	0.6667000000000001	n/a	Yes	2.675	n/a	n/a	GoodResponse	0	0.0	n/a	7	47	ISIslide	AvoidedLoss	True
457.621	0.25	Lose2	0.6735	0.0	Yes	3.029	0.021	n/a	GoodResponse	0	n/a	n/a	7	48	Cue	AvoidedLoss	True
457.871	3.95	Lose2	0.6735	0.0	Yes	3.029	0.0	n/a	GoodResponse	0	n/a	n/a	7	48	Fixation	AvoidedLoss	True
461.82	0.42	Lose2	0.6735	0.001	Yes	3.029	-0.001	4.0	GoodResponse	0	0.312	461.132	7	48	Target	AvoidedLoss	True
462.132	0.3	Lose2	0.6735	0.001	Yes	3.029	-0.001	4.0	GoodResponse	0	0.312	n/a	7	48	ButtonPress	AvoidedLoss	True
462.236	0.28	Lose2	0.6735	n/a	Yes	3.029	n/a	n/a	GoodResponse	0	n/a	n/a	7	48	Blank	AvoidedLoss	True
462.52	1.45	Lose2	0.6735	n/a	Yes	3.029	n/a	5.0	GoodResponse	0	0.042	461.562	7	48	Feedback	AvoidedLoss	True
463.969	3.029	Lose2	0.6735	n/a	Yes	3.029	n/a	n/a	GoodResponse	0	0.0	n/a	7	48	ISIslide	AvoidedLoss	True
467.018	0.25	Control	0.66	0.0	No	2.882	0.018	n/a	NoResponse	0	n/a	n/a	7	49	Cue	Neutral	True
467.268	4.0	Control	0.66	0.0	No	2.882	0.0	n/a	NoResponse	0	n/a	n/a	7	49	Fixation	Neutral	True
471.267	0.41	Control	0.66	0.001	No	2.882	-0.001	4.0	NoResponse	0	0.494	470.761	7	49	Target	Neutral	True
471.683	0.29	Control	0.66	n/a	No	2.882	n/a	n/a	NoResponse	0	n/a	n/a	7	49	Blank	Neutral	True
471.761	0.3	Control	0.66	0.001	No	2.882	-0.001	4.0	NoResponse	0	0.494	n/a	7	49	ButtonPress	Neutral	True
471.966	1.45	Control	0.66	n/a	No	2.882	n/a	5.0	NoResponse	0	0.01	470.976	7	49	Feedback	Neutral	True
473.416	2.882	Control	0.66	n/a	No	2.882	n/a	n/a	NoResponse	0	0.0	n/a	7	49	ISIslide	Neutral	True
476.315	0.25	Control	0.6667000000000001	0.0	Yes	2.785	0.015	n/a	GoodResponse	0	n/a	n/a	7	50	Cue	Neutral	True
476.565	4.0	Control	0.6667000000000001	0.0	Yes	2.785	0.0	n/a	GoodResponse	0	n/a	n/a	7	50	Fixation	Neutral	True
480.563	0.41	Control	0.6667000000000001	0.002	Yes	2.785	-0.002	4.0	GoodResponse	0	0.298	479.861	7	50	Target	Neutral	True
480.861	0.3	Control	0.6667000000000001	0.002	Yes	2.785	-0.002	4.0	GoodResponse	0	0.298	n/a	7	50	ButtonPress	Neutral	True
480.98	0.29	Control	0.6667000000000001	n/a	Yes	2.785	n/a	n/a	GoodResponse	0	n/a	n/a	7	50	Blank	Neutral	True
481.263	1.45	Control	0.6667000000000001	n/a	Yes	2.785	n/a	5.0	GoodResponse	0	0.031	480.294	7	50	Feedback	Neutral	True
482.713	2.785	Control	0.6667000000000001	n/a	Yes	2.785	n/a	n/a	GoodResponse	0	0.0	n/a	7	50	ISIslide	Neutral	True
485.528	0.25	Control	0.6731	0.0	Yes	2.722	0.028	n/a	GoodResponse	0	n/a	n/a	7	51	Cue	Neutral	True
485.778	3.95	Control	0.6731	0.0	Yes	2.722	0.0	n/a	GoodResponse	0	n/a	n/a	7	51	Fixation	Neutral	True
489.727	0.4	Control	0.6731	0.001	Yes	2.722	-0.001	4.0	GoodResponse	0	0.285	489.012	7	51	Target	Neutral	True
490.012	0.3	Control	0.6731	0.001	Yes	2.722	-0.001	4.0	GoodResponse	0	0.285	n/a	7	51	ButtonPress	Neutral	True
490.127	0.3	Control	0.6731	n/a	Yes	2.722	n/a	n/a	GoodResponse	0	n/a	n/a	7	51	Blank	Neutral	True
490.427	1.45	Control	0.6731	n/a	Yes	2.722	n/a	5.0	GoodResponse	0	0.037	489.464	7	51	Feedback	Neutral	True
491.876	2.722	Control	0.6731	n/a	Yes	2.722	n/a	n/a	GoodResponse	0	0.0	n/a	7	51	ISIslide	Neutral	True
494.625	0.25	Control	0.6792	0.0	Yes	2.625	0.025	n/a	GoodResponse	0	n/a	n/a	7	52	Cue	Neutral	True
494.875	4.05	Control	0.6792	0.0	Yes	2.625	0.0	n/a	GoodResponse	0	n/a	n/a	7	52	Fixation	Neutral	True
498.924	0.39	Control	0.6792	0.001	Yes	2.625	-0.001	4.0	GoodResponse	0	0.3	498.224	7	52	Target	Neutral	True
499.224	0.3	Control	0.6792	0.001	Yes	2.625	-0.001	4.0	GoodResponse	0	0.3	n/a	7	52	ButtonPress	Neutral	True
499.324	0.31	Control	0.6792	n/a	Yes	2.625	n/a	n/a	GoodResponse	0	n/a	n/a	7	52	Blank	Neutral	True
499.624	1.45	Control	0.6792	n/a	Yes	2.625	n/a	5.0	GoodResponse	0	0.01	498.634	7	52	Feedback	Neutral	True
501.073	2.625	Control	0.6792	n/a	Yes	2.625	n/a	n/a	GoodResponse	0	0.0	n/a	7	52	ISIslide	Neutral	True
503.722	0.25	Win2	0.6851999999999999	0.0	Yes	2.928	0.022	n/a	GoodResponse	1	n/a	n/a	8	53	Cue	Win	True
503.972	4.05	Win2	0.6851999999999999	0.0	Yes	2.928	0.0	n/a	GoodResponse	1	n/a	n/a	8	53	Fixation	Win	True
508.021	0.38	Win2	0.6851999999999999	0.001	Yes	2.928	-0.001	4.0	GoodResponse	1	0.311	507.332	8	53	Target	Win	True
508.332	0.3	Win2	0.6851999999999999	0.001	Yes	2.928	-0.001	4.0	GoodResponse	1	0.311	n/a	8	53	ButtonPress	Win	True
508.404	0.32	Win2	0.6851999999999999	n/a	Yes	2.928	n/a	n/a	GoodResponse	1	n/a	n/a	8	53	Blank	Win	True
508.72	1.45	Win2	0.6851999999999999	n/a	Yes	2.928	n/a	5.0	GoodResponse	1	0.036	507.756	8	53	Feedback	Win	True
510.17	2.928	Win2	0.6851999999999999	n/a	Yes	2.928	n/a	n/a	GoodResponse	1	0.0	n/a	8	53	ISIslide	Win	True
513.119	0.25	Win2	0.6909000000000001	0.0	Yes	2.731	0.019	n/a	GoodResponse	1	n/a	n/a	9	54	Cue	Win	True
513.369	3.95	Win2	0.6909000000000001	0.0	Yes	2.731	0.0	n/a	GoodResponse	1	n/a	n/a	9	54	Fixation	Win	True
517.317	0.37	Win2	0.6909000000000001	0.002	Yes	2.731	-0.002	4.0	GoodResponse	1	0.311	516.628	9	54	Target	Win	True
517.628	0.3	Win2	0.6909000000000001	0.002	Yes	2.731	-0.002	4.0	GoodResponse	1	0.311	n/a	9	54	ButtonPress	Win	True
517.701	0.33	Win2	0.6909000000000001	n/a	Yes	2.731	n/a	n/a	GoodResponse	1	n/a	n/a	9	54	Blank	Win	True
518.017	1.45	Win2	0.6909000000000001	n/a	Yes	2.731	n/a	5.0	GoodResponse	1	0.008	517.025	9	54	Feedback	Win	True
519.467	2.731	Win2	0.6909000000000001	n/a	Yes	2.731	n/a	n/a	GoodResponse	1	0.0	n/a	9	54	ISIslide	Win	True
522.216	0.25	Control	0.6964	0.0	Yes	3.034	0.016	n/a	GoodResponse	0	n/a	n/a	9	55	Cue	Neutral	True
522.466	3.95	Control	0.6964	0.0	Yes	3.034	0.0	n/a	GoodResponse	0	n/a	n/a	9	55	Fixation	Neutral	True
526.414	0.36	Control	0.6964	0.002	Yes	3.034	-0.002	4.0	GoodResponse	0	0.216	525.63	9	55	Target	Neutral	True
526.63	0.3	Control	0.6964	0.002	Yes	3.034	-0.002	4.0	GoodResponse	0	0.216	n/a	9	55	ButtonPress	Neutral	True
526.781	0.34	Control	0.6964	n/a	Yes	3.034	n/a	n/a	GoodResponse	0	n/a	n/a	9	55	Blank	Neutral	True
527.114	1.45	Control	0.6964	n/a	Yes	3.034	n/a	5.0	GoodResponse	0	0.033	526.147	9	55	Feedback	Neutral	True
528.564	3.034	Control	0.6964	n/a	Yes	3.034	n/a	n/a	GoodResponse	0	0.0	n/a	9	55	ISIslide	Neutral	True
531.612	0.25	Control	0.6842	0.001	No	2.838	0.012	n/a	NoResponse	0	n/a	n/a	9	56	Cue	Neutral	True
531.862	3.95	Control	0.6842	0.0	No	2.838	0.0	n/a	NoResponse	0	n/a	n/a	9	56	Fixation	Neutral	True
535.811	0.35	Control	0.6842	0.001	No	2.838	-0.001	4.0	NoResponse	0	0.378	535.189	9	56	Target	Neutral	True
536.161	0.35	Control	0.6842	n/a	No	2.838	n/a	n/a	NoResponse	0	n/a	n/a	9	56	Blank	Neutral	True
536.189	0.3	Control	0.6842	0.001	No	2.838	-0.001	4.0	NoResponse	0	0.378	n/a	9	56	ButtonPress	Neutral	True
536.511	1.45	Control	0.6842	n/a	No	2.838	n/a	5.0	NoResponse	0	0.006	535.517	9	56	Feedback	Neutral	True
537.96	2.838	Control	0.6842	n/a	No	2.838	n/a	n/a	NoResponse	0	0.0	n/a	9	56	ISIslide	Neutral	True
540.826	0.25	Control	0.6897	0.0	Yes	3.474	0.026	n/a	GoodResponse	0	n/a	n/a	9	57	Cue	Neutral	False
541.076	4.0	Control	0.6897	0.0	Yes	3.474	0.0	4.0	GoodResponse	0	0.166	540.242	9	57	Fixation	Neutral	False
541.242	0.3	Control	0.6897	0.0	Yes	3.474	0.0	4.0	GoodResponse	0	0.166	n/a	9	57	ButtonPress	Neutral	False
545.074	0.34	Control	0.6897	0.002	Yes	3.474	-0.002	4.0	GoodResponse	0	0.298	544.372	9	57	Target	Neutral	False
545.372	0.3	Control	0.6897	0.002	Yes	3.474	-0.002	4.0	GoodResponse	0	0.298	n/a	9	57	ButtonPress	Neutral	False
545.424	0.36	Control	0.6897	n/a	Yes	3.474	n/a	n/a	GoodResponse	0	n/a	n/a	9	57	Blank	Neutral	False
545.774	1.45	Control	0.6897	n/a	Yes	3.474	n/a	5.0	GoodResponse	0	0.007	544.781	9	57	Feedback	Neutral	False
547.224	3.474	Control	0.6897	n/a	Yes	3.474	n/a	n/a	GoodResponse	0	0.0	n/a	9	57	ISIslide	Neutral	False
550.723	0.25	Win2	0.6779999999999999	0.0	No	2.727	0.023	n/a	NoResponse	0	n/a	n/a	9	58	Cue	MissedWin	True
550.972	4.05	Win2	0.6779999999999999	0.001	No	2.727	-0.001	n/a	NoResponse	0	n/a	n/a	9	58	Fixation	MissedWin	True
555.021	0.33	Win2	0.6779999999999999	0.002	No	2.727	-0.002	4.0	NoResponse	0	0.395	554.416	9	58	Target	MissedWin	True
555.354	0.37	Win2	0.6779999999999999	n/a	No	2.727	n/a	n/a	NoResponse	0	n/a	n/a	9	58	Blank	MissedWin	True
555.416	0.3	Win2	0.6779999999999999	0.002	No	2.727	-0.002	4.0	NoResponse	0	0.395	n/a	9	58	ButtonPress	MissedWin	True
555.721	1.45	Win2	0.6779999999999999	n/a	No	2.727	n/a	5.0	NoResponse	0	0.011	554.732	9	58	Feedback	MissedWin	True
557.17	2.727	Win2	0.6779999999999999	n/a	No	2.727	n/a	n/a	NoResponse	0	0.0	n/a	9	58	ISIslide	MissedWin	True
559.919	0.25	Lose2	0.6667000000000001	0.0	No	2.681	0.019	n/a	NoResponse	-1	n/a	n/a	8	59	Cue	Loss	True
560.169	4.0	Lose2	0.6667000000000001	0.0	No	2.681	0.0	n/a	NoResponse	-1	n/a	n/a	8	59	Fixation	Loss	True
564.168	0.32	Lose2	0.6667000000000001	0.001	No	2.681	-0.001	4.0	NoResponse	-1	0.459	563.627	8	59	Target	Loss	True
564.484	0.38	Lose2	0.6667000000000001	n/a	No	2.681	n/a	n/a	NoResponse	-1	n/a	n/a	8	59	Blank	Loss	True
564.627	0.3	Lose2	0.6667000000000001	0.001	No	2.681	-0.001	4.0	NoResponse	-1	0.459	n/a	8	59	ButtonPress	Loss	True
564.868	1.45	Lose2	0.6667000000000001	n/a	No	2.681	n/a	5.0	NoResponse	-1	0.034	563.902	8	59	Feedback	Loss	True
566.317	2.681	Lose2	0.6667000000000001	n/a	No	2.681	n/a	n/a	NoResponse	-1	0.0	n/a	8	59	ISIslide	Loss	True
569.016	0.25	Control	0.6557	0.0	No	2.684	0.016	n/a	NoResponse	0	n/a	n/a	8	60	Cue	Neutral	True
569.266	4.0	Control	0.6557	0.0	No	2.684	0.0	n/a	NoResponse	0	n/a	n/a	8	60	Fixation	Neutral	True
573.265	0.31	Control	0.6557	0.001	No	2.684	-0.001	4.0	NoResponse	0	0.325	572.59	8	60	Target	Neutral	True
573.581	0.39	Control	0.6557	n/a	No	2.684	n/a	n/a	NoResponse	0	n/a	n/a	8	60	Blank	Neutral	True
573.59	0.3	Control	0.6557	0.001	No	2.684	-0.001	4.0	NoResponse	0	0.325	n/a	8	60	ButtonPress	Neutral	True
573.965	1.45	Control	0.6557	n/a	No	2.684	n/a	5.0	NoResponse	0	0.011	572.976	8	60	Feedback	Neutral	True
575.414	2.684	Control	0.6557	n/a	No	2.684	n/a	n/a	NoResponse	0	0.0	n/a	8	60	ISIslide	Neutral	True
578.113	0.25	Lose2	0.6452	0.0	No	2.987	0.013	n/a	NoResponse	-1	n/a	n/a	7	61	Cue	Loss	True
578.363	4.0	Lose2	0.6452	0.0	No	2.987	0.0	n/a	NoResponse	-1	n/a	n/a	7	61	Fixation	Loss	True
582.362	0.31	Lose2	0.6452	0.001	No	2.987	-0.001	4.0	NoResponse	-1	0.336	581.698	7	61	Target	Loss	True
582.678	0.39	Lose2	0.6452	n/a	No	2.987	n/a	n/a	NoResponse	-1	n/a	n/a	7	61	Blank	Loss	True
582.698	0.3	Lose2	0.6452	0.001	No	2.987	-0.001	4.0	NoResponse	-1	0.336	n/a	7	61	ButtonPress	Loss	True
583.061	1.45	Lose2	0.6452	n/a	No	2.987	n/a	5.0	NoResponse	-1	0.037	582.098	7	61	Feedback	Loss	True
584.511	2.987	Lose2	0.6452	n/a	No	2.987	n/a	n/a	NoResponse	-1	0.0	n/a	7	61	ISIslide	Loss	True
587.526	0.25	Lose2	0.6349	0.001	No	2.874	0.026	n/a	NoResponse	-1	n/a	n/a	6	62	Cue	Loss	False
587.776	3.9	Lose2	0.6349	0.0	No	2.874	0.0	n/a	NoResponse	-1	n/a	n/a	6	62	Fixation	Loss	False
591.675	0.32	Lose2	0.6349	0.001	No	2.874	-0.001	n/a	NoResponse	-1	n/a	n/a	6	62	Target	Loss	False
591.992	0.38	Lose2	0.6349	n/a	No	2.874	n/a	n/a	NoResponse	-1	n/a	n/a	6	62	Blank	Loss	False
592.375	1.45	Lose2	0.6349	n/a	No	2.874	n/a	5.0	NoResponse	-1	0.04	591.415	6	62	Feedback	Loss	False
593.824	2.874	Lose2	0.6349	n/a	No	2.874	n/a	n/a	NoResponse	-1	0.0	n/a	6	62	ISIslide	Loss	False
596.723	0.25	Lose2	0.6406000000000001	0.0	Yes	2.627	0.023	n/a	GoodResponse	0	n/a	n/a	6	63	Cue	AvoidedLoss	True
596.973	4.05	Lose2	0.6406000000000001	0.0	Yes	2.627	0.0	n/a	GoodResponse	0	n/a	n/a	6	63	Fixation	AvoidedLoss	True
601.022	0.33	Lose2	0.6406000000000001	0.001	Yes	2.627	-0.001	4.0	GoodResponse	0	0.258	600.28	6	63	Target	AvoidedLoss	True
601.28	0.3	Lose2	0.6406000000000001	0.001	Yes	2.627	-0.001	4.0	GoodResponse	0	0.258	n/a	6	63	ButtonPress	AvoidedLoss	True
601.355	0.37	Lose2	0.6406000000000001	n/a	Yes	2.627	n/a	n/a	GoodResponse	0	n/a	n/a	6	63	Blank	AvoidedLoss	True
601.722	1.45	Lose2	0.6406000000000001	n/a	Yes	2.627	n/a	5.0	GoodResponse	0	0.01	600.732	6	63	Feedback	AvoidedLoss	True
603.171	2.627	Lose2	0.6406000000000001	n/a	Yes	2.627	n/a	n/a	GoodResponse	0	0.0	n/a	6	63	ISIslide	AvoidedLoss	True
605.82	0.25	Win2	0.6462	0.0	Yes	3.13	0.02	n/a	GoodResponse	1	n/a	n/a	7	64	Cue	Win	True
606.07	4.15	Win2	0.6462	0.0	Yes	3.13	0.0	n/a	GoodResponse	1	n/a	n/a	7	64	Fixation	Win	True
610.219	0.34	Win2	0.6462	0.001	Yes	3.13	-0.001	4.0	GoodResponse	1	0.286	609.505	7	64	Target	Win	True
610.505	0.3	Win2	0.6462	0.001	Yes	3.13	-0.001	4.0	GoodResponse	1	0.286	n/a	7	64	ButtonPress	Win	True
610.569	0.36	Win2	0.6462	n/a	Yes	3.13	n/a	n/a	GoodResponse	1	n/a	n/a	7	64	Blank	Win	True
610.918	1.45	Win2	0.6462	n/a	Yes	3.13	n/a	5.0	GoodResponse	1	0.033	609.951	7	64	Feedback	Win	True
612.368	3.13	Win2	0.6462	n/a	Yes	3.13	n/a	n/a	GoodResponse	1	0.0	n/a	7	64	ISIslide	Win	True
615.517	0.25	Control	0.6364	0.0	No	2.783	0.017	n/a	NoResponse	0	n/a	n/a	7	65	Cue	Neutral	True
615.767	4.0	Control	0.6364	0.0	No	2.783	0.0	n/a	NoResponse	0	n/a	n/a	7	65	Fixation	Neutral	True
619.765	0.35	Control	0.6364	0.002	No	2.783	-0.002	4.0	NoResponse	0	0.465	619.23	7	65	Target	Neutral	True
620.115	0.35	Control	0.6364	n/a	No	2.783	n/a	n/a	NoResponse	0	n/a	n/a	7	65	Blank	Neutral	True
620.23	0.3	Control	0.6364	0.002	No	2.783	-0.002	4.0	NoResponse	0	0.465	n/a	7	65	ButtonPress	Neutral	True
620.465	1.45	Control	0.6364	n/a	No	2.783	n/a	5.0	NoResponse	0	0.047	619.512	7	65	Feedback	Neutral	True
621.915	2.783	Control	0.6364	n/a	No	2.783	n/a	n/a	NoResponse	0	0.0	n/a	7	65	ISIslide	Neutral	True
624.714	0.25	Win2	0.6418	0.0	Yes	2.786	0.014	n/a	GoodResponse	1	n/a	n/a	8	66	Cue	Win	True
624.964	3.9	Win2	0.6418	0.0	Yes	2.786	0.0	n/a	GoodResponse	1	n/a	n/a	8	66	Fixation	Win	True
628.862	0.36	Win2	0.6418	0.002	Yes	2.786	-0.002	4.0	GoodResponse	1	0.253	628.115	8	66	Target	Win	True
629.115	0.3	Win2	0.6418	0.002	Yes	2.786	-0.002	4.0	GoodResponse	1	0.253	n/a	8	66	ButtonPress	Win	True
629.229	0.34	Win2	0.6418	n/a	Yes	2.786	n/a	n/a	GoodResponse	1	n/a	n/a	8	66	Blank	Win	True
629.562	1.45	Win2	0.6418	n/a	Yes	2.786	n/a	5.0	GoodResponse	1	0.023	628.585	8	66	Feedback	Win	True
631.011	2.786	Win2	0.6418	n/a	Yes	2.786	n/a	n/a	GoodResponse	1	0.0	n/a	8	66	ISIslide	Win	True
633.827	0.25	Control	0.6470999999999999	0.0	Yes	2.723	0.027	n/a	GoodResponse	0	n/a	n/a	8	67	Cue	Neutral	True
634.077	3.95	Control	0.6470999999999999	0.0	Yes	2.723	0.0	n/a	GoodResponse	0	n/a	n/a	8	67	Fixation	Neutral	True
638.026	0.37	Control	0.6470999999999999	0.001	Yes	2.723	-0.001	4.0	GoodResponse	0	0.349	637.375	8	67	Target	Neutral	True
638.375	0.3	Control	0.6470999999999999	0.001	Yes	2.723	-0.001	4.0	GoodResponse	0	0.349	n/a	8	67	ButtonPress	Neutral	True
638.409	0.33	Control	0.6470999999999999	n/a	Yes	2.723	n/a	n/a	GoodResponse	0	n/a	n/a	8	67	Blank	Neutral	True
638.725	1.45	Control	0.6470999999999999	n/a	Yes	2.723	n/a	5.0	GoodResponse	0	0.031	637.756	8	67	Feedback	Neutral	True
640.175	2.723	Control	0.6470999999999999	n/a	Yes	2.723	n/a	n/a	GoodResponse	0	0.0	n/a	8	67	ISIslide	Neutral	True
642.924	0.25	Win2	0.6522	0.0	Yes	3.076	0.024	n/a	GoodResponse	1	n/a	n/a	9	68	Cue	Win	True
643.174	4.0	Win2	0.6522	0.0	Yes	3.076	0.0	n/a	GoodResponse	1	n/a	n/a	9	68	Fixation	Win	True
647.173	0.38	Win2	0.6522	0.001	Yes	3.076	-0.001	4.0	GoodResponse	1	0.239	646.412	9	68	Target	Win	True
647.412	0.3	Win2	0.6522	0.001	Yes	3.076	-0.001	4.0	GoodResponse	1	0.239	n/a	9	68	ButtonPress	Win	True
647.556	0.32	Win2	0.6522	n/a	Yes	3.076	n/a	n/a	GoodResponse	1	n/a	n/a	9	68	Blank	Win	True
647.872	1.45	Win2	0.6522	n/a	Yes	3.076	n/a	5.0	GoodResponse	1	0.006	646.878	9	68	Feedback	Win	True
649.322	3.076	Win2	0.6522	n/a	Yes	3.076	n/a	n/a	GoodResponse	1	0.0	n/a	9	68	ISIslide	Win	True
652.421	0.25	Win2	0.6570999999999999	0.0	Yes	3.229	0.021	n/a	GoodResponse	1	n/a	n/a	10	69	Cue	Win	True
652.671	3.95	Win2	0.6570999999999999	0.0	Yes	3.229	0.0	n/a	GoodResponse	1	n/a	n/a	10	69	Fixation	Win	True
656.619	0.39	Win2	0.6570999999999999	0.002	Yes	3.229	-0.002	4.0	GoodResponse	1	0.302	655.921	10	69	Target	Win	True
656.921	0.3	Win2	0.6570999999999999	0.002	Yes	3.229	-0.002	4.0	GoodResponse	1	0.302	n/a	10	69	ButtonPress	Win	True
657.019	0.31	Win2	0.6570999999999999	n/a	Yes	3.229	n/a	n/a	GoodResponse	1	n/a	n/a	10	69	Blank	Win	True
657.319	1.45	Win2	0.6570999999999999	n/a	Yes	3.229	n/a	5.0	GoodResponse	1	0.023	656.342	10	69	Feedback	Win	True
658.769	3.229	Win2	0.6570999999999999	n/a	Yes	3.229	n/a	n/a	GoodResponse	1	0.0	n/a	10	69	ISIslide	Win	True
662.017	0.25	Lose2	0.6479	0.0	No	3.033	0.017	n/a	NoResponse	-1	n/a	n/a	9	70	Cue	Loss	True
662.267	4.05	Lose2	0.6479	0.0	No	3.033	0.0	n/a	NoResponse	-1	n/a	n/a	9	70	Fixation	Loss	True
666.316	0.39	Lose2	0.6479	0.001	No	3.033	-0.001	4.0	NoResponse	-1	0.62	665.936	9	70	Target	Loss	True
666.716	0.31	Lose2	0.6479	n/a	No	3.033	n/a	n/a	NoResponse	-1	n/a	n/a	9	70	Blank	Loss	True
666.936	0.3	Lose2	0.6479	0.001	No	3.033	-0.001	4.0	NoResponse	-1	0.62	n/a	9	70	ButtonPress	Loss	True
667.016	1.45	Lose2	0.6479	n/a	No	3.033	n/a	5.0	NoResponse	-1	0.032	666.048	9	70	Feedback	Loss	True
668.465	3.033	Lose2	0.6479	n/a	No	3.033	n/a	n/a	NoResponse	-1	0.0	n/a	9	70	ISIslide	Loss	True
671.514	0.25	Win2	0.6528	0.0	Yes	2.736	0.014	n/a	GoodResponse	1	n/a	n/a	10	71	Cue	Win	True
671.764	4.05	Win2	0.6528	0.0	Yes	2.736	0.0	n/a	GoodResponse	1	n/a	n/a	10	71	Fixation	Win	True
675.813	0.4	Win2	0.6528	0.001	Yes	2.736	-0.001	4.0	GoodResponse	1	0.343	675.156	10	71	Target	Win	True
676.156	0.3	Win2	0.6528	0.001	Yes	2.736	-0.001	4.0	GoodResponse	1	0.343	n/a	10	71	ButtonPress	Win	True
676.212	0.3	Win2	0.6528	n/a	Yes	2.736	n/a	n/a	GoodResponse	1	n/a	n/a	10	71	Blank	Win	True
676.512	1.45	Win2	0.6528	n/a	Yes	2.736	n/a	5.0	GoodResponse	1	0.048	675.56	10	71	Feedback	Win	True
677.962	2.736	Win2	0.6528	n/a	Yes	2.736	n/a	n/a	GoodResponse	1	0.0	n/a	10	71	ISIslide	Win	True
680.728	0.25	Win2	0.6575	0.0	Yes	2.772	0.028	n/a	GoodResponse	1	n/a	n/a	11	72	Cue	Win	True
680.978	4.1	Win2	0.6575	0.0	Yes	2.772	0.0	n/a	GoodResponse	1	n/a	n/a	11	72	Fixation	Win	True
685.076	0.41	Win2	0.6575	0.002	Yes	2.772	-0.002	4.0	GoodResponse	1	0.392	684.468	11	72	Target	Win	True
685.468	0.3	Win2	0.6575	0.002	Yes	2.772	-0.002	4.0	GoodResponse	1	0.392	n/a	11	72	ButtonPress	Win	True
685.493	0.29	Win2	0.6575	n/a	Yes	2.772	n/a	n/a	GoodResponse	1	n/a	n/a	11	72	Blank	Win	True
685.776	1.45	Win2	0.6575	n/a	Yes	2.772	n/a	5.0	GoodResponse	1	0.007	684.783	11	72	Feedback	Win	True
687.225	2.772	Win2	0.6575	n/a	Yes	2.772	n/a	n/a	GoodResponse	1	0.0	n/a	11	72	ISIslide	Win	True
690.024	0.25	Win2	0.6622	0.0	Yes	2.676	0.024	n/a	GoodResponse	1	n/a	n/a	12	73	Cue	Win	True
690.274	4.0	Win2	0.6622	0.0	Yes	2.676	0.0	n/a	GoodResponse	1	n/a	n/a	12	73	Fixation	Win	True
694.273	0.41	Win2	0.6622	0.001	Yes	2.676	-0.001	4.0	GoodResponse	1	0.332	693.605	12	73	Target	Win	True
694.605	0.3	Win2	0.6622	0.001	Yes	2.676	-0.001	4.0	GoodResponse	1	0.332	n/a	12	73	ButtonPress	Win	True
694.689	0.29	Win2	0.6622	n/a	Yes	2.676	n/a	n/a	GoodResponse	1	n/a	n/a	12	73	Blank	Win	True
694.973	1.45	Win2	0.6622	n/a	Yes	2.676	n/a	5.0	GoodResponse	1	0.027	694.0	12	73	Feedback	Win	True
696.422	2.676	Win2	0.6622	n/a	Yes	2.676	n/a	n/a	GoodResponse	1	0.0	n/a	12	73	ISIslide	Win	True
699.121	0.25	Lose2	0.6667000000000001	0.0	Yes	2.629	0.021	n/a	GoodResponse	0	n/a	n/a	12	74	Cue	AvoidedLoss	True
699.371	4.05	Lose2	0.6667000000000001	0.0	Yes	2.629	0.0	n/a	GoodResponse	0	n/a	n/a	12	74	Fixation	AvoidedLoss	True
703.42	0.41	Lose2	0.6667000000000001	0.001	Yes	2.629	-0.001	4.0	GoodResponse	0	0.347	702.767	12	74	Target	AvoidedLoss	True
703.767	0.3	Lose2	0.6667000000000001	0.001	Yes	2.629	-0.001	4.0	GoodResponse	0	0.347	n/a	12	74	ButtonPress	AvoidedLoss	True
703.836	0.29	Lose2	0.6667000000000001	n/a	Yes	2.629	n/a	n/a	GoodResponse	0	n/a	n/a	12	74	Blank	AvoidedLoss	True
704.12	1.45	Lose2	0.6667000000000001	n/a	Yes	2.629	n/a	5.0	GoodResponse	0	0.005	703.125	12	74	Feedback	AvoidedLoss	True
705.569	2.629	Lose2	0.6667000000000001	n/a	Yes	2.629	n/a	n/a	GoodResponse	0	0.0	n/a	12	74	ISIslide	AvoidedLoss	True
708.218	0.25	Lose2	0.6579	0.0	No	2.932	0.018	n/a	NoResponse	-1	n/a	n/a	11	75	Cue	Loss	True
708.468	3.95	Lose2	0.6579	0.0	No	2.932	0.0	n/a	NoResponse	-1	n/a	n/a	11	75	Fixation	Loss	True
712.417	0.4	Lose2	0.6579	0.001	No	2.932	-0.001	4.0	NoResponse	-1	0.501	711.918	11	75	Target	Loss	True
712.816	0.3	Lose2	0.6579	n/a	No	2.932	n/a	n/a	NoResponse	-1	n/a	n/a	11	75	Blank	Loss	True
712.918	0.3	Lose2	0.6579	0.001	No	2.932	-0.001	4.0	NoResponse	-1	0.501	n/a	11	75	ButtonPress	Loss	True
713.116	1.45	Lose2	0.6579	n/a	No	2.932	n/a	5.0	NoResponse	-1	0.03	712.146	11	75	Feedback	Loss	True
714.566	2.932	Lose2	0.6579	n/a	No	2.932	n/a	n/a	NoResponse	-1	0.0	n/a	11	75	ISIslide	Loss	True
717.515	0.25	Control	0.6623	0.0	Yes	3.235	0.015	n/a	GoodResponse	0	n/a	n/a	11	76	Cue	Neutral	True
717.765	4.05	Control	0.6623	0.0	Yes	3.235	0.0	n/a	GoodResponse	0	n/a	n/a	11	76	Fixation	Neutral	True
721.813	0.4	Control	0.6623	0.002	Yes	3.235	-0.002	4.0	GoodResponse	0	0.396	721.209	11	76	Target	Neutral	True
722.209	0.3	Control	0.6623	0.002	Yes	3.235	-0.002	4.0	GoodResponse	0	0.396	n/a	11	76	ButtonPress	Neutral	True
722.213	0.3	Control	0.6623	n/a	Yes	3.235	n/a	n/a	GoodResponse	0	n/a	n/a	11	76	Blank	Neutral	True
722.513	1.45	Control	0.6623	n/a	Yes	3.235	n/a	5.0	GoodResponse	0	0.048	721.561	11	76	Feedback	Neutral	True
723.963	3.235	Control	0.6623	n/a	Yes	3.235	n/a	n/a	GoodResponse	0	0.0	n/a	11	76	ISIslide	Neutral	True
727.228	0.25	Lose2	0.6667000000000001	0.0	Yes	2.572	0.028	n/a	GoodResponse	0	n/a	n/a	11	77	Cue	AvoidedLoss	False
727.478	3.95	Lose2	0.6667000000000001	0.0	Yes	2.572	0.0	4.0	GoodResponse	0	0.227	726.705	11	77	Fixation	AvoidedLoss	False
727.705	0.3	Lose2	0.6667000000000001	0.0	Yes	2.572	0.0	4.0	GoodResponse	0	0.227	n/a	11	77	ButtonPress	AvoidedLoss	False
731.427	0.4	Lose2	0.6667000000000001	0.001	Yes	2.572	-0.001	4.0	GoodResponse	0	0.278	730.705	11	77	Target	AvoidedLoss	False
731.705	0.3	Lose2	0.6667000000000001	0.001	Yes	2.572	-0.001	4.0	GoodResponse	0	0.278	n/a	11	77	ButtonPress	AvoidedLoss	False
731.827	0.3	Lose2	0.6667000000000001	n/a	Yes	2.572	n/a	n/a	GoodResponse	0	n/a	n/a	11	77	Blank	AvoidedLoss	False
732.126	1.45	Lose2	0.6667000000000001	n/a	Yes	2.572	n/a	5.0	GoodResponse	0	0.044	731.17	11	77	Feedback	AvoidedLoss	False
733.576	2.572	Lose2	0.6667000000000001	n/a	Yes	2.572	n/a	n/a	GoodResponse	0	0.0	n/a	11	77	ISIslide	AvoidedLoss	False
