onset	duration	cue_type	current_mean_accuracy	duration_error	is_hit	isi_adjusted	onset_delay	response	response_type	reward	rt	rt_time	total_reward	trial_number	trial_phase	trial_type	one_press
11.101	0.25	Control	1.0	0.0	Yes	2.949	0.001	n/a	GoodResponse	0	n/a	n/a	0	0	Cue	Neutral	True
11.352	3.85	Control	1.0	0.0	Yes	2.949	0.001	n/a	GoodResponse	0	n/a	n/a	0	0	Fixation	Neutral	True
15.197	0.4	Control	1.0	0.004	Yes	2.949	-0.004	2.0	GoodResponse	0	0.174	14.371	0	0	Target	Neutral	True
15.371	0.3	Control	1.0	0.004	Yes	2.949	-0.004	2.0	GoodResponse	0	0.174	n/a	0	0	ButtonPress	Neutral	True
15.598	0.3	Control	1.0	n/a	Yes	2.949	n/a	n/a	GoodResponse	0	n/a	n/a	0	0	Blank	Neutral	True
15.899	1.45	Control	1.0	n/a	Yes	2.949	n/a	5.0	GoodResponse	0	0.026	14.925	0	0	Feedback	Neutral	True
17.353	2.949	Control	1.0	n/a	Yes	2.949	n/a	n/a	GoodResponse	0	0.0	n/a	0	0	ISIslide	Neutral	True
20.329	0.25	Lose2	1.0	0.0	Yes	2.771	0.029	n/a	GoodResponse	0	n/a	n/a	0	1	Cue	AvoidedLoss	True
20.579	4.0	Lose2	1.0	0.001	Yes	2.771	0.0	n/a	GoodResponse	0	n/a	n/a	0	1	Fixation	AvoidedLoss	True
24.575	0.39	Lose2	1.0	0.004	Yes	2.771	-0.004	2.0	GoodResponse	0	0.167	23.742	0	1	Target	AvoidedLoss	True
24.742	0.3	Lose2	1.0	0.004	Yes	2.771	-0.004	2.0	GoodResponse	0	0.167	n/a	0	1	ButtonPress	AvoidedLoss	True
24.976	0.31	Lose2	1.0	n/a	Yes	2.771	n/a	n/a	GoodResponse	0	n/a	n/a	0	1	Blank	AvoidedLoss	True
25.277	1.45	Lose2	1.0	n/a	Yes	2.771	n/a	5.0	GoodResponse	0	0.014	24.291	0	1	Feedback	AvoidedLoss	True
26.731	2.771	Lose2	1.0	n/a	Yes	2.771	n/a	n/a	GoodResponse	0	0.0	n/a	0	1	ISIslide	AvoidedLoss	True
29.523	0.25	Control	0.6667000000000001	0.0	No	2.577	0.023	n/a	PrematurePress	0	n/a	n/a	0	2	Cue	Neutral	True
29.774	4.1	Control	0.6667000000000001	0.0	No	2.577	0.001	n/a	PrematurePress	0	n/a	n/a	0	2	Fixation	Neutral	True
33.869	0.38	Control	0.6667000000000001	0.004	No	2.577	-0.004	2.0	PrematurePress	0	0.083	32.952	0	2	Target	Neutral	True
33.952	0.3	Control	0.6667000000000001	0.004	No	2.577	-0.004	2.0	PrematurePress	0	0.083	n/a	0	2	ButtonPress	Neutral	True
34.254	0.32	Control	0.6667000000000001	n/a	No	2.577	n/a	n/a	PrematurePress	0	n/a	n/a	0	2	Blank	Neutral	True
34.571	1.45	Control	0.6667000000000001	n/a	No	2.577	n/a	5.0	PrematurePress	0	0.037	33.608	0	2	Feedback	Neutral	True
36.026	2.577	Control	0.6667000000000001	n/a	No	2.577	n/a	n/a	PrematurePress	0	0.0	n/a	0	2	ISIslide	Neutral	True
38.617	0.25	Win2	0.75	0.0	Yes	2.833	0.017	n/a	GoodResponse	1	n/a	n/a	1	3	Cue	Win	True
38.867	3.95	Win2	0.75	0.0	Yes	2.833	0.0	n/a	GoodResponse	1	n/a	n/a	1	3	Fixation	Win	True
42.813	0.37	Win2	0.75	0.004	Yes	2.833	-0.004	2.0	GoodResponse	1	0.167	41.98	1	3	Target	Win	True
42.98	0.3	Win2	0.75	0.004	Yes	2.833	-0.004	2.0	GoodResponse	1	0.167	n/a	1	3	ButtonPress	Win	True
43.197	0.33	Win2	0.75	n/a	Yes	2.833	n/a	n/a	GoodResponse	1	n/a	n/a	1	3	Blank	Win	True
43.515	1.45	Win2	0.75	n/a	Yes	2.833	n/a	5.0	GoodResponse	1	0.02	42.535	1	3	Feedback	Win	True
44.969	2.833	Win2	0.75	n/a	Yes	2.833	n/a	n/a	GoodResponse	1	0.0	n/a	1	3	ISIslide	Win	True
47.828	0.25	Win2	0.8	0.0	Yes	3.272	0.028	n/a	GoodResponse	1	n/a	n/a	2	4	Cue	Win	True
48.078	4.0	Win2	0.8	0.0	Yes	3.272	0.0	n/a	GoodResponse	1	n/a	n/a	2	4	Fixation	Win	True
52.074	0.36	Win2	0.8	0.004	Yes	3.272	-0.004	2.0	GoodResponse	1	0.189	51.263	2	4	Target	Win	True
52.263	0.3	Win2	0.8	0.004	Yes	3.272	-0.004	2.0	GoodResponse	1	0.189	n/a	2	4	ButtonPress	Win	True
52.441	0.34	Win2	0.8	n/a	Yes	3.272	n/a	n/a	GoodResponse	1	n/a	n/a	2	4	Blank	Win	True
52.776	1.45	Win2	0.8	n/a	Yes	3.272	n/a	5.0	GoodResponse	1	0.027	51.803	2	4	Feedback	Win	True
54.23	3.272	Win2	0.8	n/a	Yes	3.272	n/a	n/a	GoodResponse	1	0.0	n/a	2	4	ISIslide	Win	True
57.523	0.25	Win2	0.8332999999999999	0.0	Yes	2.777	0.023	n/a	GoodResponse	1	n/a	n/a	3	5	Cue	Win	True
57.774	4.0	Win2	0.8332999999999999	0.0	Yes	2.777	0.001	n/a	GoodResponse	1	n/a	n/a	3	5	Fixation	Win	True
61.769	0.35	Win2	0.8332999999999999	0.004	Yes	2.777	-0.004	2.0	GoodResponse	1	0.159	60.928	3	5	Target	Win	True
61.928	0.3	Win2	0.8332999999999999	0.004	Yes	2.777	-0.004	2.0	GoodResponse	1	0.159	n/a	3	5	ButtonPress	Win	True
62.12	0.35	Win2	0.8332999999999999	n/a	Yes	2.777	n/a	n/a	GoodResponse	1	n/a	n/a	3	5	Blank	Win	True
62.471	1.45	Win2	0.8332999999999999	n/a	Yes	2.777	n/a	5.0	GoodResponse	1	0.039	61.51	3	5	Feedback	Win	True
63.926	2.777	Win2	0.8332999999999999	n/a	Yes	2.777	n/a	n/a	GoodResponse	1	0.0	n/a	3	5	ISIslide	Win	True
66.717	0.25	Lose2	0.8571	0.0	Yes	2.733	0.017	n/a	GoodResponse	0	n/a	n/a	3	6	Cue	AvoidedLoss	True
66.968	3.95	Lose2	0.8571	0.0	Yes	2.733	0.001	n/a	GoodResponse	0	n/a	n/a	3	6	Fixation	AvoidedLoss	True
70.913	0.34	Lose2	0.8571	0.004	Yes	2.733	-0.004	2.0	GoodResponse	0	0.178	70.091	3	6	Target	AvoidedLoss	True
71.091	0.3	Lose2	0.8571	0.004	Yes	2.733	-0.004	2.0	GoodResponse	0	0.178	n/a	3	6	ButtonPress	AvoidedLoss	True
71.264	0.36	Lose2	0.8571	n/a	Yes	2.733	n/a	n/a	GoodResponse	0	n/a	n/a	3	6	Blank	AvoidedLoss	True
71.615	1.45	Lose2	0.8571	n/a	Yes	2.733	n/a	5.0	GoodResponse	0	0.017	70.632	3	6	Feedback	AvoidedLoss	True
73.07	2.733	Lose2	0.8571	n/a	Yes	2.733	n/a	n/a	GoodResponse	0	0.0	n/a	3	6	ISIslide	AvoidedLoss	True
75.828	0.25	Lose2	0.875	0.0	Yes	4.022	0.028	n/a	GoodResponse	0	n/a	n/a	3	7	Cue	AvoidedLoss	True
76.079	4.05	Lose2	0.875	0.0	Yes	4.022	0.001	n/a	GoodResponse	0	n/a	n/a	3	7	Fixation	AvoidedLoss	True
80.124	0.33	Lose2	0.875	0.004	Yes	4.022	-0.004	2.0	GoodResponse	0	0.174	79.298	3	7	Target	AvoidedLoss	True
80.298	0.3	Lose2	0.875	0.004	Yes	4.022	-0.004	2.0	GoodResponse	0	0.174	n/a	3	7	ButtonPress	AvoidedLoss	True
80.458	0.37	Lose2	0.875	n/a	Yes	4.022	n/a	n/a	GoodResponse	0	n/a	n/a	3	7	Blank	AvoidedLoss	True
80.826	1.45	Lose2	0.875	n/a	Yes	4.022	n/a	5.0	GoodResponse	0	0.026	79.852	3	7	Feedback	AvoidedLoss	True
82.28	4.022	Lose2	0.875	n/a	Yes	4.022	n/a	n/a	GoodResponse	0	0.0	n/a	3	7	ISIslide	AvoidedLoss	True
86.326	0.25	Lose2	0.8889	0.0	Yes	3.024	0.026	n/a	GoodResponse	0	n/a	n/a	3	8	Cue	AvoidedLoss	True
86.577	3.95	Lose2	0.8889	0.0	Yes	3.024	0.001	n/a	GoodResponse	0	n/a	n/a	3	8	Fixation	AvoidedLoss	True
90.522	0.32	Lose2	0.8889	0.004	Yes	3.024	-0.004	2.0	GoodResponse	0	0.186	89.708	3	8	Target	AvoidedLoss	True
90.708	0.3	Lose2	0.8889	0.004	Yes	3.024	-0.004	2.0	GoodResponse	0	0.186	n/a	3	8	ButtonPress	AvoidedLoss	True
90.856	0.38	Lose2	0.8889	n/a	Yes	3.024	n/a	n/a	GoodResponse	0	n/a	n/a	3	8	Blank	AvoidedLoss	True
91.224	1.45	Lose2	0.8889	n/a	Yes	3.024	n/a	5.0	GoodResponse	0	0.017	90.241	3	8	Feedback	AvoidedLoss	True
92.678	3.024	Lose2	0.8889	n/a	Yes	3.024	n/a	n/a	GoodResponse	0	0.0	n/a	3	8	ISIslide	AvoidedLoss	True
95.721	0.25	Lose2	0.9	0.0	Yes	3.129	0.021	n/a	GoodResponse	0	n/a	n/a	3	9	Cue	AvoidedLoss	True
95.971	3.95	Lose2	0.9	0.0	Yes	3.129	0.0	n/a	GoodResponse	0	n/a	n/a	3	9	Fixation	AvoidedLoss	True
99.933	0.31	Lose2	0.9	0.0	Yes	3.129	0.012	2.0	GoodResponse	0	0.181	99.114	3	9	Target	AvoidedLoss	True
100.114	0.3	Lose2	0.9	0.0	Yes	3.129	0.012	2.0	GoodResponse	0	0.181	n/a	3	9	ButtonPress	AvoidedLoss	True
100.234	0.39	Lose2	0.9	n/a	Yes	3.129	n/a	n/a	GoodResponse	0	n/a	n/a	3	9	Blank	AvoidedLoss	True
100.619	1.45	Lose2	0.9	n/a	Yes	3.129	n/a	5.0	GoodResponse	0	0.037	99.656	3	9	Feedback	AvoidedLoss	True
102.073	3.129	Lose2	0.9	n/a	Yes	3.129	n/a	n/a	GoodResponse	0	0.0	n/a	3	9	ISIslide	AvoidedLoss	True
105.216	0.25	Control	0.9091	0.0	Yes	3.284	0.016	n/a	GoodResponse	0	n/a	n/a	3	10	Cue	Neutral	True
105.466	4.0	Control	0.9091	0.0	Yes	3.284	0.0	n/a	GoodResponse	0	n/a	n/a	3	10	Fixation	Neutral	True
109.462	0.3	Control	0.9091	0.004	Yes	3.284	-0.004	2.0	GoodResponse	0	0.154	108.616	3	10	Target	Neutral	True
109.616	0.3	Control	0.9091	0.004	Yes	3.284	-0.004	2.0	GoodResponse	0	0.154	n/a	3	10	ButtonPress	Neutral	True
109.762	0.4	Control	0.9091	n/a	Yes	3.284	n/a	n/a	GoodResponse	0	n/a	n/a	3	10	Blank	Neutral	True
110.164	1.45	Control	0.9091	n/a	Yes	3.284	n/a	5.0	GoodResponse	0	0.008	109.172	3	10	Feedback	Neutral	True
111.618	3.284	Control	0.9091	n/a	Yes	3.284	n/a	n/a	GoodResponse	0	0.0	n/a	3	10	ISIslide	Neutral	True
114.928	0.25	Lose2	0.9167000000000001	0.0	Yes	2.722	0.028	n/a	GoodResponse	0	n/a	n/a	3	11	Cue	AvoidedLoss	True
115.179	4.05	Lose2	0.9167000000000001	0.0	Yes	2.722	0.001	n/a	GoodResponse	0	n/a	n/a	3	11	Fixation	AvoidedLoss	True
119.224	0.29	Lose2	0.9167000000000001	0.004	Yes	2.722	-0.004	2.0	GoodResponse	0	0.138	118.362	3	11	Target	AvoidedLoss	True
119.362	0.3	Lose2	0.9167000000000001	0.004	Yes	2.722	-0.004	2.0	GoodResponse	0	0.138	n/a	3	11	ButtonPress	AvoidedLoss	True
119.525	0.41	Lose2	0.9167000000000001	n/a	Yes	2.722	n/a	n/a	GoodResponse	0	n/a	n/a	3	11	Blank	AvoidedLoss	True
119.926	1.45	Lose2	0.9167000000000001	n/a	Yes	2.722	n/a	5.0	GoodResponse	0	0.047	118.973	3	11	Feedback	AvoidedLoss	True
121.381	2.722	Lose2	0.9167000000000001	n/a	Yes	2.722	n/a	n/a	GoodResponse	0	0.0	n/a	3	11	ISIslide	AvoidedLoss	True
124.122	0.25	Control	0.9231	0.0	Yes	2.978	0.022	n/a	GoodResponse	0	n/a	n/a	3	12	Cue	Neutral	True
124.373	3.9	Control	0.9231	0.0	Yes	2.978	0.001	n/a	GoodResponse	0	n/a	n/a	3	12	Fixation	Neutral	True
128.268	0.28	Control	0.9231	0.004	Yes	2.978	-0.004	2.0	GoodResponse	0	0.2	127.468	3	12	Target	Neutral	True
128.468	0.3	Control	0.9231	0.004	Yes	2.978	-0.004	2.0	GoodResponse	0	0.2	n/a	3	12	ButtonPress	Neutral	True
128.552	0.42	Control	0.9231	n/a	Yes	2.978	n/a	n/a	GoodResponse	0	n/a	n/a	3	12	Blank	Neutral	True
128.97	1.45	Control	0.9231	n/a	Yes	2.978	n/a	5.0	GoodResponse	0	0.027	127.997	3	12	Feedback	Neutral	True
130.424	2.978	Control	0.9231	n/a	Yes	2.978	n/a	n/a	GoodResponse	0	0.0	n/a	3	12	ISIslide	Neutral	True
133.416	0.25	Control	0.9286	0.001	Yes	2.784	0.016	n/a	GoodResponse	0	n/a	n/a	3	13	Cue	Neutral	True
133.667	4.0	Control	0.9286	0.0	Yes	2.784	0.001	n/a	GoodResponse	0	n/a	n/a	3	13	Fixation	Neutral	True
137.662	0.27	Control	0.9286	0.004	Yes	2.784	-0.004	2.0	GoodResponse	0	0.187	136.849	3	13	Target	Neutral	True
137.849	0.3	Control	0.9286	0.004	Yes	2.784	-0.004	2.0	GoodResponse	0	0.187	n/a	3	13	ButtonPress	Neutral	True
137.947	0.43	Control	0.9286	n/a	Yes	2.784	n/a	n/a	GoodResponse	0	n/a	n/a	3	13	Blank	Neutral	True
138.365	1.45	Control	0.9286	n/a	Yes	2.784	n/a	5.0	GoodResponse	0	0.046	137.411	3	13	Feedback	Neutral	True
139.819	2.784	Control	0.9286	n/a	Yes	2.784	n/a	n/a	GoodResponse	0	0.0	n/a	3	13	ISIslide	Neutral	True
142.627	0.25	Win2	0.9333	0.0	Yes	2.673	0.027	n/a	GoodResponse	1	n/a	n/a	4	14	Cue	Win	True
142.878	4.1	Win2	0.9333	0.0	Yes	2.673	0.001	n/a	GoodResponse	1	n/a	n/a	4	14	Fixation	Win	True
146.974	0.26	Win2	0.9333	0.003	Yes	2.673	-0.003	2.0	GoodResponse	1	0.203	146.177	4	14	Target	Win	True
147.177	0.3	Win2	0.9333	0.003	Yes	2.673	-0.003	2.0	GoodResponse	1	0.203	n/a	4	14	ButtonPress	Win	True
147.241	0.44	Win2	0.9333	n/a	Yes	2.673	n/a	n/a	GoodResponse	1	n/a	n/a	4	14	Blank	Win	True
147.676	1.45	Win2	0.9333	n/a	Yes	2.673	n/a	5.0	GoodResponse	1	0.004	146.68	4	14	Feedback	Win	True
149.13	2.673	Win2	0.9333	n/a	Yes	2.673	n/a	n/a	GoodResponse	1	0.0	n/a	4	14	ISIslide	Win	True
151.821	0.25	Control	0.9375	0.001	Yes	2.979	0.021	n/a	GoodResponse	0	n/a	n/a	4	15	Cue	Neutral	True
152.072	4.0	Control	0.9375	0.0	Yes	2.979	0.001	n/a	GoodResponse	0	n/a	n/a	4	15	Fixation	Neutral	True
156.067	0.25	Control	0.9375	0.004	Yes	2.979	-0.004	2.0	GoodResponse	0	0.206	155.273	4	15	Target	Neutral	True
156.273	0.3	Control	0.9375	0.004	Yes	2.979	-0.004	2.0	GoodResponse	0	0.206	n/a	4	15	ButtonPress	Neutral	True
156.318	0.45	Control	0.9375	n/a	Yes	2.979	n/a	n/a	GoodResponse	0	n/a	n/a	4	15	Blank	Neutral	True
156.77	1.45	Control	0.9375	n/a	Yes	2.979	n/a	5.0	GoodResponse	0	0.032	155.802	4	15	Feedback	Neutral	True
158.224	2.979	Control	0.9375	n/a	Yes	2.979	n/a	n/a	GoodResponse	0	0.0	n/a	4	15	ISIslide	Neutral	True
161.216	0.25	Win2	0.9412	0.0	Yes	2.884	0.016	n/a	GoodResponse	1	n/a	n/a	5	16	Cue	Win	False
161.467	4.0	Win2	0.9412	0.0	Yes	2.884	0.001	2.0	GoodResponse	1	3.81	164.277	5	16	Fixation	Win	False
165.277	0.3	Win2	0.9412	0.0	Yes	2.884	0.001	2.0	GoodResponse	1	3.81	n/a	5	16	ButtonPress	Win	False
165.462	0.24	Win2	0.9412	0.004	Yes	2.884	-0.004	2.0	GoodResponse	1	0.225	164.687	5	16	Target	Win	False
165.687	0.3	Win2	0.9412	0.004	Yes	2.884	-0.004	2.0	GoodResponse	1	0.225	n/a	5	16	ButtonPress	Win	False
165.713	0.46	Win2	0.9412	n/a	Yes	2.884	n/a	n/a	GoodResponse	1	n/a	n/a	5	16	Blank	Win	False
166.164	1.45	Win2	0.9412	n/a	Yes	2.884	n/a	5.0	GoodResponse	1	0.005	165.169	5	16	Feedback	Win	False
167.619	2.884	Win2	0.9412	n/a	Yes	2.884	n/a	n/a	GoodResponse	1	0.0	n/a	5	16	ISIslide	Win	False
170.527	0.25	Lose2	0.9444	0.0	Yes	2.723	0.027	n/a	GoodResponse	0	n/a	n/a	5	17	Cue	AvoidedLoss	True
170.778	3.95	Lose2	0.9444	0.0	Yes	2.723	0.001	n/a	GoodResponse	0	n/a	n/a	5	17	Fixation	AvoidedLoss	True
174.723	0.23	Lose2	0.9444	0.004	Yes	2.723	-0.004	2.0	GoodResponse	0	0.184	173.907	5	17	Target	AvoidedLoss	True
174.907	0.3	Lose2	0.9444	0.004	Yes	2.723	-0.004	2.0	GoodResponse	0	0.184	n/a	5	17	ButtonPress	AvoidedLoss	True
174.957	0.47	Lose2	0.9444	n/a	Yes	2.723	n/a	n/a	GoodResponse	0	n/a	n/a	5	17	Blank	AvoidedLoss	True
175.425	1.45	Lose2	0.9444	n/a	Yes	2.723	n/a	5.0	GoodResponse	0	0.01	174.435	5	17	Feedback	AvoidedLoss	True
176.88	2.723	Lose2	0.9444	n/a	Yes	2.723	n/a	n/a	GoodResponse	0	0.0	n/a	5	17	ISIslide	AvoidedLoss	True
179.621	0.25	Lose2	0.9473999999999999	0.0	Yes	2.729	0.021	n/a	GoodResponse	0	n/a	n/a	5	18	Cue	AvoidedLoss	True
179.872	4.05	Lose2	0.9473999999999999	0.0	Yes	2.729	0.001	n/a	GoodResponse	0	n/a	n/a	5	18	Fixation	AvoidedLoss	True
183.917	0.22	Lose2	0.9473999999999999	0.004	Yes	2.729	-0.004	2.0	GoodResponse	0	0.218	183.135	5	18	Target	AvoidedLoss	True
184.135	0.3	Lose2	0.9473999999999999	0.004	Yes	2.729	-0.004	2.0	GoodResponse	0	0.218	n/a	5	18	ButtonPress	AvoidedLoss	True
184.151	0.48	Lose2	0.9473999999999999	n/a	Yes	2.729	n/a	n/a	GoodResponse	0	n/a	n/a	5	18	Blank	AvoidedLoss	True
184.619	1.45	Lose2	0.9473999999999999	n/a	Yes	2.729	n/a	5.0	GoodResponse	0	0.036	183.655	5	18	Feedback	AvoidedLoss	True
186.074	2.729	Lose2	0.9473999999999999	n/a	Yes	2.729	n/a	n/a	GoodResponse	0	0.0	n/a	5	18	ISIslide	AvoidedLoss	True
188.815	0.25	Control	0.9	0.0	No	2.935	0.015	n/a	PrematurePress	0	n/a	n/a	5	19	Cue	Neutral	True
189.066	3.95	Control	0.9	0.0	No	2.935	0.001	n/a	PrematurePress	0	n/a	n/a	5	19	Fixation	Neutral	True
193.011	0.21	Control	0.9	0.004	No	2.935	-0.004	2.0	PrematurePress	0	0.095	192.106	5	19	Target	Neutral	True
193.106	0.3	Control	0.9	0.004	No	2.935	-0.004	2.0	PrematurePress	0	0.095	n/a	5	19	ButtonPress	Neutral	True
193.228	0.49	Control	0.9	n/a	No	2.935	n/a	n/a	PrematurePress	0	n/a	n/a	5	19	Blank	Neutral	True
193.713	1.45	Control	0.9	n/a	No	2.935	n/a	5.0	PrematurePress	0	0.015	192.728	5	19	Feedback	Neutral	True
195.168	2.935	Control	0.9	n/a	No	2.935	n/a	n/a	PrematurePress	0	0.0	n/a	5	19	ISIslide	Neutral	True
198.126	0.25	Control	0.9048	0.0	Yes	2.624	0.026	n/a	GoodResponse	0	n/a	n/a	5	20	Cue	Neutral	True
198.377	4.05	Control	0.9048	0.0	Yes	2.624	0.001	n/a	GoodResponse	0	n/a	n/a	5	20	Fixation	Neutral	True
202.423	0.2	Control	0.9048	0.003	Yes	2.624	-0.003	2.0	GoodResponse	0	0.172	201.595	5	20	Target	Neutral	True
202.595	0.3	Control	0.9048	0.003	Yes	2.624	-0.003	2.0	GoodResponse	0	0.172	n/a	5	20	ButtonPress	Neutral	True
202.623	0.5	Control	0.9048	n/a	Yes	2.624	n/a	n/a	GoodResponse	0	n/a	n/a	5	20	Blank	Neutral	True
203.125	1.45	Control	0.9048	n/a	Yes	2.624	n/a	5.0	GoodResponse	0	0.017	202.142	5	20	Feedback	Neutral	True
204.579	2.624	Control	0.9048	n/a	Yes	2.624	n/a	n/a	GoodResponse	0	0.0	n/a	5	20	ISIslide	Neutral	True
207.22	0.25	Control	0.9091	0.0	Yes	2.78	0.02	n/a	GoodResponse	0	n/a	n/a	5	21	Cue	Neutral	True
207.471	4.1	Control	0.9091	0.0	Yes	2.78	0.001	n/a	GoodResponse	0	n/a	n/a	5	21	Fixation	Neutral	True
211.567	0.19	Control	0.9091	0.003	Yes	2.78	-0.003	2.0	GoodResponse	0	0.172	210.739	5	21	Target	Neutral	True
211.739	0.3	Control	0.9091	0.003	Yes	2.78	-0.003	2.0	GoodResponse	0	0.172	n/a	5	21	ButtonPress	Neutral	True
211.767	0.51	Control	0.9091	n/a	Yes	2.78	n/a	n/a	GoodResponse	0	n/a	n/a	5	21	Blank	Neutral	True
212.269	1.45	Control	0.9091	n/a	Yes	2.78	n/a	5.0	GoodResponse	0	0.044	211.313	5	21	Feedback	Neutral	True
213.723	2.78	Control	0.9091	n/a	Yes	2.78	n/a	n/a	GoodResponse	0	0.0	n/a	5	21	ISIslide	Neutral	True
216.515	0.25	Control	0.9129999999999999	0.0	Yes	2.785	0.015	n/a	GoodResponse	0	n/a	n/a	5	22	Cue	Neutral	True
216.765	4.0	Control	0.9129999999999999	0.0	Yes	2.785	0.0	n/a	GoodResponse	0	n/a	n/a	5	22	Fixation	Neutral	True
220.761	0.18	Control	0.9129999999999999	0.004	Yes	2.785	-0.004	1.0	GoodResponse	0	0.167	219.928	5	22	Target	Neutral	True
220.928	0.3	Control	0.9129999999999999	0.004	Yes	2.785	-0.004	1.0	GoodResponse	0	0.167	n/a	5	22	ButtonPress	Neutral	True
220.945	0.52	Control	0.9129999999999999	n/a	Yes	2.785	n/a	n/a	GoodResponse	0	n/a	n/a	5	22	Blank	Neutral	True
221.463	1.45	Control	0.9129999999999999	n/a	Yes	2.785	n/a	5.0	GoodResponse	0	0.02	220.483	5	22	Feedback	Neutral	True
222.917	2.785	Control	0.9129999999999999	n/a	Yes	2.785	n/a	n/a	GoodResponse	0	0.0	n/a	5	22	ISIslide	Neutral	True
225.725	0.25	Control	0.875	0.001	No	2.775	0.025	n/a	LatePress	0	n/a	n/a	5	23	Cue	Neutral	True
225.976	3.9	Control	0.875	0.0	No	2.775	0.001	n/a	LatePress	0	n/a	n/a	5	23	Fixation	Neutral	True
229.871	0.17	Control	0.875	0.004	No	2.775	-0.004	1.0	LatePress	0	0.184	229.055	5	23	Target	Neutral	True
230.055	0.53	Control	0.875	n/a	No	2.775	n/a	n/a	LatePress	0	n/a	n/a	5	23	Blank	Neutral	True
230.055	0.3	Control	0.875	0.004	No	2.775	-0.004	1.0	LatePress	0	0.184	n/a	5	23	ButtonPress	Neutral	True
230.573	1.45	Control	0.875	n/a	No	2.775	n/a	5.0	LatePress	0	0.032	229.605	5	23	Feedback	Neutral	True
232.028	2.775	Control	0.875	n/a	No	2.775	n/a	n/a	LatePress	0	0.0	n/a	5	23	ISIslide	Neutral	True
234.819	0.25	Win2	0.84	0.0	No	3.131	0.019	n/a	NoResponse	0	n/a	n/a	5	24	Cue	MissedWin	True
235.07	3.95	Win2	0.84	0.0	No	3.131	0.001	n/a	NoResponse	0	n/a	n/a	5	24	Fixation	MissedWin	True
239.015	0.16	Win2	0.84	0.004	No	3.131	-0.004	2.0	NoResponse	0	0.185	238.2	5	24	Target	MissedWin	True
239.182	0.54	Win2	0.84	n/a	No	3.131	n/a	n/a	NoResponse	0	n/a	n/a	5	24	Blank	MissedWin	True
239.2	0.3	Win2	0.84	0.004	No	3.131	-0.004	2.0	NoResponse	0	0.185	n/a	5	24	ButtonPress	MissedWin	True
239.717	1.45	Win2	0.84	n/a	No	3.131	n/a	5.0	NoResponse	0	0.01	238.727	5	24	Feedback	MissedWin	True
241.172	3.131	Win2	0.84	n/a	No	3.131	n/a	n/a	NoResponse	0	0.0	n/a	5	24	ISIslide	MissedWin	True
244.314	0.25	Win2	0.8077	0.0	No	3.086	0.014	n/a	NoResponse	0	n/a	n/a	5	25	Cue	MissedWin	False
244.565	4.0	Win2	0.8077	0.0	No	3.086	0.001	2.0	NoResponse	0	3.721	247.286	5	25	Fixation	MissedWin	False
248.286	0.3	Win2	0.8077	0.0	No	3.086	0.001	2.0	NoResponse	0	3.721	n/a	5	25	ButtonPress	MissedWin	False
248.56	0.15	Win2	0.8077	0.004	No	3.086	-0.004	2.0	NoResponse	0	0.193	247.753	5	25	Target	MissedWin	False
248.711	0.55	Win2	0.8077	n/a	No	3.086	n/a	n/a	NoResponse	0	n/a	n/a	5	25	Blank	MissedWin	False
248.753	0.3	Win2	0.8077	0.004	No	3.086	-0.004	2.0	NoResponse	0	0.193	n/a	5	25	ButtonPress	MissedWin	False
249.262	1.45	Win2	0.8077	n/a	No	3.086	n/a	5.0	NoResponse	0	0.026	248.288	5	25	Feedback	MissedWin	False
250.717	3.086	Win2	0.8077	n/a	No	3.086	n/a	n/a	NoResponse	0	0.0	n/a	5	25	ISIslide	MissedWin	False
253.826	0.25	Win2	0.7778	0.0	No	2.924	0.026	n/a	NoResponse	0	n/a	n/a	5	26	Cue	MissedWin	True
254.077	3.95	Win2	0.7778	0.0	No	2.924	0.001	n/a	NoResponse	0	n/a	n/a	5	26	Fixation	MissedWin	True
258.022	0.15	Win2	0.7778	0.004	No	2.924	-0.004	2.0	NoResponse	0	0.174	257.196	5	26	Target	MissedWin	True
258.172	0.55	Win2	0.7778	n/a	No	2.924	n/a	n/a	NoResponse	0	n/a	n/a	5	26	Blank	MissedWin	True
258.196	0.3	Win2	0.7778	0.004	No	2.924	-0.004	2.0	NoResponse	0	0.174	n/a	5	26	ButtonPress	MissedWin	True
258.724	1.45	Win2	0.7778	n/a	No	2.924	n/a	5.0	NoResponse	0	0.027	257.751	5	26	Feedback	MissedWin	True
260.178	2.924	Win2	0.7778	n/a	No	2.924	n/a	n/a	NoResponse	0	0.0	n/a	5	26	ISIslide	MissedWin	True
263.12	0.25	Lose2	0.75	0.001	No	2.83	0.02	n/a	NoResponse	-1	n/a	n/a	4	27	Cue	Loss	False
263.371	4.05	Lose2	0.75	0.0	No	2.83	0.001	2.0	NoResponse	-1	3.431	265.802	4	27	Fixation	Loss	False
266.802	0.3	Lose2	0.75	0.0	No	2.83	0.001	2.0	NoResponse	-1	3.431	n/a	4	27	ButtonPress	Loss	False
267.417	0.15	Lose2	0.75	0.003	No	2.83	-0.003	2.0	NoResponse	-1	0.171	266.588	4	27	Target	Loss	False
267.567	0.55	Lose2	0.75	n/a	No	2.83	n/a	n/a	NoResponse	-1	n/a	n/a	4	27	Blank	Loss	False
267.588	0.3	Lose2	0.75	0.003	No	2.83	-0.003	2.0	NoResponse	-1	0.171	n/a	4	27	ButtonPress	Loss	False
268.119	1.45	Lose2	0.75	n/a	No	2.83	n/a	5.0	NoResponse	-1	0.047	267.166	4	27	Feedback	Loss	False
269.573	2.83	Lose2	0.75	n/a	No	2.83	n/a	n/a	NoResponse	-1	0.0	n/a	4	27	ISIslide	Loss	False
272.415	0.25	Control	0.7241	0.0	No	2.835	0.015	n/a	NoResponse	0	n/a	n/a	4	28	Cue	Neutral	False
272.666	4.05	Control	0.7241	0.0	No	2.835	0.001	2.0	NoResponse	0	3.789	275.455	4	28	Fixation	Neutral	False
276.455	0.3	Control	0.7241	0.0	No	2.835	0.001	2.0	NoResponse	0	3.789	n/a	4	28	ButtonPress	Neutral	False
276.711	0.15	Control	0.7241	0.004	No	2.835	-0.004	2.0	NoResponse	0	0.199	275.91	4	28	Target	Neutral	False
276.862	0.55	Control	0.7241	n/a	No	2.835	n/a	n/a	NoResponse	0	n/a	n/a	4	28	Blank	Neutral	False
276.91	0.3	Control	0.7241	0.004	No	2.835	-0.004	2.0	NoResponse	0	0.199	n/a	4	28	ButtonPress	Neutral	False
277.413	1.45	Control	0.7241	n/a	No	2.835	n/a	5.0	NoResponse	0	0.02	276.433	4	28	Feedback	Neutral	False
278.868	2.835	Control	0.7241	n/a	No	2.835	n/a	n/a	NoResponse	0	0.0	n/a	4	28	ISIslide	Neutral	False
281.726	0.25	Lose2	0.7	0.0	No	2.824	0.026	n/a	NoResponse	-1	n/a	n/a	3	29	Cue	Loss	False
281.977	3.95	Lose2	0.7	0.0	No	2.824	0.001	2.0	NoResponse	-1	3.739	284.716	3	29	Fixation	Loss	False
285.716	0.3	Lose2	0.7	0.0	No	2.824	0.001	2.0	NoResponse	-1	3.739	n/a	3	29	ButtonPress	Loss	False
285.922	0.15	Lose2	0.7	0.004	No	2.824	-0.004	2.0	NoResponse	-1	0.228	285.15	3	29	Target	Loss	False
286.072	0.55	Lose2	0.7	n/a	No	2.824	n/a	n/a	NoResponse	-1	n/a	n/a	3	29	Blank	Loss	False
286.15	0.3	Lose2	0.7	0.004	No	2.824	-0.004	2.0	NoResponse	-1	0.228	n/a	3	29	ButtonPress	Loss	False
286.624	1.45	Lose2	0.7	n/a	No	2.824	n/a	5.0	NoResponse	-1	0.029	285.653	3	29	Feedback	Loss	False
288.078	2.824	Lose2	0.7	n/a	No	2.824	n/a	n/a	NoResponse	-1	0.0	n/a	3	29	ISIslide	Loss	False
290.92	0.25	Win2	0.6774	0.0	No	2.78	0.02	n/a	NoResponse	0	n/a	n/a	3	30	Cue	MissedWin	True
291.171	3.9	Win2	0.6774	0.0	No	2.78	0.001	n/a	NoResponse	0	n/a	n/a	3	30	Fixation	MissedWin	True
295.066	0.15	Win2	0.6774	0.004	No	2.78	-0.004	2.0	NoResponse	0	0.179	294.245	3	30	Target	MissedWin	True
295.216	0.55	Win2	0.6774	n/a	No	2.78	n/a	n/a	NoResponse	0	n/a	n/a	3	30	Blank	MissedWin	True
295.245	0.3	Win2	0.6774	0.004	No	2.78	-0.004	2.0	NoResponse	0	0.179	n/a	3	30	ButtonPress	MissedWin	True
295.768	1.45	Win2	0.6774	n/a	No	2.78	n/a	5.0	NoResponse	0	0.007	294.775	3	30	Feedback	MissedWin	True
297.222	2.78	Win2	0.6774	n/a	No	2.78	n/a	n/a	NoResponse	0	0.0	n/a	3	30	ISIslide	MissedWin	True
300.014	0.25	Lose2	0.6562	0.0	No	2.836	0.014	n/a	NoResponse	-1	n/a	n/a	2	31	Cue	Loss	True
300.265	4.05	Lose2	0.6562	0.0	No	2.836	0.001	2.0	NoResponse	-1	3.938	303.203	2	31	Fixation	Loss	True
304.203	0.3	Lose2	0.6562	0.0	No	2.836	0.001	2.0	NoResponse	-1	3.938	n/a	2	31	ButtonPress	Loss	True
304.31	0.15	Lose2	0.6562	0.004	No	2.836	-0.004	n/a	NoResponse	-1	n/a	n/a	2	31	Target	Loss	True
304.461	0.55	Lose2	0.6562	n/a	No	2.836	n/a	n/a	NoResponse	-1	n/a	n/a	2	31	Blank	Loss	True
305.012	1.45	Lose2	0.6562	n/a	No	2.836	n/a	5.0	NoResponse	-1	0.031	304.043	2	31	Feedback	Loss	True
306.467	2.836	Lose2	0.6562	n/a	No	2.836	n/a	n/a	NoResponse	-1	0.0	n/a	2	31	ISIslide	Loss	True
309.325	0.25	Lose2	0.6364	0.0	No	2.625	0.025	n/a	NoResponse	-1	n/a	n/a	1	32	Cue	Loss	True
309.576	4.15	Lose2	0.6364	0.0	No	2.625	0.001	n/a	NoResponse	-1	n/a	n/a	1	32	Fixation	Loss	True
313.722	0.15	Lose2	0.6364	0.003	No	2.625	-0.003	2.0	NoResponse	-1	0.164	312.886	1	32	Target	Loss	True
313.872	0.55	Lose2	0.6364	n/a	No	2.625	n/a	n/a	NoResponse	-1	n/a	n/a	1	32	Blank	Loss	True
313.886	0.3	Lose2	0.6364	0.003	No	2.625	-0.003	2.0	NoResponse	-1	0.164	n/a	1	32	ButtonPress	Loss	True
314.424	1.45	Lose2	0.6364	n/a	No	2.625	n/a	5.0	NoResponse	-1	0.033	313.457	1	32	Feedback	Loss	True
315.878	2.625	Lose2	0.6364	n/a	No	2.625	n/a	n/a	NoResponse	-1	0.0	n/a	1	32	ISIslide	Loss	True
318.519	0.25	Win2	0.6175999999999999	0.0	No	2.681	0.019	n/a	PrematurePress	0	n/a	n/a	1	33	Cue	MissedWin	False
318.77	4.0	Win2	0.6175999999999999	0.0	No	2.681	0.001	2.0	PrematurePress	0	3.653	321.423	1	33	Fixation	MissedWin	False
322.423	0.3	Win2	0.6175999999999999	0.0	No	2.681	0.001	2.0	PrematurePress	0	3.653	n/a	1	33	ButtonPress	MissedWin	False
322.765	0.16	Win2	0.6175999999999999	0.004	No	2.681	-0.004	2.0	PrematurePress	0	0.084	321.849	1	33	Target	MissedWin	False
322.849	0.3	Win2	0.6175999999999999	0.004	No	2.681	-0.004	2.0	PrematurePress	0	0.084	n/a	1	33	ButtonPress	MissedWin	False
322.932	0.54	Win2	0.6175999999999999	n/a	No	2.681	n/a	n/a	PrematurePress	0	n/a	n/a	1	33	Blank	MissedWin	False
323.467	1.45	Win2	0.6175999999999999	n/a	No	2.681	n/a	5.0	PrematurePress	0	0.015	322.482	1	33	Feedback	MissedWin	False
324.922	2.681	Win2	0.6175999999999999	n/a	No	2.681	n/a	n/a	PrematurePress	0	0.0	n/a	1	33	ISIslide	MissedWin	False
327.63	0.25	Lose2	0.6	0.0	No	2.62	0.03	n/a	NoResponse	-1	n/a	n/a	0	34	Cue	Loss	True
327.881	4.05	Lose2	0.6	0.0	No	2.62	0.001	n/a	NoResponse	-1	n/a	n/a	0	34	Fixation	Loss	True
331.926	0.17	Lose2	0.6	0.004	No	2.62	-0.004	2.0	NoResponse	-1	0.196	331.122	0	34	Target	Loss	True
332.11	0.53	Lose2	0.6	n/a	No	2.62	n/a	n/a	NoResponse	-1	n/a	n/a	0	34	Blank	Loss	True
332.122	0.3	Lose2	0.6	0.004	No	2.62	-0.004	2.0	NoResponse	-1	0.196	n/a	0	34	ButtonPress	Loss	True
332.628	1.45	Lose2	0.6	n/a	No	2.62	n/a	5.0	NoResponse	-1	0.024	331.652	0	34	Feedback	Loss	True
334.082	2.62	Lose2	0.6	n/a	No	2.62	n/a	n/a	NoResponse	-1	0.0	n/a	0	34	ISIslide	Loss	True
336.724	0.25	Lose2	0.6111	0.0	Yes	2.676	0.024	n/a	GoodResponse	0	n/a	n/a	0	35	Cue	AvoidedLoss	True
336.974	4.0	Lose2	0.6111	0.0	Yes	2.676	0.0	n/a	GoodResponse	0	n/a	n/a	0	35	Fixation	AvoidedLoss	True
340.97	0.18	Lose2	0.6111	0.004	Yes	2.676	-0.004	2.0	GoodResponse	0	0.173	340.143	0	35	Target	AvoidedLoss	True
341.143	0.3	Lose2	0.6111	0.004	Yes	2.676	-0.004	2.0	GoodResponse	0	0.173	n/a	0	35	ButtonPress	AvoidedLoss	True
341.154	0.52	Lose2	0.6111	n/a	Yes	2.676	n/a	n/a	GoodResponse	0	n/a	n/a	0	35	Blank	AvoidedLoss	True
341.672	1.45	Lose2	0.6111	n/a	Yes	2.676	n/a	5.0	GoodResponse	0	0.005	340.677	0	35	Feedback	AvoidedLoss	True
343.126	2.676	Lose2	0.6111	n/a	Yes	2.676	n/a	n/a	GoodResponse	0	0.0	n/a	0	35	ISIslide	AvoidedLoss	True
345.817	0.25	Control	0.6215999999999999	0.001	Yes	2.683	0.017	n/a	GoodResponse	0	n/a	n/a	0	36	Cue	Neutral	True
346.068	4.0	Control	0.6215999999999999	0.0	Yes	2.683	0.001	n/a	GoodResponse	0	n/a	n/a	0	36	Fixation	Neutral	True
350.063	0.19	Control	0.6215999999999999	0.004	Yes	2.683	-0.004	2.0	GoodResponse	0	0.167	349.23	0	36	Target	Neutral	True
350.23	0.3	Control	0.6215999999999999	0.004	Yes	2.683	-0.004	2.0	GoodResponse	0	0.167	n/a	0	36	ButtonPress	Neutral	True
350.264	0.51	Control	0.6215999999999999	n/a	Yes	2.683	n/a	n/a	GoodResponse	0	n/a	n/a	0	36	Blank	Neutral	True
350.766	1.45	Control	0.6215999999999999	n/a	Yes	2.683	n/a	5.0	GoodResponse	0	0.032	349.798	0	36	Feedback	Neutral	True
352.22	2.683	Control	0.6215999999999999	n/a	Yes	2.683	n/a	n/a	GoodResponse	0	0.0	n/a	0	36	ISIslide	Neutral	True
354.928	0.25	Win2	0.6053000000000001	0.0	No	2.872	0.028	n/a	NoResponse	0	n/a	n/a	0	37	Cue	MissedWin	False
355.179	4.0	Win2	0.6053000000000001	0.0	No	2.872	0.001	2.0	NoResponse	0	3.817	357.996	0	37	Fixation	MissedWin	False
358.996	0.3	Win2	0.6053000000000001	0.0	No	2.872	0.001	2.0	NoResponse	0	3.817	n/a	0	37	ButtonPress	MissedWin	False
359.174	0.2	Win2	0.6053000000000001	0.004	No	2.872	-0.004	2.0	NoResponse	0	0.231	358.405	0	37	Target	MissedWin	False
359.375	0.5	Win2	0.6053000000000001	n/a	No	2.872	n/a	n/a	NoResponse	0	n/a	n/a	0	37	Blank	MissedWin	False
359.405	0.3	Win2	0.6053000000000001	0.004	No	2.872	-0.004	2.0	NoResponse	0	0.231	n/a	0	37	ButtonPress	MissedWin	False
359.876	1.45	Win2	0.6053000000000001	n/a	No	2.872	n/a	5.0	NoResponse	0	0.044	358.92	0	37	Feedback	MissedWin	False
361.33	2.872	Win2	0.6053000000000001	n/a	No	2.872	n/a	n/a	NoResponse	0	0.0	n/a	0	37	ISIslide	MissedWin	False
364.222	0.25	Lose2	0.5897	0.001	No	2.828	0.022	n/a	NoResponse	-1	n/a	n/a	-1	38	Cue	Loss	True
364.473	3.95	Lose2	0.5897	0.0	No	2.828	0.001	n/a	NoResponse	-1	n/a	n/a	-1	38	Fixation	Loss	True
368.418	0.21	Lose2	0.5897	0.004	No	2.828	-0.004	2.0	NoResponse	-1	0.241	367.659	-1	38	Target	Loss	True
368.636	0.49	Lose2	0.5897	n/a	No	2.828	n/a	n/a	NoResponse	-1	n/a	n/a	-1	38	Blank	Loss	True
368.659	0.3	Lose2	0.5897	0.004	No	2.828	-0.004	2.0	NoResponse	-1	0.241	n/a	-1	38	ButtonPress	Loss	True
369.12	1.45	Lose2	0.5897	n/a	No	2.828	n/a	5.0	NoResponse	-1	0.02	368.14	-1	38	Feedback	Loss	True
370.575	2.828	Lose2	0.5897	n/a	No	2.828	n/a	n/a	NoResponse	-1	0.0	n/a	-1	38	ISIslide	Loss	True
373.417	0.25	Win2	0.6	0.0	Yes	2.983	0.017	n/a	GoodResponse	1	n/a	n/a	0	39	Cue	Win	False
373.667	4.1	Win2	0.6	0.0	Yes	2.983	0.0	2.0	GoodResponse	1	3.823	376.49	0	39	Fixation	Win	False
377.49	0.3	Win2	0.6	0.0	Yes	2.983	0.0	2.0	GoodResponse	1	3.823	n/a	0	39	ButtonPress	Win	False
377.763	0.22	Win2	0.6	0.004	Yes	2.983	-0.004	2.0	GoodResponse	1	0.165	376.928	0	39	Target	Win	False
377.928	0.3	Win2	0.6	0.004	Yes	2.983	-0.004	2.0	GoodResponse	1	0.165	n/a	0	39	ButtonPress	Win	False
377.997	0.48	Win2	0.6	n/a	Yes	2.983	n/a	n/a	GoodResponse	1	n/a	n/a	0	39	Blank	Win	False
378.465	1.45	Win2	0.6	n/a	Yes	2.983	n/a	5.0	GoodResponse	1	0.04	377.505	0	39	Feedback	Win	False
379.919	2.983	Win2	0.6	n/a	Yes	2.983	n/a	n/a	GoodResponse	1	0.0	n/a	0	39	ISIslide	Win	False
382.928	0.25	Win2	0.6098	0.0	Yes	2.722	0.028	n/a	GoodResponse	1	n/a	n/a	1	40	Cue	Win	True
383.179	3.95	Win2	0.6098	0.0	Yes	2.722	0.001	n/a	GoodResponse	1	n/a	n/a	1	40	Fixation	Win	True
387.124	0.23	Win2	0.6098	0.004	Yes	2.722	-0.004	2.0	GoodResponse	1	0.174	386.298	1	40	Target	Win	True
387.298	0.3	Win2	0.6098	0.004	Yes	2.722	-0.004	2.0	GoodResponse	1	0.174	n/a	1	40	ButtonPress	Win	True
387.358	0.47	Win2	0.6098	n/a	Yes	2.722	n/a	n/a	GoodResponse	1	n/a	n/a	1	40	Blank	Win	True
387.826	1.45	Win2	0.6098	n/a	Yes	2.722	n/a	5.0	GoodResponse	1	0.044	386.87	1	40	Feedback	Win	True
389.281	2.722	Win2	0.6098	n/a	Yes	2.722	n/a	n/a	GoodResponse	1	0.0	n/a	1	40	ISIslide	Win	True
392.022	0.25	Win2	0.619	0.0	Yes	2.778	0.022	n/a	GoodResponse	1	n/a	n/a	2	41	Cue	Win	True
392.273	3.9	Win2	0.619	0.0	Yes	2.778	0.001	n/a	GoodResponse	1	n/a	n/a	2	41	Fixation	Win	True
396.168	0.24	Win2	0.619	0.004	Yes	2.778	-0.004	2.0	GoodResponse	1	0.176	395.344	2	41	Target	Win	True
396.344	0.3	Win2	0.619	0.004	Yes	2.778	-0.004	2.0	GoodResponse	1	0.176	n/a	2	41	ButtonPress	Win	True
396.419	0.46	Win2	0.619	n/a	Yes	2.778	n/a	n/a	GoodResponse	1	n/a	n/a	2	41	Blank	Win	True
396.87	1.45	Win2	0.619	n/a	Yes	2.778	n/a	5.0	GoodResponse	1	0.025	395.895	2	41	Feedback	Win	True
398.324	2.778	Win2	0.619	n/a	Yes	2.778	n/a	n/a	GoodResponse	1	0.0	n/a	2	41	ISIslide	Win	True
401.116	0.25	Control	0.6279	0.0	Yes	2.934	0.016	n/a	GoodResponse	0	n/a	n/a	2	42	Cue	Neutral	True
401.367	3.85	Control	0.6279	0.0	Yes	2.934	0.001	n/a	GoodResponse	0	n/a	n/a	2	42	Fixation	Neutral	True
405.212	0.25	Control	0.6279	0.004	Yes	2.934	-0.004	2.0	GoodResponse	0	0.165	404.377	2	42	Target	Neutral	True
405.377	0.3	Control	0.6279	0.004	Yes	2.934	-0.004	2.0	GoodResponse	0	0.165	n/a	2	42	ButtonPress	Neutral	True
405.462	0.45	Control	0.6279	n/a	Yes	2.934	n/a	n/a	GoodResponse	0	n/a	n/a	2	42	Blank	Neutral	True
405.914	1.45	Control	0.6279	n/a	Yes	2.934	n/a	5.0	GoodResponse	0	0.005	404.919	2	42	Feedback	Neutral	True
407.368	2.934	Control	0.6279	n/a	Yes	2.934	n/a	n/a	GoodResponse	0	0.0	n/a	2	42	ISIslide	Neutral	True
410.327	0.25	Win2	0.6364	0.0	Yes	3.173	0.027	n/a	GoodResponse	1	n/a	n/a	3	43	Cue	Win	True
410.578	4.0	Win2	0.6364	0.0	Yes	3.173	0.001	n/a	GoodResponse	1	n/a	n/a	3	43	Fixation	Win	True
414.573	0.26	Win2	0.6364	0.004	Yes	3.173	-0.004	2.0	GoodResponse	1	0.159	413.732	3	43	Target	Win	True
414.732	0.3	Win2	0.6364	0.004	Yes	3.173	-0.004	2.0	GoodResponse	1	0.159	n/a	3	43	ButtonPress	Win	True
414.84	0.44	Win2	0.6364	n/a	Yes	3.173	n/a	n/a	GoodResponse	1	n/a	n/a	3	43	Blank	Win	True
415.275	1.45	Win2	0.6364	n/a	Yes	3.173	n/a	5.0	GoodResponse	1	0.01	414.285	3	43	Feedback	Win	True
416.729	3.173	Win2	0.6364	n/a	Yes	3.173	n/a	n/a	GoodResponse	1	0.0	n/a	3	43	ISIslide	Win	True
419.922	0.25	Win2	0.6444	0.0	Yes	2.978	0.022	n/a	GoodResponse	1	n/a	n/a	4	44	Cue	Win	True
420.173	4.0	Win2	0.6444	0.0	Yes	2.978	0.001	n/a	GoodResponse	1	n/a	n/a	4	44	Fixation	Win	True
424.168	0.27	Win2	0.6444	0.004	Yes	2.978	-0.004	2.0	GoodResponse	1	0.191	423.359	4	44	Target	Win	True
424.359	0.3	Win2	0.6444	0.004	Yes	2.978	-0.004	2.0	GoodResponse	1	0.191	n/a	4	44	ButtonPress	Win	True
424.452	0.43	Win2	0.6444	n/a	Yes	2.978	n/a	n/a	GoodResponse	1	n/a	n/a	4	44	Blank	Win	True
424.87	1.45	Win2	0.6444	n/a	Yes	2.978	n/a	5.0	GoodResponse	1	0.024	423.894	4	44	Feedback	Win	True
426.325	2.978	Win2	0.6444	n/a	Yes	2.978	n/a	n/a	GoodResponse	1	0.0	n/a	4	44	ISIslide	Win	True
429.317	0.25	Control	0.6522	0.0	Yes	2.883	0.017	n/a	GoodResponse	0	n/a	n/a	4	45	Cue	Neutral	False
429.568	4.1	Control	0.6522	0.0	Yes	2.883	0.001	2.0	GoodResponse	0	3.796	432.364	4	45	Fixation	Neutral	False
433.364	0.3	Control	0.6522	0.0	Yes	2.883	0.001	2.0	GoodResponse	0	3.796	n/a	4	45	ButtonPress	Neutral	False
433.663	0.28	Control	0.6522	0.004	Yes	2.883	-0.004	2.0	GoodResponse	0	0.111	432.774	4	45	Target	Neutral	False
433.774	0.3	Control	0.6522	0.004	Yes	2.883	-0.004	2.0	GoodResponse	0	0.111	n/a	4	45	ButtonPress	Neutral	False
433.947	0.42	Control	0.6522	n/a	Yes	2.883	n/a	n/a	GoodResponse	0	n/a	n/a	4	45	Blank	Neutral	False
434.365	1.45	Control	0.6522	n/a	Yes	2.883	n/a	5.0	GoodResponse	0	0.042	433.407	4	45	Feedback	Neutral	False
435.82	2.883	Control	0.6522	n/a	Yes	2.883	n/a	n/a	GoodResponse	0	0.0	n/a	4	45	ISIslide	Neutral	False
438.728	0.25	Lose2	0.6596	0.0	Yes	3.372	0.028	n/a	GoodResponse	0	n/a	n/a	4	46	Cue	AvoidedLoss	True
438.979	4.0	Lose2	0.6596	0.0	Yes	3.372	0.001	n/a	GoodResponse	0	n/a	n/a	4	46	Fixation	AvoidedLoss	True
442.974	0.29	Lose2	0.6596	0.004	Yes	3.372	-0.004	2.0	GoodResponse	0	0.18	442.154	4	46	Target	AvoidedLoss	True
443.154	0.3	Lose2	0.6596	0.004	Yes	3.372	-0.004	2.0	GoodResponse	0	0.18	n/a	4	46	ButtonPress	AvoidedLoss	True
443.275	0.41	Lose2	0.6596	n/a	Yes	3.372	n/a	n/a	GoodResponse	0	n/a	n/a	4	46	Blank	AvoidedLoss	True
443.676	1.45	Lose2	0.6596	n/a	Yes	3.372	n/a	5.0	GoodResponse	0	0.048	442.724	4	46	Feedback	AvoidedLoss	True
445.131	3.372	Lose2	0.6596	n/a	Yes	3.372	n/a	n/a	GoodResponse	0	0.0	n/a	4	46	ISIslide	AvoidedLoss	True
448.524	0.25	Lose2	0.6667000000000001	0.0	Yes	2.676	0.024	n/a	GoodResponse	0	n/a	n/a	4	47	Cue	AvoidedLoss	True
448.775	4.0	Lose2	0.6667000000000001	0.0	Yes	2.676	0.001	n/a	GoodResponse	0	n/a	n/a	4	47	Fixation	AvoidedLoss	True
452.77	0.29	Lose2	0.6667000000000001	0.004	Yes	2.676	-0.004	2.0	GoodResponse	0	0.159	451.929	4	47	Target	AvoidedLoss	True
452.929	0.3	Lose2	0.6667000000000001	0.004	Yes	2.676	-0.004	2.0	GoodResponse	0	0.159	n/a	4	47	ButtonPress	AvoidedLoss	True
453.071	0.41	Lose2	0.6667000000000001	n/a	Yes	2.676	n/a	n/a	GoodResponse	0	n/a	n/a	4	47	Blank	AvoidedLoss	True
453.472	1.45	Lose2	0.6667000000000001	n/a	Yes	2.676	n/a	5.0	GoodResponse	0	0.008	452.48	4	47	Feedback	AvoidedLoss	True
454.927	2.676	Lose2	0.6667000000000001	n/a	Yes	2.676	n/a	n/a	GoodResponse	0	0.0	n/a	4	47	ISIslide	AvoidedLoss	True
457.618	0.25	Lose2	0.6735	0.0	Yes	3.032	0.018	n/a	GoodResponse	0	n/a	n/a	4	48	Cue	AvoidedLoss	True
457.869	3.95	Lose2	0.6735	0.0	Yes	3.032	0.001	n/a	GoodResponse	0	n/a	n/a	4	48	Fixation	AvoidedLoss	True
461.814	0.28	Lose2	0.6735	0.004	Yes	3.032	-0.004	2.0	GoodResponse	0	0.2	461.014	4	48	Target	AvoidedLoss	True
462.014	0.3	Lose2	0.6735	0.004	Yes	3.032	-0.004	2.0	GoodResponse	0	0.2	n/a	4	48	ButtonPress	AvoidedLoss	True
462.098	0.42	Lose2	0.6735	n/a	Yes	3.032	n/a	n/a	GoodResponse	0	n/a	n/a	4	48	Blank	AvoidedLoss	True
462.516	1.45	Lose2	0.6735	n/a	Yes	3.032	n/a	5.0	GoodResponse	0	0.036	461.552	4	48	Feedback	AvoidedLoss	True
463.97	3.032	Lose2	0.6735	n/a	Yes	3.032	n/a	n/a	GoodResponse	0	0.0	n/a	4	48	ISIslide	AvoidedLoss	True
467.029	0.25	Control	0.68	0.001	Yes	2.871	0.029	n/a	GoodResponse	0	n/a	n/a	4	49	Cue	Neutral	True
467.28	4.0	Control	0.68	0.0	Yes	2.871	0.001	n/a	GoodResponse	0	n/a	n/a	4	49	Fixation	Neutral	True
471.275	0.27	Control	0.68	0.004	Yes	2.871	-0.004	2.0	GoodResponse	0	0.186	470.461	4	49	Target	Neutral	True
471.461	0.3	Control	0.68	0.004	Yes	2.871	-0.004	2.0	GoodResponse	0	0.186	n/a	4	49	ButtonPress	Neutral	True
471.56	0.43	Control	0.68	n/a	Yes	2.871	n/a	n/a	GoodResponse	0	n/a	n/a	4	49	Blank	Neutral	True
471.978	1.45	Control	0.68	n/a	Yes	2.871	n/a	5.0	GoodResponse	0	0.038	471.016	4	49	Feedback	Neutral	True
473.432	2.871	Control	0.68	n/a	Yes	2.871	n/a	n/a	GoodResponse	0	0.0	n/a	4	49	ISIslide	Neutral	True
476.324	0.25	Control	0.6862999999999999	0.0	Yes	2.776	0.024	n/a	GoodResponse	0	n/a	n/a	4	50	Cue	Neutral	False
476.575	4.0	Control	0.6862999999999999	0.0	Yes	2.776	0.001	2.0	GoodResponse	0	3.811	479.386	4	50	Fixation	Neutral	False
480.386	0.3	Control	0.6862999999999999	0.0	Yes	2.776	0.001	2.0	GoodResponse	0	3.811	n/a	4	50	ButtonPress	Neutral	False
480.57	0.26	Control	0.6862999999999999	0.004	Yes	2.776	-0.004	2.0	GoodResponse	0	0.198	479.768	4	50	Target	Neutral	False
480.768	0.3	Control	0.6862999999999999	0.004	Yes	2.776	-0.004	2.0	GoodResponse	0	0.198	n/a	4	50	ButtonPress	Neutral	False
480.837	0.44	Control	0.6862999999999999	n/a	Yes	2.776	n/a	n/a	GoodResponse	0	n/a	n/a	4	50	Blank	Neutral	False
481.272	1.45	Control	0.6862999999999999	n/a	Yes	2.776	n/a	5.0	GoodResponse	0	0.012	480.284	4	50	Feedback	Neutral	False
482.726	2.776	Control	0.6862999999999999	n/a	Yes	2.776	n/a	n/a	GoodResponse	0	0.0	n/a	4	50	ISIslide	Neutral	False
485.518	0.25	Control	0.6923	0.0	Yes	2.732	0.018	n/a	GoodResponse	0	n/a	n/a	4	51	Cue	Neutral	True
485.769	3.95	Control	0.6923	0.0	Yes	2.732	0.001	n/a	GoodResponse	0	n/a	n/a	4	51	Fixation	Neutral	True
489.714	0.25	Control	0.6923	0.004	Yes	2.732	-0.004	2.0	GoodResponse	0	0.175	488.889	4	51	Target	Neutral	True
489.889	0.3	Control	0.6923	0.004	Yes	2.732	-0.004	2.0	GoodResponse	0	0.175	n/a	4	51	ButtonPress	Neutral	True
489.965	0.45	Control	0.6923	n/a	Yes	2.732	n/a	n/a	GoodResponse	0	n/a	n/a	4	51	Blank	Neutral	True
490.416	1.45	Control	0.6923	n/a	Yes	2.732	n/a	5.0	GoodResponse	0	0.039	489.455	4	51	Feedback	Neutral	True
491.87	2.732	Control	0.6923	n/a	Yes	2.732	n/a	n/a	GoodResponse	0	0.0	n/a	4	51	ISIslide	Neutral	True
494.629	0.25	Control	0.6981	0.0	Yes	2.621	0.029	n/a	GoodResponse	0	n/a	n/a	4	52	Cue	Neutral	True
494.879	4.05	Control	0.6981	0.0	Yes	2.621	0.0	n/a	GoodResponse	0	n/a	n/a	4	52	Fixation	Neutral	True
498.925	0.24	Control	0.6981	0.004	Yes	2.621	-0.004	2.0	GoodResponse	0	0.177	498.102	4	52	Target	Neutral	True
499.102	0.3	Control	0.6981	0.004	Yes	2.621	-0.004	2.0	GoodResponse	0	0.177	n/a	4	52	ButtonPress	Neutral	True
499.175	0.46	Control	0.6981	n/a	Yes	2.621	n/a	n/a	GoodResponse	0	n/a	n/a	4	52	Blank	Neutral	True
499.627	1.45	Control	0.6981	n/a	Yes	2.621	n/a	5.0	GoodResponse	0	0.047	498.674	4	52	Feedback	Neutral	True
501.081	2.621	Control	0.6981	n/a	Yes	2.621	n/a	n/a	GoodResponse	0	0.0	n/a	4	52	ISIslide	Neutral	True
503.722	0.25	Win2	0.7037	0.0	Yes	2.928	0.022	n/a	GoodResponse	1	n/a	n/a	5	53	Cue	Win	True
503.973	4.05	Win2	0.7037	0.0	Yes	2.928	0.001	n/a	GoodResponse	1	n/a	n/a	5	53	Fixation	Win	True
508.019	0.23	Win2	0.7037	0.003	Yes	2.928	-0.003	2.0	GoodResponse	1	0.163	507.182	5	53	Target	Win	True
508.182	0.3	Win2	0.7037	0.003	Yes	2.928	-0.003	2.0	GoodResponse	1	0.163	n/a	5	53	ButtonPress	Win	True
508.253	0.47	Win2	0.7037	n/a	Yes	2.928	n/a	n/a	GoodResponse	1	n/a	n/a	5	53	Blank	Win	True
508.721	1.45	Win2	0.7037	n/a	Yes	2.928	n/a	5.0	GoodResponse	1	0.026	507.747	5	53	Feedback	Win	True
510.175	2.928	Win2	0.7037	n/a	Yes	2.928	n/a	n/a	GoodResponse	1	0.0	n/a	5	53	ISIslide	Win	True
513.117	0.25	Win2	0.7091	0.0	Yes	2.733	0.017	n/a	GoodResponse	1	n/a	n/a	6	54	Cue	Win	True
513.368	3.95	Win2	0.7091	0.0	Yes	2.733	0.001	n/a	GoodResponse	1	n/a	n/a	6	54	Fixation	Win	True
517.313	0.22	Win2	0.7091	0.004	Yes	2.733	-0.004	2.0	GoodResponse	1	0.171	516.484	6	54	Target	Win	True
517.484	0.3	Win2	0.7091	0.004	Yes	2.733	-0.004	2.0	GoodResponse	1	0.171	n/a	6	54	ButtonPress	Win	True
517.547	0.48	Win2	0.7091	n/a	Yes	2.733	n/a	n/a	GoodResponse	1	n/a	n/a	6	54	Blank	Win	True
518.015	1.45	Win2	0.7091	n/a	Yes	2.733	n/a	5.0	GoodResponse	1	0.049	517.064	6	54	Feedback	Win	True
519.469	2.733	Win2	0.7091	n/a	Yes	2.733	n/a	n/a	GoodResponse	1	0.0	n/a	6	54	ISIslide	Win	True
522.228	0.25	Control	0.7143	0.0	Yes	3.022	0.028	n/a	GoodResponse	0	n/a	n/a	6	55	Cue	Neutral	True
522.478	3.95	Control	0.7143	0.0	Yes	3.022	0.0	n/a	GoodResponse	0	n/a	n/a	6	55	Fixation	Neutral	True
526.423	0.21	Control	0.7143	0.005	Yes	3.022	-0.005	2.0	GoodResponse	0	0.163	525.586	6	55	Target	Neutral	True
526.586	0.3	Control	0.7143	0.005	Yes	3.022	-0.005	2.0	GoodResponse	0	0.163	n/a	6	55	ButtonPress	Neutral	True
526.641	0.49	Control	0.7143	n/a	Yes	3.022	n/a	n/a	GoodResponse	0	n/a	n/a	6	55	Blank	Neutral	True
527.126	1.45	Control	0.7143	n/a	Yes	3.022	n/a	5.0	GoodResponse	0	0.011	526.137	6	55	Feedback	Neutral	True
528.58	3.022	Control	0.7143	n/a	Yes	3.022	n/a	n/a	GoodResponse	0	0.0	n/a	6	55	ISIslide	Neutral	True
531.622	0.25	Control	0.7193	0.0	Yes	2.828	0.022	n/a	GoodResponse	0	n/a	n/a	6	56	Cue	Neutral	True
531.873	3.95	Control	0.7193	0.0	Yes	2.828	0.001	n/a	GoodResponse	0	n/a	n/a	6	56	Fixation	Neutral	True
535.818	0.2	Control	0.7193	0.004	Yes	2.828	-0.004	2.0	GoodResponse	0	0.182	535.0	6	56	Target	Neutral	True
536	0.3	Control	0.7193	0.004	Yes	2.828	-0.004	2.0	GoodResponse	0	0.182	n/a	6	56	ButtonPress	Neutral	True
536.019	0.5	Control	0.7193	n/a	Yes	2.828	n/a	n/a	GoodResponse	0	n/a	n/a	6	56	Blank	Neutral	True
536.52	1.45	Control	0.7193	n/a	Yes	2.828	n/a	5.0	GoodResponse	0	0.031	535.551	6	56	Feedback	Neutral	True
537.975	2.828	Control	0.7193	n/a	Yes	2.828	n/a	n/a	GoodResponse	0	0.0	n/a	6	56	ISIslide	Neutral	True
540.816	0.25	Control	0.7241	0.001	Yes	3.484	0.016	n/a	GoodResponse	0	n/a	n/a	6	57	Cue	Neutral	True
541.067	4.0	Control	0.7241	0.0	Yes	3.484	0.001	n/a	GoodResponse	0	n/a	n/a	6	57	Fixation	Neutral	True
545.062	0.19	Control	0.7241	0.004	Yes	3.484	-0.004	2.0	GoodResponse	0	0.166	544.228	6	57	Target	Neutral	True
545.228	0.3	Control	0.7241	0.004	Yes	3.484	-0.004	2.0	GoodResponse	0	0.166	n/a	6	57	ButtonPress	Neutral	True
545.263	0.51	Control	0.7241	n/a	Yes	3.484	n/a	n/a	GoodResponse	0	n/a	n/a	6	57	Blank	Neutral	True
545.765	1.45	Control	0.7241	n/a	Yes	3.484	n/a	5.0	GoodResponse	0	0.006	544.771	6	57	Feedback	Neutral	True
547.219	3.484	Control	0.7241	n/a	Yes	3.484	n/a	n/a	GoodResponse	0	0.0	n/a	6	57	ISIslide	Neutral	True
550.729	0.25	Win2	0.7119	0.001	No	2.721	0.029	n/a	LatePress	0	n/a	n/a	6	58	Cue	MissedWin	True
550.98	4.05	Win2	0.7119	0.0	No	2.721	0.001	n/a	LatePress	0	n/a	n/a	6	58	Fixation	MissedWin	True
555.026	0.18	Win2	0.7119	0.003	No	2.721	-0.003	2.0	LatePress	0	0.182	554.208	6	58	Target	MissedWin	True
555.208	0.3	Win2	0.7119	0.003	No	2.721	-0.003	2.0	LatePress	0	0.182	n/a	6	58	ButtonPress	MissedWin	True
555.209	0.52	Win2	0.7119	n/a	No	2.721	n/a	n/a	LatePress	0	n/a	n/a	6	58	Blank	MissedWin	True
555.728	1.45	Win2	0.7119	n/a	No	2.721	n/a	5.0	LatePress	0	0.043	554.771	6	58	Feedback	MissedWin	True
557.182	2.721	Win2	0.7119	n/a	No	2.721	n/a	n/a	LatePress	0	0.0	n/a	6	58	ISIslide	MissedWin	True
559.924	0.25	Lose2	0.7167	0.0	Yes	2.676	0.024	n/a	GoodResponse	0	n/a	n/a	6	59	Cue	AvoidedLoss	True
560.174	4.0	Lose2	0.7167	0.0	Yes	2.676	0.0	n/a	GoodResponse	0	n/a	n/a	6	59	Fixation	AvoidedLoss	True
564.17	0.17	Lose2	0.7167	0.004	Yes	2.676	-0.004	2.0	GoodResponse	0	0.164	563.334	6	59	Target	AvoidedLoss	True
564.334	0.3	Lose2	0.7167	0.004	Yes	2.676	-0.004	2.0	GoodResponse	0	0.164	n/a	6	59	ButtonPress	AvoidedLoss	True
564.353	0.53	Lose2	0.7167	n/a	Yes	2.676	n/a	n/a	GoodResponse	0	n/a	n/a	6	59	Blank	AvoidedLoss	True
564.872	1.45	Lose2	0.7167	n/a	Yes	2.676	n/a	5.0	GoodResponse	0	0.021	563.893	6	59	Feedback	AvoidedLoss	True
566.326	2.676	Lose2	0.7167	n/a	Yes	2.676	n/a	n/a	GoodResponse	0	0.0	n/a	6	59	ISIslide	AvoidedLoss	True
569.017	0.25	Control	0.7049	0.0	No	2.683	0.017	n/a	NoResponse	0	n/a	n/a	6	60	Cue	Neutral	True
569.268	4.0	Control	0.7049	0.0	No	2.683	0.001	n/a	NoResponse	0	n/a	n/a	6	60	Fixation	Neutral	True
573.263	0.16	Control	0.7049	0.004	No	2.683	-0.004	2.0	NoResponse	0	0.186	572.449	6	60	Target	Neutral	True
573.431	0.54	Control	0.7049	n/a	No	2.683	n/a	n/a	NoResponse	0	n/a	n/a	6	60	Blank	Neutral	True
573.449	0.3	Control	0.7049	0.004	No	2.683	-0.004	2.0	NoResponse	0	0.186	n/a	6	60	ButtonPress	Neutral	True
573.965	1.45	Control	0.7049	n/a	No	2.683	n/a	5.0	NoResponse	0	0.049	573.014	6	60	Feedback	Neutral	True
575.42	2.683	Control	0.7049	n/a	No	2.683	n/a	n/a	NoResponse	0	0.0	n/a	6	60	ISIslide	Neutral	True
578.128	0.25	Lose2	0.6934999999999999	0.0	No	2.972	0.028	n/a	NoResponse	-1	n/a	n/a	5	61	Cue	Loss	True
578.379	4.0	Lose2	0.6934999999999999	0.0	No	2.972	0.001	n/a	NoResponse	-1	n/a	n/a	5	61	Fixation	Loss	True
582.374	0.15	Lose2	0.6934999999999999	0.004	No	2.972	-0.004	2.0	NoResponse	-1	0.169	581.543	5	61	Target	Loss	True
582.524	0.55	Lose2	0.6934999999999999	n/a	No	2.972	n/a	n/a	NoResponse	-1	n/a	n/a	5	61	Blank	Loss	True
582.543	0.3	Lose2	0.6934999999999999	0.004	No	2.972	-0.004	2.0	NoResponse	-1	0.169	n/a	5	61	ButtonPress	Loss	True
583.076	1.45	Lose2	0.6934999999999999	n/a	No	2.972	n/a	5.0	NoResponse	-1	0.011	582.087	5	61	Feedback	Loss	True
584.53	2.972	Lose2	0.6934999999999999	n/a	No	2.972	n/a	n/a	NoResponse	-1	0.0	n/a	5	61	ISIslide	Loss	True
587.523	0.25	Lose2	0.6825	0.0	No	2.877	0.023	n/a	NoResponse	-1	n/a	n/a	4	62	Cue	Loss	True
587.773	3.9	Lose2	0.6825	0.0	No	2.877	0.0	n/a	NoResponse	-1	n/a	n/a	4	62	Fixation	Loss	True
591.685	0.15	Lose2	0.6825	0.0	No	2.877	0.012	2.0	NoResponse	-1	0.176	590.861	4	62	Target	Loss	True
591.819	0.55	Lose2	0.6825	n/a	No	2.877	n/a	n/a	NoResponse	-1	n/a	n/a	4	62	Blank	Loss	True
591.861	0.3	Lose2	0.6825	0.0	No	2.877	0.012	2.0	NoResponse	-1	0.176	n/a	4	62	ButtonPress	Loss	True
592.37	1.45	Lose2	0.6825	n/a	No	2.877	n/a	5.0	NoResponse	-1	0.034	591.404	4	62	Feedback	Loss	True
593.825	2.877	Lose2	0.6825	n/a	No	2.877	n/a	n/a	NoResponse	-1	0.0	n/a	4	62	ISIslide	Loss	True
596.717	0.25	Lose2	0.6718999999999999	0.0	No	2.633	0.017	n/a	NoResponse	-1	n/a	n/a	3	63	Cue	Loss	True
596.968	4.05	Lose2	0.6718999999999999	0.0	No	2.633	0.001	n/a	NoResponse	-1	n/a	n/a	3	63	Fixation	Loss	True
601.013	0.15	Lose2	0.6718999999999999	0.004	No	2.633	-0.004	2.0	NoResponse	-1	0.159	600.172	3	63	Target	Loss	True
601.163	0.55	Lose2	0.6718999999999999	n/a	No	2.633	n/a	n/a	NoResponse	-1	n/a	n/a	3	63	Blank	Loss	True
601.172	0.3	Lose2	0.6718999999999999	0.004	No	2.633	-0.004	2.0	NoResponse	-1	0.159	n/a	3	63	ButtonPress	Loss	True
601.715	1.45	Lose2	0.6718999999999999	n/a	No	2.633	n/a	5.0	NoResponse	-1	0.006	600.721	3	63	Feedback	Loss	True
603.169	2.633	Lose2	0.6718999999999999	n/a	No	2.633	n/a	n/a	NoResponse	-1	0.0	n/a	3	63	ISIslide	Loss	True
605.827	0.25	Win2	0.6615000000000001	0.0	No	3.123	0.027	n/a	NoResponse	0	n/a	n/a	3	64	Cue	MissedWin	False
606.078	4.15	Win2	0.6615000000000001	0.0	No	3.123	0.001	2.0	NoResponse	0	3.93	609.008	3	64	Fixation	MissedWin	False
610.008	0.3	Win2	0.6615000000000001	0.0	No	3.123	0.001	2.0	NoResponse	0	3.93	n/a	3	64	ButtonPress	MissedWin	False
610.224	0.15	Win2	0.6615000000000001	0.003	No	3.123	-0.003	2.0	NoResponse	0	0.154	609.378	3	64	Target	MissedWin	False
610.374	0.55	Win2	0.6615000000000001	n/a	No	3.123	n/a	n/a	NoResponse	0	n/a	n/a	3	64	Blank	MissedWin	False
610.378	0.3	Win2	0.6615000000000001	0.003	No	3.123	-0.003	2.0	NoResponse	0	0.154	n/a	3	64	ButtonPress	MissedWin	False
610.926	1.45	Win2	0.6615000000000001	n/a	No	3.123	n/a	5.0	NoResponse	0	0.014	609.94	3	64	Feedback	MissedWin	False
612.38	3.123	Win2	0.6615000000000001	n/a	No	3.123	n/a	n/a	NoResponse	0	0.0	n/a	3	64	ISIslide	MissedWin	False
615.523	0.25	Control	0.6667000000000001	0.0	Yes	2.777	0.023	n/a	GoodResponse	0	n/a	n/a	3	65	Cue	Neutral	True
615.774	4.0	Control	0.6667000000000001	0.0	Yes	2.777	0.001	n/a	GoodResponse	0	n/a	n/a	3	65	Fixation	Neutral	True
619.769	0.15	Control	0.6667000000000001	0.004	Yes	2.777	-0.004	2.0	GoodResponse	0	0.148	618.917	3	65	Target	Neutral	True
619.917	0.3	Control	0.6667000000000001	0.004	Yes	2.777	-0.004	2.0	GoodResponse	0	0.148	n/a	3	65	ButtonPress	Neutral	True
619.919	0.55	Control	0.6667000000000001	n/a	Yes	2.777	n/a	n/a	GoodResponse	0	n/a	n/a	3	65	Blank	Neutral	True
620.471	1.45	Control	0.6667000000000001	n/a	Yes	2.777	n/a	5.0	GoodResponse	0	0.03	619.501	3	65	Feedback	Neutral	True
621.925	2.777	Control	0.6667000000000001	n/a	Yes	2.777	n/a	n/a	GoodResponse	0	0.0	n/a	3	65	ISIslide	Neutral	True
624.717	0.25	Win2	0.6567000000000001	0.0	No	2.783	0.017	n/a	NoResponse	0	n/a	n/a	3	66	Cue	MissedWin	True
624.968	3.9	Win2	0.6567000000000001	0.0	No	2.783	0.001	n/a	NoResponse	0	n/a	n/a	3	66	Fixation	MissedWin	True
628.863	0.15	Win2	0.6567000000000001	0.004	No	2.783	-0.004	2.0	NoResponse	0	0.166	628.029	3	66	Target	MissedWin	True
629.013	0.55	Win2	0.6567000000000001	n/a	No	2.783	n/a	n/a	NoResponse	0	n/a	n/a	3	66	Blank	MissedWin	True
629.029	0.3	Win2	0.6567000000000001	0.004	No	2.783	-0.004	2.0	NoResponse	0	0.166	n/a	3	66	ButtonPress	MissedWin	True
629.565	1.45	Win2	0.6567000000000001	n/a	No	2.783	n/a	5.0	NoResponse	0	0.009	628.574	3	66	Feedback	MissedWin	True
631.019	2.783	Win2	0.6567000000000001	n/a	No	2.783	n/a	n/a	NoResponse	0	0.0	n/a	3	66	ISIslide	MissedWin	True
633.828	0.25	Control	0.6470999999999999	0.0	No	2.722	0.028	n/a	NoResponse	0	n/a	n/a	3	67	Cue	Neutral	True
634.078	3.95	Control	0.6470999999999999	0.0	No	2.722	0.0	n/a	NoResponse	0	n/a	n/a	3	67	Fixation	Neutral	True
638.04	0.15	Control	0.6470999999999999	0.0	No	2.722	0.012	2.0	NoResponse	0	0.154	637.194	3	67	Target	Neutral	True
638.174	0.55	Control	0.6470999999999999	n/a	No	2.722	n/a	n/a	NoResponse	0	n/a	n/a	3	67	Blank	Neutral	True
638.194	0.3	Control	0.6470999999999999	0.0	No	2.722	0.012	2.0	NoResponse	0	0.154	n/a	3	67	ButtonPress	Neutral	True
638.726	1.45	Control	0.6470999999999999	n/a	No	2.722	n/a	5.0	NoResponse	0	0.019	637.745	3	67	Feedback	Neutral	True
640.18	2.722	Control	0.6470999999999999	n/a	No	2.722	n/a	n/a	NoResponse	0	0.0	n/a	3	67	ISIslide	Neutral	True
642.921	0.25	Win2	0.6522	0.001	Yes	3.079	0.021	n/a	GoodResponse	1	n/a	n/a	4	68	Cue	Win	False
643.172	4.0	Win2	0.6522	0.0	Yes	3.079	0.001	2.0	GoodResponse	1	3.223	645.395	4	68	Fixation	Win	False
646.395	0.3	Win2	0.6522	0.0	Yes	3.079	0.001	2.0	GoodResponse	1	3.223	n/a	4	68	ButtonPress	Win	False
647.167	0.16	Win2	0.6522	0.004	Yes	3.079	-0.004	2.0	GoodResponse	1	0.154	646.321	4	68	Target	Win	False
647.321	0.3	Win2	0.6522	0.004	Yes	3.079	-0.004	2.0	GoodResponse	1	0.154	n/a	4	68	ButtonPress	Win	False
647.335	0.54	Win2	0.6522	n/a	Yes	3.079	n/a	n/a	GoodResponse	1	n/a	n/a	4	68	Blank	Win	False
647.87	1.45	Win2	0.6522	n/a	Yes	3.079	n/a	5.0	GoodResponse	1	0.045	646.915	4	68	Feedback	Win	False
649.324	3.079	Win2	0.6522	n/a	Yes	3.079	n/a	n/a	GoodResponse	1	0.0	n/a	4	68	ISIslide	Win	False
652.416	0.25	Win2	0.6570999999999999	0.001	Yes	3.234	0.016	n/a	GoodResponse	1	n/a	n/a	5	69	Cue	Win	True
652.667	3.95	Win2	0.6570999999999999	0.0	Yes	3.234	0.001	n/a	GoodResponse	1	n/a	n/a	5	69	Fixation	Win	True
656.612	0.17	Win2	0.6570999999999999	0.004	Yes	3.234	-0.004	2.0	GoodResponse	1	0.107	655.719	5	69	Target	Win	True
656.719	0.3	Win2	0.6570999999999999	0.004	Yes	3.234	-0.004	2.0	GoodResponse	1	0.107	n/a	5	69	ButtonPress	Win	True
656.796	0.53	Win2	0.6570999999999999	n/a	Yes	3.234	n/a	n/a	GoodResponse	1	n/a	n/a	5	69	Blank	Win	True
657.314	1.45	Win2	0.6570999999999999	n/a	Yes	3.234	n/a	5.0	GoodResponse	1	0.016	656.33	5	69	Feedback	Win	True
658.769	3.234	Win2	0.6570999999999999	n/a	Yes	3.234	n/a	n/a	GoodResponse	1	0.0	n/a	5	69	ISIslide	Win	True
662.028	0.25	Lose2	0.6479	0.001	No	3.022	0.028	n/a	LatePress	-1	n/a	n/a	4	70	Cue	Loss	True
662.279	4.05	Lose2	0.6479	0.0	No	3.022	0.001	n/a	LatePress	-1	n/a	n/a	4	70	Fixation	Loss	True
666.325	0.17	Lose2	0.6479	0.003	No	3.022	-0.003	2.0	LatePress	-1	0.183	665.508	4	70	Target	Loss	True
666.508	0.3	Lose2	0.6479	0.003	No	3.022	-0.003	2.0	LatePress	-1	0.183	n/a	4	70	ButtonPress	Loss	True
666.509	0.53	Lose2	0.6479	n/a	No	3.022	n/a	n/a	LatePress	-1	n/a	n/a	4	70	Blank	Loss	True
667.027	1.45	Lose2	0.6479	n/a	No	3.022	n/a	5.0	LatePress	-1	0.01	666.037	4	70	Feedback	Loss	True
668.481	3.022	Lose2	0.6479	n/a	No	3.022	n/a	n/a	LatePress	-1	0.0	n/a	4	70	ISIslide	Loss	True
671.524	0.25	Win2	0.6528	0.0	Yes	2.726	0.024	n/a	GoodResponse	1	n/a	n/a	5	71	Cue	Win	True
671.774	4.05	Win2	0.6528	0.0	Yes	2.726	0.0	n/a	GoodResponse	1	n/a	n/a	5	71	Fixation	Win	True
675.82	0.18	Win2	0.6528	0.004	Yes	2.726	-0.004	2.0	GoodResponse	1	0.146	674.966	5	71	Target	Win	True
675.966	0.3	Win2	0.6528	0.004	Yes	2.726	-0.004	2.0	GoodResponse	1	0.146	n/a	5	71	ButtonPress	Win	True
676.004	0.52	Win2	0.6528	n/a	Yes	2.726	n/a	n/a	GoodResponse	1	n/a	n/a	5	71	Blank	Win	True
676.522	1.45	Win2	0.6528	n/a	Yes	2.726	n/a	5.0	GoodResponse	1	0.027	675.549	5	71	Feedback	Win	True
677.976	2.726	Win2	0.6528	n/a	Yes	2.726	n/a	n/a	GoodResponse	1	0.0	n/a	5	71	ISIslide	Win	True
680.718	0.25	Win2	0.6575	0.0	Yes	2.782	0.018	n/a	GoodResponse	1	n/a	n/a	6	72	Cue	Win	True
680.968	4.1	Win2	0.6575	0.0	Yes	2.782	0.0	n/a	GoodResponse	1	n/a	n/a	6	72	Fixation	Win	True
685.064	0.19	Win2	0.6575	0.004	Yes	2.782	-0.004	2.0	GoodResponse	1	0.172	684.236	6	72	Target	Win	True
685.236	0.3	Win2	0.6575	0.004	Yes	2.782	-0.004	2.0	GoodResponse	1	0.172	n/a	6	72	ButtonPress	Win	True
685.265	0.51	Win2	0.6575	n/a	Yes	2.782	n/a	n/a	GoodResponse	1	n/a	n/a	6	72	Blank	Win	True
685.766	1.45	Win2	0.6575	n/a	Yes	2.782	n/a	5.0	GoodResponse	1	0.005	684.771	6	72	Feedback	Win	True
687.22	2.782	Win2	0.6575	n/a	Yes	2.782	n/a	n/a	GoodResponse	1	0.0	n/a	6	72	ISIslide	Win	True
690.029	0.25	Win2	0.6622	0.0	Yes	2.671	0.029	n/a	GoodResponse	1	n/a	n/a	7	73	Cue	Win	True
690.28	4.0	Win2	0.6622	0.0	Yes	2.671	0.001	n/a	GoodResponse	1	n/a	n/a	7	73	Fixation	Win	True
694.275	0.19	Win2	0.6622	0.004	Yes	2.671	-0.004	2.0	GoodResponse	1	0.159	693.434	7	73	Target	Win	True
694.434	0.3	Win2	0.6622	0.004	Yes	2.671	-0.004	2.0	GoodResponse	1	0.159	n/a	7	73	ButtonPress	Win	True
694.475	0.51	Win2	0.6622	n/a	Yes	2.671	n/a	n/a	GoodResponse	1	n/a	n/a	7	73	Blank	Win	True
694.977	1.45	Win2	0.6622	n/a	Yes	2.671	n/a	5.0	GoodResponse	1	0.011	693.988	7	73	Feedback	Win	True
696.431	2.671	Win2	0.6622	n/a	Yes	2.671	n/a	n/a	GoodResponse	1	0.0	n/a	7	73	ISIslide	Win	True
699.123	0.25	Lose2	0.6533	0.0	No	2.627	0.023	n/a	NoResponse	-1	n/a	n/a	6	74	Cue	Loss	True
699.373	4.05	Lose2	0.6533	0.0	No	2.627	0.0	2.0	NoResponse	-1	3.525	701.898	6	74	Fixation	Loss	True
702.898	0.3	Lose2	0.6533	0.0	No	2.627	0.0	2.0	NoResponse	-1	3.525	n/a	6	74	ButtonPress	Loss	True
703.419	0.19	Lose2	0.6533	0.004	No	2.627	-0.004	n/a	NoResponse	-1	n/a	n/a	6	74	Target	Loss	True
703.619	0.51	Lose2	0.6533	n/a	No	2.627	n/a	n/a	NoResponse	-1	n/a	n/a	6	74	Blank	Loss	True
704.121	1.45	Lose2	0.6533	n/a	No	2.627	n/a	5.0	NoResponse	-1	0.038	703.159	6	74	Feedback	Loss	True
705.575	2.627	Lose2	0.6533	n/a	No	2.627	n/a	n/a	NoResponse	-1	0.0	n/a	6	74	ISIslide	Loss	True
708.216	0.25	Lose2	0.6579	0.001	Yes	2.934	0.016	n/a	GoodResponse	0	n/a	n/a	6	75	Cue	AvoidedLoss	True
708.467	3.95	Lose2	0.6579	0.0	Yes	2.934	0.001	n/a	GoodResponse	0	n/a	n/a	6	75	Fixation	AvoidedLoss	True
712.412	0.2	Lose2	0.6579	0.004	Yes	2.934	-0.004	2.0	GoodResponse	0	0.17	711.582	6	75	Target	AvoidedLoss	True
712.582	0.3	Lose2	0.6579	0.004	Yes	2.934	-0.004	2.0	GoodResponse	0	0.17	n/a	6	75	ButtonPress	AvoidedLoss	True
712.613	0.5	Lose2	0.6579	n/a	Yes	2.934	n/a	n/a	GoodResponse	0	n/a	n/a	6	75	Blank	AvoidedLoss	True
713.114	1.45	Lose2	0.6579	n/a	Yes	2.934	n/a	5.0	GoodResponse	0	0.02	712.134	6	75	Feedback	AvoidedLoss	True
714.569	2.934	Lose2	0.6579	n/a	Yes	2.934	n/a	n/a	GoodResponse	0	0.0	n/a	6	75	ISIslide	AvoidedLoss	True
717.528	0.25	Control	0.6623	0.0	Yes	3.222	0.028	n/a	GoodResponse	0	n/a	n/a	6	76	Cue	Neutral	True
717.778	4.05	Control	0.6623	0.0	Yes	3.222	0.0	n/a	GoodResponse	0	n/a	n/a	6	76	Fixation	Neutral	True
721.824	0.2	Control	0.6623	0.004	Yes	3.222	-0.004	2.0	GoodResponse	0	0.175	720.999	6	76	Target	Neutral	True
721.999	0.3	Control	0.6623	0.004	Yes	3.222	-0.004	2.0	GoodResponse	0	0.175	n/a	6	76	ButtonPress	Neutral	True
722.024	0.5	Control	0.6623	n/a	Yes	3.222	n/a	n/a	GoodResponse	0	n/a	n/a	6	76	Blank	Neutral	True
722.526	1.45	Control	0.6623	n/a	Yes	3.222	n/a	5.0	GoodResponse	0	0.022	721.548	6	76	Feedback	Neutral	True
723.98	3.222	Control	0.6623	n/a	Yes	3.222	n/a	n/a	GoodResponse	0	0.0	n/a	6	76	ISIslide	Neutral	True
727.223	0.25	Lose2	0.6667000000000001	0.0	Yes	2.577	0.023	n/a	GoodResponse	0	n/a	n/a	6	77	Cue	AvoidedLoss	False
727.474	3.95	Lose2	0.6667000000000001	0.0	Yes	2.577	0.001	2.0	GoodResponse	0	3.61	730.084	6	77	Fixation	AvoidedLoss	False
731.084	0.3	Lose2	0.6667000000000001	0.0	Yes	2.577	0.001	2.0	GoodResponse	0	3.61	n/a	6	77	ButtonPress	AvoidedLoss	False
731.419	0.2	Lose2	0.6667000000000001	0.004	Yes	2.577	-0.004	2.0	GoodResponse	0	0.16	730.579	6	77	Target	AvoidedLoss	False
731.579	0.3	Lose2	0.6667000000000001	0.004	Yes	2.577	-0.004	2.0	GoodResponse	0	0.16	n/a	6	77	ButtonPress	AvoidedLoss	False
731.62	0.5	Lose2	0.6667000000000001	n/a	Yes	2.577	n/a	n/a	GoodResponse	0	n/a	n/a	6	77	Blank	AvoidedLoss	False
732.121	1.45	Lose2	0.6667000000000001	n/a	Yes	2.577	n/a	5.0	GoodResponse	0	0.037	731.158	6	77	Feedback	AvoidedLoss	False
733.575	2.577	Lose2	0.6667000000000001	n/a	Yes	2.577	n/a	n/a	GoodResponse	0	0.0	n/a	6	77	ISIslide	AvoidedLoss	False
