onset	duration	cue_type	current_mean_accuracy	duration_error	is_hit	isi_adjusted	onset_delay	response	response_type	reward	rt	rt_time	total_reward	trial_number	trial_phase	trial_type	one_press
11.105	0.25	Control	1.0	0.0	Yes	2.945	0.005	n/a	GoodResponse	0	n/a	n/a	0	0	Cue	Neutral	True
11.355	3.85	Control	1.0	0.0	Yes	2.945	0.0	n/a	GoodResponse	0	n/a	n/a	0	0	Fixation	Neutral	True
15.217	0.4	Control	1.0	0.0	Yes	2.945	0.012	2.0	GoodResponse	0	0.275	14.492	0	0	Target	Neutral	True
15.492	0.3	Control	1.0	0.0	Yes	2.945	0.012	2.0	GoodResponse	0	0.275	n/a	0	0	ButtonPress	Neutral	True
15.601	0.3	Control	1.0	n/a	Yes	2.945	n/a	n/a	GoodResponse	0	n/a	n/a	0	0	Blank	Neutral	True
15.902	1.45	Control	1.0	n/a	Yes	2.945	n/a	5.0	GoodResponse	0	0.028	14.93	0	0	Feedback	Neutral	True
17.357	2.945	Control	1.0	n/a	Yes	2.945	n/a	n/a	GoodResponse	0	0.0	n/a	0	0	ISIslide	Neutral	True
20.332	0.25	Lose2	1.0	0.0	Yes	2.768	0.032	n/a	GoodResponse	0	n/a	n/a	0	1	Cue	AvoidedLoss	True
20.583	4.0	Lose2	1.0	0.0	Yes	2.768	0.001	n/a	GoodResponse	0	n/a	n/a	0	1	Fixation	AvoidedLoss	True
24.578	0.39	Lose2	1.0	0.004	Yes	2.768	-0.004	2.0	GoodResponse	0	0.253	23.831	0	1	Target	AvoidedLoss	True
24.831	0.3	Lose2	1.0	0.004	Yes	2.768	-0.004	2.0	GoodResponse	0	0.253	n/a	0	1	ButtonPress	AvoidedLoss	True
24.98	0.31	Lose2	1.0	n/a	Yes	2.768	n/a	n/a	GoodResponse	0	n/a	n/a	0	1	Blank	AvoidedLoss	True
25.28	1.45	Lose2	1.0	n/a	Yes	2.768	n/a	5.0	GoodResponse	0	0.016	24.296	0	1	Feedback	AvoidedLoss	True
26.735	2.768	Lose2	1.0	n/a	Yes	2.768	n/a	n/a	GoodResponse	0	0.0	n/a	0	1	ISIslide	AvoidedLoss	True
29.527	0.25	Control	1.0	0.0	Yes	2.573	0.027	n/a	GoodResponse	0	n/a	n/a	0	2	Cue	Neutral	True
29.777	4.1	Control	1.0	0.0	Yes	2.573	0.0	n/a	GoodResponse	0	n/a	n/a	0	2	Fixation	Neutral	True
33.873	0.38	Control	1.0	0.004	Yes	2.573	-0.004	2.0	GoodResponse	0	0.21	33.083	0	2	Target	Neutral	True
34.083	0.3	Control	1.0	0.004	Yes	2.573	-0.004	2.0	GoodResponse	0	0.21	n/a	0	2	ButtonPress	Neutral	True
34.257	0.32	Control	1.0	n/a	Yes	2.573	n/a	n/a	GoodResponse	0	n/a	n/a	0	2	Blank	Neutral	True
34.575	1.45	Control	1.0	n/a	Yes	2.573	n/a	5.0	GoodResponse	0	0.038	33.613	0	2	Feedback	Neutral	True
36.029	2.573	Control	1.0	n/a	Yes	2.573	n/a	n/a	GoodResponse	0	0.0	n/a	0	2	ISIslide	Neutral	True
38.621	0.25	Win2	1.0	0.0	Yes	2.829	0.021	n/a	GoodResponse	1	n/a	n/a	1	3	Cue	Win	True
38.871	3.95	Win2	1.0	0.0	Yes	2.829	0.0	n/a	GoodResponse	1	n/a	n/a	1	3	Fixation	Win	True
42.833	0.37	Win2	1.0	0.0	Yes	2.829	0.012	2.0	GoodResponse	1	0.25	42.083	1	3	Target	Win	True
43.083	0.3	Win2	1.0	0.0	Yes	2.829	0.012	2.0	GoodResponse	1	0.25	n/a	1	3	ButtonPress	Win	True
43.201	0.33	Win2	1.0	n/a	Yes	2.829	n/a	n/a	GoodResponse	1	n/a	n/a	1	3	Blank	Win	True
43.519	1.45	Win2	1.0	n/a	Yes	2.829	n/a	5.0	GoodResponse	1	0.021	42.54	1	3	Feedback	Win	True
44.973	2.829	Win2	1.0	n/a	Yes	2.829	n/a	n/a	GoodResponse	1	0.0	n/a	1	3	ISIslide	Win	True
47.831	0.25	Win2	1.0	0.001	Yes	3.269	0.031	n/a	GoodResponse	1	n/a	n/a	2	4	Cue	Win	True
48.082	4.0	Win2	1.0	0.0	Yes	3.269	0.001	n/a	GoodResponse	1	n/a	n/a	2	4	Fixation	Win	True
52.078	0.36	Win2	1.0	0.003	Yes	3.269	-0.003	2.0	GoodResponse	1	0.222	51.3	2	4	Target	Win	True
52.3	0.3	Win2	1.0	0.003	Yes	3.269	-0.003	2.0	GoodResponse	1	0.222	n/a	2	4	ButtonPress	Win	True
52.445	0.34	Win2	1.0	n/a	Yes	3.269	n/a	n/a	GoodResponse	1	n/a	n/a	2	4	Blank	Win	True
52.78	1.45	Win2	1.0	n/a	Yes	3.269	n/a	5.0	GoodResponse	1	0.028	51.808	2	4	Feedback	Win	True
54.234	3.269	Win2	1.0	n/a	Yes	3.269	n/a	n/a	GoodResponse	1	0.0	n/a	2	4	ISIslide	Win	True
57.527	0.25	Win2	1.0	0.0	Yes	2.773	0.027	n/a	GoodResponse	1	n/a	n/a	3	5	Cue	Win	True
57.778	4.0	Win2	1.0	0.0	Yes	2.773	0.001	n/a	GoodResponse	1	n/a	n/a	3	5	Fixation	Win	True
61.773	0.35	Win2	1.0	0.004	Yes	2.773	-0.004	2.0	GoodResponse	1	0.22	60.993	3	5	Target	Win	True
61.993	0.3	Win2	1.0	0.004	Yes	2.773	-0.004	2.0	GoodResponse	1	0.22	n/a	3	5	ButtonPress	Win	True
62.124	0.35	Win2	1.0	n/a	Yes	2.773	n/a	n/a	GoodResponse	1	n/a	n/a	3	5	Blank	Win	True
62.475	1.45	Win2	1.0	n/a	Yes	2.773	n/a	5.0	GoodResponse	1	0.04	61.515	3	5	Feedback	Win	True
63.93	2.773	Win2	1.0	n/a	Yes	2.773	n/a	n/a	GoodResponse	1	0.0	n/a	3	5	ISIslide	Win	True
66.721	0.25	Lose2	0.8571	0.001	No	2.729	0.021	n/a	PrematurePress	-1	n/a	n/a	2	6	Cue	Loss	True
66.972	3.95	Lose2	0.8571	0.0	No	2.729	0.001	n/a	PrematurePress	-1	n/a	n/a	2	6	Fixation	Loss	True
70.917	0.34	Lose2	0.8571	0.004	No	2.729	-0.004	2.0	PrematurePress	-1	0.086	70.003	2	6	Target	Loss	True
71.003	0.3	Lose2	0.8571	0.004	No	2.729	-0.004	2.0	PrematurePress	-1	0.086	n/a	2	6	ButtonPress	Loss	True
71.268	0.36	Lose2	0.8571	n/a	No	2.729	n/a	n/a	PrematurePress	-1	n/a	n/a	2	6	Blank	Loss	True
71.62	1.45	Lose2	0.8571	n/a	No	2.729	n/a	5.0	PrematurePress	-1	0.017	70.637	2	6	Feedback	Loss	True
73.074	2.729	Lose2	0.8571	n/a	No	2.729	n/a	n/a	PrematurePress	-1	0.0	n/a	2	6	ISIslide	Loss	True
75.832	0.25	Lose2	0.875	0.0	Yes	4.018	0.032	n/a	GoodResponse	0	n/a	n/a	2	7	Cue	AvoidedLoss	True
76.083	4.05	Lose2	0.875	0.0	Yes	4.018	0.001	n/a	GoodResponse	0	n/a	n/a	2	7	Fixation	AvoidedLoss	True
80.128	0.33	Lose2	0.875	0.004	Yes	4.018	-0.004	2.0	GoodResponse	0	0.237	79.365	2	7	Target	AvoidedLoss	True
80.365	0.3	Lose2	0.875	0.004	Yes	4.018	-0.004	2.0	GoodResponse	0	0.237	n/a	2	7	ButtonPress	AvoidedLoss	True
80.463	0.37	Lose2	0.875	n/a	Yes	4.018	n/a	n/a	GoodResponse	0	n/a	n/a	2	7	Blank	AvoidedLoss	True
80.83	1.45	Lose2	0.875	n/a	Yes	4.018	n/a	5.0	GoodResponse	0	0.027	79.857	2	7	Feedback	AvoidedLoss	True
82.285	4.018	Lose2	0.875	n/a	Yes	4.018	n/a	n/a	GoodResponse	0	0.0	n/a	2	7	ISIslide	AvoidedLoss	True
86.33	0.25	Lose2	0.8889	0.0	Yes	3.02	0.03	n/a	GoodResponse	0	n/a	n/a	2	8	Cue	AvoidedLoss	True
86.581	3.95	Lose2	0.8889	0.0	Yes	3.02	0.001	n/a	GoodResponse	0	n/a	n/a	2	8	Fixation	AvoidedLoss	True
90.526	0.32	Lose2	0.8889	0.004	Yes	3.02	-0.004	2.0	GoodResponse	0	0.231	89.757	2	8	Target	AvoidedLoss	True
90.757	0.3	Lose2	0.8889	0.004	Yes	3.02	-0.004	2.0	GoodResponse	0	0.231	n/a	2	8	ButtonPress	AvoidedLoss	True
90.861	0.38	Lose2	0.8889	n/a	Yes	3.02	n/a	n/a	GoodResponse	0	n/a	n/a	2	8	Blank	AvoidedLoss	True
91.228	1.45	Lose2	0.8889	n/a	Yes	3.02	n/a	5.0	GoodResponse	0	0.019	90.247	2	8	Feedback	AvoidedLoss	True
92.683	3.02	Lose2	0.8889	n/a	Yes	3.02	n/a	n/a	GoodResponse	0	0.0	n/a	2	8	ISIslide	AvoidedLoss	True
95.725	0.25	Lose2	0.9	0.0	Yes	3.125	0.025	n/a	GoodResponse	0	n/a	n/a	2	9	Cue	AvoidedLoss	True
95.976	3.95	Lose2	0.9	0.0	Yes	3.125	0.001	n/a	GoodResponse	0	n/a	n/a	2	9	Fixation	AvoidedLoss	True
99.921	0.31	Lose2	0.9	0.004	Yes	3.125	-0.004	2.0	GoodResponse	0	0.254	99.175	2	9	Target	AvoidedLoss	True
100.175	0.3	Lose2	0.9	0.004	Yes	3.125	-0.004	2.0	GoodResponse	0	0.254	n/a	2	9	ButtonPress	AvoidedLoss	True
100.239	0.39	Lose2	0.9	n/a	Yes	3.125	n/a	n/a	GoodResponse	0	n/a	n/a	2	9	Blank	AvoidedLoss	True
100.623	1.45	Lose2	0.9	n/a	Yes	3.125	n/a	5.0	GoodResponse	0	0.039	99.662	2	9	Feedback	AvoidedLoss	True
102.078	3.125	Lose2	0.9	n/a	Yes	3.125	n/a	n/a	GoodResponse	0	0.0	n/a	2	9	ISIslide	AvoidedLoss	True
105.22	0.25	Control	0.9091	0.0	Yes	3.28	0.02	n/a	GoodResponse	0	n/a	n/a	2	10	Cue	Neutral	True
105.471	4.0	Control	0.9091	0.0	Yes	3.28	0.001	n/a	GoodResponse	0	n/a	n/a	2	10	Fixation	Neutral	True
109.466	0.3	Control	0.9091	0.004	Yes	3.28	-0.004	2.0	GoodResponse	0	0.229	108.695	2	10	Target	Neutral	True
109.695	0.3	Control	0.9091	0.004	Yes	3.28	-0.004	2.0	GoodResponse	0	0.229	n/a	2	10	ButtonPress	Neutral	True
109.767	0.4	Control	0.9091	n/a	Yes	3.28	n/a	n/a	GoodResponse	0	n/a	n/a	2	10	Blank	Neutral	True
110.168	1.45	Control	0.9091	n/a	Yes	3.28	n/a	5.0	GoodResponse	0	0.006	109.174	2	10	Feedback	Neutral	True
111.623	3.28	Control	0.9091	n/a	Yes	3.28	n/a	n/a	GoodResponse	0	0.0	n/a	2	10	ISIslide	Neutral	True
114.916	0.25	Lose2	0.9167000000000001	0.0	Yes	2.734	0.016	n/a	GoodResponse	0	n/a	n/a	2	11	Cue	AvoidedLoss	True
115.167	4.05	Lose2	0.9167000000000001	0.0	Yes	2.734	0.001	n/a	GoodResponse	0	n/a	n/a	2	11	Fixation	AvoidedLoss	True
119.212	0.29	Lose2	0.9167000000000001	0.004	Yes	2.734	-0.004	2.0	GoodResponse	0	0.221	118.433	2	11	Target	AvoidedLoss	True
119.433	0.3	Lose2	0.9167000000000001	0.004	Yes	2.734	-0.004	2.0	GoodResponse	0	0.221	n/a	2	11	ButtonPress	AvoidedLoss	True
119.513	0.41	Lose2	0.9167000000000001	n/a	Yes	2.734	n/a	n/a	GoodResponse	0	n/a	n/a	2	11	Blank	AvoidedLoss	True
119.914	1.45	Lose2	0.9167000000000001	n/a	Yes	2.734	n/a	5.0	GoodResponse	0	0.016	118.93	2	11	Feedback	AvoidedLoss	True
121.369	2.734	Lose2	0.9167000000000001	n/a	Yes	2.734	n/a	n/a	GoodResponse	0	0.0	n/a	2	11	ISIslide	AvoidedLoss	True
124.127	0.25	Control	0.9231	0.0	Yes	2.973	0.027	n/a	GoodResponse	0	n/a	n/a	2	12	Cue	Neutral	True
124.378	3.9	Control	0.9231	0.0	Yes	2.973	0.001	n/a	GoodResponse	0	n/a	n/a	2	12	Fixation	Neutral	True
128.273	0.28	Control	0.9231	0.004	Yes	2.973	-0.004	2.0	GoodResponse	0	0.269	127.542	2	12	Target	Neutral	True
128.542	0.3	Control	0.9231	0.004	Yes	2.973	-0.004	2.0	GoodResponse	0	0.269	n/a	2	12	ButtonPress	Neutral	True
128.557	0.42	Control	0.9231	n/a	Yes	2.973	n/a	n/a	GoodResponse	0	n/a	n/a	2	12	Blank	Neutral	True
128.975	1.45	Control	0.9231	n/a	Yes	2.973	n/a	5.0	GoodResponse	0	0.028	128.003	2	12	Feedback	Neutral	True
130.429	2.973	Control	0.9231	n/a	Yes	2.973	n/a	n/a	GoodResponse	0	0.0	n/a	2	12	ISIslide	Neutral	True
133.422	0.25	Control	0.9286	0.0	Yes	2.778	0.022	n/a	GoodResponse	0	n/a	n/a	2	13	Cue	Neutral	True
133.672	4.0	Control	0.9286	0.0	Yes	2.778	0.0	n/a	GoodResponse	0	n/a	n/a	2	13	Fixation	Neutral	True
137.668	0.27	Control	0.9286	0.004	Yes	2.778	-0.004	2.0	GoodResponse	0	0.228	136.896	2	13	Target	Neutral	True
137.896	0.3	Control	0.9286	0.004	Yes	2.778	-0.004	2.0	GoodResponse	0	0.228	n/a	2	13	ButtonPress	Neutral	True
137.952	0.43	Control	0.9286	n/a	Yes	2.778	n/a	n/a	GoodResponse	0	n/a	n/a	2	13	Blank	Neutral	True
138.37	1.45	Control	0.9286	n/a	Yes	2.778	n/a	5.0	GoodResponse	0	0.047	137.417	2	13	Feedback	Neutral	True
139.824	2.778	Control	0.9286	n/a	Yes	2.778	n/a	n/a	GoodResponse	0	0.0	n/a	2	13	ISIslide	Neutral	True
142.616	0.25	Win2	0.8667	0.0	No	2.684	0.016	n/a	NoResponse	0	n/a	n/a	2	14	Cue	MissedWin	True
142.867	4.1	Win2	0.8667	0.0	No	2.684	0.001	2.0	NoResponse	0	4.008	145.875	2	14	Fixation	MissedWin	True
146.875	0.3	Win2	0.8667	0.0	No	2.684	0.001	2.0	NoResponse	0	4.008	n/a	2	14	ButtonPress	MissedWin	True
146.962	0.26	Win2	0.8667	0.004	No	2.684	-0.004	n/a	NoResponse	0	n/a	n/a	2	14	Target	MissedWin	True
147.23	0.44	Win2	0.8667	n/a	No	2.684	n/a	n/a	NoResponse	0	n/a	n/a	2	14	Blank	MissedWin	True
147.664	1.45	Win2	0.8667	n/a	No	2.684	n/a	5.0	NoResponse	0	0.022	146.686	2	14	Feedback	MissedWin	True
149.119	2.684	Win2	0.8667	n/a	No	2.684	n/a	n/a	NoResponse	0	0.0	n/a	2	14	ISIslide	MissedWin	True
151.827	0.25	Control	0.875	0.0	Yes	2.973	0.027	n/a	GoodResponse	0	n/a	n/a	2	15	Cue	Neutral	True
152.078	4.0	Control	0.875	0.0	Yes	2.973	0.001	n/a	GoodResponse	0	n/a	n/a	2	15	Fixation	Neutral	True
156.073	0.25	Control	0.875	0.004	Yes	2.973	-0.004	2.0	GoodResponse	0	0.248	155.321	2	15	Target	Neutral	True
156.321	0.3	Control	0.875	0.004	Yes	2.973	-0.004	2.0	GoodResponse	0	0.248	n/a	2	15	ButtonPress	Neutral	True
156.324	0.45	Control	0.875	n/a	Yes	2.973	n/a	n/a	GoodResponse	0	n/a	n/a	2	15	Blank	Neutral	True
156.775	1.45	Control	0.875	n/a	Yes	2.973	n/a	5.0	GoodResponse	0	0.033	155.808	2	15	Feedback	Neutral	True
158.229	2.973	Control	0.875	n/a	Yes	2.973	n/a	n/a	GoodResponse	0	0.0	n/a	2	15	ISIslide	Neutral	True
161.222	0.25	Win2	0.8234999999999999	0.0	No	2.878	0.022	n/a	NoResponse	0	n/a	n/a	2	16	Cue	MissedWin	True
161.472	4.0	Win2	0.8234999999999999	0.0	No	2.878	0.0	n/a	NoResponse	0	n/a	n/a	2	16	Fixation	MissedWin	True
165.468	0.24	Win2	0.8234999999999999	0.004	No	2.878	-0.004	2.0	NoResponse	0	0.268	164.736	2	16	Target	MissedWin	True
165.718	0.46	Win2	0.8234999999999999	n/a	No	2.878	n/a	n/a	NoResponse	0	n/a	n/a	2	16	Blank	MissedWin	True
165.736	0.3	Win2	0.8234999999999999	0.004	No	2.878	-0.004	2.0	NoResponse	0	0.268	n/a	2	16	ButtonPress	MissedWin	True
166.17	1.45	Win2	0.8234999999999999	n/a	No	2.878	n/a	5.0	NoResponse	0	0.006	165.176	2	16	Feedback	MissedWin	True
167.624	2.878	Win2	0.8234999999999999	n/a	No	2.878	n/a	n/a	NoResponse	0	0.0	n/a	2	16	ISIslide	MissedWin	True
170.516	0.25	Lose2	0.7778	0.0	No	2.734	0.016	n/a	NoResponse	-1	n/a	n/a	1	17	Cue	Loss	True
170.767	3.95	Lose2	0.7778	0.0	No	2.734	0.001	n/a	NoResponse	-1	n/a	n/a	1	17	Fixation	Loss	True
174.712	0.23	Lose2	0.7778	0.004	No	2.734	-0.004	2.0	NoResponse	-1	0.251	173.963	1	17	Target	Loss	True
174.946	0.47	Lose2	0.7778	n/a	No	2.734	n/a	n/a	NoResponse	-1	n/a	n/a	1	17	Blank	Loss	True
174.963	0.3	Lose2	0.7778	0.004	No	2.734	-0.004	2.0	NoResponse	-1	0.251	n/a	1	17	ButtonPress	Loss	True
175.414	1.45	Lose2	0.7778	n/a	No	2.734	n/a	5.0	NoResponse	-1	0.028	174.442	1	17	Feedback	Loss	True
176.869	2.734	Lose2	0.7778	n/a	No	2.734	n/a	n/a	NoResponse	-1	0.0	n/a	1	17	ISIslide	Loss	True
179.627	0.25	Lose2	0.7368000000000001	0.0	No	2.723	0.027	n/a	NoResponse	-1	n/a	n/a	0	18	Cue	Loss	True
179.878	4.05	Lose2	0.7368000000000001	0.0	No	2.723	0.001	n/a	NoResponse	-1	n/a	n/a	0	18	Fixation	Loss	True
183.923	0.22	Lose2	0.7368000000000001	0.004	No	2.723	-0.004	2.0	NoResponse	-1	0.286	183.209	0	18	Target	Loss	True
184.157	0.48	Lose2	0.7368000000000001	n/a	No	2.723	n/a	n/a	NoResponse	-1	n/a	n/a	0	18	Blank	Loss	True
184.209	0.3	Lose2	0.7368000000000001	0.004	No	2.723	-0.004	2.0	NoResponse	-1	0.286	n/a	0	18	ButtonPress	Loss	True
184.625	1.45	Lose2	0.7368000000000001	n/a	No	2.723	n/a	5.0	NoResponse	-1	0.037	183.662	0	18	Feedback	Loss	True
186.08	2.723	Lose2	0.7368000000000001	n/a	No	2.723	n/a	n/a	NoResponse	-1	0.0	n/a	0	18	ISIslide	Loss	True
188.821	0.25	Control	0.7	0.0	No	2.929	0.021	n/a	NoResponse	0	n/a	n/a	0	19	Cue	Neutral	True
189.072	3.95	Control	0.7	0.0	No	2.929	0.001	n/a	NoResponse	0	n/a	n/a	0	19	Fixation	Neutral	True
193.017	0.21	Control	0.7	0.004	No	2.929	-0.004	2.0	NoResponse	0	0.293	192.31	0	19	Target	Neutral	True
193.234	0.49	Control	0.7	n/a	No	2.929	n/a	n/a	NoResponse	0	n/a	n/a	0	19	Blank	Neutral	True
193.31	0.3	Control	0.7	0.004	No	2.929	-0.004	2.0	NoResponse	0	0.293	n/a	0	19	ButtonPress	Neutral	True
193.719	1.45	Control	0.7	n/a	No	2.929	n/a	5.0	NoResponse	0	0.016	192.735	0	19	Feedback	Neutral	True
195.173	2.929	Control	0.7	n/a	No	2.929	n/a	n/a	NoResponse	0	0.0	n/a	0	19	ISIslide	Neutral	True
198.116	0.25	Control	0.6667000000000001	0.0	No	2.634	0.016	n/a	NoResponse	0	n/a	n/a	0	20	Cue	Neutral	True
198.366	4.05	Control	0.6667000000000001	0.0	No	2.634	0.0	n/a	NoResponse	0	n/a	n/a	0	20	Fixation	Neutral	True
202.412	0.2	Control	0.6667000000000001	0.004	No	2.634	-0.004	2.0	NoResponse	0	0.223	201.635	0	20	Target	Neutral	True
202.612	0.5	Control	0.6667000000000001	n/a	No	2.634	n/a	n/a	NoResponse	0	n/a	n/a	0	20	Blank	Neutral	True
202.635	0.3	Control	0.6667000000000001	0.004	No	2.634	-0.004	2.0	NoResponse	0	0.223	n/a	0	20	ButtonPress	Neutral	True
203.114	1.45	Control	0.6667000000000001	n/a	No	2.634	n/a	5.0	NoResponse	0	0.036	202.15	0	20	Feedback	Neutral	True
204.568	2.634	Control	0.6667000000000001	n/a	No	2.634	n/a	n/a	NoResponse	0	0.0	n/a	0	20	ISIslide	Neutral	True
207.226	0.25	Control	0.6364	0.0	No	2.774	0.026	n/a	NoResponse	0	n/a	n/a	0	21	Cue	Neutral	True
207.477	4.1	Control	0.6364	0.0	No	2.774	0.001	n/a	NoResponse	0	n/a	n/a	0	21	Fixation	Neutral	True
211.573	0.19	Control	0.6364	0.003	No	2.774	-0.003	2.0	NoResponse	0	0.212	210.785	0	21	Target	Neutral	True
211.773	0.51	Control	0.6364	n/a	No	2.774	n/a	n/a	NoResponse	0	n/a	n/a	0	21	Blank	Neutral	True
211.785	0.3	Control	0.6364	0.003	No	2.774	-0.003	2.0	NoResponse	0	0.212	n/a	0	21	ButtonPress	Neutral	True
212.275	1.45	Control	0.6364	n/a	No	2.774	n/a	5.0	NoResponse	0	0.046	211.321	0	21	Feedback	Neutral	True
213.729	2.774	Control	0.6364	n/a	No	2.774	n/a	n/a	NoResponse	0	0.0	n/a	0	21	ISIslide	Neutral	True
216.521	0.25	Control	0.6087	0.0	No	2.779	0.021	n/a	NoResponse	0	n/a	n/a	0	22	Cue	Neutral	True
216.772	4.0	Control	0.6087	0.0	No	2.779	0.001	n/a	NoResponse	0	n/a	n/a	0	22	Fixation	Neutral	True
220.767	0.2	Control	0.6087	0.004	No	2.779	-0.004	2.0	NoResponse	0	0.273	220.04	0	22	Target	Neutral	True
220.968	0.5	Control	0.6087	n/a	No	2.779	n/a	n/a	NoResponse	0	n/a	n/a	0	22	Blank	Neutral	True
221.04	0.3	Control	0.6087	0.004	No	2.779	-0.004	2.0	NoResponse	0	0.273	n/a	0	22	ButtonPress	Neutral	True
221.469	1.45	Control	0.6087	n/a	No	2.779	n/a	5.0	NoResponse	0	0.022	220.491	0	22	Feedback	Neutral	True
222.923	2.779	Control	0.6087	n/a	No	2.779	n/a	n/a	NoResponse	0	0.0	n/a	0	22	ISIslide	Neutral	True
225.715	0.25	Control	0.5832999999999999	0.0	No	2.785	0.015	n/a	NoResponse	0	n/a	n/a	0	23	Cue	Neutral	True
225.966	3.9	Control	0.5832999999999999	0.0	No	2.785	0.001	n/a	NoResponse	0	n/a	n/a	0	23	Fixation	Neutral	True
229.861	0.21	Control	0.5832999999999999	0.004	No	2.785	-0.004	2.0	NoResponse	0	0.268	229.129	0	23	Target	Neutral	True
230.078	0.49	Control	0.5832999999999999	n/a	No	2.785	n/a	n/a	NoResponse	0	n/a	n/a	0	23	Blank	Neutral	True
230.129	0.3	Control	0.5832999999999999	0.004	No	2.785	-0.004	2.0	NoResponse	0	0.268	n/a	0	23	ButtonPress	Neutral	True
230.563	1.45	Control	0.5832999999999999	n/a	No	2.785	n/a	5.0	NoResponse	0	0.001	229.564	0	23	Feedback	Neutral	True
232.017	2.785	Control	0.5832999999999999	n/a	No	2.785	n/a	n/a	NoResponse	0	0.0	n/a	0	23	ISIslide	Neutral	True
234.826	0.25	Win2	0.56	0.0	No	3.124	0.026	n/a	NoResponse	0	n/a	n/a	0	24	Cue	MissedWin	True
235.077	3.95	Win2	0.56	0.0	No	3.124	0.001	n/a	NoResponse	0	n/a	n/a	0	24	Fixation	MissedWin	True
239.022	0.22	Win2	0.56	0.004	No	3.124	-0.004	2.0	NoResponse	0	0.275	238.297	0	24	Target	MissedWin	True
239.256	0.48	Win2	0.56	n/a	No	3.124	n/a	n/a	NoResponse	0	n/a	n/a	0	24	Blank	MissedWin	True
239.297	0.3	Win2	0.56	0.004	No	3.124	-0.004	2.0	NoResponse	0	0.275	n/a	0	24	ButtonPress	MissedWin	True
239.724	1.45	Win2	0.56	n/a	No	3.124	n/a	5.0	NoResponse	0	0.011	238.735	0	24	Feedback	MissedWin	True
241.178	3.124	Win2	0.56	n/a	No	3.124	n/a	n/a	NoResponse	0	0.0	n/a	0	24	ISIslide	MissedWin	True
244.321	0.25	Win2	0.5385	0.0	No	3.079	0.021	n/a	NoResponse	0	n/a	n/a	0	25	Cue	MissedWin	True
244.572	4.0	Win2	0.5385	0.0	No	3.079	0.001	n/a	NoResponse	0	n/a	n/a	0	25	Fixation	MissedWin	True
248.567	0.23	Win2	0.5385	0.004	No	3.079	-0.004	2.0	NoResponse	0	0.365	247.932	0	25	Target	MissedWin	True
248.801	0.47	Win2	0.5385	n/a	No	3.079	n/a	n/a	NoResponse	0	n/a	n/a	0	25	Blank	MissedWin	True
248.932	0.3	Win2	0.5385	0.004	No	3.079	-0.004	2.0	NoResponse	0	0.365	n/a	0	25	ButtonPress	MissedWin	True
249.269	1.45	Win2	0.5385	n/a	No	3.079	n/a	5.0	NoResponse	0	0.027	248.296	0	25	Feedback	MissedWin	True
250.723	3.079	Win2	0.5385	n/a	No	3.079	n/a	n/a	NoResponse	0	0.0	n/a	0	25	ISIslide	MissedWin	True
253.816	0.25	Win2	0.5185	0.0	No	2.934	0.016	n/a	NoResponse	0	n/a	n/a	0	26	Cue	MissedWin	True
254.067	3.95	Win2	0.5185	0.0	No	2.934	0.001	2.0	NoResponse	0	3.833	256.9	0	26	Fixation	MissedWin	True
257.9	0.3	Win2	0.5185	0.0	No	2.934	0.001	2.0	NoResponse	0	3.833	n/a	0	26	ButtonPress	MissedWin	True
258.012	0.24	Win2	0.5185	0.004	No	2.934	-0.004	n/a	NoResponse	0	n/a	n/a	0	26	Target	MissedWin	True
258.263	0.46	Win2	0.5185	n/a	No	2.934	n/a	n/a	NoResponse	0	n/a	n/a	0	26	Blank	MissedWin	True
258.714	1.45	Win2	0.5185	n/a	No	2.934	n/a	5.0	NoResponse	0	0.045	257.759	0	26	Feedback	MissedWin	True
260.168	2.934	Win2	0.5185	n/a	No	2.934	n/a	n/a	NoResponse	0	0.0	n/a	0	26	ISIslide	MissedWin	True
263.127	0.25	Lose2	0.5	0.0	No	2.823	0.027	n/a	NoResponse	-1	n/a	n/a	-1	27	Cue	Loss	False
263.378	4.05	Lose2	0.5	0.0	No	2.823	0.001	2.0	NoResponse	-1	1.69	264.068	-1	27	Fixation	Loss	False
265.068	0.3	Lose2	0.5	0.0	No	2.823	0.001	2.0	NoResponse	-1	1.69	n/a	-1	27	ButtonPress	Loss	False
267.424	0.25	Lose2	0.5	0.003	No	2.823	-0.003	2.0	NoResponse	-1	0.298	266.722	-1	27	Target	Loss	False
267.674	0.45	Lose2	0.5	n/a	No	2.823	n/a	n/a	NoResponse	-1	n/a	n/a	-1	27	Blank	Loss	False
267.722	0.3	Lose2	0.5	0.003	No	2.823	-0.003	2.0	NoResponse	-1	0.298	n/a	-1	27	ButtonPress	Loss	False
268.126	1.45	Lose2	0.5	n/a	No	2.823	n/a	5.0	NoResponse	-1	0.048	267.174	-1	27	Feedback	Loss	False
269.58	2.823	Lose2	0.5	n/a	No	2.823	n/a	n/a	NoResponse	-1	0.0	n/a	-1	27	ISIslide	Loss	False
272.422	0.25	Control	0.5172	0.0	Yes	2.828	0.022	n/a	GoodResponse	0	n/a	n/a	-1	28	Cue	Neutral	True
272.673	4.05	Control	0.5172	0.0	Yes	2.828	0.001	n/a	GoodResponse	0	n/a	n/a	-1	28	Fixation	Neutral	True
276.718	0.26	Control	0.5172	0.004	Yes	2.828	-0.004	2.0	GoodResponse	0	0.233	275.951	-1	28	Target	Neutral	True
276.951	0.3	Control	0.5172	0.004	Yes	2.828	-0.004	2.0	GoodResponse	0	0.233	n/a	-1	28	ButtonPress	Neutral	True
276.986	0.44	Control	0.5172	n/a	Yes	2.828	n/a	n/a	GoodResponse	0	n/a	n/a	-1	28	Blank	Neutral	True
277.42	1.45	Control	0.5172	n/a	Yes	2.828	n/a	5.0	GoodResponse	0	0.022	276.442	-1	28	Feedback	Neutral	True
278.875	2.828	Control	0.5172	n/a	Yes	2.828	n/a	n/a	GoodResponse	0	0.0	n/a	-1	28	ISIslide	Neutral	True
281.716	0.25	Lose2	0.5	0.001	No	2.834	0.016	n/a	NoResponse	-1	n/a	n/a	-2	29	Cue	Loss	True
281.967	3.95	Lose2	0.5	0.0	No	2.834	0.001	n/a	NoResponse	-1	n/a	n/a	-2	29	Fixation	Loss	True
285.912	0.27	Lose2	0.5	0.004	No	2.834	-0.004	2.0	NoResponse	-1	0.303	285.215	-2	29	Target	Loss	True
286.197	0.43	Lose2	0.5	n/a	No	2.834	n/a	n/a	NoResponse	-1	n/a	n/a	-2	29	Blank	Loss	True
286.215	0.3	Lose2	0.5	0.004	No	2.834	-0.004	2.0	NoResponse	-1	0.303	n/a	-2	29	ButtonPress	Loss	True
286.614	1.45	Lose2	0.5	n/a	No	2.834	n/a	5.0	NoResponse	-1	0.048	285.662	-2	29	Feedback	Loss	True
288.069	2.834	Lose2	0.5	n/a	No	2.834	n/a	n/a	NoResponse	-1	0.0	n/a	-2	29	ISIslide	Loss	True
290.927	0.25	Win2	0.5161	0.0	Yes	2.773	0.027	n/a	GoodResponse	1	n/a	n/a	-1	30	Cue	Win	True
291.178	3.9	Win2	0.5161	0.0	Yes	2.773	0.001	n/a	GoodResponse	1	n/a	n/a	-1	30	Fixation	Win	True
295.073	0.28	Win2	0.5161	0.004	Yes	2.773	-0.004	2.0	GoodResponse	1	0.243	294.316	-1	30	Target	Win	True
295.316	0.3	Win2	0.5161	0.004	Yes	2.773	-0.004	2.0	GoodResponse	1	0.243	n/a	-1	30	ButtonPress	Win	True
295.357	0.42	Win2	0.5161	n/a	Yes	2.773	n/a	n/a	GoodResponse	1	n/a	n/a	-1	30	Blank	Win	True
295.775	1.45	Win2	0.5161	n/a	Yes	2.773	n/a	5.0	GoodResponse	1	0.008	294.783	-1	30	Feedback	Win	True
297.23	2.773	Win2	0.5161	n/a	Yes	2.773	n/a	n/a	GoodResponse	1	0.0	n/a	-1	30	ISIslide	Win	True
300.021	0.25	Lose2	0.5312	0.0	Yes	2.829	0.021	n/a	GoodResponse	0	n/a	n/a	-1	31	Cue	AvoidedLoss	True
300.272	4.05	Lose2	0.5312	0.0	Yes	2.829	0.001	n/a	GoodResponse	0	n/a	n/a	-1	31	Fixation	AvoidedLoss	True
304.318	0.29	Lose2	0.5312	0.003	Yes	2.829	-0.003	2.0	GoodResponse	0	0.234	303.552	-1	31	Target	AvoidedLoss	True
304.552	0.3	Lose2	0.5312	0.003	Yes	2.829	-0.003	2.0	GoodResponse	0	0.234	n/a	-1	31	ButtonPress	AvoidedLoss	True
304.618	0.41	Lose2	0.5312	n/a	Yes	2.829	n/a	n/a	GoodResponse	0	n/a	n/a	-1	31	Blank	AvoidedLoss	True
305.02	1.45	Lose2	0.5312	n/a	Yes	2.829	n/a	5.0	GoodResponse	0	0.032	304.052	-1	31	Feedback	AvoidedLoss	True
306.474	2.829	Lose2	0.5312	n/a	Yes	2.829	n/a	n/a	GoodResponse	0	0.0	n/a	-1	31	ISIslide	AvoidedLoss	True
309.316	0.25	Lose2	0.5455	0.0	Yes	2.634	0.016	n/a	GoodResponse	0	n/a	n/a	-1	32	Cue	AvoidedLoss	True
309.567	4.15	Lose2	0.5455	0.0	Yes	2.634	0.001	n/a	GoodResponse	0	n/a	n/a	-1	32	Fixation	AvoidedLoss	True
313.712	0.3	Lose2	0.5455	0.004	Yes	2.634	-0.004	2.0	GoodResponse	0	0.256	312.968	-1	32	Target	AvoidedLoss	True
313.968	0.3	Lose2	0.5455	0.004	Yes	2.634	-0.004	2.0	GoodResponse	0	0.256	n/a	-1	32	ButtonPress	AvoidedLoss	True
314.013	0.4	Lose2	0.5455	n/a	Yes	2.634	n/a	n/a	GoodResponse	0	n/a	n/a	-1	32	Blank	AvoidedLoss	True
314.415	1.45	Lose2	0.5455	n/a	Yes	2.634	n/a	5.0	GoodResponse	0	0.005	313.42	-1	32	Feedback	AvoidedLoss	True
315.869	2.634	Lose2	0.5455	n/a	Yes	2.634	n/a	n/a	GoodResponse	0	0.0	n/a	-1	32	ISIslide	AvoidedLoss	True
318.527	0.25	Win2	0.5588000000000001	0.0	Yes	2.673	0.027	n/a	GoodResponse	1	n/a	n/a	0	33	Cue	Win	True
318.778	4.0	Win2	0.5588000000000001	0.0	Yes	2.673	0.001	n/a	GoodResponse	1	n/a	n/a	0	33	Fixation	Win	True
322.773	0.31	Win2	0.5588000000000001	0.004	Yes	2.673	-0.004	2.0	GoodResponse	1	0.235	322.008	0	33	Target	Win	True
323.008	0.3	Win2	0.5588000000000001	0.004	Yes	2.673	-0.004	2.0	GoodResponse	1	0.235	n/a	0	33	ButtonPress	Win	True
323.091	0.39	Win2	0.5588000000000001	n/a	Yes	2.673	n/a	n/a	GoodResponse	1	n/a	n/a	0	33	Blank	Win	True
323.475	1.45	Win2	0.5588000000000001	n/a	Yes	2.673	n/a	5.0	GoodResponse	1	0.016	322.491	0	33	Feedback	Win	True
324.929	2.673	Win2	0.5588000000000001	n/a	Yes	2.673	n/a	n/a	GoodResponse	1	0.0	n/a	0	33	ISIslide	Win	True
327.621	0.25	Lose2	0.5428999999999999	0.0	No	2.629	0.021	n/a	NoResponse	-1	n/a	n/a	-1	34	Cue	Loss	True
327.872	4.05	Lose2	0.5428999999999999	0.0	No	2.629	0.001	n/a	NoResponse	-1	n/a	n/a	-1	34	Fixation	Loss	True
331.917	0.32	Lose2	0.5428999999999999	0.004	No	2.629	-0.004	2.0	NoResponse	-1	0.484	331.401	-1	34	Target	Loss	True
332.251	0.38	Lose2	0.5428999999999999	n/a	No	2.629	n/a	n/a	NoResponse	-1	n/a	n/a	-1	34	Blank	Loss	True
332.401	0.3	Lose2	0.5428999999999999	0.004	No	2.629	-0.004	2.0	NoResponse	-1	0.484	n/a	-1	34	ButtonPress	Loss	True
332.619	1.45	Lose2	0.5428999999999999	n/a	No	2.629	n/a	5.0	NoResponse	-1	0.043	331.662	-1	34	Feedback	Loss	True
334.073	2.629	Lose2	0.5428999999999999	n/a	No	2.629	n/a	n/a	NoResponse	-1	0.0	n/a	-1	34	ISIslide	Loss	True
336.731	0.25	Lose2	0.5556	0.001	Yes	2.669	0.031	n/a	GoodResponse	0	n/a	n/a	-1	35	Cue	AvoidedLoss	True
336.982	4.0	Lose2	0.5556	0.0	Yes	2.669	0.001	n/a	GoodResponse	0	n/a	n/a	-1	35	Fixation	AvoidedLoss	True
340.978	0.33	Lose2	0.5556	0.003	Yes	2.669	-0.003	2.0	GoodResponse	0	0.302	340.28	-1	35	Target	AvoidedLoss	True
341.28	0.3	Lose2	0.5556	0.003	Yes	2.669	-0.003	2.0	GoodResponse	0	0.302	n/a	-1	35	ButtonPress	AvoidedLoss	True
341.312	0.37	Lose2	0.5556	n/a	Yes	2.669	n/a	n/a	GoodResponse	0	n/a	n/a	-1	35	Blank	AvoidedLoss	True
341.68	1.45	Lose2	0.5556	n/a	Yes	2.669	n/a	5.0	GoodResponse	0	0.006	340.686	-1	35	Feedback	AvoidedLoss	True
343.134	2.669	Lose2	0.5556	n/a	Yes	2.669	n/a	n/a	GoodResponse	0	0.0	n/a	-1	35	ISIslide	AvoidedLoss	True
345.825	0.25	Control	0.5676	0.0	Yes	2.675	0.025	n/a	GoodResponse	0	n/a	n/a	-1	36	Cue	Neutral	True
346.076	4.0	Control	0.5676	0.0	Yes	2.675	0.001	n/a	GoodResponse	0	n/a	n/a	-1	36	Fixation	Neutral	True
350.071	0.34	Control	0.5676	0.004	Yes	2.675	-0.004	2.0	GoodResponse	0	0.203	349.274	-1	36	Target	Neutral	True
350.274	0.3	Control	0.5676	0.004	Yes	2.675	-0.004	2.0	GoodResponse	0	0.203	n/a	-1	36	ButtonPress	Neutral	True
350.423	0.36	Control	0.5676	n/a	Yes	2.675	n/a	n/a	GoodResponse	0	n/a	n/a	-1	36	Blank	Neutral	True
350.774	1.45	Control	0.5676	n/a	Yes	2.675	n/a	5.0	GoodResponse	0	0.034	349.808	-1	36	Feedback	Neutral	True
352.228	2.675	Control	0.5676	n/a	Yes	2.675	n/a	n/a	GoodResponse	0	0.0	n/a	-1	36	ISIslide	Neutral	True
354.919	0.25	Win2	0.5789	0.0	Yes	2.881	0.019	n/a	GoodResponse	1	n/a	n/a	0	37	Cue	Win	True
355.17	4.0	Win2	0.5789	0.0	Yes	2.881	0.001	n/a	GoodResponse	1	n/a	n/a	0	37	Fixation	Win	True
359.165	0.35	Win2	0.5789	0.004	Yes	2.881	-0.004	2.0	GoodResponse	1	0.275	358.44	0	37	Target	Win	True
359.44	0.3	Win2	0.5789	0.004	Yes	2.881	-0.004	2.0	GoodResponse	1	0.275	n/a	0	37	ButtonPress	Win	True
359.516	0.35	Win2	0.5789	n/a	Yes	2.881	n/a	n/a	GoodResponse	1	n/a	n/a	0	37	Blank	Win	True
359.868	1.45	Win2	0.5789	n/a	Yes	2.881	n/a	5.0	GoodResponse	1	0.014	358.882	0	37	Feedback	Win	True
361.322	2.881	Win2	0.5789	n/a	Yes	2.881	n/a	n/a	GoodResponse	1	0.0	n/a	0	37	ISIslide	Win	True
364.231	0.25	Lose2	0.5897	0.0	Yes	2.819	0.031	n/a	GoodResponse	0	n/a	n/a	0	38	Cue	AvoidedLoss	True
364.481	3.95	Lose2	0.5897	0.001	Yes	2.819	0.0	n/a	GoodResponse	0	n/a	n/a	0	38	Fixation	AvoidedLoss	True
368.427	0.36	Lose2	0.5897	0.004	Yes	2.819	-0.004	2.0	GoodResponse	0	0.217	367.644	0	38	Target	AvoidedLoss	True
368.644	0.3	Lose2	0.5897	0.004	Yes	2.819	-0.004	2.0	GoodResponse	0	0.217	n/a	0	38	ButtonPress	AvoidedLoss	True
368.794	0.34	Lose2	0.5897	n/a	Yes	2.819	n/a	n/a	GoodResponse	0	n/a	n/a	0	38	Blank	AvoidedLoss	True
369.129	1.45	Lose2	0.5897	n/a	Yes	2.819	n/a	5.0	GoodResponse	0	0.02	368.149	0	38	Feedback	AvoidedLoss	True
370.583	2.819	Lose2	0.5897	n/a	Yes	2.819	n/a	n/a	GoodResponse	0	0.0	n/a	0	38	ISIslide	AvoidedLoss	True
373.425	0.25	Win2	0.6	0.0	Yes	2.975	0.025	n/a	GoodResponse	1	n/a	n/a	1	39	Cue	Win	True
373.676	4.1	Win2	0.6	0.0	Yes	2.975	0.001	n/a	GoodResponse	1	n/a	n/a	1	39	Fixation	Win	True
377.771	0.37	Win2	0.6	0.004	Yes	2.975	-0.004	2.0	GoodResponse	1	0.195	376.966	1	39	Target	Win	True
377.966	0.3	Win2	0.6	0.004	Yes	2.975	-0.004	2.0	GoodResponse	1	0.195	n/a	1	39	ButtonPress	Win	True
378.156	0.33	Win2	0.6	n/a	Yes	2.975	n/a	n/a	GoodResponse	1	n/a	n/a	1	39	Blank	Win	True
378.473	1.45	Win2	0.6	n/a	Yes	2.975	n/a	5.0	GoodResponse	1	0.042	377.515	1	39	Feedback	Win	True
379.928	2.975	Win2	0.6	n/a	Yes	2.975	n/a	n/a	GoodResponse	1	0.0	n/a	1	39	ISIslide	Win	True
382.92	0.25	Win2	0.6098	0.0	Yes	2.73	0.02	n/a	GoodResponse	1	n/a	n/a	2	40	Cue	Win	True
383.171	3.95	Win2	0.6098	0.0	Yes	2.73	0.001	n/a	GoodResponse	1	n/a	n/a	2	40	Fixation	Win	True
387.116	0.38	Win2	0.6098	0.004	Yes	2.73	-0.004	2.0	GoodResponse	1	0.226	386.342	2	40	Target	Win	True
387.342	0.3	Win2	0.6098	0.004	Yes	2.73	-0.004	2.0	GoodResponse	1	0.226	n/a	2	40	ButtonPress	Win	True
387.5	0.32	Win2	0.6098	n/a	Yes	2.73	n/a	n/a	GoodResponse	1	n/a	n/a	2	40	Blank	Win	True
387.818	1.45	Win2	0.6098	n/a	Yes	2.73	n/a	5.0	GoodResponse	1	0.014	386.832	2	40	Feedback	Win	True
389.272	2.73	Win2	0.6098	n/a	Yes	2.73	n/a	n/a	GoodResponse	1	0.0	n/a	2	40	ISIslide	Win	True
392.031	0.25	Win2	0.619	0.0	Yes	2.769	0.031	n/a	GoodResponse	1	n/a	n/a	3	41	Cue	Win	True
392.281	3.9	Win2	0.619	0.0	Yes	2.769	0.0	n/a	GoodResponse	1	n/a	n/a	3	41	Fixation	Win	True
396.193	0.39	Win2	0.619	0.0	Yes	2.769	0.012	2.0	GoodResponse	1	0.217	395.41	3	41	Target	Win	True
396.41	0.3	Win2	0.619	0.0	Yes	2.769	0.012	2.0	GoodResponse	1	0.217	n/a	3	41	ButtonPress	Win	True
396.578	0.31	Win2	0.619	n/a	Yes	2.769	n/a	n/a	GoodResponse	1	n/a	n/a	3	41	Blank	Win	True
396.879	1.45	Win2	0.619	n/a	Yes	2.769	n/a	5.0	GoodResponse	1	0.026	395.905	3	41	Feedback	Win	True
398.333	2.769	Win2	0.619	n/a	Yes	2.769	n/a	n/a	GoodResponse	1	0.0	n/a	3	41	ISIslide	Win	True
401.125	0.25	Control	0.6279	0.0	Yes	2.925	0.025	n/a	GoodResponse	0	n/a	n/a	3	42	Cue	Neutral	True
401.375	3.85	Control	0.6279	0.0	Yes	2.925	0.0	n/a	GoodResponse	0	n/a	n/a	3	42	Fixation	Neutral	True
405.237	0.4	Control	0.6279	0.0	Yes	2.925	0.012	2.0	GoodResponse	0	0.312	404.549	3	42	Target	Neutral	True
405.549	0.3	Control	0.6279	0.0	Yes	2.925	0.012	2.0	GoodResponse	0	0.312	n/a	3	42	ButtonPress	Neutral	True
405.621	0.3	Control	0.6279	n/a	Yes	2.925	n/a	n/a	GoodResponse	0	n/a	n/a	3	42	Blank	Neutral	True
405.922	1.45	Control	0.6279	n/a	Yes	2.925	n/a	5.0	GoodResponse	0	0.008	404.93	3	42	Feedback	Neutral	True
407.377	2.925	Control	0.6279	n/a	Yes	2.925	n/a	n/a	GoodResponse	0	0.0	n/a	3	42	ISIslide	Neutral	True
410.319	0.25	Win2	0.6364	0.0	Yes	3.181	0.019	n/a	GoodResponse	1	n/a	n/a	4	43	Cue	Win	True
410.57	4.0	Win2	0.6364	0.0	Yes	3.181	0.001	n/a	GoodResponse	1	n/a	n/a	4	43	Fixation	Win	True
414.565	0.41	Win2	0.6364	0.004	Yes	3.181	-0.004	2.0	GoodResponse	1	0.228	413.793	4	43	Target	Win	True
414.793	0.3	Win2	0.6364	0.004	Yes	3.181	-0.004	2.0	GoodResponse	1	0.228	n/a	4	43	ButtonPress	Win	True
414.983	0.29	Win2	0.6364	n/a	Yes	3.181	n/a	n/a	GoodResponse	1	n/a	n/a	4	43	Blank	Win	True
415.267	1.45	Win2	0.6364	n/a	Yes	3.181	n/a	5.0	GoodResponse	1	0.029	414.296	4	43	Feedback	Win	True
416.721	3.181	Win2	0.6364	n/a	Yes	3.181	n/a	n/a	GoodResponse	1	0.0	n/a	4	43	ISIslide	Win	True
419.931	0.25	Win2	0.6444	0.0	Yes	2.969	0.031	n/a	GoodResponse	1	n/a	n/a	5	44	Cue	Win	True
420.182	4.0	Win2	0.6444	0.0	Yes	2.969	0.001	n/a	GoodResponse	1	n/a	n/a	5	44	Fixation	Win	True
424.177	0.42	Win2	0.6444	0.004	Yes	2.969	-0.004	2.0	GoodResponse	1	0.231	423.408	5	44	Target	Win	True
424.408	0.3	Win2	0.6444	0.004	Yes	2.969	-0.004	2.0	GoodResponse	1	0.231	n/a	5	44	ButtonPress	Win	True
424.612	0.28	Win2	0.6444	n/a	Yes	2.969	n/a	n/a	GoodResponse	1	n/a	n/a	5	44	Blank	Win	True
424.879	1.45	Win2	0.6444	n/a	Yes	2.969	n/a	5.0	GoodResponse	1	0.027	423.906	5	44	Feedback	Win	True
426.334	2.969	Win2	0.6444	n/a	Yes	2.969	n/a	n/a	GoodResponse	1	0.0	n/a	5	44	ISIslide	Win	True
429.326	0.25	Control	0.6522	0.0	Yes	2.874	0.026	n/a	GoodResponse	0	n/a	n/a	5	45	Cue	Neutral	True
429.577	4.1	Control	0.6522	0.0	Yes	2.874	0.001	n/a	GoodResponse	0	n/a	n/a	5	45	Fixation	Neutral	True
433.672	0.43	Control	0.6522	0.004	Yes	2.874	-0.004	2.0	GoodResponse	0	0.248	432.92	5	45	Target	Neutral	True
433.92	0.3	Control	0.6522	0.004	Yes	2.874	-0.004	2.0	GoodResponse	0	0.248	n/a	5	45	ButtonPress	Neutral	True
434.107	0.27	Control	0.6522	n/a	Yes	2.874	n/a	n/a	GoodResponse	0	n/a	n/a	5	45	Blank	Neutral	True
434.374	1.45	Control	0.6522	n/a	Yes	2.874	n/a	5.0	GoodResponse	0	0.044	433.418	5	45	Feedback	Neutral	True
435.829	2.874	Control	0.6522	n/a	Yes	2.874	n/a	n/a	GoodResponse	0	0.0	n/a	5	45	ISIslide	Neutral	True
438.721	0.25	Lose2	0.6596	0.0	Yes	3.379	0.021	n/a	GoodResponse	0	n/a	n/a	5	46	Cue	AvoidedLoss	True
438.971	4.0	Lose2	0.6596	0.001	Yes	3.379	0.0	n/a	GoodResponse	0	n/a	n/a	5	46	Fixation	AvoidedLoss	True
442.967	0.44	Lose2	0.6596	0.004	Yes	3.379	-0.004	2.0	GoodResponse	0	0.207	442.174	5	46	Target	AvoidedLoss	True
443.174	0.3	Lose2	0.6596	0.004	Yes	3.379	-0.004	2.0	GoodResponse	0	0.207	n/a	5	46	ButtonPress	AvoidedLoss	True
443.418	0.26	Lose2	0.6596	n/a	Yes	3.379	n/a	n/a	GoodResponse	0	n/a	n/a	5	46	Blank	AvoidedLoss	True
443.669	1.45	Lose2	0.6596	n/a	Yes	3.379	n/a	5.0	GoodResponse	0	0.017	442.686	5	46	Feedback	AvoidedLoss	True
445.123	3.379	Lose2	0.6596	n/a	Yes	3.379	n/a	n/a	GoodResponse	0	0.0	n/a	5	46	ISIslide	AvoidedLoss	True
448.517	0.25	Lose2	0.6667000000000001	0.0	Yes	2.683	0.017	n/a	GoodResponse	0	n/a	n/a	5	47	Cue	AvoidedLoss	True
448.768	4.0	Lose2	0.6667000000000001	0.0	Yes	2.683	0.001	n/a	GoodResponse	0	n/a	n/a	5	47	Fixation	AvoidedLoss	True
452.763	0.44	Lose2	0.6667000000000001	0.004	Yes	2.683	-0.004	2.0	GoodResponse	0	0.256	452.019	5	47	Target	AvoidedLoss	True
453.019	0.3	Lose2	0.6667000000000001	0.004	Yes	2.683	-0.004	2.0	GoodResponse	0	0.256	n/a	5	47	ButtonPress	AvoidedLoss	True
453.214	0.26	Lose2	0.6667000000000001	n/a	Yes	2.683	n/a	n/a	GoodResponse	0	n/a	n/a	5	47	Blank	AvoidedLoss	True
453.465	1.45	Lose2	0.6667000000000001	n/a	Yes	2.683	n/a	5.0	GoodResponse	0	0.026	452.491	5	47	Feedback	AvoidedLoss	True
454.919	2.683	Lose2	0.6667000000000001	n/a	Yes	2.683	n/a	n/a	GoodResponse	0	0.0	n/a	5	47	ISIslide	AvoidedLoss	True
457.627	0.25	Lose2	0.6735	0.001	Yes	3.023	0.027	n/a	GoodResponse	0	n/a	n/a	5	48	Cue	AvoidedLoss	True
457.878	3.95	Lose2	0.6735	0.0	Yes	3.023	0.001	n/a	GoodResponse	0	n/a	n/a	5	48	Fixation	AvoidedLoss	True
461.823	0.43	Lose2	0.6735	0.004	Yes	3.023	-0.004	2.0	GoodResponse	0	0.289	461.112	5	48	Target	AvoidedLoss	True
462.112	0.3	Lose2	0.6735	0.004	Yes	3.023	-0.004	2.0	GoodResponse	0	0.289	n/a	5	48	ButtonPress	AvoidedLoss	True
462.258	0.27	Lose2	0.6735	n/a	Yes	3.023	n/a	n/a	GoodResponse	0	n/a	n/a	5	48	Blank	AvoidedLoss	True
462.525	1.45	Lose2	0.6735	n/a	Yes	3.023	n/a	5.0	GoodResponse	0	0.039	461.564	5	48	Feedback	AvoidedLoss	True
463.98	3.023	Lose2	0.6735	n/a	Yes	3.023	n/a	n/a	GoodResponse	0	0.0	n/a	5	48	ISIslide	AvoidedLoss	True
467.022	0.25	Control	0.68	0.0	Yes	2.878	0.022	n/a	GoodResponse	0	n/a	n/a	5	49	Cue	Neutral	True
467.273	4.0	Control	0.68	0.0	Yes	2.878	0.001	n/a	GoodResponse	0	n/a	n/a	5	49	Fixation	Neutral	True
471.268	0.42	Control	0.68	0.004	Yes	2.878	-0.004	2.0	GoodResponse	0	0.24	470.508	5	49	Target	Neutral	True
471.508	0.3	Control	0.68	0.004	Yes	2.878	-0.004	2.0	GoodResponse	0	0.24	n/a	5	49	ButtonPress	Neutral	True
471.703	0.28	Control	0.68	n/a	Yes	2.878	n/a	n/a	GoodResponse	0	n/a	n/a	5	49	Blank	Neutral	True
471.97	1.45	Control	0.68	n/a	Yes	2.878	n/a	5.0	GoodResponse	0	0.009	470.979	5	49	Feedback	Neutral	True
473.425	2.878	Control	0.68	n/a	Yes	2.878	n/a	n/a	GoodResponse	0	0.0	n/a	5	49	ISIslide	Neutral	True
476.317	0.25	Control	0.6862999999999999	0.0	Yes	2.783	0.017	n/a	GoodResponse	0	n/a	n/a	5	50	Cue	Neutral	True
476.568	4.0	Control	0.6862999999999999	0.0	Yes	2.783	0.001	n/a	GoodResponse	0	n/a	n/a	5	50	Fixation	Neutral	True
480.563	0.41	Control	0.6862999999999999	0.004	Yes	2.783	-0.004	2.0	GoodResponse	0	0.344	479.907	5	50	Target	Neutral	True
480.907	0.3	Control	0.6862999999999999	0.004	Yes	2.783	-0.004	2.0	GoodResponse	0	0.344	n/a	5	50	ButtonPress	Neutral	True
480.981	0.29	Control	0.6862999999999999	n/a	Yes	2.783	n/a	n/a	GoodResponse	0	n/a	n/a	5	50	Blank	Neutral	True
481.265	1.45	Control	0.6862999999999999	n/a	Yes	2.783	n/a	5.0	GoodResponse	0	0.031	480.296	5	50	Feedback	Neutral	True
482.719	2.783	Control	0.6862999999999999	n/a	Yes	2.783	n/a	n/a	GoodResponse	0	0.0	n/a	5	50	ISIslide	Neutral	True
485.528	0.25	Control	0.6923	0.0	Yes	2.722	0.028	n/a	GoodResponse	0	n/a	n/a	5	51	Cue	Neutral	True
485.779	3.95	Control	0.6923	0.0	Yes	2.722	0.001	n/a	GoodResponse	0	n/a	n/a	5	51	Fixation	Neutral	True
489.724	0.4	Control	0.6923	0.004	Yes	2.722	-0.004	2.0	GoodResponse	0	0.245	488.969	5	51	Target	Neutral	True
489.969	0.3	Control	0.6923	0.004	Yes	2.722	-0.004	2.0	GoodResponse	0	0.245	n/a	5	51	ButtonPress	Neutral	True
490.125	0.3	Control	0.6923	n/a	Yes	2.722	n/a	n/a	GoodResponse	0	n/a	n/a	5	51	Blank	Neutral	True
490.426	1.45	Control	0.6923	n/a	Yes	2.722	n/a	5.0	GoodResponse	0	0.041	489.467	5	51	Feedback	Neutral	True
491.88	2.722	Control	0.6923	n/a	Yes	2.722	n/a	n/a	GoodResponse	0	0.0	n/a	5	51	ISIslide	Neutral	True
494.622	0.25	Control	0.6981	0.0	Yes	2.628	0.022	n/a	GoodResponse	0	n/a	n/a	5	52	Cue	Neutral	True
494.873	4.05	Control	0.6981	0.0	Yes	2.628	0.001	n/a	GoodResponse	0	n/a	n/a	5	52	Fixation	Neutral	True
498.918	0.39	Control	0.6981	0.004	Yes	2.628	-0.004	2.0	GoodResponse	0	0.265	498.183	5	52	Target	Neutral	True
499.183	0.3	Control	0.6981	0.004	Yes	2.628	-0.004	2.0	GoodResponse	0	0.265	n/a	5	52	ButtonPress	Neutral	True
499.319	0.31	Control	0.6981	n/a	Yes	2.628	n/a	n/a	GoodResponse	0	n/a	n/a	5	52	Blank	Neutral	True
499.62	1.45	Control	0.6981	n/a	Yes	2.628	n/a	5.0	GoodResponse	0	0.018	498.638	5	52	Feedback	Neutral	True
501.074	2.628	Control	0.6981	n/a	Yes	2.628	n/a	n/a	GoodResponse	0	0.0	n/a	5	52	ISIslide	Neutral	True
503.716	0.25	Win2	0.7037	0.0	Yes	2.934	0.016	n/a	GoodResponse	1	n/a	n/a	6	53	Cue	Win	True
503.966	4.05	Win2	0.7037	0.001	Yes	2.934	0.0	n/a	GoodResponse	1	n/a	n/a	6	53	Fixation	Win	True
508.012	0.38	Win2	0.7037	0.004	Yes	2.934	-0.004	2.0	GoodResponse	1	0.229	507.241	6	53	Target	Win	True
508.241	0.3	Win2	0.7037	0.004	Yes	2.934	-0.004	2.0	GoodResponse	1	0.229	n/a	6	53	ButtonPress	Win	True
508.396	0.32	Win2	0.7037	n/a	Yes	2.934	n/a	n/a	GoodResponse	1	n/a	n/a	6	53	Blank	Win	True
508.714	1.45	Win2	0.7037	n/a	Yes	2.934	n/a	5.0	GoodResponse	1	0.046	507.76	6	53	Feedback	Win	True
510.168	2.934	Win2	0.7037	n/a	Yes	2.934	n/a	n/a	GoodResponse	1	0.0	n/a	6	53	ISIslide	Win	True
513.127	0.25	Win2	0.7091	0.0	Yes	2.723	0.027	n/a	GoodResponse	1	n/a	n/a	7	54	Cue	Win	True
513.378	3.95	Win2	0.7091	0.0	Yes	2.723	0.001	n/a	GoodResponse	1	n/a	n/a	7	54	Fixation	Win	True
517.323	0.37	Win2	0.7091	0.004	Yes	2.723	-0.004	2.0	GoodResponse	1	0.219	516.542	7	54	Target	Win	True
517.542	0.3	Win2	0.7091	0.004	Yes	2.723	-0.004	2.0	GoodResponse	1	0.219	n/a	7	54	ButtonPress	Win	True
517.708	0.33	Win2	0.7091	n/a	Yes	2.723	n/a	n/a	GoodResponse	1	n/a	n/a	7	54	Blank	Win	True
518.025	1.45	Win2	0.7091	n/a	Yes	2.723	n/a	5.0	GoodResponse	1	0.006	517.031	7	54	Feedback	Win	True
519.48	2.723	Win2	0.7091	n/a	Yes	2.723	n/a	n/a	GoodResponse	1	0.0	n/a	7	54	ISIslide	Win	True
522.221	0.25	Control	0.7143	0.0	Yes	3.029	0.021	n/a	GoodResponse	0	n/a	n/a	7	55	Cue	Neutral	True
522.472	3.95	Control	0.7143	0.0	Yes	3.029	0.001	n/a	GoodResponse	0	n/a	n/a	7	55	Fixation	Neutral	True
526.417	0.36	Control	0.7143	0.004	Yes	3.029	-0.004	2.0	GoodResponse	0	0.273	525.69	7	55	Target	Neutral	True
526.69	0.3	Control	0.7143	0.004	Yes	3.029	-0.004	2.0	GoodResponse	0	0.273	n/a	7	55	ButtonPress	Neutral	True
526.785	0.34	Control	0.7143	n/a	Yes	3.029	n/a	n/a	GoodResponse	0	n/a	n/a	7	55	Blank	Neutral	True
527.119	1.45	Control	0.7143	n/a	Yes	3.029	n/a	5.0	GoodResponse	0	0.03	526.149	7	55	Feedback	Neutral	True
528.574	3.029	Control	0.7143	n/a	Yes	3.029	n/a	n/a	GoodResponse	0	0.0	n/a	7	55	ISIslide	Neutral	True
531.616	0.25	Control	0.7018000000000001	0.0	No	2.834	0.016	n/a	NoResponse	0	n/a	n/a	7	56	Cue	Neutral	True
531.867	3.95	Control	0.7018000000000001	0.0	No	2.834	0.001	n/a	NoResponse	0	n/a	n/a	7	56	Fixation	Neutral	True
535.812	0.35	Control	0.7018000000000001	0.004	No	2.834	-0.004	2.0	NoResponse	0	0.461	535.273	7	56	Target	Neutral	True
536.163	0.35	Control	0.7018000000000001	n/a	No	2.834	n/a	n/a	NoResponse	0	n/a	n/a	7	56	Blank	Neutral	True
536.273	0.3	Control	0.7018000000000001	0.004	No	2.834	-0.004	2.0	NoResponse	0	0.461	n/a	7	56	ButtonPress	Neutral	True
536.514	1.45	Control	0.7018000000000001	n/a	No	2.834	n/a	5.0	NoResponse	0	0.001	535.515	7	56	Feedback	Neutral	True
537.968	2.834	Control	0.7018000000000001	n/a	No	2.834	n/a	n/a	NoResponse	0	0.0	n/a	7	56	ISIslide	Neutral	True
540.827	0.25	Control	0.7069	0.0	Yes	3.473	0.027	n/a	GoodResponse	0	n/a	n/a	7	57	Cue	Neutral	True
541.078	4.0	Control	0.7069	0.0	Yes	3.473	0.001	n/a	GoodResponse	0	n/a	n/a	7	57	Fixation	Neutral	True
545.073	0.34	Control	0.7069	0.004	Yes	3.473	-0.004	2.0	GoodResponse	0	0.229	544.302	7	57	Target	Neutral	True
545.302	0.3	Control	0.7069	0.004	Yes	3.473	-0.004	2.0	GoodResponse	0	0.229	n/a	7	57	ButtonPress	Neutral	True
545.424	0.36	Control	0.7069	n/a	Yes	3.473	n/a	n/a	GoodResponse	0	n/a	n/a	7	57	Blank	Neutral	True
545.775	1.45	Control	0.7069	n/a	Yes	3.473	n/a	5.0	GoodResponse	0	0.009	544.784	7	57	Feedback	Neutral	True
547.23	3.473	Control	0.7069	n/a	Yes	3.473	n/a	n/a	GoodResponse	0	0.0	n/a	7	57	ISIslide	Neutral	True
550.723	0.25	Win2	0.7119	0.0	Yes	2.727	0.023	n/a	GoodResponse	1	n/a	n/a	8	58	Cue	Win	True
550.974	4.05	Win2	0.7119	0.0	Yes	2.727	0.001	n/a	GoodResponse	1	n/a	n/a	8	58	Fixation	Win	True
555.02	0.33	Win2	0.7119	0.003	Yes	2.727	-0.003	2.0	GoodResponse	1	0.205	554.225	8	58	Target	Win	True
555.225	0.3	Win2	0.7119	0.003	Yes	2.727	-0.003	2.0	GoodResponse	1	0.205	n/a	8	58	ButtonPress	Win	True
555.354	0.37	Win2	0.7119	n/a	Yes	2.727	n/a	n/a	GoodResponse	1	n/a	n/a	8	58	Blank	Win	True
555.722	1.45	Win2	0.7119	n/a	Yes	2.727	n/a	5.0	GoodResponse	1	0.013	554.735	8	58	Feedback	Win	True
557.176	2.727	Win2	0.7119	n/a	Yes	2.727	n/a	n/a	GoodResponse	1	0.0	n/a	8	58	ISIslide	Win	True
559.918	0.25	Lose2	0.7	0.0	No	2.682	0.018	n/a	NoResponse	-1	n/a	n/a	7	59	Cue	Loss	True
560.168	4.0	Lose2	0.7	0.0	No	2.682	0.0	n/a	NoResponse	-1	n/a	n/a	7	59	Fixation	Loss	True
564.164	0.32	Lose2	0.7	0.004	No	2.682	-0.004	2.0	NoResponse	-1	0.343	563.507	7	59	Target	Loss	True
564.498	0.38	Lose2	0.7	n/a	No	2.682	n/a	n/a	NoResponse	-1	n/a	n/a	7	59	Blank	Loss	True
564.507	0.3	Lose2	0.7	0.004	No	2.682	-0.004	2.0	NoResponse	-1	0.343	n/a	7	59	ButtonPress	Loss	True
564.866	1.45	Lose2	0.7	n/a	No	2.682	n/a	5.0	NoResponse	-1	0.04	563.906	7	59	Feedback	Loss	True
566.32	2.682	Lose2	0.7	n/a	No	2.682	n/a	n/a	NoResponse	-1	0.0	n/a	7	59	ISIslide	Loss	True
569.028	0.25	Control	0.7049	0.0	Yes	2.672	0.028	n/a	GoodResponse	0	n/a	n/a	7	60	Cue	Neutral	True
569.279	4.0	Control	0.7049	0.0	Yes	2.672	0.001	n/a	GoodResponse	0	n/a	n/a	7	60	Fixation	Neutral	True
573.274	0.31	Control	0.7049	0.004	Yes	2.672	-0.004	2.0	GoodResponse	0	0.202	572.476	7	60	Target	Neutral	True
573.476	0.3	Control	0.7049	0.004	Yes	2.672	-0.004	2.0	GoodResponse	0	0.202	n/a	7	60	ButtonPress	Neutral	True
573.592	0.39	Control	0.7049	n/a	Yes	2.672	n/a	n/a	GoodResponse	0	n/a	n/a	7	60	Blank	Neutral	True
573.976	1.45	Control	0.7049	n/a	Yes	2.672	n/a	5.0	GoodResponse	0	0.006	572.982	7	60	Feedback	Neutral	True
575.431	2.672	Control	0.7049	n/a	Yes	2.672	n/a	n/a	GoodResponse	0	0.0	n/a	7	60	ISIslide	Neutral	True
578.122	0.25	Lose2	0.7097	0.0	Yes	2.978	0.022	n/a	GoodResponse	0	n/a	n/a	7	61	Cue	AvoidedLoss	True
578.373	4.0	Lose2	0.7097	0.0	Yes	2.978	0.001	n/a	GoodResponse	0	n/a	n/a	7	61	Fixation	AvoidedLoss	True
582.368	0.3	Lose2	0.7097	0.004	Yes	2.978	-0.004	2.0	GoodResponse	0	0.263	581.631	7	61	Target	AvoidedLoss	True
582.631	0.3	Lose2	0.7097	0.004	Yes	2.978	-0.004	2.0	GoodResponse	0	0.263	n/a	7	61	ButtonPress	AvoidedLoss	True
582.669	0.4	Lose2	0.7097	n/a	Yes	2.978	n/a	n/a	GoodResponse	0	n/a	n/a	7	61	Blank	AvoidedLoss	True
583.07	1.45	Lose2	0.7097	n/a	Yes	2.978	n/a	5.0	GoodResponse	0	0.031	582.101	7	61	Feedback	AvoidedLoss	True
584.525	2.978	Lose2	0.7097	n/a	Yes	2.978	n/a	n/a	GoodResponse	0	0.0	n/a	7	61	ISIslide	AvoidedLoss	True
587.517	0.25	Lose2	0.7143	0.0	Yes	2.883	0.017	n/a	GoodResponse	0	n/a	n/a	7	62	Cue	AvoidedLoss	True
587.768	3.9	Lose2	0.7143	0.0	Yes	2.883	0.001	n/a	GoodResponse	0	n/a	n/a	7	62	Fixation	AvoidedLoss	True
591.663	0.29	Lose2	0.7143	0.004	Yes	2.883	-0.004	2.0	GoodResponse	0	0.223	590.886	7	62	Target	AvoidedLoss	True
591.886	0.3	Lose2	0.7143	0.004	Yes	2.883	-0.004	2.0	GoodResponse	0	0.223	n/a	7	62	ButtonPress	AvoidedLoss	True
591.964	0.41	Lose2	0.7143	n/a	Yes	2.883	n/a	n/a	GoodResponse	0	n/a	n/a	7	62	Blank	AvoidedLoss	True
592.365	1.45	Lose2	0.7143	n/a	Yes	2.883	n/a	5.0	GoodResponse	0	0.006	591.371	7	62	Feedback	AvoidedLoss	True
593.819	2.883	Lose2	0.7143	n/a	Yes	2.883	n/a	n/a	GoodResponse	0	0.0	n/a	7	62	ISIslide	AvoidedLoss	True
596.728	0.25	Lose2	0.7188	0.0	Yes	2.622	0.028	n/a	GoodResponse	0	n/a	n/a	7	63	Cue	AvoidedLoss	True
596.979	4.05	Lose2	0.7188	0.0	Yes	2.622	0.001	n/a	GoodResponse	0	n/a	n/a	7	63	Fixation	AvoidedLoss	True
601.024	0.28	Lose2	0.7188	0.004	Yes	2.622	-0.004	2.0	GoodResponse	0	0.268	600.292	7	63	Target	AvoidedLoss	True
601.292	0.3	Lose2	0.7188	0.004	Yes	2.622	-0.004	2.0	GoodResponse	0	0.268	n/a	7	63	ButtonPress	AvoidedLoss	True
601.308	0.42	Lose2	0.7188	n/a	Yes	2.622	n/a	n/a	GoodResponse	0	n/a	n/a	7	63	Blank	AvoidedLoss	True
601.726	1.45	Lose2	0.7188	n/a	Yes	2.622	n/a	5.0	GoodResponse	0	0.008	600.734	7	63	Feedback	AvoidedLoss	True
603.181	2.622	Lose2	0.7188	n/a	Yes	2.622	n/a	n/a	GoodResponse	0	0.0	n/a	7	63	ISIslide	AvoidedLoss	True
605.822	0.25	Win2	0.7231000000000001	0.0	Yes	3.128	0.022	n/a	GoodResponse	1	n/a	n/a	8	64	Cue	Win	True
606.073	4.15	Win2	0.7231000000000001	0.0	Yes	3.128	0.001	n/a	GoodResponse	1	n/a	n/a	8	64	Fixation	Win	True
610.219	0.27	Win2	0.7231000000000001	0.003	Yes	3.128	-0.003	2.0	GoodResponse	1	0.193	609.412	8	64	Target	Win	True
610.412	0.3	Win2	0.7231000000000001	0.003	Yes	3.128	-0.003	2.0	GoodResponse	1	0.193	n/a	8	64	ButtonPress	Win	True
610.503	0.43	Win2	0.7231000000000001	n/a	Yes	3.128	n/a	n/a	GoodResponse	1	n/a	n/a	8	64	Blank	Win	True
610.921	1.45	Win2	0.7231000000000001	n/a	Yes	3.128	n/a	5.0	GoodResponse	1	0.033	609.954	8	64	Feedback	Win	True
612.375	3.128	Win2	0.7231000000000001	n/a	Yes	3.128	n/a	n/a	GoodResponse	1	0.0	n/a	8	64	ISIslide	Win	True
615.518	0.25	Control	0.7121	0.0	No	2.782	0.018	n/a	NoResponse	0	n/a	n/a	8	65	Cue	Neutral	True
615.769	4.0	Control	0.7121	0.0	No	2.782	0.001	n/a	NoResponse	0	n/a	n/a	8	65	Fixation	Neutral	True
619.764	0.26	Control	0.7121	0.004	No	2.782	-0.004	2.0	NoResponse	0	0.415	619.179	8	65	Target	Neutral	True
620.031	0.44	Control	0.7121	n/a	No	2.782	n/a	n/a	NoResponse	0	n/a	n/a	8	65	Blank	Neutral	True
620.179	0.3	Control	0.7121	0.004	No	2.782	-0.004	2.0	NoResponse	0	0.415	n/a	8	65	ButtonPress	Neutral	True
620.466	1.45	Control	0.7121	n/a	No	2.782	n/a	5.0	NoResponse	0	0.0	619.466	8	65	Feedback	Neutral	True
621.92	2.782	Control	0.7121	n/a	No	2.782	n/a	n/a	NoResponse	0	0.0	n/a	8	65	ISIslide	Neutral	True
624.729	0.25	Win2	0.7015	0.0	No	2.771	0.029	n/a	NoResponse	0	n/a	n/a	8	66	Cue	MissedWin	True
624.979	3.9	Win2	0.7015	0.001	No	2.771	0.0	n/a	NoResponse	0	n/a	n/a	8	66	Fixation	MissedWin	True
628.891	0.25	Win2	0.7015	0.0	No	2.771	0.012	2.0	NoResponse	0	0.246	628.137	8	66	Target	MissedWin	True
629.125	0.45	Win2	0.7015	n/a	No	2.771	n/a	n/a	NoResponse	0	n/a	n/a	8	66	Blank	MissedWin	True
629.137	0.3	Win2	0.7015	0.0	No	2.771	0.012	2.0	NoResponse	0	0.246	n/a	8	66	ButtonPress	MissedWin	True
629.577	1.45	Win2	0.7015	n/a	No	2.771	n/a	5.0	NoResponse	0	0.011	628.588	8	66	Feedback	MissedWin	True
631.031	2.771	Win2	0.7015	n/a	No	2.771	n/a	n/a	NoResponse	0	0.0	n/a	8	66	ISIslide	MissedWin	True
633.823	0.25	Control	0.7059000000000001	0.0	Yes	2.727	0.023	n/a	GoodResponse	0	n/a	n/a	8	67	Cue	Neutral	True
634.073	3.95	Control	0.7059000000000001	0.0	Yes	2.727	0.0	n/a	GoodResponse	0	n/a	n/a	8	67	Fixation	Neutral	True
638.019	0.24	Control	0.7059000000000001	0.004	Yes	2.727	-0.004	2.0	GoodResponse	0	0.208	637.227	8	67	Target	Neutral	True
638.227	0.3	Control	0.7059000000000001	0.004	Yes	2.727	-0.004	2.0	GoodResponse	0	0.208	n/a	8	67	ButtonPress	Neutral	True
638.269	0.46	Control	0.7059000000000001	n/a	Yes	2.727	n/a	n/a	GoodResponse	0	n/a	n/a	8	67	Blank	Neutral	True
638.721	1.45	Control	0.7059000000000001	n/a	Yes	2.727	n/a	5.0	GoodResponse	0	0.038	637.759	8	67	Feedback	Neutral	True
640.175	2.727	Control	0.7059000000000001	n/a	Yes	2.727	n/a	n/a	GoodResponse	0	0.0	n/a	8	67	ISIslide	Neutral	True
642.917	0.25	Win2	0.6957	0.0	No	3.083	0.017	n/a	LatePress	0	n/a	n/a	8	68	Cue	MissedWin	True
643.167	4.0	Win2	0.6957	0.0	No	3.083	0.0	n/a	LatePress	0	n/a	n/a	8	68	Fixation	MissedWin	True
647.163	0.23	Win2	0.6957	0.004	No	3.083	-0.004	2.0	LatePress	0	0.233	646.396	8	68	Target	MissedWin	True
647.396	0.3	Win2	0.6957	0.004	No	3.083	-0.004	2.0	LatePress	0	0.233	n/a	8	68	ButtonPress	MissedWin	True
647.397	0.47	Win2	0.6957	n/a	No	3.083	n/a	n/a	LatePress	0	n/a	n/a	8	68	Blank	MissedWin	True
647.865	1.45	Win2	0.6957	n/a	No	3.083	n/a	5.0	LatePress	0	0.016	646.881	8	68	Feedback	MissedWin	True
649.319	3.083	Win2	0.6957	n/a	No	3.083	n/a	n/a	LatePress	0	0.0	n/a	8	68	ISIslide	MissedWin	True
652.428	0.25	Win2	0.7	0.001	Yes	3.222	0.028	n/a	GoodResponse	1	n/a	n/a	9	69	Cue	Win	True
652.679	3.95	Win2	0.7	0.0	Yes	3.222	0.001	n/a	GoodResponse	1	n/a	n/a	9	69	Fixation	Win	True
656.624	0.22	Win2	0.7	0.004	Yes	3.222	-0.004	2.0	GoodResponse	1	0.209	655.833	9	69	Target	Win	True
656.833	0.3	Win2	0.7	0.004	Yes	3.222	-0.004	2.0	GoodResponse	1	0.209	n/a	9	69	ButtonPress	Win	True
656.858	0.48	Win2	0.7	n/a	Yes	3.222	n/a	n/a	GoodResponse	1	n/a	n/a	9	69	Blank	Win	True
657.327	1.45	Win2	0.7	n/a	Yes	3.222	n/a	5.0	GoodResponse	1	0.018	656.345	9	69	Feedback	Win	True
658.781	3.222	Win2	0.7	n/a	Yes	3.222	n/a	n/a	GoodResponse	1	0.0	n/a	9	69	ISIslide	Win	True
662.024	0.25	Lose2	0.7042	0.0	Yes	3.026	0.024	n/a	GoodResponse	0	n/a	n/a	9	70	Cue	AvoidedLoss	True
662.275	4.05	Lose2	0.7042	0.0	Yes	3.026	0.001	n/a	GoodResponse	0	n/a	n/a	9	70	Fixation	AvoidedLoss	True
666.32	0.21	Lose2	0.7042	0.004	Yes	3.026	-0.004	2.0	GoodResponse	0	0.198	665.518	9	70	Target	AvoidedLoss	True
666.518	0.3	Lose2	0.7042	0.004	Yes	3.026	-0.004	2.0	GoodResponse	0	0.198	n/a	9	70	ButtonPress	AvoidedLoss	True
666.537	0.49	Lose2	0.7042	n/a	Yes	3.026	n/a	n/a	GoodResponse	0	n/a	n/a	9	70	Blank	AvoidedLoss	True
667.022	1.45	Lose2	0.7042	n/a	Yes	3.026	n/a	5.0	GoodResponse	0	0.029	666.051	9	70	Feedback	AvoidedLoss	True
668.477	3.026	Lose2	0.7042	n/a	Yes	3.026	n/a	n/a	GoodResponse	0	0.0	n/a	9	70	ISIslide	AvoidedLoss	True
671.519	0.25	Win2	0.6944	0.0	No	2.731	0.019	n/a	NoResponse	0	n/a	n/a	9	71	Cue	MissedWin	True
671.77	4.05	Win2	0.6944	0.0	No	2.731	0.001	n/a	NoResponse	0	n/a	n/a	9	71	Fixation	MissedWin	True
675.815	0.2	Win2	0.6944	0.004	No	2.731	-0.004	2.0	NoResponse	0	0.217	675.032	9	71	Target	MissedWin	True
676.016	0.5	Win2	0.6944	n/a	No	2.731	n/a	n/a	NoResponse	0	n/a	n/a	9	71	Blank	MissedWin	True
676.032	0.3	Win2	0.6944	0.004	No	2.731	-0.004	2.0	NoResponse	0	0.217	n/a	9	71	ButtonPress	MissedWin	True
676.517	1.45	Win2	0.6944	n/a	No	2.731	n/a	5.0	NoResponse	0	0.047	675.564	9	71	Feedback	MissedWin	True
677.972	2.731	Win2	0.6944	n/a	No	2.731	n/a	n/a	NoResponse	0	0.0	n/a	9	71	ISIslide	MissedWin	True
680.73	0.25	Win2	0.6849	0.0	No	2.77	0.03	n/a	NoResponse	0	n/a	n/a	9	72	Cue	MissedWin	True
680.981	4.1	Win2	0.6849	0.0	No	2.77	0.001	n/a	NoResponse	0	n/a	n/a	9	72	Fixation	MissedWin	True
685.076	0.19	Win2	0.6849	0.004	No	2.77	-0.004	2.0	NoResponse	0	0.21	684.286	9	72	Target	MissedWin	True
685.277	0.51	Win2	0.6849	n/a	No	2.77	n/a	n/a	NoResponse	0	n/a	n/a	9	72	Blank	MissedWin	True
685.286	0.3	Win2	0.6849	0.004	No	2.77	-0.004	2.0	NoResponse	0	0.21	n/a	9	72	ButtonPress	MissedWin	True
685.779	1.45	Win2	0.6849	n/a	No	2.77	n/a	5.0	NoResponse	0	0.007	684.786	9	72	Feedback	MissedWin	True
687.233	2.77	Win2	0.6849	n/a	No	2.77	n/a	n/a	NoResponse	0	0.0	n/a	9	72	ISIslide	MissedWin	True
690.025	0.25	Win2	0.6757	0.0	No	2.675	0.025	n/a	NoResponse	0	n/a	n/a	9	73	Cue	MissedWin	True
690.275	4.0	Win2	0.6757	0.0	No	2.675	0.0	n/a	NoResponse	0	n/a	n/a	9	73	Fixation	MissedWin	True
694.271	0.18	Win2	0.6757	0.004	No	2.675	-0.004	2.0	NoResponse	0	0.202	693.473	9	73	Target	MissedWin	True
694.455	0.52	Win2	0.6757	n/a	No	2.675	n/a	n/a	NoResponse	0	n/a	n/a	9	73	Blank	MissedWin	True
694.473	0.3	Win2	0.6757	0.004	No	2.675	-0.004	2.0	NoResponse	0	0.202	n/a	9	73	ButtonPress	MissedWin	True
694.973	1.45	Win2	0.6757	n/a	No	2.675	n/a	5.0	NoResponse	0	0.03	694.003	9	73	Feedback	MissedWin	True
696.427	2.675	Win2	0.6757	n/a	No	2.675	n/a	n/a	NoResponse	0	0.0	n/a	9	73	ISIslide	MissedWin	True
699.119	0.25	Lose2	0.6667000000000001	0.0	No	2.631	0.019	n/a	NoResponse	-1	n/a	n/a	8	74	Cue	Loss	True
699.369	4.05	Lose2	0.6667000000000001	0.0	No	2.631	0.0	n/a	NoResponse	-1	n/a	n/a	8	74	Fixation	Loss	True
703.415	0.17	Lose2	0.6667000000000001	0.004	No	2.631	-0.004	2.0	NoResponse	-1	0.191	702.606	8	74	Target	Loss	True
703.599	0.53	Lose2	0.6667000000000001	n/a	No	2.631	n/a	n/a	NoResponse	-1	n/a	n/a	8	74	Blank	Loss	True
703.606	0.3	Lose2	0.6667000000000001	0.004	No	2.631	-0.004	2.0	NoResponse	-1	0.191	n/a	8	74	ButtonPress	Loss	True
704.117	1.45	Lose2	0.6667000000000001	n/a	No	2.631	n/a	5.0	NoResponse	-1	0.008	703.125	8	74	Feedback	Loss	True
705.571	2.631	Lose2	0.6667000000000001	n/a	No	2.631	n/a	n/a	NoResponse	-1	0.0	n/a	8	74	ISIslide	Loss	True
708.229	0.25	Lose2	0.6579	0.0	No	2.921	0.029	n/a	NoResponse	-1	n/a	n/a	7	75	Cue	Loss	True
708.48	3.95	Lose2	0.6579	0.0	No	2.921	0.001	2.0	NoResponse	-1	3.894	711.374	7	75	Fixation	Loss	True
712.374	0.3	Lose2	0.6579	0.0	No	2.921	0.001	2.0	NoResponse	-1	3.894	n/a	7	75	ButtonPress	Loss	True
712.425	0.16	Lose2	0.6579	0.004	No	2.921	-0.004	n/a	NoResponse	-1	n/a	n/a	7	75	Target	Loss	True
712.592	0.54	Lose2	0.6579	n/a	No	2.921	n/a	n/a	NoResponse	-1	n/a	n/a	7	75	Blank	Loss	True
713.127	1.45	Lose2	0.6579	n/a	No	2.921	n/a	5.0	NoResponse	-1	0.023	712.15	7	75	Feedback	Loss	True
714.582	2.921	Lose2	0.6579	n/a	No	2.921	n/a	n/a	NoResponse	-1	0.0	n/a	7	75	ISIslide	Loss	True
717.524	0.25	Control	0.6494	0.0	No	3.226	0.024	n/a	LatePress	0	n/a	n/a	7	76	Cue	Neutral	True
717.775	4.05	Control	0.6494	0.0	No	3.226	0.001	n/a	LatePress	0	n/a	n/a	7	76	Fixation	Neutral	True
721.82	0.16	Control	0.6494	0.004	No	3.226	-0.004	2.0	LatePress	0	0.165	720.985	7	76	Target	Neutral	True
721.985	0.3	Control	0.6494	0.004	No	3.226	-0.004	2.0	LatePress	0	0.165	n/a	7	76	ButtonPress	Neutral	True
721.987	0.54	Control	0.6494	n/a	No	3.226	n/a	n/a	LatePress	0	n/a	n/a	7	76	Blank	Neutral	True
722.522	1.45	Control	0.6494	n/a	No	3.226	n/a	5.0	LatePress	0	0.042	721.564	7	76	Feedback	Neutral	True
723.976	3.226	Control	0.6494	n/a	No	3.226	n/a	n/a	LatePress	0	0.0	n/a	7	76	ISIslide	Neutral	True
727.22	0.25	Lose2	0.6409999999999999	0.0	No	2.58	0.02	n/a	NoResponse	-1	n/a	n/a	6	77	Cue	Loss	True
727.47	3.95	Lose2	0.6409999999999999	0.0	No	2.58	0.0	n/a	NoResponse	-1	n/a	n/a	6	77	Fixation	Loss	True
731.432	0.17	Lose2	0.6409999999999999	0.0	No	2.58	0.012	2.0	NoResponse	-1	0.188	730.62	6	77	Target	Loss	True
731.599	0.53	Lose2	0.6409999999999999	n/a	No	2.58	n/a	n/a	NoResponse	-1	n/a	n/a	6	77	Blank	Loss	True
731.62	0.3	Lose2	0.6409999999999999	0.0	No	2.58	0.012	2.0	NoResponse	-1	0.188	n/a	6	77	ButtonPress	Loss	True
732.118	1.45	Lose2	0.6409999999999999	n/a	No	2.58	n/a	5.0	NoResponse	-1	0.007	731.125	6	77	Feedback	Loss	True
733.572	2.58	Lose2	0.6409999999999999	n/a	No	2.58	n/a	n/a	NoResponse	-1	0.0	n/a	6	77	ISIslide	Loss	True
