onset	duration	cue_type	current_mean_accuracy	duration_error	is_hit	isi_adjusted	onset_delay	response	response_type	reward	rt	rt_time	total_reward	trial_number	trial_phase	trial_type	one_press
11.097	0.25	Control	1.0	0.0	Yes	2.953	-0.003	n/a	GoodResponse	0	n/a	n/a	0	0	Cue	Neutral	True
11.347	3.85	Control	1.0	0.0	Yes	2.953	0.0	n/a	GoodResponse	0	n/a	n/a	0	0	Fixation	Neutral	True
15.196	0.4	Control	1.0	0.001	Yes	2.953	-0.001	3.0	GoodResponse	0	0.196	14.392	0	0	Target	Neutral	True
15.392	0.3	Control	1.0	0.001	Yes	2.953	-0.001	3.0	GoodResponse	0	0.196	n/a	0	0	ButtonPress	Neutral	True
15.595	0.3	Control	1.0	n/a	Yes	2.953	n/a	n/a	GoodResponse	0	n/a	n/a	0	0	Blank	Neutral	True
15.895	1.45	Control	1.0	n/a	Yes	2.953	n/a	5.0	GoodResponse	0	0.034	14.929	0	0	Feedback	Neutral	True
17.345	2.953	Control	1.0	n/a	Yes	2.953	n/a	n/a	GoodResponse	0	0.0	n/a	0	0	ISIslide	Neutral	True
20.327	0.25	Lose2	1.0	0.0	Yes	2.773	0.027	n/a	GoodResponse	0	n/a	n/a	0	1	Cue	AvoidedLoss	True
20.577	4.0	Lose2	1.0	0.0	Yes	2.773	0.0	n/a	GoodResponse	0	n/a	n/a	0	1	Fixation	AvoidedLoss	True
24.576	0.39	Lose2	1.0	0.001	Yes	2.773	-0.001	3.0	GoodResponse	0	0.191	23.767	0	1	Target	AvoidedLoss	True
24.767	0.3	Lose2	1.0	0.001	Yes	2.773	-0.001	3.0	GoodResponse	0	0.191	n/a	0	1	ButtonPress	AvoidedLoss	True
24.975	0.31	Lose2	1.0	n/a	Yes	2.773	n/a	n/a	GoodResponse	0	n/a	n/a	0	1	Blank	AvoidedLoss	True
25.275	1.45	Lose2	1.0	n/a	Yes	2.773	n/a	5.0	GoodResponse	0	0.02	24.295	0	1	Feedback	AvoidedLoss	True
26.725	2.773	Lose2	1.0	n/a	Yes	2.773	n/a	n/a	GoodResponse	0	0.0	n/a	0	1	ISIslide	AvoidedLoss	True
29.524	0.25	Control	1.0	0.0	Yes	2.576	0.024	n/a	GoodResponse	0	n/a	n/a	0	2	Cue	Neutral	True
29.774	4.1	Control	1.0	0.0	Yes	2.576	0.0	n/a	GoodResponse	0	n/a	n/a	0	2	Fixation	Neutral	True
33.872	0.38	Control	1.0	0.002	Yes	2.576	-0.002	3.0	GoodResponse	0	0.234	33.106	0	2	Target	Neutral	True
34.106	0.3	Control	1.0	0.002	Yes	2.576	-0.002	3.0	GoodResponse	0	0.234	n/a	0	2	ButtonPress	Neutral	True
34.256	0.32	Control	1.0	n/a	Yes	2.576	n/a	n/a	GoodResponse	0	n/a	n/a	0	2	Blank	Neutral	True
34.572	1.45	Control	1.0	n/a	Yes	2.576	n/a	5.0	GoodResponse	0	0.04	33.612	0	2	Feedback	Neutral	True
36.022	2.576	Control	1.0	n/a	Yes	2.576	n/a	n/a	GoodResponse	0	0.0	n/a	0	2	ISIslide	Neutral	True
38.621	0.25	Win2	1.0	0.0	Yes	2.829	0.021	n/a	GoodResponse	1	n/a	n/a	1	3	Cue	Win	True
38.871	3.95	Win2	1.0	0.0	Yes	2.829	0.0	n/a	GoodResponse	1	n/a	n/a	1	3	Fixation	Win	True
42.819	0.37	Win2	1.0	0.002	Yes	2.829	-0.002	3.0	GoodResponse	1	0.198	42.017	1	3	Target	Win	True
43.017	0.3	Win2	1.0	0.002	Yes	2.829	-0.002	3.0	GoodResponse	1	0.198	n/a	1	3	ButtonPress	Win	True
43.202	0.33	Win2	1.0	n/a	Yes	2.829	n/a	n/a	GoodResponse	1	n/a	n/a	1	3	Blank	Win	True
43.519	1.45	Win2	1.0	n/a	Yes	2.829	n/a	5.0	GoodResponse	1	0.02	42.539	1	3	Feedback	Win	True
44.968	2.829	Win2	1.0	n/a	Yes	2.829	n/a	n/a	GoodResponse	1	0.0	n/a	1	3	ISIslide	Win	True
47.817	0.25	Win2	1.0	0.0	Yes	3.283	0.017	n/a	GoodResponse	1	n/a	n/a	2	4	Cue	Win	True
48.067	4.0	Win2	1.0	0.0	Yes	3.283	0.0	n/a	GoodResponse	1	n/a	n/a	2	4	Fixation	Win	True
52.066	0.36	Win2	1.0	0.001	Yes	3.283	-0.001	3.0	GoodResponse	1	0.187	51.253	2	4	Target	Win	True
52.253	0.3	Win2	1.0	0.001	Yes	3.283	-0.001	3.0	GoodResponse	1	0.187	n/a	2	4	ButtonPress	Win	True
52.432	0.34	Win2	1.0	n/a	Yes	3.283	n/a	n/a	GoodResponse	1	n/a	n/a	2	4	Blank	Win	True
52.766	1.45	Win2	1.0	n/a	Yes	3.283	n/a	5.0	GoodResponse	1	0.04	51.806	2	4	Feedback	Win	True
54.215	3.283	Win2	1.0	n/a	Yes	3.283	n/a	n/a	GoodResponse	1	0.0	n/a	2	4	ISIslide	Win	True
57.514	0.25	Win2	1.0	0.0	Yes	2.786	0.014	n/a	GoodResponse	1	n/a	n/a	3	5	Cue	Win	True
57.764	4.0	Win2	1.0	0.0	Yes	2.786	0.0	n/a	GoodResponse	1	n/a	n/a	3	5	Fixation	Win	True
61.762	0.35	Win2	1.0	0.002	Yes	2.786	-0.002	3.0	GoodResponse	1	0.251	61.013	3	5	Target	Win	True
62.013	0.3	Win2	1.0	0.002	Yes	2.786	-0.002	3.0	GoodResponse	1	0.251	n/a	3	5	ButtonPress	Win	True
62.112	0.35	Win2	1.0	n/a	Yes	2.786	n/a	n/a	GoodResponse	1	n/a	n/a	3	5	Blank	Win	True
62.462	1.45	Win2	1.0	n/a	Yes	2.786	n/a	5.0	GoodResponse	1	0.005	61.467	3	5	Feedback	Win	True
63.912	2.786	Win2	1.0	n/a	Yes	2.786	n/a	n/a	GoodResponse	1	0.0	n/a	3	5	ISIslide	Win	True
66.727	0.25	Lose2	1.0	0.0	Yes	2.723	0.027	n/a	GoodResponse	0	n/a	n/a	3	6	Cue	AvoidedLoss	True
66.977	3.95	Lose2	1.0	0.0	Yes	2.723	0.0	n/a	GoodResponse	0	n/a	n/a	3	6	Fixation	AvoidedLoss	True
70.926	0.34	Lose2	1.0	0.001	Yes	2.723	-0.001	3.0	GoodResponse	0	0.192	70.118	3	6	Target	AvoidedLoss	True
71.118	0.3	Lose2	1.0	0.001	Yes	2.723	-0.001	3.0	GoodResponse	0	0.192	n/a	3	6	ButtonPress	AvoidedLoss	True
71.276	0.36	Lose2	1.0	n/a	Yes	2.723	n/a	n/a	GoodResponse	0	n/a	n/a	3	6	Blank	AvoidedLoss	True
71.626	1.45	Lose2	1.0	n/a	Yes	2.723	n/a	5.0	GoodResponse	0	0.01	70.636	3	6	Feedback	AvoidedLoss	True
73.075	2.723	Lose2	1.0	n/a	Yes	2.723	n/a	n/a	GoodResponse	0	0.0	n/a	3	6	ISIslide	AvoidedLoss	True
75.824	0.25	Lose2	1.0	0.0	Yes	4.026	0.024	n/a	GoodResponse	0	n/a	n/a	3	7	Cue	AvoidedLoss	True
76.074	4.05	Lose2	1.0	0.0	Yes	4.026	0.0	n/a	GoodResponse	0	n/a	n/a	3	7	Fixation	AvoidedLoss	True
80.123	0.33	Lose2	1.0	0.001	Yes	4.026	-0.001	3.0	GoodResponse	0	0.217	79.34	3	7	Target	AvoidedLoss	True
80.34	0.3	Lose2	1.0	0.001	Yes	4.026	-0.001	3.0	GoodResponse	0	0.217	n/a	3	7	ButtonPress	AvoidedLoss	True
80.456	0.37	Lose2	1.0	n/a	Yes	4.026	n/a	n/a	GoodResponse	0	n/a	n/a	3	7	Blank	AvoidedLoss	True
80.822	1.45	Lose2	1.0	n/a	Yes	4.026	n/a	5.0	GoodResponse	0	0.033	79.855	3	7	Feedback	AvoidedLoss	True
82.272	4.026	Lose2	1.0	n/a	Yes	4.026	n/a	n/a	GoodResponse	0	0.0	n/a	3	7	ISIslide	AvoidedLoss	True
86.321	0.25	Lose2	1.0	0.0	Yes	3.029	0.021	n/a	GoodResponse	0	n/a	n/a	3	8	Cue	AvoidedLoss	True
86.57	3.95	Lose2	1.0	0.001	Yes	3.029	-0.001	n/a	GoodResponse	0	n/a	n/a	3	8	Fixation	AvoidedLoss	True
90.519	0.32	Lose2	1.0	0.002	Yes	3.029	-0.002	3.0	GoodResponse	0	0.194	89.713	3	8	Target	AvoidedLoss	True
90.713	0.3	Lose2	1.0	0.002	Yes	3.029	-0.002	3.0	GoodResponse	0	0.194	n/a	3	8	ButtonPress	AvoidedLoss	True
90.852	0.38	Lose2	1.0	n/a	Yes	3.029	n/a	n/a	GoodResponse	0	n/a	n/a	3	8	Blank	AvoidedLoss	True
91.219	1.45	Lose2	1.0	n/a	Yes	3.029	n/a	5.0	GoodResponse	0	0.026	90.245	3	8	Feedback	AvoidedLoss	True
92.668	3.029	Lose2	1.0	n/a	Yes	3.029	n/a	n/a	GoodResponse	0	0.0	n/a	3	8	ISIslide	AvoidedLoss	True
95.717	0.25	Lose2	1.0	0.0	Yes	3.133	0.017	n/a	GoodResponse	0	n/a	n/a	3	9	Cue	AvoidedLoss	True
95.967	3.95	Lose2	1.0	0.0	Yes	3.133	0.0	n/a	GoodResponse	0	n/a	n/a	3	9	Fixation	AvoidedLoss	True
99.916	0.31	Lose2	1.0	0.001	Yes	3.133	-0.001	3.0	GoodResponse	0	0.198	99.114	3	9	Target	AvoidedLoss	True
100.114	0.3	Lose2	1.0	0.001	Yes	3.133	-0.001	3.0	GoodResponse	0	0.198	n/a	3	9	ButtonPress	AvoidedLoss	True
100.232	0.39	Lose2	1.0	n/a	Yes	3.133	n/a	n/a	GoodResponse	0	n/a	n/a	3	9	Blank	AvoidedLoss	True
100.615	1.45	Lose2	1.0	n/a	Yes	3.133	n/a	5.0	GoodResponse	0	0.045	99.66	3	9	Feedback	AvoidedLoss	True
102.065	3.133	Lose2	1.0	n/a	Yes	3.133	n/a	n/a	GoodResponse	0	0.0	n/a	3	9	ISIslide	AvoidedLoss	True
105.214	0.25	Control	1.0	0.0	Yes	3.286	0.014	n/a	GoodResponse	0	n/a	n/a	3	10	Cue	Neutral	False
105.464	4.0	Control	1.0	0.0	Yes	3.286	0.0	3.0	GoodResponse	0	0.018	104.482	3	10	Fixation	Neutral	False
105.482	0.3	Control	1.0	0.0	Yes	3.286	0.0	3.0	GoodResponse	0	0.018	n/a	3	10	ButtonPress	Neutral	False
109.462	0.3	Control	1.0	0.002	Yes	3.286	-0.002	3.0	GoodResponse	0	0.233	108.695	3	10	Target	Neutral	False
109.695	0.3	Control	1.0	0.002	Yes	3.286	-0.002	3.0	GoodResponse	0	0.233	n/a	3	10	ButtonPress	Neutral	False
109.762	0.4	Control	1.0	n/a	Yes	3.286	n/a	n/a	GoodResponse	0	n/a	n/a	3	10	Blank	Neutral	False
110.162	1.45	Control	1.0	n/a	Yes	3.286	n/a	5.0	GoodResponse	0	0.01	109.172	3	10	Feedback	Neutral	False
111.612	3.286	Control	1.0	n/a	Yes	3.286	n/a	n/a	GoodResponse	0	0.0	n/a	3	10	ISIslide	Neutral	False
114.927	0.25	Lose2	1.0	0.0	Yes	2.723	0.027	n/a	GoodResponse	0	n/a	n/a	3	11	Cue	AvoidedLoss	True
115.177	4.05	Lose2	1.0	0.0	Yes	2.723	0.0	n/a	GoodResponse	0	n/a	n/a	3	11	Fixation	AvoidedLoss	True
119.226	0.29	Lose2	1.0	0.001	Yes	2.723	-0.001	3.0	GoodResponse	0	0.208	118.434	3	11	Target	AvoidedLoss	True
119.434	0.3	Lose2	1.0	0.001	Yes	2.723	-0.001	3.0	GoodResponse	0	0.208	n/a	3	11	ButtonPress	AvoidedLoss	True
119.525	0.41	Lose2	1.0	n/a	Yes	2.723	n/a	n/a	GoodResponse	0	n/a	n/a	3	11	Blank	AvoidedLoss	True
119.925	1.45	Lose2	1.0	n/a	Yes	2.723	n/a	5.0	GoodResponse	0	0.004	118.929	3	11	Feedback	AvoidedLoss	True
121.375	2.723	Lose2	1.0	n/a	Yes	2.723	n/a	n/a	GoodResponse	0	0.0	n/a	3	11	ISIslide	AvoidedLoss	True
124.124	0.25	Control	1.0	0.0	Yes	2.976	0.024	n/a	GoodResponse	0	n/a	n/a	3	12	Cue	Neutral	True
124.374	3.9	Control	1.0	0.0	Yes	2.976	0.0	n/a	GoodResponse	0	n/a	n/a	3	12	Fixation	Neutral	True
128.272	0.28	Control	1.0	0.002	Yes	2.976	-0.002	3.0	GoodResponse	0	0.197	127.469	3	12	Target	Neutral	True
128.469	0.3	Control	1.0	0.002	Yes	2.976	-0.002	3.0	GoodResponse	0	0.197	n/a	3	12	ButtonPress	Neutral	True
128.556	0.42	Control	1.0	n/a	Yes	2.976	n/a	n/a	GoodResponse	0	n/a	n/a	3	12	Blank	Neutral	True
128.972	1.45	Control	1.0	n/a	Yes	2.976	n/a	5.0	GoodResponse	0	0.029	128.001	3	12	Feedback	Neutral	True
130.422	2.976	Control	1.0	n/a	Yes	2.976	n/a	n/a	GoodResponse	0	0.0	n/a	3	12	ISIslide	Neutral	True
133.421	0.25	Control	1.0	0.0	Yes	2.779	0.021	n/a	GoodResponse	0	n/a	n/a	3	13	Cue	Neutral	True
133.67	4.0	Control	1.0	0.001	Yes	2.779	-0.001	n/a	GoodResponse	0	n/a	n/a	3	13	Fixation	Neutral	True
137.669	0.27	Control	1.0	0.002	Yes	2.779	-0.002	3.0	GoodResponse	0	0.217	136.886	3	13	Target	Neutral	True
137.886	0.3	Control	1.0	0.002	Yes	2.779	-0.002	3.0	GoodResponse	0	0.217	n/a	3	13	ButtonPress	Neutral	True
137.952	0.43	Control	1.0	n/a	Yes	2.779	n/a	n/a	GoodResponse	0	n/a	n/a	3	13	Blank	Neutral	True
138.369	1.45	Control	1.0	n/a	Yes	2.779	n/a	5.0	GoodResponse	0	0.046	137.415	3	13	Feedback	Neutral	True
139.818	2.779	Control	1.0	n/a	Yes	2.779	n/a	n/a	GoodResponse	0	0.0	n/a	3	13	ISIslide	Neutral	True
142.617	0.25	Win2	1.0	0.0	Yes	2.683	0.017	n/a	GoodResponse	1	n/a	n/a	4	14	Cue	Win	True
142.867	4.1	Win2	1.0	0.0	Yes	2.683	0.0	n/a	GoodResponse	1	n/a	n/a	4	14	Fixation	Win	True
146.966	0.26	Win2	1.0	0.001	Yes	2.683	-0.001	3.0	GoodResponse	1	0.199	146.165	4	14	Target	Win	True
147.165	0.3	Win2	1.0	0.001	Yes	2.683	-0.001	3.0	GoodResponse	1	0.199	n/a	4	14	ButtonPress	Win	True
147.232	0.44	Win2	1.0	n/a	Yes	2.683	n/a	n/a	GoodResponse	1	n/a	n/a	4	14	Blank	Win	True
147.666	1.45	Win2	1.0	n/a	Yes	2.683	n/a	5.0	GoodResponse	1	0.018	146.684	4	14	Feedback	Win	True
149.115	2.683	Win2	1.0	n/a	Yes	2.683	n/a	n/a	GoodResponse	1	0.0	n/a	4	14	ISIslide	Win	True
151.814	0.25	Control	0.9375	0.0	No	2.986	0.014	n/a	NoResponse	0	n/a	n/a	4	15	Cue	Neutral	False
152.064	4.0	Control	0.9375	0.0	No	2.986	0.0	n/a	NoResponse	0	n/a	n/a	4	15	Fixation	Neutral	False
156.063	0.25	Control	0.9375	0.001	No	2.986	-0.001	n/a	NoResponse	0	n/a	n/a	4	15	Target	Neutral	False
156.313	0.45	Control	0.9375	n/a	No	2.986	n/a	n/a	NoResponse	0	n/a	n/a	4	15	Blank	Neutral	False
156.762	1.45	Control	0.9375	n/a	No	2.986	n/a	5.0	NoResponse	0	0.044	155.806	4	15	Feedback	Neutral	False
158.212	2.986	Control	0.9375	n/a	No	2.986	n/a	n/a	NoResponse	0	0.0	n/a	4	15	ISIslide	Neutral	False
161.227	0.25	Win2	0.9412	0.001	Yes	2.873	0.027	n/a	GoodResponse	1	n/a	n/a	5	16	Cue	Win	True
161.477	4.0	Win2	0.9412	0.0	Yes	2.873	0.0	n/a	GoodResponse	1	n/a	n/a	5	16	Fixation	Win	True
165.476	0.24	Win2	0.9412	0.001	Yes	2.873	-0.001	3.0	GoodResponse	1	0.21	164.686	5	16	Target	Win	True
165.686	0.3	Win2	0.9412	0.001	Yes	2.873	-0.001	3.0	GoodResponse	1	0.21	n/a	5	16	ButtonPress	Win	True
165.726	0.46	Win2	0.9412	n/a	Yes	2.873	n/a	n/a	GoodResponse	1	n/a	n/a	5	16	Blank	Win	True
166.176	1.45	Win2	0.9412	n/a	Yes	2.873	n/a	5.0	GoodResponse	1	0.044	165.22	5	16	Feedback	Win	True
167.625	2.873	Win2	0.9412	n/a	Yes	2.873	n/a	n/a	GoodResponse	1	0.0	n/a	5	16	ISIslide	Win	True
170.524	0.25	Lose2	0.9444	0.0	Yes	2.726	0.024	n/a	GoodResponse	0	n/a	n/a	5	17	Cue	AvoidedLoss	False
170.774	3.95	Lose2	0.9444	0.0	Yes	2.726	0.0	3.0	GoodResponse	0	0.127	169.901	5	17	Fixation	AvoidedLoss	False
170.901	0.3	Lose2	0.9444	0.0	Yes	2.726	0.0	3.0	GoodResponse	0	0.127	n/a	5	17	ButtonPress	AvoidedLoss	False
174.723	0.23	Lose2	0.9444	0.001	Yes	2.726	-0.001	3.0	GoodResponse	0	0.211	173.934	5	17	Target	AvoidedLoss	False
174.934	0.3	Lose2	0.9444	0.001	Yes	2.726	-0.001	3.0	GoodResponse	0	0.211	n/a	5	17	ButtonPress	AvoidedLoss	False
174.956	0.47	Lose2	0.9444	n/a	Yes	2.726	n/a	n/a	GoodResponse	0	n/a	n/a	5	17	Blank	AvoidedLoss	False
175.422	1.45	Lose2	0.9444	n/a	Yes	2.726	n/a	5.0	GoodResponse	0	0.018	174.44	5	17	Feedback	AvoidedLoss	False
176.872	2.726	Lose2	0.9444	n/a	Yes	2.726	n/a	n/a	GoodResponse	0	0.0	n/a	5	17	ISIslide	AvoidedLoss	False
179.621	0.25	Lose2	0.9473999999999999	0.0	Yes	2.729	0.021	n/a	GoodResponse	0	n/a	n/a	5	18	Cue	AvoidedLoss	True
179.871	4.05	Lose2	0.9473999999999999	0.0	Yes	2.729	0.0	n/a	GoodResponse	0	n/a	n/a	5	18	Fixation	AvoidedLoss	True
183.919	0.22	Lose2	0.9473999999999999	0.002	Yes	2.729	-0.002	3.0	GoodResponse	0	0.204	183.123	5	18	Target	AvoidedLoss	True
184.123	0.3	Lose2	0.9473999999999999	0.002	Yes	2.729	-0.002	3.0	GoodResponse	0	0.204	n/a	5	18	ButtonPress	AvoidedLoss	True
184.153	0.48	Lose2	0.9473999999999999	n/a	Yes	2.729	n/a	n/a	GoodResponse	0	n/a	n/a	5	18	Blank	AvoidedLoss	True
184.619	1.45	Lose2	0.9473999999999999	n/a	Yes	2.729	n/a	5.0	GoodResponse	0	0.04	183.659	5	18	Feedback	AvoidedLoss	True
186.069	2.729	Lose2	0.9473999999999999	n/a	Yes	2.729	n/a	n/a	GoodResponse	0	0.0	n/a	5	18	ISIslide	AvoidedLoss	True
188.818	0.25	Control	0.9	0.0	No	2.932	0.018	n/a	NoResponse	0	n/a	n/a	5	19	Cue	Neutral	True
189.068	3.95	Control	0.9	0.0	No	2.932	0.0	n/a	NoResponse	0	n/a	n/a	5	19	Fixation	Neutral	True
193.016	0.21	Control	0.9	0.002	No	2.932	-0.002	3.0	NoResponse	0	0.232	192.248	5	19	Target	Neutral	True
193.233	0.49	Control	0.9	n/a	No	2.932	n/a	n/a	NoResponse	0	n/a	n/a	5	19	Blank	Neutral	True
193.248	0.3	Control	0.9	0.002	No	2.932	-0.002	3.0	NoResponse	0	0.232	n/a	5	19	ButtonPress	Neutral	True
193.716	1.45	Control	0.9	n/a	No	2.932	n/a	5.0	NoResponse	0	0.016	192.732	5	19	Feedback	Neutral	True
195.166	2.932	Control	0.9	n/a	No	2.932	n/a	n/a	NoResponse	0	0.0	n/a	5	19	ISIslide	Neutral	True
198.114	0.25	Control	0.9048	0.001	Yes	2.636	0.014	n/a	GoodResponse	0	n/a	n/a	5	20	Cue	Neutral	True
198.364	4.05	Control	0.9048	0.0	Yes	2.636	0.0	n/a	GoodResponse	0	n/a	n/a	5	20	Fixation	Neutral	True
202.413	0.2	Control	0.9048	0.001	Yes	2.636	-0.001	3.0	GoodResponse	0	0.192	201.605	5	20	Target	Neutral	True
202.605	0.3	Control	0.9048	0.001	Yes	2.636	-0.001	3.0	GoodResponse	0	0.192	n/a	5	20	ButtonPress	Neutral	True
202.613	0.5	Control	0.9048	n/a	Yes	2.636	n/a	n/a	GoodResponse	0	n/a	n/a	5	20	Blank	Neutral	True
203.113	1.45	Control	0.9048	n/a	Yes	2.636	n/a	5.0	GoodResponse	0	0.034	202.147	5	20	Feedback	Neutral	True
204.562	2.636	Control	0.9048	n/a	Yes	2.636	n/a	n/a	GoodResponse	0	0.0	n/a	5	20	ISIslide	Neutral	True
207.211	0.25	Control	0.8636	0.0	No	2.789	0.011	n/a	LatePress	0	n/a	n/a	5	21	Cue	Neutral	True
207.461	4.1	Control	0.8636	0.0	No	2.789	0.0	n/a	LatePress	0	n/a	n/a	5	21	Fixation	Neutral	True
211.56	0.19	Control	0.8636	0.001	No	2.789	-0.001	3.0	LatePress	0	0.193	210.753	5	21	Target	Neutral	True
211.753	0.3	Control	0.8636	0.001	No	2.789	-0.001	3.0	LatePress	0	0.193	n/a	5	21	ButtonPress	Neutral	True
211.76	0.51	Control	0.8636	n/a	No	2.789	n/a	n/a	LatePress	0	n/a	n/a	5	21	Blank	Neutral	True
212.259	1.45	Control	0.8636	n/a	No	2.789	n/a	5.0	LatePress	0	0.01	211.269	5	21	Feedback	Neutral	True
213.709	2.789	Control	0.8636	n/a	No	2.789	n/a	n/a	LatePress	0	0.0	n/a	5	21	ISIslide	Neutral	True
216.525	0.25	Control	0.8261	0.0	No	2.775	0.025	n/a	NoResponse	0	n/a	n/a	5	22	Cue	Neutral	True
216.775	4.0	Control	0.8261	0.0	No	2.775	0.0	n/a	NoResponse	0	n/a	n/a	5	22	Fixation	Neutral	True
220.773	0.18	Control	0.8261	0.002	No	2.775	-0.002	3.0	NoResponse	0	0.219	219.992	5	22	Target	Neutral	True
220.956	0.52	Control	0.8261	n/a	No	2.775	n/a	n/a	NoResponse	0	n/a	n/a	5	22	Blank	Neutral	True
220.992	0.3	Control	0.8261	0.002	No	2.775	-0.002	3.0	NoResponse	0	0.219	n/a	5	22	ButtonPress	Neutral	True
221.473	1.45	Control	0.8261	n/a	No	2.775	n/a	5.0	NoResponse	0	0.014	220.487	5	22	Feedback	Neutral	True
222.922	2.775	Control	0.8261	n/a	No	2.775	n/a	n/a	NoResponse	0	0.0	n/a	5	22	ISIslide	Neutral	True
225.721	0.25	Control	0.7917000000000001	0.0	No	2.779	0.021	n/a	NoResponse	0	n/a	n/a	5	23	Cue	Neutral	True
225.971	3.9	Control	0.7917000000000001	0.0	No	2.779	0.0	n/a	NoResponse	0	n/a	n/a	5	23	Fixation	Neutral	True
229.87	0.17	Control	0.7917000000000001	0.001	No	2.779	-0.001	3.0	NoResponse	0	0.204	229.074	5	23	Target	Neutral	True
230.037	0.53	Control	0.7917000000000001	n/a	No	2.779	n/a	n/a	NoResponse	0	n/a	n/a	5	23	Blank	Neutral	True
230.074	0.3	Control	0.7917000000000001	0.001	No	2.779	-0.001	3.0	NoResponse	0	0.204	n/a	5	23	ButtonPress	Neutral	True
230.57	1.45	Control	0.7917000000000001	n/a	No	2.779	n/a	5.0	NoResponse	0	0.04	229.61	5	23	Feedback	Neutral	True
232.019	2.779	Control	0.7917000000000001	n/a	No	2.779	n/a	n/a	NoResponse	0	0.0	n/a	5	23	ISIslide	Neutral	True
234.818	0.25	Win2	0.76	0.0	No	3.132	0.018	n/a	NoResponse	0	n/a	n/a	5	24	Cue	MissedWin	True
235.068	3.95	Win2	0.76	0.0	No	3.132	0.0	n/a	NoResponse	0	n/a	n/a	5	24	Fixation	MissedWin	True
239.017	0.16	Win2	0.76	0.001	No	3.132	-0.001	3.0	NoResponse	0	0.18	238.197	5	24	Target	MissedWin	True
239.183	0.54	Win2	0.76	n/a	No	3.132	n/a	n/a	NoResponse	0	n/a	n/a	5	24	Blank	MissedWin	True
239.197	0.3	Win2	0.76	0.001	No	3.132	-0.001	3.0	NoResponse	0	0.18	n/a	5	24	ButtonPress	MissedWin	True
239.716	1.45	Win2	0.76	n/a	No	3.132	n/a	5.0	NoResponse	0	0.016	238.732	5	24	Feedback	MissedWin	True
241.166	3.132	Win2	0.76	n/a	No	3.132	n/a	n/a	NoResponse	0	0.0	n/a	5	24	ISIslide	MissedWin	True
244.315	0.25	Win2	0.7308	0.0	No	3.085	0.015	n/a	NoResponse	0	n/a	n/a	5	25	Cue	MissedWin	True
244.565	4.0	Win2	0.7308	0.0	No	3.085	0.0	n/a	NoResponse	0	n/a	n/a	5	25	Fixation	MissedWin	True
248.563	0.15	Win2	0.7308	0.002	No	3.085	-0.002	3.0	NoResponse	0	0.185	247.748	5	25	Target	MissedWin	True
248.713	0.55	Win2	0.7308	n/a	No	3.085	n/a	n/a	NoResponse	0	n/a	n/a	5	25	Blank	MissedWin	True
248.748	0.3	Win2	0.7308	0.002	No	3.085	-0.002	3.0	NoResponse	0	0.185	n/a	5	25	ButtonPress	MissedWin	True
249.263	1.45	Win2	0.7308	n/a	No	3.085	n/a	5.0	NoResponse	0	0.03	248.293	5	25	Feedback	MissedWin	True
250.713	3.085	Win2	0.7308	n/a	No	3.085	n/a	n/a	NoResponse	0	0.0	n/a	5	25	ISIslide	MissedWin	True
253.828	0.25	Win2	0.7037	0.0	No	2.922	0.028	n/a	NoResponse	0	n/a	n/a	5	26	Cue	MissedWin	True
254.078	3.95	Win2	0.7037	0.0	No	2.922	0.0	n/a	NoResponse	0	n/a	n/a	5	26	Fixation	MissedWin	True
258.027	0.15	Win2	0.7037	0.001	No	2.922	-0.001	3.0	NoResponse	0	0.182	257.209	5	26	Target	MissedWin	True
258.177	0.55	Win2	0.7037	n/a	No	2.922	n/a	n/a	NoResponse	0	n/a	n/a	5	26	Blank	MissedWin	True
258.209	0.3	Win2	0.7037	0.001	No	2.922	-0.001	3.0	NoResponse	0	0.182	n/a	5	26	ButtonPress	MissedWin	True
258.726	1.45	Win2	0.7037	n/a	No	2.922	n/a	5.0	NoResponse	0	0.03	257.756	5	26	Feedback	MissedWin	True
260.176	2.922	Win2	0.7037	n/a	No	2.922	n/a	n/a	NoResponse	0	0.0	n/a	5	26	ISIslide	MissedWin	True
263.125	0.25	Lose2	0.6786	0.0	No	2.825	0.025	n/a	NoResponse	-1	n/a	n/a	4	27	Cue	Loss	True
263.375	4.05	Lose2	0.6786	0.0	No	2.825	0.0	n/a	NoResponse	-1	n/a	n/a	4	27	Fixation	Loss	True
267.423	0.15	Lose2	0.6786	0.002	No	2.825	-0.002	3.0	NoResponse	-1	0.172	266.595	4	27	Target	Loss	True
267.573	0.55	Lose2	0.6786	n/a	No	2.825	n/a	n/a	NoResponse	-1	n/a	n/a	4	27	Blank	Loss	True
267.595	0.3	Lose2	0.6786	0.002	No	2.825	-0.002	3.0	NoResponse	-1	0.172	n/a	4	27	ButtonPress	Loss	True
268.123	1.45	Lose2	0.6786	n/a	No	2.825	n/a	5.0	NoResponse	-1	0.047	267.17	4	27	Feedback	Loss	True
269.573	2.825	Lose2	0.6786	n/a	No	2.825	n/a	n/a	NoResponse	-1	0.0	n/a	4	27	ISIslide	Loss	True
272.422	0.25	Control	0.6552	0.0	No	2.828	0.022	n/a	NoResponse	0	n/a	n/a	4	28	Cue	Neutral	True
272.672	4.05	Control	0.6552	0.0	No	2.828	0.0	n/a	NoResponse	0	n/a	n/a	4	28	Fixation	Neutral	True
276.72	0.15	Control	0.6552	0.002	No	2.828	-0.002	3.0	NoResponse	0	0.199	275.919	4	28	Target	Neutral	True
276.87	0.55	Control	0.6552	n/a	No	2.828	n/a	n/a	NoResponse	0	n/a	n/a	4	28	Blank	Neutral	True
276.919	0.3	Control	0.6552	0.002	No	2.828	-0.002	3.0	NoResponse	0	0.199	n/a	4	28	ButtonPress	Neutral	True
277.42	1.45	Control	0.6552	n/a	No	2.828	n/a	5.0	NoResponse	0	0.018	276.438	4	28	Feedback	Neutral	True
278.869	2.828	Control	0.6552	n/a	No	2.828	n/a	n/a	NoResponse	0	0.0	n/a	4	28	ISIslide	Neutral	True
281.718	0.25	Lose2	0.6333	0.0	No	2.832	0.018	n/a	NoResponse	-1	n/a	n/a	3	29	Cue	Loss	True
281.968	3.95	Lose2	0.6333	0.0	No	2.832	0.0	n/a	NoResponse	-1	n/a	n/a	3	29	Fixation	Loss	True
285.917	0.15	Lose2	0.6333	0.001	No	2.832	-0.001	3.0	NoResponse	-1	0.197	285.114	3	29	Target	Loss	True
286.067	0.55	Lose2	0.6333	n/a	No	2.832	n/a	n/a	NoResponse	-1	n/a	n/a	3	29	Blank	Loss	True
286.114	0.3	Lose2	0.6333	0.001	No	2.832	-0.001	3.0	NoResponse	-1	0.197	n/a	3	29	ButtonPress	Loss	True
286.617	1.45	Lose2	0.6333	n/a	No	2.832	n/a	5.0	NoResponse	-1	0.041	285.658	3	29	Feedback	Loss	True
288.066	2.832	Lose2	0.6333	n/a	No	2.832	n/a	n/a	NoResponse	-1	0.0	n/a	3	29	ISIslide	Loss	True
290.915	0.25	Win2	0.6129	0.0	No	2.785	0.015	n/a	NoResponse	0	n/a	n/a	3	30	Cue	MissedWin	True
291.165	3.9	Win2	0.6129	0.0	No	2.785	0.0	n/a	NoResponse	0	n/a	n/a	3	30	Fixation	MissedWin	True
295.064	0.16	Win2	0.6129	0.001	No	2.785	-0.001	3.0	NoResponse	0	0.201	294.265	3	30	Target	MissedWin	True
295.23	0.54	Win2	0.6129	n/a	No	2.785	n/a	n/a	NoResponse	0	n/a	n/a	3	30	Blank	MissedWin	True
295.265	0.3	Win2	0.6129	0.001	No	2.785	-0.001	3.0	NoResponse	0	0.201	n/a	3	30	ButtonPress	MissedWin	True
295.763	1.45	Win2	0.6129	n/a	No	2.785	n/a	5.0	NoResponse	0	0.017	294.78	3	30	Feedback	MissedWin	True
297.213	2.785	Win2	0.6129	n/a	No	2.785	n/a	n/a	NoResponse	0	0.0	n/a	3	30	ISIslide	MissedWin	True
300.029	0.25	Lose2	0.625	0.0	Yes	2.821	0.029	n/a	GoodResponse	0	n/a	n/a	3	31	Cue	AvoidedLoss	True
300.278	4.05	Lose2	0.625	0.001	Yes	2.821	-0.001	n/a	GoodResponse	0	n/a	n/a	3	31	Fixation	AvoidedLoss	True
304.327	0.17	Lose2	0.625	0.002	Yes	2.821	-0.002	3.0	GoodResponse	0	0.16	303.487	3	31	Target	AvoidedLoss	True
304.487	0.3	Lose2	0.625	0.002	Yes	2.821	-0.002	3.0	GoodResponse	0	0.16	n/a	3	31	ButtonPress	AvoidedLoss	True
304.51	0.53	Lose2	0.625	n/a	Yes	2.821	n/a	n/a	GoodResponse	0	n/a	n/a	3	31	Blank	AvoidedLoss	True
305.027	1.45	Lose2	0.625	n/a	Yes	2.821	n/a	5.0	GoodResponse	0	0.022	304.049	3	31	Feedback	AvoidedLoss	True
306.476	2.821	Lose2	0.625	n/a	Yes	2.821	n/a	n/a	GoodResponse	0	0.0	n/a	3	31	ISIslide	AvoidedLoss	True
309.325	0.25	Lose2	0.6061	0.0	No	2.625	0.025	n/a	LatePress	-1	n/a	n/a	2	32	Cue	Loss	True
309.575	4.15	Lose2	0.6061	0.0	No	2.625	0.0	n/a	LatePress	-1	n/a	n/a	2	32	Fixation	Loss	True
313.724	0.18	Lose2	0.6061	0.001	No	2.625	-0.001	3.0	LatePress	-1	0.183	312.907	2	32	Target	Loss	True
313.907	0.52	Lose2	0.6061	n/a	No	2.625	n/a	n/a	LatePress	-1	n/a	n/a	2	32	Blank	Loss	True
313.907	0.3	Lose2	0.6061	0.001	No	2.625	-0.001	3.0	LatePress	-1	0.183	n/a	2	32	ButtonPress	Loss	True
314.423	1.45	Lose2	0.6061	n/a	No	2.625	n/a	5.0	LatePress	-1	0.039	313.462	2	32	Feedback	Loss	True
315.873	2.625	Lose2	0.6061	n/a	No	2.625	n/a	n/a	LatePress	-1	0.0	n/a	2	32	ISIslide	Loss	True
318.522	0.25	Win2	0.6175999999999999	0.0	Yes	2.678	0.022	n/a	GoodResponse	1	n/a	n/a	3	33	Cue	Win	True
318.772	4.0	Win2	0.6175999999999999	0.0	Yes	2.678	0.0	n/a	GoodResponse	1	n/a	n/a	3	33	Fixation	Win	True
322.771	0.19	Win2	0.6175999999999999	0.001	Yes	2.678	-0.001	3.0	GoodResponse	1	0.188	321.959	3	33	Target	Win	True
322.959	0.3	Win2	0.6175999999999999	0.001	Yes	2.678	-0.001	3.0	GoodResponse	1	0.188	n/a	3	33	ButtonPress	Win	True
322.97	0.51	Win2	0.6175999999999999	n/a	Yes	2.678	n/a	n/a	GoodResponse	1	n/a	n/a	3	33	Blank	Win	True
323.47	1.45	Win2	0.6175999999999999	n/a	Yes	2.678	n/a	5.0	GoodResponse	1	0.017	322.487	3	33	Feedback	Win	True
324.92	2.678	Win2	0.6175999999999999	n/a	Yes	2.678	n/a	n/a	GoodResponse	1	0.0	n/a	3	33	ISIslide	Win	True
327.619	0.25	Lose2	0.6286	0.0	Yes	2.631	0.019	n/a	GoodResponse	0	n/a	n/a	3	34	Cue	AvoidedLoss	True
327.869	4.05	Lose2	0.6286	0.0	Yes	2.631	0.0	n/a	GoodResponse	0	n/a	n/a	3	34	Fixation	AvoidedLoss	True
331.917	0.2	Lose2	0.6286	0.002	Yes	2.631	-0.002	3.0	GoodResponse	0	0.187	331.104	3	34	Target	AvoidedLoss	True
332.104	0.3	Lose2	0.6286	0.002	Yes	2.631	-0.002	3.0	GoodResponse	0	0.187	n/a	3	34	ButtonPress	AvoidedLoss	True
332.117	0.5	Lose2	0.6286	n/a	Yes	2.631	n/a	n/a	GoodResponse	0	n/a	n/a	3	34	Blank	AvoidedLoss	True
332.617	1.45	Lose2	0.6286	n/a	Yes	2.631	n/a	5.0	GoodResponse	0	0.041	331.658	3	34	Feedback	AvoidedLoss	True
334.067	2.631	Lose2	0.6286	n/a	Yes	2.631	n/a	n/a	GoodResponse	0	0.0	n/a	3	34	ISIslide	AvoidedLoss	True
336.716	0.25	Lose2	0.6389	0.0	Yes	2.684	0.016	n/a	GoodResponse	0	n/a	n/a	3	35	Cue	AvoidedLoss	True
336.966	4.0	Lose2	0.6389	0.0	Yes	2.684	0.0	n/a	GoodResponse	0	n/a	n/a	3	35	Fixation	AvoidedLoss	True
340.964	0.21	Lose2	0.6389	0.002	Yes	2.684	-0.002	3.0	GoodResponse	0	0.152	340.116	3	35	Target	AvoidedLoss	True
341.116	0.3	Lose2	0.6389	0.002	Yes	2.684	-0.002	3.0	GoodResponse	0	0.152	n/a	3	35	ButtonPress	AvoidedLoss	True
341.181	0.49	Lose2	0.6389	n/a	Yes	2.684	n/a	n/a	GoodResponse	0	n/a	n/a	3	35	Blank	AvoidedLoss	True
341.664	1.45	Lose2	0.6389	n/a	Yes	2.684	n/a	5.0	GoodResponse	0	0.018	340.682	3	35	Feedback	AvoidedLoss	True
343.113	2.684	Lose2	0.6389	n/a	Yes	2.684	n/a	n/a	GoodResponse	0	0.0	n/a	3	35	ISIslide	AvoidedLoss	True
345.829	0.25	Control	0.6215999999999999	0.0	No	2.671	0.029	n/a	NoResponse	0	n/a	n/a	3	36	Cue	Neutral	True
346.079	4.0	Control	0.6215999999999999	0.0	No	2.671	0.0	n/a	NoResponse	0	n/a	n/a	3	36	Fixation	Neutral	True
350.078	0.22	Control	0.6215999999999999	0.001	No	2.671	-0.001	3.0	NoResponse	0	0.343	349.421	3	36	Target	Neutral	True
350.311	0.48	Control	0.6215999999999999	n/a	No	2.671	n/a	n/a	NoResponse	0	n/a	n/a	3	36	Blank	Neutral	True
350.421	0.3	Control	0.6215999999999999	0.001	No	2.671	-0.001	3.0	NoResponse	0	0.343	n/a	3	36	ButtonPress	Neutral	True
350.777	1.45	Control	0.6215999999999999	n/a	No	2.671	n/a	5.0	NoResponse	0	0.026	349.803	3	36	Feedback	Neutral	True
352.227	2.671	Control	0.6215999999999999	n/a	No	2.671	n/a	n/a	NoResponse	0	0.0	n/a	3	36	ISIslide	Neutral	True
354.926	0.25	Win2	0.6315999999999999	0.0	Yes	2.874	0.026	n/a	GoodResponse	1	n/a	n/a	4	37	Cue	Win	True
355.176	4.0	Win2	0.6315999999999999	0.0	Yes	2.874	0.0	n/a	GoodResponse	1	n/a	n/a	4	37	Fixation	Win	True
359.174	0.23	Win2	0.6315999999999999	0.002	Yes	2.874	-0.002	3.0	GoodResponse	1	0.186	358.36	4	37	Target	Win	True
359.36	0.3	Win2	0.6315999999999999	0.002	Yes	2.874	-0.002	3.0	GoodResponse	1	0.186	n/a	4	37	ButtonPress	Win	True
359.408	0.47	Win2	0.6315999999999999	n/a	Yes	2.874	n/a	n/a	GoodResponse	1	n/a	n/a	4	37	Blank	Win	True
359.874	1.45	Win2	0.6315999999999999	n/a	Yes	2.874	n/a	5.0	GoodResponse	1	0.007	358.881	4	37	Feedback	Win	True
361.324	2.874	Win2	0.6315999999999999	n/a	Yes	2.874	n/a	n/a	GoodResponse	1	0.0	n/a	4	37	ISIslide	Win	True
364.223	0.25	Lose2	0.6409999999999999	0.0	Yes	2.827	0.023	n/a	GoodResponse	0	n/a	n/a	4	38	Cue	AvoidedLoss	True
364.473	3.95	Lose2	0.6409999999999999	0.0	Yes	2.827	0.0	n/a	GoodResponse	0	n/a	n/a	4	38	Fixation	AvoidedLoss	True
368.421	0.24	Lose2	0.6409999999999999	0.002	Yes	2.827	-0.002	3.0	GoodResponse	0	0.195	367.616	4	38	Target	AvoidedLoss	True
368.616	0.3	Lose2	0.6409999999999999	0.002	Yes	2.827	-0.002	3.0	GoodResponse	0	0.195	n/a	4	38	ButtonPress	AvoidedLoss	True
368.671	0.46	Lose2	0.6409999999999999	n/a	Yes	2.827	n/a	n/a	GoodResponse	0	n/a	n/a	4	38	Blank	AvoidedLoss	True
369.121	1.45	Lose2	0.6409999999999999	n/a	Yes	2.827	n/a	5.0	GoodResponse	0	0.024	368.145	4	38	Feedback	AvoidedLoss	True
370.57	2.827	Lose2	0.6409999999999999	n/a	Yes	2.827	n/a	n/a	GoodResponse	0	0.0	n/a	4	38	ISIslide	AvoidedLoss	True
373.419	0.25	Win2	0.65	0.0	Yes	2.981	0.019	n/a	GoodResponse	1	n/a	n/a	5	39	Cue	Win	True
373.669	4.1	Win2	0.65	0.0	Yes	2.981	0.0	n/a	GoodResponse	1	n/a	n/a	5	39	Fixation	Win	True
377.768	0.25	Win2	0.65	0.001	Yes	2.981	-0.001	3.0	GoodResponse	1	0.189	376.957	5	39	Target	Win	True
377.957	0.3	Win2	0.65	0.001	Yes	2.981	-0.001	3.0	GoodResponse	1	0.189	n/a	5	39	ButtonPress	Win	True
378.018	0.45	Win2	0.65	n/a	Yes	2.981	n/a	n/a	GoodResponse	1	n/a	n/a	5	39	Blank	Win	True
378.468	1.45	Win2	0.65	n/a	Yes	2.981	n/a	5.0	GoodResponse	1	0.043	377.511	5	39	Feedback	Win	True
379.917	2.981	Win2	0.65	n/a	Yes	2.981	n/a	n/a	GoodResponse	1	0.0	n/a	5	39	ISIslide	Win	True
382.916	0.25	Win2	0.6585	0.0	Yes	2.734	0.016	n/a	GoodResponse	1	n/a	n/a	6	40	Cue	Win	True
383.166	3.95	Win2	0.6585	0.0	Yes	2.734	0.0	n/a	GoodResponse	1	n/a	n/a	6	40	Fixation	Win	True
387.115	0.26	Win2	0.6585	0.001	Yes	2.734	-0.001	3.0	GoodResponse	1	0.179	386.294	6	40	Target	Win	True
387.294	0.3	Win2	0.6585	0.001	Yes	2.734	-0.001	3.0	GoodResponse	1	0.179	n/a	6	40	ButtonPress	Win	True
387.381	0.44	Win2	0.6585	n/a	Yes	2.734	n/a	n/a	GoodResponse	1	n/a	n/a	6	40	Blank	Win	True
387.814	1.45	Win2	0.6585	n/a	Yes	2.734	n/a	5.0	GoodResponse	1	0.014	386.828	6	40	Feedback	Win	True
389.264	2.734	Win2	0.6585	n/a	Yes	2.734	n/a	n/a	GoodResponse	1	0.0	n/a	6	40	ISIslide	Win	True
392.029	0.25	Win2	0.6667000000000001	0.001	Yes	2.771	0.029	n/a	GoodResponse	1	n/a	n/a	7	41	Cue	Win	True
392.279	3.9	Win2	0.6667000000000001	0.0	Yes	2.771	0.0	n/a	GoodResponse	1	n/a	n/a	7	41	Fixation	Win	True
396.178	0.26	Win2	0.6667000000000001	0.001	Yes	2.771	-0.001	3.0	GoodResponse	1	0.197	395.375	7	41	Target	Win	True
396.375	0.3	Win2	0.6667000000000001	0.001	Yes	2.771	-0.001	3.0	GoodResponse	1	0.197	n/a	7	41	ButtonPress	Win	True
396.445	0.44	Win2	0.6667000000000001	n/a	Yes	2.771	n/a	n/a	GoodResponse	1	n/a	n/a	7	41	Blank	Win	True
396.878	1.45	Win2	0.6667000000000001	n/a	Yes	2.771	n/a	5.0	GoodResponse	1	0.022	395.9	7	41	Feedback	Win	True
398.327	2.771	Win2	0.6667000000000001	n/a	Yes	2.771	n/a	n/a	GoodResponse	1	0.0	n/a	7	41	ISIslide	Win	True
401.126	0.25	Control	0.6744	0.0	Yes	2.924	0.026	n/a	GoodResponse	0	n/a	n/a	7	42	Cue	Neutral	True
401.376	3.85	Control	0.6744	0.0	Yes	2.924	0.0	n/a	GoodResponse	0	n/a	n/a	7	42	Fixation	Neutral	True
405.225	0.25	Control	0.6744	0.001	Yes	2.924	-0.001	3.0	GoodResponse	0	0.214	404.439	7	42	Target	Neutral	True
405.439	0.3	Control	0.6744	0.001	Yes	2.924	-0.001	3.0	GoodResponse	0	0.214	n/a	7	42	ButtonPress	Neutral	True
405.475	0.45	Control	0.6744	n/a	Yes	2.924	n/a	n/a	GoodResponse	0	n/a	n/a	7	42	Blank	Neutral	True
405.925	1.45	Control	0.6744	n/a	Yes	2.924	n/a	5.0	GoodResponse	0	0.0	404.925	7	42	Feedback	Neutral	True
407.374	2.924	Control	0.6744	n/a	Yes	2.924	n/a	n/a	GoodResponse	0	0.0	n/a	7	42	ISIslide	Neutral	True
410.323	0.25	Win2	0.6818000000000001	0.0	Yes	3.177	0.023	n/a	GoodResponse	1	n/a	n/a	8	43	Cue	Win	True
410.573	4.0	Win2	0.6818000000000001	0.0	Yes	3.177	0.0	n/a	GoodResponse	1	n/a	n/a	8	43	Fixation	Win	True
414.572	0.24	Win2	0.6818000000000001	0.001	Yes	3.177	-0.001	3.0	GoodResponse	1	0.187	413.759	8	43	Target	Win	True
414.759	0.3	Win2	0.6818000000000001	0.001	Yes	3.177	-0.001	3.0	GoodResponse	1	0.187	n/a	8	43	ButtonPress	Win	True
414.821	0.46	Win2	0.6818000000000001	n/a	Yes	3.177	n/a	n/a	GoodResponse	1	n/a	n/a	8	43	Blank	Win	True
415.271	1.45	Win2	0.6818000000000001	n/a	Yes	3.177	n/a	5.0	GoodResponse	1	0.02	414.291	8	43	Feedback	Win	True
416.721	3.177	Win2	0.6818000000000001	n/a	Yes	3.177	n/a	n/a	GoodResponse	1	0.0	n/a	8	43	ISIslide	Win	True
419.92	0.25	Win2	0.6889	0.0	Yes	2.98	0.02	n/a	GoodResponse	1	n/a	n/a	9	44	Cue	Win	True
420.17	4.0	Win2	0.6889	0.0	Yes	2.98	0.0	n/a	GoodResponse	1	n/a	n/a	9	44	Fixation	Win	True
424.168	0.23	Win2	0.6889	0.002	Yes	2.98	-0.002	3.0	GoodResponse	1	0.194	423.362	9	44	Target	Win	True
424.362	0.3	Win2	0.6889	0.002	Yes	2.98	-0.002	3.0	GoodResponse	1	0.194	n/a	9	44	ButtonPress	Win	True
424.401	0.47	Win2	0.6889	n/a	Yes	2.98	n/a	n/a	GoodResponse	1	n/a	n/a	9	44	Blank	Win	True
424.868	1.45	Win2	0.6889	n/a	Yes	2.98	n/a	5.0	GoodResponse	1	0.033	423.901	9	44	Feedback	Win	True
426.317	2.98	Win2	0.6889	n/a	Yes	2.98	n/a	n/a	GoodResponse	1	0.0	n/a	9	44	ISIslide	Win	True
429.316	0.25	Control	0.6957	0.0	Yes	2.884	0.016	n/a	GoodResponse	0	n/a	n/a	9	45	Cue	Neutral	True
429.566	4.1	Control	0.6957	0.0	Yes	2.884	0.0	n/a	GoodResponse	0	n/a	n/a	9	45	Fixation	Neutral	True
433.665	0.22	Control	0.6957	0.001	Yes	2.884	-0.001	3.0	GoodResponse	0	0.188	432.853	9	45	Target	Neutral	True
433.853	0.3	Control	0.6957	0.001	Yes	2.884	-0.001	3.0	GoodResponse	0	0.188	n/a	9	45	ButtonPress	Neutral	True
433.881	0.48	Control	0.6957	n/a	Yes	2.884	n/a	n/a	GoodResponse	0	n/a	n/a	9	45	Blank	Neutral	True
434.365	1.45	Control	0.6957	n/a	Yes	2.884	n/a	5.0	GoodResponse	0	0.047	433.412	9	45	Feedback	Neutral	True
435.814	2.884	Control	0.6957	n/a	Yes	2.884	n/a	n/a	GoodResponse	0	0.0	n/a	9	45	ISIslide	Neutral	True
438.713	0.25	Lose2	0.7021	0.0	Yes	3.387	0.013	n/a	GoodResponse	0	n/a	n/a	9	46	Cue	AvoidedLoss	True
438.963	4.0	Lose2	0.7021	0.0	Yes	3.387	0.0	n/a	GoodResponse	0	n/a	n/a	9	46	Fixation	AvoidedLoss	True
442.962	0.21	Lose2	0.7021	0.001	Yes	3.387	-0.001	3.0	GoodResponse	0	0.175	442.137	9	46	Target	AvoidedLoss	True
443.137	0.3	Lose2	0.7021	0.001	Yes	3.387	-0.001	3.0	GoodResponse	0	0.175	n/a	9	46	ButtonPress	AvoidedLoss	True
443.178	0.49	Lose2	0.7021	n/a	Yes	3.387	n/a	n/a	GoodResponse	0	n/a	n/a	9	46	Blank	AvoidedLoss	True
443.661	1.45	Lose2	0.7021	n/a	Yes	3.387	n/a	5.0	GoodResponse	0	0.019	442.68	9	46	Feedback	AvoidedLoss	True
445.111	3.387	Lose2	0.7021	n/a	Yes	3.387	n/a	n/a	GoodResponse	0	0.0	n/a	9	46	ISIslide	AvoidedLoss	True
448.526	0.25	Lose2	0.7082999999999999	0.0	Yes	2.674	0.026	n/a	GoodResponse	0	n/a	n/a	9	47	Cue	AvoidedLoss	True
448.776	4.0	Lose2	0.7082999999999999	0.0	Yes	2.674	0.0	n/a	GoodResponse	0	n/a	n/a	9	47	Fixation	AvoidedLoss	True
452.775	0.2	Lose2	0.7082999999999999	0.001	Yes	2.674	-0.001	3.0	GoodResponse	0	0.185	451.96	9	47	Target	AvoidedLoss	True
452.96	0.3	Lose2	0.7082999999999999	0.001	Yes	2.674	-0.001	3.0	GoodResponse	0	0.185	n/a	9	47	ButtonPress	AvoidedLoss	True
452.975	0.5	Lose2	0.7082999999999999	n/a	Yes	2.674	n/a	n/a	GoodResponse	0	n/a	n/a	9	47	Blank	AvoidedLoss	True
453.474	1.45	Lose2	0.7082999999999999	n/a	Yes	2.674	n/a	5.0	GoodResponse	0	0.011	452.485	9	47	Feedback	AvoidedLoss	True
454.924	2.674	Lose2	0.7082999999999999	n/a	Yes	2.674	n/a	n/a	GoodResponse	0	0.0	n/a	9	47	ISIslide	AvoidedLoss	True
457.623	0.25	Lose2	0.6939	0.0	No	3.027	0.023	n/a	LatePress	-1	n/a	n/a	8	48	Cue	Loss	True
457.873	3.95	Lose2	0.6939	0.0	No	3.027	0.0	n/a	LatePress	-1	n/a	n/a	8	48	Fixation	Loss	True
461.822	0.19	Lose2	0.6939	0.001	No	3.027	-0.001	3.0	LatePress	-1	0.19	461.012	8	48	Target	Loss	True
462.012	0.3	Lose2	0.6939	0.001	No	3.027	-0.001	3.0	LatePress	-1	0.19	n/a	8	48	ButtonPress	Loss	True
462.021	0.51	Lose2	0.6939	n/a	No	3.027	n/a	n/a	LatePress	-1	n/a	n/a	8	48	Blank	Loss	True
462.521	1.45	Lose2	0.6939	n/a	No	3.027	n/a	5.0	LatePress	-1	0.038	461.559	8	48	Feedback	Loss	True
463.971	3.027	Lose2	0.6939	n/a	No	3.027	n/a	n/a	LatePress	-1	0.0	n/a	8	48	ISIslide	Loss	True
467.02	0.25	Control	0.68	0.0	No	2.88	0.02	n/a	NoResponse	0	n/a	n/a	8	49	Cue	Neutral	True
467.27	4.0	Control	0.68	0.0	No	2.88	0.0	n/a	NoResponse	0	n/a	n/a	8	49	Fixation	Neutral	True
471.268	0.18	Control	0.68	0.002	No	2.88	-0.002	3.0	NoResponse	0	0.194	470.462	8	49	Target	Neutral	True
471.452	0.52	Control	0.68	n/a	No	2.88	n/a	n/a	NoResponse	0	n/a	n/a	8	49	Blank	Neutral	True
471.462	0.3	Control	0.68	0.002	No	2.88	-0.002	3.0	NoResponse	0	0.194	n/a	8	49	ButtonPress	Neutral	True
471.968	1.45	Control	0.68	n/a	No	2.88	n/a	5.0	NoResponse	0	0.007	470.975	8	49	Feedback	Neutral	True
473.417	2.88	Control	0.68	n/a	No	2.88	n/a	n/a	NoResponse	0	0.0	n/a	8	49	ISIslide	Neutral	True
476.316	0.25	Control	0.6667000000000001	0.001	No	2.784	0.016	n/a	NoResponse	0	n/a	n/a	8	50	Cue	Neutral	True
476.566	4.0	Control	0.6667000000000001	0.0	No	2.784	0.0	n/a	NoResponse	0	n/a	n/a	8	50	Fixation	Neutral	True
480.565	0.17	Control	0.6667000000000001	0.001	No	2.784	-0.001	3.0	NoResponse	0	0.236	479.801	8	50	Target	Neutral	True
480.732	0.53	Control	0.6667000000000001	n/a	No	2.784	n/a	n/a	NoResponse	0	n/a	n/a	8	50	Blank	Neutral	True
480.801	0.3	Control	0.6667000000000001	0.001	No	2.784	-0.001	3.0	NoResponse	0	0.236	n/a	8	50	ButtonPress	Neutral	True
481.265	1.45	Control	0.6667000000000001	n/a	No	2.784	n/a	5.0	NoResponse	0	0.025	480.29	8	50	Feedback	Neutral	True
482.714	2.784	Control	0.6667000000000001	n/a	No	2.784	n/a	n/a	NoResponse	0	0.0	n/a	8	50	ISIslide	Neutral	True
485.53	0.25	Control	0.6537999999999999	0.0	No	2.72	0.03	n/a	NoResponse	0	n/a	n/a	8	51	Cue	Neutral	True
485.78	3.95	Control	0.6537999999999999	0.0	No	2.72	0.0	n/a	NoResponse	0	n/a	n/a	8	51	Fixation	Neutral	True
489.728	0.16	Control	0.6537999999999999	0.002	No	2.72	-0.002	3.0	NoResponse	0	0.187	488.915	8	51	Target	Neutral	True
489.895	0.54	Control	0.6537999999999999	n/a	No	2.72	n/a	n/a	NoResponse	0	n/a	n/a	8	51	Blank	Neutral	True
489.915	0.3	Control	0.6537999999999999	0.002	No	2.72	-0.002	3.0	NoResponse	0	0.187	n/a	8	51	ButtonPress	Neutral	True
490.428	1.45	Control	0.6537999999999999	n/a	No	2.72	n/a	5.0	NoResponse	0	0.033	489.461	8	51	Feedback	Neutral	True
491.878	2.72	Control	0.6537999999999999	n/a	No	2.72	n/a	n/a	NoResponse	0	0.0	n/a	8	51	ISIslide	Neutral	True
494.627	0.25	Control	0.6415000000000001	0.0	No	2.623	0.027	n/a	PrematurePress	0	n/a	n/a	8	52	Cue	Neutral	True
494.877	4.05	Control	0.6415000000000001	0.0	No	2.623	0.0	n/a	PrematurePress	0	n/a	n/a	8	52	Fixation	Neutral	True
498.925	0.17	Control	0.6415000000000001	0.002	No	2.623	-0.002	3.0	PrematurePress	0	0.03	497.955	8	52	Target	Neutral	True
498.955	0.3	Control	0.6415000000000001	0.002	No	2.623	-0.002	3.0	PrematurePress	0	0.03	n/a	8	52	ButtonPress	Neutral	True
499.108	0.53	Control	0.6415000000000001	n/a	No	2.623	n/a	n/a	PrematurePress	0	n/a	n/a	8	52	Blank	Neutral	True
499.625	1.45	Control	0.6415000000000001	n/a	No	2.623	n/a	5.0	PrematurePress	0	0.007	498.632	8	52	Feedback	Neutral	True
501.074	2.623	Control	0.6415000000000001	n/a	No	2.623	n/a	n/a	PrematurePress	0	0.0	n/a	8	52	ISIslide	Neutral	True
503.723	0.25	Win2	0.6481	0.001	Yes	2.927	0.023	n/a	GoodResponse	1	n/a	n/a	9	53	Cue	Win	True
503.973	4.05	Win2	0.6481	0.0	Yes	2.927	0.0	n/a	GoodResponse	1	n/a	n/a	9	53	Fixation	Win	True
508.022	0.18	Win2	0.6481	0.001	Yes	2.927	-0.001	3.0	GoodResponse	1	0.176	507.198	9	53	Target	Win	True
508.198	0.3	Win2	0.6481	0.001	Yes	2.927	-0.001	3.0	GoodResponse	1	0.176	n/a	9	53	ButtonPress	Win	True
508.205	0.52	Win2	0.6481	n/a	Yes	2.927	n/a	n/a	GoodResponse	1	n/a	n/a	9	53	Blank	Win	True
508.722	1.45	Win2	0.6481	n/a	Yes	2.927	n/a	5.0	GoodResponse	1	0.031	507.753	9	53	Feedback	Win	True
510.171	2.927	Win2	0.6481	n/a	Yes	2.927	n/a	n/a	GoodResponse	1	0.0	n/a	9	53	ISIslide	Win	True
513.12	0.25	Win2	0.6545000000000001	0.0	Yes	2.73	0.02	n/a	GoodResponse	1	n/a	n/a	10	54	Cue	Win	True
513.37	3.95	Win2	0.6545000000000001	0.0	Yes	2.73	0.0	n/a	GoodResponse	1	n/a	n/a	10	54	Fixation	Win	True
517.319	0.19	Win2	0.6545000000000001	0.001	Yes	2.73	-0.001	3.0	GoodResponse	1	0.181	516.5	10	54	Target	Win	True
517.5	0.3	Win2	0.6545000000000001	0.001	Yes	2.73	-0.001	3.0	GoodResponse	1	0.181	n/a	10	54	ButtonPress	Win	True
517.519	0.51	Win2	0.6545000000000001	n/a	Yes	2.73	n/a	n/a	GoodResponse	1	n/a	n/a	10	54	Blank	Win	True
518.018	1.45	Win2	0.6545000000000001	n/a	Yes	2.73	n/a	5.0	GoodResponse	1	0.007	517.025	10	54	Feedback	Win	True
519.468	2.73	Win2	0.6545000000000001	n/a	Yes	2.73	n/a	n/a	GoodResponse	1	0.0	n/a	10	54	ISIslide	Win	True
522.217	0.25	Control	0.6607	0.0	Yes	3.033	0.017	n/a	GoodResponse	0	n/a	n/a	10	55	Cue	Neutral	True
522.467	3.95	Control	0.6607	0.0	Yes	3.033	0.0	n/a	GoodResponse	0	n/a	n/a	10	55	Fixation	Neutral	True
526.415	0.2	Control	0.6607	0.002	Yes	3.033	-0.002	3.0	GoodResponse	0	0.188	525.603	10	55	Target	Neutral	True
526.603	0.3	Control	0.6607	0.002	Yes	3.033	-0.002	3.0	GoodResponse	0	0.188	n/a	10	55	ButtonPress	Neutral	True
526.615	0.5	Control	0.6607	n/a	Yes	3.033	n/a	n/a	GoodResponse	0	n/a	n/a	10	55	Blank	Neutral	True
527.115	1.45	Control	0.6607	n/a	Yes	3.033	n/a	5.0	GoodResponse	0	0.028	526.143	10	55	Feedback	Neutral	True
528.565	3.033	Control	0.6607	n/a	Yes	3.033	n/a	n/a	GoodResponse	0	0.0	n/a	10	55	ISIslide	Neutral	True
531.63	0.25	Control	0.6491	0.0	No	2.82	0.03	n/a	NoResponse	0	n/a	n/a	10	56	Cue	Neutral	True
531.88	3.95	Control	0.6491	0.0	No	2.82	0.0	n/a	NoResponse	0	n/a	n/a	10	56	Fixation	Neutral	True
535.829	0.2	Control	0.6491	0.001	No	2.82	-0.001	3.0	NoResponse	0	0.22	535.049	10	56	Target	Neutral	True
536.029	0.5	Control	0.6491	n/a	No	2.82	n/a	n/a	NoResponse	0	n/a	n/a	10	56	Blank	Neutral	True
536.049	0.3	Control	0.6491	0.001	No	2.82	-0.001	3.0	NoResponse	0	0.22	n/a	10	56	ButtonPress	Neutral	True
536.529	1.45	Control	0.6491	n/a	No	2.82	n/a	5.0	NoResponse	0	0.029	535.558	10	56	Feedback	Neutral	True
537.978	2.82	Control	0.6491	n/a	No	2.82	n/a	n/a	NoResponse	0	0.0	n/a	10	56	ISIslide	Neutral	True
540.827	0.25	Control	0.6552	0.0	Yes	3.473	0.027	n/a	GoodResponse	0	n/a	n/a	10	57	Cue	Neutral	True
541.077	4.0	Control	0.6552	0.0	Yes	3.473	0.0	n/a	GoodResponse	0	n/a	n/a	10	57	Fixation	Neutral	True
545.076	0.21	Control	0.6552	0.001	Yes	3.473	-0.001	3.0	GoodResponse	0	0.197	544.273	10	57	Target	Neutral	True
545.273	0.3	Control	0.6552	0.001	Yes	3.473	-0.001	3.0	GoodResponse	0	0.197	n/a	10	57	ButtonPress	Neutral	True
545.292	0.49	Control	0.6552	n/a	Yes	3.473	n/a	n/a	GoodResponse	0	n/a	n/a	10	57	Blank	Neutral	True
545.775	1.45	Control	0.6552	n/a	Yes	3.473	n/a	5.0	GoodResponse	0	0.002	544.777	10	57	Feedback	Neutral	True
547.225	3.473	Control	0.6552	n/a	Yes	3.473	n/a	n/a	GoodResponse	0	0.0	n/a	10	57	ISIslide	Neutral	True
550.724	0.25	Win2	0.6609999999999999	0.0	Yes	2.726	0.024	n/a	GoodResponse	1	n/a	n/a	11	58	Cue	Win	True
550.973	4.05	Win2	0.6609999999999999	0.001	Yes	2.726	-0.001	n/a	GoodResponse	1	n/a	n/a	11	58	Fixation	Win	True
555.022	0.21	Win2	0.6609999999999999	0.002	Yes	2.726	-0.002	3.0	GoodResponse	1	0.196	554.218	11	58	Target	Win	True
555.218	0.3	Win2	0.6609999999999999	0.002	Yes	2.726	-0.002	3.0	GoodResponse	1	0.196	n/a	11	58	ButtonPress	Win	True
555.239	0.49	Win2	0.6609999999999999	n/a	Yes	2.726	n/a	n/a	GoodResponse	1	n/a	n/a	11	58	Blank	Win	True
555.722	1.45	Win2	0.6609999999999999	n/a	Yes	2.726	n/a	5.0	GoodResponse	1	0.007	554.729	11	58	Feedback	Win	True
557.171	2.726	Win2	0.6609999999999999	n/a	Yes	2.726	n/a	n/a	GoodResponse	1	0.0	n/a	11	58	ISIslide	Win	True
559.92	0.25	Lose2	0.6667000000000001	0.0	Yes	2.68	0.02	n/a	GoodResponse	0	n/a	n/a	11	59	Cue	AvoidedLoss	True
560.17	4.0	Lose2	0.6667000000000001	0.0	Yes	2.68	0.0	n/a	GoodResponse	0	n/a	n/a	11	59	Fixation	AvoidedLoss	True
564.169	0.21	Lose2	0.6667000000000001	0.001	Yes	2.68	-0.001	3.0	GoodResponse	0	0.192	563.361	11	59	Target	AvoidedLoss	True
564.361	0.3	Lose2	0.6667000000000001	0.001	Yes	2.68	-0.001	3.0	GoodResponse	0	0.192	n/a	11	59	ButtonPress	AvoidedLoss	True
564.385	0.49	Lose2	0.6667000000000001	n/a	Yes	2.68	n/a	n/a	GoodResponse	0	n/a	n/a	11	59	Blank	AvoidedLoss	True
564.869	1.45	Lose2	0.6667000000000001	n/a	Yes	2.68	n/a	5.0	GoodResponse	0	0.03	563.899	11	59	Feedback	AvoidedLoss	True
566.318	2.68	Lose2	0.6667000000000001	n/a	Yes	2.68	n/a	n/a	GoodResponse	0	0.0	n/a	11	59	ISIslide	AvoidedLoss	True
569.017	0.25	Control	0.6720999999999999	0.0	Yes	2.683	0.017	n/a	GoodResponse	0	n/a	n/a	11	60	Cue	Neutral	True
569.267	4.0	Control	0.6720999999999999	0.0	Yes	2.683	0.0	n/a	GoodResponse	0	n/a	n/a	11	60	Fixation	Neutral	True
573.266	0.2	Control	0.6720999999999999	0.001	Yes	2.683	-0.001	3.0	GoodResponse	0	0.186	572.452	11	60	Target	Neutral	True
573.452	0.3	Control	0.6720999999999999	0.001	Yes	2.683	-0.001	3.0	GoodResponse	0	0.186	n/a	11	60	ButtonPress	Neutral	True
573.466	0.5	Control	0.6720999999999999	n/a	Yes	2.683	n/a	n/a	GoodResponse	0	n/a	n/a	11	60	Blank	Neutral	True
573.965	1.45	Control	0.6720999999999999	n/a	Yes	2.683	n/a	5.0	GoodResponse	0	0.007	572.972	11	60	Feedback	Neutral	True
575.415	2.683	Control	0.6720999999999999	n/a	Yes	2.683	n/a	n/a	GoodResponse	0	0.0	n/a	11	60	ISIslide	Neutral	True
578.114	0.25	Lose2	0.6774	0.0	Yes	2.986	0.014	n/a	GoodResponse	0	n/a	n/a	11	61	Cue	AvoidedLoss	True
578.364	4.0	Lose2	0.6774	0.0	Yes	2.986	0.0	n/a	GoodResponse	0	n/a	n/a	11	61	Fixation	AvoidedLoss	True
582.362	0.19	Lose2	0.6774	0.002	Yes	2.986	-0.002	3.0	GoodResponse	0	0.188	581.55	11	61	Target	AvoidedLoss	True
582.55	0.3	Lose2	0.6774	0.002	Yes	2.986	-0.002	3.0	GoodResponse	0	0.188	n/a	11	61	ButtonPress	AvoidedLoss	True
582.562	0.51	Lose2	0.6774	n/a	Yes	2.986	n/a	n/a	GoodResponse	0	n/a	n/a	11	61	Blank	AvoidedLoss	True
583.062	1.45	Lose2	0.6774	n/a	Yes	2.986	n/a	5.0	GoodResponse	0	0.032	582.094	11	61	Feedback	AvoidedLoss	True
584.512	2.986	Lose2	0.6774	n/a	Yes	2.986	n/a	n/a	GoodResponse	0	0.0	n/a	11	61	ISIslide	AvoidedLoss	True
587.527	0.25	Lose2	0.6667000000000001	0.0	No	2.873	0.027	n/a	NoResponse	-1	n/a	n/a	10	62	Cue	Loss	True
587.777	3.9	Lose2	0.6667000000000001	0.0	No	2.873	0.0	n/a	NoResponse	-1	n/a	n/a	10	62	Fixation	Loss	True
591.676	0.18	Lose2	0.6667000000000001	0.001	No	2.873	-0.001	3.0	NoResponse	-1	0.208	590.884	10	62	Target	Loss	True
591.859	0.52	Lose2	0.6667000000000001	n/a	No	2.873	n/a	n/a	NoResponse	-1	n/a	n/a	10	62	Blank	Loss	True
591.884	0.3	Lose2	0.6667000000000001	0.001	No	2.873	-0.001	3.0	NoResponse	-1	0.208	n/a	10	62	ButtonPress	Loss	True
592.376	1.45	Lose2	0.6667000000000001	n/a	No	2.873	n/a	5.0	NoResponse	-1	0.035	591.411	10	62	Feedback	Loss	True
593.825	2.873	Lose2	0.6667000000000001	n/a	No	2.873	n/a	n/a	NoResponse	-1	0.0	n/a	10	62	ISIslide	Loss	True
596.724	0.25	Lose2	0.6562	0.0	No	2.626	0.024	n/a	LatePress	-1	n/a	n/a	9	63	Cue	Loss	True
596.974	4.05	Lose2	0.6562	0.0	No	2.626	0.0	n/a	LatePress	-1	n/a	n/a	9	63	Fixation	Loss	True
601.023	0.17	Lose2	0.6562	0.001	No	2.626	-0.001	3.0	LatePress	-1	0.177	600.2	9	63	Target	Loss	True
601.2	0.3	Lose2	0.6562	0.001	No	2.626	-0.001	3.0	LatePress	-1	0.177	n/a	9	63	ButtonPress	Loss	True
601.206	0.53	Lose2	0.6562	n/a	No	2.626	n/a	n/a	LatePress	-1	n/a	n/a	9	63	Blank	Loss	True
601.722	1.45	Lose2	0.6562	n/a	No	2.626	n/a	5.0	LatePress	-1	0.007	600.729	9	63	Feedback	Loss	True
603.172	2.626	Lose2	0.6562	n/a	No	2.626	n/a	n/a	LatePress	-1	0.0	n/a	9	63	ISIslide	Loss	True
605.821	0.25	Win2	0.6462	0.0	No	3.129	0.021	n/a	LatePress	0	n/a	n/a	9	64	Cue	MissedWin	True
606.071	4.15	Win2	0.6462	0.0	No	3.129	0.0	n/a	LatePress	0	n/a	n/a	9	64	Fixation	MissedWin	True
610.219	0.17	Win2	0.6462	0.002	No	3.129	-0.002	3.0	LatePress	0	0.171	609.39	9	64	Target	MissedWin	True
610.39	0.3	Win2	0.6462	0.002	No	3.129	-0.002	3.0	LatePress	0	0.171	n/a	9	64	ButtonPress	MissedWin	True
610.403	0.53	Win2	0.6462	n/a	No	3.129	n/a	n/a	LatePress	0	n/a	n/a	9	64	Blank	MissedWin	True
610.919	1.45	Win2	0.6462	n/a	No	3.129	n/a	5.0	LatePress	0	0.028	609.947	9	64	Feedback	MissedWin	True
612.369	3.129	Win2	0.6462	n/a	No	3.129	n/a	n/a	LatePress	0	0.0	n/a	9	64	ISIslide	MissedWin	True
615.517	0.25	Control	0.6364	0.0	No	2.783	0.017	n/a	LatePress	0	n/a	n/a	9	65	Cue	Neutral	True
615.767	4.0	Control	0.6364	0.0	No	2.783	0.0	n/a	LatePress	0	n/a	n/a	9	65	Fixation	Neutral	True
619.766	0.18	Control	0.6364	0.001	No	2.783	-0.001	3.0	LatePress	0	0.182	618.948	9	65	Target	Neutral	True
619.948	0.3	Control	0.6364	0.001	No	2.783	-0.001	3.0	LatePress	0	0.182	n/a	9	65	ButtonPress	Neutral	True
619.949	0.52	Control	0.6364	n/a	No	2.783	n/a	n/a	LatePress	0	n/a	n/a	9	65	Blank	Neutral	True
620.466	1.45	Control	0.6364	n/a	No	2.783	n/a	5.0	LatePress	0	0.042	619.508	9	65	Feedback	Neutral	True
621.915	2.783	Control	0.6364	n/a	No	2.783	n/a	n/a	LatePress	0	0.0	n/a	9	65	ISIslide	Neutral	True
624.714	0.25	Win2	0.6418	0.0	Yes	2.786	0.014	n/a	GoodResponse	1	n/a	n/a	10	66	Cue	Win	True
624.964	3.9	Win2	0.6418	0.0	Yes	2.786	0.0	n/a	GoodResponse	1	n/a	n/a	10	66	Fixation	Win	True
628.863	0.19	Win2	0.6418	0.001	Yes	2.786	-0.001	3.0	GoodResponse	1	0.181	628.044	10	66	Target	Win	True
629.044	0.3	Win2	0.6418	0.001	Yes	2.786	-0.001	3.0	GoodResponse	1	0.181	n/a	10	66	ButtonPress	Win	True
629.063	0.51	Win2	0.6418	n/a	Yes	2.786	n/a	n/a	GoodResponse	1	n/a	n/a	10	66	Blank	Win	True
629.562	1.45	Win2	0.6418	n/a	Yes	2.786	n/a	5.0	GoodResponse	1	0.019	628.581	10	66	Feedback	Win	True
631.012	2.786	Win2	0.6418	n/a	Yes	2.786	n/a	n/a	GoodResponse	1	0.0	n/a	10	66	ISIslide	Win	True
633.828	0.25	Control	0.6324000000000001	0.0	No	2.722	0.028	n/a	NoResponse	0	n/a	n/a	10	67	Cue	Neutral	True
634.078	3.95	Control	0.6324000000000001	0.0	No	2.722	0.0	3.0	NoResponse	0	3.815	636.893	10	67	Fixation	Neutral	True
637.893	0.3	Control	0.6324000000000001	0.0	No	2.722	0.0	3.0	NoResponse	0	3.815	n/a	10	67	ButtonPress	Neutral	True
638.026	0.2	Control	0.6324000000000001	0.002	No	2.722	-0.002	n/a	NoResponse	0	n/a	n/a	10	67	Target	Neutral	True
638.226	0.5	Control	0.6324000000000001	n/a	No	2.722	n/a	n/a	NoResponse	0	n/a	n/a	10	67	Blank	Neutral	True
638.726	1.45	Control	0.6324000000000001	n/a	No	2.722	n/a	5.0	NoResponse	0	0.026	637.752	10	67	Feedback	Neutral	True
640.175	2.722	Control	0.6324000000000001	n/a	No	2.722	n/a	n/a	NoResponse	0	0.0	n/a	10	67	ISIslide	Neutral	True
642.924	0.25	Win2	0.6377	0.001	Yes	3.076	0.024	n/a	GoodResponse	1	n/a	n/a	11	68	Cue	Win	True
643.174	4.0	Win2	0.6377	0.0	Yes	3.076	0.0	n/a	GoodResponse	1	n/a	n/a	11	68	Fixation	Win	True
647.173	0.21	Win2	0.6377	0.001	Yes	3.076	-0.001	3.0	GoodResponse	1	0.183	646.356	11	68	Target	Win	True
647.356	0.3	Win2	0.6377	0.001	Yes	3.076	-0.001	3.0	GoodResponse	1	0.183	n/a	11	68	ButtonPress	Win	True
647.39	0.49	Win2	0.6377	n/a	Yes	3.076	n/a	n/a	GoodResponse	1	n/a	n/a	11	68	Blank	Win	True
647.873	1.45	Win2	0.6377	n/a	Yes	3.076	n/a	5.0	GoodResponse	1	0.001	646.874	11	68	Feedback	Win	True
649.322	3.076	Win2	0.6377	n/a	Yes	3.076	n/a	n/a	GoodResponse	1	0.0	n/a	11	68	ISIslide	Win	True
652.421	0.25	Win2	0.6286	0.0	No	3.229	0.021	n/a	NoResponse	0	n/a	n/a	11	69	Cue	MissedWin	True
652.671	3.95	Win2	0.6286	0.0	No	3.229	0.0	n/a	NoResponse	0	n/a	n/a	11	69	Fixation	MissedWin	True
656.62	0.22	Win2	0.6286	0.001	No	3.229	-0.001	3.0	NoResponse	0	0.241	655.861	11	69	Target	MissedWin	True
656.853	0.48	Win2	0.6286	n/a	No	3.229	n/a	n/a	NoResponse	0	n/a	n/a	11	69	Blank	MissedWin	True
656.861	0.3	Win2	0.6286	0.001	No	3.229	-0.001	3.0	NoResponse	0	0.241	n/a	11	69	ButtonPress	MissedWin	True
657.319	1.45	Win2	0.6286	n/a	No	3.229	n/a	5.0	NoResponse	0	0.018	656.337	11	69	Feedback	MissedWin	True
658.769	3.229	Win2	0.6286	n/a	No	3.229	n/a	n/a	NoResponse	0	0.0	n/a	11	69	ISIslide	MissedWin	True
662.018	0.25	Lose2	0.6338	0.0	Yes	3.032	0.018	n/a	GoodResponse	0	n/a	n/a	11	70	Cue	AvoidedLoss	True
662.268	4.05	Lose2	0.6338	0.0	Yes	3.032	0.0	n/a	GoodResponse	0	n/a	n/a	11	70	Fixation	AvoidedLoss	True
666.316	0.23	Lose2	0.6338	0.002	Yes	3.032	-0.002	3.0	GoodResponse	0	0.189	665.505	11	70	Target	AvoidedLoss	True
666.505	0.3	Lose2	0.6338	0.002	Yes	3.032	-0.002	3.0	GoodResponse	0	0.189	n/a	11	70	ButtonPress	AvoidedLoss	True
666.549	0.47	Lose2	0.6338	n/a	Yes	3.032	n/a	n/a	GoodResponse	0	n/a	n/a	11	70	Blank	AvoidedLoss	True
667.016	1.45	Lose2	0.6338	n/a	Yes	3.032	n/a	5.0	GoodResponse	0	0.028	666.044	11	70	Feedback	AvoidedLoss	True
668.465	3.032	Lose2	0.6338	n/a	Yes	3.032	n/a	n/a	GoodResponse	0	0.0	n/a	11	70	ISIslide	AvoidedLoss	True
671.514	0.25	Win2	0.6389	0.0	Yes	2.736	0.014	n/a	GoodResponse	1	n/a	n/a	12	71	Cue	Win	True
671.764	4.05	Win2	0.6389	0.0	Yes	2.736	0.0	n/a	GoodResponse	1	n/a	n/a	12	71	Fixation	Win	True
675.813	0.24	Win2	0.6389	0.001	Yes	2.736	-0.001	3.0	GoodResponse	1	0.184	674.997	12	71	Target	Win	True
675.997	0.3	Win2	0.6389	0.001	Yes	2.736	-0.001	3.0	GoodResponse	1	0.184	n/a	12	71	ButtonPress	Win	True
676.063	0.46	Win2	0.6389	n/a	Yes	2.736	n/a	n/a	GoodResponse	1	n/a	n/a	12	71	Blank	Win	True
676.513	1.45	Win2	0.6389	n/a	Yes	2.736	n/a	5.0	GoodResponse	1	0.044	675.557	12	71	Feedback	Win	True
677.962	2.736	Win2	0.6389	n/a	Yes	2.736	n/a	n/a	GoodResponse	1	0.0	n/a	12	71	ISIslide	Win	True
680.728	0.25	Win2	0.6437999999999999	0.0	Yes	2.772	0.028	n/a	GoodResponse	1	n/a	n/a	13	72	Cue	Win	True
680.978	4.1	Win2	0.6437999999999999	0.0	Yes	2.772	0.0	n/a	GoodResponse	1	n/a	n/a	13	72	Fixation	Win	True
685.076	0.25	Win2	0.6437999999999999	0.002	Yes	2.772	-0.002	3.0	GoodResponse	1	0.182	684.258	13	72	Target	Win	True
685.258	0.3	Win2	0.6437999999999999	0.002	Yes	2.772	-0.002	3.0	GoodResponse	1	0.182	n/a	13	72	ButtonPress	Win	True
685.326	0.45	Win2	0.6437999999999999	n/a	Yes	2.772	n/a	n/a	GoodResponse	1	n/a	n/a	13	72	Blank	Win	True
685.776	1.45	Win2	0.6437999999999999	n/a	Yes	2.772	n/a	5.0	GoodResponse	1	0.049	684.825	13	72	Feedback	Win	True
687.225	2.772	Win2	0.6437999999999999	n/a	Yes	2.772	n/a	n/a	GoodResponse	1	0.0	n/a	13	72	ISIslide	Win	True
690.025	0.25	Win2	0.6486	0.0	Yes	2.675	0.025	n/a	GoodResponse	1	n/a	n/a	14	73	Cue	Win	True
690.274	4.0	Win2	0.6486	0.001	Yes	2.675	-0.001	n/a	GoodResponse	1	n/a	n/a	14	73	Fixation	Win	True
694.273	0.26	Win2	0.6486	0.002	Yes	2.675	-0.002	3.0	GoodResponse	1	0.174	693.447	14	73	Target	Win	True
694.447	0.3	Win2	0.6486	0.002	Yes	2.675	-0.002	3.0	GoodResponse	1	0.174	n/a	14	73	ButtonPress	Win	True
694.54	0.44	Win2	0.6486	n/a	Yes	2.675	n/a	n/a	GoodResponse	1	n/a	n/a	14	73	Blank	Win	True
694.973	1.45	Win2	0.6486	n/a	Yes	2.675	n/a	5.0	GoodResponse	1	0.022	693.995	14	73	Feedback	Win	True
696.422	2.675	Win2	0.6486	n/a	Yes	2.675	n/a	n/a	GoodResponse	1	0.0	n/a	14	73	ISIslide	Win	True
699.121	0.25	Lose2	0.6533	0.0	Yes	2.629	0.021	n/a	GoodResponse	0	n/a	n/a	14	74	Cue	AvoidedLoss	True
699.371	4.05	Lose2	0.6533	0.0	Yes	2.629	0.0	n/a	GoodResponse	0	n/a	n/a	14	74	Fixation	AvoidedLoss	True
703.42	0.27	Lose2	0.6533	0.001	Yes	2.629	-0.001	3.0	GoodResponse	0	0.163	702.583	14	74	Target	AvoidedLoss	True
703.583	0.3	Lose2	0.6533	0.001	Yes	2.629	-0.001	3.0	GoodResponse	0	0.163	n/a	14	74	ButtonPress	AvoidedLoss	True
703.703	0.43	Lose2	0.6533	n/a	Yes	2.629	n/a	n/a	GoodResponse	0	n/a	n/a	14	74	Blank	AvoidedLoss	True
704.12	1.45	Lose2	0.6533	n/a	Yes	2.629	n/a	5.0	GoodResponse	0	0.046	703.166	14	74	Feedback	AvoidedLoss	True
705.569	2.629	Lose2	0.6533	n/a	Yes	2.629	n/a	n/a	GoodResponse	0	0.0	n/a	14	74	ISIslide	AvoidedLoss	True
708.218	0.25	Lose2	0.6579	0.0	Yes	2.932	0.018	n/a	GoodResponse	0	n/a	n/a	14	75	Cue	AvoidedLoss	True
708.468	3.95	Lose2	0.6579	0.0	Yes	2.932	0.0	n/a	GoodResponse	0	n/a	n/a	14	75	Fixation	AvoidedLoss	True
712.417	0.28	Lose2	0.6579	0.001	Yes	2.932	-0.001	3.0	GoodResponse	0	0.202	711.619	14	75	Target	AvoidedLoss	True
712.619	0.3	Lose2	0.6579	0.001	Yes	2.932	-0.001	3.0	GoodResponse	0	0.202	n/a	14	75	ButtonPress	AvoidedLoss	True
712.7	0.42	Lose2	0.6579	n/a	Yes	2.932	n/a	n/a	GoodResponse	0	n/a	n/a	14	75	Blank	AvoidedLoss	True
713.116	1.45	Lose2	0.6579	n/a	Yes	2.932	n/a	5.0	GoodResponse	0	0.025	712.141	14	75	Feedback	AvoidedLoss	True
714.566	2.932	Lose2	0.6579	n/a	Yes	2.932	n/a	n/a	GoodResponse	0	0.0	n/a	14	75	ISIslide	AvoidedLoss	True
717.515	0.25	Control	0.6623	0.0	Yes	3.235	0.015	n/a	GoodResponse	0	n/a	n/a	14	76	Cue	Neutral	True
717.765	4.05	Control	0.6623	0.0	Yes	3.235	0.0	n/a	GoodResponse	0	n/a	n/a	14	76	Fixation	Neutral	True
721.813	0.28	Control	0.6623	0.002	Yes	3.235	-0.002	3.0	GoodResponse	0	0.197	721.01	14	76	Target	Neutral	True
722.01	0.3	Control	0.6623	0.002	Yes	3.235	-0.002	3.0	GoodResponse	0	0.197	n/a	14	76	ButtonPress	Neutral	True
722.097	0.42	Control	0.6623	n/a	Yes	3.235	n/a	n/a	GoodResponse	0	n/a	n/a	14	76	Blank	Neutral	True
722.513	1.45	Control	0.6623	n/a	Yes	3.235	n/a	5.0	GoodResponse	0	0.043	721.556	14	76	Feedback	Neutral	True
723.963	3.235	Control	0.6623	n/a	Yes	3.235	n/a	n/a	GoodResponse	0	0.0	n/a	14	76	ISIslide	Neutral	True
727.228	0.25	Lose2	0.6667000000000001	0.0	Yes	2.572	0.028	n/a	GoodResponse	0	n/a	n/a	14	77	Cue	AvoidedLoss	True
727.478	3.95	Lose2	0.6667000000000001	0.0	Yes	2.572	0.0	n/a	GoodResponse	0	n/a	n/a	14	77	Fixation	AvoidedLoss	True
731.427	0.28	Lose2	0.6667000000000001	0.001	Yes	2.572	-0.001	3.0	GoodResponse	0	0.195	730.622	14	77	Target	AvoidedLoss	True
731.622	0.3	Lose2	0.6667000000000001	0.001	Yes	2.572	-0.001	3.0	GoodResponse	0	0.195	n/a	14	77	ButtonPress	AvoidedLoss	True
731.71	0.42	Lose2	0.6667000000000001	n/a	Yes	2.572	n/a	n/a	GoodResponse	0	n/a	n/a	14	77	Blank	AvoidedLoss	True
732.126	1.45	Lose2	0.6667000000000001	n/a	Yes	2.572	n/a	5.0	GoodResponse	0	0.04	731.166	14	77	Feedback	AvoidedLoss	True
733.576	2.572	Lose2	0.6667000000000001	n/a	Yes	2.572	n/a	n/a	GoodResponse	0	0.0	n/a	14	77	ISIslide	AvoidedLoss	True
