onset	duration	cue_type	current_mean_accuracy	duration_error	is_hit	isi_adjusted	onset_delay	response	response_type	reward	rt	rt_time	total_reward	trial_number	trial_phase	trial_type	one_press
11.097	0.25	Control	1.0	0.0	Yes	2.953	-0.003	n/a	GoodResponse	0	n/a	n/a	0	0	Cue	Neutral	True
11.348	3.85	Control	1.0	0.0	Yes	2.953	0.001	n/a	GoodResponse	0	n/a	n/a	0	0	Fixation	Neutral	True
15.193	0.4	Control	1.0	0.004	Yes	2.953	-0.004	2.0	GoodResponse	0	0.217	14.41	0	0	Target	Neutral	True
15.41	0.3	Control	1.0	0.004	Yes	2.953	-0.004	2.0	GoodResponse	0	0.217	n/a	0	0	ButtonPress	Neutral	True
15.594	0.3	Control	1.0	n/a	Yes	2.953	n/a	n/a	GoodResponse	0	n/a	n/a	0	0	Blank	Neutral	True
15.895	1.45	Control	1.0	n/a	Yes	2.953	n/a	5.0	GoodResponse	0	0.032	14.927	0	0	Feedback	Neutral	True
17.349	2.953	Control	1.0	n/a	Yes	2.953	n/a	n/a	GoodResponse	0	0.0	n/a	0	0	ISIslide	Neutral	True
20.375	0.25	Lose2	1.0	0.0	Yes	2.725	0.075	n/a	GoodResponse	0	n/a	n/a	0	1	Cue	AvoidedLoss	True
20.626	4.0	Lose2	1.0	0.0	Yes	2.725	0.001	n/a	GoodResponse	0	n/a	n/a	0	1	Fixation	AvoidedLoss	True
24.621	0.39	Lose2	1.0	0.004	Yes	2.725	-0.004	2.0	GoodResponse	0	0.175	23.796	0	1	Target	AvoidedLoss	True
24.796	0.3	Lose2	1.0	0.004	Yes	2.725	-0.004	2.0	GoodResponse	0	0.175	n/a	0	1	ButtonPress	AvoidedLoss	True
25.022	0.31	Lose2	1.0	n/a	Yes	2.725	n/a	n/a	GoodResponse	0	n/a	n/a	0	1	Blank	AvoidedLoss	True
25.323	1.45	Lose2	1.0	n/a	Yes	2.725	n/a	5.0	GoodResponse	0	0.017	24.34	0	1	Feedback	AvoidedLoss	True
26.777	2.725	Lose2	1.0	n/a	Yes	2.725	n/a	n/a	GoodResponse	0	0.0	n/a	0	1	ISIslide	AvoidedLoss	True
29.519	0.25	Control	1.0	0.0	Yes	2.581	0.019	n/a	GoodResponse	0	n/a	n/a	0	2	Cue	Neutral	True
29.77	4.1	Control	1.0	0.0	Yes	2.581	0.001	n/a	GoodResponse	0	n/a	n/a	0	2	Fixation	Neutral	True
33.865	0.38	Control	1.0	0.004	Yes	2.581	-0.004	2.0	GoodResponse	0	0.184	33.049	0	2	Target	Neutral	True
34.049	0.3	Control	1.0	0.004	Yes	2.581	-0.004	2.0	GoodResponse	0	0.184	n/a	0	2	ButtonPress	Neutral	True
34.25	0.32	Control	1.0	n/a	Yes	2.581	n/a	n/a	GoodResponse	0	n/a	n/a	0	2	Blank	Neutral	True
34.567	1.45	Control	1.0	n/a	Yes	2.581	n/a	5.0	GoodResponse	0	0.042	33.609	0	2	Feedback	Neutral	True
36.022	2.581	Control	1.0	n/a	Yes	2.581	n/a	n/a	GoodResponse	0	0.0	n/a	0	2	ISIslide	Neutral	True
38.68	0.25	Win2	1.0	0.0	Yes	2.77	0.08	n/a	GoodResponse	1	n/a	n/a	1	3	Cue	Win	True
38.93	3.95	Win2	1.0	0.0	Yes	2.77	0.0	n/a	GoodResponse	1	n/a	n/a	1	3	Fixation	Win	True
42.876	0.37	Win2	1.0	0.004	Yes	2.77	-0.004	2.0	GoodResponse	1	0.185	42.061	1	3	Target	Win	True
43.061	0.3	Win2	1.0	0.004	Yes	2.77	-0.004	2.0	GoodResponse	1	0.185	n/a	1	3	ButtonPress	Win	True
43.26	0.33	Win2	1.0	n/a	Yes	2.77	n/a	n/a	GoodResponse	1	n/a	n/a	1	3	Blank	Win	True
43.578	1.45	Win2	1.0	n/a	Yes	2.77	n/a	5.0	GoodResponse	1	0.008	42.586	1	3	Feedback	Win	True
45.032	2.77	Win2	1.0	n/a	Yes	2.77	n/a	n/a	GoodResponse	1	0.0	n/a	1	3	ISIslide	Win	True
47.824	0.25	Win2	1.0	0.0	Yes	3.276	0.024	n/a	GoodResponse	1	n/a	n/a	2	4	Cue	Win	True
48.074	4.0	Win2	1.0	0.001	Yes	3.276	0.0	n/a	GoodResponse	1	n/a	n/a	2	4	Fixation	Win	True
52.07	0.36	Win2	1.0	0.004	Yes	3.276	-0.004	2.0	GoodResponse	1	0.161	51.231	2	4	Target	Win	True
52.231	0.3	Win2	1.0	0.004	Yes	3.276	-0.004	2.0	GoodResponse	1	0.161	n/a	2	4	ButtonPress	Win	True
52.437	0.34	Win2	1.0	n/a	Yes	3.276	n/a	n/a	GoodResponse	1	n/a	n/a	2	4	Blank	Win	True
52.772	1.45	Win2	1.0	n/a	Yes	3.276	n/a	5.0	GoodResponse	1	0.032	51.804	2	4	Feedback	Win	True
54.226	3.276	Win2	1.0	n/a	Yes	3.276	n/a	n/a	GoodResponse	1	0.0	n/a	2	4	ISIslide	Win	True
57.519	0.25	Win2	1.0	0.0	Yes	2.781	0.019	n/a	GoodResponse	1	n/a	n/a	3	5	Cue	Win	True
57.77	4.0	Win2	1.0	0.0	Yes	2.781	0.001	n/a	GoodResponse	1	n/a	n/a	3	5	Fixation	Win	True
61.765	0.35	Win2	1.0	0.004	Yes	2.781	-0.004	2.0	GoodResponse	1	0.161	60.926	3	5	Target	Win	True
61.926	0.3	Win2	1.0	0.004	Yes	2.781	-0.004	2.0	GoodResponse	1	0.161	n/a	3	5	ButtonPress	Win	True
62.116	0.35	Win2	1.0	n/a	Yes	2.781	n/a	n/a	GoodResponse	1	n/a	n/a	3	5	Blank	Win	True
62.468	1.45	Win2	1.0	n/a	Yes	2.781	n/a	5.0	GoodResponse	1	0.044	61.512	3	5	Feedback	Win	True
63.922	2.781	Win2	1.0	n/a	Yes	2.781	n/a	n/a	GoodResponse	1	0.0	n/a	3	5	ISIslide	Win	True
66.73	0.25	Lose2	1.0	0.0	Yes	2.72	0.03	n/a	GoodResponse	0	n/a	n/a	3	6	Cue	AvoidedLoss	True
66.981	3.95	Lose2	1.0	0.0	Yes	2.72	0.001	n/a	GoodResponse	0	n/a	n/a	3	6	Fixation	AvoidedLoss	True
70.926	0.34	Lose2	1.0	0.004	Yes	2.72	-0.004	2.0	GoodResponse	0	0.166	70.092	3	6	Target	AvoidedLoss	True
71.092	0.3	Lose2	1.0	0.004	Yes	2.72	-0.004	2.0	GoodResponse	0	0.166	n/a	3	6	ButtonPress	AvoidedLoss	True
71.277	0.36	Lose2	1.0	n/a	Yes	2.72	n/a	n/a	GoodResponse	0	n/a	n/a	3	6	Blank	AvoidedLoss	True
71.628	1.45	Lose2	1.0	n/a	Yes	2.72	n/a	5.0	GoodResponse	0	0.007	70.635	3	6	Feedback	AvoidedLoss	True
73.083	2.72	Lose2	1.0	n/a	Yes	2.72	n/a	n/a	GoodResponse	0	0.0	n/a	3	6	ISIslide	AvoidedLoss	True
75.824	0.25	Lose2	1.0	0.0	Yes	4.026	0.024	n/a	GoodResponse	0	n/a	n/a	3	7	Cue	AvoidedLoss	True
76.075	4.05	Lose2	1.0	0.0	Yes	4.026	0.001	n/a	GoodResponse	0	n/a	n/a	3	7	Fixation	AvoidedLoss	True
80.12	0.33	Lose2	1.0	0.004	Yes	4.026	-0.004	2.0	GoodResponse	0	0.18	79.3	3	7	Target	AvoidedLoss	True
80.3	0.3	Lose2	1.0	0.004	Yes	4.026	-0.004	2.0	GoodResponse	0	0.18	n/a	3	7	ButtonPress	AvoidedLoss	True
80.455	0.37	Lose2	1.0	n/a	Yes	4.026	n/a	n/a	GoodResponse	0	n/a	n/a	3	7	Blank	AvoidedLoss	True
80.822	1.45	Lose2	1.0	n/a	Yes	4.026	n/a	5.0	GoodResponse	0	0.03	79.852	3	7	Feedback	AvoidedLoss	True
82.277	4.026	Lose2	1.0	n/a	Yes	4.026	n/a	n/a	GoodResponse	0	0.0	n/a	3	7	ISIslide	AvoidedLoss	True
86.322	0.25	Lose2	1.0	0.0	Yes	3.028	0.022	n/a	GoodResponse	0	n/a	n/a	3	8	Cue	AvoidedLoss	False
86.573	3.95	Lose2	1.0	0.0	Yes	3.028	0.001	2.0	GoodResponse	0	3.566	89.139	3	8	Fixation	AvoidedLoss	False
90.139	0.3	Lose2	1.0	0.0	Yes	3.028	0.001	2.0	GoodResponse	0	3.566	n/a	3	8	ButtonPress	AvoidedLoss	False
90.518	0.32	Lose2	1.0	0.004	Yes	3.028	-0.004	2.0	GoodResponse	0	0.177	89.695	3	8	Target	AvoidedLoss	False
90.695	0.3	Lose2	1.0	0.004	Yes	3.028	-0.004	2.0	GoodResponse	0	0.177	n/a	3	8	ButtonPress	AvoidedLoss	False
90.852	0.38	Lose2	1.0	n/a	Yes	3.028	n/a	n/a	GoodResponse	0	n/a	n/a	3	8	Blank	AvoidedLoss	False
91.22	1.45	Lose2	1.0	n/a	Yes	3.028	n/a	5.0	GoodResponse	0	0.023	90.243	3	8	Feedback	AvoidedLoss	False
92.675	3.028	Lose2	1.0	n/a	Yes	3.028	n/a	n/a	GoodResponse	0	0.0	n/a	3	8	ISIslide	AvoidedLoss	False
95.717	0.25	Lose2	1.0	0.0	Yes	3.133	0.017	n/a	GoodResponse	0	n/a	n/a	3	9	Cue	AvoidedLoss	True
95.968	3.95	Lose2	1.0	0.0	Yes	3.133	0.001	n/a	GoodResponse	0	n/a	n/a	3	9	Fixation	AvoidedLoss	True
99.913	0.31	Lose2	1.0	0.004	Yes	3.133	-0.004	2.0	GoodResponse	0	0.23	99.143	3	9	Target	AvoidedLoss	True
100.143	0.3	Lose2	1.0	0.004	Yes	3.133	-0.004	2.0	GoodResponse	0	0.23	n/a	3	9	ButtonPress	AvoidedLoss	True
100.231	0.39	Lose2	1.0	n/a	Yes	3.133	n/a	n/a	GoodResponse	0	n/a	n/a	3	9	Blank	AvoidedLoss	True
100.615	1.45	Lose2	1.0	n/a	Yes	3.133	n/a	5.0	GoodResponse	0	0.042	99.657	3	9	Feedback	AvoidedLoss	True
102.069	3.133	Lose2	1.0	n/a	Yes	3.133	n/a	n/a	GoodResponse	0	0.0	n/a	3	9	ISIslide	AvoidedLoss	True
105.229	0.25	Control	1.0	0.0	Yes	3.271	0.029	n/a	GoodResponse	0	n/a	n/a	3	10	Cue	Neutral	True
105.48	4.0	Control	1.0	0.0	Yes	3.271	0.001	n/a	GoodResponse	0	n/a	n/a	3	10	Fixation	Neutral	True
109.475	0.3	Control	1.0	0.004	Yes	3.271	-0.004	2.0	GoodResponse	0	0.193	108.668	3	10	Target	Neutral	True
109.668	0.3	Control	1.0	0.004	Yes	3.271	-0.004	2.0	GoodResponse	0	0.193	n/a	3	10	ButtonPress	Neutral	True
109.776	0.4	Control	1.0	n/a	Yes	3.271	n/a	n/a	GoodResponse	0	n/a	n/a	3	10	Blank	Neutral	True
110.177	1.45	Control	1.0	n/a	Yes	3.271	n/a	5.0	GoodResponse	0	0.041	109.218	3	10	Feedback	Neutral	True
111.631	3.271	Control	1.0	n/a	Yes	3.271	n/a	n/a	GoodResponse	0	0.0	n/a	3	10	ISIslide	Neutral	True
114.925	0.25	Lose2	1.0	0.0	Yes	2.725	0.025	n/a	GoodResponse	0	n/a	n/a	3	11	Cue	AvoidedLoss	True
115.175	4.05	Lose2	1.0	0.0	Yes	2.725	0.0	n/a	GoodResponse	0	n/a	n/a	3	11	Fixation	AvoidedLoss	True
119.221	0.29	Lose2	1.0	0.004	Yes	2.725	-0.004	2.0	GoodResponse	0	0.202	118.423	3	11	Target	AvoidedLoss	True
119.423	0.3	Lose2	1.0	0.004	Yes	2.725	-0.004	2.0	GoodResponse	0	0.202	n/a	3	11	ButtonPress	AvoidedLoss	True
119.522	0.41	Lose2	1.0	n/a	Yes	2.725	n/a	n/a	GoodResponse	0	n/a	n/a	3	11	Blank	AvoidedLoss	True
119.923	1.45	Lose2	1.0	n/a	Yes	2.725	n/a	5.0	GoodResponse	0	0.007	118.93	3	11	Feedback	AvoidedLoss	True
121.377	2.725	Lose2	1.0	n/a	Yes	2.725	n/a	n/a	GoodResponse	0	0.0	n/a	3	11	ISIslide	AvoidedLoss	True
124.119	0.25	Control	1.0	0.0	Yes	2.981	0.019	n/a	GoodResponse	0	n/a	n/a	3	12	Cue	Neutral	True
124.369	3.9	Control	1.0	0.001	Yes	2.981	0.0	n/a	GoodResponse	0	n/a	n/a	3	12	Fixation	Neutral	True
128.281	0.28	Control	1.0	0.0	Yes	2.981	0.012	2.0	GoodResponse	0	0.195	127.476	3	12	Target	Neutral	True
128.476	0.3	Control	1.0	0.0	Yes	2.981	0.012	2.0	GoodResponse	0	0.195	n/a	3	12	ButtonPress	Neutral	True
128.549	0.42	Control	1.0	n/a	Yes	2.981	n/a	n/a	GoodResponse	0	n/a	n/a	3	12	Blank	Neutral	True
128.967	1.45	Control	1.0	n/a	Yes	2.981	n/a	5.0	GoodResponse	0	0.031	127.998	3	12	Feedback	Neutral	True
130.421	2.981	Control	1.0	n/a	Yes	2.981	n/a	n/a	GoodResponse	0	0.0	n/a	3	12	ISIslide	Neutral	True
133.43	0.25	Control	1.0	0.0	Yes	2.77	0.03	n/a	GoodResponse	0	n/a	n/a	3	13	Cue	Neutral	True
133.681	4.0	Control	1.0	0.0	Yes	2.77	0.001	n/a	GoodResponse	0	n/a	n/a	3	13	Fixation	Neutral	True
137.676	0.27	Control	1.0	0.004	Yes	2.77	-0.004	2.0	GoodResponse	0	0.225	136.901	3	13	Target	Neutral	True
137.901	0.3	Control	1.0	0.004	Yes	2.77	-0.004	2.0	GoodResponse	0	0.225	n/a	3	13	ButtonPress	Neutral	True
137.96	0.43	Control	1.0	n/a	Yes	2.77	n/a	n/a	GoodResponse	0	n/a	n/a	3	13	Blank	Neutral	True
138.378	1.45	Control	1.0	n/a	Yes	2.77	n/a	5.0	GoodResponse	0	0.035	137.413	3	13	Feedback	Neutral	True
139.832	2.77	Control	1.0	n/a	Yes	2.77	n/a	n/a	GoodResponse	0	0.0	n/a	3	13	ISIslide	Neutral	True
142.624	0.25	Win2	1.0	0.0	Yes	2.676	0.024	n/a	GoodResponse	1	n/a	n/a	4	14	Cue	Win	True
142.875	4.1	Win2	1.0	0.0	Yes	2.676	0.001	n/a	GoodResponse	1	n/a	n/a	4	14	Fixation	Win	True
146.97	0.26	Win2	1.0	0.004	Yes	2.676	-0.004	2.0	GoodResponse	1	0.179	146.149	4	14	Target	Win	True
147.149	0.3	Win2	1.0	0.004	Yes	2.676	-0.004	2.0	GoodResponse	1	0.179	n/a	4	14	ButtonPress	Win	True
147.238	0.44	Win2	1.0	n/a	Yes	2.676	n/a	n/a	GoodResponse	1	n/a	n/a	4	14	Blank	Win	True
147.673	1.45	Win2	1.0	n/a	Yes	2.676	n/a	5.0	GoodResponse	1	0.008	146.681	4	14	Feedback	Win	True
149.127	2.676	Win2	1.0	n/a	Yes	2.676	n/a	n/a	GoodResponse	1	0.0	n/a	4	14	ISIslide	Win	True
151.818	0.25	Control	1.0	0.0	Yes	2.982	0.018	n/a	GoodResponse	0	n/a	n/a	4	15	Cue	Neutral	True
152.069	4.0	Control	1.0	0.0	Yes	2.982	0.001	n/a	GoodResponse	0	n/a	n/a	4	15	Fixation	Neutral	True
156.064	0.25	Control	1.0	0.004	Yes	2.982	-0.004	2.0	GoodResponse	0	0.211	155.275	4	15	Target	Neutral	True
156.275	0.3	Control	1.0	0.004	Yes	2.982	-0.004	2.0	GoodResponse	0	0.211	n/a	4	15	ButtonPress	Neutral	True
156.315	0.45	Control	1.0	n/a	Yes	2.982	n/a	n/a	GoodResponse	0	n/a	n/a	4	15	Blank	Neutral	True
156.766	1.45	Control	1.0	n/a	Yes	2.982	n/a	5.0	GoodResponse	0	0.037	155.803	4	15	Feedback	Neutral	True
158.221	2.982	Control	1.0	n/a	Yes	2.982	n/a	n/a	GoodResponse	0	0.0	n/a	4	15	ISIslide	Neutral	True
161.23	0.25	Win2	1.0	0.0	Yes	2.87	0.03	n/a	GoodResponse	1	n/a	n/a	5	16	Cue	Win	True
161.481	4.0	Win2	1.0	0.0	Yes	2.87	0.001	n/a	GoodResponse	1	n/a	n/a	5	16	Fixation	Win	True
165.476	0.24	Win2	1.0	0.004	Yes	2.87	-0.004	2.0	GoodResponse	1	0.179	164.655	5	16	Target	Win	True
165.655	0.3	Win2	1.0	0.004	Yes	2.87	-0.004	2.0	GoodResponse	1	0.179	n/a	5	16	ButtonPress	Win	True
165.727	0.46	Win2	1.0	n/a	Yes	2.87	n/a	n/a	GoodResponse	1	n/a	n/a	5	16	Blank	Win	True
166.178	1.45	Win2	1.0	n/a	Yes	2.87	n/a	5.0	GoodResponse	1	0.04	165.218	5	16	Feedback	Win	True
167.632	2.87	Win2	1.0	n/a	Yes	2.87	n/a	n/a	GoodResponse	1	0.0	n/a	5	16	ISIslide	Win	True
170.524	0.25	Lose2	1.0	0.0	Yes	2.726	0.024	n/a	GoodResponse	0	n/a	n/a	5	17	Cue	AvoidedLoss	True
170.775	3.95	Lose2	1.0	0.0	Yes	2.726	0.001	n/a	GoodResponse	0	n/a	n/a	5	17	Fixation	AvoidedLoss	True
174.72	0.23	Lose2	1.0	0.004	Yes	2.726	-0.004	2.0	GoodResponse	0	0.183	173.903	5	17	Target	AvoidedLoss	True
174.903	0.3	Lose2	1.0	0.004	Yes	2.726	-0.004	2.0	GoodResponse	0	0.183	n/a	5	17	ButtonPress	AvoidedLoss	True
174.954	0.47	Lose2	1.0	n/a	Yes	2.726	n/a	n/a	GoodResponse	0	n/a	n/a	5	17	Blank	AvoidedLoss	True
175.422	1.45	Lose2	1.0	n/a	Yes	2.726	n/a	5.0	GoodResponse	0	0.015	174.437	5	17	Feedback	AvoidedLoss	True
176.877	2.726	Lose2	1.0	n/a	Yes	2.726	n/a	n/a	GoodResponse	0	0.0	n/a	5	17	ISIslide	AvoidedLoss	True
179.618	0.25	Lose2	1.0	0.0	Yes	2.732	0.018	n/a	GoodResponse	0	n/a	n/a	5	18	Cue	AvoidedLoss	True
179.869	4.05	Lose2	1.0	0.0	Yes	2.732	0.001	n/a	GoodResponse	0	n/a	n/a	5	18	Fixation	AvoidedLoss	True
183.914	0.22	Lose2	1.0	0.004	Yes	2.732	-0.004	2.0	GoodResponse	0	0.175	183.089	5	18	Target	AvoidedLoss	True
184.089	0.3	Lose2	1.0	0.004	Yes	2.732	-0.004	2.0	GoodResponse	0	0.175	n/a	5	18	ButtonPress	AvoidedLoss	True
184.148	0.48	Lose2	1.0	n/a	Yes	2.732	n/a	n/a	GoodResponse	0	n/a	n/a	5	18	Blank	AvoidedLoss	True
184.616	1.45	Lose2	1.0	n/a	Yes	2.732	n/a	5.0	GoodResponse	0	0.04	183.656	5	18	Feedback	AvoidedLoss	True
186.071	2.732	Lose2	1.0	n/a	Yes	2.732	n/a	n/a	GoodResponse	0	0.0	n/a	5	18	ISIslide	AvoidedLoss	True
188.829	0.25	Control	0.95	0.0	No	2.921	0.029	n/a	NoResponse	0	n/a	n/a	5	19	Cue	Neutral	True
189.08	3.95	Control	0.95	0.0	No	2.921	0.001	n/a	NoResponse	0	n/a	n/a	5	19	Fixation	Neutral	True
193.025	0.21	Control	0.95	0.004	No	2.921	-0.004	2.0	NoResponse	0	0.331	192.356	5	19	Target	Neutral	True
193.242	0.49	Control	0.95	n/a	No	2.921	n/a	n/a	NoResponse	0	n/a	n/a	5	19	Blank	Neutral	True
193.356	0.3	Control	0.95	0.004	No	2.921	-0.004	2.0	NoResponse	0	0.331	n/a	5	19	ButtonPress	Neutral	True
193.727	1.45	Control	0.95	n/a	No	2.921	n/a	5.0	NoResponse	0	0.007	192.734	5	19	Feedback	Neutral	True
195.181	2.921	Control	0.95	n/a	No	2.921	n/a	n/a	NoResponse	0	0.0	n/a	5	19	ISIslide	Neutral	True
198.124	0.25	Control	0.9523999999999999	0.0	Yes	2.626	0.024	n/a	GoodResponse	0	n/a	n/a	5	20	Cue	Neutral	True
198.374	4.05	Control	0.9523999999999999	0.0	Yes	2.626	0.0	n/a	GoodResponse	0	n/a	n/a	5	20	Fixation	Neutral	True
202.42	0.2	Control	0.9523999999999999	0.004	Yes	2.626	-0.004	2.0	GoodResponse	0	0.184	201.604	5	20	Target	Neutral	True
202.604	0.3	Control	0.9523999999999999	0.004	Yes	2.626	-0.004	2.0	GoodResponse	0	0.184	n/a	5	20	ButtonPress	Neutral	True
202.62	0.5	Control	0.9523999999999999	n/a	Yes	2.626	n/a	n/a	GoodResponse	0	n/a	n/a	5	20	Blank	Neutral	True
203.122	1.45	Control	0.9523999999999999	n/a	Yes	2.626	n/a	5.0	GoodResponse	0	0.022	202.144	5	20	Feedback	Neutral	True
204.576	2.626	Control	0.9523999999999999	n/a	Yes	2.626	n/a	n/a	GoodResponse	0	0.0	n/a	5	20	ISIslide	Neutral	True
207.217	0.25	Control	0.9545	0.001	Yes	2.783	0.017	n/a	GoodResponse	0	n/a	n/a	5	21	Cue	Neutral	True
207.468	4.1	Control	0.9545	0.0	Yes	2.783	0.001	n/a	GoodResponse	0	n/a	n/a	5	21	Fixation	Neutral	True
211.564	0.19	Control	0.9545	0.003	Yes	2.783	-0.003	2.0	GoodResponse	0	0.176	210.74	5	21	Target	Neutral	True
211.74	0.3	Control	0.9545	0.003	Yes	2.783	-0.003	2.0	GoodResponse	0	0.176	n/a	5	21	ButtonPress	Neutral	True
211.764	0.51	Control	0.9545	n/a	Yes	2.783	n/a	n/a	GoodResponse	0	n/a	n/a	5	21	Blank	Neutral	True
212.266	1.45	Control	0.9545	n/a	Yes	2.783	n/a	5.0	GoodResponse	0	0.049	211.315	5	21	Feedback	Neutral	True
213.72	2.783	Control	0.9545	n/a	Yes	2.783	n/a	n/a	GoodResponse	0	0.0	n/a	5	21	ISIslide	Neutral	True
216.529	0.25	Control	0.9129999999999999	0.0	No	2.771	0.029	n/a	NoResponse	0	n/a	n/a	5	22	Cue	Neutral	True
216.779	4.0	Control	0.9129999999999999	0.001	No	2.771	0.0	n/a	NoResponse	0	n/a	n/a	5	22	Fixation	Neutral	True
220.775	0.18	Control	0.9129999999999999	0.004	No	2.771	-0.004	2.0	NoResponse	0	0.191	219.966	5	22	Target	Neutral	True
220.959	0.52	Control	0.9129999999999999	n/a	No	2.771	n/a	n/a	NoResponse	0	n/a	n/a	5	22	Blank	Neutral	True
220.966	0.3	Control	0.9129999999999999	0.004	No	2.771	-0.004	2.0	NoResponse	0	0.191	n/a	5	22	ButtonPress	Neutral	True
221.477	1.45	Control	0.9129999999999999	n/a	No	2.771	n/a	5.0	NoResponse	0	0.008	220.485	5	22	Feedback	Neutral	True
222.931	2.771	Control	0.9129999999999999	n/a	No	2.771	n/a	n/a	NoResponse	0	0.0	n/a	5	22	ISIslide	Neutral	True
225.723	0.25	Control	0.875	0.0	No	2.777	0.023	n/a	NoResponse	0	n/a	n/a	5	23	Cue	Neutral	True
225.974	3.9	Control	0.875	0.0	No	2.777	0.001	n/a	NoResponse	0	n/a	n/a	5	23	Fixation	Neutral	True
229.869	0.17	Control	0.875	0.004	No	2.777	-0.004	2.0	NoResponse	0	0.191	229.06	5	23	Target	Neutral	True
230.052	0.53	Control	0.875	n/a	No	2.777	n/a	n/a	NoResponse	0	n/a	n/a	5	23	Blank	Neutral	True
230.06	0.3	Control	0.875	0.004	No	2.777	-0.004	2.0	NoResponse	0	0.191	n/a	5	23	ButtonPress	Neutral	True
230.571	1.45	Control	0.875	n/a	No	2.777	n/a	5.0	NoResponse	0	0.036	229.607	5	23	Feedback	Neutral	True
232.025	2.777	Control	0.875	n/a	No	2.777	n/a	n/a	NoResponse	0	0.0	n/a	5	23	ISIslide	Neutral	True
234.817	0.25	Win2	0.84	0.0	No	3.133	0.017	n/a	NoResponse	0	n/a	n/a	5	24	Cue	MissedWin	True
235.067	3.95	Win2	0.84	0.001	No	3.133	0.0	n/a	NoResponse	0	n/a	n/a	5	24	Fixation	MissedWin	True
239.013	0.16	Win2	0.84	0.004	No	3.133	-0.004	2.0	NoResponse	0	0.182	238.195	5	24	Target	MissedWin	True
239.18	0.54	Win2	0.84	n/a	No	3.133	n/a	n/a	NoResponse	0	n/a	n/a	5	24	Blank	MissedWin	True
239.195	0.3	Win2	0.84	0.004	No	3.133	-0.004	2.0	NoResponse	0	0.182	n/a	5	24	ButtonPress	MissedWin	True
239.715	1.45	Win2	0.84	n/a	No	3.133	n/a	5.0	NoResponse	0	0.014	238.729	5	24	Feedback	MissedWin	True
241.169	3.133	Win2	0.84	n/a	No	3.133	n/a	n/a	NoResponse	0	0.0	n/a	5	24	ISIslide	MissedWin	True
244.329	0.25	Win2	0.8077	0.0	No	3.071	0.029	n/a	NoResponse	0	n/a	n/a	5	25	Cue	MissedWin	True
244.579	4.0	Win2	0.8077	0.0	No	3.071	0.0	n/a	NoResponse	0	n/a	n/a	5	25	Fixation	MissedWin	True
248.575	0.15	Win2	0.8077	0.004	No	3.071	-0.004	2.0	NoResponse	0	0.188	247.763	5	25	Target	MissedWin	True
248.725	0.55	Win2	0.8077	n/a	No	3.071	n/a	n/a	NoResponse	0	n/a	n/a	5	25	Blank	MissedWin	True
248.763	0.3	Win2	0.8077	0.004	No	3.071	-0.004	2.0	NoResponse	0	0.188	n/a	5	25	ButtonPress	MissedWin	True
249.277	1.45	Win2	0.8077	n/a	No	3.071	n/a	5.0	NoResponse	0	0.013	248.29	5	25	Feedback	MissedWin	True
250.731	3.071	Win2	0.8077	n/a	No	3.071	n/a	n/a	NoResponse	0	0.0	n/a	5	25	ISIslide	MissedWin	True
253.824	0.25	Win2	0.7778	0.0	No	2.926	0.024	n/a	NoResponse	0	n/a	n/a	5	26	Cue	MissedWin	True
254.074	3.95	Win2	0.7778	0.0	No	2.926	0.0	2.0	NoResponse	0	3.94	257.014	5	26	Fixation	MissedWin	True
258.014	0.3	Win2	0.7778	0.0	No	2.926	0.0	2.0	NoResponse	0	3.94	n/a	5	26	ButtonPress	MissedWin	True
258.02	0.15	Win2	0.7778	0.004	No	2.926	-0.004	n/a	NoResponse	0	n/a	n/a	5	26	Target	MissedWin	True
258.17	0.55	Win2	0.7778	n/a	No	2.926	n/a	n/a	NoResponse	0	n/a	n/a	5	26	Blank	MissedWin	True
258.722	1.45	Win2	0.7778	n/a	No	2.926	n/a	5.0	NoResponse	0	0.032	257.754	5	26	Feedback	MissedWin	True
260.176	2.926	Win2	0.7778	n/a	No	2.926	n/a	n/a	NoResponse	0	0.0	n/a	5	26	ISIslide	MissedWin	True
263.118	0.25	Lose2	0.75	0.0	No	2.832	0.018	n/a	NoResponse	-1	n/a	n/a	4	27	Cue	Loss	True
263.369	4.05	Lose2	0.75	0.0	No	2.832	0.001	n/a	NoResponse	-1	n/a	n/a	4	27	Fixation	Loss	True
267.414	0.15	Lose2	0.75	0.004	No	2.832	-0.004	2.0	NoResponse	-1	0.171	266.585	4	27	Target	Loss	True
267.565	0.55	Lose2	0.75	n/a	No	2.832	n/a	n/a	NoResponse	-1	n/a	n/a	4	27	Blank	Loss	True
267.585	0.3	Lose2	0.75	0.004	No	2.832	-0.004	2.0	NoResponse	-1	0.171	n/a	4	27	ButtonPress	Loss	True
268.116	1.45	Lose2	0.75	n/a	No	2.832	n/a	5.0	NoResponse	-1	0.008	267.124	4	27	Feedback	Loss	True
269.571	2.832	Lose2	0.75	n/a	No	2.832	n/a	n/a	NoResponse	-1	0.0	n/a	4	27	ISIslide	Loss	True
272.429	0.25	Control	0.7241	0.0	No	2.821	0.029	n/a	NoResponse	0	n/a	n/a	4	28	Cue	Neutral	True
272.68	4.05	Control	0.7241	0.0	No	2.821	0.001	n/a	NoResponse	0	n/a	n/a	4	28	Fixation	Neutral	True
276.726	0.15	Control	0.7241	0.003	No	2.821	-0.003	2.0	NoResponse	0	0.182	275.908	4	28	Target	Neutral	True
276.876	0.55	Control	0.7241	n/a	No	2.821	n/a	n/a	NoResponse	0	n/a	n/a	4	28	Blank	Neutral	True
276.908	0.3	Control	0.7241	0.003	No	2.821	-0.003	2.0	NoResponse	0	0.182	n/a	4	28	ButtonPress	Neutral	True
277.428	1.45	Control	0.7241	n/a	No	2.821	n/a	5.0	NoResponse	0	0.008	276.436	4	28	Feedback	Neutral	True
278.882	2.821	Control	0.7241	n/a	No	2.821	n/a	n/a	NoResponse	0	0.0	n/a	4	28	ISIslide	Neutral	True
281.724	0.25	Lose2	0.7	0.0	No	2.826	0.024	n/a	NoResponse	-1	n/a	n/a	3	29	Cue	Loss	True
281.975	3.95	Lose2	0.7	0.0	No	2.826	0.001	2.0	NoResponse	-1	3.581	284.556	3	29	Fixation	Loss	True
285.556	0.3	Lose2	0.7	0.0	No	2.826	0.001	2.0	NoResponse	-1	3.581	n/a	3	29	ButtonPress	Loss	True
285.92	0.15	Lose2	0.7	0.004	No	2.826	-0.004	n/a	NoResponse	-1	n/a	n/a	3	29	Target	Loss	True
286.07	0.55	Lose2	0.7	n/a	No	2.826	n/a	n/a	NoResponse	-1	n/a	n/a	3	29	Blank	Loss	True
286.622	1.45	Lose2	0.7	n/a	No	2.826	n/a	5.0	NoResponse	-1	0.033	285.655	3	29	Feedback	Loss	True
288.076	2.826	Lose2	0.7	n/a	No	2.826	n/a	n/a	NoResponse	-1	0.0	n/a	3	29	ISIslide	Loss	True
290.918	0.25	Win2	0.6774	0.0	No	2.782	0.018	n/a	NoResponse	0	n/a	n/a	3	30	Cue	MissedWin	True
291.169	3.9	Win2	0.6774	0.0	No	2.782	0.001	n/a	NoResponse	0	n/a	n/a	3	30	Fixation	MissedWin	True
295.064	0.15	Win2	0.6774	0.004	No	2.782	-0.004	2.0	NoResponse	0	0.178	294.242	3	30	Target	MissedWin	True
295.214	0.55	Win2	0.6774	n/a	No	2.782	n/a	n/a	NoResponse	0	n/a	n/a	3	30	Blank	MissedWin	True
295.242	0.3	Win2	0.6774	0.004	No	2.782	-0.004	2.0	NoResponse	0	0.178	n/a	3	30	ButtonPress	MissedWin	True
295.766	1.45	Win2	0.6774	n/a	No	2.782	n/a	5.0	NoResponse	0	0.011	294.777	3	30	Feedback	MissedWin	True
297.22	2.782	Win2	0.6774	n/a	No	2.782	n/a	n/a	NoResponse	0	0.0	n/a	3	30	ISIslide	MissedWin	True
300.029	0.25	Lose2	0.6562	0.0	No	2.821	0.029	n/a	NoResponse	-1	n/a	n/a	2	31	Cue	Loss	True
300.279	4.05	Lose2	0.6562	0.0	No	2.821	0.0	n/a	NoResponse	-1	n/a	n/a	2	31	Fixation	Loss	True
304.325	0.15	Lose2	0.6562	0.004	No	2.821	-0.004	2.0	NoResponse	-1	0.19	303.515	2	31	Target	Loss	True
304.475	0.55	Lose2	0.6562	n/a	No	2.821	n/a	n/a	NoResponse	-1	n/a	n/a	2	31	Blank	Loss	True
304.515	0.3	Lose2	0.6562	0.004	No	2.821	-0.004	2.0	NoResponse	-1	0.19	n/a	2	31	ButtonPress	Loss	True
305.027	1.45	Lose2	0.6562	n/a	No	2.821	n/a	5.0	NoResponse	-1	0.019	304.046	2	31	Feedback	Loss	True
306.481	2.821	Lose2	0.6562	n/a	No	2.821	n/a	n/a	NoResponse	-1	0.0	n/a	2	31	ISIslide	Loss	True
309.323	0.25	Lose2	0.6364	0.0	No	2.627	0.023	n/a	NoResponse	-1	n/a	n/a	1	32	Cue	Loss	True
309.574	4.15	Lose2	0.6364	0.0	No	2.627	0.001	n/a	NoResponse	-1	n/a	n/a	1	32	Fixation	Loss	True
313.72	0.15	Lose2	0.6364	0.003	No	2.627	-0.003	2.0	NoResponse	-1	0.164	312.884	1	32	Target	Loss	True
313.87	0.55	Lose2	0.6364	n/a	No	2.627	n/a	n/a	NoResponse	-1	n/a	n/a	1	32	Blank	Loss	True
313.884	0.3	Lose2	0.6364	0.003	No	2.627	-0.003	2.0	NoResponse	-1	0.164	n/a	1	32	ButtonPress	Loss	True
314.422	1.45	Lose2	0.6364	n/a	No	2.627	n/a	5.0	NoResponse	-1	0.038	313.46	1	32	Feedback	Loss	True
315.876	2.627	Lose2	0.6364	n/a	No	2.627	n/a	n/a	NoResponse	-1	0.0	n/a	1	32	ISIslide	Loss	True
318.517	0.25	Win2	0.6175999999999999	0.0	No	2.683	0.017	n/a	NoResponse	0	n/a	n/a	1	33	Cue	MissedWin	True
318.768	4.0	Win2	0.6175999999999999	0.0	No	2.683	0.001	n/a	NoResponse	0	n/a	n/a	1	33	Fixation	MissedWin	True
322.763	0.16	Win2	0.6175999999999999	0.004	No	2.683	-0.004	2.0	NoResponse	0	0.177	321.94	1	33	Target	MissedWin	True
322.93	0.54	Win2	0.6175999999999999	n/a	No	2.683	n/a	n/a	NoResponse	0	n/a	n/a	1	33	Blank	MissedWin	True
322.94	0.3	Win2	0.6175999999999999	0.004	No	2.683	-0.004	2.0	NoResponse	0	0.177	n/a	1	33	ButtonPress	MissedWin	True
323.465	1.45	Win2	0.6175999999999999	n/a	No	2.683	n/a	5.0	NoResponse	0	0.019	322.484	1	33	Feedback	MissedWin	True
324.92	2.683	Win2	0.6175999999999999	n/a	No	2.683	n/a	n/a	NoResponse	0	0.0	n/a	1	33	ISIslide	MissedWin	True
327.628	0.25	Lose2	0.6286	0.0	Yes	2.622	0.028	n/a	GoodResponse	0	n/a	n/a	1	34	Cue	AvoidedLoss	True
327.879	4.05	Lose2	0.6286	0.0	Yes	2.622	0.001	n/a	GoodResponse	0	n/a	n/a	1	34	Fixation	AvoidedLoss	True
331.924	0.17	Lose2	0.6286	0.004	Yes	2.622	-0.004	2.0	GoodResponse	0	0.167	331.091	1	34	Target	AvoidedLoss	True
332.091	0.3	Lose2	0.6286	0.004	Yes	2.622	-0.004	2.0	GoodResponse	0	0.167	n/a	1	34	ButtonPress	AvoidedLoss	True
332.108	0.53	Lose2	0.6286	n/a	Yes	2.622	n/a	n/a	GoodResponse	0	n/a	n/a	1	34	Blank	AvoidedLoss	True
332.626	1.45	Lose2	0.6286	n/a	Yes	2.622	n/a	5.0	GoodResponse	0	0.029	331.655	1	34	Feedback	AvoidedLoss	True
334.081	2.622	Lose2	0.6286	n/a	Yes	2.622	n/a	n/a	GoodResponse	0	0.0	n/a	1	34	ISIslide	AvoidedLoss	True
336.722	0.25	Lose2	0.6389	0.0	Yes	2.678	0.022	n/a	GoodResponse	0	n/a	n/a	1	35	Cue	AvoidedLoss	True
336.973	4.0	Lose2	0.6389	0.0	Yes	2.678	0.001	n/a	GoodResponse	0	n/a	n/a	1	35	Fixation	AvoidedLoss	True
340.968	0.18	Lose2	0.6389	0.004	Yes	2.678	-0.004	2.0	GoodResponse	0	0.17	340.138	1	35	Target	AvoidedLoss	True
341.138	0.3	Lose2	0.6389	0.004	Yes	2.678	-0.004	2.0	GoodResponse	0	0.17	n/a	1	35	ButtonPress	AvoidedLoss	True
341.152	0.52	Lose2	0.6389	n/a	Yes	2.678	n/a	n/a	GoodResponse	0	n/a	n/a	1	35	Blank	AvoidedLoss	True
341.67	1.45	Lose2	0.6389	n/a	Yes	2.678	n/a	5.0	GoodResponse	0	0.009	340.679	1	35	Feedback	AvoidedLoss	True
343.124	2.678	Lose2	0.6389	n/a	Yes	2.678	n/a	n/a	GoodResponse	0	0.0	n/a	1	35	ISIslide	AvoidedLoss	True
345.816	0.25	Control	0.6486	0.0	Yes	2.684	0.016	n/a	GoodResponse	0	n/a	n/a	1	36	Cue	Neutral	True
346.066	4.0	Control	0.6486	0.0	Yes	2.684	0.0	n/a	GoodResponse	0	n/a	n/a	1	36	Fixation	Neutral	True
350.062	0.19	Control	0.6486	0.004	Yes	2.684	-0.004	2.0	GoodResponse	0	0.178	349.24	1	36	Target	Neutral	True
350.24	0.3	Control	0.6486	0.004	Yes	2.684	-0.004	2.0	GoodResponse	0	0.178	n/a	1	36	ButtonPress	Neutral	True
350.262	0.51	Control	0.6486	n/a	Yes	2.684	n/a	n/a	GoodResponse	0	n/a	n/a	1	36	Blank	Neutral	True
350.764	1.45	Control	0.6486	n/a	Yes	2.684	n/a	5.0	GoodResponse	0	0.037	349.801	1	36	Feedback	Neutral	True
352.218	2.684	Control	0.6486	n/a	Yes	2.684	n/a	n/a	GoodResponse	0	0.0	n/a	1	36	ISIslide	Neutral	True
354.926	0.25	Win2	0.6315999999999999	0.0	No	2.874	0.026	n/a	NoResponse	0	n/a	n/a	1	37	Cue	MissedWin	False
355.177	4.0	Win2	0.6315999999999999	0.0	No	2.874	0.001	2.0	NoResponse	0	3.545	357.722	1	37	Fixation	MissedWin	False
358.722	0.3	Win2	0.6315999999999999	0.0	No	2.874	0.001	2.0	NoResponse	0	3.545	n/a	1	37	ButtonPress	MissedWin	False
359.172	0.2	Win2	0.6315999999999999	0.004	No	2.874	-0.004	2.0	NoResponse	0	0.489	358.661	1	37	Target	MissedWin	False
359.373	0.5	Win2	0.6315999999999999	n/a	No	2.874	n/a	n/a	NoResponse	0	n/a	n/a	1	37	Blank	MissedWin	False
359.661	0.3	Win2	0.6315999999999999	0.004	No	2.874	-0.004	2.0	NoResponse	0	0.489	n/a	1	37	ButtonPress	MissedWin	False
359.874	1.45	Win2	0.6315999999999999	n/a	No	2.874	n/a	5.0	NoResponse	0	0.001	358.875	1	37	Feedback	MissedWin	False
361.329	2.874	Win2	0.6315999999999999	n/a	No	2.874	n/a	n/a	NoResponse	0	0.0	n/a	1	37	ISIslide	MissedWin	False
364.221	0.25	Lose2	0.6409999999999999	0.0	Yes	2.829	0.021	n/a	GoodResponse	0	n/a	n/a	1	38	Cue	AvoidedLoss	True
364.472	3.95	Lose2	0.6409999999999999	0.0	Yes	2.829	0.001	n/a	GoodResponse	0	n/a	n/a	1	38	Fixation	AvoidedLoss	True
368.417	0.21	Lose2	0.6409999999999999	0.004	Yes	2.829	-0.004	2.0	GoodResponse	0	0.167	367.584	1	38	Target	AvoidedLoss	True
368.584	0.3	Lose2	0.6409999999999999	0.004	Yes	2.829	-0.004	2.0	GoodResponse	0	0.167	n/a	1	38	ButtonPress	AvoidedLoss	True
368.634	0.49	Lose2	0.6409999999999999	n/a	Yes	2.829	n/a	n/a	GoodResponse	0	n/a	n/a	1	38	Blank	AvoidedLoss	True
369.119	1.45	Lose2	0.6409999999999999	n/a	Yes	2.829	n/a	5.0	GoodResponse	0	0.024	368.143	1	38	Feedback	AvoidedLoss	True
370.573	2.829	Lose2	0.6409999999999999	n/a	Yes	2.829	n/a	n/a	GoodResponse	0	0.0	n/a	1	38	ISIslide	AvoidedLoss	True
373.432	0.25	Win2	0.65	0.0	Yes	2.968	0.032	n/a	GoodResponse	1	n/a	n/a	2	39	Cue	Win	True
373.682	4.1	Win2	0.65	0.001	Yes	2.968	0.0	n/a	GoodResponse	1	n/a	n/a	2	39	Fixation	Win	True
377.778	0.22	Win2	0.65	0.004	Yes	2.968	-0.004	2.0	GoodResponse	1	0.166	376.944	2	39	Target	Win	True
377.944	0.3	Win2	0.65	0.004	Yes	2.968	-0.004	2.0	GoodResponse	1	0.166	n/a	2	39	ButtonPress	Win	True
378.012	0.48	Win2	0.65	n/a	Yes	2.968	n/a	n/a	GoodResponse	1	n/a	n/a	2	39	Blank	Win	True
378.48	1.45	Win2	0.65	n/a	Yes	2.968	n/a	5.0	GoodResponse	1	0.028	377.508	2	39	Feedback	Win	True
379.934	2.968	Win2	0.65	n/a	Yes	2.968	n/a	n/a	GoodResponse	1	0.0	n/a	2	39	ISIslide	Win	True
382.927	0.25	Win2	0.6585	0.0	Yes	2.723	0.027	n/a	GoodResponse	1	n/a	n/a	3	40	Cue	Win	True
383.177	3.95	Win2	0.6585	0.001	Yes	2.723	0.0	n/a	GoodResponse	1	n/a	n/a	3	40	Fixation	Win	True
387.123	0.23	Win2	0.6585	0.004	Yes	2.723	-0.004	2.0	GoodResponse	1	0.182	386.305	3	40	Target	Win	True
387.305	0.3	Win2	0.6585	0.004	Yes	2.723	-0.004	2.0	GoodResponse	1	0.182	n/a	3	40	ButtonPress	Win	True
387.357	0.47	Win2	0.6585	n/a	Yes	2.723	n/a	n/a	GoodResponse	1	n/a	n/a	3	40	Blank	Win	True
387.825	1.45	Win2	0.6585	n/a	Yes	2.723	n/a	5.0	GoodResponse	1	0.0	386.825	3	40	Feedback	Win	True
389.279	2.723	Win2	0.6585	n/a	Yes	2.723	n/a	n/a	GoodResponse	1	0.0	n/a	3	40	ISIslide	Win	True
392.021	0.25	Win2	0.6667000000000001	0.0	Yes	2.779	0.021	n/a	GoodResponse	1	n/a	n/a	4	41	Cue	Win	True
392.271	3.9	Win2	0.6667000000000001	0.0	Yes	2.779	0.0	n/a	GoodResponse	1	n/a	n/a	4	41	Fixation	Win	True
396.183	0.23	Win2	0.6667000000000001	0.0	Yes	2.779	0.012	2.0	GoodResponse	1	0.175	395.358	4	41	Target	Win	True
396.358	0.3	Win2	0.6667000000000001	0.0	Yes	2.779	0.012	2.0	GoodResponse	1	0.175	n/a	4	41	ButtonPress	Win	True
396.4	0.47	Win2	0.6667000000000001	n/a	Yes	2.779	n/a	n/a	GoodResponse	1	n/a	n/a	4	41	Blank	Win	True
396.868	1.45	Win2	0.6667000000000001	n/a	Yes	2.779	n/a	5.0	GoodResponse	1	0.03	395.898	4	41	Feedback	Win	True
398.323	2.779	Win2	0.6667000000000001	n/a	Yes	2.779	n/a	n/a	GoodResponse	1	0.0	n/a	4	41	ISIslide	Win	True
401.115	0.25	Control	0.6512	0.0	No	2.935	0.015	n/a	NoResponse	0	n/a	n/a	4	42	Cue	Neutral	True
401.365	3.85	Control	0.6512	0.0	No	2.935	0.0	n/a	NoResponse	0	n/a	n/a	4	42	Fixation	Neutral	True
405.227	0.22	Control	0.6512	0.0	No	2.935	0.012	2.0	NoResponse	0	0.323	404.55	4	42	Target	Neutral	True
405.444	0.48	Control	0.6512	n/a	No	2.935	n/a	n/a	NoResponse	0	n/a	n/a	4	42	Blank	Neutral	True
405.55	0.3	Control	0.6512	0.0	No	2.935	0.012	2.0	NoResponse	0	0.323	n/a	4	42	ButtonPress	Neutral	True
405.912	1.45	Control	0.6512	n/a	No	2.935	n/a	5.0	NoResponse	0	0.011	404.923	4	42	Feedback	Neutral	True
407.367	2.935	Control	0.6512	n/a	No	2.935	n/a	n/a	NoResponse	0	0.0	n/a	4	42	ISIslide	Neutral	True
410.325	0.25	Win2	0.6591	0.001	Yes	3.175	0.025	n/a	GoodResponse	1	n/a	n/a	5	43	Cue	Win	False
410.576	4.0	Win2	0.6591	0.0	Yes	3.175	0.001	2.0	GoodResponse	1	3.82	413.396	5	43	Fixation	Win	False
414.396	0.3	Win2	0.6591	0.0	Yes	3.175	0.001	2.0	GoodResponse	1	3.82	n/a	5	43	ButtonPress	Win	False
414.571	0.23	Win2	0.6591	0.004	Yes	3.175	-0.004	2.0	GoodResponse	1	0.204	413.775	5	43	Target	Win	False
414.775	0.3	Win2	0.6591	0.004	Yes	3.175	-0.004	2.0	GoodResponse	1	0.204	n/a	5	43	ButtonPress	Win	False
414.806	0.47	Win2	0.6591	n/a	Yes	3.175	n/a	n/a	GoodResponse	1	n/a	n/a	5	43	Blank	Win	False
415.274	1.45	Win2	0.6591	n/a	Yes	3.175	n/a	5.0	GoodResponse	1	0.015	414.289	5	43	Feedback	Win	False
416.728	3.175	Win2	0.6591	n/a	Yes	3.175	n/a	n/a	GoodResponse	1	0.0	n/a	5	43	ISIslide	Win	False
419.921	0.25	Win2	0.6667000000000001	0.0	Yes	2.979	0.021	n/a	GoodResponse	1	n/a	n/a	6	44	Cue	Win	True
420.172	4.0	Win2	0.6667000000000001	0.0	Yes	2.979	0.001	n/a	GoodResponse	1	n/a	n/a	6	44	Fixation	Win	True
424.167	0.23	Win2	0.6667000000000001	0.004	Yes	2.979	-0.004	2.0	GoodResponse	1	0.196	423.363	6	44	Target	Win	True
424.363	0.3	Win2	0.6667000000000001	0.004	Yes	2.979	-0.004	2.0	GoodResponse	1	0.196	n/a	6	44	ButtonPress	Win	True
424.401	0.47	Win2	0.6667000000000001	n/a	Yes	2.979	n/a	n/a	GoodResponse	1	n/a	n/a	6	44	Blank	Win	True
424.869	1.45	Win2	0.6667000000000001	n/a	Yes	2.979	n/a	5.0	GoodResponse	1	0.029	423.898	6	44	Feedback	Win	True
426.323	2.979	Win2	0.6667000000000001	n/a	Yes	2.979	n/a	n/a	GoodResponse	1	0.0	n/a	6	44	ISIslide	Win	True
429.316	0.25	Control	0.6739	0.0	Yes	2.884	0.016	n/a	GoodResponse	0	n/a	n/a	6	45	Cue	Neutral	False
429.566	4.1	Control	0.6739	0.0	Yes	2.884	0.0	2.0	GoodResponse	0	3.834	432.4	6	45	Fixation	Neutral	False
433.4	0.3	Control	0.6739	0.0	Yes	2.884	0.0	2.0	GoodResponse	0	3.834	n/a	6	45	ButtonPress	Neutral	False
433.662	0.22	Control	0.6739	0.004	Yes	2.884	-0.004	2.0	GoodResponse	0	0.178	432.84	6	45	Target	Neutral	False
433.84	0.3	Control	0.6739	0.004	Yes	2.884	-0.004	2.0	GoodResponse	0	0.178	n/a	6	45	ButtonPress	Neutral	False
433.896	0.48	Control	0.6739	n/a	Yes	2.884	n/a	n/a	GoodResponse	0	n/a	n/a	6	45	Blank	Neutral	False
434.364	1.45	Control	0.6739	n/a	Yes	2.884	n/a	5.0	GoodResponse	0	0.046	433.41	6	45	Feedback	Neutral	False
435.818	2.884	Control	0.6739	n/a	Yes	2.884	n/a	n/a	GoodResponse	0	0.0	n/a	6	45	ISIslide	Neutral	False
438.727	0.25	Lose2	0.6809000000000001	0.0	Yes	3.373	0.027	n/a	GoodResponse	0	n/a	n/a	6	46	Cue	AvoidedLoss	True
438.978	4.0	Lose2	0.6809000000000001	0.0	Yes	3.373	0.001	n/a	GoodResponse	0	n/a	n/a	6	46	Fixation	AvoidedLoss	True
442.973	0.21	Lose2	0.6809000000000001	0.004	Yes	3.373	-0.004	2.0	GoodResponse	0	0.206	442.179	6	46	Target	AvoidedLoss	True
443.179	0.3	Lose2	0.6809000000000001	0.004	Yes	3.373	-0.004	2.0	GoodResponse	0	0.206	n/a	6	46	ButtonPress	AvoidedLoss	True
443.19	0.49	Lose2	0.6809000000000001	n/a	Yes	3.373	n/a	n/a	GoodResponse	0	n/a	n/a	6	46	Blank	AvoidedLoss	True
443.675	1.45	Lose2	0.6809000000000001	n/a	Yes	3.373	n/a	5.0	GoodResponse	0	0.008	442.683	6	46	Feedback	AvoidedLoss	True
445.13	3.373	Lose2	0.6809000000000001	n/a	Yes	3.373	n/a	n/a	GoodResponse	0	0.0	n/a	6	46	ISIslide	AvoidedLoss	True
448.523	0.25	Lose2	0.6875	0.0	Yes	2.677	0.023	n/a	GoodResponse	0	n/a	n/a	6	47	Cue	AvoidedLoss	True
448.774	4.0	Lose2	0.6875	0.0	Yes	2.677	0.001	n/a	GoodResponse	0	n/a	n/a	6	47	Fixation	AvoidedLoss	True
452.769	0.2	Lose2	0.6875	0.004	Yes	2.677	-0.004	2.0	GoodResponse	0	0.175	451.944	6	47	Target	AvoidedLoss	True
452.944	0.3	Lose2	0.6875	0.004	Yes	2.677	-0.004	2.0	GoodResponse	0	0.175	n/a	6	47	ButtonPress	AvoidedLoss	True
452.97	0.5	Lose2	0.6875	n/a	Yes	2.677	n/a	n/a	GoodResponse	0	n/a	n/a	6	47	Blank	AvoidedLoss	True
453.471	1.45	Lose2	0.6875	n/a	Yes	2.677	n/a	5.0	GoodResponse	0	0.012	452.483	6	47	Feedback	AvoidedLoss	True
454.926	2.677	Lose2	0.6875	n/a	Yes	2.677	n/a	n/a	GoodResponse	0	0.0	n/a	6	47	ISIslide	AvoidedLoss	True
457.617	0.25	Lose2	0.6939	0.0	Yes	3.033	0.017	n/a	GoodResponse	0	n/a	n/a	6	48	Cue	AvoidedLoss	True
457.868	3.95	Lose2	0.6939	0.0	Yes	3.033	0.001	n/a	GoodResponse	0	n/a	n/a	6	48	Fixation	AvoidedLoss	True
461.813	0.19	Lose2	0.6939	0.004	Yes	3.033	-0.004	2.0	GoodResponse	0	0.179	460.992	6	48	Target	AvoidedLoss	True
461.992	0.3	Lose2	0.6939	0.004	Yes	3.033	-0.004	2.0	GoodResponse	0	0.179	n/a	6	48	ButtonPress	AvoidedLoss	True
462.013	0.51	Lose2	0.6939	n/a	Yes	3.033	n/a	n/a	GoodResponse	0	n/a	n/a	6	48	Blank	AvoidedLoss	True
462.515	1.45	Lose2	0.6939	n/a	Yes	3.033	n/a	5.0	GoodResponse	0	0.042	461.557	6	48	Feedback	AvoidedLoss	True
463.969	3.033	Lose2	0.6939	n/a	Yes	3.033	n/a	n/a	GoodResponse	0	0.0	n/a	6	48	ISIslide	AvoidedLoss	True
467.028	0.25	Control	0.68	0.001	No	2.872	0.028	n/a	NoResponse	0	n/a	n/a	6	49	Cue	Neutral	True
467.279	4.0	Control	0.68	0.0	No	2.872	0.001	n/a	NoResponse	0	n/a	n/a	6	49	Fixation	Neutral	True
471.275	0.18	Control	0.68	0.003	No	2.872	-0.003	2.0	NoResponse	0	0.234	470.509	6	49	Target	Neutral	True
471.458	0.52	Control	0.68	n/a	No	2.872	n/a	n/a	NoResponse	0	n/a	n/a	6	49	Blank	Neutral	True
471.509	0.3	Control	0.68	0.003	No	2.872	-0.003	2.0	NoResponse	0	0.234	n/a	6	49	ButtonPress	Neutral	True
471.977	1.45	Control	0.68	n/a	No	2.872	n/a	5.0	NoResponse	0	0.043	471.02	6	49	Feedback	Neutral	True
473.431	2.872	Control	0.68	n/a	No	2.872	n/a	n/a	NoResponse	0	0.0	n/a	6	49	ISIslide	Neutral	True
476.323	0.25	Control	0.6667000000000001	0.0	No	2.777	0.023	n/a	LatePress	0	n/a	n/a	6	50	Cue	Neutral	True
476.574	4.0	Control	0.6667000000000001	0.0	No	2.777	0.001	n/a	LatePress	0	n/a	n/a	6	50	Fixation	Neutral	True
480.569	0.17	Control	0.6667000000000001	0.004	No	2.777	-0.004	2.0	LatePress	0	0.178	479.747	6	50	Target	Neutral	True
480.747	0.3	Control	0.6667000000000001	0.004	No	2.777	-0.004	2.0	LatePress	0	0.178	n/a	6	50	ButtonPress	Neutral	True
480.753	0.53	Control	0.6667000000000001	n/a	No	2.777	n/a	n/a	LatePress	0	n/a	n/a	6	50	Blank	Neutral	True
481.271	1.45	Control	0.6667000000000001	n/a	No	2.777	n/a	5.0	LatePress	0	0.016	480.287	6	50	Feedback	Neutral	True
482.725	2.777	Control	0.6667000000000001	n/a	No	2.777	n/a	n/a	LatePress	0	0.0	n/a	6	50	ISIslide	Neutral	True
485.517	0.25	Control	0.6537999999999999	0.0	No	2.733	0.017	n/a	NoResponse	0	n/a	n/a	6	51	Cue	Neutral	True
485.768	3.95	Control	0.6537999999999999	0.0	No	2.733	0.001	n/a	NoResponse	0	n/a	n/a	6	51	Fixation	Neutral	True
489.713	0.16	Control	0.6537999999999999	0.004	No	2.733	-0.004	2.0	NoResponse	0	0.23	488.943	6	51	Target	Neutral	True
489.88	0.54	Control	0.6537999999999999	n/a	No	2.733	n/a	n/a	NoResponse	0	n/a	n/a	6	51	Blank	Neutral	True
489.943	0.3	Control	0.6537999999999999	0.004	No	2.733	-0.004	2.0	NoResponse	0	0.23	n/a	6	51	ButtonPress	Neutral	True
490.415	1.45	Control	0.6537999999999999	n/a	No	2.733	n/a	5.0	NoResponse	0	0.043	489.458	6	51	Feedback	Neutral	True
491.87	2.733	Control	0.6537999999999999	n/a	No	2.733	n/a	n/a	NoResponse	0	0.0	n/a	6	51	ISIslide	Neutral	True
494.628	0.25	Control	0.6415000000000001	0.0	No	2.622	0.028	n/a	NoResponse	0	n/a	n/a	6	52	Cue	Neutral	True
494.879	4.05	Control	0.6415000000000001	0.0	No	2.622	0.001	n/a	NoResponse	0	n/a	n/a	6	52	Fixation	Neutral	True
498.924	0.17	Control	0.6415000000000001	0.004	No	2.622	-0.004	2.0	NoResponse	0	0.219	498.143	6	52	Target	Neutral	True
499.108	0.53	Control	0.6415000000000001	n/a	No	2.622	n/a	n/a	NoResponse	0	n/a	n/a	6	52	Blank	Neutral	True
499.143	0.3	Control	0.6415000000000001	0.004	No	2.622	-0.004	2.0	NoResponse	0	0.219	n/a	6	52	ButtonPress	Neutral	True
499.626	1.45	Control	0.6415000000000001	n/a	No	2.622	n/a	5.0	NoResponse	0	0.007	498.633	6	52	Feedback	Neutral	True
501.08	2.622	Control	0.6415000000000001	n/a	No	2.622	n/a	n/a	NoResponse	0	0.0	n/a	6	52	ISIslide	Neutral	True
503.722	0.25	Win2	0.6296	0.0	No	2.928	0.022	n/a	NoResponse	0	n/a	n/a	6	53	Cue	MissedWin	True
503.972	4.05	Win2	0.6296	0.001	No	2.928	0.0	n/a	NoResponse	0	n/a	n/a	6	53	Fixation	MissedWin	True
508.018	0.18	Win2	0.6296	0.004	No	2.928	-0.004	2.0	NoResponse	0	0.192	507.21	6	53	Target	MissedWin	True
508.202	0.52	Win2	0.6296	n/a	No	2.928	n/a	n/a	NoResponse	0	n/a	n/a	6	53	Blank	MissedWin	True
508.21	0.3	Win2	0.6296	0.004	No	2.928	-0.004	2.0	NoResponse	0	0.192	n/a	6	53	ButtonPress	MissedWin	True
508.72	1.45	Win2	0.6296	n/a	No	2.928	n/a	5.0	NoResponse	0	0.031	507.751	6	53	Feedback	MissedWin	True
510.174	2.928	Win2	0.6296	n/a	No	2.928	n/a	n/a	NoResponse	0	0.0	n/a	6	53	ISIslide	MissedWin	True
513.116	0.25	Win2	0.6364	0.001	Yes	2.734	0.016	n/a	GoodResponse	1	n/a	n/a	7	54	Cue	Win	True
513.367	3.95	Win2	0.6364	0.0	Yes	2.734	0.001	n/a	GoodResponse	1	n/a	n/a	7	54	Fixation	Win	True
517.312	0.19	Win2	0.6364	0.004	Yes	2.734	-0.004	2.0	GoodResponse	1	0.177	516.489	7	54	Target	Win	True
517.489	0.3	Win2	0.6364	0.004	Yes	2.734	-0.004	2.0	GoodResponse	1	0.177	n/a	7	54	ButtonPress	Win	True
517.513	0.51	Win2	0.6364	n/a	Yes	2.734	n/a	n/a	GoodResponse	1	n/a	n/a	7	54	Blank	Win	True
518.014	1.45	Win2	0.6364	n/a	Yes	2.734	n/a	5.0	GoodResponse	1	0.008	517.022	7	54	Feedback	Win	True
519.469	2.734	Win2	0.6364	n/a	Yes	2.734	n/a	n/a	GoodResponse	1	0.0	n/a	7	54	ISIslide	Win	True
522.227	0.25	Control	0.6429	0.0	Yes	3.023	0.027	n/a	GoodResponse	0	n/a	n/a	7	55	Cue	Neutral	True
522.478	3.95	Control	0.6429	0.0	Yes	3.023	0.001	n/a	GoodResponse	0	n/a	n/a	7	55	Fixation	Neutral	True
526.423	0.2	Control	0.6429	0.004	Yes	3.023	-0.004	2.0	GoodResponse	0	0.17	525.593	7	55	Target	Neutral	True
526.593	0.3	Control	0.6429	0.004	Yes	3.023	-0.004	2.0	GoodResponse	0	0.17	n/a	7	55	ButtonPress	Neutral	True
526.624	0.5	Control	0.6429	n/a	Yes	3.023	n/a	n/a	GoodResponse	0	n/a	n/a	7	55	Blank	Neutral	True
527.125	1.45	Control	0.6429	n/a	Yes	3.023	n/a	5.0	GoodResponse	0	0.016	526.141	7	55	Feedback	Neutral	True
528.579	3.023	Control	0.6429	n/a	Yes	3.023	n/a	n/a	GoodResponse	0	0.0	n/a	7	55	ISIslide	Neutral	True
531.622	0.25	Control	0.6491	0.0	Yes	2.828	0.022	n/a	GoodResponse	0	n/a	n/a	7	56	Cue	Neutral	True
531.873	3.95	Control	0.6491	0.0	Yes	2.828	0.001	n/a	GoodResponse	0	n/a	n/a	7	56	Fixation	Neutral	True
535.818	0.21	Control	0.6491	0.004	Yes	2.828	-0.004	2.0	GoodResponse	0	0.185	535.003	7	56	Target	Neutral	True
536.003	0.3	Control	0.6491	0.004	Yes	2.828	-0.004	2.0	GoodResponse	0	0.185	n/a	7	56	ButtonPress	Neutral	True
536.035	0.49	Control	0.6491	n/a	Yes	2.828	n/a	n/a	GoodResponse	0	n/a	n/a	7	56	Blank	Neutral	True
536.52	1.45	Control	0.6491	n/a	Yes	2.828	n/a	5.0	GoodResponse	0	0.035	535.555	7	56	Feedback	Neutral	True
537.974	2.828	Control	0.6491	n/a	Yes	2.828	n/a	n/a	GoodResponse	0	0.0	n/a	7	56	ISIslide	Neutral	True
540.816	0.25	Control	0.6552	0.0	Yes	3.484	0.016	n/a	GoodResponse	0	n/a	n/a	7	57	Cue	Neutral	True
541.067	4.0	Control	0.6552	0.0	Yes	3.484	0.001	n/a	GoodResponse	0	n/a	n/a	7	57	Fixation	Neutral	True
545.062	0.22	Control	0.6552	0.004	Yes	3.484	-0.004	2.0	GoodResponse	0	0.185	544.247	7	57	Target	Neutral	True
545.247	0.3	Control	0.6552	0.004	Yes	3.484	-0.004	2.0	GoodResponse	0	0.185	n/a	7	57	ButtonPress	Neutral	True
545.296	0.48	Control	0.6552	n/a	Yes	3.484	n/a	n/a	GoodResponse	0	n/a	n/a	7	57	Blank	Neutral	True
545.764	1.45	Control	0.6552	n/a	Yes	3.484	n/a	5.0	GoodResponse	0	0.011	544.775	7	57	Feedback	Neutral	True
547.219	3.484	Control	0.6552	n/a	Yes	3.484	n/a	n/a	GoodResponse	0	0.0	n/a	7	57	ISIslide	Neutral	True
550.729	0.25	Win2	0.6609999999999999	0.0	Yes	2.721	0.029	n/a	GoodResponse	1	n/a	n/a	8	58	Cue	Win	True
550.98	4.05	Win2	0.6609999999999999	0.0	Yes	2.721	0.001	n/a	GoodResponse	1	n/a	n/a	8	58	Fixation	Win	True
555.025	0.22	Win2	0.6609999999999999	0.004	Yes	2.721	-0.004	2.0	GoodResponse	1	0.173	554.198	8	58	Target	Win	True
555.198	0.3	Win2	0.6609999999999999	0.004	Yes	2.721	-0.004	2.0	GoodResponse	1	0.173	n/a	8	58	ButtonPress	Win	True
555.259	0.48	Win2	0.6609999999999999	n/a	Yes	2.721	n/a	n/a	GoodResponse	1	n/a	n/a	8	58	Blank	Win	True
555.727	1.45	Win2	0.6609999999999999	n/a	Yes	2.721	n/a	5.0	GoodResponse	1	0.048	554.775	8	58	Feedback	Win	True
557.182	2.721	Win2	0.6609999999999999	n/a	Yes	2.721	n/a	n/a	GoodResponse	1	0.0	n/a	8	58	ISIslide	Win	True
559.923	0.25	Lose2	0.6667000000000001	0.0	Yes	2.677	0.023	n/a	GoodResponse	0	n/a	n/a	8	59	Cue	AvoidedLoss	True
560.174	4.0	Lose2	0.6667000000000001	0.0	Yes	2.677	0.001	n/a	GoodResponse	0	n/a	n/a	8	59	Fixation	AvoidedLoss	True
564.169	0.22	Lose2	0.6667000000000001	0.004	Yes	2.677	-0.004	2.0	GoodResponse	0	0.213	563.382	8	59	Target	AvoidedLoss	True
564.382	0.3	Lose2	0.6667000000000001	0.004	Yes	2.677	-0.004	2.0	GoodResponse	0	0.213	n/a	8	59	ButtonPress	AvoidedLoss	True
564.403	0.48	Lose2	0.6667000000000001	n/a	Yes	2.677	n/a	n/a	GoodResponse	0	n/a	n/a	8	59	Blank	AvoidedLoss	True
564.871	1.45	Lose2	0.6667000000000001	n/a	Yes	2.677	n/a	5.0	GoodResponse	0	0.026	563.897	8	59	Feedback	AvoidedLoss	True
566.326	2.677	Lose2	0.6667000000000001	n/a	Yes	2.677	n/a	n/a	GoodResponse	0	0.0	n/a	8	59	ISIslide	AvoidedLoss	True
569.017	0.25	Control	0.6557	0.0	No	2.683	0.017	n/a	NoResponse	0	n/a	n/a	8	60	Cue	Neutral	True
569.268	4.0	Control	0.6557	0.0	No	2.683	0.001	n/a	NoResponse	0	n/a	n/a	8	60	Fixation	Neutral	True
573.263	0.21	Control	0.6557	0.004	No	2.683	-0.004	2.0	NoResponse	0	0.38	572.643	8	60	Target	Neutral	True
573.48	0.49	Control	0.6557	n/a	No	2.683	n/a	n/a	NoResponse	0	n/a	n/a	8	60	Blank	Neutral	True
573.643	0.3	Control	0.6557	0.004	No	2.683	-0.004	2.0	NoResponse	0	0.38	n/a	8	60	ButtonPress	Neutral	True
573.965	1.45	Control	0.6557	n/a	No	2.683	n/a	5.0	NoResponse	0	0.008	572.973	8	60	Feedback	Neutral	True
575.42	2.683	Control	0.6557	n/a	No	2.683	n/a	n/a	NoResponse	0	0.0	n/a	8	60	ISIslide	Neutral	True
578.128	0.25	Lose2	0.6613	0.0	Yes	2.972	0.028	n/a	GoodResponse	0	n/a	n/a	8	61	Cue	AvoidedLoss	True
578.378	4.0	Lose2	0.6613	0.001	Yes	2.972	0.0	n/a	GoodResponse	0	n/a	n/a	8	61	Fixation	AvoidedLoss	True
582.374	0.21	Lose2	0.6613	0.004	Yes	2.972	-0.004	2.0	GoodResponse	0	0.201	581.575	8	61	Target	AvoidedLoss	True
582.575	0.3	Lose2	0.6613	0.004	Yes	2.972	-0.004	2.0	GoodResponse	0	0.201	n/a	8	61	ButtonPress	AvoidedLoss	True
582.591	0.49	Lose2	0.6613	n/a	Yes	2.972	n/a	n/a	GoodResponse	0	n/a	n/a	8	61	Blank	AvoidedLoss	True
583.076	1.45	Lose2	0.6613	n/a	Yes	2.972	n/a	5.0	GoodResponse	0	0.015	582.091	8	61	Feedback	AvoidedLoss	True
584.53	2.972	Lose2	0.6613	n/a	Yes	2.972	n/a	n/a	GoodResponse	0	0.0	n/a	8	61	ISIslide	AvoidedLoss	True
587.523	0.25	Lose2	0.6667000000000001	0.0	Yes	2.877	0.023	n/a	GoodResponse	0	n/a	n/a	8	62	Cue	AvoidedLoss	False
587.773	3.9	Lose2	0.6667000000000001	0.0	Yes	2.877	0.0	2.0	GoodResponse	0	3.361	590.134	8	62	Fixation	AvoidedLoss	False
591.134	0.3	Lose2	0.6667000000000001	0.0	Yes	2.877	0.0	2.0	GoodResponse	0	3.361	n/a	8	62	ButtonPress	AvoidedLoss	False
591.685	0.21	Lose2	0.6667000000000001	0.0	Yes	2.877	0.012	2.0	GoodResponse	0	0.179	590.864	8	62	Target	AvoidedLoss	False
591.864	0.3	Lose2	0.6667000000000001	0.0	Yes	2.877	0.012	2.0	GoodResponse	0	0.179	n/a	8	62	ButtonPress	AvoidedLoss	False
591.886	0.49	Lose2	0.6667000000000001	n/a	Yes	2.877	n/a	n/a	GoodResponse	0	n/a	n/a	8	62	Blank	AvoidedLoss	False
592.37	1.45	Lose2	0.6667000000000001	n/a	Yes	2.877	n/a	5.0	GoodResponse	0	0.039	591.409	8	62	Feedback	AvoidedLoss	False
593.825	2.877	Lose2	0.6667000000000001	n/a	Yes	2.877	n/a	n/a	GoodResponse	0	0.0	n/a	8	62	ISIslide	AvoidedLoss	False
596.717	0.25	Lose2	0.6718999999999999	0.0	Yes	2.633	0.017	n/a	GoodResponse	0	n/a	n/a	8	63	Cue	AvoidedLoss	True
596.967	4.05	Lose2	0.6718999999999999	0.001	Yes	2.633	0.0	n/a	GoodResponse	0	n/a	n/a	8	63	Fixation	AvoidedLoss	True
601.013	0.2	Lose2	0.6718999999999999	0.004	Yes	2.633	-0.004	2.0	GoodResponse	0	0.185	600.198	8	63	Target	AvoidedLoss	True
601.198	0.3	Lose2	0.6718999999999999	0.004	Yes	2.633	-0.004	2.0	GoodResponse	0	0.185	n/a	8	63	ButtonPress	AvoidedLoss	True
601.213	0.5	Lose2	0.6718999999999999	n/a	Yes	2.633	n/a	n/a	GoodResponse	0	n/a	n/a	8	63	Blank	AvoidedLoss	True
601.715	1.45	Lose2	0.6718999999999999	n/a	Yes	2.633	n/a	5.0	GoodResponse	0	0.011	600.726	8	63	Feedback	AvoidedLoss	True
603.169	2.633	Lose2	0.6718999999999999	n/a	Yes	2.633	n/a	n/a	GoodResponse	0	0.0	n/a	8	63	ISIslide	AvoidedLoss	True
605.827	0.25	Win2	0.6615000000000001	0.0	No	3.123	0.027	n/a	NoResponse	0	n/a	n/a	8	64	Cue	MissedWin	True
606.078	4.15	Win2	0.6615000000000001	0.0	No	3.123	0.001	n/a	NoResponse	0	n/a	n/a	8	64	Fixation	MissedWin	True
610.224	0.19	Win2	0.6615000000000001	0.003	No	3.123	-0.003	2.0	NoResponse	0	0.246	609.47	8	64	Target	MissedWin	True
610.424	0.51	Win2	0.6615000000000001	n/a	No	3.123	n/a	n/a	NoResponse	0	n/a	n/a	8	64	Blank	MissedWin	True
610.47	0.3	Win2	0.6615000000000001	0.003	No	3.123	-0.003	2.0	NoResponse	0	0.246	n/a	8	64	ButtonPress	MissedWin	True
610.926	1.45	Win2	0.6615000000000001	n/a	No	3.123	n/a	5.0	NoResponse	0	0.019	609.945	8	64	Feedback	MissedWin	True
612.38	3.123	Win2	0.6615000000000001	n/a	No	3.123	n/a	n/a	NoResponse	0	0.0	n/a	8	64	ISIslide	MissedWin	True
615.523	0.25	Control	0.6667000000000001	0.0	Yes	2.777	0.023	n/a	GoodResponse	0	n/a	n/a	8	65	Cue	Neutral	True
615.774	4.0	Control	0.6667000000000001	0.0	Yes	2.777	0.001	n/a	GoodResponse	0	n/a	n/a	8	65	Fixation	Neutral	True
619.769	0.19	Control	0.6667000000000001	0.004	Yes	2.777	-0.004	2.0	GoodResponse	0	0.187	618.956	8	65	Target	Neutral	True
619.956	0.3	Control	0.6667000000000001	0.004	Yes	2.777	-0.004	2.0	GoodResponse	0	0.187	n/a	8	65	ButtonPress	Neutral	True
619.97	0.51	Control	0.6667000000000001	n/a	Yes	2.777	n/a	n/a	GoodResponse	0	n/a	n/a	8	65	Blank	Neutral	True
620.471	1.45	Control	0.6667000000000001	n/a	Yes	2.777	n/a	5.0	GoodResponse	0	0.035	619.506	8	65	Feedback	Neutral	True
621.925	2.777	Control	0.6667000000000001	n/a	Yes	2.777	n/a	n/a	GoodResponse	0	0.0	n/a	8	65	ISIslide	Neutral	True
624.717	0.25	Win2	0.6716	0.0	Yes	2.783	0.017	n/a	GoodResponse	1	n/a	n/a	9	66	Cue	Win	True
624.968	3.9	Win2	0.6716	0.0	Yes	2.783	0.001	n/a	GoodResponse	1	n/a	n/a	9	66	Fixation	Win	True
628.863	0.18	Win2	0.6716	0.004	Yes	2.783	-0.004	2.0	GoodResponse	1	0.176	628.039	9	66	Target	Win	True
629.039	0.3	Win2	0.6716	0.004	Yes	2.783	-0.004	2.0	GoodResponse	1	0.176	n/a	9	66	ButtonPress	Win	True
629.047	0.52	Win2	0.6716	n/a	Yes	2.783	n/a	n/a	GoodResponse	1	n/a	n/a	9	66	Blank	Win	True
629.565	1.45	Win2	0.6716	n/a	Yes	2.783	n/a	5.0	GoodResponse	1	0.014	628.579	9	66	Feedback	Win	True
631.019	2.783	Win2	0.6716	n/a	Yes	2.783	n/a	n/a	GoodResponse	1	0.0	n/a	9	66	ISIslide	Win	True
633.828	0.25	Control	0.6618	0.0	No	2.722	0.028	n/a	NoResponse	0	n/a	n/a	9	67	Cue	Neutral	True
634.079	3.95	Control	0.6618	0.0	No	2.722	0.001	n/a	NoResponse	0	n/a	n/a	9	67	Fixation	Neutral	True
638.024	0.17	Control	0.6618	0.004	No	2.722	-0.004	2.0	NoResponse	0	0.191	637.215	9	67	Target	Neutral	True
638.208	0.53	Control	0.6618	n/a	No	2.722	n/a	n/a	NoResponse	0	n/a	n/a	9	67	Blank	Neutral	True
638.215	0.3	Control	0.6618	0.004	No	2.722	-0.004	2.0	NoResponse	0	0.191	n/a	9	67	ButtonPress	Neutral	True
638.726	1.45	Control	0.6618	n/a	No	2.722	n/a	5.0	NoResponse	0	0.023	637.749	9	67	Feedback	Neutral	True
640.18	2.722	Control	0.6618	n/a	No	2.722	n/a	n/a	NoResponse	0	0.0	n/a	9	67	ISIslide	Neutral	True
642.922	0.25	Win2	0.6667000000000001	0.0	Yes	3.078	0.022	n/a	GoodResponse	1	n/a	n/a	10	68	Cue	Win	True
643.172	4.0	Win2	0.6667000000000001	0.0	Yes	3.078	0.0	n/a	GoodResponse	1	n/a	n/a	10	68	Fixation	Win	True
647.168	0.17	Win2	0.6667000000000001	0.004	Yes	3.078	-0.004	2.0	GoodResponse	1	0.168	646.336	10	68	Target	Win	True
647.336	0.3	Win2	0.6667000000000001	0.004	Yes	3.078	-0.004	2.0	GoodResponse	1	0.168	n/a	10	68	ButtonPress	Win	True
647.352	0.53	Win2	0.6667000000000001	n/a	Yes	3.078	n/a	n/a	GoodResponse	1	n/a	n/a	10	68	Blank	Win	True
647.87	1.45	Win2	0.6667000000000001	n/a	Yes	3.078	n/a	5.0	GoodResponse	1	0.002	646.872	10	68	Feedback	Win	True
649.324	3.078	Win2	0.6667000000000001	n/a	Yes	3.078	n/a	n/a	GoodResponse	1	0.0	n/a	10	68	ISIslide	Win	True
652.417	0.25	Win2	0.6570999999999999	0.0	No	3.233	0.017	n/a	NoResponse	0	n/a	n/a	10	69	Cue	MissedWin	True
652.668	3.95	Win2	0.6570999999999999	0.0	No	3.233	0.001	n/a	NoResponse	0	n/a	n/a	10	69	Fixation	MissedWin	True
656.613	0.16	Win2	0.6570999999999999	0.004	No	3.233	-0.004	2.0	NoResponse	0	0.175	655.788	10	69	Target	MissedWin	True
656.78	0.54	Win2	0.6570999999999999	n/a	No	3.233	n/a	n/a	NoResponse	0	n/a	n/a	10	69	Blank	MissedWin	True
656.788	0.3	Win2	0.6570999999999999	0.004	No	3.233	-0.004	2.0	NoResponse	0	0.175	n/a	10	69	ButtonPress	MissedWin	True
657.315	1.45	Win2	0.6570999999999999	n/a	No	3.233	n/a	5.0	NoResponse	0	0.02	656.335	10	69	Feedback	MissedWin	True
658.769	3.233	Win2	0.6570999999999999	n/a	No	3.233	n/a	n/a	NoResponse	0	0.0	n/a	10	69	ISIslide	MissedWin	True
662.029	0.25	Lose2	0.6479	0.0	No	3.021	0.029	n/a	NoResponse	-1	n/a	n/a	9	70	Cue	Loss	True
662.28	4.05	Lose2	0.6479	0.0	No	3.021	0.001	n/a	NoResponse	-1	n/a	n/a	9	70	Fixation	Loss	True
666.325	0.16	Lose2	0.6479	0.004	No	3.021	-0.004	2.0	NoResponse	-1	0.175	665.5	9	70	Target	Loss	True
666.492	0.54	Lose2	0.6479	n/a	No	3.021	n/a	n/a	NoResponse	-1	n/a	n/a	9	70	Blank	Loss	True
666.5	0.3	Lose2	0.6479	0.004	No	3.021	-0.004	2.0	NoResponse	-1	0.175	n/a	9	70	ButtonPress	Loss	True
667.027	1.45	Lose2	0.6479	n/a	No	3.021	n/a	5.0	NoResponse	-1	0.015	666.042	9	70	Feedback	Loss	True
668.482	3.021	Lose2	0.6479	n/a	No	3.021	n/a	n/a	NoResponse	-1	0.0	n/a	9	70	ISIslide	Loss	True
671.524	0.25	Win2	0.6389	0.0	No	2.726	0.024	n/a	NoResponse	0	n/a	n/a	9	71	Cue	MissedWin	True
671.775	4.05	Win2	0.6389	0.0	No	2.726	0.001	n/a	NoResponse	0	n/a	n/a	9	71	Fixation	MissedWin	True
675.82	0.17	Win2	0.6389	0.004	No	2.726	-0.004	2.0	NoResponse	0	0.193	675.013	9	71	Target	MissedWin	True
676.004	0.53	Win2	0.6389	n/a	No	2.726	n/a	n/a	NoResponse	0	n/a	n/a	9	71	Blank	MissedWin	True
676.013	0.3	Win2	0.6389	0.004	No	2.726	-0.004	2.0	NoResponse	0	0.193	n/a	9	71	ButtonPress	MissedWin	True
676.522	1.45	Win2	0.6389	n/a	No	2.726	n/a	5.0	NoResponse	0	0.032	675.554	9	71	Feedback	MissedWin	True
677.977	2.726	Win2	0.6389	n/a	No	2.726	n/a	n/a	NoResponse	0	0.0	n/a	9	71	ISIslide	MissedWin	True
680.718	0.25	Win2	0.6437999999999999	0.0	Yes	2.782	0.018	n/a	GoodResponse	1	n/a	n/a	10	72	Cue	Win	False
680.969	4.1	Win2	0.6437999999999999	0.0	Yes	2.782	0.001	2.0	GoodResponse	1	3.822	683.791	10	72	Fixation	Win	False
684.791	0.3	Win2	0.6437999999999999	0.0	Yes	2.782	0.001	2.0	GoodResponse	1	3.822	n/a	10	72	ButtonPress	Win	False
685.064	0.18	Win2	0.6437999999999999	0.004	Yes	2.782	-0.004	2.0	GoodResponse	1	0.174	684.238	10	72	Target	Win	False
685.238	0.3	Win2	0.6437999999999999	0.004	Yes	2.782	-0.004	2.0	GoodResponse	1	0.174	n/a	10	72	ButtonPress	Win	False
685.248	0.52	Win2	0.6437999999999999	n/a	Yes	2.782	n/a	n/a	GoodResponse	1	n/a	n/a	10	72	Blank	Win	False
685.767	1.45	Win2	0.6437999999999999	n/a	Yes	2.782	n/a	5.0	GoodResponse	1	0.007	684.774	10	72	Feedback	Win	False
687.221	2.782	Win2	0.6437999999999999	n/a	Yes	2.782	n/a	n/a	GoodResponse	1	0.0	n/a	10	72	ISIslide	Win	False
690.029	0.25	Win2	0.6351	0.0	No	2.671	0.029	n/a	LatePress	0	n/a	n/a	10	73	Cue	MissedWin	True
690.28	4.0	Win2	0.6351	0.0	No	2.671	0.001	n/a	LatePress	0	n/a	n/a	10	73	Fixation	MissedWin	True
694.275	0.19	Win2	0.6351	0.004	No	2.671	-0.004	2.0	LatePress	0	0.196	693.471	10	73	Target	MissedWin	True
694.471	0.3	Win2	0.6351	0.004	No	2.671	-0.004	2.0	LatePress	0	0.196	n/a	10	73	ButtonPress	MissedWin	True
694.476	0.51	Win2	0.6351	n/a	No	2.671	n/a	n/a	LatePress	0	n/a	n/a	10	73	Blank	MissedWin	True
694.977	1.45	Win2	0.6351	n/a	No	2.671	n/a	5.0	LatePress	0	0.016	693.993	10	73	Feedback	MissedWin	True
696.432	2.671	Win2	0.6351	n/a	No	2.671	n/a	n/a	LatePress	0	0.0	n/a	10	73	ISIslide	MissedWin	True
699.123	0.25	Lose2	0.64	0.0	Yes	2.627	0.023	n/a	GoodResponse	0	n/a	n/a	10	74	Cue	AvoidedLoss	False
699.374	4.05	Lose2	0.64	0.0	Yes	2.627	0.001	2.0	GoodResponse	0	3.517	701.891	10	74	Fixation	AvoidedLoss	False
702.891	0.3	Lose2	0.64	0.0	Yes	2.627	0.001	2.0	GoodResponse	0	3.517	n/a	10	74	ButtonPress	AvoidedLoss	False
703.419	0.2	Lose2	0.64	0.004	Yes	2.627	-0.004	2.0	GoodResponse	0	0.166	702.585	10	74	Target	AvoidedLoss	False
703.585	0.3	Lose2	0.64	0.004	Yes	2.627	-0.004	2.0	GoodResponse	0	0.166	n/a	10	74	ButtonPress	AvoidedLoss	False
703.62	0.5	Lose2	0.64	n/a	Yes	2.627	n/a	n/a	GoodResponse	0	n/a	n/a	10	74	Blank	AvoidedLoss	False
704.122	1.45	Lose2	0.64	n/a	Yes	2.627	n/a	5.0	GoodResponse	0	0.042	703.164	10	74	Feedback	AvoidedLoss	False
705.576	2.627	Lose2	0.64	n/a	Yes	2.627	n/a	n/a	GoodResponse	0	0.0	n/a	10	74	ISIslide	AvoidedLoss	False
708.217	0.25	Lose2	0.6446999999999999	0.0	Yes	2.933	0.017	n/a	GoodResponse	0	n/a	n/a	10	75	Cue	AvoidedLoss	True
708.468	3.95	Lose2	0.6446999999999999	0.0	Yes	2.933	0.001	n/a	GoodResponse	0	n/a	n/a	10	75	Fixation	AvoidedLoss	True
712.413	0.21	Lose2	0.6446999999999999	0.004	Yes	2.933	-0.004	2.0	GoodResponse	0	0.199	711.612	10	75	Target	AvoidedLoss	True
712.612	0.3	Lose2	0.6446999999999999	0.004	Yes	2.933	-0.004	2.0	GoodResponse	0	0.199	n/a	10	75	ButtonPress	AvoidedLoss	True
712.63	0.49	Lose2	0.6446999999999999	n/a	Yes	2.933	n/a	n/a	GoodResponse	0	n/a	n/a	10	75	Blank	AvoidedLoss	True
713.115	1.45	Lose2	0.6446999999999999	n/a	Yes	2.933	n/a	5.0	GoodResponse	0	0.025	712.14	10	75	Feedback	AvoidedLoss	True
714.569	2.933	Lose2	0.6446999999999999	n/a	Yes	2.933	n/a	n/a	GoodResponse	0	0.0	n/a	10	75	ISIslide	AvoidedLoss	True
717.528	0.25	Control	0.6364	0.0	No	3.222	0.028	n/a	NoResponse	0	n/a	n/a	10	76	Cue	Neutral	True
717.779	4.05	Control	0.6364	0.0	No	3.222	0.001	n/a	NoResponse	0	n/a	n/a	10	76	Fixation	Neutral	True
721.825	0.22	Control	0.6364	0.003	No	3.222	-0.003	2.0	NoResponse	0	0.249	721.074	10	76	Target	Neutral	True
722.059	0.48	Control	0.6364	n/a	No	3.222	n/a	n/a	NoResponse	0	n/a	n/a	10	76	Blank	Neutral	True
722.074	0.3	Control	0.6364	0.003	No	3.222	-0.003	2.0	NoResponse	0	0.249	n/a	10	76	ButtonPress	Neutral	True
722.527	1.45	Control	0.6364	n/a	No	3.222	n/a	5.0	NoResponse	0	0.027	721.554	10	76	Feedback	Neutral	True
723.981	3.222	Control	0.6364	n/a	No	3.222	n/a	n/a	NoResponse	0	0.0	n/a	10	76	ISIslide	Neutral	True
727.224	0.25	Lose2	0.6409999999999999	0.0	Yes	2.576	0.024	n/a	GoodResponse	0	n/a	n/a	10	77	Cue	AvoidedLoss	False
727.475	3.95	Lose2	0.6409999999999999	0.0	Yes	2.576	0.001	2.0	GoodResponse	0	0.252	726.727	10	77	Fixation	AvoidedLoss	False
727.727	0.3	Lose2	0.6409999999999999	0.0	Yes	2.576	0.001	2.0	GoodResponse	0	0.252	n/a	10	77	ButtonPress	AvoidedLoss	False
731.42	0.23	Lose2	0.6409999999999999	0.004	Yes	2.576	-0.004	2.0	GoodResponse	0	0.185	730.605	10	77	Target	AvoidedLoss	False
731.605	0.3	Lose2	0.6409999999999999	0.004	Yes	2.576	-0.004	2.0	GoodResponse	0	0.185	n/a	10	77	ButtonPress	AvoidedLoss	False
731.654	0.47	Lose2	0.6409999999999999	n/a	Yes	2.576	n/a	n/a	GoodResponse	0	n/a	n/a	10	77	Blank	AvoidedLoss	False
732.122	1.45	Lose2	0.6409999999999999	n/a	Yes	2.576	n/a	5.0	GoodResponse	0	0.041	731.163	10	77	Feedback	AvoidedLoss	False
733.576	2.576	Lose2	0.6409999999999999	n/a	Yes	2.576	n/a	n/a	GoodResponse	0	0.0	n/a	10	77	ISIslide	AvoidedLoss	False
