onset	duration	cue_type	current_mean_accuracy	duration_error	is_hit	isi_adjusted	onset_delay	response	response_type	reward	rt	rt_time	total_reward	trial_number	trial_phase	trial_type	one_press
11.099	0.25	Control	1.0	0.0	Yes	2.951	-0.001	n/a	GoodResponse	0	n/a	n/a	0	0	Cue	Neutral	True
11.349	3.85	Control	1.0	0.0	Yes	2.951	0.0	n/a	GoodResponse	0	n/a	n/a	0	0	Fixation	Neutral	True
15.197	0.4	Control	1.0	0.002	Yes	2.951	-0.002	4.0	GoodResponse	0	0.258	14.455	0	0	Target	Neutral	True
15.455	0.3	Control	1.0	0.002	Yes	2.951	-0.002	4.0	GoodResponse	0	0.258	n/a	0	0	ButtonPress	Neutral	True
15.597	0.3	Control	1.0	n/a	Yes	2.951	n/a	n/a	GoodResponse	0	n/a	n/a	0	0	Blank	Neutral	True
15.897	1.45	Control	1.0	n/a	Yes	2.951	n/a	5.0	GoodResponse	0	0.033	14.93	0	0	Feedback	Neutral	True
17.346	2.951	Control	1.0	n/a	Yes	2.951	n/a	n/a	GoodResponse	0	0.0	n/a	0	0	ISIslide	Neutral	True
20.329	0.25	Lose2	1.0	0.0	Yes	2.771	0.029	n/a	GoodResponse	0	n/a	n/a	0	1	Cue	AvoidedLoss	True
20.579	4.0	Lose2	1.0	0.0	Yes	2.771	0.0	n/a	GoodResponse	0	n/a	n/a	0	1	Fixation	AvoidedLoss	True
24.577	0.39	Lose2	1.0	0.002	Yes	2.771	-0.002	4.0	GoodResponse	0	0.221	23.798	0	1	Target	AvoidedLoss	True
24.798	0.3	Lose2	1.0	0.002	Yes	2.771	-0.002	4.0	GoodResponse	0	0.221	n/a	0	1	ButtonPress	AvoidedLoss	True
24.977	0.31	Lose2	1.0	n/a	Yes	2.771	n/a	n/a	GoodResponse	0	n/a	n/a	0	1	Blank	AvoidedLoss	True
25.277	1.45	Lose2	1.0	n/a	Yes	2.771	n/a	5.0	GoodResponse	0	0.019	24.296	0	1	Feedback	AvoidedLoss	True
26.726	2.771	Lose2	1.0	n/a	Yes	2.771	n/a	n/a	GoodResponse	0	0.0	n/a	0	1	ISIslide	AvoidedLoss	True
29.525	0.25	Control	1.0	0.001	Yes	2.575	0.025	n/a	GoodResponse	0	n/a	n/a	0	2	Cue	Neutral	True
29.775	4.1	Control	1.0	0.0	Yes	2.575	0.0	n/a	GoodResponse	0	n/a	n/a	0	2	Fixation	Neutral	True
33.874	0.38	Control	1.0	0.001	Yes	2.575	-0.001	4.0	GoodResponse	0	0.251	33.125	0	2	Target	Neutral	True
34.125	0.3	Control	1.0	0.001	Yes	2.575	-0.001	4.0	GoodResponse	0	0.251	n/a	0	2	ButtonPress	Neutral	True
34.257	0.32	Control	1.0	n/a	Yes	2.575	n/a	n/a	GoodResponse	0	n/a	n/a	0	2	Blank	Neutral	True
34.574	1.45	Control	1.0	n/a	Yes	2.575	n/a	5.0	GoodResponse	0	0.039	33.613	0	2	Feedback	Neutral	True
36.023	2.575	Control	1.0	n/a	Yes	2.575	n/a	n/a	GoodResponse	0	0.0	n/a	0	2	ISIslide	Neutral	True
38.622	0.25	Win2	1.0	0.0	Yes	2.828	0.022	n/a	GoodResponse	1	n/a	n/a	1	3	Cue	Win	True
38.872	3.95	Win2	1.0	0.0	Yes	2.828	0.0	n/a	GoodResponse	1	n/a	n/a	1	3	Fixation	Win	True
42.821	0.37	Win2	1.0	0.001	Yes	2.828	-0.001	4.0	GoodResponse	1	0.219	42.04	1	3	Target	Win	True
43.04	0.3	Win2	1.0	0.001	Yes	2.828	-0.001	4.0	GoodResponse	1	0.219	n/a	1	3	ButtonPress	Win	True
43.204	0.33	Win2	1.0	n/a	Yes	2.828	n/a	n/a	GoodResponse	1	n/a	n/a	1	3	Blank	Win	True
43.521	1.45	Win2	1.0	n/a	Yes	2.828	n/a	5.0	GoodResponse	1	0.018	42.539	1	3	Feedback	Win	True
44.97	2.828	Win2	1.0	n/a	Yes	2.828	n/a	n/a	GoodResponse	1	0.0	n/a	1	3	ISIslide	Win	True
47.819	0.25	Win2	1.0	0.0	Yes	3.281	0.019	n/a	GoodResponse	1	n/a	n/a	2	4	Cue	Win	True
48.069	4.0	Win2	1.0	0.0	Yes	3.281	0.0	n/a	GoodResponse	1	n/a	n/a	2	4	Fixation	Win	True
52.068	0.36	Win2	1.0	0.001	Yes	3.281	-0.001	4.0	GoodResponse	1	0.356	51.424	2	4	Target	Win	True
52.424	0.3	Win2	1.0	0.001	Yes	3.281	-0.001	4.0	GoodResponse	1	0.356	n/a	2	4	ButtonPress	Win	True
52.434	0.34	Win2	1.0	n/a	Yes	3.281	n/a	n/a	GoodResponse	1	n/a	n/a	2	4	Blank	Win	True
52.767	1.45	Win2	1.0	n/a	Yes	3.281	n/a	5.0	GoodResponse	1	0.04	51.807	2	4	Feedback	Win	True
54.217	3.281	Win2	1.0	n/a	Yes	3.281	n/a	n/a	GoodResponse	1	0.0	n/a	2	4	ISIslide	Win	True
57.516	0.25	Win2	0.8332999999999999	0.0	No	2.784	0.016	n/a	NoResponse	0	n/a	n/a	2	5	Cue	MissedWin	True
57.766	4.0	Win2	0.8332999999999999	0.0	No	2.784	0.0	n/a	NoResponse	0	n/a	n/a	2	5	Fixation	MissedWin	True
61.764	0.35	Win2	0.8332999999999999	0.002	No	2.784	-0.002	4.0	NoResponse	0	0.369	61.133	2	5	Target	MissedWin	True
62.114	0.35	Win2	0.8332999999999999	n/a	No	2.784	n/a	n/a	NoResponse	0	n/a	n/a	2	5	Blank	MissedWin	True
62.133	0.3	Win2	0.8332999999999999	0.002	No	2.784	-0.002	4.0	NoResponse	0	0.369	n/a	2	5	ButtonPress	MissedWin	True
62.464	1.45	Win2	0.8332999999999999	n/a	No	2.784	n/a	5.0	NoResponse	0	0.002	61.466	2	5	Feedback	MissedWin	True
63.913	2.784	Win2	0.8332999999999999	n/a	No	2.784	n/a	n/a	NoResponse	0	0.0	n/a	2	5	ISIslide	MissedWin	True
66.712	0.25	Lose2	0.7143	0.0	No	2.738	0.012	n/a	NoResponse	-1	n/a	n/a	1	6	Cue	Loss	True
66.962	3.95	Lose2	0.7143	0.0	No	2.738	0.0	n/a	NoResponse	-1	n/a	n/a	1	6	Fixation	Loss	True
70.911	0.34	Lose2	0.7143	0.001	No	2.738	-0.001	4.0	NoResponse	-1	0.497	70.408	1	6	Target	Loss	True
71.261	0.36	Lose2	0.7143	n/a	No	2.738	n/a	n/a	NoResponse	-1	n/a	n/a	1	6	Blank	Loss	True
71.408	0.3	Lose2	0.7143	0.001	No	2.738	-0.001	4.0	NoResponse	-1	0.497	n/a	1	6	ButtonPress	Loss	True
71.611	1.45	Lose2	0.7143	n/a	No	2.738	n/a	5.0	NoResponse	-1	0.026	70.637	1	6	Feedback	Loss	True
73.06	2.738	Lose2	0.7143	n/a	No	2.738	n/a	n/a	NoResponse	-1	0.0	n/a	1	6	ISIslide	Loss	True
75.826	0.25	Lose2	0.75	0.0	Yes	4.024	0.026	n/a	GoodResponse	0	n/a	n/a	1	7	Cue	AvoidedLoss	True
76.076	4.05	Lose2	0.75	0.0	Yes	4.024	0.0	n/a	GoodResponse	0	n/a	n/a	1	7	Fixation	AvoidedLoss	True
80.124	0.33	Lose2	0.75	0.002	Yes	4.024	-0.002	4.0	GoodResponse	0	0.289	79.413	1	7	Target	AvoidedLoss	True
80.413	0.3	Lose2	0.75	0.002	Yes	4.024	-0.002	4.0	GoodResponse	0	0.289	n/a	1	7	ButtonPress	AvoidedLoss	True
80.458	0.37	Lose2	0.75	n/a	Yes	4.024	n/a	n/a	GoodResponse	0	n/a	n/a	1	7	Blank	AvoidedLoss	True
80.824	1.45	Lose2	0.75	n/a	Yes	4.024	n/a	5.0	GoodResponse	0	0.033	79.857	1	7	Feedback	AvoidedLoss	True
82.274	4.024	Lose2	0.75	n/a	Yes	4.024	n/a	n/a	GoodResponse	0	0.0	n/a	1	7	ISIslide	AvoidedLoss	True
86.322	0.25	Lose2	0.6667000000000001	0.0	No	3.028	0.022	n/a	NoResponse	-1	n/a	n/a	0	8	Cue	Loss	True
86.572	3.95	Lose2	0.6667000000000001	0.0	No	3.028	0.0	n/a	NoResponse	-1	n/a	n/a	0	8	Fixation	Loss	True
90.521	0.32	Lose2	0.6667000000000001	0.001	No	3.028	-0.001	4.0	NoResponse	-1	0.427	89.948	0	8	Target	Loss	True
90.854	0.38	Lose2	0.6667000000000001	n/a	No	3.028	n/a	n/a	NoResponse	-1	n/a	n/a	0	8	Blank	Loss	True
90.948	0.3	Lose2	0.6667000000000001	0.001	No	3.028	-0.001	4.0	NoResponse	-1	0.427	n/a	0	8	ButtonPress	Loss	True
91.22	1.45	Lose2	0.6667000000000001	n/a	No	3.028	n/a	5.0	NoResponse	-1	0.026	90.246	0	8	Feedback	Loss	True
92.67	3.028	Lose2	0.6667000000000001	n/a	No	3.028	n/a	n/a	NoResponse	-1	0.0	n/a	0	8	ISIslide	Loss	True
95.719	0.25	Lose2	0.6	0.0	No	3.131	0.019	n/a	NoResponse	-1	n/a	n/a	-1	9	Cue	Loss	True
95.969	3.95	Lose2	0.6	0.0	No	3.131	0.0	n/a	NoResponse	-1	n/a	n/a	-1	9	Fixation	Loss	True
99.917	0.31	Lose2	0.6	0.002	No	3.131	-0.002	4.0	NoResponse	-1	0.656	99.573	-1	9	Target	Loss	True
100.234	0.39	Lose2	0.6	n/a	No	3.131	n/a	n/a	NoResponse	-1	n/a	n/a	-1	9	Blank	Loss	True
100.573	0.3	Lose2	0.6	0.002	No	3.131	-0.002	4.0	NoResponse	-1	0.656	n/a	-1	9	ButtonPress	Loss	True
100.617	1.45	Lose2	0.6	n/a	No	3.131	n/a	5.0	NoResponse	-1	0.044	99.661	-1	9	Feedback	Loss	True
102.067	3.131	Lose2	0.6	n/a	No	3.131	n/a	n/a	NoResponse	-1	0.0	n/a	-1	9	ISIslide	Loss	True
105.215	0.25	Control	0.6364	0.001	Yes	3.285	0.015	n/a	GoodResponse	0	n/a	n/a	-1	10	Cue	Neutral	True
105.465	4.0	Control	0.6364	0.0	Yes	3.285	0.0	n/a	GoodResponse	0	n/a	n/a	-1	10	Fixation	Neutral	True
109.464	0.32	Control	0.6364	0.001	Yes	3.285	-0.001	4.0	GoodResponse	0	0.24	108.704	-1	10	Target	Neutral	True
109.704	0.3	Control	0.6364	0.001	Yes	3.285	-0.001	4.0	GoodResponse	0	0.24	n/a	-1	10	ButtonPress	Neutral	True
109.781	0.38	Control	0.6364	n/a	Yes	3.285	n/a	n/a	GoodResponse	0	n/a	n/a	-1	10	Blank	Neutral	True
110.164	1.45	Control	0.6364	n/a	Yes	3.285	n/a	5.0	GoodResponse	0	0.009	109.173	-1	10	Feedback	Neutral	True
111.613	3.285	Control	0.6364	n/a	Yes	3.285	n/a	n/a	GoodResponse	0	0.0	n/a	-1	10	ISIslide	Neutral	True
114.929	0.25	Lose2	0.6667000000000001	0.0	Yes	2.721	0.029	n/a	GoodResponse	0	n/a	n/a	-1	11	Cue	AvoidedLoss	True
115.179	4.05	Lose2	0.6667000000000001	0.0	Yes	2.721	0.0	n/a	GoodResponse	0	n/a	n/a	-1	11	Fixation	AvoidedLoss	True
119.227	0.33	Lose2	0.6667000000000001	0.002	Yes	2.721	-0.002	4.0	GoodResponse	0	0.241	118.468	-1	11	Target	AvoidedLoss	True
119.468	0.3	Lose2	0.6667000000000001	0.002	Yes	2.721	-0.002	4.0	GoodResponse	0	0.241	n/a	-1	11	ButtonPress	AvoidedLoss	True
119.56	0.37	Lose2	0.6667000000000001	n/a	Yes	2.721	n/a	n/a	GoodResponse	0	n/a	n/a	-1	11	Blank	AvoidedLoss	True
119.927	1.45	Lose2	0.6667000000000001	n/a	Yes	2.721	n/a	5.0	GoodResponse	0	0.002	118.929	-1	11	Feedback	AvoidedLoss	True
121.376	2.721	Lose2	0.6667000000000001	n/a	Yes	2.721	n/a	n/a	GoodResponse	0	0.0	n/a	-1	11	ISIslide	AvoidedLoss	True
124.125	0.25	Control	0.6923	0.001	Yes	2.975	0.025	n/a	GoodResponse	0	n/a	n/a	-1	12	Cue	Neutral	True
124.375	3.9	Control	0.6923	0.0	Yes	2.975	0.0	n/a	GoodResponse	0	n/a	n/a	-1	12	Fixation	Neutral	True
128.274	0.32	Control	0.6923	0.001	Yes	2.975	-0.001	4.0	GoodResponse	0	0.284	127.558	-1	12	Target	Neutral	True
128.558	0.3	Control	0.6923	0.001	Yes	2.975	-0.001	4.0	GoodResponse	0	0.284	n/a	-1	12	ButtonPress	Neutral	True
128.591	0.38	Control	0.6923	n/a	Yes	2.975	n/a	n/a	GoodResponse	0	n/a	n/a	-1	12	Blank	Neutral	True
128.974	1.45	Control	0.6923	n/a	Yes	2.975	n/a	5.0	GoodResponse	0	0.028	128.002	-1	12	Feedback	Neutral	True
130.423	2.975	Control	0.6923	n/a	Yes	2.975	n/a	n/a	GoodResponse	0	0.0	n/a	-1	12	ISIslide	Neutral	True
133.422	0.25	Control	0.6429	0.0	No	2.778	0.022	n/a	NoResponse	0	n/a	n/a	-1	13	Cue	Neutral	True
133.672	4.0	Control	0.6429	0.0	No	2.778	0.0	n/a	NoResponse	0	n/a	n/a	-1	13	Fixation	Neutral	True
137.671	0.31	Control	0.6429	0.001	No	2.778	-0.001	4.0	NoResponse	0	0.325	136.996	-1	13	Target	Neutral	True
137.987	0.39	Control	0.6429	n/a	No	2.778	n/a	n/a	NoResponse	0	n/a	n/a	-1	13	Blank	Neutral	True
137.996	0.3	Control	0.6429	0.001	No	2.778	-0.001	4.0	NoResponse	0	0.325	n/a	-1	13	ButtonPress	Neutral	True
138.37	1.45	Control	0.6429	n/a	No	2.778	n/a	5.0	NoResponse	0	0.046	137.416	-1	13	Feedback	Neutral	True
139.82	2.778	Control	0.6429	n/a	No	2.778	n/a	n/a	NoResponse	0	0.0	n/a	-1	13	ISIslide	Neutral	True
142.619	0.25	Win2	0.6667000000000001	0.0	Yes	2.681	0.019	n/a	GoodResponse	1	n/a	n/a	0	14	Cue	Win	True
142.869	4.1	Win2	0.6667000000000001	0.0	Yes	2.681	0.0	n/a	GoodResponse	1	n/a	n/a	0	14	Fixation	Win	True
146.967	0.32	Win2	0.6667000000000001	0.002	Yes	2.681	-0.002	4.0	GoodResponse	1	0.267	146.234	0	14	Target	Win	True
147.234	0.3	Win2	0.6667000000000001	0.002	Yes	2.681	-0.002	4.0	GoodResponse	1	0.267	n/a	0	14	ButtonPress	Win	True
147.301	0.38	Win2	0.6667000000000001	n/a	Yes	2.681	n/a	n/a	GoodResponse	1	n/a	n/a	0	14	Blank	Win	True
147.667	1.45	Win2	0.6667000000000001	n/a	Yes	2.681	n/a	5.0	GoodResponse	1	0.018	146.685	0	14	Feedback	Win	True
149.117	2.681	Win2	0.6667000000000001	n/a	Yes	2.681	n/a	n/a	GoodResponse	1	0.0	n/a	0	14	ISIslide	Win	True
151.816	0.25	Control	0.625	0.0	No	2.984	0.016	n/a	NoResponse	0	n/a	n/a	0	15	Cue	Neutral	True
152.066	4.0	Control	0.625	0.0	No	2.984	0.0	n/a	NoResponse	0	n/a	n/a	0	15	Fixation	Neutral	True
156.064	0.31	Control	0.625	0.002	No	2.984	-0.002	4.0	NoResponse	0	0.387	155.451	0	15	Target	Neutral	True
156.381	0.39	Control	0.625	n/a	No	2.984	n/a	n/a	NoResponse	0	n/a	n/a	0	15	Blank	Neutral	True
156.451	0.3	Control	0.625	0.002	No	2.984	-0.002	4.0	NoResponse	0	0.387	n/a	0	15	ButtonPress	Neutral	True
156.764	1.45	Control	0.625	n/a	No	2.984	n/a	5.0	NoResponse	0	0.043	155.807	0	15	Feedback	Neutral	True
158.213	2.984	Control	0.625	n/a	No	2.984	n/a	n/a	NoResponse	0	0.0	n/a	0	15	ISIslide	Neutral	True
161.212	0.25	Win2	0.5882000000000001	0.0	No	2.888	0.012	n/a	NoResponse	0	n/a	n/a	0	16	Cue	MissedWin	True
161.462	4.0	Win2	0.5882000000000001	0.0	No	2.888	0.0	n/a	NoResponse	0	n/a	n/a	0	16	Fixation	MissedWin	True
165.461	0.32	Win2	0.5882000000000001	0.001	No	2.888	-0.001	4.0	NoResponse	0	0.408	164.869	0	16	Target	MissedWin	True
165.777	0.38	Win2	0.5882000000000001	n/a	No	2.888	n/a	n/a	NoResponse	0	n/a	n/a	0	16	Blank	MissedWin	True
165.869	0.3	Win2	0.5882000000000001	0.001	No	2.888	-0.001	4.0	NoResponse	0	0.408	n/a	0	16	ButtonPress	MissedWin	True
166.161	1.45	Win2	0.5882000000000001	n/a	No	2.888	n/a	5.0	NoResponse	0	0.012	165.173	0	16	Feedback	MissedWin	True
167.61	2.888	Win2	0.5882000000000001	n/a	No	2.888	n/a	n/a	NoResponse	0	0.0	n/a	0	16	ISIslide	MissedWin	True
170.526	0.25	Lose2	0.6111	0.0	Yes	2.724	0.026	n/a	GoodResponse	0	n/a	n/a	0	17	Cue	AvoidedLoss	True
170.776	3.95	Lose2	0.6111	0.0	Yes	2.724	0.0	n/a	GoodResponse	0	n/a	n/a	0	17	Fixation	AvoidedLoss	True
174.724	0.33	Lose2	0.6111	0.002	Yes	2.724	-0.002	4.0	GoodResponse	0	0.243	173.967	0	17	Target	AvoidedLoss	True
174.967	0.3	Lose2	0.6111	0.002	Yes	2.724	-0.002	4.0	GoodResponse	0	0.243	n/a	0	17	ButtonPress	AvoidedLoss	True
175.058	0.37	Lose2	0.6111	n/a	Yes	2.724	n/a	n/a	GoodResponse	0	n/a	n/a	0	17	Blank	AvoidedLoss	True
175.424	1.45	Lose2	0.6111	n/a	Yes	2.724	n/a	5.0	GoodResponse	0	0.016	174.44	0	17	Feedback	AvoidedLoss	True
176.874	2.724	Lose2	0.6111	n/a	Yes	2.724	n/a	n/a	GoodResponse	0	0.0	n/a	0	17	ISIslide	AvoidedLoss	True
179.623	0.25	Lose2	0.6315999999999999	0.0	Yes	2.727	0.023	n/a	GoodResponse	0	n/a	n/a	0	18	Cue	AvoidedLoss	True
179.872	4.05	Lose2	0.6315999999999999	0.001	Yes	2.727	-0.001	n/a	GoodResponse	0	n/a	n/a	0	18	Fixation	AvoidedLoss	True
183.921	0.34	Lose2	0.6315999999999999	0.002	Yes	2.727	-0.002	4.0	GoodResponse	0	0.321	183.242	0	18	Target	AvoidedLoss	True
184.242	0.3	Lose2	0.6315999999999999	0.002	Yes	2.727	-0.002	4.0	GoodResponse	0	0.321	n/a	0	18	ButtonPress	AvoidedLoss	True
184.271	0.36	Lose2	0.6315999999999999	n/a	Yes	2.727	n/a	n/a	GoodResponse	0	n/a	n/a	0	18	Blank	AvoidedLoss	True
184.621	1.45	Lose2	0.6315999999999999	n/a	Yes	2.727	n/a	5.0	GoodResponse	0	0.039	183.66	0	18	Feedback	AvoidedLoss	True
186.07	2.727	Lose2	0.6315999999999999	n/a	Yes	2.727	n/a	n/a	GoodResponse	0	0.0	n/a	0	18	ISIslide	AvoidedLoss	True
188.819	0.25	Control	0.65	0.0	Yes	2.931	0.019	n/a	GoodResponse	0	n/a	n/a	0	19	Cue	Neutral	True
189.069	3.95	Control	0.65	0.0	Yes	2.931	0.0	n/a	GoodResponse	0	n/a	n/a	0	19	Fixation	Neutral	True
193.018	0.35	Control	0.65	0.001	Yes	2.931	-0.001	4.0	GoodResponse	0	0.215	192.233	0	19	Target	Neutral	True
193.233	0.3	Control	0.65	0.001	Yes	2.931	-0.001	4.0	GoodResponse	0	0.215	n/a	0	19	ButtonPress	Neutral	True
193.368	0.35	Control	0.65	n/a	Yes	2.931	n/a	n/a	GoodResponse	0	n/a	n/a	0	19	Blank	Neutral	True
193.718	1.45	Control	0.65	n/a	Yes	2.931	n/a	5.0	GoodResponse	0	0.015	192.733	0	19	Feedback	Neutral	True
195.167	2.931	Control	0.65	n/a	Yes	2.931	n/a	n/a	GoodResponse	0	0.0	n/a	0	19	ISIslide	Neutral	True
198.116	0.25	Control	0.6667000000000001	0.0	Yes	2.634	0.016	n/a	GoodResponse	0	n/a	n/a	0	20	Cue	Neutral	True
198.366	4.05	Control	0.6667000000000001	0.0	Yes	2.634	0.0	n/a	GoodResponse	0	n/a	n/a	0	20	Fixation	Neutral	True
202.415	0.36	Control	0.6667000000000001	0.001	Yes	2.634	-0.001	4.0	GoodResponse	0	0.243	201.658	0	20	Target	Neutral	True
202.658	0.3	Control	0.6667000000000001	0.001	Yes	2.634	-0.001	4.0	GoodResponse	0	0.243	n/a	0	20	ButtonPress	Neutral	True
202.781	0.34	Control	0.6667000000000001	n/a	Yes	2.634	n/a	n/a	GoodResponse	0	n/a	n/a	0	20	Blank	Neutral	True
203.114	1.45	Control	0.6667000000000001	n/a	Yes	2.634	n/a	5.0	GoodResponse	0	0.034	202.148	0	20	Feedback	Neutral	True
204.564	2.634	Control	0.6667000000000001	n/a	Yes	2.634	n/a	n/a	GoodResponse	0	0.0	n/a	0	20	ISIslide	Neutral	True
207.23	0.25	Control	0.6818000000000001	0.0	Yes	2.77	0.03	n/a	GoodResponse	0	n/a	n/a	0	21	Cue	Neutral	True
207.479	4.1	Control	0.6818000000000001	0.001	Yes	2.77	-0.001	n/a	GoodResponse	0	n/a	n/a	0	21	Fixation	Neutral	True
211.578	0.35	Control	0.6818000000000001	0.002	Yes	2.77	-0.002	4.0	GoodResponse	0	0.289	210.867	0	21	Target	Neutral	True
211.867	0.3	Control	0.6818000000000001	0.002	Yes	2.77	-0.002	4.0	GoodResponse	0	0.289	n/a	0	21	ButtonPress	Neutral	True
211.928	0.35	Control	0.6818000000000001	n/a	Yes	2.77	n/a	n/a	GoodResponse	0	n/a	n/a	0	21	Blank	Neutral	True
212.278	1.45	Control	0.6818000000000001	n/a	Yes	2.77	n/a	5.0	GoodResponse	0	0.04	211.318	0	21	Feedback	Neutral	True
213.727	2.77	Control	0.6818000000000001	n/a	Yes	2.77	n/a	n/a	GoodResponse	0	0.0	n/a	0	21	ISIslide	Neutral	True
216.526	0.25	Control	0.6957	0.0	Yes	2.774	0.026	n/a	GoodResponse	0	n/a	n/a	0	22	Cue	Neutral	True
216.776	4.0	Control	0.6957	0.0	Yes	2.774	0.0	n/a	GoodResponse	0	n/a	n/a	0	22	Fixation	Neutral	True
220.775	0.34	Control	0.6957	0.001	Yes	2.774	-0.001	4.0	GoodResponse	0	0.312	220.087	0	22	Target	Neutral	True
221.087	0.3	Control	0.6957	0.001	Yes	2.774	-0.001	4.0	GoodResponse	0	0.312	n/a	0	22	ButtonPress	Neutral	True
221.125	0.36	Control	0.6957	n/a	Yes	2.774	n/a	n/a	GoodResponse	0	n/a	n/a	0	22	Blank	Neutral	True
221.475	1.45	Control	0.6957	n/a	Yes	2.774	n/a	5.0	GoodResponse	0	0.014	220.489	0	22	Feedback	Neutral	True
222.924	2.774	Control	0.6957	n/a	Yes	2.774	n/a	n/a	GoodResponse	0	0.0	n/a	0	22	ISIslide	Neutral	True
225.723	0.25	Control	0.7082999999999999	0.0	Yes	2.777	0.023	n/a	GoodResponse	0	n/a	n/a	0	23	Cue	Neutral	True
225.973	3.9	Control	0.7082999999999999	0.0	Yes	2.777	0.0	n/a	GoodResponse	0	n/a	n/a	0	23	Fixation	Neutral	True
229.872	0.33	Control	0.7082999999999999	0.001	Yes	2.777	-0.001	4.0	GoodResponse	0	0.239	229.111	0	23	Target	Neutral	True
230.111	0.3	Control	0.7082999999999999	0.001	Yes	2.777	-0.001	4.0	GoodResponse	0	0.239	n/a	0	23	ButtonPress	Neutral	True
230.205	0.37	Control	0.7082999999999999	n/a	Yes	2.777	n/a	n/a	GoodResponse	0	n/a	n/a	0	23	Blank	Neutral	True
230.571	1.45	Control	0.7082999999999999	n/a	Yes	2.777	n/a	5.0	GoodResponse	0	0.04	229.611	0	23	Feedback	Neutral	True
232.021	2.777	Control	0.7082999999999999	n/a	Yes	2.777	n/a	n/a	GoodResponse	0	0.0	n/a	0	23	ISIslide	Neutral	True
234.82	0.25	Win2	0.72	0.0	Yes	3.13	0.02	n/a	GoodResponse	1	n/a	n/a	1	24	Cue	Win	True
235.07	3.95	Win2	0.72	0.0	Yes	3.13	0.0	n/a	GoodResponse	1	n/a	n/a	1	24	Fixation	Win	True
239.018	0.32	Win2	0.72	0.002	Yes	3.13	-0.002	4.0	GoodResponse	1	0.224	238.242	1	24	Target	Win	True
239.242	0.3	Win2	0.72	0.002	Yes	3.13	-0.002	4.0	GoodResponse	1	0.224	n/a	1	24	ButtonPress	Win	True
239.352	0.38	Win2	0.72	n/a	Yes	3.13	n/a	n/a	GoodResponse	1	n/a	n/a	1	24	Blank	Win	True
239.718	1.45	Win2	0.72	n/a	Yes	3.13	n/a	5.0	GoodResponse	1	0.015	238.733	1	24	Feedback	Win	True
241.168	3.13	Win2	0.72	n/a	Yes	3.13	n/a	n/a	GoodResponse	1	0.0	n/a	1	24	ISIslide	Win	True
244.316	0.25	Win2	0.7308	0.001	Yes	3.084	0.016	n/a	GoodResponse	1	n/a	n/a	2	25	Cue	Win	True
244.566	4.0	Win2	0.7308	0.0	Yes	3.084	0.0	n/a	GoodResponse	1	n/a	n/a	2	25	Fixation	Win	True
248.565	0.31	Win2	0.7308	0.001	Yes	3.084	-0.001	4.0	GoodResponse	1	0.22	247.785	2	25	Target	Win	True
248.785	0.3	Win2	0.7308	0.001	Yes	3.084	-0.001	4.0	GoodResponse	1	0.22	n/a	2	25	ButtonPress	Win	True
248.882	0.39	Win2	0.7308	n/a	Yes	3.084	n/a	n/a	GoodResponse	1	n/a	n/a	2	25	Blank	Win	True
249.265	1.45	Win2	0.7308	n/a	Yes	3.084	n/a	5.0	GoodResponse	1	0.029	248.294	2	25	Feedback	Win	True
250.714	3.084	Win2	0.7308	n/a	Yes	3.084	n/a	n/a	GoodResponse	1	0.0	n/a	2	25	ISIslide	Win	True
253.83	0.25	Win2	0.7406999999999999	0.0	Yes	2.92	0.03	n/a	GoodResponse	1	n/a	n/a	3	26	Cue	Win	True
254.08	3.95	Win2	0.7406999999999999	0.0	Yes	2.92	0.0	n/a	GoodResponse	1	n/a	n/a	3	26	Fixation	Win	True
258.028	0.3	Win2	0.7406999999999999	0.002	Yes	2.92	-0.002	4.0	GoodResponse	1	0.292	257.32	3	26	Target	Win	True
258.32	0.3	Win2	0.7406999999999999	0.002	Yes	2.92	-0.002	4.0	GoodResponse	1	0.292	n/a	3	26	ButtonPress	Win	True
258.328	0.4	Win2	0.7406999999999999	n/a	Yes	2.92	n/a	n/a	GoodResponse	1	n/a	n/a	3	26	Blank	Win	True
258.728	1.45	Win2	0.7406999999999999	n/a	Yes	2.92	n/a	5.0	GoodResponse	1	0.028	257.756	3	26	Feedback	Win	True
260.178	2.92	Win2	0.7406999999999999	n/a	Yes	2.92	n/a	n/a	GoodResponse	1	0.0	n/a	3	26	ISIslide	Win	True
263.127	0.25	Lose2	0.75	0.0	Yes	2.823	0.027	n/a	GoodResponse	0	n/a	n/a	3	27	Cue	AvoidedLoss	True
263.376	4.05	Lose2	0.75	0.001	Yes	2.823	-0.001	n/a	GoodResponse	0	n/a	n/a	3	27	Fixation	AvoidedLoss	True
267.425	0.29	Lose2	0.75	0.002	Yes	2.823	-0.002	4.0	GoodResponse	0	0.228	266.653	3	27	Target	AvoidedLoss	True
267.653	0.3	Lose2	0.75	0.002	Yes	2.823	-0.002	4.0	GoodResponse	0	0.228	n/a	3	27	ButtonPress	AvoidedLoss	True
267.725	0.41	Lose2	0.75	n/a	Yes	2.823	n/a	n/a	GoodResponse	0	n/a	n/a	3	27	Blank	AvoidedLoss	True
268.125	1.45	Lose2	0.75	n/a	Yes	2.823	n/a	5.0	GoodResponse	0	0.046	267.171	3	27	Feedback	AvoidedLoss	True
269.574	2.823	Lose2	0.75	n/a	Yes	2.823	n/a	n/a	GoodResponse	0	0.0	n/a	3	27	ISIslide	AvoidedLoss	True
272.423	0.25	Control	0.7585999999999999	0.0	Yes	2.827	0.023	n/a	GoodResponse	0	n/a	n/a	3	28	Cue	Neutral	True
272.673	4.05	Control	0.7585999999999999	0.0	Yes	2.827	0.0	n/a	GoodResponse	0	n/a	n/a	3	28	Fixation	Neutral	True
276.722	0.28	Control	0.7585999999999999	0.001	Yes	2.827	-0.001	4.0	GoodResponse	0	0.253	275.975	3	28	Target	Neutral	True
276.975	0.3	Control	0.7585999999999999	0.001	Yes	2.827	-0.001	4.0	GoodResponse	0	0.253	n/a	3	28	ButtonPress	Neutral	True
277.005	0.42	Control	0.7585999999999999	n/a	Yes	2.827	n/a	n/a	GoodResponse	0	n/a	n/a	3	28	Blank	Neutral	True
277.421	1.45	Control	0.7585999999999999	n/a	Yes	2.827	n/a	5.0	GoodResponse	0	0.019	276.44	3	28	Feedback	Neutral	True
278.871	2.827	Control	0.7585999999999999	n/a	Yes	2.827	n/a	n/a	GoodResponse	0	0.0	n/a	3	28	ISIslide	Neutral	True
281.72	0.25	Lose2	0.7333	0.0	No	2.83	0.02	n/a	NoResponse	-1	n/a	n/a	2	29	Cue	Loss	True
281.97	3.95	Lose2	0.7333	0.0	No	2.83	0.0	n/a	NoResponse	-1	n/a	n/a	2	29	Fixation	Loss	True
285.918	0.27	Lose2	0.7333	0.002	No	2.83	-0.002	4.0	NoResponse	-1	0.3	285.218	2	29	Target	Loss	True
286.202	0.43	Lose2	0.7333	n/a	No	2.83	n/a	n/a	NoResponse	-1	n/a	n/a	2	29	Blank	Loss	True
286.218	0.3	Lose2	0.7333	0.002	No	2.83	-0.002	4.0	NoResponse	-1	0.3	n/a	2	29	ButtonPress	Loss	True
286.618	1.45	Lose2	0.7333	n/a	No	2.83	n/a	5.0	NoResponse	-1	0.041	285.659	2	29	Feedback	Loss	True
288.068	2.83	Lose2	0.7333	n/a	No	2.83	n/a	n/a	NoResponse	-1	0.0	n/a	2	29	ISIslide	Loss	True
290.917	0.25	Win2	0.7419	0.0	Yes	2.783	0.017	n/a	GoodResponse	1	n/a	n/a	3	30	Cue	Win	True
291.167	3.9	Win2	0.7419	0.0	Yes	2.783	0.0	n/a	GoodResponse	1	n/a	n/a	3	30	Fixation	Win	True
295.065	0.26	Win2	0.7419	0.002	Yes	2.783	-0.002	4.0	GoodResponse	1	0.226	294.291	3	30	Target	Win	True
295.291	0.3	Win2	0.7419	0.002	Yes	2.783	-0.002	4.0	GoodResponse	1	0.226	n/a	3	30	ButtonPress	Win	True
295.332	0.44	Win2	0.7419	n/a	Yes	2.783	n/a	n/a	GoodResponse	1	n/a	n/a	3	30	Blank	Win	True
295.765	1.45	Win2	0.7419	n/a	Yes	2.783	n/a	5.0	GoodResponse	1	0.016	294.781	3	30	Feedback	Win	True
297.214	2.783	Win2	0.7419	n/a	Yes	2.783	n/a	n/a	GoodResponse	1	0.0	n/a	3	30	ISIslide	Win	True
300.03	0.25	Lose2	0.75	0.0	Yes	2.82	0.03	n/a	GoodResponse	0	n/a	n/a	3	31	Cue	AvoidedLoss	True
300.28	4.05	Lose2	0.75	0.0	Yes	2.82	0.0	n/a	GoodResponse	0	n/a	n/a	3	31	Fixation	AvoidedLoss	True
304.329	0.25	Lose2	0.75	0.001	Yes	2.82	-0.001	4.0	GoodResponse	0	0.229	303.558	3	31	Target	AvoidedLoss	True
304.558	0.3	Lose2	0.75	0.001	Yes	2.82	-0.001	4.0	GoodResponse	0	0.229	n/a	3	31	ButtonPress	AvoidedLoss	True
304.579	0.45	Lose2	0.75	n/a	Yes	2.82	n/a	n/a	GoodResponse	0	n/a	n/a	3	31	Blank	AvoidedLoss	True
305.028	1.45	Lose2	0.75	n/a	Yes	2.82	n/a	5.0	GoodResponse	0	0.021	304.049	3	31	Feedback	AvoidedLoss	True
306.478	2.82	Lose2	0.75	n/a	Yes	2.82	n/a	n/a	GoodResponse	0	0.0	n/a	3	31	ISIslide	AvoidedLoss	True
309.327	0.25	Lose2	0.7576	0.0	Yes	2.623	0.027	n/a	GoodResponse	0	n/a	n/a	3	32	Cue	AvoidedLoss	True
309.577	4.15	Lose2	0.7576	0.0	Yes	2.623	0.0	n/a	GoodResponse	0	n/a	n/a	3	32	Fixation	AvoidedLoss	True
313.725	0.24	Lose2	0.7576	0.002	Yes	2.623	-0.002	4.0	GoodResponse	0	0.234	312.959	3	32	Target	AvoidedLoss	True
313.959	0.3	Lose2	0.7576	0.002	Yes	2.623	-0.002	4.0	GoodResponse	0	0.234	n/a	3	32	ButtonPress	AvoidedLoss	True
313.975	0.46	Lose2	0.7576	n/a	Yes	2.623	n/a	n/a	GoodResponse	0	n/a	n/a	3	32	Blank	AvoidedLoss	True
314.425	1.45	Lose2	0.7576	n/a	Yes	2.623	n/a	5.0	GoodResponse	0	0.038	313.463	3	32	Feedback	AvoidedLoss	True
315.875	2.623	Lose2	0.7576	n/a	Yes	2.623	n/a	n/a	GoodResponse	0	0.0	n/a	3	32	ISIslide	AvoidedLoss	True
318.524	0.25	Win2	0.7353000000000001	0.0	No	2.676	0.024	n/a	NoResponse	0	n/a	n/a	3	33	Cue	MissedWin	True
318.774	4.0	Win2	0.7353000000000001	0.0	No	2.676	0.0	n/a	NoResponse	0	n/a	n/a	3	33	Fixation	MissedWin	True
322.772	0.23	Win2	0.7353000000000001	0.002	No	2.676	-0.002	4.0	NoResponse	0	0.242	322.014	3	33	Target	MissedWin	True
323.005	0.47	Win2	0.7353000000000001	n/a	No	2.676	n/a	n/a	NoResponse	0	n/a	n/a	3	33	Blank	MissedWin	True
323.014	0.3	Win2	0.7353000000000001	0.002	No	2.676	-0.002	4.0	NoResponse	0	0.242	n/a	3	33	ButtonPress	MissedWin	True
323.472	1.45	Win2	0.7353000000000001	n/a	No	2.676	n/a	5.0	NoResponse	0	0.016	322.488	3	33	Feedback	MissedWin	True
324.921	2.676	Win2	0.7353000000000001	n/a	No	2.676	n/a	n/a	NoResponse	0	0.0	n/a	3	33	ISIslide	MissedWin	True
327.62	0.25	Lose2	0.7143	0.001	No	2.63	0.02	n/a	NoResponse	-1	n/a	n/a	2	34	Cue	Loss	True
327.87	4.05	Lose2	0.7143	0.0	No	2.63	0.0	n/a	NoResponse	-1	n/a	n/a	2	34	Fixation	Loss	True
331.919	0.22	Lose2	0.7143	0.001	No	2.63	-0.001	4.0	NoResponse	-1	0.243	331.162	2	34	Target	Loss	True
332.136	0.48	Lose2	0.7143	n/a	No	2.63	n/a	n/a	NoResponse	-1	n/a	n/a	2	34	Blank	Loss	True
332.162	0.3	Lose2	0.7143	0.001	No	2.63	-0.001	4.0	NoResponse	-1	0.243	n/a	2	34	ButtonPress	Loss	True
332.619	1.45	Lose2	0.7143	n/a	No	2.63	n/a	5.0	NoResponse	-1	0.04	331.659	2	34	Feedback	Loss	True
334.068	2.63	Lose2	0.7143	n/a	No	2.63	n/a	n/a	NoResponse	-1	0.0	n/a	2	34	ISIslide	Loss	True
336.717	0.25	Lose2	0.7222	0.0	Yes	2.683	0.017	n/a	GoodResponse	0	n/a	n/a	2	35	Cue	AvoidedLoss	True
336.967	4.0	Lose2	0.7222	0.0	Yes	2.683	0.0	n/a	GoodResponse	0	n/a	n/a	2	35	Fixation	AvoidedLoss	True
340.966	0.21	Lose2	0.7222	0.001	Yes	2.683	-0.001	4.0	GoodResponse	0	0.166	340.132	2	35	Target	AvoidedLoss	True
341.132	0.3	Lose2	0.7222	0.001	Yes	2.683	-0.001	4.0	GoodResponse	0	0.166	n/a	2	35	ButtonPress	AvoidedLoss	True
341.182	0.49	Lose2	0.7222	n/a	Yes	2.683	n/a	n/a	GoodResponse	0	n/a	n/a	2	35	Blank	AvoidedLoss	True
341.666	1.45	Lose2	0.7222	n/a	Yes	2.683	n/a	5.0	GoodResponse	0	0.016	340.682	2	35	Feedback	AvoidedLoss	True
343.115	2.683	Lose2	0.7222	n/a	Yes	2.683	n/a	n/a	GoodResponse	0	0.0	n/a	2	35	ISIslide	AvoidedLoss	True
345.814	0.25	Control	0.7027	0.0	No	2.686	0.014	n/a	NoResponse	0	n/a	n/a	2	36	Cue	Neutral	True
346.064	4.0	Control	0.7027	0.0	No	2.686	0.0	n/a	NoResponse	0	n/a	n/a	2	36	Fixation	Neutral	True
350.063	0.2	Control	0.7027	0.001	No	2.686	-0.001	4.0	NoResponse	0	0.226	349.289	2	36	Target	Neutral	True
350.262	0.5	Control	0.7027	n/a	No	2.686	n/a	n/a	NoResponse	0	n/a	n/a	2	36	Blank	Neutral	True
350.289	0.3	Control	0.7027	0.001	No	2.686	-0.001	4.0	NoResponse	0	0.226	n/a	2	36	ButtonPress	Neutral	True
350.762	1.45	Control	0.7027	n/a	No	2.686	n/a	5.0	NoResponse	0	0.042	349.804	2	36	Feedback	Neutral	True
352.212	2.686	Control	0.7027	n/a	No	2.686	n/a	n/a	NoResponse	0	0.0	n/a	2	36	ISIslide	Neutral	True
354.927	0.25	Win2	0.6842	0.001	No	2.873	0.027	n/a	NoResponse	0	n/a	n/a	2	37	Cue	MissedWin	True
355.177	4.0	Win2	0.6842	0.0	No	2.873	0.0	n/a	NoResponse	0	n/a	n/a	2	37	Fixation	MissedWin	True
359.176	0.19	Win2	0.6842	0.001	No	2.873	-0.001	4.0	NoResponse	0	0.257	358.433	2	37	Target	MissedWin	True
359.376	0.51	Win2	0.6842	n/a	No	2.873	n/a	n/a	NoResponse	0	n/a	n/a	2	37	Blank	MissedWin	True
359.433	0.3	Win2	0.6842	0.001	No	2.873	-0.001	4.0	NoResponse	0	0.257	n/a	2	37	ButtonPress	MissedWin	True
359.876	1.45	Win2	0.6842	n/a	No	2.873	n/a	5.0	NoResponse	0	0.006	358.882	2	37	Feedback	MissedWin	True
361.325	2.873	Win2	0.6842	n/a	No	2.873	n/a	n/a	NoResponse	0	0.0	n/a	2	37	ISIslide	MissedWin	True
364.224	0.25	Lose2	0.6667000000000001	0.0	No	2.826	0.024	n/a	NoResponse	-1	n/a	n/a	1	38	Cue	Loss	True
364.474	3.95	Lose2	0.6667000000000001	0.0	No	2.826	0.0	n/a	NoResponse	-1	n/a	n/a	1	38	Fixation	Loss	True
368.423	0.18	Lose2	0.6667000000000001	0.001	No	2.826	-0.001	4.0	NoResponse	-1	0.202	367.625	1	38	Target	Loss	True
368.606	0.52	Lose2	0.6667000000000001	n/a	No	2.826	n/a	n/a	NoResponse	-1	n/a	n/a	1	38	Blank	Loss	True
368.625	0.3	Lose2	0.6667000000000001	0.001	No	2.826	-0.001	4.0	NoResponse	-1	0.202	n/a	1	38	ButtonPress	Loss	True
369.122	1.45	Lose2	0.6667000000000001	n/a	No	2.826	n/a	5.0	NoResponse	-1	0.024	368.146	1	38	Feedback	Loss	True
370.572	2.826	Lose2	0.6667000000000001	n/a	No	2.826	n/a	n/a	NoResponse	-1	0.0	n/a	1	38	ISIslide	Loss	True
373.421	0.25	Win2	0.65	0.0	No	2.979	0.021	n/a	NoResponse	0	n/a	n/a	1	39	Cue	MissedWin	False
373.671	4.1	Win2	0.65	0.0	No	2.979	0.0	n/a	NoResponse	0	n/a	n/a	1	39	Fixation	MissedWin	False
377.769	0.17	Win2	0.65	0.002	No	2.979	-0.002	n/a	NoResponse	0	n/a	n/a	1	39	Target	MissedWin	False
377.953	0.53	Win2	0.65	n/a	No	2.979	n/a	n/a	NoResponse	0	n/a	n/a	1	39	Blank	MissedWin	False
378.469	1.45	Win2	0.65	n/a	No	2.979	n/a	5.0	NoResponse	0	0.043	377.512	1	39	Feedback	MissedWin	False
379.919	2.979	Win2	0.65	n/a	No	2.979	n/a	n/a	NoResponse	0	0.0	n/a	1	39	ISIslide	MissedWin	False
382.918	0.25	Win2	0.6341	0.0	No	2.732	0.018	n/a	NoResponse	0	n/a	n/a	1	40	Cue	MissedWin	True
383.168	3.95	Win2	0.6341	0.0	No	2.732	0.0	n/a	NoResponse	0	n/a	n/a	1	40	Fixation	MissedWin	True
387.116	0.18	Win2	0.6341	0.002	No	2.732	-0.002	4.0	NoResponse	0	0.221	386.337	1	40	Target	MissedWin	True
387.299	0.52	Win2	0.6341	n/a	No	2.732	n/a	n/a	NoResponse	0	n/a	n/a	1	40	Blank	MissedWin	True
387.337	0.3	Win2	0.6341	0.002	No	2.732	-0.002	4.0	NoResponse	0	0.221	n/a	1	40	ButtonPress	MissedWin	True
387.816	1.45	Win2	0.6341	n/a	No	2.732	n/a	5.0	NoResponse	0	0.012	386.828	1	40	Feedback	MissedWin	True
389.265	2.732	Win2	0.6341	n/a	No	2.732	n/a	n/a	NoResponse	0	0.0	n/a	1	40	ISIslide	MissedWin	True
392.014	0.25	Win2	0.6429	0.001	Yes	2.786	0.014	n/a	GoodResponse	1	n/a	n/a	2	41	Cue	Win	True
392.264	3.9	Win2	0.6429	0.0	Yes	2.786	0.0	n/a	GoodResponse	1	n/a	n/a	2	41	Fixation	Win	True
396.163	0.19	Win2	0.6429	0.001	Yes	2.786	-0.001	4.0	GoodResponse	1	0.174	395.337	2	41	Target	Win	True
396.337	0.3	Win2	0.6429	0.001	Yes	2.786	-0.001	4.0	GoodResponse	1	0.174	n/a	2	41	ButtonPress	Win	True
396.363	0.51	Win2	0.6429	n/a	Yes	2.786	n/a	n/a	GoodResponse	1	n/a	n/a	2	41	Blank	Win	True
396.863	1.45	Win2	0.6429	n/a	Yes	2.786	n/a	5.0	GoodResponse	1	0.039	395.902	2	41	Feedback	Win	True
398.312	2.786	Win2	0.6429	n/a	Yes	2.786	n/a	n/a	GoodResponse	1	0.0	n/a	2	41	ISIslide	Win	True
401.128	0.25	Control	0.6279	0.0	No	2.922	0.028	n/a	NoResponse	0	n/a	n/a	2	42	Cue	Neutral	True
401.378	3.85	Control	0.6279	0.0	No	2.922	0.0	n/a	NoResponse	0	n/a	n/a	2	42	Fixation	Neutral	True
405.226	0.2	Control	0.6279	0.002	No	2.922	-0.002	4.0	NoResponse	0	0.245	404.471	2	42	Target	Neutral	True
405.426	0.5	Control	0.6279	n/a	No	2.922	n/a	n/a	NoResponse	0	n/a	n/a	2	42	Blank	Neutral	True
405.471	0.3	Control	0.6279	0.002	No	2.922	-0.002	4.0	NoResponse	0	0.245	n/a	2	42	ButtonPress	Neutral	True
405.926	1.45	Control	0.6279	n/a	No	2.922	n/a	5.0	NoResponse	0	0.049	404.975	2	42	Feedback	Neutral	True
407.376	2.922	Control	0.6279	n/a	No	2.922	n/a	n/a	NoResponse	0	0.0	n/a	2	42	ISIslide	Neutral	True
410.325	0.25	Win2	0.6136	0.0	No	3.175	0.025	n/a	NoResponse	0	n/a	n/a	2	43	Cue	MissedWin	True
410.575	4.0	Win2	0.6136	0.0	No	3.175	0.0	n/a	NoResponse	0	n/a	n/a	2	43	Fixation	MissedWin	True
414.573	0.21	Win2	0.6136	0.002	No	3.175	-0.002	4.0	NoResponse	0	0.263	413.836	2	43	Target	MissedWin	True
414.79	0.49	Win2	0.6136	n/a	No	3.175	n/a	n/a	NoResponse	0	n/a	n/a	2	43	Blank	MissedWin	True
414.836	0.3	Win2	0.6136	0.002	No	3.175	-0.002	4.0	NoResponse	0	0.263	n/a	2	43	ButtonPress	MissedWin	True
415.273	1.45	Win2	0.6136	n/a	No	3.175	n/a	5.0	NoResponse	0	0.019	414.292	2	43	Feedback	MissedWin	True
416.722	3.175	Win2	0.6136	n/a	No	3.175	n/a	n/a	NoResponse	0	0.0	n/a	2	43	ISIslide	MissedWin	True
419.921	0.25	Win2	0.6222	0.0	Yes	2.979	0.021	n/a	GoodResponse	1	n/a	n/a	3	44	Cue	Win	False
420.171	4.0	Win2	0.6222	0.0	Yes	2.979	0.0	4.0	GoodResponse	1	3.246	422.417	3	44	Fixation	Win	False
423.417	0.3	Win2	0.6222	0.0	Yes	2.979	0.0	4.0	GoodResponse	1	3.246	n/a	3	44	ButtonPress	Win	False
424.17	0.22	Win2	0.6222	0.001	Yes	2.979	-0.001	4.0	GoodResponse	1	0.17	423.34	3	44	Target	Win	False
424.34	0.3	Win2	0.6222	0.001	Yes	2.979	-0.001	4.0	GoodResponse	1	0.17	n/a	3	44	ButtonPress	Win	False
424.386	0.48	Win2	0.6222	n/a	Yes	2.979	n/a	n/a	GoodResponse	1	n/a	n/a	3	44	Blank	Win	False
424.87	1.45	Win2	0.6222	n/a	Yes	2.979	n/a	5.0	GoodResponse	1	0.032	423.902	3	44	Feedback	Win	False
426.319	2.979	Win2	0.6222	n/a	Yes	2.979	n/a	n/a	GoodResponse	1	0.0	n/a	3	44	ISIslide	Win	False
429.318	0.25	Control	0.6304	0.0	Yes	2.882	0.018	n/a	GoodResponse	0	n/a	n/a	3	45	Cue	Neutral	True
429.568	4.1	Control	0.6304	0.0	Yes	2.882	0.0	n/a	GoodResponse	0	n/a	n/a	3	45	Fixation	Neutral	True
433.666	0.23	Control	0.6304	0.002	Yes	2.882	-0.002	4.0	GoodResponse	0	0.228	432.894	3	45	Target	Neutral	True
433.894	0.3	Control	0.6304	0.002	Yes	2.882	-0.002	4.0	GoodResponse	0	0.228	n/a	3	45	ButtonPress	Neutral	True
433.9	0.47	Control	0.6304	n/a	Yes	2.882	n/a	n/a	GoodResponse	0	n/a	n/a	3	45	Blank	Neutral	True
434.366	1.45	Control	0.6304	n/a	Yes	2.882	n/a	5.0	GoodResponse	0	0.047	433.413	3	45	Feedback	Neutral	True
435.816	2.882	Control	0.6304	n/a	Yes	2.882	n/a	n/a	GoodResponse	0	0.0	n/a	3	45	ISIslide	Neutral	True
438.715	0.25	Lose2	0.6383	0.0	Yes	3.385	0.015	n/a	GoodResponse	0	n/a	n/a	3	46	Cue	AvoidedLoss	True
438.965	4.0	Lose2	0.6383	0.0	Yes	3.385	0.0	n/a	GoodResponse	0	n/a	n/a	3	46	Fixation	AvoidedLoss	True
442.963	0.24	Lose2	0.6383	0.002	Yes	3.385	-0.002	4.0	GoodResponse	0	0.226	442.189	3	46	Target	AvoidedLoss	True
443.189	0.3	Lose2	0.6383	0.002	Yes	3.385	-0.002	4.0	GoodResponse	0	0.226	n/a	3	46	ButtonPress	AvoidedLoss	True
443.213	0.46	Lose2	0.6383	n/a	Yes	3.385	n/a	n/a	GoodResponse	0	n/a	n/a	3	46	Blank	AvoidedLoss	True
443.663	1.45	Lose2	0.6383	n/a	Yes	3.385	n/a	5.0	GoodResponse	0	0.019	442.682	3	46	Feedback	AvoidedLoss	True
445.112	3.385	Lose2	0.6383	n/a	Yes	3.385	n/a	n/a	GoodResponse	0	0.0	n/a	3	46	ISIslide	AvoidedLoss	True
448.528	0.25	Lose2	0.625	0.0	No	2.672	0.028	n/a	NoResponse	-1	n/a	n/a	2	47	Cue	Loss	False
448.778	4.0	Lose2	0.625	0.0	No	2.672	0.0	4.0	NoResponse	-1	0.147	447.925	2	47	Fixation	Loss	False
448.925	0.3	Lose2	0.625	0.0	No	2.672	0.0	4.0	NoResponse	-1	0.147	n/a	2	47	ButtonPress	Loss	False
452.776	0.25	Lose2	0.625	0.002	No	2.672	-0.002	4.0	NoResponse	-1	0.393	452.169	2	47	Target	Loss	False
453.026	0.45	Lose2	0.625	n/a	No	2.672	n/a	n/a	NoResponse	-1	n/a	n/a	2	47	Blank	Loss	False
453.169	0.3	Lose2	0.625	0.002	No	2.672	-0.002	4.0	NoResponse	-1	0.393	n/a	2	47	ButtonPress	Loss	False
453.476	1.45	Lose2	0.625	n/a	No	2.672	n/a	5.0	NoResponse	-1	0.011	452.487	2	47	Feedback	Loss	False
454.926	2.672	Lose2	0.625	n/a	No	2.672	n/a	n/a	NoResponse	-1	0.0	n/a	2	47	ISIslide	Loss	False
457.625	0.25	Lose2	0.6122	0.0	No	3.025	0.025	n/a	NoResponse	-1	n/a	n/a	1	48	Cue	Loss	True
457.875	3.95	Lose2	0.6122	0.0	No	3.025	0.0	n/a	NoResponse	-1	n/a	n/a	1	48	Fixation	Loss	True
461.823	0.26	Lose2	0.6122	0.002	No	3.025	-0.002	4.0	NoResponse	-1	0.489	461.312	1	48	Target	Loss	True
462.09	0.44	Lose2	0.6122	n/a	No	3.025	n/a	n/a	NoResponse	-1	n/a	n/a	1	48	Blank	Loss	True
462.312	0.3	Lose2	0.6122	0.002	No	3.025	-0.002	4.0	NoResponse	-1	0.489	n/a	1	48	ButtonPress	Loss	True
462.523	1.45	Lose2	0.6122	n/a	No	3.025	n/a	5.0	NoResponse	-1	0.037	461.56	1	48	Feedback	Loss	True
463.972	3.025	Lose2	0.6122	n/a	No	3.025	n/a	n/a	NoResponse	-1	0.0	n/a	1	48	ISIslide	Loss	True
467.021	0.25	Control	0.62	0.0	Yes	2.879	0.021	n/a	GoodResponse	0	n/a	n/a	1	49	Cue	Neutral	False
467.271	4.0	Control	0.62	0.0	Yes	2.879	0.0	4.0	GoodResponse	0	0.071	466.342	1	49	Fixation	Neutral	False
467.342	0.3	Control	0.62	0.0	Yes	2.879	0.0	4.0	GoodResponse	0	0.071	n/a	1	49	ButtonPress	Neutral	False
471.27	0.27	Control	0.62	0.001	Yes	2.879	-0.001	4.0	GoodResponse	0	0.259	470.529	1	49	Target	Neutral	False
471.529	0.3	Control	0.62	0.001	Yes	2.879	-0.001	4.0	GoodResponse	0	0.259	n/a	1	49	ButtonPress	Neutral	False
471.536	0.43	Control	0.62	n/a	Yes	2.879	n/a	n/a	GoodResponse	0	n/a	n/a	1	49	Blank	Neutral	False
471.97	1.45	Control	0.62	n/a	Yes	2.879	n/a	5.0	GoodResponse	0	0.007	470.977	1	49	Feedback	Neutral	False
473.419	2.879	Control	0.62	n/a	Yes	2.879	n/a	n/a	GoodResponse	0	0.0	n/a	1	49	ISIslide	Neutral	False
476.318	0.25	Control	0.6275	0.0	Yes	2.782	0.018	n/a	GoodResponse	0	n/a	n/a	1	50	Cue	Neutral	True
476.568	4.0	Control	0.6275	0.0	Yes	2.782	0.0	n/a	GoodResponse	0	n/a	n/a	1	50	Fixation	Neutral	True
480.567	0.28	Control	0.6275	0.001	Yes	2.782	-0.001	4.0	GoodResponse	0	0.245	479.812	1	50	Target	Neutral	True
480.812	0.3	Control	0.6275	0.001	Yes	2.782	-0.001	4.0	GoodResponse	0	0.245	n/a	1	50	ButtonPress	Neutral	True
480.85	0.42	Control	0.6275	n/a	Yes	2.782	n/a	n/a	GoodResponse	0	n/a	n/a	1	50	Blank	Neutral	True
481.266	1.45	Control	0.6275	n/a	Yes	2.782	n/a	5.0	GoodResponse	0	0.025	480.291	1	50	Feedback	Neutral	True
482.716	2.782	Control	0.6275	n/a	Yes	2.782	n/a	n/a	GoodResponse	0	0.0	n/a	1	50	ISIslide	Neutral	True
485.515	0.25	Control	0.6346	0.0	Yes	2.735	0.015	n/a	GoodResponse	0	n/a	n/a	1	51	Cue	Neutral	True
485.765	3.95	Control	0.6346	0.0	Yes	2.735	0.0	n/a	GoodResponse	0	n/a	n/a	1	51	Fixation	Neutral	True
489.713	0.29	Control	0.6346	0.002	Yes	2.735	-0.002	4.0	GoodResponse	0	0.218	488.931	1	51	Target	Neutral	True
489.931	0.3	Control	0.6346	0.002	Yes	2.735	-0.002	4.0	GoodResponse	0	0.218	n/a	1	51	ButtonPress	Neutral	True
490.013	0.41	Control	0.6346	n/a	Yes	2.735	n/a	n/a	GoodResponse	0	n/a	n/a	1	51	Blank	Neutral	True
490.413	1.45	Control	0.6346	n/a	Yes	2.735	n/a	5.0	GoodResponse	0	0.049	489.462	1	51	Feedback	Neutral	True
491.863	2.735	Control	0.6346	n/a	Yes	2.735	n/a	n/a	GoodResponse	0	0.0	n/a	1	51	ISIslide	Neutral	True
494.628	0.25	Control	0.6225999999999999	0.0	No	2.622	0.028	n/a	NoResponse	0	n/a	n/a	1	52	Cue	Neutral	True
494.878	4.05	Control	0.6225999999999999	0.0	No	2.622	0.0	n/a	NoResponse	0	n/a	n/a	1	52	Fixation	Neutral	True
498.927	0.3	Control	0.6225999999999999	0.001	No	2.622	-0.001	4.0	NoResponse	0	0.358	498.285	1	52	Target	Neutral	True
499.227	0.4	Control	0.6225999999999999	n/a	No	2.622	n/a	n/a	NoResponse	0	n/a	n/a	1	52	Blank	Neutral	True
499.285	0.3	Control	0.6225999999999999	0.001	No	2.622	-0.001	4.0	NoResponse	0	0.358	n/a	1	52	ButtonPress	Neutral	True
499.627	1.45	Control	0.6225999999999999	n/a	No	2.622	n/a	5.0	NoResponse	0	0.006	498.633	1	52	Feedback	Neutral	True
501.076	2.622	Control	0.6225999999999999	n/a	No	2.622	n/a	n/a	NoResponse	0	0.0	n/a	1	52	ISIslide	Neutral	True
503.725	0.25	Win2	0.6296	0.0	Yes	2.925	0.025	n/a	GoodResponse	1	n/a	n/a	2	53	Cue	Win	True
503.975	4.05	Win2	0.6296	0.0	Yes	2.925	0.0	n/a	GoodResponse	1	n/a	n/a	2	53	Fixation	Win	True
508.024	0.31	Win2	0.6296	0.001	Yes	2.925	-0.001	4.0	GoodResponse	1	0.235	507.259	2	53	Target	Win	True
508.259	0.3	Win2	0.6296	0.001	Yes	2.925	-0.001	4.0	GoodResponse	1	0.235	n/a	2	53	ButtonPress	Win	True
508.34	0.39	Win2	0.6296	n/a	Yes	2.925	n/a	n/a	GoodResponse	1	n/a	n/a	2	53	Blank	Win	True
508.723	1.45	Win2	0.6296	n/a	Yes	2.925	n/a	5.0	GoodResponse	1	0.032	507.755	2	53	Feedback	Win	True
510.173	2.925	Win2	0.6296	n/a	Yes	2.925	n/a	n/a	GoodResponse	1	0.0	n/a	2	53	ISIslide	Win	True
513.122	0.25	Win2	0.6364	0.0	Yes	2.728	0.022	n/a	GoodResponse	1	n/a	n/a	3	54	Cue	Win	False
513.372	3.95	Win2	0.6364	0.0	Yes	2.728	0.0	4.0	GoodResponse	1	0.068	512.44	3	54	Fixation	Win	False
513.44	0.3	Win2	0.6364	0.0	Yes	2.728	0.0	4.0	GoodResponse	1	0.068	n/a	3	54	ButtonPress	Win	False
517.32	0.32	Win2	0.6364	0.002	Yes	2.728	-0.002	4.0	GoodResponse	1	0.254	516.574	3	54	Target	Win	False
517.574	0.3	Win2	0.6364	0.002	Yes	2.728	-0.002	4.0	GoodResponse	1	0.254	n/a	3	54	ButtonPress	Win	False
517.654	0.38	Win2	0.6364	n/a	Yes	2.728	n/a	n/a	GoodResponse	1	n/a	n/a	3	54	Blank	Win	False
518.02	1.45	Win2	0.6364	n/a	Yes	2.728	n/a	5.0	GoodResponse	1	0.008	517.028	3	54	Feedback	Win	False
519.47	2.728	Win2	0.6364	n/a	Yes	2.728	n/a	n/a	GoodResponse	1	0.0	n/a	3	54	ISIslide	Win	False
522.219	0.25	Control	0.625	0.0	No	3.031	0.019	n/a	NoResponse	0	n/a	n/a	3	55	Cue	Neutral	True
522.468	3.95	Control	0.625	0.001	No	3.031	-0.001	n/a	NoResponse	0	n/a	n/a	3	55	Fixation	Neutral	True
526.417	0.33	Control	0.625	0.002	No	3.031	-0.002	4.0	NoResponse	0	0.443	525.86	3	55	Target	Neutral	True
526.75	0.37	Control	0.625	n/a	No	3.031	n/a	n/a	NoResponse	0	n/a	n/a	3	55	Blank	Neutral	True
526.86	0.3	Control	0.625	0.002	No	3.031	-0.002	4.0	NoResponse	0	0.443	n/a	3	55	ButtonPress	Neutral	True
527.117	1.45	Control	0.625	n/a	No	3.031	n/a	5.0	NoResponse	0	0.027	526.144	3	55	Feedback	Neutral	True
528.566	3.031	Control	0.625	n/a	No	3.031	n/a	n/a	NoResponse	0	0.0	n/a	3	55	ISIslide	Neutral	True
531.615	0.25	Control	0.6315999999999999	0.0	Yes	2.835	0.015	n/a	GoodResponse	0	n/a	n/a	3	56	Cue	Neutral	True
531.865	3.95	Control	0.6315999999999999	0.0	Yes	2.835	0.0	n/a	GoodResponse	0	n/a	n/a	3	56	Fixation	Neutral	True
535.814	0.34	Control	0.6315999999999999	0.001	Yes	2.835	-0.001	4.0	GoodResponse	0	0.237	535.051	3	56	Target	Neutral	True
536.051	0.3	Control	0.6315999999999999	0.001	Yes	2.835	-0.001	4.0	GoodResponse	0	0.237	n/a	3	56	ButtonPress	Neutral	True
536.164	0.36	Control	0.6315999999999999	n/a	Yes	2.835	n/a	n/a	GoodResponse	0	n/a	n/a	3	56	Blank	Neutral	True
536.514	1.45	Control	0.6315999999999999	n/a	Yes	2.835	n/a	5.0	GoodResponse	0	0.045	535.559	3	56	Feedback	Neutral	True
537.963	2.835	Control	0.6315999999999999	n/a	Yes	2.835	n/a	n/a	GoodResponse	0	0.0	n/a	3	56	ISIslide	Neutral	True
540.829	0.25	Control	0.6379	0.0	Yes	3.471	0.029	n/a	GoodResponse	0	n/a	n/a	3	57	Cue	Neutral	False
541.079	4.0	Control	0.6379	0.0	Yes	3.471	0.0	4.0	GoodResponse	0	0.102	540.181	3	57	Fixation	Neutral	False
541.181	0.3	Control	0.6379	0.0	Yes	3.471	0.0	4.0	GoodResponse	0	0.102	n/a	3	57	ButtonPress	Neutral	False
545.077	0.35	Control	0.6379	0.002	Yes	3.471	-0.002	4.0	GoodResponse	0	0.29	544.367	3	57	Target	Neutral	False
545.367	0.3	Control	0.6379	0.002	Yes	3.471	-0.002	4.0	GoodResponse	0	0.29	n/a	3	57	ButtonPress	Neutral	False
545.427	0.35	Control	0.6379	n/a	Yes	3.471	n/a	n/a	GoodResponse	0	n/a	n/a	3	57	Blank	Neutral	False
545.777	1.45	Control	0.6379	n/a	Yes	3.471	n/a	5.0	GoodResponse	0	0.002	544.779	3	57	Feedback	Neutral	False
547.226	3.471	Control	0.6379	n/a	Yes	3.471	n/a	n/a	GoodResponse	0	0.0	n/a	3	57	ISIslide	Neutral	False
550.725	0.25	Win2	0.6441	0.0	Yes	2.725	0.025	n/a	GoodResponse	1	n/a	n/a	4	58	Cue	Win	True
550.975	4.05	Win2	0.6441	0.0	Yes	2.725	0.0	n/a	GoodResponse	1	n/a	n/a	4	58	Fixation	Win	True
555.024	0.36	Win2	0.6441	0.001	Yes	2.725	-0.001	4.0	GoodResponse	1	0.268	554.292	4	58	Target	Win	True
555.292	0.3	Win2	0.6441	0.001	Yes	2.725	-0.001	4.0	GoodResponse	1	0.268	n/a	4	58	ButtonPress	Win	True
555.39	0.34	Win2	0.6441	n/a	Yes	2.725	n/a	n/a	GoodResponse	1	n/a	n/a	4	58	Blank	Win	True
555.723	1.45	Win2	0.6441	n/a	Yes	2.725	n/a	5.0	GoodResponse	1	0.008	554.731	4	58	Feedback	Win	True
557.173	2.725	Win2	0.6441	n/a	Yes	2.725	n/a	n/a	GoodResponse	1	0.0	n/a	4	58	ISIslide	Win	True
559.922	0.25	Lose2	0.6333	0.0	No	2.678	0.022	n/a	NoResponse	-1	n/a	n/a	3	59	Cue	Loss	True
560.172	4.0	Lose2	0.6333	0.0	No	2.678	0.0	n/a	NoResponse	-1	n/a	n/a	3	59	Fixation	Loss	True
564.17	0.37	Lose2	0.6333	0.002	No	2.678	-0.002	4.0	NoResponse	-1	0.612	563.782	3	59	Target	Loss	True
564.554	0.33	Lose2	0.6333	n/a	No	2.678	n/a	n/a	NoResponse	-1	n/a	n/a	3	59	Blank	Loss	True
564.782	0.3	Lose2	0.6333	0.002	No	2.678	-0.002	4.0	NoResponse	-1	0.612	n/a	3	59	ButtonPress	Loss	True
564.87	1.45	Lose2	0.6333	n/a	No	2.678	n/a	5.0	NoResponse	-1	0.03	563.9	3	59	Feedback	Loss	True
566.32	2.678	Lose2	0.6333	n/a	No	2.678	n/a	n/a	NoResponse	-1	0.0	n/a	3	59	ISIslide	Loss	True
569.019	0.25	Control	0.6393	0.0	Yes	2.681	0.019	n/a	GoodResponse	0	n/a	n/a	3	60	Cue	Neutral	True
569.269	4.0	Control	0.6393	0.0	Yes	2.681	0.0	n/a	GoodResponse	0	n/a	n/a	3	60	Fixation	Neutral	True
573.267	0.38	Control	0.6393	0.002	Yes	2.681	-0.002	4.0	GoodResponse	0	0.284	572.551	3	60	Target	Neutral	True
573.551	0.3	Control	0.6393	0.002	Yes	2.681	-0.002	4.0	GoodResponse	0	0.284	n/a	3	60	ButtonPress	Neutral	True
573.65	0.32	Control	0.6393	n/a	Yes	2.681	n/a	n/a	GoodResponse	0	n/a	n/a	3	60	Blank	Neutral	True
573.967	1.45	Control	0.6393	n/a	Yes	2.681	n/a	5.0	GoodResponse	0	0.007	572.974	3	60	Feedback	Neutral	True
575.416	2.681	Control	0.6393	n/a	Yes	2.681	n/a	n/a	GoodResponse	0	0.0	n/a	3	60	ISIslide	Neutral	True
578.116	0.25	Lose2	0.629	0.0	No	2.984	0.016	n/a	NoResponse	-1	n/a	n/a	2	61	Cue	Loss	True
578.365	4.0	Lose2	0.629	0.001	No	2.984	-0.001	n/a	NoResponse	-1	n/a	n/a	2	61	Fixation	Loss	True
582.364	0.39	Lose2	0.629	0.002	No	2.984	-0.002	4.0	NoResponse	-1	0.578	581.942	2	61	Target	Loss	True
582.764	0.31	Lose2	0.629	n/a	No	2.984	n/a	n/a	NoResponse	-1	n/a	n/a	2	61	Blank	Loss	True
582.942	0.3	Lose2	0.629	0.002	No	2.984	-0.002	4.0	NoResponse	-1	0.578	n/a	2	61	ButtonPress	Loss	True
583.064	1.45	Lose2	0.629	n/a	No	2.984	n/a	5.0	NoResponse	-1	0.031	582.095	2	61	Feedback	Loss	True
584.513	2.984	Lose2	0.629	n/a	No	2.984	n/a	n/a	NoResponse	-1	0.0	n/a	2	61	ISIslide	Loss	True
587.529	0.25	Lose2	0.6349	0.0	Yes	2.871	0.029	n/a	GoodResponse	0	n/a	n/a	2	62	Cue	AvoidedLoss	True
587.779	3.9	Lose2	0.6349	0.0	Yes	2.871	0.0	n/a	GoodResponse	0	n/a	n/a	2	62	Fixation	AvoidedLoss	True
591.677	0.4	Lose2	0.6349	0.002	Yes	2.871	-0.002	4.0	GoodResponse	0	0.214	590.891	2	62	Target	AvoidedLoss	True
591.891	0.3	Lose2	0.6349	0.002	Yes	2.871	-0.002	4.0	GoodResponse	0	0.214	n/a	2	62	ButtonPress	AvoidedLoss	True
592.077	0.3	Lose2	0.6349	n/a	Yes	2.871	n/a	n/a	GoodResponse	0	n/a	n/a	2	62	Blank	AvoidedLoss	True
592.377	1.45	Lose2	0.6349	n/a	Yes	2.871	n/a	5.0	GoodResponse	0	0.035	591.412	2	62	Feedback	AvoidedLoss	True
593.827	2.871	Lose2	0.6349	n/a	Yes	2.871	n/a	n/a	GoodResponse	0	0.0	n/a	2	62	ISIslide	AvoidedLoss	True
596.726	0.25	Lose2	0.6406000000000001	0.0	Yes	2.624	0.026	n/a	GoodResponse	0	n/a	n/a	2	63	Cue	AvoidedLoss	True
596.976	4.05	Lose2	0.6406000000000001	0.0	Yes	2.624	0.0	n/a	GoodResponse	0	n/a	n/a	2	63	Fixation	AvoidedLoss	True
601.024	0.41	Lose2	0.6406000000000001	0.002	Yes	2.624	-0.002	4.0	GoodResponse	0	0.235	600.259	2	63	Target	AvoidedLoss	True
601.259	0.3	Lose2	0.6406000000000001	0.002	Yes	2.624	-0.002	4.0	GoodResponse	0	0.235	n/a	2	63	ButtonPress	AvoidedLoss	True
601.441	0.29	Lose2	0.6406000000000001	n/a	Yes	2.624	n/a	n/a	GoodResponse	0	n/a	n/a	2	63	Blank	AvoidedLoss	True
601.724	1.45	Lose2	0.6406000000000001	n/a	Yes	2.624	n/a	5.0	GoodResponse	0	0.006	600.73	2	63	Feedback	AvoidedLoss	True
603.173	2.624	Lose2	0.6406000000000001	n/a	Yes	2.624	n/a	n/a	GoodResponse	0	0.0	n/a	2	63	ISIslide	AvoidedLoss	True
605.822	0.25	Win2	0.6462	0.001	Yes	3.128	0.022	n/a	GoodResponse	1	n/a	n/a	3	64	Cue	Win	True
606.072	4.15	Win2	0.6462	0.0	Yes	3.128	0.0	n/a	GoodResponse	1	n/a	n/a	3	64	Fixation	Win	True
610.221	0.42	Win2	0.6462	0.001	Yes	3.128	-0.001	4.0	GoodResponse	1	0.232	609.453	3	64	Target	Win	True
610.453	0.3	Win2	0.6462	0.001	Yes	3.128	-0.001	4.0	GoodResponse	1	0.232	n/a	3	64	ButtonPress	Win	True
610.637	0.28	Win2	0.6462	n/a	Yes	3.128	n/a	n/a	GoodResponse	1	n/a	n/a	3	64	Blank	Win	True
610.921	1.45	Win2	0.6462	n/a	Yes	3.128	n/a	5.0	GoodResponse	1	0.027	609.948	3	64	Feedback	Win	True
612.37	3.128	Win2	0.6462	n/a	Yes	3.128	n/a	n/a	GoodResponse	1	0.0	n/a	3	64	ISIslide	Win	True
615.519	0.25	Control	0.6515000000000001	0.0	Yes	2.781	0.019	n/a	GoodResponse	0	n/a	n/a	3	65	Cue	Neutral	True
615.769	4.0	Control	0.6515000000000001	0.0	Yes	2.781	0.0	n/a	GoodResponse	0	n/a	n/a	3	65	Fixation	Neutral	True
619.768	0.43	Control	0.6515000000000001	0.001	Yes	2.781	-0.001	4.0	GoodResponse	0	0.216	618.984	3	65	Target	Neutral	True
619.984	0.3	Control	0.6515000000000001	0.001	Yes	2.781	-0.001	4.0	GoodResponse	0	0.216	n/a	3	65	ButtonPress	Neutral	True
620.201	0.27	Control	0.6515000000000001	n/a	Yes	2.781	n/a	n/a	GoodResponse	0	n/a	n/a	3	65	Blank	Neutral	True
620.467	1.45	Control	0.6515000000000001	n/a	Yes	2.781	n/a	5.0	GoodResponse	0	0.042	619.509	3	65	Feedback	Neutral	True
621.917	2.781	Control	0.6515000000000001	n/a	Yes	2.781	n/a	n/a	GoodResponse	0	0.0	n/a	3	65	ISIslide	Neutral	True
624.716	0.25	Win2	0.6567000000000001	0.0	Yes	2.784	0.016	n/a	GoodResponse	1	n/a	n/a	4	66	Cue	Win	True
624.966	3.9	Win2	0.6567000000000001	0.0	Yes	2.784	0.0	n/a	GoodResponse	1	n/a	n/a	4	66	Fixation	Win	True
628.864	0.44	Win2	0.6567000000000001	0.002	Yes	2.784	-0.002	4.0	GoodResponse	1	0.215	628.079	4	66	Target	Win	True
629.079	0.3	Win2	0.6567000000000001	0.002	Yes	2.784	-0.002	4.0	GoodResponse	1	0.215	n/a	4	66	ButtonPress	Win	True
629.314	0.26	Win2	0.6567000000000001	n/a	Yes	2.784	n/a	n/a	GoodResponse	1	n/a	n/a	4	66	Blank	Win	True
629.564	1.45	Win2	0.6567000000000001	n/a	Yes	2.784	n/a	5.0	GoodResponse	1	0.019	628.583	4	66	Feedback	Win	True
631.014	2.784	Win2	0.6567000000000001	n/a	Yes	2.784	n/a	n/a	GoodResponse	1	0.0	n/a	4	66	ISIslide	Win	True
633.813	0.25	Control	0.6470999999999999	0.0	No	2.737	0.013	n/a	NoResponse	0	n/a	n/a	4	67	Cue	Neutral	True
634.062	3.95	Control	0.6470999999999999	0.001	No	2.737	-0.001	n/a	NoResponse	0	n/a	n/a	4	67	Fixation	Neutral	True
638.011	0.44	Control	0.6470999999999999	0.002	No	2.737	-0.002	4.0	NoResponse	0	0.685	637.696	4	67	Target	Neutral	True
638.461	0.26	Control	0.6470999999999999	n/a	No	2.737	n/a	n/a	NoResponse	0	n/a	n/a	4	67	Blank	Neutral	True
638.696	0.3	Control	0.6470999999999999	0.002	No	2.737	-0.002	4.0	NoResponse	0	0.685	n/a	4	67	ButtonPress	Neutral	True
638.711	1.45	Control	0.6470999999999999	n/a	No	2.737	n/a	5.0	NoResponse	0	0.043	637.754	4	67	Feedback	Neutral	True
640.16	2.737	Control	0.6470999999999999	n/a	No	2.737	n/a	n/a	NoResponse	0	0.0	n/a	4	67	ISIslide	Neutral	True
642.926	0.25	Win2	0.6522	0.0	Yes	3.074	0.026	n/a	GoodResponse	1	n/a	n/a	5	68	Cue	Win	True
643.176	4.0	Win2	0.6522	0.0	Yes	3.074	0.0	n/a	GoodResponse	1	n/a	n/a	5	68	Fixation	Win	True
647.175	0.45	Win2	0.6522	0.001	Yes	3.074	-0.001	4.0	GoodResponse	1	0.23	646.405	5	68	Target	Win	True
647.405	0.3	Win2	0.6522	0.001	Yes	3.074	-0.001	4.0	GoodResponse	1	0.23	n/a	5	68	ButtonPress	Win	True
647.624	0.25	Win2	0.6522	n/a	Yes	3.074	n/a	n/a	GoodResponse	1	n/a	n/a	5	68	Blank	Win	True
647.874	1.45	Win2	0.6522	n/a	Yes	3.074	n/a	5.0	GoodResponse	1	0.001	646.875	5	68	Feedback	Win	True
649.324	3.074	Win2	0.6522	n/a	Yes	3.074	n/a	n/a	GoodResponse	1	0.0	n/a	5	68	ISIslide	Win	True
652.423	0.25	Win2	0.6570999999999999	0.0	Yes	3.227	0.023	n/a	GoodResponse	1	n/a	n/a	6	69	Cue	Win	True
652.673	3.95	Win2	0.6570999999999999	0.0	Yes	3.227	0.0	n/a	GoodResponse	1	n/a	n/a	6	69	Fixation	Win	True
656.621	0.46	Win2	0.6570999999999999	0.002	Yes	3.227	-0.002	4.0	GoodResponse	1	0.189	655.81	6	69	Target	Win	True
656.81	0.3	Win2	0.6570999999999999	0.002	Yes	3.227	-0.002	4.0	GoodResponse	1	0.189	n/a	6	69	ButtonPress	Win	True
657.088	0.24	Win2	0.6570999999999999	n/a	Yes	3.227	n/a	n/a	GoodResponse	1	n/a	n/a	6	69	Blank	Win	True
657.321	1.45	Win2	0.6570999999999999	n/a	Yes	3.227	n/a	5.0	GoodResponse	1	0.017	656.338	6	69	Feedback	Win	True
658.77	3.227	Win2	0.6570999999999999	n/a	Yes	3.227	n/a	n/a	GoodResponse	1	0.0	n/a	6	69	ISIslide	Win	True
662.019	0.25	Lose2	0.662	0.0	Yes	3.031	0.019	n/a	GoodResponse	0	n/a	n/a	6	70	Cue	AvoidedLoss	True
662.269	4.05	Lose2	0.662	0.0	Yes	3.031	0.0	n/a	GoodResponse	0	n/a	n/a	6	70	Fixation	AvoidedLoss	True
666.318	0.46	Lose2	0.662	0.001	Yes	3.031	-0.001	4.0	GoodResponse	0	0.201	665.519	6	70	Target	AvoidedLoss	True
666.519	0.3	Lose2	0.662	0.001	Yes	3.031	-0.001	4.0	GoodResponse	0	0.201	n/a	6	70	ButtonPress	AvoidedLoss	True
666.784	0.24	Lose2	0.662	n/a	Yes	3.031	n/a	n/a	GoodResponse	0	n/a	n/a	6	70	Blank	AvoidedLoss	True
667.018	1.45	Lose2	0.662	n/a	Yes	3.031	n/a	5.0	GoodResponse	0	0.028	666.046	6	70	Feedback	AvoidedLoss	True
668.467	3.031	Lose2	0.662	n/a	Yes	3.031	n/a	n/a	GoodResponse	0	0.0	n/a	6	70	ISIslide	AvoidedLoss	True
671.516	0.25	Win2	0.6667000000000001	0.0	Yes	2.734	0.016	n/a	GoodResponse	1	n/a	n/a	7	71	Cue	Win	True
671.766	4.05	Win2	0.6667000000000001	0.0	Yes	2.734	0.0	n/a	GoodResponse	1	n/a	n/a	7	71	Fixation	Win	True
675.814	0.46	Win2	0.6667000000000001	0.002	Yes	2.734	-0.002	4.0	GoodResponse	1	0.249	675.063	7	71	Target	Win	True
676.063	0.3	Win2	0.6667000000000001	0.002	Yes	2.734	-0.002	4.0	GoodResponse	1	0.249	n/a	7	71	ButtonPress	Win	True
676.281	0.24	Win2	0.6667000000000001	n/a	Yes	2.734	n/a	n/a	GoodResponse	1	n/a	n/a	7	71	Blank	Win	True
676.514	1.45	Win2	0.6667000000000001	n/a	Yes	2.734	n/a	5.0	GoodResponse	1	0.044	675.558	7	71	Feedback	Win	True
677.964	2.734	Win2	0.6667000000000001	n/a	Yes	2.734	n/a	n/a	GoodResponse	1	0.0	n/a	7	71	ISIslide	Win	True
680.729	0.25	Win2	0.6712	0.001	Yes	2.771	0.029	n/a	GoodResponse	1	n/a	n/a	8	72	Cue	Win	True
680.979	4.1	Win2	0.6712	0.0	Yes	2.771	0.0	n/a	GoodResponse	1	n/a	n/a	8	72	Fixation	Win	True
685.078	0.45	Win2	0.6712	0.001	Yes	2.771	-0.001	4.0	GoodResponse	1	0.213	684.291	8	72	Target	Win	True
685.291	0.3	Win2	0.6712	0.001	Yes	2.771	-0.001	4.0	GoodResponse	1	0.213	n/a	8	72	ButtonPress	Win	True
685.528	0.25	Win2	0.6712	n/a	Yes	2.771	n/a	n/a	GoodResponse	1	n/a	n/a	8	72	Blank	Win	True
685.778	1.45	Win2	0.6712	n/a	Yes	2.771	n/a	5.0	GoodResponse	1	0.047	684.825	8	72	Feedback	Win	True
687.227	2.771	Win2	0.6712	n/a	Yes	2.771	n/a	n/a	GoodResponse	1	0.0	n/a	8	72	ISIslide	Win	True
690.026	0.25	Win2	0.6757	0.0	Yes	2.674	0.026	n/a	GoodResponse	1	n/a	n/a	9	73	Cue	Win	True
690.276	4.0	Win2	0.6757	0.0	Yes	2.674	0.0	n/a	GoodResponse	1	n/a	n/a	9	73	Fixation	Win	True
694.275	0.44	Win2	0.6757	0.001	Yes	2.674	-0.001	4.0	GoodResponse	1	0.424	693.699	9	73	Target	Win	True
694.699	0.3	Win2	0.6757	0.001	Yes	2.674	-0.001	4.0	GoodResponse	1	0.424	n/a	9	73	ButtonPress	Win	True
694.724	0.26	Win2	0.6757	n/a	Yes	2.674	n/a	n/a	GoodResponse	1	n/a	n/a	9	73	Blank	Win	True
694.974	1.45	Win2	0.6757	n/a	Yes	2.674	n/a	5.0	GoodResponse	1	0.022	693.996	9	73	Feedback	Win	True
696.424	2.674	Win2	0.6757	n/a	Yes	2.674	n/a	n/a	GoodResponse	1	0.0	n/a	9	73	ISIslide	Win	True
699.123	0.25	Lose2	0.68	0.0	Yes	2.627	0.023	n/a	GoodResponse	0	n/a	n/a	9	74	Cue	AvoidedLoss	True
699.373	4.05	Lose2	0.68	0.0	Yes	2.627	0.0	n/a	GoodResponse	0	n/a	n/a	9	74	Fixation	AvoidedLoss	True
703.421	0.43	Lose2	0.68	0.002	Yes	2.627	-0.002	4.0	GoodResponse	0	0.291	702.712	9	74	Target	AvoidedLoss	True
703.712	0.3	Lose2	0.68	0.002	Yes	2.627	-0.002	4.0	GoodResponse	0	0.291	n/a	9	74	ButtonPress	AvoidedLoss	True
703.855	0.27	Lose2	0.68	n/a	Yes	2.627	n/a	n/a	GoodResponse	0	n/a	n/a	9	74	Blank	AvoidedLoss	True
704.121	1.45	Lose2	0.68	n/a	Yes	2.627	n/a	5.0	GoodResponse	0	0.046	703.167	9	74	Feedback	AvoidedLoss	True
705.571	2.627	Lose2	0.68	n/a	Yes	2.627	n/a	n/a	GoodResponse	0	0.0	n/a	9	74	ISIslide	AvoidedLoss	True
708.22	0.25	Lose2	0.6842	0.0	Yes	2.93	0.02	n/a	GoodResponse	0	n/a	n/a	9	75	Cue	AvoidedLoss	True
708.47	3.95	Lose2	0.6842	0.0	Yes	2.93	0.0	n/a	GoodResponse	0	n/a	n/a	9	75	Fixation	AvoidedLoss	True
712.418	0.42	Lose2	0.6842	0.002	Yes	2.93	-0.002	4.0	GoodResponse	0	0.279	711.697	9	75	Target	AvoidedLoss	True
712.697	0.3	Lose2	0.6842	0.002	Yes	2.93	-0.002	4.0	GoodResponse	0	0.279	n/a	9	75	ButtonPress	AvoidedLoss	True
712.851	0.28	Lose2	0.6842	n/a	Yes	2.93	n/a	n/a	GoodResponse	0	n/a	n/a	9	75	Blank	AvoidedLoss	True
713.118	1.45	Lose2	0.6842	n/a	Yes	2.93	n/a	5.0	GoodResponse	0	0.025	712.143	9	75	Feedback	AvoidedLoss	True
714.567	2.93	Lose2	0.6842	n/a	Yes	2.93	n/a	n/a	GoodResponse	0	0.0	n/a	9	75	ISIslide	AvoidedLoss	True
717.516	0.25	Control	0.6883	0.001	Yes	3.234	0.016	n/a	GoodResponse	0	n/a	n/a	9	76	Cue	Neutral	True
717.766	4.05	Control	0.6883	0.0	Yes	3.234	0.0	n/a	GoodResponse	0	n/a	n/a	9	76	Fixation	Neutral	True
721.815	0.41	Control	0.6883	0.001	Yes	3.234	-0.001	4.0	GoodResponse	0	0.264	721.079	9	76	Target	Neutral	True
722.079	0.3	Control	0.6883	0.001	Yes	3.234	-0.001	4.0	GoodResponse	0	0.264	n/a	9	76	ButtonPress	Neutral	True
722.231	0.29	Control	0.6883	n/a	Yes	3.234	n/a	n/a	GoodResponse	0	n/a	n/a	9	76	Blank	Neutral	True
722.515	1.45	Control	0.6883	n/a	Yes	3.234	n/a	5.0	GoodResponse	0	0.043	721.558	9	76	Feedback	Neutral	True
723.964	3.234	Control	0.6883	n/a	Yes	3.234	n/a	n/a	GoodResponse	0	0.0	n/a	9	76	ISIslide	Neutral	True
727.213	0.25	Lose2	0.6923	0.0	Yes	2.587	0.013	n/a	GoodResponse	0	n/a	n/a	9	77	Cue	AvoidedLoss	True
727.463	3.95	Lose2	0.6923	0.0	Yes	2.587	0.0	n/a	GoodResponse	0	n/a	n/a	9	77	Fixation	AvoidedLoss	True
731.412	0.4	Lose2	0.6923	0.001	Yes	2.587	-0.001	4.0	GoodResponse	0	0.214	730.626	9	77	Target	AvoidedLoss	True
731.626	0.3	Lose2	0.6923	0.001	Yes	2.587	-0.001	4.0	GoodResponse	0	0.214	n/a	9	77	ButtonPress	AvoidedLoss	True
731.811	0.3	Lose2	0.6923	n/a	Yes	2.587	n/a	n/a	GoodResponse	0	n/a	n/a	9	77	Blank	AvoidedLoss	True
732.111	1.45	Lose2	0.6923	n/a	Yes	2.587	n/a	5.0	GoodResponse	0	0.007	731.118	9	77	Feedback	AvoidedLoss	True
733.561	2.587	Lose2	0.6923	n/a	Yes	2.587	n/a	n/a	GoodResponse	0	0.0	n/a	9	77	ISIslide	AvoidedLoss	True
