onset	duration	cue_type	current_mean_accuracy	duration_error	is_hit	isi_adjusted	onset_delay	response	response_type	reward	rt	rt_time	total_reward	trial_number	trial_phase	trial_type	one_press
11.097	0.25	Control	1.0	0.0	Yes	2.953	-0.003	n/a	GoodResponse	0	n/a	n/a	0	0	Cue	Neutral	True
11.347	3.85	Control	1.0	0.0	Yes	2.953	0.0	n/a	GoodResponse	0	n/a	n/a	0	0	Fixation	Neutral	True
15.196	0.4	Control	1.0	0.001	Yes	2.953	-0.001	2.0	GoodResponse	0	0.273	14.469	0	0	Target	Neutral	True
15.469	0.3	Control	1.0	0.001	Yes	2.953	-0.001	2.0	GoodResponse	0	0.273	n/a	0	0	ButtonPress	Neutral	True
15.595	0.3	Control	1.0	n/a	Yes	2.953	n/a	n/a	GoodResponse	0	n/a	n/a	0	0	Blank	Neutral	True
15.895	1.45	Control	1.0	n/a	Yes	2.953	n/a	5.0	GoodResponse	0	0.034	14.929	0	0	Feedback	Neutral	True
17.345	2.953	Control	1.0	n/a	Yes	2.953	n/a	n/a	GoodResponse	0	0.0	n/a	0	0	ISIslide	Neutral	True
20.327	0.25	Lose2	1.0	0.0	Yes	2.773	0.027	n/a	GoodResponse	0	n/a	n/a	0	1	Cue	AvoidedLoss	True
20.577	4.0	Lose2	1.0	0.0	Yes	2.773	0.0	n/a	GoodResponse	0	n/a	n/a	0	1	Fixation	AvoidedLoss	True
24.576	0.39	Lose2	1.0	0.001	Yes	2.773	-0.001	2.0	GoodResponse	0	0.204	23.78	0	1	Target	AvoidedLoss	True
24.78	0.3	Lose2	1.0	0.001	Yes	2.773	-0.001	2.0	GoodResponse	0	0.204	n/a	0	1	ButtonPress	AvoidedLoss	True
24.975	0.31	Lose2	1.0	n/a	Yes	2.773	n/a	n/a	GoodResponse	0	n/a	n/a	0	1	Blank	AvoidedLoss	True
25.275	1.45	Lose2	1.0	n/a	Yes	2.773	n/a	5.0	GoodResponse	0	0.02	24.295	0	1	Feedback	AvoidedLoss	True
26.725	2.773	Lose2	1.0	n/a	Yes	2.773	n/a	n/a	GoodResponse	0	0.0	n/a	0	1	ISIslide	AvoidedLoss	True
29.524	0.25	Control	1.0	0.0	Yes	2.576	0.024	n/a	GoodResponse	0	n/a	n/a	0	2	Cue	Neutral	True
29.774	4.1	Control	1.0	0.0	Yes	2.576	0.0	n/a	GoodResponse	0	n/a	n/a	0	2	Fixation	Neutral	True
33.872	0.38	Control	1.0	0.002	Yes	2.576	-0.002	2.0	GoodResponse	0	0.183	33.055	0	2	Target	Neutral	True
34.055	0.3	Control	1.0	0.002	Yes	2.576	-0.002	2.0	GoodResponse	0	0.183	n/a	0	2	ButtonPress	Neutral	True
34.256	0.32	Control	1.0	n/a	Yes	2.576	n/a	n/a	GoodResponse	0	n/a	n/a	0	2	Blank	Neutral	True
34.572	1.45	Control	1.0	n/a	Yes	2.576	n/a	5.0	GoodResponse	0	0.039	33.611	0	2	Feedback	Neutral	True
36.022	2.576	Control	1.0	n/a	Yes	2.576	n/a	n/a	GoodResponse	0	0.0	n/a	0	2	ISIslide	Neutral	True
38.621	0.25	Win2	1.0	0.0	Yes	2.829	0.021	n/a	GoodResponse	1	n/a	n/a	1	3	Cue	Win	True
38.871	3.95	Win2	1.0	0.0	Yes	2.829	0.0	n/a	GoodResponse	1	n/a	n/a	1	3	Fixation	Win	True
42.819	0.37	Win2	1.0	0.002	Yes	2.829	-0.002	2.0	GoodResponse	1	0.2	42.019	1	3	Target	Win	True
43.019	0.3	Win2	1.0	0.002	Yes	2.829	-0.002	2.0	GoodResponse	1	0.2	n/a	1	3	ButtonPress	Win	True
43.202	0.33	Win2	1.0	n/a	Yes	2.829	n/a	n/a	GoodResponse	1	n/a	n/a	1	3	Blank	Win	True
43.519	1.45	Win2	1.0	n/a	Yes	2.829	n/a	5.0	GoodResponse	1	0.019	42.538	1	3	Feedback	Win	True
44.968	2.829	Win2	1.0	n/a	Yes	2.829	n/a	n/a	GoodResponse	1	0.0	n/a	1	3	ISIslide	Win	True
47.817	0.25	Win2	1.0	0.0	Yes	3.283	0.017	n/a	GoodResponse	1	n/a	n/a	2	4	Cue	Win	True
48.067	4.0	Win2	1.0	0.0	Yes	3.283	0.0	n/a	GoodResponse	1	n/a	n/a	2	4	Fixation	Win	True
52.066	0.36	Win2	1.0	0.001	Yes	3.283	-0.001	2.0	GoodResponse	1	0.209	51.275	2	4	Target	Win	True
52.275	0.3	Win2	1.0	0.001	Yes	3.283	-0.001	2.0	GoodResponse	1	0.209	n/a	2	4	ButtonPress	Win	True
52.432	0.34	Win2	1.0	n/a	Yes	3.283	n/a	n/a	GoodResponse	1	n/a	n/a	2	4	Blank	Win	True
52.766	1.45	Win2	1.0	n/a	Yes	3.283	n/a	5.0	GoodResponse	1	0.041	51.807	2	4	Feedback	Win	True
54.215	3.283	Win2	1.0	n/a	Yes	3.283	n/a	n/a	GoodResponse	1	0.0	n/a	2	4	ISIslide	Win	True
57.514	0.25	Win2	1.0	0.0	Yes	2.786	0.014	n/a	GoodResponse	1	n/a	n/a	3	5	Cue	Win	True
57.764	4.0	Win2	1.0	0.0	Yes	2.786	0.0	n/a	GoodResponse	1	n/a	n/a	3	5	Fixation	Win	True
61.762	0.35	Win2	1.0	0.002	Yes	2.786	-0.002	2.0	GoodResponse	1	0.201	60.963	3	5	Target	Win	True
61.963	0.3	Win2	1.0	0.002	Yes	2.786	-0.002	2.0	GoodResponse	1	0.201	n/a	3	5	ButtonPress	Win	True
62.112	0.35	Win2	1.0	n/a	Yes	2.786	n/a	n/a	GoodResponse	1	n/a	n/a	3	5	Blank	Win	True
62.462	1.45	Win2	1.0	n/a	Yes	2.786	n/a	5.0	GoodResponse	1	0.004	61.466	3	5	Feedback	Win	True
63.912	2.786	Win2	1.0	n/a	Yes	2.786	n/a	n/a	GoodResponse	1	0.0	n/a	3	5	ISIslide	Win	True
66.727	0.25	Lose2	1.0	0.0	Yes	2.723	0.027	n/a	GoodResponse	0	n/a	n/a	3	6	Cue	AvoidedLoss	True
66.977	3.95	Lose2	1.0	0.0	Yes	2.723	0.0	n/a	GoodResponse	0	n/a	n/a	3	6	Fixation	AvoidedLoss	True
70.926	0.34	Lose2	1.0	0.001	Yes	2.723	-0.001	2.0	GoodResponse	0	0.199	70.125	3	6	Target	AvoidedLoss	True
71.125	0.3	Lose2	1.0	0.001	Yes	2.723	-0.001	2.0	GoodResponse	0	0.199	n/a	3	6	ButtonPress	AvoidedLoss	True
71.276	0.36	Lose2	1.0	n/a	Yes	2.723	n/a	n/a	GoodResponse	0	n/a	n/a	3	6	Blank	AvoidedLoss	True
71.626	1.45	Lose2	1.0	n/a	Yes	2.723	n/a	5.0	GoodResponse	0	0.009	70.635	3	6	Feedback	AvoidedLoss	True
73.075	2.723	Lose2	1.0	n/a	Yes	2.723	n/a	n/a	GoodResponse	0	0.0	n/a	3	6	ISIslide	AvoidedLoss	True
75.824	0.25	Lose2	1.0	0.0	Yes	4.026	0.024	n/a	GoodResponse	0	n/a	n/a	3	7	Cue	AvoidedLoss	True
76.074	4.05	Lose2	1.0	0.0	Yes	4.026	0.0	n/a	GoodResponse	0	n/a	n/a	3	7	Fixation	AvoidedLoss	True
80.123	0.33	Lose2	1.0	0.001	Yes	4.026	-0.001	2.0	GoodResponse	0	0.196	79.319	3	7	Target	AvoidedLoss	True
80.319	0.3	Lose2	1.0	0.001	Yes	4.026	-0.001	2.0	GoodResponse	0	0.196	n/a	3	7	ButtonPress	AvoidedLoss	True
80.456	0.37	Lose2	1.0	n/a	Yes	4.026	n/a	n/a	GoodResponse	0	n/a	n/a	3	7	Blank	AvoidedLoss	True
80.822	1.45	Lose2	1.0	n/a	Yes	4.026	n/a	5.0	GoodResponse	0	0.033	79.855	3	7	Feedback	AvoidedLoss	True
82.272	4.026	Lose2	1.0	n/a	Yes	4.026	n/a	n/a	GoodResponse	0	0.0	n/a	3	7	ISIslide	AvoidedLoss	True
86.32	0.25	Lose2	1.0	0.0	Yes	3.03	0.02	n/a	GoodResponse	0	n/a	n/a	3	8	Cue	AvoidedLoss	True
86.57	3.95	Lose2	1.0	0.0	Yes	3.03	0.0	n/a	GoodResponse	0	n/a	n/a	3	8	Fixation	AvoidedLoss	True
90.519	0.32	Lose2	1.0	0.001	Yes	3.03	-0.001	2.0	GoodResponse	0	0.2	89.719	3	8	Target	AvoidedLoss	True
90.719	0.3	Lose2	1.0	0.001	Yes	3.03	-0.001	2.0	GoodResponse	0	0.2	n/a	3	8	ButtonPress	AvoidedLoss	True
90.835	0.38	Lose2	1.0	n/a	Yes	3.03	n/a	n/a	GoodResponse	0	n/a	n/a	3	8	Blank	AvoidedLoss	True
91.219	1.45	Lose2	1.0	n/a	Yes	3.03	n/a	5.0	GoodResponse	0	0.026	90.245	3	8	Feedback	AvoidedLoss	True
92.668	3.03	Lose2	1.0	n/a	Yes	3.03	n/a	n/a	GoodResponse	0	0.0	n/a	3	8	ISIslide	AvoidedLoss	True
95.717	0.25	Lose2	1.0	0.0	Yes	3.133	0.017	n/a	GoodResponse	0	n/a	n/a	3	9	Cue	AvoidedLoss	True
95.967	3.95	Lose2	1.0	0.0	Yes	3.133	0.0	n/a	GoodResponse	0	n/a	n/a	3	9	Fixation	AvoidedLoss	True
99.915	0.31	Lose2	1.0	0.002	Yes	3.133	-0.002	2.0	GoodResponse	0	0.231	99.146	3	9	Target	AvoidedLoss	True
100.146	0.3	Lose2	1.0	0.002	Yes	3.133	-0.002	2.0	GoodResponse	0	0.231	n/a	3	9	ButtonPress	AvoidedLoss	True
100.232	0.39	Lose2	1.0	n/a	Yes	3.133	n/a	n/a	GoodResponse	0	n/a	n/a	3	9	Blank	AvoidedLoss	True
100.615	1.45	Lose2	1.0	n/a	Yes	3.133	n/a	5.0	GoodResponse	0	0.045	99.66	3	9	Feedback	AvoidedLoss	True
102.065	3.133	Lose2	1.0	n/a	Yes	3.133	n/a	n/a	GoodResponse	0	0.0	n/a	3	9	ISIslide	AvoidedLoss	True
105.214	0.25	Control	1.0	0.0	Yes	3.286	0.014	n/a	GoodResponse	0	n/a	n/a	3	10	Cue	Neutral	True
105.464	4.0	Control	1.0	0.0	Yes	3.286	0.0	n/a	GoodResponse	0	n/a	n/a	3	10	Fixation	Neutral	True
109.462	0.3	Control	1.0	0.002	Yes	3.286	-0.002	2.0	GoodResponse	0	0.247	108.709	3	10	Target	Neutral	True
109.709	0.3	Control	1.0	0.002	Yes	3.286	-0.002	2.0	GoodResponse	0	0.247	n/a	3	10	ButtonPress	Neutral	True
109.762	0.4	Control	1.0	n/a	Yes	3.286	n/a	n/a	GoodResponse	0	n/a	n/a	3	10	Blank	Neutral	True
110.162	1.45	Control	1.0	n/a	Yes	3.286	n/a	5.0	GoodResponse	0	0.009	109.171	3	10	Feedback	Neutral	True
111.611	3.286	Control	1.0	n/a	Yes	3.286	n/a	n/a	GoodResponse	0	0.0	n/a	3	10	ISIslide	Neutral	True
114.927	0.25	Lose2	1.0	0.0	Yes	2.723	0.027	n/a	GoodResponse	0	n/a	n/a	3	11	Cue	AvoidedLoss	True
115.177	4.05	Lose2	1.0	0.0	Yes	2.723	0.0	n/a	GoodResponse	0	n/a	n/a	3	11	Fixation	AvoidedLoss	True
119.225	0.29	Lose2	1.0	0.002	Yes	2.723	-0.002	2.0	GoodResponse	0	0.195	118.42	3	11	Target	AvoidedLoss	True
119.42	0.3	Lose2	1.0	0.002	Yes	2.723	-0.002	2.0	GoodResponse	0	0.195	n/a	3	11	ButtonPress	AvoidedLoss	True
119.525	0.41	Lose2	1.0	n/a	Yes	2.723	n/a	n/a	GoodResponse	0	n/a	n/a	3	11	Blank	AvoidedLoss	True
119.925	1.45	Lose2	1.0	n/a	Yes	2.723	n/a	5.0	GoodResponse	0	0.004	118.929	3	11	Feedback	AvoidedLoss	True
121.375	2.723	Lose2	1.0	n/a	Yes	2.723	n/a	n/a	GoodResponse	0	0.0	n/a	3	11	ISIslide	AvoidedLoss	True
124.124	0.25	Control	1.0	0.0	Yes	2.976	0.024	n/a	GoodResponse	0	n/a	n/a	3	12	Cue	Neutral	True
124.373	3.9	Control	1.0	0.001	Yes	2.976	-0.001	n/a	GoodResponse	0	n/a	n/a	3	12	Fixation	Neutral	True
128.272	0.28	Control	1.0	0.002	Yes	2.976	-0.002	2.0	GoodResponse	0	0.2	127.472	3	12	Target	Neutral	True
128.472	0.3	Control	1.0	0.002	Yes	2.976	-0.002	2.0	GoodResponse	0	0.2	n/a	3	12	ButtonPress	Neutral	True
128.555	0.42	Control	1.0	n/a	Yes	2.976	n/a	n/a	GoodResponse	0	n/a	n/a	3	12	Blank	Neutral	True
128.972	1.45	Control	1.0	n/a	Yes	2.976	n/a	5.0	GoodResponse	0	0.029	128.001	3	12	Feedback	Neutral	True
130.421	2.976	Control	1.0	n/a	Yes	2.976	n/a	n/a	GoodResponse	0	0.0	n/a	3	12	ISIslide	Neutral	True
133.42	0.25	Control	1.0	0.0	Yes	2.78	0.02	n/a	GoodResponse	0	n/a	n/a	3	13	Cue	Neutral	True
133.67	4.0	Control	1.0	0.0	Yes	2.78	0.0	n/a	GoodResponse	0	n/a	n/a	3	13	Fixation	Neutral	True
137.669	0.27	Control	1.0	0.001	Yes	2.78	-0.001	2.0	GoodResponse	0	0.188	136.857	3	13	Target	Neutral	True
137.857	0.3	Control	1.0	0.001	Yes	2.78	-0.001	2.0	GoodResponse	0	0.188	n/a	3	13	ButtonPress	Neutral	True
137.952	0.43	Control	1.0	n/a	Yes	2.78	n/a	n/a	GoodResponse	0	n/a	n/a	3	13	Blank	Neutral	True
138.368	1.45	Control	1.0	n/a	Yes	2.78	n/a	5.0	GoodResponse	0	0.048	137.416	3	13	Feedback	Neutral	True
139.818	2.78	Control	1.0	n/a	Yes	2.78	n/a	n/a	GoodResponse	0	0.0	n/a	3	13	ISIslide	Neutral	True
142.617	0.25	Win2	1.0	0.0	Yes	2.683	0.017	n/a	GoodResponse	1	n/a	n/a	4	14	Cue	Win	True
142.867	4.1	Win2	1.0	0.0	Yes	2.683	0.0	n/a	GoodResponse	1	n/a	n/a	4	14	Fixation	Win	True
146.965	0.26	Win2	1.0	0.002	Yes	2.683	-0.002	2.0	GoodResponse	1	0.208	146.173	4	14	Target	Win	True
147.173	0.3	Win2	1.0	0.002	Yes	2.683	-0.002	2.0	GoodResponse	1	0.208	n/a	4	14	ButtonPress	Win	True
147.232	0.44	Win2	1.0	n/a	Yes	2.683	n/a	n/a	GoodResponse	1	n/a	n/a	4	14	Blank	Win	True
147.665	1.45	Win2	1.0	n/a	Yes	2.683	n/a	5.0	GoodResponse	1	0.018	146.683	4	14	Feedback	Win	True
149.115	2.683	Win2	1.0	n/a	Yes	2.683	n/a	n/a	GoodResponse	1	0.0	n/a	4	14	ISIslide	Win	True
151.814	0.25	Control	1.0	0.0	Yes	2.986	0.014	n/a	GoodResponse	0	n/a	n/a	4	15	Cue	Neutral	True
152.064	4.0	Control	1.0	0.0	Yes	2.986	0.0	n/a	GoodResponse	0	n/a	n/a	4	15	Fixation	Neutral	True
156.062	0.25	Control	1.0	0.002	Yes	2.986	-0.002	2.0	GoodResponse	0	0.202	155.264	4	15	Target	Neutral	True
156.264	0.3	Control	1.0	0.002	Yes	2.986	-0.002	2.0	GoodResponse	0	0.202	n/a	4	15	ButtonPress	Neutral	True
156.312	0.45	Control	1.0	n/a	Yes	2.986	n/a	n/a	GoodResponse	0	n/a	n/a	4	15	Blank	Neutral	True
156.762	1.45	Control	1.0	n/a	Yes	2.986	n/a	5.0	GoodResponse	0	0.043	155.805	4	15	Feedback	Neutral	True
158.211	2.986	Control	1.0	n/a	Yes	2.986	n/a	n/a	GoodResponse	0	0.0	n/a	4	15	ISIslide	Neutral	True
161.21	0.25	Win2	1.0	0.0	Yes	2.89	0.01	n/a	GoodResponse	1	n/a	n/a	5	16	Cue	Win	True
161.46	4.0	Win2	1.0	0.0	Yes	2.89	0.0	n/a	GoodResponse	1	n/a	n/a	5	16	Fixation	Win	True
165.459	0.24	Win2	1.0	0.001	Yes	2.89	-0.001	2.0	GoodResponse	1	0.189	164.648	5	16	Target	Win	True
165.648	0.3	Win2	1.0	0.001	Yes	2.89	-0.001	2.0	GoodResponse	1	0.189	n/a	5	16	ButtonPress	Win	True
165.709	0.46	Win2	1.0	n/a	Yes	2.89	n/a	n/a	GoodResponse	1	n/a	n/a	5	16	Blank	Win	True
166.159	1.45	Win2	1.0	n/a	Yes	2.89	n/a	5.0	GoodResponse	1	0.012	165.171	5	16	Feedback	Win	True
167.608	2.89	Win2	1.0	n/a	Yes	2.89	n/a	n/a	GoodResponse	1	0.0	n/a	5	16	ISIslide	Win	True
170.524	0.25	Lose2	1.0	0.0	Yes	2.726	0.024	n/a	GoodResponse	0	n/a	n/a	5	17	Cue	AvoidedLoss	True
170.774	3.95	Lose2	1.0	0.0	Yes	2.726	0.0	n/a	GoodResponse	0	n/a	n/a	5	17	Fixation	AvoidedLoss	True
174.722	0.23	Lose2	1.0	0.002	Yes	2.726	-0.002	2.0	GoodResponse	0	0.209	173.931	5	17	Target	AvoidedLoss	True
174.931	0.3	Lose2	1.0	0.002	Yes	2.726	-0.002	2.0	GoodResponse	0	0.209	n/a	5	17	ButtonPress	AvoidedLoss	True
174.955	0.47	Lose2	1.0	n/a	Yes	2.726	n/a	n/a	GoodResponse	0	n/a	n/a	5	17	Blank	AvoidedLoss	True
175.422	1.45	Lose2	1.0	n/a	Yes	2.726	n/a	5.0	GoodResponse	0	0.017	174.439	5	17	Feedback	AvoidedLoss	True
176.871	2.726	Lose2	1.0	n/a	Yes	2.726	n/a	n/a	GoodResponse	0	0.0	n/a	5	17	ISIslide	AvoidedLoss	True
179.62	0.25	Lose2	1.0	0.001	Yes	2.73	0.02	n/a	GoodResponse	0	n/a	n/a	5	18	Cue	AvoidedLoss	True
179.87	4.05	Lose2	1.0	0.0	Yes	2.73	0.0	n/a	GoodResponse	0	n/a	n/a	5	18	Fixation	AvoidedLoss	True
183.919	0.22	Lose2	1.0	0.001	Yes	2.73	-0.001	2.0	GoodResponse	0	0.196	183.115	5	18	Target	AvoidedLoss	True
184.115	0.3	Lose2	1.0	0.001	Yes	2.73	-0.001	2.0	GoodResponse	0	0.196	n/a	5	18	ButtonPress	AvoidedLoss	True
184.136	0.48	Lose2	1.0	n/a	Yes	2.73	n/a	n/a	GoodResponse	0	n/a	n/a	5	18	Blank	AvoidedLoss	True
184.619	1.45	Lose2	1.0	n/a	Yes	2.73	n/a	5.0	GoodResponse	0	0.039	183.658	5	18	Feedback	AvoidedLoss	True
186.068	2.73	Lose2	1.0	n/a	Yes	2.73	n/a	n/a	GoodResponse	0	0.0	n/a	5	18	ISIslide	AvoidedLoss	True
188.817	0.25	Control	0.95	0.0	No	2.933	0.017	n/a	LatePress	0	n/a	n/a	5	19	Cue	Neutral	True
189.067	3.95	Control	0.95	0.0	No	2.933	0.0	n/a	LatePress	0	n/a	n/a	5	19	Fixation	Neutral	True
193.016	0.21	Control	0.95	0.001	No	2.933	-0.001	2.0	LatePress	0	0.216	192.232	5	19	Target	Neutral	True
193.232	0.49	Control	0.95	n/a	No	2.933	n/a	n/a	LatePress	0	n/a	n/a	5	19	Blank	Neutral	True
193.232	0.3	Control	0.95	0.001	No	2.933	-0.001	2.0	LatePress	0	0.216	n/a	5	19	ButtonPress	Neutral	True
193.715	1.45	Control	0.95	n/a	No	2.933	n/a	5.0	LatePress	0	0.016	192.731	5	19	Feedback	Neutral	True
195.165	2.933	Control	0.95	n/a	No	2.933	n/a	n/a	LatePress	0	0.0	n/a	5	19	ISIslide	Neutral	True
198.114	0.25	Control	0.9048	0.0	No	2.636	0.014	n/a	NoResponse	0	n/a	n/a	5	20	Cue	Neutral	True
198.364	4.05	Control	0.9048	0.0	No	2.636	0.0	n/a	NoResponse	0	n/a	n/a	5	20	Fixation	Neutral	True
202.412	0.2	Control	0.9048	0.002	No	2.636	-0.002	2.0	NoResponse	0	0.253	201.665	5	20	Target	Neutral	True
202.612	0.5	Control	0.9048	n/a	No	2.636	n/a	n/a	NoResponse	0	n/a	n/a	5	20	Blank	Neutral	True
202.665	0.3	Control	0.9048	0.002	No	2.636	-0.002	2.0	NoResponse	0	0.253	n/a	5	20	ButtonPress	Neutral	True
203.112	1.45	Control	0.9048	n/a	No	2.636	n/a	5.0	NoResponse	0	0.034	202.146	5	20	Feedback	Neutral	True
204.562	2.636	Control	0.9048	n/a	No	2.636	n/a	n/a	NoResponse	0	0.0	n/a	5	20	ISIslide	Neutral	True
207.211	0.25	Control	0.8636	0.0	No	2.789	0.011	n/a	NoResponse	0	n/a	n/a	5	21	Cue	Neutral	False
207.461	4.1	Control	0.8636	0.0	No	2.789	0.0	2.0	NoResponse	0	3.993	210.454	5	21	Fixation	Neutral	False
211.454	0.3	Control	0.8636	0.0	No	2.789	0.0	2.0	NoResponse	0	3.993	n/a	5	21	ButtonPress	Neutral	False
211.559	0.19	Control	0.8636	0.002	No	2.789	-0.002	2.0	NoResponse	0	0.412	210.971	5	21	Target	Neutral	False
211.759	0.51	Control	0.8636	n/a	No	2.789	n/a	n/a	NoResponse	0	n/a	n/a	5	21	Blank	Neutral	False
211.971	0.3	Control	0.8636	0.002	No	2.789	-0.002	2.0	NoResponse	0	0.412	n/a	5	21	ButtonPress	Neutral	False
212.259	1.45	Control	0.8636	n/a	No	2.789	n/a	5.0	NoResponse	0	0.009	211.268	5	21	Feedback	Neutral	False
213.708	2.789	Control	0.8636	n/a	No	2.789	n/a	n/a	NoResponse	0	0.0	n/a	5	21	ISIslide	Neutral	False
216.524	0.25	Control	0.8261	0.0	No	2.776	0.024	n/a	NoResponse	0	n/a	n/a	5	22	Cue	Neutral	True
216.774	4.0	Control	0.8261	0.0	No	2.776	0.0	n/a	NoResponse	0	n/a	n/a	5	22	Fixation	Neutral	True
220.772	0.18	Control	0.8261	0.002	No	2.776	-0.002	2.0	NoResponse	0	0.189	219.961	5	22	Target	Neutral	True
220.956	0.52	Control	0.8261	n/a	No	2.776	n/a	n/a	NoResponse	0	n/a	n/a	5	22	Blank	Neutral	True
220.961	0.3	Control	0.8261	0.002	No	2.776	-0.002	2.0	NoResponse	0	0.189	n/a	5	22	ButtonPress	Neutral	True
221.472	1.45	Control	0.8261	n/a	No	2.776	n/a	5.0	NoResponse	0	0.015	220.487	5	22	Feedback	Neutral	True
222.922	2.776	Control	0.8261	n/a	No	2.776	n/a	n/a	NoResponse	0	0.0	n/a	5	22	ISIslide	Neutral	True
225.721	0.25	Control	0.7917000000000001	0.0	No	2.779	0.021	n/a	NoResponse	0	n/a	n/a	5	23	Cue	Neutral	True
225.971	3.9	Control	0.7917000000000001	0.0	No	2.779	0.0	n/a	NoResponse	0	n/a	n/a	5	23	Fixation	Neutral	True
229.869	0.17	Control	0.7917000000000001	0.002	No	2.779	-0.002	2.0	NoResponse	0	0.221	229.09	5	23	Target	Neutral	True
230.053	0.53	Control	0.7917000000000001	n/a	No	2.779	n/a	n/a	NoResponse	0	n/a	n/a	5	23	Blank	Neutral	True
230.09	0.3	Control	0.7917000000000001	0.002	No	2.779	-0.002	2.0	NoResponse	0	0.221	n/a	5	23	ButtonPress	Neutral	True
230.569	1.45	Control	0.7917000000000001	n/a	No	2.779	n/a	5.0	NoResponse	0	0.04	229.609	5	23	Feedback	Neutral	True
232.018	2.779	Control	0.7917000000000001	n/a	No	2.779	n/a	n/a	NoResponse	0	0.0	n/a	5	23	ISIslide	Neutral	True
234.817	0.25	Win2	0.76	0.001	No	3.133	0.017	n/a	NoResponse	0	n/a	n/a	5	24	Cue	MissedWin	True
235.067	3.95	Win2	0.76	0.0	No	3.133	0.0	n/a	NoResponse	0	n/a	n/a	5	24	Fixation	MissedWin	True
239.016	0.16	Win2	0.76	0.001	No	3.133	-0.001	2.0	NoResponse	0	0.199	238.215	5	24	Target	MissedWin	True
239.183	0.54	Win2	0.76	n/a	No	3.133	n/a	n/a	NoResponse	0	n/a	n/a	5	24	Blank	MissedWin	True
239.215	0.3	Win2	0.76	0.001	No	3.133	-0.001	2.0	NoResponse	0	0.199	n/a	5	24	ButtonPress	MissedWin	True
239.716	1.45	Win2	0.76	n/a	No	3.133	n/a	5.0	NoResponse	0	0.015	238.731	5	24	Feedback	MissedWin	True
241.165	3.133	Win2	0.76	n/a	No	3.133	n/a	n/a	NoResponse	0	0.0	n/a	5	24	ISIslide	MissedWin	True
244.314	0.25	Win2	0.7308	0.0	No	3.086	0.014	n/a	NoResponse	0	n/a	n/a	5	25	Cue	MissedWin	True
244.564	4.0	Win2	0.7308	0.0	No	3.086	0.0	n/a	NoResponse	0	n/a	n/a	5	25	Fixation	MissedWin	True
248.563	0.15	Win2	0.7308	0.001	No	3.086	-0.001	2.0	NoResponse	0	0.2	247.763	5	25	Target	MissedWin	True
248.713	0.55	Win2	0.7308	n/a	No	3.086	n/a	n/a	NoResponse	0	n/a	n/a	5	25	Blank	MissedWin	True
248.763	0.3	Win2	0.7308	0.001	No	3.086	-0.001	2.0	NoResponse	0	0.2	n/a	5	25	ButtonPress	MissedWin	True
249.262	1.45	Win2	0.7308	n/a	No	3.086	n/a	5.0	NoResponse	0	0.03	248.292	5	25	Feedback	MissedWin	True
250.712	3.086	Win2	0.7308	n/a	No	3.086	n/a	n/a	NoResponse	0	0.0	n/a	5	25	ISIslide	MissedWin	True
253.827	0.25	Win2	0.7037	0.0	No	2.923	0.027	n/a	NoResponse	0	n/a	n/a	5	26	Cue	MissedWin	True
254.077	3.95	Win2	0.7037	0.0	No	2.923	0.0	n/a	NoResponse	0	n/a	n/a	5	26	Fixation	MissedWin	True
258.026	0.15	Win2	0.7037	0.001	No	2.923	-0.001	2.0	NoResponse	0	0.207	257.233	5	26	Target	MissedWin	True
258.176	0.55	Win2	0.7037	n/a	No	2.923	n/a	n/a	NoResponse	0	n/a	n/a	5	26	Blank	MissedWin	True
258.233	0.3	Win2	0.7037	0.001	No	2.923	-0.001	2.0	NoResponse	0	0.207	n/a	5	26	ButtonPress	MissedWin	True
258.726	1.45	Win2	0.7037	n/a	No	2.923	n/a	5.0	NoResponse	0	0.029	257.755	5	26	Feedback	MissedWin	True
260.175	2.923	Win2	0.7037	n/a	No	2.923	n/a	n/a	NoResponse	0	0.0	n/a	5	26	ISIslide	MissedWin	True
263.124	0.25	Lose2	0.6786	0.0	No	2.826	0.024	n/a	NoResponse	-1	n/a	n/a	4	27	Cue	Loss	True
263.374	4.05	Lose2	0.6786	0.0	No	2.826	0.0	n/a	NoResponse	-1	n/a	n/a	4	27	Fixation	Loss	True
267.423	0.15	Lose2	0.6786	0.001	No	2.826	-0.001	2.0	NoResponse	-1	0.194	266.617	4	27	Target	Loss	True
267.573	0.55	Lose2	0.6786	n/a	No	2.826	n/a	n/a	NoResponse	-1	n/a	n/a	4	27	Blank	Loss	True
267.617	0.3	Lose2	0.6786	0.001	No	2.826	-0.001	2.0	NoResponse	-1	0.194	n/a	4	27	ButtonPress	Loss	True
268.122	1.45	Lose2	0.6786	n/a	No	2.826	n/a	5.0	NoResponse	-1	0.047	267.169	4	27	Feedback	Loss	True
269.572	2.826	Lose2	0.6786	n/a	No	2.826	n/a	n/a	NoResponse	-1	0.0	n/a	4	27	ISIslide	Loss	True
272.421	0.25	Control	0.6552	0.0	No	2.829	0.021	n/a	NoResponse	0	n/a	n/a	4	28	Cue	Neutral	True
272.671	4.05	Control	0.6552	0.0	No	2.829	0.0	n/a	NoResponse	0	n/a	n/a	4	28	Fixation	Neutral	True
276.719	0.15	Control	0.6552	0.002	No	2.829	-0.002	2.0	NoResponse	0	0.272	275.991	4	28	Target	Neutral	True
276.869	0.55	Control	0.6552	n/a	No	2.829	n/a	n/a	NoResponse	0	n/a	n/a	4	28	Blank	Neutral	True
276.991	0.3	Control	0.6552	0.002	No	2.829	-0.002	2.0	NoResponse	0	0.272	n/a	4	28	ButtonPress	Neutral	True
277.419	1.45	Control	0.6552	n/a	No	2.829	n/a	5.0	NoResponse	0	0.019	276.438	4	28	Feedback	Neutral	True
278.868	2.829	Control	0.6552	n/a	No	2.829	n/a	n/a	NoResponse	0	0.0	n/a	4	28	ISIslide	Neutral	True
281.717	0.25	Lose2	0.6333	0.001	No	2.833	0.017	n/a	NoResponse	-1	n/a	n/a	3	29	Cue	Loss	True
281.967	3.95	Lose2	0.6333	0.0	No	2.833	0.0	n/a	NoResponse	-1	n/a	n/a	3	29	Fixation	Loss	True
285.916	0.15	Lose2	0.6333	0.001	No	2.833	-0.001	2.0	NoResponse	-1	0.157	285.073	3	29	Target	Loss	True
286.066	0.55	Lose2	0.6333	n/a	No	2.833	n/a	n/a	NoResponse	-1	n/a	n/a	3	29	Blank	Loss	True
286.073	0.3	Lose2	0.6333	0.001	No	2.833	-0.001	2.0	NoResponse	-1	0.157	n/a	3	29	ButtonPress	Loss	True
286.616	1.45	Lose2	0.6333	n/a	No	2.833	n/a	5.0	NoResponse	-1	0.041	285.657	3	29	Feedback	Loss	True
288.065	2.833	Lose2	0.6333	n/a	No	2.833	n/a	n/a	NoResponse	-1	0.0	n/a	3	29	ISIslide	Loss	True
290.914	0.25	Win2	0.6129	0.0	No	2.786	0.014	n/a	NoResponse	0	n/a	n/a	3	30	Cue	MissedWin	True
291.164	3.9	Win2	0.6129	0.0	No	2.786	0.0	n/a	NoResponse	0	n/a	n/a	3	30	Fixation	MissedWin	True
295.063	0.16	Win2	0.6129	0.001	No	2.786	-0.001	2.0	NoResponse	0	0.181	294.244	3	30	Target	MissedWin	True
295.229	0.54	Win2	0.6129	n/a	No	2.786	n/a	n/a	NoResponse	0	n/a	n/a	3	30	Blank	MissedWin	True
295.244	0.3	Win2	0.6129	0.001	No	2.786	-0.001	2.0	NoResponse	0	0.181	n/a	3	30	ButtonPress	MissedWin	True
295.762	1.45	Win2	0.6129	n/a	No	2.786	n/a	5.0	NoResponse	0	0.016	294.778	3	30	Feedback	MissedWin	True
297.212	2.786	Win2	0.6129	n/a	No	2.786	n/a	n/a	NoResponse	0	0.0	n/a	3	30	ISIslide	MissedWin	True
300.011	0.25	Lose2	0.5938	0.0	No	2.839	0.011	n/a	LatePress	-1	n/a	n/a	2	31	Cue	Loss	True
300.261	4.05	Lose2	0.5938	0.0	No	2.839	0.0	n/a	LatePress	-1	n/a	n/a	2	31	Fixation	Loss	True
304.309	0.17	Lose2	0.5938	0.002	No	2.839	-0.002	2.0	LatePress	-1	0.183	303.492	2	31	Target	Loss	True
304.492	0.3	Lose2	0.5938	0.002	No	2.839	-0.002	2.0	LatePress	-1	0.183	n/a	2	31	ButtonPress	Loss	True
304.493	0.53	Lose2	0.5938	n/a	No	2.839	n/a	n/a	LatePress	-1	n/a	n/a	2	31	Blank	Loss	True
305.009	1.45	Lose2	0.5938	n/a	No	2.839	n/a	5.0	LatePress	-1	0.038	304.047	2	31	Feedback	Loss	True
306.459	2.839	Lose2	0.5938	n/a	No	2.839	n/a	n/a	LatePress	-1	0.0	n/a	2	31	ISIslide	Loss	True
309.324	0.25	Lose2	0.5758	0.0	No	2.626	0.024	n/a	NoResponse	-1	n/a	n/a	1	32	Cue	Loss	True
309.574	4.15	Lose2	0.5758	0.0	No	2.626	0.0	2.0	NoResponse	-1	3.734	312.308	1	32	Fixation	Loss	True
313.308	0.3	Lose2	0.5758	0.0	No	2.626	0.0	2.0	NoResponse	-1	3.734	n/a	1	32	ButtonPress	Loss	True
313.723	0.18	Lose2	0.5758	0.001	No	2.626	-0.001	n/a	NoResponse	-1	n/a	n/a	1	32	Target	Loss	True
313.906	0.52	Lose2	0.5758	n/a	No	2.626	n/a	n/a	NoResponse	-1	n/a	n/a	1	32	Blank	Loss	True
314.423	1.45	Lose2	0.5758	n/a	No	2.626	n/a	5.0	NoResponse	-1	0.039	313.462	1	32	Feedback	Loss	True
315.872	2.626	Lose2	0.5758	n/a	No	2.626	n/a	n/a	NoResponse	-1	0.0	n/a	1	32	ISIslide	Loss	True
318.521	0.25	Win2	0.5882000000000001	0.0	Yes	2.679	0.021	n/a	GoodResponse	1	n/a	n/a	2	33	Cue	Win	True
318.771	4.0	Win2	0.5882000000000001	0.0	Yes	2.679	0.0	n/a	GoodResponse	1	n/a	n/a	2	33	Fixation	Win	True
322.77	0.19	Win2	0.5882000000000001	0.001	Yes	2.679	-0.001	2.0	GoodResponse	1	0.187	321.957	2	33	Target	Win	True
322.957	0.3	Win2	0.5882000000000001	0.001	Yes	2.679	-0.001	2.0	GoodResponse	1	0.187	n/a	2	33	ButtonPress	Win	True
322.969	0.51	Win2	0.5882000000000001	n/a	Yes	2.679	n/a	n/a	GoodResponse	1	n/a	n/a	2	33	Blank	Win	True
323.469	1.45	Win2	0.5882000000000001	n/a	Yes	2.679	n/a	5.0	GoodResponse	1	0.017	322.486	2	33	Feedback	Win	True
324.919	2.679	Win2	0.5882000000000001	n/a	Yes	2.679	n/a	n/a	GoodResponse	1	0.0	n/a	2	33	ISIslide	Win	True
327.618	0.25	Lose2	0.5714	0.0	No	2.632	0.018	n/a	NoResponse	-1	n/a	n/a	1	34	Cue	Loss	True
327.868	4.05	Lose2	0.5714	0.0	No	2.632	0.0	n/a	NoResponse	-1	n/a	n/a	1	34	Fixation	Loss	True
331.916	0.2	Lose2	0.5714	0.002	No	2.632	-0.002	2.0	NoResponse	-1	0.207	331.123	1	34	Target	Loss	True
332.116	0.5	Lose2	0.5714	n/a	No	2.632	n/a	n/a	NoResponse	-1	n/a	n/a	1	34	Blank	Loss	True
332.123	0.3	Lose2	0.5714	0.002	No	2.632	-0.002	2.0	NoResponse	-1	0.207	n/a	1	34	ButtonPress	Loss	True
332.616	1.45	Lose2	0.5714	n/a	No	2.632	n/a	5.0	NoResponse	-1	0.04	331.656	1	34	Feedback	Loss	True
334.066	2.632	Lose2	0.5714	n/a	No	2.632	n/a	n/a	NoResponse	-1	0.0	n/a	1	34	ISIslide	Loss	True
336.715	0.25	Lose2	0.5556	0.0	No	2.685	0.015	n/a	LatePress	-1	n/a	n/a	0	35	Cue	Loss	True
336.964	4.0	Lose2	0.5556	0.001	No	2.685	-0.001	n/a	LatePress	-1	n/a	n/a	0	35	Fixation	Loss	True
340.963	0.21	Lose2	0.5556	0.002	No	2.685	-0.002	2.0	LatePress	-1	0.216	340.179	0	35	Target	Loss	True
341.179	0.3	Lose2	0.5556	0.002	No	2.685	-0.002	2.0	LatePress	-1	0.216	n/a	0	35	ButtonPress	Loss	True
341.18	0.49	Lose2	0.5556	n/a	No	2.685	n/a	n/a	LatePress	-1	n/a	n/a	0	35	Blank	Loss	True
341.663	1.45	Lose2	0.5556	n/a	No	2.685	n/a	5.0	LatePress	-1	0.018	340.681	0	35	Feedback	Loss	True
343.112	2.685	Lose2	0.5556	n/a	No	2.685	n/a	n/a	LatePress	-1	0.0	n/a	0	35	ISIslide	Loss	True
345.811	0.25	Control	0.5405	0.0	No	2.689	0.011	n/a	NoResponse	0	n/a	n/a	0	36	Cue	Neutral	True
346.061	4.0	Control	0.5405	0.0	No	2.689	0.0	n/a	NoResponse	0	n/a	n/a	0	36	Fixation	Neutral	True
350.06	0.22	Control	0.5405	0.001	No	2.689	-0.001	2.0	NoResponse	0	0.303	349.363	0	36	Target	Neutral	True
350.276	0.48	Control	0.5405	n/a	No	2.689	n/a	n/a	NoResponse	0	n/a	n/a	0	36	Blank	Neutral	True
350.363	0.3	Control	0.5405	0.001	No	2.689	-0.001	2.0	NoResponse	0	0.303	n/a	0	36	ButtonPress	Neutral	True
350.76	1.45	Control	0.5405	n/a	No	2.689	n/a	5.0	NoResponse	0	0.043	349.803	0	36	Feedback	Neutral	True
352.209	2.689	Control	0.5405	n/a	No	2.689	n/a	n/a	NoResponse	0	0.0	n/a	0	36	ISIslide	Neutral	True
354.925	0.25	Win2	0.5526	0.0	Yes	2.875	0.025	n/a	GoodResponse	1	n/a	n/a	1	37	Cue	Win	True
355.175	4.0	Win2	0.5526	0.0	Yes	2.875	0.0	n/a	GoodResponse	1	n/a	n/a	1	37	Fixation	Win	True
359.173	0.23	Win2	0.5526	0.002	Yes	2.875	-0.002	2.0	GoodResponse	1	0.215	358.388	1	37	Target	Win	True
359.388	0.3	Win2	0.5526	0.002	Yes	2.875	-0.002	2.0	GoodResponse	1	0.215	n/a	1	37	ButtonPress	Win	True
359.407	0.47	Win2	0.5526	n/a	Yes	2.875	n/a	n/a	GoodResponse	1	n/a	n/a	1	37	Blank	Win	True
359.873	1.45	Win2	0.5526	n/a	Yes	2.875	n/a	5.0	GoodResponse	1	0.005	358.878	1	37	Feedback	Win	True
361.322	2.875	Win2	0.5526	n/a	Yes	2.875	n/a	n/a	GoodResponse	1	0.0	n/a	1	37	ISIslide	Win	True
364.221	0.25	Lose2	0.5640999999999999	0.001	Yes	2.829	0.021	n/a	GoodResponse	0	n/a	n/a	1	38	Cue	AvoidedLoss	True
364.471	3.95	Lose2	0.5640999999999999	0.0	Yes	2.829	0.0	n/a	GoodResponse	0	n/a	n/a	1	38	Fixation	AvoidedLoss	True
368.42	0.24	Lose2	0.5640999999999999	0.001	Yes	2.829	-0.001	2.0	GoodResponse	0	0.19	367.61	1	38	Target	AvoidedLoss	True
368.61	0.3	Lose2	0.5640999999999999	0.001	Yes	2.829	-0.001	2.0	GoodResponse	0	0.19	n/a	1	38	ButtonPress	AvoidedLoss	True
368.67	0.46	Lose2	0.5640999999999999	n/a	Yes	2.829	n/a	n/a	GoodResponse	0	n/a	n/a	1	38	Blank	AvoidedLoss	True
369.12	1.45	Lose2	0.5640999999999999	n/a	Yes	2.829	n/a	5.0	GoodResponse	0	0.023	368.143	1	38	Feedback	AvoidedLoss	True
370.569	2.829	Lose2	0.5640999999999999	n/a	Yes	2.829	n/a	n/a	GoodResponse	0	0.0	n/a	1	38	ISIslide	AvoidedLoss	True
373.418	0.25	Win2	0.575	0.0	Yes	2.982	0.018	n/a	GoodResponse	1	n/a	n/a	2	39	Cue	Win	True
373.668	4.1	Win2	0.575	0.0	Yes	2.982	0.0	n/a	GoodResponse	1	n/a	n/a	2	39	Fixation	Win	True
377.767	0.25	Win2	0.575	0.001	Yes	2.982	-0.001	2.0	GoodResponse	1	0.23	376.997	2	39	Target	Win	True
377.997	0.3	Win2	0.575	0.001	Yes	2.982	-0.001	2.0	GoodResponse	1	0.23	n/a	2	39	ButtonPress	Win	True
378.017	0.45	Win2	0.575	n/a	Yes	2.982	n/a	n/a	GoodResponse	1	n/a	n/a	2	39	Blank	Win	True
378.466	1.45	Win2	0.575	n/a	Yes	2.982	n/a	5.0	GoodResponse	1	0.043	377.509	2	39	Feedback	Win	True
379.916	2.982	Win2	0.575	n/a	Yes	2.982	n/a	n/a	GoodResponse	1	0.0	n/a	2	39	ISIslide	Win	True
382.915	0.25	Win2	0.561	0.0	No	2.735	0.015	n/a	LatePress	0	n/a	n/a	2	40	Cue	MissedWin	True
383.165	3.95	Win2	0.561	0.0	No	2.735	0.0	n/a	LatePress	0	n/a	n/a	2	40	Fixation	MissedWin	True
387.113	0.26	Win2	0.561	0.002	No	2.735	-0.002	2.0	LatePress	0	0.262	386.375	2	40	Target	MissedWin	True
387.375	0.3	Win2	0.561	0.002	No	2.735	-0.002	2.0	LatePress	0	0.262	n/a	2	40	ButtonPress	MissedWin	True
387.38	0.44	Win2	0.561	n/a	No	2.735	n/a	n/a	LatePress	0	n/a	n/a	2	40	Blank	MissedWin	True
387.813	1.45	Win2	0.561	n/a	No	2.735	n/a	5.0	LatePress	0	0.013	386.826	2	40	Feedback	MissedWin	True
389.263	2.735	Win2	0.561	n/a	No	2.735	n/a	n/a	LatePress	0	0.0	n/a	2	40	ISIslide	MissedWin	True
392.012	0.25	Win2	0.5714	0.0	Yes	2.788	0.012	n/a	GoodResponse	1	n/a	n/a	3	41	Cue	Win	True
392.261	3.9	Win2	0.5714	0.001	Yes	2.788	-0.001	n/a	GoodResponse	1	n/a	n/a	3	41	Fixation	Win	True
396.16	0.27	Win2	0.5714	0.002	Yes	2.788	-0.002	2.0	GoodResponse	1	0.208	395.368	3	41	Target	Win	True
396.368	0.3	Win2	0.5714	0.002	Yes	2.788	-0.002	2.0	GoodResponse	1	0.208	n/a	3	41	ButtonPress	Win	True
396.443	0.43	Win2	0.5714	n/a	Yes	2.788	n/a	n/a	GoodResponse	1	n/a	n/a	3	41	Blank	Win	True
396.86	1.45	Win2	0.5714	n/a	Yes	2.788	n/a	5.0	GoodResponse	1	0.04	395.9	3	41	Feedback	Win	True
398.309	2.788	Win2	0.5714	n/a	Yes	2.788	n/a	n/a	GoodResponse	1	0.0	n/a	3	41	ISIslide	Win	True
401.125	0.25	Control	0.5814	0.0	Yes	2.925	0.025	n/a	GoodResponse	0	n/a	n/a	3	42	Cue	Neutral	True
401.375	3.85	Control	0.5814	0.0	Yes	2.925	0.0	n/a	GoodResponse	0	n/a	n/a	3	42	Fixation	Neutral	True
405.224	0.28	Control	0.5814	0.001	Yes	2.925	-0.001	2.0	GoodResponse	0	0.201	404.425	3	42	Target	Neutral	True
405.425	0.3	Control	0.5814	0.001	Yes	2.925	-0.001	2.0	GoodResponse	0	0.201	n/a	3	42	ButtonPress	Neutral	True
405.507	0.42	Control	0.5814	n/a	Yes	2.925	n/a	n/a	GoodResponse	0	n/a	n/a	3	42	Blank	Neutral	True
405.923	1.45	Control	0.5814	n/a	Yes	2.925	n/a	5.0	GoodResponse	0	0.0	404.923	3	42	Feedback	Neutral	True
407.373	2.925	Control	0.5814	n/a	Yes	2.925	n/a	n/a	GoodResponse	0	0.0	n/a	3	42	ISIslide	Neutral	True
410.322	0.25	Win2	0.5909	0.0	Yes	3.178	0.022	n/a	GoodResponse	1	n/a	n/a	4	43	Cue	Win	True
410.572	4.0	Win2	0.5909	0.0	Yes	3.178	0.0	n/a	GoodResponse	1	n/a	n/a	4	43	Fixation	Win	True
414.57	0.29	Win2	0.5909	0.002	Yes	3.178	-0.002	2.0	GoodResponse	1	0.232	413.802	4	43	Target	Win	True
414.802	0.3	Win2	0.5909	0.002	Yes	3.178	-0.002	2.0	GoodResponse	1	0.232	n/a	4	43	ButtonPress	Win	True
414.87	0.41	Win2	0.5909	n/a	Yes	3.178	n/a	n/a	GoodResponse	1	n/a	n/a	4	43	Blank	Win	True
415.27	1.45	Win2	0.5909	n/a	Yes	3.178	n/a	5.0	GoodResponse	1	0.019	414.289	4	43	Feedback	Win	True
416.719	3.178	Win2	0.5909	n/a	Yes	3.178	n/a	n/a	GoodResponse	1	0.0	n/a	4	43	ISIslide	Win	True
419.918	0.25	Win2	0.5778	0.0	No	2.982	0.018	n/a	NoResponse	0	n/a	n/a	4	44	Cue	MissedWin	True
420.168	4.0	Win2	0.5778	0.0	No	2.982	0.0	n/a	NoResponse	0	n/a	n/a	4	44	Fixation	MissedWin	True
424.167	0.3	Win2	0.5778	0.001	No	2.982	-0.001	2.0	NoResponse	0	0.446	423.613	4	44	Target	MissedWin	True
424.467	0.4	Win2	0.5778	n/a	No	2.982	n/a	n/a	NoResponse	0	n/a	n/a	4	44	Blank	MissedWin	True
424.613	0.3	Win2	0.5778	0.001	No	2.982	-0.001	2.0	NoResponse	0	0.446	n/a	4	44	ButtonPress	MissedWin	True
424.867	1.45	Win2	0.5778	n/a	No	2.982	n/a	5.0	NoResponse	0	0.033	423.9	4	44	Feedback	MissedWin	True
426.316	2.982	Win2	0.5778	n/a	No	2.982	n/a	2.0	NoResponse	0	0.233	n/a	4	44	ISIslide	MissedWin	True
429.298	0.25	Control	0.5652	0.0	No	2.902	-0.002	n/a	NoResponse	0	n/a	n/a	4	45	Cue	Neutral	True
429.548	4.1	Control	0.5652	0.0	No	2.902	0.0	2.0	NoResponse	0	4.085	432.633	4	45	Fixation	Neutral	True
433.633	0.3	Control	0.5652	0.0	No	2.902	0.0	2.0	NoResponse	0	4.085	n/a	4	45	ButtonPress	Neutral	True
433.647	0.31	Control	0.5652	0.001	No	2.902	-0.001	n/a	NoResponse	0	n/a	n/a	4	45	Target	Neutral	True
433.963	0.39	Control	0.5652	n/a	No	2.902	n/a	n/a	NoResponse	0	n/a	n/a	4	45	Blank	Neutral	True
434.347	1.45	Control	0.5652	n/a	No	2.902	n/a	5.0	NoResponse	0	0.016	433.363	4	45	Feedback	Neutral	True
435.796	2.902	Control	0.5652	n/a	No	2.902	n/a	n/a	NoResponse	0	0.0	n/a	4	45	ISIslide	Neutral	True
438.712	0.25	Lose2	0.5745	0.0	Yes	3.388	0.012	n/a	GoodResponse	0	n/a	n/a	4	46	Cue	AvoidedLoss	True
438.962	4.0	Lose2	0.5745	0.0	Yes	3.388	0.0	n/a	GoodResponse	0	n/a	n/a	4	46	Fixation	AvoidedLoss	True
442.96	0.32	Lose2	0.5745	0.002	Yes	3.388	-0.002	2.0	GoodResponse	0	0.178	442.138	4	46	Target	AvoidedLoss	True
443.138	0.3	Lose2	0.5745	0.002	Yes	3.388	-0.002	2.0	GoodResponse	0	0.178	n/a	4	46	ButtonPress	AvoidedLoss	True
443.293	0.38	Lose2	0.5745	n/a	Yes	3.388	n/a	n/a	GoodResponse	0	n/a	n/a	4	46	Blank	AvoidedLoss	True
443.66	1.45	Lose2	0.5745	n/a	Yes	3.388	n/a	5.0	GoodResponse	0	0.019	442.679	4	46	Feedback	AvoidedLoss	True
445.109	3.388	Lose2	0.5745	n/a	Yes	3.388	n/a	n/a	GoodResponse	0	0.0	n/a	4	46	ISIslide	AvoidedLoss	True
448.525	0.25	Lose2	0.5832999999999999	0.0	Yes	2.675	0.025	n/a	GoodResponse	0	n/a	n/a	4	47	Cue	AvoidedLoss	True
448.775	4.0	Lose2	0.5832999999999999	0.0	Yes	2.675	0.0	n/a	GoodResponse	0	n/a	n/a	4	47	Fixation	AvoidedLoss	True
452.773	0.33	Lose2	0.5832999999999999	0.002	Yes	2.675	-0.002	2.0	GoodResponse	0	0.234	452.007	4	47	Target	AvoidedLoss	True
453.007	0.3	Lose2	0.5832999999999999	0.002	Yes	2.675	-0.002	2.0	GoodResponse	0	0.234	n/a	4	47	ButtonPress	AvoidedLoss	True
453.107	0.37	Lose2	0.5832999999999999	n/a	Yes	2.675	n/a	n/a	GoodResponse	0	n/a	n/a	4	47	Blank	AvoidedLoss	True
453.473	1.45	Lose2	0.5832999999999999	n/a	Yes	2.675	n/a	5.0	GoodResponse	0	0.011	452.484	4	47	Feedback	AvoidedLoss	True
454.923	2.675	Lose2	0.5832999999999999	n/a	Yes	2.675	n/a	n/a	GoodResponse	0	0.0	n/a	4	47	ISIslide	AvoidedLoss	True
457.622	0.25	Lose2	0.5918	0.0	Yes	3.028	0.022	n/a	GoodResponse	0	n/a	n/a	4	48	Cue	AvoidedLoss	True
457.871	3.95	Lose2	0.5918	0.001	Yes	3.028	-0.001	n/a	GoodResponse	0	n/a	n/a	4	48	Fixation	AvoidedLoss	True
461.82	0.34	Lose2	0.5918	0.002	Yes	3.028	-0.002	2.0	GoodResponse	0	0.248	461.068	4	48	Target	AvoidedLoss	True
462.068	0.3	Lose2	0.5918	0.002	Yes	3.028	-0.002	2.0	GoodResponse	0	0.248	n/a	4	48	ButtonPress	AvoidedLoss	True
462.17	0.36	Lose2	0.5918	n/a	Yes	3.028	n/a	n/a	GoodResponse	0	n/a	n/a	4	48	Blank	AvoidedLoss	True
462.52	1.45	Lose2	0.5918	n/a	Yes	3.028	n/a	5.0	GoodResponse	0	0.037	461.557	4	48	Feedback	AvoidedLoss	True
463.969	3.028	Lose2	0.5918	n/a	Yes	3.028	n/a	n/a	GoodResponse	0	0.0	n/a	4	48	ISIslide	AvoidedLoss	True
467.018	0.25	Control	0.6	0.0	Yes	2.882	0.018	n/a	GoodResponse	0	n/a	n/a	4	49	Cue	Neutral	True
467.268	4.0	Control	0.6	0.0	Yes	2.882	0.0	n/a	GoodResponse	0	n/a	n/a	4	49	Fixation	Neutral	True
471.267	0.35	Control	0.6	0.001	Yes	2.882	-0.001	2.0	GoodResponse	0	0.206	470.473	4	49	Target	Neutral	True
471.473	0.3	Control	0.6	0.001	Yes	2.882	-0.001	2.0	GoodResponse	0	0.206	n/a	4	49	ButtonPress	Neutral	True
471.617	0.35	Control	0.6	n/a	Yes	2.882	n/a	n/a	GoodResponse	0	n/a	n/a	4	49	Blank	Neutral	True
471.966	1.45	Control	0.6	n/a	Yes	2.882	n/a	5.0	GoodResponse	0	0.006	470.972	4	49	Feedback	Neutral	True
473.416	2.882	Control	0.6	n/a	Yes	2.882	n/a	n/a	GoodResponse	0	0.0	n/a	4	49	ISIslide	Neutral	True
476.315	0.25	Control	0.6078	0.0	Yes	2.785	0.015	n/a	GoodResponse	0	n/a	n/a	4	50	Cue	Neutral	True
476.565	4.0	Control	0.6078	0.0	Yes	2.785	0.0	n/a	GoodResponse	0	n/a	n/a	4	50	Fixation	Neutral	True
480.563	0.36	Control	0.6078	0.002	Yes	2.785	-0.002	2.0	GoodResponse	0	0.25	479.813	4	50	Target	Neutral	True
480.813	0.3	Control	0.6078	0.002	Yes	2.785	-0.002	2.0	GoodResponse	0	0.25	n/a	4	50	ButtonPress	Neutral	True
480.93	0.34	Control	0.6078	n/a	Yes	2.785	n/a	n/a	GoodResponse	0	n/a	n/a	4	50	Blank	Neutral	True
481.263	1.45	Control	0.6078	n/a	Yes	2.785	n/a	5.0	GoodResponse	0	0.025	480.288	4	50	Feedback	Neutral	True
482.713	2.785	Control	0.6078	n/a	Yes	2.785	n/a	n/a	GoodResponse	0	0.0	n/a	4	50	ISIslide	Neutral	True
485.528	0.25	Control	0.6154	0.0	Yes	2.722	0.028	n/a	GoodResponse	0	n/a	n/a	4	51	Cue	Neutral	True
485.778	3.95	Control	0.6154	0.0	Yes	2.722	0.0	n/a	GoodResponse	0	n/a	n/a	4	51	Fixation	Neutral	True
489.727	0.37	Control	0.6154	0.001	Yes	2.722	-0.001	2.0	GoodResponse	0	0.333	489.06	4	51	Target	Neutral	True
490.06	0.3	Control	0.6154	0.001	Yes	2.722	-0.001	2.0	GoodResponse	0	0.333	n/a	4	51	ButtonPress	Neutral	True
490.093	0.33	Control	0.6154	n/a	Yes	2.722	n/a	n/a	GoodResponse	0	n/a	n/a	4	51	Blank	Neutral	True
490.427	1.45	Control	0.6154	n/a	Yes	2.722	n/a	5.0	GoodResponse	0	0.032	489.459	4	51	Feedback	Neutral	True
491.876	2.722	Control	0.6154	n/a	Yes	2.722	n/a	n/a	GoodResponse	0	0.0	n/a	4	51	ISIslide	Neutral	True
494.625	0.25	Control	0.6225999999999999	0.0	Yes	2.625	0.025	n/a	GoodResponse	0	n/a	n/a	4	52	Cue	Neutral	True
494.875	4.05	Control	0.6225999999999999	0.0	Yes	2.625	0.0	n/a	GoodResponse	0	n/a	n/a	4	52	Fixation	Neutral	True
498.924	0.38	Control	0.6225999999999999	0.001	Yes	2.625	-0.001	2.0	GoodResponse	0	0.191	498.115	4	52	Target	Neutral	True
499.115	0.3	Control	0.6225999999999999	0.001	Yes	2.625	-0.001	2.0	GoodResponse	0	0.191	n/a	4	52	ButtonPress	Neutral	True
499.307	0.32	Control	0.6225999999999999	n/a	Yes	2.625	n/a	n/a	GoodResponse	0	n/a	n/a	4	52	Blank	Neutral	True
499.623	1.45	Control	0.6225999999999999	n/a	Yes	2.625	n/a	5.0	GoodResponse	0	0.007	498.63	4	52	Feedback	Neutral	True
501.073	2.625	Control	0.6225999999999999	n/a	Yes	2.625	n/a	n/a	GoodResponse	0	0.0	n/a	4	52	ISIslide	Neutral	True
503.722	0.25	Win2	0.6296	0.0	Yes	2.928	0.022	n/a	GoodResponse	1	n/a	n/a	5	53	Cue	Win	True
503.972	4.05	Win2	0.6296	0.0	Yes	2.928	0.0	n/a	GoodResponse	1	n/a	n/a	5	53	Fixation	Win	True
508.02	0.39	Win2	0.6296	0.002	Yes	2.928	-0.002	2.0	GoodResponse	1	0.229	507.249	5	53	Target	Win	True
508.249	0.3	Win2	0.6296	0.002	Yes	2.928	-0.002	2.0	GoodResponse	1	0.229	n/a	5	53	ButtonPress	Win	True
508.42	0.31	Win2	0.6296	n/a	Yes	2.928	n/a	n/a	GoodResponse	1	n/a	n/a	5	53	Blank	Win	True
508.72	1.45	Win2	0.6296	n/a	Yes	2.928	n/a	5.0	GoodResponse	1	0.032	507.752	5	53	Feedback	Win	True
510.17	2.928	Win2	0.6296	n/a	Yes	2.928	n/a	n/a	GoodResponse	1	0.0	n/a	5	53	ISIslide	Win	True
513.119	0.25	Win2	0.6364	0.0	Yes	2.731	0.019	n/a	GoodResponse	1	n/a	n/a	6	54	Cue	Win	True
513.368	3.95	Win2	0.6364	0.001	Yes	2.731	-0.001	n/a	GoodResponse	1	n/a	n/a	6	54	Fixation	Win	True
517.317	0.4	Win2	0.6364	0.002	Yes	2.731	-0.002	2.0	GoodResponse	1	0.203	516.52	6	54	Target	Win	True
517.52	0.3	Win2	0.6364	0.002	Yes	2.731	-0.002	2.0	GoodResponse	1	0.203	n/a	6	54	ButtonPress	Win	True
517.717	0.3	Win2	0.6364	n/a	Yes	2.731	n/a	n/a	GoodResponse	1	n/a	n/a	6	54	Blank	Win	True
518.017	1.45	Win2	0.6364	n/a	Yes	2.731	n/a	5.0	GoodResponse	1	0.004	517.021	6	54	Feedback	Win	True
519.466	2.731	Win2	0.6364	n/a	Yes	2.731	n/a	n/a	GoodResponse	1	0.0	n/a	6	54	ISIslide	Win	True
522.215	0.25	Control	0.6429	0.0	Yes	3.035	0.015	n/a	GoodResponse	0	n/a	n/a	6	55	Cue	Neutral	True
522.465	3.95	Control	0.6429	0.0	Yes	3.035	0.0	n/a	GoodResponse	0	n/a	n/a	6	55	Fixation	Neutral	True
526.414	0.41	Control	0.6429	0.001	Yes	3.035	-0.001	2.0	GoodResponse	0	0.23	525.644	6	55	Target	Neutral	True
526.644	0.3	Control	0.6429	0.001	Yes	3.035	-0.001	2.0	GoodResponse	0	0.23	n/a	6	55	ButtonPress	Neutral	True
526.83	0.29	Control	0.6429	n/a	Yes	3.035	n/a	n/a	GoodResponse	0	n/a	n/a	6	55	Blank	Neutral	True
527.114	1.45	Control	0.6429	n/a	Yes	3.035	n/a	5.0	GoodResponse	0	0.027	526.141	6	55	Feedback	Neutral	True
528.563	3.035	Control	0.6429	n/a	Yes	3.035	n/a	n/a	GoodResponse	0	0.0	n/a	6	55	ISIslide	Neutral	True
531.629	0.25	Control	0.6491	0.0	Yes	2.821	0.029	n/a	GoodResponse	0	n/a	n/a	6	56	Cue	Neutral	True
531.878	3.95	Control	0.6491	0.001	Yes	2.821	-0.001	n/a	GoodResponse	0	n/a	n/a	6	56	Fixation	Neutral	True
535.827	0.42	Control	0.6491	0.002	Yes	2.821	-0.002	2.0	GoodResponse	0	0.245	535.072	6	56	Target	Neutral	True
536.072	0.3	Control	0.6491	0.002	Yes	2.821	-0.002	2.0	GoodResponse	0	0.245	n/a	6	56	ButtonPress	Neutral	True
536.26	0.28	Control	0.6491	n/a	Yes	2.821	n/a	n/a	GoodResponse	0	n/a	n/a	6	56	Blank	Neutral	True
536.527	1.45	Control	0.6491	n/a	Yes	2.821	n/a	5.0	GoodResponse	0	0.029	535.556	6	56	Feedback	Neutral	True
537.976	2.821	Control	0.6491	n/a	Yes	2.821	n/a	n/a	GoodResponse	0	0.0	n/a	6	56	ISIslide	Neutral	True
540.825	0.25	Control	0.6552	0.0	Yes	3.475	0.025	n/a	GoodResponse	0	n/a	n/a	6	57	Cue	Neutral	True
541.075	4.0	Control	0.6552	0.0	Yes	3.475	0.0	n/a	GoodResponse	0	n/a	n/a	6	57	Fixation	Neutral	True
545.074	0.43	Control	0.6552	0.001	Yes	3.475	-0.001	2.0	GoodResponse	0	0.215	544.289	6	57	Target	Neutral	True
545.289	0.3	Control	0.6552	0.001	Yes	3.475	-0.001	2.0	GoodResponse	0	0.215	n/a	6	57	ButtonPress	Neutral	True
545.507	0.27	Control	0.6552	n/a	Yes	3.475	n/a	n/a	GoodResponse	0	n/a	n/a	6	57	Blank	Neutral	True
545.774	1.45	Control	0.6552	n/a	Yes	3.475	n/a	5.0	GoodResponse	0	0.003	544.777	6	57	Feedback	Neutral	True
547.223	3.475	Control	0.6552	n/a	Yes	3.475	n/a	n/a	GoodResponse	0	0.0	n/a	6	57	ISIslide	Neutral	True
550.722	0.25	Win2	0.6609999999999999	0.0	Yes	2.728	0.022	n/a	GoodResponse	1	n/a	n/a	7	58	Cue	Win	True
550.972	4.05	Win2	0.6609999999999999	0.0	Yes	2.728	0.0	n/a	GoodResponse	1	n/a	n/a	7	58	Fixation	Win	True
555.02	0.43	Win2	0.6609999999999999	0.002	Yes	2.728	-0.002	2.0	GoodResponse	1	0.205	554.225	7	58	Target	Win	True
555.225	0.3	Win2	0.6609999999999999	0.002	Yes	2.728	-0.002	2.0	GoodResponse	1	0.205	n/a	7	58	ButtonPress	Win	True
555.453	0.27	Win2	0.6609999999999999	n/a	Yes	2.728	n/a	n/a	GoodResponse	1	n/a	n/a	7	58	Blank	Win	True
555.72	1.45	Win2	0.6609999999999999	n/a	Yes	2.728	n/a	5.0	GoodResponse	1	0.007	554.727	7	58	Feedback	Win	True
557.169	2.728	Win2	0.6609999999999999	n/a	Yes	2.728	n/a	n/a	GoodResponse	1	0.0	n/a	7	58	ISIslide	Win	True
559.919	0.25	Lose2	0.6667000000000001	0.0	Yes	2.681	0.019	n/a	GoodResponse	0	n/a	n/a	7	59	Cue	AvoidedLoss	True
560.168	4.0	Lose2	0.6667000000000001	0.001	Yes	2.681	-0.001	n/a	GoodResponse	0	n/a	n/a	7	59	Fixation	AvoidedLoss	True
564.167	0.43	Lose2	0.6667000000000001	0.002	Yes	2.681	-0.002	2.0	GoodResponse	0	0.197	563.364	7	59	Target	AvoidedLoss	True
564.364	0.3	Lose2	0.6667000000000001	0.002	Yes	2.681	-0.002	2.0	GoodResponse	0	0.197	n/a	7	59	ButtonPress	AvoidedLoss	True
564.6	0.27	Lose2	0.6667000000000001	n/a	Yes	2.681	n/a	n/a	GoodResponse	0	n/a	n/a	7	59	Blank	AvoidedLoss	True
564.867	1.45	Lose2	0.6667000000000001	n/a	Yes	2.681	n/a	5.0	GoodResponse	0	0.03	563.897	7	59	Feedback	AvoidedLoss	True
566.316	2.681	Lose2	0.6667000000000001	n/a	Yes	2.681	n/a	n/a	GoodResponse	0	0.0	n/a	7	59	ISIslide	AvoidedLoss	True
569.015	0.25	Control	0.6720999999999999	0.0	Yes	2.685	0.015	n/a	GoodResponse	0	n/a	n/a	7	60	Cue	Neutral	True
569.265	4.0	Control	0.6720999999999999	0.0	Yes	2.685	0.0	n/a	GoodResponse	0	n/a	n/a	7	60	Fixation	Neutral	True
573.264	0.42	Control	0.6720999999999999	0.001	Yes	2.685	-0.001	2.0	GoodResponse	0	0.282	572.546	7	60	Target	Neutral	True
573.546	0.3	Control	0.6720999999999999	0.001	Yes	2.685	-0.001	2.0	GoodResponse	0	0.282	n/a	7	60	ButtonPress	Neutral	True
573.697	0.28	Control	0.6720999999999999	n/a	Yes	2.685	n/a	n/a	GoodResponse	0	n/a	n/a	7	60	Blank	Neutral	True
573.964	1.45	Control	0.6720999999999999	n/a	Yes	2.685	n/a	5.0	GoodResponse	0	0.006	572.97	7	60	Feedback	Neutral	True
575.413	2.685	Control	0.6720999999999999	n/a	Yes	2.685	n/a	n/a	GoodResponse	0	0.0	n/a	7	60	ISIslide	Neutral	True
578.112	0.25	Lose2	0.6774	0.0	Yes	2.988	0.012	n/a	GoodResponse	0	n/a	n/a	7	61	Cue	AvoidedLoss	True
578.362	4.0	Lose2	0.6774	0.0	Yes	2.988	0.0	n/a	GoodResponse	0	n/a	n/a	7	61	Fixation	AvoidedLoss	True
582.361	0.41	Lose2	0.6774	0.001	Yes	2.988	-0.001	2.0	GoodResponse	0	0.238	581.599	7	61	Target	AvoidedLoss	True
582.599	0.3	Lose2	0.6774	0.001	Yes	2.988	-0.001	2.0	GoodResponse	0	0.238	n/a	7	61	ButtonPress	AvoidedLoss	True
582.777	0.29	Lose2	0.6774	n/a	Yes	2.988	n/a	n/a	GoodResponse	0	n/a	n/a	7	61	Blank	AvoidedLoss	True
583.06	1.45	Lose2	0.6774	n/a	Yes	2.988	n/a	5.0	GoodResponse	0	0.032	582.092	7	61	Feedback	AvoidedLoss	True
584.51	2.988	Lose2	0.6774	n/a	Yes	2.988	n/a	n/a	GoodResponse	0	0.0	n/a	7	61	ISIslide	AvoidedLoss	True
587.525	0.25	Lose2	0.6825	0.0	Yes	2.875	0.025	n/a	GoodResponse	0	n/a	n/a	7	62	Cue	AvoidedLoss	True
587.775	3.9	Lose2	0.6825	0.0	Yes	2.875	0.0	n/a	GoodResponse	0	n/a	n/a	7	62	Fixation	AvoidedLoss	True
591.674	0.4	Lose2	0.6825	0.001	Yes	2.875	-0.001	2.0	GoodResponse	0	0.232	590.906	7	62	Target	AvoidedLoss	True
591.906	0.3	Lose2	0.6825	0.001	Yes	2.875	-0.001	2.0	GoodResponse	0	0.232	n/a	7	62	ButtonPress	AvoidedLoss	True
592.074	0.3	Lose2	0.6825	n/a	Yes	2.875	n/a	n/a	GoodResponse	0	n/a	n/a	7	62	Blank	AvoidedLoss	True
592.374	1.45	Lose2	0.6825	n/a	Yes	2.875	n/a	5.0	GoodResponse	0	0.035	591.409	7	62	Feedback	AvoidedLoss	True
593.823	2.875	Lose2	0.6825	n/a	Yes	2.875	n/a	n/a	GoodResponse	0	0.0	n/a	7	62	ISIslide	AvoidedLoss	True
596.722	0.25	Lose2	0.6875	0.0	Yes	2.628	0.022	n/a	GoodResponse	0	n/a	n/a	7	63	Cue	AvoidedLoss	True
596.972	4.05	Lose2	0.6875	0.0	Yes	2.628	0.0	n/a	GoodResponse	0	n/a	n/a	7	63	Fixation	AvoidedLoss	True
601.021	0.39	Lose2	0.6875	0.001	Yes	2.628	-0.001	2.0	GoodResponse	0	0.262	600.283	7	63	Target	AvoidedLoss	True
601.283	0.3	Lose2	0.6875	0.001	Yes	2.628	-0.001	2.0	GoodResponse	0	0.262	n/a	7	63	ButtonPress	AvoidedLoss	True
601.42	0.31	Lose2	0.6875	n/a	Yes	2.628	n/a	n/a	GoodResponse	0	n/a	n/a	7	63	Blank	AvoidedLoss	True
601.72	1.45	Lose2	0.6875	n/a	Yes	2.628	n/a	5.0	GoodResponse	0	0.006	600.726	7	63	Feedback	AvoidedLoss	True
603.17	2.628	Lose2	0.6875	n/a	Yes	2.628	n/a	n/a	GoodResponse	0	0.0	n/a	7	63	ISIslide	AvoidedLoss	True
605.819	0.25	Win2	0.6923	0.0	Yes	3.131	0.019	n/a	GoodResponse	1	n/a	n/a	8	64	Cue	Win	True
606.069	4.15	Win2	0.6923	0.0	Yes	3.131	0.0	n/a	GoodResponse	1	n/a	n/a	8	64	Fixation	Win	True
610.217	0.38	Win2	0.6923	0.002	Yes	3.131	-0.002	2.0	GoodResponse	1	0.233	609.45	8	64	Target	Win	True
610.45	0.3	Win2	0.6923	0.002	Yes	3.131	-0.002	2.0	GoodResponse	1	0.233	n/a	8	64	ButtonPress	Win	True
610.601	0.32	Win2	0.6923	n/a	Yes	3.131	n/a	n/a	GoodResponse	1	n/a	n/a	8	64	Blank	Win	True
610.917	1.45	Win2	0.6923	n/a	Yes	3.131	n/a	5.0	GoodResponse	1	0.028	609.945	8	64	Feedback	Win	True
612.367	3.131	Win2	0.6923	n/a	Yes	3.131	n/a	n/a	GoodResponse	1	0.0	n/a	8	64	ISIslide	Win	True
615.515	0.25	Control	0.6970000000000001	0.0	Yes	2.785	0.015	n/a	GoodResponse	0	n/a	n/a	8	65	Cue	Neutral	True
615.765	4.0	Control	0.6970000000000001	0.0	Yes	2.785	0.0	n/a	GoodResponse	0	n/a	n/a	8	65	Fixation	Neutral	True
619.764	0.37	Control	0.6970000000000001	0.001	Yes	2.785	-0.001	2.0	GoodResponse	0	0.255	619.019	8	65	Target	Neutral	True
620.019	0.3	Control	0.6970000000000001	0.001	Yes	2.785	-0.001	2.0	GoodResponse	0	0.255	n/a	8	65	ButtonPress	Neutral	True
620.13	0.33	Control	0.6970000000000001	n/a	Yes	2.785	n/a	n/a	GoodResponse	0	n/a	n/a	8	65	Blank	Neutral	True
620.464	1.45	Control	0.6970000000000001	n/a	Yes	2.785	n/a	5.0	GoodResponse	0	0.042	619.506	8	65	Feedback	Neutral	True
621.913	2.785	Control	0.6970000000000001	n/a	Yes	2.785	n/a	n/a	GoodResponse	0	0.0	n/a	8	65	ISIslide	Neutral	True
624.729	0.25	Win2	0.7015	0.0	Yes	2.771	0.029	n/a	GoodResponse	1	n/a	n/a	9	66	Cue	Win	True
624.979	3.9	Win2	0.7015	0.0	Yes	2.771	0.0	n/a	GoodResponse	1	n/a	n/a	9	66	Fixation	Win	True
628.877	0.36	Win2	0.7015	0.002	Yes	2.771	-0.002	2.0	GoodResponse	1	0.239	628.116	9	66	Target	Win	True
629.116	0.3	Win2	0.7015	0.002	Yes	2.771	-0.002	2.0	GoodResponse	1	0.239	n/a	9	66	ButtonPress	Win	True
629.244	0.34	Win2	0.7015	n/a	Yes	2.771	n/a	n/a	GoodResponse	1	n/a	n/a	9	66	Blank	Win	True
629.577	1.45	Win2	0.7015	n/a	Yes	2.771	n/a	5.0	GoodResponse	1	0.005	628.582	9	66	Feedback	Win	True
631.027	2.771	Win2	0.7015	n/a	Yes	2.771	n/a	n/a	GoodResponse	1	0.0	n/a	9	66	ISIslide	Win	True
633.826	0.25	Control	0.7059000000000001	0.0	Yes	2.724	0.026	n/a	GoodResponse	0	n/a	n/a	9	67	Cue	Neutral	True
634.075	3.95	Control	0.7059000000000001	0.001	Yes	2.724	-0.001	n/a	GoodResponse	0	n/a	n/a	9	67	Fixation	Neutral	True
638.024	0.35	Control	0.7059000000000001	0.002	Yes	2.724	-0.002	2.0	GoodResponse	0	0.255	637.279	9	67	Target	Neutral	True
638.279	0.3	Control	0.7059000000000001	0.002	Yes	2.724	-0.002	2.0	GoodResponse	0	0.255	n/a	9	67	ButtonPress	Neutral	True
638.374	0.35	Control	0.7059000000000001	n/a	Yes	2.724	n/a	n/a	GoodResponse	0	n/a	n/a	9	67	Blank	Neutral	True
638.724	1.45	Control	0.7059000000000001	n/a	Yes	2.724	n/a	5.0	GoodResponse	0	0.025	637.749	9	67	Feedback	Neutral	True
640.173	2.724	Control	0.7059000000000001	n/a	Yes	2.724	n/a	n/a	GoodResponse	0	0.0	n/a	9	67	ISIslide	Neutral	True
642.922	0.25	Win2	0.7101000000000001	0.0	Yes	3.078	0.022	n/a	GoodResponse	1	n/a	n/a	10	68	Cue	Win	True
643.172	4.0	Win2	0.7101000000000001	0.0	Yes	3.078	0.0	n/a	GoodResponse	1	n/a	n/a	10	68	Fixation	Win	True
647.171	0.34	Win2	0.7101000000000001	0.001	Yes	3.078	-0.001	2.0	GoodResponse	1	0.239	646.41	10	68	Target	Win	True
647.41	0.3	Win2	0.7101000000000001	0.001	Yes	3.078	-0.001	2.0	GoodResponse	1	0.239	n/a	10	68	ButtonPress	Win	True
647.521	0.36	Win2	0.7101000000000001	n/a	Yes	3.078	n/a	n/a	GoodResponse	1	n/a	n/a	10	68	Blank	Win	True
647.871	1.45	Win2	0.7101000000000001	n/a	Yes	3.078	n/a	5.0	GoodResponse	1	0.0	646.871	10	68	Feedback	Win	True
649.32	3.078	Win2	0.7101000000000001	n/a	Yes	3.078	n/a	n/a	GoodResponse	1	0.0	n/a	10	68	ISIslide	Win	True
652.419	0.25	Win2	0.7143	0.0	Yes	3.231	0.019	n/a	GoodResponse	1	n/a	n/a	11	69	Cue	Win	True
652.669	3.95	Win2	0.7143	0.0	Yes	3.231	0.0	n/a	GoodResponse	1	n/a	n/a	11	69	Fixation	Win	True
656.617	0.33	Win2	0.7143	0.002	Yes	3.231	-0.002	2.0	GoodResponse	1	0.221	655.838	11	69	Target	Win	True
656.838	0.3	Win2	0.7143	0.002	Yes	3.231	-0.002	2.0	GoodResponse	1	0.221	n/a	11	69	ButtonPress	Win	True
656.951	0.37	Win2	0.7143	n/a	Yes	3.231	n/a	n/a	GoodResponse	1	n/a	n/a	11	69	Blank	Win	True
657.317	1.45	Win2	0.7143	n/a	Yes	3.231	n/a	5.0	GoodResponse	1	0.018	656.335	11	69	Feedback	Win	True
658.767	3.231	Win2	0.7143	n/a	Yes	3.231	n/a	n/a	GoodResponse	1	0.0	n/a	11	69	ISIslide	Win	True
662.016	0.25	Lose2	0.7182999999999999	0.0	Yes	3.034	0.016	n/a	GoodResponse	0	n/a	n/a	11	70	Cue	AvoidedLoss	True
662.265	4.05	Lose2	0.7182999999999999	0.001	Yes	3.034	-0.001	n/a	GoodResponse	0	n/a	n/a	11	70	Fixation	AvoidedLoss	True
666.314	0.32	Lose2	0.7182999999999999	0.002	Yes	3.034	-0.002	2.0	GoodResponse	0	0.206	665.52	11	70	Target	AvoidedLoss	True
666.52	0.3	Lose2	0.7182999999999999	0.002	Yes	3.034	-0.002	2.0	GoodResponse	0	0.206	n/a	11	70	ButtonPress	AvoidedLoss	True
666.647	0.38	Lose2	0.7182999999999999	n/a	Yes	3.034	n/a	n/a	GoodResponse	0	n/a	n/a	11	70	Blank	AvoidedLoss	True
667.014	1.45	Lose2	0.7182999999999999	n/a	Yes	3.034	n/a	5.0	GoodResponse	0	0.028	666.042	11	70	Feedback	AvoidedLoss	True
668.463	3.034	Lose2	0.7182999999999999	n/a	Yes	3.034	n/a	n/a	GoodResponse	0	0.0	n/a	11	70	ISIslide	AvoidedLoss	True
671.512	0.25	Win2	0.7222	0.0	Yes	2.738	0.012	n/a	GoodResponse	1	n/a	n/a	12	71	Cue	Win	True
671.762	4.05	Win2	0.7222	0.0	Yes	2.738	0.0	n/a	GoodResponse	1	n/a	n/a	12	71	Fixation	Win	True
675.811	0.31	Win2	0.7222	0.001	Yes	2.738	-0.001	2.0	GoodResponse	1	0.215	675.026	12	71	Target	Win	True
676.026	0.3	Win2	0.7222	0.001	Yes	2.738	-0.001	2.0	GoodResponse	1	0.215	n/a	12	71	ButtonPress	Win	True
676.127	0.39	Win2	0.7222	n/a	Yes	2.738	n/a	n/a	GoodResponse	1	n/a	n/a	12	71	Blank	Win	True
676.51	1.45	Win2	0.7222	n/a	Yes	2.738	n/a	5.0	GoodResponse	1	0.044	675.554	12	71	Feedback	Win	True
677.96	2.738	Win2	0.7222	n/a	Yes	2.738	n/a	n/a	GoodResponse	1	0.0	n/a	12	71	ISIslide	Win	True
680.726	0.25	Win2	0.726	0.0	Yes	2.774	0.026	n/a	GoodResponse	1	n/a	n/a	13	72	Cue	Win	True
680.975	4.1	Win2	0.726	0.001	Yes	2.774	-0.001	n/a	GoodResponse	1	n/a	n/a	13	72	Fixation	Win	True
685.074	0.3	Win2	0.726	0.002	Yes	2.774	-0.002	2.0	GoodResponse	1	0.219	684.293	13	72	Target	Win	True
685.293	0.3	Win2	0.726	0.002	Yes	2.774	-0.002	2.0	GoodResponse	1	0.219	n/a	13	72	ButtonPress	Win	True
685.374	0.4	Win2	0.726	n/a	Yes	2.774	n/a	n/a	GoodResponse	1	n/a	n/a	13	72	Blank	Win	True
685.774	1.45	Win2	0.726	n/a	Yes	2.774	n/a	5.0	GoodResponse	1	0.048	684.822	13	72	Feedback	Win	True
687.223	2.774	Win2	0.726	n/a	Yes	2.774	n/a	n/a	GoodResponse	1	0.0	n/a	13	72	ISIslide	Win	True
690.022	0.25	Win2	0.7297	0.0	Yes	2.678	0.022	n/a	GoodResponse	1	n/a	n/a	14	73	Cue	Win	True
690.272	4.0	Win2	0.7297	0.0	Yes	2.678	0.0	n/a	GoodResponse	1	n/a	n/a	14	73	Fixation	Win	True
694.271	0.29	Win2	0.7297	0.001	Yes	2.678	-0.001	2.0	GoodResponse	1	0.234	693.505	14	73	Target	Win	True
694.505	0.3	Win2	0.7297	0.001	Yes	2.678	-0.001	2.0	GoodResponse	1	0.234	n/a	14	73	ButtonPress	Win	True
694.571	0.41	Win2	0.7297	n/a	Yes	2.678	n/a	n/a	GoodResponse	1	n/a	n/a	14	73	Blank	Win	True
694.97	1.45	Win2	0.7297	n/a	Yes	2.678	n/a	5.0	GoodResponse	1	0.023	693.993	14	73	Feedback	Win	True
696.42	2.678	Win2	0.7297	n/a	Yes	2.678	n/a	n/a	GoodResponse	1	0.0	n/a	14	73	ISIslide	Win	True
699.119	0.25	Lose2	0.7333	0.0	Yes	2.631	0.019	n/a	GoodResponse	0	n/a	n/a	14	74	Cue	AvoidedLoss	True
699.369	4.05	Lose2	0.7333	0.0	Yes	2.631	0.0	n/a	GoodResponse	0	n/a	n/a	14	74	Fixation	AvoidedLoss	True
703.417	0.28	Lose2	0.7333	0.002	Yes	2.631	-0.002	2.0	GoodResponse	0	0.21	702.627	14	74	Target	AvoidedLoss	True
703.627	0.3	Lose2	0.7333	0.002	Yes	2.631	-0.002	2.0	GoodResponse	0	0.21	n/a	14	74	ButtonPress	AvoidedLoss	True
703.701	0.42	Lose2	0.7333	n/a	Yes	2.631	n/a	n/a	GoodResponse	0	n/a	n/a	14	74	Blank	AvoidedLoss	True
704.117	1.45	Lose2	0.7333	n/a	Yes	2.631	n/a	5.0	GoodResponse	0	0.046	703.163	14	74	Feedback	AvoidedLoss	True
705.567	2.631	Lose2	0.7333	n/a	Yes	2.631	n/a	n/a	GoodResponse	0	0.0	n/a	14	74	ISIslide	AvoidedLoss	True
708.216	0.25	Lose2	0.7368000000000001	0.0	Yes	2.934	0.016	n/a	GoodResponse	0	n/a	n/a	14	75	Cue	AvoidedLoss	True
708.466	3.95	Lose2	0.7368000000000001	0.0	Yes	2.934	0.0	n/a	GoodResponse	0	n/a	n/a	14	75	Fixation	AvoidedLoss	True
712.414	0.27	Lose2	0.7368000000000001	0.002	Yes	2.934	-0.002	2.0	GoodResponse	0	0.229	711.643	14	75	Target	AvoidedLoss	True
712.643	0.3	Lose2	0.7368000000000001	0.002	Yes	2.934	-0.002	2.0	GoodResponse	0	0.229	n/a	14	75	ButtonPress	AvoidedLoss	True
712.698	0.43	Lose2	0.7368000000000001	n/a	Yes	2.934	n/a	n/a	GoodResponse	0	n/a	n/a	14	75	Blank	AvoidedLoss	True
713.114	1.45	Lose2	0.7368000000000001	n/a	Yes	2.934	n/a	5.0	GoodResponse	0	0.025	712.139	14	75	Feedback	AvoidedLoss	True
714.564	2.934	Lose2	0.7368000000000001	n/a	Yes	2.934	n/a	n/a	GoodResponse	0	0.0	n/a	14	75	ISIslide	AvoidedLoss	True
717.529	0.25	Control	0.7403	0.0	Yes	3.221	0.029	n/a	GoodResponse	0	n/a	n/a	14	76	Cue	Neutral	True
717.779	4.05	Control	0.7403	0.0	Yes	3.221	0.0	n/a	GoodResponse	0	n/a	n/a	14	76	Fixation	Neutral	True
721.828	0.26	Control	0.7403	0.001	Yes	3.221	-0.001	2.0	GoodResponse	0	0.214	721.042	14	76	Target	Neutral	True
722.042	0.3	Control	0.7403	0.001	Yes	3.221	-0.001	2.0	GoodResponse	0	0.214	n/a	14	76	ButtonPress	Neutral	True
722.094	0.44	Control	0.7403	n/a	Yes	3.221	n/a	n/a	GoodResponse	0	n/a	n/a	14	76	Blank	Neutral	True
722.527	1.45	Control	0.7403	n/a	Yes	3.221	n/a	5.0	GoodResponse	0	0.026	721.553	14	76	Feedback	Neutral	True
723.977	3.221	Control	0.7403	n/a	Yes	3.221	n/a	n/a	GoodResponse	0	0.0	n/a	14	76	ISIslide	Neutral	True
727.226	0.25	Lose2	0.7436	0.0	Yes	2.574	0.026	n/a	GoodResponse	0	n/a	n/a	14	77	Cue	AvoidedLoss	True
727.476	3.95	Lose2	0.7436	0.0	Yes	2.574	0.0	n/a	GoodResponse	0	n/a	n/a	14	77	Fixation	AvoidedLoss	True
731.424	0.25	Lose2	0.7436	0.002	Yes	2.574	-0.002	2.0	GoodResponse	0	0.204	730.628	14	77	Target	AvoidedLoss	True
731.628	0.3	Lose2	0.7436	0.002	Yes	2.574	-0.002	2.0	GoodResponse	0	0.204	n/a	14	77	ButtonPress	AvoidedLoss	True
731.674	0.45	Lose2	0.7436	n/a	Yes	2.574	n/a	n/a	GoodResponse	0	n/a	n/a	14	77	Blank	AvoidedLoss	True
732.124	1.45	Lose2	0.7436	n/a	Yes	2.574	n/a	5.0	GoodResponse	0	0.039	731.163	14	77	Feedback	AvoidedLoss	True
733.573	2.574	Lose2	0.7436	n/a	Yes	2.574	n/a	n/a	GoodResponse	0	0.0	n/a	14	77	ISIslide	AvoidedLoss	True
