onset	duration	cue_type	current_mean_accuracy	duration_error	is_hit	isi_adjusted	onset_delay	response	response_type	reward	rt	rt_time	total_reward	trial_number	trial_phase	trial_type	one_press
11.105	0.25	Control	1.0	0.001	Yes	2.945	0.005	n/a	GoodResponse	0	n/a	n/a	0	0	Cue	Neutral	True
11.356	3.85	Control	1.0	0.0	Yes	2.945	0.001	n/a	GoodResponse	0	n/a	n/a	0	0	Fixation	Neutral	True
15.201	0.4	Control	1.0	0.004	Yes	2.945	-0.004	2.0	GoodResponse	0	0.242	14.443	0	0	Target	Neutral	True
15.443	0.3	Control	1.0	0.004	Yes	2.945	-0.004	2.0	GoodResponse	0	0.242	n/a	0	0	ButtonPress	Neutral	True
15.602	0.3	Control	1.0	n/a	Yes	2.945	n/a	n/a	GoodResponse	0	n/a	n/a	0	0	Blank	Neutral	True
15.903	1.45	Control	1.0	n/a	Yes	2.945	n/a	5.0	GoodResponse	0	0.023	14.926	0	0	Feedback	Neutral	True
17.357	2.945	Control	1.0	n/a	Yes	2.945	n/a	n/a	GoodResponse	0	0.0	n/a	0	0	ISIslide	Neutral	True
20.316	0.25	Lose2	1.0	0.0	Yes	2.784	0.016	n/a	GoodResponse	0	n/a	n/a	0	1	Cue	AvoidedLoss	True
20.567	4.0	Lose2	1.0	0.0	Yes	2.784	0.001	n/a	GoodResponse	0	n/a	n/a	0	1	Fixation	AvoidedLoss	True
24.562	0.39	Lose2	1.0	0.004	Yes	2.784	-0.004	2.0	GoodResponse	0	0.207	23.769	0	1	Target	AvoidedLoss	True
24.769	0.3	Lose2	1.0	0.004	Yes	2.784	-0.004	2.0	GoodResponse	0	0.207	n/a	0	1	ButtonPress	AvoidedLoss	True
24.964	0.31	Lose2	1.0	n/a	Yes	2.784	n/a	n/a	GoodResponse	0	n/a	n/a	0	1	Blank	AvoidedLoss	True
25.264	1.45	Lose2	1.0	n/a	Yes	2.784	n/a	5.0	GoodResponse	0	0.028	24.292	0	1	Feedback	AvoidedLoss	True
26.719	2.784	Lose2	1.0	n/a	Yes	2.784	n/a	n/a	GoodResponse	0	0.0	n/a	0	1	ISIslide	AvoidedLoss	True
29.527	0.25	Control	1.0	0.0	Yes	2.573	0.027	n/a	GoodResponse	0	n/a	n/a	0	2	Cue	Neutral	True
29.778	4.1	Control	1.0	0.0	Yes	2.573	0.001	n/a	GoodResponse	0	n/a	n/a	0	2	Fixation	Neutral	True
33.874	0.38	Control	1.0	0.003	Yes	2.573	-0.003	2.0	GoodResponse	0	0.186	33.06	0	2	Target	Neutral	True
34.06	0.3	Control	1.0	0.003	Yes	2.573	-0.003	2.0	GoodResponse	0	0.186	n/a	0	2	ButtonPress	Neutral	True
34.258	0.32	Control	1.0	n/a	Yes	2.573	n/a	n/a	GoodResponse	0	n/a	n/a	0	2	Blank	Neutral	True
34.576	1.45	Control	1.0	n/a	Yes	2.573	n/a	5.0	GoodResponse	0	0.033	33.609	0	2	Feedback	Neutral	True
36.03	2.573	Control	1.0	n/a	Yes	2.573	n/a	n/a	GoodResponse	0	0.0	n/a	0	2	ISIslide	Neutral	True
38.621	0.25	Win2	1.0	0.0	Yes	2.829	0.021	n/a	GoodResponse	1	n/a	n/a	1	3	Cue	Win	True
38.872	3.95	Win2	1.0	0.0	Yes	2.829	0.001	n/a	GoodResponse	1	n/a	n/a	1	3	Fixation	Win	True
42.817	0.37	Win2	1.0	0.004	Yes	2.829	-0.004	2.0	GoodResponse	1	0.249	42.066	1	3	Target	Win	True
43.066	0.3	Win2	1.0	0.004	Yes	2.829	-0.004	2.0	GoodResponse	1	0.249	n/a	1	3	ButtonPress	Win	True
43.201	0.33	Win2	1.0	n/a	Yes	2.829	n/a	n/a	GoodResponse	1	n/a	n/a	1	3	Blank	Win	True
43.519	1.45	Win2	1.0	n/a	Yes	2.829	n/a	5.0	GoodResponse	1	0.017	42.536	1	3	Feedback	Win	True
44.973	2.829	Win2	1.0	n/a	Yes	2.829	n/a	n/a	GoodResponse	1	0.0	n/a	1	3	ISIslide	Win	True
47.815	0.25	Win2	1.0	0.0	Yes	3.285	0.015	n/a	GoodResponse	1	n/a	n/a	2	4	Cue	Win	True
48.066	4.0	Win2	1.0	0.0	Yes	3.285	0.001	n/a	GoodResponse	1	n/a	n/a	2	4	Fixation	Win	True
52.061	0.36	Win2	1.0	0.004	Yes	3.285	-0.004	2.0	GoodResponse	1	0.242	51.303	2	4	Target	Win	True
52.303	0.3	Win2	1.0	0.004	Yes	3.285	-0.004	2.0	GoodResponse	1	0.242	n/a	2	4	ButtonPress	Win	True
52.429	0.34	Win2	1.0	n/a	Yes	3.285	n/a	n/a	GoodResponse	1	n/a	n/a	2	4	Blank	Win	True
52.763	1.45	Win2	1.0	n/a	Yes	3.285	n/a	5.0	GoodResponse	1	0.04	51.803	2	4	Feedback	Win	True
54.218	3.285	Win2	1.0	n/a	Yes	3.285	n/a	n/a	GoodResponse	1	0.0	n/a	2	4	ISIslide	Win	True
57.528	0.25	Win2	1.0	0.0	Yes	2.772	0.028	n/a	GoodResponse	1	n/a	n/a	3	5	Cue	Win	True
57.778	4.0	Win2	1.0	0.0	Yes	2.772	0.0	n/a	GoodResponse	1	n/a	n/a	3	5	Fixation	Win	True
61.774	0.35	Win2	1.0	0.004	Yes	2.772	-0.004	2.0	GoodResponse	1	0.178	60.952	3	5	Target	Win	True
61.952	0.3	Win2	1.0	0.004	Yes	2.772	-0.004	2.0	GoodResponse	1	0.178	n/a	3	5	ButtonPress	Win	True
62.125	0.35	Win2	1.0	n/a	Yes	2.772	n/a	n/a	GoodResponse	1	n/a	n/a	3	5	Blank	Win	True
62.476	1.45	Win2	1.0	n/a	Yes	2.772	n/a	5.0	GoodResponse	1	0.035	61.511	3	5	Feedback	Win	True
63.93	2.772	Win2	1.0	n/a	Yes	2.772	n/a	n/a	GoodResponse	1	0.0	n/a	3	5	ISIslide	Win	True
66.722	0.25	Lose2	1.0	0.0	Yes	2.728	0.022	n/a	GoodResponse	0	n/a	n/a	3	6	Cue	AvoidedLoss	True
66.972	3.95	Lose2	1.0	0.001	Yes	2.728	0.0	n/a	GoodResponse	0	n/a	n/a	3	6	Fixation	AvoidedLoss	True
70.918	0.34	Lose2	1.0	0.004	Yes	2.728	-0.004	2.0	GoodResponse	0	0.21	70.128	3	6	Target	AvoidedLoss	True
71.128	0.3	Lose2	1.0	0.004	Yes	2.728	-0.004	2.0	GoodResponse	0	0.21	n/a	3	6	ButtonPress	AvoidedLoss	True
71.269	0.36	Lose2	1.0	n/a	Yes	2.728	n/a	n/a	GoodResponse	0	n/a	n/a	3	6	Blank	AvoidedLoss	True
71.62	1.45	Lose2	1.0	n/a	Yes	2.728	n/a	5.0	GoodResponse	0	0.013	70.633	3	6	Feedback	AvoidedLoss	True
73.074	2.728	Lose2	1.0	n/a	Yes	2.728	n/a	n/a	GoodResponse	0	0.0	n/a	3	6	ISIslide	AvoidedLoss	True
75.816	0.25	Lose2	1.0	0.0	Yes	4.034	0.016	n/a	GoodResponse	0	n/a	n/a	3	7	Cue	AvoidedLoss	True
76.066	4.05	Lose2	1.0	0.0	Yes	4.034	0.0	n/a	GoodResponse	0	n/a	n/a	3	7	Fixation	AvoidedLoss	True
80.112	0.33	Lose2	1.0	0.004	Yes	4.034	-0.004	2.0	GoodResponse	0	0.22	79.332	3	7	Target	AvoidedLoss	True
80.332	0.3	Lose2	1.0	0.004	Yes	4.034	-0.004	2.0	GoodResponse	0	0.22	n/a	3	7	ButtonPress	AvoidedLoss	True
80.446	0.37	Lose2	1.0	n/a	Yes	4.034	n/a	n/a	GoodResponse	0	n/a	n/a	3	7	Blank	AvoidedLoss	True
80.814	1.45	Lose2	1.0	n/a	Yes	4.034	n/a	5.0	GoodResponse	0	0.038	79.852	3	7	Feedback	AvoidedLoss	True
82.268	4.034	Lose2	1.0	n/a	Yes	4.034	n/a	n/a	GoodResponse	0	0.0	n/a	3	7	ISIslide	AvoidedLoss	True
86.33	0.25	Lose2	1.0	0.0	Yes	3.02	0.03	n/a	GoodResponse	0	n/a	n/a	3	8	Cue	AvoidedLoss	True
86.581	3.95	Lose2	1.0	0.0	Yes	3.02	0.001	n/a	GoodResponse	0	n/a	n/a	3	8	Fixation	AvoidedLoss	True
90.526	0.32	Lose2	1.0	0.004	Yes	3.02	-0.004	2.0	GoodResponse	0	0.273	89.799	3	8	Target	AvoidedLoss	True
90.799	0.3	Lose2	1.0	0.004	Yes	3.02	-0.004	2.0	GoodResponse	0	0.273	n/a	3	8	ButtonPress	AvoidedLoss	True
90.861	0.38	Lose2	1.0	n/a	Yes	3.02	n/a	n/a	GoodResponse	0	n/a	n/a	3	8	Blank	AvoidedLoss	True
91.228	1.45	Lose2	1.0	n/a	Yes	3.02	n/a	5.0	GoodResponse	0	0.014	90.242	3	8	Feedback	AvoidedLoss	True
92.683	3.02	Lose2	1.0	n/a	Yes	3.02	n/a	n/a	GoodResponse	0	0.0	n/a	3	8	ISIslide	AvoidedLoss	True
95.725	0.25	Lose2	1.0	0.0	Yes	3.125	0.025	n/a	GoodResponse	0	n/a	n/a	3	9	Cue	AvoidedLoss	True
95.976	3.95	Lose2	1.0	0.0	Yes	3.125	0.001	n/a	GoodResponse	0	n/a	n/a	3	9	Fixation	AvoidedLoss	True
99.921	0.31	Lose2	1.0	0.004	Yes	3.125	-0.004	2.0	GoodResponse	0	0.244	99.165	3	9	Target	AvoidedLoss	True
100.165	0.3	Lose2	1.0	0.004	Yes	3.125	-0.004	2.0	GoodResponse	0	0.244	n/a	3	9	ButtonPress	AvoidedLoss	True
100.239	0.39	Lose2	1.0	n/a	Yes	3.125	n/a	n/a	GoodResponse	0	n/a	n/a	3	9	Blank	AvoidedLoss	True
100.623	1.45	Lose2	1.0	n/a	Yes	3.125	n/a	5.0	GoodResponse	0	0.034	99.657	3	9	Feedback	AvoidedLoss	True
102.077	3.125	Lose2	1.0	n/a	Yes	3.125	n/a	n/a	GoodResponse	0	0.0	n/a	3	9	ISIslide	AvoidedLoss	True
105.22	0.25	Control	1.0	0.0	Yes	3.28	0.02	n/a	GoodResponse	0	n/a	n/a	3	10	Cue	Neutral	True
105.471	4.0	Control	1.0	0.0	Yes	3.28	0.001	n/a	GoodResponse	0	n/a	n/a	3	10	Fixation	Neutral	True
109.466	0.3	Control	1.0	0.004	Yes	3.28	-0.004	2.0	GoodResponse	0	0.251	108.717	3	10	Target	Neutral	True
109.717	0.3	Control	1.0	0.004	Yes	3.28	-0.004	2.0	GoodResponse	0	0.251	n/a	3	10	ButtonPress	Neutral	True
109.767	0.4	Control	1.0	n/a	Yes	3.28	n/a	n/a	GoodResponse	0	n/a	n/a	3	10	Blank	Neutral	True
110.168	1.45	Control	1.0	n/a	Yes	3.28	n/a	5.0	GoodResponse	0	0.001	109.169	3	10	Feedback	Neutral	True
111.623	3.28	Control	1.0	n/a	Yes	3.28	n/a	n/a	GoodResponse	0	0.0	n/a	3	10	ISIslide	Neutral	True
114.916	0.25	Lose2	1.0	0.0	Yes	2.734	0.016	n/a	GoodResponse	0	n/a	n/a	3	11	Cue	AvoidedLoss	True
115.167	4.05	Lose2	1.0	0.0	Yes	2.734	0.001	n/a	GoodResponse	0	n/a	n/a	3	11	Fixation	AvoidedLoss	True
119.212	0.29	Lose2	1.0	0.004	Yes	2.734	-0.004	2.0	GoodResponse	0	0.236	118.448	3	11	Target	AvoidedLoss	True
119.448	0.3	Lose2	1.0	0.004	Yes	2.734	-0.004	2.0	GoodResponse	0	0.236	n/a	3	11	ButtonPress	AvoidedLoss	True
119.513	0.41	Lose2	1.0	n/a	Yes	2.734	n/a	n/a	GoodResponse	0	n/a	n/a	3	11	Blank	AvoidedLoss	True
119.914	1.45	Lose2	1.0	n/a	Yes	2.734	n/a	5.0	GoodResponse	0	0.011	118.925	3	11	Feedback	AvoidedLoss	True
121.368	2.734	Lose2	1.0	n/a	Yes	2.734	n/a	n/a	GoodResponse	0	0.0	n/a	3	11	ISIslide	AvoidedLoss	True
124.127	0.25	Control	0.9231	0.0	No	2.973	0.027	n/a	NoResponse	0	n/a	n/a	3	12	Cue	Neutral	True
124.377	3.9	Control	0.9231	0.001	No	2.973	0.0	n/a	NoResponse	0	n/a	n/a	3	12	Fixation	Neutral	True
128.289	0.28	Control	0.9231	0.0	No	2.973	0.012	2.0	NoResponse	0	0.39	127.679	3	12	Target	Neutral	True
128.557	0.42	Control	0.9231	n/a	No	2.973	n/a	n/a	NoResponse	0	n/a	n/a	3	12	Blank	Neutral	True
128.679	0.3	Control	0.9231	0.0	No	2.973	0.012	2.0	NoResponse	0	0.39	n/a	3	12	ButtonPress	Neutral	True
128.975	1.45	Control	0.9231	n/a	No	2.973	n/a	5.0	NoResponse	0	0.024	127.999	3	12	Feedback	Neutral	True
130.429	2.973	Control	0.9231	n/a	No	2.973	n/a	n/a	NoResponse	0	0.0	n/a	3	12	ISIslide	Neutral	True
133.421	0.25	Control	0.8571	0.0	No	2.779	0.021	n/a	NoResponse	0	n/a	n/a	3	13	Cue	Neutral	True
133.672	4.0	Control	0.8571	0.0	No	2.779	0.001	n/a	NoResponse	0	n/a	n/a	3	13	Fixation	Neutral	True
137.667	0.27	Control	0.8571	0.004	No	2.779	-0.004	2.0	NoResponse	0	0.401	137.068	3	13	Target	Neutral	True
137.951	0.43	Control	0.8571	n/a	No	2.779	n/a	n/a	NoResponse	0	n/a	n/a	3	13	Blank	Neutral	True
138.068	0.3	Control	0.8571	0.004	No	2.779	-0.004	2.0	NoResponse	0	0.401	n/a	3	13	ButtonPress	Neutral	True
138.369	1.45	Control	0.8571	n/a	No	2.779	n/a	5.0	NoResponse	0	0.043	137.412	3	13	Feedback	Neutral	True
139.824	2.779	Control	0.8571	n/a	No	2.779	n/a	n/a	NoResponse	0	0.0	n/a	3	13	ISIslide	Neutral	True
142.615	0.25	Win2	0.8667	0.0	Yes	2.685	0.015	n/a	GoodResponse	1	n/a	n/a	4	14	Cue	Win	True
142.866	4.1	Win2	0.8667	0.0	Yes	2.685	0.001	n/a	GoodResponse	1	n/a	n/a	4	14	Fixation	Win	True
146.962	0.26	Win2	0.8667	0.003	Yes	2.685	-0.003	2.0	GoodResponse	1	0.205	146.167	4	14	Target	Win	True
147.167	0.3	Win2	0.8667	0.003	Yes	2.685	-0.003	2.0	GoodResponse	1	0.205	n/a	4	14	ButtonPress	Win	True
147.229	0.44	Win2	0.8667	n/a	Yes	2.685	n/a	n/a	GoodResponse	1	n/a	n/a	4	14	Blank	Win	True
147.664	1.45	Win2	0.8667	n/a	Yes	2.685	n/a	5.0	GoodResponse	1	0.016	146.68	4	14	Feedback	Win	True
149.118	2.685	Win2	0.8667	n/a	Yes	2.685	n/a	n/a	GoodResponse	1	0.0	n/a	4	14	ISIslide	Win	True
151.826	0.25	Control	0.875	0.0	Yes	2.974	0.026	n/a	GoodResponse	0	n/a	n/a	4	15	Cue	Neutral	True
152.077	4.0	Control	0.875	0.0	Yes	2.974	0.001	n/a	GoodResponse	0	n/a	n/a	4	15	Fixation	Neutral	True
156.072	0.25	Control	0.875	0.004	Yes	2.974	-0.004	2.0	GoodResponse	0	0.222	155.294	4	15	Target	Neutral	True
156.294	0.3	Control	0.875	0.004	Yes	2.974	-0.004	2.0	GoodResponse	0	0.222	n/a	4	15	ButtonPress	Neutral	True
156.323	0.45	Control	0.875	n/a	Yes	2.974	n/a	n/a	GoodResponse	0	n/a	n/a	4	15	Blank	Neutral	True
156.774	1.45	Control	0.875	n/a	Yes	2.974	n/a	5.0	GoodResponse	0	0.028	155.802	4	15	Feedback	Neutral	True
158.229	2.974	Control	0.875	n/a	Yes	2.974	n/a	n/a	GoodResponse	0	0.0	n/a	4	15	ISIslide	Neutral	True
161.221	0.25	Win2	0.8234999999999999	0.0	No	2.879	0.021	n/a	LatePress	0	n/a	n/a	4	16	Cue	MissedWin	True
161.472	4.0	Win2	0.8234999999999999	0.0	No	2.879	0.001	n/a	LatePress	0	n/a	n/a	4	16	Fixation	MissedWin	True
165.467	0.24	Win2	0.8234999999999999	0.004	No	2.879	-0.004	2.0	LatePress	0	0.241	164.708	4	16	Target	MissedWin	True
165.708	0.3	Win2	0.8234999999999999	0.004	No	2.879	-0.004	2.0	LatePress	0	0.241	n/a	4	16	ButtonPress	MissedWin	True
165.718	0.46	Win2	0.8234999999999999	n/a	No	2.879	n/a	n/a	LatePress	0	n/a	n/a	4	16	Blank	MissedWin	True
166.169	1.45	Win2	0.8234999999999999	n/a	No	2.879	n/a	5.0	LatePress	0	0.048	165.217	4	16	Feedback	MissedWin	True
167.623	2.879	Win2	0.8234999999999999	n/a	No	2.879	n/a	n/a	LatePress	0	0.0	n/a	4	16	ISIslide	MissedWin	True
170.515	0.25	Lose2	0.8332999999999999	0.0	Yes	2.735	0.015	n/a	GoodResponse	0	n/a	n/a	4	17	Cue	AvoidedLoss	True
170.766	3.95	Lose2	0.8332999999999999	0.0	Yes	2.735	0.001	n/a	GoodResponse	0	n/a	n/a	4	17	Fixation	AvoidedLoss	True
174.711	0.23	Lose2	0.8332999999999999	0.004	Yes	2.735	-0.004	2.0	GoodResponse	0	0.191	173.902	4	17	Target	AvoidedLoss	True
174.902	0.3	Lose2	0.8332999999999999	0.004	Yes	2.735	-0.004	2.0	GoodResponse	0	0.191	n/a	4	17	ButtonPress	AvoidedLoss	True
174.945	0.47	Lose2	0.8332999999999999	n/a	Yes	2.735	n/a	n/a	GoodResponse	0	n/a	n/a	4	17	Blank	AvoidedLoss	True
175.413	1.45	Lose2	0.8332999999999999	n/a	Yes	2.735	n/a	5.0	GoodResponse	0	0.024	174.437	4	17	Feedback	AvoidedLoss	True
176.868	2.735	Lose2	0.8332999999999999	n/a	Yes	2.735	n/a	n/a	GoodResponse	0	0.0	n/a	4	17	ISIslide	AvoidedLoss	True
179.626	0.25	Lose2	0.8421	0.0	Yes	2.724	0.026	n/a	GoodResponse	0	n/a	n/a	4	18	Cue	AvoidedLoss	True
179.877	4.05	Lose2	0.8421	0.0	Yes	2.724	0.001	n/a	GoodResponse	0	n/a	n/a	4	18	Fixation	AvoidedLoss	True
183.922	0.22	Lose2	0.8421	0.004	Yes	2.724	-0.004	2.0	GoodResponse	0	0.202	183.124	4	18	Target	AvoidedLoss	True
184.124	0.3	Lose2	0.8421	0.004	Yes	2.724	-0.004	2.0	GoodResponse	0	0.202	n/a	4	18	ButtonPress	AvoidedLoss	True
184.156	0.48	Lose2	0.8421	n/a	Yes	2.724	n/a	n/a	GoodResponse	0	n/a	n/a	4	18	Blank	AvoidedLoss	True
184.624	1.45	Lose2	0.8421	n/a	Yes	2.724	n/a	5.0	GoodResponse	0	0.031	183.655	4	18	Feedback	AvoidedLoss	True
186.079	2.724	Lose2	0.8421	n/a	Yes	2.724	n/a	n/a	GoodResponse	0	0.0	n/a	4	18	ISIslide	AvoidedLoss	True
188.82	0.25	Control	0.8	0.0	No	2.93	0.02	n/a	NoResponse	0	n/a	n/a	4	19	Cue	Neutral	True
189.071	3.95	Control	0.8	0.0	No	2.93	0.001	n/a	NoResponse	0	n/a	n/a	4	19	Fixation	Neutral	True
193.016	0.21	Control	0.8	0.004	No	2.93	-0.004	2.0	NoResponse	0	0.259	192.275	4	19	Target	Neutral	True
193.233	0.49	Control	0.8	n/a	No	2.93	n/a	n/a	NoResponse	0	n/a	n/a	4	19	Blank	Neutral	True
193.275	0.3	Control	0.8	0.004	No	2.93	-0.004	2.0	NoResponse	0	0.259	n/a	4	19	ButtonPress	Neutral	True
193.718	1.45	Control	0.8	n/a	No	2.93	n/a	5.0	NoResponse	0	0.011	192.729	4	19	Feedback	Neutral	True
195.172	2.93	Control	0.8	n/a	No	2.93	n/a	n/a	NoResponse	0	0.0	n/a	4	19	ISIslide	Neutral	True
198.115	0.25	Control	0.7619	0.0	No	2.635	0.015	n/a	NoResponse	0	n/a	n/a	4	20	Cue	Neutral	True
198.365	4.05	Control	0.7619	0.0	No	2.635	0.0	n/a	NoResponse	0	n/a	n/a	4	20	Fixation	Neutral	True
202.411	0.2	Control	0.7619	0.004	No	2.635	-0.004	2.0	NoResponse	0	0.291	201.702	4	20	Target	Neutral	True
202.611	0.5	Control	0.7619	n/a	No	2.635	n/a	n/a	NoResponse	0	n/a	n/a	4	20	Blank	Neutral	True
202.702	0.3	Control	0.7619	0.004	No	2.635	-0.004	2.0	NoResponse	0	0.291	n/a	4	20	ButtonPress	Neutral	True
203.113	1.45	Control	0.7619	n/a	No	2.635	n/a	5.0	NoResponse	0	0.03	202.143	4	20	Feedback	Neutral	True
204.567	2.635	Control	0.7619	n/a	No	2.635	n/a	n/a	NoResponse	0	0.0	n/a	4	20	ISIslide	Neutral	True
207.225	0.25	Control	0.7273000000000001	0.0	No	2.775	0.025	n/a	NoResponse	0	n/a	n/a	4	21	Cue	Neutral	True
207.476	4.1	Control	0.7273000000000001	0.0	No	2.775	0.001	n/a	NoResponse	0	n/a	n/a	4	21	Fixation	Neutral	True
211.571	0.19	Control	0.7273000000000001	0.004	No	2.775	-0.004	2.0	NoResponse	0	0.23	210.801	4	21	Target	Neutral	True
211.772	0.51	Control	0.7273000000000001	n/a	No	2.775	n/a	n/a	NoResponse	0	n/a	n/a	4	21	Blank	Neutral	True
211.801	0.3	Control	0.7273000000000001	0.004	No	2.775	-0.004	2.0	NoResponse	0	0.23	n/a	4	21	ButtonPress	Neutral	True
212.274	1.45	Control	0.7273000000000001	n/a	No	2.775	n/a	5.0	NoResponse	0	0.04	211.314	4	21	Feedback	Neutral	True
213.728	2.775	Control	0.7273000000000001	n/a	No	2.775	n/a	n/a	NoResponse	0	0.0	n/a	4	21	ISIslide	Neutral	True
216.52	0.25	Control	0.6957	0.0	No	2.78	0.02	n/a	NoResponse	0	n/a	n/a	4	22	Cue	Neutral	True
216.77	4.0	Control	0.6957	0.0	No	2.78	0.0	n/a	NoResponse	0	n/a	n/a	4	22	Fixation	Neutral	True
220.766	0.18	Control	0.6957	0.004	No	2.78	-0.004	2.0	NoResponse	0	0.226	219.992	4	22	Target	Neutral	True
220.95	0.52	Control	0.6957	n/a	No	2.78	n/a	n/a	NoResponse	0	n/a	n/a	4	22	Blank	Neutral	True
220.992	0.3	Control	0.6957	0.004	No	2.78	-0.004	2.0	NoResponse	0	0.226	n/a	4	22	ButtonPress	Neutral	True
221.468	1.45	Control	0.6957	n/a	No	2.78	n/a	5.0	NoResponse	0	0.016	220.484	4	22	Feedback	Neutral	True
222.922	2.78	Control	0.6957	n/a	No	2.78	n/a	n/a	NoResponse	0	0.0	n/a	4	22	ISIslide	Neutral	True
225.73	0.25	Control	0.6667000000000001	0.001	No	2.77	0.03	n/a	NoResponse	0	n/a	n/a	4	23	Cue	Neutral	False
225.981	3.9	Control	0.6667000000000001	0.0	No	2.77	0.001	n/a	NoResponse	0	n/a	n/a	4	23	Fixation	Neutral	False
229.876	0.17	Control	0.6667000000000001	0.004	No	2.77	-0.004	n/a	NoResponse	0	n/a	n/a	4	23	Target	Neutral	False
230.06	0.53	Control	0.6667000000000001	n/a	No	2.77	n/a	n/a	NoResponse	0	n/a	n/a	4	23	Blank	Neutral	False
230.578	1.45	Control	0.6667000000000001	n/a	No	2.77	n/a	5.0	NoResponse	0	0.028	229.606	4	23	Feedback	Neutral	False
232.033	2.77	Control	0.6667000000000001	n/a	No	2.77	n/a	n/a	NoResponse	0	0.0	n/a	4	23	ISIslide	Neutral	False
234.824	0.25	Win2	0.64	0.0	No	3.126	0.024	n/a	NoResponse	0	n/a	n/a	4	24	Cue	MissedWin	True
235.075	3.95	Win2	0.64	0.0	No	3.126	0.001	n/a	NoResponse	0	n/a	n/a	4	24	Fixation	MissedWin	True
239.02	0.16	Win2	0.64	0.004	No	3.126	-0.004	2.0	NoResponse	0	0.203	238.223	4	24	Target	MissedWin	True
239.187	0.54	Win2	0.64	n/a	No	3.126	n/a	n/a	NoResponse	0	n/a	n/a	4	24	Blank	MissedWin	True
239.223	0.3	Win2	0.64	0.004	No	3.126	-0.004	2.0	NoResponse	0	0.203	n/a	4	24	ButtonPress	MissedWin	True
239.722	1.45	Win2	0.64	n/a	No	3.126	n/a	5.0	NoResponse	0	0.006	238.728	4	24	Feedback	MissedWin	True
241.177	3.126	Win2	0.64	n/a	No	3.126	n/a	n/a	NoResponse	0	0.0	n/a	4	24	ISIslide	MissedWin	True
244.319	0.25	Win2	0.6154	0.0	No	3.081	0.019	n/a	NoResponse	0	n/a	n/a	4	25	Cue	MissedWin	True
244.57	4.0	Win2	0.6154	0.0	No	3.081	0.001	n/a	NoResponse	0	n/a	n/a	4	25	Fixation	MissedWin	True
248.565	0.17	Win2	0.6154	0.004	No	3.081	-0.004	2.0	NoResponse	0	0.202	247.767	4	25	Target	MissedWin	True
248.749	0.53	Win2	0.6154	n/a	No	3.081	n/a	n/a	NoResponse	0	n/a	n/a	4	25	Blank	MissedWin	True
248.767	0.3	Win2	0.6154	0.004	No	3.081	-0.004	2.0	NoResponse	0	0.202	n/a	4	25	ButtonPress	MissedWin	True
249.268	1.45	Win2	0.6154	n/a	No	3.081	n/a	5.0	NoResponse	0	0.021	248.289	4	25	Feedback	MissedWin	True
250.722	3.081	Win2	0.6154	n/a	No	3.081	n/a	n/a	NoResponse	0	0.0	n/a	4	25	ISIslide	MissedWin	True
253.831	0.25	Win2	0.6296	0.0	Yes	2.919	0.031	n/a	GoodResponse	1	n/a	n/a	5	26	Cue	Win	True
254.082	3.95	Win2	0.6296	0.0	Yes	2.919	0.001	n/a	GoodResponse	1	n/a	n/a	5	26	Fixation	Win	True
258.027	0.18	Win2	0.6296	0.004	Yes	2.919	-0.004	2.0	GoodResponse	1	0.178	257.205	5	26	Target	Win	True
258.205	0.3	Win2	0.6296	0.004	Yes	2.919	-0.004	2.0	GoodResponse	1	0.178	n/a	5	26	ButtonPress	Win	True
258.211	0.52	Win2	0.6296	n/a	Yes	2.919	n/a	n/a	GoodResponse	1	n/a	n/a	5	26	Blank	Win	True
258.729	1.45	Win2	0.6296	n/a	Yes	2.919	n/a	5.0	GoodResponse	1	0.024	257.753	5	26	Feedback	Win	True
260.183	2.919	Win2	0.6296	n/a	Yes	2.919	n/a	n/a	GoodResponse	1	0.0	n/a	5	26	ISIslide	Win	True
263.126	0.25	Lose2	0.6071	0.0	No	2.824	0.026	n/a	NoResponse	-1	n/a	n/a	4	27	Cue	Loss	True
263.376	4.05	Lose2	0.6071	0.0	No	2.824	0.0	n/a	NoResponse	-1	n/a	n/a	4	27	Fixation	Loss	True
267.422	0.19	Lose2	0.6071	0.004	No	2.824	-0.004	2.0	NoResponse	-1	0.222	266.644	4	27	Target	Loss	True
267.622	0.51	Lose2	0.6071	n/a	No	2.824	n/a	n/a	NoResponse	-1	n/a	n/a	4	27	Blank	Loss	True
267.644	0.3	Lose2	0.6071	0.004	No	2.824	-0.004	2.0	NoResponse	-1	0.222	n/a	4	27	ButtonPress	Loss	True
268.124	1.45	Lose2	0.6071	n/a	No	2.824	n/a	5.0	NoResponse	-1	0.043	267.167	4	27	Feedback	Loss	True
269.578	2.824	Lose2	0.6071	n/a	No	2.824	n/a	n/a	NoResponse	-1	0.0	n/a	4	27	ISIslide	Loss	True
272.42	0.25	Control	0.5861999999999999	0.0	No	2.83	0.02	n/a	NoResponse	0	n/a	n/a	4	28	Cue	Neutral	True
272.671	4.05	Control	0.5861999999999999	0.0	No	2.83	0.001	n/a	NoResponse	0	n/a	n/a	4	28	Fixation	Neutral	True
276.716	0.2	Control	0.5861999999999999	0.004	No	2.83	-0.004	2.0	NoResponse	0	0.224	275.94	4	28	Target	Neutral	True
276.917	0.5	Control	0.5861999999999999	n/a	No	2.83	n/a	n/a	NoResponse	0	n/a	n/a	4	28	Blank	Neutral	True
276.94	0.3	Control	0.5861999999999999	0.004	No	2.83	-0.004	2.0	NoResponse	0	0.224	n/a	4	28	ButtonPress	Neutral	True
277.418	1.45	Control	0.5861999999999999	n/a	No	2.83	n/a	5.0	NoResponse	0	0.017	276.435	4	28	Feedback	Neutral	True
278.873	2.83	Control	0.5861999999999999	n/a	No	2.83	n/a	n/a	NoResponse	0	0.0	n/a	4	28	ISIslide	Neutral	True
281.731	0.25	Lose2	0.5667	0.0	No	2.819	0.031	n/a	NoResponse	-1	n/a	n/a	3	29	Cue	Loss	True
281.982	3.95	Lose2	0.5667	0.0	No	2.819	0.001	n/a	NoResponse	-1	n/a	n/a	3	29	Fixation	Loss	True
285.927	0.21	Lose2	0.5667	0.004	No	2.819	-0.004	2.0	NoResponse	-1	0.46	285.387	3	29	Target	Loss	True
286.144	0.49	Lose2	0.5667	n/a	No	2.819	n/a	n/a	NoResponse	-1	n/a	n/a	3	29	Blank	Loss	True
286.387	0.3	Lose2	0.5667	0.004	No	2.819	-0.004	2.0	NoResponse	-1	0.46	n/a	3	29	ButtonPress	Loss	True
286.629	1.45	Lose2	0.5667	n/a	No	2.819	n/a	5.0	NoResponse	-1	0.026	285.655	3	29	Feedback	Loss	True
288.084	2.819	Lose2	0.5667	n/a	No	2.819	n/a	n/a	NoResponse	-1	0.0	n/a	3	29	ISIslide	Loss	True
290.925	0.25	Win2	0.5806	0.0	Yes	2.775	0.025	n/a	GoodResponse	1	n/a	n/a	4	30	Cue	Win	True
291.176	3.9	Win2	0.5806	0.0	Yes	2.775	0.001	n/a	GoodResponse	1	n/a	n/a	4	30	Fixation	Win	True
295.071	0.22	Win2	0.5806	0.004	Yes	2.775	-0.004	2.0	GoodResponse	1	0.202	294.273	4	30	Target	Win	True
295.273	0.3	Win2	0.5806	0.004	Yes	2.775	-0.004	2.0	GoodResponse	1	0.202	n/a	4	30	ButtonPress	Win	True
295.305	0.48	Win2	0.5806	n/a	Yes	2.775	n/a	n/a	GoodResponse	1	n/a	n/a	4	30	Blank	Win	True
295.773	1.45	Win2	0.5806	n/a	Yes	2.775	n/a	5.0	GoodResponse	1	0.006	294.779	4	30	Feedback	Win	True
297.228	2.775	Win2	0.5806	n/a	Yes	2.775	n/a	n/a	GoodResponse	1	0.0	n/a	4	30	ISIslide	Win	True
300.019	0.25	Lose2	0.5625	0.0	No	2.831	0.019	n/a	NoResponse	-1	n/a	n/a	3	31	Cue	Loss	True
300.27	4.05	Lose2	0.5625	0.0	No	2.831	0.001	2.0	NoResponse	-1	3.299	302.569	3	31	Fixation	Loss	True
303.569	0.3	Lose2	0.5625	0.0	No	2.831	0.001	2.0	NoResponse	-1	3.299	n/a	3	31	ButtonPress	Loss	True
304.315	0.23	Lose2	0.5625	0.004	No	2.831	-0.004	n/a	NoResponse	-1	n/a	n/a	3	31	Target	Loss	True
304.549	0.47	Lose2	0.5625	n/a	No	2.831	n/a	n/a	NoResponse	-1	n/a	n/a	3	31	Blank	Loss	True
305.018	1.45	Lose2	0.5625	n/a	No	2.831	n/a	5.0	NoResponse	-1	0.027	304.045	3	31	Feedback	Loss	True
306.472	2.831	Lose2	0.5625	n/a	No	2.831	n/a	n/a	NoResponse	-1	0.0	n/a	3	31	ISIslide	Loss	True
309.33	0.25	Lose2	0.5455	0.001	No	2.62	0.03	n/a	NoResponse	-1	n/a	n/a	2	32	Cue	Loss	True
309.581	4.15	Lose2	0.5455	0.0	No	2.62	0.001	n/a	NoResponse	-1	n/a	n/a	2	32	Fixation	Loss	True
313.727	0.24	Lose2	0.5455	0.003	No	2.62	-0.003	2.0	NoResponse	-1	0.357	313.084	2	32	Target	Loss	True
313.978	0.46	Lose2	0.5455	n/a	No	2.62	n/a	n/a	NoResponse	-1	n/a	n/a	2	32	Blank	Loss	True
314.084	0.3	Lose2	0.5455	0.003	No	2.62	-0.003	2.0	NoResponse	-1	0.357	n/a	2	32	ButtonPress	Loss	True
314.429	1.45	Lose2	0.5455	n/a	No	2.62	n/a	5.0	NoResponse	-1	0.03	313.459	2	32	Feedback	Loss	True
315.883	2.62	Lose2	0.5455	n/a	No	2.62	n/a	n/a	NoResponse	-1	0.0	n/a	2	32	ISIslide	Loss	True
318.525	0.25	Win2	0.5588000000000001	0.0	Yes	2.675	0.025	n/a	GoodResponse	1	n/a	n/a	3	33	Cue	Win	True
318.775	4.0	Win2	0.5588000000000001	0.0	Yes	2.675	0.0	n/a	GoodResponse	1	n/a	n/a	3	33	Fixation	Win	True
322.771	0.25	Win2	0.5588000000000001	0.004	Yes	2.675	-0.004	2.0	GoodResponse	1	0.206	321.977	3	33	Target	Win	True
322.977	0.3	Win2	0.5588000000000001	0.004	Yes	2.675	-0.004	2.0	GoodResponse	1	0.206	n/a	3	33	ButtonPress	Win	True
323.021	0.45	Win2	0.5588000000000001	n/a	Yes	2.675	n/a	n/a	GoodResponse	1	n/a	n/a	3	33	Blank	Win	True
323.473	1.45	Win2	0.5588000000000001	n/a	Yes	2.675	n/a	5.0	GoodResponse	1	0.01	322.483	3	33	Feedback	Win	True
324.927	2.675	Win2	0.5588000000000001	n/a	Yes	2.675	n/a	n/a	GoodResponse	1	0.0	n/a	3	33	ISIslide	Win	True
327.618	0.25	Lose2	0.5714	0.001	Yes	2.632	0.018	n/a	GoodResponse	0	n/a	n/a	3	34	Cue	AvoidedLoss	True
327.869	4.05	Lose2	0.5714	0.0	Yes	2.632	0.001	n/a	GoodResponse	0	n/a	n/a	3	34	Fixation	AvoidedLoss	True
331.915	0.26	Lose2	0.5714	0.003	Yes	2.632	-0.003	2.0	GoodResponse	0	0.188	331.103	3	34	Target	AvoidedLoss	True
332.103	0.3	Lose2	0.5714	0.003	Yes	2.632	-0.003	2.0	GoodResponse	0	0.188	n/a	3	34	ButtonPress	AvoidedLoss	True
332.182	0.44	Lose2	0.5714	n/a	Yes	2.632	n/a	n/a	GoodResponse	0	n/a	n/a	3	34	Blank	AvoidedLoss	True
332.617	1.45	Lose2	0.5714	n/a	Yes	2.632	n/a	5.0	GoodResponse	0	0.037	331.654	3	34	Feedback	AvoidedLoss	True
334.071	2.632	Lose2	0.5714	n/a	Yes	2.632	n/a	n/a	GoodResponse	0	0.0	n/a	3	34	ISIslide	AvoidedLoss	True
336.729	0.25	Lose2	0.5832999999999999	0.0	Yes	2.671	0.029	n/a	GoodResponse	0	n/a	n/a	3	35	Cue	AvoidedLoss	True
336.98	4.0	Lose2	0.5832999999999999	0.0	Yes	2.671	0.001	n/a	GoodResponse	0	n/a	n/a	3	35	Fixation	AvoidedLoss	True
340.975	0.27	Lose2	0.5832999999999999	0.004	Yes	2.671	-0.004	2.0	GoodResponse	0	0.175	340.15	3	35	Target	AvoidedLoss	True
341.15	0.3	Lose2	0.5832999999999999	0.004	Yes	2.671	-0.004	2.0	GoodResponse	0	0.175	n/a	3	35	ButtonPress	AvoidedLoss	True
341.259	0.43	Lose2	0.5832999999999999	n/a	Yes	2.671	n/a	n/a	GoodResponse	0	n/a	n/a	3	35	Blank	AvoidedLoss	True
341.677	1.45	Lose2	0.5832999999999999	n/a	Yes	2.671	n/a	5.0	GoodResponse	0	0.002	340.679	3	35	Feedback	AvoidedLoss	True
343.131	2.671	Lose2	0.5832999999999999	n/a	Yes	2.671	n/a	n/a	GoodResponse	0	0.0	n/a	3	35	ISIslide	AvoidedLoss	True
345.823	0.25	Control	0.5946	0.0	Yes	2.677	0.023	n/a	GoodResponse	0	n/a	n/a	3	36	Cue	Neutral	True
346.074	4.0	Control	0.5946	0.0	Yes	2.677	0.001	n/a	GoodResponse	0	n/a	n/a	3	36	Fixation	Neutral	True
350.069	0.28	Control	0.5946	0.004	Yes	2.677	-0.004	2.0	GoodResponse	0	0.203	349.272	3	36	Target	Neutral	True
350.272	0.3	Control	0.5946	0.004	Yes	2.677	-0.004	2.0	GoodResponse	0	0.203	n/a	3	36	ButtonPress	Neutral	True
350.353	0.42	Control	0.5946	n/a	Yes	2.677	n/a	n/a	GoodResponse	0	n/a	n/a	3	36	Blank	Neutral	True
350.771	1.45	Control	0.5946	n/a	Yes	2.677	n/a	5.0	GoodResponse	0	0.029	349.8	3	36	Feedback	Neutral	True
352.225	2.677	Control	0.5946	n/a	Yes	2.677	n/a	n/a	GoodResponse	0	0.0	n/a	3	36	ISIslide	Neutral	True
354.917	0.25	Win2	0.6053000000000001	0.0	Yes	2.883	0.017	n/a	GoodResponse	1	n/a	n/a	4	37	Cue	Win	True
355.167	4.0	Win2	0.6053000000000001	0.001	Yes	2.883	0.0	n/a	GoodResponse	1	n/a	n/a	4	37	Fixation	Win	True
359.163	0.29	Win2	0.6053000000000001	0.004	Yes	2.883	-0.004	2.0	GoodResponse	1	0.224	358.387	4	37	Target	Win	True
359.387	0.3	Win2	0.6053000000000001	0.004	Yes	2.883	-0.004	2.0	GoodResponse	1	0.224	n/a	4	37	ButtonPress	Win	True
359.464	0.41	Win2	0.6053000000000001	n/a	Yes	2.883	n/a	n/a	GoodResponse	1	n/a	n/a	4	37	Blank	Win	True
359.865	1.45	Win2	0.6053000000000001	n/a	Yes	2.883	n/a	5.0	GoodResponse	1	0.008	358.873	4	37	Feedback	Win	True
361.319	2.883	Win2	0.6053000000000001	n/a	Yes	2.883	n/a	n/a	GoodResponse	1	0.0	n/a	4	37	ISIslide	Win	True
364.228	0.25	Lose2	0.6154	0.0	Yes	2.822	0.028	n/a	GoodResponse	0	n/a	n/a	4	38	Cue	AvoidedLoss	True
364.479	3.95	Lose2	0.6154	0.0	Yes	2.822	0.001	n/a	GoodResponse	0	n/a	n/a	4	38	Fixation	AvoidedLoss	True
368.424	0.3	Lose2	0.6154	0.004	Yes	2.822	-0.004	2.0	GoodResponse	0	0.202	367.626	4	38	Target	AvoidedLoss	True
368.626	0.3	Lose2	0.6154	0.004	Yes	2.822	-0.004	2.0	GoodResponse	0	0.202	n/a	4	38	ButtonPress	AvoidedLoss	True
368.725	0.4	Lose2	0.6154	n/a	Yes	2.822	n/a	n/a	GoodResponse	0	n/a	n/a	4	38	Blank	AvoidedLoss	True
369.126	1.45	Lose2	0.6154	n/a	Yes	2.822	n/a	5.0	GoodResponse	0	0.015	368.141	4	38	Feedback	AvoidedLoss	True
370.58	2.822	Lose2	0.6154	n/a	Yes	2.822	n/a	n/a	GoodResponse	0	0.0	n/a	4	38	ISIslide	AvoidedLoss	True
373.422	0.25	Win2	0.625	0.0	Yes	2.978	0.022	n/a	GoodResponse	1	n/a	n/a	5	39	Cue	Win	True
373.673	4.1	Win2	0.625	0.0	Yes	2.978	0.001	n/a	GoodResponse	1	n/a	n/a	5	39	Fixation	Win	True
377.768	0.31	Win2	0.625	0.004	Yes	2.978	-0.004	2.0	GoodResponse	1	0.233	377.001	5	39	Target	Win	True
378.001	0.3	Win2	0.625	0.004	Yes	2.978	-0.004	2.0	GoodResponse	1	0.233	n/a	5	39	ButtonPress	Win	True
378.086	0.39	Win2	0.625	n/a	Yes	2.978	n/a	n/a	GoodResponse	1	n/a	n/a	5	39	Blank	Win	True
378.47	1.45	Win2	0.625	n/a	Yes	2.978	n/a	5.0	GoodResponse	1	0.037	377.507	5	39	Feedback	Win	True
379.925	2.978	Win2	0.625	n/a	Yes	2.978	n/a	n/a	GoodResponse	1	0.0	n/a	5	39	ISIslide	Win	True
382.917	0.25	Win2	0.6341	0.0	Yes	2.733	0.017	n/a	GoodResponse	1	n/a	n/a	6	40	Cue	Win	True
383.168	3.95	Win2	0.6341	0.0	Yes	2.733	0.001	n/a	GoodResponse	1	n/a	n/a	6	40	Fixation	Win	True
387.113	0.32	Win2	0.6341	0.004	Yes	2.733	-0.004	2.0	GoodResponse	1	0.186	386.299	6	40	Target	Win	True
387.299	0.3	Win2	0.6341	0.004	Yes	2.733	-0.004	2.0	GoodResponse	1	0.186	n/a	6	40	ButtonPress	Win	True
387.447	0.38	Win2	0.6341	n/a	Yes	2.733	n/a	n/a	GoodResponse	1	n/a	n/a	6	40	Blank	Win	True
387.815	1.45	Win2	0.6341	n/a	Yes	2.733	n/a	5.0	GoodResponse	1	0.009	386.824	6	40	Feedback	Win	True
389.269	2.733	Win2	0.6341	n/a	Yes	2.733	n/a	n/a	GoodResponse	1	0.0	n/a	6	40	ISIslide	Win	True
392.028	0.25	Win2	0.6429	0.0	Yes	2.772	0.028	n/a	GoodResponse	1	n/a	n/a	7	41	Cue	Win	True
392.278	3.9	Win2	0.6429	0.0	Yes	2.772	0.0	n/a	GoodResponse	1	n/a	n/a	7	41	Fixation	Win	True
396.19	0.33	Win2	0.6429	0.0	Yes	2.772	0.012	2.0	GoodResponse	1	0.221	395.411	7	41	Target	Win	True
396.411	0.3	Win2	0.6429	0.0	Yes	2.772	0.012	2.0	GoodResponse	1	0.221	n/a	7	41	ButtonPress	Win	True
396.508	0.37	Win2	0.6429	n/a	Yes	2.772	n/a	n/a	GoodResponse	1	n/a	n/a	7	41	Blank	Win	True
396.875	1.45	Win2	0.6429	n/a	Yes	2.772	n/a	5.0	GoodResponse	1	0.022	395.897	7	41	Feedback	Win	True
398.33	2.772	Win2	0.6429	n/a	Yes	2.772	n/a	n/a	GoodResponse	1	0.0	n/a	7	41	ISIslide	Win	True
401.122	0.25	Control	0.6512	0.0	Yes	2.928	0.022	n/a	GoodResponse	0	n/a	n/a	7	42	Cue	Neutral	True
401.372	3.85	Control	0.6512	0.0	Yes	2.928	0.0	n/a	GoodResponse	0	n/a	n/a	7	42	Fixation	Neutral	True
405.234	0.34	Control	0.6512	0.0	Yes	2.928	0.012	2.0	GoodResponse	0	0.199	404.433	7	42	Target	Neutral	True
405.433	0.3	Control	0.6512	0.0	Yes	2.928	0.012	2.0	GoodResponse	0	0.199	n/a	7	42	ButtonPress	Neutral	True
405.568	0.36	Control	0.6512	n/a	Yes	2.928	n/a	n/a	GoodResponse	0	n/a	n/a	7	42	Blank	Neutral	True
405.919	1.45	Control	0.6512	n/a	Yes	2.928	n/a	5.0	GoodResponse	0	0.002	404.921	7	42	Feedback	Neutral	True
407.374	2.928	Control	0.6512	n/a	Yes	2.928	n/a	n/a	GoodResponse	0	0.0	n/a	7	42	ISIslide	Neutral	True
410.316	0.25	Win2	0.6591	0.0	Yes	3.184	0.016	n/a	GoodResponse	1	n/a	n/a	8	43	Cue	Win	True
410.566	4.0	Win2	0.6591	0.001	Yes	3.184	0.0	n/a	GoodResponse	1	n/a	n/a	8	43	Fixation	Win	True
414.562	0.35	Win2	0.6591	0.004	Yes	3.184	-0.004	2.0	GoodResponse	1	0.207	413.769	8	43	Target	Win	True
414.769	0.3	Win2	0.6591	0.004	Yes	3.184	-0.004	2.0	GoodResponse	1	0.207	n/a	8	43	ButtonPress	Win	True
414.913	0.35	Win2	0.6591	n/a	Yes	3.184	n/a	n/a	GoodResponse	1	n/a	n/a	8	43	Blank	Win	True
415.264	1.45	Win2	0.6591	n/a	Yes	3.184	n/a	5.0	GoodResponse	1	0.023	414.287	8	43	Feedback	Win	True
416.718	3.184	Win2	0.6591	n/a	Yes	3.184	n/a	n/a	GoodResponse	1	0.0	n/a	8	43	ISIslide	Win	True
419.928	0.25	Win2	0.6667000000000001	0.0	Yes	2.972	0.028	n/a	GoodResponse	1	n/a	n/a	9	44	Cue	Win	True
420.179	4.0	Win2	0.6667000000000001	0.0	Yes	2.972	0.001	n/a	GoodResponse	1	n/a	n/a	9	44	Fixation	Win	True
424.174	0.35	Win2	0.6667000000000001	0.004	Yes	2.972	-0.004	2.0	GoodResponse	1	0.228	423.402	9	44	Target	Win	True
424.402	0.3	Win2	0.6667000000000001	0.004	Yes	2.972	-0.004	2.0	GoodResponse	1	0.228	n/a	9	44	ButtonPress	Win	True
424.525	0.35	Win2	0.6667000000000001	n/a	Yes	2.972	n/a	n/a	GoodResponse	1	n/a	n/a	9	44	Blank	Win	True
424.876	1.45	Win2	0.6667000000000001	n/a	Yes	2.972	n/a	5.0	GoodResponse	1	0.021	423.897	9	44	Feedback	Win	True
426.33	2.972	Win2	0.6667000000000001	n/a	Yes	2.972	n/a	n/a	GoodResponse	1	0.0	n/a	9	44	ISIslide	Win	True
429.323	0.25	Control	0.6739	0.0	Yes	2.877	0.023	n/a	GoodResponse	0	n/a	n/a	9	45	Cue	Neutral	True
429.573	4.1	Control	0.6739	0.0	Yes	2.877	0.0	n/a	GoodResponse	0	n/a	n/a	9	45	Fixation	Neutral	True
433.669	0.34	Control	0.6739	0.004	Yes	2.877	-0.004	2.0	GoodResponse	0	0.197	432.866	9	45	Target	Neutral	True
433.866	0.3	Control	0.6739	0.004	Yes	2.877	-0.004	2.0	GoodResponse	0	0.197	n/a	9	45	ButtonPress	Neutral	True
434.02	0.36	Control	0.6739	n/a	Yes	2.877	n/a	n/a	GoodResponse	0	n/a	n/a	9	45	Blank	Neutral	True
434.371	1.45	Control	0.6739	n/a	Yes	2.877	n/a	5.0	GoodResponse	0	0.037	433.408	9	45	Feedback	Neutral	True
435.825	2.877	Control	0.6739	n/a	Yes	2.877	n/a	n/a	GoodResponse	0	0.0	n/a	9	45	ISIslide	Neutral	True
438.717	0.25	Lose2	0.6809000000000001	0.0	Yes	3.383	0.017	n/a	GoodResponse	0	n/a	n/a	9	46	Cue	AvoidedLoss	True
438.968	4.0	Lose2	0.6809000000000001	0.0	Yes	3.383	0.001	n/a	GoodResponse	0	n/a	n/a	9	46	Fixation	AvoidedLoss	True
442.963	0.33	Lose2	0.6809000000000001	0.004	Yes	3.383	-0.004	2.0	GoodResponse	0	0.188	442.151	9	46	Target	AvoidedLoss	True
443.151	0.3	Lose2	0.6809000000000001	0.004	Yes	3.383	-0.004	2.0	GoodResponse	0	0.188	n/a	9	46	ButtonPress	AvoidedLoss	True
443.298	0.37	Lose2	0.6809000000000001	n/a	Yes	3.383	n/a	n/a	GoodResponse	0	n/a	n/a	9	46	Blank	AvoidedLoss	True
443.665	1.45	Lose2	0.6809000000000001	n/a	Yes	3.383	n/a	5.0	GoodResponse	0	0.012	442.677	9	46	Feedback	AvoidedLoss	True
445.12	3.383	Lose2	0.6809000000000001	n/a	Yes	3.383	n/a	n/a	GoodResponse	0	0.0	n/a	9	46	ISIslide	AvoidedLoss	True
448.53	0.25	Lose2	0.6875	0.0	Yes	2.67	0.03	n/a	GoodResponse	0	n/a	n/a	9	47	Cue	AvoidedLoss	True
448.781	4.0	Lose2	0.6875	0.0	Yes	2.67	0.001	n/a	GoodResponse	0	n/a	n/a	9	47	Fixation	AvoidedLoss	True
452.776	0.32	Lose2	0.6875	0.004	Yes	2.67	-0.004	2.0	GoodResponse	0	0.234	452.01	9	47	Target	AvoidedLoss	True
453.01	0.3	Lose2	0.6875	0.004	Yes	2.67	-0.004	2.0	GoodResponse	0	0.234	n/a	9	47	ButtonPress	AvoidedLoss	True
453.11	0.38	Lose2	0.6875	n/a	Yes	2.67	n/a	n/a	GoodResponse	0	n/a	n/a	9	47	Blank	AvoidedLoss	True
453.478	1.45	Lose2	0.6875	n/a	Yes	2.67	n/a	5.0	GoodResponse	0	0.006	452.484	9	47	Feedback	AvoidedLoss	True
454.932	2.67	Lose2	0.6875	n/a	Yes	2.67	n/a	n/a	GoodResponse	0	0.0	n/a	9	47	ISIslide	AvoidedLoss	True
457.624	0.25	Lose2	0.6939	0.0	Yes	3.026	0.024	n/a	GoodResponse	0	n/a	n/a	9	48	Cue	AvoidedLoss	True
457.875	3.95	Lose2	0.6939	0.0	Yes	3.026	0.001	n/a	GoodResponse	0	n/a	n/a	9	48	Fixation	AvoidedLoss	True
461.82	0.31	Lose2	0.6939	0.004	Yes	3.026	-0.004	2.0	GoodResponse	0	0.242	461.062	9	48	Target	AvoidedLoss	True
462.062	0.3	Lose2	0.6939	0.004	Yes	3.026	-0.004	2.0	GoodResponse	0	0.242	n/a	9	48	ButtonPress	AvoidedLoss	True
462.137	0.39	Lose2	0.6939	n/a	Yes	3.026	n/a	n/a	GoodResponse	0	n/a	n/a	9	48	Blank	AvoidedLoss	True
462.522	1.45	Lose2	0.6939	n/a	Yes	3.026	n/a	5.0	GoodResponse	0	0.033	461.555	9	48	Feedback	AvoidedLoss	True
463.976	3.026	Lose2	0.6939	n/a	Yes	3.026	n/a	n/a	GoodResponse	0	0.0	n/a	9	48	ISIslide	AvoidedLoss	True
467.019	0.25	Control	0.7	0.0	Yes	2.881	0.019	n/a	GoodResponse	0	n/a	n/a	9	49	Cue	Neutral	True
467.269	4.0	Control	0.7	0.0	Yes	2.881	0.0	n/a	GoodResponse	0	n/a	n/a	9	49	Fixation	Neutral	True
471.265	0.3	Control	0.7	0.004	Yes	2.881	-0.004	2.0	GoodResponse	0	0.206	470.471	9	49	Target	Neutral	True
471.471	0.3	Control	0.7	0.004	Yes	2.881	-0.004	2.0	GoodResponse	0	0.206	n/a	9	49	ButtonPress	Neutral	True
471.565	0.4	Control	0.7	n/a	Yes	2.881	n/a	n/a	GoodResponse	0	n/a	n/a	9	49	Blank	Neutral	True
471.967	1.45	Control	0.7	n/a	Yes	2.881	n/a	5.0	GoodResponse	0	0.007	470.974	9	49	Feedback	Neutral	True
473.421	2.881	Control	0.7	n/a	Yes	2.881	n/a	n/a	GoodResponse	0	0.0	n/a	9	49	ISIslide	Neutral	True
476.33	0.25	Control	0.7059000000000001	0.0	Yes	2.77	0.03	n/a	GoodResponse	0	n/a	n/a	9	50	Cue	Neutral	True
476.58	4.0	Control	0.7059000000000001	0.001	Yes	2.77	0.0	n/a	GoodResponse	0	n/a	n/a	9	50	Fixation	Neutral	True
480.576	0.29	Control	0.7059000000000001	0.004	Yes	2.77	-0.004	2.0	GoodResponse	0	0.207	479.783	9	50	Target	Neutral	True
480.783	0.3	Control	0.7059000000000001	0.004	Yes	2.77	-0.004	2.0	GoodResponse	0	0.207	n/a	9	50	ButtonPress	Neutral	True
480.877	0.41	Control	0.7059000000000001	n/a	Yes	2.77	n/a	n/a	GoodResponse	0	n/a	n/a	9	50	Blank	Neutral	True
481.278	1.45	Control	0.7059000000000001	n/a	Yes	2.77	n/a	5.0	GoodResponse	0	0.008	480.286	9	50	Feedback	Neutral	True
482.732	2.77	Control	0.7059000000000001	n/a	Yes	2.77	n/a	n/a	GoodResponse	0	0.0	n/a	9	50	ISIslide	Neutral	True
485.524	0.25	Control	0.7115	0.0	Yes	2.726	0.024	n/a	GoodResponse	0	n/a	n/a	9	51	Cue	Neutral	True
485.775	3.95	Control	0.7115	0.0	Yes	2.726	0.001	n/a	GoodResponse	0	n/a	n/a	9	51	Fixation	Neutral	True
489.72	0.28	Control	0.7115	0.004	Yes	2.726	-0.004	2.0	GoodResponse	0	0.218	488.938	9	51	Target	Neutral	True
489.938	0.3	Control	0.7115	0.004	Yes	2.726	-0.004	2.0	GoodResponse	0	0.218	n/a	9	51	ButtonPress	Neutral	True
490.004	0.42	Control	0.7115	n/a	Yes	2.726	n/a	n/a	GoodResponse	0	n/a	n/a	9	51	Blank	Neutral	True
490.422	1.45	Control	0.7115	n/a	Yes	2.726	n/a	5.0	GoodResponse	0	0.035	489.457	9	51	Feedback	Neutral	True
491.876	2.726	Control	0.7115	n/a	Yes	2.726	n/a	n/a	GoodResponse	0	0.0	n/a	9	51	ISIslide	Neutral	True
494.618	0.25	Control	0.7170000000000001	0.0	Yes	2.632	0.018	n/a	GoodResponse	0	n/a	n/a	9	52	Cue	Neutral	True
494.868	4.05	Control	0.7170000000000001	0.001	Yes	2.632	0.0	n/a	GoodResponse	0	n/a	n/a	9	52	Fixation	Neutral	True
498.914	0.27	Control	0.7170000000000001	0.004	Yes	2.632	-0.004	2.0	GoodResponse	0	0.171	498.085	9	52	Target	Neutral	True
499.085	0.3	Control	0.7170000000000001	0.004	Yes	2.632	-0.004	2.0	GoodResponse	0	0.171	n/a	9	52	ButtonPress	Neutral	True
499.198	0.43	Control	0.7170000000000001	n/a	Yes	2.632	n/a	n/a	GoodResponse	0	n/a	n/a	9	52	Blank	Neutral	True
499.616	1.45	Control	0.7170000000000001	n/a	Yes	2.632	n/a	5.0	GoodResponse	0	0.012	498.628	9	52	Feedback	Neutral	True
501.07	2.632	Control	0.7170000000000001	n/a	Yes	2.632	n/a	n/a	GoodResponse	0	0.0	n/a	9	52	ISIslide	Neutral	True
503.728	0.25	Win2	0.7222	0.0	Yes	2.922	0.028	n/a	GoodResponse	1	n/a	n/a	10	53	Cue	Win	True
503.979	4.05	Win2	0.7222	0.0	Yes	2.922	0.001	n/a	GoodResponse	1	n/a	n/a	10	53	Fixation	Win	True
508.024	0.26	Win2	0.7222	0.004	Yes	2.922	-0.004	2.0	GoodResponse	1	0.205	507.229	10	53	Target	Win	True
508.229	0.3	Win2	0.7222	0.004	Yes	2.922	-0.004	2.0	GoodResponse	1	0.205	n/a	10	53	ButtonPress	Win	True
508.292	0.44	Win2	0.7222	n/a	Yes	2.922	n/a	n/a	GoodResponse	1	n/a	n/a	10	53	Blank	Win	True
508.727	1.45	Win2	0.7222	n/a	Yes	2.922	n/a	5.0	GoodResponse	1	0.023	507.75	10	53	Feedback	Win	True
510.181	2.922	Win2	0.7222	n/a	Yes	2.922	n/a	n/a	GoodResponse	1	0.0	n/a	10	53	ISIslide	Win	True
513.123	0.25	Win2	0.7273000000000001	0.0	Yes	2.727	0.023	n/a	GoodResponse	1	n/a	n/a	11	54	Cue	Win	True
513.374	3.95	Win2	0.7273000000000001	0.0	Yes	2.727	0.001	n/a	GoodResponse	1	n/a	n/a	11	54	Fixation	Win	True
517.319	0.25	Win2	0.7273000000000001	0.004	Yes	2.727	-0.004	2.0	GoodResponse	1	0.186	516.505	11	54	Target	Win	True
517.505	0.3	Win2	0.7273000000000001	0.004	Yes	2.727	-0.004	2.0	GoodResponse	1	0.186	n/a	11	54	ButtonPress	Win	True
517.57	0.45	Win2	0.7273000000000001	n/a	Yes	2.727	n/a	n/a	GoodResponse	1	n/a	n/a	11	54	Blank	Win	True
518.021	1.45	Win2	0.7273000000000001	n/a	Yes	2.727	n/a	5.0	GoodResponse	1	0.046	517.067	11	54	Feedback	Win	True
519.475	2.727	Win2	0.7273000000000001	n/a	Yes	2.727	n/a	n/a	GoodResponse	1	0.0	n/a	11	54	ISIslide	Win	True
522.217	0.25	Control	0.7321	0.0	Yes	3.033	0.017	n/a	GoodResponse	0	n/a	n/a	11	55	Cue	Neutral	True
522.468	3.95	Control	0.7321	0.0	Yes	3.033	0.001	n/a	GoodResponse	0	n/a	n/a	11	55	Fixation	Neutral	True
526.413	0.24	Control	0.7321	0.004	Yes	3.033	-0.004	2.0	GoodResponse	0	0.196	525.609	11	55	Target	Neutral	True
526.609	0.3	Control	0.7321	0.004	Yes	3.033	-0.004	2.0	GoodResponse	0	0.196	n/a	11	55	ButtonPress	Neutral	True
526.664	0.46	Control	0.7321	n/a	Yes	3.033	n/a	n/a	GoodResponse	0	n/a	n/a	11	55	Blank	Neutral	True
527.115	1.45	Control	0.7321	n/a	Yes	3.033	n/a	5.0	GoodResponse	0	0.024	526.139	11	55	Feedback	Neutral	True
528.569	3.033	Control	0.7321	n/a	Yes	3.033	n/a	n/a	GoodResponse	0	0.0	n/a	11	55	ISIslide	Neutral	True
531.628	0.25	Control	0.7368000000000001	0.001	Yes	2.822	0.028	n/a	GoodResponse	0	n/a	n/a	11	56	Cue	Neutral	True
531.879	3.95	Control	0.7368000000000001	0.0	Yes	2.822	0.001	n/a	GoodResponse	0	n/a	n/a	11	56	Fixation	Neutral	True
535.824	0.23	Control	0.7368000000000001	0.004	Yes	2.822	-0.004	2.0	GoodResponse	0	0.213	535.037	11	56	Target	Neutral	True
536.037	0.3	Control	0.7368000000000001	0.004	Yes	2.822	-0.004	2.0	GoodResponse	0	0.213	n/a	11	56	ButtonPress	Neutral	True
536.058	0.47	Control	0.7368000000000001	n/a	Yes	2.822	n/a	n/a	GoodResponse	0	n/a	n/a	11	56	Blank	Neutral	True
536.526	1.45	Control	0.7368000000000001	n/a	Yes	2.822	n/a	5.0	GoodResponse	0	0.028	535.554	11	56	Feedback	Neutral	True
537.981	2.822	Control	0.7368000000000001	n/a	Yes	2.822	n/a	n/a	GoodResponse	0	0.0	n/a	11	56	ISIslide	Neutral	True
540.823	0.25	Control	0.7414000000000001	0.0	Yes	3.477	0.023	n/a	GoodResponse	0	n/a	n/a	11	57	Cue	Neutral	True
541.073	4.0	Control	0.7414000000000001	0.0	Yes	3.477	0.0	n/a	GoodResponse	0	n/a	n/a	11	57	Fixation	Neutral	True
545.069	0.22	Control	0.7414000000000001	0.004	Yes	3.477	-0.004	2.0	GoodResponse	0	0.207	544.276	11	57	Target	Neutral	True
545.276	0.3	Control	0.7414000000000001	0.004	Yes	3.477	-0.004	2.0	GoodResponse	0	0.207	n/a	11	57	ButtonPress	Neutral	True
545.303	0.48	Control	0.7414000000000001	n/a	Yes	3.477	n/a	n/a	GoodResponse	0	n/a	n/a	11	57	Blank	Neutral	True
545.771	1.45	Control	0.7414000000000001	n/a	Yes	3.477	n/a	5.0	GoodResponse	0	0.002	544.773	11	57	Feedback	Neutral	True
547.225	3.477	Control	0.7414000000000001	n/a	Yes	3.477	n/a	n/a	GoodResponse	0	0.0	n/a	11	57	ISIslide	Neutral	True
550.719	0.25	Win2	0.7288	0.0	No	2.731	0.019	n/a	NoResponse	0	n/a	n/a	11	58	Cue	MissedWin	True
550.97	4.05	Win2	0.7288	0.0	No	2.731	0.001	n/a	NoResponse	0	n/a	n/a	11	58	Fixation	MissedWin	True
555.015	0.21	Win2	0.7288	0.004	No	2.731	-0.004	2.0	NoResponse	0	0.227	554.242	11	58	Target	MissedWin	True
555.232	0.49	Win2	0.7288	n/a	No	2.731	n/a	n/a	NoResponse	0	n/a	n/a	11	58	Blank	MissedWin	True
555.242	0.3	Win2	0.7288	0.004	No	2.731	-0.004	2.0	NoResponse	0	0.227	n/a	11	58	ButtonPress	MissedWin	True
555.717	1.45	Win2	0.7288	n/a	No	2.731	n/a	5.0	NoResponse	0	0.008	554.725	11	58	Feedback	MissedWin	True
557.171	2.731	Win2	0.7288	n/a	No	2.731	n/a	n/a	NoResponse	0	0.0	n/a	11	58	ISIslide	MissedWin	True
559.913	0.25	Lose2	0.7167	0.0	No	2.687	0.013	n/a	NoResponse	-1	n/a	n/a	10	59	Cue	Loss	True
560.164	4.0	Lose2	0.7167	0.0	No	2.687	0.001	n/a	NoResponse	-1	n/a	n/a	10	59	Fixation	Loss	True
564.159	0.2	Lose2	0.7167	0.004	No	2.687	-0.004	2.0	NoResponse	-1	0.242	563.401	10	59	Target	Loss	True
564.36	0.5	Lose2	0.7167	n/a	No	2.687	n/a	n/a	NoResponse	-1	n/a	n/a	10	59	Blank	Loss	True
564.401	0.3	Lose2	0.7167	0.004	No	2.687	-0.004	2.0	NoResponse	-1	0.242	n/a	10	59	ButtonPress	Loss	True
564.861	1.45	Lose2	0.7167	n/a	No	2.687	n/a	5.0	NoResponse	-1	0.034	563.895	10	59	Feedback	Loss	True
566.315	2.687	Lose2	0.7167	n/a	No	2.687	n/a	n/a	NoResponse	-1	0.0	n/a	10	59	ISIslide	Loss	True
569.024	0.25	Control	0.7049	0.0	No	2.676	0.024	n/a	NoResponse	0	n/a	n/a	10	60	Cue	Neutral	True
569.274	4.0	Control	0.7049	0.0	No	2.676	0.0	n/a	NoResponse	0	n/a	n/a	10	60	Fixation	Neutral	True
573.27	0.19	Control	0.7049	0.004	No	2.676	-0.004	2.0	NoResponse	0	0.211	572.481	10	60	Target	Neutral	True
573.47	0.51	Control	0.7049	n/a	No	2.676	n/a	n/a	NoResponse	0	n/a	n/a	10	60	Blank	Neutral	True
573.481	0.3	Control	0.7049	0.004	No	2.676	-0.004	2.0	NoResponse	0	0.211	n/a	10	60	ButtonPress	Neutral	True
573.972	1.45	Control	0.7049	n/a	No	2.676	n/a	5.0	NoResponse	0	0.045	573.017	10	60	Feedback	Neutral	True
575.426	2.676	Control	0.7049	n/a	No	2.676	n/a	n/a	NoResponse	0	0.0	n/a	10	60	ISIslide	Neutral	True
578.117	0.25	Lose2	0.6934999999999999	0.001	No	2.983	0.017	n/a	NoResponse	-1	n/a	n/a	9	61	Cue	Loss	True
578.368	4.0	Lose2	0.6934999999999999	0.0	No	2.983	0.001	n/a	NoResponse	-1	n/a	n/a	9	61	Fixation	Loss	True
582.363	0.18	Lose2	0.6934999999999999	0.004	No	2.983	-0.004	2.0	NoResponse	-1	0.206	581.569	9	61	Target	Loss	True
582.547	0.52	Lose2	0.6934999999999999	n/a	No	2.983	n/a	n/a	NoResponse	-1	n/a	n/a	9	61	Blank	Loss	True
582.569	0.3	Lose2	0.6934999999999999	0.004	No	2.983	-0.004	2.0	NoResponse	-1	0.206	n/a	9	61	ButtonPress	Loss	True
583.066	1.45	Lose2	0.6934999999999999	n/a	No	2.983	n/a	5.0	NoResponse	-1	0.024	582.09	9	61	Feedback	Loss	True
584.52	2.983	Lose2	0.6934999999999999	n/a	No	2.983	n/a	n/a	NoResponse	-1	0.0	n/a	9	61	ISIslide	Loss	True
587.529	0.25	Lose2	0.6825	0.0	No	2.871	0.029	n/a	NoResponse	-1	n/a	n/a	8	62	Cue	Loss	True
587.78	3.9	Lose2	0.6825	0.0	No	2.871	0.001	n/a	NoResponse	-1	n/a	n/a	8	62	Fixation	Loss	True
591.675	0.17	Lose2	0.6825	0.004	No	2.871	-0.004	2.0	NoResponse	-1	0.222	590.897	8	62	Target	Loss	True
591.858	0.53	Lose2	0.6825	n/a	No	2.871	n/a	n/a	NoResponse	-1	n/a	n/a	8	62	Blank	Loss	True
591.897	0.3	Lose2	0.6825	0.004	No	2.871	-0.004	2.0	NoResponse	-1	0.222	n/a	8	62	ButtonPress	Loss	True
592.377	1.45	Lose2	0.6825	n/a	No	2.871	n/a	5.0	NoResponse	-1	0.03	591.407	8	62	Feedback	Loss	True
593.831	2.871	Lose2	0.6825	n/a	No	2.871	n/a	n/a	NoResponse	-1	0.0	n/a	8	62	ISIslide	Loss	True
596.723	0.25	Lose2	0.6718999999999999	0.0	No	2.627	0.023	n/a	PrematurePress	-1	n/a	n/a	7	63	Cue	Loss	True
596.974	4.05	Lose2	0.6718999999999999	0.0	No	2.627	0.001	n/a	PrematurePress	-1	n/a	n/a	7	63	Fixation	Loss	True
601.019	0.16	Lose2	0.6718999999999999	0.004	No	2.627	-0.004	2.0	PrematurePress	-1	0.044	600.063	7	63	Target	Loss	True
601.063	0.3	Lose2	0.6718999999999999	0.004	No	2.627	-0.004	2.0	PrematurePress	-1	0.044	n/a	7	63	ButtonPress	Loss	True
601.186	0.54	Lose2	0.6718999999999999	n/a	No	2.627	n/a	n/a	PrematurePress	-1	n/a	n/a	7	63	Blank	Loss	True
601.721	1.45	Lose2	0.6718999999999999	n/a	No	2.627	n/a	5.0	PrematurePress	-1	0.004	600.725	7	63	Feedback	Loss	True
603.176	2.627	Lose2	0.6718999999999999	n/a	No	2.627	n/a	n/a	PrematurePress	-1	0.0	n/a	7	63	ISIslide	Loss	True
605.817	0.25	Win2	0.6615000000000001	0.0	No	3.133	0.017	n/a	NoResponse	0	n/a	n/a	7	64	Cue	MissedWin	True
606.068	4.15	Win2	0.6615000000000001	0.0	No	3.133	0.001	n/a	NoResponse	0	n/a	n/a	7	64	Fixation	MissedWin	True
610.213	0.15	Win2	0.6615000000000001	0.004	No	3.133	-0.004	2.0	NoResponse	0	0.208	609.421	7	64	Target	MissedWin	True
610.364	0.55	Win2	0.6615000000000001	n/a	No	3.133	n/a	n/a	NoResponse	0	n/a	n/a	7	64	Blank	MissedWin	True
610.421	0.3	Win2	0.6615000000000001	0.004	No	3.133	-0.004	2.0	NoResponse	0	0.208	n/a	7	64	ButtonPress	MissedWin	True
610.915	1.45	Win2	0.6615000000000001	n/a	No	3.133	n/a	5.0	NoResponse	0	0.028	609.943	7	64	Feedback	MissedWin	True
612.37	3.133	Win2	0.6615000000000001	n/a	No	3.133	n/a	n/a	NoResponse	0	0.0	n/a	7	64	ISIslide	MissedWin	True
615.513	0.25	Control	0.6515000000000001	0.0	No	2.787	0.013	n/a	NoResponse	0	n/a	n/a	7	65	Cue	Neutral	True
615.763	4.0	Control	0.6515000000000001	0.0	No	2.787	0.0	n/a	NoResponse	0	n/a	n/a	7	65	Fixation	Neutral	True
619.759	0.15	Control	0.6515000000000001	0.004	No	2.787	-0.004	2.0	NoResponse	0	0.202	618.961	7	65	Target	Neutral	True
619.909	0.55	Control	0.6515000000000001	n/a	No	2.787	n/a	n/a	NoResponse	0	n/a	n/a	7	65	Blank	Neutral	True
619.961	0.3	Control	0.6515000000000001	0.004	No	2.787	-0.004	2.0	NoResponse	0	0.202	n/a	7	65	ButtonPress	Neutral	True
620.461	1.45	Control	0.6515000000000001	n/a	No	2.787	n/a	5.0	NoResponse	0	0.043	619.504	7	65	Feedback	Neutral	True
621.915	2.787	Control	0.6515000000000001	n/a	No	2.787	n/a	n/a	NoResponse	0	0.0	n/a	7	65	ISIslide	Neutral	True
624.723	0.25	Win2	0.6418	0.001	No	2.777	0.023	n/a	NoResponse	0	n/a	n/a	7	66	Cue	MissedWin	True
624.974	3.9	Win2	0.6418	0.0	No	2.777	0.001	n/a	NoResponse	0	n/a	n/a	7	66	Fixation	MissedWin	True
628.869	0.16	Win2	0.6418	0.004	No	2.777	-0.004	2.0	NoResponse	0	0.282	628.151	7	66	Target	MissedWin	True
629.036	0.54	Win2	0.6418	n/a	No	2.777	n/a	n/a	NoResponse	0	n/a	n/a	7	66	Blank	MissedWin	True
629.151	0.3	Win2	0.6418	0.004	No	2.777	-0.004	2.0	NoResponse	0	0.282	n/a	7	66	ButtonPress	MissedWin	True
629.571	1.45	Win2	0.6418	n/a	No	2.777	n/a	5.0	NoResponse	0	0.006	628.577	7	66	Feedback	MissedWin	True
631.026	2.777	Win2	0.6418	n/a	No	2.777	n/a	n/a	NoResponse	0	0.0	n/a	7	66	ISIslide	MissedWin	True
633.817	0.25	Control	0.6324000000000001	0.0	No	2.733	0.017	n/a	NoResponse	0	n/a	n/a	7	67	Cue	Neutral	True
634.068	3.95	Control	0.6324000000000001	0.0	No	2.733	0.001	n/a	NoResponse	0	n/a	n/a	7	67	Fixation	Neutral	True
638.013	0.17	Control	0.6324000000000001	0.004	No	2.733	-0.004	2.0	NoResponse	0	0.217	637.23	7	67	Target	Neutral	True
638.197	0.53	Control	0.6324000000000001	n/a	No	2.733	n/a	n/a	NoResponse	0	n/a	n/a	7	67	Blank	Neutral	True
638.23	0.3	Control	0.6324000000000001	0.004	No	2.733	-0.004	2.0	NoResponse	0	0.217	n/a	7	67	ButtonPress	Neutral	True
638.715	1.45	Control	0.6324000000000001	n/a	No	2.733	n/a	5.0	NoResponse	0	0.033	637.748	7	67	Feedback	Neutral	True
640.17	2.733	Control	0.6324000000000001	n/a	No	2.733	n/a	n/a	NoResponse	0	0.0	n/a	7	67	ISIslide	Neutral	True
642.928	0.25	Win2	0.6232	0.0	No	3.072	0.028	n/a	NoResponse	0	n/a	n/a	7	68	Cue	MissedWin	True
643.179	4.0	Win2	0.6232	0.0	No	3.072	0.001	n/a	NoResponse	0	n/a	n/a	7	68	Fixation	MissedWin	True
647.174	0.18	Win2	0.6232	0.004	No	3.072	-0.004	2.0	NoResponse	0	0.201	646.375	7	68	Target	MissedWin	True
647.358	0.52	Win2	0.6232	n/a	No	3.072	n/a	n/a	NoResponse	0	n/a	n/a	7	68	Blank	MissedWin	True
647.375	0.3	Win2	0.6232	0.004	No	3.072	-0.004	2.0	NoResponse	0	0.201	n/a	7	68	ButtonPress	MissedWin	True
647.876	1.45	Win2	0.6232	n/a	No	3.072	n/a	5.0	NoResponse	0	0.042	646.918	7	68	Feedback	MissedWin	True
649.33	3.072	Win2	0.6232	n/a	No	3.072	n/a	n/a	NoResponse	0	0.0	n/a	7	68	ISIslide	MissedWin	True
652.423	0.25	Win2	0.6143	0.0	No	3.227	0.023	n/a	NoResponse	0	n/a	n/a	7	69	Cue	MissedWin	True
652.674	3.95	Win2	0.6143	0.0	No	3.227	0.001	n/a	NoResponse	0	n/a	n/a	7	69	Fixation	MissedWin	True
656.619	0.19	Win2	0.6143	0.004	No	3.227	-0.004	2.0	NoResponse	0	0.228	655.847	7	69	Target	MissedWin	True
656.819	0.51	Win2	0.6143	n/a	No	3.227	n/a	n/a	NoResponse	0	n/a	n/a	7	69	Blank	MissedWin	True
656.847	0.3	Win2	0.6143	0.004	No	3.227	-0.004	2.0	NoResponse	0	0.228	n/a	7	69	ButtonPress	MissedWin	True
657.321	1.45	Win2	0.6143	n/a	No	3.227	n/a	5.0	NoResponse	0	0.012	656.333	7	69	Feedback	MissedWin	True
658.775	3.227	Win2	0.6143	n/a	No	3.227	n/a	n/a	NoResponse	0	0.0	n/a	7	69	ISIslide	MissedWin	True
662.018	0.25	Lose2	0.6056	0.0	No	3.032	0.018	n/a	NoResponse	-1	n/a	n/a	6	70	Cue	Loss	True
662.269	4.05	Lose2	0.6056	0.0	No	3.032	0.001	n/a	NoResponse	-1	n/a	n/a	6	70	Fixation	Loss	True
666.314	0.2	Lose2	0.6056	0.004	No	3.032	-0.004	2.0	NoResponse	-1	0.217	665.531	6	70	Target	Loss	True
666.515	0.5	Lose2	0.6056	n/a	No	3.032	n/a	n/a	NoResponse	-1	n/a	n/a	6	70	Blank	Loss	True
666.531	0.3	Lose2	0.6056	0.004	No	3.032	-0.004	2.0	NoResponse	-1	0.217	n/a	6	70	ButtonPress	Loss	True
667.017	1.45	Lose2	0.6056	n/a	No	3.032	n/a	5.0	NoResponse	-1	0.023	666.04	6	70	Feedback	Loss	True
668.471	3.032	Lose2	0.6056	n/a	No	3.032	n/a	n/a	NoResponse	-1	0.0	n/a	6	70	ISIslide	Loss	True
671.513	0.25	Win2	0.5972	0.0	No	2.737	0.013	n/a	NoResponse	0	n/a	n/a	6	71	Cue	MissedWin	True
671.764	4.05	Win2	0.5972	0.0	No	2.737	0.001	n/a	NoResponse	0	n/a	n/a	6	71	Fixation	MissedWin	True
675.809	0.21	Win2	0.5972	0.004	No	2.737	-0.004	2.0	NoResponse	0	0.223	675.032	6	71	Target	MissedWin	True
676.027	0.49	Win2	0.5972	n/a	No	2.737	n/a	n/a	NoResponse	0	n/a	n/a	6	71	Blank	MissedWin	True
676.032	0.3	Win2	0.5972	0.004	No	2.737	-0.004	2.0	NoResponse	0	0.223	n/a	6	71	ButtonPress	MissedWin	True
676.512	1.45	Win2	0.5972	n/a	No	2.737	n/a	5.0	NoResponse	0	0.04	675.552	6	71	Feedback	MissedWin	True
677.966	2.737	Win2	0.5972	n/a	No	2.737	n/a	n/a	NoResponse	0	0.0	n/a	6	71	ISIslide	MissedWin	True
680.724	0.25	Win2	0.6027	0.0	Yes	2.776	0.024	n/a	GoodResponse	1	n/a	n/a	7	72	Cue	Win	True
680.975	4.1	Win2	0.6027	0.0	Yes	2.776	0.001	n/a	GoodResponse	1	n/a	n/a	7	72	Fixation	Win	True
685.071	0.22	Win2	0.6027	0.003	Yes	2.776	-0.003	2.0	GoodResponse	1	0.196	684.267	7	72	Target	Win	True
685.267	0.3	Win2	0.6027	0.003	Yes	2.776	-0.003	2.0	GoodResponse	1	0.196	n/a	7	72	ButtonPress	Win	True
685.305	0.48	Win2	0.6027	n/a	Yes	2.776	n/a	n/a	GoodResponse	1	n/a	n/a	7	72	Blank	Win	True
685.773	1.45	Win2	0.6027	n/a	Yes	2.776	n/a	5.0	GoodResponse	1	0.048	684.821	7	72	Feedback	Win	True
687.227	2.776	Win2	0.6027	n/a	Yes	2.776	n/a	n/a	GoodResponse	1	0.0	n/a	7	72	ISIslide	Win	True
690.019	0.25	Win2	0.6081	0.0	Yes	2.681	0.019	n/a	GoodResponse	1	n/a	n/a	8	73	Cue	Win	True
690.269	4.0	Win2	0.6081	0.0	Yes	2.681	0.0	n/a	GoodResponse	1	n/a	n/a	8	73	Fixation	Win	True
694.265	0.23	Win2	0.6081	0.004	Yes	2.681	-0.004	2.0	GoodResponse	1	0.201	693.466	8	73	Target	Win	True
694.466	0.3	Win2	0.6081	0.004	Yes	2.681	-0.004	2.0	GoodResponse	1	0.201	n/a	8	73	ButtonPress	Win	True
694.499	0.47	Win2	0.6081	n/a	Yes	2.681	n/a	n/a	GoodResponse	1	n/a	n/a	8	73	Blank	Win	True
694.967	1.45	Win2	0.6081	n/a	Yes	2.681	n/a	5.0	GoodResponse	1	0.024	693.991	8	73	Feedback	Win	True
696.421	2.681	Win2	0.6081	n/a	Yes	2.681	n/a	n/a	GoodResponse	1	0.0	n/a	8	73	ISIslide	Win	True
699.129	0.25	Lose2	0.6133	0.0	Yes	2.621	0.029	n/a	GoodResponse	0	n/a	n/a	8	74	Cue	AvoidedLoss	True
699.38	4.05	Lose2	0.6133	0.0	Yes	2.621	0.001	n/a	GoodResponse	0	n/a	n/a	8	74	Fixation	AvoidedLoss	True
703.425	0.24	Lose2	0.6133	0.004	Yes	2.621	-0.004	2.0	GoodResponse	0	0.216	702.641	8	74	Target	AvoidedLoss	True
703.641	0.3	Lose2	0.6133	0.004	Yes	2.621	-0.004	2.0	GoodResponse	0	0.216	n/a	8	74	ButtonPress	AvoidedLoss	True
703.676	0.46	Lose2	0.6133	n/a	Yes	2.621	n/a	n/a	GoodResponse	0	n/a	n/a	8	74	Blank	AvoidedLoss	True
704.127	1.45	Lose2	0.6133	n/a	Yes	2.621	n/a	5.0	GoodResponse	0	0.034	703.161	8	74	Feedback	AvoidedLoss	True
705.582	2.621	Lose2	0.6133	n/a	Yes	2.621	n/a	n/a	GoodResponse	0	0.0	n/a	8	74	ISIslide	AvoidedLoss	True
708.223	0.25	Lose2	0.6184000000000001	0.0	Yes	2.927	0.023	n/a	GoodResponse	0	n/a	n/a	8	75	Cue	AvoidedLoss	True
708.474	3.95	Lose2	0.6184000000000001	0.0	Yes	2.927	0.001	n/a	GoodResponse	0	n/a	n/a	8	75	Fixation	AvoidedLoss	True
712.419	0.25	Lose2	0.6184000000000001	0.004	Yes	2.927	-0.004	2.0	GoodResponse	0	0.214	711.633	8	75	Target	AvoidedLoss	True
712.633	0.3	Lose2	0.6184000000000001	0.004	Yes	2.927	-0.004	2.0	GoodResponse	0	0.214	n/a	8	75	ButtonPress	AvoidedLoss	True
712.67	0.45	Lose2	0.6184000000000001	n/a	Yes	2.927	n/a	n/a	GoodResponse	0	n/a	n/a	8	75	Blank	AvoidedLoss	True
713.121	1.45	Lose2	0.6184000000000001	n/a	Yes	2.927	n/a	5.0	GoodResponse	0	0.016	712.137	8	75	Feedback	AvoidedLoss	True
714.575	2.927	Lose2	0.6184000000000001	n/a	Yes	2.927	n/a	n/a	GoodResponse	0	0.0	n/a	8	75	ISIslide	AvoidedLoss	True
717.518	0.25	Control	0.6103999999999999	0.0	No	3.232	0.018	n/a	NoResponse	0	n/a	n/a	8	76	Cue	Neutral	True
717.768	4.05	Control	0.6103999999999999	0.0	No	3.232	0.0	n/a	NoResponse	0	n/a	n/a	8	76	Fixation	Neutral	True
721.814	0.26	Control	0.6103999999999999	0.004	No	3.232	-0.004	2.0	NoResponse	0	0.335	721.149	8	76	Target	Neutral	True
722.081	0.44	Control	0.6103999999999999	n/a	No	3.232	n/a	n/a	NoResponse	0	n/a	n/a	8	76	Blank	Neutral	True
722.149	0.3	Control	0.6103999999999999	0.004	No	3.232	-0.004	2.0	NoResponse	0	0.335	n/a	8	76	ButtonPress	Neutral	True
722.516	1.45	Control	0.6103999999999999	n/a	No	3.232	n/a	5.0	NoResponse	0	0.036	721.552	8	76	Feedback	Neutral	True
723.97	3.232	Control	0.6103999999999999	n/a	No	3.232	n/a	n/a	NoResponse	0	0.0	n/a	8	76	ISIslide	Neutral	True
727.213	0.25	Lose2	0.6154	0.0	Yes	2.587	0.013	n/a	GoodResponse	0	n/a	n/a	8	77	Cue	AvoidedLoss	True
727.464	3.95	Lose2	0.6154	0.0	Yes	2.587	0.001	n/a	GoodResponse	0	n/a	n/a	8	77	Fixation	AvoidedLoss	True
731.409	0.27	Lose2	0.6154	0.004	Yes	2.587	-0.004	2.0	GoodResponse	0	0.185	730.594	8	77	Target	AvoidedLoss	True
731.594	0.3	Lose2	0.6154	0.004	Yes	2.587	-0.004	2.0	GoodResponse	0	0.185	n/a	8	77	ButtonPress	AvoidedLoss	True
731.693	0.43	Lose2	0.6154	n/a	Yes	2.587	n/a	n/a	GoodResponse	0	n/a	n/a	8	77	Blank	AvoidedLoss	True
732.111	1.45	Lose2	0.6154	n/a	Yes	2.587	n/a	5.0	GoodResponse	0	0.002	731.113	8	77	Feedback	AvoidedLoss	True
733.566	2.587	Lose2	0.6154	n/a	Yes	2.587	n/a	n/a	GoodResponse	0	0.0	n/a	8	77	ISIslide	AvoidedLoss	True
