onset	duration	cue_type	current_mean_accuracy	duration_error	is_hit	isi_adjusted	onset_delay	response	response_type	reward	rt	rt_time	total_reward	trial_number	trial_phase	trial_type	one_press
11.108	0.25	Control	1.0	0.0	Yes	2.942	0.008	n/a	GoodResponse	0	n/a	n/a	0	0	Cue	Neutral	True
11.358	3.85	Control	1.0	0.0	Yes	2.942	0.0	n/a	GoodResponse	0	n/a	n/a	0	0	Fixation	Neutral	True
15.22	0.4	Control	1.0	0.0	Yes	2.942	0.012	4.0	GoodResponse	0	0.242	14.462	0	0	Target	Neutral	True
15.462	0.3	Control	1.0	0.0	Yes	2.942	0.012	4.0	GoodResponse	0	0.242	n/a	0	0	ButtonPress	Neutral	True
15.604	0.3	Control	1.0	n/a	Yes	2.942	n/a	n/a	GoodResponse	0	n/a	n/a	0	0	Blank	Neutral	True
15.905	1.45	Control	1.0	n/a	Yes	2.942	n/a	5.0	GoodResponse	0	0.022	14.927	0	0	Feedback	Neutral	True
17.36	2.942	Control	1.0	n/a	Yes	2.942	n/a	n/a	GoodResponse	0	0.0	n/a	0	0	ISIslide	Neutral	True
20.319	0.25	Lose2	1.0	0.0	Yes	2.781	0.019	n/a	GoodResponse	0	n/a	n/a	0	1	Cue	AvoidedLoss	True
20.569	4.0	Lose2	1.0	0.0	Yes	2.781	0.0	n/a	GoodResponse	0	n/a	n/a	0	1	Fixation	AvoidedLoss	True
24.565	0.39	Lose2	1.0	0.004	Yes	2.781	-0.004	4.0	GoodResponse	0	0.217	23.782	0	1	Target	AvoidedLoss	True
24.782	0.3	Lose2	1.0	0.004	Yes	2.781	-0.004	4.0	GoodResponse	0	0.217	n/a	0	1	ButtonPress	AvoidedLoss	True
24.966	0.31	Lose2	1.0	n/a	Yes	2.781	n/a	n/a	GoodResponse	0	n/a	n/a	0	1	Blank	AvoidedLoss	True
25.267	1.45	Lose2	1.0	n/a	Yes	2.781	n/a	5.0	GoodResponse	0	0.026	24.293	0	1	Feedback	AvoidedLoss	True
26.721	2.781	Lose2	1.0	n/a	Yes	2.781	n/a	n/a	GoodResponse	0	0.0	n/a	0	1	ISIslide	AvoidedLoss	True
29.53	0.25	Control	1.0	0.0	Yes	2.57	0.03	n/a	GoodResponse	0	n/a	n/a	0	2	Cue	Neutral	True
29.78	4.1	Control	1.0	0.0	Yes	2.57	0.0	n/a	GoodResponse	0	n/a	n/a	0	2	Fixation	Neutral	True
33.876	0.38	Control	1.0	0.004	Yes	2.57	-0.004	4.0	GoodResponse	0	0.246	33.122	0	2	Target	Neutral	True
34.122	0.3	Control	1.0	0.004	Yes	2.57	-0.004	4.0	GoodResponse	0	0.246	n/a	0	2	ButtonPress	Neutral	True
34.26	0.32	Control	1.0	n/a	Yes	2.57	n/a	n/a	GoodResponse	0	n/a	n/a	0	2	Blank	Neutral	True
34.578	1.45	Control	1.0	n/a	Yes	2.57	n/a	5.0	GoodResponse	0	0.031	33.609	0	2	Feedback	Neutral	True
36.032	2.57	Control	1.0	n/a	Yes	2.57	n/a	n/a	GoodResponse	0	0.0	n/a	0	2	ISIslide	Neutral	True
38.623	0.25	Win2	0.75	0.001	No	2.827	0.023	n/a	NoResponse	0	n/a	n/a	0	3	Cue	MissedWin	True
38.874	3.95	Win2	0.75	0.0	No	2.827	0.001	n/a	NoResponse	0	n/a	n/a	0	3	Fixation	MissedWin	True
42.819	0.37	Win2	0.75	0.004	No	2.827	-0.004	4.0	NoResponse	0	0.48	42.299	0	3	Target	MissedWin	True
43.204	0.33	Win2	0.75	n/a	No	2.827	n/a	n/a	NoResponse	0	n/a	n/a	0	3	Blank	MissedWin	True
43.299	0.3	Win2	0.75	0.004	No	2.827	-0.004	4.0	NoResponse	0	0.48	n/a	0	3	ButtonPress	MissedWin	True
43.521	1.45	Win2	0.75	n/a	No	2.827	n/a	5.0	NoResponse	0	0.015	42.536	0	3	Feedback	MissedWin	True
44.976	2.827	Win2	0.75	n/a	No	2.827	n/a	n/a	NoResponse	0	0.0	n/a	0	3	ISIslide	MissedWin	True
47.818	0.25	Win2	0.8	0.0	Yes	3.282	0.018	n/a	GoodResponse	1	n/a	n/a	1	4	Cue	Win	True
48.068	4.0	Win2	0.8	0.001	Yes	3.282	0.0	n/a	GoodResponse	1	n/a	n/a	1	4	Fixation	Win	True
52.064	0.36	Win2	0.8	0.004	Yes	3.282	-0.004	4.0	GoodResponse	1	0.237	51.301	1	4	Target	Win	True
52.301	0.3	Win2	0.8	0.004	Yes	3.282	-0.004	4.0	GoodResponse	1	0.237	n/a	1	4	ButtonPress	Win	True
52.432	0.34	Win2	0.8	n/a	Yes	3.282	n/a	n/a	GoodResponse	1	n/a	n/a	1	4	Blank	Win	True
52.766	1.45	Win2	0.8	n/a	Yes	3.282	n/a	5.0	GoodResponse	1	0.038	51.804	1	4	Feedback	Win	True
54.22	3.282	Win2	0.8	n/a	Yes	3.282	n/a	n/a	GoodResponse	1	0.0	n/a	1	4	ISIslide	Win	True
57.53	0.25	Win2	0.6667000000000001	0.0	No	2.77	0.03	n/a	PrematurePress	0	n/a	n/a	1	5	Cue	MissedWin	True
57.781	4.0	Win2	0.6667000000000001	0.0	No	2.77	0.001	n/a	PrematurePress	0	n/a	n/a	1	5	Fixation	MissedWin	True
61.776	0.35	Win2	0.6667000000000001	0.004	No	2.77	-0.004	4.0	PrematurePress	0	0.066	60.842	1	5	Target	MissedWin	True
61.842	0.3	Win2	0.6667000000000001	0.004	No	2.77	-0.004	4.0	PrematurePress	0	0.066	n/a	1	5	ButtonPress	MissedWin	True
62.127	0.35	Win2	0.6667000000000001	n/a	No	2.77	n/a	n/a	PrematurePress	0	n/a	n/a	1	5	Blank	MissedWin	True
62.478	1.45	Win2	0.6667000000000001	n/a	No	2.77	n/a	5.0	PrematurePress	0	0.034	61.512	1	5	Feedback	MissedWin	True
63.933	2.77	Win2	0.6667000000000001	n/a	No	2.77	n/a	n/a	PrematurePress	0	0.0	n/a	1	5	ISIslide	MissedWin	True
66.724	0.25	Lose2	0.5714	0.001	No	2.726	0.024	n/a	NoResponse	-1	n/a	n/a	0	6	Cue	Loss	True
66.975	3.95	Lose2	0.5714	0.0	No	2.726	0.001	n/a	NoResponse	-1	n/a	n/a	0	6	Fixation	Loss	True
70.92	0.34	Lose2	0.5714	0.004	No	2.726	-0.004	4.0	NoResponse	-1	0.368	70.288	0	6	Target	Loss	True
71.271	0.36	Lose2	0.5714	n/a	No	2.726	n/a	n/a	NoResponse	-1	n/a	n/a	0	6	Blank	Loss	True
71.288	0.3	Lose2	0.5714	0.004	No	2.726	-0.004	4.0	NoResponse	-1	0.368	n/a	0	6	ButtonPress	Loss	True
71.622	1.45	Lose2	0.5714	n/a	No	2.726	n/a	5.0	NoResponse	-1	0.012	70.634	0	6	Feedback	Loss	True
73.077	2.726	Lose2	0.5714	n/a	No	2.726	n/a	n/a	NoResponse	-1	0.0	n/a	0	6	ISIslide	Loss	True
75.818	0.25	Lose2	0.625	0.0	Yes	4.032	0.018	n/a	GoodResponse	0	n/a	n/a	0	7	Cue	AvoidedLoss	True
76.069	4.05	Lose2	0.625	0.0	Yes	4.032	0.001	n/a	GoodResponse	0	n/a	n/a	0	7	Fixation	AvoidedLoss	True
80.115	0.35	Lose2	0.625	0.003	Yes	4.032	-0.003	4.0	GoodResponse	0	0.24	79.355	0	7	Target	AvoidedLoss	True
80.355	0.3	Lose2	0.625	0.003	Yes	4.032	-0.003	4.0	GoodResponse	0	0.24	n/a	0	7	ButtonPress	AvoidedLoss	True
80.466	0.35	Lose2	0.625	n/a	Yes	4.032	n/a	n/a	GoodResponse	0	n/a	n/a	0	7	Blank	AvoidedLoss	True
80.817	1.45	Lose2	0.625	n/a	Yes	4.032	n/a	5.0	GoodResponse	0	0.037	79.854	0	7	Feedback	AvoidedLoss	True
82.271	4.032	Lose2	0.625	n/a	Yes	4.032	n/a	n/a	GoodResponse	0	0.0	n/a	0	7	ISIslide	AvoidedLoss	True
86.317	0.25	Lose2	0.6667000000000001	0.0	Yes	3.033	0.017	n/a	GoodResponse	0	n/a	n/a	0	8	Cue	AvoidedLoss	True
86.567	3.95	Lose2	0.6667000000000001	0.0	Yes	3.033	0.0	n/a	GoodResponse	0	n/a	n/a	0	8	Fixation	AvoidedLoss	True
90.512	0.36	Lose2	0.6667000000000001	0.005	Yes	3.033	-0.005	4.0	GoodResponse	0	0.242	89.754	0	8	Target	AvoidedLoss	True
90.754	0.3	Lose2	0.6667000000000001	0.005	Yes	3.033	-0.005	4.0	GoodResponse	0	0.242	n/a	0	8	ButtonPress	AvoidedLoss	True
90.88	0.34	Lose2	0.6667000000000001	n/a	Yes	3.033	n/a	n/a	GoodResponse	0	n/a	n/a	0	8	Blank	AvoidedLoss	True
91.215	1.45	Lose2	0.6667000000000001	n/a	Yes	3.033	n/a	5.0	GoodResponse	0	0.029	90.244	0	8	Feedback	AvoidedLoss	True
92.669	3.033	Lose2	0.6667000000000001	n/a	Yes	3.033	n/a	n/a	GoodResponse	0	0.0	n/a	0	8	ISIslide	AvoidedLoss	True
95.728	0.25	Lose2	0.6	0.0	No	3.122	0.028	n/a	NoResponse	-1	n/a	n/a	-1	9	Cue	Loss	False
95.979	3.95	Lose2	0.6	0.0	No	3.122	0.001	4.0	NoResponse	-1	0.066	95.045	-1	9	Fixation	Loss	False
96.045	0.3	Lose2	0.6	0.0	No	3.122	0.001	4.0	NoResponse	-1	0.066	n/a	-1	9	ButtonPress	Loss	False
99.924	0.35	Lose2	0.6	0.004	No	3.122	-0.004	4.0	NoResponse	-1	0.362	99.286	-1	9	Target	Loss	False
100.275	0.35	Lose2	0.6	n/a	No	3.122	n/a	n/a	NoResponse	-1	n/a	n/a	-1	9	Blank	Loss	False
100.286	0.3	Lose2	0.6	0.004	No	3.122	-0.004	4.0	NoResponse	-1	0.362	n/a	-1	9	ButtonPress	Loss	False
100.626	1.45	Lose2	0.6	n/a	No	3.122	n/a	5.0	NoResponse	-1	0.033	99.659	-1	9	Feedback	Loss	False
102.08	3.122	Lose2	0.6	n/a	No	3.122	n/a	n/a	NoResponse	-1	0.0	n/a	-1	9	ISIslide	Loss	False
105.223	0.25	Control	0.6364	0.0	Yes	3.277	0.023	n/a	GoodResponse	0	n/a	n/a	-1	10	Cue	Neutral	False
105.474	4.0	Control	0.6364	0.0	Yes	3.277	0.001	4.0	GoodResponse	0	3.67	108.144	-1	10	Fixation	Neutral	False
109.144	0.3	Control	0.6364	0.0	Yes	3.277	0.001	4.0	GoodResponse	0	3.67	n/a	-1	10	ButtonPress	Neutral	False
109.469	0.36	Control	0.6364	0.004	Yes	3.277	-0.004	4.0	GoodResponse	0	0.247	108.716	-1	10	Target	Neutral	False
109.716	0.3	Control	0.6364	0.004	Yes	3.277	-0.004	4.0	GoodResponse	0	0.247	n/a	-1	10	ButtonPress	Neutral	False
109.837	0.34	Control	0.6364	n/a	Yes	3.277	n/a	n/a	GoodResponse	0	n/a	n/a	-1	10	Blank	Neutral	False
110.171	1.45	Control	0.6364	n/a	Yes	3.277	n/a	5.0	GoodResponse	0	0.048	109.219	-1	10	Feedback	Neutral	False
111.626	3.277	Control	0.6364	n/a	Yes	3.277	n/a	n/a	GoodResponse	0	0.0	n/a	-1	10	ISIslide	Neutral	False
114.919	0.25	Lose2	0.6667000000000001	0.0	Yes	2.731	0.019	n/a	GoodResponse	0	n/a	n/a	-1	11	Cue	AvoidedLoss	True
115.17	4.05	Lose2	0.6667000000000001	0.0	Yes	2.731	0.001	n/a	GoodResponse	0	n/a	n/a	-1	11	Fixation	AvoidedLoss	True
119.215	0.37	Lose2	0.6667000000000001	0.004	Yes	2.731	-0.004	4.0	GoodResponse	0	0.286	118.501	-1	11	Target	AvoidedLoss	True
119.501	0.3	Lose2	0.6667000000000001	0.004	Yes	2.731	-0.004	4.0	GoodResponse	0	0.286	n/a	-1	11	ButtonPress	AvoidedLoss	True
119.6	0.33	Lose2	0.6667000000000001	n/a	Yes	2.731	n/a	n/a	GoodResponse	0	n/a	n/a	-1	11	Blank	AvoidedLoss	True
119.917	1.45	Lose2	0.6667000000000001	n/a	Yes	2.731	n/a	5.0	GoodResponse	0	0.009	118.926	-1	11	Feedback	AvoidedLoss	True
121.372	2.731	Lose2	0.6667000000000001	n/a	Yes	2.731	n/a	n/a	GoodResponse	0	0.0	n/a	-1	11	ISIslide	AvoidedLoss	True
124.13	0.25	Control	0.6923	0.0	Yes	2.97	0.03	n/a	GoodResponse	0	n/a	n/a	-1	12	Cue	Neutral	True
124.381	3.9	Control	0.6923	0.0	Yes	2.97	0.001	n/a	GoodResponse	0	n/a	n/a	-1	12	Fixation	Neutral	True
128.276	0.36	Control	0.6923	0.004	Yes	2.97	-0.004	4.0	GoodResponse	0	0.225	127.501	-1	12	Target	Neutral	True
128.501	0.3	Control	0.6923	0.004	Yes	2.97	-0.004	4.0	GoodResponse	0	0.225	n/a	-1	12	ButtonPress	Neutral	True
128.644	0.34	Control	0.6923	n/a	Yes	2.97	n/a	n/a	GoodResponse	0	n/a	n/a	-1	12	Blank	Neutral	True
128.978	1.45	Control	0.6923	n/a	Yes	2.97	n/a	5.0	GoodResponse	0	0.021	127.999	-1	12	Feedback	Neutral	True
130.432	2.97	Control	0.6923	n/a	Yes	2.97	n/a	n/a	GoodResponse	0	0.0	n/a	-1	12	ISIslide	Neutral	True
133.425	0.25	Control	0.6429	0.0	No	2.775	0.025	n/a	NoResponse	0	n/a	n/a	-1	13	Cue	Neutral	True
133.675	4.0	Control	0.6429	0.0	No	2.775	0.0	n/a	NoResponse	0	n/a	n/a	-1	13	Fixation	Neutral	True
137.671	0.35	Control	0.6429	0.004	No	2.775	-0.004	4.0	NoResponse	0	0.569	137.24	-1	13	Target	Neutral	True
138.022	0.35	Control	0.6429	n/a	No	2.775	n/a	n/a	NoResponse	0	n/a	n/a	-1	13	Blank	Neutral	True
138.24	0.3	Control	0.6429	0.004	No	2.775	-0.004	4.0	NoResponse	0	0.569	n/a	-1	13	ButtonPress	Neutral	True
138.373	1.45	Control	0.6429	n/a	No	2.775	n/a	5.0	NoResponse	0	0.041	137.414	-1	13	Feedback	Neutral	True
139.827	2.775	Control	0.6429	n/a	No	2.775	n/a	n/a	NoResponse	0	0.0	n/a	-1	13	ISIslide	Neutral	True
142.619	0.25	Win2	0.6	0.0	No	2.681	0.019	n/a	NoResponse	0	n/a	n/a	-1	14	Cue	MissedWin	True
142.87	4.1	Win2	0.6	0.0	No	2.681	0.001	n/a	NoResponse	0	n/a	n/a	-1	14	Fixation	MissedWin	True
146.965	0.36	Win2	0.6	0.004	No	2.681	-0.004	4.0	NoResponse	0	0.433	146.398	-1	14	Target	MissedWin	True
147.333	0.34	Win2	0.6	n/a	No	2.681	n/a	n/a	NoResponse	0	n/a	n/a	-1	14	Blank	MissedWin	True
147.398	0.3	Win2	0.6	0.004	No	2.681	-0.004	4.0	NoResponse	0	0.433	n/a	-1	14	ButtonPress	MissedWin	True
147.667	1.45	Win2	0.6	n/a	No	2.681	n/a	5.0	NoResponse	0	0.016	146.683	-1	14	Feedback	MissedWin	True
149.122	2.681	Win2	0.6	n/a	No	2.681	n/a	n/a	NoResponse	0	0.0	n/a	-1	14	ISIslide	MissedWin	True
151.83	0.25	Control	0.625	0.0	Yes	2.97	0.03	n/a	GoodResponse	0	n/a	n/a	-1	15	Cue	Neutral	True
152.08	4.0	Control	0.625	0.001	Yes	2.97	0.0	n/a	GoodResponse	0	n/a	n/a	-1	15	Fixation	Neutral	True
156.076	0.37	Control	0.625	0.004	Yes	2.97	-0.004	4.0	GoodResponse	0	0.297	155.373	-1	15	Target	Neutral	True
156.373	0.3	Control	0.625	0.004	Yes	2.97	-0.004	4.0	GoodResponse	0	0.297	n/a	-1	15	ButtonPress	Neutral	True
156.46	0.33	Control	0.625	n/a	Yes	2.97	n/a	n/a	GoodResponse	0	n/a	n/a	-1	15	Blank	Neutral	True
156.778	1.45	Control	0.625	n/a	Yes	2.97	n/a	5.0	GoodResponse	0	0.027	155.805	-1	15	Feedback	Neutral	True
158.232	2.97	Control	0.625	n/a	Yes	2.97	n/a	n/a	GoodResponse	0	0.0	n/a	-1	15	ISIslide	Neutral	True
161.225	0.25	Win2	0.6470999999999999	0.0	Yes	2.875	0.025	n/a	GoodResponse	1	n/a	n/a	0	16	Cue	Win	True
161.475	4.0	Win2	0.6470999999999999	0.0	Yes	2.875	0.0	n/a	GoodResponse	1	n/a	n/a	0	16	Fixation	Win	True
165.471	0.38	Win2	0.6470999999999999	0.004	Yes	2.875	-0.004	4.0	GoodResponse	1	0.252	164.723	0	16	Target	Win	True
165.723	0.3	Win2	0.6470999999999999	0.004	Yes	2.875	-0.004	4.0	GoodResponse	1	0.252	n/a	0	16	ButtonPress	Win	True
165.855	0.32	Win2	0.6470999999999999	n/a	Yes	2.875	n/a	n/a	GoodResponse	1	n/a	n/a	0	16	Blank	Win	True
166.173	1.45	Win2	0.6470999999999999	n/a	Yes	2.875	n/a	5.0	GoodResponse	1	0.046	165.219	0	16	Feedback	Win	True
167.627	2.875	Win2	0.6470999999999999	n/a	Yes	2.875	n/a	n/a	GoodResponse	1	0.0	n/a	0	16	ISIslide	Win	True
170.519	0.25	Lose2	0.6667000000000001	0.0	Yes	2.731	0.019	n/a	GoodResponse	0	n/a	n/a	0	17	Cue	AvoidedLoss	False
170.77	3.95	Lose2	0.6667000000000001	0.0	Yes	2.731	0.001	4.0	GoodResponse	0	2.953	172.723	0	17	Fixation	AvoidedLoss	False
173.723	0.3	Lose2	0.6667000000000001	0.0	Yes	2.731	0.001	4.0	GoodResponse	0	2.953	n/a	0	17	ButtonPress	AvoidedLoss	False
174.715	0.39	Lose2	0.6667000000000001	0.004	Yes	2.731	-0.004	4.0	GoodResponse	0	0.266	173.981	0	17	Target	AvoidedLoss	False
174.981	0.3	Lose2	0.6667000000000001	0.004	Yes	2.731	-0.004	4.0	GoodResponse	0	0.266	n/a	0	17	ButtonPress	AvoidedLoss	False
175.116	0.31	Lose2	0.6667000000000001	n/a	Yes	2.731	n/a	n/a	GoodResponse	0	n/a	n/a	0	17	Blank	AvoidedLoss	False
175.417	1.45	Lose2	0.6667000000000001	n/a	Yes	2.731	n/a	5.0	GoodResponse	0	0.022	174.439	0	17	Feedback	AvoidedLoss	False
176.872	2.731	Lose2	0.6667000000000001	n/a	Yes	2.731	n/a	n/a	GoodResponse	0	0.0	n/a	0	17	ISIslide	AvoidedLoss	False
179.63	0.25	Lose2	0.6842	0.0	Yes	2.72	0.03	n/a	GoodResponse	0	n/a	n/a	0	18	Cue	AvoidedLoss	True
179.881	4.05	Lose2	0.6842	0.0	Yes	2.72	0.001	n/a	GoodResponse	0	n/a	n/a	0	18	Fixation	AvoidedLoss	True
183.926	0.38	Lose2	0.6842	0.004	Yes	2.72	-0.004	4.0	GoodResponse	0	0.337	183.263	0	18	Target	AvoidedLoss	True
184.263	0.3	Lose2	0.6842	0.004	Yes	2.72	-0.004	4.0	GoodResponse	0	0.337	n/a	0	18	ButtonPress	AvoidedLoss	True
184.311	0.32	Lose2	0.6842	n/a	Yes	2.72	n/a	n/a	GoodResponse	0	n/a	n/a	0	18	Blank	AvoidedLoss	True
184.628	1.45	Lose2	0.6842	n/a	Yes	2.72	n/a	5.0	GoodResponse	0	0.03	183.658	0	18	Feedback	AvoidedLoss	True
186.082	2.72	Lose2	0.6842	n/a	Yes	2.72	n/a	n/a	GoodResponse	0	0.0	n/a	0	18	ISIslide	AvoidedLoss	True
188.824	0.25	Control	0.65	0.0	No	2.926	0.024	n/a	NoResponse	0	n/a	n/a	0	19	Cue	Neutral	True
189.075	3.95	Control	0.65	0.0	No	2.926	0.001	n/a	NoResponse	0	n/a	n/a	0	19	Fixation	Neutral	True
193.02	0.37	Control	0.65	0.004	No	2.926	-0.004	4.0	NoResponse	0	0.66	192.68	0	19	Target	Neutral	True
193.404	0.33	Control	0.65	n/a	No	2.926	n/a	n/a	NoResponse	0	n/a	n/a	0	19	Blank	Neutral	True
193.68	0.3	Control	0.65	0.004	No	2.926	-0.004	4.0	NoResponse	0	0.66	n/a	0	19	ButtonPress	Neutral	True
193.722	1.45	Control	0.65	n/a	No	2.926	n/a	5.0	NoResponse	0	0.009	192.731	0	19	Feedback	Neutral	True
195.176	2.926	Control	0.65	n/a	No	2.926	n/a	n/a	NoResponse	0	0.0	n/a	0	19	ISIslide	Neutral	True
198.119	0.25	Control	0.6667000000000001	0.0	Yes	2.631	0.019	n/a	GoodResponse	0	n/a	n/a	0	20	Cue	Neutral	True
198.369	4.05	Control	0.6667000000000001	0.0	Yes	2.631	0.0	n/a	GoodResponse	0	n/a	n/a	0	20	Fixation	Neutral	True
202.415	0.38	Control	0.6667000000000001	0.004	Yes	2.631	-0.004	4.0	GoodResponse	0	0.337	201.752	0	20	Target	Neutral	True
202.752	0.3	Control	0.6667000000000001	0.004	Yes	2.631	-0.004	4.0	GoodResponse	0	0.337	n/a	0	20	ButtonPress	Neutral	True
202.799	0.32	Control	0.6667000000000001	n/a	Yes	2.631	n/a	n/a	GoodResponse	0	n/a	n/a	0	20	Blank	Neutral	True
203.117	1.45	Control	0.6667000000000001	n/a	Yes	2.631	n/a	5.0	GoodResponse	0	0.029	202.146	0	20	Feedback	Neutral	True
204.571	2.631	Control	0.6667000000000001	n/a	Yes	2.631	n/a	n/a	GoodResponse	0	0.0	n/a	0	20	ISIslide	Neutral	True
207.229	0.25	Control	0.6818000000000001	0.0	Yes	2.771	0.029	n/a	GoodResponse	0	n/a	n/a	0	21	Cue	Neutral	True
207.48	4.1	Control	0.6818000000000001	0.0	Yes	2.771	0.001	n/a	GoodResponse	0	n/a	n/a	0	21	Fixation	Neutral	True
211.576	0.37	Control	0.6818000000000001	0.003	Yes	2.771	-0.003	4.0	GoodResponse	0	0.296	210.872	0	21	Target	Neutral	True
211.872	0.3	Control	0.6818000000000001	0.003	Yes	2.771	-0.003	4.0	GoodResponse	0	0.296	n/a	0	21	ButtonPress	Neutral	True
211.96	0.33	Control	0.6818000000000001	n/a	Yes	2.771	n/a	n/a	GoodResponse	0	n/a	n/a	0	21	Blank	Neutral	True
212.278	1.45	Control	0.6818000000000001	n/a	Yes	2.771	n/a	5.0	GoodResponse	0	0.038	211.316	0	21	Feedback	Neutral	True
213.732	2.771	Control	0.6818000000000001	n/a	Yes	2.771	n/a	n/a	GoodResponse	0	0.0	n/a	0	21	ISIslide	Neutral	True
216.524	0.25	Control	0.6957	0.0	Yes	2.776	0.024	n/a	GoodResponse	0	n/a	n/a	0	22	Cue	Neutral	True
216.775	4.0	Control	0.6957	0.0	Yes	2.776	0.001	n/a	GoodResponse	0	n/a	n/a	0	22	Fixation	Neutral	True
220.77	0.36	Control	0.6957	0.004	Yes	2.776	-0.004	4.0	GoodResponse	0	0.261	220.031	0	22	Target	Neutral	True
221.031	0.3	Control	0.6957	0.004	Yes	2.776	-0.004	4.0	GoodResponse	0	0.261	n/a	0	22	ButtonPress	Neutral	True
221.138	0.34	Control	0.6957	n/a	Yes	2.776	n/a	n/a	GoodResponse	0	n/a	n/a	0	22	Blank	Neutral	True
221.472	1.45	Control	0.6957	n/a	Yes	2.776	n/a	5.0	GoodResponse	0	0.015	220.487	0	22	Feedback	Neutral	True
222.926	2.776	Control	0.6957	n/a	Yes	2.776	n/a	n/a	GoodResponse	0	0.0	n/a	0	22	ISIslide	Neutral	True
225.718	0.25	Control	0.7082999999999999	0.0	Yes	2.782	0.018	n/a	GoodResponse	0	n/a	n/a	0	23	Cue	Neutral	True
225.969	3.9	Control	0.7082999999999999	0.0	Yes	2.782	0.001	n/a	GoodResponse	0	n/a	n/a	0	23	Fixation	Neutral	True
229.864	0.35	Control	0.7082999999999999	0.004	Yes	2.782	-0.004	4.0	GoodResponse	0	0.317	229.181	0	23	Target	Neutral	True
230.181	0.3	Control	0.7082999999999999	0.004	Yes	2.782	-0.004	4.0	GoodResponse	0	0.317	n/a	0	23	ButtonPress	Neutral	True
230.215	0.35	Control	0.7082999999999999	n/a	Yes	2.782	n/a	n/a	GoodResponse	0	n/a	n/a	0	23	Blank	Neutral	True
230.566	1.45	Control	0.7082999999999999	n/a	Yes	2.782	n/a	5.0	GoodResponse	0	0.043	229.609	0	23	Feedback	Neutral	True
232.02	2.782	Control	0.7082999999999999	n/a	Yes	2.782	n/a	n/a	GoodResponse	0	0.0	n/a	0	23	ISIslide	Neutral	True
234.829	0.25	Win2	0.72	0.0	Yes	3.121	0.029	n/a	GoodResponse	1	n/a	n/a	1	24	Cue	Win	True
235.079	3.95	Win2	0.72	0.001	Yes	3.121	0.0	n/a	GoodResponse	1	n/a	n/a	1	24	Fixation	Win	True
239.025	0.34	Win2	0.72	0.004	Yes	3.121	-0.004	4.0	GoodResponse	1	0.281	238.306	1	24	Target	Win	True
239.306	0.3	Win2	0.72	0.004	Yes	3.121	-0.004	4.0	GoodResponse	1	0.281	n/a	1	24	ButtonPress	Win	True
239.376	0.36	Win2	0.72	n/a	Yes	3.121	n/a	n/a	GoodResponse	1	n/a	n/a	1	24	Blank	Win	True
239.727	1.45	Win2	0.72	n/a	Yes	3.121	n/a	5.0	GoodResponse	1	0.007	238.734	1	24	Feedback	Win	True
241.181	3.121	Win2	0.72	n/a	Yes	3.121	n/a	n/a	GoodResponse	1	0.0	n/a	1	24	ISIslide	Win	True
244.324	0.25	Win2	0.6923	0.0	No	3.076	0.024	n/a	NoResponse	0	n/a	n/a	1	25	Cue	MissedWin	True
244.575	4.0	Win2	0.6923	0.0	No	3.076	0.001	n/a	NoResponse	0	n/a	n/a	1	25	Fixation	MissedWin	True
248.57	0.33	Win2	0.6923	0.004	No	3.076	-0.004	4.0	NoResponse	0	0.356	247.926	1	25	Target	MissedWin	True
248.904	0.37	Win2	0.6923	n/a	No	3.076	n/a	n/a	NoResponse	0	n/a	n/a	1	25	Blank	MissedWin	True
248.926	0.3	Win2	0.6923	0.004	No	3.076	-0.004	4.0	NoResponse	0	0.356	n/a	1	25	ButtonPress	MissedWin	True
249.272	1.45	Win2	0.6923	n/a	No	3.076	n/a	5.0	NoResponse	0	0.02	248.292	1	25	Feedback	MissedWin	True
250.726	3.076	Win2	0.6923	n/a	No	3.076	n/a	n/a	NoResponse	0	0.0	n/a	1	25	ISIslide	MissedWin	True
253.819	0.25	Win2	0.7037	0.0	Yes	2.931	0.019	n/a	GoodResponse	1	n/a	n/a	2	26	Cue	Win	True
254.07	3.95	Win2	0.7037	0.0	Yes	2.931	0.001	n/a	GoodResponse	1	n/a	n/a	2	26	Fixation	Win	True
258.015	0.32	Win2	0.7037	0.004	Yes	2.931	-0.004	4.0	GoodResponse	1	0.225	257.24	2	26	Target	Win	True
258.24	0.3	Win2	0.7037	0.004	Yes	2.931	-0.004	4.0	GoodResponse	1	0.225	n/a	2	26	ButtonPress	Win	True
258.349	0.38	Win2	0.7037	n/a	Yes	2.931	n/a	n/a	GoodResponse	1	n/a	n/a	2	26	Blank	Win	True
258.717	1.45	Win2	0.7037	n/a	Yes	2.931	n/a	5.0	GoodResponse	1	0.038	257.755	2	26	Feedback	Win	True
260.171	2.931	Win2	0.7037	n/a	Yes	2.931	n/a	n/a	GoodResponse	1	0.0	n/a	2	26	ISIslide	Win	True
263.13	0.25	Lose2	0.7143	0.0	Yes	2.82	0.03	n/a	GoodResponse	0	n/a	n/a	2	27	Cue	AvoidedLoss	True
263.381	4.05	Lose2	0.7143	0.0	Yes	2.82	0.001	n/a	GoodResponse	0	n/a	n/a	2	27	Fixation	AvoidedLoss	True
267.427	0.31	Lose2	0.7143	0.003	Yes	2.82	-0.003	4.0	GoodResponse	0	0.244	266.671	2	27	Target	AvoidedLoss	True
267.671	0.3	Lose2	0.7143	0.003	Yes	2.82	-0.003	4.0	GoodResponse	0	0.244	n/a	2	27	ButtonPress	AvoidedLoss	True
267.744	0.39	Lose2	0.7143	n/a	Yes	2.82	n/a	n/a	GoodResponse	0	n/a	n/a	2	27	Blank	AvoidedLoss	True
268.129	1.45	Lose2	0.7143	n/a	Yes	2.82	n/a	5.0	GoodResponse	0	0.041	267.17	2	27	Feedback	AvoidedLoss	True
269.583	2.82	Lose2	0.7143	n/a	Yes	2.82	n/a	n/a	GoodResponse	0	0.0	n/a	2	27	ISIslide	AvoidedLoss	True
272.425	0.25	Control	0.7241	0.0	Yes	2.825	0.025	n/a	GoodResponse	0	n/a	n/a	2	28	Cue	Neutral	True
272.676	4.05	Control	0.7241	0.0	Yes	2.825	0.001	n/a	GoodResponse	0	n/a	n/a	2	28	Fixation	Neutral	True
276.721	0.3	Control	0.7241	0.004	Yes	2.825	-0.004	4.0	GoodResponse	0	0.235	275.956	2	28	Target	Neutral	True
276.956	0.3	Control	0.7241	0.004	Yes	2.825	-0.004	4.0	GoodResponse	0	0.235	n/a	2	28	ButtonPress	Neutral	True
277.022	0.4	Control	0.7241	n/a	Yes	2.825	n/a	n/a	GoodResponse	0	n/a	n/a	2	28	Blank	Neutral	True
277.423	1.45	Control	0.7241	n/a	Yes	2.825	n/a	5.0	GoodResponse	0	0.015	276.438	2	28	Feedback	Neutral	True
278.878	2.825	Control	0.7241	n/a	Yes	2.825	n/a	n/a	GoodResponse	0	0.0	n/a	2	28	ISIslide	Neutral	True
281.719	0.25	Lose2	0.7333	0.0	Yes	2.831	0.019	n/a	GoodResponse	0	n/a	n/a	2	29	Cue	AvoidedLoss	True
281.97	3.95	Lose2	0.7333	0.0	Yes	2.831	0.001	n/a	GoodResponse	0	n/a	n/a	2	29	Fixation	AvoidedLoss	True
285.915	0.29	Lose2	0.7333	0.004	Yes	2.831	-0.004	4.0	GoodResponse	0	0.248	285.163	2	29	Target	AvoidedLoss	True
286.163	0.3	Lose2	0.7333	0.004	Yes	2.831	-0.004	4.0	GoodResponse	0	0.248	n/a	2	29	ButtonPress	AvoidedLoss	True
286.216	0.41	Lose2	0.7333	n/a	Yes	2.831	n/a	n/a	GoodResponse	0	n/a	n/a	2	29	Blank	AvoidedLoss	True
286.617	1.45	Lose2	0.7333	n/a	Yes	2.831	n/a	5.0	GoodResponse	0	0.041	285.658	2	29	Feedback	AvoidedLoss	True
288.072	2.831	Lose2	0.7333	n/a	Yes	2.831	n/a	n/a	GoodResponse	0	0.0	n/a	2	29	ISIslide	AvoidedLoss	True
290.93	0.25	Win2	0.7419	0.0	Yes	2.77	0.03	n/a	GoodResponse	1	n/a	n/a	3	30	Cue	Win	True
291.181	3.9	Win2	0.7419	0.0	Yes	2.77	0.001	n/a	GoodResponse	1	n/a	n/a	3	30	Fixation	Win	True
295.076	0.28	Win2	0.7419	0.004	Yes	2.77	-0.004	4.0	GoodResponse	1	0.229	294.305	3	30	Target	Win	True
295.305	0.3	Win2	0.7419	0.004	Yes	2.77	-0.004	4.0	GoodResponse	1	0.229	n/a	3	30	ButtonPress	Win	True
295.36	0.42	Win2	0.7419	n/a	Yes	2.77	n/a	n/a	GoodResponse	1	n/a	n/a	3	30	Blank	Win	True
295.778	1.45	Win2	0.7419	n/a	Yes	2.77	n/a	5.0	GoodResponse	1	0.002	294.78	3	30	Feedback	Win	True
297.233	2.77	Win2	0.7419	n/a	Yes	2.77	n/a	n/a	GoodResponse	1	0.0	n/a	3	30	ISIslide	Win	True
300.024	0.25	Lose2	0.7188	0.0	No	2.826	0.024	n/a	LatePress	-1	n/a	n/a	2	31	Cue	Loss	True
300.275	4.05	Lose2	0.7188	0.0	No	2.826	0.001	n/a	LatePress	-1	n/a	n/a	2	31	Fixation	Loss	True
304.321	0.27	Lose2	0.7188	0.003	No	2.826	-0.003	4.0	LatePress	-1	0.282	303.603	2	31	Target	Loss	True
304.603	0.3	Lose2	0.7188	0.003	No	2.826	-0.003	4.0	LatePress	-1	0.282	n/a	2	31	ButtonPress	Loss	True
304.605	0.43	Lose2	0.7188	n/a	No	2.826	n/a	n/a	LatePress	-1	n/a	n/a	2	31	Blank	Loss	True
305.023	1.45	Lose2	0.7188	n/a	No	2.826	n/a	5.0	LatePress	-1	0.025	304.048	2	31	Feedback	Loss	True
306.477	2.826	Lose2	0.7188	n/a	No	2.826	n/a	n/a	LatePress	-1	0.0	n/a	2	31	ISIslide	Loss	True
309.319	0.25	Lose2	0.7273000000000001	0.0	Yes	2.631	0.019	n/a	GoodResponse	0	n/a	n/a	2	32	Cue	AvoidedLoss	True
309.57	4.15	Lose2	0.7273000000000001	0.0	Yes	2.631	0.001	n/a	GoodResponse	0	n/a	n/a	2	32	Fixation	AvoidedLoss	True
313.715	0.26	Lose2	0.7273000000000001	0.004	Yes	2.631	-0.004	4.0	GoodResponse	0	0.215	312.93	2	32	Target	AvoidedLoss	True
313.93	0.3	Lose2	0.7273000000000001	0.004	Yes	2.631	-0.004	4.0	GoodResponse	0	0.215	n/a	2	32	ButtonPress	AvoidedLoss	True
313.983	0.44	Lose2	0.7273000000000001	n/a	Yes	2.631	n/a	n/a	GoodResponse	0	n/a	n/a	2	32	Blank	AvoidedLoss	True
314.417	1.45	Lose2	0.7273000000000001	n/a	Yes	2.631	n/a	5.0	GoodResponse	0	0.046	313.463	2	32	Feedback	AvoidedLoss	True
315.872	2.631	Lose2	0.7273000000000001	n/a	Yes	2.631	n/a	n/a	GoodResponse	0	0.0	n/a	2	32	ISIslide	AvoidedLoss	True
318.53	0.25	Win2	0.7353000000000001	0.0	Yes	2.67	0.03	n/a	GoodResponse	1	n/a	n/a	3	33	Cue	Win	True
318.781	4.0	Win2	0.7353000000000001	0.0	Yes	2.67	0.001	n/a	GoodResponse	1	n/a	n/a	3	33	Fixation	Win	True
322.776	0.25	Win2	0.7353000000000001	0.004	Yes	2.67	-0.004	4.0	GoodResponse	1	0.223	321.999	3	33	Target	Win	True
322.999	0.3	Win2	0.7353000000000001	0.004	Yes	2.67	-0.004	4.0	GoodResponse	1	0.223	n/a	3	33	ButtonPress	Win	True
323.027	0.45	Win2	0.7353000000000001	n/a	Yes	2.67	n/a	n/a	GoodResponse	1	n/a	n/a	3	33	Blank	Win	True
323.478	1.45	Win2	0.7353000000000001	n/a	Yes	2.67	n/a	5.0	GoodResponse	1	0.009	322.487	3	33	Feedback	Win	True
324.932	2.67	Win2	0.7353000000000001	n/a	Yes	2.67	n/a	4.0	GoodResponse	1	0.666	n/a	3	33	ISIslide	Win	True
327.607	0.25	Lose2	0.7143	0.0	No	2.643	0.007	n/a	NoResponse	-1	n/a	n/a	2	34	Cue	Loss	True
327.858	4.05	Lose2	0.7143	0.0	No	2.643	0.001	n/a	NoResponse	-1	n/a	n/a	2	34	Fixation	Loss	True
331.903	0.24	Lose2	0.7143	0.004	No	2.643	-0.004	4.0	NoResponse	-1	0.385	331.288	2	34	Target	Loss	True
332.154	0.46	Lose2	0.7143	n/a	No	2.643	n/a	n/a	NoResponse	-1	n/a	n/a	2	34	Blank	Loss	True
332.288	0.3	Lose2	0.7143	0.004	No	2.643	-0.004	4.0	NoResponse	-1	0.385	n/a	2	34	ButtonPress	Loss	True
332.605	1.45	Lose2	0.7143	n/a	No	2.643	n/a	5.0	NoResponse	-1	0.008	331.613	2	34	Feedback	Loss	True
334.06	2.643	Lose2	0.7143	n/a	No	2.643	n/a	n/a	NoResponse	-1	0.0	n/a	2	34	ISIslide	Loss	True
336.718	0.25	Lose2	0.6944	0.0	No	2.682	0.018	n/a	NoResponse	-1	n/a	n/a	1	35	Cue	Loss	True
336.968	4.0	Lose2	0.6944	0.001	No	2.682	0.0	n/a	NoResponse	-1	n/a	n/a	1	35	Fixation	Loss	True
340.964	0.23	Lose2	0.6944	0.004	No	2.682	-0.004	4.0	NoResponse	-1	0.343	340.307	1	35	Target	Loss	True
341.198	0.47	Lose2	0.6944	n/a	No	2.682	n/a	n/a	NoResponse	-1	n/a	n/a	1	35	Blank	Loss	True
341.307	0.3	Lose2	0.6944	0.004	No	2.682	-0.004	4.0	NoResponse	-1	0.343	n/a	1	35	ButtonPress	Loss	True
341.666	1.45	Lose2	0.6944	n/a	No	2.682	n/a	5.0	NoResponse	-1	0.016	340.682	1	35	Feedback	Loss	True
343.12	2.682	Lose2	0.6944	n/a	No	2.682	n/a	n/a	NoResponse	-1	0.0	n/a	1	35	ISIslide	Loss	True
345.828	0.25	Control	0.6757	0.0	No	2.672	0.028	n/a	LatePress	0	n/a	n/a	1	36	Cue	Neutral	True
346.079	4.0	Control	0.6757	0.0	No	2.672	0.001	n/a	LatePress	0	n/a	n/a	1	36	Fixation	Neutral	True
350.074	0.22	Control	0.6757	0.004	No	2.672	-0.004	4.0	LatePress	0	0.229	349.303	1	36	Target	Neutral	True
350.303	0.3	Control	0.6757	0.004	No	2.672	-0.004	4.0	LatePress	0	0.229	n/a	1	36	ButtonPress	Neutral	True
350.308	0.48	Control	0.6757	n/a	No	2.672	n/a	n/a	LatePress	0	n/a	n/a	1	36	Blank	Neutral	True
350.777	1.45	Control	0.6757	n/a	No	2.672	n/a	5.0	LatePress	0	0.027	349.804	1	36	Feedback	Neutral	True
352.231	2.672	Control	0.6757	n/a	No	2.672	n/a	n/a	LatePress	0	0.0	n/a	1	36	ISIslide	Neutral	True
354.922	0.25	Win2	0.6579	0.0	No	2.878	0.022	n/a	NoResponse	0	n/a	n/a	1	37	Cue	MissedWin	False
355.173	4.0	Win2	0.6579	0.0	No	2.878	0.001	4.0	NoResponse	0	0.175	354.348	1	37	Fixation	MissedWin	False
355.348	0.3	Win2	0.6579	0.0	No	2.878	0.001	4.0	NoResponse	0	0.175	n/a	1	37	ButtonPress	MissedWin	False
359.168	0.21	Win2	0.6579	0.004	No	2.878	-0.004	4.0	NoResponse	0	0.259	358.427	1	37	Target	MissedWin	False
359.386	0.49	Win2	0.6579	n/a	No	2.878	n/a	n/a	NoResponse	0	n/a	n/a	1	37	Blank	MissedWin	False
359.427	0.3	Win2	0.6579	0.004	No	2.878	-0.004	4.0	NoResponse	0	0.259	n/a	1	37	ButtonPress	MissedWin	False
359.87	1.45	Win2	0.6579	n/a	No	2.878	n/a	5.0	NoResponse	0	0.008	358.878	1	37	Feedback	MissedWin	False
361.325	2.878	Win2	0.6579	n/a	No	2.878	n/a	n/a	NoResponse	0	0.0	n/a	1	37	ISIslide	MissedWin	False
364.217	0.25	Lose2	0.6409999999999999	0.0	No	2.833	0.017	n/a	NoResponse	-1	n/a	n/a	0	38	Cue	Loss	True
364.468	3.95	Lose2	0.6409999999999999	0.0	No	2.833	0.001	n/a	NoResponse	-1	n/a	n/a	0	38	Fixation	Loss	True
368.413	0.21	Lose2	0.6409999999999999	0.004	No	2.833	-0.004	4.0	NoResponse	-1	0.303	367.716	0	38	Target	Loss	True
368.63	0.49	Lose2	0.6409999999999999	n/a	No	2.833	n/a	n/a	NoResponse	-1	n/a	n/a	0	38	Blank	Loss	True
368.716	0.3	Lose2	0.6409999999999999	0.004	No	2.833	-0.004	4.0	NoResponse	-1	0.303	n/a	0	38	ButtonPress	Loss	True
369.115	1.45	Lose2	0.6409999999999999	n/a	No	2.833	n/a	5.0	NoResponse	-1	0.03	368.145	0	38	Feedback	Loss	True
370.569	2.833	Lose2	0.6409999999999999	n/a	No	2.833	n/a	n/a	NoResponse	-1	0.0	n/a	0	38	ISIslide	Loss	True
373.428	0.25	Win2	0.625	0.0	No	2.972	0.028	n/a	NoResponse	0	n/a	n/a	0	39	Cue	MissedWin	True
373.679	4.1	Win2	0.625	0.0	No	2.972	0.001	n/a	NoResponse	0	n/a	n/a	0	39	Fixation	MissedWin	True
377.774	0.22	Win2	0.625	0.004	No	2.972	-0.004	4.0	NoResponse	0	0.243	377.017	0	39	Target	MissedWin	True
378.008	0.48	Win2	0.625	n/a	No	2.972	n/a	n/a	NoResponse	0	n/a	n/a	0	39	Blank	MissedWin	True
378.017	0.3	Win2	0.625	0.004	No	2.972	-0.004	4.0	NoResponse	0	0.243	n/a	0	39	ButtonPress	MissedWin	True
378.476	1.45	Win2	0.625	n/a	No	2.972	n/a	5.0	NoResponse	0	0.035	377.511	0	39	Feedback	MissedWin	True
379.931	2.972	Win2	0.625	n/a	No	2.972	n/a	n/a	NoResponse	0	0.0	n/a	0	39	ISIslide	MissedWin	True
382.923	0.25	Win2	0.6098	0.0	No	2.727	0.023	n/a	NoResponse	0	n/a	n/a	0	40	Cue	MissedWin	True
383.174	3.95	Win2	0.6098	0.0	No	2.727	0.001	n/a	NoResponse	0	n/a	n/a	0	40	Fixation	MissedWin	True
387.119	0.23	Win2	0.6098	0.004	No	2.727	-0.004	4.0	NoResponse	0	0.292	386.411	0	40	Target	MissedWin	True
387.353	0.47	Win2	0.6098	n/a	No	2.727	n/a	n/a	NoResponse	0	n/a	n/a	0	40	Blank	MissedWin	True
387.411	0.3	Win2	0.6098	0.004	No	2.727	-0.004	4.0	NoResponse	0	0.292	n/a	0	40	ButtonPress	MissedWin	True
387.821	1.45	Win2	0.6098	n/a	No	2.727	n/a	5.0	NoResponse	0	0.008	386.829	0	40	Feedback	MissedWin	True
389.275	2.727	Win2	0.6098	n/a	No	2.727	n/a	n/a	NoResponse	0	0.0	n/a	0	40	ISIslide	MissedWin	True
392.017	0.25	Win2	0.619	0.0	Yes	2.783	0.017	n/a	GoodResponse	1	n/a	n/a	1	41	Cue	Win	False
392.268	3.9	Win2	0.619	0.0	Yes	2.783	0.001	4.0	GoodResponse	1	0.122	391.39	1	41	Fixation	Win	False
392.39	0.3	Win2	0.619	0.0	Yes	2.783	0.001	4.0	GoodResponse	1	0.122	n/a	1	41	ButtonPress	Win	False
396.163	0.24	Win2	0.619	0.004	Yes	2.783	-0.004	4.0	GoodResponse	1	0.224	395.387	1	41	Target	Win	False
396.387	0.3	Win2	0.619	0.004	Yes	2.783	-0.004	4.0	GoodResponse	1	0.224	n/a	1	41	ButtonPress	Win	False
396.413	0.46	Win2	0.619	n/a	Yes	2.783	n/a	n/a	GoodResponse	1	n/a	n/a	1	41	Blank	Win	False
396.865	1.45	Win2	0.619	n/a	Yes	2.783	n/a	5.0	GoodResponse	1	0.037	395.902	1	41	Feedback	Win	False
398.319	2.783	Win2	0.619	n/a	Yes	2.783	n/a	n/a	GoodResponse	1	0.0	n/a	1	41	ISIslide	Win	False
401.128	0.25	Control	0.6047	0.0	No	2.922	0.028	n/a	NoResponse	0	n/a	n/a	1	42	Cue	Neutral	True
401.378	3.85	Control	0.6047	0.0	No	2.922	0.0	n/a	NoResponse	0	n/a	n/a	1	42	Fixation	Neutral	True
405.24	0.25	Control	0.6047	0.0	No	2.922	0.012	4.0	NoResponse	0	0.292	404.532	1	42	Target	Neutral	True
405.474	0.45	Control	0.6047	n/a	No	2.922	n/a	n/a	NoResponse	0	n/a	n/a	1	42	Blank	Neutral	True
405.532	0.3	Control	0.6047	0.0	No	2.922	0.012	4.0	NoResponse	0	0.292	n/a	1	42	ButtonPress	Neutral	True
405.925	1.45	Control	0.6047	n/a	No	2.922	n/a	5.0	NoResponse	0	0.0	404.925	1	42	Feedback	Neutral	True
407.38	2.922	Control	0.6047	n/a	No	2.922	n/a	n/a	NoResponse	0	0.0	n/a	1	42	ISIslide	Neutral	True
410.322	0.25	Win2	0.6136	0.0	Yes	3.178	0.022	n/a	GoodResponse	1	n/a	n/a	2	43	Cue	Win	True
410.573	4.0	Win2	0.6136	0.0	Yes	3.178	0.001	n/a	GoodResponse	1	n/a	n/a	2	43	Fixation	Win	True
414.568	0.26	Win2	0.6136	0.004	Yes	3.178	-0.004	4.0	GoodResponse	1	0.205	413.773	2	43	Target	Win	True
414.773	0.3	Win2	0.6136	0.004	Yes	3.178	-0.004	4.0	GoodResponse	1	0.205	n/a	2	43	ButtonPress	Win	True
414.835	0.44	Win2	0.6136	n/a	Yes	3.178	n/a	n/a	GoodResponse	1	n/a	n/a	2	43	Blank	Win	True
415.27	1.45	Win2	0.6136	n/a	Yes	3.178	n/a	5.0	GoodResponse	1	0.021	414.291	2	43	Feedback	Win	True
416.724	3.178	Win2	0.6136	n/a	Yes	3.178	n/a	n/a	GoodResponse	1	0.0	n/a	2	43	ISIslide	Win	True
419.917	0.25	Win2	0.6	0.0	No	2.983	0.017	n/a	NoResponse	0	n/a	n/a	2	44	Cue	MissedWin	True
420.168	4.0	Win2	0.6	0.0	No	2.983	0.001	n/a	NoResponse	0	n/a	n/a	2	44	Fixation	MissedWin	True
424.163	0.27	Win2	0.6	0.004	No	2.983	-0.004	4.0	NoResponse	0	0.586	423.749	2	44	Target	MissedWin	True
424.448	0.43	Win2	0.6	n/a	No	2.983	n/a	n/a	NoResponse	0	n/a	n/a	2	44	Blank	MissedWin	True
424.749	0.3	Win2	0.6	0.004	No	2.983	-0.004	4.0	NoResponse	0	0.586	n/a	2	44	ButtonPress	MissedWin	True
424.865	1.45	Win2	0.6	n/a	No	2.983	n/a	5.0	NoResponse	0	0.036	423.901	2	44	Feedback	MissedWin	True
426.32	2.983	Win2	0.6	n/a	No	2.983	n/a	n/a	NoResponse	0	0.0	n/a	2	44	ISIslide	MissedWin	True
429.329	0.25	Control	0.5870000000000001	0.0	No	2.871	0.029	n/a	NoResponse	0	n/a	n/a	2	45	Cue	Neutral	False
429.58	4.1	Control	0.5870000000000001	0.0	No	2.871	0.001	n/a	NoResponse	0	n/a	n/a	2	45	Fixation	Neutral	False
433.675	0.28	Control	0.5870000000000001	0.004	No	2.871	-0.004	n/a	NoResponse	0	n/a	n/a	2	45	Target	Neutral	False
433.959	0.42	Control	0.5870000000000001	n/a	No	2.871	n/a	n/a	NoResponse	0	n/a	n/a	2	45	Blank	Neutral	False
434.377	1.45	Control	0.5870000000000001	n/a	No	2.871	n/a	5.0	NoResponse	0	0.036	433.413	2	45	Feedback	Neutral	False
435.832	2.871	Control	0.5870000000000001	n/a	No	2.871	n/a	n/a	NoResponse	0	0.0	n/a	2	45	ISIslide	Neutral	False
438.724	0.25	Lose2	0.5957	0.0	Yes	3.376	0.024	n/a	GoodResponse	0	n/a	n/a	2	46	Cue	AvoidedLoss	True
438.974	4.0	Lose2	0.5957	0.001	Yes	3.376	0.0	n/a	GoodResponse	0	n/a	n/a	2	46	Fixation	AvoidedLoss	True
442.97	0.29	Lose2	0.5957	0.004	Yes	3.376	-0.004	4.0	GoodResponse	0	0.283	442.253	2	46	Target	AvoidedLoss	True
443.253	0.3	Lose2	0.5957	0.004	Yes	3.376	-0.004	4.0	GoodResponse	0	0.283	n/a	2	46	ButtonPress	AvoidedLoss	True
443.271	0.41	Lose2	0.5957	n/a	Yes	3.376	n/a	n/a	GoodResponse	0	n/a	n/a	2	46	Blank	AvoidedLoss	True
443.672	1.45	Lose2	0.5957	n/a	Yes	3.376	n/a	5.0	GoodResponse	0	0.01	442.682	2	46	Feedback	AvoidedLoss	True
445.126	3.376	Lose2	0.5957	n/a	Yes	3.376	n/a	n/a	GoodResponse	0	0.0	n/a	2	46	ISIslide	AvoidedLoss	True
448.52	0.25	Lose2	0.6042000000000001	0.0	Yes	2.68	0.02	n/a	GoodResponse	0	n/a	n/a	2	47	Cue	AvoidedLoss	True
448.771	4.0	Lose2	0.6042000000000001	0.0	Yes	2.68	0.001	n/a	GoodResponse	0	n/a	n/a	2	47	Fixation	AvoidedLoss	True
452.766	0.3	Lose2	0.6042000000000001	0.004	Yes	2.68	-0.004	4.0	GoodResponse	0	0.256	452.022	2	47	Target	AvoidedLoss	True
453.022	0.3	Lose2	0.6042000000000001	0.004	Yes	2.68	-0.004	4.0	GoodResponse	0	0.256	n/a	2	47	ButtonPress	AvoidedLoss	True
453.067	0.4	Lose2	0.6042000000000001	n/a	Yes	2.68	n/a	n/a	GoodResponse	0	n/a	n/a	2	47	Blank	AvoidedLoss	True
453.468	1.45	Lose2	0.6042000000000001	n/a	Yes	2.68	n/a	5.0	GoodResponse	0	0.019	452.487	2	47	Feedback	AvoidedLoss	True
454.922	2.68	Lose2	0.6042000000000001	n/a	Yes	2.68	n/a	n/a	GoodResponse	0	0.0	n/a	2	47	ISIslide	AvoidedLoss	True
457.614	0.25	Lose2	0.5918	0.0	No	3.036	0.014	n/a	NoResponse	-1	n/a	n/a	1	48	Cue	Loss	True
457.864	3.95	Lose2	0.5918	0.001	No	3.036	0.0	n/a	NoResponse	-1	n/a	n/a	1	48	Fixation	Loss	True
461.81	0.31	Lose2	0.5918	0.004	No	3.036	-0.004	4.0	NoResponse	-1	0.471	461.281	1	48	Target	Loss	True
462.127	0.39	Lose2	0.5918	n/a	No	3.036	n/a	n/a	NoResponse	-1	n/a	n/a	1	48	Blank	Loss	True
462.281	0.3	Lose2	0.5918	0.004	No	3.036	-0.004	4.0	NoResponse	-1	0.471	n/a	1	48	ButtonPress	Loss	True
462.512	1.45	Lose2	0.5918	n/a	No	3.036	n/a	5.0	NoResponse	-1	0.048	461.56	1	48	Feedback	Loss	True
463.966	3.036	Lose2	0.5918	n/a	No	3.036	n/a	n/a	NoResponse	-1	0.0	n/a	1	48	ISIslide	Loss	True
467.025	0.25	Control	0.58	0.0	No	2.875	0.025	n/a	NoResponse	0	n/a	n/a	1	49	Cue	Neutral	True
467.276	4.0	Control	0.58	0.0	No	2.875	0.001	n/a	NoResponse	0	n/a	n/a	1	49	Fixation	Neutral	True
471.271	0.32	Control	0.58	0.004	No	2.875	-0.004	4.0	NoResponse	0	0.517	470.788	1	49	Target	Neutral	True
471.606	0.38	Control	0.58	n/a	No	2.875	n/a	n/a	NoResponse	0	n/a	n/a	1	49	Blank	Neutral	True
471.788	0.3	Control	0.58	0.004	No	2.875	-0.004	4.0	NoResponse	0	0.517	n/a	1	49	ButtonPress	Neutral	True
471.973	1.45	Control	0.58	n/a	No	2.875	n/a	5.0	NoResponse	0	0.002	470.975	1	49	Feedback	Neutral	True
473.428	2.875	Control	0.58	n/a	No	2.875	n/a	n/a	NoResponse	0	0.0	n/a	1	49	ISIslide	Neutral	True
476.32	0.25	Control	0.5882000000000001	0.0	Yes	2.78	0.02	n/a	GoodResponse	0	n/a	n/a	1	50	Cue	Neutral	True
476.571	4.0	Control	0.5882000000000001	0.0	Yes	2.78	0.001	n/a	GoodResponse	0	n/a	n/a	1	50	Fixation	Neutral	True
480.566	0.33	Control	0.5882000000000001	0.004	Yes	2.78	-0.004	4.0	GoodResponse	0	0.306	479.872	1	50	Target	Neutral	True
480.872	0.3	Control	0.5882000000000001	0.004	Yes	2.78	-0.004	4.0	GoodResponse	0	0.306	n/a	1	50	ButtonPress	Neutral	True
480.9	0.37	Control	0.5882000000000001	n/a	Yes	2.78	n/a	n/a	GoodResponse	0	n/a	n/a	1	50	Blank	Neutral	True
481.268	1.45	Control	0.5882000000000001	n/a	Yes	2.78	n/a	5.0	GoodResponse	0	0.023	480.291	1	50	Feedback	Neutral	True
482.722	2.78	Control	0.5882000000000001	n/a	Yes	2.78	n/a	n/a	GoodResponse	0	0.0	n/a	1	50	ISIslide	Neutral	True
485.514	0.25	Control	0.5769	0.0	No	2.736	0.014	n/a	LatePress	0	n/a	n/a	1	51	Cue	Neutral	True
485.765	3.95	Control	0.5769	0.0	No	2.736	0.001	n/a	LatePress	0	n/a	n/a	1	51	Fixation	Neutral	True
489.71	0.34	Control	0.5769	0.004	No	2.736	-0.004	4.0	LatePress	0	0.343	489.053	1	51	Target	Neutral	True
490.053	0.3	Control	0.5769	0.004	No	2.736	-0.004	4.0	LatePress	0	0.343	n/a	1	51	ButtonPress	Neutral	True
490.061	0.36	Control	0.5769	n/a	No	2.736	n/a	n/a	LatePress	0	n/a	n/a	1	51	Blank	Neutral	True
490.412	1.45	Control	0.5769	n/a	No	2.736	n/a	5.0	LatePress	0	0.001	489.413	1	51	Feedback	Neutral	True
491.866	2.736	Control	0.5769	n/a	No	2.736	n/a	n/a	LatePress	0	0.0	n/a	1	51	ISIslide	Neutral	True
494.625	0.25	Control	0.5849	0.0	Yes	2.625	0.025	n/a	GoodResponse	0	n/a	n/a	1	52	Cue	Neutral	True
494.875	4.05	Control	0.5849	0.001	Yes	2.625	0.0	n/a	GoodResponse	0	n/a	n/a	1	52	Fixation	Neutral	True
498.921	0.35	Control	0.5849	0.004	Yes	2.625	-0.004	4.0	GoodResponse	0	0.275	498.196	1	52	Target	Neutral	True
499.196	0.3	Control	0.5849	0.004	Yes	2.625	-0.004	4.0	GoodResponse	0	0.275	n/a	1	52	ButtonPress	Neutral	True
499.272	0.35	Control	0.5849	n/a	Yes	2.625	n/a	n/a	GoodResponse	0	n/a	n/a	1	52	Blank	Neutral	True
499.623	1.45	Control	0.5849	n/a	Yes	2.625	n/a	5.0	GoodResponse	0	0.01	498.633	1	52	Feedback	Neutral	True
501.077	2.625	Control	0.5849	n/a	Yes	2.625	n/a	n/a	GoodResponse	0	0.0	n/a	1	52	ISIslide	Neutral	True
503.719	0.25	Win2	0.5740999999999999	0.0	No	2.931	0.019	n/a	NoResponse	0	n/a	n/a	1	53	Cue	MissedWin	True
503.969	4.05	Win2	0.5740999999999999	0.0	No	2.931	0.0	n/a	NoResponse	0	n/a	n/a	1	53	Fixation	MissedWin	True
508.015	0.36	Win2	0.5740999999999999	0.004	No	2.931	-0.004	4.0	NoResponse	0	0.38	507.395	1	53	Target	MissedWin	True
508.383	0.34	Win2	0.5740999999999999	n/a	No	2.931	n/a	n/a	NoResponse	0	n/a	n/a	1	53	Blank	MissedWin	True
508.395	0.3	Win2	0.5740999999999999	0.004	No	2.931	-0.004	4.0	NoResponse	0	0.38	n/a	1	53	ButtonPress	MissedWin	True
508.717	1.45	Win2	0.5740999999999999	n/a	No	2.931	n/a	5.0	NoResponse	0	0.038	507.755	1	53	Feedback	MissedWin	True
510.171	2.931	Win2	0.5740999999999999	n/a	No	2.931	n/a	n/a	NoResponse	0	0.0	n/a	1	53	ISIslide	MissedWin	True
513.114	0.25	Win2	0.5818	0.0	Yes	2.736	0.014	n/a	GoodResponse	1	n/a	n/a	2	54	Cue	Win	True
513.364	3.95	Win2	0.5818	0.0	Yes	2.736	0.0	n/a	GoodResponse	1	n/a	n/a	2	54	Fixation	Win	True
517.326	0.37	Win2	0.5818	0.0	Yes	2.736	0.012	4.0	GoodResponse	1	0.297	516.623	2	54	Target	Win	True
517.623	0.3	Win2	0.5818	0.0	Yes	2.736	0.012	4.0	GoodResponse	1	0.297	n/a	2	54	ButtonPress	Win	True
517.694	0.33	Win2	0.5818	n/a	Yes	2.736	n/a	n/a	GoodResponse	1	n/a	n/a	2	54	Blank	Win	True
518.012	1.45	Win2	0.5818	n/a	Yes	2.736	n/a	5.0	GoodResponse	1	0.011	517.023	2	54	Feedback	Win	True
519.466	2.736	Win2	0.5818	n/a	Yes	2.736	n/a	n/a	GoodResponse	1	0.0	n/a	2	54	ISIslide	Win	True
522.224	0.25	Control	0.5893	0.0	Yes	3.026	0.024	n/a	GoodResponse	0	n/a	n/a	2	55	Cue	Neutral	True
522.475	3.95	Control	0.5893	0.0	Yes	3.026	0.001	n/a	GoodResponse	0	n/a	n/a	2	55	Fixation	Neutral	True
526.42	0.38	Control	0.5893	0.004	Yes	3.026	-0.004	4.0	GoodResponse	0	0.32	525.74	2	55	Target	Neutral	True
526.74	0.3	Control	0.5893	0.004	Yes	3.026	-0.004	4.0	GoodResponse	0	0.32	n/a	2	55	ButtonPress	Neutral	True
526.805	0.32	Control	0.5893	n/a	Yes	3.026	n/a	n/a	GoodResponse	0	n/a	n/a	2	55	Blank	Neutral	True
527.122	1.45	Control	0.5893	n/a	Yes	3.026	n/a	5.0	GoodResponse	0	0.023	526.145	2	55	Feedback	Neutral	True
528.577	3.026	Control	0.5893	n/a	Yes	3.026	n/a	n/a	GoodResponse	0	0.0	n/a	2	55	ISIslide	Neutral	True
531.619	0.25	Control	0.5789	0.0	No	2.831	0.019	n/a	NoResponse	0	n/a	n/a	2	56	Cue	Neutral	False
531.87	3.95	Control	0.5789	0.0	No	2.831	0.001	n/a	NoResponse	0	n/a	n/a	2	56	Fixation	Neutral	False
535.815	0.39	Control	0.5789	0.004	No	2.831	-0.004	n/a	NoResponse	0	n/a	n/a	2	56	Target	Neutral	False
536.216	0.31	Control	0.5789	n/a	No	2.831	n/a	n/a	NoResponse	0	n/a	n/a	2	56	Blank	Neutral	False
536.517	1.45	Control	0.5789	n/a	No	2.831	n/a	5.0	NoResponse	0	0.043	535.56	2	56	Feedback	Neutral	False
537.971	2.831	Control	0.5789	n/a	No	2.831	n/a	n/a	NoResponse	0	0.0	n/a	2	56	ISIslide	Neutral	False
540.813	0.25	Control	0.5861999999999999	0.0	Yes	3.487	0.013	n/a	GoodResponse	0	n/a	n/a	2	57	Cue	Neutral	True
541.064	4.0	Control	0.5861999999999999	0.0	Yes	3.487	0.001	n/a	GoodResponse	0	n/a	n/a	2	57	Fixation	Neutral	True
545.059	0.4	Control	0.5861999999999999	0.004	Yes	3.487	-0.004	4.0	GoodResponse	0	0.255	544.314	2	57	Target	Neutral	True
545.314	0.3	Control	0.5861999999999999	0.004	Yes	3.487	-0.004	4.0	GoodResponse	0	0.255	n/a	2	57	ButtonPress	Neutral	True
545.461	0.3	Control	0.5861999999999999	n/a	Yes	3.487	n/a	n/a	GoodResponse	0	n/a	n/a	2	57	Blank	Neutral	True
545.761	1.45	Control	0.5861999999999999	n/a	Yes	3.487	n/a	5.0	GoodResponse	0	0.019	544.78	2	57	Feedback	Neutral	True
547.216	3.487	Control	0.5861999999999999	n/a	Yes	3.487	n/a	n/a	GoodResponse	0	0.0	n/a	2	57	ISIslide	Neutral	True
550.726	0.25	Win2	0.5932	0.0	Yes	2.724	0.026	n/a	GoodResponse	1	n/a	n/a	3	58	Cue	Win	True
550.977	4.05	Win2	0.5932	0.0	Yes	2.724	0.001	n/a	GoodResponse	1	n/a	n/a	3	58	Fixation	Win	True
555.023	0.41	Win2	0.5932	0.003	Yes	2.724	-0.003	4.0	GoodResponse	1	0.287	554.31	3	58	Target	Win	True
555.31	0.3	Win2	0.5932	0.003	Yes	2.724	-0.003	4.0	GoodResponse	1	0.287	n/a	3	58	ButtonPress	Win	True
555.44	0.29	Win2	0.5932	n/a	Yes	2.724	n/a	n/a	GoodResponse	1	n/a	n/a	3	58	Blank	Win	True
555.725	1.45	Win2	0.5932	n/a	Yes	2.724	n/a	5.0	GoodResponse	1	0.006	554.731	3	58	Feedback	Win	True
557.179	2.724	Win2	0.5932	n/a	Yes	2.724	n/a	n/a	GoodResponse	1	0.0	n/a	3	58	ISIslide	Win	True
559.921	0.25	Lose2	0.5832999999999999	0.0	No	2.679	0.021	n/a	NoResponse	-1	n/a	n/a	2	59	Cue	Loss	False
560.171	4.0	Lose2	0.5832999999999999	0.001	No	2.679	0.0	n/a	NoResponse	-1	n/a	n/a	2	59	Fixation	Loss	False
564.167	0.42	Lose2	0.5832999999999999	0.004	No	2.679	-0.004	n/a	NoResponse	-1	n/a	n/a	2	59	Target	Loss	False
564.601	0.28	Lose2	0.5832999999999999	n/a	No	2.679	n/a	n/a	NoResponse	-1	n/a	n/a	2	59	Blank	Loss	False
564.869	1.45	Lose2	0.5832999999999999	n/a	No	2.679	n/a	5.0	NoResponse	-1	0.032	563.901	2	59	Feedback	Loss	False
566.323	2.679	Lose2	0.5832999999999999	n/a	No	2.679	n/a	n/a	NoResponse	-1	0.0	n/a	2	59	ISIslide	Loss	False
569.015	0.25	Control	0.5738	0.0	No	2.685	0.015	n/a	NoResponse	0	n/a	n/a	2	60	Cue	Neutral	True
569.265	4.0	Control	0.5738	0.0	No	2.685	0.0	n/a	NoResponse	0	n/a	n/a	2	60	Fixation	Neutral	True
573.261	0.43	Control	0.5738	0.004	No	2.685	-0.004	4.0	NoResponse	0	0.534	572.795	2	60	Target	Neutral	True
573.695	0.27	Control	0.5738	n/a	No	2.685	n/a	n/a	NoResponse	0	n/a	n/a	2	60	Blank	Neutral	True
573.795	0.3	Control	0.5738	0.004	No	2.685	-0.004	4.0	NoResponse	0	0.534	n/a	2	60	ButtonPress	Neutral	True
573.963	1.45	Control	0.5738	n/a	No	2.685	n/a	5.0	NoResponse	0	0.011	572.974	2	60	Feedback	Neutral	True
575.417	2.685	Control	0.5738	n/a	No	2.685	n/a	n/a	NoResponse	0	0.0	n/a	2	60	ISIslide	Neutral	True
578.125	0.25	Lose2	0.5806	0.0	Yes	2.975	0.025	n/a	GoodResponse	0	n/a	n/a	2	61	Cue	AvoidedLoss	True
578.376	4.0	Lose2	0.5806	0.0	Yes	2.975	0.001	n/a	GoodResponse	0	n/a	n/a	2	61	Fixation	AvoidedLoss	True
582.371	0.44	Lose2	0.5806	0.004	Yes	2.975	-0.004	4.0	GoodResponse	0	0.321	581.692	2	61	Target	AvoidedLoss	True
582.692	0.3	Lose2	0.5806	0.004	Yes	2.975	-0.004	4.0	GoodResponse	0	0.321	n/a	2	61	ButtonPress	AvoidedLoss	True
582.823	0.26	Lose2	0.5806	n/a	Yes	2.975	n/a	n/a	GoodResponse	0	n/a	n/a	2	61	Blank	AvoidedLoss	True
583.073	1.45	Lose2	0.5806	n/a	Yes	2.975	n/a	5.0	GoodResponse	0	0.023	582.096	2	61	Feedback	AvoidedLoss	True
584.528	2.975	Lose2	0.5806	n/a	Yes	2.975	n/a	n/a	GoodResponse	0	0.0	n/a	2	61	ISIslide	AvoidedLoss	True
587.52	0.25	Lose2	0.5872999999999999	0.0	Yes	2.88	0.02	n/a	GoodResponse	0	n/a	n/a	2	62	Cue	AvoidedLoss	True
587.771	3.9	Lose2	0.5872999999999999	0.0	Yes	2.88	0.001	n/a	GoodResponse	0	n/a	n/a	2	62	Fixation	AvoidedLoss	True
591.666	0.45	Lose2	0.5872999999999999	0.004	Yes	2.88	-0.004	4.0	GoodResponse	0	0.277	590.943	2	62	Target	AvoidedLoss	True
591.943	0.3	Lose2	0.5872999999999999	0.004	Yes	2.88	-0.004	4.0	GoodResponse	0	0.277	n/a	2	62	ButtonPress	AvoidedLoss	True
592.117	0.25	Lose2	0.5872999999999999	n/a	Yes	2.88	n/a	n/a	GoodResponse	0	n/a	n/a	2	62	Blank	AvoidedLoss	True
592.368	1.45	Lose2	0.5872999999999999	n/a	Yes	2.88	n/a	5.0	GoodResponse	0	0.045	591.413	2	62	Feedback	AvoidedLoss	True
593.822	2.88	Lose2	0.5872999999999999	n/a	Yes	2.88	n/a	n/a	GoodResponse	0	0.0	n/a	2	62	ISIslide	AvoidedLoss	True
596.714	0.25	Lose2	0.5938	0.0	Yes	2.636	0.014	n/a	GoodResponse	0	n/a	n/a	2	63	Cue	AvoidedLoss	True
596.965	4.05	Lose2	0.5938	0.0	Yes	2.636	0.001	n/a	GoodResponse	0	n/a	n/a	2	63	Fixation	AvoidedLoss	True
601.011	0.46	Lose2	0.5938	0.003	Yes	2.636	-0.003	4.0	GoodResponse	0	0.363	600.374	2	63	Target	AvoidedLoss	True
601.374	0.3	Lose2	0.5938	0.003	Yes	2.636	-0.003	4.0	GoodResponse	0	0.363	n/a	2	63	ButtonPress	AvoidedLoss	True
601.479	0.24	Lose2	0.5938	n/a	Yes	2.636	n/a	n/a	GoodResponse	0	n/a	n/a	2	63	Blank	AvoidedLoss	True
601.713	1.45	Lose2	0.5938	n/a	Yes	2.636	n/a	5.0	GoodResponse	0	0.017	600.73	2	63	Feedback	AvoidedLoss	True
603.167	2.636	Lose2	0.5938	n/a	Yes	2.636	n/a	n/a	GoodResponse	0	0.0	n/a	2	63	ISIslide	AvoidedLoss	True
605.825	0.25	Win2	0.6	0.0	Yes	3.125	0.025	n/a	GoodResponse	1	n/a	n/a	3	64	Cue	Win	True
606.076	4.15	Win2	0.6	0.0	Yes	3.125	0.001	n/a	GoodResponse	1	n/a	n/a	3	64	Fixation	Win	True
610.221	0.47	Win2	0.6	0.004	Yes	3.125	-0.004	4.0	GoodResponse	1	0.272	609.493	3	64	Target	Win	True
610.493	0.3	Win2	0.6	0.004	Yes	3.125	-0.004	4.0	GoodResponse	1	0.272	n/a	3	64	ButtonPress	Win	True
610.706	0.23	Win2	0.6	n/a	Yes	3.125	n/a	n/a	GoodResponse	1	n/a	n/a	3	64	Blank	Win	True
610.924	1.45	Win2	0.6	n/a	Yes	3.125	n/a	5.0	GoodResponse	1	0.026	609.95	3	64	Feedback	Win	True
612.378	3.125	Win2	0.6	n/a	Yes	3.125	n/a	n/a	GoodResponse	1	0.0	n/a	3	64	ISIslide	Win	True
615.521	0.25	Control	0.6061	0.0	Yes	2.779	0.021	n/a	GoodResponse	0	n/a	n/a	3	65	Cue	Neutral	True
615.771	4.0	Control	0.6061	0.001	Yes	2.779	0.0	n/a	GoodResponse	0	n/a	n/a	3	65	Fixation	Neutral	True
619.767	0.48	Control	0.6061	0.004	Yes	2.779	-0.004	4.0	GoodResponse	0	0.387	619.154	3	65	Target	Neutral	True
620.154	0.3	Control	0.6061	0.004	Yes	2.779	-0.004	4.0	GoodResponse	0	0.387	n/a	3	65	ButtonPress	Neutral	True
620.252	0.22	Control	0.6061	n/a	Yes	2.779	n/a	n/a	GoodResponse	0	n/a	n/a	3	65	Blank	Neutral	True
620.469	1.45	Control	0.6061	n/a	Yes	2.779	n/a	5.0	GoodResponse	0	0.042	619.511	3	65	Feedback	Neutral	True
621.923	2.779	Control	0.6061	n/a	Yes	2.779	n/a	n/a	GoodResponse	0	0.0	n/a	3	65	ISIslide	Neutral	True
624.715	0.25	Win2	0.6119	0.0	Yes	2.785	0.015	n/a	GoodResponse	1	n/a	n/a	4	66	Cue	Win	True
624.966	3.9	Win2	0.6119	0.0	Yes	2.785	0.001	n/a	GoodResponse	1	n/a	n/a	4	66	Fixation	Win	True
628.861	0.49	Win2	0.6119	0.004	Yes	2.785	-0.004	4.0	GoodResponse	1	0.307	628.168	4	66	Target	Win	True
629.168	0.3	Win2	0.6119	0.004	Yes	2.785	-0.004	4.0	GoodResponse	1	0.307	n/a	4	66	ButtonPress	Win	True
629.362	0.21	Win2	0.6119	n/a	Yes	2.785	n/a	n/a	GoodResponse	1	n/a	n/a	4	66	Blank	Win	True
629.563	1.45	Win2	0.6119	n/a	Yes	2.785	n/a	5.0	GoodResponse	1	0.021	628.584	4	66	Feedback	Win	True
631.017	2.785	Win2	0.6119	n/a	Yes	2.785	n/a	n/a	GoodResponse	1	0.0	n/a	4	66	ISIslide	Win	True
633.826	0.25	Control	0.6175999999999999	0.0	Yes	2.724	0.026	n/a	GoodResponse	0	n/a	n/a	4	67	Cue	Neutral	True
634.076	3.95	Control	0.6175999999999999	0.0	Yes	2.724	0.0	n/a	GoodResponse	0	n/a	n/a	4	67	Fixation	Neutral	True
638.022	0.5	Control	0.6175999999999999	0.004	Yes	2.724	-0.004	4.0	GoodResponse	0	0.317	637.339	4	67	Target	Neutral	True
638.339	0.3	Control	0.6175999999999999	0.004	Yes	2.724	-0.004	4.0	GoodResponse	0	0.317	n/a	4	67	ButtonPress	Neutral	True
638.523	0.2	Control	0.6175999999999999	n/a	Yes	2.724	n/a	n/a	GoodResponse	0	n/a	n/a	4	67	Blank	Neutral	True
638.724	1.45	Control	0.6175999999999999	n/a	Yes	2.724	n/a	5.0	GoodResponse	0	0.03	637.754	4	67	Feedback	Neutral	True
640.178	2.724	Control	0.6175999999999999	n/a	Yes	2.724	n/a	n/a	GoodResponse	0	0.0	n/a	4	67	ISIslide	Neutral	True
642.92	0.25	Win2	0.6232	0.0	Yes	3.08	0.02	n/a	GoodResponse	1	n/a	n/a	5	68	Cue	Win	True
643.17	4.0	Win2	0.6232	0.0	Yes	3.08	0.0	n/a	GoodResponse	1	n/a	n/a	5	68	Fixation	Win	True
647.166	0.5	Win2	0.6232	0.004	Yes	3.08	-0.004	4.0	GoodResponse	1	0.258	646.424	5	68	Target	Win	True
647.424	0.3	Win2	0.6232	0.004	Yes	3.08	-0.004	4.0	GoodResponse	1	0.258	n/a	5	68	ButtonPress	Win	True
647.667	0.2	Win2	0.6232	n/a	Yes	3.08	n/a	n/a	GoodResponse	1	n/a	n/a	5	68	Blank	Win	True
647.868	1.45	Win2	0.6232	n/a	Yes	3.08	n/a	5.0	GoodResponse	1	0.008	646.876	5	68	Feedback	Win	True
649.322	3.08	Win2	0.6232	n/a	Yes	3.08	n/a	n/a	GoodResponse	1	0.0	n/a	5	68	ISIslide	Win	True
652.415	0.25	Win2	0.6286	0.0	Yes	3.235	0.015	n/a	GoodResponse	1	n/a	n/a	6	69	Cue	Win	True
652.665	3.95	Win2	0.6286	0.001	Yes	3.235	0.0	n/a	GoodResponse	1	n/a	n/a	6	69	Fixation	Win	True
656.611	0.5	Win2	0.6286	0.004	Yes	3.235	-0.004	4.0	GoodResponse	1	0.329	655.94	6	69	Target	Win	True
656.94	0.3	Win2	0.6286	0.004	Yes	3.235	-0.004	4.0	GoodResponse	1	0.329	n/a	6	69	ButtonPress	Win	True
657.112	0.2	Win2	0.6286	n/a	Yes	3.235	n/a	n/a	GoodResponse	1	n/a	n/a	6	69	Blank	Win	True
657.313	1.45	Win2	0.6286	n/a	Yes	3.235	n/a	5.0	GoodResponse	1	0.027	656.34	6	69	Feedback	Win	True
658.767	3.235	Win2	0.6286	n/a	Yes	3.235	n/a	n/a	GoodResponse	1	0.0	n/a	6	69	ISIslide	Win	True
662.027	0.25	Lose2	0.6338	0.0	Yes	3.023	0.027	n/a	GoodResponse	0	n/a	n/a	6	70	Cue	AvoidedLoss	True
662.278	4.05	Lose2	0.6338	0.0	Yes	3.023	0.001	n/a	GoodResponse	0	n/a	n/a	6	70	Fixation	AvoidedLoss	True
666.323	0.5	Lose2	0.6338	0.004	Yes	3.023	-0.004	4.0	GoodResponse	0	0.309	665.632	6	70	Target	AvoidedLoss	True
666.632	0.3	Lose2	0.6338	0.004	Yes	3.023	-0.004	4.0	GoodResponse	0	0.309	n/a	6	70	ButtonPress	AvoidedLoss	True
666.825	0.2	Lose2	0.6338	n/a	Yes	3.023	n/a	n/a	GoodResponse	0	n/a	n/a	6	70	Blank	AvoidedLoss	True
667.025	1.45	Lose2	0.6338	n/a	Yes	3.023	n/a	5.0	GoodResponse	0	0.022	666.047	6	70	Feedback	AvoidedLoss	True
668.48	3.023	Lose2	0.6338	n/a	Yes	3.023	n/a	n/a	GoodResponse	0	0.0	n/a	6	70	ISIslide	AvoidedLoss	True
671.522	0.25	Win2	0.6389	0.0	Yes	2.728	0.022	n/a	GoodResponse	1	n/a	n/a	7	71	Cue	Win	True
671.773	4.05	Win2	0.6389	0.0	Yes	2.728	0.001	n/a	GoodResponse	1	n/a	n/a	7	71	Fixation	Win	True
675.818	0.5	Win2	0.6389	0.004	Yes	2.728	-0.004	4.0	GoodResponse	1	0.292	675.11	7	71	Target	Win	True
676.11	0.3	Win2	0.6389	0.004	Yes	2.728	-0.004	4.0	GoodResponse	1	0.292	n/a	7	71	ButtonPress	Win	True
676.32	0.2	Win2	0.6389	n/a	Yes	2.728	n/a	n/a	GoodResponse	1	n/a	n/a	7	71	Blank	Win	True
676.52	1.45	Win2	0.6389	n/a	Yes	2.728	n/a	5.0	GoodResponse	1	0.039	675.559	7	71	Feedback	Win	True
677.975	2.728	Win2	0.6389	n/a	Yes	2.728	n/a	n/a	GoodResponse	1	0.0	n/a	7	71	ISIslide	Win	True
680.716	0.25	Win2	0.6301	0.0	No	2.784	0.016	n/a	NoResponse	0	n/a	n/a	7	72	Cue	MissedWin	False
680.967	4.1	Win2	0.6301	0.0	No	2.784	0.001	n/a	NoResponse	0	n/a	n/a	7	72	Fixation	MissedWin	False
685.063	0.5	Win2	0.6301	0.003	No	2.784	-0.003	n/a	NoResponse	0	n/a	n/a	7	72	Target	MissedWin	False
685.564	0.2	Win2	0.6301	n/a	No	2.784	n/a	n/a	NoResponse	0	n/a	n/a	7	72	Blank	MissedWin	False
685.765	1.45	Win2	0.6301	n/a	No	2.784	n/a	5.0	NoResponse	0	0.014	684.779	7	72	Feedback	MissedWin	False
687.219	2.784	Win2	0.6301	n/a	No	2.784	n/a	n/a	NoResponse	0	0.0	n/a	7	72	ISIslide	MissedWin	False
690.028	0.25	Win2	0.6215999999999999	0.0	No	2.672	0.028	n/a	NoResponse	0	n/a	n/a	7	73	Cue	MissedWin	True
690.278	4.0	Win2	0.6215999999999999	0.0	No	2.672	0.0	n/a	NoResponse	0	n/a	n/a	7	73	Fixation	MissedWin	True
694.274	0.5	Win2	0.6215999999999999	0.004	No	2.672	-0.004	4.0	NoResponse	0	0.555	693.829	7	73	Target	MissedWin	True
694.775	0.2	Win2	0.6215999999999999	n/a	No	2.672	n/a	n/a	NoResponse	0	n/a	n/a	7	73	Blank	MissedWin	True
694.829	0.3	Win2	0.6215999999999999	0.004	No	2.672	-0.004	4.0	NoResponse	0	0.555	n/a	7	73	ButtonPress	MissedWin	True
694.976	1.45	Win2	0.6215999999999999	n/a	No	2.672	n/a	5.0	NoResponse	0	0.023	693.999	7	73	Feedback	MissedWin	True
696.43	2.672	Win2	0.6215999999999999	n/a	No	2.672	n/a	n/a	NoResponse	0	0.0	n/a	7	73	ISIslide	MissedWin	True
699.122	0.25	Lose2	0.6133	0.0	No	2.628	0.022	n/a	NoResponse	-1	n/a	n/a	6	74	Cue	Loss	True
699.372	4.05	Lose2	0.6133	0.0	No	2.628	0.0	n/a	NoResponse	-1	n/a	n/a	6	74	Fixation	Loss	True
703.418	0.5	Lose2	0.6133	0.004	No	2.628	-0.004	4.0	NoResponse	-1	0.509	702.927	6	74	Target	Loss	True
703.919	0.2	Lose2	0.6133	n/a	No	2.628	n/a	n/a	NoResponse	-1	n/a	n/a	6	74	Blank	Loss	True
703.927	0.3	Lose2	0.6133	0.004	No	2.628	-0.004	4.0	NoResponse	-1	0.509	n/a	6	74	ButtonPress	Loss	True
704.12	1.45	Lose2	0.6133	n/a	No	2.628	n/a	5.0	NoResponse	-1	0.0	703.12	6	74	Feedback	Loss	True
705.574	2.628	Lose2	0.6133	n/a	No	2.628	n/a	n/a	NoResponse	-1	0.0	n/a	6	74	ISIslide	Loss	True
708.215	0.25	Lose2	0.6184000000000001	0.001	Yes	2.935	0.015	n/a	GoodResponse	0	n/a	n/a	6	75	Cue	AvoidedLoss	True
708.466	3.95	Lose2	0.6184000000000001	0.0	Yes	2.935	0.001	n/a	GoodResponse	0	n/a	n/a	6	75	Fixation	AvoidedLoss	True
712.411	0.5	Lose2	0.6184000000000001	0.004	Yes	2.935	-0.004	4.0	GoodResponse	0	0.257	711.668	6	75	Target	AvoidedLoss	True
712.668	0.3	Lose2	0.6184000000000001	0.004	Yes	2.935	-0.004	4.0	GoodResponse	0	0.257	n/a	6	75	ButtonPress	AvoidedLoss	True
712.913	0.2	Lose2	0.6184000000000001	n/a	Yes	2.935	n/a	n/a	GoodResponse	0	n/a	n/a	6	75	Blank	AvoidedLoss	True
713.113	1.45	Lose2	0.6184000000000001	n/a	Yes	2.935	n/a	5.0	GoodResponse	0	0.031	712.144	6	75	Feedback	AvoidedLoss	True
714.568	2.935	Lose2	0.6184000000000001	n/a	Yes	2.935	n/a	n/a	GoodResponse	0	0.0	n/a	6	75	ISIslide	AvoidedLoss	True
717.527	0.25	Control	0.6234000000000001	0.0	Yes	3.223	0.027	n/a	GoodResponse	0	n/a	n/a	6	76	Cue	Neutral	True
717.777	4.05	Control	0.6234000000000001	0.001	Yes	3.223	0.0	n/a	GoodResponse	0	n/a	n/a	6	76	Fixation	Neutral	True
721.823	0.5	Control	0.6234000000000001	0.004	Yes	3.223	-0.004	4.0	GoodResponse	0	0.308	721.131	6	76	Target	Neutral	True
722.131	0.3	Control	0.6234000000000001	0.004	Yes	3.223	-0.004	4.0	GoodResponse	0	0.308	n/a	6	76	ButtonPress	Neutral	True
722.324	0.2	Control	0.6234000000000001	n/a	Yes	3.223	n/a	n/a	GoodResponse	0	n/a	n/a	6	76	Blank	Neutral	True
722.525	1.45	Control	0.6234000000000001	n/a	Yes	3.223	n/a	5.0	GoodResponse	0	0.034	721.559	6	76	Feedback	Neutral	True
723.979	3.223	Control	0.6234000000000001	n/a	Yes	3.223	n/a	n/a	GoodResponse	0	0.0	n/a	6	76	ISIslide	Neutral	True
727.222	0.25	Lose2	0.6282	0.001	Yes	2.578	0.022	n/a	GoodResponse	0	n/a	n/a	6	77	Cue	AvoidedLoss	True
727.473	3.95	Lose2	0.6282	0.0	Yes	2.578	0.001	n/a	GoodResponse	0	n/a	n/a	6	77	Fixation	AvoidedLoss	True
731.418	0.5	Lose2	0.6282	0.004	Yes	2.578	-0.004	4.0	GoodResponse	0	0.24	730.658	6	77	Target	AvoidedLoss	True
731.658	0.3	Lose2	0.6282	0.004	Yes	2.578	-0.004	4.0	GoodResponse	0	0.24	n/a	6	77	ButtonPress	AvoidedLoss	True
731.92	0.2	Lose2	0.6282	n/a	Yes	2.578	n/a	n/a	GoodResponse	0	n/a	n/a	6	77	Blank	AvoidedLoss	True
732.121	1.45	Lose2	0.6282	n/a	Yes	2.578	n/a	5.0	GoodResponse	0	0.048	731.169	6	77	Feedback	AvoidedLoss	True
733.575	2.578	Lose2	0.6282	n/a	Yes	2.578	n/a	n/a	GoodResponse	0	0.0	n/a	6	77	ISIslide	AvoidedLoss	True
