onset	duration	cue_type	current_mean_accuracy	duration_error	is_hit	isi_adjusted	onset_delay	response	response_type	reward	rt	rt_time	total_reward	trial_number	trial_phase	trial_type	one_press
11.11	0.25	Control	1.0	0.0	Yes	2.94	0.01	n/a	GoodResponse	0	n/a	n/a	0	0	Cue	Neutral	False
11.36	3.85	Control	1.0	0.0	Yes	2.94	0.0	4.0	GoodResponse	0	0.427	10.787	0	0	Fixation	Neutral	False
11.787	0.3	Control	1.0	0.0	Yes	2.94	0.0	4.0	GoodResponse	0	0.427	n/a	0	0	ButtonPress	Neutral	False
15.208	0.4	Control	1.0	0.002	Yes	2.94	-0.002	4.0	GoodResponse	0	0.234	14.442	0	0	Target	Neutral	False
15.442	0.3	Control	1.0	0.002	Yes	2.94	-0.002	4.0	GoodResponse	0	0.234	n/a	0	0	ButtonPress	Neutral	False
15.608	0.3	Control	1.0	n/a	Yes	2.94	n/a	n/a	GoodResponse	0	n/a	n/a	0	0	Blank	Neutral	False
15.908	1.45	Control	1.0	n/a	Yes	2.94	n/a	5.0	GoodResponse	0	1.092	16.0	0	0	Feedback	Neutral	False
17.358	2.94	Control	1.0	n/a	Yes	2.94	n/a	n/a	GoodResponse	0	0.0	n/a	0	0	ISIslide	Neutral	False
20.323	0.25	Lose2	1.0	0.0	Yes	2.777	0.023	n/a	GoodResponse	0	n/a	n/a	0	1	Cue	AvoidedLoss	True
20.573	4.0	Lose2	1.0	0.0	Yes	2.777	0.0	n/a	GoodResponse	0	n/a	n/a	0	1	Fixation	AvoidedLoss	True
24.572	0.39	Lose2	1.0	0.001	Yes	2.777	-0.001	4.0	GoodResponse	0	0.276	23.848	0	1	Target	AvoidedLoss	True
24.848	0.3	Lose2	1.0	0.001	Yes	2.777	-0.001	4.0	GoodResponse	0	0.276	n/a	0	1	ButtonPress	AvoidedLoss	True
24.972	0.31	Lose2	1.0	n/a	Yes	2.777	n/a	n/a	GoodResponse	0	n/a	n/a	0	1	Blank	AvoidedLoss	True
25.272	1.45	Lose2	1.0	n/a	Yes	2.777	n/a	n/a	GoodResponse	0	n/a	n/a	0	1	Feedback	AvoidedLoss	True
26.721	2.777	Lose2	1.0	n/a	Yes	2.777	n/a	n/a	GoodResponse	0	0.0	n/a	0	1	ISIslide	AvoidedLoss	True
29.52	0.25	Control	1.0	0.0	Yes	2.58	0.02	n/a	GoodResponse	0	n/a	n/a	0	2	Cue	Neutral	True
29.77	4.1	Control	1.0	0.0	Yes	2.58	0.0	n/a	GoodResponse	0	n/a	n/a	0	2	Fixation	Neutral	True
33.869	0.38	Control	1.0	0.001	Yes	2.58	-0.001	4.0	GoodResponse	0	0.347	33.216	0	2	Target	Neutral	True
34.216	0.3	Control	1.0	0.001	Yes	2.58	-0.001	4.0	GoodResponse	0	0.347	n/a	0	2	ButtonPress	Neutral	True
34.252	0.32	Control	1.0	n/a	Yes	2.58	n/a	n/a	GoodResponse	0	n/a	n/a	0	2	Blank	Neutral	True
34.568	1.45	Control	1.0	n/a	Yes	2.58	n/a	5.0	GoodResponse	0	0.432	34.0	0	2	Feedback	Neutral	True
36.018	2.58	Control	1.0	n/a	Yes	2.58	n/a	n/a	GoodResponse	0	0.0	n/a	0	2	ISIslide	Neutral	True
38.617	0.25	Win2	1.0	0.0	Yes	2.833	0.017	n/a	GoodResponse	1	n/a	n/a	1	3	Cue	Win	True
38.867	3.95	Win2	1.0	0.0	Yes	2.833	0.0	n/a	GoodResponse	1	n/a	n/a	1	3	Fixation	Win	True
42.815	0.37	Win2	1.0	0.002	Yes	2.833	-0.002	4.0	GoodResponse	1	0.263	42.078	1	3	Target	Win	True
43.078	0.3	Win2	1.0	0.002	Yes	2.833	-0.002	4.0	GoodResponse	1	0.263	n/a	1	3	ButtonPress	Win	True
43.199	0.33	Win2	1.0	n/a	Yes	2.833	n/a	n/a	GoodResponse	1	n/a	n/a	1	3	Blank	Win	True
43.515	1.45	Win2	1.0	n/a	Yes	2.833	n/a	n/a	GoodResponse	1	n/a	n/a	1	3	Feedback	Win	True
44.965	2.833	Win2	1.0	n/a	Yes	2.833	n/a	n/a	GoodResponse	1	0.0	n/a	1	3	ISIslide	Win	True
47.814	0.25	Win2	1.0	0.0	Yes	3.286	0.014	n/a	GoodResponse	1	n/a	n/a	2	4	Cue	Win	True
48.063	4.0	Win2	1.0	0.001	Yes	3.286	-0.001	n/a	GoodResponse	1	n/a	n/a	2	4	Fixation	Win	True
52.062	0.36	Win2	1.0	0.002	Yes	3.286	-0.002	4.0	GoodResponse	1	0.253	51.315	2	4	Target	Win	True
52.315	0.3	Win2	1.0	0.002	Yes	3.286	-0.002	4.0	GoodResponse	1	0.253	n/a	2	4	ButtonPress	Win	True
52.429	0.34	Win2	1.0	n/a	Yes	3.286	n/a	n/a	GoodResponse	1	n/a	n/a	2	4	Blank	Win	True
52.762	1.45	Win2	1.0	n/a	Yes	3.286	n/a	5.0	GoodResponse	1	0.237	51.999	2	4	Feedback	Win	True
54.211	3.286	Win2	1.0	n/a	Yes	3.286	n/a	n/a	GoodResponse	1	0.0	n/a	2	4	ISIslide	Win	True
57.527	0.25	Win2	1.0	0.0	Yes	2.773	0.027	n/a	GoodResponse	1	n/a	n/a	3	5	Cue	Win	True
57.777	4.0	Win2	1.0	0.0	Yes	2.773	0.0	n/a	GoodResponse	1	n/a	n/a	3	5	Fixation	Win	True
61.775	0.35	Win2	1.0	0.002	Yes	2.773	-0.002	4.0	GoodResponse	1	0.223	60.998	3	5	Target	Win	True
61.998	0.3	Win2	1.0	0.002	Yes	2.773	-0.002	4.0	GoodResponse	1	0.223	n/a	3	5	ButtonPress	Win	True
62.125	0.35	Win2	1.0	n/a	Yes	2.773	n/a	n/a	GoodResponse	1	n/a	n/a	3	5	Blank	Win	True
62.475	1.45	Win2	1.0	n/a	Yes	2.773	n/a	5.0	GoodResponse	1	0.524	61.999	3	5	Feedback	Win	True
63.925	2.773	Win2	1.0	n/a	Yes	2.773	n/a	n/a	GoodResponse	1	0.0	n/a	3	5	ISIslide	Win	True
66.724	0.25	Lose2	1.0	0.0	Yes	2.726	0.024	n/a	GoodResponse	0	n/a	n/a	3	6	Cue	AvoidedLoss	True
66.974	3.95	Lose2	1.0	0.0	Yes	2.726	0.0	n/a	GoodResponse	0	n/a	n/a	3	6	Fixation	AvoidedLoss	True
70.922	0.34	Lose2	1.0	0.002	Yes	2.726	-0.002	4.0	GoodResponse	0	0.246	70.168	3	6	Target	AvoidedLoss	True
71.168	0.3	Lose2	1.0	0.002	Yes	2.726	-0.002	4.0	GoodResponse	0	0.246	n/a	3	6	ButtonPress	AvoidedLoss	True
71.272	0.36	Lose2	1.0	n/a	Yes	2.726	n/a	n/a	GoodResponse	0	n/a	n/a	3	6	Blank	AvoidedLoss	True
71.622	1.45	Lose2	1.0	n/a	Yes	2.726	n/a	5.0	GoodResponse	0	1.377	71.999	3	6	Feedback	AvoidedLoss	True
73.071	2.726	Lose2	1.0	n/a	Yes	2.726	n/a	n/a	GoodResponse	0	0.0	n/a	3	6	ISIslide	AvoidedLoss	True
75.82	0.25	Lose2	1.0	0.0	Yes	4.03	0.02	n/a	GoodResponse	0	n/a	n/a	3	7	Cue	AvoidedLoss	True
76.07	4.05	Lose2	1.0	0.0	Yes	4.03	0.0	n/a	GoodResponse	0	n/a	n/a	3	7	Fixation	AvoidedLoss	True
80.119	0.33	Lose2	1.0	0.001	Yes	4.03	-0.001	4.0	GoodResponse	0	0.263	79.382	3	7	Target	AvoidedLoss	True
80.382	0.3	Lose2	1.0	0.001	Yes	4.03	-0.001	4.0	GoodResponse	0	0.263	n/a	3	7	ButtonPress	AvoidedLoss	True
80.452	0.37	Lose2	1.0	n/a	Yes	4.03	n/a	n/a	GoodResponse	0	n/a	n/a	3	7	Blank	AvoidedLoss	True
80.819	1.45	Lose2	1.0	n/a	Yes	4.03	n/a	5.0	GoodResponse	0	0.18	79.999	3	7	Feedback	AvoidedLoss	True
82.268	4.03	Lose2	1.0	n/a	Yes	4.03	n/a	n/a	GoodResponse	0	0.0	n/a	3	7	ISIslide	AvoidedLoss	True
86.317	0.25	Lose2	0.8889	0.0	No	3.033	0.017	n/a	NoResponse	-1	n/a	n/a	2	8	Cue	Loss	True
86.567	3.95	Lose2	0.8889	0.0	No	3.033	0.0	n/a	NoResponse	-1	n/a	n/a	2	8	Fixation	Loss	True
90.515	0.32	Lose2	0.8889	0.002	No	3.033	-0.002	4.0	NoResponse	-1	0.37	89.885	2	8	Target	Loss	True
90.848	0.38	Lose2	0.8889	n/a	No	3.033	n/a	n/a	NoResponse	-1	n/a	n/a	2	8	Blank	Loss	True
90.885	0.3	Lose2	0.8889	0.002	No	3.033	-0.002	4.0	NoResponse	-1	0.37	n/a	2	8	ButtonPress	Loss	True
91.215	1.45	Lose2	0.8889	n/a	No	3.033	n/a	n/a	NoResponse	-1	n/a	n/a	2	8	Feedback	Loss	True
92.664	3.033	Lose2	0.8889	n/a	No	3.033	n/a	n/a	NoResponse	-1	0.0	n/a	2	8	ISIslide	Loss	True
95.73	0.25	Lose2	0.9	0.0	Yes	3.12	0.03	n/a	GoodResponse	0	n/a	n/a	2	9	Cue	AvoidedLoss	True
95.98	3.95	Lose2	0.9	0.0	Yes	3.12	0.0	n/a	GoodResponse	0	n/a	n/a	2	9	Fixation	AvoidedLoss	True
99.929	0.31	Lose2	0.9	0.001	Yes	3.12	-0.001	4.0	GoodResponse	0	0.294	99.223	2	9	Target	AvoidedLoss	True
100.223	0.3	Lose2	0.9	0.001	Yes	3.12	-0.001	4.0	GoodResponse	0	0.294	n/a	2	9	ButtonPress	AvoidedLoss	True
100.245	0.39	Lose2	0.9	n/a	Yes	3.12	n/a	n/a	GoodResponse	0	n/a	n/a	2	9	Blank	AvoidedLoss	True
100.628	1.45	Lose2	0.9	n/a	Yes	3.12	n/a	5.0	GoodResponse	0	0.371	99.999	2	9	Feedback	AvoidedLoss	True
102.078	3.12	Lose2	0.9	n/a	Yes	3.12	n/a	n/a	GoodResponse	0	0.0	n/a	2	9	ISIslide	AvoidedLoss	True
105.227	0.25	Control	0.9091	0.0	Yes	3.273	0.027	n/a	GoodResponse	0	n/a	n/a	2	10	Cue	Neutral	True
105.477	4.0	Control	0.9091	0.0	Yes	3.273	0.0	n/a	GoodResponse	0	n/a	n/a	2	10	Fixation	Neutral	True
109.475	0.3	Control	0.9091	0.002	Yes	3.273	-0.002	4.0	GoodResponse	0	0.27	108.745	2	10	Target	Neutral	True
109.745	0.3	Control	0.9091	0.002	Yes	3.273	-0.002	4.0	GoodResponse	0	0.27	n/a	2	10	ButtonPress	Neutral	True
109.775	0.4	Control	0.9091	n/a	Yes	3.273	n/a	n/a	GoodResponse	0	n/a	n/a	2	10	Blank	Neutral	True
110.175	1.45	Control	0.9091	n/a	Yes	3.273	n/a	5.0	GoodResponse	0	0.824	109.999	2	10	Feedback	Neutral	True
111.624	3.273	Control	0.9091	n/a	Yes	3.273	n/a	n/a	GoodResponse	0	0.0	n/a	2	10	ISIslide	Neutral	True
114.923	0.25	Lose2	0.8332999999999999	0.0	No	2.727	0.023	n/a	PrematurePress	-1	n/a	n/a	1	11	Cue	Loss	True
115.173	4.05	Lose2	0.8332999999999999	0.0	No	2.727	0.0	n/a	PrematurePress	-1	n/a	n/a	1	11	Fixation	Loss	True
119.222	0.29	Lose2	0.8332999999999999	0.001	No	2.727	-0.001	4.0	PrematurePress	-1	0.098	118.32	1	11	Target	Loss	True
119.32	0.3	Lose2	0.8332999999999999	0.001	No	2.727	-0.001	4.0	PrematurePress	-1	0.098	n/a	1	11	ButtonPress	Loss	True
119.522	0.41	Lose2	0.8332999999999999	n/a	No	2.727	n/a	n/a	PrematurePress	-1	n/a	n/a	1	11	Blank	Loss	True
119.922	1.45	Lose2	0.8332999999999999	n/a	No	2.727	n/a	5.0	PrematurePress	-1	1.077	119.999	1	11	Feedback	Loss	True
121.371	2.727	Lose2	0.8332999999999999	n/a	No	2.727	n/a	n/a	PrematurePress	-1	0.0	n/a	1	11	ISIslide	Loss	True
124.12	0.25	Control	0.7692	0.0	No	2.98	0.02	n/a	NoResponse	0	n/a	n/a	1	12	Cue	Neutral	True
124.37	3.9	Control	0.7692	0.0	No	2.98	0.0	n/a	NoResponse	0	n/a	n/a	1	12	Fixation	Neutral	True
128.269	0.28	Control	0.7692	0.001	No	2.98	-0.001	4.0	NoResponse	0	0.388	127.657	1	12	Target	Neutral	True
128.552	0.42	Control	0.7692	n/a	No	2.98	n/a	n/a	NoResponse	0	n/a	n/a	1	12	Blank	Neutral	True
128.657	0.3	Control	0.7692	0.001	No	2.98	-0.001	4.0	NoResponse	0	0.388	n/a	1	12	ButtonPress	Neutral	True
128.968	1.45	Control	0.7692	n/a	No	2.98	n/a	5.0	NoResponse	0	0.031	127.999	1	12	Feedback	Neutral	True
130.418	2.98	Control	0.7692	n/a	No	2.98	n/a	n/a	NoResponse	0	0.0	n/a	1	12	ISIslide	Neutral	True
133.417	0.25	Control	0.7857	0.0	Yes	2.783	0.017	n/a	GoodResponse	0	n/a	n/a	1	13	Cue	Neutral	True
133.667	4.0	Control	0.7857	0.0	Yes	2.783	0.0	n/a	GoodResponse	0	n/a	n/a	1	13	Fixation	Neutral	True
137.665	0.27	Control	0.7857	0.002	Yes	2.783	-0.002	4.0	GoodResponse	0	0.242	136.907	1	13	Target	Neutral	True
137.907	0.3	Control	0.7857	0.002	Yes	2.783	-0.002	4.0	GoodResponse	0	0.242	n/a	1	13	ButtonPress	Neutral	True
137.948	0.43	Control	0.7857	n/a	Yes	2.783	n/a	n/a	GoodResponse	0	n/a	n/a	1	13	Blank	Neutral	True
138.365	1.45	Control	0.7857	n/a	Yes	2.783	n/a	5.0	GoodResponse	0	0.633	137.998	1	13	Feedback	Neutral	True
139.815	2.783	Control	0.7857	n/a	Yes	2.783	n/a	n/a	GoodResponse	0	0.0	n/a	1	13	ISIslide	Neutral	True
142.614	0.25	Win2	0.8	0.0	Yes	2.686	0.014	n/a	GoodResponse	1	n/a	n/a	2	14	Cue	Win	True
142.863	4.1	Win2	0.8	0.001	Yes	2.686	-0.001	n/a	GoodResponse	1	n/a	n/a	2	14	Fixation	Win	True
146.962	0.26	Win2	0.8	0.002	Yes	2.686	-0.002	4.0	GoodResponse	1	0.235	146.197	2	14	Target	Win	True
147.197	0.3	Win2	0.8	0.002	Yes	2.686	-0.002	4.0	GoodResponse	1	0.235	n/a	2	14	ButtonPress	Win	True
147.229	0.44	Win2	0.8	n/a	Yes	2.686	n/a	n/a	GoodResponse	1	n/a	n/a	2	14	Blank	Win	True
147.662	1.45	Win2	0.8	n/a	Yes	2.686	n/a	5.0	GoodResponse	1	1.336	147.998	2	14	Feedback	Win	True
149.111	2.686	Win2	0.8	n/a	Yes	2.686	n/a	n/a	GoodResponse	1	0.0	n/a	2	14	ISIslide	Win	True
151.827	0.25	Control	0.75	0.0	No	2.973	0.027	n/a	NoResponse	0	n/a	n/a	2	15	Cue	Neutral	True
152.077	4.0	Control	0.75	0.0	No	2.973	0.0	n/a	NoResponse	0	n/a	n/a	2	15	Fixation	Neutral	True
156.075	0.25	Control	0.75	0.002	No	2.973	-0.002	4.0	NoResponse	0	0.336	155.411	2	15	Target	Neutral	True
156.325	0.45	Control	0.75	n/a	No	2.973	n/a	n/a	NoResponse	0	n/a	n/a	2	15	Blank	Neutral	True
156.411	0.3	Control	0.75	0.002	No	2.973	-0.002	4.0	NoResponse	0	0.336	n/a	2	15	ButtonPress	Neutral	True
156.775	1.45	Control	0.75	n/a	No	2.973	n/a	5.0	NoResponse	0	0.223	155.998	2	15	Feedback	Neutral	True
158.225	2.973	Control	0.75	n/a	No	2.973	n/a	n/a	NoResponse	0	0.0	n/a	2	15	ISIslide	Neutral	True
161.224	0.25	Win2	0.7646999999999999	0.0	Yes	2.876	0.024	n/a	GoodResponse	1	n/a	n/a	3	16	Cue	Win	True
161.474	4.0	Win2	0.7646999999999999	0.0	Yes	2.876	0.0	n/a	GoodResponse	1	n/a	n/a	3	16	Fixation	Win	True
165.472	0.24	Win2	0.7646999999999999	0.002	Yes	2.876	-0.002	4.0	GoodResponse	1	0.208	164.68	3	16	Target	Win	True
165.68	0.3	Win2	0.7646999999999999	0.002	Yes	2.876	-0.002	4.0	GoodResponse	1	0.208	n/a	3	16	ButtonPress	Win	True
165.722	0.46	Win2	0.7646999999999999	n/a	Yes	2.876	n/a	n/a	GoodResponse	1	n/a	n/a	3	16	Blank	Win	True
166.172	1.45	Win2	0.7646999999999999	n/a	Yes	2.876	n/a	5.0	GoodResponse	1	0.827	165.999	3	16	Feedback	Win	True
167.621	2.876	Win2	0.7646999999999999	n/a	Yes	2.876	n/a	n/a	GoodResponse	1	0.0	n/a	3	16	ISIslide	Win	True
170.52	0.25	Lose2	0.7222	0.0	No	2.73	0.02	n/a	NoResponse	-1	n/a	n/a	2	17	Cue	Loss	True
170.77	3.95	Lose2	0.7222	0.0	No	2.73	0.0	n/a	NoResponse	-1	n/a	n/a	2	17	Fixation	Loss	True
174.719	0.23	Lose2	0.7222	0.001	No	2.73	-0.001	4.0	NoResponse	-1	0.311	174.03	2	17	Target	Loss	True
174.952	0.47	Lose2	0.7222	n/a	No	2.73	n/a	n/a	NoResponse	-1	n/a	n/a	2	17	Blank	Loss	True
175.03	0.3	Lose2	0.7222	0.001	No	2.73	-0.001	4.0	NoResponse	-1	0.311	n/a	2	17	ButtonPress	Loss	True
175.419	1.45	Lose2	0.7222	n/a	No	2.73	n/a	n/a	NoResponse	-1	n/a	n/a	2	17	Feedback	Loss	True
176.868	2.73	Lose2	0.7222	n/a	No	2.73	n/a	n/a	NoResponse	-1	0.0	n/a	2	17	ISIslide	Loss	True
179.617	0.25	Lose2	0.6842	0.0	No	2.733	0.017	n/a	LatePress	-1	n/a	n/a	1	18	Cue	Loss	True
179.867	4.05	Lose2	0.6842	0.0	No	2.733	0.0	n/a	LatePress	-1	n/a	n/a	1	18	Fixation	Loss	True
183.916	0.22	Lose2	0.6842	0.001	No	2.733	-0.001	4.0	LatePress	-1	0.232	183.148	1	18	Target	Loss	True
184.148	0.3	Lose2	0.6842	0.001	No	2.733	-0.001	4.0	LatePress	-1	0.232	n/a	1	18	ButtonPress	Loss	True
184.149	0.48	Lose2	0.6842	n/a	No	2.733	n/a	n/a	LatePress	-1	n/a	n/a	1	18	Blank	Loss	True
184.615	1.45	Lose2	0.6842	n/a	No	2.733	n/a	5.0	LatePress	-1	0.383	183.998	1	18	Feedback	Loss	True
186.065	2.733	Lose2	0.6842	n/a	No	2.733	n/a	n/a	LatePress	-1	0.0	n/a	1	18	ISIslide	Loss	True
188.814	0.25	Control	0.65	0.0	No	2.936	0.014	n/a	NoResponse	0	n/a	n/a	1	19	Cue	Neutral	True
189.064	3.95	Control	0.65	0.0	No	2.936	0.0	n/a	NoResponse	0	n/a	n/a	1	19	Fixation	Neutral	True
193.012	0.21	Control	0.65	0.002	No	2.936	-0.002	4.0	NoResponse	0	0.241	192.253	1	19	Target	Neutral	True
193.229	0.49	Control	0.65	n/a	No	2.936	n/a	n/a	NoResponse	0	n/a	n/a	1	19	Blank	Neutral	True
193.253	0.3	Control	0.65	0.002	No	2.936	-0.002	4.0	NoResponse	0	0.241	n/a	1	19	ButtonPress	Neutral	True
193.712	1.45	Control	0.65	n/a	No	2.936	n/a	5.0	NoResponse	0	1.286	193.998	1	19	Feedback	Neutral	True
195.162	2.936	Control	0.65	n/a	No	2.936	n/a	n/a	NoResponse	0	0.0	n/a	1	19	ISIslide	Neutral	True
198.127	0.25	Control	0.619	0.0	No	2.623	0.027	n/a	NoResponse	0	n/a	n/a	1	20	Cue	Neutral	True
198.377	4.05	Control	0.619	0.0	No	2.623	0.0	n/a	NoResponse	0	n/a	n/a	1	20	Fixation	Neutral	True
202.426	0.22	Control	0.619	0.001	No	2.623	-0.001	4.0	NoResponse	0	0.38	201.806	1	20	Target	Neutral	True
202.642	0.48	Control	0.619	n/a	No	2.623	n/a	n/a	NoResponse	0	n/a	n/a	1	20	Blank	Neutral	True
202.806	0.3	Control	0.619	0.001	No	2.623	-0.001	4.0	NoResponse	0	0.38	n/a	1	20	ButtonPress	Neutral	True
203.126	1.45	Control	0.619	n/a	No	2.623	n/a	n/a	NoResponse	0	n/a	n/a	1	20	Feedback	Neutral	True
204.575	2.623	Control	0.619	n/a	No	2.623	n/a	n/a	NoResponse	0	0.0	n/a	1	20	ISIslide	Neutral	True
207.224	0.25	Control	0.5909	0.0	No	2.776	0.024	n/a	NoResponse	0	n/a	n/a	1	21	Cue	Neutral	False
207.474	4.1	Control	0.5909	0.0	No	2.776	0.0	4.0	NoResponse	0	3.248	209.722	1	21	Fixation	Neutral	False
210.722	0.3	Control	0.5909	0.0	No	2.776	0.0	4.0	NoResponse	0	3.248	n/a	1	21	ButtonPress	Neutral	False
211.573	0.23	Control	0.5909	0.001	No	2.776	-0.001	4.0	NoResponse	0	0.396	210.969	1	21	Target	Neutral	False
211.806	0.47	Control	0.5909	n/a	No	2.776	n/a	n/a	NoResponse	0	n/a	n/a	1	21	Blank	Neutral	False
211.969	0.3	Control	0.5909	0.001	No	2.776	-0.001	4.0	NoResponse	0	0.396	n/a	1	21	ButtonPress	Neutral	False
212.272	1.45	Control	0.5909	n/a	No	2.776	n/a	5.0	NoResponse	0	0.726	211.998	1	21	Feedback	Neutral	False
213.722	2.776	Control	0.5909	n/a	No	2.776	n/a	n/a	NoResponse	0	0.0	n/a	1	21	ISIslide	Neutral	False
216.521	0.25	Control	0.5652	0.0	No	2.779	0.021	n/a	PrematurePress	0	n/a	n/a	1	22	Cue	Neutral	False
216.771	4.0	Control	0.5652	0.0	No	2.779	0.0	4.0	PrematurePress	0	3.375	219.146	1	22	Fixation	Neutral	False
220.146	0.3	Control	0.5652	0.0	No	2.779	0.0	4.0	PrematurePress	0	3.375	n/a	1	22	ButtonPress	Neutral	False
220.769	0.24	Control	0.5652	0.002	No	2.779	-0.002	4.0	PrematurePress	0	0.029	219.798	1	22	Target	Neutral	False
220.798	0.3	Control	0.5652	0.002	No	2.779	-0.002	4.0	PrematurePress	0	0.029	n/a	1	22	ButtonPress	Neutral	False
221.019	0.46	Control	0.5652	n/a	No	2.779	n/a	n/a	PrematurePress	0	n/a	n/a	1	22	Blank	Neutral	False
221.469	1.45	Control	0.5652	n/a	No	2.779	n/a	n/a	PrematurePress	0	n/a	n/a	1	22	Feedback	Neutral	False
222.919	2.779	Control	0.5652	n/a	No	2.779	n/a	n/a	PrematurePress	0	0.0	n/a	1	22	ISIslide	Neutral	False
225.718	0.25	Control	0.5417000000000001	0.0	No	2.782	0.018	n/a	NoResponse	0	n/a	n/a	1	23	Cue	Neutral	True
225.967	3.9	Control	0.5417000000000001	0.001	No	2.782	-0.001	4.0	NoResponse	0	1.34	226.307	1	23	Fixation	Neutral	True
227.307	0.3	Control	0.5417000000000001	0.001	No	2.782	-0.001	4.0	NoResponse	0	1.34	n/a	1	23	ButtonPress	Neutral	True
229.866	0.25	Control	0.5417000000000001	0.002	No	2.782	-0.002	n/a	NoResponse	0	n/a	n/a	1	23	Target	Neutral	True
230.116	0.45	Control	0.5417000000000001	n/a	No	2.782	n/a	n/a	NoResponse	0	n/a	n/a	1	23	Blank	Neutral	True
230.566	1.45	Control	0.5417000000000001	n/a	No	2.782	n/a	5.0	NoResponse	0	0.431	229.997	1	23	Feedback	Neutral	True
232.015	2.782	Control	0.5417000000000001	n/a	No	2.782	n/a	n/a	NoResponse	0	0.0	n/a	1	23	ISIslide	Neutral	True
234.814	0.25	Win2	0.56	0.0	Yes	3.136	0.014	n/a	GoodResponse	1	n/a	n/a	2	24	Cue	Win	False
235.064	3.95	Win2	0.56	0.0	Yes	3.136	0.0	4.0	GoodResponse	1	2.487	236.551	2	24	Fixation	Win	False
237.551	0.3	Win2	0.56	0.0	Yes	3.136	0.0	4.0	GoodResponse	1	2.487	n/a	2	24	ButtonPress	Win	False
239.013	0.26	Win2	0.56	0.001	Yes	3.136	-0.001	4.0	GoodResponse	1	0.18	238.193	2	24	Target	Win	False
239.193	0.3	Win2	0.56	0.001	Yes	3.136	-0.001	4.0	GoodResponse	1	0.18	n/a	2	24	ButtonPress	Win	False
239.279	0.44	Win2	0.56	n/a	Yes	3.136	n/a	n/a	GoodResponse	1	n/a	n/a	2	24	Blank	Win	False
239.713	1.45	Win2	0.56	n/a	Yes	3.136	n/a	5.0	GoodResponse	1	1.285	239.998	2	24	Feedback	Win	False
241.162	3.136	Win2	0.56	n/a	Yes	3.136	n/a	n/a	GoodResponse	1	0.0	n/a	2	24	ISIslide	Win	False
244.328	0.25	Win2	0.5769	0.0	Yes	3.072	0.028	n/a	GoodResponse	1	n/a	n/a	3	25	Cue	Win	False
244.578	4.0	Win2	0.5769	0.0	Yes	3.072	0.0	4.0	GoodResponse	1	0.235	243.813	3	25	Fixation	Win	False
244.813	0.3	Win2	0.5769	0.0	Yes	3.072	0.0	4.0	GoodResponse	1	0.235	n/a	3	25	ButtonPress	Win	False
248.576	0.27	Win2	0.5769	0.002	Yes	3.072	-0.002	4.0	GoodResponse	1	0.128	247.704	3	25	Target	Win	False
248.704	0.3	Win2	0.5769	0.002	Yes	3.072	-0.002	4.0	GoodResponse	1	0.128	n/a	3	25	ButtonPress	Win	False
248.859	0.43	Win2	0.5769	n/a	Yes	3.072	n/a	n/a	GoodResponse	1	n/a	n/a	3	25	Blank	Win	False
249.276	1.45	Win2	0.5769	n/a	Yes	3.072	n/a	n/a	GoodResponse	1	n/a	n/a	3	25	Feedback	Win	False
250.725	3.072	Win2	0.5769	n/a	Yes	3.072	n/a	n/a	GoodResponse	1	0.0	n/a	3	25	ISIslide	Win	False
253.824	0.25	Win2	0.5926	0.0	Yes	2.926	0.024	n/a	GoodResponse	1	n/a	n/a	4	26	Cue	Win	True
254.074	3.95	Win2	0.5926	0.0	Yes	2.926	0.0	n/a	GoodResponse	1	n/a	n/a	4	26	Fixation	Win	True
258.023	0.28	Win2	0.5926	0.001	Yes	2.926	-0.001	4.0	GoodResponse	1	0.24	257.263	4	26	Target	Win	True
258.263	0.3	Win2	0.5926	0.001	Yes	2.926	-0.001	4.0	GoodResponse	1	0.24	n/a	4	26	ButtonPress	Win	True
258.306	0.42	Win2	0.5926	n/a	Yes	2.926	n/a	n/a	GoodResponse	1	n/a	n/a	4	26	Blank	Win	True
258.723	1.45	Win2	0.5926	n/a	Yes	2.926	n/a	5.0	GoodResponse	1	0.275	257.998	4	26	Feedback	Win	True
260.172	2.926	Win2	0.5926	n/a	Yes	2.926	n/a	n/a	GoodResponse	1	0.0	n/a	4	26	ISIslide	Win	True
263.121	0.25	Lose2	0.6071	0.0	Yes	2.829	0.021	n/a	GoodResponse	0	n/a	n/a	4	27	Cue	AvoidedLoss	True
263.371	4.05	Lose2	0.6071	0.0	Yes	2.829	0.0	n/a	GoodResponse	0	n/a	n/a	4	27	Fixation	AvoidedLoss	True
267.42	0.29	Lose2	0.6071	0.001	Yes	2.829	-0.001	4.0	GoodResponse	0	0.281	266.701	4	27	Target	AvoidedLoss	True
267.701	0.3	Lose2	0.6071	0.001	Yes	2.829	-0.001	4.0	GoodResponse	0	0.281	n/a	4	27	ButtonPress	AvoidedLoss	True
267.719	0.41	Lose2	0.6071	n/a	Yes	2.829	n/a	n/a	GoodResponse	0	n/a	n/a	4	27	Blank	AvoidedLoss	True
268.119	1.45	Lose2	0.6071	n/a	Yes	2.829	n/a	5.0	GoodResponse	0	0.878	267.997	4	27	Feedback	AvoidedLoss	True
269.569	2.829	Lose2	0.6071	n/a	Yes	2.829	n/a	n/a	GoodResponse	0	0.0	n/a	4	27	ISIslide	AvoidedLoss	True
272.418	0.25	Control	0.6207	0.0	Yes	2.832	0.018	n/a	GoodResponse	0	n/a	n/a	4	28	Cue	Neutral	True
272.668	4.05	Control	0.6207	0.0	Yes	2.832	0.0	n/a	GoodResponse	0	n/a	n/a	4	28	Fixation	Neutral	True
276.716	0.3	Control	0.6207	0.002	Yes	2.832	-0.002	4.0	GoodResponse	0	0.226	275.942	4	28	Target	Neutral	True
276.942	0.3	Control	0.6207	0.002	Yes	2.832	-0.002	4.0	GoodResponse	0	0.226	n/a	4	28	ButtonPress	Neutral	True
277.016	0.4	Control	0.6207	n/a	Yes	2.832	n/a	n/a	GoodResponse	0	n/a	n/a	4	28	Blank	Neutral	True
277.416	1.45	Control	0.6207	n/a	Yes	2.832	n/a	n/a	GoodResponse	0	n/a	n/a	4	28	Feedback	Neutral	True
278.866	2.832	Control	0.6207	n/a	Yes	2.832	n/a	n/a	GoodResponse	0	0.0	n/a	4	28	ISIslide	Neutral	True
281.715	0.25	Lose2	0.6	0.0	No	2.835	0.015	n/a	NoResponse	-1	n/a	n/a	3	29	Cue	Loss	True
281.964	3.95	Lose2	0.6	0.001	No	2.835	-0.001	n/a	NoResponse	-1	n/a	n/a	3	29	Fixation	Loss	True
285.913	0.31	Lose2	0.6	0.002	No	2.835	-0.002	4.0	NoResponse	-1	0.479	285.392	3	29	Target	Loss	True
286.23	0.39	Lose2	0.6	n/a	No	2.835	n/a	n/a	NoResponse	-1	n/a	n/a	3	29	Blank	Loss	True
286.392	0.3	Lose2	0.6	0.002	No	2.835	-0.002	4.0	NoResponse	-1	0.479	n/a	3	29	ButtonPress	Loss	True
286.613	1.45	Lose2	0.6	n/a	No	2.835	n/a	5.0	NoResponse	-1	0.384	285.997	3	29	Feedback	Loss	True
288.062	2.835	Lose2	0.6	n/a	No	2.835	n/a	n/a	NoResponse	-1	0.0	n/a	3	29	ISIslide	Loss	True
290.928	0.25	Win2	0.5806	0.0	No	2.772	0.028	n/a	NoResponse	0	n/a	n/a	3	30	Cue	MissedWin	True
291.178	3.9	Win2	0.5806	0.0	No	2.772	0.0	n/a	NoResponse	0	n/a	n/a	3	30	Fixation	MissedWin	True
295.076	0.32	Win2	0.5806	0.002	No	2.772	-0.002	4.0	NoResponse	0	0.39	294.466	3	30	Target	MissedWin	True
295.41	0.38	Win2	0.5806	n/a	No	2.772	n/a	n/a	NoResponse	0	n/a	n/a	3	30	Blank	MissedWin	True
295.466	0.3	Win2	0.5806	0.002	No	2.772	-0.002	4.0	NoResponse	0	0.39	n/a	3	30	ButtonPress	MissedWin	True
295.776	1.45	Win2	0.5806	n/a	No	2.772	n/a	5.0	NoResponse	0	1.221	295.997	3	30	Feedback	MissedWin	True
297.226	2.772	Win2	0.5806	n/a	No	2.772	n/a	n/a	NoResponse	0	0.0	n/a	3	30	ISIslide	MissedWin	True
300.025	0.25	Lose2	0.5938	0.0	Yes	2.825	0.025	n/a	GoodResponse	0	n/a	n/a	3	31	Cue	AvoidedLoss	True
300.275	4.05	Lose2	0.5938	0.0	Yes	2.825	0.0	n/a	GoodResponse	0	n/a	n/a	3	31	Fixation	AvoidedLoss	True
304.323	0.33	Lose2	0.5938	0.002	Yes	2.825	-0.002	4.0	GoodResponse	0	0.275	303.598	3	31	Target	AvoidedLoss	True
304.598	0.3	Lose2	0.5938	0.002	Yes	2.825	-0.002	4.0	GoodResponse	0	0.275	n/a	3	31	ButtonPress	AvoidedLoss	True
304.656	0.37	Lose2	0.5938	n/a	Yes	2.825	n/a	n/a	GoodResponse	0	n/a	n/a	3	31	Blank	AvoidedLoss	True
305.023	1.45	Lose2	0.5938	n/a	Yes	2.825	n/a	n/a	GoodResponse	0	n/a	n/a	3	31	Feedback	AvoidedLoss	True
306.472	2.825	Lose2	0.5938	n/a	Yes	2.825	n/a	n/a	GoodResponse	0	0.0	n/a	3	31	ISIslide	AvoidedLoss	True
309.321	0.25	Lose2	0.5758	0.001	No	2.629	0.021	n/a	NoResponse	-1	n/a	n/a	2	32	Cue	Loss	True
309.571	4.15	Lose2	0.5758	0.0	No	2.629	0.0	4.0	NoResponse	-1	0.223	308.794	2	32	Fixation	Loss	True
309.794	0.3	Lose2	0.5758	0.0	No	2.629	0.0	4.0	NoResponse	-1	0.223	n/a	2	32	ButtonPress	Loss	True
313.72	0.34	Lose2	0.5758	0.001	No	2.629	-0.001	n/a	NoResponse	-1	n/a	n/a	2	32	Target	Loss	True
314.07	0.36	Lose2	0.5758	n/a	No	2.629	n/a	n/a	NoResponse	-1	n/a	n/a	2	32	Blank	Loss	True
314.42	1.45	Lose2	0.5758	n/a	No	2.629	n/a	5.0	NoResponse	-1	0.577	313.997	2	32	Feedback	Loss	True
315.869	2.629	Lose2	0.5758	n/a	No	2.629	n/a	n/a	NoResponse	-1	0.0	n/a	2	32	ISIslide	Loss	True
318.518	0.25	Win2	0.5882000000000001	0.0	Yes	2.682	0.018	n/a	GoodResponse	1	n/a	n/a	3	33	Cue	Win	True
318.768	4.0	Win2	0.5882000000000001	0.0	Yes	2.682	0.0	n/a	GoodResponse	1	n/a	n/a	3	33	Fixation	Win	True
322.767	0.35	Win2	0.5882000000000001	0.001	Yes	2.682	-0.001	4.0	GoodResponse	1	0.323	322.09	3	33	Target	Win	True
323.09	0.3	Win2	0.5882000000000001	0.001	Yes	2.682	-0.001	4.0	GoodResponse	1	0.323	n/a	3	33	ButtonPress	Win	True
323.117	0.35	Win2	0.5882000000000001	n/a	Yes	2.682	n/a	n/a	GoodResponse	1	n/a	n/a	3	33	Blank	Win	True
323.466	1.45	Win2	0.5882000000000001	n/a	Yes	2.682	n/a	n/a	GoodResponse	1	n/a	n/a	3	33	Feedback	Win	True
324.916	2.682	Win2	0.5882000000000001	n/a	Yes	2.682	n/a	n/a	GoodResponse	1	0.0	n/a	3	33	ISIslide	Win	True
327.615	0.25	Lose2	0.6	0.0	Yes	2.635	0.015	n/a	GoodResponse	0	n/a	n/a	3	34	Cue	AvoidedLoss	False
327.865	4.05	Lose2	0.6	0.0	Yes	2.635	0.0	4.0	GoodResponse	0	0.152	327.017	3	34	Fixation	AvoidedLoss	False
328.017	0.3	Lose2	0.6	0.0	Yes	2.635	0.0	4.0	GoodResponse	0	0.152	n/a	3	34	ButtonPress	AvoidedLoss	False
331.913	0.36	Lose2	0.6	0.002	Yes	2.635	-0.002	4.0	GoodResponse	0	0.287	331.2	3	34	Target	AvoidedLoss	False
332.2	0.3	Lose2	0.6	0.002	Yes	2.635	-0.002	4.0	GoodResponse	0	0.287	n/a	3	34	ButtonPress	AvoidedLoss	False
332.28	0.34	Lose2	0.6	n/a	Yes	2.635	n/a	n/a	GoodResponse	0	n/a	n/a	3	34	Blank	AvoidedLoss	False
332.613	1.45	Lose2	0.6	n/a	Yes	2.635	n/a	5.0	GoodResponse	0	0.384	331.997	3	34	Feedback	AvoidedLoss	False
334.063	2.635	Lose2	0.6	n/a	Yes	2.635	n/a	n/a	GoodResponse	0	0.0	n/a	3	34	ISIslide	AvoidedLoss	False
336.728	0.25	Lose2	0.5832999999999999	0.001	No	2.672	0.028	n/a	NoResponse	-1	n/a	n/a	2	35	Cue	Loss	True
336.978	4.0	Lose2	0.5832999999999999	0.0	No	2.672	0.0	n/a	NoResponse	-1	n/a	n/a	2	35	Fixation	Loss	True
340.977	0.37	Lose2	0.5832999999999999	0.001	No	2.672	-0.001	4.0	NoResponse	-1	0.446	340.423	2	35	Target	Loss	True
341.344	0.33	Lose2	0.5832999999999999	n/a	No	2.672	n/a	n/a	NoResponse	-1	n/a	n/a	2	35	Blank	Loss	True
341.423	0.3	Lose2	0.5832999999999999	0.001	No	2.672	-0.001	4.0	NoResponse	-1	0.446	n/a	2	35	ButtonPress	Loss	True
341.677	1.45	Lose2	0.5832999999999999	n/a	No	2.672	n/a	5.0	NoResponse	-1	1.32	341.997	2	35	Feedback	Loss	True
343.126	2.672	Lose2	0.5832999999999999	n/a	No	2.672	n/a	n/a	NoResponse	-1	0.0	n/a	2	35	ISIslide	Loss	True
345.825	0.25	Control	0.5676	0.0	No	2.675	0.025	n/a	NoResponse	0	n/a	n/a	2	36	Cue	Neutral	True
346.075	4.0	Control	0.5676	0.0	No	2.675	0.0	4.0	NoResponse	0	3.463	348.538	2	36	Fixation	Neutral	True
349.538	0.3	Control	0.5676	0.0	No	2.675	0.0	4.0	NoResponse	0	3.463	n/a	2	36	ButtonPress	Neutral	True
350.074	0.38	Control	0.5676	0.001	No	2.675	-0.001	n/a	NoResponse	0	n/a	n/a	2	36	Target	Neutral	True
350.457	0.32	Control	0.5676	n/a	No	2.675	n/a	n/a	NoResponse	0	n/a	n/a	2	36	Blank	Neutral	True
350.774	1.45	Control	0.5676	n/a	No	2.675	n/a	5.0	NoResponse	0	0.222	349.996	2	36	Feedback	Neutral	True
352.223	2.675	Control	0.5676	n/a	No	2.675	n/a	n/a	NoResponse	0	0.0	n/a	2	36	ISIslide	Neutral	True
354.922	0.25	Win2	0.5789	0.0	Yes	2.878	0.022	n/a	GoodResponse	1	n/a	n/a	3	37	Cue	Win	True
355.172	4.0	Win2	0.5789	0.0	Yes	2.878	0.0	n/a	GoodResponse	1	n/a	n/a	3	37	Fixation	Win	True
359.171	0.39	Win2	0.5789	0.001	Yes	2.878	-0.001	4.0	GoodResponse	1	0.322	358.493	3	37	Target	Win	True
359.493	0.3	Win2	0.5789	0.001	Yes	2.878	-0.001	4.0	GoodResponse	1	0.322	n/a	3	37	ButtonPress	Win	True
359.57	0.31	Win2	0.5789	n/a	Yes	2.878	n/a	n/a	GoodResponse	1	n/a	n/a	3	37	Blank	Win	True
359.87	1.45	Win2	0.5789	n/a	Yes	2.878	n/a	5.0	GoodResponse	1	1.126	359.996	3	37	Feedback	Win	True
361.32	2.878	Win2	0.5789	n/a	Yes	2.878	n/a	n/a	GoodResponse	1	0.0	n/a	3	37	ISIslide	Win	True
364.219	0.25	Lose2	0.5897	0.0	Yes	2.831	0.019	n/a	GoodResponse	0	n/a	n/a	3	38	Cue	AvoidedLoss	True
364.469	3.95	Lose2	0.5897	0.0	Yes	2.831	0.0	n/a	GoodResponse	0	n/a	n/a	3	38	Fixation	AvoidedLoss	True
368.417	0.4	Lose2	0.5897	0.002	Yes	2.831	-0.002	4.0	GoodResponse	0	0.231	367.648	3	38	Target	AvoidedLoss	True
368.648	0.3	Lose2	0.5897	0.002	Yes	2.831	-0.002	4.0	GoodResponse	0	0.231	n/a	3	38	ButtonPress	AvoidedLoss	True
368.817	0.3	Lose2	0.5897	n/a	Yes	2.831	n/a	n/a	GoodResponse	0	n/a	n/a	3	38	Blank	AvoidedLoss	True
369.117	1.45	Lose2	0.5897	n/a	Yes	2.831	n/a	n/a	GoodResponse	0	n/a	n/a	3	38	Feedback	AvoidedLoss	True
370.567	2.831	Lose2	0.5897	n/a	Yes	2.831	n/a	n/a	GoodResponse	0	0.0	n/a	3	38	ISIslide	AvoidedLoss	True
373.416	0.25	Win2	0.6	0.0	Yes	2.984	0.016	n/a	GoodResponse	1	n/a	n/a	4	39	Cue	Win	True
373.665	4.1	Win2	0.6	0.001	Yes	2.984	-0.001	n/a	GoodResponse	1	n/a	n/a	4	39	Fixation	Win	True
377.764	0.41	Win2	0.6	0.002	Yes	2.984	-0.002	4.0	GoodResponse	1	0.309	377.073	4	39	Target	Win	True
378.073	0.3	Win2	0.6	0.002	Yes	2.984	-0.002	4.0	GoodResponse	1	0.309	n/a	4	39	ButtonPress	Win	True
378.181	0.29	Win2	0.6	n/a	Yes	2.984	n/a	n/a	GoodResponse	1	n/a	n/a	4	39	Blank	Win	True
378.464	1.45	Win2	0.6	n/a	Yes	2.984	n/a	5.0	GoodResponse	1	0.532	377.996	4	39	Feedback	Win	True
379.913	2.984	Win2	0.6	n/a	Yes	2.984	n/a	n/a	GoodResponse	1	0.0	n/a	4	39	ISIslide	Win	True
382.912	0.25	Win2	0.6098	0.0	Yes	2.738	0.012	n/a	GoodResponse	1	n/a	n/a	5	40	Cue	Win	True
383.162	3.95	Win2	0.6098	0.0	Yes	2.738	0.0	n/a	GoodResponse	1	n/a	n/a	5	40	Fixation	Win	True
387.111	0.42	Win2	0.6098	0.001	Yes	2.738	-0.001	4.0	GoodResponse	1	0.163	386.274	5	40	Target	Win	True
387.274	0.3	Win2	0.6098	0.001	Yes	2.738	-0.001	4.0	GoodResponse	1	0.163	n/a	5	40	ButtonPress	Win	True
387.544	0.28	Win2	0.6098	n/a	Yes	2.738	n/a	n/a	GoodResponse	1	n/a	n/a	5	40	Blank	Win	True
387.81	1.45	Win2	0.6098	n/a	Yes	2.738	n/a	5.0	GoodResponse	1	1.186	387.996	5	40	Feedback	Win	True
389.26	2.738	Win2	0.6098	n/a	Yes	2.738	n/a	n/a	GoodResponse	1	0.0	n/a	5	40	ISIslide	Win	True
392.026	0.25	Win2	0.5952000000000001	0.0	No	2.774	0.026	n/a	PrematurePress	0	n/a	n/a	5	41	Cue	MissedWin	False
392.276	3.9	Win2	0.5952000000000001	0.0	No	2.774	0.0	4.0	PrematurePress	0	3.394	394.67	5	41	Fixation	MissedWin	False
395.67	0.3	Win2	0.5952000000000001	0.0	No	2.774	0.0	4.0	PrematurePress	0	3.394	n/a	5	41	ButtonPress	MissedWin	False
396.174	0.43	Win2	0.5952000000000001	0.002	No	2.774	-0.002	4.0	PrematurePress	0	0.024	395.198	5	41	Target	MissedWin	False
396.198	0.3	Win2	0.5952000000000001	0.002	No	2.774	-0.002	4.0	PrematurePress	0	0.024	n/a	5	41	ButtonPress	MissedWin	False
396.607	0.27	Win2	0.5952000000000001	n/a	No	2.774	n/a	n/a	PrematurePress	0	n/a	n/a	5	41	Blank	MissedWin	False
396.874	1.45	Win2	0.5952000000000001	n/a	No	2.774	n/a	5.0	PrematurePress	0	0.122	395.996	5	41	Feedback	MissedWin	False
398.323	2.774	Win2	0.5952000000000001	n/a	No	2.774	n/a	n/a	PrematurePress	0	0.0	n/a	5	41	ISIslide	MissedWin	False
401.122	0.25	Control	0.6047	0.001	Yes	2.928	0.022	n/a	GoodResponse	0	n/a	n/a	5	42	Cue	Neutral	True
401.372	3.85	Control	0.6047	0.0	Yes	2.928	0.0	n/a	GoodResponse	0	n/a	n/a	5	42	Fixation	Neutral	True
405.221	0.44	Control	0.6047	0.001	Yes	2.928	-0.001	4.0	GoodResponse	0	0.294	404.515	5	42	Target	Neutral	True
405.515	0.3	Control	0.6047	0.001	Yes	2.928	-0.001	4.0	GoodResponse	0	0.294	n/a	5	42	ButtonPress	Neutral	True
405.671	0.26	Control	0.6047	n/a	Yes	2.928	n/a	n/a	GoodResponse	0	n/a	n/a	5	42	Blank	Neutral	True
405.921	1.45	Control	0.6047	n/a	Yes	2.928	n/a	5.0	GoodResponse	0	1.075	405.996	5	42	Feedback	Neutral	True
407.37	2.928	Control	0.6047	n/a	Yes	2.928	n/a	n/a	GoodResponse	0	0.0	n/a	5	42	ISIslide	Neutral	True
410.319	0.25	Win2	0.6136	0.0	Yes	3.181	0.019	n/a	GoodResponse	1	n/a	n/a	6	43	Cue	Win	True
410.569	4.0	Win2	0.6136	0.0	Yes	3.181	0.0	n/a	GoodResponse	1	n/a	n/a	6	43	Fixation	Win	True
414.568	0.45	Win2	0.6136	0.001	Yes	3.181	-0.001	4.0	GoodResponse	1	0.295	413.863	6	43	Target	Win	True
414.863	0.3	Win2	0.6136	0.001	Yes	3.181	-0.001	4.0	GoodResponse	1	0.295	n/a	6	43	ButtonPress	Win	True
415.018	0.25	Win2	0.6136	n/a	Yes	3.181	n/a	n/a	GoodResponse	1	n/a	n/a	6	43	Blank	Win	True
415.267	1.45	Win2	0.6136	n/a	Yes	3.181	n/a	n/a	GoodResponse	1	n/a	n/a	6	43	Feedback	Win	True
416.717	3.181	Win2	0.6136	n/a	Yes	3.181	n/a	n/a	GoodResponse	1	0.0	n/a	6	43	ISIslide	Win	True
419.916	0.25	Win2	0.6222	0.0	Yes	2.984	0.016	n/a	GoodResponse	1	n/a	n/a	7	44	Cue	Win	True
420.166	4.0	Win2	0.6222	0.0	Yes	2.984	0.0	n/a	GoodResponse	1	n/a	n/a	7	44	Fixation	Win	True
424.164	0.46	Win2	0.6222	0.002	Yes	2.984	-0.002	4.0	GoodResponse	1	0.273	423.437	7	44	Target	Win	True
424.437	0.3	Win2	0.6222	0.002	Yes	2.984	-0.002	4.0	GoodResponse	1	0.273	n/a	7	44	ButtonPress	Win	True
424.631	0.24	Win2	0.6222	n/a	Yes	2.984	n/a	n/a	GoodResponse	1	n/a	n/a	7	44	Blank	Win	True
424.864	1.45	Win2	0.6222	n/a	Yes	2.984	n/a	5.0	GoodResponse	1	0.132	423.996	7	44	Feedback	Win	True
426.314	2.984	Win2	0.6222	n/a	Yes	2.984	n/a	n/a	GoodResponse	1	0.0	n/a	7	44	ISIslide	Win	True
429.313	0.25	Control	0.6087	0.0	No	2.887	0.013	n/a	NoResponse	0	n/a	n/a	7	45	Cue	Neutral	False
429.562	4.1	Control	0.6087	0.001	No	2.887	-0.001	n/a	NoResponse	0	n/a	n/a	7	45	Fixation	Neutral	False
433.661	0.47	Control	0.6087	0.002	No	2.887	-0.002	n/a	NoResponse	0	n/a	n/a	7	45	Target	Neutral	False
434.144	0.23	Control	0.6087	n/a	No	2.887	n/a	n/a	NoResponse	0	n/a	n/a	7	45	Blank	Neutral	False
434.361	1.45	Control	0.6087	n/a	No	2.887	n/a	5.0	NoResponse	0	0.635	433.996	7	45	Feedback	Neutral	False
435.81	2.887	Control	0.6087	n/a	No	2.887	n/a	n/a	NoResponse	0	0.0	n/a	7	45	ISIslide	Neutral	False
438.726	0.25	Lose2	0.5957	0.0	No	3.374	0.026	n/a	NoResponse	-1	n/a	n/a	6	46	Cue	Loss	False
438.976	4.0	Lose2	0.5957	0.0	No	3.374	0.0	4.0	NoResponse	-1	3.834	441.81	6	46	Fixation	Loss	False
442.81	0.3	Lose2	0.5957	0.0	No	3.374	0.0	4.0	NoResponse	-1	3.834	n/a	6	46	ButtonPress	Loss	False
442.974	0.48	Lose2	0.5957	0.002	No	3.374	-0.002	4.0	NoResponse	-1	0.612	442.586	6	46	Target	Loss	False
443.458	0.22	Lose2	0.5957	n/a	No	3.374	n/a	n/a	NoResponse	-1	n/a	n/a	6	46	Blank	Loss	False
443.586	0.3	Lose2	0.5957	0.002	No	3.374	-0.002	4.0	NoResponse	-1	0.612	n/a	6	46	ButtonPress	Loss	False
443.674	1.45	Lose2	0.5957	n/a	No	3.374	n/a	5.0	NoResponse	-1	1.321	443.995	6	46	Feedback	Loss	False
445.124	3.374	Lose2	0.5957	n/a	No	3.374	n/a	n/a	NoResponse	-1	0.0	n/a	6	46	ISIslide	Loss	False
448.522	0.25	Lose2	0.6042000000000001	0.0	Yes	2.678	0.022	n/a	GoodResponse	0	n/a	n/a	6	47	Cue	AvoidedLoss	True
448.772	4.0	Lose2	0.6042000000000001	0.0	Yes	2.678	0.0	n/a	GoodResponse	0	n/a	n/a	6	47	Fixation	AvoidedLoss	True
452.771	0.49	Lose2	0.6042000000000001	0.001	Yes	2.678	-0.001	4.0	GoodResponse	0	0.438	452.209	6	47	Target	AvoidedLoss	True
453.209	0.3	Lose2	0.6042000000000001	0.001	Yes	2.678	-0.001	4.0	GoodResponse	0	0.438	n/a	6	47	ButtonPress	AvoidedLoss	True
453.271	0.21	Lose2	0.6042000000000001	n/a	Yes	2.678	n/a	n/a	GoodResponse	0	n/a	n/a	6	47	Blank	AvoidedLoss	True
453.471	1.45	Lose2	0.6042000000000001	n/a	Yes	2.678	n/a	n/a	GoodResponse	0	n/a	n/a	6	47	Feedback	AvoidedLoss	True
454.92	2.678	Lose2	0.6042000000000001	n/a	Yes	2.678	n/a	n/a	GoodResponse	0	0.0	n/a	6	47	ISIslide	AvoidedLoss	True
457.619	0.25	Lose2	0.6122	0.0	Yes	3.031	0.019	n/a	GoodResponse	0	n/a	n/a	6	48	Cue	AvoidedLoss	True
457.869	3.95	Lose2	0.6122	0.0	Yes	3.031	0.0	n/a	GoodResponse	0	n/a	n/a	6	48	Fixation	AvoidedLoss	True
461.818	0.5	Lose2	0.6122	0.001	Yes	3.031	-0.001	4.0	GoodResponse	0	0.292	461.11	6	48	Target	AvoidedLoss	True
462.11	0.3	Lose2	0.6122	0.001	Yes	3.031	-0.001	4.0	GoodResponse	0	0.292	n/a	6	48	ButtonPress	AvoidedLoss	True
462.318	0.2	Lose2	0.6122	n/a	Yes	3.031	n/a	n/a	GoodResponse	0	n/a	n/a	6	48	Blank	AvoidedLoss	True
462.517	1.45	Lose2	0.6122	n/a	Yes	3.031	n/a	5.0	GoodResponse	0	0.478	461.995	6	48	Feedback	AvoidedLoss	True
463.967	3.031	Lose2	0.6122	n/a	Yes	3.031	n/a	n/a	GoodResponse	0	0.0	n/a	6	48	ISIslide	AvoidedLoss	True
467.016	0.25	Control	0.62	0.0	Yes	2.884	0.016	n/a	GoodResponse	0	n/a	n/a	6	49	Cue	Neutral	True
467.266	4.0	Control	0.62	0.0	Yes	2.884	0.0	n/a	GoodResponse	0	n/a	n/a	6	49	Fixation	Neutral	True
471.264	0.5	Control	0.62	0.002	Yes	2.884	-0.002	4.0	GoodResponse	0	0.318	470.582	6	49	Target	Neutral	True
471.582	0.3	Control	0.62	0.002	Yes	2.884	-0.002	4.0	GoodResponse	0	0.318	n/a	6	49	ButtonPress	Neutral	True
471.764	0.2	Control	0.62	n/a	Yes	2.884	n/a	n/a	GoodResponse	0	n/a	n/a	6	49	Blank	Neutral	True
471.964	1.45	Control	0.62	n/a	Yes	2.884	n/a	5.0	GoodResponse	0	1.032	471.996	6	49	Feedback	Neutral	True
473.414	2.884	Control	0.62	n/a	Yes	2.884	n/a	n/a	GoodResponse	0	0.0	n/a	6	49	ISIslide	Neutral	True
476.329	0.25	Control	0.6078	0.0	No	2.771	0.029	n/a	NoResponse	0	n/a	n/a	6	50	Cue	Neutral	True
476.579	4.0	Control	0.6078	0.0	No	2.771	0.0	n/a	NoResponse	0	n/a	n/a	6	50	Fixation	Neutral	True
480.578	0.5	Control	0.6078	0.001	No	2.771	-0.001	n/a	NoResponse	0	n/a	n/a	6	50	Target	Neutral	True
481.078	0.2	Control	0.6078	n/a	No	2.771	n/a	n/a	NoResponse	0	n/a	n/a	6	50	Blank	Neutral	True
481.278	1.45	Control	0.6078	n/a	No	2.771	n/a	4.0	NoResponse	0	0.027	480.305	6	50	Feedback	Neutral	True
481.305	0.3	Control	0.6078	n/a	No	2.771	n/a	4.0	NoResponse	0	0.027	n/a	6	50	ButtonPress	Neutral	True
482.727	2.771	Control	0.6078	n/a	No	2.771	n/a	n/a	NoResponse	0	0.0	n/a	6	50	ISIslide	Neutral	True
485.526	0.25	Control	0.6154	0.0	Yes	2.724	0.026	n/a	GoodResponse	0	n/a	n/a	6	51	Cue	Neutral	True
485.776	3.95	Control	0.6154	0.0	Yes	2.724	0.0	n/a	GoodResponse	0	n/a	n/a	6	51	Fixation	Neutral	True
489.725	0.5	Control	0.6154	0.001	Yes	2.724	-0.001	4.0	GoodResponse	0	0.366	489.091	6	51	Target	Neutral	True
490.091	0.3	Control	0.6154	0.001	Yes	2.724	-0.001	4.0	GoodResponse	0	0.366	n/a	6	51	ButtonPress	Neutral	True
490.224	0.2	Control	0.6154	n/a	Yes	2.724	n/a	n/a	GoodResponse	0	n/a	n/a	6	51	Blank	Neutral	True
490.424	1.45	Control	0.6154	n/a	Yes	2.724	n/a	5.0	GoodResponse	0	0.571	489.995	6	51	Feedback	Neutral	True
491.874	2.724	Control	0.6154	n/a	Yes	2.724	n/a	n/a	GoodResponse	0	0.0	n/a	6	51	ISIslide	Neutral	True
494.623	0.25	Control	0.6038	0.0	No	2.627	0.023	n/a	NoResponse	0	n/a	n/a	6	52	Cue	Neutral	True
494.873	4.05	Control	0.6038	0.0	No	2.627	0.0	4.0	NoResponse	0	0.197	494.07	6	52	Fixation	Neutral	True
495.07	0.3	Control	0.6038	0.0	No	2.627	0.0	4.0	NoResponse	0	0.197	n/a	6	52	ButtonPress	Neutral	True
498.921	0.5	Control	0.6038	0.002	No	2.627	-0.002	n/a	NoResponse	0	n/a	n/a	6	52	Target	Neutral	True
499.421	0.2	Control	0.6038	n/a	No	2.627	n/a	n/a	NoResponse	0	n/a	n/a	6	52	Blank	Neutral	True
499.621	1.45	Control	0.6038	n/a	No	2.627	n/a	5.0	NoResponse	0	1.374	499.995	6	52	Feedback	Neutral	True
501.071	2.627	Control	0.6038	n/a	No	2.627	n/a	n/a	NoResponse	0	0.0	n/a	6	52	ISIslide	Neutral	True
503.72	0.25	Win2	0.6111	0.0	Yes	2.93	0.02	n/a	GoodResponse	1	n/a	n/a	7	53	Cue	Win	True
503.97	4.05	Win2	0.6111	0.0	Yes	2.93	0.0	n/a	GoodResponse	1	n/a	n/a	7	53	Fixation	Win	True
508.018	0.5	Win2	0.6111	0.002	Yes	2.93	-0.002	4.0	GoodResponse	1	0.247	507.265	7	53	Target	Win	True
508.265	0.3	Win2	0.6111	0.002	Yes	2.93	-0.002	4.0	GoodResponse	1	0.247	n/a	7	53	ButtonPress	Win	True
508.518	0.2	Win2	0.6111	n/a	Yes	2.93	n/a	n/a	GoodResponse	1	n/a	n/a	7	53	Blank	Win	True
508.718	1.45	Win2	0.6111	n/a	Yes	2.93	n/a	5.0	GoodResponse	1	0.277	507.995	7	53	Feedback	Win	True
510.167	2.93	Win2	0.6111	n/a	Yes	2.93	n/a	n/a	GoodResponse	1	0.0	n/a	7	53	ISIslide	Win	True
513.116	0.25	Win2	0.6182	0.0	Yes	2.734	0.016	n/a	GoodResponse	1	n/a	n/a	8	54	Cue	Win	True
513.366	3.95	Win2	0.6182	0.0	Yes	2.734	0.0	n/a	GoodResponse	1	n/a	n/a	8	54	Fixation	Win	True
517.315	0.5	Win2	0.6182	0.001	Yes	2.734	-0.001	4.0	GoodResponse	1	0.418	516.733	8	54	Target	Win	True
517.733	0.3	Win2	0.6182	0.001	Yes	2.734	-0.001	4.0	GoodResponse	1	0.418	n/a	8	54	ButtonPress	Win	True
517.815	0.2	Win2	0.6182	n/a	Yes	2.734	n/a	n/a	GoodResponse	1	n/a	n/a	8	54	Blank	Win	True
518.015	1.45	Win2	0.6182	n/a	Yes	2.734	n/a	5.0	GoodResponse	1	0.98	517.995	8	54	Feedback	Win	True
519.464	2.734	Win2	0.6182	n/a	Yes	2.734	n/a	n/a	GoodResponse	1	0.0	n/a	8	54	ISIslide	Win	True
522.213	0.25	Control	0.625	0.0	Yes	3.037	0.013	n/a	GoodResponse	0	n/a	n/a	8	55	Cue	Neutral	True
522.463	3.95	Control	0.625	0.0	Yes	3.037	0.0	n/a	GoodResponse	0	n/a	n/a	8	55	Fixation	Neutral	True
526.412	0.5	Control	0.625	0.001	Yes	3.037	-0.001	4.0	GoodResponse	0	0.241	525.653	8	55	Target	Neutral	True
526.653	0.3	Control	0.625	0.001	Yes	3.037	-0.001	4.0	GoodResponse	0	0.241	n/a	8	55	ButtonPress	Neutral	True
526.911	0.2	Control	0.625	n/a	Yes	3.037	n/a	n/a	GoodResponse	0	n/a	n/a	8	55	Blank	Neutral	True
527.111	1.45	Control	0.625	n/a	Yes	3.037	n/a	n/a	GoodResponse	0	n/a	n/a	8	55	Feedback	Neutral	True
528.561	3.037	Control	0.625	n/a	Yes	3.037	n/a	n/a	GoodResponse	0	0.0	n/a	8	55	ISIslide	Neutral	True
531.626	0.25	Control	0.6315999999999999	0.001	Yes	2.824	0.026	n/a	GoodResponse	0	n/a	n/a	8	56	Cue	Neutral	True
531.876	3.95	Control	0.6315999999999999	0.0	Yes	2.824	0.0	n/a	GoodResponse	0	n/a	n/a	8	56	Fixation	Neutral	True
535.825	0.5	Control	0.6315999999999999	0.001	Yes	2.824	-0.001	4.0	GoodResponse	0	0.487	535.312	8	56	Target	Neutral	True
536.312	0.3	Control	0.6315999999999999	0.001	Yes	2.824	-0.001	4.0	GoodResponse	0	0.487	n/a	8	56	ButtonPress	Neutral	True
536.325	0.2	Control	0.6315999999999999	n/a	Yes	2.824	n/a	n/a	GoodResponse	0	n/a	n/a	8	56	Blank	Neutral	True
536.525	1.45	Control	0.6315999999999999	n/a	Yes	2.824	n/a	5.0	GoodResponse	0	0.469	535.994	8	56	Feedback	Neutral	True
537.974	2.824	Control	0.6315999999999999	n/a	Yes	2.824	n/a	n/a	GoodResponse	0	0.0	n/a	8	56	ISIslide	Neutral	True
540.823	0.25	Control	0.6379	0.0	Yes	3.477	0.023	n/a	GoodResponse	0	n/a	n/a	8	57	Cue	Neutral	True
541.073	4.0	Control	0.6379	0.0	Yes	3.477	0.0	n/a	GoodResponse	0	n/a	n/a	8	57	Fixation	Neutral	True
545.072	0.5	Control	0.6379	0.001	Yes	3.477	-0.001	4.0	GoodResponse	0	0.291	544.363	8	57	Target	Neutral	True
545.363	0.3	Control	0.6379	0.001	Yes	3.477	-0.001	4.0	GoodResponse	0	0.291	n/a	8	57	ButtonPress	Neutral	True
545.572	0.2	Control	0.6379	n/a	Yes	3.477	n/a	n/a	GoodResponse	0	n/a	n/a	8	57	Blank	Neutral	True
545.771	1.45	Control	0.6379	n/a	Yes	3.477	n/a	5.0	GoodResponse	0	1.224	545.995	8	57	Feedback	Neutral	True
547.221	3.477	Control	0.6379	n/a	Yes	3.477	n/a	n/a	GoodResponse	0	0.0	n/a	8	57	ISIslide	Neutral	True
550.72	0.25	Win2	0.6441	0.0	Yes	2.73	0.02	n/a	GoodResponse	1	n/a	n/a	9	58	Cue	Win	True
550.97	4.05	Win2	0.6441	0.0	Yes	2.73	0.0	n/a	GoodResponse	1	n/a	n/a	9	58	Fixation	Win	True
555.018	0.5	Win2	0.6441	0.002	Yes	2.73	-0.002	4.0	GoodResponse	1	0.279	554.297	9	58	Target	Win	True
555.297	0.3	Win2	0.6441	0.002	Yes	2.73	-0.002	4.0	GoodResponse	1	0.279	n/a	9	58	ButtonPress	Win	True
555.518	0.2	Win2	0.6441	n/a	Yes	2.73	n/a	n/a	GoodResponse	1	n/a	n/a	9	58	Blank	Win	True
555.718	1.45	Win2	0.6441	n/a	Yes	2.73	n/a	5.0	GoodResponse	1	1.277	555.995	9	58	Feedback	Win	True
557.167	2.73	Win2	0.6441	n/a	Yes	2.73	n/a	n/a	GoodResponse	1	0.0	n/a	9	58	ISIslide	Win	True
559.917	0.25	Lose2	0.65	0.0	Yes	2.683	0.017	n/a	GoodResponse	0	n/a	n/a	9	59	Cue	AvoidedLoss	True
560.166	4.0	Lose2	0.65	0.001	Yes	2.683	-0.001	n/a	GoodResponse	0	n/a	n/a	9	59	Fixation	AvoidedLoss	True
564.165	0.5	Lose2	0.65	0.002	Yes	2.683	-0.002	4.0	GoodResponse	0	0.456	563.621	9	59	Target	AvoidedLoss	True
564.621	0.3	Lose2	0.65	0.002	Yes	2.683	-0.002	4.0	GoodResponse	0	0.456	n/a	9	59	ButtonPress	AvoidedLoss	True
564.665	0.2	Lose2	0.65	n/a	Yes	2.683	n/a	n/a	GoodResponse	0	n/a	n/a	9	59	Blank	AvoidedLoss	True
564.865	1.45	Lose2	0.65	n/a	Yes	2.683	n/a	5.0	GoodResponse	0	0.129	563.994	9	59	Feedback	AvoidedLoss	True
566.314	2.683	Lose2	0.65	n/a	Yes	2.683	n/a	n/a	GoodResponse	0	0.0	n/a	9	59	ISIslide	AvoidedLoss	True
569.013	0.25	Control	0.6393	0.0	No	2.687	0.013	n/a	NoResponse	0	n/a	n/a	9	60	Cue	Neutral	False
569.263	4.0	Control	0.6393	0.0	No	2.687	0.0	n/a	NoResponse	0	n/a	n/a	9	60	Fixation	Neutral	False
573.262	0.5	Control	0.6393	0.001	No	2.687	-0.001	n/a	NoResponse	0	n/a	n/a	9	60	Target	Neutral	False
573.762	0.2	Control	0.6393	n/a	No	2.687	n/a	n/a	NoResponse	0	n/a	n/a	9	60	Blank	Neutral	False
573.962	1.45	Control	0.6393	n/a	No	2.687	n/a	5.0	NoResponse	0	1.032	573.994	9	60	Feedback	Neutral	False
575.411	2.687	Control	0.6393	n/a	No	2.687	n/a	n/a	NoResponse	0	0.0	n/a	9	60	ISIslide	Neutral	False
578.127	0.25	Lose2	0.6452	0.0	Yes	2.973	0.027	n/a	GoodResponse	0	n/a	n/a	9	61	Cue	AvoidedLoss	True
578.377	4.0	Lose2	0.6452	0.0	Yes	2.973	0.0	n/a	GoodResponse	0	n/a	n/a	9	61	Fixation	AvoidedLoss	True
582.375	0.5	Lose2	0.6452	0.002	Yes	2.973	-0.002	4.0	GoodResponse	0	0.109	581.484	9	61	Target	AvoidedLoss	True
582.484	0.3	Lose2	0.6452	0.002	Yes	2.973	-0.002	4.0	GoodResponse	0	0.109	n/a	9	61	ButtonPress	AvoidedLoss	True
582.875	0.2	Lose2	0.6452	n/a	Yes	2.973	n/a	n/a	GoodResponse	0	n/a	n/a	9	61	Blank	AvoidedLoss	True
583.075	1.45	Lose2	0.6452	n/a	Yes	2.973	n/a	n/a	GoodResponse	0	n/a	n/a	9	61	Feedback	AvoidedLoss	True
584.525	2.973	Lose2	0.6452	n/a	Yes	2.973	n/a	n/a	GoodResponse	0	0.0	n/a	9	61	ISIslide	AvoidedLoss	True
587.523	0.25	Lose2	0.6507999999999999	0.001	Yes	2.877	0.023	n/a	GoodResponse	0	n/a	n/a	9	62	Cue	AvoidedLoss	True
587.773	3.9	Lose2	0.6507999999999999	0.0	Yes	2.877	0.0	n/a	GoodResponse	0	n/a	n/a	9	62	Fixation	AvoidedLoss	True
591.672	0.5	Lose2	0.6507999999999999	0.001	Yes	2.877	-0.001	4.0	GoodResponse	0	0.26	590.932	9	62	Target	AvoidedLoss	True
591.932	0.3	Lose2	0.6507999999999999	0.001	Yes	2.877	-0.001	4.0	GoodResponse	0	0.26	n/a	9	62	ButtonPress	AvoidedLoss	True
592.172	0.2	Lose2	0.6507999999999999	n/a	Yes	2.877	n/a	n/a	GoodResponse	0	n/a	n/a	9	62	Blank	AvoidedLoss	True
592.372	1.45	Lose2	0.6507999999999999	n/a	Yes	2.877	n/a	5.0	GoodResponse	0	0.622	591.994	9	62	Feedback	AvoidedLoss	True
593.821	2.877	Lose2	0.6507999999999999	n/a	Yes	2.877	n/a	n/a	GoodResponse	0	0.0	n/a	9	62	ISIslide	AvoidedLoss	True
596.72	0.25	Lose2	0.6562	0.0	Yes	2.63	0.02	n/a	GoodResponse	0	n/a	n/a	9	63	Cue	AvoidedLoss	True
596.97	4.05	Lose2	0.6562	0.0	Yes	2.63	0.0	n/a	GoodResponse	0	n/a	n/a	9	63	Fixation	AvoidedLoss	True
601.019	0.5	Lose2	0.6562	0.001	Yes	2.63	-0.001	4.0	GoodResponse	0	0.238	600.257	9	63	Target	AvoidedLoss	True
601.257	0.3	Lose2	0.6562	0.001	Yes	2.63	-0.001	4.0	GoodResponse	0	0.238	n/a	9	63	ButtonPress	AvoidedLoss	True
601.519	0.2	Lose2	0.6562	n/a	Yes	2.63	n/a	n/a	GoodResponse	0	n/a	n/a	9	63	Blank	AvoidedLoss	True
601.718	1.45	Lose2	0.6562	n/a	Yes	2.63	n/a	5.0	GoodResponse	0	1.276	601.994	9	63	Feedback	AvoidedLoss	True
603.168	2.63	Lose2	0.6562	n/a	Yes	2.63	n/a	n/a	GoodResponse	0	0.0	n/a	9	63	ISIslide	AvoidedLoss	True
605.817	0.25	Win2	0.6462	0.0	No	3.133	0.017	n/a	NoResponse	0	n/a	n/a	9	64	Cue	MissedWin	True
606.067	4.15	Win2	0.6462	0.0	No	3.133	0.0	n/a	NoResponse	0	n/a	n/a	9	64	Fixation	MissedWin	True
610.215	0.5	Win2	0.6462	0.002	No	3.133	-0.002	4.0	NoResponse	0	0.528	609.743	9	64	Target	MissedWin	True
610.715	0.2	Win2	0.6462	n/a	No	3.133	n/a	n/a	NoResponse	0	n/a	n/a	9	64	Blank	MissedWin	True
610.743	0.3	Win2	0.6462	0.002	No	3.133	-0.002	4.0	NoResponse	0	0.528	n/a	9	64	ButtonPress	MissedWin	True
610.915	1.45	Win2	0.6462	n/a	No	3.133	n/a	5.0	NoResponse	0	0.078	609.993	9	64	Feedback	MissedWin	True
612.365	3.133	Win2	0.6462	n/a	No	3.133	n/a	n/a	NoResponse	0	0.0	n/a	9	64	ISIslide	MissedWin	True
615.514	0.25	Control	0.6364	0.0	No	2.786	0.014	n/a	NoResponse	0	n/a	n/a	9	65	Cue	Neutral	False
615.763	4.0	Control	0.6364	0.001	No	2.786	-0.001	n/a	NoResponse	0	n/a	n/a	9	65	Fixation	Neutral	False
619.762	0.5	Control	0.6364	0.002	No	2.786	-0.002	n/a	NoResponse	0	n/a	n/a	9	65	Target	Neutral	False
620.262	0.2	Control	0.6364	n/a	No	2.786	n/a	n/a	NoResponse	0	n/a	n/a	9	65	Blank	Neutral	False
620.462	1.45	Control	0.6364	n/a	No	2.786	n/a	5.0	NoResponse	0	0.532	619.994	9	65	Feedback	Neutral	False
621.911	2.786	Control	0.6364	n/a	No	2.786	n/a	n/a	NoResponse	0	0.0	n/a	9	65	ISIslide	Neutral	False
624.727	0.25	Win2	0.6418	0.0	Yes	2.773	0.027	n/a	GoodResponse	1	n/a	n/a	10	66	Cue	Win	True
624.977	3.9	Win2	0.6418	0.0	Yes	2.773	0.0	n/a	GoodResponse	1	n/a	n/a	10	66	Fixation	Win	True
628.876	0.5	Win2	0.6418	0.001	Yes	2.773	-0.001	4.0	GoodResponse	1	0.185	628.061	10	66	Target	Win	True
629.061	0.3	Win2	0.6418	0.001	Yes	2.773	-0.001	4.0	GoodResponse	1	0.185	n/a	10	66	ButtonPress	Win	True
629.375	0.2	Win2	0.6418	n/a	Yes	2.773	n/a	n/a	GoodResponse	1	n/a	n/a	10	66	Blank	Win	True
629.575	1.45	Win2	0.6418	n/a	Yes	2.773	n/a	5.0	GoodResponse	1	1.419	629.994	10	66	Feedback	Win	True
631.025	2.773	Win2	0.6418	n/a	Yes	2.773	n/a	n/a	GoodResponse	1	0.0	n/a	10	66	ISIslide	Win	True
633.824	0.25	Control	0.6470999999999999	0.0	Yes	2.726	0.024	n/a	GoodResponse	0	n/a	n/a	10	67	Cue	Neutral	True
634.074	3.95	Control	0.6470999999999999	0.0	Yes	2.726	0.0	n/a	GoodResponse	0	n/a	n/a	10	67	Fixation	Neutral	True
638.022	0.5	Control	0.6470999999999999	0.002	Yes	2.726	-0.002	4.0	GoodResponse	0	0.452	637.474	10	67	Target	Neutral	True
638.474	0.3	Control	0.6470999999999999	0.002	Yes	2.726	-0.002	4.0	GoodResponse	0	0.452	n/a	10	67	ButtonPress	Neutral	True
638.522	0.2	Control	0.6470999999999999	n/a	Yes	2.726	n/a	n/a	GoodResponse	0	n/a	n/a	10	67	Blank	Neutral	True
638.722	1.45	Control	0.6470999999999999	n/a	Yes	2.726	n/a	5.0	GoodResponse	0	0.272	637.994	10	67	Feedback	Neutral	True
640.172	2.726	Control	0.6470999999999999	n/a	Yes	2.726	n/a	n/a	GoodResponse	0	0.0	n/a	10	67	ISIslide	Neutral	True
642.921	0.25	Win2	0.6522	0.0	Yes	3.079	0.021	n/a	GoodResponse	1	n/a	n/a	11	68	Cue	Win	True
643.171	4.0	Win2	0.6522	0.0	Yes	3.079	0.0	n/a	GoodResponse	1	n/a	n/a	11	68	Fixation	Win	True
647.169	0.5	Win2	0.6522	0.002	Yes	3.079	-0.002	4.0	GoodResponse	1	0.371	646.54	11	68	Target	Win	True
647.54	0.3	Win2	0.6522	0.002	Yes	3.079	-0.002	4.0	GoodResponse	1	0.371	n/a	11	68	ButtonPress	Win	True
647.669	0.2	Win2	0.6522	n/a	Yes	3.079	n/a	n/a	GoodResponse	1	n/a	n/a	11	68	Blank	Win	True
647.869	1.45	Win2	0.6522	n/a	Yes	3.079	n/a	5.0	GoodResponse	1	1.124	647.993	11	68	Feedback	Win	True
649.318	3.079	Win2	0.6522	n/a	Yes	3.079	n/a	n/a	GoodResponse	1	0.0	n/a	11	68	ISIslide	Win	True
652.417	0.25	Win2	0.6429	0.0	No	3.233	0.017	n/a	NoResponse	0	n/a	n/a	11	69	Cue	MissedWin	False
652.667	3.95	Win2	0.6429	0.0	No	3.233	0.0	n/a	NoResponse	0	n/a	n/a	11	69	Fixation	MissedWin	False
656.616	0.5	Win2	0.6429	0.001	No	3.233	-0.001	n/a	NoResponse	0	n/a	n/a	11	69	Target	MissedWin	False
657.116	0.2	Win2	0.6429	n/a	No	3.233	n/a	n/a	NoResponse	0	n/a	n/a	11	69	Blank	MissedWin	False
657.316	1.45	Win2	0.6429	n/a	No	3.233	n/a	n/a	NoResponse	0	n/a	n/a	11	69	Feedback	MissedWin	False
658.765	3.233	Win2	0.6429	n/a	No	3.233	n/a	n/a	NoResponse	0	0.0	n/a	11	69	ISIslide	MissedWin	False
662.014	0.25	Lose2	0.6479	0.0	Yes	3.036	0.014	n/a	GoodResponse	0	n/a	n/a	11	70	Cue	AvoidedLoss	False
662.264	4.05	Lose2	0.6479	0.0	Yes	3.036	0.0	4.0	GoodResponse	0	0.21	661.474	11	70	Fixation	AvoidedLoss	False
662.474	0.3	Lose2	0.6479	0.0	Yes	3.036	0.0	4.0	GoodResponse	0	0.21	n/a	11	70	ButtonPress	AvoidedLoss	False
666.312	0.5	Lose2	0.6479	0.002	Yes	3.036	-0.002	4.0	GoodResponse	0	0.34	665.652	11	70	Target	AvoidedLoss	False
666.652	0.3	Lose2	0.6479	0.002	Yes	3.036	-0.002	4.0	GoodResponse	0	0.34	n/a	11	70	ButtonPress	AvoidedLoss	False
666.812	0.2	Lose2	0.6479	n/a	Yes	3.036	n/a	n/a	GoodResponse	0	n/a	n/a	11	70	Blank	AvoidedLoss	False
667.012	1.45	Lose2	0.6479	n/a	Yes	3.036	n/a	n/a	GoodResponse	0	n/a	n/a	11	70	Feedback	AvoidedLoss	False
668.462	3.036	Lose2	0.6479	n/a	Yes	3.036	n/a	n/a	GoodResponse	0	0.0	n/a	11	70	ISIslide	AvoidedLoss	False
671.527	0.25	Win2	0.6389	0.0	No	2.723	0.027	n/a	NoResponse	0	n/a	n/a	11	71	Cue	MissedWin	False
671.777	4.05	Win2	0.6389	0.0	No	2.723	0.0	n/a	NoResponse	0	n/a	n/a	11	71	Fixation	MissedWin	False
675.826	0.5	Win2	0.6389	0.001	No	2.723	-0.001	n/a	NoResponse	0	n/a	n/a	11	71	Target	MissedWin	False
676.326	0.2	Win2	0.6389	n/a	No	2.723	n/a	n/a	NoResponse	0	n/a	n/a	11	71	Blank	MissedWin	False
676.525	1.45	Win2	0.6389	n/a	No	2.723	n/a	5.0	NoResponse	0	0.468	675.993	11	71	Feedback	MissedWin	False
677.975	2.723	Win2	0.6389	n/a	No	2.723	n/a	n/a	NoResponse	0	0.0	n/a	11	71	ISIslide	MissedWin	False
680.724	0.25	Win2	0.6437999999999999	0.0	Yes	2.776	0.024	n/a	GoodResponse	1	n/a	n/a	12	72	Cue	Win	True
680.974	4.1	Win2	0.6437999999999999	0.0	Yes	2.776	0.0	n/a	GoodResponse	1	n/a	n/a	12	72	Fixation	Win	True
685.072	0.5	Win2	0.6437999999999999	0.002	Yes	2.776	-0.002	4.0	GoodResponse	1	0.436	684.508	12	72	Target	Win	True
685.508	0.3	Win2	0.6437999999999999	0.002	Yes	2.776	-0.002	4.0	GoodResponse	1	0.436	n/a	12	72	ButtonPress	Win	True
685.572	0.2	Win2	0.6437999999999999	n/a	Yes	2.776	n/a	n/a	GoodResponse	1	n/a	n/a	12	72	Blank	Win	True
685.772	1.45	Win2	0.6437999999999999	n/a	Yes	2.776	n/a	5.0	GoodResponse	1	1.221	685.993	12	72	Feedback	Win	True
687.222	2.776	Win2	0.6437999999999999	n/a	Yes	2.776	n/a	n/a	GoodResponse	1	0.0	n/a	12	72	ISIslide	Win	True
690.021	0.25	Win2	0.6486	0.0	Yes	2.679	0.021	n/a	GoodResponse	1	n/a	n/a	13	73	Cue	Win	True
690.271	4.0	Win2	0.6486	0.0	Yes	2.679	0.0	n/a	GoodResponse	1	n/a	n/a	13	73	Fixation	Win	True
694.269	0.5	Win2	0.6486	0.002	Yes	2.679	-0.002	4.0	GoodResponse	1	0.483	693.752	13	73	Target	Win	True
694.752	0.3	Win2	0.6486	0.002	Yes	2.679	-0.002	4.0	GoodResponse	1	0.483	n/a	13	73	ButtonPress	Win	True
694.769	0.2	Win2	0.6486	n/a	Yes	2.679	n/a	n/a	GoodResponse	1	n/a	n/a	13	73	Blank	Win	True
694.969	1.45	Win2	0.6486	n/a	Yes	2.679	n/a	5.0	GoodResponse	1	0.024	693.993	13	73	Feedback	Win	True
696.418	2.679	Win2	0.6486	n/a	Yes	2.679	n/a	n/a	GoodResponse	1	0.0	n/a	13	73	ISIslide	Win	True
699.117	0.25	Lose2	0.6533	0.001	Yes	2.633	0.017	n/a	GoodResponse	0	n/a	n/a	13	74	Cue	AvoidedLoss	True
699.367	4.05	Lose2	0.6533	0.0	Yes	2.633	0.0	n/a	GoodResponse	0	n/a	n/a	13	74	Fixation	AvoidedLoss	True
703.416	0.5	Lose2	0.6533	0.001	Yes	2.633	-0.001	4.0	GoodResponse	0	0.436	702.852	13	74	Target	AvoidedLoss	True
703.852	0.3	Lose2	0.6533	0.001	Yes	2.633	-0.001	4.0	GoodResponse	0	0.436	n/a	13	74	ButtonPress	AvoidedLoss	True
703.916	0.2	Lose2	0.6533	n/a	Yes	2.633	n/a	n/a	GoodResponse	0	n/a	n/a	13	74	Blank	AvoidedLoss	True
704.116	1.45	Lose2	0.6533	n/a	Yes	2.633	n/a	5.0	GoodResponse	0	0.877	703.993	13	74	Feedback	AvoidedLoss	True
705.565	2.633	Lose2	0.6533	n/a	Yes	2.633	n/a	n/a	GoodResponse	0	0.0	n/a	13	74	ISIslide	AvoidedLoss	True
708.214	0.25	Lose2	0.6579	0.0	Yes	2.936	0.014	n/a	GoodResponse	0	n/a	n/a	13	75	Cue	AvoidedLoss	True
708.464	3.95	Lose2	0.6579	0.0	Yes	2.936	0.0	n/a	GoodResponse	0	n/a	n/a	13	75	Fixation	AvoidedLoss	True
712.413	0.5	Lose2	0.6579	0.001	Yes	2.936	-0.001	4.0	GoodResponse	0	0.333	711.746	13	75	Target	AvoidedLoss	True
712.746	0.3	Lose2	0.6579	0.001	Yes	2.936	-0.001	4.0	GoodResponse	0	0.333	n/a	13	75	ButtonPress	AvoidedLoss	True
712.913	0.2	Lose2	0.6579	n/a	Yes	2.936	n/a	n/a	GoodResponse	0	n/a	n/a	13	75	Blank	AvoidedLoss	True
713.113	1.45	Lose2	0.6579	n/a	Yes	2.936	n/a	n/a	GoodResponse	0	n/a	n/a	13	75	Feedback	AvoidedLoss	True
714.562	2.936	Lose2	0.6579	n/a	Yes	2.936	n/a	n/a	GoodResponse	0	0.0	n/a	13	75	ISIslide	AvoidedLoss	True
717.511	0.25	Control	0.6494	0.0	No	3.239	0.011	n/a	NoResponse	0	n/a	n/a	13	76	Cue	Neutral	True
717.761	4.05	Control	0.6494	0.0	No	3.239	0.0	n/a	NoResponse	0	n/a	n/a	13	76	Fixation	Neutral	True
721.809	0.5	Control	0.6494	0.002	No	3.239	-0.002	4.0	NoResponse	0	0.585	721.394	13	76	Target	Neutral	True
722.309	0.2	Control	0.6494	n/a	No	3.239	n/a	n/a	NoResponse	0	n/a	n/a	13	76	Blank	Neutral	True
722.394	0.3	Control	0.6494	0.002	No	3.239	-0.002	4.0	NoResponse	0	0.585	n/a	13	76	ButtonPress	Neutral	True
722.509	1.45	Control	0.6494	n/a	No	3.239	n/a	5.0	NoResponse	0	0.484	721.993	13	76	Feedback	Neutral	True
723.959	3.239	Control	0.6494	n/a	No	3.239	n/a	n/a	NoResponse	0	0.0	n/a	13	76	ISIslide	Neutral	True
727.224	0.25	Lose2	0.6409999999999999	0.0	No	2.576	0.024	n/a	NoResponse	-1	n/a	n/a	12	77	Cue	Loss	False
727.474	3.95	Lose2	0.6409999999999999	0.0	No	2.576	0.0	n/a	NoResponse	-1	n/a	n/a	12	77	Fixation	Loss	False
731.423	0.5	Lose2	0.6409999999999999	0.001	No	2.576	-0.001	n/a	NoResponse	-1	n/a	n/a	12	77	Target	Loss	False
731.923	0.2	Lose2	0.6409999999999999	n/a	No	2.576	n/a	n/a	NoResponse	-1	n/a	n/a	12	77	Blank	Loss	False
732.123	1.45	Lose2	0.6409999999999999	n/a	No	2.576	n/a	n/a	NoResponse	-1	n/a	n/a	12	77	Feedback	Loss	False
733.572	2.576	Lose2	0.6409999999999999	n/a	No	2.576	n/a	n/a	NoResponse	-1	0.0	n/a	12	77	ISIslide	Loss	False
