onset	duration	cue_type	current_mean_accuracy	duration_error	is_hit	isi_adjusted	onset_delay	response	response_type	reward	rt	rt_time	total_reward	trial_number	trial_phase	trial_type	one_press
11.108	0.25	Control	1.0	0.0	Yes	2.942	0.008	n/a	GoodResponse	0	n/a	n/a	0	0	Cue	Neutral	True
11.359	3.85	Control	1.0	0.0	Yes	2.942	0.001	n/a	GoodResponse	0	n/a	n/a	0	0	Fixation	Neutral	True
15.204	0.4	Control	1.0	0.004	Yes	2.942	-0.004	2.0	GoodResponse	0	0.2	14.404	0	0	Target	Neutral	True
15.404	0.3	Control	1.0	0.004	Yes	2.942	-0.004	2.0	GoodResponse	0	0.2	n/a	0	0	ButtonPress	Neutral	True
15.605	0.3	Control	1.0	n/a	Yes	2.942	n/a	n/a	GoodResponse	0	n/a	n/a	0	0	Blank	Neutral	True
15.906	1.45	Control	1.0	n/a	Yes	2.942	n/a	5.0	GoodResponse	0	0.02	14.926	0	0	Feedback	Neutral	True
17.36	2.942	Control	1.0	n/a	Yes	2.942	n/a	n/a	GoodResponse	0	0.0	n/a	0	0	ISIslide	Neutral	True
20.319	0.25	Lose2	1.0	0.0	Yes	2.781	0.019	n/a	GoodResponse	0	n/a	n/a	0	1	Cue	AvoidedLoss	True
20.57	4.0	Lose2	1.0	0.0	Yes	2.781	0.001	n/a	GoodResponse	0	n/a	n/a	0	1	Fixation	AvoidedLoss	True
24.565	0.39	Lose2	1.0	0.004	Yes	2.781	-0.004	2.0	GoodResponse	0	0.172	23.737	0	1	Target	AvoidedLoss	True
24.737	0.3	Lose2	1.0	0.004	Yes	2.781	-0.004	2.0	GoodResponse	0	0.172	n/a	0	1	ButtonPress	AvoidedLoss	True
24.966	0.31	Lose2	1.0	n/a	Yes	2.781	n/a	n/a	GoodResponse	0	n/a	n/a	0	1	Blank	AvoidedLoss	True
25.267	1.45	Lose2	1.0	n/a	Yes	2.781	n/a	5.0	GoodResponse	0	0.025	24.292	0	1	Feedback	AvoidedLoss	True
26.721	2.781	Lose2	1.0	n/a	Yes	2.781	n/a	2.0	GoodResponse	0	2.451	n/a	0	1	ISIslide	AvoidedLoss	True
29.496	0.25	Control	1.0	0.0	Yes	2.604	-0.004	n/a	GoodResponse	0	n/a	n/a	0	2	Cue	Neutral	True
29.747	4.1	Control	1.0	0.0	Yes	2.604	0.001	n/a	GoodResponse	0	n/a	n/a	0	2	Fixation	Neutral	True
33.843	0.38	Control	1.0	0.003	Yes	2.604	-0.003	2.0	GoodResponse	0	0.181	33.024	0	2	Target	Neutral	True
34.024	0.3	Control	1.0	0.003	Yes	2.604	-0.003	2.0	GoodResponse	0	0.181	n/a	0	2	ButtonPress	Neutral	True
34.227	0.32	Control	1.0	n/a	Yes	2.604	n/a	n/a	GoodResponse	0	n/a	n/a	0	2	Blank	Neutral	True
34.545	1.45	Control	1.0	n/a	Yes	2.604	n/a	5.0	GoodResponse	0	0.015	33.56	0	2	Feedback	Neutral	True
35.999	2.604	Control	1.0	n/a	Yes	2.604	n/a	n/a	GoodResponse	0	0.0	n/a	0	2	ISIslide	Neutral	True
38.624	0.25	Win2	0.75	0.0	No	2.826	0.024	n/a	NoResponse	0	n/a	n/a	0	3	Cue	MissedWin	True
38.875	3.95	Win2	0.75	0.0	No	2.826	0.001	n/a	NoResponse	0	n/a	n/a	0	3	Fixation	MissedWin	True
42.82	0.37	Win2	0.75	0.004	No	2.826	-0.004	2.0	NoResponse	0	0.393	42.213	0	3	Target	MissedWin	True
43.204	0.33	Win2	0.75	n/a	No	2.826	n/a	n/a	NoResponse	0	n/a	n/a	0	3	Blank	MissedWin	True
43.213	0.3	Win2	0.75	0.004	No	2.826	-0.004	2.0	NoResponse	0	0.393	n/a	0	3	ButtonPress	MissedWin	True
43.522	1.45	Win2	0.75	n/a	No	2.826	n/a	5.0	NoResponse	0	0.014	42.536	0	3	Feedback	MissedWin	True
44.976	2.826	Win2	0.75	n/a	No	2.826	n/a	n/a	NoResponse	0	0.0	n/a	0	3	ISIslide	MissedWin	True
47.818	0.25	Win2	0.8	0.0	Yes	3.282	0.018	n/a	GoodResponse	1	n/a	n/a	1	4	Cue	Win	True
48.069	4.0	Win2	0.8	0.0	Yes	3.282	0.001	n/a	GoodResponse	1	n/a	n/a	1	4	Fixation	Win	True
52.064	0.36	Win2	0.8	0.004	Yes	3.282	-0.004	2.0	GoodResponse	1	0.268	51.332	1	4	Target	Win	True
52.332	0.3	Win2	0.8	0.004	Yes	3.282	-0.004	2.0	GoodResponse	1	0.268	n/a	1	4	ButtonPress	Win	True
52.432	0.34	Win2	0.8	n/a	Yes	3.282	n/a	n/a	GoodResponse	1	n/a	n/a	1	4	Blank	Win	True
52.766	1.45	Win2	0.8	n/a	Yes	3.282	n/a	5.0	GoodResponse	1	0.038	51.804	1	4	Feedback	Win	True
54.221	3.282	Win2	0.8	n/a	Yes	3.282	n/a	n/a	GoodResponse	1	0.0	n/a	1	4	ISIslide	Win	True
57.53	0.25	Win2	0.6667000000000001	0.0	No	2.77	0.03	n/a	NoResponse	0	n/a	n/a	1	5	Cue	MissedWin	True
57.781	4.0	Win2	0.6667000000000001	0.0	No	2.77	0.001	n/a	NoResponse	0	n/a	n/a	1	5	Fixation	MissedWin	True
61.776	0.35	Win2	0.6667000000000001	0.004	No	2.77	-0.004	2.0	NoResponse	0	0.376	61.152	1	5	Target	MissedWin	True
62.128	0.35	Win2	0.6667000000000001	n/a	No	2.77	n/a	n/a	NoResponse	0	n/a	n/a	1	5	Blank	MissedWin	True
62.152	0.3	Win2	0.6667000000000001	0.004	No	2.77	-0.004	2.0	NoResponse	0	0.376	n/a	1	5	ButtonPress	MissedWin	True
62.479	1.45	Win2	0.6667000000000001	n/a	No	2.77	n/a	5.0	NoResponse	0	0.032	61.511	1	5	Feedback	MissedWin	True
63.933	2.77	Win2	0.6667000000000001	n/a	No	2.77	n/a	n/a	NoResponse	0	0.0	n/a	1	5	ISIslide	MissedWin	True
66.725	0.25	Lose2	0.7143	0.0	Yes	2.725	0.025	n/a	GoodResponse	0	n/a	n/a	1	6	Cue	AvoidedLoss	True
66.975	3.95	Lose2	0.7143	0.0	Yes	2.725	0.0	n/a	GoodResponse	0	n/a	n/a	1	6	Fixation	AvoidedLoss	True
70.921	0.34	Lose2	0.7143	0.004	Yes	2.725	-0.004	2.0	GoodResponse	0	0.235	70.156	1	6	Target	AvoidedLoss	True
71.156	0.3	Lose2	0.7143	0.004	Yes	2.725	-0.004	2.0	GoodResponse	0	0.235	n/a	1	6	ButtonPress	AvoidedLoss	True
71.272	0.36	Lose2	0.7143	n/a	Yes	2.725	n/a	n/a	GoodResponse	0	n/a	n/a	1	6	Blank	AvoidedLoss	True
71.623	1.45	Lose2	0.7143	n/a	Yes	2.725	n/a	5.0	GoodResponse	0	0.011	70.634	1	6	Feedback	AvoidedLoss	True
73.077	2.725	Lose2	0.7143	n/a	Yes	2.725	n/a	n/a	GoodResponse	0	0.0	n/a	1	6	ISIslide	AvoidedLoss	True
75.819	0.25	Lose2	0.75	0.0	Yes	4.031	0.019	n/a	GoodResponse	0	n/a	n/a	1	7	Cue	AvoidedLoss	True
76.069	4.05	Lose2	0.75	0.0	Yes	4.031	0.0	n/a	GoodResponse	0	n/a	n/a	1	7	Fixation	AvoidedLoss	True
80.115	0.33	Lose2	0.75	0.004	Yes	4.031	-0.004	2.0	GoodResponse	0	0.202	79.317	1	7	Target	AvoidedLoss	True
80.317	0.3	Lose2	0.75	0.004	Yes	4.031	-0.004	2.0	GoodResponse	0	0.202	n/a	1	7	ButtonPress	AvoidedLoss	True
80.449	0.37	Lose2	0.75	n/a	Yes	4.031	n/a	n/a	GoodResponse	0	n/a	n/a	1	7	Blank	AvoidedLoss	True
80.817	1.45	Lose2	0.75	n/a	Yes	4.031	n/a	5.0	GoodResponse	0	0.035	79.852	1	7	Feedback	AvoidedLoss	True
82.271	4.031	Lose2	0.75	n/a	Yes	4.031	n/a	n/a	GoodResponse	0	0.0	n/a	1	7	ISIslide	AvoidedLoss	True
86.317	0.25	Lose2	0.6667000000000001	0.0	No	3.033	0.017	n/a	NoResponse	-1	n/a	n/a	0	8	Cue	Loss	True
86.567	3.95	Lose2	0.6667000000000001	0.001	No	3.033	0.0	2.0	NoResponse	-1	3.42	88.987	0	8	Fixation	Loss	True
89.987	0.3	Lose2	0.6667000000000001	0.001	No	3.033	0.0	2.0	NoResponse	-1	3.42	n/a	0	8	ButtonPress	Loss	True
90.513	0.32	Lose2	0.6667000000000001	0.004	No	3.033	-0.004	n/a	NoResponse	-1	n/a	n/a	0	8	Target	Loss	True
90.847	0.38	Lose2	0.6667000000000001	n/a	No	3.033	n/a	n/a	NoResponse	-1	n/a	n/a	0	8	Blank	Loss	True
91.215	1.45	Lose2	0.6667000000000001	n/a	No	3.033	n/a	5.0	NoResponse	-1	0.027	90.242	0	8	Feedback	Loss	True
92.669	3.033	Lose2	0.6667000000000001	n/a	No	3.033	n/a	2.0	NoResponse	-1	0.271	n/a	0	8	ISIslide	Loss	True
95.711	0.25	Lose2	0.7	0.001	Yes	3.139	0.011	2.0	GoodResponse	0	0.015	94.726	0	9	Cue	AvoidedLoss	False
95.726	0.3	Lose2	0.7	0.001	Yes	3.139	0.011	2.0	GoodResponse	0	0.015	n/a	0	9	ButtonPress	AvoidedLoss	False
95.962	3.95	Lose2	0.7	0.0	Yes	3.139	0.001	2.0	GoodResponse	0	0.18	95.142	0	9	Fixation	AvoidedLoss	False
96.142	0.3	Lose2	0.7	0.0	Yes	3.139	0.001	2.0	GoodResponse	0	0.18	n/a	0	9	ButtonPress	AvoidedLoss	False
99.907	0.31	Lose2	0.7	0.004	Yes	3.139	-0.004	2.0	GoodResponse	0	0.155	99.062	0	9	Target	AvoidedLoss	False
100.062	0.3	Lose2	0.7	0.004	Yes	3.139	-0.004	2.0	GoodResponse	0	0.155	n/a	0	9	ButtonPress	AvoidedLoss	False
100.225	0.39	Lose2	0.7	n/a	Yes	3.139	n/a	n/a	GoodResponse	0	n/a	n/a	0	9	Blank	AvoidedLoss	False
100.61	1.45	Lose2	0.7	n/a	Yes	3.139	n/a	5.0	GoodResponse	0	0.047	99.657	0	9	Feedback	AvoidedLoss	False
102.064	3.139	Lose2	0.7	n/a	Yes	3.139	n/a	n/a	GoodResponse	0	0.0	n/a	0	9	ISIslide	AvoidedLoss	False
105.223	0.25	Control	0.7273000000000001	0.0	Yes	3.277	0.023	n/a	GoodResponse	0	n/a	n/a	0	10	Cue	Neutral	True
105.474	4.0	Control	0.7273000000000001	0.0	Yes	3.277	0.001	n/a	GoodResponse	0	n/a	n/a	0	10	Fixation	Neutral	True
109.469	0.3	Control	0.7273000000000001	0.004	Yes	3.277	-0.004	2.0	GoodResponse	0	0.268	108.737	0	10	Target	Neutral	True
109.737	0.3	Control	0.7273000000000001	0.004	Yes	3.277	-0.004	2.0	GoodResponse	0	0.268	n/a	0	10	ButtonPress	Neutral	True
109.77	0.4	Control	0.7273000000000001	n/a	Yes	3.277	n/a	n/a	GoodResponse	0	n/a	n/a	0	10	Blank	Neutral	True
110.171	1.45	Control	0.7273000000000001	n/a	Yes	3.277	n/a	5.0	GoodResponse	0	0.047	109.218	0	10	Feedback	Neutral	True
111.626	3.277	Control	0.7273000000000001	n/a	Yes	3.277	n/a	n/a	GoodResponse	0	0.0	n/a	0	10	ISIslide	Neutral	True
114.919	0.25	Lose2	0.75	0.0	Yes	2.731	0.019	n/a	GoodResponse	0	n/a	n/a	0	11	Cue	AvoidedLoss	True
115.17	4.05	Lose2	0.75	0.0	Yes	2.731	0.001	n/a	GoodResponse	0	n/a	n/a	0	11	Fixation	AvoidedLoss	True
119.215	0.29	Lose2	0.75	0.004	Yes	2.731	-0.004	2.0	GoodResponse	0	0.234	118.449	0	11	Target	AvoidedLoss	True
119.449	0.3	Lose2	0.75	0.004	Yes	2.731	-0.004	2.0	GoodResponse	0	0.234	n/a	0	11	ButtonPress	AvoidedLoss	True
119.516	0.41	Lose2	0.75	n/a	Yes	2.731	n/a	n/a	GoodResponse	0	n/a	n/a	0	11	Blank	AvoidedLoss	True
119.917	1.45	Lose2	0.75	n/a	Yes	2.731	n/a	5.0	GoodResponse	0	0.009	118.926	0	11	Feedback	AvoidedLoss	True
121.372	2.731	Lose2	0.75	n/a	Yes	2.731	n/a	n/a	GoodResponse	0	0.0	n/a	0	11	ISIslide	AvoidedLoss	True
124.13	0.25	Control	0.7692	0.0	Yes	2.97	0.03	n/a	GoodResponse	0	n/a	n/a	0	12	Cue	Neutral	True
124.381	3.9	Control	0.7692	0.0	Yes	2.97	0.001	n/a	GoodResponse	0	n/a	n/a	0	12	Fixation	Neutral	True
128.276	0.28	Control	0.7692	0.004	Yes	2.97	-0.004	2.0	GoodResponse	0	0.246	127.522	0	12	Target	Neutral	True
128.522	0.3	Control	0.7692	0.004	Yes	2.97	-0.004	2.0	GoodResponse	0	0.246	n/a	0	12	ButtonPress	Neutral	True
128.56	0.42	Control	0.7692	n/a	Yes	2.97	n/a	n/a	GoodResponse	0	n/a	n/a	0	12	Blank	Neutral	True
128.978	1.45	Control	0.7692	n/a	Yes	2.97	n/a	5.0	GoodResponse	0	0.021	127.999	0	12	Feedback	Neutral	True
130.432	2.97	Control	0.7692	n/a	Yes	2.97	n/a	n/a	GoodResponse	0	0.0	n/a	0	12	ISIslide	Neutral	True
133.425	0.25	Control	0.7143	0.0	No	2.775	0.025	n/a	NoResponse	0	n/a	n/a	0	13	Cue	Neutral	True
133.675	4.0	Control	0.7143	0.0	No	2.775	0.0	n/a	NoResponse	0	n/a	n/a	0	13	Fixation	Neutral	True
137.671	0.27	Control	0.7143	0.004	No	2.775	-0.004	2.0	NoResponse	0	0.427	137.098	0	13	Target	Neutral	True
137.955	0.43	Control	0.7143	n/a	No	2.775	n/a	n/a	NoResponse	0	n/a	n/a	0	13	Blank	Neutral	True
138.098	0.3	Control	0.7143	0.004	No	2.775	-0.004	2.0	NoResponse	0	0.427	n/a	0	13	ButtonPress	Neutral	True
138.373	1.45	Control	0.7143	n/a	No	2.775	n/a	5.0	NoResponse	0	0.04	137.413	0	13	Feedback	Neutral	True
139.827	2.775	Control	0.7143	n/a	No	2.775	n/a	2.0	NoResponse	0	0.559	n/a	0	13	ISIslide	Neutral	True
142.602	0.25	Win2	0.6667000000000001	0.0	No	2.698	0.002	2.0	NoResponse	0	0.12	141.722	0	14	Cue	MissedWin	False
142.722	0.3	Win2	0.6667000000000001	0.0	No	2.698	0.002	2.0	NoResponse	0	0.12	n/a	0	14	ButtonPress	MissedWin	False
142.853	4.1	Win2	0.6667000000000001	0.0	No	2.698	0.001	2.0	NoResponse	0	0.234	142.087	0	14	Fixation	MissedWin	False
143.087	0.3	Win2	0.6667000000000001	0.0	No	2.698	0.001	2.0	NoResponse	0	0.234	n/a	0	14	ButtonPress	MissedWin	False
146.948	0.26	Win2	0.6667000000000001	0.004	No	2.698	-0.004	2.0	NoResponse	0	0.343	146.291	0	14	Target	MissedWin	False
147.216	0.44	Win2	0.6667000000000001	n/a	No	2.698	n/a	n/a	NoResponse	0	n/a	n/a	0	14	Blank	MissedWin	False
147.291	0.3	Win2	0.6667000000000001	0.004	No	2.698	-0.004	2.0	NoResponse	0	0.343	n/a	0	14	ButtonPress	MissedWin	False
147.65	1.45	Win2	0.6667000000000001	n/a	No	2.698	n/a	5.0	NoResponse	0	0.031	146.681	0	14	Feedback	MissedWin	False
149.105	2.698	Win2	0.6667000000000001	n/a	No	2.698	n/a	n/a	NoResponse	0	0.0	n/a	0	14	ISIslide	MissedWin	False
151.83	0.25	Control	0.625	0.0	No	2.97	0.03	n/a	NoResponse	0	n/a	n/a	0	15	Cue	Neutral	False
152.08	4.0	Control	0.625	0.0	No	2.97	0.0	n/a	NoResponse	0	n/a	n/a	0	15	Fixation	Neutral	False
156.076	0.25	Control	0.625	0.004	No	2.97	-0.004	n/a	NoResponse	0	n/a	n/a	0	15	Target	Neutral	False
156.326	0.45	Control	0.625	n/a	No	2.97	n/a	n/a	NoResponse	0	n/a	n/a	0	15	Blank	Neutral	False
156.778	1.45	Control	0.625	n/a	No	2.97	n/a	5.0	NoResponse	0	0.025	155.803	0	15	Feedback	Neutral	False
158.232	2.97	Control	0.625	n/a	No	2.97	n/a	2.0	NoResponse	0	0.85	n/a	0	15	ISIslide	Neutral	False
161.208	0.25	Win2	0.5882000000000001	0.0	No	2.892	0.008	n/a	NoResponse	0	n/a	n/a	0	16	Cue	MissedWin	False
161.458	4.0	Win2	0.5882000000000001	0.001	No	2.892	0.0	2.0	NoResponse	0	0.013	160.471	0	16	Fixation	MissedWin	False
161.471	0.3	Win2	0.5882000000000001	0.001	No	2.892	0.0	2.0	NoResponse	0	0.013	n/a	0	16	ButtonPress	MissedWin	False
165.454	0.26	Win2	0.5882000000000001	0.004	No	2.892	-0.004	2.0	NoResponse	0	0.293	164.747	0	16	Target	MissedWin	False
165.721	0.44	Win2	0.5882000000000001	n/a	No	2.892	n/a	n/a	NoResponse	0	n/a	n/a	0	16	Blank	MissedWin	False
165.747	0.3	Win2	0.5882000000000001	0.004	No	2.892	-0.004	2.0	NoResponse	0	0.293	n/a	0	16	ButtonPress	MissedWin	False
166.156	1.45	Win2	0.5882000000000001	n/a	No	2.892	n/a	5.0	NoResponse	0	0.013	165.169	0	16	Feedback	MissedWin	False
167.61	2.892	Win2	0.5882000000000001	n/a	No	2.892	n/a	n/a	NoResponse	0	0.0	n/a	0	16	ISIslide	MissedWin	False
170.519	0.25	Lose2	0.6111	0.0	Yes	2.731	0.019	n/a	GoodResponse	0	n/a	n/a	0	17	Cue	AvoidedLoss	True
170.77	3.95	Lose2	0.6111	0.0	Yes	2.731	0.001	n/a	GoodResponse	0	n/a	n/a	0	17	Fixation	AvoidedLoss	True
174.715	0.27	Lose2	0.6111	0.004	Yes	2.731	-0.004	2.0	GoodResponse	0	0.179	173.894	0	17	Target	AvoidedLoss	True
174.894	0.3	Lose2	0.6111	0.004	Yes	2.731	-0.004	2.0	GoodResponse	0	0.179	n/a	0	17	ButtonPress	AvoidedLoss	True
174.999	0.43	Lose2	0.6111	n/a	Yes	2.731	n/a	n/a	GoodResponse	0	n/a	n/a	0	17	Blank	AvoidedLoss	True
175.417	1.45	Lose2	0.6111	n/a	Yes	2.731	n/a	5.0	GoodResponse	0	0.02	174.437	0	17	Feedback	AvoidedLoss	True
176.871	2.731	Lose2	0.6111	n/a	Yes	2.731	n/a	n/a	GoodResponse	0	0.0	n/a	0	17	ISIslide	AvoidedLoss	True
179.63	0.25	Lose2	0.5789	0.0	No	2.72	0.03	n/a	NoResponse	-1	n/a	n/a	-1	18	Cue	Loss	True
179.88	4.05	Lose2	0.5789	0.0	No	2.72	0.0	n/a	NoResponse	-1	n/a	n/a	-1	18	Fixation	Loss	True
183.926	0.28	Lose2	0.5789	0.004	No	2.72	-0.004	2.0	NoResponse	-1	0.336	183.262	-1	18	Target	Loss	True
184.21	0.42	Lose2	0.5789	n/a	No	2.72	n/a	n/a	NoResponse	-1	n/a	n/a	-1	18	Blank	Loss	True
184.262	0.3	Lose2	0.5789	0.004	No	2.72	-0.004	2.0	NoResponse	-1	0.336	n/a	-1	18	ButtonPress	Loss	True
184.628	1.45	Lose2	0.5789	n/a	No	2.72	n/a	5.0	NoResponse	-1	0.029	183.657	-1	18	Feedback	Loss	True
186.082	2.72	Lose2	0.5789	n/a	No	2.72	n/a	n/a	NoResponse	-1	0.0	n/a	-1	18	ISIslide	Loss	True
188.824	0.25	Control	0.55	0.0	No	2.926	0.024	n/a	NoResponse	0	n/a	n/a	-1	19	Cue	Neutral	True
189.075	3.95	Control	0.55	0.0	No	2.926	0.001	n/a	NoResponse	0	n/a	n/a	-1	19	Fixation	Neutral	True
193.02	0.29	Control	0.55	0.004	No	2.926	-0.004	2.0	NoResponse	0	0.389	192.409	-1	19	Target	Neutral	True
193.321	0.41	Control	0.55	n/a	No	2.926	n/a	n/a	NoResponse	0	n/a	n/a	-1	19	Blank	Neutral	True
193.409	0.3	Control	0.55	0.004	No	2.926	-0.004	2.0	NoResponse	0	0.389	n/a	-1	19	ButtonPress	Neutral	True
193.722	1.45	Control	0.55	n/a	No	2.926	n/a	5.0	NoResponse	0	0.008	192.73	-1	19	Feedback	Neutral	True
195.176	2.926	Control	0.55	n/a	No	2.926	n/a	n/a	NoResponse	0	0.0	n/a	-1	19	ISIslide	Neutral	True
198.118	0.25	Control	0.5238	0.0	No	2.632	0.018	n/a	NoResponse	0	n/a	n/a	-1	20	Cue	Neutral	False
198.369	4.05	Control	0.5238	0.0	No	2.632	0.001	n/a	NoResponse	0	n/a	n/a	-1	20	Fixation	Neutral	False
202.415	0.3	Control	0.5238	0.003	No	2.632	-0.003	n/a	NoResponse	0	n/a	n/a	-1	20	Target	Neutral	False
202.715	0.4	Control	0.5238	n/a	No	2.632	n/a	n/a	NoResponse	0	n/a	n/a	-1	20	Blank	Neutral	False
203.117	1.45	Control	0.5238	n/a	No	2.632	n/a	5.0	NoResponse	0	0.027	202.144	-1	20	Feedback	Neutral	False
204.571	2.632	Control	0.5238	n/a	No	2.632	n/a	n/a	NoResponse	0	0.0	n/a	-1	20	ISIslide	Neutral	False
207.229	0.25	Control	0.5	0.0	No	2.771	0.029	n/a	NoResponse	0	n/a	n/a	-1	21	Cue	Neutral	False
207.48	4.1	Control	0.5	0.0	No	2.771	0.001	n/a	NoResponse	0	n/a	n/a	-1	21	Fixation	Neutral	False
211.575	0.31	Control	0.5	0.004	No	2.771	-0.004	n/a	NoResponse	0	n/a	n/a	-1	21	Target	Neutral	False
211.893	0.39	Control	0.5	n/a	No	2.771	n/a	n/a	NoResponse	0	n/a	n/a	-1	21	Blank	Neutral	False
212.277	1.45	Control	0.5	n/a	No	2.771	n/a	5.0	NoResponse	0	0.038	211.315	-1	21	Feedback	Neutral	False
213.732	2.771	Control	0.5	n/a	No	2.771	n/a	n/a	NoResponse	0	0.0	n/a	-1	21	ISIslide	Neutral	False
216.523	0.25	Control	0.5217	0.001	Yes	2.777	0.023	n/a	GoodResponse	0	n/a	n/a	-1	22	Cue	Neutral	True
216.774	4.0	Control	0.5217	0.0	Yes	2.777	0.001	n/a	GoodResponse	0	n/a	n/a	-1	22	Fixation	Neutral	True
220.77	0.32	Control	0.5217	0.003	Yes	2.777	-0.003	2.0	GoodResponse	0	0.309	220.079	-1	22	Target	Neutral	True
221.079	0.3	Control	0.5217	0.003	Yes	2.777	-0.003	2.0	GoodResponse	0	0.309	n/a	-1	22	ButtonPress	Neutral	True
221.104	0.38	Control	0.5217	n/a	Yes	2.777	n/a	n/a	GoodResponse	0	n/a	n/a	-1	22	Blank	Neutral	True
221.472	1.45	Control	0.5217	n/a	Yes	2.777	n/a	5.0	GoodResponse	0	0.014	220.486	-1	22	Feedback	Neutral	True
222.926	2.777	Control	0.5217	n/a	Yes	2.777	n/a	n/a	GoodResponse	0	0.0	n/a	-1	22	ISIslide	Neutral	True
225.718	0.25	Control	0.5417000000000001	0.0	Yes	2.782	0.018	n/a	GoodResponse	0	n/a	n/a	-1	23	Cue	Neutral	True
225.968	3.9	Control	0.5417000000000001	0.001	Yes	2.782	0.0	n/a	GoodResponse	0	n/a	n/a	-1	23	Fixation	Neutral	True
229.863	0.33	Control	0.5417000000000001	0.005	Yes	2.782	-0.005	2.0	GoodResponse	0	0.214	229.077	-1	23	Target	Neutral	True
230.077	0.3	Control	0.5417000000000001	0.005	Yes	2.782	-0.005	2.0	GoodResponse	0	0.214	n/a	-1	23	ButtonPress	Neutral	True
230.198	0.37	Control	0.5417000000000001	n/a	Yes	2.782	n/a	n/a	GoodResponse	0	n/a	n/a	-1	23	Blank	Neutral	True
230.566	1.45	Control	0.5417000000000001	n/a	Yes	2.782	n/a	5.0	GoodResponse	0	0.042	229.608	-1	23	Feedback	Neutral	True
232.02	2.782	Control	0.5417000000000001	n/a	Yes	2.782	n/a	n/a	GoodResponse	0	0.0	n/a	-1	23	ISIslide	Neutral	True
234.828	0.25	Win2	0.52	0.0	No	3.122	0.028	n/a	NoResponse	0	n/a	n/a	-1	24	Cue	MissedWin	True
235.079	3.95	Win2	0.52	0.0	No	3.122	0.001	n/a	NoResponse	0	n/a	n/a	-1	24	Fixation	MissedWin	True
239.024	0.34	Win2	0.52	0.004	No	3.122	-0.004	2.0	NoResponse	0	0.449	238.473	-1	24	Target	MissedWin	True
239.375	0.36	Win2	0.52	n/a	No	3.122	n/a	n/a	NoResponse	0	n/a	n/a	-1	24	Blank	MissedWin	True
239.473	0.3	Win2	0.52	0.004	No	3.122	-0.004	2.0	NoResponse	0	0.449	n/a	-1	24	ButtonPress	MissedWin	True
239.726	1.45	Win2	0.52	n/a	No	3.122	n/a	5.0	NoResponse	0	0.008	238.734	-1	24	Feedback	MissedWin	True
241.181	3.122	Win2	0.52	n/a	No	3.122	n/a	n/a	NoResponse	0	0.0	n/a	-1	24	ISIslide	MissedWin	True
244.323	0.25	Win2	0.5385	0.001	Yes	3.077	0.023	n/a	GoodResponse	1	n/a	n/a	0	25	Cue	Win	False
244.574	4.0	Win2	0.5385	0.0	Yes	3.077	0.001	2.0	GoodResponse	1	0.028	243.602	0	25	Fixation	Win	False
244.602	0.3	Win2	0.5385	0.0	Yes	3.077	0.001	2.0	GoodResponse	1	0.028	n/a	0	25	ButtonPress	Win	False
248.57	0.35	Win2	0.5385	0.003	Yes	3.077	-0.003	2.0	GoodResponse	1	0.245	247.815	0	25	Target	Win	False
248.815	0.3	Win2	0.5385	0.003	Yes	3.077	-0.003	2.0	GoodResponse	1	0.245	n/a	0	25	ButtonPress	Win	False
248.921	0.35	Win2	0.5385	n/a	Yes	3.077	n/a	n/a	GoodResponse	1	n/a	n/a	0	25	Blank	Win	False
249.272	1.45	Win2	0.5385	n/a	Yes	3.077	n/a	5.0	GoodResponse	1	0.019	248.291	0	25	Feedback	Win	False
250.726	3.077	Win2	0.5385	n/a	Yes	3.077	n/a	n/a	GoodResponse	1	0.0	n/a	0	25	ISIslide	Win	False
253.819	0.25	Win2	0.5185	0.0	No	2.931	0.019	n/a	NoResponse	0	n/a	n/a	0	26	Cue	MissedWin	False
254.069	3.95	Win2	0.5185	0.0	No	2.931	0.0	n/a	NoResponse	0	n/a	n/a	0	26	Fixation	MissedWin	False
258.031	0.36	Win2	0.5185	0.0	No	2.931	0.012	n/a	NoResponse	0	n/a	n/a	0	26	Target	MissedWin	False
258.382	0.34	Win2	0.5185	n/a	No	2.931	n/a	n/a	NoResponse	0	n/a	n/a	0	26	Blank	MissedWin	False
258.717	1.45	Win2	0.5185	n/a	No	2.931	n/a	5.0	NoResponse	0	0.036	257.753	0	26	Feedback	MissedWin	False
260.171	2.931	Win2	0.5185	n/a	No	2.931	n/a	n/a	NoResponse	0	0.0	n/a	0	26	ISIslide	MissedWin	False
263.13	0.25	Lose2	0.5357	0.0	Yes	2.82	0.03	n/a	GoodResponse	0	n/a	n/a	0	27	Cue	AvoidedLoss	True
263.381	4.05	Lose2	0.5357	0.0	Yes	2.82	0.001	n/a	GoodResponse	0	n/a	n/a	0	27	Fixation	AvoidedLoss	True
267.426	0.37	Lose2	0.5357	0.004	Yes	2.82	-0.004	2.0	GoodResponse	0	0.231	266.657	0	27	Target	AvoidedLoss	True
267.657	0.3	Lose2	0.5357	0.004	Yes	2.82	-0.004	2.0	GoodResponse	0	0.231	n/a	0	27	ButtonPress	AvoidedLoss	True
267.811	0.33	Lose2	0.5357	n/a	Yes	2.82	n/a	n/a	GoodResponse	0	n/a	n/a	0	27	Blank	AvoidedLoss	True
268.128	1.45	Lose2	0.5357	n/a	Yes	2.82	n/a	5.0	GoodResponse	0	0.04	267.168	0	27	Feedback	AvoidedLoss	True
269.582	2.82	Lose2	0.5357	n/a	Yes	2.82	n/a	n/a	GoodResponse	0	0.0	n/a	0	27	ISIslide	AvoidedLoss	True
272.424	0.25	Control	0.5517	0.0	Yes	2.826	0.024	n/a	GoodResponse	0	n/a	n/a	0	28	Cue	Neutral	True
272.675	4.05	Control	0.5517	0.0	Yes	2.826	0.001	n/a	GoodResponse	0	n/a	n/a	0	28	Fixation	Neutral	True
276.721	0.38	Control	0.5517	0.003	Yes	2.826	-0.003	2.0	GoodResponse	0	0.307	276.028	0	28	Target	Neutral	True
277.028	0.3	Control	0.5517	0.003	Yes	2.826	-0.003	2.0	GoodResponse	0	0.307	n/a	0	28	ButtonPress	Neutral	True
277.105	0.32	Control	0.5517	n/a	Yes	2.826	n/a	n/a	GoodResponse	0	n/a	n/a	0	28	Blank	Neutral	True
277.423	1.45	Control	0.5517	n/a	Yes	2.826	n/a	5.0	GoodResponse	0	0.014	276.437	0	28	Feedback	Neutral	True
278.877	2.826	Control	0.5517	n/a	Yes	2.826	n/a	n/a	GoodResponse	0	0.0	n/a	0	28	ISIslide	Neutral	True
281.719	0.25	Lose2	0.5667	0.0	Yes	2.831	0.019	n/a	GoodResponse	0	n/a	n/a	0	29	Cue	AvoidedLoss	False
281.97	3.95	Lose2	0.5667	0.0	Yes	2.831	0.001	2.0	GoodResponse	0	0.084	281.054	0	29	Fixation	AvoidedLoss	False
282.054	0.3	Lose2	0.5667	0.0	Yes	2.831	0.001	2.0	GoodResponse	0	0.084	n/a	0	29	ButtonPress	AvoidedLoss	False
285.915	0.39	Lose2	0.5667	0.004	Yes	2.831	-0.004	2.0	GoodResponse	0	0.262	285.177	0	29	Target	AvoidedLoss	False
286.177	0.3	Lose2	0.5667	0.004	Yes	2.831	-0.004	2.0	GoodResponse	0	0.262	n/a	0	29	ButtonPress	AvoidedLoss	False
286.316	0.31	Lose2	0.5667	n/a	Yes	2.831	n/a	n/a	GoodResponse	0	n/a	n/a	0	29	Blank	AvoidedLoss	False
286.617	1.45	Lose2	0.5667	n/a	Yes	2.831	n/a	5.0	GoodResponse	0	0.039	285.656	0	29	Feedback	AvoidedLoss	False
288.071	2.831	Lose2	0.5667	n/a	Yes	2.831	n/a	n/a	GoodResponse	0	0.0	n/a	0	29	ISIslide	AvoidedLoss	False
290.93	0.25	Win2	0.5806	0.0	Yes	2.77	0.03	n/a	GoodResponse	1	n/a	n/a	1	30	Cue	Win	True
291.181	3.9	Win2	0.5806	0.0	Yes	2.77	0.001	n/a	GoodResponse	1	n/a	n/a	1	30	Fixation	Win	True
295.076	0.4	Win2	0.5806	0.004	Yes	2.77	-0.004	2.0	GoodResponse	1	0.297	294.373	1	30	Target	Win	True
295.373	0.3	Win2	0.5806	0.004	Yes	2.77	-0.004	2.0	GoodResponse	1	0.297	n/a	1	30	ButtonPress	Win	True
295.477	0.3	Win2	0.5806	n/a	Yes	2.77	n/a	n/a	GoodResponse	1	n/a	n/a	1	30	Blank	Win	True
295.778	1.45	Win2	0.5806	n/a	Yes	2.77	n/a	5.0	GoodResponse	1	0.0	294.778	1	30	Feedback	Win	True
297.232	2.77	Win2	0.5806	n/a	Yes	2.77	n/a	n/a	GoodResponse	1	0.0	n/a	1	30	ISIslide	Win	True
300.024	0.25	Lose2	0.5938	0.0	Yes	2.826	0.024	n/a	GoodResponse	0	n/a	n/a	1	31	Cue	AvoidedLoss	True
300.274	4.05	Lose2	0.5938	0.001	Yes	2.826	0.0	n/a	GoodResponse	0	n/a	n/a	1	31	Fixation	AvoidedLoss	True
304.32	0.41	Lose2	0.5938	0.004	Yes	2.826	-0.004	2.0	GoodResponse	0	0.298	303.618	1	31	Target	AvoidedLoss	True
304.618	0.3	Lose2	0.5938	0.004	Yes	2.826	-0.004	2.0	GoodResponse	0	0.298	n/a	1	31	ButtonPress	AvoidedLoss	True
304.738	0.29	Lose2	0.5938	n/a	Yes	2.826	n/a	n/a	GoodResponse	0	n/a	n/a	1	31	Blank	AvoidedLoss	True
305.022	1.45	Lose2	0.5938	n/a	Yes	2.826	n/a	5.0	GoodResponse	0	0.025	304.047	1	31	Feedback	AvoidedLoss	True
306.476	2.826	Lose2	0.5938	n/a	Yes	2.826	n/a	n/a	GoodResponse	0	0.0	n/a	1	31	ISIslide	AvoidedLoss	True
309.318	0.25	Lose2	0.6061	0.0	Yes	2.632	0.018	n/a	GoodResponse	0	n/a	n/a	1	32	Cue	AvoidedLoss	True
309.569	4.15	Lose2	0.6061	0.0	Yes	2.632	0.001	n/a	GoodResponse	0	n/a	n/a	1	32	Fixation	AvoidedLoss	True
313.715	0.42	Lose2	0.6061	0.003	Yes	2.632	-0.003	2.0	GoodResponse	0	0.321	313.036	1	32	Target	AvoidedLoss	True
314.036	0.3	Lose2	0.6061	0.003	Yes	2.632	-0.003	2.0	GoodResponse	0	0.321	n/a	1	32	ButtonPress	AvoidedLoss	True
314.149	0.28	Lose2	0.6061	n/a	Yes	2.632	n/a	n/a	GoodResponse	0	n/a	n/a	1	32	Blank	AvoidedLoss	True
314.417	1.45	Lose2	0.6061	n/a	Yes	2.632	n/a	5.0	GoodResponse	0	0.043	313.46	1	32	Feedback	AvoidedLoss	True
315.871	2.632	Lose2	0.6061	n/a	Yes	2.632	n/a	n/a	GoodResponse	0	0.0	n/a	1	32	ISIslide	AvoidedLoss	True
318.529	0.25	Win2	0.5882000000000001	0.0	No	2.671	0.029	n/a	NoResponse	0	n/a	n/a	1	33	Cue	MissedWin	False
318.78	4.0	Win2	0.5882000000000001	0.0	No	2.671	0.001	n/a	NoResponse	0	n/a	n/a	1	33	Fixation	MissedWin	False
322.775	0.43	Win2	0.5882000000000001	0.004	No	2.671	-0.004	n/a	NoResponse	0	n/a	n/a	1	33	Target	MissedWin	False
323.21	0.27	Win2	0.5882000000000001	n/a	No	2.671	n/a	n/a	NoResponse	0	n/a	n/a	1	33	Blank	MissedWin	False
323.477	1.45	Win2	0.5882000000000001	n/a	No	2.671	n/a	5.0	NoResponse	0	0.008	322.485	1	33	Feedback	MissedWin	False
324.932	2.671	Win2	0.5882000000000001	n/a	No	2.671	n/a	n/a	NoResponse	0	0.0	n/a	1	33	ISIslide	MissedWin	False
327.623	0.25	Lose2	0.5714	0.0	No	2.627	0.023	n/a	NoResponse	-1	n/a	n/a	0	34	Cue	Loss	False
327.874	4.05	Lose2	0.5714	0.0	No	2.627	0.001	n/a	NoResponse	-1	n/a	n/a	0	34	Fixation	Loss	False
331.919	0.44	Lose2	0.5714	0.004	No	2.627	-0.004	n/a	NoResponse	-1	n/a	n/a	0	34	Target	Loss	False
332.371	0.26	Lose2	0.5714	n/a	No	2.627	n/a	n/a	NoResponse	-1	n/a	n/a	0	34	Blank	Loss	False
332.621	1.45	Lose2	0.5714	n/a	No	2.627	n/a	5.0	NoResponse	-1	0.035	331.656	0	34	Feedback	Loss	False
334.076	2.627	Lose2	0.5714	n/a	No	2.627	n/a	n/a	NoResponse	-1	0.0	n/a	0	34	ISIslide	Loss	False
336.717	0.25	Lose2	0.5556	0.0	No	2.683	0.017	n/a	NoResponse	-1	n/a	n/a	-1	35	Cue	Loss	False
336.968	4.0	Lose2	0.5556	0.0	No	2.683	0.001	n/a	NoResponse	-1	n/a	n/a	-1	35	Fixation	Loss	False
340.963	0.45	Lose2	0.5556	0.004	No	2.683	-0.004	n/a	NoResponse	-1	n/a	n/a	-1	35	Target	Loss	False
341.414	0.25	Lose2	0.5556	n/a	No	2.683	n/a	n/a	NoResponse	-1	n/a	n/a	-1	35	Blank	Loss	False
341.665	1.45	Lose2	0.5556	n/a	No	2.683	n/a	5.0	NoResponse	-1	0.015	340.68	-1	35	Feedback	Loss	False
343.119	2.683	Lose2	0.5556	n/a	No	2.683	n/a	n/a	NoResponse	-1	0.0	n/a	-1	35	ISIslide	Loss	False
345.828	0.25	Control	0.5676	0.0	Yes	2.672	0.028	n/a	GoodResponse	0	n/a	n/a	-1	36	Cue	Neutral	True
346.078	4.0	Control	0.5676	0.0	Yes	2.672	0.0	n/a	GoodResponse	0	n/a	n/a	-1	36	Fixation	Neutral	True
350.074	0.46	Control	0.5676	0.004	Yes	2.672	-0.004	2.0	GoodResponse	0	0.231	349.305	-1	36	Target	Neutral	True
350.305	0.3	Control	0.5676	0.004	Yes	2.672	-0.004	2.0	GoodResponse	0	0.231	n/a	-1	36	ButtonPress	Neutral	True
350.542	0.24	Control	0.5676	n/a	Yes	2.672	n/a	n/a	GoodResponse	0	n/a	n/a	-1	36	Blank	Neutral	True
350.776	1.45	Control	0.5676	n/a	Yes	2.672	n/a	5.0	GoodResponse	0	0.026	349.802	-1	36	Feedback	Neutral	True
352.23	2.672	Control	0.5676	n/a	Yes	2.672	n/a	n/a	GoodResponse	0	0.0	n/a	-1	36	ISIslide	Neutral	True
354.922	0.25	Win2	0.5526	0.0	No	2.878	0.022	n/a	NoResponse	0	n/a	n/a	-1	37	Cue	MissedWin	False
355.172	4.0	Win2	0.5526	0.0	No	2.878	0.0	n/a	NoResponse	0	n/a	n/a	-1	37	Fixation	MissedWin	False
359.168	0.47	Win2	0.5526	0.004	No	2.878	-0.004	n/a	NoResponse	0	n/a	n/a	-1	37	Target	MissedWin	False
359.652	0.23	Win2	0.5526	n/a	No	2.878	n/a	n/a	NoResponse	0	n/a	n/a	-1	37	Blank	MissedWin	False
359.87	1.45	Win2	0.5526	n/a	No	2.878	n/a	5.0	NoResponse	0	0.008	358.878	-1	37	Feedback	MissedWin	False
361.324	2.878	Win2	0.5526	n/a	No	2.878	n/a	n/a	NoResponse	0	0.0	n/a	-1	37	ISIslide	MissedWin	False
364.216	0.25	Lose2	0.5640999999999999	0.0	Yes	2.834	0.016	n/a	GoodResponse	0	n/a	n/a	-1	38	Cue	AvoidedLoss	True
364.467	3.95	Lose2	0.5640999999999999	0.0	Yes	2.834	0.001	n/a	GoodResponse	0	n/a	n/a	-1	38	Fixation	AvoidedLoss	True
368.412	0.48	Lose2	0.5640999999999999	0.004	Yes	2.834	-0.004	2.0	GoodResponse	0	0.391	367.803	-1	38	Target	AvoidedLoss	True
368.803	0.3	Lose2	0.5640999999999999	0.004	Yes	2.834	-0.004	2.0	GoodResponse	0	0.391	n/a	-1	38	ButtonPress	AvoidedLoss	True
368.897	0.22	Lose2	0.5640999999999999	n/a	Yes	2.834	n/a	n/a	GoodResponse	0	n/a	n/a	-1	38	Blank	AvoidedLoss	True
369.114	1.45	Lose2	0.5640999999999999	n/a	Yes	2.834	n/a	5.0	GoodResponse	0	0.03	368.144	-1	38	Feedback	AvoidedLoss	True
370.568	2.834	Lose2	0.5640999999999999	n/a	Yes	2.834	n/a	n/a	GoodResponse	0	0.0	n/a	-1	38	ISIslide	AvoidedLoss	True
373.427	0.25	Win2	0.575	0.0	Yes	2.973	0.027	n/a	GoodResponse	1	n/a	n/a	0	39	Cue	Win	True
373.678	4.1	Win2	0.575	0.0	Yes	2.973	0.001	n/a	GoodResponse	1	n/a	n/a	0	39	Fixation	Win	True
377.773	0.49	Win2	0.575	0.004	Yes	2.973	-0.004	2.0	GoodResponse	1	0.438	377.211	0	39	Target	Win	True
378.211	0.3	Win2	0.575	0.004	Yes	2.973	-0.004	2.0	GoodResponse	1	0.438	n/a	0	39	ButtonPress	Win	True
378.275	0.21	Win2	0.575	n/a	Yes	2.973	n/a	n/a	GoodResponse	1	n/a	n/a	0	39	Blank	Win	True
378.475	1.45	Win2	0.575	n/a	Yes	2.973	n/a	5.0	GoodResponse	1	0.034	377.509	0	39	Feedback	Win	True
379.93	2.973	Win2	0.575	n/a	Yes	2.973	n/a	n/a	GoodResponse	1	0.0	n/a	0	39	ISIslide	Win	True
382.922	0.25	Win2	0.5854	0.0	Yes	2.728	0.022	n/a	GoodResponse	1	n/a	n/a	1	40	Cue	Win	False
383.173	3.95	Win2	0.5854	0.0	Yes	2.728	0.001	2.0	GoodResponse	1	0.072	382.245	1	40	Fixation	Win	False
383.245	0.3	Win2	0.5854	0.0	Yes	2.728	0.001	2.0	GoodResponse	1	0.072	n/a	1	40	ButtonPress	Win	False
387.118	0.5	Win2	0.5854	0.004	Yes	2.728	-0.004	2.0	GoodResponse	1	0.211	386.329	1	40	Target	Win	False
387.329	0.3	Win2	0.5854	0.004	Yes	2.728	-0.004	2.0	GoodResponse	1	0.211	n/a	1	40	ButtonPress	Win	False
387.62	0.2	Win2	0.5854	n/a	Yes	2.728	n/a	n/a	GoodResponse	1	n/a	n/a	1	40	Blank	Win	False
387.82	1.45	Win2	0.5854	n/a	Yes	2.728	n/a	5.0	GoodResponse	1	0.006	386.826	1	40	Feedback	Win	False
389.274	2.728	Win2	0.5854	n/a	Yes	2.728	n/a	n/a	GoodResponse	1	0.0	n/a	1	40	ISIslide	Win	False
392.016	0.25	Win2	0.5952000000000001	0.0	Yes	2.784	0.016	n/a	GoodResponse	1	n/a	n/a	2	41	Cue	Win	True
392.267	3.9	Win2	0.5952000000000001	0.0	Yes	2.784	0.001	n/a	GoodResponse	1	n/a	n/a	2	41	Fixation	Win	True
396.162	0.5	Win2	0.5952000000000001	0.004	Yes	2.784	-0.004	2.0	GoodResponse	1	0.348	395.51	2	41	Target	Win	True
396.51	0.3	Win2	0.5952000000000001	0.004	Yes	2.784	-0.004	2.0	GoodResponse	1	0.348	n/a	2	41	ButtonPress	Win	True
396.663	0.2	Win2	0.5952000000000001	n/a	Yes	2.784	n/a	n/a	GoodResponse	1	n/a	n/a	2	41	Blank	Win	True
396.864	1.45	Win2	0.5952000000000001	n/a	Yes	2.784	n/a	5.0	GoodResponse	1	0.035	395.899	2	41	Feedback	Win	True
398.318	2.784	Win2	0.5952000000000001	n/a	Yes	2.784	n/a	n/a	GoodResponse	1	0.0	n/a	2	41	ISIslide	Win	True
401.127	0.25	Control	0.6047	0.0	Yes	2.923	0.027	n/a	GoodResponse	0	n/a	n/a	2	42	Cue	Neutral	True
401.377	3.85	Control	0.6047	0.0	Yes	2.923	0.0	n/a	GoodResponse	0	n/a	n/a	2	42	Fixation	Neutral	True
405.239	0.5	Control	0.6047	0.0	Yes	2.923	0.012	2.0	GoodResponse	0	0.265	404.504	2	42	Target	Neutral	True
405.504	0.3	Control	0.6047	0.0	Yes	2.923	0.012	2.0	GoodResponse	0	0.265	n/a	2	42	ButtonPress	Neutral	True
405.724	0.2	Control	0.6047	n/a	Yes	2.923	n/a	n/a	GoodResponse	0	n/a	n/a	2	42	Blank	Neutral	True
405.924	1.45	Control	0.6047	n/a	Yes	2.923	n/a	5.0	GoodResponse	0	0.049	404.973	2	42	Feedback	Neutral	True
407.379	2.923	Control	0.6047	n/a	Yes	2.923	n/a	n/a	GoodResponse	0	0.0	n/a	2	42	ISIslide	Neutral	True
410.321	0.25	Win2	0.5909	0.0	No	3.179	0.021	n/a	NoResponse	0	n/a	n/a	2	43	Cue	MissedWin	True
410.572	4.0	Win2	0.5909	0.0	No	3.179	0.001	n/a	NoResponse	0	n/a	n/a	2	43	Fixation	MissedWin	True
414.567	0.5	Win2	0.5909	0.004	No	3.179	-0.004	2.0	NoResponse	0	0.596	414.163	2	43	Target	MissedWin	True
415.068	0.2	Win2	0.5909	n/a	No	3.179	n/a	n/a	NoResponse	0	n/a	n/a	2	43	Blank	MissedWin	True
415.163	0.3	Win2	0.5909	0.004	No	3.179	-0.004	2.0	NoResponse	0	0.596	n/a	2	43	ButtonPress	MissedWin	True
415.269	1.45	Win2	0.5909	n/a	No	3.179	n/a	5.0	NoResponse	0	0.021	414.29	2	43	Feedback	MissedWin	True
416.723	3.179	Win2	0.5909	n/a	No	3.179	n/a	n/a	NoResponse	0	0.0	n/a	2	43	ISIslide	MissedWin	True
419.916	0.25	Win2	0.6	0.0	Yes	2.984	0.016	n/a	GoodResponse	1	n/a	n/a	3	44	Cue	Win	True
420.167	4.0	Win2	0.6	0.0	Yes	2.984	0.001	n/a	GoodResponse	1	n/a	n/a	3	44	Fixation	Win	True
424.162	0.5	Win2	0.6	0.004	Yes	2.984	-0.004	2.0	GoodResponse	1	0.284	423.446	3	44	Target	Win	True
424.446	0.3	Win2	0.6	0.004	Yes	2.984	-0.004	2.0	GoodResponse	1	0.284	n/a	3	44	ButtonPress	Win	True
424.664	0.2	Win2	0.6	n/a	Yes	2.984	n/a	n/a	GoodResponse	1	n/a	n/a	3	44	Blank	Win	True
424.864	1.45	Win2	0.6	n/a	Yes	2.984	n/a	5.0	GoodResponse	1	0.036	423.9	3	44	Feedback	Win	True
426.319	2.984	Win2	0.6	n/a	Yes	2.984	n/a	n/a	GoodResponse	1	0.0	n/a	3	44	ISIslide	Win	True
429.345	0.25	Control	0.5870000000000001	0.0	No	2.855	0.045	n/a	NoResponse	0	n/a	n/a	3	45	Cue	Neutral	False
429.595	4.1	Control	0.5870000000000001	0.0	No	2.855	0.0	n/a	NoResponse	0	n/a	n/a	3	45	Fixation	Neutral	False
433.691	0.5	Control	0.5870000000000001	0.004	No	2.855	-0.004	n/a	NoResponse	0	n/a	n/a	3	45	Target	Neutral	False
434.192	0.2	Control	0.5870000000000001	n/a	No	2.855	n/a	n/a	NoResponse	0	n/a	n/a	3	45	Blank	Neutral	False
434.393	1.45	Control	0.5870000000000001	n/a	No	2.855	n/a	5.0	NoResponse	0	0.018	433.411	3	45	Feedback	Neutral	False
435.847	2.855	Control	0.5870000000000001	n/a	No	2.855	n/a	n/a	NoResponse	0	0.0	n/a	3	45	ISIslide	Neutral	False
438.723	0.25	Lose2	0.5957	0.0	Yes	3.377	0.023	n/a	GoodResponse	0	n/a	n/a	3	46	Cue	AvoidedLoss	True
438.973	4.0	Lose2	0.5957	0.0	Yes	3.377	0.0	n/a	GoodResponse	0	n/a	n/a	3	46	Fixation	AvoidedLoss	True
442.969	0.5	Lose2	0.5957	0.004	Yes	3.377	-0.004	2.0	GoodResponse	0	0.241	442.21	3	46	Target	AvoidedLoss	True
443.21	0.3	Lose2	0.5957	0.004	Yes	3.377	-0.004	2.0	GoodResponse	0	0.241	n/a	3	46	ButtonPress	AvoidedLoss	True
443.47	0.2	Lose2	0.5957	n/a	Yes	3.377	n/a	n/a	GoodResponse	0	n/a	n/a	3	46	Blank	AvoidedLoss	True
443.671	1.45	Lose2	0.5957	n/a	Yes	3.377	n/a	5.0	GoodResponse	0	0.008	442.679	3	46	Feedback	AvoidedLoss	True
445.125	3.377	Lose2	0.5957	n/a	Yes	3.377	n/a	2.0	GoodResponse	0	2.862	n/a	3	46	ISIslide	AvoidedLoss	True
448.502	0.25	Lose2	0.6042000000000001	0.0	Yes	2.698	0.002	n/a	GoodResponse	0	n/a	n/a	3	47	Cue	AvoidedLoss	True
448.753	4.0	Lose2	0.6042000000000001	0.0	Yes	2.698	0.001	n/a	GoodResponse	0	n/a	n/a	3	47	Fixation	AvoidedLoss	True
452.748	0.5	Lose2	0.6042000000000001	0.004	Yes	2.698	-0.004	2.0	GoodResponse	0	0.215	451.963	3	47	Target	AvoidedLoss	True
452.963	0.3	Lose2	0.6042000000000001	0.004	Yes	2.698	-0.004	2.0	GoodResponse	0	0.215	n/a	3	47	ButtonPress	AvoidedLoss	True
453.249	0.2	Lose2	0.6042000000000001	n/a	Yes	2.698	n/a	n/a	GoodResponse	0	n/a	n/a	3	47	Blank	AvoidedLoss	True
453.45	1.45	Lose2	0.6042000000000001	n/a	Yes	2.698	n/a	5.0	GoodResponse	0	0.034	452.484	3	47	Feedback	AvoidedLoss	True
454.904	2.698	Lose2	0.6042000000000001	n/a	Yes	2.698	n/a	n/a	GoodResponse	0	0.0	n/a	3	47	ISIslide	AvoidedLoss	True
457.629	0.25	Lose2	0.6122	0.0	Yes	3.021	0.029	n/a	GoodResponse	0	n/a	n/a	3	48	Cue	AvoidedLoss	True
457.88	3.95	Lose2	0.6122	0.0	Yes	3.021	0.001	n/a	GoodResponse	0	n/a	n/a	3	48	Fixation	AvoidedLoss	True
461.825	0.5	Lose2	0.6122	0.004	Yes	3.021	-0.004	2.0	GoodResponse	0	0.372	461.197	3	48	Target	AvoidedLoss	True
462.197	0.3	Lose2	0.6122	0.004	Yes	3.021	-0.004	2.0	GoodResponse	0	0.372	n/a	3	48	ButtonPress	AvoidedLoss	True
462.327	0.2	Lose2	0.6122	n/a	Yes	3.021	n/a	n/a	GoodResponse	0	n/a	n/a	3	48	Blank	AvoidedLoss	True
462.527	1.45	Lose2	0.6122	n/a	Yes	3.021	n/a	5.0	GoodResponse	0	0.03	461.557	3	48	Feedback	AvoidedLoss	True
463.982	3.021	Lose2	0.6122	n/a	Yes	3.021	n/a	n/a	GoodResponse	0	0.0	n/a	3	48	ISIslide	AvoidedLoss	True
467.024	0.25	Control	0.62	0.0	Yes	2.876	0.024	n/a	GoodResponse	0	n/a	n/a	3	49	Cue	Neutral	True
467.275	4.0	Control	0.62	0.0	Yes	2.876	0.001	n/a	GoodResponse	0	n/a	n/a	3	49	Fixation	Neutral	True
471.27	0.5	Control	0.62	0.004	Yes	2.876	-0.004	2.0	GoodResponse	0	0.457	470.727	3	49	Target	Neutral	True
471.727	0.3	Control	0.62	0.004	Yes	2.876	-0.004	2.0	GoodResponse	0	0.457	n/a	3	49	ButtonPress	Neutral	True
471.772	0.2	Control	0.62	n/a	Yes	2.876	n/a	n/a	GoodResponse	0	n/a	n/a	3	49	Blank	Neutral	True
471.972	1.45	Control	0.62	n/a	Yes	2.876	n/a	5.0	GoodResponse	0	0.049	471.021	3	49	Feedback	Neutral	True
473.427	2.876	Control	0.62	n/a	Yes	2.876	n/a	n/a	GoodResponse	0	0.0	n/a	3	49	ISIslide	Neutral	True
476.319	0.25	Control	0.6275	0.0	Yes	2.781	0.019	n/a	GoodResponse	0	n/a	n/a	3	50	Cue	Neutral	True
476.569	4.0	Control	0.6275	0.0	Yes	2.781	0.0	n/a	GoodResponse	0	n/a	n/a	3	50	Fixation	Neutral	True
480.565	0.5	Control	0.6275	0.004	Yes	2.781	-0.004	2.0	GoodResponse	0	0.427	479.992	3	50	Target	Neutral	True
480.992	0.3	Control	0.6275	0.004	Yes	2.781	-0.004	2.0	GoodResponse	0	0.427	n/a	3	50	ButtonPress	Neutral	True
481.066	0.2	Control	0.6275	n/a	Yes	2.781	n/a	n/a	GoodResponse	0	n/a	n/a	3	50	Blank	Neutral	True
481.267	1.45	Control	0.6275	n/a	Yes	2.781	n/a	5.0	GoodResponse	0	0.022	480.289	3	50	Feedback	Neutral	True
482.721	2.781	Control	0.6275	n/a	Yes	2.781	n/a	n/a	GoodResponse	0	0.0	n/a	3	50	ISIslide	Neutral	True
485.53	0.25	Control	0.6346	0.0	Yes	2.72	0.03	n/a	GoodResponse	0	n/a	n/a	3	51	Cue	Neutral	True
485.78	3.95	Control	0.6346	0.0	Yes	2.72	0.0	n/a	GoodResponse	0	n/a	n/a	3	51	Fixation	Neutral	True
489.742	0.5	Control	0.6346	0.0	Yes	2.72	0.012	2.0	GoodResponse	0	0.309	489.051	3	51	Target	Neutral	True
490.051	0.3	Control	0.6346	0.0	Yes	2.72	0.012	2.0	GoodResponse	0	0.309	n/a	3	51	ButtonPress	Neutral	True
490.227	0.2	Control	0.6346	n/a	Yes	2.72	n/a	n/a	GoodResponse	0	n/a	n/a	3	51	Blank	Neutral	True
490.428	1.45	Control	0.6346	n/a	Yes	2.72	n/a	5.0	GoodResponse	0	0.031	489.459	3	51	Feedback	Neutral	True
491.882	2.72	Control	0.6346	n/a	Yes	2.72	n/a	n/a	GoodResponse	0	0.0	n/a	3	51	ISIslide	Neutral	True
494.623	0.25	Control	0.6225999999999999	0.001	No	2.627	0.023	n/a	NoResponse	0	n/a	n/a	3	52	Cue	Neutral	False
494.874	4.05	Control	0.6225999999999999	0.0	No	2.627	0.001	n/a	NoResponse	0	n/a	n/a	3	52	Fixation	Neutral	False
498.92	0.5	Control	0.6225999999999999	0.003	No	2.627	-0.003	n/a	NoResponse	0	n/a	n/a	3	52	Target	Neutral	False
499.421	0.2	Control	0.6225999999999999	n/a	No	2.627	n/a	n/a	NoResponse	0	n/a	n/a	3	52	Blank	Neutral	False
499.622	1.45	Control	0.6225999999999999	n/a	No	2.627	n/a	5.0	NoResponse	0	0.008	498.63	3	52	Feedback	Neutral	False
501.076	2.627	Control	0.6225999999999999	n/a	No	2.627	n/a	n/a	NoResponse	0	0.0	n/a	3	52	ISIslide	Neutral	False
503.717	0.25	Win2	0.6296	0.0	Yes	2.933	0.017	n/a	GoodResponse	1	n/a	n/a	4	53	Cue	Win	True
503.968	4.05	Win2	0.6296	0.0	Yes	2.933	0.001	n/a	GoodResponse	1	n/a	n/a	4	53	Fixation	Win	True
508.014	0.5	Win2	0.6296	0.003	Yes	2.933	-0.003	2.0	GoodResponse	1	0.314	507.328	4	53	Target	Win	True
508.328	0.3	Win2	0.6296	0.003	Yes	2.933	-0.003	2.0	GoodResponse	1	0.314	n/a	4	53	ButtonPress	Win	True
508.515	0.2	Win2	0.6296	n/a	Yes	2.933	n/a	n/a	GoodResponse	1	n/a	n/a	4	53	Blank	Win	True
508.716	1.45	Win2	0.6296	n/a	Yes	2.933	n/a	5.0	GoodResponse	1	0.036	507.752	4	53	Feedback	Win	True
510.17	2.933	Win2	0.6296	n/a	Yes	2.933	n/a	n/a	GoodResponse	1	0.0	n/a	4	53	ISIslide	Win	True
513.129	0.25	Win2	0.6364	0.0	Yes	2.721	0.029	n/a	GoodResponse	1	n/a	n/a	5	54	Cue	Win	True
513.38	3.95	Win2	0.6364	0.0	Yes	2.721	0.001	n/a	GoodResponse	1	n/a	n/a	5	54	Fixation	Win	True
517.325	0.5	Win2	0.6364	0.004	Yes	2.721	-0.004	2.0	GoodResponse	1	0.352	516.677	5	54	Target	Win	True
517.677	0.3	Win2	0.6364	0.004	Yes	2.721	-0.004	2.0	GoodResponse	1	0.352	n/a	5	54	ButtonPress	Win	True
517.826	0.2	Win2	0.6364	n/a	Yes	2.721	n/a	n/a	GoodResponse	1	n/a	n/a	5	54	Blank	Win	True
518.027	1.45	Win2	0.6364	n/a	Yes	2.721	n/a	5.0	GoodResponse	1	0.042	517.069	5	54	Feedback	Win	True
519.481	2.721	Win2	0.6364	n/a	Yes	2.721	n/a	n/a	GoodResponse	1	0.0	n/a	5	54	ISIslide	Win	True
522.223	0.25	Control	0.6429	0.0	Yes	3.027	0.023	n/a	GoodResponse	0	n/a	n/a	5	55	Cue	Neutral	True
522.474	3.95	Control	0.6429	0.0	Yes	3.027	0.001	n/a	GoodResponse	0	n/a	n/a	5	55	Fixation	Neutral	True
526.419	0.5	Control	0.6429	0.004	Yes	3.027	-0.004	2.0	GoodResponse	0	0.412	525.831	5	55	Target	Neutral	True
526.831	0.3	Control	0.6429	0.004	Yes	3.027	-0.004	2.0	GoodResponse	0	0.412	n/a	5	55	ButtonPress	Neutral	True
526.92	0.2	Control	0.6429	n/a	Yes	3.027	n/a	n/a	GoodResponse	0	n/a	n/a	5	55	Blank	Neutral	True
527.121	1.45	Control	0.6429	n/a	Yes	3.027	n/a	5.0	GoodResponse	0	0.022	526.143	5	55	Feedback	Neutral	True
528.575	3.027	Control	0.6429	n/a	Yes	3.027	n/a	n/a	GoodResponse	0	0.0	n/a	5	55	ISIslide	Neutral	True
531.618	0.25	Control	0.6315999999999999	0.0	No	2.832	0.018	n/a	NoResponse	0	n/a	n/a	5	56	Cue	Neutral	False
531.868	3.95	Control	0.6315999999999999	0.0	No	2.832	0.0	n/a	NoResponse	0	n/a	n/a	5	56	Fixation	Neutral	False
535.814	0.5	Control	0.6315999999999999	0.004	No	2.832	-0.004	n/a	NoResponse	0	n/a	n/a	5	56	Target	Neutral	False
536.315	0.2	Control	0.6315999999999999	n/a	No	2.832	n/a	n/a	NoResponse	0	n/a	n/a	5	56	Blank	Neutral	False
536.516	1.45	Control	0.6315999999999999	n/a	No	2.832	n/a	5.0	NoResponse	0	0.041	535.557	5	56	Feedback	Neutral	False
537.97	2.832	Control	0.6315999999999999	n/a	No	2.832	n/a	n/a	NoResponse	0	0.0	n/a	5	56	ISIslide	Neutral	False
540.829	0.25	Control	0.6207	0.0	No	3.471	0.029	n/a	NoResponse	0	n/a	n/a	5	57	Cue	Neutral	False
541.079	4.0	Control	0.6207	0.0	No	3.471	0.0	n/a	NoResponse	0	n/a	n/a	5	57	Fixation	Neutral	False
545.075	0.5	Control	0.6207	0.004	No	3.471	-0.004	n/a	NoResponse	0	n/a	n/a	5	57	Target	Neutral	False
545.576	0.2	Control	0.6207	n/a	No	3.471	n/a	n/a	NoResponse	0	n/a	n/a	5	57	Blank	Neutral	False
545.777	1.45	Control	0.6207	n/a	No	3.471	n/a	5.0	NoResponse	0	0.049	544.826	5	57	Feedback	Neutral	False
547.231	3.471	Control	0.6207	n/a	No	3.471	n/a	n/a	NoResponse	0	0.0	n/a	5	57	ISIslide	Neutral	False
550.725	0.25	Win2	0.6271	0.0	Yes	2.725	0.025	n/a	GoodResponse	1	n/a	n/a	6	58	Cue	Win	True
550.976	4.05	Win2	0.6271	0.0	Yes	2.725	0.001	n/a	GoodResponse	1	n/a	n/a	6	58	Fixation	Win	True
555.021	0.5	Win2	0.6271	0.004	Yes	2.725	-0.004	2.0	GoodResponse	1	0.305	554.326	6	58	Target	Win	True
555.326	0.3	Win2	0.6271	0.004	Yes	2.725	-0.004	2.0	GoodResponse	1	0.305	n/a	6	58	ButtonPress	Win	True
555.523	0.2	Win2	0.6271	n/a	Yes	2.725	n/a	n/a	GoodResponse	1	n/a	n/a	6	58	Blank	Win	True
555.723	1.45	Win2	0.6271	n/a	Yes	2.725	n/a	5.0	GoodResponse	1	0.008	554.731	6	58	Feedback	Win	True
557.178	2.725	Win2	0.6271	n/a	Yes	2.725	n/a	n/a	GoodResponse	1	0.0	n/a	6	58	ISIslide	Win	True
559.919	0.25	Lose2	0.6333	0.0	Yes	2.681	0.019	n/a	GoodResponse	0	n/a	n/a	6	59	Cue	AvoidedLoss	True
560.17	4.0	Lose2	0.6333	0.0	Yes	2.681	0.001	n/a	GoodResponse	0	n/a	n/a	6	59	Fixation	AvoidedLoss	True
564.165	0.5	Lose2	0.6333	0.004	Yes	2.681	-0.004	2.0	GoodResponse	0	0.451	563.616	6	59	Target	AvoidedLoss	True
564.616	0.3	Lose2	0.6333	0.004	Yes	2.681	-0.004	2.0	GoodResponse	0	0.451	n/a	6	59	ButtonPress	AvoidedLoss	True
564.667	0.2	Lose2	0.6333	n/a	Yes	2.681	n/a	n/a	GoodResponse	0	n/a	n/a	6	59	Blank	AvoidedLoss	True
564.867	1.45	Lose2	0.6333	n/a	Yes	2.681	n/a	5.0	GoodResponse	0	0.031	563.898	6	59	Feedback	AvoidedLoss	True
566.322	2.681	Lose2	0.6333	n/a	Yes	2.681	n/a	n/a	GoodResponse	0	0.0	n/a	6	59	ISIslide	AvoidedLoss	True
569.03	0.25	Control	0.623	0.0	No	2.67	0.03	n/a	NoResponse	0	n/a	n/a	6	60	Cue	Neutral	False
569.28	4.0	Control	0.623	0.001	No	2.67	0.0	n/a	NoResponse	0	n/a	n/a	6	60	Fixation	Neutral	False
573.276	0.5	Control	0.623	0.004	No	2.67	-0.004	n/a	NoResponse	0	n/a	n/a	6	60	Target	Neutral	False
573.777	0.2	Control	0.623	n/a	No	2.67	n/a	n/a	NoResponse	0	n/a	n/a	6	60	Blank	Neutral	False
573.978	1.45	Control	0.623	n/a	No	2.67	n/a	5.0	NoResponse	0	0.042	573.02	6	60	Feedback	Neutral	False
575.432	2.67	Control	0.623	n/a	No	2.67	n/a	n/a	NoResponse	0	0.0	n/a	6	60	ISIslide	Neutral	False
578.124	0.25	Lose2	0.6129	0.0	No	2.976	0.024	n/a	NoResponse	-1	n/a	n/a	5	61	Cue	Loss	True
578.374	4.0	Lose2	0.6129	0.0	No	2.976	0.0	2.0	NoResponse	-1	2.514	579.888	5	61	Fixation	Loss	True
580.888	0.3	Lose2	0.6129	0.0	No	2.976	0.0	2.0	NoResponse	-1	2.514	n/a	5	61	ButtonPress	Loss	True
582.37	0.5	Lose2	0.6129	0.004	No	2.976	-0.004	n/a	NoResponse	-1	n/a	n/a	5	61	Target	Loss	True
582.871	0.2	Lose2	0.6129	n/a	No	2.976	n/a	n/a	NoResponse	-1	n/a	n/a	5	61	Blank	Loss	True
583.072	1.45	Lose2	0.6129	n/a	No	2.976	n/a	5.0	NoResponse	-1	0.021	582.093	5	61	Feedback	Loss	True
584.526	2.976	Lose2	0.6129	n/a	No	2.976	n/a	n/a	NoResponse	-1	0.0	n/a	5	61	ISIslide	Loss	True
587.518	0.25	Lose2	0.6032	0.001	No	2.882	0.018	n/a	NoResponse	-1	n/a	n/a	4	62	Cue	Loss	True
587.769	3.9	Lose2	0.6032	0.0	No	2.882	0.001	2.0	NoResponse	-1	3.821	590.59	4	62	Fixation	Loss	True
591.59	0.3	Lose2	0.6032	0.0	No	2.882	0.001	2.0	NoResponse	-1	3.821	n/a	4	62	ButtonPress	Loss	True
591.664	0.5	Lose2	0.6032	0.004	No	2.882	-0.004	n/a	NoResponse	-1	n/a	n/a	4	62	Target	Loss	True
592.166	0.2	Lose2	0.6032	n/a	No	2.882	n/a	n/a	NoResponse	-1	n/a	n/a	4	62	Blank	Loss	True
592.366	1.45	Lose2	0.6032	n/a	No	2.882	n/a	5.0	NoResponse	-1	0.045	591.411	4	62	Feedback	Loss	True
593.821	2.882	Lose2	0.6032	n/a	No	2.882	n/a	n/a	NoResponse	-1	0.0	n/a	4	62	ISIslide	Loss	True
596.729	0.25	Lose2	0.6093999999999999	0.001	Yes	2.621	0.029	n/a	GoodResponse	0	n/a	n/a	4	63	Cue	AvoidedLoss	True
596.98	4.05	Lose2	0.6093999999999999	0.0	Yes	2.621	0.001	n/a	GoodResponse	0	n/a	n/a	4	63	Fixation	AvoidedLoss	True
601.026	0.5	Lose2	0.6093999999999999	0.003	Yes	2.621	-0.003	2.0	GoodResponse	0	0.467	600.493	4	63	Target	AvoidedLoss	True
601.493	0.3	Lose2	0.6093999999999999	0.003	Yes	2.621	-0.003	2.0	GoodResponse	0	0.467	n/a	4	63	ButtonPress	AvoidedLoss	True
601.527	0.2	Lose2	0.6093999999999999	n/a	Yes	2.621	n/a	n/a	GoodResponse	0	n/a	n/a	4	63	Blank	AvoidedLoss	True
601.728	1.45	Lose2	0.6093999999999999	n/a	Yes	2.621	n/a	5.0	GoodResponse	0	0.048	600.776	4	63	Feedback	AvoidedLoss	True
603.182	2.621	Lose2	0.6093999999999999	n/a	Yes	2.621	n/a	n/a	GoodResponse	0	0.0	n/a	4	63	ISIslide	AvoidedLoss	True
605.823	0.25	Win2	0.6	0.0	No	3.127	0.023	n/a	NoResponse	0	n/a	n/a	4	64	Cue	MissedWin	False
606.074	4.15	Win2	0.6	0.0	No	3.127	0.001	n/a	NoResponse	0	n/a	n/a	4	64	Fixation	MissedWin	False
610.22	0.5	Win2	0.6	0.003	No	3.127	-0.003	n/a	NoResponse	0	n/a	n/a	4	64	Target	MissedWin	False
610.721	0.2	Win2	0.6	n/a	No	3.127	n/a	n/a	NoResponse	0	n/a	n/a	4	64	Blank	MissedWin	False
610.922	1.45	Win2	0.6	n/a	No	3.127	n/a	5.0	NoResponse	0	0.024	609.946	4	64	Feedback	MissedWin	False
612.376	3.127	Win2	0.6	n/a	No	3.127	n/a	n/a	NoResponse	0	0.0	n/a	4	64	ISIslide	MissedWin	False
615.519	0.25	Control	0.5909	0.0	No	2.781	0.019	n/a	NoResponse	0	n/a	n/a	4	65	Cue	Neutral	False
615.77	4.0	Control	0.5909	0.0	No	2.781	0.001	n/a	NoResponse	0	n/a	n/a	4	65	Fixation	Neutral	False
619.765	0.5	Control	0.5909	0.004	No	2.781	-0.004	n/a	NoResponse	0	n/a	n/a	4	65	Target	Neutral	False
620.267	0.2	Control	0.5909	n/a	No	2.781	n/a	n/a	NoResponse	0	n/a	n/a	4	65	Blank	Neutral	False
620.467	1.45	Control	0.5909	n/a	No	2.781	n/a	5.0	NoResponse	0	0.04	619.507	4	65	Feedback	Neutral	False
621.922	2.781	Control	0.5909	n/a	No	2.781	n/a	n/a	NoResponse	0	0.0	n/a	4	65	ISIslide	Neutral	False
624.73	0.25	Win2	0.5821000000000001	0.0	No	2.77	0.03	n/a	NoResponse	0	n/a	n/a	4	66	Cue	MissedWin	False
624.981	3.9	Win2	0.5821000000000001	0.0	No	2.77	0.001	n/a	NoResponse	0	n/a	n/a	4	66	Fixation	MissedWin	False
628.876	0.5	Win2	0.5821000000000001	0.004	No	2.77	-0.004	n/a	NoResponse	0	n/a	n/a	4	66	Target	MissedWin	False
629.377	0.2	Win2	0.5821000000000001	n/a	No	2.77	n/a	n/a	NoResponse	0	n/a	n/a	4	66	Blank	MissedWin	False
629.578	1.45	Win2	0.5821000000000001	n/a	No	2.77	n/a	5.0	NoResponse	0	0.007	628.585	4	66	Feedback	MissedWin	False
631.032	2.77	Win2	0.5821000000000001	n/a	No	2.77	n/a	2.0	NoResponse	0	0.761	n/a	4	66	ISIslide	MissedWin	False
633.807	0.25	Control	0.5735	0.0	No	2.743	0.007	n/a	NoResponse	0	n/a	n/a	4	67	Cue	Neutral	True
634.058	3.95	Control	0.5735	0.0	No	2.743	0.001	2.0	NoResponse	0	3.77	636.828	4	67	Fixation	Neutral	True
637.828	0.3	Control	0.5735	0.0	No	2.743	0.001	2.0	NoResponse	0	3.77	n/a	4	67	ButtonPress	Neutral	True
638.003	0.5	Control	0.5735	0.004	No	2.743	-0.004	n/a	NoResponse	0	n/a	n/a	4	67	Target	Neutral	True
638.505	0.2	Control	0.5735	n/a	No	2.743	n/a	n/a	NoResponse	0	n/a	n/a	4	67	Blank	Neutral	True
638.705	1.45	Control	0.5735	n/a	No	2.743	n/a	5.0	NoResponse	0	0.046	637.751	4	67	Feedback	Neutral	True
640.16	2.743	Control	0.5735	n/a	No	2.743	n/a	n/a	NoResponse	0	0.0	n/a	4	67	ISIslide	Neutral	True
642.918	0.25	Win2	0.5652	0.0	No	3.082	0.018	n/a	NoResponse	0	n/a	n/a	4	68	Cue	MissedWin	True
643.169	4.0	Win2	0.5652	0.0	No	3.082	0.001	2.0	NoResponse	0	0.683	642.852	4	68	Fixation	MissedWin	True
643.852	0.3	Win2	0.5652	0.0	No	3.082	0.001	2.0	NoResponse	0	0.683	n/a	4	68	ButtonPress	MissedWin	True
647.164	0.5	Win2	0.5652	0.004	No	3.082	-0.004	n/a	NoResponse	0	n/a	n/a	4	68	Target	MissedWin	True
647.665	0.2	Win2	0.5652	n/a	No	3.082	n/a	n/a	NoResponse	0	n/a	n/a	4	68	Blank	MissedWin	True
647.866	1.45	Win2	0.5652	n/a	No	3.082	n/a	5.0	NoResponse	0	0.008	646.874	4	68	Feedback	MissedWin	True
649.32	3.082	Win2	0.5652	n/a	No	3.082	n/a	n/a	NoResponse	0	0.0	n/a	4	68	ISIslide	MissedWin	True
652.43	0.25	Win2	0.5571	0.0	No	3.22	0.03	n/a	NoResponse	0	n/a	n/a	4	69	Cue	MissedWin	True
652.68	3.95	Win2	0.5571	0.0	No	3.22	0.0	2.0	NoResponse	0	2.738	654.418	4	69	Fixation	MissedWin	True
655.418	0.3	Win2	0.5571	0.0	No	3.22	0.0	2.0	NoResponse	0	2.738	n/a	4	69	ButtonPress	MissedWin	True
656.626	0.5	Win2	0.5571	0.004	No	3.22	-0.004	n/a	NoResponse	0	n/a	n/a	4	69	Target	MissedWin	True
657.127	0.2	Win2	0.5571	n/a	No	3.22	n/a	n/a	NoResponse	0	n/a	n/a	4	69	Blank	MissedWin	True
657.328	1.45	Win2	0.5571	n/a	No	3.22	n/a	5.0	NoResponse	0	0.009	656.337	4	69	Feedback	MissedWin	True
658.782	3.22	Win2	0.5571	n/a	No	3.22	n/a	n/a	NoResponse	0	0.0	n/a	4	69	ISIslide	MissedWin	True
662.025	0.25	Lose2	0.5493	0.0	No	3.025	0.025	n/a	NoResponse	-1	n/a	n/a	3	70	Cue	Loss	False
662.276	4.05	Lose2	0.5493	0.0	No	3.025	0.001	n/a	NoResponse	-1	n/a	n/a	3	70	Fixation	Loss	False
666.321	0.5	Lose2	0.5493	0.004	No	3.025	-0.004	n/a	NoResponse	-1	n/a	n/a	3	70	Target	Loss	False
666.823	0.2	Lose2	0.5493	n/a	No	3.025	n/a	n/a	NoResponse	-1	n/a	n/a	3	70	Blank	Loss	False
667.023	1.45	Lose2	0.5493	n/a	No	3.025	n/a	5.0	NoResponse	-1	0.021	666.044	3	70	Feedback	Loss	False
668.478	3.025	Lose2	0.5493	n/a	No	3.025	n/a	n/a	NoResponse	-1	0.0	n/a	3	70	ISIslide	Loss	False
671.52	0.25	Win2	0.5417000000000001	0.0	No	2.73	0.02	n/a	NoResponse	0	n/a	n/a	3	71	Cue	MissedWin	False
671.771	4.05	Win2	0.5417000000000001	0.0	No	2.73	0.001	n/a	NoResponse	0	n/a	n/a	3	71	Fixation	MissedWin	False
675.816	0.5	Win2	0.5417000000000001	0.004	No	2.73	-0.004	n/a	NoResponse	0	n/a	n/a	3	71	Target	MissedWin	False
676.318	0.2	Win2	0.5417000000000001	n/a	No	2.73	n/a	n/a	NoResponse	0	n/a	n/a	3	71	Blank	MissedWin	False
676.518	1.45	Win2	0.5417000000000001	n/a	No	2.73	n/a	5.0	NoResponse	0	0.038	675.556	3	71	Feedback	MissedWin	False
677.973	2.73	Win2	0.5417000000000001	n/a	No	2.73	n/a	n/a	NoResponse	0	0.0	n/a	3	71	ISIslide	MissedWin	False
680.731	0.25	Win2	0.5342	0.0	No	2.769	0.031	n/a	NoResponse	0	n/a	n/a	3	72	Cue	MissedWin	True
680.982	4.1	Win2	0.5342	0.0	No	2.769	0.001	2.0	NoResponse	0	3.375	683.357	3	72	Fixation	MissedWin	True
684.357	0.3	Win2	0.5342	0.0	No	2.769	0.001	2.0	NoResponse	0	3.375	n/a	3	72	ButtonPress	MissedWin	True
685.077	0.5	Win2	0.5342	0.004	No	2.769	-0.004	n/a	NoResponse	0	n/a	n/a	3	72	Target	MissedWin	True
685.579	0.2	Win2	0.5342	n/a	No	2.769	n/a	n/a	NoResponse	0	n/a	n/a	3	72	Blank	MissedWin	True
685.78	1.45	Win2	0.5342	n/a	No	2.769	n/a	5.0	NoResponse	0	0.044	684.824	3	72	Feedback	MissedWin	True
687.234	2.769	Win2	0.5342	n/a	No	2.769	n/a	n/a	NoResponse	0	0.0	n/a	3	72	ISIslide	MissedWin	True
690.026	0.25	Win2	0.527	0.0	No	2.674	0.026	n/a	NoResponse	0	n/a	n/a	3	73	Cue	MissedWin	False
690.276	4.0	Win2	0.527	0.0	No	2.674	0.0	n/a	NoResponse	0	n/a	n/a	3	73	Fixation	MissedWin	False
694.272	0.5	Win2	0.527	0.004	No	2.674	-0.004	n/a	NoResponse	0	n/a	n/a	3	73	Target	MissedWin	False
694.773	0.2	Win2	0.527	n/a	No	2.674	n/a	n/a	NoResponse	0	n/a	n/a	3	73	Blank	MissedWin	False
694.974	1.45	Win2	0.527	n/a	No	2.674	n/a	5.0	NoResponse	0	0.021	693.995	3	73	Feedback	MissedWin	False
696.428	2.674	Win2	0.527	n/a	No	2.674	n/a	n/a	NoResponse	0	0.0	n/a	3	73	ISIslide	MissedWin	False
699.12	0.25	Lose2	0.52	0.0	No	2.63	0.02	n/a	NoResponse	-1	n/a	n/a	2	74	Cue	Loss	False
699.37	4.05	Lose2	0.52	0.0	No	2.63	0.0	n/a	NoResponse	-1	n/a	n/a	2	74	Fixation	Loss	False
703.416	0.5	Lose2	0.52	0.004	No	2.63	-0.004	n/a	NoResponse	-1	n/a	n/a	2	74	Target	Loss	False
703.917	0.2	Lose2	0.52	n/a	No	2.63	n/a	n/a	NoResponse	-1	n/a	n/a	2	74	Blank	Loss	False
704.118	1.45	Lose2	0.52	n/a	No	2.63	n/a	5.0	NoResponse	-1	0.048	703.166	2	74	Feedback	Loss	False
705.572	2.63	Lose2	0.52	n/a	No	2.63	n/a	n/a	NoResponse	-1	0.0	n/a	2	74	ISIslide	Loss	False
708.23	0.25	Lose2	0.5132	0.0	No	2.92	0.03	n/a	NoResponse	-1	n/a	n/a	1	75	Cue	Loss	False
708.481	3.95	Lose2	0.5132	0.0	No	2.92	0.001	n/a	NoResponse	-1	n/a	n/a	1	75	Fixation	Loss	False
712.426	0.5	Lose2	0.5132	0.004	No	2.92	-0.004	n/a	NoResponse	-1	n/a	n/a	1	75	Target	Loss	False
712.928	0.2	Lose2	0.5132	n/a	No	2.92	n/a	n/a	NoResponse	-1	n/a	n/a	1	75	Blank	Loss	False
713.128	1.45	Lose2	0.5132	n/a	No	2.92	n/a	5.0	NoResponse	-1	0.014	712.142	1	75	Feedback	Loss	False
714.583	2.92	Lose2	0.5132	n/a	No	2.92	n/a	n/a	NoResponse	-1	0.0	n/a	1	75	ISIslide	Loss	False
717.525	0.25	Control	0.5065	0.0	No	3.225	0.025	n/a	NoResponse	0	n/a	n/a	1	76	Cue	Neutral	False
717.775	4.05	Control	0.5065	0.001	No	3.225	0.0	n/a	NoResponse	0	n/a	n/a	1	76	Fixation	Neutral	False
721.821	0.5	Control	0.5065	0.004	No	3.225	-0.004	n/a	NoResponse	0	n/a	n/a	1	76	Target	Neutral	False
722.322	0.2	Control	0.5065	n/a	No	3.225	n/a	n/a	NoResponse	0	n/a	n/a	1	76	Blank	Neutral	False
722.523	1.45	Control	0.5065	n/a	No	3.225	n/a	5.0	NoResponse	0	0.033	721.556	1	76	Feedback	Neutral	False
723.977	3.225	Control	0.5065	n/a	No	3.225	n/a	n/a	NoResponse	0	0.0	n/a	1	76	ISIslide	Neutral	False
727.22	0.25	Lose2	0.5	0.0	No	2.58	0.02	n/a	NoResponse	-1	n/a	n/a	0	77	Cue	Loss	False
727.471	3.95	Lose2	0.5	0.0	No	2.58	0.001	n/a	NoResponse	-1	n/a	n/a	0	77	Fixation	Loss	False
731.416	0.5	Lose2	0.5	0.004	No	2.58	-0.004	n/a	NoResponse	-1	n/a	n/a	0	77	Target	Loss	False
731.918	0.2	Lose2	0.5	n/a	No	2.58	n/a	n/a	NoResponse	-1	n/a	n/a	0	77	Blank	Loss	False
732.118	1.45	Lose2	0.5	n/a	No	2.58	n/a	5.0	NoResponse	-1	0.047	731.165	0	77	Feedback	Loss	False
733.573	2.58	Lose2	0.5	n/a	No	2.58	n/a	n/a	NoResponse	-1	0.0	n/a	0	77	ISIslide	Loss	False
