onset	duration	cue_type	current_mean_accuracy	duration_error	is_hit	isi_adjusted	onset_delay	response	response_type	reward	rt	rt_time	total_reward	trial_number	trial_phase	trial_type	one_press
11.105	0.25	Control	1.0	0.0	Yes	2.945	0.005	n/a	GoodResponse	0	n/a	n/a	0	0	Cue	Neutral	False
11.355	3.85	Control	1.0	0.0	Yes	2.945	0.0	2.0	GoodResponse	0	0.174	10.529	0	0	Fixation	Neutral	False
11.529	0.3	Control	1.0	0.0	Yes	2.945	0.0	2.0	GoodResponse	0	0.174	n/a	0	0	ButtonPress	Neutral	False
15.203	0.4	Control	1.0	0.002	Yes	2.945	-0.002	2.0	GoodResponse	0	0.202	14.405	0	0	Target	Neutral	False
15.405	0.3	Control	1.0	0.002	Yes	2.945	-0.002	2.0	GoodResponse	0	0.202	n/a	0	0	ButtonPress	Neutral	False
15.603	0.3	Control	1.0	n/a	Yes	2.945	n/a	n/a	GoodResponse	0	n/a	n/a	0	0	Blank	Neutral	False
15.903	1.45	Control	1.0	n/a	Yes	2.945	n/a	5.0	GoodResponse	0	0.024	14.927	0	0	Feedback	Neutral	False
17.353	2.945	Control	1.0	n/a	Yes	2.945	n/a	n/a	GoodResponse	0	0.0	n/a	0	0	ISIslide	Neutral	False
20.318	0.25	Lose2	1.0	0.0	Yes	2.782	0.018	n/a	GoodResponse	0	n/a	n/a	0	1	Cue	AvoidedLoss	True
20.568	4.0	Lose2	1.0	0.0	Yes	2.782	0.0	n/a	GoodResponse	0	n/a	n/a	0	1	Fixation	AvoidedLoss	True
24.567	0.39	Lose2	1.0	0.001	Yes	2.782	-0.001	2.0	GoodResponse	0	0.169	23.736	0	1	Target	AvoidedLoss	True
24.736	0.3	Lose2	1.0	0.001	Yes	2.782	-0.001	2.0	GoodResponse	0	0.169	n/a	0	1	ButtonPress	AvoidedLoss	True
24.967	0.31	Lose2	1.0	n/a	Yes	2.782	n/a	n/a	GoodResponse	0	n/a	n/a	0	1	Blank	AvoidedLoss	True
25.267	1.45	Lose2	1.0	n/a	Yes	2.782	n/a	5.0	GoodResponse	0	0.026	24.293	0	1	Feedback	AvoidedLoss	True
26.716	2.782	Lose2	1.0	n/a	Yes	2.782	n/a	n/a	GoodResponse	0	0.0	n/a	0	1	ISIslide	AvoidedLoss	True
29.515	0.25	Control	1.0	0.0	Yes	2.585	0.015	n/a	GoodResponse	0	n/a	n/a	0	2	Cue	Neutral	True
29.765	4.1	Control	1.0	0.0	Yes	2.585	0.0	n/a	GoodResponse	0	n/a	n/a	0	2	Fixation	Neutral	True
33.864	0.38	Control	1.0	0.001	Yes	2.585	-0.001	2.0	GoodResponse	0	0.196	33.06	0	2	Target	Neutral	True
34.06	0.3	Control	1.0	0.001	Yes	2.585	-0.001	2.0	GoodResponse	0	0.196	n/a	0	2	ButtonPress	Neutral	True
34.247	0.32	Control	1.0	n/a	Yes	2.585	n/a	n/a	GoodResponse	0	n/a	n/a	0	2	Blank	Neutral	True
34.563	1.45	Control	1.0	n/a	Yes	2.585	n/a	5.0	GoodResponse	0	0.047	33.61	0	2	Feedback	Neutral	True
36.013	2.585	Control	1.0	n/a	Yes	2.585	n/a	n/a	GoodResponse	0	0.0	n/a	0	2	ISIslide	Neutral	True
38.629	0.25	Win2	1.0	0.0	Yes	2.821	0.029	n/a	GoodResponse	1	n/a	n/a	1	3	Cue	Win	True
38.879	3.95	Win2	1.0	0.0	Yes	2.821	0.0	n/a	GoodResponse	1	n/a	n/a	1	3	Fixation	Win	True
42.827	0.37	Win2	1.0	0.002	Yes	2.821	-0.002	2.0	GoodResponse	1	0.199	42.026	1	3	Target	Win	True
43.026	0.3	Win2	1.0	0.002	Yes	2.821	-0.002	2.0	GoodResponse	1	0.199	n/a	1	3	ButtonPress	Win	True
43.21	0.33	Win2	1.0	n/a	Yes	2.821	n/a	n/a	GoodResponse	1	n/a	n/a	1	3	Blank	Win	True
43.527	1.45	Win2	1.0	n/a	Yes	2.821	n/a	5.0	GoodResponse	1	0.01	42.537	1	3	Feedback	Win	True
44.976	2.821	Win2	1.0	n/a	Yes	2.821	n/a	n/a	GoodResponse	1	0.0	n/a	1	3	ISIslide	Win	True
47.825	0.25	Win2	1.0	0.0	Yes	3.275	0.025	n/a	GoodResponse	1	n/a	n/a	2	4	Cue	Win	True
48.075	4.0	Win2	1.0	0.0	Yes	3.275	0.0	n/a	GoodResponse	1	n/a	n/a	2	4	Fixation	Win	True
52.074	0.36	Win2	1.0	0.001	Yes	3.275	-0.001	2.0	GoodResponse	1	0.178	51.252	2	4	Target	Win	True
52.252	0.3	Win2	1.0	0.001	Yes	3.275	-0.001	2.0	GoodResponse	1	0.178	n/a	2	4	ButtonPress	Win	True
52.44	0.34	Win2	1.0	n/a	Yes	3.275	n/a	n/a	GoodResponse	1	n/a	n/a	2	4	Blank	Win	True
52.774	1.45	Win2	1.0	n/a	Yes	3.275	n/a	5.0	GoodResponse	1	0.03	51.804	2	4	Feedback	Win	True
54.223	3.275	Win2	1.0	n/a	Yes	3.275	n/a	n/a	GoodResponse	1	0.0	n/a	2	4	ISIslide	Win	True
57.522	0.25	Win2	1.0	0.0	Yes	2.778	0.022	n/a	GoodResponse	1	n/a	n/a	3	5	Cue	Win	True
57.772	4.0	Win2	1.0	0.0	Yes	2.778	0.0	n/a	GoodResponse	1	n/a	n/a	3	5	Fixation	Win	True
61.771	0.35	Win2	1.0	0.001	Yes	2.778	-0.001	2.0	GoodResponse	1	0.177	60.948	3	5	Target	Win	True
61.948	0.3	Win2	1.0	0.001	Yes	2.778	-0.001	2.0	GoodResponse	1	0.177	n/a	3	5	ButtonPress	Win	True
62.12	0.35	Win2	1.0	n/a	Yes	2.778	n/a	n/a	GoodResponse	1	n/a	n/a	3	5	Blank	Win	True
62.47	1.45	Win2	1.0	n/a	Yes	2.778	n/a	5.0	GoodResponse	1	0.042	61.512	3	5	Feedback	Win	True
63.92	2.778	Win2	1.0	n/a	Yes	2.778	n/a	n/a	GoodResponse	1	0.0	n/a	3	5	ISIslide	Win	True
66.719	0.25	Lose2	1.0	0.0	Yes	2.731	0.019	n/a	GoodResponse	0	n/a	n/a	3	6	Cue	AvoidedLoss	True
66.969	3.95	Lose2	1.0	0.0	Yes	2.731	0.0	n/a	GoodResponse	0	n/a	n/a	3	6	Fixation	AvoidedLoss	True
70.917	0.34	Lose2	1.0	0.002	Yes	2.731	-0.002	2.0	GoodResponse	0	0.21	70.127	3	6	Target	AvoidedLoss	True
71.127	0.3	Lose2	1.0	0.002	Yes	2.731	-0.002	2.0	GoodResponse	0	0.21	n/a	3	6	ButtonPress	AvoidedLoss	True
71.267	0.36	Lose2	1.0	n/a	Yes	2.731	n/a	n/a	GoodResponse	0	n/a	n/a	3	6	Blank	AvoidedLoss	True
71.617	1.45	Lose2	1.0	n/a	Yes	2.731	n/a	5.0	GoodResponse	0	0.017	70.634	3	6	Feedback	AvoidedLoss	True
73.067	2.731	Lose2	1.0	n/a	Yes	2.731	n/a	n/a	GoodResponse	0	0.0	n/a	3	6	ISIslide	AvoidedLoss	True
75.816	0.25	Lose2	0.875	0.0	No	4.034	0.016	n/a	PrematurePress	-1	n/a	n/a	2	7	Cue	Loss	True
76.066	4.05	Lose2	0.875	0.0	No	4.034	0.0	n/a	PrematurePress	-1	n/a	n/a	2	7	Fixation	Loss	True
80.114	0.33	Lose2	0.875	0.002	No	4.034	-0.002	2.0	PrematurePress	-1	0.023	79.137	2	7	Target	Loss	True
80.137	0.3	Lose2	0.875	0.002	No	4.034	-0.002	2.0	PrematurePress	-1	0.023	n/a	2	7	ButtonPress	Loss	True
80.447	0.37	Lose2	0.875	n/a	No	4.034	n/a	n/a	PrematurePress	-1	n/a	n/a	2	7	Blank	Loss	True
80.814	1.45	Lose2	0.875	n/a	No	4.034	n/a	5.0	PrematurePress	-1	0.039	79.853	2	7	Feedback	Loss	True
82.263	4.034	Lose2	0.875	n/a	No	4.034	n/a	n/a	PrematurePress	-1	0.0	n/a	2	7	ISIslide	Loss	True
86.312	0.25	Lose2	0.8889	0.0	Yes	3.038	0.012	n/a	GoodResponse	0	n/a	n/a	2	8	Cue	AvoidedLoss	True
86.562	3.95	Lose2	0.8889	0.0	Yes	3.038	0.0	n/a	GoodResponse	0	n/a	n/a	2	8	Fixation	AvoidedLoss	True
90.51	0.32	Lose2	0.8889	0.002	Yes	3.038	-0.002	2.0	GoodResponse	0	0.207	89.717	2	8	Target	AvoidedLoss	True
90.717	0.3	Lose2	0.8889	0.002	Yes	3.038	-0.002	2.0	GoodResponse	0	0.207	n/a	2	8	ButtonPress	AvoidedLoss	True
90.844	0.38	Lose2	0.8889	n/a	Yes	3.038	n/a	n/a	GoodResponse	0	n/a	n/a	2	8	Blank	AvoidedLoss	True
91.21	1.45	Lose2	0.8889	n/a	Yes	3.038	n/a	5.0	GoodResponse	0	0.034	90.244	2	8	Feedback	AvoidedLoss	True
92.66	3.038	Lose2	0.8889	n/a	Yes	3.038	n/a	n/a	GoodResponse	0	0.0	n/a	2	8	ISIslide	AvoidedLoss	True
95.725	0.25	Lose2	0.9	0.0	Yes	3.125	0.025	n/a	GoodResponse	0	n/a	n/a	2	9	Cue	AvoidedLoss	True
95.975	3.95	Lose2	0.9	0.0	Yes	3.125	0.0	n/a	GoodResponse	0	n/a	n/a	2	9	Fixation	AvoidedLoss	True
99.924	0.31	Lose2	0.9	0.001	Yes	3.125	-0.001	2.0	GoodResponse	0	0.229	99.153	2	9	Target	AvoidedLoss	True
100.153	0.3	Lose2	0.9	0.001	Yes	3.125	-0.001	2.0	GoodResponse	0	0.229	n/a	2	9	ButtonPress	AvoidedLoss	True
100.24	0.39	Lose2	0.9	n/a	Yes	3.125	n/a	n/a	GoodResponse	0	n/a	n/a	2	9	Blank	AvoidedLoss	True
100.624	1.45	Lose2	0.9	n/a	Yes	3.125	n/a	5.0	GoodResponse	0	0.034	99.658	2	9	Feedback	AvoidedLoss	True
102.073	3.125	Lose2	0.9	n/a	Yes	3.125	n/a	n/a	GoodResponse	0	0.0	n/a	2	9	ISIslide	AvoidedLoss	True
105.222	0.25	Control	0.9091	0.0	Yes	3.278	0.022	n/a	GoodResponse	0	n/a	n/a	2	10	Cue	Neutral	True
105.472	4.0	Control	0.9091	0.0	Yes	3.278	0.0	n/a	GoodResponse	0	n/a	n/a	2	10	Fixation	Neutral	True
109.471	0.3	Control	0.9091	0.001	Yes	3.278	-0.001	2.0	GoodResponse	0	0.216	108.687	2	10	Target	Neutral	True
109.687	0.3	Control	0.9091	0.001	Yes	3.278	-0.001	2.0	GoodResponse	0	0.216	n/a	2	10	ButtonPress	Neutral	True
109.77	0.4	Control	0.9091	n/a	Yes	3.278	n/a	n/a	GoodResponse	0	n/a	n/a	2	10	Blank	Neutral	True
110.17	1.45	Control	0.9091	n/a	Yes	3.278	n/a	5.0	GoodResponse	0	0.049	109.219	2	10	Feedback	Neutral	True
111.62	3.278	Control	0.9091	n/a	Yes	3.278	n/a	n/a	GoodResponse	0	0.0	n/a	2	10	ISIslide	Neutral	True
114.919	0.25	Lose2	0.9167000000000001	0.0	Yes	2.731	0.019	n/a	GoodResponse	0	n/a	n/a	2	11	Cue	AvoidedLoss	True
115.169	4.05	Lose2	0.9167000000000001	0.0	Yes	2.731	0.0	n/a	GoodResponse	0	n/a	n/a	2	11	Fixation	AvoidedLoss	True
119.217	0.29	Lose2	0.9167000000000001	0.002	Yes	2.731	-0.002	2.0	GoodResponse	0	0.242	118.459	2	11	Target	AvoidedLoss	True
119.459	0.3	Lose2	0.9167000000000001	0.002	Yes	2.731	-0.002	2.0	GoodResponse	0	0.242	n/a	2	11	ButtonPress	AvoidedLoss	True
119.517	0.41	Lose2	0.9167000000000001	n/a	Yes	2.731	n/a	n/a	GoodResponse	0	n/a	n/a	2	11	Blank	AvoidedLoss	True
119.917	1.45	Lose2	0.9167000000000001	n/a	Yes	2.731	n/a	5.0	GoodResponse	0	0.009	118.926	2	11	Feedback	AvoidedLoss	True
121.366	2.731	Lose2	0.9167000000000001	n/a	Yes	2.731	n/a	n/a	GoodResponse	0	0.0	n/a	2	11	ISIslide	AvoidedLoss	True
124.115	0.25	Control	0.8462000000000001	0.001	No	2.985	0.015	n/a	LatePress	0	n/a	n/a	2	12	Cue	Neutral	True
124.365	3.9	Control	0.8462000000000001	0.0	No	2.985	0.0	n/a	LatePress	0	n/a	n/a	2	12	Fixation	Neutral	True
128.264	0.28	Control	0.8462000000000001	0.001	No	2.985	-0.001	2.0	LatePress	0	0.283	127.547	2	12	Target	Neutral	True
128.547	0.42	Control	0.8462000000000001	n/a	No	2.985	n/a	n/a	LatePress	0	n/a	n/a	2	12	Blank	Neutral	True
128.547	0.3	Control	0.8462000000000001	0.001	No	2.985	-0.001	2.0	LatePress	0	0.283	n/a	2	12	ButtonPress	Neutral	True
128.964	1.45	Control	0.8462000000000001	n/a	No	2.985	n/a	5.0	LatePress	0	0.035	127.999	2	12	Feedback	Neutral	True
130.413	2.985	Control	0.8462000000000001	n/a	No	2.985	n/a	n/a	LatePress	0	0.0	n/a	2	12	ISIslide	Neutral	True
133.429	0.25	Control	0.8571	0.0	Yes	2.771	0.029	n/a	GoodResponse	0	n/a	n/a	2	13	Cue	Neutral	True
133.679	4.0	Control	0.8571	0.0	Yes	2.771	0.0	n/a	GoodResponse	0	n/a	n/a	2	13	Fixation	Neutral	True
137.677	0.27	Control	0.8571	0.002	Yes	2.771	-0.002	2.0	GoodResponse	0	0.208	136.885	2	13	Target	Neutral	True
137.885	0.3	Control	0.8571	0.002	Yes	2.771	-0.002	2.0	GoodResponse	0	0.208	n/a	2	13	ButtonPress	Neutral	True
137.961	0.43	Control	0.8571	n/a	Yes	2.771	n/a	n/a	GoodResponse	0	n/a	n/a	2	13	Blank	Neutral	True
138.377	1.45	Control	0.8571	n/a	Yes	2.771	n/a	5.0	GoodResponse	0	0.037	137.414	2	13	Feedback	Neutral	True
139.827	2.771	Control	0.8571	n/a	Yes	2.771	n/a	n/a	GoodResponse	0	0.0	n/a	2	13	ISIslide	Neutral	True
142.626	0.25	Win2	0.8667	0.0	Yes	2.674	0.026	n/a	GoodResponse	1	n/a	n/a	3	14	Cue	Win	True
142.876	4.1	Win2	0.8667	0.0	Yes	2.674	0.0	n/a	GoodResponse	1	n/a	n/a	3	14	Fixation	Win	True
146.974	0.26	Win2	0.8667	0.002	Yes	2.674	-0.002	2.0	GoodResponse	1	0.173	146.147	3	14	Target	Win	True
147.147	0.3	Win2	0.8667	0.002	Yes	2.674	-0.002	2.0	GoodResponse	1	0.173	n/a	3	14	ButtonPress	Win	True
147.241	0.44	Win2	0.8667	n/a	Yes	2.674	n/a	n/a	GoodResponse	1	n/a	n/a	3	14	Blank	Win	True
147.674	1.45	Win2	0.8667	n/a	Yes	2.674	n/a	5.0	GoodResponse	1	0.008	146.682	3	14	Feedback	Win	True
149.123	2.674	Win2	0.8667	n/a	Yes	2.674	n/a	n/a	GoodResponse	1	0.0	n/a	3	14	ISIslide	Win	True
151.822	0.25	Control	0.875	0.001	Yes	2.978	0.022	n/a	GoodResponse	0	n/a	n/a	3	15	Cue	Neutral	True
152.072	4.0	Control	0.875	0.0	Yes	2.978	0.0	n/a	GoodResponse	0	n/a	n/a	3	15	Fixation	Neutral	True
156.071	0.25	Control	0.875	0.001	Yes	2.978	-0.001	2.0	GoodResponse	0	0.231	155.302	3	15	Target	Neutral	True
156.302	0.3	Control	0.875	0.001	Yes	2.978	-0.001	2.0	GoodResponse	0	0.231	n/a	3	15	ButtonPress	Neutral	True
156.321	0.45	Control	0.875	n/a	Yes	2.978	n/a	n/a	GoodResponse	0	n/a	n/a	3	15	Blank	Neutral	True
156.771	1.45	Control	0.875	n/a	Yes	2.978	n/a	5.0	GoodResponse	0	0.033	155.804	3	15	Feedback	Neutral	True
158.22	2.978	Control	0.875	n/a	Yes	2.978	n/a	n/a	GoodResponse	0	0.0	n/a	3	15	ISIslide	Neutral	True
161.219	0.25	Win2	0.8824	0.0	Yes	2.881	0.019	n/a	GoodResponse	1	n/a	n/a	4	16	Cue	Win	True
161.469	4.0	Win2	0.8824	0.0	Yes	2.881	0.0	n/a	GoodResponse	1	n/a	n/a	4	16	Fixation	Win	True
165.468	0.24	Win2	0.8824	0.001	Yes	2.881	-0.001	2.0	GoodResponse	1	0.192	164.66	4	16	Target	Win	True
165.66	0.3	Win2	0.8824	0.001	Yes	2.881	-0.001	2.0	GoodResponse	1	0.192	n/a	4	16	ButtonPress	Win	True
165.718	0.46	Win2	0.8824	n/a	Yes	2.881	n/a	n/a	GoodResponse	1	n/a	n/a	4	16	Blank	Win	True
166.167	1.45	Win2	0.8824	n/a	Yes	2.881	n/a	5.0	GoodResponse	1	0.007	165.174	4	16	Feedback	Win	True
167.617	2.881	Win2	0.8824	n/a	Yes	2.881	n/a	n/a	GoodResponse	1	0.0	n/a	4	16	ISIslide	Win	True
170.516	0.25	Lose2	0.8332999999999999	0.0	No	2.734	0.016	n/a	NoResponse	-1	n/a	n/a	3	17	Cue	Loss	True
170.766	3.95	Lose2	0.8332999999999999	0.0	No	2.734	0.0	n/a	NoResponse	-1	n/a	n/a	3	17	Fixation	Loss	True
174.714	0.23	Lose2	0.8332999999999999	0.002	No	2.734	-0.002	2.0	NoResponse	-1	0.251	173.965	3	17	Target	Loss	True
174.948	0.47	Lose2	0.8332999999999999	n/a	No	2.734	n/a	n/a	NoResponse	-1	n/a	n/a	3	17	Blank	Loss	True
174.965	0.3	Lose2	0.8332999999999999	0.002	No	2.734	-0.002	2.0	NoResponse	-1	0.251	n/a	3	17	ButtonPress	Loss	True
175.414	1.45	Lose2	0.8332999999999999	n/a	No	2.734	n/a	5.0	NoResponse	-1	0.024	174.438	3	17	Feedback	Loss	True
176.864	2.734	Lose2	0.8332999999999999	n/a	No	2.734	n/a	n/a	NoResponse	-1	0.0	n/a	3	17	ISIslide	Loss	True
179.629	0.25	Lose2	0.8421	0.0	Yes	2.721	0.029	n/a	GoodResponse	0	n/a	n/a	3	18	Cue	AvoidedLoss	True
179.879	4.05	Lose2	0.8421	0.0	Yes	2.721	0.0	n/a	GoodResponse	0	n/a	n/a	3	18	Fixation	AvoidedLoss	True
183.928	0.22	Lose2	0.8421	0.001	Yes	2.721	-0.001	2.0	GoodResponse	0	0.217	183.145	3	18	Target	AvoidedLoss	True
184.145	0.48	Lose2	0.8421	n/a	Yes	2.721	n/a	n/a	GoodResponse	0	n/a	n/a	3	18	Blank	AvoidedLoss	True
184.145	0.3	Lose2	0.8421	0.001	Yes	2.721	-0.001	2.0	GoodResponse	0	0.217	n/a	3	18	ButtonPress	AvoidedLoss	True
184.628	1.45	Lose2	0.8421	n/a	Yes	2.721	n/a	5.0	GoodResponse	0	0.03	183.658	3	18	Feedback	AvoidedLoss	True
186.077	2.721	Lose2	0.8421	n/a	Yes	2.721	n/a	n/a	GoodResponse	0	0.0	n/a	3	18	ISIslide	AvoidedLoss	True
188.826	0.25	Control	0.8	0.0	No	2.924	0.026	n/a	NoResponse	0	n/a	n/a	3	19	Cue	Neutral	True
189.076	3.95	Control	0.8	0.0	No	2.924	0.0	n/a	NoResponse	0	n/a	n/a	3	19	Fixation	Neutral	True
193.025	0.21	Control	0.8	0.001	No	2.924	-0.001	2.0	NoResponse	0	0.255	192.28	3	19	Target	Neutral	True
193.241	0.49	Control	0.8	n/a	No	2.924	n/a	n/a	NoResponse	0	n/a	n/a	3	19	Blank	Neutral	True
193.28	0.3	Control	0.8	0.001	No	2.924	-0.001	2.0	NoResponse	0	0.255	n/a	3	19	ButtonPress	Neutral	True
193.724	1.45	Control	0.8	n/a	No	2.924	n/a	5.0	NoResponse	0	0.007	192.731	3	19	Feedback	Neutral	True
195.174	2.924	Control	0.8	n/a	No	2.924	n/a	n/a	NoResponse	0	0.0	n/a	3	19	ISIslide	Neutral	True
198.123	0.25	Control	0.7619	0.0	No	2.627	0.023	n/a	NoResponse	0	n/a	n/a	3	20	Cue	Neutral	True
198.373	4.05	Control	0.7619	0.0	No	2.627	0.0	n/a	NoResponse	0	n/a	n/a	3	20	Fixation	Neutral	True
202.421	0.2	Control	0.7619	0.002	No	2.627	-0.002	2.0	NoResponse	0	0.232	201.653	3	20	Target	Neutral	True
202.621	0.5	Control	0.7619	n/a	No	2.627	n/a	n/a	NoResponse	0	n/a	n/a	3	20	Blank	Neutral	True
202.653	0.3	Control	0.7619	0.002	No	2.627	-0.002	2.0	NoResponse	0	0.232	n/a	3	20	ButtonPress	Neutral	True
203.121	1.45	Control	0.7619	n/a	No	2.627	n/a	5.0	NoResponse	0	0.024	202.145	3	20	Feedback	Neutral	True
204.571	2.627	Control	0.7619	n/a	No	2.627	n/a	n/a	NoResponse	0	0.0	n/a	3	20	ISIslide	Neutral	True
207.22	0.25	Control	0.7273000000000001	0.0	No	2.78	0.02	n/a	NoResponse	0	n/a	n/a	3	21	Cue	Neutral	True
207.47	4.1	Control	0.7273000000000001	0.0	No	2.78	0.0	n/a	NoResponse	0	n/a	n/a	3	21	Fixation	Neutral	True
211.568	0.19	Control	0.7273000000000001	0.002	No	2.78	-0.002	2.0	NoResponse	0	0.415	210.983	3	21	Target	Neutral	True
211.768	0.51	Control	0.7273000000000001	n/a	No	2.78	n/a	n/a	NoResponse	0	n/a	n/a	3	21	Blank	Neutral	True
211.983	0.3	Control	0.7273000000000001	0.002	No	2.78	-0.002	2.0	NoResponse	0	0.415	n/a	3	21	ButtonPress	Neutral	True
212.268	1.45	Control	0.7273000000000001	n/a	No	2.78	n/a	5.0	NoResponse	0	0.048	211.316	3	21	Feedback	Neutral	True
213.718	2.78	Control	0.7273000000000001	n/a	No	2.78	n/a	n/a	NoResponse	0	0.0	n/a	3	21	ISIslide	Neutral	True
216.517	0.25	Control	0.7391	0.0	Yes	2.783	0.017	n/a	GoodResponse	0	n/a	n/a	3	22	Cue	Neutral	True
216.766	4.0	Control	0.7391	0.001	Yes	2.783	-0.001	n/a	GoodResponse	0	n/a	n/a	3	22	Fixation	Neutral	True
220.765	0.18	Control	0.7391	0.002	Yes	2.783	-0.002	2.0	GoodResponse	0	0.17	219.935	3	22	Target	Neutral	True
220.935	0.3	Control	0.7391	0.002	Yes	2.783	-0.002	2.0	GoodResponse	0	0.17	n/a	3	22	ButtonPress	Neutral	True
220.948	0.52	Control	0.7391	n/a	Yes	2.783	n/a	n/a	GoodResponse	0	n/a	n/a	3	22	Blank	Neutral	True
221.465	1.45	Control	0.7391	n/a	Yes	2.783	n/a	5.0	GoodResponse	0	0.021	220.486	3	22	Feedback	Neutral	True
222.914	2.783	Control	0.7391	n/a	Yes	2.783	n/a	n/a	GoodResponse	0	0.0	n/a	3	22	ISIslide	Neutral	True
225.713	0.25	Control	0.7082999999999999	0.0	No	2.787	0.013	n/a	NoResponse	0	n/a	n/a	3	23	Cue	Neutral	True
225.963	3.9	Control	0.7082999999999999	0.0	No	2.787	0.0	n/a	NoResponse	0	n/a	n/a	3	23	Fixation	Neutral	True
229.862	0.17	Control	0.7082999999999999	0.001	No	2.787	-0.001	2.0	NoResponse	0	0.184	229.046	3	23	Target	Neutral	True
230.028	0.53	Control	0.7082999999999999	n/a	No	2.787	n/a	n/a	NoResponse	0	n/a	n/a	3	23	Blank	Neutral	True
230.046	0.3	Control	0.7082999999999999	0.001	No	2.787	-0.001	2.0	NoResponse	0	0.184	n/a	3	23	ButtonPress	Neutral	True
230.562	1.45	Control	0.7082999999999999	n/a	No	2.787	n/a	5.0	NoResponse	0	0.046	229.608	3	23	Feedback	Neutral	True
232.011	2.787	Control	0.7082999999999999	n/a	No	2.787	n/a	n/a	NoResponse	0	0.0	n/a	3	23	ISIslide	Neutral	True
234.827	0.25	Win2	0.68	0.0	No	3.123	0.027	n/a	NoResponse	0	n/a	n/a	3	24	Cue	MissedWin	True
235.077	3.95	Win2	0.68	0.0	No	3.123	0.0	n/a	NoResponse	0	n/a	n/a	3	24	Fixation	MissedWin	True
239.025	0.16	Win2	0.68	0.002	No	3.123	-0.002	2.0	NoResponse	0	0.197	238.222	3	24	Target	MissedWin	True
239.192	0.54	Win2	0.68	n/a	No	3.123	n/a	n/a	NoResponse	0	n/a	n/a	3	24	Blank	MissedWin	True
239.222	0.3	Win2	0.68	0.002	No	3.123	-0.002	2.0	NoResponse	0	0.197	n/a	3	24	ButtonPress	MissedWin	True
239.725	1.45	Win2	0.68	n/a	No	3.123	n/a	5.0	NoResponse	0	0.007	238.732	3	24	Feedback	MissedWin	True
241.175	3.123	Win2	0.68	n/a	No	3.123	n/a	n/a	NoResponse	0	0.0	n/a	3	24	ISIslide	MissedWin	True
244.324	0.25	Win2	0.6537999999999999	0.0	No	3.076	0.024	n/a	NoResponse	0	n/a	n/a	3	25	Cue	MissedWin	True
244.573	4.0	Win2	0.6537999999999999	0.001	No	3.076	-0.001	n/a	NoResponse	0	n/a	n/a	3	25	Fixation	MissedWin	True
248.572	0.15	Win2	0.6537999999999999	0.002	No	3.076	-0.002	2.0	NoResponse	0	0.25	247.822	3	25	Target	MissedWin	True
248.722	0.55	Win2	0.6537999999999999	n/a	No	3.076	n/a	n/a	NoResponse	0	n/a	n/a	3	25	Blank	MissedWin	True
248.822	0.3	Win2	0.6537999999999999	0.002	No	3.076	-0.002	2.0	NoResponse	0	0.25	n/a	3	25	ButtonPress	MissedWin	True
249.272	1.45	Win2	0.6537999999999999	n/a	No	3.076	n/a	5.0	NoResponse	0	0.019	248.291	3	25	Feedback	MissedWin	True
250.721	3.076	Win2	0.6537999999999999	n/a	No	3.076	n/a	n/a	NoResponse	0	0.0	n/a	3	25	ISIslide	MissedWin	True
253.82	0.25	Win2	0.6296	0.0	No	2.93	0.02	n/a	NoResponse	0	n/a	n/a	3	26	Cue	MissedWin	True
254.07	3.95	Win2	0.6296	0.0	No	2.93	0.0	n/a	NoResponse	0	n/a	n/a	3	26	Fixation	MissedWin	True
258.019	0.16	Win2	0.6296	0.001	No	2.93	-0.001	2.0	NoResponse	0	0.247	257.266	3	26	Target	MissedWin	True
258.185	0.54	Win2	0.6296	n/a	No	2.93	n/a	n/a	NoResponse	0	n/a	n/a	3	26	Blank	MissedWin	True
258.266	0.3	Win2	0.6296	0.001	No	2.93	-0.001	2.0	NoResponse	0	0.247	n/a	3	26	ButtonPress	MissedWin	True
258.718	1.45	Win2	0.6296	n/a	No	2.93	n/a	5.0	NoResponse	0	0.036	257.754	3	26	Feedback	MissedWin	True
260.168	2.93	Win2	0.6296	n/a	No	2.93	n/a	n/a	NoResponse	0	0.0	n/a	3	26	ISIslide	MissedWin	True
263.117	0.25	Lose2	0.6071	0.0	No	2.833	0.017	n/a	NoResponse	-1	n/a	n/a	2	27	Cue	Loss	True
263.367	4.05	Lose2	0.6071	0.0	No	2.833	0.0	n/a	NoResponse	-1	n/a	n/a	2	27	Fixation	Loss	True
267.415	0.17	Lose2	0.6071	0.002	No	2.833	-0.002	2.0	NoResponse	-1	0.26	266.675	2	27	Target	Loss	True
267.599	0.53	Lose2	0.6071	n/a	No	2.833	n/a	n/a	NoResponse	-1	n/a	n/a	2	27	Blank	Loss	True
267.675	0.3	Lose2	0.6071	0.002	No	2.833	-0.002	2.0	NoResponse	-1	0.26	n/a	2	27	ButtonPress	Loss	True
268.115	1.45	Lose2	0.6071	n/a	No	2.833	n/a	5.0	NoResponse	-1	0.008	267.123	2	27	Feedback	Loss	True
269.565	2.833	Lose2	0.6071	n/a	No	2.833	n/a	n/a	NoResponse	-1	0.0	n/a	2	27	ISIslide	Loss	True
272.414	0.25	Control	0.5861999999999999	0.0	No	2.836	0.014	n/a	NoResponse	0	n/a	n/a	2	28	Cue	Neutral	True
272.664	4.05	Control	0.5861999999999999	0.0	No	2.836	0.0	n/a	NoResponse	0	n/a	n/a	2	28	Fixation	Neutral	True
276.712	0.18	Control	0.5861999999999999	0.002	No	2.836	-0.002	2.0	NoResponse	0	0.211	275.923	2	28	Target	Neutral	True
276.895	0.52	Control	0.5861999999999999	n/a	No	2.836	n/a	n/a	NoResponse	0	n/a	n/a	2	28	Blank	Neutral	True
276.923	0.3	Control	0.5861999999999999	0.002	No	2.836	-0.002	2.0	NoResponse	0	0.211	n/a	2	28	ButtonPress	Neutral	True
277.412	1.45	Control	0.5861999999999999	n/a	No	2.836	n/a	5.0	NoResponse	0	0.025	276.437	2	28	Feedback	Neutral	True
278.861	2.836	Control	0.5861999999999999	n/a	No	2.836	n/a	n/a	NoResponse	0	0.0	n/a	2	28	ISIslide	Neutral	True
281.727	0.25	Lose2	0.6	0.0	Yes	2.823	0.027	n/a	GoodResponse	0	n/a	n/a	2	29	Cue	AvoidedLoss	True
281.977	3.95	Lose2	0.6	0.0	Yes	2.823	0.0	n/a	GoodResponse	0	n/a	n/a	2	29	Fixation	AvoidedLoss	True
285.926	0.19	Lose2	0.6	0.001	Yes	2.823	-0.001	2.0	GoodResponse	0	0.188	285.114	2	29	Target	AvoidedLoss	True
286.114	0.3	Lose2	0.6	0.001	Yes	2.823	-0.001	2.0	GoodResponse	0	0.188	n/a	2	29	ButtonPress	AvoidedLoss	True
286.126	0.51	Lose2	0.6	n/a	Yes	2.823	n/a	n/a	GoodResponse	0	n/a	n/a	2	29	Blank	AvoidedLoss	True
286.625	1.45	Lose2	0.6	n/a	Yes	2.823	n/a	5.0	GoodResponse	0	0.032	285.657	2	29	Feedback	AvoidedLoss	True
288.075	2.823	Lose2	0.6	n/a	Yes	2.823	n/a	n/a	GoodResponse	0	0.0	n/a	2	29	ISIslide	AvoidedLoss	True
290.924	0.25	Win2	0.5806	0.0	No	2.776	0.024	n/a	NoResponse	0	n/a	n/a	2	30	Cue	MissedWin	True
291.174	3.9	Win2	0.5806	0.0	No	2.776	0.0	n/a	NoResponse	0	n/a	n/a	2	30	Fixation	MissedWin	True
295.072	0.2	Win2	0.5806	0.002	No	2.776	-0.002	2.0	NoResponse	0	0.21	294.282	2	30	Target	MissedWin	True
295.272	0.5	Win2	0.5806	n/a	No	2.776	n/a	n/a	NoResponse	0	n/a	n/a	2	30	Blank	MissedWin	True
295.282	0.3	Win2	0.5806	0.002	No	2.776	-0.002	2.0	NoResponse	0	0.21	n/a	2	30	ButtonPress	MissedWin	True
295.772	1.45	Win2	0.5806	n/a	No	2.776	n/a	5.0	NoResponse	0	0.008	294.78	2	30	Feedback	MissedWin	True
297.222	2.776	Win2	0.5806	n/a	No	2.776	n/a	n/a	NoResponse	0	0.0	n/a	2	30	ISIslide	MissedWin	True
300.021	0.25	Lose2	0.5938	0.0	Yes	2.829	0.021	n/a	GoodResponse	0	n/a	n/a	2	31	Cue	AvoidedLoss	True
300.271	4.05	Lose2	0.5938	0.0	Yes	2.829	0.0	n/a	GoodResponse	0	n/a	n/a	2	31	Fixation	AvoidedLoss	True
304.319	0.21	Lose2	0.5938	0.002	Yes	2.829	-0.002	2.0	GoodResponse	0	0.166	303.485	2	31	Target	AvoidedLoss	True
304.485	0.3	Lose2	0.5938	0.002	Yes	2.829	-0.002	2.0	GoodResponse	0	0.166	n/a	2	31	ButtonPress	AvoidedLoss	True
304.536	0.49	Lose2	0.5938	n/a	Yes	2.829	n/a	n/a	GoodResponse	0	n/a	n/a	2	31	Blank	AvoidedLoss	True
305.019	1.45	Lose2	0.5938	n/a	Yes	2.829	n/a	5.0	GoodResponse	0	0.027	304.046	2	31	Feedback	AvoidedLoss	True
306.468	2.829	Lose2	0.5938	n/a	Yes	2.829	n/a	n/a	GoodResponse	0	0.0	n/a	2	31	ISIslide	AvoidedLoss	True
309.318	0.25	Lose2	0.6061	0.0	Yes	2.632	0.018	n/a	GoodResponse	0	n/a	n/a	2	32	Cue	AvoidedLoss	True
309.567	4.15	Lose2	0.6061	0.001	Yes	2.632	-0.001	n/a	GoodResponse	0	n/a	n/a	2	32	Fixation	AvoidedLoss	True
313.716	0.22	Lose2	0.6061	0.002	Yes	2.632	-0.002	2.0	GoodResponse	0	0.196	312.912	2	32	Target	AvoidedLoss	True
313.912	0.3	Lose2	0.6061	0.002	Yes	2.632	-0.002	2.0	GoodResponse	0	0.196	n/a	2	32	ButtonPress	AvoidedLoss	True
313.949	0.48	Lose2	0.6061	n/a	Yes	2.632	n/a	n/a	GoodResponse	0	n/a	n/a	2	32	Blank	AvoidedLoss	True
314.416	1.45	Lose2	0.6061	n/a	Yes	2.632	n/a	5.0	GoodResponse	0	0.045	313.461	2	32	Feedback	AvoidedLoss	True
315.865	2.632	Lose2	0.6061	n/a	Yes	2.632	n/a	n/a	GoodResponse	0	0.0	n/a	2	32	ISIslide	AvoidedLoss	True
318.514	0.25	Win2	0.5882000000000001	0.0	No	2.686	0.014	n/a	NoResponse	0	n/a	n/a	2	33	Cue	MissedWin	True
318.764	4.0	Win2	0.5882000000000001	0.0	No	2.686	0.0	n/a	NoResponse	0	n/a	n/a	2	33	Fixation	MissedWin	True
322.763	0.23	Win2	0.5882000000000001	0.001	No	2.686	-0.001	2.0	NoResponse	0	0.275	322.038	2	33	Target	MissedWin	True
322.996	0.47	Win2	0.5882000000000001	n/a	No	2.686	n/a	n/a	NoResponse	0	n/a	n/a	2	33	Blank	MissedWin	True
323.038	0.3	Win2	0.5882000000000001	0.001	No	2.686	-0.001	2.0	NoResponse	0	0.275	n/a	2	33	ButtonPress	MissedWin	True
323.463	1.45	Win2	0.5882000000000001	n/a	No	2.686	n/a	5.0	NoResponse	0	0.023	322.486	2	33	Feedback	MissedWin	True
324.912	2.686	Win2	0.5882000000000001	n/a	No	2.686	n/a	n/a	NoResponse	0	0.0	n/a	2	33	ISIslide	MissedWin	True
327.628	0.25	Lose2	0.5714	0.0	No	2.622	0.028	n/a	NoResponse	-1	n/a	n/a	1	34	Cue	Loss	True
327.878	4.05	Lose2	0.5714	0.0	No	2.622	0.0	n/a	NoResponse	-1	n/a	n/a	1	34	Fixation	Loss	True
331.926	0.24	Lose2	0.5714	0.002	No	2.622	-0.002	2.0	NoResponse	-1	0.257	331.183	1	34	Target	Loss	True
332.176	0.46	Lose2	0.5714	n/a	No	2.622	n/a	n/a	NoResponse	-1	n/a	n/a	1	34	Blank	Loss	True
332.183	0.3	Lose2	0.5714	0.002	No	2.622	-0.002	2.0	NoResponse	-1	0.257	n/a	1	34	ButtonPress	Loss	True
332.626	1.45	Lose2	0.5714	n/a	No	2.622	n/a	5.0	NoResponse	-1	0.031	331.657	1	34	Feedback	Loss	True
334.076	2.622	Lose2	0.5714	n/a	No	2.622	n/a	n/a	NoResponse	-1	0.0	n/a	1	34	ISIslide	Loss	True
336.725	0.25	Lose2	0.5832999999999999	0.0	Yes	2.675	0.025	n/a	GoodResponse	0	n/a	n/a	1	35	Cue	AvoidedLoss	True
336.975	4.0	Lose2	0.5832999999999999	0.0	Yes	2.675	0.0	n/a	GoodResponse	0	n/a	n/a	1	35	Fixation	AvoidedLoss	True
340.973	0.25	Lose2	0.5832999999999999	0.002	Yes	2.675	-0.002	2.0	GoodResponse	0	0.216	340.189	1	35	Target	AvoidedLoss	True
341.189	0.3	Lose2	0.5832999999999999	0.002	Yes	2.675	-0.002	2.0	GoodResponse	0	0.216	n/a	1	35	ButtonPress	AvoidedLoss	True
341.223	0.45	Lose2	0.5832999999999999	n/a	Yes	2.675	n/a	n/a	GoodResponse	0	n/a	n/a	1	35	Blank	AvoidedLoss	True
341.673	1.45	Lose2	0.5832999999999999	n/a	Yes	2.675	n/a	5.0	GoodResponse	0	0.008	340.681	1	35	Feedback	AvoidedLoss	True
343.122	2.675	Lose2	0.5832999999999999	n/a	Yes	2.675	n/a	n/a	GoodResponse	0	0.0	n/a	1	35	ISIslide	AvoidedLoss	True
345.821	0.25	Control	0.5946	0.0	Yes	2.679	0.021	n/a	GoodResponse	0	n/a	n/a	1	36	Cue	Neutral	True
346.071	4.0	Control	0.5946	0.0	Yes	2.679	0.0	n/a	GoodResponse	0	n/a	n/a	1	36	Fixation	Neutral	True
350.07	0.26	Control	0.5946	0.001	Yes	2.679	-0.001	2.0	GoodResponse	0	0.17	349.24	1	36	Target	Neutral	True
350.24	0.3	Control	0.5946	0.001	Yes	2.679	-0.001	2.0	GoodResponse	0	0.17	n/a	1	36	ButtonPress	Neutral	True
350.337	0.44	Control	0.5946	n/a	Yes	2.679	n/a	n/a	GoodResponse	0	n/a	n/a	1	36	Blank	Neutral	True
350.77	1.45	Control	0.5946	n/a	Yes	2.679	n/a	5.0	GoodResponse	0	0.032	349.802	1	36	Feedback	Neutral	True
352.219	2.679	Control	0.5946	n/a	Yes	2.679	n/a	n/a	GoodResponse	0	0.0	n/a	1	36	ISIslide	Neutral	True
354.918	0.25	Win2	0.6053000000000001	0.0	Yes	2.882	0.018	n/a	GoodResponse	1	n/a	n/a	2	37	Cue	Win	True
355.168	4.0	Win2	0.6053000000000001	0.0	Yes	2.882	0.0	n/a	GoodResponse	1	n/a	n/a	2	37	Fixation	Win	True
359.167	0.27	Win2	0.6053000000000001	0.001	Yes	2.882	-0.001	2.0	GoodResponse	1	0.218	358.385	2	37	Target	Win	True
359.385	0.3	Win2	0.6053000000000001	0.001	Yes	2.882	-0.001	2.0	GoodResponse	1	0.218	n/a	2	37	ButtonPress	Win	True
359.433	0.43	Win2	0.6053000000000001	n/a	Yes	2.882	n/a	n/a	GoodResponse	1	n/a	n/a	2	37	Blank	Win	True
359.867	1.45	Win2	0.6053000000000001	n/a	Yes	2.882	n/a	5.0	GoodResponse	1	0.008	358.875	2	37	Feedback	Win	True
361.316	2.882	Win2	0.6053000000000001	n/a	Yes	2.882	n/a	n/a	GoodResponse	1	0.0	n/a	2	37	ISIslide	Win	True
364.215	0.25	Lose2	0.6154	0.0	Yes	2.835	0.015	n/a	GoodResponse	0	n/a	n/a	2	38	Cue	AvoidedLoss	True
364.465	3.95	Lose2	0.6154	0.0	Yes	2.835	0.0	n/a	GoodResponse	0	n/a	n/a	2	38	Fixation	AvoidedLoss	True
368.414	0.28	Lose2	0.6154	0.001	Yes	2.835	-0.001	2.0	GoodResponse	0	0.228	367.642	2	38	Target	AvoidedLoss	True
368.642	0.3	Lose2	0.6154	0.001	Yes	2.835	-0.001	2.0	GoodResponse	0	0.228	n/a	2	38	ButtonPress	AvoidedLoss	True
368.697	0.42	Lose2	0.6154	n/a	Yes	2.835	n/a	n/a	GoodResponse	0	n/a	n/a	2	38	Blank	AvoidedLoss	True
369.113	1.45	Lose2	0.6154	n/a	Yes	2.835	n/a	5.0	GoodResponse	0	0.031	368.144	2	38	Feedback	AvoidedLoss	True
370.563	2.835	Lose2	0.6154	n/a	Yes	2.835	n/a	n/a	GoodResponse	0	0.0	n/a	2	38	ISIslide	AvoidedLoss	True
373.428	0.25	Win2	0.625	0.001	Yes	2.972	0.028	n/a	GoodResponse	1	n/a	n/a	3	39	Cue	Win	True
373.678	4.1	Win2	0.625	0.0	Yes	2.972	0.0	n/a	GoodResponse	1	n/a	n/a	3	39	Fixation	Win	True
377.777	0.29	Win2	0.625	0.001	Yes	2.972	-0.001	2.0	GoodResponse	1	0.218	376.995	3	39	Target	Win	True
377.995	0.3	Win2	0.625	0.001	Yes	2.972	-0.001	2.0	GoodResponse	1	0.218	n/a	3	39	ButtonPress	Win	True
378.077	0.41	Win2	0.625	n/a	Yes	2.972	n/a	n/a	GoodResponse	1	n/a	n/a	3	39	Blank	Win	True
378.477	1.45	Win2	0.625	n/a	Yes	2.972	n/a	5.0	GoodResponse	1	0.033	377.51	3	39	Feedback	Win	True
379.926	2.972	Win2	0.625	n/a	Yes	2.972	n/a	n/a	GoodResponse	1	0.0	n/a	3	39	ISIslide	Win	True
382.925	0.25	Win2	0.6341	0.0	Yes	2.725	0.025	n/a	GoodResponse	1	n/a	n/a	4	40	Cue	Win	True
383.175	3.95	Win2	0.6341	0.0	Yes	2.725	0.0	n/a	GoodResponse	1	n/a	n/a	4	40	Fixation	Win	True
387.124	0.3	Win2	0.6341	0.001	Yes	2.725	-0.001	2.0	GoodResponse	1	0.198	386.322	4	40	Target	Win	True
387.322	0.3	Win2	0.6341	0.001	Yes	2.725	-0.001	2.0	GoodResponse	1	0.198	n/a	4	40	ButtonPress	Win	True
387.424	0.4	Win2	0.6341	n/a	Yes	2.725	n/a	n/a	GoodResponse	1	n/a	n/a	4	40	Blank	Win	True
387.823	1.45	Win2	0.6341	n/a	Yes	2.725	n/a	5.0	GoodResponse	1	0.007	386.83	4	40	Feedback	Win	True
389.273	2.725	Win2	0.6341	n/a	Yes	2.725	n/a	n/a	GoodResponse	1	0.0	n/a	4	40	ISIslide	Win	True
392.022	0.25	Win2	0.6429	0.0	Yes	2.778	0.022	n/a	GoodResponse	1	n/a	n/a	5	41	Cue	Win	True
392.272	3.9	Win2	0.6429	0.0	Yes	2.778	0.0	n/a	GoodResponse	1	n/a	n/a	5	41	Fixation	Win	True
396.171	0.31	Win2	0.6429	0.001	Yes	2.778	-0.001	2.0	GoodResponse	1	0.175	395.346	5	41	Target	Win	True
396.346	0.3	Win2	0.6429	0.001	Yes	2.778	-0.001	2.0	GoodResponse	1	0.175	n/a	5	41	ButtonPress	Win	True
396.487	0.39	Win2	0.6429	n/a	Yes	2.778	n/a	n/a	GoodResponse	1	n/a	n/a	5	41	Blank	Win	True
396.87	1.45	Win2	0.6429	n/a	Yes	2.778	n/a	5.0	GoodResponse	1	0.029	395.899	5	41	Feedback	Win	True
398.32	2.778	Win2	0.6429	n/a	Yes	2.778	n/a	n/a	GoodResponse	1	0.0	n/a	5	41	ISIslide	Win	True
401.119	0.25	Control	0.6512	0.0	Yes	2.931	0.019	n/a	GoodResponse	0	n/a	n/a	5	42	Cue	Neutral	True
401.369	3.85	Control	0.6512	0.0	Yes	2.931	0.0	n/a	GoodResponse	0	n/a	n/a	5	42	Fixation	Neutral	True
405.217	0.32	Control	0.6512	0.002	Yes	2.931	-0.002	2.0	GoodResponse	0	0.268	404.485	5	42	Target	Neutral	True
405.485	0.3	Control	0.6512	0.002	Yes	2.931	-0.002	2.0	GoodResponse	0	0.268	n/a	5	42	ButtonPress	Neutral	True
405.551	0.38	Control	0.6512	n/a	Yes	2.931	n/a	n/a	GoodResponse	0	n/a	n/a	5	42	Blank	Neutral	True
405.917	1.45	Control	0.6512	n/a	Yes	2.931	n/a	5.0	GoodResponse	0	0.008	404.925	5	42	Feedback	Neutral	True
407.367	2.931	Control	0.6512	n/a	Yes	2.931	n/a	n/a	GoodResponse	0	0.0	n/a	5	42	ISIslide	Neutral	True
410.316	0.25	Win2	0.6591	0.0	Yes	3.184	0.016	n/a	GoodResponse	1	n/a	n/a	6	43	Cue	Win	True
410.566	4.0	Win2	0.6591	0.0	Yes	3.184	0.0	n/a	GoodResponse	1	n/a	n/a	6	43	Fixation	Win	True
414.564	0.33	Win2	0.6591	0.002	Yes	3.184	-0.002	2.0	GoodResponse	1	0.2	413.764	6	43	Target	Win	True
414.764	0.3	Win2	0.6591	0.002	Yes	3.184	-0.002	2.0	GoodResponse	1	0.2	n/a	6	43	ButtonPress	Win	True
414.897	0.37	Win2	0.6591	n/a	Yes	3.184	n/a	n/a	GoodResponse	1	n/a	n/a	6	43	Blank	Win	True
415.264	1.45	Win2	0.6591	n/a	Yes	3.184	n/a	5.0	GoodResponse	1	0.026	414.29	6	43	Feedback	Win	True
416.713	3.184	Win2	0.6591	n/a	Yes	3.184	n/a	n/a	GoodResponse	1	0.0	n/a	6	43	ISIslide	Win	True
419.912	0.25	Win2	0.6667000000000001	0.0	Yes	2.988	0.012	n/a	GoodResponse	1	n/a	n/a	7	44	Cue	Win	True
420.162	4.0	Win2	0.6667000000000001	0.0	Yes	2.988	0.0	n/a	GoodResponse	1	n/a	n/a	7	44	Fixation	Win	True
424.161	0.33	Win2	0.6667000000000001	0.001	Yes	2.988	-0.001	2.0	GoodResponse	1	0.3	423.461	7	44	Target	Win	True
424.461	0.3	Win2	0.6667000000000001	0.001	Yes	2.988	-0.001	2.0	GoodResponse	1	0.3	n/a	7	44	ButtonPress	Win	True
424.494	0.37	Win2	0.6667000000000001	n/a	Yes	2.988	n/a	n/a	GoodResponse	1	n/a	n/a	7	44	Blank	Win	True
424.861	1.45	Win2	0.6667000000000001	n/a	Yes	2.988	n/a	5.0	GoodResponse	1	0.039	423.9	7	44	Feedback	Win	True
426.31	2.988	Win2	0.6667000000000001	n/a	Yes	2.988	n/a	n/a	GoodResponse	1	0.0	n/a	7	44	ISIslide	Win	True
429.326	0.25	Control	0.6739	0.0	Yes	2.874	0.026	n/a	GoodResponse	0	n/a	n/a	7	45	Cue	Neutral	True
429.576	4.1	Control	0.6739	0.0	Yes	2.874	0.0	n/a	GoodResponse	0	n/a	n/a	7	45	Fixation	Neutral	True
433.674	0.32	Control	0.6739	0.002	Yes	2.874	-0.002	2.0	GoodResponse	0	0.201	432.875	7	45	Target	Neutral	True
433.875	0.3	Control	0.6739	0.002	Yes	2.874	-0.002	2.0	GoodResponse	0	0.201	n/a	7	45	ButtonPress	Neutral	True
434.007	0.38	Control	0.6739	n/a	Yes	2.874	n/a	n/a	GoodResponse	0	n/a	n/a	7	45	Blank	Neutral	True
434.374	1.45	Control	0.6739	n/a	Yes	2.874	n/a	5.0	GoodResponse	0	0.038	433.412	7	45	Feedback	Neutral	True
435.823	2.874	Control	0.6739	n/a	Yes	2.874	n/a	n/a	GoodResponse	0	0.0	n/a	7	45	ISIslide	Neutral	True
438.722	0.25	Lose2	0.6809000000000001	0.0	Yes	3.378	0.022	n/a	GoodResponse	0	n/a	n/a	7	46	Cue	AvoidedLoss	True
438.972	4.0	Lose2	0.6809000000000001	0.0	Yes	3.378	0.0	n/a	GoodResponse	0	n/a	n/a	7	46	Fixation	AvoidedLoss	True
442.971	0.31	Lose2	0.6809000000000001	0.001	Yes	3.378	-0.001	2.0	GoodResponse	0	0.197	442.168	7	46	Target	AvoidedLoss	True
443.168	0.3	Lose2	0.6809000000000001	0.001	Yes	3.378	-0.001	2.0	GoodResponse	0	0.197	n/a	7	46	ButtonPress	AvoidedLoss	True
443.287	0.39	Lose2	0.6809000000000001	n/a	Yes	3.378	n/a	n/a	GoodResponse	0	n/a	n/a	7	46	Blank	AvoidedLoss	True
443.671	1.45	Lose2	0.6809000000000001	n/a	Yes	3.378	n/a	5.0	GoodResponse	0	0.009	442.68	7	46	Feedback	AvoidedLoss	True
445.12	3.378	Lose2	0.6809000000000001	n/a	Yes	3.378	n/a	n/a	GoodResponse	0	0.0	n/a	7	46	ISIslide	AvoidedLoss	True
448.519	0.25	Lose2	0.6875	0.0	Yes	2.681	0.019	n/a	GoodResponse	0	n/a	n/a	7	47	Cue	AvoidedLoss	True
448.769	4.0	Lose2	0.6875	0.0	Yes	2.681	0.0	n/a	GoodResponse	0	n/a	n/a	7	47	Fixation	AvoidedLoss	True
452.767	0.3	Lose2	0.6875	0.002	Yes	2.681	-0.002	2.0	GoodResponse	0	0.189	451.956	7	47	Target	AvoidedLoss	True
452.956	0.3	Lose2	0.6875	0.002	Yes	2.681	-0.002	2.0	GoodResponse	0	0.189	n/a	7	47	ButtonPress	AvoidedLoss	True
453.067	0.4	Lose2	0.6875	n/a	Yes	2.681	n/a	n/a	GoodResponse	0	n/a	n/a	7	47	Blank	AvoidedLoss	True
453.467	1.45	Lose2	0.6875	n/a	Yes	2.681	n/a	5.0	GoodResponse	0	0.017	452.484	7	47	Feedback	AvoidedLoss	True
454.917	2.681	Lose2	0.6875	n/a	Yes	2.681	n/a	n/a	GoodResponse	0	0.0	n/a	7	47	ISIslide	AvoidedLoss	True
457.616	0.25	Lose2	0.6939	0.0	Yes	3.034	0.016	n/a	GoodResponse	0	n/a	n/a	7	48	Cue	AvoidedLoss	True
457.866	3.95	Lose2	0.6939	0.0	Yes	3.034	0.0	n/a	GoodResponse	0	n/a	n/a	7	48	Fixation	AvoidedLoss	True
461.814	0.29	Lose2	0.6939	0.002	Yes	3.034	-0.002	2.0	GoodResponse	0	0.21	461.024	7	48	Target	AvoidedLoss	True
462.024	0.3	Lose2	0.6939	0.002	Yes	3.034	-0.002	2.0	GoodResponse	0	0.21	n/a	7	48	ButtonPress	AvoidedLoss	True
462.114	0.41	Lose2	0.6939	n/a	Yes	3.034	n/a	n/a	GoodResponse	0	n/a	n/a	7	48	Blank	AvoidedLoss	True
462.514	1.45	Lose2	0.6939	n/a	Yes	3.034	n/a	5.0	GoodResponse	0	0.044	461.558	7	48	Feedback	AvoidedLoss	True
463.964	3.034	Lose2	0.6939	n/a	Yes	3.034	n/a	n/a	GoodResponse	0	0.0	n/a	7	48	ISIslide	AvoidedLoss	True
467.012	0.25	Control	0.7	0.001	Yes	2.888	0.012	n/a	GoodResponse	0	n/a	n/a	7	49	Cue	Neutral	True
467.262	4.0	Control	0.7	0.0	Yes	2.888	0.0	n/a	GoodResponse	0	n/a	n/a	7	49	Fixation	Neutral	True
471.261	0.28	Control	0.7	0.001	Yes	2.888	-0.001	2.0	GoodResponse	0	0.215	470.476	7	49	Target	Neutral	True
471.476	0.3	Control	0.7	0.001	Yes	2.888	-0.001	2.0	GoodResponse	0	0.215	n/a	7	49	ButtonPress	Neutral	True
471.544	0.42	Control	0.7	n/a	Yes	2.888	n/a	n/a	GoodResponse	0	n/a	n/a	7	49	Blank	Neutral	True
471.961	1.45	Control	0.7	n/a	Yes	2.888	n/a	5.0	GoodResponse	0	0.011	470.972	7	49	Feedback	Neutral	True
473.41	2.888	Control	0.7	n/a	Yes	2.888	n/a	n/a	GoodResponse	0	0.0	n/a	7	49	ISIslide	Neutral	True
476.326	0.25	Control	0.7059000000000001	0.0	Yes	2.774	0.026	n/a	GoodResponse	0	n/a	n/a	7	50	Cue	Neutral	True
476.576	4.0	Control	0.7059000000000001	0.0	Yes	2.774	0.0	n/a	GoodResponse	0	n/a	n/a	7	50	Fixation	Neutral	True
480.574	0.27	Control	0.7059000000000001	0.002	Yes	2.774	-0.002	2.0	GoodResponse	0	0.154	479.728	7	50	Target	Neutral	True
480.728	0.3	Control	0.7059000000000001	0.002	Yes	2.774	-0.002	2.0	GoodResponse	0	0.154	n/a	7	50	ButtonPress	Neutral	True
480.858	0.43	Control	0.7059000000000001	n/a	Yes	2.774	n/a	n/a	GoodResponse	0	n/a	n/a	7	50	Blank	Neutral	True
481.274	1.45	Control	0.7059000000000001	n/a	Yes	2.774	n/a	5.0	GoodResponse	0	0.016	480.29	7	50	Feedback	Neutral	True
482.724	2.774	Control	0.7059000000000001	n/a	Yes	2.774	n/a	n/a	GoodResponse	0	0.0	n/a	7	50	ISIslide	Neutral	True
485.523	0.25	Control	0.7115	0.0	Yes	2.727	0.023	n/a	GoodResponse	0	n/a	n/a	7	51	Cue	Neutral	True
485.773	3.95	Control	0.7115	0.0	Yes	2.727	0.0	n/a	GoodResponse	0	n/a	n/a	7	51	Fixation	Neutral	True
489.721	0.26	Control	0.7115	0.002	Yes	2.727	-0.002	2.0	GoodResponse	0	0.197	488.918	7	51	Target	Neutral	True
489.918	0.3	Control	0.7115	0.002	Yes	2.727	-0.002	2.0	GoodResponse	0	0.197	n/a	7	51	ButtonPress	Neutral	True
489.988	0.44	Control	0.7115	n/a	Yes	2.727	n/a	n/a	GoodResponse	0	n/a	n/a	7	51	Blank	Neutral	True
490.421	1.45	Control	0.7115	n/a	Yes	2.727	n/a	5.0	GoodResponse	0	0.039	489.46	7	51	Feedback	Neutral	True
491.87	2.727	Control	0.7115	n/a	Yes	2.727	n/a	n/a	GoodResponse	0	0.0	n/a	7	51	ISIslide	Neutral	True
494.62	0.25	Control	0.7170000000000001	0.0	Yes	2.63	0.02	n/a	GoodResponse	0	n/a	n/a	7	52	Cue	Neutral	True
494.869	4.05	Control	0.7170000000000001	0.001	Yes	2.63	-0.001	n/a	GoodResponse	0	n/a	n/a	7	52	Fixation	Neutral	True
498.918	0.25	Control	0.7170000000000001	0.002	Yes	2.63	-0.002	2.0	GoodResponse	0	0.241	498.159	7	52	Target	Neutral	True
499.159	0.3	Control	0.7170000000000001	0.002	Yes	2.63	-0.002	2.0	GoodResponse	0	0.241	n/a	7	52	ButtonPress	Neutral	True
499.168	0.45	Control	0.7170000000000001	n/a	Yes	2.63	n/a	n/a	GoodResponse	0	n/a	n/a	7	52	Blank	Neutral	True
499.618	1.45	Control	0.7170000000000001	n/a	Yes	2.63	n/a	5.0	GoodResponse	0	0.012	498.63	7	52	Feedback	Neutral	True
501.067	2.63	Control	0.7170000000000001	n/a	Yes	2.63	n/a	n/a	GoodResponse	0	0.0	n/a	7	52	ISIslide	Neutral	True
503.716	0.25	Win2	0.7222	0.0	Yes	2.934	0.016	n/a	GoodResponse	1	n/a	n/a	8	53	Cue	Win	True
503.966	4.05	Win2	0.7222	0.0	Yes	2.934	0.0	n/a	GoodResponse	1	n/a	n/a	8	53	Fixation	Win	True
508.015	0.24	Win2	0.7222	0.001	Yes	2.934	-0.001	2.0	GoodResponse	1	0.183	507.198	8	53	Target	Win	True
508.198	0.3	Win2	0.7222	0.001	Yes	2.934	-0.001	2.0	GoodResponse	1	0.183	n/a	8	53	ButtonPress	Win	True
508.265	0.46	Win2	0.7222	n/a	Yes	2.934	n/a	n/a	GoodResponse	1	n/a	n/a	8	53	Blank	Win	True
508.715	1.45	Win2	0.7222	n/a	Yes	2.934	n/a	5.0	GoodResponse	1	0.037	507.752	8	53	Feedback	Win	True
510.164	2.934	Win2	0.7222	n/a	Yes	2.934	n/a	n/a	GoodResponse	1	0.0	n/a	8	53	ISIslide	Win	True
513.13	0.25	Win2	0.7091	0.0	No	2.72	0.03	n/a	NoResponse	0	n/a	n/a	8	54	Cue	MissedWin	True
513.38	3.95	Win2	0.7091	0.0	No	2.72	0.0	n/a	NoResponse	0	n/a	n/a	8	54	Fixation	MissedWin	True
517.328	0.23	Win2	0.7091	0.002	No	2.72	-0.002	2.0	NoResponse	0	0.254	516.582	8	54	Target	MissedWin	True
517.562	0.47	Win2	0.7091	n/a	No	2.72	n/a	n/a	NoResponse	0	n/a	n/a	8	54	Blank	MissedWin	True
517.582	0.3	Win2	0.7091	0.002	No	2.72	-0.002	2.0	NoResponse	0	0.254	n/a	8	54	ButtonPress	MissedWin	True
518.028	1.45	Win2	0.7091	n/a	No	2.72	n/a	5.0	NoResponse	0	0.042	517.07	8	54	Feedback	MissedWin	True
519.478	2.72	Win2	0.7091	n/a	No	2.72	n/a	n/a	NoResponse	0	0.0	n/a	8	54	ISIslide	MissedWin	True
522.227	0.25	Control	0.6964	0.0	No	3.023	0.027	n/a	NoResponse	0	n/a	n/a	8	55	Cue	Neutral	True
522.476	3.95	Control	0.6964	0.001	No	3.023	-0.001	n/a	NoResponse	0	n/a	n/a	8	55	Fixation	Neutral	True
526.425	0.22	Control	0.6964	0.002	No	3.023	-0.002	2.0	NoResponse	0	0.26	525.685	8	55	Target	Neutral	True
526.658	0.48	Control	0.6964	n/a	No	3.023	n/a	n/a	NoResponse	0	n/a	n/a	8	55	Blank	Neutral	True
526.685	0.3	Control	0.6964	0.002	No	3.023	-0.002	2.0	NoResponse	0	0.26	n/a	8	55	ButtonPress	Neutral	True
527.125	1.45	Control	0.6964	n/a	No	3.023	n/a	5.0	NoResponse	0	0.018	526.143	8	55	Feedback	Neutral	True
528.574	3.023	Control	0.6964	n/a	No	3.023	n/a	n/a	NoResponse	0	0.0	n/a	8	55	ISIslide	Neutral	True
531.623	0.25	Control	0.6842	0.0	No	2.827	0.023	n/a	NoResponse	0	n/a	n/a	8	56	Cue	Neutral	True
531.873	3.95	Control	0.6842	0.0	No	2.827	0.0	n/a	NoResponse	0	n/a	n/a	8	56	Fixation	Neutral	True
535.822	0.21	Control	0.6842	0.001	No	2.827	-0.001	2.0	NoResponse	0	0.272	535.094	8	56	Target	Neutral	True
536.038	0.49	Control	0.6842	n/a	No	2.827	n/a	n/a	NoResponse	0	n/a	n/a	8	56	Blank	Neutral	True
536.094	0.3	Control	0.6842	0.001	No	2.827	-0.001	2.0	NoResponse	0	0.272	n/a	8	56	ButtonPress	Neutral	True
536.522	1.45	Control	0.6842	n/a	No	2.827	n/a	5.0	NoResponse	0	0.036	535.558	8	56	Feedback	Neutral	True
537.971	2.827	Control	0.6842	n/a	No	2.827	n/a	n/a	NoResponse	0	0.0	n/a	8	56	ISIslide	Neutral	True
540.82	0.25	Control	0.6897	0.0	Yes	3.48	0.02	n/a	GoodResponse	0	n/a	n/a	8	57	Cue	Neutral	True
541.07	4.0	Control	0.6897	0.0	Yes	3.48	0.0	n/a	GoodResponse	0	n/a	n/a	8	57	Fixation	Neutral	True
545.069	0.2	Control	0.6897	0.001	Yes	3.48	-0.001	2.0	GoodResponse	0	0.186	544.255	8	57	Target	Neutral	True
545.255	0.3	Control	0.6897	0.001	Yes	3.48	-0.001	2.0	GoodResponse	0	0.186	n/a	8	57	ButtonPress	Neutral	True
545.269	0.5	Control	0.6897	n/a	Yes	3.48	n/a	n/a	GoodResponse	0	n/a	n/a	8	57	Blank	Neutral	True
545.768	1.45	Control	0.6897	n/a	Yes	3.48	n/a	5.0	GoodResponse	0	0.009	544.777	8	57	Feedback	Neutral	True
547.218	3.48	Control	0.6897	n/a	Yes	3.48	n/a	n/a	GoodResponse	0	0.0	n/a	8	57	ISIslide	Neutral	True
550.717	0.25	Win2	0.6949	0.0	Yes	2.733	0.017	n/a	GoodResponse	1	n/a	n/a	9	58	Cue	Win	False
550.967	4.05	Win2	0.6949	0.0	Yes	2.733	0.0	2.0	GoodResponse	1	0.048	550.015	9	58	Fixation	Win	False
551.015	0.3	Win2	0.6949	0.0	Yes	2.733	0.0	2.0	GoodResponse	1	0.048	n/a	9	58	ButtonPress	Win	False
555.015	0.19	Win2	0.6949	0.002	Yes	2.733	-0.002	2.0	GoodResponse	1	0.184	554.199	9	58	Target	Win	False
555.199	0.3	Win2	0.6949	0.002	Yes	2.733	-0.002	2.0	GoodResponse	1	0.184	n/a	9	58	ButtonPress	Win	False
555.215	0.51	Win2	0.6949	n/a	Yes	2.733	n/a	n/a	GoodResponse	1	n/a	n/a	9	58	Blank	Win	False
555.715	1.45	Win2	0.6949	n/a	Yes	2.733	n/a	5.0	GoodResponse	1	0.013	554.728	9	58	Feedback	Win	False
557.164	2.733	Win2	0.6949	n/a	Yes	2.733	n/a	n/a	GoodResponse	1	0.0	n/a	9	58	ISIslide	Win	False
559.913	0.25	Lose2	0.6833	0.0	No	2.687	0.013	n/a	NoResponse	-1	n/a	n/a	8	59	Cue	Loss	True
560.163	4.0	Lose2	0.6833	0.0	No	2.687	0.0	n/a	NoResponse	-1	n/a	n/a	8	59	Fixation	Loss	True
564.162	0.18	Lose2	0.6833	0.001	No	2.687	-0.001	2.0	NoResponse	-1	0.225	563.387	8	59	Target	Loss	True
564.345	0.52	Lose2	0.6833	n/a	No	2.687	n/a	n/a	NoResponse	-1	n/a	n/a	8	59	Blank	Loss	True
564.387	0.3	Lose2	0.6833	0.001	No	2.687	-0.001	2.0	NoResponse	-1	0.225	n/a	8	59	ButtonPress	Loss	True
564.862	1.45	Lose2	0.6833	n/a	No	2.687	n/a	5.0	NoResponse	-1	0.036	563.898	8	59	Feedback	Loss	True
566.311	2.687	Lose2	0.6833	n/a	No	2.687	n/a	n/a	NoResponse	-1	0.0	n/a	8	59	ISIslide	Loss	True
569.027	0.25	Control	0.6720999999999999	0.0	No	2.673	0.027	n/a	NoResponse	0	n/a	n/a	8	60	Cue	Neutral	True
569.277	4.0	Control	0.6720999999999999	0.0	No	2.673	0.0	n/a	NoResponse	0	n/a	n/a	8	60	Fixation	Neutral	True
573.275	0.17	Control	0.6720999999999999	0.002	No	2.673	-0.002	2.0	NoResponse	0	0.191	572.466	8	60	Target	Neutral	True
573.459	0.53	Control	0.6720999999999999	n/a	No	2.673	n/a	n/a	NoResponse	0	n/a	n/a	8	60	Blank	Neutral	True
573.466	0.3	Control	0.6720999999999999	0.002	No	2.673	-0.002	2.0	NoResponse	0	0.191	n/a	8	60	ButtonPress	Neutral	True
573.975	1.45	Control	0.6720999999999999	n/a	No	2.673	n/a	5.0	NoResponse	0	0.045	573.02	8	60	Feedback	Neutral	True
575.425	2.673	Control	0.6720999999999999	n/a	No	2.673	n/a	n/a	NoResponse	0	0.0	n/a	8	60	ISIslide	Neutral	True
578.124	0.25	Lose2	0.6613	0.0	No	2.976	0.024	n/a	NoResponse	-1	n/a	n/a	7	61	Cue	Loss	True
578.374	4.0	Lose2	0.6613	0.0	No	2.976	0.0	n/a	NoResponse	-1	n/a	n/a	7	61	Fixation	Loss	True
582.372	0.16	Lose2	0.6613	0.002	No	2.976	-0.002	2.0	NoResponse	-1	0.209	581.581	7	61	Target	Loss	True
582.539	0.54	Lose2	0.6613	n/a	No	2.976	n/a	n/a	NoResponse	-1	n/a	n/a	7	61	Blank	Loss	True
582.581	0.3	Lose2	0.6613	0.002	No	2.976	-0.002	2.0	NoResponse	-1	0.209	n/a	7	61	ButtonPress	Loss	True
583.072	1.45	Lose2	0.6613	n/a	No	2.976	n/a	5.0	NoResponse	-1	0.022	582.094	7	61	Feedback	Loss	True
584.521	2.976	Lose2	0.6613	n/a	No	2.976	n/a	n/a	NoResponse	-1	0.0	n/a	7	61	ISIslide	Loss	True
587.52	0.25	Lose2	0.6507999999999999	0.001	No	2.88	0.02	n/a	NoResponse	-1	n/a	n/a	6	62	Cue	Loss	True
587.77	3.9	Lose2	0.6507999999999999	0.0	No	2.88	0.0	n/a	NoResponse	-1	n/a	n/a	6	62	Fixation	Loss	True
591.669	0.16	Lose2	0.6507999999999999	0.001	No	2.88	-0.001	2.0	NoResponse	-1	0.225	590.894	6	62	Target	Loss	True
591.836	0.54	Lose2	0.6507999999999999	n/a	No	2.88	n/a	n/a	NoResponse	-1	n/a	n/a	6	62	Blank	Loss	True
591.894	0.3	Lose2	0.6507999999999999	0.001	No	2.88	-0.001	2.0	NoResponse	-1	0.225	n/a	6	62	ButtonPress	Loss	True
592.369	1.45	Lose2	0.6507999999999999	n/a	No	2.88	n/a	5.0	NoResponse	-1	0.042	591.411	6	62	Feedback	Loss	True
593.818	2.88	Lose2	0.6507999999999999	n/a	No	2.88	n/a	n/a	NoResponse	-1	0.0	n/a	6	62	ISIslide	Loss	True
596.717	0.25	Lose2	0.6406000000000001	0.0	No	2.633	0.017	n/a	NoResponse	-1	n/a	n/a	5	63	Cue	Loss	True
596.967	4.05	Lose2	0.6406000000000001	0.0	No	2.633	0.0	n/a	NoResponse	-1	n/a	n/a	5	63	Fixation	Loss	True
601.016	0.17	Lose2	0.6406000000000001	0.001	No	2.633	-0.001	2.0	NoResponse	-1	0.233	600.249	5	63	Target	Loss	True
601.199	0.53	Lose2	0.6406000000000001	n/a	No	2.633	n/a	n/a	NoResponse	-1	n/a	n/a	5	63	Blank	Loss	True
601.249	0.3	Lose2	0.6406000000000001	0.001	No	2.633	-0.001	2.0	NoResponse	-1	0.233	n/a	5	63	ButtonPress	Loss	True
601.715	1.45	Lose2	0.6406000000000001	n/a	No	2.633	n/a	5.0	NoResponse	-1	0.012	600.727	5	63	Feedback	Loss	True
603.165	2.633	Lose2	0.6406000000000001	n/a	No	2.633	n/a	n/a	NoResponse	-1	0.0	n/a	5	63	ISIslide	Loss	True
605.814	0.25	Win2	0.6462	0.0	Yes	3.136	0.014	n/a	GoodResponse	1	n/a	n/a	6	64	Cue	Win	True
606.064	4.15	Win2	0.6462	0.0	Yes	3.136	0.0	n/a	GoodResponse	1	n/a	n/a	6	64	Fixation	Win	True
610.213	0.18	Win2	0.6462	0.001	Yes	3.136	-0.001	2.0	GoodResponse	1	0.172	609.385	6	64	Target	Win	True
610.385	0.3	Win2	0.6462	0.001	Yes	3.136	-0.001	2.0	GoodResponse	1	0.172	n/a	6	64	ButtonPress	Win	True
610.396	0.52	Win2	0.6462	n/a	Yes	3.136	n/a	n/a	GoodResponse	1	n/a	n/a	6	64	Blank	Win	True
610.912	1.45	Win2	0.6462	n/a	Yes	3.136	n/a	5.0	GoodResponse	1	0.035	609.947	6	64	Feedback	Win	True
612.362	3.136	Win2	0.6462	n/a	Yes	3.136	n/a	n/a	GoodResponse	1	0.0	n/a	6	64	ISIslide	Win	True
615.527	0.25	Control	0.6515000000000001	0.0	Yes	2.773	0.027	n/a	GoodResponse	0	n/a	n/a	6	65	Cue	Neutral	True
615.777	4.0	Control	0.6515000000000001	0.0	Yes	2.773	0.0	n/a	GoodResponse	0	n/a	n/a	6	65	Fixation	Neutral	True
619.776	0.19	Control	0.6515000000000001	0.001	Yes	2.773	-0.001	2.0	GoodResponse	0	0.172	618.948	6	65	Target	Neutral	True
619.948	0.3	Control	0.6515000000000001	0.001	Yes	2.773	-0.001	2.0	GoodResponse	0	0.172	n/a	6	65	ButtonPress	Neutral	True
619.976	0.51	Control	0.6515000000000001	n/a	Yes	2.773	n/a	n/a	GoodResponse	0	n/a	n/a	6	65	Blank	Neutral	True
620.476	1.45	Control	0.6515000000000001	n/a	Yes	2.773	n/a	5.0	GoodResponse	0	0.032	619.508	6	65	Feedback	Neutral	True
621.925	2.773	Control	0.6515000000000001	n/a	Yes	2.773	n/a	n/a	GoodResponse	0	0.0	n/a	6	65	ISIslide	Neutral	True
624.724	0.25	Win2	0.6567000000000001	0.0	Yes	2.776	0.024	n/a	GoodResponse	1	n/a	n/a	7	66	Cue	Win	True
624.974	3.9	Win2	0.6567000000000001	0.0	Yes	2.776	0.0	n/a	GoodResponse	1	n/a	n/a	7	66	Fixation	Win	True
628.873	0.2	Win2	0.6567000000000001	0.001	Yes	2.776	-0.001	2.0	GoodResponse	1	0.187	628.06	7	66	Target	Win	True
629.06	0.3	Win2	0.6567000000000001	0.001	Yes	2.776	-0.001	2.0	GoodResponse	1	0.187	n/a	7	66	ButtonPress	Win	True
629.073	0.5	Win2	0.6567000000000001	n/a	Yes	2.776	n/a	n/a	GoodResponse	1	n/a	n/a	7	66	Blank	Win	True
629.572	1.45	Win2	0.6567000000000001	n/a	Yes	2.776	n/a	5.0	GoodResponse	1	0.009	628.581	7	66	Feedback	Win	True
631.022	2.776	Win2	0.6567000000000001	n/a	Yes	2.776	n/a	n/a	GoodResponse	1	0.0	n/a	7	66	ISIslide	Win	True
633.821	0.25	Control	0.6470999999999999	0.0	No	2.729	0.021	n/a	NoResponse	0	n/a	n/a	7	67	Cue	Neutral	True
634.071	3.95	Control	0.6470999999999999	0.0	No	2.729	0.0	n/a	NoResponse	0	n/a	n/a	7	67	Fixation	Neutral	True
638.019	0.2	Control	0.6470999999999999	0.002	No	2.729	-0.002	2.0	NoResponse	0	0.209	637.228	7	67	Target	Neutral	True
638.219	0.5	Control	0.6470999999999999	n/a	No	2.729	n/a	n/a	NoResponse	0	n/a	n/a	7	67	Blank	Neutral	True
638.228	0.3	Control	0.6470999999999999	0.002	No	2.729	-0.002	2.0	NoResponse	0	0.209	n/a	7	67	ButtonPress	Neutral	True
638.719	1.45	Control	0.6470999999999999	n/a	No	2.729	n/a	5.0	NoResponse	0	0.033	637.752	7	67	Feedback	Neutral	True
640.169	2.729	Control	0.6470999999999999	n/a	No	2.729	n/a	n/a	NoResponse	0	0.0	n/a	7	67	ISIslide	Neutral	True
642.918	0.25	Win2	0.6522	0.0	Yes	3.082	0.018	n/a	GoodResponse	1	n/a	n/a	8	68	Cue	Win	True
643.168	4.0	Win2	0.6522	0.0	Yes	3.082	0.0	n/a	GoodResponse	1	n/a	n/a	8	68	Fixation	Win	True
647.166	0.21	Win2	0.6522	0.002	Yes	3.082	-0.002	2.0	GoodResponse	1	0.175	646.341	8	68	Target	Win	True
647.341	0.3	Win2	0.6522	0.002	Yes	3.082	-0.002	2.0	GoodResponse	1	0.175	n/a	8	68	ButtonPress	Win	True
647.383	0.49	Win2	0.6522	n/a	Yes	3.082	n/a	n/a	GoodResponse	1	n/a	n/a	8	68	Blank	Win	True
647.866	1.45	Win2	0.6522	n/a	Yes	3.082	n/a	5.0	GoodResponse	1	0.008	646.874	8	68	Feedback	Win	True
649.316	3.082	Win2	0.6522	n/a	Yes	3.082	n/a	n/a	GoodResponse	1	0.0	n/a	8	68	ISIslide	Win	True
652.414	0.25	Win2	0.6570999999999999	0.001	Yes	3.236	0.014	n/a	GoodResponse	1	n/a	n/a	9	69	Cue	Win	True
652.664	3.95	Win2	0.6570999999999999	0.0	Yes	3.236	0.0	n/a	GoodResponse	1	n/a	n/a	9	69	Fixation	Win	True
656.613	0.22	Win2	0.6570999999999999	0.001	Yes	3.236	-0.001	2.0	GoodResponse	1	0.176	655.789	9	69	Target	Win	True
656.789	0.3	Win2	0.6570999999999999	0.001	Yes	3.236	-0.001	2.0	GoodResponse	1	0.176	n/a	9	69	ButtonPress	Win	True
656.83	0.48	Win2	0.6570999999999999	n/a	Yes	3.236	n/a	n/a	GoodResponse	1	n/a	n/a	9	69	Blank	Win	True
657.313	1.45	Win2	0.6570999999999999	n/a	Yes	3.236	n/a	5.0	GoodResponse	1	0.024	656.337	9	69	Feedback	Win	True
658.762	3.236	Win2	0.6570999999999999	n/a	Yes	3.236	n/a	n/a	GoodResponse	1	0.0	n/a	9	69	ISIslide	Win	True
662.028	0.25	Lose2	0.662	0.0	Yes	3.022	0.028	n/a	GoodResponse	0	n/a	n/a	9	70	Cue	AvoidedLoss	True
662.278	4.05	Lose2	0.662	0.0	Yes	3.022	0.0	n/a	GoodResponse	0	n/a	n/a	9	70	Fixation	AvoidedLoss	True
666.326	0.22	Lose2	0.662	0.002	Yes	3.022	-0.002	2.0	GoodResponse	0	0.198	665.524	9	70	Target	AvoidedLoss	True
666.524	0.3	Lose2	0.662	0.002	Yes	3.022	-0.002	2.0	GoodResponse	0	0.198	n/a	9	70	ButtonPress	AvoidedLoss	True
666.56	0.48	Lose2	0.662	n/a	Yes	3.022	n/a	n/a	GoodResponse	0	n/a	n/a	9	70	Blank	AvoidedLoss	True
667.026	1.45	Lose2	0.662	n/a	Yes	3.022	n/a	5.0	GoodResponse	0	0.018	666.044	9	70	Feedback	AvoidedLoss	True
668.476	3.022	Lose2	0.662	n/a	Yes	3.022	n/a	n/a	GoodResponse	0	0.0	n/a	9	70	ISIslide	AvoidedLoss	True
671.524	0.25	Win2	0.6528	0.001	No	2.726	0.024	n/a	NoResponse	0	n/a	n/a	9	71	Cue	MissedWin	True
671.774	4.05	Win2	0.6528	0.0	No	2.726	0.0	n/a	NoResponse	0	n/a	n/a	9	71	Fixation	MissedWin	True
675.823	0.22	Win2	0.6528	0.001	No	2.726	-0.001	2.0	NoResponse	0	0.241	675.064	9	71	Target	MissedWin	True
676.04	0.48	Win2	0.6528	n/a	No	2.726	n/a	n/a	NoResponse	0	n/a	n/a	9	71	Blank	MissedWin	True
676.064	0.3	Win2	0.6528	0.001	No	2.726	-0.001	2.0	NoResponse	0	0.241	n/a	9	71	ButtonPress	MissedWin	True
676.523	1.45	Win2	0.6528	n/a	No	2.726	n/a	5.0	NoResponse	0	0.033	675.556	9	71	Feedback	MissedWin	True
677.972	2.726	Win2	0.6528	n/a	No	2.726	n/a	n/a	NoResponse	0	0.0	n/a	9	71	ISIslide	MissedWin	True
680.721	0.25	Win2	0.6575	0.0	Yes	2.779	0.021	n/a	GoodResponse	1	n/a	n/a	10	72	Cue	Win	True
680.971	4.1	Win2	0.6575	0.0	Yes	2.779	0.0	n/a	GoodResponse	1	n/a	n/a	10	72	Fixation	Win	True
685.07	0.23	Win2	0.6575	0.001	Yes	2.779	-0.001	2.0	GoodResponse	1	0.215	684.285	10	72	Target	Win	True
685.285	0.3	Win2	0.6575	0.001	Yes	2.779	-0.001	2.0	GoodResponse	1	0.215	n/a	10	72	ButtonPress	Win	True
685.303	0.47	Win2	0.6575	n/a	Yes	2.779	n/a	n/a	GoodResponse	1	n/a	n/a	10	72	Blank	Win	True
685.77	1.45	Win2	0.6575	n/a	Yes	2.779	n/a	5.0	GoodResponse	1	0.007	684.777	10	72	Feedback	Win	True
687.219	2.779	Win2	0.6575	n/a	Yes	2.779	n/a	n/a	GoodResponse	1	0.0	n/a	10	72	ISIslide	Win	True
690.018	0.25	Win2	0.6622	0.0	Yes	2.682	0.018	n/a	GoodResponse	1	n/a	n/a	11	73	Cue	Win	True
690.268	4.0	Win2	0.6622	0.0	Yes	2.682	0.0	n/a	GoodResponse	1	n/a	n/a	11	73	Fixation	Win	True
694.267	0.23	Win2	0.6622	0.001	Yes	2.682	-0.001	2.0	GoodResponse	1	0.177	693.444	11	73	Target	Win	True
694.444	0.3	Win2	0.6622	0.001	Yes	2.682	-0.001	2.0	GoodResponse	1	0.177	n/a	11	73	ButtonPress	Win	True
694.5	0.47	Win2	0.6622	n/a	Yes	2.682	n/a	n/a	GoodResponse	1	n/a	n/a	11	73	Blank	Win	True
694.966	1.45	Win2	0.6622	n/a	Yes	2.682	n/a	5.0	GoodResponse	1	0.03	693.996	11	73	Feedback	Win	True
696.416	2.682	Win2	0.6622	n/a	Yes	2.682	n/a	n/a	GoodResponse	1	0.0	n/a	11	73	ISIslide	Win	True
699.115	0.25	Lose2	0.6667000000000001	0.0	Yes	2.635	0.015	n/a	GoodResponse	0	n/a	n/a	11	74	Cue	AvoidedLoss	True
699.365	4.05	Lose2	0.6667000000000001	0.0	Yes	2.635	0.0	n/a	GoodResponse	0	n/a	n/a	11	74	Fixation	AvoidedLoss	True
703.413	0.23	Lose2	0.6667000000000001	0.002	Yes	2.635	-0.002	2.0	GoodResponse	0	0.186	702.599	11	74	Target	AvoidedLoss	True
703.599	0.3	Lose2	0.6667000000000001	0.002	Yes	2.635	-0.002	2.0	GoodResponse	0	0.186	n/a	11	74	ButtonPress	AvoidedLoss	True
703.647	0.47	Lose2	0.6667000000000001	n/a	Yes	2.635	n/a	n/a	GoodResponse	0	n/a	n/a	11	74	Blank	AvoidedLoss	True
704.113	1.45	Lose2	0.6667000000000001	n/a	Yes	2.635	n/a	5.0	GoodResponse	0	0.007	703.12	11	74	Feedback	AvoidedLoss	True
705.563	2.635	Lose2	0.6667000000000001	n/a	Yes	2.635	n/a	n/a	GoodResponse	0	0.0	n/a	11	74	ISIslide	AvoidedLoss	True
708.228	0.25	Lose2	0.6711	0.0	Yes	2.922	0.028	n/a	GoodResponse	0	n/a	n/a	11	75	Cue	AvoidedLoss	True
708.478	3.95	Lose2	0.6711	0.0	Yes	2.922	0.0	n/a	GoodResponse	0	n/a	n/a	11	75	Fixation	AvoidedLoss	True
712.427	0.22	Lose2	0.6711	0.001	Yes	2.922	-0.001	2.0	GoodResponse	0	0.183	711.61	11	75	Target	AvoidedLoss	True
712.61	0.3	Lose2	0.6711	0.001	Yes	2.922	-0.001	2.0	GoodResponse	0	0.183	n/a	11	75	ButtonPress	AvoidedLoss	True
712.643	0.48	Lose2	0.6711	n/a	Yes	2.922	n/a	n/a	GoodResponse	0	n/a	n/a	11	75	Blank	AvoidedLoss	True
713.127	1.45	Lose2	0.6711	n/a	Yes	2.922	n/a	5.0	GoodResponse	0	0.014	712.141	11	75	Feedback	AvoidedLoss	True
714.576	2.922	Lose2	0.6711	n/a	Yes	2.922	n/a	n/a	GoodResponse	0	0.0	n/a	11	75	ISIslide	AvoidedLoss	True
717.525	0.25	Control	0.6753	0.0	Yes	3.225	0.025	n/a	GoodResponse	0	n/a	n/a	11	76	Cue	Neutral	True
717.775	4.05	Control	0.6753	0.0	Yes	3.225	0.0	n/a	GoodResponse	0	n/a	n/a	11	76	Fixation	Neutral	True
721.824	0.21	Control	0.6753	0.001	Yes	3.225	-0.001	2.0	GoodResponse	0	0.198	721.022	11	76	Target	Neutral	True
722.022	0.3	Control	0.6753	0.001	Yes	3.225	-0.001	2.0	GoodResponse	0	0.198	n/a	11	76	ButtonPress	Neutral	True
722.04	0.49	Control	0.6753	n/a	Yes	3.225	n/a	n/a	GoodResponse	0	n/a	n/a	11	76	Blank	Neutral	True
722.523	1.45	Control	0.6753	n/a	Yes	3.225	n/a	5.0	GoodResponse	0	0.033	721.556	11	76	Feedback	Neutral	True
723.973	3.225	Control	0.6753	n/a	Yes	3.225	n/a	n/a	GoodResponse	0	0.0	n/a	11	76	ISIslide	Neutral	True
727.222	0.25	Lose2	0.6795	0.0	Yes	2.578	0.022	n/a	GoodResponse	0	n/a	n/a	11	77	Cue	AvoidedLoss	True
727.472	3.95	Lose2	0.6795	0.0	Yes	2.578	0.0	n/a	GoodResponse	0	n/a	n/a	11	77	Fixation	AvoidedLoss	True
731.42	0.2	Lose2	0.6795	0.002	Yes	2.578	-0.002	2.0	GoodResponse	0	0.191	730.611	11	77	Target	AvoidedLoss	True
731.611	0.3	Lose2	0.6795	0.002	Yes	2.578	-0.002	2.0	GoodResponse	0	0.191	n/a	11	77	ButtonPress	AvoidedLoss	True
731.62	0.5	Lose2	0.6795	n/a	Yes	2.578	n/a	n/a	GoodResponse	0	n/a	n/a	11	77	Blank	AvoidedLoss	True
732.12	1.45	Lose2	0.6795	n/a	Yes	2.578	n/a	5.0	GoodResponse	0	0.046	731.166	11	77	Feedback	AvoidedLoss	True
733.569	2.578	Lose2	0.6795	n/a	Yes	2.578	n/a	n/a	GoodResponse	0	0.0	n/a	11	77	ISIslide	AvoidedLoss	True
