onset	duration	cue_type	current_mean_accuracy	duration_error	is_hit	isi_adjusted	onset_delay	response	response_type	reward	rt	rt_time	total_reward	trial_number	trial_phase	trial_type	one_press
11.102	0.25	Control	1.0	0.0	Yes	2.948	0.002	n/a	GoodResponse	0	n/a	n/a	0	0	Cue	Neutral	True
11.353	3.85	Control	1.0	0.0	Yes	2.948	0.001	n/a	GoodResponse	0	n/a	n/a	0	0	Fixation	Neutral	True
15.198	0.4	Control	1.0	0.004	Yes	2.948	-0.004	2.0	GoodResponse	0	0.248	14.446	0	0	Target	Neutral	True
15.446	0.3	Control	1.0	0.004	Yes	2.948	-0.004	2.0	GoodResponse	0	0.248	n/a	0	0	ButtonPress	Neutral	True
15.599	0.3	Control	1.0	n/a	Yes	2.948	n/a	n/a	GoodResponse	0	n/a	n/a	0	0	Blank	Neutral	True
15.9	1.45	Control	1.0	n/a	Yes	2.948	n/a	5.0	GoodResponse	0	0.027	14.927	0	0	Feedback	Neutral	True
17.354	2.948	Control	1.0	n/a	Yes	2.948	n/a	n/a	GoodResponse	0	0.0	n/a	0	0	ISIslide	Neutral	True
20.33	0.25	Lose2	1.0	0.0	Yes	2.77	0.03	n/a	GoodResponse	0	n/a	n/a	0	1	Cue	AvoidedLoss	True
20.58	4.0	Lose2	1.0	0.001	Yes	2.77	0.0	n/a	GoodResponse	0	n/a	n/a	0	1	Fixation	AvoidedLoss	True
24.576	0.39	Lose2	1.0	0.004	Yes	2.77	-0.004	2.0	GoodResponse	0	0.266	23.842	0	1	Target	AvoidedLoss	True
24.842	0.3	Lose2	1.0	0.004	Yes	2.77	-0.004	2.0	GoodResponse	0	0.266	n/a	0	1	ButtonPress	AvoidedLoss	True
24.977	0.31	Lose2	1.0	n/a	Yes	2.77	n/a	n/a	GoodResponse	0	n/a	n/a	0	1	Blank	AvoidedLoss	True
25.278	1.45	Lose2	1.0	n/a	Yes	2.77	n/a	5.0	GoodResponse	0	0.014	24.292	0	1	Feedback	AvoidedLoss	True
26.732	2.77	Lose2	1.0	n/a	Yes	2.77	n/a	n/a	GoodResponse	0	0.0	n/a	0	1	ISIslide	AvoidedLoss	True
29.524	0.25	Control	1.0	0.0	Yes	2.576	0.024	n/a	GoodResponse	0	n/a	n/a	0	2	Cue	Neutral	True
29.775	4.1	Control	1.0	0.0	Yes	2.576	0.001	n/a	GoodResponse	0	n/a	n/a	0	2	Fixation	Neutral	True
33.87	0.38	Control	1.0	0.004	Yes	2.576	-0.004	2.0	GoodResponse	0	0.188	33.058	0	2	Target	Neutral	True
34.058	0.3	Control	1.0	0.004	Yes	2.576	-0.004	2.0	GoodResponse	0	0.188	n/a	0	2	ButtonPress	Neutral	True
34.255	0.32	Control	1.0	n/a	Yes	2.576	n/a	n/a	GoodResponse	0	n/a	n/a	0	2	Blank	Neutral	True
34.572	1.45	Control	1.0	n/a	Yes	2.576	n/a	5.0	GoodResponse	0	0.037	33.609	0	2	Feedback	Neutral	True
36.027	2.576	Control	1.0	n/a	Yes	2.576	n/a	n/a	GoodResponse	0	0.0	n/a	0	2	ISIslide	Neutral	True
38.618	0.25	Win2	1.0	0.0	Yes	2.832	0.018	n/a	GoodResponse	1	n/a	n/a	1	3	Cue	Win	True
38.868	3.95	Win2	1.0	0.001	Yes	2.832	0.0	n/a	GoodResponse	1	n/a	n/a	1	3	Fixation	Win	True
42.814	0.37	Win2	1.0	0.004	Yes	2.832	-0.004	2.0	GoodResponse	1	0.207	42.021	1	3	Target	Win	True
43.021	0.3	Win2	1.0	0.004	Yes	2.832	-0.004	2.0	GoodResponse	1	0.207	n/a	1	3	ButtonPress	Win	True
43.198	0.33	Win2	1.0	n/a	Yes	2.832	n/a	n/a	GoodResponse	1	n/a	n/a	1	3	Blank	Win	True
43.516	1.45	Win2	1.0	n/a	Yes	2.832	n/a	5.0	GoodResponse	1	0.02	42.536	1	3	Feedback	Win	True
44.97	2.832	Win2	1.0	n/a	Yes	2.832	n/a	n/a	GoodResponse	1	0.0	n/a	1	3	ISIslide	Win	True
47.829	0.25	Win2	1.0	0.0	Yes	3.271	0.029	n/a	GoodResponse	1	n/a	n/a	2	4	Cue	Win	True
48.079	4.0	Win2	1.0	0.0	Yes	3.271	0.0	n/a	GoodResponse	1	n/a	n/a	2	4	Fixation	Win	True
52.075	0.36	Win2	1.0	0.004	Yes	3.271	-0.004	2.0	GoodResponse	1	0.252	51.327	2	4	Target	Win	True
52.327	0.3	Win2	1.0	0.004	Yes	3.271	-0.004	2.0	GoodResponse	1	0.252	n/a	2	4	ButtonPress	Win	True
52.442	0.34	Win2	1.0	n/a	Yes	3.271	n/a	n/a	GoodResponse	1	n/a	n/a	2	4	Blank	Win	True
52.777	1.45	Win2	1.0	n/a	Yes	3.271	n/a	5.0	GoodResponse	1	0.027	51.804	2	4	Feedback	Win	True
54.231	3.271	Win2	1.0	n/a	Yes	3.271	n/a	n/a	GoodResponse	1	0.0	n/a	2	4	ISIslide	Win	True
57.524	0.25	Win2	1.0	0.0	Yes	2.776	0.024	n/a	GoodResponse	1	n/a	n/a	3	5	Cue	Win	True
57.775	4.0	Win2	1.0	0.0	Yes	2.776	0.001	n/a	GoodResponse	1	n/a	n/a	3	5	Fixation	Win	True
61.77	0.35	Win2	1.0	0.004	Yes	2.776	-0.004	2.0	GoodResponse	1	0.182	60.952	3	5	Target	Win	True
61.952	0.3	Win2	1.0	0.004	Yes	2.776	-0.004	2.0	GoodResponse	1	0.182	n/a	3	5	ButtonPress	Win	True
62.121	0.35	Win2	1.0	n/a	Yes	2.776	n/a	n/a	GoodResponse	1	n/a	n/a	3	5	Blank	Win	True
62.472	1.45	Win2	1.0	n/a	Yes	2.776	n/a	5.0	GoodResponse	1	0.04	61.512	3	5	Feedback	Win	True
63.927	2.776	Win2	1.0	n/a	Yes	2.776	n/a	n/a	GoodResponse	1	0.0	n/a	3	5	ISIslide	Win	True
66.718	0.25	Lose2	1.0	0.0	Yes	2.732	0.018	n/a	GoodResponse	0	n/a	n/a	3	6	Cue	AvoidedLoss	True
66.969	3.95	Lose2	1.0	0.0	Yes	2.732	0.001	n/a	GoodResponse	0	n/a	n/a	3	6	Fixation	AvoidedLoss	True
70.914	0.34	Lose2	1.0	0.004	Yes	2.732	-0.004	2.0	GoodResponse	0	0.21	70.124	3	6	Target	AvoidedLoss	True
71.124	0.3	Lose2	1.0	0.004	Yes	2.732	-0.004	2.0	GoodResponse	0	0.21	n/a	3	6	ButtonPress	AvoidedLoss	True
71.265	0.36	Lose2	1.0	n/a	Yes	2.732	n/a	n/a	GoodResponse	0	n/a	n/a	3	6	Blank	AvoidedLoss	True
71.616	1.45	Lose2	1.0	n/a	Yes	2.732	n/a	5.0	GoodResponse	0	0.017	70.633	3	6	Feedback	AvoidedLoss	True
73.071	2.732	Lose2	1.0	n/a	Yes	2.732	n/a	n/a	GoodResponse	0	0.0	n/a	3	6	ISIslide	AvoidedLoss	True
75.829	0.25	Lose2	1.0	0.0	Yes	4.021	0.029	n/a	GoodResponse	0	n/a	n/a	3	7	Cue	AvoidedLoss	True
76.08	4.05	Lose2	1.0	0.0	Yes	4.021	0.001	n/a	GoodResponse	0	n/a	n/a	3	7	Fixation	AvoidedLoss	True
80.125	0.33	Lose2	1.0	0.004	Yes	4.021	-0.004	2.0	GoodResponse	0	0.213	79.338	3	7	Target	AvoidedLoss	True
80.338	0.3	Lose2	1.0	0.004	Yes	4.021	-0.004	2.0	GoodResponse	0	0.213	n/a	3	7	ButtonPress	AvoidedLoss	True
80.459	0.37	Lose2	1.0	n/a	Yes	4.021	n/a	n/a	GoodResponse	0	n/a	n/a	3	7	Blank	AvoidedLoss	True
80.827	1.45	Lose2	1.0	n/a	Yes	4.021	n/a	5.0	GoodResponse	0	0.025	79.852	3	7	Feedback	AvoidedLoss	True
82.282	4.021	Lose2	1.0	n/a	Yes	4.021	n/a	n/a	GoodResponse	0	0.0	n/a	3	7	ISIslide	AvoidedLoss	True
86.327	0.25	Lose2	1.0	0.0	Yes	3.023	0.027	n/a	GoodResponse	0	n/a	n/a	3	8	Cue	AvoidedLoss	True
86.578	3.95	Lose2	1.0	0.0	Yes	3.023	0.001	n/a	GoodResponse	0	n/a	n/a	3	8	Fixation	AvoidedLoss	True
90.523	0.32	Lose2	1.0	0.004	Yes	3.023	-0.004	2.0	GoodResponse	0	0.196	89.719	3	8	Target	AvoidedLoss	True
90.719	0.3	Lose2	1.0	0.004	Yes	3.023	-0.004	2.0	GoodResponse	0	0.196	n/a	3	8	ButtonPress	AvoidedLoss	True
90.857	0.38	Lose2	1.0	n/a	Yes	3.023	n/a	n/a	GoodResponse	0	n/a	n/a	3	8	Blank	AvoidedLoss	True
91.225	1.45	Lose2	1.0	n/a	Yes	3.023	n/a	5.0	GoodResponse	0	0.018	90.243	3	8	Feedback	AvoidedLoss	True
92.679	3.023	Lose2	1.0	n/a	Yes	3.023	n/a	n/a	GoodResponse	0	0.0	n/a	3	8	ISIslide	AvoidedLoss	True
95.722	0.25	Lose2	1.0	0.0	Yes	3.128	0.022	n/a	GoodResponse	0	n/a	n/a	3	9	Cue	AvoidedLoss	True
95.972	3.95	Lose2	1.0	0.001	Yes	3.128	0.0	n/a	GoodResponse	0	n/a	n/a	3	9	Fixation	AvoidedLoss	True
99.918	0.31	Lose2	1.0	0.004	Yes	3.128	-0.004	2.0	GoodResponse	0	0.255	99.173	3	9	Target	AvoidedLoss	True
100.173	0.3	Lose2	1.0	0.004	Yes	3.128	-0.004	2.0	GoodResponse	0	0.255	n/a	3	9	ButtonPress	AvoidedLoss	True
100.235	0.39	Lose2	1.0	n/a	Yes	3.128	n/a	n/a	GoodResponse	0	n/a	n/a	3	9	Blank	AvoidedLoss	True
100.62	1.45	Lose2	1.0	n/a	Yes	3.128	n/a	5.0	GoodResponse	0	0.037	99.657	3	9	Feedback	AvoidedLoss	True
102.074	3.128	Lose2	1.0	n/a	Yes	3.128	n/a	n/a	GoodResponse	0	0.0	n/a	3	9	ISIslide	AvoidedLoss	True
105.217	0.25	Control	1.0	0.0	Yes	3.283	0.017	n/a	GoodResponse	0	n/a	n/a	3	10	Cue	Neutral	True
105.468	4.0	Control	1.0	0.0	Yes	3.283	0.001	n/a	GoodResponse	0	n/a	n/a	3	10	Fixation	Neutral	True
109.463	0.3	Control	1.0	0.004	Yes	3.283	-0.004	2.0	GoodResponse	0	0.203	108.666	3	10	Target	Neutral	True
109.666	0.3	Control	1.0	0.004	Yes	3.283	-0.004	2.0	GoodResponse	0	0.203	n/a	3	10	ButtonPress	Neutral	True
109.764	0.4	Control	1.0	n/a	Yes	3.283	n/a	n/a	GoodResponse	0	n/a	n/a	3	10	Blank	Neutral	True
110.165	1.45	Control	1.0	n/a	Yes	3.283	n/a	5.0	GoodResponse	0	0.004	109.169	3	10	Feedback	Neutral	True
111.619	3.283	Control	1.0	n/a	Yes	3.283	n/a	n/a	GoodResponse	0	0.0	n/a	3	10	ISIslide	Neutral	True
114.929	0.25	Lose2	1.0	0.0	Yes	2.721	0.029	n/a	GoodResponse	0	n/a	n/a	3	11	Cue	AvoidedLoss	True
115.18	4.05	Lose2	1.0	0.0	Yes	2.721	0.001	n/a	GoodResponse	0	n/a	n/a	3	11	Fixation	AvoidedLoss	True
119.225	0.29	Lose2	1.0	0.004	Yes	2.721	-0.004	2.0	GoodResponse	0	0.244	118.469	3	11	Target	AvoidedLoss	True
119.469	0.3	Lose2	1.0	0.004	Yes	2.721	-0.004	2.0	GoodResponse	0	0.244	n/a	3	11	ButtonPress	AvoidedLoss	True
119.526	0.41	Lose2	1.0	n/a	Yes	2.721	n/a	n/a	GoodResponse	0	n/a	n/a	3	11	Blank	AvoidedLoss	True
119.927	1.45	Lose2	1.0	n/a	Yes	2.721	n/a	5.0	GoodResponse	0	0.047	118.974	3	11	Feedback	AvoidedLoss	True
121.382	2.721	Lose2	1.0	n/a	Yes	2.721	n/a	n/a	GoodResponse	0	0.0	n/a	3	11	ISIslide	AvoidedLoss	True
124.123	0.25	Control	1.0	0.0	Yes	2.977	0.023	n/a	GoodResponse	0	n/a	n/a	3	12	Cue	Neutral	True
124.374	3.9	Control	1.0	0.0	Yes	2.977	0.001	n/a	GoodResponse	0	n/a	n/a	3	12	Fixation	Neutral	True
128.269	0.28	Control	1.0	0.004	Yes	2.977	-0.004	2.0	GoodResponse	0	0.258	127.527	3	12	Target	Neutral	True
128.527	0.3	Control	1.0	0.004	Yes	2.977	-0.004	2.0	GoodResponse	0	0.258	n/a	3	12	ButtonPress	Neutral	True
128.553	0.42	Control	1.0	n/a	Yes	2.977	n/a	n/a	GoodResponse	0	n/a	n/a	3	12	Blank	Neutral	True
128.971	1.45	Control	1.0	n/a	Yes	2.977	n/a	5.0	GoodResponse	0	0.027	127.998	3	12	Feedback	Neutral	True
130.425	2.977	Control	1.0	n/a	Yes	2.977	n/a	n/a	GoodResponse	0	0.0	n/a	3	12	ISIslide	Neutral	True
133.418	0.25	Control	1.0	0.0	Yes	2.782	0.018	n/a	GoodResponse	0	n/a	n/a	3	13	Cue	Neutral	True
133.669	4.0	Control	1.0	0.0	Yes	2.782	0.001	n/a	GoodResponse	0	n/a	n/a	3	13	Fixation	Neutral	True
137.664	0.27	Control	1.0	0.004	Yes	2.782	-0.004	2.0	GoodResponse	0	0.162	136.826	3	13	Target	Neutral	True
137.826	0.3	Control	1.0	0.004	Yes	2.782	-0.004	2.0	GoodResponse	0	0.162	n/a	3	13	ButtonPress	Neutral	True
137.948	0.43	Control	1.0	n/a	Yes	2.782	n/a	n/a	GoodResponse	0	n/a	n/a	3	13	Blank	Neutral	True
138.366	1.45	Control	1.0	n/a	Yes	2.782	n/a	5.0	GoodResponse	0	0.047	137.413	3	13	Feedback	Neutral	True
139.82	2.782	Control	1.0	n/a	Yes	2.782	n/a	n/a	GoodResponse	0	0.0	n/a	3	13	ISIslide	Neutral	True
142.629	0.25	Win2	0.9333	0.0	No	2.671	0.029	n/a	NoResponse	0	n/a	n/a	3	14	Cue	MissedWin	True
142.879	4.1	Win2	0.9333	0.0	No	2.671	0.0	2.0	NoResponse	0	3.279	145.158	3	14	Fixation	MissedWin	True
146.158	0.3	Win2	0.9333	0.0	No	2.671	0.0	2.0	NoResponse	0	3.279	n/a	3	14	ButtonPress	MissedWin	True
146.975	0.26	Win2	0.9333	0.004	No	2.671	-0.004	n/a	NoResponse	0	n/a	n/a	3	14	Target	MissedWin	True
147.242	0.44	Win2	0.9333	n/a	No	2.671	n/a	n/a	NoResponse	0	n/a	n/a	3	14	Blank	MissedWin	True
147.677	1.45	Win2	0.9333	n/a	No	2.671	n/a	5.0	NoResponse	0	0.004	146.681	3	14	Feedback	MissedWin	True
149.131	2.671	Win2	0.9333	n/a	No	2.671	n/a	n/a	NoResponse	0	0.0	n/a	3	14	ISIslide	MissedWin	True
151.823	0.25	Control	0.875	0.0	No	2.977	0.023	n/a	NoResponse	0	n/a	n/a	3	15	Cue	Neutral	True
152.074	4.0	Control	0.875	0.0	No	2.977	0.001	n/a	NoResponse	0	n/a	n/a	3	15	Fixation	Neutral	True
156.069	0.25	Control	0.875	0.004	No	2.977	-0.004	2.0	NoResponse	0	0.263	155.332	3	15	Target	Neutral	True
156.32	0.45	Control	0.875	n/a	No	2.977	n/a	n/a	NoResponse	0	n/a	n/a	3	15	Blank	Neutral	True
156.332	0.3	Control	0.875	0.004	No	2.977	-0.004	2.0	NoResponse	0	0.263	n/a	3	15	ButtonPress	Neutral	True
156.771	1.45	Control	0.875	n/a	No	2.977	n/a	5.0	NoResponse	0	0.031	155.802	3	15	Feedback	Neutral	True
158.225	2.977	Control	0.875	n/a	No	2.977	n/a	n/a	NoResponse	0	0.0	n/a	3	15	ISIslide	Neutral	True
161.218	0.25	Win2	0.8824	0.0	Yes	2.882	0.018	n/a	GoodResponse	1	n/a	n/a	4	16	Cue	Win	True
161.468	4.0	Win2	0.8824	0.0	Yes	2.882	0.0	n/a	GoodResponse	1	n/a	n/a	4	16	Fixation	Win	True
165.464	0.24	Win2	0.8824	0.004	Yes	2.882	-0.004	2.0	GoodResponse	1	0.196	164.66	4	16	Target	Win	True
165.66	0.3	Win2	0.8824	0.004	Yes	2.882	-0.004	2.0	GoodResponse	1	0.196	n/a	4	16	ButtonPress	Win	True
165.714	0.46	Win2	0.8824	n/a	Yes	2.882	n/a	n/a	GoodResponse	1	n/a	n/a	4	16	Blank	Win	True
166.166	1.45	Win2	0.8824	n/a	Yes	2.882	n/a	5.0	GoodResponse	1	0.002	165.168	4	16	Feedback	Win	True
167.62	2.882	Win2	0.8824	n/a	Yes	2.882	n/a	n/a	GoodResponse	1	0.0	n/a	4	16	ISIslide	Win	True
170.529	0.25	Lose2	0.8889	0.0	Yes	2.721	0.029	n/a	GoodResponse	0	n/a	n/a	4	17	Cue	AvoidedLoss	True
170.779	3.95	Lose2	0.8889	0.001	Yes	2.721	0.0	n/a	GoodResponse	0	n/a	n/a	4	17	Fixation	AvoidedLoss	True
174.725	0.23	Lose2	0.8889	0.004	Yes	2.721	-0.004	2.0	GoodResponse	0	0.198	173.923	4	17	Target	AvoidedLoss	True
174.923	0.3	Lose2	0.8889	0.004	Yes	2.721	-0.004	2.0	GoodResponse	0	0.198	n/a	4	17	ButtonPress	AvoidedLoss	True
174.959	0.47	Lose2	0.8889	n/a	Yes	2.721	n/a	n/a	GoodResponse	0	n/a	n/a	4	17	Blank	AvoidedLoss	True
175.427	1.45	Lose2	0.8889	n/a	Yes	2.721	n/a	5.0	GoodResponse	0	0.01	174.437	4	17	Feedback	AvoidedLoss	True
176.881	2.721	Lose2	0.8889	n/a	Yes	2.721	n/a	n/a	GoodResponse	0	0.0	n/a	4	17	ISIslide	AvoidedLoss	True
179.623	0.25	Lose2	0.8946999999999999	0.0	Yes	2.727	0.023	n/a	GoodResponse	0	n/a	n/a	4	18	Cue	AvoidedLoss	True
179.873	4.05	Lose2	0.8946999999999999	0.0	Yes	2.727	0.0	n/a	GoodResponse	0	n/a	n/a	4	18	Fixation	AvoidedLoss	True
183.919	0.22	Lose2	0.8946999999999999	0.004	Yes	2.727	-0.004	2.0	GoodResponse	0	0.205	183.124	4	18	Target	AvoidedLoss	True
184.124	0.3	Lose2	0.8946999999999999	0.004	Yes	2.727	-0.004	2.0	GoodResponse	0	0.205	n/a	4	18	ButtonPress	AvoidedLoss	True
184.153	0.48	Lose2	0.8946999999999999	n/a	Yes	2.727	n/a	n/a	GoodResponse	0	n/a	n/a	4	18	Blank	AvoidedLoss	True
184.621	1.45	Lose2	0.8946999999999999	n/a	Yes	2.727	n/a	5.0	GoodResponse	0	0.035	183.656	4	18	Feedback	AvoidedLoss	True
186.075	2.727	Lose2	0.8946999999999999	n/a	Yes	2.727	n/a	n/a	GoodResponse	0	0.0	n/a	4	18	ISIslide	AvoidedLoss	True
188.817	0.25	Control	0.9	0.0	Yes	2.933	0.017	n/a	GoodResponse	0	n/a	n/a	4	19	Cue	Neutral	True
189.068	3.95	Control	0.9	0.0	Yes	2.933	0.001	n/a	GoodResponse	0	n/a	n/a	4	19	Fixation	Neutral	True
193.013	0.21	Control	0.9	0.004	Yes	2.933	-0.004	2.0	GoodResponse	0	0.166	192.179	4	19	Target	Neutral	True
193.179	0.3	Control	0.9	0.004	Yes	2.933	-0.004	2.0	GoodResponse	0	0.166	n/a	4	19	ButtonPress	Neutral	True
193.23	0.49	Control	0.9	n/a	Yes	2.933	n/a	n/a	GoodResponse	0	n/a	n/a	4	19	Blank	Neutral	True
193.715	1.45	Control	0.9	n/a	Yes	2.933	n/a	5.0	GoodResponse	0	0.014	192.729	4	19	Feedback	Neutral	True
195.169	2.933	Control	0.9	n/a	Yes	2.933	n/a	n/a	GoodResponse	0	0.0	n/a	4	19	ISIslide	Neutral	True
198.128	0.25	Control	0.9048	0.0	Yes	2.622	0.028	n/a	GoodResponse	0	n/a	n/a	4	20	Cue	Neutral	True
198.379	4.05	Control	0.9048	0.0	Yes	2.622	0.001	n/a	GoodResponse	0	n/a	n/a	4	20	Fixation	Neutral	True
202.424	0.2	Control	0.9048	0.004	Yes	2.622	-0.004	2.0	GoodResponse	0	0.184	201.608	4	20	Target	Neutral	True
202.608	0.3	Control	0.9048	0.004	Yes	2.622	-0.004	2.0	GoodResponse	0	0.184	n/a	4	20	ButtonPress	Neutral	True
202.625	0.5	Control	0.9048	n/a	Yes	2.622	n/a	n/a	GoodResponse	0	n/a	n/a	4	20	Blank	Neutral	True
203.126	1.45	Control	0.9048	n/a	Yes	2.622	n/a	5.0	GoodResponse	0	0.017	202.143	4	20	Feedback	Neutral	True
204.581	2.622	Control	0.9048	n/a	Yes	2.622	n/a	n/a	GoodResponse	0	0.0	n/a	4	20	ISIslide	Neutral	True
207.222	0.25	Control	0.8636	0.0	No	2.778	0.022	n/a	LatePress	0	n/a	n/a	4	21	Cue	Neutral	True
207.473	4.1	Control	0.8636	0.0	No	2.778	0.001	n/a	LatePress	0	n/a	n/a	4	21	Fixation	Neutral	True
211.568	0.19	Control	0.8636	0.004	No	2.778	-0.004	2.0	LatePress	0	0.194	210.762	4	21	Target	Neutral	True
211.762	0.3	Control	0.8636	0.004	No	2.778	-0.004	2.0	LatePress	0	0.194	n/a	4	21	ButtonPress	Neutral	True
211.769	0.51	Control	0.8636	n/a	No	2.778	n/a	n/a	LatePress	0	n/a	n/a	4	21	Blank	Neutral	True
212.27	1.45	Control	0.8636	n/a	No	2.778	n/a	5.0	LatePress	0	0.044	211.314	4	21	Feedback	Neutral	True
213.725	2.778	Control	0.8636	n/a	No	2.778	n/a	n/a	LatePress	0	0.0	n/a	4	21	ISIslide	Neutral	True
216.516	0.25	Control	0.8261	0.0	No	2.784	0.016	n/a	NoResponse	0	n/a	n/a	4	22	Cue	Neutral	True
216.767	4.0	Control	0.8261	0.0	No	2.784	0.001	n/a	NoResponse	0	n/a	n/a	4	22	Fixation	Neutral	True
220.762	0.18	Control	0.8261	0.004	No	2.784	-0.004	2.0	NoResponse	0	0.202	219.964	4	22	Target	Neutral	True
220.946	0.52	Control	0.8261	n/a	No	2.784	n/a	n/a	NoResponse	0	n/a	n/a	4	22	Blank	Neutral	True
220.964	0.3	Control	0.8261	0.004	No	2.784	-0.004	2.0	NoResponse	0	0.202	n/a	4	22	ButtonPress	Neutral	True
221.464	1.45	Control	0.8261	n/a	No	2.784	n/a	5.0	NoResponse	0	0.021	220.485	4	22	Feedback	Neutral	True
222.919	2.784	Control	0.8261	n/a	No	2.784	n/a	n/a	NoResponse	0	0.0	n/a	4	22	ISIslide	Neutral	True
225.727	0.25	Control	0.7917000000000001	0.0	No	2.773	0.027	n/a	NoResponse	0	n/a	n/a	4	23	Cue	Neutral	True
225.978	3.9	Control	0.7917000000000001	0.0	No	2.773	0.001	n/a	NoResponse	0	n/a	n/a	4	23	Fixation	Neutral	True
229.873	0.17	Control	0.7917000000000001	0.004	No	2.773	-0.004	2.0	NoResponse	0	0.234	229.107	4	23	Target	Neutral	True
230.057	0.53	Control	0.7917000000000001	n/a	No	2.773	n/a	n/a	NoResponse	0	n/a	n/a	4	23	Blank	Neutral	True
230.107	0.3	Control	0.7917000000000001	0.004	No	2.773	-0.004	2.0	NoResponse	0	0.234	n/a	4	23	ButtonPress	Neutral	True
230.575	1.45	Control	0.7917000000000001	n/a	No	2.773	n/a	5.0	NoResponse	0	0.032	229.607	4	23	Feedback	Neutral	True
232.029	2.773	Control	0.7917000000000001	n/a	No	2.773	n/a	n/a	NoResponse	0	0.0	n/a	4	23	ISIslide	Neutral	True
234.821	0.25	Win2	0.76	0.0	No	3.129	0.021	n/a	NoResponse	0	n/a	n/a	4	24	Cue	MissedWin	True
235.072	3.95	Win2	0.76	0.0	No	3.129	0.001	2.0	NoResponse	0	3.908	237.98	4	24	Fixation	MissedWin	True
238.98	0.3	Win2	0.76	0.0	No	3.129	0.001	2.0	NoResponse	0	3.908	n/a	4	24	ButtonPress	MissedWin	True
239.017	0.16	Win2	0.76	0.004	No	3.129	-0.004	n/a	NoResponse	0	n/a	n/a	4	24	Target	MissedWin	True
239.184	0.54	Win2	0.76	n/a	No	3.129	n/a	n/a	NoResponse	0	n/a	n/a	4	24	Blank	MissedWin	True
239.719	1.45	Win2	0.76	n/a	No	3.129	n/a	5.0	NoResponse	0	0.009	238.728	4	24	Feedback	MissedWin	True
241.173	3.129	Win2	0.76	n/a	No	3.129	n/a	n/a	NoResponse	0	0.0	n/a	4	24	ISIslide	MissedWin	True
244.316	0.25	Win2	0.7308	0.0	No	3.084	0.016	n/a	NoResponse	0	n/a	n/a	4	25	Cue	MissedWin	True
244.567	4.0	Win2	0.7308	0.0	No	3.084	0.001	n/a	NoResponse	0	n/a	n/a	4	25	Fixation	MissedWin	True
248.562	0.15	Win2	0.7308	0.004	No	3.084	-0.004	2.0	NoResponse	0	0.197	247.759	4	25	Target	MissedWin	True
248.713	0.55	Win2	0.7308	n/a	No	3.084	n/a	n/a	NoResponse	0	n/a	n/a	4	25	Blank	MissedWin	True
248.759	0.3	Win2	0.7308	0.004	No	3.084	-0.004	2.0	NoResponse	0	0.197	n/a	4	25	ButtonPress	MissedWin	True
249.264	1.45	Win2	0.7308	n/a	No	3.084	n/a	5.0	NoResponse	0	0.025	248.289	4	25	Feedback	MissedWin	True
250.719	3.084	Win2	0.7308	n/a	No	3.084	n/a	n/a	NoResponse	0	0.0	n/a	4	25	ISIslide	MissedWin	True
253.828	0.25	Win2	0.7037	0.0	No	2.922	0.028	n/a	NoResponse	0	n/a	n/a	4	26	Cue	MissedWin	True
254.079	3.95	Win2	0.7037	0.0	No	2.922	0.001	n/a	NoResponse	0	n/a	n/a	4	26	Fixation	MissedWin	True
258.024	0.15	Win2	0.7037	0.004	No	2.922	-0.004	2.0	NoResponse	0	0.204	257.228	4	26	Target	MissedWin	True
258.174	0.55	Win2	0.7037	n/a	No	2.922	n/a	n/a	NoResponse	0	n/a	n/a	4	26	Blank	MissedWin	True
258.228	0.3	Win2	0.7037	0.004	No	2.922	-0.004	2.0	NoResponse	0	0.204	n/a	4	26	ButtonPress	MissedWin	True
258.726	1.45	Win2	0.7037	n/a	No	2.922	n/a	5.0	NoResponse	0	0.027	257.753	4	26	Feedback	MissedWin	True
260.18	2.922	Win2	0.7037	n/a	No	2.922	n/a	n/a	NoResponse	0	0.0	n/a	4	26	ISIslide	MissedWin	True
263.122	0.25	Lose2	0.6786	0.0	No	2.828	0.022	n/a	NoResponse	-1	n/a	n/a	3	27	Cue	Loss	True
263.373	4.05	Lose2	0.6786	0.0	No	2.828	0.001	n/a	NoResponse	-1	n/a	n/a	3	27	Fixation	Loss	True
267.418	0.15	Lose2	0.6786	0.004	No	2.828	-0.004	2.0	NoResponse	-1	0.21	266.628	3	27	Target	Loss	True
267.569	0.55	Lose2	0.6786	n/a	No	2.828	n/a	n/a	NoResponse	-1	n/a	n/a	3	27	Blank	Loss	True
267.628	0.3	Lose2	0.6786	0.004	No	2.828	-0.004	2.0	NoResponse	-1	0.21	n/a	3	27	ButtonPress	Loss	True
268.121	1.45	Lose2	0.6786	n/a	No	2.828	n/a	5.0	NoResponse	-1	0.046	267.167	3	27	Feedback	Loss	True
269.575	2.828	Lose2	0.6786	n/a	No	2.828	n/a	n/a	NoResponse	-1	0.0	n/a	3	27	ISIslide	Loss	True
272.417	0.25	Control	0.6552	0.0	No	2.833	0.017	n/a	NoResponse	0	n/a	n/a	3	28	Cue	Neutral	True
272.667	4.05	Control	0.6552	0.001	No	2.833	0.0	2.0	NoResponse	0	3.18	274.847	3	28	Fixation	Neutral	True
275.847	0.3	Control	0.6552	0.001	No	2.833	0.0	2.0	NoResponse	0	3.18	n/a	3	28	ButtonPress	Neutral	True
276.713	0.15	Control	0.6552	0.004	No	2.833	-0.004	n/a	NoResponse	0	n/a	n/a	3	28	Target	Neutral	True
276.863	0.55	Control	0.6552	n/a	No	2.833	n/a	n/a	NoResponse	0	n/a	n/a	3	28	Blank	Neutral	True
277.415	1.45	Control	0.6552	n/a	No	2.833	n/a	5.0	NoResponse	0	0.021	276.436	3	28	Feedback	Neutral	True
278.869	2.833	Control	0.6552	n/a	No	2.833	n/a	n/a	NoResponse	0	0.0	n/a	3	28	ISIslide	Neutral	True
281.728	0.25	Lose2	0.6333	0.0	No	2.822	0.028	n/a	NoResponse	-1	n/a	n/a	2	29	Cue	Loss	True
281.979	3.95	Lose2	0.6333	0.0	No	2.822	0.001	n/a	NoResponse	-1	n/a	n/a	2	29	Fixation	Loss	True
285.924	0.15	Lose2	0.6333	0.004	No	2.822	-0.004	2.0	NoResponse	-1	0.166	285.09	2	29	Target	Loss	True
286.074	0.55	Lose2	0.6333	n/a	No	2.822	n/a	n/a	NoResponse	-1	n/a	n/a	2	29	Blank	Loss	True
286.09	0.3	Lose2	0.6333	0.004	No	2.822	-0.004	2.0	NoResponse	-1	0.166	n/a	2	29	ButtonPress	Loss	True
286.626	1.45	Lose2	0.6333	n/a	No	2.822	n/a	5.0	NoResponse	-1	0.029	285.655	2	29	Feedback	Loss	True
288.08	2.822	Lose2	0.6333	n/a	No	2.822	n/a	n/a	NoResponse	-1	0.0	n/a	2	29	ISIslide	Loss	True
290.922	0.25	Win2	0.6129	0.0	No	2.778	0.022	n/a	NoResponse	0	n/a	n/a	2	30	Cue	MissedWin	True
291.173	3.9	Win2	0.6129	0.0	No	2.778	0.001	n/a	NoResponse	0	n/a	n/a	2	30	Fixation	MissedWin	True
295.068	0.16	Win2	0.6129	0.004	No	2.778	-0.004	2.0	NoResponse	0	0.177	294.245	2	30	Target	MissedWin	True
295.235	0.54	Win2	0.6129	n/a	No	2.778	n/a	n/a	NoResponse	0	n/a	n/a	2	30	Blank	MissedWin	True
295.245	0.3	Win2	0.6129	0.004	No	2.778	-0.004	2.0	NoResponse	0	0.177	n/a	2	30	ButtonPress	MissedWin	True
295.77	1.45	Win2	0.6129	n/a	No	2.778	n/a	5.0	NoResponse	0	0.007	294.777	2	30	Feedback	MissedWin	True
297.224	2.778	Win2	0.6129	n/a	No	2.778	n/a	n/a	NoResponse	0	0.0	n/a	2	30	ISIslide	MissedWin	True
300.016	0.25	Lose2	0.625	0.0	Yes	2.834	0.016	n/a	GoodResponse	0	n/a	n/a	2	31	Cue	AvoidedLoss	False
300.267	4.05	Lose2	0.625	0.0	Yes	2.834	0.001	2.0	GoodResponse	0	3.632	302.899	2	31	Fixation	AvoidedLoss	False
303.899	0.3	Lose2	0.625	0.0	Yes	2.834	0.001	2.0	GoodResponse	0	3.632	n/a	2	31	ButtonPress	AvoidedLoss	False
304.312	0.17	Lose2	0.625	0.004	Yes	2.834	-0.004	2.0	GoodResponse	0	0.13	303.442	2	31	Target	AvoidedLoss	False
304.442	0.3	Lose2	0.625	0.004	Yes	2.834	-0.004	2.0	GoodResponse	0	0.13	n/a	2	31	ButtonPress	AvoidedLoss	False
304.496	0.53	Lose2	0.625	n/a	Yes	2.834	n/a	n/a	GoodResponse	0	n/a	n/a	2	31	Blank	AvoidedLoss	False
305.014	1.45	Lose2	0.625	n/a	Yes	2.834	n/a	5.0	GoodResponse	0	0.031	304.045	2	31	Feedback	AvoidedLoss	False
306.469	2.834	Lose2	0.625	n/a	Yes	2.834	n/a	n/a	GoodResponse	0	0.0	n/a	2	31	ISIslide	AvoidedLoss	False
309.327	0.25	Lose2	0.6061	0.0	No	2.623	0.027	n/a	NoResponse	-1	n/a	n/a	1	32	Cue	Loss	True
309.578	4.15	Lose2	0.6061	0.0	No	2.623	0.001	2.0	NoResponse	-1	4.069	312.647	1	32	Fixation	Loss	True
313.647	0.3	Lose2	0.6061	0.0	No	2.623	0.001	2.0	NoResponse	-1	4.069	n/a	1	32	ButtonPress	Loss	True
313.724	0.18	Lose2	0.6061	0.003	No	2.623	-0.003	n/a	NoResponse	-1	n/a	n/a	1	32	Target	Loss	True
313.907	0.52	Lose2	0.6061	n/a	No	2.623	n/a	n/a	NoResponse	-1	n/a	n/a	1	32	Blank	Loss	True
314.426	1.45	Lose2	0.6061	n/a	No	2.623	n/a	5.0	NoResponse	-1	0.034	313.46	1	32	Feedback	Loss	True
315.88	2.623	Lose2	0.6061	n/a	No	2.623	n/a	n/a	NoResponse	-1	0.0	n/a	1	32	ISIslide	Loss	True
318.521	0.25	Win2	0.5882000000000001	0.0	No	2.679	0.021	n/a	NoResponse	0	n/a	n/a	1	33	Cue	MissedWin	True
318.772	4.0	Win2	0.5882000000000001	0.0	No	2.679	0.001	n/a	NoResponse	0	n/a	n/a	1	33	Fixation	MissedWin	True
322.767	0.19	Win2	0.5882000000000001	0.004	No	2.679	-0.004	2.0	NoResponse	0	0.22	321.987	1	33	Target	MissedWin	True
322.968	0.51	Win2	0.5882000000000001	n/a	No	2.679	n/a	n/a	NoResponse	0	n/a	n/a	1	33	Blank	MissedWin	True
322.987	0.3	Win2	0.5882000000000001	0.004	No	2.679	-0.004	2.0	NoResponse	0	0.22	n/a	1	33	ButtonPress	MissedWin	True
323.469	1.45	Win2	0.5882000000000001	n/a	No	2.679	n/a	5.0	NoResponse	0	0.014	322.483	1	33	Feedback	MissedWin	True
324.924	2.679	Win2	0.5882000000000001	n/a	No	2.679	n/a	n/a	NoResponse	0	0.0	n/a	1	33	ISIslide	MissedWin	True
327.615	0.25	Lose2	0.5714	0.0	No	2.635	0.015	n/a	LatePress	-1	n/a	n/a	0	34	Cue	Loss	False
327.866	4.05	Lose2	0.5714	0.0	No	2.635	0.001	2.0	LatePress	-1	3.609	330.475	0	34	Fixation	Loss	False
331.475	0.3	Lose2	0.5714	0.0	No	2.635	0.001	2.0	LatePress	-1	3.609	n/a	0	34	ButtonPress	Loss	False
331.911	0.2	Lose2	0.5714	0.004	No	2.635	-0.004	2.0	LatePress	-1	0.201	331.112	0	34	Target	Loss	False
332.112	0.5	Lose2	0.5714	n/a	No	2.635	n/a	n/a	LatePress	-1	n/a	n/a	0	34	Blank	Loss	False
332.112	0.3	Lose2	0.5714	0.004	No	2.635	-0.004	2.0	LatePress	-1	0.201	n/a	0	34	ButtonPress	Loss	False
332.613	1.45	Lose2	0.5714	n/a	No	2.635	n/a	5.0	LatePress	-1	0.041	331.654	0	34	Feedback	Loss	False
334.068	2.635	Lose2	0.5714	n/a	No	2.635	n/a	n/a	LatePress	-1	0.0	n/a	0	34	ISIslide	Loss	False
336.726	0.25	Lose2	0.5832999999999999	0.0	Yes	2.674	0.026	n/a	GoodResponse	0	n/a	n/a	0	35	Cue	AvoidedLoss	True
336.976	4.0	Lose2	0.5832999999999999	0.0	Yes	2.674	0.0	n/a	GoodResponse	0	n/a	n/a	0	35	Fixation	AvoidedLoss	True
340.972	0.21	Lose2	0.5832999999999999	0.004	Yes	2.674	-0.004	2.0	GoodResponse	0	0.171	340.143	0	35	Target	AvoidedLoss	True
341.143	0.3	Lose2	0.5832999999999999	0.004	Yes	2.674	-0.004	2.0	GoodResponse	0	0.171	n/a	0	35	ButtonPress	AvoidedLoss	True
341.189	0.49	Lose2	0.5832999999999999	n/a	Yes	2.674	n/a	n/a	GoodResponse	0	n/a	n/a	0	35	Blank	AvoidedLoss	True
341.674	1.45	Lose2	0.5832999999999999	n/a	Yes	2.674	n/a	5.0	GoodResponse	0	0.005	340.679	0	35	Feedback	AvoidedLoss	True
343.128	2.674	Lose2	0.5832999999999999	n/a	Yes	2.674	n/a	n/a	GoodResponse	0	0.0	n/a	0	35	ISIslide	AvoidedLoss	True
345.819	0.25	Control	0.5676	0.001	No	2.681	0.019	n/a	NoResponse	0	n/a	n/a	0	36	Cue	Neutral	True
346.07	4.0	Control	0.5676	0.0	No	2.681	0.001	2.0	NoResponse	0	3.418	348.488	0	36	Fixation	Neutral	True
349.488	0.3	Control	0.5676	0.0	No	2.681	0.001	2.0	NoResponse	0	3.418	n/a	0	36	ButtonPress	Neutral	True
350.066	0.22	Control	0.5676	0.003	No	2.681	-0.003	n/a	NoResponse	0	n/a	n/a	0	36	Target	Neutral	True
350.3	0.48	Control	0.5676	n/a	No	2.681	n/a	n/a	NoResponse	0	n/a	n/a	0	36	Blank	Neutral	True
350.768	1.45	Control	0.5676	n/a	No	2.681	n/a	5.0	NoResponse	0	0.033	349.801	0	36	Feedback	Neutral	True
352.222	2.681	Control	0.5676	n/a	No	2.681	n/a	n/a	NoResponse	0	0.0	n/a	0	36	ISIslide	Neutral	True
354.913	0.25	Win2	0.5526	0.0	No	2.887	0.013	n/a	NoResponse	0	n/a	n/a	0	37	Cue	MissedWin	False
355.164	4.0	Win2	0.5526	0.0	No	2.887	0.001	2.0	NoResponse	0	3.685	357.849	0	37	Fixation	MissedWin	False
358.849	0.3	Win2	0.5526	0.0	No	2.887	0.001	2.0	NoResponse	0	3.685	n/a	0	37	ButtonPress	MissedWin	False
359.159	0.23	Win2	0.5526	0.004	No	2.887	-0.004	2.0	NoResponse	0	0.295	358.454	0	37	Target	MissedWin	False
359.393	0.47	Win2	0.5526	n/a	No	2.887	n/a	n/a	NoResponse	0	n/a	n/a	0	37	Blank	MissedWin	False
359.454	0.3	Win2	0.5526	0.004	No	2.887	-0.004	2.0	NoResponse	0	0.295	n/a	0	37	ButtonPress	MissedWin	False
359.861	1.45	Win2	0.5526	n/a	No	2.887	n/a	5.0	NoResponse	0	0.013	358.874	0	37	Feedback	MissedWin	False
361.316	2.887	Win2	0.5526	n/a	No	2.887	n/a	n/a	NoResponse	0	0.0	n/a	0	37	ISIslide	MissedWin	False
364.225	0.25	Lose2	0.5640999999999999	0.0	Yes	2.825	0.025	n/a	GoodResponse	0	n/a	n/a	0	38	Cue	AvoidedLoss	True
364.475	3.95	Lose2	0.5640999999999999	0.0	Yes	2.825	0.0	n/a	GoodResponse	0	n/a	n/a	0	38	Fixation	AvoidedLoss	True
368.437	0.24	Lose2	0.5640999999999999	0.0	Yes	2.825	0.012	2.0	GoodResponse	0	0.187	367.624	0	38	Target	AvoidedLoss	True
368.624	0.3	Lose2	0.5640999999999999	0.0	Yes	2.825	0.012	2.0	GoodResponse	0	0.187	n/a	0	38	ButtonPress	AvoidedLoss	True
368.671	0.46	Lose2	0.5640999999999999	n/a	Yes	2.825	n/a	n/a	GoodResponse	0	n/a	n/a	0	38	Blank	AvoidedLoss	True
369.123	1.45	Lose2	0.5640999999999999	n/a	Yes	2.825	n/a	5.0	GoodResponse	0	0.018	368.141	0	38	Feedback	AvoidedLoss	True
370.577	2.825	Lose2	0.5640999999999999	n/a	Yes	2.825	n/a	n/a	GoodResponse	0	0.0	n/a	0	38	ISIslide	AvoidedLoss	True
373.419	0.25	Win2	0.55	0.0	No	2.981	0.019	n/a	PrematurePress	0	n/a	n/a	0	39	Cue	MissedWin	True
373.669	4.1	Win2	0.55	0.001	No	2.981	0.0	n/a	PrematurePress	0	n/a	n/a	0	39	Fixation	MissedWin	True
377.765	0.25	Win2	0.55	0.004	No	2.981	-0.004	2.0	PrematurePress	0	0.071	376.836	0	39	Target	MissedWin	True
377.836	0.3	Win2	0.55	0.004	No	2.981	-0.004	2.0	PrematurePress	0	0.071	n/a	0	39	ButtonPress	MissedWin	True
378.016	0.45	Win2	0.55	n/a	No	2.981	n/a	n/a	PrematurePress	0	n/a	n/a	0	39	Blank	MissedWin	True
378.467	1.45	Win2	0.55	n/a	No	2.981	n/a	5.0	PrematurePress	0	0.04	377.507	0	39	Feedback	MissedWin	True
379.921	2.981	Win2	0.55	n/a	No	2.981	n/a	n/a	PrematurePress	0	0.0	n/a	0	39	ISIslide	MissedWin	True
382.914	0.25	Win2	0.5366	0.0	No	2.736	0.014	n/a	NoResponse	0	n/a	n/a	0	40	Cue	MissedWin	True
383.165	3.95	Win2	0.5366	0.0	No	2.736	0.001	n/a	NoResponse	0	n/a	n/a	0	40	Fixation	MissedWin	True
387.11	0.26	Win2	0.5366	0.004	No	2.736	-0.004	2.0	NoResponse	0	0.327	386.437	0	40	Target	MissedWin	True
387.377	0.44	Win2	0.5366	n/a	No	2.736	n/a	n/a	NoResponse	0	n/a	n/a	0	40	Blank	MissedWin	True
387.437	0.3	Win2	0.5366	0.004	No	2.736	-0.004	2.0	NoResponse	0	0.327	n/a	0	40	ButtonPress	MissedWin	True
387.812	1.45	Win2	0.5366	n/a	No	2.736	n/a	5.0	NoResponse	0	0.012	386.824	0	40	Feedback	MissedWin	True
389.266	2.736	Win2	0.5366	n/a	No	2.736	n/a	n/a	NoResponse	0	0.0	n/a	0	40	ISIslide	MissedWin	True
392.024	0.25	Win2	0.5238	0.0	No	2.776	0.024	n/a	NoResponse	0	n/a	n/a	0	41	Cue	MissedWin	True
392.275	3.9	Win2	0.5238	0.0	No	2.776	0.001	2.0	NoResponse	0	3.767	395.042	0	41	Fixation	MissedWin	True
396.042	0.3	Win2	0.5238	0.0	No	2.776	0.001	2.0	NoResponse	0	3.767	n/a	0	41	ButtonPress	MissedWin	True
396.17	0.27	Win2	0.5238	0.004	No	2.776	-0.004	n/a	NoResponse	0	n/a	n/a	0	41	Target	MissedWin	True
396.454	0.43	Win2	0.5238	n/a	No	2.776	n/a	n/a	NoResponse	0	n/a	n/a	0	41	Blank	MissedWin	True
396.872	1.45	Win2	0.5238	n/a	No	2.776	n/a	5.0	NoResponse	0	0.026	395.898	0	41	Feedback	MissedWin	True
398.326	2.776	Win2	0.5238	n/a	No	2.776	n/a	n/a	NoResponse	0	0.0	n/a	0	41	ISIslide	MissedWin	True
401.118	0.25	Control	0.5115999999999999	0.0	No	2.932	0.018	n/a	NoResponse	0	n/a	n/a	0	42	Cue	Neutral	True
401.369	3.85	Control	0.5115999999999999	0.0	No	2.932	0.001	n/a	NoResponse	0	n/a	n/a	0	42	Fixation	Neutral	True
405.214	0.28	Control	0.5115999999999999	0.004	No	2.932	-0.004	2.0	NoResponse	0	0.355	404.569	0	42	Target	Neutral	True
405.498	0.42	Control	0.5115999999999999	n/a	No	2.932	n/a	n/a	NoResponse	0	n/a	n/a	0	42	Blank	Neutral	True
405.569	0.3	Control	0.5115999999999999	0.004	No	2.932	-0.004	2.0	NoResponse	0	0.355	n/a	0	42	ButtonPress	Neutral	True
405.916	1.45	Control	0.5115999999999999	n/a	No	2.932	n/a	5.0	NoResponse	0	0.006	404.922	0	42	Feedback	Neutral	True
407.37	2.932	Control	0.5115999999999999	n/a	No	2.932	n/a	n/a	NoResponse	0	0.0	n/a	0	42	ISIslide	Neutral	True
410.329	0.25	Win2	0.5	0.0	No	3.171	0.029	n/a	PrematurePress	0	n/a	n/a	0	43	Cue	MissedWin	False
410.58	4.0	Win2	0.5	0.0	No	3.171	0.001	2.0	PrematurePress	0	3.493	413.073	0	43	Fixation	MissedWin	False
414.073	0.3	Win2	0.5	0.0	No	3.171	0.001	2.0	PrematurePress	0	3.493	n/a	0	43	ButtonPress	MissedWin	False
414.575	0.29	Win2	0.5	0.004	No	3.171	-0.004	2.0	PrematurePress	0	0.003	413.578	0	43	Target	MissedWin	False
414.578	0.3	Win2	0.5	0.004	No	3.171	-0.004	2.0	PrematurePress	0	0.003	n/a	0	43	ButtonPress	MissedWin	False
414.876	0.41	Win2	0.5	n/a	No	3.171	n/a	n/a	PrematurePress	0	n/a	n/a	0	43	Blank	MissedWin	False
415.277	1.45	Win2	0.5	n/a	No	3.171	n/a	5.0	PrematurePress	0	0.01	414.287	0	43	Feedback	MissedWin	False
416.732	3.171	Win2	0.5	n/a	No	3.171	n/a	n/a	PrematurePress	0	0.0	n/a	0	43	ISIslide	MissedWin	False
419.924	0.25	Win2	0.5111	0.001	Yes	2.976	0.024	n/a	GoodResponse	1	n/a	n/a	1	44	Cue	Win	True
420.175	4.0	Win2	0.5111	0.0	Yes	2.976	0.001	n/a	GoodResponse	1	n/a	n/a	1	44	Fixation	Win	True
424.17	0.3	Win2	0.5111	0.004	Yes	2.976	-0.004	2.0	GoodResponse	1	0.182	423.352	1	44	Target	Win	True
424.352	0.3	Win2	0.5111	0.004	Yes	2.976	-0.004	2.0	GoodResponse	1	0.182	n/a	1	44	ButtonPress	Win	True
424.471	0.4	Win2	0.5111	n/a	Yes	2.976	n/a	n/a	GoodResponse	1	n/a	n/a	1	44	Blank	Win	True
424.873	1.45	Win2	0.5111	n/a	Yes	2.976	n/a	5.0	GoodResponse	1	0.024	423.897	1	44	Feedback	Win	True
426.327	2.976	Win2	0.5111	n/a	Yes	2.976	n/a	n/a	GoodResponse	1	0.0	n/a	1	44	ISIslide	Win	True
429.319	0.25	Control	0.5217	0.0	Yes	2.881	0.019	n/a	GoodResponse	0	n/a	n/a	1	45	Cue	Neutral	True
429.57	4.1	Control	0.5217	0.0	Yes	2.881	0.001	n/a	GoodResponse	0	n/a	n/a	1	45	Fixation	Neutral	True
433.665	0.31	Control	0.5217	0.004	Yes	2.881	-0.004	2.0	GoodResponse	0	0.168	432.833	1	45	Target	Neutral	True
433.833	0.3	Control	0.5217	0.004	Yes	2.881	-0.004	2.0	GoodResponse	0	0.168	n/a	1	45	ButtonPress	Neutral	True
433.983	0.39	Control	0.5217	n/a	Yes	2.881	n/a	n/a	GoodResponse	0	n/a	n/a	1	45	Blank	Neutral	True
434.368	1.45	Control	0.5217	n/a	Yes	2.881	n/a	5.0	GoodResponse	0	0.041	433.409	1	45	Feedback	Neutral	True
435.822	2.881	Control	0.5217	n/a	Yes	2.881	n/a	n/a	GoodResponse	0	0.0	n/a	1	45	ISIslide	Neutral	True
438.731	0.25	Lose2	0.5318999999999999	0.0	Yes	3.369	0.031	n/a	GoodResponse	0	n/a	n/a	1	46	Cue	AvoidedLoss	True
438.981	4.0	Lose2	0.5318999999999999	0.0	Yes	3.369	0.0	n/a	GoodResponse	0	n/a	n/a	1	46	Fixation	AvoidedLoss	True
442.977	0.32	Lose2	0.5318999999999999	0.004	Yes	3.369	-0.004	2.0	GoodResponse	0	0.171	442.148	1	46	Target	AvoidedLoss	True
443.148	0.3	Lose2	0.5318999999999999	0.004	Yes	3.369	-0.004	2.0	GoodResponse	0	0.171	n/a	1	46	ButtonPress	AvoidedLoss	True
443.311	0.38	Lose2	0.5318999999999999	n/a	Yes	3.369	n/a	n/a	GoodResponse	0	n/a	n/a	1	46	Blank	AvoidedLoss	True
443.679	1.45	Lose2	0.5318999999999999	n/a	Yes	3.369	n/a	5.0	GoodResponse	0	0.047	442.726	1	46	Feedback	AvoidedLoss	True
445.133	3.369	Lose2	0.5318999999999999	n/a	Yes	3.369	n/a	n/a	GoodResponse	0	0.0	n/a	1	46	ISIslide	AvoidedLoss	True
448.527	0.25	Lose2	0.5207999999999999	0.0	No	2.673	0.027	n/a	NoResponse	-1	n/a	n/a	0	47	Cue	Loss	True
448.777	4.0	Lose2	0.5207999999999999	0.0	No	2.673	0.0	2.0	NoResponse	-1	3.869	451.646	0	47	Fixation	Loss	True
452.646	0.3	Lose2	0.5207999999999999	0.0	No	2.673	0.0	2.0	NoResponse	-1	3.869	n/a	0	47	ButtonPress	Loss	True
452.773	0.33	Lose2	0.5207999999999999	0.004	No	2.673	-0.004	n/a	NoResponse	-1	n/a	n/a	0	47	Target	Loss	True
453.107	0.37	Lose2	0.5207999999999999	n/a	No	2.673	n/a	n/a	NoResponse	-1	n/a	n/a	0	47	Blank	Loss	True
453.475	1.45	Lose2	0.5207999999999999	n/a	No	2.673	n/a	5.0	NoResponse	-1	0.007	452.482	0	47	Feedback	Loss	True
454.929	2.673	Lose2	0.5207999999999999	n/a	No	2.673	n/a	n/a	NoResponse	-1	0.0	n/a	0	47	ISIslide	Loss	True
457.62	0.25	Lose2	0.5306000000000001	0.001	Yes	3.03	0.02	n/a	GoodResponse	0	n/a	n/a	0	48	Cue	AvoidedLoss	True
457.871	3.95	Lose2	0.5306000000000001	0.0	Yes	3.03	0.001	n/a	GoodResponse	0	n/a	n/a	0	48	Fixation	AvoidedLoss	True
461.816	0.34	Lose2	0.5306000000000001	0.004	Yes	3.03	-0.004	2.0	GoodResponse	0	0.177	460.993	0	48	Target	AvoidedLoss	True
461.993	0.3	Lose2	0.5306000000000001	0.004	Yes	3.03	-0.004	2.0	GoodResponse	0	0.177	n/a	0	48	ButtonPress	AvoidedLoss	True
462.167	0.36	Lose2	0.5306000000000001	n/a	Yes	3.03	n/a	n/a	GoodResponse	0	n/a	n/a	0	48	Blank	AvoidedLoss	True
462.518	1.45	Lose2	0.5306000000000001	n/a	Yes	3.03	n/a	5.0	GoodResponse	0	0.037	461.555	0	48	Feedback	AvoidedLoss	True
463.973	3.03	Lose2	0.5306000000000001	n/a	Yes	3.03	n/a	n/a	GoodResponse	0	0.0	n/a	0	48	ISIslide	AvoidedLoss	True
467.015	0.25	Control	0.54	0.0	Yes	2.885	0.015	n/a	GoodResponse	0	n/a	n/a	0	49	Cue	Neutral	True
467.266	4.0	Control	0.54	0.0	Yes	2.885	0.001	n/a	GoodResponse	0	n/a	n/a	0	49	Fixation	Neutral	True
471.261	0.35	Control	0.54	0.004	Yes	2.885	-0.004	2.0	GoodResponse	0	0.189	470.45	0	49	Target	Neutral	True
471.45	0.3	Control	0.54	0.004	Yes	2.885	-0.004	2.0	GoodResponse	0	0.189	n/a	0	49	ButtonPress	Neutral	True
471.612	0.35	Control	0.54	n/a	Yes	2.885	n/a	n/a	GoodResponse	0	n/a	n/a	0	49	Blank	Neutral	True
471.963	1.45	Control	0.54	n/a	Yes	2.885	n/a	5.0	GoodResponse	0	0.007	470.97	0	49	Feedback	Neutral	True
473.418	2.885	Control	0.54	n/a	Yes	2.885	n/a	n/a	GoodResponse	0	0.0	n/a	0	49	ISIslide	Neutral	True
476.326	0.25	Control	0.5489999999999999	0.0	Yes	2.774	0.026	n/a	GoodResponse	0	n/a	n/a	0	50	Cue	Neutral	True
476.577	4.0	Control	0.5489999999999999	0.0	Yes	2.774	0.001	n/a	GoodResponse	0	n/a	n/a	0	50	Fixation	Neutral	True
480.572	0.36	Control	0.5489999999999999	0.004	Yes	2.774	-0.004	2.0	GoodResponse	0	0.229	479.801	0	50	Target	Neutral	True
480.801	0.3	Control	0.5489999999999999	0.004	Yes	2.774	-0.004	2.0	GoodResponse	0	0.229	n/a	0	50	ButtonPress	Neutral	True
480.94	0.34	Control	0.5489999999999999	n/a	Yes	2.774	n/a	n/a	GoodResponse	0	n/a	n/a	0	50	Blank	Neutral	True
481.275	1.45	Control	0.5489999999999999	n/a	Yes	2.774	n/a	5.0	GoodResponse	0	0.012	480.287	0	50	Feedback	Neutral	True
482.729	2.774	Control	0.5489999999999999	n/a	Yes	2.774	n/a	n/a	GoodResponse	0	0.0	n/a	0	50	ISIslide	Neutral	True
485.521	0.25	Control	0.5577000000000001	0.0	Yes	2.729	0.021	n/a	GoodResponse	0	n/a	n/a	0	51	Cue	Neutral	True
485.771	3.95	Control	0.5577000000000001	0.0	Yes	2.729	0.0	n/a	GoodResponse	0	n/a	n/a	0	51	Fixation	Neutral	True
489.733	0.37	Control	0.5577000000000001	0.0	Yes	2.729	0.012	2.0	GoodResponse	0	0.239	488.972	0	51	Target	Neutral	True
489.972	0.3	Control	0.5577000000000001	0.0	Yes	2.729	0.012	2.0	GoodResponse	0	0.239	n/a	0	51	ButtonPress	Neutral	True
490.101	0.33	Control	0.5577000000000001	n/a	Yes	2.729	n/a	n/a	GoodResponse	0	n/a	n/a	0	51	Blank	Neutral	True
490.419	1.45	Control	0.5577000000000001	n/a	Yes	2.729	n/a	5.0	GoodResponse	0	0.039	489.458	0	51	Feedback	Neutral	True
491.873	2.729	Control	0.5577000000000001	n/a	Yes	2.729	n/a	n/a	GoodResponse	0	0.0	n/a	0	51	ISIslide	Neutral	True
494.614	0.25	Control	0.5660000000000001	0.0	Yes	2.636	0.014	n/a	GoodResponse	0	n/a	n/a	0	52	Cue	Neutral	True
494.865	4.05	Control	0.5660000000000001	0.0	Yes	2.636	0.001	n/a	GoodResponse	0	n/a	n/a	0	52	Fixation	Neutral	True
498.911	0.38	Control	0.5660000000000001	0.003	Yes	2.636	-0.003	2.0	GoodResponse	0	0.245	498.156	0	52	Target	Neutral	True
499.156	0.3	Control	0.5660000000000001	0.003	Yes	2.636	-0.003	2.0	GoodResponse	0	0.245	n/a	0	52	ButtonPress	Neutral	True
499.295	0.32	Control	0.5660000000000001	n/a	Yes	2.636	n/a	n/a	GoodResponse	0	n/a	n/a	0	52	Blank	Neutral	True
499.613	1.45	Control	0.5660000000000001	n/a	Yes	2.636	n/a	5.0	GoodResponse	0	0.014	498.627	0	52	Feedback	Neutral	True
501.067	2.636	Control	0.5660000000000001	n/a	Yes	2.636	n/a	n/a	GoodResponse	0	0.0	n/a	0	52	ISIslide	Neutral	True
503.725	0.25	Win2	0.5740999999999999	0.0	Yes	2.925	0.025	n/a	GoodResponse	1	n/a	n/a	1	53	Cue	Win	True
503.976	4.05	Win2	0.5740999999999999	0.0	Yes	2.925	0.001	n/a	GoodResponse	1	n/a	n/a	1	53	Fixation	Win	True
508.021	0.39	Win2	0.5740999999999999	0.004	Yes	2.925	-0.004	2.0	GoodResponse	1	0.244	507.265	1	53	Target	Win	True
508.265	0.3	Win2	0.5740999999999999	0.004	Yes	2.925	-0.004	2.0	GoodResponse	1	0.244	n/a	1	53	ButtonPress	Win	True
508.422	0.31	Win2	0.5740999999999999	n/a	Yes	2.925	n/a	n/a	GoodResponse	1	n/a	n/a	1	53	Blank	Win	True
508.723	1.45	Win2	0.5740999999999999	n/a	Yes	2.925	n/a	5.0	GoodResponse	1	0.026	507.749	1	53	Feedback	Win	True
510.178	2.925	Win2	0.5740999999999999	n/a	Yes	2.925	n/a	n/a	GoodResponse	1	0.0	n/a	1	53	ISIslide	Win	True
513.12	0.25	Win2	0.5818	0.0	Yes	2.73	0.02	n/a	GoodResponse	1	n/a	n/a	2	54	Cue	Win	True
513.37	3.95	Win2	0.5818	0.001	Yes	2.73	0.0	n/a	GoodResponse	1	n/a	n/a	2	54	Fixation	Win	True
517.316	0.4	Win2	0.5818	0.004	Yes	2.73	-0.004	2.0	GoodResponse	1	0.247	516.563	2	54	Target	Win	True
517.563	0.3	Win2	0.5818	0.004	Yes	2.73	-0.004	2.0	GoodResponse	1	0.247	n/a	2	54	ButtonPress	Win	True
517.717	0.3	Win2	0.5818	n/a	Yes	2.73	n/a	n/a	GoodResponse	1	n/a	n/a	2	54	Blank	Win	True
518.018	1.45	Win2	0.5818	n/a	Yes	2.73	n/a	5.0	GoodResponse	1	0.0	517.018	2	54	Feedback	Win	True
519.472	2.73	Win2	0.5818	n/a	Yes	2.73	n/a	n/a	GoodResponse	1	0.0	n/a	2	54	ISIslide	Win	True
522.214	0.25	Control	0.5893	0.0	Yes	3.036	0.014	n/a	GoodResponse	0	n/a	n/a	2	55	Cue	Neutral	True
522.464	3.95	Control	0.5893	0.0	Yes	3.036	0.0	n/a	GoodResponse	0	n/a	n/a	2	55	Fixation	Neutral	True
526.426	0.41	Control	0.5893	0.0	Yes	3.036	0.012	2.0	GoodResponse	0	0.214	525.64	2	55	Target	Neutral	True
526.64	0.3	Control	0.5893	0.0	Yes	3.036	0.012	2.0	GoodResponse	0	0.214	n/a	2	55	ButtonPress	Neutral	True
526.827	0.29	Control	0.5893	n/a	Yes	3.036	n/a	n/a	GoodResponse	0	n/a	n/a	2	55	Blank	Neutral	True
527.112	1.45	Control	0.5893	n/a	Yes	3.036	n/a	5.0	GoodResponse	0	0.028	526.14	2	55	Feedback	Neutral	True
528.566	3.036	Control	0.5893	n/a	Yes	3.036	n/a	n/a	GoodResponse	0	0.0	n/a	2	55	ISIslide	Neutral	True
531.625	0.25	Control	0.5965	0.0	Yes	2.825	0.025	n/a	GoodResponse	0	n/a	n/a	2	56	Cue	Neutral	True
531.876	3.95	Control	0.5965	0.0	Yes	2.825	0.001	n/a	GoodResponse	0	n/a	n/a	2	56	Fixation	Neutral	True
535.821	0.42	Control	0.5965	0.004	Yes	2.825	-0.004	2.0	GoodResponse	0	0.218	535.039	2	56	Target	Neutral	True
536.039	0.3	Control	0.5965	0.004	Yes	2.825	-0.004	2.0	GoodResponse	0	0.218	n/a	2	56	ButtonPress	Neutral	True
536.256	0.28	Control	0.5965	n/a	Yes	2.825	n/a	n/a	GoodResponse	0	n/a	n/a	2	56	Blank	Neutral	True
536.523	1.45	Control	0.5965	n/a	Yes	2.825	n/a	5.0	GoodResponse	0	0.031	535.554	2	56	Feedback	Neutral	True
537.977	2.825	Control	0.5965	n/a	Yes	2.825	n/a	n/a	GoodResponse	0	0.0	n/a	2	56	ISIslide	Neutral	True
540.819	0.25	Control	0.6034	0.0	Yes	3.481	0.019	n/a	GoodResponse	0	n/a	n/a	2	57	Cue	Neutral	True
541.07	4.0	Control	0.6034	0.0	Yes	3.481	0.001	n/a	GoodResponse	0	n/a	n/a	2	57	Fixation	Neutral	True
545.065	0.43	Control	0.6034	0.004	Yes	3.481	-0.004	2.0	GoodResponse	0	0.182	544.247	2	57	Target	Neutral	True
545.247	0.3	Control	0.6034	0.004	Yes	3.481	-0.004	2.0	GoodResponse	0	0.182	n/a	2	57	ButtonPress	Neutral	True
545.5	0.27	Control	0.6034	n/a	Yes	3.481	n/a	n/a	GoodResponse	0	n/a	n/a	2	57	Blank	Neutral	True
545.767	1.45	Control	0.6034	n/a	Yes	3.481	n/a	5.0	GoodResponse	0	0.006	544.773	2	57	Feedback	Neutral	True
547.222	3.481	Control	0.6034	n/a	Yes	3.481	n/a	n/a	GoodResponse	0	0.0	n/a	2	57	ISIslide	Neutral	True
550.715	0.25	Win2	0.6102000000000001	0.001	Yes	2.735	0.015	n/a	GoodResponse	1	n/a	n/a	3	58	Cue	Win	False
550.966	4.05	Win2	0.6102000000000001	0.0	Yes	2.735	0.001	2.0	GoodResponse	1	3.7	553.666	3	58	Fixation	Win	False
554.666	0.3	Win2	0.6102000000000001	0.0	Yes	2.735	0.001	2.0	GoodResponse	1	3.7	n/a	3	58	ButtonPress	Win	False
555.012	0.44	Win2	0.6102000000000001	0.003	Yes	2.735	-0.003	2.0	GoodResponse	1	0.179	554.191	3	58	Target	Win	False
555.191	0.3	Win2	0.6102000000000001	0.003	Yes	2.735	-0.003	2.0	GoodResponse	1	0.179	n/a	3	58	ButtonPress	Win	False
555.463	0.26	Win2	0.6102000000000001	n/a	Yes	2.735	n/a	n/a	GoodResponse	1	n/a	n/a	3	58	Blank	Win	False
555.714	1.45	Win2	0.6102000000000001	n/a	Yes	2.735	n/a	5.0	GoodResponse	1	0.011	554.725	3	58	Feedback	Win	False
557.168	2.735	Win2	0.6102000000000001	n/a	Yes	2.735	n/a	n/a	GoodResponse	1	0.0	n/a	3	58	ISIslide	Win	False
559.926	0.25	Lose2	0.6167	0.0	Yes	2.674	0.026	n/a	GoodResponse	0	n/a	n/a	3	59	Cue	AvoidedLoss	False
560.177	4.0	Lose2	0.6167	0.0	Yes	2.674	0.001	2.0	GoodResponse	0	3.883	563.06	3	59	Fixation	AvoidedLoss	False
564.06	0.3	Lose2	0.6167	0.0	Yes	2.674	0.001	2.0	GoodResponse	0	3.883	n/a	3	59	ButtonPress	AvoidedLoss	False
564.172	0.45	Lose2	0.6167	0.004	Yes	2.674	-0.004	2.0	GoodResponse	0	0.302	563.474	3	59	Target	AvoidedLoss	False
564.474	0.3	Lose2	0.6167	0.004	Yes	2.674	-0.004	2.0	GoodResponse	0	0.302	n/a	3	59	ButtonPress	AvoidedLoss	False
564.624	0.25	Lose2	0.6167	n/a	Yes	2.674	n/a	n/a	GoodResponse	0	n/a	n/a	3	59	Blank	AvoidedLoss	False
564.874	1.45	Lose2	0.6167	n/a	Yes	2.674	n/a	5.0	GoodResponse	0	0.021	563.895	3	59	Feedback	AvoidedLoss	False
566.329	2.674	Lose2	0.6167	n/a	Yes	2.674	n/a	n/a	GoodResponse	0	0.0	n/a	3	59	ISIslide	AvoidedLoss	False
569.02	0.25	Control	0.623	0.0	Yes	2.68	0.02	n/a	GoodResponse	0	n/a	n/a	3	60	Cue	Neutral	True
569.271	4.0	Control	0.623	0.0	Yes	2.68	0.001	n/a	GoodResponse	0	n/a	n/a	3	60	Fixation	Neutral	True
573.266	0.46	Control	0.623	0.004	Yes	2.68	-0.004	2.0	GoodResponse	0	0.34	572.606	3	60	Target	Neutral	True
573.606	0.3	Control	0.623	0.004	Yes	2.68	-0.004	2.0	GoodResponse	0	0.34	n/a	3	60	ButtonPress	Neutral	True
573.734	0.24	Control	0.623	n/a	Yes	2.68	n/a	n/a	GoodResponse	0	n/a	n/a	3	60	Blank	Neutral	True
573.968	1.45	Control	0.623	n/a	Yes	2.68	n/a	5.0	GoodResponse	0	0.001	572.969	3	60	Feedback	Neutral	True
575.423	2.68	Control	0.623	n/a	Yes	2.68	n/a	n/a	GoodResponse	0	0.0	n/a	3	60	ISIslide	Neutral	True
578.114	0.25	Lose2	0.629	0.0	Yes	2.986	0.014	n/a	GoodResponse	0	n/a	n/a	3	61	Cue	AvoidedLoss	True
578.365	4.0	Lose2	0.629	0.0	Yes	2.986	0.001	n/a	GoodResponse	0	n/a	n/a	3	61	Fixation	AvoidedLoss	True
582.36	0.47	Lose2	0.629	0.004	Yes	2.986	-0.004	2.0	GoodResponse	0	0.262	581.622	3	61	Target	AvoidedLoss	True
582.622	0.3	Lose2	0.629	0.004	Yes	2.986	-0.004	2.0	GoodResponse	0	0.262	n/a	3	61	ButtonPress	AvoidedLoss	True
582.845	0.23	Lose2	0.629	n/a	Yes	2.986	n/a	n/a	GoodResponse	0	n/a	n/a	3	61	Blank	AvoidedLoss	True
583.062	1.45	Lose2	0.629	n/a	Yes	2.986	n/a	5.0	GoodResponse	0	0.028	582.09	3	61	Feedback	AvoidedLoss	True
584.517	2.986	Lose2	0.629	n/a	Yes	2.986	n/a	n/a	GoodResponse	0	0.0	n/a	3	61	ISIslide	AvoidedLoss	True
587.526	0.25	Lose2	0.6349	0.0	Yes	2.874	0.026	n/a	GoodResponse	0	n/a	n/a	3	62	Cue	AvoidedLoss	True
587.776	3.9	Lose2	0.6349	0.0	Yes	2.874	0.0	n/a	GoodResponse	0	n/a	n/a	3	62	Fixation	AvoidedLoss	True
591.688	0.48	Lose2	0.6349	0.0	Yes	2.874	0.012	2.0	GoodResponse	0	0.203	590.891	3	62	Target	AvoidedLoss	True
591.891	0.3	Lose2	0.6349	0.0	Yes	2.874	0.012	2.0	GoodResponse	0	0.203	n/a	3	62	ButtonPress	AvoidedLoss	True
592.156	0.22	Lose2	0.6349	n/a	Yes	2.874	n/a	n/a	GoodResponse	0	n/a	n/a	3	62	Blank	AvoidedLoss	True
592.373	1.45	Lose2	0.6349	n/a	Yes	2.874	n/a	5.0	GoodResponse	0	0.034	591.407	3	62	Feedback	AvoidedLoss	True
593.828	2.874	Lose2	0.6349	n/a	Yes	2.874	n/a	n/a	GoodResponse	0	0.0	n/a	3	62	ISIslide	AvoidedLoss	True
596.72	0.25	Lose2	0.6406000000000001	0.0	Yes	2.63	0.02	n/a	GoodResponse	0	n/a	n/a	3	63	Cue	AvoidedLoss	True
596.97	4.05	Lose2	0.6406000000000001	0.001	Yes	2.63	0.0	n/a	GoodResponse	0	n/a	n/a	3	63	Fixation	AvoidedLoss	True
601.016	0.49	Lose2	0.6406000000000001	0.004	Yes	2.63	-0.004	2.0	GoodResponse	0	0.2	600.216	3	63	Target	AvoidedLoss	True
601.216	0.3	Lose2	0.6406000000000001	0.004	Yes	2.63	-0.004	2.0	GoodResponse	0	0.2	n/a	3	63	ButtonPress	AvoidedLoss	True
601.517	0.21	Lose2	0.6406000000000001	n/a	Yes	2.63	n/a	n/a	GoodResponse	0	n/a	n/a	3	63	Blank	AvoidedLoss	True
601.718	1.45	Lose2	0.6406000000000001	n/a	Yes	2.63	n/a	5.0	GoodResponse	0	0.006	600.724	3	63	Feedback	AvoidedLoss	True
603.172	2.63	Lose2	0.6406000000000001	n/a	Yes	2.63	n/a	n/a	GoodResponse	0	0.0	n/a	3	63	ISIslide	AvoidedLoss	True
605.814	0.25	Win2	0.6462	0.0	Yes	3.136	0.014	n/a	GoodResponse	1	n/a	n/a	4	64	Cue	Win	True
606.064	4.15	Win2	0.6462	0.0	Yes	3.136	0.0	n/a	GoodResponse	1	n/a	n/a	4	64	Fixation	Win	True
610.21	0.5	Win2	0.6462	0.004	Yes	3.136	-0.004	2.0	GoodResponse	1	0.183	609.393	4	64	Target	Win	True
610.393	0.3	Win2	0.6462	0.004	Yes	3.136	-0.004	2.0	GoodResponse	1	0.183	n/a	4	64	ButtonPress	Win	True
610.712	0.2	Win2	0.6462	n/a	Yes	3.136	n/a	n/a	GoodResponse	1	n/a	n/a	4	64	Blank	Win	True
610.912	1.45	Win2	0.6462	n/a	Yes	3.136	n/a	5.0	GoodResponse	1	0.032	609.944	4	64	Feedback	Win	True
612.366	3.136	Win2	0.6462	n/a	Yes	3.136	n/a	n/a	GoodResponse	1	0.0	n/a	4	64	ISIslide	Win	True
615.526	0.25	Control	0.6515000000000001	0.0	Yes	2.774	0.026	n/a	GoodResponse	0	n/a	n/a	4	65	Cue	Neutral	True
615.777	4.0	Control	0.6515000000000001	0.0	Yes	2.774	0.001	n/a	GoodResponse	0	n/a	n/a	4	65	Fixation	Neutral	True
619.772	0.5	Control	0.6515000000000001	0.004	Yes	2.774	-0.004	2.0	GoodResponse	0	0.401	619.173	4	65	Target	Neutral	True
620.173	0.3	Control	0.6515000000000001	0.004	Yes	2.774	-0.004	2.0	GoodResponse	0	0.401	n/a	4	65	ButtonPress	Neutral	True
620.273	0.2	Control	0.6515000000000001	n/a	Yes	2.774	n/a	n/a	GoodResponse	0	n/a	n/a	4	65	Blank	Neutral	True
620.474	1.45	Control	0.6515000000000001	n/a	Yes	2.774	n/a	5.0	GoodResponse	0	0.031	619.505	4	65	Feedback	Neutral	True
621.928	2.774	Control	0.6515000000000001	n/a	Yes	2.774	n/a	n/a	GoodResponse	0	0.0	n/a	4	65	ISIslide	Neutral	True
624.72	0.25	Win2	0.6567000000000001	0.0	Yes	2.78	0.02	n/a	GoodResponse	1	n/a	n/a	5	66	Cue	Win	True
624.971	3.9	Win2	0.6567000000000001	0.0	Yes	2.78	0.001	n/a	GoodResponse	1	n/a	n/a	5	66	Fixation	Win	True
628.866	0.5	Win2	0.6567000000000001	0.004	Yes	2.78	-0.004	2.0	GoodResponse	1	0.176	628.042	5	66	Target	Win	True
629.042	0.3	Win2	0.6567000000000001	0.004	Yes	2.78	-0.004	2.0	GoodResponse	1	0.176	n/a	5	66	ButtonPress	Win	True
629.367	0.2	Win2	0.6567000000000001	n/a	Yes	2.78	n/a	n/a	GoodResponse	1	n/a	n/a	5	66	Blank	Win	True
629.568	1.45	Win2	0.6567000000000001	n/a	Yes	2.78	n/a	5.0	GoodResponse	1	0.009	628.577	5	66	Feedback	Win	True
631.022	2.78	Win2	0.6567000000000001	n/a	Yes	2.78	n/a	n/a	GoodResponse	1	0.0	n/a	5	66	ISIslide	Win	True
633.814	0.25	Control	0.6618	0.0	Yes	2.736	0.014	n/a	GoodResponse	0	n/a	n/a	5	67	Cue	Neutral	True
634.065	3.95	Control	0.6618	0.0	Yes	2.736	0.001	n/a	GoodResponse	0	n/a	n/a	5	67	Fixation	Neutral	True
638.01	0.5	Control	0.6618	0.004	Yes	2.736	-0.004	2.0	GoodResponse	0	0.249	637.259	5	67	Target	Neutral	True
638.259	0.3	Control	0.6618	0.004	Yes	2.736	-0.004	2.0	GoodResponse	0	0.249	n/a	5	67	ButtonPress	Neutral	True
638.511	0.2	Control	0.6618	n/a	Yes	2.736	n/a	n/a	GoodResponse	0	n/a	n/a	5	67	Blank	Neutral	True
638.712	1.45	Control	0.6618	n/a	Yes	2.736	n/a	5.0	GoodResponse	0	0.036	637.748	5	67	Feedback	Neutral	True
640.166	2.736	Control	0.6618	n/a	Yes	2.736	n/a	n/a	GoodResponse	0	0.0	n/a	5	67	ISIslide	Neutral	True
642.924	0.25	Win2	0.6667000000000001	0.001	Yes	3.076	0.024	n/a	GoodResponse	1	n/a	n/a	6	68	Cue	Win	True
643.175	4.0	Win2	0.6667000000000001	0.0	Yes	3.076	0.001	n/a	GoodResponse	1	n/a	n/a	6	68	Fixation	Win	True
647.171	0.5	Win2	0.6667000000000001	0.003	Yes	3.076	-0.003	2.0	GoodResponse	1	0.159	646.33	6	68	Target	Win	True
647.33	0.3	Win2	0.6667000000000001	0.003	Yes	3.076	-0.003	2.0	GoodResponse	1	0.159	n/a	6	68	ButtonPress	Win	True
647.672	0.2	Win2	0.6667000000000001	n/a	Yes	3.076	n/a	n/a	GoodResponse	1	n/a	n/a	6	68	Blank	Win	True
647.873	1.45	Win2	0.6667000000000001	n/a	Yes	3.076	n/a	5.0	GoodResponse	1	0.046	646.919	6	68	Feedback	Win	True
649.327	3.076	Win2	0.6667000000000001	n/a	Yes	3.076	n/a	n/a	GoodResponse	1	0.0	n/a	6	68	ISIslide	Win	True
652.42	0.25	Win2	0.6714	0.0	Yes	3.23	0.02	n/a	GoodResponse	1	n/a	n/a	7	69	Cue	Win	True
652.67	3.95	Win2	0.6714	0.0	Yes	3.23	0.0	n/a	GoodResponse	1	n/a	n/a	7	69	Fixation	Win	True
656.615	0.49	Win2	0.6714	0.005	Yes	3.23	-0.005	2.0	GoodResponse	1	0.225	655.84	7	69	Target	Win	True
656.84	0.3	Win2	0.6714	0.005	Yes	3.23	-0.005	2.0	GoodResponse	1	0.225	n/a	7	69	ButtonPress	Win	True
657.117	0.21	Win2	0.6714	n/a	Yes	3.23	n/a	n/a	GoodResponse	1	n/a	n/a	7	69	Blank	Win	True
657.318	1.45	Win2	0.6714	n/a	Yes	3.23	n/a	5.0	GoodResponse	1	0.016	656.334	7	69	Feedback	Win	True
658.772	3.23	Win2	0.6714	n/a	Yes	3.23	n/a	n/a	GoodResponse	1	0.0	n/a	7	69	ISIslide	Win	True
662.015	0.25	Lose2	0.6761	0.0	Yes	3.035	0.015	n/a	GoodResponse	0	n/a	n/a	7	70	Cue	AvoidedLoss	True
662.266	4.05	Lose2	0.6761	0.0	Yes	3.035	0.001	n/a	GoodResponse	0	n/a	n/a	7	70	Fixation	AvoidedLoss	True
666.311	0.48	Lose2	0.6761	0.004	Yes	3.035	-0.004	2.0	GoodResponse	0	0.14	665.451	7	70	Target	AvoidedLoss	True
666.451	0.3	Lose2	0.6761	0.004	Yes	3.035	-0.004	2.0	GoodResponse	0	0.14	n/a	7	70	ButtonPress	AvoidedLoss	True
666.796	0.22	Lose2	0.6761	n/a	Yes	3.035	n/a	n/a	GoodResponse	0	n/a	n/a	7	70	Blank	AvoidedLoss	True
667.013	1.45	Lose2	0.6761	n/a	Yes	3.035	n/a	5.0	GoodResponse	0	0.027	666.04	7	70	Feedback	AvoidedLoss	True
668.468	3.035	Lose2	0.6761	n/a	Yes	3.035	n/a	n/a	GoodResponse	0	0.0	n/a	7	70	ISIslide	AvoidedLoss	True
671.527	0.25	Win2	0.6806	0.0	Yes	2.723	0.027	n/a	GoodResponse	1	n/a	n/a	8	71	Cue	Win	True
671.777	4.05	Win2	0.6806	0.001	Yes	2.723	0.0	n/a	GoodResponse	1	n/a	n/a	8	71	Fixation	Win	True
675.823	0.47	Win2	0.6806	0.004	Yes	2.723	-0.004	2.0	GoodResponse	1	0.197	675.02	8	71	Target	Win	True
676.02	0.3	Win2	0.6806	0.004	Yes	2.723	-0.004	2.0	GoodResponse	1	0.197	n/a	8	71	ButtonPress	Win	True
676.308	0.23	Win2	0.6806	n/a	Yes	2.723	n/a	n/a	GoodResponse	1	n/a	n/a	8	71	Blank	Win	True
676.525	1.45	Win2	0.6806	n/a	Yes	2.723	n/a	5.0	GoodResponse	1	0.027	675.552	8	71	Feedback	Win	True
677.979	2.723	Win2	0.6806	n/a	Yes	2.723	n/a	n/a	GoodResponse	1	0.0	n/a	8	71	ISIslide	Win	True
680.721	0.25	Win2	0.6849	0.0	Yes	2.779	0.021	n/a	GoodResponse	1	n/a	n/a	9	72	Cue	Win	True
680.972	4.1	Win2	0.6849	0.0	Yes	2.779	0.001	n/a	GoodResponse	1	n/a	n/a	9	72	Fixation	Win	True
685.067	0.46	Win2	0.6849	0.004	Yes	2.779	-0.004	2.0	GoodResponse	1	0.2	684.267	9	72	Target	Win	True
685.267	0.3	Win2	0.6849	0.004	Yes	2.779	-0.004	2.0	GoodResponse	1	0.2	n/a	9	72	ButtonPress	Win	True
685.535	0.24	Win2	0.6849	n/a	Yes	2.779	n/a	n/a	GoodResponse	1	n/a	n/a	9	72	Blank	Win	True
685.769	1.45	Win2	0.6849	n/a	Yes	2.779	n/a	5.0	GoodResponse	1	0.005	684.774	9	72	Feedback	Win	True
687.224	2.779	Win2	0.6849	n/a	Yes	2.779	n/a	n/a	GoodResponse	1	0.0	n/a	9	72	ISIslide	Win	True
690.015	0.25	Win2	0.6892	0.0	Yes	2.685	0.015	n/a	GoodResponse	1	n/a	n/a	10	73	Cue	Win	True
690.266	4.0	Win2	0.6892	0.0	Yes	2.685	0.001	n/a	GoodResponse	1	n/a	n/a	10	73	Fixation	Win	True
694.261	0.45	Win2	0.6892	0.004	Yes	2.685	-0.004	2.0	GoodResponse	1	0.226	693.487	10	73	Target	Win	True
694.487	0.3	Win2	0.6892	0.004	Yes	2.685	-0.004	2.0	GoodResponse	1	0.226	n/a	10	73	ButtonPress	Win	True
694.713	0.25	Win2	0.6892	n/a	Yes	2.685	n/a	n/a	GoodResponse	1	n/a	n/a	10	73	Blank	Win	True
694.963	1.45	Win2	0.6892	n/a	Yes	2.685	n/a	5.0	GoodResponse	1	0.028	693.991	10	73	Feedback	Win	True
696.418	2.685	Win2	0.6892	n/a	Yes	2.685	n/a	n/a	GoodResponse	1	0.0	n/a	10	73	ISIslide	Win	True
699.126	0.25	Lose2	0.6933	0.0	Yes	2.624	0.026	n/a	GoodResponse	0	n/a	n/a	10	74	Cue	AvoidedLoss	True
699.377	4.05	Lose2	0.6933	0.0	Yes	2.624	0.001	n/a	GoodResponse	0	n/a	n/a	10	74	Fixation	AvoidedLoss	True
703.422	0.44	Lose2	0.6933	0.004	Yes	2.624	-0.004	2.0	GoodResponse	0	0.229	702.651	10	74	Target	AvoidedLoss	True
703.651	0.3	Lose2	0.6933	0.004	Yes	2.624	-0.004	2.0	GoodResponse	0	0.229	n/a	10	74	ButtonPress	AvoidedLoss	True
703.873	0.26	Lose2	0.6933	n/a	Yes	2.624	n/a	n/a	GoodResponse	0	n/a	n/a	10	74	Blank	AvoidedLoss	True
704.124	1.45	Lose2	0.6933	n/a	Yes	2.624	n/a	5.0	GoodResponse	0	0.038	703.162	10	74	Feedback	AvoidedLoss	True
705.578	2.624	Lose2	0.6933	n/a	Yes	2.624	n/a	n/a	GoodResponse	0	0.0	n/a	10	74	ISIslide	AvoidedLoss	True
708.22	0.25	Lose2	0.6973999999999999	0.0	Yes	2.93	0.02	n/a	GoodResponse	0	n/a	n/a	10	75	Cue	AvoidedLoss	True
708.47	3.95	Lose2	0.6973999999999999	0.001	Yes	2.93	0.0	n/a	GoodResponse	0	n/a	n/a	10	75	Fixation	AvoidedLoss	True
712.416	0.43	Lose2	0.6973999999999999	0.004	Yes	2.93	-0.004	2.0	GoodResponse	0	0.194	711.61	10	75	Target	AvoidedLoss	True
712.61	0.3	Lose2	0.6973999999999999	0.004	Yes	2.93	-0.004	2.0	GoodResponse	0	0.194	n/a	10	75	ButtonPress	AvoidedLoss	True
712.85	0.27	Lose2	0.6973999999999999	n/a	Yes	2.93	n/a	n/a	GoodResponse	0	n/a	n/a	10	75	Blank	AvoidedLoss	True
713.118	1.45	Lose2	0.6973999999999999	n/a	Yes	2.93	n/a	5.0	GoodResponse	0	0.019	712.137	10	75	Feedback	AvoidedLoss	True
714.572	2.93	Lose2	0.6973999999999999	n/a	Yes	2.93	n/a	n/a	GoodResponse	0	0.0	n/a	10	75	ISIslide	AvoidedLoss	True
717.514	0.25	Control	0.7012999999999999	0.0	Yes	3.236	0.014	n/a	GoodResponse	0	n/a	n/a	10	76	Cue	Neutral	True
717.765	4.05	Control	0.7012999999999999	0.0	Yes	3.236	0.001	n/a	GoodResponse	0	n/a	n/a	10	76	Fixation	Neutral	True
721.81	0.42	Control	0.7012999999999999	0.004	Yes	3.236	-0.004	2.0	GoodResponse	0	0.195	721.005	10	76	Target	Neutral	True
722.005	0.3	Control	0.7012999999999999	0.004	Yes	3.236	-0.004	2.0	GoodResponse	0	0.195	n/a	10	76	ButtonPress	Neutral	True
722.245	0.28	Control	0.7012999999999999	n/a	Yes	3.236	n/a	n/a	GoodResponse	0	n/a	n/a	10	76	Blank	Neutral	True
722.512	1.45	Control	0.7012999999999999	n/a	Yes	3.236	n/a	5.0	GoodResponse	0	0.04	721.552	10	76	Feedback	Neutral	True
723.967	3.236	Control	0.7012999999999999	n/a	Yes	3.236	n/a	n/a	GoodResponse	0	0.0	n/a	10	76	ISIslide	Neutral	True
727.227	0.25	Lose2	0.6923	0.0	No	2.573	0.027	n/a	PrematurePress	-1	n/a	n/a	9	77	Cue	Loss	True
727.477	3.95	Lose2	0.6923	0.0	No	2.573	0.0	n/a	PrematurePress	-1	n/a	n/a	9	77	Fixation	Loss	True
731.439	0.41	Lose2	0.6923	0.0	No	2.573	0.012	2.0	PrematurePress	-1	0.051	730.49	9	77	Target	Loss	True
731.49	0.3	Lose2	0.6923	0.0	No	2.573	0.012	2.0	PrematurePress	-1	0.051	n/a	9	77	ButtonPress	Loss	True
731.84	0.29	Lose2	0.6923	n/a	No	2.573	n/a	n/a	PrematurePress	-1	n/a	n/a	9	77	Blank	Loss	True
732.125	1.45	Lose2	0.6923	n/a	No	2.573	n/a	5.0	PrematurePress	-1	0.037	731.162	9	77	Feedback	Loss	True
733.579	2.573	Lose2	0.6923	n/a	No	2.573	n/a	n/a	PrematurePress	-1	0.0	n/a	9	77	ISIslide	Loss	True
