onset	duration	cue_type	current_mean_accuracy	duration_error	is_hit	isi_adjusted	onset_delay	response	response_type	reward	rt	rt_time	total_reward	trial_number	trial_phase	trial_type	one_press
11.096	0.25	Control	1.0	0.001	Yes	2.954	-0.004	n/a	GoodResponse	0	n/a	n/a	0	0	Cue	Neutral	True
11.347	3.85	Control	1.0	0.0	Yes	2.954	0.001	n/a	GoodResponse	0	n/a	n/a	0	0	Fixation	Neutral	True
15.192	0.4	Control	1.0	0.004	Yes	2.954	-0.004	2.0	GoodResponse	0	0.244	14.436	0	0	Target	Neutral	True
15.436	0.3	Control	1.0	0.004	Yes	2.954	-0.004	2.0	GoodResponse	0	0.244	n/a	0	0	ButtonPress	Neutral	True
15.593	0.3	Control	1.0	n/a	Yes	2.954	n/a	n/a	GoodResponse	0	n/a	n/a	0	0	Blank	Neutral	True
15.894	1.45	Control	1.0	n/a	Yes	2.954	n/a	5.0	GoodResponse	0	0.033	14.927	0	0	Feedback	Neutral	True
17.349	2.954	Control	1.0	n/a	Yes	2.954	n/a	n/a	GoodResponse	0	0.0	n/a	0	0	ISIslide	Neutral	True
20.391	0.25	Lose2	1.0	0.0	Yes	2.709	0.091	n/a	GoodResponse	0	n/a	n/a	0	1	Cue	AvoidedLoss	True
20.642	4.0	Lose2	1.0	0.0	Yes	2.709	0.001	n/a	GoodResponse	0	n/a	n/a	0	1	Fixation	AvoidedLoss	True
24.637	0.39	Lose2	1.0	0.004	Yes	2.709	-0.004	2.0	GoodResponse	0	0.262	23.899	0	1	Target	AvoidedLoss	True
24.899	0.3	Lose2	1.0	0.004	Yes	2.709	-0.004	2.0	GoodResponse	0	0.262	n/a	0	1	ButtonPress	AvoidedLoss	True
25.038	0.31	Lose2	1.0	n/a	Yes	2.709	n/a	n/a	GoodResponse	0	n/a	n/a	0	1	Blank	AvoidedLoss	True
25.339	1.45	Lose2	1.0	n/a	Yes	2.709	n/a	5.0	GoodResponse	0	0.007	24.346	0	1	Feedback	AvoidedLoss	True
26.793	2.709	Lose2	1.0	n/a	Yes	2.709	n/a	n/a	GoodResponse	0	0.0	n/a	0	1	ISIslide	AvoidedLoss	True
29.518	0.25	Control	1.0	0.0	Yes	2.582	0.018	n/a	GoodResponse	0	n/a	n/a	0	2	Cue	Neutral	True
29.769	4.1	Control	1.0	0.0	Yes	2.582	0.001	n/a	GoodResponse	0	n/a	n/a	0	2	Fixation	Neutral	True
33.865	0.38	Control	1.0	0.003	Yes	2.582	-0.003	2.0	GoodResponse	0	0.23	33.095	0	2	Target	Neutral	True
34.095	0.3	Control	1.0	0.003	Yes	2.582	-0.003	2.0	GoodResponse	0	0.23	n/a	0	2	ButtonPress	Neutral	True
34.249	0.32	Control	1.0	n/a	Yes	2.582	n/a	n/a	GoodResponse	0	n/a	n/a	0	2	Blank	Neutral	True
34.567	1.45	Control	1.0	n/a	Yes	2.582	n/a	5.0	GoodResponse	0	0.043	33.61	0	2	Feedback	Neutral	True
36.021	2.582	Control	1.0	n/a	Yes	2.582	n/a	n/a	GoodResponse	0	0.0	n/a	0	2	ISIslide	Neutral	True
38.696	0.25	Win2	1.0	0.0	Yes	2.754	0.096	n/a	GoodResponse	1	n/a	n/a	1	3	Cue	Win	False
38.947	3.95	Win2	1.0	0.0	Yes	2.754	0.001	2.0	GoodResponse	1	0.396	38.343	1	3	Fixation	Win	False
39.343	0.3	Win2	1.0	0.0	Yes	2.754	0.001	2.0	GoodResponse	1	0.396	n/a	1	3	ButtonPress	Win	False
42.892	0.37	Win2	1.0	0.004	Yes	2.754	-0.004	2.0	GoodResponse	1	0.264	42.156	1	3	Target	Win	False
43.156	0.3	Win2	1.0	0.004	Yes	2.754	-0.004	2.0	GoodResponse	1	0.264	n/a	1	3	ButtonPress	Win	False
43.276	0.33	Win2	1.0	n/a	Yes	2.754	n/a	n/a	GoodResponse	1	n/a	n/a	1	3	Blank	Win	False
43.594	1.45	Win2	1.0	n/a	Yes	2.754	n/a	5.0	GoodResponse	1	0.039	42.633	1	3	Feedback	Win	False
45.048	2.754	Win2	1.0	n/a	Yes	2.754	n/a	n/a	GoodResponse	1	0.0	n/a	1	3	ISIslide	Win	False
47.823	0.25	Win2	1.0	0.0	Yes	3.277	0.023	n/a	GoodResponse	1	n/a	n/a	2	4	Cue	Win	True
48.074	4.0	Win2	1.0	0.0	Yes	3.277	0.001	n/a	GoodResponse	1	n/a	n/a	2	4	Fixation	Win	True
52.069	0.36	Win2	1.0	0.004	Yes	3.277	-0.004	2.0	GoodResponse	1	0.248	51.317	2	4	Target	Win	True
52.317	0.3	Win2	1.0	0.004	Yes	3.277	-0.004	2.0	GoodResponse	1	0.248	n/a	2	4	ButtonPress	Win	True
52.437	0.34	Win2	1.0	n/a	Yes	3.277	n/a	n/a	GoodResponse	1	n/a	n/a	2	4	Blank	Win	True
52.771	1.45	Win2	1.0	n/a	Yes	3.277	n/a	5.0	GoodResponse	1	0.033	51.804	2	4	Feedback	Win	True
54.226	3.277	Win2	1.0	n/a	Yes	3.277	n/a	n/a	GoodResponse	1	0.0	n/a	2	4	ISIslide	Win	True
57.519	0.25	Win2	1.0	0.0	Yes	2.781	0.019	n/a	GoodResponse	1	n/a	n/a	3	5	Cue	Win	True
57.77	4.0	Win2	1.0	0.0	Yes	2.781	0.001	n/a	GoodResponse	1	n/a	n/a	3	5	Fixation	Win	True
61.765	0.35	Win2	1.0	0.004	Yes	2.781	-0.004	2.0	GoodResponse	1	0.226	60.991	3	5	Target	Win	True
61.991	0.3	Win2	1.0	0.004	Yes	2.781	-0.004	2.0	GoodResponse	1	0.226	n/a	3	5	ButtonPress	Win	True
62.116	0.35	Win2	1.0	n/a	Yes	2.781	n/a	n/a	GoodResponse	1	n/a	n/a	3	5	Blank	Win	True
62.467	1.45	Win2	1.0	n/a	Yes	2.781	n/a	5.0	GoodResponse	1	0.045	61.512	3	5	Feedback	Win	True
63.921	2.781	Win2	1.0	n/a	Yes	2.781	n/a	n/a	GoodResponse	1	0.0	n/a	3	5	ISIslide	Win	True
66.73	0.25	Lose2	1.0	0.0	Yes	2.72	0.03	n/a	GoodResponse	0	n/a	n/a	3	6	Cue	AvoidedLoss	True
66.981	3.95	Lose2	1.0	0.0	Yes	2.72	0.001	n/a	GoodResponse	0	n/a	n/a	3	6	Fixation	AvoidedLoss	True
70.926	0.34	Lose2	1.0	0.004	Yes	2.72	-0.004	2.0	GoodResponse	0	0.232	70.158	3	6	Target	AvoidedLoss	True
71.158	0.3	Lose2	1.0	0.004	Yes	2.72	-0.004	2.0	GoodResponse	0	0.232	n/a	3	6	ButtonPress	AvoidedLoss	True
71.277	0.36	Lose2	1.0	n/a	Yes	2.72	n/a	n/a	GoodResponse	0	n/a	n/a	3	6	Blank	AvoidedLoss	True
71.628	1.45	Lose2	1.0	n/a	Yes	2.72	n/a	5.0	GoodResponse	0	0.007	70.635	3	6	Feedback	AvoidedLoss	True
73.082	2.72	Lose2	1.0	n/a	Yes	2.72	n/a	n/a	GoodResponse	0	0.0	n/a	3	6	ISIslide	AvoidedLoss	True
75.824	0.25	Lose2	1.0	0.0	Yes	4.026	0.024	n/a	GoodResponse	0	n/a	n/a	3	7	Cue	AvoidedLoss	True
76.075	4.05	Lose2	1.0	0.0	Yes	4.026	0.001	n/a	GoodResponse	0	n/a	n/a	3	7	Fixation	AvoidedLoss	True
80.12	0.33	Lose2	1.0	0.004	Yes	4.026	-0.004	2.0	GoodResponse	0	0.239	79.359	3	7	Target	AvoidedLoss	True
80.359	0.3	Lose2	1.0	0.004	Yes	4.026	-0.004	2.0	GoodResponse	0	0.239	n/a	3	7	ButtonPress	AvoidedLoss	True
80.454	0.37	Lose2	1.0	n/a	Yes	4.026	n/a	n/a	GoodResponse	0	n/a	n/a	3	7	Blank	AvoidedLoss	True
80.822	1.45	Lose2	1.0	n/a	Yes	4.026	n/a	5.0	GoodResponse	0	0.031	79.853	3	7	Feedback	AvoidedLoss	True
82.276	4.026	Lose2	1.0	n/a	Yes	4.026	n/a	n/a	GoodResponse	0	0.0	n/a	3	7	ISIslide	AvoidedLoss	True
86.322	0.25	Lose2	1.0	0.0	Yes	3.028	0.022	n/a	GoodResponse	0	n/a	n/a	3	8	Cue	AvoidedLoss	True
86.573	3.95	Lose2	1.0	0.0	Yes	3.028	0.001	n/a	GoodResponse	0	n/a	n/a	3	8	Fixation	AvoidedLoss	True
90.518	0.32	Lose2	1.0	0.004	Yes	3.028	-0.004	2.0	GoodResponse	0	0.243	89.761	3	8	Target	AvoidedLoss	True
90.761	0.3	Lose2	1.0	0.004	Yes	3.028	-0.004	2.0	GoodResponse	0	0.243	n/a	3	8	ButtonPress	AvoidedLoss	True
90.852	0.38	Lose2	1.0	n/a	Yes	3.028	n/a	n/a	GoodResponse	0	n/a	n/a	3	8	Blank	AvoidedLoss	True
91.22	1.45	Lose2	1.0	n/a	Yes	3.028	n/a	5.0	GoodResponse	0	0.024	90.244	3	8	Feedback	AvoidedLoss	True
92.674	3.028	Lose2	1.0	n/a	Yes	3.028	n/a	n/a	GoodResponse	0	0.0	n/a	3	8	ISIslide	AvoidedLoss	True
95.717	0.25	Lose2	1.0	0.0	Yes	3.133	0.017	n/a	GoodResponse	0	n/a	n/a	3	9	Cue	AvoidedLoss	True
95.967	3.95	Lose2	1.0	0.001	Yes	3.133	0.0	n/a	GoodResponse	0	n/a	n/a	3	9	Fixation	AvoidedLoss	True
99.913	0.31	Lose2	1.0	0.004	Yes	3.133	-0.004	2.0	GoodResponse	0	0.216	99.129	3	9	Target	AvoidedLoss	True
100.129	0.3	Lose2	1.0	0.004	Yes	3.133	-0.004	2.0	GoodResponse	0	0.216	n/a	3	9	ButtonPress	AvoidedLoss	True
100.23	0.39	Lose2	1.0	n/a	Yes	3.133	n/a	n/a	GoodResponse	0	n/a	n/a	3	9	Blank	AvoidedLoss	True
100.615	1.45	Lose2	1.0	n/a	Yes	3.133	n/a	5.0	GoodResponse	0	0.043	99.658	3	9	Feedback	AvoidedLoss	True
102.069	3.133	Lose2	1.0	n/a	Yes	3.133	n/a	n/a	GoodResponse	0	0.0	n/a	3	9	ISIslide	AvoidedLoss	True
105.229	0.25	Control	1.0	0.0	Yes	3.271	0.029	n/a	GoodResponse	0	n/a	n/a	3	10	Cue	Neutral	True
105.479	4.0	Control	1.0	0.0	Yes	3.271	0.0	n/a	GoodResponse	0	n/a	n/a	3	10	Fixation	Neutral	True
109.475	0.3	Control	1.0	0.004	Yes	3.271	-0.004	2.0	GoodResponse	0	0.28	108.755	3	10	Target	Neutral	True
109.755	0.3	Control	1.0	0.004	Yes	3.271	-0.004	2.0	GoodResponse	0	0.28	n/a	3	10	ButtonPress	Neutral	True
109.775	0.4	Control	1.0	n/a	Yes	3.271	n/a	n/a	GoodResponse	0	n/a	n/a	3	10	Blank	Neutral	True
110.177	1.45	Control	1.0	n/a	Yes	3.271	n/a	5.0	GoodResponse	0	0.042	109.219	3	10	Feedback	Neutral	True
111.631	3.271	Control	1.0	n/a	Yes	3.271	n/a	n/a	GoodResponse	0	0.0	n/a	3	10	ISIslide	Neutral	True
114.924	0.25	Lose2	1.0	0.0	Yes	2.726	0.024	n/a	GoodResponse	0	n/a	n/a	3	11	Cue	AvoidedLoss	True
115.175	4.05	Lose2	1.0	0.0	Yes	2.726	0.001	n/a	GoodResponse	0	n/a	n/a	3	11	Fixation	AvoidedLoss	True
119.22	0.29	Lose2	1.0	0.004	Yes	2.726	-0.004	2.0	GoodResponse	0	0.215	118.435	3	11	Target	AvoidedLoss	True
119.435	0.3	Lose2	1.0	0.004	Yes	2.726	-0.004	2.0	GoodResponse	0	0.215	n/a	3	11	ButtonPress	AvoidedLoss	True
119.521	0.41	Lose2	1.0	n/a	Yes	2.726	n/a	n/a	GoodResponse	0	n/a	n/a	3	11	Blank	AvoidedLoss	True
119.923	1.45	Lose2	1.0	n/a	Yes	2.726	n/a	5.0	GoodResponse	0	0.006	118.929	3	11	Feedback	AvoidedLoss	True
121.377	2.726	Lose2	1.0	n/a	Yes	2.726	n/a	n/a	GoodResponse	0	0.0	n/a	3	11	ISIslide	AvoidedLoss	True
124.118	0.25	Control	0.9231	0.001	No	2.982	0.018	n/a	NoResponse	0	n/a	n/a	3	12	Cue	Neutral	True
124.369	3.9	Control	0.9231	0.0	No	2.982	0.001	n/a	NoResponse	0	n/a	n/a	3	12	Fixation	Neutral	True
128.264	0.28	Control	0.9231	0.004	No	2.982	-0.004	2.0	NoResponse	0	0.302	127.566	3	12	Target	Neutral	True
128.548	0.42	Control	0.9231	n/a	No	2.982	n/a	n/a	NoResponse	0	n/a	n/a	3	12	Blank	Neutral	True
128.566	0.3	Control	0.9231	0.004	No	2.982	-0.004	2.0	NoResponse	0	0.302	n/a	3	12	ButtonPress	Neutral	True
128.966	1.45	Control	0.9231	n/a	No	2.982	n/a	5.0	NoResponse	0	0.033	127.999	3	12	Feedback	Neutral	True
130.421	2.982	Control	0.9231	n/a	No	2.982	n/a	n/a	NoResponse	0	0.0	n/a	3	12	ISIslide	Neutral	True
133.43	0.25	Control	0.8571	0.0	No	2.77	0.03	n/a	NoResponse	0	n/a	n/a	3	13	Cue	Neutral	True
133.68	4.0	Control	0.8571	0.001	No	2.77	0.0	n/a	NoResponse	0	n/a	n/a	3	13	Fixation	Neutral	True
137.676	0.27	Control	0.8571	0.004	No	2.77	-0.004	2.0	NoResponse	0	0.357	137.033	3	13	Target	Neutral	True
137.96	0.43	Control	0.8571	n/a	No	2.77	n/a	n/a	NoResponse	0	n/a	n/a	3	13	Blank	Neutral	True
138.033	0.3	Control	0.8571	0.004	No	2.77	-0.004	2.0	NoResponse	0	0.357	n/a	3	13	ButtonPress	Neutral	True
138.378	1.45	Control	0.8571	n/a	No	2.77	n/a	5.0	NoResponse	0	0.036	137.414	3	13	Feedback	Neutral	True
139.832	2.77	Control	0.8571	n/a	No	2.77	n/a	n/a	NoResponse	0	0.0	n/a	3	13	ISIslide	Neutral	True
142.624	0.25	Win2	0.8667	0.0	Yes	2.676	0.024	n/a	GoodResponse	1	n/a	n/a	4	14	Cue	Win	True
142.875	4.1	Win2	0.8667	0.0	Yes	2.676	0.001	n/a	GoodResponse	1	n/a	n/a	4	14	Fixation	Win	True
146.97	0.26	Win2	0.8667	0.004	Yes	2.676	-0.004	2.0	GoodResponse	1	0.259	146.229	4	14	Target	Win	True
147.229	0.3	Win2	0.8667	0.004	Yes	2.676	-0.004	2.0	GoodResponse	1	0.259	n/a	4	14	ButtonPress	Win	True
147.238	0.44	Win2	0.8667	n/a	Yes	2.676	n/a	n/a	GoodResponse	1	n/a	n/a	4	14	Blank	Win	True
147.672	1.45	Win2	0.8667	n/a	Yes	2.676	n/a	5.0	GoodResponse	1	0.01	146.682	4	14	Feedback	Win	True
149.127	2.676	Win2	0.8667	n/a	Yes	2.676	n/a	n/a	GoodResponse	1	0.0	n/a	4	14	ISIslide	Win	True
151.818	0.25	Control	0.8125	0.0	No	2.982	0.018	n/a	NoResponse	0	n/a	n/a	4	15	Cue	Neutral	True
152.069	4.0	Control	0.8125	0.0	No	2.982	0.001	n/a	NoResponse	0	n/a	n/a	4	15	Fixation	Neutral	True
156.064	0.25	Control	0.8125	0.004	No	2.982	-0.004	2.0	NoResponse	0	0.288	155.352	4	15	Target	Neutral	True
156.315	0.45	Control	0.8125	n/a	No	2.982	n/a	n/a	NoResponse	0	n/a	n/a	4	15	Blank	Neutral	True
156.352	0.3	Control	0.8125	0.004	No	2.982	-0.004	2.0	NoResponse	0	0.288	n/a	4	15	ButtonPress	Neutral	True
156.766	1.45	Control	0.8125	n/a	No	2.982	n/a	5.0	NoResponse	0	0.038	155.804	4	15	Feedback	Neutral	True
158.221	2.982	Control	0.8125	n/a	No	2.982	n/a	n/a	NoResponse	0	0.0	n/a	4	15	ISIslide	Neutral	True
161.23	0.25	Win2	0.8234999999999999	0.0	Yes	2.87	0.03	n/a	GoodResponse	1	n/a	n/a	5	16	Cue	Win	True
161.48	4.0	Win2	0.8234999999999999	0.0	Yes	2.87	0.0	n/a	GoodResponse	1	n/a	n/a	5	16	Fixation	Win	True
165.476	0.24	Win2	0.8234999999999999	0.004	Yes	2.87	-0.004	2.0	GoodResponse	1	0.22	164.696	5	16	Target	Win	True
165.696	0.3	Win2	0.8234999999999999	0.004	Yes	2.87	-0.004	2.0	GoodResponse	1	0.22	n/a	5	16	ButtonPress	Win	True
165.726	0.46	Win2	0.8234999999999999	n/a	Yes	2.87	n/a	n/a	GoodResponse	1	n/a	n/a	5	16	Blank	Win	True
166.178	1.45	Win2	0.8234999999999999	n/a	Yes	2.87	n/a	5.0	GoodResponse	1	0.04	165.218	5	16	Feedback	Win	True
167.632	2.87	Win2	0.8234999999999999	n/a	Yes	2.87	n/a	n/a	GoodResponse	1	0.0	n/a	5	16	ISIslide	Win	True
170.524	0.25	Lose2	0.7778	0.0	No	2.726	0.024	n/a	NoResponse	-1	n/a	n/a	4	17	Cue	Loss	True
170.775	3.95	Lose2	0.7778	0.0	No	2.726	0.001	n/a	NoResponse	-1	n/a	n/a	4	17	Fixation	Loss	True
174.72	0.23	Lose2	0.7778	0.004	No	2.726	-0.004	2.0	NoResponse	-1	0.246	173.966	4	17	Target	Loss	True
174.954	0.47	Lose2	0.7778	n/a	No	2.726	n/a	n/a	NoResponse	-1	n/a	n/a	4	17	Blank	Loss	True
174.966	0.3	Lose2	0.7778	0.004	No	2.726	-0.004	2.0	NoResponse	-1	0.246	n/a	4	17	ButtonPress	Loss	True
175.422	1.45	Lose2	0.7778	n/a	No	2.726	n/a	5.0	NoResponse	-1	0.016	174.438	4	17	Feedback	Loss	True
176.877	2.726	Lose2	0.7778	n/a	No	2.726	n/a	n/a	NoResponse	-1	0.0	n/a	4	17	ISIslide	Loss	True
179.618	0.25	Lose2	0.7895	0.0	Yes	2.732	0.018	n/a	GoodResponse	0	n/a	n/a	4	18	Cue	AvoidedLoss	True
179.869	4.05	Lose2	0.7895	0.0	Yes	2.732	0.001	n/a	GoodResponse	0	n/a	n/a	4	18	Fixation	AvoidedLoss	True
183.914	0.22	Lose2	0.7895	0.004	Yes	2.732	-0.004	2.0	GoodResponse	0	0.219	183.133	4	18	Target	AvoidedLoss	True
184.133	0.3	Lose2	0.7895	0.004	Yes	2.732	-0.004	2.0	GoodResponse	0	0.219	n/a	4	18	ButtonPress	AvoidedLoss	True
184.148	0.48	Lose2	0.7895	n/a	Yes	2.732	n/a	n/a	GoodResponse	0	n/a	n/a	4	18	Blank	AvoidedLoss	True
184.616	1.45	Lose2	0.7895	n/a	Yes	2.732	n/a	5.0	GoodResponse	0	0.041	183.657	4	18	Feedback	AvoidedLoss	True
186.071	2.732	Lose2	0.7895	n/a	Yes	2.732	n/a	n/a	GoodResponse	0	0.0	n/a	4	18	ISIslide	AvoidedLoss	True
188.829	0.25	Control	0.75	0.0	No	2.921	0.029	n/a	NoResponse	0	n/a	n/a	4	19	Cue	Neutral	True
189.08	3.95	Control	0.75	0.0	No	2.921	0.001	n/a	NoResponse	0	n/a	n/a	4	19	Fixation	Neutral	True
193.025	0.21	Control	0.75	0.004	No	2.921	-0.004	2.0	NoResponse	0	0.246	192.271	4	19	Target	Neutral	True
193.242	0.49	Control	0.75	n/a	No	2.921	n/a	n/a	NoResponse	0	n/a	n/a	4	19	Blank	Neutral	True
193.271	0.3	Control	0.75	0.004	No	2.921	-0.004	2.0	NoResponse	0	0.246	n/a	4	19	ButtonPress	Neutral	True
193.727	1.45	Control	0.75	n/a	No	2.921	n/a	5.0	NoResponse	0	0.007	192.734	4	19	Feedback	Neutral	True
195.181	2.921	Control	0.75	n/a	No	2.921	n/a	n/a	NoResponse	0	0.0	n/a	4	19	ISIslide	Neutral	True
198.124	0.25	Control	0.7143	0.0	No	2.626	0.024	n/a	NoResponse	0	n/a	n/a	4	20	Cue	Neutral	True
198.374	4.05	Control	0.7143	0.0	No	2.626	0.0	n/a	NoResponse	0	n/a	n/a	4	20	Fixation	Neutral	True
202.42	0.2	Control	0.7143	0.004	No	2.626	-0.004	2.0	NoResponse	0	0.228	201.648	4	20	Target	Neutral	True
202.62	0.5	Control	0.7143	n/a	No	2.626	n/a	n/a	NoResponse	0	n/a	n/a	4	20	Blank	Neutral	True
202.648	0.3	Control	0.7143	0.004	No	2.626	-0.004	2.0	NoResponse	0	0.228	n/a	4	20	ButtonPress	Neutral	True
203.122	1.45	Control	0.7143	n/a	No	2.626	n/a	5.0	NoResponse	0	0.023	202.145	4	20	Feedback	Neutral	True
204.576	2.626	Control	0.7143	n/a	No	2.626	n/a	n/a	NoResponse	0	0.0	n/a	4	20	ISIslide	Neutral	True
207.217	0.25	Control	0.6818000000000001	0.001	No	2.783	0.017	n/a	NoResponse	0	n/a	n/a	4	21	Cue	Neutral	True
207.468	4.1	Control	0.6818000000000001	0.0	No	2.783	0.001	n/a	NoResponse	0	n/a	n/a	4	21	Fixation	Neutral	True
211.564	0.19	Control	0.6818000000000001	0.003	No	2.783	-0.003	2.0	NoResponse	0	0.347	210.911	4	21	Target	Neutral	True
211.764	0.51	Control	0.6818000000000001	n/a	No	2.783	n/a	n/a	NoResponse	0	n/a	n/a	4	21	Blank	Neutral	True
211.911	0.3	Control	0.6818000000000001	0.003	No	2.783	-0.003	2.0	NoResponse	0	0.347	n/a	4	21	ButtonPress	Neutral	True
212.266	1.45	Control	0.6818000000000001	n/a	No	2.783	n/a	5.0	NoResponse	0	0.001	211.267	4	21	Feedback	Neutral	True
213.72	2.783	Control	0.6818000000000001	n/a	No	2.783	n/a	n/a	NoResponse	0	0.0	n/a	4	21	ISIslide	Neutral	True
216.529	0.25	Control	0.6522	0.0	No	2.771	0.029	n/a	NoResponse	0	n/a	n/a	4	22	Cue	Neutral	True
216.779	4.0	Control	0.6522	0.001	No	2.771	0.0	n/a	NoResponse	0	n/a	n/a	4	22	Fixation	Neutral	True
220.775	0.18	Control	0.6522	0.004	No	2.771	-0.004	2.0	NoResponse	0	0.266	220.041	4	22	Target	Neutral	True
220.959	0.52	Control	0.6522	n/a	No	2.771	n/a	n/a	NoResponse	0	n/a	n/a	4	22	Blank	Neutral	True
221.041	0.3	Control	0.6522	0.004	No	2.771	-0.004	2.0	NoResponse	0	0.266	n/a	4	22	ButtonPress	Neutral	True
221.477	1.45	Control	0.6522	n/a	No	2.771	n/a	5.0	NoResponse	0	0.009	220.486	4	22	Feedback	Neutral	True
222.931	2.771	Control	0.6522	n/a	No	2.771	n/a	n/a	NoResponse	0	0.0	n/a	4	22	ISIslide	Neutral	True
225.723	0.25	Control	0.625	0.0	No	2.777	0.023	n/a	NoResponse	0	n/a	n/a	4	23	Cue	Neutral	True
225.974	3.9	Control	0.625	0.0	No	2.777	0.001	n/a	NoResponse	0	n/a	n/a	4	23	Fixation	Neutral	True
229.869	0.19	Control	0.625	0.004	No	2.777	-0.004	2.0	NoResponse	0	0.275	229.144	4	23	Target	Neutral	True
230.069	0.51	Control	0.625	n/a	No	2.777	n/a	n/a	NoResponse	0	n/a	n/a	4	23	Blank	Neutral	True
230.144	0.3	Control	0.625	0.004	No	2.777	-0.004	2.0	NoResponse	0	0.275	n/a	4	23	ButtonPress	Neutral	True
230.571	1.45	Control	0.625	n/a	No	2.777	n/a	5.0	NoResponse	0	0.037	229.608	4	23	Feedback	Neutral	True
232.025	2.777	Control	0.625	n/a	No	2.777	n/a	n/a	NoResponse	0	0.0	n/a	4	23	ISIslide	Neutral	True
234.817	0.25	Win2	0.64	0.0	Yes	3.133	0.017	n/a	GoodResponse	1	n/a	n/a	5	24	Cue	Win	True
235.068	3.95	Win2	0.64	0.0	Yes	3.133	0.001	n/a	GoodResponse	1	n/a	n/a	5	24	Fixation	Win	True
239.013	0.2	Win2	0.64	0.004	Yes	3.133	-0.004	2.0	GoodResponse	1	0.189	238.202	5	24	Target	Win	True
239.202	0.3	Win2	0.64	0.004	Yes	3.133	-0.004	2.0	GoodResponse	1	0.189	n/a	5	24	ButtonPress	Win	True
239.213	0.5	Win2	0.64	n/a	Yes	3.133	n/a	n/a	GoodResponse	1	n/a	n/a	5	24	Blank	Win	True
239.715	1.45	Win2	0.64	n/a	Yes	3.133	n/a	5.0	GoodResponse	1	0.015	238.73	5	24	Feedback	Win	True
241.169	3.133	Win2	0.64	n/a	Yes	3.133	n/a	n/a	GoodResponse	1	0.0	n/a	5	24	ISIslide	Win	True
244.329	0.25	Win2	0.6154	0.0	No	3.071	0.029	n/a	NoResponse	0	n/a	n/a	5	25	Cue	MissedWin	True
244.579	4.0	Win2	0.6154	0.0	No	3.071	0.0	n/a	NoResponse	0	n/a	n/a	5	25	Fixation	MissedWin	True
248.575	0.21	Win2	0.6154	0.004	No	3.071	-0.004	2.0	NoResponse	0	0.244	247.819	5	25	Target	MissedWin	True
248.792	0.49	Win2	0.6154	n/a	No	3.071	n/a	n/a	NoResponse	0	n/a	n/a	5	25	Blank	MissedWin	True
248.819	0.3	Win2	0.6154	0.004	No	3.071	-0.004	2.0	NoResponse	0	0.244	n/a	5	25	ButtonPress	MissedWin	True
249.277	1.45	Win2	0.6154	n/a	No	3.071	n/a	5.0	NoResponse	0	0.014	248.291	5	25	Feedback	MissedWin	True
250.731	3.071	Win2	0.6154	n/a	No	3.071	n/a	n/a	NoResponse	0	0.0	n/a	5	25	ISIslide	MissedWin	True
253.824	0.25	Win2	0.6296	0.0	Yes	2.926	0.024	n/a	GoodResponse	1	n/a	n/a	6	26	Cue	Win	True
254.075	3.95	Win2	0.6296	0.0	Yes	2.926	0.001	n/a	GoodResponse	1	n/a	n/a	6	26	Fixation	Win	True
258.02	0.22	Win2	0.6296	0.004	Yes	2.926	-0.004	2.0	GoodResponse	1	0.219	257.239	6	26	Target	Win	True
258.239	0.3	Win2	0.6296	0.004	Yes	2.926	-0.004	2.0	GoodResponse	1	0.219	n/a	6	26	ButtonPress	Win	True
258.254	0.48	Win2	0.6296	n/a	Yes	2.926	n/a	n/a	GoodResponse	1	n/a	n/a	6	26	Blank	Win	True
258.722	1.45	Win2	0.6296	n/a	Yes	2.926	n/a	5.0	GoodResponse	1	0.033	257.755	6	26	Feedback	Win	True
260.176	2.926	Win2	0.6296	n/a	Yes	2.926	n/a	n/a	GoodResponse	1	0.0	n/a	6	26	ISIslide	Win	True
263.118	0.25	Lose2	0.6429	0.0	Yes	2.832	0.018	n/a	GoodResponse	0	n/a	n/a	6	27	Cue	AvoidedLoss	True
263.369	4.05	Lose2	0.6429	0.0	Yes	2.832	0.001	n/a	GoodResponse	0	n/a	n/a	6	27	Fixation	AvoidedLoss	True
267.415	0.23	Lose2	0.6429	0.003	Yes	2.832	-0.003	2.0	GoodResponse	0	0.2	266.615	6	27	Target	AvoidedLoss	True
267.615	0.3	Lose2	0.6429	0.003	Yes	2.832	-0.003	2.0	GoodResponse	0	0.2	n/a	6	27	ButtonPress	AvoidedLoss	True
267.649	0.47	Lose2	0.6429	n/a	Yes	2.832	n/a	n/a	GoodResponse	0	n/a	n/a	6	27	Blank	AvoidedLoss	True
268.117	1.45	Lose2	0.6429	n/a	Yes	2.832	n/a	5.0	GoodResponse	0	0.006	267.123	6	27	Feedback	AvoidedLoss	True
269.571	2.832	Lose2	0.6429	n/a	Yes	2.832	n/a	n/a	GoodResponse	0	0.0	n/a	6	27	ISIslide	AvoidedLoss	True
272.43	0.25	Control	0.6552	0.0	Yes	2.82	0.03	n/a	GoodResponse	0	n/a	n/a	6	28	Cue	Neutral	True
272.68	4.05	Control	0.6552	0.0	Yes	2.82	0.0	n/a	GoodResponse	0	n/a	n/a	6	28	Fixation	Neutral	True
276.726	0.24	Control	0.6552	0.004	Yes	2.82	-0.004	2.0	GoodResponse	0	0.238	275.964	6	28	Target	Neutral	True
276.964	0.3	Control	0.6552	0.004	Yes	2.82	-0.004	2.0	GoodResponse	0	0.238	n/a	6	28	ButtonPress	Neutral	True
276.976	0.46	Control	0.6552	n/a	Yes	2.82	n/a	n/a	GoodResponse	0	n/a	n/a	6	28	Blank	Neutral	True
277.428	1.45	Control	0.6552	n/a	Yes	2.82	n/a	5.0	GoodResponse	0	0.01	276.438	6	28	Feedback	Neutral	True
278.882	2.82	Control	0.6552	n/a	Yes	2.82	n/a	n/a	GoodResponse	0	0.0	n/a	6	28	ISIslide	Neutral	True
281.724	0.25	Lose2	0.6667000000000001	0.0	Yes	2.826	0.024	n/a	GoodResponse	0	n/a	n/a	6	29	Cue	AvoidedLoss	True
281.975	3.95	Lose2	0.6667000000000001	0.0	Yes	2.826	0.001	n/a	GoodResponse	0	n/a	n/a	6	29	Fixation	AvoidedLoss	True
285.92	0.24	Lose2	0.6667000000000001	0.004	Yes	2.826	-0.004	2.0	GoodResponse	0	0.212	285.132	6	29	Target	AvoidedLoss	True
286.132	0.3	Lose2	0.6667000000000001	0.004	Yes	2.826	-0.004	2.0	GoodResponse	0	0.212	n/a	6	29	ButtonPress	AvoidedLoss	True
286.171	0.46	Lose2	0.6667000000000001	n/a	Yes	2.826	n/a	n/a	GoodResponse	0	n/a	n/a	6	29	Blank	AvoidedLoss	True
286.622	1.45	Lose2	0.6667000000000001	n/a	Yes	2.826	n/a	5.0	GoodResponse	0	0.034	285.656	6	29	Feedback	AvoidedLoss	True
288.076	2.826	Lose2	0.6667000000000001	n/a	Yes	2.826	n/a	n/a	GoodResponse	0	0.0	n/a	6	29	ISIslide	AvoidedLoss	True
290.918	0.25	Win2	0.6774	0.0	Yes	2.782	0.018	n/a	GoodResponse	1	n/a	n/a	7	30	Cue	Win	True
291.169	3.9	Win2	0.6774	0.0	Yes	2.782	0.001	n/a	GoodResponse	1	n/a	n/a	7	30	Fixation	Win	True
295.064	0.23	Win2	0.6774	0.004	Yes	2.782	-0.004	2.0	GoodResponse	1	0.202	294.266	7	30	Target	Win	True
295.266	0.3	Win2	0.6774	0.004	Yes	2.782	-0.004	2.0	GoodResponse	1	0.202	n/a	7	30	ButtonPress	Win	True
295.298	0.47	Win2	0.6774	n/a	Yes	2.782	n/a	n/a	GoodResponse	1	n/a	n/a	7	30	Blank	Win	True
295.766	1.45	Win2	0.6774	n/a	Yes	2.782	n/a	5.0	GoodResponse	1	0.012	294.778	7	30	Feedback	Win	True
297.22	2.782	Win2	0.6774	n/a	Yes	2.782	n/a	n/a	GoodResponse	1	0.0	n/a	7	30	ISIslide	Win	True
300.029	0.25	Lose2	0.6562	0.0	No	2.821	0.029	n/a	NoResponse	-1	n/a	n/a	6	31	Cue	Loss	True
300.28	4.05	Lose2	0.6562	0.0	No	2.821	0.001	n/a	NoResponse	-1	n/a	n/a	6	31	Fixation	Loss	True
304.325	0.22	Lose2	0.6562	0.004	No	2.821	-0.004	2.0	NoResponse	-1	0.242	303.567	6	31	Target	Loss	True
304.559	0.48	Lose2	0.6562	n/a	No	2.821	n/a	n/a	NoResponse	-1	n/a	n/a	6	31	Blank	Loss	True
304.567	0.3	Lose2	0.6562	0.004	No	2.821	-0.004	2.0	NoResponse	-1	0.242	n/a	6	31	ButtonPress	Loss	True
305.027	1.45	Lose2	0.6562	n/a	No	2.821	n/a	5.0	NoResponse	-1	0.02	304.047	6	31	Feedback	Loss	True
306.482	2.821	Lose2	0.6562	n/a	No	2.821	n/a	n/a	NoResponse	-1	0.0	n/a	6	31	ISIslide	Loss	True
309.323	0.25	Lose2	0.6364	0.0	No	2.627	0.023	n/a	PrematurePress	-1	n/a	n/a	5	32	Cue	Loss	True
309.574	4.15	Lose2	0.6364	0.0	No	2.627	0.001	n/a	PrematurePress	-1	n/a	n/a	5	32	Fixation	Loss	True
313.72	0.22	Lose2	0.6364	0.003	No	2.627	-0.003	2.0	PrematurePress	-1	0.007	312.727	5	32	Target	Loss	True
313.727	0.3	Lose2	0.6364	0.003	No	2.627	-0.003	2.0	PrematurePress	-1	0.007	n/a	5	32	ButtonPress	Loss	True
313.954	0.48	Lose2	0.6364	n/a	No	2.627	n/a	n/a	PrematurePress	-1	n/a	n/a	5	32	Blank	Loss	True
314.422	1.45	Lose2	0.6364	n/a	No	2.627	n/a	5.0	PrematurePress	-1	0.04	313.462	5	32	Feedback	Loss	True
315.876	2.627	Lose2	0.6364	n/a	No	2.627	n/a	n/a	PrematurePress	-1	0.0	n/a	5	32	ISIslide	Loss	True
318.518	0.25	Win2	0.6470999999999999	0.0	Yes	2.682	0.018	n/a	GoodResponse	1	n/a	n/a	6	33	Cue	Win	True
318.768	4.0	Win2	0.6470999999999999	0.0	Yes	2.682	0.0	n/a	GoodResponse	1	n/a	n/a	6	33	Fixation	Win	True
322.764	0.23	Win2	0.6470999999999999	0.004	Yes	2.682	-0.004	2.0	GoodResponse	1	0.221	321.985	6	33	Target	Win	True
322.985	0.3	Win2	0.6470999999999999	0.004	Yes	2.682	-0.004	2.0	GoodResponse	1	0.221	n/a	6	33	ButtonPress	Win	True
322.998	0.47	Win2	0.6470999999999999	n/a	Yes	2.682	n/a	n/a	GoodResponse	1	n/a	n/a	6	33	Blank	Win	True
323.466	1.45	Win2	0.6470999999999999	n/a	Yes	2.682	n/a	5.0	GoodResponse	1	0.02	322.486	6	33	Feedback	Win	True
324.92	2.682	Win2	0.6470999999999999	n/a	Yes	2.682	n/a	n/a	GoodResponse	1	0.0	n/a	6	33	ISIslide	Win	True
327.628	0.25	Lose2	0.6570999999999999	0.0	Yes	2.622	0.028	n/a	GoodResponse	0	n/a	n/a	6	34	Cue	AvoidedLoss	True
327.879	4.05	Lose2	0.6570999999999999	0.0	Yes	2.622	0.001	n/a	GoodResponse	0	n/a	n/a	6	34	Fixation	AvoidedLoss	True
331.924	0.24	Lose2	0.6570999999999999	0.004	Yes	2.622	-0.004	2.0	GoodResponse	0	0.204	331.128	6	34	Target	AvoidedLoss	True
332.128	0.3	Lose2	0.6570999999999999	0.004	Yes	2.622	-0.004	2.0	GoodResponse	0	0.204	n/a	6	34	ButtonPress	AvoidedLoss	True
332.175	0.46	Lose2	0.6570999999999999	n/a	Yes	2.622	n/a	n/a	GoodResponse	0	n/a	n/a	6	34	Blank	AvoidedLoss	True
332.627	1.45	Lose2	0.6570999999999999	n/a	Yes	2.622	n/a	5.0	GoodResponse	0	0.03	331.657	6	34	Feedback	AvoidedLoss	True
334.081	2.622	Lose2	0.6570999999999999	n/a	Yes	2.622	n/a	n/a	GoodResponse	0	0.0	n/a	6	34	ISIslide	AvoidedLoss	True
336.722	0.25	Lose2	0.6667000000000001	0.0	Yes	2.678	0.022	n/a	GoodResponse	0	n/a	n/a	6	35	Cue	AvoidedLoss	True
336.973	4.0	Lose2	0.6667000000000001	0.0	Yes	2.678	0.001	n/a	GoodResponse	0	n/a	n/a	6	35	Fixation	AvoidedLoss	True
340.968	0.24	Lose2	0.6667000000000001	0.004	Yes	2.678	-0.004	2.0	GoodResponse	0	0.226	340.194	6	35	Target	AvoidedLoss	True
341.194	0.3	Lose2	0.6667000000000001	0.004	Yes	2.678	-0.004	2.0	GoodResponse	0	0.226	n/a	6	35	ButtonPress	AvoidedLoss	True
341.219	0.46	Lose2	0.6667000000000001	n/a	Yes	2.678	n/a	n/a	GoodResponse	0	n/a	n/a	6	35	Blank	AvoidedLoss	True
341.67	1.45	Lose2	0.6667000000000001	n/a	Yes	2.678	n/a	5.0	GoodResponse	0	0.01	340.68	6	35	Feedback	AvoidedLoss	True
343.125	2.678	Lose2	0.6667000000000001	n/a	Yes	2.678	n/a	n/a	GoodResponse	0	0.0	n/a	6	35	ISIslide	AvoidedLoss	True
345.816	0.25	Control	0.6486	0.0	No	2.684	0.016	n/a	NoResponse	0	n/a	n/a	6	36	Cue	Neutral	True
346.067	4.0	Control	0.6486	0.0	No	2.684	0.001	n/a	NoResponse	0	n/a	n/a	6	36	Fixation	Neutral	True
350.062	0.23	Control	0.6486	0.004	No	2.684	-0.004	2.0	NoResponse	0	0.317	349.379	6	36	Target	Neutral	True
350.296	0.47	Control	0.6486	n/a	No	2.684	n/a	n/a	NoResponse	0	n/a	n/a	6	36	Blank	Neutral	True
350.379	0.3	Control	0.6486	0.004	No	2.684	-0.004	2.0	NoResponse	0	0.317	n/a	6	36	ButtonPress	Neutral	True
350.764	1.45	Control	0.6486	n/a	No	2.684	n/a	5.0	NoResponse	0	0.038	349.802	6	36	Feedback	Neutral	True
352.219	2.684	Control	0.6486	n/a	No	2.684	n/a	n/a	NoResponse	0	0.0	n/a	6	36	ISIslide	Neutral	True
354.927	0.25	Win2	0.6579	0.0	Yes	2.873	0.027	n/a	GoodResponse	1	n/a	n/a	7	37	Cue	Win	True
355.177	4.0	Win2	0.6579	0.001	Yes	2.873	0.0	n/a	GoodResponse	1	n/a	n/a	7	37	Fixation	Win	True
359.173	0.24	Win2	0.6579	0.004	Yes	2.873	-0.004	2.0	GoodResponse	1	0.212	358.385	7	37	Target	Win	True
359.385	0.3	Win2	0.6579	0.004	Yes	2.873	-0.004	2.0	GoodResponse	1	0.212	n/a	7	37	ButtonPress	Win	True
359.424	0.46	Win2	0.6579	n/a	Yes	2.873	n/a	n/a	GoodResponse	1	n/a	n/a	7	37	Blank	Win	True
359.875	1.45	Win2	0.6579	n/a	Yes	2.873	n/a	5.0	GoodResponse	1	0.001	358.876	7	37	Feedback	Win	True
361.329	2.873	Win2	0.6579	n/a	Yes	2.873	n/a	n/a	GoodResponse	1	0.0	n/a	7	37	ISIslide	Win	True
364.221	0.25	Lose2	0.6667000000000001	0.0	Yes	2.829	0.021	n/a	GoodResponse	0	n/a	n/a	7	38	Cue	AvoidedLoss	True
364.472	3.95	Lose2	0.6667000000000001	0.0	Yes	2.829	0.001	n/a	GoodResponse	0	n/a	n/a	7	38	Fixation	AvoidedLoss	True
368.417	0.24	Lose2	0.6667000000000001	0.004	Yes	2.829	-0.004	2.0	GoodResponse	0	0.193	367.61	7	38	Target	AvoidedLoss	True
368.61	0.3	Lose2	0.6667000000000001	0.004	Yes	2.829	-0.004	2.0	GoodResponse	0	0.193	n/a	7	38	ButtonPress	AvoidedLoss	True
368.668	0.46	Lose2	0.6667000000000001	n/a	Yes	2.829	n/a	n/a	GoodResponse	0	n/a	n/a	7	38	Blank	AvoidedLoss	True
369.119	1.45	Lose2	0.6667000000000001	n/a	Yes	2.829	n/a	5.0	GoodResponse	0	0.025	368.144	7	38	Feedback	AvoidedLoss	True
370.574	2.829	Lose2	0.6667000000000001	n/a	Yes	2.829	n/a	n/a	GoodResponse	0	0.0	n/a	7	38	ISIslide	AvoidedLoss	True
373.415	0.25	Win2	0.675	0.001	Yes	2.985	0.015	n/a	GoodResponse	1	n/a	n/a	8	39	Cue	Win	True
373.666	4.1	Win2	0.675	0.0	Yes	2.985	0.001	n/a	GoodResponse	1	n/a	n/a	8	39	Fixation	Win	True
377.762	0.23	Win2	0.675	0.003	Yes	2.985	-0.003	2.0	GoodResponse	1	0.213	376.975	8	39	Target	Win	True
377.975	0.3	Win2	0.675	0.003	Yes	2.985	-0.003	2.0	GoodResponse	1	0.213	n/a	8	39	ButtonPress	Win	True
377.996	0.47	Win2	0.675	n/a	Yes	2.985	n/a	n/a	GoodResponse	1	n/a	n/a	8	39	Blank	Win	True
378.464	1.45	Win2	0.675	n/a	Yes	2.985	n/a	5.0	GoodResponse	1	0.046	377.51	8	39	Feedback	Win	True
379.918	2.985	Win2	0.675	n/a	Yes	2.985	n/a	n/a	GoodResponse	1	0.0	n/a	8	39	ISIslide	Win	True
382.927	0.25	Win2	0.6585	0.0	No	2.723	0.027	n/a	LatePress	0	n/a	n/a	8	40	Cue	MissedWin	False
383.178	3.95	Win2	0.6585	0.0	No	2.723	0.001	2.0	LatePress	0	1.5	383.678	8	40	Fixation	MissedWin	False
384.678	0.3	Win2	0.6585	0.0	No	2.723	0.001	2.0	LatePress	0	1.5	n/a	8	40	ButtonPress	MissedWin	False
387.123	0.22	Win2	0.6585	0.004	No	2.723	-0.004	2.0	LatePress	0	0.233	386.356	8	40	Target	MissedWin	False
387.356	0.3	Win2	0.6585	0.004	No	2.723	-0.004	2.0	LatePress	0	0.233	n/a	8	40	ButtonPress	MissedWin	False
387.357	0.48	Win2	0.6585	n/a	No	2.723	n/a	n/a	LatePress	0	n/a	n/a	8	40	Blank	MissedWin	False
387.825	1.45	Win2	0.6585	n/a	No	2.723	n/a	5.0	LatePress	0	0.002	386.827	8	40	Feedback	MissedWin	False
389.28	2.723	Win2	0.6585	n/a	No	2.723	n/a	n/a	LatePress	0	0.0	n/a	8	40	ISIslide	MissedWin	False
392.021	0.25	Win2	0.6667000000000001	0.0	Yes	2.779	0.021	n/a	GoodResponse	1	n/a	n/a	9	41	Cue	Win	True
392.272	3.9	Win2	0.6667000000000001	0.0	Yes	2.779	0.001	n/a	GoodResponse	1	n/a	n/a	9	41	Fixation	Win	True
396.167	0.22	Win2	0.6667000000000001	0.004	Yes	2.779	-0.004	2.0	GoodResponse	1	0.206	395.373	9	41	Target	Win	True
396.373	0.3	Win2	0.6667000000000001	0.004	Yes	2.779	-0.004	2.0	GoodResponse	1	0.206	n/a	9	41	ButtonPress	Win	True
396.401	0.48	Win2	0.6667000000000001	n/a	Yes	2.779	n/a	n/a	GoodResponse	1	n/a	n/a	9	41	Blank	Win	True
396.869	1.45	Win2	0.6667000000000001	n/a	Yes	2.779	n/a	5.0	GoodResponse	1	0.031	395.9	9	41	Feedback	Win	True
398.323	2.779	Win2	0.6667000000000001	n/a	Yes	2.779	n/a	n/a	GoodResponse	1	0.0	n/a	9	41	ISIslide	Win	True
401.115	0.25	Control	0.6512	0.0	No	2.935	0.015	n/a	NoResponse	0	n/a	n/a	9	42	Cue	Neutral	True
401.366	3.85	Control	0.6512	0.0	No	2.935	0.001	n/a	NoResponse	0	n/a	n/a	9	42	Fixation	Neutral	True
405.211	0.21	Control	0.6512	0.004	No	2.935	-0.004	2.0	NoResponse	0	0.315	404.526	9	42	Target	Neutral	True
405.428	0.49	Control	0.6512	n/a	No	2.935	n/a	n/a	NoResponse	0	n/a	n/a	9	42	Blank	Neutral	True
405.526	0.3	Control	0.6512	0.004	No	2.935	-0.004	2.0	NoResponse	0	0.315	n/a	9	42	ButtonPress	Neutral	True
405.913	1.45	Control	0.6512	n/a	No	2.935	n/a	5.0	NoResponse	0	0.011	404.924	9	42	Feedback	Neutral	True
407.367	2.935	Control	0.6512	n/a	No	2.935	n/a	n/a	NoResponse	0	0.0	n/a	9	42	ISIslide	Neutral	True
410.326	0.25	Win2	0.6591	0.0	Yes	3.174	0.026	n/a	GoodResponse	1	n/a	n/a	10	43	Cue	Win	True
410.577	4.0	Win2	0.6591	0.0	Yes	3.174	0.001	n/a	GoodResponse	1	n/a	n/a	10	43	Fixation	Win	True
414.572	0.22	Win2	0.6591	0.004	Yes	3.174	-0.004	2.0	GoodResponse	1	0.206	413.778	10	43	Target	Win	True
414.778	0.3	Win2	0.6591	0.004	Yes	3.174	-0.004	2.0	GoodResponse	1	0.206	n/a	10	43	ButtonPress	Win	True
414.806	0.48	Win2	0.6591	n/a	Yes	3.174	n/a	n/a	GoodResponse	1	n/a	n/a	10	43	Blank	Win	True
415.274	1.45	Win2	0.6591	n/a	Yes	3.174	n/a	5.0	GoodResponse	1	0.016	414.29	10	43	Feedback	Win	True
416.729	3.174	Win2	0.6591	n/a	Yes	3.174	n/a	n/a	GoodResponse	1	0.0	n/a	10	43	ISIslide	Win	True
419.921	0.25	Win2	0.6444	0.001	No	2.979	0.021	n/a	LatePress	0	n/a	n/a	10	44	Cue	MissedWin	False
420.172	4.0	Win2	0.6444	0.0	No	2.979	0.001	2.0	LatePress	0	1.052	420.224	10	44	Fixation	MissedWin	False
421.224	0.3	Win2	0.6444	0.0	No	2.979	0.001	2.0	LatePress	0	1.052	n/a	10	44	ButtonPress	MissedWin	False
424.168	0.22	Win2	0.6444	0.003	No	2.979	-0.003	2.0	LatePress	0	0.222	423.39	10	44	Target	MissedWin	False
424.39	0.3	Win2	0.6444	0.003	No	2.979	-0.003	2.0	LatePress	0	0.222	n/a	10	44	ButtonPress	MissedWin	False
424.402	0.48	Win2	0.6444	n/a	No	2.979	n/a	n/a	LatePress	0	n/a	n/a	10	44	Blank	MissedWin	False
424.87	1.45	Win2	0.6444	n/a	No	2.979	n/a	5.0	LatePress	0	0.03	423.9	10	44	Feedback	MissedWin	False
426.324	2.979	Win2	0.6444	n/a	No	2.979	n/a	n/a	LatePress	0	0.0	n/a	10	44	ISIslide	MissedWin	False
429.316	0.25	Control	0.6522	0.0	Yes	2.884	0.016	n/a	GoodResponse	0	n/a	n/a	10	45	Cue	Neutral	False
429.567	4.1	Control	0.6522	0.0	Yes	2.884	0.001	2.0	GoodResponse	0	3.217	431.784	10	45	Fixation	Neutral	False
432.784	0.3	Control	0.6522	0.0	Yes	2.884	0.001	2.0	GoodResponse	0	3.217	n/a	10	45	ButtonPress	Neutral	False
433.663	0.23	Control	0.6522	0.003	Yes	2.884	-0.003	2.0	GoodResponse	0	0.227	432.89	10	45	Target	Neutral	False
433.89	0.3	Control	0.6522	0.003	Yes	2.884	-0.003	2.0	GoodResponse	0	0.227	n/a	10	45	ButtonPress	Neutral	False
433.897	0.47	Control	0.6522	n/a	Yes	2.884	n/a	n/a	GoodResponse	0	n/a	n/a	10	45	Blank	Neutral	False
434.365	1.45	Control	0.6522	n/a	Yes	2.884	n/a	5.0	GoodResponse	0	0.047	433.412	10	45	Feedback	Neutral	False
435.819	2.884	Control	0.6522	n/a	Yes	2.884	n/a	n/a	GoodResponse	0	0.0	n/a	10	45	ISIslide	Neutral	False
438.728	0.25	Lose2	0.6383	0.0	No	3.372	0.028	n/a	PrematurePress	-1	n/a	n/a	9	46	Cue	Loss	True
438.979	4.0	Lose2	0.6383	0.0	No	3.372	0.001	n/a	PrematurePress	-1	n/a	n/a	9	46	Fixation	Loss	True
442.974	0.24	Lose2	0.6383	0.004	No	3.372	-0.004	2.0	PrematurePress	-1	0.085	442.059	9	46	Target	Loss	True
443.059	0.3	Lose2	0.6383	0.004	No	3.372	-0.004	2.0	PrematurePress	-1	0.085	n/a	9	46	ButtonPress	Loss	True
443.225	0.46	Lose2	0.6383	n/a	No	3.372	n/a	n/a	PrematurePress	-1	n/a	n/a	9	46	Blank	Loss	True
443.676	1.45	Lose2	0.6383	n/a	No	3.372	n/a	5.0	PrematurePress	-1	0.007	442.683	9	46	Feedback	Loss	True
445.13	3.372	Lose2	0.6383	n/a	No	3.372	n/a	n/a	PrematurePress	-1	0.0	n/a	9	46	ISIslide	Loss	True
448.524	0.25	Lose2	0.6457999999999999	0.0	Yes	2.676	0.024	n/a	GoodResponse	0	n/a	n/a	9	47	Cue	AvoidedLoss	True
448.775	4.0	Lose2	0.6457999999999999	0.0	Yes	2.676	0.001	n/a	GoodResponse	0	n/a	n/a	9	47	Fixation	AvoidedLoss	True
452.77	0.25	Lose2	0.6457999999999999	0.004	Yes	2.676	-0.004	2.0	GoodResponse	0	0.236	452.006	9	47	Target	AvoidedLoss	True
453.006	0.3	Lose2	0.6457999999999999	0.004	Yes	2.676	-0.004	2.0	GoodResponse	0	0.236	n/a	9	47	ButtonPress	AvoidedLoss	True
453.021	0.45	Lose2	0.6457999999999999	n/a	Yes	2.676	n/a	n/a	GoodResponse	0	n/a	n/a	9	47	Blank	AvoidedLoss	True
453.472	1.45	Lose2	0.6457999999999999	n/a	Yes	2.676	n/a	5.0	GoodResponse	0	0.013	452.485	9	47	Feedback	AvoidedLoss	True
454.926	2.676	Lose2	0.6457999999999999	n/a	Yes	2.676	n/a	n/a	GoodResponse	0	0.0	n/a	9	47	ISIslide	AvoidedLoss	True
457.618	0.25	Lose2	0.6327	0.0	No	3.032	0.018	n/a	NoResponse	-1	n/a	n/a	8	48	Cue	Loss	False
457.869	3.95	Lose2	0.6327	0.0	No	3.032	0.001	n/a	NoResponse	-1	n/a	n/a	8	48	Fixation	Loss	False
461.814	0.26	Lose2	0.6327	0.004	No	3.032	-0.004	n/a	NoResponse	-1	n/a	n/a	8	48	Target	Loss	False
462.081	0.44	Lose2	0.6327	n/a	No	3.032	n/a	n/a	NoResponse	-1	n/a	n/a	8	48	Blank	Loss	False
462.516	1.45	Lose2	0.6327	n/a	No	3.032	n/a	5.0	NoResponse	-1	0.042	461.558	8	48	Feedback	Loss	False
463.97	3.032	Lose2	0.6327	n/a	No	3.032	n/a	n/a	NoResponse	-1	0.0	n/a	8	48	ISIslide	Loss	False
467.029	0.25	Control	0.64	0.0	Yes	2.871	0.029	n/a	GoodResponse	0	n/a	n/a	8	49	Cue	Neutral	True
467.28	4.0	Control	0.64	0.0	Yes	2.871	0.001	n/a	GoodResponse	0	n/a	n/a	8	49	Fixation	Neutral	True
471.275	0.27	Control	0.64	0.004	Yes	2.871	-0.004	2.0	GoodResponse	0	0.198	470.473	8	49	Target	Neutral	True
471.473	0.3	Control	0.64	0.004	Yes	2.871	-0.004	2.0	GoodResponse	0	0.198	n/a	8	49	ButtonPress	Neutral	True
471.56	0.43	Control	0.64	n/a	Yes	2.871	n/a	n/a	GoodResponse	0	n/a	n/a	8	49	Blank	Neutral	True
471.977	1.45	Control	0.64	n/a	Yes	2.871	n/a	5.0	GoodResponse	0	0.044	471.021	8	49	Feedback	Neutral	True
473.432	2.871	Control	0.64	n/a	Yes	2.871	n/a	n/a	GoodResponse	0	0.0	n/a	8	49	ISIslide	Neutral	True
476.324	0.25	Control	0.6275	0.0	No	2.776	0.024	n/a	NoResponse	0	n/a	n/a	8	50	Cue	Neutral	True
476.575	4.0	Control	0.6275	0.0	No	2.776	0.001	n/a	NoResponse	0	n/a	n/a	8	50	Fixation	Neutral	True
480.57	0.28	Control	0.6275	0.004	No	2.776	-0.004	2.0	NoResponse	0	0.408	479.978	8	50	Target	Neutral	True
480.854	0.42	Control	0.6275	n/a	No	2.776	n/a	n/a	NoResponse	0	n/a	n/a	8	50	Blank	Neutral	True
480.978	0.3	Control	0.6275	0.004	No	2.776	-0.004	2.0	NoResponse	0	0.408	n/a	8	50	ButtonPress	Neutral	True
481.272	1.45	Control	0.6275	n/a	No	2.776	n/a	5.0	NoResponse	0	0.018	480.29	8	50	Feedback	Neutral	True
482.726	2.776	Control	0.6275	n/a	No	2.776	n/a	n/a	NoResponse	0	0.0	n/a	8	50	ISIslide	Neutral	True
485.518	0.25	Control	0.6154	0.0	No	2.732	0.018	n/a	NoResponse	0	n/a	n/a	8	51	Cue	Neutral	False
485.769	3.95	Control	0.6154	0.0	No	2.732	0.001	n/a	NoResponse	0	n/a	n/a	8	51	Fixation	Neutral	False
489.714	0.29	Control	0.6154	0.004	No	2.732	-0.004	n/a	NoResponse	0	n/a	n/a	8	51	Target	Neutral	False
490.015	0.41	Control	0.6154	n/a	No	2.732	n/a	n/a	NoResponse	0	n/a	n/a	8	51	Blank	Neutral	False
490.416	1.45	Control	0.6154	n/a	No	2.732	n/a	5.0	NoResponse	0	0.044	489.46	8	51	Feedback	Neutral	False
491.87	2.732	Control	0.6154	n/a	No	2.732	n/a	n/a	NoResponse	0	0.0	n/a	8	51	ISIslide	Neutral	False
494.629	0.25	Control	0.6038	0.0	No	2.621	0.029	n/a	NoResponse	0	n/a	n/a	8	52	Cue	Neutral	True
494.879	4.05	Control	0.6038	0.0	No	2.621	0.0	n/a	NoResponse	0	n/a	n/a	8	52	Fixation	Neutral	True
498.925	0.3	Control	0.6038	0.004	No	2.621	-0.004	2.0	NoResponse	0	0.356	498.281	8	52	Target	Neutral	True
499.226	0.4	Control	0.6038	n/a	No	2.621	n/a	n/a	NoResponse	0	n/a	n/a	8	52	Blank	Neutral	True
499.281	0.3	Control	0.6038	0.004	No	2.621	-0.004	2.0	NoResponse	0	0.356	n/a	8	52	ButtonPress	Neutral	True
499.627	1.45	Control	0.6038	n/a	No	2.621	n/a	5.0	NoResponse	0	0.007	498.634	8	52	Feedback	Neutral	True
501.081	2.621	Control	0.6038	n/a	No	2.621	n/a	n/a	NoResponse	0	0.0	n/a	8	52	ISIslide	Neutral	True
503.723	0.25	Win2	0.5926	0.0	No	2.927	0.023	n/a	NoResponse	0	n/a	n/a	8	53	Cue	MissedWin	False
503.973	4.05	Win2	0.5926	0.0	No	2.927	0.0	n/a	NoResponse	0	n/a	n/a	8	53	Fixation	MissedWin	False
508.019	0.31	Win2	0.5926	0.004	No	2.927	-0.004	n/a	NoResponse	0	n/a	n/a	8	53	Target	MissedWin	False
508.336	0.39	Win2	0.5926	n/a	No	2.927	n/a	n/a	NoResponse	0	n/a	n/a	8	53	Blank	MissedWin	False
508.721	1.45	Win2	0.5926	n/a	No	2.927	n/a	5.0	NoResponse	0	0.032	507.753	8	53	Feedback	MissedWin	False
510.175	2.927	Win2	0.5926	n/a	No	2.927	n/a	n/a	NoResponse	0	0.0	n/a	8	53	ISIslide	MissedWin	False
513.117	0.25	Win2	0.6	0.0	Yes	2.733	0.017	n/a	GoodResponse	1	n/a	n/a	9	54	Cue	Win	True
513.368	3.95	Win2	0.6	0.0	Yes	2.733	0.001	n/a	GoodResponse	1	n/a	n/a	9	54	Fixation	Win	True
517.313	0.32	Win2	0.6	0.004	Yes	2.733	-0.004	2.0	GoodResponse	1	0.214	516.527	9	54	Target	Win	True
517.527	0.3	Win2	0.6	0.004	Yes	2.733	-0.004	2.0	GoodResponse	1	0.214	n/a	9	54	ButtonPress	Win	True
517.648	0.38	Win2	0.6	n/a	Yes	2.733	n/a	n/a	GoodResponse	1	n/a	n/a	9	54	Blank	Win	True
518.015	1.45	Win2	0.6	n/a	Yes	2.733	n/a	5.0	GoodResponse	1	0.007	517.022	9	54	Feedback	Win	True
519.47	2.733	Win2	0.6	n/a	Yes	2.733	n/a	n/a	GoodResponse	1	0.0	n/a	9	54	ISIslide	Win	True
522.228	0.25	Control	0.6071	0.0	Yes	3.022	0.028	n/a	GoodResponse	0	n/a	n/a	9	55	Cue	Neutral	True
522.479	3.95	Control	0.6071	0.0	Yes	3.022	0.001	n/a	GoodResponse	0	n/a	n/a	9	55	Fixation	Neutral	True
526.424	0.33	Control	0.6071	0.004	Yes	3.022	-0.004	2.0	GoodResponse	0	0.207	525.631	9	55	Target	Neutral	True
526.631	0.3	Control	0.6071	0.004	Yes	3.022	-0.004	2.0	GoodResponse	0	0.207	n/a	9	55	ButtonPress	Neutral	True
526.758	0.37	Control	0.6071	n/a	Yes	3.022	n/a	n/a	GoodResponse	0	n/a	n/a	9	55	Blank	Neutral	True
527.126	1.45	Control	0.6071	n/a	Yes	3.022	n/a	5.0	GoodResponse	0	0.017	526.143	9	55	Feedback	Neutral	True
528.58	3.022	Control	0.6071	n/a	Yes	3.022	n/a	n/a	GoodResponse	0	0.0	n/a	9	55	ISIslide	Neutral	True
531.623	0.25	Control	0.5965	0.0	No	2.827	0.023	n/a	NoResponse	0	n/a	n/a	9	56	Cue	Neutral	True
531.874	3.95	Control	0.5965	0.0	No	2.827	0.001	n/a	NoResponse	0	n/a	n/a	9	56	Fixation	Neutral	True
535.819	0.34	Control	0.5965	0.004	No	2.827	-0.004	2.0	NoResponse	0	0.438	535.257	9	56	Target	Neutral	True
536.17	0.36	Control	0.5965	n/a	No	2.827	n/a	n/a	NoResponse	0	n/a	n/a	9	56	Blank	Neutral	True
536.257	0.3	Control	0.5965	0.004	No	2.827	-0.004	2.0	NoResponse	0	0.438	n/a	9	56	ButtonPress	Neutral	True
536.521	1.45	Control	0.5965	n/a	No	2.827	n/a	5.0	NoResponse	0	0.036	535.557	9	56	Feedback	Neutral	True
537.975	2.827	Control	0.5965	n/a	No	2.827	n/a	n/a	NoResponse	0	0.0	n/a	9	56	ISIslide	Neutral	True
540.817	0.25	Control	0.6034	0.0	Yes	3.483	0.017	n/a	GoodResponse	0	n/a	n/a	9	57	Cue	Neutral	True
541.068	4.0	Control	0.6034	0.0	Yes	3.483	0.001	n/a	GoodResponse	0	n/a	n/a	9	57	Fixation	Neutral	True
545.063	0.35	Control	0.6034	0.004	Yes	3.483	-0.004	2.0	GoodResponse	0	0.227	544.29	9	57	Target	Neutral	True
545.29	0.3	Control	0.6034	0.004	Yes	3.483	-0.004	2.0	GoodResponse	0	0.227	n/a	9	57	ButtonPress	Neutral	True
545.414	0.35	Control	0.6034	n/a	Yes	3.483	n/a	n/a	GoodResponse	0	n/a	n/a	9	57	Blank	Neutral	True
545.765	1.45	Control	0.6034	n/a	Yes	3.483	n/a	5.0	GoodResponse	0	0.012	544.777	9	57	Feedback	Neutral	True
547.22	3.483	Control	0.6034	n/a	Yes	3.483	n/a	n/a	GoodResponse	0	0.0	n/a	9	57	ISIslide	Neutral	True
550.73	0.25	Win2	0.6102000000000001	0.0	Yes	2.72	0.03	n/a	GoodResponse	1	n/a	n/a	10	58	Cue	Win	True
550.981	4.05	Win2	0.6102000000000001	0.0	Yes	2.72	0.001	n/a	GoodResponse	1	n/a	n/a	10	58	Fixation	Win	True
555.026	0.36	Win2	0.6102000000000001	0.004	Yes	2.72	-0.004	2.0	GoodResponse	1	0.216	554.242	10	58	Target	Win	True
555.242	0.3	Win2	0.6102000000000001	0.004	Yes	2.72	-0.004	2.0	GoodResponse	1	0.216	n/a	10	58	ButtonPress	Win	True
555.394	0.34	Win2	0.6102000000000001	n/a	Yes	2.72	n/a	n/a	GoodResponse	1	n/a	n/a	10	58	Blank	Win	True
555.728	1.45	Win2	0.6102000000000001	n/a	Yes	2.72	n/a	5.0	GoodResponse	1	0.049	554.777	10	58	Feedback	Win	True
557.183	2.72	Win2	0.6102000000000001	n/a	Yes	2.72	n/a	n/a	GoodResponse	1	0.0	n/a	10	58	ISIslide	Win	True
559.924	0.25	Lose2	0.6167	0.0	Yes	2.676	0.024	n/a	GoodResponse	0	n/a	n/a	10	59	Cue	AvoidedLoss	True
560.175	4.0	Lose2	0.6167	0.0	Yes	2.676	0.001	n/a	GoodResponse	0	n/a	n/a	10	59	Fixation	AvoidedLoss	True
564.17	0.37	Lose2	0.6167	0.004	Yes	2.676	-0.004	2.0	GoodResponse	0	0.204	563.374	10	59	Target	AvoidedLoss	True
564.374	0.3	Lose2	0.6167	0.004	Yes	2.676	-0.004	2.0	GoodResponse	0	0.204	n/a	10	59	ButtonPress	AvoidedLoss	True
564.555	0.33	Lose2	0.6167	n/a	Yes	2.676	n/a	n/a	GoodResponse	0	n/a	n/a	10	59	Blank	AvoidedLoss	True
564.872	1.45	Lose2	0.6167	n/a	Yes	2.676	n/a	5.0	GoodResponse	0	0.027	563.899	10	59	Feedback	AvoidedLoss	True
566.327	2.676	Lose2	0.6167	n/a	Yes	2.676	n/a	n/a	GoodResponse	0	0.0	n/a	10	59	ISIslide	AvoidedLoss	True
569.018	0.25	Control	0.623	0.0	Yes	2.682	0.018	n/a	GoodResponse	0	n/a	n/a	10	60	Cue	Neutral	True
569.269	4.0	Control	0.623	0.0	Yes	2.682	0.001	n/a	GoodResponse	0	n/a	n/a	10	60	Fixation	Neutral	True
573.264	0.38	Control	0.623	0.004	Yes	2.682	-0.004	2.0	GoodResponse	0	0.286	572.55	10	60	Target	Neutral	True
573.55	0.3	Control	0.623	0.004	Yes	2.682	-0.004	2.0	GoodResponse	0	0.286	n/a	10	60	ButtonPress	Neutral	True
573.649	0.32	Control	0.623	n/a	Yes	2.682	n/a	n/a	GoodResponse	0	n/a	n/a	10	60	Blank	Neutral	True
573.966	1.45	Control	0.623	n/a	Yes	2.682	n/a	5.0	GoodResponse	0	0.008	572.974	10	60	Feedback	Neutral	True
575.421	2.682	Control	0.623	n/a	Yes	2.682	n/a	n/a	GoodResponse	0	0.0	n/a	10	60	ISIslide	Neutral	True
578.129	0.25	Lose2	0.629	0.0	Yes	2.971	0.029	n/a	GoodResponse	0	n/a	n/a	10	61	Cue	AvoidedLoss	True
578.38	4.0	Lose2	0.629	0.0	Yes	2.971	0.001	n/a	GoodResponse	0	n/a	n/a	10	61	Fixation	AvoidedLoss	True
582.375	0.39	Lose2	0.629	0.004	Yes	2.971	-0.004	2.0	GoodResponse	0	0.163	581.538	10	61	Target	AvoidedLoss	True
582.538	0.3	Lose2	0.629	0.004	Yes	2.971	-0.004	2.0	GoodResponse	0	0.163	n/a	10	61	ButtonPress	AvoidedLoss	True
582.776	0.31	Lose2	0.629	n/a	Yes	2.971	n/a	n/a	GoodResponse	0	n/a	n/a	10	61	Blank	AvoidedLoss	True
583.077	1.45	Lose2	0.629	n/a	Yes	2.971	n/a	5.0	GoodResponse	0	0.016	582.093	10	61	Feedback	AvoidedLoss	True
584.531	2.971	Lose2	0.629	n/a	Yes	2.971	n/a	n/a	GoodResponse	0	0.0	n/a	10	61	ISIslide	AvoidedLoss	True
587.524	0.25	Lose2	0.6349	0.0	Yes	2.876	0.024	n/a	GoodResponse	0	n/a	n/a	10	62	Cue	AvoidedLoss	True
587.774	3.9	Lose2	0.6349	0.0	Yes	2.876	0.0	n/a	GoodResponse	0	n/a	n/a	10	62	Fixation	AvoidedLoss	True
591.686	0.4	Lose2	0.6349	0.0	Yes	2.876	0.012	2.0	GoodResponse	0	0.195	590.881	10	62	Target	AvoidedLoss	True
591.881	0.3	Lose2	0.6349	0.0	Yes	2.876	0.012	2.0	GoodResponse	0	0.195	n/a	10	62	ButtonPress	AvoidedLoss	True
592.071	0.3	Lose2	0.6349	n/a	Yes	2.876	n/a	n/a	GoodResponse	0	n/a	n/a	10	62	Blank	AvoidedLoss	True
592.372	1.45	Lose2	0.6349	n/a	Yes	2.876	n/a	5.0	GoodResponse	0	0.039	591.411	10	62	Feedback	AvoidedLoss	True
593.826	2.876	Lose2	0.6349	n/a	Yes	2.876	n/a	n/a	GoodResponse	0	0.0	n/a	10	62	ISIslide	AvoidedLoss	True
596.718	0.25	Lose2	0.6406000000000001	0.0	Yes	2.632	0.018	n/a	GoodResponse	0	n/a	n/a	10	63	Cue	AvoidedLoss	True
596.969	4.05	Lose2	0.6406000000000001	0.0	Yes	2.632	0.001	n/a	GoodResponse	0	n/a	n/a	10	63	Fixation	AvoidedLoss	True
601.014	0.41	Lose2	0.6406000000000001	0.004	Yes	2.632	-0.004	2.0	GoodResponse	0	0.312	600.326	10	63	Target	AvoidedLoss	True
601.326	0.3	Lose2	0.6406000000000001	0.004	Yes	2.632	-0.004	2.0	GoodResponse	0	0.312	n/a	10	63	ButtonPress	AvoidedLoss	True
601.432	0.29	Lose2	0.6406000000000001	n/a	Yes	2.632	n/a	n/a	GoodResponse	0	n/a	n/a	10	63	Blank	AvoidedLoss	True
601.716	1.45	Lose2	0.6406000000000001	n/a	Yes	2.632	n/a	5.0	GoodResponse	0	0.012	600.728	10	63	Feedback	AvoidedLoss	True
603.171	2.632	Lose2	0.6406000000000001	n/a	Yes	2.632	n/a	n/a	GoodResponse	0	0.0	n/a	10	63	ISIslide	AvoidedLoss	True
605.829	0.25	Win2	0.6462	0.0	Yes	3.121	0.029	n/a	GoodResponse	1	n/a	n/a	11	64	Cue	Win	True
606.079	4.15	Win2	0.6462	0.0	Yes	3.121	0.0	n/a	GoodResponse	1	n/a	n/a	11	64	Fixation	Win	True
610.225	0.42	Win2	0.6462	0.004	Yes	3.121	-0.004	2.0	GoodResponse	1	0.203	609.428	11	64	Target	Win	True
610.428	0.3	Win2	0.6462	0.004	Yes	3.121	-0.004	2.0	GoodResponse	1	0.203	n/a	11	64	ButtonPress	Win	True
610.66	0.28	Win2	0.6462	n/a	Yes	3.121	n/a	n/a	GoodResponse	1	n/a	n/a	11	64	Blank	Win	True
610.927	1.45	Win2	0.6462	n/a	Yes	3.121	n/a	5.0	GoodResponse	1	0.02	609.947	11	64	Feedback	Win	True
612.381	3.121	Win2	0.6462	n/a	Yes	3.121	n/a	n/a	GoodResponse	1	0.0	n/a	11	64	ISIslide	Win	True
615.524	0.25	Control	0.6515000000000001	0.0	Yes	2.776	0.024	n/a	GoodResponse	0	n/a	n/a	11	65	Cue	Neutral	True
615.775	4.0	Control	0.6515000000000001	0.0	Yes	2.776	0.001	n/a	GoodResponse	0	n/a	n/a	11	65	Fixation	Neutral	True
619.77	0.43	Control	0.6515000000000001	0.004	Yes	2.776	-0.004	2.0	GoodResponse	0	0.225	618.995	11	65	Target	Neutral	True
619.995	0.3	Control	0.6515000000000001	0.004	Yes	2.776	-0.004	2.0	GoodResponse	0	0.225	n/a	11	65	ButtonPress	Neutral	True
620.205	0.27	Control	0.6515000000000001	n/a	Yes	2.776	n/a	n/a	GoodResponse	0	n/a	n/a	11	65	Blank	Neutral	True
620.472	1.45	Control	0.6515000000000001	n/a	Yes	2.776	n/a	5.0	GoodResponse	0	0.036	619.508	11	65	Feedback	Neutral	True
621.927	2.776	Control	0.6515000000000001	n/a	Yes	2.776	n/a	n/a	GoodResponse	0	0.0	n/a	11	65	ISIslide	Neutral	True
624.718	0.25	Win2	0.6567000000000001	0.001	Yes	2.782	0.018	n/a	GoodResponse	1	n/a	n/a	12	66	Cue	Win	True
624.969	3.9	Win2	0.6567000000000001	0.0	Yes	2.782	0.001	n/a	GoodResponse	1	n/a	n/a	12	66	Fixation	Win	True
628.864	0.44	Win2	0.6567000000000001	0.004	Yes	2.782	-0.004	2.0	GoodResponse	1	0.196	628.06	12	66	Target	Win	True
629.06	0.3	Win2	0.6567000000000001	0.004	Yes	2.782	-0.004	2.0	GoodResponse	1	0.196	n/a	12	66	ButtonPress	Win	True
629.316	0.26	Win2	0.6567000000000001	n/a	Yes	2.782	n/a	n/a	GoodResponse	1	n/a	n/a	12	66	Blank	Win	True
629.566	1.45	Win2	0.6567000000000001	n/a	Yes	2.782	n/a	5.0	GoodResponse	1	0.016	628.582	12	66	Feedback	Win	True
631.021	2.782	Win2	0.6567000000000001	n/a	Yes	2.782	n/a	n/a	GoodResponse	1	0.0	n/a	12	66	ISIslide	Win	True
633.829	0.25	Control	0.6618	0.0	Yes	2.721	0.029	n/a	GoodResponse	0	n/a	n/a	12	67	Cue	Neutral	True
634.08	3.95	Control	0.6618	0.0	Yes	2.721	0.001	n/a	GoodResponse	0	n/a	n/a	12	67	Fixation	Neutral	True
638.025	0.44	Control	0.6618	0.004	Yes	2.721	-0.004	2.0	GoodResponse	0	0.315	637.34	12	67	Target	Neutral	True
638.34	0.3	Control	0.6618	0.004	Yes	2.721	-0.004	2.0	GoodResponse	0	0.315	n/a	12	67	ButtonPress	Neutral	True
638.476	0.26	Control	0.6618	n/a	Yes	2.721	n/a	n/a	GoodResponse	0	n/a	n/a	12	67	Blank	Neutral	True
638.727	1.45	Control	0.6618	n/a	Yes	2.721	n/a	5.0	GoodResponse	0	0.025	637.752	12	67	Feedback	Neutral	True
640.181	2.721	Control	0.6618	n/a	Yes	2.721	n/a	n/a	GoodResponse	0	0.0	n/a	12	67	ISIslide	Neutral	True
642.923	0.25	Win2	0.6667000000000001	0.0	Yes	3.077	0.023	n/a	GoodResponse	1	n/a	n/a	13	68	Cue	Win	True
643.174	4.0	Win2	0.6667000000000001	0.0	Yes	3.077	0.001	n/a	GoodResponse	1	n/a	n/a	13	68	Fixation	Win	True
647.169	0.44	Win2	0.6667000000000001	0.004	Yes	3.077	-0.004	2.0	GoodResponse	1	0.197	646.366	13	68	Target	Win	True
647.366	0.3	Win2	0.6667000000000001	0.004	Yes	3.077	-0.004	2.0	GoodResponse	1	0.197	n/a	13	68	ButtonPress	Win	True
647.62	0.26	Win2	0.6667000000000001	n/a	Yes	3.077	n/a	n/a	GoodResponse	1	n/a	n/a	13	68	Blank	Win	True
647.871	1.45	Win2	0.6667000000000001	n/a	Yes	3.077	n/a	5.0	GoodResponse	1	0.007	646.878	13	68	Feedback	Win	True
649.326	3.077	Win2	0.6667000000000001	n/a	Yes	3.077	n/a	n/a	GoodResponse	1	0.0	n/a	13	68	ISIslide	Win	True
652.418	0.25	Win2	0.6714	0.0	Yes	3.232	0.018	n/a	GoodResponse	1	n/a	n/a	14	69	Cue	Win	True
652.669	3.95	Win2	0.6714	0.0	Yes	3.232	0.001	n/a	GoodResponse	1	n/a	n/a	14	69	Fixation	Win	True
656.614	0.43	Win2	0.6714	0.004	Yes	3.232	-0.004	2.0	GoodResponse	1	0.286	655.9	14	69	Target	Win	True
656.9	0.3	Win2	0.6714	0.004	Yes	3.232	-0.004	2.0	GoodResponse	1	0.286	n/a	14	69	ButtonPress	Win	True
657.049	0.27	Win2	0.6714	n/a	Yes	3.232	n/a	n/a	GoodResponse	1	n/a	n/a	14	69	Blank	Win	True
657.316	1.45	Win2	0.6714	n/a	Yes	3.232	n/a	5.0	GoodResponse	1	0.021	656.337	14	69	Feedback	Win	True
658.77	3.232	Win2	0.6714	n/a	Yes	3.232	n/a	n/a	GoodResponse	1	0.0	n/a	14	69	ISIslide	Win	True
662.03	0.25	Lose2	0.6761	0.0	Yes	3.02	0.03	n/a	GoodResponse	0	n/a	n/a	14	70	Cue	AvoidedLoss	True
662.281	4.05	Lose2	0.6761	0.0	Yes	3.02	0.001	n/a	GoodResponse	0	n/a	n/a	14	70	Fixation	AvoidedLoss	True
666.326	0.42	Lose2	0.6761	0.004	Yes	3.02	-0.004	2.0	GoodResponse	0	0.261	665.587	14	70	Target	AvoidedLoss	True
666.587	0.3	Lose2	0.6761	0.004	Yes	3.02	-0.004	2.0	GoodResponse	0	0.261	n/a	14	70	ButtonPress	AvoidedLoss	True
666.761	0.28	Lose2	0.6761	n/a	Yes	3.02	n/a	n/a	GoodResponse	0	n/a	n/a	14	70	Blank	AvoidedLoss	True
667.029	1.45	Lose2	0.6761	n/a	Yes	3.02	n/a	5.0	GoodResponse	0	0.016	666.045	14	70	Feedback	AvoidedLoss	True
668.483	3.02	Lose2	0.6761	n/a	Yes	3.02	n/a	n/a	GoodResponse	0	0.0	n/a	14	70	ISIslide	AvoidedLoss	True
671.525	0.25	Win2	0.6667000000000001	0.0	No	2.725	0.025	n/a	NoResponse	0	n/a	n/a	14	71	Cue	MissedWin	True
671.776	4.05	Win2	0.6667000000000001	0.0	No	2.725	0.001	n/a	NoResponse	0	n/a	n/a	14	71	Fixation	MissedWin	True
675.822	0.41	Win2	0.6667000000000001	0.003	No	2.725	-0.003	2.0	NoResponse	0	0.482	675.304	14	71	Target	MissedWin	True
676.239	0.29	Win2	0.6667000000000001	n/a	No	2.725	n/a	n/a	NoResponse	0	n/a	n/a	14	71	Blank	MissedWin	True
676.304	0.3	Win2	0.6667000000000001	0.003	No	2.725	-0.003	2.0	NoResponse	0	0.482	n/a	14	71	ButtonPress	MissedWin	True
676.524	1.45	Win2	0.6667000000000001	n/a	No	2.725	n/a	5.0	NoResponse	0	0.033	675.557	14	71	Feedback	MissedWin	True
677.978	2.725	Win2	0.6667000000000001	n/a	No	2.725	n/a	n/a	NoResponse	0	0.0	n/a	14	71	ISIslide	MissedWin	True
680.72	0.25	Win2	0.6712	0.0	Yes	2.78	0.02	n/a	GoodResponse	1	n/a	n/a	15	72	Cue	Win	True
680.97	4.1	Win2	0.6712	0.0	Yes	2.78	0.0	n/a	GoodResponse	1	n/a	n/a	15	72	Fixation	Win	True
685.066	0.4	Win2	0.6712	0.004	Yes	2.78	-0.004	2.0	GoodResponse	1	0.232	684.298	15	72	Target	Win	True
685.298	0.3	Win2	0.6712	0.004	Yes	2.78	-0.004	2.0	GoodResponse	1	0.232	n/a	15	72	ButtonPress	Win	True
685.467	0.3	Win2	0.6712	n/a	Yes	2.78	n/a	n/a	GoodResponse	1	n/a	n/a	15	72	Blank	Win	True
685.768	1.45	Win2	0.6712	n/a	Yes	2.78	n/a	5.0	GoodResponse	1	0.008	684.776	15	72	Feedback	Win	True
687.222	2.78	Win2	0.6712	n/a	Yes	2.78	n/a	n/a	GoodResponse	1	0.0	n/a	15	72	ISIslide	Win	True
690.031	0.25	Win2	0.6757	0.0	Yes	2.669	0.031	n/a	GoodResponse	1	n/a	n/a	16	73	Cue	Win	True
690.282	4.0	Win2	0.6757	0.0	Yes	2.669	0.001	n/a	GoodResponse	1	n/a	n/a	16	73	Fixation	Win	True
694.277	0.39	Win2	0.6757	0.004	Yes	2.669	-0.004	2.0	GoodResponse	1	0.254	693.531	16	73	Target	Win	True
694.531	0.3	Win2	0.6757	0.004	Yes	2.669	-0.004	2.0	GoodResponse	1	0.254	n/a	16	73	ButtonPress	Win	True
694.678	0.31	Win2	0.6757	n/a	Yes	2.669	n/a	n/a	GoodResponse	1	n/a	n/a	16	73	Blank	Win	True
694.979	1.45	Win2	0.6757	n/a	Yes	2.669	n/a	5.0	GoodResponse	1	0.017	693.996	16	73	Feedback	Win	True
696.433	2.669	Win2	0.6757	n/a	Yes	2.669	n/a	n/a	GoodResponse	1	0.0	n/a	16	73	ISIslide	Win	True
699.125	0.25	Lose2	0.6667000000000001	0.0	No	2.625	0.025	n/a	NoResponse	-1	n/a	n/a	15	74	Cue	Loss	True
699.375	4.05	Lose2	0.6667000000000001	0.001	No	2.625	0.0	2.0	NoResponse	-1	3.857	702.232	15	74	Fixation	Loss	True
703.232	0.3	Lose2	0.6667000000000001	0.001	No	2.625	0.0	2.0	NoResponse	-1	3.857	n/a	15	74	ButtonPress	Loss	True
703.421	0.38	Lose2	0.6667000000000001	0.004	No	2.625	-0.004	n/a	NoResponse	-1	n/a	n/a	15	74	Target	Loss	True
703.805	0.32	Lose2	0.6667000000000001	n/a	No	2.625	n/a	n/a	NoResponse	-1	n/a	n/a	15	74	Blank	Loss	True
704.123	1.45	Lose2	0.6667000000000001	n/a	No	2.625	n/a	5.0	NoResponse	-1	0.043	703.166	15	74	Feedback	Loss	True
705.577	2.625	Lose2	0.6667000000000001	n/a	No	2.625	n/a	n/a	NoResponse	-1	0.0	n/a	15	74	ISIslide	Loss	True
708.219	0.25	Lose2	0.6711	0.0	Yes	2.931	0.019	n/a	GoodResponse	0	n/a	n/a	15	75	Cue	AvoidedLoss	True
708.469	3.95	Lose2	0.6711	0.0	Yes	2.931	0.0	n/a	GoodResponse	0	n/a	n/a	15	75	Fixation	AvoidedLoss	True
712.415	0.37	Lose2	0.6711	0.004	Yes	2.931	-0.004	2.0	GoodResponse	0	0.206	711.621	15	75	Target	AvoidedLoss	True
712.621	0.3	Lose2	0.6711	0.004	Yes	2.931	-0.004	2.0	GoodResponse	0	0.206	n/a	15	75	ButtonPress	AvoidedLoss	True
712.799	0.33	Lose2	0.6711	n/a	Yes	2.931	n/a	n/a	GoodResponse	0	n/a	n/a	15	75	Blank	AvoidedLoss	True
713.117	1.45	Lose2	0.6711	n/a	Yes	2.931	n/a	5.0	GoodResponse	0	0.025	712.142	15	75	Feedback	AvoidedLoss	True
714.571	2.931	Lose2	0.6711	n/a	Yes	2.931	n/a	n/a	GoodResponse	0	0.0	n/a	15	75	ISIslide	AvoidedLoss	True
717.53	0.25	Control	0.6623	0.0	No	3.22	0.03	n/a	NoResponse	0	n/a	n/a	15	76	Cue	Neutral	False
717.781	4.05	Control	0.6623	0.0	No	3.22	0.001	n/a	NoResponse	0	n/a	n/a	15	76	Fixation	Neutral	False
721.826	0.36	Control	0.6623	0.004	No	3.22	-0.004	n/a	NoResponse	0	n/a	n/a	15	76	Target	Neutral	False
722.194	0.34	Control	0.6623	n/a	No	3.22	n/a	n/a	NoResponse	0	n/a	n/a	15	76	Blank	Neutral	False
722.528	1.45	Control	0.6623	n/a	No	3.22	n/a	5.0	NoResponse	0	0.028	721.556	15	76	Feedback	Neutral	False
723.983	3.22	Control	0.6623	n/a	No	3.22	n/a	n/a	NoResponse	0	0.0	n/a	15	76	ISIslide	Neutral	False
727.226	0.25	Lose2	0.6667000000000001	0.0	Yes	2.574	0.026	n/a	GoodResponse	0	n/a	n/a	15	77	Cue	AvoidedLoss	True
727.476	3.95	Lose2	0.6667000000000001	0.0	Yes	2.574	0.0	n/a	GoodResponse	0	n/a	n/a	15	77	Fixation	AvoidedLoss	True
731.422	0.36	Lose2	0.6667000000000001	0.004	Yes	2.574	-0.004	2.0	GoodResponse	0	0.199	730.621	15	77	Target	AvoidedLoss	True
731.621	0.3	Lose2	0.6667000000000001	0.004	Yes	2.574	-0.004	2.0	GoodResponse	0	0.199	n/a	15	77	ButtonPress	AvoidedLoss	True
731.789	0.34	Lose2	0.6667000000000001	n/a	Yes	2.574	n/a	n/a	GoodResponse	0	n/a	n/a	15	77	Blank	AvoidedLoss	True
732.124	1.45	Lose2	0.6667000000000001	n/a	Yes	2.574	n/a	5.0	GoodResponse	0	0.042	731.166	15	77	Feedback	AvoidedLoss	True
733.578	2.574	Lose2	0.6667000000000001	n/a	Yes	2.574	n/a	n/a	GoodResponse	0	0.0	n/a	15	77	ISIslide	AvoidedLoss	True
