onset	duration	cue_type	current_mean_accuracy	duration_error	is_hit	isi_adjusted	onset_delay	response	response_type	reward	rt	rt_time	total_reward	trial_number	trial_phase	trial_type	one_press
11.1	0.25	Control	1.0	0.0	Yes	2.95	0.0	n/a	GoodResponse	0	n/a	n/a	0	0	Cue	Neutral	True
11.35	3.85	Control	1.0	0.0	Yes	2.95	0.0	n/a	GoodResponse	0	n/a	n/a	0	0	Fixation	Neutral	True
15.199	0.4	Control	1.0	0.001	Yes	2.95	-0.001	2.0	GoodResponse	0	0.225	14.424	0	0	Target	Neutral	True
15.424	0.3	Control	1.0	0.001	Yes	2.95	-0.001	2.0	GoodResponse	0	0.225	n/a	0	0	ButtonPress	Neutral	True
15.598	0.3	Control	1.0	n/a	Yes	2.95	n/a	n/a	GoodResponse	0	n/a	n/a	0	0	Blank	Neutral	True
15.898	1.45	Control	1.0	n/a	Yes	2.95	n/a	5.0	GoodResponse	0	0.029	14.927	0	0	Feedback	Neutral	True
17.348	2.95	Control	1.0	n/a	Yes	2.95	n/a	n/a	GoodResponse	0	0.0	n/a	0	0	ISIslide	Neutral	True
20.313	0.25	Lose2	1.0	0.0	Yes	2.787	0.013	n/a	GoodResponse	0	n/a	n/a	0	1	Cue	AvoidedLoss	True
20.563	4.0	Lose2	1.0	0.0	Yes	2.787	0.0	n/a	GoodResponse	0	n/a	n/a	0	1	Fixation	AvoidedLoss	True
24.562	0.39	Lose2	1.0	0.001	Yes	2.787	-0.001	2.0	GoodResponse	0	0.193	23.755	0	1	Target	AvoidedLoss	True
24.755	0.3	Lose2	1.0	0.001	Yes	2.787	-0.001	2.0	GoodResponse	0	0.193	n/a	0	1	ButtonPress	AvoidedLoss	True
24.962	0.31	Lose2	1.0	n/a	Yes	2.787	n/a	n/a	GoodResponse	0	n/a	n/a	0	1	Blank	AvoidedLoss	True
25.262	1.45	Lose2	1.0	n/a	Yes	2.787	n/a	5.0	GoodResponse	0	0.031	24.293	0	1	Feedback	AvoidedLoss	True
26.711	2.787	Lose2	1.0	n/a	Yes	2.787	n/a	n/a	GoodResponse	0	0.0	n/a	0	1	ISIslide	AvoidedLoss	True
29.527	0.25	Control	1.0	0.0	Yes	2.573	0.027	n/a	GoodResponse	0	n/a	n/a	0	2	Cue	Neutral	True
29.777	4.1	Control	1.0	0.0	Yes	2.573	0.0	n/a	GoodResponse	0	n/a	n/a	0	2	Fixation	Neutral	True
33.875	0.38	Control	1.0	0.002	Yes	2.573	-0.002	2.0	GoodResponse	0	0.204	33.079	0	2	Target	Neutral	True
34.079	0.3	Control	1.0	0.002	Yes	2.573	-0.002	2.0	GoodResponse	0	0.204	n/a	0	2	ButtonPress	Neutral	True
34.258	0.32	Control	1.0	n/a	Yes	2.573	n/a	n/a	GoodResponse	0	n/a	n/a	0	2	Blank	Neutral	True
34.575	1.45	Control	1.0	n/a	Yes	2.573	n/a	5.0	GoodResponse	0	0.034	33.609	0	2	Feedback	Neutral	True
36.025	2.573	Control	1.0	n/a	Yes	2.573	n/a	n/a	GoodResponse	0	0.0	n/a	0	2	ISIslide	Neutral	True
38.624	0.25	Win2	1.0	0.0	Yes	2.826	0.024	n/a	GoodResponse	1	n/a	n/a	1	3	Cue	Win	True
38.874	3.95	Win2	1.0	0.0	Yes	2.826	0.0	n/a	GoodResponse	1	n/a	n/a	1	3	Fixation	Win	True
42.822	0.37	Win2	1.0	0.002	Yes	2.826	-0.002	2.0	GoodResponse	1	0.197	42.019	1	3	Target	Win	True
43.019	0.3	Win2	1.0	0.002	Yes	2.826	-0.002	2.0	GoodResponse	1	0.197	n/a	1	3	ButtonPress	Win	True
43.205	0.33	Win2	1.0	n/a	Yes	2.826	n/a	n/a	GoodResponse	1	n/a	n/a	1	3	Blank	Win	True
43.522	1.45	Win2	1.0	n/a	Yes	2.826	n/a	5.0	GoodResponse	1	0.014	42.536	1	3	Feedback	Win	True
44.971	2.826	Win2	1.0	n/a	Yes	2.826	n/a	n/a	GoodResponse	1	0.0	n/a	1	3	ISIslide	Win	True
47.82	0.25	Win2	1.0	0.0	Yes	3.28	0.02	n/a	GoodResponse	1	n/a	n/a	2	4	Cue	Win	True
48.07	4.0	Win2	1.0	0.0	Yes	3.28	0.0	n/a	GoodResponse	1	n/a	n/a	2	4	Fixation	Win	True
52.069	0.36	Win2	1.0	0.001	Yes	3.28	-0.001	2.0	GoodResponse	1	0.183	51.252	2	4	Target	Win	True
52.252	0.3	Win2	1.0	0.001	Yes	3.28	-0.001	2.0	GoodResponse	1	0.183	n/a	2	4	ButtonPress	Win	True
52.435	0.34	Win2	1.0	n/a	Yes	3.28	n/a	n/a	GoodResponse	1	n/a	n/a	2	4	Blank	Win	True
52.769	1.45	Win2	1.0	n/a	Yes	3.28	n/a	5.0	GoodResponse	1	0.035	51.804	2	4	Feedback	Win	True
54.218	3.28	Win2	1.0	n/a	Yes	3.28	n/a	n/a	GoodResponse	1	0.0	n/a	2	4	ISIslide	Win	True
57.517	0.25	Win2	1.0	0.0	Yes	2.783	0.017	n/a	GoodResponse	1	n/a	n/a	3	5	Cue	Win	True
57.767	4.0	Win2	1.0	0.0	Yes	2.783	0.0	n/a	GoodResponse	1	n/a	n/a	3	5	Fixation	Win	True
61.765	0.35	Win2	1.0	0.002	Yes	2.783	-0.002	2.0	GoodResponse	1	0.249	61.014	3	5	Target	Win	True
62.014	0.3	Win2	1.0	0.002	Yes	2.783	-0.002	2.0	GoodResponse	1	0.249	n/a	3	5	ButtonPress	Win	True
62.115	0.35	Win2	1.0	n/a	Yes	2.783	n/a	n/a	GoodResponse	1	n/a	n/a	3	5	Blank	Win	True
62.465	1.45	Win2	1.0	n/a	Yes	2.783	n/a	5.0	GoodResponse	1	0.047	61.512	3	5	Feedback	Win	True
63.915	2.783	Win2	1.0	n/a	Yes	2.783	n/a	n/a	GoodResponse	1	0.0	n/a	3	5	ISIslide	Win	True
66.714	0.25	Lose2	1.0	0.0	Yes	2.736	0.014	n/a	GoodResponse	0	n/a	n/a	3	6	Cue	AvoidedLoss	True
66.964	3.95	Lose2	1.0	0.0	Yes	2.736	0.0	n/a	GoodResponse	0	n/a	n/a	3	6	Fixation	AvoidedLoss	True
70.912	0.34	Lose2	1.0	0.002	Yes	2.736	-0.002	2.0	GoodResponse	0	0.186	70.098	3	6	Target	AvoidedLoss	True
71.098	0.3	Lose2	1.0	0.002	Yes	2.736	-0.002	2.0	GoodResponse	0	0.186	n/a	3	6	ButtonPress	AvoidedLoss	True
71.262	0.36	Lose2	1.0	n/a	Yes	2.736	n/a	n/a	GoodResponse	0	n/a	n/a	3	6	Blank	AvoidedLoss	True
71.612	1.45	Lose2	1.0	n/a	Yes	2.736	n/a	5.0	GoodResponse	0	0.022	70.634	3	6	Feedback	AvoidedLoss	True
73.061	2.736	Lose2	1.0	n/a	Yes	2.736	n/a	n/a	GoodResponse	0	0.0	n/a	3	6	ISIslide	AvoidedLoss	True
75.827	0.25	Lose2	1.0	0.0	Yes	4.023	0.027	n/a	GoodResponse	0	n/a	n/a	3	7	Cue	AvoidedLoss	True
76.077	4.05	Lose2	1.0	0.0	Yes	4.023	0.0	n/a	GoodResponse	0	n/a	n/a	3	7	Fixation	AvoidedLoss	True
80.126	0.33	Lose2	1.0	0.001	Yes	4.023	-0.001	2.0	GoodResponse	0	0.194	79.32	3	7	Target	AvoidedLoss	True
80.32	0.3	Lose2	1.0	0.001	Yes	4.023	-0.001	2.0	GoodResponse	0	0.194	n/a	3	7	ButtonPress	AvoidedLoss	True
80.459	0.37	Lose2	1.0	n/a	Yes	4.023	n/a	n/a	GoodResponse	0	n/a	n/a	3	7	Blank	AvoidedLoss	True
80.825	1.45	Lose2	1.0	n/a	Yes	4.023	n/a	5.0	GoodResponse	0	0.027	79.852	3	7	Feedback	AvoidedLoss	True
82.275	4.023	Lose2	1.0	n/a	Yes	4.023	n/a	n/a	GoodResponse	0	0.0	n/a	3	7	ISIslide	AvoidedLoss	True
86.323	0.25	Lose2	1.0	0.001	Yes	3.027	0.023	n/a	GoodResponse	0	n/a	n/a	3	8	Cue	AvoidedLoss	True
86.573	3.95	Lose2	1.0	0.0	Yes	3.027	0.0	n/a	GoodResponse	0	n/a	n/a	3	8	Fixation	AvoidedLoss	True
90.522	0.32	Lose2	1.0	0.001	Yes	3.027	-0.001	2.0	GoodResponse	0	0.247	89.769	3	8	Target	AvoidedLoss	True
90.769	0.3	Lose2	1.0	0.001	Yes	3.027	-0.001	2.0	GoodResponse	0	0.247	n/a	3	8	ButtonPress	AvoidedLoss	True
90.839	0.38	Lose2	1.0	n/a	Yes	3.027	n/a	n/a	GoodResponse	0	n/a	n/a	3	8	Blank	AvoidedLoss	True
91.222	1.45	Lose2	1.0	n/a	Yes	3.027	n/a	5.0	GoodResponse	0	0.021	90.243	3	8	Feedback	AvoidedLoss	True
92.671	3.027	Lose2	1.0	n/a	Yes	3.027	n/a	n/a	GoodResponse	0	0.0	n/a	3	8	ISIslide	AvoidedLoss	True
95.72	0.25	Lose2	1.0	0.0	Yes	3.13	0.02	n/a	GoodResponse	0	n/a	n/a	3	9	Cue	AvoidedLoss	True
95.97	3.95	Lose2	1.0	0.0	Yes	3.13	0.0	n/a	GoodResponse	0	n/a	n/a	3	9	Fixation	AvoidedLoss	True
99.919	0.31	Lose2	1.0	0.001	Yes	3.13	-0.001	2.0	GoodResponse	0	0.192	99.111	3	9	Target	AvoidedLoss	True
100.111	0.3	Lose2	1.0	0.001	Yes	3.13	-0.001	2.0	GoodResponse	0	0.192	n/a	3	9	ButtonPress	AvoidedLoss	True
100.235	0.39	Lose2	1.0	n/a	Yes	3.13	n/a	n/a	GoodResponse	0	n/a	n/a	3	9	Blank	AvoidedLoss	True
100.618	1.45	Lose2	1.0	n/a	Yes	3.13	n/a	5.0	GoodResponse	0	0.04	99.658	3	9	Feedback	AvoidedLoss	True
102.068	3.13	Lose2	1.0	n/a	Yes	3.13	n/a	n/a	GoodResponse	0	0.0	n/a	3	9	ISIslide	AvoidedLoss	True
105.217	0.25	Control	1.0	0.0	Yes	3.283	0.017	n/a	GoodResponse	0	n/a	n/a	3	10	Cue	Neutral	True
105.467	4.0	Control	1.0	0.0	Yes	3.283	0.0	n/a	GoodResponse	0	n/a	n/a	3	10	Fixation	Neutral	True
109.465	0.3	Control	1.0	0.002	Yes	3.283	-0.002	2.0	GoodResponse	0	0.227	108.692	3	10	Target	Neutral	True
109.692	0.3	Control	1.0	0.002	Yes	3.283	-0.002	2.0	GoodResponse	0	0.227	n/a	3	10	ButtonPress	Neutral	True
109.765	0.4	Control	1.0	n/a	Yes	3.283	n/a	n/a	GoodResponse	0	n/a	n/a	3	10	Blank	Neutral	True
110.165	1.45	Control	1.0	n/a	Yes	3.283	n/a	5.0	GoodResponse	0	0.007	109.172	3	10	Feedback	Neutral	True
111.615	3.283	Control	1.0	n/a	Yes	3.283	n/a	n/a	GoodResponse	0	0.0	n/a	3	10	ISIslide	Neutral	True
114.93	0.25	Lose2	1.0	0.0	Yes	2.72	0.03	n/a	GoodResponse	0	n/a	n/a	3	11	Cue	AvoidedLoss	True
115.18	4.05	Lose2	1.0	0.0	Yes	2.72	0.0	n/a	GoodResponse	0	n/a	n/a	3	11	Fixation	AvoidedLoss	True
119.229	0.29	Lose2	1.0	0.001	Yes	2.72	-0.001	2.0	GoodResponse	0	0.195	118.424	3	11	Target	AvoidedLoss	True
119.424	0.3	Lose2	1.0	0.001	Yes	2.72	-0.001	2.0	GoodResponse	0	0.195	n/a	3	11	ButtonPress	AvoidedLoss	True
119.528	0.41	Lose2	1.0	n/a	Yes	2.72	n/a	n/a	GoodResponse	0	n/a	n/a	3	11	Blank	AvoidedLoss	True
119.928	1.45	Lose2	1.0	n/a	Yes	2.72	n/a	5.0	GoodResponse	0	0.046	118.974	3	11	Feedback	AvoidedLoss	True
121.378	2.72	Lose2	1.0	n/a	Yes	2.72	n/a	n/a	GoodResponse	0	0.0	n/a	3	11	ISIslide	AvoidedLoss	True
124.127	0.25	Control	1.0	0.0	Yes	2.973	0.027	n/a	GoodResponse	0	n/a	n/a	3	12	Cue	Neutral	True
124.377	3.9	Control	1.0	0.0	Yes	2.973	0.0	n/a	GoodResponse	0	n/a	n/a	3	12	Fixation	Neutral	True
128.275	0.28	Control	1.0	0.002	Yes	2.973	-0.002	2.0	GoodResponse	0	0.208	127.483	3	12	Target	Neutral	True
128.483	0.3	Control	1.0	0.002	Yes	2.973	-0.002	2.0	GoodResponse	0	0.208	n/a	3	12	ButtonPress	Neutral	True
128.559	0.42	Control	1.0	n/a	Yes	2.973	n/a	n/a	GoodResponse	0	n/a	n/a	3	12	Blank	Neutral	True
128.975	1.45	Control	1.0	n/a	Yes	2.973	n/a	5.0	GoodResponse	0	0.023	127.998	3	12	Feedback	Neutral	True
130.425	2.973	Control	1.0	n/a	Yes	2.973	n/a	n/a	GoodResponse	0	0.0	n/a	3	12	ISIslide	Neutral	True
133.424	0.25	Control	1.0	0.0	Yes	2.776	0.024	n/a	GoodResponse	0	n/a	n/a	3	13	Cue	Neutral	True
133.673	4.0	Control	1.0	0.001	Yes	2.776	-0.001	n/a	GoodResponse	0	n/a	n/a	3	13	Fixation	Neutral	True
137.672	0.27	Control	1.0	0.002	Yes	2.776	-0.002	2.0	GoodResponse	0	0.187	136.859	3	13	Target	Neutral	True
137.859	0.3	Control	1.0	0.002	Yes	2.776	-0.002	2.0	GoodResponse	0	0.187	n/a	3	13	ButtonPress	Neutral	True
137.955	0.43	Control	1.0	n/a	Yes	2.776	n/a	n/a	GoodResponse	0	n/a	n/a	3	13	Blank	Neutral	True
138.372	1.45	Control	1.0	n/a	Yes	2.776	n/a	5.0	GoodResponse	0	0.041	137.413	3	13	Feedback	Neutral	True
139.821	2.776	Control	1.0	n/a	Yes	2.776	n/a	n/a	GoodResponse	0	0.0	n/a	3	13	ISIslide	Neutral	True
142.62	0.25	Win2	1.0	0.0	Yes	2.68	0.02	n/a	GoodResponse	1	n/a	n/a	4	14	Cue	Win	True
142.87	4.1	Win2	1.0	0.0	Yes	2.68	0.0	n/a	GoodResponse	1	n/a	n/a	4	14	Fixation	Win	True
146.969	0.26	Win2	1.0	0.001	Yes	2.68	-0.001	2.0	GoodResponse	1	0.197	146.166	4	14	Target	Win	True
147.166	0.3	Win2	1.0	0.001	Yes	2.68	-0.001	2.0	GoodResponse	1	0.197	n/a	4	14	ButtonPress	Win	True
147.235	0.44	Win2	1.0	n/a	Yes	2.68	n/a	n/a	GoodResponse	1	n/a	n/a	4	14	Blank	Win	True
147.669	1.45	Win2	1.0	n/a	Yes	2.68	n/a	5.0	GoodResponse	1	0.013	146.682	4	14	Feedback	Win	True
149.118	2.68	Win2	1.0	n/a	Yes	2.68	n/a	n/a	GoodResponse	1	0.0	n/a	4	14	ISIslide	Win	True
151.817	0.25	Control	1.0	0.0	Yes	2.983	0.017	n/a	GoodResponse	0	n/a	n/a	4	15	Cue	Neutral	True
152.067	4.0	Control	1.0	0.0	Yes	2.983	0.0	n/a	GoodResponse	0	n/a	n/a	4	15	Fixation	Neutral	True
156.066	0.25	Control	1.0	0.001	Yes	2.983	-0.001	2.0	GoodResponse	0	0.202	155.268	4	15	Target	Neutral	True
156.268	0.3	Control	1.0	0.001	Yes	2.983	-0.001	2.0	GoodResponse	0	0.202	n/a	4	15	ButtonPress	Neutral	True
156.315	0.45	Control	1.0	n/a	Yes	2.983	n/a	n/a	GoodResponse	0	n/a	n/a	4	15	Blank	Neutral	True
156.765	1.45	Control	1.0	n/a	Yes	2.983	n/a	5.0	GoodResponse	0	0.039	155.804	4	15	Feedback	Neutral	True
158.215	2.983	Control	1.0	n/a	Yes	2.983	n/a	n/a	GoodResponse	0	0.0	n/a	4	15	ISIslide	Neutral	True
161.214	0.25	Win2	1.0	0.0	Yes	2.886	0.014	n/a	GoodResponse	1	n/a	n/a	5	16	Cue	Win	True
161.464	4.0	Win2	1.0	0.0	Yes	2.886	0.0	n/a	GoodResponse	1	n/a	n/a	5	16	Fixation	Win	True
165.462	0.24	Win2	1.0	0.002	Yes	2.886	-0.002	2.0	GoodResponse	1	0.197	164.659	5	16	Target	Win	True
165.659	0.3	Win2	1.0	0.002	Yes	2.886	-0.002	2.0	GoodResponse	1	0.197	n/a	5	16	ButtonPress	Win	True
165.712	0.46	Win2	1.0	n/a	Yes	2.886	n/a	n/a	GoodResponse	1	n/a	n/a	5	16	Blank	Win	True
166.162	1.45	Win2	1.0	n/a	Yes	2.886	n/a	5.0	GoodResponse	1	0.007	165.169	5	16	Feedback	Win	True
167.611	2.886	Win2	1.0	n/a	Yes	2.886	n/a	n/a	GoodResponse	1	0.0	n/a	5	16	ISIslide	Win	True
170.527	0.25	Lose2	1.0	0.0	Yes	2.723	0.027	n/a	GoodResponse	0	n/a	n/a	5	17	Cue	AvoidedLoss	True
170.777	3.95	Lose2	1.0	0.0	Yes	2.723	0.0	n/a	GoodResponse	0	n/a	n/a	5	17	Fixation	AvoidedLoss	True
174.726	0.23	Lose2	1.0	0.001	Yes	2.723	-0.001	2.0	GoodResponse	0	0.198	173.924	5	17	Target	AvoidedLoss	True
174.924	0.3	Lose2	1.0	0.001	Yes	2.723	-0.001	2.0	GoodResponse	0	0.198	n/a	5	17	ButtonPress	AvoidedLoss	True
174.959	0.47	Lose2	1.0	n/a	Yes	2.723	n/a	n/a	GoodResponse	0	n/a	n/a	5	17	Blank	AvoidedLoss	True
175.425	1.45	Lose2	1.0	n/a	Yes	2.723	n/a	5.0	GoodResponse	0	0.012	174.437	5	17	Feedback	AvoidedLoss	True
176.875	2.723	Lose2	1.0	n/a	Yes	2.723	n/a	n/a	GoodResponse	0	0.0	n/a	5	17	ISIslide	AvoidedLoss	True
179.624	0.25	Lose2	1.0	0.0	Yes	2.726	0.024	n/a	GoodResponse	0	n/a	n/a	5	18	Cue	AvoidedLoss	True
179.874	4.05	Lose2	1.0	0.0	Yes	2.726	0.0	n/a	GoodResponse	0	n/a	n/a	5	18	Fixation	AvoidedLoss	True
183.922	0.22	Lose2	1.0	0.002	Yes	2.726	-0.002	2.0	GoodResponse	0	0.211	183.133	5	18	Target	AvoidedLoss	True
184.133	0.3	Lose2	1.0	0.002	Yes	2.726	-0.002	2.0	GoodResponse	0	0.211	n/a	5	18	ButtonPress	AvoidedLoss	True
184.156	0.48	Lose2	1.0	n/a	Yes	2.726	n/a	n/a	GoodResponse	0	n/a	n/a	5	18	Blank	AvoidedLoss	True
184.622	1.45	Lose2	1.0	n/a	Yes	2.726	n/a	5.0	GoodResponse	0	0.035	183.657	5	18	Feedback	AvoidedLoss	True
186.072	2.726	Lose2	1.0	n/a	Yes	2.726	n/a	n/a	GoodResponse	0	0.0	n/a	5	18	ISIslide	AvoidedLoss	True
188.821	0.25	Control	0.95	0.0	No	2.929	0.021	n/a	NoResponse	0	n/a	n/a	5	19	Cue	Neutral	True
189.071	3.95	Control	0.95	0.0	No	2.929	0.0	n/a	NoResponse	0	n/a	n/a	5	19	Fixation	Neutral	True
193.019	0.21	Control	0.95	0.002	No	2.929	-0.002	2.0	NoResponse	0	0.249	192.268	5	19	Target	Neutral	True
193.236	0.49	Control	0.95	n/a	No	2.929	n/a	n/a	NoResponse	0	n/a	n/a	5	19	Blank	Neutral	True
193.268	0.3	Control	0.95	0.002	No	2.929	-0.002	2.0	NoResponse	0	0.249	n/a	5	19	ButtonPress	Neutral	True
193.719	1.45	Control	0.95	n/a	No	2.929	n/a	5.0	NoResponse	0	0.011	192.73	5	19	Feedback	Neutral	True
195.168	2.929	Control	0.95	n/a	No	2.929	n/a	n/a	NoResponse	0	0.0	n/a	5	19	ISIslide	Neutral	True
198.117	0.25	Control	0.9523999999999999	0.0	Yes	2.633	0.017	n/a	GoodResponse	0	n/a	n/a	5	20	Cue	Neutral	False
198.367	4.05	Control	0.9523999999999999	0.0	Yes	2.633	0.0	2.0	GoodResponse	0	3.193	200.56	5	20	Fixation	Neutral	False
201.56	0.3	Control	0.9523999999999999	0.0	Yes	2.633	0.0	2.0	GoodResponse	0	3.193	n/a	5	20	ButtonPress	Neutral	False
202.416	0.2	Control	0.9523999999999999	0.001	Yes	2.633	-0.001	2.0	GoodResponse	0	0.198	201.614	5	20	Target	Neutral	False
202.614	0.3	Control	0.9523999999999999	0.001	Yes	2.633	-0.001	2.0	GoodResponse	0	0.198	n/a	5	20	ButtonPress	Neutral	False
202.616	0.5	Control	0.9523999999999999	n/a	Yes	2.633	n/a	n/a	GoodResponse	0	n/a	n/a	5	20	Blank	Neutral	False
203.116	1.45	Control	0.9523999999999999	n/a	Yes	2.633	n/a	5.0	GoodResponse	0	0.028	202.144	5	20	Feedback	Neutral	False
204.565	2.633	Control	0.9523999999999999	n/a	Yes	2.633	n/a	n/a	GoodResponse	0	0.0	n/a	5	20	ISIslide	Neutral	False
207.214	0.25	Control	0.9545	0.0	Yes	2.786	0.014	n/a	GoodResponse	0	n/a	n/a	5	21	Cue	Neutral	True
207.464	4.1	Control	0.9545	0.0	Yes	2.786	0.0	n/a	GoodResponse	0	n/a	n/a	5	21	Fixation	Neutral	True
211.563	0.19	Control	0.9545	0.001	Yes	2.786	-0.001	2.0	GoodResponse	0	0.188	210.751	5	21	Target	Neutral	True
211.751	0.3	Control	0.9545	0.001	Yes	2.786	-0.001	2.0	GoodResponse	0	0.188	n/a	5	21	ButtonPress	Neutral	True
211.763	0.51	Control	0.9545	n/a	Yes	2.786	n/a	n/a	GoodResponse	0	n/a	n/a	5	21	Blank	Neutral	True
212.262	1.45	Control	0.9545	n/a	Yes	2.786	n/a	5.0	GoodResponse	0	0.008	211.27	5	21	Feedback	Neutral	True
213.712	2.786	Control	0.9545	n/a	Yes	2.786	n/a	n/a	GoodResponse	0	0.0	n/a	5	21	ISIslide	Neutral	True
216.528	0.25	Control	0.9129999999999999	0.0	No	2.772	0.028	n/a	NoResponse	0	n/a	n/a	5	22	Cue	Neutral	True
216.777	4.0	Control	0.9129999999999999	0.001	No	2.772	-0.001	n/a	NoResponse	0	n/a	n/a	5	22	Fixation	Neutral	True
220.776	0.18	Control	0.9129999999999999	0.002	No	2.772	-0.002	2.0	NoResponse	0	0.19	219.966	5	22	Target	Neutral	True
220.959	0.52	Control	0.9129999999999999	n/a	No	2.772	n/a	n/a	NoResponse	0	n/a	n/a	5	22	Blank	Neutral	True
220.966	0.3	Control	0.9129999999999999	0.002	No	2.772	-0.002	2.0	NoResponse	0	0.19	n/a	5	22	ButtonPress	Neutral	True
221.476	1.45	Control	0.9129999999999999	n/a	No	2.772	n/a	5.0	NoResponse	0	0.009	220.485	5	22	Feedback	Neutral	True
222.925	2.772	Control	0.9129999999999999	n/a	No	2.772	n/a	n/a	NoResponse	0	0.0	n/a	5	22	ISIslide	Neutral	True
225.724	0.25	Control	0.875	0.0	No	2.776	0.024	n/a	NoResponse	0	n/a	n/a	5	23	Cue	Neutral	True
225.974	3.9	Control	0.875	0.0	No	2.776	0.0	n/a	NoResponse	0	n/a	n/a	5	23	Fixation	Neutral	True
229.873	0.17	Control	0.875	0.001	No	2.776	-0.001	2.0	NoResponse	0	0.193	229.066	5	23	Target	Neutral	True
230.039	0.53	Control	0.875	n/a	No	2.776	n/a	n/a	NoResponse	0	n/a	n/a	5	23	Blank	Neutral	True
230.066	0.3	Control	0.875	0.001	No	2.776	-0.001	2.0	NoResponse	0	0.193	n/a	5	23	ButtonPress	Neutral	True
230.573	1.45	Control	0.875	n/a	No	2.776	n/a	5.0	NoResponse	0	0.034	229.607	5	23	Feedback	Neutral	True
232.022	2.776	Control	0.875	n/a	No	2.776	n/a	n/a	NoResponse	0	0.0	n/a	5	23	ISIslide	Neutral	True
234.821	0.25	Win2	0.84	0.0	No	3.129	0.021	n/a	NoResponse	0	n/a	n/a	5	24	Cue	MissedWin	True
235.071	3.95	Win2	0.84	0.0	No	3.129	0.0	n/a	NoResponse	0	n/a	n/a	5	24	Fixation	MissedWin	True
239.02	0.16	Win2	0.84	0.001	No	3.129	-0.001	2.0	NoResponse	0	0.208	238.228	5	24	Target	MissedWin	True
239.186	0.54	Win2	0.84	n/a	No	3.129	n/a	n/a	NoResponse	0	n/a	n/a	5	24	Blank	MissedWin	True
239.228	0.3	Win2	0.84	0.001	No	3.129	-0.001	2.0	NoResponse	0	0.208	n/a	5	24	ButtonPress	MissedWin	True
239.719	1.45	Win2	0.84	n/a	No	3.129	n/a	5.0	NoResponse	0	0.01	238.729	5	24	Feedback	MissedWin	True
241.169	3.129	Win2	0.84	n/a	No	3.129	n/a	n/a	NoResponse	0	0.0	n/a	5	24	ISIslide	MissedWin	True
244.318	0.25	Win2	0.8077	0.0	No	3.082	0.018	n/a	NoResponse	0	n/a	n/a	5	25	Cue	MissedWin	True
244.568	4.0	Win2	0.8077	0.0	No	3.082	0.0	n/a	NoResponse	0	n/a	n/a	5	25	Fixation	MissedWin	True
248.566	0.15	Win2	0.8077	0.002	No	3.082	-0.002	2.0	NoResponse	0	0.2	247.766	5	25	Target	MissedWin	True
248.716	0.55	Win2	0.8077	n/a	No	3.082	n/a	n/a	NoResponse	0	n/a	n/a	5	25	Blank	MissedWin	True
248.766	0.3	Win2	0.8077	0.002	No	3.082	-0.002	2.0	NoResponse	0	0.2	n/a	5	25	ButtonPress	MissedWin	True
249.266	1.45	Win2	0.8077	n/a	No	3.082	n/a	5.0	NoResponse	0	0.024	248.29	5	25	Feedback	MissedWin	True
250.716	3.082	Win2	0.8077	n/a	No	3.082	n/a	n/a	NoResponse	0	0.0	n/a	5	25	ISIslide	MissedWin	True
253.831	0.25	Win2	0.7778	0.0	No	2.919	0.031	n/a	NoResponse	0	n/a	n/a	5	26	Cue	MissedWin	True
254.081	3.95	Win2	0.7778	0.0	No	2.919	0.0	n/a	NoResponse	0	n/a	n/a	5	26	Fixation	MissedWin	True
258.03	0.15	Win2	0.7778	0.001	No	2.919	-0.001	2.0	NoResponse	0	0.16	257.19	5	26	Target	MissedWin	True
258.18	0.55	Win2	0.7778	n/a	No	2.919	n/a	n/a	NoResponse	0	n/a	n/a	5	26	Blank	MissedWin	True
258.19	0.3	Win2	0.7778	0.001	No	2.919	-0.001	2.0	NoResponse	0	0.16	n/a	5	26	ButtonPress	MissedWin	True
258.729	1.45	Win2	0.7778	n/a	No	2.919	n/a	5.0	NoResponse	0	0.024	257.753	5	26	Feedback	MissedWin	True
260.179	2.919	Win2	0.7778	n/a	No	2.919	n/a	n/a	NoResponse	0	0.0	n/a	5	26	ISIslide	MissedWin	True
263.128	0.25	Lose2	0.75	0.0	No	2.822	0.028	n/a	NoResponse	-1	n/a	n/a	4	27	Cue	Loss	True
263.378	4.05	Lose2	0.75	0.0	No	2.822	0.0	n/a	NoResponse	-1	n/a	n/a	4	27	Fixation	Loss	True
267.426	0.15	Lose2	0.75	0.002	No	2.822	-0.002	2.0	NoResponse	-1	0.172	266.598	4	27	Target	Loss	True
267.576	0.55	Lose2	0.75	n/a	No	2.822	n/a	n/a	NoResponse	-1	n/a	n/a	4	27	Blank	Loss	True
267.598	0.3	Lose2	0.75	0.002	No	2.822	-0.002	2.0	NoResponse	-1	0.172	n/a	4	27	ButtonPress	Loss	True
268.126	1.45	Lose2	0.75	n/a	No	2.822	n/a	5.0	NoResponse	-1	0.042	267.168	4	27	Feedback	Loss	True
269.576	2.822	Lose2	0.75	n/a	No	2.822	n/a	n/a	NoResponse	-1	0.0	n/a	4	27	ISIslide	Loss	True
272.425	0.25	Control	0.7241	0.0	No	2.825	0.025	n/a	NoResponse	0	n/a	n/a	4	28	Cue	Neutral	True
272.674	4.05	Control	0.7241	0.001	No	2.825	-0.001	n/a	NoResponse	0	n/a	n/a	4	28	Fixation	Neutral	True
276.723	0.15	Control	0.7241	0.002	No	2.825	-0.002	2.0	NoResponse	0	0.183	275.906	4	28	Target	Neutral	True
276.873	0.55	Control	0.7241	n/a	No	2.825	n/a	n/a	NoResponse	0	n/a	n/a	4	28	Blank	Neutral	True
276.906	0.3	Control	0.7241	0.002	No	2.825	-0.002	2.0	NoResponse	0	0.183	n/a	4	28	ButtonPress	Neutral	True
277.423	1.45	Control	0.7241	n/a	No	2.825	n/a	5.0	NoResponse	0	0.013	276.436	4	28	Feedback	Neutral	True
278.872	2.825	Control	0.7241	n/a	No	2.825	n/a	n/a	NoResponse	0	0.0	n/a	4	28	ISIslide	Neutral	True
281.721	0.25	Lose2	0.7	0.0	No	2.829	0.021	n/a	PrematurePress	-1	n/a	n/a	3	29	Cue	Loss	True
281.971	3.95	Lose2	0.7	0.0	No	2.829	0.0	n/a	PrematurePress	-1	n/a	n/a	3	29	Fixation	Loss	True
285.92	0.15	Lose2	0.7	0.001	No	2.829	-0.001	2.0	PrematurePress	-1	0.088	285.008	3	29	Target	Loss	True
286.008	0.3	Lose2	0.7	0.001	No	2.829	-0.001	2.0	PrematurePress	-1	0.088	n/a	3	29	ButtonPress	Loss	True
286.07	0.55	Lose2	0.7	n/a	No	2.829	n/a	n/a	PrematurePress	-1	n/a	n/a	3	29	Blank	Loss	True
286.62	1.45	Lose2	0.7	n/a	No	2.829	n/a	5.0	PrematurePress	-1	0.036	285.656	3	29	Feedback	Loss	True
288.069	2.829	Lose2	0.7	n/a	No	2.829	n/a	n/a	PrematurePress	-1	0.0	n/a	3	29	ISIslide	Loss	True
290.918	0.25	Win2	0.6774	0.0	No	2.782	0.018	n/a	NoResponse	0	n/a	n/a	3	30	Cue	MissedWin	True
291.168	3.9	Win2	0.6774	0.0	No	2.782	0.0	n/a	NoResponse	0	n/a	n/a	3	30	Fixation	MissedWin	True
295.067	0.15	Win2	0.6774	0.001	No	2.782	-0.001	2.0	NoResponse	0	0.185	294.252	3	30	Target	MissedWin	True
295.217	0.55	Win2	0.6774	n/a	No	2.782	n/a	n/a	NoResponse	0	n/a	n/a	3	30	Blank	MissedWin	True
295.252	0.3	Win2	0.6774	0.001	No	2.782	-0.001	2.0	NoResponse	0	0.185	n/a	3	30	ButtonPress	MissedWin	True
295.766	1.45	Win2	0.6774	n/a	No	2.782	n/a	5.0	NoResponse	0	0.011	294.777	3	30	Feedback	MissedWin	True
297.216	2.782	Win2	0.6774	n/a	No	2.782	n/a	n/a	NoResponse	0	0.0	n/a	3	30	ISIslide	MissedWin	True
300.015	0.25	Lose2	0.6562	0.0	No	2.835	0.015	n/a	NoResponse	-1	n/a	n/a	2	31	Cue	Loss	True
300.265	4.05	Lose2	0.6562	0.0	No	2.835	0.0	n/a	NoResponse	-1	n/a	n/a	2	31	Fixation	Loss	True
304.313	0.15	Lose2	0.6562	0.002	No	2.835	-0.002	2.0	NoResponse	-1	0.183	303.496	2	31	Target	Loss	True
304.463	0.55	Lose2	0.6562	n/a	No	2.835	n/a	n/a	NoResponse	-1	n/a	n/a	2	31	Blank	Loss	True
304.496	0.3	Lose2	0.6562	0.002	No	2.835	-0.002	2.0	NoResponse	-1	0.183	n/a	2	31	ButtonPress	Loss	True
305.013	1.45	Lose2	0.6562	n/a	No	2.835	n/a	5.0	NoResponse	-1	0.032	304.045	2	31	Feedback	Loss	True
306.463	2.835	Lose2	0.6562	n/a	No	2.835	n/a	n/a	NoResponse	-1	0.0	n/a	2	31	ISIslide	Loss	True
309.328	0.25	Lose2	0.6364	0.0	No	2.622	0.028	n/a	NoResponse	-1	n/a	n/a	1	32	Cue	Loss	False
309.578	4.15	Lose2	0.6364	0.0	No	2.622	0.0	2.0	NoResponse	-1	3.803	312.381	1	32	Fixation	Loss	False
313.381	0.3	Lose2	0.6364	0.0	No	2.622	0.0	2.0	NoResponse	-1	3.803	n/a	1	32	ButtonPress	Loss	False
313.727	0.15	Lose2	0.6364	0.001	No	2.622	-0.001	2.0	NoResponse	-1	0.172	312.899	1	32	Target	Loss	False
313.877	0.55	Lose2	0.6364	n/a	No	2.622	n/a	n/a	NoResponse	-1	n/a	n/a	1	32	Blank	Loss	False
313.899	0.3	Lose2	0.6364	0.001	No	2.622	-0.001	2.0	NoResponse	-1	0.172	n/a	1	32	ButtonPress	Loss	False
314.426	1.45	Lose2	0.6364	n/a	No	2.622	n/a	5.0	NoResponse	-1	0.034	313.46	1	32	Feedback	Loss	False
315.876	2.622	Lose2	0.6364	n/a	No	2.622	n/a	n/a	NoResponse	-1	0.0	n/a	1	32	ISIslide	Loss	False
318.525	0.25	Win2	0.6175999999999999	0.0	No	2.675	0.025	n/a	NoResponse	0	n/a	n/a	1	33	Cue	MissedWin	True
318.775	4.0	Win2	0.6175999999999999	0.0	No	2.675	0.0	n/a	NoResponse	0	n/a	n/a	1	33	Fixation	MissedWin	True
322.773	0.16	Win2	0.6175999999999999	0.002	No	2.675	-0.002	2.0	NoResponse	0	0.209	321.982	1	33	Target	MissedWin	True
322.94	0.54	Win2	0.6175999999999999	n/a	No	2.675	n/a	n/a	NoResponse	0	n/a	n/a	1	33	Blank	MissedWin	True
322.982	0.3	Win2	0.6175999999999999	0.002	No	2.675	-0.002	2.0	NoResponse	0	0.209	n/a	1	33	ButtonPress	MissedWin	True
323.473	1.45	Win2	0.6175999999999999	n/a	No	2.675	n/a	5.0	NoResponse	0	0.012	322.485	1	33	Feedback	MissedWin	True
324.923	2.675	Win2	0.6175999999999999	n/a	No	2.675	n/a	n/a	NoResponse	0	0.0	n/a	1	33	ISIslide	MissedWin	True
327.622	0.25	Lose2	0.6	0.0	No	2.628	0.022	n/a	NoResponse	-1	n/a	n/a	0	34	Cue	Loss	True
327.872	4.05	Lose2	0.6	0.0	No	2.628	0.0	n/a	NoResponse	-1	n/a	n/a	0	34	Fixation	Loss	True
331.92	0.17	Lose2	0.6	0.002	No	2.628	-0.002	2.0	NoResponse	-1	0.196	331.116	0	34	Target	Loss	True
332.104	0.53	Lose2	0.6	n/a	No	2.628	n/a	n/a	NoResponse	-1	n/a	n/a	0	34	Blank	Loss	True
332.116	0.3	Lose2	0.6	0.002	No	2.628	-0.002	2.0	NoResponse	-1	0.196	n/a	0	34	ButtonPress	Loss	True
332.62	1.45	Lose2	0.6	n/a	No	2.628	n/a	5.0	NoResponse	-1	0.034	331.654	0	34	Feedback	Loss	True
334.07	2.628	Lose2	0.6	n/a	No	2.628	n/a	n/a	NoResponse	-1	0.0	n/a	0	34	ISIslide	Loss	True
336.719	0.25	Lose2	0.5832999999999999	0.0	No	2.681	0.019	n/a	NoResponse	-1	n/a	n/a	-1	35	Cue	Loss	True
336.968	4.0	Lose2	0.5832999999999999	0.001	No	2.681	-0.001	n/a	NoResponse	-1	n/a	n/a	-1	35	Fixation	Loss	True
340.967	0.18	Lose2	0.5832999999999999	0.002	No	2.681	-0.002	2.0	NoResponse	-1	0.184	340.151	-1	35	Target	Loss	True
341.15	0.52	Lose2	0.5832999999999999	n/a	No	2.681	n/a	n/a	NoResponse	-1	n/a	n/a	-1	35	Blank	Loss	True
341.151	0.3	Lose2	0.5832999999999999	0.002	No	2.681	-0.002	2.0	NoResponse	-1	0.184	n/a	-1	35	ButtonPress	Loss	True
341.667	1.45	Lose2	0.5832999999999999	n/a	No	2.681	n/a	5.0	NoResponse	-1	0.012	340.679	-1	35	Feedback	Loss	True
343.116	2.681	Lose2	0.5832999999999999	n/a	No	2.681	n/a	n/a	NoResponse	-1	0.0	n/a	-1	35	ISIslide	Loss	True
345.815	0.25	Control	0.5946	0.0	Yes	2.685	0.015	n/a	GoodResponse	0	n/a	n/a	-1	36	Cue	Neutral	True
346.065	4.0	Control	0.5946	0.0	Yes	2.685	0.0	n/a	GoodResponse	0	n/a	n/a	-1	36	Fixation	Neutral	True
350.064	0.19	Control	0.5946	0.001	Yes	2.685	-0.001	2.0	GoodResponse	0	0.188	349.252	-1	36	Target	Neutral	True
350.252	0.3	Control	0.5946	0.001	Yes	2.685	-0.001	2.0	GoodResponse	0	0.188	n/a	-1	36	ButtonPress	Neutral	True
350.264	0.51	Control	0.5946	n/a	Yes	2.685	n/a	n/a	GoodResponse	0	n/a	n/a	-1	36	Blank	Neutral	True
350.764	1.45	Control	0.5946	n/a	Yes	2.685	n/a	5.0	GoodResponse	0	0.037	349.801	-1	36	Feedback	Neutral	True
352.213	2.685	Control	0.5946	n/a	Yes	2.685	n/a	n/a	GoodResponse	0	0.0	n/a	-1	36	ISIslide	Neutral	True
354.929	0.25	Win2	0.6053000000000001	0.0	Yes	2.871	0.029	n/a	GoodResponse	1	n/a	n/a	0	37	Cue	Win	True
355.179	4.0	Win2	0.6053000000000001	0.0	Yes	2.871	0.0	n/a	GoodResponse	1	n/a	n/a	0	37	Fixation	Win	True
359.177	0.2	Win2	0.6053000000000001	0.002	Yes	2.871	-0.002	2.0	GoodResponse	1	0.196	358.373	0	37	Target	Win	True
359.373	0.3	Win2	0.6053000000000001	0.002	Yes	2.871	-0.002	2.0	GoodResponse	1	0.196	n/a	0	37	ButtonPress	Win	True
359.377	0.5	Win2	0.6053000000000001	n/a	Yes	2.871	n/a	n/a	GoodResponse	1	n/a	n/a	0	37	Blank	Win	True
359.877	1.45	Win2	0.6053000000000001	n/a	Yes	2.871	n/a	5.0	GoodResponse	1	0.046	358.923	0	37	Feedback	Win	True
361.327	2.871	Win2	0.6053000000000001	n/a	Yes	2.871	n/a	n/a	GoodResponse	1	0.0	n/a	0	37	ISIslide	Win	True
364.226	0.25	Lose2	0.6154	0.0	Yes	2.824	0.026	n/a	GoodResponse	0	n/a	n/a	0	38	Cue	AvoidedLoss	True
364.475	3.95	Lose2	0.6154	0.001	Yes	2.824	-0.001	n/a	GoodResponse	0	n/a	n/a	0	38	Fixation	AvoidedLoss	True
368.424	0.21	Lose2	0.6154	0.002	Yes	2.824	-0.002	2.0	GoodResponse	0	0.185	367.609	0	38	Target	AvoidedLoss	True
368.609	0.3	Lose2	0.6154	0.002	Yes	2.824	-0.002	2.0	GoodResponse	0	0.185	n/a	0	38	ButtonPress	AvoidedLoss	True
368.641	0.49	Lose2	0.6154	n/a	Yes	2.824	n/a	n/a	GoodResponse	0	n/a	n/a	0	38	Blank	AvoidedLoss	True
369.124	1.45	Lose2	0.6154	n/a	Yes	2.824	n/a	5.0	GoodResponse	0	0.019	368.143	0	38	Feedback	AvoidedLoss	True
370.573	2.824	Lose2	0.6154	n/a	Yes	2.824	n/a	n/a	GoodResponse	0	0.0	n/a	0	38	ISIslide	AvoidedLoss	True
373.422	0.25	Win2	0.625	0.0	Yes	2.978	0.022	n/a	GoodResponse	1	n/a	n/a	1	39	Cue	Win	True
373.672	4.1	Win2	0.625	0.0	Yes	2.978	0.0	n/a	GoodResponse	1	n/a	n/a	1	39	Fixation	Win	True
377.771	0.22	Win2	0.625	0.001	Yes	2.978	-0.001	2.0	GoodResponse	1	0.195	376.966	1	39	Target	Win	True
377.966	0.3	Win2	0.625	0.001	Yes	2.978	-0.001	2.0	GoodResponse	1	0.195	n/a	1	39	ButtonPress	Win	True
377.987	0.48	Win2	0.625	n/a	Yes	2.978	n/a	n/a	GoodResponse	1	n/a	n/a	1	39	Blank	Win	True
378.471	1.45	Win2	0.625	n/a	Yes	2.978	n/a	5.0	GoodResponse	1	0.037	377.508	1	39	Feedback	Win	True
379.92	2.978	Win2	0.625	n/a	Yes	2.978	n/a	n/a	GoodResponse	1	0.0	n/a	1	39	ISIslide	Win	True
382.919	0.25	Win2	0.6341	0.0	Yes	2.731	0.019	n/a	GoodResponse	1	n/a	n/a	2	40	Cue	Win	True
383.169	3.95	Win2	0.6341	0.0	Yes	2.731	0.0	n/a	GoodResponse	1	n/a	n/a	2	40	Fixation	Win	True
387.117	0.23	Win2	0.6341	0.002	Yes	2.731	-0.002	2.0	GoodResponse	1	0.188	386.305	2	40	Target	Win	True
387.305	0.3	Win2	0.6341	0.002	Yes	2.731	-0.002	2.0	GoodResponse	1	0.188	n/a	2	40	ButtonPress	Win	True
387.351	0.47	Win2	0.6341	n/a	Yes	2.731	n/a	n/a	GoodResponse	1	n/a	n/a	2	40	Blank	Win	True
387.817	1.45	Win2	0.6341	n/a	Yes	2.731	n/a	5.0	GoodResponse	1	0.008	386.825	2	40	Feedback	Win	True
389.267	2.731	Win2	0.6341	n/a	Yes	2.731	n/a	n/a	GoodResponse	1	0.0	n/a	2	40	ISIslide	Win	True
392.016	0.25	Win2	0.6429	0.0	Yes	2.784	0.016	n/a	GoodResponse	1	n/a	n/a	3	41	Cue	Win	True
392.266	3.9	Win2	0.6429	0.0	Yes	2.784	0.0	n/a	GoodResponse	1	n/a	n/a	3	41	Fixation	Win	True
396.164	0.24	Win2	0.6429	0.002	Yes	2.784	-0.002	2.0	GoodResponse	1	0.236	395.4	3	41	Target	Win	True
396.4	0.3	Win2	0.6429	0.002	Yes	2.784	-0.002	2.0	GoodResponse	1	0.236	n/a	3	41	ButtonPress	Win	True
396.414	0.46	Win2	0.6429	n/a	Yes	2.784	n/a	n/a	GoodResponse	1	n/a	n/a	3	41	Blank	Win	True
396.864	1.45	Win2	0.6429	n/a	Yes	2.784	n/a	5.0	GoodResponse	1	0.034	395.898	3	41	Feedback	Win	True
398.314	2.784	Win2	0.6429	n/a	Yes	2.784	n/a	n/a	GoodResponse	1	0.0	n/a	3	41	ISIslide	Win	True
401.113	0.25	Control	0.6512	0.0	Yes	2.937	0.013	n/a	GoodResponse	0	n/a	n/a	3	42	Cue	Neutral	True
401.362	3.85	Control	0.6512	0.001	Yes	2.937	-0.001	n/a	GoodResponse	0	n/a	n/a	3	42	Fixation	Neutral	True
405.211	0.25	Control	0.6512	0.002	Yes	2.937	-0.002	2.0	GoodResponse	0	0.225	404.436	3	42	Target	Neutral	True
405.436	0.3	Control	0.6512	0.002	Yes	2.937	-0.002	2.0	GoodResponse	0	0.225	n/a	3	42	ButtonPress	Neutral	True
405.461	0.45	Control	0.6512	n/a	Yes	2.937	n/a	n/a	GoodResponse	0	n/a	n/a	3	42	Blank	Neutral	True
405.911	1.45	Control	0.6512	n/a	Yes	2.937	n/a	5.0	GoodResponse	0	0.012	404.923	3	42	Feedback	Neutral	True
407.36	2.937	Control	0.6512	n/a	Yes	2.937	n/a	n/a	GoodResponse	0	0.0	n/a	3	42	ISIslide	Neutral	True
410.326	0.25	Win2	0.6591	0.0	Yes	3.174	0.026	n/a	GoodResponse	1	n/a	n/a	4	43	Cue	Win	True
410.576	4.0	Win2	0.6591	0.0	Yes	3.174	0.0	n/a	GoodResponse	1	n/a	n/a	4	43	Fixation	Win	True
414.574	0.26	Win2	0.6591	0.002	Yes	3.174	-0.002	2.0	GoodResponse	1	0.191	413.765	4	43	Target	Win	True
414.765	0.3	Win2	0.6591	0.002	Yes	3.174	-0.002	2.0	GoodResponse	1	0.191	n/a	4	43	ButtonPress	Win	True
414.841	0.44	Win2	0.6591	n/a	Yes	3.174	n/a	n/a	GoodResponse	1	n/a	n/a	4	43	Blank	Win	True
415.274	1.45	Win2	0.6591	n/a	Yes	3.174	n/a	5.0	GoodResponse	1	0.014	414.288	4	43	Feedback	Win	True
416.724	3.174	Win2	0.6591	n/a	Yes	3.174	n/a	n/a	GoodResponse	1	0.0	n/a	4	43	ISIslide	Win	True
419.923	0.25	Win2	0.6667000000000001	0.0	Yes	2.977	0.023	n/a	GoodResponse	1	n/a	n/a	5	44	Cue	Win	True
420.173	4.0	Win2	0.6667000000000001	0.0	Yes	2.977	0.0	n/a	GoodResponse	1	n/a	n/a	5	44	Fixation	Win	True
424.171	0.26	Win2	0.6667000000000001	0.002	Yes	2.977	-0.002	2.0	GoodResponse	1	0.204	423.375	5	44	Target	Win	True
424.375	0.3	Win2	0.6667000000000001	0.002	Yes	2.977	-0.002	2.0	GoodResponse	1	0.204	n/a	5	44	ButtonPress	Win	True
424.438	0.44	Win2	0.6667000000000001	n/a	Yes	2.977	n/a	n/a	GoodResponse	1	n/a	n/a	5	44	Blank	Win	True
424.871	1.45	Win2	0.6667000000000001	n/a	Yes	2.977	n/a	5.0	GoodResponse	1	0.027	423.898	5	44	Feedback	Win	True
426.32	2.977	Win2	0.6667000000000001	n/a	Yes	2.977	n/a	n/a	GoodResponse	1	0.0	n/a	5	44	ISIslide	Win	True
429.319	0.25	Control	0.6739	0.0	Yes	2.881	0.019	n/a	GoodResponse	0	n/a	n/a	5	45	Cue	Neutral	True
429.569	4.1	Control	0.6739	0.0	Yes	2.881	0.0	n/a	GoodResponse	0	n/a	n/a	5	45	Fixation	Neutral	True
433.668	0.25	Control	0.6739	0.001	Yes	2.881	-0.001	2.0	GoodResponse	0	0.196	432.864	5	45	Target	Neutral	True
433.864	0.3	Control	0.6739	0.001	Yes	2.881	-0.001	2.0	GoodResponse	0	0.196	n/a	5	45	ButtonPress	Neutral	True
433.918	0.45	Control	0.6739	n/a	Yes	2.881	n/a	n/a	GoodResponse	0	n/a	n/a	5	45	Blank	Neutral	True
434.367	1.45	Control	0.6739	n/a	Yes	2.881	n/a	5.0	GoodResponse	0	0.043	433.41	5	45	Feedback	Neutral	True
435.817	2.881	Control	0.6739	n/a	Yes	2.881	n/a	n/a	GoodResponse	0	0.0	n/a	5	45	ISIslide	Neutral	True
438.716	0.25	Lose2	0.6809000000000001	0.0	Yes	3.384	0.016	n/a	GoodResponse	0	n/a	n/a	5	46	Cue	AvoidedLoss	True
438.966	4.0	Lose2	0.6809000000000001	0.0	Yes	3.384	0.0	n/a	GoodResponse	0	n/a	n/a	5	46	Fixation	AvoidedLoss	True
442.964	0.24	Lose2	0.6809000000000001	0.002	Yes	3.384	-0.002	2.0	GoodResponse	0	0.201	442.165	5	46	Target	AvoidedLoss	True
443.165	0.3	Lose2	0.6809000000000001	0.002	Yes	3.384	-0.002	2.0	GoodResponse	0	0.201	n/a	5	46	ButtonPress	AvoidedLoss	True
443.214	0.46	Lose2	0.6809000000000001	n/a	Yes	3.384	n/a	n/a	GoodResponse	0	n/a	n/a	5	46	Blank	AvoidedLoss	True
443.664	1.45	Lose2	0.6809000000000001	n/a	Yes	3.384	n/a	5.0	GoodResponse	0	0.014	442.678	5	46	Feedback	AvoidedLoss	True
445.114	3.384	Lose2	0.6809000000000001	n/a	Yes	3.384	n/a	n/a	GoodResponse	0	0.0	n/a	5	46	ISIslide	AvoidedLoss	True
448.529	0.25	Lose2	0.6875	0.0	Yes	2.671	0.029	n/a	GoodResponse	0	n/a	n/a	5	47	Cue	AvoidedLoss	True
448.779	4.0	Lose2	0.6875	0.0	Yes	2.671	0.0	n/a	GoodResponse	0	n/a	n/a	5	47	Fixation	AvoidedLoss	True
452.778	0.23	Lose2	0.6875	0.001	Yes	2.671	-0.001	2.0	GoodResponse	0	0.226	452.004	5	47	Target	AvoidedLoss	True
453.004	0.3	Lose2	0.6875	0.001	Yes	2.671	-0.001	2.0	GoodResponse	0	0.226	n/a	5	47	ButtonPress	AvoidedLoss	True
453.011	0.47	Lose2	0.6875	n/a	Yes	2.671	n/a	n/a	GoodResponse	0	n/a	n/a	5	47	Blank	AvoidedLoss	True
453.477	1.45	Lose2	0.6875	n/a	Yes	2.671	n/a	5.0	GoodResponse	0	0.008	452.485	5	47	Feedback	AvoidedLoss	True
454.927	2.671	Lose2	0.6875	n/a	Yes	2.671	n/a	n/a	GoodResponse	0	0.0	n/a	5	47	ISIslide	AvoidedLoss	True
457.626	0.25	Lose2	0.6939	0.0	Yes	3.024	0.026	n/a	GoodResponse	0	n/a	n/a	5	48	Cue	AvoidedLoss	True
457.876	3.95	Lose2	0.6939	0.0	Yes	3.024	0.0	n/a	GoodResponse	0	n/a	n/a	5	48	Fixation	AvoidedLoss	True
461.825	0.22	Lose2	0.6939	0.001	Yes	3.024	-0.001	2.0	GoodResponse	0	0.177	461.002	5	48	Target	AvoidedLoss	True
462.002	0.3	Lose2	0.6939	0.001	Yes	3.024	-0.001	2.0	GoodResponse	0	0.177	n/a	5	48	ButtonPress	AvoidedLoss	True
462.058	0.48	Lose2	0.6939	n/a	Yes	3.024	n/a	n/a	GoodResponse	0	n/a	n/a	5	48	Blank	AvoidedLoss	True
462.524	1.45	Lose2	0.6939	n/a	Yes	3.024	n/a	5.0	GoodResponse	0	0.032	461.556	5	48	Feedback	AvoidedLoss	True
463.974	3.024	Lose2	0.6939	n/a	Yes	3.024	n/a	n/a	GoodResponse	0	0.0	n/a	5	48	ISIslide	AvoidedLoss	True
467.023	0.25	Control	0.7	0.0	Yes	2.877	0.023	n/a	GoodResponse	0	n/a	n/a	5	49	Cue	Neutral	True
467.273	4.0	Control	0.7	0.0	Yes	2.877	0.0	n/a	GoodResponse	0	n/a	n/a	5	49	Fixation	Neutral	True
471.271	0.21	Control	0.7	0.002	Yes	2.877	-0.002	2.0	GoodResponse	0	0.201	470.472	5	49	Target	Neutral	True
471.472	0.3	Control	0.7	0.002	Yes	2.877	-0.002	2.0	GoodResponse	0	0.201	n/a	5	49	ButtonPress	Neutral	True
471.488	0.49	Control	0.7	n/a	Yes	2.877	n/a	n/a	GoodResponse	0	n/a	n/a	5	49	Blank	Neutral	True
471.971	1.45	Control	0.7	n/a	Yes	2.877	n/a	5.0	GoodResponse	0	0.048	471.019	5	49	Feedback	Neutral	True
473.42	2.877	Control	0.7	n/a	Yes	2.877	n/a	n/a	GoodResponse	0	0.0	n/a	5	49	ISIslide	Neutral	True
476.319	0.25	Control	0.7059000000000001	0.001	Yes	2.781	0.019	n/a	GoodResponse	0	n/a	n/a	5	50	Cue	Neutral	True
476.569	4.0	Control	0.7059000000000001	0.0	Yes	2.781	0.0	n/a	GoodResponse	0	n/a	n/a	5	50	Fixation	Neutral	True
480.568	0.2	Control	0.7059000000000001	0.001	Yes	2.781	-0.001	2.0	GoodResponse	0	0.19	479.758	5	50	Target	Neutral	True
480.758	0.3	Control	0.7059000000000001	0.001	Yes	2.781	-0.001	2.0	GoodResponse	0	0.19	n/a	5	50	ButtonPress	Neutral	True
480.768	0.5	Control	0.7059000000000001	n/a	Yes	2.781	n/a	n/a	GoodResponse	0	n/a	n/a	5	50	Blank	Neutral	True
481.268	1.45	Control	0.7059000000000001	n/a	Yes	2.781	n/a	5.0	GoodResponse	0	0.02	480.288	5	50	Feedback	Neutral	True
482.717	2.781	Control	0.7059000000000001	n/a	Yes	2.781	n/a	n/a	GoodResponse	0	0.0	n/a	5	50	ISIslide	Neutral	True
485.516	0.25	Control	0.6923	0.0	No	2.734	0.016	n/a	LatePress	0	n/a	n/a	5	51	Cue	Neutral	True
485.766	3.95	Control	0.6923	0.0	No	2.734	0.0	n/a	LatePress	0	n/a	n/a	5	51	Fixation	Neutral	True
489.715	0.19	Control	0.6923	0.001	No	2.734	-0.001	2.0	LatePress	0	0.19	488.905	5	51	Target	Neutral	True
489.905	0.3	Control	0.6923	0.001	No	2.734	-0.001	2.0	LatePress	0	0.19	n/a	5	51	ButtonPress	Neutral	True
489.915	0.51	Control	0.6923	n/a	No	2.734	n/a	n/a	LatePress	0	n/a	n/a	5	51	Blank	Neutral	True
490.414	1.45	Control	0.6923	n/a	No	2.734	n/a	5.0	LatePress	0	0.044	489.458	5	51	Feedback	Neutral	True
491.864	2.734	Control	0.6923	n/a	No	2.734	n/a	n/a	LatePress	0	0.0	n/a	5	51	ISIslide	Neutral	True
494.63	0.25	Control	0.6792	0.0	No	2.62	0.03	n/a	NoResponse	0	n/a	n/a	5	52	Cue	Neutral	True
494.88	4.05	Control	0.6792	0.0	No	2.62	0.0	n/a	NoResponse	0	n/a	n/a	5	52	Fixation	Neutral	True
498.928	0.18	Control	0.6792	0.002	No	2.62	-0.002	2.0	NoResponse	0	0.212	498.14	5	52	Target	Neutral	True
499.111	0.52	Control	0.6792	n/a	No	2.62	n/a	n/a	NoResponse	0	n/a	n/a	5	52	Blank	Neutral	True
499.14	0.3	Control	0.6792	0.002	No	2.62	-0.002	2.0	NoResponse	0	0.212	n/a	5	52	ButtonPress	Neutral	True
499.628	1.45	Control	0.6792	n/a	No	2.62	n/a	5.0	NoResponse	0	0.001	498.629	5	52	Feedback	Neutral	True
501.077	2.62	Control	0.6792	n/a	No	2.62	n/a	n/a	NoResponse	0	0.0	n/a	5	52	ISIslide	Neutral	True
503.726	0.25	Win2	0.6667000000000001	0.001	No	2.924	0.026	n/a	NoResponse	0	n/a	n/a	5	53	Cue	MissedWin	True
503.976	4.05	Win2	0.6667000000000001	0.0	No	2.924	0.0	n/a	NoResponse	0	n/a	n/a	5	53	Fixation	MissedWin	True
508.025	0.17	Win2	0.6667000000000001	0.001	No	2.924	-0.001	2.0	NoResponse	0	0.191	507.216	5	53	Target	MissedWin	True
508.191	0.53	Win2	0.6667000000000001	n/a	No	2.924	n/a	n/a	NoResponse	0	n/a	n/a	5	53	Blank	MissedWin	True
508.216	0.3	Win2	0.6667000000000001	0.001	No	2.924	-0.001	2.0	NoResponse	0	0.191	n/a	5	53	ButtonPress	MissedWin	True
508.725	1.45	Win2	0.6667000000000001	n/a	No	2.924	n/a	5.0	NoResponse	0	0.025	507.75	5	53	Feedback	MissedWin	True
510.174	2.924	Win2	0.6667000000000001	n/a	No	2.924	n/a	n/a	NoResponse	0	0.0	n/a	5	53	ISIslide	MissedWin	True
513.123	0.25	Win2	0.6545000000000001	0.0	No	2.727	0.023	n/a	NoResponse	0	n/a	n/a	5	54	Cue	MissedWin	True
513.373	3.95	Win2	0.6545000000000001	0.0	No	2.727	0.0	n/a	NoResponse	0	n/a	n/a	5	54	Fixation	MissedWin	True
517.322	0.16	Win2	0.6545000000000001	0.001	No	2.727	-0.001	2.0	NoResponse	0	0.186	516.508	5	54	Target	MissedWin	True
517.488	0.54	Win2	0.6545000000000001	n/a	No	2.727	n/a	n/a	NoResponse	0	n/a	n/a	5	54	Blank	MissedWin	True
517.508	0.3	Win2	0.6545000000000001	0.001	No	2.727	-0.001	2.0	NoResponse	0	0.186	n/a	5	54	ButtonPress	MissedWin	True
518.021	1.45	Win2	0.6545000000000001	n/a	No	2.727	n/a	5.0	NoResponse	0	0.046	517.067	5	54	Feedback	MissedWin	True
519.471	2.727	Win2	0.6545000000000001	n/a	No	2.727	n/a	n/a	NoResponse	0	0.0	n/a	5	54	ISIslide	MissedWin	True
522.22	0.25	Control	0.6429	0.0	No	3.03	0.02	n/a	NoResponse	0	n/a	n/a	5	55	Cue	Neutral	True
522.47	3.95	Control	0.6429	0.0	No	3.03	0.0	n/a	NoResponse	0	n/a	n/a	5	55	Fixation	Neutral	True
526.418	0.17	Control	0.6429	0.002	No	3.03	-0.002	2.0	NoResponse	0	0.23	525.648	5	55	Target	Neutral	True
526.602	0.53	Control	0.6429	n/a	No	3.03	n/a	n/a	NoResponse	0	n/a	n/a	5	55	Blank	Neutral	True
526.648	0.3	Control	0.6429	0.002	No	3.03	-0.002	2.0	NoResponse	0	0.23	n/a	5	55	ButtonPress	Neutral	True
527.118	1.45	Control	0.6429	n/a	No	3.03	n/a	5.0	NoResponse	0	0.023	526.141	5	55	Feedback	Neutral	True
528.568	3.03	Control	0.6429	n/a	No	3.03	n/a	n/a	NoResponse	0	0.0	n/a	5	55	ISIslide	Neutral	True
531.617	0.25	Control	0.6315999999999999	0.0	No	2.833	0.017	n/a	NoResponse	0	n/a	n/a	5	56	Cue	Neutral	True
531.866	3.95	Control	0.6315999999999999	0.001	No	2.833	-0.001	n/a	NoResponse	0	n/a	n/a	5	56	Fixation	Neutral	True
535.815	0.18	Control	0.6315999999999999	0.002	No	2.833	-0.002	2.0	NoResponse	0	0.235	535.05	5	56	Target	Neutral	True
535.998	0.52	Control	0.6315999999999999	n/a	No	2.833	n/a	n/a	NoResponse	0	n/a	n/a	5	56	Blank	Neutral	True
536.05	0.3	Control	0.6315999999999999	0.002	No	2.833	-0.002	2.0	NoResponse	0	0.235	n/a	5	56	ButtonPress	Neutral	True
536.515	1.45	Control	0.6315999999999999	n/a	No	2.833	n/a	5.0	NoResponse	0	0.04	535.555	5	56	Feedback	Neutral	True
537.964	2.833	Control	0.6315999999999999	n/a	No	2.833	n/a	n/a	NoResponse	0	0.0	n/a	5	56	ISIslide	Neutral	True
540.813	0.25	Control	0.6207	0.0	No	3.487	0.013	n/a	NoResponse	0	n/a	n/a	5	57	Cue	Neutral	True
541.063	4.0	Control	0.6207	0.0	No	3.487	0.0	n/a	NoResponse	0	n/a	n/a	5	57	Fixation	Neutral	True
545.062	0.19	Control	0.6207	0.001	No	3.487	-0.001	2.0	NoResponse	0	0.256	544.318	5	57	Target	Neutral	True
545.262	0.51	Control	0.6207	n/a	No	3.487	n/a	n/a	NoResponse	0	n/a	n/a	5	57	Blank	Neutral	True
545.318	0.3	Control	0.6207	0.001	No	3.487	-0.001	2.0	NoResponse	0	0.256	n/a	5	57	ButtonPress	Neutral	True
545.762	1.45	Control	0.6207	n/a	No	3.487	n/a	5.0	NoResponse	0	0.012	544.774	5	57	Feedback	Neutral	True
547.211	3.487	Control	0.6207	n/a	No	3.487	n/a	n/a	NoResponse	0	0.0	n/a	5	57	ISIslide	Neutral	True
550.727	0.25	Win2	0.6271	0.0	Yes	2.723	0.027	n/a	GoodResponse	1	n/a	n/a	6	58	Cue	Win	True
550.976	4.05	Win2	0.6271	0.001	Yes	2.723	-0.001	n/a	GoodResponse	1	n/a	n/a	6	58	Fixation	Win	True
555.025	0.2	Win2	0.6271	0.002	Yes	2.723	-0.002	2.0	GoodResponse	1	0.195	554.22	6	58	Target	Win	True
555.22	0.3	Win2	0.6271	0.002	Yes	2.723	-0.002	2.0	GoodResponse	1	0.195	n/a	6	58	ButtonPress	Win	True
555.225	0.5	Win2	0.6271	n/a	Yes	2.723	n/a	n/a	GoodResponse	1	n/a	n/a	6	58	Blank	Win	True
555.725	1.45	Win2	0.6271	n/a	Yes	2.723	n/a	5.0	GoodResponse	1	0.0	554.725	6	58	Feedback	Win	True
557.174	2.723	Win2	0.6271	n/a	Yes	2.723	n/a	n/a	GoodResponse	1	0.0	n/a	6	58	ISIslide	Win	True
559.923	0.25	Lose2	0.6167	0.0	No	2.677	0.023	n/a	NoResponse	-1	n/a	n/a	5	59	Cue	Loss	False
560.173	4.0	Lose2	0.6167	0.0	No	2.677	0.0	2.0	NoResponse	-1	3.577	562.75	5	59	Fixation	Loss	False
563.75	0.3	Lose2	0.6167	0.0	No	2.677	0.0	2.0	NoResponse	-1	3.577	n/a	5	59	ButtonPress	Loss	False
564.172	0.21	Lose2	0.6167	0.001	No	2.677	-0.001	2.0	NoResponse	-1	0.235	563.407	5	59	Target	Loss	False
564.388	0.49	Lose2	0.6167	n/a	No	2.677	n/a	n/a	NoResponse	-1	n/a	n/a	5	59	Blank	Loss	False
564.407	0.3	Lose2	0.6167	0.001	No	2.677	-0.001	2.0	NoResponse	-1	0.235	n/a	5	59	ButtonPress	Loss	False
564.872	1.45	Lose2	0.6167	n/a	No	2.677	n/a	5.0	NoResponse	-1	0.024	563.896	5	59	Feedback	Loss	False
566.321	2.677	Lose2	0.6167	n/a	No	2.677	n/a	n/a	NoResponse	-1	0.0	n/a	5	59	ISIslide	Loss	False
569.02	0.25	Control	0.623	0.0	Yes	2.68	0.02	n/a	GoodResponse	0	n/a	n/a	5	60	Cue	Neutral	True
569.27	4.0	Control	0.623	0.0	Yes	2.68	0.0	n/a	GoodResponse	0	n/a	n/a	5	60	Fixation	Neutral	True
573.269	0.22	Control	0.623	0.001	Yes	2.68	-0.001	2.0	GoodResponse	0	0.19	572.459	5	60	Target	Neutral	True
573.459	0.3	Control	0.623	0.001	Yes	2.68	-0.001	2.0	GoodResponse	0	0.19	n/a	5	60	ButtonPress	Neutral	True
573.502	0.48	Control	0.623	n/a	Yes	2.68	n/a	n/a	GoodResponse	0	n/a	n/a	5	60	Blank	Neutral	True
573.968	1.45	Control	0.623	n/a	Yes	2.68	n/a	5.0	GoodResponse	0	0.002	572.97	5	60	Feedback	Neutral	True
575.418	2.68	Control	0.623	n/a	Yes	2.68	n/a	n/a	GoodResponse	0	0.0	n/a	5	60	ISIslide	Neutral	True
578.117	0.25	Lose2	0.629	0.0	Yes	2.983	0.017	n/a	GoodResponse	0	n/a	n/a	5	61	Cue	AvoidedLoss	True
578.367	4.0	Lose2	0.629	0.0	Yes	2.983	0.0	n/a	GoodResponse	0	n/a	n/a	5	61	Fixation	AvoidedLoss	True
582.365	0.23	Lose2	0.629	0.002	Yes	2.983	-0.002	2.0	GoodResponse	0	0.202	581.567	5	61	Target	AvoidedLoss	True
582.567	0.3	Lose2	0.629	0.002	Yes	2.983	-0.002	2.0	GoodResponse	0	0.202	n/a	5	61	ButtonPress	AvoidedLoss	True
582.599	0.47	Lose2	0.629	n/a	Yes	2.983	n/a	n/a	GoodResponse	0	n/a	n/a	5	61	Blank	AvoidedLoss	True
583.065	1.45	Lose2	0.629	n/a	Yes	2.983	n/a	5.0	GoodResponse	0	0.027	582.092	5	61	Feedback	AvoidedLoss	True
584.515	2.983	Lose2	0.629	n/a	Yes	2.983	n/a	n/a	GoodResponse	0	0.0	n/a	5	61	ISIslide	AvoidedLoss	True
587.514	0.25	Lose2	0.619	0.0	No	2.886	0.014	n/a	NoResponse	-1	n/a	n/a	4	62	Cue	Loss	True
587.763	3.9	Lose2	0.619	0.001	No	2.886	-0.001	n/a	NoResponse	-1	n/a	n/a	4	62	Fixation	Loss	True
591.662	0.24	Lose2	0.619	0.002	No	2.886	-0.002	2.0	NoResponse	-1	0.257	590.919	4	62	Target	Loss	True
591.912	0.46	Lose2	0.619	n/a	No	2.886	n/a	n/a	NoResponse	-1	n/a	n/a	4	62	Blank	Loss	True
591.919	0.3	Lose2	0.619	0.002	No	2.886	-0.002	2.0	NoResponse	-1	0.257	n/a	4	62	ButtonPress	Loss	True
592.362	1.45	Lose2	0.619	n/a	No	2.886	n/a	5.0	NoResponse	-1	0.046	591.408	4	62	Feedback	Loss	True
593.811	2.886	Lose2	0.619	n/a	No	2.886	n/a	n/a	NoResponse	-1	0.0	n/a	4	62	ISIslide	Loss	True
596.727	0.25	Lose2	0.625	0.0	Yes	2.623	0.027	n/a	GoodResponse	0	n/a	n/a	4	63	Cue	AvoidedLoss	True
596.977	4.05	Lose2	0.625	0.0	Yes	2.623	0.0	n/a	GoodResponse	0	n/a	n/a	4	63	Fixation	AvoidedLoss	True
601.025	0.25	Lose2	0.625	0.002	Yes	2.623	-0.002	2.0	GoodResponse	0	0.2	600.225	4	63	Target	AvoidedLoss	True
601.225	0.3	Lose2	0.625	0.002	Yes	2.623	-0.002	2.0	GoodResponse	0	0.2	n/a	4	63	ButtonPress	AvoidedLoss	True
601.275	0.45	Lose2	0.625	n/a	Yes	2.623	n/a	n/a	GoodResponse	0	n/a	n/a	4	63	Blank	AvoidedLoss	True
601.725	1.45	Lose2	0.625	n/a	Yes	2.623	n/a	5.0	GoodResponse	0	0.049	600.774	4	63	Feedback	AvoidedLoss	True
603.175	2.623	Lose2	0.625	n/a	Yes	2.623	n/a	n/a	GoodResponse	0	0.0	n/a	4	63	ISIslide	AvoidedLoss	True
605.824	0.25	Win2	0.6308	0.0	Yes	3.126	0.024	n/a	GoodResponse	1	n/a	n/a	5	64	Cue	Win	True
606.074	4.15	Win2	0.6308	0.0	Yes	3.126	0.0	n/a	GoodResponse	1	n/a	n/a	5	64	Fixation	Win	True
610.222	0.26	Win2	0.6308	0.002	Yes	3.126	-0.002	2.0	GoodResponse	1	0.193	609.415	5	64	Target	Win	True
610.415	0.3	Win2	0.6308	0.002	Yes	3.126	-0.002	2.0	GoodResponse	1	0.193	n/a	5	64	ButtonPress	Win	True
610.489	0.44	Win2	0.6308	n/a	Yes	3.126	n/a	n/a	GoodResponse	1	n/a	n/a	5	64	Blank	Win	True
610.922	1.45	Win2	0.6308	n/a	Yes	3.126	n/a	5.0	GoodResponse	1	0.023	609.945	5	64	Feedback	Win	True
612.371	3.126	Win2	0.6308	n/a	Yes	3.126	n/a	n/a	GoodResponse	1	0.0	n/a	5	64	ISIslide	Win	True
615.52	0.25	Control	0.6364	0.0	Yes	2.78	0.02	n/a	GoodResponse	0	n/a	n/a	5	65	Cue	Neutral	True
615.77	4.0	Control	0.6364	0.0	Yes	2.78	0.0	n/a	GoodResponse	0	n/a	n/a	5	65	Fixation	Neutral	True
619.769	0.27	Control	0.6364	0.001	Yes	2.78	-0.001	2.0	GoodResponse	0	0.21	618.979	5	65	Target	Neutral	True
619.979	0.3	Control	0.6364	0.001	Yes	2.78	-0.001	2.0	GoodResponse	0	0.21	n/a	5	65	ButtonPress	Neutral	True
620.035	0.43	Control	0.6364	n/a	Yes	2.78	n/a	n/a	GoodResponse	0	n/a	n/a	5	65	Blank	Neutral	True
620.469	1.45	Control	0.6364	n/a	Yes	2.78	n/a	5.0	GoodResponse	0	0.037	619.506	5	65	Feedback	Neutral	True
621.918	2.78	Control	0.6364	n/a	Yes	2.78	n/a	n/a	GoodResponse	0	0.0	n/a	5	65	ISIslide	Neutral	True
624.717	0.25	Win2	0.6418	0.0	Yes	2.783	0.017	n/a	GoodResponse	1	n/a	n/a	6	66	Cue	Win	True
624.967	3.9	Win2	0.6418	0.0	Yes	2.783	0.0	n/a	GoodResponse	1	n/a	n/a	6	66	Fixation	Win	True
628.866	0.28	Win2	0.6418	0.001	Yes	2.783	-0.001	2.0	GoodResponse	1	0.198	628.064	6	66	Target	Win	True
629.064	0.3	Win2	0.6418	0.001	Yes	2.783	-0.001	2.0	GoodResponse	1	0.198	n/a	6	66	ButtonPress	Win	True
629.149	0.42	Win2	0.6418	n/a	Yes	2.783	n/a	n/a	GoodResponse	1	n/a	n/a	6	66	Blank	Win	True
629.565	1.45	Win2	0.6418	n/a	Yes	2.783	n/a	5.0	GoodResponse	1	0.014	628.579	6	66	Feedback	Win	True
631.015	2.783	Win2	0.6418	n/a	Yes	2.783	n/a	n/a	GoodResponse	1	0.0	n/a	6	66	ISIslide	Win	True
633.814	0.25	Control	0.6324000000000001	0.0	No	2.736	0.014	n/a	NoResponse	0	n/a	n/a	6	67	Cue	Neutral	True
634.064	3.95	Control	0.6324000000000001	0.0	No	2.736	0.0	n/a	NoResponse	0	n/a	n/a	6	67	Fixation	Neutral	True
638.012	0.29	Control	0.6324000000000001	0.002	No	2.736	-0.002	2.0	NoResponse	0	0.612	637.624	6	67	Target	Neutral	True
638.312	0.41	Control	0.6324000000000001	n/a	No	2.736	n/a	n/a	NoResponse	0	n/a	n/a	6	67	Blank	Neutral	True
638.624	0.3	Control	0.6324000000000001	0.002	No	2.736	-0.002	2.0	NoResponse	0	0.612	n/a	6	67	ButtonPress	Neutral	True
638.712	1.45	Control	0.6324000000000001	n/a	No	2.736	n/a	5.0	NoResponse	0	0.037	637.749	6	67	Feedback	Neutral	True
640.162	2.736	Control	0.6324000000000001	n/a	No	2.736	n/a	n/a	NoResponse	0	0.0	n/a	6	67	ISIslide	Neutral	True
642.927	0.25	Win2	0.6377	0.0	Yes	3.073	0.027	n/a	GoodResponse	1	n/a	n/a	7	68	Cue	Win	True
643.177	4.0	Win2	0.6377	0.0	Yes	3.073	0.0	n/a	GoodResponse	1	n/a	n/a	7	68	Fixation	Win	True
647.176	0.3	Win2	0.6377	0.001	Yes	3.073	-0.001	2.0	GoodResponse	1	0.213	646.389	7	68	Target	Win	True
647.389	0.3	Win2	0.6377	0.001	Yes	3.073	-0.001	2.0	GoodResponse	1	0.213	n/a	7	68	ButtonPress	Win	True
647.476	0.4	Win2	0.6377	n/a	Yes	3.073	n/a	n/a	GoodResponse	1	n/a	n/a	7	68	Blank	Win	True
647.876	1.45	Win2	0.6377	n/a	Yes	3.073	n/a	5.0	GoodResponse	1	0.044	646.92	7	68	Feedback	Win	True
649.325	3.073	Win2	0.6377	n/a	Yes	3.073	n/a	n/a	GoodResponse	1	0.0	n/a	7	68	ISIslide	Win	True
652.424	0.25	Win2	0.6429	0.0	Yes	3.226	0.024	n/a	GoodResponse	1	n/a	n/a	8	69	Cue	Win	True
652.674	3.95	Win2	0.6429	0.0	Yes	3.226	0.0	n/a	GoodResponse	1	n/a	n/a	8	69	Fixation	Win	True
656.623	0.31	Win2	0.6429	0.001	Yes	3.226	-0.001	2.0	GoodResponse	1	0.194	655.817	8	69	Target	Win	True
656.817	0.3	Win2	0.6429	0.001	Yes	3.226	-0.001	2.0	GoodResponse	1	0.194	n/a	8	69	ButtonPress	Win	True
656.939	0.39	Win2	0.6429	n/a	Yes	3.226	n/a	n/a	GoodResponse	1	n/a	n/a	8	69	Blank	Win	True
657.322	1.45	Win2	0.6429	n/a	Yes	3.226	n/a	5.0	GoodResponse	1	0.013	656.335	8	69	Feedback	Win	True
658.772	3.226	Win2	0.6429	n/a	Yes	3.226	n/a	n/a	GoodResponse	1	0.0	n/a	8	69	ISIslide	Win	True
662.021	0.25	Lose2	0.6479	0.0	Yes	3.029	0.021	n/a	GoodResponse	0	n/a	n/a	8	70	Cue	AvoidedLoss	True
662.271	4.05	Lose2	0.6479	0.0	Yes	3.029	0.0	n/a	GoodResponse	0	n/a	n/a	8	70	Fixation	AvoidedLoss	True
666.319	0.32	Lose2	0.6479	0.002	Yes	3.029	-0.002	2.0	GoodResponse	0	0.194	665.513	8	70	Target	AvoidedLoss	True
666.513	0.3	Lose2	0.6479	0.002	Yes	3.029	-0.002	2.0	GoodResponse	0	0.194	n/a	8	70	ButtonPress	AvoidedLoss	True
666.652	0.38	Lose2	0.6479	n/a	Yes	3.029	n/a	n/a	GoodResponse	0	n/a	n/a	8	70	Blank	AvoidedLoss	True
667.019	1.45	Lose2	0.6479	n/a	Yes	3.029	n/a	5.0	GoodResponse	0	0.023	666.042	8	70	Feedback	AvoidedLoss	True
668.468	3.029	Lose2	0.6479	n/a	Yes	3.029	n/a	n/a	GoodResponse	0	0.0	n/a	8	70	ISIslide	AvoidedLoss	True
671.517	0.25	Win2	0.6528	0.0	Yes	2.733	0.017	n/a	GoodResponse	1	n/a	n/a	9	71	Cue	Win	True
671.767	4.05	Win2	0.6528	0.0	Yes	2.733	0.0	n/a	GoodResponse	1	n/a	n/a	9	71	Fixation	Win	True
675.816	0.33	Win2	0.6528	0.001	Yes	2.733	-0.001	2.0	GoodResponse	1	0.199	675.015	9	71	Target	Win	True
676.015	0.3	Win2	0.6528	0.001	Yes	2.733	-0.001	2.0	GoodResponse	1	0.199	n/a	9	71	ButtonPress	Win	True
676.149	0.37	Win2	0.6528	n/a	Yes	2.733	n/a	n/a	GoodResponse	1	n/a	n/a	9	71	Blank	Win	True
676.516	1.45	Win2	0.6528	n/a	Yes	2.733	n/a	5.0	GoodResponse	1	0.037	675.553	9	71	Feedback	Win	True
677.965	2.733	Win2	0.6528	n/a	Yes	2.733	n/a	n/a	GoodResponse	1	0.0	n/a	9	71	ISIslide	Win	True
680.714	0.25	Win2	0.6575	0.0	Yes	2.786	0.014	n/a	GoodResponse	1	n/a	n/a	10	72	Cue	Win	True
680.964	4.1	Win2	0.6575	0.0	Yes	2.786	0.0	n/a	GoodResponse	1	n/a	n/a	10	72	Fixation	Win	True
685.063	0.34	Win2	0.6575	0.001	Yes	2.786	-0.001	2.0	GoodResponse	1	0.224	684.287	10	72	Target	Win	True
685.287	0.3	Win2	0.6575	0.001	Yes	2.786	-0.001	2.0	GoodResponse	1	0.224	n/a	10	72	ButtonPress	Win	True
685.412	0.36	Win2	0.6575	n/a	Yes	2.786	n/a	n/a	GoodResponse	1	n/a	n/a	10	72	Blank	Win	True
685.762	1.45	Win2	0.6575	n/a	Yes	2.786	n/a	5.0	GoodResponse	1	0.011	684.773	10	72	Feedback	Win	True
687.212	2.786	Win2	0.6575	n/a	Yes	2.786	n/a	n/a	GoodResponse	1	0.0	n/a	10	72	ISIslide	Win	True
690.027	0.25	Win2	0.6622	0.001	Yes	2.673	0.027	n/a	GoodResponse	1	n/a	n/a	11	73	Cue	Win	True
690.277	4.0	Win2	0.6622	0.0	Yes	2.673	0.0	n/a	GoodResponse	1	n/a	n/a	11	73	Fixation	Win	True
694.276	0.34	Win2	0.6622	0.001	Yes	2.673	-0.001	2.0	GoodResponse	1	0.227	693.503	11	73	Target	Win	True
694.503	0.3	Win2	0.6622	0.001	Yes	2.673	-0.001	2.0	GoodResponse	1	0.227	n/a	11	73	ButtonPress	Win	True
694.626	0.36	Win2	0.6622	n/a	Yes	2.673	n/a	n/a	GoodResponse	1	n/a	n/a	11	73	Blank	Win	True
694.976	1.45	Win2	0.6622	n/a	Yes	2.673	n/a	5.0	GoodResponse	1	0.017	693.993	11	73	Feedback	Win	True
696.425	2.673	Win2	0.6622	n/a	Yes	2.673	n/a	n/a	GoodResponse	1	0.0	n/a	11	73	ISIslide	Win	True
699.124	0.25	Lose2	0.6667000000000001	0.0	Yes	2.626	0.024	n/a	GoodResponse	0	n/a	n/a	11	74	Cue	AvoidedLoss	True
699.374	4.05	Lose2	0.6667000000000001	0.0	Yes	2.626	0.0	n/a	GoodResponse	0	n/a	n/a	11	74	Fixation	AvoidedLoss	True
703.423	0.34	Lose2	0.6667000000000001	0.001	Yes	2.626	-0.001	2.0	GoodResponse	0	0.181	702.604	11	74	Target	AvoidedLoss	True
703.604	0.3	Lose2	0.6667000000000001	0.001	Yes	2.626	-0.001	2.0	GoodResponse	0	0.181	n/a	11	74	ButtonPress	AvoidedLoss	True
703.773	0.36	Lose2	0.6667000000000001	n/a	Yes	2.626	n/a	n/a	GoodResponse	0	n/a	n/a	11	74	Blank	AvoidedLoss	True
704.122	1.45	Lose2	0.6667000000000001	n/a	Yes	2.626	n/a	5.0	GoodResponse	0	0.041	703.163	11	74	Feedback	AvoidedLoss	True
705.572	2.626	Lose2	0.6667000000000001	n/a	Yes	2.626	n/a	n/a	GoodResponse	0	0.0	n/a	11	74	ISIslide	AvoidedLoss	True
708.221	0.25	Lose2	0.6711	0.0	Yes	2.929	0.021	n/a	GoodResponse	0	n/a	n/a	11	75	Cue	AvoidedLoss	True
708.471	3.95	Lose2	0.6711	0.0	Yes	2.929	0.0	n/a	GoodResponse	0	n/a	n/a	11	75	Fixation	AvoidedLoss	True
712.42	0.33	Lose2	0.6711	0.001	Yes	2.929	-0.001	2.0	GoodResponse	0	0.233	711.653	11	75	Target	AvoidedLoss	True
712.653	0.3	Lose2	0.6711	0.001	Yes	2.929	-0.001	2.0	GoodResponse	0	0.233	n/a	11	75	ButtonPress	AvoidedLoss	True
712.753	0.37	Lose2	0.6711	n/a	Yes	2.929	n/a	n/a	GoodResponse	0	n/a	n/a	11	75	Blank	AvoidedLoss	True
713.119	1.45	Lose2	0.6711	n/a	Yes	2.929	n/a	5.0	GoodResponse	0	0.02	712.139	11	75	Feedback	AvoidedLoss	True
714.569	2.929	Lose2	0.6711	n/a	Yes	2.929	n/a	n/a	GoodResponse	0	0.0	n/a	11	75	ISIslide	AvoidedLoss	True
717.518	0.25	Control	0.6753	0.0	Yes	3.232	0.018	n/a	GoodResponse	0	n/a	n/a	11	76	Cue	Neutral	True
717.768	4.05	Control	0.6753	0.0	Yes	3.232	0.0	n/a	GoodResponse	0	n/a	n/a	11	76	Fixation	Neutral	True
721.816	0.32	Control	0.6753	0.002	Yes	3.232	-0.002	2.0	GoodResponse	0	0.193	721.009	11	76	Target	Neutral	True
722.009	0.3	Control	0.6753	0.002	Yes	3.232	-0.002	2.0	GoodResponse	0	0.193	n/a	11	76	ButtonPress	Neutral	True
722.149	0.38	Control	0.6753	n/a	Yes	3.232	n/a	n/a	GoodResponse	0	n/a	n/a	11	76	Blank	Neutral	True
722.516	1.45	Control	0.6753	n/a	Yes	3.232	n/a	5.0	GoodResponse	0	0.037	721.553	11	76	Feedback	Neutral	True
723.965	3.232	Control	0.6753	n/a	Yes	3.232	n/a	n/a	GoodResponse	0	0.0	n/a	11	76	ISIslide	Neutral	True
727.214	0.25	Lose2	0.6795	0.0	Yes	2.586	0.014	n/a	GoodResponse	0	n/a	n/a	11	77	Cue	AvoidedLoss	True
727.464	3.95	Lose2	0.6795	0.0	Yes	2.586	0.0	n/a	GoodResponse	0	n/a	n/a	11	77	Fixation	AvoidedLoss	True
731.413	0.31	Lose2	0.6795	0.001	Yes	2.586	-0.001	2.0	GoodResponse	0	0.208	730.621	11	77	Target	AvoidedLoss	True
731.621	0.3	Lose2	0.6795	0.001	Yes	2.586	-0.001	2.0	GoodResponse	0	0.208	n/a	11	77	ButtonPress	AvoidedLoss	True
731.729	0.39	Lose2	0.6795	n/a	Yes	2.586	n/a	n/a	GoodResponse	0	n/a	n/a	11	77	Blank	AvoidedLoss	True
732.113	1.45	Lose2	0.6795	n/a	Yes	2.586	n/a	5.0	GoodResponse	0	0.001	731.114	11	77	Feedback	AvoidedLoss	True
733.562	2.586	Lose2	0.6795	n/a	Yes	2.586	n/a	n/a	GoodResponse	0	0.0	n/a	11	77	ISIslide	AvoidedLoss	True
