onset	duration	cue_type	current_mean_accuracy	duration_error	is_hit	isi_adjusted	onset_delay	response	response_type	reward	rt	rt_time	total_reward	trial_number	trial_phase	trial_type	one_press
11.11	0.25	Control	1.0	0.0	Yes	2.94	0.01	n/a	GoodResponse	0	n/a	n/a	0	0	Cue	Neutral	True
11.36	3.85	Control	1.0	0.0	Yes	2.94	0.0	n/a	GoodResponse	0	n/a	n/a	0	0	Fixation	Neutral	True
15.209	0.4	Control	1.0	0.001	Yes	2.94	-0.001	4.0	GoodResponse	0	0.217	14.426	0	0	Target	Neutral	True
15.426	0.3	Control	1.0	0.001	Yes	2.94	-0.001	4.0	GoodResponse	0	0.217	n/a	0	0	ButtonPress	Neutral	True
15.609	0.3	Control	1.0	n/a	Yes	2.94	n/a	n/a	GoodResponse	0	n/a	n/a	0	0	Blank	Neutral	True
15.909	1.45	Control	1.0	n/a	Yes	2.94	n/a	5.0	GoodResponse	0	0.02	14.929	0	0	Feedback	Neutral	True
17.358	2.94	Control	1.0	n/a	Yes	2.94	n/a	n/a	GoodResponse	0	0.0	n/a	0	0	ISIslide	Neutral	True
20.324	0.25	Lose2	1.0	0.0	Yes	2.776	0.024	n/a	GoodResponse	0	n/a	n/a	0	1	Cue	AvoidedLoss	True
20.574	4.0	Lose2	1.0	0.0	Yes	2.776	0.0	n/a	GoodResponse	0	n/a	n/a	0	1	Fixation	AvoidedLoss	True
24.572	0.39	Lose2	1.0	0.002	Yes	2.776	-0.002	4.0	GoodResponse	0	0.196	23.768	0	1	Target	AvoidedLoss	True
24.768	0.3	Lose2	1.0	0.002	Yes	2.776	-0.002	4.0	GoodResponse	0	0.196	n/a	0	1	ButtonPress	AvoidedLoss	True
24.972	0.31	Lose2	1.0	n/a	Yes	2.776	n/a	n/a	GoodResponse	0	n/a	n/a	0	1	Blank	AvoidedLoss	True
25.272	1.45	Lose2	1.0	n/a	Yes	2.776	n/a	5.0	GoodResponse	0	0.023	24.295	0	1	Feedback	AvoidedLoss	True
26.721	2.776	Lose2	1.0	n/a	Yes	2.776	n/a	n/a	GoodResponse	0	0.0	n/a	0	1	ISIslide	AvoidedLoss	True
29.52	0.25	Control	1.0	0.0	Yes	2.58	0.02	n/a	GoodResponse	0	n/a	n/a	0	2	Cue	Neutral	True
29.77	4.1	Control	1.0	0.0	Yes	2.58	0.0	n/a	GoodResponse	0	n/a	n/a	0	2	Fixation	Neutral	True
33.869	0.38	Control	1.0	0.001	Yes	2.58	-0.001	4.0	GoodResponse	0	0.289	33.158	0	2	Target	Neutral	True
34.158	0.3	Control	1.0	0.001	Yes	2.58	-0.001	4.0	GoodResponse	0	0.289	n/a	0	2	ButtonPress	Neutral	True
34.252	0.32	Control	1.0	n/a	Yes	2.58	n/a	n/a	GoodResponse	0	n/a	n/a	0	2	Blank	Neutral	True
34.569	1.45	Control	1.0	n/a	Yes	2.58	n/a	5.0	GoodResponse	0	0.043	33.612	0	2	Feedback	Neutral	True
36.018	2.58	Control	1.0	n/a	Yes	2.58	n/a	n/a	GoodResponse	0	0.0	n/a	0	2	ISIslide	Neutral	True
38.634	0.25	Win2	1.0	0.0	Yes	2.816	0.034	n/a	GoodResponse	1	n/a	n/a	1	3	Cue	Win	True
38.884	3.95	Win2	1.0	0.0	Yes	2.816	0.0	n/a	GoodResponse	1	n/a	n/a	1	3	Fixation	Win	True
42.832	0.37	Win2	1.0	0.002	Yes	2.816	-0.002	4.0	GoodResponse	1	0.187	42.019	1	3	Target	Win	True
43.019	0.3	Win2	1.0	0.002	Yes	2.816	-0.002	4.0	GoodResponse	1	0.187	n/a	1	3	ButtonPress	Win	True
43.216	0.33	Win2	1.0	n/a	Yes	2.816	n/a	n/a	GoodResponse	1	n/a	n/a	1	3	Blank	Win	True
43.532	1.45	Win2	1.0	n/a	Yes	2.816	n/a	5.0	GoodResponse	1	0.007	42.539	1	3	Feedback	Win	True
44.982	2.816	Win2	1.0	n/a	Yes	2.816	n/a	n/a	GoodResponse	1	0.0	n/a	1	3	ISIslide	Win	True
47.814	0.25	Win2	1.0	0.0	Yes	3.286	0.014	n/a	GoodResponse	1	n/a	n/a	2	4	Cue	Win	True
48.064	4.0	Win2	1.0	0.0	Yes	3.286	0.0	n/a	GoodResponse	1	n/a	n/a	2	4	Fixation	Win	True
52.062	0.36	Win2	1.0	0.002	Yes	3.286	-0.002	4.0	GoodResponse	1	0.218	51.28	2	4	Target	Win	True
52.28	0.3	Win2	1.0	0.002	Yes	3.286	-0.002	4.0	GoodResponse	1	0.218	n/a	2	4	ButtonPress	Win	True
52.429	0.34	Win2	1.0	n/a	Yes	3.286	n/a	n/a	GoodResponse	1	n/a	n/a	2	4	Blank	Win	True
52.762	1.45	Win2	1.0	n/a	Yes	3.286	n/a	5.0	GoodResponse	1	0.045	51.807	2	4	Feedback	Win	True
54.212	3.286	Win2	1.0	n/a	Yes	3.286	n/a	n/a	GoodResponse	1	0.0	n/a	2	4	ISIslide	Win	True
57.527	0.25	Win2	1.0	0.0	Yes	2.773	0.027	n/a	GoodResponse	1	n/a	n/a	3	5	Cue	Win	True
57.777	4.0	Win2	1.0	0.0	Yes	2.773	0.0	n/a	GoodResponse	1	n/a	n/a	3	5	Fixation	Win	True
61.776	0.35	Win2	1.0	0.001	Yes	2.773	-0.001	4.0	GoodResponse	1	0.235	61.011	3	5	Target	Win	True
62.011	0.3	Win2	1.0	0.001	Yes	2.773	-0.001	4.0	GoodResponse	1	0.235	n/a	3	5	ButtonPress	Win	True
62.126	0.35	Win2	1.0	n/a	Yes	2.773	n/a	n/a	GoodResponse	1	n/a	n/a	3	5	Blank	Win	True
62.475	1.45	Win2	1.0	n/a	Yes	2.773	n/a	5.0	GoodResponse	1	0.039	61.514	3	5	Feedback	Win	True
63.925	2.773	Win2	1.0	n/a	Yes	2.773	n/a	n/a	GoodResponse	1	0.0	n/a	3	5	ISIslide	Win	True
66.724	0.25	Lose2	1.0	0.0	Yes	2.726	0.024	n/a	GoodResponse	0	n/a	n/a	3	6	Cue	AvoidedLoss	True
66.974	3.95	Lose2	1.0	0.0	Yes	2.726	0.0	n/a	GoodResponse	0	n/a	n/a	3	6	Fixation	AvoidedLoss	True
70.922	0.34	Lose2	1.0	0.002	Yes	2.726	-0.002	4.0	GoodResponse	0	0.248	70.17	3	6	Target	AvoidedLoss	True
71.17	0.3	Lose2	1.0	0.002	Yes	2.726	-0.002	4.0	GoodResponse	0	0.248	n/a	3	6	ButtonPress	AvoidedLoss	True
71.272	0.36	Lose2	1.0	n/a	Yes	2.726	n/a	n/a	GoodResponse	0	n/a	n/a	3	6	Blank	AvoidedLoss	True
71.622	1.45	Lose2	1.0	n/a	Yes	2.726	n/a	5.0	GoodResponse	0	0.014	70.636	3	6	Feedback	AvoidedLoss	True
73.072	2.726	Lose2	1.0	n/a	Yes	2.726	n/a	n/a	GoodResponse	0	0.0	n/a	3	6	ISIslide	AvoidedLoss	True
75.821	0.25	Lose2	1.0	0.0	Yes	4.029	0.021	n/a	GoodResponse	0	n/a	n/a	3	7	Cue	AvoidedLoss	True
76.071	4.05	Lose2	1.0	0.0	Yes	4.029	0.0	n/a	GoodResponse	0	n/a	n/a	3	7	Fixation	AvoidedLoss	True
80.119	0.33	Lose2	1.0	0.002	Yes	4.029	-0.002	4.0	GoodResponse	0	0.192	79.311	3	7	Target	AvoidedLoss	True
80.311	0.3	Lose2	1.0	0.002	Yes	4.029	-0.002	4.0	GoodResponse	0	0.192	n/a	3	7	ButtonPress	AvoidedLoss	True
80.452	0.37	Lose2	1.0	n/a	Yes	4.029	n/a	n/a	GoodResponse	0	n/a	n/a	3	7	Blank	AvoidedLoss	True
80.819	1.45	Lose2	1.0	n/a	Yes	4.029	n/a	5.0	GoodResponse	0	0.036	79.855	3	7	Feedback	AvoidedLoss	True
82.268	4.029	Lose2	1.0	n/a	Yes	4.029	n/a	n/a	GoodResponse	0	0.0	n/a	3	7	ISIslide	AvoidedLoss	True
86.317	0.25	Lose2	1.0	0.0	Yes	3.033	0.017	n/a	GoodResponse	0	n/a	n/a	3	8	Cue	AvoidedLoss	True
86.567	3.95	Lose2	1.0	0.0	Yes	3.033	0.0	n/a	GoodResponse	0	n/a	n/a	3	8	Fixation	AvoidedLoss	True
90.516	0.32	Lose2	1.0	0.001	Yes	3.033	-0.001	4.0	GoodResponse	0	0.25	89.766	3	8	Target	AvoidedLoss	True
90.766	0.3	Lose2	1.0	0.001	Yes	3.033	-0.001	4.0	GoodResponse	0	0.25	n/a	3	8	ButtonPress	AvoidedLoss	True
90.849	0.38	Lose2	1.0	n/a	Yes	3.033	n/a	n/a	GoodResponse	0	n/a	n/a	3	8	Blank	AvoidedLoss	True
91.215	1.45	Lose2	1.0	n/a	Yes	3.033	n/a	5.0	GoodResponse	0	0.03	90.245	3	8	Feedback	AvoidedLoss	True
92.665	3.033	Lose2	1.0	n/a	Yes	3.033	n/a	n/a	GoodResponse	0	0.0	n/a	3	8	ISIslide	AvoidedLoss	True
95.714	0.25	Lose2	0.9	0.0	No	3.136	0.014	n/a	NoResponse	-1	n/a	n/a	2	9	Cue	Loss	True
95.964	3.95	Lose2	0.9	0.0	No	3.136	0.0	n/a	NoResponse	-1	n/a	n/a	2	9	Fixation	Loss	True
99.912	0.31	Lose2	0.9	0.002	No	3.136	-0.002	4.0	NoResponse	-1	0.43	99.342	2	9	Target	Loss	True
100.229	0.39	Lose2	0.9	n/a	No	3.136	n/a	n/a	NoResponse	-1	n/a	n/a	2	9	Blank	Loss	True
100.342	0.3	Lose2	0.9	0.002	No	3.136	-0.002	4.0	NoResponse	-1	0.43	n/a	2	9	ButtonPress	Loss	True
100.612	1.45	Lose2	0.9	n/a	No	3.136	n/a	5.0	NoResponse	-1	0.048	99.66	2	9	Feedback	Loss	True
102.061	3.136	Lose2	0.9	n/a	No	3.136	n/a	n/a	NoResponse	-1	0.0	n/a	2	9	ISIslide	Loss	True
105.227	0.25	Control	0.9091	0.0	Yes	3.273	0.027	n/a	GoodResponse	0	n/a	n/a	2	10	Cue	Neutral	True
105.477	4.0	Control	0.9091	0.0	Yes	3.273	0.0	n/a	GoodResponse	0	n/a	n/a	2	10	Fixation	Neutral	True
109.476	0.3	Control	0.9091	0.001	Yes	3.273	-0.001	4.0	GoodResponse	0	0.193	108.669	2	10	Target	Neutral	True
109.669	0.3	Control	0.9091	0.001	Yes	3.273	-0.001	4.0	GoodResponse	0	0.193	n/a	2	10	ButtonPress	Neutral	True
109.775	0.4	Control	0.9091	n/a	Yes	3.273	n/a	n/a	GoodResponse	0	n/a	n/a	2	10	Blank	Neutral	True
110.175	1.45	Control	0.9091	n/a	Yes	3.273	n/a	5.0	GoodResponse	0	0.046	109.221	2	10	Feedback	Neutral	True
111.625	3.273	Control	0.9091	n/a	Yes	3.273	n/a	n/a	GoodResponse	0	0.0	n/a	2	10	ISIslide	Neutral	True
114.924	0.25	Lose2	0.9167000000000001	0.0	Yes	2.726	0.024	n/a	GoodResponse	0	n/a	n/a	2	11	Cue	AvoidedLoss	True
115.174	4.05	Lose2	0.9167000000000001	0.0	Yes	2.726	0.0	n/a	GoodResponse	0	n/a	n/a	2	11	Fixation	AvoidedLoss	True
119.222	0.29	Lose2	0.9167000000000001	0.002	Yes	2.726	-0.002	4.0	GoodResponse	0	0.196	118.418	2	11	Target	AvoidedLoss	True
119.418	0.3	Lose2	0.9167000000000001	0.002	Yes	2.726	-0.002	4.0	GoodResponse	0	0.196	n/a	2	11	ButtonPress	AvoidedLoss	True
119.522	0.41	Lose2	0.9167000000000001	n/a	Yes	2.726	n/a	n/a	GoodResponse	0	n/a	n/a	2	11	Blank	AvoidedLoss	True
119.922	1.45	Lose2	0.9167000000000001	n/a	Yes	2.726	n/a	5.0	GoodResponse	0	0.007	118.929	2	11	Feedback	AvoidedLoss	True
121.371	2.726	Lose2	0.9167000000000001	n/a	Yes	2.726	n/a	n/a	GoodResponse	0	0.0	n/a	2	11	ISIslide	AvoidedLoss	True
124.12	0.25	Control	0.9231	0.0	Yes	2.98	0.02	n/a	GoodResponse	0	n/a	n/a	2	12	Cue	Neutral	True
124.37	3.9	Control	0.9231	0.0	Yes	2.98	0.0	n/a	GoodResponse	0	n/a	n/a	2	12	Fixation	Neutral	True
128.269	0.28	Control	0.9231	0.001	Yes	2.98	-0.001	4.0	GoodResponse	0	0.194	127.463	2	12	Target	Neutral	True
128.463	0.3	Control	0.9231	0.001	Yes	2.98	-0.001	4.0	GoodResponse	0	0.194	n/a	2	12	ButtonPress	Neutral	True
128.552	0.42	Control	0.9231	n/a	Yes	2.98	n/a	n/a	GoodResponse	0	n/a	n/a	2	12	Blank	Neutral	True
128.969	1.45	Control	0.9231	n/a	Yes	2.98	n/a	5.0	GoodResponse	0	0.032	128.001	2	12	Feedback	Neutral	True
130.418	2.98	Control	0.9231	n/a	Yes	2.98	n/a	n/a	GoodResponse	0	0.0	n/a	2	12	ISIslide	Neutral	True
133.417	0.25	Control	0.9286	0.0	Yes	2.783	0.017	n/a	GoodResponse	0	n/a	n/a	2	13	Cue	Neutral	True
133.667	4.0	Control	0.9286	0.0	Yes	2.783	0.0	n/a	GoodResponse	0	n/a	n/a	2	13	Fixation	Neutral	True
137.666	0.27	Control	0.9286	0.001	Yes	2.783	-0.001	4.0	GoodResponse	0	0.19	136.856	2	13	Target	Neutral	True
137.856	0.3	Control	0.9286	0.001	Yes	2.783	-0.001	4.0	GoodResponse	0	0.19	n/a	2	13	ButtonPress	Neutral	True
137.949	0.43	Control	0.9286	n/a	Yes	2.783	n/a	n/a	GoodResponse	0	n/a	n/a	2	13	Blank	Neutral	True
138.365	1.45	Control	0.9286	n/a	Yes	2.783	n/a	5.0	GoodResponse	0	0.002	137.367	2	13	Feedback	Neutral	True
139.815	2.783	Control	0.9286	n/a	Yes	2.783	n/a	n/a	GoodResponse	0	0.0	n/a	2	13	ISIslide	Neutral	True
142.614	0.25	Win2	0.9333	0.0	Yes	2.686	0.014	n/a	GoodResponse	1	n/a	n/a	3	14	Cue	Win	True
142.864	4.1	Win2	0.9333	0.0	Yes	2.686	0.0	n/a	GoodResponse	1	n/a	n/a	3	14	Fixation	Win	True
146.962	0.26	Win2	0.9333	0.002	Yes	2.686	-0.002	4.0	GoodResponse	1	0.225	146.187	3	14	Target	Win	True
147.187	0.3	Win2	0.9333	0.002	Yes	2.686	-0.002	4.0	GoodResponse	1	0.225	n/a	3	14	ButtonPress	Win	True
147.229	0.44	Win2	0.9333	n/a	Yes	2.686	n/a	n/a	GoodResponse	1	n/a	n/a	3	14	Blank	Win	True
147.662	1.45	Win2	0.9333	n/a	Yes	2.686	n/a	5.0	GoodResponse	1	0.022	146.684	3	14	Feedback	Win	True
149.112	2.686	Win2	0.9333	n/a	Yes	2.686	n/a	n/a	GoodResponse	1	0.0	n/a	3	14	ISIslide	Win	True
151.827	0.25	Control	0.9375	0.0	Yes	2.973	0.027	n/a	GoodResponse	0	n/a	n/a	3	15	Cue	Neutral	True
152.077	4.0	Control	0.9375	0.0	Yes	2.973	0.0	n/a	GoodResponse	0	n/a	n/a	3	15	Fixation	Neutral	True
156.076	0.25	Control	0.9375	0.001	Yes	2.973	-0.001	4.0	GoodResponse	0	0.204	155.28	3	15	Target	Neutral	True
156.28	0.3	Control	0.9375	0.001	Yes	2.973	-0.001	4.0	GoodResponse	0	0.204	n/a	3	15	ButtonPress	Neutral	True
156.326	0.45	Control	0.9375	n/a	Yes	2.973	n/a	n/a	GoodResponse	0	n/a	n/a	3	15	Blank	Neutral	True
156.776	1.45	Control	0.9375	n/a	Yes	2.973	n/a	5.0	GoodResponse	0	0.03	155.806	3	15	Feedback	Neutral	True
158.225	2.973	Control	0.9375	n/a	Yes	2.973	n/a	n/a	GoodResponse	0	0.0	n/a	3	15	ISIslide	Neutral	True
161.224	0.25	Win2	0.9412	0.0	Yes	2.876	0.024	n/a	GoodResponse	1	n/a	n/a	4	16	Cue	Win	True
161.474	4.0	Win2	0.9412	0.0	Yes	2.876	0.0	n/a	GoodResponse	1	n/a	n/a	4	16	Fixation	Win	True
165.472	0.24	Win2	0.9412	0.002	Yes	2.876	-0.002	4.0	GoodResponse	1	0.195	164.667	4	16	Target	Win	True
165.667	0.3	Win2	0.9412	0.002	Yes	2.876	-0.002	4.0	GoodResponse	1	0.195	n/a	4	16	ButtonPress	Win	True
165.722	0.46	Win2	0.9412	n/a	Yes	2.876	n/a	n/a	GoodResponse	1	n/a	n/a	4	16	Blank	Win	True
166.172	1.45	Win2	0.9412	n/a	Yes	2.876	n/a	5.0	GoodResponse	1	0.048	165.22	4	16	Feedback	Win	True
167.622	2.876	Win2	0.9412	n/a	Yes	2.876	n/a	n/a	GoodResponse	1	0.0	n/a	4	16	ISIslide	Win	True
170.521	0.25	Lose2	0.9444	0.0	Yes	2.729	0.021	n/a	GoodResponse	0	n/a	n/a	4	17	Cue	AvoidedLoss	True
170.771	3.95	Lose2	0.9444	0.0	Yes	2.729	0.0	n/a	GoodResponse	0	n/a	n/a	4	17	Fixation	AvoidedLoss	True
174.719	0.23	Lose2	0.9444	0.002	Yes	2.729	-0.002	4.0	GoodResponse	0	0.197	173.916	4	17	Target	AvoidedLoss	True
174.916	0.3	Lose2	0.9444	0.002	Yes	2.729	-0.002	4.0	GoodResponse	0	0.197	n/a	4	17	ButtonPress	AvoidedLoss	True
174.952	0.47	Lose2	0.9444	n/a	Yes	2.729	n/a	n/a	GoodResponse	0	n/a	n/a	4	17	Blank	AvoidedLoss	True
175.419	1.45	Lose2	0.9444	n/a	Yes	2.729	n/a	5.0	GoodResponse	0	0.021	174.44	4	17	Feedback	AvoidedLoss	True
176.868	2.729	Lose2	0.9444	n/a	Yes	2.729	n/a	n/a	GoodResponse	0	0.0	n/a	4	17	ISIslide	AvoidedLoss	True
179.618	0.25	Lose2	0.8946999999999999	0.0	No	2.732	0.018	n/a	NoResponse	-1	n/a	n/a	3	18	Cue	Loss	True
179.867	4.05	Lose2	0.8946999999999999	0.001	No	2.732	-0.001	n/a	NoResponse	-1	n/a	n/a	3	18	Fixation	Loss	True
183.916	0.22	Lose2	0.8946999999999999	0.002	No	2.732	-0.002	4.0	NoResponse	-1	0.285	183.201	3	18	Target	Loss	True
184.149	0.48	Lose2	0.8946999999999999	n/a	No	2.732	n/a	n/a	NoResponse	-1	n/a	n/a	3	18	Blank	Loss	True
184.201	0.3	Lose2	0.8946999999999999	0.002	No	2.732	-0.002	4.0	NoResponse	-1	0.285	n/a	3	18	ButtonPress	Loss	True
184.616	1.45	Lose2	0.8946999999999999	n/a	No	2.732	n/a	5.0	NoResponse	-1	0.043	183.659	3	18	Feedback	Loss	True
186.065	2.732	Lose2	0.8946999999999999	n/a	No	2.732	n/a	n/a	NoResponse	-1	0.0	n/a	3	18	ISIslide	Loss	True
188.814	0.25	Control	0.85	0.0	No	2.936	0.014	n/a	NoResponse	0	n/a	n/a	3	19	Cue	Neutral	True
189.064	3.95	Control	0.85	0.0	No	2.936	0.0	4.0	NoResponse	0	3.817	191.881	3	19	Fixation	Neutral	True
192.881	0.3	Control	0.85	0.0	No	2.936	0.0	4.0	NoResponse	0	3.817	n/a	3	19	ButtonPress	Neutral	True
193.013	0.21	Control	0.85	0.001	No	2.936	-0.001	n/a	NoResponse	0	n/a	n/a	3	19	Target	Neutral	True
193.229	0.49	Control	0.85	n/a	No	2.936	n/a	n/a	NoResponse	0	n/a	n/a	3	19	Blank	Neutral	True
193.713	1.45	Control	0.85	n/a	No	2.936	n/a	5.0	NoResponse	0	0.02	192.733	3	19	Feedback	Neutral	True
195.162	2.936	Control	0.85	n/a	No	2.936	n/a	n/a	NoResponse	0	0.0	n/a	3	19	ISIslide	Neutral	True
198.128	0.25	Control	0.8095	0.0	No	2.622	0.028	n/a	NoResponse	0	n/a	n/a	3	20	Cue	Neutral	True
198.378	4.05	Control	0.8095	0.0	No	2.622	0.0	n/a	NoResponse	0	n/a	n/a	3	20	Fixation	Neutral	True
202.426	0.2	Control	0.8095	0.002	No	2.622	-0.002	4.0	NoResponse	0	0.241	201.667	3	20	Target	Neutral	True
202.626	0.5	Control	0.8095	n/a	No	2.622	n/a	n/a	NoResponse	0	n/a	n/a	3	20	Blank	Neutral	True
202.667	0.3	Control	0.8095	0.002	No	2.622	-0.002	4.0	NoResponse	0	0.241	n/a	3	20	ButtonPress	Neutral	True
203.126	1.45	Control	0.8095	n/a	No	2.622	n/a	5.0	NoResponse	0	0.021	202.147	3	20	Feedback	Neutral	True
204.575	2.622	Control	0.8095	n/a	No	2.622	n/a	n/a	NoResponse	0	0.0	n/a	3	20	ISIslide	Neutral	True
207.224	0.25	Control	0.7726999999999999	0.001	No	2.776	0.024	n/a	NoResponse	0	n/a	n/a	3	21	Cue	Neutral	False
207.474	4.1	Control	0.7726999999999999	0.0	No	2.776	0.0	n/a	NoResponse	0	n/a	n/a	3	21	Fixation	Neutral	False
211.573	0.19	Control	0.7726999999999999	0.001	No	2.776	-0.001	n/a	NoResponse	0	n/a	n/a	3	21	Target	Neutral	False
211.773	0.51	Control	0.7726999999999999	n/a	No	2.776	n/a	n/a	NoResponse	0	n/a	n/a	3	21	Blank	Neutral	False
212.273	1.45	Control	0.7726999999999999	n/a	No	2.776	n/a	5.0	NoResponse	0	0.044	211.317	3	21	Feedback	Neutral	False
213.722	2.776	Control	0.7726999999999999	n/a	No	2.776	n/a	n/a	NoResponse	0	0.0	n/a	3	21	ISIslide	Neutral	False
216.521	0.25	Control	0.7391	0.0	No	2.779	0.021	n/a	NoResponse	0	n/a	n/a	3	22	Cue	Neutral	True
216.771	4.0	Control	0.7391	0.0	No	2.779	0.0	n/a	NoResponse	0	n/a	n/a	3	22	Fixation	Neutral	True
220.77	0.18	Control	0.7391	0.001	No	2.779	-0.001	4.0	NoResponse	0	0.236	220.006	3	22	Target	Neutral	True
220.953	0.52	Control	0.7391	n/a	No	2.779	n/a	n/a	NoResponse	0	n/a	n/a	3	22	Blank	Neutral	True
221.006	0.3	Control	0.7391	0.001	No	2.779	-0.001	4.0	NoResponse	0	0.236	n/a	3	22	ButtonPress	Neutral	True
221.469	1.45	Control	0.7391	n/a	No	2.779	n/a	5.0	NoResponse	0	0.019	220.488	3	22	Feedback	Neutral	True
222.919	2.779	Control	0.7391	n/a	No	2.779	n/a	n/a	NoResponse	0	0.0	n/a	3	22	ISIslide	Neutral	True
225.718	0.25	Control	0.7082999999999999	0.0	No	2.782	0.018	n/a	NoResponse	0	n/a	n/a	3	23	Cue	Neutral	False
225.968	3.9	Control	0.7082999999999999	0.0	No	2.782	0.0	4.0	NoResponse	0	3.344	228.312	3	23	Fixation	Neutral	False
229.312	0.3	Control	0.7082999999999999	0.0	No	2.782	0.0	4.0	NoResponse	0	3.344	n/a	3	23	ButtonPress	Neutral	False
229.866	0.17	Control	0.7082999999999999	0.002	No	2.782	-0.002	4.0	NoResponse	0	0.213	229.079	3	23	Target	Neutral	False
230.05	0.53	Control	0.7082999999999999	n/a	No	2.782	n/a	n/a	NoResponse	0	n/a	n/a	3	23	Blank	Neutral	False
230.079	0.3	Control	0.7082999999999999	0.002	No	2.782	-0.002	4.0	NoResponse	0	0.213	n/a	3	23	ButtonPress	Neutral	False
230.566	1.45	Control	0.7082999999999999	n/a	No	2.782	n/a	5.0	NoResponse	0	0.044	229.61	3	23	Feedback	Neutral	False
232.016	2.782	Control	0.7082999999999999	n/a	No	2.782	n/a	n/a	NoResponse	0	0.0	n/a	3	23	ISIslide	Neutral	False
234.815	0.25	Win2	0.68	0.0	No	3.135	0.015	n/a	NoResponse	0	n/a	n/a	3	24	Cue	MissedWin	True
235.065	3.95	Win2	0.68	0.0	No	3.135	0.0	n/a	NoResponse	0	n/a	n/a	3	24	Fixation	MissedWin	True
239.013	0.16	Win2	0.68	0.002	No	3.135	-0.002	4.0	NoResponse	0	0.231	238.244	3	24	Target	MissedWin	True
239.18	0.54	Win2	0.68	n/a	No	3.135	n/a	n/a	NoResponse	0	n/a	n/a	3	24	Blank	MissedWin	True
239.244	0.3	Win2	0.68	0.002	No	3.135	-0.002	4.0	NoResponse	0	0.231	n/a	3	24	ButtonPress	MissedWin	True
239.713	1.45	Win2	0.68	n/a	No	3.135	n/a	5.0	NoResponse	0	0.019	238.732	3	24	Feedback	MissedWin	True
241.162	3.135	Win2	0.68	n/a	No	3.135	n/a	n/a	NoResponse	0	0.0	n/a	3	24	ISIslide	MissedWin	True
244.328	0.25	Win2	0.6537999999999999	0.0	No	3.072	0.028	n/a	NoResponse	0	n/a	n/a	3	25	Cue	MissedWin	True
244.578	4.0	Win2	0.6537999999999999	0.0	No	3.072	0.0	n/a	NoResponse	0	n/a	n/a	3	25	Fixation	MissedWin	True
248.577	0.15	Win2	0.6537999999999999	0.001	No	3.072	-0.001	4.0	NoResponse	0	0.22	247.797	3	25	Target	MissedWin	True
248.726	0.55	Win2	0.6537999999999999	n/a	No	3.072	n/a	n/a	NoResponse	0	n/a	n/a	3	25	Blank	MissedWin	True
248.797	0.3	Win2	0.6537999999999999	0.001	No	3.072	-0.001	4.0	NoResponse	0	0.22	n/a	3	25	ButtonPress	MissedWin	True
249.276	1.45	Win2	0.6537999999999999	n/a	No	3.072	n/a	5.0	NoResponse	0	0.016	248.292	3	25	Feedback	MissedWin	True
250.726	3.072	Win2	0.6537999999999999	n/a	No	3.072	n/a	n/a	NoResponse	0	0.0	n/a	3	25	ISIslide	MissedWin	True
253.825	0.25	Win2	0.6296	0.0	No	2.925	0.025	n/a	NoResponse	0	n/a	n/a	3	26	Cue	MissedWin	True
254.075	3.95	Win2	0.6296	0.0	No	2.925	0.0	n/a	NoResponse	0	n/a	n/a	3	26	Fixation	MissedWin	True
258.023	0.16	Win2	0.6296	0.002	No	2.925	-0.002	4.0	NoResponse	0	0.218	257.241	3	26	Target	MissedWin	True
258.19	0.54	Win2	0.6296	n/a	No	2.925	n/a	n/a	NoResponse	0	n/a	n/a	3	26	Blank	MissedWin	True
258.241	0.3	Win2	0.6296	0.002	No	2.925	-0.002	4.0	NoResponse	0	0.218	n/a	3	26	ButtonPress	MissedWin	True
258.723	1.45	Win2	0.6296	n/a	No	2.925	n/a	5.0	NoResponse	0	0.033	257.756	3	26	Feedback	MissedWin	True
260.172	2.925	Win2	0.6296	n/a	No	2.925	n/a	n/a	NoResponse	0	0.0	n/a	3	26	ISIslide	MissedWin	True
263.121	0.25	Lose2	0.6071	0.001	No	2.829	0.021	n/a	NoResponse	-1	n/a	n/a	2	27	Cue	Loss	True
263.371	4.05	Lose2	0.6071	0.0	No	2.829	0.0	n/a	NoResponse	-1	n/a	n/a	2	27	Fixation	Loss	True
267.42	0.17	Lose2	0.6071	0.001	No	2.829	-0.001	4.0	NoResponse	-1	0.211	266.631	2	27	Target	Loss	True
267.587	0.53	Lose2	0.6071	n/a	No	2.829	n/a	n/a	NoResponse	-1	n/a	n/a	2	27	Blank	Loss	True
267.631	0.3	Lose2	0.6071	0.001	No	2.829	-0.001	4.0	NoResponse	-1	0.211	n/a	2	27	ButtonPress	Loss	True
268.12	1.45	Lose2	0.6071	n/a	No	2.829	n/a	5.0	NoResponse	-1	0.006	267.126	2	27	Feedback	Loss	True
269.569	2.829	Lose2	0.6071	n/a	No	2.829	n/a	n/a	NoResponse	-1	0.0	n/a	2	27	ISIslide	Loss	True
272.418	0.25	Control	0.5861999999999999	0.0	No	2.832	0.018	n/a	NoResponse	0	n/a	n/a	2	28	Cue	Neutral	True
272.668	4.05	Control	0.5861999999999999	0.0	No	2.832	0.0	n/a	NoResponse	0	n/a	n/a	2	28	Fixation	Neutral	True
276.717	0.18	Control	0.5861999999999999	0.001	No	2.832	-0.001	4.0	NoResponse	0	0.264	275.981	2	28	Target	Neutral	True
276.9	0.52	Control	0.5861999999999999	n/a	No	2.832	n/a	n/a	NoResponse	0	n/a	n/a	2	28	Blank	Neutral	True
276.981	0.3	Control	0.5861999999999999	0.001	No	2.832	-0.001	4.0	NoResponse	0	0.264	n/a	2	28	ButtonPress	Neutral	True
277.416	1.45	Control	0.5861999999999999	n/a	No	2.832	n/a	5.0	NoResponse	0	0.023	276.439	2	28	Feedback	Neutral	True
278.866	2.832	Control	0.5861999999999999	n/a	No	2.832	n/a	n/a	NoResponse	0	0.0	n/a	2	28	ISIslide	Neutral	True
281.715	0.25	Lose2	0.5667	0.0	No	2.835	0.015	n/a	NoResponse	-1	n/a	n/a	1	29	Cue	Loss	True
281.965	3.95	Lose2	0.5667	0.0	No	2.835	0.0	n/a	NoResponse	-1	n/a	n/a	1	29	Fixation	Loss	True
285.913	0.19	Lose2	0.5667	0.002	No	2.835	-0.002	4.0	NoResponse	-1	0.208	285.121	1	29	Target	Loss	True
286.113	0.51	Lose2	0.5667	n/a	No	2.835	n/a	n/a	NoResponse	-1	n/a	n/a	1	29	Blank	Loss	True
286.121	0.3	Lose2	0.5667	0.002	No	2.835	-0.002	4.0	NoResponse	-1	0.208	n/a	1	29	ButtonPress	Loss	True
286.613	1.45	Lose2	0.5667	n/a	No	2.835	n/a	5.0	NoResponse	-1	0.046	285.659	1	29	Feedback	Loss	True
288.063	2.835	Lose2	0.5667	n/a	No	2.835	n/a	n/a	NoResponse	-1	0.0	n/a	1	29	ISIslide	Loss	True
290.928	0.25	Win2	0.5806	0.0	Yes	2.772	0.028	n/a	GoodResponse	1	n/a	n/a	2	30	Cue	Win	True
291.178	3.9	Win2	0.5806	0.0	Yes	2.772	0.0	n/a	GoodResponse	1	n/a	n/a	2	30	Fixation	Win	True
295.077	0.2	Win2	0.5806	0.001	Yes	2.772	-0.001	4.0	GoodResponse	1	0.186	294.263	2	30	Target	Win	True
295.263	0.3	Win2	0.5806	0.001	Yes	2.772	-0.001	4.0	GoodResponse	1	0.186	n/a	2	30	ButtonPress	Win	True
295.277	0.5	Win2	0.5806	n/a	Yes	2.772	n/a	n/a	GoodResponse	1	n/a	n/a	2	30	Blank	Win	True
295.777	1.45	Win2	0.5806	n/a	Yes	2.772	n/a	5.0	GoodResponse	1	0.005	294.782	2	30	Feedback	Win	True
297.226	2.772	Win2	0.5806	n/a	Yes	2.772	n/a	n/a	GoodResponse	1	0.0	n/a	2	30	ISIslide	Win	True
300.025	0.25	Lose2	0.5938	0.0	Yes	2.825	0.025	n/a	GoodResponse	0	n/a	n/a	2	31	Cue	AvoidedLoss	True
300.275	4.05	Lose2	0.5938	0.0	Yes	2.825	0.0	n/a	GoodResponse	0	n/a	n/a	2	31	Fixation	AvoidedLoss	True
304.324	0.21	Lose2	0.5938	0.001	Yes	2.825	-0.001	4.0	GoodResponse	0	0.175	303.499	2	31	Target	AvoidedLoss	True
304.499	0.3	Lose2	0.5938	0.001	Yes	2.825	-0.001	4.0	GoodResponse	0	0.175	n/a	2	31	ButtonPress	AvoidedLoss	True
304.54	0.49	Lose2	0.5938	n/a	Yes	2.825	n/a	n/a	GoodResponse	0	n/a	n/a	2	31	Blank	AvoidedLoss	True
305.023	1.45	Lose2	0.5938	n/a	Yes	2.825	n/a	5.0	GoodResponse	0	0.025	304.048	2	31	Feedback	AvoidedLoss	True
306.473	2.825	Lose2	0.5938	n/a	Yes	2.825	n/a	n/a	GoodResponse	0	0.0	n/a	2	31	ISIslide	AvoidedLoss	True
309.322	0.25	Lose2	0.5758	0.0	No	2.628	0.022	n/a	NoResponse	-1	n/a	n/a	1	32	Cue	Loss	True
309.572	4.15	Lose2	0.5758	0.0	No	2.628	0.0	n/a	NoResponse	-1	n/a	n/a	1	32	Fixation	Loss	True
313.72	0.22	Lose2	0.5758	0.002	No	2.628	-0.002	4.0	NoResponse	-1	0.249	312.969	1	32	Target	Loss	True
313.954	0.48	Lose2	0.5758	n/a	No	2.628	n/a	n/a	NoResponse	-1	n/a	n/a	1	32	Blank	Loss	True
313.969	0.3	Lose2	0.5758	0.002	No	2.628	-0.002	4.0	NoResponse	-1	0.249	n/a	1	32	ButtonPress	Loss	True
314.42	1.45	Lose2	0.5758	n/a	No	2.628	n/a	5.0	NoResponse	-1	0.043	313.463	1	32	Feedback	Loss	True
315.869	2.628	Lose2	0.5758	n/a	No	2.628	n/a	n/a	NoResponse	-1	0.0	n/a	1	32	ISIslide	Loss	True
318.519	0.25	Win2	0.5882000000000001	0.0	Yes	2.681	0.019	n/a	GoodResponse	1	n/a	n/a	2	33	Cue	Win	True
318.768	4.0	Win2	0.5882000000000001	0.001	Yes	2.681	-0.001	n/a	GoodResponse	1	n/a	n/a	2	33	Fixation	Win	True
322.767	0.23	Win2	0.5882000000000001	0.002	Yes	2.681	-0.002	4.0	GoodResponse	1	0.209	321.976	2	33	Target	Win	True
322.976	0.3	Win2	0.5882000000000001	0.002	Yes	2.681	-0.002	4.0	GoodResponse	1	0.209	n/a	2	33	ButtonPress	Win	True
323	0.47	Win2	0.5882000000000001	n/a	Yes	2.681	n/a	n/a	GoodResponse	1	n/a	n/a	2	33	Blank	Win	True
323.467	1.45	Win2	0.5882000000000001	n/a	Yes	2.681	n/a	5.0	GoodResponse	1	0.02	322.487	2	33	Feedback	Win	True
324.916	2.681	Win2	0.5882000000000001	n/a	Yes	2.681	n/a	n/a	GoodResponse	1	0.0	n/a	2	33	ISIslide	Win	True
327.615	0.25	Lose2	0.6	0.0	Yes	2.635	0.015	n/a	GoodResponse	0	n/a	n/a	2	34	Cue	AvoidedLoss	True
327.865	4.05	Lose2	0.6	0.0	Yes	2.635	0.0	n/a	GoodResponse	0	n/a	n/a	2	34	Fixation	AvoidedLoss	True
331.914	0.24	Lose2	0.6	0.001	Yes	2.635	-0.001	4.0	GoodResponse	0	0.176	331.09	2	34	Target	AvoidedLoss	True
332.09	0.3	Lose2	0.6	0.001	Yes	2.635	-0.001	4.0	GoodResponse	0	0.176	n/a	2	34	ButtonPress	AvoidedLoss	True
332.164	0.46	Lose2	0.6	n/a	Yes	2.635	n/a	n/a	GoodResponse	0	n/a	n/a	2	34	Blank	AvoidedLoss	True
332.614	1.45	Lose2	0.6	n/a	Yes	2.635	n/a	5.0	GoodResponse	0	0.043	331.657	2	34	Feedback	AvoidedLoss	True
334.063	2.635	Lose2	0.6	n/a	Yes	2.635	n/a	n/a	GoodResponse	0	0.0	n/a	2	34	ISIslide	AvoidedLoss	True
336.729	0.25	Lose2	0.6111	0.0	Yes	2.671	0.029	n/a	GoodResponse	0	n/a	n/a	2	35	Cue	AvoidedLoss	True
336.979	4.0	Lose2	0.6111	0.0	Yes	2.671	0.0	n/a	GoodResponse	0	n/a	n/a	2	35	Fixation	AvoidedLoss	True
340.977	0.25	Lose2	0.6111	0.002	Yes	2.671	-0.002	4.0	GoodResponse	0	0.208	340.185	2	35	Target	AvoidedLoss	True
341.185	0.3	Lose2	0.6111	0.002	Yes	2.671	-0.002	4.0	GoodResponse	0	0.208	n/a	2	35	ButtonPress	AvoidedLoss	True
341.227	0.45	Lose2	0.6111	n/a	Yes	2.671	n/a	n/a	GoodResponse	0	n/a	n/a	2	35	Blank	AvoidedLoss	True
341.677	1.45	Lose2	0.6111	n/a	Yes	2.671	n/a	5.0	GoodResponse	0	0.007	340.684	2	35	Feedback	AvoidedLoss	True
343.127	2.671	Lose2	0.6111	n/a	Yes	2.671	n/a	n/a	GoodResponse	0	0.0	n/a	2	35	ISIslide	AvoidedLoss	True
345.826	0.25	Control	0.6215999999999999	0.0	Yes	2.674	0.026	n/a	GoodResponse	0	n/a	n/a	2	36	Cue	Neutral	True
346.076	4.0	Control	0.6215999999999999	0.0	Yes	2.674	0.0	n/a	GoodResponse	0	n/a	n/a	2	36	Fixation	Neutral	True
350.074	0.26	Control	0.6215999999999999	0.002	Yes	2.674	-0.002	4.0	GoodResponse	0	0.217	349.291	2	36	Target	Neutral	True
350.291	0.3	Control	0.6215999999999999	0.002	Yes	2.674	-0.002	4.0	GoodResponse	0	0.217	n/a	2	36	ButtonPress	Neutral	True
350.341	0.44	Control	0.6215999999999999	n/a	Yes	2.674	n/a	n/a	GoodResponse	0	n/a	n/a	2	36	Blank	Neutral	True
350.774	1.45	Control	0.6215999999999999	n/a	Yes	2.674	n/a	5.0	GoodResponse	0	0.03	349.804	2	36	Feedback	Neutral	True
352.223	2.674	Control	0.6215999999999999	n/a	Yes	2.674	n/a	n/a	GoodResponse	0	0.0	n/a	2	36	ISIslide	Neutral	True
354.922	0.25	Win2	0.6315999999999999	0.001	Yes	2.878	0.022	n/a	GoodResponse	1	n/a	n/a	3	37	Cue	Win	True
355.172	4.0	Win2	0.6315999999999999	0.0	Yes	2.878	0.0	n/a	GoodResponse	1	n/a	n/a	3	37	Fixation	Win	True
359.171	0.27	Win2	0.6315999999999999	0.001	Yes	2.878	-0.001	4.0	GoodResponse	1	0.196	358.367	3	37	Target	Win	True
359.367	0.3	Win2	0.6315999999999999	0.001	Yes	2.878	-0.001	4.0	GoodResponse	1	0.196	n/a	3	37	ButtonPress	Win	True
359.437	0.43	Win2	0.6315999999999999	n/a	Yes	2.878	n/a	n/a	GoodResponse	1	n/a	n/a	3	37	Blank	Win	True
359.871	1.45	Win2	0.6315999999999999	n/a	Yes	2.878	n/a	5.0	GoodResponse	1	0.006	358.877	3	37	Feedback	Win	True
361.32	2.878	Win2	0.6315999999999999	n/a	Yes	2.878	n/a	n/a	GoodResponse	1	0.0	n/a	3	37	ISIslide	Win	True
364.219	0.25	Lose2	0.6409999999999999	0.0	Yes	2.831	0.019	n/a	GoodResponse	0	n/a	n/a	3	38	Cue	AvoidedLoss	True
364.469	3.95	Lose2	0.6409999999999999	0.0	Yes	2.831	0.0	n/a	GoodResponse	0	n/a	n/a	3	38	Fixation	AvoidedLoss	True
368.418	0.28	Lose2	0.6409999999999999	0.001	Yes	2.831	-0.001	4.0	GoodResponse	0	0.222	367.64	3	38	Target	AvoidedLoss	True
368.64	0.3	Lose2	0.6409999999999999	0.001	Yes	2.831	-0.001	4.0	GoodResponse	0	0.222	n/a	3	38	ButtonPress	AvoidedLoss	True
368.701	0.42	Lose2	0.6409999999999999	n/a	Yes	2.831	n/a	n/a	GoodResponse	0	n/a	n/a	3	38	Blank	AvoidedLoss	True
369.117	1.45	Lose2	0.6409999999999999	n/a	Yes	2.831	n/a	5.0	GoodResponse	0	0.029	368.146	3	38	Feedback	AvoidedLoss	True
370.567	2.831	Lose2	0.6409999999999999	n/a	Yes	2.831	n/a	n/a	GoodResponse	0	0.0	n/a	3	38	ISIslide	AvoidedLoss	True
373.416	0.25	Win2	0.65	0.0	Yes	2.984	0.016	n/a	GoodResponse	1	n/a	n/a	4	39	Cue	Win	True
373.666	4.1	Win2	0.65	0.0	Yes	2.984	0.0	n/a	GoodResponse	1	n/a	n/a	4	39	Fixation	Win	True
377.764	0.29	Win2	0.65	0.002	Yes	2.984	-0.002	4.0	GoodResponse	1	0.206	376.97	4	39	Target	Win	True
377.97	0.3	Win2	0.65	0.002	Yes	2.984	-0.002	4.0	GoodResponse	1	0.206	n/a	4	39	ButtonPress	Win	True
378.064	0.41	Win2	0.65	n/a	Yes	2.984	n/a	n/a	GoodResponse	1	n/a	n/a	4	39	Blank	Win	True
378.464	1.45	Win2	0.65	n/a	Yes	2.984	n/a	5.0	GoodResponse	1	0.047	377.511	4	39	Feedback	Win	True
379.914	2.984	Win2	0.65	n/a	Yes	2.984	n/a	n/a	GoodResponse	1	0.0	n/a	4	39	ISIslide	Win	True
382.913	0.25	Win2	0.6585	0.0	Yes	2.737	0.013	n/a	GoodResponse	1	n/a	n/a	5	40	Cue	Win	True
383.162	3.95	Win2	0.6585	0.001	Yes	2.737	-0.001	n/a	GoodResponse	1	n/a	n/a	5	40	Fixation	Win	True
387.111	0.3	Win2	0.6585	0.002	Yes	2.737	-0.002	4.0	GoodResponse	1	0.18	386.291	5	40	Target	Win	True
387.291	0.3	Win2	0.6585	0.002	Yes	2.737	-0.002	4.0	GoodResponse	1	0.18	n/a	5	40	ButtonPress	Win	True
387.411	0.4	Win2	0.6585	n/a	Yes	2.737	n/a	n/a	GoodResponse	1	n/a	n/a	5	40	Blank	Win	True
387.811	1.45	Win2	0.6585	n/a	Yes	2.737	n/a	5.0	GoodResponse	1	0.017	386.828	5	40	Feedback	Win	True
389.26	2.737	Win2	0.6585	n/a	Yes	2.737	n/a	n/a	GoodResponse	1	0.0	n/a	5	40	ISIslide	Win	True
392.026	0.25	Win2	0.6429	0.0	No	2.774	0.026	n/a	NoResponse	0	n/a	n/a	5	41	Cue	MissedWin	True
392.276	3.9	Win2	0.6429	0.0	No	2.774	0.0	n/a	NoResponse	0	n/a	n/a	5	41	Fixation	MissedWin	True
396.175	0.3	Win2	0.6429	0.001	No	2.774	-0.001	4.0	NoResponse	0	0.38	395.555	5	41	Target	MissedWin	True
396.474	0.4	Win2	0.6429	n/a	No	2.774	n/a	n/a	NoResponse	0	n/a	n/a	5	41	Blank	MissedWin	True
396.555	0.3	Win2	0.6429	0.001	No	2.774	-0.001	4.0	NoResponse	0	0.38	n/a	5	41	ButtonPress	MissedWin	True
396.874	1.45	Win2	0.6429	n/a	No	2.774	n/a	5.0	NoResponse	0	0.027	395.901	5	41	Feedback	MissedWin	True
398.324	2.774	Win2	0.6429	n/a	No	2.774	n/a	n/a	NoResponse	0	0.0	n/a	5	41	ISIslide	MissedWin	True
401.123	0.25	Control	0.6512	0.0	Yes	2.927	0.023	n/a	GoodResponse	0	n/a	n/a	5	42	Cue	Neutral	True
401.373	3.85	Control	0.6512	0.0	Yes	2.927	0.0	n/a	GoodResponse	0	n/a	n/a	5	42	Fixation	Neutral	True
405.221	0.31	Control	0.6512	0.002	Yes	2.927	-0.002	4.0	GoodResponse	0	0.199	404.42	5	42	Target	Neutral	True
405.42	0.3	Control	0.6512	0.002	Yes	2.927	-0.002	4.0	GoodResponse	0	0.199	n/a	5	42	ButtonPress	Neutral	True
405.538	0.39	Control	0.6512	n/a	Yes	2.927	n/a	n/a	GoodResponse	0	n/a	n/a	5	42	Blank	Neutral	True
405.921	1.45	Control	0.6512	n/a	Yes	2.927	n/a	5.0	GoodResponse	0	0.005	404.926	5	42	Feedback	Neutral	True
407.371	2.927	Control	0.6512	n/a	Yes	2.927	n/a	n/a	GoodResponse	0	0.0	n/a	5	42	ISIslide	Neutral	True
410.32	0.25	Win2	0.6591	0.0	Yes	3.18	0.02	n/a	GoodResponse	1	n/a	n/a	6	43	Cue	Win	True
410.569	4.0	Win2	0.6591	0.001	Yes	3.18	-0.001	n/a	GoodResponse	1	n/a	n/a	6	43	Fixation	Win	True
414.568	0.32	Win2	0.6591	0.002	Yes	3.18	-0.002	4.0	GoodResponse	1	0.206	413.774	6	43	Target	Win	True
414.774	0.3	Win2	0.6591	0.002	Yes	3.18	-0.002	4.0	GoodResponse	1	0.206	n/a	6	43	ButtonPress	Win	True
414.901	0.38	Win2	0.6591	n/a	Yes	3.18	n/a	n/a	GoodResponse	1	n/a	n/a	6	43	Blank	Win	True
415.268	1.45	Win2	0.6591	n/a	Yes	3.18	n/a	5.0	GoodResponse	1	0.024	414.292	6	43	Feedback	Win	True
416.717	3.18	Win2	0.6591	n/a	Yes	3.18	n/a	n/a	GoodResponse	1	0.0	n/a	6	43	ISIslide	Win	True
419.916	0.25	Win2	0.6667000000000001	0.0	Yes	2.984	0.016	n/a	GoodResponse	1	n/a	n/a	7	44	Cue	Win	True
420.166	4.0	Win2	0.6667000000000001	0.0	Yes	2.984	0.0	n/a	GoodResponse	1	n/a	n/a	7	44	Fixation	Win	True
424.165	0.32	Win2	0.6667000000000001	0.001	Yes	2.984	-0.001	4.0	GoodResponse	1	0.189	423.354	7	44	Target	Win	True
424.354	0.3	Win2	0.6667000000000001	0.001	Yes	2.984	-0.001	4.0	GoodResponse	1	0.189	n/a	7	44	ButtonPress	Win	True
424.498	0.38	Win2	0.6667000000000001	n/a	Yes	2.984	n/a	n/a	GoodResponse	1	n/a	n/a	7	44	Blank	Win	True
424.864	1.45	Win2	0.6667000000000001	n/a	Yes	2.984	n/a	5.0	GoodResponse	1	0.036	423.9	7	44	Feedback	Win	True
426.314	2.984	Win2	0.6667000000000001	n/a	Yes	2.984	n/a	n/a	GoodResponse	1	0.0	n/a	7	44	ISIslide	Win	True
429.313	0.25	Control	0.6739	0.0	Yes	2.887	0.013	n/a	GoodResponse	0	n/a	n/a	7	45	Cue	Neutral	True
429.563	4.1	Control	0.6739	0.0	Yes	2.887	0.0	n/a	GoodResponse	0	n/a	n/a	7	45	Fixation	Neutral	True
433.661	0.31	Control	0.6739	0.002	Yes	2.887	-0.002	4.0	GoodResponse	0	0.265	432.926	7	45	Target	Neutral	True
433.926	0.3	Control	0.6739	0.002	Yes	2.887	-0.002	4.0	GoodResponse	0	0.265	n/a	7	45	ButtonPress	Neutral	True
433.978	0.39	Control	0.6739	n/a	Yes	2.887	n/a	n/a	GoodResponse	0	n/a	n/a	7	45	Blank	Neutral	True
434.361	1.45	Control	0.6739	n/a	Yes	2.887	n/a	5.0	GoodResponse	0	0.004	433.365	7	45	Feedback	Neutral	True
435.811	2.887	Control	0.6739	n/a	Yes	2.887	n/a	n/a	GoodResponse	0	0.0	n/a	7	45	ISIslide	Neutral	True
438.726	0.25	Lose2	0.6809000000000001	0.0	Yes	3.374	0.026	n/a	GoodResponse	0	n/a	n/a	7	46	Cue	AvoidedLoss	True
438.976	4.0	Lose2	0.6809000000000001	0.0	Yes	3.374	0.0	n/a	GoodResponse	0	n/a	n/a	7	46	Fixation	AvoidedLoss	True
442.975	0.3	Lose2	0.6809000000000001	0.001	Yes	3.374	-0.001	4.0	GoodResponse	0	0.217	442.192	7	46	Target	AvoidedLoss	True
443.192	0.3	Lose2	0.6809000000000001	0.001	Yes	3.374	-0.001	4.0	GoodResponse	0	0.217	n/a	7	46	ButtonPress	AvoidedLoss	True
443.275	0.4	Lose2	0.6809000000000001	n/a	Yes	3.374	n/a	n/a	GoodResponse	0	n/a	n/a	7	46	Blank	AvoidedLoss	True
443.675	1.45	Lose2	0.6809000000000001	n/a	Yes	3.374	n/a	5.0	GoodResponse	0	0.006	442.681	7	46	Feedback	AvoidedLoss	True
445.124	3.374	Lose2	0.6809000000000001	n/a	Yes	3.374	n/a	n/a	GoodResponse	0	0.0	n/a	7	46	ISIslide	AvoidedLoss	True
448.523	0.25	Lose2	0.6875	0.0	Yes	2.677	0.023	n/a	GoodResponse	0	n/a	n/a	7	47	Cue	AvoidedLoss	True
448.773	4.0	Lose2	0.6875	0.0	Yes	2.677	0.0	n/a	GoodResponse	0	n/a	n/a	7	47	Fixation	AvoidedLoss	True
452.771	0.29	Lose2	0.6875	0.002	Yes	2.677	-0.002	4.0	GoodResponse	0	0.184	451.955	7	47	Target	AvoidedLoss	True
452.955	0.3	Lose2	0.6875	0.002	Yes	2.677	-0.002	4.0	GoodResponse	0	0.184	n/a	7	47	ButtonPress	AvoidedLoss	True
453.071	0.41	Lose2	0.6875	n/a	Yes	2.677	n/a	n/a	GoodResponse	0	n/a	n/a	7	47	Blank	AvoidedLoss	True
453.471	1.45	Lose2	0.6875	n/a	Yes	2.677	n/a	5.0	GoodResponse	0	0.015	452.486	7	47	Feedback	AvoidedLoss	True
454.921	2.677	Lose2	0.6875	n/a	Yes	2.677	n/a	n/a	GoodResponse	0	0.0	n/a	7	47	ISIslide	AvoidedLoss	True
457.62	0.25	Lose2	0.6939	0.0	Yes	3.03	0.02	n/a	GoodResponse	0	n/a	n/a	7	48	Cue	AvoidedLoss	True
457.869	3.95	Lose2	0.6939	0.001	Yes	3.03	-0.001	n/a	GoodResponse	0	n/a	n/a	7	48	Fixation	AvoidedLoss	True
461.818	0.28	Lose2	0.6939	0.002	Yes	3.03	-0.002	4.0	GoodResponse	0	0.24	461.058	7	48	Target	AvoidedLoss	True
462.058	0.3	Lose2	0.6939	0.002	Yes	3.03	-0.002	4.0	GoodResponse	0	0.24	n/a	7	48	ButtonPress	AvoidedLoss	True
462.101	0.42	Lose2	0.6939	n/a	Yes	3.03	n/a	n/a	GoodResponse	0	n/a	n/a	7	48	Blank	AvoidedLoss	True
462.518	1.45	Lose2	0.6939	n/a	Yes	3.03	n/a	5.0	GoodResponse	0	0.04	461.558	7	48	Feedback	AvoidedLoss	True
463.967	3.03	Lose2	0.6939	n/a	Yes	3.03	n/a	n/a	GoodResponse	0	0.0	n/a	7	48	ISIslide	AvoidedLoss	True
467.016	0.25	Control	0.7	0.0	Yes	2.884	0.016	n/a	GoodResponse	0	n/a	n/a	7	49	Cue	Neutral	True
467.266	4.0	Control	0.7	0.0	Yes	2.884	0.0	n/a	GoodResponse	0	n/a	n/a	7	49	Fixation	Neutral	True
471.265	0.27	Control	0.7	0.001	Yes	2.884	-0.001	4.0	GoodResponse	0	0.24	470.505	7	49	Target	Neutral	True
471.505	0.3	Control	0.7	0.001	Yes	2.884	-0.001	4.0	GoodResponse	0	0.24	n/a	7	49	ButtonPress	Neutral	True
471.531	0.43	Control	0.7	n/a	Yes	2.884	n/a	n/a	GoodResponse	0	n/a	n/a	7	49	Blank	Neutral	True
471.965	1.45	Control	0.7	n/a	Yes	2.884	n/a	5.0	GoodResponse	0	0.008	470.973	7	49	Feedback	Neutral	True
473.414	2.884	Control	0.7	n/a	Yes	2.884	n/a	n/a	GoodResponse	0	0.0	n/a	7	49	ISIslide	Neutral	True
476.313	0.25	Control	0.7059000000000001	0.0	Yes	2.787	0.013	n/a	GoodResponse	0	n/a	n/a	7	50	Cue	Neutral	True
476.563	4.0	Control	0.7059000000000001	0.0	Yes	2.787	0.0	n/a	GoodResponse	0	n/a	n/a	7	50	Fixation	Neutral	True
480.561	0.26	Control	0.7059000000000001	0.002	Yes	2.787	-0.002	4.0	GoodResponse	0	0.205	479.766	7	50	Target	Neutral	True
480.766	0.3	Control	0.7059000000000001	0.002	Yes	2.787	-0.002	4.0	GoodResponse	0	0.205	n/a	7	50	ButtonPress	Neutral	True
480.828	0.44	Control	0.7059000000000001	n/a	Yes	2.787	n/a	n/a	GoodResponse	0	n/a	n/a	7	50	Blank	Neutral	True
481.261	1.45	Control	0.7059000000000001	n/a	Yes	2.787	n/a	5.0	GoodResponse	0	0.029	480.29	7	50	Feedback	Neutral	True
482.711	2.787	Control	0.7059000000000001	n/a	Yes	2.787	n/a	n/a	GoodResponse	0	0.0	n/a	7	50	ISIslide	Neutral	True
485.526	0.25	Control	0.7115	0.0	Yes	2.724	0.026	n/a	GoodResponse	0	n/a	n/a	7	51	Cue	Neutral	True
485.776	3.95	Control	0.7115	0.0	Yes	2.724	0.0	n/a	GoodResponse	0	n/a	n/a	7	51	Fixation	Neutral	True
489.725	0.25	Control	0.7115	0.001	Yes	2.724	-0.001	4.0	GoodResponse	0	0.225	488.95	7	51	Target	Neutral	True
489.95	0.3	Control	0.7115	0.001	Yes	2.724	-0.001	4.0	GoodResponse	0	0.225	n/a	7	51	ButtonPress	Neutral	True
489.975	0.45	Control	0.7115	n/a	Yes	2.724	n/a	n/a	GoodResponse	0	n/a	n/a	7	51	Blank	Neutral	True
490.425	1.45	Control	0.7115	n/a	Yes	2.724	n/a	5.0	GoodResponse	0	0.036	489.461	7	51	Feedback	Neutral	True
491.874	2.724	Control	0.7115	n/a	Yes	2.724	n/a	n/a	GoodResponse	0	0.0	n/a	7	51	ISIslide	Neutral	True
494.623	0.25	Control	0.6981	0.0	No	2.627	0.023	n/a	PrematurePress	0	n/a	n/a	7	52	Cue	Neutral	True
494.873	4.05	Control	0.6981	0.0	No	2.627	0.0	n/a	PrematurePress	0	n/a	n/a	7	52	Fixation	Neutral	True
498.922	0.24	Control	0.6981	0.001	No	2.627	-0.001	4.0	PrematurePress	0	0.016	497.938	7	52	Target	Neutral	True
498.938	0.3	Control	0.6981	0.001	No	2.627	-0.001	4.0	PrematurePress	0	0.016	n/a	7	52	ButtonPress	Neutral	True
499.172	0.46	Control	0.6981	n/a	No	2.627	n/a	n/a	PrematurePress	0	n/a	n/a	7	52	Blank	Neutral	True
499.621	1.45	Control	0.6981	n/a	No	2.627	n/a	5.0	PrematurePress	0	0.011	498.632	7	52	Feedback	Neutral	True
501.071	2.627	Control	0.6981	n/a	No	2.627	n/a	n/a	PrematurePress	0	0.0	n/a	7	52	ISIslide	Neutral	True
503.72	0.25	Win2	0.7037	0.0	Yes	2.93	0.02	n/a	GoodResponse	1	n/a	n/a	8	53	Cue	Win	True
503.97	4.05	Win2	0.7037	0.0	Yes	2.93	0.0	n/a	GoodResponse	1	n/a	n/a	8	53	Fixation	Win	True
508.018	0.23	Win2	0.7037	0.002	Yes	2.93	-0.002	4.0	GoodResponse	1	0.218	507.236	8	53	Target	Win	True
508.236	0.3	Win2	0.7037	0.002	Yes	2.93	-0.002	4.0	GoodResponse	1	0.218	n/a	8	53	ButtonPress	Win	True
508.252	0.47	Win2	0.7037	n/a	Yes	2.93	n/a	n/a	GoodResponse	1	n/a	n/a	8	53	Blank	Win	True
508.718	1.45	Win2	0.7037	n/a	Yes	2.93	n/a	5.0	GoodResponse	1	0.035	507.753	8	53	Feedback	Win	True
510.168	2.93	Win2	0.7037	n/a	Yes	2.93	n/a	n/a	GoodResponse	1	0.0	n/a	8	53	ISIslide	Win	True
513.117	0.25	Win2	0.7091	0.0	Yes	2.733	0.017	n/a	GoodResponse	1	n/a	n/a	9	54	Cue	Win	True
513.367	3.95	Win2	0.7091	0.0	Yes	2.733	0.0	n/a	GoodResponse	1	n/a	n/a	9	54	Fixation	Win	True
517.315	0.22	Win2	0.7091	0.002	Yes	2.733	-0.002	4.0	GoodResponse	1	0.195	516.51	9	54	Target	Win	True
517.51	0.3	Win2	0.7091	0.002	Yes	2.733	-0.002	4.0	GoodResponse	1	0.195	n/a	9	54	ButtonPress	Win	True
517.548	0.48	Win2	0.7091	n/a	Yes	2.733	n/a	n/a	GoodResponse	1	n/a	n/a	9	54	Blank	Win	True
518.015	1.45	Win2	0.7091	n/a	Yes	2.733	n/a	5.0	GoodResponse	1	0.007	517.022	9	54	Feedback	Win	True
519.464	2.733	Win2	0.7091	n/a	Yes	2.733	n/a	n/a	GoodResponse	1	0.0	n/a	9	54	ISIslide	Win	True
522.213	0.25	Control	0.7143	0.001	Yes	3.037	0.013	n/a	GoodResponse	0	n/a	n/a	9	55	Cue	Neutral	True
522.463	3.95	Control	0.7143	0.0	Yes	3.037	0.0	n/a	GoodResponse	0	n/a	n/a	9	55	Fixation	Neutral	True
526.412	0.21	Control	0.7143	0.001	Yes	3.037	-0.001	4.0	GoodResponse	0	0.205	525.617	9	55	Target	Neutral	True
526.617	0.3	Control	0.7143	0.001	Yes	3.037	-0.001	4.0	GoodResponse	0	0.205	n/a	9	55	ButtonPress	Neutral	True
526.629	0.49	Control	0.7143	n/a	Yes	3.037	n/a	n/a	GoodResponse	0	n/a	n/a	9	55	Blank	Neutral	True
527.112	1.45	Control	0.7143	n/a	Yes	3.037	n/a	5.0	GoodResponse	0	0.032	526.144	9	55	Feedback	Neutral	True
528.561	3.037	Control	0.7143	n/a	Yes	3.037	n/a	n/a	GoodResponse	0	0.0	n/a	9	55	ISIslide	Neutral	True
531.627	0.25	Control	0.7018000000000001	0.0	No	2.823	0.027	n/a	NoResponse	0	n/a	n/a	9	56	Cue	Neutral	True
531.877	3.95	Control	0.7018000000000001	0.0	No	2.823	0.0	n/a	NoResponse	0	n/a	n/a	9	56	Fixation	Neutral	True
535.825	0.2	Control	0.7018000000000001	0.002	No	2.823	-0.002	4.0	NoResponse	0	0.202	535.027	9	56	Target	Neutral	True
536.025	0.5	Control	0.7018000000000001	n/a	No	2.823	n/a	n/a	NoResponse	0	n/a	n/a	9	56	Blank	Neutral	True
536.027	0.3	Control	0.7018000000000001	0.002	No	2.823	-0.002	4.0	NoResponse	0	0.202	n/a	9	56	ButtonPress	Neutral	True
536.525	1.45	Control	0.7018000000000001	n/a	No	2.823	n/a	5.0	NoResponse	0	0.033	535.558	9	56	Feedback	Neutral	True
537.975	2.823	Control	0.7018000000000001	n/a	No	2.823	n/a	n/a	NoResponse	0	0.0	n/a	9	56	ISIslide	Neutral	True
540.824	0.25	Control	0.6897	0.0	No	3.476	0.024	n/a	NoResponse	0	n/a	n/a	9	57	Cue	Neutral	True
541.074	4.0	Control	0.6897	0.0	No	3.476	0.0	n/a	NoResponse	0	n/a	n/a	9	57	Fixation	Neutral	True
545.072	0.19	Control	0.6897	0.002	No	3.476	-0.002	4.0	NoResponse	0	0.225	544.297	9	57	Target	Neutral	True
545.272	0.51	Control	0.6897	n/a	No	3.476	n/a	n/a	NoResponse	0	n/a	n/a	9	57	Blank	Neutral	True
545.297	0.3	Control	0.6897	0.002	No	3.476	-0.002	4.0	NoResponse	0	0.225	n/a	9	57	ButtonPress	Neutral	True
545.772	1.45	Control	0.6897	n/a	No	3.476	n/a	5.0	NoResponse	0	0.006	544.778	9	57	Feedback	Neutral	True
547.221	3.476	Control	0.6897	n/a	No	3.476	n/a	n/a	NoResponse	0	0.0	n/a	9	57	ISIslide	Neutral	True
550.72	0.25	Win2	0.6779999999999999	0.0	No	2.73	0.02	n/a	NoResponse	0	n/a	n/a	9	58	Cue	MissedWin	True
550.97	4.05	Win2	0.6779999999999999	0.0	No	2.73	0.0	n/a	NoResponse	0	n/a	n/a	9	58	Fixation	MissedWin	True
555.019	0.18	Win2	0.6779999999999999	0.001	No	2.73	-0.001	4.0	NoResponse	0	0.208	554.227	9	58	Target	MissedWin	True
555.202	0.52	Win2	0.6779999999999999	n/a	No	2.73	n/a	n/a	NoResponse	0	n/a	n/a	9	58	Blank	MissedWin	True
555.227	0.3	Win2	0.6779999999999999	0.001	No	2.73	-0.001	4.0	NoResponse	0	0.208	n/a	9	58	ButtonPress	MissedWin	True
555.718	1.45	Win2	0.6779999999999999	n/a	No	2.73	n/a	5.0	NoResponse	0	0.01	554.728	9	58	Feedback	MissedWin	True
557.168	2.73	Win2	0.6779999999999999	n/a	No	2.73	n/a	n/a	NoResponse	0	0.0	n/a	9	58	ISIslide	MissedWin	True
559.917	0.25	Lose2	0.6667000000000001	0.0	No	2.683	0.017	n/a	LatePress	-1	n/a	n/a	8	59	Cue	Loss	True
560.167	4.0	Lose2	0.6667000000000001	0.0	No	2.683	0.0	n/a	LatePress	-1	n/a	n/a	8	59	Fixation	Loss	True
564.165	0.17	Lose2	0.6667000000000001	0.002	No	2.683	-0.002	4.0	LatePress	-1	0.171	563.336	8	59	Target	Loss	True
564.336	0.3	Lose2	0.6667000000000001	0.002	No	2.683	-0.002	4.0	LatePress	-1	0.171	n/a	8	59	ButtonPress	Loss	True
564.349	0.53	Lose2	0.6667000000000001	n/a	No	2.683	n/a	n/a	LatePress	-1	n/a	n/a	8	59	Blank	Loss	True
564.865	1.45	Lose2	0.6667000000000001	n/a	No	2.683	n/a	5.0	LatePress	-1	0.034	563.899	8	59	Feedback	Loss	True
566.315	2.683	Lose2	0.6667000000000001	n/a	No	2.683	n/a	n/a	LatePress	-1	0.0	n/a	8	59	ISIslide	Loss	True
569.014	0.25	Control	0.6720999999999999	0.0	Yes	2.686	0.014	n/a	GoodResponse	0	n/a	n/a	8	60	Cue	Neutral	True
569.264	4.0	Control	0.6720999999999999	0.0	Yes	2.686	0.0	n/a	GoodResponse	0	n/a	n/a	8	60	Fixation	Neutral	True
573.262	0.16	Control	0.6720999999999999	0.002	Yes	2.686	-0.002	4.0	GoodResponse	0	0.13	572.392	8	60	Target	Neutral	True
573.392	0.3	Control	0.6720999999999999	0.002	Yes	2.686	-0.002	4.0	GoodResponse	0	0.13	n/a	8	60	ButtonPress	Neutral	True
573.429	0.54	Control	0.6720999999999999	n/a	Yes	2.686	n/a	n/a	GoodResponse	0	n/a	n/a	8	60	Blank	Neutral	True
573.962	1.45	Control	0.6720999999999999	n/a	Yes	2.686	n/a	5.0	GoodResponse	0	0.011	572.973	8	60	Feedback	Neutral	True
575.411	2.686	Control	0.6720999999999999	n/a	Yes	2.686	n/a	n/a	GoodResponse	0	0.0	n/a	8	60	ISIslide	Neutral	True
578.127	0.25	Lose2	0.6613	0.0	No	2.973	0.027	n/a	NoResponse	-1	n/a	n/a	7	61	Cue	Loss	True
578.377	4.0	Lose2	0.6613	0.0	No	2.973	0.0	n/a	NoResponse	-1	n/a	n/a	7	61	Fixation	Loss	True
582.376	0.15	Lose2	0.6613	0.001	No	2.973	-0.001	4.0	NoResponse	-1	0.191	581.567	7	61	Target	Loss	True
582.526	0.55	Lose2	0.6613	n/a	No	2.973	n/a	n/a	NoResponse	-1	n/a	n/a	7	61	Blank	Loss	True
582.567	0.3	Lose2	0.6613	0.001	No	2.973	-0.001	4.0	NoResponse	-1	0.191	n/a	7	61	ButtonPress	Loss	True
583.075	1.45	Lose2	0.6613	n/a	No	2.973	n/a	5.0	NoResponse	-1	0.02	582.095	7	61	Feedback	Loss	True
584.525	2.973	Lose2	0.6613	n/a	No	2.973	n/a	n/a	NoResponse	-1	0.0	n/a	7	61	ISIslide	Loss	True
587.524	0.25	Lose2	0.6507999999999999	0.0	No	2.876	0.024	n/a	NoResponse	-1	n/a	n/a	6	62	Cue	Loss	True
587.774	3.9	Lose2	0.6507999999999999	0.0	No	2.876	0.0	n/a	NoResponse	-1	n/a	n/a	6	62	Fixation	Loss	True
591.672	0.15	Lose2	0.6507999999999999	0.002	No	2.876	-0.002	4.0	NoResponse	-1	0.184	590.856	6	62	Target	Loss	True
591.822	0.55	Lose2	0.6507999999999999	n/a	No	2.876	n/a	n/a	NoResponse	-1	n/a	n/a	6	62	Blank	Loss	True
591.856	0.3	Lose2	0.6507999999999999	0.002	No	2.876	-0.002	4.0	NoResponse	-1	0.184	n/a	6	62	ButtonPress	Loss	True
592.372	1.45	Lose2	0.6507999999999999	n/a	No	2.876	n/a	5.0	NoResponse	-1	0.039	591.411	6	62	Feedback	Loss	True
593.822	2.876	Lose2	0.6507999999999999	n/a	No	2.876	n/a	n/a	NoResponse	-1	0.0	n/a	6	62	ISIslide	Loss	True
596.721	0.25	Lose2	0.6406000000000001	0.0	No	2.629	0.021	n/a	NoResponse	-1	n/a	n/a	5	63	Cue	Loss	True
596.97	4.05	Lose2	0.6406000000000001	0.001	No	2.629	-0.001	n/a	NoResponse	-1	n/a	n/a	5	63	Fixation	Loss	True
601.019	0.16	Lose2	0.6406000000000001	0.002	No	2.629	-0.002	4.0	NoResponse	-1	0.253	600.272	5	63	Target	Loss	True
601.186	0.54	Lose2	0.6406000000000001	n/a	No	2.629	n/a	n/a	NoResponse	-1	n/a	n/a	5	63	Blank	Loss	True
601.272	0.3	Lose2	0.6406000000000001	0.002	No	2.629	-0.002	4.0	NoResponse	-1	0.253	n/a	5	63	ButtonPress	Loss	True
601.719	1.45	Lose2	0.6406000000000001	n/a	No	2.629	n/a	5.0	NoResponse	-1	0.009	600.728	5	63	Feedback	Loss	True
603.168	2.629	Lose2	0.6406000000000001	n/a	No	2.629	n/a	n/a	NoResponse	-1	0.0	n/a	5	63	ISIslide	Loss	True
605.817	0.25	Win2	0.6308	0.0	No	3.133	0.017	n/a	NoResponse	0	n/a	n/a	5	64	Cue	MissedWin	True
606.067	4.15	Win2	0.6308	0.0	No	3.133	0.0	n/a	NoResponse	0	n/a	n/a	5	64	Fixation	MissedWin	True
610.216	0.17	Win2	0.6308	0.001	No	3.133	-0.001	4.0	NoResponse	0	0.202	609.418	5	64	Target	MissedWin	True
610.382	0.53	Win2	0.6308	n/a	No	3.133	n/a	n/a	NoResponse	0	n/a	n/a	5	64	Blank	MissedWin	True
610.418	0.3	Win2	0.6308	0.001	No	3.133	-0.001	4.0	NoResponse	0	0.202	n/a	5	64	ButtonPress	MissedWin	True
610.916	1.45	Win2	0.6308	n/a	No	3.133	n/a	5.0	NoResponse	0	0.032	609.948	5	64	Feedback	MissedWin	True
612.365	3.133	Win2	0.6308	n/a	No	3.133	n/a	n/a	NoResponse	0	0.0	n/a	5	64	ISIslide	MissedWin	True
615.514	0.25	Control	0.6212	0.0	No	2.786	0.014	n/a	NoResponse	0	n/a	n/a	5	65	Cue	Neutral	True
615.764	4.0	Control	0.6212	0.0	No	2.786	0.0	n/a	NoResponse	0	n/a	n/a	5	65	Fixation	Neutral	True
619.762	0.18	Control	0.6212	0.002	No	2.786	-0.002	4.0	NoResponse	0	0.198	618.96	5	65	Target	Neutral	True
619.946	0.52	Control	0.6212	n/a	No	2.786	n/a	n/a	NoResponse	0	n/a	n/a	5	65	Blank	Neutral	True
619.96	0.3	Control	0.6212	0.002	No	2.786	-0.002	4.0	NoResponse	0	0.198	n/a	5	65	ButtonPress	Neutral	True
620.462	1.45	Control	0.6212	n/a	No	2.786	n/a	5.0	NoResponse	0	0.047	619.509	5	65	Feedback	Neutral	True
621.912	2.786	Control	0.6212	n/a	No	2.786	n/a	n/a	NoResponse	0	0.0	n/a	5	65	ISIslide	Neutral	True
624.727	0.25	Win2	0.6119	0.0	No	2.773	0.027	n/a	NoResponse	0	n/a	n/a	5	66	Cue	MissedWin	True
624.977	3.9	Win2	0.6119	0.0	No	2.773	0.0	n/a	NoResponse	0	n/a	n/a	5	66	Fixation	MissedWin	True
628.876	0.19	Win2	0.6119	0.001	No	2.773	-0.001	4.0	NoResponse	0	0.207	628.083	5	66	Target	MissedWin	True
629.076	0.51	Win2	0.6119	n/a	No	2.773	n/a	n/a	NoResponse	0	n/a	n/a	5	66	Blank	MissedWin	True
629.083	0.3	Win2	0.6119	0.001	No	2.773	-0.001	4.0	NoResponse	0	0.207	n/a	5	66	ButtonPress	MissedWin	True
629.576	1.45	Win2	0.6119	n/a	No	2.773	n/a	5.0	NoResponse	0	0.006	628.582	5	66	Feedback	MissedWin	True
631.025	2.773	Win2	0.6119	n/a	No	2.773	n/a	n/a	NoResponse	0	0.0	n/a	5	66	ISIslide	MissedWin	True
633.824	0.25	Control	0.6029	0.0	No	2.726	0.024	n/a	NoResponse	0	n/a	n/a	5	67	Cue	Neutral	True
634.074	3.95	Control	0.6029	0.0	No	2.726	0.0	n/a	NoResponse	0	n/a	n/a	5	67	Fixation	Neutral	True
638.023	0.2	Control	0.6029	0.001	No	2.726	-0.001	4.0	NoResponse	0	0.228	637.251	5	67	Target	Neutral	True
638.223	0.5	Control	0.6029	n/a	No	2.726	n/a	n/a	NoResponse	0	n/a	n/a	5	67	Blank	Neutral	True
638.251	0.3	Control	0.6029	0.001	No	2.726	-0.001	4.0	NoResponse	0	0.228	n/a	5	67	ButtonPress	Neutral	True
638.722	1.45	Control	0.6029	n/a	No	2.726	n/a	5.0	NoResponse	0	0.03	637.752	5	67	Feedback	Neutral	True
640.172	2.726	Control	0.6029	n/a	No	2.726	n/a	n/a	NoResponse	0	0.0	n/a	5	67	ISIslide	Neutral	True
642.921	0.25	Win2	0.6087	0.0	Yes	3.079	0.021	n/a	GoodResponse	1	n/a	n/a	6	68	Cue	Win	True
643.171	4.0	Win2	0.6087	0.0	Yes	3.079	0.0	n/a	GoodResponse	1	n/a	n/a	6	68	Fixation	Win	True
647.169	0.21	Win2	0.6087	0.002	Yes	3.079	-0.002	4.0	GoodResponse	1	0.208	646.377	6	68	Target	Win	True
647.377	0.3	Win2	0.6087	0.002	Yes	3.079	-0.002	4.0	GoodResponse	1	0.208	n/a	6	68	ButtonPress	Win	True
647.386	0.49	Win2	0.6087	n/a	Yes	3.079	n/a	n/a	GoodResponse	1	n/a	n/a	6	68	Blank	Win	True
647.869	1.45	Win2	0.6087	n/a	Yes	3.079	n/a	5.0	GoodResponse	1	0.005	646.874	6	68	Feedback	Win	True
649.319	3.079	Win2	0.6087	n/a	Yes	3.079	n/a	n/a	GoodResponse	1	0.0	n/a	6	68	ISIslide	Win	True
652.418	0.25	Win2	0.6143	0.0	Yes	3.232	0.018	n/a	GoodResponse	1	n/a	n/a	7	69	Cue	Win	True
652.668	3.95	Win2	0.6143	0.0	Yes	3.232	0.0	n/a	GoodResponse	1	n/a	n/a	7	69	Fixation	Win	True
656.616	0.22	Win2	0.6143	0.002	Yes	3.232	-0.002	4.0	GoodResponse	1	0.211	655.827	7	69	Target	Win	True
656.827	0.3	Win2	0.6143	0.002	Yes	3.232	-0.002	4.0	GoodResponse	1	0.211	n/a	7	69	ButtonPress	Win	True
656.849	0.48	Win2	0.6143	n/a	Yes	3.232	n/a	n/a	GoodResponse	1	n/a	n/a	7	69	Blank	Win	True
657.316	1.45	Win2	0.6143	n/a	Yes	3.232	n/a	5.0	GoodResponse	1	0.022	656.338	7	69	Feedback	Win	True
658.765	3.232	Win2	0.6143	n/a	Yes	3.232	n/a	n/a	GoodResponse	1	0.0	n/a	7	69	ISIslide	Win	True
662.014	0.25	Lose2	0.6197	0.0	Yes	3.036	0.014	n/a	GoodResponse	0	n/a	n/a	7	70	Cue	AvoidedLoss	True
662.264	4.05	Lose2	0.6197	0.0	Yes	3.036	0.0	n/a	GoodResponse	0	n/a	n/a	7	70	Fixation	AvoidedLoss	True
666.313	0.23	Lose2	0.6197	0.001	Yes	3.036	-0.001	4.0	GoodResponse	0	0.195	665.508	7	70	Target	AvoidedLoss	True
666.508	0.3	Lose2	0.6197	0.001	Yes	3.036	-0.001	4.0	GoodResponse	0	0.195	n/a	7	70	ButtonPress	AvoidedLoss	True
666.546	0.47	Lose2	0.6197	n/a	Yes	3.036	n/a	n/a	GoodResponse	0	n/a	n/a	7	70	Blank	AvoidedLoss	True
667.012	1.45	Lose2	0.6197	n/a	Yes	3.036	n/a	5.0	GoodResponse	0	0.033	666.045	7	70	Feedback	AvoidedLoss	True
668.462	3.036	Lose2	0.6197	n/a	Yes	3.036	n/a	n/a	GoodResponse	0	0.0	n/a	7	70	ISIslide	AvoidedLoss	True
671.528	0.25	Win2	0.625	0.0	Yes	2.722	0.028	n/a	GoodResponse	1	n/a	n/a	8	71	Cue	Win	True
671.777	4.05	Win2	0.625	0.001	Yes	2.722	-0.001	n/a	GoodResponse	1	n/a	n/a	8	71	Fixation	Win	True
675.826	0.24	Win2	0.625	0.002	Yes	2.722	-0.002	4.0	GoodResponse	1	0.237	675.063	8	71	Target	Win	True
676.063	0.3	Win2	0.625	0.002	Yes	2.722	-0.002	4.0	GoodResponse	1	0.237	n/a	8	71	ButtonPress	Win	True
676.076	0.46	Win2	0.625	n/a	Yes	2.722	n/a	n/a	GoodResponse	1	n/a	n/a	8	71	Blank	Win	True
676.526	1.45	Win2	0.625	n/a	Yes	2.722	n/a	5.0	GoodResponse	1	0.03	675.556	8	71	Feedback	Win	True
677.975	2.722	Win2	0.625	n/a	Yes	2.722	n/a	n/a	GoodResponse	1	0.0	n/a	8	71	ISIslide	Win	True
680.724	0.25	Win2	0.6301	0.0	Yes	2.776	0.024	n/a	GoodResponse	1	n/a	n/a	9	72	Cue	Win	True
680.974	4.1	Win2	0.6301	0.0	Yes	2.776	0.0	n/a	GoodResponse	1	n/a	n/a	9	72	Fixation	Win	True
685.073	0.25	Win2	0.6301	0.001	Yes	2.776	-0.001	4.0	GoodResponse	1	0.213	684.286	9	72	Target	Win	True
685.286	0.3	Win2	0.6301	0.001	Yes	2.776	-0.001	4.0	GoodResponse	1	0.213	n/a	9	72	ButtonPress	Win	True
685.323	0.45	Win2	0.6301	n/a	Yes	2.776	n/a	n/a	GoodResponse	1	n/a	n/a	9	72	Blank	Win	True
685.773	1.45	Win2	0.6301	n/a	Yes	2.776	n/a	5.0	GoodResponse	1	0.004	684.777	9	72	Feedback	Win	True
687.222	2.776	Win2	0.6301	n/a	Yes	2.776	n/a	n/a	GoodResponse	1	0.0	n/a	9	72	ISIslide	Win	True
690.021	0.25	Win2	0.6351	0.0	Yes	2.679	0.021	n/a	GoodResponse	1	n/a	n/a	10	73	Cue	Win	True
690.271	4.0	Win2	0.6351	0.0	Yes	2.679	0.0	n/a	GoodResponse	1	n/a	n/a	10	73	Fixation	Win	True
694.27	0.26	Win2	0.6351	0.001	Yes	2.679	-0.001	4.0	GoodResponse	1	0.222	693.492	10	73	Target	Win	True
694.492	0.3	Win2	0.6351	0.001	Yes	2.679	-0.001	4.0	GoodResponse	1	0.222	n/a	10	73	ButtonPress	Win	True
694.536	0.44	Win2	0.6351	n/a	Yes	2.679	n/a	n/a	GoodResponse	1	n/a	n/a	10	73	Blank	Win	True
694.969	1.45	Win2	0.6351	n/a	Yes	2.679	n/a	5.0	GoodResponse	1	0.027	693.996	10	73	Feedback	Win	True
696.419	2.679	Win2	0.6351	n/a	Yes	2.679	n/a	n/a	GoodResponse	1	0.0	n/a	10	73	ISIslide	Win	True
699.118	0.25	Lose2	0.64	0.0	Yes	2.632	0.018	n/a	GoodResponse	0	n/a	n/a	10	74	Cue	AvoidedLoss	True
699.368	4.05	Lose2	0.64	0.0	Yes	2.632	0.0	n/a	GoodResponse	0	n/a	n/a	10	74	Fixation	AvoidedLoss	True
703.416	0.27	Lose2	0.64	0.002	Yes	2.632	-0.002	4.0	GoodResponse	0	0.197	702.613	10	74	Target	AvoidedLoss	True
703.613	0.3	Lose2	0.64	0.002	Yes	2.632	-0.002	4.0	GoodResponse	0	0.197	n/a	10	74	ButtonPress	AvoidedLoss	True
703.7	0.43	Lose2	0.64	n/a	Yes	2.632	n/a	n/a	GoodResponse	0	n/a	n/a	10	74	Blank	AvoidedLoss	True
704.116	1.45	Lose2	0.64	n/a	Yes	2.632	n/a	5.0	GoodResponse	0	0.002	703.118	10	74	Feedback	AvoidedLoss	True
705.566	2.632	Lose2	0.64	n/a	Yes	2.632	n/a	n/a	GoodResponse	0	0.0	n/a	10	74	ISIslide	AvoidedLoss	True
708.215	0.25	Lose2	0.6446999999999999	0.0	Yes	2.935	0.015	n/a	GoodResponse	0	n/a	n/a	10	75	Cue	AvoidedLoss	True
708.465	3.95	Lose2	0.6446999999999999	0.0	Yes	2.935	0.0	n/a	GoodResponse	0	n/a	n/a	10	75	Fixation	AvoidedLoss	True
712.413	0.28	Lose2	0.6446999999999999	0.002	Yes	2.935	-0.002	4.0	GoodResponse	0	0.192	711.605	10	75	Target	AvoidedLoss	True
712.605	0.3	Lose2	0.6446999999999999	0.002	Yes	2.935	-0.002	4.0	GoodResponse	0	0.192	n/a	10	75	ButtonPress	AvoidedLoss	True
712.696	0.42	Lose2	0.6446999999999999	n/a	Yes	2.935	n/a	n/a	GoodResponse	0	n/a	n/a	10	75	Blank	AvoidedLoss	True
713.113	1.45	Lose2	0.6446999999999999	n/a	Yes	2.935	n/a	5.0	GoodResponse	0	0.029	712.142	10	75	Feedback	AvoidedLoss	True
714.562	2.935	Lose2	0.6446999999999999	n/a	Yes	2.935	n/a	n/a	GoodResponse	0	0.0	n/a	10	75	ISIslide	AvoidedLoss	True
717.511	0.25	Control	0.6494	0.0	Yes	3.239	0.011	n/a	GoodResponse	0	n/a	n/a	10	76	Cue	Neutral	True
717.761	4.05	Control	0.6494	0.0	Yes	3.239	0.0	n/a	GoodResponse	0	n/a	n/a	10	76	Fixation	Neutral	True
721.81	0.29	Control	0.6494	0.001	Yes	3.239	-0.001	4.0	GoodResponse	0	0.195	721.005	10	76	Target	Neutral	True
722.005	0.3	Control	0.6494	0.001	Yes	3.239	-0.001	4.0	GoodResponse	0	0.195	n/a	10	76	ButtonPress	Neutral	True
722.11	0.41	Control	0.6494	n/a	Yes	3.239	n/a	n/a	GoodResponse	0	n/a	n/a	10	76	Blank	Neutral	True
722.51	1.45	Control	0.6494	n/a	Yes	3.239	n/a	5.0	GoodResponse	0	0.046	721.556	10	76	Feedback	Neutral	True
723.959	3.239	Control	0.6494	n/a	Yes	3.239	n/a	n/a	GoodResponse	0	0.0	n/a	10	76	ISIslide	Neutral	True
727.225	0.25	Lose2	0.6537999999999999	0.0	Yes	2.575	0.025	n/a	GoodResponse	0	n/a	n/a	10	77	Cue	AvoidedLoss	True
727.475	3.95	Lose2	0.6537999999999999	0.0	Yes	2.575	0.0	n/a	GoodResponse	0	n/a	n/a	10	77	Fixation	AvoidedLoss	True
731.423	0.3	Lose2	0.6537999999999999	0.002	Yes	2.575	-0.002	4.0	GoodResponse	0	0.24	730.663	10	77	Target	AvoidedLoss	True
731.663	0.3	Lose2	0.6537999999999999	0.002	Yes	2.575	-0.002	4.0	GoodResponse	0	0.24	n/a	10	77	ButtonPress	AvoidedLoss	True
731.723	0.4	Lose2	0.6537999999999999	n/a	Yes	2.575	n/a	n/a	GoodResponse	0	n/a	n/a	10	77	Blank	AvoidedLoss	True
732.123	1.45	Lose2	0.6537999999999999	n/a	Yes	2.575	n/a	5.0	GoodResponse	0	0.043	731.166	10	77	Feedback	AvoidedLoss	True
733.572	2.575	Lose2	0.6537999999999999	n/a	Yes	2.575	n/a	n/a	GoodResponse	0	0.0	n/a	10	77	ISIslide	AvoidedLoss	True
