onset	duration	cue_type	current_mean_accuracy	duration_error	is_hit	isi_adjusted	onset_delay	response	response_type	reward	rt	rt_time	total_reward	trial_number	trial_phase	trial_type	one_press
11.104	0.25	Control	1.0	0.0	Yes	2.946	0.004	2.0	GoodResponse	0	0.064	10.168	0	0	Cue	Neutral	False
11.168	0.3	Control	1.0	0.0	Yes	2.946	0.004	2.0	GoodResponse	0	0.064	n/a	0	0	ButtonPress	Neutral	False
11.355	3.85	Control	1.0	0.0	Yes	2.946	0.001	2.0	GoodResponse	0	0.217	10.572	0	0	Fixation	Neutral	False
11.572	0.3	Control	1.0	0.0	Yes	2.946	0.001	2.0	GoodResponse	0	0.217	n/a	0	0	ButtonPress	Neutral	False
15.2	0.4	Control	1.0	0.004	Yes	2.946	-0.004	2.0	GoodResponse	0	0.228	14.428	0	0	Target	Neutral	False
15.428	0.3	Control	1.0	0.004	Yes	2.946	-0.004	2.0	GoodResponse	0	0.228	n/a	0	0	ButtonPress	Neutral	False
15.601	0.3	Control	1.0	n/a	Yes	2.946	n/a	n/a	GoodResponse	0	n/a	n/a	0	0	Blank	Neutral	False
15.902	1.45	Control	1.0	n/a	Yes	2.946	n/a	5.0	GoodResponse	0	0.024	14.926	0	0	Feedback	Neutral	False
17.356	2.946	Control	1.0	n/a	Yes	2.946	n/a	n/a	GoodResponse	0	0.0	n/a	0	0	ISIslide	Neutral	False
20.332	0.25	Lose2	1.0	0.0	Yes	2.768	0.032	n/a	GoodResponse	0	n/a	n/a	0	1	Cue	AvoidedLoss	True
20.583	4.0	Lose2	1.0	0.0	Yes	2.768	0.001	n/a	GoodResponse	0	n/a	n/a	0	1	Fixation	AvoidedLoss	True
24.578	0.39	Lose2	1.0	0.004	Yes	2.768	-0.004	2.0	GoodResponse	0	0.234	23.812	0	1	Target	AvoidedLoss	True
24.812	0.3	Lose2	1.0	0.004	Yes	2.768	-0.004	2.0	GoodResponse	0	0.234	n/a	0	1	ButtonPress	AvoidedLoss	True
24.979	0.31	Lose2	1.0	n/a	Yes	2.768	n/a	n/a	GoodResponse	0	n/a	n/a	0	1	Blank	AvoidedLoss	True
25.28	1.45	Lose2	1.0	n/a	Yes	2.768	n/a	5.0	GoodResponse	0	0.012	24.292	0	1	Feedback	AvoidedLoss	True
26.734	2.768	Lose2	1.0	n/a	Yes	2.768	n/a	n/a	GoodResponse	0	0.0	n/a	0	1	ISIslide	AvoidedLoss	True
29.526	0.25	Control	0.6667000000000001	0.0	No	2.574	0.026	n/a	NoResponse	0	n/a	n/a	0	2	Cue	Neutral	True
29.777	4.1	Control	0.6667000000000001	0.0	No	2.574	0.001	n/a	NoResponse	0	n/a	n/a	0	2	Fixation	Neutral	True
33.872	0.38	Control	0.6667000000000001	0.004	No	2.574	-0.004	2.0	NoResponse	0	0.424	33.296	0	2	Target	Neutral	True
34.257	0.32	Control	0.6667000000000001	n/a	No	2.574	n/a	n/a	NoResponse	0	n/a	n/a	0	2	Blank	Neutral	True
34.296	0.3	Control	0.6667000000000001	0.004	No	2.574	-0.004	2.0	NoResponse	0	0.424	n/a	0	2	ButtonPress	Neutral	True
34.575	1.45	Control	0.6667000000000001	n/a	No	2.574	n/a	5.0	NoResponse	0	0.034	33.609	0	2	Feedback	Neutral	True
36.029	2.574	Control	0.6667000000000001	n/a	No	2.574	n/a	n/a	NoResponse	0	0.0	n/a	0	2	ISIslide	Neutral	True
38.62	0.25	Win2	0.75	0.0	Yes	2.83	0.02	n/a	GoodResponse	1	n/a	n/a	1	3	Cue	Win	True
38.871	3.95	Win2	0.75	0.0	Yes	2.83	0.001	n/a	GoodResponse	1	n/a	n/a	1	3	Fixation	Win	True
42.816	0.37	Win2	0.75	0.004	Yes	2.83	-0.004	2.0	GoodResponse	1	0.299	42.115	1	3	Target	Win	True
43.115	0.3	Win2	0.75	0.004	Yes	2.83	-0.004	2.0	GoodResponse	1	0.299	n/a	1	3	ButtonPress	Win	True
43.2	0.33	Win2	0.75	n/a	Yes	2.83	n/a	n/a	GoodResponse	1	n/a	n/a	1	3	Blank	Win	True
43.518	1.45	Win2	0.75	n/a	Yes	2.83	n/a	5.0	GoodResponse	1	0.018	42.536	1	3	Feedback	Win	True
44.972	2.83	Win2	0.75	n/a	Yes	2.83	n/a	n/a	GoodResponse	1	0.0	n/a	1	3	ISIslide	Win	True
47.831	0.25	Win2	0.8	0.0	Yes	3.269	0.031	n/a	GoodResponse	1	n/a	n/a	2	4	Cue	Win	True
48.082	4.0	Win2	0.8	0.0	Yes	3.269	0.001	n/a	GoodResponse	1	n/a	n/a	2	4	Fixation	Win	True
52.077	0.36	Win2	0.8	0.004	Yes	3.269	-0.004	2.0	GoodResponse	1	0.257	51.334	2	4	Target	Win	True
52.334	0.3	Win2	0.8	0.004	Yes	3.269	-0.004	2.0	GoodResponse	1	0.257	n/a	2	4	ButtonPress	Win	True
52.445	0.34	Win2	0.8	n/a	Yes	3.269	n/a	n/a	GoodResponse	1	n/a	n/a	2	4	Blank	Win	True
52.779	1.45	Win2	0.8	n/a	Yes	3.269	n/a	5.0	GoodResponse	1	0.026	51.805	2	4	Feedback	Win	True
54.233	3.269	Win2	0.8	n/a	Yes	3.269	n/a	n/a	GoodResponse	1	0.0	n/a	2	4	ISIslide	Win	True
57.527	0.25	Win2	0.8332999999999999	0.0	Yes	2.773	0.027	n/a	GoodResponse	1	n/a	n/a	3	5	Cue	Win	True
57.777	4.0	Win2	0.8332999999999999	0.0	Yes	2.773	0.0	n/a	GoodResponse	1	n/a	n/a	3	5	Fixation	Win	True
61.773	0.35	Win2	0.8332999999999999	0.004	Yes	2.773	-0.004	2.0	GoodResponse	1	0.24	61.013	3	5	Target	Win	True
62.013	0.3	Win2	0.8332999999999999	0.004	Yes	2.773	-0.004	2.0	GoodResponse	1	0.24	n/a	3	5	ButtonPress	Win	True
62.124	0.35	Win2	0.8332999999999999	n/a	Yes	2.773	n/a	n/a	GoodResponse	1	n/a	n/a	3	5	Blank	Win	True
62.475	1.45	Win2	0.8332999999999999	n/a	Yes	2.773	n/a	5.0	GoodResponse	1	0.036	61.511	3	5	Feedback	Win	True
63.929	2.773	Win2	0.8332999999999999	n/a	Yes	2.773	n/a	n/a	GoodResponse	1	0.0	n/a	3	5	ISIslide	Win	True
66.721	0.25	Lose2	0.8571	0.0	Yes	2.729	0.021	n/a	GoodResponse	0	n/a	n/a	3	6	Cue	AvoidedLoss	True
66.971	3.95	Lose2	0.8571	0.001	Yes	2.729	0.0	n/a	GoodResponse	0	n/a	n/a	3	6	Fixation	AvoidedLoss	True
70.917	0.34	Lose2	0.8571	0.004	Yes	2.729	-0.004	2.0	GoodResponse	0	0.281	70.198	3	6	Target	AvoidedLoss	True
71.198	0.3	Lose2	0.8571	0.004	Yes	2.729	-0.004	2.0	GoodResponse	0	0.281	n/a	3	6	ButtonPress	AvoidedLoss	True
71.268	0.36	Lose2	0.8571	n/a	Yes	2.729	n/a	n/a	GoodResponse	0	n/a	n/a	3	6	Blank	AvoidedLoss	True
71.619	1.45	Lose2	0.8571	n/a	Yes	2.729	n/a	5.0	GoodResponse	0	0.014	70.633	3	6	Feedback	AvoidedLoss	True
73.073	2.729	Lose2	0.8571	n/a	Yes	2.729	n/a	n/a	GoodResponse	0	0.0	n/a	3	6	ISIslide	AvoidedLoss	True
75.831	0.25	Lose2	0.875	0.0	Yes	4.019	0.031	n/a	GoodResponse	0	n/a	n/a	3	7	Cue	AvoidedLoss	True
76.082	4.05	Lose2	0.875	0.0	Yes	4.019	0.001	n/a	GoodResponse	0	n/a	n/a	3	7	Fixation	AvoidedLoss	True
80.128	0.33	Lose2	0.875	0.003	Yes	4.019	-0.003	2.0	GoodResponse	0	0.222	79.35	3	7	Target	AvoidedLoss	True
80.35	0.3	Lose2	0.875	0.003	Yes	4.019	-0.003	2.0	GoodResponse	0	0.222	n/a	3	7	ButtonPress	AvoidedLoss	True
80.462	0.37	Lose2	0.875	n/a	Yes	4.019	n/a	n/a	GoodResponse	0	n/a	n/a	3	7	Blank	AvoidedLoss	True
80.83	1.45	Lose2	0.875	n/a	Yes	4.019	n/a	5.0	GoodResponse	0	0.023	79.853	3	7	Feedback	AvoidedLoss	True
82.284	4.019	Lose2	0.875	n/a	Yes	4.019	n/a	n/a	GoodResponse	0	0.0	n/a	3	7	ISIslide	AvoidedLoss	True
86.329	0.25	Lose2	0.8889	0.001	Yes	3.021	0.029	n/a	GoodResponse	0	n/a	n/a	3	8	Cue	AvoidedLoss	True
86.58	3.95	Lose2	0.8889	0.0	Yes	3.021	0.001	n/a	GoodResponse	0	n/a	n/a	3	8	Fixation	AvoidedLoss	True
90.525	0.32	Lose2	0.8889	0.004	Yes	3.021	-0.004	2.0	GoodResponse	0	0.235	89.76	3	8	Target	AvoidedLoss	True
90.76	0.3	Lose2	0.8889	0.004	Yes	3.021	-0.004	2.0	GoodResponse	0	0.235	n/a	3	8	ButtonPress	AvoidedLoss	True
90.86	0.38	Lose2	0.8889	n/a	Yes	3.021	n/a	n/a	GoodResponse	0	n/a	n/a	3	8	Blank	AvoidedLoss	True
91.227	1.45	Lose2	0.8889	n/a	Yes	3.021	n/a	5.0	GoodResponse	0	0.016	90.243	3	8	Feedback	AvoidedLoss	True
92.682	3.021	Lose2	0.8889	n/a	Yes	3.021	n/a	n/a	GoodResponse	0	0.0	n/a	3	8	ISIslide	AvoidedLoss	True
95.724	0.25	Lose2	0.9	0.0	Yes	3.126	0.024	n/a	GoodResponse	0	n/a	n/a	3	9	Cue	AvoidedLoss	True
95.975	3.95	Lose2	0.9	0.0	Yes	3.126	0.001	n/a	GoodResponse	0	n/a	n/a	3	9	Fixation	AvoidedLoss	True
99.92	0.31	Lose2	0.9	0.004	Yes	3.126	-0.004	2.0	GoodResponse	0	0.205	99.125	3	9	Target	AvoidedLoss	True
100.125	0.3	Lose2	0.9	0.004	Yes	3.126	-0.004	2.0	GoodResponse	0	0.205	n/a	3	9	ButtonPress	AvoidedLoss	True
100.238	0.39	Lose2	0.9	n/a	Yes	3.126	n/a	n/a	GoodResponse	0	n/a	n/a	3	9	Blank	AvoidedLoss	True
100.622	1.45	Lose2	0.9	n/a	Yes	3.126	n/a	5.0	GoodResponse	0	0.036	99.658	3	9	Feedback	AvoidedLoss	True
102.077	3.126	Lose2	0.9	n/a	Yes	3.126	n/a	n/a	GoodResponse	0	0.0	n/a	3	9	ISIslide	AvoidedLoss	True
105.219	0.25	Control	0.8181999999999999	0.0	No	3.281	0.019	n/a	NoResponse	0	n/a	n/a	3	10	Cue	Neutral	True
105.47	4.0	Control	0.8181999999999999	0.0	No	3.281	0.001	n/a	NoResponse	0	n/a	n/a	3	10	Fixation	Neutral	True
109.465	0.3	Control	0.8181999999999999	0.004	No	3.281	-0.004	2.0	NoResponse	0	0.321	108.786	3	10	Target	Neutral	True
109.766	0.4	Control	0.8181999999999999	n/a	No	3.281	n/a	n/a	NoResponse	0	n/a	n/a	3	10	Blank	Neutral	True
109.786	0.3	Control	0.8181999999999999	0.004	No	3.281	-0.004	2.0	NoResponse	0	0.321	n/a	3	10	ButtonPress	Neutral	True
110.167	1.45	Control	0.8181999999999999	n/a	No	3.281	n/a	5.0	NoResponse	0	0.006	109.173	3	10	Feedback	Neutral	True
111.622	3.281	Control	0.8181999999999999	n/a	No	3.281	n/a	n/a	NoResponse	0	0.0	n/a	3	10	ISIslide	Neutral	True
114.915	0.25	Lose2	0.8332999999999999	0.0	Yes	2.735	0.015	n/a	GoodResponse	0	n/a	n/a	3	11	Cue	AvoidedLoss	True
115.166	4.05	Lose2	0.8332999999999999	0.0	Yes	2.735	0.001	n/a	GoodResponse	0	n/a	n/a	3	11	Fixation	AvoidedLoss	True
119.211	0.29	Lose2	0.8332999999999999	0.004	Yes	2.735	-0.004	2.0	GoodResponse	0	0.192	118.403	3	11	Target	AvoidedLoss	True
119.403	0.3	Lose2	0.8332999999999999	0.004	Yes	2.735	-0.004	2.0	GoodResponse	0	0.192	n/a	3	11	ButtonPress	AvoidedLoss	True
119.512	0.41	Lose2	0.8332999999999999	n/a	Yes	2.735	n/a	n/a	GoodResponse	0	n/a	n/a	3	11	Blank	AvoidedLoss	True
119.913	1.45	Lose2	0.8332999999999999	n/a	Yes	2.735	n/a	5.0	GoodResponse	0	0.012	118.925	3	11	Feedback	AvoidedLoss	True
121.368	2.735	Lose2	0.8332999999999999	n/a	Yes	2.735	n/a	n/a	GoodResponse	0	0.0	n/a	3	11	ISIslide	AvoidedLoss	True
124.126	0.25	Control	0.7692	0.0	No	2.974	0.026	n/a	NoResponse	0	n/a	n/a	3	12	Cue	Neutral	True
124.377	3.9	Control	0.7692	0.0	No	2.974	0.001	n/a	NoResponse	0	n/a	n/a	3	12	Fixation	Neutral	True
128.272	0.28	Control	0.7692	0.004	No	2.974	-0.004	2.0	NoResponse	0	0.397	127.669	3	12	Target	Neutral	True
128.556	0.42	Control	0.7692	n/a	No	2.974	n/a	n/a	NoResponse	0	n/a	n/a	3	12	Blank	Neutral	True
128.669	0.3	Control	0.7692	0.004	No	2.974	-0.004	2.0	NoResponse	0	0.397	n/a	3	12	ButtonPress	Neutral	True
128.974	1.45	Control	0.7692	n/a	No	2.974	n/a	5.0	NoResponse	0	0.025	127.999	3	12	Feedback	Neutral	True
130.428	2.974	Control	0.7692	n/a	No	2.974	n/a	n/a	NoResponse	0	0.0	n/a	3	12	ISIslide	Neutral	True
133.42	0.25	Control	0.7857	0.0	Yes	2.78	0.02	n/a	GoodResponse	0	n/a	n/a	3	13	Cue	Neutral	True
133.671	4.0	Control	0.7857	0.0	Yes	2.78	0.001	n/a	GoodResponse	0	n/a	n/a	3	13	Fixation	Neutral	True
137.666	0.27	Control	0.7857	0.004	Yes	2.78	-0.004	2.0	GoodResponse	0	0.185	136.851	3	13	Target	Neutral	True
137.851	0.3	Control	0.7857	0.004	Yes	2.78	-0.004	2.0	GoodResponse	0	0.185	n/a	3	13	ButtonPress	Neutral	True
137.951	0.43	Control	0.7857	n/a	Yes	2.78	n/a	n/a	GoodResponse	0	n/a	n/a	3	13	Blank	Neutral	True
138.369	1.45	Control	0.7857	n/a	Yes	2.78	n/a	5.0	GoodResponse	0	0.044	137.413	3	13	Feedback	Neutral	True
139.823	2.78	Control	0.7857	n/a	Yes	2.78	n/a	n/a	GoodResponse	0	0.0	n/a	3	13	ISIslide	Neutral	True
142.631	0.25	Win2	0.8	0.0	Yes	2.669	0.031	n/a	GoodResponse	1	n/a	n/a	4	14	Cue	Win	True
142.882	4.1	Win2	0.8	0.0	Yes	2.669	0.001	n/a	GoodResponse	1	n/a	n/a	4	14	Fixation	Win	True
146.978	0.26	Win2	0.8	0.003	Yes	2.669	-0.003	2.0	GoodResponse	1	0.21	146.188	4	14	Target	Win	True
147.188	0.3	Win2	0.8	0.003	Yes	2.669	-0.003	2.0	GoodResponse	1	0.21	n/a	4	14	ButtonPress	Win	True
147.245	0.44	Win2	0.8	n/a	Yes	2.669	n/a	n/a	GoodResponse	1	n/a	n/a	4	14	Blank	Win	True
147.68	1.45	Win2	0.8	n/a	Yes	2.669	n/a	5.0	GoodResponse	1	0.007	146.687	4	14	Feedback	Win	True
149.134	2.669	Win2	0.8	n/a	Yes	2.669	n/a	n/a	GoodResponse	1	0.0	n/a	4	14	ISIslide	Win	True
151.825	0.25	Control	0.75	0.001	No	2.975	0.025	n/a	NoResponse	0	n/a	n/a	4	15	Cue	Neutral	True
152.076	4.0	Control	0.75	0.0	No	2.975	0.001	n/a	NoResponse	0	n/a	n/a	4	15	Fixation	Neutral	True
156.072	0.25	Control	0.75	0.003	No	2.975	-0.003	2.0	NoResponse	0	0.299	155.371	4	15	Target	Neutral	True
156.322	0.45	Control	0.75	n/a	No	2.975	n/a	n/a	NoResponse	0	n/a	n/a	4	15	Blank	Neutral	True
156.371	0.3	Control	0.75	0.003	No	2.975	-0.003	2.0	NoResponse	0	0.299	n/a	4	15	ButtonPress	Neutral	True
156.774	1.45	Control	0.75	n/a	No	2.975	n/a	5.0	NoResponse	0	0.03	155.804	4	15	Feedback	Neutral	True
158.228	2.975	Control	0.75	n/a	No	2.975	n/a	n/a	NoResponse	0	0.0	n/a	4	15	ISIslide	Neutral	True
161.22	0.25	Win2	0.7646999999999999	0.0	Yes	2.88	0.02	n/a	GoodResponse	1	n/a	n/a	5	16	Cue	Win	True
161.471	4.0	Win2	0.7646999999999999	0.0	Yes	2.88	0.001	n/a	GoodResponse	1	n/a	n/a	5	16	Fixation	Win	True
165.466	0.24	Win2	0.7646999999999999	0.004	Yes	2.88	-0.004	2.0	GoodResponse	1	0.238	164.704	5	16	Target	Win	True
165.704	0.3	Win2	0.7646999999999999	0.004	Yes	2.88	-0.004	2.0	GoodResponse	1	0.238	n/a	5	16	ButtonPress	Win	True
165.717	0.46	Win2	0.7646999999999999	n/a	Yes	2.88	n/a	n/a	GoodResponse	1	n/a	n/a	5	16	Blank	Win	True
166.168	1.45	Win2	0.7646999999999999	n/a	Yes	2.88	n/a	5.0	GoodResponse	1	0.001	165.169	5	16	Feedback	Win	True
167.623	2.88	Win2	0.7646999999999999	n/a	Yes	2.88	n/a	n/a	GoodResponse	1	0.0	n/a	5	16	ISIslide	Win	True
170.515	0.25	Lose2	0.7778	0.0	Yes	2.735	0.015	n/a	GoodResponse	0	n/a	n/a	5	17	Cue	AvoidedLoss	True
170.766	3.95	Lose2	0.7778	0.0	Yes	2.735	0.001	n/a	GoodResponse	0	n/a	n/a	5	17	Fixation	AvoidedLoss	True
174.711	0.23	Lose2	0.7778	0.004	Yes	2.735	-0.004	2.0	GoodResponse	0	0.189	173.9	5	17	Target	AvoidedLoss	True
174.9	0.3	Lose2	0.7778	0.004	Yes	2.735	-0.004	2.0	GoodResponse	0	0.189	n/a	5	17	ButtonPress	AvoidedLoss	True
174.945	0.47	Lose2	0.7778	n/a	Yes	2.735	n/a	n/a	GoodResponse	0	n/a	n/a	5	17	Blank	AvoidedLoss	True
175.413	1.45	Lose2	0.7778	n/a	Yes	2.735	n/a	5.0	GoodResponse	0	0.024	174.437	5	17	Feedback	AvoidedLoss	True
176.867	2.735	Lose2	0.7778	n/a	Yes	2.735	n/a	n/a	GoodResponse	0	0.0	n/a	5	17	ISIslide	AvoidedLoss	True
179.625	0.25	Lose2	0.7895	0.0	Yes	2.725	0.025	n/a	GoodResponse	0	n/a	n/a	5	18	Cue	AvoidedLoss	True
179.876	4.05	Lose2	0.7895	0.0	Yes	2.725	0.001	n/a	GoodResponse	0	n/a	n/a	5	18	Fixation	AvoidedLoss	True
183.922	0.22	Lose2	0.7895	0.003	Yes	2.725	-0.003	2.0	GoodResponse	0	0.174	183.096	5	18	Target	AvoidedLoss	True
184.096	0.3	Lose2	0.7895	0.003	Yes	2.725	-0.003	2.0	GoodResponse	0	0.174	n/a	5	18	ButtonPress	AvoidedLoss	True
184.156	0.48	Lose2	0.7895	n/a	Yes	2.725	n/a	n/a	GoodResponse	0	n/a	n/a	5	18	Blank	AvoidedLoss	True
184.624	1.45	Lose2	0.7895	n/a	Yes	2.725	n/a	5.0	GoodResponse	0	0.033	183.657	5	18	Feedback	AvoidedLoss	True
186.078	2.725	Lose2	0.7895	n/a	Yes	2.725	n/a	n/a	GoodResponse	0	0.0	n/a	5	18	ISIslide	AvoidedLoss	True
188.82	0.25	Control	0.75	0.0	No	2.93	0.02	n/a	NoResponse	0	n/a	n/a	5	19	Cue	Neutral	True
189.07	3.95	Control	0.75	0.0	No	2.93	0.0	n/a	NoResponse	0	n/a	n/a	5	19	Fixation	Neutral	True
193.032	0.21	Control	0.75	0.0	No	2.93	0.012	2.0	NoResponse	0	0.289	192.321	5	19	Target	Neutral	True
193.233	0.49	Control	0.75	n/a	No	2.93	n/a	n/a	NoResponse	0	n/a	n/a	5	19	Blank	Neutral	True
193.321	0.3	Control	0.75	0.0	No	2.93	0.012	2.0	NoResponse	0	0.289	n/a	5	19	ButtonPress	Neutral	True
193.718	1.45	Control	0.75	n/a	No	2.93	n/a	5.0	NoResponse	0	0.012	192.73	5	19	Feedback	Neutral	True
195.172	2.93	Control	0.75	n/a	No	2.93	n/a	n/a	NoResponse	0	0.0	n/a	5	19	ISIslide	Neutral	True
198.131	0.25	Control	0.7143	0.0	No	2.619	0.031	n/a	NoResponse	0	n/a	n/a	5	20	Cue	Neutral	False
198.382	4.05	Control	0.7143	0.0	No	2.619	0.001	2.0	NoResponse	0	3.511	200.893	5	20	Fixation	Neutral	False
201.893	0.3	Control	0.7143	0.0	No	2.619	0.001	2.0	NoResponse	0	3.511	n/a	5	20	ButtonPress	Neutral	False
202.427	0.2	Control	0.7143	0.004	No	2.619	-0.004	2.0	NoResponse	0	0.212	201.639	5	20	Target	Neutral	False
202.628	0.5	Control	0.7143	n/a	No	2.619	n/a	n/a	NoResponse	0	n/a	n/a	5	20	Blank	Neutral	False
202.639	0.3	Control	0.7143	0.004	No	2.619	-0.004	2.0	NoResponse	0	0.212	n/a	5	20	ButtonPress	Neutral	False
203.129	1.45	Control	0.7143	n/a	No	2.619	n/a	5.0	NoResponse	0	0.016	202.145	5	20	Feedback	Neutral	False
204.583	2.619	Control	0.7143	n/a	No	2.619	n/a	n/a	NoResponse	0	0.0	n/a	5	20	ISIslide	Neutral	False
207.225	0.25	Control	0.6818000000000001	0.0	No	2.775	0.025	n/a	NoResponse	0	n/a	n/a	5	21	Cue	Neutral	True
207.475	4.1	Control	0.6818000000000001	0.0	No	2.775	0.0	n/a	NoResponse	0	n/a	n/a	5	21	Fixation	Neutral	True
211.571	0.19	Control	0.6818000000000001	0.004	No	2.775	-0.004	2.0	NoResponse	0	0.265	210.836	5	21	Target	Neutral	True
211.772	0.51	Control	0.6818000000000001	n/a	No	2.775	n/a	n/a	NoResponse	0	n/a	n/a	5	21	Blank	Neutral	True
211.836	0.3	Control	0.6818000000000001	0.004	No	2.775	-0.004	2.0	NoResponse	0	0.265	n/a	5	21	ButtonPress	Neutral	True
212.273	1.45	Control	0.6818000000000001	n/a	No	2.775	n/a	5.0	NoResponse	0	0.042	211.315	5	21	Feedback	Neutral	True
213.727	2.775	Control	0.6818000000000001	n/a	No	2.775	n/a	n/a	NoResponse	0	0.0	n/a	5	21	ISIslide	Neutral	True
216.519	0.25	Control	0.6522	0.0	No	2.781	0.019	n/a	NoResponse	0	n/a	n/a	5	22	Cue	Neutral	True
216.77	4.0	Control	0.6522	0.0	No	2.781	0.001	n/a	NoResponse	0	n/a	n/a	5	22	Fixation	Neutral	True
220.765	0.18	Control	0.6522	0.004	No	2.781	-0.004	2.0	NoResponse	0	0.244	220.009	5	22	Target	Neutral	True
220.949	0.52	Control	0.6522	n/a	No	2.781	n/a	n/a	NoResponse	0	n/a	n/a	5	22	Blank	Neutral	True
221.009	0.3	Control	0.6522	0.004	No	2.781	-0.004	2.0	NoResponse	0	0.244	n/a	5	22	ButtonPress	Neutral	True
221.467	1.45	Control	0.6522	n/a	No	2.781	n/a	5.0	NoResponse	0	0.018	220.485	5	22	Feedback	Neutral	True
222.922	2.781	Control	0.6522	n/a	No	2.781	n/a	n/a	NoResponse	0	0.0	n/a	5	22	ISIslide	Neutral	True
225.73	0.25	Control	0.625	0.0	No	2.77	0.03	n/a	LatePress	0	n/a	n/a	5	23	Cue	Neutral	True
225.981	3.9	Control	0.625	0.0	No	2.77	0.001	n/a	LatePress	0	n/a	n/a	5	23	Fixation	Neutral	True
229.876	0.19	Control	0.625	0.004	No	2.77	-0.004	2.0	LatePress	0	0.2	229.076	5	23	Target	Neutral	True
230.076	0.51	Control	0.625	n/a	No	2.77	n/a	n/a	LatePress	0	n/a	n/a	5	23	Blank	Neutral	True
230.076	0.3	Control	0.625	0.004	No	2.77	-0.004	2.0	LatePress	0	0.2	n/a	5	23	ButtonPress	Neutral	True
230.578	1.45	Control	0.625	n/a	No	2.77	n/a	5.0	LatePress	0	0.029	229.607	5	23	Feedback	Neutral	True
232.032	2.77	Control	0.625	n/a	No	2.77	n/a	n/a	LatePress	0	0.0	n/a	5	23	ISIslide	Neutral	True
234.824	0.25	Win2	0.6	0.0	No	3.126	0.024	n/a	LatePress	0	n/a	n/a	5	24	Cue	MissedWin	True
235.075	3.95	Win2	0.6	0.0	No	3.126	0.001	n/a	LatePress	0	n/a	n/a	5	24	Fixation	MissedWin	True
239.02	0.2	Win2	0.6	0.004	No	3.126	-0.004	2.0	LatePress	0	0.201	238.221	5	24	Target	MissedWin	True
239.22	0.5	Win2	0.6	n/a	No	3.126	n/a	n/a	LatePress	0	n/a	n/a	5	24	Blank	MissedWin	True
239.221	0.3	Win2	0.6	0.004	No	3.126	-0.004	2.0	LatePress	0	0.201	n/a	5	24	ButtonPress	MissedWin	True
239.722	1.45	Win2	0.6	n/a	No	3.126	n/a	5.0	LatePress	0	0.008	238.73	5	24	Feedback	MissedWin	True
241.176	3.126	Win2	0.6	n/a	No	3.126	n/a	n/a	LatePress	0	0.0	n/a	5	24	ISIslide	MissedWin	True
244.319	0.25	Win2	0.6154	0.0	Yes	3.081	0.019	n/a	GoodResponse	1	n/a	n/a	6	25	Cue	Win	True
244.57	4.0	Win2	0.6154	0.0	Yes	3.081	0.001	n/a	GoodResponse	1	n/a	n/a	6	25	Fixation	Win	True
248.565	0.21	Win2	0.6154	0.004	Yes	3.081	-0.004	2.0	GoodResponse	1	0.195	247.76	6	25	Target	Win	True
248.76	0.3	Win2	0.6154	0.004	Yes	3.081	-0.004	2.0	GoodResponse	1	0.195	n/a	6	25	ButtonPress	Win	True
248.782	0.49	Win2	0.6154	n/a	Yes	3.081	n/a	n/a	GoodResponse	1	n/a	n/a	6	25	Blank	Win	True
249.267	1.45	Win2	0.6154	n/a	Yes	3.081	n/a	5.0	GoodResponse	1	0.024	248.291	6	25	Feedback	Win	True
250.721	3.081	Win2	0.6154	n/a	Yes	3.081	n/a	n/a	GoodResponse	1	0.0	n/a	6	25	ISIslide	Win	True
253.831	0.25	Win2	0.5926	0.0	No	2.919	0.031	n/a	NoResponse	0	n/a	n/a	6	26	Cue	MissedWin	True
254.082	3.95	Win2	0.5926	0.0	No	2.919	0.001	n/a	NoResponse	0	n/a	n/a	6	26	Fixation	MissedWin	True
258.027	0.22	Win2	0.5926	0.004	No	2.919	-0.004	2.0	NoResponse	0	0.241	257.268	6	26	Target	MissedWin	True
258.261	0.48	Win2	0.5926	n/a	No	2.919	n/a	n/a	NoResponse	0	n/a	n/a	6	26	Blank	MissedWin	True
258.268	0.3	Win2	0.5926	0.004	No	2.919	-0.004	2.0	NoResponse	0	0.241	n/a	6	26	ButtonPress	MissedWin	True
258.729	1.45	Win2	0.5926	n/a	No	2.919	n/a	5.0	NoResponse	0	0.025	257.754	6	26	Feedback	MissedWin	True
260.183	2.919	Win2	0.5926	n/a	No	2.919	n/a	n/a	NoResponse	0	0.0	n/a	6	26	ISIslide	MissedWin	True
263.125	0.25	Lose2	0.6071	0.0	Yes	2.825	0.025	n/a	GoodResponse	0	n/a	n/a	6	27	Cue	AvoidedLoss	True
263.376	4.05	Lose2	0.6071	0.0	Yes	2.825	0.001	n/a	GoodResponse	0	n/a	n/a	6	27	Fixation	AvoidedLoss	True
267.421	0.23	Lose2	0.6071	0.004	Yes	2.825	-0.004	2.0	GoodResponse	0	0.207	266.628	6	27	Target	AvoidedLoss	True
267.628	0.3	Lose2	0.6071	0.004	Yes	2.825	-0.004	2.0	GoodResponse	0	0.207	n/a	6	27	ButtonPress	AvoidedLoss	True
267.656	0.47	Lose2	0.6071	n/a	Yes	2.825	n/a	n/a	GoodResponse	0	n/a	n/a	6	27	Blank	AvoidedLoss	True
268.124	1.45	Lose2	0.6071	n/a	Yes	2.825	n/a	5.0	GoodResponse	0	0.044	267.168	6	27	Feedback	AvoidedLoss	True
269.578	2.825	Lose2	0.6071	n/a	Yes	2.825	n/a	n/a	GoodResponse	0	0.0	n/a	6	27	ISIslide	AvoidedLoss	True
272.42	0.25	Control	0.5861999999999999	0.0	No	2.83	0.02	n/a	NoResponse	0	n/a	n/a	6	28	Cue	Neutral	True
272.671	4.05	Control	0.5861999999999999	0.0	No	2.83	0.001	n/a	NoResponse	0	n/a	n/a	6	28	Fixation	Neutral	True
276.716	0.24	Control	0.5861999999999999	0.004	No	2.83	-0.004	2.0	NoResponse	0	0.309	276.025	6	28	Target	Neutral	True
276.967	0.46	Control	0.5861999999999999	n/a	No	2.83	n/a	n/a	NoResponse	0	n/a	n/a	6	28	Blank	Neutral	True
277.025	0.3	Control	0.5861999999999999	0.004	No	2.83	-0.004	2.0	NoResponse	0	0.309	n/a	6	28	ButtonPress	Neutral	True
277.418	1.45	Control	0.5861999999999999	n/a	No	2.83	n/a	5.0	NoResponse	0	0.018	276.436	6	28	Feedback	Neutral	True
278.872	2.83	Control	0.5861999999999999	n/a	No	2.83	n/a	n/a	NoResponse	0	0.0	n/a	6	28	ISIslide	Neutral	True
281.731	0.25	Lose2	0.6	0.0	Yes	2.819	0.031	n/a	GoodResponse	0	n/a	n/a	6	29	Cue	AvoidedLoss	True
281.982	3.95	Lose2	0.6	0.0	Yes	2.819	0.001	n/a	GoodResponse	0	n/a	n/a	6	29	Fixation	AvoidedLoss	True
285.927	0.25	Lose2	0.6	0.004	Yes	2.819	-0.004	2.0	GoodResponse	0	0.206	285.133	6	29	Target	AvoidedLoss	True
286.133	0.3	Lose2	0.6	0.004	Yes	2.819	-0.004	2.0	GoodResponse	0	0.206	n/a	6	29	ButtonPress	AvoidedLoss	True
286.178	0.45	Lose2	0.6	n/a	Yes	2.819	n/a	n/a	GoodResponse	0	n/a	n/a	6	29	Blank	AvoidedLoss	True
286.629	1.45	Lose2	0.6	n/a	Yes	2.819	n/a	5.0	GoodResponse	0	0.027	285.656	6	29	Feedback	AvoidedLoss	True
288.083	2.819	Lose2	0.6	n/a	Yes	2.819	n/a	n/a	GoodResponse	0	0.0	n/a	6	29	ISIslide	AvoidedLoss	True
290.925	0.25	Win2	0.6129	0.0	Yes	2.775	0.025	n/a	GoodResponse	1	n/a	n/a	7	30	Cue	Win	True
291.176	3.9	Win2	0.6129	0.0	Yes	2.775	0.001	n/a	GoodResponse	1	n/a	n/a	7	30	Fixation	Win	True
295.071	0.26	Win2	0.6129	0.004	Yes	2.775	-0.004	2.0	GoodResponse	1	0.209	294.28	7	30	Target	Win	True
295.28	0.3	Win2	0.6129	0.004	Yes	2.775	-0.004	2.0	GoodResponse	1	0.209	n/a	7	30	ButtonPress	Win	True
295.338	0.44	Win2	0.6129	n/a	Yes	2.775	n/a	n/a	GoodResponse	1	n/a	n/a	7	30	Blank	Win	True
295.773	1.45	Win2	0.6129	n/a	Yes	2.775	n/a	5.0	GoodResponse	1	0.008	294.781	7	30	Feedback	Win	True
297.227	2.775	Win2	0.6129	n/a	Yes	2.775	n/a	n/a	GoodResponse	1	0.0	n/a	7	30	ISIslide	Win	True
300.019	0.25	Lose2	0.625	0.0	Yes	2.831	0.019	n/a	GoodResponse	0	n/a	n/a	7	31	Cue	AvoidedLoss	True
300.27	4.05	Lose2	0.625	0.0	Yes	2.831	0.001	n/a	GoodResponse	0	n/a	n/a	7	31	Fixation	AvoidedLoss	True
304.315	0.27	Lose2	0.625	0.004	Yes	2.831	-0.004	2.0	GoodResponse	0	0.217	303.532	7	31	Target	AvoidedLoss	True
304.532	0.3	Lose2	0.625	0.004	Yes	2.831	-0.004	2.0	GoodResponse	0	0.217	n/a	7	31	ButtonPress	AvoidedLoss	True
304.599	0.43	Lose2	0.625	n/a	Yes	2.831	n/a	n/a	GoodResponse	0	n/a	n/a	7	31	Blank	AvoidedLoss	True
305.017	1.45	Lose2	0.625	n/a	Yes	2.831	n/a	5.0	GoodResponse	0	0.029	304.046	7	31	Feedback	AvoidedLoss	True
306.472	2.831	Lose2	0.625	n/a	Yes	2.831	n/a	n/a	GoodResponse	0	0.0	n/a	7	31	ISIslide	AvoidedLoss	True
309.33	0.25	Lose2	0.6061	0.0	No	2.62	0.03	n/a	NoResponse	-1	n/a	n/a	6	32	Cue	Loss	False
309.581	4.15	Lose2	0.6061	0.0	No	2.62	0.001	n/a	NoResponse	-1	n/a	n/a	6	32	Fixation	Loss	False
313.727	0.28	Lose2	0.6061	0.003	No	2.62	-0.003	n/a	NoResponse	-1	n/a	n/a	6	32	Target	Loss	False
314.011	0.42	Lose2	0.6061	n/a	No	2.62	n/a	n/a	NoResponse	-1	n/a	n/a	6	32	Blank	Loss	False
314.429	1.45	Lose2	0.6061	n/a	No	2.62	n/a	5.0	NoResponse	-1	0.031	313.46	6	32	Feedback	Loss	False
315.883	2.62	Lose2	0.6061	n/a	No	2.62	n/a	n/a	NoResponse	-1	0.0	n/a	6	32	ISIslide	Loss	False
318.524	0.25	Win2	0.6175999999999999	0.001	Yes	2.676	0.024	n/a	GoodResponse	1	n/a	n/a	7	33	Cue	Win	True
318.775	4.0	Win2	0.6175999999999999	0.0	Yes	2.676	0.001	n/a	GoodResponse	1	n/a	n/a	7	33	Fixation	Win	True
322.771	0.29	Win2	0.6175999999999999	0.003	Yes	2.676	-0.003	2.0	GoodResponse	1	0.19	321.961	7	33	Target	Win	True
322.961	0.3	Win2	0.6175999999999999	0.003	Yes	2.676	-0.003	2.0	GoodResponse	1	0.19	n/a	7	33	ButtonPress	Win	True
323.071	0.41	Win2	0.6175999999999999	n/a	Yes	2.676	n/a	n/a	GoodResponse	1	n/a	n/a	7	33	Blank	Win	True
323.473	1.45	Win2	0.6175999999999999	n/a	Yes	2.676	n/a	5.0	GoodResponse	1	0.011	322.484	7	33	Feedback	Win	True
324.927	2.676	Win2	0.6175999999999999	n/a	Yes	2.676	n/a	n/a	GoodResponse	1	0.0	n/a	7	33	ISIslide	Win	True
327.618	0.25	Lose2	0.6286	0.0	Yes	2.632	0.018	n/a	GoodResponse	0	n/a	n/a	7	34	Cue	AvoidedLoss	True
327.869	4.05	Lose2	0.6286	0.0	Yes	2.632	0.001	n/a	GoodResponse	0	n/a	n/a	7	34	Fixation	AvoidedLoss	True
331.915	0.3	Lose2	0.6286	0.003	Yes	2.632	-0.003	2.0	GoodResponse	0	0.236	331.151	7	34	Target	AvoidedLoss	True
332.151	0.3	Lose2	0.6286	0.003	Yes	2.632	-0.003	2.0	GoodResponse	0	0.236	n/a	7	34	ButtonPress	AvoidedLoss	True
332.215	0.4	Lose2	0.6286	n/a	Yes	2.632	n/a	n/a	GoodResponse	0	n/a	n/a	7	34	Blank	AvoidedLoss	True
332.617	1.45	Lose2	0.6286	n/a	Yes	2.632	n/a	5.0	GoodResponse	0	0.038	331.655	7	34	Feedback	AvoidedLoss	True
334.071	2.632	Lose2	0.6286	n/a	Yes	2.632	n/a	n/a	GoodResponse	0	0.0	n/a	7	34	ISIslide	AvoidedLoss	True
336.729	0.25	Lose2	0.6389	0.0	Yes	2.671	0.029	n/a	GoodResponse	0	n/a	n/a	7	35	Cue	AvoidedLoss	True
336.98	4.0	Lose2	0.6389	0.0	Yes	2.671	0.001	n/a	GoodResponse	0	n/a	n/a	7	35	Fixation	AvoidedLoss	True
340.975	0.31	Lose2	0.6389	0.004	Yes	2.671	-0.004	2.0	GoodResponse	0	0.196	340.171	7	35	Target	AvoidedLoss	True
341.171	0.3	Lose2	0.6389	0.004	Yes	2.671	-0.004	2.0	GoodResponse	0	0.196	n/a	7	35	ButtonPress	AvoidedLoss	True
341.293	0.39	Lose2	0.6389	n/a	Yes	2.671	n/a	n/a	GoodResponse	0	n/a	n/a	7	35	Blank	AvoidedLoss	True
341.677	1.45	Lose2	0.6389	n/a	Yes	2.671	n/a	5.0	GoodResponse	0	0.006	340.683	7	35	Feedback	AvoidedLoss	True
343.131	2.671	Lose2	0.6389	n/a	Yes	2.671	n/a	n/a	GoodResponse	0	0.0	n/a	7	35	ISIslide	AvoidedLoss	True
345.823	0.25	Control	0.6486	0.0	Yes	2.677	0.023	n/a	GoodResponse	0	n/a	n/a	7	36	Cue	Neutral	True
346.074	4.0	Control	0.6486	0.0	Yes	2.677	0.001	n/a	GoodResponse	0	n/a	n/a	7	36	Fixation	Neutral	True
350.069	0.32	Control	0.6486	0.004	Yes	2.677	-0.004	2.0	GoodResponse	0	0.245	349.314	7	36	Target	Neutral	True
350.314	0.3	Control	0.6486	0.004	Yes	2.677	-0.004	2.0	GoodResponse	0	0.245	n/a	7	36	ButtonPress	Neutral	True
350.403	0.38	Control	0.6486	n/a	Yes	2.677	n/a	n/a	GoodResponse	0	n/a	n/a	7	36	Blank	Neutral	True
350.771	1.45	Control	0.6486	n/a	Yes	2.677	n/a	5.0	GoodResponse	0	0.031	349.802	7	36	Feedback	Neutral	True
352.225	2.677	Control	0.6486	n/a	Yes	2.677	n/a	n/a	GoodResponse	0	0.0	n/a	7	36	ISIslide	Neutral	True
354.917	0.25	Win2	0.6579	0.0	Yes	2.883	0.017	n/a	GoodResponse	1	n/a	n/a	8	37	Cue	Win	True
355.167	4.0	Win2	0.6579	0.001	Yes	2.883	0.0	n/a	GoodResponse	1	n/a	n/a	8	37	Fixation	Win	True
359.163	0.33	Win2	0.6579	0.004	Yes	2.883	-0.004	2.0	GoodResponse	1	0.217	358.38	8	37	Target	Win	True
359.38	0.3	Win2	0.6579	0.004	Yes	2.883	-0.004	2.0	GoodResponse	1	0.217	n/a	8	37	ButtonPress	Win	True
359.497	0.37	Win2	0.6579	n/a	Yes	2.883	n/a	n/a	GoodResponse	1	n/a	n/a	8	37	Blank	Win	True
359.865	1.45	Win2	0.6579	n/a	Yes	2.883	n/a	5.0	GoodResponse	1	0.01	358.875	8	37	Feedback	Win	True
361.319	2.883	Win2	0.6579	n/a	Yes	2.883	n/a	n/a	GoodResponse	1	0.0	n/a	8	37	ISIslide	Win	True
364.228	0.25	Lose2	0.6667000000000001	0.0	Yes	2.822	0.028	n/a	GoodResponse	0	n/a	n/a	8	38	Cue	AvoidedLoss	True
364.479	3.95	Lose2	0.6667000000000001	0.0	Yes	2.822	0.001	n/a	GoodResponse	0	n/a	n/a	8	38	Fixation	AvoidedLoss	True
368.424	0.33	Lose2	0.6667000000000001	0.004	Yes	2.822	-0.004	2.0	GoodResponse	0	0.196	367.62	8	38	Target	AvoidedLoss	True
368.62	0.3	Lose2	0.6667000000000001	0.004	Yes	2.822	-0.004	2.0	GoodResponse	0	0.196	n/a	8	38	ButtonPress	AvoidedLoss	True
368.758	0.37	Lose2	0.6667000000000001	n/a	Yes	2.822	n/a	n/a	GoodResponse	0	n/a	n/a	8	38	Blank	AvoidedLoss	True
369.126	1.45	Lose2	0.6667000000000001	n/a	Yes	2.822	n/a	5.0	GoodResponse	0	0.016	368.142	8	38	Feedback	AvoidedLoss	True
370.58	2.822	Lose2	0.6667000000000001	n/a	Yes	2.822	n/a	n/a	GoodResponse	0	0.0	n/a	8	38	ISIslide	AvoidedLoss	True
373.422	0.25	Win2	0.675	0.0	Yes	2.978	0.022	n/a	GoodResponse	1	n/a	n/a	9	39	Cue	Win	True
373.673	4.1	Win2	0.675	0.0	Yes	2.978	0.001	n/a	GoodResponse	1	n/a	n/a	9	39	Fixation	Win	True
377.768	0.32	Win2	0.675	0.004	Yes	2.978	-0.004	2.0	GoodResponse	1	0.221	376.989	9	39	Target	Win	True
377.989	0.3	Win2	0.675	0.004	Yes	2.978	-0.004	2.0	GoodResponse	1	0.221	n/a	9	39	ButtonPress	Win	True
378.103	0.38	Win2	0.675	n/a	Yes	2.978	n/a	n/a	GoodResponse	1	n/a	n/a	9	39	Blank	Win	True
378.471	1.45	Win2	0.675	n/a	Yes	2.978	n/a	5.0	GoodResponse	1	0.037	377.508	9	39	Feedback	Win	True
379.925	2.978	Win2	0.675	n/a	Yes	2.978	n/a	n/a	GoodResponse	1	0.0	n/a	9	39	ISIslide	Win	True
382.917	0.25	Win2	0.6829000000000001	0.0	Yes	2.733	0.017	n/a	GoodResponse	1	n/a	n/a	10	40	Cue	Win	True
383.168	3.95	Win2	0.6829000000000001	0.0	Yes	2.733	0.001	n/a	GoodResponse	1	n/a	n/a	10	40	Fixation	Win	True
387.113	0.31	Win2	0.6829000000000001	0.004	Yes	2.733	-0.004	2.0	GoodResponse	1	0.236	386.349	10	40	Target	Win	True
387.349	0.3	Win2	0.6829000000000001	0.004	Yes	2.733	-0.004	2.0	GoodResponse	1	0.236	n/a	10	40	ButtonPress	Win	True
387.431	0.39	Win2	0.6829000000000001	n/a	Yes	2.733	n/a	n/a	GoodResponse	1	n/a	n/a	10	40	Blank	Win	True
387.815	1.45	Win2	0.6829000000000001	n/a	Yes	2.733	n/a	5.0	GoodResponse	1	0.011	386.826	10	40	Feedback	Win	True
389.27	2.733	Win2	0.6829000000000001	n/a	Yes	2.733	n/a	n/a	GoodResponse	1	0.0	n/a	10	40	ISIslide	Win	True
392.028	0.25	Win2	0.6905	0.0	Yes	2.772	0.028	n/a	GoodResponse	1	n/a	n/a	11	41	Cue	Win	True
392.279	3.9	Win2	0.6905	0.0	Yes	2.772	0.001	n/a	GoodResponse	1	n/a	n/a	11	41	Fixation	Win	True
396.174	0.3	Win2	0.6905	0.004	Yes	2.772	-0.004	2.0	GoodResponse	1	0.22	395.394	11	41	Target	Win	True
396.394	0.3	Win2	0.6905	0.004	Yes	2.772	-0.004	2.0	GoodResponse	1	0.22	n/a	11	41	ButtonPress	Win	True
396.474	0.4	Win2	0.6905	n/a	Yes	2.772	n/a	n/a	GoodResponse	1	n/a	n/a	11	41	Blank	Win	True
396.876	1.45	Win2	0.6905	n/a	Yes	2.772	n/a	5.0	GoodResponse	1	0.023	395.899	11	41	Feedback	Win	True
398.33	2.772	Win2	0.6905	n/a	Yes	2.772	n/a	n/a	GoodResponse	1	0.0	n/a	11	41	ISIslide	Win	True
401.122	0.25	Control	0.6977	0.0	Yes	2.928	0.022	n/a	GoodResponse	0	n/a	n/a	11	42	Cue	Neutral	True
401.372	3.85	Control	0.6977	0.001	Yes	2.928	0.0	n/a	GoodResponse	0	n/a	n/a	11	42	Fixation	Neutral	True
405.234	0.29	Control	0.6977	0.0	Yes	2.928	0.012	2.0	GoodResponse	0	0.235	404.469	11	42	Target	Neutral	True
405.469	0.3	Control	0.6977	0.0	Yes	2.928	0.012	2.0	GoodResponse	0	0.235	n/a	11	42	ButtonPress	Neutral	True
405.518	0.41	Control	0.6977	n/a	Yes	2.928	n/a	n/a	GoodResponse	0	n/a	n/a	11	42	Blank	Neutral	True
405.919	1.45	Control	0.6977	n/a	Yes	2.928	n/a	5.0	GoodResponse	0	0.007	404.926	11	42	Feedback	Neutral	True
407.374	2.928	Control	0.6977	n/a	Yes	2.928	n/a	n/a	GoodResponse	0	0.0	n/a	11	42	ISIslide	Neutral	True
410.316	0.25	Win2	0.6818000000000001	0.0	No	3.184	0.016	n/a	LatePress	0	n/a	n/a	11	43	Cue	MissedWin	True
410.567	4.0	Win2	0.6818000000000001	0.0	No	3.184	0.001	n/a	LatePress	0	n/a	n/a	11	43	Fixation	MissedWin	True
414.562	0.28	Win2	0.6818000000000001	0.004	No	3.184	-0.004	2.0	LatePress	0	0.282	413.844	11	43	Target	MissedWin	True
414.844	0.3	Win2	0.6818000000000001	0.004	No	3.184	-0.004	2.0	LatePress	0	0.282	n/a	11	43	ButtonPress	MissedWin	True
414.846	0.42	Win2	0.6818000000000001	n/a	No	3.184	n/a	n/a	LatePress	0	n/a	n/a	11	43	Blank	MissedWin	True
415.264	1.45	Win2	0.6818000000000001	n/a	No	3.184	n/a	5.0	LatePress	0	0.024	414.288	11	43	Feedback	MissedWin	True
416.718	3.184	Win2	0.6818000000000001	n/a	No	3.184	n/a	n/a	LatePress	0	0.0	n/a	11	43	ISIslide	MissedWin	True
419.928	0.25	Win2	0.6889	0.0	Yes	2.972	0.028	n/a	GoodResponse	1	n/a	n/a	12	44	Cue	Win	True
420.179	4.0	Win2	0.6889	0.0	Yes	2.972	0.001	n/a	GoodResponse	1	n/a	n/a	12	44	Fixation	Win	True
424.174	0.27	Win2	0.6889	0.004	Yes	2.972	-0.004	2.0	GoodResponse	1	0.216	423.39	12	44	Target	Win	True
424.39	0.3	Win2	0.6889	0.004	Yes	2.972	-0.004	2.0	GoodResponse	1	0.216	n/a	12	44	ButtonPress	Win	True
424.458	0.43	Win2	0.6889	n/a	Yes	2.972	n/a	n/a	GoodResponse	1	n/a	n/a	12	44	Blank	Win	True
424.876	1.45	Win2	0.6889	n/a	Yes	2.972	n/a	5.0	GoodResponse	1	0.022	423.898	12	44	Feedback	Win	True
426.33	2.972	Win2	0.6889	n/a	Yes	2.972	n/a	n/a	GoodResponse	1	0.0	n/a	12	44	ISIslide	Win	True
429.323	0.25	Control	0.6957	0.0	Yes	2.877	0.023	n/a	GoodResponse	0	n/a	n/a	12	45	Cue	Neutral	False
429.574	4.1	Control	0.6957	0.0	Yes	2.877	0.001	2.0	GoodResponse	0	2.828	431.402	12	45	Fixation	Neutral	False
432.402	0.3	Control	0.6957	0.0	Yes	2.877	0.001	2.0	GoodResponse	0	2.828	n/a	12	45	ButtonPress	Neutral	False
433.669	0.26	Control	0.6957	0.004	Yes	2.877	-0.004	2.0	GoodResponse	0	0.189	432.858	12	45	Target	Neutral	False
433.858	0.3	Control	0.6957	0.004	Yes	2.877	-0.004	2.0	GoodResponse	0	0.189	n/a	12	45	ButtonPress	Neutral	False
433.937	0.44	Control	0.6957	n/a	Yes	2.877	n/a	n/a	GoodResponse	0	n/a	n/a	12	45	Blank	Neutral	False
434.371	1.45	Control	0.6957	n/a	Yes	2.877	n/a	5.0	GoodResponse	0	0.039	433.41	12	45	Feedback	Neutral	False
435.826	2.877	Control	0.6957	n/a	Yes	2.877	n/a	n/a	GoodResponse	0	0.0	n/a	12	45	ISIslide	Neutral	False
438.718	0.25	Lose2	0.7021	0.0	Yes	3.382	0.018	n/a	GoodResponse	0	n/a	n/a	12	46	Cue	AvoidedLoss	True
438.968	4.0	Lose2	0.7021	0.0	Yes	3.382	0.0	n/a	GoodResponse	0	n/a	n/a	12	46	Fixation	AvoidedLoss	True
442.964	0.25	Lose2	0.7021	0.004	Yes	3.382	-0.004	2.0	GoodResponse	0	0.222	442.186	12	46	Target	AvoidedLoss	True
443.186	0.3	Lose2	0.7021	0.004	Yes	3.382	-0.004	2.0	GoodResponse	0	0.222	n/a	12	46	ButtonPress	AvoidedLoss	True
443.214	0.45	Lose2	0.7021	n/a	Yes	3.382	n/a	n/a	GoodResponse	0	n/a	n/a	12	46	Blank	AvoidedLoss	True
443.666	1.45	Lose2	0.7021	n/a	Yes	3.382	n/a	5.0	GoodResponse	0	0.013	442.679	12	46	Feedback	AvoidedLoss	True
445.12	3.382	Lose2	0.7021	n/a	Yes	3.382	n/a	n/a	GoodResponse	0	0.0	n/a	12	46	ISIslide	AvoidedLoss	True
448.53	0.25	Lose2	0.6875	0.0	No	2.67	0.03	n/a	NoResponse	-1	n/a	n/a	11	47	Cue	Loss	True
448.781	4.0	Lose2	0.6875	0.0	No	2.67	0.001	n/a	NoResponse	-1	n/a	n/a	11	47	Fixation	Loss	True
452.776	0.24	Lose2	0.6875	0.004	No	2.67	-0.004	2.0	NoResponse	-1	0.38	452.156	11	47	Target	Loss	True
453.027	0.46	Lose2	0.6875	n/a	No	2.67	n/a	n/a	NoResponse	-1	n/a	n/a	11	47	Blank	Loss	True
453.156	0.3	Lose2	0.6875	0.004	No	2.67	-0.004	2.0	NoResponse	-1	0.38	n/a	11	47	ButtonPress	Loss	True
453.478	1.45	Lose2	0.6875	n/a	No	2.67	n/a	5.0	NoResponse	-1	0.007	452.485	11	47	Feedback	Loss	True
454.933	2.67	Lose2	0.6875	n/a	No	2.67	n/a	n/a	NoResponse	-1	0.0	n/a	11	47	ISIslide	Loss	True
457.624	0.25	Lose2	0.6735	0.0	No	3.026	0.024	n/a	LatePress	-1	n/a	n/a	10	48	Cue	Loss	True
457.875	3.95	Lose2	0.6735	0.0	No	3.026	0.001	n/a	LatePress	-1	n/a	n/a	10	48	Fixation	Loss	True
461.82	0.23	Lose2	0.6735	0.004	No	3.026	-0.004	2.0	LatePress	-1	0.233	461.053	10	48	Target	Loss	True
462.053	0.3	Lose2	0.6735	0.004	No	3.026	-0.004	2.0	LatePress	-1	0.233	n/a	10	48	ButtonPress	Loss	True
462.054	0.47	Lose2	0.6735	n/a	No	3.026	n/a	n/a	LatePress	-1	n/a	n/a	10	48	Blank	Loss	True
462.522	1.45	Lose2	0.6735	n/a	No	3.026	n/a	5.0	LatePress	-1	0.035	461.557	10	48	Feedback	Loss	True
463.977	3.026	Lose2	0.6735	n/a	No	3.026	n/a	n/a	LatePress	-1	0.0	n/a	10	48	ISIslide	Loss	True
467.019	0.25	Control	0.68	0.0	Yes	2.881	0.019	n/a	GoodResponse	0	n/a	n/a	10	49	Cue	Neutral	True
467.27	4.0	Control	0.68	0.0	Yes	2.881	0.001	n/a	GoodResponse	0	n/a	n/a	10	49	Fixation	Neutral	True
471.265	0.22	Control	0.68	0.004	Yes	2.881	-0.004	2.0	GoodResponse	0	0.199	470.464	10	49	Target	Neutral	True
471.464	0.3	Control	0.68	0.004	Yes	2.881	-0.004	2.0	GoodResponse	0	0.199	n/a	10	49	ButtonPress	Neutral	True
471.499	0.48	Control	0.68	n/a	Yes	2.881	n/a	n/a	GoodResponse	0	n/a	n/a	10	49	Blank	Neutral	True
471.967	1.45	Control	0.68	n/a	Yes	2.881	n/a	5.0	GoodResponse	0	0.008	470.975	10	49	Feedback	Neutral	True
473.421	2.881	Control	0.68	n/a	Yes	2.881	n/a	n/a	GoodResponse	0	0.0	n/a	10	49	ISIslide	Neutral	True
476.33	0.25	Control	0.6862999999999999	0.0	Yes	2.77	0.03	n/a	GoodResponse	0	n/a	n/a	10	50	Cue	Neutral	True
476.581	4.0	Control	0.6862999999999999	0.0	Yes	2.77	0.001	n/a	GoodResponse	0	n/a	n/a	10	50	Fixation	Neutral	True
480.576	0.21	Control	0.6862999999999999	0.004	Yes	2.77	-0.004	2.0	GoodResponse	0	0.196	479.772	10	50	Target	Neutral	True
480.772	0.3	Control	0.6862999999999999	0.004	Yes	2.77	-0.004	2.0	GoodResponse	0	0.196	n/a	10	50	ButtonPress	Neutral	True
480.794	0.49	Control	0.6862999999999999	n/a	Yes	2.77	n/a	n/a	GoodResponse	0	n/a	n/a	10	50	Blank	Neutral	True
481.278	1.45	Control	0.6862999999999999	n/a	Yes	2.77	n/a	5.0	GoodResponse	0	0.01	480.288	10	50	Feedback	Neutral	True
482.733	2.77	Control	0.6862999999999999	n/a	Yes	2.77	n/a	n/a	GoodResponse	0	0.0	n/a	10	50	ISIslide	Neutral	True
485.524	0.25	Control	0.6731	0.0	No	2.726	0.024	n/a	NoResponse	0	n/a	n/a	10	51	Cue	Neutral	True
485.775	3.95	Control	0.6731	0.0	No	2.726	0.001	n/a	NoResponse	0	n/a	n/a	10	51	Fixation	Neutral	True
489.72	0.2	Control	0.6731	0.004	No	2.726	-0.004	2.0	NoResponse	0	0.211	488.931	10	51	Target	Neutral	True
489.921	0.5	Control	0.6731	n/a	No	2.726	n/a	n/a	NoResponse	0	n/a	n/a	10	51	Blank	Neutral	True
489.931	0.3	Control	0.6731	0.004	No	2.726	-0.004	2.0	NoResponse	0	0.211	n/a	10	51	ButtonPress	Neutral	True
490.422	1.45	Control	0.6731	n/a	No	2.726	n/a	5.0	NoResponse	0	0.037	489.459	10	51	Feedback	Neutral	True
491.877	2.726	Control	0.6731	n/a	No	2.726	n/a	n/a	NoResponse	0	0.0	n/a	10	51	ISIslide	Neutral	True
494.618	0.25	Control	0.6604000000000001	0.0	No	2.632	0.018	n/a	NoResponse	0	n/a	n/a	10	52	Cue	Neutral	True
494.869	4.05	Control	0.6604000000000001	0.0	No	2.632	0.001	n/a	NoResponse	0	n/a	n/a	10	52	Fixation	Neutral	True
498.914	0.19	Control	0.6604000000000001	0.004	No	2.632	-0.004	2.0	NoResponse	0	0.216	498.13	10	52	Target	Neutral	True
499.115	0.51	Control	0.6604000000000001	n/a	No	2.632	n/a	n/a	NoResponse	0	n/a	n/a	10	52	Blank	Neutral	True
499.13	0.3	Control	0.6604000000000001	0.004	No	2.632	-0.004	2.0	NoResponse	0	0.216	n/a	10	52	ButtonPress	Neutral	True
499.617	1.45	Control	0.6604000000000001	n/a	No	2.632	n/a	5.0	NoResponse	0	0.013	498.63	10	52	Feedback	Neutral	True
501.071	2.632	Control	0.6604000000000001	n/a	No	2.632	n/a	n/a	NoResponse	0	0.0	n/a	10	52	ISIslide	Neutral	True
503.729	0.25	Win2	0.6667000000000001	0.0	Yes	2.921	0.029	n/a	GoodResponse	1	n/a	n/a	11	53	Cue	Win	True
503.98	4.05	Win2	0.6667000000000001	0.0	Yes	2.921	0.001	n/a	GoodResponse	1	n/a	n/a	11	53	Fixation	Win	True
508.025	0.19	Win2	0.6667000000000001	0.004	Yes	2.921	-0.004	2.0	GoodResponse	1	0.189	507.214	11	53	Target	Win	True
508.214	0.3	Win2	0.6667000000000001	0.004	Yes	2.921	-0.004	2.0	GoodResponse	1	0.189	n/a	11	53	ButtonPress	Win	True
508.226	0.51	Win2	0.6667000000000001	n/a	Yes	2.921	n/a	n/a	GoodResponse	1	n/a	n/a	11	53	Blank	Win	True
508.727	1.45	Win2	0.6667000000000001	n/a	Yes	2.921	n/a	5.0	GoodResponse	1	0.025	507.752	11	53	Feedback	Win	True
510.181	2.921	Win2	0.6667000000000001	n/a	Yes	2.921	n/a	n/a	GoodResponse	1	0.0	n/a	11	53	ISIslide	Win	True
513.124	0.25	Win2	0.6545000000000001	0.0	No	2.726	0.024	n/a	NoResponse	0	n/a	n/a	11	54	Cue	MissedWin	True
513.374	3.95	Win2	0.6545000000000001	0.0	No	2.726	0.0	n/a	NoResponse	0	n/a	n/a	11	54	Fixation	MissedWin	True
517.32	0.18	Win2	0.6545000000000001	0.004	No	2.726	-0.004	2.0	NoResponse	0	0.225	516.545	11	54	Target	MissedWin	True
517.503	0.52	Win2	0.6545000000000001	n/a	No	2.726	n/a	n/a	NoResponse	0	n/a	n/a	11	54	Blank	MissedWin	True
517.545	0.3	Win2	0.6545000000000001	0.004	No	2.726	-0.004	2.0	NoResponse	0	0.225	n/a	11	54	ButtonPress	MissedWin	True
518.022	1.45	Win2	0.6545000000000001	n/a	No	2.726	n/a	5.0	NoResponse	0	0.046	517.068	11	54	Feedback	MissedWin	True
519.476	2.726	Win2	0.6545000000000001	n/a	No	2.726	n/a	n/a	NoResponse	0	0.0	n/a	11	54	ISIslide	MissedWin	True
522.218	0.25	Control	0.6429	0.0	No	3.032	0.018	n/a	NoResponse	0	n/a	n/a	11	55	Cue	Neutral	True
522.468	3.95	Control	0.6429	0.0	No	3.032	0.0	n/a	NoResponse	0	n/a	n/a	11	55	Fixation	Neutral	True
526.43	0.19	Control	0.6429	0.0	No	3.032	0.012	2.0	NoResponse	0	0.234	525.664	11	55	Target	Neutral	True
526.614	0.51	Control	0.6429	n/a	No	3.032	n/a	n/a	NoResponse	0	n/a	n/a	11	55	Blank	Neutral	True
526.664	0.3	Control	0.6429	0.0	No	3.032	0.012	2.0	NoResponse	0	0.234	n/a	11	55	ButtonPress	Neutral	True
527.116	1.45	Control	0.6429	n/a	No	3.032	n/a	5.0	NoResponse	0	0.025	526.141	11	55	Feedback	Neutral	True
528.57	3.032	Control	0.6429	n/a	No	3.032	n/a	2.0	NoResponse	0	0.9	n/a	11	55	ISIslide	Neutral	True
531.596	0.25	Control	0.6315999999999999	0.0	No	2.854	-0.004	n/a	NoResponse	0	n/a	n/a	11	56	Cue	Neutral	True
531.846	3.95	Control	0.6315999999999999	0.0	No	2.854	0.0	n/a	NoResponse	0	n/a	n/a	11	56	Fixation	Neutral	True
535.808	0.2	Control	0.6315999999999999	0.0	No	2.854	0.012	2.0	NoResponse	0	0.208	535.016	11	56	Target	Neutral	True
535.992	0.5	Control	0.6315999999999999	n/a	No	2.854	n/a	n/a	NoResponse	0	n/a	n/a	11	56	Blank	Neutral	True
536.016	0.3	Control	0.6315999999999999	0.0	No	2.854	0.012	2.0	NoResponse	0	0.208	n/a	11	56	ButtonPress	Neutral	True
536.494	1.45	Control	0.6315999999999999	n/a	No	2.854	n/a	5.0	NoResponse	0	0.013	535.507	11	56	Feedback	Neutral	True
537.948	2.854	Control	0.6315999999999999	n/a	No	2.854	n/a	n/a	NoResponse	0	0.0	n/a	11	56	ISIslide	Neutral	True
540.823	0.25	Control	0.6379	0.0	Yes	3.477	0.023	n/a	GoodResponse	0	n/a	n/a	11	57	Cue	Neutral	True
541.074	4.0	Control	0.6379	0.0	Yes	3.477	0.001	n/a	GoodResponse	0	n/a	n/a	11	57	Fixation	Neutral	True
545.069	0.21	Control	0.6379	0.004	Yes	3.477	-0.004	2.0	GoodResponse	0	0.192	544.261	11	57	Target	Neutral	True
545.261	0.3	Control	0.6379	0.004	Yes	3.477	-0.004	2.0	GoodResponse	0	0.192	n/a	11	57	ButtonPress	Neutral	True
545.287	0.49	Control	0.6379	n/a	Yes	3.477	n/a	n/a	GoodResponse	0	n/a	n/a	11	57	Blank	Neutral	True
545.771	1.45	Control	0.6379	n/a	Yes	3.477	n/a	5.0	GoodResponse	0	0.006	544.777	11	57	Feedback	Neutral	True
547.226	3.477	Control	0.6379	n/a	Yes	3.477	n/a	n/a	GoodResponse	0	0.0	n/a	11	57	ISIslide	Neutral	True
550.72	0.25	Win2	0.6441	0.0	Yes	2.73	0.02	n/a	GoodResponse	1	n/a	n/a	12	58	Cue	Win	True
550.97	4.05	Win2	0.6441	0.0	Yes	2.73	0.0	n/a	GoodResponse	1	n/a	n/a	12	58	Fixation	Win	True
555.016	0.22	Win2	0.6441	0.004	Yes	2.73	-0.004	2.0	GoodResponse	1	0.184	554.2	12	58	Target	Win	True
555.2	0.3	Win2	0.6441	0.004	Yes	2.73	-0.004	2.0	GoodResponse	1	0.184	n/a	12	58	ButtonPress	Win	True
555.25	0.48	Win2	0.6441	n/a	Yes	2.73	n/a	n/a	GoodResponse	1	n/a	n/a	12	58	Blank	Win	True
555.718	1.45	Win2	0.6441	n/a	Yes	2.73	n/a	5.0	GoodResponse	1	0.009	554.727	12	58	Feedback	Win	True
557.172	2.73	Win2	0.6441	n/a	Yes	2.73	n/a	n/a	GoodResponse	1	0.0	n/a	12	58	ISIslide	Win	True
559.914	0.25	Lose2	0.6333	0.0	No	2.686	0.014	n/a	NoResponse	-1	n/a	n/a	11	59	Cue	Loss	True
560.164	4.0	Lose2	0.6333	0.001	No	2.686	0.0	n/a	NoResponse	-1	n/a	n/a	11	59	Fixation	Loss	True
564.16	0.23	Lose2	0.6333	0.004	No	2.686	-0.004	2.0	NoResponse	-1	0.245	563.405	11	59	Target	Loss	True
564.394	0.47	Lose2	0.6333	n/a	No	2.686	n/a	n/a	NoResponse	-1	n/a	n/a	11	59	Blank	Loss	True
564.405	0.3	Lose2	0.6333	0.004	No	2.686	-0.004	2.0	NoResponse	-1	0.245	n/a	11	59	ButtonPress	Loss	True
564.862	1.45	Lose2	0.6333	n/a	No	2.686	n/a	5.0	NoResponse	-1	0.035	563.897	11	59	Feedback	Loss	True
566.316	2.686	Lose2	0.6333	n/a	No	2.686	n/a	n/a	NoResponse	-1	0.0	n/a	11	59	ISIslide	Loss	True
569.024	0.25	Control	0.6393	0.0	Yes	2.676	0.024	n/a	GoodResponse	0	n/a	n/a	11	60	Cue	Neutral	True
569.275	4.0	Control	0.6393	0.0	Yes	2.676	0.001	n/a	GoodResponse	0	n/a	n/a	11	60	Fixation	Neutral	True
573.27	0.24	Control	0.6393	0.004	Yes	2.676	-0.004	2.0	GoodResponse	0	0.191	572.461	11	60	Target	Neutral	True
573.461	0.3	Control	0.6393	0.004	Yes	2.676	-0.004	2.0	GoodResponse	0	0.191	n/a	11	60	ButtonPress	Neutral	True
573.521	0.46	Control	0.6393	n/a	Yes	2.676	n/a	n/a	GoodResponse	0	n/a	n/a	11	60	Blank	Neutral	True
573.972	1.45	Control	0.6393	n/a	Yes	2.676	n/a	5.0	GoodResponse	0	0.047	573.019	11	60	Feedback	Neutral	True
575.427	2.676	Control	0.6393	n/a	Yes	2.676	n/a	n/a	GoodResponse	0	0.0	n/a	11	60	ISIslide	Neutral	True
578.118	0.25	Lose2	0.6452	0.0	Yes	2.982	0.018	n/a	GoodResponse	0	n/a	n/a	11	61	Cue	AvoidedLoss	True
578.369	4.0	Lose2	0.6452	0.0	Yes	2.982	0.001	n/a	GoodResponse	0	n/a	n/a	11	61	Fixation	AvoidedLoss	True
582.364	0.25	Lose2	0.6452	0.004	Yes	2.982	-0.004	2.0	GoodResponse	0	0.183	581.547	11	61	Target	AvoidedLoss	True
582.547	0.3	Lose2	0.6452	0.004	Yes	2.982	-0.004	2.0	GoodResponse	0	0.183	n/a	11	61	ButtonPress	AvoidedLoss	True
582.615	0.45	Lose2	0.6452	n/a	Yes	2.982	n/a	n/a	GoodResponse	0	n/a	n/a	11	61	Blank	AvoidedLoss	True
583.066	1.45	Lose2	0.6452	n/a	Yes	2.982	n/a	5.0	GoodResponse	0	0.026	582.092	11	61	Feedback	AvoidedLoss	True
584.521	2.982	Lose2	0.6452	n/a	Yes	2.982	n/a	n/a	GoodResponse	0	0.0	n/a	11	61	ISIslide	AvoidedLoss	True
587.53	0.25	Lose2	0.6507999999999999	0.0	Yes	2.87	0.03	n/a	GoodResponse	0	n/a	n/a	11	62	Cue	AvoidedLoss	True
587.78	3.9	Lose2	0.6507999999999999	0.001	Yes	2.87	0.0	n/a	GoodResponse	0	n/a	n/a	11	62	Fixation	AvoidedLoss	True
591.692	0.26	Lose2	0.6507999999999999	0.0	Yes	2.87	0.012	2.0	GoodResponse	0	0.19	590.882	11	62	Target	AvoidedLoss	True
591.882	0.3	Lose2	0.6507999999999999	0.0	Yes	2.87	0.012	2.0	GoodResponse	0	0.19	n/a	11	62	ButtonPress	AvoidedLoss	True
591.943	0.44	Lose2	0.6507999999999999	n/a	Yes	2.87	n/a	n/a	GoodResponse	0	n/a	n/a	11	62	Blank	AvoidedLoss	True
592.378	1.45	Lose2	0.6507999999999999	n/a	Yes	2.87	n/a	5.0	GoodResponse	0	0.031	591.409	11	62	Feedback	AvoidedLoss	True
593.832	2.87	Lose2	0.6507999999999999	n/a	Yes	2.87	n/a	n/a	GoodResponse	0	0.0	n/a	11	62	ISIslide	AvoidedLoss	True
596.724	0.25	Lose2	0.6562	0.0	Yes	2.626	0.024	n/a	GoodResponse	0	n/a	n/a	11	63	Cue	AvoidedLoss	True
596.975	4.05	Lose2	0.6562	0.0	Yes	2.626	0.001	n/a	GoodResponse	0	n/a	n/a	11	63	Fixation	AvoidedLoss	True
601.02	0.27	Lose2	0.6562	0.004	Yes	2.626	-0.004	2.0	GoodResponse	0	0.158	600.178	11	63	Target	AvoidedLoss	True
601.178	0.3	Lose2	0.6562	0.004	Yes	2.626	-0.004	2.0	GoodResponse	0	0.158	n/a	11	63	ButtonPress	AvoidedLoss	True
601.304	0.43	Lose2	0.6562	n/a	Yes	2.626	n/a	n/a	GoodResponse	0	n/a	n/a	11	63	Blank	AvoidedLoss	True
601.722	1.45	Lose2	0.6562	n/a	Yes	2.626	n/a	5.0	GoodResponse	0	0.004	600.726	11	63	Feedback	AvoidedLoss	True
603.177	2.626	Lose2	0.6562	n/a	Yes	2.626	n/a	n/a	GoodResponse	0	0.0	n/a	11	63	ISIslide	AvoidedLoss	True
605.818	0.25	Win2	0.6462	0.0	No	3.132	0.018	n/a	LatePress	0	n/a	n/a	11	64	Cue	MissedWin	True
606.069	4.15	Win2	0.6462	0.0	No	3.132	0.001	n/a	LatePress	0	n/a	n/a	11	64	Fixation	MissedWin	True
610.214	0.27	Win2	0.6462	0.004	No	3.132	-0.004	2.0	LatePress	0	0.279	609.493	11	64	Target	MissedWin	True
610.493	0.3	Win2	0.6462	0.004	No	3.132	-0.004	2.0	LatePress	0	0.279	n/a	11	64	ButtonPress	MissedWin	True
610.498	0.43	Win2	0.6462	n/a	No	3.132	n/a	n/a	LatePress	0	n/a	n/a	11	64	Blank	MissedWin	True
610.916	1.45	Win2	0.6462	n/a	No	3.132	n/a	5.0	LatePress	0	0.03	609.946	11	64	Feedback	MissedWin	True
612.371	3.132	Win2	0.6462	n/a	No	3.132	n/a	n/a	LatePress	0	0.0	n/a	11	64	ISIslide	MissedWin	True
615.513	0.25	Control	0.6515000000000001	0.001	Yes	2.787	0.013	n/a	GoodResponse	0	n/a	n/a	11	65	Cue	Neutral	True
615.764	4.0	Control	0.6515000000000001	0.0	Yes	2.787	0.001	n/a	GoodResponse	0	n/a	n/a	11	65	Fixation	Neutral	True
619.759	0.28	Control	0.6515000000000001	0.004	Yes	2.787	-0.004	2.0	GoodResponse	0	0.213	618.972	11	65	Target	Neutral	True
619.972	0.3	Control	0.6515000000000001	0.004	Yes	2.787	-0.004	2.0	GoodResponse	0	0.213	n/a	11	65	ButtonPress	Neutral	True
620.044	0.42	Control	0.6515000000000001	n/a	Yes	2.787	n/a	n/a	GoodResponse	0	n/a	n/a	11	65	Blank	Neutral	True
620.462	1.45	Control	0.6515000000000001	n/a	Yes	2.787	n/a	5.0	GoodResponse	0	0.044	619.506	11	65	Feedback	Neutral	True
621.916	2.787	Control	0.6515000000000001	n/a	Yes	2.787	n/a	n/a	GoodResponse	0	0.0	n/a	11	65	ISIslide	Neutral	True
624.724	0.25	Win2	0.6567000000000001	0.0	Yes	2.776	0.024	n/a	GoodResponse	1	n/a	n/a	12	66	Cue	Win	True
624.975	3.9	Win2	0.6567000000000001	0.0	Yes	2.776	0.001	n/a	GoodResponse	1	n/a	n/a	12	66	Fixation	Win	True
628.87	0.29	Win2	0.6567000000000001	0.004	Yes	2.776	-0.004	2.0	GoodResponse	1	0.19	628.06	12	66	Target	Win	True
629.06	0.3	Win2	0.6567000000000001	0.004	Yes	2.776	-0.004	2.0	GoodResponse	1	0.19	n/a	12	66	ButtonPress	Win	True
629.171	0.41	Win2	0.6567000000000001	n/a	Yes	2.776	n/a	n/a	GoodResponse	1	n/a	n/a	12	66	Blank	Win	True
629.572	1.45	Win2	0.6567000000000001	n/a	Yes	2.776	n/a	5.0	GoodResponse	1	0.007	628.579	12	66	Feedback	Win	True
631.027	2.776	Win2	0.6567000000000001	n/a	Yes	2.776	n/a	n/a	GoodResponse	1	0.0	n/a	12	66	ISIslide	Win	True
633.818	0.25	Control	0.6618	0.0	Yes	2.732	0.018	n/a	GoodResponse	0	n/a	n/a	12	67	Cue	Neutral	True
634.069	3.95	Control	0.6618	0.0	Yes	2.732	0.001	n/a	GoodResponse	0	n/a	n/a	12	67	Fixation	Neutral	True
638.014	0.29	Control	0.6618	0.004	Yes	2.732	-0.004	2.0	GoodResponse	0	0.203	637.217	12	67	Target	Neutral	True
638.217	0.3	Control	0.6618	0.004	Yes	2.732	-0.004	2.0	GoodResponse	0	0.203	n/a	12	67	ButtonPress	Neutral	True
638.315	0.41	Control	0.6618	n/a	Yes	2.732	n/a	n/a	GoodResponse	0	n/a	n/a	12	67	Blank	Neutral	True
638.716	1.45	Control	0.6618	n/a	Yes	2.732	n/a	5.0	GoodResponse	0	0.034	637.75	12	67	Feedback	Neutral	True
640.171	2.732	Control	0.6618	n/a	Yes	2.732	n/a	n/a	GoodResponse	0	0.0	n/a	12	67	ISIslide	Neutral	True
642.929	0.25	Win2	0.6667000000000001	0.0	Yes	3.071	0.029	n/a	GoodResponse	1	n/a	n/a	13	68	Cue	Win	True
643.18	4.0	Win2	0.6667000000000001	0.0	Yes	3.071	0.001	n/a	GoodResponse	1	n/a	n/a	13	68	Fixation	Win	True
647.175	0.29	Win2	0.6667000000000001	0.004	Yes	3.071	-0.004	2.0	GoodResponse	1	0.184	646.359	13	68	Target	Win	True
647.359	0.3	Win2	0.6667000000000001	0.004	Yes	3.071	-0.004	2.0	GoodResponse	1	0.184	n/a	13	68	ButtonPress	Win	True
647.476	0.41	Win2	0.6667000000000001	n/a	Yes	3.071	n/a	n/a	GoodResponse	1	n/a	n/a	13	68	Blank	Win	True
647.877	1.45	Win2	0.6667000000000001	n/a	Yes	3.071	n/a	5.0	GoodResponse	1	0.044	646.921	13	68	Feedback	Win	True
649.331	3.071	Win2	0.6667000000000001	n/a	Yes	3.071	n/a	n/a	GoodResponse	1	0.0	n/a	13	68	ISIslide	Win	True
652.424	0.25	Win2	0.6714	0.0	Yes	3.226	0.024	n/a	GoodResponse	1	n/a	n/a	14	69	Cue	Win	True
652.675	3.95	Win2	0.6714	0.0	Yes	3.226	0.001	n/a	GoodResponse	1	n/a	n/a	14	69	Fixation	Win	True
656.62	0.28	Win2	0.6714	0.004	Yes	3.226	-0.004	2.0	GoodResponse	1	0.194	655.814	14	69	Target	Win	True
656.814	0.3	Win2	0.6714	0.004	Yes	3.226	-0.004	2.0	GoodResponse	1	0.194	n/a	14	69	ButtonPress	Win	True
656.904	0.42	Win2	0.6714	n/a	Yes	3.226	n/a	n/a	GoodResponse	1	n/a	n/a	14	69	Blank	Win	True
657.322	1.45	Win2	0.6714	n/a	Yes	3.226	n/a	5.0	GoodResponse	1	0.014	656.336	14	69	Feedback	Win	True
658.776	3.226	Win2	0.6714	n/a	Yes	3.226	n/a	n/a	GoodResponse	1	0.0	n/a	14	69	ISIslide	Win	True
662.019	0.25	Lose2	0.6761	0.0	Yes	3.031	0.019	n/a	GoodResponse	0	n/a	n/a	14	70	Cue	AvoidedLoss	True
662.27	4.05	Lose2	0.6761	0.0	Yes	3.031	0.001	n/a	GoodResponse	0	n/a	n/a	14	70	Fixation	AvoidedLoss	True
666.316	0.27	Lose2	0.6761	0.003	Yes	3.031	-0.003	2.0	GoodResponse	0	0.247	665.563	14	70	Target	AvoidedLoss	True
666.563	0.3	Lose2	0.6761	0.003	Yes	3.031	-0.003	2.0	GoodResponse	0	0.247	n/a	14	70	ButtonPress	AvoidedLoss	True
666.6	0.43	Lose2	0.6761	n/a	Yes	3.031	n/a	n/a	GoodResponse	0	n/a	n/a	14	70	Blank	AvoidedLoss	True
667.018	1.45	Lose2	0.6761	n/a	Yes	3.031	n/a	5.0	GoodResponse	0	0.024	666.042	14	70	Feedback	AvoidedLoss	True
668.472	3.031	Lose2	0.6761	n/a	Yes	3.031	n/a	n/a	GoodResponse	0	0.0	n/a	14	70	ISIslide	AvoidedLoss	True
671.514	0.25	Win2	0.6806	0.0	Yes	2.736	0.014	n/a	GoodResponse	1	n/a	n/a	15	71	Cue	Win	True
671.765	4.05	Win2	0.6806	0.0	Yes	2.736	0.001	n/a	GoodResponse	1	n/a	n/a	15	71	Fixation	Win	True
675.811	0.26	Win2	0.6806	0.003	Yes	2.736	-0.003	2.0	GoodResponse	1	0.202	675.013	15	71	Target	Win	True
676.013	0.3	Win2	0.6806	0.003	Yes	2.736	-0.003	2.0	GoodResponse	1	0.202	n/a	15	71	ButtonPress	Win	True
676.078	0.44	Win2	0.6806	n/a	Yes	2.736	n/a	n/a	GoodResponse	1	n/a	n/a	15	71	Blank	Win	True
676.513	1.45	Win2	0.6806	n/a	Yes	2.736	n/a	5.0	GoodResponse	1	0.041	675.554	15	71	Feedback	Win	True
677.967	2.736	Win2	0.6806	n/a	Yes	2.736	n/a	n/a	GoodResponse	1	0.0	n/a	15	71	ISIslide	Win	True
680.725	0.25	Win2	0.6849	0.0	Yes	2.775	0.025	n/a	GoodResponse	1	n/a	n/a	16	72	Cue	Win	True
680.976	4.1	Win2	0.6849	0.0	Yes	2.775	0.001	n/a	GoodResponse	1	n/a	n/a	16	72	Fixation	Win	True
685.072	0.25	Win2	0.6849	0.003	Yes	2.775	-0.003	2.0	GoodResponse	1	0.206	684.278	16	72	Target	Win	True
685.278	0.3	Win2	0.6849	0.003	Yes	2.775	-0.003	2.0	GoodResponse	1	0.206	n/a	16	72	ButtonPress	Win	True
685.322	0.45	Win2	0.6849	n/a	Yes	2.775	n/a	n/a	GoodResponse	1	n/a	n/a	16	72	Blank	Win	True
685.774	1.45	Win2	0.6849	n/a	Yes	2.775	n/a	5.0	GoodResponse	1	0.0	684.774	16	72	Feedback	Win	True
687.228	2.775	Win2	0.6849	n/a	Yes	2.775	n/a	n/a	GoodResponse	1	0.0	n/a	16	72	ISIslide	Win	True
690.02	0.25	Win2	0.6892	0.0	Yes	2.68	0.02	n/a	GoodResponse	1	n/a	n/a	17	73	Cue	Win	True
690.271	4.0	Win2	0.6892	0.0	Yes	2.68	0.001	n/a	GoodResponse	1	n/a	n/a	17	73	Fixation	Win	True
694.266	0.24	Win2	0.6892	0.004	Yes	2.68	-0.004	2.0	GoodResponse	1	0.18	693.446	17	73	Target	Win	True
694.446	0.3	Win2	0.6892	0.004	Yes	2.68	-0.004	2.0	GoodResponse	1	0.18	n/a	17	73	ButtonPress	Win	True
694.517	0.46	Win2	0.6892	n/a	Yes	2.68	n/a	n/a	GoodResponse	1	n/a	n/a	17	73	Blank	Win	True
694.968	1.45	Win2	0.6892	n/a	Yes	2.68	n/a	5.0	GoodResponse	1	0.026	693.994	17	73	Feedback	Win	True
696.422	2.68	Win2	0.6892	n/a	Yes	2.68	n/a	n/a	GoodResponse	1	0.0	n/a	17	73	ISIslide	Win	True
699.114	0.25	Lose2	0.6933	0.0	Yes	2.636	0.014	n/a	GoodResponse	0	n/a	n/a	17	74	Cue	AvoidedLoss	True
699.364	4.05	Lose2	0.6933	0.001	Yes	2.636	0.0	n/a	GoodResponse	0	n/a	n/a	17	74	Fixation	AvoidedLoss	True
703.41	0.23	Lose2	0.6933	0.004	Yes	2.636	-0.004	2.0	GoodResponse	0	0.198	702.608	17	74	Target	AvoidedLoss	True
703.608	0.3	Lose2	0.6933	0.004	Yes	2.636	-0.004	2.0	GoodResponse	0	0.198	n/a	17	74	ButtonPress	AvoidedLoss	True
703.644	0.47	Lose2	0.6933	n/a	Yes	2.636	n/a	n/a	GoodResponse	0	n/a	n/a	17	74	Blank	AvoidedLoss	True
704.112	1.45	Lose2	0.6933	n/a	Yes	2.636	n/a	5.0	GoodResponse	0	0.004	703.116	17	74	Feedback	AvoidedLoss	True
705.566	2.636	Lose2	0.6933	n/a	Yes	2.636	n/a	n/a	GoodResponse	0	0.0	n/a	17	74	ISIslide	AvoidedLoss	True
708.224	0.25	Lose2	0.6973999999999999	0.0	Yes	2.926	0.024	n/a	GoodResponse	0	n/a	n/a	17	75	Cue	AvoidedLoss	True
708.475	3.95	Lose2	0.6973999999999999	0.0	Yes	2.926	0.001	n/a	GoodResponse	0	n/a	n/a	17	75	Fixation	AvoidedLoss	True
712.42	0.22	Lose2	0.6973999999999999	0.004	Yes	2.926	-0.004	2.0	GoodResponse	0	0.211	711.631	17	75	Target	AvoidedLoss	True
712.631	0.3	Lose2	0.6973999999999999	0.004	Yes	2.926	-0.004	2.0	GoodResponse	0	0.211	n/a	17	75	ButtonPress	AvoidedLoss	True
712.654	0.48	Lose2	0.6973999999999999	n/a	Yes	2.926	n/a	n/a	GoodResponse	0	n/a	n/a	17	75	Blank	AvoidedLoss	True
713.122	1.45	Lose2	0.6973999999999999	n/a	Yes	2.926	n/a	5.0	GoodResponse	0	0.018	712.14	17	75	Feedback	AvoidedLoss	True
714.577	2.926	Lose2	0.6973999999999999	n/a	Yes	2.926	n/a	n/a	GoodResponse	0	0.0	n/a	17	75	ISIslide	AvoidedLoss	True
717.519	0.25	Control	0.6883	0.0	No	3.231	0.019	n/a	NoResponse	0	n/a	n/a	17	76	Cue	Neutral	True
717.77	4.05	Control	0.6883	0.0	No	3.231	0.001	n/a	NoResponse	0	n/a	n/a	17	76	Fixation	Neutral	True
721.815	0.21	Control	0.6883	0.004	No	3.231	-0.004	2.0	NoResponse	0	0.304	721.119	17	76	Target	Neutral	True
722.032	0.49	Control	0.6883	n/a	No	3.231	n/a	n/a	NoResponse	0	n/a	n/a	17	76	Blank	Neutral	True
722.119	0.3	Control	0.6883	0.004	No	3.231	-0.004	2.0	NoResponse	0	0.304	n/a	17	76	ButtonPress	Neutral	True
722.517	1.45	Control	0.6883	n/a	No	3.231	n/a	5.0	NoResponse	0	0.037	721.554	17	76	Feedback	Neutral	True
723.971	3.231	Control	0.6883	n/a	No	3.231	n/a	n/a	NoResponse	0	0.0	n/a	17	76	ISIslide	Neutral	True
727.214	0.25	Lose2	0.6795	0.001	No	2.586	0.014	n/a	NoResponse	-1	n/a	n/a	16	77	Cue	Loss	True
727.465	3.95	Lose2	0.6795	0.0	No	2.586	0.001	n/a	NoResponse	-1	n/a	n/a	16	77	Fixation	Loss	True
731.41	0.2	Lose2	0.6795	0.004	No	2.586	-0.004	2.0	NoResponse	-1	0.204	730.614	16	77	Target	Loss	True
731.611	0.5	Lose2	0.6795	n/a	No	2.586	n/a	n/a	NoResponse	-1	n/a	n/a	16	77	Blank	Loss	True
731.614	0.3	Lose2	0.6795	0.004	No	2.586	-0.004	2.0	NoResponse	-1	0.204	n/a	16	77	ButtonPress	Loss	True
732.112	1.45	Lose2	0.6795	n/a	No	2.586	n/a	5.0	NoResponse	-1	0.005	731.117	16	77	Feedback	Loss	True
733.567	2.586	Lose2	0.6795	n/a	No	2.586	n/a	n/a	NoResponse	-1	0.0	n/a	16	77	ISIslide	Loss	True
