onset	duration	cue_type	current_mean_accuracy	duration_error	is_hit	isi_adjusted	onset_delay	response	response_type	reward	rt	rt_time	total_reward	trial_number	trial_phase	trial_type	one_press
11.098	0.25	Control	1.0	0.0	Yes	2.952	-0.002	n/a	GoodResponse	0	n/a	n/a	0	0	Cue	Neutral	False
11.348	3.85	Control	1.0	0.0	Yes	2.952	0.0	4.0	GoodResponse	0	0.345	10.693	0	0	Fixation	Neutral	False
11.693	0.3	Control	1.0	0.0	Yes	2.952	0.0	4.0	GoodResponse	0	0.345	n/a	0	0	ButtonPress	Neutral	False
15.197	0.4	Control	1.0	0.001	Yes	2.952	-0.001	4.0	GoodResponse	0	0.378	14.575	0	0	Target	Neutral	False
15.575	0.3	Control	1.0	0.001	Yes	2.952	-0.001	4.0	GoodResponse	0	0.378	n/a	0	0	ButtonPress	Neutral	False
15.597	0.3	Control	1.0	n/a	Yes	2.952	n/a	n/a	GoodResponse	0	n/a	n/a	0	0	Blank	Neutral	False
15.897	1.45	Control	1.0	n/a	Yes	2.952	n/a	5.0	GoodResponse	0	0.032	14.929	0	0	Feedback	Neutral	False
17.346	2.952	Control	1.0	n/a	Yes	2.952	n/a	n/a	GoodResponse	0	0.0	n/a	0	0	ISIslide	Neutral	False
20.328	0.25	Lose2	1.0	0.0	Yes	2.772	0.028	n/a	GoodResponse	0	n/a	n/a	0	1	Cue	AvoidedLoss	True
20.578	4.0	Lose2	1.0	0.0	Yes	2.772	0.0	n/a	GoodResponse	0	n/a	n/a	0	1	Fixation	AvoidedLoss	True
24.577	0.39	Lose2	1.0	0.001	Yes	2.772	-0.001	4.0	GoodResponse	0	0.204	23.781	0	1	Target	AvoidedLoss	True
24.781	0.3	Lose2	1.0	0.001	Yes	2.772	-0.001	4.0	GoodResponse	0	0.204	n/a	0	1	ButtonPress	AvoidedLoss	True
24.977	0.31	Lose2	1.0	n/a	Yes	2.772	n/a	n/a	GoodResponse	0	n/a	n/a	0	1	Blank	AvoidedLoss	True
25.277	1.45	Lose2	1.0	n/a	Yes	2.772	n/a	5.0	GoodResponse	0	0.018	24.295	0	1	Feedback	AvoidedLoss	True
26.726	2.772	Lose2	1.0	n/a	Yes	2.772	n/a	n/a	GoodResponse	0	0.0	n/a	0	1	ISIslide	AvoidedLoss	True
29.525	0.25	Control	1.0	0.0	Yes	2.575	0.025	n/a	GoodResponse	0	n/a	n/a	0	2	Cue	Neutral	True
29.775	4.1	Control	1.0	0.0	Yes	2.575	0.0	n/a	GoodResponse	0	n/a	n/a	0	2	Fixation	Neutral	True
33.874	0.38	Control	1.0	0.001	Yes	2.575	-0.001	4.0	GoodResponse	0	0.213	33.087	0	2	Target	Neutral	True
34.087	0.3	Control	1.0	0.001	Yes	2.575	-0.001	4.0	GoodResponse	0	0.213	n/a	0	2	ButtonPress	Neutral	True
34.257	0.32	Control	1.0	n/a	Yes	2.575	n/a	n/a	GoodResponse	0	n/a	n/a	0	2	Blank	Neutral	True
34.573	1.45	Control	1.0	n/a	Yes	2.575	n/a	5.0	GoodResponse	0	0.039	33.612	0	2	Feedback	Neutral	True
36.023	2.575	Control	1.0	n/a	Yes	2.575	n/a	n/a	GoodResponse	0	0.0	n/a	0	2	ISIslide	Neutral	True
38.622	0.25	Win2	1.0	0.0	Yes	2.828	0.022	n/a	GoodResponse	1	n/a	n/a	1	3	Cue	Win	True
38.872	3.95	Win2	1.0	0.0	Yes	2.828	0.0	n/a	GoodResponse	1	n/a	n/a	1	3	Fixation	Win	True
42.82	0.37	Win2	1.0	0.002	Yes	2.828	-0.002	4.0	GoodResponse	1	0.211	42.031	1	3	Target	Win	True
43.031	0.3	Win2	1.0	0.002	Yes	2.828	-0.002	4.0	GoodResponse	1	0.211	n/a	1	3	ButtonPress	Win	True
43.204	0.33	Win2	1.0	n/a	Yes	2.828	n/a	n/a	GoodResponse	1	n/a	n/a	1	3	Blank	Win	True
43.52	1.45	Win2	1.0	n/a	Yes	2.828	n/a	5.0	GoodResponse	1	0.019	42.539	1	3	Feedback	Win	True
44.97	2.828	Win2	1.0	n/a	Yes	2.828	n/a	n/a	GoodResponse	1	0.0	n/a	1	3	ISIslide	Win	True
47.819	0.25	Win2	1.0	0.0	Yes	3.281	0.019	n/a	GoodResponse	1	n/a	n/a	2	4	Cue	Win	True
48.069	4.0	Win2	1.0	0.0	Yes	3.281	0.0	n/a	GoodResponse	1	n/a	n/a	2	4	Fixation	Win	True
52.067	0.36	Win2	1.0	0.002	Yes	3.281	-0.002	4.0	GoodResponse	1	0.209	51.276	2	4	Target	Win	True
52.276	0.3	Win2	1.0	0.002	Yes	3.281	-0.002	4.0	GoodResponse	1	0.209	n/a	2	4	ButtonPress	Win	True
52.434	0.34	Win2	1.0	n/a	Yes	3.281	n/a	n/a	GoodResponse	1	n/a	n/a	2	4	Blank	Win	True
52.767	1.45	Win2	1.0	n/a	Yes	3.281	n/a	5.0	GoodResponse	1	0.039	51.806	2	4	Feedback	Win	True
54.216	3.281	Win2	1.0	n/a	Yes	3.281	n/a	n/a	GoodResponse	1	0.0	n/a	2	4	ISIslide	Win	True
57.515	0.25	Win2	1.0	0.0	Yes	2.785	0.015	n/a	GoodResponse	1	n/a	n/a	3	5	Cue	Win	True
57.765	4.0	Win2	1.0	0.0	Yes	2.785	0.0	n/a	GoodResponse	1	n/a	n/a	3	5	Fixation	Win	True
61.764	0.35	Win2	1.0	0.001	Yes	2.785	-0.001	4.0	GoodResponse	1	0.202	60.966	3	5	Target	Win	True
61.966	0.3	Win2	1.0	0.001	Yes	2.785	-0.001	4.0	GoodResponse	1	0.202	n/a	3	5	ButtonPress	Win	True
62.114	0.35	Win2	1.0	n/a	Yes	2.785	n/a	n/a	GoodResponse	1	n/a	n/a	3	5	Blank	Win	True
62.463	1.45	Win2	1.0	n/a	Yes	2.785	n/a	5.0	GoodResponse	1	0.006	61.469	3	5	Feedback	Win	True
63.913	2.785	Win2	1.0	n/a	Yes	2.785	n/a	n/a	GoodResponse	1	0.0	n/a	3	5	ISIslide	Win	True
66.729	0.25	Lose2	1.0	0.0	Yes	2.721	0.029	n/a	GoodResponse	0	n/a	n/a	3	6	Cue	AvoidedLoss	True
66.979	3.95	Lose2	1.0	0.0	Yes	2.721	0.0	n/a	GoodResponse	0	n/a	n/a	3	6	Fixation	AvoidedLoss	True
70.927	0.34	Lose2	1.0	0.002	Yes	2.721	-0.002	4.0	GoodResponse	0	0.22	70.147	3	6	Target	AvoidedLoss	True
71.147	0.3	Lose2	1.0	0.002	Yes	2.721	-0.002	4.0	GoodResponse	0	0.22	n/a	3	6	ButtonPress	AvoidedLoss	True
71.277	0.36	Lose2	1.0	n/a	Yes	2.721	n/a	n/a	GoodResponse	0	n/a	n/a	3	6	Blank	AvoidedLoss	True
71.627	1.45	Lose2	1.0	n/a	Yes	2.721	n/a	5.0	GoodResponse	0	0.009	70.636	3	6	Feedback	AvoidedLoss	True
73.076	2.721	Lose2	1.0	n/a	Yes	2.721	n/a	n/a	GoodResponse	0	0.0	n/a	3	6	ISIslide	AvoidedLoss	True
75.825	0.25	Lose2	1.0	0.0	Yes	4.025	0.025	n/a	GoodResponse	0	n/a	n/a	3	7	Cue	AvoidedLoss	True
76.075	4.05	Lose2	1.0	0.0	Yes	4.025	0.0	n/a	GoodResponse	0	n/a	n/a	3	7	Fixation	AvoidedLoss	True
80.124	0.33	Lose2	1.0	0.001	Yes	4.025	-0.001	4.0	GoodResponse	0	0.213	79.337	3	7	Target	AvoidedLoss	True
80.337	0.3	Lose2	1.0	0.001	Yes	4.025	-0.001	4.0	GoodResponse	0	0.213	n/a	3	7	ButtonPress	AvoidedLoss	True
80.457	0.37	Lose2	1.0	n/a	Yes	4.025	n/a	n/a	GoodResponse	0	n/a	n/a	3	7	Blank	AvoidedLoss	True
80.824	1.45	Lose2	1.0	n/a	Yes	4.025	n/a	5.0	GoodResponse	0	0.031	79.855	3	7	Feedback	AvoidedLoss	True
82.273	4.025	Lose2	1.0	n/a	Yes	4.025	n/a	n/a	GoodResponse	0	0.0	n/a	3	7	ISIslide	AvoidedLoss	True
86.322	0.25	Lose2	1.0	0.0	Yes	3.028	0.022	n/a	GoodResponse	0	n/a	n/a	3	8	Cue	AvoidedLoss	True
86.572	3.95	Lose2	1.0	0.0	Yes	3.028	0.0	n/a	GoodResponse	0	n/a	n/a	3	8	Fixation	AvoidedLoss	True
90.52	0.32	Lose2	1.0	0.002	Yes	3.028	-0.002	4.0	GoodResponse	0	0.192	89.712	3	8	Target	AvoidedLoss	True
90.712	0.3	Lose2	1.0	0.002	Yes	3.028	-0.002	4.0	GoodResponse	0	0.192	n/a	3	8	ButtonPress	AvoidedLoss	True
90.853	0.38	Lose2	1.0	n/a	Yes	3.028	n/a	n/a	GoodResponse	0	n/a	n/a	3	8	Blank	AvoidedLoss	True
91.22	1.45	Lose2	1.0	n/a	Yes	3.028	n/a	5.0	GoodResponse	0	0.025	90.245	3	8	Feedback	AvoidedLoss	True
92.669	3.028	Lose2	1.0	n/a	Yes	3.028	n/a	n/a	GoodResponse	0	0.0	n/a	3	8	ISIslide	AvoidedLoss	True
95.718	0.25	Lose2	1.0	0.0	Yes	3.132	0.018	n/a	GoodResponse	0	n/a	n/a	3	9	Cue	AvoidedLoss	True
95.968	3.95	Lose2	1.0	0.0	Yes	3.132	0.0	n/a	GoodResponse	0	n/a	n/a	3	9	Fixation	AvoidedLoss	True
99.917	0.31	Lose2	1.0	0.001	Yes	3.132	-0.001	4.0	GoodResponse	0	0.188	99.105	3	9	Target	AvoidedLoss	True
100.105	0.3	Lose2	1.0	0.001	Yes	3.132	-0.001	4.0	GoodResponse	0	0.188	n/a	3	9	ButtonPress	AvoidedLoss	True
100.233	0.39	Lose2	1.0	n/a	Yes	3.132	n/a	n/a	GoodResponse	0	n/a	n/a	3	9	Blank	AvoidedLoss	True
100.617	1.45	Lose2	1.0	n/a	Yes	3.132	n/a	5.0	GoodResponse	0	0.0	99.617	3	9	Feedback	AvoidedLoss	True
102.066	3.132	Lose2	1.0	n/a	Yes	3.132	n/a	n/a	GoodResponse	0	0.0	n/a	3	9	ISIslide	AvoidedLoss	True
105.215	0.25	Control	1.0	0.0	Yes	3.285	0.015	n/a	GoodResponse	0	n/a	n/a	3	10	Cue	Neutral	True
105.465	4.0	Control	1.0	0.0	Yes	3.285	0.0	n/a	GoodResponse	0	n/a	n/a	3	10	Fixation	Neutral	True
109.464	0.3	Control	1.0	0.001	Yes	3.285	-0.001	4.0	GoodResponse	0	0.203	108.667	3	10	Target	Neutral	True
109.667	0.3	Control	1.0	0.001	Yes	3.285	-0.001	4.0	GoodResponse	0	0.203	n/a	3	10	ButtonPress	Neutral	True
109.763	0.4	Control	1.0	n/a	Yes	3.285	n/a	n/a	GoodResponse	0	n/a	n/a	3	10	Blank	Neutral	True
110.163	1.45	Control	1.0	n/a	Yes	3.285	n/a	5.0	GoodResponse	0	0.009	109.172	3	10	Feedback	Neutral	True
111.613	3.285	Control	1.0	n/a	Yes	3.285	n/a	n/a	GoodResponse	0	0.0	n/a	3	10	ISIslide	Neutral	True
114.928	0.25	Lose2	1.0	0.0	Yes	2.722	0.028	n/a	GoodResponse	0	n/a	n/a	3	11	Cue	AvoidedLoss	True
115.178	4.05	Lose2	1.0	0.0	Yes	2.722	0.0	n/a	GoodResponse	0	n/a	n/a	3	11	Fixation	AvoidedLoss	True
119.227	0.29	Lose2	1.0	0.001	Yes	2.722	-0.001	4.0	GoodResponse	0	0.188	118.415	3	11	Target	AvoidedLoss	True
119.415	0.3	Lose2	1.0	0.001	Yes	2.722	-0.001	4.0	GoodResponse	0	0.188	n/a	3	11	ButtonPress	AvoidedLoss	True
119.527	0.41	Lose2	1.0	n/a	Yes	2.722	n/a	n/a	GoodResponse	0	n/a	n/a	3	11	Blank	AvoidedLoss	True
119.927	1.45	Lose2	1.0	n/a	Yes	2.722	n/a	5.0	GoodResponse	0	0.001	118.928	3	11	Feedback	AvoidedLoss	True
121.376	2.722	Lose2	1.0	n/a	Yes	2.722	n/a	n/a	GoodResponse	0	0.0	n/a	3	11	ISIslide	AvoidedLoss	True
124.125	0.25	Control	1.0	0.0	Yes	2.975	0.025	n/a	GoodResponse	0	n/a	n/a	3	12	Cue	Neutral	True
124.375	3.9	Control	1.0	0.0	Yes	2.975	0.0	n/a	GoodResponse	0	n/a	n/a	3	12	Fixation	Neutral	True
128.274	0.28	Control	1.0	0.001	Yes	2.975	-0.001	4.0	GoodResponse	0	0.203	127.477	3	12	Target	Neutral	True
128.477	0.3	Control	1.0	0.001	Yes	2.975	-0.001	4.0	GoodResponse	0	0.203	n/a	3	12	ButtonPress	Neutral	True
128.557	0.42	Control	1.0	n/a	Yes	2.975	n/a	n/a	GoodResponse	0	n/a	n/a	3	12	Blank	Neutral	True
128.973	1.45	Control	1.0	n/a	Yes	2.975	n/a	5.0	GoodResponse	0	0.028	128.001	3	12	Feedback	Neutral	True
130.423	2.975	Control	1.0	n/a	Yes	2.975	n/a	n/a	GoodResponse	0	0.0	n/a	3	12	ISIslide	Neutral	True
133.422	0.25	Control	1.0	0.0	Yes	2.778	0.022	n/a	GoodResponse	0	n/a	n/a	3	13	Cue	Neutral	True
133.672	4.0	Control	1.0	0.0	Yes	2.778	0.0	n/a	GoodResponse	0	n/a	n/a	3	13	Fixation	Neutral	True
137.67	0.27	Control	1.0	0.002	Yes	2.778	-0.002	4.0	GoodResponse	0	0.197	136.867	3	13	Target	Neutral	True
137.867	0.3	Control	1.0	0.002	Yes	2.778	-0.002	4.0	GoodResponse	0	0.197	n/a	3	13	ButtonPress	Neutral	True
137.954	0.43	Control	1.0	n/a	Yes	2.778	n/a	n/a	GoodResponse	0	n/a	n/a	3	13	Blank	Neutral	True
138.37	1.45	Control	1.0	n/a	Yes	2.778	n/a	5.0	GoodResponse	0	0.045	137.415	3	13	Feedback	Neutral	True
139.82	2.778	Control	1.0	n/a	Yes	2.778	n/a	n/a	GoodResponse	0	0.0	n/a	3	13	ISIslide	Neutral	True
142.619	0.25	Win2	1.0	0.0	Yes	2.681	0.019	n/a	GoodResponse	1	n/a	n/a	4	14	Cue	Win	True
142.868	4.1	Win2	1.0	0.001	Yes	2.681	-0.001	n/a	GoodResponse	1	n/a	n/a	4	14	Fixation	Win	True
146.967	0.26	Win2	1.0	0.002	Yes	2.681	-0.002	4.0	GoodResponse	1	0.206	146.173	4	14	Target	Win	True
147.173	0.3	Win2	1.0	0.002	Yes	2.681	-0.002	4.0	GoodResponse	1	0.206	n/a	4	14	ButtonPress	Win	True
147.234	0.44	Win2	1.0	n/a	Yes	2.681	n/a	n/a	GoodResponse	1	n/a	n/a	4	14	Blank	Win	True
147.667	1.45	Win2	1.0	n/a	Yes	2.681	n/a	5.0	GoodResponse	1	0.017	146.684	4	14	Feedback	Win	True
149.116	2.681	Win2	1.0	n/a	Yes	2.681	n/a	n/a	GoodResponse	1	0.0	n/a	4	14	ISIslide	Win	True
151.815	0.25	Control	1.0	0.0	Yes	2.985	0.015	n/a	GoodResponse	0	n/a	n/a	4	15	Cue	Neutral	True
152.065	4.0	Control	1.0	0.0	Yes	2.985	0.0	n/a	GoodResponse	0	n/a	n/a	4	15	Fixation	Neutral	True
156.064	0.25	Control	1.0	0.001	Yes	2.985	-0.001	4.0	GoodResponse	0	0.23	155.294	4	15	Target	Neutral	True
156.294	0.3	Control	1.0	0.001	Yes	2.985	-0.001	4.0	GoodResponse	0	0.23	n/a	4	15	ButtonPress	Neutral	True
156.314	0.45	Control	1.0	n/a	Yes	2.985	n/a	n/a	GoodResponse	0	n/a	n/a	4	15	Blank	Neutral	True
156.764	1.45	Control	1.0	n/a	Yes	2.985	n/a	5.0	GoodResponse	0	0.042	155.806	4	15	Feedback	Neutral	True
158.213	2.985	Control	1.0	n/a	Yes	2.985	n/a	n/a	GoodResponse	0	0.0	n/a	4	15	ISIslide	Neutral	True
161.229	0.25	Win2	1.0	0.0	Yes	2.871	0.029	n/a	GoodResponse	1	n/a	n/a	5	16	Cue	Win	True
161.479	4.0	Win2	1.0	0.0	Yes	2.871	0.0	n/a	GoodResponse	1	n/a	n/a	5	16	Fixation	Win	True
165.477	0.24	Win2	1.0	0.002	Yes	2.871	-0.002	4.0	GoodResponse	1	0.222	164.699	5	16	Target	Win	True
165.699	0.3	Win2	1.0	0.002	Yes	2.871	-0.002	4.0	GoodResponse	1	0.222	n/a	5	16	ButtonPress	Win	True
165.727	0.46	Win2	1.0	n/a	Yes	2.871	n/a	n/a	GoodResponse	1	n/a	n/a	5	16	Blank	Win	True
166.177	1.45	Win2	1.0	n/a	Yes	2.871	n/a	5.0	GoodResponse	1	0.043	165.22	5	16	Feedback	Win	True
167.626	2.871	Win2	1.0	n/a	Yes	2.871	n/a	n/a	GoodResponse	1	0.0	n/a	5	16	ISIslide	Win	True
170.525	0.25	Lose2	1.0	0.0	Yes	2.725	0.025	n/a	GoodResponse	0	n/a	n/a	5	17	Cue	AvoidedLoss	True
170.775	3.95	Lose2	1.0	0.0	Yes	2.725	0.0	n/a	GoodResponse	0	n/a	n/a	5	17	Fixation	AvoidedLoss	True
174.724	0.23	Lose2	1.0	0.001	Yes	2.725	-0.001	4.0	GoodResponse	0	0.194	173.918	5	17	Target	AvoidedLoss	True
174.918	0.3	Lose2	1.0	0.001	Yes	2.725	-0.001	4.0	GoodResponse	0	0.194	n/a	5	17	ButtonPress	AvoidedLoss	True
174.957	0.47	Lose2	1.0	n/a	Yes	2.725	n/a	n/a	GoodResponse	0	n/a	n/a	5	17	Blank	AvoidedLoss	True
175.424	1.45	Lose2	1.0	n/a	Yes	2.725	n/a	5.0	GoodResponse	0	0.016	174.44	5	17	Feedback	AvoidedLoss	True
176.873	2.725	Lose2	1.0	n/a	Yes	2.725	n/a	n/a	GoodResponse	0	0.0	n/a	5	17	ISIslide	AvoidedLoss	True
179.622	0.25	Lose2	1.0	0.0	Yes	2.728	0.022	n/a	GoodResponse	0	n/a	n/a	5	18	Cue	AvoidedLoss	True
179.872	4.05	Lose2	1.0	0.0	Yes	2.728	0.0	n/a	GoodResponse	0	n/a	n/a	5	18	Fixation	AvoidedLoss	True
183.921	0.22	Lose2	1.0	0.001	Yes	2.728	-0.001	4.0	GoodResponse	0	0.158	183.079	5	18	Target	AvoidedLoss	True
184.079	0.3	Lose2	1.0	0.001	Yes	2.728	-0.001	4.0	GoodResponse	0	0.158	n/a	5	18	ButtonPress	AvoidedLoss	True
184.154	0.48	Lose2	1.0	n/a	Yes	2.728	n/a	n/a	GoodResponse	0	n/a	n/a	5	18	Blank	AvoidedLoss	True
184.62	1.45	Lose2	1.0	n/a	Yes	2.728	n/a	5.0	GoodResponse	0	0.039	183.659	5	18	Feedback	AvoidedLoss	True
186.07	2.728	Lose2	1.0	n/a	Yes	2.728	n/a	n/a	GoodResponse	0	0.0	n/a	5	18	ISIslide	AvoidedLoss	True
188.819	0.25	Control	1.0	0.0	Yes	2.931	0.019	n/a	GoodResponse	0	n/a	n/a	5	19	Cue	Neutral	True
189.069	3.95	Control	1.0	0.0	Yes	2.931	0.0	n/a	GoodResponse	0	n/a	n/a	5	19	Fixation	Neutral	True
193.017	0.21	Control	1.0	0.002	Yes	2.931	-0.002	4.0	GoodResponse	0	0.174	192.191	5	19	Target	Neutral	True
193.191	0.3	Control	1.0	0.002	Yes	2.931	-0.002	4.0	GoodResponse	0	0.174	n/a	5	19	ButtonPress	Neutral	True
193.234	0.49	Control	1.0	n/a	Yes	2.931	n/a	n/a	GoodResponse	0	n/a	n/a	5	19	Blank	Neutral	True
193.717	1.45	Control	1.0	n/a	Yes	2.931	n/a	5.0	GoodResponse	0	0.015	192.732	5	19	Feedback	Neutral	True
195.167	2.931	Control	1.0	n/a	Yes	2.931	n/a	n/a	GoodResponse	0	0.0	n/a	5	19	ISIslide	Neutral	True
198.116	0.25	Control	1.0	0.0	Yes	2.634	0.016	n/a	GoodResponse	0	n/a	n/a	5	20	Cue	Neutral	True
198.366	4.05	Control	1.0	0.0	Yes	2.634	0.0	n/a	GoodResponse	0	n/a	n/a	5	20	Fixation	Neutral	True
202.414	0.2	Control	1.0	0.002	Yes	2.634	-0.002	4.0	GoodResponse	0	0.184	201.598	5	20	Target	Neutral	True
202.598	0.3	Control	1.0	0.002	Yes	2.634	-0.002	4.0	GoodResponse	0	0.184	n/a	5	20	ButtonPress	Neutral	True
202.614	0.5	Control	1.0	n/a	Yes	2.634	n/a	n/a	GoodResponse	0	n/a	n/a	5	20	Blank	Neutral	True
203.114	1.45	Control	1.0	n/a	Yes	2.634	n/a	5.0	GoodResponse	0	0.033	202.147	5	20	Feedback	Neutral	True
204.563	2.634	Control	1.0	n/a	Yes	2.634	n/a	n/a	GoodResponse	0	0.0	n/a	5	20	ISIslide	Neutral	True
207.229	0.25	Control	0.9545	0.0	No	2.771	0.029	n/a	LatePress	0	n/a	n/a	5	21	Cue	Neutral	True
207.479	4.1	Control	0.9545	0.0	No	2.771	0.0	n/a	LatePress	0	n/a	n/a	5	21	Fixation	Neutral	True
211.578	0.19	Control	0.9545	0.001	No	2.771	-0.001	4.0	LatePress	0	0.192	210.77	5	21	Target	Neutral	True
211.77	0.3	Control	0.9545	0.001	No	2.771	-0.001	4.0	LatePress	0	0.192	n/a	5	21	ButtonPress	Neutral	True
211.778	0.51	Control	0.9545	n/a	No	2.771	n/a	n/a	LatePress	0	n/a	n/a	5	21	Blank	Neutral	True
212.277	1.45	Control	0.9545	n/a	No	2.771	n/a	5.0	LatePress	0	0.041	211.318	5	21	Feedback	Neutral	True
213.727	2.771	Control	0.9545	n/a	No	2.771	n/a	n/a	LatePress	0	0.0	n/a	5	21	ISIslide	Neutral	True
216.526	0.25	Control	0.9129999999999999	0.0	No	2.774	0.026	n/a	NoResponse	0	n/a	n/a	5	22	Cue	Neutral	True
216.776	4.0	Control	0.9129999999999999	0.0	No	2.774	0.0	n/a	NoResponse	0	n/a	n/a	5	22	Fixation	Neutral	True
220.774	0.18	Control	0.9129999999999999	0.002	No	2.774	-0.002	4.0	NoResponse	0	0.262	220.036	5	22	Target	Neutral	True
220.958	0.52	Control	0.9129999999999999	n/a	No	2.774	n/a	n/a	NoResponse	0	n/a	n/a	5	22	Blank	Neutral	True
221.036	0.3	Control	0.9129999999999999	0.002	No	2.774	-0.002	4.0	NoResponse	0	0.262	n/a	5	22	ButtonPress	Neutral	True
221.474	1.45	Control	0.9129999999999999	n/a	No	2.774	n/a	5.0	NoResponse	0	0.014	220.488	5	22	Feedback	Neutral	True
222.924	2.774	Control	0.9129999999999999	n/a	No	2.774	n/a	n/a	NoResponse	0	0.0	n/a	5	22	ISIslide	Neutral	True
225.723	0.25	Control	0.875	0.0	No	2.777	0.023	n/a	LatePress	0	n/a	n/a	5	23	Cue	Neutral	True
225.973	3.9	Control	0.875	0.0	No	2.777	0.0	n/a	LatePress	0	n/a	n/a	5	23	Fixation	Neutral	True
229.871	0.17	Control	0.875	0.002	No	2.777	-0.002	4.0	LatePress	0	0.176	229.047	5	23	Target	Neutral	True
230.047	0.3	Control	0.875	0.002	No	2.777	-0.002	4.0	LatePress	0	0.176	n/a	5	23	ButtonPress	Neutral	True
230.054	0.53	Control	0.875	n/a	No	2.777	n/a	n/a	LatePress	0	n/a	n/a	5	23	Blank	Neutral	True
230.571	1.45	Control	0.875	n/a	No	2.777	n/a	5.0	LatePress	0	0.039	229.61	5	23	Feedback	Neutral	True
232.02	2.777	Control	0.875	n/a	No	2.777	n/a	n/a	LatePress	0	0.0	n/a	5	23	ISIslide	Neutral	True
234.819	0.25	Win2	0.84	0.0	No	3.131	0.019	n/a	NoResponse	0	n/a	n/a	5	24	Cue	MissedWin	True
235.069	3.95	Win2	0.84	0.0	No	3.131	0.0	n/a	NoResponse	0	n/a	n/a	5	24	Fixation	MissedWin	True
239.018	0.16	Win2	0.84	0.001	No	3.131	-0.001	4.0	NoResponse	0	0.18	238.198	5	24	Target	MissedWin	True
239.185	0.54	Win2	0.84	n/a	No	3.131	n/a	n/a	NoResponse	0	n/a	n/a	5	24	Blank	MissedWin	True
239.198	0.3	Win2	0.84	0.001	No	3.131	-0.001	4.0	NoResponse	0	0.18	n/a	5	24	ButtonPress	MissedWin	True
239.718	1.45	Win2	0.84	n/a	No	3.131	n/a	5.0	NoResponse	0	0.014	238.732	5	24	Feedback	MissedWin	True
241.167	3.131	Win2	0.84	n/a	No	3.131	n/a	n/a	NoResponse	0	0.0	n/a	5	24	ISIslide	MissedWin	True
244.316	0.25	Win2	0.8077	0.0	No	3.084	0.016	n/a	NoResponse	0	n/a	n/a	5	25	Cue	MissedWin	True
244.566	4.0	Win2	0.8077	0.0	No	3.084	0.0	n/a	NoResponse	0	n/a	n/a	5	25	Fixation	MissedWin	True
248.565	0.15	Win2	0.8077	0.001	No	3.084	-0.001	4.0	NoResponse	0	0.2	247.765	5	25	Target	MissedWin	True
248.714	0.55	Win2	0.8077	n/a	No	3.084	n/a	n/a	NoResponse	0	n/a	n/a	5	25	Blank	MissedWin	True
248.765	0.3	Win2	0.8077	0.001	No	3.084	-0.001	4.0	NoResponse	0	0.2	n/a	5	25	ButtonPress	MissedWin	True
249.264	1.45	Win2	0.8077	n/a	No	3.084	n/a	5.0	NoResponse	0	0.029	248.293	5	25	Feedback	MissedWin	True
250.714	3.084	Win2	0.8077	n/a	No	3.084	n/a	n/a	NoResponse	0	0.0	n/a	5	25	ISIslide	MissedWin	True
253.829	0.25	Win2	0.7778	0.0	No	2.921	0.029	n/a	NoResponse	0	n/a	n/a	5	26	Cue	MissedWin	False
254.079	3.95	Win2	0.7778	0.0	No	2.921	0.0	4.0	NoResponse	0	1.577	254.656	5	26	Fixation	MissedWin	False
255.656	0.3	Win2	0.7778	0.0	No	2.921	0.0	4.0	NoResponse	0	1.577	n/a	5	26	ButtonPress	MissedWin	False
258.028	0.15	Win2	0.7778	0.001	No	2.921	-0.001	4.0	NoResponse	0	0.185	257.213	5	26	Target	MissedWin	False
258.178	0.55	Win2	0.7778	n/a	No	2.921	n/a	n/a	NoResponse	0	n/a	n/a	5	26	Blank	MissedWin	False
258.213	0.3	Win2	0.7778	0.001	No	2.921	-0.001	4.0	NoResponse	0	0.185	n/a	5	26	ButtonPress	MissedWin	False
258.728	1.45	Win2	0.7778	n/a	No	2.921	n/a	5.0	NoResponse	0	0.028	257.756	5	26	Feedback	MissedWin	False
260.177	2.921	Win2	0.7778	n/a	No	2.921	n/a	n/a	NoResponse	0	0.0	n/a	5	26	ISIslide	MissedWin	False
263.126	0.25	Lose2	0.75	0.0	No	2.824	0.026	n/a	NoResponse	-1	n/a	n/a	4	27	Cue	Loss	True
263.376	4.05	Lose2	0.75	0.0	No	2.824	0.0	n/a	NoResponse	-1	n/a	n/a	4	27	Fixation	Loss	True
267.425	0.15	Lose2	0.75	0.001	No	2.824	-0.001	4.0	NoResponse	-1	0.174	266.599	4	27	Target	Loss	True
267.575	0.55	Lose2	0.75	n/a	No	2.824	n/a	n/a	NoResponse	-1	n/a	n/a	4	27	Blank	Loss	True
267.599	0.3	Lose2	0.75	0.001	No	2.824	-0.001	4.0	NoResponse	-1	0.174	n/a	4	27	ButtonPress	Loss	True
268.124	1.45	Lose2	0.75	n/a	No	2.824	n/a	5.0	NoResponse	-1	0.046	267.17	4	27	Feedback	Loss	True
269.574	2.824	Lose2	0.75	n/a	No	2.824	n/a	n/a	NoResponse	-1	0.0	n/a	4	27	ISIslide	Loss	True
272.423	0.25	Control	0.7241	0.0	No	2.827	0.023	n/a	NoResponse	0	n/a	n/a	4	28	Cue	Neutral	True
272.673	4.05	Control	0.7241	0.0	No	2.827	0.0	n/a	NoResponse	0	n/a	n/a	4	28	Fixation	Neutral	True
276.721	0.15	Control	0.7241	0.002	No	2.827	-0.002	4.0	NoResponse	0	0.193	275.914	4	28	Target	Neutral	True
276.871	0.55	Control	0.7241	n/a	No	2.827	n/a	n/a	NoResponse	0	n/a	n/a	4	28	Blank	Neutral	True
276.914	0.3	Control	0.7241	0.002	No	2.827	-0.002	4.0	NoResponse	0	0.193	n/a	4	28	ButtonPress	Neutral	True
277.421	1.45	Control	0.7241	n/a	No	2.827	n/a	5.0	NoResponse	0	0.017	276.438	4	28	Feedback	Neutral	True
278.871	2.827	Control	0.7241	n/a	No	2.827	n/a	n/a	NoResponse	0	0.0	n/a	4	28	ISIslide	Neutral	True
281.72	0.25	Lose2	0.7	0.0	No	2.83	0.02	n/a	NoResponse	-1	n/a	n/a	3	29	Cue	Loss	True
281.969	3.95	Lose2	0.7	0.001	No	2.83	-0.001	n/a	NoResponse	-1	n/a	n/a	3	29	Fixation	Loss	True
285.918	0.15	Lose2	0.7	0.002	No	2.83	-0.002	4.0	NoResponse	-1	0.178	285.096	3	29	Target	Loss	True
286.068	0.55	Lose2	0.7	n/a	No	2.83	n/a	n/a	NoResponse	-1	n/a	n/a	3	29	Blank	Loss	True
286.096	0.3	Lose2	0.7	0.002	No	2.83	-0.002	4.0	NoResponse	-1	0.178	n/a	3	29	ButtonPress	Loss	True
286.618	1.45	Lose2	0.7	n/a	No	2.83	n/a	5.0	NoResponse	-1	0.04	285.658	3	29	Feedback	Loss	True
288.067	2.83	Lose2	0.7	n/a	No	2.83	n/a	n/a	NoResponse	-1	0.0	n/a	3	29	ISIslide	Loss	True
290.916	0.25	Win2	0.6774	0.0	No	2.784	0.016	n/a	NoResponse	0	n/a	n/a	3	30	Cue	MissedWin	False
291.166	3.9	Win2	0.6774	0.0	No	2.784	0.0	4.0	NoResponse	0	2.95	293.116	3	30	Fixation	MissedWin	False
294.116	0.3	Win2	0.6774	0.0	No	2.784	0.0	4.0	NoResponse	0	2.95	n/a	3	30	ButtonPress	MissedWin	False
295.065	0.15	Win2	0.6774	0.001	No	2.784	-0.001	4.0	NoResponse	0	0.169	294.234	3	30	Target	MissedWin	False
295.215	0.55	Win2	0.6774	n/a	No	2.784	n/a	n/a	NoResponse	0	n/a	n/a	3	30	Blank	MissedWin	False
295.234	0.3	Win2	0.6774	0.001	No	2.784	-0.001	4.0	NoResponse	0	0.169	n/a	3	30	ButtonPress	MissedWin	False
295.765	1.45	Win2	0.6774	n/a	No	2.784	n/a	5.0	NoResponse	0	0.015	294.78	3	30	Feedback	MissedWin	False
297.214	2.784	Win2	0.6774	n/a	No	2.784	n/a	n/a	NoResponse	0	0.0	n/a	3	30	ISIslide	MissedWin	False
300.03	0.25	Lose2	0.6562	0.0	No	2.82	0.03	n/a	PrematurePress	-1	n/a	n/a	2	31	Cue	Loss	False
300.28	4.05	Lose2	0.6562	0.0	No	2.82	0.0	4.0	PrematurePress	-1	3.438	302.718	2	31	Fixation	Loss	False
303.718	0.3	Lose2	0.6562	0.0	No	2.82	0.0	4.0	PrematurePress	-1	3.438	n/a	2	31	ButtonPress	Loss	False
304.328	0.15	Lose2	0.6562	0.002	No	2.82	-0.002	4.0	PrematurePress	-1	0.019	303.347	2	31	Target	Loss	False
304.347	0.3	Lose2	0.6562	0.002	No	2.82	-0.002	4.0	PrematurePress	-1	0.019	n/a	2	31	ButtonPress	Loss	False
304.478	0.55	Lose2	0.6562	n/a	No	2.82	n/a	n/a	PrematurePress	-1	n/a	n/a	2	31	Blank	Loss	False
305.028	1.45	Lose2	0.6562	n/a	No	2.82	n/a	5.0	PrematurePress	-1	0.021	304.049	2	31	Feedback	Loss	False
306.477	2.82	Lose2	0.6562	n/a	No	2.82	n/a	n/a	PrematurePress	-1	0.0	n/a	2	31	ISIslide	Loss	False
309.326	0.25	Lose2	0.6364	0.001	No	2.624	0.026	n/a	NoResponse	-1	n/a	n/a	1	32	Cue	Loss	True
309.576	4.15	Lose2	0.6364	0.0	No	2.624	0.0	4.0	NoResponse	-1	3.986	312.562	1	32	Fixation	Loss	True
313.562	0.3	Lose2	0.6364	0.0	No	2.624	0.0	4.0	NoResponse	-1	3.986	n/a	1	32	ButtonPress	Loss	True
313.725	0.15	Lose2	0.6364	0.001	No	2.624	-0.001	n/a	NoResponse	-1	n/a	n/a	1	32	Target	Loss	True
313.875	0.55	Lose2	0.6364	n/a	No	2.624	n/a	n/a	NoResponse	-1	n/a	n/a	1	32	Blank	Loss	True
314.425	1.45	Lose2	0.6364	n/a	No	2.624	n/a	5.0	NoResponse	-1	0.037	313.462	1	32	Feedback	Loss	True
315.874	2.624	Lose2	0.6364	n/a	No	2.624	n/a	n/a	NoResponse	-1	0.0	n/a	1	32	ISIslide	Loss	True
318.523	0.25	Win2	0.6175999999999999	0.0	No	2.677	0.023	n/a	NoResponse	0	n/a	n/a	1	33	Cue	MissedWin	True
318.773	4.0	Win2	0.6175999999999999	0.0	No	2.677	0.0	n/a	NoResponse	0	n/a	n/a	1	33	Fixation	MissedWin	True
322.772	0.16	Win2	0.6175999999999999	0.001	No	2.677	-0.001	4.0	NoResponse	0	0.196	321.968	1	33	Target	MissedWin	True
322.938	0.54	Win2	0.6175999999999999	n/a	No	2.677	n/a	n/a	NoResponse	0	n/a	n/a	1	33	Blank	MissedWin	True
322.968	0.3	Win2	0.6175999999999999	0.001	No	2.677	-0.001	4.0	NoResponse	0	0.196	n/a	1	33	ButtonPress	MissedWin	True
323.472	1.45	Win2	0.6175999999999999	n/a	No	2.677	n/a	5.0	NoResponse	0	0.015	322.487	1	33	Feedback	MissedWin	True
324.921	2.677	Win2	0.6175999999999999	n/a	No	2.677	n/a	n/a	NoResponse	0	0.0	n/a	1	33	ISIslide	MissedWin	True
327.62	0.25	Lose2	0.6	0.0	No	2.63	0.02	n/a	NoResponse	-1	n/a	n/a	0	34	Cue	Loss	True
327.87	4.05	Lose2	0.6	0.0	No	2.63	0.0	4.0	NoResponse	-1	3.87	330.74	0	34	Fixation	Loss	True
331.74	0.3	Lose2	0.6	0.0	No	2.63	0.0	4.0	NoResponse	-1	3.87	n/a	0	34	ButtonPress	Loss	True
331.919	0.17	Lose2	0.6	0.001	No	2.63	-0.001	n/a	NoResponse	-1	n/a	n/a	0	34	Target	Loss	True
332.102	0.53	Lose2	0.6	n/a	No	2.63	n/a	n/a	NoResponse	-1	n/a	n/a	0	34	Blank	Loss	True
332.618	1.45	Lose2	0.6	n/a	No	2.63	n/a	5.0	NoResponse	-1	0.04	331.658	0	34	Feedback	Loss	True
334.068	2.63	Lose2	0.6	n/a	No	2.63	n/a	n/a	NoResponse	-1	0.0	n/a	0	34	ISIslide	Loss	True
336.717	0.25	Lose2	0.5832999999999999	0.0	No	2.683	0.017	n/a	NoResponse	-1	n/a	n/a	-1	35	Cue	Loss	True
336.967	4.0	Lose2	0.5832999999999999	0.0	No	2.683	0.0	n/a	NoResponse	-1	n/a	n/a	-1	35	Fixation	Loss	True
340.965	0.18	Lose2	0.5832999999999999	0.002	No	2.683	-0.002	4.0	NoResponse	-1	0.192	340.157	-1	35	Target	Loss	True
341.149	0.52	Lose2	0.5832999999999999	n/a	No	2.683	n/a	n/a	NoResponse	-1	n/a	n/a	-1	35	Blank	Loss	True
341.157	0.3	Lose2	0.5832999999999999	0.002	No	2.683	-0.002	4.0	NoResponse	-1	0.192	n/a	-1	35	ButtonPress	Loss	True
341.665	1.45	Lose2	0.5832999999999999	n/a	No	2.683	n/a	5.0	NoResponse	-1	0.017	340.682	-1	35	Feedback	Loss	True
343.115	2.683	Lose2	0.5832999999999999	n/a	No	2.683	n/a	n/a	NoResponse	-1	0.0	n/a	-1	35	ISIslide	Loss	True
345.83	0.25	Control	0.5946	0.0	Yes	2.67	0.03	n/a	GoodResponse	0	n/a	n/a	-1	36	Cue	Neutral	True
346.08	4.0	Control	0.5946	0.0	Yes	2.67	0.0	n/a	GoodResponse	0	n/a	n/a	-1	36	Fixation	Neutral	True
350.079	0.19	Control	0.5946	0.001	Yes	2.67	-0.001	4.0	GoodResponse	0	0.178	349.257	-1	36	Target	Neutral	True
350.257	0.3	Control	0.5946	0.001	Yes	2.67	-0.001	4.0	GoodResponse	0	0.178	n/a	-1	36	ButtonPress	Neutral	True
350.279	0.51	Control	0.5946	n/a	Yes	2.67	n/a	n/a	GoodResponse	0	n/a	n/a	-1	36	Blank	Neutral	True
350.779	1.45	Control	0.5946	n/a	Yes	2.67	n/a	5.0	GoodResponse	0	0.024	349.803	-1	36	Feedback	Neutral	True
352.228	2.67	Control	0.5946	n/a	Yes	2.67	n/a	n/a	GoodResponse	0	0.0	n/a	-1	36	ISIslide	Neutral	True
354.927	0.25	Win2	0.5789	0.0	No	2.873	0.027	n/a	NoResponse	0	n/a	n/a	-1	37	Cue	MissedWin	False
355.177	4.0	Win2	0.5789	0.0	No	2.873	0.0	4.0	NoResponse	0	3.719	357.896	-1	37	Fixation	MissedWin	False
358.896	0.3	Win2	0.5789	0.0	No	2.873	0.0	4.0	NoResponse	0	3.719	n/a	-1	37	ButtonPress	MissedWin	False
359.176	0.2	Win2	0.5789	0.001	No	2.873	-0.001	4.0	NoResponse	0	0.37	358.546	-1	37	Target	MissedWin	False
359.376	0.5	Win2	0.5789	n/a	No	2.873	n/a	n/a	NoResponse	0	n/a	n/a	-1	37	Blank	MissedWin	False
359.546	0.3	Win2	0.5789	0.001	No	2.873	-0.001	4.0	NoResponse	0	0.37	n/a	-1	37	ButtonPress	MissedWin	False
359.875	1.45	Win2	0.5789	n/a	No	2.873	n/a	5.0	NoResponse	0	0.007	358.882	-1	37	Feedback	MissedWin	False
361.325	2.873	Win2	0.5789	n/a	No	2.873	n/a	n/a	NoResponse	0	0.0	n/a	-1	37	ISIslide	MissedWin	False
364.224	0.25	Lose2	0.5640999999999999	0.0	No	2.826	0.024	n/a	PrematurePress	-1	n/a	n/a	-2	38	Cue	Loss	True
364.474	3.95	Lose2	0.5640999999999999	0.0	No	2.826	0.0	n/a	PrematurePress	-1	n/a	n/a	-2	38	Fixation	Loss	True
368.422	0.21	Lose2	0.5640999999999999	0.002	No	2.826	-0.002	4.0	PrematurePress	-1	0.014	367.436	-2	38	Target	Loss	True
368.436	0.3	Lose2	0.5640999999999999	0.002	No	2.826	-0.002	4.0	PrematurePress	-1	0.014	n/a	-2	38	ButtonPress	Loss	True
368.639	0.49	Lose2	0.5640999999999999	n/a	No	2.826	n/a	n/a	PrematurePress	-1	n/a	n/a	-2	38	Blank	Loss	True
369.122	1.45	Lose2	0.5640999999999999	n/a	No	2.826	n/a	5.0	PrematurePress	-1	0.023	368.145	-2	38	Feedback	Loss	True
370.572	2.826	Lose2	0.5640999999999999	n/a	No	2.826	n/a	n/a	PrematurePress	-1	0.0	n/a	-2	38	ISIslide	Loss	True
373.421	0.25	Win2	0.575	0.0	Yes	2.979	0.021	n/a	GoodResponse	1	n/a	n/a	-1	39	Cue	Win	True
373.67	4.1	Win2	0.575	0.001	Yes	2.979	-0.001	n/a	GoodResponse	1	n/a	n/a	-1	39	Fixation	Win	True
377.769	0.22	Win2	0.575	0.002	Yes	2.979	-0.002	4.0	GoodResponse	1	0.161	376.93	-1	39	Target	Win	True
377.93	0.3	Win2	0.575	0.002	Yes	2.979	-0.002	4.0	GoodResponse	1	0.161	n/a	-1	39	ButtonPress	Win	True
378.002	0.48	Win2	0.575	n/a	Yes	2.979	n/a	n/a	GoodResponse	1	n/a	n/a	-1	39	Blank	Win	True
378.469	1.45	Win2	0.575	n/a	Yes	2.979	n/a	5.0	GoodResponse	1	0.042	377.511	-1	39	Feedback	Win	True
379.918	2.979	Win2	0.575	n/a	Yes	2.979	n/a	n/a	GoodResponse	1	0.0	n/a	-1	39	ISIslide	Win	True
382.917	0.25	Win2	0.5854	0.0	Yes	2.733	0.017	n/a	GoodResponse	1	n/a	n/a	0	40	Cue	Win	True
383.167	3.95	Win2	0.5854	0.0	Yes	2.733	0.0	n/a	GoodResponse	1	n/a	n/a	0	40	Fixation	Win	True
387.116	0.23	Win2	0.5854	0.001	Yes	2.733	-0.001	4.0	GoodResponse	1	0.198	386.314	0	40	Target	Win	True
387.314	0.3	Win2	0.5854	0.001	Yes	2.733	-0.001	4.0	GoodResponse	1	0.198	n/a	0	40	ButtonPress	Win	True
387.349	0.47	Win2	0.5854	n/a	Yes	2.733	n/a	n/a	GoodResponse	1	n/a	n/a	0	40	Blank	Win	True
387.816	1.45	Win2	0.5854	n/a	Yes	2.733	n/a	5.0	GoodResponse	1	0.012	386.828	0	40	Feedback	Win	True
389.265	2.733	Win2	0.5854	n/a	Yes	2.733	n/a	n/a	GoodResponse	1	0.0	n/a	0	40	ISIslide	Win	True
392.014	0.25	Win2	0.5952000000000001	0.0	Yes	2.786	0.014	n/a	GoodResponse	1	n/a	n/a	1	41	Cue	Win	True
392.264	3.9	Win2	0.5952000000000001	0.0	Yes	2.786	0.0	n/a	GoodResponse	1	n/a	n/a	1	41	Fixation	Win	True
396.163	0.24	Win2	0.5952000000000001	0.001	Yes	2.786	-0.001	4.0	GoodResponse	1	0.195	395.358	1	41	Target	Win	True
396.358	0.3	Win2	0.5952000000000001	0.001	Yes	2.786	-0.001	4.0	GoodResponse	1	0.195	n/a	1	41	ButtonPress	Win	True
396.412	0.46	Win2	0.5952000000000001	n/a	Yes	2.786	n/a	n/a	GoodResponse	1	n/a	n/a	1	41	Blank	Win	True
396.862	1.45	Win2	0.5952000000000001	n/a	Yes	2.786	n/a	5.0	GoodResponse	1	0.038	395.9	1	41	Feedback	Win	True
398.312	2.786	Win2	0.5952000000000001	n/a	Yes	2.786	n/a	n/a	GoodResponse	1	0.0	n/a	1	41	ISIslide	Win	True
401.127	0.25	Control	0.6047	0.001	Yes	2.923	0.027	n/a	GoodResponse	0	n/a	n/a	1	42	Cue	Neutral	True
401.377	3.85	Control	0.6047	0.0	Yes	2.923	0.0	n/a	GoodResponse	0	n/a	n/a	1	42	Fixation	Neutral	True
405.226	0.25	Control	0.6047	0.001	Yes	2.923	-0.001	4.0	GoodResponse	0	0.186	404.412	1	42	Target	Neutral	True
405.412	0.3	Control	0.6047	0.001	Yes	2.923	-0.001	4.0	GoodResponse	0	0.186	n/a	1	42	ButtonPress	Neutral	True
405.476	0.45	Control	0.6047	n/a	Yes	2.923	n/a	n/a	GoodResponse	0	n/a	n/a	1	42	Blank	Neutral	True
405.926	1.45	Control	0.6047	n/a	Yes	2.923	n/a	5.0	GoodResponse	0	0.048	404.974	1	42	Feedback	Neutral	True
407.375	2.923	Control	0.6047	n/a	Yes	2.923	n/a	n/a	GoodResponse	0	0.0	n/a	1	42	ISIslide	Neutral	True
410.324	0.25	Win2	0.6136	0.0	Yes	3.176	0.024	n/a	GoodResponse	1	n/a	n/a	2	43	Cue	Win	True
410.574	4.0	Win2	0.6136	0.0	Yes	3.176	0.0	n/a	GoodResponse	1	n/a	n/a	2	43	Fixation	Win	True
414.573	0.26	Win2	0.6136	0.001	Yes	3.176	-0.001	4.0	GoodResponse	1	0.208	413.781	2	43	Target	Win	True
414.781	0.3	Win2	0.6136	0.001	Yes	3.176	-0.001	4.0	GoodResponse	1	0.208	n/a	2	43	ButtonPress	Win	True
414.839	0.44	Win2	0.6136	n/a	Yes	3.176	n/a	n/a	GoodResponse	1	n/a	n/a	2	43	Blank	Win	True
415.272	1.45	Win2	0.6136	n/a	Yes	3.176	n/a	5.0	GoodResponse	1	0.019	414.291	2	43	Feedback	Win	True
416.722	3.176	Win2	0.6136	n/a	Yes	3.176	n/a	n/a	GoodResponse	1	0.0	n/a	2	43	ISIslide	Win	True
419.921	0.25	Win2	0.6222	0.0	Yes	2.979	0.021	n/a	GoodResponse	1	n/a	n/a	3	44	Cue	Win	True
420.171	4.0	Win2	0.6222	0.0	Yes	2.979	0.0	n/a	GoodResponse	1	n/a	n/a	3	44	Fixation	Win	True
424.169	0.27	Win2	0.6222	0.002	Yes	2.979	-0.002	4.0	GoodResponse	1	0.212	423.381	3	44	Target	Win	True
424.381	0.3	Win2	0.6222	0.002	Yes	2.979	-0.002	4.0	GoodResponse	1	0.212	n/a	3	44	ButtonPress	Win	True
424.453	0.43	Win2	0.6222	n/a	Yes	2.979	n/a	n/a	GoodResponse	1	n/a	n/a	3	44	Blank	Win	True
424.869	1.45	Win2	0.6222	n/a	Yes	2.979	n/a	5.0	GoodResponse	1	0.032	423.901	3	44	Feedback	Win	True
426.319	2.979	Win2	0.6222	n/a	Yes	2.979	n/a	n/a	GoodResponse	1	0.0	n/a	3	44	ISIslide	Win	True
429.318	0.25	Control	0.6304	0.0	Yes	2.882	0.018	n/a	GoodResponse	0	n/a	n/a	3	45	Cue	Neutral	False
429.567	4.1	Control	0.6304	0.001	Yes	2.882	-0.001	4.0	GoodResponse	0	3.343	431.91	3	45	Fixation	Neutral	False
432.91	0.3	Control	0.6304	0.001	Yes	2.882	-0.001	4.0	GoodResponse	0	3.343	n/a	3	45	ButtonPress	Neutral	False
433.666	0.28	Control	0.6304	0.002	Yes	2.882	-0.002	4.0	GoodResponse	0	0.259	432.925	3	45	Target	Neutral	False
433.925	0.3	Control	0.6304	0.002	Yes	2.882	-0.002	4.0	GoodResponse	0	0.259	n/a	3	45	ButtonPress	Neutral	False
433.949	0.42	Control	0.6304	n/a	Yes	2.882	n/a	n/a	GoodResponse	0	n/a	n/a	3	45	Blank	Neutral	False
434.366	1.45	Control	0.6304	n/a	Yes	2.882	n/a	5.0	GoodResponse	0	0.046	433.412	3	45	Feedback	Neutral	False
435.815	2.882	Control	0.6304	n/a	Yes	2.882	n/a	n/a	GoodResponse	0	0.0	n/a	3	45	ISIslide	Neutral	False
438.714	0.25	Lose2	0.6383	0.0	Yes	3.386	0.014	n/a	GoodResponse	0	n/a	n/a	3	46	Cue	AvoidedLoss	True
438.964	4.0	Lose2	0.6383	0.0	Yes	3.386	0.0	n/a	GoodResponse	0	n/a	n/a	3	46	Fixation	AvoidedLoss	True
442.963	0.29	Lose2	0.6383	0.001	Yes	3.386	-0.001	4.0	GoodResponse	0	0.2	442.163	3	46	Target	AvoidedLoss	True
443.163	0.3	Lose2	0.6383	0.001	Yes	3.386	-0.001	4.0	GoodResponse	0	0.2	n/a	3	46	ButtonPress	AvoidedLoss	True
443.263	0.41	Lose2	0.6383	n/a	Yes	3.386	n/a	n/a	GoodResponse	0	n/a	n/a	3	46	Blank	AvoidedLoss	True
443.662	1.45	Lose2	0.6383	n/a	Yes	3.386	n/a	5.0	GoodResponse	0	0.019	442.681	3	46	Feedback	AvoidedLoss	True
445.112	3.386	Lose2	0.6383	n/a	Yes	3.386	n/a	n/a	GoodResponse	0	0.0	n/a	3	46	ISIslide	AvoidedLoss	True
448.527	0.25	Lose2	0.6457999999999999	0.001	Yes	2.673	0.027	n/a	GoodResponse	0	n/a	n/a	3	47	Cue	AvoidedLoss	True
448.777	4.0	Lose2	0.6457999999999999	0.0	Yes	2.673	0.0	n/a	GoodResponse	0	n/a	n/a	3	47	Fixation	AvoidedLoss	True
452.776	0.3	Lose2	0.6457999999999999	0.001	Yes	2.673	-0.001	4.0	GoodResponse	0	0.257	452.033	3	47	Target	AvoidedLoss	True
453.033	0.3	Lose2	0.6457999999999999	0.001	Yes	2.673	-0.001	4.0	GoodResponse	0	0.257	n/a	3	47	ButtonPress	AvoidedLoss	True
453.076	0.4	Lose2	0.6457999999999999	n/a	Yes	2.673	n/a	n/a	GoodResponse	0	n/a	n/a	3	47	Blank	AvoidedLoss	True
453.476	1.45	Lose2	0.6457999999999999	n/a	Yes	2.673	n/a	5.0	GoodResponse	0	0.01	452.486	3	47	Feedback	AvoidedLoss	True
454.925	2.673	Lose2	0.6457999999999999	n/a	Yes	2.673	n/a	n/a	GoodResponse	0	0.0	n/a	3	47	ISIslide	AvoidedLoss	True
457.624	0.25	Lose2	0.6531	0.0	Yes	3.026	0.024	n/a	GoodResponse	0	n/a	n/a	3	48	Cue	AvoidedLoss	True
457.874	3.95	Lose2	0.6531	0.0	Yes	3.026	0.0	n/a	GoodResponse	0	n/a	n/a	3	48	Fixation	AvoidedLoss	True
461.823	0.31	Lose2	0.6531	0.001	Yes	3.026	-0.001	4.0	GoodResponse	0	0.219	461.042	3	48	Target	AvoidedLoss	True
462.042	0.3	Lose2	0.6531	0.001	Yes	3.026	-0.001	4.0	GoodResponse	0	0.219	n/a	3	48	ButtonPress	AvoidedLoss	True
462.139	0.39	Lose2	0.6531	n/a	Yes	3.026	n/a	n/a	GoodResponse	0	n/a	n/a	3	48	Blank	AvoidedLoss	True
462.523	1.45	Lose2	0.6531	n/a	Yes	3.026	n/a	5.0	GoodResponse	0	0.036	461.559	3	48	Feedback	AvoidedLoss	True
463.972	3.026	Lose2	0.6531	n/a	Yes	3.026	n/a	n/a	GoodResponse	0	0.0	n/a	3	48	ISIslide	AvoidedLoss	True
467.021	0.25	Control	0.66	0.0	Yes	2.879	0.021	n/a	GoodResponse	0	n/a	n/a	3	49	Cue	Neutral	True
467.271	4.0	Control	0.66	0.0	Yes	2.879	0.0	n/a	GoodResponse	0	n/a	n/a	3	49	Fixation	Neutral	True
471.269	0.32	Control	0.66	0.002	Yes	2.879	-0.002	4.0	GoodResponse	0	0.213	470.482	3	49	Target	Neutral	True
471.482	0.3	Control	0.66	0.002	Yes	2.879	-0.002	4.0	GoodResponse	0	0.213	n/a	3	49	ButtonPress	Neutral	True
471.603	0.38	Control	0.66	n/a	Yes	2.879	n/a	n/a	GoodResponse	0	n/a	n/a	3	49	Blank	Neutral	True
471.969	1.45	Control	0.66	n/a	Yes	2.879	n/a	5.0	GoodResponse	0	0.006	470.975	3	49	Feedback	Neutral	True
473.419	2.879	Control	0.66	n/a	Yes	2.879	n/a	n/a	GoodResponse	0	0.0	n/a	3	49	ISIslide	Neutral	True
476.318	0.25	Control	0.6667000000000001	0.0	Yes	2.782	0.018	n/a	GoodResponse	0	n/a	n/a	3	50	Cue	Neutral	True
476.568	4.0	Control	0.6667000000000001	0.0	Yes	2.782	0.0	n/a	GoodResponse	0	n/a	n/a	3	50	Fixation	Neutral	True
480.566	0.32	Control	0.6667000000000001	0.002	Yes	2.782	-0.002	4.0	GoodResponse	0	0.198	479.764	3	50	Target	Neutral	True
480.764	0.3	Control	0.6667000000000001	0.002	Yes	2.782	-0.002	4.0	GoodResponse	0	0.198	n/a	3	50	ButtonPress	Neutral	True
480.899	0.38	Control	0.6667000000000001	n/a	Yes	2.782	n/a	n/a	GoodResponse	0	n/a	n/a	3	50	Blank	Neutral	True
481.266	1.45	Control	0.6667000000000001	n/a	Yes	2.782	n/a	5.0	GoodResponse	0	0.024	480.29	3	50	Feedback	Neutral	True
482.715	2.782	Control	0.6667000000000001	n/a	Yes	2.782	n/a	n/a	GoodResponse	0	0.0	n/a	3	50	ISIslide	Neutral	True
485.514	0.25	Control	0.6537999999999999	0.001	No	2.736	0.014	n/a	NoResponse	0	n/a	n/a	3	51	Cue	Neutral	True
485.764	3.95	Control	0.6537999999999999	0.0	No	2.736	0.0	n/a	NoResponse	0	n/a	n/a	3	51	Fixation	Neutral	True
489.713	0.31	Control	0.6537999999999999	0.001	No	2.736	-0.001	4.0	NoResponse	0	0.434	489.147	3	51	Target	Neutral	True
490.029	0.39	Control	0.6537999999999999	n/a	No	2.736	n/a	n/a	NoResponse	0	n/a	n/a	3	51	Blank	Neutral	True
490.147	0.3	Control	0.6537999999999999	0.001	No	2.736	-0.001	4.0	NoResponse	0	0.434	n/a	3	51	ButtonPress	Neutral	True
490.413	1.45	Control	0.6537999999999999	n/a	No	2.736	n/a	5.0	NoResponse	0	0.048	489.461	3	51	Feedback	Neutral	True
491.862	2.736	Control	0.6537999999999999	n/a	No	2.736	n/a	n/a	NoResponse	0	0.0	n/a	3	51	ISIslide	Neutral	True
494.628	0.25	Control	0.6604000000000001	0.0	Yes	2.622	0.028	n/a	GoodResponse	0	n/a	n/a	3	52	Cue	Neutral	False
494.878	4.05	Control	0.6604000000000001	0.0	Yes	2.622	0.0	4.0	GoodResponse	0	3.535	497.413	3	52	Fixation	Neutral	False
498.413	0.3	Control	0.6604000000000001	0.0	Yes	2.622	0.0	4.0	GoodResponse	0	3.535	n/a	3	52	ButtonPress	Neutral	False
498.926	0.32	Control	0.6604000000000001	0.002	Yes	2.622	-0.002	4.0	GoodResponse	0	0.239	498.165	3	52	Target	Neutral	False
499.165	0.3	Control	0.6604000000000001	0.002	Yes	2.622	-0.002	4.0	GoodResponse	0	0.239	n/a	3	52	ButtonPress	Neutral	False
499.26	0.38	Control	0.6604000000000001	n/a	Yes	2.622	n/a	n/a	GoodResponse	0	n/a	n/a	3	52	Blank	Neutral	False
499.626	1.45	Control	0.6604000000000001	n/a	Yes	2.622	n/a	5.0	GoodResponse	0	0.007	498.633	3	52	Feedback	Neutral	False
501.076	2.622	Control	0.6604000000000001	n/a	Yes	2.622	n/a	n/a	GoodResponse	0	0.0	n/a	3	52	ISIslide	Neutral	False
503.725	0.25	Win2	0.6667000000000001	0.0	Yes	2.925	0.025	n/a	GoodResponse	1	n/a	n/a	4	53	Cue	Win	True
503.975	4.05	Win2	0.6667000000000001	0.0	Yes	2.925	0.0	n/a	GoodResponse	1	n/a	n/a	4	53	Fixation	Win	True
508.023	0.32	Win2	0.6667000000000001	0.002	Yes	2.925	-0.002	4.0	GoodResponse	1	0.211	507.234	4	53	Target	Win	True
508.234	0.3	Win2	0.6667000000000001	0.002	Yes	2.925	-0.002	4.0	GoodResponse	1	0.211	n/a	4	53	ButtonPress	Win	True
508.356	0.38	Win2	0.6667000000000001	n/a	Yes	2.925	n/a	n/a	GoodResponse	1	n/a	n/a	4	53	Blank	Win	True
508.723	1.45	Win2	0.6667000000000001	n/a	Yes	2.925	n/a	5.0	GoodResponse	1	0.031	507.754	4	53	Feedback	Win	True
510.172	2.925	Win2	0.6667000000000001	n/a	Yes	2.925	n/a	n/a	GoodResponse	1	0.0	n/a	4	53	ISIslide	Win	True
513.121	0.25	Win2	0.6727	0.0	Yes	2.729	0.021	n/a	GoodResponse	1	n/a	n/a	5	54	Cue	Win	True
513.371	3.95	Win2	0.6727	0.0	Yes	2.729	0.0	n/a	GoodResponse	1	n/a	n/a	5	54	Fixation	Win	True
517.32	0.31	Win2	0.6727	0.001	Yes	2.729	-0.001	4.0	GoodResponse	1	0.223	516.543	5	54	Target	Win	True
517.543	0.3	Win2	0.6727	0.001	Yes	2.729	-0.001	4.0	GoodResponse	1	0.223	n/a	5	54	ButtonPress	Win	True
517.636	0.39	Win2	0.6727	n/a	Yes	2.729	n/a	n/a	GoodResponse	1	n/a	n/a	5	54	Blank	Win	True
518.02	1.45	Win2	0.6727	n/a	Yes	2.729	n/a	5.0	GoodResponse	1	0.002	517.022	5	54	Feedback	Win	True
519.469	2.729	Win2	0.6727	n/a	Yes	2.729	n/a	n/a	GoodResponse	1	0.0	n/a	5	54	ISIslide	Win	True
522.218	0.25	Control	0.6786	0.0	Yes	3.032	0.018	n/a	GoodResponse	0	n/a	n/a	5	55	Cue	Neutral	True
522.468	3.95	Control	0.6786	0.0	Yes	3.032	0.0	n/a	GoodResponse	0	n/a	n/a	5	55	Fixation	Neutral	True
526.417	0.3	Control	0.6786	0.001	Yes	3.032	-0.001	4.0	GoodResponse	0	0.243	525.66	5	55	Target	Neutral	True
526.66	0.3	Control	0.6786	0.001	Yes	3.032	-0.001	4.0	GoodResponse	0	0.243	n/a	5	55	ButtonPress	Neutral	True
526.717	0.4	Control	0.6786	n/a	Yes	3.032	n/a	n/a	GoodResponse	0	n/a	n/a	5	55	Blank	Neutral	True
527.116	1.45	Control	0.6786	n/a	Yes	3.032	n/a	5.0	GoodResponse	0	0.027	526.143	5	55	Feedback	Neutral	True
528.566	3.032	Control	0.6786	n/a	Yes	3.032	n/a	n/a	GoodResponse	0	0.0	n/a	5	55	ISIslide	Neutral	True
531.615	0.25	Control	0.6842	0.0	Yes	2.835	0.015	n/a	GoodResponse	0	n/a	n/a	5	56	Cue	Neutral	True
531.865	3.95	Control	0.6842	0.0	Yes	2.835	0.0	n/a	GoodResponse	0	n/a	n/a	5	56	Fixation	Neutral	True
535.813	0.29	Control	0.6842	0.002	Yes	2.835	-0.002	4.0	GoodResponse	0	0.189	535.002	5	56	Target	Neutral	True
536.002	0.3	Control	0.6842	0.002	Yes	2.835	-0.002	4.0	GoodResponse	0	0.189	n/a	5	56	ButtonPress	Neutral	True
536.113	0.41	Control	0.6842	n/a	Yes	2.835	n/a	n/a	GoodResponse	0	n/a	n/a	5	56	Blank	Neutral	True
536.513	1.45	Control	0.6842	n/a	Yes	2.835	n/a	5.0	GoodResponse	0	0.045	535.558	5	56	Feedback	Neutral	True
537.963	2.835	Control	0.6842	n/a	Yes	2.835	n/a	n/a	GoodResponse	0	0.0	n/a	5	56	ISIslide	Neutral	True
540.828	0.25	Control	0.6897	0.0	Yes	3.472	0.028	n/a	GoodResponse	0	n/a	n/a	5	57	Cue	Neutral	True
541.078	4.0	Control	0.6897	0.0	Yes	3.472	0.0	n/a	GoodResponse	0	n/a	n/a	5	57	Fixation	Neutral	True
545.077	0.28	Control	0.6897	0.001	Yes	3.472	-0.001	4.0	GoodResponse	0	0.198	544.275	5	57	Target	Neutral	True
545.275	0.3	Control	0.6897	0.001	Yes	3.472	-0.001	4.0	GoodResponse	0	0.198	n/a	5	57	ButtonPress	Neutral	True
545.36	0.42	Control	0.6897	n/a	Yes	3.472	n/a	n/a	GoodResponse	0	n/a	n/a	5	57	Blank	Neutral	True
545.777	1.45	Control	0.6897	n/a	Yes	3.472	n/a	5.0	GoodResponse	0	0.0	544.777	5	57	Feedback	Neutral	True
547.226	3.472	Control	0.6897	n/a	Yes	3.472	n/a	n/a	GoodResponse	0	0.0	n/a	5	57	ISIslide	Neutral	True
550.725	0.25	Win2	0.6949	0.0	Yes	2.725	0.025	n/a	GoodResponse	1	n/a	n/a	6	58	Cue	Win	True
550.975	4.05	Win2	0.6949	0.0	Yes	2.725	0.0	n/a	GoodResponse	1	n/a	n/a	6	58	Fixation	Win	True
555.023	0.27	Win2	0.6949	0.002	Yes	2.725	-0.002	4.0	GoodResponse	1	0.196	554.219	6	58	Target	Win	True
555.219	0.3	Win2	0.6949	0.002	Yes	2.725	-0.002	4.0	GoodResponse	1	0.196	n/a	6	58	ButtonPress	Win	True
555.307	0.43	Win2	0.6949	n/a	Yes	2.725	n/a	n/a	GoodResponse	1	n/a	n/a	6	58	Blank	Win	True
555.723	1.45	Win2	0.6949	n/a	Yes	2.725	n/a	5.0	GoodResponse	1	0.007	554.73	6	58	Feedback	Win	True
557.173	2.725	Win2	0.6949	n/a	Yes	2.725	n/a	n/a	GoodResponse	1	0.0	n/a	6	58	ISIslide	Win	True
559.922	0.25	Lose2	0.6833	0.0	No	2.678	0.022	n/a	NoResponse	-1	n/a	n/a	5	59	Cue	Loss	False
560.171	4.0	Lose2	0.6833	0.001	No	2.678	-0.001	4.0	NoResponse	-1	3.813	562.984	5	59	Fixation	Loss	False
563.984	0.3	Lose2	0.6833	0.001	No	2.678	-0.001	4.0	NoResponse	-1	3.813	n/a	5	59	ButtonPress	Loss	False
564.17	0.26	Lose2	0.6833	0.002	No	2.678	-0.002	4.0	NoResponse	-1	0.317	563.487	5	59	Target	Loss	False
564.437	0.44	Lose2	0.6833	n/a	No	2.678	n/a	n/a	NoResponse	-1	n/a	n/a	5	59	Blank	Loss	False
564.487	0.3	Lose2	0.6833	0.002	No	2.678	-0.002	4.0	NoResponse	-1	0.317	n/a	5	59	ButtonPress	Loss	False
564.87	1.45	Lose2	0.6833	n/a	No	2.678	n/a	5.0	NoResponse	-1	0.029	563.899	5	59	Feedback	Loss	False
566.319	2.678	Lose2	0.6833	n/a	No	2.678	n/a	n/a	NoResponse	-1	0.0	n/a	5	59	ISIslide	Loss	False
569.018	0.25	Control	0.6884999999999999	0.0	Yes	2.682	0.018	n/a	GoodResponse	0	n/a	n/a	5	60	Cue	Neutral	True
569.268	4.0	Control	0.6884999999999999	0.0	Yes	2.682	0.0	n/a	GoodResponse	0	n/a	n/a	5	60	Fixation	Neutral	True
573.267	0.25	Control	0.6884999999999999	0.001	Yes	2.682	-0.001	4.0	GoodResponse	0	0.197	572.464	5	60	Target	Neutral	True
573.464	0.3	Control	0.6884999999999999	0.001	Yes	2.682	-0.001	4.0	GoodResponse	0	0.197	n/a	5	60	ButtonPress	Neutral	True
573.517	0.45	Control	0.6884999999999999	n/a	Yes	2.682	n/a	n/a	GoodResponse	0	n/a	n/a	5	60	Blank	Neutral	True
573.967	1.45	Control	0.6884999999999999	n/a	Yes	2.682	n/a	5.0	GoodResponse	0	0.006	572.973	5	60	Feedback	Neutral	True
575.416	2.682	Control	0.6884999999999999	n/a	Yes	2.682	n/a	n/a	GoodResponse	0	0.0	n/a	5	60	ISIslide	Neutral	True
578.115	0.25	Lose2	0.6934999999999999	0.0	Yes	2.985	0.015	n/a	GoodResponse	0	n/a	n/a	5	61	Cue	AvoidedLoss	True
578.365	4.0	Lose2	0.6934999999999999	0.0	Yes	2.985	0.0	n/a	GoodResponse	0	n/a	n/a	5	61	Fixation	AvoidedLoss	True
582.364	0.24	Lose2	0.6934999999999999	0.001	Yes	2.985	-0.001	4.0	GoodResponse	0	0.223	581.587	5	61	Target	AvoidedLoss	True
582.587	0.3	Lose2	0.6934999999999999	0.001	Yes	2.985	-0.001	4.0	GoodResponse	0	0.223	n/a	5	61	ButtonPress	AvoidedLoss	True
582.614	0.46	Lose2	0.6934999999999999	n/a	Yes	2.985	n/a	n/a	GoodResponse	0	n/a	n/a	5	61	Blank	AvoidedLoss	True
583.063	1.45	Lose2	0.6934999999999999	n/a	Yes	2.985	n/a	5.0	GoodResponse	0	0.031	582.094	5	61	Feedback	AvoidedLoss	True
584.513	2.985	Lose2	0.6934999999999999	n/a	Yes	2.985	n/a	n/a	GoodResponse	0	0.0	n/a	5	61	ISIslide	AvoidedLoss	True
587.528	0.25	Lose2	0.6984	0.001	Yes	2.872	0.028	n/a	GoodResponse	0	n/a	n/a	5	62	Cue	AvoidedLoss	True
587.778	3.9	Lose2	0.6984	0.0	Yes	2.872	0.0	n/a	GoodResponse	0	n/a	n/a	5	62	Fixation	AvoidedLoss	True
591.677	0.23	Lose2	0.6984	0.001	Yes	2.872	-0.001	4.0	GoodResponse	0	0.219	590.896	5	62	Target	AvoidedLoss	True
591.896	0.3	Lose2	0.6984	0.001	Yes	2.872	-0.001	4.0	GoodResponse	0	0.219	n/a	5	62	ButtonPress	AvoidedLoss	True
591.91	0.47	Lose2	0.6984	n/a	Yes	2.872	n/a	n/a	GoodResponse	0	n/a	n/a	5	62	Blank	AvoidedLoss	True
592.377	1.45	Lose2	0.6984	n/a	Yes	2.872	n/a	5.0	GoodResponse	0	0.034	591.411	5	62	Feedback	AvoidedLoss	True
593.826	2.872	Lose2	0.6984	n/a	Yes	2.872	n/a	n/a	GoodResponse	0	0.0	n/a	5	62	ISIslide	AvoidedLoss	True
596.725	0.25	Lose2	0.7031000000000001	0.0	Yes	2.625	0.025	n/a	GoodResponse	0	n/a	n/a	5	63	Cue	AvoidedLoss	True
596.975	4.05	Lose2	0.7031000000000001	0.0	Yes	2.625	0.0	n/a	GoodResponse	0	n/a	n/a	5	63	Fixation	AvoidedLoss	True
601.024	0.22	Lose2	0.7031000000000001	0.001	Yes	2.625	-0.001	4.0	GoodResponse	0	0.198	600.222	5	63	Target	AvoidedLoss	True
601.222	0.3	Lose2	0.7031000000000001	0.001	Yes	2.625	-0.001	4.0	GoodResponse	0	0.198	n/a	5	63	ButtonPress	AvoidedLoss	True
601.257	0.48	Lose2	0.7031000000000001	n/a	Yes	2.625	n/a	n/a	GoodResponse	0	n/a	n/a	5	63	Blank	AvoidedLoss	True
601.723	1.45	Lose2	0.7031000000000001	n/a	Yes	2.625	n/a	5.0	GoodResponse	0	0.007	600.73	5	63	Feedback	AvoidedLoss	True
603.173	2.625	Lose2	0.7031000000000001	n/a	Yes	2.625	n/a	n/a	GoodResponse	0	0.0	n/a	5	63	ISIslide	AvoidedLoss	True
605.822	0.25	Win2	0.6923	0.0	No	3.128	0.022	n/a	NoResponse	0	n/a	n/a	5	64	Cue	MissedWin	True
606.072	4.15	Win2	0.6923	0.0	No	3.128	0.0	n/a	NoResponse	0	n/a	n/a	5	64	Fixation	MissedWin	True
610.22	0.21	Win2	0.6923	0.002	No	3.128	-0.002	4.0	NoResponse	0	0.226	609.446	5	64	Target	MissedWin	True
610.437	0.49	Win2	0.6923	n/a	No	3.128	n/a	n/a	NoResponse	0	n/a	n/a	5	64	Blank	MissedWin	True
610.446	0.3	Win2	0.6923	0.002	No	3.128	-0.002	4.0	NoResponse	0	0.226	n/a	5	64	ButtonPress	MissedWin	True
610.92	1.45	Win2	0.6923	n/a	No	3.128	n/a	5.0	NoResponse	0	0.027	609.947	5	64	Feedback	MissedWin	True
612.37	3.128	Win2	0.6923	n/a	No	3.128	n/a	n/a	NoResponse	0	0.0	n/a	5	64	ISIslide	MissedWin	True
615.519	0.25	Control	0.6818000000000001	0.0	No	2.781	0.019	n/a	NoResponse	0	n/a	n/a	5	65	Cue	Neutral	True
615.769	4.0	Control	0.6818000000000001	0.0	No	2.781	0.0	n/a	NoResponse	0	n/a	n/a	5	65	Fixation	Neutral	True
619.767	0.2	Control	0.6818000000000001	0.002	No	2.781	-0.002	4.0	NoResponse	0	0.217	618.984	5	65	Target	Neutral	True
619.967	0.5	Control	0.6818000000000001	n/a	No	2.781	n/a	n/a	NoResponse	0	n/a	n/a	5	65	Blank	Neutral	True
619.984	0.3	Control	0.6818000000000001	0.002	No	2.781	-0.002	4.0	NoResponse	0	0.217	n/a	5	65	ButtonPress	Neutral	True
620.467	1.45	Control	0.6818000000000001	n/a	No	2.781	n/a	5.0	NoResponse	0	0.041	619.508	5	65	Feedback	Neutral	True
621.916	2.781	Control	0.6818000000000001	n/a	No	2.781	n/a	n/a	NoResponse	0	0.0	n/a	5	65	ISIslide	Neutral	True
624.715	0.25	Win2	0.6716	0.0	No	2.785	0.015	n/a	PrematurePress	0	n/a	n/a	5	66	Cue	MissedWin	False
624.965	3.9	Win2	0.6716	0.0	No	2.785	0.0	4.0	PrematurePress	0	3.188	627.153	5	66	Fixation	MissedWin	False
628.153	0.3	Win2	0.6716	0.0	No	2.785	0.0	4.0	PrematurePress	0	3.188	n/a	5	66	ButtonPress	MissedWin	False
628.864	0.19	Win2	0.6716	0.001	No	2.785	-0.001	4.0	PrematurePress	0	0.059	627.923	5	66	Target	MissedWin	False
628.923	0.3	Win2	0.6716	0.001	No	2.785	-0.001	4.0	PrematurePress	0	0.059	n/a	5	66	ButtonPress	MissedWin	False
629.064	0.51	Win2	0.6716	n/a	No	2.785	n/a	n/a	PrematurePress	0	n/a	n/a	5	66	Blank	MissedWin	False
629.564	1.45	Win2	0.6716	n/a	No	2.785	n/a	5.0	PrematurePress	0	0.017	628.581	5	66	Feedback	MissedWin	False
631.013	2.785	Win2	0.6716	n/a	No	2.785	n/a	n/a	PrematurePress	0	0.0	n/a	5	66	ISIslide	MissedWin	False
633.829	0.25	Control	0.6618	0.0	No	2.721	0.029	n/a	NoResponse	0	n/a	n/a	5	67	Cue	Neutral	True
634.079	3.95	Control	0.6618	0.0	No	2.721	0.0	n/a	NoResponse	0	n/a	n/a	5	67	Fixation	Neutral	True
638.027	0.18	Control	0.6618	0.002	No	2.721	-0.002	4.0	NoResponse	0	0.197	637.224	5	67	Target	Neutral	True
638.211	0.52	Control	0.6618	n/a	No	2.721	n/a	n/a	NoResponse	0	n/a	n/a	5	67	Blank	Neutral	True
638.224	0.3	Control	0.6618	0.002	No	2.721	-0.002	4.0	NoResponse	0	0.197	n/a	5	67	ButtonPress	Neutral	True
638.727	1.45	Control	0.6618	n/a	No	2.721	n/a	5.0	NoResponse	0	0.025	637.752	5	67	Feedback	Neutral	True
640.177	2.721	Control	0.6618	n/a	No	2.721	n/a	n/a	NoResponse	0	0.0	n/a	5	67	ISIslide	Neutral	True
642.926	0.25	Win2	0.6522	0.0	No	3.074	0.026	n/a	NoResponse	0	n/a	n/a	5	68	Cue	MissedWin	True
643.176	4.0	Win2	0.6522	0.0	No	3.074	0.0	n/a	NoResponse	0	n/a	n/a	5	68	Fixation	MissedWin	True
647.174	0.18	Win2	0.6522	0.002	No	3.074	-0.002	4.0	NoResponse	0	0.192	646.366	5	68	Target	MissedWin	True
647.357	0.52	Win2	0.6522	n/a	No	3.074	n/a	n/a	NoResponse	0	n/a	n/a	5	68	Blank	MissedWin	True
647.366	0.3	Win2	0.6522	0.002	No	3.074	-0.002	4.0	NoResponse	0	0.192	n/a	5	68	ButtonPress	MissedWin	True
647.874	1.45	Win2	0.6522	n/a	No	3.074	n/a	5.0	NoResponse	0	0.049	646.923	5	68	Feedback	MissedWin	True
649.323	3.074	Win2	0.6522	n/a	No	3.074	n/a	n/a	NoResponse	0	0.0	n/a	5	68	ISIslide	MissedWin	True
652.422	0.25	Win2	0.6570999999999999	0.0	Yes	3.228	0.022	n/a	GoodResponse	1	n/a	n/a	6	69	Cue	Win	True
652.672	3.95	Win2	0.6570999999999999	0.0	Yes	3.228	0.0	n/a	GoodResponse	1	n/a	n/a	6	69	Fixation	Win	True
656.621	0.19	Win2	0.6570999999999999	0.001	Yes	3.228	-0.001	4.0	GoodResponse	1	0.175	655.796	6	69	Target	Win	True
656.796	0.3	Win2	0.6570999999999999	0.001	Yes	3.228	-0.001	4.0	GoodResponse	1	0.175	n/a	6	69	ButtonPress	Win	True
656.821	0.51	Win2	0.6570999999999999	n/a	Yes	3.228	n/a	n/a	GoodResponse	1	n/a	n/a	6	69	Blank	Win	True
657.321	1.45	Win2	0.6570999999999999	n/a	Yes	3.228	n/a	5.0	GoodResponse	1	0.016	656.337	6	69	Feedback	Win	True
658.77	3.228	Win2	0.6570999999999999	n/a	Yes	3.228	n/a	n/a	GoodResponse	1	0.0	n/a	6	69	ISIslide	Win	True
662.019	0.25	Lose2	0.662	0.0	Yes	3.031	0.019	n/a	GoodResponse	0	n/a	n/a	6	70	Cue	AvoidedLoss	True
662.269	4.05	Lose2	0.662	0.0	Yes	3.031	0.0	n/a	GoodResponse	0	n/a	n/a	6	70	Fixation	AvoidedLoss	True
666.317	0.19	Lose2	0.662	0.002	Yes	3.031	-0.002	4.0	GoodResponse	0	0.187	665.504	6	70	Target	AvoidedLoss	True
666.504	0.3	Lose2	0.662	0.002	Yes	3.031	-0.002	4.0	GoodResponse	0	0.187	n/a	6	70	ButtonPress	AvoidedLoss	True
666.517	0.51	Lose2	0.662	n/a	Yes	3.031	n/a	n/a	GoodResponse	0	n/a	n/a	6	70	Blank	AvoidedLoss	True
667.017	1.45	Lose2	0.662	n/a	Yes	3.031	n/a	5.0	GoodResponse	0	0.027	666.044	6	70	Feedback	AvoidedLoss	True
668.467	3.031	Lose2	0.662	n/a	Yes	3.031	n/a	n/a	GoodResponse	0	0.0	n/a	6	70	ISIslide	AvoidedLoss	True
671.516	0.25	Win2	0.6667000000000001	0.0	Yes	2.734	0.016	n/a	GoodResponse	1	n/a	n/a	7	71	Cue	Win	True
671.765	4.05	Win2	0.6667000000000001	0.001	Yes	2.734	-0.001	n/a	GoodResponse	1	n/a	n/a	7	71	Fixation	Win	True
675.814	0.19	Win2	0.6667000000000001	0.002	Yes	2.734	-0.002	4.0	GoodResponse	1	0.184	674.998	7	71	Target	Win	True
675.998	0.3	Win2	0.6667000000000001	0.002	Yes	2.734	-0.002	4.0	GoodResponse	1	0.184	n/a	7	71	ButtonPress	Win	True
676.014	0.51	Win2	0.6667000000000001	n/a	Yes	2.734	n/a	n/a	GoodResponse	1	n/a	n/a	7	71	Blank	Win	True
676.514	1.45	Win2	0.6667000000000001	n/a	Yes	2.734	n/a	5.0	GoodResponse	1	0.043	675.557	7	71	Feedback	Win	True
677.963	2.734	Win2	0.6667000000000001	n/a	Yes	2.734	n/a	n/a	GoodResponse	1	0.0	n/a	7	71	ISIslide	Win	True
680.712	0.25	Win2	0.6575	0.0	No	2.788	0.012	n/a	NoResponse	0	n/a	n/a	7	72	Cue	MissedWin	True
680.962	4.1	Win2	0.6575	0.0	No	2.788	0.0	n/a	NoResponse	0	n/a	n/a	7	72	Fixation	MissedWin	True
685.061	0.18	Win2	0.6575	0.001	No	2.788	-0.001	4.0	NoResponse	0	0.208	684.269	7	72	Target	MissedWin	True
685.244	0.52	Win2	0.6575	n/a	No	2.788	n/a	n/a	NoResponse	0	n/a	n/a	7	72	Blank	MissedWin	True
685.269	0.3	Win2	0.6575	0.001	No	2.788	-0.001	4.0	NoResponse	0	0.208	n/a	7	72	ButtonPress	MissedWin	True
685.761	1.45	Win2	0.6575	n/a	No	2.788	n/a	5.0	NoResponse	0	0.015	684.776	7	72	Feedback	MissedWin	True
687.21	2.788	Win2	0.6575	n/a	No	2.788	n/a	n/a	NoResponse	0	0.0	n/a	7	72	ISIslide	MissedWin	True
690.026	0.25	Win2	0.6622	0.0	Yes	2.674	0.026	n/a	GoodResponse	1	n/a	n/a	8	73	Cue	Win	True
690.276	4.0	Win2	0.6622	0.0	Yes	2.674	0.0	n/a	GoodResponse	1	n/a	n/a	8	73	Fixation	Win	True
694.274	0.18	Win2	0.6622	0.002	Yes	2.674	-0.002	4.0	GoodResponse	1	0.148	693.422	8	73	Target	Win	True
694.422	0.3	Win2	0.6622	0.002	Yes	2.674	-0.002	4.0	GoodResponse	1	0.148	n/a	8	73	ButtonPress	Win	True
694.457	0.52	Win2	0.6622	n/a	Yes	2.674	n/a	n/a	GoodResponse	1	n/a	n/a	8	73	Blank	Win	True
694.974	1.45	Win2	0.6622	n/a	Yes	2.674	n/a	5.0	GoodResponse	1	0.021	693.995	8	73	Feedback	Win	True
696.423	2.674	Win2	0.6622	n/a	Yes	2.674	n/a	n/a	GoodResponse	1	0.0	n/a	8	73	ISIslide	Win	True
699.123	0.25	Lose2	0.6533	0.0	No	2.627	0.023	n/a	LatePress	-1	n/a	n/a	7	74	Cue	Loss	False
699.372	4.05	Lose2	0.6533	0.001	No	2.627	-0.001	4.0	LatePress	-1	3.555	701.927	7	74	Fixation	Loss	False
702.927	0.3	Lose2	0.6533	0.001	No	2.627	-0.001	4.0	LatePress	-1	3.555	n/a	7	74	ButtonPress	Loss	False
703.421	0.18	Lose2	0.6533	0.002	No	2.627	-0.002	4.0	LatePress	-1	0.183	702.604	7	74	Target	Loss	False
703.604	0.52	Lose2	0.6533	n/a	No	2.627	n/a	n/a	LatePress	-1	n/a	n/a	7	74	Blank	Loss	False
703.604	0.3	Lose2	0.6533	0.002	No	2.627	-0.002	4.0	LatePress	-1	0.183	n/a	7	74	ButtonPress	Loss	False
704.121	1.45	Lose2	0.6533	n/a	No	2.627	n/a	5.0	LatePress	-1	0.045	703.166	7	74	Feedback	Loss	False
705.57	2.627	Lose2	0.6533	n/a	No	2.627	n/a	n/a	LatePress	-1	0.0	n/a	7	74	ISIslide	Loss	False
708.219	0.25	Lose2	0.6579	0.0	Yes	2.931	0.019	n/a	GoodResponse	0	n/a	n/a	7	75	Cue	AvoidedLoss	True
708.469	3.95	Lose2	0.6579	0.0	Yes	2.931	0.0	n/a	GoodResponse	0	n/a	n/a	7	75	Fixation	AvoidedLoss	True
712.418	0.19	Lose2	0.6579	0.001	Yes	2.931	-0.001	4.0	GoodResponse	0	0.186	711.604	7	75	Target	AvoidedLoss	True
712.604	0.3	Lose2	0.6579	0.001	Yes	2.931	-0.001	4.0	GoodResponse	0	0.186	n/a	7	75	ButtonPress	AvoidedLoss	True
712.618	0.51	Lose2	0.6579	n/a	Yes	2.931	n/a	n/a	GoodResponse	0	n/a	n/a	7	75	Blank	AvoidedLoss	True
713.118	1.45	Lose2	0.6579	n/a	Yes	2.931	n/a	5.0	GoodResponse	0	0.024	712.142	7	75	Feedback	AvoidedLoss	True
714.567	2.931	Lose2	0.6579	n/a	Yes	2.931	n/a	n/a	GoodResponse	0	0.0	n/a	7	75	ISIslide	AvoidedLoss	True
717.516	0.25	Control	0.6494	0.0	No	3.234	0.016	n/a	NoResponse	0	n/a	n/a	7	76	Cue	Neutral	True
717.766	4.05	Control	0.6494	0.0	No	3.234	0.0	n/a	NoResponse	0	n/a	n/a	7	76	Fixation	Neutral	True
721.815	0.19	Control	0.6494	0.001	No	3.234	-0.001	4.0	NoResponse	0	0.25	721.065	7	76	Target	Neutral	True
722.014	0.51	Control	0.6494	n/a	No	3.234	n/a	n/a	NoResponse	0	n/a	n/a	7	76	Blank	Neutral	True
722.065	0.3	Control	0.6494	0.001	No	3.234	-0.001	4.0	NoResponse	0	0.25	n/a	7	76	ButtonPress	Neutral	True
722.514	1.45	Control	0.6494	n/a	No	3.234	n/a	5.0	NoResponse	0	0.042	721.556	7	76	Feedback	Neutral	True
723.964	3.234	Control	0.6494	n/a	No	3.234	n/a	n/a	NoResponse	0	0.0	n/a	7	76	ISIslide	Neutral	True
727.213	0.25	Lose2	0.6409999999999999	0.0	No	2.587	0.013	n/a	NoResponse	-1	n/a	n/a	6	77	Cue	Loss	True
727.463	3.95	Lose2	0.6409999999999999	0.0	No	2.587	0.0	n/a	NoResponse	-1	n/a	n/a	6	77	Fixation	Loss	True
731.411	0.2	Lose2	0.6409999999999999	0.002	No	2.587	-0.002	4.0	NoResponse	-1	0.228	730.639	6	77	Target	Loss	True
731.611	0.5	Lose2	0.6409999999999999	n/a	No	2.587	n/a	n/a	NoResponse	-1	n/a	n/a	6	77	Blank	Loss	True
731.639	0.3	Lose2	0.6409999999999999	0.002	No	2.587	-0.002	4.0	NoResponse	-1	0.228	n/a	6	77	ButtonPress	Loss	True
732.111	1.45	Lose2	0.6409999999999999	n/a	No	2.587	n/a	5.0	NoResponse	-1	0.006	731.117	6	77	Feedback	Loss	True
733.56	2.587	Lose2	0.6409999999999999	n/a	No	2.587	n/a	n/a	NoResponse	-1	0.0	n/a	6	77	ISIslide	Loss	True
