onset	duration	cue_type	current_mean_accuracy	duration_error	is_hit	isi_adjusted	onset_delay	response	response_type	reward	rt	rt_time	total_reward	trial_number	trial_phase	trial_type	one_press
11.101	0.25	Control	1.0	0.0	Yes	2.949	0.001	n/a	GoodResponse	0	n/a	n/a	0	0	Cue	Neutral	True
11.352	3.85	Control	1.0	0.0	Yes	2.949	0.001	n/a	GoodResponse	0	n/a	n/a	0	0	Fixation	Neutral	True
15.197	0.4	Control	1.0	0.004	Yes	2.949	-0.004	2.0	GoodResponse	0	0.24	14.437	0	0	Target	Neutral	True
15.437	0.3	Control	1.0	0.004	Yes	2.949	-0.004	2.0	GoodResponse	0	0.24	n/a	0	0	ButtonPress	Neutral	True
15.598	0.3	Control	1.0	n/a	Yes	2.949	n/a	n/a	GoodResponse	0	n/a	n/a	0	0	Blank	Neutral	True
15.899	1.45	Control	1.0	n/a	Yes	2.949	n/a	5.0	GoodResponse	0	0.028	14.927	0	0	Feedback	Neutral	True
17.353	2.949	Control	1.0	n/a	Yes	2.949	n/a	n/a	GoodResponse	0	0.0	n/a	0	0	ISIslide	Neutral	True
20.329	0.25	Lose2	1.0	0.0	Yes	2.771	0.029	n/a	GoodResponse	0	n/a	n/a	0	1	Cue	AvoidedLoss	True
20.58	4.0	Lose2	1.0	0.0	Yes	2.771	0.001	n/a	GoodResponse	0	n/a	n/a	0	1	Fixation	AvoidedLoss	True
24.575	0.39	Lose2	1.0	0.004	Yes	2.771	-0.004	2.0	GoodResponse	0	0.227	23.802	0	1	Target	AvoidedLoss	True
24.802	0.3	Lose2	1.0	0.004	Yes	2.771	-0.004	2.0	GoodResponse	0	0.227	n/a	0	1	ButtonPress	AvoidedLoss	True
24.976	0.31	Lose2	1.0	n/a	Yes	2.771	n/a	n/a	GoodResponse	0	n/a	n/a	0	1	Blank	AvoidedLoss	True
25.277	1.45	Lose2	1.0	n/a	Yes	2.771	n/a	5.0	GoodResponse	0	0.016	24.293	0	1	Feedback	AvoidedLoss	True
26.731	2.771	Lose2	1.0	n/a	Yes	2.771	n/a	n/a	GoodResponse	0	0.0	n/a	0	1	ISIslide	AvoidedLoss	True
29.523	0.25	Control	1.0	0.0	Yes	2.577	0.023	n/a	GoodResponse	0	n/a	n/a	0	2	Cue	Neutral	True
29.774	4.1	Control	1.0	0.0	Yes	2.577	0.001	n/a	GoodResponse	0	n/a	n/a	0	2	Fixation	Neutral	True
33.87	0.38	Control	1.0	0.003	Yes	2.577	-0.003	2.0	GoodResponse	0	0.275	33.145	0	2	Target	Neutral	True
34.145	0.3	Control	1.0	0.003	Yes	2.577	-0.003	2.0	GoodResponse	0	0.275	n/a	0	2	ButtonPress	Neutral	True
34.254	0.32	Control	1.0	n/a	Yes	2.577	n/a	n/a	GoodResponse	0	n/a	n/a	0	2	Blank	Neutral	True
34.572	1.45	Control	1.0	n/a	Yes	2.577	n/a	5.0	GoodResponse	0	0.038	33.61	0	2	Feedback	Neutral	True
36.026	2.577	Control	1.0	n/a	Yes	2.577	n/a	n/a	GoodResponse	0	0.0	n/a	0	2	ISIslide	Neutral	True
38.617	0.25	Win2	1.0	0.0	Yes	2.833	0.017	n/a	GoodResponse	1	n/a	n/a	1	3	Cue	Win	True
38.868	3.95	Win2	1.0	0.0	Yes	2.833	0.001	n/a	GoodResponse	1	n/a	n/a	1	3	Fixation	Win	True
42.813	0.37	Win2	1.0	0.004	Yes	2.833	-0.004	2.0	GoodResponse	1	0.235	42.048	1	3	Target	Win	True
43.048	0.3	Win2	1.0	0.004	Yes	2.833	-0.004	2.0	GoodResponse	1	0.235	n/a	1	3	ButtonPress	Win	True
43.198	0.33	Win2	1.0	n/a	Yes	2.833	n/a	n/a	GoodResponse	1	n/a	n/a	1	3	Blank	Win	True
43.515	1.45	Win2	1.0	n/a	Yes	2.833	n/a	5.0	GoodResponse	1	0.022	42.537	1	3	Feedback	Win	True
44.969	2.833	Win2	1.0	n/a	Yes	2.833	n/a	n/a	GoodResponse	1	0.0	n/a	1	3	ISIslide	Win	True
47.828	0.25	Win2	1.0	0.0	Yes	3.272	0.028	n/a	GoodResponse	1	n/a	n/a	2	4	Cue	Win	True
48.079	4.0	Win2	1.0	0.0	Yes	3.272	0.001	n/a	GoodResponse	1	n/a	n/a	2	4	Fixation	Win	True
52.074	0.36	Win2	1.0	0.004	Yes	3.272	-0.004	2.0	GoodResponse	1	0.232	51.306	2	4	Target	Win	True
52.306	0.3	Win2	1.0	0.004	Yes	3.272	-0.004	2.0	GoodResponse	1	0.232	n/a	2	4	ButtonPress	Win	True
52.442	0.34	Win2	1.0	n/a	Yes	3.272	n/a	n/a	GoodResponse	1	n/a	n/a	2	4	Blank	Win	True
52.776	1.45	Win2	1.0	n/a	Yes	3.272	n/a	5.0	GoodResponse	1	0.028	51.804	2	4	Feedback	Win	True
54.231	3.272	Win2	1.0	n/a	Yes	3.272	n/a	n/a	GoodResponse	1	0.0	n/a	2	4	ISIslide	Win	True
57.524	0.25	Win2	1.0	0.0	Yes	2.776	0.024	n/a	GoodResponse	1	n/a	n/a	3	5	Cue	Win	True
57.775	4.0	Win2	1.0	0.0	Yes	2.776	0.001	n/a	GoodResponse	1	n/a	n/a	3	5	Fixation	Win	True
61.77	0.35	Win2	1.0	0.004	Yes	2.776	-0.004	2.0	GoodResponse	1	0.305	61.075	3	5	Target	Win	True
62.075	0.3	Win2	1.0	0.004	Yes	2.776	-0.004	2.0	GoodResponse	1	0.305	n/a	3	5	ButtonPress	Win	True
62.121	0.35	Win2	1.0	n/a	Yes	2.776	n/a	n/a	GoodResponse	1	n/a	n/a	3	5	Blank	Win	True
62.472	1.45	Win2	1.0	n/a	Yes	2.776	n/a	5.0	GoodResponse	1	0.04	61.512	3	5	Feedback	Win	True
63.926	2.776	Win2	1.0	n/a	Yes	2.776	n/a	n/a	GoodResponse	1	0.0	n/a	3	5	ISIslide	Win	True
66.718	0.25	Lose2	0.8571	0.0	No	2.732	0.018	n/a	NoResponse	-1	n/a	n/a	2	6	Cue	Loss	False
66.969	3.95	Lose2	0.8571	0.0	No	2.732	0.001	n/a	NoResponse	-1	n/a	n/a	2	6	Fixation	Loss	False
70.914	0.34	Lose2	0.8571	0.004	No	2.732	-0.004	n/a	NoResponse	-1	n/a	n/a	2	6	Target	Loss	False
71.265	0.36	Lose2	0.8571	n/a	No	2.732	n/a	n/a	NoResponse	-1	n/a	n/a	2	6	Blank	Loss	False
71.616	1.45	Lose2	0.8571	n/a	No	2.732	n/a	5.0	NoResponse	-1	0.018	70.634	2	6	Feedback	Loss	False
73.07	2.732	Lose2	0.8571	n/a	No	2.732	n/a	n/a	NoResponse	-1	0.0	n/a	2	6	ISIslide	Loss	False
75.829	0.25	Lose2	0.875	0.0	Yes	4.021	0.029	n/a	GoodResponse	0	n/a	n/a	2	7	Cue	AvoidedLoss	True
76.079	4.05	Lose2	0.875	0.0	Yes	4.021	0.0	n/a	GoodResponse	0	n/a	n/a	2	7	Fixation	AvoidedLoss	True
80.125	0.33	Lose2	0.875	0.004	Yes	4.021	-0.004	2.0	GoodResponse	0	0.255	79.38	2	7	Target	AvoidedLoss	True
80.38	0.3	Lose2	0.875	0.004	Yes	4.021	-0.004	2.0	GoodResponse	0	0.255	n/a	2	7	ButtonPress	AvoidedLoss	True
80.459	0.37	Lose2	0.875	n/a	Yes	4.021	n/a	n/a	GoodResponse	0	n/a	n/a	2	7	Blank	AvoidedLoss	True
80.827	1.45	Lose2	0.875	n/a	Yes	4.021	n/a	5.0	GoodResponse	0	0.026	79.853	2	7	Feedback	AvoidedLoss	True
82.281	4.021	Lose2	0.875	n/a	Yes	4.021	n/a	n/a	GoodResponse	0	0.0	n/a	2	7	ISIslide	AvoidedLoss	True
86.327	0.25	Lose2	0.8889	0.0	Yes	3.023	0.027	n/a	GoodResponse	0	n/a	n/a	2	8	Cue	AvoidedLoss	True
86.577	3.95	Lose2	0.8889	0.001	Yes	3.023	0.0	n/a	GoodResponse	0	n/a	n/a	2	8	Fixation	AvoidedLoss	True
90.523	0.32	Lose2	0.8889	0.004	Yes	3.023	-0.004	2.0	GoodResponse	0	0.273	89.796	2	8	Target	AvoidedLoss	True
90.796	0.3	Lose2	0.8889	0.004	Yes	3.023	-0.004	2.0	GoodResponse	0	0.273	n/a	2	8	ButtonPress	AvoidedLoss	True
90.857	0.38	Lose2	0.8889	n/a	Yes	3.023	n/a	n/a	GoodResponse	0	n/a	n/a	2	8	Blank	AvoidedLoss	True
91.225	1.45	Lose2	0.8889	n/a	Yes	3.023	n/a	5.0	GoodResponse	0	0.019	90.244	2	8	Feedback	AvoidedLoss	True
92.679	3.023	Lose2	0.8889	n/a	Yes	3.023	n/a	n/a	GoodResponse	0	0.0	n/a	2	8	ISIslide	AvoidedLoss	True
95.722	0.25	Lose2	0.9	0.0	Yes	3.128	0.022	n/a	GoodResponse	0	n/a	n/a	2	9	Cue	AvoidedLoss	True
95.972	3.95	Lose2	0.9	0.0	Yes	3.128	0.0	n/a	GoodResponse	0	n/a	n/a	2	9	Fixation	AvoidedLoss	True
99.934	0.31	Lose2	0.9	0.0	Yes	3.128	0.012	2.0	GoodResponse	0	0.24	99.174	2	9	Target	AvoidedLoss	True
100.174	0.3	Lose2	0.9	0.0	Yes	3.128	0.012	2.0	GoodResponse	0	0.24	n/a	2	9	ButtonPress	AvoidedLoss	True
100.235	0.39	Lose2	0.9	n/a	Yes	3.128	n/a	n/a	GoodResponse	0	n/a	n/a	2	9	Blank	AvoidedLoss	True
100.62	1.45	Lose2	0.9	n/a	Yes	3.128	n/a	5.0	GoodResponse	0	0.038	99.658	2	9	Feedback	AvoidedLoss	True
102.074	3.128	Lose2	0.9	n/a	Yes	3.128	n/a	n/a	GoodResponse	0	0.0	n/a	2	9	ISIslide	AvoidedLoss	True
105.217	0.25	Control	0.9091	0.0	Yes	3.283	0.017	n/a	GoodResponse	0	n/a	n/a	2	10	Cue	Neutral	True
105.467	4.0	Control	0.9091	0.0	Yes	3.283	0.0	n/a	GoodResponse	0	n/a	n/a	2	10	Fixation	Neutral	True
109.463	0.3	Control	0.9091	0.004	Yes	3.283	-0.004	2.0	GoodResponse	0	0.235	108.698	2	10	Target	Neutral	True
109.698	0.3	Control	0.9091	0.004	Yes	3.283	-0.004	2.0	GoodResponse	0	0.235	n/a	2	10	ButtonPress	Neutral	True
109.764	0.4	Control	0.9091	n/a	Yes	3.283	n/a	n/a	GoodResponse	0	n/a	n/a	2	10	Blank	Neutral	True
110.165	1.45	Control	0.9091	n/a	Yes	3.283	n/a	5.0	GoodResponse	0	0.007	109.172	2	10	Feedback	Neutral	True
111.619	3.283	Control	0.9091	n/a	Yes	3.283	n/a	n/a	GoodResponse	0	0.0	n/a	2	10	ISIslide	Neutral	True
114.929	0.25	Lose2	0.9167000000000001	0.0	Yes	2.721	0.029	n/a	GoodResponse	0	n/a	n/a	2	11	Cue	AvoidedLoss	True
115.18	4.05	Lose2	0.9167000000000001	0.0	Yes	2.721	0.001	n/a	GoodResponse	0	n/a	n/a	2	11	Fixation	AvoidedLoss	True
119.225	0.29	Lose2	0.9167000000000001	0.004	Yes	2.721	-0.004	2.0	GoodResponse	0	0.222	118.447	2	11	Target	AvoidedLoss	True
119.447	0.3	Lose2	0.9167000000000001	0.004	Yes	2.721	-0.004	2.0	GoodResponse	0	0.222	n/a	2	11	ButtonPress	AvoidedLoss	True
119.526	0.41	Lose2	0.9167000000000001	n/a	Yes	2.721	n/a	n/a	GoodResponse	0	n/a	n/a	2	11	Blank	AvoidedLoss	True
119.927	1.45	Lose2	0.9167000000000001	n/a	Yes	2.721	n/a	5.0	GoodResponse	0	0.048	118.975	2	11	Feedback	AvoidedLoss	True
121.382	2.721	Lose2	0.9167000000000001	n/a	Yes	2.721	n/a	n/a	GoodResponse	0	0.0	n/a	2	11	ISIslide	AvoidedLoss	True
124.123	0.25	Control	0.8462000000000001	0.0	No	2.977	0.023	n/a	LatePress	0	n/a	n/a	2	12	Cue	Neutral	True
124.374	3.9	Control	0.8462000000000001	0.0	No	2.977	0.001	n/a	LatePress	0	n/a	n/a	2	12	Fixation	Neutral	True
128.269	0.28	Control	0.8462000000000001	0.004	No	2.977	-0.004	2.0	LatePress	0	0.28	127.549	2	12	Target	Neutral	True
128.549	0.3	Control	0.8462000000000001	0.004	No	2.977	-0.004	2.0	LatePress	0	0.28	n/a	2	12	ButtonPress	Neutral	True
128.553	0.42	Control	0.8462000000000001	n/a	No	2.977	n/a	n/a	LatePress	0	n/a	n/a	2	12	Blank	Neutral	True
128.971	1.45	Control	0.8462000000000001	n/a	No	2.977	n/a	5.0	LatePress	0	0.028	127.999	2	12	Feedback	Neutral	True
130.426	2.977	Control	0.8462000000000001	n/a	No	2.977	n/a	n/a	LatePress	0	0.0	n/a	2	12	ISIslide	Neutral	True
133.418	0.25	Control	0.8571	0.0	Yes	2.782	0.018	n/a	GoodResponse	0	n/a	n/a	2	13	Cue	Neutral	True
133.669	4.0	Control	0.8571	0.0	Yes	2.782	0.001	n/a	GoodResponse	0	n/a	n/a	2	13	Fixation	Neutral	True
137.664	0.27	Control	0.8571	0.004	Yes	2.782	-0.004	2.0	GoodResponse	0	0.24	136.904	2	13	Target	Neutral	True
137.904	0.3	Control	0.8571	0.004	Yes	2.782	-0.004	2.0	GoodResponse	0	0.24	n/a	2	13	ButtonPress	Neutral	True
137.948	0.43	Control	0.8571	n/a	Yes	2.782	n/a	n/a	GoodResponse	0	n/a	n/a	2	13	Blank	Neutral	True
138.366	1.45	Control	0.8571	n/a	Yes	2.782	n/a	5.0	GoodResponse	0	0.048	137.414	2	13	Feedback	Neutral	True
139.82	2.782	Control	0.8571	n/a	Yes	2.782	n/a	n/a	GoodResponse	0	0.0	n/a	2	13	ISIslide	Neutral	True
142.629	0.25	Win2	0.8667	0.0	Yes	2.671	0.029	n/a	GoodResponse	1	n/a	n/a	3	14	Cue	Win	False
142.88	4.1	Win2	0.8667	0.0	Yes	2.671	0.001	2.0	GoodResponse	1	0.345	142.225	3	14	Fixation	Win	False
143.225	0.3	Win2	0.8667	0.0	Yes	2.671	0.001	2.0	GoodResponse	1	0.345	n/a	3	14	ButtonPress	Win	False
146.975	0.26	Win2	0.8667	0.004	Yes	2.671	-0.004	2.0	GoodResponse	1	0.252	146.227	3	14	Target	Win	False
147.227	0.3	Win2	0.8667	0.004	Yes	2.671	-0.004	2.0	GoodResponse	1	0.252	n/a	3	14	ButtonPress	Win	False
147.243	0.44	Win2	0.8667	n/a	Yes	2.671	n/a	n/a	GoodResponse	1	n/a	n/a	3	14	Blank	Win	False
147.677	1.45	Win2	0.8667	n/a	Yes	2.671	n/a	5.0	GoodResponse	1	0.007	146.684	3	14	Feedback	Win	False
149.132	2.671	Win2	0.8667	n/a	Yes	2.671	n/a	n/a	GoodResponse	1	0.0	n/a	3	14	ISIslide	Win	False
151.823	0.25	Control	0.875	0.0	Yes	2.977	0.023	n/a	GoodResponse	0	n/a	n/a	3	15	Cue	Neutral	True
152.074	4.0	Control	0.875	0.0	Yes	2.977	0.001	n/a	GoodResponse	0	n/a	n/a	3	15	Fixation	Neutral	True
156.069	0.25	Control	0.875	0.004	Yes	2.977	-0.004	2.0	GoodResponse	0	0.221	155.29	3	15	Target	Neutral	True
156.29	0.3	Control	0.875	0.004	Yes	2.977	-0.004	2.0	GoodResponse	0	0.221	n/a	3	15	ButtonPress	Neutral	True
156.32	0.45	Control	0.875	n/a	Yes	2.977	n/a	n/a	GoodResponse	0	n/a	n/a	3	15	Blank	Neutral	True
156.771	1.45	Control	0.875	n/a	Yes	2.977	n/a	5.0	GoodResponse	0	0.033	155.804	3	15	Feedback	Neutral	True
158.226	2.977	Control	0.875	n/a	Yes	2.977	n/a	n/a	GoodResponse	0	0.0	n/a	3	15	ISIslide	Neutral	True
161.218	0.25	Win2	0.8824	0.0	Yes	2.882	0.018	n/a	GoodResponse	1	n/a	n/a	4	16	Cue	Win	True
161.469	4.0	Win2	0.8824	0.0	Yes	2.882	0.001	n/a	GoodResponse	1	n/a	n/a	4	16	Fixation	Win	True
165.464	0.24	Win2	0.8824	0.004	Yes	2.882	-0.004	2.0	GoodResponse	1	0.225	164.689	4	16	Target	Win	True
165.689	0.3	Win2	0.8824	0.004	Yes	2.882	-0.004	2.0	GoodResponse	1	0.225	n/a	4	16	ButtonPress	Win	True
165.715	0.46	Win2	0.8824	n/a	Yes	2.882	n/a	n/a	GoodResponse	1	n/a	n/a	4	16	Blank	Win	True
166.166	1.45	Win2	0.8824	n/a	Yes	2.882	n/a	5.0	GoodResponse	1	0.007	165.173	4	16	Feedback	Win	True
167.62	2.882	Win2	0.8824	n/a	Yes	2.882	n/a	n/a	GoodResponse	1	0.0	n/a	4	16	ISIslide	Win	True
170.529	0.25	Lose2	0.8332999999999999	0.0	No	2.721	0.029	n/a	NoResponse	-1	n/a	n/a	3	17	Cue	Loss	True
170.78	3.95	Lose2	0.8332999999999999	0.0	No	2.721	0.001	n/a	NoResponse	-1	n/a	n/a	3	17	Fixation	Loss	True
174.725	0.23	Lose2	0.8332999999999999	0.004	No	2.721	-0.004	2.0	NoResponse	-1	0.386	174.111	3	17	Target	Loss	True
174.959	0.47	Lose2	0.8332999999999999	n/a	No	2.721	n/a	n/a	NoResponse	-1	n/a	n/a	3	17	Blank	Loss	True
175.111	0.3	Lose2	0.8332999999999999	0.004	No	2.721	-0.004	2.0	NoResponse	-1	0.386	n/a	3	17	ButtonPress	Loss	True
175.427	1.45	Lose2	0.8332999999999999	n/a	No	2.721	n/a	5.0	NoResponse	-1	0.011	174.438	3	17	Feedback	Loss	True
176.881	2.721	Lose2	0.8332999999999999	n/a	No	2.721	n/a	n/a	NoResponse	-1	0.0	n/a	3	17	ISIslide	Loss	True
179.623	0.25	Lose2	0.8421	0.0	Yes	2.727	0.023	n/a	GoodResponse	0	n/a	n/a	3	18	Cue	AvoidedLoss	True
179.874	4.05	Lose2	0.8421	0.0	Yes	2.727	0.001	n/a	GoodResponse	0	n/a	n/a	3	18	Fixation	AvoidedLoss	True
183.919	0.22	Lose2	0.8421	0.004	Yes	2.727	-0.004	2.0	GoodResponse	0	0.176	183.095	3	18	Target	AvoidedLoss	True
184.095	0.3	Lose2	0.8421	0.004	Yes	2.727	-0.004	2.0	GoodResponse	0	0.176	n/a	3	18	ButtonPress	AvoidedLoss	True
184.153	0.48	Lose2	0.8421	n/a	Yes	2.727	n/a	n/a	GoodResponse	0	n/a	n/a	3	18	Blank	AvoidedLoss	True
184.621	1.45	Lose2	0.8421	n/a	Yes	2.727	n/a	5.0	GoodResponse	0	0.036	183.657	3	18	Feedback	AvoidedLoss	True
186.076	2.727	Lose2	0.8421	n/a	Yes	2.727	n/a	n/a	GoodResponse	0	0.0	n/a	3	18	ISIslide	AvoidedLoss	True
188.817	0.25	Control	0.8	0.0	No	2.933	0.017	n/a	NoResponse	0	n/a	n/a	3	19	Cue	Neutral	True
189.068	3.95	Control	0.8	0.0	No	2.933	0.001	n/a	NoResponse	0	n/a	n/a	3	19	Fixation	Neutral	True
193.013	0.21	Control	0.8	0.004	No	2.933	-0.004	2.0	NoResponse	0	0.233	192.246	3	19	Target	Neutral	True
193.23	0.49	Control	0.8	n/a	No	2.933	n/a	n/a	NoResponse	0	n/a	n/a	3	19	Blank	Neutral	True
193.246	0.3	Control	0.8	0.004	No	2.933	-0.004	2.0	NoResponse	0	0.233	n/a	3	19	ButtonPress	Neutral	True
193.715	1.45	Control	0.8	n/a	No	2.933	n/a	5.0	NoResponse	0	0.015	192.73	3	19	Feedback	Neutral	True
195.17	2.933	Control	0.8	n/a	No	2.933	n/a	n/a	NoResponse	0	0.0	n/a	3	19	ISIslide	Neutral	True
198.128	0.25	Control	0.7619	0.001	No	2.622	0.028	n/a	NoResponse	0	n/a	n/a	3	20	Cue	Neutral	True
198.379	4.05	Control	0.7619	0.0	No	2.622	0.001	n/a	NoResponse	0	n/a	n/a	3	20	Fixation	Neutral	True
202.425	0.2	Control	0.7619	0.003	No	2.622	-0.003	2.0	NoResponse	0	0.433	201.858	3	20	Target	Neutral	True
202.625	0.5	Control	0.7619	n/a	No	2.622	n/a	n/a	NoResponse	0	n/a	n/a	3	20	Blank	Neutral	True
202.858	0.3	Control	0.7619	0.003	No	2.622	-0.003	2.0	NoResponse	0	0.433	n/a	3	20	ButtonPress	Neutral	True
203.127	1.45	Control	0.7619	n/a	No	2.622	n/a	5.0	NoResponse	0	0.018	202.145	3	20	Feedback	Neutral	True
204.581	2.622	Control	0.7619	n/a	No	2.622	n/a	n/a	NoResponse	0	0.0	n/a	3	20	ISIslide	Neutral	True
207.222	0.25	Control	0.7273000000000001	0.0	No	2.778	0.022	n/a	LatePress	0	n/a	n/a	3	21	Cue	Neutral	True
207.473	4.1	Control	0.7273000000000001	0.0	No	2.778	0.001	n/a	LatePress	0	n/a	n/a	3	21	Fixation	Neutral	True
211.569	0.19	Control	0.7273000000000001	0.003	No	2.778	-0.003	2.0	LatePress	0	0.194	210.763	3	21	Target	Neutral	True
211.763	0.3	Control	0.7273000000000001	0.003	No	2.778	-0.003	2.0	LatePress	0	0.194	n/a	3	21	ButtonPress	Neutral	True
211.769	0.51	Control	0.7273000000000001	n/a	No	2.778	n/a	n/a	LatePress	0	n/a	n/a	3	21	Blank	Neutral	True
212.271	1.45	Control	0.7273000000000001	n/a	No	2.778	n/a	5.0	LatePress	0	0.045	211.316	3	21	Feedback	Neutral	True
213.725	2.778	Control	0.7273000000000001	n/a	No	2.778	n/a	n/a	LatePress	0	0.0	n/a	3	21	ISIslide	Neutral	True
216.517	0.25	Control	0.6957	0.0	No	2.783	0.017	n/a	NoResponse	0	n/a	n/a	3	22	Cue	Neutral	True
216.768	4.0	Control	0.6957	0.0	No	2.783	0.001	n/a	NoResponse	0	n/a	n/a	3	22	Fixation	Neutral	True
220.763	0.18	Control	0.6957	0.004	No	2.783	-0.004	2.0	NoResponse	0	0.22	219.983	3	22	Target	Neutral	True
220.947	0.52	Control	0.6957	n/a	No	2.783	n/a	n/a	NoResponse	0	n/a	n/a	3	22	Blank	Neutral	True
220.983	0.3	Control	0.6957	0.004	No	2.783	-0.004	2.0	NoResponse	0	0.22	n/a	3	22	ButtonPress	Neutral	True
221.465	1.45	Control	0.6957	n/a	No	2.783	n/a	5.0	NoResponse	0	0.022	220.487	3	22	Feedback	Neutral	True
222.919	2.783	Control	0.6957	n/a	No	2.783	n/a	n/a	NoResponse	0	0.0	n/a	3	22	ISIslide	Neutral	True
225.728	0.25	Control	0.6667000000000001	0.0	No	2.772	0.028	n/a	NoResponse	0	n/a	n/a	3	23	Cue	Neutral	True
225.979	3.9	Control	0.6667000000000001	0.0	No	2.772	0.001	n/a	NoResponse	0	n/a	n/a	3	23	Fixation	Neutral	True
229.874	0.17	Control	0.6667000000000001	0.004	No	2.772	-0.004	2.0	NoResponse	0	0.202	229.076	3	23	Target	Neutral	True
230.057	0.53	Control	0.6667000000000001	n/a	No	2.772	n/a	n/a	NoResponse	0	n/a	n/a	3	23	Blank	Neutral	True
230.076	0.3	Control	0.6667000000000001	0.004	No	2.772	-0.004	2.0	NoResponse	0	0.202	n/a	3	23	ButtonPress	Neutral	True
230.576	1.45	Control	0.6667000000000001	n/a	No	2.772	n/a	5.0	NoResponse	0	0.032	229.608	3	23	Feedback	Neutral	True
232.03	2.772	Control	0.6667000000000001	n/a	No	2.772	n/a	n/a	NoResponse	0	0.0	n/a	3	23	ISIslide	Neutral	True
234.822	0.25	Win2	0.64	0.0	No	3.128	0.022	n/a	NoResponse	0	n/a	n/a	3	24	Cue	MissedWin	False
235.072	3.95	Win2	0.64	0.001	No	3.128	0.0	2.0	NoResponse	0	0.189	234.261	3	24	Fixation	MissedWin	False
235.261	0.3	Win2	0.64	0.001	No	3.128	0.0	2.0	NoResponse	0	0.189	n/a	3	24	ButtonPress	MissedWin	False
239.018	0.16	Win2	0.64	0.004	No	3.128	-0.004	2.0	NoResponse	0	0.28	238.298	3	24	Target	MissedWin	False
239.185	0.54	Win2	0.64	n/a	No	3.128	n/a	n/a	NoResponse	0	n/a	n/a	3	24	Blank	MissedWin	False
239.298	0.3	Win2	0.64	0.004	No	3.128	-0.004	2.0	NoResponse	0	0.28	n/a	3	24	ButtonPress	MissedWin	False
239.72	1.45	Win2	0.64	n/a	No	3.128	n/a	5.0	NoResponse	0	0.01	238.73	3	24	Feedback	MissedWin	False
241.174	3.128	Win2	0.64	n/a	No	3.128	n/a	n/a	NoResponse	0	0.0	n/a	3	24	ISIslide	MissedWin	False
244.317	0.25	Win2	0.6154	0.0	No	3.083	0.017	n/a	NoResponse	0	n/a	n/a	3	25	Cue	MissedWin	True
244.568	4.0	Win2	0.6154	0.0	No	3.083	0.001	n/a	NoResponse	0	n/a	n/a	3	25	Fixation	MissedWin	True
248.563	0.17	Win2	0.6154	0.004	No	3.083	-0.004	2.0	NoResponse	0	0.203	247.766	3	25	Target	MissedWin	True
248.747	0.53	Win2	0.6154	n/a	No	3.083	n/a	n/a	NoResponse	0	n/a	n/a	3	25	Blank	MissedWin	True
248.766	0.3	Win2	0.6154	0.004	No	3.083	-0.004	2.0	NoResponse	0	0.203	n/a	3	25	ButtonPress	MissedWin	True
249.265	1.45	Win2	0.6154	n/a	No	3.083	n/a	5.0	NoResponse	0	0.026	248.291	3	25	Feedback	MissedWin	True
250.719	3.083	Win2	0.6154	n/a	No	3.083	n/a	n/a	NoResponse	0	0.0	n/a	3	25	ISIslide	MissedWin	True
253.829	0.25	Win2	0.6296	0.0	Yes	2.921	0.029	n/a	GoodResponse	1	n/a	n/a	4	26	Cue	Win	True
254.079	3.95	Win2	0.6296	0.0	Yes	2.921	0.0	n/a	GoodResponse	1	n/a	n/a	4	26	Fixation	Win	True
258.025	0.18	Win2	0.6296	0.004	Yes	2.921	-0.004	2.0	GoodResponse	1	0.175	257.2	4	26	Target	Win	True
258.2	0.3	Win2	0.6296	0.004	Yes	2.921	-0.004	2.0	GoodResponse	1	0.175	n/a	4	26	ButtonPress	Win	True
258.208	0.52	Win2	0.6296	n/a	Yes	2.921	n/a	n/a	GoodResponse	1	n/a	n/a	4	26	Blank	Win	True
258.727	1.45	Win2	0.6296	n/a	Yes	2.921	n/a	5.0	GoodResponse	1	0.028	257.755	4	26	Feedback	Win	True
260.181	2.921	Win2	0.6296	n/a	Yes	2.921	n/a	n/a	GoodResponse	1	0.0	n/a	4	26	ISIslide	Win	True
263.123	0.25	Lose2	0.6429	0.0	Yes	2.827	0.023	n/a	GoodResponse	0	n/a	n/a	4	27	Cue	AvoidedLoss	False
263.374	4.05	Lose2	0.6429	0.0	Yes	2.827	0.001	2.0	GoodResponse	0	3.289	265.663	4	27	Fixation	AvoidedLoss	False
266.663	0.3	Lose2	0.6429	0.0	Yes	2.827	0.001	2.0	GoodResponse	0	3.289	n/a	4	27	ButtonPress	AvoidedLoss	False
267.419	0.19	Lose2	0.6429	0.004	Yes	2.827	-0.004	2.0	GoodResponse	0	0.189	266.608	4	27	Target	AvoidedLoss	False
267.608	0.3	Lose2	0.6429	0.004	Yes	2.827	-0.004	2.0	GoodResponse	0	0.189	n/a	4	27	ButtonPress	AvoidedLoss	False
267.62	0.51	Lose2	0.6429	n/a	Yes	2.827	n/a	n/a	GoodResponse	0	n/a	n/a	4	27	Blank	AvoidedLoss	False
268.121	1.45	Lose2	0.6429	n/a	Yes	2.827	n/a	5.0	GoodResponse	0	0.048	267.169	4	27	Feedback	AvoidedLoss	False
269.576	2.827	Lose2	0.6429	n/a	Yes	2.827	n/a	n/a	GoodResponse	0	0.0	n/a	4	27	ISIslide	AvoidedLoss	False
272.418	0.25	Control	0.6207	0.0	No	2.832	0.018	n/a	NoResponse	0	n/a	n/a	4	28	Cue	Neutral	True
272.668	4.05	Control	0.6207	0.0	No	2.832	0.0	n/a	NoResponse	0	n/a	n/a	4	28	Fixation	Neutral	True
276.714	0.2	Control	0.6207	0.004	No	2.832	-0.004	2.0	NoResponse	0	0.342	276.056	4	28	Target	Neutral	True
276.914	0.5	Control	0.6207	n/a	No	2.832	n/a	n/a	NoResponse	0	n/a	n/a	4	28	Blank	Neutral	True
277.056	0.3	Control	0.6207	0.004	No	2.832	-0.004	2.0	NoResponse	0	0.342	n/a	4	28	ButtonPress	Neutral	True
277.416	1.45	Control	0.6207	n/a	No	2.832	n/a	5.0	NoResponse	0	0.022	276.438	4	28	Feedback	Neutral	True
278.87	2.832	Control	0.6207	n/a	No	2.832	n/a	n/a	NoResponse	0	0.0	n/a	4	28	ISIslide	Neutral	True
281.729	0.25	Lose2	0.6333	0.0	Yes	2.821	0.029	n/a	GoodResponse	0	n/a	n/a	4	29	Cue	AvoidedLoss	True
281.98	3.95	Lose2	0.6333	0.0	Yes	2.821	0.001	n/a	GoodResponse	0	n/a	n/a	4	29	Fixation	AvoidedLoss	True
285.925	0.21	Lose2	0.6333	0.004	Yes	2.821	-0.004	2.0	GoodResponse	0	0.189	285.114	4	29	Target	AvoidedLoss	True
286.114	0.3	Lose2	0.6333	0.004	Yes	2.821	-0.004	2.0	GoodResponse	0	0.189	n/a	4	29	ButtonPress	AvoidedLoss	True
286.142	0.49	Lose2	0.6333	n/a	Yes	2.821	n/a	n/a	GoodResponse	0	n/a	n/a	4	29	Blank	AvoidedLoss	True
286.627	1.45	Lose2	0.6333	n/a	Yes	2.821	n/a	5.0	GoodResponse	0	0.029	285.656	4	29	Feedback	AvoidedLoss	True
288.081	2.821	Lose2	0.6333	n/a	Yes	2.821	n/a	n/a	GoodResponse	0	0.0	n/a	4	29	ISIslide	AvoidedLoss	True
290.923	0.25	Win2	0.6452	0.0	Yes	2.777	0.023	n/a	GoodResponse	1	n/a	n/a	5	30	Cue	Win	True
291.174	3.9	Win2	0.6452	0.0	Yes	2.777	0.001	n/a	GoodResponse	1	n/a	n/a	5	30	Fixation	Win	True
295.069	0.22	Win2	0.6452	0.004	Yes	2.777	-0.004	2.0	GoodResponse	1	0.2	294.269	5	30	Target	Win	True
295.269	0.3	Win2	0.6452	0.004	Yes	2.777	-0.004	2.0	GoodResponse	1	0.2	n/a	5	30	ButtonPress	Win	True
295.303	0.48	Win2	0.6452	n/a	Yes	2.777	n/a	n/a	GoodResponse	1	n/a	n/a	5	30	Blank	Win	True
295.771	1.45	Win2	0.6452	n/a	Yes	2.777	n/a	5.0	GoodResponse	1	0.008	294.779	5	30	Feedback	Win	True
297.225	2.777	Win2	0.6452	n/a	Yes	2.777	n/a	n/a	GoodResponse	1	0.0	n/a	5	30	ISIslide	Win	True
300.017	0.25	Lose2	0.6562	0.0	Yes	2.833	0.017	n/a	GoodResponse	0	n/a	n/a	5	31	Cue	AvoidedLoss	True
300.268	4.05	Lose2	0.6562	0.0	Yes	2.833	0.001	n/a	GoodResponse	0	n/a	n/a	5	31	Fixation	AvoidedLoss	True
304.313	0.23	Lose2	0.6562	0.004	Yes	2.833	-0.004	2.0	GoodResponse	0	0.215	303.528	5	31	Target	AvoidedLoss	True
304.528	0.3	Lose2	0.6562	0.004	Yes	2.833	-0.004	2.0	GoodResponse	0	0.215	n/a	5	31	ButtonPress	AvoidedLoss	True
304.547	0.47	Lose2	0.6562	n/a	Yes	2.833	n/a	n/a	GoodResponse	0	n/a	n/a	5	31	Blank	AvoidedLoss	True
305.015	1.45	Lose2	0.6562	n/a	Yes	2.833	n/a	5.0	GoodResponse	0	0.032	304.047	5	31	Feedback	AvoidedLoss	True
306.47	2.833	Lose2	0.6562	n/a	Yes	2.833	n/a	n/a	GoodResponse	0	0.0	n/a	5	31	ISIslide	AvoidedLoss	True
309.328	0.25	Lose2	0.6667000000000001	0.0	Yes	2.622	0.028	n/a	GoodResponse	0	n/a	n/a	5	32	Cue	AvoidedLoss	False
309.579	4.15	Lose2	0.6667000000000001	0.0	Yes	2.622	0.001	2.0	GoodResponse	0	0.257	308.836	5	32	Fixation	AvoidedLoss	False
309.836	0.3	Lose2	0.6667000000000001	0.0	Yes	2.622	0.001	2.0	GoodResponse	0	0.257	n/a	5	32	ButtonPress	AvoidedLoss	False
313.725	0.23	Lose2	0.6667000000000001	0.003	Yes	2.622	-0.003	2.0	GoodResponse	0	0.219	312.944	5	32	Target	AvoidedLoss	False
313.944	0.3	Lose2	0.6667000000000001	0.003	Yes	2.622	-0.003	2.0	GoodResponse	0	0.219	n/a	5	32	ButtonPress	AvoidedLoss	False
313.959	0.47	Lose2	0.6667000000000001	n/a	Yes	2.622	n/a	n/a	GoodResponse	0	n/a	n/a	5	32	Blank	AvoidedLoss	False
314.427	1.45	Lose2	0.6667000000000001	n/a	Yes	2.622	n/a	5.0	GoodResponse	0	0.035	313.462	5	32	Feedback	AvoidedLoss	False
315.881	2.622	Lose2	0.6667000000000001	n/a	Yes	2.622	n/a	n/a	GoodResponse	0	0.0	n/a	5	32	ISIslide	AvoidedLoss	False
318.522	0.25	Win2	0.6765000000000001	0.001	Yes	2.678	0.022	n/a	GoodResponse	1	n/a	n/a	6	33	Cue	Win	True
318.773	4.0	Win2	0.6765000000000001	0.0	Yes	2.678	0.001	n/a	GoodResponse	1	n/a	n/a	6	33	Fixation	Win	True
322.769	0.22	Win2	0.6765000000000001	0.003	Yes	2.678	-0.003	2.0	GoodResponse	1	0.215	321.984	6	33	Target	Win	True
322.984	0.3	Win2	0.6765000000000001	0.003	Yes	2.678	-0.003	2.0	GoodResponse	1	0.215	n/a	6	33	ButtonPress	Win	True
323.003	0.48	Win2	0.6765000000000001	n/a	Yes	2.678	n/a	n/a	GoodResponse	1	n/a	n/a	6	33	Blank	Win	True
323.471	1.45	Win2	0.6765000000000001	n/a	Yes	2.678	n/a	5.0	GoodResponse	1	0.015	322.486	6	33	Feedback	Win	True
324.925	2.678	Win2	0.6765000000000001	n/a	Yes	2.678	n/a	n/a	GoodResponse	1	0.0	n/a	6	33	ISIslide	Win	True
327.616	0.25	Lose2	0.6857	0.0	Yes	2.634	0.016	n/a	GoodResponse	0	n/a	n/a	6	34	Cue	AvoidedLoss	True
327.867	4.05	Lose2	0.6857	0.0	Yes	2.634	0.001	n/a	GoodResponse	0	n/a	n/a	6	34	Fixation	AvoidedLoss	True
331.913	0.21	Lose2	0.6857	0.003	Yes	2.634	-0.003	2.0	GoodResponse	0	0.208	331.121	6	34	Target	AvoidedLoss	True
332.121	0.3	Lose2	0.6857	0.003	Yes	2.634	-0.003	2.0	GoodResponse	0	0.208	n/a	6	34	ButtonPress	AvoidedLoss	True
332.13	0.49	Lose2	0.6857	n/a	Yes	2.634	n/a	n/a	GoodResponse	0	n/a	n/a	6	34	Blank	AvoidedLoss	True
332.615	1.45	Lose2	0.6857	n/a	Yes	2.634	n/a	5.0	GoodResponse	0	0.042	331.657	6	34	Feedback	AvoidedLoss	True
334.069	2.634	Lose2	0.6857	n/a	Yes	2.634	n/a	n/a	GoodResponse	0	0.0	n/a	6	34	ISIslide	AvoidedLoss	True
336.727	0.25	Lose2	0.6667000000000001	0.0	No	2.673	0.027	n/a	NoResponse	-1	n/a	n/a	5	35	Cue	Loss	True
336.978	4.0	Lose2	0.6667000000000001	0.0	No	2.673	0.001	n/a	NoResponse	-1	n/a	n/a	5	35	Fixation	Loss	True
340.973	0.2	Lose2	0.6667000000000001	0.004	No	2.673	-0.004	2.0	NoResponse	-1	0.216	340.189	5	35	Target	Loss	True
341.174	0.5	Lose2	0.6667000000000001	n/a	No	2.673	n/a	n/a	NoResponse	-1	n/a	n/a	5	35	Blank	Loss	True
341.189	0.3	Lose2	0.6667000000000001	0.004	No	2.673	-0.004	2.0	NoResponse	-1	0.216	n/a	5	35	ButtonPress	Loss	True
341.675	1.45	Lose2	0.6667000000000001	n/a	No	2.673	n/a	5.0	NoResponse	-1	0.007	340.682	5	35	Feedback	Loss	True
343.13	2.673	Lose2	0.6667000000000001	n/a	No	2.673	n/a	n/a	NoResponse	-1	0.0	n/a	5	35	ISIslide	Loss	True
345.821	0.25	Control	0.6486	0.0	No	2.679	0.021	n/a	NoResponse	0	n/a	n/a	5	36	Cue	Neutral	True
346.072	4.0	Control	0.6486	0.0	No	2.679	0.001	n/a	NoResponse	0	n/a	n/a	5	36	Fixation	Neutral	True
350.067	0.19	Control	0.6486	0.004	No	2.679	-0.004	2.0	NoResponse	0	0.211	349.278	5	36	Target	Neutral	True
350.268	0.51	Control	0.6486	n/a	No	2.679	n/a	n/a	NoResponse	0	n/a	n/a	5	36	Blank	Neutral	True
350.278	0.3	Control	0.6486	0.004	No	2.679	-0.004	2.0	NoResponse	0	0.211	n/a	5	36	ButtonPress	Neutral	True
350.769	1.45	Control	0.6486	n/a	No	2.679	n/a	5.0	NoResponse	0	0.033	349.802	5	36	Feedback	Neutral	True
352.223	2.679	Control	0.6486	n/a	No	2.679	n/a	n/a	NoResponse	0	0.0	n/a	5	36	ISIslide	Neutral	True
354.932	0.25	Win2	0.6315999999999999	0.0	No	2.868	0.032	n/a	NoResponse	0	n/a	n/a	5	37	Cue	MissedWin	True
355.182	4.0	Win2	0.6315999999999999	0.0	No	2.868	0.0	n/a	NoResponse	0	n/a	n/a	5	37	Fixation	MissedWin	True
359.178	0.2	Win2	0.6315999999999999	0.004	No	2.868	-0.004	2.0	NoResponse	0	0.236	358.414	5	37	Target	MissedWin	True
359.378	0.5	Win2	0.6315999999999999	n/a	No	2.868	n/a	n/a	NoResponse	0	n/a	n/a	5	37	Blank	MissedWin	True
359.414	0.3	Win2	0.6315999999999999	0.004	No	2.868	-0.004	2.0	NoResponse	0	0.236	n/a	5	37	ButtonPress	MissedWin	True
359.88	1.45	Win2	0.6315999999999999	n/a	No	2.868	n/a	5.0	NoResponse	0	0.044	358.924	5	37	Feedback	MissedWin	True
361.334	2.868	Win2	0.6315999999999999	n/a	No	2.868	n/a	n/a	NoResponse	0	0.0	n/a	5	37	ISIslide	MissedWin	True
364.226	0.25	Lose2	0.6154	0.0	No	2.824	0.026	n/a	NoResponse	-1	n/a	n/a	4	38	Cue	Loss	True
364.477	3.95	Lose2	0.6154	0.0	No	2.824	0.001	n/a	NoResponse	-1	n/a	n/a	4	38	Fixation	Loss	True
368.422	0.21	Lose2	0.6154	0.004	No	2.824	-0.004	2.0	NoResponse	-1	0.225	367.647	4	38	Target	Loss	True
368.639	0.49	Lose2	0.6154	n/a	No	2.824	n/a	n/a	NoResponse	-1	n/a	n/a	4	38	Blank	Loss	True
368.647	0.3	Lose2	0.6154	0.004	No	2.824	-0.004	2.0	NoResponse	-1	0.225	n/a	4	38	ButtonPress	Loss	True
369.124	1.45	Lose2	0.6154	n/a	No	2.824	n/a	5.0	NoResponse	-1	0.02	368.144	4	38	Feedback	Loss	True
370.578	2.824	Lose2	0.6154	n/a	No	2.824	n/a	n/a	NoResponse	-1	0.0	n/a	4	38	ISIslide	Loss	True
373.42	0.25	Win2	0.6	0.0	No	2.98	0.02	n/a	NoResponse	0	n/a	n/a	4	39	Cue	MissedWin	True
373.671	4.1	Win2	0.6	0.0	No	2.98	0.001	n/a	NoResponse	0	n/a	n/a	4	39	Fixation	MissedWin	True
377.767	0.22	Win2	0.6	0.003	No	2.98	-0.003	2.0	NoResponse	0	0.252	377.019	4	39	Target	MissedWin	True
378.001	0.48	Win2	0.6	n/a	No	2.98	n/a	n/a	NoResponse	0	n/a	n/a	4	39	Blank	MissedWin	True
378.019	0.3	Win2	0.6	0.003	No	2.98	-0.003	2.0	NoResponse	0	0.252	n/a	4	39	ButtonPress	MissedWin	True
378.469	1.45	Win2	0.6	n/a	No	2.98	n/a	5.0	NoResponse	0	0.041	377.51	4	39	Feedback	MissedWin	True
379.923	2.98	Win2	0.6	n/a	No	2.98	n/a	n/a	NoResponse	0	0.0	n/a	4	39	ISIslide	MissedWin	True
382.915	0.25	Win2	0.5854	0.001	No	2.735	0.015	n/a	NoResponse	0	n/a	n/a	4	40	Cue	MissedWin	True
383.166	3.95	Win2	0.5854	0.0	No	2.735	0.001	2.0	NoResponse	0	3.927	386.093	4	40	Fixation	MissedWin	True
387.093	0.3	Win2	0.5854	0.0	No	2.735	0.001	2.0	NoResponse	0	3.927	n/a	4	40	ButtonPress	MissedWin	True
387.111	0.23	Win2	0.5854	0.004	No	2.735	-0.004	n/a	NoResponse	0	n/a	n/a	4	40	Target	MissedWin	True
387.345	0.47	Win2	0.5854	n/a	No	2.735	n/a	n/a	NoResponse	0	n/a	n/a	4	40	Blank	MissedWin	True
387.813	1.45	Win2	0.5854	n/a	No	2.735	n/a	5.0	NoResponse	0	0.014	386.827	4	40	Feedback	MissedWin	True
389.268	2.735	Win2	0.5854	n/a	No	2.735	n/a	n/a	NoResponse	0	0.0	n/a	4	40	ISIslide	MissedWin	True
392.026	0.25	Win2	0.5952000000000001	0.0	Yes	2.774	0.026	n/a	GoodResponse	1	n/a	n/a	5	41	Cue	Win	True
392.277	3.9	Win2	0.5952000000000001	0.0	Yes	2.774	0.001	n/a	GoodResponse	1	n/a	n/a	5	41	Fixation	Win	True
396.172	0.24	Win2	0.5952000000000001	0.004	Yes	2.774	-0.004	2.0	GoodResponse	1	0.133	395.305	5	41	Target	Win	True
396.305	0.3	Win2	0.5952000000000001	0.004	Yes	2.774	-0.004	2.0	GoodResponse	1	0.133	n/a	5	41	ButtonPress	Win	True
396.423	0.46	Win2	0.5952000000000001	n/a	Yes	2.774	n/a	n/a	GoodResponse	1	n/a	n/a	5	41	Blank	Win	True
396.874	1.45	Win2	0.5952000000000001	n/a	Yes	2.774	n/a	5.0	GoodResponse	1	0.026	395.9	5	41	Feedback	Win	True
398.328	2.774	Win2	0.5952000000000001	n/a	Yes	2.774	n/a	n/a	GoodResponse	1	0.0	n/a	5	41	ISIslide	Win	True
401.12	0.25	Control	0.6047	0.0	Yes	2.93	0.02	n/a	GoodResponse	0	n/a	n/a	5	42	Cue	Neutral	True
401.371	3.85	Control	0.6047	0.0	Yes	2.93	0.001	n/a	GoodResponse	0	n/a	n/a	5	42	Fixation	Neutral	True
405.216	0.25	Control	0.6047	0.004	Yes	2.93	-0.004	2.0	GoodResponse	0	0.222	404.438	5	42	Target	Neutral	True
405.438	0.3	Control	0.6047	0.004	Yes	2.93	-0.004	2.0	GoodResponse	0	0.222	n/a	5	42	ButtonPress	Neutral	True
405.466	0.45	Control	0.6047	n/a	Yes	2.93	n/a	n/a	GoodResponse	0	n/a	n/a	5	42	Blank	Neutral	True
405.918	1.45	Control	0.6047	n/a	Yes	2.93	n/a	5.0	GoodResponse	0	0.007	404.925	5	42	Feedback	Neutral	True
407.372	2.93	Control	0.6047	n/a	Yes	2.93	n/a	n/a	GoodResponse	0	0.0	n/a	5	42	ISIslide	Neutral	True
410.331	0.25	Win2	0.6136	0.0	Yes	3.169	0.031	n/a	GoodResponse	1	n/a	n/a	6	43	Cue	Win	True
410.582	4.0	Win2	0.6136	0.0	Yes	3.169	0.001	n/a	GoodResponse	1	n/a	n/a	6	43	Fixation	Win	True
414.577	0.26	Win2	0.6136	0.004	Yes	3.169	-0.004	2.0	GoodResponse	1	0.188	413.765	6	43	Target	Win	True
414.765	0.3	Win2	0.6136	0.004	Yes	3.169	-0.004	2.0	GoodResponse	1	0.188	n/a	6	43	ButtonPress	Win	True
414.844	0.44	Win2	0.6136	n/a	Yes	3.169	n/a	n/a	GoodResponse	1	n/a	n/a	6	43	Blank	Win	True
415.279	1.45	Win2	0.6136	n/a	Yes	3.169	n/a	5.0	GoodResponse	1	0.011	414.29	6	43	Feedback	Win	True
416.733	3.169	Win2	0.6136	n/a	Yes	3.169	n/a	n/a	GoodResponse	1	0.0	n/a	6	43	ISIslide	Win	True
419.926	0.25	Win2	0.6222	0.0	Yes	2.974	0.026	n/a	GoodResponse	1	n/a	n/a	7	44	Cue	Win	True
420.177	4.0	Win2	0.6222	0.0	Yes	2.974	0.001	n/a	GoodResponse	1	n/a	n/a	7	44	Fixation	Win	True
424.172	0.27	Win2	0.6222	0.004	Yes	2.974	-0.004	2.0	GoodResponse	1	0.263	423.435	7	44	Target	Win	True
424.435	0.3	Win2	0.6222	0.004	Yes	2.974	-0.004	2.0	GoodResponse	1	0.263	n/a	7	44	ButtonPress	Win	True
424.457	0.43	Win2	0.6222	n/a	Yes	2.974	n/a	n/a	GoodResponse	1	n/a	n/a	7	44	Blank	Win	True
424.874	1.45	Win2	0.6222	n/a	Yes	2.974	n/a	5.0	GoodResponse	1	0.026	423.9	7	44	Feedback	Win	True
426.329	2.974	Win2	0.6222	n/a	Yes	2.974	n/a	n/a	GoodResponse	1	0.0	n/a	7	44	ISIslide	Win	True
429.321	0.25	Control	0.6304	0.0	Yes	2.879	0.021	n/a	GoodResponse	0	n/a	n/a	7	45	Cue	Neutral	True
429.572	4.1	Control	0.6304	0.0	Yes	2.879	0.001	n/a	GoodResponse	0	n/a	n/a	7	45	Fixation	Neutral	True
433.667	0.28	Control	0.6304	0.004	Yes	2.879	-0.004	2.0	GoodResponse	0	0.208	432.875	7	45	Target	Neutral	True
433.875	0.3	Control	0.6304	0.004	Yes	2.879	-0.004	2.0	GoodResponse	0	0.208	n/a	7	45	ButtonPress	Neutral	True
433.952	0.42	Control	0.6304	n/a	Yes	2.879	n/a	n/a	GoodResponse	0	n/a	n/a	7	45	Blank	Neutral	True
434.37	1.45	Control	0.6304	n/a	Yes	2.879	n/a	5.0	GoodResponse	0	0.042	433.412	7	45	Feedback	Neutral	True
435.824	2.879	Control	0.6304	n/a	Yes	2.879	n/a	n/a	GoodResponse	0	0.0	n/a	7	45	ISIslide	Neutral	True
438.716	0.25	Lose2	0.6383	0.0	Yes	3.384	0.016	n/a	GoodResponse	0	n/a	n/a	7	46	Cue	AvoidedLoss	True
438.967	4.0	Lose2	0.6383	0.0	Yes	3.384	0.001	n/a	GoodResponse	0	n/a	n/a	7	46	Fixation	AvoidedLoss	True
442.962	0.29	Lose2	0.6383	0.004	Yes	3.384	-0.004	2.0	GoodResponse	0	0.227	442.189	7	46	Target	AvoidedLoss	True
443.189	0.3	Lose2	0.6383	0.004	Yes	3.384	-0.004	2.0	GoodResponse	0	0.227	n/a	7	46	ButtonPress	AvoidedLoss	True
443.263	0.41	Lose2	0.6383	n/a	Yes	3.384	n/a	n/a	GoodResponse	0	n/a	n/a	7	46	Blank	AvoidedLoss	True
443.664	1.45	Lose2	0.6383	n/a	Yes	3.384	n/a	5.0	GoodResponse	0	0.016	442.68	7	46	Feedback	AvoidedLoss	True
445.118	3.384	Lose2	0.6383	n/a	Yes	3.384	n/a	n/a	GoodResponse	0	0.0	n/a	7	46	ISIslide	AvoidedLoss	True
448.529	0.25	Lose2	0.6457999999999999	0.0	Yes	2.671	0.029	n/a	GoodResponse	0	n/a	n/a	7	47	Cue	AvoidedLoss	True
448.779	4.0	Lose2	0.6457999999999999	0.001	Yes	2.671	0.0	n/a	GoodResponse	0	n/a	n/a	7	47	Fixation	AvoidedLoss	True
452.775	0.3	Lose2	0.6457999999999999	0.004	Yes	2.671	-0.004	2.0	GoodResponse	0	0.239	452.014	7	47	Target	AvoidedLoss	True
453.014	0.3	Lose2	0.6457999999999999	0.004	Yes	2.671	-0.004	2.0	GoodResponse	0	0.239	n/a	7	47	ButtonPress	AvoidedLoss	True
453.076	0.4	Lose2	0.6457999999999999	n/a	Yes	2.671	n/a	n/a	GoodResponse	0	n/a	n/a	7	47	Blank	AvoidedLoss	True
453.477	1.45	Lose2	0.6457999999999999	n/a	Yes	2.671	n/a	5.0	GoodResponse	0	0.008	452.485	7	47	Feedback	AvoidedLoss	True
454.931	2.671	Lose2	0.6457999999999999	n/a	Yes	2.671	n/a	n/a	GoodResponse	0	0.0	n/a	7	47	ISIslide	AvoidedLoss	True
457.623	0.25	Lose2	0.6531	0.0	Yes	3.027	0.023	n/a	GoodResponse	0	n/a	n/a	7	48	Cue	AvoidedLoss	True
457.873	3.95	Lose2	0.6531	0.0	Yes	3.027	0.0	n/a	GoodResponse	0	n/a	n/a	7	48	Fixation	AvoidedLoss	True
461.819	0.31	Lose2	0.6531	0.004	Yes	3.027	-0.004	2.0	GoodResponse	0	0.188	461.007	7	48	Target	AvoidedLoss	True
462.007	0.3	Lose2	0.6531	0.004	Yes	3.027	-0.004	2.0	GoodResponse	0	0.188	n/a	7	48	ButtonPress	AvoidedLoss	True
462.136	0.39	Lose2	0.6531	n/a	Yes	3.027	n/a	n/a	GoodResponse	0	n/a	n/a	7	48	Blank	AvoidedLoss	True
462.521	1.45	Lose2	0.6531	n/a	Yes	3.027	n/a	5.0	GoodResponse	0	0.037	461.558	7	48	Feedback	AvoidedLoss	True
463.975	3.027	Lose2	0.6531	n/a	Yes	3.027	n/a	n/a	GoodResponse	0	0.0	n/a	7	48	ISIslide	AvoidedLoss	True
467.017	0.25	Control	0.66	0.001	Yes	2.883	0.017	n/a	GoodResponse	0	n/a	n/a	7	49	Cue	Neutral	True
467.268	4.0	Control	0.66	0.0	Yes	2.883	0.001	n/a	GoodResponse	0	n/a	n/a	7	49	Fixation	Neutral	True
471.263	0.32	Control	0.66	0.004	Yes	2.883	-0.004	2.0	GoodResponse	0	0.212	470.475	7	49	Target	Neutral	True
471.475	0.3	Control	0.66	0.004	Yes	2.883	-0.004	2.0	GoodResponse	0	0.212	n/a	7	49	ButtonPress	Neutral	True
471.598	0.38	Control	0.66	n/a	Yes	2.883	n/a	n/a	GoodResponse	0	n/a	n/a	7	49	Blank	Neutral	True
471.966	1.45	Control	0.66	n/a	Yes	2.883	n/a	5.0	GoodResponse	0	0.006	470.972	7	49	Feedback	Neutral	True
473.42	2.883	Control	0.66	n/a	Yes	2.883	n/a	n/a	GoodResponse	0	0.0	n/a	7	49	ISIslide	Neutral	True
476.329	0.25	Control	0.6667000000000001	0.0	Yes	2.771	0.029	n/a	GoodResponse	0	n/a	n/a	7	50	Cue	Neutral	False
476.579	4.0	Control	0.6667000000000001	0.001	Yes	2.771	0.0	2.0	GoodResponse	0	3.69	479.269	7	50	Fixation	Neutral	False
480.269	0.3	Control	0.6667000000000001	0.001	Yes	2.771	0.0	2.0	GoodResponse	0	3.69	n/a	7	50	ButtonPress	Neutral	False
480.575	0.32	Control	0.6667000000000001	0.004	Yes	2.771	-0.004	2.0	GoodResponse	0	0.211	479.786	7	50	Target	Neutral	False
480.786	0.3	Control	0.6667000000000001	0.004	Yes	2.771	-0.004	2.0	GoodResponse	0	0.211	n/a	7	50	ButtonPress	Neutral	False
480.909	0.38	Control	0.6667000000000001	n/a	Yes	2.771	n/a	n/a	GoodResponse	0	n/a	n/a	7	50	Blank	Neutral	False
481.277	1.45	Control	0.6667000000000001	n/a	Yes	2.771	n/a	5.0	GoodResponse	0	0.013	480.29	7	50	Feedback	Neutral	False
482.731	2.771	Control	0.6667000000000001	n/a	Yes	2.771	n/a	n/a	GoodResponse	0	0.0	n/a	7	50	ISIslide	Neutral	False
485.523	0.25	Control	0.6731	0.0	Yes	2.727	0.023	n/a	GoodResponse	0	n/a	n/a	7	51	Cue	Neutral	True
485.774	3.95	Control	0.6731	0.0	Yes	2.727	0.001	n/a	GoodResponse	0	n/a	n/a	7	51	Fixation	Neutral	True
489.719	0.31	Control	0.6731	0.004	Yes	2.727	-0.004	2.0	GoodResponse	0	0.227	488.946	7	51	Target	Neutral	True
489.946	0.3	Control	0.6731	0.004	Yes	2.727	-0.004	2.0	GoodResponse	0	0.227	n/a	7	51	ButtonPress	Neutral	True
490.036	0.39	Control	0.6731	n/a	Yes	2.727	n/a	n/a	GoodResponse	0	n/a	n/a	7	51	Blank	Neutral	True
490.421	1.45	Control	0.6731	n/a	Yes	2.727	n/a	5.0	GoodResponse	0	0.039	489.46	7	51	Feedback	Neutral	True
491.875	2.727	Control	0.6731	n/a	Yes	2.727	n/a	n/a	GoodResponse	0	0.0	n/a	7	51	ISIslide	Neutral	True
494.617	0.25	Control	0.6792	0.0	Yes	2.633	0.017	n/a	GoodResponse	0	n/a	n/a	7	52	Cue	Neutral	True
494.868	4.05	Control	0.6792	0.0	Yes	2.633	0.001	n/a	GoodResponse	0	n/a	n/a	7	52	Fixation	Neutral	True
498.913	0.3	Control	0.6792	0.004	Yes	2.633	-0.004	2.0	GoodResponse	0	0.234	498.147	7	52	Target	Neutral	True
499.147	0.3	Control	0.6792	0.004	Yes	2.633	-0.004	2.0	GoodResponse	0	0.234	n/a	7	52	ButtonPress	Neutral	True
499.214	0.4	Control	0.6792	n/a	Yes	2.633	n/a	n/a	GoodResponse	0	n/a	n/a	7	52	Blank	Neutral	True
499.615	1.45	Control	0.6792	n/a	Yes	2.633	n/a	5.0	GoodResponse	0	0.016	498.631	7	52	Feedback	Neutral	True
501.069	2.633	Control	0.6792	n/a	Yes	2.633	n/a	n/a	GoodResponse	0	0.0	n/a	7	52	ISIslide	Neutral	True
503.727	0.25	Win2	0.6851999999999999	0.001	Yes	2.923	0.027	n/a	GoodResponse	1	n/a	n/a	8	53	Cue	Win	True
503.978	4.05	Win2	0.6851999999999999	0.0	Yes	2.923	0.001	n/a	GoodResponse	1	n/a	n/a	8	53	Fixation	Win	True
508.024	0.29	Win2	0.6851999999999999	0.003	Yes	2.923	-0.003	2.0	GoodResponse	1	0.207	507.231	8	53	Target	Win	True
508.231	0.3	Win2	0.6851999999999999	0.003	Yes	2.923	-0.003	2.0	GoodResponse	1	0.207	n/a	8	53	ButtonPress	Win	True
508.325	0.41	Win2	0.6851999999999999	n/a	Yes	2.923	n/a	n/a	GoodResponse	1	n/a	n/a	8	53	Blank	Win	True
508.726	1.45	Win2	0.6851999999999999	n/a	Yes	2.923	n/a	5.0	GoodResponse	1	0.027	507.753	8	53	Feedback	Win	True
510.18	2.923	Win2	0.6851999999999999	n/a	Yes	2.923	n/a	n/a	GoodResponse	1	0.0	n/a	8	53	ISIslide	Win	True
513.122	0.25	Win2	0.6909000000000001	0.0	Yes	2.728	0.022	n/a	GoodResponse	1	n/a	n/a	9	54	Cue	Win	True
513.373	3.95	Win2	0.6909000000000001	0.0	Yes	2.728	0.001	n/a	GoodResponse	1	n/a	n/a	9	54	Fixation	Win	True
517.318	0.28	Win2	0.6909000000000001	0.004	Yes	2.728	-0.004	2.0	GoodResponse	1	0.198	516.516	9	54	Target	Win	True
517.516	0.3	Win2	0.6909000000000001	0.004	Yes	2.728	-0.004	2.0	GoodResponse	1	0.198	n/a	9	54	ButtonPress	Win	True
517.602	0.42	Win2	0.6909000000000001	n/a	Yes	2.728	n/a	n/a	GoodResponse	1	n/a	n/a	9	54	Blank	Win	True
518.02	1.45	Win2	0.6909000000000001	n/a	Yes	2.728	n/a	5.0	GoodResponse	1	0.002	517.022	9	54	Feedback	Win	True
519.475	2.728	Win2	0.6909000000000001	n/a	Yes	2.728	n/a	n/a	GoodResponse	1	0.0	n/a	9	54	ISIslide	Win	True
522.216	0.25	Control	0.6786	0.0	No	3.034	0.016	n/a	NoResponse	0	n/a	n/a	9	55	Cue	Neutral	True
522.467	3.95	Control	0.6786	0.0	No	3.034	0.001	n/a	NoResponse	0	n/a	n/a	9	55	Fixation	Neutral	True
526.412	0.27	Control	0.6786	0.004	No	3.034	-0.004	2.0	NoResponse	0	0.335	525.747	9	55	Target	Neutral	True
526.696	0.43	Control	0.6786	n/a	No	3.034	n/a	n/a	NoResponse	0	n/a	n/a	9	55	Blank	Neutral	True
526.747	0.3	Control	0.6786	0.004	No	3.034	-0.004	2.0	NoResponse	0	0.335	n/a	9	55	ButtonPress	Neutral	True
527.114	1.45	Control	0.6786	n/a	No	3.034	n/a	5.0	NoResponse	0	0.029	526.143	9	55	Feedback	Neutral	True
528.569	3.034	Control	0.6786	n/a	No	3.034	n/a	n/a	NoResponse	0	0.0	n/a	9	55	ISIslide	Neutral	True
531.628	0.25	Control	0.6667000000000001	0.0	No	2.822	0.028	n/a	NoResponse	0	n/a	n/a	9	56	Cue	Neutral	True
531.878	3.95	Control	0.6667000000000001	0.001	No	2.822	0.0	n/a	NoResponse	0	n/a	n/a	9	56	Fixation	Neutral	True
535.824	0.26	Control	0.6667000000000001	0.004	No	2.822	-0.004	2.0	NoResponse	0	0.296	535.12	9	56	Target	Neutral	True
536.091	0.44	Control	0.6667000000000001	n/a	No	2.822	n/a	n/a	NoResponse	0	n/a	n/a	9	56	Blank	Neutral	True
536.12	0.3	Control	0.6667000000000001	0.004	No	2.822	-0.004	2.0	NoResponse	0	0.296	n/a	9	56	ButtonPress	Neutral	True
536.526	1.45	Control	0.6667000000000001	n/a	No	2.822	n/a	5.0	NoResponse	0	0.032	535.558	9	56	Feedback	Neutral	True
537.98	2.822	Control	0.6667000000000001	n/a	No	2.822	n/a	n/a	NoResponse	0	0.0	n/a	9	56	ISIslide	Neutral	True
540.822	0.25	Control	0.6724	0.0	Yes	3.478	0.022	n/a	GoodResponse	0	n/a	n/a	9	57	Cue	Neutral	True
541.073	4.0	Control	0.6724	0.0	Yes	3.478	0.001	n/a	GoodResponse	0	n/a	n/a	9	57	Fixation	Neutral	True
545.068	0.25	Control	0.6724	0.004	Yes	3.478	-0.004	2.0	GoodResponse	0	0.174	544.242	9	57	Target	Neutral	True
545.242	0.3	Control	0.6724	0.004	Yes	3.478	-0.004	2.0	GoodResponse	0	0.174	n/a	9	57	ButtonPress	Neutral	True
545.319	0.45	Control	0.6724	n/a	Yes	3.478	n/a	n/a	GoodResponse	0	n/a	n/a	9	57	Blank	Neutral	True
545.77	1.45	Control	0.6724	n/a	Yes	3.478	n/a	5.0	GoodResponse	0	0.007	544.777	9	57	Feedback	Neutral	True
547.224	3.478	Control	0.6724	n/a	Yes	3.478	n/a	n/a	GoodResponse	0	0.0	n/a	9	57	ISIslide	Neutral	True
550.718	0.25	Win2	0.6779999999999999	0.0	Yes	2.732	0.018	n/a	GoodResponse	1	n/a	n/a	10	58	Cue	Win	True
550.969	4.05	Win2	0.6779999999999999	0.0	Yes	2.732	0.001	n/a	GoodResponse	1	n/a	n/a	10	58	Fixation	Win	True
555.014	0.24	Win2	0.6779999999999999	0.004	Yes	2.732	-0.004	2.0	GoodResponse	1	0.214	554.228	10	58	Target	Win	True
555.228	0.3	Win2	0.6779999999999999	0.004	Yes	2.732	-0.004	2.0	GoodResponse	1	0.214	n/a	10	58	ButtonPress	Win	True
555.265	0.46	Win2	0.6779999999999999	n/a	Yes	2.732	n/a	n/a	GoodResponse	1	n/a	n/a	10	58	Blank	Win	True
555.717	1.45	Win2	0.6779999999999999	n/a	Yes	2.732	n/a	5.0	GoodResponse	1	0.011	554.728	10	58	Feedback	Win	True
557.171	2.732	Win2	0.6779999999999999	n/a	Yes	2.732	n/a	n/a	GoodResponse	1	0.0	n/a	10	58	ISIslide	Win	True
559.929	0.25	Lose2	0.6833	0.0	Yes	2.671	0.029	n/a	GoodResponse	0	n/a	n/a	10	59	Cue	AvoidedLoss	True
560.18	4.0	Lose2	0.6833	0.0	Yes	2.671	0.001	n/a	GoodResponse	0	n/a	n/a	10	59	Fixation	AvoidedLoss	True
564.175	0.23	Lose2	0.6833	0.004	Yes	2.671	-0.004	2.0	GoodResponse	0	0.195	563.37	10	59	Target	AvoidedLoss	True
564.37	0.3	Lose2	0.6833	0.004	Yes	2.671	-0.004	2.0	GoodResponse	0	0.195	n/a	10	59	ButtonPress	AvoidedLoss	True
564.409	0.47	Lose2	0.6833	n/a	Yes	2.671	n/a	n/a	GoodResponse	0	n/a	n/a	10	59	Blank	AvoidedLoss	True
564.877	1.45	Lose2	0.6833	n/a	Yes	2.671	n/a	5.0	GoodResponse	0	0.022	563.899	10	59	Feedback	AvoidedLoss	True
566.332	2.671	Lose2	0.6833	n/a	Yes	2.671	n/a	n/a	GoodResponse	0	0.0	n/a	10	59	ISIslide	AvoidedLoss	True
569.023	0.25	Control	0.6884999999999999	0.0	Yes	2.677	0.023	n/a	GoodResponse	0	n/a	n/a	10	60	Cue	Neutral	True
569.274	4.0	Control	0.6884999999999999	0.0	Yes	2.677	0.001	n/a	GoodResponse	0	n/a	n/a	10	60	Fixation	Neutral	True
573.269	0.22	Control	0.6884999999999999	0.004	Yes	2.677	-0.004	2.0	GoodResponse	0	0.2	572.469	10	60	Target	Neutral	True
573.469	0.3	Control	0.6884999999999999	0.004	Yes	2.677	-0.004	2.0	GoodResponse	0	0.2	n/a	10	60	ButtonPress	Neutral	True
573.503	0.48	Control	0.6884999999999999	n/a	Yes	2.677	n/a	n/a	GoodResponse	0	n/a	n/a	10	60	Blank	Neutral	True
573.971	1.45	Control	0.6884999999999999	n/a	Yes	2.677	n/a	5.0	GoodResponse	0	0.002	572.973	10	60	Feedback	Neutral	True
575.426	2.677	Control	0.6884999999999999	n/a	Yes	2.677	n/a	n/a	GoodResponse	0	0.0	n/a	10	60	ISIslide	Neutral	True
578.117	0.25	Lose2	0.6774	0.0	No	2.983	0.017	n/a	LatePress	-1	n/a	n/a	9	61	Cue	Loss	True
578.368	4.0	Lose2	0.6774	0.0	No	2.983	0.001	n/a	LatePress	-1	n/a	n/a	9	61	Fixation	Loss	True
582.363	0.21	Lose2	0.6774	0.004	No	2.983	-0.004	2.0	LatePress	-1	0.216	581.579	9	61	Target	Loss	True
582.579	0.3	Lose2	0.6774	0.004	No	2.983	-0.004	2.0	LatePress	-1	0.216	n/a	9	61	ButtonPress	Loss	True
582.58	0.49	Lose2	0.6774	n/a	No	2.983	n/a	n/a	LatePress	-1	n/a	n/a	9	61	Blank	Loss	True
583.065	1.45	Lose2	0.6774	n/a	No	2.983	n/a	5.0	LatePress	-1	0.029	582.094	9	61	Feedback	Loss	True
584.52	2.983	Lose2	0.6774	n/a	No	2.983	n/a	n/a	LatePress	-1	0.0	n/a	9	61	ISIslide	Loss	True
587.529	0.25	Lose2	0.6667000000000001	0.0	No	2.871	0.029	n/a	NoResponse	-1	n/a	n/a	8	62	Cue	Loss	True
587.779	3.9	Lose2	0.6667000000000001	0.0	No	2.871	0.0	n/a	NoResponse	-1	n/a	n/a	8	62	Fixation	Loss	True
591.691	0.2	Lose2	0.6667000000000001	0.0	No	2.871	0.012	2.0	NoResponse	-1	0.208	590.899	8	62	Target	Loss	True
591.875	0.5	Lose2	0.6667000000000001	n/a	No	2.871	n/a	n/a	NoResponse	-1	n/a	n/a	8	62	Blank	Loss	True
591.899	0.3	Lose2	0.6667000000000001	0.0	No	2.871	0.012	2.0	NoResponse	-1	0.208	n/a	8	62	ButtonPress	Loss	True
592.376	1.45	Lose2	0.6667000000000001	n/a	No	2.871	n/a	5.0	NoResponse	-1	0.035	591.411	8	62	Feedback	Loss	True
593.831	2.871	Lose2	0.6667000000000001	n/a	No	2.871	n/a	n/a	NoResponse	-1	0.0	n/a	8	62	ISIslide	Loss	True
596.723	0.25	Lose2	0.6718999999999999	0.0	Yes	2.627	0.023	n/a	GoodResponse	0	n/a	n/a	8	63	Cue	AvoidedLoss	True
596.973	4.05	Lose2	0.6718999999999999	0.001	Yes	2.627	0.0	n/a	GoodResponse	0	n/a	n/a	8	63	Fixation	AvoidedLoss	True
601.019	0.19	Lose2	0.6718999999999999	0.004	Yes	2.627	-0.004	2.0	GoodResponse	0	0.184	600.203	8	63	Target	AvoidedLoss	True
601.203	0.3	Lose2	0.6718999999999999	0.004	Yes	2.627	-0.004	2.0	GoodResponse	0	0.184	n/a	8	63	ButtonPress	AvoidedLoss	True
601.22	0.51	Lose2	0.6718999999999999	n/a	Yes	2.627	n/a	n/a	GoodResponse	0	n/a	n/a	8	63	Blank	AvoidedLoss	True
601.721	1.45	Lose2	0.6718999999999999	n/a	Yes	2.627	n/a	5.0	GoodResponse	0	0.007	600.728	8	63	Feedback	AvoidedLoss	True
603.175	2.627	Lose2	0.6718999999999999	n/a	Yes	2.627	n/a	n/a	GoodResponse	0	0.0	n/a	8	63	ISIslide	AvoidedLoss	True
605.817	0.25	Win2	0.6615000000000001	0.0	No	3.133	0.017	n/a	NoResponse	0	n/a	n/a	8	64	Cue	MissedWin	True
606.067	4.15	Win2	0.6615000000000001	0.0	No	3.133	0.0	n/a	NoResponse	0	n/a	n/a	8	64	Fixation	MissedWin	True
610.213	0.18	Win2	0.6615000000000001	0.004	No	3.133	-0.004	2.0	NoResponse	0	0.206	609.419	8	64	Target	MissedWin	True
610.397	0.52	Win2	0.6615000000000001	n/a	No	3.133	n/a	n/a	NoResponse	0	n/a	n/a	8	64	Blank	MissedWin	True
610.419	0.3	Win2	0.6615000000000001	0.004	No	3.133	-0.004	2.0	NoResponse	0	0.206	n/a	8	64	ButtonPress	MissedWin	True
610.915	1.45	Win2	0.6615000000000001	n/a	No	3.133	n/a	5.0	NoResponse	0	0.033	609.948	8	64	Feedback	MissedWin	True
612.37	3.133	Win2	0.6615000000000001	n/a	No	3.133	n/a	n/a	NoResponse	0	0.0	n/a	8	64	ISIslide	MissedWin	True
615.529	0.25	Control	0.6515000000000001	0.0	No	2.771	0.029	n/a	NoResponse	0	n/a	n/a	8	65	Cue	Neutral	False
615.78	4.0	Control	0.6515000000000001	0.0	No	2.771	0.001	n/a	NoResponse	0	n/a	n/a	8	65	Fixation	Neutral	False
619.775	0.18	Control	0.6515000000000001	0.004	No	2.771	-0.004	n/a	NoResponse	0	n/a	n/a	8	65	Target	Neutral	False
619.959	0.52	Control	0.6515000000000001	n/a	No	2.771	n/a	n/a	NoResponse	0	n/a	n/a	8	65	Blank	Neutral	False
620.477	1.45	Control	0.6515000000000001	n/a	No	2.771	n/a	5.0	NoResponse	0	0.032	619.509	8	65	Feedback	Neutral	False
621.932	2.771	Control	0.6515000000000001	n/a	No	2.771	n/a	n/a	NoResponse	0	0.0	n/a	8	65	ISIslide	Neutral	False
624.723	0.25	Win2	0.6567000000000001	0.0	Yes	2.777	0.023	n/a	GoodResponse	1	n/a	n/a	9	66	Cue	Win	True
624.974	3.9	Win2	0.6567000000000001	0.0	Yes	2.777	0.001	n/a	GoodResponse	1	n/a	n/a	9	66	Fixation	Win	True
628.869	0.19	Win2	0.6567000000000001	0.004	Yes	2.777	-0.004	2.0	GoodResponse	1	0.186	628.055	9	66	Target	Win	True
629.055	0.3	Win2	0.6567000000000001	0.004	Yes	2.777	-0.004	2.0	GoodResponse	1	0.186	n/a	9	66	ButtonPress	Win	True
629.07	0.51	Win2	0.6567000000000001	n/a	Yes	2.777	n/a	n/a	GoodResponse	1	n/a	n/a	9	66	Blank	Win	True
629.571	1.45	Win2	0.6567000000000001	n/a	Yes	2.777	n/a	5.0	GoodResponse	1	0.011	628.582	9	66	Feedback	Win	True
631.026	2.777	Win2	0.6567000000000001	n/a	Yes	2.777	n/a	n/a	GoodResponse	1	0.0	n/a	9	66	ISIslide	Win	True
633.817	0.25	Control	0.6470999999999999	0.0	No	2.733	0.017	n/a	NoResponse	0	n/a	n/a	9	67	Cue	Neutral	False
634.068	3.95	Control	0.6470999999999999	0.0	No	2.733	0.001	n/a	NoResponse	0	n/a	n/a	9	67	Fixation	Neutral	False
638.013	0.19	Control	0.6470999999999999	0.004	No	2.733	-0.004	n/a	NoResponse	0	n/a	n/a	9	67	Target	Neutral	False
638.214	0.51	Control	0.6470999999999999	n/a	No	2.733	n/a	n/a	NoResponse	0	n/a	n/a	9	67	Blank	Neutral	False
638.715	1.45	Control	0.6470999999999999	n/a	No	2.733	n/a	5.0	NoResponse	0	0.038	637.753	9	67	Feedback	Neutral	False
640.17	2.733	Control	0.6470999999999999	n/a	No	2.733	n/a	n/a	NoResponse	0	0.0	n/a	9	67	ISIslide	Neutral	False
642.928	0.25	Win2	0.6377	0.0	No	3.072	0.028	n/a	NoResponse	0	n/a	n/a	9	68	Cue	MissedWin	True
643.179	4.0	Win2	0.6377	0.0	No	3.072	0.001	n/a	NoResponse	0	n/a	n/a	9	68	Fixation	MissedWin	True
647.174	0.2	Win2	0.6377	0.004	No	3.072	-0.004	2.0	NoResponse	0	0.216	646.39	9	68	Target	MissedWin	True
647.375	0.5	Win2	0.6377	n/a	No	3.072	n/a	n/a	NoResponse	0	n/a	n/a	9	68	Blank	MissedWin	True
647.39	0.3	Win2	0.6377	0.004	No	3.072	-0.004	2.0	NoResponse	0	0.216	n/a	9	68	ButtonPress	MissedWin	True
647.876	1.45	Win2	0.6377	n/a	No	3.072	n/a	5.0	NoResponse	0	0.047	646.923	9	68	Feedback	MissedWin	True
649.33	3.072	Win2	0.6377	n/a	No	3.072	n/a	n/a	NoResponse	0	0.0	n/a	9	68	ISIslide	MissedWin	True
652.423	0.25	Win2	0.6286	0.0	No	3.227	0.023	n/a	NoResponse	0	n/a	n/a	9	69	Cue	MissedWin	True
652.674	3.95	Win2	0.6286	0.0	No	3.227	0.001	n/a	NoResponse	0	n/a	n/a	9	69	Fixation	MissedWin	True
656.619	0.21	Win2	0.6286	0.004	No	3.227	-0.004	2.0	NoResponse	0	0.228	655.847	9	69	Target	MissedWin	True
656.836	0.49	Win2	0.6286	n/a	No	3.227	n/a	n/a	NoResponse	0	n/a	n/a	9	69	Blank	MissedWin	True
656.847	0.3	Win2	0.6286	0.004	No	3.227	-0.004	2.0	NoResponse	0	0.228	n/a	9	69	ButtonPress	MissedWin	True
657.321	1.45	Win2	0.6286	n/a	No	3.227	n/a	5.0	NoResponse	0	0.016	656.337	9	69	Feedback	MissedWin	True
658.775	3.227	Win2	0.6286	n/a	No	3.227	n/a	n/a	NoResponse	0	0.0	n/a	9	69	ISIslide	MissedWin	True
662.018	0.25	Lose2	0.6338	0.0	Yes	3.032	0.018	n/a	GoodResponse	0	n/a	n/a	9	70	Cue	AvoidedLoss	True
662.269	4.05	Lose2	0.6338	0.0	Yes	3.032	0.001	n/a	GoodResponse	0	n/a	n/a	9	70	Fixation	AvoidedLoss	True
666.315	0.22	Lose2	0.6338	0.003	Yes	3.032	-0.003	2.0	GoodResponse	0	0.183	665.498	9	70	Target	AvoidedLoss	True
666.498	0.3	Lose2	0.6338	0.003	Yes	3.032	-0.003	2.0	GoodResponse	0	0.183	n/a	9	70	ButtonPress	AvoidedLoss	True
666.549	0.48	Lose2	0.6338	n/a	Yes	3.032	n/a	n/a	GoodResponse	0	n/a	n/a	9	70	Blank	AvoidedLoss	True
667.017	1.45	Lose2	0.6338	n/a	Yes	3.032	n/a	5.0	GoodResponse	0	0.028	666.045	9	70	Feedback	AvoidedLoss	True
668.471	3.032	Lose2	0.6338	n/a	Yes	3.032	n/a	n/a	GoodResponse	0	0.0	n/a	9	70	ISIslide	AvoidedLoss	True
671.53	0.25	Win2	0.625	0.0	No	2.72	0.03	n/a	NoResponse	0	n/a	n/a	9	71	Cue	MissedWin	True
671.781	4.05	Win2	0.625	0.0	No	2.72	0.001	n/a	NoResponse	0	n/a	n/a	9	71	Fixation	MissedWin	True
675.826	0.23	Win2	0.625	0.004	No	2.72	-0.004	2.0	NoResponse	0	0.283	675.109	9	71	Target	MissedWin	True
676.06	0.47	Win2	0.625	n/a	No	2.72	n/a	n/a	NoResponse	0	n/a	n/a	9	71	Blank	MissedWin	True
676.109	0.3	Win2	0.625	0.004	No	2.72	-0.004	2.0	NoResponse	0	0.283	n/a	9	71	ButtonPress	MissedWin	True
676.529	1.45	Win2	0.625	n/a	No	2.72	n/a	5.0	NoResponse	0	0.028	675.557	9	71	Feedback	MissedWin	True
677.983	2.72	Win2	0.625	n/a	No	2.72	n/a	n/a	NoResponse	0	0.0	n/a	9	71	ISIslide	MissedWin	True
680.724	0.25	Win2	0.6164000000000001	0.001	No	2.776	0.024	n/a	LatePress	0	n/a	n/a	9	72	Cue	MissedWin	False
680.975	4.1	Win2	0.6164000000000001	0.0	No	2.776	0.001	2.0	LatePress	0	3.881	683.856	9	72	Fixation	MissedWin	False
684.856	0.3	Win2	0.6164000000000001	0.0	No	2.776	0.001	2.0	LatePress	0	3.881	n/a	9	72	ButtonPress	MissedWin	False
685.071	0.24	Win2	0.6164000000000001	0.003	No	2.776	-0.003	2.0	LatePress	0	0.243	684.314	9	72	Target	MissedWin	False
685.314	0.3	Win2	0.6164000000000001	0.003	No	2.776	-0.003	2.0	LatePress	0	0.243	n/a	9	72	ButtonPress	MissedWin	False
685.322	0.46	Win2	0.6164000000000001	n/a	No	2.776	n/a	n/a	LatePress	0	n/a	n/a	9	72	Blank	MissedWin	False
685.773	1.45	Win2	0.6164000000000001	n/a	No	2.776	n/a	5.0	LatePress	0	0.006	684.779	9	72	Feedback	MissedWin	False
687.227	2.776	Win2	0.6164000000000001	n/a	No	2.776	n/a	n/a	LatePress	0	0.0	n/a	9	72	ISIslide	MissedWin	False
690.019	0.25	Win2	0.6215999999999999	0.0	Yes	2.681	0.019	n/a	GoodResponse	1	n/a	n/a	10	73	Cue	Win	True
690.27	4.0	Win2	0.6215999999999999	0.0	Yes	2.681	0.001	n/a	GoodResponse	1	n/a	n/a	10	73	Fixation	Win	True
694.265	0.25	Win2	0.6215999999999999	0.004	Yes	2.681	-0.004	2.0	GoodResponse	1	0.185	693.45	10	73	Target	Win	True
694.45	0.3	Win2	0.6215999999999999	0.004	Yes	2.681	-0.004	2.0	GoodResponse	1	0.185	n/a	10	73	ButtonPress	Win	True
694.516	0.45	Win2	0.6215999999999999	n/a	Yes	2.681	n/a	n/a	GoodResponse	1	n/a	n/a	10	73	Blank	Win	True
694.967	1.45	Win2	0.6215999999999999	n/a	Yes	2.681	n/a	5.0	GoodResponse	1	0.029	693.996	10	73	Feedback	Win	True
696.421	2.681	Win2	0.6215999999999999	n/a	Yes	2.681	n/a	n/a	GoodResponse	1	0.0	n/a	10	73	ISIslide	Win	True
699.13	0.25	Lose2	0.6267	0.0	Yes	2.62	0.03	n/a	GoodResponse	0	n/a	n/a	10	74	Cue	AvoidedLoss	True
699.38	4.05	Lose2	0.6267	0.0	Yes	2.62	0.0	n/a	GoodResponse	0	n/a	n/a	10	74	Fixation	AvoidedLoss	True
703.426	0.26	Lose2	0.6267	0.004	Yes	2.62	-0.004	2.0	GoodResponse	0	0.218	702.644	10	74	Target	AvoidedLoss	True
703.644	0.3	Lose2	0.6267	0.004	Yes	2.62	-0.004	2.0	GoodResponse	0	0.218	n/a	10	74	ButtonPress	AvoidedLoss	True
703.693	0.44	Lose2	0.6267	n/a	Yes	2.62	n/a	n/a	GoodResponse	0	n/a	n/a	10	74	Blank	AvoidedLoss	True
704.128	1.45	Lose2	0.6267	n/a	Yes	2.62	n/a	5.0	GoodResponse	0	0.038	703.166	10	74	Feedback	AvoidedLoss	True
705.582	2.62	Lose2	0.6267	n/a	Yes	2.62	n/a	n/a	GoodResponse	0	0.0	n/a	10	74	ISIslide	AvoidedLoss	True
708.224	0.25	Lose2	0.6315999999999999	0.0	Yes	2.926	0.024	n/a	GoodResponse	0	n/a	n/a	10	75	Cue	AvoidedLoss	True
708.474	3.95	Lose2	0.6315999999999999	0.0	Yes	2.926	0.0	n/a	GoodResponse	0	n/a	n/a	10	75	Fixation	AvoidedLoss	True
712.436	0.27	Lose2	0.6315999999999999	0.0	Yes	2.926	0.012	2.0	GoodResponse	0	0.211	711.647	10	75	Target	AvoidedLoss	True
712.647	0.3	Lose2	0.6315999999999999	0.0	Yes	2.926	0.012	2.0	GoodResponse	0	0.211	n/a	10	75	ButtonPress	AvoidedLoss	True
712.704	0.43	Lose2	0.6315999999999999	n/a	Yes	2.926	n/a	n/a	GoodResponse	0	n/a	n/a	10	75	Blank	AvoidedLoss	True
713.122	1.45	Lose2	0.6315999999999999	n/a	Yes	2.926	n/a	5.0	GoodResponse	0	0.02	712.142	10	75	Feedback	AvoidedLoss	True
714.576	2.926	Lose2	0.6315999999999999	n/a	Yes	2.926	n/a	n/a	GoodResponse	0	0.0	n/a	10	75	ISIslide	AvoidedLoss	True
717.518	0.25	Control	0.6234000000000001	0.0	No	3.232	0.018	n/a	PrematurePress	0	n/a	n/a	10	76	Cue	Neutral	True
717.769	4.05	Control	0.6234000000000001	0.0	No	3.232	0.001	n/a	PrematurePress	0	n/a	n/a	10	76	Fixation	Neutral	True
721.814	0.28	Control	0.6234000000000001	0.004	No	3.232	-0.004	2.0	PrematurePress	0	0.012	720.826	10	76	Target	Neutral	True
721.826	0.3	Control	0.6234000000000001	0.004	No	3.232	-0.004	2.0	PrematurePress	0	0.012	n/a	10	76	ButtonPress	Neutral	True
722.098	0.42	Control	0.6234000000000001	n/a	No	3.232	n/a	n/a	PrematurePress	0	n/a	n/a	10	76	Blank	Neutral	True
722.516	1.45	Control	0.6234000000000001	n/a	No	3.232	n/a	5.0	PrematurePress	0	0.041	721.557	10	76	Feedback	Neutral	True
723.971	3.232	Control	0.6234000000000001	n/a	No	3.232	n/a	n/a	PrematurePress	0	0.0	n/a	10	76	ISIslide	Neutral	True
727.23	0.25	Lose2	0.6282	0.001	Yes	2.57	0.03	n/a	GoodResponse	0	n/a	n/a	10	77	Cue	AvoidedLoss	True
727.481	3.95	Lose2	0.6282	0.0	Yes	2.57	0.001	n/a	GoodResponse	0	n/a	n/a	10	77	Fixation	AvoidedLoss	True
731.426	0.29	Lose2	0.6282	0.004	Yes	2.57	-0.004	2.0	GoodResponse	0	0.193	730.619	10	77	Target	AvoidedLoss	True
731.619	0.3	Lose2	0.6282	0.004	Yes	2.57	-0.004	2.0	GoodResponse	0	0.193	n/a	10	77	ButtonPress	AvoidedLoss	True
731.727	0.41	Lose2	0.6282	n/a	Yes	2.57	n/a	n/a	GoodResponse	0	n/a	n/a	10	77	Blank	AvoidedLoss	True
732.128	1.45	Lose2	0.6282	n/a	Yes	2.57	n/a	5.0	GoodResponse	0	0.038	731.166	10	77	Feedback	AvoidedLoss	True
733.583	2.57	Lose2	0.6282	n/a	Yes	2.57	n/a	n/a	GoodResponse	0	0.0	n/a	10	77	ISIslide	AvoidedLoss	True
