onset	duration	cue_type	current_mean_accuracy	duration_error	is_hit	isi_adjusted	onset_delay	response	response_type	reward	rt	rt_time	total_reward	trial_number	trial_phase	trial_type	one_press
11.104	0.25	Control	1.0	0.0	Yes	2.946	0.004	n/a	GoodResponse	0	n/a	n/a	0	0	Cue	Neutral	True
11.354	3.85	Control	1.0	0.0	Yes	2.946	0.0	n/a	GoodResponse	0	n/a	n/a	0	0	Fixation	Neutral	True
15.203	0.4	Control	1.0	0.001	Yes	2.946	-0.001	1.0	GoodResponse	0	0.238	14.441	0	0	Target	Neutral	True
15.441	0.3	Control	1.0	0.001	Yes	2.946	-0.001	1.0	GoodResponse	0	0.238	n/a	0	0	ButtonPress	Neutral	True
15.603	0.3	Control	1.0	n/a	Yes	2.946	n/a	n/a	GoodResponse	0	n/a	n/a	0	0	Blank	Neutral	True
15.902	1.45	Control	1.0	n/a	Yes	2.946	n/a	5.0	GoodResponse	0	0.027	14.929	0	0	Feedback	Neutral	True
17.352	2.946	Control	1.0	n/a	Yes	2.946	n/a	n/a	GoodResponse	0	0.0	n/a	0	0	ISIslide	Neutral	True
20.318	0.25	Lose2	1.0	0.0	Yes	2.782	0.018	n/a	GoodResponse	0	n/a	n/a	0	1	Cue	AvoidedLoss	True
20.567	4.0	Lose2	1.0	0.001	Yes	2.782	-0.001	n/a	GoodResponse	0	n/a	n/a	0	1	Fixation	AvoidedLoss	True
24.566	0.39	Lose2	1.0	0.002	Yes	2.782	-0.002	1.0	GoodResponse	0	0.195	23.761	0	1	Target	AvoidedLoss	True
24.761	0.3	Lose2	1.0	0.002	Yes	2.782	-0.002	1.0	GoodResponse	0	0.195	n/a	0	1	ButtonPress	AvoidedLoss	True
24.966	0.31	Lose2	1.0	n/a	Yes	2.782	n/a	n/a	GoodResponse	0	n/a	n/a	0	1	Blank	AvoidedLoss	True
25.266	1.45	Lose2	1.0	n/a	Yes	2.782	n/a	5.0	GoodResponse	0	0.029	24.295	0	1	Feedback	AvoidedLoss	True
26.715	2.782	Lose2	1.0	n/a	Yes	2.782	n/a	n/a	GoodResponse	0	0.0	n/a	0	1	ISIslide	AvoidedLoss	True
29.514	0.25	Control	1.0	0.0	Yes	2.586	0.014	n/a	GoodResponse	0	n/a	n/a	0	2	Cue	Neutral	True
29.764	4.1	Control	1.0	0.0	Yes	2.586	0.0	n/a	GoodResponse	0	n/a	n/a	0	2	Fixation	Neutral	True
33.863	0.38	Control	1.0	0.001	Yes	2.586	-0.001	1.0	GoodResponse	0	0.169	33.032	0	2	Target	Neutral	True
34.032	0.3	Control	1.0	0.001	Yes	2.586	-0.001	1.0	GoodResponse	0	0.169	n/a	0	2	ButtonPress	Neutral	True
34.246	0.32	Control	1.0	n/a	Yes	2.586	n/a	n/a	GoodResponse	0	n/a	n/a	0	2	Blank	Neutral	True
34.563	1.45	Control	1.0	n/a	Yes	2.586	n/a	5.0	GoodResponse	0	0.0	33.563	0	2	Feedback	Neutral	True
36.012	2.586	Control	1.0	n/a	Yes	2.586	n/a	n/a	GoodResponse	0	0.0	n/a	0	2	ISIslide	Neutral	True
38.628	0.25	Win2	1.0	0.0	Yes	2.822	0.028	n/a	GoodResponse	1	n/a	n/a	1	3	Cue	Win	True
38.878	3.95	Win2	1.0	0.0	Yes	2.822	0.0	n/a	GoodResponse	1	n/a	n/a	1	3	Fixation	Win	True
42.826	0.37	Win2	1.0	0.002	Yes	2.822	-0.002	1.0	GoodResponse	1	0.231	42.057	1	3	Target	Win	True
43.057	0.3	Win2	1.0	0.002	Yes	2.822	-0.002	1.0	GoodResponse	1	0.231	n/a	1	3	ButtonPress	Win	True
43.209	0.33	Win2	1.0	n/a	Yes	2.822	n/a	n/a	GoodResponse	1	n/a	n/a	1	3	Blank	Win	True
43.526	1.45	Win2	1.0	n/a	Yes	2.822	n/a	5.0	GoodResponse	1	0.012	42.538	1	3	Feedback	Win	True
44.975	2.822	Win2	1.0	n/a	Yes	2.822	n/a	n/a	GoodResponse	1	0.0	n/a	1	3	ISIslide	Win	True
47.824	0.25	Win2	1.0	0.001	Yes	3.276	0.024	n/a	GoodResponse	1	n/a	n/a	2	4	Cue	Win	True
48.074	4.0	Win2	1.0	0.0	Yes	3.276	0.0	n/a	GoodResponse	1	n/a	n/a	2	4	Fixation	Win	True
52.073	0.36	Win2	1.0	0.001	Yes	3.276	-0.001	1.0	GoodResponse	1	0.201	51.274	2	4	Target	Win	True
52.274	0.3	Win2	1.0	0.001	Yes	3.276	-0.001	1.0	GoodResponse	1	0.201	n/a	2	4	ButtonPress	Win	True
52.439	0.34	Win2	1.0	n/a	Yes	3.276	n/a	n/a	GoodResponse	1	n/a	n/a	2	4	Blank	Win	True
52.773	1.45	Win2	1.0	n/a	Yes	3.276	n/a	5.0	GoodResponse	1	0.034	51.807	2	4	Feedback	Win	True
54.222	3.276	Win2	1.0	n/a	Yes	3.276	n/a	n/a	GoodResponse	1	0.0	n/a	2	4	ISIslide	Win	True
57.521	0.25	Win2	1.0	0.0	Yes	2.779	0.021	n/a	GoodResponse	1	n/a	n/a	3	5	Cue	Win	True
57.771	4.0	Win2	1.0	0.0	Yes	2.779	0.0	n/a	GoodResponse	1	n/a	n/a	3	5	Fixation	Win	True
61.769	0.35	Win2	1.0	0.002	Yes	2.779	-0.002	1.0	GoodResponse	1	0.224	60.993	3	5	Target	Win	True
61.993	0.3	Win2	1.0	0.002	Yes	2.779	-0.002	1.0	GoodResponse	1	0.224	n/a	3	5	ButtonPress	Win	True
62.119	0.35	Win2	1.0	n/a	Yes	2.779	n/a	n/a	GoodResponse	1	n/a	n/a	3	5	Blank	Win	True
62.469	1.45	Win2	1.0	n/a	Yes	2.779	n/a	5.0	GoodResponse	1	0.045	61.514	3	5	Feedback	Win	True
63.919	2.779	Win2	1.0	n/a	Yes	2.779	n/a	n/a	GoodResponse	1	0.0	n/a	3	5	ISIslide	Win	True
66.718	0.25	Lose2	1.0	0.0	Yes	2.732	0.018	n/a	GoodResponse	0	n/a	n/a	3	6	Cue	AvoidedLoss	True
66.968	3.95	Lose2	1.0	0.0	Yes	2.732	0.0	n/a	GoodResponse	0	n/a	n/a	3	6	Fixation	AvoidedLoss	True
70.916	0.34	Lose2	1.0	0.002	Yes	2.732	-0.002	1.0	GoodResponse	0	0.227	70.143	3	6	Target	AvoidedLoss	True
71.143	0.3	Lose2	1.0	0.002	Yes	2.732	-0.002	1.0	GoodResponse	0	0.227	n/a	3	6	ButtonPress	AvoidedLoss	True
71.266	0.36	Lose2	1.0	n/a	Yes	2.732	n/a	n/a	GoodResponse	0	n/a	n/a	3	6	Blank	AvoidedLoss	True
71.616	1.45	Lose2	1.0	n/a	Yes	2.732	n/a	5.0	GoodResponse	0	0.019	70.635	3	6	Feedback	AvoidedLoss	True
73.065	2.732	Lose2	1.0	n/a	Yes	2.732	n/a	n/a	GoodResponse	0	0.0	n/a	3	6	ISIslide	AvoidedLoss	True
75.815	0.25	Lose2	1.0	0.0	Yes	4.035	0.015	n/a	GoodResponse	0	n/a	n/a	3	7	Cue	AvoidedLoss	True
76.064	4.05	Lose2	1.0	0.001	Yes	4.035	-0.001	n/a	GoodResponse	0	n/a	n/a	3	7	Fixation	AvoidedLoss	True
80.113	0.33	Lose2	1.0	0.002	Yes	4.035	-0.002	1.0	GoodResponse	0	0.187	79.3	3	7	Target	AvoidedLoss	True
80.3	0.3	Lose2	1.0	0.002	Yes	4.035	-0.002	1.0	GoodResponse	0	0.187	n/a	3	7	ButtonPress	AvoidedLoss	True
80.446	0.37	Lose2	1.0	n/a	Yes	4.035	n/a	n/a	GoodResponse	0	n/a	n/a	3	7	Blank	AvoidedLoss	True
80.813	1.45	Lose2	1.0	n/a	Yes	4.035	n/a	5.0	GoodResponse	0	0.042	79.855	3	7	Feedback	AvoidedLoss	True
82.262	4.035	Lose2	1.0	n/a	Yes	4.035	n/a	n/a	GoodResponse	0	0.0	n/a	3	7	ISIslide	AvoidedLoss	True
86.327	0.25	Lose2	1.0	0.001	Yes	3.023	0.027	n/a	GoodResponse	0	n/a	n/a	3	8	Cue	AvoidedLoss	True
86.577	3.95	Lose2	1.0	0.0	Yes	3.023	0.0	n/a	GoodResponse	0	n/a	n/a	3	8	Fixation	AvoidedLoss	True
90.526	0.32	Lose2	1.0	0.001	Yes	3.023	-0.001	1.0	GoodResponse	0	0.214	89.74	3	8	Target	AvoidedLoss	True
90.74	0.3	Lose2	1.0	0.001	Yes	3.023	-0.001	1.0	GoodResponse	0	0.214	n/a	3	8	ButtonPress	AvoidedLoss	True
90.842	0.38	Lose2	1.0	n/a	Yes	3.023	n/a	n/a	GoodResponse	0	n/a	n/a	3	8	Blank	AvoidedLoss	True
91.226	1.45	Lose2	1.0	n/a	Yes	3.023	n/a	5.0	GoodResponse	0	0.019	90.245	3	8	Feedback	AvoidedLoss	True
92.675	3.023	Lose2	1.0	n/a	Yes	3.023	n/a	n/a	GoodResponse	0	0.0	n/a	3	8	ISIslide	AvoidedLoss	True
95.724	0.25	Lose2	1.0	0.0	Yes	3.126	0.024	n/a	GoodResponse	0	n/a	n/a	3	9	Cue	AvoidedLoss	True
95.974	3.95	Lose2	1.0	0.0	Yes	3.126	0.0	n/a	GoodResponse	0	n/a	n/a	3	9	Fixation	AvoidedLoss	True
99.923	0.31	Lose2	1.0	0.001	Yes	3.126	-0.001	1.0	GoodResponse	0	0.208	99.131	3	9	Target	AvoidedLoss	True
100.131	0.3	Lose2	1.0	0.001	Yes	3.126	-0.001	1.0	GoodResponse	0	0.208	n/a	3	9	ButtonPress	AvoidedLoss	True
100.239	0.39	Lose2	1.0	n/a	Yes	3.126	n/a	n/a	GoodResponse	0	n/a	n/a	3	9	Blank	AvoidedLoss	True
100.622	1.45	Lose2	1.0	n/a	Yes	3.126	n/a	5.0	GoodResponse	0	0.037	99.659	3	9	Feedback	AvoidedLoss	True
102.072	3.126	Lose2	1.0	n/a	Yes	3.126	n/a	n/a	GoodResponse	0	0.0	n/a	3	9	ISIslide	AvoidedLoss	True
105.221	0.25	Control	1.0	0.0	Yes	3.279	0.021	n/a	GoodResponse	0	n/a	n/a	3	10	Cue	Neutral	True
105.471	4.0	Control	1.0	0.0	Yes	3.279	0.0	n/a	GoodResponse	0	n/a	n/a	3	10	Fixation	Neutral	True
109.469	0.3	Control	1.0	0.002	Yes	3.279	-0.002	1.0	GoodResponse	0	0.205	108.674	3	10	Target	Neutral	True
109.674	0.3	Control	1.0	0.002	Yes	3.279	-0.002	1.0	GoodResponse	0	0.205	n/a	3	10	ButtonPress	Neutral	True
109.769	0.4	Control	1.0	n/a	Yes	3.279	n/a	n/a	GoodResponse	0	n/a	n/a	3	10	Blank	Neutral	True
110.169	1.45	Control	1.0	n/a	Yes	3.279	n/a	5.0	GoodResponse	0	0.007	109.176	3	10	Feedback	Neutral	True
111.618	3.279	Control	1.0	n/a	Yes	3.279	n/a	n/a	GoodResponse	0	0.0	n/a	3	10	ISIslide	Neutral	True
114.917	0.25	Lose2	1.0	0.0	Yes	2.733	0.017	n/a	GoodResponse	0	n/a	n/a	3	11	Cue	AvoidedLoss	True
115.167	4.05	Lose2	1.0	0.0	Yes	2.733	0.0	n/a	GoodResponse	0	n/a	n/a	3	11	Fixation	AvoidedLoss	True
119.216	0.29	Lose2	1.0	0.001	Yes	2.733	-0.001	1.0	GoodResponse	0	0.23	118.446	3	11	Target	AvoidedLoss	True
119.446	0.3	Lose2	1.0	0.001	Yes	2.733	-0.001	1.0	GoodResponse	0	0.23	n/a	3	11	ButtonPress	AvoidedLoss	True
119.516	0.41	Lose2	1.0	n/a	Yes	2.733	n/a	n/a	GoodResponse	0	n/a	n/a	3	11	Blank	AvoidedLoss	True
119.915	1.45	Lose2	1.0	n/a	Yes	2.733	n/a	5.0	GoodResponse	0	0.012	118.927	3	11	Feedback	AvoidedLoss	True
121.365	2.733	Lose2	1.0	n/a	Yes	2.733	n/a	n/a	GoodResponse	0	0.0	n/a	3	11	ISIslide	AvoidedLoss	True
124.114	0.25	Control	0.9231	0.0	No	2.986	0.014	n/a	NoResponse	0	n/a	n/a	3	12	Cue	Neutral	True
124.364	3.9	Control	0.9231	0.0	No	2.986	0.0	n/a	NoResponse	0	n/a	n/a	3	12	Fixation	Neutral	True
128.263	0.28	Control	0.9231	0.001	No	2.986	-0.001	1.0	NoResponse	0	0.509	127.772	3	12	Target	Neutral	True
128.546	0.42	Control	0.9231	n/a	No	2.986	n/a	n/a	NoResponse	0	n/a	n/a	3	12	Blank	Neutral	True
128.772	0.3	Control	0.9231	0.001	No	2.986	-0.001	1.0	NoResponse	0	0.509	n/a	3	12	ButtonPress	Neutral	True
128.962	1.45	Control	0.9231	n/a	No	2.986	n/a	5.0	NoResponse	0	0.039	128.001	3	12	Feedback	Neutral	True
130.412	2.986	Control	0.9231	n/a	No	2.986	n/a	n/a	NoResponse	0	0.0	n/a	3	12	ISIslide	Neutral	True
133.427	0.25	Control	0.9286	0.0	Yes	2.773	0.027	n/a	GoodResponse	0	n/a	n/a	3	13	Cue	Neutral	True
133.677	4.0	Control	0.9286	0.0	Yes	2.773	0.0	n/a	GoodResponse	0	n/a	n/a	3	13	Fixation	Neutral	True
137.676	0.27	Control	0.9286	0.001	Yes	2.773	-0.001	1.0	GoodResponse	0	0.217	136.893	3	13	Target	Neutral	True
137.893	0.3	Control	0.9286	0.001	Yes	2.773	-0.001	1.0	GoodResponse	0	0.217	n/a	3	13	ButtonPress	Neutral	True
137.942	0.43	Control	0.9286	n/a	Yes	2.773	n/a	n/a	GoodResponse	0	n/a	n/a	3	13	Blank	Neutral	True
138.376	1.45	Control	0.9286	n/a	Yes	2.773	n/a	5.0	GoodResponse	0	0.039	137.415	3	13	Feedback	Neutral	True
139.825	2.773	Control	0.9286	n/a	Yes	2.773	n/a	n/a	GoodResponse	0	0.0	n/a	3	13	ISIslide	Neutral	True
142.624	0.25	Win2	0.9333	0.0	Yes	2.676	0.024	n/a	GoodResponse	1	n/a	n/a	4	14	Cue	Win	True
142.874	4.1	Win2	0.9333	0.0	Yes	2.676	0.0	n/a	GoodResponse	1	n/a	n/a	4	14	Fixation	Win	True
146.973	0.26	Win2	0.9333	0.001	Yes	2.676	-0.001	1.0	GoodResponse	1	0.192	146.165	4	14	Target	Win	True
147.165	0.3	Win2	0.9333	0.001	Yes	2.676	-0.001	1.0	GoodResponse	1	0.192	n/a	4	14	ButtonPress	Win	True
147.239	0.44	Win2	0.9333	n/a	Yes	2.676	n/a	n/a	GoodResponse	1	n/a	n/a	4	14	Blank	Win	True
147.672	1.45	Win2	0.9333	n/a	Yes	2.676	n/a	5.0	GoodResponse	1	0.011	146.683	4	14	Feedback	Win	True
149.122	2.676	Win2	0.9333	n/a	Yes	2.676	n/a	n/a	GoodResponse	1	0.0	n/a	4	14	ISIslide	Win	True
151.821	0.25	Control	0.9375	0.0	Yes	2.979	0.021	n/a	GoodResponse	0	n/a	n/a	4	15	Cue	Neutral	True
152.071	4.0	Control	0.9375	0.0	Yes	2.979	0.0	n/a	GoodResponse	0	n/a	n/a	4	15	Fixation	Neutral	True
156.069	0.25	Control	0.9375	0.002	Yes	2.979	-0.002	1.0	GoodResponse	0	0.233	155.302	4	15	Target	Neutral	True
156.302	0.3	Control	0.9375	0.002	Yes	2.979	-0.002	1.0	GoodResponse	0	0.233	n/a	4	15	ButtonPress	Neutral	True
156.319	0.45	Control	0.9375	n/a	Yes	2.979	n/a	n/a	GoodResponse	0	n/a	n/a	4	15	Blank	Neutral	True
156.769	1.45	Control	0.9375	n/a	Yes	2.979	n/a	5.0	GoodResponse	0	0.036	155.805	4	15	Feedback	Neutral	True
158.219	2.979	Control	0.9375	n/a	Yes	2.979	n/a	n/a	GoodResponse	0	0.0	n/a	4	15	ISIslide	Neutral	True
161.217	0.25	Win2	0.9412	0.001	Yes	2.883	0.017	n/a	GoodResponse	1	n/a	n/a	5	16	Cue	Win	False
161.467	4.0	Win2	0.9412	0.0	Yes	2.883	0.0	1.0	GoodResponse	1	0.035	160.502	5	16	Fixation	Win	False
161.502	0.3	Win2	0.9412	0.0	Yes	2.883	0.0	1.0	GoodResponse	1	0.035	n/a	5	16	ButtonPress	Win	False
165.466	0.24	Win2	0.9412	0.001	Yes	2.883	-0.001	1.0	GoodResponse	1	0.216	164.682	5	16	Target	Win	False
165.682	0.3	Win2	0.9412	0.001	Yes	2.883	-0.001	1.0	GoodResponse	1	0.216	n/a	5	16	ButtonPress	Win	False
165.716	0.46	Win2	0.9412	n/a	Yes	2.883	n/a	n/a	GoodResponse	1	n/a	n/a	5	16	Blank	Win	False
166.166	1.45	Win2	0.9412	n/a	Yes	2.883	n/a	5.0	GoodResponse	1	0.007	165.173	5	16	Feedback	Win	False
167.615	2.883	Win2	0.9412	n/a	Yes	2.883	n/a	n/a	GoodResponse	1	0.0	n/a	5	16	ISIslide	Win	False
170.514	0.25	Lose2	0.8889	0.0	No	2.736	0.014	n/a	NoResponse	-1	n/a	n/a	4	17	Cue	Loss	True
170.764	3.95	Lose2	0.8889	0.0	No	2.736	0.0	n/a	NoResponse	-1	n/a	n/a	4	17	Fixation	Loss	True
174.713	0.23	Lose2	0.8889	0.001	No	2.736	-0.001	1.0	NoResponse	-1	0.24	173.953	4	17	Target	Loss	True
174.946	0.47	Lose2	0.8889	n/a	No	2.736	n/a	n/a	NoResponse	-1	n/a	n/a	4	17	Blank	Loss	True
174.953	0.3	Lose2	0.8889	0.001	No	2.736	-0.001	1.0	NoResponse	-1	0.24	n/a	4	17	ButtonPress	Loss	True
175.412	1.45	Lose2	0.8889	n/a	No	2.736	n/a	5.0	NoResponse	-1	0.027	174.439	4	17	Feedback	Loss	True
176.862	2.736	Lose2	0.8889	n/a	No	2.736	n/a	n/a	NoResponse	-1	0.0	n/a	4	17	ISIslide	Loss	True
179.628	0.25	Lose2	0.8946999999999999	0.0	Yes	2.722	0.028	n/a	GoodResponse	0	n/a	n/a	4	18	Cue	AvoidedLoss	True
179.877	4.05	Lose2	0.8946999999999999	0.001	Yes	2.722	-0.001	n/a	GoodResponse	0	n/a	n/a	4	18	Fixation	AvoidedLoss	True
183.926	0.22	Lose2	0.8946999999999999	0.002	Yes	2.722	-0.002	1.0	GoodResponse	0	0.123	183.049	4	18	Target	AvoidedLoss	True
184.049	0.3	Lose2	0.8946999999999999	0.002	Yes	2.722	-0.002	1.0	GoodResponse	0	0.123	n/a	4	18	ButtonPress	AvoidedLoss	True
184.159	0.48	Lose2	0.8946999999999999	n/a	Yes	2.722	n/a	n/a	GoodResponse	0	n/a	n/a	4	18	Blank	AvoidedLoss	True
184.626	1.45	Lose2	0.8946999999999999	n/a	Yes	2.722	n/a	5.0	GoodResponse	0	0.032	183.658	4	18	Feedback	AvoidedLoss	True
186.075	2.722	Lose2	0.8946999999999999	n/a	Yes	2.722	n/a	n/a	GoodResponse	0	0.0	n/a	4	18	ISIslide	AvoidedLoss	True
188.824	0.25	Control	0.85	0.0	No	2.926	0.024	n/a	NoResponse	0	n/a	n/a	4	19	Cue	Neutral	True
189.074	3.95	Control	0.85	0.0	No	2.926	0.0	n/a	NoResponse	0	n/a	n/a	4	19	Fixation	Neutral	True
193.023	0.21	Control	0.85	0.001	No	2.926	-0.001	1.0	NoResponse	0	0.224	192.247	4	19	Target	Neutral	True
193.239	0.49	Control	0.85	n/a	No	2.926	n/a	n/a	NoResponse	0	n/a	n/a	4	19	Blank	Neutral	True
193.247	0.3	Control	0.85	0.001	No	2.926	-0.001	1.0	NoResponse	0	0.224	n/a	4	19	ButtonPress	Neutral	True
193.723	1.45	Control	0.85	n/a	No	2.926	n/a	5.0	NoResponse	0	0.008	192.731	4	19	Feedback	Neutral	True
195.172	2.926	Control	0.85	n/a	No	2.926	n/a	n/a	NoResponse	0	0.0	n/a	4	19	ISIslide	Neutral	True
198.121	0.25	Control	0.8095	0.0	No	2.629	0.021	n/a	NoResponse	0	n/a	n/a	4	20	Cue	Neutral	True
198.371	4.05	Control	0.8095	0.0	No	2.629	0.0	n/a	NoResponse	0	n/a	n/a	4	20	Fixation	Neutral	True
202.419	0.2	Control	0.8095	0.002	No	2.629	-0.002	1.0	NoResponse	0	0.21	201.629	4	20	Target	Neutral	True
202.619	0.5	Control	0.8095	n/a	No	2.629	n/a	n/a	NoResponse	0	n/a	n/a	4	20	Blank	Neutral	True
202.629	0.3	Control	0.8095	0.002	No	2.629	-0.002	1.0	NoResponse	0	0.21	n/a	4	20	ButtonPress	Neutral	True
203.119	1.45	Control	0.8095	n/a	No	2.629	n/a	5.0	NoResponse	0	0.027	202.146	4	20	Feedback	Neutral	True
204.569	2.629	Control	0.8095	n/a	No	2.629	n/a	n/a	NoResponse	0	0.0	n/a	4	20	ISIslide	Neutral	True
207.218	0.25	Control	0.7726999999999999	0.0	No	2.782	0.018	n/a	LatePress	0	n/a	n/a	4	21	Cue	Neutral	True
207.468	4.1	Control	0.7726999999999999	0.0	No	2.782	0.0	n/a	LatePress	0	n/a	n/a	4	21	Fixation	Neutral	True
211.566	0.19	Control	0.7726999999999999	0.002	No	2.782	-0.002	1.0	LatePress	0	0.193	210.759	4	21	Target	Neutral	True
211.759	0.3	Control	0.7726999999999999	0.002	No	2.782	-0.002	1.0	LatePress	0	0.193	n/a	4	21	ButtonPress	Neutral	True
211.766	0.51	Control	0.7726999999999999	n/a	No	2.782	n/a	n/a	LatePress	0	n/a	n/a	4	21	Blank	Neutral	True
212.266	1.45	Control	0.7726999999999999	n/a	No	2.782	n/a	5.0	LatePress	0	0.002	211.268	4	21	Feedback	Neutral	True
213.715	2.782	Control	0.7726999999999999	n/a	No	2.782	n/a	n/a	LatePress	0	0.0	n/a	4	21	ISIslide	Neutral	True
216.514	0.25	Control	0.7391	0.001	No	2.786	0.014	n/a	NoResponse	0	n/a	n/a	4	22	Cue	Neutral	True
216.764	4.0	Control	0.7391	0.0	No	2.786	0.0	n/a	NoResponse	0	n/a	n/a	4	22	Fixation	Neutral	True
220.763	0.18	Control	0.7391	0.001	No	2.786	-0.001	1.0	NoResponse	0	0.209	219.972	4	22	Target	Neutral	True
220.946	0.52	Control	0.7391	n/a	No	2.786	n/a	n/a	NoResponse	0	n/a	n/a	4	22	Blank	Neutral	True
220.972	0.3	Control	0.7391	0.001	No	2.786	-0.001	1.0	NoResponse	0	0.209	n/a	4	22	ButtonPress	Neutral	True
221.463	1.45	Control	0.7391	n/a	No	2.786	n/a	5.0	NoResponse	0	0.024	220.487	4	22	Feedback	Neutral	True
222.912	2.786	Control	0.7391	n/a	No	2.786	n/a	n/a	NoResponse	0	0.0	n/a	4	22	ISIslide	Neutral	True
225.728	0.25	Control	0.7082999999999999	0.0	No	2.772	0.028	n/a	NoResponse	0	n/a	n/a	4	23	Cue	Neutral	True
225.978	3.9	Control	0.7082999999999999	0.0	No	2.772	0.0	n/a	NoResponse	0	n/a	n/a	4	23	Fixation	Neutral	True
229.876	0.17	Control	0.7082999999999999	0.002	No	2.772	-0.002	1.0	NoResponse	0	0.253	229.129	4	23	Target	Neutral	True
230.06	0.53	Control	0.7082999999999999	n/a	No	2.772	n/a	n/a	NoResponse	0	n/a	n/a	4	23	Blank	Neutral	True
230.129	0.3	Control	0.7082999999999999	0.002	No	2.772	-0.002	1.0	NoResponse	0	0.253	n/a	4	23	ButtonPress	Neutral	True
230.576	1.45	Control	0.7082999999999999	n/a	No	2.772	n/a	5.0	NoResponse	0	0.033	229.609	4	23	Feedback	Neutral	True
232.026	2.772	Control	0.7082999999999999	n/a	No	2.772	n/a	n/a	NoResponse	0	0.0	n/a	4	23	ISIslide	Neutral	True
234.825	0.25	Win2	0.72	0.0	Yes	3.125	0.025	n/a	GoodResponse	1	n/a	n/a	5	24	Cue	Win	True
235.075	3.95	Win2	0.72	0.0	Yes	3.125	0.0	n/a	GoodResponse	1	n/a	n/a	5	24	Fixation	Win	True
239.023	0.16	Win2	0.72	0.002	Yes	3.125	-0.002	1.0	GoodResponse	1	0.159	238.182	5	24	Target	Win	True
239.182	0.3	Win2	0.72	0.002	Yes	3.125	-0.002	1.0	GoodResponse	1	0.159	n/a	5	24	ButtonPress	Win	True
239.19	0.54	Win2	0.72	n/a	Yes	3.125	n/a	n/a	GoodResponse	1	n/a	n/a	5	24	Blank	Win	True
239.723	1.45	Win2	0.72	n/a	Yes	3.125	n/a	5.0	GoodResponse	1	0.008	238.731	5	24	Feedback	Win	True
241.172	3.125	Win2	0.72	n/a	Yes	3.125	n/a	n/a	GoodResponse	1	0.0	n/a	5	24	ISIslide	Win	True
244.321	0.25	Win2	0.6923	0.0	No	3.079	0.021	n/a	NoResponse	0	n/a	n/a	5	25	Cue	MissedWin	True
244.571	4.0	Win2	0.6923	0.0	No	3.079	0.0	n/a	NoResponse	0	n/a	n/a	5	25	Fixation	MissedWin	True
248.57	0.15	Win2	0.6923	0.001	No	3.079	-0.001	1.0	NoResponse	0	0.197	247.767	5	25	Target	MissedWin	True
248.72	0.55	Win2	0.6923	n/a	No	3.079	n/a	n/a	NoResponse	0	n/a	n/a	5	25	Blank	MissedWin	True
248.767	0.3	Win2	0.6923	0.001	No	3.079	-0.001	1.0	NoResponse	0	0.197	n/a	5	25	ButtonPress	MissedWin	True
249.269	1.45	Win2	0.6923	n/a	No	3.079	n/a	5.0	NoResponse	0	0.023	248.292	5	25	Feedback	MissedWin	True
250.719	3.079	Win2	0.6923	n/a	No	3.079	n/a	n/a	NoResponse	0	0.0	n/a	5	25	ISIslide	MissedWin	True
253.818	0.25	Win2	0.6667000000000001	0.0	No	2.932	0.018	n/a	NoResponse	0	n/a	n/a	5	26	Cue	MissedWin	True
254.068	3.95	Win2	0.6667000000000001	0.0	No	2.932	0.0	n/a	NoResponse	0	n/a	n/a	5	26	Fixation	MissedWin	True
258.016	0.15	Win2	0.6667000000000001	0.002	No	2.932	-0.002	1.0	NoResponse	0	0.161	257.177	5	26	Target	MissedWin	True
258.166	0.55	Win2	0.6667000000000001	n/a	No	2.932	n/a	n/a	NoResponse	0	n/a	n/a	5	26	Blank	MissedWin	True
258.177	0.3	Win2	0.6667000000000001	0.002	No	2.932	-0.002	1.0	NoResponse	0	0.161	n/a	5	26	ButtonPress	MissedWin	True
258.716	1.45	Win2	0.6667000000000001	n/a	No	2.932	n/a	5.0	NoResponse	0	0.039	257.755	5	26	Feedback	MissedWin	True
260.166	2.932	Win2	0.6667000000000001	n/a	No	2.932	n/a	n/a	NoResponse	0	0.0	n/a	5	26	ISIslide	MissedWin	True
263.115	0.25	Lose2	0.6429	0.0	No	2.835	0.015	n/a	NoResponse	-1	n/a	n/a	4	27	Cue	Loss	True
263.364	4.05	Lose2	0.6429	0.001	No	2.835	-0.001	n/a	NoResponse	-1	n/a	n/a	4	27	Fixation	Loss	True
267.413	0.15	Lose2	0.6429	0.002	No	2.835	-0.002	1.0	NoResponse	-1	0.179	266.592	4	27	Target	Loss	True
267.563	0.55	Lose2	0.6429	n/a	No	2.835	n/a	n/a	NoResponse	-1	n/a	n/a	4	27	Blank	Loss	True
267.592	0.3	Lose2	0.6429	0.002	No	2.835	-0.002	1.0	NoResponse	-1	0.179	n/a	4	27	ButtonPress	Loss	True
268.113	1.45	Lose2	0.6429	n/a	No	2.835	n/a	5.0	NoResponse	-1	0.008	267.121	4	27	Feedback	Loss	True
269.562	2.835	Lose2	0.6429	n/a	No	2.835	n/a	n/a	NoResponse	-1	0.0	n/a	4	27	ISIslide	Loss	True
272.411	0.25	Control	0.6207	0.0	No	2.839	0.011	n/a	NoResponse	0	n/a	n/a	4	28	Cue	Neutral	True
272.661	4.05	Control	0.6207	0.0	No	2.839	0.0	n/a	NoResponse	0	n/a	n/a	4	28	Fixation	Neutral	True
276.71	0.16	Control	0.6207	0.001	No	2.839	-0.001	1.0	NoResponse	0	0.195	275.905	4	28	Target	Neutral	True
276.876	0.54	Control	0.6207	n/a	No	2.839	n/a	n/a	NoResponse	0	n/a	n/a	4	28	Blank	Neutral	True
276.905	0.3	Control	0.6207	0.001	No	2.839	-0.001	1.0	NoResponse	0	0.195	n/a	4	28	ButtonPress	Neutral	True
277.409	1.45	Control	0.6207	n/a	No	2.839	n/a	5.0	NoResponse	0	0.029	276.438	4	28	Feedback	Neutral	True
278.859	2.839	Control	0.6207	n/a	No	2.839	n/a	n/a	NoResponse	0	0.0	n/a	4	28	ISIslide	Neutral	True
281.725	0.25	Lose2	0.6333	0.0	Yes	2.825	0.025	n/a	GoodResponse	0	n/a	n/a	4	29	Cue	AvoidedLoss	True
281.975	3.95	Lose2	0.6333	0.0	Yes	2.825	0.0	n/a	GoodResponse	0	n/a	n/a	4	29	Fixation	AvoidedLoss	True
285.923	0.17	Lose2	0.6333	0.002	Yes	2.825	-0.002	1.0	GoodResponse	0	0.139	285.062	4	29	Target	AvoidedLoss	True
286.062	0.3	Lose2	0.6333	0.002	Yes	2.825	-0.002	1.0	GoodResponse	0	0.139	n/a	4	29	ButtonPress	AvoidedLoss	True
286.106	0.53	Lose2	0.6333	n/a	Yes	2.825	n/a	n/a	GoodResponse	0	n/a	n/a	4	29	Blank	AvoidedLoss	True
286.623	1.45	Lose2	0.6333	n/a	Yes	2.825	n/a	5.0	GoodResponse	0	0.034	285.657	4	29	Feedback	AvoidedLoss	True
288.072	2.825	Lose2	0.6333	n/a	Yes	2.825	n/a	n/a	GoodResponse	0	0.0	n/a	4	29	ISIslide	AvoidedLoss	True
290.921	0.25	Win2	0.6129	0.0	No	2.779	0.021	n/a	NoResponse	0	n/a	n/a	4	30	Cue	MissedWin	True
291.171	3.9	Win2	0.6129	0.0	No	2.779	0.0	n/a	NoResponse	0	n/a	n/a	4	30	Fixation	MissedWin	True
295.07	0.18	Win2	0.6129	0.001	No	2.779	-0.001	1.0	NoResponse	0	0.238	294.308	4	30	Target	MissedWin	True
295.253	0.52	Win2	0.6129	n/a	No	2.779	n/a	n/a	NoResponse	0	n/a	n/a	4	30	Blank	MissedWin	True
295.308	0.3	Win2	0.6129	0.001	No	2.779	-0.001	1.0	NoResponse	0	0.238	n/a	4	30	ButtonPress	MissedWin	True
295.77	1.45	Win2	0.6129	n/a	No	2.779	n/a	5.0	NoResponse	0	0.008	294.778	4	30	Feedback	MissedWin	True
297.219	2.779	Win2	0.6129	n/a	No	2.779	n/a	n/a	NoResponse	0	0.0	n/a	4	30	ISIslide	MissedWin	True
300.018	0.25	Lose2	0.625	0.0	Yes	2.832	0.018	n/a	GoodResponse	0	n/a	n/a	4	31	Cue	AvoidedLoss	True
300.268	4.05	Lose2	0.625	0.0	Yes	2.832	0.0	n/a	GoodResponse	0	n/a	n/a	4	31	Fixation	AvoidedLoss	True
304.317	0.19	Lose2	0.625	0.001	Yes	2.832	-0.001	1.0	GoodResponse	0	0.118	303.435	4	31	Target	AvoidedLoss	True
304.435	0.3	Lose2	0.625	0.001	Yes	2.832	-0.001	1.0	GoodResponse	0	0.118	n/a	4	31	ButtonPress	AvoidedLoss	True
304.516	0.51	Lose2	0.625	n/a	Yes	2.832	n/a	n/a	GoodResponse	0	n/a	n/a	4	31	Blank	AvoidedLoss	True
305.016	1.45	Lose2	0.625	n/a	Yes	2.832	n/a	5.0	GoodResponse	0	0.031	304.047	4	31	Feedback	AvoidedLoss	True
306.466	2.832	Lose2	0.625	n/a	Yes	2.832	n/a	n/a	GoodResponse	0	0.0	n/a	4	31	ISIslide	AvoidedLoss	True
309.315	0.25	Lose2	0.6364	0.0	Yes	2.635	0.015	n/a	GoodResponse	0	n/a	n/a	4	32	Cue	AvoidedLoss	True
309.565	4.15	Lose2	0.6364	0.0	Yes	2.635	0.0	n/a	GoodResponse	0	n/a	n/a	4	32	Fixation	AvoidedLoss	True
313.713	0.2	Lose2	0.6364	0.002	Yes	2.635	-0.002	1.0	GoodResponse	0	0.198	312.911	4	32	Target	AvoidedLoss	True
313.911	0.3	Lose2	0.6364	0.002	Yes	2.635	-0.002	1.0	GoodResponse	0	0.198	n/a	4	32	ButtonPress	AvoidedLoss	True
313.913	0.5	Lose2	0.6364	n/a	Yes	2.635	n/a	n/a	GoodResponse	0	n/a	n/a	4	32	Blank	AvoidedLoss	True
314.413	1.45	Lose2	0.6364	n/a	Yes	2.635	n/a	5.0	GoodResponse	0	0.049	313.462	4	32	Feedback	AvoidedLoss	True
315.862	2.635	Lose2	0.6364	n/a	Yes	2.635	n/a	n/a	GoodResponse	0	0.0	n/a	4	32	ISIslide	AvoidedLoss	True
318.528	0.25	Win2	0.6175999999999999	0.0	No	2.672	0.028	n/a	NoResponse	0	n/a	n/a	4	33	Cue	MissedWin	False
318.778	4.0	Win2	0.6175999999999999	0.0	No	2.672	0.0	1.0	NoResponse	0	3.882	321.66	4	33	Fixation	MissedWin	False
322.66	0.3	Win2	0.6175999999999999	0.0	No	2.672	0.0	1.0	NoResponse	0	3.882	n/a	4	33	ButtonPress	MissedWin	False
322.777	0.21	Win2	0.6175999999999999	0.001	No	2.672	-0.001	1.0	NoResponse	0	0.26	322.037	4	33	Target	MissedWin	False
322.993	0.49	Win2	0.6175999999999999	n/a	No	2.672	n/a	n/a	NoResponse	0	n/a	n/a	4	33	Blank	MissedWin	False
323.037	0.3	Win2	0.6175999999999999	0.001	No	2.672	-0.001	1.0	NoResponse	0	0.26	n/a	4	33	ButtonPress	MissedWin	False
323.476	1.45	Win2	0.6175999999999999	n/a	No	2.672	n/a	5.0	NoResponse	0	0.01	322.486	4	33	Feedback	MissedWin	False
324.926	2.672	Win2	0.6175999999999999	n/a	No	2.672	n/a	n/a	NoResponse	0	0.0	n/a	4	33	ISIslide	MissedWin	False
327.625	0.25	Lose2	0.6286	0.0	Yes	2.625	0.025	n/a	GoodResponse	0	n/a	n/a	4	34	Cue	AvoidedLoss	True
327.875	4.05	Lose2	0.6286	0.0	Yes	2.625	0.0	n/a	GoodResponse	0	n/a	n/a	4	34	Fixation	AvoidedLoss	True
331.923	0.22	Lose2	0.6286	0.002	Yes	2.625	-0.002	1.0	GoodResponse	0	0.206	331.129	4	34	Target	AvoidedLoss	True
332.129	0.3	Lose2	0.6286	0.002	Yes	2.625	-0.002	1.0	GoodResponse	0	0.206	n/a	4	34	ButtonPress	AvoidedLoss	True
332.157	0.48	Lose2	0.6286	n/a	Yes	2.625	n/a	n/a	GoodResponse	0	n/a	n/a	4	34	Blank	AvoidedLoss	True
332.623	1.45	Lose2	0.6286	n/a	Yes	2.625	n/a	5.0	GoodResponse	0	0.033	331.656	4	34	Feedback	AvoidedLoss	True
334.073	2.625	Lose2	0.6286	n/a	Yes	2.625	n/a	n/a	GoodResponse	0	0.0	n/a	4	34	ISIslide	AvoidedLoss	True
336.722	0.25	Lose2	0.6389	0.0	Yes	2.678	0.022	n/a	GoodResponse	0	n/a	n/a	4	35	Cue	AvoidedLoss	True
336.972	4.0	Lose2	0.6389	0.0	Yes	2.678	0.0	n/a	GoodResponse	0	n/a	n/a	4	35	Fixation	AvoidedLoss	True
340.97	0.23	Lose2	0.6389	0.002	Yes	2.678	-0.002	1.0	GoodResponse	0	0.18	340.15	4	35	Target	AvoidedLoss	True
341.15	0.3	Lose2	0.6389	0.002	Yes	2.678	-0.002	1.0	GoodResponse	0	0.18	n/a	4	35	ButtonPress	AvoidedLoss	True
341.203	0.47	Lose2	0.6389	n/a	Yes	2.678	n/a	n/a	GoodResponse	0	n/a	n/a	4	35	Blank	AvoidedLoss	True
341.67	1.45	Lose2	0.6389	n/a	Yes	2.678	n/a	5.0	GoodResponse	0	0.011	340.681	4	35	Feedback	AvoidedLoss	True
343.119	2.678	Lose2	0.6389	n/a	Yes	2.678	n/a	n/a	GoodResponse	0	0.0	n/a	4	35	ISIslide	AvoidedLoss	True
345.818	0.25	Control	0.6486	0.001	Yes	2.682	0.018	n/a	GoodResponse	0	n/a	n/a	4	36	Cue	Neutral	True
346.068	4.0	Control	0.6486	0.0	Yes	2.682	0.0	n/a	GoodResponse	0	n/a	n/a	4	36	Fixation	Neutral	True
350.067	0.24	Control	0.6486	0.001	Yes	2.682	-0.001	1.0	GoodResponse	0	0.23	349.297	4	36	Target	Neutral	True
350.297	0.3	Control	0.6486	0.001	Yes	2.682	-0.001	1.0	GoodResponse	0	0.23	n/a	4	36	ButtonPress	Neutral	True
350.317	0.46	Control	0.6486	n/a	Yes	2.682	n/a	n/a	GoodResponse	0	n/a	n/a	4	36	Blank	Neutral	True
350.767	1.45	Control	0.6486	n/a	Yes	2.682	n/a	5.0	GoodResponse	0	0.036	349.803	4	36	Feedback	Neutral	True
352.216	2.682	Control	0.6486	n/a	Yes	2.682	n/a	n/a	GoodResponse	0	0.0	n/a	4	36	ISIslide	Neutral	True
354.915	0.25	Win2	0.6579	0.0	Yes	2.885	0.015	n/a	GoodResponse	1	n/a	n/a	5	37	Cue	Win	True
355.165	4.0	Win2	0.6579	0.0	Yes	2.885	0.0	n/a	GoodResponse	1	n/a	n/a	5	37	Fixation	Win	True
359.164	0.25	Win2	0.6579	0.001	Yes	2.885	-0.001	1.0	GoodResponse	1	0.19	358.354	5	37	Target	Win	True
359.354	0.3	Win2	0.6579	0.001	Yes	2.885	-0.001	1.0	GoodResponse	1	0.19	n/a	5	37	ButtonPress	Win	True
359.414	0.45	Win2	0.6579	n/a	Yes	2.885	n/a	n/a	GoodResponse	1	n/a	n/a	5	37	Blank	Win	True
359.863	1.45	Win2	0.6579	n/a	Yes	2.885	n/a	5.0	GoodResponse	1	0.013	358.876	5	37	Feedback	Win	True
361.313	2.885	Win2	0.6579	n/a	Yes	2.885	n/a	n/a	GoodResponse	1	0.0	n/a	5	37	ISIslide	Win	True
364.229	0.25	Lose2	0.6667000000000001	0.0	Yes	2.821	0.029	n/a	GoodResponse	0	n/a	n/a	5	38	Cue	AvoidedLoss	True
364.479	3.95	Lose2	0.6667000000000001	0.0	Yes	2.821	0.0	n/a	GoodResponse	0	n/a	n/a	5	38	Fixation	AvoidedLoss	True
368.427	0.25	Lose2	0.6667000000000001	0.002	Yes	2.821	-0.002	1.0	GoodResponse	0	0.214	367.641	5	38	Target	AvoidedLoss	True
368.641	0.3	Lose2	0.6667000000000001	0.002	Yes	2.821	-0.002	1.0	GoodResponse	0	0.214	n/a	5	38	ButtonPress	AvoidedLoss	True
368.677	0.45	Lose2	0.6667000000000001	n/a	Yes	2.821	n/a	n/a	GoodResponse	0	n/a	n/a	5	38	Blank	AvoidedLoss	True
369.127	1.45	Lose2	0.6667000000000001	n/a	Yes	2.821	n/a	5.0	GoodResponse	0	0.016	368.143	5	38	Feedback	AvoidedLoss	True
370.576	2.821	Lose2	0.6667000000000001	n/a	Yes	2.821	n/a	n/a	GoodResponse	0	0.0	n/a	5	38	ISIslide	AvoidedLoss	True
373.425	0.25	Win2	0.675	0.0	Yes	2.975	0.025	n/a	GoodResponse	1	n/a	n/a	6	39	Cue	Win	True
373.675	4.1	Win2	0.675	0.0	Yes	2.975	0.0	n/a	GoodResponse	1	n/a	n/a	6	39	Fixation	Win	True
377.774	0.24	Win2	0.675	0.001	Yes	2.975	-0.001	1.0	GoodResponse	1	0.19	376.964	6	39	Target	Win	True
377.964	0.3	Win2	0.675	0.001	Yes	2.975	-0.001	1.0	GoodResponse	1	0.19	n/a	6	39	ButtonPress	Win	True
378.024	0.46	Win2	0.675	n/a	Yes	2.975	n/a	n/a	GoodResponse	1	n/a	n/a	6	39	Blank	Win	True
378.474	1.45	Win2	0.675	n/a	Yes	2.975	n/a	5.0	GoodResponse	1	0.035	377.509	6	39	Feedback	Win	True
379.923	2.975	Win2	0.675	n/a	Yes	2.975	n/a	n/a	GoodResponse	1	0.0	n/a	6	39	ISIslide	Win	True
382.922	0.25	Win2	0.6829000000000001	0.0	Yes	2.728	0.022	n/a	GoodResponse	1	n/a	n/a	7	40	Cue	Win	True
383.172	3.95	Win2	0.6829000000000001	0.0	Yes	2.728	0.0	n/a	GoodResponse	1	n/a	n/a	7	40	Fixation	Win	True
387.12	0.23	Win2	0.6829000000000001	0.002	Yes	2.728	-0.002	1.0	GoodResponse	1	0.186	386.306	7	40	Target	Win	True
387.306	0.3	Win2	0.6829000000000001	0.002	Yes	2.728	-0.002	1.0	GoodResponse	1	0.186	n/a	7	40	ButtonPress	Win	True
387.354	0.47	Win2	0.6829000000000001	n/a	Yes	2.728	n/a	n/a	GoodResponse	1	n/a	n/a	7	40	Blank	Win	True
387.82	1.45	Win2	0.6829000000000001	n/a	Yes	2.728	n/a	5.0	GoodResponse	1	0.008	386.828	7	40	Feedback	Win	True
389.27	2.728	Win2	0.6829000000000001	n/a	Yes	2.728	n/a	n/a	GoodResponse	1	0.0	n/a	7	40	ISIslide	Win	True
392.019	0.25	Win2	0.6905	0.0	Yes	2.781	0.019	n/a	GoodResponse	1	n/a	n/a	8	41	Cue	Win	True
392.269	3.9	Win2	0.6905	0.0	Yes	2.781	0.0	n/a	GoodResponse	1	n/a	n/a	8	41	Fixation	Win	True
396.167	0.22	Win2	0.6905	0.002	Yes	2.781	-0.002	1.0	GoodResponse	1	0.167	395.334	8	41	Target	Win	True
396.334	0.3	Win2	0.6905	0.002	Yes	2.781	-0.002	1.0	GoodResponse	1	0.167	n/a	8	41	ButtonPress	Win	True
396.4	0.48	Win2	0.6905	n/a	Yes	2.781	n/a	n/a	GoodResponse	1	n/a	n/a	8	41	Blank	Win	True
396.867	1.45	Win2	0.6905	n/a	Yes	2.781	n/a	5.0	GoodResponse	1	0.033	395.9	8	41	Feedback	Win	True
398.316	2.781	Win2	0.6905	n/a	Yes	2.781	n/a	n/a	GoodResponse	1	0.0	n/a	8	41	ISIslide	Win	True
401.115	0.25	Control	0.6977	0.001	Yes	2.935	0.015	n/a	GoodResponse	0	n/a	n/a	8	42	Cue	Neutral	True
401.365	3.85	Control	0.6977	0.0	Yes	2.935	0.0	n/a	GoodResponse	0	n/a	n/a	8	42	Fixation	Neutral	True
405.214	0.21	Control	0.6977	0.001	Yes	2.935	-0.001	1.0	GoodResponse	0	0.199	404.413	8	42	Target	Neutral	True
405.413	0.3	Control	0.6977	0.001	Yes	2.935	-0.001	1.0	GoodResponse	0	0.199	n/a	8	42	ButtonPress	Neutral	True
405.431	0.49	Control	0.6977	n/a	Yes	2.935	n/a	n/a	GoodResponse	0	n/a	n/a	8	42	Blank	Neutral	True
405.914	1.45	Control	0.6977	n/a	Yes	2.935	n/a	5.0	GoodResponse	0	0.009	404.923	8	42	Feedback	Neutral	True
407.363	2.935	Control	0.6977	n/a	Yes	2.935	n/a	n/a	GoodResponse	0	0.0	n/a	8	42	ISIslide	Neutral	True
410.329	0.25	Win2	0.6818000000000001	0.0	No	3.171	0.029	n/a	NoResponse	0	n/a	n/a	8	43	Cue	MissedWin	False
410.579	4.0	Win2	0.6818000000000001	0.0	No	3.171	0.0	1.0	NoResponse	0	3.928	413.507	8	43	Fixation	MissedWin	False
414.507	0.3	Win2	0.6818000000000001	0.0	No	3.171	0.0	1.0	NoResponse	0	3.928	n/a	8	43	ButtonPress	MissedWin	False
414.577	0.2	Win2	0.6818000000000001	0.002	No	3.171	-0.002	1.0	NoResponse	0	0.215	413.792	8	43	Target	MissedWin	False
414.777	0.5	Win2	0.6818000000000001	n/a	No	3.171	n/a	n/a	NoResponse	0	n/a	n/a	8	43	Blank	MissedWin	False
414.792	0.3	Win2	0.6818000000000001	0.002	No	3.171	-0.002	1.0	NoResponse	0	0.215	n/a	8	43	ButtonPress	MissedWin	False
415.277	1.45	Win2	0.6818000000000001	n/a	No	3.171	n/a	5.0	NoResponse	0	0.012	414.289	8	43	Feedback	MissedWin	False
416.727	3.171	Win2	0.6818000000000001	n/a	No	3.171	n/a	n/a	NoResponse	0	0.0	n/a	8	43	ISIslide	MissedWin	False
419.925	0.25	Win2	0.6667000000000001	0.001	No	2.975	0.025	n/a	NoResponse	0	n/a	n/a	8	44	Cue	MissedWin	True
420.175	4.0	Win2	0.6667000000000001	0.0	No	2.975	0.0	n/a	NoResponse	0	n/a	n/a	8	44	Fixation	MissedWin	True
424.174	0.19	Win2	0.6667000000000001	0.001	No	2.975	-0.001	1.0	NoResponse	0	0.208	423.382	8	44	Target	MissedWin	True
424.374	0.51	Win2	0.6667000000000001	n/a	No	2.975	n/a	n/a	NoResponse	0	n/a	n/a	8	44	Blank	MissedWin	True
424.382	0.3	Win2	0.6667000000000001	0.001	No	2.975	-0.001	1.0	NoResponse	0	0.208	n/a	8	44	ButtonPress	MissedWin	True
424.874	1.45	Win2	0.6667000000000001	n/a	No	2.975	n/a	5.0	NoResponse	0	0.025	423.899	8	44	Feedback	MissedWin	True
426.323	2.975	Win2	0.6667000000000001	n/a	No	2.975	n/a	n/a	NoResponse	0	0.0	n/a	8	44	ISIslide	MissedWin	True
429.322	0.25	Control	0.6522	0.0	No	2.878	0.022	n/a	NoResponse	0	n/a	n/a	8	45	Cue	Neutral	True
429.572	4.1	Control	0.6522	0.0	No	2.878	0.0	n/a	NoResponse	0	n/a	n/a	8	45	Fixation	Neutral	True
433.671	0.18	Control	0.6522	0.001	No	2.878	-0.001	1.0	NoResponse	0	0.207	432.878	8	45	Target	Neutral	True
433.854	0.52	Control	0.6522	n/a	No	2.878	n/a	n/a	NoResponse	0	n/a	n/a	8	45	Blank	Neutral	True
433.878	0.3	Control	0.6522	0.001	No	2.878	-0.001	1.0	NoResponse	0	0.207	n/a	8	45	ButtonPress	Neutral	True
434.37	1.45	Control	0.6522	n/a	No	2.878	n/a	5.0	NoResponse	0	0.041	433.411	8	45	Feedback	Neutral	True
435.82	2.878	Control	0.6522	n/a	No	2.878	n/a	n/a	NoResponse	0	0.0	n/a	8	45	ISIslide	Neutral	True
438.719	0.25	Lose2	0.6383	0.0	No	3.381	0.019	n/a	LatePress	-1	n/a	n/a	7	46	Cue	Loss	False
438.969	4.0	Lose2	0.6383	0.0	No	3.381	0.0	1.0	LatePress	-1	3.644	441.613	7	46	Fixation	Loss	False
442.613	0.3	Lose2	0.6383	0.0	No	3.381	0.0	1.0	LatePress	-1	3.644	n/a	7	46	ButtonPress	Loss	False
442.967	0.19	Lose2	0.6383	0.002	No	3.381	-0.002	1.0	LatePress	-1	0.196	442.163	7	46	Target	Loss	False
443.163	0.3	Lose2	0.6383	0.002	No	3.381	-0.002	1.0	LatePress	-1	0.196	n/a	7	46	ButtonPress	Loss	False
443.167	0.51	Lose2	0.6383	n/a	No	3.381	n/a	n/a	LatePress	-1	n/a	n/a	7	46	Blank	Loss	False
443.667	1.45	Lose2	0.6383	n/a	No	3.381	n/a	5.0	LatePress	-1	0.012	442.679	7	46	Feedback	Loss	False
445.116	3.381	Lose2	0.6383	n/a	No	3.381	n/a	n/a	LatePress	-1	0.0	n/a	7	46	ISIslide	Loss	False
448.515	0.25	Lose2	0.625	0.0	No	2.685	0.015	n/a	NoResponse	-1	n/a	n/a	6	47	Cue	Loss	True
448.765	4.0	Lose2	0.625	0.0	No	2.685	0.0	n/a	NoResponse	-1	n/a	n/a	6	47	Fixation	Loss	True
452.764	0.2	Lose2	0.625	0.001	No	2.685	-0.001	1.0	NoResponse	-1	0.213	451.977	6	47	Target	Loss	True
452.964	0.5	Lose2	0.625	n/a	No	2.685	n/a	n/a	NoResponse	-1	n/a	n/a	6	47	Blank	Loss	True
452.977	0.3	Lose2	0.625	0.001	No	2.685	-0.001	1.0	NoResponse	-1	0.213	n/a	6	47	ButtonPress	Loss	True
453.464	1.45	Lose2	0.625	n/a	No	2.685	n/a	5.0	NoResponse	-1	0.02	452.484	6	47	Feedback	Loss	True
454.913	2.685	Lose2	0.625	n/a	No	2.685	n/a	n/a	NoResponse	-1	0.0	n/a	6	47	ISIslide	Loss	True
457.629	0.25	Lose2	0.6327	0.0	Yes	3.021	0.029	n/a	GoodResponse	0	n/a	n/a	6	48	Cue	AvoidedLoss	True
457.879	3.95	Lose2	0.6327	0.0	Yes	3.021	0.0	n/a	GoodResponse	0	n/a	n/a	6	48	Fixation	AvoidedLoss	True
461.827	0.21	Lose2	0.6327	0.002	Yes	3.021	-0.002	1.0	GoodResponse	0	0.196	461.023	6	48	Target	AvoidedLoss	True
462.023	0.3	Lose2	0.6327	0.002	Yes	3.021	-0.002	1.0	GoodResponse	0	0.196	n/a	6	48	ButtonPress	AvoidedLoss	True
462.044	0.49	Lose2	0.6327	n/a	Yes	3.021	n/a	n/a	GoodResponse	0	n/a	n/a	6	48	Blank	AvoidedLoss	True
462.527	1.45	Lose2	0.6327	n/a	Yes	3.021	n/a	5.0	GoodResponse	0	0.03	461.557	6	48	Feedback	AvoidedLoss	True
463.976	3.021	Lose2	0.6327	n/a	Yes	3.021	n/a	n/a	GoodResponse	0	0.0	n/a	6	48	ISIslide	AvoidedLoss	True
467.025	0.25	Control	0.64	0.0	Yes	2.875	0.025	n/a	GoodResponse	0	n/a	n/a	6	49	Cue	Neutral	True
467.275	4.0	Control	0.64	0.0	Yes	2.875	0.0	n/a	GoodResponse	0	n/a	n/a	6	49	Fixation	Neutral	True
471.274	0.22	Control	0.64	0.001	Yes	2.875	-0.001	1.0	GoodResponse	0	0.195	470.469	6	49	Target	Neutral	True
471.469	0.3	Control	0.64	0.001	Yes	2.875	-0.001	1.0	GoodResponse	0	0.195	n/a	6	49	ButtonPress	Neutral	True
471.49	0.48	Control	0.64	n/a	Yes	2.875	n/a	n/a	GoodResponse	0	n/a	n/a	6	49	Blank	Neutral	True
471.974	1.45	Control	0.64	n/a	Yes	2.875	n/a	5.0	GoodResponse	0	0.047	471.021	6	49	Feedback	Neutral	True
473.423	2.875	Control	0.64	n/a	Yes	2.875	n/a	n/a	GoodResponse	0	0.0	n/a	6	49	ISIslide	Neutral	True
476.322	0.25	Control	0.6470999999999999	0.0	Yes	2.778	0.022	n/a	GoodResponse	0	n/a	n/a	6	50	Cue	Neutral	True
476.572	4.0	Control	0.6470999999999999	0.0	Yes	2.778	0.0	n/a	GoodResponse	0	n/a	n/a	6	50	Fixation	Neutral	True
480.571	0.23	Control	0.6470999999999999	0.001	Yes	2.778	-0.001	1.0	GoodResponse	0	0.194	479.765	6	50	Target	Neutral	True
480.765	0.3	Control	0.6470999999999999	0.001	Yes	2.778	-0.001	1.0	GoodResponse	0	0.194	n/a	6	50	ButtonPress	Neutral	True
480.804	0.47	Control	0.6470999999999999	n/a	Yes	2.778	n/a	n/a	GoodResponse	0	n/a	n/a	6	50	Blank	Neutral	True
481.27	1.45	Control	0.6470999999999999	n/a	Yes	2.778	n/a	5.0	GoodResponse	0	0.018	480.288	6	50	Feedback	Neutral	True
482.72	2.778	Control	0.6470999999999999	n/a	Yes	2.778	n/a	n/a	GoodResponse	0	0.0	n/a	6	50	ISIslide	Neutral	True
485.519	0.25	Control	0.6537999999999999	0.0	Yes	2.731	0.019	n/a	GoodResponse	0	n/a	n/a	6	51	Cue	Neutral	True
485.769	3.95	Control	0.6537999999999999	0.0	Yes	2.731	0.0	n/a	GoodResponse	0	n/a	n/a	6	51	Fixation	Neutral	True
489.717	0.24	Control	0.6537999999999999	0.002	Yes	2.731	-0.002	1.0	GoodResponse	0	0.23	488.947	6	51	Target	Neutral	True
489.947	0.3	Control	0.6537999999999999	0.002	Yes	2.731	-0.002	1.0	GoodResponse	0	0.23	n/a	6	51	ButtonPress	Neutral	True
489.967	0.46	Control	0.6537999999999999	n/a	Yes	2.731	n/a	n/a	GoodResponse	0	n/a	n/a	6	51	Blank	Neutral	True
490.417	1.45	Control	0.6537999999999999	n/a	Yes	2.731	n/a	5.0	GoodResponse	0	0.042	489.459	6	51	Feedback	Neutral	True
491.867	2.731	Control	0.6537999999999999	n/a	Yes	2.731	n/a	n/a	GoodResponse	0	0.0	n/a	6	51	ISIslide	Neutral	True
494.616	0.25	Control	0.6604000000000001	0.0	Yes	2.634	0.016	n/a	GoodResponse	0	n/a	n/a	6	52	Cue	Neutral	True
494.865	4.05	Control	0.6604000000000001	0.001	Yes	2.634	-0.001	n/a	GoodResponse	0	n/a	n/a	6	52	Fixation	Neutral	True
498.914	0.25	Control	0.6604000000000001	0.002	Yes	2.634	-0.002	1.0	GoodResponse	0	0.207	498.121	6	52	Target	Neutral	True
499.121	0.3	Control	0.6604000000000001	0.002	Yes	2.634	-0.002	1.0	GoodResponse	0	0.207	n/a	6	52	ButtonPress	Neutral	True
499.164	0.45	Control	0.6604000000000001	n/a	Yes	2.634	n/a	n/a	GoodResponse	0	n/a	n/a	6	52	Blank	Neutral	True
499.614	1.45	Control	0.6604000000000001	n/a	Yes	2.634	n/a	5.0	GoodResponse	0	0.016	498.63	6	52	Feedback	Neutral	True
501.063	2.634	Control	0.6604000000000001	n/a	Yes	2.634	n/a	n/a	GoodResponse	0	0.0	n/a	6	52	ISIslide	Neutral	True
503.712	0.25	Win2	0.6667000000000001	0.0	Yes	2.938	0.012	n/a	GoodResponse	1	n/a	n/a	7	53	Cue	Win	True
503.962	4.05	Win2	0.6667000000000001	0.0	Yes	2.938	0.0	n/a	GoodResponse	1	n/a	n/a	7	53	Fixation	Win	True
508.011	0.25	Win2	0.6667000000000001	0.001	Yes	2.938	-0.001	1.0	GoodResponse	1	0.198	507.209	7	53	Target	Win	True
508.209	0.3	Win2	0.6667000000000001	0.001	Yes	2.938	-0.001	1.0	GoodResponse	1	0.198	n/a	7	53	ButtonPress	Win	True
508.261	0.45	Win2	0.6667000000000001	n/a	Yes	2.938	n/a	n/a	GoodResponse	1	n/a	n/a	7	53	Blank	Win	True
508.711	1.45	Win2	0.6667000000000001	n/a	Yes	2.938	n/a	5.0	GoodResponse	1	0.041	507.752	7	53	Feedback	Win	True
510.16	2.938	Win2	0.6667000000000001	n/a	Yes	2.938	n/a	n/a	GoodResponse	1	0.0	n/a	7	53	ISIslide	Win	True
513.126	0.25	Win2	0.6727	0.0	Yes	2.724	0.026	n/a	GoodResponse	1	n/a	n/a	8	54	Cue	Win	True
513.376	3.95	Win2	0.6727	0.0	Yes	2.724	0.0	n/a	GoodResponse	1	n/a	n/a	8	54	Fixation	Win	True
517.324	0.24	Win2	0.6727	0.002	Yes	2.724	-0.002	1.0	GoodResponse	1	0.183	516.507	8	54	Target	Win	True
517.507	0.3	Win2	0.6727	0.002	Yes	2.724	-0.002	1.0	GoodResponse	1	0.183	n/a	8	54	ButtonPress	Win	True
517.574	0.46	Win2	0.6727	n/a	Yes	2.724	n/a	n/a	GoodResponse	1	n/a	n/a	8	54	Blank	Win	True
518.024	1.45	Win2	0.6727	n/a	Yes	2.724	n/a	5.0	GoodResponse	1	0.044	517.068	8	54	Feedback	Win	True
519.473	2.724	Win2	0.6727	n/a	Yes	2.724	n/a	n/a	GoodResponse	1	0.0	n/a	8	54	ISIslide	Win	True
522.222	0.25	Control	0.6786	0.0	Yes	3.028	0.022	n/a	GoodResponse	0	n/a	n/a	8	55	Cue	Neutral	True
522.472	3.95	Control	0.6786	0.0	Yes	3.028	0.0	n/a	GoodResponse	0	n/a	n/a	8	55	Fixation	Neutral	True
526.421	0.23	Control	0.6786	0.001	Yes	3.028	-0.001	1.0	GoodResponse	0	0.194	525.615	8	55	Target	Neutral	True
526.615	0.3	Control	0.6786	0.001	Yes	3.028	-0.001	1.0	GoodResponse	0	0.194	n/a	8	55	ButtonPress	Neutral	True
526.654	0.47	Control	0.6786	n/a	Yes	3.028	n/a	n/a	GoodResponse	0	n/a	n/a	8	55	Blank	Neutral	True
527.121	1.45	Control	0.6786	n/a	Yes	3.028	n/a	5.0	GoodResponse	0	0.02	526.141	8	55	Feedback	Neutral	True
528.57	3.028	Control	0.6786	n/a	Yes	3.028	n/a	n/a	GoodResponse	0	0.0	n/a	8	55	ISIslide	Neutral	True
531.619	0.25	Control	0.6842	0.0	Yes	2.831	0.019	n/a	GoodResponse	0	n/a	n/a	8	56	Cue	Neutral	True
531.869	3.95	Control	0.6842	0.0	Yes	2.831	0.0	n/a	GoodResponse	0	n/a	n/a	8	56	Fixation	Neutral	True
535.818	0.22	Control	0.6842	0.001	Yes	2.831	-0.001	1.0	GoodResponse	0	0.2	535.018	8	56	Target	Neutral	True
536.018	0.3	Control	0.6842	0.001	Yes	2.831	-0.001	1.0	GoodResponse	0	0.2	n/a	8	56	ButtonPress	Neutral	True
536.051	0.48	Control	0.6842	n/a	Yes	2.831	n/a	n/a	GoodResponse	0	n/a	n/a	8	56	Blank	Neutral	True
536.517	1.45	Control	0.6842	n/a	Yes	2.831	n/a	5.0	GoodResponse	0	0.039	535.556	8	56	Feedback	Neutral	True
537.967	2.831	Control	0.6842	n/a	Yes	2.831	n/a	n/a	GoodResponse	0	0.0	n/a	8	56	ISIslide	Neutral	True
540.816	0.25	Control	0.6724	0.0	No	3.484	0.016	n/a	LatePress	0	n/a	n/a	8	57	Cue	Neutral	True
541.066	4.0	Control	0.6724	0.0	No	3.484	0.0	n/a	LatePress	0	n/a	n/a	8	57	Fixation	Neutral	True
545.064	0.21	Control	0.6724	0.002	No	3.484	-0.002	1.0	LatePress	0	0.215	544.279	8	57	Target	Neutral	True
545.279	0.3	Control	0.6724	0.002	No	3.484	-0.002	1.0	LatePress	0	0.215	n/a	8	57	ButtonPress	Neutral	True
545.281	0.49	Control	0.6724	n/a	No	3.484	n/a	n/a	LatePress	0	n/a	n/a	8	57	Blank	Neutral	True
545.764	1.45	Control	0.6724	n/a	No	3.484	n/a	5.0	LatePress	0	0.012	544.776	8	57	Feedback	Neutral	True
547.214	3.484	Control	0.6724	n/a	No	3.484	n/a	n/a	LatePress	0	0.0	n/a	8	57	ISIslide	Neutral	True
550.729	0.25	Win2	0.6609999999999999	0.0	No	2.721	0.029	n/a	NoResponse	0	n/a	n/a	8	58	Cue	MissedWin	False
550.979	4.05	Win2	0.6609999999999999	0.0	No	2.721	0.0	1.0	NoResponse	0	3.896	553.875	8	58	Fixation	MissedWin	False
554.875	0.3	Win2	0.6609999999999999	0.0	No	2.721	0.0	1.0	NoResponse	0	3.896	n/a	8	58	ButtonPress	MissedWin	False
555.027	0.2	Win2	0.6609999999999999	0.002	No	2.721	-0.002	1.0	NoResponse	0	0.377	554.404	8	58	Target	MissedWin	False
555.227	0.5	Win2	0.6609999999999999	n/a	No	2.721	n/a	n/a	NoResponse	0	n/a	n/a	8	58	Blank	MissedWin	False
555.404	0.3	Win2	0.6609999999999999	0.002	No	2.721	-0.002	1.0	NoResponse	0	0.377	n/a	8	58	ButtonPress	MissedWin	False
555.727	1.45	Win2	0.6609999999999999	n/a	No	2.721	n/a	5.0	NoResponse	0	0.048	554.775	8	58	Feedback	MissedWin	False
557.177	2.721	Win2	0.6609999999999999	n/a	No	2.721	n/a	n/a	NoResponse	0	0.0	n/a	8	58	ISIslide	MissedWin	False
559.926	0.25	Lose2	0.65	0.0	No	2.674	0.026	n/a	NoResponse	-1	n/a	n/a	7	59	Cue	Loss	True
560.176	4.0	Lose2	0.65	0.0	No	2.674	0.0	n/a	NoResponse	-1	n/a	n/a	7	59	Fixation	Loss	True
564.174	0.2	Lose2	0.65	0.002	No	2.674	-0.002	1.0	NoResponse	-1	0.217	563.391	7	59	Target	Loss	True
564.374	0.5	Lose2	0.65	n/a	No	2.674	n/a	n/a	NoResponse	-1	n/a	n/a	7	59	Blank	Loss	True
564.391	0.3	Lose2	0.65	0.002	No	2.674	-0.002	1.0	NoResponse	-1	0.217	n/a	7	59	ButtonPress	Loss	True
564.874	1.45	Lose2	0.65	n/a	No	2.674	n/a	5.0	NoResponse	-1	0.023	563.897	7	59	Feedback	Loss	True
566.323	2.674	Lose2	0.65	n/a	No	2.674	n/a	n/a	NoResponse	-1	0.0	n/a	7	59	ISIslide	Loss	True
569.022	0.25	Control	0.6393	0.0	No	2.678	0.022	n/a	LatePress	0	n/a	n/a	7	60	Cue	Neutral	True
569.272	4.0	Control	0.6393	0.0	No	2.678	0.0	n/a	LatePress	0	n/a	n/a	7	60	Fixation	Neutral	True
573.271	0.21	Control	0.6393	0.001	No	2.678	-0.001	1.0	LatePress	0	0.214	572.485	7	60	Target	Neutral	True
573.485	0.3	Control	0.6393	0.001	No	2.678	-0.001	1.0	LatePress	0	0.214	n/a	7	60	ButtonPress	Neutral	True
573.487	0.49	Control	0.6393	n/a	No	2.678	n/a	n/a	LatePress	0	n/a	n/a	7	60	Blank	Neutral	True
573.971	1.45	Control	0.6393	n/a	No	2.678	n/a	5.0	LatePress	0	0.048	573.019	7	60	Feedback	Neutral	True
575.42	2.678	Control	0.6393	n/a	No	2.678	n/a	n/a	LatePress	0	0.0	n/a	7	60	ISIslide	Neutral	True
578.119	0.25	Lose2	0.6452	0.0	Yes	2.981	0.019	n/a	GoodResponse	0	n/a	n/a	7	61	Cue	AvoidedLoss	True
578.369	4.0	Lose2	0.6452	0.0	Yes	2.981	0.0	n/a	GoodResponse	0	n/a	n/a	7	61	Fixation	AvoidedLoss	True
582.368	0.22	Lose2	0.6452	0.001	Yes	2.981	-0.001	1.0	GoodResponse	0	0.199	581.567	7	61	Target	AvoidedLoss	True
582.567	0.3	Lose2	0.6452	0.001	Yes	2.981	-0.001	1.0	GoodResponse	0	0.199	n/a	7	61	ButtonPress	AvoidedLoss	True
582.601	0.48	Lose2	0.6452	n/a	Yes	2.981	n/a	n/a	GoodResponse	0	n/a	n/a	7	61	Blank	AvoidedLoss	True
583.067	1.45	Lose2	0.6452	n/a	Yes	2.981	n/a	5.0	GoodResponse	0	0.025	582.092	7	61	Feedback	AvoidedLoss	True
584.517	2.981	Lose2	0.6452	n/a	Yes	2.981	n/a	n/a	GoodResponse	0	0.0	n/a	7	61	ISIslide	AvoidedLoss	True
587.516	0.25	Lose2	0.6507999999999999	0.0	Yes	2.884	0.016	n/a	GoodResponse	0	n/a	n/a	7	62	Cue	AvoidedLoss	True
587.766	3.9	Lose2	0.6507999999999999	0.0	Yes	2.884	0.0	n/a	GoodResponse	0	n/a	n/a	7	62	Fixation	AvoidedLoss	True
591.664	0.23	Lose2	0.6507999999999999	0.002	Yes	2.884	-0.002	1.0	GoodResponse	0	0.191	590.855	7	62	Target	AvoidedLoss	True
591.855	0.3	Lose2	0.6507999999999999	0.002	Yes	2.884	-0.002	1.0	GoodResponse	0	0.191	n/a	7	62	ButtonPress	AvoidedLoss	True
591.898	0.47	Lose2	0.6507999999999999	n/a	Yes	2.884	n/a	n/a	GoodResponse	0	n/a	n/a	7	62	Blank	AvoidedLoss	True
592.364	1.45	Lose2	0.6507999999999999	n/a	Yes	2.884	n/a	5.0	GoodResponse	0	0.044	591.408	7	62	Feedback	AvoidedLoss	True
593.814	2.884	Lose2	0.6507999999999999	n/a	Yes	2.884	n/a	n/a	GoodResponse	0	0.0	n/a	7	62	ISIslide	AvoidedLoss	True
596.713	0.25	Lose2	0.6562	0.0	Yes	2.637	0.013	n/a	GoodResponse	0	n/a	n/a	7	63	Cue	AvoidedLoss	True
596.962	4.05	Lose2	0.6562	0.001	Yes	2.637	-0.001	n/a	GoodResponse	0	n/a	n/a	7	63	Fixation	AvoidedLoss	True
601.011	0.24	Lose2	0.6562	0.002	Yes	2.637	-0.002	1.0	GoodResponse	0	0.208	600.219	7	63	Target	AvoidedLoss	True
601.219	0.3	Lose2	0.6562	0.002	Yes	2.637	-0.002	1.0	GoodResponse	0	0.208	n/a	7	63	ButtonPress	AvoidedLoss	True
601.261	0.46	Lose2	0.6562	n/a	Yes	2.637	n/a	n/a	GoodResponse	0	n/a	n/a	7	63	Blank	AvoidedLoss	True
601.711	1.45	Lose2	0.6562	n/a	Yes	2.637	n/a	5.0	GoodResponse	0	0.015	600.726	7	63	Feedback	AvoidedLoss	True
603.16	2.637	Lose2	0.6562	n/a	Yes	2.637	n/a	n/a	GoodResponse	0	0.0	n/a	7	63	ISIslide	AvoidedLoss	True
605.826	0.25	Win2	0.6615000000000001	0.0	Yes	3.124	0.026	n/a	GoodResponse	1	n/a	n/a	8	64	Cue	Win	True
606.076	4.15	Win2	0.6615000000000001	0.0	Yes	3.124	0.0	n/a	GoodResponse	1	n/a	n/a	8	64	Fixation	Win	True
610.224	0.24	Win2	0.6615000000000001	0.002	Yes	3.124	-0.002	1.0	GoodResponse	1	0.195	609.419	8	64	Target	Win	True
610.419	0.3	Win2	0.6615000000000001	0.002	Yes	3.124	-0.002	1.0	GoodResponse	1	0.195	n/a	8	64	ButtonPress	Win	True
610.474	0.46	Win2	0.6615000000000001	n/a	Yes	3.124	n/a	n/a	GoodResponse	1	n/a	n/a	8	64	Blank	Win	True
610.924	1.45	Win2	0.6615000000000001	n/a	Yes	3.124	n/a	5.0	GoodResponse	1	0.021	609.945	8	64	Feedback	Win	True
612.374	3.124	Win2	0.6615000000000001	n/a	Yes	3.124	n/a	n/a	GoodResponse	1	0.0	n/a	8	64	ISIslide	Win	True
615.523	0.25	Control	0.6515000000000001	0.0	No	2.777	0.023	n/a	NoResponse	0	n/a	n/a	8	65	Cue	Neutral	True
615.772	4.0	Control	0.6515000000000001	0.001	No	2.777	-0.001	n/a	NoResponse	0	n/a	n/a	8	65	Fixation	Neutral	True
619.771	0.24	Control	0.6515000000000001	0.002	No	2.777	-0.002	1.0	NoResponse	0	0.287	619.058	8	65	Target	Neutral	True
620.021	0.46	Control	0.6515000000000001	n/a	No	2.777	n/a	n/a	NoResponse	0	n/a	n/a	8	65	Blank	Neutral	True
620.058	0.3	Control	0.6515000000000001	0.002	No	2.777	-0.002	1.0	NoResponse	0	0.287	n/a	8	65	ButtonPress	Neutral	True
620.471	1.45	Control	0.6515000000000001	n/a	No	2.777	n/a	5.0	NoResponse	0	0.035	619.506	8	65	Feedback	Neutral	True
621.92	2.777	Control	0.6515000000000001	n/a	No	2.777	n/a	n/a	NoResponse	0	0.0	n/a	8	65	ISIslide	Neutral	True
624.719	0.25	Win2	0.6567000000000001	0.0	Yes	2.781	0.019	n/a	GoodResponse	1	n/a	n/a	9	66	Cue	Win	True
624.969	3.9	Win2	0.6567000000000001	0.0	Yes	2.781	0.0	n/a	GoodResponse	1	n/a	n/a	9	66	Fixation	Win	True
628.868	0.25	Win2	0.6567000000000001	0.001	Yes	2.781	-0.001	1.0	GoodResponse	1	0.18	628.048	9	66	Target	Win	True
629.048	0.3	Win2	0.6567000000000001	0.001	Yes	2.781	-0.001	1.0	GoodResponse	1	0.18	n/a	9	66	ButtonPress	Win	True
629.118	0.45	Win2	0.6567000000000001	n/a	Yes	2.781	n/a	n/a	GoodResponse	1	n/a	n/a	9	66	Blank	Win	True
629.568	1.45	Win2	0.6567000000000001	n/a	Yes	2.781	n/a	5.0	GoodResponse	1	0.011	628.579	9	66	Feedback	Win	True
631.017	2.781	Win2	0.6567000000000001	n/a	Yes	2.781	n/a	n/a	GoodResponse	1	0.0	n/a	9	66	ISIslide	Win	True
633.816	0.25	Control	0.6618	0.0	Yes	2.734	0.016	n/a	GoodResponse	0	n/a	n/a	9	67	Cue	Neutral	True
634.066	3.95	Control	0.6618	0.0	Yes	2.734	0.0	n/a	GoodResponse	0	n/a	n/a	9	67	Fixation	Neutral	True
638.015	0.25	Control	0.6618	0.001	Yes	2.734	-0.001	1.0	GoodResponse	0	0.216	637.231	9	67	Target	Neutral	True
638.231	0.3	Control	0.6618	0.001	Yes	2.734	-0.001	1.0	GoodResponse	0	0.216	n/a	9	67	ButtonPress	Neutral	True
638.264	0.45	Control	0.6618	n/a	Yes	2.734	n/a	n/a	GoodResponse	0	n/a	n/a	9	67	Blank	Neutral	True
638.714	1.45	Control	0.6618	n/a	Yes	2.734	n/a	5.0	GoodResponse	0	0.035	637.749	9	67	Feedback	Neutral	True
640.164	2.734	Control	0.6618	n/a	Yes	2.734	n/a	n/a	GoodResponse	0	0.0	n/a	9	67	ISIslide	Neutral	True
642.913	0.25	Win2	0.6667000000000001	0.0	Yes	3.087	0.013	n/a	GoodResponse	1	n/a	n/a	10	68	Cue	Win	True
643.163	4.0	Win2	0.6667000000000001	0.0	Yes	3.087	0.0	n/a	GoodResponse	1	n/a	n/a	10	68	Fixation	Win	True
647.161	0.25	Win2	0.6667000000000001	0.002	Yes	3.087	-0.002	1.0	GoodResponse	1	0.21	646.371	10	68	Target	Win	True
647.371	0.3	Win2	0.6667000000000001	0.002	Yes	3.087	-0.002	1.0	GoodResponse	1	0.21	n/a	10	68	ButtonPress	Win	True
647.411	0.45	Win2	0.6667000000000001	n/a	Yes	3.087	n/a	n/a	GoodResponse	1	n/a	n/a	10	68	Blank	Win	True
647.861	1.45	Win2	0.6667000000000001	n/a	Yes	3.087	n/a	5.0	GoodResponse	1	0.011	646.872	10	68	Feedback	Win	True
649.311	3.087	Win2	0.6667000000000001	n/a	Yes	3.087	n/a	n/a	GoodResponse	1	0.0	n/a	10	68	ISIslide	Win	True
652.426	0.25	Win2	0.6714	0.0	Yes	3.224	0.026	n/a	GoodResponse	1	n/a	n/a	11	69	Cue	Win	True
652.676	3.95	Win2	0.6714	0.0	Yes	3.224	0.0	n/a	GoodResponse	1	n/a	n/a	11	69	Fixation	Win	True
656.625	0.24	Win2	0.6714	0.001	Yes	3.224	-0.001	1.0	GoodResponse	1	0.212	655.837	11	69	Target	Win	True
656.837	0.3	Win2	0.6714	0.001	Yes	3.224	-0.001	1.0	GoodResponse	1	0.212	n/a	11	69	ButtonPress	Win	True
656.874	0.46	Win2	0.6714	n/a	Yes	3.224	n/a	n/a	GoodResponse	1	n/a	n/a	11	69	Blank	Win	True
657.324	1.45	Win2	0.6714	n/a	Yes	3.224	n/a	5.0	GoodResponse	1	0.011	656.335	11	69	Feedback	Win	True
658.774	3.224	Win2	0.6714	n/a	Yes	3.224	n/a	n/a	GoodResponse	1	0.0	n/a	11	69	ISIslide	Win	True
662.023	0.25	Lose2	0.6761	0.0	Yes	3.027	0.023	n/a	GoodResponse	0	n/a	n/a	11	70	Cue	AvoidedLoss	True
662.273	4.05	Lose2	0.6761	0.0	Yes	3.027	0.0	n/a	GoodResponse	0	n/a	n/a	11	70	Fixation	AvoidedLoss	True
666.321	0.23	Lose2	0.6761	0.002	Yes	3.027	-0.002	1.0	GoodResponse	0	0.205	665.526	11	70	Target	AvoidedLoss	True
666.526	0.3	Lose2	0.6761	0.002	Yes	3.027	-0.002	1.0	GoodResponse	0	0.205	n/a	11	70	ButtonPress	AvoidedLoss	True
666.554	0.47	Lose2	0.6761	n/a	Yes	3.027	n/a	n/a	GoodResponse	0	n/a	n/a	11	70	Blank	AvoidedLoss	True
667.021	1.45	Lose2	0.6761	n/a	Yes	3.027	n/a	5.0	GoodResponse	0	0.021	666.042	11	70	Feedback	AvoidedLoss	True
668.47	3.027	Lose2	0.6761	n/a	Yes	3.027	n/a	n/a	GoodResponse	0	0.0	n/a	11	70	ISIslide	AvoidedLoss	True
671.519	0.25	Win2	0.6806	0.0	Yes	2.731	0.019	n/a	GoodResponse	1	n/a	n/a	12	71	Cue	Win	True
671.769	4.05	Win2	0.6806	0.0	Yes	2.731	0.0	n/a	GoodResponse	1	n/a	n/a	12	71	Fixation	Win	True
675.818	0.22	Win2	0.6806	0.001	Yes	2.731	-0.001	1.0	GoodResponse	1	0.183	675.001	12	71	Target	Win	True
676.001	0.3	Win2	0.6806	0.001	Yes	2.731	-0.001	1.0	GoodResponse	1	0.183	n/a	12	71	ButtonPress	Win	True
676.051	0.48	Win2	0.6806	n/a	Yes	2.731	n/a	n/a	GoodResponse	1	n/a	n/a	12	71	Blank	Win	True
676.517	1.45	Win2	0.6806	n/a	Yes	2.731	n/a	5.0	GoodResponse	1	0.037	675.554	12	71	Feedback	Win	True
677.967	2.731	Win2	0.6806	n/a	Yes	2.731	n/a	n/a	GoodResponse	1	0.0	n/a	12	71	ISIslide	Win	True
680.716	0.25	Win2	0.6849	0.0	Yes	2.784	0.016	n/a	GoodResponse	1	n/a	n/a	13	72	Cue	Win	True
680.966	4.1	Win2	0.6849	0.0	Yes	2.784	0.0	n/a	GoodResponse	1	n/a	n/a	13	72	Fixation	Win	True
685.064	0.21	Win2	0.6849	0.002	Yes	2.784	-0.002	1.0	GoodResponse	1	0.195	684.259	13	72	Target	Win	True
685.259	0.3	Win2	0.6849	0.002	Yes	2.784	-0.002	1.0	GoodResponse	1	0.195	n/a	13	72	ButtonPress	Win	True
685.281	0.49	Win2	0.6849	n/a	Yes	2.784	n/a	n/a	GoodResponse	1	n/a	n/a	13	72	Blank	Win	True
685.764	1.45	Win2	0.6849	n/a	Yes	2.784	n/a	5.0	GoodResponse	1	0.009	684.773	13	72	Feedback	Win	True
687.214	2.784	Win2	0.6849	n/a	Yes	2.784	n/a	n/a	GoodResponse	1	0.0	n/a	13	72	ISIslide	Win	True
690.013	0.25	Win2	0.6757	0.0	No	2.687	0.013	n/a	NoResponse	0	n/a	n/a	13	73	Cue	MissedWin	True
690.263	4.0	Win2	0.6757	0.0	No	2.687	0.0	n/a	NoResponse	0	n/a	n/a	13	73	Fixation	MissedWin	True
694.261	0.2	Win2	0.6757	0.002	No	2.687	-0.002	1.0	NoResponse	0	0.219	693.48	13	73	Target	MissedWin	True
694.461	0.5	Win2	0.6757	n/a	No	2.687	n/a	n/a	NoResponse	0	n/a	n/a	13	73	Blank	MissedWin	True
694.48	0.3	Win2	0.6757	0.002	No	2.687	-0.002	1.0	NoResponse	0	0.219	n/a	13	73	ButtonPress	MissedWin	True
694.961	1.45	Win2	0.6757	n/a	No	2.687	n/a	5.0	NoResponse	0	0.032	693.993	13	73	Feedback	MissedWin	True
696.41	2.687	Win2	0.6757	n/a	No	2.687	n/a	n/a	NoResponse	0	0.0	n/a	13	73	ISIslide	MissedWin	True
699.126	0.25	Lose2	0.6667000000000001	0.0	No	2.624	0.026	n/a	LatePress	-1	n/a	n/a	12	74	Cue	Loss	True
699.376	4.05	Lose2	0.6667000000000001	0.0	No	2.624	0.0	n/a	LatePress	-1	n/a	n/a	12	74	Fixation	Loss	True
703.425	0.19	Lose2	0.6667000000000001	0.001	No	2.624	-0.001	1.0	LatePress	-1	0.196	702.621	12	74	Target	Loss	True
703.621	0.3	Lose2	0.6667000000000001	0.001	No	2.624	-0.001	1.0	LatePress	-1	0.196	n/a	12	74	ButtonPress	Loss	True
703.625	0.51	Lose2	0.6667000000000001	n/a	No	2.624	n/a	n/a	LatePress	-1	n/a	n/a	12	74	Blank	Loss	True
704.124	1.45	Lose2	0.6667000000000001	n/a	No	2.624	n/a	5.0	LatePress	-1	0.039	703.163	12	74	Feedback	Loss	True
705.574	2.624	Lose2	0.6667000000000001	n/a	No	2.624	n/a	n/a	LatePress	-1	0.0	n/a	12	74	ISIslide	Loss	True
708.223	0.25	Lose2	0.6579	0.0	No	2.927	0.023	n/a	NoResponse	-1	n/a	n/a	11	75	Cue	Loss	True
708.473	3.95	Lose2	0.6579	0.0	No	2.927	0.0	n/a	NoResponse	-1	n/a	n/a	11	75	Fixation	Loss	True
712.421	0.18	Lose2	0.6579	0.002	No	2.927	-0.002	1.0	NoResponse	-1	0.214	711.635	11	75	Target	Loss	True
712.605	0.52	Lose2	0.6579	n/a	No	2.927	n/a	n/a	NoResponse	-1	n/a	n/a	11	75	Blank	Loss	True
712.635	0.3	Lose2	0.6579	0.002	No	2.927	-0.002	1.0	NoResponse	-1	0.214	n/a	11	75	ButtonPress	Loss	True
713.121	1.45	Lose2	0.6579	n/a	No	2.927	n/a	5.0	NoResponse	-1	0.018	712.139	11	75	Feedback	Loss	True
714.571	2.927	Lose2	0.6579	n/a	No	2.927	n/a	n/a	NoResponse	-1	0.0	n/a	11	75	ISIslide	Loss	True
717.52	0.25	Control	0.6494	0.0	No	3.23	0.02	n/a	NoResponse	0	n/a	n/a	11	76	Cue	Neutral	True
717.769	4.05	Control	0.6494	0.001	No	3.23	-0.001	n/a	NoResponse	0	n/a	n/a	11	76	Fixation	Neutral	True
721.818	0.18	Control	0.6494	0.002	No	3.23	-0.002	1.0	NoResponse	0	0.204	721.022	11	76	Target	Neutral	True
722.001	0.52	Control	0.6494	n/a	No	3.23	n/a	n/a	NoResponse	0	n/a	n/a	11	76	Blank	Neutral	True
722.022	0.3	Control	0.6494	0.002	No	3.23	-0.002	1.0	NoResponse	0	0.204	n/a	11	76	ButtonPress	Neutral	True
722.518	1.45	Control	0.6494	n/a	No	3.23	n/a	5.0	NoResponse	0	0.035	721.553	11	76	Feedback	Neutral	True
723.967	3.23	Control	0.6494	n/a	No	3.23	n/a	n/a	NoResponse	0	0.0	n/a	11	76	ISIslide	Neutral	True
727.216	0.25	Lose2	0.6409999999999999	0.0	No	2.584	0.016	n/a	LatePress	-1	n/a	n/a	10	77	Cue	Loss	True
727.466	3.95	Lose2	0.6409999999999999	0.0	No	2.584	0.0	n/a	LatePress	-1	n/a	n/a	10	77	Fixation	Loss	True
731.415	0.19	Lose2	0.6409999999999999	0.001	No	2.584	-0.001	1.0	LatePress	-1	0.19	730.605	10	77	Target	Loss	True
731.605	0.3	Lose2	0.6409999999999999	0.001	No	2.584	-0.001	1.0	LatePress	-1	0.19	n/a	10	77	ButtonPress	Loss	True
731.615	0.51	Lose2	0.6409999999999999	n/a	No	2.584	n/a	n/a	LatePress	-1	n/a	n/a	10	77	Blank	Loss	True
732.114	1.45	Lose2	0.6409999999999999	n/a	No	2.584	n/a	5.0	LatePress	-1	0.001	731.115	10	77	Feedback	Loss	True
733.564	2.584	Lose2	0.6409999999999999	n/a	No	2.584	n/a	n/a	LatePress	-1	0.0	n/a	10	77	ISIslide	Loss	True
