onset	duration	cue_type	current_mean_accuracy	duration_error	is_hit	isi_adjusted	onset_delay	response	response_type	reward	rt	rt_time	total_reward	trial_number	trial_phase	trial_type	one_press
11.109	0.25	Control	1.0	0.0	Yes	2.941	0.009	n/a	GoodResponse	0	n/a	n/a	0	0	Cue	Neutral	True
11.359	3.85	Control	1.0	0.0	Yes	2.941	0.0	n/a	GoodResponse	0	n/a	n/a	0	0	Fixation	Neutral	True
15.208	0.4	Control	1.0	0.001	Yes	2.941	-0.001	1.0	GoodResponse	0	0.243	14.451	0	0	Target	Neutral	True
15.451	0.3	Control	1.0	0.001	Yes	2.941	-0.001	1.0	GoodResponse	0	0.243	n/a	0	0	ButtonPress	Neutral	True
15.608	0.3	Control	1.0	n/a	Yes	2.941	n/a	n/a	GoodResponse	0	n/a	n/a	0	0	Blank	Neutral	True
15.908	1.45	Control	1.0	n/a	Yes	2.941	n/a	5.0	GoodResponse	0	0.021	14.929	0	0	Feedback	Neutral	True
17.357	2.941	Control	1.0	n/a	Yes	2.941	n/a	n/a	GoodResponse	0	0.0	n/a	0	0	ISIslide	Neutral	True
20.339	0.25	Lose2	1.0	0.0	Yes	2.761	0.039	n/a	GoodResponse	0	n/a	n/a	0	1	Cue	AvoidedLoss	True
20.589	4.0	Lose2	1.0	0.0	Yes	2.761	0.0	n/a	GoodResponse	0	n/a	n/a	0	1	Fixation	AvoidedLoss	True
24.588	0.39	Lose2	1.0	0.001	Yes	2.761	-0.001	1.0	GoodResponse	0	0.212	23.8	0	1	Target	AvoidedLoss	True
24.8	0.3	Lose2	1.0	0.001	Yes	2.761	-0.001	1.0	GoodResponse	0	0.212	n/a	0	1	ButtonPress	AvoidedLoss	True
24.988	0.31	Lose2	1.0	n/a	Yes	2.761	n/a	n/a	GoodResponse	0	n/a	n/a	0	1	Blank	AvoidedLoss	True
25.288	1.45	Lose2	1.0	n/a	Yes	2.761	n/a	5.0	GoodResponse	0	0.007	24.295	0	1	Feedback	AvoidedLoss	True
26.737	2.761	Lose2	1.0	n/a	Yes	2.761	n/a	n/a	GoodResponse	0	0.0	n/a	0	1	ISIslide	AvoidedLoss	True
29.519	0.25	Control	1.0	0.0	Yes	2.581	0.019	n/a	GoodResponse	0	n/a	n/a	0	2	Cue	Neutral	True
29.769	4.1	Control	1.0	0.0	Yes	2.581	0.0	n/a	GoodResponse	0	n/a	n/a	0	2	Fixation	Neutral	True
33.868	0.38	Control	1.0	0.001	Yes	2.581	-0.001	1.0	GoodResponse	0	0.223	33.091	0	2	Target	Neutral	True
34.091	0.3	Control	1.0	0.001	Yes	2.581	-0.001	1.0	GoodResponse	0	0.223	n/a	0	2	ButtonPress	Neutral	True
34.251	0.32	Control	1.0	n/a	Yes	2.581	n/a	n/a	GoodResponse	0	n/a	n/a	0	2	Blank	Neutral	True
34.568	1.45	Control	1.0	n/a	Yes	2.581	n/a	5.0	GoodResponse	0	0.044	33.612	0	2	Feedback	Neutral	True
36.017	2.581	Control	1.0	n/a	Yes	2.581	n/a	n/a	GoodResponse	0	0.0	n/a	0	2	ISIslide	Neutral	True
38.633	0.25	Win2	1.0	0.0	Yes	2.817	0.033	n/a	GoodResponse	1	n/a	n/a	1	3	Cue	Win	True
38.883	3.95	Win2	1.0	0.0	Yes	2.817	0.0	n/a	GoodResponse	1	n/a	n/a	1	3	Fixation	Win	True
42.831	0.37	Win2	1.0	0.002	Yes	2.817	-0.002	1.0	GoodResponse	1	0.22	42.051	1	3	Target	Win	True
43.051	0.3	Win2	1.0	0.002	Yes	2.817	-0.002	1.0	GoodResponse	1	0.22	n/a	1	3	ButtonPress	Win	True
43.214	0.33	Win2	1.0	n/a	Yes	2.817	n/a	n/a	GoodResponse	1	n/a	n/a	1	3	Blank	Win	True
43.531	1.45	Win2	1.0	n/a	Yes	2.817	n/a	5.0	GoodResponse	1	0.008	42.539	1	3	Feedback	Win	True
44.981	2.817	Win2	1.0	n/a	Yes	2.817	n/a	n/a	GoodResponse	1	0.0	n/a	1	3	ISIslide	Win	True
47.829	0.25	Win2	1.0	0.001	Yes	3.271	0.029	n/a	GoodResponse	1	n/a	n/a	2	4	Cue	Win	True
48.079	4.0	Win2	1.0	0.0	Yes	3.271	0.0	n/a	GoodResponse	1	n/a	n/a	2	4	Fixation	Win	True
52.078	0.36	Win2	1.0	0.001	Yes	3.271	-0.001	1.0	GoodResponse	1	0.204	51.282	2	4	Target	Win	True
52.282	0.3	Win2	1.0	0.001	Yes	3.271	-0.001	1.0	GoodResponse	1	0.204	n/a	2	4	ButtonPress	Win	True
52.445	0.34	Win2	1.0	n/a	Yes	3.271	n/a	n/a	GoodResponse	1	n/a	n/a	2	4	Blank	Win	True
52.778	1.45	Win2	1.0	n/a	Yes	3.271	n/a	5.0	GoodResponse	1	0.028	51.806	2	4	Feedback	Win	True
54.227	3.271	Win2	1.0	n/a	Yes	3.271	n/a	n/a	GoodResponse	1	0.0	n/a	2	4	ISIslide	Win	True
57.526	0.25	Win2	1.0	0.0	Yes	2.774	0.026	n/a	GoodResponse	1	n/a	n/a	3	5	Cue	Win	True
57.776	4.0	Win2	1.0	0.0	Yes	2.774	0.0	n/a	GoodResponse	1	n/a	n/a	3	5	Fixation	Win	True
61.775	0.35	Win2	1.0	0.001	Yes	2.774	-0.001	1.0	GoodResponse	1	0.194	60.969	3	5	Target	Win	True
61.969	0.3	Win2	1.0	0.001	Yes	2.774	-0.001	1.0	GoodResponse	1	0.194	n/a	3	5	ButtonPress	Win	True
62.124	0.35	Win2	1.0	n/a	Yes	2.774	n/a	n/a	GoodResponse	1	n/a	n/a	3	5	Blank	Win	True
62.474	1.45	Win2	1.0	n/a	Yes	2.774	n/a	5.0	GoodResponse	1	0.04	61.514	3	5	Feedback	Win	True
63.924	2.774	Win2	1.0	n/a	Yes	2.774	n/a	n/a	GoodResponse	1	0.0	n/a	3	5	ISIslide	Win	True
66.723	0.25	Lose2	1.0	0.0	Yes	2.727	0.023	n/a	GoodResponse	0	n/a	n/a	3	6	Cue	AvoidedLoss	True
66.973	3.95	Lose2	1.0	0.0	Yes	2.727	0.0	n/a	GoodResponse	0	n/a	n/a	3	6	Fixation	AvoidedLoss	True
70.921	0.34	Lose2	1.0	0.002	Yes	2.727	-0.002	1.0	GoodResponse	0	0.252	70.173	3	6	Target	AvoidedLoss	True
71.173	0.3	Lose2	1.0	0.002	Yes	2.727	-0.002	1.0	GoodResponse	0	0.252	n/a	3	6	ButtonPress	AvoidedLoss	True
71.271	0.36	Lose2	1.0	n/a	Yes	2.727	n/a	n/a	GoodResponse	0	n/a	n/a	3	6	Blank	AvoidedLoss	True
71.621	1.45	Lose2	1.0	n/a	Yes	2.727	n/a	5.0	GoodResponse	0	0.015	70.636	3	6	Feedback	AvoidedLoss	True
73.071	2.727	Lose2	1.0	n/a	Yes	2.727	n/a	n/a	GoodResponse	0	0.0	n/a	3	6	ISIslide	AvoidedLoss	True
75.82	0.25	Lose2	1.0	0.0	Yes	4.03	0.02	n/a	GoodResponse	0	n/a	n/a	3	7	Cue	AvoidedLoss	True
76.069	4.05	Lose2	1.0	0.001	Yes	4.03	-0.001	n/a	GoodResponse	0	n/a	n/a	3	7	Fixation	AvoidedLoss	True
80.118	0.33	Lose2	1.0	0.002	Yes	4.03	-0.002	1.0	GoodResponse	0	0.226	79.344	3	7	Target	AvoidedLoss	True
80.344	0.3	Lose2	1.0	0.002	Yes	4.03	-0.002	1.0	GoodResponse	0	0.226	n/a	3	7	ButtonPress	AvoidedLoss	True
80.451	0.37	Lose2	1.0	n/a	Yes	4.03	n/a	n/a	GoodResponse	0	n/a	n/a	3	7	Blank	AvoidedLoss	True
80.818	1.45	Lose2	1.0	n/a	Yes	4.03	n/a	5.0	GoodResponse	0	0.036	79.854	3	7	Feedback	AvoidedLoss	True
82.267	4.03	Lose2	1.0	n/a	Yes	4.03	n/a	n/a	GoodResponse	0	0.0	n/a	3	7	ISIslide	AvoidedLoss	True
86.316	0.25	Lose2	1.0	0.0	Yes	3.034	0.016	n/a	GoodResponse	0	n/a	n/a	3	8	Cue	AvoidedLoss	True
86.566	3.95	Lose2	1.0	0.0	Yes	3.034	0.0	n/a	GoodResponse	0	n/a	n/a	3	8	Fixation	AvoidedLoss	True
90.514	0.32	Lose2	1.0	0.002	Yes	3.034	-0.002	1.0	GoodResponse	0	0.298	89.812	3	8	Target	AvoidedLoss	True
90.812	0.3	Lose2	1.0	0.002	Yes	3.034	-0.002	1.0	GoodResponse	0	0.298	n/a	3	8	ButtonPress	AvoidedLoss	True
90.848	0.38	Lose2	1.0	n/a	Yes	3.034	n/a	n/a	GoodResponse	0	n/a	n/a	3	8	Blank	AvoidedLoss	True
91.214	1.45	Lose2	1.0	n/a	Yes	3.034	n/a	5.0	GoodResponse	0	0.031	90.245	3	8	Feedback	AvoidedLoss	True
92.664	3.034	Lose2	1.0	n/a	Yes	3.034	n/a	n/a	GoodResponse	0	0.0	n/a	3	8	ISIslide	AvoidedLoss	True
95.729	0.25	Lose2	1.0	0.0	Yes	3.121	0.029	n/a	GoodResponse	0	n/a	n/a	3	9	Cue	AvoidedLoss	True
95.979	3.95	Lose2	1.0	0.0	Yes	3.121	0.0	n/a	GoodResponse	0	n/a	n/a	3	9	Fixation	AvoidedLoss	True
99.928	0.31	Lose2	1.0	0.001	Yes	3.121	-0.001	1.0	GoodResponse	0	0.254	99.182	3	9	Target	AvoidedLoss	True
100.182	0.3	Lose2	1.0	0.001	Yes	3.121	-0.001	1.0	GoodResponse	0	0.254	n/a	3	9	ButtonPress	AvoidedLoss	True
100.244	0.39	Lose2	1.0	n/a	Yes	3.121	n/a	n/a	GoodResponse	0	n/a	n/a	3	9	Blank	AvoidedLoss	True
100.627	1.45	Lose2	1.0	n/a	Yes	3.121	n/a	5.0	GoodResponse	0	0.033	99.66	3	9	Feedback	AvoidedLoss	True
102.077	3.121	Lose2	1.0	n/a	Yes	3.121	n/a	n/a	GoodResponse	0	0.0	n/a	3	9	ISIslide	AvoidedLoss	True
105.226	0.25	Control	1.0	0.0	Yes	3.274	0.026	n/a	GoodResponse	0	n/a	n/a	3	10	Cue	Neutral	True
105.476	4.0	Control	1.0	0.0	Yes	3.274	0.0	n/a	GoodResponse	0	n/a	n/a	3	10	Fixation	Neutral	True
109.474	0.3	Control	1.0	0.002	Yes	3.274	-0.002	1.0	GoodResponse	0	0.221	108.695	3	10	Target	Neutral	True
109.695	0.3	Control	1.0	0.002	Yes	3.274	-0.002	1.0	GoodResponse	0	0.221	n/a	3	10	ButtonPress	Neutral	True
109.774	0.4	Control	1.0	n/a	Yes	3.274	n/a	n/a	GoodResponse	0	n/a	n/a	3	10	Blank	Neutral	True
110.174	1.45	Control	1.0	n/a	Yes	3.274	n/a	5.0	GoodResponse	0	0.047	109.221	3	10	Feedback	Neutral	True
111.623	3.274	Control	1.0	n/a	Yes	3.274	n/a	n/a	GoodResponse	0	0.0	n/a	3	10	ISIslide	Neutral	True
114.922	0.25	Lose2	1.0	0.0	Yes	2.728	0.022	n/a	GoodResponse	0	n/a	n/a	3	11	Cue	AvoidedLoss	True
115.172	4.05	Lose2	1.0	0.0	Yes	2.728	0.0	n/a	GoodResponse	0	n/a	n/a	3	11	Fixation	AvoidedLoss	True
119.221	0.29	Lose2	1.0	0.001	Yes	2.728	-0.001	1.0	GoodResponse	0	0.193	118.414	3	11	Target	AvoidedLoss	True
119.414	0.3	Lose2	1.0	0.001	Yes	2.728	-0.001	1.0	GoodResponse	0	0.193	n/a	3	11	ButtonPress	AvoidedLoss	True
119.521	0.41	Lose2	1.0	n/a	Yes	2.728	n/a	n/a	GoodResponse	0	n/a	n/a	3	11	Blank	AvoidedLoss	True
119.921	1.45	Lose2	1.0	n/a	Yes	2.728	n/a	5.0	GoodResponse	0	0.006	118.927	3	11	Feedback	AvoidedLoss	True
121.37	2.728	Lose2	1.0	n/a	Yes	2.728	n/a	n/a	GoodResponse	0	0.0	n/a	3	11	ISIslide	AvoidedLoss	True
124.119	0.25	Control	1.0	0.0	Yes	2.981	0.019	n/a	GoodResponse	0	n/a	n/a	3	12	Cue	Neutral	True
124.369	3.9	Control	1.0	0.0	Yes	2.981	0.0	n/a	GoodResponse	0	n/a	n/a	3	12	Fixation	Neutral	True
128.268	0.28	Control	1.0	0.001	Yes	2.981	-0.001	1.0	GoodResponse	0	0.244	127.512	3	12	Target	Neutral	True
128.512	0.3	Control	1.0	0.001	Yes	2.981	-0.001	1.0	GoodResponse	0	0.244	n/a	3	12	ButtonPress	Neutral	True
128.551	0.42	Control	1.0	n/a	Yes	2.981	n/a	n/a	GoodResponse	0	n/a	n/a	3	12	Blank	Neutral	True
128.967	1.45	Control	1.0	n/a	Yes	2.981	n/a	5.0	GoodResponse	0	0.033	128.0	3	12	Feedback	Neutral	True
130.417	2.981	Control	1.0	n/a	Yes	2.981	n/a	n/a	GoodResponse	0	0.0	n/a	3	12	ISIslide	Neutral	True
133.416	0.25	Control	1.0	0.0	Yes	2.784	0.016	n/a	GoodResponse	0	n/a	n/a	3	13	Cue	Neutral	True
133.666	4.0	Control	1.0	0.0	Yes	2.784	0.0	n/a	GoodResponse	0	n/a	n/a	3	13	Fixation	Neutral	True
137.664	0.27	Control	1.0	0.002	Yes	2.784	-0.002	1.0	GoodResponse	0	0.216	136.88	3	13	Target	Neutral	True
137.88	0.3	Control	1.0	0.002	Yes	2.784	-0.002	1.0	GoodResponse	0	0.216	n/a	3	13	ButtonPress	Neutral	True
137.947	0.43	Control	1.0	n/a	Yes	2.784	n/a	n/a	GoodResponse	0	n/a	n/a	3	13	Blank	Neutral	True
138.364	1.45	Control	1.0	n/a	Yes	2.784	n/a	5.0	GoodResponse	0	0.002	137.366	3	13	Feedback	Neutral	True
139.813	2.784	Control	1.0	n/a	Yes	2.784	n/a	n/a	GoodResponse	0	0.0	n/a	3	13	ISIslide	Neutral	True
142.612	0.25	Win2	1.0	0.001	Yes	2.688	0.012	n/a	GoodResponse	1	n/a	n/a	4	14	Cue	Win	True
142.862	4.1	Win2	1.0	0.0	Yes	2.688	0.0	n/a	GoodResponse	1	n/a	n/a	4	14	Fixation	Win	True
146.961	0.26	Win2	1.0	0.001	Yes	2.688	-0.001	1.0	GoodResponse	1	0.203	146.164	4	14	Target	Win	True
147.164	0.3	Win2	1.0	0.001	Yes	2.688	-0.001	1.0	GoodResponse	1	0.203	n/a	4	14	ButtonPress	Win	True
147.227	0.44	Win2	1.0	n/a	Yes	2.688	n/a	n/a	GoodResponse	1	n/a	n/a	4	14	Blank	Win	True
147.661	1.45	Win2	1.0	n/a	Yes	2.688	n/a	5.0	GoodResponse	1	0.023	146.684	4	14	Feedback	Win	True
149.11	2.688	Win2	1.0	n/a	Yes	2.688	n/a	n/a	GoodResponse	1	0.0	n/a	4	14	ISIslide	Win	True
151.826	0.25	Control	1.0	0.0	Yes	2.974	0.026	n/a	GoodResponse	0	n/a	n/a	4	15	Cue	Neutral	True
152.076	4.0	Control	1.0	0.0	Yes	2.974	0.0	n/a	GoodResponse	0	n/a	n/a	4	15	Fixation	Neutral	True
156.074	0.25	Control	1.0	0.002	Yes	2.974	-0.002	1.0	GoodResponse	0	0.236	155.31	4	15	Target	Neutral	True
156.31	0.3	Control	1.0	0.002	Yes	2.974	-0.002	1.0	GoodResponse	0	0.236	n/a	4	15	ButtonPress	Neutral	True
156.324	0.45	Control	1.0	n/a	Yes	2.974	n/a	n/a	GoodResponse	0	n/a	n/a	4	15	Blank	Neutral	True
156.774	1.45	Control	1.0	n/a	Yes	2.974	n/a	5.0	GoodResponse	0	0.031	155.805	4	15	Feedback	Neutral	True
158.224	2.974	Control	1.0	n/a	Yes	2.974	n/a	n/a	GoodResponse	0	0.0	n/a	4	15	ISIslide	Neutral	True
161.222	0.25	Win2	1.0	0.001	Yes	2.878	0.022	n/a	GoodResponse	1	n/a	n/a	5	16	Cue	Win	True
161.472	4.0	Win2	1.0	0.0	Yes	2.878	0.0	n/a	GoodResponse	1	n/a	n/a	5	16	Fixation	Win	True
165.471	0.24	Win2	1.0	0.001	Yes	2.878	-0.001	1.0	GoodResponse	1	0.219	164.69	5	16	Target	Win	True
165.69	0.3	Win2	1.0	0.001	Yes	2.878	-0.001	1.0	GoodResponse	1	0.219	n/a	5	16	ButtonPress	Win	True
165.721	0.46	Win2	1.0	n/a	Yes	2.878	n/a	n/a	GoodResponse	1	n/a	n/a	5	16	Blank	Win	True
166.171	1.45	Win2	1.0	n/a	Yes	2.878	n/a	5.0	GoodResponse	1	0.0	165.171	5	16	Feedback	Win	True
167.62	2.878	Win2	1.0	n/a	Yes	2.878	n/a	n/a	GoodResponse	1	0.0	n/a	5	16	ISIslide	Win	True
170.519	0.25	Lose2	1.0	0.0	Yes	2.731	0.019	n/a	GoodResponse	0	n/a	n/a	5	17	Cue	AvoidedLoss	True
170.769	3.95	Lose2	1.0	0.0	Yes	2.731	0.0	n/a	GoodResponse	0	n/a	n/a	5	17	Fixation	AvoidedLoss	True
174.718	0.23	Lose2	1.0	0.001	Yes	2.731	-0.001	1.0	GoodResponse	0	0.203	173.921	5	17	Target	AvoidedLoss	True
174.921	0.3	Lose2	1.0	0.001	Yes	2.731	-0.001	1.0	GoodResponse	0	0.203	n/a	5	17	ButtonPress	AvoidedLoss	True
174.951	0.47	Lose2	1.0	n/a	Yes	2.731	n/a	n/a	GoodResponse	0	n/a	n/a	5	17	Blank	AvoidedLoss	True
175.417	1.45	Lose2	1.0	n/a	Yes	2.731	n/a	5.0	GoodResponse	0	0.022	174.439	5	17	Feedback	AvoidedLoss	True
176.867	2.731	Lose2	1.0	n/a	Yes	2.731	n/a	n/a	GoodResponse	0	0.0	n/a	5	17	ISIslide	AvoidedLoss	True
179.616	0.25	Lose2	1.0	0.0	Yes	2.734	0.016	n/a	GoodResponse	0	n/a	n/a	5	18	Cue	AvoidedLoss	True
179.866	4.05	Lose2	1.0	0.0	Yes	2.734	0.0	n/a	GoodResponse	0	n/a	n/a	5	18	Fixation	AvoidedLoss	True
183.914	0.22	Lose2	1.0	0.002	Yes	2.734	-0.002	1.0	GoodResponse	0	0.208	183.122	5	18	Target	AvoidedLoss	True
184.122	0.3	Lose2	1.0	0.002	Yes	2.734	-0.002	1.0	GoodResponse	0	0.208	n/a	5	18	ButtonPress	AvoidedLoss	True
184.148	0.48	Lose2	1.0	n/a	Yes	2.734	n/a	n/a	GoodResponse	0	n/a	n/a	5	18	Blank	AvoidedLoss	True
184.614	1.45	Lose2	1.0	n/a	Yes	2.734	n/a	5.0	GoodResponse	0	0.045	183.659	5	18	Feedback	AvoidedLoss	True
186.064	2.734	Lose2	1.0	n/a	Yes	2.734	n/a	n/a	GoodResponse	0	0.0	n/a	5	18	ISIslide	AvoidedLoss	True
188.813	0.25	Control	1.0	0.0	Yes	2.937	0.013	n/a	GoodResponse	0	n/a	n/a	5	19	Cue	Neutral	True
189.063	3.95	Control	1.0	0.0	Yes	2.937	0.0	n/a	GoodResponse	0	n/a	n/a	5	19	Fixation	Neutral	True
193.011	0.21	Control	1.0	0.002	Yes	2.937	-0.002	1.0	GoodResponse	0	0.193	192.204	5	19	Target	Neutral	True
193.204	0.3	Control	1.0	0.002	Yes	2.937	-0.002	1.0	GoodResponse	0	0.193	n/a	5	19	ButtonPress	Neutral	True
193.228	0.49	Control	1.0	n/a	Yes	2.937	n/a	n/a	GoodResponse	0	n/a	n/a	5	19	Blank	Neutral	True
193.711	1.45	Control	1.0	n/a	Yes	2.937	n/a	5.0	GoodResponse	0	0.02	192.731	5	19	Feedback	Neutral	True
195.16	2.937	Control	1.0	n/a	Yes	2.937	n/a	n/a	GoodResponse	0	0.0	n/a	5	19	ISIslide	Neutral	True
198.126	0.25	Control	1.0	0.0	Yes	2.624	0.026	n/a	GoodResponse	0	n/a	n/a	5	20	Cue	Neutral	True
198.376	4.05	Control	1.0	0.0	Yes	2.624	0.0	n/a	GoodResponse	0	n/a	n/a	5	20	Fixation	Neutral	True
202.424	0.2	Control	1.0	0.002	Yes	2.624	-0.002	1.0	GoodResponse	0	0.186	201.61	5	20	Target	Neutral	True
202.61	0.3	Control	1.0	0.002	Yes	2.624	-0.002	1.0	GoodResponse	0	0.186	n/a	5	20	ButtonPress	Neutral	True
202.624	0.5	Control	1.0	n/a	Yes	2.624	n/a	n/a	GoodResponse	0	n/a	n/a	5	20	Blank	Neutral	True
203.124	1.45	Control	1.0	n/a	Yes	2.624	n/a	5.0	GoodResponse	0	0.022	202.146	5	20	Feedback	Neutral	True
204.574	2.624	Control	1.0	n/a	Yes	2.624	n/a	n/a	GoodResponse	0	0.0	n/a	5	20	ISIslide	Neutral	True
207.223	0.25	Control	0.9545	0.0	No	2.777	0.023	n/a	LatePress	0	n/a	n/a	5	21	Cue	Neutral	True
207.473	4.1	Control	0.9545	0.0	No	2.777	0.0	n/a	LatePress	0	n/a	n/a	5	21	Fixation	Neutral	True
211.571	0.19	Control	0.9545	0.002	No	2.777	-0.002	1.0	LatePress	0	0.199	210.77	5	21	Target	Neutral	True
211.77	0.3	Control	0.9545	0.002	No	2.777	-0.002	1.0	LatePress	0	0.199	n/a	5	21	ButtonPress	Neutral	True
211.771	0.51	Control	0.9545	n/a	No	2.777	n/a	n/a	LatePress	0	n/a	n/a	5	21	Blank	Neutral	True
212.271	1.45	Control	0.9545	n/a	No	2.777	n/a	5.0	LatePress	0	0.046	211.317	5	21	Feedback	Neutral	True
213.72	2.777	Control	0.9545	n/a	No	2.777	n/a	n/a	LatePress	0	0.0	n/a	5	21	ISIslide	Neutral	True
216.519	0.25	Control	0.9129999999999999	0.001	No	2.781	0.019	n/a	NoResponse	0	n/a	n/a	5	22	Cue	Neutral	True
216.769	4.0	Control	0.9129999999999999	0.0	No	2.781	0.0	n/a	NoResponse	0	n/a	n/a	5	22	Fixation	Neutral	True
220.768	0.18	Control	0.9129999999999999	0.001	No	2.781	-0.001	1.0	NoResponse	0	0.217	219.985	5	22	Target	Neutral	True
220.951	0.52	Control	0.9129999999999999	n/a	No	2.781	n/a	n/a	NoResponse	0	n/a	n/a	5	22	Blank	Neutral	True
220.985	0.3	Control	0.9129999999999999	0.001	No	2.781	-0.001	1.0	NoResponse	0	0.217	n/a	5	22	ButtonPress	Neutral	True
221.468	1.45	Control	0.9129999999999999	n/a	No	2.781	n/a	5.0	NoResponse	0	0.019	220.487	5	22	Feedback	Neutral	True
222.917	2.781	Control	0.9129999999999999	n/a	No	2.781	n/a	n/a	NoResponse	0	0.0	n/a	5	22	ISIslide	Neutral	True
225.716	0.25	Control	0.875	0.0	No	2.784	0.016	n/a	NoResponse	0	n/a	n/a	5	23	Cue	Neutral	True
225.966	3.9	Control	0.875	0.0	No	2.784	0.0	n/a	NoResponse	0	n/a	n/a	5	23	Fixation	Neutral	True
229.865	0.17	Control	0.875	0.001	No	2.784	-0.001	1.0	NoResponse	0	0.236	229.101	5	23	Target	Neutral	True
230.048	0.53	Control	0.875	n/a	No	2.784	n/a	n/a	NoResponse	0	n/a	n/a	5	23	Blank	Neutral	True
230.101	0.3	Control	0.875	0.001	No	2.784	-0.001	1.0	NoResponse	0	0.236	n/a	5	23	ButtonPress	Neutral	True
230.564	1.45	Control	0.875	n/a	No	2.784	n/a	5.0	NoResponse	0	0.045	229.609	5	23	Feedback	Neutral	True
232.014	2.784	Control	0.875	n/a	No	2.784	n/a	n/a	NoResponse	0	0.0	n/a	5	23	ISIslide	Neutral	True
234.83	0.25	Win2	0.84	0.0	No	3.12	0.03	n/a	NoResponse	0	n/a	n/a	5	24	Cue	MissedWin	True
235.08	3.95	Win2	0.84	0.0	No	3.12	0.0	1.0	NoResponse	0	3.828	237.908	5	24	Fixation	MissedWin	True
238.908	0.3	Win2	0.84	0.0	No	3.12	0.0	1.0	NoResponse	0	3.828	n/a	5	24	ButtonPress	MissedWin	True
239.028	0.16	Win2	0.84	0.002	No	3.12	-0.002	n/a	NoResponse	0	n/a	n/a	5	24	Target	MissedWin	True
239.195	0.54	Win2	0.84	n/a	No	3.12	n/a	n/a	NoResponse	0	n/a	n/a	5	24	Blank	MissedWin	True
239.728	1.45	Win2	0.84	n/a	No	3.12	n/a	5.0	NoResponse	0	0.007	238.735	5	24	Feedback	MissedWin	True
241.177	3.12	Win2	0.84	n/a	No	3.12	n/a	n/a	NoResponse	0	0.0	n/a	5	24	ISIslide	MissedWin	True
244.326	0.25	Win2	0.8077	0.0	No	3.074	0.026	n/a	NoResponse	0	n/a	n/a	5	25	Cue	MissedWin	True
244.576	4.0	Win2	0.8077	0.0	No	3.074	0.0	n/a	NoResponse	0	n/a	n/a	5	25	Fixation	MissedWin	True
248.575	0.15	Win2	0.8077	0.001	No	3.074	-0.001	1.0	NoResponse	0	0.232	247.807	5	25	Target	MissedWin	True
248.725	0.55	Win2	0.8077	n/a	No	3.074	n/a	n/a	NoResponse	0	n/a	n/a	5	25	Blank	MissedWin	True
248.807	0.3	Win2	0.8077	0.001	No	3.074	-0.001	1.0	NoResponse	0	0.232	n/a	5	25	ButtonPress	MissedWin	True
249.275	1.45	Win2	0.8077	n/a	No	3.074	n/a	5.0	NoResponse	0	0.017	248.292	5	25	Feedback	MissedWin	True
250.724	3.074	Win2	0.8077	n/a	No	3.074	n/a	n/a	NoResponse	0	0.0	n/a	5	25	ISIslide	MissedWin	True
253.823	0.25	Win2	0.7778	0.0	No	2.927	0.023	n/a	NoResponse	0	n/a	n/a	5	26	Cue	MissedWin	True
254.073	3.95	Win2	0.7778	0.0	No	2.927	0.0	n/a	NoResponse	0	n/a	n/a	5	26	Fixation	MissedWin	True
258.021	0.15	Win2	0.7778	0.002	No	2.927	-0.002	1.0	NoResponse	0	0.231	257.252	5	26	Target	MissedWin	True
258.171	0.55	Win2	0.7778	n/a	No	2.927	n/a	n/a	NoResponse	0	n/a	n/a	5	26	Blank	MissedWin	True
258.252	0.3	Win2	0.7778	0.002	No	2.927	-0.002	1.0	NoResponse	0	0.231	n/a	5	26	ButtonPress	MissedWin	True
258.721	1.45	Win2	0.7778	n/a	No	2.927	n/a	5.0	NoResponse	0	0.034	257.755	5	26	Feedback	MissedWin	True
260.171	2.927	Win2	0.7778	n/a	No	2.927	n/a	n/a	NoResponse	0	0.0	n/a	5	26	ISIslide	MissedWin	True
263.12	0.25	Lose2	0.75	0.0	No	2.83	0.02	n/a	NoResponse	-1	n/a	n/a	4	27	Cue	Loss	True
263.369	4.05	Lose2	0.75	0.001	No	2.83	-0.001	n/a	NoResponse	-1	n/a	n/a	4	27	Fixation	Loss	True
267.418	0.15	Lose2	0.75	0.002	No	2.83	-0.002	1.0	NoResponse	-1	0.161	266.579	4	27	Target	Loss	True
267.568	0.55	Lose2	0.75	n/a	No	2.83	n/a	n/a	NoResponse	-1	n/a	n/a	4	27	Blank	Loss	True
267.579	0.3	Lose2	0.75	0.002	No	2.83	-0.002	1.0	NoResponse	-1	0.161	n/a	4	27	ButtonPress	Loss	True
268.118	1.45	Lose2	0.75	n/a	No	2.83	n/a	5.0	NoResponse	-1	0.008	267.126	4	27	Feedback	Loss	True
269.567	2.83	Lose2	0.75	n/a	No	2.83	n/a	n/a	NoResponse	-1	0.0	n/a	4	27	ISIslide	Loss	True
272.416	0.25	Control	0.7241	0.0	No	2.834	0.016	n/a	NoResponse	0	n/a	n/a	4	28	Cue	Neutral	False
272.666	4.05	Control	0.7241	0.0	No	2.834	0.0	1.0	NoResponse	0	3.924	275.59	4	28	Fixation	Neutral	False
276.59	0.3	Control	0.7241	0.0	No	2.834	0.0	1.0	NoResponse	0	3.924	n/a	4	28	ButtonPress	Neutral	False
276.715	0.15	Control	0.7241	0.001	No	2.834	-0.001	1.0	NoResponse	0	0.471	276.186	4	28	Target	Neutral	False
276.865	0.55	Control	0.7241	n/a	No	2.834	n/a	n/a	NoResponse	0	n/a	n/a	4	28	Blank	Neutral	False
277.186	0.3	Control	0.7241	0.001	No	2.834	-0.001	1.0	NoResponse	0	0.471	n/a	4	28	ButtonPress	Neutral	False
277.414	1.45	Control	0.7241	n/a	No	2.834	n/a	5.0	NoResponse	0	0.023	276.437	4	28	Feedback	Neutral	False
278.864	2.834	Control	0.7241	n/a	No	2.834	n/a	n/a	NoResponse	0	0.0	n/a	4	28	ISIslide	Neutral	False
281.73	0.25	Lose2	0.7	0.0	No	2.82	0.03	n/a	NoResponse	-1	n/a	n/a	3	29	Cue	Loss	True
281.98	3.95	Lose2	0.7	0.0	No	2.82	0.0	n/a	NoResponse	-1	n/a	n/a	3	29	Fixation	Loss	True
285.928	0.15	Lose2	0.7	0.002	No	2.82	-0.002	1.0	NoResponse	-1	0.229	285.157	3	29	Target	Loss	True
286.078	0.55	Lose2	0.7	n/a	No	2.82	n/a	n/a	NoResponse	-1	n/a	n/a	3	29	Blank	Loss	True
286.157	0.3	Lose2	0.7	0.002	No	2.82	-0.002	1.0	NoResponse	-1	0.229	n/a	3	29	ButtonPress	Loss	True
286.628	1.45	Lose2	0.7	n/a	No	2.82	n/a	5.0	NoResponse	-1	0.029	285.657	3	29	Feedback	Loss	True
288.077	2.82	Lose2	0.7	n/a	No	2.82	n/a	n/a	NoResponse	-1	0.0	n/a	3	29	ISIslide	Loss	True
290.926	0.25	Win2	0.6774	0.0	No	2.774	0.026	n/a	NoResponse	0	n/a	n/a	3	30	Cue	MissedWin	True
291.176	3.9	Win2	0.6774	0.0	No	2.774	0.0	n/a	NoResponse	0	n/a	n/a	3	30	Fixation	MissedWin	True
295.075	0.15	Win2	0.6774	0.001	No	2.774	-0.001	1.0	NoResponse	0	0.206	294.281	3	30	Target	MissedWin	True
295.225	0.55	Win2	0.6774	n/a	No	2.774	n/a	n/a	NoResponse	0	n/a	n/a	3	30	Blank	MissedWin	True
295.281	0.3	Win2	0.6774	0.001	No	2.774	-0.001	1.0	NoResponse	0	0.206	n/a	3	30	ButtonPress	MissedWin	True
295.775	1.45	Win2	0.6774	n/a	No	2.774	n/a	5.0	NoResponse	0	0.005	294.78	3	30	Feedback	MissedWin	True
297.224	2.774	Win2	0.6774	n/a	No	2.774	n/a	n/a	NoResponse	0	0.0	n/a	3	30	ISIslide	MissedWin	True
300.023	0.25	Lose2	0.6562	0.0	No	2.827	0.023	n/a	NoResponse	-1	n/a	n/a	2	31	Cue	Loss	False
300.273	4.05	Lose2	0.6562	0.0	No	2.827	0.0	1.0	NoResponse	-1	3.886	303.159	2	31	Fixation	Loss	False
304.159	0.3	Lose2	0.6562	0.0	No	2.827	0.0	1.0	NoResponse	-1	3.886	n/a	2	31	ButtonPress	Loss	False
304.322	0.15	Lose2	0.6562	0.001	No	2.827	-0.001	1.0	NoResponse	-1	0.252	303.574	2	31	Target	Loss	False
304.472	0.55	Lose2	0.6562	n/a	No	2.827	n/a	n/a	NoResponse	-1	n/a	n/a	2	31	Blank	Loss	False
304.574	0.3	Lose2	0.6562	0.001	No	2.827	-0.001	1.0	NoResponse	-1	0.252	n/a	2	31	ButtonPress	Loss	False
305.021	1.45	Lose2	0.6562	n/a	No	2.827	n/a	5.0	NoResponse	-1	0.026	304.047	2	31	Feedback	Loss	False
306.471	2.827	Lose2	0.6562	n/a	No	2.827	n/a	n/a	NoResponse	-1	0.0	n/a	2	31	ISIslide	Loss	False
309.32	0.25	Lose2	0.6364	0.0	No	2.63	0.02	n/a	NoResponse	-1	n/a	n/a	1	32	Cue	Loss	True
309.57	4.15	Lose2	0.6364	0.0	No	2.63	0.0	n/a	NoResponse	-1	n/a	n/a	1	32	Fixation	Loss	True
313.718	0.15	Lose2	0.6364	0.002	No	2.63	-0.002	1.0	NoResponse	-1	0.204	312.922	1	32	Target	Loss	True
313.868	0.55	Lose2	0.6364	n/a	No	2.63	n/a	n/a	NoResponse	-1	n/a	n/a	1	32	Blank	Loss	True
313.922	0.3	Lose2	0.6364	0.002	No	2.63	-0.002	1.0	NoResponse	-1	0.204	n/a	1	32	ButtonPress	Loss	True
314.418	1.45	Lose2	0.6364	n/a	No	2.63	n/a	5.0	NoResponse	-1	0.043	313.461	1	32	Feedback	Loss	True
315.867	2.63	Lose2	0.6364	n/a	No	2.63	n/a	n/a	NoResponse	-1	0.0	n/a	1	32	ISIslide	Loss	True
318.517	0.25	Win2	0.6175999999999999	0.0	No	2.683	0.017	n/a	NoResponse	0	n/a	n/a	1	33	Cue	MissedWin	True
318.766	4.0	Win2	0.6175999999999999	0.001	No	2.683	-0.001	n/a	NoResponse	0	n/a	n/a	1	33	Fixation	MissedWin	True
322.765	0.16	Win2	0.6175999999999999	0.002	No	2.683	-0.002	1.0	NoResponse	0	0.212	321.977	1	33	Target	MissedWin	True
322.932	0.54	Win2	0.6175999999999999	n/a	No	2.683	n/a	n/a	NoResponse	0	n/a	n/a	1	33	Blank	MissedWin	True
322.977	0.3	Win2	0.6175999999999999	0.002	No	2.683	-0.002	1.0	NoResponse	0	0.212	n/a	1	33	ButtonPress	MissedWin	True
323.465	1.45	Win2	0.6175999999999999	n/a	No	2.683	n/a	5.0	NoResponse	0	0.021	322.486	1	33	Feedback	MissedWin	True
324.914	2.683	Win2	0.6175999999999999	n/a	No	2.683	n/a	n/a	NoResponse	0	0.0	n/a	1	33	ISIslide	MissedWin	True
327.63	0.25	Lose2	0.6	0.0	No	2.62	0.03	n/a	NoResponse	-1	n/a	n/a	0	34	Cue	Loss	True
327.88	4.05	Lose2	0.6	0.0	No	2.62	0.0	n/a	NoResponse	-1	n/a	n/a	0	34	Fixation	Loss	True
331.928	0.17	Lose2	0.6	0.002	No	2.62	-0.002	1.0	NoResponse	-1	0.205	331.133	0	34	Target	Loss	True
332.112	0.53	Lose2	0.6	n/a	No	2.62	n/a	n/a	NoResponse	-1	n/a	n/a	0	34	Blank	Loss	True
332.133	0.3	Lose2	0.6	0.002	No	2.62	-0.002	1.0	NoResponse	-1	0.205	n/a	0	34	ButtonPress	Loss	True
332.628	1.45	Lose2	0.6	n/a	No	2.62	n/a	5.0	NoResponse	-1	0.029	331.657	0	34	Feedback	Loss	True
334.078	2.62	Lose2	0.6	n/a	No	2.62	n/a	n/a	NoResponse	-1	0.0	n/a	0	34	ISIslide	Loss	True
336.727	0.25	Lose2	0.5832999999999999	0.0	No	2.673	0.027	n/a	NoResponse	-1	n/a	n/a	-1	35	Cue	Loss	True
336.977	4.0	Lose2	0.5832999999999999	0.0	No	2.673	0.0	n/a	NoResponse	-1	n/a	n/a	-1	35	Fixation	Loss	True
340.975	0.18	Lose2	0.5832999999999999	0.002	No	2.673	-0.002	1.0	NoResponse	-1	0.213	340.188	-1	35	Target	Loss	True
341.158	0.52	Lose2	0.5832999999999999	n/a	No	2.673	n/a	n/a	NoResponse	-1	n/a	n/a	-1	35	Blank	Loss	True
341.188	0.3	Lose2	0.5832999999999999	0.002	No	2.673	-0.002	1.0	NoResponse	-1	0.213	n/a	-1	35	ButtonPress	Loss	True
341.675	1.45	Lose2	0.5832999999999999	n/a	No	2.673	n/a	5.0	NoResponse	-1	0.007	340.682	-1	35	Feedback	Loss	True
343.124	2.673	Lose2	0.5832999999999999	n/a	No	2.673	n/a	n/a	NoResponse	-1	0.0	n/a	-1	35	ISIslide	Loss	True
345.823	0.25	Control	0.5676	0.001	No	2.677	0.023	n/a	LatePress	0	n/a	n/a	-1	36	Cue	Neutral	True
346.073	4.0	Control	0.5676	0.001	No	2.677	0.0	n/a	LatePress	0	n/a	n/a	-1	36	Fixation	Neutral	True
350.072	0.19	Control	0.5676	0.001	No	2.677	-0.001	1.0	LatePress	0	0.198	349.27	-1	36	Target	Neutral	True
350.27	0.3	Control	0.5676	0.001	No	2.677	-0.001	1.0	LatePress	0	0.198	n/a	-1	36	ButtonPress	Neutral	True
350.272	0.51	Control	0.5676	n/a	No	2.677	n/a	n/a	LatePress	0	n/a	n/a	-1	36	Blank	Neutral	True
350.772	1.45	Control	0.5676	n/a	No	2.677	n/a	5.0	LatePress	0	0.03	349.802	-1	36	Feedback	Neutral	True
352.221	2.677	Control	0.5676	n/a	No	2.677	n/a	n/a	LatePress	0	0.0	n/a	-1	36	ISIslide	Neutral	True
354.92	0.25	Win2	0.5526	0.0	No	2.88	0.02	n/a	PrematurePress	0	n/a	n/a	-1	37	Cue	MissedWin	True
355.17	4.0	Win2	0.5526	0.0	No	2.88	0.0	n/a	PrematurePress	0	n/a	n/a	-1	37	Fixation	MissedWin	True
359.169	0.2	Win2	0.5526	0.001	No	2.88	-0.001	1.0	PrematurePress	0	0.063	358.232	-1	37	Target	MissedWin	True
359.232	0.3	Win2	0.5526	0.001	No	2.88	-0.001	1.0	PrematurePress	0	0.063	n/a	-1	37	ButtonPress	MissedWin	True
359.369	0.5	Win2	0.5526	n/a	No	2.88	n/a	n/a	PrematurePress	0	n/a	n/a	-1	37	Blank	MissedWin	True
359.868	1.45	Win2	0.5526	n/a	No	2.88	n/a	5.0	PrematurePress	0	0.007	358.875	-1	37	Feedback	MissedWin	True
361.318	2.88	Win2	0.5526	n/a	No	2.88	n/a	n/a	PrematurePress	0	0.0	n/a	-1	37	ISIslide	MissedWin	True
364.217	0.25	Lose2	0.5640999999999999	0.0	Yes	2.833	0.017	n/a	GoodResponse	0	n/a	n/a	-1	38	Cue	AvoidedLoss	True
364.467	3.95	Lose2	0.5640999999999999	0.0	Yes	2.833	0.0	n/a	GoodResponse	0	n/a	n/a	-1	38	Fixation	AvoidedLoss	True
368.415	0.21	Lose2	0.5640999999999999	0.002	Yes	2.833	-0.002	1.0	GoodResponse	0	0.2	367.615	-1	38	Target	AvoidedLoss	True
368.615	0.3	Lose2	0.5640999999999999	0.002	Yes	2.833	-0.002	1.0	GoodResponse	0	0.2	n/a	-1	38	ButtonPress	AvoidedLoss	True
368.632	0.49	Lose2	0.5640999999999999	n/a	Yes	2.833	n/a	n/a	GoodResponse	0	n/a	n/a	-1	38	Blank	AvoidedLoss	True
369.115	1.45	Lose2	0.5640999999999999	n/a	Yes	2.833	n/a	5.0	GoodResponse	0	0.029	368.144	-1	38	Feedback	AvoidedLoss	True
370.565	2.833	Lose2	0.5640999999999999	n/a	Yes	2.833	n/a	n/a	GoodResponse	0	0.0	n/a	-1	38	ISIslide	AvoidedLoss	True
373.414	0.25	Win2	0.575	0.0	Yes	2.986	0.014	n/a	GoodResponse	1	n/a	n/a	0	39	Cue	Win	True
373.664	4.1	Win2	0.575	0.0	Yes	2.986	0.0	n/a	GoodResponse	1	n/a	n/a	0	39	Fixation	Win	True
377.762	0.22	Win2	0.575	0.002	Yes	2.986	-0.002	1.0	GoodResponse	1	0.193	376.955	0	39	Target	Win	True
377.955	0.3	Win2	0.575	0.002	Yes	2.986	-0.002	1.0	GoodResponse	1	0.193	n/a	0	39	ButtonPress	Win	True
377.995	0.48	Win2	0.575	n/a	Yes	2.986	n/a	n/a	GoodResponse	1	n/a	n/a	0	39	Blank	Win	True
378.462	1.45	Win2	0.575	n/a	Yes	2.986	n/a	5.0	GoodResponse	1	0.047	377.509	0	39	Feedback	Win	True
379.911	2.986	Win2	0.575	n/a	Yes	2.986	n/a	n/a	GoodResponse	1	0.0	n/a	0	39	ISIslide	Win	True
382.927	0.25	Win2	0.5854	0.0	Yes	2.723	0.027	n/a	GoodResponse	1	n/a	n/a	1	40	Cue	Win	True
383.177	3.95	Win2	0.5854	0.0	Yes	2.723	0.0	n/a	GoodResponse	1	n/a	n/a	1	40	Fixation	Win	True
387.125	0.23	Win2	0.5854	0.002	Yes	2.723	-0.002	1.0	GoodResponse	1	0.192	386.317	1	40	Target	Win	True
387.317	0.3	Win2	0.5854	0.002	Yes	2.723	-0.002	1.0	GoodResponse	1	0.192	n/a	1	40	ButtonPress	Win	True
387.359	0.47	Win2	0.5854	n/a	Yes	2.723	n/a	n/a	GoodResponse	1	n/a	n/a	1	40	Blank	Win	True
387.825	1.45	Win2	0.5854	n/a	Yes	2.723	n/a	5.0	GoodResponse	1	0.001	386.826	1	40	Feedback	Win	True
389.275	2.723	Win2	0.5854	n/a	Yes	2.723	n/a	n/a	GoodResponse	1	0.0	n/a	1	40	ISIslide	Win	True
392.024	0.25	Win2	0.5952000000000001	0.0	Yes	2.776	0.024	n/a	GoodResponse	1	n/a	n/a	2	41	Cue	Win	True
392.274	3.9	Win2	0.5952000000000001	0.0	Yes	2.776	0.0	n/a	GoodResponse	1	n/a	n/a	2	41	Fixation	Win	True
396.172	0.24	Win2	0.5952000000000001	0.002	Yes	2.776	-0.002	1.0	GoodResponse	1	0.209	395.381	2	41	Target	Win	True
396.381	0.3	Win2	0.5952000000000001	0.002	Yes	2.776	-0.002	1.0	GoodResponse	1	0.209	n/a	2	41	ButtonPress	Win	True
396.422	0.46	Win2	0.5952000000000001	n/a	Yes	2.776	n/a	n/a	GoodResponse	1	n/a	n/a	2	41	Blank	Win	True
396.872	1.45	Win2	0.5952000000000001	n/a	Yes	2.776	n/a	5.0	GoodResponse	1	0.027	395.899	2	41	Feedback	Win	True
398.321	2.776	Win2	0.5952000000000001	n/a	Yes	2.776	n/a	n/a	GoodResponse	1	0.0	n/a	2	41	ISIslide	Win	True
401.12	0.25	Control	0.6047	0.001	Yes	2.93	0.02	n/a	GoodResponse	0	n/a	n/a	2	42	Cue	Neutral	True
401.37	3.85	Control	0.6047	0.0	Yes	2.93	0.0	n/a	GoodResponse	0	n/a	n/a	2	42	Fixation	Neutral	True
405.219	0.25	Control	0.6047	0.001	Yes	2.93	-0.001	1.0	GoodResponse	0	0.172	404.391	2	42	Target	Neutral	True
405.391	0.3	Control	0.6047	0.001	Yes	2.93	-0.001	1.0	GoodResponse	0	0.172	n/a	2	42	ButtonPress	Neutral	True
405.469	0.45	Control	0.6047	n/a	Yes	2.93	n/a	n/a	GoodResponse	0	n/a	n/a	2	42	Blank	Neutral	True
405.919	1.45	Control	0.6047	n/a	Yes	2.93	n/a	5.0	GoodResponse	0	0.007	404.926	2	42	Feedback	Neutral	True
407.368	2.93	Control	0.6047	n/a	Yes	2.93	n/a	n/a	GoodResponse	0	0.0	n/a	2	42	ISIslide	Neutral	True
410.317	0.25	Win2	0.6136	0.0	Yes	3.183	0.017	n/a	GoodResponse	1	n/a	n/a	3	43	Cue	Win	True
410.567	4.0	Win2	0.6136	0.0	Yes	3.183	0.0	n/a	GoodResponse	1	n/a	n/a	3	43	Fixation	Win	True
414.566	0.26	Win2	0.6136	0.001	Yes	3.183	-0.001	1.0	GoodResponse	1	0.219	413.785	3	43	Target	Win	True
414.785	0.3	Win2	0.6136	0.001	Yes	3.183	-0.001	1.0	GoodResponse	1	0.219	n/a	3	43	ButtonPress	Win	True
414.832	0.44	Win2	0.6136	n/a	Yes	3.183	n/a	n/a	GoodResponse	1	n/a	n/a	3	43	Blank	Win	True
415.265	1.45	Win2	0.6136	n/a	Yes	3.183	n/a	5.0	GoodResponse	1	0.025	414.29	3	43	Feedback	Win	True
416.715	3.183	Win2	0.6136	n/a	Yes	3.183	n/a	n/a	GoodResponse	1	0.0	n/a	3	43	ISIslide	Win	True
419.914	0.25	Win2	0.6222	0.0	Yes	2.986	0.014	n/a	GoodResponse	1	n/a	n/a	4	44	Cue	Win	True
420.164	4.0	Win2	0.6222	0.0	Yes	2.986	0.0	n/a	GoodResponse	1	n/a	n/a	4	44	Fixation	Win	True
424.162	0.27	Win2	0.6222	0.002	Yes	2.986	-0.002	1.0	GoodResponse	1	0.188	423.35	4	44	Target	Win	True
424.35	0.3	Win2	0.6222	0.002	Yes	2.986	-0.002	1.0	GoodResponse	1	0.188	n/a	4	44	ButtonPress	Win	True
424.446	0.43	Win2	0.6222	n/a	Yes	2.986	n/a	n/a	GoodResponse	1	n/a	n/a	4	44	Blank	Win	True
424.862	1.45	Win2	0.6222	n/a	Yes	2.986	n/a	5.0	GoodResponse	1	0.037	423.899	4	44	Feedback	Win	True
426.312	2.986	Win2	0.6222	n/a	Yes	2.986	n/a	n/a	GoodResponse	1	0.0	n/a	4	44	ISIslide	Win	True
429.327	0.25	Control	0.6304	0.0	Yes	2.873	0.027	n/a	GoodResponse	0	n/a	n/a	4	45	Cue	Neutral	True
429.577	4.1	Control	0.6304	0.0	Yes	2.873	0.0	n/a	GoodResponse	0	n/a	n/a	4	45	Fixation	Neutral	True
433.676	0.28	Control	0.6304	0.001	Yes	2.873	-0.001	1.0	GoodResponse	0	0.189	432.865	4	45	Target	Neutral	True
433.865	0.3	Control	0.6304	0.001	Yes	2.873	-0.001	1.0	GoodResponse	0	0.189	n/a	4	45	ButtonPress	Neutral	True
433.959	0.42	Control	0.6304	n/a	Yes	2.873	n/a	n/a	GoodResponse	0	n/a	n/a	4	45	Blank	Neutral	True
434.375	1.45	Control	0.6304	n/a	Yes	2.873	n/a	5.0	GoodResponse	0	0.036	433.411	4	45	Feedback	Neutral	True
435.825	2.873	Control	0.6304	n/a	Yes	2.873	n/a	n/a	GoodResponse	0	0.0	n/a	4	45	ISIslide	Neutral	True
438.724	0.25	Lose2	0.6383	0.0	Yes	3.376	0.024	n/a	GoodResponse	0	n/a	n/a	4	46	Cue	AvoidedLoss	True
438.974	4.0	Lose2	0.6383	0.0	Yes	3.376	0.0	n/a	GoodResponse	0	n/a	n/a	4	46	Fixation	AvoidedLoss	True
442.972	0.29	Lose2	0.6383	0.002	Yes	3.376	-0.002	1.0	GoodResponse	0	0.208	442.18	4	46	Target	AvoidedLoss	True
443.18	0.3	Lose2	0.6383	0.002	Yes	3.376	-0.002	1.0	GoodResponse	0	0.208	n/a	4	46	ButtonPress	AvoidedLoss	True
443.272	0.41	Lose2	0.6383	n/a	Yes	3.376	n/a	n/a	GoodResponse	0	n/a	n/a	4	46	Blank	AvoidedLoss	True
443.672	1.45	Lose2	0.6383	n/a	Yes	3.376	n/a	5.0	GoodResponse	0	0.007	442.679	4	46	Feedback	AvoidedLoss	True
445.122	3.376	Lose2	0.6383	n/a	Yes	3.376	n/a	n/a	GoodResponse	0	0.0	n/a	4	46	ISIslide	AvoidedLoss	True
448.52	0.25	Lose2	0.6457999999999999	0.0	Yes	2.68	0.02	n/a	GoodResponse	0	n/a	n/a	4	47	Cue	AvoidedLoss	True
448.77	4.0	Lose2	0.6457999999999999	0.0	Yes	2.68	0.0	n/a	GoodResponse	0	n/a	n/a	4	47	Fixation	AvoidedLoss	True
452.769	0.3	Lose2	0.6457999999999999	0.001	Yes	2.68	-0.001	1.0	GoodResponse	0	0.175	451.944	4	47	Target	AvoidedLoss	True
452.944	0.3	Lose2	0.6457999999999999	0.001	Yes	2.68	-0.001	1.0	GoodResponse	0	0.175	n/a	4	47	ButtonPress	AvoidedLoss	True
453.069	0.4	Lose2	0.6457999999999999	n/a	Yes	2.68	n/a	n/a	GoodResponse	0	n/a	n/a	4	47	Blank	AvoidedLoss	True
453.469	1.45	Lose2	0.6457999999999999	n/a	Yes	2.68	n/a	5.0	GoodResponse	0	0.015	452.484	4	47	Feedback	AvoidedLoss	True
454.918	2.68	Lose2	0.6457999999999999	n/a	Yes	2.68	n/a	n/a	GoodResponse	0	0.0	n/a	4	47	ISIslide	AvoidedLoss	True
457.617	0.25	Lose2	0.6531	0.0	Yes	3.033	0.017	n/a	GoodResponse	0	n/a	n/a	4	48	Cue	AvoidedLoss	True
457.867	3.95	Lose2	0.6531	0.0	Yes	3.033	0.0	n/a	GoodResponse	0	n/a	n/a	4	48	Fixation	AvoidedLoss	True
461.816	0.31	Lose2	0.6531	0.001	Yes	3.033	-0.001	1.0	GoodResponse	0	0.205	461.021	4	48	Target	AvoidedLoss	True
462.021	0.3	Lose2	0.6531	0.001	Yes	3.033	-0.001	1.0	GoodResponse	0	0.205	n/a	4	48	ButtonPress	AvoidedLoss	True
462.132	0.39	Lose2	0.6531	n/a	Yes	3.033	n/a	n/a	GoodResponse	0	n/a	n/a	4	48	Blank	AvoidedLoss	True
462.515	1.45	Lose2	0.6531	n/a	Yes	3.033	n/a	5.0	GoodResponse	0	0.042	461.557	4	48	Feedback	AvoidedLoss	True
463.965	3.033	Lose2	0.6531	n/a	Yes	3.033	n/a	n/a	GoodResponse	0	0.0	n/a	4	48	ISIslide	AvoidedLoss	True
467.014	0.25	Control	0.66	0.0	Yes	2.886	0.014	n/a	GoodResponse	0	n/a	n/a	4	49	Cue	Neutral	True
467.264	4.0	Control	0.66	0.0	Yes	2.886	0.0	n/a	GoodResponse	0	n/a	n/a	4	49	Fixation	Neutral	True
471.262	0.32	Control	0.66	0.002	Yes	2.886	-0.002	1.0	GoodResponse	0	0.185	470.447	4	49	Target	Neutral	True
471.447	0.3	Control	0.66	0.002	Yes	2.886	-0.002	1.0	GoodResponse	0	0.185	n/a	4	49	ButtonPress	Neutral	True
471.595	0.38	Control	0.66	n/a	Yes	2.886	n/a	n/a	GoodResponse	0	n/a	n/a	4	49	Blank	Neutral	True
471.962	1.45	Control	0.66	n/a	Yes	2.886	n/a	5.0	GoodResponse	0	0.009	470.971	4	49	Feedback	Neutral	True
473.411	2.886	Control	0.66	n/a	Yes	2.886	n/a	n/a	GoodResponse	0	0.0	n/a	4	49	ISIslide	Neutral	True
476.327	0.25	Control	0.6667000000000001	0.0	Yes	2.773	0.027	n/a	GoodResponse	0	n/a	n/a	4	50	Cue	Neutral	True
476.577	4.0	Control	0.6667000000000001	0.0	Yes	2.773	0.0	n/a	GoodResponse	0	n/a	n/a	4	50	Fixation	Neutral	True
480.576	0.32	Control	0.6667000000000001	0.001	Yes	2.773	-0.001	1.0	GoodResponse	0	0.193	479.769	4	50	Target	Neutral	True
480.769	0.3	Control	0.6667000000000001	0.001	Yes	2.773	-0.001	1.0	GoodResponse	0	0.193	n/a	4	50	ButtonPress	Neutral	True
480.909	0.38	Control	0.6667000000000001	n/a	Yes	2.773	n/a	n/a	GoodResponse	0	n/a	n/a	4	50	Blank	Neutral	True
481.275	1.45	Control	0.6667000000000001	n/a	Yes	2.773	n/a	5.0	GoodResponse	0	0.014	480.289	4	50	Feedback	Neutral	True
482.725	2.773	Control	0.6667000000000001	n/a	Yes	2.773	n/a	n/a	GoodResponse	0	0.0	n/a	4	50	ISIslide	Neutral	True
485.524	0.25	Control	0.6731	0.0	Yes	2.726	0.024	n/a	GoodResponse	0	n/a	n/a	4	51	Cue	Neutral	True
485.774	3.95	Control	0.6731	0.0	Yes	2.726	0.0	n/a	GoodResponse	0	n/a	n/a	4	51	Fixation	Neutral	True
489.722	0.31	Control	0.6731	0.002	Yes	2.726	-0.002	1.0	GoodResponse	0	0.215	488.937	4	51	Target	Neutral	True
489.937	0.3	Control	0.6731	0.002	Yes	2.726	-0.002	1.0	GoodResponse	0	0.215	n/a	4	51	ButtonPress	Neutral	True
490.039	0.39	Control	0.6731	n/a	Yes	2.726	n/a	n/a	GoodResponse	0	n/a	n/a	4	51	Blank	Neutral	True
490.422	1.45	Control	0.6731	n/a	Yes	2.726	n/a	5.0	GoodResponse	0	0.037	489.459	4	51	Feedback	Neutral	True
491.872	2.726	Control	0.6731	n/a	Yes	2.726	n/a	n/a	GoodResponse	0	0.0	n/a	4	51	ISIslide	Neutral	True
494.621	0.25	Control	0.6792	0.0	Yes	2.629	0.021	n/a	GoodResponse	0	n/a	n/a	4	52	Cue	Neutral	True
494.87	4.05	Control	0.6792	0.001	Yes	2.629	-0.001	n/a	GoodResponse	0	n/a	n/a	4	52	Fixation	Neutral	True
498.919	0.3	Control	0.6792	0.002	Yes	2.629	-0.002	1.0	GoodResponse	0	0.222	498.141	4	52	Target	Neutral	True
499.141	0.3	Control	0.6792	0.002	Yes	2.629	-0.002	1.0	GoodResponse	0	0.222	n/a	4	52	ButtonPress	Neutral	True
499.219	0.4	Control	0.6792	n/a	Yes	2.629	n/a	n/a	GoodResponse	0	n/a	n/a	4	52	Blank	Neutral	True
499.619	1.45	Control	0.6792	n/a	Yes	2.629	n/a	5.0	GoodResponse	0	0.01	498.629	4	52	Feedback	Neutral	True
501.068	2.629	Control	0.6792	n/a	Yes	2.629	n/a	n/a	GoodResponse	0	0.0	n/a	4	52	ISIslide	Neutral	True
503.717	0.25	Win2	0.6851999999999999	0.0	Yes	2.933	0.017	n/a	GoodResponse	1	n/a	n/a	5	53	Cue	Win	True
503.967	4.05	Win2	0.6851999999999999	0.0	Yes	2.933	0.0	n/a	GoodResponse	1	n/a	n/a	5	53	Fixation	Win	True
508.016	0.29	Win2	0.6851999999999999	0.001	Yes	2.933	-0.001	1.0	GoodResponse	1	0.196	507.212	5	53	Target	Win	True
508.212	0.3	Win2	0.6851999999999999	0.001	Yes	2.933	-0.001	1.0	GoodResponse	1	0.196	n/a	5	53	ButtonPress	Win	True
508.316	0.41	Win2	0.6851999999999999	n/a	Yes	2.933	n/a	n/a	GoodResponse	1	n/a	n/a	5	53	Blank	Win	True
508.716	1.45	Win2	0.6851999999999999	n/a	Yes	2.933	n/a	5.0	GoodResponse	1	0.035	507.751	5	53	Feedback	Win	True
510.165	2.933	Win2	0.6851999999999999	n/a	Yes	2.933	n/a	n/a	GoodResponse	1	0.0	n/a	5	53	ISIslide	Win	True
513.131	0.25	Win2	0.6909000000000001	0.0	Yes	2.719	0.031	n/a	GoodResponse	1	n/a	n/a	6	54	Cue	Win	True
513.381	3.95	Win2	0.6909000000000001	0.0	Yes	2.719	0.0	n/a	GoodResponse	1	n/a	n/a	6	54	Fixation	Win	True
517.329	0.28	Win2	0.6909000000000001	0.002	Yes	2.719	-0.002	1.0	GoodResponse	1	0.215	516.544	6	54	Target	Win	True
517.544	0.3	Win2	0.6909000000000001	0.002	Yes	2.719	-0.002	1.0	GoodResponse	1	0.215	n/a	6	54	ButtonPress	Win	True
517.612	0.42	Win2	0.6909000000000001	n/a	Yes	2.719	n/a	n/a	GoodResponse	1	n/a	n/a	6	54	Blank	Win	True
518.029	1.45	Win2	0.6909000000000001	n/a	Yes	2.719	n/a	5.0	GoodResponse	1	0.04	517.069	6	54	Feedback	Win	True
519.478	2.719	Win2	0.6909000000000001	n/a	Yes	2.719	n/a	n/a	GoodResponse	1	0.0	n/a	6	54	ISIslide	Win	True
522.227	0.25	Control	0.6964	0.0	Yes	3.023	0.027	n/a	GoodResponse	0	n/a	n/a	6	55	Cue	Neutral	True
522.477	3.95	Control	0.6964	0.0	Yes	3.023	0.0	n/a	GoodResponse	0	n/a	n/a	6	55	Fixation	Neutral	True
526.426	0.27	Control	0.6964	0.001	Yes	3.023	-0.001	1.0	GoodResponse	0	0.221	525.647	6	55	Target	Neutral	True
526.647	0.3	Control	0.6964	0.001	Yes	3.023	-0.001	1.0	GoodResponse	0	0.221	n/a	6	55	ButtonPress	Neutral	True
526.692	0.43	Control	0.6964	n/a	Yes	3.023	n/a	n/a	GoodResponse	0	n/a	n/a	6	55	Blank	Neutral	True
527.126	1.45	Control	0.6964	n/a	Yes	3.023	n/a	5.0	GoodResponse	0	0.016	526.142	6	55	Feedback	Neutral	True
528.575	3.023	Control	0.6964	n/a	Yes	3.023	n/a	n/a	GoodResponse	0	0.0	n/a	6	55	ISIslide	Neutral	True
531.624	0.25	Control	0.7018000000000001	0.0	Yes	2.826	0.024	n/a	GoodResponse	0	n/a	n/a	6	56	Cue	Neutral	True
531.874	3.95	Control	0.7018000000000001	0.0	Yes	2.826	0.0	n/a	GoodResponse	0	n/a	n/a	6	56	Fixation	Neutral	True
535.823	0.26	Control	0.7018000000000001	0.001	Yes	2.826	-0.001	1.0	GoodResponse	0	0.237	535.06	6	56	Target	Neutral	True
536.06	0.3	Control	0.7018000000000001	0.001	Yes	2.826	-0.001	1.0	GoodResponse	0	0.237	n/a	6	56	ButtonPress	Neutral	True
536.089	0.44	Control	0.7018000000000001	n/a	Yes	2.826	n/a	n/a	GoodResponse	0	n/a	n/a	6	56	Blank	Neutral	True
536.522	1.45	Control	0.7018000000000001	n/a	Yes	2.826	n/a	5.0	GoodResponse	0	0.034	535.556	6	56	Feedback	Neutral	True
537.972	2.826	Control	0.7018000000000001	n/a	Yes	2.826	n/a	n/a	GoodResponse	0	0.0	n/a	6	56	ISIslide	Neutral	True
540.821	0.25	Control	0.7069	0.0	Yes	3.479	0.021	n/a	GoodResponse	0	n/a	n/a	6	57	Cue	Neutral	True
541.071	4.0	Control	0.7069	0.0	Yes	3.479	0.0	n/a	GoodResponse	0	n/a	n/a	6	57	Fixation	Neutral	True
545.069	0.25	Control	0.7069	0.002	Yes	3.479	-0.002	1.0	GoodResponse	0	0.247	544.316	6	57	Target	Neutral	True
545.316	0.3	Control	0.7069	0.002	Yes	3.479	-0.002	1.0	GoodResponse	0	0.247	n/a	6	57	ButtonPress	Neutral	True
545.319	0.45	Control	0.7069	n/a	Yes	3.479	n/a	n/a	GoodResponse	0	n/a	n/a	6	57	Blank	Neutral	True
545.769	1.45	Control	0.7069	n/a	Yes	3.479	n/a	5.0	GoodResponse	0	0.006	544.775	6	57	Feedback	Neutral	True
547.219	3.479	Control	0.7069	n/a	Yes	3.479	n/a	n/a	GoodResponse	0	0.0	n/a	6	57	ISIslide	Neutral	True
550.717	0.25	Win2	0.6949	0.0	No	2.733	0.017	n/a	NoResponse	0	n/a	n/a	6	58	Cue	MissedWin	True
550.967	4.05	Win2	0.6949	0.0	No	2.733	0.0	n/a	NoResponse	0	n/a	n/a	6	58	Fixation	MissedWin	True
555.016	0.24	Win2	0.6949	0.001	No	2.733	-0.001	1.0	NoResponse	0	0.274	554.29	6	58	Target	MissedWin	True
555.266	0.46	Win2	0.6949	n/a	No	2.733	n/a	n/a	NoResponse	0	n/a	n/a	6	58	Blank	MissedWin	True
555.29	0.3	Win2	0.6949	0.001	No	2.733	-0.001	1.0	NoResponse	0	0.274	n/a	6	58	ButtonPress	MissedWin	True
555.716	1.45	Win2	0.6949	n/a	No	2.733	n/a	5.0	NoResponse	0	0.011	554.727	6	58	Feedback	MissedWin	True
557.165	2.733	Win2	0.6949	n/a	No	2.733	n/a	n/a	NoResponse	0	0.0	n/a	6	58	ISIslide	MissedWin	True
559.914	0.25	Lose2	0.7	0.0	Yes	2.686	0.014	n/a	GoodResponse	0	n/a	n/a	6	59	Cue	AvoidedLoss	True
560.164	4.0	Lose2	0.7	0.0	Yes	2.686	0.0	n/a	GoodResponse	0	n/a	n/a	6	59	Fixation	AvoidedLoss	True
564.163	0.23	Lose2	0.7	0.001	Yes	2.686	-0.001	1.0	GoodResponse	0	0.188	563.351	6	59	Target	AvoidedLoss	True
564.351	0.3	Lose2	0.7	0.001	Yes	2.686	-0.001	1.0	GoodResponse	0	0.188	n/a	6	59	ButtonPress	AvoidedLoss	True
564.396	0.47	Lose2	0.7	n/a	Yes	2.686	n/a	n/a	GoodResponse	0	n/a	n/a	6	59	Blank	AvoidedLoss	True
564.862	1.45	Lose2	0.7	n/a	Yes	2.686	n/a	5.0	GoodResponse	0	0.036	563.898	6	59	Feedback	AvoidedLoss	True
566.312	2.686	Lose2	0.7	n/a	Yes	2.686	n/a	n/a	GoodResponse	0	0.0	n/a	6	59	ISIslide	AvoidedLoss	True
569.027	0.25	Control	0.6884999999999999	0.001	No	2.673	0.027	n/a	PrematurePress	0	n/a	n/a	6	60	Cue	Neutral	False
569.277	4.0	Control	0.6884999999999999	0.0	No	2.673	0.0	1.0	PrematurePress	0	3.371	571.648	6	60	Fixation	Neutral	False
572.648	0.3	Control	0.6884999999999999	0.0	No	2.673	0.0	1.0	PrematurePress	0	3.371	n/a	6	60	ButtonPress	Neutral	False
573.276	0.22	Control	0.6884999999999999	0.001	No	2.673	-0.001	1.0	PrematurePress	0	0.052	572.328	6	60	Target	Neutral	False
573.328	0.3	Control	0.6884999999999999	0.001	No	2.673	-0.001	1.0	PrematurePress	0	0.052	n/a	6	60	ButtonPress	Neutral	False
573.493	0.48	Control	0.6884999999999999	n/a	No	2.673	n/a	n/a	PrematurePress	0	n/a	n/a	6	60	Blank	Neutral	False
573.976	1.45	Control	0.6884999999999999	n/a	No	2.673	n/a	5.0	PrematurePress	0	0.043	573.019	6	60	Feedback	Neutral	False
575.425	2.673	Control	0.6884999999999999	n/a	No	2.673	n/a	n/a	PrematurePress	0	0.0	n/a	6	60	ISIslide	Neutral	False
578.124	0.25	Lose2	0.6934999999999999	0.0	Yes	2.976	0.024	n/a	GoodResponse	0	n/a	n/a	6	61	Cue	AvoidedLoss	True
578.374	4.0	Lose2	0.6934999999999999	0.0	Yes	2.976	0.0	n/a	GoodResponse	0	n/a	n/a	6	61	Fixation	AvoidedLoss	True
582.373	0.21	Lose2	0.6934999999999999	0.001	Yes	2.976	-0.001	1.0	GoodResponse	0	0.185	581.558	6	61	Target	AvoidedLoss	True
582.558	0.3	Lose2	0.6934999999999999	0.001	Yes	2.976	-0.001	1.0	GoodResponse	0	0.185	n/a	6	61	ButtonPress	AvoidedLoss	True
582.589	0.49	Lose2	0.6934999999999999	n/a	Yes	2.976	n/a	n/a	GoodResponse	0	n/a	n/a	6	61	Blank	AvoidedLoss	True
583.072	1.45	Lose2	0.6934999999999999	n/a	Yes	2.976	n/a	5.0	GoodResponse	0	0.02	582.092	6	61	Feedback	AvoidedLoss	True
584.522	2.976	Lose2	0.6934999999999999	n/a	Yes	2.976	n/a	n/a	GoodResponse	0	0.0	n/a	6	61	ISIslide	AvoidedLoss	True
587.521	0.25	Lose2	0.6825	0.0	No	2.879	0.021	n/a	NoResponse	-1	n/a	n/a	5	62	Cue	Loss	True
587.771	3.9	Lose2	0.6825	0.0	No	2.879	0.0	1.0	NoResponse	-1	3.824	590.595	5	62	Fixation	Loss	True
591.595	0.3	Lose2	0.6825	0.0	No	2.879	0.0	1.0	NoResponse	-1	3.824	n/a	5	62	ButtonPress	Loss	True
591.669	0.2	Lose2	0.6825	0.002	No	2.879	-0.002	n/a	NoResponse	-1	n/a	n/a	5	62	Target	Loss	True
591.869	0.5	Lose2	0.6825	n/a	No	2.879	n/a	n/a	NoResponse	-1	n/a	n/a	5	62	Blank	Loss	True
592.369	1.45	Lose2	0.6825	n/a	No	2.879	n/a	5.0	NoResponse	-1	0.04	591.409	5	62	Feedback	Loss	True
593.819	2.879	Lose2	0.6825	n/a	No	2.879	n/a	n/a	NoResponse	-1	0.0	n/a	5	62	ISIslide	Loss	True
596.718	0.25	Lose2	0.6875	0.0	Yes	2.632	0.018	n/a	GoodResponse	0	n/a	n/a	5	63	Cue	AvoidedLoss	True
596.967	4.05	Lose2	0.6875	0.001	Yes	2.632	-0.001	n/a	GoodResponse	0	n/a	n/a	5	63	Fixation	AvoidedLoss	True
601.016	0.19	Lose2	0.6875	0.002	Yes	2.632	-0.002	1.0	GoodResponse	0	0.161	600.177	5	63	Target	AvoidedLoss	True
601.177	0.3	Lose2	0.6875	0.002	Yes	2.632	-0.002	1.0	GoodResponse	0	0.161	n/a	5	63	ButtonPress	AvoidedLoss	True
601.216	0.51	Lose2	0.6875	n/a	Yes	2.632	n/a	n/a	GoodResponse	0	n/a	n/a	5	63	Blank	AvoidedLoss	True
601.716	1.45	Lose2	0.6875	n/a	Yes	2.632	n/a	5.0	GoodResponse	0	0.01	600.726	5	63	Feedback	AvoidedLoss	True
603.165	2.632	Lose2	0.6875	n/a	Yes	2.632	n/a	n/a	GoodResponse	0	0.0	n/a	5	63	ISIslide	AvoidedLoss	True
605.814	0.25	Win2	0.6923	0.0	Yes	3.136	0.014	n/a	GoodResponse	1	n/a	n/a	6	64	Cue	Win	True
606.064	4.15	Win2	0.6923	0.0	Yes	3.136	0.0	n/a	GoodResponse	1	n/a	n/a	6	64	Fixation	Win	True
610.213	0.18	Win2	0.6923	0.001	Yes	3.136	-0.001	1.0	GoodResponse	1	0.16	609.373	6	64	Target	Win	True
610.373	0.3	Win2	0.6923	0.001	Yes	3.136	-0.001	1.0	GoodResponse	1	0.16	n/a	6	64	ButtonPress	Win	True
610.396	0.52	Win2	0.6923	n/a	Yes	3.136	n/a	n/a	GoodResponse	1	n/a	n/a	6	64	Blank	Win	True
610.913	1.45	Win2	0.6923	n/a	Yes	3.136	n/a	5.0	GoodResponse	1	0.032	609.945	6	64	Feedback	Win	True
612.362	3.136	Win2	0.6923	n/a	Yes	3.136	n/a	n/a	GoodResponse	1	0.0	n/a	6	64	ISIslide	Win	True
615.528	0.25	Control	0.6818000000000001	0.0	No	2.772	0.028	n/a	NoResponse	0	n/a	n/a	6	65	Cue	Neutral	True
615.777	4.0	Control	0.6818000000000001	0.001	No	2.772	-0.001	n/a	NoResponse	0	n/a	n/a	6	65	Fixation	Neutral	True
619.776	0.17	Control	0.6818000000000001	0.002	No	2.772	-0.002	1.0	NoResponse	0	0.225	619.001	6	65	Target	Neutral	True
619.959	0.53	Control	0.6818000000000001	n/a	No	2.772	n/a	n/a	NoResponse	0	n/a	n/a	6	65	Blank	Neutral	True
620.001	0.3	Control	0.6818000000000001	0.002	No	2.772	-0.002	1.0	NoResponse	0	0.225	n/a	6	65	ButtonPress	Neutral	True
620.476	1.45	Control	0.6818000000000001	n/a	No	2.772	n/a	5.0	NoResponse	0	0.03	619.506	6	65	Feedback	Neutral	True
621.925	2.772	Control	0.6818000000000001	n/a	No	2.772	n/a	n/a	NoResponse	0	0.0	n/a	6	65	ISIslide	Neutral	True
624.724	0.25	Win2	0.6716	0.0	No	2.776	0.024	n/a	NoResponse	0	n/a	n/a	6	66	Cue	MissedWin	True
624.974	3.9	Win2	0.6716	0.0	No	2.776	0.0	n/a	NoResponse	0	n/a	n/a	6	66	Fixation	MissedWin	True
628.873	0.16	Win2	0.6716	0.001	No	2.776	-0.001	1.0	NoResponse	0	0.227	628.1	6	66	Target	MissedWin	True
629.039	0.54	Win2	0.6716	n/a	No	2.776	n/a	n/a	NoResponse	0	n/a	n/a	6	66	Blank	MissedWin	True
629.1	0.3	Win2	0.6716	0.001	No	2.776	-0.001	1.0	NoResponse	0	0.227	n/a	6	66	ButtonPress	MissedWin	True
629.573	1.45	Win2	0.6716	n/a	No	2.776	n/a	5.0	NoResponse	0	0.006	628.579	6	66	Feedback	MissedWin	True
631.022	2.776	Win2	0.6716	n/a	No	2.776	n/a	n/a	NoResponse	0	0.0	n/a	6	66	ISIslide	MissedWin	True
633.821	0.25	Control	0.6618	0.0	No	2.729	0.021	n/a	NoResponse	0	n/a	n/a	6	67	Cue	Neutral	True
634.071	3.95	Control	0.6618	0.0	No	2.729	0.0	1.0	NoResponse	0	3.91	636.981	6	67	Fixation	Neutral	True
637.981	0.3	Control	0.6618	0.0	No	2.729	0.0	1.0	NoResponse	0	3.91	n/a	6	67	ButtonPress	Neutral	True
638.02	0.15	Control	0.6618	0.001	No	2.729	-0.001	n/a	NoResponse	0	n/a	n/a	6	67	Target	Neutral	True
638.17	0.55	Control	0.6618	n/a	No	2.729	n/a	n/a	NoResponse	0	n/a	n/a	6	67	Blank	Neutral	True
638.719	1.45	Control	0.6618	n/a	No	2.729	n/a	5.0	NoResponse	0	0.031	637.75	6	67	Feedback	Neutral	True
640.169	2.729	Control	0.6618	n/a	No	2.729	n/a	n/a	NoResponse	0	0.0	n/a	6	67	ISIslide	Neutral	True
642.918	0.25	Win2	0.6522	0.0	No	3.082	0.018	n/a	NoResponse	0	n/a	n/a	6	68	Cue	MissedWin	False
643.168	4.0	Win2	0.6522	0.0	No	3.082	0.0	1.0	NoResponse	0	3.765	645.933	6	68	Fixation	MissedWin	False
646.933	0.3	Win2	0.6522	0.0	No	3.082	0.0	1.0	NoResponse	0	3.765	n/a	6	68	ButtonPress	MissedWin	False
647.166	0.15	Win2	0.6522	0.002	No	3.082	-0.002	1.0	NoResponse	0	0.259	646.425	6	68	Target	MissedWin	False
647.316	0.55	Win2	0.6522	n/a	No	3.082	n/a	n/a	NoResponse	0	n/a	n/a	6	68	Blank	MissedWin	False
647.425	0.3	Win2	0.6522	0.002	No	3.082	-0.002	1.0	NoResponse	0	0.259	n/a	6	68	ButtonPress	MissedWin	False
647.866	1.45	Win2	0.6522	n/a	No	3.082	n/a	5.0	NoResponse	0	0.007	646.873	6	68	Feedback	MissedWin	False
649.316	3.082	Win2	0.6522	n/a	No	3.082	n/a	n/a	NoResponse	0	0.0	n/a	6	68	ISIslide	MissedWin	False
652.414	0.25	Win2	0.6429	0.001	No	3.236	0.014	n/a	NoResponse	0	n/a	n/a	6	69	Cue	MissedWin	True
652.664	3.95	Win2	0.6429	0.0	No	3.236	0.0	n/a	NoResponse	0	n/a	n/a	6	69	Fixation	MissedWin	True
656.613	0.16	Win2	0.6429	0.001	No	3.236	-0.001	1.0	NoResponse	0	0.196	655.809	6	69	Target	MissedWin	True
656.78	0.54	Win2	0.6429	n/a	No	3.236	n/a	n/a	NoResponse	0	n/a	n/a	6	69	Blank	MissedWin	True
656.809	0.3	Win2	0.6429	0.001	No	3.236	-0.001	1.0	NoResponse	0	0.196	n/a	6	69	ButtonPress	MissedWin	True
657.313	1.45	Win2	0.6429	n/a	No	3.236	n/a	5.0	NoResponse	0	0.022	656.335	6	69	Feedback	MissedWin	True
658.762	3.236	Win2	0.6429	n/a	No	3.236	n/a	n/a	NoResponse	0	0.0	n/a	6	69	ISIslide	MissedWin	True
662.028	0.25	Lose2	0.6338	0.0	No	3.022	0.028	n/a	NoResponse	-1	n/a	n/a	5	70	Cue	Loss	True
662.278	4.05	Lose2	0.6338	0.0	No	3.022	0.0	n/a	NoResponse	-1	n/a	n/a	5	70	Fixation	Loss	True
666.326	0.17	Lose2	0.6338	0.002	No	3.022	-0.002	1.0	NoResponse	-1	0.191	665.517	5	70	Target	Loss	True
666.509	0.53	Lose2	0.6338	n/a	No	3.022	n/a	n/a	NoResponse	-1	n/a	n/a	5	70	Blank	Loss	True
666.517	0.3	Lose2	0.6338	0.002	No	3.022	-0.002	1.0	NoResponse	-1	0.191	n/a	5	70	ButtonPress	Loss	True
667.026	1.45	Lose2	0.6338	n/a	No	3.022	n/a	5.0	NoResponse	-1	0.016	666.042	5	70	Feedback	Loss	True
668.475	3.022	Lose2	0.6338	n/a	No	3.022	n/a	n/a	NoResponse	-1	0.0	n/a	5	70	ISIslide	Loss	True
671.524	0.25	Win2	0.625	0.0	No	2.726	0.024	n/a	PrematurePress	0	n/a	n/a	5	71	Cue	MissedWin	True
671.774	4.05	Win2	0.625	0.0	No	2.726	0.0	n/a	PrematurePress	0	n/a	n/a	5	71	Fixation	MissedWin	True
675.823	0.18	Win2	0.625	0.001	No	2.726	-0.001	1.0	PrematurePress	0	0.014	674.837	5	71	Target	MissedWin	True
675.837	0.3	Win2	0.625	0.001	No	2.726	-0.001	1.0	PrematurePress	0	0.014	n/a	5	71	ButtonPress	MissedWin	True
676.006	0.52	Win2	0.625	n/a	No	2.726	n/a	n/a	PrematurePress	0	n/a	n/a	5	71	Blank	MissedWin	True
676.523	1.45	Win2	0.625	n/a	No	2.726	n/a	5.0	PrematurePress	0	0.032	675.555	5	71	Feedback	MissedWin	True
677.972	2.726	Win2	0.625	n/a	No	2.726	n/a	n/a	PrematurePress	0	0.0	n/a	5	71	ISIslide	MissedWin	True
680.721	0.25	Win2	0.6164000000000001	0.0	No	2.779	0.021	n/a	NoResponse	0	n/a	n/a	5	72	Cue	MissedWin	True
680.971	4.1	Win2	0.6164000000000001	0.0	No	2.779	0.0	n/a	NoResponse	0	n/a	n/a	5	72	Fixation	MissedWin	True
685.069	0.19	Win2	0.6164000000000001	0.002	No	2.779	-0.002	1.0	NoResponse	0	0.208	684.277	5	72	Target	MissedWin	True
685.269	0.51	Win2	0.6164000000000001	n/a	No	2.779	n/a	n/a	NoResponse	0	n/a	n/a	5	72	Blank	MissedWin	True
685.277	0.3	Win2	0.6164000000000001	0.002	No	2.779	-0.002	1.0	NoResponse	0	0.208	n/a	5	72	ButtonPress	MissedWin	True
685.769	1.45	Win2	0.6164000000000001	n/a	No	2.779	n/a	5.0	NoResponse	0	0.007	684.776	5	72	Feedback	MissedWin	True
687.219	2.779	Win2	0.6164000000000001	n/a	No	2.779	n/a	n/a	NoResponse	0	0.0	n/a	5	72	ISIslide	MissedWin	True
690.018	0.25	Win2	0.6081	0.0	No	2.682	0.018	n/a	NoResponse	0	n/a	n/a	5	73	Cue	MissedWin	True
690.268	4.0	Win2	0.6081	0.0	No	2.682	0.0	n/a	NoResponse	0	n/a	n/a	5	73	Fixation	MissedWin	True
694.266	0.2	Win2	0.6081	0.002	No	2.682	-0.002	1.0	NoResponse	0	0.237	693.503	5	73	Target	MissedWin	True
694.466	0.5	Win2	0.6081	n/a	No	2.682	n/a	n/a	NoResponse	0	n/a	n/a	5	73	Blank	MissedWin	True
694.503	0.3	Win2	0.6081	0.002	No	2.682	-0.002	1.0	NoResponse	0	0.237	n/a	5	73	ButtonPress	MissedWin	True
694.966	1.45	Win2	0.6081	n/a	No	2.682	n/a	5.0	NoResponse	0	0.027	693.993	5	73	Feedback	MissedWin	True
696.415	2.682	Win2	0.6081	n/a	No	2.682	n/a	n/a	NoResponse	0	0.0	n/a	5	73	ISIslide	MissedWin	True
699.114	0.25	Lose2	0.6133	0.001	Yes	2.636	0.014	n/a	GoodResponse	0	n/a	n/a	5	74	Cue	AvoidedLoss	True
699.364	4.05	Lose2	0.6133	0.0	Yes	2.636	0.0	n/a	GoodResponse	0	n/a	n/a	5	74	Fixation	AvoidedLoss	True
703.413	0.21	Lose2	0.6133	0.001	Yes	2.636	-0.001	1.0	GoodResponse	0	0.186	702.599	5	74	Target	AvoidedLoss	True
703.599	0.3	Lose2	0.6133	0.001	Yes	2.636	-0.001	1.0	GoodResponse	0	0.186	n/a	5	74	ButtonPress	AvoidedLoss	True
703.63	0.49	Lose2	0.6133	n/a	Yes	2.636	n/a	n/a	GoodResponse	0	n/a	n/a	5	74	Blank	AvoidedLoss	True
704.113	1.45	Lose2	0.6133	n/a	Yes	2.636	n/a	5.0	GoodResponse	0	0.006	703.119	5	74	Feedback	AvoidedLoss	True
705.562	2.636	Lose2	0.6133	n/a	Yes	2.636	n/a	n/a	GoodResponse	0	0.0	n/a	5	74	ISIslide	AvoidedLoss	True
708.228	0.25	Lose2	0.6053000000000001	0.0	No	2.922	0.028	n/a	LatePress	-1	n/a	n/a	4	75	Cue	Loss	True
708.478	3.95	Lose2	0.6053000000000001	0.0	No	2.922	0.0	n/a	LatePress	-1	n/a	n/a	4	75	Fixation	Loss	True
712.426	0.22	Lose2	0.6053000000000001	0.002	No	2.922	-0.002	1.0	LatePress	-1	0.224	711.65	4	75	Target	Loss	True
712.65	0.3	Lose2	0.6053000000000001	0.002	No	2.922	-0.002	1.0	LatePress	-1	0.224	n/a	4	75	ButtonPress	Loss	True
712.66	0.48	Lose2	0.6053000000000001	n/a	No	2.922	n/a	n/a	LatePress	-1	n/a	n/a	4	75	Blank	Loss	True
713.126	1.45	Lose2	0.6053000000000001	n/a	No	2.922	n/a	5.0	LatePress	-1	0.013	712.139	4	75	Feedback	Loss	True
714.576	2.922	Lose2	0.6053000000000001	n/a	No	2.922	n/a	n/a	LatePress	-1	0.0	n/a	4	75	ISIslide	Loss	True
717.525	0.25	Control	0.5974	0.0	No	3.225	0.025	n/a	NoResponse	0	n/a	n/a	4	76	Cue	Neutral	True
717.775	4.05	Control	0.5974	0.0	No	3.225	0.0	n/a	NoResponse	0	n/a	n/a	4	76	Fixation	Neutral	True
721.823	0.23	Control	0.5974	0.002	No	3.225	-0.002	1.0	NoResponse	0	0.244	721.067	4	76	Target	Neutral	True
722.056	0.47	Control	0.5974	n/a	No	3.225	n/a	n/a	NoResponse	0	n/a	n/a	4	76	Blank	Neutral	True
722.067	0.3	Control	0.5974	0.002	No	3.225	-0.002	1.0	NoResponse	0	0.244	n/a	4	76	ButtonPress	Neutral	True
722.523	1.45	Control	0.5974	n/a	No	3.225	n/a	5.0	NoResponse	0	0.03	721.553	4	76	Feedback	Neutral	True
723.972	3.225	Control	0.5974	n/a	No	3.225	n/a	n/a	NoResponse	0	0.0	n/a	4	76	ISIslide	Neutral	True
727.221	0.25	Lose2	0.6026	0.0	Yes	2.579	0.021	n/a	GoodResponse	0	n/a	n/a	4	77	Cue	AvoidedLoss	False
727.471	3.95	Lose2	0.6026	0.0	Yes	2.579	0.0	1.0	GoodResponse	0	3.748	730.219	4	77	Fixation	AvoidedLoss	False
731.219	0.3	Lose2	0.6026	0.0	Yes	2.579	0.0	1.0	GoodResponse	0	3.748	n/a	4	77	ButtonPress	AvoidedLoss	False
731.42	0.24	Lose2	0.6026	0.001	Yes	2.579	-0.001	1.0	GoodResponse	0	0.141	730.561	4	77	Target	AvoidedLoss	False
731.561	0.3	Lose2	0.6026	0.001	Yes	2.579	-0.001	1.0	GoodResponse	0	0.141	n/a	4	77	ButtonPress	AvoidedLoss	False
731.67	0.46	Lose2	0.6026	n/a	Yes	2.579	n/a	n/a	GoodResponse	0	n/a	n/a	4	77	Blank	AvoidedLoss	False
732.119	1.45	Lose2	0.6026	n/a	Yes	2.579	n/a	5.0	GoodResponse	0	0.044	731.163	4	77	Feedback	AvoidedLoss	False
733.569	2.579	Lose2	0.6026	n/a	Yes	2.579	n/a	n/a	GoodResponse	0	0.0	n/a	4	77	ISIslide	AvoidedLoss	False
