onset	duration	cue_type	current_mean_accuracy	duration_error	is_hit	isi_adjusted	onset_delay	response	response_type	reward	rt	rt_time	total_reward	trial_number	trial_phase	trial_type	one_press
11.101	0.25	Control	1.0	0.0	Yes	2.949	0.001	n/a	GoodResponse	0	n/a	n/a	0	0	Cue	Neutral	True
11.351	3.85	Control	1.0	0.0	Yes	2.949	0.0	n/a	GoodResponse	0	n/a	n/a	0	0	Fixation	Neutral	True
15.2	0.4	Control	1.0	0.001	Yes	2.949	-0.001	2.0	GoodResponse	0	0.233	14.433	0	0	Target	Neutral	True
15.433	0.3	Control	1.0	0.001	Yes	2.949	-0.001	2.0	GoodResponse	0	0.233	n/a	0	0	ButtonPress	Neutral	True
15.599	0.3	Control	1.0	n/a	Yes	2.949	n/a	n/a	GoodResponse	0	n/a	n/a	0	0	Blank	Neutral	True
15.899	1.45	Control	1.0	n/a	Yes	2.949	n/a	5.0	GoodResponse	0	0.028	14.927	0	0	Feedback	Neutral	True
17.349	2.949	Control	1.0	n/a	Yes	2.949	n/a	n/a	GoodResponse	0	0.0	n/a	0	0	ISIslide	Neutral	True
20.331	0.25	Lose2	1.0	0.0	Yes	2.769	0.031	n/a	GoodResponse	0	n/a	n/a	0	1	Cue	AvoidedLoss	True
20.581	4.0	Lose2	1.0	0.0	Yes	2.769	0.0	n/a	GoodResponse	0	n/a	n/a	0	1	Fixation	AvoidedLoss	True
24.58	0.39	Lose2	1.0	0.001	Yes	2.769	-0.001	2.0	GoodResponse	0	0.231	23.811	0	1	Target	AvoidedLoss	True
24.811	0.3	Lose2	1.0	0.001	Yes	2.769	-0.001	2.0	GoodResponse	0	0.231	n/a	0	1	ButtonPress	AvoidedLoss	True
24.979	0.31	Lose2	1.0	n/a	Yes	2.769	n/a	n/a	GoodResponse	0	n/a	n/a	0	1	Blank	AvoidedLoss	True
25.279	1.45	Lose2	1.0	n/a	Yes	2.769	n/a	5.0	GoodResponse	0	0.014	24.293	0	1	Feedback	AvoidedLoss	True
26.729	2.769	Lose2	1.0	n/a	Yes	2.769	n/a	n/a	GoodResponse	0	0.0	n/a	0	1	ISIslide	AvoidedLoss	True
29.528	0.25	Control	1.0	0.0	Yes	2.572	0.028	n/a	GoodResponse	0	n/a	n/a	0	2	Cue	Neutral	True
29.778	4.1	Control	1.0	0.0	Yes	2.572	0.0	n/a	GoodResponse	0	n/a	n/a	0	2	Fixation	Neutral	True
33.876	0.38	Control	1.0	0.002	Yes	2.572	-0.002	2.0	GoodResponse	0	0.199	33.075	0	2	Target	Neutral	True
34.075	0.3	Control	1.0	0.002	Yes	2.572	-0.002	2.0	GoodResponse	0	0.199	n/a	0	2	ButtonPress	Neutral	True
34.259	0.32	Control	1.0	n/a	Yes	2.572	n/a	n/a	GoodResponse	0	n/a	n/a	0	2	Blank	Neutral	True
34.576	1.45	Control	1.0	n/a	Yes	2.572	n/a	5.0	GoodResponse	0	0.034	33.61	0	2	Feedback	Neutral	True
36.025	2.572	Control	1.0	n/a	Yes	2.572	n/a	n/a	GoodResponse	0	0.0	n/a	0	2	ISIslide	Neutral	True
38.624	0.25	Win2	1.0	0.001	Yes	2.826	0.024	n/a	GoodResponse	1	n/a	n/a	1	3	Cue	Win	True
38.874	3.95	Win2	1.0	0.001	Yes	2.826	0.0	n/a	GoodResponse	1	n/a	n/a	1	3	Fixation	Win	True
42.823	0.37	Win2	1.0	0.001	Yes	2.826	-0.001	2.0	GoodResponse	1	0.209	42.032	1	3	Target	Win	True
43.032	0.3	Win2	1.0	0.001	Yes	2.826	-0.001	2.0	GoodResponse	1	0.209	n/a	1	3	ButtonPress	Win	True
43.19	0.33	Win2	1.0	n/a	Yes	2.826	n/a	n/a	GoodResponse	1	n/a	n/a	1	3	Blank	Win	True
43.523	1.45	Win2	1.0	n/a	Yes	2.826	n/a	5.0	GoodResponse	1	0.013	42.536	1	3	Feedback	Win	True
44.972	2.826	Win2	1.0	n/a	Yes	2.826	n/a	n/a	GoodResponse	1	0.0	n/a	1	3	ISIslide	Win	True
47.821	0.25	Win2	0.8	0.0	No	3.279	0.021	n/a	NoResponse	0	n/a	n/a	1	4	Cue	MissedWin	True
48.071	4.0	Win2	0.8	0.0	No	3.279	0.0	2.0	NoResponse	0	3.955	51.026	1	4	Fixation	MissedWin	True
52.026	0.3	Win2	0.8	0.0	No	3.279	0.0	2.0	NoResponse	0	3.955	n/a	1	4	ButtonPress	MissedWin	True
52.07	0.36	Win2	0.8	0.001	No	3.279	-0.001	n/a	NoResponse	0	n/a	n/a	1	4	Target	MissedWin	True
52.436	0.34	Win2	0.8	n/a	No	3.279	n/a	n/a	NoResponse	0	n/a	n/a	1	4	Blank	MissedWin	True
52.769	1.45	Win2	0.8	n/a	No	3.279	n/a	5.0	NoResponse	0	0.036	51.805	1	4	Feedback	MissedWin	True
54.219	3.279	Win2	0.8	n/a	No	3.279	n/a	n/a	NoResponse	0	0.0	n/a	1	4	ISIslide	MissedWin	True
57.518	0.25	Win2	0.6667000000000001	0.0	No	2.782	0.018	n/a	NoResponse	0	n/a	n/a	1	5	Cue	MissedWin	True
57.768	4.0	Win2	0.6667000000000001	0.0	No	2.782	0.0	n/a	NoResponse	0	n/a	n/a	1	5	Fixation	MissedWin	True
61.766	0.35	Win2	0.6667000000000001	0.002	No	2.782	-0.002	2.0	NoResponse	0	0.427	61.193	1	5	Target	MissedWin	True
62.116	0.35	Win2	0.6667000000000001	n/a	No	2.782	n/a	n/a	NoResponse	0	n/a	n/a	1	5	Blank	MissedWin	True
62.193	0.3	Win2	0.6667000000000001	0.002	No	2.782	-0.002	2.0	NoResponse	0	0.427	n/a	1	5	ButtonPress	MissedWin	True
62.466	1.45	Win2	0.6667000000000001	n/a	No	2.782	n/a	5.0	NoResponse	0	0.046	61.512	1	5	Feedback	MissedWin	True
63.916	2.782	Win2	0.6667000000000001	n/a	No	2.782	n/a	n/a	NoResponse	0	0.0	n/a	1	5	ISIslide	MissedWin	True
66.715	0.25	Lose2	0.7143	0.0	Yes	2.735	0.015	n/a	GoodResponse	0	n/a	n/a	1	6	Cue	AvoidedLoss	True
66.964	3.95	Lose2	0.7143	0.001	Yes	2.735	-0.001	n/a	GoodResponse	0	n/a	n/a	1	6	Fixation	AvoidedLoss	True
70.913	0.34	Lose2	0.7143	0.002	Yes	2.735	-0.002	2.0	GoodResponse	0	0.197	70.11	1	6	Target	AvoidedLoss	True
71.11	0.3	Lose2	0.7143	0.002	Yes	2.735	-0.002	2.0	GoodResponse	0	0.197	n/a	1	6	ButtonPress	AvoidedLoss	True
71.263	0.36	Lose2	0.7143	n/a	Yes	2.735	n/a	n/a	GoodResponse	0	n/a	n/a	1	6	Blank	AvoidedLoss	True
71.613	1.45	Lose2	0.7143	n/a	Yes	2.735	n/a	5.0	GoodResponse	0	0.021	70.634	1	6	Feedback	AvoidedLoss	True
73.062	2.735	Lose2	0.7143	n/a	Yes	2.735	n/a	n/a	GoodResponse	0	0.0	n/a	1	6	ISIslide	AvoidedLoss	True
75.828	0.25	Lose2	0.625	0.0	No	4.022	0.028	n/a	NoResponse	-1	n/a	n/a	0	7	Cue	Loss	True
76.078	4.05	Lose2	0.625	0.0	No	4.022	0.0	n/a	NoResponse	-1	n/a	n/a	0	7	Fixation	Loss	True
80.126	0.33	Lose2	0.625	0.002	No	4.022	-0.002	2.0	NoResponse	-1	0.46	79.586	0	7	Target	Loss	True
80.46	0.37	Lose2	0.625	n/a	No	4.022	n/a	n/a	NoResponse	-1	n/a	n/a	0	7	Blank	Loss	True
80.586	0.3	Lose2	0.625	0.002	No	4.022	-0.002	2.0	NoResponse	-1	0.46	n/a	0	7	ButtonPress	Loss	True
80.826	1.45	Lose2	0.625	n/a	No	4.022	n/a	5.0	NoResponse	-1	0.027	79.853	0	7	Feedback	Loss	True
82.276	4.022	Lose2	0.625	n/a	No	4.022	n/a	n/a	NoResponse	-1	0.0	n/a	0	7	ISIslide	Loss	True
86.324	0.25	Lose2	0.6667000000000001	0.0	Yes	3.026	0.024	n/a	GoodResponse	0	n/a	n/a	0	8	Cue	AvoidedLoss	True
86.574	3.95	Lose2	0.6667000000000001	0.0	Yes	3.026	0.0	n/a	GoodResponse	0	n/a	n/a	0	8	Fixation	AvoidedLoss	True
90.523	0.34	Lose2	0.6667000000000001	0.001	Yes	3.026	-0.001	2.0	GoodResponse	0	0.188	89.711	0	8	Target	AvoidedLoss	True
90.711	0.3	Lose2	0.6667000000000001	0.001	Yes	3.026	-0.001	2.0	GoodResponse	0	0.188	n/a	0	8	ButtonPress	AvoidedLoss	True
90.873	0.36	Lose2	0.6667000000000001	n/a	Yes	3.026	n/a	n/a	GoodResponse	0	n/a	n/a	0	8	Blank	AvoidedLoss	True
91.222	1.45	Lose2	0.6667000000000001	n/a	Yes	3.026	n/a	5.0	GoodResponse	0	0.021	90.243	0	8	Feedback	AvoidedLoss	True
92.672	3.026	Lose2	0.6667000000000001	n/a	Yes	3.026	n/a	n/a	GoodResponse	0	0.0	n/a	0	8	ISIslide	AvoidedLoss	True
95.721	0.25	Lose2	0.7	0.0	Yes	3.129	0.021	n/a	GoodResponse	0	n/a	n/a	0	9	Cue	AvoidedLoss	True
95.971	3.95	Lose2	0.7	0.0	Yes	3.129	0.0	n/a	GoodResponse	0	n/a	n/a	0	9	Fixation	AvoidedLoss	True
99.919	0.33	Lose2	0.7	0.002	Yes	3.129	-0.002	2.0	GoodResponse	0	0.228	99.147	0	9	Target	AvoidedLoss	True
100.147	0.3	Lose2	0.7	0.002	Yes	3.129	-0.002	2.0	GoodResponse	0	0.228	n/a	0	9	ButtonPress	AvoidedLoss	True
100.253	0.37	Lose2	0.7	n/a	Yes	3.129	n/a	n/a	GoodResponse	0	n/a	n/a	0	9	Blank	AvoidedLoss	True
100.619	1.45	Lose2	0.7	n/a	Yes	3.129	n/a	5.0	GoodResponse	0	0.039	99.658	0	9	Feedback	AvoidedLoss	True
102.069	3.129	Lose2	0.7	n/a	Yes	3.129	n/a	n/a	GoodResponse	0	0.0	n/a	0	9	ISIslide	AvoidedLoss	True
105.217	0.25	Control	0.7273000000000001	0.001	Yes	3.283	0.017	n/a	GoodResponse	0	n/a	n/a	0	10	Cue	Neutral	True
105.467	4.0	Control	0.7273000000000001	0.0	Yes	3.283	0.0	n/a	GoodResponse	0	n/a	n/a	0	10	Fixation	Neutral	True
109.466	0.32	Control	0.7273000000000001	0.001	Yes	3.283	-0.001	2.0	GoodResponse	0	0.267	108.733	0	10	Target	Neutral	True
109.733	0.3	Control	0.7273000000000001	0.001	Yes	3.283	-0.001	2.0	GoodResponse	0	0.267	n/a	0	10	ButtonPress	Neutral	True
109.783	0.38	Control	0.7273000000000001	n/a	Yes	3.283	n/a	n/a	GoodResponse	0	n/a	n/a	0	10	Blank	Neutral	True
110.166	1.45	Control	0.7273000000000001	n/a	Yes	3.283	n/a	5.0	GoodResponse	0	0.006	109.172	0	10	Feedback	Neutral	True
111.615	3.283	Control	0.7273000000000001	n/a	Yes	3.283	n/a	n/a	GoodResponse	0	0.0	n/a	0	10	ISIslide	Neutral	True
114.914	0.25	Lose2	0.75	0.0	Yes	2.736	0.014	n/a	GoodResponse	0	n/a	n/a	0	11	Cue	AvoidedLoss	True
115.164	4.05	Lose2	0.75	0.0	Yes	2.736	0.0	n/a	GoodResponse	0	n/a	n/a	0	11	Fixation	AvoidedLoss	True
119.213	0.31	Lose2	0.75	0.001	Yes	2.736	-0.001	2.0	GoodResponse	0	0.23	118.443	0	11	Target	AvoidedLoss	True
119.443	0.3	Lose2	0.75	0.001	Yes	2.736	-0.001	2.0	GoodResponse	0	0.23	n/a	0	11	ButtonPress	AvoidedLoss	True
119.529	0.39	Lose2	0.75	n/a	Yes	2.736	n/a	n/a	GoodResponse	0	n/a	n/a	0	11	Blank	AvoidedLoss	True
119.912	1.45	Lose2	0.75	n/a	Yes	2.736	n/a	5.0	GoodResponse	0	0.013	118.925	0	11	Feedback	AvoidedLoss	True
121.362	2.736	Lose2	0.75	n/a	Yes	2.736	n/a	n/a	GoodResponse	0	0.0	n/a	0	11	ISIslide	AvoidedLoss	True
124.127	0.25	Control	0.7692	0.001	Yes	2.973	0.027	n/a	GoodResponse	0	n/a	n/a	0	12	Cue	Neutral	True
124.377	3.9	Control	0.7692	0.0	Yes	2.973	0.0	n/a	GoodResponse	0	n/a	n/a	0	12	Fixation	Neutral	True
128.276	0.3	Control	0.7692	0.001	Yes	2.973	-0.001	2.0	GoodResponse	0	0.221	127.497	0	12	Target	Neutral	True
128.497	0.3	Control	0.7692	0.001	Yes	2.973	-0.001	2.0	GoodResponse	0	0.221	n/a	0	12	ButtonPress	Neutral	True
128.576	0.4	Control	0.7692	n/a	Yes	2.973	n/a	n/a	GoodResponse	0	n/a	n/a	0	12	Blank	Neutral	True
128.976	1.45	Control	0.7692	n/a	Yes	2.973	n/a	5.0	GoodResponse	0	0.023	127.999	0	12	Feedback	Neutral	True
130.425	2.973	Control	0.7692	n/a	Yes	2.973	n/a	n/a	GoodResponse	0	0.0	n/a	0	12	ISIslide	Neutral	True
133.424	0.25	Control	0.7857	0.0	Yes	2.776	0.024	n/a	GoodResponse	0	n/a	n/a	0	13	Cue	Neutral	True
133.674	4.0	Control	0.7857	0.0	Yes	2.776	0.0	n/a	GoodResponse	0	n/a	n/a	0	13	Fixation	Neutral	True
137.673	0.29	Control	0.7857	0.001	Yes	2.776	-0.001	2.0	GoodResponse	0	0.231	136.904	0	13	Target	Neutral	True
137.904	0.3	Control	0.7857	0.001	Yes	2.776	-0.001	2.0	GoodResponse	0	0.231	n/a	0	13	ButtonPress	Neutral	True
137.973	0.41	Control	0.7857	n/a	Yes	2.776	n/a	n/a	GoodResponse	0	n/a	n/a	0	13	Blank	Neutral	True
138.372	1.45	Control	0.7857	n/a	Yes	2.776	n/a	5.0	GoodResponse	0	0.041	137.413	0	13	Feedback	Neutral	True
139.822	2.776	Control	0.7857	n/a	Yes	2.776	n/a	n/a	GoodResponse	0	0.0	n/a	0	13	ISIslide	Neutral	True
142.621	0.25	Win2	0.8	0.0	Yes	2.679	0.021	n/a	GoodResponse	1	n/a	n/a	1	14	Cue	Win	True
142.871	4.1	Win2	0.8	0.0	Yes	2.679	0.0	n/a	GoodResponse	1	n/a	n/a	1	14	Fixation	Win	True
146.969	0.28	Win2	0.8	0.002	Yes	2.679	-0.002	2.0	GoodResponse	1	0.221	146.19	1	14	Target	Win	True
147.19	0.3	Win2	0.8	0.002	Yes	2.679	-0.002	2.0	GoodResponse	1	0.221	n/a	1	14	ButtonPress	Win	True
147.253	0.42	Win2	0.8	n/a	Yes	2.679	n/a	n/a	GoodResponse	1	n/a	n/a	1	14	Blank	Win	True
147.669	1.45	Win2	0.8	n/a	Yes	2.679	n/a	5.0	GoodResponse	1	0.013	146.682	1	14	Feedback	Win	True
149.119	2.679	Win2	0.8	n/a	Yes	2.679	n/a	n/a	GoodResponse	1	0.0	n/a	1	14	ISIslide	Win	True
151.818	0.25	Control	0.8125	0.0	Yes	2.982	0.018	n/a	GoodResponse	0	n/a	n/a	1	15	Cue	Neutral	True
152.067	4.0	Control	0.8125	0.001	Yes	2.982	-0.001	n/a	GoodResponse	0	n/a	n/a	1	15	Fixation	Neutral	True
156.066	0.27	Control	0.8125	0.002	Yes	2.982	-0.002	2.0	GoodResponse	0	0.212	155.278	1	15	Target	Neutral	True
156.278	0.3	Control	0.8125	0.002	Yes	2.982	-0.002	2.0	GoodResponse	0	0.212	n/a	1	15	ButtonPress	Neutral	True
156.349	0.43	Control	0.8125	n/a	Yes	2.982	n/a	n/a	GoodResponse	0	n/a	n/a	1	15	Blank	Neutral	True
156.766	1.45	Control	0.8125	n/a	Yes	2.982	n/a	5.0	GoodResponse	0	0.037	155.803	1	15	Feedback	Neutral	True
158.215	2.982	Control	0.8125	n/a	Yes	2.982	n/a	n/a	GoodResponse	0	0.0	n/a	1	15	ISIslide	Neutral	True
161.214	0.25	Win2	0.8234999999999999	0.0	Yes	2.886	0.014	n/a	GoodResponse	1	n/a	n/a	2	16	Cue	Win	True
161.464	4.0	Win2	0.8234999999999999	0.0	Yes	2.886	0.0	n/a	GoodResponse	1	n/a	n/a	2	16	Fixation	Win	True
165.463	0.26	Win2	0.8234999999999999	0.001	Yes	2.886	-0.001	2.0	GoodResponse	1	0.205	164.668	2	16	Target	Win	True
165.668	0.3	Win2	0.8234999999999999	0.001	Yes	2.886	-0.001	2.0	GoodResponse	1	0.205	n/a	2	16	ButtonPress	Win	True
165.729	0.44	Win2	0.8234999999999999	n/a	Yes	2.886	n/a	n/a	GoodResponse	1	n/a	n/a	2	16	Blank	Win	True
166.162	1.45	Win2	0.8234999999999999	n/a	Yes	2.886	n/a	5.0	GoodResponse	1	0.007	165.169	2	16	Feedback	Win	True
167.612	2.886	Win2	0.8234999999999999	n/a	Yes	2.886	n/a	n/a	GoodResponse	1	0.0	n/a	2	16	ISIslide	Win	True
170.528	0.25	Lose2	0.8332999999999999	0.0	Yes	2.722	0.028	n/a	GoodResponse	0	n/a	n/a	2	17	Cue	AvoidedLoss	True
170.777	3.95	Lose2	0.8332999999999999	0.001	Yes	2.722	-0.001	n/a	GoodResponse	0	n/a	n/a	2	17	Fixation	AvoidedLoss	True
174.726	0.25	Lose2	0.8332999999999999	0.002	Yes	2.722	-0.002	2.0	GoodResponse	0	0.23	173.956	2	17	Target	AvoidedLoss	True
174.956	0.3	Lose2	0.8332999999999999	0.002	Yes	2.722	-0.002	2.0	GoodResponse	0	0.23	n/a	2	17	ButtonPress	AvoidedLoss	True
174.976	0.45	Lose2	0.8332999999999999	n/a	Yes	2.722	n/a	n/a	GoodResponse	0	n/a	n/a	2	17	Blank	AvoidedLoss	True
175.426	1.45	Lose2	0.8332999999999999	n/a	Yes	2.722	n/a	5.0	GoodResponse	0	0.011	174.437	2	17	Feedback	AvoidedLoss	True
176.875	2.722	Lose2	0.8332999999999999	n/a	Yes	2.722	n/a	n/a	GoodResponse	0	0.0	n/a	2	17	ISIslide	AvoidedLoss	True
179.624	0.25	Lose2	0.8421	0.0	Yes	2.726	0.024	n/a	GoodResponse	0	n/a	n/a	2	18	Cue	AvoidedLoss	True
179.874	4.05	Lose2	0.8421	0.0	Yes	2.726	0.0	n/a	GoodResponse	0	n/a	n/a	2	18	Fixation	AvoidedLoss	True
183.923	0.24	Lose2	0.8421	0.001	Yes	2.726	-0.001	2.0	GoodResponse	0	0.2	183.123	2	18	Target	AvoidedLoss	True
184.123	0.3	Lose2	0.8421	0.001	Yes	2.726	-0.001	2.0	GoodResponse	0	0.2	n/a	2	18	ButtonPress	AvoidedLoss	True
184.173	0.46	Lose2	0.8421	n/a	Yes	2.726	n/a	n/a	GoodResponse	0	n/a	n/a	2	18	Blank	AvoidedLoss	True
184.623	1.45	Lose2	0.8421	n/a	Yes	2.726	n/a	5.0	GoodResponse	0	0.034	183.657	2	18	Feedback	AvoidedLoss	True
186.072	2.726	Lose2	0.8421	n/a	Yes	2.726	n/a	n/a	GoodResponse	0	0.0	n/a	2	18	ISIslide	AvoidedLoss	True
188.821	0.25	Control	0.8	0.0	No	2.929	0.021	n/a	NoResponse	0	n/a	n/a	2	19	Cue	Neutral	True
189.071	3.95	Control	0.8	0.0	No	2.929	0.0	n/a	NoResponse	0	n/a	n/a	2	19	Fixation	Neutral	True
193.02	0.23	Control	0.8	0.001	No	2.929	-0.001	2.0	NoResponse	0	0.255	192.275	2	19	Target	Neutral	True
193.253	0.47	Control	0.8	n/a	No	2.929	n/a	n/a	NoResponse	0	n/a	n/a	2	19	Blank	Neutral	True
193.275	0.3	Control	0.8	0.001	No	2.929	-0.001	2.0	NoResponse	0	0.255	n/a	2	19	ButtonPress	Neutral	True
193.719	1.45	Control	0.8	n/a	No	2.929	n/a	5.0	NoResponse	0	0.01	192.729	2	19	Feedback	Neutral	True
195.169	2.929	Control	0.8	n/a	No	2.929	n/a	n/a	NoResponse	0	0.0	n/a	2	19	ISIslide	Neutral	True
198.118	0.25	Control	0.8095	0.0	Yes	2.632	0.018	n/a	GoodResponse	0	n/a	n/a	2	20	Cue	Neutral	True
198.368	4.05	Control	0.8095	0.0	Yes	2.632	0.0	n/a	GoodResponse	0	n/a	n/a	2	20	Fixation	Neutral	True
202.416	0.22	Control	0.8095	0.002	Yes	2.632	-0.002	2.0	GoodResponse	0	0.218	201.634	2	20	Target	Neutral	True
202.634	0.3	Control	0.8095	0.002	Yes	2.632	-0.002	2.0	GoodResponse	0	0.218	n/a	2	20	ButtonPress	Neutral	True
202.649	0.48	Control	0.8095	n/a	Yes	2.632	n/a	n/a	GoodResponse	0	n/a	n/a	2	20	Blank	Neutral	True
203.116	1.45	Control	0.8095	n/a	Yes	2.632	n/a	5.0	GoodResponse	0	0.028	202.144	2	20	Feedback	Neutral	True
204.565	2.632	Control	0.8095	n/a	Yes	2.632	n/a	n/a	GoodResponse	0	0.0	n/a	2	20	ISIslide	Neutral	True
207.215	0.25	Control	0.7726999999999999	0.0	No	2.785	0.015	n/a	NoResponse	0	n/a	n/a	2	21	Cue	Neutral	True
207.464	4.1	Control	0.7726999999999999	0.001	No	2.785	-0.001	n/a	NoResponse	0	n/a	n/a	2	21	Fixation	Neutral	True
211.563	0.21	Control	0.7726999999999999	0.002	No	2.785	-0.002	2.0	NoResponse	0	0.332	210.895	2	21	Target	Neutral	True
211.78	0.49	Control	0.7726999999999999	n/a	No	2.785	n/a	n/a	NoResponse	0	n/a	n/a	2	21	Blank	Neutral	True
211.895	0.3	Control	0.7726999999999999	0.002	No	2.785	-0.002	2.0	NoResponse	0	0.332	n/a	2	21	ButtonPress	Neutral	True
212.263	1.45	Control	0.7726999999999999	n/a	No	2.785	n/a	5.0	NoResponse	0	0.007	211.27	2	21	Feedback	Neutral	True
213.712	2.785	Control	0.7726999999999999	n/a	No	2.785	n/a	n/a	NoResponse	0	0.0	n/a	2	21	ISIslide	Neutral	True
216.528	0.25	Control	0.7391	0.0	No	2.772	0.028	n/a	LatePress	0	n/a	n/a	2	22	Cue	Neutral	True
216.778	4.0	Control	0.7391	0.0	No	2.772	0.0	n/a	LatePress	0	n/a	n/a	2	22	Fixation	Neutral	True
220.776	0.2	Control	0.7391	0.002	No	2.772	-0.002	2.0	LatePress	0	0.2	219.976	2	22	Target	Neutral	True
220.976	0.5	Control	0.7391	n/a	No	2.772	n/a	n/a	LatePress	0	n/a	n/a	2	22	Blank	Neutral	True
220.976	0.3	Control	0.7391	0.002	No	2.772	-0.002	2.0	LatePress	0	0.2	n/a	2	22	ButtonPress	Neutral	True
221.476	1.45	Control	0.7391	n/a	No	2.772	n/a	5.0	LatePress	0	0.01	220.486	2	22	Feedback	Neutral	True
222.926	2.772	Control	0.7391	n/a	No	2.772	n/a	n/a	LatePress	0	0.0	n/a	2	22	ISIslide	Neutral	True
225.725	0.25	Control	0.7082999999999999	0.0	No	2.775	0.025	n/a	NoResponse	0	n/a	n/a	2	23	Cue	Neutral	True
225.975	3.9	Control	0.7082999999999999	0.0	No	2.775	0.0	n/a	NoResponse	0	n/a	n/a	2	23	Fixation	Neutral	True
229.873	0.19	Control	0.7082999999999999	0.002	No	2.775	-0.002	2.0	NoResponse	0	0.224	229.097	2	23	Target	Neutral	True
230.073	0.51	Control	0.7082999999999999	n/a	No	2.775	n/a	n/a	NoResponse	0	n/a	n/a	2	23	Blank	Neutral	True
230.097	0.3	Control	0.7082999999999999	0.002	No	2.775	-0.002	2.0	NoResponse	0	0.224	n/a	2	23	ButtonPress	Neutral	True
230.573	1.45	Control	0.7082999999999999	n/a	No	2.775	n/a	5.0	NoResponse	0	0.034	229.607	2	23	Feedback	Neutral	True
232.022	2.775	Control	0.7082999999999999	n/a	No	2.775	n/a	n/a	NoResponse	0	0.0	n/a	2	23	ISIslide	Neutral	True
234.821	0.25	Win2	0.68	0.0	No	3.129	0.021	n/a	NoResponse	0	n/a	n/a	2	24	Cue	MissedWin	True
235.071	3.95	Win2	0.68	0.0	No	3.129	0.0	n/a	NoResponse	0	n/a	n/a	2	24	Fixation	MissedWin	True
239.02	0.18	Win2	0.68	0.001	No	3.129	-0.001	2.0	NoResponse	0	0.191	238.211	2	24	Target	MissedWin	True
239.203	0.52	Win2	0.68	n/a	No	3.129	n/a	n/a	NoResponse	0	n/a	n/a	2	24	Blank	MissedWin	True
239.211	0.3	Win2	0.68	0.001	No	3.129	-0.001	2.0	NoResponse	0	0.191	n/a	2	24	ButtonPress	MissedWin	True
239.72	1.45	Win2	0.68	n/a	No	3.129	n/a	5.0	NoResponse	0	0.009	238.729	2	24	Feedback	MissedWin	True
241.169	3.129	Win2	0.68	n/a	No	3.129	n/a	n/a	NoResponse	0	0.0	n/a	2	24	ISIslide	MissedWin	True
244.318	0.25	Win2	0.6537999999999999	0.0	No	3.082	0.018	n/a	LatePress	0	n/a	n/a	2	25	Cue	MissedWin	True
244.568	4.0	Win2	0.6537999999999999	0.0	No	3.082	0.0	n/a	LatePress	0	n/a	n/a	2	25	Fixation	MissedWin	True
248.566	0.17	Win2	0.6537999999999999	0.002	No	3.082	-0.002	2.0	LatePress	0	0.181	247.747	2	25	Target	MissedWin	True
248.747	0.3	Win2	0.6537999999999999	0.002	No	3.082	-0.002	2.0	LatePress	0	0.181	n/a	2	25	ButtonPress	MissedWin	True
248.75	0.53	Win2	0.6537999999999999	n/a	No	3.082	n/a	n/a	LatePress	0	n/a	n/a	2	25	Blank	MissedWin	True
249.266	1.45	Win2	0.6537999999999999	n/a	No	3.082	n/a	5.0	LatePress	0	0.024	248.29	2	25	Feedback	MissedWin	True
250.716	3.082	Win2	0.6537999999999999	n/a	No	3.082	n/a	n/a	LatePress	0	0.0	n/a	2	25	ISIslide	MissedWin	True
253.815	0.25	Win2	0.6296	0.0	No	2.935	0.015	n/a	NoResponse	0	n/a	n/a	2	26	Cue	MissedWin	True
254.065	3.95	Win2	0.6296	0.0	No	2.935	0.0	n/a	NoResponse	0	n/a	n/a	2	26	Fixation	MissedWin	True
258.013	0.18	Win2	0.6296	0.002	No	2.935	-0.002	2.0	NoResponse	0	0.194	257.207	2	26	Target	MissedWin	True
258.196	0.52	Win2	0.6296	n/a	No	2.935	n/a	n/a	NoResponse	0	n/a	n/a	2	26	Blank	MissedWin	True
258.207	0.3	Win2	0.6296	0.002	No	2.935	-0.002	2.0	NoResponse	0	0.194	n/a	2	26	ButtonPress	MissedWin	True
258.713	1.45	Win2	0.6296	n/a	No	2.935	n/a	5.0	NoResponse	0	0.039	257.752	2	26	Feedback	MissedWin	True
260.162	2.935	Win2	0.6296	n/a	No	2.935	n/a	n/a	NoResponse	0	0.0	n/a	2	26	ISIslide	MissedWin	True
263.128	0.25	Lose2	0.6071	0.0	No	2.822	0.028	n/a	NoResponse	-1	n/a	n/a	1	27	Cue	Loss	True
263.378	4.05	Lose2	0.6071	0.0	No	2.822	0.0	n/a	NoResponse	-1	n/a	n/a	1	27	Fixation	Loss	True
267.426	0.19	Lose2	0.6071	0.002	No	2.822	-0.002	2.0	NoResponse	-1	0.208	266.634	1	27	Target	Loss	True
267.626	0.51	Lose2	0.6071	n/a	No	2.822	n/a	n/a	NoResponse	-1	n/a	n/a	1	27	Blank	Loss	True
267.634	0.3	Lose2	0.6071	0.002	No	2.822	-0.002	2.0	NoResponse	-1	0.208	n/a	1	27	ButtonPress	Loss	True
268.126	1.45	Lose2	0.6071	n/a	No	2.822	n/a	5.0	NoResponse	-1	0.041	267.167	1	27	Feedback	Loss	True
269.576	2.822	Lose2	0.6071	n/a	No	2.822	n/a	n/a	NoResponse	-1	0.0	n/a	1	27	ISIslide	Loss	True
272.425	0.25	Control	0.5861999999999999	0.0	No	2.825	0.025	n/a	NoResponse	0	n/a	n/a	1	28	Cue	Neutral	True
272.675	4.05	Control	0.5861999999999999	0.0	No	2.825	0.0	n/a	NoResponse	0	n/a	n/a	1	28	Fixation	Neutral	True
276.723	0.2	Control	0.5861999999999999	0.002	No	2.825	-0.002	2.0	NoResponse	0	0.23	275.953	1	28	Target	Neutral	True
276.923	0.5	Control	0.5861999999999999	n/a	No	2.825	n/a	n/a	NoResponse	0	n/a	n/a	1	28	Blank	Neutral	True
276.953	0.3	Control	0.5861999999999999	0.002	No	2.825	-0.002	2.0	NoResponse	0	0.23	n/a	1	28	ButtonPress	Neutral	True
277.423	1.45	Control	0.5861999999999999	n/a	No	2.825	n/a	5.0	NoResponse	0	0.013	276.436	1	28	Feedback	Neutral	True
278.872	2.825	Control	0.5861999999999999	n/a	No	2.825	n/a	n/a	NoResponse	0	0.0	n/a	1	28	ISIslide	Neutral	True
281.721	0.25	Lose2	0.6	0.0	Yes	2.829	0.021	n/a	GoodResponse	0	n/a	n/a	1	29	Cue	AvoidedLoss	True
281.971	3.95	Lose2	0.6	0.0	Yes	2.829	0.0	n/a	GoodResponse	0	n/a	n/a	1	29	Fixation	AvoidedLoss	True
285.92	0.21	Lose2	0.6	0.001	Yes	2.829	-0.001	2.0	GoodResponse	0	0.193	285.113	1	29	Target	AvoidedLoss	True
286.113	0.3	Lose2	0.6	0.001	Yes	2.829	-0.001	2.0	GoodResponse	0	0.193	n/a	1	29	ButtonPress	AvoidedLoss	True
286.136	0.49	Lose2	0.6	n/a	Yes	2.829	n/a	n/a	GoodResponse	0	n/a	n/a	1	29	Blank	AvoidedLoss	True
286.62	1.45	Lose2	0.6	n/a	Yes	2.829	n/a	5.0	GoodResponse	0	0.035	285.655	1	29	Feedback	AvoidedLoss	True
288.069	2.829	Lose2	0.6	n/a	Yes	2.829	n/a	n/a	GoodResponse	0	0.0	n/a	1	29	ISIslide	AvoidedLoss	True
290.918	0.25	Win2	0.5806	0.0	No	2.782	0.018	n/a	NoResponse	0	n/a	n/a	1	30	Cue	MissedWin	True
291.168	3.9	Win2	0.5806	0.0	No	2.782	0.0	n/a	NoResponse	0	n/a	n/a	1	30	Fixation	MissedWin	True
295.067	0.22	Win2	0.5806	0.001	No	2.782	-0.001	2.0	NoResponse	0	0.24	294.307	1	30	Target	MissedWin	True
295.3	0.48	Win2	0.5806	n/a	No	2.782	n/a	n/a	NoResponse	0	n/a	n/a	1	30	Blank	MissedWin	True
295.307	0.3	Win2	0.5806	0.001	No	2.782	-0.001	2.0	NoResponse	0	0.24	n/a	1	30	ButtonPress	MissedWin	True
295.766	1.45	Win2	0.5806	n/a	No	2.782	n/a	5.0	NoResponse	0	0.011	294.777	1	30	Feedback	MissedWin	True
297.216	2.782	Win2	0.5806	n/a	No	2.782	n/a	n/a	NoResponse	0	0.0	n/a	1	30	ISIslide	MissedWin	True
300.015	0.25	Lose2	0.5938	0.0	Yes	2.835	0.015	n/a	GoodResponse	0	n/a	n/a	1	31	Cue	AvoidedLoss	True
300.265	4.05	Lose2	0.5938	0.0	Yes	2.835	0.0	n/a	GoodResponse	0	n/a	n/a	1	31	Fixation	AvoidedLoss	True
304.313	0.23	Lose2	0.5938	0.002	Yes	2.835	-0.002	2.0	GoodResponse	0	0.179	303.492	1	31	Target	AvoidedLoss	True
304.492	0.3	Lose2	0.5938	0.002	Yes	2.835	-0.002	2.0	GoodResponse	0	0.179	n/a	1	31	ButtonPress	AvoidedLoss	True
304.547	0.47	Lose2	0.5938	n/a	Yes	2.835	n/a	n/a	GoodResponse	0	n/a	n/a	1	31	Blank	AvoidedLoss	True
305.013	1.45	Lose2	0.5938	n/a	Yes	2.835	n/a	5.0	GoodResponse	0	0.032	304.045	1	31	Feedback	AvoidedLoss	True
306.463	2.835	Lose2	0.5938	n/a	Yes	2.835	n/a	n/a	GoodResponse	0	0.0	n/a	1	31	ISIslide	AvoidedLoss	True
309.328	0.25	Lose2	0.6061	0.0	Yes	2.622	0.028	n/a	GoodResponse	0	n/a	n/a	1	32	Cue	AvoidedLoss	True
309.578	4.15	Lose2	0.6061	0.0	Yes	2.622	0.0	n/a	GoodResponse	0	n/a	n/a	1	32	Fixation	AvoidedLoss	True
313.727	0.24	Lose2	0.6061	0.001	Yes	2.622	-0.001	2.0	GoodResponse	0	0.187	312.914	1	32	Target	AvoidedLoss	True
313.914	0.3	Lose2	0.6061	0.001	Yes	2.622	-0.001	2.0	GoodResponse	0	0.187	n/a	1	32	ButtonPress	AvoidedLoss	True
313.977	0.46	Lose2	0.6061	n/a	Yes	2.622	n/a	n/a	GoodResponse	0	n/a	n/a	1	32	Blank	AvoidedLoss	True
314.426	1.45	Lose2	0.6061	n/a	Yes	2.622	n/a	5.0	GoodResponse	0	0.033	313.459	1	32	Feedback	AvoidedLoss	True
315.876	2.622	Lose2	0.6061	n/a	Yes	2.622	n/a	n/a	GoodResponse	0	0.0	n/a	1	32	ISIslide	AvoidedLoss	True
318.525	0.25	Win2	0.6175999999999999	0.0	Yes	2.675	0.025	n/a	GoodResponse	1	n/a	n/a	2	33	Cue	Win	True
318.775	4.0	Win2	0.6175999999999999	0.0	Yes	2.675	0.0	n/a	GoodResponse	1	n/a	n/a	2	33	Fixation	Win	True
322.773	0.25	Win2	0.6175999999999999	0.002	Yes	2.675	-0.002	2.0	GoodResponse	1	0.213	321.986	2	33	Target	Win	True
322.986	0.3	Win2	0.6175999999999999	0.002	Yes	2.675	-0.002	2.0	GoodResponse	1	0.213	n/a	2	33	ButtonPress	Win	True
323.023	0.45	Win2	0.6175999999999999	n/a	Yes	2.675	n/a	n/a	GoodResponse	1	n/a	n/a	2	33	Blank	Win	True
323.473	1.45	Win2	0.6175999999999999	n/a	Yes	2.675	n/a	5.0	GoodResponse	1	0.011	322.484	2	33	Feedback	Win	True
324.923	2.675	Win2	0.6175999999999999	n/a	Yes	2.675	n/a	n/a	GoodResponse	1	0.0	n/a	2	33	ISIslide	Win	True
327.622	0.25	Lose2	0.6286	0.0	Yes	2.628	0.022	n/a	GoodResponse	0	n/a	n/a	2	34	Cue	AvoidedLoss	True
327.872	4.05	Lose2	0.6286	0.0	Yes	2.628	0.0	n/a	GoodResponse	0	n/a	n/a	2	34	Fixation	AvoidedLoss	True
331.92	0.26	Lose2	0.6286	0.002	Yes	2.628	-0.002	2.0	GoodResponse	0	0.196	331.116	2	34	Target	AvoidedLoss	True
332.116	0.3	Lose2	0.6286	0.002	Yes	2.628	-0.002	2.0	GoodResponse	0	0.196	n/a	2	34	ButtonPress	AvoidedLoss	True
332.187	0.44	Lose2	0.6286	n/a	Yes	2.628	n/a	n/a	GoodResponse	0	n/a	n/a	2	34	Blank	AvoidedLoss	True
332.62	1.45	Lose2	0.6286	n/a	Yes	2.628	n/a	5.0	GoodResponse	0	0.035	331.655	2	34	Feedback	AvoidedLoss	True
334.069	2.628	Lose2	0.6286	n/a	Yes	2.628	n/a	n/a	GoodResponse	0	0.0	n/a	2	34	ISIslide	AvoidedLoss	True
336.718	0.25	Lose2	0.6111	0.001	No	2.682	0.018	n/a	NoResponse	-1	n/a	n/a	1	35	Cue	Loss	False
336.968	4.0	Lose2	0.6111	0.0	No	2.682	0.0	n/a	NoResponse	-1	n/a	n/a	1	35	Fixation	Loss	False
340.967	0.27	Lose2	0.6111	0.001	No	2.682	-0.001	n/a	NoResponse	-1	n/a	n/a	1	35	Target	Loss	False
341.234	0.43	Lose2	0.6111	n/a	No	2.682	n/a	n/a	NoResponse	-1	n/a	n/a	1	35	Blank	Loss	False
341.667	1.45	Lose2	0.6111	n/a	No	2.682	n/a	5.0	NoResponse	-1	0.011	340.678	1	35	Feedback	Loss	False
343.116	2.682	Lose2	0.6111	n/a	No	2.682	n/a	n/a	NoResponse	-1	0.0	n/a	1	35	ISIslide	Loss	False
345.815	0.25	Control	0.6215999999999999	0.0	Yes	2.685	0.015	n/a	GoodResponse	0	n/a	n/a	1	36	Cue	Neutral	True
346.065	4.0	Control	0.6215999999999999	0.0	Yes	2.685	0.0	n/a	GoodResponse	0	n/a	n/a	1	36	Fixation	Neutral	True
350.064	0.28	Control	0.6215999999999999	0.001	Yes	2.685	-0.001	2.0	GoodResponse	0	0.208	349.272	1	36	Target	Neutral	True
350.272	0.3	Control	0.6215999999999999	0.001	Yes	2.685	-0.001	2.0	GoodResponse	0	0.208	n/a	1	36	ButtonPress	Neutral	True
350.347	0.42	Control	0.6215999999999999	n/a	Yes	2.685	n/a	n/a	GoodResponse	0	n/a	n/a	1	36	Blank	Neutral	True
350.763	1.45	Control	0.6215999999999999	n/a	Yes	2.685	n/a	5.0	GoodResponse	0	0.037	349.8	1	36	Feedback	Neutral	True
352.213	2.685	Control	0.6215999999999999	n/a	Yes	2.685	n/a	n/a	GoodResponse	0	0.0	n/a	1	36	ISIslide	Neutral	True
354.912	0.25	Win2	0.6315999999999999	0.0	Yes	2.888	0.012	n/a	GoodResponse	1	n/a	n/a	2	37	Cue	Win	True
355.162	4.0	Win2	0.6315999999999999	0.0	Yes	2.888	0.0	n/a	GoodResponse	1	n/a	n/a	2	37	Fixation	Win	True
359.16	0.29	Win2	0.6315999999999999	0.002	Yes	2.888	-0.002	2.0	GoodResponse	1	0.194	358.354	2	37	Target	Win	True
359.354	0.3	Win2	0.6315999999999999	0.002	Yes	2.888	-0.002	2.0	GoodResponse	1	0.194	n/a	2	37	ButtonPress	Win	True
359.46	0.41	Win2	0.6315999999999999	n/a	Yes	2.888	n/a	n/a	GoodResponse	1	n/a	n/a	2	37	Blank	Win	True
359.86	1.45	Win2	0.6315999999999999	n/a	Yes	2.888	n/a	5.0	GoodResponse	1	0.014	358.874	2	37	Feedback	Win	True
361.31	2.888	Win2	0.6315999999999999	n/a	Yes	2.888	n/a	n/a	GoodResponse	1	0.0	n/a	2	37	ISIslide	Win	True
364.225	0.25	Lose2	0.6409999999999999	0.0	Yes	2.825	0.025	n/a	GoodResponse	0	n/a	n/a	2	38	Cue	AvoidedLoss	True
364.475	3.95	Lose2	0.6409999999999999	0.0	Yes	2.825	0.0	n/a	GoodResponse	0	n/a	n/a	2	38	Fixation	AvoidedLoss	True
368.424	0.3	Lose2	0.6409999999999999	0.001	Yes	2.825	-0.001	2.0	GoodResponse	0	0.235	367.659	2	38	Target	AvoidedLoss	True
368.659	0.3	Lose2	0.6409999999999999	0.001	Yes	2.825	-0.001	2.0	GoodResponse	0	0.235	n/a	2	38	ButtonPress	AvoidedLoss	True
368.724	0.4	Lose2	0.6409999999999999	n/a	Yes	2.825	n/a	n/a	GoodResponse	0	n/a	n/a	2	38	Blank	AvoidedLoss	True
369.124	1.45	Lose2	0.6409999999999999	n/a	Yes	2.825	n/a	5.0	GoodResponse	0	0.018	368.142	2	38	Feedback	AvoidedLoss	True
370.573	2.825	Lose2	0.6409999999999999	n/a	Yes	2.825	n/a	n/a	GoodResponse	0	0.0	n/a	2	38	ISIslide	AvoidedLoss	True
373.422	0.25	Win2	0.65	0.0	Yes	2.978	0.022	n/a	GoodResponse	1	n/a	n/a	3	39	Cue	Win	True
373.672	4.1	Win2	0.65	0.0	Yes	2.978	0.0	n/a	GoodResponse	1	n/a	n/a	3	39	Fixation	Win	True
377.771	0.31	Win2	0.65	0.001	Yes	2.978	-0.001	2.0	GoodResponse	1	0.189	376.96	3	39	Target	Win	True
377.96	0.3	Win2	0.65	0.001	Yes	2.978	-0.001	2.0	GoodResponse	1	0.189	n/a	3	39	ButtonPress	Win	True
378.087	0.39	Win2	0.65	n/a	Yes	2.978	n/a	n/a	GoodResponse	1	n/a	n/a	3	39	Blank	Win	True
378.47	1.45	Win2	0.65	n/a	Yes	2.978	n/a	5.0	GoodResponse	1	0.037	377.507	3	39	Feedback	Win	True
379.92	2.978	Win2	0.65	n/a	Yes	2.978	n/a	n/a	GoodResponse	1	0.0	n/a	3	39	ISIslide	Win	True
382.919	0.25	Win2	0.6585	0.0	Yes	2.731	0.019	n/a	GoodResponse	1	n/a	n/a	4	40	Cue	Win	True
383.169	3.95	Win2	0.6585	0.0	Yes	2.731	0.0	n/a	GoodResponse	1	n/a	n/a	4	40	Fixation	Win	True
387.117	0.32	Win2	0.6585	0.002	Yes	2.731	-0.002	2.0	GoodResponse	1	0.196	386.313	4	40	Target	Win	True
387.313	0.3	Win2	0.6585	0.002	Yes	2.731	-0.002	2.0	GoodResponse	1	0.196	n/a	4	40	ButtonPress	Win	True
387.45	0.38	Win2	0.6585	n/a	Yes	2.731	n/a	n/a	GoodResponse	1	n/a	n/a	4	40	Blank	Win	True
387.817	1.45	Win2	0.6585	n/a	Yes	2.731	n/a	5.0	GoodResponse	1	0.007	386.824	4	40	Feedback	Win	True
389.266	2.731	Win2	0.6585	n/a	Yes	2.731	n/a	n/a	GoodResponse	1	0.0	n/a	4	40	ISIslide	Win	True
392.015	0.25	Win2	0.6667000000000001	0.001	Yes	2.785	0.015	n/a	GoodResponse	1	n/a	n/a	5	41	Cue	Win	True
392.265	3.9	Win2	0.6667000000000001	0.0	Yes	2.785	0.0	n/a	GoodResponse	1	n/a	n/a	5	41	Fixation	Win	True
396.164	0.32	Win2	0.6667000000000001	0.001	Yes	2.785	-0.001	2.0	GoodResponse	1	0.194	395.358	5	41	Target	Win	True
396.358	0.3	Win2	0.6667000000000001	0.001	Yes	2.785	-0.001	2.0	GoodResponse	1	0.194	n/a	5	41	ButtonPress	Win	True
396.481	0.38	Win2	0.6667000000000001	n/a	Yes	2.785	n/a	n/a	GoodResponse	1	n/a	n/a	5	41	Blank	Win	True
396.864	1.45	Win2	0.6667000000000001	n/a	Yes	2.785	n/a	5.0	GoodResponse	1	0.033	395.897	5	41	Feedback	Win	True
398.313	2.785	Win2	0.6667000000000001	n/a	Yes	2.785	n/a	n/a	GoodResponse	1	0.0	n/a	5	41	ISIslide	Win	True
401.112	0.25	Control	0.6744	0.0	Yes	2.938	0.012	n/a	GoodResponse	0	n/a	n/a	5	42	Cue	Neutral	True
401.362	3.85	Control	0.6744	0.0	Yes	2.938	0.0	n/a	GoodResponse	0	n/a	n/a	5	42	Fixation	Neutral	True
405.211	0.31	Control	0.6744	0.001	Yes	2.938	-0.001	2.0	GoodResponse	0	0.245	404.456	5	42	Target	Neutral	True
405.456	0.3	Control	0.6744	0.001	Yes	2.938	-0.001	2.0	GoodResponse	0	0.245	n/a	5	42	ButtonPress	Neutral	True
405.527	0.39	Control	0.6744	n/a	Yes	2.938	n/a	n/a	GoodResponse	0	n/a	n/a	5	42	Blank	Neutral	True
405.911	1.45	Control	0.6744	n/a	Yes	2.938	n/a	5.0	GoodResponse	0	0.011	404.922	5	42	Feedback	Neutral	True
407.36	2.938	Control	0.6744	n/a	Yes	2.938	n/a	n/a	GoodResponse	0	0.0	n/a	5	42	ISIslide	Neutral	True
410.326	0.25	Win2	0.6818000000000001	0.0	Yes	3.174	0.026	n/a	GoodResponse	1	n/a	n/a	6	43	Cue	Win	True
410.576	4.0	Win2	0.6818000000000001	0.0	Yes	3.174	0.0	n/a	GoodResponse	1	n/a	n/a	6	43	Fixation	Win	True
414.574	0.3	Win2	0.6818000000000001	0.002	Yes	3.174	-0.002	2.0	GoodResponse	1	0.206	413.78	6	43	Target	Win	True
414.78	0.3	Win2	0.6818000000000001	0.002	Yes	3.174	-0.002	2.0	GoodResponse	1	0.206	n/a	6	43	ButtonPress	Win	True
414.874	0.4	Win2	0.6818000000000001	n/a	Yes	3.174	n/a	n/a	GoodResponse	1	n/a	n/a	6	43	Blank	Win	True
415.274	1.45	Win2	0.6818000000000001	n/a	Yes	3.174	n/a	5.0	GoodResponse	1	0.013	414.287	6	43	Feedback	Win	True
416.723	3.174	Win2	0.6818000000000001	n/a	Yes	3.174	n/a	n/a	GoodResponse	1	0.0	n/a	6	43	ISIslide	Win	True
419.922	0.25	Win2	0.6889	0.0	Yes	2.978	0.022	n/a	GoodResponse	1	n/a	n/a	7	44	Cue	Win	True
420.172	4.0	Win2	0.6889	0.0	Yes	2.978	0.0	n/a	GoodResponse	1	n/a	n/a	7	44	Fixation	Win	True
424.171	0.29	Win2	0.6889	0.001	Yes	2.978	-0.001	2.0	GoodResponse	1	0.181	423.352	7	44	Target	Win	True
424.352	0.3	Win2	0.6889	0.001	Yes	2.978	-0.001	2.0	GoodResponse	1	0.181	n/a	7	44	ButtonPress	Win	True
424.471	0.41	Win2	0.6889	n/a	Yes	2.978	n/a	n/a	GoodResponse	1	n/a	n/a	7	44	Blank	Win	True
424.87	1.45	Win2	0.6889	n/a	Yes	2.978	n/a	5.0	GoodResponse	1	0.027	423.897	7	44	Feedback	Win	True
426.32	2.978	Win2	0.6889	n/a	Yes	2.978	n/a	n/a	GoodResponse	1	0.0	n/a	7	44	ISIslide	Win	True
429.319	0.25	Control	0.6957	0.0	Yes	2.881	0.019	n/a	GoodResponse	0	n/a	n/a	7	45	Cue	Neutral	True
429.569	4.1	Control	0.6957	0.0	Yes	2.881	0.0	n/a	GoodResponse	0	n/a	n/a	7	45	Fixation	Neutral	True
433.667	0.28	Control	0.6957	0.002	Yes	2.881	-0.002	2.0	GoodResponse	0	0.21	432.877	7	45	Target	Neutral	True
433.877	0.3	Control	0.6957	0.002	Yes	2.881	-0.002	2.0	GoodResponse	0	0.21	n/a	7	45	ButtonPress	Neutral	True
433.951	0.42	Control	0.6957	n/a	Yes	2.881	n/a	n/a	GoodResponse	0	n/a	n/a	7	45	Blank	Neutral	True
434.367	1.45	Control	0.6957	n/a	Yes	2.881	n/a	5.0	GoodResponse	0	0.042	433.409	7	45	Feedback	Neutral	True
435.817	2.881	Control	0.6957	n/a	Yes	2.881	n/a	n/a	GoodResponse	0	0.0	n/a	7	45	ISIslide	Neutral	True
438.716	0.25	Lose2	0.7021	0.0	Yes	3.384	0.016	n/a	GoodResponse	0	n/a	n/a	7	46	Cue	AvoidedLoss	True
438.965	4.0	Lose2	0.7021	0.001	Yes	3.384	-0.001	n/a	GoodResponse	0	n/a	n/a	7	46	Fixation	AvoidedLoss	True
442.964	0.27	Lose2	0.7021	0.002	Yes	3.384	-0.002	2.0	GoodResponse	0	0.216	442.18	7	46	Target	AvoidedLoss	True
443.18	0.3	Lose2	0.7021	0.002	Yes	3.384	-0.002	2.0	GoodResponse	0	0.216	n/a	7	46	ButtonPress	AvoidedLoss	True
443.247	0.43	Lose2	0.7021	n/a	Yes	3.384	n/a	n/a	GoodResponse	0	n/a	n/a	7	46	Blank	AvoidedLoss	True
443.664	1.45	Lose2	0.7021	n/a	Yes	3.384	n/a	5.0	GoodResponse	0	0.014	442.678	7	46	Feedback	AvoidedLoss	True
445.113	3.384	Lose2	0.7021	n/a	Yes	3.384	n/a	n/a	GoodResponse	0	0.0	n/a	7	46	ISIslide	AvoidedLoss	True
448.529	0.25	Lose2	0.7082999999999999	0.0	Yes	2.671	0.029	n/a	GoodResponse	0	n/a	n/a	7	47	Cue	AvoidedLoss	True
448.779	4.0	Lose2	0.7082999999999999	0.0	Yes	2.671	0.0	n/a	GoodResponse	0	n/a	n/a	7	47	Fixation	AvoidedLoss	True
452.777	0.26	Lose2	0.7082999999999999	0.002	Yes	2.671	-0.002	2.0	GoodResponse	0	0.186	451.963	7	47	Target	AvoidedLoss	True
452.963	0.3	Lose2	0.7082999999999999	0.002	Yes	2.671	-0.002	2.0	GoodResponse	0	0.186	n/a	7	47	ButtonPress	AvoidedLoss	True
453.044	0.44	Lose2	0.7082999999999999	n/a	Yes	2.671	n/a	n/a	GoodResponse	0	n/a	n/a	7	47	Blank	AvoidedLoss	True
453.477	1.45	Lose2	0.7082999999999999	n/a	Yes	2.671	n/a	5.0	GoodResponse	0	0.005	452.482	7	47	Feedback	AvoidedLoss	True
454.926	2.671	Lose2	0.7082999999999999	n/a	Yes	2.671	n/a	n/a	GoodResponse	0	0.0	n/a	7	47	ISIslide	AvoidedLoss	True
457.625	0.25	Lose2	0.7143	0.001	Yes	3.025	0.025	n/a	GoodResponse	0	n/a	n/a	7	48	Cue	AvoidedLoss	True
457.875	3.95	Lose2	0.7143	0.0	Yes	3.025	0.0	n/a	GoodResponse	0	n/a	n/a	7	48	Fixation	AvoidedLoss	True
461.824	0.25	Lose2	0.7143	0.001	Yes	3.025	-0.001	2.0	GoodResponse	0	0.19	461.014	7	48	Target	AvoidedLoss	True
462.014	0.3	Lose2	0.7143	0.001	Yes	3.025	-0.001	2.0	GoodResponse	0	0.19	n/a	7	48	ButtonPress	AvoidedLoss	True
462.074	0.45	Lose2	0.7143	n/a	Yes	3.025	n/a	n/a	GoodResponse	0	n/a	n/a	7	48	Blank	AvoidedLoss	True
462.524	1.45	Lose2	0.7143	n/a	Yes	3.025	n/a	5.0	GoodResponse	0	0.031	461.555	7	48	Feedback	AvoidedLoss	True
463.973	3.025	Lose2	0.7143	n/a	Yes	3.025	n/a	n/a	GoodResponse	0	0.0	n/a	7	48	ISIslide	AvoidedLoss	True
467.022	0.25	Control	0.72	0.0	Yes	2.878	0.022	n/a	GoodResponse	0	n/a	n/a	7	49	Cue	Neutral	True
467.272	4.0	Control	0.72	0.0	Yes	2.878	0.0	n/a	GoodResponse	0	n/a	n/a	7	49	Fixation	Neutral	True
471.271	0.24	Control	0.72	0.001	Yes	2.878	-0.001	2.0	GoodResponse	0	0.234	470.505	7	49	Target	Neutral	True
471.505	0.3	Control	0.72	0.001	Yes	2.878	-0.001	2.0	GoodResponse	0	0.234	n/a	7	49	ButtonPress	Neutral	True
471.521	0.46	Control	0.72	n/a	Yes	2.878	n/a	n/a	GoodResponse	0	n/a	n/a	7	49	Blank	Neutral	True
471.97	1.45	Control	0.72	n/a	Yes	2.878	n/a	5.0	GoodResponse	0	0.048	471.018	7	49	Feedback	Neutral	True
473.42	2.878	Control	0.72	n/a	Yes	2.878	n/a	n/a	GoodResponse	0	0.0	n/a	7	49	ISIslide	Neutral	True
476.319	0.25	Control	0.7059000000000001	0.0	No	2.781	0.019	n/a	NoResponse	0	n/a	n/a	7	50	Cue	Neutral	True
476.569	4.0	Control	0.7059000000000001	0.0	No	2.781	0.0	n/a	NoResponse	0	n/a	n/a	7	50	Fixation	Neutral	True
480.567	0.23	Control	0.7059000000000001	0.002	No	2.781	-0.002	2.0	NoResponse	0	0.307	479.874	7	50	Target	Neutral	True
480.801	0.47	Control	0.7059000000000001	n/a	No	2.781	n/a	n/a	NoResponse	0	n/a	n/a	7	50	Blank	Neutral	True
480.874	0.3	Control	0.7059000000000001	0.002	No	2.781	-0.002	2.0	NoResponse	0	0.307	n/a	7	50	ButtonPress	Neutral	True
481.267	1.45	Control	0.7059000000000001	n/a	No	2.781	n/a	5.0	NoResponse	0	0.02	480.287	7	50	Feedback	Neutral	True
482.717	2.781	Control	0.7059000000000001	n/a	No	2.781	n/a	n/a	NoResponse	0	0.0	n/a	7	50	ISIslide	Neutral	True
485.516	0.25	Control	0.7115	0.0	Yes	2.734	0.016	n/a	GoodResponse	0	n/a	n/a	7	51	Cue	Neutral	True
485.765	3.95	Control	0.7115	0.001	Yes	2.734	-0.001	n/a	GoodResponse	0	n/a	n/a	7	51	Fixation	Neutral	True
489.714	0.22	Control	0.7115	0.002	Yes	2.734	-0.002	2.0	GoodResponse	0	0.183	488.897	7	51	Target	Neutral	True
489.897	0.3	Control	0.7115	0.002	Yes	2.734	-0.002	2.0	GoodResponse	0	0.183	n/a	7	51	ButtonPress	Neutral	True
489.947	0.48	Control	0.7115	n/a	Yes	2.734	n/a	n/a	GoodResponse	0	n/a	n/a	7	51	Blank	Neutral	True
490.414	1.45	Control	0.7115	n/a	Yes	2.734	n/a	5.0	GoodResponse	0	0.043	489.457	7	51	Feedback	Neutral	True
491.863	2.734	Control	0.7115	n/a	Yes	2.734	n/a	n/a	GoodResponse	0	0.0	n/a	7	51	ISIslide	Neutral	True
494.612	0.25	Control	0.7170000000000001	0.0	Yes	2.638	0.012	n/a	GoodResponse	0	n/a	n/a	7	52	Cue	Neutral	True
494.862	4.05	Control	0.7170000000000001	0.0	Yes	2.638	0.0	n/a	GoodResponse	0	n/a	n/a	7	52	Fixation	Neutral	True
498.911	0.21	Control	0.7170000000000001	0.001	Yes	2.638	-0.001	2.0	GoodResponse	0	0.194	498.105	7	52	Target	Neutral	True
499.105	0.3	Control	0.7170000000000001	0.001	Yes	2.638	-0.001	2.0	GoodResponse	0	0.194	n/a	7	52	ButtonPress	Neutral	True
499.127	0.49	Control	0.7170000000000001	n/a	Yes	2.638	n/a	n/a	GoodResponse	0	n/a	n/a	7	52	Blank	Neutral	True
499.611	1.45	Control	0.7170000000000001	n/a	Yes	2.638	n/a	5.0	GoodResponse	0	0.016	498.627	7	52	Feedback	Neutral	True
501.06	2.638	Control	0.7170000000000001	n/a	Yes	2.638	n/a	n/a	GoodResponse	0	0.0	n/a	7	52	ISIslide	Neutral	True
503.726	0.25	Win2	0.7222	0.0	Yes	2.924	0.026	n/a	GoodResponse	1	n/a	n/a	8	53	Cue	Win	True
503.976	4.05	Win2	0.7222	0.0	Yes	2.924	0.0	n/a	GoodResponse	1	n/a	n/a	8	53	Fixation	Win	True
508.024	0.2	Win2	0.7222	0.002	Yes	2.924	-0.002	2.0	GoodResponse	1	0.183	507.207	8	53	Target	Win	True
508.207	0.3	Win2	0.7222	0.002	Yes	2.924	-0.002	2.0	GoodResponse	1	0.183	n/a	8	53	ButtonPress	Win	True
508.224	0.5	Win2	0.7222	n/a	Yes	2.924	n/a	n/a	GoodResponse	1	n/a	n/a	8	53	Blank	Win	True
508.724	1.45	Win2	0.7222	n/a	Yes	2.924	n/a	5.0	GoodResponse	1	0.026	507.75	8	53	Feedback	Win	True
510.173	2.924	Win2	0.7222	n/a	Yes	2.924	n/a	n/a	GoodResponse	1	0.0	n/a	8	53	ISIslide	Win	True
513.122	0.25	Win2	0.7091	0.0	No	2.728	0.022	n/a	NoResponse	0	n/a	n/a	8	54	Cue	MissedWin	True
513.372	3.95	Win2	0.7091	0.0	No	2.728	0.0	n/a	NoResponse	0	n/a	n/a	8	54	Fixation	MissedWin	True
517.321	0.19	Win2	0.7091	0.001	No	2.728	-0.001	2.0	NoResponse	0	0.211	516.532	8	54	Target	MissedWin	True
517.521	0.51	Win2	0.7091	n/a	No	2.728	n/a	n/a	NoResponse	0	n/a	n/a	8	54	Blank	MissedWin	True
517.532	0.3	Win2	0.7091	0.001	No	2.728	-0.001	2.0	NoResponse	0	0.211	n/a	8	54	ButtonPress	MissedWin	True
518.021	1.45	Win2	0.7091	n/a	No	2.728	n/a	5.0	NoResponse	0	0.046	517.067	8	54	Feedback	MissedWin	True
519.47	2.728	Win2	0.7091	n/a	No	2.728	n/a	n/a	NoResponse	0	0.0	n/a	8	54	ISIslide	MissedWin	True
522.219	0.25	Control	0.6964	0.0	No	3.031	0.019	n/a	NoResponse	0	n/a	n/a	8	55	Cue	Neutral	True
522.469	3.95	Control	0.6964	0.0	No	3.031	0.0	n/a	NoResponse	0	n/a	n/a	8	55	Fixation	Neutral	True
526.418	0.18	Control	0.6964	0.001	No	3.031	-0.001	2.0	NoResponse	0	0.217	525.635	8	55	Target	Neutral	True
526.601	0.52	Control	0.6964	n/a	No	3.031	n/a	n/a	NoResponse	0	n/a	n/a	8	55	Blank	Neutral	True
526.635	0.3	Control	0.6964	0.001	No	3.031	-0.001	2.0	NoResponse	0	0.217	n/a	8	55	ButtonPress	Neutral	True
527.117	1.45	Control	0.6964	n/a	No	3.031	n/a	5.0	NoResponse	0	0.022	526.139	8	55	Feedback	Neutral	True
528.567	3.031	Control	0.6964	n/a	No	3.031	n/a	n/a	NoResponse	0	0.0	n/a	8	55	ISIslide	Neutral	True
531.616	0.25	Control	0.6842	0.0	No	2.834	0.016	n/a	LatePress	0	n/a	n/a	8	56	Cue	Neutral	True
531.866	3.95	Control	0.6842	0.0	No	2.834	0.0	n/a	LatePress	0	n/a	n/a	8	56	Fixation	Neutral	True
535.814	0.17	Control	0.6842	0.002	No	2.834	-0.002	2.0	LatePress	0	0.18	534.994	8	56	Target	Neutral	True
535.994	0.3	Control	0.6842	0.002	No	2.834	-0.002	2.0	LatePress	0	0.18	n/a	8	56	ButtonPress	Neutral	True
535.998	0.53	Control	0.6842	n/a	No	2.834	n/a	n/a	LatePress	0	n/a	n/a	8	56	Blank	Neutral	True
536.514	1.45	Control	0.6842	n/a	No	2.834	n/a	5.0	LatePress	0	0.04	535.554	8	56	Feedback	Neutral	True
537.964	2.834	Control	0.6842	n/a	No	2.834	n/a	n/a	LatePress	0	0.0	n/a	8	56	ISIslide	Neutral	True
540.813	0.25	Control	0.6724	0.0	No	3.487	0.013	n/a	NoResponse	0	n/a	n/a	8	57	Cue	Neutral	True
541.062	4.0	Control	0.6724	0.001	No	3.487	-0.001	n/a	NoResponse	0	n/a	n/a	8	57	Fixation	Neutral	True
545.061	0.16	Control	0.6724	0.002	No	3.487	-0.002	2.0	NoResponse	0	0.193	544.254	8	57	Target	Neutral	True
545.228	0.54	Control	0.6724	n/a	No	3.487	n/a	n/a	NoResponse	0	n/a	n/a	8	57	Blank	Neutral	True
545.254	0.3	Control	0.6724	0.002	No	3.487	-0.002	2.0	NoResponse	0	0.193	n/a	8	57	ButtonPress	Neutral	True
545.761	1.45	Control	0.6724	n/a	No	3.487	n/a	5.0	NoResponse	0	0.012	544.773	8	57	Feedback	Neutral	True
547.21	3.487	Control	0.6724	n/a	No	3.487	n/a	n/a	NoResponse	0	0.0	n/a	8	57	ISIslide	Neutral	True
550.726	0.25	Win2	0.6609999999999999	0.0	No	2.724	0.026	n/a	NoResponse	0	n/a	n/a	8	58	Cue	MissedWin	True
550.976	4.05	Win2	0.6609999999999999	0.0	No	2.724	0.0	n/a	NoResponse	0	n/a	n/a	8	58	Fixation	MissedWin	True
555.024	0.15	Win2	0.6609999999999999	0.002	No	2.724	-0.002	2.0	NoResponse	0	0.167	554.191	8	58	Target	MissedWin	True
555.174	0.55	Win2	0.6609999999999999	n/a	No	2.724	n/a	n/a	NoResponse	0	n/a	n/a	8	58	Blank	MissedWin	True
555.191	0.3	Win2	0.6609999999999999	0.002	No	2.724	-0.002	2.0	NoResponse	0	0.167	n/a	8	58	ButtonPress	MissedWin	True
555.724	1.45	Win2	0.6609999999999999	n/a	No	2.724	n/a	5.0	NoResponse	0	0.001	554.725	8	58	Feedback	MissedWin	True
557.173	2.724	Win2	0.6609999999999999	n/a	No	2.724	n/a	n/a	NoResponse	0	0.0	n/a	8	58	ISIslide	MissedWin	True
559.922	0.25	Lose2	0.65	0.001	No	2.678	0.022	n/a	NoResponse	-1	n/a	n/a	7	59	Cue	Loss	True
560.172	4.0	Lose2	0.65	0.0	No	2.678	0.0	n/a	NoResponse	-1	n/a	n/a	7	59	Fixation	Loss	True
564.171	0.15	Lose2	0.65	0.001	No	2.678	-0.001	2.0	NoResponse	-1	0.19	563.361	7	59	Target	Loss	True
564.321	0.55	Lose2	0.65	n/a	No	2.678	n/a	n/a	NoResponse	-1	n/a	n/a	7	59	Blank	Loss	True
564.361	0.3	Lose2	0.65	0.001	No	2.678	-0.001	2.0	NoResponse	-1	0.19	n/a	7	59	ButtonPress	Loss	True
564.871	1.45	Lose2	0.65	n/a	No	2.678	n/a	5.0	NoResponse	-1	0.024	563.895	7	59	Feedback	Loss	True
566.32	2.678	Lose2	0.65	n/a	No	2.678	n/a	n/a	NoResponse	-1	0.0	n/a	7	59	ISIslide	Loss	True
569.019	0.25	Control	0.6393	0.0	No	2.681	0.019	n/a	NoResponse	0	n/a	n/a	7	60	Cue	Neutral	True
569.269	4.0	Control	0.6393	0.0	No	2.681	0.0	n/a	NoResponse	0	n/a	n/a	7	60	Fixation	Neutral	True
573.268	0.16	Control	0.6393	0.001	No	2.681	-0.001	2.0	NoResponse	0	0.183	572.451	7	60	Target	Neutral	True
573.434	0.54	Control	0.6393	n/a	No	2.681	n/a	n/a	NoResponse	0	n/a	n/a	7	60	Blank	Neutral	True
573.451	0.3	Control	0.6393	0.001	No	2.681	-0.001	2.0	NoResponse	0	0.183	n/a	7	60	ButtonPress	Neutral	True
573.967	1.45	Control	0.6393	n/a	No	2.681	n/a	5.0	NoResponse	0	0.001	572.968	7	60	Feedback	Neutral	True
575.417	2.681	Control	0.6393	n/a	No	2.681	n/a	n/a	NoResponse	0	0.0	n/a	7	60	ISIslide	Neutral	True
578.116	0.25	Lose2	0.629	0.0	No	2.984	0.016	n/a	LatePress	-1	n/a	n/a	6	61	Cue	Loss	True
578.366	4.0	Lose2	0.629	0.0	No	2.984	0.0	n/a	LatePress	-1	n/a	n/a	6	61	Fixation	Loss	True
582.364	0.17	Lose2	0.629	0.002	No	2.984	-0.002	2.0	LatePress	-1	0.179	581.543	6	61	Target	Loss	True
582.543	0.3	Lose2	0.629	0.002	No	2.984	-0.002	2.0	LatePress	-1	0.179	n/a	6	61	ButtonPress	Loss	True
582.548	0.53	Lose2	0.629	n/a	No	2.984	n/a	n/a	LatePress	-1	n/a	n/a	6	61	Blank	Loss	True
583.064	1.45	Lose2	0.629	n/a	No	2.984	n/a	5.0	LatePress	-1	0.026	582.09	6	61	Feedback	Loss	True
584.514	2.984	Lose2	0.629	n/a	No	2.984	n/a	n/a	LatePress	-1	0.0	n/a	6	61	ISIslide	Loss	True
587.513	0.25	Lose2	0.619	0.0	No	2.887	0.013	n/a	LatePress	-1	n/a	n/a	5	62	Cue	Loss	True
587.763	3.9	Lose2	0.619	0.0	No	2.887	0.0	n/a	LatePress	-1	n/a	n/a	5	62	Fixation	Loss	True
591.661	0.18	Lose2	0.619	0.002	No	2.887	-0.002	2.0	LatePress	-1	0.183	590.844	5	62	Target	Loss	True
591.844	0.52	Lose2	0.619	n/a	No	2.887	n/a	n/a	LatePress	-1	n/a	n/a	5	62	Blank	Loss	True
591.844	0.3	Lose2	0.619	0.002	No	2.887	-0.002	2.0	LatePress	-1	0.183	n/a	5	62	ButtonPress	Loss	True
592.361	1.45	Lose2	0.619	n/a	No	2.887	n/a	5.0	LatePress	-1	0.046	591.407	5	62	Feedback	Loss	True
593.81	2.887	Lose2	0.619	n/a	No	2.887	n/a	n/a	LatePress	-1	0.0	n/a	5	62	ISIslide	Loss	True
596.726	0.25	Lose2	0.625	0.0	Yes	2.624	0.026	n/a	GoodResponse	0	n/a	n/a	5	63	Cue	AvoidedLoss	True
596.976	4.05	Lose2	0.625	0.0	Yes	2.624	0.0	n/a	GoodResponse	0	n/a	n/a	5	63	Fixation	AvoidedLoss	True
601.024	0.19	Lose2	0.625	0.002	Yes	2.624	-0.002	2.0	GoodResponse	0	0.176	600.2	5	63	Target	AvoidedLoss	True
601.2	0.3	Lose2	0.625	0.002	Yes	2.624	-0.002	2.0	GoodResponse	0	0.176	n/a	5	63	ButtonPress	AvoidedLoss	True
601.224	0.51	Lose2	0.625	n/a	Yes	2.624	n/a	n/a	GoodResponse	0	n/a	n/a	5	63	Blank	AvoidedLoss	True
601.724	1.45	Lose2	0.625	n/a	Yes	2.624	n/a	5.0	GoodResponse	0	0.048	600.772	5	63	Feedback	AvoidedLoss	True
603.174	2.624	Lose2	0.625	n/a	Yes	2.624	n/a	n/a	GoodResponse	0	0.0	n/a	5	63	ISIslide	AvoidedLoss	True
605.823	0.25	Win2	0.6308	0.0	Yes	3.127	0.023	n/a	GoodResponse	1	n/a	n/a	6	64	Cue	Win	True
606.073	4.15	Win2	0.6308	0.0	Yes	3.127	0.0	n/a	GoodResponse	1	n/a	n/a	6	64	Fixation	Win	True
610.221	0.2	Win2	0.6308	0.002	Yes	3.127	-0.002	2.0	GoodResponse	1	0.178	609.399	6	64	Target	Win	True
610.399	0.3	Win2	0.6308	0.002	Yes	3.127	-0.002	2.0	GoodResponse	1	0.178	n/a	6	64	ButtonPress	Win	True
610.421	0.5	Win2	0.6308	n/a	Yes	3.127	n/a	n/a	GoodResponse	1	n/a	n/a	6	64	Blank	Win	True
610.921	1.45	Win2	0.6308	n/a	Yes	3.127	n/a	5.0	GoodResponse	1	0.022	609.943	6	64	Feedback	Win	True
612.37	3.127	Win2	0.6308	n/a	Yes	3.127	n/a	n/a	GoodResponse	1	0.0	n/a	6	64	ISIslide	Win	True
615.519	0.25	Control	0.6364	0.0	Yes	2.781	0.019	n/a	GoodResponse	0	n/a	n/a	6	65	Cue	Neutral	True
615.769	4.0	Control	0.6364	0.0	Yes	2.781	0.0	n/a	GoodResponse	0	n/a	n/a	6	65	Fixation	Neutral	True
619.768	0.21	Control	0.6364	0.001	Yes	2.781	-0.001	2.0	GoodResponse	0	0.185	618.953	6	65	Target	Neutral	True
619.953	0.3	Control	0.6364	0.001	Yes	2.781	-0.001	2.0	GoodResponse	0	0.185	n/a	6	65	ButtonPress	Neutral	True
619.984	0.49	Control	0.6364	n/a	Yes	2.781	n/a	n/a	GoodResponse	0	n/a	n/a	6	65	Blank	Neutral	True
620.468	1.45	Control	0.6364	n/a	Yes	2.781	n/a	5.0	GoodResponse	0	0.036	619.504	6	65	Feedback	Neutral	True
621.917	2.781	Control	0.6364	n/a	Yes	2.781	n/a	n/a	GoodResponse	0	0.0	n/a	6	65	ISIslide	Neutral	True
624.716	0.25	Win2	0.6418	0.0	Yes	2.784	0.016	n/a	GoodResponse	1	n/a	n/a	7	66	Cue	Win	True
624.966	3.9	Win2	0.6418	0.0	Yes	2.784	0.0	n/a	GoodResponse	1	n/a	n/a	7	66	Fixation	Win	True
628.865	0.22	Win2	0.6418	0.001	Yes	2.784	-0.001	2.0	GoodResponse	1	0.212	628.077	7	66	Target	Win	True
629.077	0.3	Win2	0.6418	0.001	Yes	2.784	-0.001	2.0	GoodResponse	1	0.212	n/a	7	66	ButtonPress	Win	True
629.098	0.48	Win2	0.6418	n/a	Yes	2.784	n/a	n/a	GoodResponse	1	n/a	n/a	7	66	Blank	Win	True
629.564	1.45	Win2	0.6418	n/a	Yes	2.784	n/a	5.0	GoodResponse	1	0.013	628.577	7	66	Feedback	Win	True
631.014	2.784	Win2	0.6418	n/a	Yes	2.784	n/a	n/a	GoodResponse	1	0.0	n/a	7	66	ISIslide	Win	True
633.813	0.25	Control	0.6470999999999999	0.0	Yes	2.737	0.013	n/a	GoodResponse	0	n/a	n/a	7	67	Cue	Neutral	True
634.063	3.95	Control	0.6470999999999999	0.0	Yes	2.737	0.0	n/a	GoodResponse	0	n/a	n/a	7	67	Fixation	Neutral	True
638.011	0.23	Control	0.6470999999999999	0.002	Yes	2.737	-0.002	2.0	GoodResponse	0	0.189	637.2	7	67	Target	Neutral	True
638.2	0.3	Control	0.6470999999999999	0.002	Yes	2.737	-0.002	2.0	GoodResponse	0	0.189	n/a	7	67	ButtonPress	Neutral	True
638.245	0.47	Control	0.6470999999999999	n/a	Yes	2.737	n/a	n/a	GoodResponse	0	n/a	n/a	7	67	Blank	Neutral	True
638.711	1.45	Control	0.6470999999999999	n/a	Yes	2.737	n/a	5.0	GoodResponse	0	0.036	637.747	7	67	Feedback	Neutral	True
640.161	2.737	Control	0.6470999999999999	n/a	Yes	2.737	n/a	n/a	GoodResponse	0	0.0	n/a	7	67	ISIslide	Neutral	True
642.926	0.25	Win2	0.6522	0.0	Yes	3.074	0.026	n/a	GoodResponse	1	n/a	n/a	8	68	Cue	Win	True
643.176	4.0	Win2	0.6522	0.0	Yes	3.074	0.0	n/a	GoodResponse	1	n/a	n/a	8	68	Fixation	Win	True
647.175	0.24	Win2	0.6522	0.001	Yes	3.074	-0.001	2.0	GoodResponse	1	0.105	646.28	8	68	Target	Win	True
647.28	0.3	Win2	0.6522	0.001	Yes	3.074	-0.001	2.0	GoodResponse	1	0.105	n/a	8	68	ButtonPress	Win	True
647.425	0.46	Win2	0.6522	n/a	Yes	3.074	n/a	n/a	GoodResponse	1	n/a	n/a	8	68	Blank	Win	True
647.874	1.45	Win2	0.6522	n/a	Yes	3.074	n/a	5.0	GoodResponse	1	0.044	646.918	8	68	Feedback	Win	True
649.324	3.074	Win2	0.6522	n/a	Yes	3.074	n/a	n/a	GoodResponse	1	0.0	n/a	8	68	ISIslide	Win	True
652.423	0.25	Win2	0.6570999999999999	0.0	Yes	3.227	0.023	n/a	GoodResponse	1	n/a	n/a	9	69	Cue	Win	True
652.673	3.95	Win2	0.6570999999999999	0.0	Yes	3.227	0.0	n/a	GoodResponse	1	n/a	n/a	9	69	Fixation	Win	True
656.621	0.25	Win2	0.6570999999999999	0.002	Yes	3.227	-0.002	2.0	GoodResponse	1	0.194	655.815	9	69	Target	Win	True
656.815	0.3	Win2	0.6570999999999999	0.002	Yes	3.227	-0.002	2.0	GoodResponse	1	0.194	n/a	9	69	ButtonPress	Win	True
656.871	0.45	Win2	0.6570999999999999	n/a	Yes	3.227	n/a	n/a	GoodResponse	1	n/a	n/a	9	69	Blank	Win	True
657.321	1.45	Win2	0.6570999999999999	n/a	Yes	3.227	n/a	5.0	GoodResponse	1	0.012	656.333	9	69	Feedback	Win	True
658.771	3.227	Win2	0.6570999999999999	n/a	Yes	3.227	n/a	n/a	GoodResponse	1	0.0	n/a	9	69	ISIslide	Win	True
662.019	0.25	Lose2	0.662	0.001	Yes	3.031	0.019	n/a	GoodResponse	0	n/a	n/a	9	70	Cue	AvoidedLoss	True
662.269	4.05	Lose2	0.662	0.0	Yes	3.031	0.0	n/a	GoodResponse	0	n/a	n/a	9	70	Fixation	AvoidedLoss	True
666.318	0.25	Lose2	0.662	0.001	Yes	3.031	-0.001	2.0	GoodResponse	0	0.184	665.502	9	70	Target	AvoidedLoss	True
666.502	0.3	Lose2	0.662	0.001	Yes	3.031	-0.001	2.0	GoodResponse	0	0.184	n/a	9	70	ButtonPress	AvoidedLoss	True
666.568	0.45	Lose2	0.662	n/a	Yes	3.031	n/a	n/a	GoodResponse	0	n/a	n/a	9	70	Blank	AvoidedLoss	True
667.018	1.45	Lose2	0.662	n/a	Yes	3.031	n/a	5.0	GoodResponse	0	0.022	666.04	9	70	Feedback	AvoidedLoss	True
668.467	3.031	Lose2	0.662	n/a	Yes	3.031	n/a	n/a	GoodResponse	0	0.0	n/a	9	70	ISIslide	AvoidedLoss	True
671.516	0.25	Win2	0.6667000000000001	0.0	Yes	2.734	0.016	n/a	GoodResponse	1	n/a	n/a	10	71	Cue	Win	True
671.766	4.05	Win2	0.6667000000000001	0.0	Yes	2.734	0.0	n/a	GoodResponse	1	n/a	n/a	10	71	Fixation	Win	True
675.815	0.25	Win2	0.6667000000000001	0.001	Yes	2.734	-0.001	2.0	GoodResponse	1	0.185	675.0	10	71	Target	Win	True
676	0.3	Win2	0.6667000000000001	0.001	Yes	2.734	-0.001	2.0	GoodResponse	1	0.185	n/a	10	71	ButtonPress	Win	True
676.064	0.45	Win2	0.6667000000000001	n/a	Yes	2.734	n/a	n/a	GoodResponse	1	n/a	n/a	10	71	Blank	Win	True
676.514	1.45	Win2	0.6667000000000001	n/a	Yes	2.734	n/a	5.0	GoodResponse	1	0.037	675.551	10	71	Feedback	Win	True
677.964	2.734	Win2	0.6667000000000001	n/a	Yes	2.734	n/a	n/a	GoodResponse	1	0.0	n/a	10	71	ISIslide	Win	True
680.713	0.25	Win2	0.6712	0.0	Yes	2.787	0.013	n/a	GoodResponse	1	n/a	n/a	11	72	Cue	Win	True
680.963	4.1	Win2	0.6712	0.0	Yes	2.787	0.0	n/a	GoodResponse	1	n/a	n/a	11	72	Fixation	Win	True
685.061	0.24	Win2	0.6712	0.002	Yes	2.787	-0.002	2.0	GoodResponse	1	0.181	684.242	11	72	Target	Win	True
685.242	0.3	Win2	0.6712	0.002	Yes	2.787	-0.002	2.0	GoodResponse	1	0.181	n/a	11	72	ButtonPress	Win	True
685.311	0.46	Win2	0.6712	n/a	Yes	2.787	n/a	n/a	GoodResponse	1	n/a	n/a	11	72	Blank	Win	True
685.761	1.45	Win2	0.6712	n/a	Yes	2.787	n/a	5.0	GoodResponse	1	0.01	684.771	11	72	Feedback	Win	True
687.21	2.787	Win2	0.6712	n/a	Yes	2.787	n/a	n/a	GoodResponse	1	0.0	n/a	11	72	ISIslide	Win	True
690.026	0.25	Win2	0.6757	0.0	Yes	2.674	0.026	n/a	GoodResponse	1	n/a	n/a	12	73	Cue	Win	True
690.276	4.0	Win2	0.6757	0.0	Yes	2.674	0.0	n/a	GoodResponse	1	n/a	n/a	12	73	Fixation	Win	True
694.275	0.23	Win2	0.6757	0.001	Yes	2.674	-0.001	2.0	GoodResponse	1	0.167	693.442	12	73	Target	Win	True
694.442	0.3	Win2	0.6757	0.001	Yes	2.674	-0.001	2.0	GoodResponse	1	0.167	n/a	12	73	ButtonPress	Win	True
694.508	0.47	Win2	0.6757	n/a	Yes	2.674	n/a	n/a	GoodResponse	1	n/a	n/a	12	73	Blank	Win	True
694.974	1.45	Win2	0.6757	n/a	Yes	2.674	n/a	5.0	GoodResponse	1	0.017	693.991	12	73	Feedback	Win	True
696.424	2.674	Win2	0.6757	n/a	Yes	2.674	n/a	n/a	GoodResponse	1	0.0	n/a	12	73	ISIslide	Win	True
699.123	0.25	Lose2	0.68	0.0	Yes	2.627	0.023	n/a	GoodResponse	0	n/a	n/a	12	74	Cue	AvoidedLoss	True
699.373	4.05	Lose2	0.68	0.0	Yes	2.627	0.0	n/a	GoodResponse	0	n/a	n/a	12	74	Fixation	AvoidedLoss	True
703.421	0.22	Lose2	0.68	0.002	Yes	2.627	-0.002	2.0	GoodResponse	0	0.185	702.606	12	74	Target	AvoidedLoss	True
703.606	0.3	Lose2	0.68	0.002	Yes	2.627	-0.002	2.0	GoodResponse	0	0.185	n/a	12	74	ButtonPress	AvoidedLoss	True
703.655	0.48	Lose2	0.68	n/a	Yes	2.627	n/a	n/a	GoodResponse	0	n/a	n/a	12	74	Blank	AvoidedLoss	True
704.121	1.45	Lose2	0.68	n/a	Yes	2.627	n/a	5.0	GoodResponse	0	0.041	703.162	12	74	Feedback	AvoidedLoss	True
705.571	2.627	Lose2	0.68	n/a	Yes	2.627	n/a	n/a	GoodResponse	0	0.0	n/a	12	74	ISIslide	AvoidedLoss	True
708.22	0.25	Lose2	0.6711	0.0	No	2.93	0.02	n/a	NoResponse	-1	n/a	n/a	11	75	Cue	Loss	True
708.47	3.95	Lose2	0.6711	0.0	No	2.93	0.0	n/a	NoResponse	-1	n/a	n/a	11	75	Fixation	Loss	True
712.418	0.21	Lose2	0.6711	0.002	No	2.93	-0.002	2.0	NoResponse	-1	0.237	711.655	11	75	Target	Loss	True
712.635	0.49	Lose2	0.6711	n/a	No	2.93	n/a	n/a	NoResponse	-1	n/a	n/a	11	75	Blank	Loss	True
712.655	0.3	Lose2	0.6711	0.002	No	2.93	-0.002	2.0	NoResponse	-1	0.237	n/a	11	75	ButtonPress	Loss	True
713.118	1.45	Lose2	0.6711	n/a	No	2.93	n/a	5.0	NoResponse	-1	0.018	712.136	11	75	Feedback	Loss	True
714.567	2.93	Lose2	0.6711	n/a	No	2.93	n/a	n/a	NoResponse	-1	0.0	n/a	11	75	ISIslide	Loss	True
717.516	0.25	Control	0.6753	0.0	Yes	3.234	0.016	n/a	GoodResponse	0	n/a	n/a	11	76	Cue	Neutral	True
717.766	4.05	Control	0.6753	0.0	Yes	3.234	0.0	n/a	GoodResponse	0	n/a	n/a	11	76	Fixation	Neutral	True
721.815	0.2	Control	0.6753	0.001	Yes	3.234	-0.001	2.0	GoodResponse	0	0.197	721.012	11	76	Target	Neutral	True
722.012	0.3	Control	0.6753	0.001	Yes	3.234	-0.001	2.0	GoodResponse	0	0.197	n/a	11	76	ButtonPress	Neutral	True
722.015	0.5	Control	0.6753	n/a	Yes	3.234	n/a	n/a	GoodResponse	0	n/a	n/a	11	76	Blank	Neutral	True
722.515	1.45	Control	0.6753	n/a	Yes	3.234	n/a	5.0	GoodResponse	0	0.036	721.551	11	76	Feedback	Neutral	True
723.964	3.234	Control	0.6753	n/a	Yes	3.234	n/a	n/a	GoodResponse	0	0.0	n/a	11	76	ISIslide	Neutral	True
727.213	0.25	Lose2	0.6667000000000001	0.0	No	2.587	0.013	n/a	LatePress	-1	n/a	n/a	10	77	Cue	Loss	True
727.463	3.95	Lose2	0.6667000000000001	0.0	No	2.587	0.0	n/a	LatePress	-1	n/a	n/a	10	77	Fixation	Loss	True
731.411	0.19	Lose2	0.6667000000000001	0.002	No	2.587	-0.002	2.0	LatePress	-1	0.193	730.604	10	77	Target	Loss	True
731.604	0.3	Lose2	0.6667000000000001	0.002	No	2.587	-0.002	2.0	LatePress	-1	0.193	n/a	10	77	ButtonPress	Loss	True
731.611	0.51	Lose2	0.6667000000000001	n/a	No	2.587	n/a	n/a	LatePress	-1	n/a	n/a	10	77	Blank	Loss	True
732.111	1.45	Lose2	0.6667000000000001	n/a	No	2.587	n/a	5.0	LatePress	-1	0.001	731.112	10	77	Feedback	Loss	True
733.561	2.587	Lose2	0.6667000000000001	n/a	No	2.587	n/a	n/a	LatePress	-1	0.0	n/a	10	77	ISIslide	Loss	True
