onset	duration	cue_type	current_mean_accuracy	duration_error	is_hit	isi_adjusted	onset_delay	response	response_type	reward	rt	rt_time	total_reward	trial_number	trial_phase	trial_type	one_press
11.101	0.25	Control	1.0	0.001	Yes	2.949	0.001	n/a	GoodResponse	0	n/a	n/a	0	0	Cue	Neutral	True
11.351	3.85	Control	1.0	0.0	Yes	2.949	0.0	n/a	GoodResponse	0	n/a	n/a	0	0	Fixation	Neutral	True
15.2	0.4	Control	1.0	0.001	Yes	2.949	-0.001	2.0	GoodResponse	0	0.223	14.423	0	0	Target	Neutral	True
15.423	0.3	Control	1.0	0.001	Yes	2.949	-0.001	2.0	GoodResponse	0	0.223	n/a	0	0	ButtonPress	Neutral	True
15.6	0.3	Control	1.0	n/a	Yes	2.949	n/a	n/a	GoodResponse	0	n/a	n/a	0	0	Blank	Neutral	True
15.9	1.45	Control	1.0	n/a	Yes	2.949	n/a	5.0	GoodResponse	0	0.027	14.927	0	0	Feedback	Neutral	True
17.349	2.949	Control	1.0	n/a	Yes	2.949	n/a	n/a	GoodResponse	0	0.0	n/a	0	0	ISIslide	Neutral	True
20.315	0.25	Lose2	1.0	0.0	Yes	2.785	0.015	n/a	GoodResponse	0	n/a	n/a	0	1	Cue	AvoidedLoss	True
20.565	4.0	Lose2	1.0	0.0	Yes	2.785	0.0	n/a	GoodResponse	0	n/a	n/a	0	1	Fixation	AvoidedLoss	True
24.563	0.39	Lose2	1.0	0.002	Yes	2.785	-0.002	2.0	GoodResponse	0	0.172	23.735	0	1	Target	AvoidedLoss	True
24.735	0.3	Lose2	1.0	0.002	Yes	2.785	-0.002	2.0	GoodResponse	0	0.172	n/a	0	1	ButtonPress	AvoidedLoss	True
24.963	0.31	Lose2	1.0	n/a	Yes	2.785	n/a	n/a	GoodResponse	0	n/a	n/a	0	1	Blank	AvoidedLoss	True
25.263	1.45	Lose2	1.0	n/a	Yes	2.785	n/a	5.0	GoodResponse	0	0.03	24.293	0	1	Feedback	AvoidedLoss	True
26.713	2.785	Lose2	1.0	n/a	Yes	2.785	n/a	n/a	GoodResponse	0	0.0	n/a	0	1	ISIslide	AvoidedLoss	True
29.528	0.25	Control	1.0	0.0	Yes	2.572	0.028	n/a	GoodResponse	0	n/a	n/a	0	2	Cue	Neutral	True
29.778	4.1	Control	1.0	0.0	Yes	2.572	0.0	n/a	GoodResponse	0	n/a	n/a	0	2	Fixation	Neutral	True
33.877	0.38	Control	1.0	0.001	Yes	2.572	-0.001	2.0	GoodResponse	0	0.161	33.038	0	2	Target	Neutral	True
34.038	0.3	Control	1.0	0.001	Yes	2.572	-0.001	2.0	GoodResponse	0	0.161	n/a	0	2	ButtonPress	Neutral	True
34.26	0.32	Control	1.0	n/a	Yes	2.572	n/a	n/a	GoodResponse	0	n/a	n/a	0	2	Blank	Neutral	True
34.577	1.45	Control	1.0	n/a	Yes	2.572	n/a	5.0	GoodResponse	0	0.032	33.609	0	2	Feedback	Neutral	True
36.026	2.572	Control	1.0	n/a	Yes	2.572	n/a	n/a	GoodResponse	0	0.0	n/a	0	2	ISIslide	Neutral	True
38.625	0.25	Win2	1.0	0.0	Yes	2.825	0.025	n/a	GoodResponse	1	n/a	n/a	1	3	Cue	Win	True
38.875	3.95	Win2	1.0	0.0	Yes	2.825	0.0	n/a	GoodResponse	1	n/a	n/a	1	3	Fixation	Win	True
42.824	0.37	Win2	1.0	0.001	Yes	2.825	-0.001	2.0	GoodResponse	1	0.174	41.998	1	3	Target	Win	True
42.998	0.3	Win2	1.0	0.001	Yes	2.825	-0.001	2.0	GoodResponse	1	0.174	n/a	1	3	ButtonPress	Win	True
43.207	0.33	Win2	1.0	n/a	Yes	2.825	n/a	n/a	GoodResponse	1	n/a	n/a	1	3	Blank	Win	True
43.523	1.45	Win2	1.0	n/a	Yes	2.825	n/a	5.0	GoodResponse	1	0.013	42.536	1	3	Feedback	Win	True
44.973	2.825	Win2	1.0	n/a	Yes	2.825	n/a	n/a	GoodResponse	1	0.0	n/a	1	3	ISIslide	Win	True
47.822	0.25	Win2	1.0	0.0	Yes	3.278	0.022	n/a	GoodResponse	1	n/a	n/a	2	4	Cue	Win	False
48.072	4.0	Win2	1.0	0.0	Yes	3.278	0.0	2.0	GoodResponse	1	3.769	50.841	2	4	Fixation	Win	False
51.841	0.3	Win2	1.0	0.0	Yes	3.278	0.0	2.0	GoodResponse	1	3.769	n/a	2	4	ButtonPress	Win	False
52.07	0.36	Win2	1.0	0.002	Yes	3.278	-0.002	2.0	GoodResponse	1	0.25	51.32	2	4	Target	Win	False
52.32	0.3	Win2	1.0	0.002	Yes	3.278	-0.002	2.0	GoodResponse	1	0.25	n/a	2	4	ButtonPress	Win	False
52.437	0.34	Win2	1.0	n/a	Yes	3.278	n/a	n/a	GoodResponse	1	n/a	n/a	2	4	Blank	Win	False
52.77	1.45	Win2	1.0	n/a	Yes	3.278	n/a	5.0	GoodResponse	1	0.035	51.805	2	4	Feedback	Win	False
54.22	3.278	Win2	1.0	n/a	Yes	3.278	n/a	n/a	GoodResponse	1	0.0	n/a	2	4	ISIslide	Win	False
57.519	0.25	Win2	1.0	0.0	Yes	2.781	0.019	n/a	GoodResponse	1	n/a	n/a	3	5	Cue	Win	True
57.768	4.0	Win2	1.0	0.001	Yes	2.781	-0.001	n/a	GoodResponse	1	n/a	n/a	3	5	Fixation	Win	True
61.767	0.35	Win2	1.0	0.002	Yes	2.781	-0.002	2.0	GoodResponse	1	0.2	60.967	3	5	Target	Win	True
61.967	0.3	Win2	1.0	0.002	Yes	2.781	-0.002	2.0	GoodResponse	1	0.2	n/a	3	5	ButtonPress	Win	True
62.117	0.35	Win2	1.0	n/a	Yes	2.781	n/a	n/a	GoodResponse	1	n/a	n/a	3	5	Blank	Win	True
62.467	1.45	Win2	1.0	n/a	Yes	2.781	n/a	5.0	GoodResponse	1	0.045	61.512	3	5	Feedback	Win	True
63.916	2.781	Win2	1.0	n/a	Yes	2.781	n/a	n/a	GoodResponse	1	0.0	n/a	3	5	ISIslide	Win	True
66.715	0.25	Lose2	1.0	0.0	Yes	2.735	0.015	n/a	GoodResponse	0	n/a	n/a	3	6	Cue	AvoidedLoss	True
66.965	3.95	Lose2	1.0	0.0	Yes	2.735	0.0	n/a	GoodResponse	0	n/a	n/a	3	6	Fixation	AvoidedLoss	True
70.914	0.34	Lose2	1.0	0.001	Yes	2.735	-0.001	2.0	GoodResponse	0	0.2	70.114	3	6	Target	AvoidedLoss	True
71.114	0.3	Lose2	1.0	0.001	Yes	2.735	-0.001	2.0	GoodResponse	0	0.2	n/a	3	6	ButtonPress	AvoidedLoss	True
71.264	0.36	Lose2	1.0	n/a	Yes	2.735	n/a	n/a	GoodResponse	0	n/a	n/a	3	6	Blank	AvoidedLoss	True
71.614	1.45	Lose2	1.0	n/a	Yes	2.735	n/a	5.0	GoodResponse	0	0.02	70.634	3	6	Feedback	AvoidedLoss	True
73.063	2.735	Lose2	1.0	n/a	Yes	2.735	n/a	n/a	GoodResponse	0	0.0	n/a	3	6	ISIslide	AvoidedLoss	True
75.829	0.25	Lose2	1.0	0.0	Yes	4.021	0.029	n/a	GoodResponse	0	n/a	n/a	3	7	Cue	AvoidedLoss	True
76.079	4.05	Lose2	1.0	0.0	Yes	4.021	0.0	n/a	GoodResponse	0	n/a	n/a	3	7	Fixation	AvoidedLoss	True
80.127	0.33	Lose2	1.0	0.002	Yes	4.021	-0.002	2.0	GoodResponse	0	0.174	79.301	3	7	Target	AvoidedLoss	True
80.301	0.3	Lose2	1.0	0.002	Yes	4.021	-0.002	2.0	GoodResponse	0	0.174	n/a	3	7	ButtonPress	AvoidedLoss	True
80.461	0.37	Lose2	1.0	n/a	Yes	4.021	n/a	n/a	GoodResponse	0	n/a	n/a	3	7	Blank	AvoidedLoss	True
80.827	1.45	Lose2	1.0	n/a	Yes	4.021	n/a	5.0	GoodResponse	0	0.026	79.853	3	7	Feedback	AvoidedLoss	True
82.277	4.021	Lose2	1.0	n/a	Yes	4.021	n/a	n/a	GoodResponse	0	0.0	n/a	3	7	ISIslide	AvoidedLoss	True
86.325	0.25	Lose2	1.0	0.0	Yes	3.025	0.025	n/a	GoodResponse	0	n/a	n/a	3	8	Cue	AvoidedLoss	True
86.575	3.95	Lose2	1.0	0.0	Yes	3.025	0.0	n/a	GoodResponse	0	n/a	n/a	3	8	Fixation	AvoidedLoss	True
90.524	0.32	Lose2	1.0	0.001	Yes	3.025	-0.001	2.0	GoodResponse	0	0.177	89.701	3	8	Target	AvoidedLoss	True
90.701	0.3	Lose2	1.0	0.001	Yes	3.025	-0.001	2.0	GoodResponse	0	0.177	n/a	3	8	ButtonPress	AvoidedLoss	True
90.857	0.38	Lose2	1.0	n/a	Yes	3.025	n/a	n/a	GoodResponse	0	n/a	n/a	3	8	Blank	AvoidedLoss	True
91.223	1.45	Lose2	1.0	n/a	Yes	3.025	n/a	5.0	GoodResponse	0	0.02	90.243	3	8	Feedback	AvoidedLoss	True
92.673	3.025	Lose2	1.0	n/a	Yes	3.025	n/a	n/a	GoodResponse	0	0.0	n/a	3	8	ISIslide	AvoidedLoss	True
95.722	0.25	Lose2	1.0	0.0	Yes	3.128	0.022	n/a	GoodResponse	0	n/a	n/a	3	9	Cue	AvoidedLoss	True
95.972	3.95	Lose2	1.0	0.0	Yes	3.128	0.0	n/a	GoodResponse	0	n/a	n/a	3	9	Fixation	AvoidedLoss	True
99.92	0.31	Lose2	1.0	0.002	Yes	3.128	-0.002	2.0	GoodResponse	0	0.217	99.137	3	9	Target	AvoidedLoss	True
100.137	0.3	Lose2	1.0	0.002	Yes	3.128	-0.002	2.0	GoodResponse	0	0.217	n/a	3	9	ButtonPress	AvoidedLoss	True
100.237	0.39	Lose2	1.0	n/a	Yes	3.128	n/a	n/a	GoodResponse	0	n/a	n/a	3	9	Blank	AvoidedLoss	True
100.62	1.45	Lose2	1.0	n/a	Yes	3.128	n/a	5.0	GoodResponse	0	0.038	99.658	3	9	Feedback	AvoidedLoss	True
102.07	3.128	Lose2	1.0	n/a	Yes	3.128	n/a	n/a	GoodResponse	0	0.0	n/a	3	9	ISIslide	AvoidedLoss	True
105.219	0.25	Control	1.0	0.0	Yes	3.281	0.019	n/a	GoodResponse	0	n/a	n/a	3	10	Cue	Neutral	True
105.468	4.0	Control	1.0	0.001	Yes	3.281	-0.001	n/a	GoodResponse	0	n/a	n/a	3	10	Fixation	Neutral	True
109.467	0.3	Control	1.0	0.002	Yes	3.281	-0.002	2.0	GoodResponse	0	0.176	108.643	3	10	Target	Neutral	True
109.643	0.3	Control	1.0	0.002	Yes	3.281	-0.002	2.0	GoodResponse	0	0.176	n/a	3	10	ButtonPress	Neutral	True
109.767	0.4	Control	1.0	n/a	Yes	3.281	n/a	n/a	GoodResponse	0	n/a	n/a	3	10	Blank	Neutral	True
110.167	1.45	Control	1.0	n/a	Yes	3.281	n/a	5.0	GoodResponse	0	0.008	109.175	3	10	Feedback	Neutral	True
111.616	3.281	Control	1.0	n/a	Yes	3.281	n/a	n/a	GoodResponse	0	0.0	n/a	3	10	ISIslide	Neutral	True
114.915	0.25	Lose2	1.0	0.0	Yes	2.735	0.015	n/a	GoodResponse	0	n/a	n/a	3	11	Cue	AvoidedLoss	True
115.165	4.05	Lose2	1.0	0.0	Yes	2.735	0.0	n/a	GoodResponse	0	n/a	n/a	3	11	Fixation	AvoidedLoss	True
119.214	0.29	Lose2	1.0	0.001	Yes	2.735	-0.001	2.0	GoodResponse	0	0.19	118.404	3	11	Target	AvoidedLoss	True
119.404	0.3	Lose2	1.0	0.001	Yes	2.735	-0.001	2.0	GoodResponse	0	0.19	n/a	3	11	ButtonPress	AvoidedLoss	True
119.514	0.41	Lose2	1.0	n/a	Yes	2.735	n/a	n/a	GoodResponse	0	n/a	n/a	3	11	Blank	AvoidedLoss	True
119.913	1.45	Lose2	1.0	n/a	Yes	2.735	n/a	5.0	GoodResponse	0	0.013	118.926	3	11	Feedback	AvoidedLoss	True
121.363	2.735	Lose2	1.0	n/a	Yes	2.735	n/a	n/a	GoodResponse	0	0.0	n/a	3	11	ISIslide	AvoidedLoss	True
124.129	0.25	Control	1.0	0.0	Yes	2.971	0.029	n/a	GoodResponse	0	n/a	n/a	3	12	Cue	Neutral	True
124.379	3.9	Control	1.0	0.0	Yes	2.971	0.0	n/a	GoodResponse	0	n/a	n/a	3	12	Fixation	Neutral	True
128.277	0.28	Control	1.0	0.002	Yes	2.971	-0.002	2.0	GoodResponse	0	0.161	127.438	3	12	Target	Neutral	True
128.438	0.3	Control	1.0	0.002	Yes	2.971	-0.002	2.0	GoodResponse	0	0.161	n/a	3	12	ButtonPress	Neutral	True
128.56	0.42	Control	1.0	n/a	Yes	2.971	n/a	n/a	GoodResponse	0	n/a	n/a	3	12	Blank	Neutral	True
128.977	1.45	Control	1.0	n/a	Yes	2.971	n/a	5.0	GoodResponse	0	0.022	127.999	3	12	Feedback	Neutral	True
130.426	2.971	Control	1.0	n/a	Yes	2.971	n/a	n/a	GoodResponse	0	0.0	n/a	3	12	ISIslide	Neutral	True
133.425	0.25	Control	1.0	0.0	Yes	2.775	0.025	n/a	GoodResponse	0	n/a	n/a	3	13	Cue	Neutral	False
133.675	4.0	Control	1.0	0.0	Yes	2.775	0.0	2.0	GoodResponse	0	3.52	136.195	3	13	Fixation	Neutral	False
137.195	0.3	Control	1.0	0.0	Yes	2.775	0.0	2.0	GoodResponse	0	3.52	n/a	3	13	ButtonPress	Neutral	False
137.674	0.27	Control	1.0	0.001	Yes	2.775	-0.001	2.0	GoodResponse	0	0.173	136.847	3	13	Target	Neutral	False
137.847	0.3	Control	1.0	0.001	Yes	2.775	-0.001	2.0	GoodResponse	0	0.173	n/a	3	13	ButtonPress	Neutral	False
137.94	0.43	Control	1.0	n/a	Yes	2.775	n/a	n/a	GoodResponse	0	n/a	n/a	3	13	Blank	Neutral	False
138.374	1.45	Control	1.0	n/a	Yes	2.775	n/a	5.0	GoodResponse	0	0.039	137.413	3	13	Feedback	Neutral	False
139.823	2.775	Control	1.0	n/a	Yes	2.775	n/a	n/a	GoodResponse	0	0.0	n/a	3	13	ISIslide	Neutral	False
142.622	0.25	Win2	1.0	0.0	Yes	2.678	0.022	n/a	GoodResponse	1	n/a	n/a	4	14	Cue	Win	True
142.872	4.1	Win2	1.0	0.0	Yes	2.678	0.0	n/a	GoodResponse	1	n/a	n/a	4	14	Fixation	Win	True
146.971	0.26	Win2	1.0	0.001	Yes	2.678	-0.001	2.0	GoodResponse	1	0.213	146.184	4	14	Target	Win	True
147.184	0.3	Win2	1.0	0.001	Yes	2.678	-0.001	2.0	GoodResponse	1	0.213	n/a	4	14	ButtonPress	Win	True
147.237	0.44	Win2	1.0	n/a	Yes	2.678	n/a	n/a	GoodResponse	1	n/a	n/a	4	14	Blank	Win	True
147.67	1.45	Win2	1.0	n/a	Yes	2.678	n/a	5.0	GoodResponse	1	0.012	146.682	4	14	Feedback	Win	True
149.12	2.678	Win2	1.0	n/a	Yes	2.678	n/a	n/a	GoodResponse	1	0.0	n/a	4	14	ISIslide	Win	True
151.819	0.25	Control	1.0	0.0	Yes	2.981	0.019	n/a	GoodResponse	0	n/a	n/a	4	15	Cue	Neutral	True
152.069	4.0	Control	1.0	0.0	Yes	2.981	0.0	n/a	GoodResponse	0	n/a	n/a	4	15	Fixation	Neutral	True
156.067	0.25	Control	1.0	0.002	Yes	2.981	-0.002	2.0	GoodResponse	0	0.201	155.268	4	15	Target	Neutral	True
156.268	0.3	Control	1.0	0.002	Yes	2.981	-0.002	2.0	GoodResponse	0	0.201	n/a	4	15	ButtonPress	Neutral	True
156.317	0.45	Control	1.0	n/a	Yes	2.981	n/a	n/a	GoodResponse	0	n/a	n/a	4	15	Blank	Neutral	True
156.767	1.45	Control	1.0	n/a	Yes	2.981	n/a	5.0	GoodResponse	0	0.037	155.804	4	15	Feedback	Neutral	True
158.217	2.981	Control	1.0	n/a	Yes	2.981	n/a	n/a	GoodResponse	0	0.0	n/a	4	15	ISIslide	Neutral	True
161.216	0.25	Win2	1.0	0.0	Yes	2.884	0.016	n/a	GoodResponse	1	n/a	n/a	5	16	Cue	Win	True
161.466	4.0	Win2	1.0	0.0	Yes	2.884	0.0	n/a	GoodResponse	1	n/a	n/a	5	16	Fixation	Win	True
165.464	0.24	Win2	1.0	0.002	Yes	2.884	-0.002	2.0	GoodResponse	1	0.188	164.652	5	16	Target	Win	True
165.652	0.3	Win2	1.0	0.002	Yes	2.884	-0.002	2.0	GoodResponse	1	0.188	n/a	5	16	ButtonPress	Win	True
165.714	0.46	Win2	1.0	n/a	Yes	2.884	n/a	n/a	GoodResponse	1	n/a	n/a	5	16	Blank	Win	True
166.164	1.45	Win2	1.0	n/a	Yes	2.884	n/a	5.0	GoodResponse	1	0.007	165.171	5	16	Feedback	Win	True
167.613	2.884	Win2	1.0	n/a	Yes	2.884	n/a	n/a	GoodResponse	1	0.0	n/a	5	16	ISIslide	Win	True
170.529	0.25	Lose2	1.0	0.0	Yes	2.721	0.029	n/a	GoodResponse	0	n/a	n/a	5	17	Cue	AvoidedLoss	True
170.779	3.95	Lose2	1.0	0.0	Yes	2.721	0.0	n/a	GoodResponse	0	n/a	n/a	5	17	Fixation	AvoidedLoss	True
174.728	0.23	Lose2	1.0	0.001	Yes	2.721	-0.001	2.0	GoodResponse	0	0.166	173.894	5	17	Target	AvoidedLoss	True
174.894	0.3	Lose2	1.0	0.001	Yes	2.721	-0.001	2.0	GoodResponse	0	0.166	n/a	5	17	ButtonPress	AvoidedLoss	True
174.961	0.47	Lose2	1.0	n/a	Yes	2.721	n/a	n/a	GoodResponse	0	n/a	n/a	5	17	Blank	AvoidedLoss	True
175.427	1.45	Lose2	1.0	n/a	Yes	2.721	n/a	5.0	GoodResponse	0	0.011	174.438	5	17	Feedback	AvoidedLoss	True
176.877	2.721	Lose2	1.0	n/a	Yes	2.721	n/a	n/a	GoodResponse	0	0.0	n/a	5	17	ISIslide	AvoidedLoss	True
179.626	0.25	Lose2	1.0	0.0	Yes	2.724	0.026	n/a	GoodResponse	0	n/a	n/a	5	18	Cue	AvoidedLoss	True
179.876	4.05	Lose2	1.0	0.0	Yes	2.724	0.0	n/a	GoodResponse	0	n/a	n/a	5	18	Fixation	AvoidedLoss	True
183.924	0.22	Lose2	1.0	0.002	Yes	2.724	-0.002	2.0	GoodResponse	0	0.185	183.109	5	18	Target	AvoidedLoss	True
184.109	0.3	Lose2	1.0	0.002	Yes	2.724	-0.002	2.0	GoodResponse	0	0.185	n/a	5	18	ButtonPress	AvoidedLoss	True
184.158	0.48	Lose2	1.0	n/a	Yes	2.724	n/a	n/a	GoodResponse	0	n/a	n/a	5	18	Blank	AvoidedLoss	True
184.624	1.45	Lose2	1.0	n/a	Yes	2.724	n/a	5.0	GoodResponse	0	0.033	183.657	5	18	Feedback	AvoidedLoss	True
186.074	2.724	Lose2	1.0	n/a	Yes	2.724	n/a	n/a	GoodResponse	0	0.0	n/a	5	18	ISIslide	AvoidedLoss	True
188.823	0.25	Control	1.0	0.0	Yes	2.927	0.023	n/a	GoodResponse	0	n/a	n/a	5	19	Cue	Neutral	True
189.073	3.95	Control	1.0	0.0	Yes	2.927	0.0	n/a	GoodResponse	0	n/a	n/a	5	19	Fixation	Neutral	True
193.021	0.21	Control	1.0	0.002	Yes	2.927	-0.002	2.0	GoodResponse	0	0.174	192.195	5	19	Target	Neutral	True
193.195	0.3	Control	1.0	0.002	Yes	2.927	-0.002	2.0	GoodResponse	0	0.174	n/a	5	19	ButtonPress	Neutral	True
193.238	0.49	Control	1.0	n/a	Yes	2.927	n/a	n/a	GoodResponse	0	n/a	n/a	5	19	Blank	Neutral	True
193.721	1.45	Control	1.0	n/a	Yes	2.927	n/a	5.0	GoodResponse	0	0.009	192.73	5	19	Feedback	Neutral	True
195.171	2.927	Control	1.0	n/a	Yes	2.927	n/a	n/a	GoodResponse	0	0.0	n/a	5	19	ISIslide	Neutral	True
198.119	0.25	Control	1.0	0.001	Yes	2.631	0.019	n/a	GoodResponse	0	n/a	n/a	5	20	Cue	Neutral	True
198.369	4.05	Control	1.0	0.001	Yes	2.631	0.0	n/a	GoodResponse	0	n/a	n/a	5	20	Fixation	Neutral	True
202.418	0.2	Control	1.0	0.001	Yes	2.631	-0.001	2.0	GoodResponse	0	0.181	201.599	5	20	Target	Neutral	True
202.599	0.3	Control	1.0	0.001	Yes	2.631	-0.001	2.0	GoodResponse	0	0.181	n/a	5	20	ButtonPress	Neutral	True
202.618	0.5	Control	1.0	n/a	Yes	2.631	n/a	n/a	GoodResponse	0	n/a	n/a	5	20	Blank	Neutral	True
203.118	1.45	Control	1.0	n/a	Yes	2.631	n/a	5.0	GoodResponse	0	0.027	202.145	5	20	Feedback	Neutral	True
204.567	2.631	Control	1.0	n/a	Yes	2.631	n/a	n/a	GoodResponse	0	0.0	n/a	5	20	ISIslide	Neutral	True
207.216	0.25	Control	0.9545	0.0	No	2.784	0.016	n/a	NoResponse	0	n/a	n/a	5	21	Cue	Neutral	True
207.466	4.1	Control	0.9545	0.0	No	2.784	0.0	n/a	NoResponse	0	n/a	n/a	5	21	Fixation	Neutral	True
211.565	0.19	Control	0.9545	0.001	No	2.784	-0.001	2.0	NoResponse	0	0.334	210.899	5	21	Target	Neutral	True
211.765	0.51	Control	0.9545	n/a	No	2.784	n/a	n/a	NoResponse	0	n/a	n/a	5	21	Blank	Neutral	True
211.899	0.3	Control	0.9545	0.001	No	2.784	-0.001	2.0	NoResponse	0	0.334	n/a	5	21	ButtonPress	Neutral	True
212.265	1.45	Control	0.9545	n/a	No	2.784	n/a	5.0	NoResponse	0	0.007	211.272	5	21	Feedback	Neutral	True
213.714	2.784	Control	0.9545	n/a	No	2.784	n/a	n/a	NoResponse	0	0.0	n/a	5	21	ISIslide	Neutral	True
216.53	0.25	Control	0.9565	0.0	Yes	2.77	0.03	n/a	GoodResponse	0	n/a	n/a	5	22	Cue	Neutral	True
216.78	4.0	Control	0.9565	0.0	Yes	2.77	0.0	n/a	GoodResponse	0	n/a	n/a	5	22	Fixation	Neutral	True
220.778	0.18	Control	0.9565	0.002	Yes	2.77	-0.002	2.0	GoodResponse	0	0.175	219.953	5	22	Target	Neutral	True
220.953	0.3	Control	0.9565	0.002	Yes	2.77	-0.002	2.0	GoodResponse	0	0.175	n/a	5	22	ButtonPress	Neutral	True
220.962	0.52	Control	0.9565	n/a	Yes	2.77	n/a	n/a	GoodResponse	0	n/a	n/a	5	22	Blank	Neutral	True
221.478	1.45	Control	0.9565	n/a	Yes	2.77	n/a	5.0	GoodResponse	0	0.009	220.487	5	22	Feedback	Neutral	True
222.927	2.77	Control	0.9565	n/a	Yes	2.77	n/a	n/a	GoodResponse	0	0.0	n/a	5	22	ISIslide	Neutral	True
225.727	0.25	Control	0.9167000000000001	0.0	No	2.773	0.027	n/a	LatePress	0	n/a	n/a	5	23	Cue	Neutral	True
225.976	3.9	Control	0.9167000000000001	0.001	No	2.773	-0.001	n/a	LatePress	0	n/a	n/a	5	23	Fixation	Neutral	True
229.875	0.17	Control	0.9167000000000001	0.002	No	2.773	-0.002	2.0	LatePress	0	0.172	229.047	5	23	Target	Neutral	True
230.047	0.3	Control	0.9167000000000001	0.002	No	2.773	-0.002	2.0	LatePress	0	0.172	n/a	5	23	ButtonPress	Neutral	True
230.058	0.53	Control	0.9167000000000001	n/a	No	2.773	n/a	n/a	LatePress	0	n/a	n/a	5	23	Blank	Neutral	True
230.575	1.45	Control	0.9167000000000001	n/a	No	2.773	n/a	5.0	LatePress	0	0.033	229.608	5	23	Feedback	Neutral	True
232.024	2.773	Control	0.9167000000000001	n/a	No	2.773	n/a	n/a	LatePress	0	0.0	n/a	5	23	ISIslide	Neutral	True
234.823	0.25	Win2	0.88	0.0	No	3.127	0.023	n/a	NoResponse	0	n/a	n/a	5	24	Cue	MissedWin	False
235.073	3.95	Win2	0.88	0.0	No	3.127	0.0	2.0	NoResponse	0	3.551	237.624	5	24	Fixation	MissedWin	False
238.624	0.3	Win2	0.88	0.0	No	3.127	0.0	2.0	NoResponse	0	3.551	n/a	5	24	ButtonPress	MissedWin	False
239.022	0.16	Win2	0.88	0.001	No	3.127	-0.001	2.0	NoResponse	0	0.182	238.204	5	24	Target	MissedWin	False
239.188	0.54	Win2	0.88	n/a	No	3.127	n/a	n/a	NoResponse	0	n/a	n/a	5	24	Blank	MissedWin	False
239.204	0.3	Win2	0.88	0.001	No	3.127	-0.001	2.0	NoResponse	0	0.182	n/a	5	24	ButtonPress	MissedWin	False
239.722	1.45	Win2	0.88	n/a	No	3.127	n/a	5.0	NoResponse	0	0.008	238.73	5	24	Feedback	MissedWin	False
241.171	3.127	Win2	0.88	n/a	No	3.127	n/a	n/a	NoResponse	0	0.0	n/a	5	24	ISIslide	MissedWin	False
244.32	0.25	Win2	0.8462000000000001	0.0	No	3.08	0.02	n/a	NoResponse	0	n/a	n/a	5	25	Cue	MissedWin	True
244.57	4.0	Win2	0.8462000000000001	0.0	No	3.08	0.0	n/a	NoResponse	0	n/a	n/a	5	25	Fixation	MissedWin	True
248.569	0.15	Win2	0.8462000000000001	0.001	No	3.08	-0.001	2.0	NoResponse	0	0.176	247.745	5	25	Target	MissedWin	True
248.718	0.55	Win2	0.8462000000000001	n/a	No	3.08	n/a	n/a	NoResponse	0	n/a	n/a	5	25	Blank	MissedWin	True
248.745	0.3	Win2	0.8462000000000001	0.001	No	3.08	-0.001	2.0	NoResponse	0	0.176	n/a	5	25	ButtonPress	MissedWin	True
249.268	1.45	Win2	0.8462000000000001	n/a	No	3.08	n/a	5.0	NoResponse	0	0.023	248.291	5	25	Feedback	MissedWin	True
250.718	3.08	Win2	0.8462000000000001	n/a	No	3.08	n/a	n/a	NoResponse	0	0.0	n/a	5	25	ISIslide	MissedWin	True
253.817	0.25	Win2	0.8148000000000001	0.0	No	2.933	0.017	n/a	NoResponse	0	n/a	n/a	5	26	Cue	MissedWin	True
254.067	3.95	Win2	0.8148000000000001	0.0	No	2.933	0.0	n/a	NoResponse	0	n/a	n/a	5	26	Fixation	MissedWin	True
258.015	0.15	Win2	0.8148000000000001	0.002	No	2.933	-0.002	2.0	NoResponse	0	0.184	257.199	5	26	Target	MissedWin	True
258.165	0.55	Win2	0.8148000000000001	n/a	No	2.933	n/a	n/a	NoResponse	0	n/a	n/a	5	26	Blank	MissedWin	True
258.199	0.3	Win2	0.8148000000000001	0.002	No	2.933	-0.002	2.0	NoResponse	0	0.184	n/a	5	26	ButtonPress	MissedWin	True
258.715	1.45	Win2	0.8148000000000001	n/a	No	2.933	n/a	5.0	NoResponse	0	0.039	257.754	5	26	Feedback	MissedWin	True
260.165	2.933	Win2	0.8148000000000001	n/a	No	2.933	n/a	n/a	NoResponse	0	0.0	n/a	5	26	ISIslide	MissedWin	True
263.113	0.25	Lose2	0.7857	0.001	No	2.837	0.013	n/a	NoResponse	-1	n/a	n/a	4	27	Cue	Loss	True
263.363	4.05	Lose2	0.7857	0.0	No	2.837	0.0	n/a	NoResponse	-1	n/a	n/a	4	27	Fixation	Loss	True
267.412	0.15	Lose2	0.7857	0.001	No	2.837	-0.001	2.0	NoResponse	-1	0.194	266.606	4	27	Target	Loss	True
267.562	0.55	Lose2	0.7857	n/a	No	2.837	n/a	n/a	NoResponse	-1	n/a	n/a	4	27	Blank	Loss	True
267.606	0.3	Lose2	0.7857	0.001	No	2.837	-0.001	2.0	NoResponse	-1	0.194	n/a	4	27	ButtonPress	Loss	True
268.112	1.45	Lose2	0.7857	n/a	No	2.837	n/a	5.0	NoResponse	-1	0.008	267.12	4	27	Feedback	Loss	True
269.561	2.837	Lose2	0.7857	n/a	No	2.837	n/a	n/a	NoResponse	-1	0.0	n/a	4	27	ISIslide	Loss	True
272.427	0.25	Control	0.7585999999999999	0.0	No	2.823	0.027	n/a	NoResponse	0	n/a	n/a	4	28	Cue	Neutral	True
272.677	4.05	Control	0.7585999999999999	0.0	No	2.823	0.0	n/a	NoResponse	0	n/a	n/a	4	28	Fixation	Neutral	True
276.725	0.15	Control	0.7585999999999999	0.002	No	2.823	-0.002	2.0	NoResponse	0	0.187	275.912	4	28	Target	Neutral	True
276.875	0.55	Control	0.7585999999999999	n/a	No	2.823	n/a	n/a	NoResponse	0	n/a	n/a	4	28	Blank	Neutral	True
276.912	0.3	Control	0.7585999999999999	0.002	No	2.823	-0.002	2.0	NoResponse	0	0.187	n/a	4	28	ButtonPress	Neutral	True
277.425	1.45	Control	0.7585999999999999	n/a	No	2.823	n/a	5.0	NoResponse	0	0.013	276.438	4	28	Feedback	Neutral	True
278.875	2.823	Control	0.7585999999999999	n/a	No	2.823	n/a	n/a	NoResponse	0	0.0	n/a	4	28	ISIslide	Neutral	True
281.724	0.25	Lose2	0.7333	0.0	No	2.826	0.024	n/a	NoResponse	-1	n/a	n/a	3	29	Cue	Loss	True
281.974	3.95	Lose2	0.7333	0.0	No	2.826	0.0	n/a	NoResponse	-1	n/a	n/a	3	29	Fixation	Loss	True
285.922	0.15	Lose2	0.7333	0.002	No	2.826	-0.002	2.0	NoResponse	-1	0.171	285.093	3	29	Target	Loss	True
286.072	0.55	Lose2	0.7333	n/a	No	2.826	n/a	n/a	NoResponse	-1	n/a	n/a	3	29	Blank	Loss	True
286.093	0.3	Lose2	0.7333	0.002	No	2.826	-0.002	2.0	NoResponse	-1	0.171	n/a	3	29	ButtonPress	Loss	True
286.622	1.45	Lose2	0.7333	n/a	No	2.826	n/a	5.0	NoResponse	-1	0.034	285.656	3	29	Feedback	Loss	True
288.071	2.826	Lose2	0.7333	n/a	No	2.826	n/a	n/a	NoResponse	-1	0.0	n/a	3	29	ISIslide	Loss	True
290.92	0.25	Win2	0.7097	0.001	No	2.78	0.02	n/a	NoResponse	0	n/a	n/a	3	30	Cue	MissedWin	True
291.17	3.9	Win2	0.7097	0.0	No	2.78	0.0	n/a	NoResponse	0	n/a	n/a	3	30	Fixation	MissedWin	True
295.069	0.15	Win2	0.7097	0.001	No	2.78	-0.001	2.0	NoResponse	0	0.259	294.328	3	30	Target	MissedWin	True
295.219	0.55	Win2	0.7097	n/a	No	2.78	n/a	n/a	NoResponse	0	n/a	n/a	3	30	Blank	MissedWin	True
295.328	0.3	Win2	0.7097	0.001	No	2.78	-0.001	2.0	NoResponse	0	0.259	n/a	3	30	ButtonPress	MissedWin	True
295.769	1.45	Win2	0.7097	n/a	No	2.78	n/a	5.0	NoResponse	0	0.009	294.778	3	30	Feedback	MissedWin	True
297.218	2.78	Win2	0.7097	n/a	No	2.78	n/a	n/a	NoResponse	0	0.0	n/a	3	30	ISIslide	MissedWin	True
300.017	0.25	Lose2	0.6875	0.0	No	2.833	0.017	n/a	NoResponse	-1	n/a	n/a	2	31	Cue	Loss	True
300.267	4.05	Lose2	0.6875	0.0	No	2.833	0.0	n/a	NoResponse	-1	n/a	n/a	2	31	Fixation	Loss	True
304.316	0.15	Lose2	0.6875	0.001	No	2.833	-0.001	2.0	NoResponse	-1	0.176	303.492	2	31	Target	Loss	True
304.466	0.55	Lose2	0.6875	n/a	No	2.833	n/a	n/a	NoResponse	-1	n/a	n/a	2	31	Blank	Loss	True
304.492	0.3	Lose2	0.6875	0.001	No	2.833	-0.001	2.0	NoResponse	-1	0.176	n/a	2	31	ButtonPress	Loss	True
305.016	1.45	Lose2	0.6875	n/a	No	2.833	n/a	5.0	NoResponse	-1	0.031	304.047	2	31	Feedback	Loss	True
306.465	2.833	Lose2	0.6875	n/a	No	2.833	n/a	n/a	NoResponse	-1	0.0	n/a	2	31	ISIslide	Loss	True
309.314	0.25	Lose2	0.6667000000000001	0.0	No	2.636	0.014	n/a	NoResponse	-1	n/a	n/a	1	32	Cue	Loss	True
309.564	4.15	Lose2	0.6667000000000001	0.0	No	2.636	0.0	n/a	NoResponse	-1	n/a	n/a	1	32	Fixation	Loss	True
313.712	0.15	Lose2	0.6667000000000001	0.002	No	2.636	-0.002	2.0	NoResponse	-1	0.159	312.871	1	32	Target	Loss	True
313.862	0.55	Lose2	0.6667000000000001	n/a	No	2.636	n/a	n/a	NoResponse	-1	n/a	n/a	1	32	Blank	Loss	True
313.871	0.3	Lose2	0.6667000000000001	0.002	No	2.636	-0.002	2.0	NoResponse	-1	0.159	n/a	1	32	ButtonPress	Loss	True
314.412	1.45	Lose2	0.6667000000000001	n/a	No	2.636	n/a	5.0	NoResponse	-1	0.002	313.414	1	32	Feedback	Loss	True
315.862	2.636	Lose2	0.6667000000000001	n/a	No	2.636	n/a	n/a	NoResponse	-1	0.0	n/a	1	32	ISIslide	Loss	True
318.527	0.25	Win2	0.6470999999999999	0.001	No	2.673	0.027	n/a	NoResponse	0	n/a	n/a	1	33	Cue	MissedWin	True
318.777	4.0	Win2	0.6470999999999999	0.0	No	2.673	0.0	n/a	NoResponse	0	n/a	n/a	1	33	Fixation	MissedWin	True
322.776	0.15	Win2	0.6470999999999999	0.001	No	2.673	-0.001	2.0	NoResponse	0	0.174	321.95	1	33	Target	MissedWin	True
322.926	0.55	Win2	0.6470999999999999	n/a	No	2.673	n/a	n/a	NoResponse	0	n/a	n/a	1	33	Blank	MissedWin	True
322.95	0.3	Win2	0.6470999999999999	0.001	No	2.673	-0.001	2.0	NoResponse	0	0.174	n/a	1	33	ButtonPress	MissedWin	True
323.476	1.45	Win2	0.6470999999999999	n/a	No	2.673	n/a	5.0	NoResponse	0	0.01	322.486	1	33	Feedback	MissedWin	True
324.925	2.673	Win2	0.6470999999999999	n/a	No	2.673	n/a	n/a	NoResponse	0	0.0	n/a	1	33	ISIslide	MissedWin	True
327.624	0.25	Lose2	0.6286	0.0	No	2.626	0.024	n/a	NoResponse	-1	n/a	n/a	0	34	Cue	Loss	True
327.874	4.05	Lose2	0.6286	0.0	No	2.626	0.0	n/a	NoResponse	-1	n/a	n/a	0	34	Fixation	Loss	True
331.923	0.16	Lose2	0.6286	0.001	No	2.626	-0.001	2.0	NoResponse	-1	0.186	331.109	0	34	Target	Loss	True
332.089	0.54	Lose2	0.6286	n/a	No	2.626	n/a	n/a	NoResponse	-1	n/a	n/a	0	34	Blank	Loss	True
332.109	0.3	Lose2	0.6286	0.001	No	2.626	-0.001	2.0	NoResponse	-1	0.186	n/a	0	34	ButtonPress	Loss	True
332.623	1.45	Lose2	0.6286	n/a	No	2.626	n/a	5.0	NoResponse	-1	0.033	331.656	0	34	Feedback	Loss	True
334.072	2.626	Lose2	0.6286	n/a	No	2.626	n/a	n/a	NoResponse	-1	0.0	n/a	0	34	ISIslide	Loss	True
336.721	0.25	Lose2	0.6111	0.0	No	2.679	0.021	n/a	NoResponse	-1	n/a	n/a	-1	35	Cue	Loss	False
336.971	4.0	Lose2	0.6111	0.0	No	2.679	0.0	2.0	NoResponse	-1	3.806	339.777	-1	35	Fixation	Loss	False
340.777	0.3	Lose2	0.6111	0.0	No	2.679	0.0	2.0	NoResponse	-1	3.806	n/a	-1	35	ButtonPress	Loss	False
340.97	0.17	Lose2	0.6111	0.001	No	2.679	-0.001	2.0	NoResponse	-1	0.231	340.201	-1	35	Target	Loss	False
341.136	0.53	Lose2	0.6111	n/a	No	2.679	n/a	n/a	NoResponse	-1	n/a	n/a	-1	35	Blank	Loss	False
341.201	0.3	Lose2	0.6111	0.001	No	2.679	-0.001	2.0	NoResponse	-1	0.231	n/a	-1	35	ButtonPress	Loss	False
341.669	1.45	Lose2	0.6111	n/a	No	2.679	n/a	5.0	NoResponse	-1	0.011	340.68	-1	35	Feedback	Loss	False
343.119	2.679	Lose2	0.6111	n/a	No	2.679	n/a	n/a	NoResponse	-1	0.0	n/a	-1	35	ISIslide	Loss	False
345.818	0.25	Control	0.5946	0.0	No	2.682	0.018	n/a	LatePress	0	n/a	n/a	-1	36	Cue	Neutral	True
346.068	4.0	Control	0.5946	0.0	No	2.682	0.0	n/a	LatePress	0	n/a	n/a	-1	36	Fixation	Neutral	True
350.066	0.18	Control	0.5946	0.002	No	2.682	-0.002	2.0	LatePress	0	0.181	349.247	-1	36	Target	Neutral	True
350.247	0.3	Control	0.5946	0.002	No	2.682	-0.002	2.0	LatePress	0	0.181	n/a	-1	36	ButtonPress	Neutral	True
350.25	0.52	Control	0.5946	n/a	No	2.682	n/a	n/a	LatePress	0	n/a	n/a	-1	36	Blank	Neutral	True
350.766	1.45	Control	0.5946	n/a	No	2.682	n/a	5.0	LatePress	0	0.036	349.802	-1	36	Feedback	Neutral	True
352.216	2.682	Control	0.5946	n/a	No	2.682	n/a	n/a	LatePress	0	0.0	n/a	-1	36	ISIslide	Neutral	True
354.931	0.25	Win2	0.6053000000000001	0.001	Yes	2.869	0.031	n/a	GoodResponse	1	n/a	n/a	0	37	Cue	Win	True
355.181	4.0	Win2	0.6053000000000001	0.0	Yes	2.869	0.0	n/a	GoodResponse	1	n/a	n/a	0	37	Fixation	Win	True
359.18	0.19	Win2	0.6053000000000001	0.001	Yes	2.869	-0.001	2.0	GoodResponse	1	0.165	358.345	0	37	Target	Win	True
359.345	0.3	Win2	0.6053000000000001	0.001	Yes	2.869	-0.001	2.0	GoodResponse	1	0.165	n/a	0	37	ButtonPress	Win	True
359.38	0.51	Win2	0.6053000000000001	n/a	Yes	2.869	n/a	n/a	GoodResponse	1	n/a	n/a	0	37	Blank	Win	True
359.88	1.45	Win2	0.6053000000000001	n/a	Yes	2.869	n/a	5.0	GoodResponse	1	0.0	358.88	0	37	Feedback	Win	True
361.329	2.869	Win2	0.6053000000000001	n/a	Yes	2.869	n/a	n/a	GoodResponse	1	0.0	n/a	0	37	ISIslide	Win	True
364.228	0.25	Lose2	0.6154	0.0	Yes	2.822	0.028	n/a	GoodResponse	0	n/a	n/a	0	38	Cue	AvoidedLoss	False
364.478	3.95	Lose2	0.6154	0.0	Yes	2.822	0.0	2.0	GoodResponse	0	3.689	367.167	0	38	Fixation	AvoidedLoss	False
368.167	0.3	Lose2	0.6154	0.0	Yes	2.822	0.0	2.0	GoodResponse	0	3.689	n/a	0	38	ButtonPress	AvoidedLoss	False
368.427	0.2	Lose2	0.6154	0.001	Yes	2.822	-0.001	2.0	GoodResponse	0	0.184	367.611	0	38	Target	AvoidedLoss	False
368.611	0.3	Lose2	0.6154	0.001	Yes	2.822	-0.001	2.0	GoodResponse	0	0.184	n/a	0	38	ButtonPress	AvoidedLoss	False
368.627	0.5	Lose2	0.6154	n/a	Yes	2.822	n/a	n/a	GoodResponse	0	n/a	n/a	0	38	Blank	AvoidedLoss	False
369.126	1.45	Lose2	0.6154	n/a	Yes	2.822	n/a	5.0	GoodResponse	0	0.018	368.144	0	38	Feedback	AvoidedLoss	False
370.576	2.822	Lose2	0.6154	n/a	Yes	2.822	n/a	n/a	GoodResponse	0	0.0	n/a	0	38	ISIslide	AvoidedLoss	False
373.425	0.25	Win2	0.625	0.0	Yes	2.975	0.025	n/a	GoodResponse	1	n/a	n/a	1	39	Cue	Win	True
373.675	4.1	Win2	0.625	0.0	Yes	2.975	0.0	n/a	GoodResponse	1	n/a	n/a	1	39	Fixation	Win	True
377.773	0.21	Win2	0.625	0.002	Yes	2.975	-0.002	2.0	GoodResponse	1	0.202	376.975	1	39	Target	Win	True
377.975	0.3	Win2	0.625	0.002	Yes	2.975	-0.002	2.0	GoodResponse	1	0.202	n/a	1	39	ButtonPress	Win	True
377.99	0.49	Win2	0.625	n/a	Yes	2.975	n/a	n/a	GoodResponse	1	n/a	n/a	1	39	Blank	Win	True
378.473	1.45	Win2	0.625	n/a	Yes	2.975	n/a	5.0	GoodResponse	1	0.037	377.51	1	39	Feedback	Win	True
379.923	2.975	Win2	0.625	n/a	Yes	2.975	n/a	n/a	GoodResponse	1	0.0	n/a	1	39	ISIslide	Win	True
382.922	0.25	Win2	0.6341	0.0	Yes	2.728	0.022	n/a	GoodResponse	1	n/a	n/a	2	40	Cue	Win	False
383.172	3.95	Win2	0.6341	0.0	Yes	2.728	0.0	2.0	GoodResponse	1	3.557	385.729	2	40	Fixation	Win	False
386.729	0.3	Win2	0.6341	0.0	Yes	2.728	0.0	2.0	GoodResponse	1	3.557	n/a	2	40	ButtonPress	Win	False
387.12	0.22	Win2	0.6341	0.002	Yes	2.728	-0.002	2.0	GoodResponse	1	0.187	386.307	2	40	Target	Win	False
387.307	0.3	Win2	0.6341	0.002	Yes	2.728	-0.002	2.0	GoodResponse	1	0.187	n/a	2	40	ButtonPress	Win	False
387.353	0.48	Win2	0.6341	n/a	Yes	2.728	n/a	n/a	GoodResponse	1	n/a	n/a	2	40	Blank	Win	False
387.82	1.45	Win2	0.6341	n/a	Yes	2.728	n/a	5.0	GoodResponse	1	0.007	386.827	2	40	Feedback	Win	False
389.269	2.728	Win2	0.6341	n/a	Yes	2.728	n/a	n/a	GoodResponse	1	0.0	n/a	2	40	ISIslide	Win	False
392.019	0.25	Win2	0.619	0.0	No	2.781	0.019	n/a	LatePress	0	n/a	n/a	2	41	Cue	MissedWin	True
392.268	3.9	Win2	0.619	0.001	No	2.781	-0.001	n/a	LatePress	0	n/a	n/a	2	41	Fixation	MissedWin	True
396.167	0.23	Win2	0.619	0.002	No	2.781	-0.002	2.0	LatePress	0	0.233	395.4	2	41	Target	MissedWin	True
396.4	0.47	Win2	0.619	n/a	No	2.781	n/a	n/a	LatePress	0	n/a	n/a	2	41	Blank	MissedWin	True
396.4	0.3	Win2	0.619	0.002	No	2.781	-0.002	2.0	LatePress	0	0.233	n/a	2	41	ButtonPress	MissedWin	True
396.867	1.45	Win2	0.619	n/a	No	2.781	n/a	5.0	LatePress	0	0.032	395.899	2	41	Feedback	MissedWin	True
398.316	2.781	Win2	0.619	n/a	No	2.781	n/a	n/a	LatePress	0	0.0	n/a	2	41	ISIslide	MissedWin	True
401.115	0.25	Control	0.6047	0.0	No	2.935	0.015	n/a	NoResponse	0	n/a	n/a	2	42	Cue	Neutral	True
401.365	3.85	Control	0.6047	0.0	No	2.935	0.0	n/a	NoResponse	0	n/a	n/a	2	42	Fixation	Neutral	True
405.214	0.24	Control	0.6047	0.001	No	2.935	-0.001	2.0	NoResponse	0	0.339	404.553	2	42	Target	Neutral	True
405.464	0.46	Control	0.6047	n/a	No	2.935	n/a	n/a	NoResponse	0	n/a	n/a	2	42	Blank	Neutral	True
405.553	0.3	Control	0.6047	0.001	No	2.935	-0.001	2.0	NoResponse	0	0.339	n/a	2	42	ButtonPress	Neutral	True
405.914	1.45	Control	0.6047	n/a	No	2.935	n/a	5.0	NoResponse	0	0.01	404.924	2	42	Feedback	Neutral	True
407.363	2.935	Control	0.6047	n/a	No	2.935	n/a	n/a	NoResponse	0	0.0	n/a	2	42	ISIslide	Neutral	True
410.329	0.25	Win2	0.6136	0.0	Yes	3.171	0.029	n/a	GoodResponse	1	n/a	n/a	3	43	Cue	Win	True
410.579	4.0	Win2	0.6136	0.0	Yes	3.171	0.0	n/a	GoodResponse	1	n/a	n/a	3	43	Fixation	Win	True
414.577	0.25	Win2	0.6136	0.002	Yes	3.171	-0.002	2.0	GoodResponse	1	0.205	413.782	3	43	Target	Win	True
414.782	0.3	Win2	0.6136	0.002	Yes	3.171	-0.002	2.0	GoodResponse	1	0.205	n/a	3	43	ButtonPress	Win	True
414.827	0.45	Win2	0.6136	n/a	Yes	3.171	n/a	n/a	GoodResponse	1	n/a	n/a	3	43	Blank	Win	True
415.277	1.45	Win2	0.6136	n/a	Yes	3.171	n/a	5.0	GoodResponse	1	0.013	414.29	3	43	Feedback	Win	True
416.727	3.171	Win2	0.6136	n/a	Yes	3.171	n/a	n/a	GoodResponse	1	0.0	n/a	3	43	ISIslide	Win	True
419.925	0.25	Win2	0.6222	0.001	Yes	2.975	0.025	n/a	GoodResponse	1	n/a	n/a	4	44	Cue	Win	True
420.175	4.0	Win2	0.6222	0.0	Yes	2.975	0.0	n/a	GoodResponse	1	n/a	n/a	4	44	Fixation	Win	True
424.174	0.26	Win2	0.6222	0.001	Yes	2.975	-0.001	2.0	GoodResponse	1	0.185	423.359	4	44	Target	Win	True
424.359	0.3	Win2	0.6222	0.001	Yes	2.975	-0.001	2.0	GoodResponse	1	0.185	n/a	4	44	ButtonPress	Win	True
424.441	0.44	Win2	0.6222	n/a	Yes	2.975	n/a	n/a	GoodResponse	1	n/a	n/a	4	44	Blank	Win	True
424.874	1.45	Win2	0.6222	n/a	Yes	2.975	n/a	5.0	GoodResponse	1	0.026	423.9	4	44	Feedback	Win	True
426.323	2.975	Win2	0.6222	n/a	Yes	2.975	n/a	n/a	GoodResponse	1	0.0	n/a	4	44	ISIslide	Win	True
429.322	0.25	Control	0.6087	0.0	No	2.878	0.022	n/a	NoResponse	0	n/a	n/a	4	45	Cue	Neutral	True
429.572	4.1	Control	0.6087	0.0	No	2.878	0.0	n/a	NoResponse	0	n/a	n/a	4	45	Fixation	Neutral	True
433.671	0.27	Control	0.6087	0.001	No	2.878	-0.001	2.0	NoResponse	0	0.412	433.083	4	45	Target	Neutral	True
433.954	0.43	Control	0.6087	n/a	No	2.878	n/a	n/a	NoResponse	0	n/a	n/a	4	45	Blank	Neutral	True
434.083	0.3	Control	0.6087	0.001	No	2.878	-0.001	2.0	NoResponse	0	0.412	n/a	4	45	ButtonPress	Neutral	True
434.37	1.45	Control	0.6087	n/a	No	2.878	n/a	5.0	NoResponse	0	0.041	433.411	4	45	Feedback	Neutral	True
435.82	2.878	Control	0.6087	n/a	No	2.878	n/a	n/a	NoResponse	0	0.0	n/a	4	45	ISIslide	Neutral	True
438.719	0.25	Lose2	0.617	0.0	Yes	3.381	0.019	n/a	GoodResponse	0	n/a	n/a	4	46	Cue	AvoidedLoss	True
438.969	4.0	Lose2	0.617	0.0	Yes	3.381	0.0	n/a	GoodResponse	0	n/a	n/a	4	46	Fixation	AvoidedLoss	True
442.967	0.28	Lose2	0.617	0.002	Yes	3.381	-0.002	2.0	GoodResponse	0	0.173	442.14	4	46	Target	AvoidedLoss	True
443.14	0.3	Lose2	0.617	0.002	Yes	3.381	-0.002	2.0	GoodResponse	0	0.173	n/a	4	46	ButtonPress	AvoidedLoss	True
443.251	0.42	Lose2	0.617	n/a	Yes	3.381	n/a	n/a	GoodResponse	0	n/a	n/a	4	46	Blank	AvoidedLoss	True
443.667	1.45	Lose2	0.617	n/a	Yes	3.381	n/a	5.0	GoodResponse	0	0.013	442.68	4	46	Feedback	AvoidedLoss	True
445.117	3.381	Lose2	0.617	n/a	Yes	3.381	n/a	n/a	GoodResponse	0	0.0	n/a	4	46	ISIslide	AvoidedLoss	True
448.515	0.25	Lose2	0.625	0.001	Yes	2.685	0.015	n/a	GoodResponse	0	n/a	n/a	4	47	Cue	AvoidedLoss	True
448.765	4.0	Lose2	0.625	0.0	Yes	2.685	0.0	n/a	GoodResponse	0	n/a	n/a	4	47	Fixation	AvoidedLoss	True
452.764	0.29	Lose2	0.625	0.001	Yes	2.685	-0.001	2.0	GoodResponse	0	0.209	451.973	4	47	Target	AvoidedLoss	True
452.973	0.3	Lose2	0.625	0.001	Yes	2.685	-0.001	2.0	GoodResponse	0	0.209	n/a	4	47	ButtonPress	AvoidedLoss	True
453.064	0.41	Lose2	0.625	n/a	Yes	2.685	n/a	n/a	GoodResponse	0	n/a	n/a	4	47	Blank	AvoidedLoss	True
453.464	1.45	Lose2	0.625	n/a	Yes	2.685	n/a	5.0	GoodResponse	0	0.021	452.485	4	47	Feedback	AvoidedLoss	True
454.913	2.685	Lose2	0.625	n/a	Yes	2.685	n/a	n/a	GoodResponse	0	0.0	n/a	4	47	ISIslide	AvoidedLoss	True
457.629	0.25	Lose2	0.6327	0.0	Yes	3.021	0.029	n/a	GoodResponse	0	n/a	n/a	4	48	Cue	AvoidedLoss	True
457.879	3.95	Lose2	0.6327	0.0	Yes	3.021	0.0	n/a	GoodResponse	0	n/a	n/a	4	48	Fixation	AvoidedLoss	True
461.827	0.3	Lose2	0.6327	0.002	Yes	3.021	-0.002	2.0	GoodResponse	0	0.109	460.936	4	48	Target	AvoidedLoss	True
461.936	0.3	Lose2	0.6327	0.002	Yes	3.021	-0.002	2.0	GoodResponse	0	0.109	n/a	4	48	ButtonPress	AvoidedLoss	True
462.127	0.4	Lose2	0.6327	n/a	Yes	3.021	n/a	n/a	GoodResponse	0	n/a	n/a	4	48	Blank	AvoidedLoss	True
462.527	1.45	Lose2	0.6327	n/a	Yes	3.021	n/a	5.0	GoodResponse	0	0.031	461.558	4	48	Feedback	AvoidedLoss	True
463.977	3.021	Lose2	0.6327	n/a	Yes	3.021	n/a	n/a	GoodResponse	0	0.0	n/a	4	48	ISIslide	AvoidedLoss	True
467.026	0.25	Control	0.64	0.0	Yes	2.874	0.026	n/a	GoodResponse	0	n/a	n/a	4	49	Cue	Neutral	True
467.276	4.0	Control	0.64	0.0	Yes	2.874	0.0	n/a	GoodResponse	0	n/a	n/a	4	49	Fixation	Neutral	True
471.274	0.31	Control	0.64	0.002	Yes	2.874	-0.002	2.0	GoodResponse	0	0.216	470.49	4	49	Target	Neutral	True
471.49	0.3	Control	0.64	0.002	Yes	2.874	-0.002	2.0	GoodResponse	0	0.216	n/a	4	49	ButtonPress	Neutral	True
471.591	0.39	Control	0.64	n/a	Yes	2.874	n/a	n/a	GoodResponse	0	n/a	n/a	4	49	Blank	Neutral	True
471.974	1.45	Control	0.64	n/a	Yes	2.874	n/a	5.0	GoodResponse	0	0.047	471.021	4	49	Feedback	Neutral	True
473.423	2.874	Control	0.64	n/a	Yes	2.874	n/a	n/a	GoodResponse	0	0.0	n/a	4	49	ISIslide	Neutral	True
476.322	0.25	Control	0.6470999999999999	0.001	Yes	2.778	0.022	n/a	GoodResponse	0	n/a	n/a	4	50	Cue	Neutral	True
476.572	4.0	Control	0.6470999999999999	0.0	Yes	2.778	0.0	n/a	GoodResponse	0	n/a	n/a	4	50	Fixation	Neutral	True
480.571	0.32	Control	0.6470999999999999	0.001	Yes	2.778	-0.001	2.0	GoodResponse	0	0.171	479.742	4	50	Target	Neutral	True
480.742	0.3	Control	0.6470999999999999	0.001	Yes	2.778	-0.001	2.0	GoodResponse	0	0.171	n/a	4	50	ButtonPress	Neutral	True
480.887	0.38	Control	0.6470999999999999	n/a	Yes	2.778	n/a	n/a	GoodResponse	0	n/a	n/a	4	50	Blank	Neutral	True
481.271	1.45	Control	0.6470999999999999	n/a	Yes	2.778	n/a	5.0	GoodResponse	0	0.018	480.289	4	50	Feedback	Neutral	True
482.72	2.778	Control	0.6470999999999999	n/a	Yes	2.778	n/a	n/a	GoodResponse	0	0.0	n/a	4	50	ISIslide	Neutral	True
485.519	0.25	Control	0.6537999999999999	0.0	Yes	2.731	0.019	n/a	GoodResponse	0	n/a	n/a	4	51	Cue	Neutral	True
485.769	3.95	Control	0.6537999999999999	0.0	Yes	2.731	0.0	n/a	GoodResponse	0	n/a	n/a	4	51	Fixation	Neutral	True
489.718	0.33	Control	0.6537999999999999	0.001	Yes	2.731	-0.001	2.0	GoodResponse	0	0.245	488.963	4	51	Target	Neutral	True
489.963	0.3	Control	0.6537999999999999	0.001	Yes	2.731	-0.001	2.0	GoodResponse	0	0.245	n/a	4	51	ButtonPress	Neutral	True
490.051	0.37	Control	0.6537999999999999	n/a	Yes	2.731	n/a	n/a	GoodResponse	0	n/a	n/a	4	51	Blank	Neutral	True
490.418	1.45	Control	0.6537999999999999	n/a	Yes	2.731	n/a	5.0	GoodResponse	0	0.042	489.46	4	51	Feedback	Neutral	True
491.867	2.731	Control	0.6537999999999999	n/a	Yes	2.731	n/a	n/a	GoodResponse	0	0.0	n/a	4	51	ISIslide	Neutral	True
494.616	0.25	Control	0.6604000000000001	0.0	Yes	2.634	0.016	n/a	GoodResponse	0	n/a	n/a	4	52	Cue	Neutral	True
494.866	4.05	Control	0.6604000000000001	0.0	Yes	2.634	0.0	n/a	GoodResponse	0	n/a	n/a	4	52	Fixation	Neutral	True
498.915	0.34	Control	0.6604000000000001	0.001	Yes	2.634	-0.001	2.0	GoodResponse	0	0.187	498.102	4	52	Target	Neutral	True
499.102	0.3	Control	0.6604000000000001	0.001	Yes	2.634	-0.001	2.0	GoodResponse	0	0.187	n/a	4	52	ButtonPress	Neutral	True
499.264	0.36	Control	0.6604000000000001	n/a	Yes	2.634	n/a	n/a	GoodResponse	0	n/a	n/a	4	52	Blank	Neutral	True
499.614	1.45	Control	0.6604000000000001	n/a	Yes	2.634	n/a	5.0	GoodResponse	0	0.017	498.631	4	52	Feedback	Neutral	True
501.064	2.634	Control	0.6604000000000001	n/a	Yes	2.634	n/a	n/a	GoodResponse	0	0.0	n/a	4	52	ISIslide	Neutral	True
503.73	0.25	Win2	0.6667000000000001	0.0	Yes	2.92	0.03	n/a	GoodResponse	1	n/a	n/a	5	53	Cue	Win	True
503.979	4.05	Win2	0.6667000000000001	0.001	Yes	2.92	-0.001	n/a	GoodResponse	1	n/a	n/a	5	53	Fixation	Win	True
508.028	0.34	Win2	0.6667000000000001	0.002	Yes	2.92	-0.002	2.0	GoodResponse	1	0.186	507.214	5	53	Target	Win	True
508.214	0.3	Win2	0.6667000000000001	0.002	Yes	2.92	-0.002	2.0	GoodResponse	1	0.186	n/a	5	53	ButtonPress	Win	True
508.378	0.36	Win2	0.6667000000000001	n/a	Yes	2.92	n/a	n/a	GoodResponse	1	n/a	n/a	5	53	Blank	Win	True
508.728	1.45	Win2	0.6667000000000001	n/a	Yes	2.92	n/a	5.0	GoodResponse	1	0.025	507.753	5	53	Feedback	Win	True
510.177	2.92	Win2	0.6667000000000001	n/a	Yes	2.92	n/a	n/a	GoodResponse	1	0.0	n/a	5	53	ISIslide	Win	True
513.126	0.25	Win2	0.6727	0.0	Yes	2.724	0.026	n/a	GoodResponse	1	n/a	n/a	6	54	Cue	Win	True
513.376	3.95	Win2	0.6727	0.0	Yes	2.724	0.0	n/a	GoodResponse	1	n/a	n/a	6	54	Fixation	Win	True
517.325	0.33	Win2	0.6727	0.001	Yes	2.724	-0.001	2.0	GoodResponse	1	0.162	516.487	6	54	Target	Win	True
517.487	0.3	Win2	0.6727	0.001	Yes	2.724	-0.001	2.0	GoodResponse	1	0.162	n/a	6	54	ButtonPress	Win	True
517.658	0.37	Win2	0.6727	n/a	Yes	2.724	n/a	n/a	GoodResponse	1	n/a	n/a	6	54	Blank	Win	True
518.025	1.45	Win2	0.6727	n/a	Yes	2.724	n/a	5.0	GoodResponse	1	0.045	517.07	6	54	Feedback	Win	True
519.474	2.724	Win2	0.6727	n/a	Yes	2.724	n/a	n/a	GoodResponse	1	0.0	n/a	6	54	ISIslide	Win	True
522.223	0.25	Control	0.6607	0.0	No	3.027	0.023	n/a	NoResponse	0	n/a	n/a	6	55	Cue	Neutral	True
522.473	3.95	Control	0.6607	0.0	No	3.027	0.0	n/a	NoResponse	0	n/a	n/a	6	55	Fixation	Neutral	True
526.422	0.32	Control	0.6607	0.001	No	3.027	-0.001	2.0	NoResponse	0	0.439	525.861	6	55	Target	Neutral	True
526.755	0.38	Control	0.6607	n/a	No	3.027	n/a	n/a	NoResponse	0	n/a	n/a	6	55	Blank	Neutral	True
526.861	0.3	Control	0.6607	0.001	No	3.027	-0.001	2.0	NoResponse	0	0.439	n/a	6	55	ButtonPress	Neutral	True
527.121	1.45	Control	0.6607	n/a	No	3.027	n/a	5.0	NoResponse	0	0.022	526.143	6	55	Feedback	Neutral	True
528.571	3.027	Control	0.6607	n/a	No	3.027	n/a	n/a	NoResponse	0	0.0	n/a	6	55	ISIslide	Neutral	True
531.62	0.25	Control	0.6667000000000001	0.0	Yes	2.83	0.02	n/a	GoodResponse	0	n/a	n/a	6	56	Cue	Neutral	True
531.87	3.95	Control	0.6667000000000001	0.0	Yes	2.83	0.0	n/a	GoodResponse	0	n/a	n/a	6	56	Fixation	Neutral	True
535.818	0.32	Control	0.6667000000000001	0.002	Yes	2.83	-0.002	2.0	GoodResponse	0	0.204	535.022	6	56	Target	Neutral	True
536.022	0.3	Control	0.6667000000000001	0.002	Yes	2.83	-0.002	2.0	GoodResponse	0	0.204	n/a	6	56	ButtonPress	Neutral	True
536.152	0.38	Control	0.6667000000000001	n/a	Yes	2.83	n/a	n/a	GoodResponse	0	n/a	n/a	6	56	Blank	Neutral	True
536.518	1.45	Control	0.6667000000000001	n/a	Yes	2.83	n/a	5.0	GoodResponse	0	0.039	535.557	6	56	Feedback	Neutral	True
537.968	2.83	Control	0.6667000000000001	n/a	Yes	2.83	n/a	n/a	GoodResponse	0	0.0	n/a	6	56	ISIslide	Neutral	True
540.817	0.25	Control	0.6724	0.0	Yes	3.483	0.017	n/a	GoodResponse	0	n/a	n/a	6	57	Cue	Neutral	True
541.067	4.0	Control	0.6724	0.0	Yes	3.483	0.0	n/a	GoodResponse	0	n/a	n/a	6	57	Fixation	Neutral	True
545.065	0.31	Control	0.6724	0.002	Yes	3.483	-0.002	2.0	GoodResponse	0	0.182	544.247	6	57	Target	Neutral	True
545.247	0.3	Control	0.6724	0.002	Yes	3.483	-0.002	2.0	GoodResponse	0	0.182	n/a	6	57	ButtonPress	Neutral	True
545.382	0.39	Control	0.6724	n/a	Yes	3.483	n/a	n/a	GoodResponse	0	n/a	n/a	6	57	Blank	Neutral	True
545.765	1.45	Control	0.6724	n/a	Yes	3.483	n/a	5.0	GoodResponse	0	0.011	544.776	6	57	Feedback	Neutral	True
547.214	3.483	Control	0.6724	n/a	Yes	3.483	n/a	n/a	GoodResponse	0	0.0	n/a	6	57	ISIslide	Neutral	True
550.73	0.25	Win2	0.6779999999999999	0.0	Yes	2.72	0.03	n/a	GoodResponse	1	n/a	n/a	7	58	Cue	Win	True
550.98	4.05	Win2	0.6779999999999999	0.0	Yes	2.72	0.0	n/a	GoodResponse	1	n/a	n/a	7	58	Fixation	Win	True
555.028	0.3	Win2	0.6779999999999999	0.002	Yes	2.72	-0.002	2.0	GoodResponse	1	0.2	554.228	7	58	Target	Win	True
555.228	0.3	Win2	0.6779999999999999	0.002	Yes	2.72	-0.002	2.0	GoodResponse	1	0.2	n/a	7	58	ButtonPress	Win	True
555.328	0.4	Win2	0.6779999999999999	n/a	Yes	2.72	n/a	n/a	GoodResponse	1	n/a	n/a	7	58	Blank	Win	True
555.728	1.45	Win2	0.6779999999999999	n/a	Yes	2.72	n/a	5.0	GoodResponse	1	0.049	554.777	7	58	Feedback	Win	True
557.178	2.72	Win2	0.6779999999999999	n/a	Yes	2.72	n/a	n/a	GoodResponse	1	0.0	n/a	7	58	ISIslide	Win	True
559.927	0.25	Lose2	0.6833	0.0	Yes	2.673	0.027	n/a	GoodResponse	0	n/a	n/a	7	59	Cue	AvoidedLoss	True
560.177	4.0	Lose2	0.6833	0.0	Yes	2.673	0.0	n/a	GoodResponse	0	n/a	n/a	7	59	Fixation	AvoidedLoss	True
564.175	0.29	Lose2	0.6833	0.002	Yes	2.673	-0.002	2.0	GoodResponse	0	0.173	563.348	7	59	Target	AvoidedLoss	True
564.348	0.3	Lose2	0.6833	0.002	Yes	2.673	-0.002	2.0	GoodResponse	0	0.173	n/a	7	59	ButtonPress	AvoidedLoss	True
564.475	0.41	Lose2	0.6833	n/a	Yes	2.673	n/a	n/a	GoodResponse	0	n/a	n/a	7	59	Blank	AvoidedLoss	True
564.875	1.45	Lose2	0.6833	n/a	Yes	2.673	n/a	5.0	GoodResponse	0	0.024	563.899	7	59	Feedback	AvoidedLoss	True
566.324	2.673	Lose2	0.6833	n/a	Yes	2.673	n/a	n/a	GoodResponse	0	0.0	n/a	7	59	ISIslide	AvoidedLoss	True
569.023	0.25	Control	0.6884999999999999	0.001	Yes	2.677	0.023	n/a	GoodResponse	0	n/a	n/a	7	60	Cue	Neutral	True
569.273	4.0	Control	0.6884999999999999	0.0	Yes	2.677	0.0	n/a	GoodResponse	0	n/a	n/a	7	60	Fixation	Neutral	True
573.272	0.28	Control	0.6884999999999999	0.001	Yes	2.677	-0.001	2.0	GoodResponse	0	0.204	572.476	7	60	Target	Neutral	True
573.476	0.3	Control	0.6884999999999999	0.001	Yes	2.677	-0.001	2.0	GoodResponse	0	0.204	n/a	7	60	ButtonPress	Neutral	True
573.555	0.42	Control	0.6884999999999999	n/a	Yes	2.677	n/a	n/a	GoodResponse	0	n/a	n/a	7	60	Blank	Neutral	True
573.972	1.45	Control	0.6884999999999999	n/a	Yes	2.677	n/a	5.0	GoodResponse	0	0.049	573.021	7	60	Feedback	Neutral	True
575.421	2.677	Control	0.6884999999999999	n/a	Yes	2.677	n/a	n/a	GoodResponse	0	0.0	n/a	7	60	ISIslide	Neutral	True
578.12	0.25	Lose2	0.6934999999999999	0.0	Yes	2.98	0.02	n/a	GoodResponse	0	n/a	n/a	7	61	Cue	AvoidedLoss	True
578.37	4.0	Lose2	0.6934999999999999	0.0	Yes	2.98	0.0	n/a	GoodResponse	0	n/a	n/a	7	61	Fixation	AvoidedLoss	True
582.369	0.27	Lose2	0.6934999999999999	0.001	Yes	2.98	-0.001	2.0	GoodResponse	0	0.155	581.524	7	61	Target	AvoidedLoss	True
582.524	0.3	Lose2	0.6934999999999999	0.001	Yes	2.98	-0.001	2.0	GoodResponse	0	0.155	n/a	7	61	ButtonPress	AvoidedLoss	True
582.652	0.43	Lose2	0.6934999999999999	n/a	Yes	2.98	n/a	n/a	GoodResponse	0	n/a	n/a	7	61	Blank	AvoidedLoss	True
583.069	1.45	Lose2	0.6934999999999999	n/a	Yes	2.98	n/a	5.0	GoodResponse	0	0.024	582.093	7	61	Feedback	AvoidedLoss	True
584.518	2.98	Lose2	0.6934999999999999	n/a	Yes	2.98	n/a	n/a	GoodResponse	0	0.0	n/a	7	61	ISIslide	AvoidedLoss	True
587.517	0.25	Lose2	0.6825	0.0	No	2.883	0.017	n/a	NoResponse	-1	n/a	n/a	6	62	Cue	Loss	False
587.767	3.9	Lose2	0.6825	0.0	No	2.883	0.0	2.0	NoResponse	-1	3.801	590.568	6	62	Fixation	Loss	False
591.568	0.3	Lose2	0.6825	0.0	No	2.883	0.0	2.0	NoResponse	-1	3.801	n/a	6	62	ButtonPress	Loss	False
591.666	0.26	Lose2	0.6825	0.001	No	2.883	-0.001	2.0	NoResponse	-1	0.296	590.962	6	62	Target	Loss	False
591.932	0.44	Lose2	0.6825	n/a	No	2.883	n/a	n/a	NoResponse	-1	n/a	n/a	6	62	Blank	Loss	False
591.962	0.3	Lose2	0.6825	0.001	No	2.883	-0.001	2.0	NoResponse	-1	0.296	n/a	6	62	ButtonPress	Loss	False
592.365	1.45	Lose2	0.6825	n/a	No	2.883	n/a	5.0	NoResponse	-1	0.045	591.41	6	62	Feedback	Loss	False
593.815	2.883	Lose2	0.6825	n/a	No	2.883	n/a	n/a	NoResponse	-1	0.0	n/a	6	62	ISIslide	Loss	False
596.73	0.25	Lose2	0.6875	0.001	Yes	2.62	0.03	n/a	GoodResponse	0	n/a	n/a	6	63	Cue	AvoidedLoss	True
596.98	4.05	Lose2	0.6875	0.0	Yes	2.62	0.0	n/a	GoodResponse	0	n/a	n/a	6	63	Fixation	AvoidedLoss	True
601.029	0.25	Lose2	0.6875	0.001	Yes	2.62	-0.001	2.0	GoodResponse	0	0.177	600.206	6	63	Target	AvoidedLoss	True
601.206	0.3	Lose2	0.6875	0.001	Yes	2.62	-0.001	2.0	GoodResponse	0	0.177	n/a	6	63	ButtonPress	AvoidedLoss	True
601.279	0.45	Lose2	0.6875	n/a	Yes	2.62	n/a	n/a	GoodResponse	0	n/a	n/a	6	63	Blank	AvoidedLoss	True
601.729	1.45	Lose2	0.6875	n/a	Yes	2.62	n/a	5.0	GoodResponse	0	0.047	600.776	6	63	Feedback	AvoidedLoss	True
603.178	2.62	Lose2	0.6875	n/a	Yes	2.62	n/a	n/a	GoodResponse	0	0.0	n/a	6	63	ISIslide	AvoidedLoss	True
605.827	0.25	Win2	0.6923	0.0	Yes	3.123	0.027	n/a	GoodResponse	1	n/a	n/a	7	64	Cue	Win	True
606.077	4.15	Win2	0.6923	0.0	Yes	3.123	0.0	n/a	GoodResponse	1	n/a	n/a	7	64	Fixation	Win	True
610.226	0.24	Win2	0.6923	0.001	Yes	3.123	-0.001	2.0	GoodResponse	1	0.182	609.408	7	64	Target	Win	True
610.408	0.3	Win2	0.6923	0.001	Yes	3.123	-0.001	2.0	GoodResponse	1	0.182	n/a	7	64	ButtonPress	Win	True
610.476	0.46	Win2	0.6923	n/a	Yes	3.123	n/a	n/a	GoodResponse	1	n/a	n/a	7	64	Blank	Win	True
610.925	1.45	Win2	0.6923	n/a	Yes	3.123	n/a	5.0	GoodResponse	1	0.022	609.947	7	64	Feedback	Win	True
612.375	3.123	Win2	0.6923	n/a	Yes	3.123	n/a	n/a	GoodResponse	1	0.0	n/a	7	64	ISIslide	Win	True
615.524	0.25	Control	0.6970000000000001	0.0	Yes	2.776	0.024	n/a	GoodResponse	0	n/a	n/a	7	65	Cue	Neutral	True
615.774	4.0	Control	0.6970000000000001	0.0	Yes	2.776	0.0	n/a	GoodResponse	0	n/a	n/a	7	65	Fixation	Neutral	True
619.772	0.23	Control	0.6970000000000001	0.002	Yes	2.776	-0.002	2.0	GoodResponse	0	0.154	618.926	7	65	Target	Neutral	True
619.926	0.3	Control	0.6970000000000001	0.002	Yes	2.776	-0.002	2.0	GoodResponse	0	0.154	n/a	7	65	ButtonPress	Neutral	True
620.006	0.47	Control	0.6970000000000001	n/a	Yes	2.776	n/a	n/a	GoodResponse	0	n/a	n/a	7	65	Blank	Neutral	True
620.472	1.45	Control	0.6970000000000001	n/a	Yes	2.776	n/a	5.0	GoodResponse	0	0.036	619.508	7	65	Feedback	Neutral	True
621.922	2.776	Control	0.6970000000000001	n/a	Yes	2.776	n/a	n/a	GoodResponse	0	0.0	n/a	7	65	ISIslide	Neutral	True
624.721	0.25	Win2	0.7015	0.0	Yes	2.779	0.021	n/a	GoodResponse	1	n/a	n/a	8	66	Cue	Win	True
624.971	3.9	Win2	0.7015	0.0	Yes	2.779	0.0	n/a	GoodResponse	1	n/a	n/a	8	66	Fixation	Win	True
628.869	0.22	Win2	0.7015	0.002	Yes	2.779	-0.002	2.0	GoodResponse	1	0.179	628.048	8	66	Target	Win	True
629.048	0.3	Win2	0.7015	0.002	Yes	2.779	-0.002	2.0	GoodResponse	1	0.179	n/a	8	66	ButtonPress	Win	True
629.102	0.48	Win2	0.7015	n/a	Yes	2.779	n/a	n/a	GoodResponse	1	n/a	n/a	8	66	Blank	Win	True
629.569	1.45	Win2	0.7015	n/a	Yes	2.779	n/a	5.0	GoodResponse	1	0.012	628.581	8	66	Feedback	Win	True
631.018	2.779	Win2	0.7015	n/a	Yes	2.779	n/a	n/a	GoodResponse	1	0.0	n/a	8	66	ISIslide	Win	True
633.817	0.25	Control	0.7059000000000001	0.001	Yes	2.733	0.017	n/a	GoodResponse	0	n/a	n/a	8	67	Cue	Neutral	True
634.067	3.95	Control	0.7059000000000001	0.0	Yes	2.733	0.0	n/a	GoodResponse	0	n/a	n/a	8	67	Fixation	Neutral	True
638.016	0.21	Control	0.7059000000000001	0.001	Yes	2.733	-0.001	2.0	GoodResponse	0	0.19	637.206	8	67	Target	Neutral	True
638.206	0.3	Control	0.7059000000000001	0.001	Yes	2.733	-0.001	2.0	GoodResponse	0	0.19	n/a	8	67	ButtonPress	Neutral	True
638.233	0.49	Control	0.7059000000000001	n/a	Yes	2.733	n/a	n/a	GoodResponse	0	n/a	n/a	8	67	Blank	Neutral	True
638.716	1.45	Control	0.7059000000000001	n/a	Yes	2.733	n/a	5.0	GoodResponse	0	0.035	637.751	8	67	Feedback	Neutral	True
640.165	2.733	Control	0.7059000000000001	n/a	Yes	2.733	n/a	n/a	GoodResponse	0	0.0	n/a	8	67	ISIslide	Neutral	True
642.914	0.25	Win2	0.7101000000000001	0.0	Yes	3.086	0.014	n/a	GoodResponse	1	n/a	n/a	9	68	Cue	Win	True
643.164	4.0	Win2	0.7101000000000001	0.0	Yes	3.086	0.0	n/a	GoodResponse	1	n/a	n/a	9	68	Fixation	Win	True
647.163	0.2	Win2	0.7101000000000001	0.001	Yes	3.086	-0.001	2.0	GoodResponse	1	0.155	646.318	9	68	Target	Win	True
647.318	0.3	Win2	0.7101000000000001	0.001	Yes	3.086	-0.001	2.0	GoodResponse	1	0.155	n/a	9	68	ButtonPress	Win	True
647.363	0.5	Win2	0.7101000000000001	n/a	Yes	3.086	n/a	n/a	GoodResponse	1	n/a	n/a	9	68	Blank	Win	True
647.863	1.45	Win2	0.7101000000000001	n/a	Yes	3.086	n/a	5.0	GoodResponse	1	0.01	646.873	9	68	Feedback	Win	True
649.312	3.086	Win2	0.7101000000000001	n/a	Yes	3.086	n/a	n/a	GoodResponse	1	0.0	n/a	9	68	ISIslide	Win	True
652.428	0.25	Win2	0.7143	0.0	Yes	3.222	0.028	n/a	GoodResponse	1	n/a	n/a	10	69	Cue	Win	True
652.678	3.95	Win2	0.7143	0.0	Yes	3.222	0.0	n/a	GoodResponse	1	n/a	n/a	10	69	Fixation	Win	True
656.626	0.19	Win2	0.7143	0.002	Yes	3.222	-0.002	2.0	GoodResponse	1	0.184	655.81	10	69	Target	Win	True
656.81	0.3	Win2	0.7143	0.002	Yes	3.222	-0.002	2.0	GoodResponse	1	0.184	n/a	10	69	ButtonPress	Win	True
656.826	0.51	Win2	0.7143	n/a	Yes	3.222	n/a	n/a	GoodResponse	1	n/a	n/a	10	69	Blank	Win	True
657.326	1.45	Win2	0.7143	n/a	Yes	3.222	n/a	5.0	GoodResponse	1	0.011	656.337	10	69	Feedback	Win	True
658.775	3.222	Win2	0.7143	n/a	Yes	3.222	n/a	n/a	GoodResponse	1	0.0	n/a	10	69	ISIslide	Win	True
662.024	0.25	Lose2	0.7042	0.0	No	3.026	0.024	n/a	PrematurePress	-1	n/a	n/a	9	70	Cue	Loss	True
662.274	4.05	Lose2	0.7042	0.0	No	3.026	0.0	n/a	PrematurePress	-1	n/a	n/a	9	70	Fixation	Loss	True
666.323	0.18	Lose2	0.7042	0.001	No	3.026	-0.001	2.0	PrematurePress	-1	0.051	665.374	9	70	Target	Loss	True
666.374	0.3	Lose2	0.7042	0.001	No	3.026	-0.001	2.0	PrematurePress	-1	0.051	n/a	9	70	ButtonPress	Loss	True
666.506	0.52	Lose2	0.7042	n/a	No	3.026	n/a	n/a	PrematurePress	-1	n/a	n/a	9	70	Blank	Loss	True
667.023	1.45	Lose2	0.7042	n/a	No	3.026	n/a	5.0	PrematurePress	-1	0.021	666.044	9	70	Feedback	Loss	True
668.472	3.026	Lose2	0.7042	n/a	No	3.026	n/a	n/a	PrematurePress	-1	0.0	n/a	9	70	ISIslide	Loss	True
671.521	0.25	Win2	0.6944	0.0	No	2.729	0.021	n/a	LatePress	0	n/a	n/a	9	71	Cue	MissedWin	True
671.771	4.05	Win2	0.6944	0.0	No	2.729	0.0	n/a	LatePress	0	n/a	n/a	9	71	Fixation	MissedWin	True
675.819	0.17	Win2	0.6944	0.002	No	2.729	-0.002	2.0	LatePress	0	0.183	675.002	9	71	Target	MissedWin	True
676.002	0.3	Win2	0.6944	0.002	No	2.729	-0.002	2.0	LatePress	0	0.183	n/a	9	71	ButtonPress	MissedWin	True
676.003	0.53	Win2	0.6944	n/a	No	2.729	n/a	n/a	LatePress	0	n/a	n/a	9	71	Blank	MissedWin	True
676.519	1.45	Win2	0.6944	n/a	No	2.729	n/a	5.0	LatePress	0	0.038	675.557	9	71	Feedback	MissedWin	True
677.969	2.729	Win2	0.6944	n/a	No	2.729	n/a	n/a	LatePress	0	0.0	n/a	9	71	ISIslide	MissedWin	True
680.718	0.25	Win2	0.6849	0.0	No	2.782	0.018	n/a	NoResponse	0	n/a	n/a	9	72	Cue	MissedWin	True
680.968	4.1	Win2	0.6849	0.0	No	2.782	0.0	n/a	NoResponse	0	n/a	n/a	9	72	Fixation	MissedWin	True
685.066	0.16	Win2	0.6849	0.002	No	2.782	-0.002	2.0	NoResponse	0	0.194	684.26	9	72	Target	MissedWin	True
685.233	0.54	Win2	0.6849	n/a	No	2.782	n/a	n/a	NoResponse	0	n/a	n/a	9	72	Blank	MissedWin	True
685.26	0.3	Win2	0.6849	0.002	No	2.782	-0.002	2.0	NoResponse	0	0.194	n/a	9	72	ButtonPress	MissedWin	True
685.766	1.45	Win2	0.6849	n/a	No	2.782	n/a	5.0	NoResponse	0	0.009	684.775	9	72	Feedback	MissedWin	True
687.216	2.782	Win2	0.6849	n/a	No	2.782	n/a	n/a	NoResponse	0	0.0	n/a	9	72	ISIslide	MissedWin	True
690.031	0.25	Win2	0.6757	0.0	No	2.669	0.031	n/a	NoResponse	0	n/a	n/a	9	73	Cue	MissedWin	True
690.281	4.0	Win2	0.6757	0.0	No	2.669	0.0	n/a	NoResponse	0	n/a	n/a	9	73	Fixation	MissedWin	True
694.28	0.15	Win2	0.6757	0.001	No	2.669	-0.001	2.0	NoResponse	0	0.195	693.475	9	73	Target	MissedWin	True
694.43	0.55	Win2	0.6757	n/a	No	2.669	n/a	n/a	NoResponse	0	n/a	n/a	9	73	Blank	MissedWin	True
694.475	0.3	Win2	0.6757	0.001	No	2.669	-0.001	2.0	NoResponse	0	0.195	n/a	9	73	ButtonPress	MissedWin	True
694.979	1.45	Win2	0.6757	n/a	No	2.669	n/a	5.0	NoResponse	0	0.016	693.995	9	73	Feedback	MissedWin	True
696.429	2.669	Win2	0.6757	n/a	No	2.669	n/a	n/a	NoResponse	0	0.0	n/a	9	73	ISIslide	MissedWin	True
699.128	0.25	Lose2	0.6667000000000001	0.0	No	2.622	0.028	n/a	NoResponse	-1	n/a	n/a	8	74	Cue	Loss	True
699.378	4.05	Lose2	0.6667000000000001	0.0	No	2.622	0.0	n/a	NoResponse	-1	n/a	n/a	8	74	Fixation	Loss	True
703.427	0.15	Lose2	0.6667000000000001	0.001	No	2.622	-0.001	2.0	NoResponse	-1	0.181	702.608	8	74	Target	Loss	True
703.576	0.55	Lose2	0.6667000000000001	n/a	No	2.622	n/a	n/a	NoResponse	-1	n/a	n/a	8	74	Blank	Loss	True
703.608	0.3	Lose2	0.6667000000000001	0.001	No	2.622	-0.001	2.0	NoResponse	-1	0.181	n/a	8	74	ButtonPress	Loss	True
704.126	1.45	Lose2	0.6667000000000001	n/a	No	2.622	n/a	5.0	NoResponse	-1	0.04	703.166	8	74	Feedback	Loss	True
705.576	2.622	Lose2	0.6667000000000001	n/a	No	2.622	n/a	n/a	NoResponse	-1	0.0	n/a	8	74	ISIslide	Loss	True
708.225	0.25	Lose2	0.6579	0.0	No	2.925	0.025	n/a	NoResponse	-1	n/a	n/a	7	75	Cue	Loss	True
708.475	3.95	Lose2	0.6579	0.0	No	2.925	0.0	n/a	NoResponse	-1	n/a	n/a	7	75	Fixation	Loss	True
712.423	0.15	Lose2	0.6579	0.002	No	2.925	-0.002	2.0	NoResponse	-1	0.16	711.583	7	75	Target	Loss	True
712.573	0.55	Lose2	0.6579	n/a	No	2.925	n/a	n/a	NoResponse	-1	n/a	n/a	7	75	Blank	Loss	True
712.583	0.3	Lose2	0.6579	0.002	No	2.925	-0.002	2.0	NoResponse	-1	0.16	n/a	7	75	ButtonPress	Loss	True
713.123	1.45	Lose2	0.6579	n/a	No	2.925	n/a	5.0	NoResponse	-1	0.018	712.141	7	75	Feedback	Loss	True
714.573	2.925	Lose2	0.6579	n/a	No	2.925	n/a	n/a	NoResponse	-1	0.0	n/a	7	75	ISIslide	Loss	True
717.522	0.25	Control	0.6494	0.0	No	3.228	0.022	n/a	NoResponse	0	n/a	n/a	7	76	Cue	Neutral	True
717.772	4.05	Control	0.6494	0.0	No	3.228	0.0	n/a	NoResponse	0	n/a	n/a	7	76	Fixation	Neutral	True
721.82	0.15	Control	0.6494	0.002	No	3.228	-0.002	2.0	NoResponse	0	0.188	721.008	7	76	Target	Neutral	True
721.97	0.55	Control	0.6494	n/a	No	3.228	n/a	n/a	NoResponse	0	n/a	n/a	7	76	Blank	Neutral	True
722.008	0.3	Control	0.6494	0.002	No	3.228	-0.002	2.0	NoResponse	0	0.188	n/a	7	76	ButtonPress	Neutral	True
722.52	1.45	Control	0.6494	n/a	No	3.228	n/a	5.0	NoResponse	0	0.036	721.556	7	76	Feedback	Neutral	True
723.969	3.228	Control	0.6494	n/a	No	3.228	n/a	n/a	NoResponse	0	0.0	n/a	7	76	ISIslide	Neutral	True
727.218	0.25	Lose2	0.6409999999999999	0.0	No	2.582	0.018	n/a	NoResponse	-1	n/a	n/a	6	77	Cue	Loss	True
727.468	3.95	Lose2	0.6409999999999999	0.0	No	2.582	0.0	n/a	NoResponse	-1	n/a	n/a	6	77	Fixation	Loss	True
731.417	0.16	Lose2	0.6409999999999999	0.001	No	2.582	-0.001	2.0	NoResponse	-1	0.182	730.599	6	77	Target	Loss	True
731.583	0.54	Lose2	0.6409999999999999	n/a	No	2.582	n/a	n/a	NoResponse	-1	n/a	n/a	6	77	Blank	Loss	True
731.599	0.3	Lose2	0.6409999999999999	0.001	No	2.582	-0.001	2.0	NoResponse	-1	0.182	n/a	6	77	ButtonPress	Loss	True
732.117	1.45	Lose2	0.6409999999999999	n/a	No	2.582	n/a	5.0	NoResponse	-1	0.049	731.166	6	77	Feedback	Loss	True
733.566	2.582	Lose2	0.6409999999999999	n/a	No	2.582	n/a	n/a	NoResponse	-1	0.0	n/a	6	77	ISIslide	Loss	True
