onset	duration	cue_type	current_mean_accuracy	duration_error	is_hit	isi_adjusted	onset_delay	response	response_type	reward	rt	rt_time	total_reward	trial_number	trial_phase	trial_type	one_press
11.107	0.25	Control	1.0	0.0	Yes	2.943	0.007	n/a	GoodResponse	0	n/a	n/a	0	0	Cue	Neutral	True
11.358	3.85	Control	1.0	0.0	Yes	2.943	0.001	n/a	GoodResponse	0	n/a	n/a	0	0	Fixation	Neutral	True
15.219	0.4	Control	1.0	0.0	Yes	2.943	0.012	1.0	GoodResponse	0	0.238	14.457	0	0	Target	Neutral	True
15.457	0.3	Control	1.0	0.0	Yes	2.943	0.012	1.0	GoodResponse	0	0.238	n/a	0	0	ButtonPress	Neutral	True
15.604	0.3	Control	1.0	n/a	Yes	2.943	n/a	n/a	GoodResponse	0	n/a	n/a	0	0	Blank	Neutral	True
15.905	1.45	Control	1.0	n/a	Yes	2.943	n/a	5.0	GoodResponse	0	0.021	14.926	0	0	Feedback	Neutral	True
17.359	2.943	Control	1.0	n/a	Yes	2.943	n/a	n/a	GoodResponse	0	0.0	n/a	0	0	ISIslide	Neutral	True
20.318	0.25	Lose2	1.0	0.0	Yes	2.782	0.018	n/a	GoodResponse	0	n/a	n/a	0	1	Cue	AvoidedLoss	True
20.568	4.0	Lose2	1.0	0.001	Yes	2.782	0.0	n/a	GoodResponse	0	n/a	n/a	0	1	Fixation	AvoidedLoss	True
24.564	0.39	Lose2	1.0	0.004	Yes	2.782	-0.004	1.0	GoodResponse	0	0.197	23.761	0	1	Target	AvoidedLoss	True
24.761	0.3	Lose2	1.0	0.004	Yes	2.782	-0.004	1.0	GoodResponse	0	0.197	n/a	0	1	ButtonPress	AvoidedLoss	True
24.965	0.31	Lose2	1.0	n/a	Yes	2.782	n/a	n/a	GoodResponse	0	n/a	n/a	0	1	Blank	AvoidedLoss	True
25.266	1.45	Lose2	1.0	n/a	Yes	2.782	n/a	5.0	GoodResponse	0	0.026	24.292	0	1	Feedback	AvoidedLoss	True
26.72	2.782	Lose2	1.0	n/a	Yes	2.782	n/a	n/a	GoodResponse	0	0.0	n/a	0	1	ISIslide	AvoidedLoss	True
29.529	0.25	Control	0.6667000000000001	0.0	No	2.571	0.029	n/a	NoResponse	0	n/a	n/a	0	2	Cue	Neutral	True
29.779	4.1	Control	0.6667000000000001	0.0	No	2.571	0.0	n/a	NoResponse	0	n/a	n/a	0	2	Fixation	Neutral	True
33.875	0.38	Control	0.6667000000000001	0.004	No	2.571	-0.004	1.0	NoResponse	0	0.472	33.347	0	2	Target	Neutral	True
34.259	0.32	Control	0.6667000000000001	n/a	No	2.571	n/a	n/a	NoResponse	0	n/a	n/a	0	2	Blank	Neutral	True
34.347	0.3	Control	0.6667000000000001	0.004	No	2.571	-0.004	1.0	NoResponse	0	0.472	n/a	0	2	ButtonPress	Neutral	True
34.577	1.45	Control	0.6667000000000001	n/a	No	2.571	n/a	5.0	NoResponse	0	0.032	33.609	0	2	Feedback	Neutral	True
36.031	2.571	Control	0.6667000000000001	n/a	No	2.571	n/a	n/a	NoResponse	0	0.0	n/a	0	2	ISIslide	Neutral	True
38.622	0.25	Win2	0.75	0.0	Yes	2.828	0.022	n/a	GoodResponse	1	n/a	n/a	1	3	Cue	Win	True
38.873	3.95	Win2	0.75	0.0	Yes	2.828	0.001	n/a	GoodResponse	1	n/a	n/a	1	3	Fixation	Win	True
42.818	0.37	Win2	0.75	0.004	Yes	2.828	-0.004	1.0	GoodResponse	1	0.23	42.048	1	3	Target	Win	True
43.048	0.3	Win2	0.75	0.004	Yes	2.828	-0.004	1.0	GoodResponse	1	0.23	n/a	1	3	ButtonPress	Win	True
43.203	0.33	Win2	0.75	n/a	Yes	2.828	n/a	n/a	GoodResponse	1	n/a	n/a	1	3	Blank	Win	True
43.52	1.45	Win2	0.75	n/a	Yes	2.828	n/a	5.0	GoodResponse	1	0.016	42.536	1	3	Feedback	Win	True
44.975	2.828	Win2	0.75	n/a	Yes	2.828	n/a	n/a	GoodResponse	1	0.0	n/a	1	3	ISIslide	Win	True
47.817	0.25	Win2	0.8	0.0	Yes	3.283	0.017	n/a	GoodResponse	1	n/a	n/a	2	4	Cue	Win	True
48.067	4.0	Win2	0.8	0.0	Yes	3.283	0.0	n/a	GoodResponse	1	n/a	n/a	2	4	Fixation	Win	True
52.063	0.36	Win2	0.8	0.004	Yes	3.283	-0.004	1.0	GoodResponse	1	0.188	51.251	2	4	Target	Win	True
52.251	0.3	Win2	0.8	0.004	Yes	3.283	-0.004	1.0	GoodResponse	1	0.188	n/a	2	4	ButtonPress	Win	True
52.43	0.34	Win2	0.8	n/a	Yes	3.283	n/a	n/a	GoodResponse	1	n/a	n/a	2	4	Blank	Win	True
52.765	1.45	Win2	0.8	n/a	Yes	3.283	n/a	5.0	GoodResponse	1	0.038	51.803	2	4	Feedback	Win	True
54.219	3.283	Win2	0.8	n/a	Yes	3.283	n/a	n/a	GoodResponse	1	0.0	n/a	2	4	ISIslide	Win	True
57.529	0.25	Win2	0.8332999999999999	0.0	Yes	2.771	0.029	n/a	GoodResponse	1	n/a	n/a	3	5	Cue	Win	True
57.78	4.0	Win2	0.8332999999999999	0.0	Yes	2.771	0.001	n/a	GoodResponse	1	n/a	n/a	3	5	Fixation	Win	True
61.775	0.35	Win2	0.8332999999999999	0.004	Yes	2.771	-0.004	1.0	GoodResponse	1	0.201	60.976	3	5	Target	Win	True
61.976	0.3	Win2	0.8332999999999999	0.004	Yes	2.771	-0.004	1.0	GoodResponse	1	0.201	n/a	3	5	ButtonPress	Win	True
62.126	0.35	Win2	0.8332999999999999	n/a	Yes	2.771	n/a	n/a	GoodResponse	1	n/a	n/a	3	5	Blank	Win	True
62.477	1.45	Win2	0.8332999999999999	n/a	Yes	2.771	n/a	5.0	GoodResponse	1	0.034	61.511	3	5	Feedback	Win	True
63.931	2.771	Win2	0.8332999999999999	n/a	Yes	2.771	n/a	n/a	GoodResponse	1	0.0	n/a	3	5	ISIslide	Win	True
66.723	0.25	Lose2	0.8571	0.0	Yes	2.727	0.023	n/a	GoodResponse	0	n/a	n/a	3	6	Cue	AvoidedLoss	True
66.974	3.95	Lose2	0.8571	0.0	Yes	2.727	0.001	n/a	GoodResponse	0	n/a	n/a	3	6	Fixation	AvoidedLoss	True
70.919	0.34	Lose2	0.8571	0.004	Yes	2.727	-0.004	1.0	GoodResponse	0	0.209	70.128	3	6	Target	AvoidedLoss	True
71.128	0.3	Lose2	0.8571	0.004	Yes	2.727	-0.004	1.0	GoodResponse	0	0.209	n/a	3	6	ButtonPress	AvoidedLoss	True
71.27	0.36	Lose2	0.8571	n/a	Yes	2.727	n/a	n/a	GoodResponse	0	n/a	n/a	3	6	Blank	AvoidedLoss	True
71.621	1.45	Lose2	0.8571	n/a	Yes	2.727	n/a	5.0	GoodResponse	0	0.012	70.633	3	6	Feedback	AvoidedLoss	True
73.075	2.727	Lose2	0.8571	n/a	Yes	2.727	n/a	n/a	GoodResponse	0	0.0	n/a	3	6	ISIslide	AvoidedLoss	True
75.817	0.25	Lose2	0.75	0.0	No	4.033	0.017	n/a	PrematurePress	-1	n/a	n/a	2	7	Cue	Loss	True
76.068	4.05	Lose2	0.75	0.0	No	4.033	0.001	n/a	PrematurePress	-1	n/a	n/a	2	7	Fixation	Loss	True
80.113	0.33	Lose2	0.75	0.004	No	4.033	-0.004	1.0	PrematurePress	-1	0.082	79.195	2	7	Target	Loss	True
80.195	0.3	Lose2	0.75	0.004	No	4.033	-0.004	1.0	PrematurePress	-1	0.082	n/a	2	7	ButtonPress	Loss	True
80.447	0.37	Lose2	0.75	n/a	No	4.033	n/a	n/a	PrematurePress	-1	n/a	n/a	2	7	Blank	Loss	True
80.815	1.45	Lose2	0.75	n/a	No	4.033	n/a	5.0	PrematurePress	-1	0.037	79.852	2	7	Feedback	Loss	True
82.269	4.033	Lose2	0.75	n/a	No	4.033	n/a	n/a	PrematurePress	-1	0.0	n/a	2	7	ISIslide	Loss	True
86.315	0.25	Lose2	0.7778	0.0	Yes	3.035	0.015	n/a	GoodResponse	0	n/a	n/a	2	8	Cue	AvoidedLoss	True
86.566	3.95	Lose2	0.7778	0.0	Yes	3.035	0.001	n/a	GoodResponse	0	n/a	n/a	2	8	Fixation	AvoidedLoss	True
90.511	0.32	Lose2	0.7778	0.004	Yes	3.035	-0.004	1.0	GoodResponse	0	0.21	89.721	2	8	Target	AvoidedLoss	True
90.721	0.3	Lose2	0.7778	0.004	Yes	3.035	-0.004	1.0	GoodResponse	0	0.21	n/a	2	8	ButtonPress	AvoidedLoss	True
90.845	0.38	Lose2	0.7778	n/a	Yes	3.035	n/a	n/a	GoodResponse	0	n/a	n/a	2	8	Blank	AvoidedLoss	True
91.213	1.45	Lose2	0.7778	n/a	Yes	3.035	n/a	5.0	GoodResponse	0	0.029	90.242	2	8	Feedback	AvoidedLoss	True
92.667	3.035	Lose2	0.7778	n/a	Yes	3.035	n/a	n/a	GoodResponse	0	0.0	n/a	2	8	ISIslide	AvoidedLoss	True
95.726	0.25	Lose2	0.8	0.0	Yes	3.124	0.026	n/a	GoodResponse	0	n/a	n/a	2	9	Cue	AvoidedLoss	True
95.977	3.95	Lose2	0.8	0.0	Yes	3.124	0.001	n/a	GoodResponse	0	n/a	n/a	2	9	Fixation	AvoidedLoss	True
99.922	0.31	Lose2	0.8	0.004	Yes	3.124	-0.004	1.0	GoodResponse	0	0.237	99.159	2	9	Target	AvoidedLoss	True
100.159	0.3	Lose2	0.8	0.004	Yes	3.124	-0.004	1.0	GoodResponse	0	0.237	n/a	2	9	ButtonPress	AvoidedLoss	True
100.24	0.39	Lose2	0.8	n/a	Yes	3.124	n/a	n/a	GoodResponse	0	n/a	n/a	2	9	Blank	AvoidedLoss	True
100.624	1.45	Lose2	0.8	n/a	Yes	3.124	n/a	5.0	GoodResponse	0	0.032	99.656	2	9	Feedback	AvoidedLoss	True
102.079	3.124	Lose2	0.8	n/a	Yes	3.124	n/a	n/a	GoodResponse	0	0.0	n/a	2	9	ISIslide	AvoidedLoss	True
105.221	0.25	Control	0.7273000000000001	0.0	No	3.279	0.021	n/a	NoResponse	0	n/a	n/a	2	10	Cue	Neutral	True
105.472	4.0	Control	0.7273000000000001	0.0	No	3.279	0.001	n/a	NoResponse	0	n/a	n/a	2	10	Fixation	Neutral	True
109.467	0.3	Control	0.7273000000000001	0.004	No	3.279	-0.004	1.0	NoResponse	0	0.474	108.941	2	10	Target	Neutral	True
109.768	0.4	Control	0.7273000000000001	n/a	No	3.279	n/a	n/a	NoResponse	0	n/a	n/a	2	10	Blank	Neutral	True
109.941	0.3	Control	0.7273000000000001	0.004	No	3.279	-0.004	1.0	NoResponse	0	0.474	n/a	2	10	ButtonPress	Neutral	True
110.169	1.45	Control	0.7273000000000001	n/a	No	3.279	n/a	5.0	NoResponse	0	0.049	109.218	2	10	Feedback	Neutral	True
111.624	3.279	Control	0.7273000000000001	n/a	No	3.279	n/a	n/a	NoResponse	0	0.0	n/a	2	10	ISIslide	Neutral	True
114.917	0.25	Lose2	0.75	0.0	Yes	2.733	0.017	n/a	GoodResponse	0	n/a	n/a	2	11	Cue	AvoidedLoss	True
115.168	4.05	Lose2	0.75	0.0	Yes	2.733	0.001	n/a	GoodResponse	0	n/a	n/a	2	11	Fixation	AvoidedLoss	True
119.213	0.29	Lose2	0.75	0.004	Yes	2.733	-0.004	1.0	GoodResponse	0	0.208	118.421	2	11	Target	AvoidedLoss	True
119.421	0.3	Lose2	0.75	0.004	Yes	2.733	-0.004	1.0	GoodResponse	0	0.208	n/a	2	11	ButtonPress	AvoidedLoss	True
119.514	0.41	Lose2	0.75	n/a	Yes	2.733	n/a	n/a	GoodResponse	0	n/a	n/a	2	11	Blank	AvoidedLoss	True
119.915	1.45	Lose2	0.75	n/a	Yes	2.733	n/a	5.0	GoodResponse	0	0.009	118.924	2	11	Feedback	AvoidedLoss	True
121.37	2.733	Lose2	0.75	n/a	Yes	2.733	n/a	n/a	GoodResponse	0	0.0	n/a	2	11	ISIslide	AvoidedLoss	True
124.128	0.25	Control	0.6923	0.0	No	2.972	0.028	n/a	NoResponse	0	n/a	n/a	2	12	Cue	Neutral	True
124.379	3.9	Control	0.6923	0.0	No	2.972	0.001	n/a	NoResponse	0	n/a	n/a	2	12	Fixation	Neutral	True
128.273	0.28	Control	0.6923	0.005	No	2.972	-0.005	1.0	NoResponse	0	0.352	127.625	2	12	Target	Neutral	True
128.558	0.42	Control	0.6923	n/a	No	2.972	n/a	n/a	NoResponse	0	n/a	n/a	2	12	Blank	Neutral	True
128.625	0.3	Control	0.6923	0.005	No	2.972	-0.005	1.0	NoResponse	0	0.352	n/a	2	12	ButtonPress	Neutral	True
128.976	1.45	Control	0.6923	n/a	No	2.972	n/a	5.0	NoResponse	0	0.021	127.997	2	12	Feedback	Neutral	True
130.43	2.972	Control	0.6923	n/a	No	2.972	n/a	n/a	NoResponse	0	0.0	n/a	2	12	ISIslide	Neutral	True
133.422	0.25	Control	0.6429	0.0	No	2.778	0.022	n/a	NoResponse	0	n/a	n/a	2	13	Cue	Neutral	False
133.673	4.0	Control	0.6429	0.0	No	2.778	0.001	n/a	NoResponse	0	n/a	n/a	2	13	Fixation	Neutral	False
137.668	0.27	Control	0.6429	0.004	No	2.778	-0.004	n/a	NoResponse	0	n/a	n/a	2	13	Target	Neutral	False
137.952	0.43	Control	0.6429	n/a	No	2.778	n/a	n/a	NoResponse	0	n/a	n/a	2	13	Blank	Neutral	False
138.37	1.45	Control	0.6429	n/a	No	2.778	n/a	5.0	NoResponse	0	0.042	137.412	2	13	Feedback	Neutral	False
139.825	2.778	Control	0.6429	n/a	No	2.778	n/a	n/a	NoResponse	0	0.0	n/a	2	13	ISIslide	Neutral	False
142.616	0.25	Win2	0.6667000000000001	0.0	Yes	2.684	0.016	n/a	GoodResponse	1	n/a	n/a	3	14	Cue	Win	True
142.867	4.1	Win2	0.6667000000000001	0.0	Yes	2.684	0.001	n/a	GoodResponse	1	n/a	n/a	3	14	Fixation	Win	True
146.963	0.28	Win2	0.6667000000000001	0.003	Yes	2.684	-0.003	1.0	GoodResponse	1	0.203	146.166	3	14	Target	Win	True
147.166	0.3	Win2	0.6667000000000001	0.003	Yes	2.684	-0.003	1.0	GoodResponse	1	0.203	n/a	3	14	ButtonPress	Win	True
147.247	0.42	Win2	0.6667000000000001	n/a	Yes	2.684	n/a	n/a	GoodResponse	1	n/a	n/a	3	14	Blank	Win	True
147.665	1.45	Win2	0.6667000000000001	n/a	Yes	2.684	n/a	5.0	GoodResponse	1	0.015	146.68	3	14	Feedback	Win	True
149.119	2.684	Win2	0.6667000000000001	n/a	Yes	2.684	n/a	n/a	GoodResponse	1	0.0	n/a	3	14	ISIslide	Win	True
151.827	0.25	Control	0.6875	0.0	Yes	2.973	0.027	n/a	GoodResponse	0	n/a	n/a	3	15	Cue	Neutral	True
152.078	4.0	Control	0.6875	0.0	Yes	2.973	0.001	n/a	GoodResponse	0	n/a	n/a	3	15	Fixation	Neutral	True
156.073	0.27	Control	0.6875	0.004	Yes	2.973	-0.004	1.0	GoodResponse	0	0.249	155.322	3	15	Target	Neutral	True
156.322	0.3	Control	0.6875	0.004	Yes	2.973	-0.004	1.0	GoodResponse	0	0.249	n/a	3	15	ButtonPress	Neutral	True
156.357	0.43	Control	0.6875	n/a	Yes	2.973	n/a	n/a	GoodResponse	0	n/a	n/a	3	15	Blank	Neutral	True
156.775	1.45	Control	0.6875	n/a	Yes	2.973	n/a	5.0	GoodResponse	0	0.027	155.802	3	15	Feedback	Neutral	True
158.23	2.973	Control	0.6875	n/a	Yes	2.973	n/a	n/a	GoodResponse	0	0.0	n/a	3	15	ISIslide	Neutral	True
161.222	0.25	Win2	0.7059000000000001	0.0	Yes	2.878	0.022	n/a	GoodResponse	1	n/a	n/a	4	16	Cue	Win	True
161.473	4.0	Win2	0.7059000000000001	0.0	Yes	2.878	0.001	n/a	GoodResponse	1	n/a	n/a	4	16	Fixation	Win	True
165.468	0.26	Win2	0.7059000000000001	0.004	Yes	2.878	-0.004	1.0	GoodResponse	1	0.224	164.692	4	16	Target	Win	True
165.692	0.3	Win2	0.7059000000000001	0.004	Yes	2.878	-0.004	1.0	GoodResponse	1	0.224	n/a	4	16	ButtonPress	Win	True
165.735	0.44	Win2	0.7059000000000001	n/a	Yes	2.878	n/a	n/a	GoodResponse	1	n/a	n/a	4	16	Blank	Win	True
166.17	1.45	Win2	0.7059000000000001	n/a	Yes	2.878	n/a	5.0	GoodResponse	1	0.046	165.216	4	16	Feedback	Win	True
167.624	2.878	Win2	0.7059000000000001	n/a	Yes	2.878	n/a	n/a	GoodResponse	1	0.0	n/a	4	16	ISIslide	Win	True
170.516	0.25	Lose2	0.6667000000000001	0.0	No	2.734	0.016	n/a	NoResponse	-1	n/a	n/a	3	17	Cue	Loss	True
170.767	3.95	Lose2	0.6667000000000001	0.0	No	2.734	0.001	n/a	NoResponse	-1	n/a	n/a	3	17	Fixation	Loss	True
174.712	0.25	Lose2	0.6667000000000001	0.004	No	2.734	-0.004	1.0	NoResponse	-1	0.286	173.998	3	17	Target	Loss	True
174.963	0.45	Lose2	0.6667000000000001	n/a	No	2.734	n/a	n/a	NoResponse	-1	n/a	n/a	3	17	Blank	Loss	True
174.998	0.3	Lose2	0.6667000000000001	0.004	No	2.734	-0.004	1.0	NoResponse	-1	0.286	n/a	3	17	ButtonPress	Loss	True
175.414	1.45	Lose2	0.6667000000000001	n/a	No	2.734	n/a	5.0	NoResponse	-1	0.022	174.436	3	17	Feedback	Loss	True
176.869	2.734	Lose2	0.6667000000000001	n/a	No	2.734	n/a	n/a	NoResponse	-1	0.0	n/a	3	17	ISIslide	Loss	True
179.627	0.25	Lose2	0.6315999999999999	0.0	No	2.723	0.027	n/a	NoResponse	-1	n/a	n/a	2	18	Cue	Loss	True
179.878	4.05	Lose2	0.6315999999999999	0.0	No	2.723	0.001	n/a	NoResponse	-1	n/a	n/a	2	18	Fixation	Loss	True
183.923	0.24	Lose2	0.6315999999999999	0.004	No	2.723	-0.004	1.0	NoResponse	-1	0.26	183.183	2	18	Target	Loss	True
184.174	0.46	Lose2	0.6315999999999999	n/a	No	2.723	n/a	n/a	NoResponse	-1	n/a	n/a	2	18	Blank	Loss	True
184.183	0.3	Lose2	0.6315999999999999	0.004	No	2.723	-0.004	1.0	NoResponse	-1	0.26	n/a	2	18	ButtonPress	Loss	True
184.625	1.45	Lose2	0.6315999999999999	n/a	No	2.723	n/a	5.0	NoResponse	-1	0.03	183.655	2	18	Feedback	Loss	True
186.079	2.723	Lose2	0.6315999999999999	n/a	No	2.723	n/a	n/a	NoResponse	-1	0.0	n/a	2	18	ISIslide	Loss	True
188.821	0.25	Control	0.65	0.0	Yes	2.929	0.021	n/a	GoodResponse	0	n/a	n/a	2	19	Cue	Neutral	True
189.072	3.95	Control	0.65	0.0	Yes	2.929	0.001	n/a	GoodResponse	0	n/a	n/a	2	19	Fixation	Neutral	True
193.017	0.25	Control	0.65	0.004	Yes	2.929	-0.004	1.0	GoodResponse	0	0.191	192.208	2	19	Target	Neutral	True
193.208	0.3	Control	0.65	0.004	Yes	2.929	-0.004	1.0	GoodResponse	0	0.191	n/a	2	19	ButtonPress	Neutral	True
193.268	0.45	Control	0.65	n/a	Yes	2.929	n/a	n/a	GoodResponse	0	n/a	n/a	2	19	Blank	Neutral	True
193.719	1.45	Control	0.65	n/a	Yes	2.929	n/a	5.0	GoodResponse	0	0.01	192.729	2	19	Feedback	Neutral	True
195.173	2.929	Control	0.65	n/a	Yes	2.929	n/a	n/a	GoodResponse	0	0.0	n/a	2	19	ISIslide	Neutral	True
198.115	0.25	Control	0.6667000000000001	0.0	Yes	2.635	0.015	n/a	GoodResponse	0	n/a	n/a	2	20	Cue	Neutral	True
198.366	4.05	Control	0.6667000000000001	0.0	Yes	2.635	0.001	n/a	GoodResponse	0	n/a	n/a	2	20	Fixation	Neutral	True
202.412	0.26	Control	0.6667000000000001	0.003	Yes	2.635	-0.003	1.0	GoodResponse	0	0.221	201.633	2	20	Target	Neutral	True
202.633	0.3	Control	0.6667000000000001	0.003	Yes	2.635	-0.003	1.0	GoodResponse	0	0.221	n/a	2	20	ButtonPress	Neutral	True
202.679	0.44	Control	0.6667000000000001	n/a	Yes	2.635	n/a	n/a	GoodResponse	0	n/a	n/a	2	20	Blank	Neutral	True
203.114	1.45	Control	0.6667000000000001	n/a	Yes	2.635	n/a	5.0	GoodResponse	0	0.028	202.142	2	20	Feedback	Neutral	True
204.568	2.635	Control	0.6667000000000001	n/a	Yes	2.635	n/a	n/a	GoodResponse	0	0.0	n/a	2	20	ISIslide	Neutral	True
207.226	0.25	Control	0.6818000000000001	0.0	Yes	2.774	0.026	n/a	GoodResponse	0	n/a	n/a	2	21	Cue	Neutral	True
207.477	4.1	Control	0.6818000000000001	0.0	Yes	2.774	0.001	n/a	GoodResponse	0	n/a	n/a	2	21	Fixation	Neutral	True
211.572	0.25	Control	0.6818000000000001	0.004	Yes	2.774	-0.004	1.0	GoodResponse	0	0.218	210.79	2	21	Target	Neutral	True
211.79	0.3	Control	0.6818000000000001	0.004	Yes	2.774	-0.004	1.0	GoodResponse	0	0.218	n/a	2	21	ButtonPress	Neutral	True
211.823	0.45	Control	0.6818000000000001	n/a	Yes	2.774	n/a	n/a	GoodResponse	0	n/a	n/a	2	21	Blank	Neutral	True
212.274	1.45	Control	0.6818000000000001	n/a	Yes	2.774	n/a	5.0	GoodResponse	0	0.039	211.313	2	21	Feedback	Neutral	True
213.729	2.774	Control	0.6818000000000001	n/a	Yes	2.774	n/a	n/a	GoodResponse	0	0.0	n/a	2	21	ISIslide	Neutral	True
216.52	0.25	Control	0.6522	0.0	No	2.78	0.02	n/a	NoResponse	0	n/a	n/a	2	22	Cue	Neutral	True
216.771	4.0	Control	0.6522	0.0	No	2.78	0.001	n/a	NoResponse	0	n/a	n/a	2	22	Fixation	Neutral	True
220.766	0.24	Control	0.6522	0.004	No	2.78	-0.004	1.0	NoResponse	0	0.308	220.074	2	22	Target	Neutral	True
221.017	0.46	Control	0.6522	n/a	No	2.78	n/a	n/a	NoResponse	0	n/a	n/a	2	22	Blank	Neutral	True
221.074	0.3	Control	0.6522	0.004	No	2.78	-0.004	1.0	NoResponse	0	0.308	n/a	2	22	ButtonPress	Neutral	True
221.468	1.45	Control	0.6522	n/a	No	2.78	n/a	5.0	NoResponse	0	0.016	220.484	2	22	Feedback	Neutral	True
222.923	2.78	Control	0.6522	n/a	No	2.78	n/a	n/a	NoResponse	0	0.0	n/a	2	22	ISIslide	Neutral	True
225.731	0.25	Control	0.6667000000000001	0.0	Yes	2.769	0.031	n/a	GoodResponse	0	n/a	n/a	2	23	Cue	Neutral	True
225.982	3.9	Control	0.6667000000000001	0.0	Yes	2.769	0.001	n/a	GoodResponse	0	n/a	n/a	2	23	Fixation	Neutral	True
229.877	0.25	Control	0.6667000000000001	0.004	Yes	2.769	-0.004	1.0	GoodResponse	0	0.249	229.126	2	23	Target	Neutral	True
230.126	0.3	Control	0.6667000000000001	0.004	Yes	2.769	-0.004	1.0	GoodResponse	0	0.249	n/a	2	23	ButtonPress	Neutral	True
230.128	0.45	Control	0.6667000000000001	n/a	Yes	2.769	n/a	n/a	GoodResponse	0	n/a	n/a	2	23	Blank	Neutral	True
230.579	1.45	Control	0.6667000000000001	n/a	Yes	2.769	n/a	5.0	GoodResponse	0	0.027	229.606	2	23	Feedback	Neutral	True
232.033	2.769	Control	0.6667000000000001	n/a	Yes	2.769	n/a	n/a	GoodResponse	0	0.0	n/a	2	23	ISIslide	Neutral	True
234.825	0.25	Win2	0.68	0.0	Yes	3.125	0.025	n/a	GoodResponse	1	n/a	n/a	3	24	Cue	Win	True
235.076	3.95	Win2	0.68	0.0	Yes	3.125	0.001	n/a	GoodResponse	1	n/a	n/a	3	24	Fixation	Win	True
239.021	0.24	Win2	0.68	0.004	Yes	3.125	-0.004	1.0	GoodResponse	1	0.217	238.238	3	24	Target	Win	True
239.238	0.3	Win2	0.68	0.004	Yes	3.125	-0.004	1.0	GoodResponse	1	0.217	n/a	3	24	ButtonPress	Win	True
239.272	0.46	Win2	0.68	n/a	Yes	3.125	n/a	n/a	GoodResponse	1	n/a	n/a	3	24	Blank	Win	True
239.723	1.45	Win2	0.68	n/a	Yes	3.125	n/a	5.0	GoodResponse	1	0.007	238.73	3	24	Feedback	Win	True
241.177	3.125	Win2	0.68	n/a	Yes	3.125	n/a	n/a	GoodResponse	1	0.0	n/a	3	24	ISIslide	Win	True
244.32	0.25	Win2	0.6923	0.0	Yes	3.08	0.02	n/a	GoodResponse	1	n/a	n/a	4	25	Cue	Win	True
244.571	4.0	Win2	0.6923	0.0	Yes	3.08	0.001	n/a	GoodResponse	1	n/a	n/a	4	25	Fixation	Win	True
248.566	0.23	Win2	0.6923	0.004	Yes	3.08	-0.004	1.0	GoodResponse	1	0.173	247.739	4	25	Target	Win	True
248.739	0.3	Win2	0.6923	0.004	Yes	3.08	-0.004	1.0	GoodResponse	1	0.173	n/a	4	25	ButtonPress	Win	True
248.8	0.47	Win2	0.6923	n/a	Yes	3.08	n/a	n/a	GoodResponse	1	n/a	n/a	4	25	Blank	Win	True
249.268	1.45	Win2	0.6923	n/a	Yes	3.08	n/a	5.0	GoodResponse	1	0.02	248.288	4	25	Feedback	Win	True
250.723	3.08	Win2	0.6923	n/a	Yes	3.08	n/a	n/a	GoodResponse	1	0.0	n/a	4	25	ISIslide	Win	True
253.815	0.25	Win2	0.7037	0.0	Yes	2.935	0.015	n/a	GoodResponse	1	n/a	n/a	5	26	Cue	Win	True
254.066	3.95	Win2	0.7037	0.0	Yes	2.935	0.001	n/a	GoodResponse	1	n/a	n/a	5	26	Fixation	Win	True
258.011	0.22	Win2	0.7037	0.004	Yes	2.935	-0.004	1.0	GoodResponse	1	0.193	257.204	5	26	Target	Win	True
258.204	0.3	Win2	0.7037	0.004	Yes	2.935	-0.004	1.0	GoodResponse	1	0.193	n/a	5	26	ButtonPress	Win	True
258.245	0.48	Win2	0.7037	n/a	Yes	2.935	n/a	n/a	GoodResponse	1	n/a	n/a	5	26	Blank	Win	True
258.713	1.45	Win2	0.7037	n/a	Yes	2.935	n/a	5.0	GoodResponse	1	0.039	257.752	5	26	Feedback	Win	True
260.167	2.935	Win2	0.7037	n/a	Yes	2.935	n/a	n/a	GoodResponse	1	0.0	n/a	5	26	ISIslide	Win	True
263.126	0.25	Lose2	0.6786	0.0	No	2.824	0.026	n/a	NoResponse	-1	n/a	n/a	4	27	Cue	Loss	True
263.377	4.05	Lose2	0.6786	0.0	No	2.824	0.001	n/a	NoResponse	-1	n/a	n/a	4	27	Fixation	Loss	True
267.422	0.21	Lose2	0.6786	0.004	No	2.824	-0.004	1.0	NoResponse	-1	0.232	266.654	4	27	Target	Loss	True
267.64	0.49	Lose2	0.6786	n/a	No	2.824	n/a	n/a	NoResponse	-1	n/a	n/a	4	27	Blank	Loss	True
267.654	0.3	Lose2	0.6786	0.004	No	2.824	-0.004	1.0	NoResponse	-1	0.232	n/a	4	27	ButtonPress	Loss	True
268.124	1.45	Lose2	0.6786	n/a	No	2.824	n/a	5.0	NoResponse	-1	0.042	267.166	4	27	Feedback	Loss	True
269.579	2.824	Lose2	0.6786	n/a	No	2.824	n/a	n/a	NoResponse	-1	0.0	n/a	4	27	ISIslide	Loss	True
272.421	0.25	Control	0.6552	0.0	No	2.829	0.021	n/a	NoResponse	0	n/a	n/a	4	28	Cue	Neutral	True
272.671	4.05	Control	0.6552	0.0	No	2.829	0.0	n/a	NoResponse	0	n/a	n/a	4	28	Fixation	Neutral	True
276.717	0.2	Control	0.6552	0.004	No	2.829	-0.004	1.0	NoResponse	0	0.242	275.959	4	28	Target	Neutral	True
276.917	0.5	Control	0.6552	n/a	No	2.829	n/a	n/a	NoResponse	0	n/a	n/a	4	28	Blank	Neutral	True
276.959	0.3	Control	0.6552	0.004	No	2.829	-0.004	1.0	NoResponse	0	0.242	n/a	4	28	ButtonPress	Neutral	True
277.419	1.45	Control	0.6552	n/a	No	2.829	n/a	5.0	NoResponse	0	0.015	276.434	4	28	Feedback	Neutral	True
278.873	2.829	Control	0.6552	n/a	No	2.829	n/a	n/a	NoResponse	0	0.0	n/a	4	28	ISIslide	Neutral	True
281.715	0.25	Lose2	0.6667000000000001	0.0	Yes	2.835	0.015	n/a	GoodResponse	0	n/a	n/a	4	29	Cue	AvoidedLoss	True
281.966	3.95	Lose2	0.6667000000000001	0.0	Yes	2.835	0.001	n/a	GoodResponse	0	n/a	n/a	4	29	Fixation	AvoidedLoss	True
285.911	0.2	Lose2	0.6667000000000001	0.004	Yes	2.835	-0.004	1.0	GoodResponse	0	0.174	285.085	4	29	Target	AvoidedLoss	True
286.085	0.3	Lose2	0.6667000000000001	0.004	Yes	2.835	-0.004	1.0	GoodResponse	0	0.174	n/a	4	29	ButtonPress	AvoidedLoss	True
286.112	0.5	Lose2	0.6667000000000001	n/a	Yes	2.835	n/a	n/a	GoodResponse	0	n/a	n/a	4	29	Blank	AvoidedLoss	True
286.613	1.45	Lose2	0.6667000000000001	n/a	Yes	2.835	n/a	5.0	GoodResponse	0	0.041	285.654	4	29	Feedback	AvoidedLoss	True
288.067	2.835	Lose2	0.6667000000000001	n/a	Yes	2.835	n/a	n/a	GoodResponse	0	0.0	n/a	4	29	ISIslide	AvoidedLoss	True
290.926	0.25	Win2	0.6452	0.0	No	2.774	0.026	n/a	NoResponse	0	n/a	n/a	4	30	Cue	MissedWin	True
291.177	3.9	Win2	0.6452	0.0	No	2.774	0.001	n/a	NoResponse	0	n/a	n/a	4	30	Fixation	MissedWin	True
295.072	0.19	Win2	0.6452	0.004	No	2.774	-0.004	1.0	NoResponse	0	0.239	294.311	4	30	Target	MissedWin	True
295.272	0.51	Win2	0.6452	n/a	No	2.774	n/a	n/a	NoResponse	0	n/a	n/a	4	30	Blank	MissedWin	True
295.311	0.3	Win2	0.6452	0.004	No	2.774	-0.004	1.0	NoResponse	0	0.239	n/a	4	30	ButtonPress	MissedWin	True
295.774	1.45	Win2	0.6452	n/a	No	2.774	n/a	5.0	NoResponse	0	0.002	294.776	4	30	Feedback	MissedWin	True
297.228	2.774	Win2	0.6452	n/a	No	2.774	n/a	n/a	NoResponse	0	0.0	n/a	4	30	ISIslide	MissedWin	True
300.02	0.25	Lose2	0.6562	0.0	Yes	2.83	0.02	n/a	GoodResponse	0	n/a	n/a	4	31	Cue	AvoidedLoss	True
300.27	4.05	Lose2	0.6562	0.001	Yes	2.83	0.0	n/a	GoodResponse	0	n/a	n/a	4	31	Fixation	AvoidedLoss	True
304.316	0.2	Lose2	0.6562	0.004	Yes	2.83	-0.004	1.0	GoodResponse	0	0.172	303.488	4	31	Target	AvoidedLoss	True
304.488	0.3	Lose2	0.6562	0.004	Yes	2.83	-0.004	1.0	GoodResponse	0	0.172	n/a	4	31	ButtonPress	AvoidedLoss	True
304.516	0.5	Lose2	0.6562	n/a	Yes	2.83	n/a	n/a	GoodResponse	0	n/a	n/a	4	31	Blank	AvoidedLoss	True
305.018	1.45	Lose2	0.6562	n/a	Yes	2.83	n/a	5.0	GoodResponse	0	0.026	304.044	4	31	Feedback	AvoidedLoss	True
306.472	2.83	Lose2	0.6562	n/a	Yes	2.83	n/a	n/a	GoodResponse	0	0.0	n/a	4	31	ISIslide	AvoidedLoss	True
309.331	0.25	Lose2	0.6364	0.0	No	2.619	0.031	n/a	LatePress	-1	n/a	n/a	3	32	Cue	Loss	True
309.582	4.15	Lose2	0.6364	0.0	No	2.619	0.001	n/a	LatePress	-1	n/a	n/a	3	32	Fixation	Loss	True
313.727	0.2	Lose2	0.6364	0.004	No	2.619	-0.004	1.0	LatePress	-1	0.2	312.927	3	32	Target	Loss	True
313.927	0.3	Lose2	0.6364	0.004	No	2.619	-0.004	1.0	LatePress	-1	0.2	n/a	3	32	ButtonPress	Loss	True
313.928	0.5	Lose2	0.6364	n/a	No	2.619	n/a	n/a	LatePress	-1	n/a	n/a	3	32	Blank	Loss	True
314.429	1.45	Lose2	0.6364	n/a	No	2.619	n/a	5.0	LatePress	-1	0.029	313.458	3	32	Feedback	Loss	True
315.884	2.619	Lose2	0.6364	n/a	No	2.619	n/a	n/a	LatePress	-1	0.0	n/a	3	32	ISIslide	Loss	True
318.525	0.25	Win2	0.6470999999999999	0.0	Yes	2.675	0.025	n/a	GoodResponse	1	n/a	n/a	4	33	Cue	Win	True
318.776	4.0	Win2	0.6470999999999999	0.0	Yes	2.675	0.001	n/a	GoodResponse	1	n/a	n/a	4	33	Fixation	Win	True
322.771	0.21	Win2	0.6470999999999999	0.004	Yes	2.675	-0.004	1.0	GoodResponse	1	0.182	321.953	4	33	Target	Win	True
322.953	0.3	Win2	0.6470999999999999	0.004	Yes	2.675	-0.004	1.0	GoodResponse	1	0.182	n/a	4	33	ButtonPress	Win	True
322.988	0.49	Win2	0.6470999999999999	n/a	Yes	2.675	n/a	n/a	GoodResponse	1	n/a	n/a	4	33	Blank	Win	True
323.473	1.45	Win2	0.6470999999999999	n/a	Yes	2.675	n/a	5.0	GoodResponse	1	0.009	322.482	4	33	Feedback	Win	True
324.927	2.675	Win2	0.6470999999999999	n/a	Yes	2.675	n/a	n/a	GoodResponse	1	0.0	n/a	4	33	ISIslide	Win	True
327.619	0.25	Lose2	0.6570999999999999	0.0	Yes	2.631	0.019	n/a	GoodResponse	0	n/a	n/a	4	34	Cue	AvoidedLoss	True
327.87	4.05	Lose2	0.6570999999999999	0.0	Yes	2.631	0.001	n/a	GoodResponse	0	n/a	n/a	4	34	Fixation	AvoidedLoss	True
331.915	0.22	Lose2	0.6570999999999999	0.004	Yes	2.631	-0.004	1.0	GoodResponse	0	0.176	331.091	4	34	Target	AvoidedLoss	True
332.091	0.3	Lose2	0.6570999999999999	0.004	Yes	2.631	-0.004	1.0	GoodResponse	0	0.176	n/a	4	34	ButtonPress	AvoidedLoss	True
332.149	0.48	Lose2	0.6570999999999999	n/a	Yes	2.631	n/a	n/a	GoodResponse	0	n/a	n/a	4	34	Blank	AvoidedLoss	True
332.617	1.45	Lose2	0.6570999999999999	n/a	Yes	2.631	n/a	5.0	GoodResponse	0	0.036	331.653	4	34	Feedback	AvoidedLoss	True
334.071	2.631	Lose2	0.6570999999999999	n/a	Yes	2.631	n/a	n/a	GoodResponse	0	0.0	n/a	4	34	ISIslide	AvoidedLoss	True
336.729	0.25	Lose2	0.6667000000000001	0.0	Yes	2.671	0.029	n/a	GoodResponse	0	n/a	n/a	4	35	Cue	AvoidedLoss	True
336.98	4.0	Lose2	0.6667000000000001	0.0	Yes	2.671	0.001	n/a	GoodResponse	0	n/a	n/a	4	35	Fixation	AvoidedLoss	True
340.975	0.22	Lose2	0.6667000000000001	0.004	Yes	2.671	-0.004	1.0	GoodResponse	0	0.179	340.154	4	35	Target	AvoidedLoss	True
341.154	0.3	Lose2	0.6667000000000001	0.004	Yes	2.671	-0.004	1.0	GoodResponse	0	0.179	n/a	4	35	ButtonPress	AvoidedLoss	True
341.209	0.48	Lose2	0.6667000000000001	n/a	Yes	2.671	n/a	n/a	GoodResponse	0	n/a	n/a	4	35	Blank	AvoidedLoss	True
341.677	1.45	Lose2	0.6667000000000001	n/a	Yes	2.671	n/a	5.0	GoodResponse	0	0.049	340.726	4	35	Feedback	AvoidedLoss	True
343.132	2.671	Lose2	0.6667000000000001	n/a	Yes	2.671	n/a	n/a	GoodResponse	0	0.0	n/a	4	35	ISIslide	AvoidedLoss	True
345.823	0.25	Control	0.6486	0.0	No	2.677	0.023	n/a	NoResponse	0	n/a	n/a	4	36	Cue	Neutral	False
346.074	4.0	Control	0.6486	0.0	No	2.677	0.001	n/a	NoResponse	0	n/a	n/a	4	36	Fixation	Neutral	False
350.069	0.21	Control	0.6486	0.004	No	2.677	-0.004	n/a	NoResponse	0	n/a	n/a	4	36	Target	Neutral	False
350.287	0.49	Control	0.6486	n/a	No	2.677	n/a	n/a	NoResponse	0	n/a	n/a	4	36	Blank	Neutral	False
350.771	1.45	Control	0.6486	n/a	No	2.677	n/a	5.0	NoResponse	0	0.028	349.799	4	36	Feedback	Neutral	False
352.226	2.677	Control	0.6486	n/a	No	2.677	n/a	n/a	NoResponse	0	0.0	n/a	4	36	ISIslide	Neutral	False
354.917	0.25	Win2	0.6579	0.0	Yes	2.883	0.017	n/a	GoodResponse	1	n/a	n/a	5	37	Cue	Win	True
355.168	4.0	Win2	0.6579	0.0	Yes	2.883	0.001	n/a	GoodResponse	1	n/a	n/a	5	37	Fixation	Win	True
359.163	0.22	Win2	0.6579	0.004	Yes	2.883	-0.004	1.0	GoodResponse	1	0.177	358.34	5	37	Target	Win	True
359.34	0.3	Win2	0.6579	0.004	Yes	2.883	-0.004	1.0	GoodResponse	1	0.177	n/a	5	37	ButtonPress	Win	True
359.397	0.48	Win2	0.6579	n/a	Yes	2.883	n/a	n/a	GoodResponse	1	n/a	n/a	5	37	Blank	Win	True
359.865	1.45	Win2	0.6579	n/a	Yes	2.883	n/a	5.0	GoodResponse	1	0.007	358.872	5	37	Feedback	Win	True
361.319	2.883	Win2	0.6579	n/a	Yes	2.883	n/a	n/a	GoodResponse	1	0.0	n/a	5	37	ISIslide	Win	True
364.228	0.25	Lose2	0.6667000000000001	0.0	Yes	2.822	0.028	n/a	GoodResponse	0	n/a	n/a	5	38	Cue	AvoidedLoss	True
364.479	3.95	Lose2	0.6667000000000001	0.0	Yes	2.822	0.001	n/a	GoodResponse	0	n/a	n/a	5	38	Fixation	AvoidedLoss	True
368.424	0.22	Lose2	0.6667000000000001	0.004	Yes	2.822	-0.004	1.0	GoodResponse	0	0.207	367.631	5	38	Target	AvoidedLoss	True
368.631	0.3	Lose2	0.6667000000000001	0.004	Yes	2.822	-0.004	1.0	GoodResponse	0	0.207	n/a	5	38	ButtonPress	AvoidedLoss	True
368.658	0.48	Lose2	0.6667000000000001	n/a	Yes	2.822	n/a	n/a	GoodResponse	0	n/a	n/a	5	38	Blank	AvoidedLoss	True
369.126	1.45	Lose2	0.6667000000000001	n/a	Yes	2.822	n/a	5.0	GoodResponse	0	0.014	368.14	5	38	Feedback	AvoidedLoss	True
370.58	2.822	Lose2	0.6667000000000001	n/a	Yes	2.822	n/a	n/a	GoodResponse	0	0.0	n/a	5	38	ISIslide	AvoidedLoss	True
373.422	0.25	Win2	0.675	0.0	Yes	2.978	0.022	n/a	GoodResponse	1	n/a	n/a	6	39	Cue	Win	True
373.673	4.1	Win2	0.675	0.0	Yes	2.978	0.001	n/a	GoodResponse	1	n/a	n/a	6	39	Fixation	Win	True
377.769	0.21	Win2	0.675	0.003	Yes	2.978	-0.003	1.0	GoodResponse	1	0.192	376.961	6	39	Target	Win	True
377.961	0.3	Win2	0.675	0.003	Yes	2.978	-0.003	1.0	GoodResponse	1	0.192	n/a	6	39	ButtonPress	Win	True
377.986	0.49	Win2	0.675	n/a	Yes	2.978	n/a	n/a	GoodResponse	1	n/a	n/a	6	39	Blank	Win	True
378.471	1.45	Win2	0.675	n/a	Yes	2.978	n/a	5.0	GoodResponse	1	0.035	377.506	6	39	Feedback	Win	True
379.925	2.978	Win2	0.675	n/a	Yes	2.978	n/a	n/a	GoodResponse	1	0.0	n/a	6	39	ISIslide	Win	True
382.917	0.25	Win2	0.6829000000000001	0.0	Yes	2.733	0.017	n/a	GoodResponse	1	n/a	n/a	7	40	Cue	Win	True
383.168	3.95	Win2	0.6829000000000001	0.0	Yes	2.733	0.001	n/a	GoodResponse	1	n/a	n/a	7	40	Fixation	Win	True
387.113	0.2	Win2	0.6829000000000001	0.004	Yes	2.733	-0.004	1.0	GoodResponse	1	0.197	386.31	7	40	Target	Win	True
387.31	0.3	Win2	0.6829000000000001	0.004	Yes	2.733	-0.004	1.0	GoodResponse	1	0.197	n/a	7	40	ButtonPress	Win	True
387.314	0.5	Win2	0.6829000000000001	n/a	Yes	2.733	n/a	n/a	GoodResponse	1	n/a	n/a	7	40	Blank	Win	True
387.815	1.45	Win2	0.6829000000000001	n/a	Yes	2.733	n/a	5.0	GoodResponse	1	0.008	386.823	7	40	Feedback	Win	True
389.27	2.733	Win2	0.6829000000000001	n/a	Yes	2.733	n/a	n/a	GoodResponse	1	0.0	n/a	7	40	ISIslide	Win	True
392.028	0.25	Win2	0.6905	0.0	Yes	2.772	0.028	n/a	GoodResponse	1	n/a	n/a	8	41	Cue	Win	True
392.279	3.9	Win2	0.6905	0.0	Yes	2.772	0.001	n/a	GoodResponse	1	n/a	n/a	8	41	Fixation	Win	True
396.174	0.19	Win2	0.6905	0.004	Yes	2.772	-0.004	1.0	GoodResponse	1	0.174	395.348	8	41	Target	Win	True
396.348	0.3	Win2	0.6905	0.004	Yes	2.772	-0.004	1.0	GoodResponse	1	0.174	n/a	8	41	ButtonPress	Win	True
396.374	0.51	Win2	0.6905	n/a	Yes	2.772	n/a	n/a	GoodResponse	1	n/a	n/a	8	41	Blank	Win	True
396.876	1.45	Win2	0.6905	n/a	Yes	2.772	n/a	5.0	GoodResponse	1	0.02	395.896	8	41	Feedback	Win	True
398.33	2.772	Win2	0.6905	n/a	Yes	2.772	n/a	n/a	GoodResponse	1	0.0	n/a	8	41	ISIslide	Win	True
401.122	0.25	Control	0.6744	0.0	No	2.928	0.022	n/a	NoResponse	0	n/a	n/a	8	42	Cue	Neutral	True
401.372	3.85	Control	0.6744	0.0	No	2.928	0.0	n/a	NoResponse	0	n/a	n/a	8	42	Fixation	Neutral	True
405.234	0.18	Control	0.6744	0.0	No	2.928	0.012	1.0	NoResponse	0	0.207	404.441	8	42	Target	Neutral	True
405.401	0.52	Control	0.6744	n/a	No	2.928	n/a	n/a	NoResponse	0	n/a	n/a	8	42	Blank	Neutral	True
405.441	0.3	Control	0.6744	0.0	No	2.928	0.012	1.0	NoResponse	0	0.207	n/a	8	42	ButtonPress	Neutral	True
405.919	1.45	Control	0.6744	n/a	No	2.928	n/a	5.0	NoResponse	0	0.001	404.92	8	42	Feedback	Neutral	True
407.374	2.928	Control	0.6744	n/a	No	2.928	n/a	n/a	NoResponse	0	0.0	n/a	8	42	ISIslide	Neutral	True
410.316	0.25	Win2	0.6591	0.0	No	3.184	0.016	n/a	NoResponse	0	n/a	n/a	8	43	Cue	MissedWin	True
410.567	4.0	Win2	0.6591	0.0	No	3.184	0.001	n/a	NoResponse	0	n/a	n/a	8	43	Fixation	MissedWin	True
414.562	0.17	Win2	0.6591	0.004	No	3.184	-0.004	1.0	NoResponse	0	0.185	413.747	8	43	Target	MissedWin	True
414.746	0.53	Win2	0.6591	n/a	No	3.184	n/a	n/a	NoResponse	0	n/a	n/a	8	43	Blank	MissedWin	True
414.747	0.3	Win2	0.6591	0.004	No	3.184	-0.004	1.0	NoResponse	0	0.185	n/a	8	43	ButtonPress	MissedWin	True
415.264	1.45	Win2	0.6591	n/a	No	3.184	n/a	5.0	NoResponse	0	0.022	414.286	8	43	Feedback	MissedWin	True
416.718	3.184	Win2	0.6591	n/a	No	3.184	n/a	n/a	NoResponse	0	0.0	n/a	8	43	ISIslide	MissedWin	True
419.928	0.25	Win2	0.6444	0.0	No	2.972	0.028	n/a	LatePress	0	n/a	n/a	8	44	Cue	MissedWin	True
420.179	4.0	Win2	0.6444	0.0	No	2.972	0.001	n/a	LatePress	0	n/a	n/a	8	44	Fixation	MissedWin	True
424.174	0.17	Win2	0.6444	0.004	No	2.972	-0.004	1.0	LatePress	0	0.175	423.349	8	44	Target	MissedWin	True
424.349	0.3	Win2	0.6444	0.004	No	2.972	-0.004	1.0	LatePress	0	0.175	n/a	8	44	ButtonPress	MissedWin	True
424.358	0.53	Win2	0.6444	n/a	No	2.972	n/a	n/a	LatePress	0	n/a	n/a	8	44	Blank	MissedWin	True
424.876	1.45	Win2	0.6444	n/a	No	2.972	n/a	5.0	LatePress	0	0.019	423.895	8	44	Feedback	MissedWin	True
426.33	2.972	Win2	0.6444	n/a	No	2.972	n/a	n/a	LatePress	0	0.0	n/a	8	44	ISIslide	MissedWin	True
429.323	0.25	Control	0.6304	0.0	No	2.877	0.023	n/a	NoResponse	0	n/a	n/a	8	45	Cue	Neutral	True
429.573	4.1	Control	0.6304	0.0	No	2.877	0.0	n/a	NoResponse	0	n/a	n/a	8	45	Fixation	Neutral	True
433.669	0.18	Control	0.6304	0.004	No	2.877	-0.004	1.0	NoResponse	0	0.193	432.862	8	45	Target	Neutral	True
433.853	0.52	Control	0.6304	n/a	No	2.877	n/a	n/a	NoResponse	0	n/a	n/a	8	45	Blank	Neutral	True
433.862	0.3	Control	0.6304	0.004	No	2.877	-0.004	1.0	NoResponse	0	0.193	n/a	8	45	ButtonPress	Neutral	True
434.371	1.45	Control	0.6304	n/a	No	2.877	n/a	5.0	NoResponse	0	0.036	433.407	8	45	Feedback	Neutral	True
435.825	2.877	Control	0.6304	n/a	No	2.877	n/a	n/a	NoResponse	0	0.0	n/a	8	45	ISIslide	Neutral	True
438.717	0.25	Lose2	0.6383	0.0	Yes	3.383	0.017	n/a	GoodResponse	0	n/a	n/a	8	46	Cue	AvoidedLoss	True
438.968	4.0	Lose2	0.6383	0.0	Yes	3.383	0.001	n/a	GoodResponse	0	n/a	n/a	8	46	Fixation	AvoidedLoss	True
442.963	0.19	Lose2	0.6383	0.004	Yes	3.383	-0.004	1.0	GoodResponse	0	0.171	442.134	8	46	Target	AvoidedLoss	True
443.134	0.3	Lose2	0.6383	0.004	Yes	3.383	-0.004	1.0	GoodResponse	0	0.171	n/a	8	46	ButtonPress	AvoidedLoss	True
443.164	0.51	Lose2	0.6383	n/a	Yes	3.383	n/a	n/a	GoodResponse	0	n/a	n/a	8	46	Blank	AvoidedLoss	True
443.665	1.45	Lose2	0.6383	n/a	Yes	3.383	n/a	5.0	GoodResponse	0	0.011	442.676	8	46	Feedback	AvoidedLoss	True
445.12	3.383	Lose2	0.6383	n/a	Yes	3.383	n/a	n/a	GoodResponse	0	0.0	n/a	8	46	ISIslide	AvoidedLoss	True
448.53	0.25	Lose2	0.6457999999999999	0.0	Yes	2.67	0.03	n/a	GoodResponse	0	n/a	n/a	8	47	Cue	AvoidedLoss	True
448.781	4.0	Lose2	0.6457999999999999	0.0	Yes	2.67	0.001	n/a	GoodResponse	0	n/a	n/a	8	47	Fixation	AvoidedLoss	True
452.776	0.2	Lose2	0.6457999999999999	0.004	Yes	2.67	-0.004	1.0	GoodResponse	0	0.156	451.932	8	47	Target	AvoidedLoss	True
452.932	0.3	Lose2	0.6457999999999999	0.004	Yes	2.67	-0.004	1.0	GoodResponse	0	0.156	n/a	8	47	ButtonPress	AvoidedLoss	True
452.977	0.5	Lose2	0.6457999999999999	n/a	Yes	2.67	n/a	n/a	GoodResponse	0	n/a	n/a	8	47	Blank	AvoidedLoss	True
453.478	1.45	Lose2	0.6457999999999999	n/a	Yes	2.67	n/a	5.0	GoodResponse	0	0.008	452.486	8	47	Feedback	AvoidedLoss	True
454.932	2.67	Lose2	0.6457999999999999	n/a	Yes	2.67	n/a	n/a	GoodResponse	0	0.0	n/a	8	47	ISIslide	AvoidedLoss	True
457.624	0.25	Lose2	0.6327	0.0	No	3.026	0.024	n/a	PrematurePress	-1	n/a	n/a	7	48	Cue	Loss	True
457.874	3.95	Lose2	0.6327	0.001	No	3.026	0.0	n/a	PrematurePress	-1	n/a	n/a	7	48	Fixation	Loss	True
461.82	0.21	Lose2	0.6327	0.004	No	3.026	-0.004	1.0	PrematurePress	-1	0.092	460.912	7	48	Target	Loss	True
461.912	0.3	Lose2	0.6327	0.004	No	3.026	-0.004	1.0	PrematurePress	-1	0.092	n/a	7	48	ButtonPress	Loss	True
462.037	0.49	Lose2	0.6327	n/a	No	3.026	n/a	n/a	PrematurePress	-1	n/a	n/a	7	48	Blank	Loss	True
462.522	1.45	Lose2	0.6327	n/a	No	3.026	n/a	5.0	PrematurePress	-1	0.031	461.553	7	48	Feedback	Loss	True
463.976	3.026	Lose2	0.6327	n/a	No	3.026	n/a	n/a	PrematurePress	-1	0.0	n/a	7	48	ISIslide	Loss	True
467.018	0.25	Control	0.62	0.001	No	2.882	0.018	n/a	NoResponse	0	n/a	n/a	7	49	Cue	Neutral	False
467.269	4.0	Control	0.62	0.0	No	2.882	0.001	n/a	NoResponse	0	n/a	n/a	7	49	Fixation	Neutral	False
471.264	0.22	Control	0.62	0.004	No	2.882	-0.004	n/a	NoResponse	0	n/a	n/a	7	49	Target	Neutral	False
471.499	0.48	Control	0.62	n/a	No	2.882	n/a	n/a	NoResponse	0	n/a	n/a	7	49	Blank	Neutral	False
471.967	1.45	Control	0.62	n/a	No	2.882	n/a	5.0	NoResponse	0	0.001	470.968	7	49	Feedback	Neutral	False
473.421	2.882	Control	0.62	n/a	No	2.882	n/a	n/a	NoResponse	0	0.0	n/a	7	49	ISIslide	Neutral	False
476.33	0.25	Control	0.6078	0.0	No	2.77	0.03	n/a	NoResponse	0	n/a	n/a	7	50	Cue	Neutral	False
476.58	4.0	Control	0.6078	0.0	No	2.77	0.0	n/a	NoResponse	0	n/a	n/a	7	50	Fixation	Neutral	False
480.576	0.23	Control	0.6078	0.004	No	2.77	-0.004	n/a	NoResponse	0	n/a	n/a	7	50	Target	Neutral	False
480.81	0.47	Control	0.6078	n/a	No	2.77	n/a	n/a	NoResponse	0	n/a	n/a	7	50	Blank	Neutral	False
481.278	1.45	Control	0.6078	n/a	No	2.77	n/a	5.0	NoResponse	0	0.008	480.286	7	50	Feedback	Neutral	False
482.732	2.77	Control	0.6078	n/a	No	2.77	n/a	n/a	NoResponse	0	0.0	n/a	7	50	ISIslide	Neutral	False
485.524	0.25	Control	0.6154	0.0	Yes	2.726	0.024	n/a	GoodResponse	0	n/a	n/a	7	51	Cue	Neutral	True
485.774	3.95	Control	0.6154	0.001	Yes	2.726	0.0	n/a	GoodResponse	0	n/a	n/a	7	51	Fixation	Neutral	True
489.72	0.24	Control	0.6154	0.004	Yes	2.726	-0.004	1.0	GoodResponse	0	0.207	488.927	7	51	Target	Neutral	True
489.927	0.3	Control	0.6154	0.004	Yes	2.726	-0.004	1.0	GoodResponse	0	0.207	n/a	7	51	ButtonPress	Neutral	True
489.97	0.46	Control	0.6154	n/a	Yes	2.726	n/a	n/a	GoodResponse	0	n/a	n/a	7	51	Blank	Neutral	True
490.422	1.45	Control	0.6154	n/a	Yes	2.726	n/a	5.0	GoodResponse	0	0.034	489.456	7	51	Feedback	Neutral	True
491.876	2.726	Control	0.6154	n/a	Yes	2.726	n/a	n/a	GoodResponse	0	0.0	n/a	7	51	ISIslide	Neutral	True
494.618	0.25	Control	0.6225999999999999	0.0	Yes	2.632	0.018	n/a	GoodResponse	0	n/a	n/a	7	52	Cue	Neutral	True
494.868	4.05	Control	0.6225999999999999	0.0	Yes	2.632	0.0	n/a	GoodResponse	0	n/a	n/a	7	52	Fixation	Neutral	True
498.914	0.25	Control	0.6225999999999999	0.004	Yes	2.632	-0.004	1.0	GoodResponse	0	0.2	498.114	7	52	Target	Neutral	True
499.114	0.3	Control	0.6225999999999999	0.004	Yes	2.632	-0.004	1.0	GoodResponse	0	0.2	n/a	7	52	ButtonPress	Neutral	True
499.164	0.45	Control	0.6225999999999999	n/a	Yes	2.632	n/a	n/a	GoodResponse	0	n/a	n/a	7	52	Blank	Neutral	True
499.616	1.45	Control	0.6225999999999999	n/a	Yes	2.632	n/a	5.0	GoodResponse	0	0.009	498.625	7	52	Feedback	Neutral	True
501.07	2.632	Control	0.6225999999999999	n/a	Yes	2.632	n/a	n/a	GoodResponse	0	0.0	n/a	7	52	ISIslide	Neutral	True
503.728	0.25	Win2	0.6296	0.0	Yes	2.922	0.028	n/a	GoodResponse	1	n/a	n/a	8	53	Cue	Win	True
503.979	4.05	Win2	0.6296	0.0	Yes	2.922	0.001	n/a	GoodResponse	1	n/a	n/a	8	53	Fixation	Win	True
508.024	0.26	Win2	0.6296	0.004	Yes	2.922	-0.004	1.0	GoodResponse	1	0.18	507.204	8	53	Target	Win	True
508.204	0.3	Win2	0.6296	0.004	Yes	2.922	-0.004	1.0	GoodResponse	1	0.18	n/a	8	53	ButtonPress	Win	True
508.292	0.44	Win2	0.6296	n/a	Yes	2.922	n/a	n/a	GoodResponse	1	n/a	n/a	8	53	Blank	Win	True
508.726	1.45	Win2	0.6296	n/a	Yes	2.922	n/a	5.0	GoodResponse	1	0.021	507.747	8	53	Feedback	Win	True
510.181	2.922	Win2	0.6296	n/a	Yes	2.922	n/a	n/a	GoodResponse	1	0.0	n/a	8	53	ISIslide	Win	True
513.123	0.25	Win2	0.6364	0.0	Yes	2.727	0.023	n/a	GoodResponse	1	n/a	n/a	9	54	Cue	Win	True
513.374	3.95	Win2	0.6364	0.0	Yes	2.727	0.001	n/a	GoodResponse	1	n/a	n/a	9	54	Fixation	Win	True
517.319	0.27	Win2	0.6364	0.004	Yes	2.727	-0.004	1.0	GoodResponse	1	0.231	516.55	9	54	Target	Win	True
517.55	0.3	Win2	0.6364	0.004	Yes	2.727	-0.004	1.0	GoodResponse	1	0.231	n/a	9	54	ButtonPress	Win	True
517.603	0.43	Win2	0.6364	n/a	Yes	2.727	n/a	n/a	GoodResponse	1	n/a	n/a	9	54	Blank	Win	True
518.021	1.45	Win2	0.6364	n/a	Yes	2.727	n/a	5.0	GoodResponse	1	0.044	517.065	9	54	Feedback	Win	True
519.475	2.727	Win2	0.6364	n/a	Yes	2.727	n/a	n/a	GoodResponse	1	0.0	n/a	9	54	ISIslide	Win	True
522.217	0.25	Control	0.6429	0.0	Yes	3.033	0.017	n/a	GoodResponse	0	n/a	n/a	9	55	Cue	Neutral	True
522.467	3.95	Control	0.6429	0.0	Yes	3.033	0.0	n/a	GoodResponse	0	n/a	n/a	9	55	Fixation	Neutral	True
526.413	0.28	Control	0.6429	0.004	Yes	3.033	-0.004	1.0	GoodResponse	0	0.241	525.654	9	55	Target	Neutral	True
526.654	0.3	Control	0.6429	0.004	Yes	3.033	-0.004	1.0	GoodResponse	0	0.241	n/a	9	55	ButtonPress	Neutral	True
526.697	0.42	Control	0.6429	n/a	Yes	3.033	n/a	n/a	GoodResponse	0	n/a	n/a	9	55	Blank	Neutral	True
527.115	1.45	Control	0.6429	n/a	Yes	3.033	n/a	5.0	GoodResponse	0	0.023	526.138	9	55	Feedback	Neutral	True
528.569	3.033	Control	0.6429	n/a	Yes	3.033	n/a	n/a	GoodResponse	0	0.0	n/a	9	55	ISIslide	Neutral	True
531.628	0.25	Control	0.6491	0.0	Yes	2.822	0.028	n/a	GoodResponse	0	n/a	n/a	9	56	Cue	Neutral	True
531.879	3.95	Control	0.6491	0.0	Yes	2.822	0.001	n/a	GoodResponse	0	n/a	n/a	9	56	Fixation	Neutral	True
535.824	0.29	Control	0.6491	0.004	Yes	2.822	-0.004	1.0	GoodResponse	0	0.208	535.032	9	56	Target	Neutral	True
536.032	0.3	Control	0.6491	0.004	Yes	2.822	-0.004	1.0	GoodResponse	0	0.208	n/a	9	56	ButtonPress	Neutral	True
536.125	0.41	Control	0.6491	n/a	Yes	2.822	n/a	n/a	GoodResponse	0	n/a	n/a	9	56	Blank	Neutral	True
536.526	1.45	Control	0.6491	n/a	Yes	2.822	n/a	5.0	GoodResponse	0	0.026	535.552	9	56	Feedback	Neutral	True
537.98	2.822	Control	0.6491	n/a	Yes	2.822	n/a	n/a	GoodResponse	0	0.0	n/a	9	56	ISIslide	Neutral	True
540.822	0.25	Control	0.6552	0.0	Yes	3.478	0.022	n/a	GoodResponse	0	n/a	n/a	9	57	Cue	Neutral	True
541.073	4.0	Control	0.6552	0.0	Yes	3.478	0.001	n/a	GoodResponse	0	n/a	n/a	9	57	Fixation	Neutral	True
545.068	0.3	Control	0.6552	0.004	Yes	3.478	-0.004	1.0	GoodResponse	0	0.226	544.294	9	57	Target	Neutral	True
545.294	0.3	Control	0.6552	0.004	Yes	3.478	-0.004	1.0	GoodResponse	0	0.226	n/a	9	57	ButtonPress	Neutral	True
545.369	0.4	Control	0.6552	n/a	Yes	3.478	n/a	n/a	GoodResponse	0	n/a	n/a	9	57	Blank	Neutral	True
545.77	1.45	Control	0.6552	n/a	Yes	3.478	n/a	5.0	GoodResponse	0	0.001	544.771	9	57	Feedback	Neutral	True
547.225	3.478	Control	0.6552	n/a	Yes	3.478	n/a	n/a	GoodResponse	0	0.0	n/a	9	57	ISIslide	Neutral	True
550.718	0.25	Win2	0.6609999999999999	0.001	Yes	2.732	0.018	n/a	GoodResponse	1	n/a	n/a	10	58	Cue	Win	True
550.969	4.05	Win2	0.6609999999999999	0.0	Yes	2.732	0.001	n/a	GoodResponse	1	n/a	n/a	10	58	Fixation	Win	True
555.015	0.3	Win2	0.6609999999999999	0.003	Yes	2.732	-0.003	1.0	GoodResponse	1	0.169	554.184	10	58	Target	Win	True
555.184	0.3	Win2	0.6609999999999999	0.003	Yes	2.732	-0.003	1.0	GoodResponse	1	0.169	n/a	10	58	ButtonPress	Win	True
555.316	0.4	Win2	0.6609999999999999	n/a	Yes	2.732	n/a	n/a	GoodResponse	1	n/a	n/a	10	58	Blank	Win	True
555.717	1.45	Win2	0.6609999999999999	n/a	Yes	2.732	n/a	5.0	GoodResponse	1	0.007	554.724	10	58	Feedback	Win	True
557.171	2.732	Win2	0.6609999999999999	n/a	Yes	2.732	n/a	n/a	GoodResponse	1	0.0	n/a	10	58	ISIslide	Win	True
559.929	0.25	Lose2	0.6667000000000001	0.0	Yes	2.671	0.029	n/a	GoodResponse	0	n/a	n/a	10	59	Cue	AvoidedLoss	True
560.18	4.0	Lose2	0.6667000000000001	0.0	Yes	2.671	0.001	n/a	GoodResponse	0	n/a	n/a	10	59	Fixation	AvoidedLoss	True
564.175	0.3	Lose2	0.6667000000000001	0.004	Yes	2.671	-0.004	1.0	GoodResponse	0	0.216	563.391	10	59	Target	AvoidedLoss	True
564.391	0.3	Lose2	0.6667000000000001	0.004	Yes	2.671	-0.004	1.0	GoodResponse	0	0.216	n/a	10	59	ButtonPress	AvoidedLoss	True
564.476	0.4	Lose2	0.6667000000000001	n/a	Yes	2.671	n/a	n/a	GoodResponse	0	n/a	n/a	10	59	Blank	AvoidedLoss	True
564.877	1.45	Lose2	0.6667000000000001	n/a	Yes	2.671	n/a	5.0	GoodResponse	0	0.016	563.893	10	59	Feedback	AvoidedLoss	True
566.332	2.671	Lose2	0.6667000000000001	n/a	Yes	2.671	n/a	n/a	GoodResponse	0	0.0	n/a	10	59	ISIslide	AvoidedLoss	True
569.023	0.25	Control	0.6720999999999999	0.0	Yes	2.677	0.023	n/a	GoodResponse	0	n/a	n/a	10	60	Cue	Neutral	True
569.274	4.0	Control	0.6720999999999999	0.0	Yes	2.677	0.001	n/a	GoodResponse	0	n/a	n/a	10	60	Fixation	Neutral	True
573.269	0.29	Control	0.6720999999999999	0.004	Yes	2.677	-0.004	1.0	GoodResponse	0	0.226	572.495	10	60	Target	Neutral	True
573.495	0.3	Control	0.6720999999999999	0.004	Yes	2.677	-0.004	1.0	GoodResponse	0	0.226	n/a	10	60	ButtonPress	Neutral	True
573.57	0.41	Control	0.6720999999999999	n/a	Yes	2.677	n/a	n/a	GoodResponse	0	n/a	n/a	10	60	Blank	Neutral	True
573.971	1.45	Control	0.6720999999999999	n/a	Yes	2.677	n/a	5.0	GoodResponse	0	0.044	573.015	10	60	Feedback	Neutral	True
575.426	2.677	Control	0.6720999999999999	n/a	Yes	2.677	n/a	n/a	GoodResponse	0	0.0	n/a	10	60	ISIslide	Neutral	True
578.117	0.25	Lose2	0.6774	0.0	Yes	2.983	0.017	n/a	GoodResponse	0	n/a	n/a	10	61	Cue	AvoidedLoss	True
578.368	4.0	Lose2	0.6774	0.0	Yes	2.983	0.001	n/a	GoodResponse	0	n/a	n/a	10	61	Fixation	AvoidedLoss	True
582.363	0.28	Lose2	0.6774	0.004	Yes	2.983	-0.004	1.0	GoodResponse	0	0.199	581.562	10	61	Target	AvoidedLoss	True
582.562	0.3	Lose2	0.6774	0.004	Yes	2.983	-0.004	1.0	GoodResponse	0	0.199	n/a	10	61	ButtonPress	AvoidedLoss	True
582.647	0.42	Lose2	0.6774	n/a	Yes	2.983	n/a	n/a	GoodResponse	0	n/a	n/a	10	61	Blank	AvoidedLoss	True
583.065	1.45	Lose2	0.6774	n/a	Yes	2.983	n/a	5.0	GoodResponse	0	0.023	582.088	10	61	Feedback	AvoidedLoss	True
584.519	2.983	Lose2	0.6774	n/a	Yes	2.983	n/a	n/a	GoodResponse	0	0.0	n/a	10	61	ISIslide	AvoidedLoss	True
587.528	0.25	Lose2	0.6825	0.0	Yes	2.872	0.028	n/a	GoodResponse	0	n/a	n/a	10	62	Cue	AvoidedLoss	True
587.779	3.9	Lose2	0.6825	0.0	Yes	2.872	0.001	n/a	GoodResponse	0	n/a	n/a	10	62	Fixation	AvoidedLoss	True
591.674	0.27	Lose2	0.6825	0.004	Yes	2.872	-0.004	1.0	GoodResponse	0	0.211	590.885	10	62	Target	AvoidedLoss	True
591.885	0.3	Lose2	0.6825	0.004	Yes	2.872	-0.004	1.0	GoodResponse	0	0.211	n/a	10	62	ButtonPress	AvoidedLoss	True
591.958	0.43	Lose2	0.6825	n/a	Yes	2.872	n/a	n/a	GoodResponse	0	n/a	n/a	10	62	Blank	AvoidedLoss	True
592.376	1.45	Lose2	0.6825	n/a	Yes	2.872	n/a	5.0	GoodResponse	0	0.029	591.405	10	62	Feedback	AvoidedLoss	True
593.831	2.872	Lose2	0.6825	n/a	Yes	2.872	n/a	n/a	GoodResponse	0	0.0	n/a	10	62	ISIslide	AvoidedLoss	True
596.722	0.25	Lose2	0.6875	0.001	Yes	2.628	0.022	n/a	GoodResponse	0	n/a	n/a	10	63	Cue	AvoidedLoss	True
596.973	4.05	Lose2	0.6875	0.0	Yes	2.628	0.001	n/a	GoodResponse	0	n/a	n/a	10	63	Fixation	AvoidedLoss	True
601.019	0.26	Lose2	0.6875	0.003	Yes	2.628	-0.003	1.0	GoodResponse	0	0.226	600.245	10	63	Target	AvoidedLoss	True
601.245	0.3	Lose2	0.6875	0.003	Yes	2.628	-0.003	1.0	GoodResponse	0	0.226	n/a	10	63	ButtonPress	AvoidedLoss	True
601.286	0.44	Lose2	0.6875	n/a	Yes	2.628	n/a	n/a	GoodResponse	0	n/a	n/a	10	63	Blank	AvoidedLoss	True
601.721	1.45	Lose2	0.6875	n/a	Yes	2.628	n/a	5.0	GoodResponse	0	0.001	600.722	10	63	Feedback	AvoidedLoss	True
603.175	2.628	Lose2	0.6875	n/a	Yes	2.628	n/a	n/a	GoodResponse	0	0.0	n/a	10	63	ISIslide	AvoidedLoss	True
605.816	0.25	Win2	0.6923	0.0	Yes	3.134	0.016	n/a	GoodResponse	1	n/a	n/a	11	64	Cue	Win	True
606.067	4.15	Win2	0.6923	0.0	Yes	3.134	0.001	n/a	GoodResponse	1	n/a	n/a	11	64	Fixation	Win	True
610.213	0.25	Win2	0.6923	0.003	Yes	3.134	-0.003	1.0	GoodResponse	1	0.182	609.395	11	64	Target	Win	True
610.395	0.3	Win2	0.6923	0.003	Yes	3.134	-0.003	1.0	GoodResponse	1	0.182	n/a	11	64	ButtonPress	Win	True
610.464	0.45	Win2	0.6923	n/a	Yes	3.134	n/a	n/a	GoodResponse	1	n/a	n/a	11	64	Blank	Win	True
610.915	1.45	Win2	0.6923	n/a	Yes	3.134	n/a	5.0	GoodResponse	1	0.026	609.941	11	64	Feedback	Win	True
612.369	3.134	Win2	0.6923	n/a	Yes	3.134	n/a	n/a	GoodResponse	1	0.0	n/a	11	64	ISIslide	Win	True
615.529	0.25	Control	0.6970000000000001	0.0	Yes	2.771	0.029	n/a	GoodResponse	0	n/a	n/a	11	65	Cue	Neutral	True
615.779	4.0	Control	0.6970000000000001	0.0	Yes	2.771	0.0	n/a	GoodResponse	0	n/a	n/a	11	65	Fixation	Neutral	True
619.775	0.24	Control	0.6970000000000001	0.004	Yes	2.771	-0.004	1.0	GoodResponse	0	0.192	618.967	11	65	Target	Neutral	True
619.967	0.3	Control	0.6970000000000001	0.004	Yes	2.771	-0.004	1.0	GoodResponse	0	0.192	n/a	11	65	ButtonPress	Neutral	True
620.025	0.46	Control	0.6970000000000001	n/a	Yes	2.771	n/a	n/a	GoodResponse	0	n/a	n/a	11	65	Blank	Neutral	True
620.477	1.45	Control	0.6970000000000001	n/a	Yes	2.771	n/a	5.0	GoodResponse	0	0.025	619.502	11	65	Feedback	Neutral	True
621.931	2.771	Control	0.6970000000000001	n/a	Yes	2.771	n/a	n/a	GoodResponse	0	0.0	n/a	11	65	ISIslide	Neutral	True
624.723	0.25	Win2	0.7015	0.0	Yes	2.777	0.023	n/a	GoodResponse	1	n/a	n/a	12	66	Cue	Win	True
624.974	3.9	Win2	0.7015	0.0	Yes	2.777	0.001	n/a	GoodResponse	1	n/a	n/a	12	66	Fixation	Win	True
628.869	0.23	Win2	0.7015	0.004	Yes	2.777	-0.004	1.0	GoodResponse	1	0.188	628.057	12	66	Target	Win	True
629.057	0.3	Win2	0.7015	0.004	Yes	2.777	-0.004	1.0	GoodResponse	1	0.188	n/a	12	66	ButtonPress	Win	True
629.103	0.47	Win2	0.7015	n/a	Yes	2.777	n/a	n/a	GoodResponse	1	n/a	n/a	12	66	Blank	Win	True
629.571	1.45	Win2	0.7015	n/a	Yes	2.777	n/a	5.0	GoodResponse	1	0.008	628.579	12	66	Feedback	Win	True
631.025	2.777	Win2	0.7015	n/a	Yes	2.777	n/a	n/a	GoodResponse	1	0.0	n/a	12	66	ISIslide	Win	True
633.817	0.25	Control	0.7059000000000001	0.0	Yes	2.733	0.017	n/a	GoodResponse	0	n/a	n/a	12	67	Cue	Neutral	True
634.067	3.95	Control	0.7059000000000001	0.0	Yes	2.733	0.0	n/a	GoodResponse	0	n/a	n/a	12	67	Fixation	Neutral	True
638.012	0.22	Control	0.7059000000000001	0.005	Yes	2.733	-0.005	1.0	GoodResponse	0	0.218	637.23	12	67	Target	Neutral	True
638.23	0.3	Control	0.7059000000000001	0.005	Yes	2.733	-0.005	1.0	GoodResponse	0	0.218	n/a	12	67	ButtonPress	Neutral	True
638.247	0.48	Control	0.7059000000000001	n/a	Yes	2.733	n/a	n/a	GoodResponse	0	n/a	n/a	12	67	Blank	Neutral	True
638.715	1.45	Control	0.7059000000000001	n/a	Yes	2.733	n/a	5.0	GoodResponse	0	0.031	637.746	12	67	Feedback	Neutral	True
640.169	2.733	Control	0.7059000000000001	n/a	Yes	2.733	n/a	n/a	GoodResponse	0	0.0	n/a	12	67	ISIslide	Neutral	True
642.927	0.25	Win2	0.7101000000000001	0.0	Yes	3.073	0.027	n/a	GoodResponse	1	n/a	n/a	13	68	Cue	Win	True
643.178	4.0	Win2	0.7101000000000001	0.0	Yes	3.073	0.001	n/a	GoodResponse	1	n/a	n/a	13	68	Fixation	Win	True
647.173	0.21	Win2	0.7101000000000001	0.004	Yes	3.073	-0.004	1.0	GoodResponse	1	0.196	646.369	13	68	Target	Win	True
647.369	0.3	Win2	0.7101000000000001	0.004	Yes	3.073	-0.004	1.0	GoodResponse	1	0.196	n/a	13	68	ButtonPress	Win	True
647.39	0.49	Win2	0.7101000000000001	n/a	Yes	3.073	n/a	n/a	GoodResponse	1	n/a	n/a	13	68	Blank	Win	True
647.875	1.45	Win2	0.7101000000000001	n/a	Yes	3.073	n/a	5.0	GoodResponse	1	0.041	646.916	13	68	Feedback	Win	True
649.33	3.073	Win2	0.7101000000000001	n/a	Yes	3.073	n/a	n/a	GoodResponse	1	0.0	n/a	13	68	ISIslide	Win	True
652.422	0.25	Win2	0.7143	0.0	Yes	3.228	0.022	n/a	GoodResponse	1	n/a	n/a	14	69	Cue	Win	True
652.673	3.95	Win2	0.7143	0.0	Yes	3.228	0.001	n/a	GoodResponse	1	n/a	n/a	14	69	Fixation	Win	True
656.618	0.2	Win2	0.7143	0.004	Yes	3.228	-0.004	1.0	GoodResponse	1	0.192	655.81	14	69	Target	Win	True
656.81	0.3	Win2	0.7143	0.004	Yes	3.228	-0.004	1.0	GoodResponse	1	0.192	n/a	14	69	ButtonPress	Win	True
656.819	0.5	Win2	0.7143	n/a	Yes	3.228	n/a	n/a	GoodResponse	1	n/a	n/a	14	69	Blank	Win	True
657.32	1.45	Win2	0.7143	n/a	Yes	3.228	n/a	5.0	GoodResponse	1	0.01	656.33	14	69	Feedback	Win	True
658.774	3.228	Win2	0.7143	n/a	Yes	3.228	n/a	n/a	GoodResponse	1	0.0	n/a	14	69	ISIslide	Win	True
662.018	0.25	Lose2	0.7042	0.0	No	3.032	0.018	n/a	NoResponse	-1	n/a	n/a	13	70	Cue	Loss	True
662.268	4.05	Lose2	0.7042	0.0	No	3.032	0.0	n/a	NoResponse	-1	n/a	n/a	13	70	Fixation	Loss	True
666.314	0.19	Lose2	0.7042	0.004	No	3.032	-0.004	1.0	NoResponse	-1	0.209	665.523	13	70	Target	Loss	True
666.514	0.51	Lose2	0.7042	n/a	No	3.032	n/a	n/a	NoResponse	-1	n/a	n/a	13	70	Blank	Loss	True
666.523	0.3	Lose2	0.7042	0.004	No	3.032	-0.004	1.0	NoResponse	-1	0.209	n/a	13	70	ButtonPress	Loss	True
667.016	1.45	Lose2	0.7042	n/a	No	3.032	n/a	5.0	NoResponse	-1	0.022	666.038	13	70	Feedback	Loss	True
668.47	3.032	Lose2	0.7042	n/a	No	3.032	n/a	n/a	NoResponse	-1	0.0	n/a	13	70	ISIslide	Loss	True
671.529	0.25	Win2	0.6944	0.0	No	2.721	0.029	1.0	NoResponse	0	0.246	670.775	13	71	Cue	MissedWin	False
671.775	0.3	Win2	0.6944	0.0	No	2.721	0.029	1.0	NoResponse	0	0.246	n/a	13	71	ButtonPress	MissedWin	False
671.78	4.05	Win2	0.6944	0.0	No	2.721	0.001	n/a	NoResponse	0	n/a	n/a	13	71	Fixation	MissedWin	False
675.825	0.18	Win2	0.6944	0.004	No	2.721	-0.004	1.0	NoResponse	0	0.219	675.044	13	71	Target	MissedWin	False
676.009	0.52	Win2	0.6944	n/a	No	2.721	n/a	n/a	NoResponse	0	n/a	n/a	13	71	Blank	MissedWin	False
676.044	0.3	Win2	0.6944	0.004	No	2.721	-0.004	1.0	NoResponse	0	0.219	n/a	13	71	ButtonPress	MissedWin	False
676.527	1.45	Win2	0.6944	n/a	No	2.721	n/a	5.0	NoResponse	0	0.023	675.55	13	71	Feedback	MissedWin	False
677.982	2.721	Win2	0.6944	n/a	No	2.721	n/a	n/a	NoResponse	0	0.0	n/a	13	71	ISIslide	MissedWin	False
680.723	0.25	Win2	0.6849	0.0	No	2.777	0.023	n/a	NoResponse	0	n/a	n/a	13	72	Cue	MissedWin	True
680.974	4.1	Win2	0.6849	0.0	No	2.777	0.001	n/a	NoResponse	0	n/a	n/a	13	72	Fixation	MissedWin	True
685.07	0.17	Win2	0.6849	0.003	No	2.777	-0.003	1.0	NoResponse	0	0.207	684.277	13	72	Target	MissedWin	True
685.254	0.53	Win2	0.6849	n/a	No	2.777	n/a	n/a	NoResponse	0	n/a	n/a	13	72	Blank	MissedWin	True
685.277	0.3	Win2	0.6849	0.003	No	2.777	-0.003	1.0	NoResponse	0	0.207	n/a	13	72	ButtonPress	MissedWin	True
685.772	1.45	Win2	0.6849	n/a	No	2.777	n/a	5.0	NoResponse	0	0.046	684.818	13	72	Feedback	MissedWin	True
687.226	2.777	Win2	0.6849	n/a	No	2.777	n/a	n/a	NoResponse	0	0.0	n/a	13	72	ISIslide	MissedWin	True
690.018	0.25	Win2	0.6757	0.0	No	2.682	0.018	n/a	NoResponse	0	n/a	n/a	13	73	Cue	MissedWin	True
690.269	4.0	Win2	0.6757	0.0	No	2.682	0.001	n/a	NoResponse	0	n/a	n/a	13	73	Fixation	MissedWin	True
694.264	0.16	Win2	0.6757	0.004	No	2.682	-0.004	1.0	NoResponse	0	0.174	693.438	13	73	Target	MissedWin	True
694.431	0.54	Win2	0.6757	n/a	No	2.682	n/a	n/a	NoResponse	0	n/a	n/a	13	73	Blank	MissedWin	True
694.438	0.3	Win2	0.6757	0.004	No	2.682	-0.004	1.0	NoResponse	0	0.174	n/a	13	73	ButtonPress	MissedWin	True
694.966	1.45	Win2	0.6757	n/a	No	2.682	n/a	5.0	NoResponse	0	0.022	693.988	13	73	Feedback	MissedWin	True
696.42	2.682	Win2	0.6757	n/a	No	2.682	n/a	n/a	NoResponse	0	0.0	n/a	13	73	ISIslide	MissedWin	True
699.128	0.25	Lose2	0.6667000000000001	0.0	No	2.622	0.028	n/a	NoResponse	-1	n/a	n/a	12	74	Cue	Loss	True
699.379	4.05	Lose2	0.6667000000000001	0.0	No	2.622	0.001	n/a	NoResponse	-1	n/a	n/a	12	74	Fixation	Loss	True
703.425	0.15	Lose2	0.6667000000000001	0.003	No	2.622	-0.003	1.0	NoResponse	-1	0.194	702.619	12	74	Target	Loss	True
703.575	0.55	Lose2	0.6667000000000001	n/a	No	2.622	n/a	n/a	NoResponse	-1	n/a	n/a	12	74	Blank	Loss	True
703.619	0.3	Lose2	0.6667000000000001	0.003	No	2.622	-0.003	1.0	NoResponse	-1	0.194	n/a	12	74	ButtonPress	Loss	True
704.127	1.45	Lose2	0.6667000000000001	n/a	No	2.622	n/a	5.0	NoResponse	-1	0.032	703.159	12	74	Feedback	Loss	True
705.581	2.622	Lose2	0.6667000000000001	n/a	No	2.622	n/a	n/a	NoResponse	-1	0.0	n/a	12	74	ISIslide	Loss	True
708.222	0.25	Lose2	0.6579	0.0	No	2.928	0.022	n/a	NoResponse	-1	n/a	n/a	11	75	Cue	Loss	True
708.473	3.95	Lose2	0.6579	0.0	No	2.928	0.001	n/a	NoResponse	-1	n/a	n/a	11	75	Fixation	Loss	True
712.418	0.15	Lose2	0.6579	0.004	No	2.928	-0.004	1.0	NoResponse	-1	0.168	711.586	11	75	Target	Loss	True
712.568	0.55	Lose2	0.6579	n/a	No	2.928	n/a	n/a	NoResponse	-1	n/a	n/a	11	75	Blank	Loss	True
712.586	0.3	Lose2	0.6579	0.004	No	2.928	-0.004	1.0	NoResponse	-1	0.168	n/a	11	75	ButtonPress	Loss	True
713.12	1.45	Lose2	0.6579	n/a	No	2.928	n/a	5.0	NoResponse	-1	0.015	712.135	11	75	Feedback	Loss	True
714.574	2.928	Lose2	0.6579	n/a	No	2.928	n/a	n/a	NoResponse	-1	0.0	n/a	11	75	ISIslide	Loss	True
717.517	0.25	Control	0.6494	0.0	No	3.233	0.017	n/a	NoResponse	0	n/a	n/a	11	76	Cue	Neutral	True
717.767	4.05	Control	0.6494	0.0	No	3.233	0.0	n/a	NoResponse	0	n/a	n/a	11	76	Fixation	Neutral	True
721.813	0.15	Control	0.6494	0.004	No	3.233	-0.004	1.0	NoResponse	0	0.181	720.994	11	76	Target	Neutral	True
721.963	0.55	Control	0.6494	n/a	No	3.233	n/a	n/a	NoResponse	0	n/a	n/a	11	76	Blank	Neutral	True
721.994	0.3	Control	0.6494	0.004	No	3.233	-0.004	1.0	NoResponse	0	0.181	n/a	11	76	ButtonPress	Neutral	True
722.515	1.45	Control	0.6494	n/a	No	3.233	n/a	5.0	NoResponse	0	0.034	721.549	11	76	Feedback	Neutral	True
723.969	3.233	Control	0.6494	n/a	No	3.233	n/a	n/a	NoResponse	0	0.0	n/a	11	76	ISIslide	Neutral	True
727.229	0.25	Lose2	0.6537999999999999	0.0	Yes	2.571	0.029	n/a	GoodResponse	0	n/a	n/a	11	77	Cue	AvoidedLoss	True
727.48	3.95	Lose2	0.6537999999999999	0.0	Yes	2.571	0.001	n/a	GoodResponse	0	n/a	n/a	11	77	Fixation	AvoidedLoss	True
731.425	0.16	Lose2	0.6537999999999999	0.004	Yes	2.571	-0.004	1.0	GoodResponse	0	0.104	730.529	11	77	Target	AvoidedLoss	True
731.529	0.3	Lose2	0.6537999999999999	0.004	Yes	2.571	-0.004	1.0	GoodResponse	0	0.104	n/a	11	77	ButtonPress	AvoidedLoss	True
731.592	0.54	Lose2	0.6537999999999999	n/a	Yes	2.571	n/a	n/a	GoodResponse	0	n/a	n/a	11	77	Blank	AvoidedLoss	True
732.127	1.45	Lose2	0.6537999999999999	n/a	Yes	2.571	n/a	5.0	GoodResponse	0	0.032	731.159	11	77	Feedback	AvoidedLoss	True
733.581	2.571	Lose2	0.6537999999999999	n/a	Yes	2.571	n/a	n/a	GoodResponse	0	0.0	n/a	11	77	ISIslide	AvoidedLoss	True
