onset	duration	cue_type	current_mean_accuracy	duration_error	is_hit	isi_adjusted	onset_delay	response	response_type	reward	rt	rt_time	total_reward	trial_number	trial_phase	trial_type	one_press
11.103	0.25	Control	1.0	0.0	Yes	2.947	0.003	n/a	GoodResponse	0	n/a	n/a	0	0	Cue	Neutral	True
11.353	3.85	Control	1.0	0.0	Yes	2.947	0.0	n/a	GoodResponse	0	n/a	n/a	0	0	Fixation	Neutral	True
15.215	0.4	Control	1.0	0.0	Yes	2.947	0.012	3.0	GoodResponse	0	0.267	14.482	0	0	Target	Neutral	True
15.482	0.3	Control	1.0	0.0	Yes	2.947	0.012	3.0	GoodResponse	0	0.267	n/a	0	0	ButtonPress	Neutral	True
15.599	0.3	Control	1.0	n/a	Yes	2.947	n/a	n/a	GoodResponse	0	n/a	n/a	0	0	Blank	Neutral	True
15.9	1.45	Control	1.0	n/a	Yes	2.947	n/a	5.0	GoodResponse	0	0.03	14.93	0	0	Feedback	Neutral	True
17.355	2.947	Control	1.0	n/a	Yes	2.947	n/a	n/a	GoodResponse	0	0.0	n/a	0	0	ISIslide	Neutral	True
20.38	0.25	Lose2	1.0	0.001	Yes	2.72	0.08	n/a	GoodResponse	0	n/a	n/a	0	1	Cue	AvoidedLoss	True
20.631	4.0	Lose2	1.0	0.0	Yes	2.72	0.001	n/a	GoodResponse	0	n/a	n/a	0	1	Fixation	AvoidedLoss	True
24.626	0.39	Lose2	1.0	0.004	Yes	2.72	-0.004	3.0	GoodResponse	0	0.232	23.858	0	1	Target	AvoidedLoss	True
24.858	0.3	Lose2	1.0	0.004	Yes	2.72	-0.004	3.0	GoodResponse	0	0.232	n/a	0	1	ButtonPress	AvoidedLoss	True
25.028	0.31	Lose2	1.0	n/a	Yes	2.72	n/a	n/a	GoodResponse	0	n/a	n/a	0	1	Blank	AvoidedLoss	True
25.329	1.45	Lose2	1.0	n/a	Yes	2.72	n/a	5.0	GoodResponse	0	0.015	24.344	0	1	Feedback	AvoidedLoss	True
26.783	2.72	Lose2	1.0	n/a	Yes	2.72	n/a	n/a	GoodResponse	0	0.0	n/a	0	1	ISIslide	AvoidedLoss	True
29.524	0.25	Control	1.0	0.001	Yes	2.576	0.024	n/a	GoodResponse	0	n/a	n/a	0	2	Cue	Neutral	True
29.775	4.1	Control	1.0	0.0	Yes	2.576	0.001	n/a	GoodResponse	0	n/a	n/a	0	2	Fixation	Neutral	True
33.871	0.38	Control	1.0	0.003	Yes	2.576	-0.003	3.0	GoodResponse	0	0.258	33.129	0	2	Target	Neutral	True
34.129	0.3	Control	1.0	0.003	Yes	2.576	-0.003	3.0	GoodResponse	0	0.258	n/a	0	2	ButtonPress	Neutral	True
34.255	0.32	Control	1.0	n/a	Yes	2.576	n/a	n/a	GoodResponse	0	n/a	n/a	0	2	Blank	Neutral	True
34.573	1.45	Control	1.0	n/a	Yes	2.576	n/a	5.0	GoodResponse	0	0.039	33.612	0	2	Feedback	Neutral	True
36.027	2.576	Control	1.0	n/a	Yes	2.576	n/a	n/a	GoodResponse	0	0.0	n/a	0	2	ISIslide	Neutral	True
38.635	0.25	Win2	1.0	0.0	Yes	2.815	0.035	n/a	GoodResponse	1	n/a	n/a	1	3	Cue	Win	True
38.886	3.95	Win2	1.0	0.0	Yes	2.815	0.001	n/a	GoodResponse	1	n/a	n/a	1	3	Fixation	Win	True
42.831	0.37	Win2	1.0	0.004	Yes	2.815	-0.004	3.0	GoodResponse	1	0.225	42.056	1	3	Target	Win	True
43.056	0.3	Win2	1.0	0.004	Yes	2.815	-0.004	3.0	GoodResponse	1	0.225	n/a	1	3	ButtonPress	Win	True
43.216	0.33	Win2	1.0	n/a	Yes	2.815	n/a	n/a	GoodResponse	1	n/a	n/a	1	3	Blank	Win	True
43.533	1.45	Win2	1.0	n/a	Yes	2.815	n/a	5.0	GoodResponse	1	0.007	42.54	1	3	Feedback	Win	True
44.987	2.815	Win2	1.0	n/a	Yes	2.815	n/a	n/a	GoodResponse	1	0.0	n/a	1	3	ISIslide	Win	True
47.829	0.25	Win2	1.0	0.0	Yes	3.271	0.029	n/a	GoodResponse	1	n/a	n/a	2	4	Cue	Win	True
48.08	4.0	Win2	1.0	0.0	Yes	3.271	0.001	n/a	GoodResponse	1	n/a	n/a	2	4	Fixation	Win	True
52.075	0.36	Win2	1.0	0.004	Yes	3.271	-0.004	3.0	GoodResponse	1	0.217	51.292	2	4	Target	Win	True
52.292	0.3	Win2	1.0	0.004	Yes	3.271	-0.004	3.0	GoodResponse	1	0.217	n/a	2	4	ButtonPress	Win	True
52.443	0.34	Win2	1.0	n/a	Yes	3.271	n/a	n/a	GoodResponse	1	n/a	n/a	2	4	Blank	Win	True
52.778	1.45	Win2	1.0	n/a	Yes	3.271	n/a	5.0	GoodResponse	1	0.029	51.807	2	4	Feedback	Win	True
54.232	3.271	Win2	1.0	n/a	Yes	3.271	n/a	n/a	GoodResponse	1	0.0	n/a	2	4	ISIslide	Win	True
57.525	0.25	Win2	1.0	0.0	Yes	2.775	0.025	n/a	GoodResponse	1	n/a	n/a	3	5	Cue	Win	True
57.776	4.0	Win2	1.0	0.0	Yes	2.775	0.001	n/a	GoodResponse	1	n/a	n/a	3	5	Fixation	Win	True
61.771	0.35	Win2	1.0	0.004	Yes	2.775	-0.004	3.0	GoodResponse	1	0.232	61.003	3	5	Target	Win	True
62.003	0.3	Win2	1.0	0.004	Yes	2.775	-0.004	3.0	GoodResponse	1	0.232	n/a	3	5	ButtonPress	Win	True
62.122	0.35	Win2	1.0	n/a	Yes	2.775	n/a	n/a	GoodResponse	1	n/a	n/a	3	5	Blank	Win	True
62.473	1.45	Win2	1.0	n/a	Yes	2.775	n/a	5.0	GoodResponse	1	0.042	61.515	3	5	Feedback	Win	True
63.928	2.775	Win2	1.0	n/a	Yes	2.775	n/a	n/a	GoodResponse	1	0.0	n/a	3	5	ISIslide	Win	True
66.719	0.25	Lose2	1.0	0.0	Yes	2.731	0.019	n/a	GoodResponse	0	n/a	n/a	3	6	Cue	AvoidedLoss	True
66.97	3.95	Lose2	1.0	0.0	Yes	2.731	0.001	n/a	GoodResponse	0	n/a	n/a	3	6	Fixation	AvoidedLoss	True
70.915	0.34	Lose2	1.0	0.004	Yes	2.731	-0.004	3.0	GoodResponse	0	0.231	70.146	3	6	Target	AvoidedLoss	True
71.146	0.3	Lose2	1.0	0.004	Yes	2.731	-0.004	3.0	GoodResponse	0	0.231	n/a	3	6	ButtonPress	AvoidedLoss	True
71.266	0.36	Lose2	1.0	n/a	Yes	2.731	n/a	n/a	GoodResponse	0	n/a	n/a	3	6	Blank	AvoidedLoss	True
71.617	1.45	Lose2	1.0	n/a	Yes	2.731	n/a	5.0	GoodResponse	0	0.02	70.637	3	6	Feedback	AvoidedLoss	True
73.072	2.731	Lose2	1.0	n/a	Yes	2.731	n/a	n/a	GoodResponse	0	0.0	n/a	3	6	ISIslide	AvoidedLoss	True
75.83	0.25	Lose2	1.0	0.0	Yes	4.02	0.03	n/a	GoodResponse	0	n/a	n/a	3	7	Cue	AvoidedLoss	True
76.081	4.05	Lose2	1.0	0.0	Yes	4.02	0.001	n/a	GoodResponse	0	n/a	n/a	3	7	Fixation	AvoidedLoss	True
80.126	0.33	Lose2	1.0	0.004	Yes	4.02	-0.004	3.0	GoodResponse	0	0.232	79.358	3	7	Target	AvoidedLoss	True
80.358	0.3	Lose2	1.0	0.004	Yes	4.02	-0.004	3.0	GoodResponse	0	0.232	n/a	3	7	ButtonPress	AvoidedLoss	True
80.461	0.37	Lose2	1.0	n/a	Yes	4.02	n/a	n/a	GoodResponse	0	n/a	n/a	3	7	Blank	AvoidedLoss	True
80.828	1.45	Lose2	1.0	n/a	Yes	4.02	n/a	5.0	GoodResponse	0	0.028	79.856	3	7	Feedback	AvoidedLoss	True
82.283	4.02	Lose2	1.0	n/a	Yes	4.02	n/a	n/a	GoodResponse	0	0.0	n/a	3	7	ISIslide	AvoidedLoss	True
86.328	0.25	Lose2	1.0	0.0	Yes	3.022	0.028	n/a	GoodResponse	0	n/a	n/a	3	8	Cue	AvoidedLoss	True
86.579	3.95	Lose2	1.0	0.0	Yes	3.022	0.001	n/a	GoodResponse	0	n/a	n/a	3	8	Fixation	AvoidedLoss	True
90.524	0.32	Lose2	1.0	0.004	Yes	3.022	-0.004	3.0	GoodResponse	0	0.27	89.794	3	8	Target	AvoidedLoss	True
90.794	0.3	Lose2	1.0	0.004	Yes	3.022	-0.004	3.0	GoodResponse	0	0.27	n/a	3	8	ButtonPress	AvoidedLoss	True
90.858	0.38	Lose2	1.0	n/a	Yes	3.022	n/a	n/a	GoodResponse	0	n/a	n/a	3	8	Blank	AvoidedLoss	True
91.226	1.45	Lose2	1.0	n/a	Yes	3.022	n/a	5.0	GoodResponse	0	0.021	90.247	3	8	Feedback	AvoidedLoss	True
92.681	3.022	Lose2	1.0	n/a	Yes	3.022	n/a	n/a	GoodResponse	0	0.0	n/a	3	8	ISIslide	AvoidedLoss	True
95.723	0.25	Lose2	1.0	0.0	Yes	3.127	0.023	n/a	GoodResponse	0	n/a	n/a	3	9	Cue	AvoidedLoss	True
95.974	3.95	Lose2	1.0	0.0	Yes	3.127	0.001	n/a	GoodResponse	0	n/a	n/a	3	9	Fixation	AvoidedLoss	True
99.919	0.31	Lose2	1.0	0.004	Yes	3.127	-0.004	3.0	GoodResponse	0	0.269	99.188	3	9	Target	AvoidedLoss	True
100.188	0.3	Lose2	1.0	0.004	Yes	3.127	-0.004	3.0	GoodResponse	0	0.269	n/a	3	9	ButtonPress	AvoidedLoss	True
100.237	0.39	Lose2	1.0	n/a	Yes	3.127	n/a	n/a	GoodResponse	0	n/a	n/a	3	9	Blank	AvoidedLoss	True
100.621	1.45	Lose2	1.0	n/a	Yes	3.127	n/a	5.0	GoodResponse	0	0.04	99.661	3	9	Feedback	AvoidedLoss	True
102.075	3.127	Lose2	1.0	n/a	Yes	3.127	n/a	n/a	GoodResponse	0	0.0	n/a	3	9	ISIslide	AvoidedLoss	True
105.218	0.25	Control	1.0	0.0	Yes	3.282	0.018	n/a	GoodResponse	0	n/a	n/a	3	10	Cue	Neutral	True
105.469	4.0	Control	1.0	0.0	Yes	3.282	0.001	n/a	GoodResponse	0	n/a	n/a	3	10	Fixation	Neutral	True
109.464	0.3	Control	1.0	0.004	Yes	3.282	-0.004	3.0	GoodResponse	0	0.194	108.658	3	10	Target	Neutral	True
109.658	0.3	Control	1.0	0.004	Yes	3.282	-0.004	3.0	GoodResponse	0	0.194	n/a	3	10	ButtonPress	Neutral	True
109.765	0.4	Control	1.0	n/a	Yes	3.282	n/a	n/a	GoodResponse	0	n/a	n/a	3	10	Blank	Neutral	True
110.166	1.45	Control	1.0	n/a	Yes	3.282	n/a	5.0	GoodResponse	0	0.007	109.173	3	10	Feedback	Neutral	True
111.621	3.282	Control	1.0	n/a	Yes	3.282	n/a	n/a	GoodResponse	0	0.0	n/a	3	10	ISIslide	Neutral	True
114.931	0.25	Lose2	1.0	0.0	Yes	2.719	0.031	n/a	GoodResponse	0	n/a	n/a	3	11	Cue	AvoidedLoss	True
115.181	4.05	Lose2	1.0	0.0	Yes	2.719	0.0	n/a	GoodResponse	0	n/a	n/a	3	11	Fixation	AvoidedLoss	True
119.227	0.29	Lose2	1.0	0.004	Yes	2.719	-0.004	3.0	GoodResponse	0	0.233	118.46	3	11	Target	AvoidedLoss	True
119.46	0.3	Lose2	1.0	0.004	Yes	2.719	-0.004	3.0	GoodResponse	0	0.233	n/a	3	11	ButtonPress	AvoidedLoss	True
119.528	0.41	Lose2	1.0	n/a	Yes	2.719	n/a	n/a	GoodResponse	0	n/a	n/a	3	11	Blank	AvoidedLoss	True
119.929	1.45	Lose2	1.0	n/a	Yes	2.719	n/a	5.0	GoodResponse	0	0.0	118.929	3	11	Feedback	AvoidedLoss	True
121.383	2.719	Lose2	1.0	n/a	Yes	2.719	n/a	n/a	GoodResponse	0	0.0	n/a	3	11	ISIslide	AvoidedLoss	True
124.125	0.25	Control	1.0	0.0	Yes	2.975	0.025	n/a	GoodResponse	0	n/a	n/a	3	12	Cue	Neutral	True
124.376	3.9	Control	1.0	0.0	Yes	2.975	0.001	n/a	GoodResponse	0	n/a	n/a	3	12	Fixation	Neutral	True
128.271	0.28	Control	1.0	0.004	Yes	2.975	-0.004	3.0	GoodResponse	0	0.233	127.504	3	12	Target	Neutral	True
128.504	0.3	Control	1.0	0.004	Yes	2.975	-0.004	3.0	GoodResponse	0	0.233	n/a	3	12	ButtonPress	Neutral	True
128.555	0.42	Control	1.0	n/a	Yes	2.975	n/a	n/a	GoodResponse	0	n/a	n/a	3	12	Blank	Neutral	True
128.973	1.45	Control	1.0	n/a	Yes	2.975	n/a	5.0	GoodResponse	0	0.029	128.002	3	12	Feedback	Neutral	True
130.427	2.975	Control	1.0	n/a	Yes	2.975	n/a	n/a	GoodResponse	0	0.0	n/a	3	12	ISIslide	Neutral	True
133.419	0.25	Control	1.0	0.001	Yes	2.781	0.019	n/a	GoodResponse	0	n/a	n/a	3	13	Cue	Neutral	True
133.67	4.0	Control	1.0	0.0	Yes	2.781	0.001	n/a	GoodResponse	0	n/a	n/a	3	13	Fixation	Neutral	True
137.666	0.27	Control	1.0	0.003	Yes	2.781	-0.003	3.0	GoodResponse	0	0.199	136.865	3	13	Target	Neutral	True
137.865	0.3	Control	1.0	0.003	Yes	2.781	-0.003	3.0	GoodResponse	0	0.199	n/a	3	13	ButtonPress	Neutral	True
137.95	0.43	Control	1.0	n/a	Yes	2.781	n/a	n/a	GoodResponse	0	n/a	n/a	3	13	Blank	Neutral	True
138.368	1.45	Control	1.0	n/a	Yes	2.781	n/a	5.0	GoodResponse	0	0.0	137.368	3	13	Feedback	Neutral	True
139.822	2.781	Control	1.0	n/a	Yes	2.781	n/a	n/a	GoodResponse	0	0.0	n/a	3	13	ISIslide	Neutral	True
142.63	0.25	Win2	1.0	0.0	Yes	2.67	0.03	n/a	GoodResponse	1	n/a	n/a	4	14	Cue	Win	True
142.881	4.1	Win2	1.0	0.0	Yes	2.67	0.001	n/a	GoodResponse	1	n/a	n/a	4	14	Fixation	Win	True
146.977	0.26	Win2	1.0	0.003	Yes	2.67	-0.003	3.0	GoodResponse	1	0.213	146.19	4	14	Target	Win	True
147.19	0.3	Win2	1.0	0.003	Yes	2.67	-0.003	3.0	GoodResponse	1	0.213	n/a	4	14	ButtonPress	Win	True
147.244	0.44	Win2	1.0	n/a	Yes	2.67	n/a	n/a	GoodResponse	1	n/a	n/a	4	14	Blank	Win	True
147.679	1.45	Win2	1.0	n/a	Yes	2.67	n/a	5.0	GoodResponse	1	0.006	146.685	4	14	Feedback	Win	True
149.133	2.67	Win2	1.0	n/a	Yes	2.67	n/a	n/a	GoodResponse	1	0.0	n/a	4	14	ISIslide	Win	True
151.825	0.25	Control	1.0	0.0	Yes	2.975	0.025	n/a	GoodResponse	0	n/a	n/a	4	15	Cue	Neutral	True
152.075	4.0	Control	1.0	0.0	Yes	2.975	0.0	n/a	GoodResponse	0	n/a	n/a	4	15	Fixation	Neutral	True
156.071	0.25	Control	1.0	0.004	Yes	2.975	-0.004	3.0	GoodResponse	0	0.234	155.305	4	15	Target	Neutral	True
156.305	0.3	Control	1.0	0.004	Yes	2.975	-0.004	3.0	GoodResponse	0	0.234	n/a	4	15	ButtonPress	Neutral	True
156.321	0.45	Control	1.0	n/a	Yes	2.975	n/a	n/a	GoodResponse	0	n/a	n/a	4	15	Blank	Neutral	True
156.773	1.45	Control	1.0	n/a	Yes	2.975	n/a	5.0	GoodResponse	0	0.034	155.807	4	15	Feedback	Neutral	True
158.227	2.975	Control	1.0	n/a	Yes	2.975	n/a	n/a	GoodResponse	0	0.0	n/a	4	15	ISIslide	Neutral	True
161.22	0.25	Win2	1.0	0.0	Yes	2.88	0.02	n/a	GoodResponse	1	n/a	n/a	5	16	Cue	Win	True
161.47	4.0	Win2	1.0	0.0	Yes	2.88	0.0	n/a	GoodResponse	1	n/a	n/a	5	16	Fixation	Win	True
165.466	0.24	Win2	1.0	0.004	Yes	2.88	-0.004	3.0	GoodResponse	1	0.221	164.687	5	16	Target	Win	True
165.687	0.3	Win2	1.0	0.004	Yes	2.88	-0.004	3.0	GoodResponse	1	0.221	n/a	5	16	ButtonPress	Win	True
165.716	0.46	Win2	1.0	n/a	Yes	2.88	n/a	n/a	GoodResponse	1	n/a	n/a	5	16	Blank	Win	True
166.168	1.45	Win2	1.0	n/a	Yes	2.88	n/a	5.0	GoodResponse	1	0.006	165.174	5	16	Feedback	Win	True
167.622	2.88	Win2	1.0	n/a	Yes	2.88	n/a	n/a	GoodResponse	1	0.0	n/a	5	16	ISIslide	Win	True
170.531	0.25	Lose2	0.9444	0.0	No	2.719	0.031	n/a	NoResponse	-1	n/a	n/a	4	17	Cue	Loss	True
170.782	3.95	Lose2	0.9444	0.0	No	2.719	0.001	n/a	NoResponse	-1	n/a	n/a	4	17	Fixation	Loss	True
174.727	0.23	Lose2	0.9444	0.004	No	2.719	-0.004	3.0	NoResponse	-1	0.251	173.978	4	17	Target	Loss	True
174.961	0.47	Lose2	0.9444	n/a	No	2.719	n/a	n/a	NoResponse	-1	n/a	n/a	4	17	Blank	Loss	True
174.978	0.3	Lose2	0.9444	0.004	No	2.719	-0.004	3.0	NoResponse	-1	0.251	n/a	4	17	ButtonPress	Loss	True
175.429	1.45	Lose2	0.9444	n/a	No	2.719	n/a	5.0	NoResponse	-1	0.013	174.442	4	17	Feedback	Loss	True
176.883	2.719	Lose2	0.9444	n/a	No	2.719	n/a	n/a	NoResponse	-1	0.0	n/a	4	17	ISIslide	Loss	True
179.625	0.25	Lose2	0.9473999999999999	0.0	Yes	2.725	0.025	n/a	GoodResponse	0	n/a	n/a	4	18	Cue	AvoidedLoss	True
179.875	4.05	Lose2	0.9473999999999999	0.001	Yes	2.725	0.0	n/a	GoodResponse	0	n/a	n/a	4	18	Fixation	AvoidedLoss	True
183.921	0.22	Lose2	0.9473999999999999	0.004	Yes	2.725	-0.004	3.0	GoodResponse	0	0.204	183.125	4	18	Target	AvoidedLoss	True
184.125	0.3	Lose2	0.9473999999999999	0.004	Yes	2.725	-0.004	3.0	GoodResponse	0	0.204	n/a	4	18	ButtonPress	AvoidedLoss	True
184.155	0.48	Lose2	0.9473999999999999	n/a	Yes	2.725	n/a	n/a	GoodResponse	0	n/a	n/a	4	18	Blank	AvoidedLoss	True
184.623	1.45	Lose2	0.9473999999999999	n/a	Yes	2.725	n/a	5.0	GoodResponse	0	0.038	183.661	4	18	Feedback	AvoidedLoss	True
186.077	2.725	Lose2	0.9473999999999999	n/a	Yes	2.725	n/a	n/a	GoodResponse	0	0.0	n/a	4	18	ISIslide	AvoidedLoss	True
188.819	0.25	Control	0.9	0.0	No	2.931	0.019	n/a	LatePress	0	n/a	n/a	4	19	Cue	Neutral	True
189.07	3.95	Control	0.9	0.0	No	2.931	0.001	n/a	LatePress	0	n/a	n/a	4	19	Fixation	Neutral	True
193.015	0.21	Control	0.9	0.004	No	2.931	-0.004	3.0	LatePress	0	0.217	192.232	4	19	Target	Neutral	True
193.232	0.49	Control	0.9	n/a	No	2.931	n/a	n/a	LatePress	0	n/a	n/a	4	19	Blank	Neutral	True
193.232	0.3	Control	0.9	0.004	No	2.931	-0.004	3.0	LatePress	0	0.217	n/a	4	19	ButtonPress	Neutral	True
193.717	1.45	Control	0.9	n/a	No	2.931	n/a	5.0	LatePress	0	0.017	192.734	4	19	Feedback	Neutral	True
195.171	2.931	Control	0.9	n/a	No	2.931	n/a	n/a	LatePress	0	0.0	n/a	4	19	ISIslide	Neutral	True
198.13	0.25	Control	0.8571	0.0	No	2.62	0.03	n/a	NoResponse	0	n/a	n/a	4	20	Cue	Neutral	True
198.381	4.05	Control	0.8571	0.0	No	2.62	0.001	n/a	NoResponse	0	n/a	n/a	4	20	Fixation	Neutral	True
202.426	0.2	Control	0.8571	0.004	No	2.62	-0.004	3.0	NoResponse	0	0.211	201.637	4	20	Target	Neutral	True
202.627	0.5	Control	0.8571	n/a	No	2.62	n/a	n/a	NoResponse	0	n/a	n/a	4	20	Blank	Neutral	True
202.637	0.3	Control	0.8571	0.004	No	2.62	-0.004	3.0	NoResponse	0	0.211	n/a	4	20	ButtonPress	Neutral	True
203.129	1.45	Control	0.8571	n/a	No	2.62	n/a	5.0	NoResponse	0	0.02	202.149	4	20	Feedback	Neutral	True
204.583	2.62	Control	0.8571	n/a	No	2.62	n/a	n/a	NoResponse	0	0.0	n/a	4	20	ISIslide	Neutral	True
207.224	0.25	Control	0.8181999999999999	0.0	No	2.776	0.024	n/a	NoResponse	0	n/a	n/a	4	21	Cue	Neutral	True
207.475	4.1	Control	0.8181999999999999	0.0	No	2.776	0.001	n/a	NoResponse	0	n/a	n/a	4	21	Fixation	Neutral	True
211.571	0.19	Control	0.8181999999999999	0.003	No	2.776	-0.003	3.0	NoResponse	0	0.207	210.778	4	21	Target	Neutral	True
211.771	0.51	Control	0.8181999999999999	n/a	No	2.776	n/a	n/a	NoResponse	0	n/a	n/a	4	21	Blank	Neutral	True
211.778	0.3	Control	0.8181999999999999	0.003	No	2.776	-0.003	3.0	NoResponse	0	0.207	n/a	4	21	ButtonPress	Neutral	True
212.273	1.45	Control	0.8181999999999999	n/a	No	2.776	n/a	5.0	NoResponse	0	0.046	211.319	4	21	Feedback	Neutral	True
213.727	2.776	Control	0.8181999999999999	n/a	No	2.776	n/a	n/a	NoResponse	0	0.0	n/a	4	21	ISIslide	Neutral	True
216.519	0.25	Control	0.7826000000000001	0.0	No	2.781	0.019	n/a	NoResponse	0	n/a	n/a	4	22	Cue	Neutral	True
216.769	4.0	Control	0.7826000000000001	0.001	No	2.781	0.0	n/a	NoResponse	0	n/a	n/a	4	22	Fixation	Neutral	True
220.765	0.18	Control	0.7826000000000001	0.004	No	2.781	-0.004	3.0	NoResponse	0	0.216	219.981	4	22	Target	Neutral	True
220.949	0.52	Control	0.7826000000000001	n/a	No	2.781	n/a	n/a	NoResponse	0	n/a	n/a	4	22	Blank	Neutral	True
220.981	0.3	Control	0.7826000000000001	0.004	No	2.781	-0.004	3.0	NoResponse	0	0.216	n/a	4	22	ButtonPress	Neutral	True
221.467	1.45	Control	0.7826000000000001	n/a	No	2.781	n/a	5.0	NoResponse	0	0.023	220.49	4	22	Feedback	Neutral	True
222.921	2.781	Control	0.7826000000000001	n/a	No	2.781	n/a	n/a	NoResponse	0	0.0	n/a	4	22	ISIslide	Neutral	True
225.73	0.25	Control	0.75	0.0	No	2.77	0.03	n/a	LatePress	0	n/a	n/a	4	23	Cue	Neutral	True
225.98	3.9	Control	0.75	0.001	No	2.77	0.0	n/a	LatePress	0	n/a	n/a	4	23	Fixation	Neutral	True
229.875	0.17	Control	0.75	0.005	No	2.77	-0.005	3.0	LatePress	0	0.181	229.056	4	23	Target	Neutral	True
230.056	0.3	Control	0.75	0.005	No	2.77	-0.005	3.0	LatePress	0	0.181	n/a	4	23	ButtonPress	Neutral	True
230.059	0.53	Control	0.75	n/a	No	2.77	n/a	n/a	LatePress	0	n/a	n/a	4	23	Blank	Neutral	True
230.578	1.45	Control	0.75	n/a	No	2.77	n/a	5.0	LatePress	0	0.034	229.612	4	23	Feedback	Neutral	True
232.032	2.77	Control	0.75	n/a	No	2.77	n/a	n/a	LatePress	0	0.0	n/a	4	23	ISIslide	Neutral	True
234.824	0.25	Win2	0.72	0.0	No	3.126	0.024	n/a	NoResponse	0	n/a	n/a	4	24	Cue	MissedWin	True
235.074	3.95	Win2	0.72	0.0	No	3.126	0.0	n/a	NoResponse	0	n/a	n/a	4	24	Fixation	MissedWin	True
239.02	0.16	Win2	0.72	0.004	No	3.126	-0.004	3.0	NoResponse	0	0.199	238.219	4	24	Target	MissedWin	True
239.187	0.54	Win2	0.72	n/a	No	3.126	n/a	n/a	NoResponse	0	n/a	n/a	4	24	Blank	MissedWin	True
239.219	0.3	Win2	0.72	0.004	No	3.126	-0.004	3.0	NoResponse	0	0.199	n/a	4	24	ButtonPress	MissedWin	True
239.722	1.45	Win2	0.72	n/a	No	3.126	n/a	5.0	NoResponse	0	0.012	238.734	4	24	Feedback	MissedWin	True
241.176	3.126	Win2	0.72	n/a	No	3.126	n/a	n/a	NoResponse	0	0.0	n/a	4	24	ISIslide	MissedWin	True
244.319	0.25	Win2	0.6923	0.0	No	3.081	0.019	n/a	NoResponse	0	n/a	n/a	4	25	Cue	MissedWin	True
244.57	4.0	Win2	0.6923	0.0	No	3.081	0.001	n/a	NoResponse	0	n/a	n/a	4	25	Fixation	MissedWin	True
248.565	0.15	Win2	0.6923	0.004	No	3.081	-0.004	3.0	NoResponse	0	0.19	247.755	4	25	Target	MissedWin	True
248.715	0.55	Win2	0.6923	n/a	No	3.081	n/a	n/a	NoResponse	0	n/a	n/a	4	25	Blank	MissedWin	True
248.755	0.3	Win2	0.6923	0.004	No	3.081	-0.004	3.0	NoResponse	0	0.19	n/a	4	25	ButtonPress	MissedWin	True
249.267	1.45	Win2	0.6923	n/a	No	3.081	n/a	5.0	NoResponse	0	0.029	248.296	4	25	Feedback	MissedWin	True
250.721	3.081	Win2	0.6923	n/a	No	3.081	n/a	n/a	NoResponse	0	0.0	n/a	4	25	ISIslide	MissedWin	True
253.831	0.25	Win2	0.6667000000000001	0.0	No	2.919	0.031	n/a	NoResponse	0	n/a	n/a	4	26	Cue	MissedWin	False
254.081	3.95	Win2	0.6667000000000001	0.0	No	2.919	0.0	3.0	NoResponse	0	3.8	256.881	4	26	Fixation	MissedWin	False
257.881	0.3	Win2	0.6667000000000001	0.0	No	2.919	0.0	3.0	NoResponse	0	3.8	n/a	4	26	ButtonPress	MissedWin	False
258.027	0.15	Win2	0.6667000000000001	0.004	No	2.919	-0.004	3.0	NoResponse	0	0.623	257.65	4	26	Target	MissedWin	False
258.177	0.55	Win2	0.6667000000000001	n/a	No	2.919	n/a	n/a	NoResponse	0	n/a	n/a	4	26	Blank	MissedWin	False
258.65	0.3	Win2	0.6667000000000001	0.004	No	2.919	-0.004	3.0	NoResponse	0	0.623	n/a	4	26	ButtonPress	MissedWin	False
258.729	1.45	Win2	0.6667000000000001	n/a	No	2.919	n/a	5.0	NoResponse	0	0.029	257.758	4	26	Feedback	MissedWin	False
260.183	2.919	Win2	0.6667000000000001	n/a	No	2.919	n/a	n/a	NoResponse	0	0.0	n/a	4	26	ISIslide	MissedWin	False
263.125	0.25	Lose2	0.6429	0.0	No	2.825	0.025	n/a	NoResponse	-1	n/a	n/a	3	27	Cue	Loss	True
263.376	4.05	Lose2	0.6429	0.0	No	2.825	0.001	n/a	NoResponse	-1	n/a	n/a	3	27	Fixation	Loss	True
267.421	0.15	Lose2	0.6429	0.004	No	2.825	-0.004	3.0	NoResponse	-1	0.224	266.645	3	27	Target	Loss	True
267.572	0.55	Lose2	0.6429	n/a	No	2.825	n/a	n/a	NoResponse	-1	n/a	n/a	3	27	Blank	Loss	True
267.645	0.3	Lose2	0.6429	0.004	No	2.825	-0.004	3.0	NoResponse	-1	0.224	n/a	3	27	ButtonPress	Loss	True
268.124	1.45	Lose2	0.6429	n/a	No	2.825	n/a	5.0	NoResponse	-1	0.0	267.124	3	27	Feedback	Loss	True
269.578	2.825	Lose2	0.6429	n/a	No	2.825	n/a	n/a	NoResponse	-1	0.0	n/a	3	27	ISIslide	Loss	True
272.42	0.25	Control	0.6207	0.0	No	2.83	0.02	n/a	NoResponse	0	n/a	n/a	3	28	Cue	Neutral	True
272.67	4.05	Control	0.6207	0.001	No	2.83	0.0	n/a	NoResponse	0	n/a	n/a	3	28	Fixation	Neutral	True
276.716	0.16	Control	0.6207	0.004	No	2.83	-0.004	3.0	NoResponse	0	0.187	275.903	3	28	Target	Neutral	True
276.883	0.54	Control	0.6207	n/a	No	2.83	n/a	n/a	NoResponse	0	n/a	n/a	3	28	Blank	Neutral	True
276.903	0.3	Control	0.6207	0.004	No	2.83	-0.004	3.0	NoResponse	0	0.187	n/a	3	28	ButtonPress	Neutral	True
277.418	1.45	Control	0.6207	n/a	No	2.83	n/a	5.0	NoResponse	0	0.023	276.441	3	28	Feedback	Neutral	True
278.872	2.83	Control	0.6207	n/a	No	2.83	n/a	n/a	NoResponse	0	0.0	n/a	3	28	ISIslide	Neutral	True
281.714	0.25	Lose2	0.6	0.0	No	2.836	0.014	n/a	NoResponse	-1	n/a	n/a	2	29	Cue	Loss	True
281.965	3.95	Lose2	0.6	0.0	No	2.836	0.001	n/a	NoResponse	-1	n/a	n/a	2	29	Fixation	Loss	True
285.91	0.17	Lose2	0.6	0.004	No	2.836	-0.004	3.0	NoResponse	-1	0.205	285.115	2	29	Target	Loss	True
286.094	0.53	Lose2	0.6	n/a	No	2.836	n/a	n/a	NoResponse	-1	n/a	n/a	2	29	Blank	Loss	True
286.115	0.3	Lose2	0.6	0.004	No	2.836	-0.004	3.0	NoResponse	-1	0.205	n/a	2	29	ButtonPress	Loss	True
286.612	1.45	Lose2	0.6	n/a	No	2.836	n/a	5.0	NoResponse	-1	0.049	285.661	2	29	Feedback	Loss	True
288.067	2.836	Lose2	0.6	n/a	No	2.836	n/a	n/a	NoResponse	-1	0.0	n/a	2	29	ISIslide	Loss	True
290.925	0.25	Win2	0.6129	0.0	Yes	2.775	0.025	n/a	GoodResponse	1	n/a	n/a	3	30	Cue	Win	True
291.176	3.9	Win2	0.6129	0.0	Yes	2.775	0.001	n/a	GoodResponse	1	n/a	n/a	3	30	Fixation	Win	True
295.071	0.18	Win2	0.6129	0.004	Yes	2.775	-0.004	3.0	GoodResponse	1	0.178	294.249	3	30	Target	Win	True
295.249	0.3	Win2	0.6129	0.004	Yes	2.775	-0.004	3.0	GoodResponse	1	0.178	n/a	3	30	ButtonPress	Win	True
295.255	0.52	Win2	0.6129	n/a	Yes	2.775	n/a	n/a	GoodResponse	1	n/a	n/a	3	30	Blank	Win	True
295.773	1.45	Win2	0.6129	n/a	Yes	2.775	n/a	5.0	GoodResponse	1	0.01	294.783	3	30	Feedback	Win	True
297.227	2.775	Win2	0.6129	n/a	Yes	2.775	n/a	n/a	GoodResponse	1	0.0	n/a	3	30	ISIslide	Win	True
300.019	0.25	Lose2	0.625	0.0	Yes	2.831	0.019	n/a	GoodResponse	0	n/a	n/a	3	31	Cue	AvoidedLoss	True
300.27	4.05	Lose2	0.625	0.0	Yes	2.831	0.001	n/a	GoodResponse	0	n/a	n/a	3	31	Fixation	AvoidedLoss	True
304.315	0.19	Lose2	0.625	0.004	Yes	2.831	-0.004	3.0	GoodResponse	0	0.186	303.501	3	31	Target	AvoidedLoss	True
304.501	0.3	Lose2	0.625	0.004	Yes	2.831	-0.004	3.0	GoodResponse	0	0.186	n/a	3	31	ButtonPress	AvoidedLoss	True
304.516	0.51	Lose2	0.625	n/a	Yes	2.831	n/a	n/a	GoodResponse	0	n/a	n/a	3	31	Blank	AvoidedLoss	True
305.018	1.45	Lose2	0.625	n/a	Yes	2.831	n/a	5.0	GoodResponse	0	0.033	304.051	3	31	Feedback	AvoidedLoss	True
306.472	2.831	Lose2	0.625	n/a	Yes	2.831	n/a	n/a	GoodResponse	0	0.0	n/a	3	31	ISIslide	AvoidedLoss	True
309.33	0.25	Lose2	0.6061	0.001	No	2.62	0.03	n/a	LatePress	-1	n/a	n/a	2	32	Cue	Loss	True
309.581	4.15	Lose2	0.6061	0.0	No	2.62	0.001	n/a	LatePress	-1	n/a	n/a	2	32	Fixation	Loss	True
313.727	0.2	Lose2	0.6061	0.003	No	2.62	-0.003	3.0	LatePress	-1	0.201	312.928	2	32	Target	Loss	True
313.928	0.5	Lose2	0.6061	n/a	No	2.62	n/a	n/a	LatePress	-1	n/a	n/a	2	32	Blank	Loss	True
313.928	0.3	Lose2	0.6061	0.003	No	2.62	-0.003	3.0	LatePress	-1	0.201	n/a	2	32	ButtonPress	Loss	True
314.429	1.45	Lose2	0.6061	n/a	No	2.62	n/a	5.0	LatePress	-1	0.037	313.466	2	32	Feedback	Loss	True
315.883	2.62	Lose2	0.6061	n/a	No	2.62	n/a	n/a	LatePress	-1	0.0	n/a	2	32	ISIslide	Loss	True
318.525	0.25	Win2	0.6175999999999999	0.0	Yes	2.675	0.025	n/a	GoodResponse	1	n/a	n/a	3	33	Cue	Win	True
318.775	4.0	Win2	0.6175999999999999	0.001	Yes	2.675	0.0	n/a	GoodResponse	1	n/a	n/a	3	33	Fixation	Win	True
322.771	0.21	Win2	0.6175999999999999	0.004	Yes	2.675	-0.004	3.0	GoodResponse	1	0.191	321.962	3	33	Target	Win	True
322.962	0.3	Win2	0.6175999999999999	0.004	Yes	2.675	-0.004	3.0	GoodResponse	1	0.191	n/a	3	33	ButtonPress	Win	True
322.988	0.49	Win2	0.6175999999999999	n/a	Yes	2.675	n/a	n/a	GoodResponse	1	n/a	n/a	3	33	Blank	Win	True
323.473	1.45	Win2	0.6175999999999999	n/a	Yes	2.675	n/a	5.0	GoodResponse	1	0.018	322.491	3	33	Feedback	Win	True
324.927	2.675	Win2	0.6175999999999999	n/a	Yes	2.675	n/a	n/a	GoodResponse	1	0.0	n/a	3	33	ISIslide	Win	True
327.619	0.25	Lose2	0.6	0.0	No	2.631	0.019	n/a	NoResponse	-1	n/a	n/a	2	34	Cue	Loss	True
327.869	4.05	Lose2	0.6	0.0	No	2.631	0.0	n/a	NoResponse	-1	n/a	n/a	2	34	Fixation	Loss	True
331.915	0.22	Lose2	0.6	0.004	No	2.631	-0.004	3.0	NoResponse	-1	0.248	331.163	2	34	Target	Loss	True
332.149	0.48	Lose2	0.6	n/a	No	2.631	n/a	n/a	NoResponse	-1	n/a	n/a	2	34	Blank	Loss	True
332.163	0.3	Lose2	0.6	0.004	No	2.631	-0.004	3.0	NoResponse	-1	0.248	n/a	2	34	ButtonPress	Loss	True
332.617	1.45	Lose2	0.6	n/a	No	2.631	n/a	5.0	NoResponse	-1	0.043	331.66	2	34	Feedback	Loss	True
334.071	2.631	Lose2	0.6	n/a	No	2.631	n/a	n/a	NoResponse	-1	0.0	n/a	2	34	ISIslide	Loss	True
336.729	0.25	Lose2	0.6111	0.0	Yes	2.671	0.029	n/a	GoodResponse	0	n/a	n/a	2	35	Cue	AvoidedLoss	True
336.98	4.0	Lose2	0.6111	0.0	Yes	2.671	0.001	n/a	GoodResponse	0	n/a	n/a	2	35	Fixation	AvoidedLoss	True
340.975	0.23	Lose2	0.6111	0.004	Yes	2.671	-0.004	3.0	GoodResponse	0	0.183	340.158	2	35	Target	AvoidedLoss	True
341.158	0.3	Lose2	0.6111	0.004	Yes	2.671	-0.004	3.0	GoodResponse	0	0.183	n/a	2	35	ButtonPress	AvoidedLoss	True
341.209	0.47	Lose2	0.6111	n/a	Yes	2.671	n/a	n/a	GoodResponse	0	n/a	n/a	2	35	Blank	AvoidedLoss	True
341.678	1.45	Lose2	0.6111	n/a	Yes	2.671	n/a	5.0	GoodResponse	0	0.007	340.685	2	35	Feedback	AvoidedLoss	True
343.132	2.671	Lose2	0.6111	n/a	Yes	2.671	n/a	n/a	GoodResponse	0	0.0	n/a	2	35	ISIslide	AvoidedLoss	True
345.823	0.25	Control	0.6215999999999999	0.0	Yes	2.677	0.023	n/a	GoodResponse	0	n/a	n/a	2	36	Cue	Neutral	True
346.074	4.0	Control	0.6215999999999999	0.0	Yes	2.677	0.001	n/a	GoodResponse	0	n/a	n/a	2	36	Fixation	Neutral	True
350.069	0.24	Control	0.6215999999999999	0.004	Yes	2.677	-0.004	3.0	GoodResponse	0	0.22	349.289	2	36	Target	Neutral	True
350.289	0.3	Control	0.6215999999999999	0.004	Yes	2.677	-0.004	3.0	GoodResponse	0	0.22	n/a	2	36	ButtonPress	Neutral	True
350.32	0.46	Control	0.6215999999999999	n/a	Yes	2.677	n/a	n/a	GoodResponse	0	n/a	n/a	2	36	Blank	Neutral	True
350.771	1.45	Control	0.6215999999999999	n/a	Yes	2.677	n/a	5.0	GoodResponse	0	0.036	349.807	2	36	Feedback	Neutral	True
352.226	2.677	Control	0.6215999999999999	n/a	Yes	2.677	n/a	n/a	GoodResponse	0	0.0	n/a	2	36	ISIslide	Neutral	True
354.917	0.25	Win2	0.6315999999999999	0.0	Yes	2.883	0.017	n/a	GoodResponse	1	n/a	n/a	3	37	Cue	Win	True
355.168	4.0	Win2	0.6315999999999999	0.0	Yes	2.883	0.001	n/a	GoodResponse	1	n/a	n/a	3	37	Fixation	Win	True
359.163	0.25	Win2	0.6315999999999999	0.004	Yes	2.883	-0.004	3.0	GoodResponse	1	0.216	358.379	3	37	Target	Win	True
359.379	0.3	Win2	0.6315999999999999	0.004	Yes	2.883	-0.004	3.0	GoodResponse	1	0.216	n/a	3	37	ButtonPress	Win	True
359.414	0.45	Win2	0.6315999999999999	n/a	Yes	2.883	n/a	n/a	GoodResponse	1	n/a	n/a	3	37	Blank	Win	True
359.865	1.45	Win2	0.6315999999999999	n/a	Yes	2.883	n/a	5.0	GoodResponse	1	0.015	358.88	3	37	Feedback	Win	True
361.32	2.883	Win2	0.6315999999999999	n/a	Yes	2.883	n/a	n/a	GoodResponse	1	0.0	n/a	3	37	ISIslide	Win	True
364.228	0.25	Lose2	0.6409999999999999	0.001	Yes	2.822	0.028	n/a	GoodResponse	0	n/a	n/a	3	38	Cue	AvoidedLoss	True
364.479	3.95	Lose2	0.6409999999999999	0.0	Yes	2.822	0.001	n/a	GoodResponse	0	n/a	n/a	3	38	Fixation	AvoidedLoss	True
368.424	0.26	Lose2	0.6409999999999999	0.004	Yes	2.822	-0.004	3.0	GoodResponse	0	0.193	367.617	3	38	Target	AvoidedLoss	True
368.617	0.3	Lose2	0.6409999999999999	0.004	Yes	2.822	-0.004	3.0	GoodResponse	0	0.193	n/a	3	38	ButtonPress	AvoidedLoss	True
368.692	0.44	Lose2	0.6409999999999999	n/a	Yes	2.822	n/a	n/a	GoodResponse	0	n/a	n/a	3	38	Blank	AvoidedLoss	True
369.127	1.45	Lose2	0.6409999999999999	n/a	Yes	2.822	n/a	5.0	GoodResponse	0	0.022	368.149	3	38	Feedback	AvoidedLoss	True
370.581	2.822	Lose2	0.6409999999999999	n/a	Yes	2.822	n/a	n/a	GoodResponse	0	0.0	n/a	3	38	ISIslide	AvoidedLoss	True
373.423	0.25	Win2	0.65	0.0	Yes	2.977	0.023	n/a	GoodResponse	1	n/a	n/a	4	39	Cue	Win	True
373.673	4.1	Win2	0.65	0.001	Yes	2.977	0.0	n/a	GoodResponse	1	n/a	n/a	4	39	Fixation	Win	True
377.769	0.27	Win2	0.65	0.004	Yes	2.977	-0.004	3.0	GoodResponse	1	0.209	376.978	4	39	Target	Win	True
377.978	0.3	Win2	0.65	0.004	Yes	2.977	-0.004	3.0	GoodResponse	1	0.209	n/a	4	39	ButtonPress	Win	True
378.053	0.43	Win2	0.65	n/a	Yes	2.977	n/a	n/a	GoodResponse	1	n/a	n/a	4	39	Blank	Win	True
378.471	1.45	Win2	0.65	n/a	Yes	2.977	n/a	5.0	GoodResponse	1	0.044	377.515	4	39	Feedback	Win	True
379.926	2.977	Win2	0.65	n/a	Yes	2.977	n/a	n/a	GoodResponse	1	0.0	n/a	4	39	ISIslide	Win	True
382.918	0.25	Win2	0.6585	0.0	Yes	2.732	0.018	n/a	GoodResponse	1	n/a	n/a	5	40	Cue	Win	True
383.169	3.95	Win2	0.6585	0.0	Yes	2.732	0.001	n/a	GoodResponse	1	n/a	n/a	5	40	Fixation	Win	True
387.114	0.28	Win2	0.6585	0.004	Yes	2.732	-0.004	3.0	GoodResponse	1	0.208	386.322	5	40	Target	Win	True
387.322	0.3	Win2	0.6585	0.004	Yes	2.732	-0.004	3.0	GoodResponse	1	0.208	n/a	5	40	ButtonPress	Win	True
387.398	0.42	Win2	0.6585	n/a	Yes	2.732	n/a	n/a	GoodResponse	1	n/a	n/a	5	40	Blank	Win	True
387.816	1.45	Win2	0.6585	n/a	Yes	2.732	n/a	5.0	GoodResponse	1	0.016	386.832	5	40	Feedback	Win	True
389.27	2.732	Win2	0.6585	n/a	Yes	2.732	n/a	n/a	GoodResponse	1	0.0	n/a	5	40	ISIslide	Win	True
392.029	0.25	Win2	0.6667000000000001	0.0	Yes	2.771	0.029	n/a	GoodResponse	1	n/a	n/a	6	41	Cue	Win	True
392.279	3.9	Win2	0.6667000000000001	0.0	Yes	2.771	0.0	n/a	GoodResponse	1	n/a	n/a	6	41	Fixation	Win	True
396.191	0.28	Win2	0.6667000000000001	0.0	Yes	2.771	0.012	3.0	GoodResponse	1	0.189	395.38	6	41	Target	Win	True
396.38	0.3	Win2	0.6667000000000001	0.0	Yes	2.771	0.012	3.0	GoodResponse	1	0.189	n/a	6	41	ButtonPress	Win	True
396.459	0.42	Win2	0.6667000000000001	n/a	Yes	2.771	n/a	n/a	GoodResponse	1	n/a	n/a	6	41	Blank	Win	True
396.876	1.45	Win2	0.6667000000000001	n/a	Yes	2.771	n/a	5.0	GoodResponse	1	0.029	395.905	6	41	Feedback	Win	True
398.331	2.771	Win2	0.6667000000000001	n/a	Yes	2.771	n/a	n/a	GoodResponse	1	0.0	n/a	6	41	ISIslide	Win	True
401.122	0.25	Control	0.6744	0.001	Yes	2.928	0.022	n/a	GoodResponse	0	n/a	n/a	6	42	Cue	Neutral	True
401.373	3.85	Control	0.6744	0.0	Yes	2.928	0.001	n/a	GoodResponse	0	n/a	n/a	6	42	Fixation	Neutral	True
405.218	0.27	Control	0.6744	0.004	Yes	2.928	-0.004	3.0	GoodResponse	0	0.233	404.451	6	42	Target	Neutral	True
405.451	0.3	Control	0.6744	0.004	Yes	2.928	-0.004	3.0	GoodResponse	0	0.233	n/a	6	42	ButtonPress	Neutral	True
405.502	0.43	Control	0.6744	n/a	Yes	2.928	n/a	n/a	GoodResponse	0	n/a	n/a	6	42	Blank	Neutral	True
405.92	1.45	Control	0.6744	n/a	Yes	2.928	n/a	5.0	GoodResponse	0	0.01	404.93	6	42	Feedback	Neutral	True
407.375	2.928	Control	0.6744	n/a	Yes	2.928	n/a	n/a	GoodResponse	0	0.0	n/a	6	42	ISIslide	Neutral	True
410.317	0.25	Win2	0.6818000000000001	0.0	Yes	3.183	0.017	n/a	GoodResponse	1	n/a	n/a	7	43	Cue	Win	True
410.567	4.0	Win2	0.6818000000000001	0.001	Yes	3.183	0.0	n/a	GoodResponse	1	n/a	n/a	7	43	Fixation	Win	True
414.563	0.26	Win2	0.6818000000000001	0.004	Yes	3.183	-0.004	3.0	GoodResponse	1	0.225	413.788	7	43	Target	Win	True
414.788	0.3	Win2	0.6818000000000001	0.004	Yes	3.183	-0.004	3.0	GoodResponse	1	0.225	n/a	7	43	ButtonPress	Win	True
414.83	0.44	Win2	0.6818000000000001	n/a	Yes	3.183	n/a	n/a	GoodResponse	1	n/a	n/a	7	43	Blank	Win	True
415.265	1.45	Win2	0.6818000000000001	n/a	Yes	3.183	n/a	5.0	GoodResponse	1	0.03	414.295	7	43	Feedback	Win	True
416.719	3.183	Win2	0.6818000000000001	n/a	Yes	3.183	n/a	n/a	GoodResponse	1	0.0	n/a	7	43	ISIslide	Win	True
419.929	0.25	Win2	0.6889	0.0	Yes	2.971	0.029	n/a	GoodResponse	1	n/a	n/a	8	44	Cue	Win	True
420.18	4.0	Win2	0.6889	0.0	Yes	2.971	0.001	n/a	GoodResponse	1	n/a	n/a	8	44	Fixation	Win	True
424.175	0.25	Win2	0.6889	0.004	Yes	2.971	-0.004	3.0	GoodResponse	1	0.219	423.394	8	44	Target	Win	True
424.394	0.3	Win2	0.6889	0.004	Yes	2.971	-0.004	3.0	GoodResponse	1	0.219	n/a	8	44	ButtonPress	Win	True
424.426	0.45	Win2	0.6889	n/a	Yes	2.971	n/a	n/a	GoodResponse	1	n/a	n/a	8	44	Blank	Win	True
424.877	1.45	Win2	0.6889	n/a	Yes	2.971	n/a	5.0	GoodResponse	1	0.027	423.904	8	44	Feedback	Win	True
426.331	2.971	Win2	0.6889	n/a	Yes	2.971	n/a	n/a	GoodResponse	1	0.0	n/a	8	44	ISIslide	Win	True
429.324	0.25	Control	0.6957	0.0	Yes	2.876	0.024	n/a	GoodResponse	0	n/a	n/a	8	45	Cue	Neutral	True
429.575	4.1	Control	0.6957	0.0	Yes	2.876	0.001	n/a	GoodResponse	0	n/a	n/a	8	45	Fixation	Neutral	True
433.67	0.24	Control	0.6957	0.004	Yes	2.876	-0.004	3.0	GoodResponse	0	0.199	432.869	8	45	Target	Neutral	True
433.869	0.3	Control	0.6957	0.004	Yes	2.876	-0.004	3.0	GoodResponse	0	0.199	n/a	8	45	ButtonPress	Neutral	True
433.921	0.46	Control	0.6957	n/a	Yes	2.876	n/a	n/a	GoodResponse	0	n/a	n/a	8	45	Blank	Neutral	True
434.372	1.45	Control	0.6957	n/a	Yes	2.876	n/a	5.0	GoodResponse	0	0.045	433.417	8	45	Feedback	Neutral	True
435.827	2.876	Control	0.6957	n/a	Yes	2.876	n/a	n/a	GoodResponse	0	0.0	n/a	8	45	ISIslide	Neutral	True
438.719	0.25	Lose2	0.7021	0.0	Yes	3.381	0.019	n/a	GoodResponse	0	n/a	n/a	8	46	Cue	AvoidedLoss	True
438.969	4.0	Lose2	0.7021	0.0	Yes	3.381	0.0	n/a	GoodResponse	0	n/a	n/a	8	46	Fixation	AvoidedLoss	True
442.965	0.23	Lose2	0.7021	0.004	Yes	3.381	-0.004	3.0	GoodResponse	0	0.194	442.159	8	46	Target	AvoidedLoss	True
443.159	0.3	Lose2	0.7021	0.004	Yes	3.381	-0.004	3.0	GoodResponse	0	0.194	n/a	8	46	ButtonPress	AvoidedLoss	True
443.199	0.47	Lose2	0.7021	n/a	Yes	3.381	n/a	n/a	GoodResponse	0	n/a	n/a	8	46	Blank	AvoidedLoss	True
443.667	1.45	Lose2	0.7021	n/a	Yes	3.381	n/a	5.0	GoodResponse	0	0.018	442.685	8	46	Feedback	AvoidedLoss	True
445.121	3.381	Lose2	0.7021	n/a	Yes	3.381	n/a	n/a	GoodResponse	0	0.0	n/a	8	46	ISIslide	AvoidedLoss	True
448.515	0.25	Lose2	0.7082999999999999	0.0	Yes	2.685	0.015	n/a	GoodResponse	0	n/a	n/a	8	47	Cue	AvoidedLoss	True
448.765	4.0	Lose2	0.7082999999999999	0.001	Yes	2.685	0.0	n/a	GoodResponse	0	n/a	n/a	8	47	Fixation	AvoidedLoss	True
452.761	0.22	Lose2	0.7082999999999999	0.004	Yes	2.685	-0.004	3.0	GoodResponse	0	0.204	451.965	8	47	Target	AvoidedLoss	True
452.965	0.3	Lose2	0.7082999999999999	0.004	Yes	2.685	-0.004	3.0	GoodResponse	0	0.204	n/a	8	47	ButtonPress	AvoidedLoss	True
452.995	0.48	Lose2	0.7082999999999999	n/a	Yes	2.685	n/a	n/a	GoodResponse	0	n/a	n/a	8	47	Blank	AvoidedLoss	True
453.463	1.45	Lose2	0.7082999999999999	n/a	Yes	2.685	n/a	5.0	GoodResponse	0	0.027	452.49	8	47	Feedback	AvoidedLoss	True
454.917	2.685	Lose2	0.7082999999999999	n/a	Yes	2.685	n/a	n/a	GoodResponse	0	0.0	n/a	8	47	ISIslide	AvoidedLoss	True
457.625	0.25	Lose2	0.6939	0.0	No	3.025	0.025	n/a	NoResponse	-1	n/a	n/a	7	48	Cue	Loss	True
457.876	3.95	Lose2	0.6939	0.0	No	3.025	0.001	n/a	NoResponse	-1	n/a	n/a	7	48	Fixation	Loss	True
461.821	0.21	Lose2	0.6939	0.004	No	3.025	-0.004	3.0	NoResponse	-1	0.225	461.046	7	48	Target	Loss	True
462.039	0.49	Lose2	0.6939	n/a	No	3.025	n/a	n/a	NoResponse	-1	n/a	n/a	7	48	Blank	Loss	True
462.046	0.3	Lose2	0.6939	0.004	No	3.025	-0.004	3.0	NoResponse	-1	0.225	n/a	7	48	ButtonPress	Loss	True
462.523	1.45	Lose2	0.6939	n/a	No	3.025	n/a	5.0	NoResponse	-1	0.04	461.563	7	48	Feedback	Loss	True
463.978	3.025	Lose2	0.6939	n/a	No	3.025	n/a	n/a	NoResponse	-1	0.0	n/a	7	48	ISIslide	Loss	True
467.02	0.25	Control	0.7	0.0	Yes	2.88	0.02	n/a	GoodResponse	0	n/a	n/a	7	49	Cue	Neutral	True
467.271	4.0	Control	0.7	0.0	Yes	2.88	0.001	n/a	GoodResponse	0	n/a	n/a	7	49	Fixation	Neutral	True
471.266	0.2	Control	0.7	0.004	Yes	2.88	-0.004	3.0	GoodResponse	0	0.194	470.46	7	49	Target	Neutral	True
471.46	0.3	Control	0.7	0.004	Yes	2.88	-0.004	3.0	GoodResponse	0	0.194	n/a	7	49	ButtonPress	Neutral	True
471.467	0.5	Control	0.7	n/a	Yes	2.88	n/a	n/a	GoodResponse	0	n/a	n/a	7	49	Blank	Neutral	True
471.968	1.45	Control	0.7	n/a	Yes	2.88	n/a	5.0	GoodResponse	0	0.01	470.978	7	49	Feedback	Neutral	True
473.423	2.88	Control	0.7	n/a	Yes	2.88	n/a	n/a	GoodResponse	0	0.0	n/a	7	49	ISIslide	Neutral	True
476.315	0.25	Control	0.6862999999999999	0.0	No	2.785	0.015	n/a	NoResponse	0	n/a	n/a	7	50	Cue	Neutral	True
476.565	4.0	Control	0.6862999999999999	0.001	No	2.785	0.0	n/a	NoResponse	0	n/a	n/a	7	50	Fixation	Neutral	True
480.561	0.19	Control	0.6862999999999999	0.004	No	2.785	-0.004	3.0	NoResponse	0	0.211	479.772	7	50	Target	Neutral	True
480.761	0.51	Control	0.6862999999999999	n/a	No	2.785	n/a	n/a	NoResponse	0	n/a	n/a	7	50	Blank	Neutral	True
480.772	0.3	Control	0.6862999999999999	0.004	No	2.785	-0.004	3.0	NoResponse	0	0.211	n/a	7	50	ButtonPress	Neutral	True
481.263	1.45	Control	0.6862999999999999	n/a	No	2.785	n/a	5.0	NoResponse	0	0.033	480.296	7	50	Feedback	Neutral	True
482.717	2.785	Control	0.6862999999999999	n/a	No	2.785	n/a	n/a	NoResponse	0	0.0	n/a	7	50	ISIslide	Neutral	True
485.526	0.25	Control	0.6731	0.0	No	2.724	0.026	n/a	NoResponse	0	n/a	n/a	7	51	Cue	Neutral	True
485.776	3.95	Control	0.6731	0.001	No	2.724	0.0	n/a	NoResponse	0	n/a	n/a	7	51	Fixation	Neutral	True
489.722	0.18	Control	0.6731	0.004	No	2.724	-0.004	3.0	NoResponse	0	0.196	488.918	7	51	Target	Neutral	True
489.905	0.52	Control	0.6731	n/a	No	2.724	n/a	n/a	NoResponse	0	n/a	n/a	7	51	Blank	Neutral	True
489.918	0.3	Control	0.6731	0.004	No	2.724	-0.004	3.0	NoResponse	0	0.196	n/a	7	51	ButtonPress	Neutral	True
490.424	1.45	Control	0.6731	n/a	No	2.724	n/a	5.0	NoResponse	0	0.041	489.465	7	51	Feedback	Neutral	True
491.878	2.724	Control	0.6731	n/a	No	2.724	n/a	n/a	NoResponse	0	0.0	n/a	7	51	ISIslide	Neutral	True
494.62	0.25	Control	0.6604000000000001	0.0	No	2.63	0.02	n/a	NoResponse	0	n/a	n/a	7	52	Cue	Neutral	True
494.87	4.05	Control	0.6604000000000001	0.0	No	2.63	0.0	n/a	NoResponse	0	n/a	n/a	7	52	Fixation	Neutral	True
498.916	0.17	Control	0.6604000000000001	0.004	No	2.63	-0.004	3.0	NoResponse	0	0.207	498.123	7	52	Target	Neutral	True
499.1	0.53	Control	0.6604000000000001	n/a	No	2.63	n/a	n/a	NoResponse	0	n/a	n/a	7	52	Blank	Neutral	True
499.123	0.3	Control	0.6604000000000001	0.004	No	2.63	-0.004	3.0	NoResponse	0	0.207	n/a	7	52	ButtonPress	Neutral	True
499.618	1.45	Control	0.6604000000000001	n/a	No	2.63	n/a	5.0	NoResponse	0	0.018	498.636	7	52	Feedback	Neutral	True
501.072	2.63	Control	0.6604000000000001	n/a	No	2.63	n/a	n/a	NoResponse	0	0.0	n/a	7	52	ISIslide	Neutral	True
503.73	0.25	Win2	0.6481	0.0	No	2.92	0.03	n/a	NoResponse	0	n/a	n/a	7	53	Cue	MissedWin	True
503.981	4.05	Win2	0.6481	0.0	No	2.92	0.001	n/a	NoResponse	0	n/a	n/a	7	53	Fixation	MissedWin	True
508.027	0.17	Win2	0.6481	0.003	No	2.92	-0.003	3.0	NoResponse	0	0.226	507.253	7	53	Target	MissedWin	True
508.21	0.53	Win2	0.6481	n/a	No	2.92	n/a	n/a	NoResponse	0	n/a	n/a	7	53	Blank	MissedWin	True
508.253	0.3	Win2	0.6481	0.003	No	2.92	-0.003	3.0	NoResponse	0	0.226	n/a	7	53	ButtonPress	MissedWin	True
508.729	1.45	Win2	0.6481	n/a	No	2.92	n/a	5.0	NoResponse	0	0.029	507.758	7	53	Feedback	MissedWin	True
510.183	2.92	Win2	0.6481	n/a	No	2.92	n/a	n/a	NoResponse	0	0.0	n/a	7	53	ISIslide	MissedWin	True
513.125	0.25	Win2	0.6364	0.0	No	2.725	0.025	n/a	NoResponse	0	n/a	n/a	7	54	Cue	MissedWin	True
513.376	3.95	Win2	0.6364	0.0	No	2.725	0.001	n/a	NoResponse	0	n/a	n/a	7	54	Fixation	MissedWin	True
517.321	0.18	Win2	0.6364	0.004	No	2.725	-0.004	3.0	NoResponse	0	0.234	516.555	7	54	Target	MissedWin	True
517.505	0.52	Win2	0.6364	n/a	No	2.725	n/a	n/a	NoResponse	0	n/a	n/a	7	54	Blank	MissedWin	True
517.555	0.3	Win2	0.6364	0.004	No	2.725	-0.004	3.0	NoResponse	0	0.234	n/a	7	54	ButtonPress	MissedWin	True
518.023	1.45	Win2	0.6364	n/a	No	2.725	n/a	5.0	NoResponse	0	0.006	517.029	7	54	Feedback	MissedWin	True
519.478	2.725	Win2	0.6364	n/a	No	2.725	n/a	n/a	NoResponse	0	0.0	n/a	7	54	ISIslide	MissedWin	True
522.219	0.25	Control	0.6429	0.0	Yes	3.031	0.019	n/a	GoodResponse	0	n/a	n/a	7	55	Cue	Neutral	True
522.47	3.95	Control	0.6429	0.0	Yes	3.031	0.001	n/a	GoodResponse	0	n/a	n/a	7	55	Fixation	Neutral	True
526.415	0.19	Control	0.6429	0.004	Yes	3.031	-0.004	3.0	GoodResponse	0	0.185	525.6	7	55	Target	Neutral	True
526.6	0.3	Control	0.6429	0.004	Yes	3.031	-0.004	3.0	GoodResponse	0	0.185	n/a	7	55	ButtonPress	Neutral	True
526.616	0.51	Control	0.6429	n/a	Yes	3.031	n/a	n/a	GoodResponse	0	n/a	n/a	7	55	Blank	Neutral	True
527.117	1.45	Control	0.6429	n/a	Yes	3.031	n/a	5.0	GoodResponse	0	0.032	526.149	7	55	Feedback	Neutral	True
528.571	3.031	Control	0.6429	n/a	Yes	3.031	n/a	n/a	GoodResponse	0	0.0	n/a	7	55	ISIslide	Neutral	True
531.631	0.25	Control	0.6491	0.0	Yes	2.819	0.031	n/a	GoodResponse	0	n/a	n/a	7	56	Cue	Neutral	True
531.881	3.95	Control	0.6491	0.001	Yes	2.819	0.0	n/a	GoodResponse	0	n/a	n/a	7	56	Fixation	Neutral	True
535.827	0.2	Control	0.6491	0.004	Yes	2.819	-0.004	3.0	GoodResponse	0	0.187	535.014	7	56	Target	Neutral	True
536.014	0.3	Control	0.6491	0.004	Yes	2.819	-0.004	3.0	GoodResponse	0	0.187	n/a	7	56	ButtonPress	Neutral	True
536.027	0.5	Control	0.6491	n/a	Yes	2.819	n/a	n/a	GoodResponse	0	n/a	n/a	7	56	Blank	Neutral	True
536.529	1.45	Control	0.6491	n/a	Yes	2.819	n/a	5.0	GoodResponse	0	0.034	535.563	7	56	Feedback	Neutral	True
537.983	2.819	Control	0.6491	n/a	Yes	2.819	n/a	n/a	GoodResponse	0	0.0	n/a	7	56	ISIslide	Neutral	True
540.825	0.25	Control	0.6379	0.0	No	3.475	0.025	n/a	NoResponse	0	n/a	n/a	7	57	Cue	Neutral	True
541.076	4.0	Control	0.6379	0.0	No	3.475	0.001	n/a	NoResponse	0	n/a	n/a	7	57	Fixation	Neutral	True
545.071	0.21	Control	0.6379	0.004	No	3.475	-0.004	3.0	NoResponse	0	0.306	544.377	7	57	Target	Neutral	True
545.288	0.49	Control	0.6379	n/a	No	3.475	n/a	n/a	NoResponse	0	n/a	n/a	7	57	Blank	Neutral	True
545.377	0.3	Control	0.6379	0.004	No	3.475	-0.004	3.0	NoResponse	0	0.306	n/a	7	57	ButtonPress	Neutral	True
545.773	1.45	Control	0.6379	n/a	No	3.475	n/a	5.0	NoResponse	0	0.01	544.783	7	57	Feedback	Neutral	True
547.227	3.475	Control	0.6379	n/a	No	3.475	n/a	n/a	NoResponse	0	0.0	n/a	7	57	ISIslide	Neutral	True
550.721	0.25	Win2	0.6441	0.0	Yes	2.729	0.021	n/a	GoodResponse	1	n/a	n/a	8	58	Cue	Win	True
550.972	4.05	Win2	0.6441	0.0	Yes	2.729	0.001	n/a	GoodResponse	1	n/a	n/a	8	58	Fixation	Win	True
555.017	0.22	Win2	0.6441	0.004	Yes	2.729	-0.004	3.0	GoodResponse	1	0.202	554.219	8	58	Target	Win	True
555.219	0.3	Win2	0.6441	0.004	Yes	2.729	-0.004	3.0	GoodResponse	1	0.202	n/a	8	58	ButtonPress	Win	True
555.252	0.48	Win2	0.6441	n/a	Yes	2.729	n/a	n/a	GoodResponse	1	n/a	n/a	8	58	Blank	Win	True
555.72	1.45	Win2	0.6441	n/a	Yes	2.729	n/a	5.0	GoodResponse	1	0.014	554.734	8	58	Feedback	Win	True
557.174	2.729	Win2	0.6441	n/a	Yes	2.729	n/a	n/a	GoodResponse	1	0.0	n/a	8	58	ISIslide	Win	True
559.916	0.25	Lose2	0.65	0.0	Yes	2.684	0.016	n/a	GoodResponse	0	n/a	n/a	8	59	Cue	AvoidedLoss	True
560.166	4.0	Lose2	0.65	0.0	Yes	2.684	0.0	n/a	GoodResponse	0	n/a	n/a	8	59	Fixation	AvoidedLoss	True
564.162	0.23	Lose2	0.65	0.004	Yes	2.684	-0.004	3.0	GoodResponse	0	0.193	563.355	8	59	Target	AvoidedLoss	True
564.355	0.3	Lose2	0.65	0.004	Yes	2.684	-0.004	3.0	GoodResponse	0	0.193	n/a	8	59	ButtonPress	AvoidedLoss	True
564.396	0.47	Lose2	0.65	n/a	Yes	2.684	n/a	n/a	GoodResponse	0	n/a	n/a	8	59	Blank	AvoidedLoss	True
564.864	1.45	Lose2	0.65	n/a	Yes	2.684	n/a	5.0	GoodResponse	0	0.04	563.904	8	59	Feedback	AvoidedLoss	True
566.318	2.684	Lose2	0.65	n/a	Yes	2.684	n/a	n/a	GoodResponse	0	0.0	n/a	8	59	ISIslide	AvoidedLoss	True
569.026	0.25	Control	0.6557	0.0	Yes	2.674	0.026	n/a	GoodResponse	0	n/a	n/a	8	60	Cue	Neutral	True
569.277	4.0	Control	0.6557	0.0	Yes	2.674	0.001	n/a	GoodResponse	0	n/a	n/a	8	60	Fixation	Neutral	True
573.272	0.24	Control	0.6557	0.004	Yes	2.674	-0.004	3.0	GoodResponse	0	0.191	572.463	8	60	Target	Neutral	True
573.463	0.3	Control	0.6557	0.004	Yes	2.674	-0.004	3.0	GoodResponse	0	0.191	n/a	8	60	ButtonPress	Neutral	True
573.523	0.46	Control	0.6557	n/a	Yes	2.674	n/a	n/a	GoodResponse	0	n/a	n/a	8	60	Blank	Neutral	True
573.974	1.45	Control	0.6557	n/a	Yes	2.674	n/a	5.0	GoodResponse	0	0.006	572.98	8	60	Feedback	Neutral	True
575.429	2.674	Control	0.6557	n/a	Yes	2.674	n/a	n/a	GoodResponse	0	0.0	n/a	8	60	ISIslide	Neutral	True
578.12	0.25	Lose2	0.6452	0.0	No	2.98	0.02	n/a	LatePress	-1	n/a	n/a	7	61	Cue	Loss	True
578.371	4.0	Lose2	0.6452	0.0	No	2.98	0.001	n/a	LatePress	-1	n/a	n/a	7	61	Fixation	Loss	True
582.366	0.24	Lose2	0.6452	0.004	No	2.98	-0.004	3.0	LatePress	-1	0.247	581.613	7	61	Target	Loss	True
582.613	0.3	Lose2	0.6452	0.004	No	2.98	-0.004	3.0	LatePress	-1	0.247	n/a	7	61	ButtonPress	Loss	True
582.617	0.46	Lose2	0.6452	n/a	No	2.98	n/a	n/a	LatePress	-1	n/a	n/a	7	61	Blank	Loss	True
583.068	1.45	Lose2	0.6452	n/a	No	2.98	n/a	5.0	LatePress	-1	0.032	582.1	7	61	Feedback	Loss	True
584.523	2.98	Lose2	0.6452	n/a	No	2.98	n/a	n/a	LatePress	-1	0.0	n/a	7	61	ISIslide	Loss	True
587.515	0.25	Lose2	0.6507999999999999	0.0	Yes	2.885	0.015	n/a	GoodResponse	0	n/a	n/a	7	62	Cue	AvoidedLoss	True
587.766	3.9	Lose2	0.6507999999999999	0.0	Yes	2.885	0.001	n/a	GoodResponse	0	n/a	n/a	7	62	Fixation	AvoidedLoss	True
591.661	0.25	Lose2	0.6507999999999999	0.004	Yes	2.885	-0.004	3.0	GoodResponse	0	0.191	590.852	7	62	Target	AvoidedLoss	True
591.852	0.3	Lose2	0.6507999999999999	0.004	Yes	2.885	-0.004	3.0	GoodResponse	0	0.191	n/a	7	62	ButtonPress	AvoidedLoss	True
591.911	0.45	Lose2	0.6507999999999999	n/a	Yes	2.885	n/a	n/a	GoodResponse	0	n/a	n/a	7	62	Blank	AvoidedLoss	True
592.363	1.45	Lose2	0.6507999999999999	n/a	Yes	2.885	n/a	5.0	GoodResponse	0	0.006	591.369	7	62	Feedback	AvoidedLoss	True
593.817	2.885	Lose2	0.6507999999999999	n/a	Yes	2.885	n/a	n/a	GoodResponse	0	0.0	n/a	7	62	ISIslide	AvoidedLoss	True
596.726	0.25	Lose2	0.6562	0.0	Yes	2.624	0.026	n/a	GoodResponse	0	n/a	n/a	7	63	Cue	AvoidedLoss	True
596.977	4.05	Lose2	0.6562	0.0	Yes	2.624	0.001	n/a	GoodResponse	0	n/a	n/a	7	63	Fixation	AvoidedLoss	True
601.022	0.26	Lose2	0.6562	0.004	Yes	2.624	-0.004	3.0	GoodResponse	0	0.185	600.207	7	63	Target	AvoidedLoss	True
601.207	0.3	Lose2	0.6562	0.004	Yes	2.624	-0.004	3.0	GoodResponse	0	0.185	n/a	7	63	ButtonPress	AvoidedLoss	True
601.29	0.44	Lose2	0.6562	n/a	Yes	2.624	n/a	n/a	GoodResponse	0	n/a	n/a	7	63	Blank	AvoidedLoss	True
601.724	1.45	Lose2	0.6562	n/a	Yes	2.624	n/a	5.0	GoodResponse	0	0.01	600.734	7	63	Feedback	AvoidedLoss	True
603.179	2.624	Lose2	0.6562	n/a	Yes	2.624	n/a	n/a	GoodResponse	0	0.0	n/a	7	63	ISIslide	AvoidedLoss	True
605.82	0.25	Win2	0.6615000000000001	0.0	Yes	3.13	0.02	n/a	GoodResponse	1	n/a	n/a	8	64	Cue	Win	True
606.071	4.15	Win2	0.6615000000000001	0.0	Yes	3.13	0.001	n/a	GoodResponse	1	n/a	n/a	8	64	Fixation	Win	True
610.216	0.26	Win2	0.6615000000000001	0.004	Yes	3.13	-0.004	3.0	GoodResponse	1	0.195	609.411	8	64	Target	Win	True
610.411	0.3	Win2	0.6615000000000001	0.004	Yes	3.13	-0.004	3.0	GoodResponse	1	0.195	n/a	8	64	ButtonPress	Win	True
610.484	0.44	Win2	0.6615000000000001	n/a	Yes	3.13	n/a	n/a	GoodResponse	1	n/a	n/a	8	64	Blank	Win	True
610.919	1.45	Win2	0.6615000000000001	n/a	Yes	3.13	n/a	5.0	GoodResponse	1	0.035	609.954	8	64	Feedback	Win	True
612.373	3.13	Win2	0.6615000000000001	n/a	Yes	3.13	n/a	n/a	GoodResponse	1	0.0	n/a	8	64	ISIslide	Win	True
615.516	0.25	Control	0.6667000000000001	0.0	Yes	2.784	0.016	n/a	GoodResponse	0	n/a	n/a	8	65	Cue	Neutral	True
615.766	4.0	Control	0.6667000000000001	0.0	Yes	2.784	0.0	n/a	GoodResponse	0	n/a	n/a	8	65	Fixation	Neutral	True
619.762	0.26	Control	0.6667000000000001	0.004	Yes	2.784	-0.004	3.0	GoodResponse	0	0.214	618.976	8	65	Target	Neutral	True
619.976	0.3	Control	0.6667000000000001	0.004	Yes	2.784	-0.004	3.0	GoodResponse	0	0.214	n/a	8	65	ButtonPress	Neutral	True
620.029	0.44	Control	0.6667000000000001	n/a	Yes	2.784	n/a	n/a	GoodResponse	0	n/a	n/a	8	65	Blank	Neutral	True
620.464	1.45	Control	0.6667000000000001	n/a	Yes	2.784	n/a	5.0	GoodResponse	0	0.002	619.466	8	65	Feedback	Neutral	True
621.918	2.784	Control	0.6667000000000001	n/a	Yes	2.784	n/a	n/a	GoodResponse	0	0.0	n/a	8	65	ISIslide	Neutral	True
624.727	0.25	Win2	0.6716	0.0	Yes	2.773	0.027	n/a	GoodResponse	1	n/a	n/a	9	66	Cue	Win	True
624.977	3.9	Win2	0.6716	0.0	Yes	2.773	0.0	n/a	GoodResponse	1	n/a	n/a	9	66	Fixation	Win	True
628.889	0.25	Win2	0.6716	0.0	Yes	2.773	0.012	3.0	GoodResponse	1	0.212	628.101	9	66	Target	Win	True
629.101	0.3	Win2	0.6716	0.0	Yes	2.773	0.012	3.0	GoodResponse	1	0.212	n/a	9	66	ButtonPress	Win	True
629.123	0.45	Win2	0.6716	n/a	Yes	2.773	n/a	n/a	GoodResponse	1	n/a	n/a	9	66	Blank	Win	True
629.574	1.45	Win2	0.6716	n/a	Yes	2.773	n/a	5.0	GoodResponse	1	0.014	628.588	9	66	Feedback	Win	True
631.029	2.773	Win2	0.6716	n/a	Yes	2.773	n/a	n/a	GoodResponse	1	0.0	n/a	9	66	ISIslide	Win	True
633.821	0.25	Control	0.6618	0.0	No	2.729	0.021	n/a	NoResponse	0	n/a	n/a	9	67	Cue	Neutral	True
634.071	3.95	Control	0.6618	0.0	No	2.729	0.0	n/a	NoResponse	0	n/a	n/a	9	67	Fixation	Neutral	True
638.016	0.24	Control	0.6618	0.005	No	2.729	-0.005	3.0	NoResponse	0	0.275	637.291	9	67	Target	Neutral	True
638.267	0.46	Control	0.6618	n/a	No	2.729	n/a	n/a	NoResponse	0	n/a	n/a	9	67	Blank	Neutral	True
638.291	0.3	Control	0.6618	0.005	No	2.729	-0.005	3.0	NoResponse	0	0.275	n/a	9	67	ButtonPress	Neutral	True
638.719	1.45	Control	0.6618	n/a	No	2.729	n/a	5.0	NoResponse	0	0.039	637.758	9	67	Feedback	Neutral	True
640.173	2.729	Control	0.6618	n/a	No	2.729	n/a	n/a	NoResponse	0	0.0	n/a	9	67	ISIslide	Neutral	True
642.914	0.25	Win2	0.6667000000000001	0.001	Yes	3.086	0.014	n/a	GoodResponse	1	n/a	n/a	10	68	Cue	Win	True
643.165	4.0	Win2	0.6667000000000001	0.0	Yes	3.086	0.001	n/a	GoodResponse	1	n/a	n/a	10	68	Fixation	Win	True
647.161	0.24	Win2	0.6667000000000001	0.003	Yes	3.086	-0.003	3.0	GoodResponse	1	0.201	646.362	10	68	Target	Win	True
647.362	0.3	Win2	0.6667000000000001	0.003	Yes	3.086	-0.003	3.0	GoodResponse	1	0.201	n/a	10	68	ButtonPress	Win	True
647.411	0.46	Win2	0.6667000000000001	n/a	Yes	3.086	n/a	n/a	GoodResponse	1	n/a	n/a	10	68	Blank	Win	True
647.863	1.45	Win2	0.6667000000000001	n/a	Yes	3.086	n/a	5.0	GoodResponse	1	0.017	646.88	10	68	Feedback	Win	True
649.317	3.086	Win2	0.6667000000000001	n/a	Yes	3.086	n/a	n/a	GoodResponse	1	0.0	n/a	10	68	ISIslide	Win	True
652.426	0.25	Win2	0.6714	0.0	Yes	3.224	0.026	n/a	GoodResponse	1	n/a	n/a	11	69	Cue	Win	True
652.677	3.95	Win2	0.6714	0.0	Yes	3.224	0.001	n/a	GoodResponse	1	n/a	n/a	11	69	Fixation	Win	True
656.622	0.23	Win2	0.6714	0.004	Yes	3.224	-0.004	3.0	GoodResponse	1	0.19	655.812	11	69	Target	Win	True
656.812	0.3	Win2	0.6714	0.004	Yes	3.224	-0.004	3.0	GoodResponse	1	0.19	n/a	11	69	ButtonPress	Win	True
656.856	0.47	Win2	0.6714	n/a	Yes	3.224	n/a	n/a	GoodResponse	1	n/a	n/a	11	69	Blank	Win	True
657.324	1.45	Win2	0.6714	n/a	Yes	3.224	n/a	5.0	GoodResponse	1	0.019	656.343	11	69	Feedback	Win	True
658.779	3.224	Win2	0.6714	n/a	Yes	3.224	n/a	n/a	GoodResponse	1	0.0	n/a	11	69	ISIslide	Win	True
662.022	0.25	Lose2	0.6761	0.0	Yes	3.028	0.022	n/a	GoodResponse	0	n/a	n/a	11	70	Cue	AvoidedLoss	True
662.273	4.05	Lose2	0.6761	0.0	Yes	3.028	0.001	n/a	GoodResponse	0	n/a	n/a	11	70	Fixation	AvoidedLoss	True
666.318	0.22	Lose2	0.6761	0.004	Yes	3.028	-0.004	3.0	GoodResponse	0	0.154	665.472	11	70	Target	AvoidedLoss	True
666.472	0.3	Lose2	0.6761	0.004	Yes	3.028	-0.004	3.0	GoodResponse	0	0.154	n/a	11	70	ButtonPress	AvoidedLoss	True
666.552	0.48	Lose2	0.6761	n/a	Yes	3.028	n/a	n/a	GoodResponse	0	n/a	n/a	11	70	Blank	AvoidedLoss	True
667.02	1.45	Lose2	0.6761	n/a	Yes	3.028	n/a	5.0	GoodResponse	0	0.031	666.051	11	70	Feedback	AvoidedLoss	True
668.474	3.028	Lose2	0.6761	n/a	Yes	3.028	n/a	n/a	GoodResponse	0	0.0	n/a	11	70	ISIslide	AvoidedLoss	True
671.517	0.25	Win2	0.6667000000000001	0.0	No	2.733	0.017	n/a	NoResponse	0	n/a	n/a	11	71	Cue	MissedWin	True
671.768	4.05	Win2	0.6667000000000001	0.0	No	2.733	0.001	n/a	NoResponse	0	n/a	n/a	11	71	Fixation	MissedWin	True
675.813	0.21	Win2	0.6667000000000001	0.004	No	2.733	-0.004	3.0	NoResponse	0	0.226	675.039	11	71	Target	MissedWin	True
676.03	0.49	Win2	0.6667000000000001	n/a	No	2.733	n/a	n/a	NoResponse	0	n/a	n/a	11	71	Blank	MissedWin	True
676.039	0.3	Win2	0.6667000000000001	0.004	No	2.733	-0.004	3.0	NoResponse	0	0.226	n/a	11	71	ButtonPress	MissedWin	True
676.515	1.45	Win2	0.6667000000000001	n/a	No	2.733	n/a	5.0	NoResponse	0	0.048	675.563	11	71	Feedback	MissedWin	True
677.97	2.733	Win2	0.6667000000000001	n/a	No	2.733	n/a	n/a	NoResponse	0	0.0	n/a	11	71	ISIslide	MissedWin	True
680.728	0.25	Win2	0.6712	0.0	Yes	2.772	0.028	n/a	GoodResponse	1	n/a	n/a	12	72	Cue	Win	True
680.979	4.1	Win2	0.6712	0.0	Yes	2.772	0.001	n/a	GoodResponse	1	n/a	n/a	12	72	Fixation	Win	True
685.074	0.2	Win2	0.6712	0.004	Yes	2.772	-0.004	3.0	GoodResponse	1	0.198	684.272	12	72	Target	Win	True
685.272	0.3	Win2	0.6712	0.004	Yes	2.772	-0.004	3.0	GoodResponse	1	0.198	n/a	12	72	ButtonPress	Win	True
685.275	0.5	Win2	0.6712	n/a	Yes	2.772	n/a	n/a	GoodResponse	1	n/a	n/a	12	72	Blank	Win	True
685.776	1.45	Win2	0.6712	n/a	Yes	2.772	n/a	5.0	GoodResponse	1	0.007	684.783	12	72	Feedback	Win	True
687.231	2.772	Win2	0.6712	n/a	Yes	2.772	n/a	n/a	GoodResponse	1	0.0	n/a	12	72	ISIslide	Win	True
690.022	0.25	Win2	0.6622	0.001	No	2.678	0.022	n/a	NoResponse	0	n/a	n/a	12	73	Cue	MissedWin	True
690.273	4.0	Win2	0.6622	0.0	No	2.678	0.001	n/a	NoResponse	0	n/a	n/a	12	73	Fixation	MissedWin	True
694.269	0.19	Win2	0.6622	0.003	No	2.678	-0.003	3.0	NoResponse	0	0.268	693.537	12	73	Target	MissedWin	True
694.469	0.51	Win2	0.6622	n/a	No	2.678	n/a	n/a	NoResponse	0	n/a	n/a	12	73	Blank	MissedWin	True
694.537	0.3	Win2	0.6622	0.003	No	2.678	-0.003	3.0	NoResponse	0	0.268	n/a	12	73	ButtonPress	MissedWin	True
694.971	1.45	Win2	0.6622	n/a	No	2.678	n/a	5.0	NoResponse	0	0.032	694.003	12	73	Feedback	MissedWin	True
696.425	2.678	Win2	0.6622	n/a	No	2.678	n/a	n/a	NoResponse	0	0.0	n/a	12	73	ISIslide	MissedWin	True
699.116	0.25	Lose2	0.6533	0.0	No	2.634	0.016	n/a	NoResponse	-1	n/a	n/a	11	74	Cue	Loss	True
699.367	4.05	Lose2	0.6533	0.0	No	2.634	0.001	n/a	NoResponse	-1	n/a	n/a	11	74	Fixation	Loss	True
703.413	0.19	Lose2	0.6533	0.003	No	2.634	-0.003	3.0	NoResponse	-1	0.224	702.637	11	74	Target	Loss	True
703.613	0.51	Lose2	0.6533	n/a	No	2.634	n/a	n/a	NoResponse	-1	n/a	n/a	11	74	Blank	Loss	True
703.637	0.3	Lose2	0.6533	0.003	No	2.634	-0.003	3.0	NoResponse	-1	0.224	n/a	11	74	ButtonPress	Loss	True
704.115	1.45	Lose2	0.6533	n/a	No	2.634	n/a	5.0	NoResponse	-1	0.01	703.125	11	74	Feedback	Loss	True
705.569	2.634	Lose2	0.6533	n/a	No	2.634	n/a	n/a	NoResponse	-1	0.0	n/a	11	74	ISIslide	Loss	True
708.227	0.25	Lose2	0.6579	0.0	Yes	2.923	0.027	n/a	GoodResponse	0	n/a	n/a	11	75	Cue	AvoidedLoss	True
708.478	3.95	Lose2	0.6579	0.0	Yes	2.923	0.001	n/a	GoodResponse	0	n/a	n/a	11	75	Fixation	AvoidedLoss	True
712.423	0.2	Lose2	0.6579	0.004	Yes	2.923	-0.004	3.0	GoodResponse	0	0.185	711.608	11	75	Target	AvoidedLoss	True
712.608	0.3	Lose2	0.6579	0.004	Yes	2.923	-0.004	3.0	GoodResponse	0	0.185	n/a	11	75	ButtonPress	AvoidedLoss	True
712.624	0.5	Lose2	0.6579	n/a	Yes	2.923	n/a	n/a	GoodResponse	0	n/a	n/a	11	75	Blank	AvoidedLoss	True
713.125	1.45	Lose2	0.6579	n/a	Yes	2.923	n/a	5.0	GoodResponse	0	0.023	712.148	11	75	Feedback	AvoidedLoss	True
714.579	2.923	Lose2	0.6579	n/a	Yes	2.923	n/a	n/a	GoodResponse	0	0.0	n/a	11	75	ISIslide	AvoidedLoss	True
717.522	0.25	Control	0.6494	0.0	No	3.228	0.022	n/a	NoResponse	0	n/a	n/a	11	76	Cue	Neutral	True
717.772	4.05	Control	0.6494	0.0	No	3.228	0.0	n/a	NoResponse	0	n/a	n/a	11	76	Fixation	Neutral	True
721.818	0.2	Control	0.6494	0.004	No	3.228	-0.004	3.0	NoResponse	0	0.269	721.087	11	76	Target	Neutral	True
722.018	0.5	Control	0.6494	n/a	No	3.228	n/a	n/a	NoResponse	0	n/a	n/a	11	76	Blank	Neutral	True
722.087	0.3	Control	0.6494	0.004	No	3.228	-0.004	3.0	NoResponse	0	0.269	n/a	11	76	ButtonPress	Neutral	True
722.52	1.45	Control	0.6494	n/a	No	3.228	n/a	5.0	NoResponse	0	0.043	721.563	11	76	Feedback	Neutral	True
723.974	3.228	Control	0.6494	n/a	No	3.228	n/a	n/a	NoResponse	0	0.0	n/a	11	76	ISIslide	Neutral	True
727.217	0.25	Lose2	0.6537999999999999	0.0	Yes	2.583	0.017	n/a	GoodResponse	0	n/a	n/a	11	77	Cue	AvoidedLoss	True
727.468	3.95	Lose2	0.6537999999999999	0.0	Yes	2.583	0.001	n/a	GoodResponse	0	n/a	n/a	11	77	Fixation	AvoidedLoss	True
731.413	0.21	Lose2	0.6537999999999999	0.004	Yes	2.583	-0.004	3.0	GoodResponse	0	0.195	730.608	11	77	Target	AvoidedLoss	True
731.608	0.3	Lose2	0.6537999999999999	0.004	Yes	2.583	-0.004	3.0	GoodResponse	0	0.195	n/a	11	77	ButtonPress	AvoidedLoss	True
731.631	0.49	Lose2	0.6537999999999999	n/a	Yes	2.583	n/a	n/a	GoodResponse	0	n/a	n/a	11	77	Blank	AvoidedLoss	True
732.115	1.45	Lose2	0.6537999999999999	n/a	Yes	2.583	n/a	5.0	GoodResponse	0	0.009	731.124	11	77	Feedback	AvoidedLoss	True
733.57	2.583	Lose2	0.6537999999999999	n/a	Yes	2.583	n/a	n/a	GoodResponse	0	0.0	n/a	11	77	ISIslide	AvoidedLoss	True
