onset	duration	cue_type	current_mean_accuracy	duration_error	is_hit	isi_adjusted	onset_delay	response	response_type	reward	rt	rt_time	total_reward	trial_number	trial_phase	trial_type	one_press
11.099	0.25	Control	1.0	0.0	Yes	2.951	-0.001	n/a	GoodResponse	0	n/a	n/a	0	0	Cue	Neutral	True
11.349	3.85	Control	1.0	0.0	Yes	2.951	0.0	n/a	GoodResponse	0	n/a	n/a	0	0	Fixation	Neutral	True
15.211	0.4	Control	1.0	0.0	Yes	2.951	0.012	4.0	GoodResponse	0	0.17	14.381	0	0	Target	Neutral	True
15.381	0.3	Control	1.0	0.0	Yes	2.951	0.012	4.0	GoodResponse	0	0.17	n/a	0	0	ButtonPress	Neutral	True
15.595	0.3	Control	1.0	n/a	Yes	2.951	n/a	n/a	GoodResponse	0	n/a	n/a	0	0	Blank	Neutral	True
15.896	1.45	Control	1.0	n/a	Yes	2.951	n/a	5.0	GoodResponse	0	0.03	14.926	0	0	Feedback	Neutral	True
17.351	2.951	Control	1.0	n/a	Yes	2.951	n/a	n/a	GoodResponse	0	0.0	n/a	0	0	ISIslide	Neutral	True
20.326	0.25	Lose2	1.0	0.0	Yes	2.774	0.026	n/a	GoodResponse	0	n/a	n/a	0	1	Cue	AvoidedLoss	True
20.577	4.0	Lose2	1.0	0.0	Yes	2.774	0.001	n/a	GoodResponse	0	n/a	n/a	0	1	Fixation	AvoidedLoss	True
24.572	0.39	Lose2	1.0	0.004	Yes	2.774	-0.004	4.0	GoodResponse	0	0.167	23.739	0	1	Target	AvoidedLoss	True
24.739	0.3	Lose2	1.0	0.004	Yes	2.774	-0.004	4.0	GoodResponse	0	0.167	n/a	0	1	ButtonPress	AvoidedLoss	True
24.973	0.31	Lose2	1.0	n/a	Yes	2.774	n/a	n/a	GoodResponse	0	n/a	n/a	0	1	Blank	AvoidedLoss	True
25.274	1.45	Lose2	1.0	n/a	Yes	2.774	n/a	5.0	GoodResponse	0	0.018	24.292	0	1	Feedback	AvoidedLoss	True
26.729	2.774	Lose2	1.0	n/a	Yes	2.774	n/a	n/a	GoodResponse	0	0.0	n/a	0	1	ISIslide	AvoidedLoss	True
29.52	0.25	Control	1.0	0.0	Yes	2.58	0.02	n/a	GoodResponse	0	n/a	n/a	0	2	Cue	Neutral	True
29.771	4.1	Control	1.0	0.0	Yes	2.58	0.001	n/a	GoodResponse	0	n/a	n/a	0	2	Fixation	Neutral	True
33.867	0.38	Control	1.0	0.003	Yes	2.58	-0.003	4.0	GoodResponse	0	0.149	33.016	0	2	Target	Neutral	True
34.016	0.3	Control	1.0	0.003	Yes	2.58	-0.003	4.0	GoodResponse	0	0.149	n/a	0	2	ButtonPress	Neutral	True
34.251	0.32	Control	1.0	n/a	Yes	2.58	n/a	n/a	GoodResponse	0	n/a	n/a	0	2	Blank	Neutral	True
34.569	1.45	Control	1.0	n/a	Yes	2.58	n/a	5.0	GoodResponse	0	0.039	33.608	0	2	Feedback	Neutral	True
36.023	2.58	Control	1.0	n/a	Yes	2.58	n/a	n/a	GoodResponse	0	0.0	n/a	0	2	ISIslide	Neutral	True
38.631	0.25	Win2	1.0	0.0	Yes	2.819	0.031	n/a	GoodResponse	1	n/a	n/a	1	3	Cue	Win	True
38.882	3.95	Win2	1.0	0.0	Yes	2.819	0.001	n/a	GoodResponse	1	n/a	n/a	1	3	Fixation	Win	True
42.827	0.37	Win2	1.0	0.004	Yes	2.819	-0.004	4.0	GoodResponse	1	0.168	41.995	1	3	Target	Win	True
42.995	0.3	Win2	1.0	0.004	Yes	2.819	-0.004	4.0	GoodResponse	1	0.168	n/a	1	3	ButtonPress	Win	True
43.211	0.33	Win2	1.0	n/a	Yes	2.819	n/a	n/a	GoodResponse	1	n/a	n/a	1	3	Blank	Win	True
43.529	1.45	Win2	1.0	n/a	Yes	2.819	n/a	5.0	GoodResponse	1	0.007	42.536	1	3	Feedback	Win	True
44.983	2.819	Win2	1.0	n/a	Yes	2.819	n/a	n/a	GoodResponse	1	0.0	n/a	1	3	ISIslide	Win	True
47.825	0.25	Win2	1.0	0.0	Yes	3.275	0.025	n/a	GoodResponse	1	n/a	n/a	2	4	Cue	Win	True
48.076	4.0	Win2	1.0	0.0	Yes	3.275	0.001	n/a	GoodResponse	1	n/a	n/a	2	4	Fixation	Win	True
52.071	0.36	Win2	1.0	0.004	Yes	3.275	-0.004	4.0	GoodResponse	1	0.145	51.216	2	4	Target	Win	True
52.216	0.3	Win2	1.0	0.004	Yes	3.275	-0.004	4.0	GoodResponse	1	0.145	n/a	2	4	ButtonPress	Win	True
52.439	0.34	Win2	1.0	n/a	Yes	3.275	n/a	n/a	GoodResponse	1	n/a	n/a	2	4	Blank	Win	True
52.773	1.45	Win2	1.0	n/a	Yes	3.275	n/a	5.0	GoodResponse	1	0.031	51.804	2	4	Feedback	Win	True
54.228	3.275	Win2	1.0	n/a	Yes	3.275	n/a	n/a	GoodResponse	1	0.0	n/a	2	4	ISIslide	Win	True
57.521	0.25	Win2	1.0	0.0	Yes	2.779	0.021	n/a	GoodResponse	1	n/a	n/a	3	5	Cue	Win	True
57.772	4.0	Win2	1.0	0.0	Yes	2.779	0.001	n/a	GoodResponse	1	n/a	n/a	3	5	Fixation	Win	True
61.767	0.35	Win2	1.0	0.004	Yes	2.779	-0.004	4.0	GoodResponse	1	0.166	60.933	3	5	Target	Win	True
61.933	0.3	Win2	1.0	0.004	Yes	2.779	-0.004	4.0	GoodResponse	1	0.166	n/a	3	5	ButtonPress	Win	True
62.118	0.35	Win2	1.0	n/a	Yes	2.779	n/a	n/a	GoodResponse	1	n/a	n/a	3	5	Blank	Win	True
62.469	1.45	Win2	1.0	n/a	Yes	2.779	n/a	5.0	GoodResponse	1	0.042	61.511	3	5	Feedback	Win	True
63.923	2.779	Win2	1.0	n/a	Yes	2.779	n/a	n/a	GoodResponse	1	0.0	n/a	3	5	ISIslide	Win	True
66.732	0.25	Lose2	1.0	0.0	Yes	2.718	0.032	n/a	GoodResponse	0	n/a	n/a	3	6	Cue	AvoidedLoss	True
66.982	3.95	Lose2	1.0	0.001	Yes	2.718	0.0	n/a	GoodResponse	0	n/a	n/a	3	6	Fixation	AvoidedLoss	True
70.928	0.34	Lose2	1.0	0.004	Yes	2.718	-0.004	4.0	GoodResponse	0	0.213	70.141	3	6	Target	AvoidedLoss	True
71.141	0.3	Lose2	1.0	0.004	Yes	2.718	-0.004	4.0	GoodResponse	0	0.213	n/a	3	6	ButtonPress	AvoidedLoss	True
71.279	0.36	Lose2	1.0	n/a	Yes	2.718	n/a	n/a	GoodResponse	0	n/a	n/a	3	6	Blank	AvoidedLoss	True
71.63	1.45	Lose2	1.0	n/a	Yes	2.718	n/a	5.0	GoodResponse	0	0.008	70.638	3	6	Feedback	AvoidedLoss	True
73.084	2.718	Lose2	1.0	n/a	Yes	2.718	n/a	n/a	GoodResponse	0	0.0	n/a	3	6	ISIslide	AvoidedLoss	True
75.826	0.25	Lose2	1.0	0.0	Yes	4.024	0.026	n/a	GoodResponse	0	n/a	n/a	3	7	Cue	AvoidedLoss	True
76.076	4.05	Lose2	1.0	0.0	Yes	4.024	0.0	n/a	GoodResponse	0	n/a	n/a	3	7	Fixation	AvoidedLoss	True
80.122	0.33	Lose2	1.0	0.004	Yes	4.024	-0.004	4.0	GoodResponse	0	0.173	79.295	3	7	Target	AvoidedLoss	True
80.295	0.3	Lose2	1.0	0.004	Yes	4.024	-0.004	4.0	GoodResponse	0	0.173	n/a	3	7	ButtonPress	AvoidedLoss	True
80.456	0.37	Lose2	1.0	n/a	Yes	4.024	n/a	n/a	GoodResponse	0	n/a	n/a	3	7	Blank	AvoidedLoss	True
80.824	1.45	Lose2	1.0	n/a	Yes	4.024	n/a	5.0	GoodResponse	0	0.028	79.852	3	7	Feedback	AvoidedLoss	True
82.278	4.024	Lose2	1.0	n/a	Yes	4.024	n/a	n/a	GoodResponse	0	0.0	n/a	3	7	ISIslide	AvoidedLoss	True
86.324	0.25	Lose2	1.0	0.0	Yes	3.026	0.024	n/a	GoodResponse	0	n/a	n/a	3	8	Cue	AvoidedLoss	True
86.574	3.95	Lose2	1.0	0.001	Yes	3.026	0.0	n/a	GoodResponse	0	n/a	n/a	3	8	Fixation	AvoidedLoss	True
90.52	0.32	Lose2	1.0	0.004	Yes	3.026	-0.004	4.0	GoodResponse	0	0.163	89.683	3	8	Target	AvoidedLoss	True
90.683	0.3	Lose2	1.0	0.004	Yes	3.026	-0.004	4.0	GoodResponse	0	0.163	n/a	3	8	ButtonPress	AvoidedLoss	True
90.854	0.38	Lose2	1.0	n/a	Yes	3.026	n/a	n/a	GoodResponse	0	n/a	n/a	3	8	Blank	AvoidedLoss	True
91.222	1.45	Lose2	1.0	n/a	Yes	3.026	n/a	5.0	GoodResponse	0	0.02	90.242	3	8	Feedback	AvoidedLoss	True
92.676	3.026	Lose2	1.0	n/a	Yes	3.026	n/a	n/a	GoodResponse	0	0.0	n/a	3	8	ISIslide	AvoidedLoss	True
95.718	0.25	Lose2	1.0	0.001	Yes	3.132	0.018	n/a	GoodResponse	0	n/a	n/a	3	9	Cue	AvoidedLoss	True
95.969	3.95	Lose2	1.0	0.0	Yes	3.132	0.001	n/a	GoodResponse	0	n/a	n/a	3	9	Fixation	AvoidedLoss	True
99.914	0.31	Lose2	1.0	0.004	Yes	3.132	-0.004	4.0	GoodResponse	0	0.188	99.102	3	9	Target	AvoidedLoss	True
100.102	0.3	Lose2	1.0	0.004	Yes	3.132	-0.004	4.0	GoodResponse	0	0.188	n/a	3	9	ButtonPress	AvoidedLoss	True
100.232	0.39	Lose2	1.0	n/a	Yes	3.132	n/a	n/a	GoodResponse	0	n/a	n/a	3	9	Blank	AvoidedLoss	True
100.616	1.45	Lose2	1.0	n/a	Yes	3.132	n/a	5.0	GoodResponse	0	0.041	99.657	3	9	Feedback	AvoidedLoss	True
102.071	3.132	Lose2	1.0	n/a	Yes	3.132	n/a	n/a	GoodResponse	0	0.0	n/a	3	9	ISIslide	AvoidedLoss	True
105.23	0.25	Control	1.0	0.0	Yes	3.27	0.03	n/a	GoodResponse	0	n/a	n/a	3	10	Cue	Neutral	True
105.481	4.0	Control	1.0	0.0	Yes	3.27	0.001	n/a	GoodResponse	0	n/a	n/a	3	10	Fixation	Neutral	True
109.476	0.3	Control	1.0	0.004	Yes	3.27	-0.004	4.0	GoodResponse	0	0.173	108.649	3	10	Target	Neutral	True
109.649	0.3	Control	1.0	0.004	Yes	3.27	-0.004	4.0	GoodResponse	0	0.173	n/a	3	10	ButtonPress	Neutral	True
109.777	0.4	Control	1.0	n/a	Yes	3.27	n/a	n/a	GoodResponse	0	n/a	n/a	3	10	Blank	Neutral	True
110.178	1.45	Control	1.0	n/a	Yes	3.27	n/a	5.0	GoodResponse	0	0.04	109.218	3	10	Feedback	Neutral	True
111.633	3.27	Control	1.0	n/a	Yes	3.27	n/a	n/a	GoodResponse	0	0.0	n/a	3	10	ISIslide	Neutral	True
114.926	0.25	Lose2	1.0	0.0	Yes	2.724	0.026	n/a	GoodResponse	0	n/a	n/a	3	11	Cue	AvoidedLoss	True
115.177	4.05	Lose2	1.0	0.0	Yes	2.724	0.001	n/a	GoodResponse	0	n/a	n/a	3	11	Fixation	AvoidedLoss	True
119.222	0.29	Lose2	1.0	0.004	Yes	2.724	-0.004	4.0	GoodResponse	0	0.196	118.418	3	11	Target	AvoidedLoss	True
119.418	0.3	Lose2	1.0	0.004	Yes	2.724	-0.004	4.0	GoodResponse	0	0.196	n/a	3	11	ButtonPress	AvoidedLoss	True
119.523	0.41	Lose2	1.0	n/a	Yes	2.724	n/a	n/a	GoodResponse	0	n/a	n/a	3	11	Blank	AvoidedLoss	True
119.924	1.45	Lose2	1.0	n/a	Yes	2.724	n/a	5.0	GoodResponse	0	0.001	118.925	3	11	Feedback	AvoidedLoss	True
121.379	2.724	Lose2	1.0	n/a	Yes	2.724	n/a	n/a	GoodResponse	0	0.0	n/a	3	11	ISIslide	AvoidedLoss	True
124.12	0.25	Control	0.9231	0.0	No	2.98	0.02	n/a	PrematurePress	0	n/a	n/a	3	12	Cue	Neutral	True
124.371	3.9	Control	0.9231	0.0	No	2.98	0.001	n/a	PrematurePress	0	n/a	n/a	3	12	Fixation	Neutral	True
128.266	0.28	Control	0.9231	0.004	No	2.98	-0.004	4.0	PrematurePress	0	0.01	127.276	3	12	Target	Neutral	True
128.276	0.3	Control	0.9231	0.004	No	2.98	-0.004	4.0	PrematurePress	0	0.01	n/a	3	12	ButtonPress	Neutral	True
128.55	0.42	Control	0.9231	n/a	No	2.98	n/a	n/a	PrematurePress	0	n/a	n/a	3	12	Blank	Neutral	True
128.968	1.45	Control	0.9231	n/a	No	2.98	n/a	5.0	PrematurePress	0	0.03	127.998	3	12	Feedback	Neutral	True
130.422	2.98	Control	0.9231	n/a	No	2.98	n/a	n/a	PrematurePress	0	0.0	n/a	3	12	ISIslide	Neutral	True
133.415	0.25	Control	0.9286	0.0	Yes	2.785	0.015	n/a	GoodResponse	0	n/a	n/a	3	13	Cue	Neutral	True
133.665	4.0	Control	0.9286	0.0	Yes	2.785	0.0	n/a	GoodResponse	0	n/a	n/a	3	13	Fixation	Neutral	True
137.661	0.27	Control	0.9286	0.004	Yes	2.785	-0.004	4.0	GoodResponse	0	0.202	136.863	3	13	Target	Neutral	True
137.863	0.3	Control	0.9286	0.004	Yes	2.785	-0.004	4.0	GoodResponse	0	0.202	n/a	3	13	ButtonPress	Neutral	True
137.945	0.43	Control	0.9286	n/a	Yes	2.785	n/a	n/a	GoodResponse	0	n/a	n/a	3	13	Blank	Neutral	True
138.363	1.45	Control	0.9286	n/a	Yes	2.785	n/a	5.0	GoodResponse	0	0.001	137.364	3	13	Feedback	Neutral	True
139.817	2.785	Control	0.9286	n/a	Yes	2.785	n/a	n/a	GoodResponse	0	0.0	n/a	3	13	ISIslide	Neutral	True
142.626	0.25	Win2	0.9333	0.0	Yes	2.674	0.026	n/a	GoodResponse	1	n/a	n/a	4	14	Cue	Win	False
142.876	4.1	Win2	0.9333	0.0	Yes	2.674	0.0	4.0	GoodResponse	1	3.024	144.9	4	14	Fixation	Win	False
145.9	0.3	Win2	0.9333	0.0	Yes	2.674	0.0	4.0	GoodResponse	1	3.024	n/a	4	14	ButtonPress	Win	False
146.972	0.26	Win2	0.9333	0.004	Yes	2.674	-0.004	4.0	GoodResponse	1	0.218	146.19	4	14	Target	Win	False
147.19	0.3	Win2	0.9333	0.004	Yes	2.674	-0.004	4.0	GoodResponse	1	0.218	n/a	4	14	ButtonPress	Win	False
147.239	0.44	Win2	0.9333	n/a	Yes	2.674	n/a	n/a	GoodResponse	1	n/a	n/a	4	14	Blank	Win	False
147.674	1.45	Win2	0.9333	n/a	Yes	2.674	n/a	5.0	GoodResponse	1	0.007	146.681	4	14	Feedback	Win	False
149.128	2.674	Win2	0.9333	n/a	Yes	2.674	n/a	n/a	GoodResponse	1	0.0	n/a	4	14	ISIslide	Win	False
151.82	0.25	Control	0.875	0.0	No	2.98	0.02	n/a	NoResponse	0	n/a	n/a	4	15	Cue	Neutral	True
152.07	4.0	Control	0.875	0.001	No	2.98	0.0	n/a	NoResponse	0	n/a	n/a	4	15	Fixation	Neutral	True
156.066	0.25	Control	0.875	0.004	No	2.98	-0.004	4.0	NoResponse	0	0.276	155.342	4	15	Target	Neutral	True
156.317	0.45	Control	0.875	n/a	No	2.98	n/a	n/a	NoResponse	0	n/a	n/a	4	15	Blank	Neutral	True
156.342	0.3	Control	0.875	0.004	No	2.98	-0.004	4.0	NoResponse	0	0.276	n/a	4	15	ButtonPress	Neutral	True
156.768	1.45	Control	0.875	n/a	No	2.98	n/a	5.0	NoResponse	0	0.035	155.803	4	15	Feedback	Neutral	True
158.222	2.98	Control	0.875	n/a	No	2.98	n/a	n/a	NoResponse	0	0.0	n/a	4	15	ISIslide	Neutral	True
161.231	0.25	Win2	0.8824	0.0	Yes	2.869	0.031	n/a	GoodResponse	1	n/a	n/a	5	16	Cue	Win	True
161.482	4.0	Win2	0.8824	0.0	Yes	2.869	0.001	n/a	GoodResponse	1	n/a	n/a	5	16	Fixation	Win	True
165.477	0.24	Win2	0.8824	0.004	Yes	2.869	-0.004	4.0	GoodResponse	1	0.159	164.636	5	16	Target	Win	True
165.636	0.3	Win2	0.8824	0.004	Yes	2.869	-0.004	4.0	GoodResponse	1	0.159	n/a	5	16	ButtonPress	Win	True
165.728	0.46	Win2	0.8824	n/a	Yes	2.869	n/a	n/a	GoodResponse	1	n/a	n/a	5	16	Blank	Win	True
166.179	1.45	Win2	0.8824	n/a	Yes	2.869	n/a	5.0	GoodResponse	1	0.039	165.218	5	16	Feedback	Win	True
167.634	2.869	Win2	0.8824	n/a	Yes	2.869	n/a	n/a	GoodResponse	1	0.0	n/a	5	16	ISIslide	Win	True
170.526	0.25	Lose2	0.8889	0.0	Yes	2.724	0.026	n/a	GoodResponse	0	n/a	n/a	5	17	Cue	AvoidedLoss	True
170.776	3.95	Lose2	0.8889	0.001	Yes	2.724	0.0	n/a	GoodResponse	0	n/a	n/a	5	17	Fixation	AvoidedLoss	True
174.722	0.23	Lose2	0.8889	0.004	Yes	2.724	-0.004	4.0	GoodResponse	0	0.184	173.906	5	17	Target	AvoidedLoss	True
174.906	0.3	Lose2	0.8889	0.004	Yes	2.724	-0.004	4.0	GoodResponse	0	0.184	n/a	5	17	ButtonPress	AvoidedLoss	True
174.956	0.47	Lose2	0.8889	n/a	Yes	2.724	n/a	n/a	GoodResponse	0	n/a	n/a	5	17	Blank	AvoidedLoss	True
175.424	1.45	Lose2	0.8889	n/a	Yes	2.724	n/a	5.0	GoodResponse	0	0.013	174.437	5	17	Feedback	AvoidedLoss	True
176.878	2.724	Lose2	0.8889	n/a	Yes	2.724	n/a	n/a	GoodResponse	0	0.0	n/a	5	17	ISIslide	AvoidedLoss	True
179.62	0.25	Lose2	0.8946999999999999	0.0	Yes	2.73	0.02	n/a	GoodResponse	0	n/a	n/a	5	18	Cue	AvoidedLoss	True
179.87	4.05	Lose2	0.8946999999999999	0.0	Yes	2.73	0.0	n/a	GoodResponse	0	n/a	n/a	5	18	Fixation	AvoidedLoss	True
183.916	0.22	Lose2	0.8946999999999999	0.004	Yes	2.73	-0.004	4.0	GoodResponse	0	0.183	183.099	5	18	Target	AvoidedLoss	True
184.099	0.3	Lose2	0.8946999999999999	0.004	Yes	2.73	-0.004	4.0	GoodResponse	0	0.183	n/a	5	18	ButtonPress	AvoidedLoss	True
184.15	0.48	Lose2	0.8946999999999999	n/a	Yes	2.73	n/a	n/a	GoodResponse	0	n/a	n/a	5	18	Blank	AvoidedLoss	True
184.618	1.45	Lose2	0.8946999999999999	n/a	Yes	2.73	n/a	5.0	GoodResponse	0	0.038	183.656	5	18	Feedback	AvoidedLoss	True
186.072	2.73	Lose2	0.8946999999999999	n/a	Yes	2.73	n/a	n/a	GoodResponse	0	0.0	n/a	5	18	ISIslide	AvoidedLoss	True
188.831	0.25	Control	0.9	0.0	Yes	2.919	0.031	n/a	GoodResponse	0	n/a	n/a	5	19	Cue	Neutral	True
189.081	3.95	Control	0.9	0.0	Yes	2.919	0.0	n/a	GoodResponse	0	n/a	n/a	5	19	Fixation	Neutral	True
193.043	0.21	Control	0.9	0.0	Yes	2.919	0.012	4.0	GoodResponse	0	0.173	192.216	5	19	Target	Neutral	True
193.216	0.3	Control	0.9	0.0	Yes	2.919	0.012	4.0	GoodResponse	0	0.173	n/a	5	19	ButtonPress	Neutral	True
193.244	0.49	Control	0.9	n/a	Yes	2.919	n/a	n/a	GoodResponse	0	n/a	n/a	5	19	Blank	Neutral	True
193.729	1.45	Control	0.9	n/a	Yes	2.919	n/a	5.0	GoodResponse	0	0.0	192.729	5	19	Feedback	Neutral	True
195.183	2.919	Control	0.9	n/a	Yes	2.919	n/a	n/a	GoodResponse	0	0.0	n/a	5	19	ISIslide	Neutral	True
198.125	0.25	Control	0.9048	0.0	Yes	2.625	0.025	n/a	GoodResponse	0	n/a	n/a	5	20	Cue	Neutral	True
198.376	4.05	Control	0.9048	0.0	Yes	2.625	0.001	n/a	GoodResponse	0	n/a	n/a	5	20	Fixation	Neutral	True
202.421	0.2	Control	0.9048	0.004	Yes	2.625	-0.004	4.0	GoodResponse	0	0.182	201.603	5	20	Target	Neutral	True
202.603	0.3	Control	0.9048	0.004	Yes	2.625	-0.004	4.0	GoodResponse	0	0.182	n/a	5	20	ButtonPress	Neutral	True
202.622	0.5	Control	0.9048	n/a	Yes	2.625	n/a	n/a	GoodResponse	0	n/a	n/a	5	20	Blank	Neutral	True
203.123	1.45	Control	0.9048	n/a	Yes	2.625	n/a	5.0	GoodResponse	0	0.021	202.144	5	20	Feedback	Neutral	True
204.578	2.625	Control	0.9048	n/a	Yes	2.625	n/a	n/a	GoodResponse	0	0.0	n/a	5	20	ISIslide	Neutral	True
207.219	0.25	Control	0.9091	0.0	Yes	2.781	0.019	n/a	GoodResponse	0	n/a	n/a	5	21	Cue	Neutral	True
207.47	4.1	Control	0.9091	0.0	Yes	2.781	0.001	n/a	GoodResponse	0	n/a	n/a	5	21	Fixation	Neutral	True
211.565	0.19	Control	0.9091	0.004	Yes	2.781	-0.004	4.0	GoodResponse	0	0.167	210.732	5	21	Target	Neutral	True
211.732	0.3	Control	0.9091	0.004	Yes	2.781	-0.004	4.0	GoodResponse	0	0.167	n/a	5	21	ButtonPress	Neutral	True
211.766	0.51	Control	0.9091	n/a	Yes	2.781	n/a	n/a	GoodResponse	0	n/a	n/a	5	21	Blank	Neutral	True
212.267	1.45	Control	0.9091	n/a	Yes	2.781	n/a	5.0	GoodResponse	0	0.048	211.315	5	21	Feedback	Neutral	True
213.722	2.781	Control	0.9091	n/a	Yes	2.781	n/a	n/a	GoodResponse	0	0.0	n/a	5	21	ISIslide	Neutral	True
216.53	0.25	Control	0.8695999999999999	0.0	No	2.77	0.03	n/a	LatePress	0	n/a	n/a	5	22	Cue	Neutral	True
216.781	4.0	Control	0.8695999999999999	0.0	No	2.77	0.001	n/a	LatePress	0	n/a	n/a	5	22	Fixation	Neutral	True
220.776	0.18	Control	0.8695999999999999	0.004	No	2.77	-0.004	4.0	LatePress	0	0.184	219.96	5	22	Target	Neutral	True
220.96	0.52	Control	0.8695999999999999	n/a	No	2.77	n/a	n/a	LatePress	0	n/a	n/a	5	22	Blank	Neutral	True
220.96	0.3	Control	0.8695999999999999	0.004	No	2.77	-0.004	4.0	LatePress	0	0.184	n/a	5	22	ButtonPress	Neutral	True
221.478	1.45	Control	0.8695999999999999	n/a	No	2.77	n/a	5.0	LatePress	0	0.007	220.485	5	22	Feedback	Neutral	True
222.933	2.77	Control	0.8695999999999999	n/a	No	2.77	n/a	n/a	LatePress	0	0.0	n/a	5	22	ISIslide	Neutral	True
225.724	0.25	Control	0.8332999999999999	0.0	No	2.776	0.024	n/a	NoResponse	0	n/a	n/a	5	23	Cue	Neutral	True
225.975	3.9	Control	0.8332999999999999	0.0	No	2.776	0.001	n/a	NoResponse	0	n/a	n/a	5	23	Fixation	Neutral	True
229.87	0.17	Control	0.8332999999999999	0.004	No	2.776	-0.004	4.0	NoResponse	0	0.236	229.106	5	23	Target	Neutral	True
230.054	0.53	Control	0.8332999999999999	n/a	No	2.776	n/a	n/a	NoResponse	0	n/a	n/a	5	23	Blank	Neutral	True
230.106	0.3	Control	0.8332999999999999	0.004	No	2.776	-0.004	4.0	NoResponse	0	0.236	n/a	5	23	ButtonPress	Neutral	True
230.572	1.45	Control	0.8332999999999999	n/a	No	2.776	n/a	5.0	NoResponse	0	0.035	229.607	5	23	Feedback	Neutral	True
232.026	2.776	Control	0.8332999999999999	n/a	No	2.776	n/a	n/a	NoResponse	0	0.0	n/a	5	23	ISIslide	Neutral	True
234.818	0.25	Win2	0.8	0.0	No	3.132	0.018	n/a	NoResponse	0	n/a	n/a	5	24	Cue	MissedWin	True
235.069	3.95	Win2	0.8	0.0	No	3.132	0.001	n/a	NoResponse	0	n/a	n/a	5	24	Fixation	MissedWin	True
239.014	0.16	Win2	0.8	0.004	No	3.132	-0.004	4.0	NoResponse	0	0.168	238.182	5	24	Target	MissedWin	True
239.181	0.54	Win2	0.8	n/a	No	3.132	n/a	n/a	NoResponse	0	n/a	n/a	5	24	Blank	MissedWin	True
239.182	0.3	Win2	0.8	0.004	No	3.132	-0.004	4.0	NoResponse	0	0.168	n/a	5	24	ButtonPress	MissedWin	True
239.716	1.45	Win2	0.8	n/a	No	3.132	n/a	5.0	NoResponse	0	0.013	238.729	5	24	Feedback	MissedWin	True
241.171	3.132	Win2	0.8	n/a	No	3.132	n/a	n/a	NoResponse	0	0.0	n/a	5	24	ISIslide	MissedWin	True
244.33	0.25	Win2	0.7692	0.0	No	3.07	0.03	n/a	NoResponse	0	n/a	n/a	5	25	Cue	MissedWin	False
244.581	4.0	Win2	0.7692	0.0	No	3.07	0.001	4.0	NoResponse	0	3.772	247.353	5	25	Fixation	MissedWin	False
248.353	0.3	Win2	0.7692	0.0	No	3.07	0.001	4.0	NoResponse	0	3.772	n/a	5	25	ButtonPress	MissedWin	False
248.576	0.15	Win2	0.7692	0.004	No	3.07	-0.004	4.0	NoResponse	0	0.267	247.843	5	25	Target	MissedWin	False
248.726	0.55	Win2	0.7692	n/a	No	3.07	n/a	n/a	NoResponse	0	n/a	n/a	5	25	Blank	MissedWin	False
248.843	0.3	Win2	0.7692	0.004	No	3.07	-0.004	4.0	NoResponse	0	0.267	n/a	5	25	ButtonPress	MissedWin	False
249.278	1.45	Win2	0.7692	n/a	No	3.07	n/a	5.0	NoResponse	0	0.012	248.29	5	25	Feedback	MissedWin	False
250.732	3.07	Win2	0.7692	n/a	No	3.07	n/a	n/a	NoResponse	0	0.0	n/a	5	25	ISIslide	MissedWin	False
253.825	0.25	Win2	0.7406999999999999	0.0	No	2.925	0.025	n/a	NoResponse	0	n/a	n/a	5	26	Cue	MissedWin	True
254.076	3.95	Win2	0.7406999999999999	0.0	No	2.925	0.001	n/a	NoResponse	0	n/a	n/a	5	26	Fixation	MissedWin	True
258.021	0.15	Win2	0.7406999999999999	0.004	No	2.925	-0.004	4.0	NoResponse	0	0.17	257.191	5	26	Target	MissedWin	True
258.171	0.55	Win2	0.7406999999999999	n/a	No	2.925	n/a	n/a	NoResponse	0	n/a	n/a	5	26	Blank	MissedWin	True
258.191	0.3	Win2	0.7406999999999999	0.004	No	2.925	-0.004	4.0	NoResponse	0	0.17	n/a	5	26	ButtonPress	MissedWin	True
258.723	1.45	Win2	0.7406999999999999	n/a	No	2.925	n/a	5.0	NoResponse	0	0.03	257.753	5	26	Feedback	MissedWin	True
260.177	2.925	Win2	0.7406999999999999	n/a	No	2.925	n/a	n/a	NoResponse	0	0.0	n/a	5	26	ISIslide	MissedWin	True
263.12	0.25	Lose2	0.7143	0.0	No	2.83	0.02	n/a	NoResponse	-1	n/a	n/a	4	27	Cue	Loss	True
263.37	4.05	Lose2	0.7143	0.0	No	2.83	0.0	n/a	NoResponse	-1	n/a	n/a	4	27	Fixation	Loss	True
267.416	0.15	Lose2	0.7143	0.004	No	2.83	-0.004	4.0	NoResponse	-1	0.188	266.604	4	27	Target	Loss	True
267.566	0.55	Lose2	0.7143	n/a	No	2.83	n/a	n/a	NoResponse	-1	n/a	n/a	4	27	Blank	Loss	True
267.604	0.3	Lose2	0.7143	0.004	No	2.83	-0.004	4.0	NoResponse	-1	0.188	n/a	4	27	ButtonPress	Loss	True
268.118	1.45	Lose2	0.7143	n/a	No	2.83	n/a	5.0	NoResponse	-1	0.001	267.119	4	27	Feedback	Loss	True
269.572	2.83	Lose2	0.7143	n/a	No	2.83	n/a	4.0	NoResponse	-1	1.15	n/a	4	27	ISIslide	Loss	True
272.397	0.25	Control	0.6897	0.0	No	2.853	-0.003	n/a	NoResponse	0	n/a	n/a	4	28	Cue	Neutral	True
272.648	4.05	Control	0.6897	0.0	No	2.853	0.001	n/a	NoResponse	0	n/a	n/a	4	28	Fixation	Neutral	True
276.694	0.15	Control	0.6897	0.003	No	2.853	-0.003	4.0	NoResponse	0	0.161	275.855	4	28	Target	Neutral	True
276.844	0.55	Control	0.6897	n/a	No	2.853	n/a	n/a	NoResponse	0	n/a	n/a	4	28	Blank	Neutral	True
276.855	0.3	Control	0.6897	0.003	No	2.853	-0.003	4.0	NoResponse	0	0.161	n/a	4	28	ButtonPress	Neutral	True
277.396	1.45	Control	0.6897	n/a	No	2.853	n/a	5.0	NoResponse	0	0.039	276.435	4	28	Feedback	Neutral	True
278.85	2.853	Control	0.6897	n/a	No	2.853	n/a	n/a	NoResponse	0	0.0	n/a	4	28	ISIslide	Neutral	True
281.725	0.25	Lose2	0.6667000000000001	0.0	No	2.825	0.025	n/a	NoResponse	-1	n/a	n/a	3	29	Cue	Loss	True
281.976	3.95	Lose2	0.6667000000000001	0.0	No	2.825	0.001	n/a	NoResponse	-1	n/a	n/a	3	29	Fixation	Loss	True
285.921	0.15	Lose2	0.6667000000000001	0.004	No	2.825	-0.004	4.0	NoResponse	-1	0.167	285.088	3	29	Target	Loss	True
286.072	0.55	Lose2	0.6667000000000001	n/a	No	2.825	n/a	n/a	NoResponse	-1	n/a	n/a	3	29	Blank	Loss	True
286.088	0.3	Lose2	0.6667000000000001	0.004	No	2.825	-0.004	4.0	NoResponse	-1	0.167	n/a	3	29	ButtonPress	Loss	True
286.623	1.45	Lose2	0.6667000000000001	n/a	No	2.825	n/a	5.0	NoResponse	-1	0.032	285.655	3	29	Feedback	Loss	True
288.078	2.825	Lose2	0.6667000000000001	n/a	No	2.825	n/a	4.0	NoResponse	-1	1.034	n/a	3	29	ISIslide	Loss	True
290.903	0.25	Win2	0.6452	0.0	No	2.797	0.003	n/a	NoResponse	0	n/a	n/a	3	30	Cue	MissedWin	True
291.153	3.9	Win2	0.6452	0.001	No	2.797	0.0	n/a	NoResponse	0	n/a	n/a	3	30	Fixation	MissedWin	True
295.048	0.15	Win2	0.6452	0.005	No	2.797	-0.005	4.0	NoResponse	0	0.186	294.234	3	30	Target	MissedWin	True
295.199	0.55	Win2	0.6452	n/a	No	2.797	n/a	n/a	NoResponse	0	n/a	n/a	3	30	Blank	MissedWin	True
295.234	0.3	Win2	0.6452	0.005	No	2.797	-0.005	4.0	NoResponse	0	0.186	n/a	3	30	ButtonPress	MissedWin	True
295.751	1.45	Win2	0.6452	n/a	No	2.797	n/a	5.0	NoResponse	0	0.026	294.777	3	30	Feedback	MissedWin	True
297.205	2.797	Win2	0.6452	n/a	No	2.797	n/a	n/a	NoResponse	0	0.0	n/a	3	30	ISIslide	MissedWin	True
300.03	0.25	Lose2	0.625	0.0	No	2.82	0.03	n/a	NoResponse	-1	n/a	n/a	2	31	Cue	Loss	True
300.281	4.05	Lose2	0.625	0.0	No	2.82	0.001	4.0	NoResponse	-1	4.044	303.325	2	31	Fixation	Loss	True
304.325	0.3	Lose2	0.625	0.0	No	2.82	0.001	4.0	NoResponse	-1	4.044	n/a	2	31	ButtonPress	Loss	True
304.326	0.16	Lose2	0.625	0.004	No	2.82	-0.004	n/a	NoResponse	-1	n/a	n/a	2	31	Target	Loss	True
304.493	0.54	Lose2	0.625	n/a	No	2.82	n/a	n/a	NoResponse	-1	n/a	n/a	2	31	Blank	Loss	True
305.028	1.45	Lose2	0.625	n/a	No	2.82	n/a	5.0	NoResponse	-1	0.017	304.045	2	31	Feedback	Loss	True
306.483	2.82	Lose2	0.625	n/a	No	2.82	n/a	n/a	NoResponse	-1	0.0	n/a	2	31	ISIslide	Loss	True
309.325	0.25	Lose2	0.6364	0.0	Yes	2.625	0.025	n/a	GoodResponse	0	n/a	n/a	2	32	Cue	AvoidedLoss	True
309.575	4.15	Lose2	0.6364	0.0	Yes	2.625	0.0	n/a	GoodResponse	0	n/a	n/a	2	32	Fixation	AvoidedLoss	True
313.721	0.17	Lose2	0.6364	0.004	Yes	2.625	-0.004	4.0	GoodResponse	0	0.166	312.887	2	32	Target	AvoidedLoss	True
313.887	0.3	Lose2	0.6364	0.004	Yes	2.625	-0.004	4.0	GoodResponse	0	0.166	n/a	2	32	ButtonPress	AvoidedLoss	True
313.905	0.53	Lose2	0.6364	n/a	Yes	2.625	n/a	n/a	GoodResponse	0	n/a	n/a	2	32	Blank	AvoidedLoss	True
314.423	1.45	Lose2	0.6364	n/a	Yes	2.625	n/a	5.0	GoodResponse	0	0.037	313.46	2	32	Feedback	AvoidedLoss	True
315.877	2.625	Lose2	0.6364	n/a	Yes	2.625	n/a	n/a	GoodResponse	0	0.0	n/a	2	32	ISIslide	AvoidedLoss	True
318.519	0.25	Win2	0.6470999999999999	0.0	Yes	2.681	0.019	n/a	GoodResponse	1	n/a	n/a	3	33	Cue	Win	True
318.769	4.0	Win2	0.6470999999999999	0.001	Yes	2.681	0.0	n/a	GoodResponse	1	n/a	n/a	3	33	Fixation	Win	True
322.765	0.18	Win2	0.6470999999999999	0.004	Yes	2.681	-0.004	4.0	GoodResponse	1	0.173	321.938	3	33	Target	Win	True
322.938	0.3	Win2	0.6470999999999999	0.004	Yes	2.681	-0.004	4.0	GoodResponse	1	0.173	n/a	3	33	ButtonPress	Win	True
322.949	0.52	Win2	0.6470999999999999	n/a	Yes	2.681	n/a	n/a	GoodResponse	1	n/a	n/a	3	33	Blank	Win	True
323.467	1.45	Win2	0.6470999999999999	n/a	Yes	2.681	n/a	5.0	GoodResponse	1	0.018	322.485	3	33	Feedback	Win	True
324.921	2.681	Win2	0.6470999999999999	n/a	Yes	2.681	n/a	n/a	GoodResponse	1	0.0	n/a	3	33	ISIslide	Win	True
327.629	0.25	Lose2	0.6570999999999999	0.0	Yes	2.621	0.029	n/a	GoodResponse	0	n/a	n/a	3	34	Cue	AvoidedLoss	True
327.88	4.05	Lose2	0.6570999999999999	0.0	Yes	2.621	0.001	n/a	GoodResponse	0	n/a	n/a	3	34	Fixation	AvoidedLoss	True
331.926	0.19	Lose2	0.6570999999999999	0.003	Yes	2.621	-0.003	4.0	GoodResponse	0	0.178	331.104	3	34	Target	AvoidedLoss	True
332.104	0.3	Lose2	0.6570999999999999	0.003	Yes	2.621	-0.003	4.0	GoodResponse	0	0.178	n/a	3	34	ButtonPress	AvoidedLoss	True
332.126	0.51	Lose2	0.6570999999999999	n/a	Yes	2.621	n/a	n/a	GoodResponse	0	n/a	n/a	3	34	Blank	AvoidedLoss	True
332.628	1.45	Lose2	0.6570999999999999	n/a	Yes	2.621	n/a	5.0	GoodResponse	0	0.026	331.654	3	34	Feedback	AvoidedLoss	True
334.082	2.621	Lose2	0.6570999999999999	n/a	Yes	2.621	n/a	n/a	GoodResponse	0	0.0	n/a	3	34	ISIslide	AvoidedLoss	True
336.723	0.25	Lose2	0.6667000000000001	0.0	Yes	2.677	0.023	n/a	GoodResponse	0	n/a	n/a	3	35	Cue	AvoidedLoss	True
336.974	4.0	Lose2	0.6667000000000001	0.0	Yes	2.677	0.001	n/a	GoodResponse	0	n/a	n/a	3	35	Fixation	AvoidedLoss	True
340.969	0.19	Lose2	0.6667000000000001	0.004	Yes	2.677	-0.004	4.0	GoodResponse	0	0.175	340.144	3	35	Target	AvoidedLoss	True
341.144	0.3	Lose2	0.6667000000000001	0.004	Yes	2.677	-0.004	4.0	GoodResponse	0	0.175	n/a	3	35	ButtonPress	AvoidedLoss	True
341.17	0.51	Lose2	0.6667000000000001	n/a	Yes	2.677	n/a	n/a	GoodResponse	0	n/a	n/a	3	35	Blank	AvoidedLoss	True
341.671	1.45	Lose2	0.6667000000000001	n/a	Yes	2.677	n/a	5.0	GoodResponse	0	0.008	340.679	3	35	Feedback	AvoidedLoss	True
343.126	2.677	Lose2	0.6667000000000001	n/a	Yes	2.677	n/a	n/a	GoodResponse	0	0.0	n/a	3	35	ISIslide	AvoidedLoss	True
345.817	0.25	Control	0.6757	0.0	Yes	2.683	0.017	n/a	GoodResponse	0	n/a	n/a	3	36	Cue	Neutral	True
346.068	4.0	Control	0.6757	0.0	Yes	2.683	0.001	n/a	GoodResponse	0	n/a	n/a	3	36	Fixation	Neutral	True
350.063	0.18	Control	0.6757	0.004	Yes	2.683	-0.004	4.0	GoodResponse	0	0.159	349.222	3	36	Target	Neutral	True
350.222	0.3	Control	0.6757	0.004	Yes	2.683	-0.004	4.0	GoodResponse	0	0.159	n/a	3	36	ButtonPress	Neutral	True
350.247	0.52	Control	0.6757	n/a	Yes	2.683	n/a	n/a	GoodResponse	0	n/a	n/a	3	36	Blank	Neutral	True
350.765	1.45	Control	0.6757	n/a	Yes	2.683	n/a	5.0	GoodResponse	0	0.036	349.801	3	36	Feedback	Neutral	True
352.22	2.683	Control	0.6757	n/a	Yes	2.683	n/a	n/a	GoodResponse	0	0.0	n/a	3	36	ISIslide	Neutral	True
354.928	0.25	Win2	0.6842	0.0	Yes	2.872	0.028	n/a	GoodResponse	1	n/a	n/a	4	37	Cue	Win	True
355.178	4.0	Win2	0.6842	0.001	Yes	2.872	0.0	n/a	GoodResponse	1	n/a	n/a	4	37	Fixation	Win	True
359.174	0.17	Win2	0.6842	0.004	Yes	2.872	-0.004	4.0	GoodResponse	1	0.167	358.341	4	37	Target	Win	True
359.341	0.3	Win2	0.6842	0.004	Yes	2.872	-0.004	4.0	GoodResponse	1	0.167	n/a	4	37	ButtonPress	Win	True
359.358	0.53	Win2	0.6842	n/a	Yes	2.872	n/a	n/a	GoodResponse	1	n/a	n/a	4	37	Blank	Win	True
359.876	1.45	Win2	0.6842	n/a	Yes	2.872	n/a	5.0	GoodResponse	1	0.047	358.923	4	37	Feedback	Win	True
361.33	2.872	Win2	0.6842	n/a	Yes	2.872	n/a	n/a	GoodResponse	1	0.0	n/a	4	37	ISIslide	Win	True
364.222	0.25	Lose2	0.6667000000000001	0.0	No	2.828	0.022	n/a	NoResponse	-1	n/a	n/a	3	38	Cue	Loss	True
364.473	3.95	Lose2	0.6667000000000001	0.0	No	2.828	0.001	n/a	NoResponse	-1	n/a	n/a	3	38	Fixation	Loss	True
368.418	0.16	Lose2	0.6667000000000001	0.004	No	2.828	-0.004	4.0	NoResponse	-1	0.199	367.617	3	38	Target	Loss	True
368.585	0.54	Lose2	0.6667000000000001	n/a	No	2.828	n/a	n/a	NoResponse	-1	n/a	n/a	3	38	Blank	Loss	True
368.617	0.3	Lose2	0.6667000000000001	0.004	No	2.828	-0.004	4.0	NoResponse	-1	0.199	n/a	3	38	ButtonPress	Loss	True
369.12	1.45	Lose2	0.6667000000000001	n/a	No	2.828	n/a	5.0	NoResponse	-1	0.023	368.143	3	38	Feedback	Loss	True
370.575	2.828	Lose2	0.6667000000000001	n/a	No	2.828	n/a	n/a	NoResponse	-1	0.0	n/a	3	38	ISIslide	Loss	True
373.416	0.25	Win2	0.65	0.0	No	2.984	0.016	n/a	NoResponse	0	n/a	n/a	3	39	Cue	MissedWin	True
373.667	4.1	Win2	0.65	0.0	No	2.984	0.001	n/a	NoResponse	0	n/a	n/a	3	39	Fixation	MissedWin	True
377.763	0.15	Win2	0.65	0.003	No	2.984	-0.003	4.0	NoResponse	0	0.161	376.924	3	39	Target	MissedWin	True
377.913	0.55	Win2	0.65	n/a	No	2.984	n/a	n/a	NoResponse	0	n/a	n/a	3	39	Blank	MissedWin	True
377.924	0.3	Win2	0.65	0.003	No	2.984	-0.003	4.0	NoResponse	0	0.161	n/a	3	39	ButtonPress	MissedWin	True
378.465	1.45	Win2	0.65	n/a	No	2.984	n/a	5.0	NoResponse	0	0.043	377.508	3	39	Feedback	MissedWin	True
379.919	2.984	Win2	0.65	n/a	No	2.984	n/a	n/a	NoResponse	0	0.0	n/a	3	39	ISIslide	MissedWin	True
382.928	0.25	Win2	0.6341	0.0	No	2.722	0.028	n/a	LatePress	0	n/a	n/a	3	40	Cue	MissedWin	True
383.179	3.95	Win2	0.6341	0.0	No	2.722	0.001	n/a	LatePress	0	n/a	n/a	3	40	Fixation	MissedWin	True
387.124	0.16	Win2	0.6341	0.004	No	2.722	-0.004	4.0	LatePress	0	0.165	386.289	3	40	Target	MissedWin	True
387.289	0.3	Win2	0.6341	0.004	No	2.722	-0.004	4.0	LatePress	0	0.165	n/a	3	40	ButtonPress	MissedWin	True
387.291	0.54	Win2	0.6341	n/a	No	2.722	n/a	n/a	LatePress	0	n/a	n/a	3	40	Blank	MissedWin	True
387.826	1.45	Win2	0.6341	n/a	No	2.722	n/a	5.0	LatePress	0	0.048	386.874	3	40	Feedback	MissedWin	True
389.281	2.722	Win2	0.6341	n/a	No	2.722	n/a	4.0	LatePress	0	0.809	n/a	3	40	ISIslide	MissedWin	True
392.005	0.25	Win2	0.6429	0.0	Yes	2.795	0.005	n/a	GoodResponse	1	n/a	n/a	4	41	Cue	Win	True
392.256	3.9	Win2	0.6429	0.0	Yes	2.795	0.001	n/a	GoodResponse	1	n/a	n/a	4	41	Fixation	Win	True
396.151	0.17	Win2	0.6429	0.004	Yes	2.795	-0.004	4.0	GoodResponse	1	0.158	395.309	4	41	Target	Win	True
396.309	0.3	Win2	0.6429	0.004	Yes	2.795	-0.004	4.0	GoodResponse	1	0.158	n/a	4	41	ButtonPress	Win	True
396.335	0.53	Win2	0.6429	n/a	Yes	2.795	n/a	n/a	GoodResponse	1	n/a	n/a	4	41	Blank	Win	True
396.853	1.45	Win2	0.6429	n/a	Yes	2.795	n/a	5.0	GoodResponse	1	0.045	395.898	4	41	Feedback	Win	True
398.308	2.795	Win2	0.6429	n/a	Yes	2.795	n/a	n/a	GoodResponse	1	0.0	n/a	4	41	ISIslide	Win	True
401.116	0.25	Control	0.6279	0.0	No	2.934	0.016	n/a	NoResponse	0	n/a	n/a	4	42	Cue	Neutral	True
401.367	3.85	Control	0.6279	0.0	No	2.934	0.001	n/a	NoResponse	0	n/a	n/a	4	42	Fixation	Neutral	True
405.212	0.18	Control	0.6279	0.004	No	2.934	-0.004	4.0	NoResponse	0	0.203	404.415	4	42	Target	Neutral	True
405.395	0.52	Control	0.6279	n/a	No	2.934	n/a	n/a	NoResponse	0	n/a	n/a	4	42	Blank	Neutral	True
405.415	0.3	Control	0.6279	0.004	No	2.934	-0.004	4.0	NoResponse	0	0.203	n/a	4	42	ButtonPress	Neutral	True
405.914	1.45	Control	0.6279	n/a	No	2.934	n/a	5.0	NoResponse	0	0.008	404.922	4	42	Feedback	Neutral	True
407.368	2.934	Control	0.6279	n/a	No	2.934	n/a	n/a	NoResponse	0	0.0	n/a	4	42	ISIslide	Neutral	True
410.327	0.25	Win2	0.6136	0.0	No	3.173	0.027	n/a	NoResponse	0	n/a	n/a	4	43	Cue	MissedWin	False
410.578	4.0	Win2	0.6136	0.0	No	3.173	0.001	4.0	NoResponse	0	3.791	413.369	4	43	Fixation	MissedWin	False
414.369	0.3	Win2	0.6136	0.0	No	3.173	0.001	4.0	NoResponse	0	3.791	n/a	4	43	ButtonPress	MissedWin	False
414.573	0.19	Win2	0.6136	0.004	No	3.173	-0.004	4.0	NoResponse	0	0.243	413.816	4	43	Target	MissedWin	False
414.774	0.51	Win2	0.6136	n/a	No	3.173	n/a	n/a	NoResponse	0	n/a	n/a	4	43	Blank	MissedWin	False
414.816	0.3	Win2	0.6136	0.004	No	3.173	-0.004	4.0	NoResponse	0	0.243	n/a	4	43	ButtonPress	MissedWin	False
415.275	1.45	Win2	0.6136	n/a	No	3.173	n/a	5.0	NoResponse	0	0.014	414.289	4	43	Feedback	MissedWin	False
416.729	3.173	Win2	0.6136	n/a	No	3.173	n/a	n/a	NoResponse	0	0.0	n/a	4	43	ISIslide	MissedWin	False
419.922	0.25	Win2	0.6222	0.0	Yes	2.978	0.022	n/a	GoodResponse	1	n/a	n/a	5	44	Cue	Win	True
420.173	4.0	Win2	0.6222	0.0	Yes	2.978	0.001	n/a	GoodResponse	1	n/a	n/a	5	44	Fixation	Win	True
424.168	0.2	Win2	0.6222	0.004	Yes	2.978	-0.004	4.0	GoodResponse	1	0.181	423.349	5	44	Target	Win	True
424.349	0.3	Win2	0.6222	0.004	Yes	2.978	-0.004	4.0	GoodResponse	1	0.181	n/a	5	44	ButtonPress	Win	True
424.369	0.5	Win2	0.6222	n/a	Yes	2.978	n/a	n/a	GoodResponse	1	n/a	n/a	5	44	Blank	Win	True
424.87	1.45	Win2	0.6222	n/a	Yes	2.978	n/a	5.0	GoodResponse	1	0.028	423.898	5	44	Feedback	Win	True
426.325	2.978	Win2	0.6222	n/a	Yes	2.978	n/a	n/a	GoodResponse	1	0.0	n/a	5	44	ISIslide	Win	True
429.317	0.25	Control	0.6304	0.0	Yes	2.883	0.017	n/a	GoodResponse	0	n/a	n/a	5	45	Cue	Neutral	True
429.568	4.1	Control	0.6304	0.0	Yes	2.883	0.001	n/a	GoodResponse	0	n/a	n/a	5	45	Fixation	Neutral	True
433.663	0.21	Control	0.6304	0.004	Yes	2.883	-0.004	4.0	GoodResponse	0	0.186	432.849	5	45	Target	Neutral	True
433.849	0.3	Control	0.6304	0.004	Yes	2.883	-0.004	4.0	GoodResponse	0	0.186	n/a	5	45	ButtonPress	Neutral	True
433.881	0.49	Control	0.6304	n/a	Yes	2.883	n/a	n/a	GoodResponse	0	n/a	n/a	5	45	Blank	Neutral	True
434.365	1.45	Control	0.6304	n/a	Yes	2.883	n/a	5.0	GoodResponse	0	0.045	433.41	5	45	Feedback	Neutral	True
435.82	2.883	Control	0.6304	n/a	Yes	2.883	n/a	n/a	GoodResponse	0	0.0	n/a	5	45	ISIslide	Neutral	True
438.729	0.25	Lose2	0.6383	0.0	Yes	3.371	0.029	n/a	GoodResponse	0	n/a	n/a	5	46	Cue	AvoidedLoss	True
438.979	4.0	Lose2	0.6383	0.0	Yes	3.371	0.0	n/a	GoodResponse	0	n/a	n/a	5	46	Fixation	AvoidedLoss	True
442.975	0.22	Lose2	0.6383	0.004	Yes	3.371	-0.004	4.0	GoodResponse	0	0.169	442.144	5	46	Target	AvoidedLoss	True
443.144	0.3	Lose2	0.6383	0.004	Yes	3.371	-0.004	4.0	GoodResponse	0	0.169	n/a	5	46	ButtonPress	AvoidedLoss	True
443.209	0.48	Lose2	0.6383	n/a	Yes	3.371	n/a	n/a	GoodResponse	0	n/a	n/a	5	46	Blank	AvoidedLoss	True
443.677	1.45	Lose2	0.6383	n/a	Yes	3.371	n/a	5.0	GoodResponse	0	0.001	442.678	5	46	Feedback	AvoidedLoss	True
445.131	3.371	Lose2	0.6383	n/a	Yes	3.371	n/a	n/a	GoodResponse	0	0.0	n/a	5	46	ISIslide	AvoidedLoss	True
448.525	0.25	Lose2	0.6457999999999999	0.0	Yes	2.675	0.025	n/a	GoodResponse	0	n/a	n/a	5	47	Cue	AvoidedLoss	True
448.775	4.0	Lose2	0.6457999999999999	0.0	Yes	2.675	0.0	n/a	GoodResponse	0	n/a	n/a	5	47	Fixation	AvoidedLoss	True
452.771	0.23	Lose2	0.6457999999999999	0.004	Yes	2.675	-0.004	4.0	GoodResponse	0	0.179	451.95	5	47	Target	AvoidedLoss	True
452.95	0.3	Lose2	0.6457999999999999	0.004	Yes	2.675	-0.004	4.0	GoodResponse	0	0.179	n/a	5	47	ButtonPress	AvoidedLoss	True
453.005	0.47	Lose2	0.6457999999999999	n/a	Yes	2.675	n/a	n/a	GoodResponse	0	n/a	n/a	5	47	Blank	AvoidedLoss	True
453.473	1.45	Lose2	0.6457999999999999	n/a	Yes	2.675	n/a	5.0	GoodResponse	0	0.01	452.483	5	47	Feedback	AvoidedLoss	True
454.927	2.675	Lose2	0.6457999999999999	n/a	Yes	2.675	n/a	n/a	GoodResponse	0	0.0	n/a	5	47	ISIslide	AvoidedLoss	True
457.618	0.25	Lose2	0.6531	0.001	Yes	3.032	0.018	n/a	GoodResponse	0	n/a	n/a	5	48	Cue	AvoidedLoss	True
457.869	3.95	Lose2	0.6531	0.0	Yes	3.032	0.001	n/a	GoodResponse	0	n/a	n/a	5	48	Fixation	AvoidedLoss	True
461.814	0.24	Lose2	0.6531	0.004	Yes	3.032	-0.004	4.0	GoodResponse	0	0.172	460.986	5	48	Target	AvoidedLoss	True
461.986	0.3	Lose2	0.6531	0.004	Yes	3.032	-0.004	4.0	GoodResponse	0	0.172	n/a	5	48	ButtonPress	AvoidedLoss	True
462.065	0.46	Lose2	0.6531	n/a	Yes	3.032	n/a	n/a	GoodResponse	0	n/a	n/a	5	48	Blank	AvoidedLoss	True
462.516	1.45	Lose2	0.6531	n/a	Yes	3.032	n/a	5.0	GoodResponse	0	0.04	461.556	5	48	Feedback	AvoidedLoss	True
463.971	3.032	Lose2	0.6531	n/a	Yes	3.032	n/a	n/a	GoodResponse	0	0.0	n/a	5	48	ISIslide	AvoidedLoss	True
467.03	0.25	Control	0.66	0.0	Yes	2.87	0.03	n/a	GoodResponse	0	n/a	n/a	5	49	Cue	Neutral	True
467.281	4.0	Control	0.66	0.0	Yes	2.87	0.001	n/a	GoodResponse	0	n/a	n/a	5	49	Fixation	Neutral	True
471.276	0.25	Control	0.66	0.004	Yes	2.87	-0.004	4.0	GoodResponse	0	0.173	470.449	5	49	Target	Neutral	True
471.449	0.3	Control	0.66	0.004	Yes	2.87	-0.004	4.0	GoodResponse	0	0.173	n/a	5	49	ButtonPress	Neutral	True
471.527	0.45	Control	0.66	n/a	Yes	2.87	n/a	n/a	GoodResponse	0	n/a	n/a	5	49	Blank	Neutral	True
471.978	1.45	Control	0.66	n/a	Yes	2.87	n/a	5.0	GoodResponse	0	0.042	471.02	5	49	Feedback	Neutral	True
473.432	2.87	Control	0.66	n/a	Yes	2.87	n/a	n/a	GoodResponse	0	0.0	n/a	5	49	ISIslide	Neutral	True
476.324	0.25	Control	0.6667000000000001	0.0	Yes	2.776	0.024	n/a	GoodResponse	0	n/a	n/a	5	50	Cue	Neutral	True
476.575	4.0	Control	0.6667000000000001	0.0	Yes	2.776	0.001	n/a	GoodResponse	0	n/a	n/a	5	50	Fixation	Neutral	True
480.57	0.25	Control	0.6667000000000001	0.004	Yes	2.776	-0.004	4.0	GoodResponse	0	0.178	479.748	5	50	Target	Neutral	True
480.748	0.3	Control	0.6667000000000001	0.004	Yes	2.776	-0.004	4.0	GoodResponse	0	0.178	n/a	5	50	ButtonPress	Neutral	True
480.821	0.45	Control	0.6667000000000001	n/a	Yes	2.776	n/a	n/a	GoodResponse	0	n/a	n/a	5	50	Blank	Neutral	True
481.273	1.45	Control	0.6667000000000001	n/a	Yes	2.776	n/a	5.0	GoodResponse	0	0.014	480.287	5	50	Feedback	Neutral	True
482.727	2.776	Control	0.6667000000000001	n/a	Yes	2.776	n/a	n/a	GoodResponse	0	0.0	n/a	5	50	ISIslide	Neutral	True
485.519	0.25	Control	0.6537999999999999	0.0	No	2.731	0.019	n/a	NoResponse	0	n/a	n/a	5	51	Cue	Neutral	True
485.769	3.95	Control	0.6537999999999999	0.0	No	2.731	0.0	n/a	NoResponse	0	n/a	n/a	5	51	Fixation	Neutral	True
489.714	0.24	Control	0.6537999999999999	0.005	No	2.731	-0.005	4.0	NoResponse	0	0.311	489.025	5	51	Target	Neutral	True
489.965	0.46	Control	0.6537999999999999	n/a	No	2.731	n/a	n/a	NoResponse	0	n/a	n/a	5	51	Blank	Neutral	True
490.025	0.3	Control	0.6537999999999999	0.005	No	2.731	-0.005	4.0	NoResponse	0	0.311	n/a	5	51	ButtonPress	Neutral	True
490.417	1.45	Control	0.6537999999999999	n/a	No	2.731	n/a	5.0	NoResponse	0	0.041	489.458	5	51	Feedback	Neutral	True
491.871	2.731	Control	0.6537999999999999	n/a	No	2.731	n/a	n/a	NoResponse	0	0.0	n/a	5	51	ISIslide	Neutral	True
494.629	0.25	Control	0.6604000000000001	0.0	Yes	2.621	0.029	n/a	GoodResponse	0	n/a	n/a	5	52	Cue	Neutral	True
494.88	4.05	Control	0.6604000000000001	0.0	Yes	2.621	0.001	n/a	GoodResponse	0	n/a	n/a	5	52	Fixation	Neutral	True
498.925	0.25	Control	0.6604000000000001	0.004	Yes	2.621	-0.004	4.0	GoodResponse	0	0.18	498.105	5	52	Target	Neutral	True
499.105	0.3	Control	0.6604000000000001	0.004	Yes	2.621	-0.004	4.0	GoodResponse	0	0.18	n/a	5	52	ButtonPress	Neutral	True
499.176	0.45	Control	0.6604000000000001	n/a	Yes	2.621	n/a	n/a	GoodResponse	0	n/a	n/a	5	52	Blank	Neutral	True
499.628	1.45	Control	0.6604000000000001	n/a	Yes	2.621	n/a	5.0	GoodResponse	0	0.001	498.629	5	52	Feedback	Neutral	True
501.082	2.621	Control	0.6604000000000001	n/a	Yes	2.621	n/a	n/a	GoodResponse	0	0.0	n/a	5	52	ISIslide	Neutral	True
503.723	0.25	Win2	0.6667000000000001	0.0	Yes	2.927	0.023	n/a	GoodResponse	1	n/a	n/a	6	53	Cue	Win	True
503.974	4.05	Win2	0.6667000000000001	0.0	Yes	2.927	0.001	n/a	GoodResponse	1	n/a	n/a	6	53	Fixation	Win	True
508.019	0.25	Win2	0.6667000000000001	0.004	Yes	2.927	-0.004	4.0	GoodResponse	1	0.162	507.181	6	53	Target	Win	True
508.181	0.3	Win2	0.6667000000000001	0.004	Yes	2.927	-0.004	4.0	GoodResponse	1	0.162	n/a	6	53	ButtonPress	Win	True
508.27	0.45	Win2	0.6667000000000001	n/a	Yes	2.927	n/a	n/a	GoodResponse	1	n/a	n/a	6	53	Blank	Win	True
508.721	1.45	Win2	0.6667000000000001	n/a	Yes	2.927	n/a	5.0	GoodResponse	1	0.03	507.751	6	53	Feedback	Win	True
510.176	2.927	Win2	0.6667000000000001	n/a	Yes	2.927	n/a	n/a	GoodResponse	1	0.0	n/a	6	53	ISIslide	Win	True
513.118	0.25	Win2	0.6727	0.0	Yes	2.732	0.018	n/a	GoodResponse	1	n/a	n/a	7	54	Cue	Win	True
513.369	3.95	Win2	0.6727	0.0	Yes	2.732	0.001	n/a	GoodResponse	1	n/a	n/a	7	54	Fixation	Win	True
517.314	0.24	Win2	0.6727	0.004	Yes	2.732	-0.004	4.0	GoodResponse	1	0.175	516.489	7	54	Target	Win	True
517.489	0.3	Win2	0.6727	0.004	Yes	2.732	-0.004	4.0	GoodResponse	1	0.175	n/a	7	54	ButtonPress	Win	True
517.565	0.46	Win2	0.6727	n/a	Yes	2.732	n/a	n/a	GoodResponse	1	n/a	n/a	7	54	Blank	Win	True
518.016	1.45	Win2	0.6727	n/a	Yes	2.732	n/a	5.0	GoodResponse	1	0.008	517.024	7	54	Feedback	Win	True
519.47	2.732	Win2	0.6727	n/a	Yes	2.732	n/a	n/a	GoodResponse	1	0.0	n/a	7	54	ISIslide	Win	True
522.228	0.25	Control	0.6786	0.001	Yes	3.022	0.028	n/a	GoodResponse	0	n/a	n/a	7	55	Cue	Neutral	True
522.479	3.95	Control	0.6786	0.0	Yes	3.022	0.001	n/a	GoodResponse	0	n/a	n/a	7	55	Fixation	Neutral	True
526.424	0.23	Control	0.6786	0.004	Yes	3.022	-0.004	4.0	GoodResponse	0	0.167	525.591	7	55	Target	Neutral	True
526.591	0.3	Control	0.6786	0.004	Yes	3.022	-0.004	4.0	GoodResponse	0	0.167	n/a	7	55	ButtonPress	Neutral	True
526.658	0.47	Control	0.6786	n/a	Yes	3.022	n/a	n/a	GoodResponse	0	n/a	n/a	7	55	Blank	Neutral	True
527.126	1.45	Control	0.6786	n/a	Yes	3.022	n/a	5.0	GoodResponse	0	0.015	526.141	7	55	Feedback	Neutral	True
528.581	3.022	Control	0.6786	n/a	Yes	3.022	n/a	n/a	GoodResponse	0	0.0	n/a	7	55	ISIslide	Neutral	True
531.623	0.25	Control	0.6842	0.0	Yes	2.827	0.023	n/a	GoodResponse	0	n/a	n/a	7	56	Cue	Neutral	True
531.874	3.95	Control	0.6842	0.0	Yes	2.827	0.001	n/a	GoodResponse	0	n/a	n/a	7	56	Fixation	Neutral	True
535.819	0.22	Control	0.6842	0.004	Yes	2.827	-0.004	4.0	GoodResponse	0	0.18	534.999	7	56	Target	Neutral	True
535.999	0.3	Control	0.6842	0.004	Yes	2.827	-0.004	4.0	GoodResponse	0	0.18	n/a	7	56	ButtonPress	Neutral	True
536.053	0.48	Control	0.6842	n/a	Yes	2.827	n/a	n/a	GoodResponse	0	n/a	n/a	7	56	Blank	Neutral	True
536.521	1.45	Control	0.6842	n/a	Yes	2.827	n/a	5.0	GoodResponse	0	0.034	535.555	7	56	Feedback	Neutral	True
537.976	2.827	Control	0.6842	n/a	Yes	2.827	n/a	n/a	GoodResponse	0	0.0	n/a	7	56	ISIslide	Neutral	True
540.817	0.25	Control	0.6897	0.001	Yes	3.483	0.017	n/a	GoodResponse	0	n/a	n/a	7	57	Cue	Neutral	True
541.068	4.0	Control	0.6897	0.0	Yes	3.483	0.001	n/a	GoodResponse	0	n/a	n/a	7	57	Fixation	Neutral	True
545.064	0.21	Control	0.6897	0.003	Yes	3.483	-0.003	4.0	GoodResponse	0	0.167	544.231	7	57	Target	Neutral	True
545.231	0.3	Control	0.6897	0.003	Yes	3.483	-0.003	4.0	GoodResponse	0	0.167	n/a	7	57	ButtonPress	Neutral	True
545.281	0.49	Control	0.6897	n/a	Yes	3.483	n/a	n/a	GoodResponse	0	n/a	n/a	7	57	Blank	Neutral	True
545.766	1.45	Control	0.6897	n/a	Yes	3.483	n/a	5.0	GoodResponse	0	0.009	544.775	7	57	Feedback	Neutral	True
547.22	3.483	Control	0.6897	n/a	Yes	3.483	n/a	n/a	GoodResponse	0	0.0	n/a	7	57	ISIslide	Neutral	True
550.714	0.25	Win2	0.6949	0.0	Yes	2.736	0.014	n/a	GoodResponse	1	n/a	n/a	8	58	Cue	Win	True
550.965	4.05	Win2	0.6949	0.0	Yes	2.736	0.001	n/a	GoodResponse	1	n/a	n/a	8	58	Fixation	Win	True
555.01	0.2	Win2	0.6949	0.004	Yes	2.736	-0.004	4.0	GoodResponse	1	0.162	554.172	8	58	Target	Win	True
555.172	0.3	Win2	0.6949	0.004	Yes	2.736	-0.004	4.0	GoodResponse	1	0.162	n/a	8	58	ButtonPress	Win	True
555.211	0.5	Win2	0.6949	n/a	Yes	2.736	n/a	n/a	GoodResponse	1	n/a	n/a	8	58	Blank	Win	True
555.712	1.45	Win2	0.6949	n/a	Yes	2.736	n/a	5.0	GoodResponse	1	0.014	554.726	8	58	Feedback	Win	True
557.166	2.736	Win2	0.6949	n/a	Yes	2.736	n/a	n/a	GoodResponse	1	0.0	n/a	8	58	ISIslide	Win	True
559.925	0.25	Lose2	0.6833	0.0	No	2.675	0.025	n/a	LatePress	-1	n/a	n/a	7	59	Cue	Loss	True
560.175	4.0	Lose2	0.6833	0.0	No	2.675	0.0	n/a	LatePress	-1	n/a	n/a	7	59	Fixation	Loss	True
564.171	0.19	Lose2	0.6833	0.004	No	2.675	-0.004	4.0	LatePress	-1	0.193	563.364	7	59	Target	Loss	True
564.364	0.3	Lose2	0.6833	0.004	No	2.675	-0.004	4.0	LatePress	-1	0.193	n/a	7	59	ButtonPress	Loss	True
564.371	0.51	Lose2	0.6833	n/a	No	2.675	n/a	n/a	LatePress	-1	n/a	n/a	7	59	Blank	Loss	True
564.873	1.45	Lose2	0.6833	n/a	No	2.675	n/a	5.0	LatePress	-1	0.024	563.897	7	59	Feedback	Loss	True
566.327	2.675	Lose2	0.6833	n/a	No	2.675	n/a	n/a	LatePress	-1	0.0	n/a	7	59	ISIslide	Loss	True
569.019	0.25	Control	0.6720999999999999	0.0	No	2.681	0.019	n/a	NoResponse	0	n/a	n/a	7	60	Cue	Neutral	True
569.269	4.0	Control	0.6720999999999999	0.0	No	2.681	0.0	n/a	NoResponse	0	n/a	n/a	7	60	Fixation	Neutral	True
573.265	0.18	Control	0.6720999999999999	0.004	No	2.681	-0.004	4.0	NoResponse	0	0.189	572.454	7	60	Target	Neutral	True
573.448	0.52	Control	0.6720999999999999	n/a	No	2.681	n/a	n/a	NoResponse	0	n/a	n/a	7	60	Blank	Neutral	True
573.454	0.3	Control	0.6720999999999999	0.004	No	2.681	-0.004	4.0	NoResponse	0	0.189	n/a	7	60	ButtonPress	Neutral	True
573.967	1.45	Control	0.6720999999999999	n/a	No	2.681	n/a	5.0	NoResponse	0	0.004	572.971	7	60	Feedback	Neutral	True
575.421	2.681	Control	0.6720999999999999	n/a	No	2.681	n/a	n/a	NoResponse	0	0.0	n/a	7	60	ISIslide	Neutral	True
578.129	0.25	Lose2	0.6774	0.0	Yes	2.971	0.029	n/a	GoodResponse	0	n/a	n/a	7	61	Cue	AvoidedLoss	True
578.38	4.0	Lose2	0.6774	0.0	Yes	2.971	0.001	n/a	GoodResponse	0	n/a	n/a	7	61	Fixation	AvoidedLoss	True
582.375	0.17	Lose2	0.6774	0.004	Yes	2.971	-0.004	4.0	GoodResponse	0	0.156	581.531	7	61	Target	AvoidedLoss	True
582.531	0.3	Lose2	0.6774	0.004	Yes	2.971	-0.004	4.0	GoodResponse	0	0.156	n/a	7	61	ButtonPress	AvoidedLoss	True
582.559	0.53	Lose2	0.6774	n/a	Yes	2.971	n/a	n/a	GoodResponse	0	n/a	n/a	7	61	Blank	AvoidedLoss	True
583.077	1.45	Lose2	0.6774	n/a	Yes	2.971	n/a	5.0	GoodResponse	0	0.014	582.091	7	61	Feedback	AvoidedLoss	True
584.532	2.971	Lose2	0.6774	n/a	Yes	2.971	n/a	n/a	GoodResponse	0	0.0	n/a	7	61	ISIslide	AvoidedLoss	True
587.524	0.25	Lose2	0.6667000000000001	0.0	No	2.876	0.024	n/a	NoResponse	-1	n/a	n/a	6	62	Cue	Loss	True
587.775	3.9	Lose2	0.6667000000000001	0.0	No	2.876	0.001	n/a	NoResponse	-1	n/a	n/a	6	62	Fixation	Loss	True
591.67	0.16	Lose2	0.6667000000000001	0.004	No	2.876	-0.004	4.0	NoResponse	-1	0.184	590.854	6	62	Target	Loss	True
591.837	0.54	Lose2	0.6667000000000001	n/a	No	2.876	n/a	n/a	NoResponse	-1	n/a	n/a	6	62	Blank	Loss	True
591.854	0.3	Lose2	0.6667000000000001	0.004	No	2.876	-0.004	4.0	NoResponse	-1	0.184	n/a	6	62	ButtonPress	Loss	True
592.372	1.45	Lose2	0.6667000000000001	n/a	No	2.876	n/a	5.0	NoResponse	-1	0.036	591.408	6	62	Feedback	Loss	True
593.826	2.876	Lose2	0.6667000000000001	n/a	No	2.876	n/a	n/a	NoResponse	-1	0.0	n/a	6	62	ISIslide	Loss	True
596.718	0.25	Lose2	0.6562	0.0	No	2.632	0.018	n/a	NoResponse	-1	n/a	n/a	5	63	Cue	Loss	True
596.969	4.05	Lose2	0.6562	0.0	No	2.632	0.001	n/a	NoResponse	-1	n/a	n/a	5	63	Fixation	Loss	True
601.014	0.15	Lose2	0.6562	0.004	No	2.632	-0.004	4.0	NoResponse	-1	0.162	600.176	5	63	Target	Loss	True
601.165	0.55	Lose2	0.6562	n/a	No	2.632	n/a	n/a	NoResponse	-1	n/a	n/a	5	63	Blank	Loss	True
601.176	0.3	Lose2	0.6562	0.004	No	2.632	-0.004	4.0	NoResponse	-1	0.162	n/a	5	63	ButtonPress	Loss	True
601.716	1.45	Lose2	0.6562	n/a	No	2.632	n/a	5.0	NoResponse	-1	0.009	600.725	5	63	Feedback	Loss	True
603.171	2.632	Lose2	0.6562	n/a	No	2.632	n/a	n/a	NoResponse	-1	0.0	n/a	5	63	ISIslide	Loss	True
605.829	0.25	Win2	0.6462	0.0	No	3.121	0.029	n/a	PrematurePress	0	n/a	n/a	5	64	Cue	MissedWin	True
606.079	4.15	Win2	0.6462	0.001	No	3.121	0.0	n/a	PrematurePress	0	n/a	n/a	5	64	Fixation	MissedWin	True
610.225	0.15	Win2	0.6462	0.004	No	3.121	-0.004	4.0	PrematurePress	0	0.09	609.315	5	64	Target	MissedWin	True
610.315	0.3	Win2	0.6462	0.004	No	3.121	-0.004	4.0	PrematurePress	0	0.09	n/a	5	64	ButtonPress	MissedWin	True
610.376	0.55	Win2	0.6462	n/a	No	3.121	n/a	n/a	PrematurePress	0	n/a	n/a	5	64	Blank	MissedWin	True
610.927	1.45	Win2	0.6462	n/a	No	3.121	n/a	5.0	PrematurePress	0	0.018	609.945	5	64	Feedback	MissedWin	True
612.382	3.121	Win2	0.6462	n/a	No	3.121	n/a	n/a	PrematurePress	0	0.0	n/a	5	64	ISIslide	MissedWin	True
615.524	0.25	Control	0.6364	0.0	No	2.776	0.024	n/a	NoResponse	0	n/a	n/a	5	65	Cue	Neutral	True
615.775	4.0	Control	0.6364	0.0	No	2.776	0.001	4.0	NoResponse	0	1.895	616.67	5	65	Fixation	Neutral	True
617.67	0.3	Control	0.6364	0.0	No	2.776	0.001	4.0	NoResponse	0	1.895	n/a	5	65	ButtonPress	Neutral	True
619.77	0.16	Control	0.6364	0.004	No	2.776	-0.004	n/a	NoResponse	0	n/a	n/a	5	65	Target	Neutral	True
619.938	0.54	Control	0.6364	n/a	No	2.776	n/a	n/a	NoResponse	0	n/a	n/a	5	65	Blank	Neutral	True
620.473	1.45	Control	0.6364	n/a	No	2.776	n/a	5.0	NoResponse	0	0.033	619.506	5	65	Feedback	Neutral	True
621.927	2.776	Control	0.6364	n/a	No	2.776	n/a	n/a	NoResponse	0	0.0	n/a	5	65	ISIslide	Neutral	True
624.719	0.25	Win2	0.6418	0.0	Yes	2.781	0.019	n/a	GoodResponse	1	n/a	n/a	6	66	Cue	Win	True
624.969	3.9	Win2	0.6418	0.0	Yes	2.781	0.0	n/a	GoodResponse	1	n/a	n/a	6	66	Fixation	Win	True
628.881	0.17	Win2	0.6418	0.0	Yes	2.781	0.012	4.0	GoodResponse	1	0.158	628.039	6	66	Target	Win	True
629.039	0.3	Win2	0.6418	0.0	Yes	2.781	0.012	4.0	GoodResponse	1	0.158	n/a	6	66	ButtonPress	Win	True
629.048	0.53	Win2	0.6418	n/a	Yes	2.781	n/a	n/a	GoodResponse	1	n/a	n/a	6	66	Blank	Win	True
629.566	1.45	Win2	0.6418	n/a	Yes	2.781	n/a	5.0	GoodResponse	1	0.013	628.579	6	66	Feedback	Win	True
631.021	2.781	Win2	0.6418	n/a	Yes	2.781	n/a	n/a	GoodResponse	1	0.0	n/a	6	66	ISIslide	Win	True
633.813	0.25	Control	0.6324000000000001	0.0	No	2.737	0.013	n/a	NoResponse	0	n/a	n/a	6	67	Cue	Neutral	False
634.063	3.95	Control	0.6324000000000001	0.0	No	2.737	0.0	n/a	NoResponse	0	n/a	n/a	6	67	Fixation	Neutral	False
638.025	0.18	Control	0.6324000000000001	0.0	No	2.737	0.012	n/a	NoResponse	0	n/a	n/a	6	67	Target	Neutral	False
638.192	0.52	Control	0.6324000000000001	n/a	No	2.737	n/a	n/a	NoResponse	0	n/a	n/a	6	67	Blank	Neutral	False
638.71	1.45	Control	0.6324000000000001	n/a	No	2.737	n/a	5.0	NoResponse	0	0.039	637.749	6	67	Feedback	Neutral	False
640.165	2.737	Control	0.6324000000000001	n/a	No	2.737	n/a	n/a	NoResponse	0	0.0	n/a	6	67	ISIslide	Neutral	False
642.923	0.25	Win2	0.6377	0.0	Yes	3.077	0.023	n/a	GoodResponse	1	n/a	n/a	7	68	Cue	Win	True
643.174	4.0	Win2	0.6377	0.0	Yes	3.077	0.001	n/a	GoodResponse	1	n/a	n/a	7	68	Fixation	Win	True
647.169	0.19	Win2	0.6377	0.004	Yes	3.077	-0.004	4.0	GoodResponse	1	0.161	646.33	7	68	Target	Win	True
647.33	0.3	Win2	0.6377	0.004	Yes	3.077	-0.004	4.0	GoodResponse	1	0.161	n/a	7	68	ButtonPress	Win	True
647.37	0.51	Win2	0.6377	n/a	Yes	3.077	n/a	n/a	GoodResponse	1	n/a	n/a	7	68	Blank	Win	True
647.871	1.45	Win2	0.6377	n/a	Yes	3.077	n/a	5.0	GoodResponse	1	0.049	646.92	7	68	Feedback	Win	True
649.326	3.077	Win2	0.6377	n/a	Yes	3.077	n/a	n/a	GoodResponse	1	0.0	n/a	7	68	ISIslide	Win	True
652.418	0.25	Win2	0.6429	0.0	Yes	3.232	0.018	n/a	GoodResponse	1	n/a	n/a	8	69	Cue	Win	True
652.669	3.95	Win2	0.6429	0.0	Yes	3.232	0.001	n/a	GoodResponse	1	n/a	n/a	8	69	Fixation	Win	True
656.614	0.2	Win2	0.6429	0.004	Yes	3.232	-0.004	4.0	GoodResponse	1	0.172	655.786	8	69	Target	Win	True
656.786	0.3	Win2	0.6429	0.004	Yes	3.232	-0.004	4.0	GoodResponse	1	0.172	n/a	8	69	ButtonPress	Win	True
656.815	0.5	Win2	0.6429	n/a	Yes	3.232	n/a	n/a	GoodResponse	1	n/a	n/a	8	69	Blank	Win	True
657.316	1.45	Win2	0.6429	n/a	Yes	3.232	n/a	5.0	GoodResponse	1	0.019	656.335	8	69	Feedback	Win	True
658.771	3.232	Win2	0.6429	n/a	Yes	3.232	n/a	n/a	GoodResponse	1	0.0	n/a	8	69	ISIslide	Win	True
662.014	0.25	Lose2	0.6479	0.0	Yes	3.036	0.014	n/a	GoodResponse	0	n/a	n/a	8	70	Cue	AvoidedLoss	True
662.264	4.05	Lose2	0.6479	0.0	Yes	3.036	0.0	n/a	GoodResponse	0	n/a	n/a	8	70	Fixation	AvoidedLoss	True
666.31	0.21	Lose2	0.6479	0.004	Yes	3.036	-0.004	4.0	GoodResponse	0	0.174	665.484	8	70	Target	AvoidedLoss	True
666.484	0.3	Lose2	0.6479	0.004	Yes	3.036	-0.004	4.0	GoodResponse	0	0.174	n/a	8	70	ButtonPress	AvoidedLoss	True
666.527	0.49	Lose2	0.6479	n/a	Yes	3.036	n/a	n/a	GoodResponse	0	n/a	n/a	8	70	Blank	AvoidedLoss	True
667.012	1.45	Lose2	0.6479	n/a	Yes	3.036	n/a	5.0	GoodResponse	0	0.03	666.042	8	70	Feedback	AvoidedLoss	True
668.466	3.036	Lose2	0.6479	n/a	Yes	3.036	n/a	n/a	GoodResponse	0	0.0	n/a	8	70	ISIslide	AvoidedLoss	True
671.525	0.25	Win2	0.6528	0.0	Yes	2.725	0.025	n/a	GoodResponse	1	n/a	n/a	9	71	Cue	Win	True
671.776	4.05	Win2	0.6528	0.0	Yes	2.725	0.001	n/a	GoodResponse	1	n/a	n/a	9	71	Fixation	Win	True
675.822	0.22	Win2	0.6528	0.003	Yes	2.725	-0.003	4.0	GoodResponse	1	0.169	674.991	9	71	Target	Win	True
675.991	0.3	Win2	0.6528	0.003	Yes	2.725	-0.003	4.0	GoodResponse	1	0.169	n/a	9	71	ButtonPress	Win	True
676.056	0.48	Win2	0.6528	n/a	Yes	2.725	n/a	n/a	GoodResponse	1	n/a	n/a	9	71	Blank	Win	True
676.524	1.45	Win2	0.6528	n/a	Yes	2.725	n/a	5.0	GoodResponse	1	0.031	675.555	9	71	Feedback	Win	True
677.978	2.725	Win2	0.6528	n/a	Yes	2.725	n/a	n/a	GoodResponse	1	0.0	n/a	9	71	ISIslide	Win	True
680.72	0.25	Win2	0.6575	0.0	Yes	2.78	0.02	n/a	GoodResponse	1	n/a	n/a	10	72	Cue	Win	True
680.97	4.1	Win2	0.6575	0.0	Yes	2.78	0.0	n/a	GoodResponse	1	n/a	n/a	10	72	Fixation	Win	True
685.066	0.23	Win2	0.6575	0.004	Yes	2.78	-0.004	4.0	GoodResponse	1	0.157	684.223	10	72	Target	Win	True
685.223	0.3	Win2	0.6575	0.004	Yes	2.78	-0.004	4.0	GoodResponse	1	0.157	n/a	10	72	ButtonPress	Win	True
685.3	0.47	Win2	0.6575	n/a	Yes	2.78	n/a	n/a	GoodResponse	1	n/a	n/a	10	72	Blank	Win	True
685.768	1.45	Win2	0.6575	n/a	Yes	2.78	n/a	5.0	GoodResponse	1	0.005	684.773	10	72	Feedback	Win	True
687.222	2.78	Win2	0.6575	n/a	Yes	2.78	n/a	n/a	GoodResponse	1	0.0	n/a	10	72	ISIslide	Win	True
690.014	0.25	Win2	0.6622	0.0	Yes	2.686	0.014	n/a	GoodResponse	1	n/a	n/a	11	73	Cue	Win	True
690.265	4.0	Win2	0.6622	0.0	Yes	2.686	0.001	n/a	GoodResponse	1	n/a	n/a	11	73	Fixation	Win	True
694.26	0.23	Win2	0.6622	0.004	Yes	2.686	-0.004	4.0	GoodResponse	1	0.111	693.371	11	73	Target	Win	True
694.371	0.3	Win2	0.6622	0.004	Yes	2.686	-0.004	4.0	GoodResponse	1	0.111	n/a	11	73	ButtonPress	Win	True
694.494	0.47	Win2	0.6622	n/a	Yes	2.686	n/a	n/a	GoodResponse	1	n/a	n/a	11	73	Blank	Win	True
694.962	1.45	Win2	0.6622	n/a	Yes	2.686	n/a	5.0	GoodResponse	1	0.031	693.993	11	73	Feedback	Win	True
696.417	2.686	Win2	0.6622	n/a	Yes	2.686	n/a	n/a	GoodResponse	1	0.0	n/a	11	73	ISIslide	Win	True
699.125	0.25	Lose2	0.6667000000000001	0.0	Yes	2.625	0.025	n/a	GoodResponse	0	n/a	n/a	11	74	Cue	AvoidedLoss	True
699.375	4.05	Lose2	0.6667000000000001	0.0	Yes	2.625	0.0	n/a	GoodResponse	0	n/a	n/a	11	74	Fixation	AvoidedLoss	True
703.421	0.23	Lose2	0.6667000000000001	0.004	Yes	2.625	-0.004	4.0	GoodResponse	0	0.173	702.594	11	74	Target	AvoidedLoss	True
703.594	0.3	Lose2	0.6667000000000001	0.004	Yes	2.625	-0.004	4.0	GoodResponse	0	0.173	n/a	11	74	ButtonPress	AvoidedLoss	True
703.655	0.47	Lose2	0.6667000000000001	n/a	Yes	2.625	n/a	n/a	GoodResponse	0	n/a	n/a	11	74	Blank	AvoidedLoss	True
704.123	1.45	Lose2	0.6667000000000001	n/a	Yes	2.625	n/a	5.0	GoodResponse	0	0.041	703.164	11	74	Feedback	AvoidedLoss	True
705.577	2.625	Lose2	0.6667000000000001	n/a	Yes	2.625	n/a	n/a	GoodResponse	0	0.0	n/a	11	74	ISIslide	AvoidedLoss	True
708.219	0.25	Lose2	0.6711	0.0	Yes	2.931	0.019	n/a	GoodResponse	0	n/a	n/a	11	75	Cue	AvoidedLoss	True
708.469	3.95	Lose2	0.6711	0.0	Yes	2.931	0.0	n/a	GoodResponse	0	n/a	n/a	11	75	Fixation	AvoidedLoss	True
712.431	0.22	Lose2	0.6711	0.0	Yes	2.931	0.012	4.0	GoodResponse	0	0.181	711.612	11	75	Target	AvoidedLoss	True
712.612	0.3	Lose2	0.6711	0.0	Yes	2.931	0.012	4.0	GoodResponse	0	0.181	n/a	11	75	ButtonPress	AvoidedLoss	True
712.648	0.48	Lose2	0.6711	n/a	Yes	2.931	n/a	n/a	GoodResponse	0	n/a	n/a	11	75	Blank	AvoidedLoss	True
713.117	1.45	Lose2	0.6711	n/a	Yes	2.931	n/a	5.0	GoodResponse	0	0.022	712.139	11	75	Feedback	AvoidedLoss	True
714.571	2.931	Lose2	0.6711	n/a	Yes	2.931	n/a	n/a	GoodResponse	0	0.0	n/a	11	75	ISIslide	AvoidedLoss	True
717.513	0.25	Control	0.6623	0.0	No	3.237	0.013	n/a	NoResponse	0	n/a	n/a	11	76	Cue	Neutral	False
717.764	4.05	Control	0.6623	0.0	No	3.237	0.001	n/a	NoResponse	0	n/a	n/a	11	76	Fixation	Neutral	False
721.809	0.21	Control	0.6623	0.004	No	3.237	-0.004	n/a	NoResponse	0	n/a	n/a	11	76	Target	Neutral	False
722.027	0.49	Control	0.6623	n/a	No	3.237	n/a	n/a	NoResponse	0	n/a	n/a	11	76	Blank	Neutral	False
722.511	1.45	Control	0.6623	n/a	No	3.237	n/a	5.0	NoResponse	0	0.043	721.554	11	76	Feedback	Neutral	False
723.966	3.237	Control	0.6623	n/a	No	3.237	n/a	n/a	NoResponse	0	0.0	n/a	11	76	ISIslide	Neutral	False
727.225	0.25	Lose2	0.6667000000000001	0.001	Yes	2.575	0.025	n/a	GoodResponse	0	n/a	n/a	11	77	Cue	AvoidedLoss	True
727.476	3.95	Lose2	0.6667000000000001	0.0	Yes	2.575	0.001	n/a	GoodResponse	0	n/a	n/a	11	77	Fixation	AvoidedLoss	True
731.421	0.21	Lose2	0.6667000000000001	0.004	Yes	2.575	-0.004	4.0	GoodResponse	0	0.174	730.595	11	77	Target	AvoidedLoss	True
731.595	0.3	Lose2	0.6667000000000001	0.004	Yes	2.575	-0.004	4.0	GoodResponse	0	0.174	n/a	11	77	ButtonPress	AvoidedLoss	True
731.639	0.49	Lose2	0.6667000000000001	n/a	Yes	2.575	n/a	n/a	GoodResponse	0	n/a	n/a	11	77	Blank	AvoidedLoss	True
732.123	1.45	Lose2	0.6667000000000001	n/a	Yes	2.575	n/a	5.0	GoodResponse	0	0.04	731.163	11	77	Feedback	AvoidedLoss	True
733.578	2.575	Lose2	0.6667000000000001	n/a	Yes	2.575	n/a	n/a	GoodResponse	0	0.0	n/a	11	77	ISIslide	AvoidedLoss	True
