onset	duration	cue_type	current_mean_accuracy	duration_error	is_hit	isi_adjusted	onset_delay	response	response_type	reward	rt	rt_time	total_reward	trial_number	trial_phase	trial_type	one_press
11.105	0.25	Control	1.0	0.0	Yes	2.945	0.005	n/a	GoodResponse	0	n/a	n/a	0	0	Cue	Neutral	True
11.356	3.85	Control	1.0	0.0	Yes	2.945	0.001	n/a	GoodResponse	0	n/a	n/a	0	0	Fixation	Neutral	True
15.201	0.4	Control	1.0	0.004	Yes	2.945	-0.004	2.0	GoodResponse	0	0.223	14.424	0	0	Target	Neutral	True
15.424	0.3	Control	1.0	0.004	Yes	2.945	-0.004	2.0	GoodResponse	0	0.223	n/a	0	0	ButtonPress	Neutral	True
15.602	0.3	Control	1.0	n/a	Yes	2.945	n/a	n/a	GoodResponse	0	n/a	n/a	0	0	Blank	Neutral	True
15.903	1.45	Control	1.0	n/a	Yes	2.945	n/a	5.0	GoodResponse	0	0.024	14.927	0	0	Feedback	Neutral	True
17.357	2.945	Control	1.0	n/a	Yes	2.945	n/a	n/a	GoodResponse	0	0.0	n/a	0	0	ISIslide	Neutral	True
20.316	0.25	Lose2	1.0	0.0	Yes	2.784	0.016	n/a	GoodResponse	0	n/a	n/a	0	1	Cue	AvoidedLoss	True
20.567	4.0	Lose2	1.0	0.0	Yes	2.784	0.001	n/a	GoodResponse	0	n/a	n/a	0	1	Fixation	AvoidedLoss	True
24.562	0.39	Lose2	1.0	0.004	Yes	2.784	-0.004	2.0	GoodResponse	0	0.187	23.749	0	1	Target	AvoidedLoss	True
24.749	0.3	Lose2	1.0	0.004	Yes	2.784	-0.004	2.0	GoodResponse	0	0.187	n/a	0	1	ButtonPress	AvoidedLoss	True
24.963	0.31	Lose2	1.0	n/a	Yes	2.784	n/a	n/a	GoodResponse	0	n/a	n/a	0	1	Blank	AvoidedLoss	True
25.264	1.45	Lose2	1.0	n/a	Yes	2.784	n/a	5.0	GoodResponse	0	0.029	24.293	0	1	Feedback	AvoidedLoss	True
26.719	2.784	Lose2	1.0	n/a	Yes	2.784	n/a	n/a	GoodResponse	0	0.0	n/a	0	1	ISIslide	AvoidedLoss	True
29.527	0.25	Control	1.0	0.0	Yes	2.573	0.027	n/a	GoodResponse	0	n/a	n/a	0	2	Cue	Neutral	True
29.778	4.1	Control	1.0	0.0	Yes	2.573	0.001	n/a	GoodResponse	0	n/a	n/a	0	2	Fixation	Neutral	True
33.873	0.38	Control	1.0	0.004	Yes	2.573	-0.004	2.0	GoodResponse	0	0.183	33.056	0	2	Target	Neutral	True
34.056	0.3	Control	1.0	0.004	Yes	2.573	-0.004	2.0	GoodResponse	0	0.183	n/a	0	2	ButtonPress	Neutral	True
34.258	0.32	Control	1.0	n/a	Yes	2.573	n/a	n/a	GoodResponse	0	n/a	n/a	0	2	Blank	Neutral	True
34.576	1.45	Control	1.0	n/a	Yes	2.573	n/a	5.0	GoodResponse	0	0.034	33.61	0	2	Feedback	Neutral	True
36.03	2.573	Control	1.0	n/a	Yes	2.573	n/a	n/a	GoodResponse	0	0.0	n/a	0	2	ISIslide	Neutral	True
38.621	0.25	Win2	1.0	0.0	Yes	2.829	0.021	n/a	GoodResponse	1	n/a	n/a	1	3	Cue	Win	True
38.872	3.95	Win2	1.0	0.0	Yes	2.829	0.001	n/a	GoodResponse	1	n/a	n/a	1	3	Fixation	Win	True
42.817	0.37	Win2	1.0	0.004	Yes	2.829	-0.004	2.0	GoodResponse	1	0.195	42.012	1	3	Target	Win	True
43.012	0.3	Win2	1.0	0.004	Yes	2.829	-0.004	2.0	GoodResponse	1	0.195	n/a	1	3	ButtonPress	Win	True
43.201	0.33	Win2	1.0	n/a	Yes	2.829	n/a	n/a	GoodResponse	1	n/a	n/a	1	3	Blank	Win	True
43.519	1.45	Win2	1.0	n/a	Yes	2.829	n/a	5.0	GoodResponse	1	0.017	42.536	1	3	Feedback	Win	True
44.973	2.829	Win2	1.0	n/a	Yes	2.829	n/a	n/a	GoodResponse	1	0.0	n/a	1	3	ISIslide	Win	True
47.815	0.25	Win2	1.0	0.0	Yes	3.285	0.015	n/a	GoodResponse	1	n/a	n/a	2	4	Cue	Win	True
48.066	4.0	Win2	1.0	0.0	Yes	3.285	0.001	n/a	GoodResponse	1	n/a	n/a	2	4	Fixation	Win	True
52.061	0.36	Win2	1.0	0.004	Yes	3.285	-0.004	2.0	GoodResponse	1	0.25	51.311	2	4	Target	Win	True
52.311	0.3	Win2	1.0	0.004	Yes	3.285	-0.004	2.0	GoodResponse	1	0.25	n/a	2	4	ButtonPress	Win	True
52.429	0.34	Win2	1.0	n/a	Yes	3.285	n/a	n/a	GoodResponse	1	n/a	n/a	2	4	Blank	Win	True
52.763	1.45	Win2	1.0	n/a	Yes	3.285	n/a	5.0	GoodResponse	1	0.042	51.805	2	4	Feedback	Win	True
54.218	3.285	Win2	1.0	n/a	Yes	3.285	n/a	n/a	GoodResponse	1	0.0	n/a	2	4	ISIslide	Win	True
57.528	0.25	Win2	1.0	0.0	Yes	2.772	0.028	n/a	GoodResponse	1	n/a	n/a	3	5	Cue	Win	True
57.778	4.0	Win2	1.0	0.0	Yes	2.772	0.0	n/a	GoodResponse	1	n/a	n/a	3	5	Fixation	Win	True
61.774	0.35	Win2	1.0	0.004	Yes	2.772	-0.004	2.0	GoodResponse	1	0.207	60.981	3	5	Target	Win	True
61.981	0.3	Win2	1.0	0.004	Yes	2.772	-0.004	2.0	GoodResponse	1	0.207	n/a	3	5	ButtonPress	Win	True
62.125	0.35	Win2	1.0	n/a	Yes	2.772	n/a	n/a	GoodResponse	1	n/a	n/a	3	5	Blank	Win	True
62.476	1.45	Win2	1.0	n/a	Yes	2.772	n/a	5.0	GoodResponse	1	0.036	61.512	3	5	Feedback	Win	True
63.93	2.772	Win2	1.0	n/a	Yes	2.772	n/a	n/a	GoodResponse	1	0.0	n/a	3	5	ISIslide	Win	True
66.722	0.25	Lose2	1.0	0.0	Yes	2.728	0.022	n/a	GoodResponse	0	n/a	n/a	3	6	Cue	AvoidedLoss	True
66.973	3.95	Lose2	1.0	0.0	Yes	2.728	0.001	n/a	GoodResponse	0	n/a	n/a	3	6	Fixation	AvoidedLoss	True
70.918	0.34	Lose2	1.0	0.004	Yes	2.728	-0.004	2.0	GoodResponse	0	0.29	70.208	3	6	Target	AvoidedLoss	True
71.208	0.3	Lose2	1.0	0.004	Yes	2.728	-0.004	2.0	GoodResponse	0	0.29	n/a	3	6	ButtonPress	AvoidedLoss	True
71.269	0.36	Lose2	1.0	n/a	Yes	2.728	n/a	n/a	GoodResponse	0	n/a	n/a	3	6	Blank	AvoidedLoss	True
71.62	1.45	Lose2	1.0	n/a	Yes	2.728	n/a	5.0	GoodResponse	0	0.014	70.634	3	6	Feedback	AvoidedLoss	True
73.074	2.728	Lose2	1.0	n/a	Yes	2.728	n/a	n/a	GoodResponse	0	0.0	n/a	3	6	ISIslide	AvoidedLoss	True
75.816	0.25	Lose2	1.0	0.0	Yes	4.034	0.016	n/a	GoodResponse	0	n/a	n/a	3	7	Cue	AvoidedLoss	True
76.066	4.05	Lose2	1.0	0.0	Yes	4.034	0.0	n/a	GoodResponse	0	n/a	n/a	3	7	Fixation	AvoidedLoss	True
80.112	0.33	Lose2	1.0	0.004	Yes	4.034	-0.004	2.0	GoodResponse	0	0.194	79.306	3	7	Target	AvoidedLoss	True
80.306	0.3	Lose2	1.0	0.004	Yes	4.034	-0.004	2.0	GoodResponse	0	0.194	n/a	3	7	ButtonPress	AvoidedLoss	True
80.446	0.37	Lose2	1.0	n/a	Yes	4.034	n/a	n/a	GoodResponse	0	n/a	n/a	3	7	Blank	AvoidedLoss	True
80.814	1.45	Lose2	1.0	n/a	Yes	4.034	n/a	5.0	GoodResponse	0	0.04	79.854	3	7	Feedback	AvoidedLoss	True
82.268	4.034	Lose2	1.0	n/a	Yes	4.034	n/a	n/a	GoodResponse	0	0.0	n/a	3	7	ISIslide	AvoidedLoss	True
86.314	0.25	Lose2	1.0	0.0	Yes	3.036	0.014	n/a	GoodResponse	0	n/a	n/a	3	8	Cue	AvoidedLoss	True
86.564	3.95	Lose2	1.0	0.001	Yes	3.036	0.0	n/a	GoodResponse	0	n/a	n/a	3	8	Fixation	AvoidedLoss	True
90.51	0.32	Lose2	1.0	0.004	Yes	3.036	-0.004	2.0	GoodResponse	0	0.312	89.822	3	8	Target	AvoidedLoss	True
90.822	0.3	Lose2	1.0	0.004	Yes	3.036	-0.004	2.0	GoodResponse	0	0.312	n/a	3	8	ButtonPress	AvoidedLoss	True
90.844	0.38	Lose2	1.0	n/a	Yes	3.036	n/a	n/a	GoodResponse	0	n/a	n/a	3	8	Blank	AvoidedLoss	True
91.212	1.45	Lose2	1.0	n/a	Yes	3.036	n/a	5.0	GoodResponse	0	0.031	90.243	3	8	Feedback	AvoidedLoss	True
92.666	3.036	Lose2	1.0	n/a	Yes	3.036	n/a	n/a	GoodResponse	0	0.0	n/a	3	8	ISIslide	AvoidedLoss	True
95.725	0.25	Lose2	1.0	0.0	Yes	3.125	0.025	n/a	GoodResponse	0	n/a	n/a	3	9	Cue	AvoidedLoss	True
95.976	3.95	Lose2	1.0	0.0	Yes	3.125	0.001	n/a	GoodResponse	0	n/a	n/a	3	9	Fixation	AvoidedLoss	True
99.921	0.31	Lose2	1.0	0.004	Yes	3.125	-0.004	2.0	GoodResponse	0	0.183	99.104	3	9	Target	AvoidedLoss	True
100.104	0.3	Lose2	1.0	0.004	Yes	3.125	-0.004	2.0	GoodResponse	0	0.183	n/a	3	9	ButtonPress	AvoidedLoss	True
100.239	0.39	Lose2	1.0	n/a	Yes	3.125	n/a	n/a	GoodResponse	0	n/a	n/a	3	9	Blank	AvoidedLoss	True
100.623	1.45	Lose2	1.0	n/a	Yes	3.125	n/a	5.0	GoodResponse	0	0.035	99.658	3	9	Feedback	AvoidedLoss	True
102.078	3.125	Lose2	1.0	n/a	Yes	3.125	n/a	n/a	GoodResponse	0	0.0	n/a	3	9	ISIslide	AvoidedLoss	True
105.22	0.25	Control	1.0	0.0	Yes	3.28	0.02	n/a	GoodResponse	0	n/a	n/a	3	10	Cue	Neutral	True
105.471	4.0	Control	1.0	0.0	Yes	3.28	0.001	n/a	GoodResponse	0	n/a	n/a	3	10	Fixation	Neutral	True
109.466	0.3	Control	1.0	0.004	Yes	3.28	-0.004	2.0	GoodResponse	0	0.179	108.645	3	10	Target	Neutral	True
109.645	0.3	Control	1.0	0.004	Yes	3.28	-0.004	2.0	GoodResponse	0	0.179	n/a	3	10	ButtonPress	Neutral	True
109.767	0.4	Control	1.0	n/a	Yes	3.28	n/a	n/a	GoodResponse	0	n/a	n/a	3	10	Blank	Neutral	True
110.168	1.45	Control	1.0	n/a	Yes	3.28	n/a	5.0	GoodResponse	0	0.002	109.17	3	10	Feedback	Neutral	True
111.623	3.28	Control	1.0	n/a	Yes	3.28	n/a	n/a	GoodResponse	0	0.0	n/a	3	10	ISIslide	Neutral	True
114.916	0.25	Lose2	0.9167000000000001	0.0	No	2.734	0.016	n/a	LatePress	-1	n/a	n/a	2	11	Cue	Loss	True
115.167	4.05	Lose2	0.9167000000000001	0.0	No	2.734	0.001	n/a	LatePress	-1	n/a	n/a	2	11	Fixation	Loss	True
119.212	0.29	Lose2	0.9167000000000001	0.004	No	2.734	-0.004	2.0	LatePress	-1	0.3	118.512	2	11	Target	Loss	True
119.512	0.3	Lose2	0.9167000000000001	0.004	No	2.734	-0.004	2.0	LatePress	-1	0.3	n/a	2	11	ButtonPress	Loss	True
119.513	0.41	Lose2	0.9167000000000001	n/a	No	2.734	n/a	n/a	LatePress	-1	n/a	n/a	2	11	Blank	Loss	True
119.914	1.45	Lose2	0.9167000000000001	n/a	No	2.734	n/a	5.0	LatePress	-1	0.012	118.926	2	11	Feedback	Loss	True
121.369	2.734	Lose2	0.9167000000000001	n/a	No	2.734	n/a	n/a	LatePress	-1	0.0	n/a	2	11	ISIslide	Loss	True
124.127	0.25	Control	0.9231	0.0	Yes	2.973	0.027	n/a	GoodResponse	0	n/a	n/a	2	12	Cue	Neutral	True
124.378	3.9	Control	0.9231	0.0	Yes	2.973	0.001	n/a	GoodResponse	0	n/a	n/a	2	12	Fixation	Neutral	True
128.273	0.28	Control	0.9231	0.004	Yes	2.973	-0.004	2.0	GoodResponse	0	0.223	127.496	2	12	Target	Neutral	True
128.496	0.3	Control	0.9231	0.004	Yes	2.973	-0.004	2.0	GoodResponse	0	0.223	n/a	2	12	ButtonPress	Neutral	True
128.557	0.42	Control	0.9231	n/a	Yes	2.973	n/a	n/a	GoodResponse	0	n/a	n/a	2	12	Blank	Neutral	True
128.975	1.45	Control	0.9231	n/a	Yes	2.973	n/a	5.0	GoodResponse	0	0.025	128.0	2	12	Feedback	Neutral	True
130.429	2.973	Control	0.9231	n/a	Yes	2.973	n/a	n/a	GoodResponse	0	0.0	n/a	2	12	ISIslide	Neutral	True
133.421	0.25	Control	0.9286	0.001	Yes	2.779	0.021	n/a	GoodResponse	0	n/a	n/a	2	13	Cue	Neutral	True
133.672	4.0	Control	0.9286	0.0	Yes	2.779	0.001	n/a	GoodResponse	0	n/a	n/a	2	13	Fixation	Neutral	True
137.667	0.27	Control	0.9286	0.004	Yes	2.779	-0.004	2.0	GoodResponse	0	0.206	136.873	2	13	Target	Neutral	True
137.873	0.3	Control	0.9286	0.004	Yes	2.779	-0.004	2.0	GoodResponse	0	0.206	n/a	2	13	ButtonPress	Neutral	True
137.952	0.43	Control	0.9286	n/a	Yes	2.779	n/a	n/a	GoodResponse	0	n/a	n/a	2	13	Blank	Neutral	True
138.37	1.45	Control	0.9286	n/a	Yes	2.779	n/a	5.0	GoodResponse	0	0.043	137.413	2	13	Feedback	Neutral	True
139.824	2.779	Control	0.9286	n/a	Yes	2.779	n/a	n/a	GoodResponse	0	0.0	n/a	2	13	ISIslide	Neutral	True
142.616	0.25	Win2	0.9333	0.0	Yes	2.684	0.016	n/a	GoodResponse	1	n/a	n/a	3	14	Cue	Win	True
142.866	4.1	Win2	0.9333	0.0	Yes	2.684	0.0	n/a	GoodResponse	1	n/a	n/a	3	14	Fixation	Win	True
146.962	0.26	Win2	0.9333	0.004	Yes	2.684	-0.004	2.0	GoodResponse	1	0.175	146.137	3	14	Target	Win	True
147.137	0.3	Win2	0.9333	0.004	Yes	2.684	-0.004	2.0	GoodResponse	1	0.175	n/a	3	14	ButtonPress	Win	True
147.229	0.44	Win2	0.9333	n/a	Yes	2.684	n/a	n/a	GoodResponse	1	n/a	n/a	3	14	Blank	Win	True
147.664	1.45	Win2	0.9333	n/a	Yes	2.684	n/a	5.0	GoodResponse	1	0.018	146.682	3	14	Feedback	Win	True
149.118	2.684	Win2	0.9333	n/a	Yes	2.684	n/a	n/a	GoodResponse	1	0.0	n/a	3	14	ISIslide	Win	True
151.827	0.25	Control	0.875	0.0	No	2.973	0.027	n/a	NoResponse	0	n/a	n/a	3	15	Cue	Neutral	False
152.077	4.0	Control	0.875	0.0	No	2.973	0.0	2.0	NoResponse	0	3.014	154.091	3	15	Fixation	Neutral	False
155.091	0.3	Control	0.875	0.0	No	2.973	0.0	2.0	NoResponse	0	3.014	n/a	3	15	ButtonPress	Neutral	False
156.073	0.25	Control	0.875	0.004	No	2.973	-0.004	2.0	NoResponse	0	0.259	155.332	3	15	Target	Neutral	False
156.323	0.45	Control	0.875	n/a	No	2.973	n/a	n/a	NoResponse	0	n/a	n/a	3	15	Blank	Neutral	False
156.332	0.3	Control	0.875	0.004	No	2.973	-0.004	2.0	NoResponse	0	0.259	n/a	3	15	ButtonPress	Neutral	False
156.775	1.45	Control	0.875	n/a	No	2.973	n/a	5.0	NoResponse	0	0.029	155.804	3	15	Feedback	Neutral	False
158.229	2.973	Control	0.875	n/a	No	2.973	n/a	n/a	NoResponse	0	0.0	n/a	3	15	ISIslide	Neutral	False
161.221	0.25	Win2	0.8234999999999999	0.0	No	2.879	0.021	n/a	NoResponse	0	n/a	n/a	3	16	Cue	MissedWin	True
161.472	4.0	Win2	0.8234999999999999	0.0	No	2.879	0.001	n/a	NoResponse	0	n/a	n/a	3	16	Fixation	MissedWin	True
165.467	0.24	Win2	0.8234999999999999	0.004	No	2.879	-0.004	2.0	NoResponse	0	0.27	164.737	3	16	Target	MissedWin	True
165.718	0.46	Win2	0.8234999999999999	n/a	No	2.879	n/a	n/a	NoResponse	0	n/a	n/a	3	16	Blank	MissedWin	True
165.737	0.3	Win2	0.8234999999999999	0.004	No	2.879	-0.004	2.0	NoResponse	0	0.27	n/a	3	16	ButtonPress	MissedWin	True
166.169	1.45	Win2	0.8234999999999999	n/a	No	2.879	n/a	5.0	NoResponse	0	0.001	165.17	3	16	Feedback	MissedWin	True
167.624	2.879	Win2	0.8234999999999999	n/a	No	2.879	n/a	n/a	NoResponse	0	0.0	n/a	3	16	ISIslide	MissedWin	True
170.516	0.25	Lose2	0.8332999999999999	0.0	Yes	2.734	0.016	n/a	GoodResponse	0	n/a	n/a	3	17	Cue	AvoidedLoss	True
170.767	3.95	Lose2	0.8332999999999999	0.0	Yes	2.734	0.001	n/a	GoodResponse	0	n/a	n/a	3	17	Fixation	AvoidedLoss	True
174.712	0.23	Lose2	0.8332999999999999	0.004	Yes	2.734	-0.004	2.0	GoodResponse	0	0.211	173.923	3	17	Target	AvoidedLoss	True
174.923	0.3	Lose2	0.8332999999999999	0.004	Yes	2.734	-0.004	2.0	GoodResponse	0	0.211	n/a	3	17	ButtonPress	AvoidedLoss	True
174.946	0.47	Lose2	0.8332999999999999	n/a	Yes	2.734	n/a	n/a	GoodResponse	0	n/a	n/a	3	17	Blank	AvoidedLoss	True
175.414	1.45	Lose2	0.8332999999999999	n/a	Yes	2.734	n/a	5.0	GoodResponse	0	0.024	174.438	3	17	Feedback	AvoidedLoss	True
176.868	2.734	Lose2	0.8332999999999999	n/a	Yes	2.734	n/a	n/a	GoodResponse	0	0.0	n/a	3	17	ISIslide	AvoidedLoss	True
179.626	0.25	Lose2	0.8421	0.0	Yes	2.724	0.026	n/a	GoodResponse	0	n/a	n/a	3	18	Cue	AvoidedLoss	True
179.877	4.05	Lose2	0.8421	0.0	Yes	2.724	0.001	n/a	GoodResponse	0	n/a	n/a	3	18	Fixation	AvoidedLoss	True
183.923	0.22	Lose2	0.8421	0.003	Yes	2.724	-0.003	2.0	GoodResponse	0	0.183	183.106	3	18	Target	AvoidedLoss	True
184.106	0.3	Lose2	0.8421	0.003	Yes	2.724	-0.003	2.0	GoodResponse	0	0.183	n/a	3	18	ButtonPress	AvoidedLoss	True
184.157	0.48	Lose2	0.8421	n/a	Yes	2.724	n/a	n/a	GoodResponse	0	n/a	n/a	3	18	Blank	AvoidedLoss	True
184.625	1.45	Lose2	0.8421	n/a	Yes	2.724	n/a	5.0	GoodResponse	0	0.033	183.658	3	18	Feedback	AvoidedLoss	True
186.079	2.724	Lose2	0.8421	n/a	Yes	2.724	n/a	n/a	GoodResponse	0	0.0	n/a	3	18	ISIslide	AvoidedLoss	True
188.821	0.25	Control	0.85	0.0	Yes	2.929	0.021	n/a	GoodResponse	0	n/a	n/a	3	19	Cue	Neutral	True
189.071	3.95	Control	0.85	0.0	Yes	2.929	0.0	n/a	GoodResponse	0	n/a	n/a	3	19	Fixation	Neutral	True
193.033	0.21	Control	0.85	0.0	Yes	2.929	0.012	2.0	GoodResponse	0	0.194	192.227	3	19	Target	Neutral	True
193.227	0.3	Control	0.85	0.0	Yes	2.929	0.012	2.0	GoodResponse	0	0.194	n/a	3	19	ButtonPress	Neutral	True
193.234	0.49	Control	0.85	n/a	Yes	2.929	n/a	n/a	GoodResponse	0	n/a	n/a	3	19	Blank	Neutral	True
193.719	1.45	Control	0.85	n/a	Yes	2.929	n/a	5.0	GoodResponse	0	0.011	192.73	3	19	Feedback	Neutral	True
195.173	2.929	Control	0.85	n/a	Yes	2.929	n/a	n/a	GoodResponse	0	0.0	n/a	3	19	ISIslide	Neutral	True
198.115	0.25	Control	0.8095	0.0	No	2.635	0.015	n/a	NoResponse	0	n/a	n/a	3	20	Cue	Neutral	True
198.366	4.05	Control	0.8095	0.0	No	2.635	0.001	2.0	NoResponse	0	4.005	201.371	3	20	Fixation	Neutral	True
202.371	0.3	Control	0.8095	0.0	No	2.635	0.001	2.0	NoResponse	0	4.005	n/a	3	20	ButtonPress	Neutral	True
202.411	0.2	Control	0.8095	0.004	No	2.635	-0.004	n/a	NoResponse	0	n/a	n/a	3	20	Target	Neutral	True
202.612	0.5	Control	0.8095	n/a	No	2.635	n/a	n/a	NoResponse	0	n/a	n/a	3	20	Blank	Neutral	True
203.113	1.45	Control	0.8095	n/a	No	2.635	n/a	5.0	NoResponse	0	0.032	202.145	3	20	Feedback	Neutral	True
204.568	2.635	Control	0.8095	n/a	No	2.635	n/a	n/a	NoResponse	0	0.0	n/a	3	20	ISIslide	Neutral	True
207.226	0.25	Control	0.7726999999999999	0.0	No	2.774	0.026	n/a	NoResponse	0	n/a	n/a	3	21	Cue	Neutral	True
207.476	4.1	Control	0.7726999999999999	0.001	No	2.774	0.0	n/a	NoResponse	0	n/a	n/a	3	21	Fixation	Neutral	True
211.572	0.19	Control	0.7726999999999999	0.004	No	2.774	-0.004	2.0	NoResponse	0	0.215	210.787	3	21	Target	Neutral	True
211.773	0.51	Control	0.7726999999999999	n/a	No	2.774	n/a	n/a	NoResponse	0	n/a	n/a	3	21	Blank	Neutral	True
211.787	0.3	Control	0.7726999999999999	0.004	No	2.774	-0.004	2.0	NoResponse	0	0.215	n/a	3	21	ButtonPress	Neutral	True
212.274	1.45	Control	0.7726999999999999	n/a	No	2.774	n/a	5.0	NoResponse	0	0.042	211.316	3	21	Feedback	Neutral	True
213.728	2.774	Control	0.7726999999999999	n/a	No	2.774	n/a	n/a	NoResponse	0	0.0	n/a	3	21	ISIslide	Neutral	True
216.52	0.25	Control	0.7391	0.0	No	2.78	0.02	n/a	NoResponse	0	n/a	n/a	3	22	Cue	Neutral	True
216.771	4.0	Control	0.7391	0.0	No	2.78	0.001	n/a	NoResponse	0	n/a	n/a	3	22	Fixation	Neutral	True
220.766	0.18	Control	0.7391	0.004	No	2.78	-0.004	2.0	NoResponse	0	0.54	220.306	3	22	Target	Neutral	True
220.95	0.52	Control	0.7391	n/a	No	2.78	n/a	n/a	NoResponse	0	n/a	n/a	3	22	Blank	Neutral	True
221.306	0.3	Control	0.7391	0.004	No	2.78	-0.004	2.0	NoResponse	0	0.54	n/a	3	22	ButtonPress	Neutral	True
221.468	1.45	Control	0.7391	n/a	No	2.78	n/a	5.0	NoResponse	0	0.018	220.486	3	22	Feedback	Neutral	True
222.923	2.78	Control	0.7391	n/a	No	2.78	n/a	n/a	NoResponse	0	0.0	n/a	3	22	ISIslide	Neutral	True
225.714	0.25	Control	0.7082999999999999	0.0	No	2.786	0.014	n/a	NoResponse	0	n/a	n/a	3	23	Cue	Neutral	True
225.965	3.9	Control	0.7082999999999999	0.0	No	2.786	0.001	n/a	NoResponse	0	n/a	n/a	3	23	Fixation	Neutral	True
229.86	0.17	Control	0.7082999999999999	0.004	No	2.786	-0.004	2.0	NoResponse	0	0.286	229.146	3	23	Target	Neutral	True
230.044	0.53	Control	0.7082999999999999	n/a	No	2.786	n/a	n/a	NoResponse	0	n/a	n/a	3	23	Blank	Neutral	True
230.146	0.3	Control	0.7082999999999999	0.004	No	2.786	-0.004	2.0	NoResponse	0	0.286	n/a	3	23	ButtonPress	Neutral	True
230.562	1.45	Control	0.7082999999999999	n/a	No	2.786	n/a	5.0	NoResponse	0	0.047	229.609	3	23	Feedback	Neutral	True
232.017	2.786	Control	0.7082999999999999	n/a	No	2.786	n/a	n/a	NoResponse	0	0.0	n/a	3	23	ISIslide	Neutral	True
234.825	0.25	Win2	0.68	0.0	No	3.125	0.025	n/a	NoResponse	0	n/a	n/a	3	24	Cue	MissedWin	True
235.076	3.95	Win2	0.68	0.0	No	3.125	0.001	n/a	NoResponse	0	n/a	n/a	3	24	Fixation	MissedWin	True
239.021	0.16	Win2	0.68	0.004	No	3.125	-0.004	2.0	NoResponse	0	0.172	238.193	3	24	Target	MissedWin	True
239.188	0.54	Win2	0.68	n/a	No	3.125	n/a	n/a	NoResponse	0	n/a	n/a	3	24	Blank	MissedWin	True
239.193	0.3	Win2	0.68	0.004	No	3.125	-0.004	2.0	NoResponse	0	0.172	n/a	3	24	ButtonPress	MissedWin	True
239.723	1.45	Win2	0.68	n/a	No	3.125	n/a	5.0	NoResponse	0	0.007	238.73	3	24	Feedback	MissedWin	True
241.177	3.125	Win2	0.68	n/a	No	3.125	n/a	n/a	NoResponse	0	0.0	n/a	3	24	ISIslide	MissedWin	True
244.32	0.25	Win2	0.6537999999999999	0.0	No	3.08	0.02	n/a	NoResponse	0	n/a	n/a	3	25	Cue	MissedWin	True
244.571	4.0	Win2	0.6537999999999999	0.0	No	3.08	0.001	n/a	NoResponse	0	n/a	n/a	3	25	Fixation	MissedWin	True
248.566	0.15	Win2	0.6537999999999999	0.004	No	3.08	-0.004	2.0	NoResponse	0	0.179	247.745	3	25	Target	MissedWin	True
248.717	0.55	Win2	0.6537999999999999	n/a	No	3.08	n/a	n/a	NoResponse	0	n/a	n/a	3	25	Blank	MissedWin	True
248.745	0.3	Win2	0.6537999999999999	0.004	No	3.08	-0.004	2.0	NoResponse	0	0.179	n/a	3	25	ButtonPress	MissedWin	True
249.268	1.45	Win2	0.6537999999999999	n/a	No	3.08	n/a	5.0	NoResponse	0	0.023	248.291	3	25	Feedback	MissedWin	True
250.723	3.08	Win2	0.6537999999999999	n/a	No	3.08	n/a	n/a	NoResponse	0	0.0	n/a	3	25	ISIslide	MissedWin	True
253.815	0.25	Win2	0.6296	0.0	No	2.935	0.015	n/a	NoResponse	0	n/a	n/a	3	26	Cue	MissedWin	False
254.066	3.95	Win2	0.6296	0.0	No	2.935	0.001	2.0	NoResponse	0	3.427	256.493	3	26	Fixation	MissedWin	False
257.493	0.3	Win2	0.6296	0.0	No	2.935	0.001	2.0	NoResponse	0	3.427	n/a	3	26	ButtonPress	MissedWin	False
258.011	0.16	Win2	0.6296	0.004	No	2.935	-0.004	2.0	NoResponse	0	0.175	257.186	3	26	Target	MissedWin	False
258.178	0.54	Win2	0.6296	n/a	No	2.935	n/a	n/a	NoResponse	0	n/a	n/a	3	26	Blank	MissedWin	False
258.186	0.3	Win2	0.6296	0.004	No	2.935	-0.004	2.0	NoResponse	0	0.175	n/a	3	26	ButtonPress	MissedWin	False
258.713	1.45	Win2	0.6296	n/a	No	2.935	n/a	5.0	NoResponse	0	0.041	257.754	3	26	Feedback	MissedWin	False
260.167	2.935	Win2	0.6296	n/a	No	2.935	n/a	n/a	NoResponse	0	0.0	n/a	3	26	ISIslide	MissedWin	False
263.126	0.25	Lose2	0.6429	0.0	Yes	2.824	0.026	n/a	GoodResponse	0	n/a	n/a	3	27	Cue	AvoidedLoss	False
263.377	4.05	Lose2	0.6429	0.0	Yes	2.824	0.001	2.0	GoodResponse	0	3.746	266.123	3	27	Fixation	AvoidedLoss	False
267.123	0.3	Lose2	0.6429	0.0	Yes	2.824	0.001	2.0	GoodResponse	0	3.746	n/a	3	27	ButtonPress	AvoidedLoss	False
267.423	0.17	Lose2	0.6429	0.003	Yes	2.824	-0.003	2.0	GoodResponse	0	0.122	266.545	3	27	Target	AvoidedLoss	False
267.545	0.3	Lose2	0.6429	0.003	Yes	2.824	-0.003	2.0	GoodResponse	0	0.122	n/a	3	27	ButtonPress	AvoidedLoss	False
267.606	0.53	Lose2	0.6429	n/a	Yes	2.824	n/a	n/a	GoodResponse	0	n/a	n/a	3	27	Blank	AvoidedLoss	False
268.125	1.45	Lose2	0.6429	n/a	Yes	2.824	n/a	5.0	GoodResponse	0	0.044	267.169	3	27	Feedback	AvoidedLoss	False
269.579	2.824	Lose2	0.6429	n/a	Yes	2.824	n/a	n/a	GoodResponse	0	0.0	n/a	3	27	ISIslide	AvoidedLoss	False
272.421	0.25	Control	0.6207	0.0	No	2.829	0.021	n/a	NoResponse	0	n/a	n/a	3	28	Cue	Neutral	True
272.672	4.05	Control	0.6207	0.0	No	2.829	0.001	n/a	NoResponse	0	n/a	n/a	3	28	Fixation	Neutral	True
276.717	0.18	Control	0.6207	0.004	No	2.829	-0.004	2.0	NoResponse	0	0.2	275.917	3	28	Target	Neutral	True
276.901	0.52	Control	0.6207	n/a	No	2.829	n/a	n/a	NoResponse	0	n/a	n/a	3	28	Blank	Neutral	True
276.917	0.3	Control	0.6207	0.004	No	2.829	-0.004	2.0	NoResponse	0	0.2	n/a	3	28	ButtonPress	Neutral	True
277.419	1.45	Control	0.6207	n/a	No	2.829	n/a	5.0	NoResponse	0	0.018	276.437	3	28	Feedback	Neutral	True
278.873	2.829	Control	0.6207	n/a	No	2.829	n/a	n/a	NoResponse	0	0.0	n/a	3	28	ISIslide	Neutral	True
281.715	0.25	Lose2	0.6	0.0	No	2.835	0.015	n/a	NoResponse	-1	n/a	n/a	2	29	Cue	Loss	True
281.966	3.95	Lose2	0.6	0.0	No	2.835	0.001	n/a	NoResponse	-1	n/a	n/a	2	29	Fixation	Loss	True
285.911	0.19	Lose2	0.6	0.004	No	2.835	-0.004	2.0	NoResponse	-1	0.213	285.124	2	29	Target	Loss	True
286.112	0.51	Lose2	0.6	n/a	No	2.835	n/a	n/a	NoResponse	-1	n/a	n/a	2	29	Blank	Loss	True
286.124	0.3	Lose2	0.6	0.004	No	2.835	-0.004	2.0	NoResponse	-1	0.213	n/a	2	29	ButtonPress	Loss	True
286.613	1.45	Lose2	0.6	n/a	No	2.835	n/a	5.0	NoResponse	-1	0.044	285.657	2	29	Feedback	Loss	True
288.068	2.835	Lose2	0.6	n/a	No	2.835	n/a	n/a	NoResponse	-1	0.0	n/a	2	29	ISIslide	Loss	True
290.926	0.25	Win2	0.5806	0.0	No	2.774	0.026	n/a	NoResponse	0	n/a	n/a	2	30	Cue	MissedWin	True
291.177	3.9	Win2	0.5806	0.0	No	2.774	0.001	n/a	NoResponse	0	n/a	n/a	2	30	Fixation	MissedWin	True
295.072	0.2	Win2	0.5806	0.004	No	2.774	-0.004	2.0	NoResponse	0	0.285	294.357	2	30	Target	MissedWin	True
295.273	0.5	Win2	0.5806	n/a	No	2.774	n/a	n/a	NoResponse	0	n/a	n/a	2	30	Blank	MissedWin	True
295.357	0.3	Win2	0.5806	0.004	No	2.774	-0.004	2.0	NoResponse	0	0.285	n/a	2	30	ButtonPress	MissedWin	True
295.774	1.45	Win2	0.5806	n/a	No	2.774	n/a	5.0	NoResponse	0	0.004	294.778	2	30	Feedback	MissedWin	True
297.228	2.774	Win2	0.5806	n/a	No	2.774	n/a	n/a	NoResponse	0	0.0	n/a	2	30	ISIslide	MissedWin	True
300.02	0.25	Lose2	0.5938	0.0	Yes	2.83	0.02	n/a	GoodResponse	0	n/a	n/a	2	31	Cue	AvoidedLoss	True
300.271	4.05	Lose2	0.5938	0.0	Yes	2.83	0.001	n/a	GoodResponse	0	n/a	n/a	2	31	Fixation	AvoidedLoss	True
304.316	0.21	Lose2	0.5938	0.004	Yes	2.83	-0.004	2.0	GoodResponse	0	0.191	303.507	2	31	Target	AvoidedLoss	True
304.507	0.3	Lose2	0.5938	0.004	Yes	2.83	-0.004	2.0	GoodResponse	0	0.191	n/a	2	31	ButtonPress	AvoidedLoss	True
304.534	0.49	Lose2	0.5938	n/a	Yes	2.83	n/a	n/a	GoodResponse	0	n/a	n/a	2	31	Blank	AvoidedLoss	True
305.018	1.45	Lose2	0.5938	n/a	Yes	2.83	n/a	5.0	GoodResponse	0	0.028	304.046	2	31	Feedback	AvoidedLoss	True
306.473	2.83	Lose2	0.5938	n/a	Yes	2.83	n/a	n/a	GoodResponse	0	0.0	n/a	2	31	ISIslide	AvoidedLoss	True
309.315	0.25	Lose2	0.6061	0.0	Yes	2.635	0.015	n/a	GoodResponse	0	n/a	n/a	2	32	Cue	AvoidedLoss	True
309.565	4.15	Lose2	0.6061	0.0	Yes	2.635	0.0	n/a	GoodResponse	0	n/a	n/a	2	32	Fixation	AvoidedLoss	True
313.711	0.22	Lose2	0.6061	0.004	Yes	2.635	-0.004	2.0	GoodResponse	0	0.217	312.928	2	32	Target	AvoidedLoss	True
313.928	0.3	Lose2	0.6061	0.004	Yes	2.635	-0.004	2.0	GoodResponse	0	0.217	n/a	2	32	ButtonPress	AvoidedLoss	True
313.945	0.48	Lose2	0.6061	n/a	Yes	2.635	n/a	n/a	GoodResponse	0	n/a	n/a	2	32	Blank	AvoidedLoss	True
314.413	1.45	Lose2	0.6061	n/a	Yes	2.635	n/a	5.0	GoodResponse	0	0.048	313.461	2	32	Feedback	AvoidedLoss	True
315.868	2.635	Lose2	0.6061	n/a	Yes	2.635	n/a	n/a	GoodResponse	0	0.0	n/a	2	32	ISIslide	AvoidedLoss	True
318.526	0.25	Win2	0.5882000000000001	0.0	No	2.674	0.026	n/a	NoResponse	0	n/a	n/a	2	33	Cue	MissedWin	True
318.776	4.0	Win2	0.5882000000000001	0.0	No	2.674	0.0	n/a	NoResponse	0	n/a	n/a	2	33	Fixation	MissedWin	True
322.772	0.23	Win2	0.5882000000000001	0.004	No	2.674	-0.004	2.0	NoResponse	0	0.248	322.02	2	33	Target	MissedWin	True
323.006	0.47	Win2	0.5882000000000001	n/a	No	2.674	n/a	n/a	NoResponse	0	n/a	n/a	2	33	Blank	MissedWin	True
323.02	0.3	Win2	0.5882000000000001	0.004	No	2.674	-0.004	2.0	NoResponse	0	0.248	n/a	2	33	ButtonPress	MissedWin	True
323.474	1.45	Win2	0.5882000000000001	n/a	No	2.674	n/a	5.0	NoResponse	0	0.012	322.486	2	33	Feedback	MissedWin	True
324.928	2.674	Win2	0.5882000000000001	n/a	No	2.674	n/a	n/a	NoResponse	0	0.0	n/a	2	33	ISIslide	MissedWin	True
327.619	0.25	Lose2	0.6	0.0	Yes	2.631	0.019	n/a	GoodResponse	0	n/a	n/a	2	34	Cue	AvoidedLoss	True
327.87	4.05	Lose2	0.6	0.0	Yes	2.631	0.001	n/a	GoodResponse	0	n/a	n/a	2	34	Fixation	AvoidedLoss	True
331.916	0.24	Lose2	0.6	0.003	Yes	2.631	-0.003	2.0	GoodResponse	0	0.215	331.131	2	34	Target	AvoidedLoss	True
332.131	0.3	Lose2	0.6	0.003	Yes	2.631	-0.003	2.0	GoodResponse	0	0.215	n/a	2	34	ButtonPress	AvoidedLoss	True
332.166	0.46	Lose2	0.6	n/a	Yes	2.631	n/a	n/a	GoodResponse	0	n/a	n/a	2	34	Blank	AvoidedLoss	True
332.618	1.45	Lose2	0.6	n/a	Yes	2.631	n/a	5.0	GoodResponse	0	0.038	331.656	2	34	Feedback	AvoidedLoss	True
334.072	2.631	Lose2	0.6	n/a	Yes	2.631	n/a	n/a	GoodResponse	0	0.0	n/a	2	34	ISIslide	AvoidedLoss	True
336.713	0.25	Lose2	0.5832999999999999	0.0	No	2.687	0.013	n/a	NoResponse	-1	n/a	n/a	1	35	Cue	Loss	False
336.964	4.0	Lose2	0.5832999999999999	0.0	No	2.687	0.001	n/a	NoResponse	-1	n/a	n/a	1	35	Fixation	Loss	False
340.959	0.25	Lose2	0.5832999999999999	0.004	No	2.687	-0.004	n/a	NoResponse	-1	n/a	n/a	1	35	Target	Loss	False
341.21	0.45	Lose2	0.5832999999999999	n/a	No	2.687	n/a	n/a	NoResponse	-1	n/a	n/a	1	35	Blank	Loss	False
341.661	1.45	Lose2	0.5832999999999999	n/a	No	2.687	n/a	5.0	NoResponse	-1	0.019	340.68	1	35	Feedback	Loss	False
343.116	2.687	Lose2	0.5832999999999999	n/a	No	2.687	n/a	n/a	NoResponse	-1	0.0	n/a	1	35	ISIslide	Loss	False
345.824	0.25	Control	0.5676	0.0	No	2.676	0.024	n/a	NoResponse	0	n/a	n/a	1	36	Cue	Neutral	True
346.075	4.0	Control	0.5676	0.0	No	2.676	0.001	n/a	NoResponse	0	n/a	n/a	1	36	Fixation	Neutral	True
350.07	0.26	Control	0.5676	0.004	No	2.676	-0.004	2.0	NoResponse	0	0.292	349.362	1	36	Target	Neutral	True
350.337	0.44	Control	0.5676	n/a	No	2.676	n/a	n/a	NoResponse	0	n/a	n/a	1	36	Blank	Neutral	True
350.362	0.3	Control	0.5676	0.004	No	2.676	-0.004	2.0	NoResponse	0	0.292	n/a	1	36	ButtonPress	Neutral	True
350.772	1.45	Control	0.5676	n/a	No	2.676	n/a	5.0	NoResponse	0	0.03	349.802	1	36	Feedback	Neutral	True
352.226	2.676	Control	0.5676	n/a	No	2.676	n/a	n/a	NoResponse	0	0.0	n/a	1	36	ISIslide	Neutral	True
354.918	0.25	Win2	0.5526	0.0	No	2.882	0.018	n/a	LatePress	0	n/a	n/a	1	37	Cue	MissedWin	True
355.169	4.0	Win2	0.5526	0.0	No	2.882	0.001	n/a	LatePress	0	n/a	n/a	1	37	Fixation	MissedWin	True
359.164	0.27	Win2	0.5526	0.004	No	2.882	-0.004	2.0	LatePress	0	0.284	358.448	1	37	Target	MissedWin	True
359.448	0.43	Win2	0.5526	n/a	No	2.882	n/a	n/a	LatePress	0	n/a	n/a	1	37	Blank	MissedWin	True
359.448	0.3	Win2	0.5526	0.004	No	2.882	-0.004	2.0	LatePress	0	0.284	n/a	1	37	ButtonPress	MissedWin	True
359.866	1.45	Win2	0.5526	n/a	No	2.882	n/a	5.0	LatePress	0	0.009	358.875	1	37	Feedback	MissedWin	True
361.32	2.882	Win2	0.5526	n/a	No	2.882	n/a	n/a	LatePress	0	0.0	n/a	1	37	ISIslide	MissedWin	True
364.229	0.25	Lose2	0.5640999999999999	0.0	Yes	2.821	0.029	n/a	GoodResponse	0	n/a	n/a	1	38	Cue	AvoidedLoss	False
364.48	3.95	Lose2	0.5640999999999999	0.0	Yes	2.821	0.001	2.0	GoodResponse	0	0.066	363.546	1	38	Fixation	AvoidedLoss	False
364.546	0.3	Lose2	0.5640999999999999	0.0	Yes	2.821	0.001	2.0	GoodResponse	0	0.066	n/a	1	38	ButtonPress	AvoidedLoss	False
368.425	0.28	Lose2	0.5640999999999999	0.004	Yes	2.821	-0.004	2.0	GoodResponse	0	0.178	367.603	1	38	Target	AvoidedLoss	False
368.603	0.3	Lose2	0.5640999999999999	0.004	Yes	2.821	-0.004	2.0	GoodResponse	0	0.178	n/a	1	38	ButtonPress	AvoidedLoss	False
368.709	0.42	Lose2	0.5640999999999999	n/a	Yes	2.821	n/a	n/a	GoodResponse	0	n/a	n/a	1	38	Blank	AvoidedLoss	False
369.127	1.45	Lose2	0.5640999999999999	n/a	Yes	2.821	n/a	5.0	GoodResponse	0	0.017	368.144	1	38	Feedback	AvoidedLoss	False
370.581	2.821	Lose2	0.5640999999999999	n/a	Yes	2.821	n/a	n/a	GoodResponse	0	0.0	n/a	1	38	ISIslide	AvoidedLoss	False
373.423	0.25	Win2	0.55	0.0	No	2.977	0.023	n/a	NoResponse	0	n/a	n/a	1	39	Cue	MissedWin	True
373.674	4.1	Win2	0.55	0.0	No	2.977	0.001	n/a	NoResponse	0	n/a	n/a	1	39	Fixation	MissedWin	True
377.77	0.29	Win2	0.55	0.003	No	2.977	-0.003	2.0	NoResponse	0	0.419	377.189	1	39	Target	MissedWin	True
378.07	0.41	Win2	0.55	n/a	No	2.977	n/a	n/a	NoResponse	0	n/a	n/a	1	39	Blank	MissedWin	True
378.189	0.3	Win2	0.55	0.003	No	2.977	-0.003	2.0	NoResponse	0	0.419	n/a	1	39	ButtonPress	MissedWin	True
378.472	1.45	Win2	0.55	n/a	No	2.977	n/a	5.0	NoResponse	0	0.038	377.51	1	39	Feedback	MissedWin	True
379.926	2.977	Win2	0.55	n/a	No	2.977	n/a	n/a	NoResponse	0	0.0	n/a	1	39	ISIslide	MissedWin	True
382.918	0.25	Win2	0.5366	0.0	No	2.732	0.018	n/a	NoResponse	0	n/a	n/a	1	40	Cue	MissedWin	False
383.169	3.95	Win2	0.5366	0.0	No	2.732	0.001	n/a	NoResponse	0	n/a	n/a	1	40	Fixation	MissedWin	False
387.114	0.3	Win2	0.5366	0.004	No	2.732	-0.004	n/a	NoResponse	0	n/a	n/a	1	40	Target	MissedWin	False
387.415	0.4	Win2	0.5366	n/a	No	2.732	n/a	n/a	NoResponse	0	n/a	n/a	1	40	Blank	MissedWin	False
387.816	1.45	Win2	0.5366	n/a	No	2.732	n/a	5.0	NoResponse	0	0.011	386.827	1	40	Feedback	MissedWin	False
389.271	2.732	Win2	0.5366	n/a	No	2.732	n/a	n/a	NoResponse	0	0.0	n/a	1	40	ISIslide	MissedWin	False
392.029	0.25	Win2	0.5476	0.0	Yes	2.771	0.029	n/a	GoodResponse	1	n/a	n/a	2	41	Cue	Win	True
392.28	3.9	Win2	0.5476	0.0	Yes	2.771	0.001	n/a	GoodResponse	1	n/a	n/a	2	41	Fixation	Win	True
396.175	0.31	Win2	0.5476	0.004	Yes	2.771	-0.004	2.0	GoodResponse	1	0.163	395.338	2	41	Target	Win	True
396.338	0.3	Win2	0.5476	0.004	Yes	2.771	-0.004	2.0	GoodResponse	1	0.163	n/a	2	41	ButtonPress	Win	True
396.492	0.39	Win2	0.5476	n/a	Yes	2.771	n/a	n/a	GoodResponse	1	n/a	n/a	2	41	Blank	Win	True
396.877	1.45	Win2	0.5476	n/a	Yes	2.771	n/a	5.0	GoodResponse	1	0.022	395.899	2	41	Feedback	Win	True
398.331	2.771	Win2	0.5476	n/a	Yes	2.771	n/a	n/a	GoodResponse	1	0.0	n/a	2	41	ISIslide	Win	True
401.123	0.25	Control	0.5349	0.0	No	2.927	0.023	n/a	NoResponse	0	n/a	n/a	2	42	Cue	Neutral	False
401.373	3.85	Control	0.5349	0.001	No	2.927	0.0	n/a	NoResponse	0	n/a	n/a	2	42	Fixation	Neutral	False
405.235	0.32	Control	0.5349	0.0	No	2.927	0.012	n/a	NoResponse	0	n/a	n/a	2	42	Target	Neutral	False
405.553	0.38	Control	0.5349	n/a	No	2.927	n/a	n/a	NoResponse	0	n/a	n/a	2	42	Blank	Neutral	False
405.92	1.45	Control	0.5349	n/a	No	2.927	n/a	5.0	NoResponse	0	0.005	404.925	2	42	Feedback	Neutral	False
407.375	2.927	Control	0.5349	n/a	No	2.927	n/a	n/a	NoResponse	0	0.0	n/a	2	42	ISIslide	Neutral	False
410.317	0.25	Win2	0.5455	0.0	Yes	3.183	0.017	n/a	GoodResponse	1	n/a	n/a	3	43	Cue	Win	True
410.568	4.0	Win2	0.5455	0.0	Yes	3.183	0.001	n/a	GoodResponse	1	n/a	n/a	3	43	Fixation	Win	True
414.563	0.33	Win2	0.5455	0.004	Yes	3.183	-0.004	2.0	GoodResponse	1	0.275	413.838	3	43	Target	Win	True
414.838	0.3	Win2	0.5455	0.004	Yes	3.183	-0.004	2.0	GoodResponse	1	0.275	n/a	3	43	ButtonPress	Win	True
414.897	0.37	Win2	0.5455	n/a	Yes	3.183	n/a	n/a	GoodResponse	1	n/a	n/a	3	43	Blank	Win	True
415.265	1.45	Win2	0.5455	n/a	Yes	3.183	n/a	5.0	GoodResponse	1	0.025	414.29	3	43	Feedback	Win	True
416.719	3.183	Win2	0.5455	n/a	Yes	3.183	n/a	n/a	GoodResponse	1	0.0	n/a	3	43	ISIslide	Win	True
419.929	0.25	Win2	0.5556	0.0	Yes	2.971	0.029	n/a	GoodResponse	1	n/a	n/a	4	44	Cue	Win	True
420.18	4.0	Win2	0.5556	0.0	Yes	2.971	0.001	n/a	GoodResponse	1	n/a	n/a	4	44	Fixation	Win	True
424.175	0.34	Win2	0.5556	0.004	Yes	2.971	-0.004	2.0	GoodResponse	1	0.191	423.366	4	44	Target	Win	True
424.366	0.3	Win2	0.5556	0.004	Yes	2.971	-0.004	2.0	GoodResponse	1	0.191	n/a	4	44	ButtonPress	Win	True
424.526	0.36	Win2	0.5556	n/a	Yes	2.971	n/a	n/a	GoodResponse	1	n/a	n/a	4	44	Blank	Win	True
424.877	1.45	Win2	0.5556	n/a	Yes	2.971	n/a	5.0	GoodResponse	1	0.022	423.899	4	44	Feedback	Win	True
426.332	2.971	Win2	0.5556	n/a	Yes	2.971	n/a	n/a	GoodResponse	1	0.0	n/a	4	44	ISIslide	Win	True
429.324	0.25	Control	0.5435	0.0	No	2.876	0.024	n/a	NoResponse	0	n/a	n/a	4	45	Cue	Neutral	True
429.575	4.1	Control	0.5435	0.0	No	2.876	0.001	n/a	NoResponse	0	n/a	n/a	4	45	Fixation	Neutral	True
433.67	0.35	Control	0.5435	0.004	No	2.876	-0.004	2.0	NoResponse	0	0.418	433.088	4	45	Target	Neutral	True
434.021	0.35	Control	0.5435	n/a	No	2.876	n/a	n/a	NoResponse	0	n/a	n/a	4	45	Blank	Neutral	True
434.088	0.3	Control	0.5435	0.004	No	2.876	-0.004	2.0	NoResponse	0	0.418	n/a	4	45	ButtonPress	Neutral	True
434.372	1.45	Control	0.5435	n/a	No	2.876	n/a	5.0	NoResponse	0	0.04	433.412	4	45	Feedback	Neutral	True
435.827	2.876	Control	0.5435	n/a	No	2.876	n/a	n/a	NoResponse	0	0.0	n/a	4	45	ISIslide	Neutral	True
438.719	0.25	Lose2	0.5532	0.0	Yes	3.381	0.019	n/a	GoodResponse	0	n/a	n/a	4	46	Cue	AvoidedLoss	False
438.969	4.0	Lose2	0.5532	0.0	Yes	3.381	0.0	2.0	GoodResponse	0	1.896	439.865	4	46	Fixation	AvoidedLoss	False
440.865	0.3	Lose2	0.5532	0.0	Yes	3.381	0.0	2.0	GoodResponse	0	1.896	n/a	4	46	ButtonPress	AvoidedLoss	False
442.965	0.36	Lose2	0.5532	0.004	Yes	3.381	-0.004	2.0	GoodResponse	0	0.261	442.226	4	46	Target	AvoidedLoss	False
443.226	0.3	Lose2	0.5532	0.004	Yes	3.381	-0.004	2.0	GoodResponse	0	0.261	n/a	4	46	ButtonPress	AvoidedLoss	False
443.332	0.34	Lose2	0.5532	n/a	Yes	3.381	n/a	n/a	GoodResponse	0	n/a	n/a	4	46	Blank	AvoidedLoss	False
443.667	1.45	Lose2	0.5532	n/a	Yes	3.381	n/a	5.0	GoodResponse	0	0.012	442.679	4	46	Feedback	AvoidedLoss	False
445.121	3.381	Lose2	0.5532	n/a	Yes	3.381	n/a	n/a	GoodResponse	0	0.0	n/a	4	46	ISIslide	AvoidedLoss	False
448.531	0.25	Lose2	0.5417000000000001	0.0	No	2.669	0.031	n/a	NoResponse	-1	n/a	n/a	3	47	Cue	Loss	False
448.782	4.0	Lose2	0.5417000000000001	0.0	No	2.669	0.001	n/a	NoResponse	-1	n/a	n/a	3	47	Fixation	Loss	False
452.777	0.37	Lose2	0.5417000000000001	0.004	No	2.669	-0.004	n/a	NoResponse	-1	n/a	n/a	3	47	Target	Loss	False
453.162	0.33	Lose2	0.5417000000000001	n/a	No	2.669	n/a	n/a	NoResponse	-1	n/a	n/a	3	47	Blank	Loss	False
453.479	1.45	Lose2	0.5417000000000001	n/a	No	2.669	n/a	5.0	NoResponse	-1	0.007	452.486	3	47	Feedback	Loss	False
454.934	2.669	Lose2	0.5417000000000001	n/a	No	2.669	n/a	n/a	NoResponse	-1	0.0	n/a	3	47	ISIslide	Loss	False
457.625	0.25	Lose2	0.5306000000000001	0.0	No	3.025	0.025	n/a	NoResponse	-1	n/a	n/a	2	48	Cue	Loss	False
457.876	3.95	Lose2	0.5306000000000001	0.0	No	3.025	0.001	n/a	NoResponse	-1	n/a	n/a	2	48	Fixation	Loss	False
461.821	0.38	Lose2	0.5306000000000001	0.004	No	3.025	-0.004	n/a	NoResponse	-1	n/a	n/a	2	48	Target	Loss	False
462.206	0.32	Lose2	0.5306000000000001	n/a	No	3.025	n/a	n/a	NoResponse	-1	n/a	n/a	2	48	Blank	Loss	False
462.523	1.45	Lose2	0.5306000000000001	n/a	No	3.025	n/a	5.0	NoResponse	-1	0.034	461.557	2	48	Feedback	Loss	False
463.978	3.025	Lose2	0.5306000000000001	n/a	No	3.025	n/a	n/a	NoResponse	-1	0.0	n/a	2	48	ISIslide	Loss	False
467.02	0.25	Control	0.54	0.0	Yes	2.88	0.02	n/a	GoodResponse	0	n/a	n/a	2	49	Cue	Neutral	True
467.271	4.0	Control	0.54	0.0	Yes	2.88	0.001	n/a	GoodResponse	0	n/a	n/a	2	49	Fixation	Neutral	True
471.266	0.39	Control	0.54	0.004	Yes	2.88	-0.004	2.0	GoodResponse	0	0.242	470.508	2	49	Target	Neutral	True
471.508	0.3	Control	0.54	0.004	Yes	2.88	-0.004	2.0	GoodResponse	0	0.242	n/a	2	49	ButtonPress	Neutral	True
471.667	0.31	Control	0.54	n/a	Yes	2.88	n/a	n/a	GoodResponse	0	n/a	n/a	2	49	Blank	Neutral	True
471.968	1.45	Control	0.54	n/a	Yes	2.88	n/a	5.0	GoodResponse	0	0.007	470.975	2	49	Feedback	Neutral	True
473.422	2.88	Control	0.54	n/a	Yes	2.88	n/a	n/a	GoodResponse	0	0.0	n/a	2	49	ISIslide	Neutral	True
476.314	0.25	Control	0.5489999999999999	0.001	Yes	2.786	0.014	n/a	GoodResponse	0	n/a	n/a	2	50	Cue	Neutral	False
476.565	4.0	Control	0.5489999999999999	0.0	Yes	2.786	0.001	2.0	GoodResponse	0	0.865	476.43	2	50	Fixation	Neutral	False
477.43	0.3	Control	0.5489999999999999	0.0	Yes	2.786	0.001	2.0	GoodResponse	0	0.865	n/a	2	50	ButtonPress	Neutral	False
480.561	0.4	Control	0.5489999999999999	0.003	Yes	2.786	-0.003	2.0	GoodResponse	0	0.334	479.895	2	50	Target	Neutral	False
480.895	0.3	Control	0.5489999999999999	0.003	Yes	2.786	-0.003	2.0	GoodResponse	0	0.334	n/a	2	50	ButtonPress	Neutral	False
480.962	0.3	Control	0.5489999999999999	n/a	Yes	2.786	n/a	n/a	GoodResponse	0	n/a	n/a	2	50	Blank	Neutral	False
481.263	1.45	Control	0.5489999999999999	n/a	Yes	2.786	n/a	5.0	GoodResponse	0	0.026	480.289	2	50	Feedback	Neutral	False
482.717	2.786	Control	0.5489999999999999	n/a	Yes	2.786	n/a	n/a	GoodResponse	0	0.0	n/a	2	50	ISIslide	Neutral	False
485.525	0.25	Control	0.5385	0.0	No	2.725	0.025	n/a	NoResponse	0	n/a	n/a	2	51	Cue	Neutral	True
485.776	3.95	Control	0.5385	0.0	No	2.725	0.001	n/a	NoResponse	0	n/a	n/a	2	51	Fixation	Neutral	True
489.721	0.41	Control	0.5385	0.004	No	2.725	-0.004	2.0	NoResponse	0	0.462	489.183	2	51	Target	Neutral	True
490.139	0.29	Control	0.5385	n/a	No	2.725	n/a	n/a	NoResponse	0	n/a	n/a	2	51	Blank	Neutral	True
490.183	0.3	Control	0.5385	0.004	No	2.725	-0.004	2.0	NoResponse	0	0.462	n/a	2	51	ButtonPress	Neutral	True
490.423	1.45	Control	0.5385	n/a	No	2.725	n/a	5.0	NoResponse	0	0.037	489.46	2	51	Feedback	Neutral	True
491.878	2.725	Control	0.5385	n/a	No	2.725	n/a	n/a	NoResponse	0	0.0	n/a	2	51	ISIslide	Neutral	True
494.619	0.25	Control	0.5283	0.0	No	2.631	0.019	n/a	NoResponse	0	n/a	n/a	2	52	Cue	Neutral	False
494.87	4.05	Control	0.5283	0.0	No	2.631	0.001	n/a	NoResponse	0	n/a	n/a	2	52	Fixation	Neutral	False
498.915	0.42	Control	0.5283	0.004	No	2.631	-0.004	n/a	NoResponse	0	n/a	n/a	2	52	Target	Neutral	False
499.35	0.28	Control	0.5283	n/a	No	2.631	n/a	n/a	NoResponse	0	n/a	n/a	2	52	Blank	Neutral	False
499.618	1.45	Control	0.5283	n/a	No	2.631	n/a	5.0	NoResponse	0	0.012	498.63	2	52	Feedback	Neutral	False
501.072	2.631	Control	0.5283	n/a	No	2.631	n/a	n/a	NoResponse	0	0.0	n/a	2	52	ISIslide	Neutral	False
503.73	0.25	Win2	0.5185	0.0	No	2.92	0.03	n/a	NoResponse	0	n/a	n/a	2	53	Cue	MissedWin	False
503.981	4.05	Win2	0.5185	0.0	No	2.92	0.001	n/a	NoResponse	0	n/a	n/a	2	53	Fixation	MissedWin	False
508.026	0.43	Win2	0.5185	0.004	No	2.92	-0.004	n/a	NoResponse	0	n/a	n/a	2	53	Target	MissedWin	False
508.461	0.27	Win2	0.5185	n/a	No	2.92	n/a	n/a	NoResponse	0	n/a	n/a	2	53	Blank	MissedWin	False
508.728	1.45	Win2	0.5185	n/a	No	2.92	n/a	5.0	NoResponse	0	0.024	507.752	2	53	Feedback	MissedWin	False
510.183	2.92	Win2	0.5185	n/a	No	2.92	n/a	n/a	NoResponse	0	0.0	n/a	2	53	ISIslide	MissedWin	False
513.125	0.25	Win2	0.5091	0.0	No	2.725	0.025	n/a	NoResponse	0	n/a	n/a	2	54	Cue	MissedWin	False
513.375	3.95	Win2	0.5091	0.0	No	2.725	0.0	n/a	NoResponse	0	n/a	n/a	2	54	Fixation	MissedWin	False
517.321	0.44	Win2	0.5091	0.004	No	2.725	-0.004	n/a	NoResponse	0	n/a	n/a	2	54	Target	MissedWin	False
517.772	0.26	Win2	0.5091	n/a	No	2.725	n/a	n/a	NoResponse	0	n/a	n/a	2	54	Blank	MissedWin	False
518.023	1.45	Win2	0.5091	n/a	No	2.725	n/a	5.0	NoResponse	0	0.046	517.069	2	54	Feedback	MissedWin	False
519.477	2.725	Win2	0.5091	n/a	No	2.725	n/a	n/a	NoResponse	0	0.0	n/a	2	54	ISIslide	MissedWin	False
522.219	0.25	Control	0.5	0.0	No	3.031	0.019	n/a	NoResponse	0	n/a	n/a	2	55	Cue	Neutral	False
522.469	3.95	Control	0.5	0.0	No	3.031	0.0	n/a	NoResponse	0	n/a	n/a	2	55	Fixation	Neutral	False
526.431	0.45	Control	0.5	0.0	No	3.031	0.012	n/a	NoResponse	0	n/a	n/a	2	55	Target	Neutral	False
526.866	0.25	Control	0.5	n/a	No	3.031	n/a	n/a	NoResponse	0	n/a	n/a	2	55	Blank	Neutral	False
527.117	1.45	Control	0.5	n/a	No	3.031	n/a	5.0	NoResponse	0	0.025	526.142	2	55	Feedback	Neutral	False
528.571	3.031	Control	0.5	n/a	No	3.031	n/a	n/a	NoResponse	0	0.0	n/a	2	55	ISIslide	Neutral	False
531.63	0.25	Control	0.49119999999999997	0.0	No	2.82	0.03	n/a	NoResponse	0	n/a	n/a	2	56	Cue	Neutral	False
531.881	3.95	Control	0.49119999999999997	0.0	No	2.82	0.001	n/a	NoResponse	0	n/a	n/a	2	56	Fixation	Neutral	False
535.826	0.46	Control	0.49119999999999997	0.004	No	2.82	-0.004	n/a	NoResponse	0	n/a	n/a	2	56	Target	Neutral	False
536.294	0.24	Control	0.49119999999999997	n/a	No	2.82	n/a	n/a	NoResponse	0	n/a	n/a	2	56	Blank	Neutral	False
536.528	1.45	Control	0.49119999999999997	n/a	No	2.82	n/a	5.0	NoResponse	0	0.029	535.557	2	56	Feedback	Neutral	False
537.982	2.82	Control	0.49119999999999997	n/a	No	2.82	n/a	n/a	NoResponse	0	0.0	n/a	2	56	ISIslide	Neutral	False
540.824	0.25	Control	0.4828	0.0	No	3.476	0.024	n/a	NoResponse	0	n/a	n/a	2	57	Cue	Neutral	False
541.075	4.0	Control	0.4828	0.0	No	3.476	0.001	n/a	NoResponse	0	n/a	n/a	2	57	Fixation	Neutral	False
545.07	0.47	Control	0.4828	0.004	No	3.476	-0.004	n/a	NoResponse	0	n/a	n/a	2	57	Target	Neutral	False
545.555	0.23	Control	0.4828	n/a	No	3.476	n/a	n/a	NoResponse	0	n/a	n/a	2	57	Blank	Neutral	False
545.772	1.45	Control	0.4828	n/a	No	3.476	n/a	5.0	NoResponse	0	0.007	544.779	2	57	Feedback	Neutral	False
547.227	3.476	Control	0.4828	n/a	No	3.476	n/a	n/a	NoResponse	0	0.0	n/a	2	57	ISIslide	Neutral	False
550.721	0.25	Win2	0.4746	0.0	No	2.729	0.021	n/a	NoResponse	0	n/a	n/a	2	58	Cue	MissedWin	False
550.971	4.05	Win2	0.4746	0.0	No	2.729	0.0	n/a	NoResponse	0	n/a	n/a	2	58	Fixation	MissedWin	False
555.017	0.48	Win2	0.4746	0.004	No	2.729	-0.004	n/a	NoResponse	0	n/a	n/a	2	58	Target	MissedWin	False
555.502	0.22	Win2	0.4746	n/a	No	2.729	n/a	n/a	NoResponse	0	n/a	n/a	2	58	Blank	MissedWin	False
555.719	1.45	Win2	0.4746	n/a	No	2.729	n/a	5.0	NoResponse	0	0.008	554.727	2	58	Feedback	MissedWin	False
557.173	2.729	Win2	0.4746	n/a	No	2.729	n/a	n/a	NoResponse	0	0.0	n/a	2	58	ISIslide	MissedWin	False
559.915	0.25	Lose2	0.4833	0.0	Yes	2.685	0.015	n/a	GoodResponse	0	n/a	n/a	2	59	Cue	AvoidedLoss	True
560.165	4.0	Lose2	0.4833	0.001	Yes	2.685	0.0	n/a	GoodResponse	0	n/a	n/a	2	59	Fixation	AvoidedLoss	True
564.161	0.49	Lose2	0.4833	0.004	Yes	2.685	-0.004	2.0	GoodResponse	0	0.309	563.47	2	59	Target	AvoidedLoss	True
564.47	0.3	Lose2	0.4833	0.004	Yes	2.685	-0.004	2.0	GoodResponse	0	0.309	n/a	2	59	ButtonPress	AvoidedLoss	True
564.662	0.21	Lose2	0.4833	n/a	Yes	2.685	n/a	n/a	GoodResponse	0	n/a	n/a	2	59	Blank	AvoidedLoss	True
564.863	1.45	Lose2	0.4833	n/a	Yes	2.685	n/a	5.0	GoodResponse	0	0.035	563.898	2	59	Feedback	AvoidedLoss	True
566.317	2.685	Lose2	0.4833	n/a	Yes	2.685	n/a	n/a	GoodResponse	0	0.0	n/a	2	59	ISIslide	AvoidedLoss	True
569.025	0.25	Control	0.4754	0.0	No	2.675	0.025	n/a	NoResponse	0	n/a	n/a	2	60	Cue	Neutral	True
569.276	4.0	Control	0.4754	0.0	No	2.675	0.001	n/a	NoResponse	0	n/a	n/a	2	60	Fixation	Neutral	True
573.271	0.5	Control	0.4754	0.004	No	2.675	-0.004	2.0	NoResponse	0	0.512	572.783	2	60	Target	Neutral	True
573.773	0.2	Control	0.4754	n/a	No	2.675	n/a	n/a	NoResponse	0	n/a	n/a	2	60	Blank	Neutral	True
573.783	0.3	Control	0.4754	0.004	No	2.675	-0.004	2.0	NoResponse	0	0.512	n/a	2	60	ButtonPress	Neutral	True
573.973	1.45	Control	0.4754	n/a	No	2.675	n/a	5.0	NoResponse	0	0.047	573.02	2	60	Feedback	Neutral	True
575.428	2.675	Control	0.4754	n/a	No	2.675	n/a	n/a	NoResponse	0	0.0	n/a	2	60	ISIslide	Neutral	True
578.119	0.25	Lose2	0.4677	0.0	No	2.981	0.019	n/a	NoResponse	-1	n/a	n/a	1	61	Cue	Loss	True
578.37	4.0	Lose2	0.4677	0.0	No	2.981	0.001	2.0	NoResponse	-1	3.496	580.866	1	61	Fixation	Loss	True
581.866	0.3	Lose2	0.4677	0.0	No	2.981	0.001	2.0	NoResponse	-1	3.496	n/a	1	61	ButtonPress	Loss	True
582.365	0.5	Lose2	0.4677	0.004	No	2.981	-0.004	n/a	NoResponse	-1	n/a	n/a	1	61	Target	Loss	True
582.867	0.2	Lose2	0.4677	n/a	No	2.981	n/a	n/a	NoResponse	-1	n/a	n/a	1	61	Blank	Loss	True
583.067	1.45	Lose2	0.4677	n/a	No	2.981	n/a	5.0	NoResponse	-1	0.026	582.093	1	61	Feedback	Loss	True
584.522	2.981	Lose2	0.4677	n/a	No	2.981	n/a	n/a	NoResponse	-1	0.0	n/a	1	61	ISIslide	Loss	True
587.531	0.25	Lose2	0.4603	0.0	No	2.869	0.031	n/a	NoResponse	-1	n/a	n/a	0	62	Cue	Loss	False
587.781	3.9	Lose2	0.4603	0.001	No	2.869	0.0	n/a	NoResponse	-1	n/a	n/a	0	62	Fixation	Loss	False
591.693	0.5	Lose2	0.4603	0.0	No	2.869	0.012	n/a	NoResponse	-1	n/a	n/a	0	62	Target	Loss	False
592.178	0.2	Lose2	0.4603	n/a	No	2.869	n/a	n/a	NoResponse	-1	n/a	n/a	0	62	Blank	Loss	False
592.379	1.45	Lose2	0.4603	n/a	No	2.869	n/a	5.0	NoResponse	-1	0.03	591.409	0	62	Feedback	Loss	False
593.833	2.869	Lose2	0.4603	n/a	No	2.869	n/a	n/a	NoResponse	-1	0.0	n/a	0	62	ISIslide	Loss	False
596.725	0.25	Lose2	0.4531	0.0	No	2.625	0.025	n/a	PrematurePress	-1	n/a	n/a	-1	63	Cue	Loss	True
596.976	4.05	Lose2	0.4531	0.0	No	2.625	0.001	n/a	PrematurePress	-1	n/a	n/a	-1	63	Fixation	Loss	True
601.021	0.5	Lose2	0.4531	0.004	No	2.625	-0.004	2.0	PrematurePress	-1	0.079	600.1	-1	63	Target	Loss	True
601.1	0.3	Lose2	0.4531	0.004	No	2.625	-0.004	2.0	PrematurePress	-1	0.079	n/a	-1	63	ButtonPress	Loss	True
601.523	0.2	Lose2	0.4531	n/a	No	2.625	n/a	n/a	PrematurePress	-1	n/a	n/a	-1	63	Blank	Loss	True
601.723	1.45	Lose2	0.4531	n/a	No	2.625	n/a	5.0	PrematurePress	-1	0.007	600.73	-1	63	Feedback	Loss	True
603.178	2.625	Lose2	0.4531	n/a	No	2.625	n/a	n/a	PrematurePress	-1	0.0	n/a	-1	63	ISIslide	Loss	True
605.819	0.25	Win2	0.4462	0.0	No	3.131	0.019	n/a	NoResponse	0	n/a	n/a	-1	64	Cue	MissedWin	False
606.07	4.15	Win2	0.4462	0.0	No	3.131	0.001	n/a	NoResponse	0	n/a	n/a	-1	64	Fixation	MissedWin	False
610.215	0.5	Win2	0.4462	0.004	No	3.131	-0.004	n/a	NoResponse	0	n/a	n/a	-1	64	Target	MissedWin	False
610.717	0.2	Win2	0.4462	n/a	No	3.131	n/a	n/a	NoResponse	0	n/a	n/a	-1	64	Blank	MissedWin	False
610.917	1.45	Win2	0.4462	n/a	No	3.131	n/a	5.0	NoResponse	0	0.029	609.946	-1	64	Feedback	MissedWin	False
612.372	3.131	Win2	0.4462	n/a	No	3.131	n/a	n/a	NoResponse	0	0.0	n/a	-1	64	ISIslide	MissedWin	False
615.514	0.25	Control	0.43939999999999996	0.001	No	2.786	0.014	n/a	NoResponse	0	n/a	n/a	-1	65	Cue	Neutral	False
615.765	4.0	Control	0.43939999999999996	0.0	No	2.786	0.001	n/a	NoResponse	0	n/a	n/a	-1	65	Fixation	Neutral	False
619.761	0.5	Control	0.43939999999999996	0.003	No	2.786	-0.003	n/a	NoResponse	0	n/a	n/a	-1	65	Target	Neutral	False
620.262	0.2	Control	0.43939999999999996	n/a	No	2.786	n/a	n/a	NoResponse	0	n/a	n/a	-1	65	Blank	Neutral	False
620.463	1.45	Control	0.43939999999999996	n/a	No	2.786	n/a	5.0	NoResponse	0	0.044	619.507	-1	65	Feedback	Neutral	False
621.917	2.786	Control	0.43939999999999996	n/a	No	2.786	n/a	n/a	NoResponse	0	0.0	n/a	-1	65	ISIslide	Neutral	False
624.725	0.25	Win2	0.4328	0.0	No	2.775	0.025	n/a	NoResponse	0	n/a	n/a	-1	66	Cue	MissedWin	False
624.976	3.9	Win2	0.4328	0.0	No	2.775	0.001	n/a	NoResponse	0	n/a	n/a	-1	66	Fixation	MissedWin	False
628.871	0.5	Win2	0.4328	0.004	No	2.775	-0.004	n/a	NoResponse	0	n/a	n/a	-1	66	Target	MissedWin	False
629.373	0.2	Win2	0.4328	n/a	No	2.775	n/a	n/a	NoResponse	0	n/a	n/a	-1	66	Blank	MissedWin	False
629.573	1.45	Win2	0.4328	n/a	No	2.775	n/a	5.0	NoResponse	0	0.008	628.581	-1	66	Feedback	MissedWin	False
631.028	2.775	Win2	0.4328	n/a	No	2.775	n/a	n/a	NoResponse	0	0.0	n/a	-1	66	ISIslide	MissedWin	False
633.819	0.25	Control	0.4265	0.0	No	2.731	0.019	n/a	NoResponse	0	n/a	n/a	-1	67	Cue	Neutral	False
634.07	3.95	Control	0.4265	0.0	No	2.731	0.001	n/a	NoResponse	0	n/a	n/a	-1	67	Fixation	Neutral	False
638.015	0.5	Control	0.4265	0.004	No	2.731	-0.004	n/a	NoResponse	0	n/a	n/a	-1	67	Target	Neutral	False
638.517	0.2	Control	0.4265	n/a	No	2.731	n/a	n/a	NoResponse	0	n/a	n/a	-1	67	Blank	Neutral	False
638.717	1.45	Control	0.4265	n/a	No	2.731	n/a	5.0	NoResponse	0	0.034	637.751	-1	67	Feedback	Neutral	False
640.172	2.731	Control	0.4265	n/a	No	2.731	n/a	n/a	NoResponse	0	0.0	n/a	-1	67	ISIslide	Neutral	False
642.93	0.25	Win2	0.4203	0.0	No	3.07	0.03	n/a	NoResponse	0	n/a	n/a	-1	68	Cue	MissedWin	False
643.181	4.0	Win2	0.4203	0.0	No	3.07	0.001	n/a	NoResponse	0	n/a	n/a	-1	68	Fixation	MissedWin	False
647.176	0.5	Win2	0.4203	0.004	No	3.07	-0.004	n/a	NoResponse	0	n/a	n/a	-1	68	Target	MissedWin	False
647.677	0.2	Win2	0.4203	n/a	No	3.07	n/a	n/a	NoResponse	0	n/a	n/a	-1	68	Blank	MissedWin	False
647.878	1.45	Win2	0.4203	n/a	No	3.07	n/a	5.0	NoResponse	0	0.043	646.921	-1	68	Feedback	MissedWin	False
649.332	3.07	Win2	0.4203	n/a	No	3.07	n/a	n/a	NoResponse	0	0.0	n/a	-1	68	ISIslide	MissedWin	False
652.425	0.25	Win2	0.4143	0.0	No	3.225	0.025	n/a	NoResponse	0	n/a	n/a	-1	69	Cue	MissedWin	False
652.676	3.95	Win2	0.4143	0.0	No	3.225	0.001	n/a	NoResponse	0	n/a	n/a	-1	69	Fixation	MissedWin	False
656.621	0.5	Win2	0.4143	0.004	No	3.225	-0.004	n/a	NoResponse	0	n/a	n/a	-1	69	Target	MissedWin	False
657.122	0.2	Win2	0.4143	n/a	No	3.225	n/a	n/a	NoResponse	0	n/a	n/a	-1	69	Blank	MissedWin	False
657.323	1.45	Win2	0.4143	n/a	No	3.225	n/a	5.0	NoResponse	0	0.013	656.336	-1	69	Feedback	MissedWin	False
658.777	3.225	Win2	0.4143	n/a	No	3.225	n/a	n/a	NoResponse	0	0.0	n/a	-1	69	ISIslide	MissedWin	False
662.02	0.25	Lose2	0.40850000000000003	0.0	No	3.03	0.02	n/a	NoResponse	-1	n/a	n/a	-2	70	Cue	Loss	False
662.271	4.05	Lose2	0.40850000000000003	0.0	No	3.03	0.001	n/a	NoResponse	-1	n/a	n/a	-2	70	Fixation	Loss	False
666.317	0.5	Lose2	0.40850000000000003	0.003	No	3.03	-0.003	n/a	NoResponse	-1	n/a	n/a	-2	70	Target	Loss	False
666.818	0.2	Lose2	0.40850000000000003	n/a	No	3.03	n/a	n/a	NoResponse	-1	n/a	n/a	-2	70	Blank	Loss	False
667.019	1.45	Lose2	0.40850000000000003	n/a	No	3.03	n/a	5.0	NoResponse	-1	0.024	666.043	-2	70	Feedback	Loss	False
668.473	3.03	Lose2	0.40850000000000003	n/a	No	3.03	n/a	n/a	NoResponse	-1	0.0	n/a	-2	70	ISIslide	Loss	False
671.515	0.25	Win2	0.4167	0.001	Yes	2.735	0.015	n/a	GoodResponse	1	n/a	n/a	-1	71	Cue	Win	True
671.766	4.05	Win2	0.4167	0.0	Yes	2.735	0.001	n/a	GoodResponse	1	n/a	n/a	-1	71	Fixation	Win	True
675.812	0.5	Win2	0.4167	0.003	Yes	2.735	-0.003	2.0	GoodResponse	1	0.193	675.005	-1	71	Target	Win	True
676.005	0.3	Win2	0.4167	0.003	Yes	2.735	-0.003	2.0	GoodResponse	1	0.193	n/a	-1	71	ButtonPress	Win	True
676.313	0.2	Win2	0.4167	n/a	Yes	2.735	n/a	n/a	GoodResponse	1	n/a	n/a	-1	71	Blank	Win	True
676.514	1.45	Win2	0.4167	n/a	Yes	2.735	n/a	5.0	GoodResponse	1	0.042	675.556	-1	71	Feedback	Win	True
677.968	2.735	Win2	0.4167	n/a	Yes	2.735	n/a	n/a	GoodResponse	1	0.0	n/a	-1	71	ISIslide	Win	True
680.726	0.25	Win2	0.41100000000000003	0.0	No	2.774	0.026	n/a	PrematurePress	0	n/a	n/a	-1	72	Cue	MissedWin	True
680.977	4.1	Win2	0.41100000000000003	0.0	No	2.774	0.001	n/a	PrematurePress	0	n/a	n/a	-1	72	Fixation	MissedWin	True
685.073	0.5	Win2	0.41100000000000003	0.003	No	2.774	-0.003	2.0	PrematurePress	0	0.019	684.092	-1	72	Target	MissedWin	True
685.092	0.3	Win2	0.41100000000000003	0.003	No	2.774	-0.003	2.0	PrematurePress	0	0.019	n/a	-1	72	ButtonPress	MissedWin	True
685.574	0.2	Win2	0.41100000000000003	n/a	No	2.774	n/a	n/a	PrematurePress	0	n/a	n/a	-1	72	Blank	MissedWin	True
685.775	1.45	Win2	0.41100000000000003	n/a	No	2.774	n/a	5.0	PrematurePress	0	0.049	684.824	-1	72	Feedback	MissedWin	True
687.229	2.774	Win2	0.41100000000000003	n/a	No	2.774	n/a	n/a	PrematurePress	0	0.0	n/a	-1	72	ISIslide	MissedWin	True
690.021	0.25	Win2	0.4189	0.0	Yes	2.679	0.021	n/a	GoodResponse	1	n/a	n/a	0	73	Cue	Win	True
690.272	4.0	Win2	0.4189	0.0	Yes	2.679	0.001	n/a	GoodResponse	1	n/a	n/a	0	73	Fixation	Win	True
694.267	0.5	Win2	0.4189	0.004	Yes	2.679	-0.004	2.0	GoodResponse	1	0.184	693.451	0	73	Target	Win	True
694.451	0.3	Win2	0.4189	0.004	Yes	2.679	-0.004	2.0	GoodResponse	1	0.184	n/a	0	73	ButtonPress	Win	True
694.768	0.2	Win2	0.4189	n/a	Yes	2.679	n/a	n/a	GoodResponse	1	n/a	n/a	0	73	Blank	Win	True
694.969	1.45	Win2	0.4189	n/a	Yes	2.679	n/a	5.0	GoodResponse	1	0.025	693.994	0	73	Feedback	Win	True
696.423	2.679	Win2	0.4189	n/a	Yes	2.679	n/a	n/a	GoodResponse	1	0.0	n/a	0	73	ISIslide	Win	True
699.115	0.25	Lose2	0.4267	0.0	Yes	2.635	0.015	n/a	GoodResponse	0	n/a	n/a	0	74	Cue	AvoidedLoss	True
699.365	4.05	Lose2	0.4267	0.001	Yes	2.635	0.0	n/a	GoodResponse	0	n/a	n/a	0	74	Fixation	AvoidedLoss	True
703.411	0.5	Lose2	0.4267	0.004	Yes	2.635	-0.004	2.0	GoodResponse	0	0.192	702.603	0	74	Target	AvoidedLoss	True
703.603	0.3	Lose2	0.4267	0.004	Yes	2.635	-0.004	2.0	GoodResponse	0	0.192	n/a	0	74	ButtonPress	AvoidedLoss	True
703.912	0.2	Lose2	0.4267	n/a	Yes	2.635	n/a	n/a	GoodResponse	0	n/a	n/a	0	74	Blank	AvoidedLoss	True
704.113	1.45	Lose2	0.4267	n/a	Yes	2.635	n/a	5.0	GoodResponse	0	0.007	703.12	0	74	Feedback	AvoidedLoss	True
705.567	2.635	Lose2	0.4267	n/a	Yes	2.635	n/a	n/a	GoodResponse	0	0.0	n/a	0	74	ISIslide	AvoidedLoss	True
708.225	0.25	Lose2	0.43420000000000003	0.0	Yes	2.925	0.025	n/a	GoodResponse	0	n/a	n/a	0	75	Cue	AvoidedLoss	True
708.476	3.95	Lose2	0.43420000000000003	0.0	Yes	2.925	0.001	n/a	GoodResponse	0	n/a	n/a	0	75	Fixation	AvoidedLoss	True
712.421	0.5	Lose2	0.43420000000000003	0.004	Yes	2.925	-0.004	2.0	GoodResponse	0	0.187	711.608	0	75	Target	AvoidedLoss	True
712.608	0.3	Lose2	0.43420000000000003	0.004	Yes	2.925	-0.004	2.0	GoodResponse	0	0.187	n/a	0	75	ButtonPress	AvoidedLoss	True
712.923	0.2	Lose2	0.43420000000000003	n/a	Yes	2.925	n/a	n/a	GoodResponse	0	n/a	n/a	0	75	Blank	AvoidedLoss	True
713.123	1.45	Lose2	0.43420000000000003	n/a	Yes	2.925	n/a	5.0	GoodResponse	0	0.018	712.141	0	75	Feedback	AvoidedLoss	True
714.578	2.925	Lose2	0.43420000000000003	n/a	Yes	2.925	n/a	n/a	GoodResponse	0	0.0	n/a	0	75	ISIslide	AvoidedLoss	True
717.52	0.25	Control	0.4416	0.0	Yes	3.23	0.02	n/a	GoodResponse	0	n/a	n/a	0	76	Cue	Neutral	True
717.771	4.05	Control	0.4416	0.0	Yes	3.23	0.001	n/a	GoodResponse	0	n/a	n/a	0	76	Fixation	Neutral	True
721.816	0.5	Control	0.4416	0.004	Yes	3.23	-0.004	2.0	GoodResponse	0	0.188	721.004	0	76	Target	Neutral	True
722.004	0.3	Control	0.4416	0.004	Yes	3.23	-0.004	2.0	GoodResponse	0	0.188	n/a	0	76	ButtonPress	Neutral	True
722.318	0.2	Control	0.4416	n/a	Yes	3.23	n/a	n/a	GoodResponse	0	n/a	n/a	0	76	Blank	Neutral	True
722.518	1.45	Control	0.4416	n/a	Yes	3.23	n/a	5.0	GoodResponse	0	0.037	721.555	0	76	Feedback	Neutral	True
723.972	3.23	Control	0.4416	n/a	Yes	3.23	n/a	n/a	GoodResponse	0	0.0	n/a	0	76	ISIslide	Neutral	True
727.216	0.25	Lose2	0.4487	0.0	Yes	2.584	0.016	n/a	GoodResponse	0	n/a	n/a	0	77	Cue	AvoidedLoss	True
727.466	3.95	Lose2	0.4487	0.0	Yes	2.584	0.0	n/a	GoodResponse	0	n/a	n/a	0	77	Fixation	AvoidedLoss	True
731.428	0.5	Lose2	0.4487	0.0	Yes	2.584	0.012	2.0	GoodResponse	0	0.195	730.623	0	77	Target	AvoidedLoss	True
731.623	0.3	Lose2	0.4487	0.0	Yes	2.584	0.012	2.0	GoodResponse	0	0.195	n/a	0	77	ButtonPress	AvoidedLoss	True
731.913	0.2	Lose2	0.4487	n/a	Yes	2.584	n/a	n/a	GoodResponse	0	n/a	n/a	0	77	Blank	AvoidedLoss	True
732.113	1.45	Lose2	0.4487	n/a	Yes	2.584	n/a	5.0	GoodResponse	0	0.003	731.116	0	77	Feedback	AvoidedLoss	True
733.568	2.584	Lose2	0.4487	n/a	Yes	2.584	n/a	n/a	GoodResponse	0	0.0	n/a	0	77	ISIslide	AvoidedLoss	True
