onset	duration	cue_type	current_mean_accuracy	duration_error	is_hit	isi_adjusted	onset_delay	response	response_type	reward	rt	rt_time	total_reward	trial_number	trial_phase	trial_type	one_press
11.111	0.25	Control	1.0	0.0	Yes	2.939	0.011	n/a	GoodResponse	0	n/a	n/a	0	0	Cue	Neutral	False
11.362	3.85	Control	1.0	0.0	Yes	2.939	0.001	4.0	GoodResponse	0	0.409	10.771	0	0	Fixation	Neutral	False
11.771	0.3	Control	1.0	0.0	Yes	2.939	0.001	4.0	GoodResponse	0	0.409	n/a	0	0	ButtonPress	Neutral	False
15.223	0.4	Control	1.0	0.0	Yes	2.939	0.012	4.0	GoodResponse	0	0.24	14.463	0	0	Target	Neutral	False
15.463	0.3	Control	1.0	0.0	Yes	2.939	0.012	4.0	GoodResponse	0	0.24	n/a	0	0	ButtonPress	Neutral	False
15.608	0.3	Control	1.0	n/a	Yes	2.939	n/a	n/a	GoodResponse	0	n/a	n/a	0	0	Blank	Neutral	False
15.908	1.45	Control	1.0	n/a	Yes	2.939	n/a	5.0	GoodResponse	0	0.019	14.927	0	0	Feedback	Neutral	False
17.363	2.939	Control	1.0	n/a	Yes	2.939	n/a	n/a	GoodResponse	0	0.0	n/a	0	0	ISIslide	Neutral	False
20.322	0.25	Lose2	1.0	0.0	Yes	2.778	0.022	n/a	GoodResponse	0	n/a	n/a	0	1	Cue	AvoidedLoss	True
20.572	4.0	Lose2	1.0	0.001	Yes	2.778	0.0	n/a	GoodResponse	0	n/a	n/a	0	1	Fixation	AvoidedLoss	True
24.568	0.39	Lose2	1.0	0.004	Yes	2.778	-0.004	4.0	GoodResponse	0	0.244	23.812	0	1	Target	AvoidedLoss	True
24.812	0.3	Lose2	1.0	0.004	Yes	2.778	-0.004	4.0	GoodResponse	0	0.244	n/a	0	1	ButtonPress	AvoidedLoss	True
24.969	0.31	Lose2	1.0	n/a	Yes	2.778	n/a	n/a	GoodResponse	0	n/a	n/a	0	1	Blank	AvoidedLoss	True
25.27	1.45	Lose2	1.0	n/a	Yes	2.778	n/a	5.0	GoodResponse	0	0.023	24.293	0	1	Feedback	AvoidedLoss	True
26.724	2.778	Lose2	1.0	n/a	Yes	2.778	n/a	n/a	GoodResponse	0	0.0	n/a	0	1	ISIslide	AvoidedLoss	True
29.516	0.25	Control	1.0	0.0	Yes	2.584	0.016	n/a	GoodResponse	0	n/a	n/a	0	2	Cue	Neutral	True
29.767	4.1	Control	1.0	0.0	Yes	2.584	0.001	n/a	GoodResponse	0	n/a	n/a	0	2	Fixation	Neutral	True
33.862	0.38	Control	1.0	0.004	Yes	2.584	-0.004	4.0	GoodResponse	0	0.232	33.094	0	2	Target	Neutral	True
34.094	0.3	Control	1.0	0.004	Yes	2.584	-0.004	4.0	GoodResponse	0	0.232	n/a	0	2	ButtonPress	Neutral	True
34.247	0.32	Control	1.0	n/a	Yes	2.584	n/a	n/a	GoodResponse	0	n/a	n/a	0	2	Blank	Neutral	True
34.564	1.45	Control	1.0	n/a	Yes	2.584	n/a	5.0	GoodResponse	0	0.045	33.609	0	2	Feedback	Neutral	True
36.019	2.584	Control	1.0	n/a	Yes	2.584	n/a	n/a	GoodResponse	0	0.0	n/a	0	2	ISIslide	Neutral	True
38.627	0.25	Win2	1.0	0.0	Yes	2.823	0.027	n/a	GoodResponse	1	n/a	n/a	1	3	Cue	Win	True
38.877	3.95	Win2	1.0	0.0	Yes	2.823	0.0	n/a	GoodResponse	1	n/a	n/a	1	3	Fixation	Win	True
42.822	0.37	Win2	1.0	0.005	Yes	2.823	-0.005	4.0	GoodResponse	1	0.265	42.087	1	3	Target	Win	True
43.087	0.3	Win2	1.0	0.005	Yes	2.823	-0.005	4.0	GoodResponse	1	0.265	n/a	1	3	ButtonPress	Win	True
43.207	0.33	Win2	1.0	n/a	Yes	2.823	n/a	n/a	GoodResponse	1	n/a	n/a	1	3	Blank	Win	True
43.525	1.45	Win2	1.0	n/a	Yes	2.823	n/a	5.0	GoodResponse	1	0.011	42.536	1	3	Feedback	Win	True
44.979	2.823	Win2	1.0	n/a	Yes	2.823	n/a	n/a	GoodResponse	1	0.0	n/a	1	3	ISIslide	Win	True
47.821	0.25	Win2	1.0	0.0	Yes	3.279	0.021	n/a	GoodResponse	1	n/a	n/a	2	4	Cue	Win	True
48.072	4.0	Win2	1.0	0.0	Yes	3.279	0.001	n/a	GoodResponse	1	n/a	n/a	2	4	Fixation	Win	True
52.067	0.36	Win2	1.0	0.004	Yes	3.279	-0.004	4.0	GoodResponse	1	0.273	51.34	2	4	Target	Win	True
52.34	0.3	Win2	1.0	0.004	Yes	3.279	-0.004	4.0	GoodResponse	1	0.273	n/a	2	4	ButtonPress	Win	True
52.435	0.34	Win2	1.0	n/a	Yes	3.279	n/a	n/a	GoodResponse	1	n/a	n/a	2	4	Blank	Win	True
52.769	1.45	Win2	1.0	n/a	Yes	3.279	n/a	5.0	GoodResponse	1	0.035	51.804	2	4	Feedback	Win	True
54.223	3.279	Win2	1.0	n/a	Yes	3.279	n/a	n/a	GoodResponse	1	0.0	n/a	2	4	ISIslide	Win	True
57.516	0.25	Win2	1.0	0.001	Yes	2.784	0.016	n/a	GoodResponse	1	n/a	n/a	3	5	Cue	Win	True
57.767	4.0	Win2	1.0	0.0	Yes	2.784	0.001	n/a	GoodResponse	1	n/a	n/a	3	5	Fixation	Win	True
61.763	0.35	Win2	1.0	0.003	Yes	2.784	-0.003	4.0	GoodResponse	1	0.215	60.978	3	5	Target	Win	True
61.978	0.3	Win2	1.0	0.003	Yes	2.784	-0.003	4.0	GoodResponse	1	0.215	n/a	3	5	ButtonPress	Win	True
62.114	0.35	Win2	1.0	n/a	Yes	2.784	n/a	n/a	GoodResponse	1	n/a	n/a	3	5	Blank	Win	True
62.465	1.45	Win2	1.0	n/a	Yes	2.784	n/a	5.0	GoodResponse	1	0.047	61.512	3	5	Feedback	Win	True
63.919	2.784	Win2	1.0	n/a	Yes	2.784	n/a	n/a	GoodResponse	1	0.0	n/a	3	5	ISIslide	Win	True
66.727	0.25	Lose2	1.0	0.0	Yes	2.723	0.027	n/a	GoodResponse	0	n/a	n/a	3	6	Cue	AvoidedLoss	True
66.978	3.95	Lose2	1.0	0.0	Yes	2.723	0.001	n/a	GoodResponse	0	n/a	n/a	3	6	Fixation	AvoidedLoss	True
70.923	0.34	Lose2	1.0	0.004	Yes	2.723	-0.004	4.0	GoodResponse	0	0.21	70.133	3	6	Target	AvoidedLoss	True
71.133	0.3	Lose2	1.0	0.004	Yes	2.723	-0.004	4.0	GoodResponse	0	0.21	n/a	3	6	ButtonPress	AvoidedLoss	True
71.274	0.36	Lose2	1.0	n/a	Yes	2.723	n/a	n/a	GoodResponse	0	n/a	n/a	3	6	Blank	AvoidedLoss	True
71.625	1.45	Lose2	1.0	n/a	Yes	2.723	n/a	5.0	GoodResponse	0	0.009	70.634	3	6	Feedback	AvoidedLoss	True
73.08	2.723	Lose2	1.0	n/a	Yes	2.723	n/a	n/a	GoodResponse	0	0.0	n/a	3	6	ISIslide	AvoidedLoss	True
75.821	0.25	Lose2	1.0	0.0	Yes	4.029	0.021	n/a	GoodResponse	0	n/a	n/a	3	7	Cue	AvoidedLoss	True
76.072	4.05	Lose2	1.0	0.0	Yes	4.029	0.001	n/a	GoodResponse	0	n/a	n/a	3	7	Fixation	AvoidedLoss	True
80.118	0.33	Lose2	1.0	0.003	Yes	4.029	-0.003	4.0	GoodResponse	0	0.313	79.431	3	7	Target	AvoidedLoss	True
80.431	0.3	Lose2	1.0	0.003	Yes	4.029	-0.003	4.0	GoodResponse	0	0.313	n/a	3	7	ButtonPress	AvoidedLoss	True
80.452	0.37	Lose2	1.0	n/a	Yes	4.029	n/a	n/a	GoodResponse	0	n/a	n/a	3	7	Blank	AvoidedLoss	True
80.82	1.45	Lose2	1.0	n/a	Yes	4.029	n/a	5.0	GoodResponse	0	0.034	79.854	3	7	Feedback	AvoidedLoss	True
82.274	4.029	Lose2	1.0	n/a	Yes	4.029	n/a	n/a	GoodResponse	0	0.0	n/a	3	7	ISIslide	AvoidedLoss	True
86.319	0.25	Lose2	1.0	0.001	Yes	3.031	0.019	n/a	GoodResponse	0	n/a	n/a	3	8	Cue	AvoidedLoss	True
86.57	3.95	Lose2	1.0	0.0	Yes	3.031	0.001	n/a	GoodResponse	0	n/a	n/a	3	8	Fixation	AvoidedLoss	True
90.515	0.32	Lose2	1.0	0.004	Yes	3.031	-0.004	4.0	GoodResponse	0	0.23	89.745	3	8	Target	AvoidedLoss	True
90.745	0.3	Lose2	1.0	0.004	Yes	3.031	-0.004	4.0	GoodResponse	0	0.23	n/a	3	8	ButtonPress	AvoidedLoss	True
90.85	0.38	Lose2	1.0	n/a	Yes	3.031	n/a	n/a	GoodResponse	0	n/a	n/a	3	8	Blank	AvoidedLoss	True
91.217	1.45	Lose2	1.0	n/a	Yes	3.031	n/a	5.0	GoodResponse	0	0.027	90.244	3	8	Feedback	AvoidedLoss	True
92.672	3.031	Lose2	1.0	n/a	Yes	3.031	n/a	n/a	GoodResponse	0	0.0	n/a	3	8	ISIslide	AvoidedLoss	True
95.731	0.25	Lose2	1.0	0.0	Yes	3.119	0.031	n/a	GoodResponse	0	n/a	n/a	3	9	Cue	AvoidedLoss	True
95.982	3.95	Lose2	1.0	0.0	Yes	3.119	0.001	n/a	GoodResponse	0	n/a	n/a	3	9	Fixation	AvoidedLoss	True
99.927	0.31	Lose2	1.0	0.004	Yes	3.119	-0.004	4.0	GoodResponse	0	0.228	99.155	3	9	Target	AvoidedLoss	True
100.155	0.3	Lose2	1.0	0.004	Yes	3.119	-0.004	4.0	GoodResponse	0	0.228	n/a	3	9	ButtonPress	AvoidedLoss	True
100.245	0.39	Lose2	1.0	n/a	Yes	3.119	n/a	n/a	GoodResponse	0	n/a	n/a	3	9	Blank	AvoidedLoss	True
100.629	1.45	Lose2	1.0	n/a	Yes	3.119	n/a	5.0	GoodResponse	0	0.029	99.658	3	9	Feedback	AvoidedLoss	True
102.083	3.119	Lose2	1.0	n/a	Yes	3.119	n/a	n/a	GoodResponse	0	0.0	n/a	3	9	ISIslide	AvoidedLoss	True
105.226	0.25	Control	0.9091	0.0	No	3.274	0.026	n/a	NoResponse	0	n/a	n/a	3	10	Cue	Neutral	True
105.477	4.0	Control	0.9091	0.0	No	3.274	0.001	n/a	NoResponse	0	n/a	n/a	3	10	Fixation	Neutral	True
109.472	0.3	Control	0.9091	0.004	No	3.274	-0.004	4.0	NoResponse	0	0.448	108.92	3	10	Target	Neutral	True
109.773	0.4	Control	0.9091	n/a	No	3.274	n/a	n/a	NoResponse	0	n/a	n/a	3	10	Blank	Neutral	True
109.92	0.3	Control	0.9091	0.004	No	3.274	-0.004	4.0	NoResponse	0	0.448	n/a	3	10	ButtonPress	Neutral	True
110.174	1.45	Control	0.9091	n/a	No	3.274	n/a	5.0	NoResponse	0	0.045	109.219	3	10	Feedback	Neutral	True
111.629	3.274	Control	0.9091	n/a	No	3.274	n/a	n/a	NoResponse	0	0.0	n/a	3	10	ISIslide	Neutral	True
114.922	0.25	Lose2	0.9167000000000001	0.0	Yes	2.728	0.022	n/a	GoodResponse	0	n/a	n/a	3	11	Cue	AvoidedLoss	True
115.173	4.05	Lose2	0.9167000000000001	0.0	Yes	2.728	0.001	n/a	GoodResponse	0	n/a	n/a	3	11	Fixation	AvoidedLoss	True
119.218	0.29	Lose2	0.9167000000000001	0.004	Yes	2.728	-0.004	4.0	GoodResponse	0	0.209	118.427	3	11	Target	AvoidedLoss	True
119.427	0.3	Lose2	0.9167000000000001	0.004	Yes	2.728	-0.004	4.0	GoodResponse	0	0.209	n/a	3	11	ButtonPress	AvoidedLoss	True
119.519	0.41	Lose2	0.9167000000000001	n/a	Yes	2.728	n/a	n/a	GoodResponse	0	n/a	n/a	3	11	Blank	AvoidedLoss	True
119.92	1.45	Lose2	0.9167000000000001	n/a	Yes	2.728	n/a	5.0	GoodResponse	0	0.007	118.927	3	11	Feedback	AvoidedLoss	True
121.374	2.728	Lose2	0.9167000000000001	n/a	Yes	2.728	n/a	n/a	GoodResponse	0	0.0	n/a	3	11	ISIslide	AvoidedLoss	True
124.116	0.25	Control	0.9231	0.0	Yes	2.984	0.016	n/a	GoodResponse	0	n/a	n/a	3	12	Cue	Neutral	True
124.367	3.9	Control	0.9231	0.0	Yes	2.984	0.001	n/a	GoodResponse	0	n/a	n/a	3	12	Fixation	Neutral	True
128.262	0.28	Control	0.9231	0.004	Yes	2.984	-0.004	4.0	GoodResponse	0	0.265	127.527	3	12	Target	Neutral	True
128.527	0.3	Control	0.9231	0.004	Yes	2.984	-0.004	4.0	GoodResponse	0	0.265	n/a	3	12	ButtonPress	Neutral	True
128.546	0.42	Control	0.9231	n/a	Yes	2.984	n/a	n/a	GoodResponse	0	n/a	n/a	3	12	Blank	Neutral	True
128.964	1.45	Control	0.9231	n/a	Yes	2.984	n/a	5.0	GoodResponse	0	0.035	127.999	3	12	Feedback	Neutral	True
130.418	2.984	Control	0.9231	n/a	Yes	2.984	n/a	n/a	GoodResponse	0	0.0	n/a	3	12	ISIslide	Neutral	True
133.427	0.25	Control	0.8571	0.0	No	2.773	0.027	n/a	NoResponse	0	n/a	n/a	3	13	Cue	Neutral	True
133.678	4.0	Control	0.8571	0.0	No	2.773	0.001	n/a	NoResponse	0	n/a	n/a	3	13	Fixation	Neutral	True
137.673	0.27	Control	0.8571	0.004	No	2.773	-0.004	4.0	NoResponse	0	0.509	137.182	3	13	Target	Neutral	True
137.958	0.43	Control	0.8571	n/a	No	2.773	n/a	n/a	NoResponse	0	n/a	n/a	3	13	Blank	Neutral	True
138.182	0.3	Control	0.8571	0.004	No	2.773	-0.004	4.0	NoResponse	0	0.509	n/a	3	13	ButtonPress	Neutral	True
138.375	1.45	Control	0.8571	n/a	No	2.773	n/a	5.0	NoResponse	0	0.039	137.414	3	13	Feedback	Neutral	True
139.83	2.773	Control	0.8571	n/a	No	2.773	n/a	n/a	NoResponse	0	0.0	n/a	3	13	ISIslide	Neutral	True
142.621	0.25	Win2	0.8667	0.001	Yes	2.679	0.021	n/a	GoodResponse	1	n/a	n/a	4	14	Cue	Win	True
142.872	4.1	Win2	0.8667	0.0	Yes	2.679	0.001	n/a	GoodResponse	1	n/a	n/a	4	14	Fixation	Win	True
146.968	0.26	Win2	0.8667	0.003	Yes	2.679	-0.003	4.0	GoodResponse	1	0.207	146.175	4	14	Target	Win	True
147.175	0.3	Win2	0.8667	0.003	Yes	2.679	-0.003	4.0	GoodResponse	1	0.207	n/a	4	14	ButtonPress	Win	True
147.235	0.44	Win2	0.8667	n/a	Yes	2.679	n/a	n/a	GoodResponse	1	n/a	n/a	4	14	Blank	Win	True
147.67	1.45	Win2	0.8667	n/a	Yes	2.679	n/a	5.0	GoodResponse	1	0.013	146.683	4	14	Feedback	Win	True
149.124	2.679	Win2	0.8667	n/a	Yes	2.679	n/a	n/a	GoodResponse	1	0.0	n/a	4	14	ISIslide	Win	True
151.816	0.25	Control	0.875	0.0	Yes	2.984	0.016	n/a	GoodResponse	0	n/a	n/a	4	15	Cue	Neutral	True
152.066	4.0	Control	0.875	0.001	Yes	2.984	0.0	n/a	GoodResponse	0	n/a	n/a	4	15	Fixation	Neutral	True
156.062	0.25	Control	0.875	0.004	Yes	2.984	-0.004	4.0	GoodResponse	0	0.243	155.305	4	15	Target	Neutral	True
156.305	0.3	Control	0.875	0.004	Yes	2.984	-0.004	4.0	GoodResponse	0	0.243	n/a	4	15	ButtonPress	Neutral	True
156.313	0.45	Control	0.875	n/a	Yes	2.984	n/a	n/a	GoodResponse	0	n/a	n/a	4	15	Blank	Neutral	True
156.764	1.45	Control	0.875	n/a	Yes	2.984	n/a	5.0	GoodResponse	0	0.04	155.804	4	15	Feedback	Neutral	True
158.218	2.984	Control	0.875	n/a	Yes	2.984	n/a	n/a	GoodResponse	0	0.0	n/a	4	15	ISIslide	Neutral	True
161.227	0.25	Win2	0.8824	0.0	Yes	2.873	0.027	n/a	GoodResponse	1	n/a	n/a	5	16	Cue	Win	True
161.478	4.0	Win2	0.8824	0.0	Yes	2.873	0.001	n/a	GoodResponse	1	n/a	n/a	5	16	Fixation	Win	True
165.473	0.24	Win2	0.8824	0.004	Yes	2.873	-0.004	4.0	GoodResponse	1	0.228	164.701	5	16	Target	Win	True
165.701	0.3	Win2	0.8824	0.004	Yes	2.873	-0.004	4.0	GoodResponse	1	0.228	n/a	5	16	ButtonPress	Win	True
165.724	0.46	Win2	0.8824	n/a	Yes	2.873	n/a	n/a	GoodResponse	1	n/a	n/a	5	16	Blank	Win	True
166.175	1.45	Win2	0.8824	n/a	Yes	2.873	n/a	5.0	GoodResponse	1	0.043	165.218	5	16	Feedback	Win	True
167.63	2.873	Win2	0.8824	n/a	Yes	2.873	n/a	n/a	GoodResponse	1	0.0	n/a	5	16	ISIslide	Win	True
170.522	0.25	Lose2	0.8889	0.0	Yes	2.728	0.022	n/a	GoodResponse	0	n/a	n/a	5	17	Cue	AvoidedLoss	True
170.772	3.95	Lose2	0.8889	0.001	Yes	2.728	0.0	n/a	GoodResponse	0	n/a	n/a	5	17	Fixation	AvoidedLoss	True
174.718	0.23	Lose2	0.8889	0.004	Yes	2.728	-0.004	4.0	GoodResponse	0	0.188	173.906	5	17	Target	AvoidedLoss	True
174.906	0.3	Lose2	0.8889	0.004	Yes	2.728	-0.004	4.0	GoodResponse	0	0.188	n/a	5	17	ButtonPress	AvoidedLoss	True
174.952	0.47	Lose2	0.8889	n/a	Yes	2.728	n/a	n/a	GoodResponse	0	n/a	n/a	5	17	Blank	AvoidedLoss	True
175.42	1.45	Lose2	0.8889	n/a	Yes	2.728	n/a	5.0	GoodResponse	0	0.018	174.438	5	17	Feedback	AvoidedLoss	True
176.874	2.728	Lose2	0.8889	n/a	Yes	2.728	n/a	n/a	GoodResponse	0	0.0	n/a	5	17	ISIslide	AvoidedLoss	True
179.616	0.25	Lose2	0.8946999999999999	0.0	Yes	2.734	0.016	n/a	GoodResponse	0	n/a	n/a	5	18	Cue	AvoidedLoss	True
179.866	4.05	Lose2	0.8946999999999999	0.0	Yes	2.734	0.0	n/a	GoodResponse	0	n/a	n/a	5	18	Fixation	AvoidedLoss	True
183.912	0.22	Lose2	0.8946999999999999	0.004	Yes	2.734	-0.004	4.0	GoodResponse	0	0.197	183.109	5	18	Target	AvoidedLoss	True
184.109	0.3	Lose2	0.8946999999999999	0.004	Yes	2.734	-0.004	4.0	GoodResponse	0	0.197	n/a	5	18	ButtonPress	AvoidedLoss	True
184.146	0.48	Lose2	0.8946999999999999	n/a	Yes	2.734	n/a	n/a	GoodResponse	0	n/a	n/a	5	18	Blank	AvoidedLoss	True
184.614	1.45	Lose2	0.8946999999999999	n/a	Yes	2.734	n/a	5.0	GoodResponse	0	0.044	183.658	5	18	Feedback	AvoidedLoss	True
186.068	2.734	Lose2	0.8946999999999999	n/a	Yes	2.734	n/a	n/a	GoodResponse	0	0.0	n/a	5	18	ISIslide	AvoidedLoss	True
188.827	0.25	Control	0.9	0.0	Yes	2.923	0.027	n/a	GoodResponse	0	n/a	n/a	5	19	Cue	Neutral	True
189.077	3.95	Control	0.9	0.0	Yes	2.923	0.0	n/a	GoodResponse	0	n/a	n/a	5	19	Fixation	Neutral	True
193.022	0.21	Control	0.9	0.005	Yes	2.923	-0.005	4.0	GoodResponse	0	0.206	192.228	5	19	Target	Neutral	True
193.228	0.3	Control	0.9	0.005	Yes	2.923	-0.005	4.0	GoodResponse	0	0.206	n/a	5	19	ButtonPress	Neutral	True
193.24	0.49	Control	0.9	n/a	Yes	2.923	n/a	n/a	GoodResponse	0	n/a	n/a	5	19	Blank	Neutral	True
193.725	1.45	Control	0.9	n/a	Yes	2.923	n/a	5.0	GoodResponse	0	0.007	192.732	5	19	Feedback	Neutral	True
195.179	2.923	Control	0.9	n/a	Yes	2.923	n/a	n/a	GoodResponse	0	0.0	n/a	5	19	ISIslide	Neutral	True
198.121	0.25	Control	0.8571	0.0	No	2.629	0.021	n/a	NoResponse	0	n/a	n/a	5	20	Cue	Neutral	True
198.372	4.05	Control	0.8571	0.0	No	2.629	0.001	n/a	NoResponse	0	n/a	n/a	5	20	Fixation	Neutral	True
202.417	0.2	Control	0.8571	0.004	No	2.629	-0.004	4.0	NoResponse	0	0.224	201.641	5	20	Target	Neutral	True
202.618	0.5	Control	0.8571	n/a	No	2.629	n/a	n/a	NoResponse	0	n/a	n/a	5	20	Blank	Neutral	True
202.641	0.3	Control	0.8571	0.004	No	2.629	-0.004	4.0	NoResponse	0	0.224	n/a	5	20	ButtonPress	Neutral	True
203.119	1.45	Control	0.8571	n/a	No	2.629	n/a	5.0	NoResponse	0	0.027	202.146	5	20	Feedback	Neutral	True
204.574	2.629	Control	0.8571	n/a	No	2.629	n/a	n/a	NoResponse	0	0.0	n/a	5	20	ISIslide	Neutral	True
207.215	0.25	Control	0.8181999999999999	0.0	No	2.785	0.015	n/a	NoResponse	0	n/a	n/a	5	21	Cue	Neutral	True
207.466	4.1	Control	0.8181999999999999	0.0	No	2.785	0.001	n/a	NoResponse	0	n/a	n/a	5	21	Fixation	Neutral	True
211.561	0.19	Control	0.8181999999999999	0.004	No	2.785	-0.004	4.0	NoResponse	0	0.257	210.818	5	21	Target	Neutral	True
211.762	0.51	Control	0.8181999999999999	n/a	No	2.785	n/a	n/a	NoResponse	0	n/a	n/a	5	21	Blank	Neutral	True
211.818	0.3	Control	0.8181999999999999	0.004	No	2.785	-0.004	4.0	NoResponse	0	0.257	n/a	5	21	ButtonPress	Neutral	True
212.263	1.45	Control	0.8181999999999999	n/a	No	2.785	n/a	5.0	NoResponse	0	0.007	211.27	5	21	Feedback	Neutral	True
213.718	2.785	Control	0.8181999999999999	n/a	No	2.785	n/a	n/a	NoResponse	0	0.0	n/a	5	21	ISIslide	Neutral	True
216.526	0.25	Control	0.7826000000000001	0.0	No	2.774	0.026	n/a	NoResponse	0	n/a	n/a	5	22	Cue	Neutral	True
216.777	4.0	Control	0.7826000000000001	0.0	No	2.774	0.001	n/a	NoResponse	0	n/a	n/a	5	22	Fixation	Neutral	True
220.772	0.18	Control	0.7826000000000001	0.004	No	2.774	-0.004	4.0	NoResponse	0	0.24	220.012	5	22	Target	Neutral	True
220.956	0.52	Control	0.7826000000000001	n/a	No	2.774	n/a	n/a	NoResponse	0	n/a	n/a	5	22	Blank	Neutral	True
221.012	0.3	Control	0.7826000000000001	0.004	No	2.774	-0.004	4.0	NoResponse	0	0.24	n/a	5	22	ButtonPress	Neutral	True
221.474	1.45	Control	0.7826000000000001	n/a	No	2.774	n/a	5.0	NoResponse	0	0.012	220.486	5	22	Feedback	Neutral	True
222.929	2.774	Control	0.7826000000000001	n/a	No	2.774	n/a	n/a	NoResponse	0	0.0	n/a	5	22	ISIslide	Neutral	True
225.72	0.25	Control	0.75	0.001	No	2.78	0.02	n/a	NoResponse	0	n/a	n/a	5	23	Cue	Neutral	True
225.971	3.9	Control	0.75	0.0	No	2.78	0.001	n/a	NoResponse	0	n/a	n/a	5	23	Fixation	Neutral	True
229.866	0.17	Control	0.75	0.004	No	2.78	-0.004	4.0	NoResponse	0	0.305	229.171	5	23	Target	Neutral	True
230.05	0.53	Control	0.75	n/a	No	2.78	n/a	n/a	NoResponse	0	n/a	n/a	5	23	Blank	Neutral	True
230.171	0.3	Control	0.75	0.004	No	2.78	-0.004	4.0	NoResponse	0	0.305	n/a	5	23	ButtonPress	Neutral	True
230.568	1.45	Control	0.75	n/a	No	2.78	n/a	5.0	NoResponse	0	0.04	229.608	5	23	Feedback	Neutral	True
232.023	2.78	Control	0.75	n/a	No	2.78	n/a	n/a	NoResponse	0	0.0	n/a	5	23	ISIslide	Neutral	True
234.814	0.25	Win2	0.72	0.0	No	3.136	0.014	n/a	NoResponse	0	n/a	n/a	5	24	Cue	MissedWin	True
235.065	3.95	Win2	0.72	0.0	No	3.136	0.001	n/a	NoResponse	0	n/a	n/a	5	24	Fixation	MissedWin	True
239.01	0.16	Win2	0.72	0.004	No	3.136	-0.004	4.0	NoResponse	0	0.176	238.186	5	24	Target	MissedWin	True
239.177	0.54	Win2	0.72	n/a	No	3.136	n/a	n/a	NoResponse	0	n/a	n/a	5	24	Blank	MissedWin	True
239.186	0.3	Win2	0.72	0.004	No	3.136	-0.004	4.0	NoResponse	0	0.176	n/a	5	24	ButtonPress	MissedWin	True
239.712	1.45	Win2	0.72	n/a	No	3.136	n/a	5.0	NoResponse	0	0.018	238.73	5	24	Feedback	MissedWin	True
241.167	3.136	Win2	0.72	n/a	No	3.136	n/a	n/a	NoResponse	0	0.0	n/a	5	24	ISIslide	MissedWin	True
244.326	0.25	Win2	0.6923	0.0	No	3.074	0.026	n/a	NoResponse	0	n/a	n/a	5	25	Cue	MissedWin	True
244.577	4.0	Win2	0.6923	0.0	No	3.074	0.001	n/a	NoResponse	0	n/a	n/a	5	25	Fixation	MissedWin	True
248.572	0.15	Win2	0.6923	0.004	No	3.074	-0.004	4.0	NoResponse	0	0.172	247.744	5	25	Target	MissedWin	True
248.723	0.55	Win2	0.6923	n/a	No	3.074	n/a	n/a	NoResponse	0	n/a	n/a	5	25	Blank	MissedWin	True
248.744	0.3	Win2	0.6923	0.004	No	3.074	-0.004	4.0	NoResponse	0	0.172	n/a	5	25	ButtonPress	MissedWin	True
249.274	1.45	Win2	0.6923	n/a	No	3.074	n/a	5.0	NoResponse	0	0.017	248.291	5	25	Feedback	MissedWin	True
250.729	3.074	Win2	0.6923	n/a	No	3.074	n/a	n/a	NoResponse	0	0.0	n/a	5	25	ISIslide	MissedWin	True
253.821	0.25	Win2	0.6667000000000001	0.0	No	2.929	0.021	n/a	NoResponse	0	n/a	n/a	5	26	Cue	MissedWin	True
254.072	3.95	Win2	0.6667000000000001	0.0	No	2.929	0.001	n/a	NoResponse	0	n/a	n/a	5	26	Fixation	MissedWin	True
258.017	0.15	Win2	0.6667000000000001	0.004	No	2.929	-0.004	4.0	NoResponse	0	0.21	257.227	5	26	Target	MissedWin	True
258.168	0.55	Win2	0.6667000000000001	n/a	No	2.929	n/a	n/a	NoResponse	0	n/a	n/a	5	26	Blank	MissedWin	True
258.227	0.3	Win2	0.6667000000000001	0.004	No	2.929	-0.004	4.0	NoResponse	0	0.21	n/a	5	26	ButtonPress	MissedWin	True
258.719	1.45	Win2	0.6667000000000001	n/a	No	2.929	n/a	5.0	NoResponse	0	0.036	257.755	5	26	Feedback	MissedWin	True
260.174	2.929	Win2	0.6667000000000001	n/a	No	2.929	n/a	n/a	NoResponse	0	0.0	n/a	5	26	ISIslide	MissedWin	True
263.116	0.25	Lose2	0.6429	0.0	No	2.834	0.016	n/a	NoResponse	-1	n/a	n/a	4	27	Cue	Loss	True
263.367	4.05	Lose2	0.6429	0.0	No	2.834	0.001	n/a	NoResponse	-1	n/a	n/a	4	27	Fixation	Loss	True
267.412	0.15	Lose2	0.6429	0.004	No	2.834	-0.004	4.0	NoResponse	-1	0.225	266.637	4	27	Target	Loss	True
267.563	0.55	Lose2	0.6429	n/a	No	2.834	n/a	n/a	NoResponse	-1	n/a	n/a	4	27	Blank	Loss	True
267.637	0.3	Lose2	0.6429	0.004	No	2.834	-0.004	4.0	NoResponse	-1	0.225	n/a	4	27	ButtonPress	Loss	True
268.114	1.45	Lose2	0.6429	n/a	No	2.834	n/a	5.0	NoResponse	-1	0.007	267.121	4	27	Feedback	Loss	True
269.569	2.834	Lose2	0.6429	n/a	No	2.834	n/a	n/a	NoResponse	-1	0.0	n/a	4	27	ISIslide	Loss	True
272.427	0.25	Control	0.6207	0.0	No	2.823	0.027	n/a	NoResponse	0	n/a	n/a	4	28	Cue	Neutral	True
272.678	4.05	Control	0.6207	0.0	No	2.823	0.001	n/a	NoResponse	0	n/a	n/a	4	28	Fixation	Neutral	True
276.723	0.16	Control	0.6207	0.004	No	2.823	-0.004	4.0	NoResponse	0	0.231	275.954	4	28	Target	Neutral	True
276.89	0.54	Control	0.6207	n/a	No	2.823	n/a	n/a	NoResponse	0	n/a	n/a	4	28	Blank	Neutral	True
276.954	0.3	Control	0.6207	0.004	No	2.823	-0.004	4.0	NoResponse	0	0.231	n/a	4	28	ButtonPress	Neutral	True
277.425	1.45	Control	0.6207	n/a	No	2.823	n/a	5.0	NoResponse	0	0.012	276.437	4	28	Feedback	Neutral	True
278.88	2.823	Control	0.6207	n/a	No	2.823	n/a	n/a	NoResponse	0	0.0	n/a	4	28	ISIslide	Neutral	True
281.722	0.25	Lose2	0.6	0.0	No	2.828	0.022	n/a	NoResponse	-1	n/a	n/a	3	29	Cue	Loss	True
281.972	3.95	Lose2	0.6	0.0	No	2.828	0.0	n/a	NoResponse	-1	n/a	n/a	3	29	Fixation	Loss	True
285.918	0.17	Lose2	0.6	0.004	No	2.828	-0.004	4.0	NoResponse	-1	0.206	285.124	3	29	Target	Loss	True
286.101	0.53	Lose2	0.6	n/a	No	2.828	n/a	n/a	NoResponse	-1	n/a	n/a	3	29	Blank	Loss	True
286.124	0.3	Lose2	0.6	0.004	No	2.828	-0.004	4.0	NoResponse	-1	0.206	n/a	3	29	ButtonPress	Loss	True
286.62	1.45	Lose2	0.6	n/a	No	2.828	n/a	5.0	NoResponse	-1	0.037	285.657	3	29	Feedback	Loss	True
288.074	2.828	Lose2	0.6	n/a	No	2.828	n/a	n/a	NoResponse	-1	0.0	n/a	3	29	ISIslide	Loss	True
290.916	0.25	Win2	0.5806	0.0	No	2.784	0.016	n/a	NoResponse	0	n/a	n/a	3	30	Cue	MissedWin	True
291.167	3.9	Win2	0.5806	0.0	No	2.784	0.001	n/a	NoResponse	0	n/a	n/a	3	30	Fixation	MissedWin	True
295.062	0.18	Win2	0.5806	0.004	No	2.784	-0.004	4.0	NoResponse	0	0.213	294.275	3	30	Target	MissedWin	True
295.245	0.52	Win2	0.5806	n/a	No	2.784	n/a	n/a	NoResponse	0	n/a	n/a	3	30	Blank	MissedWin	True
295.275	0.3	Win2	0.5806	0.004	No	2.784	-0.004	4.0	NoResponse	0	0.213	n/a	3	30	ButtonPress	MissedWin	True
295.764	1.45	Win2	0.5806	n/a	No	2.784	n/a	5.0	NoResponse	0	0.015	294.779	3	30	Feedback	MissedWin	True
297.218	2.784	Win2	0.5806	n/a	No	2.784	n/a	n/a	NoResponse	0	0.0	n/a	3	30	ISIslide	MissedWin	True
300.026	0.25	Lose2	0.5625	0.001	No	2.824	0.026	n/a	LatePress	-1	n/a	n/a	2	31	Cue	Loss	True
300.277	4.05	Lose2	0.5625	0.0	No	2.824	0.001	n/a	LatePress	-1	n/a	n/a	2	31	Fixation	Loss	True
304.323	0.19	Lose2	0.5625	0.003	No	2.824	-0.003	4.0	LatePress	-1	0.195	303.518	2	31	Target	Loss	True
304.518	0.3	Lose2	0.5625	0.003	No	2.824	-0.003	4.0	LatePress	-1	0.195	n/a	2	31	ButtonPress	Loss	True
304.523	0.51	Lose2	0.5625	n/a	No	2.824	n/a	n/a	LatePress	-1	n/a	n/a	2	31	Blank	Loss	True
305.025	1.45	Lose2	0.5625	n/a	No	2.824	n/a	5.0	LatePress	-1	0.022	304.047	2	31	Feedback	Loss	True
306.479	2.824	Lose2	0.5625	n/a	No	2.824	n/a	n/a	LatePress	-1	0.0	n/a	2	31	ISIslide	Loss	True
309.321	0.25	Lose2	0.5758	0.0	Yes	2.629	0.021	n/a	GoodResponse	0	n/a	n/a	2	32	Cue	AvoidedLoss	True
309.572	4.15	Lose2	0.5758	0.0	Yes	2.629	0.001	n/a	GoodResponse	0	n/a	n/a	2	32	Fixation	AvoidedLoss	True
313.717	0.2	Lose2	0.5758	0.004	Yes	2.629	-0.004	4.0	GoodResponse	0	0.134	312.851	2	32	Target	AvoidedLoss	True
313.851	0.3	Lose2	0.5758	0.004	Yes	2.629	-0.004	4.0	GoodResponse	0	0.134	n/a	2	32	ButtonPress	AvoidedLoss	True
313.918	0.5	Lose2	0.5758	n/a	Yes	2.629	n/a	n/a	GoodResponse	0	n/a	n/a	2	32	Blank	AvoidedLoss	True
314.42	1.45	Lose2	0.5758	n/a	Yes	2.629	n/a	5.0	GoodResponse	0	0.042	313.462	2	32	Feedback	AvoidedLoss	True
315.874	2.629	Lose2	0.5758	n/a	Yes	2.629	n/a	n/a	GoodResponse	0	0.0	n/a	2	32	ISIslide	AvoidedLoss	True
318.515	0.25	Win2	0.5882000000000001	0.0	Yes	2.685	0.015	n/a	GoodResponse	1	n/a	n/a	3	33	Cue	Win	True
318.766	4.0	Win2	0.5882000000000001	0.0	Yes	2.685	0.001	n/a	GoodResponse	1	n/a	n/a	3	33	Fixation	Win	True
322.761	0.21	Win2	0.5882000000000001	0.004	Yes	2.685	-0.004	4.0	GoodResponse	1	0.173	321.934	3	33	Target	Win	True
322.934	0.3	Win2	0.5882000000000001	0.004	Yes	2.685	-0.004	4.0	GoodResponse	1	0.173	n/a	3	33	ButtonPress	Win	True
322.979	0.49	Win2	0.5882000000000001	n/a	Yes	2.685	n/a	n/a	GoodResponse	1	n/a	n/a	3	33	Blank	Win	True
323.463	1.45	Win2	0.5882000000000001	n/a	Yes	2.685	n/a	5.0	GoodResponse	1	0.023	322.486	3	33	Feedback	Win	True
324.918	2.685	Win2	0.5882000000000001	n/a	Yes	2.685	n/a	n/a	GoodResponse	1	0.0	n/a	3	33	ISIslide	Win	True
327.626	0.25	Lose2	0.6	0.0	Yes	2.624	0.026	n/a	GoodResponse	0	n/a	n/a	3	34	Cue	AvoidedLoss	True
327.877	4.05	Lose2	0.6	0.0	Yes	2.624	0.001	n/a	GoodResponse	0	n/a	n/a	3	34	Fixation	AvoidedLoss	True
331.922	0.22	Lose2	0.6	0.004	Yes	2.624	-0.004	4.0	GoodResponse	0	0.179	331.101	3	34	Target	AvoidedLoss	True
332.101	0.3	Lose2	0.6	0.004	Yes	2.624	-0.004	4.0	GoodResponse	0	0.179	n/a	3	34	ButtonPress	AvoidedLoss	True
332.156	0.48	Lose2	0.6	n/a	Yes	2.624	n/a	n/a	GoodResponse	0	n/a	n/a	3	34	Blank	AvoidedLoss	True
332.624	1.45	Lose2	0.6	n/a	Yes	2.624	n/a	5.0	GoodResponse	0	0.032	331.656	3	34	Feedback	AvoidedLoss	True
334.078	2.624	Lose2	0.6	n/a	Yes	2.624	n/a	n/a	GoodResponse	0	0.0	n/a	3	34	ISIslide	AvoidedLoss	True
336.72	0.25	Lose2	0.6111	0.0	Yes	2.68	0.02	n/a	GoodResponse	0	n/a	n/a	3	35	Cue	AvoidedLoss	True
336.97	4.0	Lose2	0.6111	0.001	Yes	2.68	0.0	n/a	GoodResponse	0	n/a	n/a	3	35	Fixation	AvoidedLoss	True
340.966	0.23	Lose2	0.6111	0.004	Yes	2.68	-0.004	4.0	GoodResponse	0	0.225	340.191	3	35	Target	AvoidedLoss	True
341.191	0.3	Lose2	0.6111	0.004	Yes	2.68	-0.004	4.0	GoodResponse	0	0.225	n/a	3	35	ButtonPress	AvoidedLoss	True
341.2	0.47	Lose2	0.6111	n/a	Yes	2.68	n/a	n/a	GoodResponse	0	n/a	n/a	3	35	Blank	AvoidedLoss	True
341.668	1.45	Lose2	0.6111	n/a	Yes	2.68	n/a	5.0	GoodResponse	0	0.013	340.681	3	35	Feedback	AvoidedLoss	True
343.122	2.68	Lose2	0.6111	n/a	Yes	2.68	n/a	n/a	GoodResponse	0	0.0	n/a	3	35	ISIslide	AvoidedLoss	True
345.83	0.25	Control	0.6215999999999999	0.0	Yes	2.67	0.03	n/a	GoodResponse	0	n/a	n/a	3	36	Cue	Neutral	True
346.081	4.0	Control	0.6215999999999999	0.0	Yes	2.67	0.001	n/a	GoodResponse	0	n/a	n/a	3	36	Fixation	Neutral	True
350.076	0.24	Control	0.6215999999999999	0.004	Yes	2.67	-0.004	4.0	GoodResponse	0	0.213	349.289	3	36	Target	Neutral	True
350.289	0.3	Control	0.6215999999999999	0.004	Yes	2.67	-0.004	4.0	GoodResponse	0	0.213	n/a	3	36	ButtonPress	Neutral	True
350.327	0.46	Control	0.6215999999999999	n/a	Yes	2.67	n/a	n/a	GoodResponse	0	n/a	n/a	3	36	Blank	Neutral	True
350.779	1.45	Control	0.6215999999999999	n/a	Yes	2.67	n/a	5.0	GoodResponse	0	0.024	349.803	3	36	Feedback	Neutral	True
352.233	2.67	Control	0.6215999999999999	n/a	Yes	2.67	n/a	n/a	GoodResponse	0	0.0	n/a	3	36	ISIslide	Neutral	True
354.924	0.25	Win2	0.6315999999999999	0.0	Yes	2.876	0.024	n/a	GoodResponse	1	n/a	n/a	4	37	Cue	Win	True
355.175	4.0	Win2	0.6315999999999999	0.0	Yes	2.876	0.001	n/a	GoodResponse	1	n/a	n/a	4	37	Fixation	Win	True
359.17	0.25	Win2	0.6315999999999999	0.004	Yes	2.876	-0.004	4.0	GoodResponse	1	0.232	358.402	4	37	Target	Win	True
359.402	0.3	Win2	0.6315999999999999	0.004	Yes	2.876	-0.004	4.0	GoodResponse	1	0.232	n/a	4	37	ButtonPress	Win	True
359.421	0.45	Win2	0.6315999999999999	n/a	Yes	2.876	n/a	n/a	GoodResponse	1	n/a	n/a	4	37	Blank	Win	True
359.872	1.45	Win2	0.6315999999999999	n/a	Yes	2.876	n/a	5.0	GoodResponse	1	0.006	358.878	4	37	Feedback	Win	True
361.327	2.876	Win2	0.6315999999999999	n/a	Yes	2.876	n/a	n/a	GoodResponse	1	0.0	n/a	4	37	ISIslide	Win	True
364.219	0.25	Lose2	0.6409999999999999	0.0	Yes	2.831	0.019	n/a	GoodResponse	0	n/a	n/a	4	38	Cue	AvoidedLoss	True
364.47	3.95	Lose2	0.6409999999999999	0.0	Yes	2.831	0.001	n/a	GoodResponse	0	n/a	n/a	4	38	Fixation	AvoidedLoss	True
368.415	0.26	Lose2	0.6409999999999999	0.004	Yes	2.831	-0.004	4.0	GoodResponse	0	0.211	367.626	4	38	Target	AvoidedLoss	True
368.626	0.3	Lose2	0.6409999999999999	0.004	Yes	2.831	-0.004	4.0	GoodResponse	0	0.211	n/a	4	38	ButtonPress	AvoidedLoss	True
368.682	0.44	Lose2	0.6409999999999999	n/a	Yes	2.831	n/a	n/a	GoodResponse	0	n/a	n/a	4	38	Blank	AvoidedLoss	True
369.117	1.45	Lose2	0.6409999999999999	n/a	Yes	2.831	n/a	5.0	GoodResponse	0	0.027	368.144	4	38	Feedback	AvoidedLoss	True
370.571	2.831	Lose2	0.6409999999999999	n/a	Yes	2.831	n/a	n/a	GoodResponse	0	0.0	n/a	4	38	ISIslide	AvoidedLoss	True
373.43	0.25	Win2	0.65	0.0	Yes	2.97	0.03	n/a	GoodResponse	1	n/a	n/a	5	39	Cue	Win	True
373.68	4.1	Win2	0.65	0.001	Yes	2.97	0.0	n/a	GoodResponse	1	n/a	n/a	5	39	Fixation	Win	True
377.776	0.27	Win2	0.65	0.004	Yes	2.97	-0.004	4.0	GoodResponse	1	0.19	376.966	5	39	Target	Win	True
377.966	0.3	Win2	0.65	0.004	Yes	2.97	-0.004	4.0	GoodResponse	1	0.19	n/a	5	39	ButtonPress	Win	True
378.06	0.43	Win2	0.65	n/a	Yes	2.97	n/a	n/a	GoodResponse	1	n/a	n/a	5	39	Blank	Win	True
378.478	1.45	Win2	0.65	n/a	Yes	2.97	n/a	5.0	GoodResponse	1	0.032	377.51	5	39	Feedback	Win	True
379.933	2.97	Win2	0.65	n/a	Yes	2.97	n/a	n/a	GoodResponse	1	0.0	n/a	5	39	ISIslide	Win	True
382.925	0.25	Win2	0.6585	0.0	Yes	2.725	0.025	n/a	GoodResponse	1	n/a	n/a	6	40	Cue	Win	True
383.176	3.95	Win2	0.6585	0.0	Yes	2.725	0.001	n/a	GoodResponse	1	n/a	n/a	6	40	Fixation	Win	True
387.121	0.28	Win2	0.6585	0.004	Yes	2.725	-0.004	4.0	GoodResponse	1	0.209	386.33	6	40	Target	Win	True
387.33	0.3	Win2	0.6585	0.004	Yes	2.725	-0.004	4.0	GoodResponse	1	0.209	n/a	6	40	ButtonPress	Win	True
387.405	0.42	Win2	0.6585	n/a	Yes	2.725	n/a	n/a	GoodResponse	1	n/a	n/a	6	40	Blank	Win	True
387.823	1.45	Win2	0.6585	n/a	Yes	2.725	n/a	5.0	GoodResponse	1	0.007	386.83	6	40	Feedback	Win	True
389.277	2.725	Win2	0.6585	n/a	Yes	2.725	n/a	n/a	GoodResponse	1	0.0	n/a	6	40	ISIslide	Win	True
392.019	0.25	Win2	0.6667000000000001	0.0	Yes	2.781	0.019	n/a	GoodResponse	1	n/a	n/a	7	41	Cue	Win	True
392.27	3.9	Win2	0.6667000000000001	0.0	Yes	2.781	0.001	n/a	GoodResponse	1	n/a	n/a	7	41	Fixation	Win	True
396.165	0.28	Win2	0.6667000000000001	0.004	Yes	2.781	-0.004	4.0	GoodResponse	1	0.222	395.387	7	41	Target	Win	True
396.387	0.3	Win2	0.6667000000000001	0.004	Yes	2.781	-0.004	4.0	GoodResponse	1	0.222	n/a	7	41	ButtonPress	Win	True
396.449	0.42	Win2	0.6667000000000001	n/a	Yes	2.781	n/a	n/a	GoodResponse	1	n/a	n/a	7	41	Blank	Win	True
396.867	1.45	Win2	0.6667000000000001	n/a	Yes	2.781	n/a	5.0	GoodResponse	1	0.033	395.9	7	41	Feedback	Win	True
398.321	2.781	Win2	0.6667000000000001	n/a	Yes	2.781	n/a	n/a	GoodResponse	1	0.0	n/a	7	41	ISIslide	Win	True
401.129	0.25	Control	0.6512	0.0	No	2.921	0.029	n/a	NoResponse	0	n/a	n/a	7	42	Cue	Neutral	True
401.38	3.85	Control	0.6512	0.0	No	2.921	0.001	n/a	NoResponse	0	n/a	n/a	7	42	Fixation	Neutral	True
405.225	0.27	Control	0.6512	0.004	No	2.921	-0.004	4.0	NoResponse	0	0.331	404.556	7	42	Target	Neutral	True
405.509	0.43	Control	0.6512	n/a	No	2.921	n/a	n/a	NoResponse	0	n/a	n/a	7	42	Blank	Neutral	True
405.556	0.3	Control	0.6512	0.004	No	2.921	-0.004	4.0	NoResponse	0	0.331	n/a	7	42	ButtonPress	Neutral	True
405.927	1.45	Control	0.6512	n/a	No	2.921	n/a	5.0	NoResponse	0	0.046	404.973	7	42	Feedback	Neutral	True
407.381	2.921	Control	0.6512	n/a	No	2.921	n/a	n/a	NoResponse	0	0.0	n/a	7	42	ISIslide	Neutral	True
410.324	0.25	Win2	0.6591	0.0	Yes	3.176	0.024	n/a	GoodResponse	1	n/a	n/a	8	43	Cue	Win	True
410.574	4.0	Win2	0.6591	0.0	Yes	3.176	0.0	n/a	GoodResponse	1	n/a	n/a	8	43	Fixation	Win	True
414.57	0.28	Win2	0.6591	0.004	Yes	3.176	-0.004	4.0	GoodResponse	1	0.229	413.799	8	43	Target	Win	True
414.799	0.3	Win2	0.6591	0.004	Yes	3.176	-0.004	4.0	GoodResponse	1	0.229	n/a	8	43	ButtonPress	Win	True
414.854	0.42	Win2	0.6591	n/a	Yes	3.176	n/a	n/a	GoodResponse	1	n/a	n/a	8	43	Blank	Win	True
415.272	1.45	Win2	0.6591	n/a	Yes	3.176	n/a	5.0	GoodResponse	1	0.018	414.29	8	43	Feedback	Win	True
416.726	3.176	Win2	0.6591	n/a	Yes	3.176	n/a	n/a	GoodResponse	1	0.0	n/a	8	43	ISIslide	Win	True
419.919	0.25	Win2	0.6667000000000001	0.0	Yes	2.981	0.019	n/a	GoodResponse	1	n/a	n/a	9	44	Cue	Win	True
420.17	4.0	Win2	0.6667000000000001	0.0	Yes	2.981	0.001	n/a	GoodResponse	1	n/a	n/a	9	44	Fixation	Win	True
424.165	0.28	Win2	0.6667000000000001	0.004	Yes	2.981	-0.004	4.0	GoodResponse	1	0.245	423.41	9	44	Target	Win	True
424.41	0.3	Win2	0.6667000000000001	0.004	Yes	2.981	-0.004	4.0	GoodResponse	1	0.245	n/a	9	44	ButtonPress	Win	True
424.449	0.42	Win2	0.6667000000000001	n/a	Yes	2.981	n/a	n/a	GoodResponse	1	n/a	n/a	9	44	Blank	Win	True
424.867	1.45	Win2	0.6667000000000001	n/a	Yes	2.981	n/a	5.0	GoodResponse	1	0.033	423.9	9	44	Feedback	Win	True
426.322	2.981	Win2	0.6667000000000001	n/a	Yes	2.981	n/a	n/a	GoodResponse	1	0.0	n/a	9	44	ISIslide	Win	True
429.331	0.25	Control	0.6739	0.0	Yes	2.869	0.031	n/a	GoodResponse	0	n/a	n/a	9	45	Cue	Neutral	True
429.581	4.1	Control	0.6739	0.0	Yes	2.869	0.0	n/a	GoodResponse	0	n/a	n/a	9	45	Fixation	Neutral	True
433.677	0.27	Control	0.6739	0.004	Yes	2.869	-0.004	4.0	GoodResponse	0	0.256	432.933	9	45	Target	Neutral	True
433.933	0.3	Control	0.6739	0.004	Yes	2.869	-0.004	4.0	GoodResponse	0	0.256	n/a	9	45	ButtonPress	Neutral	True
433.961	0.43	Control	0.6739	n/a	Yes	2.869	n/a	n/a	GoodResponse	0	n/a	n/a	9	45	Blank	Neutral	True
434.379	1.45	Control	0.6739	n/a	Yes	2.869	n/a	5.0	GoodResponse	0	0.033	433.412	9	45	Feedback	Neutral	True
435.833	2.869	Control	0.6739	n/a	Yes	2.869	n/a	n/a	GoodResponse	0	0.0	n/a	9	45	ISIslide	Neutral	True
438.725	0.25	Lose2	0.6809000000000001	0.0	Yes	3.375	0.025	n/a	GoodResponse	0	n/a	n/a	9	46	Cue	AvoidedLoss	True
438.976	4.0	Lose2	0.6809000000000001	0.0	Yes	3.375	0.001	n/a	GoodResponse	0	n/a	n/a	9	46	Fixation	AvoidedLoss	True
442.971	0.26	Lose2	0.6809000000000001	0.004	Yes	3.375	-0.004	4.0	GoodResponse	0	0.255	442.226	9	46	Target	AvoidedLoss	True
443.226	0.3	Lose2	0.6809000000000001	0.004	Yes	3.375	-0.004	4.0	GoodResponse	0	0.255	n/a	9	46	ButtonPress	AvoidedLoss	True
443.239	0.44	Lose2	0.6809000000000001	n/a	Yes	3.375	n/a	n/a	GoodResponse	0	n/a	n/a	9	46	Blank	AvoidedLoss	True
443.674	1.45	Lose2	0.6809000000000001	n/a	Yes	3.375	n/a	5.0	GoodResponse	0	0.007	442.681	9	46	Feedback	AvoidedLoss	True
445.128	3.375	Lose2	0.6809000000000001	n/a	Yes	3.375	n/a	n/a	GoodResponse	0	0.0	n/a	9	46	ISIslide	AvoidedLoss	True
448.521	0.25	Lose2	0.6875	0.0	Yes	2.679	0.021	n/a	GoodResponse	0	n/a	n/a	9	47	Cue	AvoidedLoss	True
448.772	4.0	Lose2	0.6875	0.0	Yes	2.679	0.001	n/a	GoodResponse	0	n/a	n/a	9	47	Fixation	AvoidedLoss	True
452.767	0.25	Lose2	0.6875	0.004	Yes	2.679	-0.004	4.0	GoodResponse	0	0.179	451.946	9	47	Target	AvoidedLoss	True
452.946	0.3	Lose2	0.6875	0.004	Yes	2.679	-0.004	4.0	GoodResponse	0	0.179	n/a	9	47	ButtonPress	AvoidedLoss	True
453.018	0.45	Lose2	0.6875	n/a	Yes	2.679	n/a	n/a	GoodResponse	0	n/a	n/a	9	47	Blank	AvoidedLoss	True
453.47	1.45	Lose2	0.6875	n/a	Yes	2.679	n/a	5.0	GoodResponse	0	0.015	452.485	9	47	Feedback	AvoidedLoss	True
454.924	2.679	Lose2	0.6875	n/a	Yes	2.679	n/a	n/a	GoodResponse	0	0.0	n/a	9	47	ISIslide	AvoidedLoss	True
457.615	0.25	Lose2	0.6939	0.0	Yes	3.035	0.015	n/a	GoodResponse	0	n/a	n/a	9	48	Cue	AvoidedLoss	True
457.866	3.95	Lose2	0.6939	0.0	Yes	3.035	0.001	n/a	GoodResponse	0	n/a	n/a	9	48	Fixation	AvoidedLoss	True
461.811	0.24	Lose2	0.6939	0.004	Yes	3.035	-0.004	4.0	GoodResponse	0	0.192	461.003	9	48	Target	AvoidedLoss	True
462.003	0.3	Lose2	0.6939	0.004	Yes	3.035	-0.004	4.0	GoodResponse	0	0.192	n/a	9	48	ButtonPress	AvoidedLoss	True
462.062	0.46	Lose2	0.6939	n/a	Yes	3.035	n/a	n/a	GoodResponse	0	n/a	n/a	9	48	Blank	AvoidedLoss	True
462.513	1.45	Lose2	0.6939	n/a	Yes	3.035	n/a	5.0	GoodResponse	0	0.045	461.558	9	48	Feedback	AvoidedLoss	True
463.968	3.035	Lose2	0.6939	n/a	Yes	3.035	n/a	n/a	GoodResponse	0	0.0	n/a	9	48	ISIslide	AvoidedLoss	True
467.027	0.25	Control	0.68	0.0	No	2.873	0.027	n/a	NoResponse	0	n/a	n/a	9	49	Cue	Neutral	True
467.278	4.0	Control	0.68	0.0	No	2.873	0.001	n/a	NoResponse	0	n/a	n/a	9	49	Fixation	Neutral	True
471.273	0.23	Control	0.68	0.004	No	2.873	-0.004	4.0	NoResponse	0	0.251	470.524	9	49	Target	Neutral	True
471.507	0.47	Control	0.68	n/a	No	2.873	n/a	n/a	NoResponse	0	n/a	n/a	9	49	Blank	Neutral	True
471.524	0.3	Control	0.68	0.004	No	2.873	-0.004	4.0	NoResponse	0	0.251	n/a	9	49	ButtonPress	Neutral	True
471.975	1.45	Control	0.68	n/a	No	2.873	n/a	5.0	NoResponse	0	0.047	471.022	9	49	Feedback	Neutral	True
473.429	2.873	Control	0.68	n/a	No	2.873	n/a	n/a	NoResponse	0	0.0	n/a	9	49	ISIslide	Neutral	True
476.321	0.25	Control	0.6667000000000001	0.0	No	2.779	0.021	n/a	LatePress	0	n/a	n/a	9	50	Cue	Neutral	True
476.572	4.0	Control	0.6667000000000001	0.0	No	2.779	0.001	n/a	LatePress	0	n/a	n/a	9	50	Fixation	Neutral	True
480.567	0.22	Control	0.6667000000000001	0.004	No	2.779	-0.004	4.0	LatePress	0	0.233	479.8	9	50	Target	Neutral	True
480.8	0.3	Control	0.6667000000000001	0.004	No	2.779	-0.004	4.0	LatePress	0	0.233	n/a	9	50	ButtonPress	Neutral	True
480.801	0.48	Control	0.6667000000000001	n/a	No	2.779	n/a	n/a	LatePress	0	n/a	n/a	9	50	Blank	Neutral	True
481.27	1.45	Control	0.6667000000000001	n/a	No	2.779	n/a	5.0	LatePress	0	0.02	480.29	9	50	Feedback	Neutral	True
482.724	2.779	Control	0.6667000000000001	n/a	No	2.779	n/a	n/a	LatePress	0	0.0	n/a	9	50	ISIslide	Neutral	True
485.516	0.25	Control	0.6537999999999999	0.0	No	2.734	0.016	n/a	NoResponse	0	n/a	n/a	9	51	Cue	Neutral	True
485.766	3.95	Control	0.6537999999999999	0.0	No	2.734	0.0	n/a	NoResponse	0	n/a	n/a	9	51	Fixation	Neutral	True
489.728	0.21	Control	0.6537999999999999	0.0	No	2.734	0.012	4.0	NoResponse	0	0.219	488.947	9	51	Target	Neutral	True
489.929	0.49	Control	0.6537999999999999	n/a	No	2.734	n/a	n/a	NoResponse	0	n/a	n/a	9	51	Blank	Neutral	True
489.947	0.3	Control	0.6537999999999999	0.0	No	2.734	0.012	4.0	NoResponse	0	0.219	n/a	9	51	ButtonPress	Neutral	True
490.414	1.45	Control	0.6537999999999999	n/a	No	2.734	n/a	5.0	NoResponse	0	0.047	489.461	9	51	Feedback	Neutral	True
491.868	2.734	Control	0.6537999999999999	n/a	No	2.734	n/a	n/a	NoResponse	0	0.0	n/a	9	51	ISIslide	Neutral	True
494.626	0.25	Control	0.6604000000000001	0.0	Yes	2.624	0.026	n/a	GoodResponse	0	n/a	n/a	9	52	Cue	Neutral	True
494.877	4.05	Control	0.6604000000000001	0.0	Yes	2.624	0.001	n/a	GoodResponse	0	n/a	n/a	9	52	Fixation	Neutral	True
498.922	0.22	Control	0.6604000000000001	0.004	Yes	2.624	-0.004	4.0	GoodResponse	0	0.209	498.131	9	52	Target	Neutral	True
499.131	0.3	Control	0.6604000000000001	0.004	Yes	2.624	-0.004	4.0	GoodResponse	0	0.209	n/a	9	52	ButtonPress	Neutral	True
499.156	0.48	Control	0.6604000000000001	n/a	Yes	2.624	n/a	n/a	GoodResponse	0	n/a	n/a	9	52	Blank	Neutral	True
499.625	1.45	Control	0.6604000000000001	n/a	Yes	2.624	n/a	5.0	GoodResponse	0	0.007	498.632	9	52	Feedback	Neutral	True
501.079	2.624	Control	0.6604000000000001	n/a	Yes	2.624	n/a	n/a	GoodResponse	0	0.0	n/a	9	52	ISIslide	Neutral	True
503.72	0.25	Win2	0.6481	0.0	No	2.93	0.02	n/a	NoResponse	0	n/a	n/a	9	53	Cue	MissedWin	False
503.971	4.05	Win2	0.6481	0.0	No	2.93	0.001	4.0	NoResponse	0	3.177	506.148	9	53	Fixation	MissedWin	False
507.148	0.3	Win2	0.6481	0.0	No	2.93	0.001	4.0	NoResponse	0	3.177	n/a	9	53	ButtonPress	MissedWin	False
508.016	0.22	Win2	0.6481	0.004	No	2.93	-0.004	4.0	NoResponse	0	0.236	507.252	9	53	Target	MissedWin	False
508.25	0.48	Win2	0.6481	n/a	No	2.93	n/a	n/a	NoResponse	0	n/a	n/a	9	53	Blank	MissedWin	False
508.252	0.3	Win2	0.6481	0.004	No	2.93	-0.004	4.0	NoResponse	0	0.236	n/a	9	53	ButtonPress	MissedWin	False
508.718	1.45	Win2	0.6481	n/a	No	2.93	n/a	5.0	NoResponse	0	0.035	507.753	9	53	Feedback	MissedWin	False
510.173	2.93	Win2	0.6481	n/a	No	2.93	n/a	n/a	NoResponse	0	0.0	n/a	9	53	ISIslide	MissedWin	False
513.132	0.25	Win2	0.6545000000000001	0.0	Yes	2.718	0.032	n/a	GoodResponse	1	n/a	n/a	10	54	Cue	Win	True
513.382	3.95	Win2	0.6545000000000001	0.0	Yes	2.718	0.0	n/a	GoodResponse	1	n/a	n/a	10	54	Fixation	Win	True
517.328	0.23	Win2	0.6545000000000001	0.004	Yes	2.718	-0.004	4.0	GoodResponse	1	0.213	516.541	10	54	Target	Win	True
517.541	0.3	Win2	0.6545000000000001	0.004	Yes	2.718	-0.004	4.0	GoodResponse	1	0.213	n/a	10	54	ButtonPress	Win	True
517.562	0.47	Win2	0.6545000000000001	n/a	Yes	2.718	n/a	n/a	GoodResponse	1	n/a	n/a	10	54	Blank	Win	True
518.03	1.45	Win2	0.6545000000000001	n/a	Yes	2.718	n/a	5.0	GoodResponse	1	0.04	517.07	10	54	Feedback	Win	True
519.484	2.718	Win2	0.6545000000000001	n/a	Yes	2.718	n/a	n/a	GoodResponse	1	0.0	n/a	10	54	ISIslide	Win	True
522.226	0.25	Control	0.6607	0.0	Yes	3.024	0.026	n/a	GoodResponse	0	n/a	n/a	10	55	Cue	Neutral	True
522.476	3.95	Control	0.6607	0.0	Yes	3.024	0.0	n/a	GoodResponse	0	n/a	n/a	10	55	Fixation	Neutral	True
526.438	0.24	Control	0.6607	0.0	Yes	3.024	0.012	4.0	GoodResponse	0	0.215	525.653	10	55	Target	Neutral	True
526.653	0.3	Control	0.6607	0.0	Yes	3.024	0.012	4.0	GoodResponse	0	0.215	n/a	10	55	ButtonPress	Neutral	True
526.672	0.46	Control	0.6607	n/a	Yes	3.024	n/a	n/a	GoodResponse	0	n/a	n/a	10	55	Blank	Neutral	True
527.124	1.45	Control	0.6607	n/a	Yes	3.024	n/a	5.0	GoodResponse	0	0.019	526.143	10	55	Feedback	Neutral	True
528.578	3.024	Control	0.6607	n/a	Yes	3.024	n/a	n/a	GoodResponse	0	0.0	n/a	10	55	ISIslide	Neutral	True
531.62	0.25	Control	0.6667000000000001	0.0	Yes	2.83	0.02	n/a	GoodResponse	0	n/a	n/a	10	56	Cue	Neutral	True
531.871	3.95	Control	0.6667000000000001	0.0	Yes	2.83	0.001	n/a	GoodResponse	0	n/a	n/a	10	56	Fixation	Neutral	True
535.816	0.24	Control	0.6667000000000001	0.004	Yes	2.83	-0.004	4.0	GoodResponse	0	0.22	535.036	10	56	Target	Neutral	True
536.036	0.3	Control	0.6667000000000001	0.004	Yes	2.83	-0.004	4.0	GoodResponse	0	0.22	n/a	10	56	ButtonPress	Neutral	True
536.067	0.46	Control	0.6667000000000001	n/a	Yes	2.83	n/a	n/a	GoodResponse	0	n/a	n/a	10	56	Blank	Neutral	True
536.518	1.45	Control	0.6667000000000001	n/a	Yes	2.83	n/a	5.0	GoodResponse	0	0.04	535.558	10	56	Feedback	Neutral	True
537.973	2.83	Control	0.6667000000000001	n/a	Yes	2.83	n/a	n/a	GoodResponse	0	0.0	n/a	10	56	ISIslide	Neutral	True
540.815	0.25	Control	0.6552	0.0	No	3.485	0.015	n/a	NoResponse	0	n/a	n/a	10	57	Cue	Neutral	True
541.065	4.0	Control	0.6552	0.0	No	3.485	0.0	n/a	NoResponse	0	n/a	n/a	10	57	Fixation	Neutral	True
545.061	0.23	Control	0.6552	0.004	No	3.485	-0.004	4.0	NoResponse	0	0.358	544.419	10	57	Target	Neutral	True
545.295	0.47	Control	0.6552	n/a	No	3.485	n/a	n/a	NoResponse	0	n/a	n/a	10	57	Blank	Neutral	True
545.419	0.3	Control	0.6552	0.004	No	3.485	-0.004	4.0	NoResponse	0	0.358	n/a	10	57	ButtonPress	Neutral	True
545.763	1.45	Control	0.6552	n/a	No	3.485	n/a	5.0	NoResponse	0	0.015	544.778	10	57	Feedback	Neutral	True
547.217	3.485	Control	0.6552	n/a	No	3.485	n/a	n/a	NoResponse	0	0.0	n/a	10	57	ISIslide	Neutral	True
550.728	0.25	Win2	0.6609999999999999	0.0	Yes	2.722	0.028	n/a	GoodResponse	1	n/a	n/a	11	58	Cue	Win	False
550.978	4.05	Win2	0.6609999999999999	0.0	Yes	2.722	0.0	4.0	GoodResponse	1	3.374	553.352	11	58	Fixation	Win	False
554.352	0.3	Win2	0.6609999999999999	0.0	Yes	2.722	0.0	4.0	GoodResponse	1	3.374	n/a	11	58	ButtonPress	Win	False
555.024	0.23	Win2	0.6609999999999999	0.004	Yes	2.722	-0.004	4.0	GoodResponse	1	0.194	554.218	11	58	Target	Win	False
555.218	0.3	Win2	0.6609999999999999	0.004	Yes	2.722	-0.004	4.0	GoodResponse	1	0.194	n/a	11	58	ButtonPress	Win	False
555.258	0.47	Win2	0.6609999999999999	n/a	Yes	2.722	n/a	n/a	GoodResponse	1	n/a	n/a	11	58	Blank	Win	False
555.726	1.45	Win2	0.6609999999999999	n/a	Yes	2.722	n/a	5.0	GoodResponse	1	0.007	554.733	11	58	Feedback	Win	False
557.18	2.722	Win2	0.6609999999999999	n/a	Yes	2.722	n/a	n/a	GoodResponse	1	0.0	n/a	11	58	ISIslide	Win	False
559.922	0.25	Lose2	0.6667000000000001	0.0	Yes	2.678	0.022	n/a	GoodResponse	0	n/a	n/a	11	59	Cue	AvoidedLoss	True
560.173	4.0	Lose2	0.6667000000000001	0.0	Yes	2.678	0.001	n/a	GoodResponse	0	n/a	n/a	11	59	Fixation	AvoidedLoss	True
564.168	0.23	Lose2	0.6667000000000001	0.004	Yes	2.678	-0.004	4.0	GoodResponse	0	0.211	563.379	11	59	Target	AvoidedLoss	True
564.379	0.3	Lose2	0.6667000000000001	0.004	Yes	2.678	-0.004	4.0	GoodResponse	0	0.211	n/a	11	59	ButtonPress	AvoidedLoss	True
564.402	0.47	Lose2	0.6667000000000001	n/a	Yes	2.678	n/a	n/a	GoodResponse	0	n/a	n/a	11	59	Blank	AvoidedLoss	True
564.87	1.45	Lose2	0.6667000000000001	n/a	Yes	2.678	n/a	5.0	GoodResponse	0	0.03	563.9	11	59	Feedback	AvoidedLoss	True
566.324	2.678	Lose2	0.6667000000000001	n/a	Yes	2.678	n/a	n/a	GoodResponse	0	0.0	n/a	11	59	ISIslide	AvoidedLoss	True
569.016	0.25	Control	0.6557	0.0	No	2.684	0.016	n/a	NoResponse	0	n/a	n/a	11	60	Cue	Neutral	True
569.267	4.0	Control	0.6557	0.0	No	2.684	0.001	n/a	NoResponse	0	n/a	n/a	11	60	Fixation	Neutral	True
573.262	0.22	Control	0.6557	0.004	No	2.684	-0.004	4.0	NoResponse	0	0.248	572.51	11	60	Target	Neutral	True
573.496	0.48	Control	0.6557	n/a	No	2.684	n/a	n/a	NoResponse	0	n/a	n/a	11	60	Blank	Neutral	True
573.51	0.3	Control	0.6557	0.004	No	2.684	-0.004	4.0	NoResponse	0	0.248	n/a	11	60	ButtonPress	Neutral	True
573.964	1.45	Control	0.6557	n/a	No	2.684	n/a	5.0	NoResponse	0	0.008	572.972	11	60	Feedback	Neutral	True
575.418	2.684	Control	0.6557	n/a	No	2.684	n/a	n/a	NoResponse	0	0.0	n/a	11	60	ISIslide	Neutral	True
578.126	0.25	Lose2	0.6613	0.001	Yes	2.974	0.026	n/a	GoodResponse	0	n/a	n/a	11	61	Cue	AvoidedLoss	True
578.377	4.0	Lose2	0.6613	0.0	Yes	2.974	0.001	n/a	GoodResponse	0	n/a	n/a	11	61	Fixation	AvoidedLoss	True
582.372	0.22	Lose2	0.6613	0.004	Yes	2.974	-0.004	4.0	GoodResponse	0	0.193	581.565	11	61	Target	AvoidedLoss	True
582.565	0.3	Lose2	0.6613	0.004	Yes	2.974	-0.004	4.0	GoodResponse	0	0.193	n/a	11	61	ButtonPress	AvoidedLoss	True
582.607	0.48	Lose2	0.6613	n/a	Yes	2.974	n/a	n/a	GoodResponse	0	n/a	n/a	11	61	Blank	AvoidedLoss	True
583.075	1.45	Lose2	0.6613	n/a	Yes	2.974	n/a	5.0	GoodResponse	0	0.019	582.094	11	61	Feedback	AvoidedLoss	True
584.529	2.974	Lose2	0.6613	n/a	Yes	2.974	n/a	n/a	GoodResponse	0	0.0	n/a	11	61	ISIslide	AvoidedLoss	True
587.521	0.25	Lose2	0.6667000000000001	0.0	Yes	2.879	0.021	n/a	GoodResponse	0	n/a	n/a	11	62	Cue	AvoidedLoss	True
587.772	3.9	Lose2	0.6667000000000001	0.0	Yes	2.879	0.001	n/a	GoodResponse	0	n/a	n/a	11	62	Fixation	AvoidedLoss	True
591.667	0.22	Lose2	0.6667000000000001	0.004	Yes	2.879	-0.004	4.0	GoodResponse	0	0.194	590.861	11	62	Target	AvoidedLoss	True
591.861	0.3	Lose2	0.6667000000000001	0.004	Yes	2.879	-0.004	4.0	GoodResponse	0	0.194	n/a	11	62	ButtonPress	AvoidedLoss	True
591.901	0.48	Lose2	0.6667000000000001	n/a	Yes	2.879	n/a	n/a	GoodResponse	0	n/a	n/a	11	62	Blank	AvoidedLoss	True
592.369	1.45	Lose2	0.6667000000000001	n/a	Yes	2.879	n/a	5.0	GoodResponse	0	0.042	591.411	11	62	Feedback	AvoidedLoss	True
593.823	2.879	Lose2	0.6667000000000001	n/a	Yes	2.879	n/a	n/a	GoodResponse	0	0.0	n/a	11	62	ISIslide	AvoidedLoss	True
596.715	0.25	Lose2	0.6718999999999999	0.001	Yes	2.635	0.015	n/a	GoodResponse	0	n/a	n/a	11	63	Cue	AvoidedLoss	True
596.966	4.05	Lose2	0.6718999999999999	0.0	Yes	2.635	0.001	n/a	GoodResponse	0	n/a	n/a	11	63	Fixation	AvoidedLoss	True
601.012	0.21	Lose2	0.6718999999999999	0.003	Yes	2.635	-0.003	4.0	GoodResponse	0	0.195	600.207	11	63	Target	AvoidedLoss	True
601.207	0.3	Lose2	0.6718999999999999	0.003	Yes	2.635	-0.003	4.0	GoodResponse	0	0.195	n/a	11	63	ButtonPress	AvoidedLoss	True
601.229	0.49	Lose2	0.6718999999999999	n/a	Yes	2.635	n/a	n/a	GoodResponse	0	n/a	n/a	11	63	Blank	AvoidedLoss	True
601.714	1.45	Lose2	0.6718999999999999	n/a	Yes	2.635	n/a	5.0	GoodResponse	0	0.014	600.728	11	63	Feedback	AvoidedLoss	True
603.168	2.635	Lose2	0.6718999999999999	n/a	Yes	2.635	n/a	n/a	GoodResponse	0	0.0	n/a	11	63	ISIslide	AvoidedLoss	True
605.826	0.25	Win2	0.6615000000000001	0.0	No	3.124	0.026	n/a	NoResponse	0	n/a	n/a	11	64	Cue	MissedWin	True
606.077	4.15	Win2	0.6615000000000001	0.0	No	3.124	0.001	n/a	NoResponse	0	n/a	n/a	11	64	Fixation	MissedWin	True
610.223	0.2	Win2	0.6615000000000001	0.003	No	3.124	-0.003	4.0	NoResponse	0	0.212	609.435	11	64	Target	MissedWin	True
610.423	0.5	Win2	0.6615000000000001	n/a	No	3.124	n/a	n/a	NoResponse	0	n/a	n/a	11	64	Blank	MissedWin	True
610.435	0.3	Win2	0.6615000000000001	0.003	No	3.124	-0.003	4.0	NoResponse	0	0.212	n/a	11	64	ButtonPress	MissedWin	True
610.925	1.45	Win2	0.6615000000000001	n/a	No	3.124	n/a	5.0	NoResponse	0	0.023	609.948	11	64	Feedback	MissedWin	True
612.379	3.124	Win2	0.6615000000000001	n/a	No	3.124	n/a	n/a	NoResponse	0	0.0	n/a	11	64	ISIslide	MissedWin	True
615.522	0.25	Control	0.6515000000000001	0.0	No	2.778	0.022	n/a	NoResponse	0	n/a	n/a	11	65	Cue	Neutral	True
615.773	4.0	Control	0.6515000000000001	0.0	No	2.778	0.001	n/a	NoResponse	0	n/a	n/a	11	65	Fixation	Neutral	True
619.768	0.2	Control	0.6515000000000001	0.004	No	2.778	-0.004	4.0	NoResponse	0	0.209	618.977	11	65	Target	Neutral	True
619.968	0.5	Control	0.6515000000000001	n/a	No	2.778	n/a	n/a	NoResponse	0	n/a	n/a	11	65	Blank	Neutral	True
619.977	0.3	Control	0.6515000000000001	0.004	No	2.778	-0.004	4.0	NoResponse	0	0.209	n/a	11	65	ButtonPress	Neutral	True
620.47	1.45	Control	0.6515000000000001	n/a	No	2.778	n/a	5.0	NoResponse	0	0.039	619.509	11	65	Feedback	Neutral	True
621.924	2.778	Control	0.6515000000000001	n/a	No	2.778	n/a	n/a	NoResponse	0	0.0	n/a	11	65	ISIslide	Neutral	True
624.716	0.25	Win2	0.6418	0.0	No	2.784	0.016	n/a	NoResponse	0	n/a	n/a	11	66	Cue	MissedWin	False
624.967	3.9	Win2	0.6418	0.0	No	2.784	0.001	4.0	NoResponse	0	3.7	627.667	11	66	Fixation	MissedWin	False
628.667	0.3	Win2	0.6418	0.0	No	2.784	0.001	4.0	NoResponse	0	3.7	n/a	11	66	ButtonPress	MissedWin	False
628.862	0.21	Win2	0.6418	0.004	No	2.784	-0.004	4.0	NoResponse	0	0.242	628.104	11	66	Target	MissedWin	False
629.079	0.49	Win2	0.6418	n/a	No	2.784	n/a	n/a	NoResponse	0	n/a	n/a	11	66	Blank	MissedWin	False
629.104	0.3	Win2	0.6418	0.004	No	2.784	-0.004	4.0	NoResponse	0	0.242	n/a	11	66	ButtonPress	MissedWin	False
629.564	1.45	Win2	0.6418	n/a	No	2.784	n/a	5.0	NoResponse	0	0.018	628.582	11	66	Feedback	MissedWin	False
631.018	2.784	Win2	0.6418	n/a	No	2.784	n/a	n/a	NoResponse	0	0.0	n/a	11	66	ISIslide	MissedWin	False
633.827	0.25	Control	0.6324000000000001	0.0	No	2.723	0.027	n/a	LatePress	0	n/a	n/a	11	67	Cue	Neutral	True
634.077	3.95	Control	0.6324000000000001	0.0	No	2.723	0.0	n/a	LatePress	0	n/a	n/a	11	67	Fixation	Neutral	True
638.023	0.22	Control	0.6324000000000001	0.004	No	2.723	-0.004	4.0	LatePress	0	0.227	637.25	11	67	Target	Neutral	True
638.25	0.3	Control	0.6324000000000001	0.004	No	2.723	-0.004	4.0	LatePress	0	0.227	n/a	11	67	ButtonPress	Neutral	True
638.257	0.48	Control	0.6324000000000001	n/a	No	2.723	n/a	n/a	LatePress	0	n/a	n/a	11	67	Blank	Neutral	True
638.725	1.45	Control	0.6324000000000001	n/a	No	2.723	n/a	5.0	LatePress	0	0.027	637.752	11	67	Feedback	Neutral	True
640.179	2.723	Control	0.6324000000000001	n/a	No	2.723	n/a	n/a	LatePress	0	0.0	n/a	11	67	ISIslide	Neutral	True
642.921	0.25	Win2	0.6377	0.0	Yes	3.079	0.021	n/a	GoodResponse	1	n/a	n/a	12	68	Cue	Win	True
643.171	4.0	Win2	0.6377	0.0	Yes	3.079	0.0	n/a	GoodResponse	1	n/a	n/a	12	68	Fixation	Win	True
647.167	0.23	Win2	0.6377	0.004	Yes	3.079	-0.004	4.0	GoodResponse	1	0.205	646.372	12	68	Target	Win	True
647.372	0.3	Win2	0.6377	0.004	Yes	3.079	-0.004	4.0	GoodResponse	1	0.205	n/a	12	68	ButtonPress	Win	True
647.401	0.47	Win2	0.6377	n/a	Yes	3.079	n/a	n/a	GoodResponse	1	n/a	n/a	12	68	Blank	Win	True
647.869	1.45	Win2	0.6377	n/a	Yes	3.079	n/a	5.0	GoodResponse	1	0.005	646.874	12	68	Feedback	Win	True
649.323	3.079	Win2	0.6377	n/a	Yes	3.079	n/a	n/a	GoodResponse	1	0.0	n/a	12	68	ISIslide	Win	True
652.416	0.25	Win2	0.6286	0.0	No	3.234	0.016	n/a	NoResponse	0	n/a	n/a	12	69	Cue	MissedWin	True
652.666	3.95	Win2	0.6286	0.001	No	3.234	0.0	n/a	NoResponse	0	n/a	n/a	12	69	Fixation	MissedWin	True
656.612	0.24	Win2	0.6286	0.004	No	3.234	-0.004	4.0	NoResponse	0	0.276	655.888	12	69	Target	MissedWin	True
656.862	0.46	Win2	0.6286	n/a	No	3.234	n/a	n/a	NoResponse	0	n/a	n/a	12	69	Blank	MissedWin	True
656.888	0.3	Win2	0.6286	0.004	No	3.234	-0.004	4.0	NoResponse	0	0.276	n/a	12	69	ButtonPress	MissedWin	True
657.314	1.45	Win2	0.6286	n/a	No	3.234	n/a	5.0	NoResponse	0	0.024	656.338	12	69	Feedback	MissedWin	True
658.768	3.234	Win2	0.6286	n/a	No	3.234	n/a	n/a	NoResponse	0	0.0	n/a	12	69	ISIslide	MissedWin	True
662.028	0.25	Lose2	0.6338	0.0	Yes	3.022	0.028	n/a	GoodResponse	0	n/a	n/a	12	70	Cue	AvoidedLoss	True
662.279	4.05	Lose2	0.6338	0.0	Yes	3.022	0.001	n/a	GoodResponse	0	n/a	n/a	12	70	Fixation	AvoidedLoss	True
666.324	0.25	Lose2	0.6338	0.004	Yes	3.022	-0.004	4.0	GoodResponse	0	0.199	665.523	12	70	Target	AvoidedLoss	True
666.523	0.3	Lose2	0.6338	0.004	Yes	3.022	-0.004	4.0	GoodResponse	0	0.199	n/a	12	70	ButtonPress	AvoidedLoss	True
666.575	0.45	Lose2	0.6338	n/a	Yes	3.022	n/a	n/a	GoodResponse	0	n/a	n/a	12	70	Blank	AvoidedLoss	True
667.026	1.45	Lose2	0.6338	n/a	Yes	3.022	n/a	5.0	GoodResponse	0	0.019	666.045	12	70	Feedback	AvoidedLoss	True
668.48	3.022	Lose2	0.6338	n/a	Yes	3.022	n/a	n/a	GoodResponse	0	0.0	n/a	12	70	ISIslide	AvoidedLoss	True
671.523	0.25	Win2	0.6389	0.0	Yes	2.727	0.023	n/a	GoodResponse	1	n/a	n/a	13	71	Cue	Win	True
671.774	4.05	Win2	0.6389	0.0	Yes	2.727	0.001	n/a	GoodResponse	1	n/a	n/a	13	71	Fixation	Win	True
675.819	0.26	Win2	0.6389	0.004	Yes	2.727	-0.004	4.0	GoodResponse	1	0.22	675.039	13	71	Target	Win	True
676.039	0.3	Win2	0.6389	0.004	Yes	2.727	-0.004	4.0	GoodResponse	1	0.22	n/a	13	71	ButtonPress	Win	True
676.087	0.44	Win2	0.6389	n/a	Yes	2.727	n/a	n/a	GoodResponse	1	n/a	n/a	13	71	Blank	Win	True
676.521	1.45	Win2	0.6389	n/a	Yes	2.727	n/a	5.0	GoodResponse	1	0.036	675.557	13	71	Feedback	Win	True
677.976	2.727	Win2	0.6389	n/a	Yes	2.727	n/a	n/a	GoodResponse	1	0.0	n/a	13	71	ISIslide	Win	True
680.717	0.25	Win2	0.6437999999999999	0.0	Yes	2.783	0.017	n/a	GoodResponse	1	n/a	n/a	14	72	Cue	Win	True
680.968	4.1	Win2	0.6437999999999999	0.0	Yes	2.783	0.001	n/a	GoodResponse	1	n/a	n/a	14	72	Fixation	Win	True
685.064	0.27	Win2	0.6437999999999999	0.003	Yes	2.783	-0.003	4.0	GoodResponse	1	0.207	684.271	14	72	Target	Win	True
685.271	0.3	Win2	0.6437999999999999	0.003	Yes	2.783	-0.003	4.0	GoodResponse	1	0.207	n/a	14	72	ButtonPress	Win	True
685.348	0.43	Win2	0.6437999999999999	n/a	Yes	2.783	n/a	n/a	GoodResponse	1	n/a	n/a	14	72	Blank	Win	True
685.766	1.45	Win2	0.6437999999999999	n/a	Yes	2.783	n/a	5.0	GoodResponse	1	0.011	684.777	14	72	Feedback	Win	True
687.22	2.783	Win2	0.6437999999999999	n/a	Yes	2.783	n/a	n/a	GoodResponse	1	0.0	n/a	14	72	ISIslide	Win	True
690.028	0.25	Win2	0.6486	0.0	Yes	2.672	0.028	n/a	GoodResponse	1	n/a	n/a	15	73	Cue	Win	True
690.279	4.0	Win2	0.6486	0.0	Yes	2.672	0.001	n/a	GoodResponse	1	n/a	n/a	15	73	Fixation	Win	True
694.274	0.28	Win2	0.6486	0.004	Yes	2.672	-0.004	4.0	GoodResponse	1	0.24	693.514	15	73	Target	Win	True
694.514	0.3	Win2	0.6486	0.004	Yes	2.672	-0.004	4.0	GoodResponse	1	0.24	n/a	15	73	ButtonPress	Win	True
694.559	0.42	Win2	0.6486	n/a	Yes	2.672	n/a	n/a	GoodResponse	1	n/a	n/a	15	73	Blank	Win	True
694.977	1.45	Win2	0.6486	n/a	Yes	2.672	n/a	5.0	GoodResponse	1	0.019	693.996	15	73	Feedback	Win	True
696.431	2.672	Win2	0.6486	n/a	Yes	2.672	n/a	n/a	GoodResponse	1	0.0	n/a	15	73	ISIslide	Win	True
699.122	0.25	Lose2	0.6533	0.0	Yes	2.628	0.022	n/a	GoodResponse	0	n/a	n/a	15	74	Cue	AvoidedLoss	True
699.373	4.05	Lose2	0.6533	0.0	Yes	2.628	0.001	n/a	GoodResponse	0	n/a	n/a	15	74	Fixation	AvoidedLoss	True
703.418	0.29	Lose2	0.6533	0.004	Yes	2.628	-0.004	4.0	GoodResponse	0	0.228	702.646	15	74	Target	AvoidedLoss	True
703.646	0.3	Lose2	0.6533	0.004	Yes	2.628	-0.004	4.0	GoodResponse	0	0.228	n/a	15	74	ButtonPress	AvoidedLoss	True
703.719	0.41	Lose2	0.6533	n/a	Yes	2.628	n/a	n/a	GoodResponse	0	n/a	n/a	15	74	Blank	AvoidedLoss	True
704.121	1.45	Lose2	0.6533	n/a	Yes	2.628	n/a	5.0	GoodResponse	0	0.046	703.167	15	74	Feedback	AvoidedLoss	True
705.575	2.628	Lose2	0.6533	n/a	Yes	2.628	n/a	n/a	GoodResponse	0	0.0	n/a	15	74	ISIslide	AvoidedLoss	True
708.216	0.25	Lose2	0.6579	0.0	Yes	2.934	0.016	n/a	GoodResponse	0	n/a	n/a	15	75	Cue	AvoidedLoss	True
708.467	3.95	Lose2	0.6579	0.0	Yes	2.934	0.001	n/a	GoodResponse	0	n/a	n/a	15	75	Fixation	AvoidedLoss	True
712.412	0.3	Lose2	0.6579	0.004	Yes	2.934	-0.004	4.0	GoodResponse	0	0.244	711.656	15	75	Target	AvoidedLoss	True
712.656	0.3	Lose2	0.6579	0.004	Yes	2.934	-0.004	4.0	GoodResponse	0	0.244	n/a	15	75	ButtonPress	AvoidedLoss	True
712.713	0.4	Lose2	0.6579	n/a	Yes	2.934	n/a	n/a	GoodResponse	0	n/a	n/a	15	75	Blank	AvoidedLoss	True
713.114	1.45	Lose2	0.6579	n/a	Yes	2.934	n/a	5.0	GoodResponse	0	0.028	712.142	15	75	Feedback	AvoidedLoss	True
714.569	2.934	Lose2	0.6579	n/a	Yes	2.934	n/a	n/a	GoodResponse	0	0.0	n/a	15	75	ISIslide	AvoidedLoss	True
717.527	0.25	Control	0.6623	0.001	Yes	3.223	0.027	n/a	GoodResponse	0	n/a	n/a	15	76	Cue	Neutral	True
717.778	4.05	Control	0.6623	0.0	Yes	3.223	0.001	n/a	GoodResponse	0	n/a	n/a	15	76	Fixation	Neutral	True
721.824	0.3	Control	0.6623	0.003	Yes	3.223	-0.003	4.0	GoodResponse	0	0.244	721.068	15	76	Target	Neutral	True
722.068	0.3	Control	0.6623	0.003	Yes	3.223	-0.003	4.0	GoodResponse	0	0.244	n/a	15	76	ButtonPress	Neutral	True
722.125	0.4	Control	0.6623	n/a	Yes	3.223	n/a	n/a	GoodResponse	0	n/a	n/a	15	76	Blank	Neutral	True
722.526	1.45	Control	0.6623	n/a	Yes	3.223	n/a	5.0	GoodResponse	0	0.031	721.557	15	76	Feedback	Neutral	True
723.98	3.223	Control	0.6623	n/a	Yes	3.223	n/a	n/a	GoodResponse	0	0.0	n/a	15	76	ISIslide	Neutral	True
727.223	0.25	Lose2	0.6667000000000001	0.0	Yes	2.577	0.023	n/a	GoodResponse	0	n/a	n/a	15	77	Cue	AvoidedLoss	True
727.474	3.95	Lose2	0.6667000000000001	0.0	Yes	2.577	0.001	n/a	GoodResponse	0	n/a	n/a	15	77	Fixation	AvoidedLoss	True
731.419	0.3	Lose2	0.6667000000000001	0.004	Yes	2.577	-0.004	4.0	GoodResponse	0	0.215	730.634	15	77	Target	AvoidedLoss	True
731.634	0.3	Lose2	0.6667000000000001	0.004	Yes	2.577	-0.004	4.0	GoodResponse	0	0.215	n/a	15	77	ButtonPress	AvoidedLoss	True
731.72	0.4	Lose2	0.6667000000000001	n/a	Yes	2.577	n/a	n/a	GoodResponse	0	n/a	n/a	15	77	Blank	AvoidedLoss	True
732.121	1.45	Lose2	0.6667000000000001	n/a	Yes	2.577	n/a	5.0	GoodResponse	0	0.046	731.167	15	77	Feedback	AvoidedLoss	True
733.576	2.577	Lose2	0.6667000000000001	n/a	Yes	2.577	n/a	n/a	GoodResponse	0	0.0	n/a	15	77	ISIslide	AvoidedLoss	True
