onset	duration	cue_type	current_mean_accuracy	duration_error	is_hit	isi_adjusted	onset_delay	response	response_type	reward	rt	rt_time	total_reward	trial_number	trial_phase	trial_type	one_press
11.112	0.25	Control	1.0	0.0	Yes	2.938	0.012	n/a	GoodResponse	0	n/a	n/a	0	0	Cue	Neutral	True
11.362	3.85	Control	1.0	0.0	Yes	2.938	0.0	n/a	GoodResponse	0	n/a	n/a	0	0	Fixation	Neutral	True
15.21	0.4	Control	1.0	0.002	Yes	2.938	-0.002	2.0	GoodResponse	0	0.205	14.415	0	0	Target	Neutral	True
15.415	0.3	Control	1.0	0.002	Yes	2.938	-0.002	2.0	GoodResponse	0	0.205	n/a	0	0	ButtonPress	Neutral	True
15.61	0.3	Control	1.0	n/a	Yes	2.938	n/a	n/a	GoodResponse	0	n/a	n/a	0	0	Blank	Neutral	True
15.91	1.45	Control	1.0	n/a	Yes	2.938	n/a	5.0	GoodResponse	0	0.017	14.927	0	0	Feedback	Neutral	True
17.36	2.938	Control	1.0	n/a	Yes	2.938	n/a	n/a	GoodResponse	0	0.0	n/a	0	0	ISIslide	Neutral	True
20.325	0.25	Lose2	1.0	0.0	Yes	2.775	0.025	n/a	GoodResponse	0	n/a	n/a	0	1	Cue	AvoidedLoss	True
20.575	4.0	Lose2	1.0	0.0	Yes	2.775	0.0	n/a	GoodResponse	0	n/a	n/a	0	1	Fixation	AvoidedLoss	True
24.574	0.39	Lose2	1.0	0.001	Yes	2.775	-0.001	2.0	GoodResponse	0	0.213	23.787	0	1	Target	AvoidedLoss	True
24.787	0.3	Lose2	1.0	0.001	Yes	2.775	-0.001	2.0	GoodResponse	0	0.213	n/a	0	1	ButtonPress	AvoidedLoss	True
24.974	0.31	Lose2	1.0	n/a	Yes	2.775	n/a	n/a	GoodResponse	0	n/a	n/a	0	1	Blank	AvoidedLoss	True
25.274	1.45	Lose2	1.0	n/a	Yes	2.775	n/a	5.0	GoodResponse	0	0.019	24.293	0	1	Feedback	AvoidedLoss	True
26.723	2.775	Lose2	1.0	n/a	Yes	2.775	n/a	n/a	GoodResponse	0	0.0	n/a	0	1	ISIslide	AvoidedLoss	True
29.522	0.25	Control	1.0	0.0	Yes	2.578	0.022	n/a	GoodResponse	0	n/a	n/a	0	2	Cue	Neutral	True
29.772	4.1	Control	1.0	0.0	Yes	2.578	0.0	n/a	GoodResponse	0	n/a	n/a	0	2	Fixation	Neutral	True
33.87	0.38	Control	1.0	0.002	Yes	2.578	-0.002	2.0	GoodResponse	0	0.243	33.113	0	2	Target	Neutral	True
34.113	0.3	Control	1.0	0.002	Yes	2.578	-0.002	2.0	GoodResponse	0	0.243	n/a	0	2	ButtonPress	Neutral	True
34.254	0.32	Control	1.0	n/a	Yes	2.578	n/a	n/a	GoodResponse	0	n/a	n/a	0	2	Blank	Neutral	True
34.57	1.45	Control	1.0	n/a	Yes	2.578	n/a	5.0	GoodResponse	0	0.039	33.609	0	2	Feedback	Neutral	True
36.02	2.578	Control	1.0	n/a	Yes	2.578	n/a	n/a	GoodResponse	0	0.0	n/a	0	2	ISIslide	Neutral	True
38.619	0.25	Win2	1.0	0.0	Yes	2.831	0.019	n/a	GoodResponse	1	n/a	n/a	1	3	Cue	Win	True
38.869	3.95	Win2	1.0	0.0	Yes	2.831	0.0	n/a	GoodResponse	1	n/a	n/a	1	3	Fixation	Win	True
42.817	0.37	Win2	1.0	0.002	Yes	2.831	-0.002	2.0	GoodResponse	1	0.224	42.041	1	3	Target	Win	True
43.041	0.3	Win2	1.0	0.002	Yes	2.831	-0.002	2.0	GoodResponse	1	0.224	n/a	1	3	ButtonPress	Win	True
43.2	0.33	Win2	1.0	n/a	Yes	2.831	n/a	n/a	GoodResponse	1	n/a	n/a	1	3	Blank	Win	True
43.517	1.45	Win2	1.0	n/a	Yes	2.831	n/a	5.0	GoodResponse	1	0.019	42.536	1	3	Feedback	Win	True
44.967	2.831	Win2	1.0	n/a	Yes	2.831	n/a	n/a	GoodResponse	1	0.0	n/a	1	3	ISIslide	Win	True
47.815	0.25	Win2	1.0	0.001	Yes	3.285	0.015	n/a	GoodResponse	1	n/a	n/a	2	4	Cue	Win	True
48.065	4.0	Win2	1.0	0.0	Yes	3.285	0.0	n/a	GoodResponse	1	n/a	n/a	2	4	Fixation	Win	True
52.064	0.36	Win2	1.0	0.001	Yes	3.285	-0.001	2.0	GoodResponse	1	0.225	51.289	2	4	Target	Win	True
52.289	0.3	Win2	1.0	0.001	Yes	3.285	-0.001	2.0	GoodResponse	1	0.225	n/a	2	4	ButtonPress	Win	True
52.431	0.34	Win2	1.0	n/a	Yes	3.285	n/a	n/a	GoodResponse	1	n/a	n/a	2	4	Blank	Win	True
52.764	1.45	Win2	1.0	n/a	Yes	3.285	n/a	5.0	GoodResponse	1	0.04	51.804	2	4	Feedback	Win	True
54.213	3.285	Win2	1.0	n/a	Yes	3.285	n/a	n/a	GoodResponse	1	0.0	n/a	2	4	ISIslide	Win	True
57.529	0.25	Win2	0.8332999999999999	0.0	No	2.771	0.029	n/a	NoResponse	0	n/a	n/a	2	5	Cue	MissedWin	True
57.779	4.0	Win2	0.8332999999999999	0.0	No	2.771	0.0	n/a	NoResponse	0	n/a	n/a	2	5	Fixation	MissedWin	True
61.777	0.35	Win2	0.8332999999999999	0.002	No	2.771	-0.002	2.0	NoResponse	0	0.404	61.181	2	5	Target	MissedWin	True
62.127	0.35	Win2	0.8332999999999999	n/a	No	2.771	n/a	n/a	NoResponse	0	n/a	n/a	2	5	Blank	MissedWin	True
62.181	0.3	Win2	0.8332999999999999	0.002	No	2.771	-0.002	2.0	NoResponse	0	0.404	n/a	2	5	ButtonPress	MissedWin	True
62.477	1.45	Win2	0.8332999999999999	n/a	No	2.771	n/a	5.0	NoResponse	0	0.034	61.511	2	5	Feedback	MissedWin	True
63.926	2.771	Win2	0.8332999999999999	n/a	No	2.771	n/a	n/a	NoResponse	0	0.0	n/a	2	5	ISIslide	MissedWin	True
66.725	0.25	Lose2	0.8571	0.001	Yes	2.725	0.025	n/a	GoodResponse	0	n/a	n/a	2	6	Cue	AvoidedLoss	True
66.975	3.95	Lose2	0.8571	0.0	Yes	2.725	0.0	n/a	GoodResponse	0	n/a	n/a	2	6	Fixation	AvoidedLoss	True
70.924	0.34	Lose2	0.8571	0.001	Yes	2.725	-0.001	2.0	GoodResponse	0	0.226	70.15	2	6	Target	AvoidedLoss	True
71.15	0.3	Lose2	0.8571	0.001	Yes	2.725	-0.001	2.0	GoodResponse	0	0.226	n/a	2	6	ButtonPress	AvoidedLoss	True
71.274	0.36	Lose2	0.8571	n/a	Yes	2.725	n/a	n/a	GoodResponse	0	n/a	n/a	2	6	Blank	AvoidedLoss	True
71.624	1.45	Lose2	0.8571	n/a	Yes	2.725	n/a	5.0	GoodResponse	0	0.009	70.633	2	6	Feedback	AvoidedLoss	True
73.073	2.725	Lose2	0.8571	n/a	Yes	2.725	n/a	n/a	GoodResponse	0	0.0	n/a	2	6	ISIslide	AvoidedLoss	True
75.822	0.25	Lose2	0.875	0.0	Yes	4.028	0.022	n/a	GoodResponse	0	n/a	n/a	2	7	Cue	AvoidedLoss	False
76.072	4.05	Lose2	0.875	0.0	Yes	4.028	0.0	2.0	GoodResponse	0	3.748	78.82	2	7	Fixation	AvoidedLoss	False
79.82	0.3	Lose2	0.875	0.0	Yes	4.028	0.0	2.0	GoodResponse	0	3.748	n/a	2	7	ButtonPress	AvoidedLoss	False
80.121	0.33	Lose2	0.875	0.001	Yes	4.028	-0.001	2.0	GoodResponse	0	0.12	79.241	2	7	Target	AvoidedLoss	False
80.241	0.3	Lose2	0.875	0.001	Yes	4.028	-0.001	2.0	GoodResponse	0	0.12	n/a	2	7	ButtonPress	AvoidedLoss	False
80.454	0.37	Lose2	0.875	n/a	Yes	4.028	n/a	n/a	GoodResponse	0	n/a	n/a	2	7	Blank	AvoidedLoss	False
80.82	1.45	Lose2	0.875	n/a	Yes	4.028	n/a	5.0	GoodResponse	0	0.032	79.852	2	7	Feedback	AvoidedLoss	False
82.27	4.028	Lose2	0.875	n/a	Yes	4.028	n/a	n/a	GoodResponse	0	0.0	n/a	2	7	ISIslide	AvoidedLoss	False
86.318	0.25	Lose2	0.8889	0.001	Yes	3.032	0.018	n/a	GoodResponse	0	n/a	n/a	2	8	Cue	AvoidedLoss	True
86.568	3.95	Lose2	0.8889	0.0	Yes	3.032	0.0	n/a	GoodResponse	0	n/a	n/a	2	8	Fixation	AvoidedLoss	True
90.517	0.32	Lose2	0.8889	0.001	Yes	3.032	-0.001	2.0	GoodResponse	0	0.269	89.786	2	8	Target	AvoidedLoss	True
90.786	0.3	Lose2	0.8889	0.001	Yes	3.032	-0.001	2.0	GoodResponse	0	0.269	n/a	2	8	ButtonPress	AvoidedLoss	True
90.834	0.38	Lose2	0.8889	n/a	Yes	3.032	n/a	n/a	GoodResponse	0	n/a	n/a	2	8	Blank	AvoidedLoss	True
91.217	1.45	Lose2	0.8889	n/a	Yes	3.032	n/a	5.0	GoodResponse	0	0.026	90.243	2	8	Feedback	AvoidedLoss	True
92.666	3.032	Lose2	0.8889	n/a	Yes	3.032	n/a	n/a	GoodResponse	0	0.0	n/a	2	8	ISIslide	AvoidedLoss	True
95.715	0.25	Lose2	0.9	0.0	Yes	3.135	0.015	n/a	GoodResponse	0	n/a	n/a	2	9	Cue	AvoidedLoss	True
95.965	3.95	Lose2	0.9	0.0	Yes	3.135	0.0	n/a	GoodResponse	0	n/a	n/a	2	9	Fixation	AvoidedLoss	True
99.914	0.31	Lose2	0.9	0.001	Yes	3.135	-0.001	2.0	GoodResponse	0	0.225	99.139	2	9	Target	AvoidedLoss	True
100.139	0.3	Lose2	0.9	0.001	Yes	3.135	-0.001	2.0	GoodResponse	0	0.225	n/a	2	9	ButtonPress	AvoidedLoss	True
100.23	0.39	Lose2	0.9	n/a	Yes	3.135	n/a	n/a	GoodResponse	0	n/a	n/a	2	9	Blank	AvoidedLoss	True
100.613	1.45	Lose2	0.9	n/a	Yes	3.135	n/a	5.0	GoodResponse	0	0.043	99.656	2	9	Feedback	AvoidedLoss	True
102.063	3.135	Lose2	0.9	n/a	Yes	3.135	n/a	n/a	GoodResponse	0	0.0	n/a	2	9	ISIslide	AvoidedLoss	True
105.228	0.25	Control	0.9091	0.0	Yes	3.272	0.028	n/a	GoodResponse	0	n/a	n/a	2	10	Cue	Neutral	True
105.478	4.0	Control	0.9091	0.0	Yes	3.272	0.0	n/a	GoodResponse	0	n/a	n/a	2	10	Fixation	Neutral	True
109.477	0.3	Control	0.9091	0.001	Yes	3.272	-0.001	2.0	GoodResponse	0	0.216	108.693	2	10	Target	Neutral	True
109.693	0.3	Control	0.9091	0.001	Yes	3.272	-0.001	2.0	GoodResponse	0	0.216	n/a	2	10	ButtonPress	Neutral	True
109.777	0.4	Control	0.9091	n/a	Yes	3.272	n/a	n/a	GoodResponse	0	n/a	n/a	2	10	Blank	Neutral	True
110.177	1.45	Control	0.9091	n/a	Yes	3.272	n/a	5.0	GoodResponse	0	0.041	109.218	2	10	Feedback	Neutral	True
111.626	3.272	Control	0.9091	n/a	Yes	3.272	n/a	n/a	GoodResponse	0	0.0	n/a	2	10	ISIslide	Neutral	True
114.925	0.25	Lose2	0.9167000000000001	0.0	Yes	2.725	0.025	n/a	GoodResponse	0	n/a	n/a	2	11	Cue	AvoidedLoss	True
115.175	4.05	Lose2	0.9167000000000001	0.0	Yes	2.725	0.0	n/a	GoodResponse	0	n/a	n/a	2	11	Fixation	AvoidedLoss	True
119.223	0.29	Lose2	0.9167000000000001	0.002	Yes	2.725	-0.002	2.0	GoodResponse	0	0.208	118.431	2	11	Target	AvoidedLoss	True
119.431	0.3	Lose2	0.9167000000000001	0.002	Yes	2.725	-0.002	2.0	GoodResponse	0	0.208	n/a	2	11	ButtonPress	AvoidedLoss	True
119.523	0.41	Lose2	0.9167000000000001	n/a	Yes	2.725	n/a	n/a	GoodResponse	0	n/a	n/a	2	11	Blank	AvoidedLoss	True
119.923	1.45	Lose2	0.9167000000000001	n/a	Yes	2.725	n/a	5.0	GoodResponse	0	0.002	118.925	2	11	Feedback	AvoidedLoss	True
121.373	2.725	Lose2	0.9167000000000001	n/a	Yes	2.725	n/a	n/a	GoodResponse	0	0.0	n/a	2	11	ISIslide	AvoidedLoss	True
124.122	0.25	Control	0.9231	0.0	Yes	2.978	0.022	n/a	GoodResponse	0	n/a	n/a	2	12	Cue	Neutral	True
124.372	3.9	Control	0.9231	0.0	Yes	2.978	0.0	n/a	GoodResponse	0	n/a	n/a	2	12	Fixation	Neutral	True
128.27	0.28	Control	0.9231	0.002	Yes	2.978	-0.002	2.0	GoodResponse	0	0.219	127.489	2	12	Target	Neutral	True
128.489	0.3	Control	0.9231	0.002	Yes	2.978	-0.002	2.0	GoodResponse	0	0.219	n/a	2	12	ButtonPress	Neutral	True
128.553	0.42	Control	0.9231	n/a	Yes	2.978	n/a	n/a	GoodResponse	0	n/a	n/a	2	12	Blank	Neutral	True
128.97	1.45	Control	0.9231	n/a	Yes	2.978	n/a	5.0	GoodResponse	0	0.028	127.998	2	12	Feedback	Neutral	True
130.419	2.978	Control	0.9231	n/a	Yes	2.978	n/a	n/a	GoodResponse	0	0.0	n/a	2	12	ISIslide	Neutral	True
133.418	0.25	Control	0.9286	0.0	Yes	2.782	0.018	n/a	GoodResponse	0	n/a	n/a	2	13	Cue	Neutral	True
133.668	4.0	Control	0.9286	0.0	Yes	2.782	0.0	n/a	GoodResponse	0	n/a	n/a	2	13	Fixation	Neutral	True
137.667	0.27	Control	0.9286	0.001	Yes	2.782	-0.001	2.0	GoodResponse	0	0.206	136.873	2	13	Target	Neutral	True
137.873	0.3	Control	0.9286	0.001	Yes	2.782	-0.001	2.0	GoodResponse	0	0.206	n/a	2	13	ButtonPress	Neutral	True
137.933	0.43	Control	0.9286	n/a	Yes	2.782	n/a	n/a	GoodResponse	0	n/a	n/a	2	13	Blank	Neutral	True
138.367	1.45	Control	0.9286	n/a	Yes	2.782	n/a	5.0	GoodResponse	0	0.045	137.412	2	13	Feedback	Neutral	True
139.816	2.782	Control	0.9286	n/a	Yes	2.782	n/a	n/a	GoodResponse	0	0.0	n/a	2	13	ISIslide	Neutral	True
142.615	0.25	Win2	0.8667	0.0	No	2.685	0.015	n/a	NoResponse	0	n/a	n/a	2	14	Cue	MissedWin	True
142.865	4.1	Win2	0.8667	0.0	No	2.685	0.0	n/a	NoResponse	0	n/a	n/a	2	14	Fixation	MissedWin	True
146.964	0.26	Win2	0.8667	0.001	No	2.685	-0.001	2.0	NoResponse	0	0.338	146.302	2	14	Target	MissedWin	True
147.23	0.44	Win2	0.8667	n/a	No	2.685	n/a	n/a	NoResponse	0	n/a	n/a	2	14	Blank	MissedWin	True
147.302	0.3	Win2	0.8667	0.001	No	2.685	-0.001	2.0	NoResponse	0	0.338	n/a	2	14	ButtonPress	MissedWin	True
147.663	1.45	Win2	0.8667	n/a	No	2.685	n/a	5.0	NoResponse	0	0.017	146.68	2	14	Feedback	MissedWin	True
149.113	2.685	Win2	0.8667	n/a	No	2.685	n/a	n/a	NoResponse	0	0.0	n/a	2	14	ISIslide	MissedWin	True
151.828	0.25	Control	0.8125	0.001	No	2.972	0.028	n/a	NoResponse	0	n/a	n/a	2	15	Cue	Neutral	True
152.078	4.0	Control	0.8125	0.001	No	2.972	0.0	n/a	NoResponse	0	n/a	n/a	2	15	Fixation	Neutral	True
156.077	0.25	Control	0.8125	0.001	No	2.972	-0.001	2.0	NoResponse	0	0.293	155.37	2	15	Target	Neutral	True
156.327	0.45	Control	0.8125	n/a	No	2.972	n/a	n/a	NoResponse	0	n/a	n/a	2	15	Blank	Neutral	True
156.37	0.3	Control	0.8125	0.001	No	2.972	-0.001	2.0	NoResponse	0	0.293	n/a	2	15	ButtonPress	Neutral	True
156.777	1.45	Control	0.8125	n/a	No	2.972	n/a	5.0	NoResponse	0	0.025	155.802	2	15	Feedback	Neutral	True
158.226	2.972	Control	0.8125	n/a	No	2.972	n/a	n/a	NoResponse	0	0.0	n/a	2	15	ISIslide	Neutral	True
161.225	0.25	Win2	0.8234999999999999	0.0	Yes	2.875	0.025	n/a	GoodResponse	1	n/a	n/a	3	16	Cue	Win	True
161.475	4.0	Win2	0.8234999999999999	0.0	Yes	2.875	0.0	n/a	GoodResponse	1	n/a	n/a	3	16	Fixation	Win	True
165.474	0.24	Win2	0.8234999999999999	0.001	Yes	2.875	-0.001	2.0	GoodResponse	1	0.238	164.712	3	16	Target	Win	True
165.712	0.3	Win2	0.8234999999999999	0.001	Yes	2.875	-0.001	2.0	GoodResponse	1	0.238	n/a	3	16	ButtonPress	Win	True
165.724	0.46	Win2	0.8234999999999999	n/a	Yes	2.875	n/a	n/a	GoodResponse	1	n/a	n/a	3	16	Blank	Win	True
166.173	1.45	Win2	0.8234999999999999	n/a	Yes	2.875	n/a	5.0	GoodResponse	1	0.044	165.217	3	16	Feedback	Win	True
167.623	2.875	Win2	0.8234999999999999	n/a	Yes	2.875	n/a	n/a	GoodResponse	1	0.0	n/a	3	16	ISIslide	Win	True
170.522	0.25	Lose2	0.8332999999999999	0.0	Yes	2.728	0.022	n/a	GoodResponse	0	n/a	n/a	3	17	Cue	AvoidedLoss	True
170.772	3.95	Lose2	0.8332999999999999	0.0	Yes	2.728	0.0	n/a	GoodResponse	0	n/a	n/a	3	17	Fixation	AvoidedLoss	True
174.72	0.23	Lose2	0.8332999999999999	0.002	Yes	2.728	-0.002	2.0	GoodResponse	0	0.222	173.942	3	17	Target	AvoidedLoss	True
174.942	0.3	Lose2	0.8332999999999999	0.002	Yes	2.728	-0.002	2.0	GoodResponse	0	0.222	n/a	3	17	ButtonPress	AvoidedLoss	True
174.954	0.47	Lose2	0.8332999999999999	n/a	Yes	2.728	n/a	n/a	GoodResponse	0	n/a	n/a	3	17	Blank	AvoidedLoss	True
175.42	1.45	Lose2	0.8332999999999999	n/a	Yes	2.728	n/a	5.0	GoodResponse	0	0.017	174.437	3	17	Feedback	AvoidedLoss	True
176.87	2.728	Lose2	0.8332999999999999	n/a	Yes	2.728	n/a	n/a	GoodResponse	0	0.0	n/a	3	17	ISIslide	AvoidedLoss	True
179.619	0.25	Lose2	0.7895	0.0	No	2.731	0.019	n/a	LatePress	-1	n/a	n/a	2	18	Cue	Loss	True
179.869	4.05	Lose2	0.7895	0.0	No	2.731	0.0	n/a	LatePress	-1	n/a	n/a	2	18	Fixation	Loss	True
183.917	0.22	Lose2	0.7895	0.002	No	2.731	-0.002	2.0	LatePress	-1	0.227	183.144	2	18	Target	Loss	True
184.144	0.3	Lose2	0.7895	0.002	No	2.731	-0.002	2.0	LatePress	-1	0.227	n/a	2	18	ButtonPress	Loss	True
184.15	0.48	Lose2	0.7895	n/a	No	2.731	n/a	n/a	LatePress	-1	n/a	n/a	2	18	Blank	Loss	True
184.617	1.45	Lose2	0.7895	n/a	No	2.731	n/a	5.0	LatePress	-1	0.038	183.655	2	18	Feedback	Loss	True
186.066	2.731	Lose2	0.7895	n/a	No	2.731	n/a	n/a	LatePress	-1	0.0	n/a	2	18	ISIslide	Loss	True
188.815	0.25	Control	0.75	0.0	No	2.935	0.015	n/a	NoResponse	0	n/a	n/a	2	19	Cue	Neutral	True
189.065	3.95	Control	0.75	0.0	No	2.935	0.0	n/a	NoResponse	0	n/a	n/a	2	19	Fixation	Neutral	True
193.014	0.21	Control	0.75	0.001	No	2.935	-0.001	2.0	NoResponse	0	0.228	192.242	2	19	Target	Neutral	True
193.23	0.49	Control	0.75	n/a	No	2.935	n/a	n/a	NoResponse	0	n/a	n/a	2	19	Blank	Neutral	True
193.242	0.3	Control	0.75	0.001	No	2.935	-0.001	2.0	NoResponse	0	0.228	n/a	2	19	ButtonPress	Neutral	True
193.714	1.45	Control	0.75	n/a	No	2.935	n/a	5.0	NoResponse	0	0.015	192.729	2	19	Feedback	Neutral	True
195.163	2.935	Control	0.75	n/a	No	2.935	n/a	n/a	NoResponse	0	0.0	n/a	2	19	ISIslide	Neutral	True
198.112	0.25	Control	0.7143	0.0	No	2.638	0.012	n/a	NoResponse	0	n/a	n/a	2	20	Cue	Neutral	True
198.362	4.05	Control	0.7143	0.0	No	2.638	0.0	n/a	NoResponse	0	n/a	n/a	2	20	Fixation	Neutral	True
202.41	0.2	Control	0.7143	0.002	No	2.638	-0.002	2.0	NoResponse	0	0.241	201.651	2	20	Target	Neutral	True
202.61	0.5	Control	0.7143	n/a	No	2.638	n/a	n/a	NoResponse	0	n/a	n/a	2	20	Blank	Neutral	True
202.651	0.3	Control	0.7143	0.002	No	2.638	-0.002	2.0	NoResponse	0	0.241	n/a	2	20	ButtonPress	Neutral	True
203.11	1.45	Control	0.7143	n/a	No	2.638	n/a	5.0	NoResponse	0	0.034	202.144	2	20	Feedback	Neutral	True
204.56	2.638	Control	0.7143	n/a	No	2.638	n/a	n/a	NoResponse	0	0.0	n/a	2	20	ISIslide	Neutral	True
207.225	0.25	Control	0.6818000000000001	0.001	No	2.775	0.025	n/a	NoResponse	0	n/a	n/a	2	21	Cue	Neutral	True
207.475	4.1	Control	0.6818000000000001	0.0	No	2.775	0.0	n/a	NoResponse	0	n/a	n/a	2	21	Fixation	Neutral	True
211.574	0.19	Control	0.6818000000000001	0.001	No	2.775	-0.001	2.0	NoResponse	0	0.259	210.833	2	21	Target	Neutral	True
211.774	0.51	Control	0.6818000000000001	n/a	No	2.775	n/a	n/a	NoResponse	0	n/a	n/a	2	21	Blank	Neutral	True
211.833	0.3	Control	0.6818000000000001	0.001	No	2.775	-0.001	2.0	NoResponse	0	0.259	n/a	2	21	ButtonPress	Neutral	True
212.274	1.45	Control	0.6818000000000001	n/a	No	2.775	n/a	5.0	NoResponse	0	0.04	211.314	2	21	Feedback	Neutral	True
213.723	2.775	Control	0.6818000000000001	n/a	No	2.775	n/a	n/a	NoResponse	0	0.0	n/a	2	21	ISIslide	Neutral	True
216.522	0.25	Control	0.6522	0.0	No	2.778	0.022	n/a	NoResponse	0	n/a	n/a	2	22	Cue	Neutral	True
216.772	4.0	Control	0.6522	0.0	No	2.778	0.0	n/a	NoResponse	0	n/a	n/a	2	22	Fixation	Neutral	True
220.771	0.18	Control	0.6522	0.001	No	2.778	-0.001	2.0	NoResponse	0	0.205	219.976	2	22	Target	Neutral	True
220.954	0.52	Control	0.6522	n/a	No	2.778	n/a	n/a	NoResponse	0	n/a	n/a	2	22	Blank	Neutral	True
220.976	0.3	Control	0.6522	0.001	No	2.778	-0.001	2.0	NoResponse	0	0.205	n/a	2	22	ButtonPress	Neutral	True
221.47	1.45	Control	0.6522	n/a	No	2.778	n/a	5.0	NoResponse	0	0.014	220.484	2	22	Feedback	Neutral	True
222.92	2.778	Control	0.6522	n/a	No	2.778	n/a	n/a	NoResponse	0	0.0	n/a	2	22	ISIslide	Neutral	True
225.719	0.25	Control	0.625	0.0	No	2.781	0.019	n/a	LatePress	0	n/a	n/a	2	23	Cue	Neutral	True
225.969	3.9	Control	0.625	0.0	No	2.781	0.0	n/a	LatePress	0	n/a	n/a	2	23	Fixation	Neutral	True
229.867	0.19	Control	0.625	0.002	No	2.781	-0.002	2.0	LatePress	0	0.198	229.065	2	23	Target	Neutral	True
230.065	0.3	Control	0.625	0.002	No	2.781	-0.002	2.0	LatePress	0	0.198	n/a	2	23	ButtonPress	Neutral	True
230.067	0.51	Control	0.625	n/a	No	2.781	n/a	n/a	LatePress	0	n/a	n/a	2	23	Blank	Neutral	True
230.567	1.45	Control	0.625	n/a	No	2.781	n/a	5.0	LatePress	0	0.039	229.606	2	23	Feedback	Neutral	True
232.017	2.781	Control	0.625	n/a	No	2.781	n/a	n/a	LatePress	0	0.0	n/a	2	23	ISIslide	Neutral	True
234.816	0.25	Win2	0.64	0.0	Yes	3.134	0.016	n/a	GoodResponse	1	n/a	n/a	3	24	Cue	Win	True
235.066	3.95	Win2	0.64	0.0	Yes	3.134	0.0	n/a	GoodResponse	1	n/a	n/a	3	24	Fixation	Win	True
239.014	0.2	Win2	0.64	0.002	Yes	3.134	-0.002	2.0	GoodResponse	1	0.196	238.21	3	24	Target	Win	True
239.21	0.3	Win2	0.64	0.002	Yes	3.134	-0.002	2.0	GoodResponse	1	0.196	n/a	3	24	ButtonPress	Win	True
239.214	0.5	Win2	0.64	n/a	Yes	3.134	n/a	n/a	GoodResponse	1	n/a	n/a	3	24	Blank	Win	True
239.714	1.45	Win2	0.64	n/a	Yes	3.134	n/a	5.0	GoodResponse	1	0.014	238.728	3	24	Feedback	Win	True
241.163	3.134	Win2	0.64	n/a	Yes	3.134	n/a	n/a	GoodResponse	1	0.0	n/a	3	24	ISIslide	Win	True
244.312	0.25	Win2	0.6154	0.0	No	3.088	0.012	n/a	LatePress	0	n/a	n/a	3	25	Cue	MissedWin	True
244.562	4.0	Win2	0.6154	0.0	No	3.088	0.0	n/a	LatePress	0	n/a	n/a	3	25	Fixation	MissedWin	True
248.561	0.21	Win2	0.6154	0.001	No	3.088	-0.001	2.0	LatePress	0	0.216	247.777	3	25	Target	MissedWin	True
248.777	0.49	Win2	0.6154	n/a	No	3.088	n/a	n/a	LatePress	0	n/a	n/a	3	25	Blank	MissedWin	True
248.777	0.3	Win2	0.6154	0.001	No	3.088	-0.001	2.0	LatePress	0	0.216	n/a	3	25	ButtonPress	MissedWin	True
249.261	1.45	Win2	0.6154	n/a	No	3.088	n/a	5.0	LatePress	0	0.029	248.29	3	25	Feedback	MissedWin	True
250.71	3.088	Win2	0.6154	n/a	No	3.088	n/a	n/a	LatePress	0	0.0	n/a	3	25	ISIslide	MissedWin	True
253.826	0.25	Win2	0.6296	0.0	Yes	2.924	0.026	n/a	GoodResponse	1	n/a	n/a	4	26	Cue	Win	True
254.075	3.95	Win2	0.6296	0.001	Yes	2.924	-0.001	n/a	GoodResponse	1	n/a	n/a	4	26	Fixation	Win	True
258.024	0.22	Win2	0.6296	0.002	Yes	2.924	-0.002	2.0	GoodResponse	1	0.195	257.219	4	26	Target	Win	True
258.219	0.3	Win2	0.6296	0.002	Yes	2.924	-0.002	2.0	GoodResponse	1	0.195	n/a	4	26	ButtonPress	Win	True
258.257	0.48	Win2	0.6296	n/a	Yes	2.924	n/a	n/a	GoodResponse	1	n/a	n/a	4	26	Blank	Win	True
258.724	1.45	Win2	0.6296	n/a	Yes	2.924	n/a	5.0	GoodResponse	1	0.028	257.752	4	26	Feedback	Win	True
260.173	2.924	Win2	0.6296	n/a	Yes	2.924	n/a	n/a	GoodResponse	1	0.0	n/a	4	26	ISIslide	Win	True
263.122	0.25	Lose2	0.6071	0.0	No	2.828	0.022	n/a	NoResponse	-1	n/a	n/a	3	27	Cue	Loss	True
263.372	4.05	Lose2	0.6071	0.0	No	2.828	0.0	n/a	NoResponse	-1	n/a	n/a	3	27	Fixation	Loss	True
267.421	0.23	Lose2	0.6071	0.001	No	2.828	-0.001	2.0	NoResponse	-1	0.244	266.665	3	27	Target	Loss	True
267.654	0.47	Lose2	0.6071	n/a	No	2.828	n/a	n/a	NoResponse	-1	n/a	n/a	3	27	Blank	Loss	True
267.665	0.3	Lose2	0.6071	0.001	No	2.828	-0.001	2.0	NoResponse	-1	0.244	n/a	3	27	ButtonPress	Loss	True
268.12	1.45	Lose2	0.6071	n/a	No	2.828	n/a	5.0	NoResponse	-1	0.047	267.167	3	27	Feedback	Loss	True
269.57	2.828	Lose2	0.6071	n/a	No	2.828	n/a	n/a	NoResponse	-1	0.0	n/a	3	27	ISIslide	Loss	True
272.419	0.25	Control	0.6207	0.0	Yes	2.831	0.019	n/a	GoodResponse	0	n/a	n/a	3	28	Cue	Neutral	True
272.669	4.05	Control	0.6207	0.0	Yes	2.831	0.0	n/a	GoodResponse	0	n/a	n/a	3	28	Fixation	Neutral	True
276.717	0.24	Control	0.6207	0.002	Yes	2.831	-0.002	2.0	GoodResponse	0	0.225	275.942	3	28	Target	Neutral	True
276.942	0.3	Control	0.6207	0.002	Yes	2.831	-0.002	2.0	GoodResponse	0	0.225	n/a	3	28	ButtonPress	Neutral	True
276.967	0.46	Control	0.6207	n/a	Yes	2.831	n/a	n/a	GoodResponse	0	n/a	n/a	3	28	Blank	Neutral	True
277.417	1.45	Control	0.6207	n/a	Yes	2.831	n/a	5.0	GoodResponse	0	0.018	276.435	3	28	Feedback	Neutral	True
278.867	2.831	Control	0.6207	n/a	Yes	2.831	n/a	n/a	GoodResponse	0	0.0	n/a	3	28	ISIslide	Neutral	True
281.716	0.25	Lose2	0.6333	0.0	Yes	2.834	0.016	n/a	GoodResponse	0	n/a	n/a	3	29	Cue	AvoidedLoss	True
281.966	3.95	Lose2	0.6333	0.0	Yes	2.834	0.0	n/a	GoodResponse	0	n/a	n/a	3	29	Fixation	AvoidedLoss	True
285.914	0.25	Lose2	0.6333	0.002	Yes	2.834	-0.002	2.0	GoodResponse	0	0.193	285.107	3	29	Target	AvoidedLoss	True
286.107	0.3	Lose2	0.6333	0.002	Yes	2.834	-0.002	2.0	GoodResponse	0	0.193	n/a	3	29	ButtonPress	AvoidedLoss	True
286.164	0.45	Lose2	0.6333	n/a	Yes	2.834	n/a	n/a	GoodResponse	0	n/a	n/a	3	29	Blank	AvoidedLoss	True
286.614	1.45	Lose2	0.6333	n/a	Yes	2.834	n/a	5.0	GoodResponse	0	0.041	285.655	3	29	Feedback	AvoidedLoss	True
288.063	2.834	Lose2	0.6333	n/a	Yes	2.834	n/a	n/a	GoodResponse	0	0.0	n/a	3	29	ISIslide	AvoidedLoss	True
290.912	0.25	Win2	0.6129	0.0	No	2.788	0.012	n/a	NoResponse	0	n/a	n/a	3	30	Cue	MissedWin	True
291.162	3.9	Win2	0.6129	0.0	No	2.788	0.0	n/a	NoResponse	0	n/a	n/a	3	30	Fixation	MissedWin	True
295.061	0.26	Win2	0.6129	0.001	No	2.788	-0.001	2.0	NoResponse	0	0.278	294.339	3	30	Target	MissedWin	True
295.327	0.44	Win2	0.6129	n/a	No	2.788	n/a	n/a	NoResponse	0	n/a	n/a	3	30	Blank	MissedWin	True
295.339	0.3	Win2	0.6129	0.001	No	2.788	-0.001	2.0	NoResponse	0	0.278	n/a	3	30	ButtonPress	MissedWin	True
295.761	1.45	Win2	0.6129	n/a	No	2.788	n/a	5.0	NoResponse	0	0.015	294.776	3	30	Feedback	MissedWin	True
297.21	2.788	Win2	0.6129	n/a	No	2.788	n/a	n/a	NoResponse	0	0.0	n/a	3	30	ISIslide	MissedWin	True
300.026	0.25	Lose2	0.625	0.0	Yes	2.824	0.026	n/a	GoodResponse	0	n/a	n/a	3	31	Cue	AvoidedLoss	True
300.276	4.05	Lose2	0.625	0.0	Yes	2.824	0.0	n/a	GoodResponse	0	n/a	n/a	3	31	Fixation	AvoidedLoss	True
304.324	0.27	Lose2	0.625	0.002	Yes	2.824	-0.002	2.0	GoodResponse	0	0.2	303.524	3	31	Target	AvoidedLoss	True
304.524	0.3	Lose2	0.625	0.002	Yes	2.824	-0.002	2.0	GoodResponse	0	0.2	n/a	3	31	ButtonPress	AvoidedLoss	True
304.607	0.43	Lose2	0.625	n/a	Yes	2.824	n/a	n/a	GoodResponse	0	n/a	n/a	3	31	Blank	AvoidedLoss	True
305.024	1.45	Lose2	0.625	n/a	Yes	2.824	n/a	5.0	GoodResponse	0	0.02	304.044	3	31	Feedback	AvoidedLoss	True
306.473	2.824	Lose2	0.625	n/a	Yes	2.824	n/a	n/a	GoodResponse	0	0.0	n/a	3	31	ISIslide	AvoidedLoss	True
309.322	0.25	Lose2	0.6364	0.001	Yes	2.628	0.022	n/a	GoodResponse	0	n/a	n/a	3	32	Cue	AvoidedLoss	True
309.572	4.15	Lose2	0.6364	0.0	Yes	2.628	0.0	n/a	GoodResponse	0	n/a	n/a	3	32	Fixation	AvoidedLoss	True
313.721	0.28	Lose2	0.6364	0.001	Yes	2.628	-0.001	2.0	GoodResponse	0	0.224	312.945	3	32	Target	AvoidedLoss	True
313.945	0.3	Lose2	0.6364	0.001	Yes	2.628	-0.001	2.0	GoodResponse	0	0.224	n/a	3	32	ButtonPress	AvoidedLoss	True
314.004	0.42	Lose2	0.6364	n/a	Yes	2.628	n/a	n/a	GoodResponse	0	n/a	n/a	3	32	Blank	AvoidedLoss	True
314.421	1.45	Lose2	0.6364	n/a	Yes	2.628	n/a	5.0	GoodResponse	0	0.038	313.459	3	32	Feedback	AvoidedLoss	True
315.87	2.628	Lose2	0.6364	n/a	Yes	2.628	n/a	n/a	GoodResponse	0	0.0	n/a	3	32	ISIslide	AvoidedLoss	True
318.519	0.25	Win2	0.6470999999999999	0.0	Yes	2.681	0.019	n/a	GoodResponse	1	n/a	n/a	4	33	Cue	Win	True
318.769	4.0	Win2	0.6470999999999999	0.0	Yes	2.681	0.0	n/a	GoodResponse	1	n/a	n/a	4	33	Fixation	Win	True
322.768	0.29	Win2	0.6470999999999999	0.001	Yes	2.681	-0.001	2.0	GoodResponse	1	0.243	322.011	4	33	Target	Win	True
323.011	0.3	Win2	0.6470999999999999	0.001	Yes	2.681	-0.001	2.0	GoodResponse	1	0.243	n/a	4	33	ButtonPress	Win	True
323.068	0.41	Win2	0.6470999999999999	n/a	Yes	2.681	n/a	n/a	GoodResponse	1	n/a	n/a	4	33	Blank	Win	True
323.467	1.45	Win2	0.6470999999999999	n/a	Yes	2.681	n/a	5.0	GoodResponse	1	0.017	322.484	4	33	Feedback	Win	True
324.917	2.681	Win2	0.6470999999999999	n/a	Yes	2.681	n/a	n/a	GoodResponse	1	0.0	n/a	4	33	ISIslide	Win	True
327.616	0.25	Lose2	0.6570999999999999	0.0	Yes	2.634	0.016	n/a	GoodResponse	0	n/a	n/a	4	34	Cue	AvoidedLoss	True
327.866	4.05	Lose2	0.6570999999999999	0.0	Yes	2.634	0.0	n/a	GoodResponse	0	n/a	n/a	4	34	Fixation	AvoidedLoss	True
331.914	0.3	Lose2	0.6570999999999999	0.002	Yes	2.634	-0.002	2.0	GoodResponse	0	0.225	331.139	4	34	Target	AvoidedLoss	True
332.139	0.3	Lose2	0.6570999999999999	0.002	Yes	2.634	-0.002	2.0	GoodResponse	0	0.225	n/a	4	34	ButtonPress	AvoidedLoss	True
332.214	0.4	Lose2	0.6570999999999999	n/a	Yes	2.634	n/a	n/a	GoodResponse	0	n/a	n/a	4	34	Blank	AvoidedLoss	True
332.614	1.45	Lose2	0.6570999999999999	n/a	Yes	2.634	n/a	5.0	GoodResponse	0	0.039	331.653	4	34	Feedback	AvoidedLoss	True
334.064	2.634	Lose2	0.6570999999999999	n/a	Yes	2.634	n/a	n/a	GoodResponse	0	0.0	n/a	4	34	ISIslide	AvoidedLoss	True
336.713	0.25	Lose2	0.6667000000000001	0.0	Yes	2.687	0.013	n/a	GoodResponse	0	n/a	n/a	4	35	Cue	AvoidedLoss	True
336.963	4.0	Lose2	0.6667000000000001	0.0	Yes	2.687	0.0	n/a	GoodResponse	0	n/a	n/a	4	35	Fixation	AvoidedLoss	True
340.961	0.3	Lose2	0.6667000000000001	0.002	Yes	2.687	-0.002	2.0	GoodResponse	0	0.229	340.19	4	35	Target	AvoidedLoss	True
341.19	0.3	Lose2	0.6667000000000001	0.002	Yes	2.687	-0.002	2.0	GoodResponse	0	0.229	n/a	4	35	ButtonPress	AvoidedLoss	True
341.261	0.4	Lose2	0.6667000000000001	n/a	Yes	2.687	n/a	n/a	GoodResponse	0	n/a	n/a	4	35	Blank	AvoidedLoss	True
341.661	1.45	Lose2	0.6667000000000001	n/a	Yes	2.687	n/a	5.0	GoodResponse	0	0.017	340.678	4	35	Feedback	AvoidedLoss	True
343.11	2.687	Lose2	0.6667000000000001	n/a	Yes	2.687	n/a	n/a	GoodResponse	0	0.0	n/a	4	35	ISIslide	AvoidedLoss	True
345.826	0.25	Control	0.6757	0.0	Yes	2.674	0.026	n/a	GoodResponse	0	n/a	n/a	4	36	Cue	Neutral	True
346.076	4.0	Control	0.6757	0.0	Yes	2.674	0.0	n/a	GoodResponse	0	n/a	n/a	4	36	Fixation	Neutral	True
350.075	0.29	Control	0.6757	0.001	Yes	2.674	-0.001	2.0	GoodResponse	0	0.214	349.289	4	36	Target	Neutral	True
350.289	0.3	Control	0.6757	0.001	Yes	2.674	-0.001	2.0	GoodResponse	0	0.214	n/a	4	36	ButtonPress	Neutral	True
350.375	0.41	Control	0.6757	n/a	Yes	2.674	n/a	n/a	GoodResponse	0	n/a	n/a	4	36	Blank	Neutral	True
350.774	1.45	Control	0.6757	n/a	Yes	2.674	n/a	5.0	GoodResponse	0	0.026	349.8	4	36	Feedback	Neutral	True
352.224	2.674	Control	0.6757	n/a	Yes	2.674	n/a	n/a	GoodResponse	0	0.0	n/a	4	36	ISIslide	Neutral	True
354.923	0.25	Win2	0.6842	0.0	Yes	2.877	0.023	n/a	GoodResponse	1	n/a	n/a	5	37	Cue	Win	True
355.173	4.0	Win2	0.6842	0.0	Yes	2.877	0.0	n/a	GoodResponse	1	n/a	n/a	5	37	Fixation	Win	True
359.171	0.28	Win2	0.6842	0.002	Yes	2.877	-0.002	2.0	GoodResponse	1	0.211	358.382	5	37	Target	Win	True
359.382	0.3	Win2	0.6842	0.002	Yes	2.877	-0.002	2.0	GoodResponse	1	0.211	n/a	5	37	ButtonPress	Win	True
359.455	0.42	Win2	0.6842	n/a	Yes	2.877	n/a	n/a	GoodResponse	1	n/a	n/a	5	37	Blank	Win	True
359.871	1.45	Win2	0.6842	n/a	Yes	2.877	n/a	5.0	GoodResponse	1	0.002	358.873	5	37	Feedback	Win	True
361.321	2.877	Win2	0.6842	n/a	Yes	2.877	n/a	n/a	GoodResponse	1	0.0	n/a	5	37	ISIslide	Win	True
364.22	0.25	Lose2	0.6667000000000001	0.0	No	2.83	0.02	n/a	NoResponse	-1	n/a	n/a	4	38	Cue	Loss	True
364.47	3.95	Lose2	0.6667000000000001	0.0	No	2.83	0.0	n/a	NoResponse	-1	n/a	n/a	4	38	Fixation	Loss	True
368.418	0.27	Lose2	0.6667000000000001	0.002	No	2.83	-0.002	2.0	NoResponse	-1	0.31	367.728	4	38	Target	Loss	True
368.701	0.43	Lose2	0.6667000000000001	n/a	No	2.83	n/a	n/a	NoResponse	-1	n/a	n/a	4	38	Blank	Loss	True
368.728	0.3	Lose2	0.6667000000000001	0.002	No	2.83	-0.002	2.0	NoResponse	-1	0.31	n/a	4	38	ButtonPress	Loss	True
369.118	1.45	Lose2	0.6667000000000001	n/a	No	2.83	n/a	5.0	NoResponse	-1	0.023	368.141	4	38	Feedback	Loss	True
370.567	2.83	Lose2	0.6667000000000001	n/a	No	2.83	n/a	n/a	NoResponse	-1	0.0	n/a	4	38	ISIslide	Loss	True
373.416	0.25	Win2	0.65	0.0	No	2.984	0.016	n/a	NoResponse	0	n/a	n/a	4	39	Cue	MissedWin	True
373.666	4.1	Win2	0.65	0.0	No	2.984	0.0	n/a	NoResponse	0	n/a	n/a	4	39	Fixation	MissedWin	True
377.765	0.26	Win2	0.65	0.001	No	2.984	-0.001	2.0	NoResponse	0	0.31	377.075	4	39	Target	MissedWin	True
378.031	0.44	Win2	0.65	n/a	No	2.984	n/a	n/a	NoResponse	0	n/a	n/a	4	39	Blank	MissedWin	True
378.075	0.3	Win2	0.65	0.001	No	2.984	-0.001	2.0	NoResponse	0	0.31	n/a	4	39	ButtonPress	MissedWin	True
378.465	1.45	Win2	0.65	n/a	No	2.984	n/a	5.0	NoResponse	0	0.042	377.507	4	39	Feedback	MissedWin	True
379.914	2.984	Win2	0.65	n/a	No	2.984	n/a	n/a	NoResponse	0	0.0	n/a	4	39	ISIslide	MissedWin	True
382.913	0.25	Win2	0.6585	0.0	Yes	2.737	0.013	n/a	GoodResponse	1	n/a	n/a	5	40	Cue	Win	True
383.163	3.95	Win2	0.6585	0.0	Yes	2.737	0.0	n/a	GoodResponse	1	n/a	n/a	5	40	Fixation	Win	True
387.111	0.27	Win2	0.6585	0.002	Yes	2.737	-0.002	2.0	GoodResponse	1	0.18	386.291	5	40	Target	Win	True
387.291	0.3	Win2	0.6585	0.002	Yes	2.737	-0.002	2.0	GoodResponse	1	0.18	n/a	5	40	ButtonPress	Win	True
387.395	0.43	Win2	0.6585	n/a	Yes	2.737	n/a	n/a	GoodResponse	1	n/a	n/a	5	40	Blank	Win	True
387.811	1.45	Win2	0.6585	n/a	Yes	2.737	n/a	5.0	GoodResponse	1	0.013	386.824	5	40	Feedback	Win	True
389.261	2.737	Win2	0.6585	n/a	Yes	2.737	n/a	n/a	GoodResponse	1	0.0	n/a	5	40	ISIslide	Win	True
392.026	0.25	Win2	0.6667000000000001	0.001	Yes	2.774	0.026	n/a	GoodResponse	1	n/a	n/a	6	41	Cue	Win	True
392.276	3.9	Win2	0.6667000000000001	0.0	Yes	2.774	0.0	n/a	GoodResponse	1	n/a	n/a	6	41	Fixation	Win	True
396.175	0.27	Win2	0.6667000000000001	0.001	Yes	2.774	-0.001	2.0	GoodResponse	1	0.265	395.44	6	41	Target	Win	True
396.44	0.3	Win2	0.6667000000000001	0.001	Yes	2.774	-0.001	2.0	GoodResponse	1	0.265	n/a	6	41	ButtonPress	Win	True
396.441	0.43	Win2	0.6667000000000001	n/a	Yes	2.774	n/a	n/a	GoodResponse	1	n/a	n/a	6	41	Blank	Win	True
396.875	1.45	Win2	0.6667000000000001	n/a	Yes	2.774	n/a	5.0	GoodResponse	1	0.022	395.897	6	41	Feedback	Win	True
398.324	2.774	Win2	0.6667000000000001	n/a	Yes	2.774	n/a	n/a	GoodResponse	1	0.0	n/a	6	41	ISIslide	Win	True
401.123	0.25	Control	0.6744	0.0	Yes	2.927	0.023	n/a	GoodResponse	0	n/a	n/a	6	42	Cue	Neutral	True
401.373	3.85	Control	0.6744	0.0	Yes	2.927	0.0	n/a	GoodResponse	0	n/a	n/a	6	42	Fixation	Neutral	True
405.222	0.26	Control	0.6744	0.001	Yes	2.927	-0.001	2.0	GoodResponse	0	0.194	404.416	6	42	Target	Neutral	True
405.416	0.3	Control	0.6744	0.001	Yes	2.927	-0.001	2.0	GoodResponse	0	0.194	n/a	6	42	ButtonPress	Neutral	True
405.488	0.44	Control	0.6744	n/a	Yes	2.927	n/a	n/a	GoodResponse	0	n/a	n/a	6	42	Blank	Neutral	True
405.921	1.45	Control	0.6744	n/a	Yes	2.927	n/a	5.0	GoodResponse	0	0.048	404.969	6	42	Feedback	Neutral	True
407.371	2.927	Control	0.6744	n/a	Yes	2.927	n/a	n/a	GoodResponse	0	0.0	n/a	6	42	ISIslide	Neutral	True
410.32	0.25	Win2	0.6591	0.0	No	3.18	0.02	n/a	NoResponse	0	n/a	n/a	6	43	Cue	MissedWin	True
410.57	4.0	Win2	0.6591	0.0	No	3.18	0.0	n/a	NoResponse	0	n/a	n/a	6	43	Fixation	MissedWin	True
414.568	0.25	Win2	0.6591	0.002	No	3.18	-0.002	2.0	NoResponse	0	0.269	413.837	6	43	Target	MissedWin	True
414.818	0.45	Win2	0.6591	n/a	No	3.18	n/a	n/a	NoResponse	0	n/a	n/a	6	43	Blank	MissedWin	True
414.837	0.3	Win2	0.6591	0.002	No	3.18	-0.002	2.0	NoResponse	0	0.269	n/a	6	43	ButtonPress	MissedWin	True
415.268	1.45	Win2	0.6591	n/a	No	3.18	n/a	5.0	NoResponse	0	0.019	414.287	6	43	Feedback	MissedWin	True
416.718	3.18	Win2	0.6591	n/a	No	3.18	n/a	n/a	NoResponse	0	0.0	n/a	6	43	ISIslide	MissedWin	True
419.916	0.25	Win2	0.6667000000000001	0.001	Yes	2.984	0.016	n/a	GoodResponse	1	n/a	n/a	7	44	Cue	Win	True
420.166	4.0	Win2	0.6667000000000001	0.0	Yes	2.984	0.0	n/a	GoodResponse	1	n/a	n/a	7	44	Fixation	Win	True
424.165	0.25	Win2	0.6667000000000001	0.001	Yes	2.984	-0.001	2.0	GoodResponse	1	0.21	423.375	7	44	Target	Win	True
424.375	0.3	Win2	0.6667000000000001	0.001	Yes	2.984	-0.001	2.0	GoodResponse	1	0.21	n/a	7	44	ButtonPress	Win	True
424.415	0.45	Win2	0.6667000000000001	n/a	Yes	2.984	n/a	n/a	GoodResponse	1	n/a	n/a	7	44	Blank	Win	True
424.865	1.45	Win2	0.6667000000000001	n/a	Yes	2.984	n/a	5.0	GoodResponse	1	0.031	423.896	7	44	Feedback	Win	True
426.314	2.984	Win2	0.6667000000000001	n/a	Yes	2.984	n/a	n/a	GoodResponse	1	0.0	n/a	7	44	ISIslide	Win	True
429.313	0.25	Control	0.6522	0.0	No	2.887	0.013	n/a	LatePress	0	n/a	n/a	7	45	Cue	Neutral	True
429.563	4.1	Control	0.6522	0.0	No	2.887	0.0	n/a	LatePress	0	n/a	n/a	7	45	Fixation	Neutral	True
433.662	0.24	Control	0.6522	0.001	No	2.887	-0.001	2.0	LatePress	0	0.24	432.902	7	45	Target	Neutral	True
433.902	0.3	Control	0.6522	0.001	No	2.887	-0.001	2.0	LatePress	0	0.24	n/a	7	45	ButtonPress	Neutral	True
433.911	0.46	Control	0.6522	n/a	No	2.887	n/a	n/a	LatePress	0	n/a	n/a	7	45	Blank	Neutral	True
434.361	1.45	Control	0.6522	n/a	No	2.887	n/a	5.0	LatePress	0	0.048	433.409	7	45	Feedback	Neutral	True
435.811	2.887	Control	0.6522	n/a	No	2.887	n/a	n/a	LatePress	0	0.0	n/a	7	45	ISIslide	Neutral	True
438.726	0.25	Lose2	0.6596	0.001	Yes	3.374	0.026	n/a	GoodResponse	0	n/a	n/a	7	46	Cue	AvoidedLoss	True
438.976	4.0	Lose2	0.6596	0.0	Yes	3.374	0.0	n/a	GoodResponse	0	n/a	n/a	7	46	Fixation	AvoidedLoss	True
442.975	0.25	Lose2	0.6596	0.001	Yes	3.374	-0.001	2.0	GoodResponse	0	0.226	442.201	7	46	Target	AvoidedLoss	True
443.201	0.3	Lose2	0.6596	0.001	Yes	3.374	-0.001	2.0	GoodResponse	0	0.226	n/a	7	46	ButtonPress	AvoidedLoss	True
443.225	0.45	Lose2	0.6596	n/a	Yes	3.374	n/a	n/a	GoodResponse	0	n/a	n/a	7	46	Blank	AvoidedLoss	True
443.675	1.45	Lose2	0.6596	n/a	Yes	3.374	n/a	5.0	GoodResponse	0	0.004	442.679	7	46	Feedback	AvoidedLoss	True
445.124	3.374	Lose2	0.6596	n/a	Yes	3.374	n/a	n/a	GoodResponse	0	0.0	n/a	7	46	ISIslide	AvoidedLoss	True
448.523	0.25	Lose2	0.6457999999999999	0.0	No	2.677	0.023	n/a	NoResponse	-1	n/a	n/a	6	47	Cue	Loss	True
448.773	4.0	Lose2	0.6457999999999999	0.0	No	2.677	0.0	n/a	NoResponse	-1	n/a	n/a	6	47	Fixation	Loss	True
452.771	0.25	Lose2	0.6457999999999999	0.002	No	2.677	-0.002	2.0	NoResponse	-1	0.294	452.065	6	47	Target	Loss	True
453.021	0.45	Lose2	0.6457999999999999	n/a	No	2.677	n/a	n/a	NoResponse	-1	n/a	n/a	6	47	Blank	Loss	True
453.065	0.3	Lose2	0.6457999999999999	0.002	No	2.677	-0.002	2.0	NoResponse	-1	0.294	n/a	6	47	ButtonPress	Loss	True
453.471	1.45	Lose2	0.6457999999999999	n/a	No	2.677	n/a	5.0	NoResponse	-1	0.01	452.481	6	47	Feedback	Loss	True
454.921	2.677	Lose2	0.6457999999999999	n/a	No	2.677	n/a	n/a	NoResponse	-1	0.0	n/a	6	47	ISIslide	Loss	True
457.62	0.25	Lose2	0.6531	0.0	Yes	3.03	0.02	n/a	GoodResponse	0	n/a	n/a	6	48	Cue	AvoidedLoss	True
457.87	3.95	Lose2	0.6531	0.0	Yes	3.03	0.0	n/a	GoodResponse	0	n/a	n/a	6	48	Fixation	AvoidedLoss	True
461.818	0.26	Lose2	0.6531	0.002	Yes	3.03	-0.002	2.0	GoodResponse	0	0.226	461.044	6	48	Target	AvoidedLoss	True
462.044	0.3	Lose2	0.6531	0.002	Yes	3.03	-0.002	2.0	GoodResponse	0	0.226	n/a	6	48	ButtonPress	AvoidedLoss	True
462.085	0.44	Lose2	0.6531	n/a	Yes	3.03	n/a	n/a	GoodResponse	0	n/a	n/a	6	48	Blank	AvoidedLoss	True
462.518	1.45	Lose2	0.6531	n/a	Yes	3.03	n/a	5.0	GoodResponse	0	0.037	461.555	6	48	Feedback	AvoidedLoss	True
463.967	3.03	Lose2	0.6531	n/a	Yes	3.03	n/a	n/a	GoodResponse	0	0.0	n/a	6	48	ISIslide	AvoidedLoss	True
467.016	0.25	Control	0.64	0.0	No	2.884	0.016	n/a	NoResponse	0	n/a	n/a	6	49	Cue	Neutral	False
467.266	4.0	Control	0.64	0.0	No	2.884	0.0	n/a	NoResponse	0	n/a	n/a	6	49	Fixation	Neutral	False
471.265	0.27	Control	0.64	0.001	No	2.884	-0.001	n/a	NoResponse	0	n/a	n/a	6	49	Target	Neutral	False
471.531	0.43	Control	0.64	n/a	No	2.884	n/a	n/a	NoResponse	0	n/a	n/a	6	49	Blank	Neutral	False
471.965	1.45	Control	0.64	n/a	No	2.884	n/a	5.0	NoResponse	0	0.004	470.969	6	49	Feedback	Neutral	False
473.414	2.884	Control	0.64	n/a	No	2.884	n/a	n/a	NoResponse	0	0.0	n/a	6	49	ISIslide	Neutral	False
476.313	0.25	Control	0.6470999999999999	0.0	Yes	2.787	0.013	n/a	GoodResponse	0	n/a	n/a	6	50	Cue	Neutral	True
476.563	4.0	Control	0.6470999999999999	0.0	Yes	2.787	0.0	n/a	GoodResponse	0	n/a	n/a	6	50	Fixation	Neutral	True
480.562	0.28	Control	0.6470999999999999	0.001	Yes	2.787	-0.001	2.0	GoodResponse	0	0.267	479.829	6	50	Target	Neutral	True
480.829	0.3	Control	0.6470999999999999	0.001	Yes	2.787	-0.001	2.0	GoodResponse	0	0.267	n/a	6	50	ButtonPress	Neutral	True
480.845	0.42	Control	0.6470999999999999	n/a	Yes	2.787	n/a	n/a	GoodResponse	0	n/a	n/a	6	50	Blank	Neutral	True
481.261	1.45	Control	0.6470999999999999	n/a	Yes	2.787	n/a	5.0	GoodResponse	0	0.025	480.286	6	50	Feedback	Neutral	True
482.711	2.787	Control	0.6470999999999999	n/a	Yes	2.787	n/a	n/a	GoodResponse	0	0.0	n/a	6	50	ISIslide	Neutral	True
485.526	0.25	Control	0.6537999999999999	0.001	Yes	2.724	0.026	n/a	GoodResponse	0	n/a	n/a	6	51	Cue	Neutral	True
485.776	3.95	Control	0.6537999999999999	0.0	Yes	2.724	0.0	n/a	GoodResponse	0	n/a	n/a	6	51	Fixation	Neutral	True
489.725	0.29	Control	0.6537999999999999	0.001	Yes	2.724	-0.001	2.0	GoodResponse	0	0.222	488.947	6	51	Target	Neutral	True
489.947	0.3	Control	0.6537999999999999	0.001	Yes	2.724	-0.001	2.0	GoodResponse	0	0.222	n/a	6	51	ButtonPress	Neutral	True
490.025	0.41	Control	0.6537999999999999	n/a	Yes	2.724	n/a	n/a	GoodResponse	0	n/a	n/a	6	51	Blank	Neutral	True
490.425	1.45	Control	0.6537999999999999	n/a	Yes	2.724	n/a	5.0	GoodResponse	0	0.031	489.456	6	51	Feedback	Neutral	True
491.874	2.724	Control	0.6537999999999999	n/a	Yes	2.724	n/a	n/a	GoodResponse	0	0.0	n/a	6	51	ISIslide	Neutral	True
494.623	0.25	Control	0.6604000000000001	0.0	Yes	2.627	0.023	n/a	GoodResponse	0	n/a	n/a	6	52	Cue	Neutral	True
494.873	4.05	Control	0.6604000000000001	0.0	Yes	2.627	0.0	n/a	GoodResponse	0	n/a	n/a	6	52	Fixation	Neutral	True
498.922	0.3	Control	0.6604000000000001	0.001	Yes	2.627	-0.001	2.0	GoodResponse	0	0.178	498.1	6	52	Target	Neutral	True
499.1	0.3	Control	0.6604000000000001	0.001	Yes	2.627	-0.001	2.0	GoodResponse	0	0.178	n/a	6	52	ButtonPress	Neutral	True
499.222	0.4	Control	0.6604000000000001	n/a	Yes	2.627	n/a	n/a	GoodResponse	0	n/a	n/a	6	52	Blank	Neutral	True
499.621	1.45	Control	0.6604000000000001	n/a	Yes	2.627	n/a	5.0	GoodResponse	0	0.006	498.627	6	52	Feedback	Neutral	True
501.071	2.627	Control	0.6604000000000001	n/a	Yes	2.627	n/a	n/a	GoodResponse	0	0.0	n/a	6	52	ISIslide	Neutral	True
503.72	0.25	Win2	0.6667000000000001	0.0	Yes	2.93	0.02	n/a	GoodResponse	1	n/a	n/a	7	53	Cue	Win	True
503.97	4.05	Win2	0.6667000000000001	0.0	Yes	2.93	0.0	n/a	GoodResponse	1	n/a	n/a	7	53	Fixation	Win	True
508.018	0.3	Win2	0.6667000000000001	0.002	Yes	2.93	-0.002	2.0	GoodResponse	1	0.229	507.247	7	53	Target	Win	True
508.247	0.3	Win2	0.6667000000000001	0.002	Yes	2.93	-0.002	2.0	GoodResponse	1	0.229	n/a	7	53	ButtonPress	Win	True
508.318	0.4	Win2	0.6667000000000001	n/a	Yes	2.93	n/a	n/a	GoodResponse	1	n/a	n/a	7	53	Blank	Win	True
508.718	1.45	Win2	0.6667000000000001	n/a	Yes	2.93	n/a	5.0	GoodResponse	1	0.031	507.749	7	53	Feedback	Win	True
510.168	2.93	Win2	0.6667000000000001	n/a	Yes	2.93	n/a	n/a	GoodResponse	1	0.0	n/a	7	53	ISIslide	Win	True
513.117	0.25	Win2	0.6727	0.0	Yes	2.733	0.017	n/a	GoodResponse	1	n/a	n/a	8	54	Cue	Win	True
513.367	3.95	Win2	0.6727	0.0	Yes	2.733	0.0	n/a	GoodResponse	1	n/a	n/a	8	54	Fixation	Win	True
517.315	0.29	Win2	0.6727	0.002	Yes	2.733	-0.002	2.0	GoodResponse	1	0.21	516.525	8	54	Target	Win	True
517.525	0.3	Win2	0.6727	0.002	Yes	2.733	-0.002	2.0	GoodResponse	1	0.21	n/a	8	54	ButtonPress	Win	True
517.615	0.41	Win2	0.6727	n/a	Yes	2.733	n/a	n/a	GoodResponse	1	n/a	n/a	8	54	Blank	Win	True
518.015	1.45	Win2	0.6727	n/a	Yes	2.733	n/a	5.0	GoodResponse	1	0.004	517.019	8	54	Feedback	Win	True
519.464	2.733	Win2	0.6727	n/a	Yes	2.733	n/a	n/a	GoodResponse	1	0.0	n/a	8	54	ISIslide	Win	True
522.213	0.25	Control	0.6607	0.001	No	3.037	0.013	n/a	NoResponse	0	n/a	n/a	8	55	Cue	Neutral	True
522.463	3.95	Control	0.6607	0.0	No	3.037	0.0	n/a	NoResponse	0	n/a	n/a	8	55	Fixation	Neutral	True
526.412	0.28	Control	0.6607	0.001	No	3.037	-0.001	2.0	NoResponse	0	0.363	525.775	8	55	Target	Neutral	True
526.695	0.42	Control	0.6607	n/a	No	3.037	n/a	n/a	NoResponse	0	n/a	n/a	8	55	Blank	Neutral	True
526.775	0.3	Control	0.6607	0.001	No	3.037	-0.001	2.0	NoResponse	0	0.363	n/a	8	55	ButtonPress	Neutral	True
527.112	1.45	Control	0.6607	n/a	No	3.037	n/a	5.0	NoResponse	0	0.027	526.139	8	55	Feedback	Neutral	True
528.561	3.037	Control	0.6607	n/a	No	3.037	n/a	n/a	NoResponse	0	0.0	n/a	8	55	ISIslide	Neutral	True
531.627	0.25	Control	0.6667000000000001	0.0	Yes	2.823	0.027	n/a	GoodResponse	0	n/a	n/a	8	56	Cue	Neutral	True
531.877	3.95	Control	0.6667000000000001	0.0	Yes	2.823	0.0	n/a	GoodResponse	0	n/a	n/a	8	56	Fixation	Neutral	True
535.825	0.28	Control	0.6667000000000001	0.002	Yes	2.823	-0.002	2.0	GoodResponse	0	0.197	535.022	8	56	Target	Neutral	True
536.022	0.3	Control	0.6667000000000001	0.002	Yes	2.823	-0.002	2.0	GoodResponse	0	0.197	n/a	8	56	ButtonPress	Neutral	True
536.108	0.42	Control	0.6667000000000001	n/a	Yes	2.823	n/a	n/a	GoodResponse	0	n/a	n/a	8	56	Blank	Neutral	True
536.525	1.45	Control	0.6667000000000001	n/a	Yes	2.823	n/a	5.0	GoodResponse	0	0.029	535.554	8	56	Feedback	Neutral	True
537.974	2.823	Control	0.6667000000000001	n/a	Yes	2.823	n/a	n/a	GoodResponse	0	0.0	n/a	8	56	ISIslide	Neutral	True
540.823	0.25	Control	0.6724	0.001	Yes	3.477	0.023	n/a	GoodResponse	0	n/a	n/a	8	57	Cue	Neutral	True
541.073	4.0	Control	0.6724	0.0	Yes	3.477	0.0	n/a	GoodResponse	0	n/a	n/a	8	57	Fixation	Neutral	True
545.072	0.27	Control	0.6724	0.001	Yes	3.477	-0.001	2.0	GoodResponse	0	0.193	544.265	8	57	Target	Neutral	True
545.265	0.3	Control	0.6724	0.001	Yes	3.477	-0.001	2.0	GoodResponse	0	0.193	n/a	8	57	ButtonPress	Neutral	True
545.339	0.43	Control	0.6724	n/a	Yes	3.477	n/a	n/a	GoodResponse	0	n/a	n/a	8	57	Blank	Neutral	True
545.772	1.45	Control	0.6724	n/a	Yes	3.477	n/a	5.0	GoodResponse	0	0.001	544.773	8	57	Feedback	Neutral	True
547.221	3.477	Control	0.6724	n/a	Yes	3.477	n/a	n/a	GoodResponse	0	0.0	n/a	8	57	ISIslide	Neutral	True
550.72	0.25	Win2	0.6609999999999999	0.0	No	2.73	0.02	n/a	NoResponse	0	n/a	n/a	8	58	Cue	MissedWin	True
550.97	4.05	Win2	0.6609999999999999	0.0	No	2.73	0.0	n/a	NoResponse	0	n/a	n/a	8	58	Fixation	MissedWin	True
555.018	0.26	Win2	0.6609999999999999	0.002	No	2.73	-0.002	2.0	NoResponse	0	0.304	554.322	8	58	Target	MissedWin	True
555.285	0.44	Win2	0.6609999999999999	n/a	No	2.73	n/a	n/a	NoResponse	0	n/a	n/a	8	58	Blank	MissedWin	True
555.322	0.3	Win2	0.6609999999999999	0.002	No	2.73	-0.002	2.0	NoResponse	0	0.304	n/a	8	58	ButtonPress	MissedWin	True
555.718	1.45	Win2	0.6609999999999999	n/a	No	2.73	n/a	5.0	NoResponse	0	0.005	554.723	8	58	Feedback	MissedWin	True
557.168	2.73	Win2	0.6609999999999999	n/a	No	2.73	n/a	n/a	NoResponse	0	0.0	n/a	8	58	ISIslide	MissedWin	True
559.917	0.25	Lose2	0.6667000000000001	0.0	Yes	2.683	0.017	n/a	GoodResponse	0	n/a	n/a	8	59	Cue	AvoidedLoss	True
560.167	4.0	Lose2	0.6667000000000001	0.0	Yes	2.683	0.0	n/a	GoodResponse	0	n/a	n/a	8	59	Fixation	AvoidedLoss	True
564.165	0.26	Lose2	0.6667000000000001	0.002	Yes	2.683	-0.002	2.0	GoodResponse	0	0.225	563.39	8	59	Target	AvoidedLoss	True
564.39	0.3	Lose2	0.6667000000000001	0.002	Yes	2.683	-0.002	2.0	GoodResponse	0	0.225	n/a	8	59	ButtonPress	AvoidedLoss	True
564.432	0.44	Lose2	0.6667000000000001	n/a	Yes	2.683	n/a	n/a	GoodResponse	0	n/a	n/a	8	59	Blank	AvoidedLoss	True
564.865	1.45	Lose2	0.6667000000000001	n/a	Yes	2.683	n/a	5.0	GoodResponse	0	0.029	563.894	8	59	Feedback	AvoidedLoss	True
566.314	2.683	Lose2	0.6667000000000001	n/a	Yes	2.683	n/a	n/a	GoodResponse	0	0.0	n/a	8	59	ISIslide	AvoidedLoss	True
569.013	0.25	Control	0.6720999999999999	0.001	Yes	2.687	0.013	n/a	GoodResponse	0	n/a	n/a	8	60	Cue	Neutral	True
569.263	4.0	Control	0.6720999999999999	0.0	Yes	2.687	0.0	n/a	GoodResponse	0	n/a	n/a	8	60	Fixation	Neutral	True
573.262	0.25	Control	0.6720999999999999	0.001	Yes	2.687	-0.001	2.0	GoodResponse	0	0.227	572.489	8	60	Target	Neutral	True
573.489	0.3	Control	0.6720999999999999	0.001	Yes	2.687	-0.001	2.0	GoodResponse	0	0.227	n/a	8	60	ButtonPress	Neutral	True
573.512	0.45	Control	0.6720999999999999	n/a	Yes	2.687	n/a	n/a	GoodResponse	0	n/a	n/a	8	60	Blank	Neutral	True
573.962	1.45	Control	0.6720999999999999	n/a	Yes	2.687	n/a	5.0	GoodResponse	0	0.006	572.968	8	60	Feedback	Neutral	True
575.411	2.687	Control	0.6720999999999999	n/a	Yes	2.687	n/a	n/a	GoodResponse	0	0.0	n/a	8	60	ISIslide	Neutral	True
578.127	0.25	Lose2	0.6774	0.0	Yes	2.973	0.027	n/a	GoodResponse	0	n/a	n/a	8	61	Cue	AvoidedLoss	True
578.377	4.0	Lose2	0.6774	0.0	Yes	2.973	0.0	n/a	GoodResponse	0	n/a	n/a	8	61	Fixation	AvoidedLoss	True
582.375	0.24	Lose2	0.6774	0.002	Yes	2.973	-0.002	2.0	GoodResponse	0	0.212	581.587	8	61	Target	AvoidedLoss	True
582.587	0.3	Lose2	0.6774	0.002	Yes	2.973	-0.002	2.0	GoodResponse	0	0.212	n/a	8	61	ButtonPress	AvoidedLoss	True
582.625	0.46	Lose2	0.6774	n/a	Yes	2.973	n/a	n/a	GoodResponse	0	n/a	n/a	8	61	Blank	AvoidedLoss	True
583.075	1.45	Lose2	0.6774	n/a	Yes	2.973	n/a	5.0	GoodResponse	0	0.015	582.09	8	61	Feedback	AvoidedLoss	True
584.525	2.973	Lose2	0.6774	n/a	Yes	2.973	n/a	n/a	GoodResponse	0	0.0	n/a	8	61	ISIslide	AvoidedLoss	True
587.524	0.25	Lose2	0.6667000000000001	0.0	No	2.876	0.024	n/a	NoResponse	-1	n/a	n/a	7	62	Cue	Loss	True
587.773	3.9	Lose2	0.6667000000000001	0.001	No	2.876	-0.001	n/a	NoResponse	-1	n/a	n/a	7	62	Fixation	Loss	True
591.672	0.23	Lose2	0.6667000000000001	0.002	No	2.876	-0.002	2.0	NoResponse	-1	0.325	590.997	7	62	Target	Loss	True
591.905	0.47	Lose2	0.6667000000000001	n/a	No	2.876	n/a	n/a	NoResponse	-1	n/a	n/a	7	62	Blank	Loss	True
591.997	0.3	Lose2	0.6667000000000001	0.002	No	2.876	-0.002	2.0	NoResponse	-1	0.325	n/a	7	62	ButtonPress	Loss	True
592.372	1.45	Lose2	0.6667000000000001	n/a	No	2.876	n/a	5.0	NoResponse	-1	0.034	591.406	7	62	Feedback	Loss	True
593.821	2.876	Lose2	0.6667000000000001	n/a	No	2.876	n/a	n/a	NoResponse	-1	0.0	n/a	7	62	ISIslide	Loss	True
596.72	0.25	Lose2	0.6718999999999999	0.0	Yes	2.63	0.02	n/a	GoodResponse	0	n/a	n/a	7	63	Cue	AvoidedLoss	True
596.97	4.05	Lose2	0.6718999999999999	0.0	Yes	2.63	0.0	n/a	GoodResponse	0	n/a	n/a	7	63	Fixation	AvoidedLoss	True
601.019	0.22	Lose2	0.6718999999999999	0.001	Yes	2.63	-0.001	2.0	GoodResponse	0	0.215	600.234	7	63	Target	AvoidedLoss	True
601.234	0.3	Lose2	0.6718999999999999	0.001	Yes	2.63	-0.001	2.0	GoodResponse	0	0.215	n/a	7	63	ButtonPress	AvoidedLoss	True
601.252	0.48	Lose2	0.6718999999999999	n/a	Yes	2.63	n/a	n/a	GoodResponse	0	n/a	n/a	7	63	Blank	AvoidedLoss	True
601.718	1.45	Lose2	0.6718999999999999	n/a	Yes	2.63	n/a	5.0	GoodResponse	0	0.005	600.723	7	63	Feedback	AvoidedLoss	True
603.168	2.63	Lose2	0.6718999999999999	n/a	Yes	2.63	n/a	n/a	GoodResponse	0	0.0	n/a	7	63	ISIslide	AvoidedLoss	True
605.817	0.25	Win2	0.6615000000000001	0.0	No	3.133	0.017	n/a	NoResponse	0	n/a	n/a	7	64	Cue	MissedWin	True
606.067	4.15	Win2	0.6615000000000001	0.0	No	3.133	0.0	n/a	NoResponse	0	n/a	n/a	7	64	Fixation	MissedWin	True
610.215	0.21	Win2	0.6615000000000001	0.002	No	3.133	-0.002	2.0	NoResponse	0	0.282	609.497	7	64	Target	MissedWin	True
610.432	0.49	Win2	0.6615000000000001	n/a	No	3.133	n/a	n/a	NoResponse	0	n/a	n/a	7	64	Blank	MissedWin	True
610.497	0.3	Win2	0.6615000000000001	0.002	No	3.133	-0.002	2.0	NoResponse	0	0.282	n/a	7	64	ButtonPress	MissedWin	True
610.915	1.45	Win2	0.6615000000000001	n/a	No	3.133	n/a	5.0	NoResponse	0	0.028	609.943	7	64	Feedback	MissedWin	True
612.365	3.133	Win2	0.6615000000000001	n/a	No	3.133	n/a	n/a	NoResponse	0	0.0	n/a	7	64	ISIslide	MissedWin	True
615.514	0.25	Control	0.6515000000000001	0.0	No	2.786	0.014	n/a	NoResponse	0	n/a	n/a	7	65	Cue	Neutral	True
615.763	4.0	Control	0.6515000000000001	0.001	No	2.786	-0.001	n/a	NoResponse	0	n/a	n/a	7	65	Fixation	Neutral	True
619.762	0.21	Control	0.6515000000000001	0.002	No	2.786	-0.002	2.0	NoResponse	0	0.259	619.021	7	65	Target	Neutral	True
619.979	0.49	Control	0.6515000000000001	n/a	No	2.786	n/a	n/a	NoResponse	0	n/a	n/a	7	65	Blank	Neutral	True
620.021	0.3	Control	0.6515000000000001	0.002	No	2.786	-0.002	2.0	NoResponse	0	0.259	n/a	7	65	ButtonPress	Neutral	True
620.462	1.45	Control	0.6515000000000001	n/a	No	2.786	n/a	5.0	NoResponse	0	0.042	619.504	7	65	Feedback	Neutral	True
621.911	2.786	Control	0.6515000000000001	n/a	No	2.786	n/a	n/a	NoResponse	0	0.0	n/a	7	65	ISIslide	Neutral	True
624.727	0.25	Win2	0.6418	0.0	No	2.773	0.027	n/a	NoResponse	0	n/a	n/a	7	66	Cue	MissedWin	True
624.977	3.9	Win2	0.6418	0.0	No	2.773	0.0	n/a	NoResponse	0	n/a	n/a	7	66	Fixation	MissedWin	True
628.875	0.22	Win2	0.6418	0.002	No	2.773	-0.002	2.0	NoResponse	0	0.257	628.132	7	66	Target	MissedWin	True
629.109	0.48	Win2	0.6418	n/a	No	2.773	n/a	n/a	NoResponse	0	n/a	n/a	7	66	Blank	MissedWin	True
629.132	0.3	Win2	0.6418	0.002	No	2.773	-0.002	2.0	NoResponse	0	0.257	n/a	7	66	ButtonPress	MissedWin	True
629.575	1.45	Win2	0.6418	n/a	No	2.773	n/a	5.0	NoResponse	0	0.001	628.576	7	66	Feedback	MissedWin	True
631.025	2.773	Win2	0.6418	n/a	No	2.773	n/a	n/a	NoResponse	0	0.0	n/a	7	66	ISIslide	MissedWin	True
633.824	0.25	Control	0.6470999999999999	0.0	Yes	2.726	0.024	n/a	GoodResponse	0	n/a	n/a	7	67	Cue	Neutral	True
634.074	3.95	Control	0.6470999999999999	0.0	Yes	2.726	0.0	n/a	GoodResponse	0	n/a	n/a	7	67	Fixation	Neutral	True
638.022	0.23	Control	0.6470999999999999	0.002	Yes	2.726	-0.002	2.0	GoodResponse	0	0.196	637.218	7	67	Target	Neutral	True
638.218	0.3	Control	0.6470999999999999	0.002	Yes	2.726	-0.002	2.0	GoodResponse	0	0.196	n/a	7	67	ButtonPress	Neutral	True
638.255	0.47	Control	0.6470999999999999	n/a	Yes	2.726	n/a	n/a	GoodResponse	0	n/a	n/a	7	67	Blank	Neutral	True
638.722	1.45	Control	0.6470999999999999	n/a	Yes	2.726	n/a	5.0	GoodResponse	0	0.025	637.747	7	67	Feedback	Neutral	True
640.171	2.726	Control	0.6470999999999999	n/a	Yes	2.726	n/a	n/a	GoodResponse	0	0.0	n/a	7	67	ISIslide	Neutral	True
642.92	0.25	Win2	0.6522	0.001	Yes	3.08	0.02	n/a	GoodResponse	1	n/a	n/a	8	68	Cue	Win	True
643.17	4.0	Win2	0.6522	0.0	Yes	3.08	0.0	n/a	GoodResponse	1	n/a	n/a	8	68	Fixation	Win	True
647.169	0.24	Win2	0.6522	0.001	Yes	3.08	-0.001	2.0	GoodResponse	1	0.221	646.39	8	68	Target	Win	True
647.39	0.3	Win2	0.6522	0.001	Yes	3.08	-0.001	2.0	GoodResponse	1	0.221	n/a	8	68	ButtonPress	Win	True
647.419	0.46	Win2	0.6522	n/a	Yes	3.08	n/a	n/a	GoodResponse	1	n/a	n/a	8	68	Blank	Win	True
647.869	1.45	Win2	0.6522	n/a	Yes	3.08	n/a	5.0	GoodResponse	1	0.0	646.869	8	68	Feedback	Win	True
649.318	3.08	Win2	0.6522	n/a	Yes	3.08	n/a	n/a	GoodResponse	1	0.0	n/a	8	68	ISIslide	Win	True
652.417	0.25	Win2	0.6429	0.0	No	3.233	0.017	n/a	NoResponse	0	n/a	n/a	8	69	Cue	MissedWin	False
652.667	3.95	Win2	0.6429	0.0	No	3.233	0.0	n/a	NoResponse	0	n/a	n/a	8	69	Fixation	MissedWin	False
656.616	0.25	Win2	0.6429	0.001	No	3.233	-0.001	n/a	NoResponse	0	n/a	n/a	8	69	Target	MissedWin	False
656.866	0.45	Win2	0.6429	n/a	No	3.233	n/a	n/a	NoResponse	0	n/a	n/a	8	69	Blank	MissedWin	False
657.315	1.45	Win2	0.6429	n/a	No	3.233	n/a	5.0	NoResponse	0	0.018	656.333	8	69	Feedback	MissedWin	False
658.765	3.233	Win2	0.6429	n/a	No	3.233	n/a	n/a	NoResponse	0	0.0	n/a	8	69	ISIslide	MissedWin	False
662.014	0.25	Lose2	0.6479	0.0	Yes	3.036	0.014	n/a	GoodResponse	0	n/a	n/a	8	70	Cue	AvoidedLoss	True
662.264	4.05	Lose2	0.6479	0.0	Yes	3.036	0.0	n/a	GoodResponse	0	n/a	n/a	8	70	Fixation	AvoidedLoss	True
666.312	0.26	Lose2	0.6479	0.002	Yes	3.036	-0.002	2.0	GoodResponse	0	0.204	665.516	8	70	Target	AvoidedLoss	True
666.516	0.3	Lose2	0.6479	0.002	Yes	3.036	-0.002	2.0	GoodResponse	0	0.204	n/a	8	70	ButtonPress	AvoidedLoss	True
666.579	0.44	Lose2	0.6479	n/a	Yes	3.036	n/a	n/a	GoodResponse	0	n/a	n/a	8	70	Blank	AvoidedLoss	True
667.012	1.45	Lose2	0.6479	n/a	Yes	3.036	n/a	5.0	GoodResponse	0	0.027	666.039	8	70	Feedback	AvoidedLoss	True
668.461	3.036	Lose2	0.6479	n/a	Yes	3.036	n/a	n/a	GoodResponse	0	0.0	n/a	8	70	ISIslide	AvoidedLoss	True
671.527	0.25	Win2	0.6528	0.0	Yes	2.723	0.027	n/a	GoodResponse	1	n/a	n/a	9	71	Cue	Win	True
671.777	4.05	Win2	0.6528	0.0	Yes	2.723	0.0	n/a	GoodResponse	1	n/a	n/a	9	71	Fixation	Win	True
675.825	0.27	Win2	0.6528	0.002	Yes	2.723	-0.002	2.0	GoodResponse	1	0.234	675.059	9	71	Target	Win	True
676.059	0.3	Win2	0.6528	0.002	Yes	2.723	-0.002	2.0	GoodResponse	1	0.234	n/a	9	71	ButtonPress	Win	True
676.109	0.43	Win2	0.6528	n/a	Yes	2.723	n/a	n/a	GoodResponse	1	n/a	n/a	9	71	Blank	Win	True
676.525	1.45	Win2	0.6528	n/a	Yes	2.723	n/a	5.0	GoodResponse	1	0.026	675.551	9	71	Feedback	Win	True
677.975	2.723	Win2	0.6528	n/a	Yes	2.723	n/a	n/a	GoodResponse	1	0.0	n/a	9	71	ISIslide	Win	True
680.724	0.25	Win2	0.6575	0.0	Yes	2.776	0.024	n/a	GoodResponse	1	n/a	n/a	10	72	Cue	Win	True
680.974	4.1	Win2	0.6575	0.0	Yes	2.776	0.0	n/a	GoodResponse	1	n/a	n/a	10	72	Fixation	Win	True
685.072	0.28	Win2	0.6575	0.002	Yes	2.776	-0.002	2.0	GoodResponse	1	0.213	684.285	10	72	Target	Win	True
685.285	0.3	Win2	0.6575	0.002	Yes	2.776	-0.002	2.0	GoodResponse	1	0.213	n/a	10	72	ButtonPress	Win	True
685.355	0.42	Win2	0.6575	n/a	Yes	2.776	n/a	n/a	GoodResponse	1	n/a	n/a	10	72	Blank	Win	True
685.772	1.45	Win2	0.6575	n/a	Yes	2.776	n/a	5.0	GoodResponse	1	0.048	684.82	10	72	Feedback	Win	True
687.221	2.776	Win2	0.6575	n/a	Yes	2.776	n/a	n/a	GoodResponse	1	0.0	n/a	10	72	ISIslide	Win	True
690.02	0.25	Win2	0.6622	0.001	Yes	2.68	0.02	n/a	GoodResponse	1	n/a	n/a	11	73	Cue	Win	True
690.27	4.0	Win2	0.6622	0.0	Yes	2.68	0.0	n/a	GoodResponse	1	n/a	n/a	11	73	Fixation	Win	True
694.269	0.28	Win2	0.6622	0.001	Yes	2.68	-0.001	2.0	GoodResponse	1	0.218	693.487	11	73	Target	Win	True
694.487	0.3	Win2	0.6622	0.001	Yes	2.68	-0.001	2.0	GoodResponse	1	0.218	n/a	11	73	ButtonPress	Win	True
694.552	0.42	Win2	0.6622	n/a	Yes	2.68	n/a	n/a	GoodResponse	1	n/a	n/a	11	73	Blank	Win	True
694.969	1.45	Win2	0.6622	n/a	Yes	2.68	n/a	5.0	GoodResponse	1	0.022	693.991	11	73	Feedback	Win	True
696.418	2.68	Win2	0.6622	n/a	Yes	2.68	n/a	n/a	GoodResponse	1	0.0	n/a	11	73	ISIslide	Win	True
699.117	0.25	Lose2	0.6533	0.0	No	2.633	0.017	n/a	NoResponse	-1	n/a	n/a	10	74	Cue	Loss	False
699.367	4.05	Lose2	0.6533	0.0	No	2.633	0.0	n/a	NoResponse	-1	n/a	n/a	10	74	Fixation	Loss	False
703.416	0.28	Lose2	0.6533	0.001	No	2.633	-0.001	n/a	NoResponse	-1	n/a	n/a	10	74	Target	Loss	False
703.699	0.42	Lose2	0.6533	n/a	No	2.633	n/a	n/a	NoResponse	-1	n/a	n/a	10	74	Blank	Loss	False
704.115	1.45	Lose2	0.6533	n/a	No	2.633	n/a	5.0	NoResponse	-1	0.045	703.16	10	74	Feedback	Loss	False
705.565	2.633	Lose2	0.6533	n/a	No	2.633	n/a	n/a	NoResponse	-1	0.0	n/a	10	74	ISIslide	Loss	False
708.214	0.25	Lose2	0.6579	0.0	Yes	2.936	0.014	n/a	GoodResponse	0	n/a	n/a	10	75	Cue	AvoidedLoss	True
708.464	3.95	Lose2	0.6579	0.0	Yes	2.936	0.0	n/a	GoodResponse	0	n/a	n/a	10	75	Fixation	AvoidedLoss	True
712.412	0.29	Lose2	0.6579	0.002	Yes	2.936	-0.002	2.0	GoodResponse	0	0.206	711.618	10	75	Target	AvoidedLoss	True
712.618	0.3	Lose2	0.6579	0.002	Yes	2.936	-0.002	2.0	GoodResponse	0	0.206	n/a	10	75	ButtonPress	AvoidedLoss	True
712.712	0.41	Lose2	0.6579	n/a	Yes	2.936	n/a	n/a	GoodResponse	0	n/a	n/a	10	75	Blank	AvoidedLoss	True
713.112	1.45	Lose2	0.6579	n/a	Yes	2.936	n/a	5.0	GoodResponse	0	0.024	712.136	10	75	Feedback	AvoidedLoss	True
714.562	2.936	Lose2	0.6579	n/a	Yes	2.936	n/a	n/a	GoodResponse	0	0.0	n/a	10	75	ISIslide	AvoidedLoss	True
717.527	0.25	Control	0.6623	0.0	Yes	3.223	0.027	n/a	GoodResponse	0	n/a	n/a	10	76	Cue	Neutral	True
717.777	4.05	Control	0.6623	0.0	Yes	3.223	0.0	n/a	GoodResponse	0	n/a	n/a	10	76	Fixation	Neutral	True
721.826	0.29	Control	0.6623	0.001	Yes	3.223	-0.001	2.0	GoodResponse	0	0.204	721.03	10	76	Target	Neutral	True
722.03	0.3	Control	0.6623	0.001	Yes	3.223	-0.001	2.0	GoodResponse	0	0.204	n/a	10	76	ButtonPress	Neutral	True
722.126	0.41	Control	0.6623	n/a	Yes	3.223	n/a	n/a	GoodResponse	0	n/a	n/a	10	76	Blank	Neutral	True
722.525	1.45	Control	0.6623	n/a	Yes	3.223	n/a	5.0	GoodResponse	0	0.026	721.551	10	76	Feedback	Neutral	True
723.975	3.223	Control	0.6623	n/a	Yes	3.223	n/a	n/a	GoodResponse	0	0.0	n/a	10	76	ISIslide	Neutral	True
727.224	0.25	Lose2	0.6667000000000001	0.0	Yes	2.576	0.024	n/a	GoodResponse	0	n/a	n/a	10	77	Cue	AvoidedLoss	True
727.474	3.95	Lose2	0.6667000000000001	0.0	Yes	2.576	0.0	n/a	GoodResponse	0	n/a	n/a	10	77	Fixation	AvoidedLoss	True
731.422	0.29	Lose2	0.6667000000000001	0.002	Yes	2.576	-0.002	2.0	GoodResponse	0	0.207	730.629	10	77	Target	AvoidedLoss	True
731.629	0.3	Lose2	0.6667000000000001	0.002	Yes	2.576	-0.002	2.0	GoodResponse	0	0.207	n/a	10	77	ButtonPress	AvoidedLoss	True
731.722	0.41	Lose2	0.6667000000000001	n/a	Yes	2.576	n/a	n/a	GoodResponse	0	n/a	n/a	10	77	Blank	AvoidedLoss	True
732.122	1.45	Lose2	0.6667000000000001	n/a	Yes	2.576	n/a	5.0	GoodResponse	0	0.039	731.161	10	77	Feedback	AvoidedLoss	True
733.572	2.576	Lose2	0.6667000000000001	n/a	Yes	2.576	n/a	n/a	GoodResponse	0	0.0	n/a	10	77	ISIslide	AvoidedLoss	True
