onset	duration	cue_type	current_mean_accuracy	duration_error	is_hit	isi_adjusted	onset_delay	response	response_type	reward	rt	rt_time	total_reward	trial_number	trial_phase	trial_type	one_press
11.104	0.25	Control	1.0	0.0	Yes	2.946	0.004	n/a	GoodResponse	0	n/a	n/a	0	0	Cue	Neutral	True
11.354	3.85	Control	1.0	0.0	Yes	2.946	0.0	n/a	GoodResponse	0	n/a	n/a	0	0	Fixation	Neutral	True
15.216	0.4	Control	1.0	0.0	Yes	2.946	0.012	4.0	GoodResponse	0	0.23	14.446	0	0	Target	Neutral	True
15.446	0.3	Control	1.0	0.0	Yes	2.946	0.012	4.0	GoodResponse	0	0.23	n/a	0	0	ButtonPress	Neutral	True
15.6	0.3	Control	1.0	n/a	Yes	2.946	n/a	n/a	GoodResponse	0	n/a	n/a	0	0	Blank	Neutral	True
15.901	1.45	Control	1.0	n/a	Yes	2.946	n/a	5.0	GoodResponse	0	0.024	14.925	0	0	Feedback	Neutral	True
17.356	2.946	Control	1.0	n/a	Yes	2.946	n/a	n/a	GoodResponse	0	0.0	n/a	0	0	ISIslide	Neutral	True
20.331	0.25	Lose2	1.0	0.0	Yes	2.769	0.031	n/a	GoodResponse	0	n/a	n/a	0	1	Cue	AvoidedLoss	True
20.582	4.0	Lose2	1.0	0.0	Yes	2.769	0.001	n/a	GoodResponse	0	n/a	n/a	0	1	Fixation	AvoidedLoss	True
24.577	0.39	Lose2	1.0	0.004	Yes	2.769	-0.004	4.0	GoodResponse	0	0.238	23.815	0	1	Target	AvoidedLoss	True
24.815	0.3	Lose2	1.0	0.004	Yes	2.769	-0.004	4.0	GoodResponse	0	0.238	n/a	0	1	ButtonPress	AvoidedLoss	True
24.979	0.31	Lose2	1.0	n/a	Yes	2.769	n/a	n/a	GoodResponse	0	n/a	n/a	0	1	Blank	AvoidedLoss	True
25.279	1.45	Lose2	1.0	n/a	Yes	2.769	n/a	5.0	GoodResponse	0	0.012	24.291	0	1	Feedback	AvoidedLoss	True
26.734	2.769	Lose2	1.0	n/a	Yes	2.769	n/a	n/a	GoodResponse	0	0.0	n/a	0	1	ISIslide	AvoidedLoss	True
29.526	0.25	Control	1.0	0.0	Yes	2.574	0.026	n/a	GoodResponse	0	n/a	n/a	0	2	Cue	Neutral	True
29.776	4.1	Control	1.0	0.0	Yes	2.574	0.0	n/a	GoodResponse	0	n/a	n/a	0	2	Fixation	Neutral	True
33.872	0.38	Control	1.0	0.004	Yes	2.574	-0.004	4.0	GoodResponse	0	0.229	33.101	0	2	Target	Neutral	True
34.101	0.3	Control	1.0	0.004	Yes	2.574	-0.004	4.0	GoodResponse	0	0.229	n/a	0	2	ButtonPress	Neutral	True
34.256	0.32	Control	1.0	n/a	Yes	2.574	n/a	n/a	GoodResponse	0	n/a	n/a	0	2	Blank	Neutral	True
34.574	1.45	Control	1.0	n/a	Yes	2.574	n/a	5.0	GoodResponse	0	0.035	33.609	0	2	Feedback	Neutral	True
36.028	2.574	Control	1.0	n/a	Yes	2.574	n/a	n/a	GoodResponse	0	0.0	n/a	0	2	ISIslide	Neutral	True
38.62	0.25	Win2	1.0	0.0	Yes	2.83	0.02	n/a	GoodResponse	1	n/a	n/a	1	3	Cue	Win	True
38.87	3.95	Win2	1.0	0.0	Yes	2.83	0.0	n/a	GoodResponse	1	n/a	n/a	1	3	Fixation	Win	True
42.832	0.37	Win2	1.0	0.0	Yes	2.83	0.012	4.0	GoodResponse	1	0.226	42.058	1	3	Target	Win	True
43.058	0.3	Win2	1.0	0.0	Yes	2.83	0.012	4.0	GoodResponse	1	0.226	n/a	1	3	ButtonPress	Win	True
43.2	0.33	Win2	1.0	n/a	Yes	2.83	n/a	n/a	GoodResponse	1	n/a	n/a	1	3	Blank	Win	True
43.518	1.45	Win2	1.0	n/a	Yes	2.83	n/a	5.0	GoodResponse	1	0.018	42.536	1	3	Feedback	Win	True
44.972	2.83	Win2	1.0	n/a	Yes	2.83	n/a	n/a	GoodResponse	1	0.0	n/a	1	3	ISIslide	Win	True
47.83	0.25	Win2	1.0	0.001	Yes	3.27	0.03	n/a	GoodResponse	1	n/a	n/a	2	4	Cue	Win	True
48.081	4.0	Win2	1.0	0.0	Yes	3.27	0.001	n/a	GoodResponse	1	n/a	n/a	2	4	Fixation	Win	True
52.077	0.36	Win2	1.0	0.003	Yes	3.27	-0.003	4.0	GoodResponse	1	0.229	51.306	2	4	Target	Win	True
52.306	0.3	Win2	1.0	0.003	Yes	3.27	-0.003	4.0	GoodResponse	1	0.229	n/a	2	4	ButtonPress	Win	True
52.444	0.34	Win2	1.0	n/a	Yes	3.27	n/a	n/a	GoodResponse	1	n/a	n/a	2	4	Blank	Win	True
52.779	1.45	Win2	1.0	n/a	Yes	3.27	n/a	5.0	GoodResponse	1	0.025	51.804	2	4	Feedback	Win	True
54.233	3.27	Win2	1.0	n/a	Yes	3.27	n/a	n/a	GoodResponse	1	0.0	n/a	2	4	ISIslide	Win	True
57.526	0.25	Win2	1.0	0.0	Yes	2.774	0.026	n/a	GoodResponse	1	n/a	n/a	3	5	Cue	Win	True
57.777	4.0	Win2	1.0	0.0	Yes	2.774	0.001	n/a	GoodResponse	1	n/a	n/a	3	5	Fixation	Win	True
61.772	0.35	Win2	1.0	0.004	Yes	2.774	-0.004	4.0	GoodResponse	1	0.285	61.057	3	5	Target	Win	True
62.057	0.3	Win2	1.0	0.004	Yes	2.774	-0.004	4.0	GoodResponse	1	0.285	n/a	3	5	ButtonPress	Win	True
62.123	0.35	Win2	1.0	n/a	Yes	2.774	n/a	n/a	GoodResponse	1	n/a	n/a	3	5	Blank	Win	True
62.474	1.45	Win2	1.0	n/a	Yes	2.774	n/a	5.0	GoodResponse	1	0.037	61.511	3	5	Feedback	Win	True
63.929	2.774	Win2	1.0	n/a	Yes	2.774	n/a	n/a	GoodResponse	1	0.0	n/a	3	5	ISIslide	Win	True
66.72	0.25	Lose2	1.0	0.001	Yes	2.73	0.02	n/a	GoodResponse	0	n/a	n/a	3	6	Cue	AvoidedLoss	True
66.971	3.95	Lose2	1.0	0.0	Yes	2.73	0.001	n/a	GoodResponse	0	n/a	n/a	3	6	Fixation	AvoidedLoss	True
70.916	0.34	Lose2	1.0	0.004	Yes	2.73	-0.004	4.0	GoodResponse	0	0.255	70.171	3	6	Target	AvoidedLoss	True
71.171	0.3	Lose2	1.0	0.004	Yes	2.73	-0.004	4.0	GoodResponse	0	0.255	n/a	3	6	ButtonPress	AvoidedLoss	True
71.267	0.36	Lose2	1.0	n/a	Yes	2.73	n/a	n/a	GoodResponse	0	n/a	n/a	3	6	Blank	AvoidedLoss	True
71.619	1.45	Lose2	1.0	n/a	Yes	2.73	n/a	5.0	GoodResponse	0	0.014	70.633	3	6	Feedback	AvoidedLoss	True
73.073	2.73	Lose2	1.0	n/a	Yes	2.73	n/a	n/a	GoodResponse	0	0.0	n/a	3	6	ISIslide	AvoidedLoss	True
75.831	0.25	Lose2	1.0	0.0	Yes	4.019	0.031	n/a	GoodResponse	0	n/a	n/a	3	7	Cue	AvoidedLoss	True
76.082	4.05	Lose2	1.0	0.0	Yes	4.019	0.001	n/a	GoodResponse	0	n/a	n/a	3	7	Fixation	AvoidedLoss	True
80.127	0.33	Lose2	1.0	0.004	Yes	4.019	-0.004	4.0	GoodResponse	0	0.271	79.398	3	7	Target	AvoidedLoss	True
80.398	0.3	Lose2	1.0	0.004	Yes	4.019	-0.004	4.0	GoodResponse	0	0.271	n/a	3	7	ButtonPress	AvoidedLoss	True
80.462	0.37	Lose2	1.0	n/a	Yes	4.019	n/a	n/a	GoodResponse	0	n/a	n/a	3	7	Blank	AvoidedLoss	True
80.829	1.45	Lose2	1.0	n/a	Yes	4.019	n/a	5.0	GoodResponse	0	0.024	79.853	3	7	Feedback	AvoidedLoss	True
82.284	4.019	Lose2	1.0	n/a	Yes	4.019	n/a	n/a	GoodResponse	0	0.0	n/a	3	7	ISIslide	AvoidedLoss	True
86.329	0.25	Lose2	1.0	0.0	Yes	3.021	0.029	n/a	GoodResponse	0	n/a	n/a	3	8	Cue	AvoidedLoss	True
86.58	3.95	Lose2	1.0	0.0	Yes	3.021	0.001	n/a	GoodResponse	0	n/a	n/a	3	8	Fixation	AvoidedLoss	True
90.525	0.32	Lose2	1.0	0.004	Yes	3.021	-0.004	4.0	GoodResponse	0	0.211	89.736	3	8	Target	AvoidedLoss	True
90.736	0.3	Lose2	1.0	0.004	Yes	3.021	-0.004	4.0	GoodResponse	0	0.211	n/a	3	8	ButtonPress	AvoidedLoss	True
90.86	0.38	Lose2	1.0	n/a	Yes	3.021	n/a	n/a	GoodResponse	0	n/a	n/a	3	8	Blank	AvoidedLoss	True
91.227	1.45	Lose2	1.0	n/a	Yes	3.021	n/a	5.0	GoodResponse	0	0.015	90.242	3	8	Feedback	AvoidedLoss	True
92.682	3.021	Lose2	1.0	n/a	Yes	3.021	n/a	n/a	GoodResponse	0	0.0	n/a	3	8	ISIslide	AvoidedLoss	True
95.724	0.25	Lose2	1.0	0.0	Yes	3.126	0.024	n/a	GoodResponse	0	n/a	n/a	3	9	Cue	AvoidedLoss	True
95.975	3.95	Lose2	1.0	0.0	Yes	3.126	0.001	n/a	GoodResponse	0	n/a	n/a	3	9	Fixation	AvoidedLoss	True
99.92	0.31	Lose2	1.0	0.004	Yes	3.126	-0.004	4.0	GoodResponse	0	0.255	99.175	3	9	Target	AvoidedLoss	True
100.175	0.3	Lose2	1.0	0.004	Yes	3.126	-0.004	4.0	GoodResponse	0	0.255	n/a	3	9	ButtonPress	AvoidedLoss	True
100.238	0.39	Lose2	1.0	n/a	Yes	3.126	n/a	n/a	GoodResponse	0	n/a	n/a	3	9	Blank	AvoidedLoss	True
100.622	1.45	Lose2	1.0	n/a	Yes	3.126	n/a	5.0	GoodResponse	0	0.035	99.657	3	9	Feedback	AvoidedLoss	True
102.077	3.126	Lose2	1.0	n/a	Yes	3.126	n/a	n/a	GoodResponse	0	0.0	n/a	3	9	ISIslide	AvoidedLoss	True
105.219	0.25	Control	1.0	0.0	Yes	3.281	0.019	n/a	GoodResponse	0	n/a	n/a	3	10	Cue	Neutral	True
105.47	4.0	Control	1.0	0.0	Yes	3.281	0.001	n/a	GoodResponse	0	n/a	n/a	3	10	Fixation	Neutral	True
109.465	0.3	Control	1.0	0.004	Yes	3.281	-0.004	4.0	GoodResponse	0	0.233	108.698	3	10	Target	Neutral	True
109.698	0.3	Control	1.0	0.004	Yes	3.281	-0.004	4.0	GoodResponse	0	0.233	n/a	3	10	ButtonPress	Neutral	True
109.766	0.4	Control	1.0	n/a	Yes	3.281	n/a	n/a	GoodResponse	0	n/a	n/a	3	10	Blank	Neutral	True
110.167	1.45	Control	1.0	n/a	Yes	3.281	n/a	5.0	GoodResponse	0	0.007	109.174	3	10	Feedback	Neutral	True
111.622	3.281	Control	1.0	n/a	Yes	3.281	n/a	n/a	GoodResponse	0	0.0	n/a	3	10	ISIslide	Neutral	True
114.915	0.25	Lose2	1.0	0.0	Yes	2.735	0.015	n/a	GoodResponse	0	n/a	n/a	3	11	Cue	AvoidedLoss	True
115.166	4.05	Lose2	1.0	0.0	Yes	2.735	0.001	n/a	GoodResponse	0	n/a	n/a	3	11	Fixation	AvoidedLoss	True
119.211	0.29	Lose2	1.0	0.004	Yes	2.735	-0.004	4.0	GoodResponse	0	0.219	118.43	3	11	Target	AvoidedLoss	True
119.43	0.3	Lose2	1.0	0.004	Yes	2.735	-0.004	4.0	GoodResponse	0	0.219	n/a	3	11	ButtonPress	AvoidedLoss	True
119.512	0.41	Lose2	1.0	n/a	Yes	2.735	n/a	n/a	GoodResponse	0	n/a	n/a	3	11	Blank	AvoidedLoss	True
119.913	1.45	Lose2	1.0	n/a	Yes	2.735	n/a	5.0	GoodResponse	0	0.013	118.926	3	11	Feedback	AvoidedLoss	True
121.368	2.735	Lose2	1.0	n/a	Yes	2.735	n/a	n/a	GoodResponse	0	0.0	n/a	3	11	ISIslide	AvoidedLoss	True
124.126	0.25	Control	0.9231	0.0	No	2.974	0.026	n/a	NoResponse	0	n/a	n/a	3	12	Cue	Neutral	True
124.377	3.9	Control	0.9231	0.0	No	2.974	0.001	n/a	NoResponse	0	n/a	n/a	3	12	Fixation	Neutral	True
128.272	0.28	Control	0.9231	0.004	No	2.974	-0.004	4.0	NoResponse	0	0.353	127.625	3	12	Target	Neutral	True
128.556	0.42	Control	0.9231	n/a	No	2.974	n/a	n/a	NoResponse	0	n/a	n/a	3	12	Blank	Neutral	True
128.625	0.3	Control	0.9231	0.004	No	2.974	-0.004	4.0	NoResponse	0	0.353	n/a	3	12	ButtonPress	Neutral	True
128.974	1.45	Control	0.9231	n/a	No	2.974	n/a	5.0	NoResponse	0	0.025	127.999	3	12	Feedback	Neutral	True
130.428	2.974	Control	0.9231	n/a	No	2.974	n/a	n/a	NoResponse	0	0.0	n/a	3	12	ISIslide	Neutral	True
133.421	0.25	Control	0.8571	0.0	No	2.779	0.021	n/a	LatePress	0	n/a	n/a	3	13	Cue	Neutral	True
133.671	4.0	Control	0.8571	0.0	No	2.779	0.0	n/a	LatePress	0	n/a	n/a	3	13	Fixation	Neutral	True
137.667	0.27	Control	0.8571	0.004	No	2.779	-0.004	4.0	LatePress	0	0.282	136.949	3	13	Target	Neutral	True
137.949	0.3	Control	0.8571	0.004	No	2.779	-0.004	4.0	LatePress	0	0.282	n/a	3	13	ButtonPress	Neutral	True
137.951	0.43	Control	0.8571	n/a	No	2.779	n/a	n/a	LatePress	0	n/a	n/a	3	13	Blank	Neutral	True
138.369	1.45	Control	0.8571	n/a	No	2.779	n/a	5.0	LatePress	0	0.045	137.414	3	13	Feedback	Neutral	True
139.823	2.779	Control	0.8571	n/a	No	2.779	n/a	n/a	LatePress	0	0.0	n/a	3	13	ISIslide	Neutral	True
142.615	0.25	Win2	0.8667	0.0	Yes	2.685	0.015	n/a	GoodResponse	1	n/a	n/a	4	14	Cue	Win	True
142.866	4.1	Win2	0.8667	0.0	Yes	2.685	0.001	n/a	GoodResponse	1	n/a	n/a	4	14	Fixation	Win	True
146.961	0.26	Win2	0.8667	0.004	Yes	2.685	-0.004	4.0	GoodResponse	1	0.24	146.201	4	14	Target	Win	True
147.201	0.3	Win2	0.8667	0.004	Yes	2.685	-0.004	4.0	GoodResponse	1	0.24	n/a	4	14	ButtonPress	Win	True
147.229	0.44	Win2	0.8667	n/a	Yes	2.685	n/a	n/a	GoodResponse	1	n/a	n/a	4	14	Blank	Win	True
147.663	1.45	Win2	0.8667	n/a	Yes	2.685	n/a	5.0	GoodResponse	1	0.019	146.682	4	14	Feedback	Win	True
149.118	2.685	Win2	0.8667	n/a	Yes	2.685	n/a	n/a	GoodResponse	1	0.0	n/a	4	14	ISIslide	Win	True
151.826	0.25	Control	0.875	0.0	Yes	2.974	0.026	n/a	GoodResponse	0	n/a	n/a	4	15	Cue	Neutral	True
152.077	4.0	Control	0.875	0.0	Yes	2.974	0.001	n/a	GoodResponse	0	n/a	n/a	4	15	Fixation	Neutral	True
156.072	0.25	Control	0.875	0.004	Yes	2.974	-0.004	4.0	GoodResponse	0	0.241	155.313	4	15	Target	Neutral	True
156.313	0.3	Control	0.875	0.004	Yes	2.974	-0.004	4.0	GoodResponse	0	0.241	n/a	4	15	ButtonPress	Neutral	True
156.323	0.45	Control	0.875	n/a	Yes	2.974	n/a	n/a	GoodResponse	0	n/a	n/a	4	15	Blank	Neutral	True
156.774	1.45	Control	0.875	n/a	Yes	2.974	n/a	5.0	GoodResponse	0	0.03	155.804	4	15	Feedback	Neutral	True
158.228	2.974	Control	0.875	n/a	Yes	2.974	n/a	n/a	GoodResponse	0	0.0	n/a	4	15	ISIslide	Neutral	True
161.221	0.25	Win2	0.8824	0.0	Yes	2.879	0.021	n/a	GoodResponse	1	n/a	n/a	5	16	Cue	Win	True
161.471	4.0	Win2	0.8824	0.0	Yes	2.879	0.0	n/a	GoodResponse	1	n/a	n/a	5	16	Fixation	Win	True
165.467	0.24	Win2	0.8824	0.004	Yes	2.879	-0.004	4.0	GoodResponse	1	0.173	164.64	5	16	Target	Win	True
165.64	0.3	Win2	0.8824	0.004	Yes	2.879	-0.004	4.0	GoodResponse	1	0.173	n/a	5	16	ButtonPress	Win	True
165.717	0.46	Win2	0.8824	n/a	Yes	2.879	n/a	n/a	GoodResponse	1	n/a	n/a	5	16	Blank	Win	True
166.169	1.45	Win2	0.8824	n/a	Yes	2.879	n/a	5.0	GoodResponse	1	0.0	165.169	5	16	Feedback	Win	True
167.623	2.879	Win2	0.8824	n/a	Yes	2.879	n/a	n/a	GoodResponse	1	0.0	n/a	5	16	ISIslide	Win	True
170.515	0.25	Lose2	0.8889	0.0	Yes	2.735	0.015	n/a	GoodResponse	0	n/a	n/a	5	17	Cue	AvoidedLoss	True
170.766	3.95	Lose2	0.8889	0.0	Yes	2.735	0.001	n/a	GoodResponse	0	n/a	n/a	5	17	Fixation	AvoidedLoss	True
174.711	0.23	Lose2	0.8889	0.004	Yes	2.735	-0.004	4.0	GoodResponse	0	0.197	173.908	5	17	Target	AvoidedLoss	True
174.908	0.3	Lose2	0.8889	0.004	Yes	2.735	-0.004	4.0	GoodResponse	0	0.197	n/a	5	17	ButtonPress	AvoidedLoss	True
174.945	0.47	Lose2	0.8889	n/a	Yes	2.735	n/a	n/a	GoodResponse	0	n/a	n/a	5	17	Blank	AvoidedLoss	True
175.413	1.45	Lose2	0.8889	n/a	Yes	2.735	n/a	5.0	GoodResponse	0	0.024	174.437	5	17	Feedback	AvoidedLoss	True
176.868	2.735	Lose2	0.8889	n/a	Yes	2.735	n/a	n/a	GoodResponse	0	0.0	n/a	5	17	ISIslide	AvoidedLoss	True
179.626	0.25	Lose2	0.8421	0.0	No	2.724	0.026	n/a	NoResponse	-1	n/a	n/a	4	18	Cue	Loss	True
179.877	4.05	Lose2	0.8421	0.0	No	2.724	0.001	n/a	NoResponse	-1	n/a	n/a	4	18	Fixation	Loss	True
183.922	0.22	Lose2	0.8421	0.004	No	2.724	-0.004	4.0	NoResponse	-1	0.264	183.186	4	18	Target	Loss	True
184.156	0.48	Lose2	0.8421	n/a	No	2.724	n/a	n/a	NoResponse	-1	n/a	n/a	4	18	Blank	Loss	True
184.186	0.3	Lose2	0.8421	0.004	No	2.724	-0.004	4.0	NoResponse	-1	0.264	n/a	4	18	ButtonPress	Loss	True
184.624	1.45	Lose2	0.8421	n/a	No	2.724	n/a	5.0	NoResponse	-1	0.033	183.657	4	18	Feedback	Loss	True
186.079	2.724	Lose2	0.8421	n/a	No	2.724	n/a	n/a	NoResponse	-1	0.0	n/a	4	18	ISIslide	Loss	True
188.82	0.25	Control	0.8	0.0	No	2.93	0.02	n/a	NoResponse	0	n/a	n/a	4	19	Cue	Neutral	True
189.071	3.95	Control	0.8	0.0	No	2.93	0.001	4.0	NoResponse	0	3.126	191.197	4	19	Fixation	Neutral	True
192.197	0.3	Control	0.8	0.0	No	2.93	0.001	4.0	NoResponse	0	3.126	n/a	4	19	ButtonPress	Neutral	True
193.016	0.21	Control	0.8	0.004	No	2.93	-0.004	n/a	NoResponse	0	n/a	n/a	4	19	Target	Neutral	True
193.233	0.49	Control	0.8	n/a	No	2.93	n/a	n/a	NoResponse	0	n/a	n/a	4	19	Blank	Neutral	True
193.718	1.45	Control	0.8	n/a	No	2.93	n/a	5.0	NoResponse	0	0.012	192.73	4	19	Feedback	Neutral	True
195.172	2.93	Control	0.8	n/a	No	2.93	n/a	n/a	NoResponse	0	0.0	n/a	4	19	ISIslide	Neutral	True
198.115	0.25	Control	0.7619	0.0	No	2.635	0.015	n/a	NoResponse	0	n/a	n/a	4	20	Cue	Neutral	True
198.365	4.05	Control	0.7619	0.0	No	2.635	0.0	n/a	NoResponse	0	n/a	n/a	4	20	Fixation	Neutral	True
202.411	0.2	Control	0.7619	0.004	No	2.635	-0.004	4.0	NoResponse	0	0.31	201.721	4	20	Target	Neutral	True
202.611	0.5	Control	0.7619	n/a	No	2.635	n/a	n/a	NoResponse	0	n/a	n/a	4	20	Blank	Neutral	True
202.721	0.3	Control	0.7619	0.004	No	2.635	-0.004	4.0	NoResponse	0	0.31	n/a	4	20	ButtonPress	Neutral	True
203.113	1.45	Control	0.7619	n/a	No	2.635	n/a	5.0	NoResponse	0	0.032	202.145	4	20	Feedback	Neutral	True
204.567	2.635	Control	0.7619	n/a	No	2.635	n/a	n/a	NoResponse	0	0.0	n/a	4	20	ISIslide	Neutral	True
207.225	0.25	Control	0.7273000000000001	0.0	No	2.775	0.025	n/a	NoResponse	0	n/a	n/a	4	21	Cue	Neutral	False
207.476	4.1	Control	0.7273000000000001	0.0	No	2.775	0.001	4.0	NoResponse	0	3.553	210.029	4	21	Fixation	Neutral	False
211.029	0.3	Control	0.7273000000000001	0.0	No	2.775	0.001	4.0	NoResponse	0	3.553	n/a	4	21	ButtonPress	Neutral	False
211.572	0.19	Control	0.7273000000000001	0.003	No	2.775	-0.003	4.0	NoResponse	0	0.263	210.835	4	21	Target	Neutral	False
211.772	0.51	Control	0.7273000000000001	n/a	No	2.775	n/a	n/a	NoResponse	0	n/a	n/a	4	21	Blank	Neutral	False
211.835	0.3	Control	0.7273000000000001	0.003	No	2.775	-0.003	4.0	NoResponse	0	0.263	n/a	4	21	ButtonPress	Neutral	False
212.274	1.45	Control	0.7273000000000001	n/a	No	2.775	n/a	5.0	NoResponse	0	0.042	211.316	4	21	Feedback	Neutral	False
213.728	2.775	Control	0.7273000000000001	n/a	No	2.775	n/a	n/a	NoResponse	0	0.0	n/a	4	21	ISIslide	Neutral	False
216.52	0.25	Control	0.7391	0.0	Yes	2.78	0.02	n/a	GoodResponse	0	n/a	n/a	4	22	Cue	Neutral	True
216.771	4.0	Control	0.7391	0.0	Yes	2.78	0.001	n/a	GoodResponse	0	n/a	n/a	4	22	Fixation	Neutral	True
220.766	0.18	Control	0.7391	0.004	Yes	2.78	-0.004	4.0	GoodResponse	0	0.126	219.892	4	22	Target	Neutral	True
220.892	0.3	Control	0.7391	0.004	Yes	2.78	-0.004	4.0	GoodResponse	0	0.126	n/a	4	22	ButtonPress	Neutral	True
220.95	0.52	Control	0.7391	n/a	Yes	2.78	n/a	n/a	GoodResponse	0	n/a	n/a	4	22	Blank	Neutral	True
221.468	1.45	Control	0.7391	n/a	Yes	2.78	n/a	5.0	GoodResponse	0	0.019	220.487	4	22	Feedback	Neutral	True
222.922	2.78	Control	0.7391	n/a	Yes	2.78	n/a	n/a	GoodResponse	0	0.0	n/a	4	22	ISIslide	Neutral	True
225.714	0.25	Control	0.7082999999999999	0.0	No	2.786	0.014	n/a	NoResponse	0	n/a	n/a	4	23	Cue	Neutral	True
225.965	3.9	Control	0.7082999999999999	0.0	No	2.786	0.001	n/a	NoResponse	0	n/a	n/a	4	23	Fixation	Neutral	True
229.86	0.17	Control	0.7082999999999999	0.004	No	2.786	-0.004	4.0	NoResponse	0	0.286	229.146	4	23	Target	Neutral	True
230.044	0.53	Control	0.7082999999999999	n/a	No	2.786	n/a	n/a	NoResponse	0	n/a	n/a	4	23	Blank	Neutral	True
230.146	0.3	Control	0.7082999999999999	0.004	No	2.786	-0.004	4.0	NoResponse	0	0.286	n/a	4	23	ButtonPress	Neutral	True
230.562	1.45	Control	0.7082999999999999	n/a	No	2.786	n/a	5.0	NoResponse	0	0.047	229.609	4	23	Feedback	Neutral	True
232.016	2.786	Control	0.7082999999999999	n/a	No	2.786	n/a	n/a	NoResponse	0	0.0	n/a	4	23	ISIslide	Neutral	True
234.825	0.25	Win2	0.68	0.0	No	3.125	0.025	n/a	NoResponse	0	n/a	n/a	4	24	Cue	MissedWin	True
235.076	3.95	Win2	0.68	0.0	No	3.125	0.001	n/a	NoResponse	0	n/a	n/a	4	24	Fixation	MissedWin	True
239.021	0.16	Win2	0.68	0.004	No	3.125	-0.004	4.0	NoResponse	0	0.214	238.235	4	24	Target	MissedWin	True
239.188	0.54	Win2	0.68	n/a	No	3.125	n/a	n/a	NoResponse	0	n/a	n/a	4	24	Blank	MissedWin	True
239.235	0.3	Win2	0.68	0.004	No	3.125	-0.004	4.0	NoResponse	0	0.214	n/a	4	24	ButtonPress	MissedWin	True
239.723	1.45	Win2	0.68	n/a	No	3.125	n/a	5.0	NoResponse	0	0.007	238.73	4	24	Feedback	MissedWin	True
241.177	3.125	Win2	0.68	n/a	No	3.125	n/a	n/a	NoResponse	0	0.0	n/a	4	24	ISIslide	MissedWin	True
244.32	0.25	Win2	0.6537999999999999	0.0	No	3.08	0.02	n/a	NoResponse	0	n/a	n/a	4	25	Cue	MissedWin	False
244.571	4.0	Win2	0.6537999999999999	0.0	No	3.08	0.001	4.0	NoResponse	0	1.713	245.284	4	25	Fixation	MissedWin	False
246.284	0.3	Win2	0.6537999999999999	0.0	No	3.08	0.001	4.0	NoResponse	0	1.713	n/a	4	25	ButtonPress	MissedWin	False
248.566	0.15	Win2	0.6537999999999999	0.004	No	3.08	-0.004	4.0	NoResponse	0	0.244	247.81	4	25	Target	MissedWin	False
248.716	0.55	Win2	0.6537999999999999	n/a	No	3.08	n/a	n/a	NoResponse	0	n/a	n/a	4	25	Blank	MissedWin	False
248.81	0.3	Win2	0.6537999999999999	0.004	No	3.08	-0.004	4.0	NoResponse	0	0.244	n/a	4	25	ButtonPress	MissedWin	False
249.268	1.45	Win2	0.6537999999999999	n/a	No	3.08	n/a	5.0	NoResponse	0	0.023	248.291	4	25	Feedback	MissedWin	False
250.722	3.08	Win2	0.6537999999999999	n/a	No	3.08	n/a	n/a	NoResponse	0	0.0	n/a	4	25	ISIslide	MissedWin	False
253.815	0.25	Win2	0.6296	0.0	No	2.935	0.015	n/a	NoResponse	0	n/a	n/a	4	26	Cue	MissedWin	True
254.066	3.95	Win2	0.6296	0.0	No	2.935	0.001	n/a	NoResponse	0	n/a	n/a	4	26	Fixation	MissedWin	True
258.011	0.16	Win2	0.6296	0.004	No	2.935	-0.004	4.0	NoResponse	0	0.179	257.19	4	26	Target	MissedWin	True
258.178	0.54	Win2	0.6296	n/a	No	2.935	n/a	n/a	NoResponse	0	n/a	n/a	4	26	Blank	MissedWin	True
258.19	0.3	Win2	0.6296	0.004	No	2.935	-0.004	4.0	NoResponse	0	0.179	n/a	4	26	ButtonPress	MissedWin	True
258.713	1.45	Win2	0.6296	n/a	No	2.935	n/a	5.0	NoResponse	0	0.041	257.754	4	26	Feedback	MissedWin	True
260.167	2.935	Win2	0.6296	n/a	No	2.935	n/a	n/a	NoResponse	0	0.0	n/a	4	26	ISIslide	MissedWin	True
263.126	0.25	Lose2	0.6071	0.0	No	2.824	0.026	n/a	NoResponse	-1	n/a	n/a	3	27	Cue	Loss	False
263.377	4.05	Lose2	0.6071	0.0	No	2.824	0.001	4.0	NoResponse	-1	3.103	265.48	3	27	Fixation	Loss	False
266.48	0.3	Lose2	0.6071	0.0	No	2.824	0.001	4.0	NoResponse	-1	3.103	n/a	3	27	ButtonPress	Loss	False
267.423	0.17	Lose2	0.6071	0.003	No	2.824	-0.003	4.0	NoResponse	-1	0.275	266.698	3	27	Target	Loss	False
267.606	0.53	Lose2	0.6071	n/a	No	2.824	n/a	n/a	NoResponse	-1	n/a	n/a	3	27	Blank	Loss	False
267.698	0.3	Lose2	0.6071	0.003	No	2.824	-0.003	4.0	NoResponse	-1	0.275	n/a	3	27	ButtonPress	Loss	False
268.125	1.45	Lose2	0.6071	n/a	No	2.824	n/a	5.0	NoResponse	-1	0.044	267.169	3	27	Feedback	Loss	False
269.579	2.824	Lose2	0.6071	n/a	No	2.824	n/a	n/a	NoResponse	-1	0.0	n/a	3	27	ISIslide	Loss	False
272.421	0.25	Control	0.5861999999999999	0.0	No	2.829	0.021	n/a	NoResponse	0	n/a	n/a	3	28	Cue	Neutral	True
272.672	4.05	Control	0.5861999999999999	0.0	No	2.829	0.001	n/a	NoResponse	0	n/a	n/a	3	28	Fixation	Neutral	True
276.717	0.18	Control	0.5861999999999999	0.004	No	2.829	-0.004	4.0	NoResponse	0	0.209	275.926	3	28	Target	Neutral	True
276.901	0.52	Control	0.5861999999999999	n/a	No	2.829	n/a	n/a	NoResponse	0	n/a	n/a	3	28	Blank	Neutral	True
276.926	0.3	Control	0.5861999999999999	0.004	No	2.829	-0.004	4.0	NoResponse	0	0.209	n/a	3	28	ButtonPress	Neutral	True
277.419	1.45	Control	0.5861999999999999	n/a	No	2.829	n/a	5.0	NoResponse	0	0.019	276.438	3	28	Feedback	Neutral	True
278.874	2.829	Control	0.5861999999999999	n/a	No	2.829	n/a	n/a	NoResponse	0	0.0	n/a	3	28	ISIslide	Neutral	True
281.715	0.25	Lose2	0.5667	0.0	No	2.835	0.015	n/a	NoResponse	-1	n/a	n/a	2	29	Cue	Loss	False
281.966	3.95	Lose2	0.5667	0.0	No	2.835	0.001	4.0	NoResponse	-1	3.261	284.227	2	29	Fixation	Loss	False
285.227	0.3	Lose2	0.5667	0.0	No	2.835	0.001	4.0	NoResponse	-1	3.261	n/a	2	29	ButtonPress	Loss	False
285.911	0.19	Lose2	0.5667	0.004	No	2.835	-0.004	4.0	NoResponse	-1	0.239	285.15	2	29	Target	Loss	False
286.112	0.51	Lose2	0.5667	n/a	No	2.835	n/a	n/a	NoResponse	-1	n/a	n/a	2	29	Blank	Loss	False
286.15	0.3	Lose2	0.5667	0.004	No	2.835	-0.004	4.0	NoResponse	-1	0.239	n/a	2	29	ButtonPress	Loss	False
286.613	1.45	Lose2	0.5667	n/a	No	2.835	n/a	5.0	NoResponse	-1	0.044	285.657	2	29	Feedback	Loss	False
288.068	2.835	Lose2	0.5667	n/a	No	2.835	n/a	n/a	NoResponse	-1	0.0	n/a	2	29	ISIslide	Loss	False
290.926	0.25	Win2	0.5484	0.0	No	2.774	0.026	n/a	NoResponse	0	n/a	n/a	2	30	Cue	MissedWin	True
291.177	3.9	Win2	0.5484	0.0	No	2.774	0.001	n/a	NoResponse	0	n/a	n/a	2	30	Fixation	MissedWin	True
295.072	0.2	Win2	0.5484	0.004	No	2.774	-0.004	4.0	NoResponse	0	0.226	294.298	2	30	Target	MissedWin	True
295.273	0.5	Win2	0.5484	n/a	No	2.774	n/a	n/a	NoResponse	0	n/a	n/a	2	30	Blank	MissedWin	True
295.298	0.3	Win2	0.5484	0.004	No	2.774	-0.004	4.0	NoResponse	0	0.226	n/a	2	30	ButtonPress	MissedWin	True
295.774	1.45	Win2	0.5484	n/a	No	2.774	n/a	5.0	NoResponse	0	0.005	294.779	2	30	Feedback	MissedWin	True
297.229	2.774	Win2	0.5484	n/a	No	2.774	n/a	n/a	NoResponse	0	0.0	n/a	2	30	ISIslide	MissedWin	True
300.02	0.25	Lose2	0.5312	0.0	No	2.83	0.02	n/a	NoResponse	-1	n/a	n/a	1	31	Cue	Loss	True
300.271	4.05	Lose2	0.5312	0.0	No	2.83	0.001	n/a	NoResponse	-1	n/a	n/a	1	31	Fixation	Loss	True
304.317	0.21	Lose2	0.5312	0.003	No	2.83	-0.003	4.0	NoResponse	-1	0.287	303.604	1	31	Target	Loss	True
304.534	0.49	Lose2	0.5312	n/a	No	2.83	n/a	n/a	NoResponse	-1	n/a	n/a	1	31	Blank	Loss	True
304.604	0.3	Lose2	0.5312	0.003	No	2.83	-0.003	4.0	NoResponse	-1	0.287	n/a	1	31	ButtonPress	Loss	True
305.019	1.45	Lose2	0.5312	n/a	No	2.83	n/a	5.0	NoResponse	-1	0.029	304.048	1	31	Feedback	Loss	True
306.473	2.83	Lose2	0.5312	n/a	No	2.83	n/a	n/a	NoResponse	-1	0.0	n/a	1	31	ISIslide	Loss	True
309.315	0.25	Lose2	0.5455	0.0	Yes	2.635	0.015	n/a	GoodResponse	0	n/a	n/a	1	32	Cue	AvoidedLoss	True
309.566	4.15	Lose2	0.5455	0.0	Yes	2.635	0.001	n/a	GoodResponse	0	n/a	n/a	1	32	Fixation	AvoidedLoss	True
313.711	0.22	Lose2	0.5455	0.004	Yes	2.635	-0.004	4.0	GoodResponse	0	0.213	312.924	1	32	Target	AvoidedLoss	True
313.924	0.3	Lose2	0.5455	0.004	Yes	2.635	-0.004	4.0	GoodResponse	0	0.213	n/a	1	32	ButtonPress	AvoidedLoss	True
313.945	0.48	Lose2	0.5455	n/a	Yes	2.635	n/a	n/a	GoodResponse	0	n/a	n/a	1	32	Blank	AvoidedLoss	True
314.414	1.45	Lose2	0.5455	n/a	Yes	2.635	n/a	5.0	GoodResponse	0	0.047	313.461	1	32	Feedback	AvoidedLoss	True
315.868	2.635	Lose2	0.5455	n/a	Yes	2.635	n/a	n/a	GoodResponse	0	0.0	n/a	1	32	ISIslide	AvoidedLoss	True
318.526	0.25	Win2	0.5588000000000001	0.0	Yes	2.674	0.026	n/a	GoodResponse	1	n/a	n/a	2	33	Cue	Win	True
318.777	4.0	Win2	0.5588000000000001	0.0	Yes	2.674	0.001	n/a	GoodResponse	1	n/a	n/a	2	33	Fixation	Win	True
322.772	0.23	Win2	0.5588000000000001	0.004	Yes	2.674	-0.004	4.0	GoodResponse	1	0.192	321.964	2	33	Target	Win	True
322.964	0.3	Win2	0.5588000000000001	0.004	Yes	2.674	-0.004	4.0	GoodResponse	1	0.192	n/a	2	33	ButtonPress	Win	True
323.006	0.47	Win2	0.5588000000000001	n/a	Yes	2.674	n/a	n/a	GoodResponse	1	n/a	n/a	2	33	Blank	Win	True
323.474	1.45	Win2	0.5588000000000001	n/a	Yes	2.674	n/a	5.0	GoodResponse	1	0.012	322.486	2	33	Feedback	Win	True
324.928	2.674	Win2	0.5588000000000001	n/a	Yes	2.674	n/a	n/a	GoodResponse	1	0.0	n/a	2	33	ISIslide	Win	True
327.62	0.25	Lose2	0.5428999999999999	0.0	No	2.63	0.02	n/a	NoResponse	-1	n/a	n/a	1	34	Cue	Loss	True
327.871	4.05	Lose2	0.5428999999999999	0.0	No	2.63	0.001	4.0	NoResponse	-1	4.011	330.882	1	34	Fixation	Loss	True
331.882	0.3	Lose2	0.5428999999999999	0.0	No	2.63	0.001	4.0	NoResponse	-1	4.011	n/a	1	34	ButtonPress	Loss	True
331.916	0.24	Lose2	0.5428999999999999	0.004	No	2.63	-0.004	n/a	NoResponse	-1	n/a	n/a	1	34	Target	Loss	True
332.167	0.46	Lose2	0.5428999999999999	n/a	No	2.63	n/a	n/a	NoResponse	-1	n/a	n/a	1	34	Blank	Loss	True
332.618	1.45	Lose2	0.5428999999999999	n/a	No	2.63	n/a	5.0	NoResponse	-1	0.039	331.657	1	34	Feedback	Loss	True
334.072	2.63	Lose2	0.5428999999999999	n/a	No	2.63	n/a	n/a	NoResponse	-1	0.0	n/a	1	34	ISIslide	Loss	True
336.714	0.25	Lose2	0.5278	0.0	No	2.686	0.014	n/a	NoResponse	-1	n/a	n/a	0	35	Cue	Loss	True
336.964	4.0	Lose2	0.5278	0.001	No	2.686	0.0	n/a	NoResponse	-1	n/a	n/a	0	35	Fixation	Loss	True
340.96	0.25	Lose2	0.5278	0.004	No	2.686	-0.004	4.0	NoResponse	-1	0.268	340.228	0	35	Target	Loss	True
341.211	0.45	Lose2	0.5278	n/a	No	2.686	n/a	n/a	NoResponse	-1	n/a	n/a	0	35	Blank	Loss	True
341.228	0.3	Lose2	0.5278	0.004	No	2.686	-0.004	4.0	NoResponse	-1	0.268	n/a	0	35	ButtonPress	Loss	True
341.662	1.45	Lose2	0.5278	n/a	No	2.686	n/a	5.0	NoResponse	-1	0.019	340.681	0	35	Feedback	Loss	True
343.116	2.686	Lose2	0.5278	n/a	No	2.686	n/a	n/a	NoResponse	-1	0.0	n/a	0	35	ISIslide	Loss	True
345.824	0.25	Control	0.5405	0.0	Yes	2.676	0.024	n/a	GoodResponse	0	n/a	n/a	0	36	Cue	Neutral	True
346.075	4.0	Control	0.5405	0.0	Yes	2.676	0.001	n/a	GoodResponse	0	n/a	n/a	0	36	Fixation	Neutral	True
350.07	0.26	Control	0.5405	0.004	Yes	2.676	-0.004	4.0	GoodResponse	0	0.228	349.298	0	36	Target	Neutral	True
350.298	0.3	Control	0.5405	0.004	Yes	2.676	-0.004	4.0	GoodResponse	0	0.228	n/a	0	36	ButtonPress	Neutral	True
350.338	0.44	Control	0.5405	n/a	Yes	2.676	n/a	n/a	GoodResponse	0	n/a	n/a	0	36	Blank	Neutral	True
350.773	1.45	Control	0.5405	n/a	Yes	2.676	n/a	5.0	GoodResponse	0	0.03	349.803	0	36	Feedback	Neutral	True
352.227	2.676	Control	0.5405	n/a	Yes	2.676	n/a	n/a	GoodResponse	0	0.0	n/a	0	36	ISIslide	Neutral	True
354.918	0.25	Win2	0.5526	0.0	Yes	2.882	0.018	n/a	GoodResponse	1	n/a	n/a	1	37	Cue	Win	True
355.169	4.0	Win2	0.5526	0.0	Yes	2.882	0.001	n/a	GoodResponse	1	n/a	n/a	1	37	Fixation	Win	True
359.164	0.27	Win2	0.5526	0.004	Yes	2.882	-0.004	4.0	GoodResponse	1	0.222	358.386	1	37	Target	Win	True
359.386	0.3	Win2	0.5526	0.004	Yes	2.882	-0.004	4.0	GoodResponse	1	0.222	n/a	1	37	ButtonPress	Win	True
359.449	0.43	Win2	0.5526	n/a	Yes	2.882	n/a	n/a	GoodResponse	1	n/a	n/a	1	37	Blank	Win	True
359.867	1.45	Win2	0.5526	n/a	Yes	2.882	n/a	5.0	GoodResponse	1	0.009	358.876	1	37	Feedback	Win	True
361.321	2.882	Win2	0.5526	n/a	Yes	2.882	n/a	n/a	GoodResponse	1	0.0	n/a	1	37	ISIslide	Win	True
364.23	0.25	Lose2	0.5640999999999999	0.0	Yes	2.82	0.03	n/a	GoodResponse	0	n/a	n/a	1	38	Cue	AvoidedLoss	False
364.48	3.95	Lose2	0.5640999999999999	0.0	Yes	2.82	0.0	4.0	GoodResponse	0	3.489	366.969	1	38	Fixation	AvoidedLoss	False
367.969	0.3	Lose2	0.5640999999999999	0.0	Yes	2.82	0.0	4.0	GoodResponse	0	3.489	n/a	1	38	ButtonPress	AvoidedLoss	False
368.426	0.28	Lose2	0.5640999999999999	0.004	Yes	2.82	-0.004	4.0	GoodResponse	0	0.189	367.615	1	38	Target	AvoidedLoss	False
368.615	0.3	Lose2	0.5640999999999999	0.004	Yes	2.82	-0.004	4.0	GoodResponse	0	0.189	n/a	1	38	ButtonPress	AvoidedLoss	False
368.71	0.42	Lose2	0.5640999999999999	n/a	Yes	2.82	n/a	n/a	GoodResponse	0	n/a	n/a	1	38	Blank	AvoidedLoss	False
369.128	1.45	Lose2	0.5640999999999999	n/a	Yes	2.82	n/a	5.0	GoodResponse	0	0.017	368.145	1	38	Feedback	AvoidedLoss	False
370.582	2.82	Lose2	0.5640999999999999	n/a	Yes	2.82	n/a	n/a	GoodResponse	0	0.0	n/a	1	38	ISIslide	AvoidedLoss	False
373.424	0.25	Win2	0.55	0.0	No	2.976	0.024	n/a	NoResponse	0	n/a	n/a	1	39	Cue	MissedWin	False
373.675	4.1	Win2	0.55	0.0	No	2.976	0.001	4.0	NoResponse	0	3.555	376.23	1	39	Fixation	MissedWin	False
377.23	0.3	Win2	0.55	0.0	No	2.976	0.001	4.0	NoResponse	0	3.555	n/a	1	39	ButtonPress	MissedWin	False
377.77	0.29	Win2	0.55	0.004	No	2.976	-0.004	4.0	NoResponse	0	0.386	377.156	1	39	Target	MissedWin	False
378.071	0.41	Win2	0.55	n/a	No	2.976	n/a	n/a	NoResponse	0	n/a	n/a	1	39	Blank	MissedWin	False
378.156	0.3	Win2	0.55	0.004	No	2.976	-0.004	4.0	NoResponse	0	0.386	n/a	1	39	ButtonPress	MissedWin	False
378.472	1.45	Win2	0.55	n/a	No	2.976	n/a	5.0	NoResponse	0	0.039	377.511	1	39	Feedback	MissedWin	False
379.927	2.976	Win2	0.55	n/a	No	2.976	n/a	n/a	NoResponse	0	0.0	n/a	1	39	ISIslide	MissedWin	False
382.919	0.25	Win2	0.561	0.0	Yes	2.731	0.019	n/a	GoodResponse	1	n/a	n/a	2	40	Cue	Win	True
383.17	3.95	Win2	0.561	0.0	Yes	2.731	0.001	n/a	GoodResponse	1	n/a	n/a	2	40	Fixation	Win	True
387.115	0.3	Win2	0.561	0.004	Yes	2.731	-0.004	4.0	GoodResponse	1	0.233	386.348	2	40	Target	Win	True
387.348	0.3	Win2	0.561	0.004	Yes	2.731	-0.004	4.0	GoodResponse	1	0.233	n/a	2	40	ButtonPress	Win	True
387.416	0.4	Win2	0.561	n/a	Yes	2.731	n/a	n/a	GoodResponse	1	n/a	n/a	2	40	Blank	Win	True
387.817	1.45	Win2	0.561	n/a	Yes	2.731	n/a	5.0	GoodResponse	1	0.01	386.827	2	40	Feedback	Win	True
389.271	2.731	Win2	0.561	n/a	Yes	2.731	n/a	n/a	GoodResponse	1	0.0	n/a	2	40	ISIslide	Win	True
392.03	0.25	Win2	0.5714	0.0	Yes	2.77	0.03	n/a	GoodResponse	1	n/a	n/a	3	41	Cue	Win	True
392.28	3.9	Win2	0.5714	0.0	Yes	2.77	0.0	n/a	GoodResponse	1	n/a	n/a	3	41	Fixation	Win	True
396.192	0.31	Win2	0.5714	0.0	Yes	2.77	0.012	4.0	GoodResponse	1	0.241	395.433	3	41	Target	Win	True
396.433	0.3	Win2	0.5714	0.0	Yes	2.77	0.012	4.0	GoodResponse	1	0.241	n/a	3	41	ButtonPress	Win	True
396.493	0.39	Win2	0.5714	n/a	Yes	2.77	n/a	n/a	GoodResponse	1	n/a	n/a	3	41	Blank	Win	True
396.878	1.45	Win2	0.5714	n/a	Yes	2.77	n/a	5.0	GoodResponse	1	0.022	395.9	3	41	Feedback	Win	True
398.332	2.77	Win2	0.5714	n/a	Yes	2.77	n/a	n/a	GoodResponse	1	0.0	n/a	3	41	ISIslide	Win	True
401.124	0.25	Control	0.5814	0.0	Yes	2.926	0.024	n/a	GoodResponse	0	n/a	n/a	3	42	Cue	Neutral	True
401.374	3.85	Control	0.5814	0.0	Yes	2.926	0.0	n/a	GoodResponse	0	n/a	n/a	3	42	Fixation	Neutral	True
405.236	0.32	Control	0.5814	0.0	Yes	2.926	0.012	4.0	GoodResponse	0	0.202	404.438	3	42	Target	Neutral	True
405.438	0.3	Control	0.5814	0.0	Yes	2.926	0.012	4.0	GoodResponse	0	0.202	n/a	3	42	ButtonPress	Neutral	True
405.554	0.38	Control	0.5814	n/a	Yes	2.926	n/a	n/a	GoodResponse	0	n/a	n/a	3	42	Blank	Neutral	True
405.921	1.45	Control	0.5814	n/a	Yes	2.926	n/a	5.0	GoodResponse	0	0.005	404.926	3	42	Feedback	Neutral	True
407.376	2.926	Control	0.5814	n/a	Yes	2.926	n/a	n/a	GoodResponse	0	0.0	n/a	3	42	ISIslide	Neutral	True
410.318	0.25	Win2	0.5909	0.0	Yes	3.182	0.018	n/a	GoodResponse	1	n/a	n/a	4	43	Cue	Win	True
410.569	4.0	Win2	0.5909	0.0	Yes	3.182	0.001	n/a	GoodResponse	1	n/a	n/a	4	43	Fixation	Win	True
414.564	0.33	Win2	0.5909	0.004	Yes	3.182	-0.004	4.0	GoodResponse	1	0.257	413.821	4	43	Target	Win	True
414.821	0.3	Win2	0.5909	0.004	Yes	3.182	-0.004	4.0	GoodResponse	1	0.257	n/a	4	43	ButtonPress	Win	True
414.898	0.37	Win2	0.5909	n/a	Yes	3.182	n/a	n/a	GoodResponse	1	n/a	n/a	4	43	Blank	Win	True
415.266	1.45	Win2	0.5909	n/a	Yes	3.182	n/a	5.0	GoodResponse	1	0.025	414.291	4	43	Feedback	Win	True
416.72	3.182	Win2	0.5909	n/a	Yes	3.182	n/a	n/a	GoodResponse	1	0.0	n/a	4	43	ISIslide	Win	True
419.913	0.25	Win2	0.6	0.0	Yes	2.987	0.013	n/a	GoodResponse	1	n/a	n/a	5	44	Cue	Win	True
420.164	4.0	Win2	0.6	0.0	Yes	2.987	0.001	n/a	GoodResponse	1	n/a	n/a	5	44	Fixation	Win	True
424.159	0.34	Win2	0.6	0.004	Yes	2.987	-0.004	4.0	GoodResponse	1	0.226	423.385	5	44	Target	Win	True
424.385	0.3	Win2	0.6	0.004	Yes	2.987	-0.004	4.0	GoodResponse	1	0.226	n/a	5	44	ButtonPress	Win	True
424.51	0.36	Win2	0.6	n/a	Yes	2.987	n/a	n/a	GoodResponse	1	n/a	n/a	5	44	Blank	Win	True
424.861	1.45	Win2	0.6	n/a	Yes	2.987	n/a	5.0	GoodResponse	1	0.04	423.901	5	44	Feedback	Win	True
426.316	2.987	Win2	0.6	n/a	Yes	2.987	n/a	n/a	GoodResponse	1	0.0	n/a	5	44	ISIslide	Win	True
429.325	0.25	Control	0.6087	0.0	Yes	2.875	0.025	n/a	GoodResponse	0	n/a	n/a	5	45	Cue	Neutral	True
429.576	4.1	Control	0.6087	0.0	Yes	2.875	0.001	n/a	GoodResponse	0	n/a	n/a	5	45	Fixation	Neutral	True
433.671	0.35	Control	0.6087	0.004	Yes	2.875	-0.004	4.0	GoodResponse	0	0.217	432.888	5	45	Target	Neutral	True
433.888	0.3	Control	0.6087	0.004	Yes	2.875	-0.004	4.0	GoodResponse	0	0.217	n/a	5	45	ButtonPress	Neutral	True
434.022	0.35	Control	0.6087	n/a	Yes	2.875	n/a	n/a	GoodResponse	0	n/a	n/a	5	45	Blank	Neutral	True
434.373	1.45	Control	0.6087	n/a	Yes	2.875	n/a	5.0	GoodResponse	0	0.04	433.413	5	45	Feedback	Neutral	True
435.828	2.875	Control	0.6087	n/a	Yes	2.875	n/a	n/a	GoodResponse	0	0.0	n/a	5	45	ISIslide	Neutral	True
438.72	0.25	Lose2	0.617	0.0	Yes	3.38	0.02	n/a	GoodResponse	0	n/a	n/a	5	46	Cue	AvoidedLoss	True
438.97	4.0	Lose2	0.617	0.001	Yes	3.38	0.0	n/a	GoodResponse	0	n/a	n/a	5	46	Fixation	AvoidedLoss	True
442.966	0.36	Lose2	0.617	0.004	Yes	3.38	-0.004	4.0	GoodResponse	0	0.183	442.149	5	46	Target	AvoidedLoss	True
443.149	0.3	Lose2	0.617	0.004	Yes	3.38	-0.004	4.0	GoodResponse	0	0.183	n/a	5	46	ButtonPress	AvoidedLoss	True
443.334	0.34	Lose2	0.617	n/a	Yes	3.38	n/a	n/a	GoodResponse	0	n/a	n/a	5	46	Blank	AvoidedLoss	True
443.668	1.45	Lose2	0.617	n/a	Yes	3.38	n/a	5.0	GoodResponse	0	0.013	442.681	5	46	Feedback	AvoidedLoss	True
445.122	3.38	Lose2	0.617	n/a	Yes	3.38	n/a	n/a	GoodResponse	0	0.0	n/a	5	46	ISIslide	AvoidedLoss	True
448.516	0.25	Lose2	0.625	0.0	Yes	2.684	0.016	n/a	GoodResponse	0	n/a	n/a	5	47	Cue	AvoidedLoss	True
448.767	4.0	Lose2	0.625	0.0	Yes	2.684	0.001	n/a	GoodResponse	0	n/a	n/a	5	47	Fixation	AvoidedLoss	True
452.762	0.37	Lose2	0.625	0.004	Yes	2.684	-0.004	4.0	GoodResponse	0	0.24	452.002	5	47	Target	AvoidedLoss	True
453.002	0.3	Lose2	0.625	0.004	Yes	2.684	-0.004	4.0	GoodResponse	0	0.24	n/a	5	47	ButtonPress	AvoidedLoss	True
453.146	0.33	Lose2	0.625	n/a	Yes	2.684	n/a	n/a	GoodResponse	0	n/a	n/a	5	47	Blank	AvoidedLoss	True
453.464	1.45	Lose2	0.625	n/a	Yes	2.684	n/a	5.0	GoodResponse	0	0.022	452.486	5	47	Feedback	AvoidedLoss	True
454.918	2.684	Lose2	0.625	n/a	Yes	2.684	n/a	n/a	GoodResponse	0	0.0	n/a	5	47	ISIslide	AvoidedLoss	True
457.626	0.25	Lose2	0.6327	0.001	Yes	3.024	0.026	n/a	GoodResponse	0	n/a	n/a	5	48	Cue	AvoidedLoss	True
457.877	3.95	Lose2	0.6327	0.0	Yes	3.024	0.001	n/a	GoodResponse	0	n/a	n/a	5	48	Fixation	AvoidedLoss	True
461.822	0.38	Lose2	0.6327	0.004	Yes	3.024	-0.004	4.0	GoodResponse	0	0.258	461.08	5	48	Target	AvoidedLoss	True
462.08	0.3	Lose2	0.6327	0.004	Yes	3.024	-0.004	4.0	GoodResponse	0	0.258	n/a	5	48	ButtonPress	AvoidedLoss	True
462.207	0.32	Lose2	0.6327	n/a	Yes	3.024	n/a	n/a	GoodResponse	0	n/a	n/a	5	48	Blank	AvoidedLoss	True
462.524	1.45	Lose2	0.6327	n/a	Yes	3.024	n/a	5.0	GoodResponse	0	0.035	461.559	5	48	Feedback	AvoidedLoss	True
463.979	3.024	Lose2	0.6327	n/a	Yes	3.024	n/a	n/a	GoodResponse	0	0.0	n/a	5	48	ISIslide	AvoidedLoss	True
467.021	0.25	Control	0.64	0.0	Yes	2.879	0.021	n/a	GoodResponse	0	n/a	n/a	5	49	Cue	Neutral	True
467.272	4.0	Control	0.64	0.0	Yes	2.879	0.001	n/a	GoodResponse	0	n/a	n/a	5	49	Fixation	Neutral	True
471.267	0.39	Control	0.64	0.004	Yes	2.879	-0.004	4.0	GoodResponse	0	0.255	470.522	5	49	Target	Neutral	True
471.522	0.3	Control	0.64	0.004	Yes	2.879	-0.004	4.0	GoodResponse	0	0.255	n/a	5	49	ButtonPress	Neutral	True
471.669	0.31	Control	0.64	n/a	Yes	2.879	n/a	n/a	GoodResponse	0	n/a	n/a	5	49	Blank	Neutral	True
471.969	1.45	Control	0.64	n/a	Yes	2.879	n/a	5.0	GoodResponse	0	0.005	470.974	5	49	Feedback	Neutral	True
473.424	2.879	Control	0.64	n/a	Yes	2.879	n/a	n/a	GoodResponse	0	0.0	n/a	5	49	ISIslide	Neutral	True
476.316	0.25	Control	0.6470999999999999	0.0	Yes	2.784	0.016	n/a	GoodResponse	0	n/a	n/a	5	50	Cue	Neutral	True
476.567	4.0	Control	0.6470999999999999	0.0	Yes	2.784	0.001	n/a	GoodResponse	0	n/a	n/a	5	50	Fixation	Neutral	True
480.562	0.4	Control	0.6470999999999999	0.004	Yes	2.784	-0.004	4.0	GoodResponse	0	0.258	479.82	5	50	Target	Neutral	True
480.82	0.3	Control	0.6470999999999999	0.004	Yes	2.784	-0.004	4.0	GoodResponse	0	0.258	n/a	5	50	ButtonPress	Neutral	True
480.963	0.3	Control	0.6470999999999999	n/a	Yes	2.784	n/a	n/a	GoodResponse	0	n/a	n/a	5	50	Blank	Neutral	True
481.264	1.45	Control	0.6470999999999999	n/a	Yes	2.784	n/a	5.0	GoodResponse	0	0.026	480.29	5	50	Feedback	Neutral	True
482.718	2.784	Control	0.6470999999999999	n/a	Yes	2.784	n/a	n/a	GoodResponse	0	0.0	n/a	5	50	ISIslide	Neutral	True
485.527	0.25	Control	0.6537999999999999	0.0	Yes	2.723	0.027	n/a	GoodResponse	0	n/a	n/a	5	51	Cue	Neutral	True
485.778	3.95	Control	0.6537999999999999	0.0	Yes	2.723	0.001	n/a	GoodResponse	0	n/a	n/a	5	51	Fixation	Neutral	True
489.723	0.41	Control	0.6537999999999999	0.004	Yes	2.723	-0.004	4.0	GoodResponse	0	0.232	488.955	5	51	Target	Neutral	True
489.955	0.3	Control	0.6537999999999999	0.004	Yes	2.723	-0.004	4.0	GoodResponse	0	0.232	n/a	5	51	ButtonPress	Neutral	True
490.141	0.29	Control	0.6537999999999999	n/a	Yes	2.723	n/a	n/a	GoodResponse	0	n/a	n/a	5	51	Blank	Neutral	True
490.425	1.45	Control	0.6537999999999999	n/a	Yes	2.723	n/a	5.0	GoodResponse	0	0.036	489.461	5	51	Feedback	Neutral	True
491.879	2.723	Control	0.6537999999999999	n/a	Yes	2.723	n/a	n/a	GoodResponse	0	0.0	n/a	5	51	ISIslide	Neutral	True
494.621	0.25	Control	0.6604000000000001	0.0	Yes	2.629	0.021	n/a	GoodResponse	0	n/a	n/a	5	52	Cue	Neutral	True
494.872	4.05	Control	0.6604000000000001	0.0	Yes	2.629	0.001	n/a	GoodResponse	0	n/a	n/a	5	52	Fixation	Neutral	True
498.917	0.42	Control	0.6604000000000001	0.004	Yes	2.629	-0.004	4.0	GoodResponse	0	0.202	498.119	5	52	Target	Neutral	True
499.119	0.3	Control	0.6604000000000001	0.004	Yes	2.629	-0.004	4.0	GoodResponse	0	0.202	n/a	5	52	ButtonPress	Neutral	True
499.352	0.28	Control	0.6604000000000001	n/a	Yes	2.629	n/a	n/a	GoodResponse	0	n/a	n/a	5	52	Blank	Neutral	True
499.619	1.45	Control	0.6604000000000001	n/a	Yes	2.629	n/a	5.0	GoodResponse	0	0.013	498.632	5	52	Feedback	Neutral	True
501.073	2.629	Control	0.6604000000000001	n/a	Yes	2.629	n/a	n/a	GoodResponse	0	0.0	n/a	5	52	ISIslide	Neutral	True
503.715	0.25	Win2	0.6667000000000001	0.0	Yes	2.935	0.015	n/a	GoodResponse	1	n/a	n/a	6	53	Cue	Win	True
503.965	4.05	Win2	0.6667000000000001	0.001	Yes	2.935	0.0	n/a	GoodResponse	1	n/a	n/a	6	53	Fixation	Win	True
508.011	0.42	Win2	0.6667000000000001	0.004	Yes	2.935	-0.004	4.0	GoodResponse	1	0.197	507.208	6	53	Target	Win	True
508.208	0.3	Win2	0.6667000000000001	0.004	Yes	2.935	-0.004	4.0	GoodResponse	1	0.197	n/a	6	53	ButtonPress	Win	True
508.446	0.28	Win2	0.6667000000000001	n/a	Yes	2.935	n/a	n/a	GoodResponse	1	n/a	n/a	6	53	Blank	Win	True
508.713	1.45	Win2	0.6667000000000001	n/a	Yes	2.935	n/a	5.0	GoodResponse	1	0.041	507.754	6	53	Feedback	Win	True
510.167	2.935	Win2	0.6667000000000001	n/a	Yes	2.935	n/a	n/a	GoodResponse	1	0.0	n/a	6	53	ISIslide	Win	True
513.126	0.25	Win2	0.6727	0.0	Yes	2.724	0.026	n/a	GoodResponse	1	n/a	n/a	7	54	Cue	Win	True
513.377	3.95	Win2	0.6727	0.0	Yes	2.724	0.001	n/a	GoodResponse	1	n/a	n/a	7	54	Fixation	Win	True
517.322	0.41	Win2	0.6727	0.004	Yes	2.724	-0.004	4.0	GoodResponse	1	0.224	516.546	7	54	Target	Win	True
517.546	0.3	Win2	0.6727	0.004	Yes	2.724	-0.004	4.0	GoodResponse	1	0.224	n/a	7	54	ButtonPress	Win	True
517.74	0.29	Win2	0.6727	n/a	Yes	2.724	n/a	n/a	GoodResponse	1	n/a	n/a	7	54	Blank	Win	True
518.024	1.45	Win2	0.6727	n/a	Yes	2.724	n/a	5.0	GoodResponse	1	0.047	517.071	7	54	Feedback	Win	True
519.479	2.724	Win2	0.6727	n/a	Yes	2.724	n/a	n/a	GoodResponse	1	0.0	n/a	7	54	ISIslide	Win	True
522.22	0.25	Control	0.6786	0.0	Yes	3.03	0.02	n/a	GoodResponse	0	n/a	n/a	7	55	Cue	Neutral	True
522.471	3.95	Control	0.6786	0.0	Yes	3.03	0.001	n/a	GoodResponse	0	n/a	n/a	7	55	Fixation	Neutral	True
526.416	0.4	Control	0.6786	0.004	Yes	3.03	-0.004	4.0	GoodResponse	0	0.175	525.591	7	55	Target	Neutral	True
526.591	0.3	Control	0.6786	0.004	Yes	3.03	-0.004	4.0	GoodResponse	0	0.175	n/a	7	55	ButtonPress	Neutral	True
526.817	0.3	Control	0.6786	n/a	Yes	3.03	n/a	n/a	GoodResponse	0	n/a	n/a	7	55	Blank	Neutral	True
527.118	1.45	Control	0.6786	n/a	Yes	3.03	n/a	5.0	GoodResponse	0	0.027	526.145	7	55	Feedback	Neutral	True
528.573	3.03	Control	0.6786	n/a	Yes	3.03	n/a	n/a	GoodResponse	0	0.0	n/a	7	55	ISIslide	Neutral	True
531.615	0.25	Control	0.6842	0.0	Yes	2.835	0.015	n/a	GoodResponse	0	n/a	n/a	7	56	Cue	Neutral	True
531.866	3.95	Control	0.6842	0.0	Yes	2.835	0.001	n/a	GoodResponse	0	n/a	n/a	7	56	Fixation	Neutral	True
535.811	0.39	Control	0.6842	0.004	Yes	2.835	-0.004	4.0	GoodResponse	0	0.268	535.079	7	56	Target	Neutral	True
536.079	0.3	Control	0.6842	0.004	Yes	2.835	-0.004	4.0	GoodResponse	0	0.268	n/a	7	56	ButtonPress	Neutral	True
536.212	0.31	Control	0.6842	n/a	Yes	2.835	n/a	n/a	GoodResponse	0	n/a	n/a	7	56	Blank	Neutral	True
536.513	1.45	Control	0.6842	n/a	Yes	2.835	n/a	5.0	GoodResponse	0	0.045	535.558	7	56	Feedback	Neutral	True
537.967	2.835	Control	0.6842	n/a	Yes	2.835	n/a	n/a	GoodResponse	0	0.0	n/a	7	56	ISIslide	Neutral	True
540.826	0.25	Control	0.6897	0.0	Yes	3.474	0.026	n/a	GoodResponse	0	n/a	n/a	7	57	Cue	Neutral	True
541.077	4.0	Control	0.6897	0.0	Yes	3.474	0.001	n/a	GoodResponse	0	n/a	n/a	7	57	Fixation	Neutral	True
545.072	0.38	Control	0.6897	0.004	Yes	3.474	-0.004	4.0	GoodResponse	0	0.224	544.296	7	57	Target	Neutral	True
545.296	0.3	Control	0.6897	0.004	Yes	3.474	-0.004	4.0	GoodResponse	0	0.224	n/a	7	57	ButtonPress	Neutral	True
545.457	0.32	Control	0.6897	n/a	Yes	3.474	n/a	n/a	GoodResponse	0	n/a	n/a	7	57	Blank	Neutral	True
545.774	1.45	Control	0.6897	n/a	Yes	3.474	n/a	5.0	GoodResponse	0	0.005	544.779	7	57	Feedback	Neutral	True
547.229	3.474	Control	0.6897	n/a	Yes	3.474	n/a	n/a	GoodResponse	0	0.0	n/a	7	57	ISIslide	Neutral	True
550.722	0.25	Win2	0.6949	0.0	Yes	2.728	0.022	n/a	GoodResponse	1	n/a	n/a	8	58	Cue	Win	True
550.973	4.05	Win2	0.6949	0.0	Yes	2.728	0.001	n/a	GoodResponse	1	n/a	n/a	8	58	Fixation	Win	True
555.019	0.37	Win2	0.6949	0.003	Yes	2.728	-0.003	4.0	GoodResponse	1	0.202	554.221	8	58	Target	Win	True
555.221	0.3	Win2	0.6949	0.003	Yes	2.728	-0.003	4.0	GoodResponse	1	0.202	n/a	8	58	ButtonPress	Win	True
555.403	0.33	Win2	0.6949	n/a	Yes	2.728	n/a	n/a	GoodResponse	1	n/a	n/a	8	58	Blank	Win	True
555.721	1.45	Win2	0.6949	n/a	Yes	2.728	n/a	5.0	GoodResponse	1	0.008	554.729	8	58	Feedback	Win	True
557.175	2.728	Win2	0.6949	n/a	Yes	2.728	n/a	n/a	GoodResponse	1	0.0	n/a	8	58	ISIslide	Win	True
559.917	0.25	Lose2	0.7	0.0	Yes	2.683	0.017	n/a	GoodResponse	0	n/a	n/a	8	59	Cue	AvoidedLoss	True
560.167	4.0	Lose2	0.7	0.0	Yes	2.683	0.0	n/a	GoodResponse	0	n/a	n/a	8	59	Fixation	AvoidedLoss	True
564.163	0.36	Lose2	0.7	0.004	Yes	2.683	-0.004	4.0	GoodResponse	0	0.25	563.413	8	59	Target	AvoidedLoss	True
564.413	0.3	Lose2	0.7	0.004	Yes	2.683	-0.004	4.0	GoodResponse	0	0.25	n/a	8	59	ButtonPress	AvoidedLoss	True
564.53	0.34	Lose2	0.7	n/a	Yes	2.683	n/a	n/a	GoodResponse	0	n/a	n/a	8	59	Blank	AvoidedLoss	True
564.865	1.45	Lose2	0.7	n/a	Yes	2.683	n/a	5.0	GoodResponse	0	0.035	563.9	8	59	Feedback	AvoidedLoss	True
566.319	2.683	Lose2	0.7	n/a	Yes	2.683	n/a	n/a	GoodResponse	0	0.0	n/a	8	59	ISIslide	AvoidedLoss	True
569.027	0.25	Control	0.7049	0.0	Yes	2.673	0.027	n/a	GoodResponse	0	n/a	n/a	8	60	Cue	Neutral	True
569.278	4.0	Control	0.7049	0.0	Yes	2.673	0.001	n/a	GoodResponse	0	n/a	n/a	8	60	Fixation	Neutral	True
573.273	0.35	Control	0.7049	0.004	Yes	2.673	-0.004	4.0	GoodResponse	0	0.224	572.497	8	60	Target	Neutral	True
573.497	0.3	Control	0.7049	0.004	Yes	2.673	-0.004	4.0	GoodResponse	0	0.224	n/a	8	60	ButtonPress	Neutral	True
573.624	0.35	Control	0.7049	n/a	Yes	2.673	n/a	n/a	GoodResponse	0	n/a	n/a	8	60	Blank	Neutral	True
573.975	1.45	Control	0.7049	n/a	Yes	2.673	n/a	5.0	GoodResponse	0	0.047	573.022	8	60	Feedback	Neutral	True
575.43	2.673	Control	0.7049	n/a	Yes	2.673	n/a	n/a	GoodResponse	0	0.0	n/a	8	60	ISIslide	Neutral	True
578.121	0.25	Lose2	0.7097	0.0	Yes	2.979	0.021	n/a	GoodResponse	0	n/a	n/a	8	61	Cue	AvoidedLoss	True
578.372	4.0	Lose2	0.7097	0.0	Yes	2.979	0.001	n/a	GoodResponse	0	n/a	n/a	8	61	Fixation	AvoidedLoss	True
582.367	0.34	Lose2	0.7097	0.004	Yes	2.979	-0.004	4.0	GoodResponse	0	0.229	581.596	8	61	Target	AvoidedLoss	True
582.596	0.3	Lose2	0.7097	0.004	Yes	2.979	-0.004	4.0	GoodResponse	0	0.229	n/a	8	61	ButtonPress	AvoidedLoss	True
582.718	0.36	Lose2	0.7097	n/a	Yes	2.979	n/a	n/a	GoodResponse	0	n/a	n/a	8	61	Blank	AvoidedLoss	True
583.069	1.45	Lose2	0.7097	n/a	Yes	2.979	n/a	5.0	GoodResponse	0	0.026	582.095	8	61	Feedback	AvoidedLoss	True
584.524	2.979	Lose2	0.7097	n/a	Yes	2.979	n/a	n/a	GoodResponse	0	0.0	n/a	8	61	ISIslide	AvoidedLoss	True
587.516	0.25	Lose2	0.7143	0.0	Yes	2.884	0.016	n/a	GoodResponse	0	n/a	n/a	8	62	Cue	AvoidedLoss	True
587.767	3.9	Lose2	0.7143	0.0	Yes	2.884	0.001	n/a	GoodResponse	0	n/a	n/a	8	62	Fixation	AvoidedLoss	True
591.662	0.33	Lose2	0.7143	0.004	Yes	2.884	-0.004	4.0	GoodResponse	0	0.203	590.865	8	62	Target	AvoidedLoss	True
591.865	0.3	Lose2	0.7143	0.004	Yes	2.884	-0.004	4.0	GoodResponse	0	0.203	n/a	8	62	ButtonPress	AvoidedLoss	True
591.996	0.37	Lose2	0.7143	n/a	Yes	2.884	n/a	n/a	GoodResponse	0	n/a	n/a	8	62	Blank	AvoidedLoss	True
592.364	1.45	Lose2	0.7143	n/a	Yes	2.884	n/a	5.0	GoodResponse	0	0.049	591.413	8	62	Feedback	AvoidedLoss	True
593.818	2.884	Lose2	0.7143	n/a	Yes	2.884	n/a	n/a	GoodResponse	0	0.0	n/a	8	62	ISIslide	AvoidedLoss	True
596.727	0.25	Lose2	0.7188	0.0	Yes	2.623	0.027	n/a	GoodResponse	0	n/a	n/a	8	63	Cue	AvoidedLoss	True
596.978	4.05	Lose2	0.7188	0.0	Yes	2.623	0.001	n/a	GoodResponse	0	n/a	n/a	8	63	Fixation	AvoidedLoss	True
601.023	0.32	Lose2	0.7188	0.004	Yes	2.623	-0.004	4.0	GoodResponse	0	0.232	600.255	8	63	Target	AvoidedLoss	True
601.255	0.3	Lose2	0.7188	0.004	Yes	2.623	-0.004	4.0	GoodResponse	0	0.232	n/a	8	63	ButtonPress	AvoidedLoss	True
601.358	0.38	Lose2	0.7188	n/a	Yes	2.623	n/a	n/a	GoodResponse	0	n/a	n/a	8	63	Blank	AvoidedLoss	True
601.725	1.45	Lose2	0.7188	n/a	Yes	2.623	n/a	5.0	GoodResponse	0	0.005	600.73	8	63	Feedback	AvoidedLoss	True
603.18	2.623	Lose2	0.7188	n/a	Yes	2.623	n/a	n/a	GoodResponse	0	0.0	n/a	8	63	ISIslide	AvoidedLoss	True
605.821	0.25	Win2	0.7231000000000001	0.0	Yes	3.129	0.021	n/a	GoodResponse	1	n/a	n/a	9	64	Cue	Win	True
606.072	4.15	Win2	0.7231000000000001	0.0	Yes	3.129	0.001	n/a	GoodResponse	1	n/a	n/a	9	64	Fixation	Win	True
610.218	0.31	Win2	0.7231000000000001	0.003	Yes	3.129	-0.003	4.0	GoodResponse	1	0.209	609.427	9	64	Target	Win	True
610.427	0.3	Win2	0.7231000000000001	0.003	Yes	3.129	-0.003	4.0	GoodResponse	1	0.209	n/a	9	64	ButtonPress	Win	True
610.535	0.39	Win2	0.7231000000000001	n/a	Yes	3.129	n/a	n/a	GoodResponse	1	n/a	n/a	9	64	Blank	Win	True
610.92	1.45	Win2	0.7231000000000001	n/a	Yes	3.129	n/a	5.0	GoodResponse	1	0.029	609.949	9	64	Feedback	Win	True
612.374	3.129	Win2	0.7231000000000001	n/a	Yes	3.129	n/a	n/a	GoodResponse	1	0.0	n/a	9	64	ISIslide	Win	True
615.517	0.25	Control	0.7273000000000001	0.0	Yes	2.783	0.017	n/a	GoodResponse	0	n/a	n/a	9	65	Cue	Neutral	True
615.767	4.0	Control	0.7273000000000001	0.001	Yes	2.783	0.0	n/a	GoodResponse	0	n/a	n/a	9	65	Fixation	Neutral	True
619.763	0.3	Control	0.7273000000000001	0.004	Yes	2.783	-0.004	4.0	GoodResponse	0	0.26	619.023	9	65	Target	Neutral	True
620.023	0.3	Control	0.7273000000000001	0.004	Yes	2.783	-0.004	4.0	GoodResponse	0	0.26	n/a	9	65	ButtonPress	Neutral	True
620.064	0.4	Control	0.7273000000000001	n/a	Yes	2.783	n/a	n/a	GoodResponse	0	n/a	n/a	9	65	Blank	Neutral	True
620.465	1.45	Control	0.7273000000000001	n/a	Yes	2.783	n/a	5.0	GoodResponse	0	0.045	619.51	9	65	Feedback	Neutral	True
621.919	2.783	Control	0.7273000000000001	n/a	Yes	2.783	n/a	n/a	GoodResponse	0	0.0	n/a	9	65	ISIslide	Neutral	True
624.728	0.25	Win2	0.7313	0.0	Yes	2.772	0.028	n/a	GoodResponse	1	n/a	n/a	10	66	Cue	Win	False
624.978	3.9	Win2	0.7313	0.001	Yes	2.772	0.0	4.0	GoodResponse	1	3.141	627.119	10	66	Fixation	Win	False
628.119	0.3	Win2	0.7313	0.001	Yes	2.772	0.0	4.0	GoodResponse	1	3.141	n/a	10	66	ButtonPress	Win	False
628.89	0.29	Win2	0.7313	0.0	Yes	2.772	0.012	4.0	GoodResponse	1	0.214	628.104	10	66	Target	Win	False
629.104	0.3	Win2	0.7313	0.0	Yes	2.772	0.012	4.0	GoodResponse	1	0.214	n/a	10	66	ButtonPress	Win	False
629.174	0.41	Win2	0.7313	n/a	Yes	2.772	n/a	n/a	GoodResponse	1	n/a	n/a	10	66	Blank	Win	False
629.576	1.45	Win2	0.7313	n/a	Yes	2.772	n/a	5.0	GoodResponse	1	0.007	628.583	10	66	Feedback	Win	False
631.03	2.772	Win2	0.7313	n/a	Yes	2.772	n/a	n/a	GoodResponse	1	0.0	n/a	10	66	ISIslide	Win	False
633.822	0.25	Control	0.7206	0.0	No	2.728	0.022	n/a	NoResponse	0	n/a	n/a	10	67	Cue	Neutral	True
634.072	3.95	Control	0.7206	0.001	No	2.728	0.0	n/a	NoResponse	0	n/a	n/a	10	67	Fixation	Neutral	True
638.018	0.28	Control	0.7206	0.004	No	2.728	-0.004	4.0	NoResponse	0	0.337	637.355	10	67	Target	Neutral	True
638.302	0.42	Control	0.7206	n/a	No	2.728	n/a	n/a	NoResponse	0	n/a	n/a	10	67	Blank	Neutral	True
638.355	0.3	Control	0.7206	0.004	No	2.728	-0.004	4.0	NoResponse	0	0.337	n/a	10	67	ButtonPress	Neutral	True
638.72	1.45	Control	0.7206	n/a	No	2.728	n/a	5.0	NoResponse	0	0.034	637.754	10	67	Feedback	Neutral	True
640.174	2.728	Control	0.7206	n/a	No	2.728	n/a	n/a	NoResponse	0	0.0	n/a	10	67	ISIslide	Neutral	True
642.916	0.25	Win2	0.7245999999999999	0.0	Yes	3.084	0.016	n/a	GoodResponse	1	n/a	n/a	11	68	Cue	Win	True
643.166	4.0	Win2	0.7245999999999999	0.0	Yes	3.084	0.0	n/a	GoodResponse	1	n/a	n/a	11	68	Fixation	Win	True
647.162	0.27	Win2	0.7245999999999999	0.004	Yes	3.084	-0.004	4.0	GoodResponse	1	0.265	646.427	11	68	Target	Win	True
647.427	0.3	Win2	0.7245999999999999	0.004	Yes	3.084	-0.004	4.0	GoodResponse	1	0.265	n/a	11	68	ButtonPress	Win	True
647.446	0.43	Win2	0.7245999999999999	n/a	Yes	3.084	n/a	n/a	GoodResponse	1	n/a	n/a	11	68	Blank	Win	True
647.864	1.45	Win2	0.7245999999999999	n/a	Yes	3.084	n/a	5.0	GoodResponse	1	0.012	646.876	11	68	Feedback	Win	True
649.318	3.084	Win2	0.7245999999999999	n/a	Yes	3.084	n/a	n/a	GoodResponse	1	0.0	n/a	11	68	ISIslide	Win	True
652.427	0.25	Win2	0.7143	0.001	No	3.223	0.027	n/a	LatePress	0	n/a	n/a	11	69	Cue	MissedWin	True
652.678	3.95	Win2	0.7143	0.0	No	3.223	0.001	n/a	LatePress	0	n/a	n/a	11	69	Fixation	MissedWin	True
656.623	0.26	Win2	0.7143	0.004	No	3.223	-0.004	4.0	LatePress	0	0.26	655.883	11	69	Target	MissedWin	True
656.883	0.3	Win2	0.7143	0.004	No	3.223	-0.004	4.0	LatePress	0	0.26	n/a	11	69	ButtonPress	MissedWin	True
656.891	0.44	Win2	0.7143	n/a	No	3.223	n/a	n/a	LatePress	0	n/a	n/a	11	69	Blank	MissedWin	True
657.326	1.45	Win2	0.7143	n/a	No	3.223	n/a	5.0	LatePress	0	0.013	656.339	11	69	Feedback	MissedWin	True
658.78	3.223	Win2	0.7143	n/a	No	3.223	n/a	n/a	LatePress	0	0.0	n/a	11	69	ISIslide	MissedWin	True
662.023	0.25	Lose2	0.7182999999999999	0.0	Yes	3.027	0.023	n/a	GoodResponse	0	n/a	n/a	11	70	Cue	AvoidedLoss	True
662.274	4.05	Lose2	0.7182999999999999	0.0	Yes	3.027	0.001	n/a	GoodResponse	0	n/a	n/a	11	70	Fixation	AvoidedLoss	True
666.319	0.25	Lose2	0.7182999999999999	0.004	Yes	3.027	-0.004	4.0	GoodResponse	0	0.223	665.542	11	70	Target	AvoidedLoss	True
666.542	0.3	Lose2	0.7182999999999999	0.004	Yes	3.027	-0.004	4.0	GoodResponse	0	0.223	n/a	11	70	ButtonPress	AvoidedLoss	True
666.57	0.45	Lose2	0.7182999999999999	n/a	Yes	3.027	n/a	n/a	GoodResponse	0	n/a	n/a	11	70	Blank	AvoidedLoss	True
667.021	1.45	Lose2	0.7182999999999999	n/a	Yes	3.027	n/a	5.0	GoodResponse	0	0.026	666.047	11	70	Feedback	AvoidedLoss	True
668.476	3.027	Lose2	0.7182999999999999	n/a	Yes	3.027	n/a	n/a	GoodResponse	0	0.0	n/a	11	70	ISIslide	AvoidedLoss	True
671.518	0.25	Win2	0.7222	0.0	Yes	2.732	0.018	n/a	GoodResponse	1	n/a	n/a	12	71	Cue	Win	True
671.769	4.05	Win2	0.7222	0.0	Yes	2.732	0.001	n/a	GoodResponse	1	n/a	n/a	12	71	Fixation	Win	True
675.814	0.24	Win2	0.7222	0.004	Yes	2.732	-0.004	4.0	GoodResponse	1	0.195	675.009	12	71	Target	Win	True
676.009	0.3	Win2	0.7222	0.004	Yes	2.732	-0.004	4.0	GoodResponse	1	0.195	n/a	12	71	ButtonPress	Win	True
676.065	0.46	Win2	0.7222	n/a	Yes	2.732	n/a	n/a	GoodResponse	1	n/a	n/a	12	71	Blank	Win	True
676.516	1.45	Win2	0.7222	n/a	Yes	2.732	n/a	5.0	GoodResponse	1	0.043	675.559	12	71	Feedback	Win	True
677.971	2.732	Win2	0.7222	n/a	Yes	2.732	n/a	n/a	GoodResponse	1	0.0	n/a	12	71	ISIslide	Win	True
680.729	0.25	Win2	0.726	0.0	Yes	2.771	0.029	n/a	GoodResponse	1	n/a	n/a	13	72	Cue	Win	True
680.98	4.1	Win2	0.726	0.0	Yes	2.771	0.001	n/a	GoodResponse	1	n/a	n/a	13	72	Fixation	Win	True
685.075	0.23	Win2	0.726	0.004	Yes	2.771	-0.004	4.0	GoodResponse	1	0.205	684.28	13	72	Target	Win	True
685.28	0.3	Win2	0.726	0.004	Yes	2.771	-0.004	4.0	GoodResponse	1	0.205	n/a	13	72	ButtonPress	Win	True
685.309	0.47	Win2	0.726	n/a	Yes	2.771	n/a	n/a	GoodResponse	1	n/a	n/a	13	72	Blank	Win	True
685.778	1.45	Win2	0.726	n/a	Yes	2.771	n/a	5.0	GoodResponse	1	0.001	684.779	13	72	Feedback	Win	True
687.232	2.771	Win2	0.726	n/a	Yes	2.771	n/a	n/a	GoodResponse	1	0.0	n/a	13	72	ISIslide	Win	True
690.024	0.25	Win2	0.7297	0.0	Yes	2.676	0.024	n/a	GoodResponse	1	n/a	n/a	14	73	Cue	Win	True
690.274	4.0	Win2	0.7297	0.0	Yes	2.676	0.0	n/a	GoodResponse	1	n/a	n/a	14	73	Fixation	Win	True
694.27	0.22	Win2	0.7297	0.004	Yes	2.676	-0.004	4.0	GoodResponse	1	0.199	693.469	14	73	Target	Win	True
694.469	0.3	Win2	0.7297	0.004	Yes	2.676	-0.004	4.0	GoodResponse	1	0.199	n/a	14	73	ButtonPress	Win	True
694.504	0.48	Win2	0.7297	n/a	Yes	2.676	n/a	n/a	GoodResponse	1	n/a	n/a	14	73	Blank	Win	True
694.972	1.45	Win2	0.7297	n/a	Yes	2.676	n/a	5.0	GoodResponse	1	0.025	693.997	14	73	Feedback	Win	True
696.426	2.676	Win2	0.7297	n/a	Yes	2.676	n/a	n/a	GoodResponse	1	0.0	n/a	14	73	ISIslide	Win	True
699.118	0.25	Lose2	0.7333	0.0	Yes	2.632	0.018	n/a	GoodResponse	0	n/a	n/a	14	74	Cue	AvoidedLoss	True
699.368	4.05	Lose2	0.7333	0.0	Yes	2.632	0.0	n/a	GoodResponse	0	n/a	n/a	14	74	Fixation	AvoidedLoss	True
703.414	0.21	Lose2	0.7333	0.004	Yes	2.632	-0.004	4.0	GoodResponse	0	0.185	702.599	14	74	Target	AvoidedLoss	True
703.599	0.3	Lose2	0.7333	0.004	Yes	2.632	-0.004	4.0	GoodResponse	0	0.185	n/a	14	74	ButtonPress	AvoidedLoss	True
703.631	0.49	Lose2	0.7333	n/a	Yes	2.632	n/a	n/a	GoodResponse	0	n/a	n/a	14	74	Blank	AvoidedLoss	True
704.116	1.45	Lose2	0.7333	n/a	Yes	2.632	n/a	5.0	GoodResponse	0	0.004	703.12	14	74	Feedback	AvoidedLoss	True
705.57	2.632	Lose2	0.7333	n/a	Yes	2.632	n/a	n/a	GoodResponse	0	0.0	n/a	14	74	ISIslide	AvoidedLoss	True
708.228	0.25	Lose2	0.7368000000000001	0.0	Yes	2.922	0.028	n/a	GoodResponse	0	n/a	n/a	14	75	Cue	AvoidedLoss	True
708.479	3.95	Lose2	0.7368000000000001	0.0	Yes	2.922	0.001	n/a	GoodResponse	0	n/a	n/a	14	75	Fixation	AvoidedLoss	True
712.424	0.2	Lose2	0.7368000000000001	0.004	Yes	2.922	-0.004	4.0	GoodResponse	0	0.148	711.572	14	75	Target	AvoidedLoss	True
712.572	0.3	Lose2	0.7368000000000001	0.004	Yes	2.922	-0.004	4.0	GoodResponse	0	0.148	n/a	14	75	ButtonPress	AvoidedLoss	True
712.625	0.5	Lose2	0.7368000000000001	n/a	Yes	2.922	n/a	n/a	GoodResponse	0	n/a	n/a	14	75	Blank	AvoidedLoss	True
713.126	1.45	Lose2	0.7368000000000001	n/a	Yes	2.922	n/a	5.0	GoodResponse	0	0.018	712.144	14	75	Feedback	AvoidedLoss	True
714.581	2.922	Lose2	0.7368000000000001	n/a	Yes	2.922	n/a	n/a	GoodResponse	0	0.0	n/a	14	75	ISIslide	AvoidedLoss	True
717.523	0.25	Control	0.7273000000000001	0.0	No	3.227	0.023	n/a	PrematurePress	0	n/a	n/a	14	76	Cue	Neutral	False
717.774	4.05	Control	0.7273000000000001	0.0	No	3.227	0.001	4.0	PrematurePress	0	3.413	720.187	14	76	Fixation	Neutral	False
721.187	0.3	Control	0.7273000000000001	0.0	No	3.227	0.001	4.0	PrematurePress	0	3.413	n/a	14	76	ButtonPress	Neutral	False
721.819	0.19	Control	0.7273000000000001	0.004	No	3.227	-0.004	4.0	PrematurePress	0	0.029	720.848	14	76	Target	Neutral	False
721.848	0.3	Control	0.7273000000000001	0.004	No	3.227	-0.004	4.0	PrematurePress	0	0.029	n/a	14	76	ButtonPress	Neutral	False
722.02	0.51	Control	0.7273000000000001	n/a	No	3.227	n/a	n/a	PrematurePress	0	n/a	n/a	14	76	Blank	Neutral	False
722.521	1.45	Control	0.7273000000000001	n/a	No	3.227	n/a	5.0	PrematurePress	0	0.037	721.558	14	76	Feedback	Neutral	False
723.975	3.227	Control	0.7273000000000001	n/a	No	3.227	n/a	n/a	PrematurePress	0	0.0	n/a	14	76	ISIslide	Neutral	False
727.219	0.25	Lose2	0.7179000000000001	0.0	No	2.581	0.019	n/a	NoResponse	-1	n/a	n/a	13	77	Cue	Loss	True
727.469	3.95	Lose2	0.7179000000000001	0.0	No	2.581	0.0	n/a	NoResponse	-1	n/a	n/a	13	77	Fixation	Loss	True
731.431	0.18	Lose2	0.7179000000000001	0.0	No	2.581	0.012	4.0	NoResponse	-1	0.247	730.678	13	77	Target	Loss	True
731.598	0.52	Lose2	0.7179000000000001	n/a	No	2.581	n/a	n/a	NoResponse	-1	n/a	n/a	13	77	Blank	Loss	True
731.678	0.3	Lose2	0.7179000000000001	0.0	No	2.581	0.012	4.0	NoResponse	-1	0.247	n/a	13	77	ButtonPress	Loss	True
732.117	1.45	Lose2	0.7179000000000001	n/a	No	2.581	n/a	5.0	NoResponse	-1	0.002	731.119	13	77	Feedback	Loss	True
733.571	2.581	Lose2	0.7179000000000001	n/a	No	2.581	n/a	n/a	NoResponse	-1	0.0	n/a	13	77	ISIslide	Loss	True
