onset	duration	cue_type	current_mean_accuracy	duration_error	is_hit	isi_adjusted	onset_delay	response	response_type	reward	rt	rt_time	total_reward	trial_number	trial_phase	trial_type	one_press
11.099	0.25	Control	1.0	0.0	Yes	2.951	-0.001	n/a	GoodResponse	0	n/a	n/a	0	0	Cue	Neutral	True
11.35	3.85	Control	1.0	0.0	Yes	2.951	0.001	n/a	GoodResponse	0	n/a	n/a	0	0	Fixation	Neutral	True
15.195	0.4	Control	1.0	0.004	Yes	2.951	-0.004	3.0	GoodResponse	0	0.24	14.435	0	0	Target	Neutral	True
15.435	0.3	Control	1.0	0.004	Yes	2.951	-0.004	3.0	GoodResponse	0	0.24	n/a	0	0	ButtonPress	Neutral	True
15.596	0.3	Control	1.0	n/a	Yes	2.951	n/a	n/a	GoodResponse	0	n/a	n/a	0	0	Blank	Neutral	True
15.897	1.45	Control	1.0	n/a	Yes	2.951	n/a	5.0	GoodResponse	0	0.033	14.93	0	0	Feedback	Neutral	True
17.351	2.951	Control	1.0	n/a	Yes	2.951	n/a	n/a	GoodResponse	0	0.0	n/a	0	0	ISIslide	Neutral	True
20.327	0.25	Lose2	1.0	0.0	Yes	2.773	0.027	n/a	GoodResponse	0	n/a	n/a	0	1	Cue	AvoidedLoss	True
20.578	4.0	Lose2	1.0	0.0	Yes	2.773	0.001	n/a	GoodResponse	0	n/a	n/a	0	1	Fixation	AvoidedLoss	True
24.573	0.39	Lose2	1.0	0.004	Yes	2.773	-0.004	3.0	GoodResponse	0	0.234	23.807	0	1	Target	AvoidedLoss	True
24.807	0.3	Lose2	1.0	0.004	Yes	2.773	-0.004	3.0	GoodResponse	0	0.234	n/a	0	1	ButtonPress	AvoidedLoss	True
24.974	0.31	Lose2	1.0	n/a	Yes	2.773	n/a	n/a	GoodResponse	0	n/a	n/a	0	1	Blank	AvoidedLoss	True
25.275	1.45	Lose2	1.0	n/a	Yes	2.773	n/a	5.0	GoodResponse	0	0.02	24.295	0	1	Feedback	AvoidedLoss	True
26.729	2.773	Lose2	1.0	n/a	Yes	2.773	n/a	n/a	GoodResponse	0	0.0	n/a	0	1	ISIslide	AvoidedLoss	True
29.521	0.25	Control	1.0	0.0	Yes	2.579	0.021	n/a	GoodResponse	0	n/a	n/a	0	2	Cue	Neutral	True
29.772	4.1	Control	1.0	0.0	Yes	2.579	0.001	n/a	GoodResponse	0	n/a	n/a	0	2	Fixation	Neutral	True
33.868	0.38	Control	1.0	0.003	Yes	2.579	-0.003	3.0	GoodResponse	0	0.257	33.125	0	2	Target	Neutral	True
34.125	0.3	Control	1.0	0.003	Yes	2.579	-0.003	3.0	GoodResponse	0	0.257	n/a	0	2	ButtonPress	Neutral	True
34.252	0.32	Control	1.0	n/a	Yes	2.579	n/a	n/a	GoodResponse	0	n/a	n/a	0	2	Blank	Neutral	True
34.57	1.45	Control	1.0	n/a	Yes	2.579	n/a	5.0	GoodResponse	0	0.042	33.612	0	2	Feedback	Neutral	True
36.024	2.579	Control	1.0	n/a	Yes	2.579	n/a	n/a	GoodResponse	0	0.0	n/a	0	2	ISIslide	Neutral	True
38.615	0.25	Win2	1.0	0.0	Yes	2.835	0.015	n/a	GoodResponse	1	n/a	n/a	1	3	Cue	Win	True
38.866	3.95	Win2	1.0	0.0	Yes	2.835	0.001	n/a	GoodResponse	1	n/a	n/a	1	3	Fixation	Win	True
42.811	0.37	Win2	1.0	0.004	Yes	2.835	-0.004	3.0	GoodResponse	1	0.21	42.021	1	3	Target	Win	True
43.021	0.3	Win2	1.0	0.004	Yes	2.835	-0.004	3.0	GoodResponse	1	0.21	n/a	1	3	ButtonPress	Win	True
43.196	0.33	Win2	1.0	n/a	Yes	2.835	n/a	n/a	GoodResponse	1	n/a	n/a	1	3	Blank	Win	True
43.513	1.45	Win2	1.0	n/a	Yes	2.835	n/a	5.0	GoodResponse	1	0.026	42.539	1	3	Feedback	Win	True
44.967	2.835	Win2	1.0	n/a	Yes	2.835	n/a	n/a	GoodResponse	1	0.0	n/a	1	3	ISIslide	Win	True
47.826	0.25	Win2	1.0	0.0	Yes	3.274	0.026	n/a	GoodResponse	1	n/a	n/a	2	4	Cue	Win	True
48.077	4.0	Win2	1.0	0.0	Yes	3.274	0.001	n/a	GoodResponse	1	n/a	n/a	2	4	Fixation	Win	True
52.072	0.36	Win2	1.0	0.004	Yes	3.274	-0.004	3.0	GoodResponse	1	0.236	51.308	2	4	Target	Win	True
52.308	0.3	Win2	1.0	0.004	Yes	3.274	-0.004	3.0	GoodResponse	1	0.236	n/a	2	4	ButtonPress	Win	True
52.44	0.34	Win2	1.0	n/a	Yes	3.274	n/a	n/a	GoodResponse	1	n/a	n/a	2	4	Blank	Win	True
52.774	1.45	Win2	1.0	n/a	Yes	3.274	n/a	5.0	GoodResponse	1	0.033	51.807	2	4	Feedback	Win	True
54.229	3.274	Win2	1.0	n/a	Yes	3.274	n/a	n/a	GoodResponse	1	0.0	n/a	2	4	ISIslide	Win	True
57.522	0.25	Win2	1.0	0.0	Yes	2.778	0.022	n/a	GoodResponse	1	n/a	n/a	3	5	Cue	Win	True
57.773	4.0	Win2	1.0	0.0	Yes	2.778	0.001	n/a	GoodResponse	1	n/a	n/a	3	5	Fixation	Win	True
61.768	0.35	Win2	1.0	0.004	Yes	2.778	-0.004	3.0	GoodResponse	1	0.27	61.038	3	5	Target	Win	True
62.038	0.3	Win2	1.0	0.004	Yes	2.778	-0.004	3.0	GoodResponse	1	0.27	n/a	3	5	ButtonPress	Win	True
62.119	0.35	Win2	1.0	n/a	Yes	2.778	n/a	n/a	GoodResponse	1	n/a	n/a	3	5	Blank	Win	True
62.47	1.45	Win2	1.0	n/a	Yes	2.778	n/a	5.0	GoodResponse	1	0.045	61.515	3	5	Feedback	Win	True
63.924	2.778	Win2	1.0	n/a	Yes	2.778	n/a	n/a	GoodResponse	1	0.0	n/a	3	5	ISIslide	Win	True
66.716	0.25	Lose2	1.0	0.0	Yes	2.734	0.016	n/a	GoodResponse	0	n/a	n/a	3	6	Cue	AvoidedLoss	True
66.967	3.95	Lose2	1.0	0.0	Yes	2.734	0.001	n/a	GoodResponse	0	n/a	n/a	3	6	Fixation	AvoidedLoss	True
70.912	0.34	Lose2	1.0	0.004	Yes	2.734	-0.004	3.0	GoodResponse	0	0.216	70.128	3	6	Target	AvoidedLoss	True
71.128	0.3	Lose2	1.0	0.004	Yes	2.734	-0.004	3.0	GoodResponse	0	0.216	n/a	3	6	ButtonPress	AvoidedLoss	True
71.263	0.36	Lose2	1.0	n/a	Yes	2.734	n/a	n/a	GoodResponse	0	n/a	n/a	3	6	Blank	AvoidedLoss	True
71.614	1.45	Lose2	1.0	n/a	Yes	2.734	n/a	5.0	GoodResponse	0	0.023	70.637	3	6	Feedback	AvoidedLoss	True
73.068	2.734	Lose2	1.0	n/a	Yes	2.734	n/a	n/a	GoodResponse	0	0.0	n/a	3	6	ISIslide	AvoidedLoss	True
75.827	0.25	Lose2	1.0	0.0	Yes	4.023	0.027	n/a	GoodResponse	0	n/a	n/a	3	7	Cue	AvoidedLoss	True
76.077	4.05	Lose2	1.0	0.0	Yes	4.023	0.0	n/a	GoodResponse	0	n/a	n/a	3	7	Fixation	AvoidedLoss	True
80.123	0.33	Lose2	1.0	0.004	Yes	4.023	-0.004	3.0	GoodResponse	0	0.227	79.35	3	7	Target	AvoidedLoss	True
80.35	0.3	Lose2	1.0	0.004	Yes	4.023	-0.004	3.0	GoodResponse	0	0.227	n/a	3	7	ButtonPress	AvoidedLoss	True
80.457	0.37	Lose2	1.0	n/a	Yes	4.023	n/a	n/a	GoodResponse	0	n/a	n/a	3	7	Blank	AvoidedLoss	True
80.825	1.45	Lose2	1.0	n/a	Yes	4.023	n/a	5.0	GoodResponse	0	0.031	79.856	3	7	Feedback	AvoidedLoss	True
82.279	4.023	Lose2	1.0	n/a	Yes	4.023	n/a	n/a	GoodResponse	0	0.0	n/a	3	7	ISIslide	AvoidedLoss	True
86.325	0.25	Lose2	1.0	0.0	Yes	3.025	0.025	n/a	GoodResponse	0	n/a	n/a	3	8	Cue	AvoidedLoss	True
86.575	3.95	Lose2	1.0	0.001	Yes	3.025	0.0	n/a	GoodResponse	0	n/a	n/a	3	8	Fixation	AvoidedLoss	True
90.521	0.32	Lose2	1.0	0.004	Yes	3.025	-0.004	3.0	GoodResponse	0	0.31	89.831	3	8	Target	AvoidedLoss	True
90.831	0.3	Lose2	1.0	0.004	Yes	3.025	-0.004	3.0	GoodResponse	0	0.31	n/a	3	8	ButtonPress	AvoidedLoss	True
90.855	0.38	Lose2	1.0	n/a	Yes	3.025	n/a	n/a	GoodResponse	0	n/a	n/a	3	8	Blank	AvoidedLoss	True
91.223	1.45	Lose2	1.0	n/a	Yes	3.025	n/a	5.0	GoodResponse	0	0.023	90.246	3	8	Feedback	AvoidedLoss	True
92.677	3.025	Lose2	1.0	n/a	Yes	3.025	n/a	n/a	GoodResponse	0	0.0	n/a	3	8	ISIslide	AvoidedLoss	True
95.72	0.25	Lose2	1.0	0.0	Yes	3.13	0.02	n/a	GoodResponse	0	n/a	n/a	3	9	Cue	AvoidedLoss	True
95.97	3.95	Lose2	1.0	0.0	Yes	3.13	0.0	n/a	GoodResponse	0	n/a	n/a	3	9	Fixation	AvoidedLoss	True
99.932	0.31	Lose2	1.0	0.0	Yes	3.13	0.012	3.0	GoodResponse	0	0.208	99.14	3	9	Target	AvoidedLoss	True
100.14	0.3	Lose2	1.0	0.0	Yes	3.13	0.012	3.0	GoodResponse	0	0.208	n/a	3	9	ButtonPress	AvoidedLoss	True
100.233	0.39	Lose2	1.0	n/a	Yes	3.13	n/a	n/a	GoodResponse	0	n/a	n/a	3	9	Blank	AvoidedLoss	True
100.618	1.45	Lose2	1.0	n/a	Yes	3.13	n/a	5.0	GoodResponse	0	0.042	99.66	3	9	Feedback	AvoidedLoss	True
102.072	3.13	Lose2	1.0	n/a	Yes	3.13	n/a	n/a	GoodResponse	0	0.0	n/a	3	9	ISIslide	AvoidedLoss	True
105.215	0.25	Control	1.0	0.0	Yes	3.285	0.015	n/a	GoodResponse	0	n/a	n/a	3	10	Cue	Neutral	True
105.465	4.0	Control	1.0	0.001	Yes	3.285	0.0	n/a	GoodResponse	0	n/a	n/a	3	10	Fixation	Neutral	True
109.461	0.3	Control	1.0	0.004	Yes	3.285	-0.004	3.0	GoodResponse	0	0.262	108.723	3	10	Target	Neutral	True
109.723	0.3	Control	1.0	0.004	Yes	3.285	-0.004	3.0	GoodResponse	0	0.262	n/a	3	10	ButtonPress	Neutral	True
109.762	0.4	Control	1.0	n/a	Yes	3.285	n/a	n/a	GoodResponse	0	n/a	n/a	3	10	Blank	Neutral	True
110.163	1.45	Control	1.0	n/a	Yes	3.285	n/a	5.0	GoodResponse	0	0.01	109.173	3	10	Feedback	Neutral	True
111.617	3.285	Control	1.0	n/a	Yes	3.285	n/a	n/a	GoodResponse	0	0.0	n/a	3	10	ISIslide	Neutral	True
114.927	0.25	Lose2	1.0	0.0	Yes	2.723	0.027	n/a	GoodResponse	0	n/a	n/a	3	11	Cue	AvoidedLoss	True
115.178	4.05	Lose2	1.0	0.0	Yes	2.723	0.001	n/a	GoodResponse	0	n/a	n/a	3	11	Fixation	AvoidedLoss	True
119.223	0.29	Lose2	1.0	0.004	Yes	2.723	-0.004	3.0	GoodResponse	0	0.189	118.412	3	11	Target	AvoidedLoss	True
119.412	0.3	Lose2	1.0	0.004	Yes	2.723	-0.004	3.0	GoodResponse	0	0.189	n/a	3	11	ButtonPress	AvoidedLoss	True
119.524	0.41	Lose2	1.0	n/a	Yes	2.723	n/a	n/a	GoodResponse	0	n/a	n/a	3	11	Blank	AvoidedLoss	True
119.925	1.45	Lose2	1.0	n/a	Yes	2.723	n/a	5.0	GoodResponse	0	0.004	118.929	3	11	Feedback	AvoidedLoss	True
121.38	2.723	Lose2	1.0	n/a	Yes	2.723	n/a	n/a	GoodResponse	0	0.0	n/a	3	11	ISIslide	AvoidedLoss	True
124.121	0.25	Control	1.0	0.0	Yes	2.979	0.021	n/a	GoodResponse	0	n/a	n/a	3	12	Cue	Neutral	True
124.372	3.9	Control	1.0	0.0	Yes	2.979	0.001	n/a	GoodResponse	0	n/a	n/a	3	12	Fixation	Neutral	True
128.267	0.28	Control	1.0	0.004	Yes	2.979	-0.004	3.0	GoodResponse	0	0.231	127.498	3	12	Target	Neutral	True
128.498	0.3	Control	1.0	0.004	Yes	2.979	-0.004	3.0	GoodResponse	0	0.231	n/a	3	12	ButtonPress	Neutral	True
128.551	0.42	Control	1.0	n/a	Yes	2.979	n/a	n/a	GoodResponse	0	n/a	n/a	3	12	Blank	Neutral	True
128.969	1.45	Control	1.0	n/a	Yes	2.979	n/a	5.0	GoodResponse	0	0.033	128.002	3	12	Feedback	Neutral	True
130.424	2.979	Control	1.0	n/a	Yes	2.979	n/a	n/a	GoodResponse	0	0.0	n/a	3	12	ISIslide	Neutral	True
133.416	0.25	Control	1.0	0.0	Yes	2.784	0.016	n/a	GoodResponse	0	n/a	n/a	3	13	Cue	Neutral	True
133.667	4.0	Control	1.0	0.0	Yes	2.784	0.001	n/a	GoodResponse	0	n/a	n/a	3	13	Fixation	Neutral	True
137.662	0.27	Control	1.0	0.004	Yes	2.784	-0.004	3.0	GoodResponse	0	0.194	136.856	3	13	Target	Neutral	True
137.856	0.3	Control	1.0	0.004	Yes	2.784	-0.004	3.0	GoodResponse	0	0.194	n/a	3	13	ButtonPress	Neutral	True
137.946	0.43	Control	1.0	n/a	Yes	2.784	n/a	n/a	GoodResponse	0	n/a	n/a	3	13	Blank	Neutral	True
138.364	1.45	Control	1.0	n/a	Yes	2.784	n/a	5.0	GoodResponse	0	0.004	137.368	3	13	Feedback	Neutral	True
139.818	2.784	Control	1.0	n/a	Yes	2.784	n/a	n/a	GoodResponse	0	0.0	n/a	3	13	ISIslide	Neutral	True
142.627	0.25	Win2	1.0	0.0	Yes	2.673	0.027	n/a	GoodResponse	1	n/a	n/a	4	14	Cue	Win	True
142.878	4.1	Win2	1.0	0.0	Yes	2.673	0.001	n/a	GoodResponse	1	n/a	n/a	4	14	Fixation	Win	True
146.973	0.26	Win2	1.0	0.004	Yes	2.673	-0.004	3.0	GoodResponse	1	0.202	146.175	4	14	Target	Win	True
147.175	0.3	Win2	1.0	0.004	Yes	2.673	-0.004	3.0	GoodResponse	1	0.202	n/a	4	14	ButtonPress	Win	True
147.241	0.44	Win2	1.0	n/a	Yes	2.673	n/a	n/a	GoodResponse	1	n/a	n/a	4	14	Blank	Win	True
147.675	1.45	Win2	1.0	n/a	Yes	2.673	n/a	5.0	GoodResponse	1	0.009	146.684	4	14	Feedback	Win	True
149.13	2.673	Win2	1.0	n/a	Yes	2.673	n/a	n/a	GoodResponse	1	0.0	n/a	4	14	ISIslide	Win	True
151.821	0.25	Control	0.9375	0.0	No	2.979	0.021	n/a	NoResponse	0	n/a	n/a	4	15	Cue	Neutral	True
152.072	4.0	Control	0.9375	0.0	No	2.979	0.001	n/a	NoResponse	0	n/a	n/a	4	15	Fixation	Neutral	True
156.067	0.25	Control	0.9375	0.004	No	2.979	-0.004	3.0	NoResponse	0	0.494	155.561	4	15	Target	Neutral	True
156.318	0.45	Control	0.9375	n/a	No	2.979	n/a	n/a	NoResponse	0	n/a	n/a	4	15	Blank	Neutral	True
156.561	0.3	Control	0.9375	0.004	No	2.979	-0.004	3.0	NoResponse	0	0.494	n/a	4	15	ButtonPress	Neutral	True
156.769	1.45	Control	0.9375	n/a	No	2.979	n/a	5.0	NoResponse	0	0.037	155.806	4	15	Feedback	Neutral	True
158.224	2.979	Control	0.9375	n/a	No	2.979	n/a	n/a	NoResponse	0	0.0	n/a	4	15	ISIslide	Neutral	True
161.216	0.25	Win2	0.9412	0.0	Yes	2.884	0.016	n/a	GoodResponse	1	n/a	n/a	5	16	Cue	Win	True
161.467	4.0	Win2	0.9412	0.0	Yes	2.884	0.001	n/a	GoodResponse	1	n/a	n/a	5	16	Fixation	Win	True
165.462	0.24	Win2	0.9412	0.004	Yes	2.884	-0.004	3.0	GoodResponse	1	0.216	164.678	5	16	Target	Win	True
165.678	0.3	Win2	0.9412	0.004	Yes	2.884	-0.004	3.0	GoodResponse	1	0.216	n/a	5	16	ButtonPress	Win	True
165.713	0.46	Win2	0.9412	n/a	Yes	2.884	n/a	n/a	GoodResponse	1	n/a	n/a	5	16	Blank	Win	True
166.164	1.45	Win2	0.9412	n/a	Yes	2.884	n/a	5.0	GoodResponse	1	0.008	165.172	5	16	Feedback	Win	True
167.618	2.884	Win2	0.9412	n/a	Yes	2.884	n/a	n/a	GoodResponse	1	0.0	n/a	5	16	ISIslide	Win	True
170.527	0.25	Lose2	0.9444	0.0	Yes	2.723	0.027	n/a	GoodResponse	0	n/a	n/a	5	17	Cue	AvoidedLoss	True
170.778	3.95	Lose2	0.9444	0.0	Yes	2.723	0.001	n/a	GoodResponse	0	n/a	n/a	5	17	Fixation	AvoidedLoss	True
174.723	0.23	Lose2	0.9444	0.004	Yes	2.723	-0.004	3.0	GoodResponse	0	0.199	173.922	5	17	Target	AvoidedLoss	True
174.922	0.3	Lose2	0.9444	0.004	Yes	2.723	-0.004	3.0	GoodResponse	0	0.199	n/a	5	17	ButtonPress	AvoidedLoss	True
174.957	0.47	Lose2	0.9444	n/a	Yes	2.723	n/a	n/a	GoodResponse	0	n/a	n/a	5	17	Blank	AvoidedLoss	True
175.425	1.45	Lose2	0.9444	n/a	Yes	2.723	n/a	5.0	GoodResponse	0	0.016	174.441	5	17	Feedback	AvoidedLoss	True
176.879	2.723	Lose2	0.9444	n/a	Yes	2.723	n/a	n/a	GoodResponse	0	0.0	n/a	5	17	ISIslide	AvoidedLoss	True
179.621	0.25	Lose2	0.8946999999999999	0.0	No	2.729	0.021	n/a	LatePress	-1	n/a	n/a	4	18	Cue	Loss	True
179.872	4.05	Lose2	0.8946999999999999	0.0	No	2.729	0.001	n/a	LatePress	-1	n/a	n/a	4	18	Fixation	Loss	True
183.917	0.22	Lose2	0.8946999999999999	0.004	No	2.729	-0.004	3.0	LatePress	-1	0.222	183.139	4	18	Target	Loss	True
184.139	0.3	Lose2	0.8946999999999999	0.004	No	2.729	-0.004	3.0	LatePress	-1	0.222	n/a	4	18	ButtonPress	Loss	True
184.151	0.48	Lose2	0.8946999999999999	n/a	No	2.729	n/a	n/a	LatePress	-1	n/a	n/a	4	18	Blank	Loss	True
184.619	1.45	Lose2	0.8946999999999999	n/a	No	2.729	n/a	5.0	LatePress	-1	0.041	183.66	4	18	Feedback	Loss	True
186.074	2.729	Lose2	0.8946999999999999	n/a	No	2.729	n/a	n/a	LatePress	-1	0.0	n/a	4	18	ISIslide	Loss	True
188.815	0.25	Control	0.85	0.0	No	2.935	0.015	n/a	NoResponse	0	n/a	n/a	4	19	Cue	Neutral	True
189.066	3.95	Control	0.85	0.0	No	2.935	0.001	n/a	NoResponse	0	n/a	n/a	4	19	Fixation	Neutral	True
193.011	0.21	Control	0.85	0.004	No	2.935	-0.004	3.0	NoResponse	0	0.275	192.286	4	19	Target	Neutral	True
193.228	0.49	Control	0.85	n/a	No	2.935	n/a	n/a	NoResponse	0	n/a	n/a	4	19	Blank	Neutral	True
193.286	0.3	Control	0.85	0.004	No	2.935	-0.004	3.0	NoResponse	0	0.275	n/a	4	19	ButtonPress	Neutral	True
193.713	1.45	Control	0.85	n/a	No	2.935	n/a	5.0	NoResponse	0	0.021	192.734	4	19	Feedback	Neutral	True
195.168	2.935	Control	0.85	n/a	No	2.935	n/a	n/a	NoResponse	0	0.0	n/a	4	19	ISIslide	Neutral	True
198.126	0.25	Control	0.8571	0.001	Yes	2.624	0.026	n/a	GoodResponse	0	n/a	n/a	4	20	Cue	Neutral	True
198.377	4.05	Control	0.8571	0.0	Yes	2.624	0.001	n/a	GoodResponse	0	n/a	n/a	4	20	Fixation	Neutral	True
202.423	0.2	Control	0.8571	0.003	Yes	2.624	-0.003	3.0	GoodResponse	0	0.196	201.619	4	20	Target	Neutral	True
202.619	0.3	Control	0.8571	0.003	Yes	2.624	-0.003	3.0	GoodResponse	0	0.196	n/a	4	20	ButtonPress	Neutral	True
202.623	0.5	Control	0.8571	n/a	Yes	2.624	n/a	n/a	GoodResponse	0	n/a	n/a	4	20	Blank	Neutral	True
203.125	1.45	Control	0.8571	n/a	Yes	2.624	n/a	5.0	GoodResponse	0	0.023	202.148	4	20	Feedback	Neutral	True
204.579	2.624	Control	0.8571	n/a	Yes	2.624	n/a	n/a	GoodResponse	0	0.0	n/a	4	20	ISIslide	Neutral	True
207.22	0.25	Control	0.8181999999999999	0.0	No	2.78	0.02	n/a	NoResponse	0	n/a	n/a	4	21	Cue	Neutral	True
207.471	4.1	Control	0.8181999999999999	0.0	No	2.78	0.001	n/a	NoResponse	0	n/a	n/a	4	21	Fixation	Neutral	True
211.567	0.19	Control	0.8181999999999999	0.003	No	2.78	-0.003	3.0	NoResponse	0	0.384	210.951	4	21	Target	Neutral	True
211.767	0.51	Control	0.8181999999999999	n/a	No	2.78	n/a	n/a	NoResponse	0	n/a	n/a	4	21	Blank	Neutral	True
211.951	0.3	Control	0.8181999999999999	0.003	No	2.78	-0.003	3.0	NoResponse	0	0.384	n/a	4	21	ButtonPress	Neutral	True
212.269	1.45	Control	0.8181999999999999	n/a	No	2.78	n/a	5.0	NoResponse	0	0.001	211.27	4	21	Feedback	Neutral	True
213.723	2.78	Control	0.8181999999999999	n/a	No	2.78	n/a	n/a	NoResponse	0	0.0	n/a	4	21	ISIslide	Neutral	True
216.515	0.25	Control	0.7826000000000001	0.0	No	2.785	0.015	n/a	NoResponse	0	n/a	n/a	4	22	Cue	Neutral	True
216.766	4.0	Control	0.7826000000000001	0.0	No	2.785	0.001	n/a	NoResponse	0	n/a	n/a	4	22	Fixation	Neutral	True
220.761	0.18	Control	0.7826000000000001	0.004	No	2.785	-0.004	3.0	NoResponse	0	0.218	219.979	4	22	Target	Neutral	True
220.945	0.52	Control	0.7826000000000001	n/a	No	2.785	n/a	n/a	NoResponse	0	n/a	n/a	4	22	Blank	Neutral	True
220.979	0.3	Control	0.7826000000000001	0.004	No	2.785	-0.004	3.0	NoResponse	0	0.218	n/a	4	22	ButtonPress	Neutral	True
221.463	1.45	Control	0.7826000000000001	n/a	No	2.785	n/a	5.0	NoResponse	0	0.026	220.489	4	22	Feedback	Neutral	True
222.917	2.785	Control	0.7826000000000001	n/a	No	2.785	n/a	n/a	NoResponse	0	0.0	n/a	4	22	ISIslide	Neutral	True
225.726	0.25	Control	0.75	0.0	No	2.774	0.026	n/a	NoResponse	0	n/a	n/a	4	23	Cue	Neutral	True
225.977	3.9	Control	0.75	0.0	No	2.774	0.001	n/a	NoResponse	0	n/a	n/a	4	23	Fixation	Neutral	True
229.872	0.17	Control	0.75	0.004	No	2.774	-0.004	3.0	NoResponse	0	0.184	229.056	4	23	Target	Neutral	True
230.055	0.53	Control	0.75	n/a	No	2.774	n/a	n/a	NoResponse	0	n/a	n/a	4	23	Blank	Neutral	True
230.056	0.3	Control	0.75	0.004	No	2.774	-0.004	3.0	NoResponse	0	0.184	n/a	4	23	ButtonPress	Neutral	True
230.574	1.45	Control	0.75	n/a	No	2.774	n/a	5.0	NoResponse	0	0.037	229.611	4	23	Feedback	Neutral	True
232.028	2.774	Control	0.75	n/a	No	2.774	n/a	n/a	NoResponse	0	0.0	n/a	4	23	ISIslide	Neutral	True
234.82	0.25	Win2	0.72	0.0	No	3.13	0.02	n/a	NoResponse	0	n/a	n/a	4	24	Cue	MissedWin	True
235.07	3.95	Win2	0.72	0.001	No	3.13	0.0	n/a	NoResponse	0	n/a	n/a	4	24	Fixation	MissedWin	True
239.016	0.16	Win2	0.72	0.004	No	3.13	-0.004	3.0	NoResponse	0	0.219	238.235	4	24	Target	MissedWin	True
239.183	0.54	Win2	0.72	n/a	No	3.13	n/a	n/a	NoResponse	0	n/a	n/a	4	24	Blank	MissedWin	True
239.235	0.3	Win2	0.72	0.004	No	3.13	-0.004	3.0	NoResponse	0	0.219	n/a	4	24	ButtonPress	MissedWin	True
239.718	1.45	Win2	0.72	n/a	No	3.13	n/a	5.0	NoResponse	0	0.015	238.733	4	24	Feedback	MissedWin	True
241.172	3.13	Win2	0.72	n/a	No	3.13	n/a	n/a	NoResponse	0	0.0	n/a	4	24	ISIslide	MissedWin	True
244.315	0.25	Win2	0.7308	0.0	Yes	3.085	0.015	n/a	GoodResponse	1	n/a	n/a	5	25	Cue	Win	True
244.566	4.0	Win2	0.7308	0.0	Yes	3.085	0.001	n/a	GoodResponse	1	n/a	n/a	5	25	Fixation	Win	True
248.561	0.15	Win2	0.7308	0.004	Yes	3.085	-0.004	3.0	GoodResponse	1	0.106	247.667	5	25	Target	Win	True
248.667	0.3	Win2	0.7308	0.004	Yes	3.085	-0.004	3.0	GoodResponse	1	0.106	n/a	5	25	ButtonPress	Win	True
248.711	0.55	Win2	0.7308	n/a	Yes	3.085	n/a	n/a	GoodResponse	1	n/a	n/a	5	25	Blank	Win	True
249.263	1.45	Win2	0.7308	n/a	Yes	3.085	n/a	5.0	GoodResponse	1	0.031	248.294	5	25	Feedback	Win	True
250.717	3.085	Win2	0.7308	n/a	Yes	3.085	n/a	n/a	GoodResponse	1	0.0	n/a	5	25	ISIslide	Win	True
253.827	0.25	Win2	0.7037	0.0	No	2.923	0.027	n/a	NoResponse	0	n/a	n/a	5	26	Cue	MissedWin	True
254.077	3.95	Win2	0.7037	0.0	No	2.923	0.0	n/a	NoResponse	0	n/a	n/a	5	26	Fixation	MissedWin	True
258.023	0.15	Win2	0.7037	0.004	No	2.923	-0.004	3.0	NoResponse	0	0.25	257.273	5	26	Target	MissedWin	True
258.173	0.55	Win2	0.7037	n/a	No	2.923	n/a	n/a	NoResponse	0	n/a	n/a	5	26	Blank	MissedWin	True
258.273	0.3	Win2	0.7037	0.004	No	2.923	-0.004	3.0	NoResponse	0	0.25	n/a	5	26	ButtonPress	MissedWin	True
258.725	1.45	Win2	0.7037	n/a	No	2.923	n/a	5.0	NoResponse	0	0.033	257.758	5	26	Feedback	MissedWin	True
260.179	2.923	Win2	0.7037	n/a	No	2.923	n/a	n/a	NoResponse	0	0.0	n/a	5	26	ISIslide	MissedWin	True
263.121	0.25	Lose2	0.6786	0.0	No	2.829	0.021	n/a	NoResponse	-1	n/a	n/a	4	27	Cue	Loss	True
263.372	4.05	Lose2	0.6786	0.0	No	2.829	0.001	n/a	NoResponse	-1	n/a	n/a	4	27	Fixation	Loss	True
267.417	0.15	Lose2	0.6786	0.004	No	2.829	-0.004	3.0	NoResponse	-1	0.201	266.618	4	27	Target	Loss	True
267.568	0.55	Lose2	0.6786	n/a	No	2.829	n/a	n/a	NoResponse	-1	n/a	n/a	4	27	Blank	Loss	True
267.618	0.3	Lose2	0.6786	0.004	No	2.829	-0.004	3.0	NoResponse	-1	0.201	n/a	4	27	ButtonPress	Loss	True
268.119	1.45	Lose2	0.6786	n/a	No	2.829	n/a	5.0	NoResponse	-1	0.004	267.123	4	27	Feedback	Loss	True
269.574	2.829	Lose2	0.6786	n/a	No	2.829	n/a	n/a	NoResponse	-1	0.0	n/a	4	27	ISIslide	Loss	True
272.416	0.25	Control	0.6552	0.0	No	2.834	0.016	n/a	NoResponse	0	n/a	n/a	4	28	Cue	Neutral	True
272.666	4.05	Control	0.6552	0.001	No	2.834	0.0	n/a	NoResponse	0	n/a	n/a	4	28	Fixation	Neutral	True
276.712	0.15	Control	0.6552	0.004	No	2.834	-0.004	3.0	NoResponse	0	0.183	275.895	4	28	Target	Neutral	True
276.862	0.55	Control	0.6552	n/a	No	2.834	n/a	n/a	NoResponse	0	n/a	n/a	4	28	Blank	Neutral	True
276.895	0.3	Control	0.6552	0.004	No	2.834	-0.004	3.0	NoResponse	0	0.183	n/a	4	28	ButtonPress	Neutral	True
277.414	1.45	Control	0.6552	n/a	No	2.834	n/a	5.0	NoResponse	0	0.026	276.44	4	28	Feedback	Neutral	True
278.868	2.834	Control	0.6552	n/a	No	2.834	n/a	n/a	NoResponse	0	0.0	n/a	4	28	ISIslide	Neutral	True
281.727	0.25	Lose2	0.6333	0.0	No	2.823	0.027	n/a	NoResponse	-1	n/a	n/a	3	29	Cue	Loss	True
281.978	3.95	Lose2	0.6333	0.0	No	2.823	0.001	3.0	NoResponse	-1	3.182	284.16	3	29	Fixation	Loss	True
285.16	0.3	Lose2	0.6333	0.0	No	2.823	0.001	3.0	NoResponse	-1	3.182	n/a	3	29	ButtonPress	Loss	True
285.923	0.15	Lose2	0.6333	0.004	No	2.823	-0.004	n/a	NoResponse	-1	n/a	n/a	3	29	Target	Loss	True
286.073	0.55	Lose2	0.6333	n/a	No	2.823	n/a	n/a	NoResponse	-1	n/a	n/a	3	29	Blank	Loss	True
286.625	1.45	Lose2	0.6333	n/a	No	2.823	n/a	5.0	NoResponse	-1	0.035	285.66	3	29	Feedback	Loss	True
288.079	2.823	Lose2	0.6333	n/a	No	2.823	n/a	n/a	NoResponse	-1	0.0	n/a	3	29	ISIslide	Loss	True
290.921	0.25	Win2	0.6129	0.0	No	2.779	0.021	n/a	NoResponse	0	n/a	n/a	3	30	Cue	MissedWin	True
291.172	3.9	Win2	0.6129	0.0	No	2.779	0.001	n/a	NoResponse	0	n/a	n/a	3	30	Fixation	MissedWin	True
295.067	0.16	Win2	0.6129	0.004	No	2.779	-0.004	3.0	NoResponse	0	0.319	294.386	3	30	Target	MissedWin	True
295.234	0.54	Win2	0.6129	n/a	No	2.779	n/a	n/a	NoResponse	0	n/a	n/a	3	30	Blank	MissedWin	True
295.386	0.3	Win2	0.6129	0.004	No	2.779	-0.004	3.0	NoResponse	0	0.319	n/a	3	30	ButtonPress	MissedWin	True
295.769	1.45	Win2	0.6129	n/a	No	2.779	n/a	5.0	NoResponse	0	0.013	294.782	3	30	Feedback	MissedWin	True
297.223	2.779	Win2	0.6129	n/a	No	2.779	n/a	n/a	NoResponse	0	0.0	n/a	3	30	ISIslide	MissedWin	True
300.015	0.25	Lose2	0.5938	0.0	No	2.835	0.015	n/a	NoResponse	-1	n/a	n/a	2	31	Cue	Loss	True
300.266	4.05	Lose2	0.5938	0.0	No	2.835	0.001	n/a	NoResponse	-1	n/a	n/a	2	31	Fixation	Loss	True
304.311	0.17	Lose2	0.5938	0.004	No	2.835	-0.004	3.0	NoResponse	-1	0.217	303.528	2	31	Target	Loss	True
304.495	0.53	Lose2	0.5938	n/a	No	2.835	n/a	n/a	NoResponse	-1	n/a	n/a	2	31	Blank	Loss	True
304.528	0.3	Lose2	0.5938	0.004	No	2.835	-0.004	3.0	NoResponse	-1	0.217	n/a	2	31	ButtonPress	Loss	True
305.013	1.45	Lose2	0.5938	n/a	No	2.835	n/a	5.0	NoResponse	-1	0.037	304.05	2	31	Feedback	Loss	True
306.468	2.835	Lose2	0.5938	n/a	No	2.835	n/a	n/a	NoResponse	-1	0.0	n/a	2	31	ISIslide	Loss	True
309.326	0.25	Lose2	0.5758	0.0	No	2.624	0.026	n/a	NoResponse	-1	n/a	n/a	1	32	Cue	Loss	True
309.577	4.15	Lose2	0.5758	0.0	No	2.624	0.001	n/a	NoResponse	-1	n/a	n/a	1	32	Fixation	Loss	True
313.723	0.18	Lose2	0.5758	0.003	No	2.624	-0.003	3.0	NoResponse	-1	0.214	312.937	1	32	Target	Loss	True
313.907	0.52	Lose2	0.5758	n/a	No	2.624	n/a	n/a	NoResponse	-1	n/a	n/a	1	32	Blank	Loss	True
313.937	0.3	Lose2	0.5758	0.003	No	2.624	-0.003	3.0	NoResponse	-1	0.214	n/a	1	32	ButtonPress	Loss	True
314.425	1.45	Lose2	0.5758	n/a	No	2.624	n/a	5.0	NoResponse	-1	0.04	313.465	1	32	Feedback	Loss	True
315.879	2.624	Lose2	0.5758	n/a	No	2.624	n/a	n/a	NoResponse	-1	0.0	n/a	1	32	ISIslide	Loss	True
318.52	0.25	Win2	0.5882000000000001	0.001	Yes	2.68	0.02	n/a	GoodResponse	1	n/a	n/a	2	33	Cue	Win	True
318.771	4.0	Win2	0.5882000000000001	0.0	Yes	2.68	0.001	n/a	GoodResponse	1	n/a	n/a	2	33	Fixation	Win	True
322.767	0.19	Win2	0.5882000000000001	0.003	Yes	2.68	-0.003	3.0	GoodResponse	1	0.186	321.953	2	33	Target	Win	True
322.953	0.3	Win2	0.5882000000000001	0.003	Yes	2.68	-0.003	3.0	GoodResponse	1	0.186	n/a	2	33	ButtonPress	Win	True
322.967	0.51	Win2	0.5882000000000001	n/a	Yes	2.68	n/a	n/a	GoodResponse	1	n/a	n/a	2	33	Blank	Win	True
323.469	1.45	Win2	0.5882000000000001	n/a	Yes	2.68	n/a	5.0	GoodResponse	1	0.02	322.489	2	33	Feedback	Win	True
324.923	2.68	Win2	0.5882000000000001	n/a	Yes	2.68	n/a	n/a	GoodResponse	1	0.0	n/a	2	33	ISIslide	Win	True
327.614	0.25	Lose2	0.6	0.001	Yes	2.636	0.014	n/a	GoodResponse	0	n/a	n/a	2	34	Cue	AvoidedLoss	True
327.865	4.05	Lose2	0.6	0.0	Yes	2.636	0.001	n/a	GoodResponse	0	n/a	n/a	2	34	Fixation	AvoidedLoss	True
331.911	0.2	Lose2	0.6	0.003	Yes	2.636	-0.003	3.0	GoodResponse	0	0.171	331.082	2	34	Target	AvoidedLoss	True
332.082	0.3	Lose2	0.6	0.003	Yes	2.636	-0.003	3.0	GoodResponse	0	0.171	n/a	2	34	ButtonPress	AvoidedLoss	True
332.111	0.5	Lose2	0.6	n/a	Yes	2.636	n/a	n/a	GoodResponse	0	n/a	n/a	2	34	Blank	AvoidedLoss	True
332.613	1.45	Lose2	0.6	n/a	Yes	2.636	n/a	5.0	GoodResponse	0	0.046	331.659	2	34	Feedback	AvoidedLoss	True
334.067	2.636	Lose2	0.6	n/a	Yes	2.636	n/a	n/a	GoodResponse	0	0.0	n/a	2	34	ISIslide	AvoidedLoss	True
336.725	0.25	Lose2	0.6111	0.0	Yes	2.675	0.025	n/a	GoodResponse	0	n/a	n/a	2	35	Cue	AvoidedLoss	True
336.976	4.0	Lose2	0.6111	0.0	Yes	2.675	0.001	n/a	GoodResponse	0	n/a	n/a	2	35	Fixation	AvoidedLoss	True
340.971	0.21	Lose2	0.6111	0.004	Yes	2.675	-0.004	3.0	GoodResponse	0	0.193	340.164	2	35	Target	AvoidedLoss	True
341.164	0.3	Lose2	0.6111	0.004	Yes	2.675	-0.004	3.0	GoodResponse	0	0.193	n/a	2	35	ButtonPress	AvoidedLoss	True
341.188	0.49	Lose2	0.6111	n/a	Yes	2.675	n/a	n/a	GoodResponse	0	n/a	n/a	2	35	Blank	AvoidedLoss	True
341.673	1.45	Lose2	0.6111	n/a	Yes	2.675	n/a	5.0	GoodResponse	0	0.011	340.684	2	35	Feedback	AvoidedLoss	True
343.128	2.675	Lose2	0.6111	n/a	Yes	2.675	n/a	n/a	GoodResponse	0	0.0	n/a	2	35	ISIslide	AvoidedLoss	True
345.819	0.25	Control	0.6215999999999999	0.0	Yes	2.681	0.019	n/a	GoodResponse	0	n/a	n/a	2	36	Cue	Neutral	True
346.07	4.0	Control	0.6215999999999999	0.0	Yes	2.681	0.001	n/a	GoodResponse	0	n/a	n/a	2	36	Fixation	Neutral	True
350.065	0.22	Control	0.6215999999999999	0.004	Yes	2.681	-0.004	3.0	GoodResponse	0	0.204	349.269	2	36	Target	Neutral	True
350.269	0.3	Control	0.6215999999999999	0.004	Yes	2.681	-0.004	3.0	GoodResponse	0	0.204	n/a	2	36	ButtonPress	Neutral	True
350.299	0.48	Control	0.6215999999999999	n/a	Yes	2.681	n/a	n/a	GoodResponse	0	n/a	n/a	2	36	Blank	Neutral	True
350.767	1.45	Control	0.6215999999999999	n/a	Yes	2.681	n/a	5.0	GoodResponse	0	0.039	349.806	2	36	Feedback	Neutral	True
352.221	2.681	Control	0.6215999999999999	n/a	Yes	2.681	n/a	n/a	GoodResponse	0	0.0	n/a	2	36	ISIslide	Neutral	True
354.93	0.25	Win2	0.6053000000000001	0.0	No	2.87	0.03	n/a	NoResponse	0	n/a	n/a	2	37	Cue	MissedWin	True
355.18	4.0	Win2	0.6053000000000001	0.0	No	2.87	0.0	3.0	NoResponse	0	3.861	358.041	2	37	Fixation	MissedWin	True
359.041	0.3	Win2	0.6053000000000001	0.0	No	2.87	0.0	3.0	NoResponse	0	3.861	n/a	2	37	ButtonPress	MissedWin	True
359.176	0.23	Win2	0.6053000000000001	0.004	No	2.87	-0.004	n/a	NoResponse	0	n/a	n/a	2	37	Target	MissedWin	True
359.41	0.47	Win2	0.6053000000000001	n/a	No	2.87	n/a	n/a	NoResponse	0	n/a	n/a	2	37	Blank	MissedWin	True
359.878	1.45	Win2	0.6053000000000001	n/a	No	2.87	n/a	5.0	NoResponse	0	0.001	358.879	2	37	Feedback	MissedWin	True
361.332	2.87	Win2	0.6053000000000001	n/a	No	2.87	n/a	n/a	NoResponse	0	0.0	n/a	2	37	ISIslide	MissedWin	True
364.224	0.25	Lose2	0.5897	0.0	No	2.826	0.024	n/a	NoResponse	-1	n/a	n/a	1	38	Cue	Loss	True
364.475	3.95	Lose2	0.5897	0.0	No	2.826	0.001	n/a	NoResponse	-1	n/a	n/a	1	38	Fixation	Loss	True
368.42	0.24	Lose2	0.5897	0.004	No	2.826	-0.004	3.0	NoResponse	-1	0.256	367.676	1	38	Target	Loss	True
368.671	0.46	Lose2	0.5897	n/a	No	2.826	n/a	n/a	NoResponse	-1	n/a	n/a	1	38	Blank	Loss	True
368.676	0.3	Lose2	0.5897	0.004	No	2.826	-0.004	3.0	NoResponse	-1	0.256	n/a	1	38	ButtonPress	Loss	True
369.122	1.45	Lose2	0.5897	n/a	No	2.826	n/a	5.0	NoResponse	-1	0.026	368.148	1	38	Feedback	Loss	True
370.576	2.826	Lose2	0.5897	n/a	No	2.826	n/a	n/a	NoResponse	-1	0.0	n/a	1	38	ISIslide	Loss	True
373.418	0.25	Win2	0.6	0.0	Yes	2.982	0.018	n/a	GoodResponse	1	n/a	n/a	2	39	Cue	Win	True
373.669	4.1	Win2	0.6	0.0	Yes	2.982	0.001	n/a	GoodResponse	1	n/a	n/a	2	39	Fixation	Win	True
377.765	0.25	Win2	0.6	0.003	Yes	2.982	-0.003	3.0	GoodResponse	1	0.204	376.969	2	39	Target	Win	True
377.969	0.3	Win2	0.6	0.003	Yes	2.982	-0.003	3.0	GoodResponse	1	0.204	n/a	2	39	ButtonPress	Win	True
378.015	0.45	Win2	0.6	n/a	Yes	2.982	n/a	n/a	GoodResponse	1	n/a	n/a	2	39	Blank	Win	True
378.467	1.45	Win2	0.6	n/a	Yes	2.982	n/a	5.0	GoodResponse	1	0.046	377.513	2	39	Feedback	Win	True
379.921	2.982	Win2	0.6	n/a	Yes	2.982	n/a	n/a	GoodResponse	1	0.0	n/a	2	39	ISIslide	Win	True
382.93	0.25	Win2	0.6098	0.0	Yes	2.72	0.03	n/a	GoodResponse	1	n/a	n/a	3	40	Cue	Win	True
383.181	3.95	Win2	0.6098	0.0	Yes	2.72	0.001	n/a	GoodResponse	1	n/a	n/a	3	40	Fixation	Win	True
387.126	0.26	Win2	0.6098	0.004	Yes	2.72	-0.004	3.0	GoodResponse	1	0.183	386.309	3	40	Target	Win	True
387.309	0.3	Win2	0.6098	0.004	Yes	2.72	-0.004	3.0	GoodResponse	1	0.183	n/a	3	40	ButtonPress	Win	True
387.394	0.44	Win2	0.6098	n/a	Yes	2.72	n/a	n/a	GoodResponse	1	n/a	n/a	3	40	Blank	Win	True
387.828	1.45	Win2	0.6098	n/a	Yes	2.72	n/a	5.0	GoodResponse	1	0.004	386.832	3	40	Feedback	Win	True
389.283	2.72	Win2	0.6098	n/a	Yes	2.72	n/a	n/a	GoodResponse	1	0.0	n/a	3	40	ISIslide	Win	True
392.024	0.25	Win2	0.619	0.0	Yes	2.776	0.024	n/a	GoodResponse	1	n/a	n/a	4	41	Cue	Win	True
392.275	3.9	Win2	0.619	0.0	Yes	2.776	0.001	n/a	GoodResponse	1	n/a	n/a	4	41	Fixation	Win	True
396.17	0.27	Win2	0.619	0.004	Yes	2.776	-0.004	3.0	GoodResponse	1	0.193	395.363	4	41	Target	Win	True
396.363	0.3	Win2	0.619	0.004	Yes	2.776	-0.004	3.0	GoodResponse	1	0.193	n/a	4	41	ButtonPress	Win	True
396.454	0.43	Win2	0.619	n/a	Yes	2.776	n/a	n/a	GoodResponse	1	n/a	n/a	4	41	Blank	Win	True
396.872	1.45	Win2	0.619	n/a	Yes	2.776	n/a	5.0	GoodResponse	1	0.031	395.903	4	41	Feedback	Win	True
398.326	2.776	Win2	0.619	n/a	Yes	2.776	n/a	n/a	GoodResponse	1	0.0	n/a	4	41	ISIslide	Win	True
401.118	0.25	Control	0.6279	0.0	Yes	2.932	0.018	n/a	GoodResponse	0	n/a	n/a	4	42	Cue	Neutral	True
401.369	3.85	Control	0.6279	0.0	Yes	2.932	0.001	n/a	GoodResponse	0	n/a	n/a	4	42	Fixation	Neutral	True
405.214	0.28	Control	0.6279	0.004	Yes	2.932	-0.004	3.0	GoodResponse	0	0.225	404.439	4	42	Target	Neutral	True
405.439	0.3	Control	0.6279	0.004	Yes	2.932	-0.004	3.0	GoodResponse	0	0.225	n/a	4	42	ButtonPress	Neutral	True
405.498	0.42	Control	0.6279	n/a	Yes	2.932	n/a	n/a	GoodResponse	0	n/a	n/a	4	42	Blank	Neutral	True
405.916	1.45	Control	0.6279	n/a	Yes	2.932	n/a	5.0	GoodResponse	0	0.012	404.928	4	42	Feedback	Neutral	True
407.37	2.932	Control	0.6279	n/a	Yes	2.932	n/a	n/a	GoodResponse	0	0.0	n/a	4	42	ISIslide	Neutral	True
410.329	0.25	Win2	0.6364	0.0	Yes	3.171	0.029	n/a	GoodResponse	1	n/a	n/a	5	43	Cue	Win	True
410.58	4.0	Win2	0.6364	0.0	Yes	3.171	0.001	n/a	GoodResponse	1	n/a	n/a	5	43	Fixation	Win	True
414.575	0.29	Win2	0.6364	0.004	Yes	3.171	-0.004	3.0	GoodResponse	1	0.207	413.782	5	43	Target	Win	True
414.782	0.3	Win2	0.6364	0.004	Yes	3.171	-0.004	3.0	GoodResponse	1	0.207	n/a	5	43	ButtonPress	Win	True
414.876	0.41	Win2	0.6364	n/a	Yes	3.171	n/a	n/a	GoodResponse	1	n/a	n/a	5	43	Blank	Win	True
415.277	1.45	Win2	0.6364	n/a	Yes	3.171	n/a	5.0	GoodResponse	1	0.017	414.294	5	43	Feedback	Win	True
416.731	3.171	Win2	0.6364	n/a	Yes	3.171	n/a	n/a	GoodResponse	1	0.0	n/a	5	43	ISIslide	Win	True
419.924	0.25	Win2	0.6444	0.0	Yes	2.976	0.024	n/a	GoodResponse	1	n/a	n/a	6	44	Cue	Win	True
420.175	4.0	Win2	0.6444	0.0	Yes	2.976	0.001	n/a	GoodResponse	1	n/a	n/a	6	44	Fixation	Win	True
424.17	0.3	Win2	0.6444	0.004	Yes	2.976	-0.004	3.0	GoodResponse	1	0.205	423.375	6	44	Target	Win	True
424.375	0.3	Win2	0.6444	0.004	Yes	2.976	-0.004	3.0	GoodResponse	1	0.205	n/a	6	44	ButtonPress	Win	True
424.471	0.4	Win2	0.6444	n/a	Yes	2.976	n/a	n/a	GoodResponse	1	n/a	n/a	6	44	Blank	Win	True
424.872	1.45	Win2	0.6444	n/a	Yes	2.976	n/a	5.0	GoodResponse	1	0.031	423.903	6	44	Feedback	Win	True
426.327	2.976	Win2	0.6444	n/a	Yes	2.976	n/a	n/a	GoodResponse	1	0.0	n/a	6	44	ISIslide	Win	True
429.319	0.25	Control	0.6522	0.0	Yes	2.881	0.019	n/a	GoodResponse	0	n/a	n/a	6	45	Cue	Neutral	True
429.57	4.1	Control	0.6522	0.0	Yes	2.881	0.001	n/a	GoodResponse	0	n/a	n/a	6	45	Fixation	Neutral	True
433.665	0.31	Control	0.6522	0.004	Yes	2.881	-0.004	3.0	GoodResponse	0	0.24	432.905	6	45	Target	Neutral	True
433.905	0.3	Control	0.6522	0.004	Yes	2.881	-0.004	3.0	GoodResponse	0	0.24	n/a	6	45	ButtonPress	Neutral	True
433.983	0.39	Control	0.6522	n/a	Yes	2.881	n/a	n/a	GoodResponse	0	n/a	n/a	6	45	Blank	Neutral	True
434.368	1.45	Control	0.6522	n/a	Yes	2.881	n/a	5.0	GoodResponse	0	0.048	433.416	6	45	Feedback	Neutral	True
435.822	2.881	Control	0.6522	n/a	Yes	2.881	n/a	n/a	GoodResponse	0	0.0	n/a	6	45	ISIslide	Neutral	True
438.714	0.25	Lose2	0.6596	0.0	Yes	3.386	0.014	n/a	GoodResponse	0	n/a	n/a	6	46	Cue	AvoidedLoss	True
438.965	4.0	Lose2	0.6596	0.0	Yes	3.386	0.001	n/a	GoodResponse	0	n/a	n/a	6	46	Fixation	AvoidedLoss	True
442.96	0.32	Lose2	0.6596	0.004	Yes	3.386	-0.004	3.0	GoodResponse	0	0.22	442.18	6	46	Target	AvoidedLoss	True
443.18	0.3	Lose2	0.6596	0.004	Yes	3.386	-0.004	3.0	GoodResponse	0	0.22	n/a	6	46	ButtonPress	AvoidedLoss	True
443.294	0.38	Lose2	0.6596	n/a	Yes	3.386	n/a	n/a	GoodResponse	0	n/a	n/a	6	46	Blank	AvoidedLoss	True
443.662	1.45	Lose2	0.6596	n/a	Yes	3.386	n/a	5.0	GoodResponse	0	0.021	442.683	6	46	Feedback	AvoidedLoss	True
445.116	3.386	Lose2	0.6596	n/a	Yes	3.386	n/a	n/a	GoodResponse	0	0.0	n/a	6	46	ISIslide	AvoidedLoss	True
448.527	0.25	Lose2	0.6667000000000001	0.0	Yes	2.673	0.027	n/a	GoodResponse	0	n/a	n/a	6	47	Cue	AvoidedLoss	True
448.777	4.0	Lose2	0.6667000000000001	0.001	Yes	2.673	0.0	n/a	GoodResponse	0	n/a	n/a	6	47	Fixation	AvoidedLoss	True
452.773	0.32	Lose2	0.6667000000000001	0.004	Yes	2.673	-0.004	3.0	GoodResponse	0	0.258	452.031	6	47	Target	AvoidedLoss	True
453.031	0.3	Lose2	0.6667000000000001	0.004	Yes	2.673	-0.004	3.0	GoodResponse	0	0.258	n/a	6	47	ButtonPress	AvoidedLoss	True
453.107	0.38	Lose2	0.6667000000000001	n/a	Yes	2.673	n/a	n/a	GoodResponse	0	n/a	n/a	6	47	Blank	AvoidedLoss	True
453.475	1.45	Lose2	0.6667000000000001	n/a	Yes	2.673	n/a	5.0	GoodResponse	0	0.013	452.488	6	47	Feedback	AvoidedLoss	True
454.929	2.673	Lose2	0.6667000000000001	n/a	Yes	2.673	n/a	n/a	GoodResponse	0	0.0	n/a	6	47	ISIslide	AvoidedLoss	True
457.621	0.25	Lose2	0.6531	0.0	No	3.029	0.021	n/a	NoResponse	-1	n/a	n/a	5	48	Cue	Loss	False
457.871	3.95	Lose2	0.6531	0.0	No	3.029	0.0	n/a	NoResponse	-1	n/a	n/a	5	48	Fixation	Loss	False
461.817	0.31	Lose2	0.6531	0.004	No	3.029	-0.004	n/a	NoResponse	-1	n/a	n/a	5	48	Target	Loss	False
462.134	0.39	Lose2	0.6531	n/a	No	3.029	n/a	n/a	NoResponse	-1	n/a	n/a	5	48	Blank	Loss	False
462.519	1.45	Lose2	0.6531	n/a	No	3.029	n/a	5.0	NoResponse	-1	0.042	461.561	5	48	Feedback	Loss	False
463.973	3.029	Lose2	0.6531	n/a	No	3.029	n/a	n/a	NoResponse	-1	0.0	n/a	5	48	ISIslide	Loss	False
467.015	0.25	Control	0.66	0.0	Yes	2.885	0.015	n/a	GoodResponse	0	n/a	n/a	5	49	Cue	Neutral	True
467.266	4.0	Control	0.66	0.0	Yes	2.885	0.001	n/a	GoodResponse	0	n/a	n/a	5	49	Fixation	Neutral	True
471.261	0.32	Control	0.66	0.004	Yes	2.885	-0.004	3.0	GoodResponse	0	0.171	470.432	5	49	Target	Neutral	True
471.432	0.3	Control	0.66	0.004	Yes	2.885	-0.004	3.0	GoodResponse	0	0.171	n/a	5	49	ButtonPress	Neutral	True
471.596	0.38	Control	0.66	n/a	Yes	2.885	n/a	n/a	GoodResponse	0	n/a	n/a	5	49	Blank	Neutral	True
471.964	1.45	Control	0.66	n/a	Yes	2.885	n/a	5.0	GoodResponse	0	0.012	470.976	5	49	Feedback	Neutral	True
473.418	2.885	Control	0.66	n/a	Yes	2.885	n/a	n/a	GoodResponse	0	0.0	n/a	5	49	ISIslide	Neutral	True
476.327	0.25	Control	0.6667000000000001	0.0	Yes	2.773	0.027	n/a	GoodResponse	0	n/a	n/a	5	50	Cue	Neutral	True
476.577	4.0	Control	0.6667000000000001	0.0	Yes	2.773	0.0	n/a	GoodResponse	0	n/a	n/a	5	50	Fixation	Neutral	True
480.573	0.32	Control	0.6667000000000001	0.004	Yes	2.773	-0.004	3.0	GoodResponse	0	0.171	479.744	5	50	Target	Neutral	True
480.744	0.3	Control	0.6667000000000001	0.004	Yes	2.773	-0.004	3.0	GoodResponse	0	0.171	n/a	5	50	ButtonPress	Neutral	True
480.907	0.38	Control	0.6667000000000001	n/a	Yes	2.773	n/a	n/a	GoodResponse	0	n/a	n/a	5	50	Blank	Neutral	True
481.275	1.45	Control	0.6667000000000001	n/a	Yes	2.773	n/a	5.0	GoodResponse	0	0.018	480.293	5	50	Feedback	Neutral	True
482.729	2.773	Control	0.6667000000000001	n/a	Yes	2.773	n/a	n/a	GoodResponse	0	0.0	n/a	5	50	ISIslide	Neutral	True
485.521	0.25	Control	0.6731	0.0	Yes	2.729	0.021	n/a	GoodResponse	0	n/a	n/a	5	51	Cue	Neutral	True
485.772	3.95	Control	0.6731	0.0	Yes	2.729	0.001	n/a	GoodResponse	0	n/a	n/a	5	51	Fixation	Neutral	True
489.717	0.31	Control	0.6731	0.004	Yes	2.729	-0.004	3.0	GoodResponse	0	0.236	488.953	5	51	Target	Neutral	True
489.953	0.3	Control	0.6731	0.004	Yes	2.729	-0.004	3.0	GoodResponse	0	0.236	n/a	5	51	ButtonPress	Neutral	True
490.034	0.39	Control	0.6731	n/a	Yes	2.729	n/a	n/a	GoodResponse	0	n/a	n/a	5	51	Blank	Neutral	True
490.419	1.45	Control	0.6731	n/a	Yes	2.729	n/a	5.0	GoodResponse	0	0.045	489.464	5	51	Feedback	Neutral	True
491.873	2.729	Control	0.6731	n/a	Yes	2.729	n/a	n/a	GoodResponse	0	0.0	n/a	5	51	ISIslide	Neutral	True
494.615	0.25	Control	0.6792	0.0	Yes	2.635	0.015	n/a	GoodResponse	0	n/a	n/a	5	52	Cue	Neutral	True
494.866	4.05	Control	0.6792	0.0	Yes	2.635	0.001	n/a	GoodResponse	0	n/a	n/a	5	52	Fixation	Neutral	True
498.911	0.3	Control	0.6792	0.004	Yes	2.635	-0.004	3.0	GoodResponse	0	0.209	498.12	5	52	Target	Neutral	True
499.12	0.3	Control	0.6792	0.004	Yes	2.635	-0.004	3.0	GoodResponse	0	0.209	n/a	5	52	ButtonPress	Neutral	True
499.212	0.4	Control	0.6792	n/a	Yes	2.635	n/a	n/a	GoodResponse	0	n/a	n/a	5	52	Blank	Neutral	True
499.613	1.45	Control	0.6792	n/a	Yes	2.635	n/a	5.0	GoodResponse	0	0.021	498.634	5	52	Feedback	Neutral	True
501.067	2.635	Control	0.6792	n/a	Yes	2.635	n/a	n/a	GoodResponse	0	0.0	n/a	5	52	ISIslide	Neutral	True
503.725	0.25	Win2	0.6851999999999999	0.001	Yes	2.925	0.025	n/a	GoodResponse	1	n/a	n/a	6	53	Cue	Win	True
503.976	4.05	Win2	0.6851999999999999	0.0	Yes	2.925	0.001	n/a	GoodResponse	1	n/a	n/a	6	53	Fixation	Win	True
508.022	0.29	Win2	0.6851999999999999	0.003	Yes	2.925	-0.003	3.0	GoodResponse	1	0.196	507.218	6	53	Target	Win	True
508.218	0.3	Win2	0.6851999999999999	0.003	Yes	2.925	-0.003	3.0	GoodResponse	1	0.196	n/a	6	53	ButtonPress	Win	True
508.323	0.41	Win2	0.6851999999999999	n/a	Yes	2.925	n/a	n/a	GoodResponse	1	n/a	n/a	6	53	Blank	Win	True
508.724	1.45	Win2	0.6851999999999999	n/a	Yes	2.925	n/a	5.0	GoodResponse	1	0.032	507.756	6	53	Feedback	Win	True
510.178	2.925	Win2	0.6851999999999999	n/a	Yes	2.925	n/a	n/a	GoodResponse	1	0.0	n/a	6	53	ISIslide	Win	True
513.12	0.25	Win2	0.6909000000000001	0.0	Yes	2.73	0.02	n/a	GoodResponse	1	n/a	n/a	7	54	Cue	Win	True
513.371	3.95	Win2	0.6909000000000001	0.0	Yes	2.73	0.001	n/a	GoodResponse	1	n/a	n/a	7	54	Fixation	Win	True
517.316	0.28	Win2	0.6909000000000001	0.004	Yes	2.73	-0.004	3.0	GoodResponse	1	0.213	516.529	7	54	Target	Win	True
517.529	0.3	Win2	0.6909000000000001	0.004	Yes	2.73	-0.004	3.0	GoodResponse	1	0.213	n/a	7	54	ButtonPress	Win	True
517.6	0.42	Win2	0.6909000000000001	n/a	Yes	2.73	n/a	n/a	GoodResponse	1	n/a	n/a	7	54	Blank	Win	True
518.018	1.45	Win2	0.6909000000000001	n/a	Yes	2.73	n/a	5.0	GoodResponse	1	0.007	517.025	7	54	Feedback	Win	True
519.473	2.73	Win2	0.6909000000000001	n/a	Yes	2.73	n/a	n/a	GoodResponse	1	0.0	n/a	7	54	ISIslide	Win	True
522.214	0.25	Control	0.6964	0.0	Yes	3.036	0.014	n/a	GoodResponse	0	n/a	n/a	7	55	Cue	Neutral	True
522.465	3.95	Control	0.6964	0.0	Yes	3.036	0.001	n/a	GoodResponse	0	n/a	n/a	7	55	Fixation	Neutral	True
526.41	0.27	Control	0.6964	0.004	Yes	3.036	-0.004	3.0	GoodResponse	0	0.259	525.669	7	55	Target	Neutral	True
526.669	0.3	Control	0.6964	0.004	Yes	3.036	-0.004	3.0	GoodResponse	0	0.259	n/a	7	55	ButtonPress	Neutral	True
526.694	0.43	Control	0.6964	n/a	Yes	3.036	n/a	n/a	GoodResponse	0	n/a	n/a	7	55	Blank	Neutral	True
527.112	1.45	Control	0.6964	n/a	Yes	3.036	n/a	5.0	GoodResponse	0	0.035	526.147	7	55	Feedback	Neutral	True
528.567	3.036	Control	0.6964	n/a	Yes	3.036	n/a	n/a	GoodResponse	0	0.0	n/a	7	55	ISIslide	Neutral	True
531.626	0.25	Control	0.6842	0.0	No	2.824	0.026	n/a	NoResponse	0	n/a	n/a	7	56	Cue	Neutral	True
531.876	3.95	Control	0.6842	0.001	No	2.824	0.0	n/a	NoResponse	0	n/a	n/a	7	56	Fixation	Neutral	True
535.822	0.26	Control	0.6842	0.004	No	2.824	-0.004	3.0	NoResponse	0	0.335	535.157	7	56	Target	Neutral	True
536.089	0.44	Control	0.6842	n/a	No	2.824	n/a	n/a	NoResponse	0	n/a	n/a	7	56	Blank	Neutral	True
536.157	0.3	Control	0.6842	0.004	No	2.824	-0.004	3.0	NoResponse	0	0.335	n/a	7	56	ButtonPress	Neutral	True
536.524	1.45	Control	0.6842	n/a	No	2.824	n/a	5.0	NoResponse	0	0.037	535.561	7	56	Feedback	Neutral	True
537.978	2.824	Control	0.6842	n/a	No	2.824	n/a	n/a	NoResponse	0	0.0	n/a	7	56	ISIslide	Neutral	True
540.82	0.25	Control	0.6724	0.0	No	3.48	0.02	n/a	NoResponse	0	n/a	n/a	7	57	Cue	Neutral	True
541.071	4.0	Control	0.6724	0.0	No	3.48	0.001	n/a	NoResponse	0	n/a	n/a	7	57	Fixation	Neutral	True
545.066	0.25	Control	0.6724	0.004	No	3.48	-0.004	3.0	NoResponse	0	0.277	544.343	7	57	Target	Neutral	True
545.317	0.45	Control	0.6724	n/a	No	3.48	n/a	n/a	NoResponse	0	n/a	n/a	7	57	Blank	Neutral	True
545.343	0.3	Control	0.6724	0.004	No	3.48	-0.004	3.0	NoResponse	0	0.277	n/a	7	57	ButtonPress	Neutral	True
545.768	1.45	Control	0.6724	n/a	No	3.48	n/a	5.0	NoResponse	0	0.013	544.781	7	57	Feedback	Neutral	True
547.222	3.48	Control	0.6724	n/a	No	3.48	n/a	n/a	NoResponse	0	0.0	n/a	7	57	ISIslide	Neutral	True
550.716	0.25	Win2	0.6779999999999999	0.0	Yes	2.734	0.016	n/a	GoodResponse	1	n/a	n/a	8	58	Cue	Win	True
550.967	4.05	Win2	0.6779999999999999	0.0	Yes	2.734	0.001	n/a	GoodResponse	1	n/a	n/a	8	58	Fixation	Win	True
555.012	0.24	Win2	0.6779999999999999	0.004	Yes	2.734	-0.004	3.0	GoodResponse	1	0.219	554.231	8	58	Target	Win	True
555.231	0.3	Win2	0.6779999999999999	0.004	Yes	2.734	-0.004	3.0	GoodResponse	1	0.219	n/a	8	58	ButtonPress	Win	True
555.263	0.46	Win2	0.6779999999999999	n/a	Yes	2.734	n/a	n/a	GoodResponse	1	n/a	n/a	8	58	Blank	Win	True
555.715	1.45	Win2	0.6779999999999999	n/a	Yes	2.734	n/a	5.0	GoodResponse	1	0.017	554.732	8	58	Feedback	Win	True
557.169	2.734	Win2	0.6779999999999999	n/a	Yes	2.734	n/a	n/a	GoodResponse	1	0.0	n/a	8	58	ISIslide	Win	True
559.927	0.25	Lose2	0.6667000000000001	0.0	No	2.673	0.027	n/a	NoResponse	-1	n/a	n/a	7	59	Cue	Loss	False
560.178	4.0	Lose2	0.6667000000000001	0.0	No	2.673	0.001	n/a	NoResponse	-1	n/a	n/a	7	59	Fixation	Loss	False
564.173	0.23	Lose2	0.6667000000000001	0.004	No	2.673	-0.004	n/a	NoResponse	-1	n/a	n/a	7	59	Target	Loss	False
564.407	0.47	Lose2	0.6667000000000001	n/a	No	2.673	n/a	n/a	NoResponse	-1	n/a	n/a	7	59	Blank	Loss	False
564.875	1.45	Lose2	0.6667000000000001	n/a	No	2.673	n/a	5.0	NoResponse	-1	0.027	563.902	7	59	Feedback	Loss	False
566.33	2.673	Lose2	0.6667000000000001	n/a	No	2.673	n/a	n/a	NoResponse	-1	0.0	n/a	7	59	ISIslide	Loss	False
569.021	0.25	Control	0.6557	0.0	No	2.679	0.021	n/a	NoResponse	0	n/a	n/a	7	60	Cue	Neutral	True
569.272	4.0	Control	0.6557	0.0	No	2.679	0.001	n/a	NoResponse	0	n/a	n/a	7	60	Fixation	Neutral	True
573.267	0.22	Control	0.6557	0.004	No	2.679	-0.004	3.0	NoResponse	0	0.244	572.511	7	60	Target	Neutral	True
573.501	0.48	Control	0.6557	n/a	No	2.679	n/a	n/a	NoResponse	0	n/a	n/a	7	60	Blank	Neutral	True
573.511	0.3	Control	0.6557	0.004	No	2.679	-0.004	3.0	NoResponse	0	0.244	n/a	7	60	ButtonPress	Neutral	True
573.969	1.45	Control	0.6557	n/a	No	2.679	n/a	5.0	NoResponse	0	0.007	572.976	7	60	Feedback	Neutral	True
575.424	2.679	Control	0.6557	n/a	No	2.679	n/a	n/a	NoResponse	0	0.0	n/a	7	60	ISIslide	Neutral	True
578.115	0.25	Lose2	0.6613	0.0	Yes	2.985	0.015	n/a	GoodResponse	0	n/a	n/a	7	61	Cue	AvoidedLoss	True
578.366	4.0	Lose2	0.6613	0.0	Yes	2.985	0.001	n/a	GoodResponse	0	n/a	n/a	7	61	Fixation	AvoidedLoss	True
582.361	0.22	Lose2	0.6613	0.004	Yes	2.985	-0.004	3.0	GoodResponse	0	0.202	581.563	7	61	Target	AvoidedLoss	True
582.563	0.3	Lose2	0.6613	0.004	Yes	2.985	-0.004	3.0	GoodResponse	0	0.202	n/a	7	61	ButtonPress	AvoidedLoss	True
582.595	0.48	Lose2	0.6613	n/a	Yes	2.985	n/a	n/a	GoodResponse	0	n/a	n/a	7	61	Blank	AvoidedLoss	True
583.063	1.45	Lose2	0.6613	n/a	Yes	2.985	n/a	5.0	GoodResponse	0	0.035	582.098	7	61	Feedback	AvoidedLoss	True
584.518	2.985	Lose2	0.6613	n/a	Yes	2.985	n/a	n/a	GoodResponse	0	0.0	n/a	7	61	ISIslide	AvoidedLoss	True
587.527	0.25	Lose2	0.6507999999999999	0.0	No	2.873	0.027	n/a	NoResponse	-1	n/a	n/a	6	62	Cue	Loss	True
587.777	3.9	Lose2	0.6507999999999999	0.0	No	2.873	0.0	n/a	NoResponse	-1	n/a	n/a	6	62	Fixation	Loss	True
591.689	0.22	Lose2	0.6507999999999999	0.0	No	2.873	0.012	3.0	NoResponse	-1	0.24	590.929	6	62	Target	Loss	True
591.906	0.48	Lose2	0.6507999999999999	n/a	No	2.873	n/a	n/a	NoResponse	-1	n/a	n/a	6	62	Blank	Loss	True
591.929	0.3	Lose2	0.6507999999999999	0.0	No	2.873	0.012	3.0	NoResponse	-1	0.24	n/a	6	62	ButtonPress	Loss	True
592.374	1.45	Lose2	0.6507999999999999	n/a	No	2.873	n/a	5.0	NoResponse	-1	0.041	591.415	6	62	Feedback	Loss	True
593.829	2.873	Lose2	0.6507999999999999	n/a	No	2.873	n/a	n/a	NoResponse	-1	0.0	n/a	6	62	ISIslide	Loss	True
596.721	0.25	Lose2	0.6562	0.0	Yes	2.629	0.021	n/a	GoodResponse	0	n/a	n/a	6	63	Cue	AvoidedLoss	True
596.971	4.05	Lose2	0.6562	0.001	Yes	2.629	0.0	n/a	GoodResponse	0	n/a	n/a	6	63	Fixation	AvoidedLoss	True
601.017	0.23	Lose2	0.6562	0.004	Yes	2.629	-0.004	3.0	GoodResponse	0	0.196	600.213	6	63	Target	AvoidedLoss	True
601.213	0.3	Lose2	0.6562	0.004	Yes	2.629	-0.004	3.0	GoodResponse	0	0.196	n/a	6	63	ButtonPress	AvoidedLoss	True
601.251	0.47	Lose2	0.6562	n/a	Yes	2.629	n/a	n/a	GoodResponse	0	n/a	n/a	6	63	Blank	AvoidedLoss	True
601.719	1.45	Lose2	0.6562	n/a	Yes	2.629	n/a	5.0	GoodResponse	0	0.013	600.732	6	63	Feedback	AvoidedLoss	True
603.173	2.629	Lose2	0.6562	n/a	Yes	2.629	n/a	n/a	GoodResponse	0	0.0	n/a	6	63	ISIslide	AvoidedLoss	True
605.815	0.25	Win2	0.6615000000000001	0.0	Yes	3.135	0.015	n/a	GoodResponse	1	n/a	n/a	7	64	Cue	Win	True
606.065	4.15	Win2	0.6615000000000001	0.0	Yes	3.135	0.0	n/a	GoodResponse	1	n/a	n/a	7	64	Fixation	Win	True
610.211	0.23	Win2	0.6615000000000001	0.004	Yes	3.135	-0.004	3.0	GoodResponse	1	0.194	609.405	7	64	Target	Win	True
610.405	0.3	Win2	0.6615000000000001	0.004	Yes	3.135	-0.004	3.0	GoodResponse	1	0.194	n/a	7	64	ButtonPress	Win	True
610.445	0.47	Win2	0.6615000000000001	n/a	Yes	3.135	n/a	n/a	GoodResponse	1	n/a	n/a	7	64	Blank	Win	True
610.913	1.45	Win2	0.6615000000000001	n/a	Yes	3.135	n/a	5.0	GoodResponse	1	0.039	609.952	7	64	Feedback	Win	True
612.368	3.135	Win2	0.6615000000000001	n/a	Yes	3.135	n/a	n/a	GoodResponse	1	0.0	n/a	7	64	ISIslide	Win	True
615.527	0.25	Control	0.6667000000000001	0.0	Yes	2.773	0.027	n/a	GoodResponse	0	n/a	n/a	7	65	Cue	Neutral	True
615.778	4.0	Control	0.6667000000000001	0.0	Yes	2.773	0.001	n/a	GoodResponse	0	n/a	n/a	7	65	Fixation	Neutral	True
619.773	0.23	Control	0.6667000000000001	0.004	Yes	2.773	-0.004	3.0	GoodResponse	0	0.223	618.996	7	65	Target	Neutral	True
619.996	0.3	Control	0.6667000000000001	0.004	Yes	2.773	-0.004	3.0	GoodResponse	0	0.223	n/a	7	65	ButtonPress	Neutral	True
620.007	0.47	Control	0.6667000000000001	n/a	Yes	2.773	n/a	n/a	GoodResponse	0	n/a	n/a	7	65	Blank	Neutral	True
620.475	1.45	Control	0.6667000000000001	n/a	Yes	2.773	n/a	5.0	GoodResponse	0	0.037	619.512	7	65	Feedback	Neutral	True
621.93	2.773	Control	0.6667000000000001	n/a	Yes	2.773	n/a	n/a	GoodResponse	0	0.0	n/a	7	65	ISIslide	Neutral	True
624.721	0.25	Win2	0.6567000000000001	0.0	No	2.779	0.021	n/a	NoResponse	0	n/a	n/a	7	66	Cue	MissedWin	True
624.972	3.9	Win2	0.6567000000000001	0.0	No	2.779	0.001	n/a	NoResponse	0	n/a	n/a	7	66	Fixation	MissedWin	True
628.867	0.22	Win2	0.6567000000000001	0.004	No	2.779	-0.004	3.0	NoResponse	0	0.302	628.169	7	66	Target	MissedWin	True
629.101	0.48	Win2	0.6567000000000001	n/a	No	2.779	n/a	n/a	NoResponse	0	n/a	n/a	7	66	Blank	MissedWin	True
629.169	0.3	Win2	0.6567000000000001	0.004	No	2.779	-0.004	3.0	NoResponse	0	0.302	n/a	7	66	ButtonPress	MissedWin	True
629.569	1.45	Win2	0.6567000000000001	n/a	No	2.779	n/a	5.0	NoResponse	0	0.016	628.585	7	66	Feedback	MissedWin	True
631.024	2.779	Win2	0.6567000000000001	n/a	No	2.779	n/a	n/a	NoResponse	0	0.0	n/a	7	66	ISIslide	MissedWin	True
633.815	0.25	Control	0.6470999999999999	0.0	No	2.735	0.015	n/a	NoResponse	0	n/a	n/a	7	67	Cue	Neutral	False
634.066	3.95	Control	0.6470999999999999	0.0	No	2.735	0.001	n/a	NoResponse	0	n/a	n/a	7	67	Fixation	Neutral	False
638.011	0.22	Control	0.6470999999999999	0.004	No	2.735	-0.004	n/a	NoResponse	0	n/a	n/a	7	67	Target	Neutral	False
638.245	0.48	Control	0.6470999999999999	n/a	No	2.735	n/a	n/a	NoResponse	0	n/a	n/a	7	67	Blank	Neutral	False
638.713	1.45	Control	0.6470999999999999	n/a	No	2.735	n/a	5.0	NoResponse	0	0.043	637.756	7	67	Feedback	Neutral	False
640.168	2.735	Control	0.6470999999999999	n/a	No	2.735	n/a	n/a	NoResponse	0	0.0	n/a	7	67	ISIslide	Neutral	False
642.926	0.25	Win2	0.6522	0.0	Yes	3.074	0.026	n/a	GoodResponse	1	n/a	n/a	8	68	Cue	Win	True
643.177	4.0	Win2	0.6522	0.0	Yes	3.074	0.001	n/a	GoodResponse	1	n/a	n/a	8	68	Fixation	Win	True
647.172	0.23	Win2	0.6522	0.004	Yes	3.074	-0.004	3.0	GoodResponse	1	0.222	646.394	8	68	Target	Win	True
647.394	0.3	Win2	0.6522	0.004	Yes	3.074	-0.004	3.0	GoodResponse	1	0.222	n/a	8	68	ButtonPress	Win	True
647.406	0.47	Win2	0.6522	n/a	Yes	3.074	n/a	n/a	GoodResponse	1	n/a	n/a	8	68	Blank	Win	True
647.874	1.45	Win2	0.6522	n/a	Yes	3.074	n/a	5.0	GoodResponse	1	0.005	646.879	8	68	Feedback	Win	True
649.328	3.074	Win2	0.6522	n/a	Yes	3.074	n/a	n/a	GoodResponse	1	0.0	n/a	8	68	ISIslide	Win	True
652.421	0.25	Win2	0.6570999999999999	0.0	Yes	3.229	0.021	n/a	GoodResponse	1	n/a	n/a	9	69	Cue	Win	True
652.672	3.95	Win2	0.6570999999999999	0.0	Yes	3.229	0.001	n/a	GoodResponse	1	n/a	n/a	9	69	Fixation	Win	True
656.617	0.24	Win2	0.6570999999999999	0.004	Yes	3.229	-0.004	3.0	GoodResponse	1	0.225	655.842	9	69	Target	Win	True
656.842	0.3	Win2	0.6570999999999999	0.004	Yes	3.229	-0.004	3.0	GoodResponse	1	0.225	n/a	9	69	ButtonPress	Win	True
656.868	0.46	Win2	0.6570999999999999	n/a	Yes	3.229	n/a	n/a	GoodResponse	1	n/a	n/a	9	69	Blank	Win	True
657.319	1.45	Win2	0.6570999999999999	n/a	Yes	3.229	n/a	5.0	GoodResponse	1	0.022	656.341	9	69	Feedback	Win	True
658.773	3.229	Win2	0.6570999999999999	n/a	Yes	3.229	n/a	n/a	GoodResponse	1	0.0	n/a	9	69	ISIslide	Win	True
662.016	0.25	Lose2	0.662	0.0	Yes	3.034	0.016	n/a	GoodResponse	0	n/a	n/a	9	70	Cue	AvoidedLoss	True
662.267	4.05	Lose2	0.662	0.0	Yes	3.034	0.001	n/a	GoodResponse	0	n/a	n/a	9	70	Fixation	AvoidedLoss	True
666.313	0.24	Lose2	0.662	0.003	Yes	3.034	-0.003	3.0	GoodResponse	0	0.19	665.503	9	70	Target	AvoidedLoss	True
666.503	0.3	Lose2	0.662	0.003	Yes	3.034	-0.003	3.0	GoodResponse	0	0.19	n/a	9	70	ButtonPress	AvoidedLoss	True
666.563	0.46	Lose2	0.662	n/a	Yes	3.034	n/a	n/a	GoodResponse	0	n/a	n/a	9	70	Blank	AvoidedLoss	True
667.015	1.45	Lose2	0.662	n/a	Yes	3.034	n/a	5.0	GoodResponse	0	0.034	666.049	9	70	Feedback	AvoidedLoss	True
668.469	3.034	Lose2	0.662	n/a	Yes	3.034	n/a	n/a	GoodResponse	0	0.0	n/a	9	70	ISIslide	AvoidedLoss	True
671.528	0.25	Win2	0.6667000000000001	0.0	Yes	2.722	0.028	n/a	GoodResponse	1	n/a	n/a	10	71	Cue	Win	True
671.779	4.05	Win2	0.6667000000000001	0.0	Yes	2.722	0.001	n/a	GoodResponse	1	n/a	n/a	10	71	Fixation	Win	True
675.824	0.24	Win2	0.6667000000000001	0.004	Yes	2.722	-0.004	3.0	GoodResponse	1	0.187	675.011	10	71	Target	Win	True
676.011	0.3	Win2	0.6667000000000001	0.004	Yes	2.722	-0.004	3.0	GoodResponse	1	0.187	n/a	10	71	ButtonPress	Win	True
676.075	0.46	Win2	0.6667000000000001	n/a	Yes	2.722	n/a	n/a	GoodResponse	1	n/a	n/a	10	71	Blank	Win	True
676.527	1.45	Win2	0.6667000000000001	n/a	Yes	2.722	n/a	5.0	GoodResponse	1	0.033	675.56	10	71	Feedback	Win	True
677.981	2.722	Win2	0.6667000000000001	n/a	Yes	2.722	n/a	n/a	GoodResponse	1	0.0	n/a	10	71	ISIslide	Win	True
680.722	0.25	Win2	0.6712	0.001	Yes	2.778	0.022	n/a	GoodResponse	1	n/a	n/a	11	72	Cue	Win	True
680.973	4.1	Win2	0.6712	0.0	Yes	2.778	0.001	n/a	GoodResponse	1	n/a	n/a	11	72	Fixation	Win	True
685.069	0.23	Win2	0.6712	0.003	Yes	2.778	-0.003	3.0	GoodResponse	1	0.208	684.277	11	72	Target	Win	True
685.277	0.3	Win2	0.6712	0.003	Yes	2.778	-0.003	3.0	GoodResponse	1	0.208	n/a	11	72	ButtonPress	Win	True
685.303	0.47	Win2	0.6712	n/a	Yes	2.778	n/a	n/a	GoodResponse	1	n/a	n/a	11	72	Blank	Win	True
685.771	1.45	Win2	0.6712	n/a	Yes	2.778	n/a	5.0	GoodResponse	1	0.009	684.78	11	72	Feedback	Win	True
687.225	2.778	Win2	0.6712	n/a	Yes	2.778	n/a	n/a	GoodResponse	1	0.0	n/a	11	72	ISIslide	Win	True
690.017	0.25	Win2	0.6622	0.0	No	2.683	0.017	n/a	NoResponse	0	n/a	n/a	11	73	Cue	MissedWin	True
690.268	4.0	Win2	0.6622	0.0	No	2.683	0.001	n/a	NoResponse	0	n/a	n/a	11	73	Fixation	MissedWin	True
694.263	0.22	Win2	0.6622	0.004	No	2.683	-0.004	3.0	NoResponse	0	0.433	693.696	11	73	Target	MissedWin	True
694.497	0.48	Win2	0.6622	n/a	No	2.683	n/a	n/a	NoResponse	0	n/a	n/a	11	73	Blank	MissedWin	True
694.696	0.3	Win2	0.6622	0.004	No	2.683	-0.004	3.0	NoResponse	0	0.433	n/a	11	73	ButtonPress	MissedWin	True
694.965	1.45	Win2	0.6622	n/a	No	2.683	n/a	5.0	NoResponse	0	0.034	693.999	11	73	Feedback	MissedWin	True
696.419	2.683	Win2	0.6622	n/a	No	2.683	n/a	n/a	NoResponse	0	0.0	n/a	11	73	ISIslide	MissedWin	True
699.128	0.25	Lose2	0.6667000000000001	0.0	Yes	2.622	0.028	n/a	GoodResponse	0	n/a	n/a	11	74	Cue	AvoidedLoss	True
699.378	4.05	Lose2	0.6667000000000001	0.0	Yes	2.622	0.0	n/a	GoodResponse	0	n/a	n/a	11	74	Fixation	AvoidedLoss	True
703.424	0.22	Lose2	0.6667000000000001	0.004	Yes	2.622	-0.004	3.0	GoodResponse	0	0.199	702.623	11	74	Target	AvoidedLoss	True
703.623	0.3	Lose2	0.6667000000000001	0.004	Yes	2.622	-0.004	3.0	GoodResponse	0	0.199	n/a	11	74	ButtonPress	AvoidedLoss	True
703.658	0.48	Lose2	0.6667000000000001	n/a	Yes	2.622	n/a	n/a	GoodResponse	0	n/a	n/a	11	74	Blank	AvoidedLoss	True
704.126	1.45	Lose2	0.6667000000000001	n/a	Yes	2.622	n/a	5.0	GoodResponse	0	0.044	703.17	11	74	Feedback	AvoidedLoss	True
705.58	2.622	Lose2	0.6667000000000001	n/a	Yes	2.622	n/a	n/a	GoodResponse	0	0.0	n/a	11	74	ISIslide	AvoidedLoss	True
708.222	0.25	Lose2	0.6579	0.0	No	2.928	0.022	n/a	NoResponse	-1	n/a	n/a	10	75	Cue	Loss	True
708.472	3.95	Lose2	0.6579	0.0	No	2.928	0.0	n/a	NoResponse	-1	n/a	n/a	10	75	Fixation	Loss	True
712.434	0.21	Lose2	0.6579	0.0	No	2.928	0.012	3.0	NoResponse	-1	0.215	711.649	10	75	Target	Loss	True
712.635	0.49	Lose2	0.6579	n/a	No	2.928	n/a	n/a	NoResponse	-1	n/a	n/a	10	75	Blank	Loss	True
712.649	0.3	Lose2	0.6579	0.0	No	2.928	0.012	3.0	NoResponse	-1	0.215	n/a	10	75	ButtonPress	Loss	True
713.12	1.45	Lose2	0.6579	n/a	No	2.928	n/a	5.0	NoResponse	-1	0.026	712.146	10	75	Feedback	Loss	True
714.574	2.928	Lose2	0.6579	n/a	No	2.928	n/a	n/a	NoResponse	-1	0.0	n/a	10	75	ISIslide	Loss	True
717.516	0.25	Control	0.6494	0.0	No	3.234	0.016	n/a	NoResponse	0	n/a	n/a	10	76	Cue	Neutral	True
717.767	4.05	Control	0.6494	0.0	No	3.234	0.001	n/a	NoResponse	0	n/a	n/a	10	76	Fixation	Neutral	True
721.812	0.21	Control	0.6494	0.004	No	3.234	-0.004	3.0	NoResponse	0	0.227	721.039	10	76	Target	Neutral	True
722.03	0.49	Control	0.6494	n/a	No	3.234	n/a	n/a	NoResponse	0	n/a	n/a	10	76	Blank	Neutral	True
722.039	0.3	Control	0.6494	0.004	No	3.234	-0.004	3.0	NoResponse	0	0.227	n/a	10	76	ButtonPress	Neutral	True
722.514	1.45	Control	0.6494	n/a	No	3.234	n/a	5.0	NoResponse	0	0.047	721.561	10	76	Feedback	Neutral	True
723.969	3.234	Control	0.6494	n/a	No	3.234	n/a	n/a	NoResponse	0	0.0	n/a	10	76	ISIslide	Neutral	True
727.228	0.25	Lose2	0.6409999999999999	0.001	No	2.572	0.028	n/a	NoResponse	-1	n/a	n/a	9	77	Cue	Loss	True
727.479	3.95	Lose2	0.6409999999999999	0.0	No	2.572	0.001	n/a	NoResponse	-1	n/a	n/a	9	77	Fixation	Loss	True
731.424	0.22	Lose2	0.6409999999999999	0.004	No	2.572	-0.004	3.0	NoResponse	-1	0.249	730.673	9	77	Target	Loss	True
731.658	0.48	Lose2	0.6409999999999999	n/a	No	2.572	n/a	n/a	NoResponse	-1	n/a	n/a	9	77	Blank	Loss	True
731.673	0.3	Lose2	0.6409999999999999	0.004	No	2.572	-0.004	3.0	NoResponse	-1	0.249	n/a	9	77	ButtonPress	Loss	True
732.126	1.45	Lose2	0.6409999999999999	n/a	No	2.572	n/a	5.0	NoResponse	-1	0.045	731.171	9	77	Feedback	Loss	True
733.581	2.572	Lose2	0.6409999999999999	n/a	No	2.572	n/a	n/a	NoResponse	-1	0.0	n/a	9	77	ISIslide	Loss	True
