onset	duration	cue_type	current_mean_accuracy	duration_error	is_hit	isi_adjusted	onset_delay	response	response_type	reward	rt	rt_time	total_reward	trial_number	trial_phase	trial_type	one_press
11.101	0.25	Control	1.0	0.0	Yes	2.949	0.001	n/a	GoodResponse	0	n/a	n/a	0	0	Cue	Neutral	True
11.352	3.85	Control	1.0	0.0	Yes	2.949	0.001	n/a	GoodResponse	0	n/a	n/a	0	0	Fixation	Neutral	True
15.197	0.4	Control	1.0	0.004	Yes	2.949	-0.004	1.0	GoodResponse	0	0.234	14.431	0	0	Target	Neutral	True
15.431	0.3	Control	1.0	0.004	Yes	2.949	-0.004	1.0	GoodResponse	0	0.234	n/a	0	0	ButtonPress	Neutral	True
15.598	0.3	Control	1.0	n/a	Yes	2.949	n/a	n/a	GoodResponse	0	n/a	n/a	0	0	Blank	Neutral	True
15.899	1.45	Control	1.0	n/a	Yes	2.949	n/a	5	GoodResponse	0	0.028	14.927	0	0	Feedback	Neutral	True
17.353	2.949	Control	1.0	n/a	Yes	2.949	n/a	n/a	GoodResponse	0	0.0	n/a	0	0	ISIslide	Neutral	True
20.379	0.25	Lose2	1.0	0.0	Yes	2.721	0.079	n/a	GoodResponse	0	n/a	n/a	0	1	Cue	AvoidedLoss	False
20.63	4.0	Lose2	1.0	0.0	Yes	2.721	0.001	1.0	GoodResponse	0	3.492	23.122	0	1	Fixation	AvoidedLoss	False
24.122	0.3	Lose2	1.0	0.0	Yes	2.721	0.001	1.0	GoodResponse	0	3.492	n/a	0	1	ButtonPress	AvoidedLoss	False
24.625	0.39	Lose2	1.0	0.004	Yes	2.721	-0.004	1.0	GoodResponse	0	0.221	23.846	0	1	Target	AvoidedLoss	False
24.846	0.3	Lose2	1.0	0.004	Yes	2.721	-0.004	1.0	GoodResponse	0	0.221	n/a	0	1	ButtonPress	AvoidedLoss	False
25.026	0.31	Lose2	1.0	n/a	Yes	2.721	n/a	n/a	GoodResponse	0	n/a	n/a	0	1	Blank	AvoidedLoss	False
25.327	1.45	Lose2	1.0	n/a	Yes	2.721	n/a	5	GoodResponse	0	0.014	24.341	0	1	Feedback	AvoidedLoss	False
26.781	2.721	Lose2	1.0	n/a	Yes	2.721	n/a	n/a	GoodResponse	0	0.0	n/a	0	1	ISIslide	AvoidedLoss	False
29.523	0.25	Control	1.0	0.0	Yes	2.577	0.023	n/a	GoodResponse	0	n/a	n/a	0	2	Cue	Neutral	True
29.774	4.1	Control	1.0	0.0	Yes	2.577	0.001	n/a	GoodResponse	0	n/a	n/a	0	2	Fixation	Neutral	True
33.869	0.38	Control	1.0	0.004	Yes	2.577	-0.004	1.0	GoodResponse	0	0.265	33.134	0	2	Target	Neutral	True
34.134	0.3	Control	1.0	0.004	Yes	2.577	-0.004	1.0	GoodResponse	0	0.265	n/a	0	2	ButtonPress	Neutral	True
34.254	0.32	Control	1.0	n/a	Yes	2.577	n/a	n/a	GoodResponse	0	n/a	n/a	0	2	Blank	Neutral	True
34.571	1.45	Control	1.0	n/a	Yes	2.577	n/a	5	GoodResponse	0	0.038	33.609	0	2	Feedback	Neutral	True
36.026	2.577	Control	1.0	n/a	Yes	2.577	n/a	n/a	GoodResponse	0	0.0	n/a	0	2	ISIslide	Neutral	True
38.617	0.25	Win2	1.0	0.0	Yes	2.833	0.017	n/a	GoodResponse	1	n/a	n/a	1	3	Cue	Win	True
38.868	3.95	Win2	1.0	0.0	Yes	2.833	0.001	n/a	GoodResponse	1	n/a	n/a	1	3	Fixation	Win	True
42.813	0.37	Win2	1.0	0.004	Yes	2.833	-0.004	1.0	GoodResponse	1	0.239	42.052	1	3	Target	Win	True
43.052	0.3	Win2	1.0	0.004	Yes	2.833	-0.004	1.0	GoodResponse	1	0.239	n/a	1	3	ButtonPress	Win	True
43.197	0.33	Win2	1.0	n/a	Yes	2.833	n/a	n/a	GoodResponse	1	n/a	n/a	1	3	Blank	Win	True
43.515	1.45	Win2	1.0	n/a	Yes	2.833	n/a	5	GoodResponse	1	0.021	42.536	1	3	Feedback	Win	True
44.969	2.833	Win2	1.0	n/a	Yes	2.833	n/a	n/a	GoodResponse	1	0.0	n/a	1	3	ISIslide	Win	True
47.828	0.25	Win2	1.0	0.0	Yes	3.272	0.028	n/a	GoodResponse	1	n/a	n/a	2	4	Cue	Win	True
48.078	4.0	Win2	1.0	0.0	Yes	3.272	0.0	n/a	GoodResponse	1	n/a	n/a	2	4	Fixation	Win	True
52.074	0.36	Win2	1.0	0.004	Yes	3.272	-0.004	1.0	GoodResponse	1	0.336	51.41	2	4	Target	Win	True
52.41	0.3	Win2	1.0	0.004	Yes	3.272	-0.004	1.0	GoodResponse	1	0.336	n/a	2	4	ButtonPress	Win	True
52.441	0.34	Win2	1.0	n/a	Yes	3.272	n/a	n/a	GoodResponse	1	n/a	n/a	2	4	Blank	Win	True
52.776	1.45	Win2	1.0	n/a	Yes	3.272	n/a	5	GoodResponse	1	0.028	51.804	2	4	Feedback	Win	True
54.23	3.272	Win2	1.0	n/a	Yes	3.272	n/a	{SPACE}	GoodResponse	1	1.724	n/a	2	4	ISIslide	Win	True
57.507	0.25	Win2	1.0	0.0	Yes	2.793	0.007	n/a	GoodResponse	1	n/a	n/a	3	5	Cue	Win	True
57.757	4.0	Win2	1.0	0.0	Yes	2.793	0.0	n/a	GoodResponse	1	n/a	n/a	3	5	Fixation	Win	True
61.753	0.35	Win2	1.0	0.004	Yes	2.793	-0.004	1.0	GoodResponse	1	0.192	60.945	3	5	Target	Win	True
61.945	0.3	Win2	1.0	0.004	Yes	2.793	-0.004	1.0	GoodResponse	1	0.192	n/a	3	5	ButtonPress	Win	True
62.104	0.35	Win2	1.0	n/a	Yes	2.793	n/a	n/a	GoodResponse	1	n/a	n/a	3	5	Blank	Win	True
62.455	1.45	Win2	1.0	n/a	Yes	2.793	n/a	5	GoodResponse	1	0.007	61.462	3	5	Feedback	Win	True
63.909	2.793	Win2	1.0	n/a	Yes	2.793	n/a	n/a	GoodResponse	1	0.0	n/a	3	5	ISIslide	Win	True
66.717	0.25	Lose2	1.0	0.0	Yes	2.733	0.017	n/a	GoodResponse	0	n/a	n/a	3	6	Cue	AvoidedLoss	True
66.968	3.95	Lose2	1.0	0.0	Yes	2.733	0.001	n/a	GoodResponse	0	n/a	n/a	3	6	Fixation	AvoidedLoss	True
70.913	0.34	Lose2	1.0	0.004	Yes	2.733	-0.004	1.0	GoodResponse	0	0.178	70.091	3	6	Target	AvoidedLoss	True
71.091	0.3	Lose2	1.0	0.004	Yes	2.733	-0.004	1.0	GoodResponse	0	0.178	n/a	3	6	ButtonPress	AvoidedLoss	True
71.264	0.36	Lose2	1.0	n/a	Yes	2.733	n/a	n/a	GoodResponse	0	n/a	n/a	3	6	Blank	AvoidedLoss	True
71.615	1.45	Lose2	1.0	n/a	Yes	2.733	n/a	5	GoodResponse	0	0.018	70.633	3	6	Feedback	AvoidedLoss	True
73.07	2.733	Lose2	1.0	n/a	Yes	2.733	n/a	n/a	GoodResponse	0	0.0	n/a	3	6	ISIslide	AvoidedLoss	True
75.828	0.25	Lose2	1.0	0.0	Yes	4.022	0.028	n/a	GoodResponse	0	n/a	n/a	3	7	Cue	AvoidedLoss	True
76.079	4.05	Lose2	1.0	0.0	Yes	4.022	0.001	n/a	GoodResponse	0	n/a	n/a	3	7	Fixation	AvoidedLoss	True
80.124	0.33	Lose2	1.0	0.004	Yes	4.022	-0.004	1.0	GoodResponse	0	0.23	79.354	3	7	Target	AvoidedLoss	True
80.354	0.3	Lose2	1.0	0.004	Yes	4.022	-0.004	1.0	GoodResponse	0	0.23	n/a	3	7	ButtonPress	AvoidedLoss	True
80.458	0.37	Lose2	1.0	n/a	Yes	4.022	n/a	n/a	GoodResponse	0	n/a	n/a	3	7	Blank	AvoidedLoss	True
80.826	1.45	Lose2	1.0	n/a	Yes	4.022	n/a	5	GoodResponse	0	0.026	79.852	3	7	Feedback	AvoidedLoss	True
82.28	4.022	Lose2	1.0	n/a	Yes	4.022	n/a	n/a	GoodResponse	0	0.0	n/a	3	7	ISIslide	AvoidedLoss	True
86.326	0.25	Lose2	1.0	0.0	Yes	3.024	0.026	n/a	GoodResponse	0	n/a	n/a	3	8	Cue	AvoidedLoss	True
86.577	3.95	Lose2	1.0	0.0	Yes	3.024	0.001	n/a	GoodResponse	0	n/a	n/a	3	8	Fixation	AvoidedLoss	True
90.522	0.32	Lose2	1.0	0.004	Yes	3.024	-0.004	1.0	GoodResponse	0	0.224	89.746	3	8	Target	AvoidedLoss	True
90.746	0.3	Lose2	1.0	0.004	Yes	3.024	-0.004	1.0	GoodResponse	0	0.224	n/a	3	8	ButtonPress	AvoidedLoss	True
90.856	0.38	Lose2	1.0	n/a	Yes	3.024	n/a	n/a	GoodResponse	0	n/a	n/a	3	8	Blank	AvoidedLoss	True
91.224	1.45	Lose2	1.0	n/a	Yes	3.024	n/a	5	GoodResponse	0	0.019	90.243	3	8	Feedback	AvoidedLoss	True
92.678	3.024	Lose2	1.0	n/a	Yes	3.024	n/a	n/a	GoodResponse	0	0.0	n/a	3	8	ISIslide	AvoidedLoss	True
95.721	0.25	Lose2	1.0	0.0	Yes	3.129	0.021	n/a	GoodResponse	0	n/a	n/a	3	9	Cue	AvoidedLoss	True
95.971	3.95	Lose2	1.0	0.0	Yes	3.129	0.0	n/a	GoodResponse	0	n/a	n/a	3	9	Fixation	AvoidedLoss	True
99.916	0.31	Lose2	1.0	0.005	Yes	3.129	-0.005	1.0	GoodResponse	0	0.172	99.088	3	9	Target	AvoidedLoss	True
100.088	0.3	Lose2	1.0	0.005	Yes	3.129	-0.005	1.0	GoodResponse	0	0.172	n/a	3	9	ButtonPress	AvoidedLoss	True
100.234	0.39	Lose2	1.0	n/a	Yes	3.129	n/a	n/a	GoodResponse	0	n/a	n/a	3	9	Blank	AvoidedLoss	True
100.619	1.45	Lose2	1.0	n/a	Yes	3.129	n/a	5	GoodResponse	0	0.038	99.657	3	9	Feedback	AvoidedLoss	True
102.073	3.129	Lose2	1.0	n/a	Yes	3.129	n/a	n/a	GoodResponse	0	0.0	n/a	3	9	ISIslide	AvoidedLoss	True
105.216	0.25	Control	1.0	0.0	Yes	3.284	0.016	n/a	GoodResponse	0	n/a	n/a	3	10	Cue	Neutral	True
105.466	4.0	Control	1.0	0.0	Yes	3.284	0.0	n/a	GoodResponse	0	n/a	n/a	3	10	Fixation	Neutral	True
109.462	0.3	Control	1.0	0.004	Yes	3.284	-0.004	1.0	GoodResponse	0	0.23	108.692	3	10	Target	Neutral	True
109.692	0.3	Control	1.0	0.004	Yes	3.284	-0.004	1.0	GoodResponse	0	0.23	n/a	3	10	ButtonPress	Neutral	True
109.763	0.4	Control	1.0	n/a	Yes	3.284	n/a	n/a	GoodResponse	0	n/a	n/a	3	10	Blank	Neutral	True
110.164	1.45	Control	1.0	n/a	Yes	3.284	n/a	5	GoodResponse	0	0.005	109.169	3	10	Feedback	Neutral	True
111.618	3.284	Control	1.0	n/a	Yes	3.284	n/a	n/a	GoodResponse	0	0.0	n/a	3	10	ISIslide	Neutral	True
114.928	0.25	Lose2	1.0	0.0	Yes	2.722	0.028	n/a	GoodResponse	0	n/a	n/a	3	11	Cue	AvoidedLoss	True
115.179	4.05	Lose2	1.0	0.0	Yes	2.722	0.001	n/a	GoodResponse	0	n/a	n/a	3	11	Fixation	AvoidedLoss	True
119.224	0.29	Lose2	1.0	0.004	Yes	2.722	-0.004	1.0	GoodResponse	0	0.204	118.428	3	11	Target	AvoidedLoss	True
119.428	0.3	Lose2	1.0	0.004	Yes	2.722	-0.004	1.0	GoodResponse	0	0.204	n/a	3	11	ButtonPress	AvoidedLoss	True
119.525	0.41	Lose2	1.0	n/a	Yes	2.722	n/a	n/a	GoodResponse	0	n/a	n/a	3	11	Blank	AvoidedLoss	True
119.926	1.45	Lose2	1.0	n/a	Yes	2.722	n/a	5	GoodResponse	0	0.001	118.927	3	11	Feedback	AvoidedLoss	True
121.381	2.722	Lose2	1.0	n/a	Yes	2.722	n/a	n/a	GoodResponse	0	0.0	n/a	3	11	ISIslide	AvoidedLoss	True
124.122	0.25	Control	1.0	0.0	Yes	2.978	0.022	n/a	GoodResponse	0	n/a	n/a	3	12	Cue	Neutral	True
124.373	3.9	Control	1.0	0.0	Yes	2.978	0.001	n/a	GoodResponse	0	n/a	n/a	3	12	Fixation	Neutral	True
128.268	0.28	Control	1.0	0.004	Yes	2.978	-0.004	1.0	GoodResponse	0	0.242	127.51	3	12	Target	Neutral	True
128.51	0.3	Control	1.0	0.004	Yes	2.978	-0.004	1.0	GoodResponse	0	0.242	n/a	3	12	ButtonPress	Neutral	True
128.552	0.42	Control	1.0	n/a	Yes	2.978	n/a	n/a	GoodResponse	0	n/a	n/a	3	12	Blank	Neutral	True
128.97	1.45	Control	1.0	n/a	Yes	2.978	n/a	5	GoodResponse	0	0.028	127.998	3	12	Feedback	Neutral	True
130.424	2.978	Control	1.0	n/a	Yes	2.978	n/a	n/a	GoodResponse	0	0.0	n/a	3	12	ISIslide	Neutral	True
133.417	0.25	Control	1.0	0.0	Yes	2.783	0.017	n/a	GoodResponse	0	n/a	n/a	3	13	Cue	Neutral	True
133.667	4.0	Control	1.0	0.0	Yes	2.783	0.0	n/a	GoodResponse	0	n/a	n/a	3	13	Fixation	Neutral	True
137.663	0.27	Control	1.0	0.004	Yes	2.783	-0.004	1.0	GoodResponse	0	0.167	136.83	3	13	Target	Neutral	True
137.83	0.3	Control	1.0	0.004	Yes	2.783	-0.004	1.0	GoodResponse	0	0.167	n/a	3	13	ButtonPress	Neutral	True
137.947	0.43	Control	1.0	n/a	Yes	2.783	n/a	n/a	GoodResponse	0	n/a	n/a	3	13	Blank	Neutral	True
138.365	1.45	Control	1.0	n/a	Yes	2.783	n/a	5	GoodResponse	0	0.047	137.412	3	13	Feedback	Neutral	True
139.819	2.783	Control	1.0	n/a	Yes	2.783	n/a	n/a	GoodResponse	0	0.0	n/a	3	13	ISIslide	Neutral	True
142.627	0.25	Win2	1.0	0.0	Yes	2.673	0.027	n/a	GoodResponse	1	n/a	n/a	4	14	Cue	Win	False
142.878	4.1	Win2	1.0	0.0	Yes	2.673	0.001	1.0	GoodResponse	1	4.079	145.957	4	14	Fixation	Win	False
146.957	0.3	Win2	1.0	0.0	Yes	2.673	0.001	1.0	GoodResponse	1	4.079	n/a	4	14	ButtonPress	Win	False
146.974	0.26	Win2	1.0	0.003	Yes	2.673	-0.003	1.0	GoodResponse	1	0.218	146.192	4	14	Target	Win	False
147.192	0.3	Win2	1.0	0.003	Yes	2.673	-0.003	1.0	GoodResponse	1	0.218	n/a	4	14	ButtonPress	Win	False
147.241	0.44	Win2	1.0	n/a	Yes	2.673	n/a	n/a	GoodResponse	1	n/a	n/a	4	14	Blank	Win	False
147.676	1.45	Win2	1.0	n/a	Yes	2.673	n/a	5	GoodResponse	1	0.005	146.681	4	14	Feedback	Win	False
149.13	2.673	Win2	1.0	n/a	Yes	2.673	n/a	n/a	GoodResponse	1	0.0	n/a	4	14	ISIslide	Win	False
151.822	0.25	Control	0.9375	0.0	No	2.978	0.022	n/a	PrematurePress	0	n/a	n/a	4	15	Cue	Neutral	True
152.072	4.0	Control	0.9375	0.0	No	2.978	0.0	n/a	PrematurePress	0	n/a	n/a	4	15	Fixation	Neutral	True
156.068	0.25	Control	0.9375	0.004	No	2.978	-0.004	1.0	PrematurePress	0	0.06	155.128	4	15	Target	Neutral	True
156.128	0.3	Control	0.9375	0.004	No	2.978	-0.004	1.0	PrematurePress	0	0.06	n/a	4	15	ButtonPress	Neutral	True
156.318	0.45	Control	0.9375	n/a	No	2.978	n/a	n/a	PrematurePress	0	n/a	n/a	4	15	Blank	Neutral	True
156.77	1.45	Control	0.9375	n/a	No	2.978	n/a	5	PrematurePress	0	0.033	155.803	4	15	Feedback	Neutral	True
158.224	2.978	Control	0.9375	n/a	No	2.978	n/a	n/a	PrematurePress	0	0.0	n/a	4	15	ISIslide	Neutral	True
161.216	0.25	Win2	0.9412	0.0	Yes	2.884	0.016	n/a	GoodResponse	1	n/a	n/a	5	16	Cue	Win	True
161.467	4.0	Win2	0.9412	0.0	Yes	2.884	0.001	n/a	GoodResponse	1	n/a	n/a	5	16	Fixation	Win	True
165.462	0.24	Win2	0.9412	0.004	Yes	2.884	-0.004	1.0	GoodResponse	1	0.207	164.669	5	16	Target	Win	True
165.669	0.3	Win2	0.9412	0.004	Yes	2.884	-0.004	1.0	GoodResponse	1	0.207	n/a	5	16	ButtonPress	Win	True
165.713	0.46	Win2	0.9412	n/a	Yes	2.884	n/a	n/a	GoodResponse	1	n/a	n/a	5	16	Blank	Win	True
166.164	1.45	Win2	0.9412	n/a	Yes	2.884	n/a	5	GoodResponse	1	0.005	165.169	5	16	Feedback	Win	True
167.619	2.884	Win2	0.9412	n/a	Yes	2.884	n/a	n/a	GoodResponse	1	0.0	n/a	5	16	ISIslide	Win	True
170.527	0.25	Lose2	0.9444	0.0	Yes	2.723	0.027	n/a	GoodResponse	0	n/a	n/a	5	17	Cue	AvoidedLoss	True
170.778	3.95	Lose2	0.9444	0.0	Yes	2.723	0.001	n/a	GoodResponse	0	n/a	n/a	5	17	Fixation	AvoidedLoss	True
174.723	0.23	Lose2	0.9444	0.004	Yes	2.723	-0.004	1.0	GoodResponse	0	0.204	173.927	5	17	Target	AvoidedLoss	True
174.927	0.3	Lose2	0.9444	0.004	Yes	2.723	-0.004	1.0	GoodResponse	0	0.204	n/a	5	17	ButtonPress	AvoidedLoss	True
174.957	0.47	Lose2	0.9444	n/a	Yes	2.723	n/a	n/a	GoodResponse	0	n/a	n/a	5	17	Blank	AvoidedLoss	True
175.425	1.45	Lose2	0.9444	n/a	Yes	2.723	n/a	5	GoodResponse	0	0.011	174.436	5	17	Feedback	AvoidedLoss	True
176.88	2.723	Lose2	0.9444	n/a	Yes	2.723	n/a	n/a	GoodResponse	0	0.0	n/a	5	17	ISIslide	AvoidedLoss	True
179.621	0.25	Lose2	0.8946999999999999	0.0	No	2.729	0.021	n/a	PrematurePress	-1	n/a	n/a	4	18	Cue	Loss	False
179.872	4.05	Lose2	0.8946999999999999	0.0	No	2.729	0.001	1.0	PrematurePress	-1	3.54	182.412	4	18	Fixation	Loss	False
183.412	0.3	Lose2	0.8946999999999999	0.0	No	2.729	0.001	1.0	PrematurePress	-1	3.54	n/a	4	18	ButtonPress	Loss	False
183.917	0.22	Lose2	0.8946999999999999	0.004	No	2.729	-0.004	1.0	PrematurePress	-1	0.081	182.998	4	18	Target	Loss	False
183.998	0.3	Lose2	0.8946999999999999	0.004	No	2.729	-0.004	1.0	PrematurePress	-1	0.081	n/a	4	18	ButtonPress	Loss	False
184.151	0.48	Lose2	0.8946999999999999	n/a	No	2.729	n/a	n/a	PrematurePress	-1	n/a	n/a	4	18	Blank	Loss	False
184.619	1.45	Lose2	0.8946999999999999	n/a	No	2.729	n/a	5	PrematurePress	-1	0.037	183.656	4	18	Feedback	Loss	False
186.074	2.729	Lose2	0.8946999999999999	n/a	No	2.729	n/a	n/a	PrematurePress	-1	0.0	n/a	4	18	ISIslide	Loss	False
188.815	0.25	Control	0.85	0.0	No	2.935	0.015	n/a	LatePress	0	n/a	n/a	4	19	Cue	Neutral	False
189.066	3.95	Control	0.85	0.0	No	2.935	0.001	1.0	LatePress	0	3.759	191.825	4	19	Fixation	Neutral	False
192.825	0.3	Control	0.85	0.0	No	2.935	0.001	1.0	LatePress	0	3.759	n/a	4	19	ButtonPress	Neutral	False
193.011	0.21	Control	0.85	0.004	No	2.935	-0.004	1.0	LatePress	0	0.217	192.228	4	19	Target	Neutral	False
193.228	0.49	Control	0.85	n/a	No	2.935	n/a	n/a	LatePress	0	n/a	n/a	4	19	Blank	Neutral	False
193.228	0.3	Control	0.85	0.004	No	2.935	-0.004	1.0	LatePress	0	0.217	n/a	4	19	ButtonPress	Neutral	False
193.713	1.45	Control	0.85	n/a	No	2.935	n/a	5	LatePress	0	0.016	192.729	4	19	Feedback	Neutral	False
195.168	2.935	Control	0.85	n/a	No	2.935	n/a	n/a	LatePress	0	0.0	n/a	4	19	ISIslide	Neutral	False
198.126	0.25	Control	0.8095	0.001	No	2.624	0.026	n/a	NoResponse	0	n/a	n/a	4	20	Cue	Neutral	True
198.377	4.05	Control	0.8095	0.0	No	2.624	0.001	n/a	NoResponse	0	n/a	n/a	4	20	Fixation	Neutral	True
202.423	0.2	Control	0.8095	0.003	No	2.624	-0.003	1.0	NoResponse	0	0.213	201.636	4	20	Target	Neutral	True
202.623	0.5	Control	0.8095	n/a	No	2.624	n/a	n/a	NoResponse	0	n/a	n/a	4	20	Blank	Neutral	True
202.636	0.3	Control	0.8095	0.003	No	2.624	-0.003	1.0	NoResponse	0	0.213	n/a	4	20	ButtonPress	Neutral	True
203.125	1.45	Control	0.8095	n/a	No	2.624	n/a	5	NoResponse	0	0.019	202.144	4	20	Feedback	Neutral	True
204.579	2.624	Control	0.8095	n/a	No	2.624	n/a	n/a	NoResponse	0	0.0	n/a	4	20	ISIslide	Neutral	True
207.22	0.25	Control	0.8181999999999999	0.0	Yes	2.78	0.02	n/a	GoodResponse	0	n/a	n/a	4	21	Cue	Neutral	False
207.471	4.1	Control	0.8181999999999999	0.0	Yes	2.78	0.001	1.0	GoodResponse	0	3.934	210.405	4	21	Fixation	Neutral	False
211.405	0.3	Control	0.8181999999999999	0.0	Yes	2.78	0.001	1.0	GoodResponse	0	3.934	n/a	4	21	ButtonPress	Neutral	False
211.567	0.19	Control	0.8181999999999999	0.003	Yes	2.78	-0.003	1.0	GoodResponse	0	0.152	210.719	4	21	Target	Neutral	False
211.719	0.3	Control	0.8181999999999999	0.003	Yes	2.78	-0.003	1.0	GoodResponse	0	0.152	n/a	4	21	ButtonPress	Neutral	False
211.767	0.51	Control	0.8181999999999999	n/a	Yes	2.78	n/a	n/a	GoodResponse	0	n/a	n/a	4	21	Blank	Neutral	False
212.269	1.45	Control	0.8181999999999999	n/a	Yes	2.78	n/a	5	GoodResponse	0	0.045	211.314	4	21	Feedback	Neutral	False
213.723	2.78	Control	0.8181999999999999	n/a	Yes	2.78	n/a	n/a	GoodResponse	0	0.0	n/a	4	21	ISIslide	Neutral	False
216.515	0.25	Control	0.7826000000000001	0.0	No	2.785	0.015	n/a	NoResponse	0	n/a	n/a	4	22	Cue	Neutral	True
216.765	4.0	Control	0.7826000000000001	0.001	No	2.785	0.0	n/a	NoResponse	0	n/a	n/a	4	22	Fixation	Neutral	True
220.761	0.18	Control	0.7826000000000001	0.004	No	2.785	-0.004	1.0	NoResponse	0	0.2	219.961	4	22	Target	Neutral	True
220.945	0.52	Control	0.7826000000000001	n/a	No	2.785	n/a	n/a	NoResponse	0	n/a	n/a	4	22	Blank	Neutral	True
220.961	0.3	Control	0.7826000000000001	0.004	No	2.785	-0.004	1.0	NoResponse	0	0.2	n/a	4	22	ButtonPress	Neutral	True
221.463	1.45	Control	0.7826000000000001	n/a	No	2.785	n/a	5	NoResponse	0	0.021	220.484	4	22	Feedback	Neutral	True
222.917	2.785	Control	0.7826000000000001	n/a	No	2.785	n/a	n/a	NoResponse	0	0.0	n/a	4	22	ISIslide	Neutral	True
225.726	0.25	Control	0.75	0.0	No	2.774	0.026	n/a	NoResponse	0	n/a	n/a	4	23	Cue	Neutral	True
225.976	3.9	Control	0.75	0.0	No	2.774	0.0	n/a	NoResponse	0	n/a	n/a	4	23	Fixation	Neutral	True
229.888	0.17	Control	0.75	0.0	No	2.774	0.012	1.0	NoResponse	0	0.18	229.068	4	23	Target	Neutral	True
230.055	0.53	Control	0.75	n/a	No	2.774	n/a	n/a	NoResponse	0	n/a	n/a	4	23	Blank	Neutral	True
230.068	0.3	Control	0.75	0.0	No	2.774	0.012	1.0	NoResponse	0	0.18	n/a	4	23	ButtonPress	Neutral	True
230.573	1.45	Control	0.75	n/a	No	2.774	n/a	5	NoResponse	0	0.033	229.606	4	23	Feedback	Neutral	True
232.028	2.774	Control	0.75	n/a	No	2.774	n/a	n/a	NoResponse	0	0.0	n/a	4	23	ISIslide	Neutral	True
234.819	0.25	Win2	0.72	0.0	No	3.131	0.019	n/a	NoResponse	0	n/a	n/a	4	24	Cue	MissedWin	True
235.07	3.95	Win2	0.72	0.0	No	3.131	0.001	n/a	NoResponse	0	n/a	n/a	4	24	Fixation	MissedWin	True
239.015	0.16	Win2	0.72	0.004	No	3.131	-0.004	1.0	NoResponse	0	0.211	238.226	4	24	Target	MissedWin	True
239.182	0.54	Win2	0.72	n/a	No	3.131	n/a	n/a	NoResponse	0	n/a	n/a	4	24	Blank	MissedWin	True
239.226	0.3	Win2	0.72	0.004	No	3.131	-0.004	1.0	NoResponse	0	0.211	n/a	4	24	ButtonPress	MissedWin	True
239.717	1.45	Win2	0.72	n/a	No	3.131	n/a	5	NoResponse	0	0.012	238.729	4	24	Feedback	MissedWin	True
241.172	3.131	Win2	0.72	n/a	No	3.131	n/a	n/a	NoResponse	0	0.0	n/a	4	24	ISIslide	MissedWin	True
244.314	0.25	Win2	0.6923	0.001	No	3.086	0.014	n/a	NoResponse	0	n/a	n/a	4	25	Cue	MissedWin	False
244.565	4.0	Win2	0.6923	0.0	No	3.086	0.001	1.0	NoResponse	0	3.929	247.494	4	25	Fixation	MissedWin	False
248.494	0.3	Win2	0.6923	0.0	No	3.086	0.001	1.0	NoResponse	0	3.929	n/a	4	25	ButtonPress	MissedWin	False
248.56	0.15	Win2	0.6923	0.004	No	3.086	-0.004	1.0	NoResponse	0	0.185	247.745	4	25	Target	MissedWin	False
248.711	0.55	Win2	0.6923	n/a	No	3.086	n/a	n/a	NoResponse	0	n/a	n/a	4	25	Blank	MissedWin	False
248.745	0.3	Win2	0.6923	0.004	No	3.086	-0.004	1.0	NoResponse	0	0.185	n/a	4	25	ButtonPress	MissedWin	False
249.263	1.45	Win2	0.6923	n/a	No	3.086	n/a	5	NoResponse	0	0.026	248.289	4	25	Feedback	MissedWin	False
250.717	3.086	Win2	0.6923	n/a	No	3.086	n/a	n/a	NoResponse	0	0.0	n/a	4	25	ISIslide	MissedWin	False
253.826	0.25	Win2	0.6667000000000001	0.0	No	2.924	0.026	n/a	NoResponse	0	n/a	n/a	4	26	Cue	MissedWin	True
254.077	3.95	Win2	0.6667000000000001	0.0	No	2.924	0.001	1.0	NoResponse	0	3.546	256.623	4	26	Fixation	MissedWin	True
257.623	0.3	Win2	0.6667000000000001	0.0	No	2.924	0.001	1.0	NoResponse	0	3.546	n/a	4	26	ButtonPress	MissedWin	True
258.022	0.15	Win2	0.6667000000000001	0.004	No	2.924	-0.004	n/a	NoResponse	0	n/a	n/a	4	26	Target	MissedWin	True
258.172	0.55	Win2	0.6667000000000001	n/a	No	2.924	n/a	n/a	NoResponse	0	n/a	n/a	4	26	Blank	MissedWin	True
258.724	1.45	Win2	0.6667000000000001	n/a	No	2.924	n/a	5	NoResponse	0	0.028	257.752	4	26	Feedback	MissedWin	True
260.178	2.924	Win2	0.6667000000000001	n/a	No	2.924	n/a	n/a	NoResponse	0	0.0	n/a	4	26	ISIslide	MissedWin	True
263.121	0.25	Lose2	0.6429	0.0	No	2.829	0.021	n/a	NoResponse	-1	n/a	n/a	3	27	Cue	Loss	False
263.371	4.05	Lose2	0.6429	0.0	No	2.829	0.0	1.0	NoResponse	-1	3.91	266.281	3	27	Fixation	Loss	False
267.281	0.3	Lose2	0.6429	0.0	No	2.829	0.0	1.0	NoResponse	-1	3.91	n/a	3	27	ButtonPress	Loss	False
267.417	0.15	Lose2	0.6429	0.004	No	2.829	-0.004	1.0	NoResponse	-1	0.204	266.621	3	27	Target	Loss	False
267.567	0.55	Lose2	0.6429	n/a	No	2.829	n/a	n/a	NoResponse	-1	n/a	n/a	3	27	Blank	Loss	False
267.621	0.3	Lose2	0.6429	0.004	No	2.829	-0.004	1.0	NoResponse	-1	0.204	n/a	3	27	ButtonPress	Loss	False
268.119	1.45	Lose2	0.6429	n/a	No	2.829	n/a	5	NoResponse	-1	0.048	267.167	3	27	Feedback	Loss	False
269.573	2.829	Lose2	0.6429	n/a	No	2.829	n/a	n/a	NoResponse	-1	0.0	n/a	3	27	ISIslide	Loss	False
272.415	0.25	Control	0.6207	0.0	No	2.835	0.015	n/a	NoResponse	0	n/a	n/a	3	28	Cue	Neutral	True
272.666	4.05	Control	0.6207	0.0	No	2.835	0.001	n/a	NoResponse	0	n/a	n/a	3	28	Fixation	Neutral	True
276.711	0.16	Control	0.6207	0.004	No	2.835	-0.004	1.0	NoResponse	0	0.201	275.912	3	28	Target	Neutral	True
276.878	0.54	Control	0.6207	n/a	No	2.835	n/a	n/a	NoResponse	0	n/a	n/a	3	28	Blank	Neutral	True
276.912	0.3	Control	0.6207	0.004	No	2.835	-0.004	1.0	NoResponse	0	0.201	n/a	3	28	ButtonPress	Neutral	True
277.413	1.45	Control	0.6207	n/a	No	2.835	n/a	5	NoResponse	0	0.022	276.435	3	28	Feedback	Neutral	True
278.868	2.835	Control	0.6207	n/a	No	2.835	n/a	n/a	NoResponse	0	0.0	n/a	3	28	ISIslide	Neutral	True
281.726	0.25	Lose2	0.6	0.0	No	2.824	0.026	n/a	PrematurePress	-1	n/a	n/a	2	29	Cue	Loss	False
281.977	3.95	Lose2	0.6	0.0	No	2.824	0.001	1.0	PrematurePress	-1	3.589	284.566	2	29	Fixation	Loss	False
285.566	0.3	Lose2	0.6	0.0	No	2.824	0.001	1.0	PrematurePress	-1	3.589	n/a	2	29	ButtonPress	Loss	False
285.922	0.17	Lose2	0.6	0.004	No	2.824	-0.004	1.0	PrematurePress	-1	0.055	284.977	2	29	Target	Loss	False
285.977	0.3	Lose2	0.6	0.004	No	2.824	-0.004	1.0	PrematurePress	-1	0.055	n/a	2	29	ButtonPress	Loss	False
286.106	0.53	Lose2	0.6	n/a	No	2.824	n/a	n/a	PrematurePress	-1	n/a	n/a	2	29	Blank	Loss	False
286.624	1.45	Lose2	0.6	n/a	No	2.824	n/a	5	PrematurePress	-1	0.03	285.654	2	29	Feedback	Loss	False
288.078	2.824	Lose2	0.6	n/a	No	2.824	n/a	n/a	PrematurePress	-1	0.0	n/a	2	29	ISIslide	Loss	False
290.92	0.25	Win2	0.6129	0.0	Yes	2.78	0.02	n/a	GoodResponse	1	n/a	n/a	3	30	Cue	Win	True
291.171	3.9	Win2	0.6129	0.0	Yes	2.78	0.001	n/a	GoodResponse	1	n/a	n/a	3	30	Fixation	Win	True
295.066	0.18	Win2	0.6129	0.004	Yes	2.78	-0.004	1.0	GoodResponse	1	0.169	294.235	3	30	Target	Win	True
295.235	0.3	Win2	0.6129	0.004	Yes	2.78	-0.004	1.0	GoodResponse	1	0.169	n/a	3	30	ButtonPress	Win	True
295.25	0.52	Win2	0.6129	n/a	Yes	2.78	n/a	n/a	GoodResponse	1	n/a	n/a	3	30	Blank	Win	True
295.768	1.45	Win2	0.6129	n/a	Yes	2.78	n/a	5	GoodResponse	1	0.008	294.776	3	30	Feedback	Win	True
297.222	2.78	Win2	0.6129	n/a	Yes	2.78	n/a	n/a	GoodResponse	1	0.0	n/a	3	30	ISIslide	Win	True
300.014	0.25	Lose2	0.5938	0.0	No	2.836	0.014	n/a	LatePress	-1	n/a	n/a	2	31	Cue	Loss	False
300.265	4.05	Lose2	0.5938	0.0	No	2.836	0.001	1.0	LatePress	-1	3.909	303.174	2	31	Fixation	Loss	False
304.174	0.3	Lose2	0.5938	0.0	No	2.836	0.001	1.0	LatePress	-1	3.909	n/a	2	31	ButtonPress	Loss	False
304.31	0.19	Lose2	0.5938	0.004	No	2.836	-0.004	1.0	LatePress	-1	0.201	303.511	2	31	Target	Loss	False
304.511	0.51	Lose2	0.5938	n/a	No	2.836	n/a	n/a	LatePress	-1	n/a	n/a	2	31	Blank	Loss	False
304.511	0.3	Lose2	0.5938	0.004	No	2.836	-0.004	1.0	LatePress	-1	0.201	n/a	2	31	ButtonPress	Loss	False
305.012	1.45	Lose2	0.5938	n/a	No	2.836	n/a	5	LatePress	-1	0.032	304.044	2	31	Feedback	Loss	False
306.467	2.836	Lose2	0.5938	n/a	No	2.836	n/a	n/a	LatePress	-1	0.0	n/a	2	31	ISIslide	Loss	False
309.325	0.25	Lose2	0.6061	0.0	Yes	2.625	0.025	n/a	GoodResponse	0	n/a	n/a	2	32	Cue	AvoidedLoss	False
309.576	4.15	Lose2	0.6061	0.0	Yes	2.625	0.001	1.0	GoodResponse	0	3.857	312.433	2	32	Fixation	AvoidedLoss	False
313.433	0.3	Lose2	0.6061	0.0	Yes	2.625	0.001	1.0	GoodResponse	0	3.857	n/a	2	32	ButtonPress	AvoidedLoss	False
313.722	0.2	Lose2	0.6061	0.003	Yes	2.625	-0.003	1.0	GoodResponse	0	0.111	312.833	2	32	Target	AvoidedLoss	False
313.833	0.3	Lose2	0.6061	0.003	Yes	2.625	-0.003	1.0	GoodResponse	0	0.111	n/a	2	32	ButtonPress	AvoidedLoss	False
313.922	0.5	Lose2	0.6061	n/a	Yes	2.625	n/a	n/a	GoodResponse	0	n/a	n/a	2	32	Blank	AvoidedLoss	False
314.424	1.45	Lose2	0.6061	n/a	Yes	2.625	n/a	5	GoodResponse	0	0.035	313.459	2	32	Feedback	AvoidedLoss	False
315.878	2.625	Lose2	0.6061	n/a	Yes	2.625	n/a	n/a	GoodResponse	0	0.0	n/a	2	32	ISIslide	AvoidedLoss	False
318.519	0.25	Win2	0.6175999999999999	0.0	Yes	2.681	0.019	n/a	GoodResponse	1	n/a	n/a	3	33	Cue	Win	True
318.77	4.0	Win2	0.6175999999999999	0.0	Yes	2.681	0.001	n/a	GoodResponse	1	n/a	n/a	3	33	Fixation	Win	True
322.765	0.21	Win2	0.6175999999999999	0.004	Yes	2.681	-0.004	1.0	GoodResponse	1	0.186	321.951	3	33	Target	Win	True
322.951	0.3	Win2	0.6175999999999999	0.004	Yes	2.681	-0.004	1.0	GoodResponse	1	0.186	n/a	3	33	ButtonPress	Win	True
322.983	0.49	Win2	0.6175999999999999	n/a	Yes	2.681	n/a	n/a	GoodResponse	1	n/a	n/a	3	33	Blank	Win	True
323.467	1.45	Win2	0.6175999999999999	n/a	Yes	2.681	n/a	5	GoodResponse	1	0.016	322.483	3	33	Feedback	Win	True
324.922	2.681	Win2	0.6175999999999999	n/a	Yes	2.681	n/a	n/a	GoodResponse	1	0.0	n/a	3	33	ISIslide	Win	True
327.613	0.25	Lose2	0.6286	0.0	Yes	2.637	0.013	n/a	GoodResponse	0	n/a	n/a	3	34	Cue	AvoidedLoss	True
327.864	4.05	Lose2	0.6286	0.0	Yes	2.637	0.001	n/a	GoodResponse	0	n/a	n/a	3	34	Fixation	AvoidedLoss	True
331.909	0.22	Lose2	0.6286	0.004	Yes	2.637	-0.004	1.0	GoodResponse	0	0.197	331.106	3	34	Target	AvoidedLoss	True
332.106	0.3	Lose2	0.6286	0.004	Yes	2.637	-0.004	1.0	GoodResponse	0	0.197	n/a	3	34	ButtonPress	AvoidedLoss	True
332.143	0.48	Lose2	0.6286	n/a	Yes	2.637	n/a	n/a	GoodResponse	0	n/a	n/a	3	34	Blank	AvoidedLoss	True
332.611	1.45	Lose2	0.6286	n/a	Yes	2.637	n/a	5	GoodResponse	0	0.043	331.654	3	34	Feedback	AvoidedLoss	True
334.066	2.637	Lose2	0.6286	n/a	Yes	2.637	n/a	n/a	GoodResponse	0	0.0	n/a	3	34	ISIslide	AvoidedLoss	True
336.724	0.25	Lose2	0.6389	0.0	Yes	2.676	0.024	n/a	GoodResponse	0	n/a	n/a	3	35	Cue	AvoidedLoss	True
336.974	4.0	Lose2	0.6389	0.001	Yes	2.676	0.0	n/a	GoodResponse	0	n/a	n/a	3	35	Fixation	AvoidedLoss	True
340.97	0.23	Lose2	0.6389	0.004	Yes	2.676	-0.004	1.0	GoodResponse	0	0.205	340.175	3	35	Target	AvoidedLoss	True
341.175	0.3	Lose2	0.6389	0.004	Yes	2.676	-0.004	1.0	GoodResponse	0	0.205	n/a	3	35	ButtonPress	AvoidedLoss	True
341.204	0.47	Lose2	0.6389	n/a	Yes	2.676	n/a	n/a	GoodResponse	0	n/a	n/a	3	35	Blank	AvoidedLoss	True
341.672	1.45	Lose2	0.6389	n/a	Yes	2.676	n/a	5	GoodResponse	0	0.006	340.678	3	35	Feedback	AvoidedLoss	True
343.126	2.676	Lose2	0.6389	n/a	Yes	2.676	n/a	n/a	GoodResponse	0	0.0	n/a	3	35	ISIslide	AvoidedLoss	True
345.818	0.25	Control	0.6486	0.0	Yes	2.682	0.018	n/a	GoodResponse	0	n/a	n/a	3	36	Cue	Neutral	True
346.068	4.0	Control	0.6486	0.0	Yes	2.682	0.0	n/a	GoodResponse	0	n/a	n/a	3	36	Fixation	Neutral	True
350.064	0.24	Control	0.6486	0.004	Yes	2.682	-0.004	1.0	GoodResponse	0	0.221	349.285	3	36	Target	Neutral	True
350.285	0.3	Control	0.6486	0.004	Yes	2.682	-0.004	1.0	GoodResponse	0	0.221	n/a	3	36	ButtonPress	Neutral	True
350.314	0.46	Control	0.6486	n/a	Yes	2.682	n/a	n/a	GoodResponse	0	n/a	n/a	3	36	Blank	Neutral	True
350.766	1.45	Control	0.6486	n/a	Yes	2.682	n/a	5	GoodResponse	0	0.034	349.8	3	36	Feedback	Neutral	True
352.22	2.682	Control	0.6486	n/a	Yes	2.682	n/a	n/a	GoodResponse	0	0.0	n/a	3	36	ISIslide	Neutral	True
354.928	0.25	Win2	0.6579	0.0	Yes	2.872	0.028	n/a	GoodResponse	1	n/a	n/a	4	37	Cue	Win	True
355.179	4.0	Win2	0.6579	0.0	Yes	2.872	0.001	n/a	GoodResponse	1	n/a	n/a	4	37	Fixation	Win	True
359.174	0.25	Win2	0.6579	0.004	Yes	2.872	-0.004	1.0	GoodResponse	1	0.177	358.351	4	37	Target	Win	True
359.351	0.3	Win2	0.6579	0.004	Yes	2.872	-0.004	1.0	GoodResponse	1	0.177	n/a	4	37	ButtonPress	Win	True
359.425	0.45	Win2	0.6579	n/a	Yes	2.872	n/a	n/a	GoodResponse	1	n/a	n/a	4	37	Blank	Win	True
359.876	1.45	Win2	0.6579	n/a	Yes	2.872	n/a	5	GoodResponse	1	0.045	358.921	4	37	Feedback	Win	True
361.331	2.872	Win2	0.6579	n/a	Yes	2.872	n/a	n/a	GoodResponse	1	0.0	n/a	4	37	ISIslide	Win	True
364.223	0.25	Lose2	0.6667000000000001	0.0	Yes	2.827	0.023	n/a	GoodResponse	0	n/a	n/a	4	38	Cue	AvoidedLoss	True
364.473	3.95	Lose2	0.6667000000000001	0.0	Yes	2.827	0.0	n/a	GoodResponse	0	n/a	n/a	4	38	Fixation	AvoidedLoss	True
368.435	0.25	Lose2	0.6667000000000001	0.0	Yes	2.827	0.012	1.0	GoodResponse	0	0.216	367.651	4	38	Target	AvoidedLoss	True
368.651	0.3	Lose2	0.6667000000000001	0.0	Yes	2.827	0.012	1.0	GoodResponse	0	0.216	n/a	4	38	ButtonPress	AvoidedLoss	True
368.669	0.45	Lose2	0.6667000000000001	n/a	Yes	2.827	n/a	n/a	GoodResponse	0	n/a	n/a	4	38	Blank	AvoidedLoss	True
369.12	1.45	Lose2	0.6667000000000001	n/a	Yes	2.827	n/a	5	GoodResponse	0	0.021	368.141	4	38	Feedback	AvoidedLoss	True
370.575	2.827	Lose2	0.6667000000000001	n/a	Yes	2.827	n/a	n/a	GoodResponse	0	0.0	n/a	4	38	ISIslide	AvoidedLoss	True
373.417	0.25	Win2	0.65	0.0	No	2.983	0.017	n/a	NoResponse	0	n/a	n/a	4	39	Cue	MissedWin	True
373.667	4.1	Win2	0.65	0.0	No	2.983	0.0	n/a	NoResponse	0	n/a	n/a	4	39	Fixation	MissedWin	True
377.763	0.24	Win2	0.65	0.004	No	2.983	-0.004	1.0	NoResponse	0	0.263	377.026	4	39	Target	MissedWin	True
378.014	0.46	Win2	0.65	n/a	No	2.983	n/a	n/a	NoResponse	0	n/a	n/a	4	39	Blank	MissedWin	True
378.026	0.3	Win2	0.65	0.004	No	2.983	-0.004	1.0	NoResponse	0	0.263	n/a	4	39	ButtonPress	MissedWin	True
378.465	1.45	Win2	0.65	n/a	No	2.983	n/a	5	NoResponse	0	0.042	377.507	4	39	Feedback	MissedWin	True
379.919	2.983	Win2	0.65	n/a	No	2.983	n/a	n/a	NoResponse	0	0.0	n/a	4	39	ISIslide	MissedWin	True
382.928	0.25	Win2	0.6585	0.0	Yes	2.722	0.028	n/a	GoodResponse	1	n/a	n/a	5	40	Cue	Win	True
383.179	3.95	Win2	0.6585	0.0	Yes	2.722	0.001	n/a	GoodResponse	1	n/a	n/a	5	40	Fixation	Win	True
387.124	0.25	Win2	0.6585	0.004	Yes	2.722	-0.004	1.0	GoodResponse	1	0.183	386.307	5	40	Target	Win	True
387.307	0.3	Win2	0.6585	0.004	Yes	2.722	-0.004	1.0	GoodResponse	1	0.183	n/a	5	40	ButtonPress	Win	True
387.375	0.45	Win2	0.6585	n/a	Yes	2.722	n/a	n/a	GoodResponse	1	n/a	n/a	5	40	Blank	Win	True
387.826	1.45	Win2	0.6585	n/a	Yes	2.722	n/a	5	GoodResponse	1	0.047	386.873	5	40	Feedback	Win	True
389.281	2.722	Win2	0.6585	n/a	Yes	2.722	n/a	n/a	GoodResponse	1	0.0	n/a	5	40	ISIslide	Win	True
392.022	0.25	Win2	0.6667000000000001	0.0	Yes	2.778	0.022	n/a	GoodResponse	1	n/a	n/a	6	41	Cue	Win	False
392.273	3.9	Win2	0.6667000000000001	0.0	Yes	2.778	0.001	1.0	GoodResponse	1	3.882	395.155	6	41	Fixation	Win	False
396.155	0.3	Win2	0.6667000000000001	0.0	Yes	2.778	0.001	1.0	GoodResponse	1	3.882	n/a	6	41	ButtonPress	Win	False
396.168	0.25	Win2	0.6667000000000001	0.004	Yes	2.778	-0.004	1.0	GoodResponse	1	0.217	395.385	6	41	Target	Win	False
396.385	0.3	Win2	0.6667000000000001	0.004	Yes	2.778	-0.004	1.0	GoodResponse	1	0.217	n/a	6	41	ButtonPress	Win	False
396.419	0.45	Win2	0.6667000000000001	n/a	Yes	2.778	n/a	n/a	GoodResponse	1	n/a	n/a	6	41	Blank	Win	False
396.87	1.45	Win2	0.6667000000000001	n/a	Yes	2.778	n/a	5	GoodResponse	1	0.026	395.896	6	41	Feedback	Win	False
398.324	2.778	Win2	0.6667000000000001	n/a	Yes	2.778	n/a	n/a	GoodResponse	1	0.0	n/a	6	41	ISIslide	Win	False
401.116	0.25	Control	0.6744	0.0	Yes	2.934	0.016	n/a	GoodResponse	0	n/a	n/a	6	42	Cue	Neutral	True
401.367	3.85	Control	0.6744	0.0	Yes	2.934	0.001	n/a	GoodResponse	0	n/a	n/a	6	42	Fixation	Neutral	True
405.212	0.24	Control	0.6744	0.004	Yes	2.934	-0.004	1.0	GoodResponse	0	0.214	404.426	6	42	Target	Neutral	True
405.426	0.3	Control	0.6744	0.004	Yes	2.934	-0.004	1.0	GoodResponse	0	0.214	n/a	6	42	ButtonPress	Neutral	True
405.462	0.46	Control	0.6744	n/a	Yes	2.934	n/a	n/a	GoodResponse	0	n/a	n/a	6	42	Blank	Neutral	True
405.914	1.45	Control	0.6744	n/a	Yes	2.934	n/a	5	GoodResponse	0	0.007	404.921	6	42	Feedback	Neutral	True
407.368	2.934	Control	0.6744	n/a	Yes	2.934	n/a	n/a	GoodResponse	0	0.0	n/a	6	42	ISIslide	Neutral	True
410.327	0.25	Win2	0.6591	0.0	No	3.173	0.027	n/a	PrematurePress	0	n/a	n/a	6	43	Cue	MissedWin	False
410.578	4.0	Win2	0.6591	0.0	No	3.173	0.001	1.0	PrematurePress	0	3.693	413.271	6	43	Fixation	MissedWin	False
414.271	0.3	Win2	0.6591	0.0	No	3.173	0.001	1.0	PrematurePress	0	3.693	n/a	6	43	ButtonPress	MissedWin	False
414.573	0.23	Win2	0.6591	0.004	No	3.173	-0.004	1.0	PrematurePress	0	0.029	413.602	6	43	Target	MissedWin	False
414.602	0.3	Win2	0.6591	0.004	No	3.173	-0.004	1.0	PrematurePress	0	0.029	n/a	6	43	ButtonPress	MissedWin	False
414.807	0.47	Win2	0.6591	n/a	No	3.173	n/a	n/a	PrematurePress	0	n/a	n/a	6	43	Blank	MissedWin	False
415.275	1.45	Win2	0.6591	n/a	No	3.173	n/a	5	PrematurePress	0	0.012	414.287	6	43	Feedback	MissedWin	False
416.729	3.173	Win2	0.6591	n/a	No	3.173	n/a	n/a	PrematurePress	0	0.0	n/a	6	43	ISIslide	MissedWin	False
419.922	0.25	Win2	0.6444	0.0	No	2.978	0.022	n/a	LatePress	0	n/a	n/a	6	44	Cue	MissedWin	True
420.173	4.0	Win2	0.6444	0.0	No	2.978	0.001	n/a	LatePress	0	n/a	n/a	6	44	Fixation	MissedWin	True
424.168	0.23	Win2	0.6444	0.004	No	2.978	-0.004	1.0	LatePress	0	0.232	423.4	6	44	Target	MissedWin	True
424.4	0.3	Win2	0.6444	0.004	No	2.978	-0.004	1.0	LatePress	0	0.232	n/a	6	44	ButtonPress	MissedWin	True
424.402	0.47	Win2	0.6444	n/a	No	2.978	n/a	n/a	LatePress	0	n/a	n/a	6	44	Blank	MissedWin	True
424.87	1.45	Win2	0.6444	n/a	No	2.978	n/a	5	LatePress	0	0.027	423.897	6	44	Feedback	MissedWin	True
426.325	2.978	Win2	0.6444	n/a	No	2.978	n/a	n/a	LatePress	0	0.0	n/a	6	44	ISIslide	MissedWin	True
429.317	0.25	Control	0.6522	0.0	Yes	2.883	0.017	n/a	GoodResponse	0	n/a	n/a	6	45	Cue	Neutral	True
429.568	4.1	Control	0.6522	0.0	Yes	2.883	0.001	n/a	GoodResponse	0	n/a	n/a	6	45	Fixation	Neutral	True
433.663	0.24	Control	0.6522	0.004	Yes	2.883	-0.004	1.0	GoodResponse	0	0.219	432.882	6	45	Target	Neutral	True
433.882	0.3	Control	0.6522	0.004	Yes	2.883	-0.004	1.0	GoodResponse	0	0.219	n/a	6	45	ButtonPress	Neutral	True
433.914	0.46	Control	0.6522	n/a	Yes	2.883	n/a	n/a	GoodResponse	0	n/a	n/a	6	45	Blank	Neutral	True
434.365	1.45	Control	0.6522	n/a	Yes	2.883	n/a	5	GoodResponse	0	0.043	433.408	6	45	Feedback	Neutral	True
435.82	2.883	Control	0.6522	n/a	Yes	2.883	n/a	n/a	GoodResponse	0	0.0	n/a	6	45	ISIslide	Neutral	True
438.728	0.25	Lose2	0.6596	0.0	Yes	3.372	0.028	n/a	GoodResponse	0	n/a	n/a	6	46	Cue	AvoidedLoss	False
438.979	4.0	Lose2	0.6596	0.0	Yes	3.372	0.001	1.0	GoodResponse	0	3.768	441.747	6	46	Fixation	AvoidedLoss	False
442.747	0.3	Lose2	0.6596	0.0	Yes	3.372	0.001	1.0	GoodResponse	0	3.768	n/a	6	46	ButtonPress	AvoidedLoss	False
442.974	0.25	Lose2	0.6596	0.004	Yes	3.372	-0.004	1.0	GoodResponse	0	0.18	442.154	6	46	Target	AvoidedLoss	False
443.154	0.3	Lose2	0.6596	0.004	Yes	3.372	-0.004	1.0	GoodResponse	0	0.18	n/a	6	46	ButtonPress	AvoidedLoss	False
443.225	0.45	Lose2	0.6596	n/a	Yes	3.372	n/a	n/a	GoodResponse	0	n/a	n/a	6	46	Blank	AvoidedLoss	False
443.676	1.45	Lose2	0.6596	n/a	Yes	3.372	n/a	5	GoodResponse	0	0.049	442.725	6	46	Feedback	AvoidedLoss	False
445.131	3.372	Lose2	0.6596	n/a	Yes	3.372	n/a	n/a	GoodResponse	0	0.0	n/a	6	46	ISIslide	AvoidedLoss	False
448.524	0.25	Lose2	0.6667000000000001	0.0	Yes	2.676	0.024	n/a	GoodResponse	0	n/a	n/a	6	47	Cue	AvoidedLoss	True
448.775	4.0	Lose2	0.6667000000000001	0.0	Yes	2.676	0.001	n/a	GoodResponse	0	n/a	n/a	6	47	Fixation	AvoidedLoss	True
452.77	0.25	Lose2	0.6667000000000001	0.004	Yes	2.676	-0.004	1.0	GoodResponse	0	0.207	451.977	6	47	Target	AvoidedLoss	True
452.977	0.3	Lose2	0.6667000000000001	0.004	Yes	2.676	-0.004	1.0	GoodResponse	0	0.207	n/a	6	47	ButtonPress	AvoidedLoss	True
453.021	0.45	Lose2	0.6667000000000001	n/a	Yes	2.676	n/a	n/a	GoodResponse	0	n/a	n/a	6	47	Blank	AvoidedLoss	True
453.472	1.45	Lose2	0.6667000000000001	n/a	Yes	2.676	n/a	5	GoodResponse	0	0.009	452.481	6	47	Feedback	AvoidedLoss	True
454.927	2.676	Lose2	0.6667000000000001	n/a	Yes	2.676	n/a	n/a	GoodResponse	0	0.0	n/a	6	47	ISIslide	AvoidedLoss	True
457.618	0.25	Lose2	0.6531	0.0	No	3.032	0.018	n/a	LatePress	-1	n/a	n/a	5	48	Cue	Loss	True
457.869	3.95	Lose2	0.6531	0.0	No	3.032	0.001	n/a	LatePress	-1	n/a	n/a	5	48	Fixation	Loss	True
461.814	0.24	Lose2	0.6531	0.004	No	3.032	-0.004	1.0	LatePress	-1	0.251	461.065	5	48	Target	Loss	True
462.065	0.46	Lose2	0.6531	n/a	No	3.032	n/a	n/a	LatePress	-1	n/a	n/a	5	48	Blank	Loss	True
462.065	0.3	Lose2	0.6531	0.004	No	3.032	-0.004	1.0	LatePress	-1	0.251	n/a	5	48	ButtonPress	Loss	True
462.516	1.45	Lose2	0.6531	n/a	No	3.032	n/a	5	LatePress	-1	0.039	461.555	5	48	Feedback	Loss	True
463.97	3.032	Lose2	0.6531	n/a	No	3.032	n/a	n/a	LatePress	-1	0.0	n/a	5	48	ISIslide	Loss	True
467.03	0.25	Control	0.66	0.0	Yes	2.87	0.03	n/a	GoodResponse	0	n/a	n/a	5	49	Cue	Neutral	True
467.28	4.0	Control	0.66	0.0	Yes	2.87	0.0	n/a	GoodResponse	0	n/a	n/a	5	49	Fixation	Neutral	True
471.276	0.25	Control	0.66	0.004	Yes	2.87	-0.004	1.0	GoodResponse	0	0.203	470.479	5	49	Target	Neutral	True
471.479	0.3	Control	0.66	0.004	Yes	2.87	-0.004	1.0	GoodResponse	0	0.203	n/a	5	49	ButtonPress	Neutral	True
471.526	0.45	Control	0.66	n/a	Yes	2.87	n/a	n/a	GoodResponse	0	n/a	n/a	5	49	Blank	Neutral	True
471.978	1.45	Control	0.66	n/a	Yes	2.87	n/a	5	GoodResponse	0	0.039	471.017	5	49	Feedback	Neutral	True
473.432	2.87	Control	0.66	n/a	Yes	2.87	n/a	n/a	GoodResponse	0	0.0	n/a	5	49	ISIslide	Neutral	True
476.324	0.25	Control	0.6667000000000001	0.0	Yes	2.776	0.024	n/a	GoodResponse	0	n/a	n/a	5	50	Cue	Neutral	False
476.575	4.0	Control	0.6667000000000001	0.0	Yes	2.776	0.001	1.0	GoodResponse	0	3.971	479.546	5	50	Fixation	Neutral	False
480.546	0.3	Control	0.6667000000000001	0.0	Yes	2.776	0.001	1.0	GoodResponse	0	3.971	n/a	5	50	ButtonPress	Neutral	False
480.57	0.25	Control	0.6667000000000001	0.004	Yes	2.776	-0.004	1.0	GoodResponse	0	0.211	479.781	5	50	Target	Neutral	False
480.781	0.3	Control	0.6667000000000001	0.004	Yes	2.776	-0.004	1.0	GoodResponse	0	0.211	n/a	5	50	ButtonPress	Neutral	False
480.821	0.45	Control	0.6667000000000001	n/a	Yes	2.776	n/a	n/a	GoodResponse	0	n/a	n/a	5	50	Blank	Neutral	False
481.272	1.45	Control	0.6667000000000001	n/a	Yes	2.776	n/a	5	GoodResponse	0	0.014	480.286	5	50	Feedback	Neutral	False
482.726	2.776	Control	0.6667000000000001	n/a	Yes	2.776	n/a	n/a	GoodResponse	0	0.0	n/a	5	50	ISIslide	Neutral	False
485.518	0.25	Control	0.6731	0.0	Yes	2.732	0.018	n/a	GoodResponse	0	n/a	n/a	5	51	Cue	Neutral	True
485.769	3.95	Control	0.6731	0.0	Yes	2.732	0.001	n/a	GoodResponse	0	n/a	n/a	5	51	Fixation	Neutral	True
489.714	0.24	Control	0.6731	0.004	Yes	2.732	-0.004	1.0	GoodResponse	0	0.171	488.885	5	51	Target	Neutral	True
489.885	0.3	Control	0.6731	0.004	Yes	2.732	-0.004	1.0	GoodResponse	0	0.171	n/a	5	51	ButtonPress	Neutral	True
489.965	0.46	Control	0.6731	n/a	Yes	2.732	n/a	n/a	GoodResponse	0	n/a	n/a	5	51	Blank	Neutral	True
490.416	1.45	Control	0.6731	n/a	Yes	2.732	n/a	5	GoodResponse	0	0.04	489.456	5	51	Feedback	Neutral	True
491.87	2.732	Control	0.6731	n/a	Yes	2.732	n/a	n/a	GoodResponse	0	0.0	n/a	5	51	ISIslide	Neutral	True
494.629	0.25	Control	0.6792	0.0	Yes	2.621	0.029	n/a	GoodResponse	0	n/a	n/a	5	52	Cue	Neutral	True
494.879	4.05	Control	0.6792	0.0	Yes	2.621	0.0	n/a	GoodResponse	0	n/a	n/a	5	52	Fixation	Neutral	True
498.925	0.23	Control	0.6792	0.004	Yes	2.621	-0.004	1.0	GoodResponse	0	0.188	498.113	5	52	Target	Neutral	True
499.113	0.3	Control	0.6792	0.004	Yes	2.621	-0.004	1.0	GoodResponse	0	0.188	n/a	5	52	ButtonPress	Neutral	True
499.159	0.47	Control	0.6792	n/a	Yes	2.621	n/a	n/a	GoodResponse	0	n/a	n/a	5	52	Blank	Neutral	True
499.627	1.45	Control	0.6792	n/a	Yes	2.621	n/a	5	GoodResponse	0	0.049	498.676	5	52	Feedback	Neutral	True
501.081	2.621	Control	0.6792	n/a	Yes	2.621	n/a	n/a	GoodResponse	0	0.0	n/a	5	52	ISIslide	Neutral	True
503.722	0.25	Win2	0.6667000000000001	0.001	No	2.928	0.022	n/a	PrematurePress	0	n/a	n/a	5	53	Cue	MissedWin	True
503.973	4.05	Win2	0.6667000000000001	0.0	No	2.928	0.001	n/a	PrematurePress	0	n/a	n/a	5	53	Fixation	MissedWin	True
508.019	0.22	Win2	0.6667000000000001	0.003	No	2.928	-0.003	1.0	PrematurePress	0	0.061	507.08	5	53	Target	MissedWin	True
508.08	0.3	Win2	0.6667000000000001	0.003	No	2.928	-0.003	1.0	PrematurePress	0	0.061	n/a	5	53	ButtonPress	MissedWin	True
508.253	0.48	Win2	0.6667000000000001	n/a	No	2.928	n/a	n/a	PrematurePress	0	n/a	n/a	5	53	Blank	MissedWin	True
508.721	1.45	Win2	0.6667000000000001	n/a	No	2.928	n/a	5	PrematurePress	0	0.027	507.748	5	53	Feedback	MissedWin	True
510.175	2.928	Win2	0.6667000000000001	n/a	No	2.928	n/a	n/a	PrematurePress	0	0.0	n/a	5	53	ISIslide	MissedWin	True
513.117	0.25	Win2	0.6727	0.0	Yes	2.733	0.017	n/a	GoodResponse	1	n/a	n/a	6	54	Cue	Win	True
513.368	3.95	Win2	0.6727	0.0	Yes	2.733	0.001	n/a	GoodResponse	1	n/a	n/a	6	54	Fixation	Win	True
517.313	0.21	Win2	0.6727	0.004	Yes	2.733	-0.004	1.0	GoodResponse	1	0.204	516.517	6	54	Target	Win	True
517.517	0.3	Win2	0.6727	0.004	Yes	2.733	-0.004	1.0	GoodResponse	1	0.204	n/a	6	54	ButtonPress	Win	True
517.53	0.49	Win2	0.6727	n/a	Yes	2.733	n/a	n/a	GoodResponse	1	n/a	n/a	6	54	Blank	Win	True
518.015	1.45	Win2	0.6727	n/a	Yes	2.733	n/a	5	GoodResponse	1	0.004	517.019	6	54	Feedback	Win	True
519.469	2.733	Win2	0.6727	n/a	Yes	2.733	n/a	n/a	GoodResponse	1	0.0	n/a	6	54	ISIslide	Win	True
522.228	0.25	Control	0.6607	0.0	No	3.022	0.028	n/a	NoResponse	0	n/a	n/a	6	55	Cue	Neutral	True
522.478	3.95	Control	0.6607	0.001	No	3.022	0.0	n/a	NoResponse	0	n/a	n/a	6	55	Fixation	Neutral	True
526.424	0.2	Control	0.6607	0.004	No	3.022	-0.004	1.0	NoResponse	0	0.211	525.635	6	55	Target	Neutral	True
526.624	0.5	Control	0.6607	n/a	No	3.022	n/a	n/a	NoResponse	0	n/a	n/a	6	55	Blank	Neutral	True
526.635	0.3	Control	0.6607	0.004	No	3.022	-0.004	1.0	NoResponse	0	0.211	n/a	6	55	ButtonPress	Neutral	True
527.126	1.45	Control	0.6607	n/a	No	3.022	n/a	5	NoResponse	0	0.013	526.139	6	55	Feedback	Neutral	True
528.58	3.022	Control	0.6607	n/a	No	3.022	n/a	n/a	NoResponse	0	0.0	n/a	6	55	ISIslide	Neutral	True
531.622	0.25	Control	0.6491	0.001	No	2.828	0.022	n/a	NoResponse	0	n/a	n/a	6	56	Cue	Neutral	True
531.873	3.95	Control	0.6491	0.0	No	2.828	0.001	n/a	NoResponse	0	n/a	n/a	6	56	Fixation	Neutral	True
535.818	0.2	Control	0.6491	0.004	No	2.828	-0.004	1.0	NoResponse	0	0.209	535.027	6	56	Target	Neutral	True
536.019	0.5	Control	0.6491	n/a	No	2.828	n/a	n/a	NoResponse	0	n/a	n/a	6	56	Blank	Neutral	True
536.027	0.3	Control	0.6491	0.004	No	2.828	-0.004	1.0	NoResponse	0	0.209	n/a	6	56	ButtonPress	Neutral	True
536.52	1.45	Control	0.6491	n/a	No	2.828	n/a	5	NoResponse	0	0.034	535.554	6	56	Feedback	Neutral	True
537.975	2.828	Control	0.6491	n/a	No	2.828	n/a	n/a	NoResponse	0	0.0	n/a	6	56	ISIslide	Neutral	True
540.817	0.25	Control	0.6379	0.0	No	3.483	0.017	n/a	NoResponse	0	n/a	n/a	6	57	Cue	Neutral	True
541.067	4.0	Control	0.6379	0.0	No	3.483	0.0	n/a	NoResponse	0	n/a	n/a	6	57	Fixation	Neutral	True
545.063	0.21	Control	0.6379	0.004	No	3.483	-0.004	1.0	NoResponse	0	0.267	544.33	6	57	Target	Neutral	True
545.28	0.49	Control	0.6379	n/a	No	3.483	n/a	n/a	NoResponse	0	n/a	n/a	6	57	Blank	Neutral	True
545.33	0.3	Control	0.6379	0.004	No	3.483	-0.004	1.0	NoResponse	0	0.267	n/a	6	57	ButtonPress	Neutral	True
545.765	1.45	Control	0.6379	n/a	No	3.483	n/a	5	NoResponse	0	0.007	544.772	6	57	Feedback	Neutral	True
547.219	3.483	Control	0.6379	n/a	No	3.483	n/a	n/a	NoResponse	0	0.0	n/a	6	57	ISIslide	Neutral	True
550.73	0.25	Win2	0.6441	0.0	Yes	2.72	0.03	n/a	GoodResponse	1	n/a	n/a	7	58	Cue	Win	True
550.98	4.05	Win2	0.6441	0.0	Yes	2.72	0.0	n/a	GoodResponse	1	n/a	n/a	7	58	Fixation	Win	True
555.026	0.22	Win2	0.6441	0.004	Yes	2.72	-0.004	1.0	GoodResponse	1	0.195	554.221	7	58	Target	Win	True
555.221	0.3	Win2	0.6441	0.004	Yes	2.72	-0.004	1.0	GoodResponse	1	0.195	n/a	7	58	ButtonPress	Win	True
555.26	0.48	Win2	0.6441	n/a	Yes	2.72	n/a	n/a	GoodResponse	1	n/a	n/a	7	58	Blank	Win	True
555.728	1.45	Win2	0.6441	n/a	Yes	2.72	n/a	5	GoodResponse	1	0.044	554.772	7	58	Feedback	Win	True
557.182	2.72	Win2	0.6441	n/a	Yes	2.72	n/a	n/a	GoodResponse	1	0.0	n/a	7	58	ISIslide	Win	True
559.924	0.25	Lose2	0.65	0.0	Yes	2.676	0.024	n/a	GoodResponse	0	n/a	n/a	7	59	Cue	AvoidedLoss	True
560.174	4.0	Lose2	0.65	0.0	Yes	2.676	0.0	n/a	GoodResponse	0	n/a	n/a	7	59	Fixation	AvoidedLoss	True
564.17	0.23	Lose2	0.65	0.004	Yes	2.676	-0.004	1.0	GoodResponse	0	0.219	563.389	7	59	Target	AvoidedLoss	True
564.389	0.3	Lose2	0.65	0.004	Yes	2.676	-0.004	1.0	GoodResponse	0	0.219	n/a	7	59	ButtonPress	AvoidedLoss	True
564.404	0.47	Lose2	0.65	n/a	Yes	2.676	n/a	n/a	GoodResponse	0	n/a	n/a	7	59	Blank	AvoidedLoss	True
564.872	1.45	Lose2	0.65	n/a	Yes	2.676	n/a	5	GoodResponse	0	0.022	563.894	7	59	Feedback	AvoidedLoss	True
566.326	2.676	Lose2	0.65	n/a	Yes	2.676	n/a	n/a	GoodResponse	0	0.0	n/a	7	59	ISIslide	AvoidedLoss	True
569.017	0.25	Control	0.6557	0.001	Yes	2.683	0.017	n/a	GoodResponse	0	n/a	n/a	7	60	Cue	Neutral	True
569.268	4.0	Control	0.6557	0.0	Yes	2.683	0.001	n/a	GoodResponse	0	n/a	n/a	7	60	Fixation	Neutral	True
573.263	0.24	Control	0.6557	0.004	Yes	2.683	-0.004	1.0	GoodResponse	0	0.224	572.487	7	60	Target	Neutral	True
573.487	0.3	Control	0.6557	0.004	Yes	2.683	-0.004	1.0	GoodResponse	0	0.224	n/a	7	60	ButtonPress	Neutral	True
573.514	0.46	Control	0.6557	n/a	Yes	2.683	n/a	n/a	GoodResponse	0	n/a	n/a	7	60	Blank	Neutral	True
573.966	1.45	Control	0.6557	n/a	Yes	2.683	n/a	5	GoodResponse	0	0.003	572.969	7	60	Feedback	Neutral	True
575.42	2.683	Control	0.6557	n/a	Yes	2.683	n/a	n/a	GoodResponse	0	0.0	n/a	7	60	ISIslide	Neutral	True
578.128	0.25	Lose2	0.6613	0.0	Yes	2.972	0.028	n/a	GoodResponse	0	n/a	n/a	7	61	Cue	AvoidedLoss	True
578.379	4.0	Lose2	0.6613	0.0	Yes	2.972	0.001	n/a	GoodResponse	0	n/a	n/a	7	61	Fixation	AvoidedLoss	True
582.374	0.24	Lose2	0.6613	0.004	Yes	2.972	-0.004	1.0	GoodResponse	0	0.13	581.504	7	61	Target	AvoidedLoss	True
582.504	0.3	Lose2	0.6613	0.004	Yes	2.972	-0.004	1.0	GoodResponse	0	0.13	n/a	7	61	ButtonPress	AvoidedLoss	True
582.625	0.46	Lose2	0.6613	n/a	Yes	2.972	n/a	n/a	GoodResponse	0	n/a	n/a	7	61	Blank	AvoidedLoss	True
583.076	1.45	Lose2	0.6613	n/a	Yes	2.972	n/a	5	GoodResponse	0	0.013	582.089	7	61	Feedback	AvoidedLoss	True
584.53	2.972	Lose2	0.6613	n/a	Yes	2.972	n/a	n/a	GoodResponse	0	0.0	n/a	7	61	ISIslide	AvoidedLoss	True
587.523	0.25	Lose2	0.6667000000000001	0.0	Yes	2.877	0.023	n/a	GoodResponse	0	n/a	n/a	7	62	Cue	AvoidedLoss	True
587.773	3.9	Lose2	0.6667000000000001	0.001	Yes	2.877	0.0	n/a	GoodResponse	0	n/a	n/a	7	62	Fixation	AvoidedLoss	True
591.685	0.24	Lose2	0.6667000000000001	0.0	Yes	2.877	0.012	1.0	GoodResponse	0	0.211	590.896	7	62	Target	AvoidedLoss	True
591.896	0.3	Lose2	0.6667000000000001	0.0	Yes	2.877	0.012	1.0	GoodResponse	0	0.211	n/a	7	62	ButtonPress	AvoidedLoss	True
591.919	0.46	Lose2	0.6667000000000001	n/a	Yes	2.877	n/a	n/a	GoodResponse	0	n/a	n/a	7	62	Blank	AvoidedLoss	True
592.371	1.45	Lose2	0.6667000000000001	n/a	Yes	2.877	n/a	5	GoodResponse	0	0.035	591.406	7	62	Feedback	AvoidedLoss	True
593.825	2.877	Lose2	0.6667000000000001	n/a	Yes	2.877	n/a	n/a	GoodResponse	0	0.0	n/a	7	62	ISIslide	AvoidedLoss	True
596.717	0.25	Lose2	0.6718999999999999	0.0	Yes	2.633	0.017	n/a	GoodResponse	0	n/a	n/a	7	63	Cue	AvoidedLoss	True
596.968	4.05	Lose2	0.6718999999999999	0.0	Yes	2.633	0.001	n/a	GoodResponse	0	n/a	n/a	7	63	Fixation	AvoidedLoss	True
601.013	0.23	Lose2	0.6718999999999999	0.004	Yes	2.633	-0.004	1.0	GoodResponse	0	0.19	600.203	7	63	Target	AvoidedLoss	True
601.203	0.3	Lose2	0.6718999999999999	0.004	Yes	2.633	-0.004	1.0	GoodResponse	0	0.19	n/a	7	63	ButtonPress	AvoidedLoss	True
601.247	0.47	Lose2	0.6718999999999999	n/a	Yes	2.633	n/a	n/a	GoodResponse	0	n/a	n/a	7	63	Blank	AvoidedLoss	True
601.715	1.45	Lose2	0.6718999999999999	n/a	Yes	2.633	n/a	5	GoodResponse	0	0.008	600.723	7	63	Feedback	AvoidedLoss	True
603.169	2.633	Lose2	0.6718999999999999	n/a	Yes	2.633	n/a	n/a	GoodResponse	0	0.0	n/a	7	63	ISIslide	AvoidedLoss	True
605.827	0.25	Win2	0.6769	0.001	Yes	3.123	0.027	n/a	GoodResponse	1	n/a	n/a	8	64	Cue	Win	True
606.078	4.15	Win2	0.6769	0.0	Yes	3.123	0.001	n/a	GoodResponse	1	n/a	n/a	8	64	Fixation	Win	True
610.224	0.22	Win2	0.6769	0.003	Yes	3.123	-0.003	1.0	GoodResponse	1	0.193	609.417	8	64	Target	Win	True
610.417	0.3	Win2	0.6769	0.003	Yes	3.123	-0.003	1.0	GoodResponse	1	0.193	n/a	8	64	ButtonPress	Win	True
610.458	0.48	Win2	0.6769	n/a	Yes	3.123	n/a	n/a	GoodResponse	1	n/a	n/a	8	64	Blank	Win	True
610.926	1.45	Win2	0.6769	n/a	Yes	3.123	n/a	5	GoodResponse	1	0.017	609.943	8	64	Feedback	Win	True
612.38	3.123	Win2	0.6769	n/a	Yes	3.123	n/a	n/a	GoodResponse	1	0.0	n/a	8	64	ISIslide	Win	True
615.523	0.25	Control	0.6818000000000001	0.0	Yes	2.777	0.023	n/a	GoodResponse	0	n/a	n/a	8	65	Cue	Neutral	True
615.774	4.0	Control	0.6818000000000001	0.0	Yes	2.777	0.001	n/a	GoodResponse	0	n/a	n/a	8	65	Fixation	Neutral	True
619.769	0.21	Control	0.6818000000000001	0.004	Yes	2.777	-0.004	1.0	GoodResponse	0	0.192	618.961	8	65	Target	Neutral	True
619.961	0.3	Control	0.6818000000000001	0.004	Yes	2.777	-0.004	1.0	GoodResponse	0	0.192	n/a	8	65	ButtonPress	Neutral	True
619.986	0.49	Control	0.6818000000000001	n/a	Yes	2.777	n/a	n/a	GoodResponse	0	n/a	n/a	8	65	Blank	Neutral	True
620.471	1.45	Control	0.6818000000000001	n/a	Yes	2.777	n/a	5	GoodResponse	0	0.032	619.503	8	65	Feedback	Neutral	True
621.925	2.777	Control	0.6818000000000001	n/a	Yes	2.777	n/a	n/a	GoodResponse	0	0.0	n/a	8	65	ISIslide	Neutral	True
624.717	0.25	Win2	0.6866	0.0	Yes	2.783	0.017	n/a	GoodResponse	1	n/a	n/a	9	66	Cue	Win	True
624.968	3.9	Win2	0.6866	0.0	Yes	2.783	0.001	n/a	GoodResponse	1	n/a	n/a	9	66	Fixation	Win	True
628.863	0.2	Win2	0.6866	0.004	Yes	2.783	-0.004	1.0	GoodResponse	1	0.197	628.06	9	66	Target	Win	True
629.06	0.3	Win2	0.6866	0.004	Yes	2.783	-0.004	1.0	GoodResponse	1	0.197	n/a	9	66	ButtonPress	Win	True
629.063	0.5	Win2	0.6866	n/a	Yes	2.783	n/a	n/a	GoodResponse	1	n/a	n/a	9	66	Blank	Win	True
629.565	1.45	Win2	0.6866	n/a	Yes	2.783	n/a	5	GoodResponse	1	0.011	628.576	9	66	Feedback	Win	True
631.019	2.783	Win2	0.6866	n/a	Yes	2.783	n/a	n/a	GoodResponse	1	0.0	n/a	9	66	ISIslide	Win	True
633.828	0.25	Control	0.6765000000000001	0.0	No	2.722	0.028	n/a	NoResponse	0	n/a	n/a	9	67	Cue	Neutral	True
634.078	3.95	Control	0.6765000000000001	0.001	No	2.722	0.0	n/a	NoResponse	0	n/a	n/a	9	67	Fixation	Neutral	True
638.024	0.19	Control	0.6765000000000001	0.004	No	2.722	-0.004	1.0	NoResponse	0	0.207	637.231	9	67	Target	Neutral	True
638.224	0.51	Control	0.6765000000000001	n/a	No	2.722	n/a	n/a	NoResponse	0	n/a	n/a	9	67	Blank	Neutral	True
638.231	0.3	Control	0.6765000000000001	0.004	No	2.722	-0.004	1.0	NoResponse	0	0.207	n/a	9	67	ButtonPress	Neutral	True
638.726	1.45	Control	0.6765000000000001	n/a	No	2.722	n/a	5	NoResponse	0	0.021	637.747	9	67	Feedback	Neutral	True
640.18	2.722	Control	0.6765000000000001	n/a	No	2.722	n/a	n/a	NoResponse	0	0.0	n/a	9	67	ISIslide	Neutral	True
642.922	0.25	Win2	0.6812	0.0	Yes	3.078	0.022	n/a	GoodResponse	1	n/a	n/a	10	68	Cue	Win	True
643.172	4.0	Win2	0.6812	0.0	Yes	3.078	0.0	n/a	GoodResponse	1	n/a	n/a	10	68	Fixation	Win	True
647.168	0.18	Win2	0.6812	0.004	Yes	3.078	-0.004	1.0	GoodResponse	1	0.174	646.342	10	68	Target	Win	True
647.342	0.3	Win2	0.6812	0.004	Yes	3.078	-0.004	1.0	GoodResponse	1	0.174	n/a	10	68	ButtonPress	Win	True
647.351	0.52	Win2	0.6812	n/a	Yes	3.078	n/a	n/a	GoodResponse	1	n/a	n/a	10	68	Blank	Win	True
647.87	1.45	Win2	0.6812	n/a	Yes	3.078	n/a	5	GoodResponse	1	0.048	646.918	10	68	Feedback	Win	True
649.324	3.078	Win2	0.6812	n/a	Yes	3.078	n/a	n/a	GoodResponse	1	0.0	n/a	10	68	ISIslide	Win	True
652.417	0.25	Win2	0.6714	0.0	No	3.233	0.017	n/a	NoResponse	0	n/a	n/a	10	69	Cue	MissedWin	True
652.667	3.95	Win2	0.6714	0.0	No	3.233	0.0	n/a	NoResponse	0	n/a	n/a	10	69	Fixation	MissedWin	True
656.629	0.17	Win2	0.6714	0.0	No	3.233	0.012	1.0	NoResponse	0	0.197	655.826	10	69	Target	MissedWin	True
656.796	0.53	Win2	0.6714	n/a	No	3.233	n/a	n/a	NoResponse	0	n/a	n/a	10	69	Blank	MissedWin	True
656.826	0.3	Win2	0.6714	0.0	No	3.233	0.012	1.0	NoResponse	0	0.197	n/a	10	69	ButtonPress	MissedWin	True
657.314	1.45	Win2	0.6714	n/a	No	3.233	n/a	5	NoResponse	0	0.018	656.332	10	69	Feedback	MissedWin	True
658.769	3.233	Win2	0.6714	n/a	No	3.233	n/a	n/a	NoResponse	0	0.0	n/a	10	69	ISIslide	MissedWin	True
662.029	0.25	Lose2	0.662	0.0	No	3.021	0.029	n/a	NoResponse	-1	n/a	n/a	9	70	Cue	Loss	True
662.279	4.05	Lose2	0.662	0.0	No	3.021	0.0	n/a	NoResponse	-1	n/a	n/a	9	70	Fixation	Loss	True
666.325	0.16	Lose2	0.662	0.004	No	3.021	-0.004	1.0	NoResponse	-1	0.207	665.532	9	70	Target	Loss	True
666.492	0.54	Lose2	0.662	n/a	No	3.021	n/a	n/a	NoResponse	-1	n/a	n/a	9	70	Blank	Loss	True
666.532	0.3	Lose2	0.662	0.004	No	3.021	-0.004	1.0	NoResponse	-1	0.207	n/a	9	70	ButtonPress	Loss	True
667.027	1.45	Lose2	0.662	n/a	No	3.021	n/a	5	NoResponse	-1	0.012	666.039	9	70	Feedback	Loss	True
668.481	3.021	Lose2	0.662	n/a	No	3.021	n/a	n/a	NoResponse	-1	0.0	n/a	9	70	ISIslide	Loss	True
671.524	0.25	Win2	0.6528	0.0	No	2.726	0.024	n/a	NoResponse	0	n/a	n/a	9	71	Cue	MissedWin	True
671.774	4.05	Win2	0.6528	0.0	No	2.726	0.0	n/a	NoResponse	0	n/a	n/a	9	71	Fixation	MissedWin	True
675.82	0.16	Win2	0.6528	0.004	No	2.726	-0.004	1.0	NoResponse	0	0.182	675.002	9	71	Target	MissedWin	True
675.987	0.54	Win2	0.6528	n/a	No	2.726	n/a	n/a	NoResponse	0	n/a	n/a	9	71	Blank	MissedWin	True
676.002	0.3	Win2	0.6528	0.004	No	2.726	-0.004	1.0	NoResponse	0	0.182	n/a	9	71	ButtonPress	MissedWin	True
676.522	1.45	Win2	0.6528	n/a	No	2.726	n/a	5	NoResponse	0	0.029	675.551	9	71	Feedback	MissedWin	True
677.976	2.726	Win2	0.6528	n/a	No	2.726	n/a	n/a	NoResponse	0	0.0	n/a	9	71	ISIslide	MissedWin	True
680.718	0.25	Win2	0.6437999999999999	0.0	No	2.782	0.018	n/a	NoResponse	0	n/a	n/a	9	72	Cue	MissedWin	True
680.968	4.1	Win2	0.6437999999999999	0.001	No	2.782	0.0	n/a	NoResponse	0	n/a	n/a	9	72	Fixation	MissedWin	True
685.064	0.17	Win2	0.6437999999999999	0.004	No	2.782	-0.004	1.0	NoResponse	0	0.189	684.253	9	72	Target	MissedWin	True
685.248	0.53	Win2	0.6437999999999999	n/a	No	2.782	n/a	n/a	NoResponse	0	n/a	n/a	9	72	Blank	MissedWin	True
685.253	0.3	Win2	0.6437999999999999	0.004	No	2.782	-0.004	1.0	NoResponse	0	0.189	n/a	9	72	ButtonPress	MissedWin	True
685.766	1.45	Win2	0.6437999999999999	n/a	No	2.782	n/a	5	NoResponse	0	0.005	684.771	9	72	Feedback	MissedWin	True
687.22	2.782	Win2	0.6437999999999999	n/a	No	2.782	n/a	n/a	NoResponse	0	0.0	n/a	9	72	ISIslide	MissedWin	True
690.029	0.25	Win2	0.6486	0.0	Yes	2.671	0.029	n/a	GoodResponse	1	n/a	n/a	10	73	Cue	Win	True
690.28	4.0	Win2	0.6486	0.0	Yes	2.671	0.001	n/a	GoodResponse	1	n/a	n/a	10	73	Fixation	Win	True
694.275	0.18	Win2	0.6486	0.004	Yes	2.671	-0.004	1.0	GoodResponse	1	0.176	693.451	10	73	Target	Win	True
694.451	0.3	Win2	0.6486	0.004	Yes	2.671	-0.004	1.0	GoodResponse	1	0.176	n/a	10	73	ButtonPress	Win	True
694.459	0.52	Win2	0.6486	n/a	Yes	2.671	n/a	n/a	GoodResponse	1	n/a	n/a	10	73	Blank	Win	True
694.977	1.45	Win2	0.6486	n/a	Yes	2.671	n/a	5	GoodResponse	1	0.013	693.99	10	73	Feedback	Win	True
696.431	2.671	Win2	0.6486	n/a	Yes	2.671	n/a	n/a	GoodResponse	1	0.0	n/a	10	73	ISIslide	Win	True
699.123	0.25	Lose2	0.6533	0.0	Yes	2.627	0.023	n/a	GoodResponse	0	n/a	n/a	10	74	Cue	AvoidedLoss	False
699.373	4.05	Lose2	0.6533	0.001	Yes	2.627	0.0	1.0	GoodResponse	0	3.978	702.351	10	74	Fixation	AvoidedLoss	False
703.351	0.3	Lose2	0.6533	0.001	Yes	2.627	0.0	1.0	GoodResponse	0	3.978	n/a	10	74	ButtonPress	AvoidedLoss	False
703.419	0.19	Lose2	0.6533	0.004	Yes	2.627	-0.004	1.0	GoodResponse	0	0.187	702.606	10	74	Target	AvoidedLoss	False
703.606	0.3	Lose2	0.6533	0.004	Yes	2.627	-0.004	1.0	GoodResponse	0	0.187	n/a	10	74	ButtonPress	AvoidedLoss	False
703.619	0.51	Lose2	0.6533	n/a	Yes	2.627	n/a	n/a	GoodResponse	0	n/a	n/a	10	74	Blank	AvoidedLoss	False
704.121	1.45	Lose2	0.6533	n/a	Yes	2.627	n/a	5	GoodResponse	0	0.04	703.161	10	74	Feedback	AvoidedLoss	False
705.575	2.627	Lose2	0.6533	n/a	Yes	2.627	n/a	n/a	GoodResponse	0	0.0	n/a	10	74	ISIslide	AvoidedLoss	False
708.217	0.25	Lose2	0.6579	0.0	Yes	2.933	0.017	n/a	GoodResponse	0	n/a	n/a	10	75	Cue	AvoidedLoss	True
708.467	3.95	Lose2	0.6579	0.0	Yes	2.933	0.0	n/a	GoodResponse	0	n/a	n/a	10	75	Fixation	AvoidedLoss	True
712.429	0.2	Lose2	0.6579	0.0	Yes	2.933	0.012	1.0	GoodResponse	0	0.174	711.603	10	75	Target	AvoidedLoss	True
712.603	0.3	Lose2	0.6579	0.0	Yes	2.933	0.012	1.0	GoodResponse	0	0.174	n/a	10	75	ButtonPress	AvoidedLoss	True
712.613	0.5	Lose2	0.6579	n/a	Yes	2.933	n/a	n/a	GoodResponse	0	n/a	n/a	10	75	Blank	AvoidedLoss	True
713.114	1.45	Lose2	0.6579	n/a	Yes	2.933	n/a	5	GoodResponse	0	0.022	712.136	10	75	Feedback	AvoidedLoss	True
714.569	2.933	Lose2	0.6579	n/a	Yes	2.933	n/a	n/a	GoodResponse	0	0.0	n/a	10	75	ISIslide	AvoidedLoss	True
717.528	0.25	Control	0.6494	0.0	No	3.222	0.028	n/a	NoResponse	0	n/a	n/a	10	76	Cue	Neutral	True
717.778	4.05	Control	0.6494	0.0	No	3.222	0.0	n/a	NoResponse	0	n/a	n/a	10	76	Fixation	Neutral	True
721.824	0.2	Control	0.6494	0.004	No	3.222	-0.004	1.0	NoResponse	0	0.231	721.055	10	76	Target	Neutral	True
722.024	0.5	Control	0.6494	n/a	No	3.222	n/a	n/a	NoResponse	0	n/a	n/a	10	76	Blank	Neutral	True
722.055	0.3	Control	0.6494	0.004	No	3.222	-0.004	1.0	NoResponse	0	0.231	n/a	10	76	ButtonPress	Neutral	True
722.526	1.45	Control	0.6494	n/a	No	3.222	n/a	5	NoResponse	0	0.025	721.551	10	76	Feedback	Neutral	True
723.98	3.222	Control	0.6494	n/a	No	3.222	n/a	n/a	NoResponse	0	0.0	n/a	10	76	ISIslide	Neutral	True
727.223	0.25	Lose2	0.6537999999999999	0.0	Yes	2.577	0.023	n/a	GoodResponse	0	n/a	n/a	10	77	Cue	AvoidedLoss	True
727.474	3.95	Lose2	0.6537999999999999	0.0	Yes	2.577	0.001	n/a	GoodResponse	0	n/a	n/a	10	77	Fixation	AvoidedLoss	True
731.419	0.21	Lose2	0.6537999999999999	0.004	Yes	2.577	-0.004	1.0	GoodResponse	0	0.205	730.624	10	77	Target	AvoidedLoss	True
731.624	0.3	Lose2	0.6537999999999999	0.004	Yes	2.577	-0.004	1.0	GoodResponse	0	0.205	n/a	10	77	ButtonPress	AvoidedLoss	True
731.636	0.49	Lose2	0.6537999999999999	n/a	Yes	2.577	n/a	n/a	GoodResponse	0	n/a	n/a	10	77	Blank	AvoidedLoss	True
732.121	1.45	Lose2	0.6537999999999999	n/a	Yes	2.577	n/a	5	GoodResponse	0	0.039	731.16	10	77	Feedback	AvoidedLoss	True
733.576	2.577	Lose2	0.6537999999999999	n/a	Yes	2.577	n/a	n/a	GoodResponse	0	0.0	n/a	10	77	ISIslide	AvoidedLoss	True
