onset	duration	cue_type	current_mean_accuracy	duration_error	is_hit	isi_adjusted	onset_delay	response	response_type	reward	rt	rt_time	total_reward	trial_number	trial_phase	trial_type	one_press
11.106	0.25	Control	1.0	0.0	Yes	2.944	0.006	n/a	GoodResponse	0	n/a	n/a	0	0	Cue	Neutral	True
11.356	3.85	Control	1.0	0.0	Yes	2.944	0.0	n/a	GoodResponse	0	n/a	n/a	0	0	Fixation	Neutral	True
15.218	0.4	Control	1.0	0.0	Yes	2.944	0.012	4.0	GoodResponse	0	0.215	14.433	0	0	Target	Neutral	True
15.433	0.3	Control	1.0	0.0	Yes	2.944	0.012	4.0	GoodResponse	0	0.215	n/a	0	0	ButtonPress	Neutral	True
15.602	0.3	Control	1.0	n/a	Yes	2.944	n/a	n/a	GoodResponse	0	n/a	n/a	0	0	Blank	Neutral	True
15.903	1.45	Control	1.0	n/a	Yes	2.944	n/a	5.0	GoodResponse	0	0.026	14.929	0	0	Feedback	Neutral	True
17.358	2.944	Control	1.0	n/a	Yes	2.944	n/a	n/a	GoodResponse	0	0.0	n/a	0	0	ISIslide	Neutral	True
20.317	0.25	Lose2	1.0	0.0	Yes	2.783	0.017	n/a	GoodResponse	0	n/a	n/a	0	1	Cue	AvoidedLoss	True
20.567	4.0	Lose2	1.0	0.0	Yes	2.783	0.0	n/a	GoodResponse	0	n/a	n/a	0	1	Fixation	AvoidedLoss	True
24.563	0.39	Lose2	1.0	0.004	Yes	2.783	-0.004	4.0	GoodResponse	0	0.213	23.776	0	1	Target	AvoidedLoss	True
24.776	0.3	Lose2	1.0	0.004	Yes	2.783	-0.004	4.0	GoodResponse	0	0.213	n/a	0	1	ButtonPress	AvoidedLoss	True
24.964	0.31	Lose2	1.0	n/a	Yes	2.783	n/a	n/a	GoodResponse	0	n/a	n/a	0	1	Blank	AvoidedLoss	True
25.265	1.45	Lose2	1.0	n/a	Yes	2.783	n/a	5.0	GoodResponse	0	0.03	24.295	0	1	Feedback	AvoidedLoss	True
26.719	2.783	Lose2	1.0	n/a	Yes	2.783	n/a	n/a	GoodResponse	0	0.0	n/a	0	1	ISIslide	AvoidedLoss	True
29.527	0.25	Control	0.6667000000000001	0.0	No	2.573	0.027	n/a	NoResponse	0	n/a	n/a	0	2	Cue	Neutral	True
29.778	4.1	Control	0.6667000000000001	0.0	No	2.573	0.001	n/a	NoResponse	0	n/a	n/a	0	2	Fixation	Neutral	True
33.874	0.38	Control	0.6667000000000001	0.003	No	2.573	-0.003	4.0	NoResponse	0	0.469	33.343	0	2	Target	Neutral	True
34.258	0.32	Control	0.6667000000000001	n/a	No	2.573	n/a	n/a	NoResponse	0	n/a	n/a	0	2	Blank	Neutral	True
34.343	0.3	Control	0.6667000000000001	0.003	No	2.573	-0.003	4.0	NoResponse	0	0.469	n/a	0	2	ButtonPress	Neutral	True
34.576	1.45	Control	0.6667000000000001	n/a	No	2.573	n/a	5.0	NoResponse	0	0.036	33.612	0	2	Feedback	Neutral	True
36.03	2.573	Control	0.6667000000000001	n/a	No	2.573	n/a	n/a	NoResponse	0	0.0	n/a	0	2	ISIslide	Neutral	True
38.621	0.25	Win2	0.75	0.0	Yes	2.829	0.021	n/a	GoodResponse	1	n/a	n/a	1	3	Cue	Win	True
38.872	3.95	Win2	0.75	0.0	Yes	2.829	0.001	n/a	GoodResponse	1	n/a	n/a	1	3	Fixation	Win	True
42.817	0.37	Win2	0.75	0.004	Yes	2.829	-0.004	4.0	GoodResponse	1	0.284	42.101	1	3	Target	Win	True
43.101	0.3	Win2	0.75	0.004	Yes	2.829	-0.004	4.0	GoodResponse	1	0.284	n/a	1	3	ButtonPress	Win	True
43.202	0.33	Win2	0.75	n/a	Yes	2.829	n/a	n/a	GoodResponse	1	n/a	n/a	1	3	Blank	Win	True
43.519	1.45	Win2	0.75	n/a	Yes	2.829	n/a	5.0	GoodResponse	1	0.02	42.539	1	3	Feedback	Win	True
44.974	2.829	Win2	0.75	n/a	Yes	2.829	n/a	n/a	GoodResponse	1	0.0	n/a	1	3	ISIslide	Win	True
47.815	0.25	Win2	0.8	0.001	Yes	3.285	0.015	n/a	GoodResponse	1	n/a	n/a	2	4	Cue	Win	True
48.066	4.0	Win2	0.8	0.0	Yes	3.285	0.001	n/a	GoodResponse	1	n/a	n/a	2	4	Fixation	Win	True
52.062	0.36	Win2	0.8	0.003	Yes	3.285	-0.003	4.0	GoodResponse	1	0.203	51.265	2	4	Target	Win	True
52.265	0.3	Win2	0.8	0.003	Yes	3.285	-0.003	4.0	GoodResponse	1	0.203	n/a	2	4	ButtonPress	Win	True
52.429	0.34	Win2	0.8	n/a	Yes	3.285	n/a	n/a	GoodResponse	1	n/a	n/a	2	4	Blank	Win	True
52.764	1.45	Win2	0.8	n/a	Yes	3.285	n/a	5.0	GoodResponse	1	0.043	51.807	2	4	Feedback	Win	True
54.218	3.285	Win2	0.8	n/a	Yes	3.285	n/a	n/a	GoodResponse	1	0.0	n/a	2	4	ISIslide	Win	True
57.528	0.25	Win2	0.6667000000000001	0.0	No	2.772	0.028	n/a	NoResponse	0	n/a	n/a	2	5	Cue	MissedWin	True
57.779	4.0	Win2	0.6667000000000001	0.0	No	2.772	0.001	n/a	NoResponse	0	n/a	n/a	2	5	Fixation	MissedWin	True
61.774	0.35	Win2	0.6667000000000001	0.004	No	2.772	-0.004	4.0	NoResponse	0	0.361	61.135	2	5	Target	MissedWin	True
62.125	0.35	Win2	0.6667000000000001	n/a	No	2.772	n/a	n/a	NoResponse	0	n/a	n/a	2	5	Blank	MissedWin	True
62.135	0.3	Win2	0.6667000000000001	0.004	No	2.772	-0.004	4.0	NoResponse	0	0.361	n/a	2	5	ButtonPress	MissedWin	True
62.476	1.45	Win2	0.6667000000000001	n/a	No	2.772	n/a	5.0	NoResponse	0	0.038	61.514	2	5	Feedback	MissedWin	True
63.93	2.772	Win2	0.6667000000000001	n/a	No	2.772	n/a	n/a	NoResponse	0	0.0	n/a	2	5	ISIslide	MissedWin	True
66.722	0.25	Lose2	0.7143	0.0	Yes	2.728	0.022	n/a	GoodResponse	0	n/a	n/a	2	6	Cue	AvoidedLoss	True
66.973	3.95	Lose2	0.7143	0.0	Yes	2.728	0.001	n/a	GoodResponse	0	n/a	n/a	2	6	Fixation	AvoidedLoss	True
70.918	0.34	Lose2	0.7143	0.004	Yes	2.728	-0.004	4.0	GoodResponse	0	0.227	70.145	2	6	Target	AvoidedLoss	True
71.145	0.3	Lose2	0.7143	0.004	Yes	2.728	-0.004	4.0	GoodResponse	0	0.227	n/a	2	6	ButtonPress	AvoidedLoss	True
71.269	0.36	Lose2	0.7143	n/a	Yes	2.728	n/a	n/a	GoodResponse	0	n/a	n/a	2	6	Blank	AvoidedLoss	True
71.62	1.45	Lose2	0.7143	n/a	Yes	2.728	n/a	5.0	GoodResponse	0	0.017	70.637	2	6	Feedback	AvoidedLoss	True
73.074	2.728	Lose2	0.7143	n/a	Yes	2.728	n/a	n/a	GoodResponse	0	0.0	n/a	2	6	ISIslide	AvoidedLoss	True
75.816	0.25	Lose2	0.75	0.0	Yes	4.034	0.016	n/a	GoodResponse	0	n/a	n/a	2	7	Cue	AvoidedLoss	False
76.067	4.05	Lose2	0.75	0.0	Yes	4.034	0.001	4.0	GoodResponse	0	1.828	76.895	2	7	Fixation	AvoidedLoss	False
77.895	0.3	Lose2	0.75	0.0	Yes	4.034	0.001	4.0	GoodResponse	0	1.828	n/a	2	7	ButtonPress	AvoidedLoss	False
80.112	0.33	Lose2	0.75	0.004	Yes	4.034	-0.004	4.0	GoodResponse	0	0.173	79.285	2	7	Target	AvoidedLoss	False
80.285	0.3	Lose2	0.75	0.004	Yes	4.034	-0.004	4.0	GoodResponse	0	0.173	n/a	2	7	ButtonPress	AvoidedLoss	False
80.446	0.37	Lose2	0.75	n/a	Yes	4.034	n/a	n/a	GoodResponse	0	n/a	n/a	2	7	Blank	AvoidedLoss	False
80.814	1.45	Lose2	0.75	n/a	Yes	4.034	n/a	5.0	GoodResponse	0	0.041	79.855	2	7	Feedback	AvoidedLoss	False
82.269	4.034	Lose2	0.75	n/a	Yes	4.034	n/a	n/a	GoodResponse	0	0.0	n/a	2	7	ISIslide	AvoidedLoss	False
86.331	0.25	Lose2	0.7778	0.0	Yes	3.019	0.031	n/a	GoodResponse	0	n/a	n/a	2	8	Cue	AvoidedLoss	True
86.582	3.95	Lose2	0.7778	0.0	Yes	3.019	0.001	n/a	GoodResponse	0	n/a	n/a	2	8	Fixation	AvoidedLoss	True
90.527	0.32	Lose2	0.7778	0.004	Yes	3.019	-0.004	4.0	GoodResponse	0	0.267	89.794	2	8	Target	AvoidedLoss	True
90.794	0.3	Lose2	0.7778	0.004	Yes	3.019	-0.004	4.0	GoodResponse	0	0.267	n/a	2	8	ButtonPress	AvoidedLoss	True
90.861	0.38	Lose2	0.7778	n/a	Yes	3.019	n/a	n/a	GoodResponse	0	n/a	n/a	2	8	Blank	AvoidedLoss	True
91.229	1.45	Lose2	0.7778	n/a	Yes	3.019	n/a	5.0	GoodResponse	0	0.016	90.245	2	8	Feedback	AvoidedLoss	True
92.683	3.019	Lose2	0.7778	n/a	Yes	3.019	n/a	n/a	GoodResponse	0	0.0	n/a	2	8	ISIslide	AvoidedLoss	True
95.726	0.25	Lose2	0.7	0.0	No	3.124	0.026	n/a	NoResponse	-1	n/a	n/a	1	9	Cue	Loss	True
95.976	3.95	Lose2	0.7	0.0	No	3.124	0.0	n/a	NoResponse	-1	n/a	n/a	1	9	Fixation	Loss	True
99.938	0.31	Lose2	0.7	0.0	No	3.124	0.012	4.0	NoResponse	-1	0.382	99.32	1	9	Target	Loss	True
100.239	0.39	Lose2	0.7	n/a	No	3.124	n/a	n/a	NoResponse	-1	n/a	n/a	1	9	Blank	Loss	True
100.32	0.3	Lose2	0.7	0.0	No	3.124	0.012	4.0	NoResponse	-1	0.382	n/a	1	9	ButtonPress	Loss	True
100.624	1.45	Lose2	0.7	n/a	No	3.124	n/a	5.0	NoResponse	-1	0.036	99.66	1	9	Feedback	Loss	True
102.078	3.124	Lose2	0.7	n/a	No	3.124	n/a	n/a	NoResponse	-1	0.0	n/a	1	9	ISIslide	Loss	True
105.221	0.25	Control	0.6364	0.0	No	3.279	0.021	n/a	NoResponse	0	n/a	n/a	1	10	Cue	Neutral	True
105.471	4.0	Control	0.6364	0.0	No	3.279	0.0	n/a	NoResponse	0	n/a	n/a	1	10	Fixation	Neutral	True
109.467	0.3	Control	0.6364	0.004	No	3.279	-0.004	4.0	NoResponse	0	0.571	109.038	1	10	Target	Neutral	True
109.768	0.4	Control	0.6364	n/a	No	3.279	n/a	n/a	NoResponse	0	n/a	n/a	1	10	Blank	Neutral	True
110.038	0.3	Control	0.6364	0.004	No	3.279	-0.004	4.0	NoResponse	0	0.571	n/a	1	10	ButtonPress	Neutral	True
110.169	1.45	Control	0.6364	n/a	No	3.279	n/a	5.0	NoResponse	0	0.007	109.176	1	10	Feedback	Neutral	True
111.623	3.279	Control	0.6364	n/a	No	3.279	n/a	n/a	NoResponse	0	0.0	n/a	1	10	ISIslide	Neutral	True
114.916	0.25	Lose2	0.6667000000000001	0.0	Yes	2.734	0.016	n/a	GoodResponse	0	n/a	n/a	1	11	Cue	AvoidedLoss	True
115.167	4.05	Lose2	0.6667000000000001	0.0	Yes	2.734	0.001	n/a	GoodResponse	0	n/a	n/a	1	11	Fixation	AvoidedLoss	True
119.213	0.31	Lose2	0.6667000000000001	0.003	Yes	2.734	-0.003	4.0	GoodResponse	0	0.285	118.498	1	11	Target	AvoidedLoss	True
119.498	0.3	Lose2	0.6667000000000001	0.003	Yes	2.734	-0.003	4.0	GoodResponse	0	0.285	n/a	1	11	ButtonPress	AvoidedLoss	True
119.53	0.39	Lose2	0.6667000000000001	n/a	Yes	2.734	n/a	n/a	GoodResponse	0	n/a	n/a	1	11	Blank	AvoidedLoss	True
119.915	1.45	Lose2	0.6667000000000001	n/a	Yes	2.734	n/a	5.0	GoodResponse	0	0.014	118.929	1	11	Feedback	AvoidedLoss	True
121.369	2.734	Lose2	0.6667000000000001	n/a	Yes	2.734	n/a	n/a	GoodResponse	0	0.0	n/a	1	11	ISIslide	AvoidedLoss	True
124.127	0.25	Control	0.6923	0.0	Yes	2.973	0.027	n/a	GoodResponse	0	n/a	n/a	1	12	Cue	Neutral	True
124.378	3.9	Control	0.6923	0.0	Yes	2.973	0.001	n/a	GoodResponse	0	n/a	n/a	1	12	Fixation	Neutral	True
128.273	0.3	Control	0.6923	0.004	Yes	2.973	-0.004	4.0	GoodResponse	0	0.227	127.5	1	12	Target	Neutral	True
128.5	0.3	Control	0.6923	0.004	Yes	2.973	-0.004	4.0	GoodResponse	0	0.227	n/a	1	12	ButtonPress	Neutral	True
128.574	0.4	Control	0.6923	n/a	Yes	2.973	n/a	n/a	GoodResponse	0	n/a	n/a	1	12	Blank	Neutral	True
128.975	1.45	Control	0.6923	n/a	Yes	2.973	n/a	5.0	GoodResponse	0	0.027	128.002	1	12	Feedback	Neutral	True
130.429	2.973	Control	0.6923	n/a	Yes	2.973	n/a	n/a	GoodResponse	0	0.0	n/a	1	12	ISIslide	Neutral	True
133.422	0.25	Control	0.6429	0.0	No	2.778	0.022	n/a	LatePress	0	n/a	n/a	1	13	Cue	Neutral	True
133.672	4.0	Control	0.6429	0.001	No	2.778	0.0	n/a	LatePress	0	n/a	n/a	1	13	Fixation	Neutral	True
137.668	0.29	Control	0.6429	0.004	No	2.778	-0.004	4.0	LatePress	0	0.293	136.961	1	13	Target	Neutral	True
137.961	0.3	Control	0.6429	0.004	No	2.778	-0.004	4.0	LatePress	0	0.293	n/a	1	13	ButtonPress	Neutral	True
137.969	0.41	Control	0.6429	n/a	No	2.778	n/a	n/a	LatePress	0	n/a	n/a	1	13	Blank	Neutral	True
138.37	1.45	Control	0.6429	n/a	No	2.778	n/a	5.0	LatePress	0	0.046	137.416	1	13	Feedback	Neutral	True
139.824	2.778	Control	0.6429	n/a	No	2.778	n/a	n/a	LatePress	0	0.0	n/a	1	13	ISIslide	Neutral	True
142.616	0.25	Win2	0.6667000000000001	0.0	Yes	2.684	0.016	n/a	GoodResponse	1	n/a	n/a	2	14	Cue	Win	True
142.867	4.1	Win2	0.6667000000000001	0.0	Yes	2.684	0.001	n/a	GoodResponse	1	n/a	n/a	2	14	Fixation	Win	True
146.962	0.3	Win2	0.6667000000000001	0.004	Yes	2.684	-0.004	4.0	GoodResponse	1	0.258	146.22	2	14	Target	Win	True
147.22	0.3	Win2	0.6667000000000001	0.004	Yes	2.684	-0.004	4.0	GoodResponse	1	0.258	n/a	2	14	ButtonPress	Win	True
147.263	0.4	Win2	0.6667000000000001	n/a	Yes	2.684	n/a	n/a	GoodResponse	1	n/a	n/a	2	14	Blank	Win	True
147.664	1.45	Win2	0.6667000000000001	n/a	Yes	2.684	n/a	5.0	GoodResponse	1	0.02	146.684	2	14	Feedback	Win	True
149.119	2.684	Win2	0.6667000000000001	n/a	Yes	2.684	n/a	n/a	GoodResponse	1	0.0	n/a	2	14	ISIslide	Win	True
151.827	0.25	Control	0.6875	0.0	Yes	2.973	0.027	n/a	GoodResponse	0	n/a	n/a	2	15	Cue	Neutral	True
152.078	4.0	Control	0.6875	0.0	Yes	2.973	0.001	n/a	GoodResponse	0	n/a	n/a	2	15	Fixation	Neutral	True
156.073	0.29	Control	0.6875	0.004	Yes	2.973	-0.004	4.0	GoodResponse	0	0.21	155.283	2	15	Target	Neutral	True
156.283	0.3	Control	0.6875	0.004	Yes	2.973	-0.004	4.0	GoodResponse	0	0.21	n/a	2	15	ButtonPress	Neutral	True
156.374	0.41	Control	0.6875	n/a	Yes	2.973	n/a	n/a	GoodResponse	0	n/a	n/a	2	15	Blank	Neutral	True
156.775	1.45	Control	0.6875	n/a	Yes	2.973	n/a	5.0	GoodResponse	0	0.031	155.806	2	15	Feedback	Neutral	True
158.229	2.973	Control	0.6875	n/a	Yes	2.973	n/a	n/a	GoodResponse	0	0.0	n/a	2	15	ISIslide	Neutral	True
161.222	0.25	Win2	0.6470999999999999	0.0	No	2.878	0.022	n/a	NoResponse	0	n/a	n/a	2	16	Cue	MissedWin	True
161.472	4.0	Win2	0.6470999999999999	0.0	No	2.878	0.0	n/a	NoResponse	0	n/a	n/a	2	16	Fixation	MissedWin	True
165.468	0.28	Win2	0.6470999999999999	0.004	No	2.878	-0.004	4.0	NoResponse	0	0.304	164.772	2	16	Target	MissedWin	True
165.752	0.42	Win2	0.6470999999999999	n/a	No	2.878	n/a	n/a	NoResponse	0	n/a	n/a	2	16	Blank	MissedWin	True
165.772	0.3	Win2	0.6470999999999999	0.004	No	2.878	-0.004	4.0	NoResponse	0	0.304	n/a	2	16	ButtonPress	MissedWin	True
166.17	1.45	Win2	0.6470999999999999	n/a	No	2.878	n/a	5.0	NoResponse	0	0.002	165.172	2	16	Feedback	MissedWin	True
167.624	2.878	Win2	0.6470999999999999	n/a	No	2.878	n/a	n/a	NoResponse	0	0.0	n/a	2	16	ISIslide	MissedWin	True
170.516	0.25	Lose2	0.6111	0.0	No	2.734	0.016	n/a	NoResponse	-1	n/a	n/a	1	17	Cue	Loss	True
170.767	3.95	Lose2	0.6111	0.0	No	2.734	0.001	n/a	NoResponse	-1	n/a	n/a	1	17	Fixation	Loss	True
174.712	0.29	Lose2	0.6111	0.004	No	2.734	-0.004	4.0	NoResponse	-1	0.443	174.155	1	17	Target	Loss	True
175.013	0.41	Lose2	0.6111	n/a	No	2.734	n/a	n/a	NoResponse	-1	n/a	n/a	1	17	Blank	Loss	True
175.155	0.3	Lose2	0.6111	0.004	No	2.734	-0.004	4.0	NoResponse	-1	0.443	n/a	1	17	ButtonPress	Loss	True
175.414	1.45	Lose2	0.6111	n/a	No	2.734	n/a	5.0	NoResponse	-1	0.027	174.441	1	17	Feedback	Loss	True
176.868	2.734	Lose2	0.6111	n/a	No	2.734	n/a	n/a	NoResponse	-1	0.0	n/a	1	17	ISIslide	Loss	True
179.627	0.25	Lose2	0.5789	0.0	No	2.723	0.027	n/a	NoResponse	-1	n/a	n/a	0	18	Cue	Loss	True
179.877	4.05	Lose2	0.5789	0.001	No	2.723	0.0	n/a	NoResponse	-1	n/a	n/a	0	18	Fixation	Loss	True
183.923	0.3	Lose2	0.5789	0.004	No	2.723	-0.004	4.0	NoResponse	-1	0.331	183.254	0	18	Target	Loss	True
184.224	0.4	Lose2	0.5789	n/a	No	2.723	n/a	n/a	NoResponse	-1	n/a	n/a	0	18	Blank	Loss	True
184.254	0.3	Lose2	0.5789	0.004	No	2.723	-0.004	4.0	NoResponse	-1	0.331	n/a	0	18	ButtonPress	Loss	True
184.625	1.45	Lose2	0.5789	n/a	No	2.723	n/a	5.0	NoResponse	-1	0.034	183.659	0	18	Feedback	Loss	True
186.079	2.723	Lose2	0.5789	n/a	No	2.723	n/a	n/a	NoResponse	-1	0.0	n/a	0	18	ISIslide	Loss	True
188.821	0.25	Control	0.55	0.0	No	2.929	0.021	n/a	NoResponse	0	n/a	n/a	0	19	Cue	Neutral	False
189.072	3.95	Control	0.55	0.0	No	2.929	0.001	n/a	NoResponse	0	n/a	n/a	0	19	Fixation	Neutral	False
193.017	0.31	Control	0.55	0.004	No	2.929	-0.004	n/a	NoResponse	0	n/a	n/a	0	19	Target	Neutral	False
193.334	0.39	Control	0.55	n/a	No	2.929	n/a	n/a	NoResponse	0	n/a	n/a	0	19	Blank	Neutral	False
193.719	1.45	Control	0.55	n/a	No	2.929	n/a	5.0	NoResponse	0	0.014	192.733	0	19	Feedback	Neutral	False
195.173	2.929	Control	0.55	n/a	No	2.929	n/a	n/a	NoResponse	0	0.0	n/a	0	19	ISIslide	Neutral	False
198.115	0.25	Control	0.5714	0.0	Yes	2.635	0.015	n/a	GoodResponse	0	n/a	n/a	0	20	Cue	Neutral	True
198.366	4.05	Control	0.5714	0.0	Yes	2.635	0.001	n/a	GoodResponse	0	n/a	n/a	0	20	Fixation	Neutral	True
202.412	0.32	Control	0.5714	0.003	Yes	2.635	-0.003	4.0	GoodResponse	0	0.225	201.637	0	20	Target	Neutral	True
202.637	0.3	Control	0.5714	0.003	Yes	2.635	-0.003	4.0	GoodResponse	0	0.225	n/a	0	20	ButtonPress	Neutral	True
202.746	0.38	Control	0.5714	n/a	Yes	2.635	n/a	n/a	GoodResponse	0	n/a	n/a	0	20	Blank	Neutral	True
203.114	1.45	Control	0.5714	n/a	Yes	2.635	n/a	5.0	GoodResponse	0	0.033	202.147	0	20	Feedback	Neutral	True
204.568	2.635	Control	0.5714	n/a	Yes	2.635	n/a	n/a	GoodResponse	0	0.0	n/a	0	20	ISIslide	Neutral	True
207.226	0.25	Control	0.5909	0.0	Yes	2.774	0.026	n/a	GoodResponse	0	n/a	n/a	0	21	Cue	Neutral	True
207.477	4.1	Control	0.5909	0.0	Yes	2.774	0.001	n/a	GoodResponse	0	n/a	n/a	0	21	Fixation	Neutral	True
211.572	0.33	Control	0.5909	0.004	Yes	2.774	-0.004	4.0	GoodResponse	0	0.291	210.863	0	21	Target	Neutral	True
211.863	0.3	Control	0.5909	0.004	Yes	2.774	-0.004	4.0	GoodResponse	0	0.291	n/a	0	21	ButtonPress	Neutral	True
211.907	0.37	Control	0.5909	n/a	Yes	2.774	n/a	n/a	GoodResponse	0	n/a	n/a	0	21	Blank	Neutral	True
212.274	1.45	Control	0.5909	n/a	Yes	2.774	n/a	5.0	GoodResponse	0	0.044	211.318	0	21	Feedback	Neutral	True
213.729	2.774	Control	0.5909	n/a	Yes	2.774	n/a	n/a	GoodResponse	0	0.0	n/a	0	21	ISIslide	Neutral	True
216.52	0.25	Control	0.6087	0.001	Yes	2.78	0.02	n/a	GoodResponse	0	n/a	n/a	0	22	Cue	Neutral	True
216.771	4.0	Control	0.6087	0.0	Yes	2.78	0.001	n/a	GoodResponse	0	n/a	n/a	0	22	Fixation	Neutral	True
220.767	0.34	Control	0.6087	0.003	Yes	2.78	-0.003	4.0	GoodResponse	0	0.336	220.103	0	22	Target	Neutral	True
221.103	0.3	Control	0.6087	0.003	Yes	2.78	-0.003	4.0	GoodResponse	0	0.336	n/a	0	22	ButtonPress	Neutral	True
221.118	0.36	Control	0.6087	n/a	Yes	2.78	n/a	n/a	GoodResponse	0	n/a	n/a	0	22	Blank	Neutral	True
221.469	1.45	Control	0.6087	n/a	Yes	2.78	n/a	5.0	GoodResponse	0	0.02	220.489	0	22	Feedback	Neutral	True
222.923	2.78	Control	0.6087	n/a	Yes	2.78	n/a	n/a	GoodResponse	0	0.0	n/a	0	22	ISIslide	Neutral	True
225.715	0.25	Control	0.625	0.0	Yes	2.785	0.015	n/a	GoodResponse	0	n/a	n/a	0	23	Cue	Neutral	True
225.965	3.9	Control	0.625	0.0	Yes	2.785	0.0	n/a	GoodResponse	0	n/a	n/a	0	23	Fixation	Neutral	True
229.877	0.35	Control	0.625	0.0	Yes	2.785	0.012	4.0	GoodResponse	0	0.338	229.215	0	23	Target	Neutral	True
230.211	0.35	Control	0.625	n/a	Yes	2.785	n/a	n/a	GoodResponse	0	n/a	n/a	0	23	Blank	Neutral	True
230.215	0.3	Control	0.625	0.0	Yes	2.785	0.012	4.0	GoodResponse	0	0.338	n/a	0	23	ButtonPress	Neutral	True
230.563	1.45	Control	0.625	n/a	Yes	2.785	n/a	5.0	GoodResponse	0	0.048	229.611	0	23	Feedback	Neutral	True
232.017	2.785	Control	0.625	n/a	Yes	2.785	n/a	n/a	GoodResponse	0	0.0	n/a	0	23	ISIslide	Neutral	True
234.825	0.25	Win2	0.64	0.0	Yes	3.125	0.025	n/a	GoodResponse	1	n/a	n/a	1	24	Cue	Win	True
235.076	3.95	Win2	0.64	0.0	Yes	3.125	0.001	n/a	GoodResponse	1	n/a	n/a	1	24	Fixation	Win	True
239.021	0.36	Win2	0.64	0.004	Yes	3.125	-0.004	4.0	GoodResponse	1	0.287	238.308	1	24	Target	Win	True
239.308	0.3	Win2	0.64	0.004	Yes	3.125	-0.004	4.0	GoodResponse	1	0.287	n/a	1	24	ButtonPress	Win	True
239.389	0.34	Win2	0.64	n/a	Yes	3.125	n/a	n/a	GoodResponse	1	n/a	n/a	1	24	Blank	Win	True
239.723	1.45	Win2	0.64	n/a	Yes	3.125	n/a	5.0	GoodResponse	1	0.009	238.732	1	24	Feedback	Win	True
241.178	3.125	Win2	0.64	n/a	Yes	3.125	n/a	n/a	GoodResponse	1	0.0	n/a	1	24	ISIslide	Win	True
244.32	0.25	Win2	0.6154	0.0	No	3.08	0.02	n/a	NoResponse	0	n/a	n/a	1	25	Cue	MissedWin	False
244.571	4.0	Win2	0.6154	0.0	No	3.08	0.001	4.0	NoResponse	0	0.34	243.911	1	25	Fixation	MissedWin	False
244.911	0.3	Win2	0.6154	0.0	No	3.08	0.001	4.0	NoResponse	0	0.34	n/a	1	25	ButtonPress	MissedWin	False
248.566	0.37	Win2	0.6154	0.004	No	3.08	-0.004	4.0	NoResponse	0	0.402	247.968	1	25	Target	MissedWin	False
248.951	0.33	Win2	0.6154	n/a	No	3.08	n/a	n/a	NoResponse	0	n/a	n/a	1	25	Blank	MissedWin	False
248.968	0.3	Win2	0.6154	0.004	No	3.08	-0.004	4.0	NoResponse	0	0.402	n/a	1	25	ButtonPress	MissedWin	False
249.268	1.45	Win2	0.6154	n/a	No	3.08	n/a	5.0	NoResponse	0	0.025	248.293	1	25	Feedback	MissedWin	False
250.723	3.08	Win2	0.6154	n/a	No	3.08	n/a	n/a	NoResponse	0	0.0	n/a	1	25	ISIslide	MissedWin	False
253.832	0.25	Win2	0.6296	0.0	Yes	2.918	0.032	n/a	GoodResponse	1	n/a	n/a	2	26	Cue	Win	True
254.083	3.95	Win2	0.6296	0.0	Yes	2.918	0.001	n/a	GoodResponse	1	n/a	n/a	2	26	Fixation	Win	True
258.028	0.38	Win2	0.6296	0.004	Yes	2.918	-0.004	4.0	GoodResponse	1	0.376	257.404	2	26	Target	Win	True
258.404	0.3	Win2	0.6296	0.004	Yes	2.918	-0.004	4.0	GoodResponse	1	0.376	n/a	2	26	ButtonPress	Win	True
258.413	0.32	Win2	0.6296	n/a	Yes	2.918	n/a	n/a	GoodResponse	1	n/a	n/a	2	26	Blank	Win	True
258.73	1.45	Win2	0.6296	n/a	Yes	2.918	n/a	5.0	GoodResponse	1	0.027	257.757	2	26	Feedback	Win	True
260.184	2.918	Win2	0.6296	n/a	Yes	2.918	n/a	n/a	GoodResponse	1	0.0	n/a	2	26	ISIslide	Win	True
263.127	0.25	Lose2	0.6429	0.0	Yes	2.823	0.027	n/a	GoodResponse	0	n/a	n/a	2	27	Cue	AvoidedLoss	True
263.377	4.05	Lose2	0.6429	0.0	Yes	2.823	0.0	n/a	GoodResponse	0	n/a	n/a	2	27	Fixation	AvoidedLoss	True
267.423	0.39	Lose2	0.6429	0.004	Yes	2.823	-0.004	4.0	GoodResponse	0	0.371	266.794	2	27	Target	AvoidedLoss	True
267.794	0.3	Lose2	0.6429	0.004	Yes	2.823	-0.004	4.0	GoodResponse	0	0.371	n/a	2	27	ButtonPress	AvoidedLoss	True
267.824	0.31	Lose2	0.6429	n/a	Yes	2.823	n/a	n/a	GoodResponse	0	n/a	n/a	2	27	Blank	AvoidedLoss	True
268.125	1.45	Lose2	0.6429	n/a	Yes	2.823	n/a	5.0	GoodResponse	0	0.047	267.172	2	27	Feedback	AvoidedLoss	True
269.579	2.823	Lose2	0.6429	n/a	Yes	2.823	n/a	n/a	GoodResponse	0	0.0	n/a	2	27	ISIslide	AvoidedLoss	True
272.421	0.25	Control	0.6552	0.0	Yes	2.829	0.021	n/a	GoodResponse	0	n/a	n/a	2	28	Cue	Neutral	True
272.672	4.05	Control	0.6552	0.0	Yes	2.829	0.001	n/a	GoodResponse	0	n/a	n/a	2	28	Fixation	Neutral	True
276.717	0.4	Control	0.6552	0.004	Yes	2.829	-0.004	4.0	GoodResponse	0	0.31	276.027	2	28	Target	Neutral	True
277.027	0.3	Control	0.6552	0.004	Yes	2.829	-0.004	4.0	GoodResponse	0	0.31	n/a	2	28	ButtonPress	Neutral	True
277.119	0.3	Control	0.6552	n/a	Yes	2.829	n/a	n/a	GoodResponse	0	n/a	n/a	2	28	Blank	Neutral	True
277.419	1.45	Control	0.6552	n/a	Yes	2.829	n/a	5.0	GoodResponse	0	0.021	276.44	2	28	Feedback	Neutral	True
278.874	2.829	Control	0.6552	n/a	Yes	2.829	n/a	n/a	GoodResponse	0	0.0	n/a	2	28	ISIslide	Neutral	True
281.716	0.25	Lose2	0.6667000000000001	0.0	Yes	2.834	0.016	n/a	GoodResponse	0	n/a	n/a	2	29	Cue	AvoidedLoss	True
281.966	3.95	Lose2	0.6667000000000001	0.0	Yes	2.834	0.0	n/a	GoodResponse	0	n/a	n/a	2	29	Fixation	AvoidedLoss	True
285.912	0.4	Lose2	0.6667000000000001	0.004	Yes	2.834	-0.004	4.0	GoodResponse	0	0.325	285.237	2	29	Target	AvoidedLoss	True
286.237	0.3	Lose2	0.6667000000000001	0.004	Yes	2.834	-0.004	4.0	GoodResponse	0	0.325	n/a	2	29	ButtonPress	AvoidedLoss	True
286.313	0.3	Lose2	0.6667000000000001	n/a	Yes	2.834	n/a	n/a	GoodResponse	0	n/a	n/a	2	29	Blank	AvoidedLoss	True
286.614	1.45	Lose2	0.6667000000000001	n/a	Yes	2.834	n/a	5.0	GoodResponse	0	0.045	285.659	2	29	Feedback	AvoidedLoss	True
288.068	2.834	Lose2	0.6667000000000001	n/a	Yes	2.834	n/a	n/a	GoodResponse	0	0.0	n/a	2	29	ISIslide	AvoidedLoss	True
290.927	0.25	Win2	0.6452	0.0	No	2.773	0.027	n/a	NoResponse	0	n/a	n/a	2	30	Cue	MissedWin	True
291.177	3.9	Win2	0.6452	0.0	No	2.773	0.0	n/a	NoResponse	0	n/a	n/a	2	30	Fixation	MissedWin	True
295.089	0.39	Win2	0.6452	0.0	No	2.773	0.012	4.0	NoResponse	0	0.627	294.716	2	30	Target	MissedWin	True
295.473	0.31	Win2	0.6452	n/a	No	2.773	n/a	n/a	NoResponse	0	n/a	n/a	2	30	Blank	MissedWin	True
295.716	0.3	Win2	0.6452	0.0	No	2.773	0.012	4.0	NoResponse	0	0.627	n/a	2	30	ButtonPress	MissedWin	True
295.774	1.45	Win2	0.6452	n/a	No	2.773	n/a	5.0	NoResponse	0	0.009	294.783	2	30	Feedback	MissedWin	True
297.229	2.773	Win2	0.6452	n/a	No	2.773	n/a	n/a	NoResponse	0	0.0	n/a	2	30	ISIslide	MissedWin	True
300.02	0.25	Lose2	0.625	0.0	No	2.83	0.02	n/a	NoResponse	-1	n/a	n/a	1	31	Cue	Loss	True
300.271	4.05	Lose2	0.625	0.0	No	2.83	0.001	n/a	NoResponse	-1	n/a	n/a	1	31	Fixation	Loss	True
304.317	0.4	Lose2	0.625	0.003	No	2.83	-0.003	4.0	NoResponse	-1	0.471	303.788	1	31	Target	Loss	True
304.718	0.3	Lose2	0.625	n/a	No	2.83	n/a	n/a	NoResponse	-1	n/a	n/a	1	31	Blank	Loss	True
304.788	0.3	Lose2	0.625	0.003	No	2.83	-0.003	4.0	NoResponse	-1	0.471	n/a	1	31	ButtonPress	Loss	True
305.019	1.45	Lose2	0.625	n/a	No	2.83	n/a	5.0	NoResponse	-1	0.03	304.049	1	31	Feedback	Loss	True
306.473	2.83	Lose2	0.625	n/a	No	2.83	n/a	n/a	NoResponse	-1	0.0	n/a	1	31	ISIslide	Loss	True
309.332	0.25	Lose2	0.6364	0.0	Yes	2.618	0.032	n/a	GoodResponse	0	n/a	n/a	1	32	Cue	AvoidedLoss	True
309.582	4.15	Lose2	0.6364	0.0	Yes	2.618	0.0	n/a	GoodResponse	0	n/a	n/a	1	32	Fixation	AvoidedLoss	True
313.728	0.41	Lose2	0.6364	0.004	Yes	2.618	-0.004	4.0	GoodResponse	0	0.291	313.019	1	32	Target	AvoidedLoss	True
314.019	0.3	Lose2	0.6364	0.004	Yes	2.618	-0.004	4.0	GoodResponse	0	0.291	n/a	1	32	ButtonPress	AvoidedLoss	True
314.146	0.29	Lose2	0.6364	n/a	Yes	2.618	n/a	n/a	GoodResponse	0	n/a	n/a	1	32	Blank	AvoidedLoss	True
314.43	1.45	Lose2	0.6364	n/a	Yes	2.618	n/a	5.0	GoodResponse	0	0.034	313.464	1	32	Feedback	AvoidedLoss	True
315.885	2.618	Lose2	0.6364	n/a	Yes	2.618	n/a	n/a	GoodResponse	0	0.0	n/a	1	32	ISIslide	AvoidedLoss	True
318.526	0.25	Win2	0.6470999999999999	0.0	Yes	2.674	0.026	n/a	GoodResponse	1	n/a	n/a	2	33	Cue	Win	True
318.777	4.0	Win2	0.6470999999999999	0.0	Yes	2.674	0.001	n/a	GoodResponse	1	n/a	n/a	2	33	Fixation	Win	True
322.772	0.42	Win2	0.6470999999999999	0.004	Yes	2.674	-0.004	4.0	GoodResponse	1	0.25	322.022	2	33	Target	Win	True
323.022	0.3	Win2	0.6470999999999999	0.004	Yes	2.674	-0.004	4.0	GoodResponse	1	0.25	n/a	2	33	ButtonPress	Win	True
323.206	0.28	Win2	0.6470999999999999	n/a	Yes	2.674	n/a	n/a	GoodResponse	1	n/a	n/a	2	33	Blank	Win	True
323.474	1.45	Win2	0.6470999999999999	n/a	Yes	2.674	n/a	5.0	GoodResponse	1	0.014	322.488	2	33	Feedback	Win	True
324.928	2.674	Win2	0.6470999999999999	n/a	Yes	2.674	n/a	n/a	GoodResponse	1	0.0	n/a	2	33	ISIslide	Win	True
327.62	0.25	Lose2	0.6570999999999999	0.0	Yes	2.63	0.02	n/a	GoodResponse	0	n/a	n/a	2	34	Cue	AvoidedLoss	True
327.87	4.05	Lose2	0.6570999999999999	0.001	Yes	2.63	0.0	n/a	GoodResponse	0	n/a	n/a	2	34	Fixation	AvoidedLoss	True
331.916	0.43	Lose2	0.6570999999999999	0.004	Yes	2.63	-0.004	4.0	GoodResponse	0	0.269	331.185	2	34	Target	AvoidedLoss	True
332.185	0.3	Lose2	0.6570999999999999	0.004	Yes	2.63	-0.004	4.0	GoodResponse	0	0.269	n/a	2	34	ButtonPress	AvoidedLoss	True
332.351	0.27	Lose2	0.6570999999999999	n/a	Yes	2.63	n/a	n/a	GoodResponse	0	n/a	n/a	2	34	Blank	AvoidedLoss	True
332.618	1.45	Lose2	0.6570999999999999	n/a	Yes	2.63	n/a	5.0	GoodResponse	0	0.04	331.658	2	34	Feedback	AvoidedLoss	True
334.072	2.63	Lose2	0.6570999999999999	n/a	Yes	2.63	n/a	n/a	GoodResponse	0	0.0	n/a	2	34	ISIslide	AvoidedLoss	True
336.73	0.25	Lose2	0.6667000000000001	0.0	Yes	2.67	0.03	n/a	GoodResponse	0	n/a	n/a	2	35	Cue	AvoidedLoss	True
336.981	4.0	Lose2	0.6667000000000001	0.0	Yes	2.67	0.001	n/a	GoodResponse	0	n/a	n/a	2	35	Fixation	AvoidedLoss	True
340.976	0.43	Lose2	0.6667000000000001	0.004	Yes	2.67	-0.004	4.0	GoodResponse	0	0.252	340.228	2	35	Target	AvoidedLoss	True
341.228	0.3	Lose2	0.6667000000000001	0.004	Yes	2.67	-0.004	4.0	GoodResponse	0	0.252	n/a	2	35	ButtonPress	AvoidedLoss	True
341.411	0.27	Lose2	0.6667000000000001	n/a	Yes	2.67	n/a	n/a	GoodResponse	0	n/a	n/a	2	35	Blank	AvoidedLoss	True
341.678	1.45	Lose2	0.6667000000000001	n/a	Yes	2.67	n/a	5.0	GoodResponse	0	0.007	340.685	2	35	Feedback	AvoidedLoss	True
343.133	2.67	Lose2	0.6667000000000001	n/a	Yes	2.67	n/a	n/a	GoodResponse	0	0.0	n/a	2	35	ISIslide	AvoidedLoss	True
345.824	0.25	Control	0.6757	0.0	Yes	2.676	0.024	n/a	GoodResponse	0	n/a	n/a	2	36	Cue	Neutral	True
346.075	4.0	Control	0.6757	0.0	Yes	2.676	0.001	n/a	GoodResponse	0	n/a	n/a	2	36	Fixation	Neutral	True
350.07	0.42	Control	0.6757	0.004	Yes	2.676	-0.004	4.0	GoodResponse	0	0.332	349.402	2	36	Target	Neutral	True
350.402	0.3	Control	0.6757	0.004	Yes	2.676	-0.004	4.0	GoodResponse	0	0.332	n/a	2	36	ButtonPress	Neutral	True
350.505	0.28	Control	0.6757	n/a	Yes	2.676	n/a	n/a	GoodResponse	0	n/a	n/a	2	36	Blank	Neutral	True
350.772	1.45	Control	0.6757	n/a	Yes	2.676	n/a	5.0	GoodResponse	0	0.033	349.805	2	36	Feedback	Neutral	True
352.227	2.676	Control	0.6757	n/a	Yes	2.676	n/a	n/a	GoodResponse	0	0.0	n/a	2	36	ISIslide	Neutral	True
354.918	0.25	Win2	0.6842	0.0	Yes	2.882	0.018	n/a	GoodResponse	1	n/a	n/a	3	37	Cue	Win	True
355.169	4.0	Win2	0.6842	0.0	Yes	2.882	0.001	n/a	GoodResponse	1	n/a	n/a	3	37	Fixation	Win	True
359.164	0.41	Win2	0.6842	0.004	Yes	2.882	-0.004	4.0	GoodResponse	1	0.242	358.406	3	37	Target	Win	True
359.406	0.3	Win2	0.6842	0.004	Yes	2.882	-0.004	4.0	GoodResponse	1	0.242	n/a	3	37	ButtonPress	Win	True
359.582	0.29	Win2	0.6842	n/a	Yes	2.882	n/a	n/a	GoodResponse	1	n/a	n/a	3	37	Blank	Win	True
359.866	1.45	Win2	0.6842	n/a	Yes	2.882	n/a	5.0	GoodResponse	1	0.012	358.878	3	37	Feedback	Win	True
361.321	2.882	Win2	0.6842	n/a	Yes	2.882	n/a	n/a	GoodResponse	1	0.0	n/a	3	37	ISIslide	Win	True
364.229	0.25	Lose2	0.6667000000000001	0.0	No	2.821	0.029	n/a	NoResponse	-1	n/a	n/a	2	38	Cue	Loss	False
364.48	3.95	Lose2	0.6667000000000001	0.0	No	2.821	0.001	n/a	NoResponse	-1	n/a	n/a	2	38	Fixation	Loss	False
368.425	0.4	Lose2	0.6667000000000001	0.004	No	2.821	-0.004	n/a	NoResponse	-1	n/a	n/a	2	38	Target	Loss	False
368.826	0.3	Lose2	0.6667000000000001	n/a	No	2.821	n/a	n/a	NoResponse	-1	n/a	n/a	2	38	Blank	Loss	False
369.127	1.45	Lose2	0.6667000000000001	n/a	No	2.821	n/a	5.0	NoResponse	-1	0.02	368.147	2	38	Feedback	Loss	False
370.582	2.821	Lose2	0.6667000000000001	n/a	No	2.821	n/a	n/a	NoResponse	-1	0.0	n/a	2	38	ISIslide	Loss	False
373.423	0.25	Win2	0.65	0.001	No	2.977	0.023	n/a	NoResponse	0	n/a	n/a	2	39	Cue	MissedWin	True
373.674	4.1	Win2	0.65	0.0	No	2.977	0.001	n/a	NoResponse	0	n/a	n/a	2	39	Fixation	MissedWin	True
377.77	0.39	Win2	0.65	0.003	No	2.977	-0.003	4.0	NoResponse	0	0.466	377.236	2	39	Target	MissedWin	True
378.171	0.31	Win2	0.65	n/a	No	2.977	n/a	n/a	NoResponse	0	n/a	n/a	2	39	Blank	MissedWin	True
378.236	0.3	Win2	0.65	0.003	No	2.977	-0.003	4.0	NoResponse	0	0.466	n/a	2	39	ButtonPress	MissedWin	True
378.472	1.45	Win2	0.65	n/a	No	2.977	n/a	5.0	NoResponse	0	0.041	377.513	2	39	Feedback	MissedWin	True
379.926	2.977	Win2	0.65	n/a	No	2.977	n/a	n/a	NoResponse	0	0.0	n/a	2	39	ISIslide	MissedWin	True
382.919	0.25	Win2	0.6585	0.0	Yes	2.731	0.019	n/a	GoodResponse	1	n/a	n/a	3	40	Cue	Win	True
383.169	3.95	Win2	0.6585	0.0	Yes	2.731	0.0	n/a	GoodResponse	1	n/a	n/a	3	40	Fixation	Win	True
387.131	0.4	Win2	0.6585	0.0	Yes	2.731	0.012	4.0	GoodResponse	1	0.303	386.434	3	40	Target	Win	True
387.434	0.3	Win2	0.6585	0.0	Yes	2.731	0.012	4.0	GoodResponse	1	0.303	n/a	3	40	ButtonPress	Win	True
387.516	0.3	Win2	0.6585	n/a	Yes	2.731	n/a	n/a	GoodResponse	1	n/a	n/a	3	40	Blank	Win	True
387.817	1.45	Win2	0.6585	n/a	Yes	2.731	n/a	5.0	GoodResponse	1	0.012	386.829	3	40	Feedback	Win	True
389.271	2.731	Win2	0.6585	n/a	Yes	2.731	n/a	n/a	GoodResponse	1	0.0	n/a	3	40	ISIslide	Win	True
392.029	0.25	Win2	0.6429	0.0	No	2.771	0.029	n/a	NoResponse	0	n/a	n/a	3	41	Cue	MissedWin	True
392.28	3.9	Win2	0.6429	0.0	No	2.771	0.001	n/a	NoResponse	0	n/a	n/a	3	41	Fixation	MissedWin	True
396.175	0.4	Win2	0.6429	0.004	No	2.771	-0.004	4.0	NoResponse	0	0.676	395.851	3	41	Target	MissedWin	True
396.576	0.3	Win2	0.6429	n/a	No	2.771	n/a	n/a	NoResponse	0	n/a	n/a	3	41	Blank	MissedWin	True
396.851	0.3	Win2	0.6429	0.004	No	2.771	-0.004	4.0	NoResponse	0	0.676	n/a	3	41	ButtonPress	MissedWin	True
396.877	1.45	Win2	0.6429	n/a	No	2.771	n/a	5.0	NoResponse	0	0.025	395.902	3	41	Feedback	MissedWin	True
398.331	2.771	Win2	0.6429	n/a	No	2.771	n/a	n/a	NoResponse	0	0.0	n/a	3	41	ISIslide	MissedWin	True
401.123	0.25	Control	0.6512	0.0	Yes	2.927	0.023	n/a	GoodResponse	0	n/a	n/a	3	42	Cue	Neutral	True
401.374	3.85	Control	0.6512	0.0	Yes	2.927	0.001	n/a	GoodResponse	0	n/a	n/a	3	42	Fixation	Neutral	True
405.219	0.41	Control	0.6512	0.004	Yes	2.927	-0.004	4.0	GoodResponse	0	0.345	404.564	3	42	Target	Neutral	True
405.564	0.3	Control	0.6512	0.004	Yes	2.927	-0.004	4.0	GoodResponse	0	0.345	n/a	3	42	ButtonPress	Neutral	True
405.637	0.29	Control	0.6512	n/a	Yes	2.927	n/a	n/a	GoodResponse	0	n/a	n/a	3	42	Blank	Neutral	True
405.921	1.45	Control	0.6512	n/a	Yes	2.927	n/a	5.0	GoodResponse	0	0.008	404.929	3	42	Feedback	Neutral	True
407.375	2.927	Control	0.6512	n/a	Yes	2.927	n/a	n/a	GoodResponse	0	0.0	n/a	3	42	ISIslide	Neutral	True
410.317	0.25	Win2	0.6591	0.0	Yes	3.183	0.017	n/a	GoodResponse	1	n/a	n/a	4	43	Cue	Win	True
410.568	4.0	Win2	0.6591	0.0	Yes	3.183	0.001	n/a	GoodResponse	1	n/a	n/a	4	43	Fixation	Win	True
414.563	0.42	Win2	0.6591	0.004	Yes	3.183	-0.004	4.0	GoodResponse	1	0.328	413.891	4	43	Target	Win	True
414.891	0.3	Win2	0.6591	0.004	Yes	3.183	-0.004	4.0	GoodResponse	1	0.328	n/a	4	43	ButtonPress	Win	True
414.998	0.28	Win2	0.6591	n/a	Yes	3.183	n/a	n/a	GoodResponse	1	n/a	n/a	4	43	Blank	Win	True
415.265	1.45	Win2	0.6591	n/a	Yes	3.183	n/a	5.0	GoodResponse	1	0.028	414.293	4	43	Feedback	Win	True
416.72	3.183	Win2	0.6591	n/a	Yes	3.183	n/a	n/a	GoodResponse	1	0.0	n/a	4	43	ISIslide	Win	True
419.929	0.25	Win2	0.6667000000000001	0.0	Yes	2.971	0.029	n/a	GoodResponse	1	n/a	n/a	5	44	Cue	Win	True
420.18	4.0	Win2	0.6667000000000001	0.0	Yes	2.971	0.001	n/a	GoodResponse	1	n/a	n/a	5	44	Fixation	Win	True
424.175	0.42	Win2	0.6667000000000001	0.004	Yes	2.971	-0.004	4.0	GoodResponse	1	0.273	423.448	5	44	Target	Win	True
424.448	0.3	Win2	0.6667000000000001	0.004	Yes	2.971	-0.004	4.0	GoodResponse	1	0.273	n/a	5	44	ButtonPress	Win	True
424.61	0.28	Win2	0.6667000000000001	n/a	Yes	2.971	n/a	n/a	GoodResponse	1	n/a	n/a	5	44	Blank	Win	True
424.877	1.45	Win2	0.6667000000000001	n/a	Yes	2.971	n/a	5.0	GoodResponse	1	0.025	423.902	5	44	Feedback	Win	True
426.332	2.971	Win2	0.6667000000000001	n/a	Yes	2.971	n/a	n/a	GoodResponse	1	0.0	n/a	5	44	ISIslide	Win	True
429.324	0.25	Control	0.6739	0.0	Yes	2.876	0.024	n/a	GoodResponse	0	n/a	n/a	5	45	Cue	Neutral	True
429.575	4.1	Control	0.6739	0.0	Yes	2.876	0.001	n/a	GoodResponse	0	n/a	n/a	5	45	Fixation	Neutral	True
433.67	0.41	Control	0.6739	0.004	Yes	2.876	-0.004	4.0	GoodResponse	0	0.404	433.074	5	45	Target	Neutral	True
434.074	0.3	Control	0.6739	0.004	Yes	2.876	-0.004	4.0	GoodResponse	0	0.404	n/a	5	45	ButtonPress	Neutral	True
434.088	0.29	Control	0.6739	n/a	Yes	2.876	n/a	n/a	GoodResponse	0	n/a	n/a	5	45	Blank	Neutral	True
434.373	1.45	Control	0.6739	n/a	Yes	2.876	n/a	5.0	GoodResponse	0	0.041	433.414	5	45	Feedback	Neutral	True
435.827	2.876	Control	0.6739	n/a	Yes	2.876	n/a	n/a	GoodResponse	0	0.0	n/a	5	45	ISIslide	Neutral	True
438.719	0.25	Lose2	0.6596	0.0	No	3.381	0.019	n/a	NoResponse	-1	n/a	n/a	4	46	Cue	Loss	False
438.97	4.0	Lose2	0.6596	0.0	No	3.381	0.001	n/a	NoResponse	-1	n/a	n/a	4	46	Fixation	Loss	False
442.965	0.4	Lose2	0.6596	0.004	No	3.381	-0.004	n/a	NoResponse	-1	n/a	n/a	4	46	Target	Loss	False
443.366	0.3	Lose2	0.6596	n/a	No	3.381	n/a	n/a	NoResponse	-1	n/a	n/a	4	46	Blank	Loss	False
443.667	1.45	Lose2	0.6596	n/a	No	3.381	n/a	5.0	NoResponse	-1	0.015	442.682	4	46	Feedback	Loss	False
445.121	3.381	Lose2	0.6596	n/a	No	3.381	n/a	n/a	NoResponse	-1	0.0	n/a	4	46	ISIslide	Loss	False
448.532	0.25	Lose2	0.6457999999999999	0.0	No	2.668	0.032	n/a	NoResponse	-1	n/a	n/a	3	47	Cue	Loss	False
448.782	4.0	Lose2	0.6457999999999999	0.0	No	2.668	0.0	n/a	NoResponse	-1	n/a	n/a	3	47	Fixation	Loss	False
452.778	0.4	Lose2	0.6457999999999999	0.004	No	2.668	-0.004	n/a	NoResponse	-1	n/a	n/a	3	47	Target	Loss	False
453.179	0.3	Lose2	0.6457999999999999	n/a	No	2.668	n/a	n/a	NoResponse	-1	n/a	n/a	3	47	Blank	Loss	False
453.48	1.45	Lose2	0.6457999999999999	n/a	No	2.668	n/a	5.0	NoResponse	-1	0.008	452.488	3	47	Feedback	Loss	False
454.934	2.668	Lose2	0.6457999999999999	n/a	No	2.668	n/a	n/a	NoResponse	-1	0.0	n/a	3	47	ISIslide	Loss	False
457.626	0.25	Lose2	0.6531	0.0	Yes	3.024	0.026	n/a	GoodResponse	0	n/a	n/a	3	48	Cue	AvoidedLoss	True
457.876	3.95	Lose2	0.6531	0.0	Yes	3.024	0.0	n/a	GoodResponse	0	n/a	n/a	3	48	Fixation	AvoidedLoss	True
461.838	0.41	Lose2	0.6531	0.0	Yes	3.024	0.012	4.0	GoodResponse	0	0.266	461.104	3	48	Target	AvoidedLoss	True
462.104	0.3	Lose2	0.6531	0.0	Yes	3.024	0.012	4.0	GoodResponse	0	0.266	n/a	3	48	ButtonPress	AvoidedLoss	True
462.239	0.29	Lose2	0.6531	n/a	Yes	3.024	n/a	n/a	GoodResponse	0	n/a	n/a	3	48	Blank	AvoidedLoss	True
462.523	1.45	Lose2	0.6531	n/a	Yes	3.024	n/a	5.0	GoodResponse	0	0.037	461.56	3	48	Feedback	AvoidedLoss	True
463.978	3.024	Lose2	0.6531	n/a	Yes	3.024	n/a	n/a	GoodResponse	0	0.0	n/a	3	48	ISIslide	AvoidedLoss	True
467.02	0.25	Control	0.66	0.0	Yes	2.88	0.02	n/a	GoodResponse	0	n/a	n/a	3	49	Cue	Neutral	True
467.271	4.0	Control	0.66	0.0	Yes	2.88	0.001	n/a	GoodResponse	0	n/a	n/a	3	49	Fixation	Neutral	True
471.266	0.42	Control	0.66	0.004	Yes	2.88	-0.004	4.0	GoodResponse	0	0.317	470.583	3	49	Target	Neutral	True
471.583	0.3	Control	0.66	0.004	Yes	2.88	-0.004	4.0	GoodResponse	0	0.317	n/a	3	49	ButtonPress	Neutral	True
471.701	0.28	Control	0.66	n/a	Yes	2.88	n/a	n/a	GoodResponse	0	n/a	n/a	3	49	Blank	Neutral	True
471.968	1.45	Control	0.66	n/a	Yes	2.88	n/a	5.0	GoodResponse	0	0.007	470.975	3	49	Feedback	Neutral	True
473.423	2.88	Control	0.66	n/a	Yes	2.88	n/a	n/a	GoodResponse	0	0.0	n/a	3	49	ISIslide	Neutral	True
476.315	0.25	Control	0.6470999999999999	0.0	No	2.785	0.015	n/a	NoResponse	0	n/a	n/a	3	50	Cue	Neutral	False
476.566	4.0	Control	0.6470999999999999	0.0	No	2.785	0.001	n/a	NoResponse	0	n/a	n/a	3	50	Fixation	Neutral	False
480.561	0.42	Control	0.6470999999999999	0.004	No	2.785	-0.004	n/a	NoResponse	0	n/a	n/a	3	50	Target	Neutral	False
480.995	0.28	Control	0.6470999999999999	n/a	No	2.785	n/a	n/a	NoResponse	0	n/a	n/a	3	50	Blank	Neutral	False
481.263	1.45	Control	0.6470999999999999	n/a	No	2.785	n/a	5.0	NoResponse	0	0.029	480.292	3	50	Feedback	Neutral	False
482.717	2.785	Control	0.6470999999999999	n/a	No	2.785	n/a	n/a	NoResponse	0	0.0	n/a	3	50	ISIslide	Neutral	False
485.526	0.25	Control	0.6537999999999999	0.0	Yes	2.724	0.026	n/a	GoodResponse	0	n/a	n/a	3	51	Cue	Neutral	True
485.776	3.95	Control	0.6537999999999999	0.001	Yes	2.724	0.0	n/a	GoodResponse	0	n/a	n/a	3	51	Fixation	Neutral	True
489.722	0.43	Control	0.6537999999999999	0.004	Yes	2.724	-0.004	4.0	GoodResponse	0	0.302	489.024	3	51	Target	Neutral	True
490.024	0.3	Control	0.6537999999999999	0.004	Yes	2.724	-0.004	4.0	GoodResponse	0	0.302	n/a	3	51	ButtonPress	Neutral	True
490.156	0.27	Control	0.6537999999999999	n/a	Yes	2.724	n/a	n/a	GoodResponse	0	n/a	n/a	3	51	Blank	Neutral	True
490.424	1.45	Control	0.6537999999999999	n/a	Yes	2.724	n/a	5.0	GoodResponse	0	0.038	489.462	3	51	Feedback	Neutral	True
491.878	2.724	Control	0.6537999999999999	n/a	Yes	2.724	n/a	n/a	GoodResponse	0	0.0	n/a	3	51	ISIslide	Neutral	True
494.62	0.25	Control	0.6604000000000001	0.0	Yes	2.63	0.02	n/a	GoodResponse	0	n/a	n/a	3	52	Cue	Neutral	True
494.87	4.05	Control	0.6604000000000001	0.0	Yes	2.63	0.0	n/a	GoodResponse	0	n/a	n/a	3	52	Fixation	Neutral	True
498.916	0.44	Control	0.6604000000000001	0.004	Yes	2.63	-0.004	4.0	GoodResponse	0	0.333	498.249	3	52	Target	Neutral	True
499.249	0.3	Control	0.6604000000000001	0.004	Yes	2.63	-0.004	4.0	GoodResponse	0	0.333	n/a	3	52	ButtonPress	Neutral	True
499.367	0.26	Control	0.6604000000000001	n/a	Yes	2.63	n/a	n/a	GoodResponse	0	n/a	n/a	3	52	Blank	Neutral	True
499.618	1.45	Control	0.6604000000000001	n/a	Yes	2.63	n/a	5.0	GoodResponse	0	0.015	498.633	3	52	Feedback	Neutral	True
501.072	2.63	Control	0.6604000000000001	n/a	Yes	2.63	n/a	n/a	GoodResponse	0	0.0	n/a	3	52	ISIslide	Neutral	True
503.73	0.25	Win2	0.6481	0.0	No	2.92	0.03	n/a	NoResponse	0	n/a	n/a	3	53	Cue	MissedWin	False
503.981	4.05	Win2	0.6481	0.0	No	2.92	0.001	n/a	NoResponse	0	n/a	n/a	3	53	Fixation	MissedWin	False
508.026	0.44	Win2	0.6481	0.004	No	2.92	-0.004	n/a	NoResponse	0	n/a	n/a	3	53	Target	MissedWin	False
508.478	0.26	Win2	0.6481	n/a	No	2.92	n/a	n/a	NoResponse	0	n/a	n/a	3	53	Blank	MissedWin	False
508.728	1.45	Win2	0.6481	n/a	No	2.92	n/a	5.0	NoResponse	0	0.027	507.755	3	53	Feedback	MissedWin	False
510.183	2.92	Win2	0.6481	n/a	No	2.92	n/a	n/a	NoResponse	0	0.0	n/a	3	53	ISIslide	MissedWin	False
513.125	0.25	Win2	0.6545000000000001	0.0	Yes	2.725	0.025	n/a	GoodResponse	1	n/a	n/a	4	54	Cue	Win	True
513.376	3.95	Win2	0.6545000000000001	0.0	Yes	2.725	0.001	n/a	GoodResponse	1	n/a	n/a	4	54	Fixation	Win	True
517.321	0.45	Win2	0.6545000000000001	0.004	Yes	2.725	-0.004	4.0	GoodResponse	1	0.287	516.608	4	54	Target	Win	True
517.608	0.3	Win2	0.6545000000000001	0.004	Yes	2.725	-0.004	4.0	GoodResponse	1	0.287	n/a	4	54	ButtonPress	Win	True
517.772	0.25	Win2	0.6545000000000001	n/a	Yes	2.725	n/a	n/a	GoodResponse	1	n/a	n/a	4	54	Blank	Win	True
518.023	1.45	Win2	0.6545000000000001	n/a	Yes	2.725	n/a	5.0	GoodResponse	1	0.001	517.024	4	54	Feedback	Win	True
519.477	2.725	Win2	0.6545000000000001	n/a	Yes	2.725	n/a	n/a	GoodResponse	1	0.0	n/a	4	54	ISIslide	Win	True
522.219	0.25	Control	0.6429	0.0	No	3.031	0.019	n/a	NoResponse	0	n/a	n/a	4	55	Cue	Neutral	True
522.47	3.95	Control	0.6429	0.0	No	3.031	0.001	n/a	NoResponse	0	n/a	n/a	4	55	Fixation	Neutral	True
526.415	0.46	Control	0.6429	0.004	No	3.031	-0.004	4.0	NoResponse	0	0.643	526.058	4	55	Target	Neutral	True
526.883	0.24	Control	0.6429	n/a	No	3.031	n/a	n/a	NoResponse	0	n/a	n/a	4	55	Blank	Neutral	True
527.058	0.3	Control	0.6429	0.004	No	3.031	-0.004	4.0	NoResponse	0	0.643	n/a	4	55	ButtonPress	Neutral	True
527.117	1.45	Control	0.6429	n/a	No	3.031	n/a	5.0	NoResponse	0	0.029	526.146	4	55	Feedback	Neutral	True
528.571	3.031	Control	0.6429	n/a	No	3.031	n/a	n/a	NoResponse	0	0.0	n/a	4	55	ISIslide	Neutral	True
531.63	0.25	Control	0.6491	0.0	Yes	2.82	0.03	n/a	GoodResponse	0	n/a	n/a	4	56	Cue	Neutral	True
531.881	3.95	Control	0.6491	0.0	Yes	2.82	0.001	n/a	GoodResponse	0	n/a	n/a	4	56	Fixation	Neutral	True
535.826	0.47	Control	0.6491	0.004	Yes	2.82	-0.004	4.0	GoodResponse	0	0.237	535.063	4	56	Target	Neutral	True
536.063	0.3	Control	0.6491	0.004	Yes	2.82	-0.004	4.0	GoodResponse	0	0.237	n/a	4	56	ButtonPress	Neutral	True
536.311	0.23	Control	0.6491	n/a	Yes	2.82	n/a	n/a	GoodResponse	0	n/a	n/a	4	56	Blank	Neutral	True
536.528	1.45	Control	0.6491	n/a	Yes	2.82	n/a	5.0	GoodResponse	0	0.031	535.559	4	56	Feedback	Neutral	True
537.983	2.82	Control	0.6491	n/a	Yes	2.82	n/a	n/a	GoodResponse	0	0.0	n/a	4	56	ISIslide	Neutral	True
540.825	0.25	Control	0.6379	0.0	No	3.475	0.025	n/a	NoResponse	0	n/a	n/a	4	57	Cue	Neutral	False
541.075	4.0	Control	0.6379	0.0	No	3.475	0.0	n/a	NoResponse	0	n/a	n/a	4	57	Fixation	Neutral	False
545.071	0.48	Control	0.6379	0.004	No	3.475	-0.004	n/a	NoResponse	0	n/a	n/a	4	57	Target	Neutral	False
545.555	0.22	Control	0.6379	n/a	No	3.475	n/a	n/a	NoResponse	0	n/a	n/a	4	57	Blank	Neutral	False
545.773	1.45	Control	0.6379	n/a	No	3.475	n/a	5.0	NoResponse	0	0.007	544.78	4	57	Feedback	Neutral	False
547.227	3.475	Control	0.6379	n/a	No	3.475	n/a	n/a	NoResponse	0	0.0	n/a	4	57	ISIslide	Neutral	False
550.721	0.25	Win2	0.6441	0.0	Yes	2.729	0.021	n/a	GoodResponse	1	n/a	n/a	5	58	Cue	Win	False
550.972	4.05	Win2	0.6441	0.0	Yes	2.729	0.001	4.0	GoodResponse	1	0.041	550.013	5	58	Fixation	Win	False
551.013	0.3	Win2	0.6441	0.0	Yes	2.729	0.001	4.0	GoodResponse	1	0.041	n/a	5	58	ButtonPress	Win	False
555.017	0.49	Win2	0.6441	0.004	Yes	2.729	-0.004	4.0	GoodResponse	1	0.278	554.295	5	58	Target	Win	False
555.295	0.3	Win2	0.6441	0.004	Yes	2.729	-0.004	4.0	GoodResponse	1	0.278	n/a	5	58	ButtonPress	Win	False
555.519	0.21	Win2	0.6441	n/a	Yes	2.729	n/a	n/a	GoodResponse	1	n/a	n/a	5	58	Blank	Win	False
555.719	1.45	Win2	0.6441	n/a	Yes	2.729	n/a	5.0	GoodResponse	1	0.011	554.73	5	58	Feedback	Win	False
557.173	2.729	Win2	0.6441	n/a	Yes	2.729	n/a	n/a	GoodResponse	1	0.0	n/a	5	58	ISIslide	Win	False
559.915	0.25	Lose2	0.65	0.0	Yes	2.685	0.015	n/a	GoodResponse	0	n/a	n/a	5	59	Cue	AvoidedLoss	True
560.166	4.0	Lose2	0.65	0.0	Yes	2.685	0.001	n/a	GoodResponse	0	n/a	n/a	5	59	Fixation	AvoidedLoss	True
564.161	0.5	Lose2	0.65	0.004	Yes	2.685	-0.004	4.0	GoodResponse	0	0.394	563.555	5	59	Target	AvoidedLoss	True
564.555	0.3	Lose2	0.65	0.004	Yes	2.685	-0.004	4.0	GoodResponse	0	0.394	n/a	5	59	ButtonPress	AvoidedLoss	True
564.663	0.2	Lose2	0.65	n/a	Yes	2.685	n/a	n/a	GoodResponse	0	n/a	n/a	5	59	Blank	AvoidedLoss	True
564.863	1.45	Lose2	0.65	n/a	Yes	2.685	n/a	5.0	GoodResponse	0	0.038	563.901	5	59	Feedback	AvoidedLoss	True
566.318	2.685	Lose2	0.65	n/a	Yes	2.685	n/a	n/a	GoodResponse	0	0.0	n/a	5	59	ISIslide	AvoidedLoss	True
569.026	0.25	Control	0.6393	0.0	No	2.674	0.026	n/a	NoResponse	0	n/a	n/a	5	60	Cue	Neutral	True
569.276	4.0	Control	0.6393	0.0	No	2.674	0.0	n/a	NoResponse	0	n/a	n/a	5	60	Fixation	Neutral	True
573.272	0.5	Control	0.6393	0.004	No	2.674	-0.004	4.0	NoResponse	0	0.53	572.802	5	60	Target	Neutral	True
573.773	0.2	Control	0.6393	n/a	No	2.674	n/a	n/a	NoResponse	0	n/a	n/a	5	60	Blank	Neutral	True
573.802	0.3	Control	0.6393	0.004	No	2.674	-0.004	4.0	NoResponse	0	0.53	n/a	5	60	ButtonPress	Neutral	True
573.974	1.45	Control	0.6393	n/a	No	2.674	n/a	5.0	NoResponse	0	0.049	573.023	5	60	Feedback	Neutral	True
575.428	2.674	Control	0.6393	n/a	No	2.674	n/a	n/a	NoResponse	0	0.0	n/a	5	60	ISIslide	Neutral	True
578.12	0.25	Lose2	0.6452	0.0	Yes	2.98	0.02	n/a	GoodResponse	0	n/a	n/a	5	61	Cue	AvoidedLoss	False
578.37	4.0	Lose2	0.6452	0.0	Yes	2.98	0.0	4.0	GoodResponse	0	0.076	577.446	5	61	Fixation	AvoidedLoss	False
578.446	0.3	Lose2	0.6452	0.0	Yes	2.98	0.0	4.0	GoodResponse	0	0.076	n/a	5	61	ButtonPress	AvoidedLoss	False
582.366	0.5	Lose2	0.6452	0.004	Yes	2.98	-0.004	4.0	GoodResponse	0	0.311	581.677	5	61	Target	AvoidedLoss	False
582.677	0.3	Lose2	0.6452	0.004	Yes	2.98	-0.004	4.0	GoodResponse	0	0.311	n/a	5	61	ButtonPress	AvoidedLoss	False
582.867	0.2	Lose2	0.6452	n/a	Yes	2.98	n/a	n/a	GoodResponse	0	n/a	n/a	5	61	Blank	AvoidedLoss	False
583.068	1.45	Lose2	0.6452	n/a	Yes	2.98	n/a	5.0	GoodResponse	0	0.029	582.097	5	61	Feedback	AvoidedLoss	False
584.522	2.98	Lose2	0.6452	n/a	Yes	2.98	n/a	n/a	GoodResponse	0	0.0	n/a	5	61	ISIslide	AvoidedLoss	False
587.531	0.25	Lose2	0.6349	0.0	No	2.869	0.031	n/a	NoResponse	-1	n/a	n/a	4	62	Cue	Loss	False
587.782	3.9	Lose2	0.6349	0.0	No	2.869	0.001	n/a	NoResponse	-1	n/a	n/a	4	62	Fixation	Loss	False
591.677	0.5	Lose2	0.6349	0.004	No	2.869	-0.004	n/a	NoResponse	-1	n/a	n/a	4	62	Target	Loss	False
592.178	0.2	Lose2	0.6349	n/a	No	2.869	n/a	n/a	NoResponse	-1	n/a	n/a	4	62	Blank	Loss	False
592.379	1.45	Lose2	0.6349	n/a	No	2.869	n/a	5.0	NoResponse	-1	0.034	591.413	4	62	Feedback	Loss	False
593.833	2.869	Lose2	0.6349	n/a	No	2.869	n/a	n/a	NoResponse	-1	0.0	n/a	4	62	ISIslide	Loss	False
596.725	0.25	Lose2	0.6406000000000001	0.0	Yes	2.625	0.025	n/a	GoodResponse	0	n/a	n/a	4	63	Cue	AvoidedLoss	True
596.976	4.05	Lose2	0.6406000000000001	0.0	Yes	2.625	0.001	n/a	GoodResponse	0	n/a	n/a	4	63	Fixation	AvoidedLoss	True
601.021	0.5	Lose2	0.6406000000000001	0.004	Yes	2.625	-0.004	4.0	GoodResponse	0	0.342	600.363	4	63	Target	AvoidedLoss	True
601.363	0.3	Lose2	0.6406000000000001	0.004	Yes	2.625	-0.004	4.0	GoodResponse	0	0.342	n/a	4	63	ButtonPress	AvoidedLoss	True
601.523	0.2	Lose2	0.6406000000000001	n/a	Yes	2.625	n/a	n/a	GoodResponse	0	n/a	n/a	4	63	Blank	AvoidedLoss	True
601.723	1.45	Lose2	0.6406000000000001	n/a	Yes	2.625	n/a	5.0	GoodResponse	0	0.007	600.73	4	63	Feedback	AvoidedLoss	True
603.178	2.625	Lose2	0.6406000000000001	n/a	Yes	2.625	n/a	n/a	GoodResponse	0	0.0	n/a	4	63	ISIslide	AvoidedLoss	True
605.819	0.25	Win2	0.6462	0.0	Yes	3.131	0.019	n/a	GoodResponse	1	n/a	n/a	5	64	Cue	Win	True
606.07	4.15	Win2	0.6462	0.0	Yes	3.131	0.001	n/a	GoodResponse	1	n/a	n/a	5	64	Fixation	Win	True
610.216	0.5	Win2	0.6462	0.003	Yes	3.131	-0.003	4.0	GoodResponse	1	0.336	609.552	5	64	Target	Win	True
610.552	0.3	Win2	0.6462	0.003	Yes	3.131	-0.003	4.0	GoodResponse	1	0.336	n/a	5	64	ButtonPress	Win	True
610.717	0.2	Win2	0.6462	n/a	Yes	3.131	n/a	n/a	GoodResponse	1	n/a	n/a	5	64	Blank	Win	True
610.918	1.45	Win2	0.6462	n/a	Yes	3.131	n/a	5.0	GoodResponse	1	0.032	609.95	5	64	Feedback	Win	True
612.372	3.131	Win2	0.6462	n/a	Yes	3.131	n/a	n/a	GoodResponse	1	0.0	n/a	5	64	ISIslide	Win	True
615.515	0.25	Control	0.6364	0.0	No	2.785	0.015	n/a	NoResponse	0	n/a	n/a	5	65	Cue	Neutral	False
615.766	4.0	Control	0.6364	0.0	No	2.785	0.001	n/a	NoResponse	0	n/a	n/a	5	65	Fixation	Neutral	False
619.761	0.5	Control	0.6364	0.004	No	2.785	-0.004	n/a	NoResponse	0	n/a	n/a	5	65	Target	Neutral	False
620.262	0.2	Control	0.6364	n/a	No	2.785	n/a	n/a	NoResponse	0	n/a	n/a	5	65	Blank	Neutral	False
620.463	1.45	Control	0.6364	n/a	No	2.785	n/a	5.0	NoResponse	0	0.048	619.511	5	65	Feedback	Neutral	False
621.917	2.785	Control	0.6364	n/a	No	2.785	n/a	n/a	NoResponse	0	0.0	n/a	5	65	ISIslide	Neutral	False
624.726	0.25	Win2	0.6418	0.0	Yes	2.774	0.026	n/a	GoodResponse	1	n/a	n/a	6	66	Cue	Win	True
624.976	3.9	Win2	0.6418	0.001	Yes	2.774	0.0	n/a	GoodResponse	1	n/a	n/a	6	66	Fixation	Win	True
628.888	0.5	Win2	0.6418	0.0	Yes	2.774	0.012	4.0	GoodResponse	1	0.322	628.21	6	66	Target	Win	True
629.21	0.3	Win2	0.6418	0.0	Yes	2.774	0.012	4.0	GoodResponse	1	0.322	n/a	6	66	ButtonPress	Win	True
629.373	0.2	Win2	0.6418	n/a	Yes	2.774	n/a	n/a	GoodResponse	1	n/a	n/a	6	66	Blank	Win	True
629.574	1.45	Win2	0.6418	n/a	Yes	2.774	n/a	5.0	GoodResponse	1	0.01	628.584	6	66	Feedback	Win	True
631.028	2.774	Win2	0.6418	n/a	Yes	2.774	n/a	n/a	GoodResponse	1	0.0	n/a	6	66	ISIslide	Win	True
633.82	0.25	Control	0.6324000000000001	0.0	No	2.73	0.02	n/a	NoResponse	0	n/a	n/a	6	67	Cue	Neutral	True
634.07	3.95	Control	0.6324000000000001	0.0	No	2.73	0.0	n/a	NoResponse	0	n/a	n/a	6	67	Fixation	Neutral	True
638.015	0.5	Control	0.6324000000000001	0.005	No	2.73	-0.005	4.0	NoResponse	0	0.512	637.527	6	67	Target	Neutral	True
638.517	0.2	Control	0.6324000000000001	n/a	No	2.73	n/a	n/a	NoResponse	0	n/a	n/a	6	67	Blank	Neutral	True
638.527	0.3	Control	0.6324000000000001	0.005	No	2.73	-0.005	4.0	NoResponse	0	0.512	n/a	6	67	ButtonPress	Neutral	True
638.718	1.45	Control	0.6324000000000001	n/a	No	2.73	n/a	5.0	NoResponse	0	0.036	637.754	6	67	Feedback	Neutral	True
640.172	2.73	Control	0.6324000000000001	n/a	No	2.73	n/a	n/a	NoResponse	0	0.0	n/a	6	67	ISIslide	Neutral	True
642.93	0.25	Win2	0.6377	0.0	Yes	3.07	0.03	n/a	GoodResponse	1	n/a	n/a	7	68	Cue	Win	True
643.181	4.0	Win2	0.6377	0.0	Yes	3.07	0.001	n/a	GoodResponse	1	n/a	n/a	7	68	Fixation	Win	True
647.176	0.5	Win2	0.6377	0.004	Yes	3.07	-0.004	4.0	GoodResponse	1	0.28	646.456	7	68	Target	Win	True
647.456	0.3	Win2	0.6377	0.004	Yes	3.07	-0.004	4.0	GoodResponse	1	0.28	n/a	7	68	ButtonPress	Win	True
647.678	0.2	Win2	0.6377	n/a	Yes	3.07	n/a	n/a	GoodResponse	1	n/a	n/a	7	68	Blank	Win	True
647.878	1.45	Win2	0.6377	n/a	Yes	3.07	n/a	5.0	GoodResponse	1	0.047	646.925	7	68	Feedback	Win	True
649.333	3.07	Win2	0.6377	n/a	Yes	3.07	n/a	n/a	GoodResponse	1	0.0	n/a	7	68	ISIslide	Win	True
652.425	0.25	Win2	0.6286	0.0	No	3.225	0.025	n/a	NoResponse	0	n/a	n/a	7	69	Cue	MissedWin	False
652.676	3.95	Win2	0.6286	0.0	No	3.225	0.001	n/a	NoResponse	0	n/a	n/a	7	69	Fixation	MissedWin	False
656.621	0.5	Win2	0.6286	0.004	No	3.225	-0.004	n/a	NoResponse	0	n/a	n/a	7	69	Target	MissedWin	False
657.123	0.2	Win2	0.6286	n/a	No	3.225	n/a	n/a	NoResponse	0	n/a	n/a	7	69	Blank	MissedWin	False
657.323	1.45	Win2	0.6286	n/a	No	3.225	n/a	5.0	NoResponse	0	0.016	656.339	7	69	Feedback	MissedWin	False
658.778	3.225	Win2	0.6286	n/a	No	3.225	n/a	n/a	NoResponse	0	0.0	n/a	7	69	ISIslide	MissedWin	False
662.021	0.25	Lose2	0.6338	0.0	Yes	3.029	0.021	n/a	GoodResponse	0	n/a	n/a	7	70	Cue	AvoidedLoss	False
662.271	4.05	Lose2	0.6338	0.001	Yes	3.029	0.0	4.0	GoodResponse	0	0.054	661.325	7	70	Fixation	AvoidedLoss	False
662.325	0.3	Lose2	0.6338	0.001	Yes	3.029	0.0	4.0	GoodResponse	0	0.054	n/a	7	70	ButtonPress	AvoidedLoss	False
666.317	0.5	Lose2	0.6338	0.004	Yes	3.029	-0.004	4.0	GoodResponse	0	0.407	665.724	7	70	Target	AvoidedLoss	False
666.724	0.3	Lose2	0.6338	0.004	Yes	3.029	-0.004	4.0	GoodResponse	0	0.407	n/a	7	70	ButtonPress	AvoidedLoss	False
666.818	0.2	Lose2	0.6338	n/a	Yes	3.029	n/a	n/a	GoodResponse	0	n/a	n/a	7	70	Blank	AvoidedLoss	False
667.019	1.45	Lose2	0.6338	n/a	Yes	3.029	n/a	5.0	GoodResponse	0	0.028	666.047	7	70	Feedback	AvoidedLoss	False
668.473	3.029	Lose2	0.6338	n/a	Yes	3.029	n/a	n/a	GoodResponse	0	0.0	n/a	7	70	ISIslide	AvoidedLoss	False
671.516	0.25	Win2	0.625	0.0	No	2.734	0.016	n/a	NoResponse	0	n/a	n/a	7	71	Cue	MissedWin	False
671.766	4.05	Win2	0.625	0.001	No	2.734	0.0	n/a	NoResponse	0	n/a	n/a	7	71	Fixation	MissedWin	False
675.812	0.5	Win2	0.625	0.004	No	2.734	-0.004	n/a	NoResponse	0	n/a	n/a	7	71	Target	MissedWin	False
676.313	0.2	Win2	0.625	n/a	No	2.734	n/a	n/a	NoResponse	0	n/a	n/a	7	71	Blank	MissedWin	False
676.514	1.45	Win2	0.625	n/a	No	2.734	n/a	5.0	NoResponse	0	0.045	675.559	7	71	Feedback	MissedWin	False
677.968	2.734	Win2	0.625	n/a	No	2.734	n/a	n/a	NoResponse	0	0.0	n/a	7	71	ISIslide	MissedWin	False
680.727	0.25	Win2	0.6164000000000001	0.0	No	2.773	0.027	n/a	NoResponse	0	n/a	n/a	7	72	Cue	MissedWin	False
680.977	4.1	Win2	0.6164000000000001	0.0	No	2.773	0.0	n/a	NoResponse	0	n/a	n/a	7	72	Fixation	MissedWin	False
685.073	0.5	Win2	0.6164000000000001	0.004	No	2.773	-0.004	n/a	NoResponse	0	n/a	n/a	7	72	Target	MissedWin	False
685.575	0.2	Win2	0.6164000000000001	n/a	No	2.773	n/a	n/a	NoResponse	0	n/a	n/a	7	72	Blank	MissedWin	False
685.775	1.45	Win2	0.6164000000000001	n/a	No	2.773	n/a	5.0	NoResponse	0	0.007	684.782	7	72	Feedback	MissedWin	False
687.229	2.773	Win2	0.6164000000000001	n/a	No	2.773	n/a	n/a	NoResponse	0	0.0	n/a	7	72	ISIslide	MissedWin	False
690.021	0.25	Win2	0.6215999999999999	0.0	Yes	2.679	0.021	n/a	GoodResponse	1	n/a	n/a	8	73	Cue	Win	True
690.272	4.0	Win2	0.6215999999999999	0.0	Yes	2.679	0.001	n/a	GoodResponse	1	n/a	n/a	8	73	Fixation	Win	True
694.267	0.5	Win2	0.6215999999999999	0.004	Yes	2.679	-0.004	4.0	GoodResponse	1	0.388	693.655	8	73	Target	Win	True
694.655	0.3	Win2	0.6215999999999999	0.004	Yes	2.679	-0.004	4.0	GoodResponse	1	0.388	n/a	8	73	ButtonPress	Win	True
694.769	0.2	Win2	0.6215999999999999	n/a	Yes	2.679	n/a	n/a	GoodResponse	1	n/a	n/a	8	73	Blank	Win	True
694.969	1.45	Win2	0.6215999999999999	n/a	Yes	2.679	n/a	5.0	GoodResponse	1	0.028	693.997	8	73	Feedback	Win	True
696.424	2.679	Win2	0.6215999999999999	n/a	Yes	2.679	n/a	n/a	GoodResponse	1	0.0	n/a	8	73	ISIslide	Win	True
699.132	0.25	Lose2	0.6133	0.0	No	2.618	0.032	n/a	NoResponse	-1	n/a	n/a	7	74	Cue	Loss	False
699.382	4.05	Lose2	0.6133	0.001	No	2.618	0.0	n/a	NoResponse	-1	n/a	n/a	7	74	Fixation	Loss	False
703.428	0.5	Lose2	0.6133	0.004	No	2.618	-0.004	n/a	NoResponse	-1	n/a	n/a	7	74	Target	Loss	False
703.929	0.2	Lose2	0.6133	n/a	No	2.618	n/a	n/a	NoResponse	-1	n/a	n/a	7	74	Blank	Loss	False
704.13	1.45	Lose2	0.6133	n/a	No	2.618	n/a	5.0	NoResponse	-1	0.038	703.168	7	74	Feedback	Loss	False
705.584	2.618	Lose2	0.6133	n/a	No	2.618	n/a	n/a	NoResponse	-1	0.0	n/a	7	74	ISIslide	Loss	False
708.226	0.25	Lose2	0.6053000000000001	0.0	No	2.924	0.026	n/a	NoResponse	-1	n/a	n/a	6	75	Cue	Loss	False
708.476	3.95	Lose2	0.6053000000000001	0.0	No	2.924	0.0	n/a	NoResponse	-1	n/a	n/a	6	75	Fixation	Loss	False
712.422	0.5	Lose2	0.6053000000000001	0.004	No	2.924	-0.004	n/a	NoResponse	-1	n/a	n/a	6	75	Target	Loss	False
712.923	0.2	Lose2	0.6053000000000001	n/a	No	2.924	n/a	n/a	NoResponse	-1	n/a	n/a	6	75	Blank	Loss	False
713.124	1.45	Lose2	0.6053000000000001	n/a	No	2.924	n/a	5.0	NoResponse	-1	0.02	712.144	6	75	Feedback	Loss	False
714.578	2.924	Lose2	0.6053000000000001	n/a	No	2.924	n/a	n/a	NoResponse	-1	0.0	n/a	6	75	ISIslide	Loss	False
717.52	0.25	Control	0.6103999999999999	0.0	Yes	3.23	0.02	n/a	GoodResponse	0	n/a	n/a	6	76	Cue	Neutral	False
717.771	4.05	Control	0.6103999999999999	0.0	Yes	3.23	0.001	4.0	GoodResponse	0	0.191	716.962	6	76	Fixation	Neutral	False
717.962	0.3	Control	0.6103999999999999	0.0	Yes	3.23	0.001	4.0	GoodResponse	0	0.191	n/a	6	76	ButtonPress	Neutral	False
721.816	0.5	Control	0.6103999999999999	0.004	Yes	3.23	-0.004	4.0	GoodResponse	0	0.378	721.194	6	76	Target	Neutral	False
722.194	0.3	Control	0.6103999999999999	0.004	Yes	3.23	-0.004	4.0	GoodResponse	0	0.378	n/a	6	76	ButtonPress	Neutral	False
722.318	0.2	Control	0.6103999999999999	n/a	Yes	3.23	n/a	n/a	GoodResponse	0	n/a	n/a	6	76	Blank	Neutral	False
722.518	1.45	Control	0.6103999999999999	n/a	Yes	3.23	n/a	5.0	GoodResponse	0	0.041	721.559	6	76	Feedback	Neutral	False
723.973	3.23	Control	0.6103999999999999	n/a	Yes	3.23	n/a	n/a	GoodResponse	0	0.0	n/a	6	76	ISIslide	Neutral	False
727.216	0.25	Lose2	0.6154	0.0	Yes	2.584	0.016	n/a	GoodResponse	0	n/a	n/a	6	77	Cue	AvoidedLoss	True
727.467	3.95	Lose2	0.6154	0.0	Yes	2.584	0.001	n/a	GoodResponse	0	n/a	n/a	6	77	Fixation	AvoidedLoss	True
731.412	0.5	Lose2	0.6154	0.004	Yes	2.584	-0.004	4.0	GoodResponse	0	0.392	730.804	6	77	Target	AvoidedLoss	True
731.804	0.3	Lose2	0.6154	0.004	Yes	2.584	-0.004	4.0	GoodResponse	0	0.392	n/a	6	77	ButtonPress	AvoidedLoss	True
731.913	0.2	Lose2	0.6154	n/a	Yes	2.584	n/a	n/a	GoodResponse	0	n/a	n/a	6	77	Blank	AvoidedLoss	True
732.114	1.45	Lose2	0.6154	n/a	Yes	2.584	n/a	5.0	GoodResponse	0	0.008	731.122	6	77	Feedback	AvoidedLoss	True
733.568	2.584	Lose2	0.6154	n/a	Yes	2.584	n/a	n/a	GoodResponse	0	0.0	n/a	6	77	ISIslide	AvoidedLoss	True
