onset	duration	cue_type	current_mean_accuracy	duration_error	is_hit	isi_adjusted	onset_delay	response	response_type	reward	rt	rt_time	total_reward	trial_number	trial_phase	trial_type	one_press
11.111	0.25	Control	1.0	0.0	Yes	2.939	0.011	n/a	GoodResponse	0	n/a	n/a	0	0	Cue	Neutral	True
11.362	3.85	Control	1.0	0.0	Yes	2.939	0.001	n/a	GoodResponse	0	n/a	n/a	0	0	Fixation	Neutral	True
15.207	0.4	Control	1.0	0.004	Yes	2.939	-0.004	2.0	GoodResponse	0	0.27	14.477	0	0	Target	Neutral	True
15.477	0.3	Control	1.0	0.004	Yes	2.939	-0.004	2.0	GoodResponse	0	0.27	n/a	0	0	ButtonPress	Neutral	True
15.608	0.3	Control	1.0	n/a	Yes	2.939	n/a	n/a	GoodResponse	0	n/a	n/a	0	0	Blank	Neutral	True
15.909	1.45	Control	1.0	n/a	Yes	2.939	n/a	5.0	GoodResponse	0	0.018	14.927	0	0	Feedback	Neutral	True
17.363	2.939	Control	1.0	n/a	Yes	2.939	n/a	n/a	GoodResponse	0	0.0	n/a	0	0	ISIslide	Neutral	True
20.372	0.25	Lose2	1.0	0.0	Yes	2.728	0.072	n/a	GoodResponse	0	n/a	n/a	0	1	Cue	AvoidedLoss	True
20.623	4.0	Lose2	1.0	0.0	Yes	2.728	0.001	n/a	GoodResponse	0	n/a	n/a	0	1	Fixation	AvoidedLoss	True
24.618	0.39	Lose2	1.0	0.004	Yes	2.728	-0.004	2.0	GoodResponse	0	0.353	23.971	0	1	Target	AvoidedLoss	True
24.971	0.3	Lose2	1.0	0.004	Yes	2.728	-0.004	2.0	GoodResponse	0	0.353	n/a	0	1	ButtonPress	AvoidedLoss	True
25.019	0.31	Lose2	1.0	n/a	Yes	2.728	n/a	n/a	GoodResponse	0	n/a	n/a	0	1	Blank	AvoidedLoss	True
25.32	1.45	Lose2	1.0	n/a	Yes	2.728	n/a	5.0	GoodResponse	0	0.022	24.342	0	1	Feedback	AvoidedLoss	True
26.774	2.728	Lose2	1.0	n/a	Yes	2.728	n/a	n/a	GoodResponse	0	0.0	n/a	0	1	ISIslide	AvoidedLoss	True
29.516	0.25	Control	1.0	0.0	Yes	2.584	0.016	n/a	GoodResponse	0	n/a	n/a	0	2	Cue	Neutral	True
29.767	4.1	Control	1.0	0.0	Yes	2.584	0.001	n/a	GoodResponse	0	n/a	n/a	0	2	Fixation	Neutral	True
33.862	0.38	Control	1.0	0.004	Yes	2.584	-0.004	2.0	GoodResponse	0	0.253	33.115	0	2	Target	Neutral	True
34.115	0.3	Control	1.0	0.004	Yes	2.584	-0.004	2.0	GoodResponse	0	0.253	n/a	0	2	ButtonPress	Neutral	True
34.247	0.32	Control	1.0	n/a	Yes	2.584	n/a	n/a	GoodResponse	0	n/a	n/a	0	2	Blank	Neutral	True
34.564	1.45	Control	1.0	n/a	Yes	2.584	n/a	5.0	GoodResponse	0	0.045	33.609	0	2	Feedback	Neutral	True
36.019	2.584	Control	1.0	n/a	Yes	2.584	n/a	n/a	GoodResponse	0	0.0	n/a	0	2	ISIslide	Neutral	True
38.627	0.25	Win2	1.0	0.0	Yes	2.823	0.027	n/a	GoodResponse	1	n/a	n/a	1	3	Cue	Win	True
38.877	3.95	Win2	1.0	0.0	Yes	2.823	0.0	n/a	GoodResponse	1	n/a	n/a	1	3	Fixation	Win	True
42.839	0.37	Win2	1.0	0.0	Yes	2.823	0.012	2.0	GoodResponse	1	0.256	42.095	1	3	Target	Win	True
43.095	0.3	Win2	1.0	0.0	Yes	2.823	0.012	2.0	GoodResponse	1	0.256	n/a	1	3	ButtonPress	Win	True
43.207	0.33	Win2	1.0	n/a	Yes	2.823	n/a	n/a	GoodResponse	1	n/a	n/a	1	3	Blank	Win	True
43.524	1.45	Win2	1.0	n/a	Yes	2.823	n/a	5.0	GoodResponse	1	0.012	42.536	1	3	Feedback	Win	True
44.979	2.823	Win2	1.0	n/a	Yes	2.823	n/a	n/a	GoodResponse	1	0.0	n/a	1	3	ISIslide	Win	True
47.821	0.25	Win2	1.0	0.0	Yes	3.279	0.021	n/a	GoodResponse	1	n/a	n/a	2	4	Cue	Win	True
48.071	4.0	Win2	1.0	0.0	Yes	3.279	0.0	n/a	GoodResponse	1	n/a	n/a	2	4	Fixation	Win	True
52.067	0.36	Win2	1.0	0.004	Yes	3.279	-0.004	2.0	GoodResponse	1	0.231	51.298	2	4	Target	Win	True
52.298	0.3	Win2	1.0	0.004	Yes	3.279	-0.004	2.0	GoodResponse	1	0.231	n/a	2	4	ButtonPress	Win	True
52.434	0.34	Win2	1.0	n/a	Yes	3.279	n/a	n/a	GoodResponse	1	n/a	n/a	2	4	Blank	Win	True
52.769	1.45	Win2	1.0	n/a	Yes	3.279	n/a	5.0	GoodResponse	1	0.035	51.804	2	4	Feedback	Win	True
54.223	3.279	Win2	1.0	n/a	Yes	3.279	n/a	n/a	GoodResponse	1	0.0	n/a	2	4	ISIslide	Win	True
57.516	0.25	Win2	0.8332999999999999	0.0	No	2.784	0.016	n/a	LatePress	0	n/a	n/a	2	5	Cue	MissedWin	True
57.767	4.0	Win2	0.8332999999999999	0.0	No	2.784	0.001	n/a	LatePress	0	n/a	n/a	2	5	Fixation	MissedWin	True
61.762	0.35	Win2	0.8332999999999999	0.004	No	2.784	-0.004	2.0	LatePress	0	0.351	61.113	2	5	Target	MissedWin	True
62.113	0.35	Win2	0.8332999999999999	n/a	No	2.784	n/a	n/a	LatePress	0	n/a	n/a	2	5	Blank	MissedWin	True
62.113	0.3	Win2	0.8332999999999999	0.004	No	2.784	-0.004	2.0	LatePress	0	0.351	n/a	2	5	ButtonPress	MissedWin	True
62.464	1.45	Win2	0.8332999999999999	n/a	No	2.784	n/a	5.0	LatePress	0	0.048	61.512	2	5	Feedback	MissedWin	True
63.919	2.784	Win2	0.8332999999999999	n/a	No	2.784	n/a	n/a	LatePress	0	0.0	n/a	2	5	ISIslide	MissedWin	True
66.727	0.25	Lose2	0.8571	0.0	Yes	2.723	0.027	n/a	GoodResponse	0	n/a	n/a	2	6	Cue	AvoidedLoss	True
66.978	3.95	Lose2	0.8571	0.0	Yes	2.723	0.001	n/a	GoodResponse	0	n/a	n/a	2	6	Fixation	AvoidedLoss	True
70.923	0.34	Lose2	0.8571	0.004	Yes	2.723	-0.004	2.0	GoodResponse	0	0.221	70.144	2	6	Target	AvoidedLoss	True
71.144	0.3	Lose2	0.8571	0.004	Yes	2.723	-0.004	2.0	GoodResponse	0	0.221	n/a	2	6	ButtonPress	AvoidedLoss	True
71.274	0.36	Lose2	0.8571	n/a	Yes	2.723	n/a	n/a	GoodResponse	0	n/a	n/a	2	6	Blank	AvoidedLoss	True
71.625	1.45	Lose2	0.8571	n/a	Yes	2.723	n/a	5.0	GoodResponse	0	0.008	70.633	2	6	Feedback	AvoidedLoss	True
73.079	2.723	Lose2	0.8571	n/a	Yes	2.723	n/a	n/a	GoodResponse	0	0.0	n/a	2	6	ISIslide	AvoidedLoss	True
75.821	0.25	Lose2	0.75	0.0	No	4.029	0.021	n/a	NoResponse	-1	n/a	n/a	1	7	Cue	Loss	True
76.072	4.05	Lose2	0.75	0.0	No	4.029	0.001	n/a	NoResponse	-1	n/a	n/a	1	7	Fixation	Loss	True
80.117	0.33	Lose2	0.75	0.004	No	4.029	-0.004	2.0	NoResponse	-1	0.349	79.466	1	7	Target	Loss	True
80.451	0.37	Lose2	0.75	n/a	No	4.029	n/a	n/a	NoResponse	-1	n/a	n/a	1	7	Blank	Loss	True
80.466	0.3	Lose2	0.75	0.004	No	4.029	-0.004	2.0	NoResponse	-1	0.349	n/a	1	7	ButtonPress	Loss	True
80.819	1.45	Lose2	0.75	n/a	No	4.029	n/a	5.0	NoResponse	-1	0.033	79.852	1	7	Feedback	Loss	True
82.274	4.029	Lose2	0.75	n/a	No	4.029	n/a	n/a	NoResponse	-1	0.0	n/a	1	7	ISIslide	Loss	True
86.319	0.25	Lose2	0.7778	0.0	Yes	3.031	0.019	n/a	GoodResponse	0	n/a	n/a	1	8	Cue	AvoidedLoss	True
86.57	3.95	Lose2	0.7778	0.0	Yes	3.031	0.001	n/a	GoodResponse	0	n/a	n/a	1	8	Fixation	AvoidedLoss	True
90.515	0.32	Lose2	0.7778	0.004	Yes	3.031	-0.004	2.0	GoodResponse	0	0.257	89.772	1	8	Target	AvoidedLoss	True
90.772	0.3	Lose2	0.7778	0.004	Yes	3.031	-0.004	2.0	GoodResponse	0	0.257	n/a	1	8	ButtonPress	AvoidedLoss	True
90.849	0.38	Lose2	0.7778	n/a	Yes	3.031	n/a	n/a	GoodResponse	0	n/a	n/a	1	8	Blank	AvoidedLoss	True
91.217	1.45	Lose2	0.7778	n/a	Yes	3.031	n/a	5.0	GoodResponse	0	0.026	90.243	1	8	Feedback	AvoidedLoss	True
92.671	3.031	Lose2	0.7778	n/a	Yes	3.031	n/a	n/a	GoodResponse	0	0.0	n/a	1	8	ISIslide	AvoidedLoss	True
95.73	0.25	Lose2	0.8	0.0	Yes	3.12	0.03	n/a	GoodResponse	0	n/a	n/a	1	9	Cue	AvoidedLoss	True
95.981	3.95	Lose2	0.8	0.0	Yes	3.12	0.001	n/a	GoodResponse	0	n/a	n/a	1	9	Fixation	AvoidedLoss	True
99.926	0.31	Lose2	0.8	0.004	Yes	3.12	-0.004	2.0	GoodResponse	0	0.309	99.235	1	9	Target	AvoidedLoss	True
100.235	0.3	Lose2	0.8	0.004	Yes	3.12	-0.004	2.0	GoodResponse	0	0.309	n/a	1	9	ButtonPress	AvoidedLoss	True
100.244	0.39	Lose2	0.8	n/a	Yes	3.12	n/a	n/a	GoodResponse	0	n/a	n/a	1	9	Blank	AvoidedLoss	True
100.628	1.45	Lose2	0.8	n/a	Yes	3.12	n/a	5.0	GoodResponse	0	0.029	99.657	1	9	Feedback	AvoidedLoss	True
102.083	3.12	Lose2	0.8	n/a	Yes	3.12	n/a	n/a	GoodResponse	0	0.0	n/a	1	9	ISIslide	AvoidedLoss	True
105.225	0.25	Control	0.8181999999999999	0.0	Yes	3.275	0.025	n/a	GoodResponse	0	n/a	n/a	1	10	Cue	Neutral	True
105.476	4.0	Control	0.8181999999999999	0.0	Yes	3.275	0.001	n/a	GoodResponse	0	n/a	n/a	1	10	Fixation	Neutral	True
109.471	0.3	Control	0.8181999999999999	0.004	Yes	3.275	-0.004	2.0	GoodResponse	0	0.234	108.705	1	10	Target	Neutral	True
109.705	0.3	Control	0.8181999999999999	0.004	Yes	3.275	-0.004	2.0	GoodResponse	0	0.234	n/a	1	10	ButtonPress	Neutral	True
109.772	0.4	Control	0.8181999999999999	n/a	Yes	3.275	n/a	n/a	GoodResponse	0	n/a	n/a	1	10	Blank	Neutral	True
110.174	1.45	Control	0.8181999999999999	n/a	Yes	3.275	n/a	5.0	GoodResponse	0	0.044	109.218	1	10	Feedback	Neutral	True
111.628	3.275	Control	0.8181999999999999	n/a	Yes	3.275	n/a	n/a	GoodResponse	0	0.0	n/a	1	10	ISIslide	Neutral	True
114.921	0.25	Lose2	0.8332999999999999	0.0	Yes	2.729	0.021	n/a	GoodResponse	0	n/a	n/a	1	11	Cue	AvoidedLoss	True
115.172	4.05	Lose2	0.8332999999999999	0.0	Yes	2.729	0.001	n/a	GoodResponse	0	n/a	n/a	1	11	Fixation	AvoidedLoss	True
119.217	0.29	Lose2	0.8332999999999999	0.004	Yes	2.729	-0.004	2.0	GoodResponse	0	0.246	118.463	1	11	Target	AvoidedLoss	True
119.463	0.3	Lose2	0.8332999999999999	0.004	Yes	2.729	-0.004	2.0	GoodResponse	0	0.246	n/a	1	11	ButtonPress	AvoidedLoss	True
119.518	0.41	Lose2	0.8332999999999999	n/a	Yes	2.729	n/a	n/a	GoodResponse	0	n/a	n/a	1	11	Blank	AvoidedLoss	True
119.919	1.45	Lose2	0.8332999999999999	n/a	Yes	2.729	n/a	5.0	GoodResponse	0	0.006	118.925	1	11	Feedback	AvoidedLoss	True
121.374	2.729	Lose2	0.8332999999999999	n/a	Yes	2.729	n/a	n/a	GoodResponse	0	0.0	n/a	1	11	ISIslide	AvoidedLoss	True
124.115	0.25	Control	0.8462000000000001	0.0	Yes	2.985	0.015	n/a	GoodResponse	0	n/a	n/a	1	12	Cue	Neutral	True
124.366	3.9	Control	0.8462000000000001	0.0	Yes	2.985	0.001	n/a	GoodResponse	0	n/a	n/a	1	12	Fixation	Neutral	True
128.261	0.28	Control	0.8462000000000001	0.004	Yes	2.985	-0.004	2.0	GoodResponse	0	0.259	127.52	1	12	Target	Neutral	True
128.52	0.3	Control	0.8462000000000001	0.004	Yes	2.985	-0.004	2.0	GoodResponse	0	0.259	n/a	1	12	ButtonPress	Neutral	True
128.545	0.42	Control	0.8462000000000001	n/a	Yes	2.985	n/a	n/a	GoodResponse	0	n/a	n/a	1	12	Blank	Neutral	True
128.963	1.45	Control	0.8462000000000001	n/a	Yes	2.985	n/a	5.0	GoodResponse	0	0.035	127.998	1	12	Feedback	Neutral	True
130.417	2.985	Control	0.8462000000000001	n/a	Yes	2.985	n/a	n/a	GoodResponse	0	0.0	n/a	1	12	ISIslide	Neutral	True
133.426	0.25	Control	0.8571	0.0	Yes	2.774	0.026	n/a	GoodResponse	0	n/a	n/a	1	13	Cue	Neutral	True
133.677	4.0	Control	0.8571	0.0	Yes	2.774	0.001	n/a	GoodResponse	0	n/a	n/a	1	13	Fixation	Neutral	True
137.672	0.27	Control	0.8571	0.004	Yes	2.774	-0.004	2.0	GoodResponse	0	0.216	136.888	1	13	Target	Neutral	True
137.888	0.3	Control	0.8571	0.004	Yes	2.774	-0.004	2.0	GoodResponse	0	0.216	n/a	1	13	ButtonPress	Neutral	True
137.956	0.43	Control	0.8571	n/a	Yes	2.774	n/a	n/a	GoodResponse	0	n/a	n/a	1	13	Blank	Neutral	True
138.374	1.45	Control	0.8571	n/a	Yes	2.774	n/a	5.0	GoodResponse	0	0.038	137.412	1	13	Feedback	Neutral	True
139.829	2.774	Control	0.8571	n/a	Yes	2.774	n/a	n/a	GoodResponse	0	0.0	n/a	1	13	ISIslide	Neutral	True
142.62	0.25	Win2	0.8667	0.0	Yes	2.68	0.02	n/a	GoodResponse	1	n/a	n/a	2	14	Cue	Win	True
142.871	4.1	Win2	0.8667	0.0	Yes	2.68	0.001	n/a	GoodResponse	1	n/a	n/a	2	14	Fixation	Win	True
146.967	0.26	Win2	0.8667	0.003	Yes	2.68	-0.003	2.0	GoodResponse	1	0.244	146.211	2	14	Target	Win	True
147.211	0.3	Win2	0.8667	0.003	Yes	2.68	-0.003	2.0	GoodResponse	1	0.244	n/a	2	14	ButtonPress	Win	True
147.234	0.44	Win2	0.8667	n/a	Yes	2.68	n/a	n/a	GoodResponse	1	n/a	n/a	2	14	Blank	Win	True
147.669	1.45	Win2	0.8667	n/a	Yes	2.68	n/a	5.0	GoodResponse	1	0.011	146.68	2	14	Feedback	Win	True
149.123	2.68	Win2	0.8667	n/a	Yes	2.68	n/a	n/a	GoodResponse	1	0.0	n/a	2	14	ISIslide	Win	True
151.815	0.25	Control	0.8125	0.0	No	2.985	0.015	n/a	NoResponse	0	n/a	n/a	2	15	Cue	Neutral	True
152.065	4.0	Control	0.8125	0.0	No	2.985	0.0	n/a	NoResponse	0	n/a	n/a	2	15	Fixation	Neutral	True
156.061	0.25	Control	0.8125	0.004	No	2.985	-0.004	2.0	NoResponse	0	0.262	155.323	2	15	Target	Neutral	True
156.311	0.45	Control	0.8125	n/a	No	2.985	n/a	n/a	NoResponse	0	n/a	n/a	2	15	Blank	Neutral	True
156.323	0.3	Control	0.8125	0.004	No	2.985	-0.004	2.0	NoResponse	0	0.262	n/a	2	15	ButtonPress	Neutral	True
156.763	1.45	Control	0.8125	n/a	No	2.985	n/a	5.0	NoResponse	0	0.039	155.802	2	15	Feedback	Neutral	True
158.217	2.985	Control	0.8125	n/a	No	2.985	n/a	n/a	NoResponse	0	0.0	n/a	2	15	ISIslide	Neutral	True
161.226	0.25	Win2	0.7646999999999999	0.0	No	2.874	0.026	n/a	NoResponse	0	n/a	n/a	2	16	Cue	MissedWin	True
161.477	4.0	Win2	0.7646999999999999	0.0	No	2.874	0.001	n/a	NoResponse	0	n/a	n/a	2	16	Fixation	MissedWin	True
165.472	0.24	Win2	0.7646999999999999	0.004	No	2.874	-0.004	2.0	NoResponse	0	0.478	164.95	2	16	Target	MissedWin	True
165.723	0.46	Win2	0.7646999999999999	n/a	No	2.874	n/a	n/a	NoResponse	0	n/a	n/a	2	16	Blank	MissedWin	True
165.95	0.3	Win2	0.7646999999999999	0.004	No	2.874	-0.004	2.0	NoResponse	0	0.478	n/a	2	16	ButtonPress	MissedWin	True
166.174	1.45	Win2	0.7646999999999999	n/a	No	2.874	n/a	5.0	NoResponse	0	0.043	165.217	2	16	Feedback	MissedWin	True
167.628	2.874	Win2	0.7646999999999999	n/a	No	2.874	n/a	n/a	NoResponse	0	0.0	n/a	2	16	ISIslide	MissedWin	True
170.52	0.25	Lose2	0.7778	0.0	Yes	2.73	0.02	n/a	GoodResponse	0	n/a	n/a	2	17	Cue	AvoidedLoss	True
170.771	3.95	Lose2	0.7778	0.0	Yes	2.73	0.001	n/a	GoodResponse	0	n/a	n/a	2	17	Fixation	AvoidedLoss	True
174.716	0.23	Lose2	0.7778	0.004	Yes	2.73	-0.004	2.0	GoodResponse	0	0.198	173.914	2	17	Target	AvoidedLoss	True
174.914	0.3	Lose2	0.7778	0.004	Yes	2.73	-0.004	2.0	GoodResponse	0	0.198	n/a	2	17	ButtonPress	AvoidedLoss	True
174.95	0.47	Lose2	0.7778	n/a	Yes	2.73	n/a	n/a	GoodResponse	0	n/a	n/a	2	17	Blank	AvoidedLoss	True
175.418	1.45	Lose2	0.7778	n/a	Yes	2.73	n/a	5.0	GoodResponse	0	0.019	174.437	2	17	Feedback	AvoidedLoss	True
176.873	2.73	Lose2	0.7778	n/a	Yes	2.73	n/a	n/a	GoodResponse	0	0.0	n/a	2	17	ISIslide	AvoidedLoss	True
179.631	0.25	Lose2	0.7895	0.0	Yes	2.719	0.031	n/a	GoodResponse	0	n/a	n/a	2	18	Cue	AvoidedLoss	True
179.882	4.05	Lose2	0.7895	0.0	Yes	2.719	0.001	n/a	GoodResponse	0	n/a	n/a	2	18	Fixation	AvoidedLoss	True
183.927	0.22	Lose2	0.7895	0.004	Yes	2.719	-0.004	2.0	GoodResponse	0	0.205	183.132	2	18	Target	AvoidedLoss	True
184.132	0.3	Lose2	0.7895	0.004	Yes	2.719	-0.004	2.0	GoodResponse	0	0.205	n/a	2	18	ButtonPress	AvoidedLoss	True
184.161	0.48	Lose2	0.7895	n/a	Yes	2.719	n/a	n/a	GoodResponse	0	n/a	n/a	2	18	Blank	AvoidedLoss	True
184.629	1.45	Lose2	0.7895	n/a	Yes	2.719	n/a	5.0	GoodResponse	0	0.026	183.655	2	18	Feedback	AvoidedLoss	True
186.084	2.719	Lose2	0.7895	n/a	Yes	2.719	n/a	n/a	GoodResponse	0	0.0	n/a	2	18	ISIslide	AvoidedLoss	True
188.825	0.25	Control	0.75	0.0	No	2.925	0.025	n/a	NoResponse	0	n/a	n/a	2	19	Cue	Neutral	True
189.076	3.95	Control	0.75	0.0	No	2.925	0.001	n/a	NoResponse	0	n/a	n/a	2	19	Fixation	Neutral	True
193.021	0.21	Control	0.75	0.004	No	2.925	-0.004	2.0	NoResponse	0	0.27	192.291	2	19	Target	Neutral	True
193.238	0.49	Control	0.75	n/a	No	2.925	n/a	n/a	NoResponse	0	n/a	n/a	2	19	Blank	Neutral	True
193.291	0.3	Control	0.75	0.004	No	2.925	-0.004	2.0	NoResponse	0	0.27	n/a	2	19	ButtonPress	Neutral	True
193.723	1.45	Control	0.75	n/a	No	2.925	n/a	5.0	NoResponse	0	0.007	192.73	2	19	Feedback	Neutral	True
195.177	2.925	Control	0.75	n/a	No	2.925	n/a	n/a	NoResponse	0	0.0	n/a	2	19	ISIslide	Neutral	True
198.12	0.25	Control	0.7143	0.0	No	2.63	0.02	n/a	NoResponse	0	n/a	n/a	2	20	Cue	Neutral	True
198.37	4.05	Control	0.7143	0.0	No	2.63	0.0	n/a	NoResponse	0	n/a	n/a	2	20	Fixation	Neutral	True
202.416	0.2	Control	0.7143	0.004	No	2.63	-0.004	2.0	NoResponse	0	0.29	201.706	2	20	Target	Neutral	True
202.616	0.5	Control	0.7143	n/a	No	2.63	n/a	n/a	NoResponse	0	n/a	n/a	2	20	Blank	Neutral	True
202.706	0.3	Control	0.7143	0.004	No	2.63	-0.004	2.0	NoResponse	0	0.29	n/a	2	20	ButtonPress	Neutral	True
203.118	1.45	Control	0.7143	n/a	No	2.63	n/a	5.0	NoResponse	0	0.025	202.143	2	20	Feedback	Neutral	True
204.572	2.63	Control	0.7143	n/a	No	2.63	n/a	n/a	NoResponse	0	0.0	n/a	2	20	ISIslide	Neutral	True
207.23	0.25	Control	0.6818000000000001	0.0	No	2.77	0.03	n/a	NoResponse	0	n/a	n/a	2	21	Cue	Neutral	True
207.481	4.1	Control	0.6818000000000001	0.0	No	2.77	0.001	n/a	NoResponse	0	n/a	n/a	2	21	Fixation	Neutral	True
211.576	0.19	Control	0.6818000000000001	0.004	No	2.77	-0.004	2.0	NoResponse	0	0.21	210.786	2	21	Target	Neutral	True
211.777	0.51	Control	0.6818000000000001	n/a	No	2.77	n/a	n/a	NoResponse	0	n/a	n/a	2	21	Blank	Neutral	True
211.786	0.3	Control	0.6818000000000001	0.004	No	2.77	-0.004	2.0	NoResponse	0	0.21	n/a	2	21	ButtonPress	Neutral	True
212.278	1.45	Control	0.6818000000000001	n/a	No	2.77	n/a	5.0	NoResponse	0	0.036	211.314	2	21	Feedback	Neutral	True
213.733	2.77	Control	0.6818000000000001	n/a	No	2.77	n/a	n/a	NoResponse	0	0.0	n/a	2	21	ISIslide	Neutral	True
216.524	0.25	Control	0.6522	0.001	No	2.776	0.024	n/a	NoResponse	0	n/a	n/a	2	22	Cue	Neutral	True
216.775	4.0	Control	0.6522	0.0	No	2.776	0.001	n/a	NoResponse	0	n/a	n/a	2	22	Fixation	Neutral	True
220.77	0.18	Control	0.6522	0.004	No	2.776	-0.004	2.0	NoResponse	0	0.218	219.988	2	22	Target	Neutral	True
220.954	0.52	Control	0.6522	n/a	No	2.776	n/a	n/a	NoResponse	0	n/a	n/a	2	22	Blank	Neutral	True
220.988	0.3	Control	0.6522	0.004	No	2.776	-0.004	2.0	NoResponse	0	0.218	n/a	2	22	ButtonPress	Neutral	True
221.473	1.45	Control	0.6522	n/a	No	2.776	n/a	5.0	NoResponse	0	0.011	220.484	2	22	Feedback	Neutral	True
222.927	2.776	Control	0.6522	n/a	No	2.776	n/a	n/a	NoResponse	0	0.0	n/a	2	22	ISIslide	Neutral	True
225.719	0.25	Control	0.625	0.0	No	2.781	0.019	n/a	NoResponse	0	n/a	n/a	2	23	Cue	Neutral	True
225.969	3.9	Control	0.625	0.0	No	2.781	0.0	n/a	NoResponse	0	n/a	n/a	2	23	Fixation	Neutral	True
229.881	0.19	Control	0.625	0.0	No	2.781	0.012	2.0	NoResponse	0	0.212	229.093	2	23	Target	Neutral	True
230.065	0.51	Control	0.625	n/a	No	2.781	n/a	n/a	NoResponse	0	n/a	n/a	2	23	Blank	Neutral	True
230.093	0.3	Control	0.625	0.0	No	2.781	0.012	2.0	NoResponse	0	0.212	n/a	2	23	ButtonPress	Neutral	True
230.566	1.45	Control	0.625	n/a	No	2.781	n/a	5.0	NoResponse	0	0.04	229.606	2	23	Feedback	Neutral	True
232.021	2.781	Control	0.625	n/a	No	2.781	n/a	n/a	NoResponse	0	0.0	n/a	2	23	ISIslide	Neutral	True
234.829	0.25	Win2	0.6	0.0	No	3.121	0.029	n/a	NoResponse	0	n/a	n/a	2	24	Cue	MissedWin	True
235.08	3.95	Win2	0.6	0.0	No	3.121	0.001	n/a	NoResponse	0	n/a	n/a	2	24	Fixation	MissedWin	True
239.025	0.2	Win2	0.6	0.004	No	3.121	-0.004	2.0	NoResponse	0	0.243	238.268	2	24	Target	MissedWin	True
239.226	0.5	Win2	0.6	n/a	No	3.121	n/a	n/a	NoResponse	0	n/a	n/a	2	24	Blank	MissedWin	True
239.268	0.3	Win2	0.6	0.004	No	3.121	-0.004	2.0	NoResponse	0	0.243	n/a	2	24	ButtonPress	MissedWin	True
239.727	1.45	Win2	0.6	n/a	No	3.121	n/a	5.0	NoResponse	0	0.001	238.728	2	24	Feedback	MissedWin	True
241.181	3.121	Win2	0.6	n/a	No	3.121	n/a	n/a	NoResponse	0	0.0	n/a	2	24	ISIslide	MissedWin	True
244.324	0.25	Win2	0.6154	0.0	Yes	3.076	0.024	n/a	GoodResponse	1	n/a	n/a	3	25	Cue	Win	True
244.575	4.0	Win2	0.6154	0.0	Yes	3.076	0.001	n/a	GoodResponse	1	n/a	n/a	3	25	Fixation	Win	True
248.57	0.21	Win2	0.6154	0.004	Yes	3.076	-0.004	2.0	GoodResponse	1	0.194	247.764	3	25	Target	Win	True
248.764	0.3	Win2	0.6154	0.004	Yes	3.076	-0.004	2.0	GoodResponse	1	0.194	n/a	3	25	ButtonPress	Win	True
248.787	0.49	Win2	0.6154	n/a	Yes	3.076	n/a	n/a	GoodResponse	1	n/a	n/a	3	25	Blank	Win	True
249.272	1.45	Win2	0.6154	n/a	Yes	3.076	n/a	5.0	GoodResponse	1	0.017	248.289	3	25	Feedback	Win	True
250.727	3.076	Win2	0.6154	n/a	Yes	3.076	n/a	n/a	GoodResponse	1	0.0	n/a	3	25	ISIslide	Win	True
253.819	0.25	Win2	0.5926	0.0	No	2.931	0.019	n/a	NoResponse	0	n/a	n/a	3	26	Cue	MissedWin	True
254.07	3.95	Win2	0.5926	0.0	No	2.931	0.001	n/a	NoResponse	0	n/a	n/a	3	26	Fixation	MissedWin	True
258.015	0.22	Win2	0.5926	0.004	No	2.931	-0.004	2.0	NoResponse	0	0.403	257.418	3	26	Target	MissedWin	True
258.249	0.48	Win2	0.5926	n/a	No	2.931	n/a	n/a	NoResponse	0	n/a	n/a	3	26	Blank	MissedWin	True
258.418	0.3	Win2	0.5926	0.004	No	2.931	-0.004	2.0	NoResponse	0	0.403	n/a	3	26	ButtonPress	MissedWin	True
258.717	1.45	Win2	0.5926	n/a	No	2.931	n/a	5.0	NoResponse	0	0.035	257.752	3	26	Feedback	MissedWin	True
260.171	2.931	Win2	0.5926	n/a	No	2.931	n/a	n/a	NoResponse	0	0.0	n/a	3	26	ISIslide	MissedWin	True
263.13	0.25	Lose2	0.6071	0.0	Yes	2.82	0.03	n/a	GoodResponse	0	n/a	n/a	3	27	Cue	AvoidedLoss	True
263.381	4.05	Lose2	0.6071	0.0	Yes	2.82	0.001	n/a	GoodResponse	0	n/a	n/a	3	27	Fixation	AvoidedLoss	True
267.426	0.23	Lose2	0.6071	0.004	Yes	2.82	-0.004	2.0	GoodResponse	0	0.211	266.637	3	27	Target	AvoidedLoss	True
267.637	0.3	Lose2	0.6071	0.004	Yes	2.82	-0.004	2.0	GoodResponse	0	0.211	n/a	3	27	ButtonPress	AvoidedLoss	True
267.661	0.47	Lose2	0.6071	n/a	Yes	2.82	n/a	n/a	GoodResponse	0	n/a	n/a	3	27	Blank	AvoidedLoss	True
268.129	1.45	Lose2	0.6071	n/a	Yes	2.82	n/a	5.0	GoodResponse	0	0.038	267.167	3	27	Feedback	AvoidedLoss	True
269.583	2.82	Lose2	0.6071	n/a	Yes	2.82	n/a	n/a	GoodResponse	0	0.0	n/a	3	27	ISIslide	AvoidedLoss	True
272.425	0.25	Control	0.5861999999999999	0.0	No	2.825	0.025	n/a	NoResponse	0	n/a	n/a	3	28	Cue	Neutral	True
272.675	4.05	Control	0.5861999999999999	0.001	No	2.825	0.0	n/a	NoResponse	0	n/a	n/a	3	28	Fixation	Neutral	True
276.721	0.24	Control	0.5861999999999999	0.004	No	2.825	-0.004	2.0	NoResponse	0	0.292	276.013	3	28	Target	Neutral	True
276.972	0.46	Control	0.5861999999999999	n/a	No	2.825	n/a	n/a	NoResponse	0	n/a	n/a	3	28	Blank	Neutral	True
277.013	0.3	Control	0.5861999999999999	0.004	No	2.825	-0.004	2.0	NoResponse	0	0.292	n/a	3	28	ButtonPress	Neutral	True
277.423	1.45	Control	0.5861999999999999	n/a	No	2.825	n/a	5.0	NoResponse	0	0.012	276.435	3	28	Feedback	Neutral	True
278.877	2.825	Control	0.5861999999999999	n/a	No	2.825	n/a	n/a	NoResponse	0	0.0	n/a	3	28	ISIslide	Neutral	True
281.719	0.25	Lose2	0.6	0.0	Yes	2.831	0.019	n/a	GoodResponse	0	n/a	n/a	3	29	Cue	AvoidedLoss	True
281.97	3.95	Lose2	0.6	0.0	Yes	2.831	0.001	n/a	GoodResponse	0	n/a	n/a	3	29	Fixation	AvoidedLoss	True
285.915	0.25	Lose2	0.6	0.004	Yes	2.831	-0.004	2.0	GoodResponse	0	0.209	285.124	3	29	Target	AvoidedLoss	True
286.124	0.3	Lose2	0.6	0.004	Yes	2.831	-0.004	2.0	GoodResponse	0	0.209	n/a	3	29	ButtonPress	AvoidedLoss	True
286.166	0.45	Lose2	0.6	n/a	Yes	2.831	n/a	n/a	GoodResponse	0	n/a	n/a	3	29	Blank	AvoidedLoss	True
286.617	1.45	Lose2	0.6	n/a	Yes	2.831	n/a	5.0	GoodResponse	0	0.038	285.655	3	29	Feedback	AvoidedLoss	True
288.071	2.831	Lose2	0.6	n/a	Yes	2.831	n/a	n/a	GoodResponse	0	0.0	n/a	3	29	ISIslide	AvoidedLoss	True
290.93	0.25	Win2	0.6129	0.0	Yes	2.77	0.03	n/a	GoodResponse	1	n/a	n/a	4	30	Cue	Win	True
291.181	3.9	Win2	0.6129	0.0	Yes	2.77	0.001	n/a	GoodResponse	1	n/a	n/a	4	30	Fixation	Win	True
295.076	0.26	Win2	0.6129	0.004	Yes	2.77	-0.004	2.0	GoodResponse	1	0.206	294.282	4	30	Target	Win	True
295.282	0.3	Win2	0.6129	0.004	Yes	2.77	-0.004	2.0	GoodResponse	1	0.206	n/a	4	30	ButtonPress	Win	True
295.343	0.44	Win2	0.6129	n/a	Yes	2.77	n/a	n/a	GoodResponse	1	n/a	n/a	4	30	Blank	Win	True
295.778	1.45	Win2	0.6129	n/a	Yes	2.77	n/a	5.0	GoodResponse	1	0.046	294.824	4	30	Feedback	Win	True
297.232	2.77	Win2	0.6129	n/a	Yes	2.77	n/a	n/a	GoodResponse	1	0.0	n/a	4	30	ISIslide	Win	True
300.024	0.25	Lose2	0.625	0.0	Yes	2.826	0.024	n/a	GoodResponse	0	n/a	n/a	4	31	Cue	AvoidedLoss	True
300.275	4.05	Lose2	0.625	0.0	Yes	2.826	0.001	n/a	GoodResponse	0	n/a	n/a	4	31	Fixation	AvoidedLoss	True
304.32	0.27	Lose2	0.625	0.004	Yes	2.826	-0.004	2.0	GoodResponse	0	0.193	303.513	4	31	Target	AvoidedLoss	True
304.513	0.3	Lose2	0.625	0.004	Yes	2.826	-0.004	2.0	GoodResponse	0	0.193	n/a	4	31	ButtonPress	AvoidedLoss	True
304.604	0.43	Lose2	0.625	n/a	Yes	2.826	n/a	n/a	GoodResponse	0	n/a	n/a	4	31	Blank	AvoidedLoss	True
305.022	1.45	Lose2	0.625	n/a	Yes	2.826	n/a	5.0	GoodResponse	0	0.022	304.044	4	31	Feedback	AvoidedLoss	True
306.476	2.826	Lose2	0.625	n/a	Yes	2.826	n/a	n/a	GoodResponse	0	0.0	n/a	4	31	ISIslide	AvoidedLoss	True
309.318	0.25	Lose2	0.6364	0.0	Yes	2.632	0.018	n/a	GoodResponse	0	n/a	n/a	4	32	Cue	AvoidedLoss	True
309.569	4.15	Lose2	0.6364	0.0	Yes	2.632	0.001	n/a	GoodResponse	0	n/a	n/a	4	32	Fixation	AvoidedLoss	True
313.715	0.28	Lose2	0.6364	0.003	Yes	2.632	-0.003	2.0	GoodResponse	0	0.202	312.917	4	32	Target	AvoidedLoss	True
313.917	0.3	Lose2	0.6364	0.003	Yes	2.632	-0.003	2.0	GoodResponse	0	0.202	n/a	4	32	ButtonPress	AvoidedLoss	True
313.999	0.42	Lose2	0.6364	n/a	Yes	2.632	n/a	n/a	GoodResponse	0	n/a	n/a	4	32	Blank	AvoidedLoss	True
314.417	1.45	Lose2	0.6364	n/a	Yes	2.632	n/a	5.0	GoodResponse	0	0.042	313.459	4	32	Feedback	AvoidedLoss	True
315.871	2.632	Lose2	0.6364	n/a	Yes	2.632	n/a	n/a	GoodResponse	0	0.0	n/a	4	32	ISIslide	AvoidedLoss	True
318.529	0.25	Win2	0.6470999999999999	0.0	Yes	2.671	0.029	n/a	GoodResponse	1	n/a	n/a	5	33	Cue	Win	True
318.78	4.0	Win2	0.6470999999999999	0.0	Yes	2.671	0.001	n/a	GoodResponse	1	n/a	n/a	5	33	Fixation	Win	True
322.775	0.29	Win2	0.6470999999999999	0.004	Yes	2.671	-0.004	2.0	GoodResponse	1	0.244	322.019	5	33	Target	Win	True
323.019	0.3	Win2	0.6470999999999999	0.004	Yes	2.671	-0.004	2.0	GoodResponse	1	0.244	n/a	5	33	ButtonPress	Win	True
323.076	0.41	Win2	0.6470999999999999	n/a	Yes	2.671	n/a	n/a	GoodResponse	1	n/a	n/a	5	33	Blank	Win	True
323.477	1.45	Win2	0.6470999999999999	n/a	Yes	2.671	n/a	5.0	GoodResponse	1	0.007	322.484	5	33	Feedback	Win	True
324.932	2.671	Win2	0.6470999999999999	n/a	Yes	2.671	n/a	n/a	GoodResponse	1	0.0	n/a	5	33	ISIslide	Win	True
327.623	0.25	Lose2	0.6570999999999999	0.0	Yes	2.627	0.023	n/a	GoodResponse	0	n/a	n/a	5	34	Cue	AvoidedLoss	True
327.874	4.05	Lose2	0.6570999999999999	0.0	Yes	2.627	0.001	n/a	GoodResponse	0	n/a	n/a	5	34	Fixation	AvoidedLoss	True
331.919	0.3	Lose2	0.6570999999999999	0.004	Yes	2.627	-0.004	2.0	GoodResponse	0	0.187	331.106	5	34	Target	AvoidedLoss	True
332.106	0.3	Lose2	0.6570999999999999	0.004	Yes	2.627	-0.004	2.0	GoodResponse	0	0.187	n/a	5	34	ButtonPress	AvoidedLoss	True
332.22	0.4	Lose2	0.6570999999999999	n/a	Yes	2.627	n/a	n/a	GoodResponse	0	n/a	n/a	5	34	Blank	AvoidedLoss	True
332.621	1.45	Lose2	0.6570999999999999	n/a	Yes	2.627	n/a	5.0	GoodResponse	0	0.032	331.653	5	34	Feedback	AvoidedLoss	True
334.076	2.627	Lose2	0.6570999999999999	n/a	Yes	2.627	n/a	n/a	GoodResponse	0	0.0	n/a	5	34	ISIslide	AvoidedLoss	True
336.717	0.25	Lose2	0.6667000000000001	0.0	Yes	2.683	0.017	n/a	GoodResponse	0	n/a	n/a	5	35	Cue	AvoidedLoss	True
336.967	4.0	Lose2	0.6667000000000001	0.001	Yes	2.683	0.0	n/a	GoodResponse	0	n/a	n/a	5	35	Fixation	AvoidedLoss	True
340.963	0.3	Lose2	0.6667000000000001	0.004	Yes	2.683	-0.004	2.0	GoodResponse	0	0.199	340.162	5	35	Target	AvoidedLoss	True
341.162	0.3	Lose2	0.6667000000000001	0.004	Yes	2.683	-0.004	2.0	GoodResponse	0	0.199	n/a	5	35	ButtonPress	AvoidedLoss	True
341.264	0.4	Lose2	0.6667000000000001	n/a	Yes	2.683	n/a	n/a	GoodResponse	0	n/a	n/a	5	35	Blank	AvoidedLoss	True
341.665	1.45	Lose2	0.6667000000000001	n/a	Yes	2.683	n/a	5.0	GoodResponse	0	0.013	340.678	5	35	Feedback	AvoidedLoss	True
343.119	2.683	Lose2	0.6667000000000001	n/a	Yes	2.683	n/a	n/a	GoodResponse	0	0.0	n/a	5	35	ISIslide	AvoidedLoss	True
345.827	0.25	Control	0.6757	0.0	Yes	2.673	0.027	n/a	GoodResponse	0	n/a	n/a	5	36	Cue	Neutral	True
346.078	4.0	Control	0.6757	0.0	Yes	2.673	0.001	n/a	GoodResponse	0	n/a	n/a	5	36	Fixation	Neutral	True
350.073	0.29	Control	0.6757	0.004	Yes	2.673	-0.004	2.0	GoodResponse	0	0.229	349.302	5	36	Target	Neutral	True
350.302	0.3	Control	0.6757	0.004	Yes	2.673	-0.004	2.0	GoodResponse	0	0.229	n/a	5	36	ButtonPress	Neutral	True
350.374	0.41	Control	0.6757	n/a	Yes	2.673	n/a	n/a	GoodResponse	0	n/a	n/a	5	36	Blank	Neutral	True
350.775	1.45	Control	0.6757	n/a	Yes	2.673	n/a	5.0	GoodResponse	0	0.025	349.8	5	36	Feedback	Neutral	True
352.23	2.673	Control	0.6757	n/a	Yes	2.673	n/a	n/a	GoodResponse	0	0.0	n/a	5	36	ISIslide	Neutral	True
354.921	0.25	Win2	0.6579	0.0	No	2.879	0.021	n/a	NoResponse	0	n/a	n/a	5	37	Cue	MissedWin	True
355.172	4.0	Win2	0.6579	0.0	No	2.879	0.001	n/a	NoResponse	0	n/a	n/a	5	37	Fixation	MissedWin	True
359.167	0.28	Win2	0.6579	0.004	No	2.879	-0.004	2.0	NoResponse	0	0.385	358.552	5	37	Target	MissedWin	True
359.451	0.42	Win2	0.6579	n/a	No	2.879	n/a	n/a	NoResponse	0	n/a	n/a	5	37	Blank	MissedWin	True
359.552	0.3	Win2	0.6579	0.004	No	2.879	-0.004	2.0	NoResponse	0	0.385	n/a	5	37	ButtonPress	MissedWin	True
359.869	1.45	Win2	0.6579	n/a	No	2.879	n/a	5.0	NoResponse	0	0.007	358.876	5	37	Feedback	MissedWin	True
361.324	2.879	Win2	0.6579	n/a	No	2.879	n/a	n/a	NoResponse	0	0.0	n/a	5	37	ISIslide	MissedWin	True
364.216	0.25	Lose2	0.6667000000000001	0.0	Yes	2.834	0.016	n/a	GoodResponse	0	n/a	n/a	5	38	Cue	AvoidedLoss	True
364.466	3.95	Lose2	0.6667000000000001	0.0	Yes	2.834	0.0	n/a	GoodResponse	0	n/a	n/a	5	38	Fixation	AvoidedLoss	True
368.428	0.28	Lose2	0.6667000000000001	0.0	Yes	2.834	0.012	2.0	GoodResponse	0	0.198	367.626	5	38	Target	AvoidedLoss	True
368.626	0.3	Lose2	0.6667000000000001	0.0	Yes	2.834	0.012	2.0	GoodResponse	0	0.198	n/a	5	38	ButtonPress	AvoidedLoss	True
368.696	0.42	Lose2	0.6667000000000001	n/a	Yes	2.834	n/a	n/a	GoodResponse	0	n/a	n/a	5	38	Blank	AvoidedLoss	True
369.114	1.45	Lose2	0.6667000000000001	n/a	Yes	2.834	n/a	5.0	GoodResponse	0	0.026	368.14	5	38	Feedback	AvoidedLoss	True
370.568	2.834	Lose2	0.6667000000000001	n/a	Yes	2.834	n/a	n/a	GoodResponse	0	0.0	n/a	5	38	ISIslide	AvoidedLoss	True
373.426	0.25	Win2	0.675	0.0	Yes	2.974	0.026	n/a	GoodResponse	1	n/a	n/a	6	39	Cue	Win	True
373.677	4.1	Win2	0.675	0.0	Yes	2.974	0.001	n/a	GoodResponse	1	n/a	n/a	6	39	Fixation	Win	True
377.773	0.27	Win2	0.675	0.003	Yes	2.974	-0.003	2.0	GoodResponse	1	0.228	377.001	6	39	Target	Win	True
378.001	0.3	Win2	0.675	0.003	Yes	2.974	-0.003	2.0	GoodResponse	1	0.228	n/a	6	39	ButtonPress	Win	True
378.057	0.43	Win2	0.675	n/a	Yes	2.974	n/a	n/a	GoodResponse	1	n/a	n/a	6	39	Blank	Win	True
378.475	1.45	Win2	0.675	n/a	Yes	2.974	n/a	5.0	GoodResponse	1	0.031	377.506	6	39	Feedback	Win	True
379.929	2.974	Win2	0.675	n/a	Yes	2.974	n/a	n/a	GoodResponse	1	0.0	n/a	6	39	ISIslide	Win	True
382.921	0.25	Win2	0.6829000000000001	0.001	Yes	2.729	0.021	n/a	GoodResponse	1	n/a	n/a	7	40	Cue	Win	True
383.172	3.95	Win2	0.6829000000000001	0.0	Yes	2.729	0.001	n/a	GoodResponse	1	n/a	n/a	7	40	Fixation	Win	True
387.117	0.26	Win2	0.6829000000000001	0.004	Yes	2.729	-0.004	2.0	GoodResponse	1	0.25	386.367	7	40	Target	Win	True
387.367	0.3	Win2	0.6829000000000001	0.004	Yes	2.729	-0.004	2.0	GoodResponse	1	0.25	n/a	7	40	ButtonPress	Win	True
387.385	0.44	Win2	0.6829000000000001	n/a	Yes	2.729	n/a	n/a	GoodResponse	1	n/a	n/a	7	40	Blank	Win	True
387.819	1.45	Win2	0.6829000000000001	n/a	Yes	2.729	n/a	5.0	GoodResponse	1	0.007	386.826	7	40	Feedback	Win	True
389.274	2.729	Win2	0.6829000000000001	n/a	Yes	2.729	n/a	n/a	GoodResponse	1	0.0	n/a	7	40	ISIslide	Win	True
392.015	0.25	Win2	0.6905	0.0	Yes	2.785	0.015	n/a	GoodResponse	1	n/a	n/a	8	41	Cue	Win	True
392.266	3.9	Win2	0.6905	0.0	Yes	2.785	0.001	n/a	GoodResponse	1	n/a	n/a	8	41	Fixation	Win	True
396.161	0.25	Win2	0.6905	0.004	Yes	2.785	-0.004	2.0	GoodResponse	1	0.249	395.41	8	41	Target	Win	True
396.41	0.3	Win2	0.6905	0.004	Yes	2.785	-0.004	2.0	GoodResponse	1	0.249	n/a	8	41	ButtonPress	Win	True
396.412	0.45	Win2	0.6905	n/a	Yes	2.785	n/a	n/a	GoodResponse	1	n/a	n/a	8	41	Blank	Win	True
396.863	1.45	Win2	0.6905	n/a	Yes	2.785	n/a	5.0	GoodResponse	1	0.034	395.897	8	41	Feedback	Win	True
398.317	2.785	Win2	0.6905	n/a	Yes	2.785	n/a	n/a	GoodResponse	1	0.0	n/a	8	41	ISIslide	Win	True
401.126	0.25	Control	0.6744	0.0	No	2.924	0.026	n/a	NoResponse	0	n/a	n/a	8	42	Cue	Neutral	True
401.377	3.85	Control	0.6744	0.0	No	2.924	0.001	n/a	NoResponse	0	n/a	n/a	8	42	Fixation	Neutral	True
405.238	0.24	Control	0.6744	0.0	No	2.924	0.012	2.0	NoResponse	0	0.234	404.472	8	42	Target	Neutral	True
405.472	0.46	Control	0.6744	n/a	No	2.924	n/a	n/a	NoResponse	0	n/a	n/a	8	42	Blank	Neutral	True
405.472	0.3	Control	0.6744	0.0	No	2.924	0.012	2.0	NoResponse	0	0.234	n/a	8	42	ButtonPress	Neutral	True
405.923	1.45	Control	0.6744	n/a	No	2.924	n/a	5.0	NoResponse	0	0.046	404.969	8	42	Feedback	Neutral	True
407.378	2.924	Control	0.6744	n/a	No	2.924	n/a	n/a	NoResponse	0	0.0	n/a	8	42	ISIslide	Neutral	True
410.32	0.25	Win2	0.6818000000000001	0.0	Yes	3.18	0.02	n/a	GoodResponse	1	n/a	n/a	9	43	Cue	Win	True
410.571	4.0	Win2	0.6818000000000001	0.0	Yes	3.18	0.001	n/a	GoodResponse	1	n/a	n/a	9	43	Fixation	Win	True
414.566	0.23	Win2	0.6818000000000001	0.004	Yes	3.18	-0.004	2.0	GoodResponse	1	0.205	413.771	9	43	Target	Win	True
414.771	0.3	Win2	0.6818000000000001	0.004	Yes	3.18	-0.004	2.0	GoodResponse	1	0.205	n/a	9	43	ButtonPress	Win	True
414.8	0.47	Win2	0.6818000000000001	n/a	Yes	3.18	n/a	n/a	GoodResponse	1	n/a	n/a	9	43	Blank	Win	True
415.268	1.45	Win2	0.6818000000000001	n/a	Yes	3.18	n/a	5.0	GoodResponse	1	0.018	414.286	9	43	Feedback	Win	True
416.722	3.18	Win2	0.6818000000000001	n/a	Yes	3.18	n/a	n/a	GoodResponse	1	0.0	n/a	9	43	ISIslide	Win	True
419.915	0.25	Win2	0.6889	0.0	Yes	2.985	0.015	n/a	GoodResponse	1	n/a	n/a	10	44	Cue	Win	True
420.166	4.0	Win2	0.6889	0.0	Yes	2.985	0.001	n/a	GoodResponse	1	n/a	n/a	10	44	Fixation	Win	True
424.161	0.22	Win2	0.6889	0.004	Yes	2.985	-0.004	2.0	GoodResponse	1	0.197	423.358	10	44	Target	Win	True
424.358	0.3	Win2	0.6889	0.004	Yes	2.985	-0.004	2.0	GoodResponse	1	0.197	n/a	10	44	ButtonPress	Win	True
424.395	0.48	Win2	0.6889	n/a	Yes	2.985	n/a	n/a	GoodResponse	1	n/a	n/a	10	44	Blank	Win	True
424.863	1.45	Win2	0.6889	n/a	Yes	2.985	n/a	5.0	GoodResponse	1	0.033	423.896	10	44	Feedback	Win	True
426.318	2.985	Win2	0.6889	n/a	Yes	2.985	n/a	n/a	GoodResponse	1	0.0	n/a	10	44	ISIslide	Win	True
429.327	0.25	Control	0.6957	0.0	Yes	2.873	0.027	n/a	GoodResponse	0	n/a	n/a	10	45	Cue	Neutral	True
429.577	4.1	Control	0.6957	0.0	Yes	2.873	0.0	n/a	GoodResponse	0	n/a	n/a	10	45	Fixation	Neutral	True
433.673	0.21	Control	0.6957	0.004	Yes	2.873	-0.004	2.0	GoodResponse	0	0.202	432.875	10	45	Target	Neutral	True
433.875	0.3	Control	0.6957	0.004	Yes	2.873	-0.004	2.0	GoodResponse	0	0.202	n/a	10	45	ButtonPress	Neutral	True
433.89	0.49	Control	0.6957	n/a	Yes	2.873	n/a	n/a	GoodResponse	0	n/a	n/a	10	45	Blank	Neutral	True
434.375	1.45	Control	0.6957	n/a	Yes	2.873	n/a	5.0	GoodResponse	0	0.033	433.408	10	45	Feedback	Neutral	True
435.829	2.873	Control	0.6957	n/a	Yes	2.873	n/a	n/a	GoodResponse	0	0.0	n/a	10	45	ISIslide	Neutral	True
438.721	0.25	Lose2	0.7021	0.0	Yes	3.379	0.021	n/a	GoodResponse	0	n/a	n/a	10	46	Cue	AvoidedLoss	True
438.972	4.0	Lose2	0.7021	0.0	Yes	3.379	0.001	n/a	GoodResponse	0	n/a	n/a	10	46	Fixation	AvoidedLoss	True
442.967	0.2	Lose2	0.7021	0.004	Yes	3.379	-0.004	2.0	GoodResponse	0	0.191	442.158	10	46	Target	AvoidedLoss	True
443.158	0.3	Lose2	0.7021	0.004	Yes	3.379	-0.004	2.0	GoodResponse	0	0.191	n/a	10	46	ButtonPress	AvoidedLoss	True
443.168	0.5	Lose2	0.7021	n/a	Yes	3.379	n/a	n/a	GoodResponse	0	n/a	n/a	10	46	Blank	AvoidedLoss	True
443.669	1.45	Lose2	0.7021	n/a	Yes	3.379	n/a	5.0	GoodResponse	0	0.007	442.676	10	46	Feedback	AvoidedLoss	True
445.124	3.379	Lose2	0.7021	n/a	Yes	3.379	n/a	n/a	GoodResponse	0	0.0	n/a	10	46	ISIslide	AvoidedLoss	True
448.517	0.25	Lose2	0.7082999999999999	0.0	Yes	2.683	0.017	n/a	GoodResponse	0	n/a	n/a	10	47	Cue	AvoidedLoss	True
448.768	4.0	Lose2	0.7082999999999999	0.0	Yes	2.683	0.001	n/a	GoodResponse	0	n/a	n/a	10	47	Fixation	AvoidedLoss	True
452.763	0.19	Lose2	0.7082999999999999	0.004	Yes	2.683	-0.004	2.0	GoodResponse	0	0.172	451.935	10	47	Target	AvoidedLoss	True
452.935	0.3	Lose2	0.7082999999999999	0.004	Yes	2.683	-0.004	2.0	GoodResponse	0	0.172	n/a	10	47	ButtonPress	AvoidedLoss	True
452.964	0.51	Lose2	0.7082999999999999	n/a	Yes	2.683	n/a	n/a	GoodResponse	0	n/a	n/a	10	47	Blank	AvoidedLoss	True
453.465	1.45	Lose2	0.7082999999999999	n/a	Yes	2.683	n/a	5.0	GoodResponse	0	0.016	452.481	10	47	Feedback	AvoidedLoss	True
454.92	2.683	Lose2	0.7082999999999999	n/a	Yes	2.683	n/a	n/a	GoodResponse	0	0.0	n/a	10	47	ISIslide	AvoidedLoss	True
457.628	0.25	Lose2	0.6939	0.0	No	3.022	0.028	n/a	NoResponse	-1	n/a	n/a	9	48	Cue	Loss	True
457.879	3.95	Lose2	0.6939	0.0	No	3.022	0.001	n/a	NoResponse	-1	n/a	n/a	9	48	Fixation	Loss	True
461.824	0.18	Lose2	0.6939	0.004	No	3.022	-0.004	2.0	NoResponse	-1	0.207	461.031	9	48	Target	Loss	True
462.008	0.52	Lose2	0.6939	n/a	No	3.022	n/a	n/a	NoResponse	-1	n/a	n/a	9	48	Blank	Loss	True
462.031	0.3	Lose2	0.6939	0.004	No	3.022	-0.004	2.0	NoResponse	-1	0.207	n/a	9	48	ButtonPress	Loss	True
462.526	1.45	Lose2	0.6939	n/a	No	3.022	n/a	5.0	NoResponse	-1	0.028	461.554	9	48	Feedback	Loss	True
463.98	3.022	Lose2	0.6939	n/a	No	3.022	n/a	n/a	NoResponse	-1	0.0	n/a	9	48	ISIslide	Loss	True
467.023	0.25	Control	0.68	0.0	No	2.877	0.023	n/a	NoResponse	0	n/a	n/a	9	49	Cue	Neutral	True
467.273	4.0	Control	0.68	0.0	No	2.877	0.0	n/a	NoResponse	0	n/a	n/a	9	49	Fixation	Neutral	True
471.269	0.17	Control	0.68	0.004	No	2.877	-0.004	2.0	NoResponse	0	0.2	470.469	9	49	Target	Neutral	True
471.452	0.53	Control	0.68	n/a	No	2.877	n/a	n/a	NoResponse	0	n/a	n/a	9	49	Blank	Neutral	True
471.469	0.3	Control	0.68	0.004	No	2.877	-0.004	2.0	NoResponse	0	0.2	n/a	9	49	ButtonPress	Neutral	True
471.971	1.45	Control	0.68	n/a	No	2.877	n/a	5.0	NoResponse	0	0.046	471.017	9	49	Feedback	Neutral	True
473.425	2.877	Control	0.68	n/a	No	2.877	n/a	n/a	NoResponse	0	0.0	n/a	9	49	ISIslide	Neutral	True
476.317	0.25	Control	0.6667000000000001	0.0	No	2.783	0.017	n/a	NoResponse	0	n/a	n/a	9	50	Cue	Neutral	True
476.568	4.0	Control	0.6667000000000001	0.0	No	2.783	0.001	n/a	NoResponse	0	n/a	n/a	9	50	Fixation	Neutral	True
480.563	0.16	Control	0.6667000000000001	0.004	No	2.783	-0.004	2.0	NoResponse	0	0.227	479.79	9	50	Target	Neutral	True
480.73	0.54	Control	0.6667000000000001	n/a	No	2.783	n/a	n/a	NoResponse	0	n/a	n/a	9	50	Blank	Neutral	True
480.79	0.3	Control	0.6667000000000001	0.004	No	2.783	-0.004	2.0	NoResponse	0	0.227	n/a	9	50	ButtonPress	Neutral	True
481.265	1.45	Control	0.6667000000000001	n/a	No	2.783	n/a	5.0	NoResponse	0	0.02	480.285	9	50	Feedback	Neutral	True
482.719	2.783	Control	0.6667000000000001	n/a	No	2.783	n/a	n/a	NoResponse	0	0.0	n/a	9	50	ISIslide	Neutral	True
485.528	0.25	Control	0.6537999999999999	0.0	No	2.722	0.028	n/a	NoResponse	0	n/a	n/a	9	51	Cue	Neutral	False
485.779	3.95	Control	0.6537999999999999	0.0	No	2.722	0.001	2.0	NoResponse	0	0.066	484.845	9	51	Fixation	Neutral	False
485.845	0.3	Control	0.6537999999999999	0.0	No	2.722	0.001	2.0	NoResponse	0	0.066	n/a	9	51	ButtonPress	Neutral	False
489.724	0.15	Control	0.6537999999999999	0.004	No	2.722	-0.004	2.0	NoResponse	0	0.218	488.942	9	51	Target	Neutral	False
489.874	0.55	Control	0.6537999999999999	n/a	No	2.722	n/a	n/a	NoResponse	0	n/a	n/a	9	51	Blank	Neutral	False
489.942	0.3	Control	0.6537999999999999	0.004	No	2.722	-0.004	2.0	NoResponse	0	0.218	n/a	9	51	ButtonPress	Neutral	False
490.426	1.45	Control	0.6537999999999999	n/a	No	2.722	n/a	5.0	NoResponse	0	0.03	489.456	9	51	Feedback	Neutral	False
491.88	2.722	Control	0.6537999999999999	n/a	No	2.722	n/a	n/a	NoResponse	0	0.0	n/a	9	51	ISIslide	Neutral	False
494.622	0.25	Control	0.6415000000000001	0.0	No	2.628	0.022	n/a	NoResponse	0	n/a	n/a	9	52	Cue	Neutral	True
494.872	4.05	Control	0.6415000000000001	0.001	No	2.628	0.0	n/a	NoResponse	0	n/a	n/a	9	52	Fixation	Neutral	True
498.918	0.16	Control	0.6415000000000001	0.004	No	2.628	-0.004	2.0	NoResponse	0	0.201	498.119	9	52	Target	Neutral	True
499.085	0.54	Control	0.6415000000000001	n/a	No	2.628	n/a	n/a	NoResponse	0	n/a	n/a	9	52	Blank	Neutral	True
499.119	0.3	Control	0.6415000000000001	0.004	No	2.628	-0.004	2.0	NoResponse	0	0.201	n/a	9	52	ButtonPress	Neutral	True
499.62	1.45	Control	0.6415000000000001	n/a	No	2.628	n/a	5.0	NoResponse	0	0.007	498.627	9	52	Feedback	Neutral	True
501.074	2.628	Control	0.6415000000000001	n/a	No	2.628	n/a	n/a	NoResponse	0	0.0	n/a	9	52	ISIslide	Neutral	True
503.715	0.25	Win2	0.6296	0.001	No	2.935	0.015	n/a	NoResponse	0	n/a	n/a	9	53	Cue	MissedWin	True
503.966	4.05	Win2	0.6296	0.0	No	2.935	0.001	n/a	NoResponse	0	n/a	n/a	9	53	Fixation	MissedWin	True
508.012	0.17	Win2	0.6296	0.003	No	2.935	-0.003	2.0	NoResponse	0	0.192	507.204	9	53	Target	MissedWin	True
508.196	0.53	Win2	0.6296	n/a	No	2.935	n/a	n/a	NoResponse	0	n/a	n/a	9	53	Blank	MissedWin	True
508.204	0.3	Win2	0.6296	0.003	No	2.935	-0.003	2.0	NoResponse	0	0.192	n/a	9	53	ButtonPress	MissedWin	True
508.714	1.45	Win2	0.6296	n/a	No	2.935	n/a	5.0	NoResponse	0	0.035	507.749	9	53	Feedback	MissedWin	True
510.168	2.935	Win2	0.6296	n/a	No	2.935	n/a	n/a	NoResponse	0	0.0	n/a	9	53	ISIslide	MissedWin	True
513.127	0.25	Win2	0.6182	0.0	No	2.723	0.027	n/a	NoResponse	0	n/a	n/a	9	54	Cue	MissedWin	True
513.378	3.95	Win2	0.6182	0.0	No	2.723	0.001	n/a	NoResponse	0	n/a	n/a	9	54	Fixation	MissedWin	True
517.323	0.18	Win2	0.6182	0.004	No	2.723	-0.004	2.0	NoResponse	0	0.229	516.552	9	54	Target	MissedWin	True
517.507	0.52	Win2	0.6182	n/a	No	2.723	n/a	n/a	NoResponse	0	n/a	n/a	9	54	Blank	MissedWin	True
517.552	0.3	Win2	0.6182	0.004	No	2.723	-0.004	2.0	NoResponse	0	0.229	n/a	9	54	ButtonPress	MissedWin	True
518.025	1.45	Win2	0.6182	n/a	No	2.723	n/a	5.0	NoResponse	0	0.04	517.065	9	54	Feedback	MissedWin	True
519.479	2.723	Win2	0.6182	n/a	No	2.723	n/a	n/a	NoResponse	0	0.0	n/a	9	54	ISIslide	MissedWin	True
522.221	0.25	Control	0.6071	0.0	No	3.029	0.021	n/a	LatePress	0	n/a	n/a	9	55	Cue	Neutral	True
522.471	3.95	Control	0.6071	0.001	No	3.029	0.0	n/a	LatePress	0	n/a	n/a	9	55	Fixation	Neutral	True
526.417	0.19	Control	0.6071	0.004	No	3.029	-0.004	2.0	LatePress	0	0.198	525.615	9	55	Target	Neutral	True
526.615	0.3	Control	0.6071	0.004	No	3.029	-0.004	2.0	LatePress	0	0.198	n/a	9	55	ButtonPress	Neutral	True
526.617	0.51	Control	0.6071	n/a	No	3.029	n/a	n/a	LatePress	0	n/a	n/a	9	55	Blank	Neutral	True
527.119	1.45	Control	0.6071	n/a	No	3.029	n/a	5.0	LatePress	0	0.019	526.138	9	55	Feedback	Neutral	True
528.573	3.029	Control	0.6071	n/a	No	3.029	n/a	n/a	LatePress	0	0.0	n/a	9	55	ISIslide	Neutral	True
531.615	0.25	Control	0.614	0.001	Yes	2.835	0.015	n/a	GoodResponse	0	n/a	n/a	9	56	Cue	Neutral	True
531.866	3.95	Control	0.614	0.0	Yes	2.835	0.001	n/a	GoodResponse	0	n/a	n/a	9	56	Fixation	Neutral	True
535.811	0.2	Control	0.614	0.004	Yes	2.835	-0.004	2.0	GoodResponse	0	0.182	534.993	9	56	Target	Neutral	True
535.993	0.3	Control	0.614	0.004	Yes	2.835	-0.004	2.0	GoodResponse	0	0.182	n/a	9	56	ButtonPress	Neutral	True
536.012	0.5	Control	0.614	n/a	Yes	2.835	n/a	n/a	GoodResponse	0	n/a	n/a	9	56	Blank	Neutral	True
536.513	1.45	Control	0.614	n/a	Yes	2.835	n/a	5.0	GoodResponse	0	0.04	535.553	9	56	Feedback	Neutral	True
537.968	2.835	Control	0.614	n/a	Yes	2.835	n/a	n/a	GoodResponse	0	0.0	n/a	9	56	ISIslide	Neutral	True
540.826	0.25	Control	0.6034	0.0	No	3.474	0.026	n/a	NoResponse	0	n/a	n/a	9	57	Cue	Neutral	True
541.077	4.0	Control	0.6034	0.0	No	3.474	0.001	n/a	NoResponse	0	n/a	n/a	9	57	Fixation	Neutral	True
545.072	0.21	Control	0.6034	0.004	No	3.474	-0.004	2.0	NoResponse	0	0.244	544.316	9	57	Target	Neutral	True
545.29	0.49	Control	0.6034	n/a	No	3.474	n/a	n/a	NoResponse	0	n/a	n/a	9	57	Blank	Neutral	True
545.316	0.3	Control	0.6034	0.004	No	3.474	-0.004	2.0	NoResponse	0	0.244	n/a	9	57	ButtonPress	Neutral	True
545.774	1.45	Control	0.6034	n/a	No	3.474	n/a	5.0	NoResponse	0	0.047	544.821	9	57	Feedback	Neutral	True
547.229	3.474	Control	0.6034	n/a	No	3.474	n/a	n/a	NoResponse	0	0.0	n/a	9	57	ISIslide	Neutral	True
550.723	0.25	Win2	0.6102000000000001	0.0	Yes	2.727	0.023	n/a	GoodResponse	1	n/a	n/a	10	58	Cue	Win	True
550.973	4.05	Win2	0.6102000000000001	0.0	Yes	2.727	0.0	n/a	GoodResponse	1	n/a	n/a	10	58	Fixation	Win	True
555.019	0.22	Win2	0.6102000000000001	0.004	Yes	2.727	-0.004	2.0	GoodResponse	1	0.206	554.225	10	58	Target	Win	True
555.225	0.3	Win2	0.6102000000000001	0.004	Yes	2.727	-0.004	2.0	GoodResponse	1	0.206	n/a	10	58	ButtonPress	Win	True
555.253	0.48	Win2	0.6102000000000001	n/a	Yes	2.727	n/a	n/a	GoodResponse	1	n/a	n/a	10	58	Blank	Win	True
555.721	1.45	Win2	0.6102000000000001	n/a	Yes	2.727	n/a	5.0	GoodResponse	1	0.007	554.728	10	58	Feedback	Win	True
557.175	2.727	Win2	0.6102000000000001	n/a	Yes	2.727	n/a	n/a	GoodResponse	1	0.0	n/a	10	58	ISIslide	Win	True
559.917	0.25	Lose2	0.6167	0.0	Yes	2.683	0.017	n/a	GoodResponse	0	n/a	n/a	10	59	Cue	AvoidedLoss	True
560.167	4.0	Lose2	0.6167	0.001	Yes	2.683	0.0	n/a	GoodResponse	0	n/a	n/a	10	59	Fixation	AvoidedLoss	True
564.163	0.23	Lose2	0.6167	0.004	Yes	2.683	-0.004	2.0	GoodResponse	0	0.191	563.354	10	59	Target	AvoidedLoss	True
564.354	0.3	Lose2	0.6167	0.004	Yes	2.683	-0.004	2.0	GoodResponse	0	0.191	n/a	10	59	ButtonPress	AvoidedLoss	True
564.397	0.47	Lose2	0.6167	n/a	Yes	2.683	n/a	n/a	GoodResponse	0	n/a	n/a	10	59	Blank	AvoidedLoss	True
564.865	1.45	Lose2	0.6167	n/a	Yes	2.683	n/a	5.0	GoodResponse	0	0.029	563.894	10	59	Feedback	AvoidedLoss	True
566.319	2.683	Lose2	0.6167	n/a	Yes	2.683	n/a	n/a	GoodResponse	0	0.0	n/a	10	59	ISIslide	AvoidedLoss	True
569.027	0.25	Control	0.623	0.0	Yes	2.673	0.027	n/a	GoodResponse	0	n/a	n/a	10	60	Cue	Neutral	True
569.278	4.0	Control	0.623	0.0	Yes	2.673	0.001	n/a	GoodResponse	0	n/a	n/a	10	60	Fixation	Neutral	True
573.273	0.24	Control	0.623	0.004	Yes	2.673	-0.004	2.0	GoodResponse	0	0.207	572.48	10	60	Target	Neutral	True
573.48	0.3	Control	0.623	0.004	Yes	2.673	-0.004	2.0	GoodResponse	0	0.207	n/a	10	60	ButtonPress	Neutral	True
573.524	0.46	Control	0.623	n/a	Yes	2.673	n/a	n/a	GoodResponse	0	n/a	n/a	10	60	Blank	Neutral	True
573.975	1.45	Control	0.623	n/a	Yes	2.673	n/a	5.0	GoodResponse	0	0.041	573.016	10	60	Feedback	Neutral	True
575.43	2.673	Control	0.623	n/a	Yes	2.673	n/a	n/a	GoodResponse	0	0.0	n/a	10	60	ISIslide	Neutral	True
578.121	0.25	Lose2	0.629	0.0	Yes	2.979	0.021	n/a	GoodResponse	0	n/a	n/a	10	61	Cue	AvoidedLoss	True
578.372	4.0	Lose2	0.629	0.0	Yes	2.979	0.001	n/a	GoodResponse	0	n/a	n/a	10	61	Fixation	AvoidedLoss	True
582.367	0.25	Lose2	0.629	0.004	Yes	2.979	-0.004	2.0	GoodResponse	0	0.208	581.575	10	61	Target	AvoidedLoss	True
582.575	0.3	Lose2	0.629	0.004	Yes	2.979	-0.004	2.0	GoodResponse	0	0.208	n/a	10	61	ButtonPress	AvoidedLoss	True
582.618	0.45	Lose2	0.629	n/a	Yes	2.979	n/a	n/a	GoodResponse	0	n/a	n/a	10	61	Blank	AvoidedLoss	True
583.069	1.45	Lose2	0.629	n/a	Yes	2.979	n/a	5.0	GoodResponse	0	0.02	582.089	10	61	Feedback	AvoidedLoss	True
584.523	2.979	Lose2	0.629	n/a	Yes	2.979	n/a	n/a	GoodResponse	0	0.0	n/a	10	61	ISIslide	AvoidedLoss	True
587.516	0.25	Lose2	0.6349	0.0	Yes	2.884	0.016	n/a	GoodResponse	0	n/a	n/a	10	62	Cue	AvoidedLoss	True
587.767	3.9	Lose2	0.6349	0.0	Yes	2.884	0.001	n/a	GoodResponse	0	n/a	n/a	10	62	Fixation	AvoidedLoss	True
591.661	0.26	Lose2	0.6349	0.005	Yes	2.884	-0.005	2.0	GoodResponse	0	0.198	590.859	10	62	Target	AvoidedLoss	True
591.859	0.3	Lose2	0.6349	0.005	Yes	2.884	-0.005	2.0	GoodResponse	0	0.198	n/a	10	62	ButtonPress	AvoidedLoss	True
591.929	0.44	Lose2	0.6349	n/a	Yes	2.884	n/a	n/a	GoodResponse	0	n/a	n/a	10	62	Blank	AvoidedLoss	True
592.364	1.45	Lose2	0.6349	n/a	Yes	2.884	n/a	5.0	GoodResponse	0	0.041	591.405	10	62	Feedback	AvoidedLoss	True
593.818	2.884	Lose2	0.6349	n/a	Yes	2.884	n/a	n/a	GoodResponse	0	0.0	n/a	10	62	ISIslide	AvoidedLoss	True
596.727	0.25	Lose2	0.6406000000000001	0.0	Yes	2.623	0.027	n/a	GoodResponse	0	n/a	n/a	10	63	Cue	AvoidedLoss	True
596.977	4.05	Lose2	0.6406000000000001	0.0	Yes	2.623	0.0	n/a	GoodResponse	0	n/a	n/a	10	63	Fixation	AvoidedLoss	True
601.023	0.27	Lose2	0.6406000000000001	0.004	Yes	2.623	-0.004	2.0	GoodResponse	0	0.232	600.255	10	63	Target	AvoidedLoss	True
601.255	0.3	Lose2	0.6406000000000001	0.004	Yes	2.623	-0.004	2.0	GoodResponse	0	0.232	n/a	10	63	ButtonPress	AvoidedLoss	True
601.307	0.43	Lose2	0.6406000000000001	n/a	Yes	2.623	n/a	n/a	GoodResponse	0	n/a	n/a	10	63	Blank	AvoidedLoss	True
601.725	1.45	Lose2	0.6406000000000001	n/a	Yes	2.623	n/a	5.0	GoodResponse	0	0.046	600.771	10	63	Feedback	AvoidedLoss	True
603.179	2.623	Lose2	0.6406000000000001	n/a	Yes	2.623	n/a	n/a	GoodResponse	0	0.0	n/a	10	63	ISIslide	AvoidedLoss	True
605.82	0.25	Win2	0.6462	0.001	Yes	3.13	0.02	n/a	GoodResponse	1	n/a	n/a	11	64	Cue	Win	True
606.071	4.15	Win2	0.6462	0.0	Yes	3.13	0.001	n/a	GoodResponse	1	n/a	n/a	11	64	Fixation	Win	True
610.217	0.28	Win2	0.6462	0.003	Yes	3.13	-0.003	2.0	GoodResponse	1	0.187	609.404	11	64	Target	Win	True
610.404	0.3	Win2	0.6462	0.003	Yes	3.13	-0.003	2.0	GoodResponse	1	0.187	n/a	11	64	ButtonPress	Win	True
610.501	0.42	Win2	0.6462	n/a	Yes	3.13	n/a	n/a	GoodResponse	1	n/a	n/a	11	64	Blank	Win	True
610.919	1.45	Win2	0.6462	n/a	Yes	3.13	n/a	5.0	GoodResponse	1	0.023	609.942	11	64	Feedback	Win	True
612.373	3.13	Win2	0.6462	n/a	Yes	3.13	n/a	n/a	GoodResponse	1	0.0	n/a	11	64	ISIslide	Win	True
615.516	0.25	Control	0.6364	0.0	No	2.784	0.016	n/a	NoResponse	0	n/a	n/a	11	65	Cue	Neutral	False
615.767	4.0	Control	0.6364	0.0	No	2.784	0.001	n/a	NoResponse	0	n/a	n/a	11	65	Fixation	Neutral	False
619.762	0.29	Control	0.6364	0.004	No	2.784	-0.004	n/a	NoResponse	0	n/a	n/a	11	65	Target	Neutral	False
620.063	0.41	Control	0.6364	n/a	No	2.784	n/a	n/a	NoResponse	0	n/a	n/a	11	65	Blank	Neutral	False
620.464	1.45	Control	0.6364	n/a	No	2.784	n/a	5.0	NoResponse	0	0.039	619.503	11	65	Feedback	Neutral	False
621.919	2.784	Control	0.6364	n/a	No	2.784	n/a	n/a	NoResponse	0	0.0	n/a	11	65	ISIslide	Neutral	False
624.727	0.25	Win2	0.6418	0.0	Yes	2.773	0.027	n/a	GoodResponse	1	n/a	n/a	12	66	Cue	Win	True
624.978	3.9	Win2	0.6418	0.0	Yes	2.773	0.001	n/a	GoodResponse	1	n/a	n/a	12	66	Fixation	Win	True
628.873	0.3	Win2	0.6418	0.004	Yes	2.773	-0.004	2.0	GoodResponse	1	0.223	628.096	12	66	Target	Win	True
629.096	0.3	Win2	0.6418	0.004	Yes	2.773	-0.004	2.0	GoodResponse	1	0.223	n/a	12	66	ButtonPress	Win	True
629.174	0.4	Win2	0.6418	n/a	Yes	2.773	n/a	n/a	GoodResponse	1	n/a	n/a	12	66	Blank	Win	True
629.575	1.45	Win2	0.6418	n/a	Yes	2.773	n/a	5.0	GoodResponse	1	0.0	628.575	12	66	Feedback	Win	True
631.029	2.773	Win2	0.6418	n/a	Yes	2.773	n/a	n/a	GoodResponse	1	0.0	n/a	12	66	ISIslide	Win	True
633.821	0.25	Control	0.6470999999999999	0.0	Yes	2.729	0.021	n/a	GoodResponse	0	n/a	n/a	12	67	Cue	Neutral	True
634.071	3.95	Control	0.6470999999999999	0.001	Yes	2.729	0.0	n/a	GoodResponse	0	n/a	n/a	12	67	Fixation	Neutral	True
638.017	0.31	Control	0.6470999999999999	0.004	Yes	2.729	-0.004	2.0	GoodResponse	0	0.259	637.276	12	67	Target	Neutral	True
638.276	0.3	Control	0.6470999999999999	0.004	Yes	2.729	-0.004	2.0	GoodResponse	0	0.259	n/a	12	67	ButtonPress	Neutral	True
638.334	0.39	Control	0.6470999999999999	n/a	Yes	2.729	n/a	n/a	GoodResponse	0	n/a	n/a	12	67	Blank	Neutral	True
638.719	1.45	Control	0.6470999999999999	n/a	Yes	2.729	n/a	5.0	GoodResponse	0	0.027	637.746	12	67	Feedback	Neutral	True
640.173	2.729	Control	0.6470999999999999	n/a	Yes	2.729	n/a	n/a	GoodResponse	0	0.0	n/a	12	67	ISIslide	Neutral	True
642.931	0.25	Win2	0.6522	0.0	Yes	3.069	0.031	n/a	GoodResponse	1	n/a	n/a	13	68	Cue	Win	True
643.182	4.0	Win2	0.6522	0.0	Yes	3.069	0.001	n/a	GoodResponse	1	n/a	n/a	13	68	Fixation	Win	True
647.177	0.32	Win2	0.6522	0.004	Yes	3.069	-0.004	2.0	GoodResponse	1	0.202	646.379	13	68	Target	Win	True
647.379	0.3	Win2	0.6522	0.004	Yes	3.069	-0.004	2.0	GoodResponse	1	0.202	n/a	13	68	ButtonPress	Win	True
647.512	0.38	Win2	0.6522	n/a	Yes	3.069	n/a	n/a	GoodResponse	1	n/a	n/a	13	68	Blank	Win	True
647.879	1.45	Win2	0.6522	n/a	Yes	3.069	n/a	5.0	GoodResponse	1	0.038	646.917	13	68	Feedback	Win	True
649.334	3.069	Win2	0.6522	n/a	Yes	3.069	n/a	n/a	GoodResponse	1	0.0	n/a	13	68	ISIslide	Win	True
652.426	0.25	Win2	0.6570999999999999	0.0	Yes	3.224	0.026	n/a	GoodResponse	1	n/a	n/a	14	69	Cue	Win	True
652.677	3.95	Win2	0.6570999999999999	0.0	Yes	3.224	0.001	n/a	GoodResponse	1	n/a	n/a	14	69	Fixation	Win	True
656.622	0.33	Win2	0.6570999999999999	0.004	Yes	3.224	-0.004	2.0	GoodResponse	1	0.296	655.918	14	69	Target	Win	True
656.918	0.3	Win2	0.6570999999999999	0.004	Yes	3.224	-0.004	2.0	GoodResponse	1	0.296	n/a	14	69	ButtonPress	Win	True
656.956	0.37	Win2	0.6570999999999999	n/a	Yes	3.224	n/a	n/a	GoodResponse	1	n/a	n/a	14	69	Blank	Win	True
657.324	1.45	Win2	0.6570999999999999	n/a	Yes	3.224	n/a	5.0	GoodResponse	1	0.008	656.332	14	69	Feedback	Win	True
658.779	3.224	Win2	0.6570999999999999	n/a	Yes	3.224	n/a	n/a	GoodResponse	1	0.0	n/a	14	69	ISIslide	Win	True
662.022	0.25	Lose2	0.662	0.0	Yes	3.028	0.022	n/a	GoodResponse	0	n/a	n/a	14	70	Cue	AvoidedLoss	True
662.272	4.05	Lose2	0.662	0.0	Yes	3.028	0.0	n/a	GoodResponse	0	n/a	n/a	14	70	Fixation	AvoidedLoss	True
666.318	0.33	Lose2	0.662	0.004	Yes	3.028	-0.004	2.0	GoodResponse	0	0.286	665.604	14	70	Target	AvoidedLoss	True
666.604	0.3	Lose2	0.662	0.004	Yes	3.028	-0.004	2.0	GoodResponse	0	0.286	n/a	14	70	ButtonPress	AvoidedLoss	True
666.652	0.37	Lose2	0.662	n/a	Yes	3.028	n/a	n/a	GoodResponse	0	n/a	n/a	14	70	Blank	AvoidedLoss	True
667.02	1.45	Lose2	0.662	n/a	Yes	3.028	n/a	5.0	GoodResponse	0	0.018	666.038	14	70	Feedback	AvoidedLoss	True
668.474	3.028	Lose2	0.662	n/a	Yes	3.028	n/a	n/a	GoodResponse	0	0.0	n/a	14	70	ISIslide	AvoidedLoss	True
671.517	0.25	Win2	0.6667000000000001	0.0	Yes	2.733	0.017	n/a	GoodResponse	1	n/a	n/a	15	71	Cue	Win	True
671.767	4.05	Win2	0.6667000000000001	0.0	Yes	2.733	0.0	n/a	GoodResponse	1	n/a	n/a	15	71	Fixation	Win	True
675.813	0.33	Win2	0.6667000000000001	0.004	Yes	2.733	-0.004	2.0	GoodResponse	1	0.199	675.012	15	71	Target	Win	True
676.012	0.3	Win2	0.6667000000000001	0.004	Yes	2.733	-0.004	2.0	GoodResponse	1	0.199	n/a	15	71	ButtonPress	Win	True
676.147	0.37	Win2	0.6667000000000001	n/a	Yes	2.733	n/a	n/a	GoodResponse	1	n/a	n/a	15	71	Blank	Win	True
676.515	1.45	Win2	0.6667000000000001	n/a	Yes	2.733	n/a	5.0	GoodResponse	1	0.035	675.55	15	71	Feedback	Win	True
677.969	2.733	Win2	0.6667000000000001	n/a	Yes	2.733	n/a	n/a	GoodResponse	1	0.0	n/a	15	71	ISIslide	Win	True
680.727	0.25	Win2	0.6712	0.001	Yes	2.773	0.027	n/a	GoodResponse	1	n/a	n/a	16	72	Cue	Win	True
680.978	4.1	Win2	0.6712	0.0	Yes	2.773	0.001	n/a	GoodResponse	1	n/a	n/a	16	72	Fixation	Win	True
685.074	0.32	Win2	0.6712	0.003	Yes	2.773	-0.003	2.0	GoodResponse	1	0.213	684.287	16	72	Target	Win	True
685.287	0.3	Win2	0.6712	0.003	Yes	2.773	-0.003	2.0	GoodResponse	1	0.213	n/a	16	72	ButtonPress	Win	True
685.408	0.38	Win2	0.6712	n/a	Yes	2.773	n/a	n/a	GoodResponse	1	n/a	n/a	16	72	Blank	Win	True
685.776	1.45	Win2	0.6712	n/a	Yes	2.773	n/a	5.0	GoodResponse	1	0.043	684.819	16	72	Feedback	Win	True
687.23	2.773	Win2	0.6712	n/a	Yes	2.773	n/a	n/a	GoodResponse	1	0.0	n/a	16	72	ISIslide	Win	True
690.022	0.25	Win2	0.6622	0.0	No	2.678	0.022	n/a	NoResponse	0	n/a	n/a	16	73	Cue	MissedWin	False
690.273	4.0	Win2	0.6622	0.0	No	2.678	0.001	n/a	NoResponse	0	n/a	n/a	16	73	Fixation	MissedWin	False
694.268	0.31	Win2	0.6622	0.004	No	2.678	-0.004	n/a	NoResponse	0	n/a	n/a	16	73	Target	MissedWin	False
694.586	0.39	Win2	0.6622	n/a	No	2.678	n/a	n/a	NoResponse	0	n/a	n/a	16	73	Blank	MissedWin	False
694.97	1.45	Win2	0.6622	n/a	No	2.678	n/a	5.0	NoResponse	0	0.019	693.989	16	73	Feedback	MissedWin	False
696.424	2.678	Win2	0.6622	n/a	No	2.678	n/a	n/a	NoResponse	0	0.0	n/a	16	73	ISIslide	MissedWin	False
699.116	0.25	Lose2	0.6667000000000001	0.0	Yes	2.634	0.016	n/a	GoodResponse	0	n/a	n/a	16	74	Cue	AvoidedLoss	True
699.366	4.05	Lose2	0.6667000000000001	0.001	Yes	2.634	0.0	n/a	GoodResponse	0	n/a	n/a	16	74	Fixation	AvoidedLoss	True
703.412	0.31	Lose2	0.6667000000000001	0.004	Yes	2.634	-0.004	2.0	GoodResponse	0	0.218	702.63	16	74	Target	AvoidedLoss	True
703.63	0.3	Lose2	0.6667000000000001	0.004	Yes	2.634	-0.004	2.0	GoodResponse	0	0.218	n/a	16	74	ButtonPress	AvoidedLoss	True
703.73	0.39	Lose2	0.6667000000000001	n/a	Yes	2.634	n/a	n/a	GoodResponse	0	n/a	n/a	16	74	Blank	AvoidedLoss	True
704.114	1.45	Lose2	0.6667000000000001	n/a	Yes	2.634	n/a	5.0	GoodResponse	0	0.045	703.159	16	74	Feedback	AvoidedLoss	True
705.568	2.634	Lose2	0.6667000000000001	n/a	Yes	2.634	n/a	n/a	GoodResponse	0	0.0	n/a	16	74	ISIslide	AvoidedLoss	True
708.226	0.25	Lose2	0.6711	0.0	Yes	2.924	0.026	n/a	GoodResponse	0	n/a	n/a	16	75	Cue	AvoidedLoss	True
708.477	3.95	Lose2	0.6711	0.0	Yes	2.924	0.001	n/a	GoodResponse	0	n/a	n/a	16	75	Fixation	AvoidedLoss	True
712.422	0.3	Lose2	0.6711	0.004	Yes	2.924	-0.004	2.0	GoodResponse	0	0.295	711.717	16	75	Target	AvoidedLoss	True
712.717	0.3	Lose2	0.6711	0.004	Yes	2.924	-0.004	2.0	GoodResponse	0	0.295	n/a	16	75	ButtonPress	AvoidedLoss	True
712.723	0.4	Lose2	0.6711	n/a	Yes	2.924	n/a	n/a	GoodResponse	0	n/a	n/a	16	75	Blank	AvoidedLoss	True
713.124	1.45	Lose2	0.6711	n/a	Yes	2.924	n/a	5.0	GoodResponse	0	0.011	712.135	16	75	Feedback	AvoidedLoss	True
714.579	2.924	Lose2	0.6711	n/a	Yes	2.924	n/a	n/a	GoodResponse	0	0.0	n/a	16	75	ISIslide	AvoidedLoss	True
717.521	0.25	Control	0.6753	0.0	Yes	3.229	0.021	n/a	GoodResponse	0	n/a	n/a	16	76	Cue	Neutral	True
717.771	4.05	Control	0.6753	0.001	Yes	3.229	0.0	n/a	GoodResponse	0	n/a	n/a	16	76	Fixation	Neutral	True
721.817	0.29	Control	0.6753	0.004	Yes	3.229	-0.004	2.0	GoodResponse	0	0.209	721.026	16	76	Target	Neutral	True
722.026	0.3	Control	0.6753	0.004	Yes	3.229	-0.004	2.0	GoodResponse	0	0.209	n/a	16	76	ButtonPress	Neutral	True
722.118	0.41	Control	0.6753	n/a	Yes	3.229	n/a	n/a	GoodResponse	0	n/a	n/a	16	76	Blank	Neutral	True
722.519	1.45	Control	0.6753	n/a	Yes	3.229	n/a	5.0	GoodResponse	0	0.031	721.55	16	76	Feedback	Neutral	True
723.973	3.229	Control	0.6753	n/a	Yes	3.229	n/a	n/a	GoodResponse	0	0.0	n/a	16	76	ISIslide	Neutral	True
727.216	0.25	Lose2	0.6795	0.0	Yes	2.584	0.016	n/a	GoodResponse	0	n/a	n/a	16	77	Cue	AvoidedLoss	True
727.467	3.95	Lose2	0.6795	0.0	Yes	2.584	0.001	n/a	GoodResponse	0	n/a	n/a	16	77	Fixation	AvoidedLoss	True
731.412	0.28	Lose2	0.6795	0.004	Yes	2.584	-0.004	2.0	GoodResponse	0	0.215	730.627	16	77	Target	AvoidedLoss	True
731.627	0.3	Lose2	0.6795	0.004	Yes	2.584	-0.004	2.0	GoodResponse	0	0.215	n/a	16	77	ButtonPress	AvoidedLoss	True
731.696	0.42	Lose2	0.6795	n/a	Yes	2.584	n/a	n/a	GoodResponse	0	n/a	n/a	16	77	Blank	AvoidedLoss	True
732.114	1.45	Lose2	0.6795	n/a	Yes	2.584	n/a	5.0	GoodResponse	0	0.046	731.16	16	77	Feedback	AvoidedLoss	True
733.569	2.584	Lose2	0.6795	n/a	Yes	2.584	n/a	n/a	GoodResponse	0	0.0	n/a	16	77	ISIslide	AvoidedLoss	True
