onset	duration	cue_type	current_mean_accuracy	duration_error	is_hit	isi_adjusted	onset_delay	response	response_type	reward	rt	rt_time	total_reward	trial_number	trial_phase	trial_type	one_press
11.099	0.25	Control	1.0	0.0	Yes	2.951	-0.001	n/a	GoodResponse	0	n/a	n/a	0	0	Cue	Neutral	True
11.35	3.85	Control	1.0	0.0	Yes	2.951	0.001	n/a	GoodResponse	0	n/a	n/a	0	0	Fixation	Neutral	True
15.195	0.4	Control	1.0	0.004	Yes	2.951	-0.004	2.0	GoodResponse	0	0.207	14.402	0	0	Target	Neutral	True
15.402	0.3	Control	1.0	0.004	Yes	2.951	-0.004	2.0	GoodResponse	0	0.207	n/a	0	0	ButtonPress	Neutral	True
15.596	0.3	Control	1.0	n/a	Yes	2.951	n/a	n/a	GoodResponse	0	n/a	n/a	0	0	Blank	Neutral	True
15.897	1.45	Control	1.0	n/a	Yes	2.951	n/a	5.0	GoodResponse	0	0.03	14.927	0	0	Feedback	Neutral	True
17.351	2.951	Control	1.0	n/a	Yes	2.951	n/a	n/a	GoodResponse	0	0.0	n/a	0	0	ISIslide	Neutral	True
20.327	0.25	Lose2	1.0	0.0	Yes	2.773	0.027	n/a	GoodResponse	0	n/a	n/a	0	1	Cue	AvoidedLoss	True
20.578	4.0	Lose2	1.0	0.0	Yes	2.773	0.001	n/a	GoodResponse	0	n/a	n/a	0	1	Fixation	AvoidedLoss	True
24.573	0.39	Lose2	1.0	0.004	Yes	2.773	-0.004	2.0	GoodResponse	0	0.21	23.783	0	1	Target	AvoidedLoss	True
24.783	0.3	Lose2	1.0	0.004	Yes	2.773	-0.004	2.0	GoodResponse	0	0.21	n/a	0	1	ButtonPress	AvoidedLoss	True
24.974	0.31	Lose2	1.0	n/a	Yes	2.773	n/a	n/a	GoodResponse	0	n/a	n/a	0	1	Blank	AvoidedLoss	True
25.275	1.45	Lose2	1.0	n/a	Yes	2.773	n/a	5.0	GoodResponse	0	0.017	24.292	0	1	Feedback	AvoidedLoss	True
26.729	2.773	Lose2	1.0	n/a	Yes	2.773	n/a	n/a	GoodResponse	0	0.0	n/a	0	1	ISIslide	AvoidedLoss	True
29.521	0.25	Control	1.0	0.0	Yes	2.579	0.021	n/a	GoodResponse	0	n/a	n/a	0	2	Cue	Neutral	True
29.772	4.1	Control	1.0	0.0	Yes	2.579	0.001	n/a	GoodResponse	0	n/a	n/a	0	2	Fixation	Neutral	True
33.868	0.38	Control	1.0	0.003	Yes	2.579	-0.003	2.0	GoodResponse	0	0.185	33.053	0	2	Target	Neutral	True
34.053	0.3	Control	1.0	0.003	Yes	2.579	-0.003	2.0	GoodResponse	0	0.185	n/a	0	2	ButtonPress	Neutral	True
34.252	0.32	Control	1.0	n/a	Yes	2.579	n/a	n/a	GoodResponse	0	n/a	n/a	0	2	Blank	Neutral	True
34.57	1.45	Control	1.0	n/a	Yes	2.579	n/a	5.0	GoodResponse	0	0.039	33.609	0	2	Feedback	Neutral	True
36.024	2.579	Control	1.0	n/a	Yes	2.579	n/a	n/a	GoodResponse	0	0.0	n/a	0	2	ISIslide	Neutral	True
38.615	0.25	Win2	1.0	0.0	Yes	2.835	0.015	n/a	GoodResponse	1	n/a	n/a	1	3	Cue	Win	True
38.866	3.95	Win2	1.0	0.0	Yes	2.835	0.001	n/a	GoodResponse	1	n/a	n/a	1	3	Fixation	Win	True
42.811	0.37	Win2	1.0	0.004	Yes	2.835	-0.004	2.0	GoodResponse	1	0.229	42.04	1	3	Target	Win	True
43.04	0.3	Win2	1.0	0.004	Yes	2.835	-0.004	2.0	GoodResponse	1	0.229	n/a	1	3	ButtonPress	Win	True
43.196	0.33	Win2	1.0	n/a	Yes	2.835	n/a	n/a	GoodResponse	1	n/a	n/a	1	3	Blank	Win	True
43.513	1.45	Win2	1.0	n/a	Yes	2.835	n/a	5.0	GoodResponse	1	0.023	42.536	1	3	Feedback	Win	True
44.968	2.835	Win2	1.0	n/a	Yes	2.835	n/a	n/a	GoodResponse	1	0.0	n/a	1	3	ISIslide	Win	True
47.826	0.25	Win2	1.0	0.0	Yes	3.274	0.026	n/a	GoodResponse	1	n/a	n/a	2	4	Cue	Win	True
48.077	4.0	Win2	1.0	0.0	Yes	3.274	0.001	n/a	GoodResponse	1	n/a	n/a	2	4	Fixation	Win	True
52.072	0.36	Win2	1.0	0.004	Yes	3.274	-0.004	2.0	GoodResponse	1	0.214	51.286	2	4	Target	Win	True
52.286	0.3	Win2	1.0	0.004	Yes	3.274	-0.004	2.0	GoodResponse	1	0.214	n/a	2	4	ButtonPress	Win	True
52.44	0.34	Win2	1.0	n/a	Yes	3.274	n/a	n/a	GoodResponse	1	n/a	n/a	2	4	Blank	Win	True
52.774	1.45	Win2	1.0	n/a	Yes	3.274	n/a	5.0	GoodResponse	1	0.03	51.804	2	4	Feedback	Win	True
54.229	3.274	Win2	1.0	n/a	Yes	3.274	n/a	n/a	GoodResponse	1	0.0	n/a	2	4	ISIslide	Win	True
57.522	0.25	Win2	1.0	0.0	Yes	2.778	0.022	n/a	GoodResponse	1	n/a	n/a	3	5	Cue	Win	True
57.773	4.0	Win2	1.0	0.0	Yes	2.778	0.001	n/a	GoodResponse	1	n/a	n/a	3	5	Fixation	Win	True
61.768	0.35	Win2	1.0	0.004	Yes	2.778	-0.004	2.0	GoodResponse	1	0.223	60.991	3	5	Target	Win	True
61.991	0.3	Win2	1.0	0.004	Yes	2.778	-0.004	2.0	GoodResponse	1	0.223	n/a	3	5	ButtonPress	Win	True
62.119	0.35	Win2	1.0	n/a	Yes	2.778	n/a	n/a	GoodResponse	1	n/a	n/a	3	5	Blank	Win	True
62.47	1.45	Win2	1.0	n/a	Yes	2.778	n/a	5.0	GoodResponse	1	0.042	61.512	3	5	Feedback	Win	True
63.924	2.778	Win2	1.0	n/a	Yes	2.778	n/a	n/a	GoodResponse	1	0.0	n/a	3	5	ISIslide	Win	True
66.716	0.25	Lose2	1.0	0.0	Yes	2.734	0.016	n/a	GoodResponse	0	n/a	n/a	3	6	Cue	AvoidedLoss	True
66.967	3.95	Lose2	1.0	0.0	Yes	2.734	0.001	n/a	GoodResponse	0	n/a	n/a	3	6	Fixation	AvoidedLoss	True
70.912	0.34	Lose2	1.0	0.004	Yes	2.734	-0.004	2.0	GoodResponse	0	0.228	70.14	3	6	Target	AvoidedLoss	True
71.14	0.3	Lose2	1.0	0.004	Yes	2.734	-0.004	2.0	GoodResponse	0	0.228	n/a	3	6	ButtonPress	AvoidedLoss	True
71.263	0.36	Lose2	1.0	n/a	Yes	2.734	n/a	n/a	GoodResponse	0	n/a	n/a	3	6	Blank	AvoidedLoss	True
71.614	1.45	Lose2	1.0	n/a	Yes	2.734	n/a	5.0	GoodResponse	0	0.02	70.634	3	6	Feedback	AvoidedLoss	True
73.068	2.734	Lose2	1.0	n/a	Yes	2.734	n/a	n/a	GoodResponse	0	0.0	n/a	3	6	ISIslide	AvoidedLoss	True
75.827	0.25	Lose2	1.0	0.0	Yes	4.023	0.027	n/a	GoodResponse	0	n/a	n/a	3	7	Cue	AvoidedLoss	True
76.078	4.05	Lose2	1.0	0.0	Yes	4.023	0.001	n/a	GoodResponse	0	n/a	n/a	3	7	Fixation	AvoidedLoss	True
80.123	0.33	Lose2	1.0	0.004	Yes	4.023	-0.004	2.0	GoodResponse	0	0.189	79.312	3	7	Target	AvoidedLoss	True
80.312	0.3	Lose2	1.0	0.004	Yes	4.023	-0.004	2.0	GoodResponse	0	0.189	n/a	3	7	ButtonPress	AvoidedLoss	True
80.457	0.37	Lose2	1.0	n/a	Yes	4.023	n/a	n/a	GoodResponse	0	n/a	n/a	3	7	Blank	AvoidedLoss	True
80.825	1.45	Lose2	1.0	n/a	Yes	4.023	n/a	5.0	GoodResponse	0	0.028	79.853	3	7	Feedback	AvoidedLoss	True
82.279	4.023	Lose2	1.0	n/a	Yes	4.023	n/a	n/a	GoodResponse	0	0.0	n/a	3	7	ISIslide	AvoidedLoss	True
86.325	0.25	Lose2	1.0	0.0	Yes	3.025	0.025	n/a	GoodResponse	0	n/a	n/a	3	8	Cue	AvoidedLoss	True
86.576	3.95	Lose2	1.0	0.0	Yes	3.025	0.001	n/a	GoodResponse	0	n/a	n/a	3	8	Fixation	AvoidedLoss	True
90.521	0.32	Lose2	1.0	0.004	Yes	3.025	-0.004	2.0	GoodResponse	0	0.197	89.718	3	8	Target	AvoidedLoss	True
90.718	0.3	Lose2	1.0	0.004	Yes	3.025	-0.004	2.0	GoodResponse	0	0.197	n/a	3	8	ButtonPress	AvoidedLoss	True
90.855	0.38	Lose2	1.0	n/a	Yes	3.025	n/a	n/a	GoodResponse	0	n/a	n/a	3	8	Blank	AvoidedLoss	True
91.223	1.45	Lose2	1.0	n/a	Yes	3.025	n/a	5.0	GoodResponse	0	0.021	90.244	3	8	Feedback	AvoidedLoss	True
92.677	3.025	Lose2	1.0	n/a	Yes	3.025	n/a	n/a	GoodResponse	0	0.0	n/a	3	8	ISIslide	AvoidedLoss	True
95.72	0.25	Lose2	1.0	0.0	Yes	3.13	0.02	n/a	GoodResponse	0	n/a	n/a	3	9	Cue	AvoidedLoss	True
95.971	3.95	Lose2	1.0	0.0	Yes	3.13	0.001	n/a	GoodResponse	0	n/a	n/a	3	9	Fixation	AvoidedLoss	True
99.916	0.31	Lose2	1.0	0.004	Yes	3.13	-0.004	2.0	GoodResponse	0	0.18	99.096	3	9	Target	AvoidedLoss	True
100.096	0.3	Lose2	1.0	0.004	Yes	3.13	-0.004	2.0	GoodResponse	0	0.18	n/a	3	9	ButtonPress	AvoidedLoss	True
100.233	0.39	Lose2	1.0	n/a	Yes	3.13	n/a	n/a	GoodResponse	0	n/a	n/a	3	9	Blank	AvoidedLoss	True
100.618	1.45	Lose2	1.0	n/a	Yes	3.13	n/a	5.0	GoodResponse	0	0.039	99.657	3	9	Feedback	AvoidedLoss	True
102.072	3.13	Lose2	1.0	n/a	Yes	3.13	n/a	n/a	GoodResponse	0	0.0	n/a	3	9	ISIslide	AvoidedLoss	True
105.215	0.25	Control	1.0	0.0	Yes	3.285	0.015	n/a	GoodResponse	0	n/a	n/a	3	10	Cue	Neutral	True
105.466	4.0	Control	1.0	0.0	Yes	3.285	0.001	n/a	GoodResponse	0	n/a	n/a	3	10	Fixation	Neutral	True
109.461	0.3	Control	1.0	0.004	Yes	3.285	-0.004	2.0	GoodResponse	0	0.172	108.633	3	10	Target	Neutral	True
109.633	0.3	Control	1.0	0.004	Yes	3.285	-0.004	2.0	GoodResponse	0	0.172	n/a	3	10	ButtonPress	Neutral	True
109.762	0.4	Control	1.0	n/a	Yes	3.285	n/a	n/a	GoodResponse	0	n/a	n/a	3	10	Blank	Neutral	True
110.163	1.45	Control	1.0	n/a	Yes	3.285	n/a	5.0	GoodResponse	0	0.007	109.17	3	10	Feedback	Neutral	True
111.617	3.285	Control	1.0	n/a	Yes	3.285	n/a	n/a	GoodResponse	0	0.0	n/a	3	10	ISIslide	Neutral	True
114.927	0.25	Lose2	0.9167000000000001	0.001	No	2.723	0.027	n/a	NoResponse	-1	n/a	n/a	2	11	Cue	Loss	True
115.178	4.05	Lose2	0.9167000000000001	0.0	No	2.723	0.001	n/a	NoResponse	-1	n/a	n/a	2	11	Fixation	Loss	True
119.224	0.29	Lose2	0.9167000000000001	0.003	No	2.723	-0.003	2.0	NoResponse	-1	0.349	118.573	2	11	Target	Loss	True
119.525	0.41	Lose2	0.9167000000000001	n/a	No	2.723	n/a	n/a	NoResponse	-1	n/a	n/a	2	11	Blank	Loss	True
119.573	0.3	Lose2	0.9167000000000001	0.003	No	2.723	-0.003	2.0	NoResponse	-1	0.349	n/a	2	11	ButtonPress	Loss	True
119.926	1.45	Lose2	0.9167000000000001	n/a	No	2.723	n/a	5.0	NoResponse	-1	0.0	118.926	2	11	Feedback	Loss	True
121.38	2.723	Lose2	0.9167000000000001	n/a	No	2.723	n/a	n/a	NoResponse	-1	0.0	n/a	2	11	ISIslide	Loss	True
124.122	0.25	Control	0.9231	0.0	Yes	2.978	0.022	n/a	GoodResponse	0	n/a	n/a	2	12	Cue	Neutral	True
124.372	3.9	Control	0.9231	0.0	Yes	2.978	0.0	n/a	GoodResponse	0	n/a	n/a	2	12	Fixation	Neutral	True
128.284	0.28	Control	0.9231	0.0	Yes	2.978	0.012	2.0	GoodResponse	0	0.226	127.51	2	12	Target	Neutral	True
128.51	0.3	Control	0.9231	0.0	Yes	2.978	0.012	2.0	GoodResponse	0	0.226	n/a	2	12	ButtonPress	Neutral	True
128.552	0.42	Control	0.9231	n/a	Yes	2.978	n/a	n/a	GoodResponse	0	n/a	n/a	2	12	Blank	Neutral	True
128.97	1.45	Control	0.9231	n/a	Yes	2.978	n/a	5.0	GoodResponse	0	0.029	127.999	2	12	Feedback	Neutral	True
130.424	2.978	Control	0.9231	n/a	Yes	2.978	n/a	n/a	GoodResponse	0	0.0	n/a	2	12	ISIslide	Neutral	True
133.416	0.25	Control	0.8571	0.0	No	2.784	0.016	n/a	NoResponse	0	n/a	n/a	2	13	Cue	Neutral	True
133.667	4.0	Control	0.8571	0.0	No	2.784	0.001	n/a	NoResponse	0	n/a	n/a	2	13	Fixation	Neutral	True
137.662	0.27	Control	0.8571	0.004	No	2.784	-0.004	2.0	NoResponse	0	0.296	136.958	2	13	Target	Neutral	True
137.946	0.43	Control	0.8571	n/a	No	2.784	n/a	n/a	NoResponse	0	n/a	n/a	2	13	Blank	Neutral	True
137.958	0.3	Control	0.8571	0.004	No	2.784	-0.004	2.0	NoResponse	0	0.296	n/a	2	13	ButtonPress	Neutral	True
138.364	1.45	Control	0.8571	n/a	No	2.784	n/a	5.0	NoResponse	0	0.001	137.365	2	13	Feedback	Neutral	True
139.819	2.784	Control	0.8571	n/a	No	2.784	n/a	n/a	NoResponse	0	0.0	n/a	2	13	ISIslide	Neutral	True
142.627	0.25	Win2	0.8667	0.0	Yes	2.673	0.027	n/a	GoodResponse	1	n/a	n/a	3	14	Cue	Win	True
142.878	4.1	Win2	0.8667	0.0	Yes	2.673	0.001	n/a	GoodResponse	1	n/a	n/a	3	14	Fixation	Win	True
146.974	0.26	Win2	0.8667	0.003	Yes	2.673	-0.003	2.0	GoodResponse	1	0.185	146.159	3	14	Target	Win	True
147.159	0.3	Win2	0.8667	0.003	Yes	2.673	-0.003	2.0	GoodResponse	1	0.185	n/a	3	14	ButtonPress	Win	True
147.241	0.44	Win2	0.8667	n/a	Yes	2.673	n/a	n/a	GoodResponse	1	n/a	n/a	3	14	Blank	Win	True
147.676	1.45	Win2	0.8667	n/a	Yes	2.673	n/a	5.0	GoodResponse	1	0.006	146.682	3	14	Feedback	Win	True
149.13	2.673	Win2	0.8667	n/a	Yes	2.673	n/a	n/a	GoodResponse	1	0.0	n/a	3	14	ISIslide	Win	True
151.821	0.25	Control	0.8125	0.0	No	2.979	0.021	n/a	NoResponse	0	n/a	n/a	3	15	Cue	Neutral	True
152.072	4.0	Control	0.8125	0.0	No	2.979	0.001	n/a	NoResponse	0	n/a	n/a	3	15	Fixation	Neutral	True
156.067	0.25	Control	0.8125	0.004	No	2.979	-0.004	2.0	NoResponse	0	0.341	155.408	3	15	Target	Neutral	True
156.318	0.45	Control	0.8125	n/a	No	2.979	n/a	n/a	NoResponse	0	n/a	n/a	3	15	Blank	Neutral	True
156.408	0.3	Control	0.8125	0.004	No	2.979	-0.004	2.0	NoResponse	0	0.341	n/a	3	15	ButtonPress	Neutral	True
156.77	1.45	Control	0.8125	n/a	No	2.979	n/a	5.0	NoResponse	0	0.034	155.804	3	15	Feedback	Neutral	True
158.224	2.979	Control	0.8125	n/a	No	2.979	n/a	n/a	NoResponse	0	0.0	n/a	3	15	ISIslide	Neutral	True
161.216	0.25	Win2	0.8234999999999999	0.0	Yes	2.884	0.016	n/a	GoodResponse	1	n/a	n/a	4	16	Cue	Win	True
161.467	4.0	Win2	0.8234999999999999	0.0	Yes	2.884	0.001	n/a	GoodResponse	1	n/a	n/a	4	16	Fixation	Win	True
165.462	0.24	Win2	0.8234999999999999	0.004	Yes	2.884	-0.004	2.0	GoodResponse	1	0.213	164.675	4	16	Target	Win	True
165.675	0.3	Win2	0.8234999999999999	0.004	Yes	2.884	-0.004	2.0	GoodResponse	1	0.213	n/a	4	16	ButtonPress	Win	True
165.713	0.46	Win2	0.8234999999999999	n/a	Yes	2.884	n/a	n/a	GoodResponse	1	n/a	n/a	4	16	Blank	Win	True
166.164	1.45	Win2	0.8234999999999999	n/a	Yes	2.884	n/a	5.0	GoodResponse	1	0.006	165.17	4	16	Feedback	Win	True
167.619	2.884	Win2	0.8234999999999999	n/a	Yes	2.884	n/a	n/a	GoodResponse	1	0.0	n/a	4	16	ISIslide	Win	True
170.528	0.25	Lose2	0.7778	0.0	No	2.722	0.028	n/a	NoResponse	-1	n/a	n/a	3	17	Cue	Loss	True
170.778	3.95	Lose2	0.7778	0.0	No	2.722	0.0	n/a	NoResponse	-1	n/a	n/a	3	17	Fixation	Loss	True
174.74	0.23	Lose2	0.7778	0.0	No	2.722	0.012	2.0	NoResponse	-1	0.229	173.969	3	17	Target	Loss	True
174.957	0.47	Lose2	0.7778	n/a	No	2.722	n/a	n/a	NoResponse	-1	n/a	n/a	3	17	Blank	Loss	True
174.969	0.3	Lose2	0.7778	0.0	No	2.722	0.012	2.0	NoResponse	-1	0.229	n/a	3	17	ButtonPress	Loss	True
175.426	1.45	Lose2	0.7778	n/a	No	2.722	n/a	5.0	NoResponse	-1	0.012	174.438	3	17	Feedback	Loss	True
176.88	2.722	Lose2	0.7778	n/a	No	2.722	n/a	n/a	NoResponse	-1	0.0	n/a	3	17	ISIslide	Loss	True
179.621	0.25	Lose2	0.7895	0.001	Yes	2.729	0.021	n/a	GoodResponse	0	n/a	n/a	3	18	Cue	AvoidedLoss	True
179.872	4.05	Lose2	0.7895	0.0	Yes	2.729	0.001	n/a	GoodResponse	0	n/a	n/a	3	18	Fixation	AvoidedLoss	True
183.918	0.22	Lose2	0.7895	0.003	Yes	2.729	-0.003	2.0	GoodResponse	0	0.21	183.128	3	18	Target	AvoidedLoss	True
184.128	0.3	Lose2	0.7895	0.003	Yes	2.729	-0.003	2.0	GoodResponse	0	0.21	n/a	3	18	ButtonPress	AvoidedLoss	True
184.152	0.48	Lose2	0.7895	n/a	Yes	2.729	n/a	n/a	GoodResponse	0	n/a	n/a	3	18	Blank	AvoidedLoss	True
184.62	1.45	Lose2	0.7895	n/a	Yes	2.729	n/a	5.0	GoodResponse	0	0.037	183.657	3	18	Feedback	AvoidedLoss	True
186.074	2.729	Lose2	0.7895	n/a	Yes	2.729	n/a	n/a	GoodResponse	0	0.0	n/a	3	18	ISIslide	AvoidedLoss	True
188.816	0.25	Control	0.8	0.0	Yes	2.934	0.016	n/a	GoodResponse	0	n/a	n/a	3	19	Cue	Neutral	True
189.066	3.95	Control	0.8	0.001	Yes	2.934	0.0	n/a	GoodResponse	0	n/a	n/a	3	19	Fixation	Neutral	True
193.012	0.21	Control	0.8	0.004	Yes	2.934	-0.004	2.0	GoodResponse	0	0.199	192.211	3	19	Target	Neutral	True
193.211	0.3	Control	0.8	0.004	Yes	2.934	-0.004	2.0	GoodResponse	0	0.199	n/a	3	19	ButtonPress	Neutral	True
193.229	0.49	Control	0.8	n/a	Yes	2.934	n/a	n/a	GoodResponse	0	n/a	n/a	3	19	Blank	Neutral	True
193.714	1.45	Control	0.8	n/a	Yes	2.934	n/a	5.0	GoodResponse	0	0.017	192.731	3	19	Feedback	Neutral	True
195.168	2.934	Control	0.8	n/a	Yes	2.934	n/a	n/a	GoodResponse	0	0.0	n/a	3	19	ISIslide	Neutral	True
198.127	0.25	Control	0.7619	0.0	No	2.623	0.027	n/a	NoResponse	0	n/a	n/a	3	20	Cue	Neutral	False
198.378	4.05	Control	0.7619	0.0	No	2.623	0.001	2.0	NoResponse	0	3.882	201.26	3	20	Fixation	Neutral	False
202.26	0.3	Control	0.7619	0.0	No	2.623	0.001	2.0	NoResponse	0	3.882	n/a	3	20	ButtonPress	Neutral	False
202.423	0.2	Control	0.7619	0.004	No	2.623	-0.004	2.0	NoResponse	0	0.267	201.69	3	20	Target	Neutral	False
202.624	0.5	Control	0.7619	n/a	No	2.623	n/a	n/a	NoResponse	0	n/a	n/a	3	20	Blank	Neutral	False
202.69	0.3	Control	0.7619	0.004	No	2.623	-0.004	2.0	NoResponse	0	0.267	n/a	3	20	ButtonPress	Neutral	False
203.125	1.45	Control	0.7619	n/a	No	2.623	n/a	5.0	NoResponse	0	0.02	202.145	3	20	Feedback	Neutral	False
204.58	2.623	Control	0.7619	n/a	No	2.623	n/a	n/a	NoResponse	0	0.0	n/a	3	20	ISIslide	Neutral	False
207.221	0.25	Control	0.7273000000000001	0.0	No	2.779	0.021	n/a	NoResponse	0	n/a	n/a	3	21	Cue	Neutral	True
207.472	4.1	Control	0.7273000000000001	0.0	No	2.779	0.001	n/a	NoResponse	0	n/a	n/a	3	21	Fixation	Neutral	True
211.567	0.19	Control	0.7273000000000001	0.004	No	2.779	-0.004	2.0	NoResponse	0	0.344	210.911	3	21	Target	Neutral	True
211.768	0.51	Control	0.7273000000000001	n/a	No	2.779	n/a	n/a	NoResponse	0	n/a	n/a	3	21	Blank	Neutral	True
211.911	0.3	Control	0.7273000000000001	0.004	No	2.779	-0.004	2.0	NoResponse	0	0.344	n/a	3	21	ButtonPress	Neutral	True
212.269	1.45	Control	0.7273000000000001	n/a	No	2.779	n/a	5.0	NoResponse	0	0.047	211.316	3	21	Feedback	Neutral	True
213.724	2.779	Control	0.7273000000000001	n/a	No	2.779	n/a	n/a	NoResponse	0	0.0	n/a	3	21	ISIslide	Neutral	True
216.515	0.25	Control	0.6957	0.001	No	2.785	0.015	n/a	NoResponse	0	n/a	n/a	3	22	Cue	Neutral	True
216.766	4.0	Control	0.6957	0.0	No	2.785	0.001	n/a	NoResponse	0	n/a	n/a	3	22	Fixation	Neutral	True
220.762	0.18	Control	0.6957	0.003	No	2.785	-0.003	2.0	NoResponse	0	0.192	219.954	3	22	Target	Neutral	True
220.945	0.52	Control	0.6957	n/a	No	2.785	n/a	n/a	NoResponse	0	n/a	n/a	3	22	Blank	Neutral	True
220.954	0.3	Control	0.6957	0.003	No	2.785	-0.003	2.0	NoResponse	0	0.192	n/a	3	22	ButtonPress	Neutral	True
221.464	1.45	Control	0.6957	n/a	No	2.785	n/a	5.0	NoResponse	0	0.023	220.487	3	22	Feedback	Neutral	True
222.918	2.785	Control	0.6957	n/a	No	2.785	n/a	n/a	NoResponse	0	0.0	n/a	3	22	ISIslide	Neutral	True
225.726	0.25	Control	0.6667000000000001	0.001	No	2.774	0.026	n/a	NoResponse	0	n/a	n/a	3	23	Cue	Neutral	True
225.977	3.9	Control	0.6667000000000001	0.0	No	2.774	0.001	n/a	NoResponse	0	n/a	n/a	3	23	Fixation	Neutral	True
229.872	0.17	Control	0.6667000000000001	0.004	No	2.774	-0.004	2.0	NoResponse	0	0.217	229.089	3	23	Target	Neutral	True
230.056	0.53	Control	0.6667000000000001	n/a	No	2.774	n/a	n/a	NoResponse	0	n/a	n/a	3	23	Blank	Neutral	True
230.089	0.3	Control	0.6667000000000001	0.004	No	2.774	-0.004	2.0	NoResponse	0	0.217	n/a	3	23	ButtonPress	Neutral	True
230.574	1.45	Control	0.6667000000000001	n/a	No	2.774	n/a	5.0	NoResponse	0	0.035	229.609	3	23	Feedback	Neutral	True
232.029	2.774	Control	0.6667000000000001	n/a	No	2.774	n/a	n/a	NoResponse	0	0.0	n/a	3	23	ISIslide	Neutral	True
234.82	0.25	Win2	0.64	0.0	No	3.13	0.02	n/a	NoResponse	0	n/a	n/a	3	24	Cue	MissedWin	True
235.071	3.95	Win2	0.64	0.0	No	3.13	0.001	n/a	NoResponse	0	n/a	n/a	3	24	Fixation	MissedWin	True
239.016	0.16	Win2	0.64	0.004	No	3.13	-0.004	2.0	NoResponse	0	0.178	238.194	3	24	Target	MissedWin	True
239.183	0.54	Win2	0.64	n/a	No	3.13	n/a	n/a	NoResponse	0	n/a	n/a	3	24	Blank	MissedWin	True
239.194	0.3	Win2	0.64	0.004	No	3.13	-0.004	2.0	NoResponse	0	0.178	n/a	3	24	ButtonPress	MissedWin	True
239.718	1.45	Win2	0.64	n/a	No	3.13	n/a	5.0	NoResponse	0	0.013	238.731	3	24	Feedback	MissedWin	True
241.173	3.13	Win2	0.64	n/a	No	3.13	n/a	n/a	NoResponse	0	0.0	n/a	3	24	ISIslide	MissedWin	True
244.316	0.25	Win2	0.6154	0.0	No	3.084	0.016	n/a	NoResponse	0	n/a	n/a	3	25	Cue	MissedWin	True
244.566	4.0	Win2	0.6154	0.0	No	3.084	0.0	n/a	NoResponse	0	n/a	n/a	3	25	Fixation	MissedWin	True
248.562	0.17	Win2	0.6154	0.004	No	3.084	-0.004	2.0	NoResponse	0	0.194	247.756	3	25	Target	MissedWin	True
248.745	0.53	Win2	0.6154	n/a	No	3.084	n/a	n/a	NoResponse	0	n/a	n/a	3	25	Blank	MissedWin	True
248.756	0.3	Win2	0.6154	0.004	No	3.084	-0.004	2.0	NoResponse	0	0.194	n/a	3	25	ButtonPress	MissedWin	True
249.264	1.45	Win2	0.6154	n/a	No	3.084	n/a	5.0	NoResponse	0	0.027	248.291	3	25	Feedback	MissedWin	True
250.718	3.084	Win2	0.6154	n/a	No	3.084	n/a	n/a	NoResponse	0	0.0	n/a	3	25	ISIslide	MissedWin	True
253.827	0.25	Win2	0.5926	0.0	No	2.923	0.027	n/a	PrematurePress	0	n/a	n/a	3	26	Cue	MissedWin	False
254.078	3.95	Win2	0.5926	0.0	No	2.923	0.001	2.0	PrematurePress	0	3.947	257.025	3	26	Fixation	MissedWin	False
258.023	0.18	Win2	0.5926	0.004	No	2.923	-0.004	2.0	PrematurePress	0	0.002	257.025	3	26	Target	MissedWin	False
258.025	0.3	Win2	0.5926	0.0	No	2.923	0.001	2.0	PrematurePress	0	3.947	n/a	3	26	ButtonPress	MissedWin	False
258.025	0.3	Win2	0.5926	0.004	No	2.923	-0.004	2.0	PrematurePress	0	0.002	n/a	3	26	ButtonPress	MissedWin	False
258.207	0.52	Win2	0.5926	n/a	No	2.923	n/a	n/a	PrematurePress	0	n/a	n/a	3	26	Blank	MissedWin	False
258.725	1.45	Win2	0.5926	n/a	No	2.923	n/a	5.0	PrematurePress	0	0.03	257.755	3	26	Feedback	MissedWin	False
260.18	2.923	Win2	0.5926	n/a	No	2.923	n/a	n/a	PrematurePress	0	0.0	n/a	3	26	ISIslide	MissedWin	False
263.122	0.25	Lose2	0.5714	0.0	No	2.828	0.022	n/a	LatePress	-1	n/a	n/a	2	27	Cue	Loss	True
263.373	4.05	Lose2	0.5714	0.0	No	2.828	0.001	n/a	LatePress	-1	n/a	n/a	2	27	Fixation	Loss	True
267.418	0.19	Lose2	0.5714	0.004	No	2.828	-0.004	2.0	LatePress	-1	0.192	266.61	2	27	Target	Loss	True
267.61	0.3	Lose2	0.5714	0.004	No	2.828	-0.004	2.0	LatePress	-1	0.192	n/a	2	27	ButtonPress	Loss	True
267.619	0.51	Lose2	0.5714	n/a	No	2.828	n/a	n/a	LatePress	-1	n/a	n/a	2	27	Blank	Loss	True
268.12	1.45	Lose2	0.5714	n/a	No	2.828	n/a	5.0	LatePress	-1	0.001	267.121	2	27	Feedback	Loss	True
269.575	2.828	Lose2	0.5714	n/a	No	2.828	n/a	n/a	LatePress	-1	0.0	n/a	2	27	ISIslide	Loss	True
272.416	0.25	Control	0.5861999999999999	0.001	Yes	2.834	0.016	n/a	GoodResponse	0	n/a	n/a	2	28	Cue	Neutral	True
272.667	4.05	Control	0.5861999999999999	0.0	Yes	2.834	0.001	n/a	GoodResponse	0	n/a	n/a	2	28	Fixation	Neutral	True
276.713	0.2	Control	0.5861999999999999	0.003	Yes	2.834	-0.003	2.0	GoodResponse	0	0.198	275.911	2	28	Target	Neutral	True
276.911	0.3	Control	0.5861999999999999	0.003	Yes	2.834	-0.003	2.0	GoodResponse	0	0.198	n/a	2	28	ButtonPress	Neutral	True
276.913	0.5	Control	0.5861999999999999	n/a	Yes	2.834	n/a	n/a	GoodResponse	0	n/a	n/a	2	28	Blank	Neutral	True
277.415	1.45	Control	0.5861999999999999	n/a	Yes	2.834	n/a	5.0	GoodResponse	0	0.023	276.438	2	28	Feedback	Neutral	True
278.869	2.834	Control	0.5861999999999999	n/a	Yes	2.834	n/a	n/a	GoodResponse	0	0.0	n/a	2	28	ISIslide	Neutral	True
281.728	0.25	Lose2	0.6	0.0	Yes	2.822	0.028	n/a	GoodResponse	0	n/a	n/a	2	29	Cue	AvoidedLoss	True
281.979	3.95	Lose2	0.6	0.0	Yes	2.822	0.001	n/a	GoodResponse	0	n/a	n/a	2	29	Fixation	AvoidedLoss	True
285.924	0.21	Lose2	0.6	0.004	Yes	2.822	-0.004	2.0	GoodResponse	0	0.205	285.129	2	29	Target	AvoidedLoss	True
286.129	0.3	Lose2	0.6	0.004	Yes	2.822	-0.004	2.0	GoodResponse	0	0.205	n/a	2	29	ButtonPress	AvoidedLoss	True
286.141	0.49	Lose2	0.6	n/a	Yes	2.822	n/a	n/a	GoodResponse	0	n/a	n/a	2	29	Blank	AvoidedLoss	True
286.626	1.45	Lose2	0.6	n/a	Yes	2.822	n/a	5.0	GoodResponse	0	0.032	285.658	2	29	Feedback	AvoidedLoss	True
288.08	2.822	Lose2	0.6	n/a	Yes	2.822	n/a	n/a	GoodResponse	0	0.0	n/a	2	29	ISIslide	AvoidedLoss	True
290.922	0.25	Win2	0.6129	0.0	Yes	2.778	0.022	n/a	GoodResponse	1	n/a	n/a	3	30	Cue	Win	True
291.173	3.9	Win2	0.6129	0.0	Yes	2.778	0.001	n/a	GoodResponse	1	n/a	n/a	3	30	Fixation	Win	True
295.068	0.22	Win2	0.6129	0.004	Yes	2.778	-0.004	2.0	GoodResponse	1	0.196	294.264	3	30	Target	Win	True
295.264	0.3	Win2	0.6129	0.004	Yes	2.778	-0.004	2.0	GoodResponse	1	0.196	n/a	3	30	ButtonPress	Win	True
295.302	0.48	Win2	0.6129	n/a	Yes	2.778	n/a	n/a	GoodResponse	1	n/a	n/a	3	30	Blank	Win	True
295.77	1.45	Win2	0.6129	n/a	Yes	2.778	n/a	5.0	GoodResponse	1	0.01	294.78	3	30	Feedback	Win	True
297.224	2.778	Win2	0.6129	n/a	Yes	2.778	n/a	n/a	GoodResponse	1	0.0	n/a	3	30	ISIslide	Win	True
300.016	0.25	Lose2	0.625	0.0	Yes	2.834	0.016	n/a	GoodResponse	0	n/a	n/a	3	31	Cue	AvoidedLoss	True
300.267	4.05	Lose2	0.625	0.0	Yes	2.834	0.001	n/a	GoodResponse	0	n/a	n/a	3	31	Fixation	AvoidedLoss	True
304.312	0.23	Lose2	0.625	0.004	Yes	2.834	-0.004	2.0	GoodResponse	0	0.195	303.507	3	31	Target	AvoidedLoss	True
304.507	0.3	Lose2	0.625	0.004	Yes	2.834	-0.004	2.0	GoodResponse	0	0.195	n/a	3	31	ButtonPress	AvoidedLoss	True
304.546	0.47	Lose2	0.625	n/a	Yes	2.834	n/a	n/a	GoodResponse	0	n/a	n/a	3	31	Blank	AvoidedLoss	True
305.014	1.45	Lose2	0.625	n/a	Yes	2.834	n/a	5.0	GoodResponse	0	0.034	304.048	3	31	Feedback	AvoidedLoss	True
306.469	2.834	Lose2	0.625	n/a	Yes	2.834	n/a	n/a	GoodResponse	0	0.0	n/a	3	31	ISIslide	AvoidedLoss	True
309.327	0.25	Lose2	0.6364	0.0	Yes	2.623	0.027	n/a	GoodResponse	0	n/a	n/a	3	32	Cue	AvoidedLoss	True
309.578	4.15	Lose2	0.6364	0.0	Yes	2.623	0.001	n/a	GoodResponse	0	n/a	n/a	3	32	Fixation	AvoidedLoss	True
313.724	0.24	Lose2	0.6364	0.003	Yes	2.623	-0.003	2.0	GoodResponse	0	0.201	312.925	3	32	Target	AvoidedLoss	True
313.925	0.3	Lose2	0.6364	0.003	Yes	2.623	-0.003	2.0	GoodResponse	0	0.201	n/a	3	32	ButtonPress	AvoidedLoss	True
313.974	0.46	Lose2	0.6364	n/a	Yes	2.623	n/a	n/a	GoodResponse	0	n/a	n/a	3	32	Blank	AvoidedLoss	True
314.426	1.45	Lose2	0.6364	n/a	Yes	2.623	n/a	5.0	GoodResponse	0	0.037	313.463	3	32	Feedback	AvoidedLoss	True
315.88	2.623	Lose2	0.6364	n/a	Yes	2.623	n/a	n/a	GoodResponse	0	0.0	n/a	3	32	ISIslide	AvoidedLoss	True
318.521	0.25	Win2	0.6470999999999999	0.001	Yes	2.679	0.021	n/a	GoodResponse	1	n/a	n/a	4	33	Cue	Win	True
318.772	4.0	Win2	0.6470999999999999	0.0	Yes	2.679	0.001	n/a	GoodResponse	1	n/a	n/a	4	33	Fixation	Win	True
322.768	0.25	Win2	0.6470999999999999	0.003	Yes	2.679	-0.003	2.0	GoodResponse	1	0.204	321.972	4	33	Target	Win	True
322.972	0.3	Win2	0.6470999999999999	0.003	Yes	2.679	-0.003	2.0	GoodResponse	1	0.204	n/a	4	33	ButtonPress	Win	True
323.018	0.45	Win2	0.6470999999999999	n/a	Yes	2.679	n/a	n/a	GoodResponse	1	n/a	n/a	4	33	Blank	Win	True
323.47	1.45	Win2	0.6470999999999999	n/a	Yes	2.679	n/a	5.0	GoodResponse	1	0.016	322.486	4	33	Feedback	Win	True
324.924	2.679	Win2	0.6470999999999999	n/a	Yes	2.679	n/a	n/a	GoodResponse	1	0.0	n/a	4	33	ISIslide	Win	True
327.615	0.25	Lose2	0.6570999999999999	0.0	Yes	2.635	0.015	n/a	GoodResponse	0	n/a	n/a	4	34	Cue	AvoidedLoss	True
327.866	4.05	Lose2	0.6570999999999999	0.0	Yes	2.635	0.001	n/a	GoodResponse	0	n/a	n/a	4	34	Fixation	AvoidedLoss	True
331.912	0.26	Lose2	0.6570999999999999	0.003	Yes	2.635	-0.003	2.0	GoodResponse	0	0.191	331.103	4	34	Target	AvoidedLoss	True
332.103	0.3	Lose2	0.6570999999999999	0.003	Yes	2.635	-0.003	2.0	GoodResponse	0	0.191	n/a	4	34	ButtonPress	AvoidedLoss	True
332.179	0.44	Lose2	0.6570999999999999	n/a	Yes	2.635	n/a	n/a	GoodResponse	0	n/a	n/a	4	34	Blank	AvoidedLoss	True
332.614	1.45	Lose2	0.6570999999999999	n/a	Yes	2.635	n/a	5.0	GoodResponse	0	0.043	331.657	4	34	Feedback	AvoidedLoss	True
334.068	2.635	Lose2	0.6570999999999999	n/a	Yes	2.635	n/a	n/a	GoodResponse	0	0.0	n/a	4	34	ISIslide	AvoidedLoss	True
336.726	0.25	Lose2	0.6667000000000001	0.0	Yes	2.674	0.026	n/a	GoodResponse	0	n/a	n/a	4	35	Cue	AvoidedLoss	True
336.977	4.0	Lose2	0.6667000000000001	0.0	Yes	2.674	0.001	n/a	GoodResponse	0	n/a	n/a	4	35	Fixation	AvoidedLoss	True
340.972	0.26	Lose2	0.6667000000000001	0.004	Yes	2.674	-0.004	2.0	GoodResponse	0	0.175	340.147	4	35	Target	AvoidedLoss	True
341.147	0.3	Lose2	0.6667000000000001	0.004	Yes	2.674	-0.004	2.0	GoodResponse	0	0.175	n/a	4	35	ButtonPress	AvoidedLoss	True
341.24	0.44	Lose2	0.6667000000000001	n/a	Yes	2.674	n/a	n/a	GoodResponse	0	n/a	n/a	4	35	Blank	AvoidedLoss	True
341.674	1.45	Lose2	0.6667000000000001	n/a	Yes	2.674	n/a	5.0	GoodResponse	0	0.008	340.682	4	35	Feedback	AvoidedLoss	True
343.129	2.674	Lose2	0.6667000000000001	n/a	Yes	2.674	n/a	n/a	GoodResponse	0	0.0	n/a	4	35	ISIslide	AvoidedLoss	True
345.82	0.25	Control	0.6757	0.0	Yes	2.68	0.02	n/a	GoodResponse	0	n/a	n/a	4	36	Cue	Neutral	True
346.071	4.0	Control	0.6757	0.0	Yes	2.68	0.001	n/a	GoodResponse	0	n/a	n/a	4	36	Fixation	Neutral	True
350.066	0.25	Control	0.6757	0.004	Yes	2.68	-0.004	2.0	GoodResponse	0	0.195	349.261	4	36	Target	Neutral	True
350.261	0.3	Control	0.6757	0.004	Yes	2.68	-0.004	2.0	GoodResponse	0	0.195	n/a	4	36	ButtonPress	Neutral	True
350.317	0.45	Control	0.6757	n/a	Yes	2.68	n/a	n/a	GoodResponse	0	n/a	n/a	4	36	Blank	Neutral	True
350.768	1.45	Control	0.6757	n/a	Yes	2.68	n/a	5.0	GoodResponse	0	0.036	349.804	4	36	Feedback	Neutral	True
352.223	2.68	Control	0.6757	n/a	Yes	2.68	n/a	n/a	GoodResponse	0	0.0	n/a	4	36	ISIslide	Neutral	True
354.931	0.25	Win2	0.6842	0.0	Yes	2.869	0.031	n/a	GoodResponse	1	n/a	n/a	5	37	Cue	Win	True
355.181	4.0	Win2	0.6842	0.001	Yes	2.869	0.0	n/a	GoodResponse	1	n/a	n/a	5	37	Fixation	Win	True
359.177	0.24	Win2	0.6842	0.004	Yes	2.869	-0.004	2.0	GoodResponse	1	0.222	358.399	5	37	Target	Win	True
359.399	0.3	Win2	0.6842	0.004	Yes	2.869	-0.004	2.0	GoodResponse	1	0.222	n/a	5	37	ButtonPress	Win	True
359.427	0.46	Win2	0.6842	n/a	Yes	2.869	n/a	n/a	GoodResponse	1	n/a	n/a	5	37	Blank	Win	True
359.879	1.45	Win2	0.6842	n/a	Yes	2.869	n/a	5.0	GoodResponse	1	0.047	358.926	5	37	Feedback	Win	True
361.333	2.869	Win2	0.6842	n/a	Yes	2.869	n/a	n/a	GoodResponse	1	0.0	n/a	5	37	ISIslide	Win	True
364.225	0.25	Lose2	0.6667000000000001	0.0	No	2.825	0.025	n/a	NoResponse	-1	n/a	n/a	4	38	Cue	Loss	False
364.476	3.95	Lose2	0.6667000000000001	0.0	No	2.825	0.001	n/a	NoResponse	-1	n/a	n/a	4	38	Fixation	Loss	False
368.421	0.23	Lose2	0.6667000000000001	0.004	No	2.825	-0.004	n/a	NoResponse	-1	n/a	n/a	4	38	Target	Loss	False
368.655	0.47	Lose2	0.6667000000000001	n/a	No	2.825	n/a	n/a	NoResponse	-1	n/a	n/a	4	38	Blank	Loss	False
369.123	1.45	Lose2	0.6667000000000001	n/a	No	2.825	n/a	5.0	NoResponse	-1	0.022	368.145	4	38	Feedback	Loss	False
370.578	2.825	Lose2	0.6667000000000001	n/a	No	2.825	n/a	n/a	NoResponse	-1	0.0	n/a	4	38	ISIslide	Loss	False
373.419	0.25	Win2	0.675	0.001	Yes	2.981	0.019	n/a	GoodResponse	1	n/a	n/a	5	39	Cue	Win	True
373.67	4.1	Win2	0.675	0.0	Yes	2.981	0.001	n/a	GoodResponse	1	n/a	n/a	5	39	Fixation	Win	True
377.766	0.22	Win2	0.675	0.003	Yes	2.981	-0.003	2.0	GoodResponse	1	0.176	376.942	5	39	Target	Win	True
377.942	0.3	Win2	0.675	0.003	Yes	2.981	-0.003	2.0	GoodResponse	1	0.176	n/a	5	39	ButtonPress	Win	True
378	0.48	Win2	0.675	n/a	Yes	2.981	n/a	n/a	GoodResponse	1	n/a	n/a	5	39	Blank	Win	True
378.468	1.45	Win2	0.675	n/a	Yes	2.981	n/a	5.0	GoodResponse	1	0.043	377.511	5	39	Feedback	Win	True
379.922	2.981	Win2	0.675	n/a	Yes	2.981	n/a	n/a	GoodResponse	1	0.0	n/a	5	39	ISIslide	Win	True
382.915	0.25	Win2	0.6585	0.0	No	2.735	0.015	n/a	NoResponse	0	n/a	n/a	5	40	Cue	MissedWin	True
383.165	3.95	Win2	0.6585	0.0	No	2.735	0.0	n/a	NoResponse	0	n/a	n/a	5	40	Fixation	MissedWin	True
387.111	0.21	Win2	0.6585	0.004	No	2.735	-0.004	2.0	NoResponse	0	0.392	386.503	5	40	Target	MissedWin	True
387.328	0.49	Win2	0.6585	n/a	No	2.735	n/a	n/a	NoResponse	0	n/a	n/a	5	40	Blank	MissedWin	True
387.503	0.3	Win2	0.6585	0.004	No	2.735	-0.004	2.0	NoResponse	0	0.392	n/a	5	40	ButtonPress	MissedWin	True
387.813	1.45	Win2	0.6585	n/a	No	2.735	n/a	5.0	NoResponse	0	0.015	386.828	5	40	Feedback	MissedWin	True
389.267	2.735	Win2	0.6585	n/a	No	2.735	n/a	n/a	NoResponse	0	0.0	n/a	5	40	ISIslide	MissedWin	True
392.025	0.25	Win2	0.6429	0.0	No	2.775	0.025	n/a	NoResponse	0	n/a	n/a	5	41	Cue	MissedWin	False
392.276	3.9	Win2	0.6429	0.0	No	2.775	0.001	n/a	NoResponse	0	n/a	n/a	5	41	Fixation	MissedWin	False
396.171	0.21	Win2	0.6429	0.004	No	2.775	-0.004	n/a	NoResponse	0	n/a	n/a	5	41	Target	MissedWin	False
396.388	0.49	Win2	0.6429	n/a	No	2.775	n/a	n/a	NoResponse	0	n/a	n/a	5	41	Blank	MissedWin	False
396.873	1.45	Win2	0.6429	n/a	No	2.775	n/a	5.0	NoResponse	0	0.029	395.902	5	41	Feedback	MissedWin	False
398.328	2.775	Win2	0.6429	n/a	No	2.775	n/a	n/a	NoResponse	0	0.0	n/a	5	41	ISIslide	MissedWin	False
401.119	0.25	Control	0.6512	0.0	Yes	2.931	0.019	n/a	GoodResponse	0	n/a	n/a	5	42	Cue	Neutral	True
401.37	3.85	Control	0.6512	0.0	Yes	2.931	0.001	n/a	GoodResponse	0	n/a	n/a	5	42	Fixation	Neutral	True
405.215	0.22	Control	0.6512	0.004	Yes	2.931	-0.004	2.0	GoodResponse	0	0.182	404.397	5	42	Target	Neutral	True
405.397	0.3	Control	0.6512	0.004	Yes	2.931	-0.004	2.0	GoodResponse	0	0.182	n/a	5	42	ButtonPress	Neutral	True
405.449	0.48	Control	0.6512	n/a	Yes	2.931	n/a	n/a	GoodResponse	0	n/a	n/a	5	42	Blank	Neutral	True
405.917	1.45	Control	0.6512	n/a	Yes	2.931	n/a	5.0	GoodResponse	0	0.008	404.925	5	42	Feedback	Neutral	True
407.371	2.931	Control	0.6512	n/a	Yes	2.931	n/a	n/a	GoodResponse	0	0.0	n/a	5	42	ISIslide	Neutral	True
410.313	0.25	Win2	0.6364	0.001	No	3.187	0.013	n/a	NoResponse	0	n/a	n/a	5	43	Cue	MissedWin	True
410.564	4.0	Win2	0.6364	0.0	No	3.187	0.001	2.0	NoResponse	0	3.991	413.555	5	43	Fixation	MissedWin	True
414.555	0.3	Win2	0.6364	0.0	No	3.187	0.001	2.0	NoResponse	0	3.991	n/a	5	43	ButtonPress	MissedWin	True
414.56	0.23	Win2	0.6364	0.003	No	3.187	-0.003	n/a	NoResponse	0	n/a	n/a	5	43	Target	MissedWin	True
414.794	0.47	Win2	0.6364	n/a	No	3.187	n/a	n/a	NoResponse	0	n/a	n/a	5	43	Blank	MissedWin	True
415.262	1.45	Win2	0.6364	n/a	No	3.187	n/a	5.0	NoResponse	0	0.029	414.291	5	43	Feedback	MissedWin	True
416.716	3.187	Win2	0.6364	n/a	No	3.187	n/a	n/a	NoResponse	0	0.0	n/a	5	43	ISIslide	MissedWin	True
419.926	0.25	Win2	0.6444	0.0	Yes	2.974	0.026	n/a	GoodResponse	1	n/a	n/a	6	44	Cue	Win	True
420.176	4.0	Win2	0.6444	0.001	Yes	2.974	0.0	n/a	GoodResponse	1	n/a	n/a	6	44	Fixation	Win	True
424.172	0.24	Win2	0.6444	0.004	Yes	2.974	-0.004	2.0	GoodResponse	1	0.222	423.394	6	44	Target	Win	True
424.394	0.3	Win2	0.6444	0.004	Yes	2.974	-0.004	2.0	GoodResponse	1	0.222	n/a	6	44	ButtonPress	Win	True
424.422	0.46	Win2	0.6444	n/a	Yes	2.974	n/a	n/a	GoodResponse	1	n/a	n/a	6	44	Blank	Win	True
424.874	1.45	Win2	0.6444	n/a	Yes	2.974	n/a	5.0	GoodResponse	1	0.027	423.901	6	44	Feedback	Win	True
426.328	2.974	Win2	0.6444	n/a	Yes	2.974	n/a	n/a	GoodResponse	1	0.0	n/a	6	44	ISIslide	Win	True
429.321	0.25	Control	0.6522	0.0	Yes	2.879	0.021	n/a	GoodResponse	0	n/a	n/a	6	45	Cue	Neutral	True
429.571	4.1	Control	0.6522	0.0	Yes	2.879	0.0	n/a	GoodResponse	0	n/a	n/a	6	45	Fixation	Neutral	True
433.667	0.25	Control	0.6522	0.004	Yes	2.879	-0.004	2.0	GoodResponse	0	0.195	432.862	6	45	Target	Neutral	True
433.862	0.3	Control	0.6522	0.004	Yes	2.879	-0.004	2.0	GoodResponse	0	0.195	n/a	6	45	ButtonPress	Neutral	True
433.918	0.45	Control	0.6522	n/a	Yes	2.879	n/a	n/a	GoodResponse	0	n/a	n/a	6	45	Blank	Neutral	True
434.369	1.45	Control	0.6522	n/a	Yes	2.879	n/a	5.0	GoodResponse	0	0.044	433.413	6	45	Feedback	Neutral	True
435.823	2.879	Control	0.6522	n/a	Yes	2.879	n/a	n/a	GoodResponse	0	0.0	n/a	6	45	ISIslide	Neutral	True
438.715	0.25	Lose2	0.6596	0.0	Yes	3.385	0.015	n/a	GoodResponse	0	n/a	n/a	6	46	Cue	AvoidedLoss	True
438.966	4.0	Lose2	0.6596	0.0	Yes	3.385	0.001	n/a	GoodResponse	0	n/a	n/a	6	46	Fixation	AvoidedLoss	True
442.961	0.26	Lose2	0.6596	0.004	Yes	3.385	-0.004	2.0	GoodResponse	0	0.191	442.152	6	46	Target	AvoidedLoss	True
443.152	0.3	Lose2	0.6596	0.004	Yes	3.385	-0.004	2.0	GoodResponse	0	0.191	n/a	6	46	ButtonPress	AvoidedLoss	True
443.229	0.44	Lose2	0.6596	n/a	Yes	3.385	n/a	n/a	GoodResponse	0	n/a	n/a	6	46	Blank	AvoidedLoss	True
443.664	1.45	Lose2	0.6596	n/a	Yes	3.385	n/a	5.0	GoodResponse	0	0.018	442.682	6	46	Feedback	AvoidedLoss	True
445.118	3.385	Lose2	0.6596	n/a	Yes	3.385	n/a	n/a	GoodResponse	0	0.0	n/a	6	46	ISIslide	AvoidedLoss	True
448.528	0.25	Lose2	0.6667000000000001	0.0	Yes	2.672	0.028	n/a	GoodResponse	0	n/a	n/a	6	47	Cue	AvoidedLoss	True
448.779	4.0	Lose2	0.6667000000000001	0.0	Yes	2.672	0.001	n/a	GoodResponse	0	n/a	n/a	6	47	Fixation	AvoidedLoss	True
452.774	0.26	Lose2	0.6667000000000001	0.004	Yes	2.672	-0.004	2.0	GoodResponse	0	0.215	451.989	6	47	Target	AvoidedLoss	True
452.989	0.3	Lose2	0.6667000000000001	0.004	Yes	2.672	-0.004	2.0	GoodResponse	0	0.215	n/a	6	47	ButtonPress	AvoidedLoss	True
453.042	0.44	Lose2	0.6667000000000001	n/a	Yes	2.672	n/a	n/a	GoodResponse	0	n/a	n/a	6	47	Blank	AvoidedLoss	True
453.476	1.45	Lose2	0.6667000000000001	n/a	Yes	2.672	n/a	5.0	GoodResponse	0	0.011	452.487	6	47	Feedback	AvoidedLoss	True
454.931	2.672	Lose2	0.6667000000000001	n/a	Yes	2.672	n/a	n/a	GoodResponse	0	0.0	n/a	6	47	ISIslide	AvoidedLoss	True
457.622	0.25	Lose2	0.6531	0.0	No	3.028	0.022	n/a	NoResponse	-1	n/a	n/a	5	48	Cue	Loss	False
457.873	3.95	Lose2	0.6531	0.0	No	3.028	0.001	n/a	NoResponse	-1	n/a	n/a	5	48	Fixation	Loss	False
461.818	0.25	Lose2	0.6531	0.004	No	3.028	-0.004	n/a	NoResponse	-1	n/a	n/a	5	48	Target	Loss	False
462.069	0.45	Lose2	0.6531	n/a	No	3.028	n/a	n/a	NoResponse	-1	n/a	n/a	5	48	Blank	Loss	False
462.52	1.45	Lose2	0.6531	n/a	No	3.028	n/a	5.0	NoResponse	-1	0.04	461.56	5	48	Feedback	Loss	False
463.974	3.028	Lose2	0.6531	n/a	No	3.028	n/a	n/a	NoResponse	-1	0.0	n/a	5	48	ISIslide	Loss	False
467.017	0.25	Control	0.64	0.0	No	2.883	0.017	n/a	NoResponse	0	n/a	n/a	5	49	Cue	Neutral	True
467.268	4.0	Control	0.64	0.0	No	2.883	0.001	2.0	NoResponse	0	3.958	470.226	5	49	Fixation	Neutral	True
471.226	0.3	Control	0.64	0.0	No	2.883	0.001	2.0	NoResponse	0	3.958	n/a	5	49	ButtonPress	Neutral	True
471.263	0.26	Control	0.64	0.004	No	2.883	-0.004	n/a	NoResponse	0	n/a	n/a	5	49	Target	Neutral	True
471.53	0.44	Control	0.64	n/a	No	2.883	n/a	n/a	NoResponse	0	n/a	n/a	5	49	Blank	Neutral	True
471.965	1.45	Control	0.64	n/a	No	2.883	n/a	5.0	NoResponse	0	0.01	470.975	5	49	Feedback	Neutral	True
473.419	2.883	Control	0.64	n/a	No	2.883	n/a	n/a	NoResponse	0	0.0	n/a	5	49	ISIslide	Neutral	True
476.328	0.25	Control	0.6470999999999999	0.0	Yes	2.772	0.028	n/a	GoodResponse	0	n/a	n/a	5	50	Cue	Neutral	True
476.579	4.0	Control	0.6470999999999999	0.0	Yes	2.772	0.001	n/a	GoodResponse	0	n/a	n/a	5	50	Fixation	Neutral	True
480.574	0.27	Control	0.6470999999999999	0.004	Yes	2.772	-0.004	2.0	GoodResponse	0	0.213	479.787	5	50	Target	Neutral	True
480.787	0.3	Control	0.6470999999999999	0.004	Yes	2.772	-0.004	2.0	GoodResponse	0	0.213	n/a	5	50	ButtonPress	Neutral	True
480.858	0.43	Control	0.6470999999999999	n/a	Yes	2.772	n/a	n/a	GoodResponse	0	n/a	n/a	5	50	Blank	Neutral	True
481.276	1.45	Control	0.6470999999999999	n/a	Yes	2.772	n/a	5.0	GoodResponse	0	0.015	480.291	5	50	Feedback	Neutral	True
482.731	2.772	Control	0.6470999999999999	n/a	Yes	2.772	n/a	n/a	GoodResponse	0	0.0	n/a	5	50	ISIslide	Neutral	True
485.522	0.25	Control	0.6537999999999999	0.001	Yes	2.728	0.022	n/a	GoodResponse	0	n/a	n/a	5	51	Cue	Neutral	True
485.773	3.95	Control	0.6537999999999999	0.0	Yes	2.728	0.001	n/a	GoodResponse	0	n/a	n/a	5	51	Fixation	Neutral	True
489.718	0.28	Control	0.6537999999999999	0.004	Yes	2.728	-0.004	2.0	GoodResponse	0	0.191	488.909	5	51	Target	Neutral	True
489.909	0.3	Control	0.6537999999999999	0.004	Yes	2.728	-0.004	2.0	GoodResponse	0	0.191	n/a	5	51	ButtonPress	Neutral	True
490.003	0.42	Control	0.6537999999999999	n/a	Yes	2.728	n/a	n/a	GoodResponse	0	n/a	n/a	5	51	Blank	Neutral	True
490.42	1.45	Control	0.6537999999999999	n/a	Yes	2.728	n/a	5.0	GoodResponse	0	0.042	489.462	5	51	Feedback	Neutral	True
491.875	2.728	Control	0.6537999999999999	n/a	Yes	2.728	n/a	n/a	GoodResponse	0	0.0	n/a	5	51	ISIslide	Neutral	True
494.616	0.25	Control	0.6604000000000001	0.0	Yes	2.634	0.016	n/a	GoodResponse	0	n/a	n/a	5	52	Cue	Neutral	True
494.867	4.05	Control	0.6604000000000001	0.0	Yes	2.634	0.001	n/a	GoodResponse	0	n/a	n/a	5	52	Fixation	Neutral	True
498.913	0.29	Control	0.6604000000000001	0.003	Yes	2.634	-0.003	2.0	GoodResponse	0	0.211	498.124	5	52	Target	Neutral	True
499.124	0.3	Control	0.6604000000000001	0.003	Yes	2.634	-0.003	2.0	GoodResponse	0	0.211	n/a	5	52	ButtonPress	Neutral	True
499.214	0.41	Control	0.6604000000000001	n/a	Yes	2.634	n/a	n/a	GoodResponse	0	n/a	n/a	5	52	Blank	Neutral	True
499.615	1.45	Control	0.6604000000000001	n/a	Yes	2.634	n/a	5.0	GoodResponse	0	0.017	498.632	5	52	Feedback	Neutral	True
501.069	2.634	Control	0.6604000000000001	n/a	Yes	2.634	n/a	n/a	GoodResponse	0	0.0	n/a	5	52	ISIslide	Neutral	True
503.727	0.25	Win2	0.6667000000000001	0.0	Yes	2.923	0.027	n/a	GoodResponse	1	n/a	n/a	6	53	Cue	Win	False
503.978	4.05	Win2	0.6667000000000001	0.0	Yes	2.923	0.001	2.0	GoodResponse	1	3.31	506.288	6	53	Fixation	Win	False
507.288	0.3	Win2	0.6667000000000001	0.0	Yes	2.923	0.001	2.0	GoodResponse	1	3.31	n/a	6	53	ButtonPress	Win	False
508.023	0.29	Win2	0.6667000000000001	0.004	Yes	2.923	-0.004	2.0	GoodResponse	1	0.218	507.241	6	53	Target	Win	False
508.241	0.3	Win2	0.6667000000000001	0.004	Yes	2.923	-0.004	2.0	GoodResponse	1	0.218	n/a	6	53	ButtonPress	Win	False
508.324	0.41	Win2	0.6667000000000001	n/a	Yes	2.923	n/a	n/a	GoodResponse	1	n/a	n/a	6	53	Blank	Win	False
508.725	1.45	Win2	0.6667000000000001	n/a	Yes	2.923	n/a	5.0	GoodResponse	1	0.029	507.754	6	53	Feedback	Win	False
510.18	2.923	Win2	0.6667000000000001	n/a	Yes	2.923	n/a	n/a	GoodResponse	1	0.0	n/a	6	53	ISIslide	Win	False
513.122	0.25	Win2	0.6727	0.0	Yes	2.728	0.022	n/a	GoodResponse	1	n/a	n/a	7	54	Cue	Win	True
513.373	3.95	Win2	0.6727	0.0	Yes	2.728	0.001	n/a	GoodResponse	1	n/a	n/a	7	54	Fixation	Win	True
517.318	0.28	Win2	0.6727	0.004	Yes	2.728	-0.004	2.0	GoodResponse	1	0.249	516.567	7	54	Target	Win	True
517.567	0.3	Win2	0.6727	0.004	Yes	2.728	-0.004	2.0	GoodResponse	1	0.249	n/a	7	54	ButtonPress	Win	True
517.602	0.42	Win2	0.6727	n/a	Yes	2.728	n/a	n/a	GoodResponse	1	n/a	n/a	7	54	Blank	Win	True
518.02	1.45	Win2	0.6727	n/a	Yes	2.728	n/a	5.0	GoodResponse	1	0.004	517.024	7	54	Feedback	Win	True
519.474	2.728	Win2	0.6727	n/a	Yes	2.728	n/a	n/a	GoodResponse	1	0.0	n/a	7	54	ISIslide	Win	True
522.216	0.25	Control	0.6786	0.0	Yes	3.034	0.016	n/a	GoodResponse	0	n/a	n/a	7	55	Cue	Neutral	True
522.467	3.95	Control	0.6786	0.0	Yes	3.034	0.001	n/a	GoodResponse	0	n/a	n/a	7	55	Fixation	Neutral	True
526.412	0.27	Control	0.6786	0.004	Yes	3.034	-0.004	2.0	GoodResponse	0	0.212	525.624	7	55	Target	Neutral	True
526.624	0.3	Control	0.6786	0.004	Yes	3.034	-0.004	2.0	GoodResponse	0	0.212	n/a	7	55	ButtonPress	Neutral	True
526.696	0.43	Control	0.6786	n/a	Yes	3.034	n/a	n/a	GoodResponse	0	n/a	n/a	7	55	Blank	Neutral	True
527.114	1.45	Control	0.6786	n/a	Yes	3.034	n/a	5.0	GoodResponse	0	0.031	526.145	7	55	Feedback	Neutral	True
528.568	3.034	Control	0.6786	n/a	Yes	3.034	n/a	n/a	GoodResponse	0	0.0	n/a	7	55	ISIslide	Neutral	True
531.627	0.25	Control	0.6842	0.0	Yes	2.823	0.027	n/a	GoodResponse	0	n/a	n/a	7	56	Cue	Neutral	True
531.878	3.95	Control	0.6842	0.0	Yes	2.823	0.001	n/a	GoodResponse	0	n/a	n/a	7	56	Fixation	Neutral	True
535.823	0.26	Control	0.6842	0.004	Yes	2.823	-0.004	2.0	GoodResponse	0	0.189	535.012	7	56	Target	Neutral	True
536.012	0.3	Control	0.6842	0.004	Yes	2.823	-0.004	2.0	GoodResponse	0	0.189	n/a	7	56	ButtonPress	Neutral	True
536.091	0.44	Control	0.6842	n/a	Yes	2.823	n/a	n/a	GoodResponse	0	n/a	n/a	7	56	Blank	Neutral	True
536.525	1.45	Control	0.6842	n/a	Yes	2.823	n/a	5.0	GoodResponse	0	0.035	535.56	7	56	Feedback	Neutral	True
537.98	2.823	Control	0.6842	n/a	Yes	2.823	n/a	n/a	GoodResponse	0	0.0	n/a	7	56	ISIslide	Neutral	True
540.822	0.25	Control	0.6724	0.0	No	3.478	0.022	n/a	NoResponse	0	n/a	n/a	7	57	Cue	Neutral	True
541.072	4.0	Control	0.6724	0.001	No	3.478	0.0	n/a	NoResponse	0	n/a	n/a	7	57	Fixation	Neutral	True
545.068	0.25	Control	0.6724	0.004	No	3.478	-0.004	2.0	NoResponse	0	0.273	544.341	7	57	Target	Neutral	True
545.318	0.45	Control	0.6724	n/a	No	3.478	n/a	n/a	NoResponse	0	n/a	n/a	7	57	Blank	Neutral	True
545.341	0.3	Control	0.6724	0.004	No	3.478	-0.004	2.0	NoResponse	0	0.273	n/a	7	57	ButtonPress	Neutral	True
545.77	1.45	Control	0.6724	n/a	No	3.478	n/a	5.0	NoResponse	0	0.009	544.779	7	57	Feedback	Neutral	True
547.224	3.478	Control	0.6724	n/a	No	3.478	n/a	n/a	NoResponse	0	0.0	n/a	7	57	ISIslide	Neutral	True
550.718	0.25	Win2	0.6779999999999999	0.0	Yes	2.732	0.018	n/a	GoodResponse	1	n/a	n/a	8	58	Cue	Win	True
550.969	4.05	Win2	0.6779999999999999	0.0	Yes	2.732	0.001	n/a	GoodResponse	1	n/a	n/a	8	58	Fixation	Win	True
555.014	0.24	Win2	0.6779999999999999	0.004	Yes	2.732	-0.004	2.0	GoodResponse	1	0.183	554.197	8	58	Target	Win	True
555.197	0.3	Win2	0.6779999999999999	0.004	Yes	2.732	-0.004	2.0	GoodResponse	1	0.183	n/a	8	58	ButtonPress	Win	True
555.265	0.46	Win2	0.6779999999999999	n/a	Yes	2.732	n/a	n/a	GoodResponse	1	n/a	n/a	8	58	Blank	Win	True
555.716	1.45	Win2	0.6779999999999999	n/a	Yes	2.732	n/a	5.0	GoodResponse	1	0.014	554.73	8	58	Feedback	Win	True
557.171	2.732	Win2	0.6779999999999999	n/a	Yes	2.732	n/a	n/a	GoodResponse	1	0.0	n/a	8	58	ISIslide	Win	True
559.929	0.25	Lose2	0.6833	0.0	Yes	2.671	0.029	n/a	GoodResponse	0	n/a	n/a	8	59	Cue	AvoidedLoss	True
560.18	4.0	Lose2	0.6833	0.0	Yes	2.671	0.001	n/a	GoodResponse	0	n/a	n/a	8	59	Fixation	AvoidedLoss	True
564.175	0.23	Lose2	0.6833	0.004	Yes	2.671	-0.004	2.0	GoodResponse	0	0.181	563.356	8	59	Target	AvoidedLoss	True
564.356	0.3	Lose2	0.6833	0.004	Yes	2.671	-0.004	2.0	GoodResponse	0	0.181	n/a	8	59	ButtonPress	AvoidedLoss	True
564.409	0.47	Lose2	0.6833	n/a	Yes	2.671	n/a	n/a	GoodResponse	0	n/a	n/a	8	59	Blank	AvoidedLoss	True
564.877	1.45	Lose2	0.6833	n/a	Yes	2.671	n/a	5.0	GoodResponse	0	0.023	563.9	8	59	Feedback	AvoidedLoss	True
566.332	2.671	Lose2	0.6833	n/a	Yes	2.671	n/a	n/a	GoodResponse	0	0.0	n/a	8	59	ISIslide	AvoidedLoss	True
569.023	0.25	Control	0.6720999999999999	0.0	No	2.677	0.023	n/a	LatePress	0	n/a	n/a	8	60	Cue	Neutral	True
569.274	4.0	Control	0.6720999999999999	0.0	No	2.677	0.001	n/a	LatePress	0	n/a	n/a	8	60	Fixation	Neutral	True
573.269	0.22	Control	0.6720999999999999	0.004	No	2.677	-0.004	2.0	LatePress	0	0.223	572.492	8	60	Target	Neutral	True
573.492	0.3	Control	0.6720999999999999	0.004	No	2.677	-0.004	2.0	LatePress	0	0.223	n/a	8	60	ButtonPress	Neutral	True
573.503	0.48	Control	0.6720999999999999	n/a	No	2.677	n/a	n/a	LatePress	0	n/a	n/a	8	60	Blank	Neutral	True
573.971	1.45	Control	0.6720999999999999	n/a	No	2.677	n/a	5.0	LatePress	0	0.004	572.975	8	60	Feedback	Neutral	True
575.425	2.677	Control	0.6720999999999999	n/a	No	2.677	n/a	n/a	LatePress	0	0.0	n/a	8	60	ISIslide	Neutral	True
578.117	0.25	Lose2	0.6613	0.0	No	2.983	0.017	n/a	LatePress	-1	n/a	n/a	7	61	Cue	Loss	True
578.368	4.0	Lose2	0.6613	0.0	No	2.983	0.001	n/a	LatePress	-1	n/a	n/a	7	61	Fixation	Loss	True
582.363	0.21	Lose2	0.6613	0.004	No	2.983	-0.004	2.0	LatePress	-1	0.212	581.575	7	61	Target	Loss	True
582.575	0.3	Lose2	0.6613	0.004	No	2.983	-0.004	2.0	LatePress	-1	0.212	n/a	7	61	ButtonPress	Loss	True
582.58	0.49	Lose2	0.6613	n/a	No	2.983	n/a	n/a	LatePress	-1	n/a	n/a	7	61	Blank	Loss	True
583.065	1.45	Lose2	0.6613	n/a	No	2.983	n/a	5.0	LatePress	-1	0.031	582.096	7	61	Feedback	Loss	True
584.519	2.983	Lose2	0.6613	n/a	No	2.983	n/a	n/a	LatePress	-1	0.0	n/a	7	61	ISIslide	Loss	True
587.528	0.25	Lose2	0.6667000000000001	0.001	Yes	2.872	0.028	n/a	GoodResponse	0	n/a	n/a	7	62	Cue	AvoidedLoss	True
587.779	3.9	Lose2	0.6667000000000001	0.0	Yes	2.872	0.001	n/a	GoodResponse	0	n/a	n/a	7	62	Fixation	AvoidedLoss	True
591.674	0.21	Lose2	0.6667000000000001	0.004	Yes	2.872	-0.004	2.0	GoodResponse	0	0.185	590.859	7	62	Target	AvoidedLoss	True
591.859	0.3	Lose2	0.6667000000000001	0.004	Yes	2.872	-0.004	2.0	GoodResponse	0	0.185	n/a	7	62	ButtonPress	AvoidedLoss	True
591.892	0.49	Lose2	0.6667000000000001	n/a	Yes	2.872	n/a	n/a	GoodResponse	0	n/a	n/a	7	62	Blank	AvoidedLoss	True
592.376	1.45	Lose2	0.6667000000000001	n/a	Yes	2.872	n/a	5.0	GoodResponse	0	0.037	591.413	7	62	Feedback	AvoidedLoss	True
593.831	2.872	Lose2	0.6667000000000001	n/a	Yes	2.872	n/a	n/a	GoodResponse	0	0.0	n/a	7	62	ISIslide	AvoidedLoss	True
596.723	0.25	Lose2	0.6718999999999999	0.0	Yes	2.627	0.023	n/a	GoodResponse	0	n/a	n/a	7	63	Cue	AvoidedLoss	True
596.973	4.05	Lose2	0.6718999999999999	0.001	Yes	2.627	0.0	n/a	GoodResponse	0	n/a	n/a	7	63	Fixation	AvoidedLoss	True
601.019	0.2	Lose2	0.6718999999999999	0.004	Yes	2.627	-0.004	2.0	GoodResponse	0	0.187	600.206	7	63	Target	AvoidedLoss	True
601.206	0.3	Lose2	0.6718999999999999	0.004	Yes	2.627	-0.004	2.0	GoodResponse	0	0.187	n/a	7	63	ButtonPress	AvoidedLoss	True
601.22	0.5	Lose2	0.6718999999999999	n/a	Yes	2.627	n/a	n/a	GoodResponse	0	n/a	n/a	7	63	Blank	AvoidedLoss	True
601.721	1.45	Lose2	0.6718999999999999	n/a	Yes	2.627	n/a	5.0	GoodResponse	0	0.009	600.73	7	63	Feedback	AvoidedLoss	True
603.175	2.627	Lose2	0.6718999999999999	n/a	Yes	2.627	n/a	n/a	GoodResponse	0	0.0	n/a	7	63	ISIslide	AvoidedLoss	True
605.817	0.25	Win2	0.6615000000000001	0.0	No	3.133	0.017	n/a	LatePress	0	n/a	n/a	7	64	Cue	MissedWin	True
606.067	4.15	Win2	0.6615000000000001	0.0	No	3.133	0.0	n/a	LatePress	0	n/a	n/a	7	64	Fixation	MissedWin	True
610.213	0.19	Win2	0.6615000000000001	0.004	No	3.133	-0.004	2.0	LatePress	0	0.195	609.408	7	64	Target	MissedWin	True
610.408	0.3	Win2	0.6615000000000001	0.004	No	3.133	-0.004	2.0	LatePress	0	0.195	n/a	7	64	ButtonPress	MissedWin	True
610.414	0.51	Win2	0.6615000000000001	n/a	No	3.133	n/a	n/a	LatePress	0	n/a	n/a	7	64	Blank	MissedWin	True
610.915	1.45	Win2	0.6615000000000001	n/a	No	3.133	n/a	5.0	LatePress	0	0.035	609.95	7	64	Feedback	MissedWin	True
612.37	3.133	Win2	0.6615000000000001	n/a	No	3.133	n/a	n/a	LatePress	0	0.0	n/a	7	64	ISIslide	MissedWin	True
615.529	0.25	Control	0.6515000000000001	0.0	No	2.771	0.029	n/a	LatePress	0	n/a	n/a	7	65	Cue	Neutral	True
615.78	4.0	Control	0.6515000000000001	0.0	No	2.771	0.001	n/a	LatePress	0	n/a	n/a	7	65	Fixation	Neutral	True
619.775	0.19	Control	0.6515000000000001	0.004	No	2.771	-0.004	2.0	LatePress	0	0.198	618.973	7	65	Target	Neutral	True
619.973	0.3	Control	0.6515000000000001	0.004	No	2.771	-0.004	2.0	LatePress	0	0.198	n/a	7	65	ButtonPress	Neutral	True
619.976	0.51	Control	0.6515000000000001	n/a	No	2.771	n/a	n/a	LatePress	0	n/a	n/a	7	65	Blank	Neutral	True
620.477	1.45	Control	0.6515000000000001	n/a	No	2.771	n/a	5.0	LatePress	0	0.034	619.511	7	65	Feedback	Neutral	True
621.932	2.771	Control	0.6515000000000001	n/a	No	2.771	n/a	n/a	LatePress	0	0.0	n/a	7	65	ISIslide	Neutral	True
624.723	0.25	Win2	0.6567000000000001	0.0	Yes	2.777	0.023	n/a	GoodResponse	1	n/a	n/a	8	66	Cue	Win	True
624.974	3.9	Win2	0.6567000000000001	0.0	Yes	2.777	0.001	n/a	GoodResponse	1	n/a	n/a	8	66	Fixation	Win	True
628.869	0.2	Win2	0.6567000000000001	0.004	Yes	2.777	-0.004	2.0	GoodResponse	1	0.185	628.054	8	66	Target	Win	True
629.054	0.3	Win2	0.6567000000000001	0.004	Yes	2.777	-0.004	2.0	GoodResponse	1	0.185	n/a	8	66	ButtonPress	Win	True
629.07	0.5	Win2	0.6567000000000001	n/a	Yes	2.777	n/a	n/a	GoodResponse	1	n/a	n/a	8	66	Blank	Win	True
629.571	1.45	Win2	0.6567000000000001	n/a	Yes	2.777	n/a	5.0	GoodResponse	1	0.012	628.583	8	66	Feedback	Win	True
631.026	2.777	Win2	0.6567000000000001	n/a	Yes	2.777	n/a	n/a	GoodResponse	1	0.0	n/a	8	66	ISIslide	Win	True
633.817	0.25	Control	0.6470999999999999	0.0	No	2.733	0.017	n/a	LatePress	0	n/a	n/a	8	67	Cue	Neutral	True
634.068	3.95	Control	0.6470999999999999	0.0	No	2.733	0.001	n/a	LatePress	0	n/a	n/a	8	67	Fixation	Neutral	True
638.013	0.2	Control	0.6470999999999999	0.004	No	2.733	-0.004	2.0	LatePress	0	0.201	637.214	8	67	Target	Neutral	True
638.214	0.5	Control	0.6470999999999999	n/a	No	2.733	n/a	n/a	LatePress	0	n/a	n/a	8	67	Blank	Neutral	True
638.214	0.3	Control	0.6470999999999999	0.004	No	2.733	-0.004	2.0	LatePress	0	0.201	n/a	8	67	ButtonPress	Neutral	True
638.715	1.45	Control	0.6470999999999999	n/a	No	2.733	n/a	5.0	LatePress	0	0.039	637.754	8	67	Feedback	Neutral	True
640.17	2.733	Control	0.6470999999999999	n/a	No	2.733	n/a	n/a	LatePress	0	0.0	n/a	8	67	ISIslide	Neutral	True
642.928	0.25	Win2	0.6522	0.0	Yes	3.072	0.028	n/a	GoodResponse	1	n/a	n/a	9	68	Cue	Win	True
643.179	4.0	Win2	0.6522	0.0	Yes	3.072	0.001	n/a	GoodResponse	1	n/a	n/a	9	68	Fixation	Win	True
647.174	0.21	Win2	0.6522	0.004	Yes	3.072	-0.004	2.0	GoodResponse	1	0.17	646.344	9	68	Target	Win	True
647.344	0.3	Win2	0.6522	0.004	Yes	3.072	-0.004	2.0	GoodResponse	1	0.17	n/a	9	68	ButtonPress	Win	True
647.391	0.49	Win2	0.6522	n/a	Yes	3.072	n/a	n/a	GoodResponse	1	n/a	n/a	9	68	Blank	Win	True
647.876	1.45	Win2	0.6522	n/a	Yes	3.072	n/a	5.0	GoodResponse	1	0.049	646.925	9	68	Feedback	Win	True
649.33	3.072	Win2	0.6522	n/a	Yes	3.072	n/a	n/a	GoodResponse	1	0.0	n/a	9	68	ISIslide	Win	True
652.423	0.25	Win2	0.6570999999999999	0.0	Yes	3.227	0.023	n/a	GoodResponse	1	n/a	n/a	10	69	Cue	Win	True
652.674	3.95	Win2	0.6570999999999999	0.0	Yes	3.227	0.001	n/a	GoodResponse	1	n/a	n/a	10	69	Fixation	Win	True
656.619	0.22	Win2	0.6570999999999999	0.004	Yes	3.227	-0.004	2.0	GoodResponse	1	0.181	655.8	10	69	Target	Win	True
656.8	0.3	Win2	0.6570999999999999	0.004	Yes	3.227	-0.004	2.0	GoodResponse	1	0.181	n/a	10	69	ButtonPress	Win	True
656.853	0.48	Win2	0.6570999999999999	n/a	Yes	3.227	n/a	n/a	GoodResponse	1	n/a	n/a	10	69	Blank	Win	True
657.321	1.45	Win2	0.6570999999999999	n/a	Yes	3.227	n/a	5.0	GoodResponse	1	0.018	656.339	10	69	Feedback	Win	True
658.775	3.227	Win2	0.6570999999999999	n/a	Yes	3.227	n/a	n/a	GoodResponse	1	0.0	n/a	10	69	ISIslide	Win	True
662.019	0.25	Lose2	0.6479	0.0	No	3.031	0.019	n/a	LatePress	-1	n/a	n/a	9	70	Cue	Loss	True
662.269	4.05	Lose2	0.6479	0.0	No	3.031	0.0	n/a	LatePress	-1	n/a	n/a	9	70	Fixation	Loss	True
666.315	0.22	Lose2	0.6479	0.004	No	3.031	-0.004	2.0	LatePress	-1	0.227	665.542	9	70	Target	Loss	True
666.542	0.3	Lose2	0.6479	0.004	No	3.031	-0.004	2.0	LatePress	-1	0.227	n/a	9	70	ButtonPress	Loss	True
666.549	0.48	Lose2	0.6479	n/a	No	3.031	n/a	n/a	LatePress	-1	n/a	n/a	9	70	Blank	Loss	True
667.017	1.45	Lose2	0.6479	n/a	No	3.031	n/a	5.0	LatePress	-1	0.03	666.047	9	70	Feedback	Loss	True
668.471	3.031	Lose2	0.6479	n/a	No	3.031	n/a	n/a	LatePress	-1	0.0	n/a	9	70	ISIslide	Loss	True
671.514	0.25	Win2	0.6528	0.0	Yes	2.736	0.014	n/a	GoodResponse	1	n/a	n/a	10	71	Cue	Win	True
671.764	4.05	Win2	0.6528	0.001	Yes	2.736	0.0	n/a	GoodResponse	1	n/a	n/a	10	71	Fixation	Win	True
675.81	0.23	Win2	0.6528	0.004	Yes	2.736	-0.004	2.0	GoodResponse	1	0.119	674.929	10	71	Target	Win	True
675.929	0.3	Win2	0.6528	0.004	Yes	2.736	-0.004	2.0	GoodResponse	1	0.119	n/a	10	71	ButtonPress	Win	True
676.044	0.47	Win2	0.6528	n/a	Yes	2.736	n/a	n/a	GoodResponse	1	n/a	n/a	10	71	Blank	Win	True
676.512	1.45	Win2	0.6528	n/a	Yes	2.736	n/a	5.0	GoodResponse	1	0.047	675.559	10	71	Feedback	Win	True
677.966	2.736	Win2	0.6528	n/a	Yes	2.736	n/a	n/a	GoodResponse	1	0.0	n/a	10	71	ISIslide	Win	True
680.725	0.25	Win2	0.6575	0.0	Yes	2.775	0.025	n/a	GoodResponse	1	n/a	n/a	11	72	Cue	Win	True
680.975	4.1	Win2	0.6575	0.001	Yes	2.775	0.0	n/a	GoodResponse	1	n/a	n/a	11	72	Fixation	Win	True
685.071	0.24	Win2	0.6575	0.004	Yes	2.775	-0.004	2.0	GoodResponse	1	0.206	684.277	11	72	Target	Win	True
685.277	0.3	Win2	0.6575	0.004	Yes	2.775	-0.004	2.0	GoodResponse	1	0.206	n/a	11	72	ButtonPress	Win	True
685.322	0.46	Win2	0.6575	n/a	Yes	2.775	n/a	n/a	GoodResponse	1	n/a	n/a	11	72	Blank	Win	True
685.773	1.45	Win2	0.6575	n/a	Yes	2.775	n/a	5.0	GoodResponse	1	0.006	684.779	11	72	Feedback	Win	True
687.228	2.775	Win2	0.6575	n/a	Yes	2.775	n/a	n/a	GoodResponse	1	0.0	n/a	11	72	ISIslide	Win	True
690.019	0.25	Win2	0.6486	0.0	No	2.681	0.019	n/a	LatePress	0	n/a	n/a	11	73	Cue	MissedWin	False
690.27	4.0	Win2	0.6486	0.0	No	2.681	0.001	2.0	LatePress	0	3.789	693.059	11	73	Fixation	MissedWin	False
694.059	0.3	Win2	0.6486	0.0	No	2.681	0.001	2.0	LatePress	0	3.789	n/a	11	73	ButtonPress	MissedWin	False
694.265	0.24	Win2	0.6486	0.004	No	2.681	-0.004	2.0	LatePress	0	0.245	693.51	11	73	Target	MissedWin	False
694.51	0.3	Win2	0.6486	0.004	No	2.681	-0.004	2.0	LatePress	0	0.245	n/a	11	73	ButtonPress	MissedWin	False
694.516	0.46	Win2	0.6486	n/a	No	2.681	n/a	n/a	LatePress	0	n/a	n/a	11	73	Blank	MissedWin	False
694.967	1.45	Win2	0.6486	n/a	No	2.681	n/a	5.0	LatePress	0	0.03	693.997	11	73	Feedback	MissedWin	False
696.422	2.681	Win2	0.6486	n/a	No	2.681	n/a	n/a	LatePress	0	0.0	n/a	11	73	ISIslide	MissedWin	False
699.113	0.25	Lose2	0.6533	0.0	Yes	2.637	0.013	n/a	GoodResponse	0	n/a	n/a	11	74	Cue	AvoidedLoss	True
699.364	4.05	Lose2	0.6533	0.0	Yes	2.637	0.001	n/a	GoodResponse	0	n/a	n/a	11	74	Fixation	AvoidedLoss	True
703.409	0.25	Lose2	0.6533	0.004	Yes	2.637	-0.004	2.0	GoodResponse	0	0.187	702.596	11	74	Target	AvoidedLoss	True
703.596	0.3	Lose2	0.6533	0.004	Yes	2.637	-0.004	2.0	GoodResponse	0	0.187	n/a	11	74	ButtonPress	AvoidedLoss	True
703.66	0.45	Lose2	0.6533	n/a	Yes	2.637	n/a	n/a	GoodResponse	0	n/a	n/a	11	74	Blank	AvoidedLoss	True
704.111	1.45	Lose2	0.6533	n/a	Yes	2.637	n/a	5.0	GoodResponse	0	0.008	703.119	11	74	Feedback	AvoidedLoss	True
705.566	2.637	Lose2	0.6533	n/a	Yes	2.637	n/a	n/a	GoodResponse	0	0.0	n/a	11	74	ISIslide	AvoidedLoss	True
708.224	0.25	Lose2	0.6579	0.0	Yes	2.926	0.024	n/a	GoodResponse	0	n/a	n/a	11	75	Cue	AvoidedLoss	True
708.475	3.95	Lose2	0.6579	0.0	Yes	2.926	0.001	n/a	GoodResponse	0	n/a	n/a	11	75	Fixation	AvoidedLoss	True
712.42	0.26	Lose2	0.6579	0.004	Yes	2.926	-0.004	2.0	GoodResponse	0	0.198	711.618	11	75	Target	AvoidedLoss	True
712.618	0.3	Lose2	0.6579	0.004	Yes	2.926	-0.004	2.0	GoodResponse	0	0.198	n/a	11	75	ButtonPress	AvoidedLoss	True
712.687	0.44	Lose2	0.6579	n/a	Yes	2.926	n/a	n/a	GoodResponse	0	n/a	n/a	11	75	Blank	AvoidedLoss	True
713.122	1.45	Lose2	0.6579	n/a	Yes	2.926	n/a	5.0	GoodResponse	0	0.022	712.144	11	75	Feedback	AvoidedLoss	True
714.576	2.926	Lose2	0.6579	n/a	Yes	2.926	n/a	n/a	GoodResponse	0	0.0	n/a	11	75	ISIslide	AvoidedLoss	True
717.518	0.25	Control	0.6623	0.0	Yes	3.232	0.018	n/a	GoodResponse	0	n/a	n/a	11	76	Cue	Neutral	True
717.769	4.05	Control	0.6623	0.0	Yes	3.232	0.001	n/a	GoodResponse	0	n/a	n/a	11	76	Fixation	Neutral	True
721.815	0.26	Control	0.6623	0.003	Yes	3.232	-0.003	2.0	GoodResponse	0	0.187	721.002	11	76	Target	Neutral	True
722.002	0.3	Control	0.6623	0.003	Yes	3.232	-0.003	2.0	GoodResponse	0	0.187	n/a	11	76	ButtonPress	Neutral	True
722.082	0.44	Control	0.6623	n/a	Yes	3.232	n/a	n/a	GoodResponse	0	n/a	n/a	11	76	Blank	Neutral	True
722.517	1.45	Control	0.6623	n/a	Yes	3.232	n/a	5.0	GoodResponse	0	0.042	721.559	11	76	Feedback	Neutral	True
723.971	3.232	Control	0.6623	n/a	Yes	3.232	n/a	n/a	GoodResponse	0	0.0	n/a	11	76	ISIslide	Neutral	True
727.214	0.25	Lose2	0.6667000000000001	0.0	Yes	2.586	0.014	n/a	GoodResponse	0	n/a	n/a	11	77	Cue	AvoidedLoss	True
727.465	3.95	Lose2	0.6667000000000001	0.0	Yes	2.586	0.001	n/a	GoodResponse	0	n/a	n/a	11	77	Fixation	AvoidedLoss	True
731.41	0.26	Lose2	0.6667000000000001	0.004	Yes	2.586	-0.004	2.0	GoodResponse	0	0.226	730.636	11	77	Target	AvoidedLoss	True
731.636	0.3	Lose2	0.6667000000000001	0.004	Yes	2.586	-0.004	2.0	GoodResponse	0	0.226	n/a	11	77	ButtonPress	AvoidedLoss	True
731.678	0.44	Lose2	0.6667000000000001	n/a	Yes	2.586	n/a	n/a	GoodResponse	0	n/a	n/a	11	77	Blank	AvoidedLoss	True
732.112	1.45	Lose2	0.6667000000000001	n/a	Yes	2.586	n/a	5.0	GoodResponse	0	0.008	731.12	11	77	Feedback	AvoidedLoss	True
733.567	2.586	Lose2	0.6667000000000001	n/a	Yes	2.586	n/a	n/a	GoodResponse	0	0.0	n/a	11	77	ISIslide	AvoidedLoss	True
