onset	duration	cue_type	current_mean_accuracy	duration_error	is_hit	isi_adjusted	onset_delay	response	response_type	reward	rt	rt_time	total_reward	trial_number	trial_phase	trial_type	one_press
11.103	0.25	Control	1.0	0.0	Yes	2.947	0.003	n/a	GoodResponse	0	n/a	n/a	0	0	Cue	Neutral	True
11.354	3.85	Control	1.0	0.0	Yes	2.947	0.001	n/a	GoodResponse	0	n/a	n/a	0	0	Fixation	Neutral	True
15.199	0.4	Control	1.0	0.004	Yes	2.947	-0.004	3.0	GoodResponse	0	0.19	14.389	0	0	Target	Neutral	True
15.389	0.3	Control	1.0	0.004	Yes	2.947	-0.004	3.0	GoodResponse	0	0.19	n/a	0	0	ButtonPress	Neutral	True
15.6	0.3	Control	1.0	n/a	Yes	2.947	n/a	n/a	GoodResponse	0	n/a	n/a	0	0	Blank	Neutral	True
15.901	1.45	Control	1.0	n/a	Yes	2.947	n/a	5.0	GoodResponse	0	0.025	14.926	0	0	Feedback	Neutral	True
17.355	2.947	Control	1.0	n/a	Yes	2.947	n/a	n/a	GoodResponse	0	0.0	n/a	0	0	ISIslide	Neutral	True
20.314	0.25	Lose2	1.0	0.0	Yes	2.786	0.014	n/a	GoodResponse	0	n/a	n/a	0	1	Cue	AvoidedLoss	True
20.565	4.0	Lose2	1.0	0.0	Yes	2.786	0.001	n/a	GoodResponse	0	n/a	n/a	0	1	Fixation	AvoidedLoss	True
24.56	0.39	Lose2	1.0	0.004	Yes	2.786	-0.004	3.0	GoodResponse	0	0.187	23.747	0	1	Target	AvoidedLoss	True
24.747	0.3	Lose2	1.0	0.004	Yes	2.786	-0.004	3.0	GoodResponse	0	0.187	n/a	0	1	ButtonPress	AvoidedLoss	True
24.961	0.31	Lose2	1.0	n/a	Yes	2.786	n/a	n/a	GoodResponse	0	n/a	n/a	0	1	Blank	AvoidedLoss	True
25.262	1.45	Lose2	1.0	n/a	Yes	2.786	n/a	5.0	GoodResponse	0	0.03	24.292	0	1	Feedback	AvoidedLoss	True
26.716	2.786	Lose2	1.0	n/a	Yes	2.786	n/a	n/a	GoodResponse	0	0.0	n/a	0	1	ISIslide	AvoidedLoss	True
29.525	0.25	Control	1.0	0.0	Yes	2.575	0.025	n/a	GoodResponse	0	n/a	n/a	0	2	Cue	Neutral	True
29.776	4.1	Control	1.0	0.0	Yes	2.575	0.001	n/a	GoodResponse	0	n/a	n/a	0	2	Fixation	Neutral	True
33.871	0.38	Control	1.0	0.004	Yes	2.575	-0.004	3.0	GoodResponse	0	0.182	33.053	0	2	Target	Neutral	True
34.053	0.3	Control	1.0	0.004	Yes	2.575	-0.004	3.0	GoodResponse	0	0.182	n/a	0	2	ButtonPress	Neutral	True
34.256	0.32	Control	1.0	n/a	Yes	2.575	n/a	n/a	GoodResponse	0	n/a	n/a	0	2	Blank	Neutral	True
34.573	1.45	Control	1.0	n/a	Yes	2.575	n/a	5.0	GoodResponse	0	0.036	33.609	0	2	Feedback	Neutral	True
36.028	2.575	Control	1.0	n/a	Yes	2.575	n/a	n/a	GoodResponse	0	0.0	n/a	0	2	ISIslide	Neutral	True
38.619	0.25	Win2	1.0	0.0	Yes	2.831	0.019	n/a	GoodResponse	1	n/a	n/a	1	3	Cue	Win	True
38.869	3.95	Win2	1.0	0.001	Yes	2.831	0.0	n/a	GoodResponse	1	n/a	n/a	1	3	Fixation	Win	True
42.815	0.37	Win2	1.0	0.004	Yes	2.831	-0.004	3.0	GoodResponse	1	0.171	41.986	1	3	Target	Win	True
42.986	0.3	Win2	1.0	0.004	Yes	2.831	-0.004	3.0	GoodResponse	1	0.171	n/a	1	3	ButtonPress	Win	True
43.199	0.33	Win2	1.0	n/a	Yes	2.831	n/a	n/a	GoodResponse	1	n/a	n/a	1	3	Blank	Win	True
43.517	1.45	Win2	1.0	n/a	Yes	2.831	n/a	5.0	GoodResponse	1	0.019	42.536	1	3	Feedback	Win	True
44.971	2.831	Win2	1.0	n/a	Yes	2.831	n/a	n/a	GoodResponse	1	0.0	n/a	1	3	ISIslide	Win	True
47.83	0.25	Win2	1.0	0.0	Yes	3.27	0.03	n/a	GoodResponse	1	n/a	n/a	2	4	Cue	Win	True
48.08	4.0	Win2	1.0	0.0	Yes	3.27	0.0	n/a	GoodResponse	1	n/a	n/a	2	4	Fixation	Win	True
52.076	0.36	Win2	1.0	0.004	Yes	3.27	-0.004	3.0	GoodResponse	1	0.188	51.264	2	4	Target	Win	True
52.264	0.3	Win2	1.0	0.004	Yes	3.27	-0.004	3.0	GoodResponse	1	0.188	n/a	2	4	ButtonPress	Win	True
52.443	0.34	Win2	1.0	n/a	Yes	3.27	n/a	n/a	GoodResponse	1	n/a	n/a	2	4	Blank	Win	True
52.778	1.45	Win2	1.0	n/a	Yes	3.27	n/a	5.0	GoodResponse	1	0.025	51.803	2	4	Feedback	Win	True
54.232	3.27	Win2	1.0	n/a	Yes	3.27	n/a	n/a	GoodResponse	1	0.0	n/a	2	4	ISIslide	Win	True
57.525	0.25	Win2	1.0	0.0	Yes	2.775	0.025	n/a	GoodResponse	1	n/a	n/a	3	5	Cue	Win	True
57.776	4.0	Win2	1.0	0.0	Yes	2.775	0.001	n/a	GoodResponse	1	n/a	n/a	3	5	Fixation	Win	True
61.771	0.35	Win2	1.0	0.004	Yes	2.775	-0.004	3.0	GoodResponse	1	0.176	60.947	3	5	Target	Win	True
61.947	0.3	Win2	1.0	0.004	Yes	2.775	-0.004	3.0	GoodResponse	1	0.176	n/a	3	5	ButtonPress	Win	True
62.122	0.35	Win2	1.0	n/a	Yes	2.775	n/a	n/a	GoodResponse	1	n/a	n/a	3	5	Blank	Win	True
62.473	1.45	Win2	1.0	n/a	Yes	2.775	n/a	5.0	GoodResponse	1	0.038	61.511	3	5	Feedback	Win	True
63.928	2.775	Win2	1.0	n/a	Yes	2.775	n/a	n/a	GoodResponse	1	0.0	n/a	3	5	ISIslide	Win	True
66.719	0.25	Lose2	1.0	0.001	Yes	2.731	0.019	n/a	GoodResponse	0	n/a	n/a	3	6	Cue	AvoidedLoss	True
66.97	3.95	Lose2	1.0	0.0	Yes	2.731	0.001	n/a	GoodResponse	0	n/a	n/a	3	6	Fixation	AvoidedLoss	True
70.915	0.34	Lose2	1.0	0.004	Yes	2.731	-0.004	3.0	GoodResponse	0	0.219	70.134	3	6	Target	AvoidedLoss	True
71.134	0.3	Lose2	1.0	0.004	Yes	2.731	-0.004	3.0	GoodResponse	0	0.219	n/a	3	6	ButtonPress	AvoidedLoss	True
71.266	0.36	Lose2	1.0	n/a	Yes	2.731	n/a	n/a	GoodResponse	0	n/a	n/a	3	6	Blank	AvoidedLoss	True
71.617	1.45	Lose2	1.0	n/a	Yes	2.731	n/a	5.0	GoodResponse	0	0.016	70.633	3	6	Feedback	AvoidedLoss	True
73.072	2.731	Lose2	1.0	n/a	Yes	2.731	n/a	n/a	GoodResponse	0	0.0	n/a	3	6	ISIslide	AvoidedLoss	True
75.813	0.25	Lose2	1.0	0.0	Yes	4.037	0.013	n/a	GoodResponse	0	n/a	n/a	3	7	Cue	AvoidedLoss	True
76.064	4.05	Lose2	1.0	0.0	Yes	4.037	0.001	n/a	GoodResponse	0	n/a	n/a	3	7	Fixation	AvoidedLoss	True
80.11	0.33	Lose2	1.0	0.003	Yes	4.037	-0.003	3.0	GoodResponse	0	0.198	79.308	3	7	Target	AvoidedLoss	True
80.308	0.3	Lose2	1.0	0.003	Yes	4.037	-0.003	3.0	GoodResponse	0	0.198	n/a	3	7	ButtonPress	AvoidedLoss	True
80.444	0.37	Lose2	1.0	n/a	Yes	4.037	n/a	n/a	GoodResponse	0	n/a	n/a	3	7	Blank	AvoidedLoss	True
80.812	1.45	Lose2	1.0	n/a	Yes	4.037	n/a	5.0	GoodResponse	0	0.04	79.852	3	7	Feedback	AvoidedLoss	True
82.266	4.037	Lose2	1.0	n/a	Yes	4.037	n/a	n/a	GoodResponse	0	0.0	n/a	3	7	ISIslide	AvoidedLoss	True
86.328	0.25	Lose2	1.0	0.0	Yes	3.022	0.028	n/a	GoodResponse	0	n/a	n/a	3	8	Cue	AvoidedLoss	True
86.579	3.95	Lose2	1.0	0.0	Yes	3.022	0.001	n/a	GoodResponse	0	n/a	n/a	3	8	Fixation	AvoidedLoss	True
90.524	0.32	Lose2	1.0	0.004	Yes	3.022	-0.004	3.0	GoodResponse	0	0.179	89.703	3	8	Target	AvoidedLoss	True
90.703	0.3	Lose2	1.0	0.004	Yes	3.022	-0.004	3.0	GoodResponse	0	0.179	n/a	3	8	ButtonPress	AvoidedLoss	True
90.858	0.38	Lose2	1.0	n/a	Yes	3.022	n/a	n/a	GoodResponse	0	n/a	n/a	3	8	Blank	AvoidedLoss	True
91.226	1.45	Lose2	1.0	n/a	Yes	3.022	n/a	5.0	GoodResponse	0	0.017	90.243	3	8	Feedback	AvoidedLoss	True
92.681	3.022	Lose2	1.0	n/a	Yes	3.022	n/a	n/a	GoodResponse	0	0.0	n/a	3	8	ISIslide	AvoidedLoss	True
95.723	0.25	Lose2	1.0	0.0	Yes	3.127	0.023	n/a	GoodResponse	0	n/a	n/a	3	9	Cue	AvoidedLoss	True
95.974	3.95	Lose2	1.0	0.0	Yes	3.127	0.001	n/a	GoodResponse	0	n/a	n/a	3	9	Fixation	AvoidedLoss	True
99.919	0.31	Lose2	1.0	0.004	Yes	3.127	-0.004	3.0	GoodResponse	0	0.207	99.126	3	9	Target	AvoidedLoss	True
100.126	0.3	Lose2	1.0	0.004	Yes	3.127	-0.004	3.0	GoodResponse	0	0.207	n/a	3	9	ButtonPress	AvoidedLoss	True
100.236	0.39	Lose2	1.0	n/a	Yes	3.127	n/a	n/a	GoodResponse	0	n/a	n/a	3	9	Blank	AvoidedLoss	True
100.621	1.45	Lose2	1.0	n/a	Yes	3.127	n/a	5.0	GoodResponse	0	0.036	99.657	3	9	Feedback	AvoidedLoss	True
102.075	3.127	Lose2	1.0	n/a	Yes	3.127	n/a	n/a	GoodResponse	0	0.0	n/a	3	9	ISIslide	AvoidedLoss	True
105.218	0.25	Control	1.0	0.0	Yes	3.282	0.018	n/a	GoodResponse	0	n/a	n/a	3	10	Cue	Neutral	True
105.469	4.0	Control	1.0	0.0	Yes	3.282	0.001	n/a	GoodResponse	0	n/a	n/a	3	10	Fixation	Neutral	True
109.464	0.3	Control	1.0	0.004	Yes	3.282	-0.004	3.0	GoodResponse	0	0.183	108.647	3	10	Target	Neutral	True
109.647	0.3	Control	1.0	0.004	Yes	3.282	-0.004	3.0	GoodResponse	0	0.183	n/a	3	10	ButtonPress	Neutral	True
109.765	0.4	Control	1.0	n/a	Yes	3.282	n/a	n/a	GoodResponse	0	n/a	n/a	3	10	Blank	Neutral	True
110.166	1.45	Control	1.0	n/a	Yes	3.282	n/a	5.0	GoodResponse	0	0.005	109.171	3	10	Feedback	Neutral	True
111.621	3.282	Control	1.0	n/a	Yes	3.282	n/a	n/a	GoodResponse	0	0.0	n/a	3	10	ISIslide	Neutral	True
114.914	0.25	Lose2	1.0	0.0	Yes	2.736	0.014	n/a	GoodResponse	0	n/a	n/a	3	11	Cue	AvoidedLoss	True
115.164	4.05	Lose2	1.0	0.001	Yes	2.736	0.0	n/a	GoodResponse	0	n/a	n/a	3	11	Fixation	AvoidedLoss	True
119.21	0.29	Lose2	1.0	0.004	Yes	2.736	-0.004	3.0	GoodResponse	0	0.195	118.405	3	11	Target	AvoidedLoss	True
119.405	0.3	Lose2	1.0	0.004	Yes	2.736	-0.004	3.0	GoodResponse	0	0.195	n/a	3	11	ButtonPress	AvoidedLoss	True
119.511	0.41	Lose2	1.0	n/a	Yes	2.736	n/a	n/a	GoodResponse	0	n/a	n/a	3	11	Blank	AvoidedLoss	True
119.912	1.45	Lose2	1.0	n/a	Yes	2.736	n/a	5.0	GoodResponse	0	0.013	118.925	3	11	Feedback	AvoidedLoss	True
121.366	2.736	Lose2	1.0	n/a	Yes	2.736	n/a	n/a	GoodResponse	0	0.0	n/a	3	11	ISIslide	AvoidedLoss	True
124.125	0.25	Control	1.0	0.0	Yes	2.975	0.025	n/a	GoodResponse	0	n/a	n/a	3	12	Cue	Neutral	True
124.375	3.9	Control	1.0	0.0	Yes	2.975	0.0	n/a	GoodResponse	0	n/a	n/a	3	12	Fixation	Neutral	True
128.287	0.28	Control	1.0	0.0	Yes	2.975	0.012	3.0	GoodResponse	0	0.183	127.47	3	12	Target	Neutral	True
128.47	0.3	Control	1.0	0.0	Yes	2.975	0.012	3.0	GoodResponse	0	0.183	n/a	3	12	ButtonPress	Neutral	True
128.555	0.42	Control	1.0	n/a	Yes	2.975	n/a	n/a	GoodResponse	0	n/a	n/a	3	12	Blank	Neutral	True
128.973	1.45	Control	1.0	n/a	Yes	2.975	n/a	5.0	GoodResponse	0	0.025	127.998	3	12	Feedback	Neutral	True
130.427	2.975	Control	1.0	n/a	Yes	2.975	n/a	n/a	GoodResponse	0	0.0	n/a	3	12	ISIslide	Neutral	True
133.419	0.25	Control	1.0	0.0	Yes	2.781	0.019	n/a	GoodResponse	0	n/a	n/a	3	13	Cue	Neutral	True
133.67	4.0	Control	1.0	0.0	Yes	2.781	0.001	n/a	GoodResponse	0	n/a	n/a	3	13	Fixation	Neutral	True
137.665	0.27	Control	1.0	0.004	Yes	2.781	-0.004	3.0	GoodResponse	0	0.155	136.82	3	13	Target	Neutral	True
137.82	0.3	Control	1.0	0.004	Yes	2.781	-0.004	3.0	GoodResponse	0	0.155	n/a	3	13	ButtonPress	Neutral	True
137.949	0.43	Control	1.0	n/a	Yes	2.781	n/a	n/a	GoodResponse	0	n/a	n/a	3	13	Blank	Neutral	True
138.367	1.45	Control	1.0	n/a	Yes	2.781	n/a	5.0	GoodResponse	0	0.046	137.413	3	13	Feedback	Neutral	True
139.822	2.781	Control	1.0	n/a	Yes	2.781	n/a	n/a	GoodResponse	0	0.0	n/a	3	13	ISIslide	Neutral	True
142.63	0.25	Win2	1.0	0.0	Yes	2.67	0.03	n/a	GoodResponse	1	n/a	n/a	4	14	Cue	Win	True
142.881	4.1	Win2	1.0	0.0	Yes	2.67	0.001	n/a	GoodResponse	1	n/a	n/a	4	14	Fixation	Win	True
146.976	0.26	Win2	1.0	0.004	Yes	2.67	-0.004	3.0	GoodResponse	1	0.174	146.15	4	14	Target	Win	True
147.15	0.3	Win2	1.0	0.004	Yes	2.67	-0.004	3.0	GoodResponse	1	0.174	n/a	4	14	ButtonPress	Win	True
147.244	0.44	Win2	1.0	n/a	Yes	2.67	n/a	n/a	GoodResponse	1	n/a	n/a	4	14	Blank	Win	True
147.678	1.45	Win2	1.0	n/a	Yes	2.67	n/a	5.0	GoodResponse	1	0.004	146.682	4	14	Feedback	Win	True
149.133	2.67	Win2	1.0	n/a	Yes	2.67	n/a	n/a	GoodResponse	1	0.0	n/a	4	14	ISIslide	Win	True
151.824	0.25	Control	1.0	0.0	Yes	2.976	0.024	n/a	GoodResponse	0	n/a	n/a	4	15	Cue	Neutral	True
152.075	4.0	Control	1.0	0.0	Yes	2.976	0.001	n/a	GoodResponse	0	n/a	n/a	4	15	Fixation	Neutral	True
156.07	0.25	Control	1.0	0.004	Yes	2.976	-0.004	3.0	GoodResponse	0	0.215	155.285	4	15	Target	Neutral	True
156.285	0.3	Control	1.0	0.004	Yes	2.976	-0.004	3.0	GoodResponse	0	0.215	n/a	4	15	ButtonPress	Neutral	True
156.321	0.45	Control	1.0	n/a	Yes	2.976	n/a	n/a	GoodResponse	0	n/a	n/a	4	15	Blank	Neutral	True
156.772	1.45	Control	1.0	n/a	Yes	2.976	n/a	5.0	GoodResponse	0	0.03	155.802	4	15	Feedback	Neutral	True
158.227	2.976	Control	1.0	n/a	Yes	2.976	n/a	n/a	GoodResponse	0	0.0	n/a	4	15	ISIslide	Neutral	True
161.219	0.25	Win2	0.9412	0.0	No	2.881	0.019	n/a	NoResponse	0	n/a	n/a	4	16	Cue	MissedWin	True
161.47	4.0	Win2	0.9412	0.0	No	2.881	0.001	n/a	NoResponse	0	n/a	n/a	4	16	Fixation	MissedWin	True
165.465	0.24	Win2	0.9412	0.004	No	2.881	-0.004	3.0	NoResponse	0	0.257	164.722	4	16	Target	MissedWin	True
165.716	0.46	Win2	0.9412	n/a	No	2.881	n/a	n/a	NoResponse	0	n/a	n/a	4	16	Blank	MissedWin	True
165.722	0.3	Win2	0.9412	0.004	No	2.881	-0.004	3.0	NoResponse	0	0.257	n/a	4	16	ButtonPress	MissedWin	True
166.167	1.45	Win2	0.9412	n/a	No	2.881	n/a	5.0	NoResponse	0	0.001	165.168	4	16	Feedback	MissedWin	True
167.622	2.881	Win2	0.9412	n/a	No	2.881	n/a	n/a	NoResponse	0	0.0	n/a	4	16	ISIslide	MissedWin	True
170.514	0.25	Lose2	0.9444	0.0	Yes	2.736	0.014	n/a	GoodResponse	0	n/a	n/a	4	17	Cue	AvoidedLoss	True
170.764	3.95	Lose2	0.9444	0.0	Yes	2.736	0.0	n/a	GoodResponse	0	n/a	n/a	4	17	Fixation	AvoidedLoss	True
174.726	0.23	Lose2	0.9444	0.0	Yes	2.736	0.012	3.0	GoodResponse	0	0.188	173.914	4	17	Target	AvoidedLoss	True
174.914	0.3	Lose2	0.9444	0.0	Yes	2.736	0.012	3.0	GoodResponse	0	0.188	n/a	4	17	ButtonPress	AvoidedLoss	True
174.943	0.47	Lose2	0.9444	n/a	Yes	2.736	n/a	n/a	GoodResponse	0	n/a	n/a	4	17	Blank	AvoidedLoss	True
175.412	1.45	Lose2	0.9444	n/a	Yes	2.736	n/a	5.0	GoodResponse	0	0.025	174.437	4	17	Feedback	AvoidedLoss	True
176.866	2.736	Lose2	0.9444	n/a	Yes	2.736	n/a	n/a	GoodResponse	0	0.0	n/a	4	17	ISIslide	AvoidedLoss	True
179.624	0.25	Lose2	0.9473999999999999	0.0	Yes	2.726	0.024	n/a	GoodResponse	0	n/a	n/a	4	18	Cue	AvoidedLoss	True
179.875	4.05	Lose2	0.9473999999999999	0.0	Yes	2.726	0.001	n/a	GoodResponse	0	n/a	n/a	4	18	Fixation	AvoidedLoss	True
183.92	0.22	Lose2	0.9473999999999999	0.004	Yes	2.726	-0.004	3.0	GoodResponse	0	0.19	183.11	4	18	Target	AvoidedLoss	True
184.11	0.3	Lose2	0.9473999999999999	0.004	Yes	2.726	-0.004	3.0	GoodResponse	0	0.19	n/a	4	18	ButtonPress	AvoidedLoss	True
184.154	0.48	Lose2	0.9473999999999999	n/a	Yes	2.726	n/a	n/a	GoodResponse	0	n/a	n/a	4	18	Blank	AvoidedLoss	True
184.622	1.45	Lose2	0.9473999999999999	n/a	Yes	2.726	n/a	5.0	GoodResponse	0	0.034	183.656	4	18	Feedback	AvoidedLoss	True
186.077	2.726	Lose2	0.9473999999999999	n/a	Yes	2.726	n/a	n/a	GoodResponse	0	0.0	n/a	4	18	ISIslide	AvoidedLoss	True
188.818	0.25	Control	0.95	0.0	Yes	2.932	0.018	n/a	GoodResponse	0	n/a	n/a	4	19	Cue	Neutral	True
189.069	3.95	Control	0.95	0.0	Yes	2.932	0.001	n/a	GoodResponse	0	n/a	n/a	4	19	Fixation	Neutral	True
193.014	0.21	Control	0.95	0.004	Yes	2.932	-0.004	3.0	GoodResponse	0	0.155	192.169	4	19	Target	Neutral	True
193.169	0.3	Control	0.95	0.004	Yes	2.932	-0.004	3.0	GoodResponse	0	0.155	n/a	4	19	ButtonPress	Neutral	True
193.232	0.49	Control	0.95	n/a	Yes	2.932	n/a	n/a	GoodResponse	0	n/a	n/a	4	19	Blank	Neutral	True
193.716	1.45	Control	0.95	n/a	Yes	2.932	n/a	5.0	GoodResponse	0	0.014	192.73	4	19	Feedback	Neutral	True
195.171	2.932	Control	0.95	n/a	Yes	2.932	n/a	n/a	GoodResponse	0	0.0	n/a	4	19	ISIslide	Neutral	True
198.113	0.25	Control	0.9048	0.0	No	2.637	0.013	n/a	NoResponse	0	n/a	n/a	4	20	Cue	Neutral	True
198.364	4.05	Control	0.9048	0.0	No	2.637	0.001	n/a	NoResponse	0	n/a	n/a	4	20	Fixation	Neutral	True
202.409	0.2	Control	0.9048	0.004	No	2.637	-0.004	3.0	NoResponse	0	0.205	201.614	4	20	Target	Neutral	True
202.61	0.5	Control	0.9048	n/a	No	2.637	n/a	n/a	NoResponse	0	n/a	n/a	4	20	Blank	Neutral	True
202.614	0.3	Control	0.9048	0.004	No	2.637	-0.004	3.0	NoResponse	0	0.205	n/a	4	20	ButtonPress	Neutral	True
203.111	1.45	Control	0.9048	n/a	No	2.637	n/a	5.0	NoResponse	0	0.032	202.143	4	20	Feedback	Neutral	True
204.565	2.637	Control	0.9048	n/a	No	2.637	n/a	n/a	NoResponse	0	0.0	n/a	4	20	ISIslide	Neutral	True
207.223	0.25	Control	0.9091	0.0	Yes	2.777	0.023	n/a	GoodResponse	0	n/a	n/a	4	21	Cue	Neutral	True
207.474	4.1	Control	0.9091	0.0	Yes	2.777	0.001	n/a	GoodResponse	0	n/a	n/a	4	21	Fixation	Neutral	True
211.57	0.19	Control	0.9091	0.003	Yes	2.777	-0.003	3.0	GoodResponse	0	0.185	210.755	4	21	Target	Neutral	True
211.755	0.3	Control	0.9091	0.003	Yes	2.777	-0.003	3.0	GoodResponse	0	0.185	n/a	4	21	ButtonPress	Neutral	True
211.77	0.51	Control	0.9091	n/a	Yes	2.777	n/a	n/a	GoodResponse	0	n/a	n/a	4	21	Blank	Neutral	True
212.272	1.45	Control	0.9091	n/a	Yes	2.777	n/a	5.0	GoodResponse	0	0.042	211.314	4	21	Feedback	Neutral	True
213.726	2.777	Control	0.9091	n/a	Yes	2.777	n/a	n/a	GoodResponse	0	0.0	n/a	4	21	ISIslide	Neutral	True
216.518	0.25	Control	0.8695999999999999	0.0	No	2.782	0.018	n/a	LatePress	0	n/a	n/a	4	22	Cue	Neutral	True
216.769	4.0	Control	0.8695999999999999	0.0	No	2.782	0.001	n/a	LatePress	0	n/a	n/a	4	22	Fixation	Neutral	True
220.764	0.18	Control	0.8695999999999999	0.004	No	2.782	-0.004	3.0	LatePress	0	0.182	219.946	4	22	Target	Neutral	True
220.946	0.3	Control	0.8695999999999999	0.004	No	2.782	-0.004	3.0	LatePress	0	0.182	n/a	4	22	ButtonPress	Neutral	True
220.948	0.52	Control	0.8695999999999999	n/a	No	2.782	n/a	n/a	LatePress	0	n/a	n/a	4	22	Blank	Neutral	True
221.466	1.45	Control	0.8695999999999999	n/a	No	2.782	n/a	5.0	LatePress	0	0.019	220.485	4	22	Feedback	Neutral	True
222.92	2.782	Control	0.8695999999999999	n/a	No	2.782	n/a	n/a	LatePress	0	0.0	n/a	4	22	ISIslide	Neutral	True
225.729	0.25	Control	0.8332999999999999	0.0	No	2.771	0.029	n/a	LatePress	0	n/a	n/a	4	23	Cue	Neutral	True
225.98	3.9	Control	0.8332999999999999	0.0	No	2.771	0.001	n/a	LatePress	0	n/a	n/a	4	23	Fixation	Neutral	True
229.875	0.17	Control	0.8332999999999999	0.004	No	2.771	-0.004	3.0	LatePress	0	0.176	229.051	4	23	Target	Neutral	True
230.051	0.3	Control	0.8332999999999999	0.004	No	2.771	-0.004	3.0	LatePress	0	0.176	n/a	4	23	ButtonPress	Neutral	True
230.058	0.53	Control	0.8332999999999999	n/a	No	2.771	n/a	n/a	LatePress	0	n/a	n/a	4	23	Blank	Neutral	True
230.577	1.45	Control	0.8332999999999999	n/a	No	2.771	n/a	5.0	LatePress	0	0.03	229.607	4	23	Feedback	Neutral	True
232.031	2.771	Control	0.8332999999999999	n/a	No	2.771	n/a	n/a	LatePress	0	0.0	n/a	4	23	ISIslide	Neutral	True
234.823	0.25	Win2	0.84	0.0	Yes	3.127	0.023	n/a	GoodResponse	1	n/a	n/a	5	24	Cue	Win	True
235.073	3.95	Win2	0.84	0.001	Yes	3.127	0.0	n/a	GoodResponse	1	n/a	n/a	5	24	Fixation	Win	True
239.019	0.16	Win2	0.84	0.004	Yes	3.127	-0.004	3.0	GoodResponse	1	0.157	238.176	5	24	Target	Win	True
239.176	0.3	Win2	0.84	0.004	Yes	3.127	-0.004	3.0	GoodResponse	1	0.157	n/a	5	24	ButtonPress	Win	True
239.186	0.54	Win2	0.84	n/a	Yes	3.127	n/a	n/a	GoodResponse	1	n/a	n/a	5	24	Blank	Win	True
239.721	1.45	Win2	0.84	n/a	Yes	3.127	n/a	5.0	GoodResponse	1	0.008	238.729	5	24	Feedback	Win	True
241.175	3.127	Win2	0.84	n/a	Yes	3.127	n/a	n/a	GoodResponse	1	0.0	n/a	5	24	ISIslide	Win	True
244.318	0.25	Win2	0.8077	0.0	No	3.082	0.018	n/a	NoResponse	0	n/a	n/a	5	25	Cue	MissedWin	True
244.569	4.0	Win2	0.8077	0.0	No	3.082	0.001	n/a	NoResponse	0	n/a	n/a	5	25	Fixation	MissedWin	True
248.564	0.15	Win2	0.8077	0.004	No	3.082	-0.004	3.0	NoResponse	0	0.171	247.735	5	25	Target	MissedWin	True
248.714	0.55	Win2	0.8077	n/a	No	3.082	n/a	n/a	NoResponse	0	n/a	n/a	5	25	Blank	MissedWin	True
248.735	0.3	Win2	0.8077	0.004	No	3.082	-0.004	3.0	NoResponse	0	0.171	n/a	5	25	ButtonPress	MissedWin	True
249.266	1.45	Win2	0.8077	n/a	No	3.082	n/a	5.0	NoResponse	0	0.024	248.29	5	25	Feedback	MissedWin	True
250.72	3.082	Win2	0.8077	n/a	No	3.082	n/a	n/a	NoResponse	0	0.0	n/a	5	25	ISIslide	MissedWin	True
253.83	0.25	Win2	0.7778	0.0	No	2.92	0.03	n/a	NoResponse	0	n/a	n/a	5	26	Cue	MissedWin	True
254.08	3.95	Win2	0.7778	0.0	No	2.92	0.0	n/a	NoResponse	0	n/a	n/a	5	26	Fixation	MissedWin	True
258.042	0.15	Win2	0.7778	0.0	No	2.92	0.012	3.0	NoResponse	0	0.167	257.209	5	26	Target	MissedWin	True
258.176	0.55	Win2	0.7778	n/a	No	2.92	n/a	n/a	NoResponse	0	n/a	n/a	5	26	Blank	MissedWin	True
258.209	0.3	Win2	0.7778	0.0	No	2.92	0.012	3.0	NoResponse	0	0.167	n/a	5	26	ButtonPress	MissedWin	True
258.728	1.45	Win2	0.7778	n/a	No	2.92	n/a	5.0	NoResponse	0	0.025	257.753	5	26	Feedback	MissedWin	True
260.182	2.92	Win2	0.7778	n/a	No	2.92	n/a	n/a	NoResponse	0	0.0	n/a	5	26	ISIslide	MissedWin	True
263.124	0.25	Lose2	0.75	0.0	No	2.826	0.024	n/a	NoResponse	-1	n/a	n/a	4	27	Cue	Loss	True
263.375	4.05	Lose2	0.75	0.0	No	2.826	0.001	n/a	NoResponse	-1	n/a	n/a	4	27	Fixation	Loss	True
267.42	0.15	Lose2	0.75	0.004	No	2.826	-0.004	3.0	NoResponse	-1	0.164	266.584	4	27	Target	Loss	True
267.571	0.55	Lose2	0.75	n/a	No	2.826	n/a	n/a	NoResponse	-1	n/a	n/a	4	27	Blank	Loss	True
267.584	0.3	Lose2	0.75	0.004	No	2.826	-0.004	3.0	NoResponse	-1	0.164	n/a	4	27	ButtonPress	Loss	True
268.122	1.45	Lose2	0.75	n/a	No	2.826	n/a	5.0	NoResponse	-1	0.045	267.167	4	27	Feedback	Loss	True
269.577	2.826	Lose2	0.75	n/a	No	2.826	n/a	n/a	NoResponse	-1	0.0	n/a	4	27	ISIslide	Loss	True
272.419	0.25	Control	0.7241	0.0	No	2.831	0.019	n/a	NoResponse	0	n/a	n/a	4	28	Cue	Neutral	True
272.669	4.05	Control	0.7241	0.0	No	2.831	0.0	n/a	NoResponse	0	n/a	n/a	4	28	Fixation	Neutral	True
276.715	0.15	Control	0.7241	0.004	No	2.831	-0.004	3.0	NoResponse	0	0.178	275.893	4	28	Target	Neutral	True
276.865	0.55	Control	0.7241	n/a	No	2.831	n/a	n/a	NoResponse	0	n/a	n/a	4	28	Blank	Neutral	True
276.893	0.3	Control	0.7241	0.004	No	2.831	-0.004	3.0	NoResponse	0	0.178	n/a	4	28	ButtonPress	Neutral	True
277.417	1.45	Control	0.7241	n/a	No	2.831	n/a	5.0	NoResponse	0	0.019	276.436	4	28	Feedback	Neutral	True
278.871	2.831	Control	0.7241	n/a	No	2.831	n/a	n/a	NoResponse	0	0.0	n/a	4	28	ISIslide	Neutral	True
281.73	0.25	Lose2	0.7	0.0	No	2.82	0.03	n/a	LatePress	-1	n/a	n/a	3	29	Cue	Loss	True
281.98	3.95	Lose2	0.7	0.001	No	2.82	0.0	n/a	LatePress	-1	n/a	n/a	3	29	Fixation	Loss	True
285.926	0.15	Lose2	0.7	0.004	No	2.82	-0.004	3.0	LatePress	-1	0.15	285.076	3	29	Target	Loss	True
286.076	0.55	Lose2	0.7	n/a	No	2.82	n/a	n/a	LatePress	-1	n/a	n/a	3	29	Blank	Loss	True
286.076	0.3	Lose2	0.7	0.004	No	2.82	-0.004	3.0	LatePress	-1	0.15	n/a	3	29	ButtonPress	Loss	True
286.628	1.45	Lose2	0.7	n/a	No	2.82	n/a	5.0	LatePress	-1	0.027	285.655	3	29	Feedback	Loss	True
288.082	2.82	Lose2	0.7	n/a	No	2.82	n/a	n/a	LatePress	-1	0.0	n/a	3	29	ISIslide	Loss	True
290.924	0.25	Win2	0.6774	0.0	No	2.776	0.024	n/a	NoResponse	0	n/a	n/a	3	30	Cue	MissedWin	True
291.175	3.9	Win2	0.6774	0.0	No	2.776	0.001	n/a	NoResponse	0	n/a	n/a	3	30	Fixation	MissedWin	True
295.07	0.15	Win2	0.6774	0.004	No	2.776	-0.004	3.0	NoResponse	0	0.196	294.266	3	30	Target	MissedWin	True
295.22	0.55	Win2	0.6774	n/a	No	2.776	n/a	n/a	NoResponse	0	n/a	n/a	3	30	Blank	MissedWin	True
295.266	0.3	Win2	0.6774	0.004	No	2.776	-0.004	3.0	NoResponse	0	0.196	n/a	3	30	ButtonPress	MissedWin	True
295.772	1.45	Win2	0.6774	n/a	No	2.776	n/a	5.0	NoResponse	0	0.006	294.778	3	30	Feedback	MissedWin	True
297.226	2.776	Win2	0.6774	n/a	No	2.776	n/a	n/a	NoResponse	0	0.0	n/a	3	30	ISIslide	MissedWin	True
300.018	0.25	Lose2	0.6875	0.0	Yes	2.832	0.018	n/a	GoodResponse	0	n/a	n/a	3	31	Cue	AvoidedLoss	True
300.269	4.05	Lose2	0.6875	0.0	Yes	2.832	0.001	n/a	GoodResponse	0	n/a	n/a	3	31	Fixation	AvoidedLoss	True
304.314	0.15	Lose2	0.6875	0.004	Yes	2.832	-0.004	3.0	GoodResponse	0	0.1	303.414	3	31	Target	AvoidedLoss	True
304.414	0.3	Lose2	0.6875	0.004	Yes	2.832	-0.004	3.0	GoodResponse	0	0.1	n/a	3	31	ButtonPress	AvoidedLoss	True
304.464	0.55	Lose2	0.6875	n/a	Yes	2.832	n/a	n/a	GoodResponse	0	n/a	n/a	3	31	Blank	AvoidedLoss	True
305.016	1.45	Lose2	0.6875	n/a	Yes	2.832	n/a	5.0	GoodResponse	0	0.029	304.045	3	31	Feedback	AvoidedLoss	True
306.47	2.832	Lose2	0.6875	n/a	Yes	2.832	n/a	n/a	GoodResponse	0	0.0	n/a	3	31	ISIslide	AvoidedLoss	True
309.329	0.25	Lose2	0.6667000000000001	0.0	No	2.621	0.029	n/a	NoResponse	-1	n/a	n/a	2	32	Cue	Loss	True
309.58	4.15	Lose2	0.6667000000000001	0.0	No	2.621	0.001	n/a	NoResponse	-1	n/a	n/a	2	32	Fixation	Loss	True
313.726	0.15	Lose2	0.6667000000000001	0.003	No	2.621	-0.003	3.0	NoResponse	-1	0.17	312.896	2	32	Target	Loss	True
313.876	0.55	Lose2	0.6667000000000001	n/a	No	2.621	n/a	n/a	NoResponse	-1	n/a	n/a	2	32	Blank	Loss	True
313.896	0.3	Lose2	0.6667000000000001	0.003	No	2.621	-0.003	3.0	NoResponse	-1	0.17	n/a	2	32	ButtonPress	Loss	True
314.428	1.45	Lose2	0.6667000000000001	n/a	No	2.621	n/a	5.0	NoResponse	-1	0.032	313.46	2	32	Feedback	Loss	True
315.882	2.621	Lose2	0.6667000000000001	n/a	No	2.621	n/a	n/a	NoResponse	-1	0.0	n/a	2	32	ISIslide	Loss	True
318.523	0.25	Win2	0.6470999999999999	0.0	No	2.677	0.023	n/a	NoResponse	0	n/a	n/a	2	33	Cue	MissedWin	True
318.774	4.0	Win2	0.6470999999999999	0.0	No	2.677	0.001	n/a	NoResponse	0	n/a	n/a	2	33	Fixation	MissedWin	True
322.769	0.15	Win2	0.6470999999999999	0.004	No	2.677	-0.004	3.0	NoResponse	0	0.185	321.954	2	33	Target	MissedWin	True
322.92	0.55	Win2	0.6470999999999999	n/a	No	2.677	n/a	n/a	NoResponse	0	n/a	n/a	2	33	Blank	MissedWin	True
322.954	0.3	Win2	0.6470999999999999	0.004	No	2.677	-0.004	3.0	NoResponse	0	0.185	n/a	2	33	ButtonPress	MissedWin	True
323.471	1.45	Win2	0.6470999999999999	n/a	No	2.677	n/a	5.0	NoResponse	0	0.013	322.484	2	33	Feedback	MissedWin	True
324.926	2.677	Win2	0.6470999999999999	n/a	No	2.677	n/a	n/a	NoResponse	0	0.0	n/a	2	33	ISIslide	MissedWin	True
327.617	0.25	Lose2	0.6286	0.0	No	2.633	0.017	n/a	NoResponse	-1	n/a	n/a	1	34	Cue	Loss	False
327.868	4.05	Lose2	0.6286	0.0	No	2.633	0.001	3.0	NoResponse	-1	3.467	330.335	1	34	Fixation	Loss	False
331.335	0.3	Lose2	0.6286	0.0	No	2.633	0.001	3.0	NoResponse	-1	3.467	n/a	1	34	ButtonPress	Loss	False
331.913	0.16	Lose2	0.6286	0.004	No	2.633	-0.004	3.0	NoResponse	-1	0.186	331.099	1	34	Target	Loss	False
332.08	0.54	Lose2	0.6286	n/a	No	2.633	n/a	n/a	NoResponse	-1	n/a	n/a	1	34	Blank	Loss	False
332.099	0.3	Lose2	0.6286	0.004	No	2.633	-0.004	3.0	NoResponse	-1	0.186	n/a	1	34	ButtonPress	Loss	False
332.615	1.45	Lose2	0.6286	n/a	No	2.633	n/a	5.0	NoResponse	-1	0.04	331.655	1	34	Feedback	Loss	False
334.07	2.633	Lose2	0.6286	n/a	No	2.633	n/a	n/a	NoResponse	-1	0.0	n/a	1	34	ISIslide	Loss	False
336.728	0.25	Lose2	0.6111	0.0	No	2.672	0.028	n/a	NoResponse	-1	n/a	n/a	0	35	Cue	Loss	True
336.978	4.0	Lose2	0.6111	0.001	No	2.672	0.0	n/a	NoResponse	-1	n/a	n/a	0	35	Fixation	Loss	True
340.974	0.17	Lose2	0.6111	0.004	No	2.672	-0.004	3.0	NoResponse	-1	0.185	340.159	0	35	Target	Loss	True
341.158	0.53	Lose2	0.6111	n/a	No	2.672	n/a	n/a	NoResponse	-1	n/a	n/a	0	35	Blank	Loss	True
341.159	0.3	Lose2	0.6111	0.004	No	2.672	-0.004	3.0	NoResponse	-1	0.185	n/a	0	35	ButtonPress	Loss	True
341.676	1.45	Lose2	0.6111	n/a	No	2.672	n/a	5.0	NoResponse	-1	0.004	340.68	0	35	Feedback	Loss	True
343.13	2.672	Lose2	0.6111	n/a	No	2.672	n/a	n/a	NoResponse	-1	0.0	n/a	0	35	ISIslide	Loss	True
345.822	0.25	Control	0.6215999999999999	0.0	Yes	2.678	0.022	n/a	GoodResponse	0	n/a	n/a	0	36	Cue	Neutral	True
346.072	4.0	Control	0.6215999999999999	0.0	Yes	2.678	0.0	n/a	GoodResponse	0	n/a	n/a	0	36	Fixation	Neutral	True
350.068	0.18	Control	0.6215999999999999	0.004	Yes	2.678	-0.004	3.0	GoodResponse	0	0.166	349.234	0	36	Target	Neutral	True
350.234	0.3	Control	0.6215999999999999	0.004	Yes	2.678	-0.004	3.0	GoodResponse	0	0.166	n/a	0	36	ButtonPress	Neutral	True
350.252	0.52	Control	0.6215999999999999	n/a	Yes	2.678	n/a	n/a	GoodResponse	0	n/a	n/a	0	36	Blank	Neutral	True
350.77	1.45	Control	0.6215999999999999	n/a	Yes	2.678	n/a	5.0	GoodResponse	0	0.032	349.802	0	36	Feedback	Neutral	True
352.224	2.678	Control	0.6215999999999999	n/a	Yes	2.678	n/a	n/a	GoodResponse	0	0.0	n/a	0	36	ISIslide	Neutral	True
354.915	0.25	Win2	0.6315999999999999	0.001	Yes	2.885	0.015	n/a	GoodResponse	1	n/a	n/a	1	37	Cue	Win	True
355.166	4.0	Win2	0.6315999999999999	0.0	Yes	2.885	0.001	n/a	GoodResponse	1	n/a	n/a	1	37	Fixation	Win	True
359.162	0.19	Win2	0.6315999999999999	0.003	Yes	2.885	-0.003	3.0	GoodResponse	1	0.145	358.307	1	37	Target	Win	True
359.307	0.3	Win2	0.6315999999999999	0.003	Yes	2.885	-0.003	3.0	GoodResponse	1	0.145	n/a	1	37	ButtonPress	Win	True
359.362	0.51	Win2	0.6315999999999999	n/a	Yes	2.885	n/a	n/a	GoodResponse	1	n/a	n/a	1	37	Blank	Win	True
359.864	1.45	Win2	0.6315999999999999	n/a	Yes	2.885	n/a	5.0	GoodResponse	1	0.01	358.874	1	37	Feedback	Win	True
361.318	2.885	Win2	0.6315999999999999	n/a	Yes	2.885	n/a	n/a	GoodResponse	1	0.0	n/a	1	37	ISIslide	Win	True
364.227	0.25	Lose2	0.6409999999999999	0.0	Yes	2.823	0.027	n/a	GoodResponse	0	n/a	n/a	1	38	Cue	AvoidedLoss	True
364.477	3.95	Lose2	0.6409999999999999	0.001	Yes	2.823	0.0	n/a	GoodResponse	0	n/a	n/a	1	38	Fixation	AvoidedLoss	True
368.423	0.2	Lose2	0.6409999999999999	0.004	Yes	2.823	-0.004	3.0	GoodResponse	0	0.175	367.598	1	38	Target	AvoidedLoss	True
368.598	0.3	Lose2	0.6409999999999999	0.004	Yes	2.823	-0.004	3.0	GoodResponse	0	0.175	n/a	1	38	ButtonPress	AvoidedLoss	True
368.623	0.5	Lose2	0.6409999999999999	n/a	Yes	2.823	n/a	n/a	GoodResponse	0	n/a	n/a	1	38	Blank	AvoidedLoss	True
369.125	1.45	Lose2	0.6409999999999999	n/a	Yes	2.823	n/a	5.0	GoodResponse	0	0.017	368.142	1	38	Feedback	AvoidedLoss	True
370.579	2.823	Lose2	0.6409999999999999	n/a	Yes	2.823	n/a	n/a	GoodResponse	0	0.0	n/a	1	38	ISIslide	AvoidedLoss	True
373.421	0.25	Win2	0.65	0.0	Yes	2.979	0.021	n/a	GoodResponse	1	n/a	n/a	2	39	Cue	Win	True
373.672	4.1	Win2	0.65	0.0	Yes	2.979	0.001	n/a	GoodResponse	1	n/a	n/a	2	39	Fixation	Win	True
377.767	0.21	Win2	0.65	0.004	Yes	2.979	-0.004	3.0	GoodResponse	1	0.165	376.932	2	39	Target	Win	True
377.932	0.3	Win2	0.65	0.004	Yes	2.979	-0.004	3.0	GoodResponse	1	0.165	n/a	2	39	ButtonPress	Win	True
377.985	0.49	Win2	0.65	n/a	Yes	2.979	n/a	n/a	GoodResponse	1	n/a	n/a	2	39	Blank	Win	True
378.469	1.45	Win2	0.65	n/a	Yes	2.979	n/a	5.0	GoodResponse	1	0.039	377.508	2	39	Feedback	Win	True
379.924	2.979	Win2	0.65	n/a	Yes	2.979	n/a	n/a	GoodResponse	1	0.0	n/a	2	39	ISIslide	Win	True
382.916	0.25	Win2	0.6585	0.0	Yes	2.734	0.016	n/a	GoodResponse	1	n/a	n/a	3	40	Cue	Win	True
383.167	3.95	Win2	0.6585	0.0	Yes	2.734	0.001	n/a	GoodResponse	1	n/a	n/a	3	40	Fixation	Win	True
387.112	0.22	Win2	0.6585	0.004	Yes	2.734	-0.004	3.0	GoodResponse	1	0.185	386.297	3	40	Target	Win	True
387.297	0.3	Win2	0.6585	0.004	Yes	2.734	-0.004	3.0	GoodResponse	1	0.185	n/a	3	40	ButtonPress	Win	True
387.346	0.48	Win2	0.6585	n/a	Yes	2.734	n/a	n/a	GoodResponse	1	n/a	n/a	3	40	Blank	Win	True
387.814	1.45	Win2	0.6585	n/a	Yes	2.734	n/a	5.0	GoodResponse	1	0.011	386.825	3	40	Feedback	Win	True
389.268	2.734	Win2	0.6585	n/a	Yes	2.734	n/a	n/a	GoodResponse	1	0.0	n/a	3	40	ISIslide	Win	True
392.027	0.25	Win2	0.6667000000000001	0.0	Yes	2.773	0.027	n/a	GoodResponse	1	n/a	n/a	4	41	Cue	Win	True
392.277	3.9	Win2	0.6667000000000001	0.0	Yes	2.773	0.0	n/a	GoodResponse	1	n/a	n/a	4	41	Fixation	Win	True
396.189	0.22	Win2	0.6667000000000001	0.0	Yes	2.773	0.012	3.0	GoodResponse	1	0.181	395.37	4	41	Target	Win	True
396.37	0.3	Win2	0.6667000000000001	0.0	Yes	2.773	0.012	3.0	GoodResponse	1	0.181	n/a	4	41	ButtonPress	Win	True
396.406	0.48	Win2	0.6667000000000001	n/a	Yes	2.773	n/a	n/a	GoodResponse	1	n/a	n/a	4	41	Blank	Win	True
396.874	1.45	Win2	0.6667000000000001	n/a	Yes	2.773	n/a	5.0	GoodResponse	1	0.025	395.899	4	41	Feedback	Win	True
398.329	2.773	Win2	0.6667000000000001	n/a	Yes	2.773	n/a	n/a	GoodResponse	1	0.0	n/a	4	41	ISIslide	Win	True
401.12	0.25	Control	0.6744	0.001	Yes	2.93	0.02	n/a	GoodResponse	0	n/a	n/a	4	42	Cue	Neutral	True
401.371	3.85	Control	0.6744	0.0	Yes	2.93	0.001	n/a	GoodResponse	0	n/a	n/a	4	42	Fixation	Neutral	True
405.216	0.21	Control	0.6744	0.004	Yes	2.93	-0.004	3.0	GoodResponse	0	0.197	404.413	4	42	Target	Neutral	True
405.413	0.3	Control	0.6744	0.004	Yes	2.93	-0.004	3.0	GoodResponse	0	0.197	n/a	4	42	ButtonPress	Neutral	True
405.433	0.49	Control	0.6744	n/a	Yes	2.93	n/a	n/a	GoodResponse	0	n/a	n/a	4	42	Blank	Neutral	True
405.918	1.45	Control	0.6744	n/a	Yes	2.93	n/a	5.0	GoodResponse	0	0.005	404.923	4	42	Feedback	Neutral	True
407.373	2.93	Control	0.6744	n/a	Yes	2.93	n/a	n/a	GoodResponse	0	0.0	n/a	4	42	ISIslide	Neutral	True
410.315	0.25	Win2	0.6818000000000001	0.0	Yes	3.185	0.015	n/a	GoodResponse	1	n/a	n/a	5	43	Cue	Win	True
410.565	4.0	Win2	0.6818000000000001	0.0	Yes	3.185	0.0	n/a	GoodResponse	1	n/a	n/a	5	43	Fixation	Win	True
414.561	0.2	Win2	0.6818000000000001	0.004	Yes	3.185	-0.004	3.0	GoodResponse	1	0.152	413.713	5	43	Target	Win	True
414.713	0.3	Win2	0.6818000000000001	0.004	Yes	3.185	-0.004	3.0	GoodResponse	1	0.152	n/a	5	43	ButtonPress	Win	True
414.761	0.5	Win2	0.6818000000000001	n/a	Yes	3.185	n/a	n/a	GoodResponse	1	n/a	n/a	5	43	Blank	Win	True
415.263	1.45	Win2	0.6818000000000001	n/a	Yes	3.185	n/a	5.0	GoodResponse	1	0.025	414.288	5	43	Feedback	Win	True
416.717	3.185	Win2	0.6818000000000001	n/a	Yes	3.185	n/a	n/a	GoodResponse	1	0.0	n/a	5	43	ISIslide	Win	True
419.927	0.25	Win2	0.6889	0.0	Yes	2.973	0.027	n/a	GoodResponse	1	n/a	n/a	6	44	Cue	Win	True
420.178	4.0	Win2	0.6889	0.0	Yes	2.973	0.001	n/a	GoodResponse	1	n/a	n/a	6	44	Fixation	Win	True
424.173	0.19	Win2	0.6889	0.004	Yes	2.973	-0.004	3.0	GoodResponse	1	0.185	423.358	6	44	Target	Win	True
424.358	0.3	Win2	0.6889	0.004	Yes	2.973	-0.004	3.0	GoodResponse	1	0.185	n/a	6	44	ButtonPress	Win	True
424.373	0.51	Win2	0.6889	n/a	Yes	2.973	n/a	n/a	GoodResponse	1	n/a	n/a	6	44	Blank	Win	True
424.875	1.45	Win2	0.6889	n/a	Yes	2.973	n/a	5.0	GoodResponse	1	0.023	423.898	6	44	Feedback	Win	True
426.329	2.973	Win2	0.6889	n/a	Yes	2.973	n/a	n/a	GoodResponse	1	0.0	n/a	6	44	ISIslide	Win	True
429.322	0.25	Control	0.6739	0.0	No	2.878	0.022	n/a	NoResponse	0	n/a	n/a	6	45	Cue	Neutral	True
429.572	4.1	Control	0.6739	0.0	No	2.878	0.0	n/a	NoResponse	0	n/a	n/a	6	45	Fixation	Neutral	True
433.668	0.18	Control	0.6739	0.004	No	2.878	-0.004	3.0	NoResponse	0	0.22	432.888	6	45	Target	Neutral	True
433.852	0.52	Control	0.6739	n/a	No	2.878	n/a	n/a	NoResponse	0	n/a	n/a	6	45	Blank	Neutral	True
433.888	0.3	Control	0.6739	0.004	No	2.878	-0.004	3.0	NoResponse	0	0.22	n/a	6	45	ButtonPress	Neutral	True
434.37	1.45	Control	0.6739	n/a	No	2.878	n/a	5.0	NoResponse	0	0.04	433.41	6	45	Feedback	Neutral	True
435.824	2.878	Control	0.6739	n/a	No	2.878	n/a	n/a	NoResponse	0	0.0	n/a	6	45	ISIslide	Neutral	True
438.716	0.25	Lose2	0.6809000000000001	0.0	Yes	3.384	0.016	n/a	GoodResponse	0	n/a	n/a	6	46	Cue	AvoidedLoss	True
438.967	4.0	Lose2	0.6809000000000001	0.0	Yes	3.384	0.001	n/a	GoodResponse	0	n/a	n/a	6	46	Fixation	AvoidedLoss	True
442.962	0.17	Lose2	0.6809000000000001	0.004	Yes	3.384	-0.004	3.0	GoodResponse	0	0.163	442.125	6	46	Target	AvoidedLoss	True
443.125	0.3	Lose2	0.6809000000000001	0.004	Yes	3.384	-0.004	3.0	GoodResponse	0	0.163	n/a	6	46	ButtonPress	AvoidedLoss	True
443.146	0.53	Lose2	0.6809000000000001	n/a	Yes	3.384	n/a	n/a	GoodResponse	0	n/a	n/a	6	46	Blank	AvoidedLoss	True
443.664	1.45	Lose2	0.6809000000000001	n/a	Yes	3.384	n/a	5.0	GoodResponse	0	0.015	442.679	6	46	Feedback	AvoidedLoss	True
445.119	3.384	Lose2	0.6809000000000001	n/a	Yes	3.384	n/a	n/a	GoodResponse	0	0.0	n/a	6	46	ISIslide	AvoidedLoss	True
448.529	0.25	Lose2	0.6667000000000001	0.0	No	2.671	0.029	n/a	NoResponse	-1	n/a	n/a	5	47	Cue	Loss	True
448.78	4.0	Lose2	0.6667000000000001	0.0	No	2.671	0.001	n/a	NoResponse	-1	n/a	n/a	5	47	Fixation	Loss	True
452.775	0.16	Lose2	0.6667000000000001	0.004	No	2.671	-0.004	3.0	NoResponse	-1	0.189	451.964	5	47	Target	Loss	True
452.942	0.54	Lose2	0.6667000000000001	n/a	No	2.671	n/a	n/a	NoResponse	-1	n/a	n/a	5	47	Blank	Loss	True
452.964	0.3	Lose2	0.6667000000000001	0.004	No	2.671	-0.004	3.0	NoResponse	-1	0.189	n/a	5	47	ButtonPress	Loss	True
453.477	1.45	Lose2	0.6667000000000001	n/a	No	2.671	n/a	5.0	NoResponse	-1	0.007	452.484	5	47	Feedback	Loss	True
454.932	2.671	Lose2	0.6667000000000001	n/a	No	2.671	n/a	n/a	NoResponse	-1	0.0	n/a	5	47	ISIslide	Loss	True
457.623	0.25	Lose2	0.6531	0.0	No	3.027	0.023	n/a	NoResponse	-1	n/a	n/a	4	48	Cue	Loss	True
457.874	3.95	Lose2	0.6531	0.0	No	3.027	0.001	n/a	NoResponse	-1	n/a	n/a	4	48	Fixation	Loss	True
461.819	0.15	Lose2	0.6531	0.004	No	3.027	-0.004	3.0	NoResponse	-1	0.173	460.992	4	48	Target	Loss	True
461.969	0.55	Lose2	0.6531	n/a	No	3.027	n/a	n/a	NoResponse	-1	n/a	n/a	4	48	Blank	Loss	True
461.992	0.3	Lose2	0.6531	0.004	No	3.027	-0.004	3.0	NoResponse	-1	0.173	n/a	4	48	ButtonPress	Loss	True
462.521	1.45	Lose2	0.6531	n/a	No	3.027	n/a	5.0	NoResponse	-1	0.035	461.556	4	48	Feedback	Loss	True
463.975	3.027	Lose2	0.6531	n/a	No	3.027	n/a	n/a	NoResponse	-1	0.0	n/a	4	48	ISIslide	Loss	True
467.018	0.25	Control	0.64	0.0	No	2.882	0.018	n/a	NoResponse	0	n/a	n/a	4	49	Cue	Neutral	True
467.268	4.0	Control	0.64	0.001	No	2.882	0.0	n/a	NoResponse	0	n/a	n/a	4	49	Fixation	Neutral	True
471.264	0.16	Control	0.64	0.004	No	2.882	-0.004	3.0	NoResponse	0	0.172	470.436	4	49	Target	Neutral	True
471.431	0.54	Control	0.64	n/a	No	2.882	n/a	n/a	NoResponse	0	n/a	n/a	4	49	Blank	Neutral	True
471.436	0.3	Control	0.64	0.004	No	2.882	-0.004	3.0	NoResponse	0	0.172	n/a	4	49	ButtonPress	Neutral	True
471.966	1.45	Control	0.64	n/a	No	2.882	n/a	5.0	NoResponse	0	0.005	470.971	4	49	Feedback	Neutral	True
473.42	2.882	Control	0.64	n/a	No	2.882	n/a	n/a	NoResponse	0	0.0	n/a	4	49	ISIslide	Neutral	True
476.329	0.25	Control	0.6275	0.0	No	2.771	0.029	n/a	LatePress	0	n/a	n/a	4	50	Cue	Neutral	True
476.58	4.0	Control	0.6275	0.0	No	2.771	0.001	n/a	LatePress	0	n/a	n/a	4	50	Fixation	Neutral	True
480.575	0.17	Control	0.6275	0.004	No	2.771	-0.004	3.0	LatePress	0	0.179	479.754	4	50	Target	Neutral	True
480.754	0.3	Control	0.6275	0.004	No	2.771	-0.004	3.0	LatePress	0	0.179	n/a	4	50	ButtonPress	Neutral	True
480.759	0.53	Control	0.6275	n/a	No	2.771	n/a	n/a	LatePress	0	n/a	n/a	4	50	Blank	Neutral	True
481.277	1.45	Control	0.6275	n/a	No	2.771	n/a	5.0	LatePress	0	0.011	480.288	4	50	Feedback	Neutral	True
482.731	2.771	Control	0.6275	n/a	No	2.771	n/a	n/a	LatePress	0	0.0	n/a	4	50	ISIslide	Neutral	True
485.523	0.25	Control	0.6154	0.0	No	2.727	0.023	n/a	LatePress	0	n/a	n/a	4	51	Cue	Neutral	True
485.774	3.95	Control	0.6154	0.0	No	2.727	0.001	n/a	LatePress	0	n/a	n/a	4	51	Fixation	Neutral	True
489.719	0.18	Control	0.6154	0.004	No	2.727	-0.004	3.0	LatePress	0	0.181	488.9	4	51	Target	Neutral	True
489.9	0.3	Control	0.6154	0.004	No	2.727	-0.004	3.0	LatePress	0	0.181	n/a	4	51	ButtonPress	Neutral	True
489.903	0.52	Control	0.6154	n/a	No	2.727	n/a	n/a	LatePress	0	n/a	n/a	4	51	Blank	Neutral	True
490.421	1.45	Control	0.6154	n/a	No	2.727	n/a	5.0	LatePress	0	0.038	489.459	4	51	Feedback	Neutral	True
491.875	2.727	Control	0.6154	n/a	No	2.727	n/a	n/a	LatePress	0	0.0	n/a	4	51	ISIslide	Neutral	True
494.617	0.25	Control	0.6038	0.0	No	2.633	0.017	n/a	LatePress	0	n/a	n/a	4	52	Cue	Neutral	True
494.868	4.05	Control	0.6038	0.0	No	2.633	0.001	n/a	LatePress	0	n/a	n/a	4	52	Fixation	Neutral	True
498.913	0.19	Control	0.6038	0.004	No	2.633	-0.004	3.0	LatePress	0	0.193	498.106	4	52	Target	Neutral	True
499.106	0.3	Control	0.6038	0.004	No	2.633	-0.004	3.0	LatePress	0	0.193	n/a	4	52	ButtonPress	Neutral	True
499.114	0.51	Control	0.6038	n/a	No	2.633	n/a	n/a	LatePress	0	n/a	n/a	4	52	Blank	Neutral	True
499.615	1.45	Control	0.6038	n/a	No	2.633	n/a	5.0	LatePress	0	0.014	498.629	4	52	Feedback	Neutral	True
501.07	2.633	Control	0.6038	n/a	No	2.633	n/a	n/a	LatePress	0	0.0	n/a	4	52	ISIslide	Neutral	True
503.728	0.25	Win2	0.6111	0.0	Yes	2.922	0.028	n/a	GoodResponse	1	n/a	n/a	5	53	Cue	Win	True
503.978	4.05	Win2	0.6111	0.0	Yes	2.922	0.0	n/a	GoodResponse	1	n/a	n/a	5	53	Fixation	Win	True
508.024	0.2	Win2	0.6111	0.004	Yes	2.922	-0.004	3.0	GoodResponse	1	0.182	507.206	5	53	Target	Win	True
508.206	0.3	Win2	0.6111	0.004	Yes	2.922	-0.004	3.0	GoodResponse	1	0.182	n/a	5	53	ButtonPress	Win	True
508.224	0.5	Win2	0.6111	n/a	Yes	2.922	n/a	n/a	GoodResponse	1	n/a	n/a	5	53	Blank	Win	True
508.726	1.45	Win2	0.6111	n/a	Yes	2.922	n/a	5.0	GoodResponse	1	0.025	507.751	5	53	Feedback	Win	True
510.18	2.922	Win2	0.6111	n/a	Yes	2.922	n/a	n/a	GoodResponse	1	0.0	n/a	5	53	ISIslide	Win	True
513.122	0.25	Win2	0.6182	0.0	Yes	2.728	0.022	n/a	GoodResponse	1	n/a	n/a	6	54	Cue	Win	True
513.373	3.95	Win2	0.6182	0.0	Yes	2.728	0.001	n/a	GoodResponse	1	n/a	n/a	6	54	Fixation	Win	True
517.318	0.21	Win2	0.6182	0.004	Yes	2.728	-0.004	3.0	GoodResponse	1	0.173	516.491	6	54	Target	Win	True
517.491	0.3	Win2	0.6182	0.004	Yes	2.728	-0.004	3.0	GoodResponse	1	0.173	n/a	6	54	ButtonPress	Win	True
517.536	0.49	Win2	0.6182	n/a	Yes	2.728	n/a	n/a	GoodResponse	1	n/a	n/a	6	54	Blank	Win	True
518.02	1.45	Win2	0.6182	n/a	Yes	2.728	n/a	5.0	GoodResponse	1	0.048	517.068	6	54	Feedback	Win	True
519.475	2.728	Win2	0.6182	n/a	Yes	2.728	n/a	n/a	GoodResponse	1	0.0	n/a	6	54	ISIslide	Win	True
522.216	0.25	Control	0.625	0.0	Yes	3.034	0.016	n/a	GoodResponse	0	n/a	n/a	6	55	Cue	Neutral	True
522.467	3.95	Control	0.625	0.0	Yes	3.034	0.001	n/a	GoodResponse	0	n/a	n/a	6	55	Fixation	Neutral	True
526.412	0.22	Control	0.625	0.004	Yes	3.034	-0.004	3.0	GoodResponse	0	0.186	525.598	6	55	Target	Neutral	True
526.598	0.3	Control	0.625	0.004	Yes	3.034	-0.004	3.0	GoodResponse	0	0.186	n/a	6	55	ButtonPress	Neutral	True
526.646	0.48	Control	0.625	n/a	Yes	3.034	n/a	n/a	GoodResponse	0	n/a	n/a	6	55	Blank	Neutral	True
527.114	1.45	Control	0.625	n/a	Yes	3.034	n/a	5.0	GoodResponse	0	0.027	526.141	6	55	Feedback	Neutral	True
528.569	3.034	Control	0.625	n/a	Yes	3.034	n/a	n/a	GoodResponse	0	0.0	n/a	6	55	ISIslide	Neutral	True
531.628	0.25	Control	0.6315999999999999	0.0	Yes	2.822	0.028	n/a	GoodResponse	0	n/a	n/a	6	56	Cue	Neutral	True
531.879	3.95	Control	0.6315999999999999	0.0	Yes	2.822	0.001	n/a	GoodResponse	0	n/a	n/a	6	56	Fixation	Neutral	True
535.824	0.23	Control	0.6315999999999999	0.004	Yes	2.822	-0.004	3.0	GoodResponse	0	0.199	535.023	6	56	Target	Neutral	True
536.023	0.3	Control	0.6315999999999999	0.004	Yes	2.822	-0.004	3.0	GoodResponse	0	0.199	n/a	6	56	ButtonPress	Neutral	True
536.058	0.47	Control	0.6315999999999999	n/a	Yes	2.822	n/a	n/a	GoodResponse	0	n/a	n/a	6	56	Blank	Neutral	True
536.526	1.45	Control	0.6315999999999999	n/a	Yes	2.822	n/a	5.0	GoodResponse	0	0.03	535.556	6	56	Feedback	Neutral	True
537.98	2.822	Control	0.6315999999999999	n/a	Yes	2.822	n/a	n/a	GoodResponse	0	0.0	n/a	6	56	ISIslide	Neutral	True
540.822	0.25	Control	0.6379	0.0	Yes	3.478	0.022	n/a	GoodResponse	0	n/a	n/a	6	57	Cue	Neutral	True
541.073	4.0	Control	0.6379	0.0	Yes	3.478	0.001	n/a	GoodResponse	0	n/a	n/a	6	57	Fixation	Neutral	True
545.068	0.24	Control	0.6379	0.004	Yes	3.478	-0.004	3.0	GoodResponse	0	0.19	544.258	6	57	Target	Neutral	True
545.258	0.3	Control	0.6379	0.004	Yes	3.478	-0.004	3.0	GoodResponse	0	0.19	n/a	6	57	ButtonPress	Neutral	True
545.319	0.46	Control	0.6379	n/a	Yes	3.478	n/a	n/a	GoodResponse	0	n/a	n/a	6	57	Blank	Neutral	True
545.77	1.45	Control	0.6379	n/a	Yes	3.478	n/a	5.0	GoodResponse	0	0.005	544.775	6	57	Feedback	Neutral	True
547.224	3.478	Control	0.6379	n/a	Yes	3.478	n/a	n/a	GoodResponse	0	0.0	n/a	6	57	ISIslide	Neutral	True
550.718	0.25	Win2	0.6441	0.0	Yes	2.732	0.018	n/a	GoodResponse	1	n/a	n/a	7	58	Cue	Win	True
550.969	4.05	Win2	0.6441	0.0	Yes	2.732	0.001	n/a	GoodResponse	1	n/a	n/a	7	58	Fixation	Win	True
555.014	0.25	Win2	0.6441	0.004	Yes	2.732	-0.004	3.0	GoodResponse	1	0.157	554.171	7	58	Target	Win	True
555.171	0.3	Win2	0.6441	0.004	Yes	2.732	-0.004	3.0	GoodResponse	1	0.157	n/a	7	58	ButtonPress	Win	True
555.265	0.45	Win2	0.6441	n/a	Yes	2.732	n/a	n/a	GoodResponse	1	n/a	n/a	7	58	Blank	Win	True
555.717	1.45	Win2	0.6441	n/a	Yes	2.732	n/a	5.0	GoodResponse	1	0.01	554.727	7	58	Feedback	Win	True
557.171	2.732	Win2	0.6441	n/a	Yes	2.732	n/a	n/a	GoodResponse	1	0.0	n/a	7	58	ISIslide	Win	True
559.929	0.25	Lose2	0.65	0.0	Yes	2.671	0.029	n/a	GoodResponse	0	n/a	n/a	7	59	Cue	AvoidedLoss	True
560.18	4.0	Lose2	0.65	0.0	Yes	2.671	0.001	n/a	GoodResponse	0	n/a	n/a	7	59	Fixation	AvoidedLoss	True
564.175	0.26	Lose2	0.65	0.004	Yes	2.671	-0.004	3.0	GoodResponse	0	0.175	563.35	7	59	Target	AvoidedLoss	True
564.35	0.3	Lose2	0.65	0.004	Yes	2.671	-0.004	3.0	GoodResponse	0	0.175	n/a	7	59	ButtonPress	AvoidedLoss	True
564.443	0.44	Lose2	0.65	n/a	Yes	2.671	n/a	n/a	GoodResponse	0	n/a	n/a	7	59	Blank	AvoidedLoss	True
564.877	1.45	Lose2	0.65	n/a	Yes	2.671	n/a	5.0	GoodResponse	0	0.019	563.896	7	59	Feedback	AvoidedLoss	True
566.332	2.671	Lose2	0.65	n/a	Yes	2.671	n/a	n/a	GoodResponse	0	0.0	n/a	7	59	ISIslide	AvoidedLoss	True
569.023	0.25	Control	0.6557	0.0	Yes	2.677	0.023	n/a	GoodResponse	0	n/a	n/a	7	60	Cue	Neutral	True
569.274	4.0	Control	0.6557	0.0	Yes	2.677	0.001	n/a	GoodResponse	0	n/a	n/a	7	60	Fixation	Neutral	True
573.269	0.27	Control	0.6557	0.004	Yes	2.677	-0.004	3.0	GoodResponse	0	0.193	572.462	7	60	Target	Neutral	True
573.462	0.3	Control	0.6557	0.004	Yes	2.677	-0.004	3.0	GoodResponse	0	0.193	n/a	7	60	ButtonPress	Neutral	True
573.553	0.43	Control	0.6557	n/a	Yes	2.677	n/a	n/a	GoodResponse	0	n/a	n/a	7	60	Blank	Neutral	True
573.971	1.45	Control	0.6557	n/a	Yes	2.677	n/a	5.0	GoodResponse	0	0.048	573.019	7	60	Feedback	Neutral	True
575.426	2.677	Control	0.6557	n/a	Yes	2.677	n/a	n/a	GoodResponse	0	0.0	n/a	7	60	ISIslide	Neutral	True
578.117	0.25	Lose2	0.6613	0.0	Yes	2.983	0.017	n/a	GoodResponse	0	n/a	n/a	7	61	Cue	AvoidedLoss	True
578.368	4.0	Lose2	0.6613	0.0	Yes	2.983	0.001	n/a	GoodResponse	0	n/a	n/a	7	61	Fixation	AvoidedLoss	True
582.363	0.27	Lose2	0.6613	0.004	Yes	2.983	-0.004	3.0	GoodResponse	0	0.177	581.54	7	61	Target	AvoidedLoss	True
582.54	0.3	Lose2	0.6613	0.004	Yes	2.983	-0.004	3.0	GoodResponse	0	0.177	n/a	7	61	ButtonPress	AvoidedLoss	True
582.647	0.43	Lose2	0.6613	n/a	Yes	2.983	n/a	n/a	GoodResponse	0	n/a	n/a	7	61	Blank	AvoidedLoss	True
583.065	1.45	Lose2	0.6613	n/a	Yes	2.983	n/a	5.0	GoodResponse	0	0.027	582.092	7	61	Feedback	AvoidedLoss	True
584.519	2.983	Lose2	0.6613	n/a	Yes	2.983	n/a	n/a	GoodResponse	0	0.0	n/a	7	61	ISIslide	AvoidedLoss	True
587.528	0.25	Lose2	0.6667000000000001	0.001	Yes	2.872	0.028	n/a	GoodResponse	0	n/a	n/a	7	62	Cue	AvoidedLoss	True
587.779	3.9	Lose2	0.6667000000000001	0.0	Yes	2.872	0.001	n/a	GoodResponse	0	n/a	n/a	7	62	Fixation	AvoidedLoss	True
591.674	0.27	Lose2	0.6667000000000001	0.004	Yes	2.872	-0.004	3.0	GoodResponse	0	0.177	590.851	7	62	Target	AvoidedLoss	True
591.851	0.3	Lose2	0.6667000000000001	0.004	Yes	2.872	-0.004	3.0	GoodResponse	0	0.177	n/a	7	62	ButtonPress	AvoidedLoss	True
591.958	0.43	Lose2	0.6667000000000001	n/a	Yes	2.872	n/a	n/a	GoodResponse	0	n/a	n/a	7	62	Blank	AvoidedLoss	True
592.376	1.45	Lose2	0.6667000000000001	n/a	Yes	2.872	n/a	5.0	GoodResponse	0	0.033	591.409	7	62	Feedback	AvoidedLoss	True
593.831	2.872	Lose2	0.6667000000000001	n/a	Yes	2.872	n/a	n/a	GoodResponse	0	0.0	n/a	7	62	ISIslide	AvoidedLoss	True
596.723	0.25	Lose2	0.6718999999999999	0.0	Yes	2.627	0.023	n/a	GoodResponse	0	n/a	n/a	7	63	Cue	AvoidedLoss	True
596.973	4.05	Lose2	0.6718999999999999	0.0	Yes	2.627	0.0	n/a	GoodResponse	0	n/a	n/a	7	63	Fixation	AvoidedLoss	True
601.019	0.26	Lose2	0.6718999999999999	0.004	Yes	2.627	-0.004	3.0	GoodResponse	0	0.161	600.18	7	63	Target	AvoidedLoss	True
601.18	0.3	Lose2	0.6718999999999999	0.004	Yes	2.627	-0.004	3.0	GoodResponse	0	0.161	n/a	7	63	ButtonPress	AvoidedLoss	True
601.286	0.44	Lose2	0.6718999999999999	n/a	Yes	2.627	n/a	n/a	GoodResponse	0	n/a	n/a	7	63	Blank	AvoidedLoss	True
601.721	1.45	Lose2	0.6718999999999999	n/a	Yes	2.627	n/a	5.0	GoodResponse	0	0.006	600.727	7	63	Feedback	AvoidedLoss	True
603.175	2.627	Lose2	0.6718999999999999	n/a	Yes	2.627	n/a	n/a	GoodResponse	0	0.0	n/a	7	63	ISIslide	AvoidedLoss	True
605.817	0.25	Win2	0.6769	0.0	Yes	3.133	0.017	n/a	GoodResponse	1	n/a	n/a	8	64	Cue	Win	True
606.067	4.15	Win2	0.6769	0.0	Yes	3.133	0.0	n/a	GoodResponse	1	n/a	n/a	8	64	Fixation	Win	True
610.213	0.25	Win2	0.6769	0.004	Yes	3.133	-0.004	3.0	GoodResponse	1	0.154	609.367	8	64	Target	Win	True
610.367	0.3	Win2	0.6769	0.004	Yes	3.133	-0.004	3.0	GoodResponse	1	0.154	n/a	8	64	ButtonPress	Win	True
610.464	0.45	Win2	0.6769	n/a	Yes	3.133	n/a	n/a	GoodResponse	1	n/a	n/a	8	64	Blank	Win	True
610.915	1.45	Win2	0.6769	n/a	Yes	3.133	n/a	5.0	GoodResponse	1	0.03	609.945	8	64	Feedback	Win	True
612.369	3.133	Win2	0.6769	n/a	Yes	3.133	n/a	n/a	GoodResponse	1	0.0	n/a	8	64	ISIslide	Win	True
615.529	0.25	Control	0.6818000000000001	0.0	Yes	2.771	0.029	n/a	GoodResponse	0	n/a	n/a	8	65	Cue	Neutral	True
615.78	4.0	Control	0.6818000000000001	0.0	Yes	2.771	0.001	n/a	GoodResponse	0	n/a	n/a	8	65	Fixation	Neutral	True
619.775	0.24	Control	0.6818000000000001	0.004	Yes	2.771	-0.004	3.0	GoodResponse	0	0.19	618.965	8	65	Target	Neutral	True
619.965	0.3	Control	0.6818000000000001	0.004	Yes	2.771	-0.004	3.0	GoodResponse	0	0.19	n/a	8	65	ButtonPress	Neutral	True
620.026	0.46	Control	0.6818000000000001	n/a	Yes	2.771	n/a	n/a	GoodResponse	0	n/a	n/a	8	65	Blank	Neutral	True
620.477	1.45	Control	0.6818000000000001	n/a	Yes	2.771	n/a	5.0	GoodResponse	0	0.029	619.506	8	65	Feedback	Neutral	True
621.931	2.771	Control	0.6818000000000001	n/a	Yes	2.771	n/a	n/a	GoodResponse	0	0.0	n/a	8	65	ISIslide	Neutral	True
624.723	0.25	Win2	0.6866	0.0	Yes	2.777	0.023	n/a	GoodResponse	1	n/a	n/a	9	66	Cue	Win	True
624.974	3.9	Win2	0.6866	0.0	Yes	2.777	0.001	n/a	GoodResponse	1	n/a	n/a	9	66	Fixation	Win	True
628.869	0.23	Win2	0.6866	0.004	Yes	2.777	-0.004	3.0	GoodResponse	1	0.165	628.034	9	66	Target	Win	True
629.034	0.3	Win2	0.6866	0.004	Yes	2.777	-0.004	3.0	GoodResponse	1	0.165	n/a	9	66	ButtonPress	Win	True
629.103	0.47	Win2	0.6866	n/a	Yes	2.777	n/a	n/a	GoodResponse	1	n/a	n/a	9	66	Blank	Win	True
629.571	1.45	Win2	0.6866	n/a	Yes	2.777	n/a	5.0	GoodResponse	1	0.008	628.579	9	66	Feedback	Win	True
631.025	2.777	Win2	0.6866	n/a	Yes	2.777	n/a	n/a	GoodResponse	1	0.0	n/a	9	66	ISIslide	Win	True
633.817	0.25	Control	0.6912	0.0	Yes	2.733	0.017	n/a	GoodResponse	0	n/a	n/a	9	67	Cue	Neutral	True
634.068	3.95	Control	0.6912	0.0	Yes	2.733	0.001	n/a	GoodResponse	0	n/a	n/a	9	67	Fixation	Neutral	True
638.013	0.22	Control	0.6912	0.004	Yes	2.733	-0.004	3.0	GoodResponse	0	0.215	637.228	9	67	Target	Neutral	True
638.228	0.3	Control	0.6912	0.004	Yes	2.733	-0.004	3.0	GoodResponse	0	0.215	n/a	9	67	ButtonPress	Neutral	True
638.247	0.48	Control	0.6912	n/a	Yes	2.733	n/a	n/a	GoodResponse	0	n/a	n/a	9	67	Blank	Neutral	True
638.715	1.45	Control	0.6912	n/a	Yes	2.733	n/a	5.0	GoodResponse	0	0.035	637.75	9	67	Feedback	Neutral	True
640.169	2.733	Control	0.6912	n/a	Yes	2.733	n/a	n/a	GoodResponse	0	0.0	n/a	9	67	ISIslide	Neutral	True
642.928	0.25	Win2	0.6957	0.0	Yes	3.072	0.028	n/a	GoodResponse	1	n/a	n/a	10	68	Cue	Win	True
643.178	4.0	Win2	0.6957	0.0	Yes	3.072	0.0	n/a	GoodResponse	1	n/a	n/a	10	68	Fixation	Win	True
647.174	0.21	Win2	0.6957	0.004	Yes	3.072	-0.004	3.0	GoodResponse	1	0.188	646.362	10	68	Target	Win	True
647.362	0.3	Win2	0.6957	0.004	Yes	3.072	-0.004	3.0	GoodResponse	1	0.188	n/a	10	68	ButtonPress	Win	True
647.391	0.49	Win2	0.6957	n/a	Yes	3.072	n/a	n/a	GoodResponse	1	n/a	n/a	10	68	Blank	Win	True
647.876	1.45	Win2	0.6957	n/a	Yes	3.072	n/a	5.0	GoodResponse	1	0.045	646.921	10	68	Feedback	Win	True
649.33	3.072	Win2	0.6957	n/a	Yes	3.072	n/a	n/a	GoodResponse	1	0.0	n/a	10	68	ISIslide	Win	True
652.423	0.25	Win2	0.7	0.0	Yes	3.227	0.023	n/a	GoodResponse	1	n/a	n/a	11	69	Cue	Win	True
652.673	3.95	Win2	0.7	0.001	Yes	3.227	0.0	n/a	GoodResponse	1	n/a	n/a	11	69	Fixation	Win	True
656.619	0.2	Win2	0.7	0.004	Yes	3.227	-0.004	3.0	GoodResponse	1	0.183	655.802	11	69	Target	Win	True
656.802	0.3	Win2	0.7	0.004	Yes	3.227	-0.004	3.0	GoodResponse	1	0.183	n/a	11	69	ButtonPress	Win	True
656.819	0.5	Win2	0.7	n/a	Yes	3.227	n/a	n/a	GoodResponse	1	n/a	n/a	11	69	Blank	Win	True
657.321	1.45	Win2	0.7	n/a	Yes	3.227	n/a	5.0	GoodResponse	1	0.013	656.334	11	69	Feedback	Win	True
658.775	3.227	Win2	0.7	n/a	Yes	3.227	n/a	n/a	GoodResponse	1	0.0	n/a	11	69	ISIslide	Win	True
662.018	0.25	Lose2	0.7042	0.0	Yes	3.032	0.018	n/a	GoodResponse	0	n/a	n/a	11	70	Cue	AvoidedLoss	True
662.269	4.05	Lose2	0.7042	0.0	Yes	3.032	0.001	n/a	GoodResponse	0	n/a	n/a	11	70	Fixation	AvoidedLoss	True
666.314	0.19	Lose2	0.7042	0.004	Yes	3.032	-0.004	3.0	GoodResponse	0	0.189	665.503	11	70	Target	AvoidedLoss	True
666.503	0.3	Lose2	0.7042	0.004	Yes	3.032	-0.004	3.0	GoodResponse	0	0.189	n/a	11	70	ButtonPress	AvoidedLoss	True
666.515	0.51	Lose2	0.7042	n/a	Yes	3.032	n/a	n/a	GoodResponse	0	n/a	n/a	11	70	Blank	AvoidedLoss	True
667.016	1.45	Lose2	0.7042	n/a	Yes	3.032	n/a	5.0	GoodResponse	0	0.026	666.042	11	70	Feedback	AvoidedLoss	True
668.471	3.032	Lose2	0.7042	n/a	Yes	3.032	n/a	n/a	GoodResponse	0	0.0	n/a	11	70	ISIslide	AvoidedLoss	True
671.53	0.25	Win2	0.7082999999999999	0.0	Yes	2.72	0.03	n/a	GoodResponse	1	n/a	n/a	12	71	Cue	Win	True
671.781	4.05	Win2	0.7082999999999999	0.0	Yes	2.72	0.001	n/a	GoodResponse	1	n/a	n/a	12	71	Fixation	Win	True
675.826	0.18	Win2	0.7082999999999999	0.004	Yes	2.72	-0.004	3.0	GoodResponse	1	0.171	674.997	12	71	Target	Win	True
675.997	0.3	Win2	0.7082999999999999	0.004	Yes	2.72	-0.004	3.0	GoodResponse	1	0.171	n/a	12	71	ButtonPress	Win	True
676.01	0.52	Win2	0.7082999999999999	n/a	Yes	2.72	n/a	n/a	GoodResponse	1	n/a	n/a	12	71	Blank	Win	True
676.528	1.45	Win2	0.7082999999999999	n/a	Yes	2.72	n/a	5.0	GoodResponse	1	0.026	675.554	12	71	Feedback	Win	True
677.983	2.72	Win2	0.7082999999999999	n/a	Yes	2.72	n/a	n/a	GoodResponse	1	0.0	n/a	12	71	ISIslide	Win	True
680.724	0.25	Win2	0.6986	0.0	No	2.776	0.024	n/a	NoResponse	0	n/a	n/a	12	72	Cue	MissedWin	True
680.975	4.1	Win2	0.6986	0.0	No	2.776	0.001	n/a	NoResponse	0	n/a	n/a	12	72	Fixation	MissedWin	True
685.07	0.17	Win2	0.6986	0.004	No	2.776	-0.004	3.0	NoResponse	0	0.193	684.263	12	72	Target	MissedWin	True
685.254	0.53	Win2	0.6986	n/a	No	2.776	n/a	n/a	NoResponse	0	n/a	n/a	12	72	Blank	MissedWin	True
685.263	0.3	Win2	0.6986	0.004	No	2.776	-0.004	3.0	NoResponse	0	0.193	n/a	12	72	ButtonPress	MissedWin	True
685.773	1.45	Win2	0.6986	n/a	No	2.776	n/a	5.0	NoResponse	0	0.001	684.774	12	72	Feedback	MissedWin	True
687.227	2.776	Win2	0.6986	n/a	No	2.776	n/a	n/a	NoResponse	0	0.0	n/a	12	72	ISIslide	MissedWin	True
690.019	0.25	Win2	0.6892	0.0	No	2.681	0.019	n/a	NoResponse	0	n/a	n/a	12	73	Cue	MissedWin	True
690.269	4.0	Win2	0.6892	0.0	No	2.681	0.0	n/a	NoResponse	0	n/a	n/a	12	73	Fixation	MissedWin	True
694.265	0.16	Win2	0.6892	0.004	No	2.681	-0.004	3.0	NoResponse	0	0.178	693.443	12	73	Target	MissedWin	True
694.432	0.54	Win2	0.6892	n/a	No	2.681	n/a	n/a	NoResponse	0	n/a	n/a	12	73	Blank	MissedWin	True
694.443	0.3	Win2	0.6892	0.004	No	2.681	-0.004	3.0	NoResponse	0	0.178	n/a	12	73	ButtonPress	MissedWin	True
694.967	1.45	Win2	0.6892	n/a	No	2.681	n/a	5.0	NoResponse	0	0.026	693.993	12	73	Feedback	MissedWin	True
696.421	2.681	Win2	0.6892	n/a	No	2.681	n/a	n/a	NoResponse	0	0.0	n/a	12	73	ISIslide	MissedWin	True
699.129	0.25	Lose2	0.68	0.0	No	2.621	0.029	n/a	NoResponse	-1	n/a	n/a	11	74	Cue	Loss	True
699.38	4.05	Lose2	0.68	0.0	No	2.621	0.001	n/a	NoResponse	-1	n/a	n/a	11	74	Fixation	Loss	True
703.425	0.15	Lose2	0.68	0.004	No	2.621	-0.004	3.0	NoResponse	-1	0.171	702.596	11	74	Target	Loss	True
703.576	0.55	Lose2	0.68	n/a	No	2.621	n/a	n/a	NoResponse	-1	n/a	n/a	11	74	Blank	Loss	True
703.596	0.3	Lose2	0.68	0.004	No	2.621	-0.004	3.0	NoResponse	-1	0.171	n/a	11	74	ButtonPress	Loss	True
704.127	1.45	Lose2	0.68	n/a	No	2.621	n/a	5.0	NoResponse	-1	0.037	703.164	11	74	Feedback	Loss	True
705.582	2.621	Lose2	0.68	n/a	No	2.621	n/a	n/a	NoResponse	-1	0.0	n/a	11	74	ISIslide	Loss	True
708.223	0.25	Lose2	0.6711	0.0	No	2.927	0.023	n/a	NoResponse	-1	n/a	n/a	10	75	Cue	Loss	True
708.474	3.95	Lose2	0.6711	0.0	No	2.927	0.001	n/a	NoResponse	-1	n/a	n/a	10	75	Fixation	Loss	True
712.419	0.15	Lose2	0.6711	0.004	No	2.927	-0.004	3.0	NoResponse	-1	0.162	711.581	10	75	Target	Loss	True
712.569	0.55	Lose2	0.6711	n/a	No	2.927	n/a	n/a	NoResponse	-1	n/a	n/a	10	75	Blank	Loss	True
712.581	0.3	Lose2	0.6711	0.004	No	2.927	-0.004	3.0	NoResponse	-1	0.162	n/a	10	75	ButtonPress	Loss	True
713.121	1.45	Lose2	0.6711	n/a	No	2.927	n/a	5.0	NoResponse	-1	0.018	712.139	10	75	Feedback	Loss	True
714.575	2.927	Lose2	0.6711	n/a	No	2.927	n/a	n/a	NoResponse	-1	0.0	n/a	10	75	ISIslide	Loss	True
717.518	0.25	Control	0.6623	0.0	No	3.232	0.018	n/a	NoResponse	0	n/a	n/a	10	76	Cue	Neutral	True
717.768	4.05	Control	0.6623	0.0	No	3.232	0.0	n/a	NoResponse	0	n/a	n/a	10	76	Fixation	Neutral	True
721.814	0.15	Control	0.6623	0.004	No	3.232	-0.004	3.0	NoResponse	0	0.193	721.007	10	76	Target	Neutral	True
721.964	0.55	Control	0.6623	n/a	No	3.232	n/a	n/a	NoResponse	0	n/a	n/a	10	76	Blank	Neutral	True
722.007	0.3	Control	0.6623	0.004	No	3.232	-0.004	3.0	NoResponse	0	0.193	n/a	10	76	ButtonPress	Neutral	True
722.516	1.45	Control	0.6623	n/a	No	3.232	n/a	5.0	NoResponse	0	0.038	721.554	10	76	Feedback	Neutral	True
723.97	3.232	Control	0.6623	n/a	No	3.232	n/a	n/a	NoResponse	0	0.0	n/a	10	76	ISIslide	Neutral	True
727.23	0.25	Lose2	0.6537999999999999	0.0	No	2.57	0.03	n/a	NoResponse	-1	n/a	n/a	9	77	Cue	Loss	True
727.481	3.95	Lose2	0.6537999999999999	0.0	No	2.57	0.001	n/a	NoResponse	-1	n/a	n/a	9	77	Fixation	Loss	True
731.426	0.15	Lose2	0.6537999999999999	0.004	No	2.57	-0.004	3.0	NoResponse	-1	0.167	730.593	9	77	Target	Loss	True
731.576	0.55	Lose2	0.6537999999999999	n/a	No	2.57	n/a	n/a	NoResponse	-1	n/a	n/a	9	77	Blank	Loss	True
731.593	0.3	Lose2	0.6537999999999999	0.004	No	2.57	-0.004	3.0	NoResponse	-1	0.167	n/a	9	77	ButtonPress	Loss	True
732.128	1.45	Lose2	0.6537999999999999	n/a	No	2.57	n/a	5.0	NoResponse	-1	0.036	731.164	9	77	Feedback	Loss	True
733.582	2.57	Lose2	0.6537999999999999	n/a	No	2.57	n/a	n/a	NoResponse	-1	0.0	n/a	9	77	ISIslide	Loss	True
