onset	duration	cue_type	current_mean_accuracy	duration_error	is_hit	isi_adjusted	onset_delay	response	response_type	reward	rt	rt_time	total_reward	trial_number	trial_phase	trial_type	one_press
11.102	0.25	Control	1.0	0.0	Yes	2.948	0.002	n/a	GoodResponse	0	n/a	n/a	0	0	Cue	Neutral	True
11.353	3.85	Control	1.0	0.0	Yes	2.948	0.001	n/a	GoodResponse	0	n/a	n/a	0	0	Fixation	Neutral	True
15.198	0.4	Control	1.0	0.004	Yes	2.948	-0.004	2.0	GoodResponse	0	0.252	14.45	0	0	Target	Neutral	True
15.45	0.3	Control	1.0	0.004	Yes	2.948	-0.004	2.0	GoodResponse	0	0.252	n/a	0	0	ButtonPress	Neutral	True
15.599	0.3	Control	1.0	n/a	Yes	2.948	n/a	n/a	GoodResponse	0	n/a	n/a	0	0	Blank	Neutral	True
15.9	1.45	Control	1.0	n/a	Yes	2.948	n/a	5.0	GoodResponse	0	0.027	14.927	0	0	Feedback	Neutral	True
17.354	2.948	Control	1.0	n/a	Yes	2.948	n/a	n/a	GoodResponse	0	0.0	n/a	0	0	ISIslide	Neutral	True
20.33	0.25	Lose2	1.0	0.0	Yes	2.77	0.03	n/a	GoodResponse	0	n/a	n/a	0	1	Cue	AvoidedLoss	True
20.581	4.0	Lose2	1.0	0.0	Yes	2.77	0.001	n/a	GoodResponse	0	n/a	n/a	0	1	Fixation	AvoidedLoss	True
24.576	0.39	Lose2	1.0	0.004	Yes	2.77	-0.004	2.0	GoodResponse	0	0.29	23.866	0	1	Target	AvoidedLoss	True
24.866	0.3	Lose2	1.0	0.004	Yes	2.77	-0.004	2.0	GoodResponse	0	0.29	n/a	0	1	ButtonPress	AvoidedLoss	True
24.977	0.31	Lose2	1.0	n/a	Yes	2.77	n/a	n/a	GoodResponse	0	n/a	n/a	0	1	Blank	AvoidedLoss	True
25.278	1.45	Lose2	1.0	n/a	Yes	2.77	n/a	5.0	GoodResponse	0	0.015	24.293	0	1	Feedback	AvoidedLoss	True
26.732	2.77	Lose2	1.0	n/a	Yes	2.77	n/a	n/a	GoodResponse	0	0.0	n/a	0	1	ISIslide	AvoidedLoss	True
29.524	0.25	Control	1.0	0.0	Yes	2.576	0.024	n/a	GoodResponse	0	n/a	n/a	0	2	Cue	Neutral	True
29.775	4.1	Control	1.0	0.0	Yes	2.576	0.001	n/a	GoodResponse	0	n/a	n/a	0	2	Fixation	Neutral	True
33.87	0.38	Control	1.0	0.004	Yes	2.576	-0.004	2.0	GoodResponse	0	0.232	33.102	0	2	Target	Neutral	True
34.102	0.3	Control	1.0	0.004	Yes	2.576	-0.004	2.0	GoodResponse	0	0.232	n/a	0	2	ButtonPress	Neutral	True
34.255	0.32	Control	1.0	n/a	Yes	2.576	n/a	n/a	GoodResponse	0	n/a	n/a	0	2	Blank	Neutral	True
34.572	1.45	Control	1.0	n/a	Yes	2.576	n/a	5.0	GoodResponse	0	0.037	33.609	0	2	Feedback	Neutral	True
36.027	2.576	Control	1.0	n/a	Yes	2.576	n/a	n/a	GoodResponse	0	0.0	n/a	0	2	ISIslide	Neutral	True
38.618	0.25	Win2	1.0	0.0	Yes	2.832	0.018	n/a	GoodResponse	1	n/a	n/a	1	3	Cue	Win	True
38.869	3.95	Win2	1.0	0.0	Yes	2.832	0.001	n/a	GoodResponse	1	n/a	n/a	1	3	Fixation	Win	True
42.814	0.37	Win2	1.0	0.004	Yes	2.832	-0.004	2.0	GoodResponse	1	0.227	42.041	1	3	Target	Win	True
43.041	0.3	Win2	1.0	0.004	Yes	2.832	-0.004	2.0	GoodResponse	1	0.227	n/a	1	3	ButtonPress	Win	True
43.198	0.33	Win2	1.0	n/a	Yes	2.832	n/a	n/a	GoodResponse	1	n/a	n/a	1	3	Blank	Win	True
43.516	1.45	Win2	1.0	n/a	Yes	2.832	n/a	5.0	GoodResponse	1	0.02	42.536	1	3	Feedback	Win	True
44.97	2.832	Win2	1.0	n/a	Yes	2.832	n/a	n/a	GoodResponse	1	0.0	n/a	1	3	ISIslide	Win	True
47.829	0.25	Win2	1.0	0.0	Yes	3.271	0.029	n/a	GoodResponse	1	n/a	n/a	2	4	Cue	Win	True
48.079	4.0	Win2	1.0	0.0	Yes	3.271	0.0	n/a	GoodResponse	1	n/a	n/a	2	4	Fixation	Win	True
52.075	0.36	Win2	1.0	0.004	Yes	3.271	-0.004	2.0	GoodResponse	1	0.264	51.339	2	4	Target	Win	True
52.339	0.3	Win2	1.0	0.004	Yes	3.271	-0.004	2.0	GoodResponse	1	0.264	n/a	2	4	ButtonPress	Win	True
52.442	0.34	Win2	1.0	n/a	Yes	3.271	n/a	n/a	GoodResponse	1	n/a	n/a	2	4	Blank	Win	True
52.777	1.45	Win2	1.0	n/a	Yes	3.271	n/a	5.0	GoodResponse	1	0.027	51.804	2	4	Feedback	Win	True
54.231	3.271	Win2	1.0	n/a	Yes	3.271	n/a	n/a	GoodResponse	1	0.0	n/a	2	4	ISIslide	Win	True
57.524	0.25	Win2	1.0	0.0	Yes	2.776	0.024	n/a	GoodResponse	1	n/a	n/a	3	5	Cue	Win	True
57.775	4.0	Win2	1.0	0.0	Yes	2.776	0.001	n/a	GoodResponse	1	n/a	n/a	3	5	Fixation	Win	True
61.77	0.35	Win2	1.0	0.004	Yes	2.776	-0.004	2.0	GoodResponse	1	0.288	61.058	3	5	Target	Win	True
62.058	0.3	Win2	1.0	0.004	Yes	2.776	-0.004	2.0	GoodResponse	1	0.288	n/a	3	5	ButtonPress	Win	True
62.121	0.35	Win2	1.0	n/a	Yes	2.776	n/a	n/a	GoodResponse	1	n/a	n/a	3	5	Blank	Win	True
62.472	1.45	Win2	1.0	n/a	Yes	2.776	n/a	5.0	GoodResponse	1	0.04	61.512	3	5	Feedback	Win	True
63.927	2.776	Win2	1.0	n/a	Yes	2.776	n/a	n/a	GoodResponse	1	0.0	n/a	3	5	ISIslide	Win	True
66.718	0.25	Lose2	1.0	0.001	Yes	2.732	0.018	n/a	GoodResponse	0	n/a	n/a	3	6	Cue	AvoidedLoss	True
66.969	3.95	Lose2	1.0	0.0	Yes	2.732	0.001	n/a	GoodResponse	0	n/a	n/a	3	6	Fixation	AvoidedLoss	True
70.914	0.34	Lose2	1.0	0.004	Yes	2.732	-0.004	2.0	GoodResponse	0	0.29	70.204	3	6	Target	AvoidedLoss	True
71.204	0.3	Lose2	1.0	0.004	Yes	2.732	-0.004	2.0	GoodResponse	0	0.29	n/a	3	6	ButtonPress	AvoidedLoss	True
71.265	0.36	Lose2	1.0	n/a	Yes	2.732	n/a	n/a	GoodResponse	0	n/a	n/a	3	6	Blank	AvoidedLoss	True
71.616	1.45	Lose2	1.0	n/a	Yes	2.732	n/a	5.0	GoodResponse	0	0.017	70.633	3	6	Feedback	AvoidedLoss	True
73.071	2.732	Lose2	1.0	n/a	Yes	2.732	n/a	n/a	GoodResponse	0	0.0	n/a	3	6	ISIslide	AvoidedLoss	True
75.829	0.25	Lose2	1.0	0.0	Yes	4.021	0.029	n/a	GoodResponse	0	n/a	n/a	3	7	Cue	AvoidedLoss	True
76.08	4.05	Lose2	1.0	0.0	Yes	4.021	0.001	n/a	GoodResponse	0	n/a	n/a	3	7	Fixation	AvoidedLoss	True
80.125	0.33	Lose2	1.0	0.004	Yes	4.021	-0.004	2.0	GoodResponse	0	0.271	79.396	3	7	Target	AvoidedLoss	True
80.396	0.3	Lose2	1.0	0.004	Yes	4.021	-0.004	2.0	GoodResponse	0	0.271	n/a	3	7	ButtonPress	AvoidedLoss	True
80.46	0.37	Lose2	1.0	n/a	Yes	4.021	n/a	n/a	GoodResponse	0	n/a	n/a	3	7	Blank	AvoidedLoss	True
80.827	1.45	Lose2	1.0	n/a	Yes	4.021	n/a	5.0	GoodResponse	0	0.025	79.852	3	7	Feedback	AvoidedLoss	True
82.282	4.021	Lose2	1.0	n/a	Yes	4.021	n/a	n/a	GoodResponse	0	0.0	n/a	3	7	ISIslide	AvoidedLoss	True
86.327	0.25	Lose2	1.0	0.0	Yes	3.023	0.027	n/a	GoodResponse	0	n/a	n/a	3	8	Cue	AvoidedLoss	True
86.578	3.95	Lose2	1.0	0.0	Yes	3.023	0.001	n/a	GoodResponse	0	n/a	n/a	3	8	Fixation	AvoidedLoss	True
90.523	0.32	Lose2	1.0	0.004	Yes	3.023	-0.004	2.0	GoodResponse	0	0.27	89.793	3	8	Target	AvoidedLoss	True
90.793	0.3	Lose2	1.0	0.004	Yes	3.023	-0.004	2.0	GoodResponse	0	0.27	n/a	3	8	ButtonPress	AvoidedLoss	True
90.857	0.38	Lose2	1.0	n/a	Yes	3.023	n/a	n/a	GoodResponse	0	n/a	n/a	3	8	Blank	AvoidedLoss	True
91.225	1.45	Lose2	1.0	n/a	Yes	3.023	n/a	5.0	GoodResponse	0	0.018	90.243	3	8	Feedback	AvoidedLoss	True
92.679	3.023	Lose2	1.0	n/a	Yes	3.023	n/a	n/a	GoodResponse	0	0.0	n/a	3	8	ISIslide	AvoidedLoss	True
95.722	0.25	Lose2	1.0	0.0	Yes	3.128	0.022	n/a	GoodResponse	0	n/a	n/a	3	9	Cue	AvoidedLoss	True
95.973	3.95	Lose2	1.0	0.0	Yes	3.128	0.001	n/a	GoodResponse	0	n/a	n/a	3	9	Fixation	AvoidedLoss	True
99.918	0.31	Lose2	1.0	0.004	Yes	3.128	-0.004	2.0	GoodResponse	0	0.265	99.183	3	9	Target	AvoidedLoss	True
100.183	0.3	Lose2	1.0	0.004	Yes	3.128	-0.004	2.0	GoodResponse	0	0.265	n/a	3	9	ButtonPress	AvoidedLoss	True
100.235	0.39	Lose2	1.0	n/a	Yes	3.128	n/a	n/a	GoodResponse	0	n/a	n/a	3	9	Blank	AvoidedLoss	True
100.62	1.45	Lose2	1.0	n/a	Yes	3.128	n/a	5.0	GoodResponse	0	0.037	99.657	3	9	Feedback	AvoidedLoss	True
102.074	3.128	Lose2	1.0	n/a	Yes	3.128	n/a	n/a	GoodResponse	0	0.0	n/a	3	9	ISIslide	AvoidedLoss	True
105.217	0.25	Control	1.0	0.0	Yes	3.283	0.017	n/a	GoodResponse	0	n/a	n/a	3	10	Cue	Neutral	True
105.468	4.0	Control	1.0	0.0	Yes	3.283	0.001	n/a	GoodResponse	0	n/a	n/a	3	10	Fixation	Neutral	True
109.463	0.3	Control	1.0	0.004	Yes	3.283	-0.004	2.0	GoodResponse	0	0.231	108.694	3	10	Target	Neutral	True
109.694	0.3	Control	1.0	0.004	Yes	3.283	-0.004	2.0	GoodResponse	0	0.231	n/a	3	10	ButtonPress	Neutral	True
109.764	0.4	Control	1.0	n/a	Yes	3.283	n/a	n/a	GoodResponse	0	n/a	n/a	3	10	Blank	Neutral	True
110.165	1.45	Control	1.0	n/a	Yes	3.283	n/a	5.0	GoodResponse	0	0.005	109.17	3	10	Feedback	Neutral	True
111.619	3.283	Control	1.0	n/a	Yes	3.283	n/a	n/a	GoodResponse	0	0.0	n/a	3	10	ISIslide	Neutral	True
114.929	0.25	Lose2	1.0	0.0	Yes	2.721	0.029	n/a	GoodResponse	0	n/a	n/a	3	11	Cue	AvoidedLoss	True
115.18	4.05	Lose2	1.0	0.0	Yes	2.721	0.001	n/a	GoodResponse	0	n/a	n/a	3	11	Fixation	AvoidedLoss	True
119.225	0.29	Lose2	1.0	0.004	Yes	2.721	-0.004	2.0	GoodResponse	0	0.276	118.501	3	11	Target	AvoidedLoss	True
119.501	0.3	Lose2	1.0	0.004	Yes	2.721	-0.004	2.0	GoodResponse	0	0.276	n/a	3	11	ButtonPress	AvoidedLoss	True
119.526	0.41	Lose2	1.0	n/a	Yes	2.721	n/a	n/a	GoodResponse	0	n/a	n/a	3	11	Blank	AvoidedLoss	True
119.928	1.45	Lose2	1.0	n/a	Yes	2.721	n/a	5.0	GoodResponse	0	0.046	118.974	3	11	Feedback	AvoidedLoss	True
121.382	2.721	Lose2	1.0	n/a	Yes	2.721	n/a	n/a	GoodResponse	0	0.0	n/a	3	11	ISIslide	AvoidedLoss	True
124.123	0.25	Control	1.0	0.001	Yes	2.977	0.023	n/a	GoodResponse	0	n/a	n/a	3	12	Cue	Neutral	True
124.374	3.9	Control	1.0	0.0	Yes	2.977	0.001	n/a	GoodResponse	0	n/a	n/a	3	12	Fixation	Neutral	True
128.269	0.28	Control	1.0	0.004	Yes	2.977	-0.004	2.0	GoodResponse	0	0.221	127.49	3	12	Target	Neutral	True
128.49	0.3	Control	1.0	0.004	Yes	2.977	-0.004	2.0	GoodResponse	0	0.221	n/a	3	12	ButtonPress	Neutral	True
128.553	0.42	Control	1.0	n/a	Yes	2.977	n/a	n/a	GoodResponse	0	n/a	n/a	3	12	Blank	Neutral	True
128.971	1.45	Control	1.0	n/a	Yes	2.977	n/a	5.0	GoodResponse	0	0.027	127.998	3	12	Feedback	Neutral	True
130.426	2.977	Control	1.0	n/a	Yes	2.977	n/a	n/a	GoodResponse	0	0.0	n/a	3	12	ISIslide	Neutral	True
133.418	0.25	Control	1.0	0.0	Yes	2.782	0.018	n/a	GoodResponse	0	n/a	n/a	3	13	Cue	Neutral	True
133.669	4.0	Control	1.0	0.0	Yes	2.782	0.001	n/a	GoodResponse	0	n/a	n/a	3	13	Fixation	Neutral	True
137.664	0.27	Control	1.0	0.004	Yes	2.782	-0.004	2.0	GoodResponse	0	0.232	136.896	3	13	Target	Neutral	True
137.896	0.3	Control	1.0	0.004	Yes	2.782	-0.004	2.0	GoodResponse	0	0.232	n/a	3	13	ButtonPress	Neutral	True
137.948	0.43	Control	1.0	n/a	Yes	2.782	n/a	n/a	GoodResponse	0	n/a	n/a	3	13	Blank	Neutral	True
138.366	1.45	Control	1.0	n/a	Yes	2.782	n/a	5.0	GoodResponse	0	0.047	137.413	3	13	Feedback	Neutral	True
139.82	2.782	Control	1.0	n/a	Yes	2.782	n/a	n/a	GoodResponse	0	0.0	n/a	3	13	ISIslide	Neutral	True
142.629	0.25	Win2	1.0	0.0	Yes	2.671	0.029	n/a	GoodResponse	1	n/a	n/a	4	14	Cue	Win	True
142.879	4.1	Win2	1.0	0.001	Yes	2.671	0.0	n/a	GoodResponse	1	n/a	n/a	4	14	Fixation	Win	True
146.975	0.26	Win2	1.0	0.004	Yes	2.671	-0.004	2.0	GoodResponse	1	0.211	146.186	4	14	Target	Win	True
147.186	0.3	Win2	1.0	0.004	Yes	2.671	-0.004	2.0	GoodResponse	1	0.211	n/a	4	14	ButtonPress	Win	True
147.243	0.44	Win2	1.0	n/a	Yes	2.671	n/a	n/a	GoodResponse	1	n/a	n/a	4	14	Blank	Win	True
147.677	1.45	Win2	1.0	n/a	Yes	2.671	n/a	5.0	GoodResponse	1	0.004	146.681	4	14	Feedback	Win	True
149.132	2.671	Win2	1.0	n/a	Yes	2.671	n/a	n/a	GoodResponse	1	0.0	n/a	4	14	ISIslide	Win	True
151.823	0.25	Control	0.9375	0.0	No	2.977	0.023	n/a	NoResponse	0	n/a	n/a	4	15	Cue	Neutral	True
152.074	4.0	Control	0.9375	0.0	No	2.977	0.001	n/a	NoResponse	0	n/a	n/a	4	15	Fixation	Neutral	True
156.069	0.25	Control	0.9375	0.004	No	2.977	-0.004	2.0	NoResponse	0	0.33	155.399	4	15	Target	Neutral	True
156.32	0.45	Control	0.9375	n/a	No	2.977	n/a	n/a	NoResponse	0	n/a	n/a	4	15	Blank	Neutral	True
156.399	0.3	Control	0.9375	0.004	No	2.977	-0.004	2.0	NoResponse	0	0.33	n/a	4	15	ButtonPress	Neutral	True
156.771	1.45	Control	0.9375	n/a	No	2.977	n/a	5.0	NoResponse	0	0.032	155.803	4	15	Feedback	Neutral	True
158.225	2.977	Control	0.9375	n/a	No	2.977	n/a	n/a	NoResponse	0	0.0	n/a	4	15	ISIslide	Neutral	True
161.218	0.25	Win2	0.8824	0.0	No	2.882	0.018	n/a	NoResponse	0	n/a	n/a	4	16	Cue	MissedWin	True
161.468	4.0	Win2	0.8824	0.0	No	2.882	0.0	n/a	NoResponse	0	n/a	n/a	4	16	Fixation	MissedWin	True
165.464	0.24	Win2	0.8824	0.004	No	2.882	-0.004	2.0	NoResponse	0	0.259	164.723	4	16	Target	MissedWin	True
165.714	0.46	Win2	0.8824	n/a	No	2.882	n/a	n/a	NoResponse	0	n/a	n/a	4	16	Blank	MissedWin	True
165.723	0.3	Win2	0.8824	0.004	No	2.882	-0.004	2.0	NoResponse	0	0.259	n/a	4	16	ButtonPress	MissedWin	True
166.166	1.45	Win2	0.8824	n/a	No	2.882	n/a	5.0	NoResponse	0	0.004	165.17	4	16	Feedback	MissedWin	True
167.62	2.882	Win2	0.8824	n/a	No	2.882	n/a	n/a	NoResponse	0	0.0	n/a	4	16	ISIslide	MissedWin	True
170.529	0.25	Lose2	0.8332999999999999	0.0	No	2.721	0.029	n/a	NoResponse	-1	n/a	n/a	3	17	Cue	Loss	True
170.78	3.95	Lose2	0.8332999999999999	0.0	No	2.721	0.001	n/a	NoResponse	-1	n/a	n/a	3	17	Fixation	Loss	True
174.725	0.23	Lose2	0.8332999999999999	0.004	No	2.721	-0.004	2.0	NoResponse	-1	0.24	173.965	3	17	Target	Loss	True
174.959	0.47	Lose2	0.8332999999999999	n/a	No	2.721	n/a	n/a	NoResponse	-1	n/a	n/a	3	17	Blank	Loss	True
174.965	0.3	Lose2	0.8332999999999999	0.004	No	2.721	-0.004	2.0	NoResponse	-1	0.24	n/a	3	17	ButtonPress	Loss	True
175.427	1.45	Lose2	0.8332999999999999	n/a	No	2.721	n/a	5.0	NoResponse	-1	0.01	174.437	3	17	Feedback	Loss	True
176.881	2.721	Lose2	0.8332999999999999	n/a	No	2.721	n/a	n/a	NoResponse	-1	0.0	n/a	3	17	ISIslide	Loss	True
179.623	0.25	Lose2	0.8421	0.0	Yes	2.727	0.023	n/a	GoodResponse	0	n/a	n/a	3	18	Cue	AvoidedLoss	True
179.873	4.05	Lose2	0.8421	0.001	Yes	2.727	0.0	n/a	GoodResponse	0	n/a	n/a	3	18	Fixation	AvoidedLoss	True
183.919	0.22	Lose2	0.8421	0.004	Yes	2.727	-0.004	2.0	GoodResponse	0	0.167	183.086	3	18	Target	AvoidedLoss	True
184.086	0.3	Lose2	0.8421	0.004	Yes	2.727	-0.004	2.0	GoodResponse	0	0.167	n/a	3	18	ButtonPress	AvoidedLoss	True
184.153	0.48	Lose2	0.8421	n/a	Yes	2.727	n/a	n/a	GoodResponse	0	n/a	n/a	3	18	Blank	AvoidedLoss	True
184.621	1.45	Lose2	0.8421	n/a	Yes	2.727	n/a	5.0	GoodResponse	0	0.035	183.656	3	18	Feedback	AvoidedLoss	True
186.075	2.727	Lose2	0.8421	n/a	Yes	2.727	n/a	n/a	GoodResponse	0	0.0	n/a	3	18	ISIslide	AvoidedLoss	True
188.817	0.25	Control	0.85	0.0	Yes	2.933	0.017	n/a	GoodResponse	0	n/a	n/a	3	19	Cue	Neutral	True
189.068	3.95	Control	0.85	0.0	Yes	2.933	0.001	n/a	GoodResponse	0	n/a	n/a	3	19	Fixation	Neutral	True
193.013	0.21	Control	0.85	0.004	Yes	2.933	-0.004	2.0	GoodResponse	0	0.201	192.214	3	19	Target	Neutral	True
193.214	0.3	Control	0.85	0.004	Yes	2.933	-0.004	2.0	GoodResponse	0	0.201	n/a	3	19	ButtonPress	Neutral	True
193.23	0.49	Control	0.85	n/a	Yes	2.933	n/a	n/a	GoodResponse	0	n/a	n/a	3	19	Blank	Neutral	True
193.715	1.45	Control	0.85	n/a	Yes	2.933	n/a	5.0	GoodResponse	0	0.015	192.73	3	19	Feedback	Neutral	True
195.169	2.933	Control	0.85	n/a	Yes	2.933	n/a	2.0	GoodResponse	0	2.273	n/a	3	19	ISIslide	Neutral	True
198.111	0.25	Control	0.8095	0.0	No	2.639	0.011	n/a	NoResponse	0	n/a	n/a	3	20	Cue	Neutral	True
198.362	4.05	Control	0.8095	0.0	No	2.639	0.001	n/a	NoResponse	0	n/a	n/a	3	20	Fixation	Neutral	True
202.407	0.2	Control	0.8095	0.004	No	2.639	-0.004	2.0	NoResponse	0	0.261	201.668	3	20	Target	Neutral	True
202.608	0.5	Control	0.8095	n/a	No	2.639	n/a	n/a	NoResponse	0	n/a	n/a	3	20	Blank	Neutral	True
202.668	0.3	Control	0.8095	0.004	No	2.639	-0.004	2.0	NoResponse	0	0.261	n/a	3	20	ButtonPress	Neutral	True
203.11	1.45	Control	0.8095	n/a	No	2.639	n/a	5.0	NoResponse	0	0.033	202.143	3	20	Feedback	Neutral	True
204.564	2.639	Control	0.8095	n/a	No	2.639	n/a	n/a	NoResponse	0	0.0	n/a	3	20	ISIslide	Neutral	True
207.222	0.25	Control	0.7726999999999999	0.0	No	2.778	0.022	n/a	NoResponse	0	n/a	n/a	3	21	Cue	Neutral	True
207.473	4.1	Control	0.7726999999999999	0.0	No	2.778	0.001	n/a	NoResponse	0	n/a	n/a	3	21	Fixation	Neutral	True
211.568	0.19	Control	0.7726999999999999	0.004	No	2.778	-0.004	2.0	NoResponse	0	0.225	210.793	3	21	Target	Neutral	True
211.769	0.51	Control	0.7726999999999999	n/a	No	2.778	n/a	n/a	NoResponse	0	n/a	n/a	3	21	Blank	Neutral	True
211.793	0.3	Control	0.7726999999999999	0.004	No	2.778	-0.004	2.0	NoResponse	0	0.225	n/a	3	21	ButtonPress	Neutral	True
212.27	1.45	Control	0.7726999999999999	n/a	No	2.778	n/a	5.0	NoResponse	0	0.044	211.314	3	21	Feedback	Neutral	True
213.725	2.778	Control	0.7726999999999999	n/a	No	2.778	n/a	n/a	NoResponse	0	0.0	n/a	3	21	ISIslide	Neutral	True
216.516	0.25	Control	0.7391	0.0	No	2.784	0.016	n/a	NoResponse	0	n/a	n/a	3	22	Cue	Neutral	True
216.767	4.0	Control	0.7391	0.0	No	2.784	0.001	n/a	NoResponse	0	n/a	n/a	3	22	Fixation	Neutral	True
220.762	0.18	Control	0.7391	0.004	No	2.784	-0.004	2.0	NoResponse	0	0.279	220.041	3	22	Target	Neutral	True
220.946	0.52	Control	0.7391	n/a	No	2.784	n/a	n/a	NoResponse	0	n/a	n/a	3	22	Blank	Neutral	True
221.041	0.3	Control	0.7391	0.004	No	2.784	-0.004	2.0	NoResponse	0	0.279	n/a	3	22	ButtonPress	Neutral	True
221.464	1.45	Control	0.7391	n/a	No	2.784	n/a	5.0	NoResponse	0	0.021	220.485	3	22	Feedback	Neutral	True
222.919	2.784	Control	0.7391	n/a	No	2.784	n/a	n/a	NoResponse	0	0.0	n/a	3	22	ISIslide	Neutral	True
225.727	0.25	Control	0.7082999999999999	0.0	No	2.773	0.027	n/a	NoResponse	0	n/a	n/a	3	23	Cue	Neutral	True
225.978	3.9	Control	0.7082999999999999	0.0	No	2.773	0.001	n/a	NoResponse	0	n/a	n/a	3	23	Fixation	Neutral	True
229.873	0.17	Control	0.7082999999999999	0.004	No	2.773	-0.004	2.0	NoResponse	0	0.222	229.095	3	23	Target	Neutral	True
230.057	0.53	Control	0.7082999999999999	n/a	No	2.773	n/a	n/a	NoResponse	0	n/a	n/a	3	23	Blank	Neutral	True
230.095	0.3	Control	0.7082999999999999	0.004	No	2.773	-0.004	2.0	NoResponse	0	0.222	n/a	3	23	ButtonPress	Neutral	True
230.575	1.45	Control	0.7082999999999999	n/a	No	2.773	n/a	5.0	NoResponse	0	0.032	229.607	3	23	Feedback	Neutral	True
232.029	2.773	Control	0.7082999999999999	n/a	No	2.773	n/a	n/a	NoResponse	0	0.0	n/a	3	23	ISIslide	Neutral	True
234.821	0.25	Win2	0.68	0.0	No	3.129	0.021	n/a	NoResponse	0	n/a	n/a	3	24	Cue	MissedWin	True
235.072	3.95	Win2	0.68	0.0	No	3.129	0.001	n/a	NoResponse	0	n/a	n/a	3	24	Fixation	MissedWin	True
239.017	0.16	Win2	0.68	0.004	No	3.129	-0.004	2.0	NoResponse	0	0.23	238.247	3	24	Target	MissedWin	True
239.184	0.54	Win2	0.68	n/a	No	3.129	n/a	n/a	NoResponse	0	n/a	n/a	3	24	Blank	MissedWin	True
239.247	0.3	Win2	0.68	0.004	No	3.129	-0.004	2.0	NoResponse	0	0.23	n/a	3	24	ButtonPress	MissedWin	True
239.719	1.45	Win2	0.68	n/a	No	3.129	n/a	5.0	NoResponse	0	0.01	238.729	3	24	Feedback	MissedWin	True
241.173	3.129	Win2	0.68	n/a	No	3.129	n/a	n/a	NoResponse	0	0.0	n/a	3	24	ISIslide	MissedWin	True
244.316	0.25	Win2	0.6537999999999999	0.0	No	3.084	0.016	n/a	NoResponse	0	n/a	n/a	3	25	Cue	MissedWin	True
244.567	4.0	Win2	0.6537999999999999	0.0	No	3.084	0.001	n/a	NoResponse	0	n/a	n/a	3	25	Fixation	MissedWin	True
248.562	0.15	Win2	0.6537999999999999	0.004	No	3.084	-0.004	2.0	NoResponse	0	0.215	247.777	3	25	Target	MissedWin	True
248.713	0.55	Win2	0.6537999999999999	n/a	No	3.084	n/a	n/a	NoResponse	0	n/a	n/a	3	25	Blank	MissedWin	True
248.777	0.3	Win2	0.6537999999999999	0.004	No	3.084	-0.004	2.0	NoResponse	0	0.215	n/a	3	25	ButtonPress	MissedWin	True
249.264	1.45	Win2	0.6537999999999999	n/a	No	3.084	n/a	5.0	NoResponse	0	0.025	248.289	3	25	Feedback	MissedWin	True
250.719	3.084	Win2	0.6537999999999999	n/a	No	3.084	n/a	n/a	NoResponse	0	0.0	n/a	3	25	ISIslide	MissedWin	True
253.828	0.25	Win2	0.6296	0.0	No	2.922	0.028	n/a	NoResponse	0	n/a	n/a	3	26	Cue	MissedWin	True
254.079	3.95	Win2	0.6296	0.0	No	2.922	0.001	n/a	NoResponse	0	n/a	n/a	3	26	Fixation	MissedWin	True
258.024	0.16	Win2	0.6296	0.004	No	2.922	-0.004	2.0	NoResponse	0	0.268	257.292	3	26	Target	MissedWin	True
258.191	0.54	Win2	0.6296	n/a	No	2.922	n/a	n/a	NoResponse	0	n/a	n/a	3	26	Blank	MissedWin	True
258.292	0.3	Win2	0.6296	0.004	No	2.922	-0.004	2.0	NoResponse	0	0.268	n/a	3	26	ButtonPress	MissedWin	True
258.726	1.45	Win2	0.6296	n/a	No	2.922	n/a	5.0	NoResponse	0	0.027	257.753	3	26	Feedback	MissedWin	True
260.18	2.922	Win2	0.6296	n/a	No	2.922	n/a	n/a	NoResponse	0	0.0	n/a	3	26	ISIslide	MissedWin	True
263.122	0.25	Lose2	0.6071	0.0	No	2.828	0.022	n/a	NoResponse	-1	n/a	n/a	2	27	Cue	Loss	True
263.373	4.05	Lose2	0.6071	0.0	No	2.828	0.001	n/a	NoResponse	-1	n/a	n/a	2	27	Fixation	Loss	True
267.419	0.17	Lose2	0.6071	0.003	No	2.828	-0.003	2.0	NoResponse	-1	0.685	267.104	2	27	Target	Loss	True
267.602	0.53	Lose2	0.6071	n/a	No	2.828	n/a	n/a	NoResponse	-1	n/a	n/a	2	27	Blank	Loss	True
268.104	0.3	Lose2	0.6071	0.003	No	2.828	-0.003	2.0	NoResponse	-1	0.685	n/a	2	27	ButtonPress	Loss	True
268.121	1.45	Lose2	0.6071	n/a	No	2.828	n/a	5.0	NoResponse	-1	0.046	267.167	2	27	Feedback	Loss	True
269.575	2.828	Lose2	0.6071	n/a	No	2.828	n/a	n/a	NoResponse	-1	0.0	n/a	2	27	ISIslide	Loss	True
272.417	0.25	Control	0.5861999999999999	0.0	No	2.833	0.017	n/a	NoResponse	0	n/a	n/a	2	28	Cue	Neutral	True
272.668	4.05	Control	0.5861999999999999	0.0	No	2.833	0.001	n/a	NoResponse	0	n/a	n/a	2	28	Fixation	Neutral	True
276.713	0.18	Control	0.5861999999999999	0.004	No	2.833	-0.004	2.0	NoResponse	0	0.232	275.945	2	28	Target	Neutral	True
276.897	0.52	Control	0.5861999999999999	n/a	No	2.833	n/a	n/a	NoResponse	0	n/a	n/a	2	28	Blank	Neutral	True
276.945	0.3	Control	0.5861999999999999	0.004	No	2.833	-0.004	2.0	NoResponse	0	0.232	n/a	2	28	ButtonPress	Neutral	True
277.415	1.45	Control	0.5861999999999999	n/a	No	2.833	n/a	5.0	NoResponse	0	0.021	276.436	2	28	Feedback	Neutral	True
278.869	2.833	Control	0.5861999999999999	n/a	No	2.833	n/a	n/a	NoResponse	0	0.0	n/a	2	28	ISIslide	Neutral	True
281.728	0.25	Lose2	0.5667	0.0	No	2.822	0.028	n/a	NoResponse	-1	n/a	n/a	1	29	Cue	Loss	True
281.979	3.95	Lose2	0.5667	0.0	No	2.822	0.001	n/a	NoResponse	-1	n/a	n/a	1	29	Fixation	Loss	True
285.924	0.19	Lose2	0.5667	0.004	No	2.822	-0.004	2.0	NoResponse	-1	0.334	285.258	1	29	Target	Loss	True
286.124	0.51	Lose2	0.5667	n/a	No	2.822	n/a	n/a	NoResponse	-1	n/a	n/a	1	29	Blank	Loss	True
286.258	0.3	Lose2	0.5667	0.004	No	2.822	-0.004	2.0	NoResponse	-1	0.334	n/a	1	29	ButtonPress	Loss	True
286.626	1.45	Lose2	0.5667	n/a	No	2.822	n/a	5.0	NoResponse	-1	0.029	285.655	1	29	Feedback	Loss	True
288.08	2.822	Lose2	0.5667	n/a	No	2.822	n/a	n/a	NoResponse	-1	0.0	n/a	1	29	ISIslide	Loss	True
290.922	0.25	Win2	0.5484	0.0	No	2.778	0.022	n/a	NoResponse	0	n/a	n/a	1	30	Cue	MissedWin	True
291.173	3.9	Win2	0.5484	0.0	No	2.778	0.001	n/a	NoResponse	0	n/a	n/a	1	30	Fixation	MissedWin	True
295.068	0.2	Win2	0.5484	0.004	No	2.778	-0.004	2.0	NoResponse	0	0.209	294.277	1	30	Target	MissedWin	True
295.268	0.5	Win2	0.5484	n/a	No	2.778	n/a	n/a	NoResponse	0	n/a	n/a	1	30	Blank	MissedWin	True
295.277	0.3	Win2	0.5484	0.004	No	2.778	-0.004	2.0	NoResponse	0	0.209	n/a	1	30	ButtonPress	MissedWin	True
295.77	1.45	Win2	0.5484	n/a	No	2.778	n/a	5.0	NoResponse	0	0.006	294.776	1	30	Feedback	MissedWin	True
297.224	2.778	Win2	0.5484	n/a	No	2.778	n/a	n/a	NoResponse	0	0.0	n/a	1	30	ISIslide	MissedWin	True
300.016	0.25	Lose2	0.5312	0.0	No	2.834	0.016	n/a	NoResponse	-1	n/a	n/a	0	31	Cue	Loss	True
300.267	4.05	Lose2	0.5312	0.0	No	2.834	0.001	n/a	NoResponse	-1	n/a	n/a	0	31	Fixation	Loss	True
304.312	0.21	Lose2	0.5312	0.006	No	2.834	-0.004	2.0	NoResponse	-1	0.251	303.563	0	31	Target	Loss	True
304.529	0.49	Lose2	0.5312	n/a	No	2.834	n/a	n/a	NoResponse	-1	n/a	n/a	0	31	Blank	Loss	True
304.563	0.3	Lose2	0.5312	0.006	No	2.834	-0.004	2.0	NoResponse	-1	0.251	n/a	0	31	ButtonPress	Loss	True
305.014	1.45	Lose2	0.5312	n/a	No	2.834	n/a	5.0	NoResponse	-1	0.031	304.045	0	31	Feedback	Loss	True
306.469	2.834	Lose2	0.5312	n/a	No	2.834	n/a	n/a	NoResponse	-1	0.0	n/a	0	31	ISIslide	Loss	True
309.327	0.25	Lose2	0.5152	0.0	No	2.623	0.027	n/a	LatePress	-1	n/a	n/a	-1	32	Cue	Loss	True
309.578	4.15	Lose2	0.5152	0.0	No	2.623	0.001	n/a	LatePress	-1	n/a	n/a	-1	32	Fixation	Loss	True
313.724	0.22	Lose2	0.5152	0.003	No	2.623	-0.003	2.0	LatePress	-1	0.231	312.955	-1	32	Target	Loss	True
313.955	0.3	Lose2	0.5152	0.003	No	2.623	-0.003	2.0	LatePress	-1	0.231	n/a	-1	32	ButtonPress	Loss	True
313.958	0.48	Lose2	0.5152	n/a	No	2.623	n/a	n/a	LatePress	-1	n/a	n/a	-1	32	Blank	Loss	True
314.426	1.45	Lose2	0.5152	n/a	No	2.623	n/a	5.0	LatePress	-1	0.034	313.46	-1	32	Feedback	Loss	True
315.88	2.623	Lose2	0.5152	n/a	No	2.623	n/a	n/a	LatePress	-1	0.0	n/a	-1	32	ISIslide	Loss	True
318.521	0.25	Win2	0.5	0.0	No	2.679	0.021	n/a	NoResponse	0	n/a	n/a	-1	33	Cue	MissedWin	True
318.772	4.0	Win2	0.5	0.0	No	2.679	0.001	n/a	NoResponse	0	n/a	n/a	-1	33	Fixation	MissedWin	True
322.767	0.23	Win2	0.5	0.004	No	2.679	-0.004	2.0	NoResponse	0	0.239	322.006	-1	33	Target	MissedWin	True
323.001	0.47	Win2	0.5	n/a	No	2.679	n/a	n/a	NoResponse	0	n/a	n/a	-1	33	Blank	MissedWin	True
323.006	0.3	Win2	0.5	0.004	No	2.679	-0.004	2.0	NoResponse	0	0.239	n/a	-1	33	ButtonPress	MissedWin	True
323.469	1.45	Win2	0.5	n/a	No	2.679	n/a	5.0	NoResponse	0	0.015	322.484	-1	33	Feedback	MissedWin	True
324.924	2.679	Win2	0.5	n/a	No	2.679	n/a	n/a	NoResponse	0	0.0	n/a	-1	33	ISIslide	MissedWin	True
327.615	0.25	Lose2	0.5143	0.0	Yes	2.635	0.015	n/a	GoodResponse	0	n/a	n/a	-1	34	Cue	AvoidedLoss	True
327.866	4.05	Lose2	0.5143	0.0	Yes	2.635	0.001	n/a	GoodResponse	0	n/a	n/a	-1	34	Fixation	AvoidedLoss	True
331.911	0.24	Lose2	0.5143	0.004	Yes	2.635	-0.004	2.0	GoodResponse	0	0.198	331.109	-1	34	Target	AvoidedLoss	True
332.109	0.3	Lose2	0.5143	0.004	Yes	2.635	-0.004	2.0	GoodResponse	0	0.198	n/a	-1	34	ButtonPress	AvoidedLoss	True
332.162	0.46	Lose2	0.5143	n/a	Yes	2.635	n/a	n/a	GoodResponse	0	n/a	n/a	-1	34	Blank	AvoidedLoss	True
332.613	1.45	Lose2	0.5143	n/a	Yes	2.635	n/a	5.0	GoodResponse	0	0.041	331.654	-1	34	Feedback	AvoidedLoss	True
334.068	2.635	Lose2	0.5143	n/a	Yes	2.635	n/a	n/a	GoodResponse	0	0.0	n/a	-1	34	ISIslide	AvoidedLoss	True
336.726	0.25	Lose2	0.5	0.0	No	2.674	0.026	n/a	NoResponse	-1	n/a	n/a	-2	35	Cue	Loss	True
336.976	4.0	Lose2	0.5	0.001	No	2.674	0.0	n/a	NoResponse	-1	n/a	n/a	-2	35	Fixation	Loss	True
340.972	0.25	Lose2	0.5	0.004	No	2.674	-0.004	2.0	NoResponse	-1	0.274	340.246	-2	35	Target	Loss	True
341.223	0.45	Lose2	0.5	n/a	No	2.674	n/a	n/a	NoResponse	-1	n/a	n/a	-2	35	Blank	Loss	True
341.246	0.3	Lose2	0.5	0.004	No	2.674	-0.004	2.0	NoResponse	-1	0.274	n/a	-2	35	ButtonPress	Loss	True
341.674	1.45	Lose2	0.5	n/a	No	2.674	n/a	5.0	NoResponse	-1	0.004	340.678	-2	35	Feedback	Loss	True
343.128	2.674	Lose2	0.5	n/a	No	2.674	n/a	n/a	NoResponse	-1	0.0	n/a	-2	35	ISIslide	Loss	True
345.82	0.25	Control	0.4865	0.0	No	2.68	0.02	n/a	NoResponse	0	n/a	n/a	-2	36	Cue	Neutral	True
346.07	4.0	Control	0.4865	0.0	No	2.68	0.0	2.0	NoResponse	0	3.992	349.062	-2	36	Fixation	Neutral	True
350.062	0.3	Control	0.4865	0.0	No	2.68	0.0	2.0	NoResponse	0	3.992	n/a	-2	36	ButtonPress	Neutral	True
350.066	0.26	Control	0.4865	0.004	No	2.68	-0.004	n/a	NoResponse	0	n/a	n/a	-2	36	Target	Neutral	True
350.333	0.44	Control	0.4865	n/a	No	2.68	n/a	n/a	NoResponse	0	n/a	n/a	-2	36	Blank	Neutral	True
350.768	1.45	Control	0.4865	n/a	No	2.68	n/a	5.0	NoResponse	0	0.032	349.8	-2	36	Feedback	Neutral	True
352.222	2.68	Control	0.4865	n/a	No	2.68	n/a	n/a	NoResponse	0	0.0	n/a	-2	36	ISIslide	Neutral	True
354.913	0.25	Win2	0.5	0.001	Yes	2.887	0.013	n/a	GoodResponse	1	n/a	n/a	-1	37	Cue	Win	True
355.164	4.0	Win2	0.5	0.0	Yes	2.887	0.001	n/a	GoodResponse	1	n/a	n/a	-1	37	Fixation	Win	True
359.159	0.27	Win2	0.5	0.004	Yes	2.887	-0.004	2.0	GoodResponse	1	0.263	358.422	-1	37	Target	Win	True
359.422	0.3	Win2	0.5	0.004	Yes	2.887	-0.004	2.0	GoodResponse	1	0.263	n/a	-1	37	ButtonPress	Win	True
359.444	0.43	Win2	0.5	n/a	Yes	2.887	n/a	n/a	GoodResponse	1	n/a	n/a	-1	37	Blank	Win	True
359.862	1.45	Win2	0.5	n/a	Yes	2.887	n/a	5.0	GoodResponse	1	0.012	358.874	-1	37	Feedback	Win	True
361.316	2.887	Win2	0.5	n/a	Yes	2.887	n/a	n/a	GoodResponse	1	0.0	n/a	-1	37	ISIslide	Win	True
364.225	0.25	Lose2	0.5128	0.0	Yes	2.825	0.025	n/a	GoodResponse	0	n/a	n/a	-1	38	Cue	AvoidedLoss	True
364.475	3.95	Lose2	0.5128	0.0	Yes	2.825	0.0	n/a	GoodResponse	0	n/a	n/a	-1	38	Fixation	AvoidedLoss	True
368.421	0.28	Lose2	0.5128	0.004	Yes	2.825	-0.004	2.0	GoodResponse	0	0.268	367.689	-1	38	Target	AvoidedLoss	True
368.689	0.3	Lose2	0.5128	0.004	Yes	2.825	-0.004	2.0	GoodResponse	0	0.268	n/a	-1	38	ButtonPress	AvoidedLoss	True
368.705	0.42	Lose2	0.5128	n/a	Yes	2.825	n/a	n/a	GoodResponse	0	n/a	n/a	-1	38	Blank	AvoidedLoss	True
369.123	1.45	Lose2	0.5128	n/a	Yes	2.825	n/a	5.0	GoodResponse	0	0.019	368.142	-1	38	Feedback	AvoidedLoss	True
370.577	2.825	Lose2	0.5128	n/a	Yes	2.825	n/a	n/a	GoodResponse	0	0.0	n/a	-1	38	ISIslide	AvoidedLoss	True
373.419	0.25	Win2	0.5	0.0	No	2.981	0.019	n/a	NoResponse	0	n/a	n/a	-1	39	Cue	MissedWin	True
373.67	4.1	Win2	0.5	0.0	No	2.981	0.001	n/a	NoResponse	0	n/a	n/a	-1	39	Fixation	MissedWin	True
377.765	0.29	Win2	0.5	0.004	No	2.981	-0.004	2.0	NoResponse	0	0.313	377.078	-1	39	Target	MissedWin	True
378.066	0.41	Win2	0.5	n/a	No	2.981	n/a	n/a	NoResponse	0	n/a	n/a	-1	39	Blank	MissedWin	True
378.078	0.3	Win2	0.5	0.004	No	2.981	-0.004	2.0	NoResponse	0	0.313	n/a	-1	39	ButtonPress	MissedWin	True
378.467	1.45	Win2	0.5	n/a	No	2.981	n/a	5.0	NoResponse	0	0.04	377.507	-1	39	Feedback	MissedWin	True
379.922	2.981	Win2	0.5	n/a	No	2.981	n/a	n/a	NoResponse	0	0.0	n/a	-1	39	ISIslide	MissedWin	True
382.914	0.25	Win2	0.4878	0.0	No	2.736	0.014	n/a	NoResponse	0	n/a	n/a	-1	40	Cue	MissedWin	True
383.165	3.95	Win2	0.4878	0.0	No	2.736	0.001	n/a	NoResponse	0	n/a	n/a	-1	40	Fixation	MissedWin	True
387.11	0.3	Win2	0.4878	0.004	No	2.736	-0.004	2.0	NoResponse	0	0.313	386.423	-1	40	Target	MissedWin	True
387.411	0.4	Win2	0.4878	n/a	No	2.736	n/a	n/a	NoResponse	0	n/a	n/a	-1	40	Blank	MissedWin	True
387.423	0.3	Win2	0.4878	0.004	No	2.736	-0.004	2.0	NoResponse	0	0.313	n/a	-1	40	ButtonPress	MissedWin	True
387.812	1.45	Win2	0.4878	n/a	No	2.736	n/a	5.0	NoResponse	0	0.012	386.824	-1	40	Feedback	MissedWin	True
389.266	2.736	Win2	0.4878	n/a	No	2.736	n/a	n/a	NoResponse	0	0.0	n/a	-1	40	ISIslide	MissedWin	True
392.024	0.25	Win2	0.5	0.001	Yes	2.776	0.024	n/a	GoodResponse	1	n/a	n/a	0	41	Cue	Win	True
392.275	3.9	Win2	0.5	0.0	Yes	2.776	0.001	n/a	GoodResponse	1	n/a	n/a	0	41	Fixation	Win	True
396.17	0.31	Win2	0.5	0.004	Yes	2.776	-0.004	2.0	GoodResponse	1	0.307	395.477	0	41	Target	Win	True
396.477	0.3	Win2	0.5	0.004	Yes	2.776	-0.004	2.0	GoodResponse	1	0.307	n/a	0	41	ButtonPress	Win	True
396.488	0.39	Win2	0.5	n/a	Yes	2.776	n/a	n/a	GoodResponse	1	n/a	n/a	0	41	Blank	Win	True
396.872	1.45	Win2	0.5	n/a	Yes	2.776	n/a	5.0	GoodResponse	1	0.026	395.898	0	41	Feedback	Win	True
398.327	2.776	Win2	0.5	n/a	Yes	2.776	n/a	n/a	GoodResponse	1	0.0	n/a	0	41	ISIslide	Win	True
401.118	0.25	Control	0.5115999999999999	0.0	Yes	2.932	0.018	n/a	GoodResponse	0	n/a	n/a	0	42	Cue	Neutral	True
401.369	3.85	Control	0.5115999999999999	0.0	Yes	2.932	0.001	n/a	GoodResponse	0	n/a	n/a	0	42	Fixation	Neutral	True
405.214	0.32	Control	0.5115999999999999	0.004	Yes	2.932	-0.004	2.0	GoodResponse	0	0.206	404.42	0	42	Target	Neutral	True
405.42	0.3	Control	0.5115999999999999	0.004	Yes	2.932	-0.004	2.0	GoodResponse	0	0.206	n/a	0	42	ButtonPress	Neutral	True
405.548	0.38	Control	0.5115999999999999	n/a	Yes	2.932	n/a	n/a	GoodResponse	0	n/a	n/a	0	42	Blank	Neutral	True
405.916	1.45	Control	0.5115999999999999	n/a	Yes	2.932	n/a	5.0	GoodResponse	0	0.006	404.922	0	42	Feedback	Neutral	True
407.37	2.932	Control	0.5115999999999999	n/a	Yes	2.932	n/a	n/a	GoodResponse	0	0.0	n/a	0	42	ISIslide	Neutral	True
410.329	0.25	Win2	0.5227	0.0	Yes	3.171	0.029	n/a	GoodResponse	1	n/a	n/a	1	43	Cue	Win	True
410.58	4.0	Win2	0.5227	0.0	Yes	3.171	0.001	n/a	GoodResponse	1	n/a	n/a	1	43	Fixation	Win	True
414.575	0.33	Win2	0.5227	0.004	Yes	3.171	-0.004	2.0	GoodResponse	1	0.234	413.809	1	43	Target	Win	True
414.809	0.3	Win2	0.5227	0.004	Yes	3.171	-0.004	2.0	GoodResponse	1	0.234	n/a	1	43	ButtonPress	Win	True
414.91	0.37	Win2	0.5227	n/a	Yes	3.171	n/a	n/a	GoodResponse	1	n/a	n/a	1	43	Blank	Win	True
415.277	1.45	Win2	0.5227	n/a	Yes	3.171	n/a	5.0	GoodResponse	1	0.01	414.287	1	43	Feedback	Win	True
416.732	3.171	Win2	0.5227	n/a	Yes	3.171	n/a	n/a	GoodResponse	1	0.0	n/a	1	43	ISIslide	Win	True
419.925	0.25	Win2	0.5111	0.0	No	2.975	0.025	n/a	NoResponse	0	n/a	n/a	1	44	Cue	MissedWin	True
420.175	4.0	Win2	0.5111	0.0	No	2.975	0.0	n/a	NoResponse	0	n/a	n/a	1	44	Fixation	MissedWin	True
424.171	0.34	Win2	0.5111	0.004	No	2.975	-0.004	2.0	NoResponse	0	0.427	423.598	1	44	Target	MissedWin	True
424.522	0.36	Win2	0.5111	n/a	No	2.975	n/a	n/a	NoResponse	0	n/a	n/a	1	44	Blank	MissedWin	True
424.598	0.3	Win2	0.5111	0.004	No	2.975	-0.004	2.0	NoResponse	0	0.427	n/a	1	44	ButtonPress	MissedWin	True
424.873	1.45	Win2	0.5111	n/a	No	2.975	n/a	5.0	NoResponse	0	0.024	423.897	1	44	Feedback	MissedWin	True
426.327	2.975	Win2	0.5111	n/a	No	2.975	n/a	n/a	NoResponse	0	0.0	n/a	1	44	ISIslide	MissedWin	True
429.319	0.25	Control	0.5	0.0	No	2.881	0.019	n/a	NoResponse	0	n/a	n/a	1	45	Cue	Neutral	True
429.57	4.1	Control	0.5	0.0	No	2.881	0.001	n/a	NoResponse	0	n/a	n/a	1	45	Fixation	Neutral	True
433.666	0.35	Control	0.5	0.003	No	2.881	-0.003	2.0	NoResponse	0	0.362	433.028	1	45	Target	Neutral	True
434.017	0.35	Control	0.5	n/a	No	2.881	n/a	n/a	NoResponse	0	n/a	n/a	1	45	Blank	Neutral	True
434.028	0.3	Control	0.5	0.003	No	2.881	-0.003	2.0	NoResponse	0	0.362	n/a	1	45	ButtonPress	Neutral	True
434.368	1.45	Control	0.5	n/a	No	2.881	n/a	5.0	NoResponse	0	0.041	433.409	1	45	Feedback	Neutral	True
435.822	2.881	Control	0.5	n/a	No	2.881	n/a	n/a	NoResponse	0	0.0	n/a	1	45	ISIslide	Neutral	True
438.714	0.25	Lose2	0.5106	0.0	Yes	3.386	0.014	n/a	GoodResponse	0	n/a	n/a	1	46	Cue	AvoidedLoss	True
438.965	4.0	Lose2	0.5106	0.0	Yes	3.386	0.001	n/a	GoodResponse	0	n/a	n/a	1	46	Fixation	AvoidedLoss	True
442.96	0.36	Lose2	0.5106	0.004	Yes	3.386	-0.004	2.0	GoodResponse	0	0.227	442.187	1	46	Target	AvoidedLoss	True
443.187	0.3	Lose2	0.5106	0.004	Yes	3.386	-0.004	2.0	GoodResponse	0	0.227	n/a	1	46	ButtonPress	AvoidedLoss	True
443.328	0.34	Lose2	0.5106	n/a	Yes	3.386	n/a	n/a	GoodResponse	0	n/a	n/a	1	46	Blank	AvoidedLoss	True
443.662	1.45	Lose2	0.5106	n/a	Yes	3.386	n/a	5.0	GoodResponse	0	0.016	442.678	1	46	Feedback	AvoidedLoss	True
445.116	3.386	Lose2	0.5106	n/a	Yes	3.386	n/a	n/a	GoodResponse	0	0.0	n/a	1	46	ISIslide	AvoidedLoss	True
448.527	0.25	Lose2	0.5207999999999999	0.0	Yes	2.673	0.027	n/a	GoodResponse	0	n/a	n/a	1	47	Cue	AvoidedLoss	True
448.777	4.0	Lose2	0.5207999999999999	0.001	Yes	2.673	0.0	n/a	GoodResponse	0	n/a	n/a	1	47	Fixation	AvoidedLoss	True
452.773	0.37	Lose2	0.5207999999999999	0.004	Yes	2.673	-0.004	2.0	GoodResponse	0	0.249	452.022	1	47	Target	AvoidedLoss	True
453.022	0.3	Lose2	0.5207999999999999	0.004	Yes	2.673	-0.004	2.0	GoodResponse	0	0.249	n/a	1	47	ButtonPress	AvoidedLoss	True
453.157	0.33	Lose2	0.5207999999999999	n/a	Yes	2.673	n/a	n/a	GoodResponse	0	n/a	n/a	1	47	Blank	AvoidedLoss	True
453.475	1.45	Lose2	0.5207999999999999	n/a	Yes	2.673	n/a	5.0	GoodResponse	0	0.008	452.483	1	47	Feedback	AvoidedLoss	True
454.929	2.673	Lose2	0.5207999999999999	n/a	Yes	2.673	n/a	n/a	GoodResponse	0	0.0	n/a	1	47	ISIslide	AvoidedLoss	True
457.621	0.25	Lose2	0.5306000000000001	0.0	Yes	3.029	0.021	n/a	GoodResponse	0	n/a	n/a	1	48	Cue	AvoidedLoss	True
457.871	3.95	Lose2	0.5306000000000001	0.0	Yes	3.029	0.0	n/a	GoodResponse	0	n/a	n/a	1	48	Fixation	AvoidedLoss	True
461.833	0.38	Lose2	0.5306000000000001	0.0	Yes	3.029	0.012	2.0	GoodResponse	0	0.281	461.114	1	48	Target	AvoidedLoss	True
462.114	0.3	Lose2	0.5306000000000001	0.0	Yes	3.029	0.012	2.0	GoodResponse	0	0.281	n/a	1	48	ButtonPress	AvoidedLoss	True
462.201	0.32	Lose2	0.5306000000000001	n/a	Yes	3.029	n/a	n/a	GoodResponse	0	n/a	n/a	1	48	Blank	AvoidedLoss	True
462.519	1.45	Lose2	0.5306000000000001	n/a	Yes	3.029	n/a	5.0	GoodResponse	0	0.036	461.555	1	48	Feedback	AvoidedLoss	True
463.973	3.029	Lose2	0.5306000000000001	n/a	Yes	3.029	n/a	n/a	GoodResponse	0	0.0	n/a	1	48	ISIslide	AvoidedLoss	True
467.015	0.25	Control	0.54	0.0	Yes	2.885	0.015	n/a	GoodResponse	0	n/a	n/a	1	49	Cue	Neutral	True
467.266	4.0	Control	0.54	0.0	Yes	2.885	0.001	n/a	GoodResponse	0	n/a	n/a	1	49	Fixation	Neutral	True
471.261	0.39	Control	0.54	0.004	Yes	2.885	-0.004	2.0	GoodResponse	0	0.298	470.559	1	49	Target	Neutral	True
471.559	0.3	Control	0.54	0.004	Yes	2.885	-0.004	2.0	GoodResponse	0	0.298	n/a	1	49	ButtonPress	Neutral	True
471.663	0.31	Control	0.54	n/a	Yes	2.885	n/a	n/a	GoodResponse	0	n/a	n/a	1	49	Blank	Neutral	True
471.963	1.45	Control	0.54	n/a	Yes	2.885	n/a	5.0	GoodResponse	0	0.007	470.97	1	49	Feedback	Neutral	True
473.418	2.885	Control	0.54	n/a	Yes	2.885	n/a	n/a	GoodResponse	0	0.0	n/a	1	49	ISIslide	Neutral	True
476.326	0.25	Control	0.5294	0.001	No	2.774	0.026	n/a	NoResponse	0	n/a	n/a	1	50	Cue	Neutral	True
476.577	4.0	Control	0.5294	0.0	No	2.774	0.001	n/a	NoResponse	0	n/a	n/a	1	50	Fixation	Neutral	True
480.573	0.4	Control	0.5294	0.003	No	2.774	-0.003	2.0	NoResponse	0	0.41	479.983	1	50	Target	Neutral	True
480.974	0.3	Control	0.5294	n/a	No	2.774	n/a	n/a	NoResponse	0	n/a	n/a	1	50	Blank	Neutral	True
480.983	0.3	Control	0.5294	0.003	No	2.774	-0.003	2.0	NoResponse	0	0.41	n/a	1	50	ButtonPress	Neutral	True
481.275	1.45	Control	0.5294	n/a	No	2.774	n/a	5.0	NoResponse	0	0.012	480.287	1	50	Feedback	Neutral	True
482.729	2.774	Control	0.5294	n/a	No	2.774	n/a	n/a	NoResponse	0	0.0	n/a	1	50	ISIslide	Neutral	True
485.521	0.25	Control	0.5192	0.0	No	2.729	0.021	n/a	NoResponse	0	n/a	n/a	1	51	Cue	Neutral	False
485.771	3.95	Control	0.5192	0.0	No	2.729	0.0	n/a	NoResponse	0	n/a	n/a	1	51	Fixation	Neutral	False
489.717	0.41	Control	0.5192	0.004	No	2.729	-0.004	n/a	NoResponse	0	n/a	n/a	1	51	Target	Neutral	False
490.134	0.29	Control	0.5192	n/a	No	2.729	n/a	n/a	NoResponse	0	n/a	n/a	1	51	Blank	Neutral	False
490.419	1.45	Control	0.5192	n/a	No	2.729	n/a	5.0	NoResponse	0	0.039	489.458	1	51	Feedback	Neutral	False
491.873	2.729	Control	0.5192	n/a	No	2.729	n/a	n/a	NoResponse	0	0.0	n/a	1	51	ISIslide	Neutral	False
494.614	0.25	Control	0.5283	0.001	Yes	2.636	0.014	n/a	GoodResponse	0	n/a	n/a	1	52	Cue	Neutral	True
494.865	4.05	Control	0.5283	0.0	Yes	2.636	0.001	n/a	GoodResponse	0	n/a	n/a	1	52	Fixation	Neutral	True
498.911	0.42	Control	0.5283	0.003	Yes	2.636	-0.003	2.0	GoodResponse	0	0.207	498.118	1	52	Target	Neutral	True
499.118	0.3	Control	0.5283	0.003	Yes	2.636	-0.003	2.0	GoodResponse	0	0.207	n/a	1	52	ButtonPress	Neutral	True
499.345	0.28	Control	0.5283	n/a	Yes	2.636	n/a	n/a	GoodResponse	0	n/a	n/a	1	52	Blank	Neutral	True
499.613	1.45	Control	0.5283	n/a	Yes	2.636	n/a	5.0	GoodResponse	0	0.015	498.628	1	52	Feedback	Neutral	True
501.067	2.636	Control	0.5283	n/a	Yes	2.636	n/a	n/a	GoodResponse	0	0.0	n/a	1	52	ISIslide	Neutral	True
503.725	0.25	Win2	0.537	0.0	Yes	2.925	0.025	n/a	GoodResponse	1	n/a	n/a	2	53	Cue	Win	True
503.976	4.05	Win2	0.537	0.0	Yes	2.925	0.001	n/a	GoodResponse	1	n/a	n/a	2	53	Fixation	Win	True
508.021	0.43	Win2	0.537	0.004	Yes	2.925	-0.004	2.0	GoodResponse	1	0.242	507.263	2	53	Target	Win	True
508.263	0.3	Win2	0.537	0.004	Yes	2.925	-0.004	2.0	GoodResponse	1	0.242	n/a	2	53	ButtonPress	Win	True
508.456	0.27	Win2	0.537	n/a	Yes	2.925	n/a	n/a	GoodResponse	1	n/a	n/a	2	53	Blank	Win	True
508.723	1.45	Win2	0.537	n/a	Yes	2.925	n/a	5.0	GoodResponse	1	0.026	507.749	2	53	Feedback	Win	True
510.178	2.925	Win2	0.537	n/a	Yes	2.925	n/a	n/a	GoodResponse	1	0.0	n/a	2	53	ISIslide	Win	True
513.12	0.25	Win2	0.5455	0.0	Yes	2.73	0.02	n/a	GoodResponse	1	n/a	n/a	3	54	Cue	Win	True
513.371	3.95	Win2	0.5455	0.0	Yes	2.73	0.001	n/a	GoodResponse	1	n/a	n/a	3	54	Fixation	Win	True
517.316	0.44	Win2	0.5455	0.004	Yes	2.73	-0.004	2.0	GoodResponse	1	0.311	516.627	3	54	Target	Win	True
517.627	0.3	Win2	0.5455	0.004	Yes	2.73	-0.004	2.0	GoodResponse	1	0.311	n/a	3	54	ButtonPress	Win	True
517.767	0.26	Win2	0.5455	n/a	Yes	2.73	n/a	n/a	GoodResponse	1	n/a	n/a	3	54	Blank	Win	True
518.018	1.45	Win2	0.5455	n/a	Yes	2.73	n/a	5.0	GoodResponse	1	0.0	517.018	3	54	Feedback	Win	True
519.472	2.73	Win2	0.5455	n/a	Yes	2.73	n/a	n/a	GoodResponse	1	0.0	n/a	3	54	ISIslide	Win	True
522.214	0.25	Control	0.5536	0.0	Yes	3.036	0.014	n/a	GoodResponse	0	n/a	n/a	3	55	Cue	Neutral	True
522.464	3.95	Control	0.5536	0.001	Yes	3.036	0.0	n/a	GoodResponse	0	n/a	n/a	3	55	Fixation	Neutral	True
526.41	0.45	Control	0.5536	0.004	Yes	3.036	-0.004	2.0	GoodResponse	0	0.296	525.706	3	55	Target	Neutral	True
526.706	0.3	Control	0.5536	0.004	Yes	3.036	-0.004	2.0	GoodResponse	0	0.296	n/a	3	55	ButtonPress	Neutral	True
526.861	0.25	Control	0.5536	n/a	Yes	3.036	n/a	n/a	GoodResponse	0	n/a	n/a	3	55	Blank	Neutral	True
527.112	1.45	Control	0.5536	n/a	Yes	3.036	n/a	5.0	GoodResponse	0	0.028	526.14	3	55	Feedback	Neutral	True
528.566	3.036	Control	0.5536	n/a	Yes	3.036	n/a	n/a	GoodResponse	0	0.0	n/a	3	55	ISIslide	Neutral	True
531.625	0.25	Control	0.5439	0.0	No	2.825	0.025	n/a	NoResponse	0	n/a	n/a	3	56	Cue	Neutral	False
531.876	3.95	Control	0.5439	0.0	No	2.825	0.001	n/a	NoResponse	0	n/a	n/a	3	56	Fixation	Neutral	False
535.821	0.46	Control	0.5439	0.004	No	2.825	-0.004	n/a	NoResponse	0	n/a	n/a	3	56	Target	Neutral	False
536.289	0.24	Control	0.5439	n/a	No	2.825	n/a	n/a	NoResponse	0	n/a	n/a	3	56	Blank	Neutral	False
536.523	1.45	Control	0.5439	n/a	No	2.825	n/a	5.0	NoResponse	0	0.032	535.555	3	56	Feedback	Neutral	False
537.977	2.825	Control	0.5439	n/a	No	2.825	n/a	n/a	NoResponse	0	0.0	n/a	3	56	ISIslide	Neutral	False
540.819	0.25	Control	0.5517	0.0	Yes	3.481	0.019	n/a	GoodResponse	0	n/a	n/a	3	57	Cue	Neutral	True
541.07	4.0	Control	0.5517	0.0	Yes	3.481	0.001	n/a	GoodResponse	0	n/a	n/a	3	57	Fixation	Neutral	True
545.065	0.47	Control	0.5517	0.004	Yes	3.481	-0.004	2.0	GoodResponse	0	0.298	544.363	3	57	Target	Neutral	True
545.363	0.3	Control	0.5517	0.004	Yes	3.481	-0.004	2.0	GoodResponse	0	0.298	n/a	3	57	ButtonPress	Neutral	True
545.55	0.23	Control	0.5517	n/a	Yes	3.481	n/a	n/a	GoodResponse	0	n/a	n/a	3	57	Blank	Neutral	True
545.767	1.45	Control	0.5517	n/a	Yes	3.481	n/a	5.0	GoodResponse	0	0.006	544.773	3	57	Feedback	Neutral	True
547.222	3.481	Control	0.5517	n/a	Yes	3.481	n/a	n/a	GoodResponse	0	0.0	n/a	3	57	ISIslide	Neutral	True
550.716	0.25	Win2	0.5593	0.0	Yes	2.734	0.016	n/a	GoodResponse	1	n/a	n/a	4	58	Cue	Win	True
550.966	4.05	Win2	0.5593	0.0	Yes	2.734	0.0	n/a	GoodResponse	1	n/a	n/a	4	58	Fixation	Win	True
555.012	0.48	Win2	0.5593	0.004	Yes	2.734	-0.004	2.0	GoodResponse	1	0.29	554.302	4	58	Target	Win	True
555.302	0.3	Win2	0.5593	0.004	Yes	2.734	-0.004	2.0	GoodResponse	1	0.29	n/a	4	58	ButtonPress	Win	True
555.497	0.22	Win2	0.5593	n/a	Yes	2.734	n/a	n/a	GoodResponse	1	n/a	n/a	4	58	Blank	Win	True
555.714	1.45	Win2	0.5593	n/a	Yes	2.734	n/a	5.0	GoodResponse	1	0.011	554.725	4	58	Feedback	Win	True
557.168	2.734	Win2	0.5593	n/a	Yes	2.734	n/a	n/a	GoodResponse	1	0.0	n/a	4	58	ISIslide	Win	True
559.926	0.25	Lose2	0.5667	0.001	Yes	2.674	0.026	n/a	GoodResponse	0	n/a	n/a	4	59	Cue	AvoidedLoss	True
560.177	4.0	Lose2	0.5667	0.0	Yes	2.674	0.001	n/a	GoodResponse	0	n/a	n/a	4	59	Fixation	AvoidedLoss	True
564.172	0.49	Lose2	0.5667	0.004	Yes	2.674	-0.004	2.0	GoodResponse	0	0.369	563.541	4	59	Target	AvoidedLoss	True
564.541	0.3	Lose2	0.5667	0.004	Yes	2.674	-0.004	2.0	GoodResponse	0	0.369	n/a	4	59	ButtonPress	AvoidedLoss	True
564.674	0.21	Lose2	0.5667	n/a	Yes	2.674	n/a	n/a	GoodResponse	0	n/a	n/a	4	59	Blank	AvoidedLoss	True
564.875	1.45	Lose2	0.5667	n/a	Yes	2.674	n/a	5.0	GoodResponse	0	0.02	563.895	4	59	Feedback	AvoidedLoss	True
566.329	2.674	Lose2	0.5667	n/a	Yes	2.674	n/a	n/a	GoodResponse	0	0.0	n/a	4	59	ISIslide	AvoidedLoss	True
569.02	0.25	Control	0.5574	0.0	No	2.68	0.02	n/a	NoResponse	0	n/a	n/a	4	60	Cue	Neutral	False
569.271	4.0	Control	0.5574	0.0	No	2.68	0.001	n/a	NoResponse	0	n/a	n/a	4	60	Fixation	Neutral	False
573.266	0.5	Control	0.5574	0.004	No	2.68	-0.004	n/a	NoResponse	0	n/a	n/a	4	60	Target	Neutral	False
573.768	0.2	Control	0.5574	n/a	No	2.68	n/a	n/a	NoResponse	0	n/a	n/a	4	60	Blank	Neutral	False
573.968	1.45	Control	0.5574	n/a	No	2.68	n/a	5.0	NoResponse	0	0.001	572.969	4	60	Feedback	Neutral	False
575.423	2.68	Control	0.5574	n/a	No	2.68	n/a	n/a	NoResponse	0	0.0	n/a	4	60	ISIslide	Neutral	False
578.114	0.25	Lose2	0.5645	0.0	Yes	2.986	0.014	n/a	GoodResponse	0	n/a	n/a	4	61	Cue	AvoidedLoss	True
578.365	4.0	Lose2	0.5645	0.0	Yes	2.986	0.001	n/a	GoodResponse	0	n/a	n/a	4	61	Fixation	AvoidedLoss	True
582.36	0.5	Lose2	0.5645	0.004	Yes	2.986	-0.004	2.0	GoodResponse	0	0.314	581.674	4	61	Target	AvoidedLoss	True
582.674	0.3	Lose2	0.5645	0.004	Yes	2.986	-0.004	2.0	GoodResponse	0	0.314	n/a	4	61	ButtonPress	AvoidedLoss	True
582.862	0.2	Lose2	0.5645	n/a	Yes	2.986	n/a	n/a	GoodResponse	0	n/a	n/a	4	61	Blank	AvoidedLoss	True
583.062	1.45	Lose2	0.5645	n/a	Yes	2.986	n/a	5.0	GoodResponse	0	0.029	582.091	4	61	Feedback	AvoidedLoss	True
584.517	2.986	Lose2	0.5645	n/a	Yes	2.986	n/a	n/a	GoodResponse	0	0.0	n/a	4	61	ISIslide	AvoidedLoss	True
587.526	0.25	Lose2	0.5714	0.0	Yes	2.874	0.026	n/a	GoodResponse	0	n/a	n/a	4	62	Cue	AvoidedLoss	False
587.776	3.9	Lose2	0.5714	0.0	Yes	2.874	0.0	2.0	GoodResponse	0	3.371	590.147	4	62	Fixation	AvoidedLoss	False
591.147	0.3	Lose2	0.5714	0.0	Yes	2.874	0.0	2.0	GoodResponse	0	3.371	n/a	4	62	ButtonPress	AvoidedLoss	False
591.688	0.5	Lose2	0.5714	0.0	Yes	2.874	0.012	2.0	GoodResponse	0	0.427	591.115	4	62	Target	AvoidedLoss	False
592.115	0.3	Lose2	0.5714	0.0	Yes	2.874	0.012	2.0	GoodResponse	0	0.427	n/a	4	62	ButtonPress	AvoidedLoss	False
592.173	0.2	Lose2	0.5714	n/a	Yes	2.874	n/a	n/a	GoodResponse	0	n/a	n/a	4	62	Blank	AvoidedLoss	False
592.373	1.45	Lose2	0.5714	n/a	Yes	2.874	n/a	5.0	GoodResponse	0	0.034	591.407	4	62	Feedback	AvoidedLoss	False
593.828	2.874	Lose2	0.5714	n/a	Yes	2.874	n/a	n/a	GoodResponse	0	0.0	n/a	4	62	ISIslide	AvoidedLoss	False
596.72	0.25	Lose2	0.5625	0.0	No	2.63	0.02	n/a	NoResponse	-1	n/a	n/a	3	63	Cue	Loss	False
596.971	4.05	Lose2	0.5625	0.0	No	2.63	0.001	n/a	NoResponse	-1	n/a	n/a	3	63	Fixation	Loss	False
601.016	0.5	Lose2	0.5625	0.004	No	2.63	-0.004	n/a	NoResponse	-1	n/a	n/a	3	63	Target	Loss	False
601.517	0.2	Lose2	0.5625	n/a	No	2.63	n/a	n/a	NoResponse	-1	n/a	n/a	3	63	Blank	Loss	False
601.718	1.45	Lose2	0.5625	n/a	No	2.63	n/a	5.0	NoResponse	-1	0.006	600.724	3	63	Feedback	Loss	False
603.172	2.63	Lose2	0.5625	n/a	No	2.63	n/a	n/a	NoResponse	-1	0.0	n/a	3	63	ISIslide	Loss	False
605.814	0.25	Win2	0.5692	0.0	Yes	3.136	0.014	n/a	GoodResponse	1	n/a	n/a	4	64	Cue	Win	True
606.064	4.15	Win2	0.5692	0.0	Yes	3.136	0.0	n/a	GoodResponse	1	n/a	n/a	4	64	Fixation	Win	True
610.21	0.5	Win2	0.5692	0.004	Yes	3.136	-0.004	2.0	GoodResponse	1	0.223	609.433	4	64	Target	Win	True
610.433	0.3	Win2	0.5692	0.004	Yes	3.136	-0.004	2.0	GoodResponse	1	0.223	n/a	4	64	ButtonPress	Win	True
610.712	0.2	Win2	0.5692	n/a	Yes	3.136	n/a	n/a	GoodResponse	1	n/a	n/a	4	64	Blank	Win	True
610.912	1.45	Win2	0.5692	n/a	Yes	3.136	n/a	5.0	GoodResponse	1	0.032	609.944	4	64	Feedback	Win	True
612.367	3.136	Win2	0.5692	n/a	Yes	3.136	n/a	n/a	GoodResponse	1	0.0	n/a	4	64	ISIslide	Win	True
615.526	0.25	Control	0.5758	0.0	Yes	2.774	0.026	n/a	GoodResponse	0	n/a	n/a	4	65	Cue	Neutral	True
615.777	4.0	Control	0.5758	0.0	Yes	2.774	0.001	n/a	GoodResponse	0	n/a	n/a	4	65	Fixation	Neutral	True
619.772	0.5	Control	0.5758	0.004	Yes	2.774	-0.004	2.0	GoodResponse	0	0.264	619.036	4	65	Target	Neutral	True
620.036	0.3	Control	0.5758	0.004	Yes	2.774	-0.004	2.0	GoodResponse	0	0.264	n/a	4	65	ButtonPress	Neutral	True
620.274	0.2	Control	0.5758	n/a	Yes	2.774	n/a	n/a	GoodResponse	0	n/a	n/a	4	65	Blank	Neutral	True
620.474	1.45	Control	0.5758	n/a	Yes	2.774	n/a	5.0	GoodResponse	0	0.031	619.505	4	65	Feedback	Neutral	True
621.928	2.774	Control	0.5758	n/a	Yes	2.774	n/a	n/a	GoodResponse	0	0.0	n/a	4	65	ISIslide	Neutral	True
624.72	0.25	Win2	0.5672	0.0	No	2.78	0.02	n/a	NoResponse	0	n/a	n/a	4	66	Cue	MissedWin	True
624.971	3.9	Win2	0.5672	0.0	No	2.78	0.001	n/a	NoResponse	0	n/a	n/a	4	66	Fixation	MissedWin	True
628.866	0.5	Win2	0.5672	0.004	No	2.78	-0.004	2.0	NoResponse	0	0.551	628.417	4	66	Target	MissedWin	True
629.367	0.2	Win2	0.5672	n/a	No	2.78	n/a	n/a	NoResponse	0	n/a	n/a	4	66	Blank	MissedWin	True
629.417	0.3	Win2	0.5672	0.004	No	2.78	-0.004	2.0	NoResponse	0	0.551	n/a	4	66	ButtonPress	MissedWin	True
629.568	1.45	Win2	0.5672	n/a	No	2.78	n/a	5.0	NoResponse	0	0.01	628.578	4	66	Feedback	MissedWin	True
631.022	2.78	Win2	0.5672	n/a	No	2.78	n/a	n/a	NoResponse	0	0.0	n/a	4	66	ISIslide	MissedWin	True
633.814	0.25	Control	0.5735	0.0	Yes	2.736	0.014	n/a	GoodResponse	0	n/a	n/a	4	67	Cue	Neutral	True
634.065	3.95	Control	0.5735	0.0	Yes	2.736	0.001	n/a	GoodResponse	0	n/a	n/a	4	67	Fixation	Neutral	True
638.01	0.5	Control	0.5735	0.004	Yes	2.736	-0.004	2.0	GoodResponse	0	0.448	637.458	4	67	Target	Neutral	True
638.458	0.3	Control	0.5735	0.004	Yes	2.736	-0.004	2.0	GoodResponse	0	0.448	n/a	4	67	ButtonPress	Neutral	True
638.511	0.2	Control	0.5735	n/a	Yes	2.736	n/a	n/a	GoodResponse	0	n/a	n/a	4	67	Blank	Neutral	True
638.712	1.45	Control	0.5735	n/a	Yes	2.736	n/a	5.0	GoodResponse	0	0.036	637.748	4	67	Feedback	Neutral	True
640.166	2.736	Control	0.5735	n/a	Yes	2.736	n/a	n/a	GoodResponse	0	0.0	n/a	4	67	ISIslide	Neutral	True
642.925	0.25	Win2	0.5797	0.0	Yes	3.075	0.025	n/a	GoodResponse	1	n/a	n/a	5	68	Cue	Win	True
643.175	4.0	Win2	0.5797	0.0	Yes	3.075	0.0	n/a	GoodResponse	1	n/a	n/a	5	68	Fixation	Win	True
647.171	0.5	Win2	0.5797	0.004	Yes	3.075	-0.004	2.0	GoodResponse	1	0.244	646.415	5	68	Target	Win	True
647.415	0.3	Win2	0.5797	0.004	Yes	3.075	-0.004	2.0	GoodResponse	1	0.244	n/a	5	68	ButtonPress	Win	True
647.672	0.2	Win2	0.5797	n/a	Yes	3.075	n/a	n/a	GoodResponse	1	n/a	n/a	5	68	Blank	Win	True
647.873	1.45	Win2	0.5797	n/a	Yes	3.075	n/a	5.0	GoodResponse	1	0.046	646.919	5	68	Feedback	Win	True
649.327	3.075	Win2	0.5797	n/a	Yes	3.075	n/a	n/a	GoodResponse	1	0.0	n/a	5	68	ISIslide	Win	True
652.42	0.25	Win2	0.5857	0.0	Yes	3.23	0.02	n/a	GoodResponse	1	n/a	n/a	6	69	Cue	Win	True
652.67	3.95	Win2	0.5857	0.001	Yes	3.23	0.0	n/a	GoodResponse	1	n/a	n/a	6	69	Fixation	Win	True
656.616	0.5	Win2	0.5857	0.004	Yes	3.23	-0.004	2.0	GoodResponse	1	0.214	655.83	6	69	Target	Win	True
656.83	0.3	Win2	0.5857	0.004	Yes	3.23	-0.004	2.0	GoodResponse	1	0.214	n/a	6	69	ButtonPress	Win	True
657.117	0.2	Win2	0.5857	n/a	Yes	3.23	n/a	n/a	GoodResponse	1	n/a	n/a	6	69	Blank	Win	True
657.318	1.45	Win2	0.5857	n/a	Yes	3.23	n/a	5.0	GoodResponse	1	0.015	656.333	6	69	Feedback	Win	True
658.772	3.23	Win2	0.5857	n/a	Yes	3.23	n/a	n/a	GoodResponse	1	0.0	n/a	6	69	ISIslide	Win	True
662.015	0.25	Lose2	0.5915	0.0	Yes	3.035	0.015	n/a	GoodResponse	0	n/a	n/a	6	70	Cue	AvoidedLoss	False
662.266	4.05	Lose2	0.5915	0.0	Yes	3.035	0.001	2.0	GoodResponse	0	0.106	661.372	6	70	Fixation	AvoidedLoss	False
662.372	0.3	Lose2	0.5915	0.0	Yes	3.035	0.001	2.0	GoodResponse	0	0.106	n/a	6	70	ButtonPress	AvoidedLoss	False
666.311	0.5	Lose2	0.5915	0.004	Yes	3.035	-0.004	2.0	GoodResponse	0	0.386	665.697	6	70	Target	AvoidedLoss	False
666.697	0.3	Lose2	0.5915	0.004	Yes	3.035	-0.004	2.0	GoodResponse	0	0.386	n/a	6	70	ButtonPress	AvoidedLoss	False
666.813	0.2	Lose2	0.5915	n/a	Yes	3.035	n/a	n/a	GoodResponse	0	n/a	n/a	6	70	Blank	AvoidedLoss	False
667.013	1.45	Lose2	0.5915	n/a	Yes	3.035	n/a	5.0	GoodResponse	0	0.028	666.041	6	70	Feedback	AvoidedLoss	False
668.468	3.035	Lose2	0.5915	n/a	Yes	3.035	n/a	n/a	GoodResponse	0	0.0	n/a	6	70	ISIslide	AvoidedLoss	False
671.527	0.25	Win2	0.5972	0.0	Yes	2.723	0.027	n/a	GoodResponse	1	n/a	n/a	7	71	Cue	Win	True
671.778	4.05	Win2	0.5972	0.0	Yes	2.723	0.001	n/a	GoodResponse	1	n/a	n/a	7	71	Fixation	Win	True
675.823	0.5	Win2	0.5972	0.004	Yes	2.723	-0.004	2.0	GoodResponse	1	0.415	675.238	7	71	Target	Win	True
676.238	0.3	Win2	0.5972	0.004	Yes	2.723	-0.004	2.0	GoodResponse	1	0.415	n/a	7	71	ButtonPress	Win	True
676.324	0.2	Win2	0.5972	n/a	Yes	2.723	n/a	n/a	GoodResponse	1	n/a	n/a	7	71	Blank	Win	True
676.525	1.45	Win2	0.5972	n/a	Yes	2.723	n/a	5.0	GoodResponse	1	0.027	675.552	7	71	Feedback	Win	True
677.979	2.723	Win2	0.5972	n/a	Yes	2.723	n/a	n/a	GoodResponse	1	0.0	n/a	7	71	ISIslide	Win	True
680.721	0.25	Win2	0.589	0.0	No	2.779	0.021	n/a	NoResponse	0	n/a	n/a	7	72	Cue	MissedWin	False
680.972	4.1	Win2	0.589	0.0	No	2.779	0.001	n/a	NoResponse	0	n/a	n/a	7	72	Fixation	MissedWin	False
685.067	0.5	Win2	0.589	0.004	No	2.779	-0.004	n/a	NoResponse	0	n/a	n/a	7	72	Target	MissedWin	False
685.569	0.2	Win2	0.589	n/a	No	2.779	n/a	n/a	NoResponse	0	n/a	n/a	7	72	Blank	MissedWin	False
685.769	1.45	Win2	0.589	n/a	No	2.779	n/a	5.0	NoResponse	0	0.004	684.773	7	72	Feedback	MissedWin	False
687.224	2.779	Win2	0.589	n/a	No	2.779	n/a	n/a	NoResponse	0	0.0	n/a	7	72	ISIslide	MissedWin	False
690.015	0.25	Win2	0.5946	0.0	Yes	2.685	0.015	n/a	GoodResponse	1	n/a	n/a	8	73	Cue	Win	True
690.266	4.0	Win2	0.5946	0.0	Yes	2.685	0.001	n/a	GoodResponse	1	n/a	n/a	8	73	Fixation	Win	True
694.261	0.5	Win2	0.5946	0.004	Yes	2.685	-0.004	2.0	GoodResponse	1	0.255	693.516	8	73	Target	Win	True
694.516	0.3	Win2	0.5946	0.004	Yes	2.685	-0.004	2.0	GoodResponse	1	0.255	n/a	8	73	ButtonPress	Win	True
694.763	0.2	Win2	0.5946	n/a	Yes	2.685	n/a	n/a	GoodResponse	1	n/a	n/a	8	73	Blank	Win	True
694.964	1.45	Win2	0.5946	n/a	Yes	2.685	n/a	5.0	GoodResponse	1	0.027	693.991	8	73	Feedback	Win	True
696.418	2.685	Win2	0.5946	n/a	Yes	2.685	n/a	n/a	GoodResponse	1	0.0	n/a	8	73	ISIslide	Win	True
699.126	0.25	Lose2	0.5867	0.0	No	2.624	0.026	n/a	NoResponse	-1	n/a	n/a	7	74	Cue	Loss	False
699.377	4.05	Lose2	0.5867	0.0	No	2.624	0.001	n/a	NoResponse	-1	n/a	n/a	7	74	Fixation	Loss	False
703.422	0.5	Lose2	0.5867	0.004	No	2.624	-0.004	n/a	NoResponse	-1	n/a	n/a	7	74	Target	Loss	False
703.924	0.2	Lose2	0.5867	n/a	No	2.624	n/a	n/a	NoResponse	-1	n/a	n/a	7	74	Blank	Loss	False
704.124	1.45	Lose2	0.5867	n/a	No	2.624	n/a	5.0	NoResponse	-1	0.038	703.162	7	74	Feedback	Loss	False
705.579	2.624	Lose2	0.5867	n/a	No	2.624	n/a	n/a	NoResponse	-1	0.0	n/a	7	74	ISIslide	Loss	False
708.22	0.25	Lose2	0.5921	0.0	Yes	2.93	0.02	n/a	GoodResponse	0	n/a	n/a	7	75	Cue	AvoidedLoss	True
708.471	3.95	Lose2	0.5921	0.0	Yes	2.93	0.001	n/a	GoodResponse	0	n/a	n/a	7	75	Fixation	AvoidedLoss	True
712.416	0.5	Lose2	0.5921	0.004	Yes	2.93	-0.004	2.0	GoodResponse	0	0.103	711.519	7	75	Target	AvoidedLoss	True
712.519	0.3	Lose2	0.5921	0.004	Yes	2.93	-0.004	2.0	GoodResponse	0	0.103	n/a	7	75	ButtonPress	AvoidedLoss	True
712.917	0.2	Lose2	0.5921	n/a	Yes	2.93	n/a	n/a	GoodResponse	0	n/a	n/a	7	75	Blank	AvoidedLoss	True
713.118	1.45	Lose2	0.5921	n/a	Yes	2.93	n/a	5.0	GoodResponse	0	0.02	712.138	7	75	Feedback	AvoidedLoss	True
714.572	2.93	Lose2	0.5921	n/a	Yes	2.93	n/a	n/a	GoodResponse	0	0.0	n/a	7	75	ISIslide	AvoidedLoss	True
717.514	0.25	Control	0.5844	0.0	No	3.236	0.014	n/a	NoResponse	0	n/a	n/a	7	76	Cue	Neutral	True
717.765	4.05	Control	0.5844	0.0	No	3.236	0.001	n/a	NoResponse	0	n/a	n/a	7	76	Fixation	Neutral	True
721.81	0.5	Control	0.5844	0.004	No	3.236	-0.004	2.0	NoResponse	0	0.68	721.49	7	76	Target	Neutral	True
722.312	0.2	Control	0.5844	n/a	No	3.236	n/a	n/a	NoResponse	0	n/a	n/a	7	76	Blank	Neutral	True
722.49	0.3	Control	0.5844	0.004	No	3.236	-0.004	2.0	NoResponse	0	0.68	n/a	7	76	ButtonPress	Neutral	True
722.513	1.45	Control	0.5844	n/a	No	3.236	n/a	5.0	NoResponse	0	0.039	721.552	7	76	Feedback	Neutral	True
723.967	3.236	Control	0.5844	n/a	No	3.236	n/a	n/a	NoResponse	0	0.0	n/a	7	76	ISIslide	Neutral	True
727.227	0.25	Lose2	0.5897	0.0	Yes	2.573	0.027	n/a	GoodResponse	0	n/a	n/a	7	77	Cue	AvoidedLoss	True
727.477	3.95	Lose2	0.5897	0.0	Yes	2.573	0.0	n/a	GoodResponse	0	n/a	n/a	7	77	Fixation	AvoidedLoss	True
731.423	0.5	Lose2	0.5897	0.004	Yes	2.573	-0.004	2.0	GoodResponse	0	0.359	730.782	7	77	Target	AvoidedLoss	True
731.782	0.3	Lose2	0.5897	0.004	Yes	2.573	-0.004	2.0	GoodResponse	0	0.359	n/a	7	77	ButtonPress	AvoidedLoss	True
731.924	0.2	Lose2	0.5897	n/a	Yes	2.573	n/a	n/a	GoodResponse	0	n/a	n/a	7	77	Blank	AvoidedLoss	True
732.125	1.45	Lose2	0.5897	n/a	Yes	2.573	n/a	5.0	GoodResponse	0	0.037	731.162	7	77	Feedback	AvoidedLoss	True
733.579	2.573	Lose2	0.5897	n/a	Yes	2.573	n/a	n/a	GoodResponse	0	0.0	n/a	7	77	ISIslide	AvoidedLoss	True
