onset	duration	cue_type	current_mean_accuracy	duration_error	is_hit	isi_adjusted	onset_delay	response	response_type	reward	rt	rt_time	total_reward	trial_number	trial_phase	trial_type	one_press
11.097	0.25	Control	1.0	0.0	Yes	2.953	-0.003	n/a	GoodResponse	0	n/a	n/a	0	0	Cue	Neutral	True
11.348	3.85	Control	1.0	0.0	Yes	2.953	0.001	n/a	GoodResponse	0	n/a	n/a	0	0	Fixation	Neutral	True
15.193	0.4	Control	1.0	0.004	Yes	2.953	-0.004	2.0	GoodResponse	0	0.22	14.413	0	0	Target	Neutral	True
15.413	0.3	Control	1.0	0.004	Yes	2.953	-0.004	2.0	GoodResponse	0	0.22	n/a	0	0	ButtonPress	Neutral	True
15.594	0.3	Control	1.0	n/a	Yes	2.953	n/a	n/a	GoodResponse	0	n/a	n/a	0	0	Blank	Neutral	True
15.895	1.45	Control	1.0	n/a	Yes	2.953	n/a	5.0	GoodResponse	0	0.032	14.927	0	0	Feedback	Neutral	True
17.349	2.953	Control	1.0	n/a	Yes	2.953	n/a	n/a	GoodResponse	0	0.0	n/a	0	0	ISIslide	Neutral	True
20.325	0.25	Lose2	1.0	0.0	Yes	2.775	0.025	n/a	GoodResponse	0	n/a	n/a	0	1	Cue	AvoidedLoss	True
20.575	4.0	Lose2	1.0	0.001	Yes	2.775	0.0	n/a	GoodResponse	0	n/a	n/a	0	1	Fixation	AvoidedLoss	True
24.571	0.39	Lose2	1.0	0.004	Yes	2.775	-0.004	2.0	GoodResponse	0	0.266	23.837	0	1	Target	AvoidedLoss	True
24.837	0.3	Lose2	1.0	0.004	Yes	2.775	-0.004	2.0	GoodResponse	0	0.266	n/a	0	1	ButtonPress	AvoidedLoss	True
24.972	0.31	Lose2	1.0	n/a	Yes	2.775	n/a	n/a	GoodResponse	0	n/a	n/a	0	1	Blank	AvoidedLoss	True
25.273	1.45	Lose2	1.0	n/a	Yes	2.775	n/a	5.0	GoodResponse	0	0.02	24.293	0	1	Feedback	AvoidedLoss	True
26.727	2.775	Lose2	1.0	n/a	Yes	2.775	n/a	n/a	GoodResponse	0	0.0	n/a	0	1	ISIslide	AvoidedLoss	True
29.519	0.25	Control	1.0	0.0	Yes	2.581	0.019	n/a	GoodResponse	0	n/a	n/a	0	2	Cue	Neutral	True
29.77	4.1	Control	1.0	0.0	Yes	2.581	0.001	n/a	GoodResponse	0	n/a	n/a	0	2	Fixation	Neutral	True
33.865	0.38	Control	1.0	0.004	Yes	2.581	-0.004	2.0	GoodResponse	0	0.216	33.081	0	2	Target	Neutral	True
34.081	0.3	Control	1.0	0.004	Yes	2.581	-0.004	2.0	GoodResponse	0	0.216	n/a	0	2	ButtonPress	Neutral	True
34.25	0.32	Control	1.0	n/a	Yes	2.581	n/a	n/a	GoodResponse	0	n/a	n/a	0	2	Blank	Neutral	True
34.567	1.45	Control	1.0	n/a	Yes	2.581	n/a	5.0	GoodResponse	0	0.042	33.609	0	2	Feedback	Neutral	True
36.022	2.581	Control	1.0	n/a	Yes	2.581	n/a	n/a	GoodResponse	0	0.0	n/a	0	2	ISIslide	Neutral	True
38.629	0.25	Win2	1.0	0.001	Yes	2.821	0.029	n/a	GoodResponse	1	n/a	n/a	1	3	Cue	Win	True
38.88	3.95	Win2	1.0	0.0	Yes	2.821	0.001	n/a	GoodResponse	1	n/a	n/a	1	3	Fixation	Win	True
42.825	0.37	Win2	1.0	0.004	Yes	2.821	-0.004	2.0	GoodResponse	1	0.213	42.038	1	3	Target	Win	True
43.038	0.3	Win2	1.0	0.004	Yes	2.821	-0.004	2.0	GoodResponse	1	0.213	n/a	1	3	ButtonPress	Win	True
43.21	0.33	Win2	1.0	n/a	Yes	2.821	n/a	n/a	GoodResponse	1	n/a	n/a	1	3	Blank	Win	True
43.527	1.45	Win2	1.0	n/a	Yes	2.821	n/a	5.0	GoodResponse	1	0.009	42.536	1	3	Feedback	Win	True
44.982	2.821	Win2	1.0	n/a	Yes	2.821	n/a	n/a	GoodResponse	1	0.0	n/a	1	3	ISIslide	Win	True
47.824	0.25	Win2	1.0	0.0	Yes	3.276	0.024	n/a	GoodResponse	1	n/a	n/a	2	4	Cue	Win	True
48.074	4.0	Win2	1.0	0.0	Yes	3.276	0.0	n/a	GoodResponse	1	n/a	n/a	2	4	Fixation	Win	True
52.07	0.36	Win2	1.0	0.004	Yes	3.276	-0.004	2.0	GoodResponse	1	0.21	51.28	2	4	Target	Win	True
52.28	0.3	Win2	1.0	0.004	Yes	3.276	-0.004	2.0	GoodResponse	1	0.21	n/a	2	4	ButtonPress	Win	True
52.437	0.34	Win2	1.0	n/a	Yes	3.276	n/a	n/a	GoodResponse	1	n/a	n/a	2	4	Blank	Win	True
52.772	1.45	Win2	1.0	n/a	Yes	3.276	n/a	5.0	GoodResponse	1	0.033	51.805	2	4	Feedback	Win	True
54.226	3.276	Win2	1.0	n/a	Yes	3.276	n/a	n/a	GoodResponse	1	0.0	n/a	2	4	ISIslide	Win	True
57.519	0.25	Win2	1.0	0.0	Yes	2.781	0.019	n/a	GoodResponse	1	n/a	n/a	3	5	Cue	Win	True
57.77	4.0	Win2	1.0	0.0	Yes	2.781	0.001	n/a	GoodResponse	1	n/a	n/a	3	5	Fixation	Win	True
61.765	0.35	Win2	1.0	0.004	Yes	2.781	-0.004	2.0	GoodResponse	1	0.181	60.946	3	5	Target	Win	True
61.946	0.3	Win2	1.0	0.004	Yes	2.781	-0.004	2.0	GoodResponse	1	0.181	n/a	3	5	ButtonPress	Win	True
62.116	0.35	Win2	1.0	n/a	Yes	2.781	n/a	n/a	GoodResponse	1	n/a	n/a	3	5	Blank	Win	True
62.467	1.45	Win2	1.0	n/a	Yes	2.781	n/a	5.0	GoodResponse	1	0.045	61.512	3	5	Feedback	Win	True
63.922	2.781	Win2	1.0	n/a	Yes	2.781	n/a	n/a	GoodResponse	1	0.0	n/a	3	5	ISIslide	Win	True
66.73	0.25	Lose2	1.0	0.0	Yes	2.72	0.03	n/a	GoodResponse	0	n/a	n/a	3	6	Cue	AvoidedLoss	True
66.981	3.95	Lose2	1.0	0.0	Yes	2.72	0.001	n/a	GoodResponse	0	n/a	n/a	3	6	Fixation	AvoidedLoss	True
70.926	0.34	Lose2	1.0	0.004	Yes	2.72	-0.004	2.0	GoodResponse	0	0.193	70.119	3	6	Target	AvoidedLoss	True
71.119	0.3	Lose2	1.0	0.004	Yes	2.72	-0.004	2.0	GoodResponse	0	0.193	n/a	3	6	ButtonPress	AvoidedLoss	True
71.277	0.36	Lose2	1.0	n/a	Yes	2.72	n/a	n/a	GoodResponse	0	n/a	n/a	3	6	Blank	AvoidedLoss	True
71.628	1.45	Lose2	1.0	n/a	Yes	2.72	n/a	5.0	GoodResponse	0	0.007	70.635	3	6	Feedback	AvoidedLoss	True
73.082	2.72	Lose2	1.0	n/a	Yes	2.72	n/a	n/a	GoodResponse	0	0.0	n/a	3	6	ISIslide	AvoidedLoss	True
75.824	0.25	Lose2	1.0	0.0	Yes	4.026	0.024	n/a	GoodResponse	0	n/a	n/a	3	7	Cue	AvoidedLoss	True
76.075	4.05	Lose2	1.0	0.0	Yes	4.026	0.001	n/a	GoodResponse	0	n/a	n/a	3	7	Fixation	AvoidedLoss	True
80.12	0.33	Lose2	1.0	0.004	Yes	4.026	-0.004	2.0	GoodResponse	0	0.247	79.367	3	7	Target	AvoidedLoss	True
80.367	0.3	Lose2	1.0	0.004	Yes	4.026	-0.004	2.0	GoodResponse	0	0.247	n/a	3	7	ButtonPress	AvoidedLoss	True
80.455	0.37	Lose2	1.0	n/a	Yes	4.026	n/a	n/a	GoodResponse	0	n/a	n/a	3	7	Blank	AvoidedLoss	True
80.822	1.45	Lose2	1.0	n/a	Yes	4.026	n/a	5.0	GoodResponse	0	0.031	79.853	3	7	Feedback	AvoidedLoss	True
82.277	4.026	Lose2	1.0	n/a	Yes	4.026	n/a	n/a	GoodResponse	0	0.0	n/a	3	7	ISIslide	AvoidedLoss	True
86.322	0.25	Lose2	1.0	0.0	Yes	3.028	0.022	n/a	GoodResponse	0	n/a	n/a	3	8	Cue	AvoidedLoss	True
86.573	3.95	Lose2	1.0	0.0	Yes	3.028	0.001	n/a	GoodResponse	0	n/a	n/a	3	8	Fixation	AvoidedLoss	True
90.518	0.32	Lose2	1.0	0.004	Yes	3.028	-0.004	2.0	GoodResponse	0	0.225	89.743	3	8	Target	AvoidedLoss	True
90.743	0.3	Lose2	1.0	0.004	Yes	3.028	-0.004	2.0	GoodResponse	0	0.225	n/a	3	8	ButtonPress	AvoidedLoss	True
90.852	0.38	Lose2	1.0	n/a	Yes	3.028	n/a	n/a	GoodResponse	0	n/a	n/a	3	8	Blank	AvoidedLoss	True
91.22	1.45	Lose2	1.0	n/a	Yes	3.028	n/a	5.0	GoodResponse	0	0.023	90.243	3	8	Feedback	AvoidedLoss	True
92.674	3.028	Lose2	1.0	n/a	Yes	3.028	n/a	n/a	GoodResponse	0	0.0	n/a	3	8	ISIslide	AvoidedLoss	True
95.717	0.25	Lose2	1.0	0.0	Yes	3.133	0.017	n/a	GoodResponse	0	n/a	n/a	3	9	Cue	AvoidedLoss	True
95.968	3.95	Lose2	1.0	0.0	Yes	3.133	0.001	n/a	GoodResponse	0	n/a	n/a	3	9	Fixation	AvoidedLoss	True
99.913	0.31	Lose2	1.0	0.004	Yes	3.133	-0.004	2.0	GoodResponse	0	0.199	99.112	3	9	Target	AvoidedLoss	True
100.112	0.3	Lose2	1.0	0.004	Yes	3.133	-0.004	2.0	GoodResponse	0	0.199	n/a	3	9	ButtonPress	AvoidedLoss	True
100.23	0.39	Lose2	1.0	n/a	Yes	3.133	n/a	n/a	GoodResponse	0	n/a	n/a	3	9	Blank	AvoidedLoss	True
100.615	1.45	Lose2	1.0	n/a	Yes	3.133	n/a	5.0	GoodResponse	0	0.043	99.658	3	9	Feedback	AvoidedLoss	True
102.069	3.133	Lose2	1.0	n/a	Yes	3.133	n/a	n/a	GoodResponse	0	0.0	n/a	3	9	ISIslide	AvoidedLoss	True
105.229	0.25	Control	1.0	0.0	Yes	3.271	0.029	n/a	GoodResponse	0	n/a	n/a	3	10	Cue	Neutral	True
105.479	4.0	Control	1.0	0.0	Yes	3.271	0.0	n/a	GoodResponse	0	n/a	n/a	3	10	Fixation	Neutral	True
109.475	0.3	Control	1.0	0.004	Yes	3.271	-0.004	2.0	GoodResponse	0	0.222	108.697	3	10	Target	Neutral	True
109.697	0.3	Control	1.0	0.004	Yes	3.271	-0.004	2.0	GoodResponse	0	0.222	n/a	3	10	ButtonPress	Neutral	True
109.775	0.4	Control	1.0	n/a	Yes	3.271	n/a	n/a	GoodResponse	0	n/a	n/a	3	10	Blank	Neutral	True
110.177	1.45	Control	1.0	n/a	Yes	3.271	n/a	5.0	GoodResponse	0	0.042	109.219	3	10	Feedback	Neutral	True
111.631	3.271	Control	1.0	n/a	Yes	3.271	n/a	n/a	GoodResponse	0	0.0	n/a	3	10	ISIslide	Neutral	True
114.924	0.25	Lose2	1.0	0.0	Yes	2.726	0.024	n/a	GoodResponse	0	n/a	n/a	3	11	Cue	AvoidedLoss	True
115.175	4.05	Lose2	1.0	0.0	Yes	2.726	0.001	n/a	GoodResponse	0	n/a	n/a	3	11	Fixation	AvoidedLoss	True
119.22	0.29	Lose2	1.0	0.004	Yes	2.726	-0.004	2.0	GoodResponse	0	0.201	118.421	3	11	Target	AvoidedLoss	True
119.421	0.3	Lose2	1.0	0.004	Yes	2.726	-0.004	2.0	GoodResponse	0	0.201	n/a	3	11	ButtonPress	AvoidedLoss	True
119.521	0.41	Lose2	1.0	n/a	Yes	2.726	n/a	n/a	GoodResponse	0	n/a	n/a	3	11	Blank	AvoidedLoss	True
119.923	1.45	Lose2	1.0	n/a	Yes	2.726	n/a	5.0	GoodResponse	0	0.006	118.929	3	11	Feedback	AvoidedLoss	True
121.377	2.726	Lose2	1.0	n/a	Yes	2.726	n/a	n/a	GoodResponse	0	0.0	n/a	3	11	ISIslide	AvoidedLoss	True
124.118	0.25	Control	1.0	0.0	Yes	2.982	0.018	n/a	GoodResponse	0	n/a	n/a	3	12	Cue	Neutral	True
124.369	3.9	Control	1.0	0.0	Yes	2.982	0.001	n/a	GoodResponse	0	n/a	n/a	3	12	Fixation	Neutral	True
128.264	0.28	Control	1.0	0.004	Yes	2.982	-0.004	2.0	GoodResponse	0	0.182	127.446	3	12	Target	Neutral	True
128.446	0.3	Control	1.0	0.004	Yes	2.982	-0.004	2.0	GoodResponse	0	0.182	n/a	3	12	ButtonPress	Neutral	True
128.548	0.42	Control	1.0	n/a	Yes	2.982	n/a	n/a	GoodResponse	0	n/a	n/a	3	12	Blank	Neutral	True
128.966	1.45	Control	1.0	n/a	Yes	2.982	n/a	5.0	GoodResponse	0	0.033	127.999	3	12	Feedback	Neutral	True
130.421	2.982	Control	1.0	n/a	Yes	2.982	n/a	n/a	GoodResponse	0	0.0	n/a	3	12	ISIslide	Neutral	True
133.43	0.25	Control	1.0	0.0	Yes	2.77	0.03	n/a	GoodResponse	0	n/a	n/a	3	13	Cue	Neutral	True
133.68	4.0	Control	1.0	0.0	Yes	2.77	0.0	n/a	GoodResponse	0	n/a	n/a	3	13	Fixation	Neutral	True
137.676	0.27	Control	1.0	0.004	Yes	2.77	-0.004	2.0	GoodResponse	0	0.185	136.861	3	13	Target	Neutral	True
137.861	0.3	Control	1.0	0.004	Yes	2.77	-0.004	2.0	GoodResponse	0	0.185	n/a	3	13	ButtonPress	Neutral	True
137.96	0.43	Control	1.0	n/a	Yes	2.77	n/a	n/a	GoodResponse	0	n/a	n/a	3	13	Blank	Neutral	True
138.378	1.45	Control	1.0	n/a	Yes	2.77	n/a	5.0	GoodResponse	0	0.035	137.413	3	13	Feedback	Neutral	True
139.832	2.77	Control	1.0	n/a	Yes	2.77	n/a	n/a	GoodResponse	0	0.0	n/a	3	13	ISIslide	Neutral	True
142.624	0.25	Win2	1.0	0.0	Yes	2.676	0.024	n/a	GoodResponse	1	n/a	n/a	4	14	Cue	Win	True
142.874	4.1	Win2	1.0	0.001	Yes	2.676	0.0	n/a	GoodResponse	1	n/a	n/a	4	14	Fixation	Win	True
146.97	0.26	Win2	1.0	0.004	Yes	2.676	-0.004	2.0	GoodResponse	1	0.183	146.153	4	14	Target	Win	True
147.153	0.3	Win2	1.0	0.004	Yes	2.676	-0.004	2.0	GoodResponse	1	0.183	n/a	4	14	ButtonPress	Win	True
147.238	0.44	Win2	1.0	n/a	Yes	2.676	n/a	n/a	GoodResponse	1	n/a	n/a	4	14	Blank	Win	True
147.672	1.45	Win2	1.0	n/a	Yes	2.676	n/a	5.0	GoodResponse	1	0.01	146.682	4	14	Feedback	Win	True
149.126	2.676	Win2	1.0	n/a	Yes	2.676	n/a	n/a	GoodResponse	1	0.0	n/a	4	14	ISIslide	Win	True
151.818	0.25	Control	1.0	0.0	Yes	2.982	0.018	n/a	GoodResponse	0	n/a	n/a	4	15	Cue	Neutral	True
152.069	4.0	Control	1.0	0.0	Yes	2.982	0.001	n/a	GoodResponse	0	n/a	n/a	4	15	Fixation	Neutral	True
156.064	0.25	Control	1.0	0.004	Yes	2.982	-0.004	2.0	GoodResponse	0	0.244	155.308	4	15	Target	Neutral	True
156.308	0.3	Control	1.0	0.004	Yes	2.982	-0.004	2.0	GoodResponse	0	0.244	n/a	4	15	ButtonPress	Neutral	True
156.315	0.45	Control	1.0	n/a	Yes	2.982	n/a	n/a	GoodResponse	0	n/a	n/a	4	15	Blank	Neutral	True
156.766	1.45	Control	1.0	n/a	Yes	2.982	n/a	5.0	GoodResponse	0	0.038	155.804	4	15	Feedback	Neutral	True
158.22	2.982	Control	1.0	n/a	Yes	2.982	n/a	n/a	GoodResponse	0	0.0	n/a	4	15	ISIslide	Neutral	True
161.229	0.25	Win2	1.0	0.0	Yes	2.871	0.029	n/a	GoodResponse	1	n/a	n/a	5	16	Cue	Win	True
161.48	4.0	Win2	1.0	0.0	Yes	2.871	0.001	n/a	GoodResponse	1	n/a	n/a	5	16	Fixation	Win	True
165.475	0.24	Win2	1.0	0.004	Yes	2.871	-0.004	2.0	GoodResponse	1	0.177	164.652	5	16	Target	Win	True
165.652	0.3	Win2	1.0	0.004	Yes	2.871	-0.004	2.0	GoodResponse	1	0.177	n/a	5	16	ButtonPress	Win	True
165.726	0.46	Win2	1.0	n/a	Yes	2.871	n/a	n/a	GoodResponse	1	n/a	n/a	5	16	Blank	Win	True
166.177	1.45	Win2	1.0	n/a	Yes	2.871	n/a	5.0	GoodResponse	1	0.041	165.218	5	16	Feedback	Win	True
167.632	2.871	Win2	1.0	n/a	Yes	2.871	n/a	n/a	GoodResponse	1	0.0	n/a	5	16	ISIslide	Win	True
170.524	0.25	Lose2	1.0	0.0	Yes	2.726	0.024	n/a	GoodResponse	0	n/a	n/a	5	17	Cue	AvoidedLoss	True
170.775	3.95	Lose2	1.0	0.0	Yes	2.726	0.001	n/a	GoodResponse	0	n/a	n/a	5	17	Fixation	AvoidedLoss	True
174.72	0.23	Lose2	1.0	0.004	Yes	2.726	-0.004	2.0	GoodResponse	0	0.191	173.911	5	17	Target	AvoidedLoss	True
174.911	0.3	Lose2	1.0	0.004	Yes	2.726	-0.004	2.0	GoodResponse	0	0.191	n/a	5	17	ButtonPress	AvoidedLoss	True
174.954	0.47	Lose2	1.0	n/a	Yes	2.726	n/a	n/a	GoodResponse	0	n/a	n/a	5	17	Blank	AvoidedLoss	True
175.422	1.45	Lose2	1.0	n/a	Yes	2.726	n/a	5.0	GoodResponse	0	0.015	174.437	5	17	Feedback	AvoidedLoss	True
176.876	2.726	Lose2	1.0	n/a	Yes	2.726	n/a	n/a	GoodResponse	0	0.0	n/a	5	17	ISIslide	AvoidedLoss	True
179.618	0.25	Lose2	1.0	0.0	Yes	2.732	0.018	n/a	GoodResponse	0	n/a	n/a	5	18	Cue	AvoidedLoss	True
179.868	4.05	Lose2	1.0	0.0	Yes	2.732	0.0	n/a	GoodResponse	0	n/a	n/a	5	18	Fixation	AvoidedLoss	True
183.914	0.22	Lose2	1.0	0.004	Yes	2.732	-0.004	2.0	GoodResponse	0	0.163	183.077	5	18	Target	AvoidedLoss	True
184.077	0.3	Lose2	1.0	0.004	Yes	2.732	-0.004	2.0	GoodResponse	0	0.163	n/a	5	18	ButtonPress	AvoidedLoss	True
184.148	0.48	Lose2	1.0	n/a	Yes	2.732	n/a	n/a	GoodResponse	0	n/a	n/a	5	18	Blank	AvoidedLoss	True
184.616	1.45	Lose2	1.0	n/a	Yes	2.732	n/a	5.0	GoodResponse	0	0.041	183.657	5	18	Feedback	AvoidedLoss	True
186.07	2.732	Lose2	1.0	n/a	Yes	2.732	n/a	n/a	GoodResponse	0	0.0	n/a	5	18	ISIslide	AvoidedLoss	True
188.829	0.25	Control	0.95	0.0	No	2.921	0.029	n/a	NoResponse	0	n/a	n/a	5	19	Cue	Neutral	True
189.079	3.95	Control	0.95	0.0	No	2.921	0.0	2.0	NoResponse	0	3.907	191.986	5	19	Fixation	Neutral	True
192.986	0.3	Control	0.95	0.0	No	2.921	0.0	2.0	NoResponse	0	3.907	n/a	5	19	ButtonPress	Neutral	True
193.041	0.21	Control	0.95	0.0	No	2.921	0.012	n/a	NoResponse	0	n/a	n/a	5	19	Target	Neutral	True
193.242	0.49	Control	0.95	n/a	No	2.921	n/a	n/a	NoResponse	0	n/a	n/a	5	19	Blank	Neutral	True
193.727	1.45	Control	0.95	n/a	No	2.921	n/a	5.0	NoResponse	0	0.007	192.734	5	19	Feedback	Neutral	True
195.181	2.921	Control	0.95	n/a	No	2.921	n/a	n/a	NoResponse	0	0.0	n/a	5	19	ISIslide	Neutral	True
198.123	0.25	Control	0.9523999999999999	0.0	Yes	2.627	0.023	n/a	GoodResponse	0	n/a	n/a	5	20	Cue	Neutral	True
198.374	4.05	Control	0.9523999999999999	0.0	Yes	2.627	0.001	n/a	GoodResponse	0	n/a	n/a	5	20	Fixation	Neutral	True
202.419	0.2	Control	0.9523999999999999	0.004	Yes	2.627	-0.004	2.0	GoodResponse	0	0.184	201.603	5	20	Target	Neutral	True
202.603	0.3	Control	0.9523999999999999	0.004	Yes	2.627	-0.004	2.0	GoodResponse	0	0.184	n/a	5	20	ButtonPress	Neutral	True
202.62	0.5	Control	0.9523999999999999	n/a	Yes	2.627	n/a	n/a	GoodResponse	0	n/a	n/a	5	20	Blank	Neutral	True
203.121	1.45	Control	0.9523999999999999	n/a	Yes	2.627	n/a	5.0	GoodResponse	0	0.024	202.145	5	20	Feedback	Neutral	True
204.576	2.627	Control	0.9523999999999999	n/a	Yes	2.627	n/a	n/a	GoodResponse	0	0.0	n/a	5	20	ISIslide	Neutral	True
207.217	0.25	Control	0.9545	0.0	Yes	2.783	0.017	n/a	GoodResponse	0	n/a	n/a	5	21	Cue	Neutral	True
207.468	4.1	Control	0.9545	0.0	Yes	2.783	0.001	n/a	GoodResponse	0	n/a	n/a	5	21	Fixation	Neutral	True
211.563	0.19	Control	0.9545	0.004	Yes	2.783	-0.004	2.0	GoodResponse	0	0.181	210.744	5	21	Target	Neutral	True
211.744	0.3	Control	0.9545	0.004	Yes	2.783	-0.004	2.0	GoodResponse	0	0.181	n/a	5	21	ButtonPress	Neutral	True
211.764	0.51	Control	0.9545	n/a	Yes	2.783	n/a	n/a	GoodResponse	0	n/a	n/a	5	21	Blank	Neutral	True
212.265	1.45	Control	0.9545	n/a	Yes	2.783	n/a	5.0	GoodResponse	0	0.001	211.266	5	21	Feedback	Neutral	True
213.72	2.783	Control	0.9545	n/a	Yes	2.783	n/a	n/a	GoodResponse	0	0.0	n/a	5	21	ISIslide	Neutral	True
216.528	0.25	Control	0.9565	0.0	Yes	2.772	0.028	n/a	GoodResponse	0	n/a	n/a	5	22	Cue	Neutral	True
216.779	4.0	Control	0.9565	0.0	Yes	2.772	0.001	n/a	GoodResponse	0	n/a	n/a	5	22	Fixation	Neutral	True
220.774	0.18	Control	0.9565	0.004	Yes	2.772	-0.004	2.0	GoodResponse	0	0.171	219.945	5	22	Target	Neutral	True
220.945	0.3	Control	0.9565	0.004	Yes	2.772	-0.004	2.0	GoodResponse	0	0.171	n/a	5	22	ButtonPress	Neutral	True
220.958	0.52	Control	0.9565	n/a	Yes	2.772	n/a	n/a	GoodResponse	0	n/a	n/a	5	22	Blank	Neutral	True
221.476	1.45	Control	0.9565	n/a	Yes	2.772	n/a	5.0	GoodResponse	0	0.009	220.485	5	22	Feedback	Neutral	True
222.93	2.772	Control	0.9565	n/a	Yes	2.772	n/a	n/a	GoodResponse	0	0.0	n/a	5	22	ISIslide	Neutral	True
225.722	0.25	Control	0.9167000000000001	0.0	No	2.778	0.022	n/a	LatePress	0	n/a	n/a	5	23	Cue	Neutral	True
225.973	3.9	Control	0.9167000000000001	0.0	No	2.778	0.001	n/a	LatePress	0	n/a	n/a	5	23	Fixation	Neutral	True
229.868	0.17	Control	0.9167000000000001	0.004	No	2.778	-0.004	2.0	LatePress	0	0.173	229.041	5	23	Target	Neutral	True
230.041	0.3	Control	0.9167000000000001	0.004	No	2.778	-0.004	2.0	LatePress	0	0.173	n/a	5	23	ButtonPress	Neutral	True
230.052	0.53	Control	0.9167000000000001	n/a	No	2.778	n/a	n/a	LatePress	0	n/a	n/a	5	23	Blank	Neutral	True
230.57	1.45	Control	0.9167000000000001	n/a	No	2.778	n/a	5.0	LatePress	0	0.038	229.608	5	23	Feedback	Neutral	True
232.024	2.778	Control	0.9167000000000001	n/a	No	2.778	n/a	n/a	LatePress	0	0.0	n/a	5	23	ISIslide	Neutral	True
234.816	0.25	Win2	0.88	0.0	No	3.134	0.016	n/a	NoResponse	0	n/a	n/a	5	24	Cue	MissedWin	True
235.067	3.95	Win2	0.88	0.0	No	3.134	0.001	n/a	NoResponse	0	n/a	n/a	5	24	Fixation	MissedWin	True
239.012	0.16	Win2	0.88	0.004	No	3.134	-0.004	2.0	NoResponse	0	0.176	238.188	5	24	Target	MissedWin	True
239.179	0.54	Win2	0.88	n/a	No	3.134	n/a	n/a	NoResponse	0	n/a	n/a	5	24	Blank	MissedWin	True
239.188	0.3	Win2	0.88	0.004	No	3.134	-0.004	2.0	NoResponse	0	0.176	n/a	5	24	ButtonPress	MissedWin	True
239.714	1.45	Win2	0.88	n/a	No	3.134	n/a	5.0	NoResponse	0	0.016	238.73	5	24	Feedback	MissedWin	True
241.168	3.134	Win2	0.88	n/a	No	3.134	n/a	n/a	NoResponse	0	0.0	n/a	5	24	ISIslide	MissedWin	True
244.328	0.25	Win2	0.8462000000000001	0.0	No	3.072	0.028	n/a	NoResponse	0	n/a	n/a	5	25	Cue	MissedWin	True
244.579	4.0	Win2	0.8462000000000001	0.0	No	3.072	0.001	2.0	NoResponse	0	3.829	247.408	5	25	Fixation	MissedWin	True
248.408	0.3	Win2	0.8462000000000001	0.0	No	3.072	0.001	2.0	NoResponse	0	3.829	n/a	5	25	ButtonPress	MissedWin	True
248.574	0.15	Win2	0.8462000000000001	0.004	No	3.072	-0.004	n/a	NoResponse	0	n/a	n/a	5	25	Target	MissedWin	True
248.724	0.55	Win2	0.8462000000000001	n/a	No	3.072	n/a	n/a	NoResponse	0	n/a	n/a	5	25	Blank	MissedWin	True
249.276	1.45	Win2	0.8462000000000001	n/a	No	3.072	n/a	5.0	NoResponse	0	0.014	248.29	5	25	Feedback	MissedWin	True
250.73	3.072	Win2	0.8462000000000001	n/a	No	3.072	n/a	n/a	NoResponse	0	0.0	n/a	5	25	ISIslide	MissedWin	True
253.823	0.25	Win2	0.8148000000000001	0.0	No	2.927	0.023	n/a	NoResponse	0	n/a	n/a	5	26	Cue	MissedWin	True
254.074	3.95	Win2	0.8148000000000001	0.0	No	2.927	0.001	n/a	NoResponse	0	n/a	n/a	5	26	Fixation	MissedWin	True
258.019	0.15	Win2	0.8148000000000001	0.004	No	2.927	-0.004	2.0	NoResponse	0	0.182	257.201	5	26	Target	MissedWin	True
258.169	0.55	Win2	0.8148000000000001	n/a	No	2.927	n/a	n/a	NoResponse	0	n/a	n/a	5	26	Blank	MissedWin	True
258.201	0.3	Win2	0.8148000000000001	0.004	No	2.927	-0.004	2.0	NoResponse	0	0.182	n/a	5	26	ButtonPress	MissedWin	True
258.721	1.45	Win2	0.8148000000000001	n/a	No	2.927	n/a	5.0	NoResponse	0	0.032	257.753	5	26	Feedback	MissedWin	True
260.175	2.927	Win2	0.8148000000000001	n/a	No	2.927	n/a	n/a	NoResponse	0	0.0	n/a	5	26	ISIslide	MissedWin	True
263.117	0.25	Lose2	0.7857	0.0	No	2.833	0.017	n/a	NoResponse	-1	n/a	n/a	4	27	Cue	Loss	True
263.368	4.05	Lose2	0.7857	0.0	No	2.833	0.001	n/a	NoResponse	-1	n/a	n/a	4	27	Fixation	Loss	True
267.413	0.15	Lose2	0.7857	0.004	No	2.833	-0.004	2.0	NoResponse	-1	0.196	266.609	4	27	Target	Loss	True
267.564	0.55	Lose2	0.7857	n/a	No	2.833	n/a	n/a	NoResponse	-1	n/a	n/a	4	27	Blank	Loss	True
267.609	0.3	Lose2	0.7857	0.004	No	2.833	-0.004	2.0	NoResponse	-1	0.196	n/a	4	27	ButtonPress	Loss	True
268.116	1.45	Lose2	0.7857	n/a	No	2.833	n/a	5.0	NoResponse	-1	0.005	267.121	4	27	Feedback	Loss	True
269.57	2.833	Lose2	0.7857	n/a	No	2.833	n/a	n/a	NoResponse	-1	0.0	n/a	4	27	ISIslide	Loss	True
272.428	0.25	Control	0.7585999999999999	0.001	No	2.822	0.028	n/a	NoResponse	0	n/a	n/a	4	28	Cue	Neutral	True
272.679	4.05	Control	0.7585999999999999	0.0	No	2.822	0.001	2.0	NoResponse	0	3.955	275.634	4	28	Fixation	Neutral	True
276.634	0.3	Control	0.7585999999999999	0.0	No	2.822	0.001	2.0	NoResponse	0	3.955	n/a	4	28	ButtonPress	Neutral	True
276.725	0.15	Control	0.7585999999999999	0.003	No	2.822	-0.003	n/a	NoResponse	0	n/a	n/a	4	28	Target	Neutral	True
276.875	0.55	Control	0.7585999999999999	n/a	No	2.822	n/a	n/a	NoResponse	0	n/a	n/a	4	28	Blank	Neutral	True
277.427	1.45	Control	0.7585999999999999	n/a	No	2.822	n/a	5.0	NoResponse	0	0.009	276.436	4	28	Feedback	Neutral	True
278.881	2.822	Control	0.7585999999999999	n/a	No	2.822	n/a	n/a	NoResponse	0	0.0	n/a	4	28	ISIslide	Neutral	True
281.723	0.25	Lose2	0.7333	0.0	No	2.827	0.023	n/a	NoResponse	-1	n/a	n/a	3	29	Cue	Loss	False
281.974	3.95	Lose2	0.7333	0.0	No	2.827	0.001	n/a	NoResponse	-1	n/a	n/a	3	29	Fixation	Loss	False
285.919	0.15	Lose2	0.7333	0.004	No	2.827	-0.004	n/a	NoResponse	-1	n/a	n/a	3	29	Target	Loss	False
286.069	0.55	Lose2	0.7333	n/a	No	2.827	n/a	n/a	NoResponse	-1	n/a	n/a	3	29	Blank	Loss	False
286.621	1.45	Lose2	0.7333	n/a	No	2.827	n/a	5.0	NoResponse	-1	0.035	285.656	3	29	Feedback	Loss	False
288.075	2.827	Lose2	0.7333	n/a	No	2.827	n/a	n/a	NoResponse	-1	0.0	n/a	3	29	ISIslide	Loss	False
290.917	0.25	Win2	0.7097	0.0	No	2.783	0.017	n/a	NoResponse	0	n/a	n/a	3	30	Cue	MissedWin	True
291.168	3.9	Win2	0.7097	0.0	No	2.783	0.001	n/a	NoResponse	0	n/a	n/a	3	30	Fixation	MissedWin	True
295.063	0.15	Win2	0.7097	0.004	No	2.783	-0.004	2.0	NoResponse	0	0.196	294.259	3	30	Target	MissedWin	True
295.213	0.55	Win2	0.7097	n/a	No	2.783	n/a	n/a	NoResponse	0	n/a	n/a	3	30	Blank	MissedWin	True
295.259	0.3	Win2	0.7097	0.004	No	2.783	-0.004	2.0	NoResponse	0	0.196	n/a	3	30	ButtonPress	MissedWin	True
295.765	1.45	Win2	0.7097	n/a	No	2.783	n/a	5.0	NoResponse	0	0.012	294.777	3	30	Feedback	MissedWin	True
297.219	2.783	Win2	0.7097	n/a	No	2.783	n/a	n/a	NoResponse	0	0.0	n/a	3	30	ISIslide	MissedWin	True
300.028	0.25	Lose2	0.6875	0.0	No	2.822	0.028	n/a	NoResponse	-1	n/a	n/a	2	31	Cue	Loss	True
300.278	4.05	Lose2	0.6875	0.0	No	2.822	0.0	n/a	NoResponse	-1	n/a	n/a	2	31	Fixation	Loss	True
304.324	0.15	Lose2	0.6875	0.004	No	2.822	-0.004	2.0	NoResponse	-1	0.174	303.498	2	31	Target	Loss	True
304.474	0.55	Lose2	0.6875	n/a	No	2.822	n/a	n/a	NoResponse	-1	n/a	n/a	2	31	Blank	Loss	True
304.498	0.3	Lose2	0.6875	0.004	No	2.822	-0.004	2.0	NoResponse	-1	0.174	n/a	2	31	ButtonPress	Loss	True
305.026	1.45	Lose2	0.6875	n/a	No	2.822	n/a	5.0	NoResponse	-1	0.019	304.045	2	31	Feedback	Loss	True
306.48	2.822	Lose2	0.6875	n/a	No	2.822	n/a	n/a	NoResponse	-1	0.0	n/a	2	31	ISIslide	Loss	True
309.322	0.25	Lose2	0.6667000000000001	0.0	No	2.628	0.022	n/a	NoResponse	-1	n/a	n/a	1	32	Cue	Loss	True
309.573	4.15	Lose2	0.6667000000000001	0.0	No	2.628	0.001	n/a	NoResponse	-1	n/a	n/a	1	32	Fixation	Loss	True
313.719	0.15	Lose2	0.6667000000000001	0.003	No	2.628	-0.003	1.0	NoResponse	-1	0.184	312.903	1	32	Target	Loss	True
313.869	0.55	Lose2	0.6667000000000001	n/a	No	2.628	n/a	n/a	NoResponse	-1	n/a	n/a	1	32	Blank	Loss	True
313.903	0.3	Lose2	0.6667000000000001	0.003	No	2.628	-0.003	1.0	NoResponse	-1	0.184	n/a	1	32	ButtonPress	Loss	True
314.421	1.45	Lose2	0.6667000000000001	n/a	No	2.628	n/a	5.0	NoResponse	-1	0.039	313.46	1	32	Feedback	Loss	True
315.875	2.628	Lose2	0.6667000000000001	n/a	No	2.628	n/a	n/a	NoResponse	-1	0.0	n/a	1	32	ISIslide	Loss	True
318.516	0.25	Win2	0.6470999999999999	0.0	No	2.684	0.016	n/a	NoResponse	0	n/a	n/a	1	33	Cue	MissedWin	True
318.767	4.0	Win2	0.6470999999999999	0.0	No	2.684	0.001	n/a	NoResponse	0	n/a	n/a	1	33	Fixation	MissedWin	True
322.762	0.15	Win2	0.6470999999999999	0.004	No	2.684	-0.004	2.0	NoResponse	0	0.178	321.94	1	33	Target	MissedWin	True
322.913	0.55	Win2	0.6470999999999999	n/a	No	2.684	n/a	n/a	NoResponse	0	n/a	n/a	1	33	Blank	MissedWin	True
322.94	0.3	Win2	0.6470999999999999	0.004	No	2.684	-0.004	2.0	NoResponse	0	0.178	n/a	1	33	ButtonPress	MissedWin	True
323.464	1.45	Win2	0.6470999999999999	n/a	No	2.684	n/a	5.0	NoResponse	0	0.021	322.485	1	33	Feedback	MissedWin	True
324.919	2.684	Win2	0.6470999999999999	n/a	No	2.684	n/a	n/a	NoResponse	0	0.0	n/a	1	33	ISIslide	MissedWin	True
327.627	0.25	Lose2	0.6286	0.0	No	2.623	0.027	n/a	NoResponse	-1	n/a	n/a	0	34	Cue	Loss	True
327.878	4.05	Lose2	0.6286	0.0	No	2.623	0.001	n/a	NoResponse	-1	n/a	n/a	0	34	Fixation	Loss	True
331.923	0.16	Lose2	0.6286	0.004	No	2.623	-0.004	2.0	NoResponse	-1	0.175	331.098	0	34	Target	Loss	True
332.09	0.54	Lose2	0.6286	n/a	No	2.623	n/a	n/a	NoResponse	-1	n/a	n/a	0	34	Blank	Loss	True
332.098	0.3	Lose2	0.6286	0.004	No	2.623	-0.004	2.0	NoResponse	-1	0.175	n/a	0	34	ButtonPress	Loss	True
332.625	1.45	Lose2	0.6286	n/a	No	2.623	n/a	5.0	NoResponse	-1	0.031	331.656	0	34	Feedback	Loss	True
334.079	2.623	Lose2	0.6286	n/a	No	2.623	n/a	n/a	NoResponse	-1	0.0	n/a	0	34	ISIslide	Loss	True
336.721	0.25	Lose2	0.6111	0.0	No	2.679	0.021	n/a	NoResponse	-1	n/a	n/a	-1	35	Cue	Loss	True
336.971	4.0	Lose2	0.6111	0.001	No	2.679	0.0	n/a	NoResponse	-1	n/a	n/a	-1	35	Fixation	Loss	True
340.967	0.17	Lose2	0.6111	0.004	No	2.679	-0.004	2.0	NoResponse	-1	0.306	340.273	-1	35	Target	Loss	True
341.151	0.53	Lose2	0.6111	n/a	No	2.679	n/a	n/a	NoResponse	-1	n/a	n/a	-1	35	Blank	Loss	True
341.273	0.3	Lose2	0.6111	0.004	No	2.679	-0.004	2.0	NoResponse	-1	0.306	n/a	-1	35	ButtonPress	Loss	True
341.669	1.45	Lose2	0.6111	n/a	No	2.679	n/a	5.0	NoResponse	-1	0.01	340.679	-1	35	Feedback	Loss	True
343.123	2.679	Lose2	0.6111	n/a	No	2.679	n/a	n/a	NoResponse	-1	0.0	n/a	-1	35	ISIslide	Loss	True
345.815	0.25	Control	0.6215999999999999	0.0	Yes	2.685	0.015	n/a	GoodResponse	0	n/a	n/a	-1	36	Cue	Neutral	True
346.065	4.0	Control	0.6215999999999999	0.0	Yes	2.685	0.0	n/a	GoodResponse	0	n/a	n/a	-1	36	Fixation	Neutral	True
350.061	0.18	Control	0.6215999999999999	0.004	Yes	2.685	-0.004	2.0	GoodResponse	0	0.169	349.23	-1	36	Target	Neutral	True
350.23	0.3	Control	0.6215999999999999	0.004	Yes	2.685	-0.004	2.0	GoodResponse	0	0.169	n/a	-1	36	ButtonPress	Neutral	True
350.244	0.52	Control	0.6215999999999999	n/a	Yes	2.685	n/a	n/a	GoodResponse	0	n/a	n/a	-1	36	Blank	Neutral	True
350.763	1.45	Control	0.6215999999999999	n/a	Yes	2.685	n/a	5.0	GoodResponse	0	0.038	349.801	-1	36	Feedback	Neutral	True
352.217	2.685	Control	0.6215999999999999	n/a	Yes	2.685	n/a	n/a	GoodResponse	0	0.0	n/a	-1	36	ISIslide	Neutral	True
354.925	0.25	Win2	0.6315999999999999	0.0	Yes	2.875	0.025	n/a	GoodResponse	1	n/a	n/a	0	37	Cue	Win	True
355.176	4.0	Win2	0.6315999999999999	0.0	Yes	2.875	0.001	n/a	GoodResponse	1	n/a	n/a	0	37	Fixation	Win	True
359.171	0.19	Win2	0.6315999999999999	0.004	Yes	2.875	-0.004	2.0	GoodResponse	1	0.168	358.339	0	37	Target	Win	True
359.339	0.3	Win2	0.6315999999999999	0.004	Yes	2.875	-0.004	2.0	GoodResponse	1	0.168	n/a	0	37	ButtonPress	Win	True
359.372	0.51	Win2	0.6315999999999999	n/a	Yes	2.875	n/a	n/a	GoodResponse	1	n/a	n/a	0	37	Blank	Win	True
359.873	1.45	Win2	0.6315999999999999	n/a	Yes	2.875	n/a	5.0	GoodResponse	1	0.001	358.874	0	37	Feedback	Win	True
361.328	2.875	Win2	0.6315999999999999	n/a	Yes	2.875	n/a	n/a	GoodResponse	1	0.0	n/a	0	37	ISIslide	Win	True
364.22	0.25	Lose2	0.6409999999999999	0.0	Yes	2.83	0.02	n/a	GoodResponse	0	n/a	n/a	0	38	Cue	AvoidedLoss	True
364.47	3.95	Lose2	0.6409999999999999	0.0	Yes	2.83	0.0	n/a	GoodResponse	0	n/a	n/a	0	38	Fixation	AvoidedLoss	True
368.415	0.2	Lose2	0.6409999999999999	0.005	Yes	2.83	-0.005	2.0	GoodResponse	0	0.175	367.59	0	38	Target	AvoidedLoss	True
368.59	0.3	Lose2	0.6409999999999999	0.005	Yes	2.83	-0.005	2.0	GoodResponse	0	0.175	n/a	0	38	ButtonPress	AvoidedLoss	True
368.616	0.5	Lose2	0.6409999999999999	n/a	Yes	2.83	n/a	n/a	GoodResponse	0	n/a	n/a	0	38	Blank	AvoidedLoss	True
369.118	1.45	Lose2	0.6409999999999999	n/a	Yes	2.83	n/a	5.0	GoodResponse	0	0.025	368.143	0	38	Feedback	AvoidedLoss	True
370.572	2.83	Lose2	0.6409999999999999	n/a	Yes	2.83	n/a	n/a	GoodResponse	0	0.0	n/a	0	38	ISIslide	AvoidedLoss	True
373.43	0.25	Win2	0.65	0.001	Yes	2.97	0.03	n/a	GoodResponse	1	n/a	n/a	1	39	Cue	Win	True
373.681	4.1	Win2	0.65	0.0	Yes	2.97	0.001	n/a	GoodResponse	1	n/a	n/a	1	39	Fixation	Win	True
377.777	0.21	Win2	0.65	0.003	Yes	2.97	-0.003	2.0	GoodResponse	1	0.165	376.942	1	39	Target	Win	True
377.942	0.3	Win2	0.65	0.003	Yes	2.97	-0.003	2.0	GoodResponse	1	0.165	n/a	1	39	ButtonPress	Win	True
377.994	0.49	Win2	0.65	n/a	Yes	2.97	n/a	n/a	GoodResponse	1	n/a	n/a	1	39	Blank	Win	True
378.479	1.45	Win2	0.65	n/a	Yes	2.97	n/a	5.0	GoodResponse	1	0.03	377.509	1	39	Feedback	Win	True
379.933	2.97	Win2	0.65	n/a	Yes	2.97	n/a	n/a	GoodResponse	1	0.0	n/a	1	39	ISIslide	Win	True
382.926	0.25	Win2	0.6585	0.0	Yes	2.724	0.026	n/a	GoodResponse	1	n/a	n/a	2	40	Cue	Win	True
383.176	3.95	Win2	0.6585	0.0	Yes	2.724	0.0	n/a	GoodResponse	1	n/a	n/a	2	40	Fixation	Win	True
387.138	0.22	Win2	0.6585	0.0	Yes	2.724	0.012	2.0	GoodResponse	1	0.175	386.313	2	40	Target	Win	True
387.313	0.3	Win2	0.6585	0.0	Yes	2.724	0.012	2.0	GoodResponse	1	0.175	n/a	2	40	ButtonPress	Win	True
387.355	0.48	Win2	0.6585	n/a	Yes	2.724	n/a	n/a	GoodResponse	1	n/a	n/a	2	40	Blank	Win	True
387.824	1.45	Win2	0.6585	n/a	Yes	2.724	n/a	5.0	GoodResponse	1	0.001	386.825	2	40	Feedback	Win	True
389.278	2.724	Win2	0.6585	n/a	Yes	2.724	n/a	n/a	GoodResponse	1	0.0	n/a	2	40	ISIslide	Win	True
392.019	0.25	Win2	0.6667000000000001	0.0	Yes	2.781	0.019	n/a	GoodResponse	1	n/a	n/a	3	41	Cue	Win	True
392.27	3.9	Win2	0.6667000000000001	0.0	Yes	2.781	0.001	n/a	GoodResponse	1	n/a	n/a	3	41	Fixation	Win	True
396.165	0.22	Win2	0.6667000000000001	0.004	Yes	2.781	-0.004	2.0	GoodResponse	1	0.179	395.344	3	41	Target	Win	True
396.344	0.3	Win2	0.6667000000000001	0.004	Yes	2.781	-0.004	2.0	GoodResponse	1	0.179	n/a	3	41	ButtonPress	Win	True
396.399	0.48	Win2	0.6667000000000001	n/a	Yes	2.781	n/a	n/a	GoodResponse	1	n/a	n/a	3	41	Blank	Win	True
396.867	1.45	Win2	0.6667000000000001	n/a	Yes	2.781	n/a	5.0	GoodResponse	1	0.031	395.898	3	41	Feedback	Win	True
398.322	2.781	Win2	0.6667000000000001	n/a	Yes	2.781	n/a	n/a	GoodResponse	1	0.0	n/a	3	41	ISIslide	Win	True
401.13	0.25	Control	0.6744	0.0	Yes	2.92	0.03	n/a	GoodResponse	0	n/a	n/a	3	42	Cue	Neutral	True
401.381	3.85	Control	0.6744	0.0	Yes	2.92	0.001	n/a	GoodResponse	0	n/a	n/a	3	42	Fixation	Neutral	True
405.226	0.21	Control	0.6744	0.004	Yes	2.92	-0.004	2.0	GoodResponse	0	0.181	404.407	3	42	Target	Neutral	True
405.407	0.3	Control	0.6744	0.004	Yes	2.92	-0.004	2.0	GoodResponse	0	0.181	n/a	3	42	ButtonPress	Neutral	True
405.443	0.49	Control	0.6744	n/a	Yes	2.92	n/a	n/a	GoodResponse	0	n/a	n/a	3	42	Blank	Neutral	True
405.928	1.45	Control	0.6744	n/a	Yes	2.92	n/a	5.0	GoodResponse	0	0.043	404.971	3	42	Feedback	Neutral	True
407.382	2.92	Control	0.6744	n/a	Yes	2.92	n/a	n/a	GoodResponse	0	0.0	n/a	3	42	ISIslide	Neutral	True
410.324	0.25	Win2	0.6818000000000001	0.0	Yes	3.176	0.024	n/a	GoodResponse	1	n/a	n/a	4	43	Cue	Win	True
410.575	4.0	Win2	0.6818000000000001	0.0	Yes	3.176	0.001	n/a	GoodResponse	1	n/a	n/a	4	43	Fixation	Win	True
414.57	0.2	Win2	0.6818000000000001	0.004	Yes	3.176	-0.004	2.0	GoodResponse	1	0.169	413.739	4	43	Target	Win	True
414.739	0.3	Win2	0.6818000000000001	0.004	Yes	3.176	-0.004	2.0	GoodResponse	1	0.169	n/a	4	43	ButtonPress	Win	True
414.771	0.5	Win2	0.6818000000000001	n/a	Yes	3.176	n/a	n/a	GoodResponse	1	n/a	n/a	4	43	Blank	Win	True
415.272	1.45	Win2	0.6818000000000001	n/a	Yes	3.176	n/a	5.0	GoodResponse	1	0.017	414.289	4	43	Feedback	Win	True
416.727	3.176	Win2	0.6818000000000001	n/a	Yes	3.176	n/a	n/a	GoodResponse	1	0.0	n/a	4	43	ISIslide	Win	True
419.919	0.25	Win2	0.6667000000000001	0.001	No	2.981	0.019	n/a	NoResponse	0	n/a	n/a	4	44	Cue	MissedWin	True
420.17	4.0	Win2	0.6667000000000001	0.0	No	2.981	0.001	n/a	NoResponse	0	n/a	n/a	4	44	Fixation	MissedWin	True
424.165	0.19	Win2	0.6667000000000001	0.004	No	2.981	-0.004	2.0	NoResponse	0	0.209	423.374	4	44	Target	MissedWin	True
424.366	0.51	Win2	0.6667000000000001	n/a	No	2.981	n/a	n/a	NoResponse	0	n/a	n/a	4	44	Blank	MissedWin	True
424.374	0.3	Win2	0.6667000000000001	0.004	No	2.981	-0.004	2.0	NoResponse	0	0.209	n/a	4	44	ButtonPress	MissedWin	True
424.868	1.45	Win2	0.6667000000000001	n/a	No	2.981	n/a	5.0	NoResponse	0	0.029	423.897	4	44	Feedback	MissedWin	True
426.322	2.981	Win2	0.6667000000000001	n/a	No	2.981	n/a	n/a	NoResponse	0	0.0	n/a	4	44	ISIslide	MissedWin	True
429.314	0.25	Control	0.6739	0.0	Yes	2.886	0.014	n/a	GoodResponse	0	n/a	n/a	4	45	Cue	Neutral	True
429.565	4.1	Control	0.6739	0.0	Yes	2.886	0.001	n/a	GoodResponse	0	n/a	n/a	4	45	Fixation	Neutral	True
433.661	0.18	Control	0.6739	0.003	Yes	2.886	-0.003	2.0	GoodResponse	0	0.174	432.835	4	45	Target	Neutral	True
433.835	0.3	Control	0.6739	0.003	Yes	2.886	-0.003	2.0	GoodResponse	0	0.174	n/a	4	45	ButtonPress	Neutral	True
433.844	0.52	Control	0.6739	n/a	Yes	2.886	n/a	n/a	GoodResponse	0	n/a	n/a	4	45	Blank	Neutral	True
434.363	1.45	Control	0.6739	n/a	Yes	2.886	n/a	5.0	GoodResponse	0	0.047	433.41	4	45	Feedback	Neutral	True
435.817	2.886	Control	0.6739	n/a	Yes	2.886	n/a	n/a	GoodResponse	0	0.0	n/a	4	45	ISIslide	Neutral	True
438.726	0.25	Lose2	0.6596	0.0	No	3.374	0.026	n/a	LatePress	-1	n/a	n/a	3	46	Cue	Loss	True
438.976	4.0	Lose2	0.6596	0.001	No	3.374	0.0	n/a	LatePress	-1	n/a	n/a	3	46	Fixation	Loss	True
442.972	0.17	Lose2	0.6596	0.004	No	3.374	-0.004	2.0	LatePress	-1	0.173	442.145	3	46	Target	Loss	True
443.145	0.3	Lose2	0.6596	0.004	No	3.374	-0.004	2.0	LatePress	-1	0.173	n/a	3	46	ButtonPress	Loss	True
443.156	0.53	Lose2	0.6596	n/a	No	3.374	n/a	n/a	LatePress	-1	n/a	n/a	3	46	Blank	Loss	True
443.674	1.45	Lose2	0.6596	n/a	No	3.374	n/a	5.0	LatePress	-1	0.007	442.681	3	46	Feedback	Loss	True
445.128	3.374	Lose2	0.6596	n/a	No	3.374	n/a	n/a	LatePress	-1	0.0	n/a	3	46	ISIslide	Loss	True
448.522	0.25	Lose2	0.6457999999999999	0.0	No	2.678	0.022	n/a	LatePress	-1	n/a	n/a	2	47	Cue	Loss	True
448.772	4.0	Lose2	0.6457999999999999	0.001	No	2.678	0.0	n/a	LatePress	-1	n/a	n/a	2	47	Fixation	Loss	True
452.768	0.17	Lose2	0.6457999999999999	0.004	No	2.678	-0.004	2.0	LatePress	-1	0.182	451.95	2	47	Target	Loss	True
452.95	0.3	Lose2	0.6457999999999999	0.004	No	2.678	-0.004	2.0	LatePress	-1	0.182	n/a	2	47	ButtonPress	Loss	True
452.952	0.53	Lose2	0.6457999999999999	n/a	No	2.678	n/a	n/a	LatePress	-1	n/a	n/a	2	47	Blank	Loss	True
453.47	1.45	Lose2	0.6457999999999999	n/a	No	2.678	n/a	5.0	LatePress	-1	0.013	452.483	2	47	Feedback	Loss	True
454.924	2.678	Lose2	0.6457999999999999	n/a	No	2.678	n/a	n/a	LatePress	-1	0.0	n/a	2	47	ISIslide	Loss	True
457.616	0.25	Lose2	0.6327	0.0	No	3.034	0.016	n/a	NoResponse	-1	n/a	n/a	1	48	Cue	Loss	True
457.866	3.95	Lose2	0.6327	0.0	No	3.034	0.0	n/a	NoResponse	-1	n/a	n/a	1	48	Fixation	Loss	True
461.828	0.18	Lose2	0.6327	0.0	No	3.034	0.012	2.0	NoResponse	-1	0.175	461.003	1	48	Target	Loss	True
461.995	0.52	Lose2	0.6327	n/a	No	3.034	n/a	n/a	NoResponse	-1	n/a	n/a	1	48	Blank	Loss	True
462.003	0.3	Lose2	0.6327	0.0	No	3.034	0.012	2.0	NoResponse	-1	0.175	n/a	1	48	ButtonPress	Loss	True
462.513	1.45	Lose2	0.6327	n/a	No	3.034	n/a	5.0	NoResponse	-1	0.043	461.556	1	48	Feedback	Loss	True
463.968	3.034	Lose2	0.6327	n/a	No	3.034	n/a	n/a	NoResponse	-1	0.0	n/a	1	48	ISIslide	Loss	True
467.027	0.25	Control	0.64	0.0	Yes	2.873	0.027	n/a	GoodResponse	0	n/a	n/a	1	49	Cue	Neutral	True
467.278	4.0	Control	0.64	0.0	Yes	2.873	0.001	n/a	GoodResponse	0	n/a	n/a	1	49	Fixation	Neutral	True
471.273	0.19	Control	0.64	0.004	Yes	2.873	-0.004	2.0	GoodResponse	0	0.181	470.454	1	49	Target	Neutral	True
471.454	0.3	Control	0.64	0.004	Yes	2.873	-0.004	2.0	GoodResponse	0	0.181	n/a	1	49	ButtonPress	Neutral	True
471.474	0.51	Control	0.64	n/a	Yes	2.873	n/a	n/a	GoodResponse	0	n/a	n/a	1	49	Blank	Neutral	True
471.975	1.45	Control	0.64	n/a	Yes	2.873	n/a	5.0	GoodResponse	0	0.044	471.019	1	49	Feedback	Neutral	True
473.429	2.873	Control	0.64	n/a	Yes	2.873	n/a	n/a	GoodResponse	0	0.0	n/a	1	49	ISIslide	Neutral	True
476.321	0.25	Control	0.6470999999999999	0.001	Yes	2.779	0.021	n/a	GoodResponse	0	n/a	n/a	1	50	Cue	Neutral	True
476.572	4.0	Control	0.6470999999999999	0.0	Yes	2.779	0.001	n/a	GoodResponse	0	n/a	n/a	1	50	Fixation	Neutral	True
480.567	0.2	Control	0.6470999999999999	0.004	Yes	2.779	-0.004	2.0	GoodResponse	0	0.18	479.747	1	50	Target	Neutral	True
480.747	0.3	Control	0.6470999999999999	0.004	Yes	2.779	-0.004	2.0	GoodResponse	0	0.18	n/a	1	50	ButtonPress	Neutral	True
480.768	0.5	Control	0.6470999999999999	n/a	Yes	2.779	n/a	n/a	GoodResponse	0	n/a	n/a	1	50	Blank	Neutral	True
481.27	1.45	Control	0.6470999999999999	n/a	Yes	2.779	n/a	5.0	GoodResponse	0	0.017	480.287	1	50	Feedback	Neutral	True
482.724	2.779	Control	0.6470999999999999	n/a	Yes	2.779	n/a	n/a	GoodResponse	0	0.0	n/a	1	50	ISIslide	Neutral	True
485.516	0.25	Control	0.6346	0.0	No	2.734	0.016	n/a	NoResponse	0	n/a	n/a	1	51	Cue	Neutral	True
485.766	3.95	Control	0.6346	0.0	No	2.734	0.0	n/a	NoResponse	0	n/a	n/a	1	51	Fixation	Neutral	True
489.728	0.21	Control	0.6346	0.0	No	2.734	0.012	2.0	NoResponse	0	0.228	488.956	1	51	Target	Neutral	True
489.929	0.49	Control	0.6346	n/a	No	2.734	n/a	n/a	NoResponse	0	n/a	n/a	1	51	Blank	Neutral	True
489.956	0.3	Control	0.6346	0.0	No	2.734	0.012	2.0	NoResponse	0	0.228	n/a	1	51	ButtonPress	Neutral	True
490.414	1.45	Control	0.6346	n/a	No	2.734	n/a	5.0	NoResponse	0	0.044	489.458	1	51	Feedback	Neutral	True
491.868	2.734	Control	0.6346	n/a	No	2.734	n/a	n/a	NoResponse	0	0.0	n/a	1	51	ISIslide	Neutral	True
494.626	0.25	Control	0.6225999999999999	0.0	No	2.624	0.026	n/a	NoResponse	0	n/a	n/a	1	52	Cue	Neutral	True
494.877	4.05	Control	0.6225999999999999	0.0	No	2.624	0.001	n/a	NoResponse	0	n/a	n/a	1	52	Fixation	Neutral	True
498.922	0.22	Control	0.6225999999999999	0.004	No	2.624	-0.004	2.0	NoResponse	0	0.287	498.209	1	52	Target	Neutral	True
499.156	0.48	Control	0.6225999999999999	n/a	No	2.624	n/a	n/a	NoResponse	0	n/a	n/a	1	52	Blank	Neutral	True
499.209	0.3	Control	0.6225999999999999	0.004	No	2.624	-0.004	2.0	NoResponse	0	0.287	n/a	1	52	ButtonPress	Neutral	True
499.624	1.45	Control	0.6225999999999999	n/a	No	2.624	n/a	5.0	NoResponse	0	0.006	498.63	1	52	Feedback	Neutral	True
501.079	2.624	Control	0.6225999999999999	n/a	No	2.624	n/a	n/a	NoResponse	0	0.0	n/a	1	52	ISIslide	Neutral	True
503.72	0.25	Win2	0.6296	0.0	Yes	2.93	0.02	n/a	GoodResponse	1	n/a	n/a	2	53	Cue	Win	True
503.971	4.05	Win2	0.6296	0.0	Yes	2.93	0.001	n/a	GoodResponse	1	n/a	n/a	2	53	Fixation	Win	True
508.016	0.23	Win2	0.6296	0.004	Yes	2.93	-0.004	2.0	GoodResponse	1	0.196	507.212	2	53	Target	Win	True
508.212	0.3	Win2	0.6296	0.004	Yes	2.93	-0.004	2.0	GoodResponse	1	0.196	n/a	2	53	ButtonPress	Win	True
508.25	0.47	Win2	0.6296	n/a	Yes	2.93	n/a	n/a	GoodResponse	1	n/a	n/a	2	53	Blank	Win	True
508.718	1.45	Win2	0.6296	n/a	Yes	2.93	n/a	5.0	GoodResponse	1	0.032	507.75	2	53	Feedback	Win	True
510.173	2.93	Win2	0.6296	n/a	Yes	2.93	n/a	n/a	GoodResponse	1	0.0	n/a	2	53	ISIslide	Win	True
513.132	0.25	Win2	0.6364	0.0	Yes	2.718	0.032	n/a	GoodResponse	1	n/a	n/a	3	54	Cue	Win	True
513.382	3.95	Win2	0.6364	0.0	Yes	2.718	0.0	n/a	GoodResponse	1	n/a	n/a	3	54	Fixation	Win	True
517.344	0.24	Win2	0.6364	0.0	Yes	2.718	0.012	2.0	GoodResponse	1	0.199	516.543	3	54	Target	Win	True
517.543	0.3	Win2	0.6364	0.0	Yes	2.718	0.012	2.0	GoodResponse	1	0.199	n/a	3	54	ButtonPress	Win	True
517.578	0.46	Win2	0.6364	n/a	Yes	2.718	n/a	n/a	GoodResponse	1	n/a	n/a	3	54	Blank	Win	True
518.029	1.45	Win2	0.6364	n/a	Yes	2.718	n/a	5.0	GoodResponse	1	0.038	517.067	3	54	Feedback	Win	True
519.484	2.718	Win2	0.6364	n/a	Yes	2.718	n/a	n/a	GoodResponse	1	0.0	n/a	3	54	ISIslide	Win	True
522.225	0.25	Control	0.6429	0.0	Yes	3.025	0.025	n/a	GoodResponse	0	n/a	n/a	3	55	Cue	Neutral	True
522.476	3.95	Control	0.6429	0.0	Yes	3.025	0.001	n/a	GoodResponse	0	n/a	n/a	3	55	Fixation	Neutral	True
526.421	0.25	Control	0.6429	0.004	Yes	3.025	-0.004	2.0	GoodResponse	0	0.216	525.637	3	55	Target	Neutral	True
526.637	0.3	Control	0.6429	0.004	Yes	3.025	-0.004	2.0	GoodResponse	0	0.216	n/a	3	55	ButtonPress	Neutral	True
526.672	0.45	Control	0.6429	n/a	Yes	3.025	n/a	n/a	GoodResponse	0	n/a	n/a	3	55	Blank	Neutral	True
527.123	1.45	Control	0.6429	n/a	Yes	3.025	n/a	5.0	GoodResponse	0	0.018	526.141	3	55	Feedback	Neutral	True
528.578	3.025	Control	0.6429	n/a	Yes	3.025	n/a	n/a	GoodResponse	0	0.0	n/a	3	55	ISIslide	Neutral	True
531.62	0.25	Control	0.6491	0.0	Yes	2.83	0.02	n/a	GoodResponse	0	n/a	n/a	3	56	Cue	Neutral	True
531.871	3.95	Control	0.6491	0.0	Yes	2.83	0.001	n/a	GoodResponse	0	n/a	n/a	3	56	Fixation	Neutral	True
535.816	0.26	Control	0.6491	0.004	Yes	2.83	-0.004	2.0	GoodResponse	0	0.188	535.004	3	56	Target	Neutral	True
536.004	0.3	Control	0.6491	0.004	Yes	2.83	-0.004	2.0	GoodResponse	0	0.188	n/a	3	56	ButtonPress	Neutral	True
536.083	0.44	Control	0.6491	n/a	Yes	2.83	n/a	n/a	GoodResponse	0	n/a	n/a	3	56	Blank	Neutral	True
536.518	1.45	Control	0.6491	n/a	Yes	2.83	n/a	5.0	GoodResponse	0	0.037	535.555	3	56	Feedback	Neutral	True
537.972	2.83	Control	0.6491	n/a	Yes	2.83	n/a	n/a	GoodResponse	0	0.0	n/a	3	56	ISIslide	Neutral	True
540.814	0.25	Control	0.6552	0.0	Yes	3.486	0.014	n/a	GoodResponse	0	n/a	n/a	3	57	Cue	Neutral	True
541.065	4.0	Control	0.6552	0.0	Yes	3.486	0.001	n/a	GoodResponse	0	n/a	n/a	3	57	Fixation	Neutral	True
545.06	0.27	Control	0.6552	0.004	Yes	3.486	-0.004	2.0	GoodResponse	0	0.197	544.257	3	57	Target	Neutral	True
545.257	0.3	Control	0.6552	0.004	Yes	3.486	-0.004	2.0	GoodResponse	0	0.197	n/a	3	57	ButtonPress	Neutral	True
545.344	0.43	Control	0.6552	n/a	Yes	3.486	n/a	n/a	GoodResponse	0	n/a	n/a	3	57	Blank	Neutral	True
545.762	1.45	Control	0.6552	n/a	Yes	3.486	n/a	5.0	GoodResponse	0	0.013	544.775	3	57	Feedback	Neutral	True
547.217	3.486	Control	0.6552	n/a	Yes	3.486	n/a	n/a	GoodResponse	0	0.0	n/a	3	57	ISIslide	Neutral	True
550.727	0.25	Win2	0.6609999999999999	0.0	Yes	2.723	0.027	n/a	GoodResponse	1	n/a	n/a	4	58	Cue	Win	True
550.978	4.05	Win2	0.6609999999999999	0.0	Yes	2.723	0.001	n/a	GoodResponse	1	n/a	n/a	4	58	Fixation	Win	True
555.023	0.27	Win2	0.6609999999999999	0.004	Yes	2.723	-0.004	2.0	GoodResponse	1	0.193	554.216	4	58	Target	Win	True
555.216	0.3	Win2	0.6609999999999999	0.004	Yes	2.723	-0.004	2.0	GoodResponse	1	0.193	n/a	4	58	ButtonPress	Win	True
555.308	0.43	Win2	0.6609999999999999	n/a	Yes	2.723	n/a	n/a	GoodResponse	1	n/a	n/a	4	58	Blank	Win	True
555.726	1.45	Win2	0.6609999999999999	n/a	Yes	2.723	n/a	5.0	GoodResponse	1	0.048	554.774	4	58	Feedback	Win	True
557.18	2.723	Win2	0.6609999999999999	n/a	Yes	2.723	n/a	n/a	GoodResponse	1	0.0	n/a	4	58	ISIslide	Win	True
559.921	0.25	Lose2	0.6667000000000001	0.001	Yes	2.679	0.021	n/a	GoodResponse	0	n/a	n/a	4	59	Cue	AvoidedLoss	True
560.172	4.0	Lose2	0.6667000000000001	0.0	Yes	2.679	0.001	n/a	GoodResponse	0	n/a	n/a	4	59	Fixation	AvoidedLoss	True
564.167	0.27	Lose2	0.6667000000000001	0.004	Yes	2.679	-0.004	2.0	GoodResponse	0	0.223	563.39	4	59	Target	AvoidedLoss	True
564.39	0.3	Lose2	0.6667000000000001	0.004	Yes	2.679	-0.004	2.0	GoodResponse	0	0.223	n/a	4	59	ButtonPress	AvoidedLoss	True
564.452	0.43	Lose2	0.6667000000000001	n/a	Yes	2.679	n/a	n/a	GoodResponse	0	n/a	n/a	4	59	Blank	AvoidedLoss	True
564.87	1.45	Lose2	0.6667000000000001	n/a	Yes	2.679	n/a	5.0	GoodResponse	0	0.026	563.896	4	59	Feedback	AvoidedLoss	True
566.324	2.679	Lose2	0.6667000000000001	n/a	Yes	2.679	n/a	n/a	GoodResponse	0	0.0	n/a	4	59	ISIslide	AvoidedLoss	True
569.015	0.25	Control	0.6720999999999999	0.0	Yes	2.685	0.015	n/a	GoodResponse	0	n/a	n/a	4	60	Cue	Neutral	True
569.266	4.0	Control	0.6720999999999999	0.0	Yes	2.685	0.001	n/a	GoodResponse	0	n/a	n/a	4	60	Fixation	Neutral	True
573.261	0.26	Control	0.6720999999999999	0.004	Yes	2.685	-0.004	2.0	GoodResponse	0	0.194	572.455	4	60	Target	Neutral	True
573.455	0.3	Control	0.6720999999999999	0.004	Yes	2.685	-0.004	2.0	GoodResponse	0	0.194	n/a	4	60	ButtonPress	Neutral	True
573.529	0.44	Control	0.6720999999999999	n/a	Yes	2.685	n/a	n/a	GoodResponse	0	n/a	n/a	4	60	Blank	Neutral	True
573.963	1.45	Control	0.6720999999999999	n/a	Yes	2.685	n/a	5.0	GoodResponse	0	0.007	572.97	4	60	Feedback	Neutral	True
575.418	2.685	Control	0.6720999999999999	n/a	Yes	2.685	n/a	n/a	GoodResponse	0	0.0	n/a	4	60	ISIslide	Neutral	True
578.126	0.25	Lose2	0.6774	0.0	Yes	2.974	0.026	n/a	GoodResponse	0	n/a	n/a	4	61	Cue	AvoidedLoss	True
578.377	4.0	Lose2	0.6774	0.0	Yes	2.974	0.001	n/a	GoodResponse	0	n/a	n/a	4	61	Fixation	AvoidedLoss	True
582.372	0.25	Lose2	0.6774	0.004	Yes	2.974	-0.004	2.0	GoodResponse	0	0.193	581.565	4	61	Target	AvoidedLoss	True
582.565	0.3	Lose2	0.6774	0.004	Yes	2.974	-0.004	2.0	GoodResponse	0	0.193	n/a	4	61	ButtonPress	AvoidedLoss	True
582.623	0.45	Lose2	0.6774	n/a	Yes	2.974	n/a	n/a	GoodResponse	0	n/a	n/a	4	61	Blank	AvoidedLoss	True
583.074	1.45	Lose2	0.6774	n/a	Yes	2.974	n/a	5.0	GoodResponse	0	0.017	582.091	4	61	Feedback	AvoidedLoss	True
584.528	2.974	Lose2	0.6774	n/a	Yes	2.974	n/a	n/a	GoodResponse	0	0.0	n/a	4	61	ISIslide	AvoidedLoss	True
587.521	0.25	Lose2	0.6667000000000001	0.0	No	2.879	0.021	n/a	NoResponse	-1	n/a	n/a	3	62	Cue	Loss	True
587.771	3.9	Lose2	0.6667000000000001	0.0	No	2.879	0.0	n/a	NoResponse	-1	n/a	n/a	3	62	Fixation	Loss	True
591.683	0.24	Lose2	0.6667000000000001	0.0	No	2.879	0.012	2.0	NoResponse	-1	0.373	591.056	3	62	Target	Loss	True
591.917	0.46	Lose2	0.6667000000000001	n/a	No	2.879	n/a	n/a	NoResponse	-1	n/a	n/a	3	62	Blank	Loss	True
592.056	0.3	Lose2	0.6667000000000001	0.0	No	2.879	0.012	2.0	NoResponse	-1	0.373	n/a	3	62	ButtonPress	Loss	True
592.368	1.45	Lose2	0.6667000000000001	n/a	No	2.879	n/a	5.0	NoResponse	-1	0.04	591.408	3	62	Feedback	Loss	True
593.823	2.879	Lose2	0.6667000000000001	n/a	No	2.879	n/a	n/a	NoResponse	-1	0.0	n/a	3	62	ISIslide	Loss	True
596.715	0.25	Lose2	0.6718999999999999	0.0	Yes	2.635	0.015	n/a	GoodResponse	0	n/a	n/a	3	63	Cue	AvoidedLoss	True
596.965	4.05	Lose2	0.6718999999999999	0.001	Yes	2.635	0.0	n/a	GoodResponse	0	n/a	n/a	3	63	Fixation	AvoidedLoss	True
601.011	0.23	Lose2	0.6718999999999999	0.004	Yes	2.635	-0.004	2.0	GoodResponse	0	0.191	600.202	3	63	Target	AvoidedLoss	True
601.202	0.3	Lose2	0.6718999999999999	0.004	Yes	2.635	-0.004	2.0	GoodResponse	0	0.191	n/a	3	63	ButtonPress	AvoidedLoss	True
601.245	0.47	Lose2	0.6718999999999999	n/a	Yes	2.635	n/a	n/a	GoodResponse	0	n/a	n/a	3	63	Blank	AvoidedLoss	True
601.713	1.45	Lose2	0.6718999999999999	n/a	Yes	2.635	n/a	5.0	GoodResponse	0	0.012	600.725	3	63	Feedback	AvoidedLoss	True
603.167	2.635	Lose2	0.6718999999999999	n/a	Yes	2.635	n/a	n/a	GoodResponse	0	0.0	n/a	3	63	ISIslide	AvoidedLoss	True
605.825	0.25	Win2	0.6769	0.0	Yes	3.125	0.025	n/a	GoodResponse	1	n/a	n/a	4	64	Cue	Win	True
606.076	4.15	Win2	0.6769	0.0	Yes	3.125	0.001	n/a	GoodResponse	1	n/a	n/a	4	64	Fixation	Win	True
610.222	0.22	Win2	0.6769	0.003	Yes	3.125	-0.003	2.0	GoodResponse	1	0.191	609.413	4	64	Target	Win	True
610.413	0.3	Win2	0.6769	0.003	Yes	3.125	-0.003	2.0	GoodResponse	1	0.191	n/a	4	64	ButtonPress	Win	True
610.456	0.48	Win2	0.6769	n/a	Yes	3.125	n/a	n/a	GoodResponse	1	n/a	n/a	4	64	Blank	Win	True
610.924	1.45	Win2	0.6769	n/a	Yes	3.125	n/a	5.0	GoodResponse	1	0.02	609.944	4	64	Feedback	Win	True
612.378	3.125	Win2	0.6769	n/a	Yes	3.125	n/a	n/a	GoodResponse	1	0.0	n/a	4	64	ISIslide	Win	True
615.521	0.25	Control	0.6818000000000001	0.0	Yes	2.779	0.021	n/a	GoodResponse	0	n/a	n/a	4	65	Cue	Neutral	True
615.772	4.0	Control	0.6818000000000001	0.0	Yes	2.779	0.001	n/a	GoodResponse	0	n/a	n/a	4	65	Fixation	Neutral	True
619.767	0.21	Control	0.6818000000000001	0.004	Yes	2.779	-0.004	2.0	GoodResponse	0	0.203	618.97	4	65	Target	Neutral	True
619.97	0.3	Control	0.6818000000000001	0.004	Yes	2.779	-0.004	2.0	GoodResponse	0	0.203	n/a	4	65	ButtonPress	Neutral	True
619.984	0.49	Control	0.6818000000000001	n/a	Yes	2.779	n/a	n/a	GoodResponse	0	n/a	n/a	4	65	Blank	Neutral	True
620.469	1.45	Control	0.6818000000000001	n/a	Yes	2.779	n/a	5.0	GoodResponse	0	0.036	619.505	4	65	Feedback	Neutral	True
621.923	2.779	Control	0.6818000000000001	n/a	Yes	2.779	n/a	n/a	GoodResponse	0	0.0	n/a	4	65	ISIslide	Neutral	True
624.715	0.25	Win2	0.6866	0.0	Yes	2.785	0.015	n/a	GoodResponse	1	n/a	n/a	5	66	Cue	Win	True
624.966	3.9	Win2	0.6866	0.0	Yes	2.785	0.001	n/a	GoodResponse	1	n/a	n/a	5	66	Fixation	Win	True
628.861	0.2	Win2	0.6866	0.004	Yes	2.785	-0.004	2.0	GoodResponse	1	0.176	628.037	5	66	Target	Win	True
629.037	0.3	Win2	0.6866	0.004	Yes	2.785	-0.004	2.0	GoodResponse	1	0.176	n/a	5	66	ButtonPress	Win	True
629.061	0.5	Win2	0.6866	n/a	Yes	2.785	n/a	n/a	GoodResponse	1	n/a	n/a	5	66	Blank	Win	True
629.563	1.45	Win2	0.6866	n/a	Yes	2.785	n/a	5.0	GoodResponse	1	0.016	628.579	5	66	Feedback	Win	True
631.017	2.785	Win2	0.6866	n/a	Yes	2.785	n/a	n/a	GoodResponse	1	0.0	n/a	5	66	ISIslide	Win	True
633.826	0.25	Control	0.6765000000000001	0.0	No	2.724	0.026	n/a	NoResponse	0	n/a	n/a	5	67	Cue	Neutral	True
634.076	3.95	Control	0.6765000000000001	0.001	No	2.724	0.0	n/a	NoResponse	0	n/a	n/a	5	67	Fixation	Neutral	True
638.022	0.19	Control	0.6765000000000001	0.004	No	2.724	-0.004	2.0	NoResponse	0	0.25	637.272	5	67	Target	Neutral	True
638.222	0.51	Control	0.6765000000000001	n/a	No	2.724	n/a	n/a	NoResponse	0	n/a	n/a	5	67	Blank	Neutral	True
638.272	0.3	Control	0.6765000000000001	0.004	No	2.724	-0.004	2.0	NoResponse	0	0.25	n/a	5	67	ButtonPress	Neutral	True
638.724	1.45	Control	0.6765000000000001	n/a	No	2.724	n/a	5.0	NoResponse	0	0.025	637.749	5	67	Feedback	Neutral	True
640.178	2.724	Control	0.6765000000000001	n/a	No	2.724	n/a	n/a	NoResponse	0	0.0	n/a	5	67	ISIslide	Neutral	True
642.92	0.25	Win2	0.6667000000000001	0.0	No	3.08	0.02	n/a	NoResponse	0	n/a	n/a	5	68	Cue	MissedWin	True
643.17	4.0	Win2	0.6667000000000001	0.0	No	3.08	0.0	n/a	NoResponse	0	n/a	n/a	5	68	Fixation	MissedWin	True
647.166	0.18	Win2	0.6667000000000001	0.004	No	3.08	-0.004	2.0	NoResponse	0	0.192	646.358	5	68	Target	MissedWin	True
647.349	0.52	Win2	0.6667000000000001	n/a	No	3.08	n/a	n/a	NoResponse	0	n/a	n/a	5	68	Blank	MissedWin	True
647.358	0.3	Win2	0.6667000000000001	0.004	No	3.08	-0.004	2.0	NoResponse	0	0.192	n/a	5	68	ButtonPress	MissedWin	True
647.868	1.45	Win2	0.6667000000000001	n/a	No	3.08	n/a	5.0	NoResponse	0	0.007	646.875	5	68	Feedback	MissedWin	True
649.322	3.08	Win2	0.6667000000000001	n/a	No	3.08	n/a	n/a	NoResponse	0	0.0	n/a	5	68	ISIslide	MissedWin	True
652.431	0.25	Win2	0.6570999999999999	0.0	No	3.219	0.031	n/a	LatePress	0	n/a	n/a	5	69	Cue	MissedWin	True
652.682	3.95	Win2	0.6570999999999999	0.0	No	3.219	0.001	n/a	LatePress	0	n/a	n/a	5	69	Fixation	MissedWin	True
656.627	0.17	Win2	0.6570999999999999	0.004	No	3.219	-0.004	2.0	LatePress	0	0.172	655.799	5	69	Target	MissedWin	True
656.799	0.3	Win2	0.6570999999999999	0.004	No	3.219	-0.004	2.0	LatePress	0	0.172	n/a	5	69	ButtonPress	MissedWin	True
656.811	0.53	Win2	0.6570999999999999	n/a	No	3.219	n/a	n/a	LatePress	0	n/a	n/a	5	69	Blank	MissedWin	True
657.329	1.45	Win2	0.6570999999999999	n/a	No	3.219	n/a	5.0	LatePress	0	0.006	656.335	5	69	Feedback	MissedWin	True
658.784	3.219	Win2	0.6570999999999999	n/a	No	3.219	n/a	n/a	LatePress	0	0.0	n/a	5	69	ISIslide	MissedWin	True
662.027	0.25	Lose2	0.6479	0.0	No	3.023	0.027	n/a	NoResponse	-1	n/a	n/a	4	70	Cue	Loss	True
662.277	4.05	Lose2	0.6479	0.001	No	3.023	0.0	n/a	NoResponse	-1	n/a	n/a	4	70	Fixation	Loss	True
666.323	0.17	Lose2	0.6479	0.004	No	3.023	-0.004	2.0	NoResponse	-1	0.2	665.523	4	70	Target	Loss	True
666.507	0.53	Lose2	0.6479	n/a	No	3.023	n/a	n/a	NoResponse	-1	n/a	n/a	4	70	Blank	Loss	True
666.523	0.3	Lose2	0.6479	0.004	No	3.023	-0.004	2.0	NoResponse	-1	0.2	n/a	4	70	ButtonPress	Loss	True
667.025	1.45	Lose2	0.6479	n/a	No	3.023	n/a	5.0	NoResponse	-1	0.017	666.042	4	70	Feedback	Loss	True
668.479	3.023	Lose2	0.6479	n/a	No	3.023	n/a	n/a	NoResponse	-1	0.0	n/a	4	70	ISIslide	Loss	True
671.522	0.25	Win2	0.6389	0.0	No	2.728	0.022	n/a	NoResponse	0	n/a	n/a	4	71	Cue	MissedWin	True
671.772	4.05	Win2	0.6389	0.001	No	2.728	0.0	n/a	NoResponse	0	n/a	n/a	4	71	Fixation	MissedWin	True
675.818	0.18	Win2	0.6389	0.004	No	2.728	-0.004	2.0	NoResponse	0	0.192	675.01	4	71	Target	MissedWin	True
676.002	0.52	Win2	0.6389	n/a	No	2.728	n/a	n/a	NoResponse	0	n/a	n/a	4	71	Blank	MissedWin	True
676.01	0.3	Win2	0.6389	0.004	No	2.728	-0.004	2.0	NoResponse	0	0.192	n/a	4	71	ButtonPress	MissedWin	True
676.52	1.45	Win2	0.6389	n/a	No	2.728	n/a	5.0	NoResponse	0	0.034	675.554	4	71	Feedback	MissedWin	True
677.974	2.728	Win2	0.6389	n/a	No	2.728	n/a	n/a	NoResponse	0	0.0	n/a	4	71	ISIslide	MissedWin	True
680.716	0.25	Win2	0.6437999999999999	0.0	Yes	2.784	0.016	n/a	GoodResponse	1	n/a	n/a	5	72	Cue	Win	True
680.967	4.1	Win2	0.6437999999999999	0.0	Yes	2.784	0.001	n/a	GoodResponse	1	n/a	n/a	5	72	Fixation	Win	True
685.062	0.19	Win2	0.6437999999999999	0.004	Yes	2.784	-0.004	2.0	GoodResponse	1	0.18	684.242	5	72	Target	Win	True
685.242	0.3	Win2	0.6437999999999999	0.004	Yes	2.784	-0.004	2.0	GoodResponse	1	0.18	n/a	5	72	ButtonPress	Win	True
685.263	0.51	Win2	0.6437999999999999	n/a	Yes	2.784	n/a	n/a	GoodResponse	1	n/a	n/a	5	72	Blank	Win	True
685.764	1.45	Win2	0.6437999999999999	n/a	Yes	2.784	n/a	5.0	GoodResponse	1	0.008	684.772	5	72	Feedback	Win	True
687.219	2.784	Win2	0.6437999999999999	n/a	Yes	2.784	n/a	n/a	GoodResponse	1	0.0	n/a	5	72	ISIslide	Win	True
690.027	0.25	Win2	0.6486	0.0	Yes	2.673	0.027	n/a	GoodResponse	1	n/a	n/a	6	73	Cue	Win	True
690.278	4.0	Win2	0.6486	0.0	Yes	2.673	0.001	n/a	GoodResponse	1	n/a	n/a	6	73	Fixation	Win	True
694.273	0.2	Win2	0.6486	0.004	Yes	2.673	-0.004	2.0	GoodResponse	1	0.17	693.443	6	73	Target	Win	True
694.443	0.3	Win2	0.6486	0.004	Yes	2.673	-0.004	2.0	GoodResponse	1	0.17	n/a	6	73	ButtonPress	Win	True
694.474	0.5	Win2	0.6486	n/a	Yes	2.673	n/a	n/a	GoodResponse	1	n/a	n/a	6	73	Blank	Win	True
694.975	1.45	Win2	0.6486	n/a	Yes	2.673	n/a	5.0	GoodResponse	1	0.017	693.992	6	73	Feedback	Win	True
696.43	2.673	Win2	0.6486	n/a	Yes	2.673	n/a	n/a	GoodResponse	1	0.0	n/a	6	73	ISIslide	Win	True
699.121	0.25	Lose2	0.6533	0.0	Yes	2.629	0.021	n/a	GoodResponse	0	n/a	n/a	6	74	Cue	AvoidedLoss	True
699.372	4.05	Lose2	0.6533	0.0	Yes	2.629	0.001	n/a	GoodResponse	0	n/a	n/a	6	74	Fixation	AvoidedLoss	True
703.417	0.21	Lose2	0.6533	0.004	Yes	2.629	-0.004	2.0	GoodResponse	0	0.178	702.595	6	74	Target	AvoidedLoss	True
703.595	0.3	Lose2	0.6533	0.004	Yes	2.629	-0.004	2.0	GoodResponse	0	0.178	n/a	6	74	ButtonPress	AvoidedLoss	True
703.634	0.49	Lose2	0.6533	n/a	Yes	2.629	n/a	n/a	GoodResponse	0	n/a	n/a	6	74	Blank	AvoidedLoss	True
704.119	1.45	Lose2	0.6533	n/a	Yes	2.629	n/a	5.0	GoodResponse	0	0.044	703.163	6	74	Feedback	AvoidedLoss	True
705.574	2.629	Lose2	0.6533	n/a	Yes	2.629	n/a	n/a	GoodResponse	0	0.0	n/a	6	74	ISIslide	AvoidedLoss	True
708.232	0.25	Lose2	0.6579	0.0	Yes	2.918	0.032	n/a	GoodResponse	0	n/a	n/a	6	75	Cue	AvoidedLoss	True
708.482	3.95	Lose2	0.6579	0.0	Yes	2.918	0.0	n/a	GoodResponse	0	n/a	n/a	6	75	Fixation	AvoidedLoss	True
712.444	0.22	Lose2	0.6579	0.0	Yes	2.918	0.012	2.0	GoodResponse	0	0.19	711.634	6	75	Target	AvoidedLoss	True
712.634	0.3	Lose2	0.6579	0.0	Yes	2.918	0.012	2.0	GoodResponse	0	0.19	n/a	6	75	ButtonPress	AvoidedLoss	True
712.661	0.48	Lose2	0.6579	n/a	Yes	2.918	n/a	n/a	GoodResponse	0	n/a	n/a	6	75	Blank	AvoidedLoss	True
713.129	1.45	Lose2	0.6579	n/a	Yes	2.918	n/a	5.0	GoodResponse	0	0.01	712.139	6	75	Feedback	AvoidedLoss	True
714.584	2.918	Lose2	0.6579	n/a	Yes	2.918	n/a	n/a	GoodResponse	0	0.0	n/a	6	75	ISIslide	AvoidedLoss	True
717.526	0.25	Control	0.6623	0.0	Yes	3.224	0.026	n/a	GoodResponse	0	n/a	n/a	6	76	Cue	Neutral	True
717.777	4.05	Control	0.6623	0.0	Yes	3.224	0.001	n/a	GoodResponse	0	n/a	n/a	6	76	Fixation	Neutral	True
721.822	0.22	Control	0.6623	0.004	Yes	3.224	-0.004	2.0	GoodResponse	0	0.169	720.991	6	76	Target	Neutral	True
721.991	0.3	Control	0.6623	0.004	Yes	3.224	-0.004	2.0	GoodResponse	0	0.169	n/a	6	76	ButtonPress	Neutral	True
722.056	0.48	Control	0.6623	n/a	Yes	3.224	n/a	n/a	GoodResponse	0	n/a	n/a	6	76	Blank	Neutral	True
722.524	1.45	Control	0.6623	n/a	Yes	3.224	n/a	5.0	GoodResponse	0	0.028	721.552	6	76	Feedback	Neutral	True
723.979	3.224	Control	0.6623	n/a	Yes	3.224	n/a	n/a	GoodResponse	0	0.0	n/a	6	76	ISIslide	Neutral	True
727.222	0.25	Lose2	0.6537999999999999	0.0	No	2.578	0.022	n/a	NoResponse	-1	n/a	n/a	5	77	Cue	Loss	True
727.472	3.95	Lose2	0.6537999999999999	0.0	No	2.578	0.0	n/a	NoResponse	-1	n/a	n/a	5	77	Fixation	Loss	True
731.417	0.22	Lose2	0.6537999999999999	0.005	No	2.578	-0.005	2.0	NoResponse	-1	0.271	730.688	5	77	Target	Loss	True
731.652	0.48	Lose2	0.6537999999999999	n/a	No	2.578	n/a	n/a	NoResponse	-1	n/a	n/a	5	77	Blank	Loss	True
731.688	0.3	Lose2	0.6537999999999999	0.005	No	2.578	-0.005	2.0	NoResponse	-1	0.271	n/a	5	77	ButtonPress	Loss	True
732.12	1.45	Lose2	0.6537999999999999	n/a	No	2.578	n/a	5.0	NoResponse	-1	0.042	731.162	5	77	Feedback	Loss	True
733.574	2.578	Lose2	0.6537999999999999	n/a	No	2.578	n/a	n/a	NoResponse	-1	0.0	n/a	5	77	ISIslide	Loss	True
