onset	duration	cue_type	current_mean_accuracy	duration_error	is_hit	isi_adjusted	onset_delay	response	response_type	reward	rt	rt_time	total_reward	trial_number	trial_phase	trial_type	one_press
11.109	0.25	Control	1.0	0.0	Yes	2.941	0.009	n/a	GoodResponse	0	n/a	n/a	0	0	Cue	Neutral	True
11.36	3.85	Control	1.0	0.0	Yes	2.941	0.001	n/a	GoodResponse	0	n/a	n/a	0	0	Fixation	Neutral	True
15.205	0.4	Control	1.0	0.004	Yes	2.941	-0.004	2.0	GoodResponse	0	0.307	14.512	0	0	Target	Neutral	True
15.512	0.3	Control	1.0	0.004	Yes	2.941	-0.004	2.0	GoodResponse	0	0.307	n/a	0	0	ButtonPress	Neutral	True
15.606	0.3	Control	1.0	n/a	Yes	2.941	n/a	n/a	GoodResponse	0	n/a	n/a	0	0	Blank	Neutral	True
15.907	1.45	Control	1.0	n/a	Yes	2.941	n/a	5.0	GoodResponse	0	0.02	14.927	0	0	Feedback	Neutral	True
17.361	2.941	Control	1.0	n/a	Yes	2.941	n/a	n/a	GoodResponse	0	0.0	n/a	0	0	ISIslide	Neutral	True
20.32	0.25	Lose2	1.0	0.0	Yes	2.78	0.02	n/a	GoodResponse	0	n/a	n/a	0	1	Cue	AvoidedLoss	True
20.571	4.0	Lose2	1.0	0.0	Yes	2.78	0.001	n/a	GoodResponse	0	n/a	n/a	0	1	Fixation	AvoidedLoss	True
24.566	0.39	Lose2	1.0	0.004	Yes	2.78	-0.004	2.0	GoodResponse	0	0.254	23.82	0	1	Target	AvoidedLoss	True
24.82	0.3	Lose2	1.0	0.004	Yes	2.78	-0.004	2.0	GoodResponse	0	0.254	n/a	0	1	ButtonPress	AvoidedLoss	True
24.967	0.31	Lose2	1.0	n/a	Yes	2.78	n/a	n/a	GoodResponse	0	n/a	n/a	0	1	Blank	AvoidedLoss	True
25.268	1.45	Lose2	1.0	n/a	Yes	2.78	n/a	5.0	GoodResponse	0	0.025	24.293	0	1	Feedback	AvoidedLoss	True
26.723	2.78	Lose2	1.0	n/a	Yes	2.78	n/a	n/a	GoodResponse	0	0.0	n/a	0	1	ISIslide	AvoidedLoss	True
29.514	0.25	Control	1.0	0.001	Yes	2.586	0.014	n/a	GoodResponse	0	n/a	n/a	0	2	Cue	Neutral	True
29.765	4.1	Control	1.0	0.0	Yes	2.586	0.001	n/a	GoodResponse	0	n/a	n/a	0	2	Fixation	Neutral	True
33.861	0.38	Control	1.0	0.003	Yes	2.586	-0.003	2.0	GoodResponse	0	0.36	33.221	0	2	Target	Neutral	True
34.221	0.3	Control	1.0	0.003	Yes	2.586	-0.003	2.0	GoodResponse	0	0.36	n/a	0	2	ButtonPress	Neutral	True
34.245	0.32	Control	1.0	n/a	Yes	2.586	n/a	n/a	GoodResponse	0	n/a	n/a	0	2	Blank	Neutral	True
34.563	1.45	Control	1.0	n/a	Yes	2.586	n/a	5.0	GoodResponse	0	0.047	33.61	0	2	Feedback	Neutral	True
36.017	2.586	Control	1.0	n/a	Yes	2.586	n/a	n/a	GoodResponse	0	0.0	n/a	0	2	ISIslide	Neutral	True
38.625	0.25	Win2	0.75	0.0	No	2.825	0.025	n/a	NoResponse	0	n/a	n/a	0	3	Cue	MissedWin	False
38.876	3.95	Win2	0.75	0.0	No	2.825	0.001	n/a	NoResponse	0	n/a	n/a	0	3	Fixation	MissedWin	False
42.821	0.37	Win2	0.75	0.004	No	2.825	-0.004	n/a	NoResponse	0	n/a	n/a	0	3	Target	MissedWin	False
43.205	0.33	Win2	0.75	n/a	No	2.825	n/a	n/a	NoResponse	0	n/a	n/a	0	3	Blank	MissedWin	False
43.523	1.45	Win2	0.75	n/a	No	2.825	n/a	5.0	NoResponse	0	0.014	42.537	0	3	Feedback	MissedWin	False
44.977	2.825	Win2	0.75	n/a	No	2.825	n/a	n/a	NoResponse	0	0.0	n/a	0	3	ISIslide	MissedWin	False
47.819	0.25	Win2	0.8	0.0	Yes	3.281	0.019	n/a	GoodResponse	1	n/a	n/a	1	4	Cue	Win	True
48.07	4.0	Win2	0.8	0.0	Yes	3.281	0.001	n/a	GoodResponse	1	n/a	n/a	1	4	Fixation	Win	True
52.065	0.36	Win2	0.8	0.004	Yes	3.281	-0.004	2.0	GoodResponse	1	0.209	51.274	1	4	Target	Win	True
52.274	0.3	Win2	0.8	0.004	Yes	3.281	-0.004	2.0	GoodResponse	1	0.209	n/a	1	4	ButtonPress	Win	True
52.433	0.34	Win2	0.8	n/a	Yes	3.281	n/a	n/a	GoodResponse	1	n/a	n/a	1	4	Blank	Win	True
52.767	1.45	Win2	0.8	n/a	Yes	3.281	n/a	5.0	GoodResponse	1	0.037	51.804	1	4	Feedback	Win	True
54.222	3.281	Win2	0.8	n/a	Yes	3.281	n/a	n/a	GoodResponse	1	0.0	n/a	1	4	ISIslide	Win	True
57.515	0.25	Win2	0.8332999999999999	0.0	Yes	2.785	0.015	n/a	GoodResponse	1	n/a	n/a	2	5	Cue	Win	True
57.766	4.0	Win2	0.8332999999999999	0.0	Yes	2.785	0.001	n/a	GoodResponse	1	n/a	n/a	2	5	Fixation	Win	True
61.761	0.35	Win2	0.8332999999999999	0.004	Yes	2.785	-0.004	2.0	GoodResponse	1	0.238	60.999	2	5	Target	Win	True
61.999	0.3	Win2	0.8332999999999999	0.004	Yes	2.785	-0.004	2.0	GoodResponse	1	0.238	n/a	2	5	ButtonPress	Win	True
62.112	0.35	Win2	0.8332999999999999	n/a	Yes	2.785	n/a	n/a	GoodResponse	1	n/a	n/a	2	5	Blank	Win	True
62.463	1.45	Win2	0.8332999999999999	n/a	Yes	2.785	n/a	5.0	GoodResponse	1	0.0	61.463	2	5	Feedback	Win	True
63.917	2.785	Win2	0.8332999999999999	n/a	Yes	2.785	n/a	n/a	GoodResponse	1	0.0	n/a	2	5	ISIslide	Win	True
66.726	0.25	Lose2	0.7143	0.0	No	2.724	0.026	n/a	NoResponse	-1	n/a	n/a	1	6	Cue	Loss	True
66.977	3.95	Lose2	0.7143	0.0	No	2.724	0.001	n/a	NoResponse	-1	n/a	n/a	1	6	Fixation	Loss	True
70.922	0.34	Lose2	0.7143	0.004	No	2.724	-0.004	2.0	NoResponse	-1	0.385	70.307	1	6	Target	Loss	True
71.273	0.36	Lose2	0.7143	n/a	No	2.724	n/a	n/a	NoResponse	-1	n/a	n/a	1	6	Blank	Loss	True
71.307	0.3	Lose2	0.7143	0.004	No	2.724	-0.004	2.0	NoResponse	-1	0.385	n/a	1	6	ButtonPress	Loss	True
71.624	1.45	Lose2	0.7143	n/a	No	2.724	n/a	5.0	NoResponse	-1	0.01	70.634	1	6	Feedback	Loss	True
73.078	2.724	Lose2	0.7143	n/a	No	2.724	n/a	n/a	NoResponse	-1	0.0	n/a	1	6	ISIslide	Loss	True
75.82	0.25	Lose2	0.625	0.0	No	4.03	0.02	n/a	NoResponse	-1	n/a	n/a	0	7	Cue	Loss	True
76.07	4.05	Lose2	0.625	0.001	No	4.03	0.0	n/a	NoResponse	-1	n/a	n/a	0	7	Fixation	Loss	True
80.116	0.33	Lose2	0.625	0.004	No	4.03	-0.004	2.0	NoResponse	-1	0.494	79.61	0	7	Target	Loss	True
80.45	0.37	Lose2	0.625	n/a	No	4.03	n/a	n/a	NoResponse	-1	n/a	n/a	0	7	Blank	Loss	True
80.61	0.3	Lose2	0.625	0.004	No	4.03	-0.004	2.0	NoResponse	-1	0.494	n/a	0	7	ButtonPress	Loss	True
80.818	1.45	Lose2	0.625	n/a	No	4.03	n/a	5.0	NoResponse	-1	0.035	79.853	0	7	Feedback	Loss	True
82.272	4.03	Lose2	0.625	n/a	No	4.03	n/a	n/a	NoResponse	-1	0.0	n/a	0	7	ISIslide	Loss	True
86.318	0.25	Lose2	0.5556	0.0	No	3.032	0.018	n/a	NoResponse	-1	n/a	n/a	-1	8	Cue	Loss	True
86.569	3.95	Lose2	0.5556	0.0	No	3.032	0.001	n/a	NoResponse	-1	n/a	n/a	-1	8	Fixation	Loss	True
90.514	0.34	Lose2	0.5556	0.004	No	3.032	-0.004	2.0	NoResponse	-1	0.503	90.017	-1	8	Target	Loss	True
90.865	0.36	Lose2	0.5556	n/a	No	3.032	n/a	n/a	NoResponse	-1	n/a	n/a	-1	8	Blank	Loss	True
91.017	0.3	Lose2	0.5556	0.004	No	3.032	-0.004	2.0	NoResponse	-1	0.503	n/a	-1	8	ButtonPress	Loss	True
91.216	1.45	Lose2	0.5556	n/a	No	3.032	n/a	5.0	NoResponse	-1	0.028	90.244	-1	8	Feedback	Loss	True
92.67	3.032	Lose2	0.5556	n/a	No	3.032	n/a	n/a	NoResponse	-1	0.0	n/a	-1	8	ISIslide	Loss	True
95.729	0.25	Lose2	0.5	0.0	No	3.121	0.029	n/a	NoResponse	-1	n/a	n/a	-2	9	Cue	Loss	False
95.98	3.95	Lose2	0.5	0.0	No	3.121	0.001	n/a	NoResponse	-1	n/a	n/a	-2	9	Fixation	Loss	False
99.925	0.35	Lose2	0.5	0.004	No	3.121	-0.004	n/a	NoResponse	-1	n/a	n/a	-2	9	Target	Loss	False
100.276	0.35	Lose2	0.5	n/a	No	3.121	n/a	n/a	NoResponse	-1	n/a	n/a	-2	9	Blank	Loss	False
100.627	1.45	Lose2	0.5	n/a	No	3.121	n/a	5.0	NoResponse	-1	0.03	99.657	-2	9	Feedback	Loss	False
102.082	3.121	Lose2	0.5	n/a	No	3.121	n/a	n/a	NoResponse	-1	0.0	n/a	-2	9	ISIslide	Loss	False
105.224	0.25	Control	0.5455	0.0	Yes	3.276	0.024	n/a	GoodResponse	0	n/a	n/a	-2	10	Cue	Neutral	True
105.475	4.0	Control	0.5455	0.0	Yes	3.276	0.001	n/a	GoodResponse	0	n/a	n/a	-2	10	Fixation	Neutral	True
109.47	0.36	Control	0.5455	0.004	Yes	3.276	-0.004	2.0	GoodResponse	0	0.316	108.786	-2	10	Target	Neutral	True
109.786	0.3	Control	0.5455	0.004	Yes	3.276	-0.004	2.0	GoodResponse	0	0.316	n/a	-2	10	ButtonPress	Neutral	True
109.838	0.34	Control	0.5455	n/a	Yes	3.276	n/a	n/a	GoodResponse	0	n/a	n/a	-2	10	Blank	Neutral	True
110.173	1.45	Control	0.5455	n/a	Yes	3.276	n/a	5.0	GoodResponse	0	0.045	109.218	-2	10	Feedback	Neutral	True
111.627	3.276	Control	0.5455	n/a	Yes	3.276	n/a	n/a	GoodResponse	0	0.0	n/a	-2	10	ISIslide	Neutral	True
114.92	0.25	Lose2	0.5	0.0	No	2.73	0.02	n/a	NoResponse	-1	n/a	n/a	-3	11	Cue	Loss	False
115.171	4.05	Lose2	0.5	0.0	No	2.73	0.001	n/a	NoResponse	-1	n/a	n/a	-3	11	Fixation	Loss	False
119.216	0.37	Lose2	0.5	0.004	No	2.73	-0.004	n/a	NoResponse	-1	n/a	n/a	-3	11	Target	Loss	False
119.601	0.33	Lose2	0.5	n/a	No	2.73	n/a	n/a	NoResponse	-1	n/a	n/a	-3	11	Blank	Loss	False
119.918	1.45	Lose2	0.5	n/a	No	2.73	n/a	5.0	NoResponse	-1	0.008	118.926	-3	11	Feedback	Loss	False
121.373	2.73	Lose2	0.5	n/a	No	2.73	n/a	n/a	NoResponse	-1	0.0	n/a	-3	11	ISIslide	Loss	False
124.114	0.25	Control	0.46149999999999997	0.0	No	2.986	0.014	n/a	NoResponse	0	n/a	n/a	-3	12	Cue	Neutral	True
124.365	3.9	Control	0.46149999999999997	0.0	No	2.986	0.001	n/a	NoResponse	0	n/a	n/a	-3	12	Fixation	Neutral	True
128.26	0.38	Control	0.46149999999999997	0.004	No	2.986	-0.004	2.0	NoResponse	0	0.426	127.686	-3	12	Target	Neutral	True
128.645	0.32	Control	0.46149999999999997	n/a	No	2.986	n/a	n/a	NoResponse	0	n/a	n/a	-3	12	Blank	Neutral	True
128.686	0.3	Control	0.46149999999999997	0.004	No	2.986	-0.004	2.0	NoResponse	0	0.426	n/a	-3	12	ButtonPress	Neutral	True
128.962	1.45	Control	0.46149999999999997	n/a	No	2.986	n/a	5.0	NoResponse	0	0.037	127.999	-3	12	Feedback	Neutral	True
130.416	2.986	Control	0.46149999999999997	n/a	No	2.986	n/a	n/a	NoResponse	0	0.0	n/a	-3	12	ISIslide	Neutral	True
133.425	0.25	Control	0.4286	0.001	No	2.775	0.025	n/a	NoResponse	0	n/a	n/a	-3	13	Cue	Neutral	False
133.676	4.0	Control	0.4286	0.0	No	2.775	0.001	n/a	NoResponse	0	n/a	n/a	-3	13	Fixation	Neutral	False
137.672	0.39	Control	0.4286	0.003	No	2.775	-0.003	n/a	NoResponse	0	n/a	n/a	-3	13	Target	Neutral	False
138.073	0.31	Control	0.4286	n/a	No	2.775	n/a	n/a	NoResponse	0	n/a	n/a	-3	13	Blank	Neutral	False
138.374	1.45	Control	0.4286	n/a	No	2.775	n/a	5.0	NoResponse	0	0.04	137.414	-3	13	Feedback	Neutral	False
139.828	2.775	Control	0.4286	n/a	No	2.775	n/a	n/a	NoResponse	0	0.0	n/a	-3	13	ISIslide	Neutral	False
142.62	0.25	Win2	0.4667	0.0	Yes	2.68	0.02	n/a	GoodResponse	1	n/a	n/a	-2	14	Cue	Win	False
142.87	4.1	Win2	0.4667	0.0	Yes	2.68	0.0	2.0	GoodResponse	1	3.186	145.056	-2	14	Fixation	Win	False
146.056	0.3	Win2	0.4667	0.0	Yes	2.68	0.0	2.0	GoodResponse	1	3.186	n/a	-2	14	ButtonPress	Win	False
146.966	0.4	Win2	0.4667	0.004	Yes	2.68	-0.004	2.0	GoodResponse	1	0.271	146.237	-2	14	Target	Win	False
147.237	0.3	Win2	0.4667	0.004	Yes	2.68	-0.004	2.0	GoodResponse	1	0.271	n/a	-2	14	ButtonPress	Win	False
147.367	0.3	Win2	0.4667	n/a	Yes	2.68	n/a	n/a	GoodResponse	1	n/a	n/a	-2	14	Blank	Win	False
147.668	1.45	Win2	0.4667	n/a	Yes	2.68	n/a	5.0	GoodResponse	1	0.013	146.681	-2	14	Feedback	Win	False
149.122	2.68	Win2	0.4667	n/a	Yes	2.68	n/a	n/a	GoodResponse	1	0.0	n/a	-2	14	ISIslide	Win	False
151.814	0.25	Control	0.4375	0.0	No	2.986	0.014	n/a	NoResponse	0	n/a	n/a	-2	15	Cue	Neutral	True
152.065	4.0	Control	0.4375	0.0	No	2.986	0.001	n/a	NoResponse	0	n/a	n/a	-2	15	Fixation	Neutral	True
156.06	0.41	Control	0.4375	0.004	No	2.986	-0.004	2.0	NoResponse	0	0.47	155.53	-2	15	Target	Neutral	True
156.478	0.29	Control	0.4375	n/a	No	2.986	n/a	n/a	NoResponse	0	n/a	n/a	-2	15	Blank	Neutral	True
156.53	0.3	Control	0.4375	0.004	No	2.986	-0.004	2.0	NoResponse	0	0.47	n/a	-2	15	ButtonPress	Neutral	True
156.762	1.45	Control	0.4375	n/a	No	2.986	n/a	5.0	NoResponse	0	0.041	155.803	-2	15	Feedback	Neutral	True
158.216	2.986	Control	0.4375	n/a	No	2.986	n/a	n/a	NoResponse	0	0.0	n/a	-2	15	ISIslide	Neutral	True
161.225	0.25	Win2	0.4706	0.0	Yes	2.875	0.025	n/a	GoodResponse	1	n/a	n/a	-1	16	Cue	Win	True
161.476	4.0	Win2	0.4706	0.0	Yes	2.875	0.001	n/a	GoodResponse	1	n/a	n/a	-1	16	Fixation	Win	True
165.471	0.42	Win2	0.4706	0.004	Yes	2.875	-0.004	2.0	GoodResponse	1	0.316	164.787	-1	16	Target	Win	True
165.787	0.3	Win2	0.4706	0.004	Yes	2.875	-0.004	2.0	GoodResponse	1	0.316	n/a	-1	16	ButtonPress	Win	True
165.906	0.28	Win2	0.4706	n/a	Yes	2.875	n/a	n/a	GoodResponse	1	n/a	n/a	-1	16	Blank	Win	True
166.174	1.45	Win2	0.4706	n/a	Yes	2.875	n/a	5.0	GoodResponse	1	0.044	165.218	-1	16	Feedback	Win	True
167.628	2.875	Win2	0.4706	n/a	Yes	2.875	n/a	n/a	GoodResponse	1	0.0	n/a	-1	16	ISIslide	Win	True
170.52	0.25	Lose2	0.5	0.0	Yes	2.73	0.02	n/a	GoodResponse	0	n/a	n/a	-1	17	Cue	AvoidedLoss	True
170.771	3.95	Lose2	0.5	0.0	Yes	2.73	0.001	n/a	GoodResponse	0	n/a	n/a	-1	17	Fixation	AvoidedLoss	True
174.716	0.43	Lose2	0.5	0.004	Yes	2.73	-0.004	2.0	GoodResponse	0	0.392	174.108	-1	17	Target	AvoidedLoss	True
175.108	0.3	Lose2	0.5	0.004	Yes	2.73	-0.004	2.0	GoodResponse	0	0.392	n/a	-1	17	ButtonPress	AvoidedLoss	True
175.15	0.27	Lose2	0.5	n/a	Yes	2.73	n/a	n/a	GoodResponse	0	n/a	n/a	-1	17	Blank	AvoidedLoss	True
175.418	1.45	Lose2	0.5	n/a	Yes	2.73	n/a	5.0	GoodResponse	0	0.02	174.438	-1	17	Feedback	AvoidedLoss	True
176.872	2.73	Lose2	0.5	n/a	Yes	2.73	n/a	n/a	GoodResponse	0	0.0	n/a	-1	17	ISIslide	AvoidedLoss	True
179.614	0.25	Lose2	0.47369999999999995	0.0	No	2.736	0.014	n/a	NoResponse	-1	n/a	n/a	-2	18	Cue	Loss	False
179.864	4.05	Lose2	0.47369999999999995	0.001	No	2.736	0.0	n/a	NoResponse	-1	n/a	n/a	-2	18	Fixation	Loss	False
183.91	0.44	Lose2	0.47369999999999995	0.004	No	2.736	-0.004	n/a	NoResponse	-1	n/a	n/a	-2	18	Target	Loss	False
184.361	0.26	Lose2	0.47369999999999995	n/a	No	2.736	n/a	n/a	NoResponse	-1	n/a	n/a	-2	18	Blank	Loss	False
184.612	1.45	Lose2	0.47369999999999995	n/a	No	2.736	n/a	5.0	NoResponse	-1	0.045	183.657	-2	18	Feedback	Loss	False
186.066	2.736	Lose2	0.47369999999999995	n/a	No	2.736	n/a	n/a	NoResponse	-1	0.0	n/a	-2	18	ISIslide	Loss	False
188.825	0.25	Control	0.45	0.0	No	2.925	0.025	n/a	NoResponse	0	n/a	n/a	-2	19	Cue	Neutral	True
189.075	3.95	Control	0.45	0.0	No	2.925	0.0	2.0	NoResponse	0	0.577	188.652	-2	19	Fixation	Neutral	True
189.652	0.3	Control	0.45	0.0	No	2.925	0.0	2.0	NoResponse	0	0.577	n/a	-2	19	ButtonPress	Neutral	True
193.021	0.45	Control	0.45	0.004	No	2.925	-0.004	n/a	NoResponse	0	n/a	n/a	-2	19	Target	Neutral	True
193.472	0.25	Control	0.45	n/a	No	2.925	n/a	n/a	NoResponse	0	n/a	n/a	-2	19	Blank	Neutral	True
193.723	1.45	Control	0.45	n/a	No	2.925	n/a	5.0	NoResponse	0	0.007	192.73	-2	19	Feedback	Neutral	True
195.177	2.925	Control	0.45	n/a	No	2.925	n/a	n/a	NoResponse	0	0.0	n/a	-2	19	ISIslide	Neutral	True
198.119	0.25	Control	0.47619999999999996	0.0	Yes	2.631	0.019	n/a	GoodResponse	0	n/a	n/a	-2	20	Cue	Neutral	False
198.37	4.05	Control	0.47619999999999996	0.0	Yes	2.631	0.001	2.0	GoodResponse	0	0.405	197.775	-2	20	Fixation	Neutral	False
198.775	0.3	Control	0.47619999999999996	0.0	Yes	2.631	0.001	2.0	GoodResponse	0	0.405	n/a	-2	20	ButtonPress	Neutral	False
202.415	0.46	Control	0.47619999999999996	0.004	Yes	2.631	-0.004	2.0	GoodResponse	0	0.281	201.696	-2	20	Target	Neutral	False
202.696	0.3	Control	0.47619999999999996	0.004	Yes	2.631	-0.004	2.0	GoodResponse	0	0.281	n/a	-2	20	ButtonPress	Neutral	False
202.883	0.24	Control	0.47619999999999996	n/a	Yes	2.631	n/a	n/a	GoodResponse	0	n/a	n/a	-2	20	Blank	Neutral	False
203.117	1.45	Control	0.47619999999999996	n/a	Yes	2.631	n/a	5.0	GoodResponse	0	0.027	202.144	-2	20	Feedback	Neutral	False
204.572	2.631	Control	0.47619999999999996	n/a	Yes	2.631	n/a	n/a	GoodResponse	0	0.0	n/a	-2	20	ISIslide	Neutral	False
207.213	0.25	Control	0.5	0.0	Yes	2.787	0.013	n/a	GoodResponse	0	n/a	n/a	-2	21	Cue	Neutral	True
207.464	4.1	Control	0.5	0.0	Yes	2.787	0.001	n/a	GoodResponse	0	n/a	n/a	-2	21	Fixation	Neutral	True
211.559	0.47	Control	0.5	0.004	Yes	2.787	-0.004	2.0	GoodResponse	0	0.285	210.844	-2	21	Target	Neutral	True
211.844	0.3	Control	0.5	0.004	Yes	2.787	-0.004	2.0	GoodResponse	0	0.285	n/a	-2	21	ButtonPress	Neutral	True
212.044	0.23	Control	0.5	n/a	Yes	2.787	n/a	n/a	GoodResponse	0	n/a	n/a	-2	21	Blank	Neutral	True
212.261	1.45	Control	0.5	n/a	Yes	2.787	n/a	5.0	GoodResponse	0	0.005	211.266	-2	21	Feedback	Neutral	True
213.716	2.787	Control	0.5	n/a	Yes	2.787	n/a	n/a	GoodResponse	0	0.0	n/a	-2	21	ISIslide	Neutral	True
216.524	0.25	Control	0.4783	0.0	No	2.776	0.024	n/a	NoResponse	0	n/a	n/a	-2	22	Cue	Neutral	False
216.775	4.0	Control	0.4783	0.0	No	2.776	0.001	n/a	NoResponse	0	n/a	n/a	-2	22	Fixation	Neutral	False
220.77	0.48	Control	0.4783	0.004	No	2.776	-0.004	n/a	NoResponse	0	n/a	n/a	-2	22	Target	Neutral	False
221.255	0.22	Control	0.4783	n/a	No	2.776	n/a	n/a	NoResponse	0	n/a	n/a	-2	22	Blank	Neutral	False
221.472	1.45	Control	0.4783	n/a	No	2.776	n/a	5.0	NoResponse	0	0.014	220.486	-2	22	Feedback	Neutral	False
222.927	2.776	Control	0.4783	n/a	No	2.776	n/a	n/a	NoResponse	0	0.0	n/a	-2	22	ISIslide	Neutral	False
225.718	0.25	Control	0.5	0.0	Yes	2.782	0.018	n/a	GoodResponse	0	n/a	n/a	-2	23	Cue	Neutral	True
225.969	3.9	Control	0.5	0.0	Yes	2.782	0.001	n/a	GoodResponse	0	n/a	n/a	-2	23	Fixation	Neutral	True
229.864	0.49	Control	0.5	0.004	Yes	2.782	-0.004	2.0	GoodResponse	0	0.285	229.149	-2	23	Target	Neutral	True
230.149	0.3	Control	0.5	0.004	Yes	2.782	-0.004	2.0	GoodResponse	0	0.285	n/a	-2	23	ButtonPress	Neutral	True
230.366	0.21	Control	0.5	n/a	Yes	2.782	n/a	n/a	GoodResponse	0	n/a	n/a	-2	23	Blank	Neutral	True
230.566	1.45	Control	0.5	n/a	Yes	2.782	n/a	5.0	GoodResponse	0	0.042	229.608	-2	23	Feedback	Neutral	True
232.021	2.782	Control	0.5	n/a	Yes	2.782	n/a	n/a	GoodResponse	0	0.0	n/a	-2	23	ISIslide	Neutral	True
234.829	0.25	Win2	0.48	0.0	No	3.121	0.029	n/a	NoResponse	0	n/a	n/a	-2	24	Cue	MissedWin	False
235.08	3.95	Win2	0.48	0.0	No	3.121	0.001	n/a	NoResponse	0	n/a	n/a	-2	24	Fixation	MissedWin	False
239.025	0.5	Win2	0.48	0.004	No	3.121	-0.004	n/a	NoResponse	0	n/a	n/a	-2	24	Target	MissedWin	False
239.526	0.2	Win2	0.48	n/a	No	3.121	n/a	n/a	NoResponse	0	n/a	n/a	-2	24	Blank	MissedWin	False
239.727	1.45	Win2	0.48	n/a	No	3.121	n/a	5.0	NoResponse	0	0.005	238.732	-2	24	Feedback	MissedWin	False
241.181	3.121	Win2	0.48	n/a	No	3.121	n/a	n/a	NoResponse	0	0.0	n/a	-2	24	ISIslide	MissedWin	False
244.324	0.25	Win2	0.46149999999999997	0.0	No	3.076	0.024	n/a	NoResponse	0	n/a	n/a	-2	25	Cue	MissedWin	False
244.575	4.0	Win2	0.46149999999999997	0.0	No	3.076	0.001	n/a	NoResponse	0	n/a	n/a	-2	25	Fixation	MissedWin	False
248.57	0.5	Win2	0.46149999999999997	0.004	No	3.076	-0.004	n/a	NoResponse	0	n/a	n/a	-2	25	Target	MissedWin	False
249.072	0.2	Win2	0.46149999999999997	n/a	No	3.076	n/a	n/a	NoResponse	0	n/a	n/a	-2	25	Blank	MissedWin	False
249.272	1.45	Win2	0.46149999999999997	n/a	No	3.076	n/a	5.0	NoResponse	0	0.018	248.29	-2	25	Feedback	MissedWin	False
250.727	3.076	Win2	0.46149999999999997	n/a	No	3.076	n/a	n/a	NoResponse	0	0.0	n/a	-2	25	ISIslide	MissedWin	False
253.819	0.25	Win2	0.4815	0.0	Yes	2.931	0.019	n/a	GoodResponse	1	n/a	n/a	-1	26	Cue	Win	True
254.07	3.95	Win2	0.4815	0.0	Yes	2.931	0.001	n/a	GoodResponse	1	n/a	n/a	-1	26	Fixation	Win	True
258.015	0.5	Win2	0.4815	0.004	Yes	2.931	-0.004	2.0	GoodResponse	1	0.38	257.395	-1	26	Target	Win	True
258.395	0.3	Win2	0.4815	0.004	Yes	2.931	-0.004	2.0	GoodResponse	1	0.38	n/a	-1	26	ButtonPress	Win	True
258.517	0.2	Win2	0.4815	n/a	Yes	2.931	n/a	n/a	GoodResponse	1	n/a	n/a	-1	26	Blank	Win	True
258.717	1.45	Win2	0.4815	n/a	Yes	2.931	n/a	5.0	GoodResponse	1	0.037	257.754	-1	26	Feedback	Win	True
260.172	2.931	Win2	0.4815	n/a	Yes	2.931	n/a	n/a	GoodResponse	1	0.0	n/a	-1	26	ISIslide	Win	True
263.114	0.25	Lose2	0.4643	0.0	No	2.836	0.014	n/a	NoResponse	-1	n/a	n/a	-2	27	Cue	Loss	False
263.364	4.05	Lose2	0.4643	0.001	No	2.836	0.0	n/a	NoResponse	-1	n/a	n/a	-2	27	Fixation	Loss	False
267.41	0.5	Lose2	0.4643	0.004	No	2.836	-0.004	n/a	NoResponse	-1	n/a	n/a	-2	27	Target	Loss	False
267.911	0.2	Lose2	0.4643	n/a	No	2.836	n/a	n/a	NoResponse	-1	n/a	n/a	-2	27	Blank	Loss	False
268.112	1.45	Lose2	0.4643	n/a	No	2.836	n/a	5.0	NoResponse	-1	0.007	267.119	-2	27	Feedback	Loss	False
269.566	2.836	Lose2	0.4643	n/a	No	2.836	n/a	n/a	NoResponse	-1	0.0	n/a	-2	27	ISIslide	Loss	False
272.425	0.25	Control	0.4828	0.0	Yes	2.825	0.025	n/a	GoodResponse	0	n/a	n/a	-2	28	Cue	Neutral	True
272.676	4.05	Control	0.4828	0.0	Yes	2.825	0.001	n/a	GoodResponse	0	n/a	n/a	-2	28	Fixation	Neutral	True
276.721	0.5	Control	0.4828	0.004	Yes	2.825	-0.004	2.0	GoodResponse	0	0.306	276.027	-2	28	Target	Neutral	True
277.027	0.3	Control	0.4828	0.004	Yes	2.825	-0.004	2.0	GoodResponse	0	0.306	n/a	-2	28	ButtonPress	Neutral	True
277.223	0.2	Control	0.4828	n/a	Yes	2.825	n/a	n/a	GoodResponse	0	n/a	n/a	-2	28	Blank	Neutral	True
277.423	1.45	Control	0.4828	n/a	Yes	2.825	n/a	5.0	GoodResponse	0	0.014	276.437	-2	28	Feedback	Neutral	True
278.878	2.825	Control	0.4828	n/a	Yes	2.825	n/a	n/a	GoodResponse	0	0.0	n/a	-2	28	ISIslide	Neutral	True
281.719	0.25	Lose2	0.5	0.0	Yes	2.831	0.019	n/a	GoodResponse	0	n/a	n/a	-2	29	Cue	AvoidedLoss	True
281.97	3.95	Lose2	0.5	0.0	Yes	2.831	0.001	n/a	GoodResponse	0	n/a	n/a	-2	29	Fixation	AvoidedLoss	True
285.915	0.5	Lose2	0.5	0.004	Yes	2.831	-0.004	2.0	GoodResponse	0	0.212	285.127	-2	29	Target	AvoidedLoss	True
286.127	0.3	Lose2	0.5	0.004	Yes	2.831	-0.004	2.0	GoodResponse	0	0.212	n/a	-2	29	ButtonPress	AvoidedLoss	True
286.417	0.2	Lose2	0.5	n/a	Yes	2.831	n/a	n/a	GoodResponse	0	n/a	n/a	-2	29	Blank	AvoidedLoss	True
286.617	1.45	Lose2	0.5	n/a	Yes	2.831	n/a	5.0	GoodResponse	0	0.039	285.656	-2	29	Feedback	AvoidedLoss	True
288.072	2.831	Lose2	0.5	n/a	Yes	2.831	n/a	n/a	GoodResponse	0	0.0	n/a	-2	29	ISIslide	AvoidedLoss	True
290.93	0.25	Win2	0.4839	0.0	No	2.77	0.03	n/a	NoResponse	0	n/a	n/a	-2	30	Cue	MissedWin	False
291.181	3.9	Win2	0.4839	0.0	No	2.77	0.001	n/a	NoResponse	0	n/a	n/a	-2	30	Fixation	MissedWin	False
295.076	0.5	Win2	0.4839	0.004	No	2.77	-0.004	n/a	NoResponse	0	n/a	n/a	-2	30	Target	MissedWin	False
295.578	0.2	Win2	0.4839	n/a	No	2.77	n/a	n/a	NoResponse	0	n/a	n/a	-2	30	Blank	MissedWin	False
295.778	1.45	Win2	0.4839	n/a	No	2.77	n/a	5.0	NoResponse	0	0.049	294.827	-2	30	Feedback	MissedWin	False
297.232	2.77	Win2	0.4839	n/a	No	2.77	n/a	n/a	NoResponse	0	0.0	n/a	-2	30	ISIslide	MissedWin	False
300.024	0.25	Lose2	0.5	0.0	Yes	2.826	0.024	n/a	GoodResponse	0	n/a	n/a	-2	31	Cue	AvoidedLoss	True
300.275	4.05	Lose2	0.5	0.0	Yes	2.826	0.001	n/a	GoodResponse	0	n/a	n/a	-2	31	Fixation	AvoidedLoss	True
304.32	0.5	Lose2	0.5	0.004	Yes	2.826	-0.004	2.0	GoodResponse	0	0.229	303.549	-2	31	Target	AvoidedLoss	True
304.549	0.3	Lose2	0.5	0.004	Yes	2.826	-0.004	2.0	GoodResponse	0	0.229	n/a	-2	31	ButtonPress	AvoidedLoss	True
304.822	0.2	Lose2	0.5	n/a	Yes	2.826	n/a	n/a	GoodResponse	0	n/a	n/a	-2	31	Blank	AvoidedLoss	True
305.022	1.45	Lose2	0.5	n/a	Yes	2.826	n/a	5.0	GoodResponse	0	0.024	304.046	-2	31	Feedback	AvoidedLoss	True
306.477	2.826	Lose2	0.5	n/a	Yes	2.826	n/a	n/a	GoodResponse	0	0.0	n/a	-2	31	ISIslide	AvoidedLoss	True
309.319	0.25	Lose2	0.48479999999999995	0.0	No	2.631	0.019	n/a	NoResponse	-1	n/a	n/a	-3	32	Cue	Loss	False
309.569	4.15	Lose2	0.48479999999999995	0.0	No	2.631	0.0	n/a	NoResponse	-1	n/a	n/a	-3	32	Fixation	Loss	False
313.715	0.5	Lose2	0.48479999999999995	0.004	No	2.631	-0.004	n/a	NoResponse	-1	n/a	n/a	-3	32	Target	Loss	False
314.217	0.2	Lose2	0.48479999999999995	n/a	No	2.631	n/a	n/a	NoResponse	-1	n/a	n/a	-3	32	Blank	Loss	False
314.417	1.45	Lose2	0.48479999999999995	n/a	No	2.631	n/a	5.0	NoResponse	-1	0.043	313.46	-3	32	Feedback	Loss	False
315.872	2.631	Lose2	0.48479999999999995	n/a	No	2.631	n/a	n/a	NoResponse	-1	0.0	n/a	-3	32	ISIslide	Loss	False
318.53	0.25	Win2	0.5	0.0	Yes	2.67	0.03	n/a	GoodResponse	1	n/a	n/a	-2	33	Cue	Win	True
318.78	4.0	Win2	0.5	0.0	Yes	2.67	0.0	n/a	GoodResponse	1	n/a	n/a	-2	33	Fixation	Win	True
322.776	0.5	Win2	0.5	0.004	Yes	2.67	-0.004	2.0	GoodResponse	1	0.254	322.03	-2	33	Target	Win	True
323.03	0.3	Win2	0.5	0.004	Yes	2.67	-0.004	2.0	GoodResponse	1	0.254	n/a	-2	33	ButtonPress	Win	True
323.277	0.2	Win2	0.5	n/a	Yes	2.67	n/a	n/a	GoodResponse	1	n/a	n/a	-2	33	Blank	Win	True
323.478	1.45	Win2	0.5	n/a	Yes	2.67	n/a	5.0	GoodResponse	1	0.007	322.485	-2	33	Feedback	Win	True
324.932	2.67	Win2	0.5	n/a	Yes	2.67	n/a	n/a	GoodResponse	1	0.0	n/a	-2	33	ISIslide	Win	True
327.623	0.25	Lose2	0.5143	0.001	Yes	2.627	0.023	n/a	GoodResponse	0	n/a	n/a	-2	34	Cue	AvoidedLoss	True
327.874	4.05	Lose2	0.5143	0.0	Yes	2.627	0.001	n/a	GoodResponse	0	n/a	n/a	-2	34	Fixation	AvoidedLoss	True
331.92	0.5	Lose2	0.5143	0.003	Yes	2.627	-0.003	2.0	GoodResponse	0	0.362	331.282	-2	34	Target	AvoidedLoss	True
332.282	0.3	Lose2	0.5143	0.003	Yes	2.627	-0.003	2.0	GoodResponse	0	0.362	n/a	-2	34	ButtonPress	AvoidedLoss	True
332.421	0.2	Lose2	0.5143	n/a	Yes	2.627	n/a	n/a	GoodResponse	0	n/a	n/a	-2	34	Blank	AvoidedLoss	True
332.622	1.45	Lose2	0.5143	n/a	Yes	2.627	n/a	5.0	GoodResponse	0	0.034	331.656	-2	34	Feedback	AvoidedLoss	True
334.076	2.627	Lose2	0.5143	n/a	Yes	2.627	n/a	n/a	GoodResponse	0	0.0	n/a	-2	34	ISIslide	AvoidedLoss	True
336.717	0.25	Lose2	0.5278	0.0	Yes	2.683	0.017	n/a	GoodResponse	0	n/a	n/a	-2	35	Cue	AvoidedLoss	True
336.968	4.0	Lose2	0.5278	0.0	Yes	2.683	0.001	n/a	GoodResponse	0	n/a	n/a	-2	35	Fixation	AvoidedLoss	True
340.963	0.5	Lose2	0.5278	0.004	Yes	2.683	-0.004	2.0	GoodResponse	0	0.354	340.317	-2	35	Target	AvoidedLoss	True
341.317	0.3	Lose2	0.5278	0.004	Yes	2.683	-0.004	2.0	GoodResponse	0	0.354	n/a	-2	35	ButtonPress	AvoidedLoss	True
341.465	0.2	Lose2	0.5278	n/a	Yes	2.683	n/a	n/a	GoodResponse	0	n/a	n/a	-2	35	Blank	AvoidedLoss	True
341.665	1.45	Lose2	0.5278	n/a	Yes	2.683	n/a	5.0	GoodResponse	0	0.015	340.68	-2	35	Feedback	AvoidedLoss	True
343.12	2.683	Lose2	0.5278	n/a	Yes	2.683	n/a	n/a	GoodResponse	0	0.0	n/a	-2	35	ISIslide	AvoidedLoss	True
345.828	0.25	Control	0.5405	0.0	Yes	2.672	0.028	n/a	GoodResponse	0	n/a	n/a	-2	36	Cue	Neutral	True
346.079	4.0	Control	0.5405	0.0	Yes	2.672	0.001	n/a	GoodResponse	0	n/a	n/a	-2	36	Fixation	Neutral	True
350.074	0.5	Control	0.5405	0.004	Yes	2.672	-0.004	2.0	GoodResponse	0	0.266	349.34	-2	36	Target	Neutral	True
350.34	0.3	Control	0.5405	0.004	Yes	2.672	-0.004	2.0	GoodResponse	0	0.266	n/a	-2	36	ButtonPress	Neutral	True
350.575	0.2	Control	0.5405	n/a	Yes	2.672	n/a	n/a	GoodResponse	0	n/a	n/a	-2	36	Blank	Neutral	True
350.776	1.45	Control	0.5405	n/a	Yes	2.672	n/a	5.0	GoodResponse	0	0.025	349.801	-2	36	Feedback	Neutral	True
352.23	2.672	Control	0.5405	n/a	Yes	2.672	n/a	n/a	GoodResponse	0	0.0	n/a	-2	36	ISIslide	Neutral	True
354.922	0.25	Win2	0.5263	0.0	No	2.878	0.022	n/a	NoResponse	0	n/a	n/a	-2	37	Cue	MissedWin	False
355.173	4.0	Win2	0.5263	0.0	No	2.878	0.001	n/a	NoResponse	0	n/a	n/a	-2	37	Fixation	MissedWin	False
359.168	0.5	Win2	0.5263	0.004	No	2.878	-0.004	n/a	NoResponse	0	n/a	n/a	-2	37	Target	MissedWin	False
359.669	0.2	Win2	0.5263	n/a	No	2.878	n/a	n/a	NoResponse	0	n/a	n/a	-2	37	Blank	MissedWin	False
359.87	1.45	Win2	0.5263	n/a	No	2.878	n/a	5.0	NoResponse	0	0.005	358.875	-2	37	Feedback	MissedWin	False
361.324	2.878	Win2	0.5263	n/a	No	2.878	n/a	n/a	NoResponse	0	0.0	n/a	-2	37	ISIslide	MissedWin	False
364.216	0.25	Lose2	0.5128	0.0	No	2.834	0.016	n/a	NoResponse	-1	n/a	n/a	-3	38	Cue	Loss	True
364.467	3.95	Lose2	0.5128	0.0	No	2.834	0.001	n/a	NoResponse	-1	n/a	n/a	-3	38	Fixation	Loss	True
368.412	0.5	Lose2	0.5128	0.004	No	2.834	-0.004	2.0	NoResponse	-1	0.611	368.023	-3	38	Target	Loss	True
368.914	0.2	Lose2	0.5128	n/a	No	2.834	n/a	n/a	NoResponse	-1	n/a	n/a	-3	38	Blank	Loss	True
369.023	0.3	Lose2	0.5128	0.004	No	2.834	-0.004	2.0	NoResponse	-1	0.611	n/a	-3	38	ButtonPress	Loss	True
369.114	1.45	Lose2	0.5128	n/a	No	2.834	n/a	5.0	NoResponse	-1	0.029	368.143	-3	38	Feedback	Loss	True
370.569	2.834	Lose2	0.5128	n/a	No	2.834	n/a	n/a	NoResponse	-1	0.0	n/a	-3	38	ISIslide	Loss	True
373.427	0.25	Win2	0.5	0.0	No	2.973	0.027	n/a	NoResponse	0	n/a	n/a	-3	39	Cue	MissedWin	False
373.678	4.1	Win2	0.5	0.0	No	2.973	0.001	n/a	NoResponse	0	n/a	n/a	-3	39	Fixation	MissedWin	False
377.774	0.5	Win2	0.5	0.003	No	2.973	-0.003	n/a	NoResponse	0	n/a	n/a	-3	39	Target	MissedWin	False
378.275	0.2	Win2	0.5	n/a	No	2.973	n/a	n/a	NoResponse	0	n/a	n/a	-3	39	Blank	MissedWin	False
378.476	1.45	Win2	0.5	n/a	No	2.973	n/a	5.0	NoResponse	0	0.033	377.509	-3	39	Feedback	MissedWin	False
379.93	2.973	Win2	0.5	n/a	No	2.973	n/a	n/a	NoResponse	0	0.0	n/a	-3	39	ISIslide	MissedWin	False
382.922	0.25	Win2	0.5122	0.0	Yes	2.728	0.022	n/a	GoodResponse	1	n/a	n/a	-2	40	Cue	Win	False
383.173	3.95	Win2	0.5122	0.0	Yes	2.728	0.001	2.0	GoodResponse	1	0.084	382.257	-2	40	Fixation	Win	False
383.257	0.3	Win2	0.5122	0.0	Yes	2.728	0.001	2.0	GoodResponse	1	0.084	n/a	-2	40	ButtonPress	Win	False
387.118	0.5	Win2	0.5122	0.004	Yes	2.728	-0.004	2.0	GoodResponse	1	0.325	386.443	-2	40	Target	Win	False
387.443	0.3	Win2	0.5122	0.004	Yes	2.728	-0.004	2.0	GoodResponse	1	0.325	n/a	-2	40	ButtonPress	Win	False
387.62	0.2	Win2	0.5122	n/a	Yes	2.728	n/a	n/a	GoodResponse	1	n/a	n/a	-2	40	Blank	Win	False
387.82	1.45	Win2	0.5122	n/a	Yes	2.728	n/a	5.0	GoodResponse	1	0.006	386.826	-2	40	Feedback	Win	False
389.275	2.728	Win2	0.5122	n/a	Yes	2.728	n/a	n/a	GoodResponse	1	0.0	n/a	-2	40	ISIslide	Win	False
392.016	0.25	Win2	0.5238	0.0	Yes	2.784	0.016	n/a	GoodResponse	1	n/a	n/a	-1	41	Cue	Win	True
392.267	3.9	Win2	0.5238	0.0	Yes	2.784	0.001	n/a	GoodResponse	1	n/a	n/a	-1	41	Fixation	Win	True
396.162	0.5	Win2	0.5238	0.004	Yes	2.784	-0.004	2.0	GoodResponse	1	0.247	395.409	-1	41	Target	Win	True
396.409	0.3	Win2	0.5238	0.004	Yes	2.784	-0.004	2.0	GoodResponse	1	0.247	n/a	-1	41	ButtonPress	Win	True
396.663	0.2	Win2	0.5238	n/a	Yes	2.784	n/a	n/a	GoodResponse	1	n/a	n/a	-1	41	Blank	Win	True
396.864	1.45	Win2	0.5238	n/a	Yes	2.784	n/a	5.0	GoodResponse	1	0.035	395.899	-1	41	Feedback	Win	True
398.318	2.784	Win2	0.5238	n/a	Yes	2.784	n/a	n/a	GoodResponse	1	0.0	n/a	-1	41	ISIslide	Win	True
401.127	0.25	Control	0.5115999999999999	0.0	No	2.923	0.027	n/a	NoResponse	0	n/a	n/a	-1	42	Cue	Neutral	False
401.378	3.85	Control	0.5115999999999999	0.0	No	2.923	0.001	n/a	NoResponse	0	n/a	n/a	-1	42	Fixation	Neutral	False
405.239	0.5	Control	0.5115999999999999	0.0	No	2.923	0.012	n/a	NoResponse	0	n/a	n/a	-1	42	Target	Neutral	False
405.724	0.2	Control	0.5115999999999999	n/a	No	2.923	n/a	n/a	NoResponse	0	n/a	n/a	-1	42	Blank	Neutral	False
405.924	1.45	Control	0.5115999999999999	n/a	No	2.923	n/a	5.0	NoResponse	0	0.048	404.972	-1	42	Feedback	Neutral	False
407.379	2.923	Control	0.5115999999999999	n/a	No	2.923	n/a	n/a	NoResponse	0	0.0	n/a	-1	42	ISIslide	Neutral	False
410.321	0.25	Win2	0.5	0.0	No	3.179	0.021	n/a	NoResponse	0	n/a	n/a	-1	43	Cue	MissedWin	False
410.572	4.0	Win2	0.5	0.0	No	3.179	0.001	n/a	NoResponse	0	n/a	n/a	-1	43	Fixation	MissedWin	False
414.567	0.5	Win2	0.5	0.004	No	3.179	-0.004	n/a	NoResponse	0	n/a	n/a	-1	43	Target	MissedWin	False
415.069	0.2	Win2	0.5	n/a	No	3.179	n/a	n/a	NoResponse	0	n/a	n/a	-1	43	Blank	MissedWin	False
415.269	1.45	Win2	0.5	n/a	No	3.179	n/a	5.0	NoResponse	0	0.02	414.289	-1	43	Feedback	MissedWin	False
416.723	3.179	Win2	0.5	n/a	No	3.179	n/a	n/a	NoResponse	0	0.0	n/a	-1	43	ISIslide	MissedWin	False
419.916	0.25	Win2	0.5111	0.0	Yes	2.984	0.016	n/a	GoodResponse	1	n/a	n/a	0	44	Cue	Win	False
420.167	4.0	Win2	0.5111	0.0	Yes	2.984	0.001	2.0	GoodResponse	1	0.024	419.191	0	44	Fixation	Win	False
420.191	0.3	Win2	0.5111	0.0	Yes	2.984	0.001	2.0	GoodResponse	1	0.024	n/a	0	44	ButtonPress	Win	False
424.162	0.5	Win2	0.5111	0.004	Yes	2.984	-0.004	2.0	GoodResponse	1	0.37	423.532	0	44	Target	Win	False
424.532	0.3	Win2	0.5111	0.004	Yes	2.984	-0.004	2.0	GoodResponse	1	0.37	n/a	0	44	ButtonPress	Win	False
424.664	0.2	Win2	0.5111	n/a	Yes	2.984	n/a	n/a	GoodResponse	1	n/a	n/a	0	44	Blank	Win	False
424.865	1.45	Win2	0.5111	n/a	Yes	2.984	n/a	5.0	GoodResponse	1	0.034	423.899	0	44	Feedback	Win	False
426.319	2.984	Win2	0.5111	n/a	Yes	2.984	n/a	n/a	GoodResponse	1	0.0	n/a	0	44	ISIslide	Win	False
429.328	0.25	Control	0.5	0.0	No	2.872	0.028	n/a	NoResponse	0	n/a	n/a	0	45	Cue	Neutral	False
429.579	4.1	Control	0.5	0.0	No	2.872	0.001	n/a	NoResponse	0	n/a	n/a	0	45	Fixation	Neutral	False
433.674	0.5	Control	0.5	0.004	No	2.872	-0.004	n/a	NoResponse	0	n/a	n/a	0	45	Target	Neutral	False
434.176	0.2	Control	0.5	n/a	No	2.872	n/a	n/a	NoResponse	0	n/a	n/a	0	45	Blank	Neutral	False
434.376	1.45	Control	0.5	n/a	No	2.872	n/a	5.0	NoResponse	0	0.035	433.411	0	45	Feedback	Neutral	False
435.831	2.872	Control	0.5	n/a	No	2.872	n/a	n/a	NoResponse	0	0.0	n/a	0	45	ISIslide	Neutral	False
438.723	0.25	Lose2	0.5106	0.0	Yes	3.377	0.023	2.0	GoodResponse	0	0.244	437.967	0	46	Cue	AvoidedLoss	False
438.967	0.3	Lose2	0.5106	0.0	Yes	3.377	0.023	2.0	GoodResponse	0	0.244	n/a	0	46	ButtonPress	AvoidedLoss	False
438.973	4.0	Lose2	0.5106	0.001	Yes	3.377	0.0	n/a	GoodResponse	0	n/a	n/a	0	46	Fixation	AvoidedLoss	False
442.969	0.5	Lose2	0.5106	0.004	Yes	3.377	-0.004	2.0	GoodResponse	0	0.361	442.33	0	46	Target	AvoidedLoss	False
443.33	0.3	Lose2	0.5106	0.004	Yes	3.377	-0.004	2.0	GoodResponse	0	0.361	n/a	0	46	ButtonPress	AvoidedLoss	False
443.47	0.2	Lose2	0.5106	n/a	Yes	3.377	n/a	n/a	GoodResponse	0	n/a	n/a	0	46	Blank	AvoidedLoss	False
443.671	1.45	Lose2	0.5106	n/a	Yes	3.377	n/a	5.0	GoodResponse	0	0.008	442.679	0	46	Feedback	AvoidedLoss	False
445.125	3.377	Lose2	0.5106	n/a	Yes	3.377	n/a	n/a	GoodResponse	0	0.0	n/a	0	46	ISIslide	AvoidedLoss	False
448.519	0.25	Lose2	0.5	0.0	No	2.681	0.019	n/a	NoResponse	-1	n/a	n/a	-1	47	Cue	Loss	False
448.769	4.0	Lose2	0.5	0.0	No	2.681	0.0	n/a	NoResponse	-1	n/a	n/a	-1	47	Fixation	Loss	False
452.765	0.5	Lose2	0.5	0.004	No	2.681	-0.004	n/a	NoResponse	-1	n/a	n/a	-1	47	Target	Loss	False
453.266	0.2	Lose2	0.5	n/a	No	2.681	n/a	n/a	NoResponse	-1	n/a	n/a	-1	47	Blank	Loss	False
453.467	1.45	Lose2	0.5	n/a	No	2.681	n/a	5.0	NoResponse	-1	0.016	452.483	-1	47	Feedback	Loss	False
454.921	2.681	Lose2	0.5	n/a	No	2.681	n/a	n/a	NoResponse	-1	0.0	n/a	-1	47	ISIslide	Loss	False
457.629	0.25	Lose2	0.5102	0.0	Yes	3.021	0.029	n/a	GoodResponse	0	n/a	n/a	-1	48	Cue	AvoidedLoss	True
457.88	3.95	Lose2	0.5102	0.0	Yes	3.021	0.001	n/a	GoodResponse	0	n/a	n/a	-1	48	Fixation	AvoidedLoss	True
461.825	0.5	Lose2	0.5102	0.004	Yes	3.021	-0.004	2.0	GoodResponse	0	0.357	461.182	-1	48	Target	AvoidedLoss	True
462.182	0.3	Lose2	0.5102	0.004	Yes	3.021	-0.004	2.0	GoodResponse	0	0.357	n/a	-1	48	ButtonPress	AvoidedLoss	True
462.327	0.2	Lose2	0.5102	n/a	Yes	3.021	n/a	n/a	GoodResponse	0	n/a	n/a	-1	48	Blank	AvoidedLoss	True
462.527	1.45	Lose2	0.5102	n/a	Yes	3.021	n/a	5.0	GoodResponse	0	0.03	461.557	-1	48	Feedback	AvoidedLoss	True
463.982	3.021	Lose2	0.5102	n/a	Yes	3.021	n/a	n/a	GoodResponse	0	0.0	n/a	-1	48	ISIslide	AvoidedLoss	True
467.024	0.25	Control	0.5	0.0	No	2.876	0.024	n/a	NoResponse	0	n/a	n/a	-1	49	Cue	Neutral	False
467.275	4.0	Control	0.5	0.0	No	2.876	0.001	n/a	NoResponse	0	n/a	n/a	-1	49	Fixation	Neutral	False
471.27	0.5	Control	0.5	0.004	No	2.876	-0.004	n/a	NoResponse	0	n/a	n/a	-1	49	Target	Neutral	False
471.772	0.2	Control	0.5	n/a	No	2.876	n/a	n/a	NoResponse	0	n/a	n/a	-1	49	Blank	Neutral	False
471.972	1.45	Control	0.5	n/a	No	2.876	n/a	5.0	NoResponse	0	0.048	471.02	-1	49	Feedback	Neutral	False
473.427	2.876	Control	0.5	n/a	No	2.876	n/a	n/a	NoResponse	0	0.0	n/a	-1	49	ISIslide	Neutral	False
476.319	0.25	Control	0.5097999999999999	0.0	Yes	2.781	0.019	n/a	GoodResponse	0	n/a	n/a	-1	50	Cue	Neutral	True
476.569	4.0	Control	0.5097999999999999	0.0	Yes	2.781	0.0	n/a	GoodResponse	0	n/a	n/a	-1	50	Fixation	Neutral	True
480.565	0.5	Control	0.5097999999999999	0.004	Yes	2.781	-0.004	2.0	GoodResponse	0	0.318	479.883	-1	50	Target	Neutral	True
480.883	0.3	Control	0.5097999999999999	0.004	Yes	2.781	-0.004	2.0	GoodResponse	0	0.318	n/a	-1	50	ButtonPress	Neutral	True
481.066	0.2	Control	0.5097999999999999	n/a	Yes	2.781	n/a	n/a	GoodResponse	0	n/a	n/a	-1	50	Blank	Neutral	True
481.267	1.45	Control	0.5097999999999999	n/a	Yes	2.781	n/a	5.0	GoodResponse	0	0.021	480.288	-1	50	Feedback	Neutral	True
482.721	2.781	Control	0.5097999999999999	n/a	Yes	2.781	n/a	n/a	GoodResponse	0	0.0	n/a	-1	50	ISIslide	Neutral	True
485.513	0.25	Control	0.5	0.0	No	2.737	0.013	n/a	NoResponse	0	n/a	n/a	-1	51	Cue	Neutral	False
485.763	3.95	Control	0.5	0.001	No	2.737	0.0	n/a	NoResponse	0	n/a	n/a	-1	51	Fixation	Neutral	False
489.709	0.5	Control	0.5	0.004	No	2.737	-0.004	n/a	NoResponse	0	n/a	n/a	-1	51	Target	Neutral	False
490.21	0.2	Control	0.5	n/a	No	2.737	n/a	n/a	NoResponse	0	n/a	n/a	-1	51	Blank	Neutral	False
490.411	1.45	Control	0.5	n/a	No	2.737	n/a	5.0	NoResponse	0	0.048	489.459	-1	51	Feedback	Neutral	False
491.865	2.737	Control	0.5	n/a	No	2.737	n/a	n/a	NoResponse	0	0.0	n/a	-1	51	ISIslide	Neutral	False
494.623	0.25	Control	0.5094	0.0	Yes	2.627	0.023	n/a	GoodResponse	0	n/a	n/a	-1	52	Cue	Neutral	False
494.874	4.05	Control	0.5094	0.0	Yes	2.627	0.001	2.0	GoodResponse	0	0.076	493.95	-1	52	Fixation	Neutral	False
494.95	0.3	Control	0.5094	0.0	Yes	2.627	0.001	2.0	GoodResponse	0	0.076	n/a	-1	52	ButtonPress	Neutral	False
498.92	0.5	Control	0.5094	0.003	Yes	2.627	-0.003	2.0	GoodResponse	0	0.296	498.216	-1	52	Target	Neutral	False
499.216	0.3	Control	0.5094	0.003	Yes	2.627	-0.003	2.0	GoodResponse	0	0.296	n/a	-1	52	ButtonPress	Neutral	False
499.421	0.2	Control	0.5094	n/a	Yes	2.627	n/a	n/a	GoodResponse	0	n/a	n/a	-1	52	Blank	Neutral	False
499.622	1.45	Control	0.5094	n/a	Yes	2.627	n/a	5.0	GoodResponse	0	0.008	498.63	-1	52	Feedback	Neutral	False
501.076	2.627	Control	0.5094	n/a	Yes	2.627	n/a	n/a	GoodResponse	0	0.0	n/a	-1	52	ISIslide	Neutral	False
503.717	0.25	Win2	0.5185	0.0	Yes	2.933	0.017	n/a	GoodResponse	1	n/a	n/a	0	53	Cue	Win	True
503.968	4.05	Win2	0.5185	0.0	Yes	2.933	0.001	n/a	GoodResponse	1	n/a	n/a	0	53	Fixation	Win	True
508.013	0.5	Win2	0.5185	0.004	Yes	2.933	-0.004	2.0	GoodResponse	1	0.328	507.341	0	53	Target	Win	True
508.341	0.3	Win2	0.5185	0.004	Yes	2.933	-0.004	2.0	GoodResponse	1	0.328	n/a	0	53	ButtonPress	Win	True
508.515	0.2	Win2	0.5185	n/a	Yes	2.933	n/a	n/a	GoodResponse	1	n/a	n/a	0	53	Blank	Win	True
508.716	1.45	Win2	0.5185	n/a	Yes	2.933	n/a	5.0	GoodResponse	1	0.035	507.751	0	53	Feedback	Win	True
510.17	2.933	Win2	0.5185	n/a	Yes	2.933	n/a	n/a	GoodResponse	1	0.0	n/a	0	53	ISIslide	Win	True
513.129	0.25	Win2	0.5273	0.0	Yes	2.721	0.029	n/a	GoodResponse	1	n/a	n/a	1	54	Cue	Win	True
513.379	3.95	Win2	0.5273	0.001	Yes	2.721	0.0	n/a	GoodResponse	1	n/a	n/a	1	54	Fixation	Win	True
517.325	0.5	Win2	0.5273	0.004	Yes	2.721	-0.004	2.0	GoodResponse	1	0.394	516.719	1	54	Target	Win	True
517.719	0.3	Win2	0.5273	0.004	Yes	2.721	-0.004	2.0	GoodResponse	1	0.394	n/a	1	54	ButtonPress	Win	True
517.826	0.2	Win2	0.5273	n/a	Yes	2.721	n/a	n/a	GoodResponse	1	n/a	n/a	1	54	Blank	Win	True
518.027	1.45	Win2	0.5273	n/a	Yes	2.721	n/a	5.0	GoodResponse	1	0.041	517.068	1	54	Feedback	Win	True
519.481	2.721	Win2	0.5273	n/a	Yes	2.721	n/a	n/a	GoodResponse	1	0.0	n/a	1	54	ISIslide	Win	True
522.223	0.25	Control	0.5179	0.0	No	3.027	0.023	n/a	NoResponse	0	n/a	n/a	1	55	Cue	Neutral	False
522.473	3.95	Control	0.5179	0.0	No	3.027	0.0	n/a	NoResponse	0	n/a	n/a	1	55	Fixation	Neutral	False
526.435	0.5	Control	0.5179	0.0	No	3.027	0.012	n/a	NoResponse	0	n/a	n/a	1	55	Target	Neutral	False
526.92	0.2	Control	0.5179	n/a	No	3.027	n/a	n/a	NoResponse	0	n/a	n/a	1	55	Blank	Neutral	False
527.121	1.45	Control	0.5179	n/a	No	3.027	n/a	5.0	NoResponse	0	0.021	526.142	1	55	Feedback	Neutral	False
528.575	3.027	Control	0.5179	n/a	No	3.027	n/a	n/a	NoResponse	0	0.0	n/a	1	55	ISIslide	Neutral	False
531.617	0.25	Control	0.5088	0.0	No	2.833	0.017	n/a	NoResponse	0	n/a	n/a	1	56	Cue	Neutral	True
531.868	3.95	Control	0.5088	0.0	No	2.833	0.001	2.0	NoResponse	0	0.265	531.133	1	56	Fixation	Neutral	True
532.133	0.3	Control	0.5088	0.0	No	2.833	0.001	2.0	NoResponse	0	0.265	n/a	1	56	ButtonPress	Neutral	True
535.813	0.5	Control	0.5088	0.004	No	2.833	-0.004	n/a	NoResponse	0	n/a	n/a	1	56	Target	Neutral	True
536.315	0.2	Control	0.5088	n/a	No	2.833	n/a	n/a	NoResponse	0	n/a	n/a	1	56	Blank	Neutral	True
536.515	1.45	Control	0.5088	n/a	No	2.833	n/a	5.0	NoResponse	0	0.041	535.556	1	56	Feedback	Neutral	True
537.97	2.833	Control	0.5088	n/a	No	2.833	n/a	2.0	NoResponse	0	1.572	n/a	1	56	ISIslide	Neutral	True
540.812	0.25	Control	0.5172	0.0	Yes	3.488	0.012	n/a	GoodResponse	0	n/a	n/a	1	57	Cue	Neutral	True
541.062	4.0	Control	0.5172	0.0	Yes	3.488	0.0	n/a	GoodResponse	0	n/a	n/a	1	57	Fixation	Neutral	True
545.058	0.5	Control	0.5172	0.004	Yes	3.488	-0.004	2.0	GoodResponse	0	0.229	544.287	1	57	Target	Neutral	True
545.287	0.3	Control	0.5172	0.004	Yes	3.488	-0.004	2.0	GoodResponse	0	0.229	n/a	1	57	ButtonPress	Neutral	True
545.559	0.2	Control	0.5172	n/a	Yes	3.488	n/a	n/a	GoodResponse	0	n/a	n/a	1	57	Blank	Neutral	True
545.76	1.45	Control	0.5172	n/a	Yes	3.488	n/a	5.0	GoodResponse	0	0.016	544.776	1	57	Feedback	Neutral	True
547.214	3.488	Control	0.5172	n/a	Yes	3.488	n/a	n/a	GoodResponse	0	0.0	n/a	1	57	ISIslide	Neutral	True
550.725	0.25	Win2	0.5254	0.0	Yes	2.725	0.025	n/a	GoodResponse	1	n/a	n/a	2	58	Cue	Win	True
550.975	4.05	Win2	0.5254	0.0	Yes	2.725	0.0	n/a	GoodResponse	1	n/a	n/a	2	58	Fixation	Win	True
555.021	0.5	Win2	0.5254	0.004	Yes	2.725	-0.004	2.0	GoodResponse	1	0.347	554.368	2	58	Target	Win	True
555.368	0.3	Win2	0.5254	0.004	Yes	2.725	-0.004	2.0	GoodResponse	1	0.347	n/a	2	58	ButtonPress	Win	True
555.522	0.2	Win2	0.5254	n/a	Yes	2.725	n/a	n/a	GoodResponse	1	n/a	n/a	2	58	Blank	Win	True
555.723	1.45	Win2	0.5254	n/a	Yes	2.725	n/a	5.0	GoodResponse	1	0.004	554.727	2	58	Feedback	Win	True
557.177	2.725	Win2	0.5254	n/a	Yes	2.725	n/a	n/a	GoodResponse	1	0.0	n/a	2	58	ISIslide	Win	True
559.919	0.25	Lose2	0.5333	0.0	Yes	2.681	0.019	n/a	GoodResponse	0	n/a	n/a	2	59	Cue	AvoidedLoss	True
560.17	4.0	Lose2	0.5333	0.0	Yes	2.681	0.001	n/a	GoodResponse	0	n/a	n/a	2	59	Fixation	AvoidedLoss	True
564.165	0.5	Lose2	0.5333	0.004	Yes	2.681	-0.004	2.0	GoodResponse	0	0.36	563.525	2	59	Target	AvoidedLoss	True
564.525	0.3	Lose2	0.5333	0.004	Yes	2.681	-0.004	2.0	GoodResponse	0	0.36	n/a	2	59	ButtonPress	AvoidedLoss	True
564.666	0.2	Lose2	0.5333	n/a	Yes	2.681	n/a	n/a	GoodResponse	0	n/a	n/a	2	59	Blank	AvoidedLoss	True
564.867	1.45	Lose2	0.5333	n/a	Yes	2.681	n/a	5.0	GoodResponse	0	0.03	563.897	2	59	Feedback	AvoidedLoss	True
566.321	2.681	Lose2	0.5333	n/a	Yes	2.681	n/a	n/a	GoodResponse	0	0.0	n/a	2	59	ISIslide	AvoidedLoss	True
569.029	0.25	Control	0.541	0.0	Yes	2.671	0.029	n/a	GoodResponse	0	n/a	n/a	2	60	Cue	Neutral	True
569.28	4.0	Control	0.541	0.0	Yes	2.671	0.001	n/a	GoodResponse	0	n/a	n/a	2	60	Fixation	Neutral	True
573.275	0.5	Control	0.541	0.004	Yes	2.671	-0.004	2.0	GoodResponse	0	0.351	572.626	2	60	Target	Neutral	True
573.626	0.3	Control	0.541	0.004	Yes	2.671	-0.004	2.0	GoodResponse	0	0.351	n/a	2	60	ButtonPress	Neutral	True
573.777	0.2	Control	0.541	n/a	Yes	2.671	n/a	n/a	GoodResponse	0	n/a	n/a	2	60	Blank	Neutral	True
573.978	1.45	Control	0.541	n/a	Yes	2.671	n/a	5.0	GoodResponse	0	0.041	573.019	2	60	Feedback	Neutral	True
575.432	2.671	Control	0.541	n/a	Yes	2.671	n/a	n/a	GoodResponse	0	0.0	n/a	2	60	ISIslide	Neutral	True
578.123	0.25	Lose2	0.5484	0.0	Yes	2.977	0.023	n/a	GoodResponse	0	n/a	n/a	2	61	Cue	AvoidedLoss	True
578.374	4.0	Lose2	0.5484	0.0	Yes	2.977	0.001	n/a	GoodResponse	0	n/a	n/a	2	61	Fixation	AvoidedLoss	True
582.369	0.5	Lose2	0.5484	0.004	Yes	2.977	-0.004	2.0	GoodResponse	0	0.228	581.597	2	61	Target	AvoidedLoss	True
582.597	0.3	Lose2	0.5484	0.004	Yes	2.977	-0.004	2.0	GoodResponse	0	0.228	n/a	2	61	ButtonPress	AvoidedLoss	True
582.871	0.2	Lose2	0.5484	n/a	Yes	2.977	n/a	n/a	GoodResponse	0	n/a	n/a	2	61	Blank	AvoidedLoss	True
583.071	1.45	Lose2	0.5484	n/a	Yes	2.977	n/a	5.0	GoodResponse	0	0.021	582.092	2	61	Feedback	AvoidedLoss	True
584.526	2.977	Lose2	0.5484	n/a	Yes	2.977	n/a	n/a	GoodResponse	0	0.0	n/a	2	61	ISIslide	AvoidedLoss	True
587.518	0.25	Lose2	0.5556	0.0	Yes	2.882	0.018	n/a	GoodResponse	0	n/a	n/a	2	62	Cue	AvoidedLoss	True
587.769	3.9	Lose2	0.5556	0.0	Yes	2.882	0.001	n/a	GoodResponse	0	n/a	n/a	2	62	Fixation	AvoidedLoss	True
591.664	0.5	Lose2	0.5556	0.004	Yes	2.882	-0.004	2.0	GoodResponse	0	0.474	591.138	2	62	Target	AvoidedLoss	True
592.138	0.3	Lose2	0.5556	0.004	Yes	2.882	-0.004	2.0	GoodResponse	0	0.474	n/a	2	62	ButtonPress	AvoidedLoss	True
592.165	0.2	Lose2	0.5556	n/a	Yes	2.882	n/a	n/a	GoodResponse	0	n/a	n/a	2	62	Blank	AvoidedLoss	True
592.366	1.45	Lose2	0.5556	n/a	Yes	2.882	n/a	5.0	GoodResponse	0	0.044	591.41	2	62	Feedback	AvoidedLoss	True
593.82	2.882	Lose2	0.5556	n/a	Yes	2.882	n/a	n/a	GoodResponse	0	0.0	n/a	2	62	ISIslide	AvoidedLoss	True
596.729	0.25	Lose2	0.5625	0.0	Yes	2.621	0.029	n/a	GoodResponse	0	n/a	n/a	2	63	Cue	AvoidedLoss	True
596.98	4.05	Lose2	0.5625	0.0	Yes	2.621	0.001	n/a	GoodResponse	0	n/a	n/a	2	63	Fixation	AvoidedLoss	True
601.025	0.5	Lose2	0.5625	0.004	Yes	2.621	-0.004	2.0	GoodResponse	0	0.262	600.287	2	63	Target	AvoidedLoss	True
601.287	0.3	Lose2	0.5625	0.004	Yes	2.621	-0.004	2.0	GoodResponse	0	0.262	n/a	2	63	ButtonPress	AvoidedLoss	True
601.527	0.2	Lose2	0.5625	n/a	Yes	2.621	n/a	n/a	GoodResponse	0	n/a	n/a	2	63	Blank	AvoidedLoss	True
601.727	1.45	Lose2	0.5625	n/a	Yes	2.621	n/a	5.0	GoodResponse	0	0.048	600.775	2	63	Feedback	AvoidedLoss	True
603.182	2.621	Lose2	0.5625	n/a	Yes	2.621	n/a	n/a	GoodResponse	0	0.0	n/a	2	63	ISIslide	AvoidedLoss	True
605.823	0.25	Win2	0.5692	0.0	Yes	3.127	0.023	n/a	GoodResponse	1	n/a	n/a	3	64	Cue	Win	True
606.074	4.15	Win2	0.5692	0.0	Yes	3.127	0.001	n/a	GoodResponse	1	n/a	n/a	3	64	Fixation	Win	True
610.219	0.5	Win2	0.5692	0.004	Yes	3.127	-0.004	2.0	GoodResponse	1	0.482	609.701	3	64	Target	Win	True
610.701	0.3	Win2	0.5692	0.004	Yes	3.127	-0.004	2.0	GoodResponse	1	0.482	n/a	3	64	ButtonPress	Win	True
610.721	0.2	Win2	0.5692	n/a	Yes	3.127	n/a	n/a	GoodResponse	1	n/a	n/a	3	64	Blank	Win	True
610.921	1.45	Win2	0.5692	n/a	Yes	3.127	n/a	5.0	GoodResponse	1	0.024	609.945	3	64	Feedback	Win	True
612.376	3.127	Win2	0.5692	n/a	Yes	3.127	n/a	n/a	GoodResponse	1	0.0	n/a	3	64	ISIslide	Win	True
615.519	0.25	Control	0.5758	0.0	Yes	2.781	0.019	n/a	GoodResponse	0	n/a	n/a	3	65	Cue	Neutral	True
615.769	4.0	Control	0.5758	0.0	Yes	2.781	0.0	n/a	GoodResponse	0	n/a	n/a	3	65	Fixation	Neutral	True
619.765	0.5	Control	0.5758	0.004	Yes	2.781	-0.004	2.0	GoodResponse	0	0.325	619.09	3	65	Target	Neutral	True
620.09	0.3	Control	0.5758	0.004	Yes	2.781	-0.004	2.0	GoodResponse	0	0.325	n/a	3	65	ButtonPress	Neutral	True
620.266	0.2	Control	0.5758	n/a	Yes	2.781	n/a	n/a	GoodResponse	0	n/a	n/a	3	65	Blank	Neutral	True
620.467	1.45	Control	0.5758	n/a	Yes	2.781	n/a	5.0	GoodResponse	0	0.039	619.506	3	65	Feedback	Neutral	True
621.921	2.781	Control	0.5758	n/a	Yes	2.781	n/a	n/a	GoodResponse	0	0.0	n/a	3	65	ISIslide	Neutral	True
624.729	0.25	Win2	0.5821000000000001	0.001	Yes	2.771	0.029	n/a	GoodResponse	1	n/a	n/a	4	66	Cue	Win	True
624.98	3.9	Win2	0.5821000000000001	0.0	Yes	2.771	0.001	n/a	GoodResponse	1	n/a	n/a	4	66	Fixation	Win	True
628.875	0.5	Win2	0.5821000000000001	0.004	Yes	2.771	-0.004	2.0	GoodResponse	1	0.244	628.119	4	66	Target	Win	True
629.119	0.3	Win2	0.5821000000000001	0.004	Yes	2.771	-0.004	2.0	GoodResponse	1	0.244	n/a	4	66	ButtonPress	Win	True
629.377	0.2	Win2	0.5821000000000001	n/a	Yes	2.771	n/a	n/a	GoodResponse	1	n/a	n/a	4	66	Blank	Win	True
629.577	1.45	Win2	0.5821000000000001	n/a	Yes	2.771	n/a	5.0	GoodResponse	1	0.005	628.582	4	66	Feedback	Win	True
631.032	2.771	Win2	0.5821000000000001	n/a	Yes	2.771	n/a	n/a	GoodResponse	1	0.0	n/a	4	66	ISIslide	Win	True
633.823	0.25	Control	0.5882000000000001	0.0	Yes	2.727	0.023	n/a	GoodResponse	0	n/a	n/a	4	67	Cue	Neutral	True
634.074	3.95	Control	0.5882000000000001	0.0	Yes	2.727	0.001	n/a	GoodResponse	0	n/a	n/a	4	67	Fixation	Neutral	True
638.019	0.5	Control	0.5882000000000001	0.004	Yes	2.727	-0.004	2.0	GoodResponse	0	0.394	637.413	4	67	Target	Neutral	True
638.413	0.3	Control	0.5882000000000001	0.004	Yes	2.727	-0.004	2.0	GoodResponse	0	0.394	n/a	4	67	ButtonPress	Neutral	True
638.521	0.2	Control	0.5882000000000001	n/a	Yes	2.727	n/a	n/a	GoodResponse	0	n/a	n/a	4	67	Blank	Neutral	True
638.721	1.45	Control	0.5882000000000001	n/a	Yes	2.727	n/a	5.0	GoodResponse	0	0.03	637.751	4	67	Feedback	Neutral	True
640.176	2.727	Control	0.5882000000000001	n/a	Yes	2.727	n/a	n/a	GoodResponse	0	0.0	n/a	4	67	ISIslide	Neutral	True
642.917	0.25	Win2	0.5797	0.0	No	3.083	0.017	n/a	NoResponse	0	n/a	n/a	4	68	Cue	MissedWin	True
643.168	4.0	Win2	0.5797	0.0	No	3.083	0.001	n/a	NoResponse	0	n/a	n/a	4	68	Fixation	MissedWin	True
647.163	0.5	Win2	0.5797	0.004	No	3.083	-0.004	2.0	NoResponse	0	0.568	646.731	4	68	Target	MissedWin	True
647.665	0.2	Win2	0.5797	n/a	No	3.083	n/a	n/a	NoResponse	0	n/a	n/a	4	68	Blank	MissedWin	True
647.731	0.3	Win2	0.5797	0.004	No	3.083	-0.004	2.0	NoResponse	0	0.568	n/a	4	68	ButtonPress	MissedWin	True
647.865	1.45	Win2	0.5797	n/a	No	3.083	n/a	5.0	NoResponse	0	0.008	646.873	4	68	Feedback	MissedWin	True
649.32	3.083	Win2	0.5797	n/a	No	3.083	n/a	n/a	NoResponse	0	0.0	n/a	4	68	ISIslide	MissedWin	True
652.429	0.25	Win2	0.5857	0.0	Yes	3.221	0.029	n/a	GoodResponse	1	n/a	n/a	5	69	Cue	Win	True
652.68	3.95	Win2	0.5857	0.0	Yes	3.221	0.001	n/a	GoodResponse	1	n/a	n/a	5	69	Fixation	Win	True
656.625	0.5	Win2	0.5857	0.004	Yes	3.221	-0.004	2.0	GoodResponse	1	0.435	656.06	5	69	Target	Win	True
657.06	0.3	Win2	0.5857	0.004	Yes	3.221	-0.004	2.0	GoodResponse	1	0.435	n/a	5	69	ButtonPress	Win	True
657.126	0.2	Win2	0.5857	n/a	Yes	3.221	n/a	n/a	GoodResponse	1	n/a	n/a	5	69	Blank	Win	True
657.327	1.45	Win2	0.5857	n/a	Yes	3.221	n/a	5.0	GoodResponse	1	0.008	656.335	5	69	Feedback	Win	True
658.781	3.221	Win2	0.5857	n/a	Yes	3.221	n/a	n/a	GoodResponse	1	0.0	n/a	5	69	ISIslide	Win	True
662.024	0.25	Lose2	0.5915	0.001	Yes	3.026	0.024	n/a	GoodResponse	0	n/a	n/a	5	70	Cue	AvoidedLoss	True
662.275	4.05	Lose2	0.5915	0.0	Yes	3.026	0.001	n/a	GoodResponse	0	n/a	n/a	5	70	Fixation	AvoidedLoss	True
666.321	0.5	Lose2	0.5915	0.003	Yes	3.026	-0.003	2.0	GoodResponse	0	0.258	665.579	5	70	Target	AvoidedLoss	True
666.579	0.3	Lose2	0.5915	0.003	Yes	3.026	-0.003	2.0	GoodResponse	0	0.258	n/a	5	70	ButtonPress	AvoidedLoss	True
666.822	0.2	Lose2	0.5915	n/a	Yes	3.026	n/a	n/a	GoodResponse	0	n/a	n/a	5	70	Blank	AvoidedLoss	True
667.023	1.45	Lose2	0.5915	n/a	Yes	3.026	n/a	5.0	GoodResponse	0	0.02	666.043	5	70	Feedback	AvoidedLoss	True
668.477	3.026	Lose2	0.5915	n/a	Yes	3.026	n/a	n/a	GoodResponse	0	0.0	n/a	5	70	ISIslide	AvoidedLoss	True
671.519	0.25	Win2	0.5832999999999999	0.001	No	2.731	0.019	n/a	NoResponse	0	n/a	n/a	5	71	Cue	MissedWin	False
671.77	4.05	Win2	0.5832999999999999	0.0	No	2.731	0.001	n/a	NoResponse	0	n/a	n/a	5	71	Fixation	MissedWin	False
675.816	0.5	Win2	0.5832999999999999	0.003	No	2.731	-0.003	n/a	NoResponse	0	n/a	n/a	5	71	Target	MissedWin	False
676.317	0.2	Win2	0.5832999999999999	n/a	No	2.731	n/a	n/a	NoResponse	0	n/a	n/a	5	71	Blank	MissedWin	False
676.518	1.45	Win2	0.5832999999999999	n/a	No	2.731	n/a	5.0	NoResponse	0	0.037	675.555	5	71	Feedback	MissedWin	False
677.972	2.731	Win2	0.5832999999999999	n/a	No	2.731	n/a	n/a	NoResponse	0	0.0	n/a	5	71	ISIslide	MissedWin	False
680.714	0.25	Win2	0.589	0.0	Yes	2.786	0.014	n/a	GoodResponse	1	n/a	n/a	6	72	Cue	Win	True
680.964	4.1	Win2	0.589	0.001	Yes	2.786	0.0	n/a	GoodResponse	1	n/a	n/a	6	72	Fixation	Win	True
685.06	0.5	Win2	0.589	0.004	Yes	2.786	-0.004	2.0	GoodResponse	1	0.443	684.503	6	72	Target	Win	True
685.503	0.3	Win2	0.589	0.004	Yes	2.786	-0.004	2.0	GoodResponse	1	0.443	n/a	6	72	ButtonPress	Win	True
685.562	0.2	Win2	0.589	n/a	Yes	2.786	n/a	n/a	GoodResponse	1	n/a	n/a	6	72	Blank	Win	True
685.762	1.45	Win2	0.589	n/a	Yes	2.786	n/a	5.0	GoodResponse	1	0.013	684.775	6	72	Feedback	Win	True
687.216	2.786	Win2	0.589	n/a	Yes	2.786	n/a	n/a	GoodResponse	1	0.0	n/a	6	72	ISIslide	Win	True
690.025	0.25	Win2	0.5811	0.0	No	2.675	0.025	n/a	NoResponse	0	n/a	n/a	6	73	Cue	MissedWin	False
690.276	4.0	Win2	0.5811	0.0	No	2.675	0.001	n/a	NoResponse	0	n/a	n/a	6	73	Fixation	MissedWin	False
694.271	0.5	Win2	0.5811	0.004	No	2.675	-0.004	n/a	NoResponse	0	n/a	n/a	6	73	Target	MissedWin	False
694.772	0.2	Win2	0.5811	n/a	No	2.675	n/a	n/a	NoResponse	0	n/a	n/a	6	73	Blank	MissedWin	False
694.973	1.45	Win2	0.5811	n/a	No	2.675	n/a	5.0	NoResponse	0	0.021	693.994	6	73	Feedback	MissedWin	False
696.427	2.675	Win2	0.5811	n/a	No	2.675	n/a	2.0	NoResponse	0	1.385	n/a	6	73	ISIslide	MissedWin	False
699.102	0.25	Lose2	0.5867	0.0	Yes	2.648	0.002	n/a	GoodResponse	0	n/a	n/a	6	74	Cue	AvoidedLoss	True
699.353	4.05	Lose2	0.5867	0.0	Yes	2.648	0.001	n/a	GoodResponse	0	n/a	n/a	6	74	Fixation	AvoidedLoss	True
703.398	0.5	Lose2	0.5867	0.004	Yes	2.648	-0.004	2.0	GoodResponse	0	0.251	702.649	6	74	Target	AvoidedLoss	True
703.649	0.3	Lose2	0.5867	0.004	Yes	2.648	-0.004	2.0	GoodResponse	0	0.251	n/a	6	74	ButtonPress	AvoidedLoss	True
703.9	0.2	Lose2	0.5867	n/a	Yes	2.648	n/a	n/a	GoodResponse	0	n/a	n/a	6	74	Blank	AvoidedLoss	True
704.1	1.45	Lose2	0.5867	n/a	Yes	2.648	n/a	5.0	GoodResponse	0	0.015	703.115	6	74	Feedback	AvoidedLoss	True
705.555	2.648	Lose2	0.5867	n/a	Yes	2.648	n/a	n/a	GoodResponse	0	0.0	n/a	6	74	ISIslide	AvoidedLoss	True
708.229	0.25	Lose2	0.5921	0.0	Yes	2.921	0.029	n/a	GoodResponse	0	n/a	n/a	6	75	Cue	AvoidedLoss	True
708.48	3.95	Lose2	0.5921	0.0	Yes	2.921	0.001	n/a	GoodResponse	0	n/a	n/a	6	75	Fixation	AvoidedLoss	True
712.425	0.5	Lose2	0.5921	0.004	Yes	2.921	-0.004	2.0	GoodResponse	0	0.318	711.743	6	75	Target	AvoidedLoss	True
712.743	0.3	Lose2	0.5921	0.004	Yes	2.921	-0.004	2.0	GoodResponse	0	0.318	n/a	6	75	ButtonPress	AvoidedLoss	True
712.927	0.2	Lose2	0.5921	n/a	Yes	2.921	n/a	n/a	GoodResponse	0	n/a	n/a	6	75	Blank	AvoidedLoss	True
713.127	1.45	Lose2	0.5921	n/a	Yes	2.921	n/a	5.0	GoodResponse	0	0.013	712.14	6	75	Feedback	AvoidedLoss	True
714.582	2.921	Lose2	0.5921	n/a	Yes	2.921	n/a	n/a	GoodResponse	0	0.0	n/a	6	75	ISIslide	AvoidedLoss	True
717.524	0.25	Control	0.5974	0.0	Yes	3.226	0.024	n/a	GoodResponse	0	n/a	n/a	6	76	Cue	Neutral	True
717.775	4.05	Control	0.5974	0.0	Yes	3.226	0.001	n/a	GoodResponse	0	n/a	n/a	6	76	Fixation	Neutral	True
721.82	0.5	Control	0.5974	0.004	Yes	3.226	-0.004	2.0	GoodResponse	0	0.288	721.108	6	76	Target	Neutral	True
722.108	0.3	Control	0.5974	0.004	Yes	3.226	-0.004	2.0	GoodResponse	0	0.288	n/a	6	76	ButtonPress	Neutral	True
722.322	0.2	Control	0.5974	n/a	Yes	3.226	n/a	n/a	GoodResponse	0	n/a	n/a	6	76	Blank	Neutral	True
722.522	1.45	Control	0.5974	n/a	Yes	3.226	n/a	5.0	GoodResponse	0	0.032	721.554	6	76	Feedback	Neutral	True
723.977	3.226	Control	0.5974	n/a	Yes	3.226	n/a	n/a	GoodResponse	0	0.0	n/a	6	76	ISIslide	Neutral	True
727.22	0.25	Lose2	0.6026	0.0	Yes	2.58	0.02	n/a	GoodResponse	0	n/a	n/a	6	77	Cue	AvoidedLoss	True
727.47	3.95	Lose2	0.6026	0.0	Yes	2.58	0.0	n/a	GoodResponse	0	n/a	n/a	6	77	Fixation	AvoidedLoss	True
731.432	0.5	Lose2	0.6026	0.0	Yes	2.58	0.012	2.0	GoodResponse	0	0.276	730.708	6	77	Target	AvoidedLoss	True
731.708	0.3	Lose2	0.6026	0.0	Yes	2.58	0.012	2.0	GoodResponse	0	0.276	n/a	6	77	ButtonPress	AvoidedLoss	True
731.917	0.2	Lose2	0.6026	n/a	Yes	2.58	n/a	n/a	GoodResponse	0	n/a	n/a	6	77	Blank	AvoidedLoss	True
732.118	1.45	Lose2	0.6026	n/a	Yes	2.58	n/a	5.0	GoodResponse	0	0.046	731.164	6	77	Feedback	AvoidedLoss	True
733.572	2.58	Lose2	0.6026	n/a	Yes	2.58	n/a	n/a	GoodResponse	0	0.0	n/a	6	77	ISIslide	AvoidedLoss	True
