onset	duration	cue_type	current_mean_accuracy	duration_error	is_hit	isi_adjusted	onset_delay	response	response_type	reward	rt	rt_time	total_reward	trial_number	trial_phase	trial_type	one_press
11.105	0.25	Control	1.0	0.0	Yes	2.945	0.005	n/a	GoodResponse	0	n/a	n/a	0	0	Cue	Neutral	True
11.355	3.85	Control	1.0	0.001	Yes	2.945	0.0	n/a	GoodResponse	0	n/a	n/a	0	0	Fixation	Neutral	True
15.217	0.4	Control	1.0	0.0	Yes	2.945	0.012	4.0	GoodResponse	0	0.225	14.442	0	0	Target	Neutral	True
15.442	0.3	Control	1.0	0.0	Yes	2.945	0.012	4.0	GoodResponse	0	0.225	n/a	0	0	ButtonPress	Neutral	True
15.602	0.3	Control	1.0	n/a	Yes	2.945	n/a	n/a	GoodResponse	0	n/a	n/a	0	0	Blank	Neutral	True
15.902	1.45	Control	1.0	n/a	Yes	2.945	n/a	5.0	GoodResponse	0	0.024	14.926	0	0	Feedback	Neutral	True
17.357	2.945	Control	1.0	n/a	Yes	2.945	n/a	n/a	GoodResponse	0	0.0	n/a	0	0	ISIslide	Neutral	True
20.316	0.25	Lose2	1.0	0.0	Yes	2.784	0.016	n/a	GoodResponse	0	n/a	n/a	0	1	Cue	AvoidedLoss	True
20.566	4.0	Lose2	1.0	0.0	Yes	2.784	0.0	n/a	GoodResponse	0	n/a	n/a	0	1	Fixation	AvoidedLoss	True
24.562	0.39	Lose2	1.0	0.004	Yes	2.784	-0.004	4.0	GoodResponse	0	0.173	23.735	0	1	Target	AvoidedLoss	True
24.735	0.3	Lose2	1.0	0.004	Yes	2.784	-0.004	4.0	GoodResponse	0	0.173	n/a	0	1	ButtonPress	AvoidedLoss	True
24.963	0.31	Lose2	1.0	n/a	Yes	2.784	n/a	n/a	GoodResponse	0	n/a	n/a	0	1	Blank	AvoidedLoss	True
25.264	1.45	Lose2	1.0	n/a	Yes	2.784	n/a	5.0	GoodResponse	0	0.027	24.291	0	1	Feedback	AvoidedLoss	True
26.718	2.784	Lose2	1.0	n/a	Yes	2.784	n/a	n/a	GoodResponse	0	0.0	n/a	0	1	ISIslide	AvoidedLoss	True
29.527	0.25	Control	1.0	0.0	Yes	2.573	0.027	n/a	GoodResponse	0	n/a	n/a	0	2	Cue	Neutral	True
29.777	4.1	Control	1.0	0.0	Yes	2.573	0.0	n/a	GoodResponse	0	n/a	n/a	0	2	Fixation	Neutral	True
33.873	0.38	Control	1.0	0.004	Yes	2.573	-0.004	4.0	GoodResponse	0	0.164	33.037	0	2	Target	Neutral	True
34.037	0.3	Control	1.0	0.004	Yes	2.573	-0.004	4.0	GoodResponse	0	0.164	n/a	0	2	ButtonPress	Neutral	True
34.257	0.32	Control	1.0	n/a	Yes	2.573	n/a	n/a	GoodResponse	0	n/a	n/a	0	2	Blank	Neutral	True
34.575	1.45	Control	1.0	n/a	Yes	2.573	n/a	5.0	GoodResponse	0	0.033	33.608	0	2	Feedback	Neutral	True
36.029	2.573	Control	1.0	n/a	Yes	2.573	n/a	n/a	GoodResponse	0	0.0	n/a	0	2	ISIslide	Neutral	True
38.62	0.25	Win2	1.0	0.0	Yes	2.83	0.02	n/a	GoodResponse	1	n/a	n/a	1	3	Cue	Win	True
38.871	3.95	Win2	1.0	0.0	Yes	2.83	0.001	n/a	GoodResponse	1	n/a	n/a	1	3	Fixation	Win	True
42.816	0.37	Win2	1.0	0.004	Yes	2.83	-0.004	4.0	GoodResponse	1	0.199	42.015	1	3	Target	Win	True
43.015	0.3	Win2	1.0	0.004	Yes	2.83	-0.004	4.0	GoodResponse	1	0.199	n/a	1	3	ButtonPress	Win	True
43.201	0.33	Win2	1.0	n/a	Yes	2.83	n/a	n/a	GoodResponse	1	n/a	n/a	1	3	Blank	Win	True
43.518	1.45	Win2	1.0	n/a	Yes	2.83	n/a	5.0	GoodResponse	1	0.017	42.535	1	3	Feedback	Win	True
44.973	2.83	Win2	1.0	n/a	Yes	2.83	n/a	n/a	GoodResponse	1	0.0	n/a	1	3	ISIslide	Win	True
47.815	0.25	Win2	0.8	0.0	No	3.285	0.015	n/a	PrematurePress	0	n/a	n/a	1	4	Cue	MissedWin	True
48.065	4.0	Win2	0.8	0.0	No	3.285	0.0	n/a	PrematurePress	0	n/a	n/a	1	4	Fixation	MissedWin	True
52.061	0.36	Win2	0.8	0.004	No	3.285	-0.004	4.0	PrematurePress	0	0.083	51.144	1	4	Target	MissedWin	True
52.144	0.3	Win2	0.8	0.004	No	3.285	-0.004	4.0	PrematurePress	0	0.083	n/a	1	4	ButtonPress	MissedWin	True
52.428	0.34	Win2	0.8	n/a	No	3.285	n/a	n/a	PrematurePress	0	n/a	n/a	1	4	Blank	MissedWin	True
52.763	1.45	Win2	0.8	n/a	No	3.285	n/a	5.0	PrematurePress	0	0.041	51.804	1	4	Feedback	MissedWin	True
54.217	3.285	Win2	0.8	n/a	No	3.285	n/a	n/a	PrematurePress	0	0.0	n/a	1	4	ISIslide	MissedWin	True
57.527	0.25	Win2	0.8332999999999999	0.0	Yes	2.773	0.027	n/a	GoodResponse	1	n/a	n/a	2	5	Cue	Win	True
57.778	4.0	Win2	0.8332999999999999	0.0	Yes	2.773	0.001	n/a	GoodResponse	1	n/a	n/a	2	5	Fixation	Win	True
61.773	0.35	Win2	0.8332999999999999	0.004	Yes	2.773	-0.004	4.0	GoodResponse	1	0.282	61.055	2	5	Target	Win	True
62.055	0.3	Win2	0.8332999999999999	0.004	Yes	2.773	-0.004	4.0	GoodResponse	1	0.282	n/a	2	5	ButtonPress	Win	True
62.124	0.35	Win2	0.8332999999999999	n/a	Yes	2.773	n/a	n/a	GoodResponse	1	n/a	n/a	2	5	Blank	Win	True
62.475	1.45	Win2	0.8332999999999999	n/a	Yes	2.773	n/a	5.0	GoodResponse	1	0.036	61.511	2	5	Feedback	Win	True
63.929	2.773	Win2	0.8332999999999999	n/a	Yes	2.773	n/a	n/a	GoodResponse	1	0.0	n/a	2	5	ISIslide	Win	True
66.721	0.25	Lose2	0.8571	0.0	Yes	2.729	0.021	n/a	GoodResponse	0	n/a	n/a	2	6	Cue	AvoidedLoss	True
66.972	3.95	Lose2	0.8571	0.0	Yes	2.729	0.001	n/a	GoodResponse	0	n/a	n/a	2	6	Fixation	AvoidedLoss	True
70.917	0.34	Lose2	0.8571	0.004	Yes	2.729	-0.004	4.0	GoodResponse	0	0.176	70.093	2	6	Target	AvoidedLoss	True
71.093	0.3	Lose2	0.8571	0.004	Yes	2.729	-0.004	4.0	GoodResponse	0	0.176	n/a	2	6	ButtonPress	AvoidedLoss	True
71.268	0.36	Lose2	0.8571	n/a	Yes	2.729	n/a	n/a	GoodResponse	0	n/a	n/a	2	6	Blank	AvoidedLoss	True
71.619	1.45	Lose2	0.8571	n/a	Yes	2.729	n/a	5.0	GoodResponse	0	0.014	70.633	2	6	Feedback	AvoidedLoss	True
73.074	2.729	Lose2	0.8571	n/a	Yes	2.729	n/a	n/a	GoodResponse	0	0.0	n/a	2	6	ISIslide	AvoidedLoss	True
75.815	0.25	Lose2	0.875	0.0	Yes	4.035	0.015	n/a	GoodResponse	0	n/a	n/a	2	7	Cue	AvoidedLoss	True
76.066	4.05	Lose2	0.875	0.0	Yes	4.035	0.001	n/a	GoodResponse	0	n/a	n/a	2	7	Fixation	AvoidedLoss	True
80.111	0.33	Lose2	0.875	0.004	Yes	4.035	-0.004	4.0	GoodResponse	0	0.179	79.29	2	7	Target	AvoidedLoss	True
80.29	0.3	Lose2	0.875	0.004	Yes	4.035	-0.004	4.0	GoodResponse	0	0.179	n/a	2	7	ButtonPress	AvoidedLoss	True
80.446	0.37	Lose2	0.875	n/a	Yes	4.035	n/a	n/a	GoodResponse	0	n/a	n/a	2	7	Blank	AvoidedLoss	True
80.813	1.45	Lose2	0.875	n/a	Yes	4.035	n/a	5.0	GoodResponse	0	0.039	79.852	2	7	Feedback	AvoidedLoss	True
82.268	4.035	Lose2	0.875	n/a	Yes	4.035	n/a	n/a	GoodResponse	0	0.0	n/a	2	7	ISIslide	AvoidedLoss	True
86.33	0.25	Lose2	0.8889	0.0	Yes	3.02	0.03	n/a	GoodResponse	0	n/a	n/a	2	8	Cue	AvoidedLoss	True
86.581	3.95	Lose2	0.8889	0.0	Yes	3.02	0.001	n/a	GoodResponse	0	n/a	n/a	2	8	Fixation	AvoidedLoss	True
90.526	0.32	Lose2	0.8889	0.004	Yes	3.02	-0.004	4.0	GoodResponse	0	0.174	89.7	2	8	Target	AvoidedLoss	True
90.7	0.3	Lose2	0.8889	0.004	Yes	3.02	-0.004	4.0	GoodResponse	0	0.174	n/a	2	8	ButtonPress	AvoidedLoss	True
90.86	0.38	Lose2	0.8889	n/a	Yes	3.02	n/a	n/a	GoodResponse	0	n/a	n/a	2	8	Blank	AvoidedLoss	True
91.228	1.45	Lose2	0.8889	n/a	Yes	3.02	n/a	5.0	GoodResponse	0	0.014	90.242	2	8	Feedback	AvoidedLoss	True
92.682	3.02	Lose2	0.8889	n/a	Yes	3.02	n/a	n/a	GoodResponse	0	0.0	n/a	2	8	ISIslide	AvoidedLoss	True
95.725	0.25	Lose2	0.9	0.0	Yes	3.125	0.025	n/a	GoodResponse	0	n/a	n/a	2	9	Cue	AvoidedLoss	False
95.975	3.95	Lose2	0.9	0.001	Yes	3.125	0.0	4.0	GoodResponse	0	3.401	98.376	2	9	Fixation	AvoidedLoss	False
99.376	0.3	Lose2	0.9	0.001	Yes	3.125	0.0	4.0	GoodResponse	0	3.401	n/a	2	9	ButtonPress	AvoidedLoss	False
99.921	0.31	Lose2	0.9	0.004	Yes	3.125	-0.004	4.0	GoodResponse	0	0.256	99.177	2	9	Target	AvoidedLoss	False
100.177	0.3	Lose2	0.9	0.004	Yes	3.125	-0.004	4.0	GoodResponse	0	0.256	n/a	2	9	ButtonPress	AvoidedLoss	False
100.238	0.39	Lose2	0.9	n/a	Yes	3.125	n/a	n/a	GoodResponse	0	n/a	n/a	2	9	Blank	AvoidedLoss	False
100.623	1.45	Lose2	0.9	n/a	Yes	3.125	n/a	5.0	GoodResponse	0	0.034	99.657	2	9	Feedback	AvoidedLoss	False
102.077	3.125	Lose2	0.9	n/a	Yes	3.125	n/a	n/a	GoodResponse	0	0.0	n/a	2	9	ISIslide	AvoidedLoss	False
105.22	0.25	Control	0.9091	0.0	Yes	3.28	0.02	n/a	GoodResponse	0	n/a	n/a	2	10	Cue	Neutral	True
105.47	4.0	Control	0.9091	0.001	Yes	3.28	0.0	n/a	GoodResponse	0	n/a	n/a	2	10	Fixation	Neutral	True
109.466	0.3	Control	0.9091	0.004	Yes	3.28	-0.004	4.0	GoodResponse	0	0.181	108.647	2	10	Target	Neutral	True
109.647	0.3	Control	0.9091	0.004	Yes	3.28	-0.004	4.0	GoodResponse	0	0.181	n/a	2	10	ButtonPress	Neutral	True
109.767	0.4	Control	0.9091	n/a	Yes	3.28	n/a	n/a	GoodResponse	0	n/a	n/a	2	10	Blank	Neutral	True
110.168	1.45	Control	0.9091	n/a	Yes	3.28	n/a	5.0	GoodResponse	0	0.001	109.169	2	10	Feedback	Neutral	True
111.622	3.28	Control	0.9091	n/a	Yes	3.28	n/a	n/a	GoodResponse	0	0.0	n/a	2	10	ISIslide	Neutral	True
114.915	0.25	Lose2	0.9167000000000001	0.001	Yes	2.735	0.015	n/a	GoodResponse	0	n/a	n/a	2	11	Cue	AvoidedLoss	True
115.166	4.05	Lose2	0.9167000000000001	0.0	Yes	2.735	0.001	n/a	GoodResponse	0	n/a	n/a	2	11	Fixation	AvoidedLoss	True
119.212	0.29	Lose2	0.9167000000000001	0.003	Yes	2.735	-0.003	4.0	GoodResponse	0	0.191	118.403	2	11	Target	AvoidedLoss	True
119.403	0.3	Lose2	0.9167000000000001	0.003	Yes	2.735	-0.003	4.0	GoodResponse	0	0.191	n/a	2	11	ButtonPress	AvoidedLoss	True
119.513	0.41	Lose2	0.9167000000000001	n/a	Yes	2.735	n/a	n/a	GoodResponse	0	n/a	n/a	2	11	Blank	AvoidedLoss	True
119.914	1.45	Lose2	0.9167000000000001	n/a	Yes	2.735	n/a	5.0	GoodResponse	0	0.01	118.924	2	11	Feedback	AvoidedLoss	True
121.368	2.735	Lose2	0.9167000000000001	n/a	Yes	2.735	n/a	n/a	GoodResponse	0	0.0	n/a	2	11	ISIslide	AvoidedLoss	True
124.126	0.25	Control	0.9231	0.0	Yes	2.974	0.026	n/a	GoodResponse	0	n/a	n/a	2	12	Cue	Neutral	False
124.377	3.9	Control	0.9231	0.0	Yes	2.974	0.001	4.0	GoodResponse	0	3.751	127.128	2	12	Fixation	Neutral	False
128.128	0.3	Control	0.9231	0.0	Yes	2.974	0.001	4.0	GoodResponse	0	3.751	n/a	2	12	ButtonPress	Neutral	False
128.272	0.28	Control	0.9231	0.004	Yes	2.974	-0.004	4.0	GoodResponse	0	0.18	127.452	2	12	Target	Neutral	False
128.452	0.3	Control	0.9231	0.004	Yes	2.974	-0.004	4.0	GoodResponse	0	0.18	n/a	2	12	ButtonPress	Neutral	False
128.556	0.42	Control	0.9231	n/a	Yes	2.974	n/a	n/a	GoodResponse	0	n/a	n/a	2	12	Blank	Neutral	False
128.974	1.45	Control	0.9231	n/a	Yes	2.974	n/a	5.0	GoodResponse	0	0.024	127.998	2	12	Feedback	Neutral	False
130.429	2.974	Control	0.9231	n/a	Yes	2.974	n/a	n/a	GoodResponse	0	0.0	n/a	2	12	ISIslide	Neutral	False
133.421	0.25	Control	0.9286	0.0	Yes	2.779	0.021	n/a	GoodResponse	0	n/a	n/a	2	13	Cue	Neutral	True
133.672	4.0	Control	0.9286	0.0	Yes	2.779	0.001	n/a	GoodResponse	0	n/a	n/a	2	13	Fixation	Neutral	True
137.667	0.27	Control	0.9286	0.004	Yes	2.779	-0.004	4.0	GoodResponse	0	0.213	136.88	2	13	Target	Neutral	True
137.88	0.3	Control	0.9286	0.004	Yes	2.779	-0.004	4.0	GoodResponse	0	0.213	n/a	2	13	ButtonPress	Neutral	True
137.951	0.43	Control	0.9286	n/a	Yes	2.779	n/a	n/a	GoodResponse	0	n/a	n/a	2	13	Blank	Neutral	True
138.369	1.45	Control	0.9286	n/a	Yes	2.779	n/a	5.0	GoodResponse	0	0.043	137.412	2	13	Feedback	Neutral	True
139.823	2.779	Control	0.9286	n/a	Yes	2.779	n/a	n/a	GoodResponse	0	0.0	n/a	2	13	ISIslide	Neutral	True
142.615	0.25	Win2	0.9333	0.0	Yes	2.685	0.015	n/a	GoodResponse	1	n/a	n/a	3	14	Cue	Win	True
142.866	4.1	Win2	0.9333	0.0	Yes	2.685	0.001	n/a	GoodResponse	1	n/a	n/a	3	14	Fixation	Win	True
146.961	0.26	Win2	0.9333	0.004	Yes	2.685	-0.004	4.0	GoodResponse	1	0.175	146.136	3	14	Target	Win	True
147.136	0.3	Win2	0.9333	0.004	Yes	2.685	-0.004	4.0	GoodResponse	1	0.175	n/a	3	14	ButtonPress	Win	True
147.229	0.44	Win2	0.9333	n/a	Yes	2.685	n/a	n/a	GoodResponse	1	n/a	n/a	3	14	Blank	Win	True
147.663	1.45	Win2	0.9333	n/a	Yes	2.685	n/a	5.0	GoodResponse	1	0.018	146.681	3	14	Feedback	Win	True
149.118	2.685	Win2	0.9333	n/a	Yes	2.685	n/a	n/a	GoodResponse	1	0.0	n/a	3	14	ISIslide	Win	True
151.826	0.25	Control	0.9375	0.0	Yes	2.974	0.026	n/a	GoodResponse	0	n/a	n/a	3	15	Cue	Neutral	True
152.077	4.0	Control	0.9375	0.0	Yes	2.974	0.001	n/a	GoodResponse	0	n/a	n/a	3	15	Fixation	Neutral	True
156.072	0.25	Control	0.9375	0.004	Yes	2.974	-0.004	4.0	GoodResponse	0	0.178	155.25	3	15	Target	Neutral	True
156.25	0.3	Control	0.9375	0.004	Yes	2.974	-0.004	4.0	GoodResponse	0	0.178	n/a	3	15	ButtonPress	Neutral	True
156.323	0.45	Control	0.9375	n/a	Yes	2.974	n/a	n/a	GoodResponse	0	n/a	n/a	3	15	Blank	Neutral	True
156.774	1.45	Control	0.9375	n/a	Yes	2.974	n/a	5.0	GoodResponse	0	0.029	155.803	3	15	Feedback	Neutral	True
158.228	2.974	Control	0.9375	n/a	Yes	2.974	n/a	n/a	GoodResponse	0	0.0	n/a	3	15	ISIslide	Neutral	True
161.221	0.25	Win2	0.9412	0.0	Yes	2.879	0.021	n/a	GoodResponse	1	n/a	n/a	4	16	Cue	Win	True
161.471	4.0	Win2	0.9412	0.001	Yes	2.879	0.0	n/a	GoodResponse	1	n/a	n/a	4	16	Fixation	Win	True
165.467	0.24	Win2	0.9412	0.004	Yes	2.879	-0.004	4.0	GoodResponse	1	0.174	164.641	4	16	Target	Win	True
165.641	0.3	Win2	0.9412	0.004	Yes	2.879	-0.004	4.0	GoodResponse	1	0.174	n/a	4	16	ButtonPress	Win	True
165.718	0.46	Win2	0.9412	n/a	Yes	2.879	n/a	n/a	GoodResponse	1	n/a	n/a	4	16	Blank	Win	True
166.169	1.45	Win2	0.9412	n/a	Yes	2.879	n/a	5.0	GoodResponse	1	0.049	165.218	4	16	Feedback	Win	True
167.623	2.879	Win2	0.9412	n/a	Yes	2.879	n/a	n/a	GoodResponse	1	0.0	n/a	4	16	ISIslide	Win	True
170.515	0.25	Lose2	0.9444	0.0	Yes	2.735	0.015	n/a	GoodResponse	0	n/a	n/a	4	17	Cue	AvoidedLoss	True
170.766	3.95	Lose2	0.9444	0.0	Yes	2.735	0.001	n/a	GoodResponse	0	n/a	n/a	4	17	Fixation	AvoidedLoss	True
174.711	0.23	Lose2	0.9444	0.004	Yes	2.735	-0.004	4.0	GoodResponse	0	0.214	173.925	4	17	Target	AvoidedLoss	True
174.925	0.3	Lose2	0.9444	0.004	Yes	2.735	-0.004	4.0	GoodResponse	0	0.214	n/a	4	17	ButtonPress	AvoidedLoss	True
174.945	0.47	Lose2	0.9444	n/a	Yes	2.735	n/a	n/a	GoodResponse	0	n/a	n/a	4	17	Blank	AvoidedLoss	True
175.413	1.45	Lose2	0.9444	n/a	Yes	2.735	n/a	5.0	GoodResponse	0	0.023	174.436	4	17	Feedback	AvoidedLoss	True
176.868	2.735	Lose2	0.9444	n/a	Yes	2.735	n/a	n/a	GoodResponse	0	0.0	n/a	4	17	ISIslide	AvoidedLoss	True
179.626	0.25	Lose2	0.9473999999999999	0.0	Yes	2.724	0.026	n/a	GoodResponse	0	n/a	n/a	4	18	Cue	AvoidedLoss	True
179.877	4.05	Lose2	0.9473999999999999	0.0	Yes	2.724	0.001	n/a	GoodResponse	0	n/a	n/a	4	18	Fixation	AvoidedLoss	True
183.922	0.22	Lose2	0.9473999999999999	0.004	Yes	2.724	-0.004	4.0	GoodResponse	0	0.172	183.094	4	18	Target	AvoidedLoss	True
184.094	0.3	Lose2	0.9473999999999999	0.004	Yes	2.724	-0.004	4.0	GoodResponse	0	0.172	n/a	4	18	ButtonPress	AvoidedLoss	True
184.156	0.48	Lose2	0.9473999999999999	n/a	Yes	2.724	n/a	n/a	GoodResponse	0	n/a	n/a	4	18	Blank	AvoidedLoss	True
184.624	1.45	Lose2	0.9473999999999999	n/a	Yes	2.724	n/a	5.0	GoodResponse	0	0.032	183.656	4	18	Feedback	AvoidedLoss	True
186.078	2.724	Lose2	0.9473999999999999	n/a	Yes	2.724	n/a	n/a	GoodResponse	0	0.0	n/a	4	18	ISIslide	AvoidedLoss	True
188.82	0.25	Control	0.95	0.0	Yes	2.93	0.02	n/a	GoodResponse	0	n/a	n/a	4	19	Cue	Neutral	True
189.071	3.95	Control	0.95	0.0	Yes	2.93	0.001	n/a	GoodResponse	0	n/a	n/a	4	19	Fixation	Neutral	True
193.016	0.21	Control	0.95	0.004	Yes	2.93	-0.004	4.0	GoodResponse	0	0.172	192.188	4	19	Target	Neutral	True
193.188	0.3	Control	0.95	0.004	Yes	2.93	-0.004	4.0	GoodResponse	0	0.172	n/a	4	19	ButtonPress	Neutral	True
193.233	0.49	Control	0.95	n/a	Yes	2.93	n/a	n/a	GoodResponse	0	n/a	n/a	4	19	Blank	Neutral	True
193.718	1.45	Control	0.95	n/a	Yes	2.93	n/a	5.0	GoodResponse	0	0.011	192.729	4	19	Feedback	Neutral	True
195.172	2.93	Control	0.95	n/a	Yes	2.93	n/a	n/a	GoodResponse	0	0.0	n/a	4	19	ISIslide	Neutral	True
198.114	0.25	Control	0.9523999999999999	0.001	Yes	2.636	0.014	n/a	GoodResponse	0	n/a	n/a	4	20	Cue	Neutral	True
198.365	4.05	Control	0.9523999999999999	0.0	Yes	2.636	0.001	n/a	GoodResponse	0	n/a	n/a	4	20	Fixation	Neutral	True
202.411	0.2	Control	0.9523999999999999	0.003	Yes	2.636	-0.003	4.0	GoodResponse	0	0.188	201.599	4	20	Target	Neutral	True
202.599	0.3	Control	0.9523999999999999	0.003	Yes	2.636	-0.003	4.0	GoodResponse	0	0.188	n/a	4	20	ButtonPress	Neutral	True
202.611	0.5	Control	0.9523999999999999	n/a	Yes	2.636	n/a	n/a	GoodResponse	0	n/a	n/a	4	20	Blank	Neutral	True
203.113	1.45	Control	0.9523999999999999	n/a	Yes	2.636	n/a	5.0	GoodResponse	0	0.031	202.144	4	20	Feedback	Neutral	True
204.567	2.636	Control	0.9523999999999999	n/a	Yes	2.636	n/a	n/a	GoodResponse	0	0.0	n/a	4	20	ISIslide	Neutral	True
207.225	0.25	Control	0.9545	0.0	Yes	2.775	0.025	n/a	GoodResponse	0	n/a	n/a	4	21	Cue	Neutral	True
207.476	4.1	Control	0.9545	0.0	Yes	2.775	0.001	n/a	GoodResponse	0	n/a	n/a	4	21	Fixation	Neutral	True
211.571	0.19	Control	0.9545	0.004	Yes	2.775	-0.004	4.0	GoodResponse	0	0.161	210.732	4	21	Target	Neutral	True
211.732	0.3	Control	0.9545	0.004	Yes	2.775	-0.004	4.0	GoodResponse	0	0.161	n/a	4	21	ButtonPress	Neutral	True
211.772	0.51	Control	0.9545	n/a	Yes	2.775	n/a	n/a	GoodResponse	0	n/a	n/a	4	21	Blank	Neutral	True
212.274	1.45	Control	0.9545	n/a	Yes	2.775	n/a	5.0	GoodResponse	0	0.041	211.315	4	21	Feedback	Neutral	True
213.728	2.775	Control	0.9545	n/a	Yes	2.775	n/a	n/a	GoodResponse	0	0.0	n/a	4	21	ISIslide	Neutral	True
216.52	0.25	Control	0.9129999999999999	0.0	No	2.78	0.02	n/a	NoResponse	0	n/a	n/a	4	22	Cue	Neutral	True
216.77	4.0	Control	0.9129999999999999	0.0	No	2.78	0.0	n/a	NoResponse	0	n/a	n/a	4	22	Fixation	Neutral	True
220.766	0.18	Control	0.9129999999999999	0.004	No	2.78	-0.004	4.0	NoResponse	0	0.336	220.102	4	22	Target	Neutral	True
220.95	0.52	Control	0.9129999999999999	n/a	No	2.78	n/a	n/a	NoResponse	0	n/a	n/a	4	22	Blank	Neutral	True
221.102	0.3	Control	0.9129999999999999	0.004	No	2.78	-0.004	4.0	NoResponse	0	0.336	n/a	4	22	ButtonPress	Neutral	True
221.468	1.45	Control	0.9129999999999999	n/a	No	2.78	n/a	5.0	NoResponse	0	0.017	220.485	4	22	Feedback	Neutral	True
222.922	2.78	Control	0.9129999999999999	n/a	No	2.78	n/a	n/a	NoResponse	0	0.0	n/a	4	22	ISIslide	Neutral	True
225.73	0.25	Control	0.875	0.001	No	2.77	0.03	n/a	NoResponse	0	n/a	n/a	4	23	Cue	Neutral	True
225.981	3.9	Control	0.875	0.0	No	2.77	0.001	n/a	NoResponse	0	n/a	n/a	4	23	Fixation	Neutral	True
229.876	0.17	Control	0.875	0.004	No	2.77	-0.004	4.0	NoResponse	0	0.196	229.072	4	23	Target	Neutral	True
230.06	0.53	Control	0.875	n/a	No	2.77	n/a	n/a	NoResponse	0	n/a	n/a	4	23	Blank	Neutral	True
230.072	0.3	Control	0.875	0.004	No	2.77	-0.004	4.0	NoResponse	0	0.196	n/a	4	23	ButtonPress	Neutral	True
230.578	1.45	Control	0.875	n/a	No	2.77	n/a	5.0	NoResponse	0	0.029	229.607	4	23	Feedback	Neutral	True
232.033	2.77	Control	0.875	n/a	No	2.77	n/a	n/a	NoResponse	0	0.0	n/a	4	23	ISIslide	Neutral	True
234.824	0.25	Win2	0.84	0.0	No	3.126	0.024	n/a	NoResponse	0	n/a	n/a	4	24	Cue	MissedWin	False
235.075	3.95	Win2	0.84	0.0	No	3.126	0.001	4.0	NoResponse	0	3.48	237.555	4	24	Fixation	MissedWin	False
238.555	0.3	Win2	0.84	0.0	No	3.126	0.001	4.0	NoResponse	0	3.48	n/a	4	24	ButtonPress	MissedWin	False
239.02	0.16	Win2	0.84	0.004	No	3.126	-0.004	4.0	NoResponse	0	0.21	238.23	4	24	Target	MissedWin	False
239.187	0.54	Win2	0.84	n/a	No	3.126	n/a	n/a	NoResponse	0	n/a	n/a	4	24	Blank	MissedWin	False
239.23	0.3	Win2	0.84	0.004	No	3.126	-0.004	4.0	NoResponse	0	0.21	n/a	4	24	ButtonPress	MissedWin	False
239.722	1.45	Win2	0.84	n/a	No	3.126	n/a	5.0	NoResponse	0	0.008	238.73	4	24	Feedback	MissedWin	False
241.177	3.126	Win2	0.84	n/a	No	3.126	n/a	n/a	NoResponse	0	0.0	n/a	4	24	ISIslide	MissedWin	False
244.319	0.25	Win2	0.8077	0.001	No	3.081	0.019	n/a	NoResponse	0	n/a	n/a	4	25	Cue	MissedWin	True
244.57	4.0	Win2	0.8077	0.0	No	3.081	0.001	n/a	NoResponse	0	n/a	n/a	4	25	Fixation	MissedWin	True
248.565	0.15	Win2	0.8077	0.004	No	3.081	-0.004	4.0	NoResponse	0	0.185	247.75	4	25	Target	MissedWin	True
248.716	0.55	Win2	0.8077	n/a	No	3.081	n/a	n/a	NoResponse	0	n/a	n/a	4	25	Blank	MissedWin	True
248.75	0.3	Win2	0.8077	0.004	No	3.081	-0.004	4.0	NoResponse	0	0.185	n/a	4	25	ButtonPress	MissedWin	True
249.268	1.45	Win2	0.8077	n/a	No	3.081	n/a	5.0	NoResponse	0	0.022	248.29	4	25	Feedback	MissedWin	True
250.722	3.081	Win2	0.8077	n/a	No	3.081	n/a	n/a	NoResponse	0	0.0	n/a	4	25	ISIslide	MissedWin	True
253.831	0.25	Win2	0.7778	0.0	No	2.919	0.031	n/a	NoResponse	0	n/a	n/a	4	26	Cue	MissedWin	True
254.082	3.95	Win2	0.7778	0.0	No	2.919	0.001	n/a	NoResponse	0	n/a	n/a	4	26	Fixation	MissedWin	True
258.027	0.15	Win2	0.7778	0.004	No	2.919	-0.004	4.0	NoResponse	0	0.222	257.249	4	26	Target	MissedWin	True
258.178	0.55	Win2	0.7778	n/a	No	2.919	n/a	n/a	NoResponse	0	n/a	n/a	4	26	Blank	MissedWin	True
258.249	0.3	Win2	0.7778	0.004	No	2.919	-0.004	4.0	NoResponse	0	0.222	n/a	4	26	ButtonPress	MissedWin	True
258.729	1.45	Win2	0.7778	n/a	No	2.919	n/a	5.0	NoResponse	0	0.024	257.753	4	26	Feedback	MissedWin	True
260.184	2.919	Win2	0.7778	n/a	No	2.919	n/a	n/a	NoResponse	0	0.0	n/a	4	26	ISIslide	MissedWin	True
263.126	0.25	Lose2	0.75	0.0	No	2.824	0.026	n/a	NoResponse	-1	n/a	n/a	3	27	Cue	Loss	True
263.377	4.05	Lose2	0.75	0.0	No	2.824	0.001	n/a	NoResponse	-1	n/a	n/a	3	27	Fixation	Loss	True
267.422	0.15	Lose2	0.75	0.004	No	2.824	-0.004	4.0	NoResponse	-1	0.185	266.607	3	27	Target	Loss	True
267.572	0.55	Lose2	0.75	n/a	No	2.824	n/a	n/a	NoResponse	-1	n/a	n/a	3	27	Blank	Loss	True
267.607	0.3	Lose2	0.75	0.004	No	2.824	-0.004	4.0	NoResponse	-1	0.185	n/a	3	27	ButtonPress	Loss	True
268.124	1.45	Lose2	0.75	n/a	No	2.824	n/a	5.0	NoResponse	-1	0.043	267.167	3	27	Feedback	Loss	True
269.578	2.824	Lose2	0.75	n/a	No	2.824	n/a	n/a	NoResponse	-1	0.0	n/a	3	27	ISIslide	Loss	True
272.42	0.25	Control	0.7241	0.0	No	2.83	0.02	n/a	NoResponse	0	n/a	n/a	3	28	Cue	Neutral	True
272.671	4.05	Control	0.7241	0.0	No	2.83	0.001	n/a	NoResponse	0	n/a	n/a	3	28	Fixation	Neutral	True
276.716	0.15	Control	0.7241	0.004	No	2.83	-0.004	4.0	NoResponse	0	0.179	275.895	3	28	Target	Neutral	True
276.867	0.55	Control	0.7241	n/a	No	2.83	n/a	n/a	NoResponse	0	n/a	n/a	3	28	Blank	Neutral	True
276.895	0.3	Control	0.7241	0.004	No	2.83	-0.004	4.0	NoResponse	0	0.179	n/a	3	28	ButtonPress	Neutral	True
277.419	1.45	Control	0.7241	n/a	No	2.83	n/a	5.0	NoResponse	0	0.016	276.435	3	28	Feedback	Neutral	True
278.873	2.83	Control	0.7241	n/a	No	2.83	n/a	n/a	NoResponse	0	0.0	n/a	3	28	ISIslide	Neutral	True
281.715	0.25	Lose2	0.7	0.0	No	2.835	0.015	n/a	NoResponse	-1	n/a	n/a	2	29	Cue	Loss	True
281.965	3.95	Lose2	0.7	0.001	No	2.835	0.0	n/a	NoResponse	-1	n/a	n/a	2	29	Fixation	Loss	True
285.911	0.15	Lose2	0.7	0.004	No	2.835	-0.004	4.0	NoResponse	-1	0.239	285.15	2	29	Target	Loss	True
286.061	0.55	Lose2	0.7	n/a	No	2.835	n/a	n/a	NoResponse	-1	n/a	n/a	2	29	Blank	Loss	True
286.15	0.3	Lose2	0.7	0.004	No	2.835	-0.004	4.0	NoResponse	-1	0.239	n/a	2	29	ButtonPress	Loss	True
286.613	1.45	Lose2	0.7	n/a	No	2.835	n/a	5.0	NoResponse	-1	0.042	285.655	2	29	Feedback	Loss	True
288.067	2.835	Lose2	0.7	n/a	No	2.835	n/a	n/a	NoResponse	-1	0.0	n/a	2	29	ISIslide	Loss	True
290.926	0.25	Win2	0.6774	0.0	No	2.774	0.026	n/a	NoResponse	0	n/a	n/a	2	30	Cue	MissedWin	True
291.176	3.9	Win2	0.6774	0.0	No	2.774	0.0	n/a	NoResponse	0	n/a	n/a	2	30	Fixation	MissedWin	True
295.088	0.15	Win2	0.6774	0.0	No	2.774	0.012	4.0	NoResponse	0	0.178	294.266	2	30	Target	MissedWin	True
295.222	0.55	Win2	0.6774	n/a	No	2.774	n/a	n/a	NoResponse	0	n/a	n/a	2	30	Blank	MissedWin	True
295.266	0.3	Win2	0.6774	0.0	No	2.774	0.012	4.0	NoResponse	0	0.178	n/a	2	30	ButtonPress	MissedWin	True
295.773	1.45	Win2	0.6774	n/a	No	2.774	n/a	5.0	NoResponse	0	0.009	294.782	2	30	Feedback	MissedWin	True
297.228	2.774	Win2	0.6774	n/a	No	2.774	n/a	n/a	NoResponse	0	0.0	n/a	2	30	ISIslide	MissedWin	True
300.02	0.25	Lose2	0.6562	0.0	No	2.83	0.02	n/a	NoResponse	-1	n/a	n/a	1	31	Cue	Loss	False
300.27	4.05	Lose2	0.6562	0.0	No	2.83	0.0	4.0	NoResponse	-1	3.992	303.262	1	31	Fixation	Loss	False
304.262	0.3	Lose2	0.6562	0.0	No	2.83	0.0	4.0	NoResponse	-1	3.992	n/a	1	31	ButtonPress	Loss	False
304.316	0.15	Lose2	0.6562	0.004	No	2.83	-0.004	4.0	NoResponse	-1	0.165	303.481	1	31	Target	Loss	False
304.466	0.55	Lose2	0.6562	n/a	No	2.83	n/a	n/a	NoResponse	-1	n/a	n/a	1	31	Blank	Loss	False
304.481	0.3	Lose2	0.6562	0.004	No	2.83	-0.004	4.0	NoResponse	-1	0.165	n/a	1	31	ButtonPress	Loss	False
305.018	1.45	Lose2	0.6562	n/a	No	2.83	n/a	5.0	NoResponse	-1	0.027	304.045	1	31	Feedback	Loss	False
306.472	2.83	Lose2	0.6562	n/a	No	2.83	n/a	n/a	NoResponse	-1	0.0	n/a	1	31	ISIslide	Loss	False
309.331	0.25	Lose2	0.6364	0.0	No	2.619	0.031	n/a	NoResponse	-1	n/a	n/a	0	32	Cue	Loss	True
309.581	4.15	Lose2	0.6364	0.001	No	2.619	0.0	n/a	NoResponse	-1	n/a	n/a	0	32	Fixation	Loss	True
313.727	0.15	Lose2	0.6364	0.004	No	2.619	-0.004	4.0	NoResponse	-1	0.162	312.889	0	32	Target	Loss	True
313.878	0.55	Lose2	0.6364	n/a	No	2.619	n/a	n/a	NoResponse	-1	n/a	n/a	0	32	Blank	Loss	True
313.889	0.3	Lose2	0.6364	0.004	No	2.619	-0.004	4.0	NoResponse	-1	0.162	n/a	0	32	ButtonPress	Loss	True
314.429	1.45	Lose2	0.6364	n/a	No	2.619	n/a	5.0	NoResponse	-1	0.031	313.46	0	32	Feedback	Loss	True
315.884	2.619	Lose2	0.6364	n/a	No	2.619	n/a	n/a	NoResponse	-1	0.0	n/a	0	32	ISIslide	Loss	True
318.525	0.25	Win2	0.6175999999999999	0.0	No	2.675	0.025	n/a	LatePress	0	n/a	n/a	0	33	Cue	MissedWin	True
318.776	4.0	Win2	0.6175999999999999	0.0	No	2.675	0.001	n/a	LatePress	0	n/a	n/a	0	33	Fixation	MissedWin	True
322.771	0.16	Win2	0.6175999999999999	0.004	No	2.675	-0.004	4.0	LatePress	0	0.16	321.931	0	33	Target	MissedWin	True
322.931	0.3	Win2	0.6175999999999999	0.004	No	2.675	-0.004	4.0	LatePress	0	0.16	n/a	0	33	ButtonPress	MissedWin	True
322.938	0.54	Win2	0.6175999999999999	n/a	No	2.675	n/a	n/a	LatePress	0	n/a	n/a	0	33	Blank	MissedWin	True
323.473	1.45	Win2	0.6175999999999999	n/a	No	2.675	n/a	5.0	LatePress	0	0.011	322.484	0	33	Feedback	MissedWin	True
324.927	2.675	Win2	0.6175999999999999	n/a	No	2.675	n/a	n/a	LatePress	0	0.0	n/a	0	33	ISIslide	MissedWin	True
327.619	0.25	Lose2	0.6	0.0	No	2.631	0.019	n/a	NoResponse	-1	n/a	n/a	-1	34	Cue	Loss	True
327.87	4.05	Lose2	0.6	0.0	No	2.631	0.001	n/a	NoResponse	-1	n/a	n/a	-1	34	Fixation	Loss	True
331.915	0.17	Lose2	0.6	0.004	No	2.631	-0.004	4.0	NoResponse	-1	0.202	331.117	-1	34	Target	Loss	True
332.099	0.53	Lose2	0.6	n/a	No	2.631	n/a	n/a	NoResponse	-1	n/a	n/a	-1	34	Blank	Loss	True
332.117	0.3	Lose2	0.6	0.004	No	2.631	-0.004	4.0	NoResponse	-1	0.202	n/a	-1	34	ButtonPress	Loss	True
332.617	1.45	Lose2	0.6	n/a	No	2.631	n/a	5.0	NoResponse	-1	0.037	331.654	-1	34	Feedback	Loss	True
334.071	2.631	Lose2	0.6	n/a	No	2.631	n/a	n/a	NoResponse	-1	0.0	n/a	-1	34	ISIslide	Loss	True
336.729	0.25	Lose2	0.5832999999999999	0.001	No	2.671	0.029	n/a	NoResponse	-1	n/a	n/a	-2	35	Cue	Loss	True
336.98	4.0	Lose2	0.5832999999999999	0.0	No	2.671	0.001	n/a	NoResponse	-1	n/a	n/a	-2	35	Fixation	Loss	True
340.975	0.18	Lose2	0.5832999999999999	0.004	No	2.671	-0.004	4.0	NoResponse	-1	0.193	340.168	-2	35	Target	Loss	True
341.159	0.52	Lose2	0.5832999999999999	n/a	No	2.671	n/a	n/a	NoResponse	-1	n/a	n/a	-2	35	Blank	Loss	True
341.168	0.3	Lose2	0.5832999999999999	0.004	No	2.671	-0.004	4.0	NoResponse	-1	0.193	n/a	-2	35	ButtonPress	Loss	True
341.678	1.45	Lose2	0.5832999999999999	n/a	No	2.671	n/a	5.0	NoResponse	-1	0.001	340.679	-2	35	Feedback	Loss	True
343.132	2.671	Lose2	0.5832999999999999	n/a	No	2.671	n/a	n/a	NoResponse	-1	0.0	n/a	-2	35	ISIslide	Loss	True
345.823	0.25	Control	0.5676	0.0	No	2.677	0.023	n/a	NoResponse	0	n/a	n/a	-2	36	Cue	Neutral	True
346.074	4.0	Control	0.5676	0.0	No	2.677	0.001	4.0	NoResponse	0	3.406	348.48	-2	36	Fixation	Neutral	True
349.48	0.3	Control	0.5676	0.0	No	2.677	0.001	4.0	NoResponse	0	3.406	n/a	-2	36	ButtonPress	Neutral	True
350.069	0.19	Control	0.5676	0.004	No	2.677	-0.004	n/a	NoResponse	0	n/a	n/a	-2	36	Target	Neutral	True
350.27	0.51	Control	0.5676	n/a	No	2.677	n/a	n/a	NoResponse	0	n/a	n/a	-2	36	Blank	Neutral	True
350.771	1.45	Control	0.5676	n/a	No	2.677	n/a	5.0	NoResponse	0	0.03	349.801	-2	36	Feedback	Neutral	True
352.226	2.677	Control	0.5676	n/a	No	2.677	n/a	n/a	NoResponse	0	0.0	n/a	-2	36	ISIslide	Neutral	True
354.917	0.25	Win2	0.5789	0.0	Yes	2.883	0.017	n/a	GoodResponse	1	n/a	n/a	-1	37	Cue	Win	True
355.168	4.0	Win2	0.5789	0.0	Yes	2.883	0.001	n/a	GoodResponse	1	n/a	n/a	-1	37	Fixation	Win	True
359.163	0.2	Win2	0.5789	0.004	Yes	2.883	-0.004	4.0	GoodResponse	1	0.185	358.348	-1	37	Target	Win	True
359.348	0.3	Win2	0.5789	0.004	Yes	2.883	-0.004	4.0	GoodResponse	1	0.185	n/a	-1	37	ButtonPress	Win	True
359.364	0.5	Win2	0.5789	n/a	Yes	2.883	n/a	n/a	GoodResponse	1	n/a	n/a	-1	37	Blank	Win	True
359.865	1.45	Win2	0.5789	n/a	Yes	2.883	n/a	5.0	GoodResponse	1	0.009	358.874	-1	37	Feedback	Win	True
361.32	2.883	Win2	0.5789	n/a	Yes	2.883	n/a	n/a	GoodResponse	1	0.0	n/a	-1	37	ISIslide	Win	True
364.228	0.25	Lose2	0.5640999999999999	0.0	No	2.822	0.028	n/a	NoResponse	-1	n/a	n/a	-2	38	Cue	Loss	True
364.479	3.95	Lose2	0.5640999999999999	0.0	No	2.822	0.001	n/a	NoResponse	-1	n/a	n/a	-2	38	Fixation	Loss	True
368.424	0.21	Lose2	0.5640999999999999	0.004	No	2.822	-0.004	4.0	NoResponse	-1	0.335	367.759	-2	38	Target	Loss	True
368.642	0.49	Lose2	0.5640999999999999	n/a	No	2.822	n/a	n/a	NoResponse	-1	n/a	n/a	-2	38	Blank	Loss	True
368.759	0.3	Lose2	0.5640999999999999	0.004	No	2.822	-0.004	4.0	NoResponse	-1	0.335	n/a	-2	38	ButtonPress	Loss	True
369.126	1.45	Lose2	0.5640999999999999	n/a	No	2.822	n/a	5.0	NoResponse	-1	0.017	368.143	-2	38	Feedback	Loss	True
370.581	2.822	Lose2	0.5640999999999999	n/a	No	2.822	n/a	n/a	NoResponse	-1	0.0	n/a	-2	38	ISIslide	Loss	True
373.423	0.25	Win2	0.575	0.0	Yes	2.977	0.023	n/a	GoodResponse	1	n/a	n/a	-1	39	Cue	Win	True
373.673	4.1	Win2	0.575	0.0	Yes	2.977	0.0	n/a	GoodResponse	1	n/a	n/a	-1	39	Fixation	Win	True
377.769	0.22	Win2	0.575	0.004	Yes	2.977	-0.004	4.0	GoodResponse	1	0.165	376.934	-1	39	Target	Win	True
377.934	0.3	Win2	0.575	0.004	Yes	2.977	-0.004	4.0	GoodResponse	1	0.165	n/a	-1	39	ButtonPress	Win	True
378.003	0.48	Win2	0.575	n/a	Yes	2.977	n/a	n/a	GoodResponse	1	n/a	n/a	-1	39	Blank	Win	True
378.471	1.45	Win2	0.575	n/a	Yes	2.977	n/a	5.0	GoodResponse	1	0.037	377.508	-1	39	Feedback	Win	True
379.925	2.977	Win2	0.575	n/a	Yes	2.977	n/a	n/a	GoodResponse	1	0.0	n/a	-1	39	ISIslide	Win	True
382.918	0.25	Win2	0.5854	0.0	Yes	2.732	0.018	n/a	GoodResponse	1	n/a	n/a	0	40	Cue	Win	True
383.168	3.95	Win2	0.5854	0.001	Yes	2.732	0.0	n/a	GoodResponse	1	n/a	n/a	0	40	Fixation	Win	True
387.114	0.23	Win2	0.5854	0.004	Yes	2.732	-0.004	4.0	GoodResponse	1	0.183	386.297	0	40	Target	Win	True
387.297	0.3	Win2	0.5854	0.004	Yes	2.732	-0.004	4.0	GoodResponse	1	0.183	n/a	0	40	ButtonPress	Win	True
387.348	0.47	Win2	0.5854	n/a	Yes	2.732	n/a	n/a	GoodResponse	1	n/a	n/a	0	40	Blank	Win	True
387.816	1.45	Win2	0.5854	n/a	Yes	2.732	n/a	5.0	GoodResponse	1	0.009	386.825	0	40	Feedback	Win	True
389.27	2.732	Win2	0.5854	n/a	Yes	2.732	n/a	n/a	GoodResponse	1	0.0	n/a	0	40	ISIslide	Win	True
392.028	0.25	Win2	0.5952000000000001	0.0	Yes	2.772	0.028	n/a	GoodResponse	1	n/a	n/a	1	41	Cue	Win	True
392.279	3.9	Win2	0.5952000000000001	0.0	Yes	2.772	0.001	n/a	GoodResponse	1	n/a	n/a	1	41	Fixation	Win	True
396.174	0.24	Win2	0.5952000000000001	0.004	Yes	2.772	-0.004	4.0	GoodResponse	1	0.212	395.386	1	41	Target	Win	True
396.386	0.3	Win2	0.5952000000000001	0.004	Yes	2.772	-0.004	4.0	GoodResponse	1	0.212	n/a	1	41	ButtonPress	Win	True
396.425	0.46	Win2	0.5952000000000001	n/a	Yes	2.772	n/a	n/a	GoodResponse	1	n/a	n/a	1	41	Blank	Win	True
396.876	1.45	Win2	0.5952000000000001	n/a	Yes	2.772	n/a	5.0	GoodResponse	1	0.022	395.898	1	41	Feedback	Win	True
398.33	2.772	Win2	0.5952000000000001	n/a	Yes	2.772	n/a	n/a	GoodResponse	1	0.0	n/a	1	41	ISIslide	Win	True
401.122	0.25	Control	0.6047	0.0	Yes	2.928	0.022	n/a	GoodResponse	0	n/a	n/a	1	42	Cue	Neutral	True
401.373	3.85	Control	0.6047	0.0	Yes	2.928	0.001	n/a	GoodResponse	0	n/a	n/a	1	42	Fixation	Neutral	True
405.218	0.25	Control	0.6047	0.004	Yes	2.928	-0.004	4.0	GoodResponse	0	0.183	404.401	1	42	Target	Neutral	True
405.401	0.3	Control	0.6047	0.004	Yes	2.928	-0.004	4.0	GoodResponse	0	0.183	n/a	1	42	ButtonPress	Neutral	True
405.468	0.45	Control	0.6047	n/a	Yes	2.928	n/a	n/a	GoodResponse	0	n/a	n/a	1	42	Blank	Neutral	True
405.92	1.45	Control	0.6047	n/a	Yes	2.928	n/a	5.0	GoodResponse	0	0.008	404.928	1	42	Feedback	Neutral	True
407.374	2.928	Control	0.6047	n/a	Yes	2.928	n/a	n/a	GoodResponse	0	0.0	n/a	1	42	ISIslide	Neutral	True
410.316	0.25	Win2	0.6136	0.0	Yes	3.184	0.016	n/a	GoodResponse	1	n/a	n/a	2	43	Cue	Win	True
410.567	4.0	Win2	0.6136	0.0	Yes	3.184	0.001	n/a	GoodResponse	1	n/a	n/a	2	43	Fixation	Win	True
414.562	0.26	Win2	0.6136	0.004	Yes	3.184	-0.004	4.0	GoodResponse	1	0.19	413.752	2	43	Target	Win	True
414.752	0.3	Win2	0.6136	0.004	Yes	3.184	-0.004	4.0	GoodResponse	1	0.19	n/a	2	43	ButtonPress	Win	True
414.83	0.44	Win2	0.6136	n/a	Yes	3.184	n/a	n/a	GoodResponse	1	n/a	n/a	2	43	Blank	Win	True
415.264	1.45	Win2	0.6136	n/a	Yes	3.184	n/a	5.0	GoodResponse	1	0.024	414.288	2	43	Feedback	Win	True
416.719	3.184	Win2	0.6136	n/a	Yes	3.184	n/a	n/a	GoodResponse	1	0.0	n/a	2	43	ISIslide	Win	True
419.928	0.25	Win2	0.6	0.001	No	2.972	0.028	n/a	NoResponse	0	n/a	n/a	2	44	Cue	MissedWin	False
420.179	4.0	Win2	0.6	0.0	No	2.972	0.001	n/a	NoResponse	0	n/a	n/a	2	44	Fixation	MissedWin	False
424.174	0.27	Win2	0.6	0.004	No	2.972	-0.004	n/a	NoResponse	0	n/a	n/a	2	44	Target	MissedWin	False
424.459	0.43	Win2	0.6	n/a	No	2.972	n/a	n/a	NoResponse	0	n/a	n/a	2	44	Blank	MissedWin	False
424.877	1.45	Win2	0.6	n/a	No	2.972	n/a	5.0	NoResponse	0	0.02	423.897	2	44	Feedback	MissedWin	False
426.331	2.972	Win2	0.6	n/a	No	2.972	n/a	n/a	NoResponse	0	0.0	n/a	2	44	ISIslide	MissedWin	False
429.323	0.25	Control	0.6087	0.0	Yes	2.877	0.023	n/a	GoodResponse	0	n/a	n/a	2	45	Cue	Neutral	False
429.574	4.1	Control	0.6087	0.0	Yes	2.877	0.001	4.0	GoodResponse	0	3.949	432.523	2	45	Fixation	Neutral	False
433.523	0.3	Control	0.6087	0.0	Yes	2.877	0.001	4.0	GoodResponse	0	3.949	n/a	2	45	ButtonPress	Neutral	False
433.67	0.28	Control	0.6087	0.003	Yes	2.877	-0.003	4.0	GoodResponse	0	0.191	432.861	2	45	Target	Neutral	False
433.861	0.3	Control	0.6087	0.003	Yes	2.877	-0.003	4.0	GoodResponse	0	0.191	n/a	2	45	ButtonPress	Neutral	False
433.954	0.42	Control	0.6087	n/a	Yes	2.877	n/a	n/a	GoodResponse	0	n/a	n/a	2	45	Blank	Neutral	False
434.372	1.45	Control	0.6087	n/a	Yes	2.877	n/a	5.0	GoodResponse	0	0.038	433.41	2	45	Feedback	Neutral	False
435.826	2.877	Control	0.6087	n/a	Yes	2.877	n/a	n/a	GoodResponse	0	0.0	n/a	2	45	ISIslide	Neutral	False
438.718	0.25	Lose2	0.617	0.0	Yes	3.382	0.018	n/a	GoodResponse	0	n/a	n/a	2	46	Cue	AvoidedLoss	True
438.969	4.0	Lose2	0.617	0.0	Yes	3.382	0.001	n/a	GoodResponse	0	n/a	n/a	2	46	Fixation	AvoidedLoss	True
442.964	0.29	Lose2	0.617	0.004	Yes	3.382	-0.004	4.0	GoodResponse	0	0.186	442.15	2	46	Target	AvoidedLoss	True
443.15	0.3	Lose2	0.617	0.004	Yes	3.382	-0.004	4.0	GoodResponse	0	0.186	n/a	2	46	ButtonPress	AvoidedLoss	True
443.265	0.41	Lose2	0.617	n/a	Yes	3.382	n/a	n/a	GoodResponse	0	n/a	n/a	2	46	Blank	AvoidedLoss	True
443.666	1.45	Lose2	0.617	n/a	Yes	3.382	n/a	5.0	GoodResponse	0	0.012	442.678	2	46	Feedback	AvoidedLoss	True
445.121	3.382	Lose2	0.617	n/a	Yes	3.382	n/a	n/a	GoodResponse	0	0.0	n/a	2	46	ISIslide	AvoidedLoss	True
448.531	0.25	Lose2	0.625	0.0	Yes	2.669	0.031	n/a	GoodResponse	0	n/a	n/a	2	47	Cue	AvoidedLoss	True
448.781	4.0	Lose2	0.625	0.001	Yes	2.669	0.0	n/a	GoodResponse	0	n/a	n/a	2	47	Fixation	AvoidedLoss	True
452.777	0.3	Lose2	0.625	0.004	Yes	2.669	-0.004	4.0	GoodResponse	0	0.212	451.989	2	47	Target	AvoidedLoss	True
452.989	0.3	Lose2	0.625	0.004	Yes	2.669	-0.004	4.0	GoodResponse	0	0.212	n/a	2	47	ButtonPress	AvoidedLoss	True
453.078	0.4	Lose2	0.625	n/a	Yes	2.669	n/a	n/a	GoodResponse	0	n/a	n/a	2	47	Blank	AvoidedLoss	True
453.479	1.45	Lose2	0.625	n/a	Yes	2.669	n/a	5.0	GoodResponse	0	0.007	452.486	2	47	Feedback	AvoidedLoss	True
454.933	2.669	Lose2	0.625	n/a	Yes	2.669	n/a	n/a	GoodResponse	0	0.0	n/a	2	47	ISIslide	AvoidedLoss	True
457.625	0.25	Lose2	0.6327	0.0	Yes	3.025	0.025	n/a	GoodResponse	0	n/a	n/a	2	48	Cue	AvoidedLoss	True
457.875	3.95	Lose2	0.6327	0.0	Yes	3.025	0.0	n/a	GoodResponse	0	n/a	n/a	2	48	Fixation	AvoidedLoss	True
461.821	0.31	Lose2	0.6327	0.004	Yes	3.025	-0.004	4.0	GoodResponse	0	0.171	460.992	2	48	Target	AvoidedLoss	True
461.992	0.3	Lose2	0.6327	0.004	Yes	3.025	-0.004	4.0	GoodResponse	0	0.171	n/a	2	48	ButtonPress	AvoidedLoss	True
462.138	0.39	Lose2	0.6327	n/a	Yes	3.025	n/a	n/a	GoodResponse	0	n/a	n/a	2	48	Blank	AvoidedLoss	True
462.523	1.45	Lose2	0.6327	n/a	Yes	3.025	n/a	5.0	GoodResponse	0	0.033	461.556	2	48	Feedback	AvoidedLoss	True
463.977	3.025	Lose2	0.6327	n/a	Yes	3.025	n/a	n/a	GoodResponse	0	0.0	n/a	2	48	ISIslide	AvoidedLoss	True
467.019	0.25	Control	0.64	0.001	Yes	2.881	0.019	n/a	GoodResponse	0	n/a	n/a	2	49	Cue	Neutral	True
467.27	4.0	Control	0.64	0.0	Yes	2.881	0.001	n/a	GoodResponse	0	n/a	n/a	2	49	Fixation	Neutral	True
471.265	0.32	Control	0.64	0.004	Yes	2.881	-0.004	4.0	GoodResponse	0	0.247	470.512	2	49	Target	Neutral	True
471.512	0.3	Control	0.64	0.004	Yes	2.881	-0.004	4.0	GoodResponse	0	0.247	n/a	2	49	ButtonPress	Neutral	True
471.6	0.38	Control	0.64	n/a	Yes	2.881	n/a	n/a	GoodResponse	0	n/a	n/a	2	49	Blank	Neutral	True
471.968	1.45	Control	0.64	n/a	Yes	2.881	n/a	5.0	GoodResponse	0	0.006	470.974	2	49	Feedback	Neutral	True
473.422	2.881	Control	0.64	n/a	Yes	2.881	n/a	n/a	GoodResponse	0	0.0	n/a	2	49	ISIslide	Neutral	True
476.314	0.25	Control	0.6470999999999999	0.0	Yes	2.786	0.014	n/a	GoodResponse	0	n/a	n/a	2	50	Cue	Neutral	True
476.565	4.0	Control	0.6470999999999999	0.0	Yes	2.786	0.001	n/a	GoodResponse	0	n/a	n/a	2	50	Fixation	Neutral	True
480.56	0.33	Control	0.6470999999999999	0.004	Yes	2.786	-0.004	4.0	GoodResponse	0	0.189	479.749	2	50	Target	Neutral	True
480.749	0.3	Control	0.6470999999999999	0.004	Yes	2.786	-0.004	4.0	GoodResponse	0	0.189	n/a	2	50	ButtonPress	Neutral	True
480.894	0.37	Control	0.6470999999999999	n/a	Yes	2.786	n/a	n/a	GoodResponse	0	n/a	n/a	2	50	Blank	Neutral	True
481.262	1.45	Control	0.6470999999999999	n/a	Yes	2.786	n/a	5.0	GoodResponse	0	0.025	480.287	2	50	Feedback	Neutral	True
482.716	2.786	Control	0.6470999999999999	n/a	Yes	2.786	n/a	n/a	GoodResponse	0	0.0	n/a	2	50	ISIslide	Neutral	True
485.525	0.25	Control	0.6537999999999999	0.0	Yes	2.725	0.025	n/a	GoodResponse	0	n/a	n/a	2	51	Cue	Neutral	True
485.776	3.95	Control	0.6537999999999999	0.0	Yes	2.725	0.001	n/a	GoodResponse	0	n/a	n/a	2	51	Fixation	Neutral	True
489.721	0.34	Control	0.6537999999999999	0.004	Yes	2.725	-0.004	4.0	GoodResponse	0	0.173	488.894	2	51	Target	Neutral	True
489.894	0.3	Control	0.6537999999999999	0.004	Yes	2.725	-0.004	4.0	GoodResponse	0	0.173	n/a	2	51	ButtonPress	Neutral	True
490.072	0.36	Control	0.6537999999999999	n/a	Yes	2.725	n/a	n/a	GoodResponse	0	n/a	n/a	2	51	Blank	Neutral	True
490.423	1.45	Control	0.6537999999999999	n/a	Yes	2.725	n/a	5.0	GoodResponse	0	0.035	489.458	2	51	Feedback	Neutral	True
491.877	2.725	Control	0.6537999999999999	n/a	Yes	2.725	n/a	n/a	GoodResponse	0	0.0	n/a	2	51	ISIslide	Neutral	True
494.619	0.25	Control	0.6604000000000001	0.0	Yes	2.631	0.019	n/a	GoodResponse	0	n/a	n/a	2	52	Cue	Neutral	True
494.869	4.05	Control	0.6604000000000001	0.001	Yes	2.631	0.0	n/a	GoodResponse	0	n/a	n/a	2	52	Fixation	Neutral	True
498.915	0.35	Control	0.6604000000000001	0.004	Yes	2.631	-0.004	4.0	GoodResponse	0	0.199	498.114	2	52	Target	Neutral	True
499.114	0.3	Control	0.6604000000000001	0.004	Yes	2.631	-0.004	4.0	GoodResponse	0	0.199	n/a	2	52	ButtonPress	Neutral	True
499.266	0.35	Control	0.6604000000000001	n/a	Yes	2.631	n/a	n/a	GoodResponse	0	n/a	n/a	2	52	Blank	Neutral	True
499.617	1.45	Control	0.6604000000000001	n/a	Yes	2.631	n/a	5.0	GoodResponse	0	0.012	498.629	2	52	Feedback	Neutral	True
501.071	2.631	Control	0.6604000000000001	n/a	Yes	2.631	n/a	n/a	GoodResponse	0	0.0	n/a	2	52	ISIslide	Neutral	True
503.729	0.25	Win2	0.6667000000000001	0.0	Yes	2.921	0.029	n/a	GoodResponse	1	n/a	n/a	3	53	Cue	Win	True
503.98	4.05	Win2	0.6667000000000001	0.0	Yes	2.921	0.001	n/a	GoodResponse	1	n/a	n/a	3	53	Fixation	Win	True
508.025	0.35	Win2	0.6667000000000001	0.004	Yes	2.921	-0.004	4.0	GoodResponse	1	0.183	507.208	3	53	Target	Win	True
508.208	0.3	Win2	0.6667000000000001	0.004	Yes	2.921	-0.004	4.0	GoodResponse	1	0.183	n/a	3	53	ButtonPress	Win	True
508.377	0.35	Win2	0.6667000000000001	n/a	Yes	2.921	n/a	n/a	GoodResponse	1	n/a	n/a	3	53	Blank	Win	True
508.728	1.45	Win2	0.6667000000000001	n/a	Yes	2.921	n/a	5.0	GoodResponse	1	0.023	507.751	3	53	Feedback	Win	True
510.182	2.921	Win2	0.6667000000000001	n/a	Yes	2.921	n/a	n/a	GoodResponse	1	0.0	n/a	3	53	ISIslide	Win	True
513.124	0.25	Win2	0.6727	0.0	Yes	2.726	0.024	n/a	GoodResponse	1	n/a	n/a	4	54	Cue	Win	True
513.375	3.95	Win2	0.6727	0.0	Yes	2.726	0.001	n/a	GoodResponse	1	n/a	n/a	4	54	Fixation	Win	True
517.32	0.34	Win2	0.6727	0.004	Yes	2.726	-0.004	4.0	GoodResponse	1	0.186	516.506	4	54	Target	Win	True
517.506	0.3	Win2	0.6727	0.004	Yes	2.726	-0.004	4.0	GoodResponse	1	0.186	n/a	4	54	ButtonPress	Win	True
517.671	0.36	Win2	0.6727	n/a	Yes	2.726	n/a	n/a	GoodResponse	1	n/a	n/a	4	54	Blank	Win	True
518.022	1.45	Win2	0.6727	n/a	Yes	2.726	n/a	5.0	GoodResponse	1	0.046	517.068	4	54	Feedback	Win	True
519.476	2.726	Win2	0.6727	n/a	Yes	2.726	n/a	n/a	GoodResponse	1	0.0	n/a	4	54	ISIslide	Win	True
522.218	0.25	Control	0.6786	0.0	Yes	3.032	0.018	n/a	GoodResponse	0	n/a	n/a	4	55	Cue	Neutral	True
522.469	3.95	Control	0.6786	0.0	Yes	3.032	0.001	n/a	GoodResponse	0	n/a	n/a	4	55	Fixation	Neutral	True
526.414	0.33	Control	0.6786	0.004	Yes	3.032	-0.004	4.0	GoodResponse	0	0.184	525.598	4	55	Target	Neutral	True
526.598	0.3	Control	0.6786	0.004	Yes	3.032	-0.004	4.0	GoodResponse	0	0.184	n/a	4	55	ButtonPress	Neutral	True
526.748	0.37	Control	0.6786	n/a	Yes	3.032	n/a	n/a	GoodResponse	0	n/a	n/a	4	55	Blank	Neutral	True
527.116	1.45	Control	0.6786	n/a	Yes	3.032	n/a	5.0	GoodResponse	0	0.024	526.14	4	55	Feedback	Neutral	True
528.57	3.032	Control	0.6786	n/a	Yes	3.032	n/a	n/a	GoodResponse	0	0.0	n/a	4	55	ISIslide	Neutral	True
531.613	0.25	Control	0.6842	0.0	Yes	2.837	0.013	n/a	GoodResponse	0	n/a	n/a	4	56	Cue	Neutral	True
531.864	3.95	Control	0.6842	0.0	Yes	2.837	0.001	n/a	GoodResponse	0	n/a	n/a	4	56	Fixation	Neutral	True
535.809	0.32	Control	0.6842	0.004	Yes	2.837	-0.004	4.0	GoodResponse	0	0.224	535.033	4	56	Target	Neutral	True
536.033	0.3	Control	0.6842	0.004	Yes	2.837	-0.004	4.0	GoodResponse	0	0.224	n/a	4	56	ButtonPress	Neutral	True
536.143	0.38	Control	0.6842	n/a	Yes	2.837	n/a	n/a	GoodResponse	0	n/a	n/a	4	56	Blank	Neutral	True
536.511	1.45	Control	0.6842	n/a	Yes	2.837	n/a	5.0	GoodResponse	0	0.044	535.555	4	56	Feedback	Neutral	True
537.965	2.837	Control	0.6842	n/a	Yes	2.837	n/a	n/a	GoodResponse	0	0.0	n/a	4	56	ISIslide	Neutral	True
540.824	0.25	Control	0.6897	0.0	Yes	3.476	0.024	n/a	GoodResponse	0	n/a	n/a	4	57	Cue	Neutral	True
541.074	4.0	Control	0.6897	0.0	Yes	3.476	0.0	n/a	GoodResponse	0	n/a	n/a	4	57	Fixation	Neutral	True
545.07	0.31	Control	0.6897	0.004	Yes	3.476	-0.004	4.0	GoodResponse	0	0.188	544.258	4	57	Target	Neutral	True
545.258	0.3	Control	0.6897	0.004	Yes	3.476	-0.004	4.0	GoodResponse	0	0.188	n/a	4	57	ButtonPress	Neutral	True
545.387	0.39	Control	0.6897	n/a	Yes	3.476	n/a	n/a	GoodResponse	0	n/a	n/a	4	57	Blank	Neutral	True
545.772	1.45	Control	0.6897	n/a	Yes	3.476	n/a	5.0	GoodResponse	0	0.005	544.777	4	57	Feedback	Neutral	True
547.226	3.476	Control	0.6897	n/a	Yes	3.476	n/a	n/a	GoodResponse	0	0.0	n/a	4	57	ISIslide	Neutral	True
550.72	0.25	Win2	0.6949	0.0	Yes	2.73	0.02	n/a	GoodResponse	1	n/a	n/a	5	58	Cue	Win	True
550.971	4.05	Win2	0.6949	0.0	Yes	2.73	0.001	n/a	GoodResponse	1	n/a	n/a	5	58	Fixation	Win	True
555.016	0.3	Win2	0.6949	0.004	Yes	2.73	-0.004	4.0	GoodResponse	1	0.27	554.286	5	58	Target	Win	True
555.286	0.3	Win2	0.6949	0.004	Yes	2.73	-0.004	4.0	GoodResponse	1	0.27	n/a	5	58	ButtonPress	Win	True
555.317	0.4	Win2	0.6949	n/a	Yes	2.73	n/a	n/a	GoodResponse	1	n/a	n/a	5	58	Blank	Win	True
555.718	1.45	Win2	0.6949	n/a	Yes	2.73	n/a	5.0	GoodResponse	1	0.008	554.726	5	58	Feedback	Win	True
557.173	2.73	Win2	0.6949	n/a	Yes	2.73	n/a	n/a	GoodResponse	1	0.0	n/a	5	58	ISIslide	Win	True
559.914	0.25	Lose2	0.7	0.0	Yes	2.686	0.014	n/a	GoodResponse	0	n/a	n/a	5	59	Cue	AvoidedLoss	True
560.165	4.0	Lose2	0.7	0.0	Yes	2.686	0.001	n/a	GoodResponse	0	n/a	n/a	5	59	Fixation	AvoidedLoss	True
564.16	0.29	Lose2	0.7	0.004	Yes	2.686	-0.004	4.0	GoodResponse	0	0.181	563.341	5	59	Target	AvoidedLoss	True
564.341	0.3	Lose2	0.7	0.004	Yes	2.686	-0.004	4.0	GoodResponse	0	0.181	n/a	5	59	ButtonPress	AvoidedLoss	True
564.461	0.41	Lose2	0.7	n/a	Yes	2.686	n/a	n/a	GoodResponse	0	n/a	n/a	5	59	Blank	AvoidedLoss	True
564.862	1.45	Lose2	0.7	n/a	Yes	2.686	n/a	5.0	GoodResponse	0	0.035	563.897	5	59	Feedback	AvoidedLoss	True
566.317	2.686	Lose2	0.7	n/a	Yes	2.686	n/a	n/a	GoodResponse	0	0.0	n/a	5	59	ISIslide	AvoidedLoss	True
569.025	0.25	Control	0.7049	0.0	Yes	2.675	0.025	n/a	GoodResponse	0	n/a	n/a	5	60	Cue	Neutral	True
569.275	4.0	Control	0.7049	0.001	Yes	2.675	0.0	n/a	GoodResponse	0	n/a	n/a	5	60	Fixation	Neutral	True
573.271	0.28	Control	0.7049	0.004	Yes	2.675	-0.004	4.0	GoodResponse	0	0.186	572.457	5	60	Target	Neutral	True
573.457	0.3	Control	0.7049	0.004	Yes	2.675	-0.004	4.0	GoodResponse	0	0.186	n/a	5	60	ButtonPress	Neutral	True
573.555	0.42	Control	0.7049	n/a	Yes	2.675	n/a	n/a	GoodResponse	0	n/a	n/a	5	60	Blank	Neutral	True
573.973	1.45	Control	0.7049	n/a	Yes	2.675	n/a	5.0	GoodResponse	0	0.045	573.018	5	60	Feedback	Neutral	True
575.427	2.675	Control	0.7049	n/a	Yes	2.675	n/a	n/a	GoodResponse	0	0.0	n/a	5	60	ISIslide	Neutral	True
578.119	0.25	Lose2	0.7097	0.0	Yes	2.981	0.019	n/a	GoodResponse	0	n/a	n/a	5	61	Cue	AvoidedLoss	True
578.369	4.0	Lose2	0.7097	0.0	Yes	2.981	0.0	n/a	GoodResponse	0	n/a	n/a	5	61	Fixation	AvoidedLoss	True
582.365	0.27	Lose2	0.7097	0.004	Yes	2.981	-0.004	4.0	GoodResponse	0	0.186	581.551	5	61	Target	AvoidedLoss	True
582.551	0.3	Lose2	0.7097	0.004	Yes	2.981	-0.004	4.0	GoodResponse	0	0.186	n/a	5	61	ButtonPress	AvoidedLoss	True
582.649	0.43	Lose2	0.7097	n/a	Yes	2.981	n/a	n/a	GoodResponse	0	n/a	n/a	5	61	Blank	AvoidedLoss	True
583.067	1.45	Lose2	0.7097	n/a	Yes	2.981	n/a	5.0	GoodResponse	0	0.024	582.091	5	61	Feedback	AvoidedLoss	True
584.521	2.981	Lose2	0.7097	n/a	Yes	2.981	n/a	n/a	GoodResponse	0	0.0	n/a	5	61	ISIslide	AvoidedLoss	True
587.513	0.25	Lose2	0.7143	0.0	Yes	2.887	0.013	n/a	GoodResponse	0	n/a	n/a	5	62	Cue	AvoidedLoss	True
587.764	3.9	Lose2	0.7143	0.0	Yes	2.887	0.001	n/a	GoodResponse	0	n/a	n/a	5	62	Fixation	AvoidedLoss	True
591.659	0.26	Lose2	0.7143	0.004	Yes	2.887	-0.004	4.0	GoodResponse	0	0.181	590.84	5	62	Target	AvoidedLoss	True
591.84	0.3	Lose2	0.7143	0.004	Yes	2.887	-0.004	4.0	GoodResponse	0	0.181	n/a	5	62	ButtonPress	AvoidedLoss	True
591.927	0.44	Lose2	0.7143	n/a	Yes	2.887	n/a	n/a	GoodResponse	0	n/a	n/a	5	62	Blank	AvoidedLoss	True
592.361	1.45	Lose2	0.7143	n/a	Yes	2.887	n/a	5.0	GoodResponse	0	0.047	591.408	5	62	Feedback	AvoidedLoss	True
593.816	2.887	Lose2	0.7143	n/a	Yes	2.887	n/a	n/a	GoodResponse	0	0.0	n/a	5	62	ISIslide	AvoidedLoss	True
596.724	0.25	Lose2	0.7188	0.0	Yes	2.626	0.024	n/a	GoodResponse	0	n/a	n/a	5	63	Cue	AvoidedLoss	True
596.975	4.05	Lose2	0.7188	0.0	Yes	2.626	0.001	n/a	GoodResponse	0	n/a	n/a	5	63	Fixation	AvoidedLoss	True
601.021	0.25	Lose2	0.7188	0.003	Yes	2.626	-0.003	4.0	GoodResponse	0	0.185	600.206	5	63	Target	AvoidedLoss	True
601.206	0.3	Lose2	0.7188	0.003	Yes	2.626	-0.003	4.0	GoodResponse	0	0.185	n/a	5	63	ButtonPress	AvoidedLoss	True
601.271	0.45	Lose2	0.7188	n/a	Yes	2.626	n/a	n/a	GoodResponse	0	n/a	n/a	5	63	Blank	AvoidedLoss	True
601.723	1.45	Lose2	0.7188	n/a	Yes	2.626	n/a	5.0	GoodResponse	0	0.004	600.727	5	63	Feedback	AvoidedLoss	True
603.177	2.626	Lose2	0.7188	n/a	Yes	2.626	n/a	n/a	GoodResponse	0	0.0	n/a	5	63	ISIslide	AvoidedLoss	True
605.818	0.25	Win2	0.7231000000000001	0.0	Yes	3.132	0.018	n/a	GoodResponse	1	n/a	n/a	6	64	Cue	Win	True
606.069	4.15	Win2	0.7231000000000001	0.0	Yes	3.132	0.001	n/a	GoodResponse	1	n/a	n/a	6	64	Fixation	Win	True
610.215	0.24	Win2	0.7231000000000001	0.003	Yes	3.132	-0.003	4.0	GoodResponse	1	0.195	609.41	6	64	Target	Win	True
610.41	0.3	Win2	0.7231000000000001	0.003	Yes	3.132	-0.003	4.0	GoodResponse	1	0.195	n/a	6	64	ButtonPress	Win	True
610.465	0.46	Win2	0.7231000000000001	n/a	Yes	3.132	n/a	n/a	GoodResponse	1	n/a	n/a	6	64	Blank	Win	True
610.917	1.45	Win2	0.7231000000000001	n/a	Yes	3.132	n/a	5.0	GoodResponse	1	0.028	609.945	6	64	Feedback	Win	True
612.371	3.132	Win2	0.7231000000000001	n/a	Yes	3.132	n/a	n/a	GoodResponse	1	0.0	n/a	6	64	ISIslide	Win	True
615.514	0.25	Control	0.7273000000000001	0.0	Yes	2.786	0.014	n/a	GoodResponse	0	n/a	n/a	6	65	Cue	Neutral	True
615.765	4.0	Control	0.7273000000000001	0.0	Yes	2.786	0.001	n/a	GoodResponse	0	n/a	n/a	6	65	Fixation	Neutral	True
619.76	0.23	Control	0.7273000000000001	0.004	Yes	2.786	-0.004	4.0	GoodResponse	0	0.196	618.956	6	65	Target	Neutral	True
619.956	0.3	Control	0.7273000000000001	0.004	Yes	2.786	-0.004	4.0	GoodResponse	0	0.196	n/a	6	65	ButtonPress	Neutral	True
619.994	0.47	Control	0.7273000000000001	n/a	Yes	2.786	n/a	n/a	GoodResponse	0	n/a	n/a	6	65	Blank	Neutral	True
620.462	1.45	Control	0.7273000000000001	n/a	Yes	2.786	n/a	5.0	GoodResponse	0	0.044	619.506	6	65	Feedback	Neutral	True
621.916	2.786	Control	0.7273000000000001	n/a	Yes	2.786	n/a	n/a	GoodResponse	0	0.0	n/a	6	65	ISIslide	Neutral	True
624.725	0.25	Win2	0.7313	0.0	Yes	2.775	0.025	n/a	GoodResponse	1	n/a	n/a	7	66	Cue	Win	True
624.976	3.9	Win2	0.7313	0.0	Yes	2.775	0.001	n/a	GoodResponse	1	n/a	n/a	7	66	Fixation	Win	True
628.871	0.22	Win2	0.7313	0.004	Yes	2.775	-0.004	4.0	GoodResponse	1	0.187	628.058	7	66	Target	Win	True
629.058	0.3	Win2	0.7313	0.004	Yes	2.775	-0.004	4.0	GoodResponse	1	0.187	n/a	7	66	ButtonPress	Win	True
629.105	0.48	Win2	0.7313	n/a	Yes	2.775	n/a	n/a	GoodResponse	1	n/a	n/a	7	66	Blank	Win	True
629.573	1.45	Win2	0.7313	n/a	Yes	2.775	n/a	5.0	GoodResponse	1	0.005	628.578	7	66	Feedback	Win	True
631.027	2.775	Win2	0.7313	n/a	Yes	2.775	n/a	n/a	GoodResponse	1	0.0	n/a	7	66	ISIslide	Win	True
633.819	0.25	Control	0.7353000000000001	0.0	Yes	2.731	0.019	n/a	GoodResponse	0	n/a	n/a	7	67	Cue	Neutral	True
634.069	3.95	Control	0.7353000000000001	0.001	Yes	2.731	0.0	n/a	GoodResponse	0	n/a	n/a	7	67	Fixation	Neutral	True
638.015	0.21	Control	0.7353000000000001	0.004	Yes	2.731	-0.004	4.0	GoodResponse	0	0.188	637.203	7	67	Target	Neutral	True
638.203	0.3	Control	0.7353000000000001	0.004	Yes	2.731	-0.004	4.0	GoodResponse	0	0.188	n/a	7	67	ButtonPress	Neutral	True
638.232	0.49	Control	0.7353000000000001	n/a	Yes	2.731	n/a	n/a	GoodResponse	0	n/a	n/a	7	67	Blank	Neutral	True
638.717	1.45	Control	0.7353000000000001	n/a	Yes	2.731	n/a	5.0	GoodResponse	0	0.032	637.749	7	67	Feedback	Neutral	True
640.171	2.731	Control	0.7353000000000001	n/a	Yes	2.731	n/a	n/a	GoodResponse	0	0.0	n/a	7	67	ISIslide	Neutral	True
642.929	0.25	Win2	0.7391	0.0	Yes	3.071	0.029	n/a	GoodResponse	1	n/a	n/a	8	68	Cue	Win	True
643.18	4.0	Win2	0.7391	0.0	Yes	3.071	0.001	n/a	GoodResponse	1	n/a	n/a	8	68	Fixation	Win	True
647.175	0.2	Win2	0.7391	0.004	Yes	3.071	-0.004	4.0	GoodResponse	1	0.174	646.349	8	68	Target	Win	True
647.349	0.3	Win2	0.7391	0.004	Yes	3.071	-0.004	4.0	GoodResponse	1	0.174	n/a	8	68	ButtonPress	Win	True
647.376	0.5	Win2	0.7391	n/a	Yes	3.071	n/a	n/a	GoodResponse	1	n/a	n/a	8	68	Blank	Win	True
647.877	1.45	Win2	0.7391	n/a	Yes	3.071	n/a	5.0	GoodResponse	1	0.043	646.92	8	68	Feedback	Win	True
649.332	3.071	Win2	0.7391	n/a	Yes	3.071	n/a	n/a	GoodResponse	1	0.0	n/a	8	68	ISIslide	Win	True
652.424	0.25	Win2	0.7429000000000001	0.0	Yes	3.226	0.024	n/a	GoodResponse	1	n/a	n/a	9	69	Cue	Win	True
652.675	3.95	Win2	0.7429000000000001	0.0	Yes	3.226	0.001	n/a	GoodResponse	1	n/a	n/a	9	69	Fixation	Win	True
656.62	0.19	Win2	0.7429000000000001	0.004	Yes	3.226	-0.004	4.0	GoodResponse	1	0.166	655.786	9	69	Target	Win	True
656.786	0.3	Win2	0.7429000000000001	0.004	Yes	3.226	-0.004	4.0	GoodResponse	1	0.166	n/a	9	69	ButtonPress	Win	True
656.821	0.51	Win2	0.7429000000000001	n/a	Yes	3.226	n/a	n/a	GoodResponse	1	n/a	n/a	9	69	Blank	Win	True
657.322	1.45	Win2	0.7429000000000001	n/a	Yes	3.226	n/a	5.0	GoodResponse	1	0.013	656.335	9	69	Feedback	Win	True
658.777	3.226	Win2	0.7429000000000001	n/a	Yes	3.226	n/a	n/a	GoodResponse	1	0.0	n/a	9	69	ISIslide	Win	True
662.02	0.25	Lose2	0.7323999999999999	0.0	No	3.03	0.02	n/a	NoResponse	-1	n/a	n/a	8	70	Cue	Loss	False
662.271	4.05	Lose2	0.7323999999999999	0.0	No	3.03	0.001	4.0	NoResponse	-1	3.94	665.211	8	70	Fixation	Loss	False
666.211	0.3	Lose2	0.7323999999999999	0.0	No	3.03	0.001	4.0	NoResponse	-1	3.94	n/a	8	70	ButtonPress	Loss	False
666.316	0.18	Lose2	0.7323999999999999	0.004	No	3.03	-0.004	4.0	NoResponse	-1	0.206	665.522	8	70	Target	Loss	False
666.5	0.52	Lose2	0.7323999999999999	n/a	No	3.03	n/a	n/a	NoResponse	-1	n/a	n/a	8	70	Blank	Loss	False
666.522	0.3	Lose2	0.7323999999999999	0.004	No	3.03	-0.004	4.0	NoResponse	-1	0.206	n/a	8	70	ButtonPress	Loss	False
667.018	1.45	Lose2	0.7323999999999999	n/a	No	3.03	n/a	5.0	NoResponse	-1	0.024	666.042	8	70	Feedback	Loss	False
668.472	3.03	Lose2	0.7323999999999999	n/a	No	3.03	n/a	n/a	NoResponse	-1	0.0	n/a	8	70	ISIslide	Loss	False
671.515	0.25	Win2	0.7361	0.0	Yes	2.735	0.015	n/a	GoodResponse	1	n/a	n/a	9	71	Cue	Win	True
671.766	4.05	Win2	0.7361	0.0	Yes	2.735	0.001	n/a	GoodResponse	1	n/a	n/a	9	71	Fixation	Win	True
675.811	0.17	Win2	0.7361	0.004	Yes	2.735	-0.004	4.0	GoodResponse	1	0.16	674.971	9	71	Target	Win	True
675.971	0.3	Win2	0.7361	0.004	Yes	2.735	-0.004	4.0	GoodResponse	1	0.16	n/a	9	71	ButtonPress	Win	True
675.995	0.53	Win2	0.7361	n/a	Yes	2.735	n/a	n/a	GoodResponse	1	n/a	n/a	9	71	Blank	Win	True
676.513	1.45	Win2	0.7361	n/a	Yes	2.735	n/a	5.0	GoodResponse	1	0.04	675.553	9	71	Feedback	Win	True
677.968	2.735	Win2	0.7361	n/a	Yes	2.735	n/a	n/a	GoodResponse	1	0.0	n/a	9	71	ISIslide	Win	True
680.726	0.25	Win2	0.726	0.0	No	2.774	0.026	n/a	NoResponse	0	n/a	n/a	9	72	Cue	MissedWin	True
680.977	4.1	Win2	0.726	0.0	No	2.774	0.001	n/a	NoResponse	0	n/a	n/a	9	72	Fixation	MissedWin	True
685.072	0.16	Win2	0.726	0.004	No	2.774	-0.004	4.0	NoResponse	0	0.187	684.259	9	72	Target	MissedWin	True
685.239	0.54	Win2	0.726	n/a	No	2.774	n/a	n/a	NoResponse	0	n/a	n/a	9	72	Blank	MissedWin	True
685.259	0.3	Win2	0.726	0.004	No	2.774	-0.004	4.0	NoResponse	0	0.187	n/a	9	72	ButtonPress	MissedWin	True
685.774	1.45	Win2	0.726	n/a	No	2.774	n/a	5.0	NoResponse	0	0.048	684.822	9	72	Feedback	MissedWin	True
687.229	2.774	Win2	0.726	n/a	No	2.774	n/a	n/a	NoResponse	0	0.0	n/a	9	72	ISIslide	MissedWin	True
690.02	0.25	Win2	0.7162000000000001	0.0	No	2.68	0.02	n/a	NoResponse	0	n/a	n/a	9	73	Cue	MissedWin	True
690.271	4.0	Win2	0.7162000000000001	0.0	No	2.68	0.001	n/a	NoResponse	0	n/a	n/a	9	73	Fixation	MissedWin	True
694.266	0.15	Win2	0.7162000000000001	0.004	No	2.68	-0.004	4.0	NoResponse	0	0.181	693.447	9	73	Target	MissedWin	True
694.417	0.55	Win2	0.7162000000000001	n/a	No	2.68	n/a	n/a	NoResponse	0	n/a	n/a	9	73	Blank	MissedWin	True
694.447	0.3	Win2	0.7162000000000001	0.004	No	2.68	-0.004	4.0	NoResponse	0	0.181	n/a	9	73	ButtonPress	MissedWin	True
694.968	1.45	Win2	0.7162000000000001	n/a	No	2.68	n/a	5.0	NoResponse	0	0.025	693.993	9	73	Feedback	MissedWin	True
696.423	2.68	Win2	0.7162000000000001	n/a	No	2.68	n/a	n/a	NoResponse	0	0.0	n/a	9	73	ISIslide	MissedWin	True
699.114	0.25	Lose2	0.7067	0.0	No	2.636	0.014	n/a	NoResponse	-1	n/a	n/a	8	74	Cue	Loss	True
699.365	4.05	Lose2	0.7067	0.0	No	2.636	0.001	n/a	NoResponse	-1	n/a	n/a	8	74	Fixation	Loss	True
703.41	0.15	Lose2	0.7067	0.004	No	2.636	-0.004	4.0	NoResponse	-1	0.214	702.624	8	74	Target	Loss	True
703.561	0.55	Lose2	0.7067	n/a	No	2.636	n/a	n/a	NoResponse	-1	n/a	n/a	8	74	Blank	Loss	True
703.624	0.3	Lose2	0.7067	0.004	No	2.636	-0.004	4.0	NoResponse	-1	0.214	n/a	8	74	ButtonPress	Loss	True
704.112	1.45	Lose2	0.7067	n/a	No	2.636	n/a	5.0	NoResponse	-1	0.005	703.117	8	74	Feedback	Loss	True
705.567	2.636	Lose2	0.7067	n/a	No	2.636	n/a	n/a	NoResponse	-1	0.0	n/a	8	74	ISIslide	Loss	True
708.225	0.25	Lose2	0.6973999999999999	0.0	No	2.925	0.025	n/a	NoResponse	-1	n/a	n/a	7	75	Cue	Loss	False
708.475	3.95	Lose2	0.6973999999999999	0.001	No	2.925	0.0	4.0	NoResponse	-1	3.881	711.356	7	75	Fixation	Loss	False
712.356	0.3	Lose2	0.6973999999999999	0.001	No	2.925	0.0	4.0	NoResponse	-1	3.881	n/a	7	75	ButtonPress	Loss	False
712.421	0.15	Lose2	0.6973999999999999	0.004	No	2.925	-0.004	4.0	NoResponse	-1	0.208	711.629	7	75	Target	Loss	False
712.571	0.55	Lose2	0.6973999999999999	n/a	No	2.925	n/a	n/a	NoResponse	-1	n/a	n/a	7	75	Blank	Loss	False
712.629	0.3	Lose2	0.6973999999999999	0.004	No	2.925	-0.004	4.0	NoResponse	-1	0.208	n/a	7	75	ButtonPress	Loss	False
713.123	1.45	Lose2	0.6973999999999999	n/a	No	2.925	n/a	5.0	NoResponse	-1	0.016	712.139	7	75	Feedback	Loss	False
714.577	2.925	Lose2	0.6973999999999999	n/a	No	2.925	n/a	n/a	NoResponse	-1	0.0	n/a	7	75	ISIslide	Loss	False
717.519	0.25	Control	0.6883	0.0	No	3.231	0.019	n/a	NoResponse	0	n/a	n/a	7	76	Cue	Neutral	True
717.77	4.05	Control	0.6883	0.0	No	3.231	0.001	n/a	NoResponse	0	n/a	n/a	7	76	Fixation	Neutral	True
721.815	0.15	Control	0.6883	0.004	No	3.231	-0.004	4.0	NoResponse	0	0.181	720.996	7	76	Target	Neutral	True
721.966	0.55	Control	0.6883	n/a	No	3.231	n/a	n/a	NoResponse	0	n/a	n/a	7	76	Blank	Neutral	True
721.996	0.3	Control	0.6883	0.004	No	3.231	-0.004	4.0	NoResponse	0	0.181	n/a	7	76	ButtonPress	Neutral	True
722.518	1.45	Control	0.6883	n/a	No	3.231	n/a	5.0	NoResponse	0	0.035	721.553	7	76	Feedback	Neutral	True
723.972	3.231	Control	0.6883	n/a	No	3.231	n/a	n/a	NoResponse	0	0.0	n/a	7	76	ISIslide	Neutral	True
727.215	0.25	Lose2	0.6795	0.0	No	2.585	0.015	n/a	NoResponse	-1	n/a	n/a	6	77	Cue	Loss	True
727.466	3.95	Lose2	0.6795	0.0	No	2.585	0.001	n/a	NoResponse	-1	n/a	n/a	6	77	Fixation	Loss	True
731.411	0.15	Lose2	0.6795	0.004	No	2.585	-0.004	4.0	NoResponse	-1	0.199	730.61	6	77	Target	Loss	True
731.561	0.55	Lose2	0.6795	n/a	No	2.585	n/a	n/a	NoResponse	-1	n/a	n/a	6	77	Blank	Loss	True
731.61	0.3	Lose2	0.6795	0.004	No	2.585	-0.004	4.0	NoResponse	-1	0.199	n/a	6	77	ButtonPress	Loss	True
732.113	1.45	Lose2	0.6795	n/a	No	2.585	n/a	5.0	NoResponse	-1	0.001	731.114	6	77	Feedback	Loss	True
733.567	2.585	Lose2	0.6795	n/a	No	2.585	n/a	n/a	NoResponse	-1	0.0	n/a	6	77	ISIslide	Loss	True
