onset	duration	cue_type	current_mean_accuracy	duration_error	is_hit	isi_adjusted	onset_delay	response	response_type	reward	rt	rt_time	total_reward	trial_number	trial_phase	trial_type	one_press
11.102	0.25	Control	1.0	0.0	Yes	2.948	0.002	n/a	GoodResponse	0	n/a	n/a	0	0	Cue	Neutral	True
11.352	3.85	Control	1.0	0.001	Yes	2.948	0.0	n/a	GoodResponse	0	n/a	n/a	0	0	Fixation	Neutral	True
15.214	0.4	Control	1.0	0.0	Yes	2.948	0.012	2.0	GoodResponse	0	0.195	14.409	0	0	Target	Neutral	True
15.409	0.3	Control	1.0	0.0	Yes	2.948	0.012	2.0	GoodResponse	0	0.195	n/a	0	0	ButtonPress	Neutral	True
15.599	0.3	Control	1.0	n/a	Yes	2.948	n/a	n/a	GoodResponse	0	n/a	n/a	0	0	Blank	Neutral	True
15.899	1.45	Control	1.0	n/a	Yes	2.948	n/a	5.0	GoodResponse	0	0.028	14.927	0	0	Feedback	Neutral	True
17.354	2.948	Control	1.0	n/a	Yes	2.948	n/a	n/a	GoodResponse	0	0.0	n/a	0	0	ISIslide	Neutral	True
20.38	0.25	Lose2	1.0	0.0	Yes	2.72	0.08	n/a	GoodResponse	0	n/a	n/a	0	1	Cue	AvoidedLoss	True
20.63	4.0	Lose2	1.0	0.0	Yes	2.72	0.0	n/a	GoodResponse	0	n/a	n/a	0	1	Fixation	AvoidedLoss	True
24.626	0.39	Lose2	1.0	0.004	Yes	2.72	-0.004	2.0	GoodResponse	0	0.19	23.816	0	1	Target	AvoidedLoss	True
24.816	0.3	Lose2	1.0	0.004	Yes	2.72	-0.004	2.0	GoodResponse	0	0.19	n/a	0	1	ButtonPress	AvoidedLoss	True
25.027	0.31	Lose2	1.0	n/a	Yes	2.72	n/a	n/a	GoodResponse	0	n/a	n/a	0	1	Blank	AvoidedLoss	True
25.328	1.45	Lose2	1.0	n/a	Yes	2.72	n/a	5.0	GoodResponse	0	0.013	24.341	0	1	Feedback	AvoidedLoss	True
26.782	2.72	Lose2	1.0	n/a	Yes	2.72	n/a	n/a	GoodResponse	0	0.0	n/a	0	1	ISIslide	AvoidedLoss	True
29.524	0.25	Control	0.6667000000000001	0.0	No	2.576	0.024	n/a	NoResponse	0	n/a	n/a	0	2	Cue	Neutral	False
29.774	4.1	Control	0.6667000000000001	0.0	No	2.576	0.0	n/a	NoResponse	0	n/a	n/a	0	2	Fixation	Neutral	False
33.87	0.38	Control	0.6667000000000001	0.004	No	2.576	-0.004	n/a	NoResponse	0	n/a	n/a	0	2	Target	Neutral	False
34.255	0.32	Control	0.6667000000000001	n/a	No	2.576	n/a	n/a	NoResponse	0	n/a	n/a	0	2	Blank	Neutral	False
34.572	1.45	Control	0.6667000000000001	n/a	No	2.576	n/a	5.0	NoResponse	0	0.038	33.61	0	2	Feedback	Neutral	False
36.026	2.576	Control	0.6667000000000001	n/a	No	2.576	n/a	n/a	NoResponse	0	0.0	n/a	0	2	ISIslide	Neutral	False
38.634	0.25	Win2	0.75	0.0	Yes	2.816	0.034	n/a	GoodResponse	1	n/a	n/a	1	3	Cue	Win	True
38.885	3.95	Win2	0.75	0.0	Yes	2.816	0.001	n/a	GoodResponse	1	n/a	n/a	1	3	Fixation	Win	True
42.83	0.37	Win2	0.75	0.004	Yes	2.816	-0.004	2.0	GoodResponse	1	0.2	42.03	1	3	Target	Win	True
43.03	0.3	Win2	0.75	0.004	Yes	2.816	-0.004	2.0	GoodResponse	1	0.2	n/a	1	3	ButtonPress	Win	True
43.215	0.33	Win2	0.75	n/a	Yes	2.816	n/a	n/a	GoodResponse	1	n/a	n/a	1	3	Blank	Win	True
43.532	1.45	Win2	0.75	n/a	Yes	2.816	n/a	5.0	GoodResponse	1	0.008	42.54	1	3	Feedback	Win	True
44.987	2.816	Win2	0.75	n/a	Yes	2.816	n/a	n/a	GoodResponse	1	0.0	n/a	1	3	ISIslide	Win	True
47.829	0.25	Win2	0.8	0.0	Yes	3.271	0.029	n/a	GoodResponse	1	n/a	n/a	2	4	Cue	Win	True
48.079	4.0	Win2	0.8	0.0	Yes	3.271	0.0	n/a	GoodResponse	1	n/a	n/a	2	4	Fixation	Win	True
52.075	0.36	Win2	0.8	0.004	Yes	3.271	-0.004	2.0	GoodResponse	1	0.189	51.264	2	4	Target	Win	True
52.264	0.3	Win2	0.8	0.004	Yes	3.271	-0.004	2.0	GoodResponse	1	0.189	n/a	2	4	ButtonPress	Win	True
52.442	0.34	Win2	0.8	n/a	Yes	3.271	n/a	n/a	GoodResponse	1	n/a	n/a	2	4	Blank	Win	True
52.777	1.45	Win2	0.8	n/a	Yes	3.271	n/a	5.0	GoodResponse	1	0.027	51.804	2	4	Feedback	Win	True
54.231	3.271	Win2	0.8	n/a	Yes	3.271	n/a	n/a	GoodResponse	1	0.0	n/a	2	4	ISIslide	Win	True
57.524	0.25	Win2	0.6667000000000001	0.0	No	2.776	0.024	n/a	NoResponse	0	n/a	n/a	2	5	Cue	MissedWin	True
57.775	4.0	Win2	0.6667000000000001	0.0	No	2.776	0.001	n/a	NoResponse	0	n/a	n/a	2	5	Fixation	MissedWin	True
61.77	0.35	Win2	0.6667000000000001	0.004	No	2.776	-0.004	2.0	NoResponse	0	0.429	61.199	2	5	Target	MissedWin	True
62.121	0.35	Win2	0.6667000000000001	n/a	No	2.776	n/a	n/a	NoResponse	0	n/a	n/a	2	5	Blank	MissedWin	True
62.199	0.3	Win2	0.6667000000000001	0.004	No	2.776	-0.004	2.0	NoResponse	0	0.429	n/a	2	5	ButtonPress	MissedWin	True
62.472	1.45	Win2	0.6667000000000001	n/a	No	2.776	n/a	5.0	NoResponse	0	0.039	61.511	2	5	Feedback	MissedWin	True
63.927	2.776	Win2	0.6667000000000001	n/a	No	2.776	n/a	n/a	NoResponse	0	0.0	n/a	2	5	ISIslide	MissedWin	True
66.719	0.25	Lose2	0.7143	0.0	Yes	2.731	0.019	n/a	GoodResponse	0	n/a	n/a	2	6	Cue	AvoidedLoss	True
66.969	3.95	Lose2	0.7143	0.0	Yes	2.731	0.0	n/a	GoodResponse	0	n/a	n/a	2	6	Fixation	AvoidedLoss	True
70.931	0.34	Lose2	0.7143	0.0	Yes	2.731	0.012	2.0	GoodResponse	0	0.198	70.129	2	6	Target	AvoidedLoss	True
71.129	0.3	Lose2	0.7143	0.0	Yes	2.731	0.012	2.0	GoodResponse	0	0.198	n/a	2	6	ButtonPress	AvoidedLoss	True
71.266	0.36	Lose2	0.7143	n/a	Yes	2.731	n/a	n/a	GoodResponse	0	n/a	n/a	2	6	Blank	AvoidedLoss	True
71.617	1.45	Lose2	0.7143	n/a	Yes	2.731	n/a	5.0	GoodResponse	0	0.016	70.633	2	6	Feedback	AvoidedLoss	True
73.071	2.731	Lose2	0.7143	n/a	Yes	2.731	n/a	n/a	GoodResponse	0	0.0	n/a	2	6	ISIslide	AvoidedLoss	True
75.829	0.25	Lose2	0.75	0.0	Yes	4.021	0.029	n/a	GoodResponse	0	n/a	n/a	2	7	Cue	AvoidedLoss	True
76.08	4.05	Lose2	0.75	0.0	Yes	4.021	0.001	n/a	GoodResponse	0	n/a	n/a	2	7	Fixation	AvoidedLoss	True
80.125	0.33	Lose2	0.75	0.004	Yes	4.021	-0.004	2.0	GoodResponse	0	0.211	79.336	2	7	Target	AvoidedLoss	True
80.336	0.3	Lose2	0.75	0.004	Yes	4.021	-0.004	2.0	GoodResponse	0	0.211	n/a	2	7	ButtonPress	AvoidedLoss	True
80.46	0.37	Lose2	0.75	n/a	Yes	4.021	n/a	n/a	GoodResponse	0	n/a	n/a	2	7	Blank	AvoidedLoss	True
80.828	1.45	Lose2	0.75	n/a	Yes	4.021	n/a	5.0	GoodResponse	0	0.025	79.853	2	7	Feedback	AvoidedLoss	True
82.282	4.021	Lose2	0.75	n/a	Yes	4.021	n/a	n/a	GoodResponse	0	0.0	n/a	2	7	ISIslide	AvoidedLoss	True
86.327	0.25	Lose2	0.7778	0.0	Yes	3.023	0.027	n/a	GoodResponse	0	n/a	n/a	2	8	Cue	AvoidedLoss	True
86.578	3.95	Lose2	0.7778	0.0	Yes	3.023	0.001	n/a	GoodResponse	0	n/a	n/a	2	8	Fixation	AvoidedLoss	True
90.523	0.32	Lose2	0.7778	0.004	Yes	3.023	-0.004	2.0	GoodResponse	0	0.212	89.735	2	8	Target	AvoidedLoss	True
90.735	0.3	Lose2	0.7778	0.004	Yes	3.023	-0.004	2.0	GoodResponse	0	0.212	n/a	2	8	ButtonPress	AvoidedLoss	True
90.858	0.38	Lose2	0.7778	n/a	Yes	3.023	n/a	n/a	GoodResponse	0	n/a	n/a	2	8	Blank	AvoidedLoss	True
91.225	1.45	Lose2	0.7778	n/a	Yes	3.023	n/a	5.0	GoodResponse	0	0.018	90.243	2	8	Feedback	AvoidedLoss	True
92.68	3.023	Lose2	0.7778	n/a	Yes	3.023	n/a	n/a	GoodResponse	0	0.0	n/a	2	8	ISIslide	AvoidedLoss	True
95.722	0.25	Lose2	0.8	0.0	Yes	3.128	0.022	n/a	GoodResponse	0	n/a	n/a	2	9	Cue	AvoidedLoss	True
95.973	3.95	Lose2	0.8	0.0	Yes	3.128	0.001	n/a	GoodResponse	0	n/a	n/a	2	9	Fixation	AvoidedLoss	True
99.918	0.31	Lose2	0.8	0.004	Yes	3.128	-0.004	2.0	GoodResponse	0	0.205	99.123	2	9	Target	AvoidedLoss	True
100.123	0.3	Lose2	0.8	0.004	Yes	3.128	-0.004	2.0	GoodResponse	0	0.205	n/a	2	9	ButtonPress	AvoidedLoss	True
100.236	0.39	Lose2	0.8	n/a	Yes	3.128	n/a	n/a	GoodResponse	0	n/a	n/a	2	9	Blank	AvoidedLoss	True
100.62	1.45	Lose2	0.8	n/a	Yes	3.128	n/a	5.0	GoodResponse	0	0.038	99.658	2	9	Feedback	AvoidedLoss	True
102.075	3.128	Lose2	0.8	n/a	Yes	3.128	n/a	n/a	GoodResponse	0	0.0	n/a	2	9	ISIslide	AvoidedLoss	True
105.217	0.25	Control	0.8181999999999999	0.0	Yes	3.283	0.017	n/a	GoodResponse	0	n/a	n/a	2	10	Cue	Neutral	True
105.468	4.0	Control	0.8181999999999999	0.0	Yes	3.283	0.001	n/a	GoodResponse	0	n/a	n/a	2	10	Fixation	Neutral	True
109.463	0.3	Control	0.8181999999999999	0.004	Yes	3.283	-0.004	2.0	GoodResponse	0	0.217	108.68	2	10	Target	Neutral	True
109.68	0.3	Control	0.8181999999999999	0.004	Yes	3.283	-0.004	2.0	GoodResponse	0	0.217	n/a	2	10	ButtonPress	Neutral	True
109.764	0.4	Control	0.8181999999999999	n/a	Yes	3.283	n/a	n/a	GoodResponse	0	n/a	n/a	2	10	Blank	Neutral	True
110.166	1.45	Control	0.8181999999999999	n/a	Yes	3.283	n/a	5.0	GoodResponse	0	0.007	109.173	2	10	Feedback	Neutral	True
111.62	3.283	Control	0.8181999999999999	n/a	Yes	3.283	n/a	n/a	GoodResponse	0	0.0	n/a	2	10	ISIslide	Neutral	True
114.93	0.25	Lose2	0.8332999999999999	0.0	Yes	2.72	0.03	n/a	GoodResponse	0	n/a	n/a	2	11	Cue	AvoidedLoss	True
115.181	4.05	Lose2	0.8332999999999999	0.0	Yes	2.72	0.001	n/a	GoodResponse	0	n/a	n/a	2	11	Fixation	AvoidedLoss	True
119.226	0.29	Lose2	0.8332999999999999	0.004	Yes	2.72	-0.004	2.0	GoodResponse	0	0.267	118.493	2	11	Target	AvoidedLoss	True
119.493	0.3	Lose2	0.8332999999999999	0.004	Yes	2.72	-0.004	2.0	GoodResponse	0	0.267	n/a	2	11	ButtonPress	AvoidedLoss	True
119.527	0.41	Lose2	0.8332999999999999	n/a	Yes	2.72	n/a	n/a	GoodResponse	0	n/a	n/a	2	11	Blank	AvoidedLoss	True
119.928	1.45	Lose2	0.8332999999999999	n/a	Yes	2.72	n/a	5.0	GoodResponse	0	0.047	118.975	2	11	Feedback	AvoidedLoss	True
121.383	2.72	Lose2	0.8332999999999999	n/a	Yes	2.72	n/a	n/a	GoodResponse	0	0.0	n/a	2	11	ISIslide	AvoidedLoss	True
124.124	0.25	Control	0.8462000000000001	0.0	Yes	2.976	0.024	n/a	GoodResponse	0	n/a	n/a	2	12	Cue	Neutral	True
124.375	3.9	Control	0.8462000000000001	0.0	Yes	2.976	0.001	n/a	GoodResponse	0	n/a	n/a	2	12	Fixation	Neutral	True
128.27	0.28	Control	0.8462000000000001	0.004	Yes	2.976	-0.004	2.0	GoodResponse	0	0.186	127.456	2	12	Target	Neutral	True
128.456	0.3	Control	0.8462000000000001	0.004	Yes	2.976	-0.004	2.0	GoodResponse	0	0.186	n/a	2	12	ButtonPress	Neutral	True
128.554	0.42	Control	0.8462000000000001	n/a	Yes	2.976	n/a	n/a	GoodResponse	0	n/a	n/a	2	12	Blank	Neutral	True
128.972	1.45	Control	0.8462000000000001	n/a	Yes	2.976	n/a	5.0	GoodResponse	0	0.027	127.999	2	12	Feedback	Neutral	True
130.426	2.976	Control	0.8462000000000001	n/a	Yes	2.976	n/a	n/a	GoodResponse	0	0.0	n/a	2	12	ISIslide	Neutral	True
133.419	0.25	Control	0.8571	0.0	Yes	2.781	0.019	n/a	GoodResponse	0	n/a	n/a	2	13	Cue	Neutral	True
133.669	4.0	Control	0.8571	0.0	Yes	2.781	0.0	n/a	GoodResponse	0	n/a	n/a	2	13	Fixation	Neutral	True
137.665	0.27	Control	0.8571	0.004	Yes	2.781	-0.004	2.0	GoodResponse	0	0.207	136.872	2	13	Target	Neutral	True
137.872	0.3	Control	0.8571	0.004	Yes	2.781	-0.004	2.0	GoodResponse	0	0.207	n/a	2	13	ButtonPress	Neutral	True
137.949	0.43	Control	0.8571	n/a	Yes	2.781	n/a	n/a	GoodResponse	0	n/a	n/a	2	13	Blank	Neutral	True
138.367	1.45	Control	0.8571	n/a	Yes	2.781	n/a	5.0	GoodResponse	0	0.047	137.414	2	13	Feedback	Neutral	True
139.821	2.781	Control	0.8571	n/a	Yes	2.781	n/a	n/a	GoodResponse	0	0.0	n/a	2	13	ISIslide	Neutral	True
142.63	0.25	Win2	0.8667	0.0	Yes	2.67	0.03	n/a	GoodResponse	1	n/a	n/a	3	14	Cue	Win	True
142.88	4.1	Win2	0.8667	0.0	Yes	2.67	0.0	n/a	GoodResponse	1	n/a	n/a	3	14	Fixation	Win	True
146.976	0.26	Win2	0.8667	0.004	Yes	2.67	-0.004	2.0	GoodResponse	1	0.227	146.203	3	14	Target	Win	True
147.203	0.3	Win2	0.8667	0.004	Yes	2.67	-0.004	2.0	GoodResponse	1	0.227	n/a	3	14	ButtonPress	Win	True
147.243	0.44	Win2	0.8667	n/a	Yes	2.67	n/a	n/a	GoodResponse	1	n/a	n/a	3	14	Blank	Win	True
147.678	1.45	Win2	0.8667	n/a	Yes	2.67	n/a	5.0	GoodResponse	1	0.007	146.685	3	14	Feedback	Win	True
149.132	2.67	Win2	0.8667	n/a	Yes	2.67	n/a	n/a	GoodResponse	1	0.0	n/a	3	14	ISIslide	Win	True
151.824	0.25	Control	0.8125	0.0	No	2.976	0.024	n/a	NoResponse	0	n/a	n/a	3	15	Cue	Neutral	False
152.075	4.0	Control	0.8125	0.0	No	2.976	0.001	n/a	NoResponse	0	n/a	n/a	3	15	Fixation	Neutral	False
156.07	0.25	Control	0.8125	0.004	No	2.976	-0.004	n/a	NoResponse	0	n/a	n/a	3	15	Target	Neutral	False
156.321	0.45	Control	0.8125	n/a	No	2.976	n/a	n/a	NoResponse	0	n/a	n/a	3	15	Blank	Neutral	False
156.772	1.45	Control	0.8125	n/a	No	2.976	n/a	5.0	NoResponse	0	0.032	155.804	3	15	Feedback	Neutral	False
158.226	2.976	Control	0.8125	n/a	No	2.976	n/a	n/a	NoResponse	0	0.0	n/a	3	15	ISIslide	Neutral	False
161.219	0.25	Win2	0.8234999999999999	0.0	Yes	2.881	0.019	n/a	GoodResponse	1	n/a	n/a	4	16	Cue	Win	True
161.469	4.0	Win2	0.8234999999999999	0.001	Yes	2.881	0.0	n/a	GoodResponse	1	n/a	n/a	4	16	Fixation	Win	True
165.465	0.24	Win2	0.8234999999999999	0.004	Yes	2.881	-0.004	2.0	GoodResponse	1	0.214	164.679	4	16	Target	Win	True
165.679	0.3	Win2	0.8234999999999999	0.004	Yes	2.881	-0.004	2.0	GoodResponse	1	0.214	n/a	4	16	ButtonPress	Win	True
165.716	0.46	Win2	0.8234999999999999	n/a	Yes	2.881	n/a	n/a	GoodResponse	1	n/a	n/a	4	16	Blank	Win	True
166.167	1.45	Win2	0.8234999999999999	n/a	Yes	2.881	n/a	5.0	GoodResponse	1	0.007	165.174	4	16	Feedback	Win	True
167.621	2.881	Win2	0.8234999999999999	n/a	Yes	2.881	n/a	n/a	GoodResponse	1	0.0	n/a	4	16	ISIslide	Win	True
170.53	0.25	Lose2	0.7778	0.0	No	2.72	0.03	n/a	NoResponse	-1	n/a	n/a	3	17	Cue	Loss	True
170.781	3.95	Lose2	0.7778	0.0	No	2.72	0.001	n/a	NoResponse	-1	n/a	n/a	3	17	Fixation	Loss	True
174.726	0.23	Lose2	0.7778	0.004	No	2.72	-0.004	2.0	NoResponse	-1	0.34	174.066	3	17	Target	Loss	True
174.96	0.47	Lose2	0.7778	n/a	No	2.72	n/a	n/a	NoResponse	-1	n/a	n/a	3	17	Blank	Loss	True
175.066	0.3	Lose2	0.7778	0.004	No	2.72	-0.004	2.0	NoResponse	-1	0.34	n/a	3	17	ButtonPress	Loss	True
175.428	1.45	Lose2	0.7778	n/a	No	2.72	n/a	5.0	NoResponse	-1	0.01	174.438	3	17	Feedback	Loss	True
176.882	2.72	Lose2	0.7778	n/a	No	2.72	n/a	n/a	NoResponse	-1	0.0	n/a	3	17	ISIslide	Loss	True
179.624	0.25	Lose2	0.7895	0.0	Yes	2.726	0.024	n/a	GoodResponse	0	n/a	n/a	3	18	Cue	AvoidedLoss	True
179.875	4.05	Lose2	0.7895	0.0	Yes	2.726	0.001	n/a	GoodResponse	0	n/a	n/a	3	18	Fixation	AvoidedLoss	True
183.92	0.22	Lose2	0.7895	0.004	Yes	2.726	-0.004	2.0	GoodResponse	0	0.198	183.118	3	18	Target	AvoidedLoss	True
184.118	0.3	Lose2	0.7895	0.004	Yes	2.726	-0.004	2.0	GoodResponse	0	0.198	n/a	3	18	ButtonPress	AvoidedLoss	True
184.154	0.48	Lose2	0.7895	n/a	Yes	2.726	n/a	n/a	GoodResponse	0	n/a	n/a	3	18	Blank	AvoidedLoss	True
184.622	1.45	Lose2	0.7895	n/a	Yes	2.726	n/a	5.0	GoodResponse	0	0.036	183.658	3	18	Feedback	AvoidedLoss	True
186.077	2.726	Lose2	0.7895	n/a	Yes	2.726	n/a	n/a	GoodResponse	0	0.0	n/a	3	18	ISIslide	AvoidedLoss	True
188.818	0.25	Control	0.75	0.0	No	2.932	0.018	n/a	NoResponse	0	n/a	n/a	3	19	Cue	Neutral	True
189.069	3.95	Control	0.75	0.0	No	2.932	0.001	n/a	NoResponse	0	n/a	n/a	3	19	Fixation	Neutral	True
193.014	0.21	Control	0.75	0.004	No	2.932	-0.004	2.0	NoResponse	0	0.26	192.274	3	19	Target	Neutral	True
193.231	0.49	Control	0.75	n/a	No	2.932	n/a	n/a	NoResponse	0	n/a	n/a	3	19	Blank	Neutral	True
193.274	0.3	Control	0.75	0.004	No	2.932	-0.004	2.0	NoResponse	0	0.26	n/a	3	19	ButtonPress	Neutral	True
193.716	1.45	Control	0.75	n/a	No	2.932	n/a	5.0	NoResponse	0	0.015	192.731	3	19	Feedback	Neutral	True
195.171	2.932	Control	0.75	n/a	No	2.932	n/a	n/a	NoResponse	0	0.0	n/a	3	19	ISIslide	Neutral	True
198.129	0.25	Control	0.7143	0.001	No	2.621	0.029	n/a	NoResponse	0	n/a	n/a	3	20	Cue	Neutral	False
198.38	4.05	Control	0.7143	0.0	No	2.621	0.001	n/a	NoResponse	0	n/a	n/a	3	20	Fixation	Neutral	False
202.426	0.2	Control	0.7143	0.003	No	2.621	-0.003	n/a	NoResponse	0	n/a	n/a	3	20	Target	Neutral	False
202.626	0.5	Control	0.7143	n/a	No	2.621	n/a	n/a	NoResponse	0	n/a	n/a	3	20	Blank	Neutral	False
203.128	1.45	Control	0.7143	n/a	No	2.621	n/a	5.0	NoResponse	0	0.017	202.145	3	20	Feedback	Neutral	False
204.582	2.621	Control	0.7143	n/a	No	2.621	n/a	n/a	NoResponse	0	0.0	n/a	3	20	ISIslide	Neutral	False
207.223	0.25	Control	0.6818000000000001	0.0	No	2.777	0.023	n/a	NoResponse	0	n/a	n/a	3	21	Cue	Neutral	True
207.474	4.1	Control	0.6818000000000001	0.0	No	2.777	0.001	n/a	NoResponse	0	n/a	n/a	3	21	Fixation	Neutral	True
211.57	0.19	Control	0.6818000000000001	0.003	No	2.777	-0.003	2.0	NoResponse	0	0.237	210.807	3	21	Target	Neutral	True
211.77	0.51	Control	0.6818000000000001	n/a	No	2.777	n/a	n/a	NoResponse	0	n/a	n/a	3	21	Blank	Neutral	True
211.807	0.3	Control	0.6818000000000001	0.003	No	2.777	-0.003	2.0	NoResponse	0	0.237	n/a	3	21	ButtonPress	Neutral	True
212.272	1.45	Control	0.6818000000000001	n/a	No	2.777	n/a	5.0	NoResponse	0	0.044	211.316	3	21	Feedback	Neutral	True
213.726	2.777	Control	0.6818000000000001	n/a	No	2.777	n/a	n/a	NoResponse	0	0.0	n/a	3	21	ISIslide	Neutral	True
216.518	0.25	Control	0.6522	0.0	No	2.782	0.018	n/a	NoResponse	0	n/a	n/a	3	22	Cue	Neutral	True
216.769	4.0	Control	0.6522	0.0	No	2.782	0.001	n/a	NoResponse	0	n/a	n/a	3	22	Fixation	Neutral	True
220.764	0.18	Control	0.6522	0.004	No	2.782	-0.004	2.0	NoResponse	0	0.196	219.96	3	22	Target	Neutral	True
220.948	0.52	Control	0.6522	n/a	No	2.782	n/a	n/a	NoResponse	0	n/a	n/a	3	22	Blank	Neutral	True
220.96	0.3	Control	0.6522	0.004	No	2.782	-0.004	2.0	NoResponse	0	0.196	n/a	3	22	ButtonPress	Neutral	True
221.466	1.45	Control	0.6522	n/a	No	2.782	n/a	5.0	NoResponse	0	0.021	220.487	3	22	Feedback	Neutral	True
222.92	2.782	Control	0.6522	n/a	No	2.782	n/a	n/a	NoResponse	0	0.0	n/a	3	22	ISIslide	Neutral	True
225.729	0.25	Control	0.625	0.0	No	2.771	0.029	n/a	LatePress	0	n/a	n/a	3	23	Cue	Neutral	True
225.98	3.9	Control	0.625	0.0	No	2.771	0.001	n/a	LatePress	0	n/a	n/a	3	23	Fixation	Neutral	True
229.875	0.19	Control	0.625	0.004	No	2.771	-0.004	2.0	LatePress	0	0.19	229.065	3	23	Target	Neutral	True
230.065	0.3	Control	0.625	0.004	No	2.771	-0.004	2.0	LatePress	0	0.19	n/a	3	23	ButtonPress	Neutral	True
230.075	0.51	Control	0.625	n/a	No	2.771	n/a	n/a	LatePress	0	n/a	n/a	3	23	Blank	Neutral	True
230.577	1.45	Control	0.625	n/a	No	2.771	n/a	5.0	LatePress	0	0.032	229.609	3	23	Feedback	Neutral	True
232.031	2.771	Control	0.625	n/a	No	2.771	n/a	n/a	LatePress	0	0.0	n/a	3	23	ISIslide	Neutral	True
234.823	0.25	Win2	0.64	0.0	Yes	3.127	0.023	n/a	GoodResponse	1	n/a	n/a	4	24	Cue	Win	True
235.074	3.95	Win2	0.64	0.0	Yes	3.127	0.001	n/a	GoodResponse	1	n/a	n/a	4	24	Fixation	Win	True
239.019	0.2	Win2	0.64	0.004	Yes	3.127	-0.004	2.0	GoodResponse	1	0.187	238.206	4	24	Target	Win	True
239.206	0.3	Win2	0.64	0.004	Yes	3.127	-0.004	2.0	GoodResponse	1	0.187	n/a	4	24	ButtonPress	Win	True
239.219	0.5	Win2	0.64	n/a	Yes	3.127	n/a	n/a	GoodResponse	1	n/a	n/a	4	24	Blank	Win	True
239.721	1.45	Win2	0.64	n/a	Yes	3.127	n/a	5.0	GoodResponse	1	0.01	238.731	4	24	Feedback	Win	True
241.175	3.127	Win2	0.64	n/a	Yes	3.127	n/a	n/a	GoodResponse	1	0.0	n/a	4	24	ISIslide	Win	True
244.318	0.25	Win2	0.6154	0.0	No	3.082	0.018	n/a	NoResponse	0	n/a	n/a	4	25	Cue	MissedWin	True
244.569	4.0	Win2	0.6154	0.0	No	3.082	0.001	n/a	NoResponse	0	n/a	n/a	4	25	Fixation	MissedWin	True
248.564	0.21	Win2	0.6154	0.004	No	3.082	-0.004	2.0	NoResponse	0	0.237	247.801	4	25	Target	MissedWin	True
248.781	0.49	Win2	0.6154	n/a	No	3.082	n/a	n/a	NoResponse	0	n/a	n/a	4	25	Blank	MissedWin	True
248.801	0.3	Win2	0.6154	0.004	No	3.082	-0.004	2.0	NoResponse	0	0.237	n/a	4	25	ButtonPress	MissedWin	True
249.266	1.45	Win2	0.6154	n/a	No	3.082	n/a	5.0	NoResponse	0	0.026	248.292	4	25	Feedback	MissedWin	True
250.721	3.082	Win2	0.6154	n/a	No	3.082	n/a	n/a	NoResponse	0	0.0	n/a	4	25	ISIslide	MissedWin	True
253.83	0.25	Win2	0.6296	0.0	Yes	2.92	0.03	n/a	GoodResponse	1	n/a	n/a	5	26	Cue	Win	True
254.081	3.95	Win2	0.6296	0.0	Yes	2.92	0.001	n/a	GoodResponse	1	n/a	n/a	5	26	Fixation	Win	True
258.026	0.22	Win2	0.6296	0.004	Yes	2.92	-0.004	2.0	GoodResponse	1	0.183	257.209	5	26	Target	Win	True
258.209	0.3	Win2	0.6296	0.004	Yes	2.92	-0.004	2.0	GoodResponse	1	0.183	n/a	5	26	ButtonPress	Win	True
258.26	0.48	Win2	0.6296	n/a	Yes	2.92	n/a	n/a	GoodResponse	1	n/a	n/a	5	26	Blank	Win	True
258.728	1.45	Win2	0.6296	n/a	Yes	2.92	n/a	5.0	GoodResponse	1	0.027	257.755	5	26	Feedback	Win	True
260.182	2.92	Win2	0.6296	n/a	Yes	2.92	n/a	n/a	GoodResponse	1	0.0	n/a	5	26	ISIslide	Win	True
263.124	0.25	Lose2	0.6429	0.0	Yes	2.826	0.024	n/a	GoodResponse	0	n/a	n/a	5	27	Cue	AvoidedLoss	True
263.375	4.05	Lose2	0.6429	0.0	Yes	2.826	0.001	n/a	GoodResponse	0	n/a	n/a	5	27	Fixation	AvoidedLoss	True
267.421	0.23	Lose2	0.6429	0.003	Yes	2.826	-0.003	2.0	GoodResponse	0	0.178	266.599	5	27	Target	AvoidedLoss	True
267.599	0.3	Lose2	0.6429	0.003	Yes	2.826	-0.003	2.0	GoodResponse	0	0.178	n/a	5	27	ButtonPress	AvoidedLoss	True
267.655	0.47	Lose2	0.6429	n/a	Yes	2.826	n/a	n/a	GoodResponse	0	n/a	n/a	5	27	Blank	AvoidedLoss	True
268.123	1.45	Lose2	0.6429	n/a	Yes	2.826	n/a	5.0	GoodResponse	0	0.047	267.17	5	27	Feedback	AvoidedLoss	True
269.577	2.826	Lose2	0.6429	n/a	Yes	2.826	n/a	n/a	GoodResponse	0	0.0	n/a	5	27	ISIslide	AvoidedLoss	True
272.419	0.25	Control	0.6552	0.0	Yes	2.831	0.019	n/a	GoodResponse	0	n/a	n/a	5	28	Cue	Neutral	True
272.67	4.05	Control	0.6552	0.0	Yes	2.831	0.001	n/a	GoodResponse	0	n/a	n/a	5	28	Fixation	Neutral	True
276.715	0.24	Control	0.6552	0.004	Yes	2.831	-0.004	2.0	GoodResponse	0	0.185	275.9	5	28	Target	Neutral	True
276.9	0.3	Control	0.6552	0.004	Yes	2.831	-0.004	2.0	GoodResponse	0	0.185	n/a	5	28	ButtonPress	Neutral	True
276.966	0.46	Control	0.6552	n/a	Yes	2.831	n/a	n/a	GoodResponse	0	n/a	n/a	5	28	Blank	Neutral	True
277.417	1.45	Control	0.6552	n/a	Yes	2.831	n/a	5.0	GoodResponse	0	0.021	276.438	5	28	Feedback	Neutral	True
278.872	2.831	Control	0.6552	n/a	Yes	2.831	n/a	n/a	GoodResponse	0	0.0	n/a	5	28	ISIslide	Neutral	True
281.73	0.25	Lose2	0.6667000000000001	0.0	Yes	2.82	0.03	n/a	GoodResponse	0	n/a	n/a	5	29	Cue	AvoidedLoss	True
281.981	3.95	Lose2	0.6667000000000001	0.0	Yes	2.82	0.001	n/a	GoodResponse	0	n/a	n/a	5	29	Fixation	AvoidedLoss	True
285.926	0.24	Lose2	0.6667000000000001	0.004	Yes	2.82	-0.004	2.0	GoodResponse	0	0.16	285.086	5	29	Target	AvoidedLoss	True
286.086	0.3	Lose2	0.6667000000000001	0.004	Yes	2.82	-0.004	2.0	GoodResponse	0	0.16	n/a	5	29	ButtonPress	AvoidedLoss	True
286.177	0.46	Lose2	0.6667000000000001	n/a	Yes	2.82	n/a	n/a	GoodResponse	0	n/a	n/a	5	29	Blank	AvoidedLoss	True
286.628	1.45	Lose2	0.6667000000000001	n/a	Yes	2.82	n/a	5.0	GoodResponse	0	0.029	285.657	5	29	Feedback	AvoidedLoss	True
288.083	2.82	Lose2	0.6667000000000001	n/a	Yes	2.82	n/a	n/a	GoodResponse	0	0.0	n/a	5	29	ISIslide	AvoidedLoss	True
290.924	0.25	Win2	0.6774	0.001	Yes	2.776	0.024	n/a	GoodResponse	1	n/a	n/a	6	30	Cue	Win	True
291.175	3.9	Win2	0.6774	0.0	Yes	2.776	0.001	n/a	GoodResponse	1	n/a	n/a	6	30	Fixation	Win	True
295.07	0.23	Win2	0.6774	0.004	Yes	2.776	-0.004	2.0	GoodResponse	1	0.171	294.241	6	30	Target	Win	True
295.241	0.3	Win2	0.6774	0.004	Yes	2.776	-0.004	2.0	GoodResponse	1	0.171	n/a	6	30	ButtonPress	Win	True
295.304	0.47	Win2	0.6774	n/a	Yes	2.776	n/a	n/a	GoodResponse	1	n/a	n/a	6	30	Blank	Win	True
295.772	1.45	Win2	0.6774	n/a	Yes	2.776	n/a	5.0	GoodResponse	1	0.008	294.78	6	30	Feedback	Win	True
297.227	2.776	Win2	0.6774	n/a	Yes	2.776	n/a	n/a	GoodResponse	1	0.0	n/a	6	30	ISIslide	Win	True
300.018	0.25	Lose2	0.6875	0.0	Yes	2.832	0.018	n/a	GoodResponse	0	n/a	n/a	6	31	Cue	AvoidedLoss	True
300.269	4.05	Lose2	0.6875	0.0	Yes	2.832	0.001	n/a	GoodResponse	0	n/a	n/a	6	31	Fixation	AvoidedLoss	True
304.315	0.22	Lose2	0.6875	0.003	Yes	2.832	-0.003	2.0	GoodResponse	0	0.179	303.494	6	31	Target	AvoidedLoss	True
304.494	0.3	Lose2	0.6875	0.003	Yes	2.832	-0.003	2.0	GoodResponse	0	0.179	n/a	6	31	ButtonPress	AvoidedLoss	True
304.549	0.48	Lose2	0.6875	n/a	Yes	2.832	n/a	n/a	GoodResponse	0	n/a	n/a	6	31	Blank	AvoidedLoss	True
305.017	1.45	Lose2	0.6875	n/a	Yes	2.832	n/a	5.0	GoodResponse	0	0.031	304.048	6	31	Feedback	AvoidedLoss	True
306.471	2.832	Lose2	0.6875	n/a	Yes	2.832	n/a	n/a	GoodResponse	0	0.0	n/a	6	31	ISIslide	AvoidedLoss	True
309.33	0.25	Lose2	0.6970000000000001	0.0	Yes	2.62	0.03	n/a	GoodResponse	0	n/a	n/a	6	32	Cue	AvoidedLoss	True
309.58	4.15	Lose2	0.6970000000000001	0.0	Yes	2.62	0.0	n/a	GoodResponse	0	n/a	n/a	6	32	Fixation	AvoidedLoss	True
313.726	0.21	Lose2	0.6970000000000001	0.004	Yes	2.62	-0.004	2.0	GoodResponse	0	0.195	312.921	6	32	Target	AvoidedLoss	True
313.921	0.3	Lose2	0.6970000000000001	0.004	Yes	2.62	-0.004	2.0	GoodResponse	0	0.195	n/a	6	32	ButtonPress	AvoidedLoss	True
313.944	0.49	Lose2	0.6970000000000001	n/a	Yes	2.62	n/a	n/a	GoodResponse	0	n/a	n/a	6	32	Blank	AvoidedLoss	True
314.428	1.45	Lose2	0.6970000000000001	n/a	Yes	2.62	n/a	5.0	GoodResponse	0	0.034	313.462	6	32	Feedback	AvoidedLoss	True
315.883	2.62	Lose2	0.6970000000000001	n/a	Yes	2.62	n/a	n/a	GoodResponse	0	0.0	n/a	6	32	ISIslide	AvoidedLoss	True
318.524	0.25	Win2	0.6765000000000001	0.0	No	2.676	0.024	n/a	LatePress	0	n/a	n/a	6	33	Cue	MissedWin	True
318.775	4.0	Win2	0.6765000000000001	0.0	No	2.676	0.001	n/a	LatePress	0	n/a	n/a	6	33	Fixation	MissedWin	True
322.77	0.2	Win2	0.6765000000000001	0.004	No	2.676	-0.004	2.0	LatePress	0	0.202	321.972	6	33	Target	MissedWin	True
322.971	0.5	Win2	0.6765000000000001	n/a	No	2.676	n/a	n/a	LatePress	0	n/a	n/a	6	33	Blank	MissedWin	True
322.972	0.3	Win2	0.6765000000000001	0.004	No	2.676	-0.004	2.0	LatePress	0	0.202	n/a	6	33	ButtonPress	MissedWin	True
323.472	1.45	Win2	0.6765000000000001	n/a	No	2.676	n/a	5.0	LatePress	0	0.015	322.487	6	33	Feedback	MissedWin	True
324.926	2.676	Win2	0.6765000000000001	n/a	No	2.676	n/a	n/a	LatePress	0	0.0	n/a	6	33	ISIslide	MissedWin	True
327.618	0.25	Lose2	0.6857	0.0	Yes	2.632	0.018	n/a	GoodResponse	0	n/a	n/a	6	34	Cue	AvoidedLoss	True
327.869	4.05	Lose2	0.6857	0.0	Yes	2.632	0.001	n/a	GoodResponse	0	n/a	n/a	6	34	Fixation	AvoidedLoss	True
331.914	0.19	Lose2	0.6857	0.004	Yes	2.632	-0.004	2.0	GoodResponse	0	0.179	331.093	6	34	Target	AvoidedLoss	True
332.093	0.3	Lose2	0.6857	0.004	Yes	2.632	-0.004	2.0	GoodResponse	0	0.179	n/a	6	34	ButtonPress	AvoidedLoss	True
332.115	0.51	Lose2	0.6857	n/a	Yes	2.632	n/a	n/a	GoodResponse	0	n/a	n/a	6	34	Blank	AvoidedLoss	True
332.616	1.45	Lose2	0.6857	n/a	Yes	2.632	n/a	5.0	GoodResponse	0	0.042	331.658	6	34	Feedback	AvoidedLoss	True
334.071	2.632	Lose2	0.6857	n/a	Yes	2.632	n/a	n/a	GoodResponse	0	0.0	n/a	6	34	ISIslide	AvoidedLoss	True
336.729	0.25	Lose2	0.6667000000000001	0.0	No	2.671	0.029	n/a	NoResponse	-1	n/a	n/a	5	35	Cue	Loss	True
336.979	4.0	Lose2	0.6667000000000001	0.0	No	2.671	0.0	n/a	NoResponse	-1	n/a	n/a	5	35	Fixation	Loss	True
340.975	0.18	Lose2	0.6667000000000001	0.004	No	2.671	-0.004	2.0	NoResponse	-1	0.195	340.17	5	35	Target	Loss	True
341.158	0.52	Lose2	0.6667000000000001	n/a	No	2.671	n/a	n/a	NoResponse	-1	n/a	n/a	5	35	Blank	Loss	True
341.17	0.3	Lose2	0.6667000000000001	0.004	No	2.671	-0.004	2.0	NoResponse	-1	0.195	n/a	5	35	ButtonPress	Loss	True
341.677	1.45	Lose2	0.6667000000000001	n/a	No	2.671	n/a	5.0	NoResponse	-1	0.005	340.682	5	35	Feedback	Loss	True
343.131	2.671	Lose2	0.6667000000000001	n/a	No	2.671	n/a	n/a	NoResponse	-1	0.0	n/a	5	35	ISIslide	Loss	True
345.822	0.25	Control	0.6486	0.001	No	2.678	0.022	n/a	NoResponse	0	n/a	n/a	5	36	Cue	Neutral	True
346.073	4.0	Control	0.6486	0.0	No	2.678	0.001	n/a	NoResponse	0	n/a	n/a	5	36	Fixation	Neutral	True
350.069	0.17	Control	0.6486	0.003	No	2.678	-0.003	2.0	NoResponse	0	0.204	349.273	5	36	Target	Neutral	True
350.252	0.53	Control	0.6486	n/a	No	2.678	n/a	n/a	NoResponse	0	n/a	n/a	5	36	Blank	Neutral	True
350.273	0.3	Control	0.6486	0.003	No	2.678	-0.003	2.0	NoResponse	0	0.204	n/a	5	36	ButtonPress	Neutral	True
350.771	1.45	Control	0.6486	n/a	No	2.678	n/a	5.0	NoResponse	0	0.032	349.803	5	36	Feedback	Neutral	True
352.225	2.678	Control	0.6486	n/a	No	2.678	n/a	n/a	NoResponse	0	0.0	n/a	5	36	ISIslide	Neutral	True
354.916	0.25	Win2	0.6315999999999999	0.0	No	2.884	0.016	n/a	NoResponse	0	n/a	n/a	5	37	Cue	MissedWin	False
355.167	4.0	Win2	0.6315999999999999	0.0	No	2.884	0.001	2.0	NoResponse	0	0.024	354.191	5	37	Fixation	MissedWin	False
355.191	0.3	Win2	0.6315999999999999	0.0	No	2.884	0.001	2.0	NoResponse	0	0.024	n/a	5	37	ButtonPress	MissedWin	False
359.162	0.18	Win2	0.6315999999999999	0.004	No	2.884	-0.004	2.0	NoResponse	0	0.191	358.353	5	37	Target	MissedWin	False
359.346	0.52	Win2	0.6315999999999999	n/a	No	2.884	n/a	n/a	NoResponse	0	n/a	n/a	5	37	Blank	MissedWin	False
359.353	0.3	Win2	0.6315999999999999	0.004	No	2.884	-0.004	2.0	NoResponse	0	0.191	n/a	5	37	ButtonPress	MissedWin	False
359.865	1.45	Win2	0.6315999999999999	n/a	No	2.884	n/a	5.0	NoResponse	0	0.011	358.876	5	37	Feedback	MissedWin	False
361.319	2.884	Win2	0.6315999999999999	n/a	No	2.884	n/a	n/a	NoResponse	0	0.0	n/a	5	37	ISIslide	MissedWin	False
364.228	0.25	Lose2	0.6154	0.0	No	2.822	0.028	n/a	NoResponse	-1	n/a	n/a	4	38	Cue	Loss	True
364.478	3.95	Lose2	0.6154	0.001	No	2.822	0.0	n/a	NoResponse	-1	n/a	n/a	4	38	Fixation	Loss	True
368.424	0.19	Lose2	0.6154	0.004	No	2.822	-0.004	2.0	NoResponse	-1	0.238	367.662	4	38	Target	Loss	True
368.624	0.51	Lose2	0.6154	n/a	No	2.822	n/a	n/a	NoResponse	-1	n/a	n/a	4	38	Blank	Loss	True
368.662	0.3	Lose2	0.6154	0.004	No	2.822	-0.004	2.0	NoResponse	-1	0.238	n/a	4	38	ButtonPress	Loss	True
369.126	1.45	Lose2	0.6154	n/a	No	2.822	n/a	5.0	NoResponse	-1	0.019	368.145	4	38	Feedback	Loss	True
370.58	2.822	Lose2	0.6154	n/a	No	2.822	n/a	n/a	NoResponse	-1	0.0	n/a	4	38	ISIslide	Loss	True
373.422	0.25	Win2	0.625	0.0	Yes	2.978	0.022	n/a	GoodResponse	1	n/a	n/a	5	39	Cue	Win	False
373.673	4.1	Win2	0.625	0.0	Yes	2.978	0.001	2.0	GoodResponse	1	0.094	372.767	5	39	Fixation	Win	False
373.767	0.3	Win2	0.625	0.0	Yes	2.978	0.001	2.0	GoodResponse	1	0.094	n/a	5	39	ButtonPress	Win	False
377.768	0.2	Win2	0.625	0.004	Yes	2.978	-0.004	2.0	GoodResponse	1	0.184	376.952	5	39	Target	Win	False
377.952	0.3	Win2	0.625	0.004	Yes	2.978	-0.004	2.0	GoodResponse	1	0.184	n/a	5	39	ButtonPress	Win	False
377.969	0.5	Win2	0.625	n/a	Yes	2.978	n/a	n/a	GoodResponse	1	n/a	n/a	5	39	Blank	Win	False
378.47	1.45	Win2	0.625	n/a	Yes	2.978	n/a	5.0	GoodResponse	1	0.041	377.511	5	39	Feedback	Win	False
379.925	2.978	Win2	0.625	n/a	Yes	2.978	n/a	n/a	GoodResponse	1	0.0	n/a	5	39	ISIslide	Win	False
382.917	0.25	Win2	0.6098	0.0	No	2.733	0.017	n/a	NoResponse	0	n/a	n/a	5	40	Cue	MissedWin	True
383.168	3.95	Win2	0.6098	0.0	No	2.733	0.001	n/a	NoResponse	0	n/a	n/a	5	40	Fixation	MissedWin	True
387.113	0.21	Win2	0.6098	0.004	No	2.733	-0.004	2.0	NoResponse	0	0.241	386.354	5	40	Target	MissedWin	True
387.33	0.49	Win2	0.6098	n/a	No	2.733	n/a	n/a	NoResponse	0	n/a	n/a	5	40	Blank	MissedWin	True
387.354	0.3	Win2	0.6098	0.004	No	2.733	-0.004	2.0	NoResponse	0	0.241	n/a	5	40	ButtonPress	MissedWin	True
387.815	1.45	Win2	0.6098	n/a	No	2.733	n/a	5.0	NoResponse	0	0.013	386.828	5	40	Feedback	MissedWin	True
389.269	2.733	Win2	0.6098	n/a	No	2.733	n/a	n/a	NoResponse	0	0.0	n/a	5	40	ISIslide	MissedWin	True
392.028	0.25	Win2	0.619	0.0	Yes	2.772	0.028	n/a	GoodResponse	1	n/a	n/a	6	41	Cue	Win	True
392.278	3.9	Win2	0.619	0.001	Yes	2.772	0.0	n/a	GoodResponse	1	n/a	n/a	6	41	Fixation	Win	True
396.19	0.22	Win2	0.619	0.0	Yes	2.772	0.012	2.0	GoodResponse	1	0.199	395.389	6	41	Target	Win	True
396.389	0.3	Win2	0.619	0.0	Yes	2.772	0.012	2.0	GoodResponse	1	0.199	n/a	6	41	ButtonPress	Win	True
396.408	0.48	Win2	0.619	n/a	Yes	2.772	n/a	n/a	GoodResponse	1	n/a	n/a	6	41	Blank	Win	True
396.876	1.45	Win2	0.619	n/a	Yes	2.772	n/a	5.0	GoodResponse	1	0.025	395.901	6	41	Feedback	Win	True
398.33	2.772	Win2	0.619	n/a	Yes	2.772	n/a	n/a	GoodResponse	1	0.0	n/a	6	41	ISIslide	Win	True
401.122	0.25	Control	0.6047	0.0	No	2.928	0.022	n/a	NoResponse	0	n/a	n/a	6	42	Cue	Neutral	False
401.372	3.85	Control	0.6047	0.001	No	2.928	0.0	n/a	NoResponse	0	n/a	n/a	6	42	Fixation	Neutral	False
405.234	0.23	Control	0.6047	0.0	No	2.928	0.012	n/a	NoResponse	0	n/a	n/a	6	42	Target	Neutral	False
405.451	0.47	Control	0.6047	n/a	No	2.928	n/a	n/a	NoResponse	0	n/a	n/a	6	42	Blank	Neutral	False
405.919	1.45	Control	0.6047	n/a	No	2.928	n/a	5.0	NoResponse	0	0.007	404.926	6	42	Feedback	Neutral	False
407.374	2.928	Control	0.6047	n/a	No	2.928	n/a	n/a	NoResponse	0	0.0	n/a	6	42	ISIslide	Neutral	False
410.316	0.25	Win2	0.6136	0.0	Yes	3.184	0.016	n/a	GoodResponse	1	n/a	n/a	7	43	Cue	Win	True
410.567	4.0	Win2	0.6136	0.0	Yes	3.184	0.001	n/a	GoodResponse	1	n/a	n/a	7	43	Fixation	Win	True
414.562	0.24	Win2	0.6136	0.004	Yes	3.184	-0.004	2.0	GoodResponse	1	0.178	413.74	7	43	Target	Win	True
414.74	0.3	Win2	0.6136	0.004	Yes	3.184	-0.004	2.0	GoodResponse	1	0.178	n/a	7	43	ButtonPress	Win	True
414.813	0.46	Win2	0.6136	n/a	Yes	3.184	n/a	n/a	GoodResponse	1	n/a	n/a	7	43	Blank	Win	True
415.264	1.45	Win2	0.6136	n/a	Yes	3.184	n/a	5.0	GoodResponse	1	0.028	414.292	7	43	Feedback	Win	True
416.718	3.184	Win2	0.6136	n/a	Yes	3.184	n/a	n/a	GoodResponse	1	0.0	n/a	7	43	ISIslide	Win	True
419.928	0.25	Win2	0.6222	0.0	Yes	2.972	0.028	n/a	GoodResponse	1	n/a	n/a	8	44	Cue	Win	True
420.179	4.0	Win2	0.6222	0.0	Yes	2.972	0.001	n/a	GoodResponse	1	n/a	n/a	8	44	Fixation	Win	True
424.174	0.25	Win2	0.6222	0.004	Yes	2.972	-0.004	2.0	GoodResponse	1	0.181	423.355	8	44	Target	Win	True
424.355	0.3	Win2	0.6222	0.004	Yes	2.972	-0.004	2.0	GoodResponse	1	0.181	n/a	8	44	ButtonPress	Win	True
424.425	0.45	Win2	0.6222	n/a	Yes	2.972	n/a	n/a	GoodResponse	1	n/a	n/a	8	44	Blank	Win	True
424.876	1.45	Win2	0.6222	n/a	Yes	2.972	n/a	5.0	GoodResponse	1	0.026	423.902	8	44	Feedback	Win	True
426.331	2.972	Win2	0.6222	n/a	Yes	2.972	n/a	n/a	GoodResponse	1	0.0	n/a	8	44	ISIslide	Win	True
429.323	0.25	Control	0.6087	0.0	No	2.877	0.023	n/a	NoResponse	0	n/a	n/a	8	45	Cue	Neutral	True
429.574	4.1	Control	0.6087	0.0	No	2.877	0.001	n/a	NoResponse	0	n/a	n/a	8	45	Fixation	Neutral	True
433.669	0.26	Control	0.6087	0.004	No	2.877	-0.004	2.0	NoResponse	0	0.322	432.991	8	45	Target	Neutral	True
433.937	0.44	Control	0.6087	n/a	No	2.877	n/a	n/a	NoResponse	0	n/a	n/a	8	45	Blank	Neutral	True
433.991	0.3	Control	0.6087	0.004	No	2.877	-0.004	2.0	NoResponse	0	0.322	n/a	8	45	ButtonPress	Neutral	True
434.371	1.45	Control	0.6087	n/a	No	2.877	n/a	5.0	NoResponse	0	0.042	433.413	8	45	Feedback	Neutral	True
435.826	2.877	Control	0.6087	n/a	No	2.877	n/a	n/a	NoResponse	0	0.0	n/a	8	45	ISIslide	Neutral	True
438.718	0.25	Lose2	0.617	0.0	Yes	3.382	0.018	n/a	GoodResponse	0	n/a	n/a	8	46	Cue	AvoidedLoss	True
438.969	4.0	Lose2	0.617	0.0	Yes	3.382	0.001	n/a	GoodResponse	0	n/a	n/a	8	46	Fixation	AvoidedLoss	True
442.964	0.27	Lose2	0.617	0.004	Yes	3.382	-0.004	2.0	GoodResponse	0	0.172	442.136	8	46	Target	AvoidedLoss	True
443.136	0.3	Lose2	0.617	0.004	Yes	3.382	-0.004	2.0	GoodResponse	0	0.172	n/a	8	46	ButtonPress	AvoidedLoss	True
443.248	0.43	Lose2	0.617	n/a	Yes	3.382	n/a	n/a	GoodResponse	0	n/a	n/a	8	46	Blank	AvoidedLoss	True
443.666	1.45	Lose2	0.617	n/a	Yes	3.382	n/a	5.0	GoodResponse	0	0.015	442.681	8	46	Feedback	AvoidedLoss	True
445.12	3.382	Lose2	0.617	n/a	Yes	3.382	n/a	n/a	GoodResponse	0	0.0	n/a	8	46	ISIslide	AvoidedLoss	True
448.514	0.25	Lose2	0.625	0.0	Yes	2.686	0.014	n/a	GoodResponse	0	n/a	n/a	8	47	Cue	AvoidedLoss	True
448.765	4.0	Lose2	0.625	0.0	Yes	2.686	0.001	n/a	GoodResponse	0	n/a	n/a	8	47	Fixation	AvoidedLoss	True
452.76	0.28	Lose2	0.625	0.004	Yes	2.686	-0.004	2.0	GoodResponse	0	0.255	452.015	8	47	Target	AvoidedLoss	True
453.015	0.3	Lose2	0.625	0.004	Yes	2.686	-0.004	2.0	GoodResponse	0	0.255	n/a	8	47	ButtonPress	AvoidedLoss	True
453.044	0.42	Lose2	0.625	n/a	Yes	2.686	n/a	n/a	GoodResponse	0	n/a	n/a	8	47	Blank	AvoidedLoss	True
453.462	1.45	Lose2	0.625	n/a	Yes	2.686	n/a	5.0	GoodResponse	0	0.024	452.486	8	47	Feedback	AvoidedLoss	True
454.916	2.686	Lose2	0.625	n/a	Yes	2.686	n/a	n/a	GoodResponse	0	0.0	n/a	8	47	ISIslide	AvoidedLoss	True
457.625	0.25	Lose2	0.6327	0.0	Yes	3.025	0.025	n/a	GoodResponse	0	n/a	n/a	8	48	Cue	AvoidedLoss	True
457.875	3.95	Lose2	0.6327	0.0	Yes	3.025	0.0	n/a	GoodResponse	0	n/a	n/a	8	48	Fixation	AvoidedLoss	True
461.837	0.29	Lose2	0.6327	0.0	Yes	3.025	0.012	2.0	GoodResponse	0	0.196	461.033	8	48	Target	AvoidedLoss	True
462.033	0.3	Lose2	0.6327	0.0	Yes	3.025	0.012	2.0	GoodResponse	0	0.196	n/a	8	48	ButtonPress	AvoidedLoss	True
462.121	0.41	Lose2	0.6327	n/a	Yes	3.025	n/a	n/a	GoodResponse	0	n/a	n/a	8	48	Blank	AvoidedLoss	True
462.523	1.45	Lose2	0.6327	n/a	Yes	3.025	n/a	5.0	GoodResponse	0	0.036	461.559	8	48	Feedback	AvoidedLoss	True
463.977	3.025	Lose2	0.6327	n/a	Yes	3.025	n/a	n/a	GoodResponse	0	0.0	n/a	8	48	ISIslide	AvoidedLoss	True
467.019	0.25	Control	0.64	0.0	Yes	2.881	0.019	n/a	GoodResponse	0	n/a	n/a	8	49	Cue	Neutral	True
467.27	4.0	Control	0.64	0.0	Yes	2.881	0.001	n/a	GoodResponse	0	n/a	n/a	8	49	Fixation	Neutral	True
471.265	0.3	Control	0.64	0.004	Yes	2.881	-0.004	2.0	GoodResponse	0	0.192	470.457	8	49	Target	Neutral	True
471.457	0.3	Control	0.64	0.004	Yes	2.881	-0.004	2.0	GoodResponse	0	0.192	n/a	8	49	ButtonPress	Neutral	True
471.566	0.4	Control	0.64	n/a	Yes	2.881	n/a	n/a	GoodResponse	0	n/a	n/a	8	49	Blank	Neutral	True
471.968	1.45	Control	0.64	n/a	Yes	2.881	n/a	5.0	GoodResponse	0	0.006	470.974	8	49	Feedback	Neutral	True
473.422	2.881	Control	0.64	n/a	Yes	2.881	n/a	n/a	GoodResponse	0	0.0	n/a	8	49	ISIslide	Neutral	True
476.314	0.25	Control	0.6470999999999999	0.0	Yes	2.786	0.014	n/a	GoodResponse	0	n/a	n/a	8	50	Cue	Neutral	True
476.565	4.0	Control	0.6470999999999999	0.0	Yes	2.786	0.001	n/a	GoodResponse	0	n/a	n/a	8	50	Fixation	Neutral	True
480.56	0.31	Control	0.6470999999999999	0.004	Yes	2.786	-0.004	2.0	GoodResponse	0	0.197	479.757	8	50	Target	Neutral	True
480.757	0.3	Control	0.6470999999999999	0.004	Yes	2.786	-0.004	2.0	GoodResponse	0	0.197	n/a	8	50	ButtonPress	Neutral	True
480.878	0.39	Control	0.6470999999999999	n/a	Yes	2.786	n/a	n/a	GoodResponse	0	n/a	n/a	8	50	Blank	Neutral	True
481.262	1.45	Control	0.6470999999999999	n/a	Yes	2.786	n/a	5.0	GoodResponse	0	0.029	480.291	8	50	Feedback	Neutral	True
482.716	2.786	Control	0.6470999999999999	n/a	Yes	2.786	n/a	n/a	GoodResponse	0	0.0	n/a	8	50	ISIslide	Neutral	True
485.525	0.25	Control	0.6537999999999999	0.0	Yes	2.725	0.025	n/a	GoodResponse	0	n/a	n/a	8	51	Cue	Neutral	True
485.776	3.95	Control	0.6537999999999999	0.0	Yes	2.725	0.001	n/a	GoodResponse	0	n/a	n/a	8	51	Fixation	Neutral	True
489.721	0.32	Control	0.6537999999999999	0.004	Yes	2.725	-0.004	2.0	GoodResponse	0	0.228	488.949	8	51	Target	Neutral	True
489.949	0.3	Control	0.6537999999999999	0.004	Yes	2.725	-0.004	2.0	GoodResponse	0	0.228	n/a	8	51	ButtonPress	Neutral	True
490.055	0.38	Control	0.6537999999999999	n/a	Yes	2.725	n/a	n/a	GoodResponse	0	n/a	n/a	8	51	Blank	Neutral	True
490.423	1.45	Control	0.6537999999999999	n/a	Yes	2.725	n/a	5.0	GoodResponse	0	0.039	489.462	8	51	Feedback	Neutral	True
491.877	2.725	Control	0.6537999999999999	n/a	Yes	2.725	n/a	n/a	GoodResponse	0	0.0	n/a	8	51	ISIslide	Neutral	True
494.619	0.25	Control	0.6604000000000001	0.0	Yes	2.631	0.019	n/a	GoodResponse	0	n/a	n/a	8	52	Cue	Neutral	True
494.87	4.05	Control	0.6604000000000001	0.0	Yes	2.631	0.001	n/a	GoodResponse	0	n/a	n/a	8	52	Fixation	Neutral	True
498.915	0.33	Control	0.6604000000000001	0.004	Yes	2.631	-0.004	2.0	GoodResponse	0	0.214	498.129	8	52	Target	Neutral	True
499.129	0.3	Control	0.6604000000000001	0.004	Yes	2.631	-0.004	2.0	GoodResponse	0	0.214	n/a	8	52	ButtonPress	Neutral	True
499.249	0.37	Control	0.6604000000000001	n/a	Yes	2.631	n/a	n/a	GoodResponse	0	n/a	n/a	8	52	Blank	Neutral	True
499.617	1.45	Control	0.6604000000000001	n/a	Yes	2.631	n/a	5.0	GoodResponse	0	0.016	498.633	8	52	Feedback	Neutral	True
501.072	2.631	Control	0.6604000000000001	n/a	Yes	2.631	n/a	n/a	GoodResponse	0	0.0	n/a	8	52	ISIslide	Neutral	True
503.729	0.25	Win2	0.6667000000000001	0.001	Yes	2.921	0.029	n/a	GoodResponse	1	n/a	n/a	9	53	Cue	Win	True
503.98	4.05	Win2	0.6667000000000001	0.0	Yes	2.921	0.001	n/a	GoodResponse	1	n/a	n/a	9	53	Fixation	Win	True
508.026	0.33	Win2	0.6667000000000001	0.003	Yes	2.921	-0.003	2.0	GoodResponse	1	0.187	507.213	9	53	Target	Win	True
508.213	0.3	Win2	0.6667000000000001	0.003	Yes	2.921	-0.003	2.0	GoodResponse	1	0.187	n/a	9	53	ButtonPress	Win	True
508.36	0.37	Win2	0.6667000000000001	n/a	Yes	2.921	n/a	n/a	GoodResponse	1	n/a	n/a	9	53	Blank	Win	True
508.728	1.45	Win2	0.6667000000000001	n/a	Yes	2.921	n/a	5.0	GoodResponse	1	0.026	507.754	9	53	Feedback	Win	True
510.182	2.921	Win2	0.6667000000000001	n/a	Yes	2.921	n/a	n/a	GoodResponse	1	0.0	n/a	9	53	ISIslide	Win	True
513.124	0.25	Win2	0.6545000000000001	0.0	No	2.726	0.024	n/a	NoResponse	0	n/a	n/a	9	54	Cue	MissedWin	True
513.375	3.95	Win2	0.6545000000000001	0.0	No	2.726	0.001	n/a	NoResponse	0	n/a	n/a	9	54	Fixation	MissedWin	True
517.32	0.32	Win2	0.6545000000000001	0.004	No	2.726	-0.004	2.0	NoResponse	0	0.396	516.716	9	54	Target	MissedWin	True
517.655	0.38	Win2	0.6545000000000001	n/a	No	2.726	n/a	n/a	NoResponse	0	n/a	n/a	9	54	Blank	MissedWin	True
517.716	0.3	Win2	0.6545000000000001	0.004	No	2.726	-0.004	2.0	NoResponse	0	0.396	n/a	9	54	ButtonPress	MissedWin	True
518.022	1.45	Win2	0.6545000000000001	n/a	No	2.726	n/a	5.0	NoResponse	0	0.001	517.023	9	54	Feedback	MissedWin	True
519.477	2.726	Win2	0.6545000000000001	n/a	No	2.726	n/a	n/a	NoResponse	0	0.0	n/a	9	54	ISIslide	MissedWin	True
522.218	0.25	Control	0.6607	0.0	Yes	3.032	0.018	n/a	GoodResponse	0	n/a	n/a	9	55	Cue	Neutral	True
522.469	3.95	Control	0.6607	0.0	Yes	3.032	0.001	n/a	GoodResponse	0	n/a	n/a	9	55	Fixation	Neutral	True
526.414	0.33	Control	0.6607	0.004	Yes	3.032	-0.004	2.0	GoodResponse	0	0.212	525.626	9	55	Target	Neutral	True
526.626	0.3	Control	0.6607	0.004	Yes	3.032	-0.004	2.0	GoodResponse	0	0.212	n/a	9	55	ButtonPress	Neutral	True
526.749	0.37	Control	0.6607	n/a	Yes	3.032	n/a	n/a	GoodResponse	0	n/a	n/a	9	55	Blank	Neutral	True
527.116	1.45	Control	0.6607	n/a	Yes	3.032	n/a	5.0	GoodResponse	0	0.029	526.145	9	55	Feedback	Neutral	True
528.571	3.032	Control	0.6607	n/a	Yes	3.032	n/a	n/a	GoodResponse	0	0.0	n/a	9	55	ISIslide	Neutral	True
531.613	0.25	Control	0.6667000000000001	0.0	Yes	2.837	0.013	n/a	GoodResponse	0	n/a	n/a	9	56	Cue	Neutral	True
531.864	3.95	Control	0.6667000000000001	0.0	Yes	2.837	0.001	n/a	GoodResponse	0	n/a	n/a	9	56	Fixation	Neutral	True
535.809	0.33	Control	0.6667000000000001	0.004	Yes	2.837	-0.004	2.0	GoodResponse	0	0.198	535.007	9	56	Target	Neutral	True
536.007	0.3	Control	0.6667000000000001	0.004	Yes	2.837	-0.004	2.0	GoodResponse	0	0.198	n/a	9	56	ButtonPress	Neutral	True
536.143	0.37	Control	0.6667000000000001	n/a	Yes	2.837	n/a	n/a	GoodResponse	0	n/a	n/a	9	56	Blank	Neutral	True
536.511	1.45	Control	0.6667000000000001	n/a	Yes	2.837	n/a	5.0	GoodResponse	0	0.048	535.559	9	56	Feedback	Neutral	True
537.966	2.837	Control	0.6667000000000001	n/a	Yes	2.837	n/a	n/a	GoodResponse	0	0.0	n/a	9	56	ISIslide	Neutral	True
540.824	0.25	Control	0.6724	0.0	Yes	3.476	0.024	n/a	GoodResponse	0	n/a	n/a	9	57	Cue	Neutral	True
541.075	4.0	Control	0.6724	0.0	Yes	3.476	0.001	n/a	GoodResponse	0	n/a	n/a	9	57	Fixation	Neutral	True
545.07	0.32	Control	0.6724	0.004	Yes	3.476	-0.004	2.0	GoodResponse	0	0.192	544.262	9	57	Target	Neutral	True
545.262	0.3	Control	0.6724	0.004	Yes	3.476	-0.004	2.0	GoodResponse	0	0.192	n/a	9	57	ButtonPress	Neutral	True
545.405	0.38	Control	0.6724	n/a	Yes	3.476	n/a	n/a	GoodResponse	0	n/a	n/a	9	57	Blank	Neutral	True
545.772	1.45	Control	0.6724	n/a	Yes	3.476	n/a	5.0	GoodResponse	0	0.007	544.779	9	57	Feedback	Neutral	True
547.227	3.476	Control	0.6724	n/a	Yes	3.476	n/a	n/a	GoodResponse	0	0.0	n/a	9	57	ISIslide	Neutral	True
550.72	0.25	Win2	0.6779999999999999	0.001	Yes	2.73	0.02	n/a	GoodResponse	1	n/a	n/a	10	58	Cue	Win	True
550.971	4.05	Win2	0.6779999999999999	0.0	Yes	2.73	0.001	n/a	GoodResponse	1	n/a	n/a	10	58	Fixation	Win	True
555.017	0.31	Win2	0.6779999999999999	0.003	Yes	2.73	-0.003	2.0	GoodResponse	1	0.184	554.201	10	58	Target	Win	True
555.201	0.3	Win2	0.6779999999999999	0.003	Yes	2.73	-0.003	2.0	GoodResponse	1	0.184	n/a	10	58	ButtonPress	Win	True
555.334	0.39	Win2	0.6779999999999999	n/a	Yes	2.73	n/a	n/a	GoodResponse	1	n/a	n/a	10	58	Blank	Win	True
555.719	1.45	Win2	0.6779999999999999	n/a	Yes	2.73	n/a	5.0	GoodResponse	1	0.011	554.73	10	58	Feedback	Win	True
557.173	2.73	Win2	0.6779999999999999	n/a	Yes	2.73	n/a	n/a	GoodResponse	1	0.0	n/a	10	58	ISIslide	Win	True
559.915	0.25	Lose2	0.6833	0.0	Yes	2.685	0.015	n/a	GoodResponse	0	n/a	n/a	10	59	Cue	AvoidedLoss	True
560.165	4.0	Lose2	0.6833	0.001	Yes	2.685	0.0	n/a	GoodResponse	0	n/a	n/a	10	59	Fixation	AvoidedLoss	True
564.161	0.3	Lose2	0.6833	0.004	Yes	2.685	-0.004	2.0	GoodResponse	0	0.182	563.343	10	59	Target	AvoidedLoss	True
564.343	0.3	Lose2	0.6833	0.004	Yes	2.685	-0.004	2.0	GoodResponse	0	0.182	n/a	10	59	ButtonPress	AvoidedLoss	True
564.462	0.4	Lose2	0.6833	n/a	Yes	2.685	n/a	n/a	GoodResponse	0	n/a	n/a	10	59	Blank	AvoidedLoss	True
564.863	1.45	Lose2	0.6833	n/a	Yes	2.685	n/a	5.0	GoodResponse	0	0.038	563.901	10	59	Feedback	AvoidedLoss	True
566.317	2.685	Lose2	0.6833	n/a	Yes	2.685	n/a	n/a	GoodResponse	0	0.0	n/a	10	59	ISIslide	AvoidedLoss	True
569.025	0.25	Control	0.6884999999999999	0.0	Yes	2.675	0.025	n/a	GoodResponse	0	n/a	n/a	10	60	Cue	Neutral	True
569.276	4.0	Control	0.6884999999999999	0.0	Yes	2.675	0.001	n/a	GoodResponse	0	n/a	n/a	10	60	Fixation	Neutral	True
573.271	0.29	Control	0.6884999999999999	0.004	Yes	2.675	-0.004	2.0	GoodResponse	0	0.194	572.465	10	60	Target	Neutral	True
573.465	0.3	Control	0.6884999999999999	0.004	Yes	2.675	-0.004	2.0	GoodResponse	0	0.194	n/a	10	60	ButtonPress	Neutral	True
573.572	0.41	Control	0.6884999999999999	n/a	Yes	2.675	n/a	n/a	GoodResponse	0	n/a	n/a	10	60	Blank	Neutral	True
573.974	1.45	Control	0.6884999999999999	n/a	Yes	2.675	n/a	5.0	GoodResponse	0	0.048	573.022	10	60	Feedback	Neutral	True
575.428	2.675	Control	0.6884999999999999	n/a	Yes	2.675	n/a	n/a	GoodResponse	0	0.0	n/a	10	60	ISIslide	Neutral	True
578.119	0.25	Lose2	0.6934999999999999	0.0	Yes	2.981	0.019	n/a	GoodResponse	0	n/a	n/a	10	61	Cue	AvoidedLoss	True
578.37	4.0	Lose2	0.6934999999999999	0.0	Yes	2.981	0.001	n/a	GoodResponse	0	n/a	n/a	10	61	Fixation	AvoidedLoss	True
582.365	0.28	Lose2	0.6934999999999999	0.004	Yes	2.981	-0.004	2.0	GoodResponse	0	0.227	581.592	10	61	Target	AvoidedLoss	True
582.592	0.3	Lose2	0.6934999999999999	0.004	Yes	2.981	-0.004	2.0	GoodResponse	0	0.227	n/a	10	61	ButtonPress	AvoidedLoss	True
582.65	0.42	Lose2	0.6934999999999999	n/a	Yes	2.981	n/a	n/a	GoodResponse	0	n/a	n/a	10	61	Blank	AvoidedLoss	True
583.067	1.45	Lose2	0.6934999999999999	n/a	Yes	2.981	n/a	5.0	GoodResponse	0	0.028	582.095	10	61	Feedback	AvoidedLoss	True
584.522	2.981	Lose2	0.6934999999999999	n/a	Yes	2.981	n/a	n/a	GoodResponse	0	0.0	n/a	10	61	ISIslide	AvoidedLoss	True
587.514	0.25	Lose2	0.6984	0.0	Yes	2.886	0.014	n/a	GoodResponse	0	n/a	n/a	10	62	Cue	AvoidedLoss	True
587.765	3.9	Lose2	0.6984	0.0	Yes	2.886	0.001	n/a	GoodResponse	0	n/a	n/a	10	62	Fixation	AvoidedLoss	True
591.66	0.27	Lose2	0.6984	0.004	Yes	2.886	-0.004	2.0	GoodResponse	0	0.266	590.926	10	62	Target	AvoidedLoss	True
591.926	0.3	Lose2	0.6984	0.004	Yes	2.886	-0.004	2.0	GoodResponse	0	0.266	n/a	10	62	ButtonPress	AvoidedLoss	True
591.944	0.43	Lose2	0.6984	n/a	Yes	2.886	n/a	n/a	GoodResponse	0	n/a	n/a	10	62	Blank	AvoidedLoss	True
592.362	1.45	Lose2	0.6984	n/a	Yes	2.886	n/a	5.0	GoodResponse	0	0.005	591.367	10	62	Feedback	AvoidedLoss	True
593.816	2.886	Lose2	0.6984	n/a	Yes	2.886	n/a	n/a	GoodResponse	0	0.0	n/a	10	62	ISIslide	AvoidedLoss	True
596.725	0.25	Lose2	0.7031000000000001	0.0	Yes	2.625	0.025	n/a	GoodResponse	0	n/a	n/a	10	63	Cue	AvoidedLoss	True
596.976	4.05	Lose2	0.7031000000000001	0.0	Yes	2.625	0.001	n/a	GoodResponse	0	n/a	n/a	10	63	Fixation	AvoidedLoss	True
601.021	0.26	Lose2	0.7031000000000001	0.004	Yes	2.625	-0.004	2.0	GoodResponse	0	0.169	600.19	10	63	Target	AvoidedLoss	True
601.19	0.3	Lose2	0.7031000000000001	0.004	Yes	2.625	-0.004	2.0	GoodResponse	0	0.169	n/a	10	63	ButtonPress	AvoidedLoss	True
601.289	0.44	Lose2	0.7031000000000001	n/a	Yes	2.625	n/a	n/a	GoodResponse	0	n/a	n/a	10	63	Blank	AvoidedLoss	True
601.723	1.45	Lose2	0.7031000000000001	n/a	Yes	2.625	n/a	5.0	GoodResponse	0	0.007	600.73	10	63	Feedback	AvoidedLoss	True
603.178	2.625	Lose2	0.7031000000000001	n/a	Yes	2.625	n/a	n/a	GoodResponse	0	0.0	n/a	10	63	ISIslide	AvoidedLoss	True
605.819	0.25	Win2	0.7077	0.0	Yes	3.131	0.019	n/a	GoodResponse	1	n/a	n/a	11	64	Cue	Win	True
606.07	4.15	Win2	0.7077	0.0	Yes	3.131	0.001	n/a	GoodResponse	1	n/a	n/a	11	64	Fixation	Win	True
610.216	0.25	Win2	0.7077	0.003	Yes	3.131	-0.003	2.0	GoodResponse	1	0.184	609.4	11	64	Target	Win	True
610.4	0.3	Win2	0.7077	0.003	Yes	3.131	-0.003	2.0	GoodResponse	1	0.184	n/a	11	64	ButtonPress	Win	True
610.466	0.45	Win2	0.7077	n/a	Yes	3.131	n/a	n/a	GoodResponse	1	n/a	n/a	11	64	Blank	Win	True
610.918	1.45	Win2	0.7077	n/a	Yes	3.131	n/a	5.0	GoodResponse	1	0.031	609.949	11	64	Feedback	Win	True
612.372	3.131	Win2	0.7077	n/a	Yes	3.131	n/a	n/a	GoodResponse	1	0.0	n/a	11	64	ISIslide	Win	True
615.515	0.25	Control	0.7121	0.0	Yes	2.785	0.015	n/a	GoodResponse	0	n/a	n/a	11	65	Cue	Neutral	True
615.766	4.0	Control	0.7121	0.0	Yes	2.785	0.001	n/a	GoodResponse	0	n/a	n/a	11	65	Fixation	Neutral	True
619.761	0.24	Control	0.7121	0.004	Yes	2.785	-0.004	2.0	GoodResponse	0	0.205	618.966	11	65	Target	Neutral	True
619.966	0.3	Control	0.7121	0.004	Yes	2.785	-0.004	2.0	GoodResponse	0	0.205	n/a	11	65	ButtonPress	Neutral	True
620.012	0.46	Control	0.7121	n/a	Yes	2.785	n/a	n/a	GoodResponse	0	n/a	n/a	11	65	Blank	Neutral	True
620.463	1.45	Control	0.7121	n/a	Yes	2.785	n/a	5.0	GoodResponse	0	0.047	619.51	11	65	Feedback	Neutral	True
621.917	2.785	Control	0.7121	n/a	Yes	2.785	n/a	n/a	GoodResponse	0	0.0	n/a	11	65	ISIslide	Neutral	True
624.726	0.25	Win2	0.7015	0.0	No	2.774	0.026	n/a	NoResponse	0	n/a	n/a	11	66	Cue	MissedWin	True
624.977	3.9	Win2	0.7015	0.0	No	2.774	0.001	n/a	NoResponse	0	n/a	n/a	11	66	Fixation	MissedWin	True
628.872	0.23	Win2	0.7015	0.004	No	2.774	-0.004	2.0	NoResponse	0	0.239	628.111	11	66	Target	MissedWin	True
629.106	0.47	Win2	0.7015	n/a	No	2.774	n/a	n/a	NoResponse	0	n/a	n/a	11	66	Blank	MissedWin	True
629.111	0.3	Win2	0.7015	0.004	No	2.774	-0.004	2.0	NoResponse	0	0.239	n/a	11	66	ButtonPress	MissedWin	True
629.574	1.45	Win2	0.7015	n/a	No	2.774	n/a	5.0	NoResponse	0	0.01	628.584	11	66	Feedback	MissedWin	True
631.028	2.774	Win2	0.7015	n/a	No	2.774	n/a	n/a	NoResponse	0	0.0	n/a	11	66	ISIslide	MissedWin	True
633.82	0.25	Control	0.7059000000000001	0.0	Yes	2.73	0.02	n/a	GoodResponse	0	n/a	n/a	11	67	Cue	Neutral	True
634.07	3.95	Control	0.7059000000000001	0.001	Yes	2.73	0.0	n/a	GoodResponse	0	n/a	n/a	11	67	Fixation	Neutral	True
638.016	0.22	Control	0.7059000000000001	0.004	Yes	2.73	-0.004	2.0	GoodResponse	0	0.203	637.219	11	67	Target	Neutral	True
638.219	0.3	Control	0.7059000000000001	0.004	Yes	2.73	-0.004	2.0	GoodResponse	0	0.203	n/a	11	67	ButtonPress	Neutral	True
638.25	0.48	Control	0.7059000000000001	n/a	Yes	2.73	n/a	n/a	GoodResponse	0	n/a	n/a	11	67	Blank	Neutral	True
638.718	1.45	Control	0.7059000000000001	n/a	Yes	2.73	n/a	5.0	GoodResponse	0	0.037	637.755	11	67	Feedback	Neutral	True
640.172	2.73	Control	0.7059000000000001	n/a	Yes	2.73	n/a	n/a	GoodResponse	0	0.0	n/a	11	67	ISIslide	Neutral	True
642.914	0.25	Win2	0.7101000000000001	0.0	Yes	3.086	0.014	n/a	GoodResponse	1	n/a	n/a	12	68	Cue	Win	True
643.164	4.0	Win2	0.7101000000000001	0.001	Yes	3.086	0.0	n/a	GoodResponse	1	n/a	n/a	12	68	Fixation	Win	True
647.16	0.21	Win2	0.7101000000000001	0.004	Yes	3.086	-0.004	2.0	GoodResponse	1	0.179	646.339	12	68	Target	Win	True
647.339	0.3	Win2	0.7101000000000001	0.004	Yes	3.086	-0.004	2.0	GoodResponse	1	0.179	n/a	12	68	ButtonPress	Win	True
647.377	0.49	Win2	0.7101000000000001	n/a	Yes	3.086	n/a	n/a	GoodResponse	1	n/a	n/a	12	68	Blank	Win	True
647.862	1.45	Win2	0.7101000000000001	n/a	Yes	3.086	n/a	5.0	GoodResponse	1	0.015	646.877	12	68	Feedback	Win	True
649.316	3.086	Win2	0.7101000000000001	n/a	Yes	3.086	n/a	n/a	GoodResponse	1	0.0	n/a	12	68	ISIslide	Win	True
652.426	0.25	Win2	0.7	0.0	No	3.224	0.026	n/a	NoResponse	0	n/a	n/a	12	69	Cue	MissedWin	True
652.676	3.95	Win2	0.7	0.0	No	3.224	0.0	n/a	NoResponse	0	n/a	n/a	12	69	Fixation	MissedWin	True
656.638	0.2	Win2	0.7	0.0	No	3.224	0.012	2.0	NoResponse	0	0.235	655.873	12	69	Target	MissedWin	True
656.822	0.5	Win2	0.7	n/a	No	3.224	n/a	n/a	NoResponse	0	n/a	n/a	12	69	Blank	MissedWin	True
656.873	0.3	Win2	0.7	0.0	No	3.224	0.012	2.0	NoResponse	0	0.235	n/a	12	69	ButtonPress	MissedWin	True
657.324	1.45	Win2	0.7	n/a	No	3.224	n/a	5.0	NoResponse	0	0.015	656.339	12	69	Feedback	MissedWin	True
658.778	3.224	Win2	0.7	n/a	No	3.224	n/a	n/a	NoResponse	0	0.0	n/a	12	69	ISIslide	MissedWin	True
662.021	0.25	Lose2	0.6901	0.0	No	3.029	0.021	n/a	NoResponse	-1	n/a	n/a	11	70	Cue	Loss	True
662.272	4.05	Lose2	0.6901	0.0	No	3.029	0.001	n/a	NoResponse	-1	n/a	n/a	11	70	Fixation	Loss	True
666.317	0.19	Lose2	0.6901	0.004	No	3.029	-0.004	2.0	NoResponse	-1	0.214	665.531	11	70	Target	Loss	True
666.518	0.51	Lose2	0.6901	n/a	No	3.029	n/a	n/a	NoResponse	-1	n/a	n/a	11	70	Blank	Loss	True
666.531	0.3	Lose2	0.6901	0.004	No	3.029	-0.004	2.0	NoResponse	-1	0.214	n/a	11	70	ButtonPress	Loss	True
667.019	1.45	Lose2	0.6901	n/a	No	3.029	n/a	5.0	NoResponse	-1	0.028	666.047	11	70	Feedback	Loss	True
668.474	3.029	Lose2	0.6901	n/a	No	3.029	n/a	n/a	NoResponse	-1	0.0	n/a	11	70	ISIslide	Loss	True
671.516	0.25	Win2	0.6944	0.0	Yes	2.734	0.016	n/a	GoodResponse	1	n/a	n/a	12	71	Cue	Win	True
671.767	4.05	Win2	0.6944	0.0	Yes	2.734	0.001	n/a	GoodResponse	1	n/a	n/a	12	71	Fixation	Win	True
675.812	0.18	Win2	0.6944	0.004	Yes	2.734	-0.004	2.0	GoodResponse	1	0.177	674.989	12	71	Target	Win	True
675.989	0.3	Win2	0.6944	0.004	Yes	2.734	-0.004	2.0	GoodResponse	1	0.177	n/a	12	71	ButtonPress	Win	True
675.996	0.52	Win2	0.6944	n/a	Yes	2.734	n/a	n/a	GoodResponse	1	n/a	n/a	12	71	Blank	Win	True
676.514	1.45	Win2	0.6944	n/a	Yes	2.734	n/a	5.0	GoodResponse	1	0.045	675.559	12	71	Feedback	Win	True
677.969	2.734	Win2	0.6944	n/a	Yes	2.734	n/a	n/a	GoodResponse	1	0.0	n/a	12	71	ISIslide	Win	True
680.727	0.25	Win2	0.6849	0.0	No	2.773	0.027	n/a	LatePress	0	n/a	n/a	12	72	Cue	MissedWin	True
680.978	4.1	Win2	0.6849	0.0	No	2.773	0.001	n/a	LatePress	0	n/a	n/a	12	72	Fixation	MissedWin	True
685.073	0.17	Win2	0.6849	0.004	No	2.773	-0.004	2.0	LatePress	0	0.182	684.255	12	72	Target	MissedWin	True
685.255	0.3	Win2	0.6849	0.004	No	2.773	-0.004	2.0	LatePress	0	0.182	n/a	12	72	ButtonPress	MissedWin	True
685.257	0.53	Win2	0.6849	n/a	No	2.773	n/a	n/a	LatePress	0	n/a	n/a	12	72	Blank	MissedWin	True
685.776	1.45	Win2	0.6849	n/a	No	2.773	n/a	5.0	LatePress	0	0.003	684.779	12	72	Feedback	MissedWin	True
687.23	2.773	Win2	0.6849	n/a	No	2.773	n/a	n/a	LatePress	0	0.0	n/a	12	72	ISIslide	MissedWin	True
690.022	0.25	Win2	0.6757	0.0	No	2.678	0.022	n/a	NoResponse	0	n/a	n/a	12	73	Cue	MissedWin	True
690.272	4.0	Win2	0.6757	0.001	No	2.678	0.0	n/a	NoResponse	0	n/a	n/a	12	73	Fixation	MissedWin	True
694.268	0.16	Win2	0.6757	0.004	No	2.678	-0.004	2.0	NoResponse	0	0.176	693.444	12	73	Target	MissedWin	True
694.435	0.54	Win2	0.6757	n/a	No	2.678	n/a	n/a	NoResponse	0	n/a	n/a	12	73	Blank	MissedWin	True
694.444	0.3	Win2	0.6757	0.004	No	2.678	-0.004	2.0	NoResponse	0	0.176	n/a	12	73	ButtonPress	MissedWin	True
694.97	1.45	Win2	0.6757	n/a	No	2.678	n/a	5.0	NoResponse	0	0.028	693.998	12	73	Feedback	MissedWin	True
696.424	2.678	Win2	0.6757	n/a	No	2.678	n/a	n/a	NoResponse	0	0.0	n/a	12	73	ISIslide	MissedWin	True
699.116	0.25	Lose2	0.6667000000000001	0.0	No	2.634	0.016	n/a	NoResponse	-1	n/a	n/a	11	74	Cue	Loss	True
699.366	4.05	Lose2	0.6667000000000001	0.0	No	2.634	0.0	n/a	NoResponse	-1	n/a	n/a	11	74	Fixation	Loss	True
703.412	0.15	Lose2	0.6667000000000001	0.004	No	2.634	-0.004	2.0	NoResponse	-1	0.197	702.609	11	74	Target	Loss	True
703.562	0.55	Lose2	0.6667000000000001	n/a	No	2.634	n/a	n/a	NoResponse	-1	n/a	n/a	11	74	Blank	Loss	True
703.609	0.3	Lose2	0.6667000000000001	0.004	No	2.634	-0.004	2.0	NoResponse	-1	0.197	n/a	11	74	ButtonPress	Loss	True
704.114	1.45	Lose2	0.6667000000000001	n/a	No	2.634	n/a	5.0	NoResponse	-1	0.006	703.12	11	74	Feedback	Loss	True
705.568	2.634	Lose2	0.6667000000000001	n/a	No	2.634	n/a	n/a	NoResponse	-1	0.0	n/a	11	74	ISIslide	Loss	True
708.226	0.25	Lose2	0.6579	0.0	No	2.924	0.026	n/a	NoResponse	-1	n/a	n/a	10	75	Cue	Loss	True
708.477	3.95	Lose2	0.6579	0.0	No	2.924	0.001	n/a	NoResponse	-1	n/a	n/a	10	75	Fixation	Loss	True
712.422	0.15	Lose2	0.6579	0.004	No	2.924	-0.004	2.0	NoResponse	-1	0.168	711.59	10	75	Target	Loss	True
712.573	0.55	Lose2	0.6579	n/a	No	2.924	n/a	n/a	NoResponse	-1	n/a	n/a	10	75	Blank	Loss	True
712.59	0.3	Lose2	0.6579	0.004	No	2.924	-0.004	2.0	NoResponse	-1	0.168	n/a	10	75	ButtonPress	Loss	True
713.124	1.45	Lose2	0.6579	n/a	No	2.924	n/a	5.0	NoResponse	-1	0.021	712.145	10	75	Feedback	Loss	True
714.579	2.924	Lose2	0.6579	n/a	No	2.924	n/a	n/a	NoResponse	-1	0.0	n/a	10	75	ISIslide	Loss	True
717.521	0.25	Control	0.6494	0.0	No	3.229	0.021	n/a	NoResponse	0	n/a	n/a	10	76	Cue	Neutral	True
717.772	4.05	Control	0.6494	0.0	No	3.229	0.001	n/a	NoResponse	0	n/a	n/a	10	76	Fixation	Neutral	True
721.817	0.15	Control	0.6494	0.004	No	3.229	-0.004	2.0	NoResponse	0	0.188	721.005	10	76	Target	Neutral	True
721.967	0.55	Control	0.6494	n/a	No	3.229	n/a	n/a	NoResponse	0	n/a	n/a	10	76	Blank	Neutral	True
722.005	0.3	Control	0.6494	0.004	No	3.229	-0.004	2.0	NoResponse	0	0.188	n/a	10	76	ButtonPress	Neutral	True
722.519	1.45	Control	0.6494	n/a	No	3.229	n/a	5.0	NoResponse	0	0.04	721.559	10	76	Feedback	Neutral	True
723.974	3.229	Control	0.6494	n/a	No	3.229	n/a	n/a	NoResponse	0	0.0	n/a	10	76	ISIslide	Neutral	True
727.217	0.25	Lose2	0.6409999999999999	0.0	No	2.583	0.017	n/a	NoResponse	-1	n/a	n/a	9	77	Cue	Loss	True
727.467	3.95	Lose2	0.6409999999999999	0.0	No	2.583	0.0	n/a	NoResponse	-1	n/a	n/a	9	77	Fixation	Loss	True
731.429	0.16	Lose2	0.6409999999999999	0.0	No	2.583	0.012	2.0	NoResponse	-1	0.179	730.608	9	77	Target	Loss	True
731.58	0.54	Lose2	0.6409999999999999	n/a	No	2.583	n/a	n/a	NoResponse	-1	n/a	n/a	9	77	Blank	Loss	True
731.608	0.3	Lose2	0.6409999999999999	0.0	No	2.583	0.012	2.0	NoResponse	-1	0.179	n/a	9	77	ButtonPress	Loss	True
732.115	1.45	Lose2	0.6409999999999999	n/a	No	2.583	n/a	5.0	NoResponse	-1	0.005	731.12	9	77	Feedback	Loss	True
733.569	2.583	Lose2	0.6409999999999999	n/a	No	2.583	n/a	n/a	NoResponse	-1	0.0	n/a	9	77	ISIslide	Loss	True
