onset	duration	cue_type	current_mean_accuracy	duration_error	is_hit	isi_adjusted	onset_delay	response	response_type	reward	rt	rt_time	total_reward	trial_number	trial_phase	trial_type	one_press
11.109	0.25	Control	1.0	0.0	Yes	2.941	0.009	n/a	GoodResponse	0	n/a	n/a	0	0	Cue	Neutral	True
11.359	3.85	Control	1.0	0.0	Yes	2.941	0.0	n/a	GoodResponse	0	n/a	n/a	0	0	Fixation	Neutral	True
15.208	0.4	Control	1.0	0.001	Yes	2.941	-0.001	4.0	GoodResponse	0	0.187	14.395	0	0	Target	Neutral	True
15.395	0.3	Control	1.0	0.001	Yes	2.941	-0.001	4.0	GoodResponse	0	0.187	n/a	0	0	ButtonPress	Neutral	True
15.608	0.3	Control	1.0	n/a	Yes	2.941	n/a	n/a	GoodResponse	0	n/a	n/a	0	0	Blank	Neutral	True
15.907	1.45	Control	1.0	n/a	Yes	2.941	n/a	5.0	GoodResponse	0	0.019	14.926	0	0	Feedback	Neutral	True
17.357	2.941	Control	1.0	n/a	Yes	2.941	n/a	n/a	GoodResponse	0	0.0	n/a	0	0	ISIslide	Neutral	True
20.323	0.25	Lose2	1.0	0.0	Yes	2.777	0.023	n/a	GoodResponse	0	n/a	n/a	0	1	Cue	AvoidedLoss	True
20.573	4.0	Lose2	1.0	0.0	Yes	2.777	0.0	n/a	GoodResponse	0	n/a	n/a	0	1	Fixation	AvoidedLoss	True
24.571	0.39	Lose2	1.0	0.002	Yes	2.777	-0.002	4.0	GoodResponse	0	0.188	23.759	0	1	Target	AvoidedLoss	True
24.759	0.3	Lose2	1.0	0.002	Yes	2.777	-0.002	4.0	GoodResponse	0	0.188	n/a	0	1	ButtonPress	AvoidedLoss	True
24.971	0.31	Lose2	1.0	n/a	Yes	2.777	n/a	n/a	GoodResponse	0	n/a	n/a	0	1	Blank	AvoidedLoss	True
25.271	1.45	Lose2	1.0	n/a	Yes	2.777	n/a	5.0	GoodResponse	0	0.021	24.292	0	1	Feedback	AvoidedLoss	True
26.72	2.777	Lose2	1.0	n/a	Yes	2.777	n/a	n/a	GoodResponse	0	0.0	n/a	0	1	ISIslide	AvoidedLoss	True
29.519	0.25	Control	1.0	0.001	Yes	2.581	0.019	n/a	GoodResponse	0	n/a	n/a	0	2	Cue	Neutral	True
29.769	4.1	Control	1.0	0.0	Yes	2.581	0.0	n/a	GoodResponse	0	n/a	n/a	0	2	Fixation	Neutral	True
33.868	0.38	Control	1.0	0.001	Yes	2.581	-0.001	4.0	GoodResponse	0	0.226	33.094	0	2	Target	Neutral	True
34.094	0.3	Control	1.0	0.001	Yes	2.581	-0.001	4.0	GoodResponse	0	0.226	n/a	0	2	ButtonPress	Neutral	True
34.251	0.32	Control	1.0	n/a	Yes	2.581	n/a	n/a	GoodResponse	0	n/a	n/a	0	2	Blank	Neutral	True
34.568	1.45	Control	1.0	n/a	Yes	2.581	n/a	5.0	GoodResponse	0	0.041	33.609	0	2	Feedback	Neutral	True
36.017	2.581	Control	1.0	n/a	Yes	2.581	n/a	n/a	GoodResponse	0	0.0	n/a	0	2	ISIslide	Neutral	True
38.633	0.25	Win2	0.75	0.0	No	2.817	0.033	n/a	NoResponse	0	n/a	n/a	0	3	Cue	MissedWin	False
38.883	3.95	Win2	0.75	0.0	No	2.817	0.0	4.0	NoResponse	0	3.837	41.72	0	3	Fixation	MissedWin	False
42.72	0.3	Win2	0.75	0.0	No	2.817	0.0	4.0	NoResponse	0	3.837	n/a	0	3	ButtonPress	MissedWin	False
42.832	0.37	Win2	0.75	0.001	No	2.817	-0.001	4.0	NoResponse	0	0.489	42.321	0	3	Target	MissedWin	False
43.215	0.33	Win2	0.75	n/a	No	2.817	n/a	n/a	NoResponse	0	n/a	n/a	0	3	Blank	MissedWin	False
43.321	0.3	Win2	0.75	0.001	No	2.817	-0.001	4.0	NoResponse	0	0.489	n/a	0	3	ButtonPress	MissedWin	False
43.531	1.45	Win2	0.75	n/a	No	2.817	n/a	5.0	NoResponse	0	0.007	42.538	0	3	Feedback	MissedWin	False
44.981	2.817	Win2	0.75	n/a	No	2.817	n/a	n/a	NoResponse	0	0.0	n/a	0	3	ISIslide	MissedWin	False
47.83	0.25	Win2	0.8	0.0	Yes	3.27	0.03	n/a	GoodResponse	1	n/a	n/a	1	4	Cue	Win	True
48.08	4.0	Win2	0.8	0.0	Yes	3.27	0.0	n/a	GoodResponse	1	n/a	n/a	1	4	Fixation	Win	True
52.078	0.36	Win2	0.8	0.002	Yes	3.27	-0.002	4.0	GoodResponse	1	0.238	51.316	1	4	Target	Win	True
52.316	0.3	Win2	0.8	0.002	Yes	3.27	-0.002	4.0	GoodResponse	1	0.238	n/a	1	4	ButtonPress	Win	True
52.445	0.34	Win2	0.8	n/a	Yes	3.27	n/a	n/a	GoodResponse	1	n/a	n/a	1	4	Blank	Win	True
52.778	1.45	Win2	0.8	n/a	Yes	3.27	n/a	5.0	GoodResponse	1	0.027	51.805	1	4	Feedback	Win	True
54.228	3.27	Win2	0.8	n/a	Yes	3.27	n/a	n/a	GoodResponse	1	0.0	n/a	1	4	ISIslide	Win	True
57.527	0.25	Win2	0.8332999999999999	0.0	Yes	2.773	0.027	n/a	GoodResponse	1	n/a	n/a	2	5	Cue	Win	True
57.776	4.0	Win2	0.8332999999999999	0.001	Yes	2.773	-0.001	n/a	GoodResponse	1	n/a	n/a	2	5	Fixation	Win	True
61.775	0.35	Win2	0.8332999999999999	0.002	Yes	2.773	-0.002	4.0	GoodResponse	1	0.213	60.988	2	5	Target	Win	True
61.988	0.3	Win2	0.8332999999999999	0.002	Yes	2.773	-0.002	4.0	GoodResponse	1	0.213	n/a	2	5	ButtonPress	Win	True
62.125	0.35	Win2	0.8332999999999999	n/a	Yes	2.773	n/a	n/a	GoodResponse	1	n/a	n/a	2	5	Blank	Win	True
62.475	1.45	Win2	0.8332999999999999	n/a	Yes	2.773	n/a	5.0	GoodResponse	1	0.036	61.511	2	5	Feedback	Win	True
63.924	2.773	Win2	0.8332999999999999	n/a	Yes	2.773	n/a	n/a	GoodResponse	1	0.0	n/a	2	5	ISIslide	Win	True
66.723	0.25	Lose2	0.8571	0.001	Yes	2.727	0.023	n/a	GoodResponse	0	n/a	n/a	2	6	Cue	AvoidedLoss	True
66.973	3.95	Lose2	0.8571	0.0	Yes	2.727	0.0	n/a	GoodResponse	0	n/a	n/a	2	6	Fixation	AvoidedLoss	True
70.922	0.34	Lose2	0.8571	0.001	Yes	2.727	-0.001	4.0	GoodResponse	0	0.22	70.142	2	6	Target	AvoidedLoss	True
71.142	0.3	Lose2	0.8571	0.001	Yes	2.727	-0.001	4.0	GoodResponse	0	0.22	n/a	2	6	ButtonPress	AvoidedLoss	True
71.272	0.36	Lose2	0.8571	n/a	Yes	2.727	n/a	n/a	GoodResponse	0	n/a	n/a	2	6	Blank	AvoidedLoss	True
71.622	1.45	Lose2	0.8571	n/a	Yes	2.727	n/a	5.0	GoodResponse	0	0.011	70.633	2	6	Feedback	AvoidedLoss	True
73.071	2.727	Lose2	0.8571	n/a	Yes	2.727	n/a	n/a	GoodResponse	0	0.0	n/a	2	6	ISIslide	AvoidedLoss	True
75.82	0.25	Lose2	0.875	0.0	Yes	4.03	0.02	n/a	GoodResponse	0	n/a	n/a	2	7	Cue	AvoidedLoss	True
76.07	4.05	Lose2	0.875	0.0	Yes	4.03	0.0	n/a	GoodResponse	0	n/a	n/a	2	7	Fixation	AvoidedLoss	True
80.119	0.33	Lose2	0.875	0.001	Yes	4.03	-0.001	4.0	GoodResponse	0	0.22	79.339	2	7	Target	AvoidedLoss	True
80.339	0.3	Lose2	0.875	0.001	Yes	4.03	-0.001	4.0	GoodResponse	0	0.22	n/a	2	7	ButtonPress	AvoidedLoss	True
80.452	0.37	Lose2	0.875	n/a	Yes	4.03	n/a	n/a	GoodResponse	0	n/a	n/a	2	7	Blank	AvoidedLoss	True
80.819	1.45	Lose2	0.875	n/a	Yes	4.03	n/a	5.0	GoodResponse	0	0.034	79.853	2	7	Feedback	AvoidedLoss	True
82.268	4.03	Lose2	0.875	n/a	Yes	4.03	n/a	n/a	GoodResponse	0	0.0	n/a	2	7	ISIslide	AvoidedLoss	True
86.317	0.25	Lose2	0.8889	0.0	Yes	3.033	0.017	n/a	GoodResponse	0	n/a	n/a	2	8	Cue	AvoidedLoss	True
86.567	3.95	Lose2	0.8889	0.0	Yes	3.033	0.0	n/a	GoodResponse	0	n/a	n/a	2	8	Fixation	AvoidedLoss	True
90.515	0.32	Lose2	0.8889	0.002	Yes	3.033	-0.002	4.0	GoodResponse	0	0.207	89.722	2	8	Target	AvoidedLoss	True
90.722	0.3	Lose2	0.8889	0.002	Yes	3.033	-0.002	4.0	GoodResponse	0	0.207	n/a	2	8	ButtonPress	AvoidedLoss	True
90.848	0.38	Lose2	0.8889	n/a	Yes	3.033	n/a	n/a	GoodResponse	0	n/a	n/a	2	8	Blank	AvoidedLoss	True
91.215	1.45	Lose2	0.8889	n/a	Yes	3.033	n/a	5.0	GoodResponse	0	0.028	90.243	2	8	Feedback	AvoidedLoss	True
92.665	3.033	Lose2	0.8889	n/a	Yes	3.033	n/a	n/a	GoodResponse	0	0.0	n/a	2	8	ISIslide	AvoidedLoss	True
95.714	0.25	Lose2	0.9	0.0	Yes	3.136	0.014	n/a	GoodResponse	0	n/a	n/a	2	9	Cue	AvoidedLoss	True
95.963	3.95	Lose2	0.9	0.001	Yes	3.136	-0.001	n/a	GoodResponse	0	n/a	n/a	2	9	Fixation	AvoidedLoss	True
99.912	0.31	Lose2	0.9	0.002	Yes	3.136	-0.002	4.0	GoodResponse	0	0.209	99.121	2	9	Target	AvoidedLoss	True
100.121	0.3	Lose2	0.9	0.002	Yes	3.136	-0.002	4.0	GoodResponse	0	0.209	n/a	2	9	ButtonPress	AvoidedLoss	True
100.229	0.39	Lose2	0.9	n/a	Yes	3.136	n/a	n/a	GoodResponse	0	n/a	n/a	2	9	Blank	AvoidedLoss	True
100.612	1.45	Lose2	0.9	n/a	Yes	3.136	n/a	5.0	GoodResponse	0	0.046	99.658	2	9	Feedback	AvoidedLoss	True
102.061	3.136	Lose2	0.9	n/a	Yes	3.136	n/a	n/a	GoodResponse	0	0.0	n/a	2	9	ISIslide	AvoidedLoss	True
105.227	0.25	Control	0.9091	0.0	Yes	3.273	0.027	n/a	GoodResponse	0	n/a	n/a	2	10	Cue	Neutral	True
105.477	4.0	Control	0.9091	0.0	Yes	3.273	0.0	n/a	GoodResponse	0	n/a	n/a	2	10	Fixation	Neutral	True
109.475	0.3	Control	0.9091	0.002	Yes	3.273	-0.002	4.0	GoodResponse	0	0.177	108.652	2	10	Target	Neutral	True
109.652	0.3	Control	0.9091	0.002	Yes	3.273	-0.002	4.0	GoodResponse	0	0.177	n/a	2	10	ButtonPress	Neutral	True
109.775	0.4	Control	0.9091	n/a	Yes	3.273	n/a	n/a	GoodResponse	0	n/a	n/a	2	10	Blank	Neutral	True
110.175	1.45	Control	0.9091	n/a	Yes	3.273	n/a	5.0	GoodResponse	0	0.044	109.219	2	10	Feedback	Neutral	True
111.625	3.273	Control	0.9091	n/a	Yes	3.273	n/a	n/a	GoodResponse	0	0.0	n/a	2	10	ISIslide	Neutral	True
114.924	0.25	Lose2	0.9167000000000001	0.0	Yes	2.726	0.024	n/a	GoodResponse	0	n/a	n/a	2	11	Cue	AvoidedLoss	True
115.174	4.05	Lose2	0.9167000000000001	0.0	Yes	2.726	0.0	n/a	GoodResponse	0	n/a	n/a	2	11	Fixation	AvoidedLoss	True
119.222	0.29	Lose2	0.9167000000000001	0.002	Yes	2.726	-0.002	4.0	GoodResponse	0	0.197	118.419	2	11	Target	AvoidedLoss	True
119.419	0.3	Lose2	0.9167000000000001	0.002	Yes	2.726	-0.002	4.0	GoodResponse	0	0.197	n/a	2	11	ButtonPress	AvoidedLoss	True
119.522	0.41	Lose2	0.9167000000000001	n/a	Yes	2.726	n/a	n/a	GoodResponse	0	n/a	n/a	2	11	Blank	AvoidedLoss	True
119.922	1.45	Lose2	0.9167000000000001	n/a	Yes	2.726	n/a	5.0	GoodResponse	0	0.005	118.927	2	11	Feedback	AvoidedLoss	True
121.371	2.726	Lose2	0.9167000000000001	n/a	Yes	2.726	n/a	n/a	GoodResponse	0	0.0	n/a	2	11	ISIslide	AvoidedLoss	True
124.12	0.25	Control	0.9231	0.001	Yes	2.98	0.02	n/a	GoodResponse	0	n/a	n/a	2	12	Cue	Neutral	True
124.37	3.9	Control	0.9231	0.0	Yes	2.98	0.0	n/a	GoodResponse	0	n/a	n/a	2	12	Fixation	Neutral	True
128.269	0.28	Control	0.9231	0.001	Yes	2.98	-0.001	4.0	GoodResponse	0	0.222	127.491	2	12	Target	Neutral	True
128.491	0.3	Control	0.9231	0.001	Yes	2.98	-0.001	4.0	GoodResponse	0	0.222	n/a	2	12	ButtonPress	Neutral	True
128.552	0.42	Control	0.9231	n/a	Yes	2.98	n/a	n/a	GoodResponse	0	n/a	n/a	2	12	Blank	Neutral	True
128.969	1.45	Control	0.9231	n/a	Yes	2.98	n/a	5.0	GoodResponse	0	0.031	128.0	2	12	Feedback	Neutral	True
130.418	2.98	Control	0.9231	n/a	Yes	2.98	n/a	n/a	GoodResponse	0	0.0	n/a	2	12	ISIslide	Neutral	True
133.417	0.25	Control	0.9286	0.0	Yes	2.783	0.017	n/a	GoodResponse	0	n/a	n/a	2	13	Cue	Neutral	True
133.667	4.0	Control	0.9286	0.0	Yes	2.783	0.0	n/a	GoodResponse	0	n/a	n/a	2	13	Fixation	Neutral	True
137.666	0.27	Control	0.9286	0.001	Yes	2.783	-0.001	4.0	GoodResponse	0	0.204	136.87	2	13	Target	Neutral	True
137.87	0.3	Control	0.9286	0.001	Yes	2.783	-0.001	4.0	GoodResponse	0	0.204	n/a	2	13	ButtonPress	Neutral	True
137.932	0.43	Control	0.9286	n/a	Yes	2.783	n/a	n/a	GoodResponse	0	n/a	n/a	2	13	Blank	Neutral	True
138.366	1.45	Control	0.9286	n/a	Yes	2.783	n/a	5.0	GoodResponse	0	0.048	137.414	2	13	Feedback	Neutral	True
139.815	2.783	Control	0.9286	n/a	Yes	2.783	n/a	n/a	GoodResponse	0	0.0	n/a	2	13	ISIslide	Neutral	True
142.614	0.25	Win2	0.8667	0.0	No	2.686	0.014	n/a	PrematurePress	0	n/a	n/a	2	14	Cue	MissedWin	True
142.864	4.1	Win2	0.8667	0.0	No	2.686	0.0	n/a	PrematurePress	0	n/a	n/a	2	14	Fixation	MissedWin	True
146.963	0.26	Win2	0.8667	0.001	No	2.686	-0.001	4.0	PrematurePress	0	0.079	146.042	2	14	Target	MissedWin	True
147.042	0.3	Win2	0.8667	0.001	No	2.686	-0.001	4.0	PrematurePress	0	0.079	n/a	2	14	ButtonPress	MissedWin	True
147.229	0.44	Win2	0.8667	n/a	No	2.686	n/a	n/a	PrematurePress	0	n/a	n/a	2	14	Blank	MissedWin	True
147.662	1.45	Win2	0.8667	n/a	No	2.686	n/a	5.0	PrematurePress	0	0.02	146.682	2	14	Feedback	MissedWin	True
149.112	2.686	Win2	0.8667	n/a	No	2.686	n/a	n/a	PrematurePress	0	0.0	n/a	2	14	ISIslide	MissedWin	True
151.828	0.25	Control	0.875	0.0	Yes	2.972	0.028	n/a	GoodResponse	0	n/a	n/a	2	15	Cue	Neutral	True
152.078	4.0	Control	0.875	0.0	Yes	2.972	0.0	n/a	GoodResponse	0	n/a	n/a	2	15	Fixation	Neutral	True
156.076	0.25	Control	0.875	0.002	Yes	2.972	-0.002	4.0	GoodResponse	0	0.244	155.32	2	15	Target	Neutral	True
156.32	0.3	Control	0.875	0.002	Yes	2.972	-0.002	4.0	GoodResponse	0	0.244	n/a	2	15	ButtonPress	Neutral	True
156.326	0.45	Control	0.875	n/a	Yes	2.972	n/a	n/a	GoodResponse	0	n/a	n/a	2	15	Blank	Neutral	True
156.776	1.45	Control	0.875	n/a	Yes	2.972	n/a	5.0	GoodResponse	0	0.028	155.804	2	15	Feedback	Neutral	True
158.225	2.972	Control	0.875	n/a	Yes	2.972	n/a	n/a	GoodResponse	0	0.0	n/a	2	15	ISIslide	Neutral	True
161.224	0.25	Win2	0.8824	0.0	Yes	2.876	0.024	n/a	GoodResponse	1	n/a	n/a	3	16	Cue	Win	True
161.474	4.0	Win2	0.8824	0.0	Yes	2.876	0.0	n/a	GoodResponse	1	n/a	n/a	3	16	Fixation	Win	True
165.473	0.24	Win2	0.8824	0.001	Yes	2.876	-0.001	4.0	GoodResponse	1	0.222	164.695	3	16	Target	Win	True
165.695	0.3	Win2	0.8824	0.001	Yes	2.876	-0.001	4.0	GoodResponse	1	0.222	n/a	3	16	ButtonPress	Win	True
165.723	0.46	Win2	0.8824	n/a	Yes	2.876	n/a	n/a	GoodResponse	1	n/a	n/a	3	16	Blank	Win	True
166.173	1.45	Win2	0.8824	n/a	Yes	2.876	n/a	5.0	GoodResponse	1	0.046	165.219	3	16	Feedback	Win	True
167.622	2.876	Win2	0.8824	n/a	Yes	2.876	n/a	n/a	GoodResponse	1	0.0	n/a	3	16	ISIslide	Win	True
170.521	0.25	Lose2	0.8889	0.0	Yes	2.729	0.021	n/a	GoodResponse	0	n/a	n/a	3	17	Cue	AvoidedLoss	False
170.771	3.95	Lose2	0.8889	0.0	Yes	2.729	0.0	4.0	GoodResponse	0	3.79	173.561	3	17	Fixation	AvoidedLoss	False
174.561	0.3	Lose2	0.8889	0.0	Yes	2.729	0.0	4.0	GoodResponse	0	3.79	n/a	3	17	ButtonPress	AvoidedLoss	False
174.72	0.23	Lose2	0.8889	0.001	Yes	2.729	-0.001	4.0	GoodResponse	0	0.161	173.881	3	17	Target	AvoidedLoss	False
174.881	0.3	Lose2	0.8889	0.001	Yes	2.729	-0.001	4.0	GoodResponse	0	0.161	n/a	3	17	ButtonPress	AvoidedLoss	False
174.953	0.47	Lose2	0.8889	n/a	Yes	2.729	n/a	n/a	GoodResponse	0	n/a	n/a	3	17	Blank	AvoidedLoss	False
175.42	1.45	Lose2	0.8889	n/a	Yes	2.729	n/a	5.0	GoodResponse	0	0.018	174.438	3	17	Feedback	AvoidedLoss	False
176.869	2.729	Lose2	0.8889	n/a	Yes	2.729	n/a	n/a	GoodResponse	0	0.0	n/a	3	17	ISIslide	AvoidedLoss	False
179.618	0.25	Lose2	0.8421	0.0	No	2.732	0.018	n/a	LatePress	-1	n/a	n/a	2	18	Cue	Loss	True
179.868	4.05	Lose2	0.8421	0.0	No	2.732	0.0	n/a	LatePress	-1	n/a	n/a	2	18	Fixation	Loss	True
183.917	0.22	Lose2	0.8421	0.001	No	2.732	-0.001	4.0	LatePress	-1	0.222	183.139	2	18	Target	Loss	True
184.139	0.3	Lose2	0.8421	0.001	No	2.732	-0.001	4.0	LatePress	-1	0.222	n/a	2	18	ButtonPress	Loss	True
184.15	0.48	Lose2	0.8421	n/a	No	2.732	n/a	n/a	LatePress	-1	n/a	n/a	2	18	Blank	Loss	True
184.616	1.45	Lose2	0.8421	n/a	No	2.732	n/a	5.0	LatePress	-1	0.042	183.658	2	18	Feedback	Loss	True
186.066	2.732	Lose2	0.8421	n/a	No	2.732	n/a	n/a	LatePress	-1	0.0	n/a	2	18	ISIslide	Loss	True
188.815	0.25	Control	0.8	0.0	No	2.935	0.015	n/a	NoResponse	0	n/a	n/a	2	19	Cue	Neutral	True
189.065	3.95	Control	0.8	0.0	No	2.935	0.0	n/a	NoResponse	0	n/a	n/a	2	19	Fixation	Neutral	True
193.014	0.21	Control	0.8	0.001	No	2.935	-0.001	4.0	NoResponse	0	0.223	192.237	2	19	Target	Neutral	True
193.23	0.49	Control	0.8	n/a	No	2.935	n/a	n/a	NoResponse	0	n/a	n/a	2	19	Blank	Neutral	True
193.237	0.3	Control	0.8	0.001	No	2.935	-0.001	4.0	NoResponse	0	0.223	n/a	2	19	ButtonPress	Neutral	True
193.713	1.45	Control	0.8	n/a	No	2.935	n/a	5.0	NoResponse	0	0.018	192.731	2	19	Feedback	Neutral	True
195.163	2.935	Control	0.8	n/a	No	2.935	n/a	n/a	NoResponse	0	0.0	n/a	2	19	ISIslide	Neutral	True
198.112	0.25	Control	0.8095	0.0	Yes	2.638	0.012	n/a	GoodResponse	0	n/a	n/a	2	20	Cue	Neutral	True
198.362	4.05	Control	0.8095	0.0	Yes	2.638	0.0	n/a	GoodResponse	0	n/a	n/a	2	20	Fixation	Neutral	True
202.41	0.2	Control	0.8095	0.002	Yes	2.638	-0.002	4.0	GoodResponse	0	0.158	201.568	2	20	Target	Neutral	True
202.568	0.3	Control	0.8095	0.002	Yes	2.638	-0.002	4.0	GoodResponse	0	0.158	n/a	2	20	ButtonPress	Neutral	True
202.61	0.5	Control	0.8095	n/a	Yes	2.638	n/a	n/a	GoodResponse	0	n/a	n/a	2	20	Blank	Neutral	True
203.11	1.45	Control	0.8095	n/a	Yes	2.638	n/a	5.0	GoodResponse	0	0.036	202.146	2	20	Feedback	Neutral	True
204.56	2.638	Control	0.8095	n/a	Yes	2.638	n/a	n/a	GoodResponse	0	0.0	n/a	2	20	ISIslide	Neutral	True
207.225	0.25	Control	0.7726999999999999	0.0	No	2.775	0.025	n/a	NoResponse	0	n/a	n/a	2	21	Cue	Neutral	True
207.475	4.1	Control	0.7726999999999999	0.0	No	2.775	0.0	n/a	NoResponse	0	n/a	n/a	2	21	Fixation	Neutral	True
211.574	0.19	Control	0.7726999999999999	0.001	No	2.775	-0.001	4.0	NoResponse	0	0.25	210.824	2	21	Target	Neutral	True
211.774	0.51	Control	0.7726999999999999	n/a	No	2.775	n/a	n/a	NoResponse	0	n/a	n/a	2	21	Blank	Neutral	True
211.824	0.3	Control	0.7726999999999999	0.001	No	2.775	-0.001	4.0	NoResponse	0	0.25	n/a	2	21	ButtonPress	Neutral	True
212.274	1.45	Control	0.7726999999999999	n/a	No	2.775	n/a	5.0	NoResponse	0	0.042	211.316	2	21	Feedback	Neutral	True
213.723	2.775	Control	0.7726999999999999	n/a	No	2.775	n/a	n/a	NoResponse	0	0.0	n/a	2	21	ISIslide	Neutral	True
216.522	0.25	Control	0.7391	0.0	No	2.778	0.022	n/a	NoResponse	0	n/a	n/a	2	22	Cue	Neutral	True
216.772	4.0	Control	0.7391	0.0	No	2.778	0.0	n/a	NoResponse	0	n/a	n/a	2	22	Fixation	Neutral	True
220.771	0.18	Control	0.7391	0.001	No	2.778	-0.001	4.0	NoResponse	0	0.254	220.025	2	22	Target	Neutral	True
220.954	0.52	Control	0.7391	n/a	No	2.778	n/a	n/a	NoResponse	0	n/a	n/a	2	22	Blank	Neutral	True
221.025	0.3	Control	0.7391	0.001	No	2.778	-0.001	4.0	NoResponse	0	0.254	n/a	2	22	ButtonPress	Neutral	True
221.47	1.45	Control	0.7391	n/a	No	2.778	n/a	5.0	NoResponse	0	0.017	220.487	2	22	Feedback	Neutral	True
222.92	2.778	Control	0.7391	n/a	No	2.778	n/a	n/a	NoResponse	0	0.0	n/a	2	22	ISIslide	Neutral	True
225.719	0.25	Control	0.7082999999999999	0.0	No	2.781	0.019	n/a	NoResponse	0	n/a	n/a	2	23	Cue	Neutral	True
225.969	3.9	Control	0.7082999999999999	0.0	No	2.781	0.0	n/a	NoResponse	0	n/a	n/a	2	23	Fixation	Neutral	True
229.868	0.17	Control	0.7082999999999999	0.001	No	2.781	-0.001	4.0	NoResponse	0	0.205	229.073	2	23	Target	Neutral	True
230.051	0.53	Control	0.7082999999999999	n/a	No	2.781	n/a	n/a	NoResponse	0	n/a	n/a	2	23	Blank	Neutral	True
230.073	0.3	Control	0.7082999999999999	0.001	No	2.781	-0.001	4.0	NoResponse	0	0.205	n/a	2	23	ButtonPress	Neutral	True
230.567	1.45	Control	0.7082999999999999	n/a	No	2.781	n/a	5.0	NoResponse	0	0.042	229.609	2	23	Feedback	Neutral	True
232.017	2.781	Control	0.7082999999999999	n/a	No	2.781	n/a	n/a	NoResponse	0	0.0	n/a	2	23	ISIslide	Neutral	True
234.816	0.25	Win2	0.68	0.0	No	3.134	0.016	n/a	NoResponse	0	n/a	n/a	2	24	Cue	MissedWin	True
235.066	3.95	Win2	0.68	0.0	No	3.134	0.0	n/a	NoResponse	0	n/a	n/a	2	24	Fixation	MissedWin	True
239.014	0.16	Win2	0.68	0.002	No	3.134	-0.002	4.0	NoResponse	0	0.199	238.213	2	24	Target	MissedWin	True
239.181	0.54	Win2	0.68	n/a	No	3.134	n/a	n/a	NoResponse	0	n/a	n/a	2	24	Blank	MissedWin	True
239.213	0.3	Win2	0.68	0.002	No	3.134	-0.002	4.0	NoResponse	0	0.199	n/a	2	24	ButtonPress	MissedWin	True
239.714	1.45	Win2	0.68	n/a	No	3.134	n/a	5.0	NoResponse	0	0.017	238.731	2	24	Feedback	MissedWin	True
241.164	3.134	Win2	0.68	n/a	No	3.134	n/a	n/a	NoResponse	0	0.0	n/a	2	24	ISIslide	MissedWin	True
244.313	0.25	Win2	0.6923	0.0	Yes	3.087	0.013	n/a	GoodResponse	1	n/a	n/a	3	25	Cue	Win	True
244.563	4.0	Win2	0.6923	0.0	Yes	3.087	0.0	n/a	GoodResponse	1	n/a	n/a	3	25	Fixation	Win	True
248.561	0.15	Win2	0.6923	0.002	Yes	3.087	-0.002	4.0	GoodResponse	1	0.111	247.672	3	25	Target	Win	True
248.672	0.3	Win2	0.6923	0.002	Yes	3.087	-0.002	4.0	GoodResponse	1	0.111	n/a	3	25	ButtonPress	Win	True
248.711	0.55	Win2	0.6923	n/a	Yes	3.087	n/a	n/a	GoodResponse	1	n/a	n/a	3	25	Blank	Win	True
249.261	1.45	Win2	0.6923	n/a	Yes	3.087	n/a	5.0	GoodResponse	1	0.031	248.292	3	25	Feedback	Win	True
250.71	3.087	Win2	0.6923	n/a	Yes	3.087	n/a	n/a	GoodResponse	1	0.0	n/a	3	25	ISIslide	Win	True
253.826	0.25	Win2	0.6667000000000001	0.0	No	2.924	0.026	n/a	NoResponse	0	n/a	n/a	3	26	Cue	MissedWin	True
254.076	3.95	Win2	0.6667000000000001	0.0	No	2.924	0.0	n/a	NoResponse	0	n/a	n/a	3	26	Fixation	MissedWin	True
258.025	0.15	Win2	0.6667000000000001	0.001	No	2.924	-0.001	4.0	NoResponse	0	0.197	257.222	3	26	Target	MissedWin	True
258.175	0.55	Win2	0.6667000000000001	n/a	No	2.924	n/a	n/a	NoResponse	0	n/a	n/a	3	26	Blank	MissedWin	True
258.222	0.3	Win2	0.6667000000000001	0.001	No	2.924	-0.001	4.0	NoResponse	0	0.197	n/a	3	26	ButtonPress	MissedWin	True
258.724	1.45	Win2	0.6667000000000001	n/a	No	2.924	n/a	5.0	NoResponse	0	0.032	257.756	3	26	Feedback	MissedWin	True
260.174	2.924	Win2	0.6667000000000001	n/a	No	2.924	n/a	n/a	NoResponse	0	0.0	n/a	3	26	ISIslide	MissedWin	True
263.123	0.25	Lose2	0.6429	0.0	No	2.827	0.023	n/a	PrematurePress	-1	n/a	n/a	2	27	Cue	Loss	True
263.373	4.05	Lose2	0.6429	0.0	No	2.827	0.0	n/a	PrematurePress	-1	n/a	n/a	2	27	Fixation	Loss	True
267.421	0.15	Lose2	0.6429	0.002	No	2.827	-0.002	4.0	PrematurePress	-1	0.066	266.487	2	27	Target	Loss	True
267.487	0.3	Lose2	0.6429	0.002	No	2.827	-0.002	4.0	PrematurePress	-1	0.066	n/a	2	27	ButtonPress	Loss	True
267.571	0.55	Lose2	0.6429	n/a	No	2.827	n/a	n/a	PrematurePress	-1	n/a	n/a	2	27	Blank	Loss	True
268.121	1.45	Lose2	0.6429	n/a	No	2.827	n/a	5.0	PrematurePress	-1	0.001	267.122	2	27	Feedback	Loss	True
269.571	2.827	Lose2	0.6429	n/a	No	2.827	n/a	n/a	PrematurePress	-1	0.0	n/a	2	27	ISIslide	Loss	True
272.42	0.25	Control	0.6207	0.0	No	2.83	0.02	n/a	NoResponse	0	n/a	n/a	2	28	Cue	Neutral	True
272.67	4.05	Control	0.6207	0.0	No	2.83	0.0	n/a	NoResponse	0	n/a	n/a	2	28	Fixation	Neutral	True
276.718	0.16	Control	0.6207	0.002	No	2.83	-0.002	4.0	NoResponse	0	0.237	275.955	2	28	Target	Neutral	True
276.885	0.54	Control	0.6207	n/a	No	2.83	n/a	n/a	NoResponse	0	n/a	n/a	2	28	Blank	Neutral	True
276.955	0.3	Control	0.6207	0.002	No	2.83	-0.002	4.0	NoResponse	0	0.237	n/a	2	28	ButtonPress	Neutral	True
277.418	1.45	Control	0.6207	n/a	No	2.83	n/a	5.0	NoResponse	0	0.021	276.439	2	28	Feedback	Neutral	True
278.867	2.83	Control	0.6207	n/a	No	2.83	n/a	n/a	NoResponse	0	0.0	n/a	2	28	ISIslide	Neutral	True
281.716	0.25	Lose2	0.6	0.001	No	2.834	0.016	n/a	NoResponse	-1	n/a	n/a	1	29	Cue	Loss	True
281.966	3.95	Lose2	0.6	0.0	No	2.834	0.0	n/a	NoResponse	-1	n/a	n/a	1	29	Fixation	Loss	True
285.915	0.17	Lose2	0.6	0.001	No	2.834	-0.001	4.0	NoResponse	-1	0.189	285.104	1	29	Target	Loss	True
286.082	0.53	Lose2	0.6	n/a	No	2.834	n/a	n/a	NoResponse	-1	n/a	n/a	1	29	Blank	Loss	True
286.104	0.3	Lose2	0.6	0.001	No	2.834	-0.001	4.0	NoResponse	-1	0.189	n/a	1	29	ButtonPress	Loss	True
286.615	1.45	Lose2	0.6	n/a	No	2.834	n/a	5.0	NoResponse	-1	0.042	285.657	1	29	Feedback	Loss	True
288.064	2.834	Lose2	0.6	n/a	No	2.834	n/a	n/a	NoResponse	-1	0.0	n/a	1	29	ISIslide	Loss	True
290.913	0.25	Win2	0.5806	0.0	No	2.787	0.013	n/a	NoResponse	0	n/a	n/a	1	30	Cue	MissedWin	True
291.163	3.9	Win2	0.5806	0.0	No	2.787	0.0	n/a	NoResponse	0	n/a	n/a	1	30	Fixation	MissedWin	True
295.062	0.18	Win2	0.5806	0.001	No	2.787	-0.001	4.0	NoResponse	0	0.218	294.28	1	30	Target	MissedWin	True
295.245	0.52	Win2	0.5806	n/a	No	2.787	n/a	n/a	NoResponse	0	n/a	n/a	1	30	Blank	MissedWin	True
295.28	0.3	Win2	0.5806	0.001	No	2.787	-0.001	4.0	NoResponse	0	0.218	n/a	1	30	ButtonPress	MissedWin	True
295.762	1.45	Win2	0.5806	n/a	No	2.787	n/a	5.0	NoResponse	0	0.017	294.779	1	30	Feedback	MissedWin	True
297.211	2.787	Win2	0.5806	n/a	No	2.787	n/a	n/a	NoResponse	0	0.0	n/a	1	30	ISIslide	MissedWin	True
300.027	0.25	Lose2	0.5625	0.0	No	2.823	0.027	n/a	NoResponse	-1	n/a	n/a	0	31	Cue	Loss	True
300.277	4.05	Lose2	0.5625	0.0	No	2.823	0.0	n/a	NoResponse	-1	n/a	n/a	0	31	Fixation	Loss	True
304.325	0.19	Lose2	0.5625	0.002	No	2.823	-0.002	4.0	NoResponse	-1	0.206	303.531	0	31	Target	Loss	True
304.525	0.51	Lose2	0.5625	n/a	No	2.823	n/a	n/a	NoResponse	-1	n/a	n/a	0	31	Blank	Loss	True
304.531	0.3	Lose2	0.5625	0.002	No	2.823	-0.002	4.0	NoResponse	-1	0.206	n/a	0	31	ButtonPress	Loss	True
305.025	1.45	Lose2	0.5625	n/a	No	2.823	n/a	5.0	NoResponse	-1	0.023	304.048	0	31	Feedback	Loss	True
306.475	2.823	Lose2	0.5625	n/a	No	2.823	n/a	n/a	NoResponse	-1	0.0	n/a	0	31	ISIslide	Loss	True
309.324	0.25	Lose2	0.5455	0.0	No	2.626	0.024	n/a	NoResponse	-1	n/a	n/a	-1	32	Cue	Loss	True
309.574	4.15	Lose2	0.5455	0.0	No	2.626	0.0	n/a	NoResponse	-1	n/a	n/a	-1	32	Fixation	Loss	True
313.722	0.2	Lose2	0.5455	0.002	No	2.626	-0.002	4.0	NoResponse	-1	0.23	312.952	-1	32	Target	Loss	True
313.922	0.5	Lose2	0.5455	n/a	No	2.626	n/a	n/a	NoResponse	-1	n/a	n/a	-1	32	Blank	Loss	True
313.952	0.3	Lose2	0.5455	0.002	No	2.626	-0.002	4.0	NoResponse	-1	0.23	n/a	-1	32	ButtonPress	Loss	True
314.422	1.45	Lose2	0.5455	n/a	No	2.626	n/a	5.0	NoResponse	-1	0.041	313.463	-1	32	Feedback	Loss	True
315.871	2.626	Lose2	0.5455	n/a	No	2.626	n/a	n/a	NoResponse	-1	0.0	n/a	-1	32	ISIslide	Loss	True
318.521	0.25	Win2	0.5294	0.0	No	2.679	0.021	n/a	NoResponse	0	n/a	n/a	-1	33	Cue	MissedWin	True
318.77	4.0	Win2	0.5294	0.001	No	2.679	-0.001	4.0	NoResponse	0	3.946	321.716	-1	33	Fixation	MissedWin	True
322.716	0.3	Win2	0.5294	0.001	No	2.679	-0.001	4.0	NoResponse	0	3.946	n/a	-1	33	ButtonPress	MissedWin	True
322.769	0.21	Win2	0.5294	0.002	No	2.679	-0.002	n/a	NoResponse	0	n/a	n/a	-1	33	Target	MissedWin	True
322.986	0.49	Win2	0.5294	n/a	No	2.679	n/a	n/a	NoResponse	0	n/a	n/a	-1	33	Blank	MissedWin	True
323.469	1.45	Win2	0.5294	n/a	No	2.679	n/a	5.0	NoResponse	0	0.018	322.487	-1	33	Feedback	MissedWin	True
324.918	2.679	Win2	0.5294	n/a	No	2.679	n/a	n/a	NoResponse	0	0.0	n/a	-1	33	ISIslide	MissedWin	True
327.617	0.25	Lose2	0.5143	0.001	No	2.633	0.017	n/a	NoResponse	-1	n/a	n/a	-2	34	Cue	Loss	True
327.867	4.05	Lose2	0.5143	0.0	No	2.633	0.0	n/a	NoResponse	-1	n/a	n/a	-2	34	Fixation	Loss	True
331.916	0.22	Lose2	0.5143	0.001	No	2.633	-0.001	4.0	NoResponse	-1	0.246	331.162	-2	34	Target	Loss	True
332.133	0.48	Lose2	0.5143	n/a	No	2.633	n/a	n/a	NoResponse	-1	n/a	n/a	-2	34	Blank	Loss	True
332.162	0.3	Lose2	0.5143	0.001	No	2.633	-0.001	4.0	NoResponse	-1	0.246	n/a	-2	34	ButtonPress	Loss	True
332.616	1.45	Lose2	0.5143	n/a	No	2.633	n/a	5.0	NoResponse	-1	0.042	331.658	-2	34	Feedback	Loss	True
334.065	2.633	Lose2	0.5143	n/a	No	2.633	n/a	n/a	NoResponse	-1	0.0	n/a	-2	34	ISIslide	Loss	True
336.714	0.25	Lose2	0.5278	0.0	Yes	2.686	0.014	n/a	GoodResponse	0	n/a	n/a	-2	35	Cue	AvoidedLoss	True
336.964	4.0	Lose2	0.5278	0.0	Yes	2.686	0.0	n/a	GoodResponse	0	n/a	n/a	-2	35	Fixation	AvoidedLoss	True
340.963	0.23	Lose2	0.5278	0.001	Yes	2.686	-0.001	4.0	GoodResponse	0	0.187	340.15	-2	35	Target	AvoidedLoss	True
341.15	0.3	Lose2	0.5278	0.001	Yes	2.686	-0.001	4.0	GoodResponse	0	0.187	n/a	-2	35	ButtonPress	AvoidedLoss	True
341.196	0.47	Lose2	0.5278	n/a	Yes	2.686	n/a	n/a	GoodResponse	0	n/a	n/a	-2	35	Blank	AvoidedLoss	True
341.663	1.45	Lose2	0.5278	n/a	Yes	2.686	n/a	5.0	GoodResponse	0	0.02	340.683	-2	35	Feedback	AvoidedLoss	True
343.112	2.686	Lose2	0.5278	n/a	Yes	2.686	n/a	n/a	GoodResponse	0	0.0	n/a	-2	35	ISIslide	AvoidedLoss	True
345.828	0.25	Control	0.5405	0.0	Yes	2.672	0.028	n/a	GoodResponse	0	n/a	n/a	-2	36	Cue	Neutral	True
346.078	4.0	Control	0.5405	0.0	Yes	2.672	0.0	n/a	GoodResponse	0	n/a	n/a	-2	36	Fixation	Neutral	True
350.076	0.24	Control	0.5405	0.002	Yes	2.672	-0.002	4.0	GoodResponse	0	0.221	349.297	-2	36	Target	Neutral	True
350.297	0.3	Control	0.5405	0.002	Yes	2.672	-0.002	4.0	GoodResponse	0	0.221	n/a	-2	36	ButtonPress	Neutral	True
350.326	0.46	Control	0.5405	n/a	Yes	2.672	n/a	n/a	GoodResponse	0	n/a	n/a	-2	36	Blank	Neutral	True
350.776	1.45	Control	0.5405	n/a	Yes	2.672	n/a	5.0	GoodResponse	0	0.029	349.805	-2	36	Feedback	Neutral	True
352.226	2.672	Control	0.5405	n/a	Yes	2.672	n/a	n/a	GoodResponse	0	0.0	n/a	-2	36	ISIslide	Neutral	True
354.925	0.25	Win2	0.5263	0.0	No	2.875	0.025	n/a	NoResponse	0	n/a	n/a	-2	37	Cue	MissedWin	True
355.175	4.0	Win2	0.5263	0.0	No	2.875	0.0	n/a	NoResponse	0	n/a	n/a	-2	37	Fixation	MissedWin	True
359.173	0.25	Win2	0.5263	0.002	No	2.875	-0.002	4.0	NoResponse	0	0.286	358.459	-2	37	Target	MissedWin	True
359.423	0.45	Win2	0.5263	n/a	No	2.875	n/a	n/a	NoResponse	0	n/a	n/a	-2	37	Blank	MissedWin	True
359.459	0.3	Win2	0.5263	0.002	No	2.875	-0.002	4.0	NoResponse	0	0.286	n/a	-2	37	ButtonPress	MissedWin	True
359.873	1.45	Win2	0.5263	n/a	No	2.875	n/a	5.0	NoResponse	0	0.004	358.877	-2	37	Feedback	MissedWin	True
361.323	2.875	Win2	0.5263	n/a	No	2.875	n/a	n/a	NoResponse	0	0.0	n/a	-2	37	ISIslide	MissedWin	True
364.222	0.25	Lose2	0.5128	0.0	No	2.828	0.022	n/a	PrematurePress	-1	n/a	n/a	-3	38	Cue	Loss	False
364.471	3.95	Lose2	0.5128	0.001	No	2.828	-0.001	4.0	PrematurePress	-1	3.793	367.264	-3	38	Fixation	Loss	False
368.264	0.3	Lose2	0.5128	0.001	No	2.828	-0.001	4.0	PrematurePress	-1	3.793	n/a	-3	38	ButtonPress	Loss	False
368.42	0.26	Lose2	0.5128	0.002	No	2.828	-0.002	4.0	PrematurePress	-1	0.092	367.512	-3	38	Target	Loss	False
368.512	0.3	Lose2	0.5128	0.002	No	2.828	-0.002	4.0	PrematurePress	-1	0.092	n/a	-3	38	ButtonPress	Loss	False
368.687	0.44	Lose2	0.5128	n/a	No	2.828	n/a	n/a	PrematurePress	-1	n/a	n/a	-3	38	Blank	Loss	False
369.12	1.45	Lose2	0.5128	n/a	No	2.828	n/a	5.0	PrematurePress	-1	0.025	368.145	-3	38	Feedback	Loss	False
370.569	2.828	Lose2	0.5128	n/a	No	2.828	n/a	n/a	PrematurePress	-1	0.0	n/a	-3	38	ISIslide	Loss	False
373.418	0.25	Win2	0.525	0.0	Yes	2.982	0.018	n/a	GoodResponse	1	n/a	n/a	-2	39	Cue	Win	True
373.668	4.1	Win2	0.525	0.0	Yes	2.982	0.0	n/a	GoodResponse	1	n/a	n/a	-2	39	Fixation	Win	True
377.767	0.27	Win2	0.525	0.001	Yes	2.982	-0.001	4.0	GoodResponse	1	0.2	376.967	-2	39	Target	Win	True
377.967	0.3	Win2	0.525	0.001	Yes	2.982	-0.001	4.0	GoodResponse	1	0.2	n/a	-2	39	ButtonPress	Win	True
378.034	0.43	Win2	0.525	n/a	Yes	2.982	n/a	n/a	GoodResponse	1	n/a	n/a	-2	39	Blank	Win	True
378.467	1.45	Win2	0.525	n/a	Yes	2.982	n/a	5.0	GoodResponse	1	0.044	377.511	-2	39	Feedback	Win	True
379.916	2.982	Win2	0.525	n/a	Yes	2.982	n/a	n/a	GoodResponse	1	0.0	n/a	-2	39	ISIslide	Win	True
382.915	0.25	Win2	0.5122	0.0	No	2.735	0.015	n/a	NoResponse	0	n/a	n/a	-2	40	Cue	MissedWin	True
383.165	3.95	Win2	0.5122	0.0	No	2.735	0.0	n/a	NoResponse	0	n/a	n/a	-2	40	Fixation	MissedWin	True
387.114	0.28	Win2	0.5122	0.001	No	2.735	-0.001	4.0	NoResponse	0	0.316	386.43	-2	40	Target	MissedWin	True
387.397	0.42	Win2	0.5122	n/a	No	2.735	n/a	n/a	NoResponse	0	n/a	n/a	-2	40	Blank	MissedWin	True
387.43	0.3	Win2	0.5122	0.001	No	2.735	-0.001	4.0	NoResponse	0	0.316	n/a	-2	40	ButtonPress	MissedWin	True
387.813	1.45	Win2	0.5122	n/a	No	2.735	n/a	5.0	NoResponse	0	0.015	386.828	-2	40	Feedback	MissedWin	True
389.263	2.735	Win2	0.5122	n/a	No	2.735	n/a	n/a	NoResponse	0	0.0	n/a	-2	40	ISIslide	MissedWin	True
392.012	0.25	Win2	0.5238	0.0	Yes	2.788	0.012	n/a	GoodResponse	1	n/a	n/a	-1	41	Cue	Win	True
392.262	3.9	Win2	0.5238	0.0	Yes	2.788	0.0	n/a	GoodResponse	1	n/a	n/a	-1	41	Fixation	Win	True
396.161	0.29	Win2	0.5238	0.001	Yes	2.788	-0.001	4.0	GoodResponse	1	0.162	395.323	-1	41	Target	Win	True
396.323	0.3	Win2	0.5238	0.001	Yes	2.788	-0.001	4.0	GoodResponse	1	0.162	n/a	-1	41	ButtonPress	Win	True
396.461	0.41	Win2	0.5238	n/a	Yes	2.788	n/a	n/a	GoodResponse	1	n/a	n/a	-1	41	Blank	Win	True
396.86	1.45	Win2	0.5238	n/a	Yes	2.788	n/a	5.0	GoodResponse	1	0.042	395.902	-1	41	Feedback	Win	True
398.31	2.788	Win2	0.5238	n/a	Yes	2.788	n/a	n/a	GoodResponse	1	0.0	n/a	-1	41	ISIslide	Win	True
401.126	0.25	Control	0.5349	0.0	Yes	2.924	0.026	n/a	GoodResponse	0	n/a	n/a	-1	42	Cue	Neutral	True
401.376	3.85	Control	0.5349	0.0	Yes	2.924	0.0	n/a	GoodResponse	0	n/a	n/a	-1	42	Fixation	Neutral	True
405.224	0.3	Control	0.5349	0.002	Yes	2.924	-0.002	4.0	GoodResponse	0	0.174	404.398	-1	42	Target	Neutral	True
405.398	0.3	Control	0.5349	0.002	Yes	2.924	-0.002	4.0	GoodResponse	0	0.174	n/a	-1	42	ButtonPress	Neutral	True
405.524	0.4	Control	0.5349	n/a	Yes	2.924	n/a	n/a	GoodResponse	0	n/a	n/a	-1	42	Blank	Neutral	True
405.924	1.45	Control	0.5349	n/a	Yes	2.924	n/a	5.0	GoodResponse	0	0.002	404.926	-1	42	Feedback	Neutral	True
407.373	2.924	Control	0.5349	n/a	Yes	2.924	n/a	n/a	GoodResponse	0	0.0	n/a	-1	42	ISIslide	Neutral	True
410.322	0.25	Win2	0.5455	0.001	Yes	3.178	0.022	n/a	GoodResponse	1	n/a	n/a	0	43	Cue	Win	True
410.572	4.0	Win2	0.5455	0.0	Yes	3.178	0.0	n/a	GoodResponse	1	n/a	n/a	0	43	Fixation	Win	True
414.571	0.31	Win2	0.5455	0.001	Yes	3.178	-0.001	4.0	GoodResponse	1	0.147	413.718	0	43	Target	Win	True
414.718	0.3	Win2	0.5455	0.001	Yes	3.178	-0.001	4.0	GoodResponse	1	0.147	n/a	0	43	ButtonPress	Win	True
414.888	0.39	Win2	0.5455	n/a	Yes	3.178	n/a	n/a	GoodResponse	1	n/a	n/a	0	43	Blank	Win	True
415.271	1.45	Win2	0.5455	n/a	Yes	3.178	n/a	5.0	GoodResponse	1	0.021	414.292	0	43	Feedback	Win	True
416.72	3.178	Win2	0.5455	n/a	Yes	3.178	n/a	n/a	GoodResponse	1	0.0	n/a	0	43	ISIslide	Win	True
419.919	0.25	Win2	0.5556	0.0	Yes	2.981	0.019	n/a	GoodResponse	1	n/a	n/a	1	44	Cue	Win	True
420.169	4.0	Win2	0.5556	0.0	Yes	2.981	0.0	n/a	GoodResponse	1	n/a	n/a	1	44	Fixation	Win	True
424.168	0.32	Win2	0.5556	0.001	Yes	2.981	-0.001	4.0	GoodResponse	1	0.216	423.384	1	44	Target	Win	True
424.384	0.3	Win2	0.5556	0.001	Yes	2.981	-0.001	4.0	GoodResponse	1	0.216	n/a	1	44	ButtonPress	Win	True
424.501	0.38	Win2	0.5556	n/a	Yes	2.981	n/a	n/a	GoodResponse	1	n/a	n/a	1	44	Blank	Win	True
424.867	1.45	Win2	0.5556	n/a	Yes	2.981	n/a	5.0	GoodResponse	1	0.035	423.902	1	44	Feedback	Win	True
426.317	2.981	Win2	0.5556	n/a	Yes	2.981	n/a	n/a	GoodResponse	1	0.0	n/a	1	44	ISIslide	Win	True
429.316	0.25	Control	0.5652	0.0	Yes	2.884	0.016	n/a	GoodResponse	0	n/a	n/a	1	45	Cue	Neutral	True
429.566	4.1	Control	0.5652	0.0	Yes	2.884	0.0	n/a	GoodResponse	0	n/a	n/a	1	45	Fixation	Neutral	True
433.664	0.33	Control	0.5652	0.002	Yes	2.884	-0.002	4.0	GoodResponse	0	0.191	432.855	1	45	Target	Neutral	True
433.855	0.3	Control	0.5652	0.002	Yes	2.884	-0.002	4.0	GoodResponse	0	0.191	n/a	1	45	ButtonPress	Neutral	True
433.998	0.37	Control	0.5652	n/a	Yes	2.884	n/a	n/a	GoodResponse	0	n/a	n/a	1	45	Blank	Neutral	True
434.364	1.45	Control	0.5652	n/a	Yes	2.884	n/a	5.0	GoodResponse	0	0.001	433.365	1	45	Feedback	Neutral	True
435.814	2.884	Control	0.5652	n/a	Yes	2.884	n/a	n/a	GoodResponse	0	0.0	n/a	1	45	ISIslide	Neutral	True
438.713	0.25	Lose2	0.5745	0.0	Yes	3.387	0.013	n/a	GoodResponse	0	n/a	n/a	1	46	Cue	AvoidedLoss	True
438.963	4.0	Lose2	0.5745	0.0	Yes	3.387	0.0	n/a	GoodResponse	0	n/a	n/a	1	46	Fixation	AvoidedLoss	True
442.961	0.34	Lose2	0.5745	0.002	Yes	3.387	-0.002	4.0	GoodResponse	0	0.164	442.125	1	46	Target	AvoidedLoss	True
443.125	0.3	Lose2	0.5745	0.002	Yes	3.387	-0.002	4.0	GoodResponse	0	0.164	n/a	1	46	ButtonPress	AvoidedLoss	True
443.311	0.36	Lose2	0.5745	n/a	Yes	3.387	n/a	n/a	GoodResponse	0	n/a	n/a	1	46	Blank	AvoidedLoss	True
443.661	1.45	Lose2	0.5745	n/a	Yes	3.387	n/a	5.0	GoodResponse	0	0.021	442.682	1	46	Feedback	AvoidedLoss	True
445.111	3.387	Lose2	0.5745	n/a	Yes	3.387	n/a	n/a	GoodResponse	0	0.0	n/a	1	46	ISIslide	AvoidedLoss	True
448.526	0.25	Lose2	0.5832999999999999	0.0	Yes	2.674	0.026	n/a	GoodResponse	0	n/a	n/a	1	47	Cue	AvoidedLoss	True
448.776	4.0	Lose2	0.5832999999999999	0.0	Yes	2.674	0.0	n/a	GoodResponse	0	n/a	n/a	1	47	Fixation	AvoidedLoss	True
452.775	0.35	Lose2	0.5832999999999999	0.001	Yes	2.674	-0.001	4.0	GoodResponse	0	0.205	451.98	1	47	Target	AvoidedLoss	True
452.98	0.3	Lose2	0.5832999999999999	0.001	Yes	2.674	-0.001	4.0	GoodResponse	0	0.205	n/a	1	47	ButtonPress	AvoidedLoss	True
453.124	0.35	Lose2	0.5832999999999999	n/a	Yes	2.674	n/a	n/a	GoodResponse	0	n/a	n/a	1	47	Blank	AvoidedLoss	True
453.474	1.45	Lose2	0.5832999999999999	n/a	Yes	2.674	n/a	5.0	GoodResponse	0	0.013	452.487	1	47	Feedback	AvoidedLoss	True
454.924	2.674	Lose2	0.5832999999999999	n/a	Yes	2.674	n/a	n/a	GoodResponse	0	0.0	n/a	1	47	ISIslide	AvoidedLoss	True
457.623	0.25	Lose2	0.5918	0.0	Yes	3.027	0.023	n/a	GoodResponse	0	n/a	n/a	1	48	Cue	AvoidedLoss	True
457.873	3.95	Lose2	0.5918	0.0	Yes	3.027	0.0	n/a	GoodResponse	0	n/a	n/a	1	48	Fixation	AvoidedLoss	True
461.821	0.36	Lose2	0.5918	0.002	Yes	3.027	-0.002	4.0	GoodResponse	0	0.194	461.015	1	48	Target	AvoidedLoss	True
462.015	0.3	Lose2	0.5918	0.002	Yes	3.027	-0.002	4.0	GoodResponse	0	0.194	n/a	1	48	ButtonPress	AvoidedLoss	True
462.188	0.34	Lose2	0.5918	n/a	Yes	3.027	n/a	n/a	GoodResponse	0	n/a	n/a	1	48	Blank	AvoidedLoss	True
462.521	1.45	Lose2	0.5918	n/a	Yes	3.027	n/a	5.0	GoodResponse	0	0.039	461.56	1	48	Feedback	AvoidedLoss	True
463.971	3.027	Lose2	0.5918	n/a	Yes	3.027	n/a	n/a	GoodResponse	0	0.0	n/a	1	48	ISIslide	AvoidedLoss	True
467.02	0.25	Control	0.6	0.0	Yes	2.88	0.02	n/a	GoodResponse	0	n/a	n/a	1	49	Cue	Neutral	False
467.27	4.0	Control	0.6	0.0	Yes	2.88	0.0	4.0	GoodResponse	0	3.328	469.598	1	49	Fixation	Neutral	False
470.598	0.3	Control	0.6	0.0	Yes	2.88	0.0	4.0	GoodResponse	0	3.328	n/a	1	49	ButtonPress	Neutral	False
471.268	0.37	Control	0.6	0.002	Yes	2.88	-0.002	4.0	GoodResponse	0	0.23	470.498	1	49	Target	Neutral	False
471.498	0.3	Control	0.6	0.002	Yes	2.88	-0.002	4.0	GoodResponse	0	0.23	n/a	1	49	ButtonPress	Neutral	False
471.651	0.33	Control	0.6	n/a	Yes	2.88	n/a	n/a	GoodResponse	0	n/a	n/a	1	49	Blank	Neutral	False
471.968	1.45	Control	0.6	n/a	Yes	2.88	n/a	5.0	GoodResponse	0	0.007	470.975	1	49	Feedback	Neutral	False
473.418	2.88	Control	0.6	n/a	Yes	2.88	n/a	n/a	GoodResponse	0	0.0	n/a	1	49	ISIslide	Neutral	False
476.317	0.25	Control	0.6078	0.0	Yes	2.783	0.017	n/a	GoodResponse	0	n/a	n/a	1	50	Cue	Neutral	True
476.566	4.0	Control	0.6078	0.001	Yes	2.783	-0.001	n/a	GoodResponse	0	n/a	n/a	1	50	Fixation	Neutral	True
480.565	0.38	Control	0.6078	0.002	Yes	2.783	-0.002	4.0	GoodResponse	0	0.203	479.768	1	50	Target	Neutral	True
480.768	0.3	Control	0.6078	0.002	Yes	2.783	-0.002	4.0	GoodResponse	0	0.203	n/a	1	50	ButtonPress	Neutral	True
480.948	0.32	Control	0.6078	n/a	Yes	2.783	n/a	n/a	GoodResponse	0	n/a	n/a	1	50	Blank	Neutral	True
481.265	1.45	Control	0.6078	n/a	Yes	2.783	n/a	5.0	GoodResponse	0	0.027	480.292	1	50	Feedback	Neutral	True
482.714	2.783	Control	0.6078	n/a	Yes	2.783	n/a	n/a	GoodResponse	0	0.0	n/a	1	50	ISIslide	Neutral	True
485.513	0.25	Control	0.6154	0.0	Yes	2.737	0.013	n/a	GoodResponse	0	n/a	n/a	1	51	Cue	Neutral	True
485.763	3.95	Control	0.6154	0.0	Yes	2.737	0.0	n/a	GoodResponse	0	n/a	n/a	1	51	Fixation	Neutral	True
489.712	0.39	Control	0.6154	0.001	Yes	2.737	-0.001	4.0	GoodResponse	0	0.218	488.93	1	51	Target	Neutral	True
489.93	0.3	Control	0.6154	0.001	Yes	2.737	-0.001	4.0	GoodResponse	0	0.218	n/a	1	51	ButtonPress	Neutral	True
490.112	0.31	Control	0.6154	n/a	Yes	2.737	n/a	n/a	GoodResponse	0	n/a	n/a	1	51	Blank	Neutral	True
490.412	1.45	Control	0.6154	n/a	Yes	2.737	n/a	5.0	GoodResponse	0	0.004	489.416	1	51	Feedback	Neutral	True
491.861	2.737	Control	0.6154	n/a	Yes	2.737	n/a	n/a	GoodResponse	0	0.0	n/a	1	51	ISIslide	Neutral	True
494.61	0.25	Control	0.6225999999999999	0.0	Yes	2.64	0.01	n/a	GoodResponse	0	n/a	n/a	1	52	Cue	Neutral	True
494.86	4.05	Control	0.6225999999999999	0.0	Yes	2.64	0.0	n/a	GoodResponse	0	n/a	n/a	1	52	Fixation	Neutral	True
498.909	0.4	Control	0.6225999999999999	0.001	Yes	2.64	-0.001	4.0	GoodResponse	0	0.204	498.113	1	52	Target	Neutral	True
499.113	0.3	Control	0.6225999999999999	0.001	Yes	2.64	-0.001	4.0	GoodResponse	0	0.204	n/a	1	52	ButtonPress	Neutral	True
499.309	0.3	Control	0.6225999999999999	n/a	Yes	2.64	n/a	n/a	GoodResponse	0	n/a	n/a	1	52	Blank	Neutral	True
499.609	1.45	Control	0.6225999999999999	n/a	Yes	2.64	n/a	5.0	GoodResponse	0	0.025	498.634	1	52	Feedback	Neutral	True
501.058	2.64	Control	0.6225999999999999	n/a	Yes	2.64	n/a	n/a	GoodResponse	0	0.0	n/a	1	52	ISIslide	Neutral	True
503.724	0.25	Win2	0.6296	0.0	Yes	2.926	0.024	n/a	GoodResponse	1	n/a	n/a	2	53	Cue	Win	True
503.974	4.05	Win2	0.6296	0.0	Yes	2.926	0.0	n/a	GoodResponse	1	n/a	n/a	2	53	Fixation	Win	True
508.022	0.41	Win2	0.6296	0.002	Yes	2.926	-0.002	4.0	GoodResponse	1	0.187	507.209	2	53	Target	Win	True
508.209	0.3	Win2	0.6296	0.002	Yes	2.926	-0.002	4.0	GoodResponse	1	0.187	n/a	2	53	ButtonPress	Win	True
508.439	0.29	Win2	0.6296	n/a	Yes	2.926	n/a	n/a	GoodResponse	1	n/a	n/a	2	53	Blank	Win	True
508.722	1.45	Win2	0.6296	n/a	Yes	2.926	n/a	5.0	GoodResponse	1	0.033	507.755	2	53	Feedback	Win	True
510.172	2.926	Win2	0.6296	n/a	Yes	2.926	n/a	n/a	GoodResponse	1	0.0	n/a	2	53	ISIslide	Win	True
513.121	0.25	Win2	0.6364	0.0	Yes	2.729	0.021	n/a	GoodResponse	1	n/a	n/a	3	54	Cue	Win	True
513.371	3.95	Win2	0.6364	0.0	Yes	2.729	0.0	n/a	GoodResponse	1	n/a	n/a	3	54	Fixation	Win	True
517.319	0.42	Win2	0.6364	0.002	Yes	2.729	-0.002	4.0	GoodResponse	1	0.227	516.546	3	54	Target	Win	True
517.546	0.3	Win2	0.6364	0.002	Yes	2.729	-0.002	4.0	GoodResponse	1	0.227	n/a	3	54	ButtonPress	Win	True
517.752	0.28	Win2	0.6364	n/a	Yes	2.729	n/a	n/a	GoodResponse	1	n/a	n/a	3	54	Blank	Win	True
518.019	1.45	Win2	0.6364	n/a	Yes	2.729	n/a	5.0	GoodResponse	1	0.004	517.023	3	54	Feedback	Win	True
519.468	2.729	Win2	0.6364	n/a	Yes	2.729	n/a	n/a	GoodResponse	1	0.0	n/a	3	54	ISIslide	Win	True
522.217	0.25	Control	0.6429	0.001	Yes	3.033	0.017	n/a	GoodResponse	0	n/a	n/a	3	55	Cue	Neutral	True
522.467	3.95	Control	0.6429	0.0	Yes	3.033	0.0	n/a	GoodResponse	0	n/a	n/a	3	55	Fixation	Neutral	True
526.416	0.43	Control	0.6429	0.001	Yes	3.033	-0.001	4.0	GoodResponse	0	0.236	525.652	3	55	Target	Neutral	True
526.652	0.3	Control	0.6429	0.001	Yes	3.033	-0.001	4.0	GoodResponse	0	0.236	n/a	3	55	ButtonPress	Neutral	True
526.849	0.27	Control	0.6429	n/a	Yes	3.033	n/a	n/a	GoodResponse	0	n/a	n/a	3	55	Blank	Neutral	True
527.116	1.45	Control	0.6429	n/a	Yes	3.033	n/a	5.0	GoodResponse	0	0.029	526.145	3	55	Feedback	Neutral	True
528.565	3.033	Control	0.6429	n/a	Yes	3.033	n/a	n/a	GoodResponse	0	0.0	n/a	3	55	ISIslide	Neutral	True
531.614	0.25	Control	0.6491	0.0	Yes	2.836	0.014	n/a	GoodResponse	0	n/a	n/a	3	56	Cue	Neutral	True
531.864	3.95	Control	0.6491	0.0	Yes	2.836	0.0	n/a	GoodResponse	0	n/a	n/a	3	56	Fixation	Neutral	True
535.813	0.44	Control	0.6491	0.001	Yes	2.836	-0.001	4.0	GoodResponse	0	0.24	535.053	3	56	Target	Neutral	True
536.053	0.3	Control	0.6491	0.001	Yes	2.836	-0.001	4.0	GoodResponse	0	0.24	n/a	3	56	ButtonPress	Neutral	True
536.263	0.26	Control	0.6491	n/a	Yes	2.836	n/a	n/a	GoodResponse	0	n/a	n/a	3	56	Blank	Neutral	True
536.513	1.45	Control	0.6491	n/a	Yes	2.836	n/a	5.0	GoodResponse	0	0.047	535.56	3	56	Feedback	Neutral	True
537.962	2.836	Control	0.6491	n/a	Yes	2.836	n/a	n/a	GoodResponse	0	0.0	n/a	3	56	ISIslide	Neutral	True
540.811	0.25	Control	0.6552	0.0	Yes	3.489	0.011	n/a	GoodResponse	0	n/a	n/a	3	57	Cue	Neutral	True
541.061	4.0	Control	0.6552	0.0	Yes	3.489	0.0	n/a	GoodResponse	0	n/a	n/a	3	57	Fixation	Neutral	True
545.06	0.45	Control	0.6552	0.001	Yes	3.489	-0.001	4.0	GoodResponse	0	0.239	544.299	3	57	Target	Neutral	True
545.299	0.3	Control	0.6552	0.001	Yes	3.489	-0.001	4.0	GoodResponse	0	0.239	n/a	3	57	ButtonPress	Neutral	True
545.51	0.25	Control	0.6552	n/a	Yes	3.489	n/a	n/a	GoodResponse	0	n/a	n/a	3	57	Blank	Neutral	True
545.759	1.45	Control	0.6552	n/a	Yes	3.489	n/a	5.0	GoodResponse	0	0.021	544.78	3	57	Feedback	Neutral	True
547.209	3.489	Control	0.6552	n/a	Yes	3.489	n/a	n/a	GoodResponse	0	0.0	n/a	3	57	ISIslide	Neutral	True
550.724	0.25	Win2	0.6609999999999999	0.0	Yes	2.726	0.024	n/a	GoodResponse	1	n/a	n/a	4	58	Cue	Win	True
550.974	4.05	Win2	0.6609999999999999	0.0	Yes	2.726	0.0	n/a	GoodResponse	1	n/a	n/a	4	58	Fixation	Win	True
555.023	0.45	Win2	0.6609999999999999	0.001	Yes	2.726	-0.001	4.0	GoodResponse	1	0.217	554.24	4	58	Target	Win	True
555.24	0.3	Win2	0.6609999999999999	0.001	Yes	2.726	-0.001	4.0	GoodResponse	1	0.217	n/a	4	58	ButtonPress	Win	True
555.473	0.25	Win2	0.6609999999999999	n/a	Yes	2.726	n/a	n/a	GoodResponse	1	n/a	n/a	4	58	Blank	Win	True
555.723	1.45	Win2	0.6609999999999999	n/a	Yes	2.726	n/a	5.0	GoodResponse	1	0.008	554.731	4	58	Feedback	Win	True
557.172	2.726	Win2	0.6609999999999999	n/a	Yes	2.726	n/a	n/a	GoodResponse	1	0.0	n/a	4	58	ISIslide	Win	True
559.921	0.25	Lose2	0.6667000000000001	0.0	Yes	2.679	0.021	n/a	GoodResponse	0	n/a	n/a	4	59	Cue	AvoidedLoss	True
560.171	4.0	Lose2	0.6667000000000001	0.0	Yes	2.679	0.0	n/a	GoodResponse	0	n/a	n/a	4	59	Fixation	AvoidedLoss	True
564.17	0.45	Lose2	0.6667000000000001	0.001	Yes	2.679	-0.001	4.0	GoodResponse	0	0.243	563.413	4	59	Target	AvoidedLoss	True
564.413	0.3	Lose2	0.6667000000000001	0.001	Yes	2.679	-0.001	4.0	GoodResponse	0	0.243	n/a	4	59	ButtonPress	AvoidedLoss	True
564.62	0.25	Lose2	0.6667000000000001	n/a	Yes	2.679	n/a	n/a	GoodResponse	0	n/a	n/a	4	59	Blank	AvoidedLoss	True
564.87	1.45	Lose2	0.6667000000000001	n/a	Yes	2.679	n/a	5.0	GoodResponse	0	0.032	563.902	4	59	Feedback	AvoidedLoss	True
566.319	2.679	Lose2	0.6667000000000001	n/a	Yes	2.679	n/a	n/a	GoodResponse	0	0.0	n/a	4	59	ISIslide	AvoidedLoss	True
569.018	0.25	Control	0.6720999999999999	0.0	Yes	2.682	0.018	n/a	GoodResponse	0	n/a	n/a	4	60	Cue	Neutral	False
569.268	4.0	Control	0.6720999999999999	0.0	Yes	2.682	0.0	4.0	GoodResponse	0	3.74	572.008	4	60	Fixation	Neutral	False
573.008	0.3	Control	0.6720999999999999	0.0	Yes	2.682	0.0	4.0	GoodResponse	0	3.74	n/a	4	60	ButtonPress	Neutral	False
573.267	0.44	Control	0.6720999999999999	0.001	Yes	2.682	-0.001	4.0	GoodResponse	0	0.202	572.469	4	60	Target	Neutral	False
573.469	0.3	Control	0.6720999999999999	0.001	Yes	2.682	-0.001	4.0	GoodResponse	0	0.202	n/a	4	60	ButtonPress	Neutral	False
573.717	0.26	Control	0.6720999999999999	n/a	Yes	2.682	n/a	n/a	GoodResponse	0	n/a	n/a	4	60	Blank	Neutral	False
573.966	1.45	Control	0.6720999999999999	n/a	Yes	2.682	n/a	5.0	GoodResponse	0	0.009	572.975	4	60	Feedback	Neutral	False
575.416	2.682	Control	0.6720999999999999	n/a	Yes	2.682	n/a	n/a	GoodResponse	0	0.0	n/a	4	60	ISIslide	Neutral	False
578.115	0.25	Lose2	0.6774	0.0	Yes	2.985	0.015	n/a	GoodResponse	0	n/a	n/a	4	61	Cue	AvoidedLoss	True
578.365	4.0	Lose2	0.6774	0.0	Yes	2.985	0.0	n/a	GoodResponse	0	n/a	n/a	4	61	Fixation	AvoidedLoss	True
582.364	0.43	Lose2	0.6774	0.001	Yes	2.985	-0.001	4.0	GoodResponse	0	0.204	581.568	4	61	Target	AvoidedLoss	True
582.568	0.3	Lose2	0.6774	0.001	Yes	2.985	-0.001	4.0	GoodResponse	0	0.204	n/a	4	61	ButtonPress	AvoidedLoss	True
582.797	0.27	Lose2	0.6774	n/a	Yes	2.985	n/a	n/a	GoodResponse	0	n/a	n/a	4	61	Blank	AvoidedLoss	True
583.063	1.45	Lose2	0.6774	n/a	Yes	2.985	n/a	5.0	GoodResponse	0	0.033	582.096	4	61	Feedback	AvoidedLoss	True
584.513	2.985	Lose2	0.6774	n/a	Yes	2.985	n/a	n/a	GoodResponse	0	0.0	n/a	4	61	ISIslide	AvoidedLoss	True
587.512	0.25	Lose2	0.6825	0.0	Yes	2.888	0.012	n/a	GoodResponse	0	n/a	n/a	4	62	Cue	AvoidedLoss	True
587.762	3.9	Lose2	0.6825	0.0	Yes	2.888	0.0	n/a	GoodResponse	0	n/a	n/a	4	62	Fixation	AvoidedLoss	True
591.66	0.42	Lose2	0.6825	0.002	Yes	2.888	-0.002	4.0	GoodResponse	0	0.216	590.876	4	62	Target	AvoidedLoss	True
591.876	0.3	Lose2	0.6825	0.002	Yes	2.888	-0.002	4.0	GoodResponse	0	0.216	n/a	4	62	ButtonPress	AvoidedLoss	True
592.094	0.28	Lose2	0.6825	n/a	Yes	2.888	n/a	n/a	GoodResponse	0	n/a	n/a	4	62	Blank	AvoidedLoss	True
592.36	1.45	Lose2	0.6825	n/a	Yes	2.888	n/a	5.0	GoodResponse	0	0.005	591.365	4	62	Feedback	AvoidedLoss	True
593.81	2.888	Lose2	0.6825	n/a	Yes	2.888	n/a	n/a	GoodResponse	0	0.0	n/a	4	62	ISIslide	AvoidedLoss	True
596.725	0.25	Lose2	0.6875	0.0	Yes	2.625	0.025	n/a	GoodResponse	0	n/a	n/a	4	63	Cue	AvoidedLoss	True
596.975	4.05	Lose2	0.6875	0.0	Yes	2.625	0.0	n/a	GoodResponse	0	n/a	n/a	4	63	Fixation	AvoidedLoss	True
601.024	0.41	Lose2	0.6875	0.001	Yes	2.625	-0.001	4.0	GoodResponse	0	0.218	600.242	4	63	Target	AvoidedLoss	True
601.242	0.3	Lose2	0.6875	0.001	Yes	2.625	-0.001	4.0	GoodResponse	0	0.218	n/a	4	63	ButtonPress	AvoidedLoss	True
601.44	0.29	Lose2	0.6875	n/a	Yes	2.625	n/a	n/a	GoodResponse	0	n/a	n/a	4	63	Blank	AvoidedLoss	True
601.724	1.45	Lose2	0.6875	n/a	Yes	2.625	n/a	5.0	GoodResponse	0	0.007	600.731	4	63	Feedback	AvoidedLoss	True
603.173	2.625	Lose2	0.6875	n/a	Yes	2.625	n/a	n/a	GoodResponse	0	0.0	n/a	4	63	ISIslide	AvoidedLoss	True
605.822	0.25	Win2	0.6923	0.0	Yes	3.128	0.022	n/a	GoodResponse	1	n/a	n/a	5	64	Cue	Win	True
606.072	4.15	Win2	0.6923	0.0	Yes	3.128	0.0	n/a	GoodResponse	1	n/a	n/a	5	64	Fixation	Win	True
610.221	0.4	Win2	0.6923	0.001	Yes	3.128	-0.001	4.0	GoodResponse	1	0.205	609.426	5	64	Target	Win	True
610.426	0.3	Win2	0.6923	0.001	Yes	3.128	-0.001	4.0	GoodResponse	1	0.205	n/a	5	64	ButtonPress	Win	True
610.621	0.3	Win2	0.6923	n/a	Yes	3.128	n/a	n/a	GoodResponse	1	n/a	n/a	5	64	Blank	Win	True
610.92	1.45	Win2	0.6923	n/a	Yes	3.128	n/a	5.0	GoodResponse	1	0.03	609.95	5	64	Feedback	Win	True
612.37	3.128	Win2	0.6923	n/a	Yes	3.128	n/a	n/a	GoodResponse	1	0.0	n/a	5	64	ISIslide	Win	True
615.519	0.25	Control	0.6970000000000001	0.0	Yes	2.781	0.019	n/a	GoodResponse	0	n/a	n/a	5	65	Cue	Neutral	True
615.769	4.0	Control	0.6970000000000001	0.0	Yes	2.781	0.0	n/a	GoodResponse	0	n/a	n/a	5	65	Fixation	Neutral	True
619.767	0.39	Control	0.6970000000000001	0.002	Yes	2.781	-0.002	4.0	GoodResponse	0	0.228	618.995	5	65	Target	Neutral	True
619.995	0.3	Control	0.6970000000000001	0.002	Yes	2.781	-0.002	4.0	GoodResponse	0	0.228	n/a	5	65	ButtonPress	Neutral	True
620.167	0.31	Control	0.6970000000000001	n/a	Yes	2.781	n/a	n/a	GoodResponse	0	n/a	n/a	5	65	Blank	Neutral	True
620.467	1.45	Control	0.6970000000000001	n/a	Yes	2.781	n/a	5.0	GoodResponse	0	0.044	619.511	5	65	Feedback	Neutral	True
621.917	2.781	Control	0.6970000000000001	n/a	Yes	2.781	n/a	n/a	GoodResponse	0	0.0	n/a	5	65	ISIslide	Neutral	True
624.716	0.25	Win2	0.7015	0.0	Yes	2.784	0.016	n/a	GoodResponse	1	n/a	n/a	6	66	Cue	Win	True
624.966	3.9	Win2	0.7015	0.0	Yes	2.784	0.0	n/a	GoodResponse	1	n/a	n/a	6	66	Fixation	Win	True
628.864	0.38	Win2	0.7015	0.002	Yes	2.784	-0.002	4.0	GoodResponse	1	0.223	628.087	6	66	Target	Win	True
629.087	0.3	Win2	0.7015	0.002	Yes	2.784	-0.002	4.0	GoodResponse	1	0.223	n/a	6	66	ButtonPress	Win	True
629.248	0.32	Win2	0.7015	n/a	Yes	2.784	n/a	n/a	GoodResponse	1	n/a	n/a	6	66	Blank	Win	True
629.564	1.45	Win2	0.7015	n/a	Yes	2.784	n/a	5.0	GoodResponse	1	0.021	628.585	6	66	Feedback	Win	True
631.014	2.784	Win2	0.7015	n/a	Yes	2.784	n/a	n/a	GoodResponse	1	0.0	n/a	6	66	ISIslide	Win	True
633.813	0.25	Control	0.7059000000000001	0.0	Yes	2.737	0.013	n/a	GoodResponse	0	n/a	n/a	6	67	Cue	Neutral	True
634.063	3.95	Control	0.7059000000000001	0.0	Yes	2.737	0.0	n/a	GoodResponse	0	n/a	n/a	6	67	Fixation	Neutral	True
638.011	0.37	Control	0.7059000000000001	0.002	Yes	2.737	-0.002	4.0	GoodResponse	0	0.219	637.23	6	67	Target	Neutral	True
638.23	0.3	Control	0.7059000000000001	0.002	Yes	2.737	-0.002	4.0	GoodResponse	0	0.219	n/a	6	67	ButtonPress	Neutral	True
638.394	0.33	Control	0.7059000000000001	n/a	Yes	2.737	n/a	n/a	GoodResponse	0	n/a	n/a	6	67	Blank	Neutral	True
638.711	1.45	Control	0.7059000000000001	n/a	Yes	2.737	n/a	5.0	GoodResponse	0	0.045	637.756	6	67	Feedback	Neutral	True
640.16	2.737	Control	0.7059000000000001	n/a	Yes	2.737	n/a	n/a	GoodResponse	0	0.0	n/a	6	67	ISIslide	Neutral	True
642.926	0.25	Win2	0.6957	0.0	No	3.074	0.026	n/a	NoResponse	0	n/a	n/a	6	68	Cue	MissedWin	True
643.176	4.0	Win2	0.6957	0.0	No	3.074	0.0	4.0	NoResponse	0	3.98	646.156	6	68	Fixation	MissedWin	True
647.156	0.3	Win2	0.6957	0.0	No	3.074	0.0	4.0	NoResponse	0	3.98	n/a	6	68	ButtonPress	MissedWin	True
647.175	0.36	Win2	0.6957	0.001	No	3.074	-0.001	n/a	NoResponse	0	n/a	n/a	6	68	Target	MissedWin	True
647.541	0.34	Win2	0.6957	n/a	No	3.074	n/a	n/a	NoResponse	0	n/a	n/a	6	68	Blank	MissedWin	True
647.874	1.45	Win2	0.6957	n/a	No	3.074	n/a	5.0	NoResponse	0	0.005	646.879	6	68	Feedback	MissedWin	True
649.324	3.074	Win2	0.6957	n/a	No	3.074	n/a	n/a	NoResponse	0	0.0	n/a	6	68	ISIslide	MissedWin	True
652.423	0.25	Win2	0.7	0.0	Yes	3.227	0.023	n/a	GoodResponse	1	n/a	n/a	7	69	Cue	Win	True
652.673	3.95	Win2	0.7	0.0	Yes	3.227	0.0	n/a	GoodResponse	1	n/a	n/a	7	69	Fixation	Win	True
656.621	0.35	Win2	0.7	0.002	Yes	3.227	-0.002	4.0	GoodResponse	1	0.225	655.846	7	69	Target	Win	True
656.846	0.3	Win2	0.7	0.002	Yes	3.227	-0.002	4.0	GoodResponse	1	0.225	n/a	7	69	ButtonPress	Win	True
656.971	0.35	Win2	0.7	n/a	Yes	3.227	n/a	n/a	GoodResponse	1	n/a	n/a	7	69	Blank	Win	True
657.321	1.45	Win2	0.7	n/a	Yes	3.227	n/a	5.0	GoodResponse	1	0.02	656.341	7	69	Feedback	Win	True
658.771	3.227	Win2	0.7	n/a	Yes	3.227	n/a	n/a	GoodResponse	1	0.0	n/a	7	69	ISIslide	Win	True
662.02	0.25	Lose2	0.7042	0.0	Yes	3.03	0.02	n/a	GoodResponse	0	n/a	n/a	7	70	Cue	AvoidedLoss	True
662.27	4.05	Lose2	0.7042	0.0	Yes	3.03	0.0	n/a	GoodResponse	0	n/a	n/a	7	70	Fixation	AvoidedLoss	True
666.318	0.34	Lose2	0.7042	0.002	Yes	3.03	-0.002	4.0	GoodResponse	0	0.227	665.545	7	70	Target	AvoidedLoss	True
666.545	0.3	Lose2	0.7042	0.002	Yes	3.03	-0.002	4.0	GoodResponse	0	0.227	n/a	7	70	ButtonPress	AvoidedLoss	True
666.668	0.36	Lose2	0.7042	n/a	Yes	3.03	n/a	n/a	GoodResponse	0	n/a	n/a	7	70	Blank	AvoidedLoss	True
667.018	1.45	Lose2	0.7042	n/a	Yes	3.03	n/a	5.0	GoodResponse	0	0.03	666.048	7	70	Feedback	AvoidedLoss	True
668.467	3.03	Lose2	0.7042	n/a	Yes	3.03	n/a	n/a	GoodResponse	0	0.0	n/a	7	70	ISIslide	AvoidedLoss	True
671.516	0.25	Win2	0.7082999999999999	0.0	Yes	2.734	0.016	n/a	GoodResponse	1	n/a	n/a	8	71	Cue	Win	True
671.766	4.05	Win2	0.7082999999999999	0.0	Yes	2.734	0.0	n/a	GoodResponse	1	n/a	n/a	8	71	Fixation	Win	True
675.815	0.33	Win2	0.7082999999999999	0.001	Yes	2.734	-0.001	4.0	GoodResponse	1	0.223	675.038	8	71	Target	Win	True
676.038	0.3	Win2	0.7082999999999999	0.001	Yes	2.734	-0.001	4.0	GoodResponse	1	0.223	n/a	8	71	ButtonPress	Win	True
676.148	0.37	Win2	0.7082999999999999	n/a	Yes	2.734	n/a	n/a	GoodResponse	1	n/a	n/a	8	71	Blank	Win	True
676.515	1.45	Win2	0.7082999999999999	n/a	Yes	2.734	n/a	5.0	GoodResponse	1	0.045	675.56	8	71	Feedback	Win	True
677.964	2.734	Win2	0.7082999999999999	n/a	Yes	2.734	n/a	n/a	GoodResponse	1	0.0	n/a	8	71	ISIslide	Win	True
680.713	0.25	Win2	0.7123	0.0	Yes	2.787	0.013	n/a	GoodResponse	1	n/a	n/a	9	72	Cue	Win	True
680.963	4.1	Win2	0.7123	0.0	Yes	2.787	0.0	n/a	GoodResponse	1	n/a	n/a	9	72	Fixation	Win	True
685.062	0.32	Win2	0.7123	0.001	Yes	2.787	-0.001	4.0	GoodResponse	1	0.217	684.279	9	72	Target	Win	True
685.279	0.3	Win2	0.7123	0.001	Yes	2.787	-0.001	4.0	GoodResponse	1	0.217	n/a	9	72	ButtonPress	Win	True
685.395	0.38	Win2	0.7123	n/a	Yes	2.787	n/a	n/a	GoodResponse	1	n/a	n/a	9	72	Blank	Win	True
685.762	1.45	Win2	0.7123	n/a	Yes	2.787	n/a	5.0	GoodResponse	1	0.018	684.78	9	72	Feedback	Win	True
687.211	2.787	Win2	0.7123	n/a	Yes	2.787	n/a	n/a	GoodResponse	1	0.0	n/a	9	72	ISIslide	Win	True
690.027	0.25	Win2	0.7162000000000001	0.0	Yes	2.673	0.027	n/a	GoodResponse	1	n/a	n/a	10	73	Cue	Win	True
690.277	4.0	Win2	0.7162000000000001	0.0	Yes	2.673	0.0	n/a	GoodResponse	1	n/a	n/a	10	73	Fixation	Win	True
694.275	0.31	Win2	0.7162000000000001	0.002	Yes	2.673	-0.002	4.0	GoodResponse	1	0.292	693.567	10	73	Target	Win	True
694.567	0.3	Win2	0.7162000000000001	0.002	Yes	2.673	-0.002	4.0	GoodResponse	1	0.292	n/a	10	73	ButtonPress	Win	True
694.592	0.39	Win2	0.7162000000000001	n/a	Yes	2.673	n/a	n/a	GoodResponse	1	n/a	n/a	10	73	Blank	Win	True
694.975	1.45	Win2	0.7162000000000001	n/a	Yes	2.673	n/a	5.0	GoodResponse	1	0.024	693.999	10	73	Feedback	Win	True
696.425	2.673	Win2	0.7162000000000001	n/a	Yes	2.673	n/a	n/a	GoodResponse	1	0.0	n/a	10	73	ISIslide	Win	True
699.124	0.25	Lose2	0.72	0.0	Yes	2.626	0.024	n/a	GoodResponse	0	n/a	n/a	10	74	Cue	AvoidedLoss	True
699.373	4.05	Lose2	0.72	0.001	Yes	2.626	-0.001	n/a	GoodResponse	0	n/a	n/a	10	74	Fixation	AvoidedLoss	True
703.422	0.3	Lose2	0.72	0.002	Yes	2.626	-0.002	4.0	GoodResponse	0	0.211	702.633	10	74	Target	AvoidedLoss	True
703.633	0.3	Lose2	0.72	0.002	Yes	2.626	-0.002	4.0	GoodResponse	0	0.211	n/a	10	74	ButtonPress	AvoidedLoss	True
703.722	0.4	Lose2	0.72	n/a	Yes	2.626	n/a	n/a	GoodResponse	0	n/a	n/a	10	74	Blank	AvoidedLoss	True
704.122	1.45	Lose2	0.72	n/a	Yes	2.626	n/a	5.0	GoodResponse	0	0.048	703.17	10	74	Feedback	AvoidedLoss	True
705.571	2.626	Lose2	0.72	n/a	Yes	2.626	n/a	n/a	GoodResponse	0	0.0	n/a	10	74	ISIslide	AvoidedLoss	True
708.22	0.25	Lose2	0.7237	0.001	Yes	2.93	0.02	n/a	GoodResponse	0	n/a	n/a	10	75	Cue	AvoidedLoss	True
708.47	3.95	Lose2	0.7237	0.0	Yes	2.93	0.0	n/a	GoodResponse	0	n/a	n/a	10	75	Fixation	AvoidedLoss	True
712.419	0.29	Lose2	0.7237	0.001	Yes	2.93	-0.001	4.0	GoodResponse	0	0.221	711.64	10	75	Target	AvoidedLoss	True
712.64	0.3	Lose2	0.7237	0.001	Yes	2.93	-0.001	4.0	GoodResponse	0	0.221	n/a	10	75	ButtonPress	AvoidedLoss	True
712.719	0.41	Lose2	0.7237	n/a	Yes	2.93	n/a	n/a	GoodResponse	0	n/a	n/a	10	75	Blank	AvoidedLoss	True
713.119	1.45	Lose2	0.7237	n/a	Yes	2.93	n/a	5.0	GoodResponse	0	0.027	712.146	10	75	Feedback	AvoidedLoss	True
714.568	2.93	Lose2	0.7237	n/a	Yes	2.93	n/a	n/a	GoodResponse	0	0.0	n/a	10	75	ISIslide	AvoidedLoss	True
717.517	0.25	Control	0.7273000000000001	0.0	Yes	3.233	0.017	n/a	GoodResponse	0	n/a	n/a	10	76	Cue	Neutral	True
717.767	4.05	Control	0.7273000000000001	0.0	Yes	3.233	0.0	n/a	GoodResponse	0	n/a	n/a	10	76	Fixation	Neutral	True
721.816	0.28	Control	0.7273000000000001	0.001	Yes	3.233	-0.001	4.0	GoodResponse	0	0.101	720.917	10	76	Target	Neutral	True
721.917	0.3	Control	0.7273000000000001	0.001	Yes	3.233	-0.001	4.0	GoodResponse	0	0.101	n/a	10	76	ButtonPress	Neutral	True
722.099	0.42	Control	0.7273000000000001	n/a	Yes	3.233	n/a	n/a	GoodResponse	0	n/a	n/a	10	76	Blank	Neutral	True
722.516	1.45	Control	0.7273000000000001	n/a	Yes	3.233	n/a	5.0	GoodResponse	0	0.045	721.561	10	76	Feedback	Neutral	True
723.965	3.233	Control	0.7273000000000001	n/a	Yes	3.233	n/a	n/a	GoodResponse	0	0.0	n/a	10	76	ISIslide	Neutral	True
727.214	0.25	Lose2	0.7308	0.0	Yes	2.586	0.014	n/a	GoodResponse	0	n/a	n/a	10	77	Cue	AvoidedLoss	True
727.464	3.95	Lose2	0.7308	0.0	Yes	2.586	0.0	n/a	GoodResponse	0	n/a	n/a	10	77	Fixation	AvoidedLoss	True
731.413	0.27	Lose2	0.7308	0.001	Yes	2.586	-0.001	4.0	GoodResponse	0	0.204	730.617	10	77	Target	AvoidedLoss	True
731.617	0.3	Lose2	0.7308	0.001	Yes	2.586	-0.001	4.0	GoodResponse	0	0.204	n/a	10	77	ButtonPress	AvoidedLoss	True
731.696	0.43	Lose2	0.7308	n/a	Yes	2.586	n/a	n/a	GoodResponse	0	n/a	n/a	10	77	Blank	AvoidedLoss	True
732.112	1.45	Lose2	0.7308	n/a	Yes	2.586	n/a	5.0	GoodResponse	0	0.01	731.122	10	77	Feedback	AvoidedLoss	True
733.562	2.586	Lose2	0.7308	n/a	Yes	2.586	n/a	n/a	GoodResponse	0	0.0	n/a	10	77	ISIslide	AvoidedLoss	True
