onset	duration	cue_type	current_mean_accuracy	duration_error	is_hit	isi_adjusted	onset_delay	response	response_type	reward	rt	rt_time	total_reward	trial_number	trial_phase	trial_type	one_press
11.1	0.25	Control	1.0	0.0	Yes	2.95	0.0	n/a	GoodResponse	0	n/a	n/a	0	0	Cue	Neutral	True
11.351	3.85	Control	1.0	0.0	Yes	2.95	0.001	n/a	GoodResponse	0	n/a	n/a	0	0	Fixation	Neutral	True
15.212	0.4	Control	1.0	0.0	Yes	2.95	0.012	3.0	GoodResponse	0	0.25	14.462	0	0	Target	Neutral	True
15.462	0.3	Control	1.0	0.0	Yes	2.95	0.012	3.0	GoodResponse	0	0.25	n/a	0	0	ButtonPress	Neutral	True
15.597	0.3	Control	1.0	n/a	Yes	2.95	n/a	n/a	GoodResponse	0	n/a	n/a	0	0	Blank	Neutral	True
15.898	1.45	Control	1.0	n/a	Yes	2.95	n/a	5.0	GoodResponse	0	0.028	14.926	0	0	Feedback	Neutral	True
17.352	2.95	Control	1.0	n/a	Yes	2.95	n/a	n/a	GoodResponse	0	0.0	n/a	0	0	ISIslide	Neutral	True
20.327	0.25	Lose2	1.0	0.0	Yes	2.773	0.027	n/a	GoodResponse	0	n/a	n/a	0	1	Cue	AvoidedLoss	True
20.578	4.0	Lose2	1.0	0.0	Yes	2.773	0.001	n/a	GoodResponse	0	n/a	n/a	0	1	Fixation	AvoidedLoss	True
24.573	0.39	Lose2	1.0	0.004	Yes	2.773	-0.004	3.0	GoodResponse	0	0.25	23.823	0	1	Target	AvoidedLoss	True
24.823	0.3	Lose2	1.0	0.004	Yes	2.773	-0.004	3.0	GoodResponse	0	0.25	n/a	0	1	ButtonPress	AvoidedLoss	True
24.975	0.31	Lose2	1.0	n/a	Yes	2.773	n/a	n/a	GoodResponse	0	n/a	n/a	0	1	Blank	AvoidedLoss	True
25.276	1.45	Lose2	1.0	n/a	Yes	2.773	n/a	5.0	GoodResponse	0	0.015	24.291	0	1	Feedback	AvoidedLoss	True
26.73	2.773	Lose2	1.0	n/a	Yes	2.773	n/a	n/a	GoodResponse	0	0.0	n/a	0	1	ISIslide	AvoidedLoss	True
29.522	0.25	Control	1.0	0.0	Yes	2.578	0.022	n/a	GoodResponse	0	n/a	n/a	0	2	Cue	Neutral	True
29.772	4.1	Control	1.0	0.0	Yes	2.578	0.0	n/a	GoodResponse	0	n/a	n/a	0	2	Fixation	Neutral	True
33.868	0.38	Control	1.0	0.004	Yes	2.578	-0.004	3.0	GoodResponse	0	0.228	33.096	0	2	Target	Neutral	True
34.096	0.3	Control	1.0	0.004	Yes	2.578	-0.004	3.0	GoodResponse	0	0.228	n/a	0	2	ButtonPress	Neutral	True
34.252	0.32	Control	1.0	n/a	Yes	2.578	n/a	n/a	GoodResponse	0	n/a	n/a	0	2	Blank	Neutral	True
34.57	1.45	Control	1.0	n/a	Yes	2.578	n/a	5.0	GoodResponse	0	0.039	33.609	0	2	Feedback	Neutral	True
36.024	2.578	Control	1.0	n/a	Yes	2.578	n/a	n/a	GoodResponse	0	0.0	n/a	0	2	ISIslide	Neutral	True
38.615	0.25	Win2	1.0	0.001	Yes	2.835	0.015	n/a	GoodResponse	1	n/a	n/a	1	3	Cue	Win	True
38.866	3.95	Win2	1.0	0.0	Yes	2.835	0.001	n/a	GoodResponse	1	n/a	n/a	1	3	Fixation	Win	True
42.811	0.37	Win2	1.0	0.004	Yes	2.835	-0.004	3.0	GoodResponse	1	0.253	42.064	1	3	Target	Win	True
43.064	0.3	Win2	1.0	0.004	Yes	2.835	-0.004	3.0	GoodResponse	1	0.253	n/a	1	3	ButtonPress	Win	True
43.196	0.33	Win2	1.0	n/a	Yes	2.835	n/a	n/a	GoodResponse	1	n/a	n/a	1	3	Blank	Win	True
43.513	1.45	Win2	1.0	n/a	Yes	2.835	n/a	5.0	GoodResponse	1	0.023	42.536	1	3	Feedback	Win	True
44.968	2.835	Win2	1.0	n/a	Yes	2.835	n/a	n/a	GoodResponse	1	0.0	n/a	1	3	ISIslide	Win	True
47.826	0.25	Win2	1.0	0.0	Yes	3.274	0.026	n/a	GoodResponse	1	n/a	n/a	2	4	Cue	Win	True
48.077	4.0	Win2	1.0	0.0	Yes	3.274	0.001	n/a	GoodResponse	1	n/a	n/a	2	4	Fixation	Win	True
52.072	0.36	Win2	1.0	0.004	Yes	3.274	-0.004	3.0	GoodResponse	1	0.248	51.32	2	4	Target	Win	True
52.32	0.3	Win2	1.0	0.004	Yes	3.274	-0.004	3.0	GoodResponse	1	0.248	n/a	2	4	ButtonPress	Win	True
52.44	0.34	Win2	1.0	n/a	Yes	3.274	n/a	n/a	GoodResponse	1	n/a	n/a	2	4	Blank	Win	True
52.774	1.45	Win2	1.0	n/a	Yes	3.274	n/a	5.0	GoodResponse	1	0.03	51.804	2	4	Feedback	Win	True
54.229	3.274	Win2	1.0	n/a	Yes	3.274	n/a	n/a	GoodResponse	1	0.0	n/a	2	4	ISIslide	Win	True
57.522	0.25	Win2	1.0	0.0	Yes	2.778	0.022	n/a	GoodResponse	1	n/a	n/a	3	5	Cue	Win	True
57.773	4.0	Win2	1.0	0.0	Yes	2.778	0.001	n/a	GoodResponse	1	n/a	n/a	3	5	Fixation	Win	True
61.768	0.35	Win2	1.0	0.004	Yes	2.778	-0.004	3.0	GoodResponse	1	0.248	61.016	3	5	Target	Win	True
62.016	0.3	Win2	1.0	0.004	Yes	2.778	-0.004	3.0	GoodResponse	1	0.248	n/a	3	5	ButtonPress	Win	True
62.119	0.35	Win2	1.0	n/a	Yes	2.778	n/a	n/a	GoodResponse	1	n/a	n/a	3	5	Blank	Win	True
62.47	1.45	Win2	1.0	n/a	Yes	2.778	n/a	5.0	GoodResponse	1	0.04	61.51	3	5	Feedback	Win	True
63.924	2.778	Win2	1.0	n/a	Yes	2.778	n/a	n/a	GoodResponse	1	0.0	n/a	3	5	ISIslide	Win	True
66.716	0.25	Lose2	1.0	0.0	Yes	2.734	0.016	n/a	GoodResponse	0	n/a	n/a	3	6	Cue	AvoidedLoss	True
66.967	3.95	Lose2	1.0	0.0	Yes	2.734	0.001	n/a	GoodResponse	0	n/a	n/a	3	6	Fixation	AvoidedLoss	True
70.912	0.34	Lose2	1.0	0.004	Yes	2.734	-0.004	3.0	GoodResponse	0	0.207	70.119	3	6	Target	AvoidedLoss	True
71.119	0.3	Lose2	1.0	0.004	Yes	2.734	-0.004	3.0	GoodResponse	0	0.207	n/a	3	6	ButtonPress	AvoidedLoss	True
71.263	0.36	Lose2	1.0	n/a	Yes	2.734	n/a	n/a	GoodResponse	0	n/a	n/a	3	6	Blank	AvoidedLoss	True
71.614	1.45	Lose2	1.0	n/a	Yes	2.734	n/a	5.0	GoodResponse	0	0.018	70.632	3	6	Feedback	AvoidedLoss	True
73.068	2.734	Lose2	1.0	n/a	Yes	2.734	n/a	n/a	GoodResponse	0	0.0	n/a	3	6	ISIslide	AvoidedLoss	True
75.827	0.25	Lose2	1.0	0.0	Yes	4.023	0.027	n/a	GoodResponse	0	n/a	n/a	3	7	Cue	AvoidedLoss	True
76.077	4.05	Lose2	1.0	0.0	Yes	4.023	0.0	n/a	GoodResponse	0	n/a	n/a	3	7	Fixation	AvoidedLoss	True
80.123	0.33	Lose2	1.0	0.004	Yes	4.023	-0.004	3.0	GoodResponse	0	0.216	79.339	3	7	Target	AvoidedLoss	True
80.339	0.3	Lose2	1.0	0.004	Yes	4.023	-0.004	3.0	GoodResponse	0	0.216	n/a	3	7	ButtonPress	AvoidedLoss	True
80.457	0.37	Lose2	1.0	n/a	Yes	4.023	n/a	n/a	GoodResponse	0	n/a	n/a	3	7	Blank	AvoidedLoss	True
80.825	1.45	Lose2	1.0	n/a	Yes	4.023	n/a	5.0	GoodResponse	0	0.027	79.852	3	7	Feedback	AvoidedLoss	True
82.279	4.023	Lose2	1.0	n/a	Yes	4.023	n/a	n/a	GoodResponse	0	0.0	n/a	3	7	ISIslide	AvoidedLoss	True
86.325	0.25	Lose2	1.0	0.0	Yes	3.025	0.025	n/a	GoodResponse	0	n/a	n/a	3	8	Cue	AvoidedLoss	True
86.575	3.95	Lose2	1.0	0.0	Yes	3.025	0.0	n/a	GoodResponse	0	n/a	n/a	3	8	Fixation	AvoidedLoss	True
90.537	0.32	Lose2	1.0	0.0	Yes	3.025	0.012	3.0	GoodResponse	0	0.247	89.784	3	8	Target	AvoidedLoss	True
90.784	0.3	Lose2	1.0	0.0	Yes	3.025	0.012	3.0	GoodResponse	0	0.247	n/a	3	8	ButtonPress	AvoidedLoss	True
90.855	0.38	Lose2	1.0	n/a	Yes	3.025	n/a	n/a	GoodResponse	0	n/a	n/a	3	8	Blank	AvoidedLoss	True
91.222	1.45	Lose2	1.0	n/a	Yes	3.025	n/a	5.0	GoodResponse	0	0.02	90.242	3	8	Feedback	AvoidedLoss	True
92.677	3.025	Lose2	1.0	n/a	Yes	3.025	n/a	n/a	GoodResponse	0	0.0	n/a	3	8	ISIslide	AvoidedLoss	True
95.719	0.25	Lose2	1.0	0.0	Yes	3.131	0.019	n/a	GoodResponse	0	n/a	n/a	3	9	Cue	AvoidedLoss	True
95.97	3.95	Lose2	1.0	0.0	Yes	3.131	0.001	n/a	GoodResponse	0	n/a	n/a	3	9	Fixation	AvoidedLoss	True
99.915	0.31	Lose2	1.0	0.004	Yes	3.131	-0.004	3.0	GoodResponse	0	0.22	99.135	3	9	Target	AvoidedLoss	True
100.135	0.3	Lose2	1.0	0.004	Yes	3.131	-0.004	3.0	GoodResponse	0	0.22	n/a	3	9	ButtonPress	AvoidedLoss	True
100.233	0.39	Lose2	1.0	n/a	Yes	3.131	n/a	n/a	GoodResponse	0	n/a	n/a	3	9	Blank	AvoidedLoss	True
100.617	1.45	Lose2	1.0	n/a	Yes	3.131	n/a	5.0	GoodResponse	0	0.039	99.656	3	9	Feedback	AvoidedLoss	True
102.072	3.131	Lose2	1.0	n/a	Yes	3.131	n/a	n/a	GoodResponse	0	0.0	n/a	3	9	ISIslide	AvoidedLoss	True
105.214	0.25	Control	1.0	0.0	Yes	3.286	0.014	n/a	GoodResponse	0	n/a	n/a	3	10	Cue	Neutral	True
105.465	4.0	Control	1.0	0.0	Yes	3.286	0.001	n/a	GoodResponse	0	n/a	n/a	3	10	Fixation	Neutral	True
109.46	0.3	Control	1.0	0.004	Yes	3.286	-0.004	3.0	GoodResponse	0	0.228	108.688	3	10	Target	Neutral	True
109.688	0.3	Control	1.0	0.004	Yes	3.286	-0.004	3.0	GoodResponse	0	0.228	n/a	3	10	ButtonPress	Neutral	True
109.761	0.4	Control	1.0	n/a	Yes	3.286	n/a	n/a	GoodResponse	0	n/a	n/a	3	10	Blank	Neutral	True
110.162	1.45	Control	1.0	n/a	Yes	3.286	n/a	5.0	GoodResponse	0	0.007	109.169	3	10	Feedback	Neutral	True
111.617	3.286	Control	1.0	n/a	Yes	3.286	n/a	n/a	GoodResponse	0	0.0	n/a	3	10	ISIslide	Neutral	True
114.927	0.25	Lose2	1.0	0.0	Yes	2.723	0.027	n/a	GoodResponse	0	n/a	n/a	3	11	Cue	AvoidedLoss	True
115.177	4.05	Lose2	1.0	0.0	Yes	2.723	0.0	n/a	GoodResponse	0	n/a	n/a	3	11	Fixation	AvoidedLoss	True
119.223	0.29	Lose2	1.0	0.004	Yes	2.723	-0.004	3.0	GoodResponse	0	0.243	118.466	3	11	Target	AvoidedLoss	True
119.466	0.3	Lose2	1.0	0.004	Yes	2.723	-0.004	3.0	GoodResponse	0	0.243	n/a	3	11	ButtonPress	AvoidedLoss	True
119.524	0.41	Lose2	1.0	n/a	Yes	2.723	n/a	n/a	GoodResponse	0	n/a	n/a	3	11	Blank	AvoidedLoss	True
119.925	1.45	Lose2	1.0	n/a	Yes	2.723	n/a	5.0	GoodResponse	0	0.049	118.974	3	11	Feedback	AvoidedLoss	True
121.379	2.723	Lose2	1.0	n/a	Yes	2.723	n/a	n/a	GoodResponse	0	0.0	n/a	3	11	ISIslide	AvoidedLoss	True
124.121	0.25	Control	1.0	0.0	Yes	2.979	0.021	n/a	GoodResponse	0	n/a	n/a	3	12	Cue	Neutral	True
124.371	3.9	Control	1.0	0.001	Yes	2.979	0.0	n/a	GoodResponse	0	n/a	n/a	3	12	Fixation	Neutral	True
128.266	0.28	Control	1.0	0.005	Yes	2.979	-0.005	3.0	GoodResponse	0	0.271	127.537	3	12	Target	Neutral	True
128.537	0.3	Control	1.0	0.005	Yes	2.979	-0.005	3.0	GoodResponse	0	0.271	n/a	3	12	ButtonPress	Neutral	True
128.551	0.42	Control	1.0	n/a	Yes	2.979	n/a	n/a	GoodResponse	0	n/a	n/a	3	12	Blank	Neutral	True
128.969	1.45	Control	1.0	n/a	Yes	2.979	n/a	5.0	GoodResponse	0	0.029	127.998	3	12	Feedback	Neutral	True
130.423	2.979	Control	1.0	n/a	Yes	2.979	n/a	n/a	GoodResponse	0	0.0	n/a	3	12	ISIslide	Neutral	True
133.415	0.25	Control	1.0	0.0	Yes	2.785	0.015	n/a	GoodResponse	0	n/a	n/a	3	13	Cue	Neutral	True
133.666	4.0	Control	1.0	0.0	Yes	2.785	0.001	n/a	GoodResponse	0	n/a	n/a	3	13	Fixation	Neutral	True
137.661	0.27	Control	1.0	0.004	Yes	2.785	-0.004	3.0	GoodResponse	0	0.255	136.916	3	13	Target	Neutral	True
137.916	0.3	Control	1.0	0.004	Yes	2.785	-0.004	3.0	GoodResponse	0	0.255	n/a	3	13	ButtonPress	Neutral	True
137.945	0.43	Control	1.0	n/a	Yes	2.785	n/a	n/a	GoodResponse	0	n/a	n/a	3	13	Blank	Neutral	True
138.363	1.45	Control	1.0	n/a	Yes	2.785	n/a	5.0	GoodResponse	0	0.049	137.412	3	13	Feedback	Neutral	True
139.818	2.785	Control	1.0	n/a	Yes	2.785	n/a	n/a	GoodResponse	0	0.0	n/a	3	13	ISIslide	Neutral	True
142.626	0.25	Win2	1.0	0.0	Yes	2.674	0.026	n/a	GoodResponse	1	n/a	n/a	4	14	Cue	Win	True
142.877	4.1	Win2	1.0	0.0	Yes	2.674	0.001	n/a	GoodResponse	1	n/a	n/a	4	14	Fixation	Win	True
146.972	0.26	Win2	1.0	0.004	Yes	2.674	-0.004	3.0	GoodResponse	1	0.184	146.156	4	14	Target	Win	True
147.156	0.3	Win2	1.0	0.004	Yes	2.674	-0.004	3.0	GoodResponse	1	0.184	n/a	4	14	ButtonPress	Win	True
147.24	0.44	Win2	1.0	n/a	Yes	2.674	n/a	n/a	GoodResponse	1	n/a	n/a	4	14	Blank	Win	True
147.674	1.45	Win2	1.0	n/a	Yes	2.674	n/a	5.0	GoodResponse	1	0.006	146.68	4	14	Feedback	Win	True
149.129	2.674	Win2	1.0	n/a	Yes	2.674	n/a	n/a	GoodResponse	1	0.0	n/a	4	14	ISIslide	Win	True
151.82	0.25	Control	0.9375	0.0	No	2.98	0.02	n/a	NoResponse	0	n/a	n/a	4	15	Cue	Neutral	True
152.071	4.0	Control	0.9375	0.0	No	2.98	0.001	n/a	NoResponse	0	n/a	n/a	4	15	Fixation	Neutral	True
156.066	0.25	Control	0.9375	0.004	No	2.98	-0.004	3.0	NoResponse	0	0.342	155.408	4	15	Target	Neutral	True
156.317	0.45	Control	0.9375	n/a	No	2.98	n/a	n/a	NoResponse	0	n/a	n/a	4	15	Blank	Neutral	True
156.408	0.3	Control	0.9375	0.004	No	2.98	-0.004	3.0	NoResponse	0	0.342	n/a	4	15	ButtonPress	Neutral	True
156.768	1.45	Control	0.9375	n/a	No	2.98	n/a	5.0	NoResponse	0	0.034	155.802	4	15	Feedback	Neutral	True
158.223	2.98	Control	0.9375	n/a	No	2.98	n/a	n/a	NoResponse	0	0.0	n/a	4	15	ISIslide	Neutral	True
161.232	0.25	Win2	0.8824	0.0	No	2.868	0.032	n/a	LatePress	0	n/a	n/a	4	16	Cue	MissedWin	True
161.482	4.0	Win2	0.8824	0.0	No	2.868	0.0	n/a	LatePress	0	n/a	n/a	4	16	Fixation	MissedWin	True
165.478	0.24	Win2	0.8824	0.004	No	2.868	-0.004	3.0	LatePress	0	0.247	164.725	4	16	Target	MissedWin	True
165.725	0.3	Win2	0.8824	0.004	No	2.868	-0.004	3.0	LatePress	0	0.247	n/a	4	16	ButtonPress	MissedWin	True
165.728	0.46	Win2	0.8824	n/a	No	2.868	n/a	n/a	LatePress	0	n/a	n/a	4	16	Blank	MissedWin	True
166.18	1.45	Win2	0.8824	n/a	No	2.868	n/a	5.0	LatePress	0	0.037	165.217	4	16	Feedback	MissedWin	True
167.634	2.868	Win2	0.8824	n/a	No	2.868	n/a	n/a	LatePress	0	0.0	n/a	4	16	ISIslide	MissedWin	True
170.526	0.25	Lose2	0.8332999999999999	0.0	No	2.724	0.026	n/a	NoResponse	-1	n/a	n/a	3	17	Cue	Loss	True
170.777	3.95	Lose2	0.8332999999999999	0.0	No	2.724	0.001	n/a	NoResponse	-1	n/a	n/a	3	17	Fixation	Loss	True
174.722	0.23	Lose2	0.8332999999999999	0.004	No	2.724	-0.004	3.0	NoResponse	-1	0.278	174.0	3	17	Target	Loss	True
174.956	0.47	Lose2	0.8332999999999999	n/a	No	2.724	n/a	n/a	NoResponse	-1	n/a	n/a	3	17	Blank	Loss	True
175	0.3	Lose2	0.8332999999999999	0.004	No	2.724	-0.004	3.0	NoResponse	-1	0.278	n/a	3	17	ButtonPress	Loss	True
175.424	1.45	Lose2	0.8332999999999999	n/a	No	2.724	n/a	5.0	NoResponse	-1	0.012	174.436	3	17	Feedback	Loss	True
176.878	2.724	Lose2	0.8332999999999999	n/a	No	2.724	n/a	n/a	NoResponse	-1	0.0	n/a	3	17	ISIslide	Loss	True
179.62	0.25	Lose2	0.8421	0.0	Yes	2.73	0.02	n/a	GoodResponse	0	n/a	n/a	3	18	Cue	AvoidedLoss	True
179.871	4.05	Lose2	0.8421	0.0	Yes	2.73	0.001	n/a	GoodResponse	0	n/a	n/a	3	18	Fixation	AvoidedLoss	True
183.916	0.22	Lose2	0.8421	0.004	Yes	2.73	-0.004	3.0	GoodResponse	0	0.21	183.126	3	18	Target	AvoidedLoss	True
184.126	0.3	Lose2	0.8421	0.004	Yes	2.73	-0.004	3.0	GoodResponse	0	0.21	n/a	3	18	ButtonPress	AvoidedLoss	True
184.15	0.48	Lose2	0.8421	n/a	Yes	2.73	n/a	n/a	GoodResponse	0	n/a	n/a	3	18	Blank	AvoidedLoss	True
184.618	1.45	Lose2	0.8421	n/a	Yes	2.73	n/a	5.0	GoodResponse	0	0.037	183.655	3	18	Feedback	AvoidedLoss	True
186.072	2.73	Lose2	0.8421	n/a	Yes	2.73	n/a	n/a	GoodResponse	0	0.0	n/a	3	18	ISIslide	AvoidedLoss	True
188.831	0.25	Control	0.8	0.0	No	2.919	0.031	n/a	NoResponse	0	n/a	n/a	3	19	Cue	Neutral	True
189.081	3.95	Control	0.8	0.0	No	2.919	0.0	n/a	NoResponse	0	n/a	n/a	3	19	Fixation	Neutral	True
193.027	0.21	Control	0.8	0.004	No	2.919	-0.004	3.0	NoResponse	0	0.447	192.474	3	19	Target	Neutral	True
193.244	0.49	Control	0.8	n/a	No	2.919	n/a	n/a	NoResponse	0	n/a	n/a	3	19	Blank	Neutral	True
193.474	0.3	Control	0.8	0.004	No	2.919	-0.004	3.0	NoResponse	0	0.447	n/a	3	19	ButtonPress	Neutral	True
193.729	1.45	Control	0.8	n/a	No	2.919	n/a	5.0	NoResponse	0	0.0	192.729	3	19	Feedback	Neutral	True
195.183	2.919	Control	0.8	n/a	No	2.919	n/a	n/a	NoResponse	0	0.0	n/a	3	19	ISIslide	Neutral	True
198.125	0.25	Control	0.8095	0.0	Yes	2.625	0.025	n/a	GoodResponse	0	n/a	n/a	3	20	Cue	Neutral	True
198.376	4.05	Control	0.8095	0.0	Yes	2.625	0.001	n/a	GoodResponse	0	n/a	n/a	3	20	Fixation	Neutral	True
202.421	0.2	Control	0.8095	0.004	Yes	2.625	-0.004	3.0	GoodResponse	0	0.19	201.611	3	20	Target	Neutral	True
202.611	0.3	Control	0.8095	0.004	Yes	2.625	-0.004	3.0	GoodResponse	0	0.19	n/a	3	20	ButtonPress	Neutral	True
202.622	0.5	Control	0.8095	n/a	Yes	2.625	n/a	n/a	GoodResponse	0	n/a	n/a	3	20	Blank	Neutral	True
203.123	1.45	Control	0.8095	n/a	Yes	2.625	n/a	5.0	GoodResponse	0	0.02	202.143	3	20	Feedback	Neutral	True
204.578	2.625	Control	0.8095	n/a	Yes	2.625	n/a	n/a	GoodResponse	0	0.0	n/a	3	20	ISIslide	Neutral	True
207.219	0.25	Control	0.7726999999999999	0.0	No	2.781	0.019	n/a	NoResponse	0	n/a	n/a	3	21	Cue	Neutral	False
207.47	4.1	Control	0.7726999999999999	0.0	No	2.781	0.001	3.0	NoResponse	0	3.414	209.884	3	21	Fixation	Neutral	False
210.884	0.3	Control	0.7726999999999999	0.0	No	2.781	0.001	3.0	NoResponse	0	3.414	n/a	3	21	ButtonPress	Neutral	False
211.565	0.19	Control	0.7726999999999999	0.004	No	2.781	-0.004	3.0	NoResponse	0	0.202	210.767	3	21	Target	Neutral	False
211.766	0.51	Control	0.7726999999999999	n/a	No	2.781	n/a	n/a	NoResponse	0	n/a	n/a	3	21	Blank	Neutral	False
211.767	0.3	Control	0.7726999999999999	0.004	No	2.781	-0.004	3.0	NoResponse	0	0.202	n/a	3	21	ButtonPress	Neutral	False
212.267	1.45	Control	0.7726999999999999	n/a	No	2.781	n/a	5.0	NoResponse	0	0.046	211.313	3	21	Feedback	Neutral	False
213.722	2.781	Control	0.7726999999999999	n/a	No	2.781	n/a	n/a	NoResponse	0	0.0	n/a	3	21	ISIslide	Neutral	False
216.53	0.25	Control	0.7391	0.0	No	2.77	0.03	n/a	NoResponse	0	n/a	n/a	3	22	Cue	Neutral	False
216.781	4.0	Control	0.7391	0.0	No	2.77	0.001	3.0	NoResponse	0	3.177	218.958	3	22	Fixation	Neutral	False
219.958	0.3	Control	0.7391	0.0	No	2.77	0.001	3.0	NoResponse	0	3.177	n/a	3	22	ButtonPress	Neutral	False
220.776	0.18	Control	0.7391	0.004	No	2.77	-0.004	n/a	NoResponse	0	n/a	n/a	3	22	Target	Neutral	False
220.96	0.52	Control	0.7391	n/a	No	2.77	n/a	n/a	NoResponse	0	n/a	n/a	3	22	Blank	Neutral	False
221.478	1.45	Control	0.7391	n/a	No	2.77	n/a	3.0	NoResponse	0	0.001	220.479	3	22	Feedback	Neutral	False
221.479	0.3	Control	0.7391	n/a	No	2.77	n/a	3.0	NoResponse	0	0.001	n/a	3	22	ButtonPress	Neutral	False
222.933	2.77	Control	0.7391	n/a	No	2.77	n/a	n/a	NoResponse	0	0.0	n/a	3	22	ISIslide	Neutral	False
225.724	0.25	Control	0.7082999999999999	0.0	No	2.776	0.024	n/a	NoResponse	0	n/a	n/a	3	23	Cue	Neutral	True
225.975	3.9	Control	0.7082999999999999	0.0	No	2.776	0.001	n/a	NoResponse	0	n/a	n/a	3	23	Fixation	Neutral	True
229.87	0.17	Control	0.7082999999999999	0.004	No	2.776	-0.004	3.0	NoResponse	0	0.229	229.099	3	23	Target	Neutral	True
230.054	0.53	Control	0.7082999999999999	n/a	No	2.776	n/a	n/a	NoResponse	0	n/a	n/a	3	23	Blank	Neutral	True
230.099	0.3	Control	0.7082999999999999	0.004	No	2.776	-0.004	3.0	NoResponse	0	0.229	n/a	3	23	ButtonPress	Neutral	True
230.572	1.45	Control	0.7082999999999999	n/a	No	2.776	n/a	5.0	NoResponse	0	0.034	229.606	3	23	Feedback	Neutral	True
232.026	2.776	Control	0.7082999999999999	n/a	No	2.776	n/a	n/a	NoResponse	0	0.0	n/a	3	23	ISIslide	Neutral	True
234.818	0.25	Win2	0.68	0.0	No	3.132	0.018	n/a	NoResponse	0	n/a	n/a	3	24	Cue	MissedWin	True
235.069	3.95	Win2	0.68	0.0	No	3.132	0.001	n/a	NoResponse	0	n/a	n/a	3	24	Fixation	MissedWin	True
239.014	0.16	Win2	0.68	0.004	No	3.132	-0.004	3.0	NoResponse	0	0.217	238.231	3	24	Target	MissedWin	True
239.181	0.54	Win2	0.68	n/a	No	3.132	n/a	n/a	NoResponse	0	n/a	n/a	3	24	Blank	MissedWin	True
239.231	0.3	Win2	0.68	0.004	No	3.132	-0.004	3.0	NoResponse	0	0.217	n/a	3	24	ButtonPress	MissedWin	True
239.716	1.45	Win2	0.68	n/a	No	3.132	n/a	5.0	NoResponse	0	0.012	238.728	3	24	Feedback	MissedWin	True
241.17	3.132	Win2	0.68	n/a	No	3.132	n/a	n/a	NoResponse	0	0.0	n/a	3	24	ISIslide	MissedWin	True
244.33	0.25	Win2	0.6537999999999999	0.0	No	3.07	0.03	n/a	NoResponse	0	n/a	n/a	3	25	Cue	MissedWin	True
244.58	4.0	Win2	0.6537999999999999	0.001	No	3.07	0.0	n/a	NoResponse	0	n/a	n/a	3	25	Fixation	MissedWin	True
248.576	0.15	Win2	0.6537999999999999	0.004	No	3.07	-0.004	3.0	NoResponse	0	0.199	247.775	3	25	Target	MissedWin	True
248.726	0.55	Win2	0.6537999999999999	n/a	No	3.07	n/a	n/a	NoResponse	0	n/a	n/a	3	25	Blank	MissedWin	True
248.775	0.3	Win2	0.6537999999999999	0.004	No	3.07	-0.004	3.0	NoResponse	0	0.199	n/a	3	25	ButtonPress	MissedWin	True
249.278	1.45	Win2	0.6537999999999999	n/a	No	3.07	n/a	5.0	NoResponse	0	0.01	248.288	3	25	Feedback	MissedWin	True
250.732	3.07	Win2	0.6537999999999999	n/a	No	3.07	n/a	n/a	NoResponse	0	0.0	n/a	3	25	ISIslide	MissedWin	True
253.825	0.25	Win2	0.6296	0.0	No	2.925	0.025	n/a	NoResponse	0	n/a	n/a	3	26	Cue	MissedWin	True
254.076	3.95	Win2	0.6296	0.0	No	2.925	0.001	n/a	NoResponse	0	n/a	n/a	3	26	Fixation	MissedWin	True
258.021	0.16	Win2	0.6296	0.004	No	2.925	-0.004	3.0	NoResponse	0	0.216	257.237	3	26	Target	MissedWin	True
258.188	0.54	Win2	0.6296	n/a	No	2.925	n/a	n/a	NoResponse	0	n/a	n/a	3	26	Blank	MissedWin	True
258.237	0.3	Win2	0.6296	0.004	No	2.925	-0.004	3.0	NoResponse	0	0.216	n/a	3	26	ButtonPress	MissedWin	True
258.723	1.45	Win2	0.6296	n/a	No	2.925	n/a	5.0	NoResponse	0	0.029	257.752	3	26	Feedback	MissedWin	True
260.177	2.925	Win2	0.6296	n/a	No	2.925	n/a	n/a	NoResponse	0	0.0	n/a	3	26	ISIslide	MissedWin	True
263.119	0.25	Lose2	0.6071	0.0	No	2.831	0.019	n/a	NoResponse	-1	n/a	n/a	2	27	Cue	Loss	True
263.37	4.05	Lose2	0.6071	0.0	No	2.831	0.001	n/a	NoResponse	-1	n/a	n/a	2	27	Fixation	Loss	True
267.415	0.17	Lose2	0.6071	0.004	No	2.831	-0.004	3.0	NoResponse	-1	0.23	266.645	2	27	Target	Loss	True
267.599	0.53	Lose2	0.6071	n/a	No	2.831	n/a	n/a	NoResponse	-1	n/a	n/a	2	27	Blank	Loss	True
267.645	0.3	Lose2	0.6071	0.004	No	2.831	-0.004	3.0	NoResponse	-1	0.23	n/a	2	27	ButtonPress	Loss	True
268.117	1.45	Lose2	0.6071	n/a	No	2.831	n/a	5.0	NoResponse	-1	0.001	267.118	2	27	Feedback	Loss	True
269.572	2.831	Lose2	0.6071	n/a	No	2.831	n/a	n/a	NoResponse	-1	0.0	n/a	2	27	ISIslide	Loss	True
272.43	0.25	Control	0.5861999999999999	0.0	No	2.82	0.03	n/a	NoResponse	0	n/a	n/a	2	28	Cue	Neutral	True
272.681	4.05	Control	0.5861999999999999	0.0	No	2.82	0.001	n/a	NoResponse	0	n/a	n/a	2	28	Fixation	Neutral	True
276.726	0.18	Control	0.5861999999999999	0.004	No	2.82	-0.004	3.0	NoResponse	0	0.254	275.98	2	28	Target	Neutral	True
276.91	0.52	Control	0.5861999999999999	n/a	No	2.82	n/a	n/a	NoResponse	0	n/a	n/a	2	28	Blank	Neutral	True
276.98	0.3	Control	0.5861999999999999	0.004	No	2.82	-0.004	3.0	NoResponse	0	0.254	n/a	2	28	ButtonPress	Neutral	True
277.429	1.45	Control	0.5861999999999999	n/a	No	2.82	n/a	5.0	NoResponse	0	0.006	276.435	2	28	Feedback	Neutral	True
278.883	2.82	Control	0.5861999999999999	n/a	No	2.82	n/a	n/a	NoResponse	0	0.0	n/a	2	28	ISIslide	Neutral	True
281.725	0.25	Lose2	0.5667	0.0	No	2.825	0.025	n/a	NoResponse	-1	n/a	n/a	1	29	Cue	Loss	True
281.976	3.95	Lose2	0.5667	0.0	No	2.825	0.001	n/a	NoResponse	-1	n/a	n/a	1	29	Fixation	Loss	True
285.921	0.19	Lose2	0.5667	0.004	No	2.825	-0.004	3.0	NoResponse	-1	0.201	285.122	1	29	Target	Loss	True
286.121	0.51	Lose2	0.5667	n/a	No	2.825	n/a	n/a	NoResponse	-1	n/a	n/a	1	29	Blank	Loss	True
286.122	0.3	Lose2	0.5667	0.004	No	2.825	-0.004	3.0	NoResponse	-1	0.201	n/a	1	29	ButtonPress	Loss	True
286.623	1.45	Lose2	0.5667	n/a	No	2.825	n/a	5.0	NoResponse	-1	0.031	285.654	1	29	Feedback	Loss	True
288.077	2.825	Lose2	0.5667	n/a	No	2.825	n/a	n/a	NoResponse	-1	0.0	n/a	1	29	ISIslide	Loss	True
290.919	0.25	Win2	0.5484	0.0	No	2.781	0.019	n/a	NoResponse	0	n/a	n/a	1	30	Cue	MissedWin	True
291.17	3.9	Win2	0.5484	0.0	No	2.781	0.001	n/a	NoResponse	0	n/a	n/a	1	30	Fixation	MissedWin	True
295.065	0.2	Win2	0.5484	0.004	No	2.781	-0.004	3.0	NoResponse	0	0.226	294.291	1	30	Target	MissedWin	True
295.265	0.5	Win2	0.5484	n/a	No	2.781	n/a	n/a	NoResponse	0	n/a	n/a	1	30	Blank	MissedWin	True
295.291	0.3	Win2	0.5484	0.004	No	2.781	-0.004	3.0	NoResponse	0	0.226	n/a	1	30	ButtonPress	MissedWin	True
295.767	1.45	Win2	0.5484	n/a	No	2.781	n/a	5.0	NoResponse	0	0.009	294.776	1	30	Feedback	MissedWin	True
297.221	2.781	Win2	0.5484	n/a	No	2.781	n/a	n/a	NoResponse	0	0.0	n/a	1	30	ISIslide	MissedWin	True
300.029	0.25	Lose2	0.5312	0.001	No	2.821	0.029	n/a	NoResponse	-1	n/a	n/a	0	31	Cue	Loss	True
300.28	4.05	Lose2	0.5312	0.0	No	2.821	0.001	n/a	NoResponse	-1	n/a	n/a	0	31	Fixation	Loss	True
304.326	0.21	Lose2	0.5312	0.003	No	2.821	-0.003	3.0	NoResponse	-1	0.224	303.55	0	31	Target	Loss	True
304.543	0.49	Lose2	0.5312	n/a	No	2.821	n/a	n/a	NoResponse	-1	n/a	n/a	0	31	Blank	Loss	True
304.55	0.3	Lose2	0.5312	0.003	No	2.821	-0.003	3.0	NoResponse	-1	0.224	n/a	0	31	ButtonPress	Loss	True
305.028	1.45	Lose2	0.5312	n/a	No	2.821	n/a	5.0	NoResponse	-1	0.016	304.044	0	31	Feedback	Loss	True
306.482	2.821	Lose2	0.5312	n/a	No	2.821	n/a	n/a	NoResponse	-1	0.0	n/a	0	31	ISIslide	Loss	True
309.324	0.25	Lose2	0.5455	0.0	Yes	2.626	0.024	n/a	GoodResponse	0	n/a	n/a	0	32	Cue	AvoidedLoss	True
309.575	4.15	Lose2	0.5455	0.0	Yes	2.626	0.001	n/a	GoodResponse	0	n/a	n/a	0	32	Fixation	AvoidedLoss	True
313.72	0.22	Lose2	0.5455	0.004	Yes	2.626	-0.004	3.0	GoodResponse	0	0.155	312.875	0	32	Target	AvoidedLoss	True
313.875	0.3	Lose2	0.5455	0.004	Yes	2.626	-0.004	3.0	GoodResponse	0	0.155	n/a	0	32	ButtonPress	AvoidedLoss	True
313.954	0.48	Lose2	0.5455	n/a	Yes	2.626	n/a	n/a	GoodResponse	0	n/a	n/a	0	32	Blank	AvoidedLoss	True
314.422	1.45	Lose2	0.5455	n/a	Yes	2.626	n/a	5.0	GoodResponse	0	0.037	313.459	0	32	Feedback	AvoidedLoss	True
315.877	2.626	Lose2	0.5455	n/a	Yes	2.626	n/a	n/a	GoodResponse	0	0.0	n/a	0	32	ISIslide	AvoidedLoss	True
318.518	0.25	Win2	0.5588000000000001	0.0	Yes	2.682	0.018	n/a	GoodResponse	1	n/a	n/a	1	33	Cue	Win	True
318.769	4.0	Win2	0.5588000000000001	0.0	Yes	2.682	0.001	n/a	GoodResponse	1	n/a	n/a	1	33	Fixation	Win	True
322.764	0.23	Win2	0.5588000000000001	0.004	Yes	2.682	-0.004	3.0	GoodResponse	1	0.2	321.964	1	33	Target	Win	True
322.964	0.3	Win2	0.5588000000000001	0.004	Yes	2.682	-0.004	3.0	GoodResponse	1	0.2	n/a	1	33	ButtonPress	Win	True
322.998	0.47	Win2	0.5588000000000001	n/a	Yes	2.682	n/a	n/a	GoodResponse	1	n/a	n/a	1	33	Blank	Win	True
323.466	1.45	Win2	0.5588000000000001	n/a	Yes	2.682	n/a	5.0	GoodResponse	1	0.016	322.482	1	33	Feedback	Win	True
324.92	2.682	Win2	0.5588000000000001	n/a	Yes	2.682	n/a	n/a	GoodResponse	1	0.0	n/a	1	33	ISIslide	Win	True
327.629	0.25	Lose2	0.5714	0.0	Yes	2.621	0.029	n/a	GoodResponse	0	n/a	n/a	1	34	Cue	AvoidedLoss	True
327.879	4.05	Lose2	0.5714	0.0	Yes	2.621	0.0	n/a	GoodResponse	0	n/a	n/a	1	34	Fixation	AvoidedLoss	True
331.925	0.24	Lose2	0.5714	0.004	Yes	2.621	-0.004	3.0	GoodResponse	0	0.19	331.115	1	34	Target	AvoidedLoss	True
332.115	0.3	Lose2	0.5714	0.004	Yes	2.621	-0.004	3.0	GoodResponse	0	0.19	n/a	1	34	ButtonPress	AvoidedLoss	True
332.175	0.46	Lose2	0.5714	n/a	Yes	2.621	n/a	n/a	GoodResponse	0	n/a	n/a	1	34	Blank	AvoidedLoss	True
332.627	1.45	Lose2	0.5714	n/a	Yes	2.621	n/a	5.0	GoodResponse	0	0.026	331.653	1	34	Feedback	AvoidedLoss	True
334.081	2.621	Lose2	0.5714	n/a	Yes	2.621	n/a	n/a	GoodResponse	0	0.0	n/a	1	34	ISIslide	AvoidedLoss	True
336.722	0.25	Lose2	0.5832999999999999	0.0	Yes	2.678	0.022	n/a	GoodResponse	0	n/a	n/a	1	35	Cue	AvoidedLoss	True
336.973	4.0	Lose2	0.5832999999999999	0.0	Yes	2.678	0.001	n/a	GoodResponse	0	n/a	n/a	1	35	Fixation	AvoidedLoss	True
340.968	0.25	Lose2	0.5832999999999999	0.004	Yes	2.678	-0.004	3.0	GoodResponse	0	0.206	340.174	1	35	Target	AvoidedLoss	True
341.174	0.3	Lose2	0.5832999999999999	0.004	Yes	2.678	-0.004	3.0	GoodResponse	0	0.206	n/a	1	35	ButtonPress	AvoidedLoss	True
341.219	0.45	Lose2	0.5832999999999999	n/a	Yes	2.678	n/a	n/a	GoodResponse	0	n/a	n/a	1	35	Blank	AvoidedLoss	True
341.67	1.45	Lose2	0.5832999999999999	n/a	Yes	2.678	n/a	5.0	GoodResponse	0	0.008	340.678	1	35	Feedback	AvoidedLoss	True
343.125	2.678	Lose2	0.5832999999999999	n/a	Yes	2.678	n/a	n/a	GoodResponse	0	0.0	n/a	1	35	ISIslide	AvoidedLoss	True
345.816	0.25	Control	0.5946	0.0	Yes	2.684	0.016	n/a	GoodResponse	0	n/a	n/a	1	36	Cue	Neutral	True
346.067	4.0	Control	0.5946	0.0	Yes	2.684	0.001	n/a	GoodResponse	0	n/a	n/a	1	36	Fixation	Neutral	True
350.062	0.26	Control	0.5946	0.004	Yes	2.684	-0.004	3.0	GoodResponse	0	0.2	349.262	1	36	Target	Neutral	True
350.262	0.3	Control	0.5946	0.004	Yes	2.684	-0.004	3.0	GoodResponse	0	0.2	n/a	1	36	ButtonPress	Neutral	True
350.33	0.44	Control	0.5946	n/a	Yes	2.684	n/a	n/a	GoodResponse	0	n/a	n/a	1	36	Blank	Neutral	True
350.764	1.45	Control	0.5946	n/a	Yes	2.684	n/a	5.0	GoodResponse	0	0.036	349.8	1	36	Feedback	Neutral	True
352.219	2.684	Control	0.5946	n/a	Yes	2.684	n/a	n/a	GoodResponse	0	0.0	n/a	1	36	ISIslide	Neutral	True
354.927	0.25	Win2	0.5789	0.0	No	2.873	0.027	n/a	NoResponse	0	n/a	n/a	1	37	Cue	MissedWin	True
355.177	4.0	Win2	0.5789	0.001	No	2.873	0.0	n/a	NoResponse	0	n/a	n/a	1	37	Fixation	MissedWin	True
359.173	0.27	Win2	0.5789	0.004	No	2.873	-0.004	3.0	NoResponse	0	0.385	358.558	1	37	Target	MissedWin	True
359.457	0.43	Win2	0.5789	n/a	No	2.873	n/a	n/a	NoResponse	0	n/a	n/a	1	37	Blank	MissedWin	True
359.558	0.3	Win2	0.5789	0.004	No	2.873	-0.004	3.0	NoResponse	0	0.385	n/a	1	37	ButtonPress	MissedWin	True
359.875	1.45	Win2	0.5789	n/a	No	2.873	n/a	5.0	NoResponse	0	0.0	358.875	1	37	Feedback	MissedWin	True
361.329	2.873	Win2	0.5789	n/a	No	2.873	n/a	n/a	NoResponse	0	0.0	n/a	1	37	ISIslide	MissedWin	True
364.221	0.25	Lose2	0.5897	0.0	Yes	2.829	0.021	n/a	GoodResponse	0	n/a	n/a	1	38	Cue	AvoidedLoss	True
364.472	3.95	Lose2	0.5897	0.0	Yes	2.829	0.001	n/a	GoodResponse	0	n/a	n/a	1	38	Fixation	AvoidedLoss	True
368.417	0.28	Lose2	0.5897	0.004	Yes	2.829	-0.004	3.0	GoodResponse	0	0.194	367.611	1	38	Target	AvoidedLoss	True
368.611	0.3	Lose2	0.5897	0.004	Yes	2.829	-0.004	3.0	GoodResponse	0	0.194	n/a	1	38	ButtonPress	AvoidedLoss	True
368.701	0.42	Lose2	0.5897	n/a	Yes	2.829	n/a	n/a	GoodResponse	0	n/a	n/a	1	38	Blank	AvoidedLoss	True
369.119	1.45	Lose2	0.5897	n/a	Yes	2.829	n/a	5.0	GoodResponse	0	0.021	368.14	1	38	Feedback	AvoidedLoss	True
370.573	2.829	Lose2	0.5897	n/a	Yes	2.829	n/a	n/a	GoodResponse	0	0.0	n/a	1	38	ISIslide	AvoidedLoss	True
373.432	0.25	Win2	0.6	0.0	Yes	2.968	0.032	n/a	GoodResponse	1	n/a	n/a	2	39	Cue	Win	False
373.683	4.1	Win2	0.6	0.0	Yes	2.968	0.001	3.0	GoodResponse	1	3.982	376.665	2	39	Fixation	Win	False
377.665	0.3	Win2	0.6	0.0	Yes	2.968	0.001	3.0	GoodResponse	1	3.982	n/a	2	39	ButtonPress	Win	False
377.778	0.29	Win2	0.6	0.004	Yes	2.968	-0.004	3.0	GoodResponse	1	0.198	376.976	2	39	Target	Win	False
377.976	0.3	Win2	0.6	0.004	Yes	2.968	-0.004	3.0	GoodResponse	1	0.198	n/a	2	39	ButtonPress	Win	False
378.079	0.41	Win2	0.6	n/a	Yes	2.968	n/a	n/a	GoodResponse	1	n/a	n/a	2	39	Blank	Win	False
378.48	1.45	Win2	0.6	n/a	Yes	2.968	n/a	5.0	GoodResponse	1	0.026	377.506	2	39	Feedback	Win	False
379.935	2.968	Win2	0.6	n/a	Yes	2.968	n/a	n/a	GoodResponse	1	0.0	n/a	2	39	ISIslide	Win	False
382.927	0.25	Win2	0.6098	0.0	Yes	2.723	0.027	n/a	GoodResponse	1	n/a	n/a	3	40	Cue	Win	True
383.178	3.95	Win2	0.6098	0.0	Yes	2.723	0.001	n/a	GoodResponse	1	n/a	n/a	3	40	Fixation	Win	True
387.123	0.3	Win2	0.6098	0.004	Yes	2.723	-0.004	3.0	GoodResponse	1	0.217	386.34	3	40	Target	Win	True
387.34	0.3	Win2	0.6098	0.004	Yes	2.723	-0.004	3.0	GoodResponse	1	0.217	n/a	3	40	ButtonPress	Win	True
387.424	0.4	Win2	0.6098	n/a	Yes	2.723	n/a	n/a	GoodResponse	1	n/a	n/a	3	40	Blank	Win	True
387.825	1.45	Win2	0.6098	n/a	Yes	2.723	n/a	5.0	GoodResponse	1	0.047	386.872	3	40	Feedback	Win	True
389.279	2.723	Win2	0.6098	n/a	Yes	2.723	n/a	n/a	GoodResponse	1	0.0	n/a	3	40	ISIslide	Win	True
392.021	0.25	Win2	0.619	0.0	Yes	2.779	0.021	n/a	GoodResponse	1	n/a	n/a	4	41	Cue	Win	True
392.272	3.9	Win2	0.619	0.0	Yes	2.779	0.001	n/a	GoodResponse	1	n/a	n/a	4	41	Fixation	Win	True
396.167	0.31	Win2	0.619	0.004	Yes	2.779	-0.004	3.0	GoodResponse	1	0.227	395.394	4	41	Target	Win	True
396.394	0.3	Win2	0.619	0.004	Yes	2.779	-0.004	3.0	GoodResponse	1	0.227	n/a	4	41	ButtonPress	Win	True
396.484	0.39	Win2	0.619	n/a	Yes	2.779	n/a	n/a	GoodResponse	1	n/a	n/a	4	41	Blank	Win	True
396.869	1.45	Win2	0.619	n/a	Yes	2.779	n/a	5.0	GoodResponse	1	0.027	395.896	4	41	Feedback	Win	True
398.323	2.779	Win2	0.619	n/a	Yes	2.779	n/a	n/a	GoodResponse	1	0.0	n/a	4	41	ISIslide	Win	True
401.115	0.25	Control	0.6279	0.0	Yes	2.935	0.015	n/a	GoodResponse	0	n/a	n/a	4	42	Cue	Neutral	True
401.365	3.85	Control	0.6279	0.0	Yes	2.935	0.0	n/a	GoodResponse	0	n/a	n/a	4	42	Fixation	Neutral	True
405.227	0.32	Control	0.6279	0.0	Yes	2.935	0.012	3.0	GoodResponse	0	0.209	404.436	4	42	Target	Neutral	True
405.436	0.3	Control	0.6279	0.0	Yes	2.935	0.012	3.0	GoodResponse	0	0.209	n/a	4	42	ButtonPress	Neutral	True
405.545	0.38	Control	0.6279	n/a	Yes	2.935	n/a	n/a	GoodResponse	0	n/a	n/a	4	42	Blank	Neutral	True
405.912	1.45	Control	0.6279	n/a	Yes	2.935	n/a	5.0	GoodResponse	0	0.008	404.92	4	42	Feedback	Neutral	True
407.367	2.935	Control	0.6279	n/a	Yes	2.935	n/a	n/a	GoodResponse	0	0.0	n/a	4	42	ISIslide	Neutral	True
410.325	0.25	Win2	0.6364	0.001	Yes	3.175	0.025	n/a	GoodResponse	1	n/a	n/a	5	43	Cue	Win	True
410.576	4.0	Win2	0.6364	0.0	Yes	3.175	0.001	n/a	GoodResponse	1	n/a	n/a	5	43	Fixation	Win	True
414.572	0.33	Win2	0.6364	0.003	Yes	3.175	-0.003	3.0	GoodResponse	1	0.204	413.776	5	43	Target	Win	True
414.776	0.3	Win2	0.6364	0.003	Yes	3.175	-0.003	3.0	GoodResponse	1	0.204	n/a	5	43	ButtonPress	Win	True
414.906	0.37	Win2	0.6364	n/a	Yes	3.175	n/a	n/a	GoodResponse	1	n/a	n/a	5	43	Blank	Win	True
415.274	1.45	Win2	0.6364	n/a	Yes	3.175	n/a	5.0	GoodResponse	1	0.012	414.286	5	43	Feedback	Win	True
416.728	3.175	Win2	0.6364	n/a	Yes	3.175	n/a	n/a	GoodResponse	1	0.0	n/a	5	43	ISIslide	Win	True
419.921	0.25	Win2	0.6444	0.0	Yes	2.979	0.021	n/a	GoodResponse	1	n/a	n/a	6	44	Cue	Win	True
420.172	4.0	Win2	0.6444	0.0	Yes	2.979	0.001	n/a	GoodResponse	1	n/a	n/a	6	44	Fixation	Win	True
424.167	0.34	Win2	0.6444	0.004	Yes	2.979	-0.004	3.0	GoodResponse	1	0.216	423.383	6	44	Target	Win	True
424.383	0.3	Win2	0.6444	0.004	Yes	2.979	-0.004	3.0	GoodResponse	1	0.216	n/a	6	44	ButtonPress	Win	True
424.518	0.36	Win2	0.6444	n/a	Yes	2.979	n/a	n/a	GoodResponse	1	n/a	n/a	6	44	Blank	Win	True
424.869	1.45	Win2	0.6444	n/a	Yes	2.979	n/a	5.0	GoodResponse	1	0.027	423.896	6	44	Feedback	Win	True
426.323	2.979	Win2	0.6444	n/a	Yes	2.979	n/a	n/a	GoodResponse	1	0.0	n/a	6	44	ISIslide	Win	True
429.316	0.25	Control	0.6522	0.0	Yes	2.884	0.016	n/a	GoodResponse	0	n/a	n/a	6	45	Cue	Neutral	True
429.566	4.1	Control	0.6522	0.0	Yes	2.884	0.0	n/a	GoodResponse	0	n/a	n/a	6	45	Fixation	Neutral	True
433.662	0.35	Control	0.6522	0.004	Yes	2.884	-0.004	3.0	GoodResponse	0	0.204	432.866	6	45	Target	Neutral	True
433.866	0.3	Control	0.6522	0.004	Yes	2.884	-0.004	3.0	GoodResponse	0	0.204	n/a	6	45	ButtonPress	Neutral	True
434.013	0.35	Control	0.6522	n/a	Yes	2.884	n/a	n/a	GoodResponse	0	n/a	n/a	6	45	Blank	Neutral	True
434.364	1.45	Control	0.6522	n/a	Yes	2.884	n/a	5.0	GoodResponse	0	0.001	433.365	6	45	Feedback	Neutral	True
435.818	2.884	Control	0.6522	n/a	Yes	2.884	n/a	n/a	GoodResponse	0	0.0	n/a	6	45	ISIslide	Neutral	True
438.727	0.25	Lose2	0.6596	0.0	Yes	3.373	0.027	n/a	GoodResponse	0	n/a	n/a	6	46	Cue	AvoidedLoss	True
438.978	4.0	Lose2	0.6596	0.0	Yes	3.373	0.001	n/a	GoodResponse	0	n/a	n/a	6	46	Fixation	AvoidedLoss	True
442.973	0.36	Lose2	0.6596	0.004	Yes	3.373	-0.004	3.0	GoodResponse	0	0.216	442.189	6	46	Target	AvoidedLoss	True
443.189	0.3	Lose2	0.6596	0.004	Yes	3.373	-0.004	3.0	GoodResponse	0	0.216	n/a	6	46	ButtonPress	AvoidedLoss	True
443.341	0.34	Lose2	0.6596	n/a	Yes	3.373	n/a	n/a	GoodResponse	0	n/a	n/a	6	46	Blank	AvoidedLoss	True
443.675	1.45	Lose2	0.6596	n/a	Yes	3.373	n/a	5.0	GoodResponse	0	0.001	442.676	6	46	Feedback	AvoidedLoss	True
445.129	3.373	Lose2	0.6596	n/a	Yes	3.373	n/a	n/a	GoodResponse	0	0.0	n/a	6	46	ISIslide	AvoidedLoss	True
448.523	0.25	Lose2	0.6667000000000001	0.0	Yes	2.677	0.023	n/a	GoodResponse	0	n/a	n/a	6	47	Cue	AvoidedLoss	True
448.774	4.0	Lose2	0.6667000000000001	0.0	Yes	2.677	0.001	n/a	GoodResponse	0	n/a	n/a	6	47	Fixation	AvoidedLoss	True
452.769	0.36	Lose2	0.6667000000000001	0.004	Yes	2.677	-0.004	3.0	GoodResponse	0	0.266	452.035	6	47	Target	AvoidedLoss	True
453.035	0.3	Lose2	0.6667000000000001	0.004	Yes	2.677	-0.004	3.0	GoodResponse	0	0.266	n/a	6	47	ButtonPress	AvoidedLoss	True
453.137	0.34	Lose2	0.6667000000000001	n/a	Yes	2.677	n/a	n/a	GoodResponse	0	n/a	n/a	6	47	Blank	AvoidedLoss	True
453.471	1.45	Lose2	0.6667000000000001	n/a	Yes	2.677	n/a	5.0	GoodResponse	0	0.01	452.481	6	47	Feedback	AvoidedLoss	True
454.925	2.677	Lose2	0.6667000000000001	n/a	Yes	2.677	n/a	n/a	GoodResponse	0	0.0	n/a	6	47	ISIslide	AvoidedLoss	True
457.617	0.25	Lose2	0.6735	0.0	Yes	3.033	0.017	n/a	GoodResponse	0	n/a	n/a	6	48	Cue	AvoidedLoss	True
457.867	3.95	Lose2	0.6735	0.001	Yes	3.033	0.0	n/a	GoodResponse	0	n/a	n/a	6	48	Fixation	AvoidedLoss	True
461.813	0.35	Lose2	0.6735	0.004	Yes	3.033	-0.004	3.0	GoodResponse	0	0.193	461.006	6	48	Target	AvoidedLoss	True
462.006	0.3	Lose2	0.6735	0.004	Yes	3.033	-0.004	3.0	GoodResponse	0	0.193	n/a	6	48	ButtonPress	AvoidedLoss	True
462.164	0.35	Lose2	0.6735	n/a	Yes	3.033	n/a	n/a	GoodResponse	0	n/a	n/a	6	48	Blank	AvoidedLoss	True
462.515	1.45	Lose2	0.6735	n/a	Yes	3.033	n/a	5.0	GoodResponse	0	0.039	461.554	6	48	Feedback	AvoidedLoss	True
463.969	3.033	Lose2	0.6735	n/a	Yes	3.033	n/a	n/a	GoodResponse	0	0.0	n/a	6	48	ISIslide	AvoidedLoss	True
467.028	0.25	Control	0.68	0.0	Yes	2.872	0.028	n/a	GoodResponse	0	n/a	n/a	6	49	Cue	Neutral	True
467.279	4.0	Control	0.68	0.0	Yes	2.872	0.001	n/a	GoodResponse	0	n/a	n/a	6	49	Fixation	Neutral	True
471.274	0.34	Control	0.68	0.004	Yes	2.872	-0.004	3.0	GoodResponse	0	0.222	470.496	6	49	Target	Neutral	True
471.496	0.3	Control	0.68	0.004	Yes	2.872	-0.004	3.0	GoodResponse	0	0.222	n/a	6	49	ButtonPress	Neutral	True
471.625	0.36	Control	0.68	n/a	Yes	2.872	n/a	n/a	GoodResponse	0	n/a	n/a	6	49	Blank	Neutral	True
471.976	1.45	Control	0.68	n/a	Yes	2.872	n/a	5.0	GoodResponse	0	0.041	471.017	6	49	Feedback	Neutral	True
473.431	2.872	Control	0.68	n/a	Yes	2.872	n/a	n/a	GoodResponse	0	0.0	n/a	6	49	ISIslide	Neutral	True
476.323	0.25	Control	0.6862999999999999	0.0	Yes	2.777	0.023	n/a	GoodResponse	0	n/a	n/a	6	50	Cue	Neutral	True
476.573	4.0	Control	0.6862999999999999	0.0	Yes	2.777	0.0	n/a	GoodResponse	0	n/a	n/a	6	50	Fixation	Neutral	True
480.569	0.33	Control	0.6862999999999999	0.004	Yes	2.777	-0.004	3.0	GoodResponse	0	0.225	479.794	6	50	Target	Neutral	True
480.794	0.3	Control	0.6862999999999999	0.004	Yes	2.777	-0.004	3.0	GoodResponse	0	0.225	n/a	6	50	ButtonPress	Neutral	True
480.903	0.37	Control	0.6862999999999999	n/a	Yes	2.777	n/a	n/a	GoodResponse	0	n/a	n/a	6	50	Blank	Neutral	True
481.271	1.45	Control	0.6862999999999999	n/a	Yes	2.777	n/a	5.0	GoodResponse	0	0.014	480.285	6	50	Feedback	Neutral	True
482.725	2.777	Control	0.6862999999999999	n/a	Yes	2.777	n/a	n/a	GoodResponse	0	0.0	n/a	6	50	ISIslide	Neutral	True
485.517	0.25	Control	0.6923	0.0	Yes	2.733	0.017	n/a	GoodResponse	0	n/a	n/a	6	51	Cue	Neutral	True
485.767	3.95	Control	0.6923	0.001	Yes	2.733	0.0	n/a	GoodResponse	0	n/a	n/a	6	51	Fixation	Neutral	True
489.713	0.32	Control	0.6923	0.004	Yes	2.733	-0.004	3.0	GoodResponse	0	0.214	488.927	6	51	Target	Neutral	True
489.927	0.3	Control	0.6923	0.004	Yes	2.733	-0.004	3.0	GoodResponse	0	0.214	n/a	6	51	ButtonPress	Neutral	True
490.047	0.38	Control	0.6923	n/a	Yes	2.733	n/a	n/a	GoodResponse	0	n/a	n/a	6	51	Blank	Neutral	True
490.415	1.45	Control	0.6923	n/a	Yes	2.733	n/a	5.0	GoodResponse	0	0.041	489.456	6	51	Feedback	Neutral	True
491.869	2.733	Control	0.6923	n/a	Yes	2.733	n/a	n/a	GoodResponse	0	0.0	n/a	6	51	ISIslide	Neutral	True
494.627	0.25	Control	0.6981	0.0	Yes	2.623	0.027	n/a	GoodResponse	0	n/a	n/a	6	52	Cue	Neutral	True
494.878	4.05	Control	0.6981	0.0	Yes	2.623	0.001	n/a	GoodResponse	0	n/a	n/a	6	52	Fixation	Neutral	True
498.923	0.31	Control	0.6981	0.004	Yes	2.623	-0.004	3.0	GoodResponse	0	0.28	498.203	6	52	Target	Neutral	True
499.203	0.3	Control	0.6981	0.004	Yes	2.623	-0.004	3.0	GoodResponse	0	0.28	n/a	6	52	ButtonPress	Neutral	True
499.241	0.39	Control	0.6981	n/a	Yes	2.623	n/a	n/a	GoodResponse	0	n/a	n/a	6	52	Blank	Neutral	True
499.626	1.45	Control	0.6981	n/a	Yes	2.623	n/a	5.0	GoodResponse	0	0.001	498.627	6	52	Feedback	Neutral	True
501.08	2.623	Control	0.6981	n/a	Yes	2.623	n/a	n/a	GoodResponse	0	0.0	n/a	6	52	ISIslide	Neutral	True
503.721	0.25	Win2	0.7037	0.0	Yes	2.929	0.021	n/a	GoodResponse	1	n/a	n/a	7	53	Cue	Win	True
503.972	4.05	Win2	0.7037	0.0	Yes	2.929	0.001	n/a	GoodResponse	1	n/a	n/a	7	53	Fixation	Win	True
508.017	0.3	Win2	0.7037	0.004	Yes	2.929	-0.004	3.0	GoodResponse	1	0.224	507.241	7	53	Target	Win	True
508.241	0.3	Win2	0.7037	0.004	Yes	2.929	-0.004	3.0	GoodResponse	1	0.224	n/a	7	53	ButtonPress	Win	True
508.318	0.4	Win2	0.7037	n/a	Yes	2.929	n/a	n/a	GoodResponse	1	n/a	n/a	7	53	Blank	Win	True
508.719	1.45	Win2	0.7037	n/a	Yes	2.929	n/a	5.0	GoodResponse	1	0.029	507.748	7	53	Feedback	Win	True
510.174	2.929	Win2	0.7037	n/a	Yes	2.929	n/a	n/a	GoodResponse	1	0.0	n/a	7	53	ISIslide	Win	True
513.116	0.25	Win2	0.7091	0.0	Yes	2.734	0.016	n/a	GoodResponse	1	n/a	n/a	8	54	Cue	Win	True
513.367	3.95	Win2	0.7091	0.0	Yes	2.734	0.001	n/a	GoodResponse	1	n/a	n/a	8	54	Fixation	Win	True
517.312	0.29	Win2	0.7091	0.004	Yes	2.734	-0.004	3.0	GoodResponse	1	0.221	516.533	8	54	Target	Win	True
517.533	0.3	Win2	0.7091	0.004	Yes	2.734	-0.004	3.0	GoodResponse	1	0.221	n/a	8	54	ButtonPress	Win	True
517.613	0.41	Win2	0.7091	n/a	Yes	2.734	n/a	n/a	GoodResponse	1	n/a	n/a	8	54	Blank	Win	True
518.014	1.45	Win2	0.7091	n/a	Yes	2.734	n/a	5.0	GoodResponse	1	0.002	517.016	8	54	Feedback	Win	True
519.468	2.734	Win2	0.7091	n/a	Yes	2.734	n/a	n/a	GoodResponse	1	0.0	n/a	8	54	ISIslide	Win	True
522.226	0.25	Control	0.7143	0.0	Yes	3.024	0.026	n/a	GoodResponse	0	n/a	n/a	8	55	Cue	Neutral	True
522.477	3.95	Control	0.7143	0.0	Yes	3.024	0.001	n/a	GoodResponse	0	n/a	n/a	8	55	Fixation	Neutral	True
526.422	0.28	Control	0.7143	0.004	Yes	3.024	-0.004	3.0	GoodResponse	0	0.238	525.66	8	55	Target	Neutral	True
526.66	0.3	Control	0.7143	0.004	Yes	3.024	-0.004	3.0	GoodResponse	0	0.238	n/a	8	55	ButtonPress	Neutral	True
526.706	0.42	Control	0.7143	n/a	Yes	3.024	n/a	n/a	GoodResponse	0	n/a	n/a	8	55	Blank	Neutral	True
527.124	1.45	Control	0.7143	n/a	Yes	3.024	n/a	5.0	GoodResponse	0	0.014	526.138	8	55	Feedback	Neutral	True
528.579	3.024	Control	0.7143	n/a	Yes	3.024	n/a	n/a	GoodResponse	0	0.0	n/a	8	55	ISIslide	Neutral	True
531.621	0.25	Control	0.7018000000000001	0.0	No	2.829	0.021	n/a	NoResponse	0	n/a	n/a	8	56	Cue	Neutral	True
531.872	3.95	Control	0.7018000000000001	0.0	No	2.829	0.001	n/a	NoResponse	0	n/a	n/a	8	56	Fixation	Neutral	True
535.817	0.27	Control	0.7018000000000001	0.004	No	2.829	-0.004	3.0	NoResponse	0	0.313	535.13	8	56	Target	Neutral	True
536.101	0.43	Control	0.7018000000000001	n/a	No	2.829	n/a	n/a	NoResponse	0	n/a	n/a	8	56	Blank	Neutral	True
536.13	0.3	Control	0.7018000000000001	0.004	No	2.829	-0.004	3.0	NoResponse	0	0.313	n/a	8	56	ButtonPress	Neutral	True
536.519	1.45	Control	0.7018000000000001	n/a	No	2.829	n/a	5.0	NoResponse	0	0.034	535.553	8	56	Feedback	Neutral	True
537.973	2.829	Control	0.7018000000000001	n/a	No	2.829	n/a	n/a	NoResponse	0	0.0	n/a	8	56	ISIslide	Neutral	True
540.815	0.25	Control	0.7069	0.0	Yes	3.485	0.015	n/a	GoodResponse	0	n/a	n/a	8	57	Cue	Neutral	True
541.066	4.0	Control	0.7069	0.0	Yes	3.485	0.001	n/a	GoodResponse	0	n/a	n/a	8	57	Fixation	Neutral	True
545.061	0.26	Control	0.7069	0.004	Yes	3.485	-0.004	3.0	GoodResponse	0	0.231	544.292	8	57	Target	Neutral	True
545.292	0.3	Control	0.7069	0.004	Yes	3.485	-0.004	3.0	GoodResponse	0	0.231	n/a	8	57	ButtonPress	Neutral	True
545.329	0.44	Control	0.7069	n/a	Yes	3.485	n/a	n/a	GoodResponse	0	n/a	n/a	8	57	Blank	Neutral	True
545.763	1.45	Control	0.7069	n/a	Yes	3.485	n/a	5.0	GoodResponse	0	0.009	544.772	8	57	Feedback	Neutral	True
547.218	3.485	Control	0.7069	n/a	Yes	3.485	n/a	n/a	GoodResponse	0	0.0	n/a	8	57	ISIslide	Neutral	True
550.728	0.25	Win2	0.7119	0.0	Yes	2.722	0.028	n/a	GoodResponse	1	n/a	n/a	9	58	Cue	Win	True
551.046	4.05	Win2	0.7119	0.0	Yes	2.722	0.068	n/a	GoodResponse	1	n/a	n/a	9	58	Fixation	Win	True
555.024	0.25	Win2	0.7119	0.004	Yes	2.722	-0.004	3.0	GoodResponse	1	0.217	554.241	9	58	Target	Win	True
555.241	0.3	Win2	0.7119	0.004	Yes	2.722	-0.004	3.0	GoodResponse	1	0.217	n/a	9	58	ButtonPress	Win	True
555.275	0.45	Win2	0.7119	n/a	Yes	2.722	n/a	n/a	GoodResponse	1	n/a	n/a	9	58	Blank	Win	True
555.726	1.45	Win2	0.7119	n/a	Yes	2.722	n/a	5.0	GoodResponse	1	0.0	554.726	9	58	Feedback	Win	True
557.181	2.722	Win2	0.7119	n/a	Yes	2.722	n/a	n/a	GoodResponse	1	0.0	n/a	9	58	ISIslide	Win	True
559.922	0.25	Lose2	0.7167	0.0	Yes	2.678	0.022	n/a	GoodResponse	0	n/a	n/a	9	59	Cue	AvoidedLoss	True
560.173	4.0	Lose2	0.7167	0.0	Yes	2.678	0.001	n/a	GoodResponse	0	n/a	n/a	9	59	Fixation	AvoidedLoss	True
564.168	0.24	Lose2	0.7167	0.004	Yes	2.678	-0.004	3.0	GoodResponse	0	0.203	563.371	9	59	Target	AvoidedLoss	True
564.371	0.3	Lose2	0.7167	0.004	Yes	2.678	-0.004	3.0	GoodResponse	0	0.203	n/a	9	59	ButtonPress	AvoidedLoss	True
564.419	0.46	Lose2	0.7167	n/a	Yes	2.678	n/a	n/a	GoodResponse	0	n/a	n/a	9	59	Blank	AvoidedLoss	True
564.87	1.45	Lose2	0.7167	n/a	Yes	2.678	n/a	5.0	GoodResponse	0	0.024	563.894	9	59	Feedback	AvoidedLoss	True
566.325	2.678	Lose2	0.7167	n/a	Yes	2.678	n/a	n/a	GoodResponse	0	0.0	n/a	9	59	ISIslide	AvoidedLoss	True
569.016	0.25	Control	0.7212999999999999	0.0	Yes	2.684	0.016	n/a	GoodResponse	0	n/a	n/a	9	60	Cue	Neutral	True
569.267	4.0	Control	0.7212999999999999	0.0	Yes	2.684	0.001	n/a	GoodResponse	0	n/a	n/a	9	60	Fixation	Neutral	True
573.262	0.23	Control	0.7212999999999999	0.004	Yes	2.684	-0.004	3.0	GoodResponse	0	0.222	572.484	9	60	Target	Neutral	True
573.484	0.3	Control	0.7212999999999999	0.004	Yes	2.684	-0.004	3.0	GoodResponse	0	0.222	n/a	9	60	ButtonPress	Neutral	True
573.496	0.47	Control	0.7212999999999999	n/a	Yes	2.684	n/a	n/a	GoodResponse	0	n/a	n/a	9	60	Blank	Neutral	True
573.964	1.45	Control	0.7212999999999999	n/a	Yes	2.684	n/a	5.0	GoodResponse	0	0.006	572.97	9	60	Feedback	Neutral	True
575.419	2.684	Control	0.7212999999999999	n/a	Yes	2.684	n/a	n/a	GoodResponse	0	0.0	n/a	9	60	ISIslide	Neutral	True
578.127	0.25	Lose2	0.7258	0.0	Yes	2.973	0.027	n/a	GoodResponse	0	n/a	n/a	9	61	Cue	AvoidedLoss	True
578.377	4.0	Lose2	0.7258	0.0	Yes	2.973	0.0	n/a	GoodResponse	0	n/a	n/a	9	61	Fixation	AvoidedLoss	True
582.373	0.22	Lose2	0.7258	0.004	Yes	2.973	-0.004	3.0	GoodResponse	0	0.205	581.578	9	61	Target	AvoidedLoss	True
582.578	0.3	Lose2	0.7258	0.004	Yes	2.973	-0.004	3.0	GoodResponse	0	0.205	n/a	9	61	ButtonPress	AvoidedLoss	True
582.607	0.48	Lose2	0.7258	n/a	Yes	2.973	n/a	n/a	GoodResponse	0	n/a	n/a	9	61	Blank	AvoidedLoss	True
583.075	1.45	Lose2	0.7258	n/a	Yes	2.973	n/a	5.0	GoodResponse	0	0.013	582.088	9	61	Feedback	AvoidedLoss	True
584.529	2.973	Lose2	0.7258	n/a	Yes	2.973	n/a	n/a	GoodResponse	0	0.0	n/a	9	61	ISIslide	AvoidedLoss	True
587.521	0.25	Lose2	0.7143	0.0	No	2.879	0.021	n/a	NoResponse	-1	n/a	n/a	8	62	Cue	Loss	True
587.772	3.9	Lose2	0.7143	0.0	No	2.879	0.001	n/a	NoResponse	-1	n/a	n/a	8	62	Fixation	Loss	True
591.667	0.21	Lose2	0.7143	0.004	No	2.879	-0.004	3.0	NoResponse	-1	0.227	590.894	8	62	Target	Loss	True
591.884	0.49	Lose2	0.7143	n/a	No	2.879	n/a	n/a	NoResponse	-1	n/a	n/a	8	62	Blank	Loss	True
591.894	0.3	Lose2	0.7143	0.004	No	2.879	-0.004	3.0	NoResponse	-1	0.227	n/a	8	62	ButtonPress	Loss	True
592.369	1.45	Lose2	0.7143	n/a	No	2.879	n/a	5.0	NoResponse	-1	0.036	591.405	8	62	Feedback	Loss	True
593.824	2.879	Lose2	0.7143	n/a	No	2.879	n/a	n/a	NoResponse	-1	0.0	n/a	8	62	ISIslide	Loss	True
596.715	0.25	Lose2	0.7188	0.001	Yes	2.635	0.015	n/a	GoodResponse	0	n/a	n/a	8	63	Cue	AvoidedLoss	True
596.966	4.05	Lose2	0.7188	0.0	Yes	2.635	0.001	n/a	GoodResponse	0	n/a	n/a	8	63	Fixation	AvoidedLoss	True
601.012	0.2	Lose2	0.7188	0.003	Yes	2.635	-0.003	3.0	GoodResponse	0	0.198	600.21	8	63	Target	AvoidedLoss	True
601.21	0.3	Lose2	0.7188	0.003	Yes	2.635	-0.003	3.0	GoodResponse	0	0.198	n/a	8	63	ButtonPress	AvoidedLoss	True
601.212	0.5	Lose2	0.7188	n/a	Yes	2.635	n/a	n/a	GoodResponse	0	n/a	n/a	8	63	Blank	AvoidedLoss	True
601.714	1.45	Lose2	0.7188	n/a	Yes	2.635	n/a	5.0	GoodResponse	0	0.009	600.723	8	63	Feedback	AvoidedLoss	True
603.168	2.635	Lose2	0.7188	n/a	Yes	2.635	n/a	n/a	GoodResponse	0	0.0	n/a	8	63	ISIslide	AvoidedLoss	True
605.826	0.25	Win2	0.7077	0.0	No	3.124	0.026	n/a	NoResponse	0	n/a	n/a	8	64	Cue	MissedWin	True
606.077	4.15	Win2	0.7077	0.0	No	3.124	0.001	n/a	NoResponse	0	n/a	n/a	8	64	Fixation	MissedWin	True
610.222	0.19	Win2	0.7077	0.004	No	3.124	-0.004	3.0	NoResponse	0	0.211	609.433	8	64	Target	MissedWin	True
610.423	0.51	Win2	0.7077	n/a	No	3.124	n/a	n/a	NoResponse	0	n/a	n/a	8	64	Blank	MissedWin	True
610.433	0.3	Win2	0.7077	0.004	No	3.124	-0.004	3.0	NoResponse	0	0.211	n/a	8	64	ButtonPress	MissedWin	True
610.925	1.45	Win2	0.7077	n/a	No	3.124	n/a	5.0	NoResponse	0	0.017	609.942	8	64	Feedback	MissedWin	True
612.379	3.124	Win2	0.7077	n/a	No	3.124	n/a	n/a	NoResponse	0	0.0	n/a	8	64	ISIslide	MissedWin	True
615.522	0.25	Control	0.6970000000000001	0.0	No	2.778	0.022	n/a	NoResponse	0	n/a	n/a	8	65	Cue	Neutral	True
615.772	4.0	Control	0.6970000000000001	0.0	No	2.778	0.0	n/a	NoResponse	0	n/a	n/a	8	65	Fixation	Neutral	True
619.768	0.18	Control	0.6970000000000001	0.004	No	2.778	-0.004	3.0	NoResponse	0	0.214	618.982	8	65	Target	Neutral	True
619.952	0.52	Control	0.6970000000000001	n/a	No	2.778	n/a	n/a	NoResponse	0	n/a	n/a	8	65	Blank	Neutral	True
619.982	0.3	Control	0.6970000000000001	0.004	No	2.778	-0.004	3.0	NoResponse	0	0.214	n/a	8	65	ButtonPress	Neutral	True
620.47	1.45	Control	0.6970000000000001	n/a	No	2.778	n/a	5.0	NoResponse	0	0.032	619.502	8	65	Feedback	Neutral	True
621.924	2.778	Control	0.6970000000000001	n/a	No	2.778	n/a	n/a	NoResponse	0	0.0	n/a	8	65	ISIslide	Neutral	True
624.716	0.25	Win2	0.6866	0.0	No	2.784	0.016	n/a	NoResponse	0	n/a	n/a	8	66	Cue	MissedWin	True
624.967	3.9	Win2	0.6866	0.0	No	2.784	0.001	n/a	NoResponse	0	n/a	n/a	8	66	Fixation	MissedWin	True
628.861	0.17	Win2	0.6866	0.005	No	2.784	-0.005	3.0	NoResponse	0	0.228	628.089	8	66	Target	MissedWin	True
629.045	0.53	Win2	0.6866	n/a	No	2.784	n/a	n/a	NoResponse	0	n/a	n/a	8	66	Blank	MissedWin	True
629.089	0.3	Win2	0.6866	0.005	No	2.784	-0.005	3.0	NoResponse	0	0.228	n/a	8	66	ButtonPress	MissedWin	True
629.564	1.45	Win2	0.6866	n/a	No	2.784	n/a	5.0	NoResponse	0	0.012	628.576	8	66	Feedback	MissedWin	True
631.018	2.784	Win2	0.6866	n/a	No	2.784	n/a	n/a	NoResponse	0	0.0	n/a	8	66	ISIslide	MissedWin	True
633.826	0.25	Control	0.6765000000000001	0.0	No	2.724	0.026	n/a	NoResponse	0	n/a	n/a	8	67	Cue	Neutral	True
634.077	3.95	Control	0.6765000000000001	0.0	No	2.724	0.001	n/a	NoResponse	0	n/a	n/a	8	67	Fixation	Neutral	True
638.022	0.16	Control	0.6765000000000001	0.004	No	2.724	-0.004	3.0	NoResponse	0	0.274	637.296	8	67	Target	Neutral	True
638.189	0.54	Control	0.6765000000000001	n/a	No	2.724	n/a	n/a	NoResponse	0	n/a	n/a	8	67	Blank	Neutral	True
638.296	0.3	Control	0.6765000000000001	0.004	No	2.724	-0.004	3.0	NoResponse	0	0.274	n/a	8	67	ButtonPress	Neutral	True
638.724	1.45	Control	0.6765000000000001	n/a	No	2.724	n/a	5.0	NoResponse	0	0.022	637.746	8	67	Feedback	Neutral	True
640.179	2.724	Control	0.6765000000000001	n/a	No	2.724	n/a	n/a	NoResponse	0	0.0	n/a	8	67	ISIslide	Neutral	True
642.92	0.25	Win2	0.6667000000000001	0.0	No	3.08	0.02	n/a	NoResponse	0	n/a	n/a	8	68	Cue	MissedWin	True
643.171	4.0	Win2	0.6667000000000001	0.0	No	3.08	0.001	n/a	NoResponse	0	n/a	n/a	8	68	Fixation	MissedWin	True
647.166	0.15	Win2	0.6667000000000001	0.004	No	3.08	-0.004	3.0	NoResponse	0	0.199	646.365	8	68	Target	MissedWin	True
647.317	0.55	Win2	0.6667000000000001	n/a	No	3.08	n/a	n/a	NoResponse	0	n/a	n/a	8	68	Blank	MissedWin	True
647.365	0.3	Win2	0.6667000000000001	0.004	No	3.08	-0.004	3.0	NoResponse	0	0.199	n/a	8	68	ButtonPress	MissedWin	True
647.868	1.45	Win2	0.6667000000000001	n/a	No	3.08	n/a	5.0	NoResponse	0	0.001	646.869	8	68	Feedback	MissedWin	True
649.323	3.08	Win2	0.6667000000000001	n/a	No	3.08	n/a	n/a	NoResponse	0	0.0	n/a	8	68	ISIslide	MissedWin	True
652.432	0.25	Win2	0.6570999999999999	0.0	No	3.218	0.032	n/a	NoResponse	0	n/a	n/a	8	69	Cue	MissedWin	True
652.683	3.95	Win2	0.6570999999999999	0.0	No	3.218	0.001	n/a	NoResponse	0	n/a	n/a	8	69	Fixation	MissedWin	True
656.628	0.15	Win2	0.6570999999999999	0.004	No	3.218	-0.004	3.0	NoResponse	0	0.23	655.858	8	69	Target	MissedWin	True
656.778	0.55	Win2	0.6570999999999999	n/a	No	3.218	n/a	n/a	NoResponse	0	n/a	n/a	8	69	Blank	MissedWin	True
656.858	0.3	Win2	0.6570999999999999	0.004	No	3.218	-0.004	3.0	NoResponse	0	0.23	n/a	8	69	ButtonPress	MissedWin	True
657.33	1.45	Win2	0.6570999999999999	n/a	No	3.218	n/a	5.0	NoResponse	0	0.001	656.331	8	69	Feedback	MissedWin	True
658.784	3.218	Win2	0.6570999999999999	n/a	No	3.218	n/a	n/a	NoResponse	0	0.0	n/a	8	69	ISIslide	MissedWin	True
662.027	0.25	Lose2	0.6479	0.0	No	3.023	0.027	n/a	NoResponse	-1	n/a	n/a	7	70	Cue	Loss	True
662.278	4.05	Lose2	0.6479	0.0	No	3.023	0.001	n/a	NoResponse	-1	n/a	n/a	7	70	Fixation	Loss	True
666.323	0.15	Lose2	0.6479	0.004	No	3.023	-0.004	3.0	NoResponse	-1	0.205	665.528	7	70	Target	Loss	True
666.474	0.55	Lose2	0.6479	n/a	No	3.023	n/a	n/a	NoResponse	-1	n/a	n/a	7	70	Blank	Loss	True
666.528	0.3	Lose2	0.6479	0.004	No	3.023	-0.004	3.0	NoResponse	-1	0.205	n/a	7	70	ButtonPress	Loss	True
667.025	1.45	Lose2	0.6479	n/a	No	3.023	n/a	5.0	NoResponse	-1	0.013	666.038	7	70	Feedback	Loss	True
668.48	3.023	Lose2	0.6479	n/a	No	3.023	n/a	n/a	NoResponse	-1	0.0	n/a	7	70	ISIslide	Loss	True
671.522	0.25	Win2	0.6389	0.0	No	2.728	0.022	n/a	NoResponse	0	n/a	n/a	7	71	Cue	MissedWin	True
671.773	4.05	Win2	0.6389	0.0	No	2.728	0.001	n/a	NoResponse	0	n/a	n/a	7	71	Fixation	MissedWin	True
675.818	0.16	Win2	0.6389	0.004	No	2.728	-0.004	3.0	NoResponse	0	0.206	675.024	7	71	Target	MissedWin	True
675.986	0.54	Win2	0.6389	n/a	No	2.728	n/a	n/a	NoResponse	0	n/a	n/a	7	71	Blank	MissedWin	True
676.024	0.3	Win2	0.6389	0.004	No	2.728	-0.004	3.0	NoResponse	0	0.206	n/a	7	71	ButtonPress	MissedWin	True
676.52	1.45	Win2	0.6389	n/a	No	2.728	n/a	5.0	NoResponse	0	0.031	675.551	7	71	Feedback	MissedWin	True
677.975	2.728	Win2	0.6389	n/a	No	2.728	n/a	n/a	NoResponse	0	0.0	n/a	7	71	ISIslide	MissedWin	True
680.716	0.25	Win2	0.6301	0.0	No	2.784	0.016	n/a	NoResponse	0	n/a	n/a	7	72	Cue	MissedWin	True
680.967	4.1	Win2	0.6301	0.0	No	2.784	0.001	n/a	NoResponse	0	n/a	n/a	7	72	Fixation	MissedWin	True
685.063	0.17	Win2	0.6301	0.003	No	2.784	-0.003	3.0	NoResponse	0	0.199	684.262	7	72	Target	MissedWin	True
685.247	0.53	Win2	0.6301	n/a	No	2.784	n/a	n/a	NoResponse	0	n/a	n/a	7	72	Blank	MissedWin	True
685.262	0.3	Win2	0.6301	0.003	No	2.784	-0.003	3.0	NoResponse	0	0.199	n/a	7	72	ButtonPress	MissedWin	True
685.765	1.45	Win2	0.6301	n/a	No	2.784	n/a	5.0	NoResponse	0	0.006	684.771	7	72	Feedback	MissedWin	True
687.219	2.784	Win2	0.6301	n/a	No	2.784	n/a	n/a	NoResponse	0	0.0	n/a	7	72	ISIslide	MissedWin	True
690.027	0.25	Win2	0.6215999999999999	0.001	No	2.673	0.027	n/a	NoResponse	0	n/a	n/a	7	73	Cue	MissedWin	True
690.278	4.0	Win2	0.6215999999999999	0.0	No	2.673	0.001	n/a	NoResponse	0	n/a	n/a	7	73	Fixation	MissedWin	True
694.274	0.18	Win2	0.6215999999999999	0.003	No	2.673	-0.003	3.0	NoResponse	0	0.195	693.469	7	73	Target	MissedWin	True
694.457	0.52	Win2	0.6215999999999999	n/a	No	2.673	n/a	n/a	NoResponse	0	n/a	n/a	7	73	Blank	MissedWin	True
694.469	0.3	Win2	0.6215999999999999	0.003	No	2.673	-0.003	3.0	NoResponse	0	0.195	n/a	7	73	ButtonPress	MissedWin	True
694.976	1.45	Win2	0.6215999999999999	n/a	No	2.673	n/a	5.0	NoResponse	0	0.013	693.989	7	73	Feedback	MissedWin	True
696.43	2.673	Win2	0.6215999999999999	n/a	No	2.673	n/a	n/a	NoResponse	0	0.0	n/a	7	73	ISIslide	MissedWin	True
699.121	0.25	Lose2	0.6133	0.0	No	2.629	0.021	n/a	NoResponse	-1	n/a	n/a	6	74	Cue	Loss	True
699.372	4.05	Lose2	0.6133	0.0	No	2.629	0.001	n/a	NoResponse	-1	n/a	n/a	6	74	Fixation	Loss	True
703.417	0.19	Lose2	0.6133	0.004	No	2.629	-0.004	3.0	NoResponse	-1	0.215	702.632	6	74	Target	Loss	True
703.618	0.51	Lose2	0.6133	n/a	No	2.629	n/a	n/a	NoResponse	-1	n/a	n/a	6	74	Blank	Loss	True
703.632	0.3	Lose2	0.6133	0.004	No	2.629	-0.004	3.0	NoResponse	-1	0.215	n/a	6	74	ButtonPress	Loss	True
704.12	1.45	Lose2	0.6133	n/a	No	2.629	n/a	5.0	NoResponse	-1	0.04	703.16	6	74	Feedback	Loss	True
705.574	2.629	Lose2	0.6133	n/a	No	2.629	n/a	n/a	NoResponse	-1	0.0	n/a	6	74	ISIslide	Loss	True
708.232	0.25	Lose2	0.6053000000000001	0.0	No	2.918	0.032	n/a	LatePress	-1	n/a	n/a	5	75	Cue	Loss	True
708.483	3.95	Lose2	0.6053000000000001	0.0	No	2.918	0.001	n/a	LatePress	-1	n/a	n/a	5	75	Fixation	Loss	True
712.428	0.2	Lose2	0.6053000000000001	0.004	No	2.918	-0.004	3.0	LatePress	-1	0.203	711.631	5	75	Target	Loss	True
712.628	0.5	Lose2	0.6053000000000001	n/a	No	2.918	n/a	n/a	LatePress	-1	n/a	n/a	5	75	Blank	Loss	True
712.631	0.3	Lose2	0.6053000000000001	0.004	No	2.918	-0.004	3.0	LatePress	-1	0.203	n/a	5	75	ButtonPress	Loss	True
713.13	1.45	Lose2	0.6053000000000001	n/a	No	2.918	n/a	5.0	LatePress	-1	0.007	712.137	5	75	Feedback	Loss	True
714.584	2.918	Lose2	0.6053000000000001	n/a	No	2.918	n/a	n/a	LatePress	-1	0.0	n/a	5	75	ISIslide	Loss	True
717.526	0.25	Control	0.6103999999999999	0.0	Yes	3.224	0.026	n/a	GoodResponse	0	n/a	n/a	5	76	Cue	Neutral	True
717.777	4.05	Control	0.6103999999999999	0.0	Yes	3.224	0.001	n/a	GoodResponse	0	n/a	n/a	5	76	Fixation	Neutral	True
721.822	0.21	Control	0.6103999999999999	0.004	Yes	3.224	-0.004	3.0	GoodResponse	0	0.193	721.015	5	76	Target	Neutral	True
722.015	0.3	Control	0.6103999999999999	0.004	Yes	3.224	-0.004	3.0	GoodResponse	0	0.193	n/a	5	76	ButtonPress	Neutral	True
722.04	0.49	Control	0.6103999999999999	n/a	Yes	3.224	n/a	n/a	GoodResponse	0	n/a	n/a	5	76	Blank	Neutral	True
722.525	1.45	Control	0.6103999999999999	n/a	Yes	3.224	n/a	5.0	GoodResponse	0	0.025	721.55	5	76	Feedback	Neutral	True
723.979	3.224	Control	0.6103999999999999	n/a	Yes	3.224	n/a	n/a	GoodResponse	0	0.0	n/a	5	76	ISIslide	Neutral	True
727.222	0.25	Lose2	0.6154	0.0	Yes	2.578	0.022	n/a	GoodResponse	0	n/a	n/a	5	77	Cue	AvoidedLoss	True
727.473	3.95	Lose2	0.6154	0.0	Yes	2.578	0.001	n/a	GoodResponse	0	n/a	n/a	5	77	Fixation	AvoidedLoss	True
731.418	0.22	Lose2	0.6154	0.009	Yes	2.578	-0.004	3.0	GoodResponse	0	0.191	730.609	5	77	Target	AvoidedLoss	True
731.609	0.3	Lose2	0.6154	0.009	Yes	2.578	-0.004	3.0	GoodResponse	0	0.191	n/a	5	77	ButtonPress	AvoidedLoss	True
731.652	0.48	Lose2	0.6154	n/a	Yes	2.578	n/a	n/a	GoodResponse	0	n/a	n/a	5	77	Blank	AvoidedLoss	True
732.12	1.45	Lose2	0.6154	n/a	Yes	2.578	n/a	5.0	GoodResponse	0	0.039	731.159	5	77	Feedback	AvoidedLoss	True
733.574	2.578	Lose2	0.6154	n/a	Yes	2.578	n/a	n/a	GoodResponse	0	0.0	n/a	5	77	ISIslide	AvoidedLoss	True
