onset	duration	cue_type	current_mean_accuracy	duration_error	is_hit	isi_adjusted	onset_delay	response	response_type	reward	rt	rt_time	total_reward	trial_number	trial_phase	trial_type	one_press
11.11	0.25	Control	1.0	0.0	Yes	2.94	0.01	n/a	GoodResponse	0	n/a	n/a	0	0	Cue	Neutral	True
11.359	3.85	Control	1.0	0.001	Yes	2.94	-0.001	n/a	GoodResponse	0	n/a	n/a	0	0	Fixation	Neutral	True
15.208	0.4	Control	1.0	0.002	Yes	2.94	-0.002	1.0	GoodResponse	0	0.253	14.461	0	0	Target	Neutral	True
15.461	0.3	Control	1.0	0.002	Yes	2.94	-0.002	1.0	GoodResponse	0	0.253	n/a	0	0	ButtonPress	Neutral	True
15.608	0.3	Control	1.0	n/a	Yes	2.94	n/a	n/a	GoodResponse	0	n/a	n/a	0	0	Blank	Neutral	True
15.908	1.45	Control	1.0	n/a	Yes	2.94	n/a	5.0	GoodResponse	0	0.121	15.029	0	0	Feedback	Neutral	True
17.357	2.94	Control	1.0	n/a	Yes	2.94	n/a	n/a	GoodResponse	0	0.0	n/a	0	0	ISIslide	Neutral	True
20.323	0.25	Lose2	1.0	0.0	Yes	2.777	0.023	n/a	GoodResponse	0	n/a	n/a	0	1	Cue	AvoidedLoss	True
20.573	4.0	Lose2	1.0	0.0	Yes	2.777	0.0	n/a	GoodResponse	0	n/a	n/a	0	1	Fixation	AvoidedLoss	True
24.571	0.39	Lose2	1.0	0.002	Yes	2.777	-0.002	1.0	GoodResponse	0	0.209	23.78	0	1	Target	AvoidedLoss	True
24.78	0.3	Lose2	1.0	0.002	Yes	2.777	-0.002	1.0	GoodResponse	0	0.209	n/a	0	1	ButtonPress	AvoidedLoss	True
24.971	0.31	Lose2	1.0	n/a	Yes	2.777	n/a	n/a	GoodResponse	0	n/a	n/a	0	1	Blank	AvoidedLoss	True
25.271	1.45	Lose2	1.0	n/a	Yes	2.777	n/a	5.0	GoodResponse	0	0.556	24.827	0	1	Feedback	AvoidedLoss	True
26.721	2.777	Lose2	1.0	n/a	Yes	2.777	n/a	n/a	GoodResponse	0	0.0	n/a	0	1	ISIslide	AvoidedLoss	True
29.52	0.25	Control	1.0	0.0	Yes	2.58	0.02	n/a	GoodResponse	0	n/a	n/a	0	2	Cue	Neutral	True
29.769	4.1	Control	1.0	0.001	Yes	2.58	-0.001	n/a	GoodResponse	0	n/a	n/a	0	2	Fixation	Neutral	True
33.868	0.38	Control	1.0	0.002	Yes	2.58	-0.002	1.0	GoodResponse	0	0.32	33.188	0	2	Target	Neutral	True
34.188	0.3	Control	1.0	0.002	Yes	2.58	-0.002	1.0	GoodResponse	0	0.32	n/a	0	2	ButtonPress	Neutral	True
34.251	0.32	Control	1.0	n/a	Yes	2.58	n/a	n/a	GoodResponse	0	n/a	n/a	0	2	Blank	Neutral	True
34.568	1.45	Control	1.0	n/a	Yes	2.58	n/a	5.0	GoodResponse	0	0.189	33.757	0	2	Feedback	Neutral	True
36.017	2.58	Control	1.0	n/a	Yes	2.58	n/a	n/a	GoodResponse	0	0.0	n/a	0	2	ISIslide	Neutral	True
38.616	0.25	Win2	1.0	0.0	Yes	2.834	0.016	n/a	GoodResponse	1	n/a	n/a	1	3	Cue	Win	True
38.866	3.95	Win2	1.0	0.0	Yes	2.834	0.0	n/a	GoodResponse	1	n/a	n/a	1	3	Fixation	Win	True
42.815	0.37	Win2	1.0	0.001	Yes	2.834	-0.001	1.0	GoodResponse	1	0.228	42.043	1	3	Target	Win	True
43.043	0.3	Win2	1.0	0.001	Yes	2.834	-0.001	1.0	GoodResponse	1	0.228	n/a	1	3	ButtonPress	Win	True
43.198	0.33	Win2	1.0	n/a	Yes	2.834	n/a	n/a	GoodResponse	1	n/a	n/a	1	3	Blank	Win	True
43.515	1.45	Win2	1.0	n/a	Yes	2.834	n/a	5.0	GoodResponse	1	0.124	42.639	1	3	Feedback	Win	True
44.964	2.834	Win2	1.0	n/a	Yes	2.834	n/a	n/a	GoodResponse	1	0.0	n/a	1	3	ISIslide	Win	True
47.83	0.25	Win2	1.0	0.0	Yes	3.27	0.03	n/a	GoodResponse	1	n/a	n/a	2	4	Cue	Win	True
48.08	4.0	Win2	1.0	0.0	Yes	3.27	0.0	n/a	GoodResponse	1	n/a	n/a	2	4	Fixation	Win	True
52.078	0.36	Win2	1.0	0.002	Yes	3.27	-0.002	1.0	GoodResponse	1	0.303	51.381	2	4	Target	Win	True
52.381	0.3	Win2	1.0	0.002	Yes	3.27	-0.002	1.0	GoodResponse	1	0.303	n/a	2	4	ButtonPress	Win	True
52.445	0.34	Win2	1.0	n/a	Yes	3.27	n/a	n/a	GoodResponse	1	n/a	n/a	2	4	Blank	Win	True
52.778	1.45	Win2	1.0	n/a	Yes	3.27	n/a	5.0	GoodResponse	1	0.067	51.845	2	4	Feedback	Win	True
54.227	3.27	Win2	1.0	n/a	Yes	3.27	n/a	n/a	GoodResponse	1	0.0	n/a	2	4	ISIslide	Win	True
57.526	0.25	Win2	1.0	0.0	Yes	2.774	0.026	n/a	GoodResponse	1	n/a	n/a	3	5	Cue	Win	True
57.776	4.0	Win2	1.0	0.0	Yes	2.774	0.0	n/a	GoodResponse	1	n/a	n/a	3	5	Fixation	Win	True
61.775	0.35	Win2	1.0	0.001	Yes	2.774	-0.001	1.0	GoodResponse	1	0.271	61.046	3	5	Target	Win	True
62.046	0.3	Win2	1.0	0.001	Yes	2.774	-0.001	1.0	GoodResponse	1	0.271	n/a	3	5	ButtonPress	Win	True
62.125	0.35	Win2	1.0	n/a	Yes	2.774	n/a	n/a	GoodResponse	1	n/a	n/a	3	5	Blank	Win	True
62.474	1.45	Win2	1.0	n/a	Yes	2.774	n/a	5.0	GoodResponse	1	0.04	61.514	3	5	Feedback	Win	True
63.924	2.774	Win2	1.0	n/a	Yes	2.774	n/a	n/a	GoodResponse	1	0.0	n/a	3	5	ISIslide	Win	True
66.723	0.25	Lose2	1.0	0.0	Yes	2.727	0.023	n/a	GoodResponse	0	n/a	n/a	3	6	Cue	AvoidedLoss	True
66.973	3.95	Lose2	1.0	0.0	Yes	2.727	0.0	n/a	GoodResponse	0	n/a	n/a	3	6	Fixation	AvoidedLoss	True
70.921	0.34	Lose2	1.0	0.002	Yes	2.727	-0.002	1.0	GoodResponse	0	0.252	70.173	3	6	Target	AvoidedLoss	True
71.173	0.3	Lose2	1.0	0.002	Yes	2.727	-0.002	1.0	GoodResponse	0	0.252	n/a	3	6	ButtonPress	AvoidedLoss	True
71.271	0.36	Lose2	1.0	n/a	Yes	2.727	n/a	n/a	GoodResponse	0	n/a	n/a	3	6	Blank	AvoidedLoss	True
71.621	1.45	Lose2	1.0	n/a	Yes	2.727	n/a	5.0	GoodResponse	0	0.161	70.782	3	6	Feedback	AvoidedLoss	True
73.071	2.727	Lose2	1.0	n/a	Yes	2.727	n/a	n/a	GoodResponse	0	0.0	n/a	3	6	ISIslide	AvoidedLoss	True
75.82	0.25	Lose2	1.0	0.0	Yes	4.03	0.02	n/a	GoodResponse	0	n/a	n/a	3	7	Cue	AvoidedLoss	True
76.07	4.05	Lose2	1.0	0.0	Yes	4.03	0.0	n/a	GoodResponse	0	n/a	n/a	3	7	Fixation	AvoidedLoss	True
80.118	0.33	Lose2	1.0	0.002	Yes	4.03	-0.002	1.0	GoodResponse	0	0.198	79.316	3	7	Target	AvoidedLoss	True
80.316	0.3	Lose2	1.0	0.002	Yes	4.03	-0.002	1.0	GoodResponse	0	0.198	n/a	3	7	ButtonPress	AvoidedLoss	True
80.451	0.37	Lose2	1.0	n/a	Yes	4.03	n/a	n/a	GoodResponse	0	n/a	n/a	3	7	Blank	AvoidedLoss	True
80.818	1.45	Lose2	1.0	n/a	Yes	4.03	n/a	5.0	GoodResponse	0	0.013	79.831	3	7	Feedback	AvoidedLoss	True
82.267	4.03	Lose2	1.0	n/a	Yes	4.03	n/a	n/a	GoodResponse	0	0.0	n/a	3	7	ISIslide	AvoidedLoss	True
86.316	0.25	Lose2	1.0	0.0	Yes	3.034	0.016	n/a	GoodResponse	0	n/a	n/a	3	8	Cue	AvoidedLoss	True
86.566	3.95	Lose2	1.0	0.0	Yes	3.034	0.0	n/a	GoodResponse	0	n/a	n/a	3	8	Fixation	AvoidedLoss	True
90.514	0.32	Lose2	1.0	0.002	Yes	3.034	-0.002	1.0	GoodResponse	0	0.225	89.739	3	8	Target	AvoidedLoss	True
90.739	0.3	Lose2	1.0	0.002	Yes	3.034	-0.002	1.0	GoodResponse	0	0.225	n/a	3	8	ButtonPress	AvoidedLoss	True
90.848	0.38	Lose2	1.0	n/a	Yes	3.034	n/a	n/a	GoodResponse	0	n/a	n/a	3	8	Blank	AvoidedLoss	True
91.214	1.45	Lose2	1.0	n/a	Yes	3.034	n/a	5.0	GoodResponse	0	0.177	90.391	3	8	Feedback	AvoidedLoss	True
92.664	3.034	Lose2	1.0	n/a	Yes	3.034	n/a	n/a	GoodResponse	0	0.0	n/a	3	8	ISIslide	AvoidedLoss	True
95.729	0.25	Lose2	1.0	0.0	Yes	3.121	0.029	n/a	GoodResponse	0	n/a	n/a	3	9	Cue	AvoidedLoss	True
95.979	3.95	Lose2	1.0	0.0	Yes	3.121	0.0	n/a	GoodResponse	0	n/a	n/a	3	9	Fixation	AvoidedLoss	True
99.928	0.31	Lose2	1.0	0.001	Yes	3.121	-0.001	1.0	GoodResponse	0	0.239	99.167	3	9	Target	AvoidedLoss	True
100.167	0.3	Lose2	1.0	0.001	Yes	3.121	-0.001	1.0	GoodResponse	0	0.239	n/a	3	9	ButtonPress	AvoidedLoss	True
100.244	0.39	Lose2	1.0	n/a	Yes	3.121	n/a	n/a	GoodResponse	0	n/a	n/a	3	9	Blank	AvoidedLoss	True
100.627	1.45	Lose2	1.0	n/a	Yes	3.121	n/a	5.0	GoodResponse	0	0.217	99.844	3	9	Feedback	AvoidedLoss	True
102.077	3.121	Lose2	1.0	n/a	Yes	3.121	n/a	n/a	GoodResponse	0	0.0	n/a	3	9	ISIslide	AvoidedLoss	True
105.226	0.25	Control	1.0	0.0	Yes	3.274	0.026	n/a	GoodResponse	0	n/a	n/a	3	10	Cue	Neutral	True
105.476	4.0	Control	1.0	0.0	Yes	3.274	0.0	n/a	GoodResponse	0	n/a	n/a	3	10	Fixation	Neutral	True
109.474	0.3	Control	1.0	0.002	Yes	3.274	-0.002	1.0	GoodResponse	0	0.23	108.704	3	10	Target	Neutral	True
109.704	0.3	Control	1.0	0.002	Yes	3.274	-0.002	1.0	GoodResponse	0	0.23	n/a	3	10	ButtonPress	Neutral	True
109.774	0.4	Control	1.0	n/a	Yes	3.274	n/a	n/a	GoodResponse	0	n/a	n/a	3	10	Blank	Neutral	True
110.174	1.45	Control	1.0	n/a	Yes	3.274	n/a	5.0	GoodResponse	0	0.045	109.219	3	10	Feedback	Neutral	True
111.623	3.274	Control	1.0	n/a	Yes	3.274	n/a	n/a	GoodResponse	0	0.0	n/a	3	10	ISIslide	Neutral	True
114.922	0.25	Lose2	1.0	0.0	Yes	2.728	0.022	n/a	GoodResponse	0	n/a	n/a	3	11	Cue	AvoidedLoss	True
115.172	4.05	Lose2	1.0	0.0	Yes	2.728	0.0	n/a	GoodResponse	0	n/a	n/a	3	11	Fixation	AvoidedLoss	True
119.221	0.29	Lose2	1.0	0.001	Yes	2.728	-0.001	1.0	GoodResponse	0	0.215	118.436	3	11	Target	AvoidedLoss	True
119.436	0.3	Lose2	1.0	0.001	Yes	2.728	-0.001	1.0	GoodResponse	0	0.215	n/a	3	11	ButtonPress	AvoidedLoss	True
119.521	0.41	Lose2	1.0	n/a	Yes	2.728	n/a	n/a	GoodResponse	0	n/a	n/a	3	11	Blank	AvoidedLoss	True
119.92	1.45	Lose2	1.0	n/a	Yes	2.728	n/a	5.0	GoodResponse	0	0.055	118.975	3	11	Feedback	AvoidedLoss	True
121.37	2.728	Lose2	1.0	n/a	Yes	2.728	n/a	n/a	GoodResponse	0	0.0	n/a	3	11	ISIslide	AvoidedLoss	True
124.119	0.25	Control	1.0	0.0	Yes	2.981	0.019	n/a	GoodResponse	0	n/a	n/a	3	12	Cue	Neutral	True
124.369	3.9	Control	1.0	0.0	Yes	2.981	0.0	n/a	GoodResponse	0	n/a	n/a	3	12	Fixation	Neutral	True
128.267	0.28	Control	1.0	0.002	Yes	2.981	-0.002	1.0	GoodResponse	0	0.277	127.544	3	12	Target	Neutral	True
128.544	0.3	Control	1.0	0.002	Yes	2.981	-0.002	1.0	GoodResponse	0	0.277	n/a	3	12	ButtonPress	Neutral	True
128.551	0.42	Control	1.0	n/a	Yes	2.981	n/a	n/a	GoodResponse	0	n/a	n/a	3	12	Blank	Neutral	True
128.967	1.45	Control	1.0	n/a	Yes	2.981	n/a	5.0	GoodResponse	0	0.621	128.588	3	12	Feedback	Neutral	True
130.417	2.981	Control	1.0	n/a	Yes	2.981	n/a	n/a	GoodResponse	0	0.0	n/a	3	12	ISIslide	Neutral	True
133.416	0.25	Control	0.9286	0.0	No	2.784	0.016	n/a	LatePress	0	n/a	n/a	3	13	Cue	Neutral	True
133.665	4.0	Control	0.9286	0.001	No	2.784	-0.001	n/a	LatePress	0	n/a	n/a	3	13	Fixation	Neutral	True
137.664	0.27	Control	0.9286	0.002	No	2.784	-0.002	1.0	LatePress	0	0.272	136.936	3	13	Target	Neutral	True
137.936	0.3	Control	0.9286	0.002	No	2.784	-0.002	1.0	LatePress	0	0.272	n/a	3	13	ButtonPress	Neutral	True
137.947	0.43	Control	0.9286	n/a	No	2.784	n/a	n/a	LatePress	0	n/a	n/a	3	13	Blank	Neutral	True
138.364	1.45	Control	0.9286	n/a	No	2.784	n/a	5.0	LatePress	0	0.335	137.699	3	13	Feedback	Neutral	True
139.813	2.784	Control	0.9286	n/a	No	2.784	n/a	n/a	LatePress	0	0.0	n/a	3	13	ISIslide	Neutral	True
142.629	0.25	Win2	0.9333	0.0	Yes	2.671	0.029	n/a	GoodResponse	1	n/a	n/a	4	14	Cue	Win	True
142.879	4.1	Win2	0.9333	0.0	Yes	2.671	0.0	n/a	GoodResponse	1	n/a	n/a	4	14	Fixation	Win	True
146.977	0.26	Win2	0.9333	0.002	Yes	2.671	-0.002	1.0	GoodResponse	1	0.232	146.209	4	14	Target	Win	True
147.209	0.3	Win2	0.9333	0.002	Yes	2.671	-0.002	1.0	GoodResponse	1	0.232	n/a	4	14	ButtonPress	Win	True
147.244	0.44	Win2	0.9333	n/a	Yes	2.671	n/a	n/a	GoodResponse	1	n/a	n/a	4	14	Blank	Win	True
147.677	1.45	Win2	0.9333	n/a	Yes	2.671	n/a	5.0	GoodResponse	1	0.011	146.688	4	14	Feedback	Win	True
149.127	2.671	Win2	0.9333	n/a	Yes	2.671	n/a	n/a	GoodResponse	1	0.0	n/a	4	14	ISIslide	Win	True
151.826	0.25	Control	0.875	0.0	No	2.974	0.026	n/a	NoResponse	0	n/a	n/a	4	15	Cue	Neutral	False
152.076	4.0	Control	0.875	0.0	No	2.974	0.0	n/a	NoResponse	0	n/a	n/a	4	15	Fixation	Neutral	False
156.074	0.25	Control	0.875	0.002	No	2.974	-0.002	n/a	NoResponse	0	n/a	n/a	4	15	Target	Neutral	False
156.324	0.45	Control	0.875	n/a	No	2.974	n/a	n/a	NoResponse	0	n/a	n/a	4	15	Blank	Neutral	False
156.774	1.45	Control	0.875	n/a	No	2.974	n/a	5.0	NoResponse	0	0.363	156.137	4	15	Feedback	Neutral	False
158.223	2.974	Control	0.875	n/a	No	2.974	n/a	n/a	NoResponse	0	0.0	n/a	4	15	ISIslide	Neutral	False
161.222	0.25	Win2	0.8824	0.0	Yes	2.878	0.022	n/a	GoodResponse	1	n/a	n/a	5	16	Cue	Win	True
161.472	4.0	Win2	0.8824	0.0	Yes	2.878	0.0	n/a	GoodResponse	1	n/a	n/a	5	16	Fixation	Win	True
165.471	0.24	Win2	0.8824	0.001	Yes	2.878	-0.001	1.0	GoodResponse	1	0.216	164.687	5	16	Target	Win	True
165.687	0.3	Win2	0.8824	0.001	Yes	2.878	-0.001	1.0	GoodResponse	1	0.216	n/a	5	16	ButtonPress	Win	True
165.721	0.46	Win2	0.8824	n/a	Yes	2.878	n/a	n/a	GoodResponse	1	n/a	n/a	5	16	Blank	Win	True
166.17	1.45	Win2	0.8824	n/a	Yes	2.878	n/a	5.0	GoodResponse	1	0.235	165.405	5	16	Feedback	Win	True
167.62	2.878	Win2	0.8824	n/a	Yes	2.878	n/a	n/a	GoodResponse	1	0.0	n/a	5	16	ISIslide	Win	True
170.519	0.25	Lose2	0.8332999999999999	0.0	No	2.731	0.019	n/a	NoResponse	-1	n/a	n/a	4	17	Cue	Loss	True
170.769	3.95	Lose2	0.8332999999999999	0.0	No	2.731	0.0	n/a	NoResponse	-1	n/a	n/a	4	17	Fixation	Loss	True
174.717	0.23	Lose2	0.8332999999999999	0.002	No	2.731	-0.002	1.0	NoResponse	-1	0.242	173.959	4	17	Target	Loss	True
174.951	0.47	Lose2	0.8332999999999999	n/a	No	2.731	n/a	n/a	NoResponse	-1	n/a	n/a	4	17	Blank	Loss	True
174.959	0.3	Lose2	0.8332999999999999	0.002	No	2.731	-0.002	1.0	NoResponse	-1	0.242	n/a	4	17	ButtonPress	Loss	True
175.417	1.45	Lose2	0.8332999999999999	n/a	No	2.731	n/a	5.0	NoResponse	-1	0.158	174.575	4	17	Feedback	Loss	True
176.867	2.731	Lose2	0.8332999999999999	n/a	No	2.731	n/a	n/a	NoResponse	-1	0.0	n/a	4	17	ISIslide	Loss	True
179.616	0.25	Lose2	0.8421	0.0	Yes	2.734	0.016	n/a	GoodResponse	0	n/a	n/a	4	18	Cue	AvoidedLoss	True
179.866	4.05	Lose2	0.8421	0.0	Yes	2.734	0.0	n/a	GoodResponse	0	n/a	n/a	4	18	Fixation	AvoidedLoss	True
183.914	0.22	Lose2	0.8421	0.002	Yes	2.734	-0.002	1.0	GoodResponse	0	0.201	183.115	4	18	Target	AvoidedLoss	True
184.115	0.3	Lose2	0.8421	0.002	Yes	2.734	-0.002	1.0	GoodResponse	0	0.201	n/a	4	18	ButtonPress	AvoidedLoss	True
184.147	0.48	Lose2	0.8421	n/a	Yes	2.734	n/a	n/a	GoodResponse	0	n/a	n/a	4	18	Blank	AvoidedLoss	True
184.614	1.45	Lose2	0.8421	n/a	Yes	2.734	n/a	5.0	GoodResponse	0	0.231	183.845	4	18	Feedback	AvoidedLoss	True
186.063	2.734	Lose2	0.8421	n/a	Yes	2.734	n/a	n/a	GoodResponse	0	0.0	n/a	4	18	ISIslide	AvoidedLoss	True
188.829	0.25	Control	0.8	0.0	No	2.921	0.029	n/a	NoResponse	0	n/a	n/a	4	19	Cue	Neutral	True
189.079	3.95	Control	0.8	0.0	No	2.921	0.0	n/a	NoResponse	0	n/a	n/a	4	19	Fixation	Neutral	True
193.028	0.21	Control	0.8	0.001	No	2.921	-0.001	1.0	NoResponse	0	0.283	192.311	4	19	Target	Neutral	True
193.244	0.49	Control	0.8	n/a	No	2.921	n/a	n/a	NoResponse	0	n/a	n/a	4	19	Blank	Neutral	True
193.311	0.3	Control	0.8	0.001	No	2.921	-0.001	1.0	NoResponse	0	0.283	n/a	4	19	ButtonPress	Neutral	True
193.727	1.45	Control	0.8	n/a	No	2.921	n/a	5.0	NoResponse	0	0.288	193.015	4	19	Feedback	Neutral	True
195.177	2.921	Control	0.8	n/a	No	2.921	n/a	n/a	NoResponse	0	0.0	n/a	4	19	ISIslide	Neutral	True
198.126	0.25	Control	0.7619	0.0	No	2.624	0.026	n/a	NoResponse	0	n/a	n/a	4	20	Cue	Neutral	True
198.376	4.05	Control	0.7619	0.0	No	2.624	0.0	n/a	NoResponse	0	n/a	n/a	4	20	Fixation	Neutral	True
202.424	0.2	Control	0.7619	0.002	No	2.624	-0.002	1.0	NoResponse	0	0.339	201.763	4	20	Target	Neutral	True
202.624	0.5	Control	0.7619	n/a	No	2.624	n/a	n/a	NoResponse	0	n/a	n/a	4	20	Blank	Neutral	True
202.763	0.3	Control	0.7619	0.002	No	2.624	-0.002	1.0	NoResponse	0	0.339	n/a	4	20	ButtonPress	Neutral	True
203.124	1.45	Control	0.7619	n/a	No	2.624	n/a	5.0	NoResponse	0	0.121	202.245	4	20	Feedback	Neutral	True
204.573	2.624	Control	0.7619	n/a	No	2.624	n/a	n/a	NoResponse	0	0.0	n/a	4	20	ISIslide	Neutral	True
207.222	0.25	Control	0.7273000000000001	0.001	No	2.778	0.022	n/a	LatePress	0	n/a	n/a	4	21	Cue	Neutral	True
207.472	4.1	Control	0.7273000000000001	0.0	No	2.778	0.0	n/a	LatePress	0	n/a	n/a	4	21	Fixation	Neutral	True
211.571	0.19	Control	0.7273000000000001	0.001	No	2.778	-0.001	1.0	LatePress	0	0.195	210.766	4	21	Target	Neutral	True
211.766	0.3	Control	0.7273000000000001	0.001	No	2.778	-0.001	1.0	LatePress	0	0.195	n/a	4	21	ButtonPress	Neutral	True
211.771	0.51	Control	0.7273000000000001	n/a	No	2.778	n/a	n/a	LatePress	0	n/a	n/a	4	21	Blank	Neutral	True
212.271	1.45	Control	0.7273000000000001	n/a	No	2.778	n/a	5.0	LatePress	0	0.085	211.356	4	21	Feedback	Neutral	True
213.72	2.778	Control	0.7273000000000001	n/a	No	2.778	n/a	n/a	LatePress	0	0.0	n/a	4	21	ISIslide	Neutral	True
216.519	0.25	Control	0.6957	0.0	No	2.781	0.019	n/a	NoResponse	0	n/a	n/a	4	22	Cue	Neutral	True
216.769	4.0	Control	0.6957	0.0	No	2.781	0.0	n/a	NoResponse	0	n/a	n/a	4	22	Fixation	Neutral	True
220.768	0.18	Control	0.6957	0.001	No	2.781	-0.001	1.0	NoResponse	0	0.226	219.994	4	22	Target	Neutral	True
220.951	0.52	Control	0.6957	n/a	No	2.781	n/a	n/a	NoResponse	0	n/a	n/a	4	22	Blank	Neutral	True
220.994	0.3	Control	0.6957	0.001	No	2.781	-0.001	1.0	NoResponse	0	0.226	n/a	4	22	ButtonPress	Neutral	True
221.467	1.45	Control	0.6957	n/a	No	2.781	n/a	5.0	NoResponse	0	0.06	220.527	4	22	Feedback	Neutral	True
222.917	2.781	Control	0.6957	n/a	No	2.781	n/a	n/a	NoResponse	0	0.0	n/a	4	22	ISIslide	Neutral	True
225.716	0.25	Control	0.6667000000000001	0.0	No	2.784	0.016	n/a	NoResponse	0	n/a	n/a	4	23	Cue	Neutral	True
225.966	3.9	Control	0.6667000000000001	0.0	No	2.784	0.0	n/a	NoResponse	0	n/a	n/a	4	23	Fixation	Neutral	True
229.864	0.17	Control	0.6667000000000001	0.002	No	2.784	-0.002	1.0	NoResponse	0	0.219	229.083	4	23	Target	Neutral	True
230.048	0.53	Control	0.6667000000000001	n/a	No	2.784	n/a	n/a	NoResponse	0	n/a	n/a	4	23	Blank	Neutral	True
230.083	0.3	Control	0.6667000000000001	0.002	No	2.784	-0.002	1.0	NoResponse	0	0.219	n/a	4	23	ButtonPress	Neutral	True
230.564	1.45	Control	0.6667000000000001	n/a	No	2.784	n/a	5.0	NoResponse	0	0.094	229.658	4	23	Feedback	Neutral	True
232.014	2.784	Control	0.6667000000000001	n/a	No	2.784	n/a	n/a	NoResponse	0	0.0	n/a	4	23	ISIslide	Neutral	True
234.829	0.25	Win2	0.64	0.0	No	3.121	0.029	n/a	NoResponse	0	n/a	n/a	4	24	Cue	MissedWin	True
235.079	3.95	Win2	0.64	0.0	No	3.121	0.0	n/a	NoResponse	0	n/a	n/a	4	24	Fixation	MissedWin	True
239.028	0.16	Win2	0.64	0.001	No	3.121	-0.001	1.0	NoResponse	0	0.204	238.232	4	24	Target	MissedWin	True
239.194	0.54	Win2	0.64	n/a	No	3.121	n/a	n/a	NoResponse	0	n/a	n/a	4	24	Blank	MissedWin	True
239.232	0.3	Win2	0.64	0.001	No	3.121	-0.001	1.0	NoResponse	0	0.204	n/a	4	24	ButtonPress	MissedWin	True
239.727	1.45	Win2	0.64	n/a	No	3.121	n/a	5.0	NoResponse	0	0.043	238.77	4	24	Feedback	MissedWin	True
241.177	3.121	Win2	0.64	n/a	No	3.121	n/a	n/a	NoResponse	0	0.0	n/a	4	24	ISIslide	MissedWin	True
244.326	0.25	Win2	0.6154	0.0	No	3.074	0.026	n/a	NoResponse	0	n/a	n/a	4	25	Cue	MissedWin	True
244.576	4.0	Win2	0.6154	0.0	No	3.074	0.0	n/a	NoResponse	0	n/a	n/a	4	25	Fixation	MissedWin	True
248.574	0.17	Win2	0.6154	0.002	No	3.074	-0.002	1.0	NoResponse	0	0.206	247.78	4	25	Target	MissedWin	True
248.758	0.53	Win2	0.6154	n/a	No	3.074	n/a	n/a	NoResponse	0	n/a	n/a	4	25	Blank	MissedWin	True
248.78	0.3	Win2	0.6154	0.002	No	3.074	-0.002	1.0	NoResponse	0	0.206	n/a	4	25	ButtonPress	MissedWin	True
249.274	1.45	Win2	0.6154	n/a	No	3.074	n/a	5.0	NoResponse	0	0.231	248.505	4	25	Feedback	MissedWin	True
250.723	3.074	Win2	0.6154	n/a	No	3.074	n/a	n/a	NoResponse	0	0.0	n/a	4	25	ISIslide	MissedWin	True
253.822	0.25	Win2	0.5926	0.0	No	2.928	0.022	n/a	NoResponse	0	n/a	n/a	4	26	Cue	MissedWin	True
254.072	3.95	Win2	0.5926	0.0	No	2.928	0.0	n/a	NoResponse	0	n/a	n/a	4	26	Fixation	MissedWin	True
258.021	0.18	Win2	0.5926	0.001	No	2.928	-0.001	1.0	NoResponse	0	0.257	257.278	4	26	Target	MissedWin	True
258.204	0.52	Win2	0.5926	n/a	No	2.928	n/a	n/a	NoResponse	0	n/a	n/a	4	26	Blank	MissedWin	True
258.278	0.3	Win2	0.5926	0.001	No	2.928	-0.001	1.0	NoResponse	0	0.257	n/a	4	26	ButtonPress	MissedWin	True
258.721	1.45	Win2	0.5926	n/a	No	2.928	n/a	5.0	NoResponse	0	0.058	257.779	4	26	Feedback	MissedWin	True
260.17	2.928	Win2	0.5926	n/a	No	2.928	n/a	n/a	NoResponse	0	0.0	n/a	4	26	ISIslide	MissedWin	True
263.119	0.25	Lose2	0.5714	0.0	No	2.831	0.019	n/a	NoResponse	-1	n/a	n/a	3	27	Cue	Loss	True
263.369	4.05	Lose2	0.5714	0.0	No	2.831	0.0	n/a	NoResponse	-1	n/a	n/a	3	27	Fixation	Loss	True
267.417	0.19	Lose2	0.5714	0.002	No	2.831	-0.002	1.0	NoResponse	-1	0.207	266.624	3	27	Target	Loss	True
267.617	0.51	Lose2	0.5714	n/a	No	2.831	n/a	n/a	NoResponse	-1	n/a	n/a	3	27	Blank	Loss	True
267.624	0.3	Lose2	0.5714	0.002	No	2.831	-0.002	1.0	NoResponse	-1	0.207	n/a	3	27	ButtonPress	Loss	True
268.117	1.45	Lose2	0.5714	n/a	No	2.831	n/a	5.0	NoResponse	-1	0.335	267.452	3	27	Feedback	Loss	True
269.567	2.831	Lose2	0.5714	n/a	No	2.831	n/a	n/a	NoResponse	-1	0.0	n/a	3	27	ISIslide	Loss	True
272.416	0.25	Control	0.5517	0.0	No	2.834	0.016	n/a	NoResponse	0	n/a	n/a	3	28	Cue	Neutral	True
272.666	4.05	Control	0.5517	0.0	No	2.834	0.0	n/a	NoResponse	0	n/a	n/a	3	28	Fixation	Neutral	True
276.714	0.2	Control	0.5517	0.002	No	2.834	-0.002	1.0	NoResponse	0	0.215	275.929	3	28	Target	Neutral	True
276.914	0.5	Control	0.5517	n/a	No	2.834	n/a	n/a	NoResponse	0	n/a	n/a	3	28	Blank	Neutral	True
276.929	0.3	Control	0.5517	0.002	No	2.834	-0.002	1.0	NoResponse	0	0.215	n/a	3	28	ButtonPress	Neutral	True
277.414	1.45	Control	0.5517	n/a	No	2.834	n/a	5.0	NoResponse	0	0.269	276.683	3	28	Feedback	Neutral	True
278.863	2.834	Control	0.5517	n/a	No	2.834	n/a	n/a	NoResponse	0	0.0	n/a	3	28	ISIslide	Neutral	True
281.712	0.25	Lose2	0.5667	0.0	Yes	2.838	0.012	n/a	GoodResponse	0	n/a	n/a	3	29	Cue	AvoidedLoss	True
281.962	3.95	Lose2	0.5667	0.0	Yes	2.838	0.0	n/a	GoodResponse	0	n/a	n/a	3	29	Fixation	AvoidedLoss	True
285.911	0.21	Lose2	0.5667	0.001	Yes	2.838	-0.001	1.0	GoodResponse	0	0.201	285.112	3	29	Target	AvoidedLoss	True
286.112	0.3	Lose2	0.5667	0.001	Yes	2.838	-0.001	1.0	GoodResponse	0	0.201	n/a	3	29	ButtonPress	AvoidedLoss	True
286.127	0.49	Lose2	0.5667	n/a	Yes	2.838	n/a	n/a	GoodResponse	0	n/a	n/a	3	29	Blank	AvoidedLoss	True
286.611	1.45	Lose2	0.5667	n/a	Yes	2.838	n/a	5.0	GoodResponse	0	0.243	285.854	3	29	Feedback	AvoidedLoss	True
288.06	2.838	Lose2	0.5667	n/a	Yes	2.838	n/a	n/a	GoodResponse	0	0.0	n/a	3	29	ISIslide	AvoidedLoss	True
290.926	0.25	Win2	0.5484	0.0	No	2.774	0.026	n/a	LatePress	0	n/a	n/a	3	30	Cue	MissedWin	True
291.176	3.9	Win2	0.5484	0.0	No	2.774	0.0	n/a	LatePress	0	n/a	n/a	3	30	Fixation	MissedWin	True
295.074	0.22	Win2	0.5484	0.002	No	2.774	-0.002	1.0	LatePress	0	0.226	294.3	3	30	Target	MissedWin	True
295.3	0.3	Win2	0.5484	0.002	No	2.774	-0.002	1.0	LatePress	0	0.226	n/a	3	30	ButtonPress	MissedWin	True
295.307	0.48	Win2	0.5484	n/a	No	2.774	n/a	n/a	LatePress	0	n/a	n/a	3	30	Blank	MissedWin	True
295.774	1.45	Win2	0.5484	n/a	No	2.774	n/a	5.0	LatePress	0	0.19	294.964	3	30	Feedback	MissedWin	True
297.223	2.774	Win2	0.5484	n/a	No	2.774	n/a	n/a	LatePress	0	0.0	n/a	3	30	ISIslide	MissedWin	True
300.022	0.25	Lose2	0.5312	0.001	No	2.828	0.022	n/a	PrematurePress	-1	n/a	n/a	2	31	Cue	Loss	True
300.272	4.05	Lose2	0.5312	0.0	No	2.828	0.0	n/a	PrematurePress	-1	n/a	n/a	2	31	Fixation	Loss	True
304.321	0.23	Lose2	0.5312	0.001	No	2.828	-0.001	1.0	PrematurePress	-1	0.07	303.391	2	31	Target	Loss	True
304.391	0.3	Lose2	0.5312	0.001	No	2.828	-0.001	1.0	PrematurePress	-1	0.07	n/a	2	31	ButtonPress	Loss	True
304.554	0.47	Lose2	0.5312	n/a	No	2.828	n/a	n/a	PrematurePress	-1	n/a	n/a	2	31	Blank	Loss	True
305.021	1.45	Lose2	0.5312	n/a	No	2.828	n/a	5.0	PrematurePress	-1	0.015	304.036	2	31	Feedback	Loss	True
306.47	2.828	Lose2	0.5312	n/a	No	2.828	n/a	n/a	PrematurePress	-1	0.0	n/a	2	31	ISIslide	Loss	True
309.319	0.25	Lose2	0.5455	0.0	Yes	2.631	0.019	n/a	GoodResponse	0	n/a	n/a	2	32	Cue	AvoidedLoss	True
309.569	4.15	Lose2	0.5455	0.0	Yes	2.631	0.0	n/a	GoodResponse	0	n/a	n/a	2	32	Fixation	AvoidedLoss	True
313.718	0.24	Lose2	0.5455	0.001	Yes	2.631	-0.001	1.0	GoodResponse	0	0.236	312.954	2	32	Target	AvoidedLoss	True
313.954	0.3	Lose2	0.5455	0.001	Yes	2.631	-0.001	1.0	GoodResponse	0	0.236	n/a	2	32	ButtonPress	AvoidedLoss	True
313.967	0.46	Lose2	0.5455	n/a	Yes	2.631	n/a	n/a	GoodResponse	0	n/a	n/a	2	32	Blank	AvoidedLoss	True
314.417	1.45	Lose2	0.5455	n/a	Yes	2.631	n/a	5.0	GoodResponse	0	0.007	313.424	2	32	Feedback	AvoidedLoss	True
315.867	2.631	Lose2	0.5455	n/a	Yes	2.631	n/a	n/a	GoodResponse	0	0.0	n/a	2	32	ISIslide	AvoidedLoss	True
318.516	0.25	Win2	0.5588000000000001	0.0	Yes	2.684	0.016	n/a	GoodResponse	1	n/a	n/a	3	33	Cue	Win	True
318.766	4.0	Win2	0.5588000000000001	0.0	Yes	2.684	0.0	n/a	GoodResponse	1	n/a	n/a	3	33	Fixation	Win	True
322.764	0.25	Win2	0.5588000000000001	0.002	Yes	2.684	-0.002	1.0	GoodResponse	1	0.238	322.002	3	33	Target	Win	True
323.002	0.3	Win2	0.5588000000000001	0.002	Yes	2.684	-0.002	1.0	GoodResponse	1	0.238	n/a	3	33	ButtonPress	Win	True
323.014	0.45	Win2	0.5588000000000001	n/a	Yes	2.684	n/a	n/a	GoodResponse	1	n/a	n/a	3	33	Blank	Win	True
323.464	1.45	Win2	0.5588000000000001	n/a	Yes	2.684	n/a	5.0	GoodResponse	1	0.017	322.481	3	33	Feedback	Win	True
324.913	2.684	Win2	0.5588000000000001	n/a	Yes	2.684	n/a	n/a	GoodResponse	1	0.0	n/a	3	33	ISIslide	Win	True
327.629	0.25	Lose2	0.5714	0.0	Yes	2.621	0.029	n/a	GoodResponse	0	n/a	n/a	3	34	Cue	AvoidedLoss	True
327.879	4.05	Lose2	0.5714	0.0	Yes	2.621	0.0	n/a	GoodResponse	0	n/a	n/a	3	34	Fixation	AvoidedLoss	True
331.928	0.26	Lose2	0.5714	0.001	Yes	2.621	-0.001	1.0	GoodResponse	0	0.239	331.167	3	34	Target	AvoidedLoss	True
332.167	0.3	Lose2	0.5714	0.001	Yes	2.621	-0.001	1.0	GoodResponse	0	0.239	n/a	3	34	ButtonPress	AvoidedLoss	True
332.194	0.44	Lose2	0.5714	n/a	Yes	2.621	n/a	n/a	GoodResponse	0	n/a	n/a	3	34	Blank	AvoidedLoss	True
332.627	1.45	Lose2	0.5714	n/a	Yes	2.621	n/a	5.0	GoodResponse	0	0.006	331.633	3	34	Feedback	AvoidedLoss	True
334.077	2.621	Lose2	0.5714	n/a	Yes	2.621	n/a	n/a	GoodResponse	0	0.0	n/a	3	34	ISIslide	AvoidedLoss	True
336.726	0.25	Lose2	0.5832999999999999	0.0	Yes	2.674	0.026	n/a	GoodResponse	0	n/a	n/a	3	35	Cue	AvoidedLoss	True
336.976	4.0	Lose2	0.5832999999999999	0.0	Yes	2.674	0.0	n/a	GoodResponse	0	n/a	n/a	3	35	Fixation	AvoidedLoss	True
340.974	0.27	Lose2	0.5832999999999999	0.002	Yes	2.674	-0.002	1.0	GoodResponse	0	0.222	340.196	3	35	Target	AvoidedLoss	True
341.196	0.3	Lose2	0.5832999999999999	0.002	Yes	2.674	-0.002	1.0	GoodResponse	0	0.222	n/a	3	35	ButtonPress	AvoidedLoss	True
341.258	0.43	Lose2	0.5832999999999999	n/a	Yes	2.674	n/a	n/a	GoodResponse	0	n/a	n/a	3	35	Blank	AvoidedLoss	True
341.674	1.45	Lose2	0.5832999999999999	n/a	Yes	2.674	n/a	5.0	GoodResponse	0	0.007	340.681	3	35	Feedback	AvoidedLoss	True
343.124	2.674	Lose2	0.5832999999999999	n/a	Yes	2.674	n/a	n/a	GoodResponse	0	0.0	n/a	3	35	ISIslide	AvoidedLoss	True
345.823	0.25	Control	0.5946	0.0	Yes	2.677	0.023	n/a	GoodResponse	0	n/a	n/a	3	36	Cue	Neutral	True
346.073	4.0	Control	0.5946	0.0	Yes	2.677	0.0	n/a	GoodResponse	0	n/a	n/a	3	36	Fixation	Neutral	True
350.071	0.28	Control	0.5946	0.002	Yes	2.677	-0.002	1.0	GoodResponse	0	0.235	349.306	3	36	Target	Neutral	True
350.306	0.3	Control	0.5946	0.002	Yes	2.677	-0.002	1.0	GoodResponse	0	0.235	n/a	3	36	ButtonPress	Neutral	True
350.354	0.42	Control	0.5946	n/a	Yes	2.677	n/a	n/a	GoodResponse	0	n/a	n/a	3	36	Blank	Neutral	True
350.771	1.45	Control	0.5946	n/a	Yes	2.677	n/a	5.0	GoodResponse	0	0.12	349.891	3	36	Feedback	Neutral	True
352.22	2.677	Control	0.5946	n/a	Yes	2.677	n/a	n/a	GoodResponse	0	0.0	n/a	3	36	ISIslide	Neutral	True
354.919	0.25	Win2	0.6053000000000001	0.0	Yes	2.881	0.019	n/a	GoodResponse	1	n/a	n/a	4	37	Cue	Win	True
355.169	4.0	Win2	0.6053000000000001	0.0	Yes	2.881	0.0	n/a	GoodResponse	1	n/a	n/a	4	37	Fixation	Win	True
359.168	0.29	Win2	0.6053000000000001	0.001	Yes	2.881	-0.001	1.0	GoodResponse	1	0.271	358.439	4	37	Target	Win	True
359.439	0.3	Win2	0.6053000000000001	0.001	Yes	2.881	-0.001	1.0	GoodResponse	1	0.271	n/a	4	37	ButtonPress	Win	True
359.468	0.41	Win2	0.6053000000000001	n/a	Yes	2.881	n/a	n/a	GoodResponse	1	n/a	n/a	4	37	Blank	Win	True
359.868	1.45	Win2	0.6053000000000001	n/a	Yes	2.881	n/a	5.0	GoodResponse	1	0.194	359.062	4	37	Feedback	Win	True
361.317	2.881	Win2	0.6053000000000001	n/a	Yes	2.881	n/a	n/a	GoodResponse	1	0.0	n/a	4	37	ISIslide	Win	True
364.216	0.25	Lose2	0.6154	0.0	Yes	2.834	0.016	n/a	GoodResponse	0	n/a	n/a	4	38	Cue	AvoidedLoss	True
364.466	3.95	Lose2	0.6154	0.0	Yes	2.834	0.0	n/a	GoodResponse	0	n/a	n/a	4	38	Fixation	AvoidedLoss	True
368.415	0.3	Lose2	0.6154	0.001	Yes	2.834	-0.001	1.0	GoodResponse	0	0.246	367.661	4	38	Target	AvoidedLoss	True
368.661	0.3	Lose2	0.6154	0.001	Yes	2.834	-0.001	1.0	GoodResponse	0	0.246	n/a	4	38	ButtonPress	AvoidedLoss	True
368.714	0.4	Lose2	0.6154	n/a	Yes	2.834	n/a	n/a	GoodResponse	0	n/a	n/a	4	38	Blank	AvoidedLoss	True
369.114	1.45	Lose2	0.6154	n/a	Yes	2.834	n/a	5.0	GoodResponse	0	0.078	368.192	4	38	Feedback	AvoidedLoss	True
370.564	2.834	Lose2	0.6154	n/a	Yes	2.834	n/a	n/a	GoodResponse	0	0.0	n/a	4	38	ISIslide	AvoidedLoss	True
373.413	0.25	Win2	0.625	0.0	Yes	2.987	0.013	n/a	GoodResponse	1	n/a	n/a	5	39	Cue	Win	True
373.663	4.1	Win2	0.625	0.0	Yes	2.987	0.0	n/a	GoodResponse	1	n/a	n/a	5	39	Fixation	Win	True
377.761	0.31	Win2	0.625	0.002	Yes	2.987	-0.002	1.0	GoodResponse	1	0.258	377.019	5	39	Target	Win	True
378.019	0.3	Win2	0.625	0.002	Yes	2.987	-0.002	1.0	GoodResponse	1	0.258	n/a	5	39	ButtonPress	Win	True
378.078	0.39	Win2	0.625	n/a	Yes	2.987	n/a	n/a	GoodResponse	1	n/a	n/a	5	39	Blank	Win	True
378.461	1.45	Win2	0.625	n/a	Yes	2.987	n/a	5.0	GoodResponse	1	0.002	377.463	5	39	Feedback	Win	True
379.91	2.987	Win2	0.625	n/a	Yes	2.987	n/a	n/a	GoodResponse	1	0.0	n/a	5	39	ISIslide	Win	True
382.926	0.25	Win2	0.6341	0.0	Yes	2.724	0.026	n/a	GoodResponse	1	n/a	n/a	6	40	Cue	Win	True
383.176	3.95	Win2	0.6341	0.0	Yes	2.724	0.0	n/a	GoodResponse	1	n/a	n/a	6	40	Fixation	Win	True
387.124	0.32	Win2	0.6341	0.002	Yes	2.724	-0.002	1.0	GoodResponse	1	0.265	386.389	6	40	Target	Win	True
387.389	0.3	Win2	0.6341	0.002	Yes	2.724	-0.002	1.0	GoodResponse	1	0.265	n/a	6	40	ButtonPress	Win	True
387.458	0.38	Win2	0.6341	n/a	Yes	2.724	n/a	n/a	GoodResponse	1	n/a	n/a	6	40	Blank	Win	True
387.824	1.45	Win2	0.6341	n/a	Yes	2.724	n/a	5.0	GoodResponse	1	0.432	387.256	6	40	Feedback	Win	True
389.274	2.724	Win2	0.6341	n/a	Yes	2.724	n/a	n/a	GoodResponse	1	0.0	n/a	6	40	ISIslide	Win	True
392.023	0.25	Win2	0.619	0.0	No	2.777	0.023	n/a	NoResponse	0	n/a	n/a	6	41	Cue	MissedWin	True
392.273	3.9	Win2	0.619	0.0	No	2.777	0.0	n/a	NoResponse	0	n/a	n/a	6	41	Fixation	MissedWin	True
396.171	0.33	Win2	0.619	0.002	No	2.777	-0.002	1.0	NoResponse	0	0.375	395.546	6	41	Target	MissedWin	True
396.504	0.37	Win2	0.619	n/a	No	2.777	n/a	n/a	NoResponse	0	n/a	n/a	6	41	Blank	MissedWin	True
396.546	0.3	Win2	0.619	0.002	No	2.777	-0.002	1.0	NoResponse	0	0.375	n/a	6	41	ButtonPress	MissedWin	True
396.871	1.45	Win2	0.619	n/a	No	2.777	n/a	5.0	NoResponse	0	0.554	396.425	6	41	Feedback	MissedWin	True
398.32	2.777	Win2	0.619	n/a	No	2.777	n/a	n/a	NoResponse	0	0.0	n/a	6	41	ISIslide	MissedWin	True
401.119	0.25	Control	0.6279	0.001	Yes	2.931	0.019	n/a	GoodResponse	0	n/a	n/a	6	42	Cue	Neutral	True
401.369	3.85	Control	0.6279	0.0	Yes	2.931	0.0	n/a	GoodResponse	0	n/a	n/a	6	42	Fixation	Neutral	True
405.218	0.34	Control	0.6279	0.001	Yes	2.931	-0.001	1.0	GoodResponse	0	0.278	404.496	6	42	Target	Neutral	True
405.496	0.3	Control	0.6279	0.001	Yes	2.931	-0.001	1.0	GoodResponse	0	0.278	n/a	6	42	ButtonPress	Neutral	True
405.568	0.36	Control	0.6279	n/a	Yes	2.931	n/a	n/a	GoodResponse	0	n/a	n/a	6	42	Blank	Neutral	True
405.918	1.45	Control	0.6279	n/a	Yes	2.931	n/a	5.0	GoodResponse	0	0.075	404.993	6	42	Feedback	Neutral	True
407.367	2.931	Control	0.6279	n/a	Yes	2.931	n/a	n/a	GoodResponse	0	0.0	n/a	6	42	ISIslide	Neutral	True
410.316	0.25	Win2	0.6364	0.0	Yes	3.184	0.016	n/a	GoodResponse	1	n/a	n/a	7	43	Cue	Win	True
410.566	4.0	Win2	0.6364	0.0	Yes	3.184	0.0	n/a	GoodResponse	1	n/a	n/a	7	43	Fixation	Win	True
414.565	0.35	Win2	0.6364	0.001	Yes	3.184	-0.001	1.0	GoodResponse	1	0.202	413.767	7	43	Target	Win	True
414.767	0.3	Win2	0.6364	0.001	Yes	3.184	-0.001	1.0	GoodResponse	1	0.202	n/a	7	43	ButtonPress	Win	True
414.915	0.35	Win2	0.6364	n/a	Yes	3.184	n/a	n/a	GoodResponse	1	n/a	n/a	7	43	Blank	Win	True
415.264	1.45	Win2	0.6364	n/a	Yes	3.184	n/a	5.0	GoodResponse	1	0.121	414.385	7	43	Feedback	Win	True
416.714	3.184	Win2	0.6364	n/a	Yes	3.184	n/a	n/a	GoodResponse	1	0.0	n/a	7	43	ISIslide	Win	True
419.913	0.25	Win2	0.6444	0.0	Yes	2.987	0.013	n/a	GoodResponse	1	n/a	n/a	8	44	Cue	Win	True
420.163	4.0	Win2	0.6444	0.0	Yes	2.987	0.0	n/a	GoodResponse	1	n/a	n/a	8	44	Fixation	Win	True
424.161	0.36	Win2	0.6444	0.002	Yes	2.987	-0.002	1.0	GoodResponse	1	0.219	423.38	8	44	Target	Win	True
424.38	0.3	Win2	0.6444	0.002	Yes	2.987	-0.002	1.0	GoodResponse	1	0.219	n/a	8	44	ButtonPress	Win	True
424.528	0.34	Win2	0.6444	n/a	Yes	2.987	n/a	n/a	GoodResponse	1	n/a	n/a	8	44	Blank	Win	True
424.861	1.45	Win2	0.6444	n/a	Yes	2.987	n/a	5.0	GoodResponse	1	0.158	424.019	8	44	Feedback	Win	True
426.31	2.987	Win2	0.6444	n/a	Yes	2.987	n/a	n/a	GoodResponse	1	0.0	n/a	8	44	ISIslide	Win	True
429.326	0.25	Control	0.6522	0.0	Yes	2.874	0.026	n/a	GoodResponse	0	n/a	n/a	8	45	Cue	Neutral	True
429.576	4.1	Control	0.6522	0.0	Yes	2.874	0.0	n/a	GoodResponse	0	n/a	n/a	8	45	Fixation	Neutral	True
433.674	0.37	Control	0.6522	0.002	Yes	2.874	-0.002	1.0	GoodResponse	0	0.269	432.943	8	45	Target	Neutral	True
433.943	0.3	Control	0.6522	0.002	Yes	2.874	-0.002	1.0	GoodResponse	0	0.269	n/a	8	45	ButtonPress	Neutral	True
434.058	0.33	Control	0.6522	n/a	Yes	2.874	n/a	n/a	GoodResponse	0	n/a	n/a	8	45	Blank	Neutral	True
434.374	1.45	Control	0.6522	n/a	Yes	2.874	n/a	5.0	GoodResponse	0	0.378	433.752	8	45	Feedback	Neutral	True
435.824	2.874	Control	0.6522	n/a	Yes	2.874	n/a	n/a	GoodResponse	0	0.0	n/a	8	45	ISIslide	Neutral	True
438.723	0.25	Lose2	0.6596	0.0	Yes	3.377	0.023	n/a	GoodResponse	0	n/a	n/a	8	46	Cue	AvoidedLoss	True
438.973	4.0	Lose2	0.6596	0.0	Yes	3.377	0.0	n/a	GoodResponse	0	n/a	n/a	8	46	Fixation	AvoidedLoss	True
442.971	0.38	Lose2	0.6596	0.002	Yes	3.377	-0.002	1.0	GoodResponse	0	0.208	442.179	8	46	Target	AvoidedLoss	True
443.179	0.3	Lose2	0.6596	0.002	Yes	3.377	-0.002	1.0	GoodResponse	0	0.208	n/a	8	46	ButtonPress	AvoidedLoss	True
443.354	0.32	Lose2	0.6596	n/a	Yes	3.377	n/a	n/a	GoodResponse	0	n/a	n/a	8	46	Blank	AvoidedLoss	True
443.671	1.45	Lose2	0.6596	n/a	Yes	3.377	n/a	5.0	GoodResponse	0	0.291	442.962	8	46	Feedback	AvoidedLoss	True
445.12	3.377	Lose2	0.6596	n/a	Yes	3.377	n/a	n/a	GoodResponse	0	0.0	n/a	8	46	ISIslide	AvoidedLoss	True
448.519	0.25	Lose2	0.6667000000000001	0.0	Yes	2.681	0.019	n/a	GoodResponse	0	n/a	n/a	8	47	Cue	AvoidedLoss	True
448.769	4.0	Lose2	0.6667000000000001	0.0	Yes	2.681	0.0	n/a	GoodResponse	0	n/a	n/a	8	47	Fixation	AvoidedLoss	True
452.768	0.38	Lose2	0.6667000000000001	0.001	Yes	2.681	-0.001	1.0	GoodResponse	0	0.229	451.997	8	47	Target	AvoidedLoss	True
452.997	0.3	Lose2	0.6667000000000001	0.001	Yes	2.681	-0.001	1.0	GoodResponse	0	0.229	n/a	8	47	ButtonPress	AvoidedLoss	True
453.151	0.32	Lose2	0.6667000000000001	n/a	Yes	2.681	n/a	n/a	GoodResponse	0	n/a	n/a	8	47	Blank	AvoidedLoss	True
453.467	1.45	Lose2	0.6667000000000001	n/a	Yes	2.681	n/a	5.0	GoodResponse	0	0.31	452.777	8	47	Feedback	AvoidedLoss	True
454.917	2.681	Lose2	0.6667000000000001	n/a	Yes	2.681	n/a	n/a	GoodResponse	0	0.0	n/a	8	47	ISIslide	AvoidedLoss	True
457.616	0.25	Lose2	0.6735	0.0	Yes	3.034	0.016	n/a	GoodResponse	0	n/a	n/a	8	48	Cue	AvoidedLoss	True
457.866	3.95	Lose2	0.6735	0.0	Yes	3.034	0.0	n/a	GoodResponse	0	n/a	n/a	8	48	Fixation	AvoidedLoss	True
461.814	0.37	Lose2	0.6735	0.002	Yes	3.034	-0.002	1.0	GoodResponse	0	0.214	461.028	8	48	Target	AvoidedLoss	True
462.028	0.3	Lose2	0.6735	0.002	Yes	3.034	-0.002	1.0	GoodResponse	0	0.214	n/a	8	48	ButtonPress	AvoidedLoss	True
462.198	0.33	Lose2	0.6735	n/a	Yes	3.034	n/a	n/a	GoodResponse	0	n/a	n/a	8	48	Blank	AvoidedLoss	True
462.514	1.45	Lose2	0.6735	n/a	Yes	3.034	n/a	5.0	GoodResponse	0	0.372	461.886	8	48	Feedback	AvoidedLoss	True
463.964	3.034	Lose2	0.6735	n/a	Yes	3.034	n/a	n/a	GoodResponse	0	0.0	n/a	8	48	ISIslide	AvoidedLoss	True
467.029	0.25	Control	0.68	0.0	Yes	2.871	0.029	n/a	GoodResponse	0	n/a	n/a	8	49	Cue	Neutral	True
467.279	4.0	Control	0.68	0.0	Yes	2.871	0.0	n/a	GoodResponse	0	n/a	n/a	8	49	Fixation	Neutral	True
471.278	0.36	Control	0.68	0.001	Yes	2.871	-0.001	1.0	GoodResponse	0	0.304	470.582	8	49	Target	Neutral	True
471.582	0.3	Control	0.68	0.001	Yes	2.871	-0.001	1.0	GoodResponse	0	0.304	n/a	8	49	ButtonPress	Neutral	True
471.644	0.34	Control	0.68	n/a	Yes	2.871	n/a	n/a	GoodResponse	0	n/a	n/a	8	49	Blank	Neutral	True
471.977	1.45	Control	0.68	n/a	Yes	2.871	n/a	5.0	GoodResponse	0	0.24	471.217	8	49	Feedback	Neutral	True
473.427	2.871	Control	0.68	n/a	Yes	2.871	n/a	n/a	GoodResponse	0	0.0	n/a	8	49	ISIslide	Neutral	True
476.326	0.25	Control	0.6862999999999999	0.0	Yes	2.774	0.026	n/a	GoodResponse	0	n/a	n/a	8	50	Cue	Neutral	True
476.576	4.0	Control	0.6862999999999999	0.0	Yes	2.774	0.0	n/a	GoodResponse	0	n/a	n/a	8	50	Fixation	Neutral	True
480.574	0.35	Control	0.6862999999999999	0.002	Yes	2.774	-0.002	1.0	GoodResponse	0	0.28	479.854	8	50	Target	Neutral	True
480.854	0.3	Control	0.6862999999999999	0.002	Yes	2.774	-0.002	1.0	GoodResponse	0	0.28	n/a	8	50	ButtonPress	Neutral	True
480.924	0.35	Control	0.6862999999999999	n/a	Yes	2.774	n/a	n/a	GoodResponse	0	n/a	n/a	8	50	Blank	Neutral	True
481.274	1.45	Control	0.6862999999999999	n/a	Yes	2.774	n/a	5.0	GoodResponse	0	0.114	480.388	8	50	Feedback	Neutral	True
482.723	2.774	Control	0.6862999999999999	n/a	Yes	2.774	n/a	n/a	GoodResponse	0	0.0	n/a	8	50	ISIslide	Neutral	True
485.522	0.25	Control	0.6923	0.001	Yes	2.728	0.022	n/a	GoodResponse	0	n/a	n/a	8	51	Cue	Neutral	True
485.772	3.95	Control	0.6923	0.0	Yes	2.728	0.0	n/a	GoodResponse	0	n/a	n/a	8	51	Fixation	Neutral	True
489.721	0.34	Control	0.6923	0.001	Yes	2.728	-0.001	1.0	GoodResponse	0	0.26	488.981	8	51	Target	Neutral	True
489.981	0.3	Control	0.6923	0.001	Yes	2.728	-0.001	1.0	GoodResponse	0	0.26	n/a	8	51	ButtonPress	Neutral	True
490.071	0.36	Control	0.6923	n/a	Yes	2.728	n/a	n/a	GoodResponse	0	n/a	n/a	8	51	Blank	Neutral	True
490.421	1.45	Control	0.6923	n/a	Yes	2.728	n/a	5.0	GoodResponse	0	0.077	489.498	8	51	Feedback	Neutral	True
491.87	2.728	Control	0.6923	n/a	Yes	2.728	n/a	n/a	GoodResponse	0	0.0	n/a	8	51	ISIslide	Neutral	True
494.619	0.25	Control	0.6981	0.0	Yes	2.631	0.019	n/a	GoodResponse	0	n/a	n/a	8	52	Cue	Neutral	True
494.869	4.05	Control	0.6981	0.0	Yes	2.631	0.0	n/a	GoodResponse	0	n/a	n/a	8	52	Fixation	Neutral	True
498.918	0.33	Control	0.6981	0.001	Yes	2.631	-0.001	1.0	GoodResponse	0	0.215	498.133	8	52	Target	Neutral	True
499.133	0.3	Control	0.6981	0.001	Yes	2.631	-0.001	1.0	GoodResponse	0	0.215	n/a	8	52	ButtonPress	Neutral	True
499.251	0.37	Control	0.6981	n/a	Yes	2.631	n/a	n/a	GoodResponse	0	n/a	n/a	8	52	Blank	Neutral	True
499.617	1.45	Control	0.6981	n/a	Yes	2.631	n/a	5.0	GoodResponse	0	0.05	498.667	8	52	Feedback	Neutral	True
501.067	2.631	Control	0.6981	n/a	Yes	2.631	n/a	n/a	GoodResponse	0	0.0	n/a	8	52	ISIslide	Neutral	True
503.716	0.25	Win2	0.7037	0.0	Yes	2.934	0.016	n/a	GoodResponse	1	n/a	n/a	9	53	Cue	Win	True
503.966	4.05	Win2	0.7037	0.0	Yes	2.934	0.0	n/a	GoodResponse	1	n/a	n/a	9	53	Fixation	Win	True
508.014	0.32	Win2	0.7037	0.002	Yes	2.934	-0.002	1.0	GoodResponse	1	0.207	507.221	9	53	Target	Win	True
508.221	0.3	Win2	0.7037	0.002	Yes	2.934	-0.002	1.0	GoodResponse	1	0.207	n/a	9	53	ButtonPress	Win	True
508.348	0.38	Win2	0.7037	n/a	Yes	2.934	n/a	n/a	GoodResponse	1	n/a	n/a	9	53	Blank	Win	True
508.714	1.45	Win2	0.7037	n/a	Yes	2.934	n/a	5.0	GoodResponse	1	0.283	507.997	9	53	Feedback	Win	True
510.164	2.934	Win2	0.7037	n/a	Yes	2.934	n/a	n/a	GoodResponse	1	0.0	n/a	9	53	ISIslide	Win	True
513.129	0.25	Win2	0.7091	0.0	Yes	2.721	0.029	n/a	GoodResponse	1	n/a	n/a	10	54	Cue	Win	True
513.379	3.95	Win2	0.7091	0.0	Yes	2.721	0.0	n/a	GoodResponse	1	n/a	n/a	10	54	Fixation	Win	True
517.328	0.31	Win2	0.7091	0.001	Yes	2.721	-0.001	1.0	GoodResponse	1	0.22	516.548	10	54	Target	Win	True
517.548	0.3	Win2	0.7091	0.001	Yes	2.721	-0.001	1.0	GoodResponse	1	0.22	n/a	10	54	ButtonPress	Win	True
517.644	0.39	Win2	0.7091	n/a	Yes	2.721	n/a	n/a	GoodResponse	1	n/a	n/a	10	54	Blank	Win	True
518.027	1.45	Win2	0.7091	n/a	Yes	2.721	n/a	5.0	GoodResponse	1	0.238	517.265	10	54	Feedback	Win	True
519.477	2.721	Win2	0.7091	n/a	Yes	2.721	n/a	n/a	GoodResponse	1	0.0	n/a	10	54	ISIslide	Win	True
522.226	0.25	Control	0.7143	0.0	Yes	3.024	0.026	n/a	GoodResponse	0	n/a	n/a	10	55	Cue	Neutral	True
522.476	3.95	Control	0.7143	0.0	Yes	3.024	0.0	n/a	GoodResponse	0	n/a	n/a	10	55	Fixation	Neutral	True
526.424	0.3	Control	0.7143	0.002	Yes	3.024	-0.002	1.0	GoodResponse	0	0.224	525.648	10	55	Target	Neutral	True
526.648	0.3	Control	0.7143	0.002	Yes	3.024	-0.002	1.0	GoodResponse	0	0.224	n/a	10	55	ButtonPress	Neutral	True
526.724	0.4	Control	0.7143	n/a	Yes	3.024	n/a	n/a	GoodResponse	0	n/a	n/a	10	55	Blank	Neutral	True
527.124	1.45	Control	0.7143	n/a	Yes	3.024	n/a	5.0	GoodResponse	0	0.408	526.532	10	55	Feedback	Neutral	True
528.574	3.024	Control	0.7143	n/a	Yes	3.024	n/a	n/a	GoodResponse	0	0.0	n/a	10	55	ISIslide	Neutral	True
531.623	0.25	Control	0.7193	0.0	Yes	2.827	0.023	n/a	GoodResponse	0	n/a	n/a	10	56	Cue	Neutral	True
531.873	3.95	Control	0.7193	0.0	Yes	2.827	0.0	n/a	GoodResponse	0	n/a	n/a	10	56	Fixation	Neutral	True
535.821	0.29	Control	0.7193	0.002	Yes	2.827	-0.002	1.0	GoodResponse	0	0.261	535.082	10	56	Target	Neutral	True
536.082	0.3	Control	0.7193	0.002	Yes	2.827	-0.002	1.0	GoodResponse	0	0.261	n/a	10	56	ButtonPress	Neutral	True
536.121	0.41	Control	0.7193	n/a	Yes	2.827	n/a	n/a	GoodResponse	0	n/a	n/a	10	56	Blank	Neutral	True
536.521	1.45	Control	0.7193	n/a	Yes	2.827	n/a	5.0	GoodResponse	0	0.218	535.739	10	56	Feedback	Neutral	True
537.97	2.827	Control	0.7193	n/a	Yes	2.827	n/a	n/a	GoodResponse	0	0.0	n/a	10	56	ISIslide	Neutral	True
540.819	0.25	Control	0.7241	0.0	Yes	3.481	0.019	n/a	GoodResponse	0	n/a	n/a	10	57	Cue	Neutral	True
541.069	4.0	Control	0.7241	0.0	Yes	3.481	0.0	n/a	GoodResponse	0	n/a	n/a	10	57	Fixation	Neutral	True
545.068	0.28	Control	0.7241	0.001	Yes	3.481	-0.001	1.0	GoodResponse	0	0.22	544.288	10	57	Target	Neutral	True
545.288	0.3	Control	0.7241	0.001	Yes	3.481	-0.001	1.0	GoodResponse	0	0.22	n/a	10	57	ButtonPress	Neutral	True
545.351	0.42	Control	0.7241	n/a	Yes	3.481	n/a	n/a	GoodResponse	0	n/a	n/a	10	57	Blank	Neutral	True
545.768	1.45	Control	0.7241	n/a	Yes	3.481	n/a	5.0	GoodResponse	0	0.339	545.107	10	57	Feedback	Neutral	True
547.217	3.481	Control	0.7241	n/a	Yes	3.481	n/a	n/a	GoodResponse	0	0.0	n/a	10	57	ISIslide	Neutral	True
550.716	0.25	Win2	0.7119	0.0	No	2.734	0.016	n/a	LatePress	0	n/a	n/a	10	58	Cue	MissedWin	True
550.966	4.05	Win2	0.7119	0.0	No	2.734	0.0	n/a	LatePress	0	n/a	n/a	10	58	Fixation	MissedWin	True
555.014	0.27	Win2	0.7119	0.002	No	2.734	-0.002	1.0	LatePress	0	0.274	554.288	10	58	Target	MissedWin	True
555.288	0.3	Win2	0.7119	0.002	No	2.734	-0.002	1.0	LatePress	0	0.274	n/a	10	58	ButtonPress	MissedWin	True
555.297	0.43	Win2	0.7119	n/a	No	2.734	n/a	n/a	LatePress	0	n/a	n/a	10	58	Blank	MissedWin	True
555.714	1.45	Win2	0.7119	n/a	No	2.734	n/a	5.0	LatePress	0	0.344	555.058	10	58	Feedback	MissedWin	True
557.163	2.734	Win2	0.7119	n/a	No	2.734	n/a	n/a	LatePress	0	0.0	n/a	10	58	ISIslide	MissedWin	True
559.912	0.25	Lose2	0.7167	0.001	Yes	2.688	0.012	n/a	GoodResponse	0	n/a	n/a	10	59	Cue	AvoidedLoss	True
560.162	4.0	Lose2	0.7167	0.0	Yes	2.688	0.0	n/a	GoodResponse	0	n/a	n/a	10	59	Fixation	AvoidedLoss	True
564.161	0.26	Lose2	0.7167	0.001	Yes	2.688	-0.001	1.0	GoodResponse	0	0.235	563.396	10	59	Target	AvoidedLoss	True
564.396	0.3	Lose2	0.7167	0.001	Yes	2.688	-0.001	1.0	GoodResponse	0	0.235	n/a	10	59	ButtonPress	AvoidedLoss	True
564.427	0.44	Lose2	0.7167	n/a	Yes	2.688	n/a	n/a	GoodResponse	0	n/a	n/a	10	59	Blank	AvoidedLoss	True
564.861	1.45	Lose2	0.7167	n/a	Yes	2.688	n/a	5.0	GoodResponse	0	0.024	563.885	10	59	Feedback	AvoidedLoss	True
566.31	2.688	Lose2	0.7167	n/a	Yes	2.688	n/a	n/a	GoodResponse	0	0.0	n/a	10	59	ISIslide	AvoidedLoss	True
569.026	0.25	Control	0.7049	0.0	No	2.674	0.026	n/a	NoResponse	0	n/a	n/a	10	60	Cue	Neutral	True
569.276	4.0	Control	0.7049	0.0	No	2.674	0.0	n/a	NoResponse	0	n/a	n/a	10	60	Fixation	Neutral	True
573.274	0.25	Control	0.7049	0.002	No	2.674	-0.002	1.0	NoResponse	0	0.266	572.54	10	60	Target	Neutral	True
573.524	0.45	Control	0.7049	n/a	No	2.674	n/a	n/a	NoResponse	0	n/a	n/a	10	60	Blank	Neutral	True
573.54	0.3	Control	0.7049	0.002	No	2.674	-0.002	1.0	NoResponse	0	0.266	n/a	10	60	ButtonPress	Neutral	True
573.974	1.45	Control	0.7049	n/a	No	2.674	n/a	5.0	NoResponse	0	0.018	572.992	10	60	Feedback	Neutral	True
575.424	2.674	Control	0.7049	n/a	No	2.674	n/a	n/a	NoResponse	0	0.0	n/a	10	60	ISIslide	Neutral	True
578.123	0.25	Lose2	0.7097	0.0	Yes	2.977	0.023	n/a	GoodResponse	0	n/a	n/a	10	61	Cue	AvoidedLoss	True
578.372	4.0	Lose2	0.7097	0.001	Yes	2.977	-0.001	n/a	GoodResponse	0	n/a	n/a	10	61	Fixation	AvoidedLoss	True
582.371	0.24	Lose2	0.7097	0.002	Yes	2.977	-0.002	1.0	GoodResponse	0	0.239	581.61	10	61	Target	AvoidedLoss	True
582.61	0.3	Lose2	0.7097	0.002	Yes	2.977	-0.002	1.0	GoodResponse	0	0.239	n/a	10	61	ButtonPress	AvoidedLoss	True
582.621	0.46	Lose2	0.7097	n/a	Yes	2.977	n/a	n/a	GoodResponse	0	n/a	n/a	10	61	Blank	AvoidedLoss	True
583.071	1.45	Lose2	0.7097	n/a	Yes	2.977	n/a	5.0	GoodResponse	0	0.107	582.178	10	61	Feedback	AvoidedLoss	True
584.52	2.977	Lose2	0.7097	n/a	Yes	2.977	n/a	n/a	GoodResponse	0	0.0	n/a	10	61	ISIslide	AvoidedLoss	True
587.519	0.25	Lose2	0.6984	0.0	No	2.881	0.019	n/a	LatePress	-1	n/a	n/a	9	62	Cue	Loss	True
587.769	3.9	Lose2	0.6984	0.0	No	2.881	0.0	n/a	LatePress	-1	n/a	n/a	9	62	Fixation	Loss	True
591.668	0.23	Lose2	0.6984	0.001	No	2.881	-0.001	1.0	LatePress	-1	0.231	590.899	9	62	Target	Loss	True
591.899	0.3	Lose2	0.6984	0.001	No	2.881	-0.001	1.0	LatePress	-1	0.231	n/a	9	62	ButtonPress	Loss	True
591.901	0.47	Lose2	0.6984	n/a	No	2.881	n/a	n/a	LatePress	-1	n/a	n/a	9	62	Blank	Loss	True
592.367	1.45	Lose2	0.6984	n/a	No	2.881	n/a	5.0	LatePress	-1	0.217	591.584	9	62	Feedback	Loss	True
593.817	2.881	Lose2	0.6984	n/a	No	2.881	n/a	n/a	LatePress	-1	0.0	n/a	9	62	ISIslide	Loss	True
596.716	0.25	Lose2	0.6875	0.0	No	2.634	0.016	n/a	NoResponse	-1	n/a	n/a	8	63	Cue	Loss	True
596.966	4.05	Lose2	0.6875	0.0	No	2.634	0.0	n/a	NoResponse	-1	n/a	n/a	8	63	Fixation	Loss	True
601.014	0.22	Lose2	0.6875	0.002	No	2.634	-0.002	1.0	NoResponse	-1	0.24	600.254	8	63	Target	Loss	True
601.248	0.48	Lose2	0.6875	n/a	No	2.634	n/a	n/a	NoResponse	-1	n/a	n/a	8	63	Blank	Loss	True
601.254	0.3	Lose2	0.6875	0.002	No	2.634	-0.002	1.0	NoResponse	-1	0.24	n/a	8	63	ButtonPress	Loss	True
601.714	1.45	Lose2	0.6875	n/a	No	2.634	n/a	5.0	NoResponse	-1	0.076	600.79	8	63	Feedback	Loss	True
603.164	2.634	Lose2	0.6875	n/a	No	2.634	n/a	n/a	NoResponse	-1	0.0	n/a	8	63	ISIslide	Loss	True
605.813	0.25	Win2	0.6923	0.0	Yes	3.137	0.013	n/a	GoodResponse	1	n/a	n/a	9	64	Cue	Win	True
606.063	4.15	Win2	0.6923	0.0	Yes	3.137	0.0	n/a	GoodResponse	1	n/a	n/a	9	64	Fixation	Win	True
610.211	0.21	Win2	0.6923	0.002	Yes	3.137	-0.002	1.0	GoodResponse	1	0.179	609.39	9	64	Target	Win	True
610.39	0.3	Win2	0.6923	0.002	Yes	3.137	-0.002	1.0	GoodResponse	1	0.179	n/a	9	64	ButtonPress	Win	True
610.428	0.49	Win2	0.6923	n/a	Yes	3.137	n/a	n/a	GoodResponse	1	n/a	n/a	9	64	Blank	Win	True
610.911	1.45	Win2	0.6923	n/a	Yes	3.137	n/a	5.0	GoodResponse	1	0.327	610.238	9	64	Feedback	Win	True
612.36	3.137	Win2	0.6923	n/a	Yes	3.137	n/a	n/a	GoodResponse	1	0.0	n/a	9	64	ISIslide	Win	True
615.526	0.25	Control	0.6818000000000001	0.0	No	2.774	0.026	n/a	NoResponse	0	n/a	n/a	9	65	Cue	Neutral	True
615.776	4.0	Control	0.6818000000000001	0.0	No	2.774	0.0	n/a	NoResponse	0	n/a	n/a	9	65	Fixation	Neutral	True
619.774	0.2	Control	0.6818000000000001	0.002	No	2.774	-0.002	1.0	NoResponse	0	0.226	619.0	9	65	Target	Neutral	True
619.974	0.5	Control	0.6818000000000001	n/a	No	2.774	n/a	n/a	NoResponse	0	n/a	n/a	9	65	Blank	Neutral	True
620	0.3	Control	0.6818000000000001	0.002	No	2.774	-0.002	1.0	NoResponse	0	0.226	n/a	9	65	ButtonPress	Neutral	True
620.474	1.45	Control	0.6818000000000001	n/a	No	2.774	n/a	5.0	NoResponse	0	0.033	619.507	9	65	Feedback	Neutral	True
621.923	2.774	Control	0.6818000000000001	n/a	No	2.774	n/a	n/a	NoResponse	0	0.0	n/a	9	65	ISIslide	Neutral	True
624.723	0.25	Win2	0.6866	0.0	Yes	2.777	0.023	n/a	GoodResponse	1	n/a	n/a	10	66	Cue	Win	True
624.972	3.9	Win2	0.6866	0.001	Yes	2.777	-0.001	n/a	GoodResponse	1	n/a	n/a	10	66	Fixation	Win	True
628.871	0.19	Win2	0.6866	0.002	Yes	2.777	-0.002	1.0	GoodResponse	1	0.189	628.06	10	66	Target	Win	True
629.06	0.3	Win2	0.6866	0.002	Yes	2.777	-0.002	1.0	GoodResponse	1	0.189	n/a	10	66	ButtonPress	Win	True
629.071	0.51	Win2	0.6866	n/a	Yes	2.777	n/a	n/a	GoodResponse	1	n/a	n/a	10	66	Blank	Win	True
629.571	1.45	Win2	0.6866	n/a	Yes	2.777	n/a	5.0	GoodResponse	1	0.045	628.616	10	66	Feedback	Win	True
631.02	2.777	Win2	0.6866	n/a	Yes	2.777	n/a	n/a	GoodResponse	1	0.0	n/a	10	66	ISIslide	Win	True
633.819	0.25	Control	0.6765000000000001	0.0	No	2.731	0.019	n/a	NoResponse	0	n/a	n/a	10	67	Cue	Neutral	True
634.069	3.95	Control	0.6765000000000001	0.0	No	2.731	0.0	n/a	NoResponse	0	n/a	n/a	10	67	Fixation	Neutral	True
638.018	0.18	Control	0.6765000000000001	0.001	No	2.731	-0.001	1.0	NoResponse	0	0.202	637.22	10	67	Target	Neutral	True
638.201	0.52	Control	0.6765000000000001	n/a	No	2.731	n/a	n/a	NoResponse	0	n/a	n/a	10	67	Blank	Neutral	True
638.22	0.3	Control	0.6765000000000001	0.001	No	2.731	-0.001	1.0	NoResponse	0	0.202	n/a	10	67	ButtonPress	Neutral	True
638.717	1.45	Control	0.6765000000000001	n/a	No	2.731	n/a	5.0	NoResponse	0	0.069	637.786	10	67	Feedback	Neutral	True
640.167	2.731	Control	0.6765000000000001	n/a	No	2.731	n/a	n/a	NoResponse	0	0.0	n/a	10	67	ISIslide	Neutral	True
642.916	0.25	Win2	0.6667000000000001	0.0	No	3.084	0.016	n/a	NoResponse	0	n/a	n/a	10	68	Cue	MissedWin	True
643.166	4.0	Win2	0.6667000000000001	0.0	No	3.084	0.0	n/a	NoResponse	0	n/a	n/a	10	68	Fixation	MissedWin	True
647.164	0.17	Win2	0.6667000000000001	0.002	No	3.084	-0.002	1.0	NoResponse	0	0.233	646.397	10	68	Target	MissedWin	True
647.348	0.53	Win2	0.6667000000000001	n/a	No	3.084	n/a	n/a	NoResponse	0	n/a	n/a	10	68	Blank	MissedWin	True
647.397	0.3	Win2	0.6667000000000001	0.002	No	3.084	-0.002	1.0	NoResponse	0	0.233	n/a	10	68	ButtonPress	MissedWin	True
647.864	1.45	Win2	0.6667000000000001	n/a	No	3.084	n/a	5.0	NoResponse	0	0.093	646.957	10	68	Feedback	MissedWin	True
649.314	3.084	Win2	0.6667000000000001	n/a	No	3.084	n/a	n/a	NoResponse	0	0.0	n/a	10	68	ISIslide	MissedWin	True
652.413	0.25	Win2	0.6570999999999999	0.0	No	3.237	0.013	n/a	PrematurePress	0	n/a	n/a	10	69	Cue	MissedWin	True
652.662	3.95	Win2	0.6570999999999999	0.001	No	3.237	-0.001	n/a	PrematurePress	0	n/a	n/a	10	69	Fixation	MissedWin	True
656.611	0.16	Win2	0.6570999999999999	0.002	No	3.237	-0.002	1.0	PrematurePress	0	0.01	655.621	10	69	Target	MissedWin	True
656.621	0.3	Win2	0.6570999999999999	0.002	No	3.237	-0.002	1.0	PrematurePress	0	0.01	n/a	10	69	ButtonPress	MissedWin	True
656.778	0.54	Win2	0.6570999999999999	n/a	No	3.237	n/a	n/a	PrematurePress	0	n/a	n/a	10	69	Blank	MissedWin	True
657.311	1.45	Win2	0.6570999999999999	n/a	No	3.237	n/a	5.0	PrematurePress	0	0.119	656.43	10	69	Feedback	MissedWin	True
658.76	3.237	Win2	0.6570999999999999	n/a	No	3.237	n/a	n/a	PrematurePress	0	0.0	n/a	10	69	ISIslide	MissedWin	True
662.026	0.25	Lose2	0.6479	0.0	No	3.024	0.026	n/a	NoResponse	-1	n/a	n/a	9	70	Cue	Loss	True
662.276	4.05	Lose2	0.6479	0.0	No	3.024	0.0	n/a	NoResponse	-1	n/a	n/a	9	70	Fixation	Loss	True
666.324	0.16	Lose2	0.6479	0.002	No	3.024	-0.002	1.0	NoResponse	-1	0.23	665.554	9	70	Target	Loss	True
666.491	0.54	Lose2	0.6479	n/a	No	3.024	n/a	n/a	NoResponse	-1	n/a	n/a	9	70	Blank	Loss	True
666.554	0.3	Lose2	0.6479	0.002	No	3.024	-0.002	1.0	NoResponse	-1	0.23	n/a	9	70	ButtonPress	Loss	True
667.024	1.45	Lose2	0.6479	n/a	No	3.024	n/a	5.0	NoResponse	-1	0.017	666.041	9	70	Feedback	Loss	True
668.473	3.024	Lose2	0.6479	n/a	No	3.024	n/a	n/a	NoResponse	-1	0.0	n/a	9	70	ISIslide	Loss	True
671.522	0.25	Win2	0.6389	0.0	No	2.728	0.022	n/a	NoResponse	0	n/a	n/a	9	71	Cue	MissedWin	True
671.772	4.05	Win2	0.6389	0.0	No	2.728	0.0	n/a	NoResponse	0	n/a	n/a	9	71	Fixation	MissedWin	True
675.821	0.17	Win2	0.6389	0.001	No	2.728	-0.001	1.0	NoResponse	0	0.207	675.028	9	71	Target	MissedWin	True
675.987	0.53	Win2	0.6389	n/a	No	2.728	n/a	n/a	NoResponse	0	n/a	n/a	9	71	Blank	MissedWin	True
676.028	0.3	Win2	0.6389	0.001	No	2.728	-0.001	1.0	NoResponse	0	0.207	n/a	9	71	ButtonPress	MissedWin	True
676.521	1.45	Win2	0.6389	n/a	No	2.728	n/a	5.0	NoResponse	0	0.412	675.933	9	71	Feedback	MissedWin	True
677.97	2.728	Win2	0.6389	n/a	No	2.728	n/a	n/a	NoResponse	0	0.0	n/a	9	71	ISIslide	MissedWin	True
680.719	0.25	Win2	0.6301	0.0	No	2.781	0.019	n/a	NoResponse	0	n/a	n/a	9	72	Cue	MissedWin	True
680.969	4.1	Win2	0.6301	0.0	No	2.781	0.0	n/a	NoResponse	0	n/a	n/a	9	72	Fixation	MissedWin	True
685.067	0.18	Win2	0.6301	0.002	No	2.781	-0.002	1.0	NoResponse	0	0.224	684.291	9	72	Target	MissedWin	True
685.251	0.52	Win2	0.6301	n/a	No	2.781	n/a	n/a	NoResponse	0	n/a	n/a	9	72	Blank	MissedWin	True
685.291	0.3	Win2	0.6301	0.002	No	2.781	-0.002	1.0	NoResponse	0	0.224	n/a	9	72	ButtonPress	MissedWin	True
685.767	1.45	Win2	0.6301	n/a	No	2.781	n/a	5.0	NoResponse	0	0.055	684.822	9	72	Feedback	MissedWin	True
687.217	2.781	Win2	0.6301	n/a	No	2.781	n/a	n/a	NoResponse	0	0.0	n/a	9	72	ISIslide	MissedWin	True
690.016	0.25	Win2	0.6215999999999999	0.0	No	2.684	0.016	n/a	NoResponse	0	n/a	n/a	9	73	Cue	MissedWin	True
690.266	4.0	Win2	0.6215999999999999	0.0	No	2.684	0.0	n/a	NoResponse	0	n/a	n/a	9	73	Fixation	MissedWin	True
694.264	0.19	Win2	0.6215999999999999	0.002	No	2.684	-0.002	1.0	NoResponse	0	0.201	693.465	9	73	Target	MissedWin	True
694.464	0.51	Win2	0.6215999999999999	n/a	No	2.684	n/a	n/a	NoResponse	0	n/a	n/a	9	73	Blank	MissedWin	True
694.465	0.3	Win2	0.6215999999999999	0.002	No	2.684	-0.002	1.0	NoResponse	0	0.201	n/a	9	73	ButtonPress	MissedWin	True
694.964	1.45	Win2	0.6215999999999999	n/a	No	2.684	n/a	5.0	NoResponse	0	0.408	694.372	9	73	Feedback	MissedWin	True
696.413	2.684	Win2	0.6215999999999999	n/a	No	2.684	n/a	n/a	NoResponse	0	0.0	n/a	9	73	ISIslide	MissedWin	True
699.129	0.25	Lose2	0.6133	0.0	No	2.621	0.029	n/a	NoResponse	-1	n/a	n/a	8	74	Cue	Loss	True
699.379	4.05	Lose2	0.6133	0.0	No	2.621	0.0	n/a	NoResponse	-1	n/a	n/a	8	74	Fixation	Loss	True
703.428	0.2	Lose2	0.6133	0.001	No	2.621	-0.001	1.0	NoResponse	-1	0.216	702.644	8	74	Target	Loss	True
703.627	0.5	Lose2	0.6133	n/a	No	2.621	n/a	n/a	NoResponse	-1	n/a	n/a	8	74	Blank	Loss	True
703.644	0.3	Lose2	0.6133	0.001	No	2.621	-0.001	1.0	NoResponse	-1	0.216	n/a	8	74	ButtonPress	Loss	True
704.127	1.45	Lose2	0.6133	n/a	No	2.621	n/a	5.0	NoResponse	-1	0.335	703.462	8	74	Feedback	Loss	True
705.577	2.621	Lose2	0.6133	n/a	No	2.621	n/a	n/a	NoResponse	-1	0.0	n/a	8	74	ISIslide	Loss	True
708.226	0.25	Lose2	0.6184000000000001	0.0	Yes	2.924	0.026	n/a	GoodResponse	0	n/a	n/a	8	75	Cue	AvoidedLoss	True
708.476	3.95	Lose2	0.6184000000000001	0.0	Yes	2.924	0.0	n/a	GoodResponse	0	n/a	n/a	8	75	Fixation	AvoidedLoss	True
712.424	0.21	Lose2	0.6184000000000001	0.002	Yes	2.924	-0.002	1.0	GoodResponse	0	0.15	711.574	8	75	Target	AvoidedLoss	True
712.574	0.3	Lose2	0.6184000000000001	0.002	Yes	2.924	-0.002	1.0	GoodResponse	0	0.15	n/a	8	75	ButtonPress	AvoidedLoss	True
712.641	0.49	Lose2	0.6184000000000001	n/a	Yes	2.924	n/a	n/a	GoodResponse	0	n/a	n/a	8	75	Blank	AvoidedLoss	True
713.124	1.45	Lose2	0.6184000000000001	n/a	Yes	2.924	n/a	5.0	GoodResponse	0	0.007	712.131	8	75	Feedback	AvoidedLoss	True
714.574	2.924	Lose2	0.6184000000000001	n/a	Yes	2.924	n/a	n/a	GoodResponse	0	0.0	n/a	8	75	ISIslide	AvoidedLoss	True
717.522	0.25	Control	0.6103999999999999	0.001	No	3.228	0.022	n/a	NoResponse	0	n/a	n/a	8	76	Cue	Neutral	True
717.772	4.05	Control	0.6103999999999999	0.0	No	3.228	0.0	n/a	NoResponse	0	n/a	n/a	8	76	Fixation	Neutral	True
721.821	0.22	Control	0.6103999999999999	0.001	No	3.228	-0.001	1.0	NoResponse	0	0.242	721.063	8	76	Target	Neutral	True
722.038	0.48	Control	0.6103999999999999	n/a	No	3.228	n/a	n/a	NoResponse	0	n/a	n/a	8	76	Blank	Neutral	True
722.063	0.3	Control	0.6103999999999999	0.001	No	3.228	-0.001	1.0	NoResponse	0	0.242	n/a	8	76	ButtonPress	Neutral	True
722.521	1.45	Control	0.6103999999999999	n/a	No	3.228	n/a	5.0	NoResponse	0	0.541	722.062	8	76	Feedback	Neutral	True
723.97	3.228	Control	0.6103999999999999	n/a	No	3.228	n/a	n/a	NoResponse	0	0.0	n/a	8	76	ISIslide	Neutral	True
727.219	0.25	Lose2	0.6154	0.0	Yes	2.581	0.019	n/a	GoodResponse	0	n/a	n/a	8	77	Cue	AvoidedLoss	True
727.469	3.95	Lose2	0.6154	0.0	Yes	2.581	0.0	n/a	GoodResponse	0	n/a	n/a	8	77	Fixation	AvoidedLoss	True
731.418	0.23	Lose2	0.6154	0.001	Yes	2.581	-0.001	1.0	GoodResponse	0	0.168	730.586	8	77	Target	AvoidedLoss	True
731.586	0.3	Lose2	0.6154	0.001	Yes	2.581	-0.001	1.0	GoodResponse	0	0.168	n/a	8	77	ButtonPress	AvoidedLoss	True
731.651	0.47	Lose2	0.6154	n/a	Yes	2.581	n/a	n/a	GoodResponse	0	n/a	n/a	8	77	Blank	AvoidedLoss	True
732.117	1.45	Lose2	0.6154	n/a	Yes	2.581	n/a	5.0	GoodResponse	0	0.191	731.308	8	77	Feedback	AvoidedLoss	True
733.567	2.581	Lose2	0.6154	n/a	Yes	2.581	n/a	n/a	GoodResponse	0	0.0	n/a	8	77	ISIslide	AvoidedLoss	True
