onset	duration	cue_type	current_mean_accuracy	duration_error	is_hit	isi_adjusted	onset_delay	response	response_type	reward	rt	rt_time	total_reward	trial_number	trial_phase	trial_type	one_press
11.101	0.25	Control	1.0	0.001	Yes	2.949	0.001	n/a	GoodResponse	0	n/a	n/a	0	0	Cue	Neutral	True
11.351	3.85	Control	1.0	0.001	Yes	2.949	0.0	n/a	GoodResponse	0	n/a	n/a	0	0	Fixation	Neutral	True
15.2	0.4	Control	1.0	0.001	Yes	2.949	-0.001	3.0	GoodResponse	0	0.251	14.451	0	0	Target	Neutral	True
15.451	0.3	Control	1.0	0.001	Yes	2.949	-0.001	3.0	GoodResponse	0	0.251	n/a	0	0	ButtonPress	Neutral	True
15.6	0.3	Control	1.0	n/a	Yes	2.949	n/a	n/a	GoodResponse	0	n/a	n/a	0	0	Blank	Neutral	True
15.9	1.45	Control	1.0	n/a	Yes	2.949	n/a	5.0	GoodResponse	0	0.028	14.928	0	0	Feedback	Neutral	True
17.349	2.949	Control	1.0	n/a	Yes	2.949	n/a	n/a	GoodResponse	0	0.0	n/a	0	0	ISIslide	Neutral	True
20.315	0.25	Lose2	1.0	0.0	Yes	2.785	0.015	n/a	GoodResponse	0	n/a	n/a	0	1	Cue	AvoidedLoss	True
20.565	4.0	Lose2	1.0	0.0	Yes	2.785	0.0	n/a	GoodResponse	0	n/a	n/a	0	1	Fixation	AvoidedLoss	True
24.563	0.39	Lose2	1.0	0.002	Yes	2.785	-0.002	3.0	GoodResponse	0	0.209	23.772	0	1	Target	AvoidedLoss	True
24.772	0.3	Lose2	1.0	0.002	Yes	2.785	-0.002	3.0	GoodResponse	0	0.209	n/a	0	1	ButtonPress	AvoidedLoss	True
24.963	0.31	Lose2	1.0	n/a	Yes	2.785	n/a	n/a	GoodResponse	0	n/a	n/a	0	1	Blank	AvoidedLoss	True
25.263	1.45	Lose2	1.0	n/a	Yes	2.785	n/a	5.0	GoodResponse	0	0.523	24.786	0	1	Feedback	AvoidedLoss	True
26.713	2.785	Lose2	1.0	n/a	Yes	2.785	n/a	n/a	GoodResponse	0	0.0	n/a	0	1	ISIslide	AvoidedLoss	True
29.528	0.25	Control	1.0	0.0	Yes	2.572	0.028	n/a	GoodResponse	0	n/a	n/a	0	2	Cue	Neutral	True
29.778	4.1	Control	1.0	0.0	Yes	2.572	0.0	n/a	GoodResponse	0	n/a	n/a	0	2	Fixation	Neutral	True
33.877	0.38	Control	1.0	0.001	Yes	2.572	-0.001	3.0	GoodResponse	0	0.263	33.14	0	2	Target	Neutral	True
34.14	0.3	Control	1.0	0.001	Yes	2.572	-0.001	3.0	GoodResponse	0	0.263	n/a	0	2	ButtonPress	Neutral	True
34.26	0.32	Control	1.0	n/a	Yes	2.572	n/a	n/a	GoodResponse	0	n/a	n/a	0	2	Blank	Neutral	True
34.576	1.45	Control	1.0	n/a	Yes	2.572	n/a	5.0	GoodResponse	0	0.281	33.857	0	2	Feedback	Neutral	True
36.026	2.572	Control	1.0	n/a	Yes	2.572	n/a	n/a	GoodResponse	0	0.0	n/a	0	2	ISIslide	Neutral	True
38.625	0.25	Win2	1.0	0.0	Yes	2.825	0.025	n/a	GoodResponse	1	n/a	n/a	1	3	Cue	Win	True
38.875	3.95	Win2	1.0	0.0	Yes	2.825	0.0	n/a	GoodResponse	1	n/a	n/a	1	3	Fixation	Win	True
42.823	0.37	Win2	1.0	0.002	Yes	2.825	-0.002	3.0	GoodResponse	1	0.237	42.06	1	3	Target	Win	True
43.06	0.3	Win2	1.0	0.002	Yes	2.825	-0.002	3.0	GoodResponse	1	0.237	n/a	1	3	ButtonPress	Win	True
43.207	0.33	Win2	1.0	n/a	Yes	2.825	n/a	n/a	GoodResponse	1	n/a	n/a	1	3	Blank	Win	True
43.523	1.45	Win2	1.0	n/a	Yes	2.825	n/a	5.0	GoodResponse	1	0.007	42.53	1	3	Feedback	Win	True
44.973	2.825	Win2	1.0	n/a	Yes	2.825	n/a	n/a	GoodResponse	1	0.0	n/a	1	3	ISIslide	Win	True
47.822	0.25	Win2	1.0	0.0	Yes	3.278	0.022	n/a	GoodResponse	1	n/a	n/a	2	4	Cue	Win	True
48.072	4.0	Win2	1.0	0.0	Yes	3.278	0.0	n/a	GoodResponse	1	n/a	n/a	2	4	Fixation	Win	True
52.07	0.36	Win2	1.0	0.002	Yes	3.278	-0.002	3.0	GoodResponse	1	0.258	51.328	2	4	Target	Win	True
52.328	0.3	Win2	1.0	0.002	Yes	3.278	-0.002	3.0	GoodResponse	1	0.258	n/a	2	4	ButtonPress	Win	True
52.437	0.34	Win2	1.0	n/a	Yes	3.278	n/a	n/a	GoodResponse	1	n/a	n/a	2	4	Blank	Win	True
52.77	1.45	Win2	1.0	n/a	Yes	3.278	n/a	5.0	GoodResponse	1	0.329	52.099	2	4	Feedback	Win	True
54.219	3.278	Win2	1.0	n/a	Yes	3.278	n/a	n/a	GoodResponse	1	0.0	n/a	2	4	ISIslide	Win	True
57.518	0.25	Win2	1.0	0.0	Yes	2.782	0.018	n/a	GoodResponse	1	n/a	n/a	3	5	Cue	Win	True
57.768	4.0	Win2	1.0	0.0	Yes	2.782	0.0	n/a	GoodResponse	1	n/a	n/a	3	5	Fixation	Win	True
61.767	0.35	Win2	1.0	0.001	Yes	2.782	-0.001	3.0	GoodResponse	1	0.247	61.014	3	5	Target	Win	True
62.014	0.3	Win2	1.0	0.001	Yes	2.782	-0.001	3.0	GoodResponse	1	0.247	n/a	3	5	ButtonPress	Win	True
62.117	0.35	Win2	1.0	n/a	Yes	2.782	n/a	n/a	GoodResponse	1	n/a	n/a	3	5	Blank	Win	True
62.466	1.45	Win2	1.0	n/a	Yes	2.782	n/a	5.0	GoodResponse	1	0.007	61.473	3	5	Feedback	Win	True
63.916	2.782	Win2	1.0	n/a	Yes	2.782	n/a	n/a	GoodResponse	1	0.0	n/a	3	5	ISIslide	Win	True
66.715	0.25	Lose2	1.0	0.0	Yes	2.735	0.015	n/a	GoodResponse	0	n/a	n/a	3	6	Cue	AvoidedLoss	True
66.965	3.95	Lose2	1.0	0.0	Yes	2.735	0.0	n/a	GoodResponse	0	n/a	n/a	3	6	Fixation	AvoidedLoss	True
70.913	0.34	Lose2	1.0	0.002	Yes	2.735	-0.002	3.0	GoodResponse	0	0.227	70.14	3	6	Target	AvoidedLoss	True
71.14	0.3	Lose2	1.0	0.002	Yes	2.735	-0.002	3.0	GoodResponse	0	0.227	n/a	3	6	ButtonPress	AvoidedLoss	True
71.263	0.36	Lose2	1.0	n/a	Yes	2.735	n/a	n/a	GoodResponse	0	n/a	n/a	3	6	Blank	AvoidedLoss	True
71.613	1.45	Lose2	1.0	n/a	Yes	2.735	n/a	5.0	GoodResponse	0	0.011	70.624	3	6	Feedback	AvoidedLoss	True
73.063	2.735	Lose2	1.0	n/a	Yes	2.735	n/a	n/a	GoodResponse	0	0.0	n/a	3	6	ISIslide	AvoidedLoss	True
75.828	0.25	Lose2	1.0	0.0	Yes	4.022	0.028	n/a	GoodResponse	0	n/a	n/a	3	7	Cue	AvoidedLoss	True
76.078	4.05	Lose2	1.0	0.0	Yes	4.022	0.0	n/a	GoodResponse	0	n/a	n/a	3	7	Fixation	AvoidedLoss	True
80.127	0.33	Lose2	1.0	0.001	Yes	4.022	-0.001	3.0	GoodResponse	0	0.228	79.355	3	7	Target	AvoidedLoss	True
80.355	0.3	Lose2	1.0	0.001	Yes	4.022	-0.001	3.0	GoodResponse	0	0.228	n/a	3	7	ButtonPress	AvoidedLoss	True
80.46	0.37	Lose2	1.0	n/a	Yes	4.022	n/a	n/a	GoodResponse	0	n/a	n/a	3	7	Blank	AvoidedLoss	True
80.826	1.45	Lose2	1.0	n/a	Yes	4.022	n/a	5.0	GoodResponse	0	0.568	80.394	3	7	Feedback	AvoidedLoss	True
82.276	4.022	Lose2	1.0	n/a	Yes	4.022	n/a	n/a	GoodResponse	0	0.0	n/a	3	7	ISIslide	AvoidedLoss	True
86.324	0.25	Lose2	1.0	0.001	Yes	3.026	0.024	n/a	GoodResponse	0	n/a	n/a	3	8	Cue	AvoidedLoss	True
86.574	3.95	Lose2	1.0	0.0	Yes	3.026	0.0	n/a	GoodResponse	0	n/a	n/a	3	8	Fixation	AvoidedLoss	True
90.523	0.32	Lose2	1.0	0.001	Yes	3.026	-0.001	3.0	GoodResponse	0	0.242	89.765	3	8	Target	AvoidedLoss	True
90.765	0.3	Lose2	1.0	0.001	Yes	3.026	-0.001	3.0	GoodResponse	0	0.242	n/a	3	8	ButtonPress	AvoidedLoss	True
90.84	0.38	Lose2	1.0	n/a	Yes	3.026	n/a	n/a	GoodResponse	0	n/a	n/a	3	8	Blank	AvoidedLoss	True
91.223	1.45	Lose2	1.0	n/a	Yes	3.026	n/a	5.0	GoodResponse	0	0.123	90.346	3	8	Feedback	AvoidedLoss	True
92.672	3.026	Lose2	1.0	n/a	Yes	3.026	n/a	n/a	GoodResponse	0	0.0	n/a	3	8	ISIslide	AvoidedLoss	True
95.721	0.25	Lose2	0.9	0.0	No	3.129	0.021	n/a	NoResponse	-1	n/a	n/a	2	9	Cue	Loss	True
95.971	3.95	Lose2	0.9	0.0	No	3.129	0.0	n/a	NoResponse	-1	n/a	n/a	2	9	Fixation	Loss	True
99.92	0.31	Lose2	0.9	0.001	No	3.129	-0.001	3.0	NoResponse	-1	0.324	99.244	2	9	Target	Loss	True
100.236	0.39	Lose2	0.9	n/a	No	3.129	n/a	n/a	NoResponse	-1	n/a	n/a	2	9	Blank	Loss	True
100.244	0.3	Lose2	0.9	0.001	No	3.129	-0.001	3.0	NoResponse	-1	0.324	n/a	2	9	ButtonPress	Loss	True
100.619	1.45	Lose2	0.9	n/a	No	3.129	n/a	5.0	NoResponse	-1	0.056	99.675	2	9	Feedback	Loss	True
102.069	3.129	Lose2	0.9	n/a	No	3.129	n/a	n/a	NoResponse	-1	0.0	n/a	2	9	ISIslide	Loss	True
105.218	0.25	Control	0.9091	0.0	Yes	3.282	0.018	n/a	GoodResponse	0	n/a	n/a	2	10	Cue	Neutral	True
105.468	4.0	Control	0.9091	0.0	Yes	3.282	0.0	n/a	GoodResponse	0	n/a	n/a	2	10	Fixation	Neutral	True
109.466	0.3	Control	0.9091	0.002	Yes	3.282	-0.002	3.0	GoodResponse	0	0.232	108.698	2	10	Target	Neutral	True
109.698	0.3	Control	0.9091	0.002	Yes	3.282	-0.002	3.0	GoodResponse	0	0.232	n/a	2	10	ButtonPress	Neutral	True
109.766	0.4	Control	0.9091	n/a	Yes	3.282	n/a	n/a	GoodResponse	0	n/a	n/a	2	10	Blank	Neutral	True
110.166	1.45	Control	0.9091	n/a	Yes	3.282	n/a	5.0	GoodResponse	0	0.301	109.467	2	10	Feedback	Neutral	True
111.615	3.282	Control	0.9091	n/a	Yes	3.282	n/a	n/a	GoodResponse	0	0.0	n/a	2	10	ISIslide	Neutral	True
114.914	0.25	Lose2	0.9167000000000001	0.0	Yes	2.736	0.014	n/a	GoodResponse	0	n/a	n/a	2	11	Cue	AvoidedLoss	True
115.164	4.05	Lose2	0.9167000000000001	0.0	Yes	2.736	0.0	n/a	GoodResponse	0	n/a	n/a	2	11	Fixation	AvoidedLoss	True
119.213	0.29	Lose2	0.9167000000000001	0.001	Yes	2.736	-0.001	3.0	GoodResponse	0	0.205	118.418	2	11	Target	AvoidedLoss	True
119.418	0.3	Lose2	0.9167000000000001	0.001	Yes	2.736	-0.001	3.0	GoodResponse	0	0.205	n/a	2	11	ButtonPress	AvoidedLoss	True
119.513	0.41	Lose2	0.9167000000000001	n/a	Yes	2.736	n/a	n/a	GoodResponse	0	n/a	n/a	2	11	Blank	AvoidedLoss	True
119.912	1.45	Lose2	0.9167000000000001	n/a	Yes	2.736	n/a	5.0	GoodResponse	0	0.026	118.938	2	11	Feedback	AvoidedLoss	True
121.362	2.736	Lose2	0.9167000000000001	n/a	Yes	2.736	n/a	n/a	GoodResponse	0	0.0	n/a	2	11	ISIslide	AvoidedLoss	True
124.128	0.25	Control	0.9231	0.0	Yes	2.972	0.028	n/a	GoodResponse	0	n/a	n/a	2	12	Cue	Neutral	True
124.377	3.9	Control	0.9231	0.001	Yes	2.972	-0.001	n/a	GoodResponse	0	n/a	n/a	2	12	Fixation	Neutral	True
128.276	0.28	Control	0.9231	0.002	Yes	2.972	-0.002	3.0	GoodResponse	0	0.221	127.497	2	12	Target	Neutral	True
128.497	0.3	Control	0.9231	0.002	Yes	2.972	-0.002	3.0	GoodResponse	0	0.221	n/a	2	12	ButtonPress	Neutral	True
128.559	0.42	Control	0.9231	n/a	Yes	2.972	n/a	n/a	GoodResponse	0	n/a	n/a	2	12	Blank	Neutral	True
128.976	1.45	Control	0.9231	n/a	Yes	2.972	n/a	5.0	GoodResponse	0	0.011	127.987	2	12	Feedback	Neutral	True
130.425	2.972	Control	0.9231	n/a	Yes	2.972	n/a	n/a	GoodResponse	0	0.0	n/a	2	12	ISIslide	Neutral	True
133.424	0.25	Control	0.9286	0.0	Yes	2.776	0.024	n/a	GoodResponse	0	n/a	n/a	2	13	Cue	Neutral	True
133.674	4.0	Control	0.9286	0.0	Yes	2.776	0.0	n/a	GoodResponse	0	n/a	n/a	2	13	Fixation	Neutral	True
137.673	0.27	Control	0.9286	0.001	Yes	2.776	-0.001	3.0	GoodResponse	0	0.233	136.906	2	13	Target	Neutral	True
137.906	0.3	Control	0.9286	0.001	Yes	2.776	-0.001	3.0	GoodResponse	0	0.233	n/a	2	13	ButtonPress	Neutral	True
137.956	0.43	Control	0.9286	n/a	Yes	2.776	n/a	n/a	GoodResponse	0	n/a	n/a	2	13	Blank	Neutral	True
138.372	1.45	Control	0.9286	n/a	Yes	2.776	n/a	5.0	GoodResponse	0	0.388	137.76	2	13	Feedback	Neutral	True
139.822	2.776	Control	0.9286	n/a	Yes	2.776	n/a	n/a	GoodResponse	0	0.0	n/a	2	13	ISIslide	Neutral	True
142.621	0.25	Win2	0.9333	0.0	Yes	2.679	0.021	n/a	GoodResponse	1	n/a	n/a	3	14	Cue	Win	True
142.871	4.1	Win2	0.9333	0.0	Yes	2.679	0.0	n/a	GoodResponse	1	n/a	n/a	3	14	Fixation	Win	True
146.969	0.26	Win2	0.9333	0.002	Yes	2.679	-0.002	3.0	GoodResponse	1	0.212	146.181	3	14	Target	Win	True
147.181	0.3	Win2	0.9333	0.002	Yes	2.679	-0.002	3.0	GoodResponse	1	0.212	n/a	3	14	ButtonPress	Win	True
147.236	0.44	Win2	0.9333	n/a	Yes	2.679	n/a	n/a	GoodResponse	1	n/a	n/a	3	14	Blank	Win	True
147.669	1.45	Win2	0.9333	n/a	Yes	2.679	n/a	5.0	GoodResponse	1	0.162	146.831	3	14	Feedback	Win	True
149.119	2.679	Win2	0.9333	n/a	Yes	2.679	n/a	n/a	GoodResponse	1	0.0	n/a	3	14	ISIslide	Win	True
151.818	0.25	Control	0.875	0.0	No	2.982	0.018	n/a	NoResponse	0	n/a	n/a	3	15	Cue	Neutral	True
152.068	4.0	Control	0.875	0.0	No	2.982	0.0	n/a	NoResponse	0	n/a	n/a	3	15	Fixation	Neutral	True
156.066	0.25	Control	0.875	0.002	No	2.982	-0.002	3.0	NoResponse	0	0.299	155.365	3	15	Target	Neutral	True
156.316	0.45	Control	0.875	n/a	No	2.982	n/a	n/a	NoResponse	0	n/a	n/a	3	15	Blank	Neutral	True
156.365	0.3	Control	0.875	0.002	No	2.982	-0.002	3.0	NoResponse	0	0.299	n/a	3	15	ButtonPress	Neutral	True
156.766	1.45	Control	0.875	n/a	No	2.982	n/a	5.0	NoResponse	0	0.296	156.062	3	15	Feedback	Neutral	True
158.215	2.982	Control	0.875	n/a	No	2.982	n/a	n/a	NoResponse	0	0.0	n/a	3	15	ISIslide	Neutral	True
161.214	0.25	Win2	0.8824	0.0	Yes	2.886	0.014	n/a	GoodResponse	1	n/a	n/a	4	16	Cue	Win	True
161.464	4.0	Win2	0.8824	0.0	Yes	2.886	0.0	n/a	GoodResponse	1	n/a	n/a	4	16	Fixation	Win	True
165.463	0.24	Win2	0.8824	0.001	Yes	2.886	-0.001	3.0	GoodResponse	1	0.217	164.68	4	16	Target	Win	True
165.68	0.3	Win2	0.8824	0.001	Yes	2.886	-0.001	3.0	GoodResponse	1	0.217	n/a	4	16	ButtonPress	Win	True
165.713	0.46	Win2	0.8824	n/a	Yes	2.886	n/a	n/a	GoodResponse	1	n/a	n/a	4	16	Blank	Win	True
166.162	1.45	Win2	0.8824	n/a	Yes	2.886	n/a	5.0	GoodResponse	1	0.089	165.251	4	16	Feedback	Win	True
167.612	2.886	Win2	0.8824	n/a	Yes	2.886	n/a	n/a	GoodResponse	1	0.0	n/a	4	16	ISIslide	Win	True
170.528	0.25	Lose2	0.8889	0.0	Yes	2.722	0.028	n/a	GoodResponse	0	n/a	n/a	4	17	Cue	AvoidedLoss	True
170.777	3.95	Lose2	0.8889	0.001	Yes	2.722	-0.001	n/a	GoodResponse	0	n/a	n/a	4	17	Fixation	AvoidedLoss	True
174.726	0.23	Lose2	0.8889	0.002	Yes	2.722	-0.002	3.0	GoodResponse	0	0.215	173.941	4	17	Target	AvoidedLoss	True
174.941	0.3	Lose2	0.8889	0.002	Yes	2.722	-0.002	3.0	GoodResponse	0	0.215	n/a	4	17	ButtonPress	AvoidedLoss	True
174.959	0.47	Lose2	0.8889	n/a	Yes	2.722	n/a	n/a	GoodResponse	0	n/a	n/a	4	17	Blank	AvoidedLoss	True
175.426	1.45	Lose2	0.8889	n/a	Yes	2.722	n/a	5.0	GoodResponse	0	0.175	174.601	4	17	Feedback	AvoidedLoss	True
176.875	2.722	Lose2	0.8889	n/a	Yes	2.722	n/a	n/a	GoodResponse	0	0.0	n/a	4	17	ISIslide	AvoidedLoss	True
179.624	0.25	Lose2	0.8421	0.0	No	2.726	0.024	n/a	NoResponse	-1	n/a	n/a	3	18	Cue	Loss	True
179.874	4.05	Lose2	0.8421	0.0	No	2.726	0.0	n/a	NoResponse	-1	n/a	n/a	3	18	Fixation	Loss	True
183.923	0.22	Lose2	0.8421	0.001	No	2.726	-0.001	3.0	NoResponse	-1	0.256	183.179	3	18	Target	Loss	True
184.139	0.48	Lose2	0.8421	n/a	No	2.726	n/a	n/a	NoResponse	-1	n/a	n/a	3	18	Blank	Loss	True
184.179	0.3	Lose2	0.8421	0.001	No	2.726	-0.001	3.0	NoResponse	-1	0.256	n/a	3	18	ButtonPress	Loss	True
184.623	1.45	Lose2	0.8421	n/a	No	2.726	n/a	5.0	NoResponse	-1	0.146	183.769	3	18	Feedback	Loss	True
186.072	2.726	Lose2	0.8421	n/a	No	2.726	n/a	n/a	NoResponse	-1	0.0	n/a	3	18	ISIslide	Loss	True
188.821	0.25	Control	0.85	0.0	Yes	2.929	0.021	n/a	GoodResponse	0	n/a	n/a	3	19	Cue	Neutral	True
189.071	3.95	Control	0.85	0.0	Yes	2.929	0.0	n/a	GoodResponse	0	n/a	n/a	3	19	Fixation	Neutral	True
193.019	0.21	Control	0.85	0.002	Yes	2.929	-0.002	3.0	GoodResponse	0	0.209	192.228	3	19	Target	Neutral	True
193.228	0.3	Control	0.85	0.002	Yes	2.929	-0.002	3.0	GoodResponse	0	0.209	n/a	3	19	ButtonPress	Neutral	True
193.236	0.49	Control	0.85	n/a	Yes	2.929	n/a	n/a	GoodResponse	0	n/a	n/a	3	19	Blank	Neutral	True
193.719	1.45	Control	0.85	n/a	Yes	2.929	n/a	5.0	GoodResponse	0	0.117	192.836	3	19	Feedback	Neutral	True
195.169	2.929	Control	0.85	n/a	Yes	2.929	n/a	n/a	GoodResponse	0	0.0	n/a	3	19	ISIslide	Neutral	True
198.118	0.25	Control	0.8095	0.0	No	2.632	0.018	n/a	NoResponse	0	n/a	n/a	3	20	Cue	Neutral	True
198.368	4.05	Control	0.8095	0.0	No	2.632	0.0	n/a	NoResponse	0	n/a	n/a	3	20	Fixation	Neutral	True
202.416	0.2	Control	0.8095	0.002	No	2.632	-0.002	3.0	NoResponse	0	0.245	201.661	3	20	Target	Neutral	True
202.616	0.5	Control	0.8095	n/a	No	2.632	n/a	n/a	NoResponse	0	n/a	n/a	3	20	Blank	Neutral	True
202.661	0.3	Control	0.8095	0.002	No	2.632	-0.002	3.0	NoResponse	0	0.245	n/a	3	20	ButtonPress	Neutral	True
203.116	1.45	Control	0.8095	n/a	No	2.632	n/a	5.0	NoResponse	0	0.289	202.405	3	20	Feedback	Neutral	True
204.565	2.632	Control	0.8095	n/a	No	2.632	n/a	n/a	NoResponse	0	0.0	n/a	3	20	ISIslide	Neutral	True
207.214	0.25	Control	0.7726999999999999	0.0	No	2.786	0.014	n/a	NoResponse	0	n/a	n/a	3	21	Cue	Neutral	True
207.464	4.1	Control	0.7726999999999999	0.0	No	2.786	0.0	n/a	NoResponse	0	n/a	n/a	3	21	Fixation	Neutral	True
211.563	0.19	Control	0.7726999999999999	0.001	No	2.786	-0.001	3.0	NoResponse	0	0.237	210.8	3	21	Target	Neutral	True
211.763	0.51	Control	0.7726999999999999	n/a	No	2.786	n/a	n/a	NoResponse	0	n/a	n/a	3	21	Blank	Neutral	True
211.8	0.3	Control	0.7726999999999999	0.001	No	2.786	-0.001	3.0	NoResponse	0	0.237	n/a	3	21	ButtonPress	Neutral	True
212.263	1.45	Control	0.7726999999999999	n/a	No	2.786	n/a	5.0	NoResponse	0	0.348	211.611	3	21	Feedback	Neutral	True
213.712	2.786	Control	0.7726999999999999	n/a	No	2.786	n/a	n/a	NoResponse	0	0.0	n/a	3	21	ISIslide	Neutral	True
216.528	0.25	Control	0.7391	0.0	No	2.772	0.028	n/a	NoResponse	0	n/a	n/a	3	22	Cue	Neutral	True
216.778	4.0	Control	0.7391	0.0	No	2.772	0.0	3.0	NoResponse	0	3.967	219.745	3	22	Fixation	Neutral	True
220.745	0.3	Control	0.7391	0.0	No	2.772	0.0	3.0	NoResponse	0	3.967	n/a	3	22	ButtonPress	Neutral	True
220.776	0.18	Control	0.7391	0.002	No	2.772	-0.002	n/a	NoResponse	0	n/a	n/a	3	22	Target	Neutral	True
220.959	0.52	Control	0.7391	n/a	No	2.772	n/a	n/a	NoResponse	0	n/a	n/a	3	22	Blank	Neutral	True
221.476	1.45	Control	0.7391	n/a	No	2.772	n/a	5.0	NoResponse	0	0.464	220.94	3	22	Feedback	Neutral	True
222.925	2.772	Control	0.7391	n/a	No	2.772	n/a	n/a	NoResponse	0	0.0	n/a	3	22	ISIslide	Neutral	True
225.724	0.25	Control	0.7082999999999999	0.0	No	2.776	0.024	n/a	NoResponse	0	n/a	n/a	3	23	Cue	Neutral	True
225.974	3.9	Control	0.7082999999999999	0.0	No	2.776	0.0	n/a	NoResponse	0	n/a	n/a	3	23	Fixation	Neutral	True
229.873	0.17	Control	0.7082999999999999	0.001	No	2.776	-0.001	3.0	NoResponse	0	0.228	229.101	3	23	Target	Neutral	True
230.04	0.53	Control	0.7082999999999999	n/a	No	2.776	n/a	n/a	NoResponse	0	n/a	n/a	3	23	Blank	Neutral	True
230.101	0.3	Control	0.7082999999999999	0.001	No	2.776	-0.001	3.0	NoResponse	0	0.228	n/a	3	23	ButtonPress	Neutral	True
230.573	1.45	Control	0.7082999999999999	n/a	No	2.776	n/a	5.0	NoResponse	0	0.096	229.669	3	23	Feedback	Neutral	True
232.022	2.776	Control	0.7082999999999999	n/a	No	2.776	n/a	n/a	NoResponse	0	0.0	n/a	3	23	ISIslide	Neutral	True
234.821	0.25	Win2	0.68	0.0	No	3.129	0.021	n/a	NoResponse	0	n/a	n/a	3	24	Cue	MissedWin	True
235.071	3.95	Win2	0.68	0.0	No	3.129	0.0	n/a	NoResponse	0	n/a	n/a	3	24	Fixation	MissedWin	True
239.02	0.16	Win2	0.68	0.001	No	3.129	-0.001	3.0	NoResponse	0	0.209	238.229	3	24	Target	MissedWin	True
239.186	0.54	Win2	0.68	n/a	No	3.129	n/a	n/a	NoResponse	0	n/a	n/a	3	24	Blank	MissedWin	True
239.229	0.3	Win2	0.68	0.001	No	3.129	-0.001	3.0	NoResponse	0	0.209	n/a	3	24	ButtonPress	MissedWin	True
239.719	1.45	Win2	0.68	n/a	No	3.129	n/a	5.0	NoResponse	0	0.02	238.739	3	24	Feedback	MissedWin	True
241.169	3.129	Win2	0.68	n/a	No	3.129	n/a	n/a	NoResponse	0	0.0	n/a	3	24	ISIslide	MissedWin	True
244.318	0.25	Win2	0.6537999999999999	0.0	No	3.082	0.018	n/a	NoResponse	0	n/a	n/a	3	25	Cue	MissedWin	True
244.568	4.0	Win2	0.6537999999999999	0.0	No	3.082	0.0	n/a	NoResponse	0	n/a	n/a	3	25	Fixation	MissedWin	True
248.566	0.15	Win2	0.6537999999999999	0.002	No	3.082	-0.002	3.0	NoResponse	0	0.224	247.79	3	25	Target	MissedWin	True
248.716	0.55	Win2	0.6537999999999999	n/a	No	3.082	n/a	n/a	NoResponse	0	n/a	n/a	3	25	Blank	MissedWin	True
248.79	0.3	Win2	0.6537999999999999	0.002	No	3.082	-0.002	3.0	NoResponse	0	0.224	n/a	3	25	ButtonPress	MissedWin	True
249.266	1.45	Win2	0.6537999999999999	n/a	No	3.082	n/a	5.0	NoResponse	0	0.124	248.39	3	25	Feedback	MissedWin	True
250.715	3.082	Win2	0.6537999999999999	n/a	No	3.082	n/a	n/a	NoResponse	0	0.0	n/a	3	25	ISIslide	MissedWin	True
253.831	0.25	Win2	0.6296	0.0	No	2.919	0.031	n/a	NoResponse	0	n/a	n/a	3	26	Cue	MissedWin	True
254.081	3.95	Win2	0.6296	0.0	No	2.919	0.0	n/a	NoResponse	0	n/a	n/a	3	26	Fixation	MissedWin	True
258.029	0.16	Win2	0.6296	0.002	No	2.919	-0.002	3.0	NoResponse	0	0.191	257.22	3	26	Target	MissedWin	True
258.196	0.54	Win2	0.6296	n/a	No	2.919	n/a	n/a	NoResponse	0	n/a	n/a	3	26	Blank	MissedWin	True
258.22	0.3	Win2	0.6296	0.002	No	2.919	-0.002	3.0	NoResponse	0	0.191	n/a	3	26	ButtonPress	MissedWin	True
258.729	1.45	Win2	0.6296	n/a	No	2.919	n/a	5.0	NoResponse	0	0.576	258.305	3	26	Feedback	MissedWin	True
260.179	2.919	Win2	0.6296	n/a	No	2.919	n/a	n/a	NoResponse	0	0.0	n/a	3	26	ISIslide	MissedWin	True
263.128	0.25	Lose2	0.6071	0.0	No	2.822	0.028	n/a	NoResponse	-1	n/a	n/a	2	27	Cue	Loss	True
263.378	4.05	Lose2	0.6071	0.0	No	2.822	0.0	n/a	NoResponse	-1	n/a	n/a	2	27	Fixation	Loss	True
267.426	0.17	Lose2	0.6071	0.002	No	2.822	-0.002	3.0	NoResponse	-1	0.191	266.617	2	27	Target	Loss	True
267.609	0.53	Lose2	0.6071	n/a	No	2.822	n/a	n/a	NoResponse	-1	n/a	n/a	2	27	Blank	Loss	True
267.617	0.3	Lose2	0.6071	0.002	No	2.822	-0.002	3.0	NoResponse	-1	0.191	n/a	2	27	ButtonPress	Loss	True
268.126	1.45	Lose2	0.6071	n/a	No	2.822	n/a	5.0	NoResponse	-1	0.29	267.416	2	27	Feedback	Loss	True
269.575	2.822	Lose2	0.6071	n/a	No	2.822	n/a	n/a	NoResponse	-1	0.0	n/a	2	27	ISIslide	Loss	True
272.424	0.25	Control	0.5861999999999999	0.0	No	2.826	0.024	n/a	NoResponse	0	n/a	n/a	2	28	Cue	Neutral	True
272.674	4.05	Control	0.5861999999999999	0.0	No	2.826	0.0	n/a	NoResponse	0	n/a	n/a	2	28	Fixation	Neutral	True
276.723	0.18	Control	0.5861999999999999	0.001	No	2.826	-0.001	3.0	NoResponse	0	0.212	275.935	2	28	Target	Neutral	True
276.906	0.52	Control	0.5861999999999999	n/a	No	2.826	n/a	n/a	NoResponse	0	n/a	n/a	2	28	Blank	Neutral	True
276.935	0.3	Control	0.5861999999999999	0.001	No	2.826	-0.001	3.0	NoResponse	0	0.212	n/a	2	28	ButtonPress	Neutral	True
277.423	1.45	Control	0.5861999999999999	n/a	No	2.826	n/a	5.0	NoResponse	0	0.164	276.587	2	28	Feedback	Neutral	True
278.872	2.826	Control	0.5861999999999999	n/a	No	2.826	n/a	n/a	NoResponse	0	0.0	n/a	2	28	ISIslide	Neutral	True
281.721	0.25	Lose2	0.5667	0.0	No	2.829	0.021	n/a	PrematurePress	-1	n/a	n/a	1	29	Cue	Loss	True
281.971	3.95	Lose2	0.5667	0.0	No	2.829	0.0	n/a	PrematurePress	-1	n/a	n/a	1	29	Fixation	Loss	True
285.919	0.19	Lose2	0.5667	0.002	No	2.829	-0.002	3.0	PrematurePress	-1	0.034	284.953	1	29	Target	Loss	True
285.953	0.3	Lose2	0.5667	0.002	No	2.829	-0.002	3.0	PrematurePress	-1	0.034	n/a	1	29	ButtonPress	Loss	True
286.119	0.51	Lose2	0.5667	n/a	No	2.829	n/a	n/a	PrematurePress	-1	n/a	n/a	1	29	Blank	Loss	True
286.619	1.45	Lose2	0.5667	n/a	No	2.829	n/a	5.0	PrematurePress	-1	0.118	285.737	1	29	Feedback	Loss	True
288.069	2.829	Lose2	0.5667	n/a	No	2.829	n/a	n/a	PrematurePress	-1	0.0	n/a	1	29	ISIslide	Loss	True
290.918	0.25	Win2	0.5484	0.0	No	2.782	0.018	n/a	NoResponse	0	n/a	n/a	1	30	Cue	MissedWin	True
291.168	3.9	Win2	0.5484	0.0	No	2.782	0.0	n/a	NoResponse	0	n/a	n/a	1	30	Fixation	MissedWin	True
295.066	0.2	Win2	0.5484	0.002	No	2.782	-0.002	3.0	NoResponse	0	0.226	294.292	1	30	Target	MissedWin	True
295.266	0.5	Win2	0.5484	n/a	No	2.782	n/a	n/a	NoResponse	0	n/a	n/a	1	30	Blank	MissedWin	True
295.292	0.3	Win2	0.5484	0.002	No	2.782	-0.002	3.0	NoResponse	0	0.226	n/a	1	30	ButtonPress	MissedWin	True
295.766	1.45	Win2	0.5484	n/a	No	2.782	n/a	5.0	NoResponse	0	0.124	294.89	1	30	Feedback	MissedWin	True
297.215	2.782	Win2	0.5484	n/a	No	2.782	n/a	n/a	NoResponse	0	0.0	n/a	1	30	ISIslide	MissedWin	True
300.014	0.25	Lose2	0.5625	0.0	Yes	2.836	0.014	n/a	GoodResponse	0	n/a	n/a	1	31	Cue	AvoidedLoss	True
300.264	4.05	Lose2	0.5625	0.0	Yes	2.836	0.0	n/a	GoodResponse	0	n/a	n/a	1	31	Fixation	AvoidedLoss	True
304.313	0.21	Lose2	0.5625	0.001	Yes	2.836	-0.001	3.0	GoodResponse	0	0.174	303.487	1	31	Target	AvoidedLoss	True
304.487	0.3	Lose2	0.5625	0.001	Yes	2.836	-0.001	3.0	GoodResponse	0	0.174	n/a	1	31	ButtonPress	AvoidedLoss	True
304.529	0.49	Lose2	0.5625	n/a	Yes	2.836	n/a	n/a	GoodResponse	0	n/a	n/a	1	31	Blank	AvoidedLoss	True
305.013	1.45	Lose2	0.5625	n/a	Yes	2.836	n/a	5.0	GoodResponse	0	0.091	304.104	1	31	Feedback	AvoidedLoss	True
306.462	2.836	Lose2	0.5625	n/a	Yes	2.836	n/a	n/a	GoodResponse	0	0.0	n/a	1	31	ISIslide	AvoidedLoss	True
309.328	0.25	Lose2	0.5758	0.0	Yes	2.622	0.028	n/a	GoodResponse	0	n/a	n/a	1	32	Cue	AvoidedLoss	True
309.578	4.15	Lose2	0.5758	0.0	Yes	2.622	0.0	n/a	GoodResponse	0	n/a	n/a	1	32	Fixation	AvoidedLoss	True
313.726	0.22	Lose2	0.5758	0.002	Yes	2.622	-0.002	3.0	GoodResponse	0	0.219	312.945	1	32	Target	AvoidedLoss	True
313.945	0.3	Lose2	0.5758	0.002	Yes	2.622	-0.002	3.0	GoodResponse	0	0.219	n/a	1	32	ButtonPress	AvoidedLoss	True
313.959	0.48	Lose2	0.5758	n/a	Yes	2.622	n/a	n/a	GoodResponse	0	n/a	n/a	1	32	Blank	AvoidedLoss	True
314.426	1.45	Lose2	0.5758	n/a	Yes	2.622	n/a	5.0	GoodResponse	0	0.05	313.476	1	32	Feedback	AvoidedLoss	True
315.875	2.622	Lose2	0.5758	n/a	Yes	2.622	n/a	n/a	GoodResponse	0	0.0	n/a	1	32	ISIslide	AvoidedLoss	True
318.524	0.25	Win2	0.5882000000000001	0.001	Yes	2.676	0.024	n/a	GoodResponse	1	n/a	n/a	2	33	Cue	Win	True
318.774	4.0	Win2	0.5882000000000001	0.0	Yes	2.676	0.0	n/a	GoodResponse	1	n/a	n/a	2	33	Fixation	Win	True
322.773	0.23	Win2	0.5882000000000001	0.001	Yes	2.676	-0.001	3.0	GoodResponse	1	0.213	321.986	2	33	Target	Win	True
322.986	0.3	Win2	0.5882000000000001	0.001	Yes	2.676	-0.001	3.0	GoodResponse	1	0.213	n/a	2	33	ButtonPress	Win	True
323.006	0.47	Win2	0.5882000000000001	n/a	Yes	2.676	n/a	n/a	GoodResponse	1	n/a	n/a	2	33	Blank	Win	True
323.473	1.45	Win2	0.5882000000000001	n/a	Yes	2.676	n/a	5.0	GoodResponse	1	0.035	322.508	2	33	Feedback	Win	True
324.922	2.676	Win2	0.5882000000000001	n/a	Yes	2.676	n/a	n/a	GoodResponse	1	0.0	n/a	2	33	ISIslide	Win	True
327.621	0.25	Lose2	0.5714	0.0	No	2.629	0.021	n/a	PrematurePress	-1	n/a	n/a	1	34	Cue	Loss	True
327.871	4.05	Lose2	0.5714	0.0	No	2.629	0.0	n/a	PrematurePress	-1	n/a	n/a	1	34	Fixation	Loss	True
331.92	0.24	Lose2	0.5714	0.001	No	2.629	-0.001	3.0	PrematurePress	-1	0.069	330.989	1	34	Target	Loss	True
331.989	0.3	Lose2	0.5714	0.001	No	2.629	-0.001	3.0	PrematurePress	-1	0.069	n/a	1	34	ButtonPress	Loss	True
332.17	0.46	Lose2	0.5714	n/a	No	2.629	n/a	n/a	PrematurePress	-1	n/a	n/a	1	34	Blank	Loss	True
332.619	1.45	Lose2	0.5714	n/a	No	2.629	n/a	5.0	PrematurePress	-1	0.442	332.061	1	34	Feedback	Loss	True
334.069	2.629	Lose2	0.5714	n/a	No	2.629	n/a	n/a	PrematurePress	-1	0.0	n/a	1	34	ISIslide	Loss	True
336.718	0.25	Lose2	0.5832999999999999	0.0	Yes	2.682	0.018	n/a	GoodResponse	0	n/a	n/a	1	35	Cue	AvoidedLoss	True
336.968	4.0	Lose2	0.5832999999999999	0.0	Yes	2.682	0.0	n/a	GoodResponse	0	n/a	n/a	1	35	Fixation	AvoidedLoss	True
340.966	0.25	Lose2	0.5832999999999999	0.002	Yes	2.682	-0.002	3.0	GoodResponse	0	0.226	340.192	1	35	Target	AvoidedLoss	True
341.192	0.3	Lose2	0.5832999999999999	0.002	Yes	2.682	-0.002	3.0	GoodResponse	0	0.226	n/a	1	35	ButtonPress	AvoidedLoss	True
341.216	0.45	Lose2	0.5832999999999999	n/a	Yes	2.682	n/a	n/a	GoodResponse	0	n/a	n/a	1	35	Blank	AvoidedLoss	True
341.666	1.45	Lose2	0.5832999999999999	n/a	Yes	2.682	n/a	5.0	GoodResponse	0	0.025	340.691	1	35	Feedback	AvoidedLoss	True
343.116	2.682	Lose2	0.5832999999999999	n/a	Yes	2.682	n/a	n/a	GoodResponse	0	0.0	n/a	1	35	ISIslide	AvoidedLoss	True
345.815	0.25	Control	0.5946	0.0	Yes	2.685	0.015	n/a	GoodResponse	0	n/a	n/a	1	36	Cue	Neutral	True
346.065	4.0	Control	0.5946	0.0	Yes	2.685	0.0	n/a	GoodResponse	0	n/a	n/a	1	36	Fixation	Neutral	True
350.063	0.26	Control	0.5946	0.002	Yes	2.685	-0.002	3.0	GoodResponse	0	0.236	349.299	1	36	Target	Neutral	True
350.299	0.3	Control	0.5946	0.002	Yes	2.685	-0.002	3.0	GoodResponse	0	0.236	n/a	1	36	ButtonPress	Neutral	True
350.33	0.44	Control	0.5946	n/a	Yes	2.685	n/a	n/a	GoodResponse	0	n/a	n/a	1	36	Blank	Neutral	True
350.763	1.45	Control	0.5946	n/a	Yes	2.685	n/a	5.0	GoodResponse	0	0.541	350.304	1	36	Feedback	Neutral	True
352.212	2.685	Control	0.5946	n/a	Yes	2.685	n/a	n/a	GoodResponse	0	0.0	n/a	1	36	ISIslide	Neutral	True
354.928	0.25	Win2	0.5789	0.0	No	2.872	0.028	n/a	NoResponse	0	n/a	n/a	1	37	Cue	MissedWin	False
355.178	4.0	Win2	0.5789	0.0	No	2.872	0.0	3.0	NoResponse	0	3.867	358.045	1	37	Fixation	MissedWin	False
359.045	0.3	Win2	0.5789	0.0	No	2.872	0.0	3.0	NoResponse	0	3.867	n/a	1	37	ButtonPress	MissedWin	False
359.176	0.27	Win2	0.5789	0.002	No	2.872	-0.002	3.0	NoResponse	0	0.68	358.856	1	37	Target	MissedWin	False
359.46	0.43	Win2	0.5789	n/a	No	2.872	n/a	n/a	NoResponse	0	n/a	n/a	1	37	Blank	MissedWin	False
359.856	0.3	Win2	0.5789	0.002	No	2.872	-0.002	3.0	NoResponse	0	0.68	n/a	1	37	ButtonPress	MissedWin	False
359.876	1.45	Win2	0.5789	n/a	No	2.872	n/a	5.0	NoResponse	0	0.121	358.997	1	37	Feedback	MissedWin	False
361.326	2.872	Win2	0.5789	n/a	No	2.872	n/a	n/a	NoResponse	0	0.0	n/a	1	37	ISIslide	MissedWin	False
364.225	0.25	Lose2	0.5897	0.0	Yes	2.825	0.025	n/a	GoodResponse	0	n/a	n/a	1	38	Cue	AvoidedLoss	True
364.475	3.95	Lose2	0.5897	0.0	Yes	2.825	0.0	n/a	GoodResponse	0	n/a	n/a	1	38	Fixation	AvoidedLoss	True
368.423	0.28	Lose2	0.5897	0.002	Yes	2.825	-0.002	3.0	GoodResponse	0	0.218	367.641	1	38	Target	AvoidedLoss	True
368.641	0.3	Lose2	0.5897	0.002	Yes	2.825	-0.002	3.0	GoodResponse	0	0.218	n/a	1	38	ButtonPress	AvoidedLoss	True
368.706	0.42	Lose2	0.5897	n/a	Yes	2.825	n/a	n/a	GoodResponse	0	n/a	n/a	1	38	Blank	AvoidedLoss	True
369.123	1.45	Lose2	0.5897	n/a	Yes	2.825	n/a	5.0	GoodResponse	0	0.363	368.486	1	38	Feedback	AvoidedLoss	True
370.572	2.825	Lose2	0.5897	n/a	Yes	2.825	n/a	n/a	GoodResponse	0	0.0	n/a	1	38	ISIslide	AvoidedLoss	True
373.421	0.25	Win2	0.6	0.0	Yes	2.979	0.021	n/a	GoodResponse	1	n/a	n/a	2	39	Cue	Win	True
373.671	4.1	Win2	0.6	0.0	Yes	2.979	0.0	n/a	GoodResponse	1	n/a	n/a	2	39	Fixation	Win	True
377.77	0.29	Win2	0.6	0.001	Yes	2.979	-0.001	3.0	GoodResponse	1	0.21	376.98	2	39	Target	Win	True
377.98	0.3	Win2	0.6	0.001	Yes	2.979	-0.001	3.0	GoodResponse	1	0.21	n/a	2	39	ButtonPress	Win	True
378.07	0.41	Win2	0.6	n/a	Yes	2.979	n/a	n/a	GoodResponse	1	n/a	n/a	2	39	Blank	Win	True
378.47	1.45	Win2	0.6	n/a	Yes	2.979	n/a	5.0	GoodResponse	1	0.284	377.754	2	39	Feedback	Win	True
379.919	2.979	Win2	0.6	n/a	Yes	2.979	n/a	n/a	GoodResponse	1	0.0	n/a	2	39	ISIslide	Win	True
382.918	0.25	Win2	0.6098	0.0	Yes	2.732	0.018	n/a	GoodResponse	1	n/a	n/a	3	40	Cue	Win	True
383.168	3.95	Win2	0.6098	0.0	Yes	2.732	0.0	n/a	GoodResponse	1	n/a	n/a	3	40	Fixation	Win	True
387.116	0.3	Win2	0.6098	0.002	Yes	2.732	-0.002	3.0	GoodResponse	1	0.213	386.329	3	40	Target	Win	True
387.329	0.3	Win2	0.6098	0.002	Yes	2.732	-0.002	3.0	GoodResponse	1	0.213	n/a	3	40	ButtonPress	Win	True
387.416	0.4	Win2	0.6098	n/a	Yes	2.732	n/a	n/a	GoodResponse	1	n/a	n/a	3	40	Blank	Win	True
387.816	1.45	Win2	0.6098	n/a	Yes	2.732	n/a	5.0	GoodResponse	1	0.346	387.162	3	40	Feedback	Win	True
389.266	2.732	Win2	0.6098	n/a	Yes	2.732	n/a	n/a	GoodResponse	1	0.0	n/a	3	40	ISIslide	Win	True
392.015	0.25	Win2	0.619	0.0	Yes	2.785	0.015	n/a	GoodResponse	1	n/a	n/a	4	41	Cue	Win	True
392.265	3.9	Win2	0.619	0.0	Yes	2.785	0.0	n/a	GoodResponse	1	n/a	n/a	4	41	Fixation	Win	True
396.163	0.31	Win2	0.619	0.002	Yes	2.785	-0.002	3.0	GoodResponse	1	0.215	395.378	4	41	Target	Win	True
396.378	0.3	Win2	0.619	0.002	Yes	2.785	-0.002	3.0	GoodResponse	1	0.215	n/a	4	41	ButtonPress	Win	True
396.48	0.39	Win2	0.619	n/a	Yes	2.785	n/a	n/a	GoodResponse	1	n/a	n/a	4	41	Blank	Win	True
396.863	1.45	Win2	0.619	n/a	Yes	2.785	n/a	5.0	GoodResponse	1	0.525	396.388	4	41	Feedback	Win	True
398.312	2.785	Win2	0.619	n/a	Yes	2.785	n/a	n/a	GoodResponse	1	0.0	n/a	4	41	ISIslide	Win	True
401.111	0.25	Control	0.6279	0.001	Yes	2.939	0.011	n/a	GoodResponse	0	n/a	n/a	4	42	Cue	Neutral	True
401.361	3.85	Control	0.6279	0.0	Yes	2.939	0.0	n/a	GoodResponse	0	n/a	n/a	4	42	Fixation	Neutral	True
405.21	0.32	Control	0.6279	0.001	Yes	2.939	-0.001	3.0	GoodResponse	0	0.264	404.474	4	42	Target	Neutral	True
405.474	0.3	Control	0.6279	0.001	Yes	2.939	-0.001	3.0	GoodResponse	0	0.264	n/a	4	42	ButtonPress	Neutral	True
405.527	0.38	Control	0.6279	n/a	Yes	2.939	n/a	n/a	GoodResponse	0	n/a	n/a	4	42	Blank	Neutral	True
405.91	1.45	Control	0.6279	n/a	Yes	2.939	n/a	5.0	GoodResponse	0	0.221	405.131	4	42	Feedback	Neutral	True
407.359	2.939	Control	0.6279	n/a	Yes	2.939	n/a	n/a	GoodResponse	0	0.0	n/a	4	42	ISIslide	Neutral	True
410.325	0.25	Win2	0.6364	0.0	Yes	3.175	0.025	n/a	GoodResponse	1	n/a	n/a	5	43	Cue	Win	True
410.575	4.0	Win2	0.6364	0.0	Yes	3.175	0.0	n/a	GoodResponse	1	n/a	n/a	5	43	Fixation	Win	True
414.573	0.33	Win2	0.6364	0.002	Yes	3.175	-0.002	3.0	GoodResponse	1	0.21	413.783	5	43	Target	Win	True
414.783	0.3	Win2	0.6364	0.002	Yes	3.175	-0.002	3.0	GoodResponse	1	0.21	n/a	5	43	ButtonPress	Win	True
414.906	0.37	Win2	0.6364	n/a	Yes	3.175	n/a	n/a	GoodResponse	1	n/a	n/a	5	43	Blank	Win	True
415.273	1.45	Win2	0.6364	n/a	Yes	3.175	n/a	5.0	GoodResponse	1	0.163	414.436	5	43	Feedback	Win	True
416.722	3.175	Win2	0.6364	n/a	Yes	3.175	n/a	n/a	GoodResponse	1	0.0	n/a	5	43	ISIslide	Win	True
419.921	0.25	Win2	0.6444	0.0	Yes	2.979	0.021	n/a	GoodResponse	1	n/a	n/a	6	44	Cue	Win	True
420.171	4.0	Win2	0.6444	0.0	Yes	2.979	0.0	n/a	GoodResponse	1	n/a	n/a	6	44	Fixation	Win	True
424.17	0.34	Win2	0.6444	0.001	Yes	2.979	-0.001	3.0	GoodResponse	1	0.249	423.419	6	44	Target	Win	True
424.419	0.3	Win2	0.6444	0.001	Yes	2.979	-0.001	3.0	GoodResponse	1	0.249	n/a	6	44	ButtonPress	Win	True
424.52	0.36	Win2	0.6444	n/a	Yes	2.979	n/a	n/a	GoodResponse	1	n/a	n/a	6	44	Blank	Win	True
424.87	1.45	Win2	0.6444	n/a	Yes	2.979	n/a	5.0	GoodResponse	1	0.015	423.885	6	44	Feedback	Win	True
426.319	2.979	Win2	0.6444	n/a	Yes	2.979	n/a	n/a	GoodResponse	1	0.0	n/a	6	44	ISIslide	Win	True
429.318	0.25	Control	0.6522	0.0	Yes	2.882	0.018	n/a	GoodResponse	0	n/a	n/a	6	45	Cue	Neutral	True
429.568	4.1	Control	0.6522	0.0	Yes	2.882	0.0	n/a	GoodResponse	0	n/a	n/a	6	45	Fixation	Neutral	True
433.666	0.35	Control	0.6522	0.002	Yes	2.882	-0.002	3.0	GoodResponse	0	0.211	432.877	6	45	Target	Neutral	True
433.877	0.3	Control	0.6522	0.002	Yes	2.882	-0.002	3.0	GoodResponse	0	0.211	n/a	6	45	ButtonPress	Neutral	True
434.016	0.35	Control	0.6522	n/a	Yes	2.882	n/a	n/a	GoodResponse	0	n/a	n/a	6	45	Blank	Neutral	True
434.366	1.45	Control	0.6522	n/a	Yes	2.882	n/a	5.0	GoodResponse	0	0.192	433.558	6	45	Feedback	Neutral	True
435.816	2.882	Control	0.6522	n/a	Yes	2.882	n/a	n/a	GoodResponse	0	0.0	n/a	6	45	ISIslide	Neutral	True
438.715	0.25	Lose2	0.6596	0.0	Yes	3.385	0.015	n/a	GoodResponse	0	n/a	n/a	6	46	Cue	AvoidedLoss	True
438.965	4.0	Lose2	0.6596	0.0	Yes	3.385	0.0	n/a	GoodResponse	0	n/a	n/a	6	46	Fixation	AvoidedLoss	True
442.963	0.36	Lose2	0.6596	0.002	Yes	3.385	-0.002	3.0	GoodResponse	0	0.2	442.163	6	46	Target	AvoidedLoss	True
443.163	0.3	Lose2	0.6596	0.002	Yes	3.385	-0.002	3.0	GoodResponse	0	0.2	n/a	6	46	ButtonPress	AvoidedLoss	True
443.33	0.34	Lose2	0.6596	n/a	Yes	3.385	n/a	n/a	GoodResponse	0	n/a	n/a	6	46	Blank	AvoidedLoss	True
443.663	1.45	Lose2	0.6596	n/a	Yes	3.385	n/a	5.0	GoodResponse	0	0.068	442.731	6	46	Feedback	AvoidedLoss	True
445.112	3.385	Lose2	0.6596	n/a	Yes	3.385	n/a	n/a	GoodResponse	0	0.0	n/a	6	46	ISIslide	AvoidedLoss	True
448.528	0.25	Lose2	0.6667000000000001	0.0	Yes	2.672	0.028	n/a	GoodResponse	0	n/a	n/a	6	47	Cue	AvoidedLoss	True
448.778	4.0	Lose2	0.6667000000000001	0.0	Yes	2.672	0.0	n/a	GoodResponse	0	n/a	n/a	6	47	Fixation	AvoidedLoss	True
452.776	0.36	Lose2	0.6667000000000001	0.002	Yes	2.672	-0.002	3.0	GoodResponse	0	0.225	452.001	6	47	Target	AvoidedLoss	True
453.001	0.3	Lose2	0.6667000000000001	0.002	Yes	2.672	-0.002	3.0	GoodResponse	0	0.225	n/a	6	47	ButtonPress	AvoidedLoss	True
453.143	0.34	Lose2	0.6667000000000001	n/a	Yes	2.672	n/a	n/a	GoodResponse	0	n/a	n/a	6	47	Blank	AvoidedLoss	True
453.476	1.45	Lose2	0.6667000000000001	n/a	Yes	2.672	n/a	5.0	GoodResponse	0	0.01	452.486	6	47	Feedback	AvoidedLoss	True
454.925	2.672	Lose2	0.6667000000000001	n/a	Yes	2.672	n/a	n/a	GoodResponse	0	0.0	n/a	6	47	ISIslide	AvoidedLoss	True
457.624	0.25	Lose2	0.6735	0.001	Yes	3.026	0.024	n/a	GoodResponse	0	n/a	n/a	6	48	Cue	AvoidedLoss	True
457.874	3.95	Lose2	0.6735	0.0	Yes	3.026	0.0	n/a	GoodResponse	0	n/a	n/a	6	48	Fixation	AvoidedLoss	True
461.823	0.35	Lose2	0.6735	0.001	Yes	3.026	-0.001	3.0	GoodResponse	0	0.221	461.044	6	48	Target	AvoidedLoss	True
462.044	0.3	Lose2	0.6735	0.001	Yes	3.026	-0.001	3.0	GoodResponse	0	0.221	n/a	6	48	ButtonPress	AvoidedLoss	True
462.173	0.35	Lose2	0.6735	n/a	Yes	3.026	n/a	n/a	GoodResponse	0	n/a	n/a	6	48	Blank	AvoidedLoss	True
462.523	1.45	Lose2	0.6735	n/a	Yes	3.026	n/a	5.0	GoodResponse	0	0.096	461.619	6	48	Feedback	AvoidedLoss	True
463.972	3.026	Lose2	0.6735	n/a	Yes	3.026	n/a	n/a	GoodResponse	0	0.0	n/a	6	48	ISIslide	AvoidedLoss	True
467.021	0.25	Control	0.68	0.0	Yes	2.879	0.021	n/a	GoodResponse	0	n/a	n/a	6	49	Cue	Neutral	True
467.271	4.0	Control	0.68	0.0	Yes	2.879	0.0	n/a	GoodResponse	0	n/a	n/a	6	49	Fixation	Neutral	True
471.27	0.34	Control	0.68	0.001	Yes	2.879	-0.001	3.0	GoodResponse	0	0.219	470.489	6	49	Target	Neutral	True
471.489	0.3	Control	0.68	0.001	Yes	2.879	-0.001	3.0	GoodResponse	0	0.219	n/a	6	49	ButtonPress	Neutral	True
471.619	0.36	Control	0.68	n/a	Yes	2.879	n/a	n/a	GoodResponse	0	n/a	n/a	6	49	Blank	Neutral	True
471.969	1.45	Control	0.68	n/a	Yes	2.879	n/a	5.0	GoodResponse	0	0.346	471.315	6	49	Feedback	Neutral	True
473.419	2.879	Control	0.68	n/a	Yes	2.879	n/a	n/a	GoodResponse	0	0.0	n/a	6	49	ISIslide	Neutral	True
-31.523	0.999	Control	0.6862999999999999	n/a	Yes	2.782	n/a	999.0	GoodResponse	0	0.999	n/a	6	50	ISIslide	Neutral	False
476.318	0.25	Control	0.6862999999999999	0.0	Yes	2.782	0.018	n/a	GoodResponse	0	n/a	n/a	6	50	Cue	Neutral	False
476.568	4.0	Control	0.6862999999999999	0.0	Yes	2.782	0.0	n/a	GoodResponse	0	n/a	n/a	6	50	Fixation	Neutral	False
480.566	0.33	Control	0.6862999999999999	0.002	Yes	2.782	-0.002	n/a	GoodResponse	0	n/a	n/a	6	50	Target	Neutral	False
480.899	0.37	Control	0.6862999999999999	n/a	Yes	2.782	n/a	n/a	GoodResponse	0	n/a	n/a	6	50	Blank	Neutral	False
481.266	1.45	Control	0.6862999999999999	n/a	Yes	2.782	n/a	n/a	GoodResponse	0	n/a	n/a	6	50	Feedback	Neutral	False
