onset	duration	cue_type	current_mean_accuracy	duration_error	is_hit	isi_adjusted	onset_delay	response	response_type	reward	rt	rt_time	total_reward	trial_number	trial_phase	trial_type	one_press
11.099	0.25	Control	1.0	0.0	Yes	2.951	-0.001	n/a	GoodResponse	0	n/a	n/a	0	0	Cue	Neutral	True
11.349	3.85	Control	1.0	0.0	Yes	2.951	0.0	n/a	GoodResponse	0	n/a	n/a	0	0	Fixation	Neutral	True
15.197	0.4	Control	1.0	0.002	Yes	2.951	-0.002	4.0	GoodResponse	0	0.272	14.469	0	0	Target	Neutral	True
15.469	0.3	Control	1.0	0.002	Yes	2.951	-0.002	4.0	GoodResponse	0	0.272	n/a	0	0	ButtonPress	Neutral	True
15.597	0.3	Control	1.0	n/a	Yes	2.951	n/a	n/a	GoodResponse	0	n/a	n/a	0	0	Blank	Neutral	True
15.897	1.45	Control	1.0	n/a	Yes	2.951	n/a	5.0	GoodResponse	0	1.106	16.003	0	0	Feedback	Neutral	True
17.346	2.951	Control	1.0	n/a	Yes	2.951	n/a	n/a	GoodResponse	0	0.0	n/a	0	0	ISIslide	Neutral	True
20.329	0.25	Lose2	1.0	0.0	Yes	2.771	0.029	n/a	GoodResponse	0	n/a	n/a	0	1	Cue	AvoidedLoss	True
20.579	4.0	Lose2	1.0	0.0	Yes	2.771	0.0	n/a	GoodResponse	0	n/a	n/a	0	1	Fixation	AvoidedLoss	True
24.577	0.39	Lose2	1.0	0.002	Yes	2.771	-0.002	4.0	GoodResponse	0	0.254	23.831	0	1	Target	AvoidedLoss	True
24.831	0.3	Lose2	1.0	0.002	Yes	2.771	-0.002	4.0	GoodResponse	0	0.254	n/a	0	1	ButtonPress	AvoidedLoss	True
24.977	0.31	Lose2	1.0	n/a	Yes	2.771	n/a	n/a	GoodResponse	0	n/a	n/a	0	1	Blank	AvoidedLoss	True
25.277	1.45	Lose2	1.0	n/a	Yes	2.771	n/a	n/a	GoodResponse	0	n/a	n/a	0	1	Feedback	AvoidedLoss	True
26.727	2.771	Lose2	1.0	n/a	Yes	2.771	n/a	n/a	GoodResponse	0	0.0	n/a	0	1	ISIslide	AvoidedLoss	True
29.526	0.25	Control	1.0	0.0	Yes	2.574	0.026	n/a	GoodResponse	0	n/a	n/a	0	2	Cue	Neutral	True
29.775	4.1	Control	1.0	0.001	Yes	2.574	-0.001	n/a	GoodResponse	0	n/a	n/a	0	2	Fixation	Neutral	True
33.874	0.38	Control	1.0	0.002	Yes	2.574	-0.002	4.0	GoodResponse	0	0.275	33.149	0	2	Target	Neutral	True
34.149	0.3	Control	1.0	0.002	Yes	2.574	-0.002	4.0	GoodResponse	0	0.275	n/a	0	2	ButtonPress	Neutral	True
34.257	0.32	Control	1.0	n/a	Yes	2.574	n/a	n/a	GoodResponse	0	n/a	n/a	0	2	Blank	Neutral	True
34.574	1.45	Control	1.0	n/a	Yes	2.574	n/a	5.0	GoodResponse	0	0.428	34.002	0	2	Feedback	Neutral	True
36.023	2.574	Control	1.0	n/a	Yes	2.574	n/a	n/a	GoodResponse	0	0.0	n/a	0	2	ISIslide	Neutral	True
38.622	0.25	Win2	1.0	0.001	Yes	2.828	0.022	n/a	GoodResponse	1	n/a	n/a	1	3	Cue	Win	True
38.872	3.95	Win2	1.0	0.0	Yes	2.828	0.0	n/a	GoodResponse	1	n/a	n/a	1	3	Fixation	Win	True
42.821	0.37	Win2	1.0	0.001	Yes	2.828	-0.001	4.0	GoodResponse	1	0.229	42.05	1	3	Target	Win	True
43.05	0.3	Win2	1.0	0.001	Yes	2.828	-0.001	4.0	GoodResponse	1	0.229	n/a	1	3	ButtonPress	Win	True
43.188	0.33	Win2	1.0	n/a	Yes	2.828	n/a	n/a	GoodResponse	1	n/a	n/a	1	3	Blank	Win	True
43.521	1.45	Win2	1.0	n/a	Yes	2.828	n/a	n/a	GoodResponse	1	n/a	n/a	1	3	Feedback	Win	True
44.97	2.828	Win2	1.0	n/a	Yes	2.828	n/a	n/a	GoodResponse	1	0.0	n/a	1	3	ISIslide	Win	True
47.819	0.25	Win2	1.0	0.0	Yes	3.281	0.019	n/a	GoodResponse	1	n/a	n/a	2	4	Cue	Win	True
48.069	4.0	Win2	1.0	0.0	Yes	3.281	0.0	n/a	GoodResponse	1	n/a	n/a	2	4	Fixation	Win	True
52.068	0.36	Win2	1.0	0.001	Yes	3.281	-0.001	4.0	GoodResponse	1	0.232	51.3	2	4	Target	Win	True
52.3	0.3	Win2	1.0	0.001	Yes	3.281	-0.001	4.0	GoodResponse	1	0.232	n/a	2	4	ButtonPress	Win	True
52.434	0.34	Win2	1.0	n/a	Yes	3.281	n/a	n/a	GoodResponse	1	n/a	n/a	2	4	Blank	Win	True
52.768	1.45	Win2	1.0	n/a	Yes	3.281	n/a	5.0	GoodResponse	1	0.234	52.002	2	4	Feedback	Win	True
54.217	3.281	Win2	1.0	n/a	Yes	3.281	n/a	n/a	GoodResponse	1	0.0	n/a	2	4	ISIslide	Win	True
57.516	0.25	Win2	1.0	0.0	Yes	2.784	0.016	n/a	GoodResponse	1	n/a	n/a	3	5	Cue	Win	True
57.766	4.0	Win2	1.0	0.0	Yes	2.784	0.0	n/a	GoodResponse	1	n/a	n/a	3	5	Fixation	Win	True
61.764	0.35	Win2	1.0	0.002	Yes	2.784	-0.002	4.0	GoodResponse	1	0.224	60.988	3	5	Target	Win	True
61.988	0.3	Win2	1.0	0.002	Yes	2.784	-0.002	4.0	GoodResponse	1	0.224	n/a	3	5	ButtonPress	Win	True
62.114	0.35	Win2	1.0	n/a	Yes	2.784	n/a	n/a	GoodResponse	1	n/a	n/a	3	5	Blank	Win	True
62.464	1.45	Win2	1.0	n/a	Yes	2.784	n/a	5.0	GoodResponse	1	0.539	62.003	3	5	Feedback	Win	True
63.914	2.784	Win2	1.0	n/a	Yes	2.784	n/a	n/a	GoodResponse	1	0.0	n/a	3	5	ISIslide	Win	True
66.729	0.25	Lose2	1.0	0.0	Yes	2.721	0.029	n/a	GoodResponse	0	n/a	n/a	3	6	Cue	AvoidedLoss	True
66.979	3.95	Lose2	1.0	0.0	Yes	2.721	0.0	n/a	GoodResponse	0	n/a	n/a	3	6	Fixation	AvoidedLoss	True
70.928	0.34	Lose2	1.0	0.001	Yes	2.721	-0.001	4.0	GoodResponse	0	0.301	70.229	3	6	Target	AvoidedLoss	True
71.229	0.3	Lose2	1.0	0.001	Yes	2.721	-0.001	4.0	GoodResponse	0	0.301	n/a	3	6	ButtonPress	AvoidedLoss	True
71.278	0.36	Lose2	1.0	n/a	Yes	2.721	n/a	n/a	GoodResponse	0	n/a	n/a	3	6	Blank	AvoidedLoss	True
71.628	1.45	Lose2	1.0	n/a	Yes	2.721	n/a	5.0	GoodResponse	0	1.375	72.003	3	6	Feedback	AvoidedLoss	True
73.077	2.721	Lose2	1.0	n/a	Yes	2.721	n/a	n/a	GoodResponse	0	0.0	n/a	3	6	ISIslide	AvoidedLoss	True
75.826	0.25	Lose2	1.0	0.0	Yes	4.024	0.026	n/a	GoodResponse	0	n/a	n/a	3	7	Cue	AvoidedLoss	True
76.076	4.05	Lose2	1.0	0.0	Yes	4.024	0.0	n/a	GoodResponse	0	n/a	n/a	3	7	Fixation	AvoidedLoss	True
80.125	0.33	Lose2	1.0	0.001	Yes	4.024	-0.001	4.0	GoodResponse	0	0.325	79.45	3	7	Target	AvoidedLoss	True
80.45	0.3	Lose2	1.0	0.001	Yes	4.024	-0.001	4.0	GoodResponse	0	0.325	n/a	3	7	ButtonPress	AvoidedLoss	True
80.458	0.37	Lose2	1.0	n/a	Yes	4.024	n/a	n/a	GoodResponse	0	n/a	n/a	3	7	Blank	AvoidedLoss	True
80.825	1.45	Lose2	1.0	n/a	Yes	4.024	n/a	5.0	GoodResponse	0	0.178	80.003	3	7	Feedback	AvoidedLoss	True
82.274	4.024	Lose2	1.0	n/a	Yes	4.024	n/a	n/a	GoodResponse	0	0.0	n/a	3	7	ISIslide	AvoidedLoss	True
86.323	0.25	Lose2	1.0	0.0	Yes	3.027	0.023	n/a	GoodResponse	0	n/a	n/a	3	8	Cue	AvoidedLoss	True
86.573	3.95	Lose2	1.0	0.0	Yes	3.027	0.0	n/a	GoodResponse	0	n/a	n/a	3	8	Fixation	AvoidedLoss	True
90.521	0.32	Lose2	1.0	0.002	Yes	3.027	-0.002	4.0	GoodResponse	0	0.249	89.77	3	8	Target	AvoidedLoss	True
90.77	0.3	Lose2	1.0	0.002	Yes	3.027	-0.002	4.0	GoodResponse	0	0.249	n/a	3	8	ButtonPress	AvoidedLoss	True
90.854	0.38	Lose2	1.0	n/a	Yes	3.027	n/a	n/a	GoodResponse	0	n/a	n/a	3	8	Blank	AvoidedLoss	True
91.221	1.45	Lose2	1.0	n/a	Yes	3.027	n/a	n/a	GoodResponse	0	n/a	n/a	3	8	Feedback	AvoidedLoss	True
92.67	3.027	Lose2	1.0	n/a	Yes	3.027	n/a	n/a	GoodResponse	0	0.0	n/a	3	8	ISIslide	AvoidedLoss	True
95.719	0.25	Lose2	1.0	0.0	Yes	3.131	0.019	n/a	GoodResponse	0	n/a	n/a	3	9	Cue	AvoidedLoss	True
95.969	3.95	Lose2	1.0	0.0	Yes	3.131	0.0	n/a	GoodResponse	0	n/a	n/a	3	9	Fixation	AvoidedLoss	True
99.918	0.31	Lose2	1.0	0.001	Yes	3.131	-0.001	4.0	GoodResponse	0	0.261	99.179	3	9	Target	AvoidedLoss	True
100.179	0.3	Lose2	1.0	0.001	Yes	3.131	-0.001	4.0	GoodResponse	0	0.261	n/a	3	9	ButtonPress	AvoidedLoss	True
100.234	0.39	Lose2	1.0	n/a	Yes	3.131	n/a	n/a	GoodResponse	0	n/a	n/a	3	9	Blank	AvoidedLoss	True
100.618	1.45	Lose2	1.0	n/a	Yes	3.131	n/a	5.0	GoodResponse	0	0.384	100.002	3	9	Feedback	AvoidedLoss	True
102.067	3.131	Lose2	1.0	n/a	Yes	3.131	n/a	n/a	GoodResponse	0	0.0	n/a	3	9	ISIslide	AvoidedLoss	True
105.216	0.25	Control	1.0	0.0	Yes	3.284	0.016	n/a	GoodResponse	0	n/a	n/a	3	10	Cue	Neutral	True
105.466	4.0	Control	1.0	0.0	Yes	3.284	0.0	n/a	GoodResponse	0	n/a	n/a	3	10	Fixation	Neutral	True
109.465	0.3	Control	1.0	0.001	Yes	3.284	-0.001	4.0	GoodResponse	0	0.263	108.728	3	10	Target	Neutral	True
109.728	0.3	Control	1.0	0.001	Yes	3.284	-0.001	4.0	GoodResponse	0	0.263	n/a	3	10	ButtonPress	Neutral	True
109.764	0.4	Control	1.0	n/a	Yes	3.284	n/a	n/a	GoodResponse	0	n/a	n/a	3	10	Blank	Neutral	True
110.164	1.45	Control	1.0	n/a	Yes	3.284	n/a	5.0	GoodResponse	0	0.838	110.002	3	10	Feedback	Neutral	True
111.614	3.284	Control	1.0	n/a	Yes	3.284	n/a	n/a	GoodResponse	0	0.0	n/a	3	10	ISIslide	Neutral	True
114.929	0.25	Lose2	1.0	0.0	Yes	2.721	0.029	n/a	GoodResponse	0	n/a	n/a	3	11	Cue	AvoidedLoss	True
115.179	4.05	Lose2	1.0	0.0	Yes	2.721	0.0	n/a	GoodResponse	0	n/a	n/a	3	11	Fixation	AvoidedLoss	True
119.228	0.29	Lose2	1.0	0.001	Yes	2.721	-0.001	4.0	GoodResponse	0	0.239	118.467	3	11	Target	AvoidedLoss	True
119.467	0.3	Lose2	1.0	0.001	Yes	2.721	-0.001	4.0	GoodResponse	0	0.239	n/a	3	11	ButtonPress	AvoidedLoss	True
119.528	0.41	Lose2	1.0	n/a	Yes	2.721	n/a	n/a	GoodResponse	0	n/a	n/a	3	11	Blank	AvoidedLoss	True
119.928	1.45	Lose2	1.0	n/a	Yes	2.721	n/a	5.0	GoodResponse	0	1.074	120.002	3	11	Feedback	AvoidedLoss	True
121.377	2.721	Lose2	1.0	n/a	Yes	2.721	n/a	n/a	GoodResponse	0	0.0	n/a	3	11	ISIslide	AvoidedLoss	True
124.126	0.25	Control	1.0	0.0	Yes	2.974	0.026	n/a	GoodResponse	0	n/a	n/a	3	12	Cue	Neutral	True
124.376	3.9	Control	1.0	0.0	Yes	2.974	0.0	n/a	GoodResponse	0	n/a	n/a	3	12	Fixation	Neutral	True
128.275	0.28	Control	1.0	0.001	Yes	2.974	-0.001	4.0	GoodResponse	0	0.239	127.514	3	12	Target	Neutral	True
128.514	0.3	Control	1.0	0.001	Yes	2.974	-0.001	4.0	GoodResponse	0	0.239	n/a	3	12	ButtonPress	Neutral	True
128.558	0.42	Control	1.0	n/a	Yes	2.974	n/a	n/a	GoodResponse	0	n/a	n/a	3	12	Blank	Neutral	True
128.975	1.45	Control	1.0	n/a	Yes	2.974	n/a	5.0	GoodResponse	0	0.028	128.003	3	12	Feedback	Neutral	True
130.424	2.974	Control	1.0	n/a	Yes	2.974	n/a	n/a	GoodResponse	0	0.0	n/a	3	12	ISIslide	Neutral	True
133.423	0.25	Control	0.9286	0.0	No	2.777	0.023	n/a	NoResponse	0	n/a	n/a	3	13	Cue	Neutral	True
133.673	4.0	Control	0.9286	0.0	No	2.777	0.0	n/a	NoResponse	0	n/a	n/a	3	13	Fixation	Neutral	True
137.672	0.27	Control	0.9286	0.001	No	2.777	-0.001	4.0	NoResponse	0	0.355	137.027	3	13	Target	Neutral	True
137.955	0.43	Control	0.9286	n/a	No	2.777	n/a	n/a	NoResponse	0	n/a	n/a	3	13	Blank	Neutral	True
138.027	0.3	Control	0.9286	0.001	No	2.777	-0.001	4.0	NoResponse	0	0.355	n/a	3	13	ButtonPress	Neutral	True
138.371	1.45	Control	0.9286	n/a	No	2.777	n/a	5.0	NoResponse	0	0.632	138.003	3	13	Feedback	Neutral	True
139.821	2.777	Control	0.9286	n/a	No	2.777	n/a	n/a	NoResponse	0	0.0	n/a	3	13	ISIslide	Neutral	True
142.62	0.25	Win2	0.9333	0.0	Yes	2.68	0.02	n/a	GoodResponse	1	n/a	n/a	4	14	Cue	Win	True
142.87	4.1	Win2	0.9333	0.0	Yes	2.68	0.0	n/a	GoodResponse	1	n/a	n/a	4	14	Fixation	Win	True
146.968	0.26	Win2	0.9333	0.002	Yes	2.68	-0.002	4.0	GoodResponse	1	0.22	146.188	4	14	Target	Win	True
147.188	0.3	Win2	0.9333	0.002	Yes	2.68	-0.002	4.0	GoodResponse	1	0.22	n/a	4	14	ButtonPress	Win	True
147.235	0.44	Win2	0.9333	n/a	Yes	2.68	n/a	n/a	GoodResponse	1	n/a	n/a	4	14	Blank	Win	True
147.668	1.45	Win2	0.9333	n/a	Yes	2.68	n/a	5.0	GoodResponse	1	1.335	148.003	4	14	Feedback	Win	True
149.118	2.68	Win2	0.9333	n/a	Yes	2.68	n/a	n/a	GoodResponse	1	0.0	n/a	4	14	ISIslide	Win	True
151.817	0.25	Control	0.9375	0.0	Yes	2.983	0.017	n/a	GoodResponse	0	n/a	n/a	4	15	Cue	Neutral	True
152.067	4.0	Control	0.9375	0.0	Yes	2.983	0.0	n/a	GoodResponse	0	n/a	n/a	4	15	Fixation	Neutral	True
156.065	0.25	Control	0.9375	0.002	Yes	2.983	-0.002	4.0	GoodResponse	0	0.231	155.296	4	15	Target	Neutral	True
156.296	0.3	Control	0.9375	0.002	Yes	2.983	-0.002	4.0	GoodResponse	0	0.231	n/a	4	15	ButtonPress	Neutral	True
156.315	0.45	Control	0.9375	n/a	Yes	2.983	n/a	n/a	GoodResponse	0	n/a	n/a	4	15	Blank	Neutral	True
156.765	1.45	Control	0.9375	n/a	Yes	2.983	n/a	5.0	GoodResponse	0	0.237	156.002	4	15	Feedback	Neutral	True
158.214	2.983	Control	0.9375	n/a	Yes	2.983	n/a	n/a	GoodResponse	0	0.0	n/a	4	15	ISIslide	Neutral	True
161.213	0.25	Win2	0.8824	0.0	No	2.887	0.013	n/a	LatePress	0	n/a	n/a	4	16	Cue	MissedWin	False
161.463	4.0	Win2	0.8824	0.0	No	2.887	0.0	4.0	LatePress	0	0.09	160.553	4	16	Fixation	MissedWin	False
161.553	0.3	Win2	0.8824	0.0	No	2.887	0.0	4.0	LatePress	0	0.09	n/a	4	16	ButtonPress	MissedWin	False
165.462	0.24	Win2	0.8824	0.001	No	2.887	-0.001	4.0	LatePress	0	0.248	164.71	4	16	Target	MissedWin	False
165.71	0.3	Win2	0.8824	0.001	No	2.887	-0.001	4.0	LatePress	0	0.248	n/a	4	16	ButtonPress	MissedWin	False
165.712	0.46	Win2	0.8824	n/a	No	2.887	n/a	n/a	LatePress	0	n/a	n/a	4	16	Blank	MissedWin	False
166.162	1.45	Win2	0.8824	n/a	No	2.887	n/a	5.0	LatePress	0	0.84	166.002	4	16	Feedback	MissedWin	False
167.611	2.887	Win2	0.8824	n/a	No	2.887	n/a	n/a	LatePress	0	0.0	n/a	4	16	ISIslide	MissedWin	False
170.527	0.25	Lose2	0.8889	0.0	Yes	2.723	0.027	n/a	GoodResponse	0	n/a	n/a	4	17	Cue	AvoidedLoss	True
170.777	3.95	Lose2	0.8889	0.0	Yes	2.723	0.0	n/a	GoodResponse	0	n/a	n/a	4	17	Fixation	AvoidedLoss	True
174.725	0.23	Lose2	0.8889	0.002	Yes	2.723	-0.002	4.0	GoodResponse	0	0.226	173.951	4	17	Target	AvoidedLoss	True
174.951	0.3	Lose2	0.8889	0.002	Yes	2.723	-0.002	4.0	GoodResponse	0	0.226	n/a	4	17	ButtonPress	AvoidedLoss	True
174.959	0.47	Lose2	0.8889	n/a	Yes	2.723	n/a	n/a	GoodResponse	0	n/a	n/a	4	17	Blank	AvoidedLoss	True
175.425	1.45	Lose2	0.8889	n/a	Yes	2.723	n/a	n/a	GoodResponse	0	n/a	n/a	4	17	Feedback	AvoidedLoss	True
176.875	2.723	Lose2	0.8889	n/a	Yes	2.723	n/a	n/a	GoodResponse	0	0.0	n/a	4	17	ISIslide	AvoidedLoss	True
179.624	0.25	Lose2	0.8421	0.0	No	2.726	0.024	n/a	LatePress	-1	n/a	n/a	3	18	Cue	Loss	True
179.874	4.05	Lose2	0.8421	0.0	No	2.726	0.0	n/a	LatePress	-1	n/a	n/a	3	18	Fixation	Loss	True
183.922	0.22	Lose2	0.8421	0.002	No	2.726	-0.002	4.0	LatePress	-1	0.229	183.151	3	18	Target	Loss	True
184.151	0.3	Lose2	0.8421	0.002	No	2.726	-0.002	4.0	LatePress	-1	0.229	n/a	3	18	ButtonPress	Loss	True
184.155	0.48	Lose2	0.8421	n/a	No	2.726	n/a	n/a	LatePress	-1	n/a	n/a	3	18	Blank	Loss	True
184.622	1.45	Lose2	0.8421	n/a	No	2.726	n/a	5.0	LatePress	-1	0.38	184.002	3	18	Feedback	Loss	True
186.071	2.726	Lose2	0.8421	n/a	No	2.726	n/a	n/a	LatePress	-1	0.0	n/a	3	18	ISIslide	Loss	True
188.821	0.25	Control	0.8	0.0	No	2.929	0.021	n/a	NoResponse	0	n/a	n/a	3	19	Cue	Neutral	True
189.07	3.95	Control	0.8	0.001	No	2.929	-0.001	n/a	NoResponse	0	n/a	n/a	3	19	Fixation	Neutral	True
193.019	0.21	Control	0.8	0.002	No	2.929	-0.002	4.0	NoResponse	0	0.308	192.327	3	19	Target	Neutral	True
193.236	0.49	Control	0.8	n/a	No	2.929	n/a	n/a	NoResponse	0	n/a	n/a	3	19	Blank	Neutral	True
193.327	0.3	Control	0.8	0.002	No	2.929	-0.002	4.0	NoResponse	0	0.308	n/a	3	19	ButtonPress	Neutral	True
193.719	1.45	Control	0.8	n/a	No	2.929	n/a	5.0	NoResponse	0	1.283	194.002	3	19	Feedback	Neutral	True
195.168	2.929	Control	0.8	n/a	No	2.929	n/a	n/a	NoResponse	0	0.0	n/a	3	19	ISIslide	Neutral	True
198.117	0.25	Control	0.7619	0.0	No	2.633	0.017	n/a	NoResponse	0	n/a	n/a	3	20	Cue	Neutral	True
198.367	4.05	Control	0.7619	0.0	No	2.633	0.0	n/a	NoResponse	0	n/a	n/a	3	20	Fixation	Neutral	True
202.416	0.2	Control	0.7619	0.001	No	2.633	-0.001	4.0	NoResponse	0	0.224	201.64	3	20	Target	Neutral	True
202.616	0.5	Control	0.7619	n/a	No	2.633	n/a	n/a	NoResponse	0	n/a	n/a	3	20	Blank	Neutral	True
202.64	0.3	Control	0.7619	0.001	No	2.633	-0.001	4.0	NoResponse	0	0.224	n/a	3	20	ButtonPress	Neutral	True
203.116	1.45	Control	0.7619	n/a	No	2.633	n/a	n/a	NoResponse	0	n/a	n/a	3	20	Feedback	Neutral	True
204.565	2.633	Control	0.7619	n/a	No	2.633	n/a	n/a	NoResponse	0	0.0	n/a	3	20	ISIslide	Neutral	True
207.214	0.25	Control	0.7273000000000001	0.0	No	2.786	0.014	n/a	NoResponse	0	n/a	n/a	3	21	Cue	Neutral	True
207.464	4.1	Control	0.7273000000000001	0.0	No	2.786	0.0	n/a	NoResponse	0	n/a	n/a	3	21	Fixation	Neutral	True
211.563	0.19	Control	0.7273000000000001	0.001	No	2.786	-0.001	4.0	NoResponse	0	0.25	210.813	3	21	Target	Neutral	True
211.763	0.51	Control	0.7273000000000001	n/a	No	2.786	n/a	n/a	NoResponse	0	n/a	n/a	3	21	Blank	Neutral	True
211.813	0.3	Control	0.7273000000000001	0.001	No	2.786	-0.001	4.0	NoResponse	0	0.25	n/a	3	21	ButtonPress	Neutral	True
212.262	1.45	Control	0.7273000000000001	n/a	No	2.786	n/a	5.0	NoResponse	0	0.74	212.002	3	21	Feedback	Neutral	True
213.712	2.786	Control	0.7273000000000001	n/a	No	2.786	n/a	n/a	NoResponse	0	0.0	n/a	3	21	ISIslide	Neutral	True
216.528	0.25	Control	0.6957	0.0	No	2.772	0.028	n/a	NoResponse	0	n/a	n/a	3	22	Cue	Neutral	True
216.778	4.0	Control	0.6957	0.0	No	2.772	0.0	n/a	NoResponse	0	n/a	n/a	3	22	Fixation	Neutral	True
220.776	0.18	Control	0.6957	0.002	No	2.772	-0.002	4.0	NoResponse	0	0.247	220.023	3	22	Target	Neutral	True
220.959	0.52	Control	0.6957	n/a	No	2.772	n/a	n/a	NoResponse	0	n/a	n/a	3	22	Blank	Neutral	True
221.023	0.3	Control	0.6957	0.002	No	2.772	-0.002	4.0	NoResponse	0	0.247	n/a	3	22	ButtonPress	Neutral	True
221.476	1.45	Control	0.6957	n/a	No	2.772	n/a	n/a	NoResponse	0	n/a	n/a	3	22	Feedback	Neutral	True
222.925	2.772	Control	0.6957	n/a	No	2.772	n/a	n/a	NoResponse	0	0.0	n/a	3	22	ISIslide	Neutral	True
225.724	0.25	Control	0.6667000000000001	0.0	No	2.776	0.024	n/a	NoResponse	0	n/a	n/a	3	23	Cue	Neutral	True
225.974	3.9	Control	0.6667000000000001	0.0	No	2.776	0.0	n/a	NoResponse	0	n/a	n/a	3	23	Fixation	Neutral	True
229.873	0.17	Control	0.6667000000000001	0.001	No	2.776	-0.001	4.0	NoResponse	0	0.242	229.115	3	23	Target	Neutral	True
230.04	0.53	Control	0.6667000000000001	n/a	No	2.776	n/a	n/a	NoResponse	0	n/a	n/a	3	23	Blank	Neutral	True
230.115	0.3	Control	0.6667000000000001	0.001	No	2.776	-0.001	4.0	NoResponse	0	0.242	n/a	3	23	ButtonPress	Neutral	True
230.573	1.45	Control	0.6667000000000001	n/a	No	2.776	n/a	5.0	NoResponse	0	0.429	230.002	3	23	Feedback	Neutral	True
232.022	2.776	Control	0.6667000000000001	n/a	No	2.776	n/a	n/a	NoResponse	0	0.0	n/a	3	23	ISIslide	Neutral	True
234.821	0.25	Win2	0.64	0.0	No	3.129	0.021	n/a	NoResponse	0	n/a	n/a	3	24	Cue	MissedWin	True
235.071	3.95	Win2	0.64	0.0	No	3.129	0.0	n/a	NoResponse	0	n/a	n/a	3	24	Fixation	MissedWin	True
239.02	0.16	Win2	0.64	0.001	No	3.129	-0.001	4.0	NoResponse	0	0.215	238.235	3	24	Target	MissedWin	True
239.186	0.54	Win2	0.64	n/a	No	3.129	n/a	n/a	NoResponse	0	n/a	n/a	3	24	Blank	MissedWin	True
239.235	0.3	Win2	0.64	0.001	No	3.129	-0.001	4.0	NoResponse	0	0.215	n/a	3	24	ButtonPress	MissedWin	True
239.72	1.45	Win2	0.64	n/a	No	3.129	n/a	5.0	NoResponse	0	1.282	240.002	3	24	Feedback	MissedWin	True
241.169	3.129	Win2	0.64	n/a	No	3.129	n/a	n/a	NoResponse	0	0.0	n/a	3	24	ISIslide	MissedWin	True
244.318	0.25	Win2	0.6154	0.0	No	3.082	0.018	n/a	NoResponse	0	n/a	n/a	3	25	Cue	MissedWin	True
244.568	4.0	Win2	0.6154	0.0	No	3.082	0.0	n/a	NoResponse	0	n/a	n/a	3	25	Fixation	MissedWin	True
248.567	0.17	Win2	0.6154	0.001	No	3.082	-0.001	4.0	NoResponse	0	0.214	247.781	3	25	Target	MissedWin	True
248.75	0.53	Win2	0.6154	n/a	No	3.082	n/a	n/a	NoResponse	0	n/a	n/a	3	25	Blank	MissedWin	True
248.781	0.3	Win2	0.6154	0.001	No	3.082	-0.001	4.0	NoResponse	0	0.214	n/a	3	25	ButtonPress	MissedWin	True
249.266	1.45	Win2	0.6154	n/a	No	3.082	n/a	n/a	NoResponse	0	n/a	n/a	3	25	Feedback	MissedWin	True
250.716	3.082	Win2	0.6154	n/a	No	3.082	n/a	n/a	NoResponse	0	0.0	n/a	3	25	ISIslide	MissedWin	True
253.815	0.25	Win2	0.5926	0.0	No	2.935	0.015	n/a	NoResponse	0	n/a	n/a	3	26	Cue	MissedWin	False
254.065	3.95	Win2	0.5926	0.0	No	2.935	0.0	4.0	NoResponse	0	3.144	256.209	3	26	Fixation	MissedWin	False
257.209	0.3	Win2	0.5926	0.0	No	2.935	0.0	4.0	NoResponse	0	3.144	n/a	3	26	ButtonPress	MissedWin	False
258.013	0.18	Win2	0.5926	0.002	No	2.935	-0.002	4.0	NoResponse	0	0.275	257.288	3	26	Target	MissedWin	False
258.197	0.52	Win2	0.5926	n/a	No	2.935	n/a	n/a	NoResponse	0	n/a	n/a	3	26	Blank	MissedWin	False
258.288	0.3	Win2	0.5926	0.002	No	2.935	-0.002	4.0	NoResponse	0	0.275	n/a	3	26	ButtonPress	MissedWin	False
258.713	1.45	Win2	0.5926	n/a	No	2.935	n/a	5.0	NoResponse	0	0.289	258.002	3	26	Feedback	MissedWin	False
260.163	2.935	Win2	0.5926	n/a	No	2.935	n/a	n/a	NoResponse	0	0.0	n/a	3	26	ISIslide	MissedWin	False
263.128	0.25	Lose2	0.5714	0.0	No	2.822	0.028	n/a	NoResponse	-1	n/a	n/a	2	27	Cue	Loss	True
263.378	4.05	Lose2	0.5714	0.0	No	2.822	0.0	n/a	NoResponse	-1	n/a	n/a	2	27	Fixation	Loss	True
267.427	0.19	Lose2	0.5714	0.001	No	2.822	-0.001	4.0	NoResponse	-1	0.249	266.676	2	27	Target	Loss	True
267.627	0.51	Lose2	0.5714	n/a	No	2.822	n/a	n/a	NoResponse	-1	n/a	n/a	2	27	Blank	Loss	True
267.676	0.3	Lose2	0.5714	0.001	No	2.822	-0.001	4.0	NoResponse	-1	0.249	n/a	2	27	ButtonPress	Loss	True
268.126	1.45	Lose2	0.5714	n/a	No	2.822	n/a	5.0	NoResponse	-1	0.876	268.002	2	27	Feedback	Loss	True
269.576	2.822	Lose2	0.5714	n/a	No	2.822	n/a	n/a	NoResponse	-1	0.0	n/a	2	27	ISIslide	Loss	True
272.425	0.25	Control	0.5517	0.0	No	2.825	0.025	n/a	NoResponse	0	n/a	n/a	2	28	Cue	Neutral	True
272.675	4.05	Control	0.5517	0.0	No	2.825	0.0	n/a	NoResponse	0	n/a	n/a	2	28	Fixation	Neutral	True
276.723	0.2	Control	0.5517	0.002	No	2.825	-0.002	4.0	NoResponse	0	0.231	275.954	2	28	Target	Neutral	True
276.923	0.5	Control	0.5517	n/a	No	2.825	n/a	n/a	NoResponse	0	n/a	n/a	2	28	Blank	Neutral	True
276.954	0.3	Control	0.5517	0.002	No	2.825	-0.002	4.0	NoResponse	0	0.231	n/a	2	28	ButtonPress	Neutral	True
277.423	1.45	Control	0.5517	n/a	No	2.825	n/a	n/a	NoResponse	0	n/a	n/a	2	28	Feedback	Neutral	True
278.873	2.825	Control	0.5517	n/a	No	2.825	n/a	n/a	NoResponse	0	0.0	n/a	2	28	ISIslide	Neutral	True
281.722	0.25	Lose2	0.5333	0.0	No	2.828	0.022	n/a	NoResponse	-1	n/a	n/a	1	29	Cue	Loss	True
281.972	3.95	Lose2	0.5333	0.0	No	2.828	0.0	n/a	NoResponse	-1	n/a	n/a	1	29	Fixation	Loss	True
285.92	0.21	Lose2	0.5333	0.002	No	2.828	-0.002	4.0	NoResponse	-1	0.229	285.149	1	29	Target	Loss	True
286.137	0.49	Lose2	0.5333	n/a	No	2.828	n/a	n/a	NoResponse	-1	n/a	n/a	1	29	Blank	Loss	True
286.149	0.3	Lose2	0.5333	0.002	No	2.828	-0.002	4.0	NoResponse	-1	0.229	n/a	1	29	ButtonPress	Loss	True
286.62	1.45	Lose2	0.5333	n/a	No	2.828	n/a	5.0	NoResponse	-1	0.382	286.002	1	29	Feedback	Loss	True
288.07	2.828	Lose2	0.5333	n/a	No	2.828	n/a	n/a	NoResponse	-1	0.0	n/a	1	29	ISIslide	Loss	True
290.919	0.25	Win2	0.5161	0.0	No	2.781	0.019	n/a	NoResponse	0	n/a	n/a	1	30	Cue	MissedWin	True
291.168	3.9	Win2	0.5161	0.001	No	2.781	-0.001	n/a	NoResponse	0	n/a	n/a	1	30	Fixation	MissedWin	True
295.067	0.22	Win2	0.5161	0.002	No	2.781	-0.002	4.0	NoResponse	0	0.242	294.309	1	30	Target	MissedWin	True
295.3	0.48	Win2	0.5161	n/a	No	2.781	n/a	n/a	NoResponse	0	n/a	n/a	1	30	Blank	MissedWin	True
295.309	0.3	Win2	0.5161	0.002	No	2.781	-0.002	4.0	NoResponse	0	0.242	n/a	1	30	ButtonPress	MissedWin	True
295.767	1.45	Win2	0.5161	n/a	No	2.781	n/a	5.0	NoResponse	0	1.235	296.002	1	30	Feedback	MissedWin	True
297.216	2.781	Win2	0.5161	n/a	No	2.781	n/a	n/a	NoResponse	0	0.0	n/a	1	30	ISIslide	MissedWin	True
300.015	0.25	Lose2	0.5	0.0	No	2.835	0.015	n/a	NoResponse	-1	n/a	n/a	0	31	Cue	Loss	True
300.265	4.05	Lose2	0.5	0.0	No	2.835	0.0	n/a	NoResponse	-1	n/a	n/a	0	31	Fixation	Loss	True
304.314	0.23	Lose2	0.5	0.001	No	2.835	-0.001	4.0	NoResponse	-1	0.387	303.701	0	31	Target	Loss	True
304.547	0.47	Lose2	0.5	n/a	No	2.835	n/a	n/a	NoResponse	-1	n/a	n/a	0	31	Blank	Loss	True
304.701	0.3	Lose2	0.5	0.001	No	2.835	-0.001	4.0	NoResponse	-1	0.387	n/a	0	31	ButtonPress	Loss	True
305.014	1.45	Lose2	0.5	n/a	No	2.835	n/a	n/a	NoResponse	-1	n/a	n/a	0	31	Feedback	Loss	True
306.463	2.835	Lose2	0.5	n/a	No	2.835	n/a	n/a	NoResponse	-1	0.0	n/a	0	31	ISIslide	Loss	True
309.329	0.25	Lose2	0.48479999999999995	0.0	No	2.621	0.029	n/a	LatePress	-1	n/a	n/a	-1	32	Cue	Loss	True
309.579	4.15	Lose2	0.48479999999999995	0.0	No	2.621	0.0	n/a	LatePress	-1	n/a	n/a	-1	32	Fixation	Loss	True
313.727	0.24	Lose2	0.48479999999999995	0.002	No	2.621	-0.002	4.0	LatePress	-1	0.248	312.975	-1	32	Target	Loss	True
313.975	0.3	Lose2	0.48479999999999995	0.002	No	2.621	-0.002	4.0	LatePress	-1	0.248	n/a	-1	32	ButtonPress	Loss	True
313.977	0.46	Lose2	0.48479999999999995	n/a	No	2.621	n/a	n/a	LatePress	-1	n/a	n/a	-1	32	Blank	Loss	True
314.427	1.45	Lose2	0.48479999999999995	n/a	No	2.621	n/a	5.0	LatePress	-1	0.575	314.002	-1	32	Feedback	Loss	True
315.877	2.621	Lose2	0.48479999999999995	n/a	No	2.621	n/a	n/a	LatePress	-1	0.0	n/a	-1	32	ISIslide	Loss	True
318.526	0.25	Win2	0.5	0.0	Yes	2.674	0.026	n/a	GoodResponse	1	n/a	n/a	0	33	Cue	Win	True
318.776	4.0	Win2	0.5	0.0	Yes	2.674	0.0	n/a	GoodResponse	1	n/a	n/a	0	33	Fixation	Win	True
322.774	0.25	Win2	0.5	0.002	Yes	2.674	-0.002	4.0	GoodResponse	1	0.201	321.975	0	33	Target	Win	True
322.975	0.3	Win2	0.5	0.002	Yes	2.674	-0.002	4.0	GoodResponse	1	0.201	n/a	0	33	ButtonPress	Win	True
323.024	0.45	Win2	0.5	n/a	Yes	2.674	n/a	n/a	GoodResponse	1	n/a	n/a	0	33	Blank	Win	True
323.474	1.45	Win2	0.5	n/a	Yes	2.674	n/a	n/a	GoodResponse	1	n/a	n/a	0	33	Feedback	Win	True
324.923	2.674	Win2	0.5	n/a	Yes	2.674	n/a	n/a	GoodResponse	1	0.0	n/a	0	33	ISIslide	Win	True
327.623	0.25	Lose2	0.5143	0.0	Yes	2.627	0.023	n/a	GoodResponse	0	n/a	n/a	0	34	Cue	AvoidedLoss	True
327.872	4.05	Lose2	0.5143	0.001	Yes	2.627	-0.001	n/a	GoodResponse	0	n/a	n/a	0	34	Fixation	AvoidedLoss	True
331.921	0.26	Lose2	0.5143	0.002	Yes	2.627	-0.002	4.0	GoodResponse	0	0.242	331.163	0	34	Target	AvoidedLoss	True
332.163	0.3	Lose2	0.5143	0.002	Yes	2.627	-0.002	4.0	GoodResponse	0	0.242	n/a	0	34	ButtonPress	AvoidedLoss	True
332.188	0.44	Lose2	0.5143	n/a	Yes	2.627	n/a	n/a	GoodResponse	0	n/a	n/a	0	34	Blank	AvoidedLoss	True
332.621	1.45	Lose2	0.5143	n/a	Yes	2.627	n/a	5.0	GoodResponse	0	0.38	332.001	0	34	Feedback	AvoidedLoss	True
334.07	2.627	Lose2	0.5143	n/a	Yes	2.627	n/a	n/a	GoodResponse	0	0.0	n/a	0	34	ISIslide	AvoidedLoss	True
336.719	0.25	Lose2	0.5	0.0	No	2.681	0.019	n/a	NoResponse	-1	n/a	n/a	-1	35	Cue	Loss	True
336.969	4.0	Lose2	0.5	0.0	No	2.681	0.0	n/a	NoResponse	-1	n/a	n/a	-1	35	Fixation	Loss	True
340.968	0.27	Lose2	0.5	0.001	No	2.681	-0.001	4.0	NoResponse	-1	0.287	340.255	-1	35	Target	Loss	True
341.234	0.43	Lose2	0.5	n/a	No	2.681	n/a	n/a	NoResponse	-1	n/a	n/a	-1	35	Blank	Loss	True
341.255	0.3	Lose2	0.5	0.001	No	2.681	-0.001	4.0	NoResponse	-1	0.287	n/a	-1	35	ButtonPress	Loss	True
341.668	1.45	Lose2	0.5	n/a	No	2.681	n/a	5.0	NoResponse	-1	1.333	342.001	-1	35	Feedback	Loss	True
343.117	2.681	Lose2	0.5	n/a	No	2.681	n/a	n/a	NoResponse	-1	0.0	n/a	-1	35	ISIslide	Loss	True
345.816	0.25	Control	0.5135000000000001	0.0	Yes	2.684	0.016	n/a	GoodResponse	0	n/a	n/a	-1	36	Cue	Neutral	True
346.066	4.0	Control	0.5135000000000001	0.0	Yes	2.684	0.0	n/a	GoodResponse	0	n/a	n/a	-1	36	Fixation	Neutral	True
350.065	0.28	Control	0.5135000000000001	0.001	Yes	2.684	-0.001	4.0	GoodResponse	0	0.277	349.342	-1	36	Target	Neutral	True
350.342	0.3	Control	0.5135000000000001	0.001	Yes	2.684	-0.001	4.0	GoodResponse	0	0.277	n/a	-1	36	ButtonPress	Neutral	True
350.348	0.42	Control	0.5135000000000001	n/a	Yes	2.684	n/a	n/a	GoodResponse	0	n/a	n/a	-1	36	Blank	Neutral	True
350.764	1.45	Control	0.5135000000000001	n/a	Yes	2.684	n/a	5.0	GoodResponse	0	0.237	350.001	-1	36	Feedback	Neutral	True
352.214	2.684	Control	0.5135000000000001	n/a	Yes	2.684	n/a	n/a	GoodResponse	0	0.0	n/a	-1	36	ISIslide	Neutral	True
354.93	0.25	Win2	0.5263	0.0	Yes	2.87	0.03	n/a	GoodResponse	1	n/a	n/a	0	37	Cue	Win	True
355.18	4.0	Win2	0.5263	0.0	Yes	2.87	0.0	n/a	GoodResponse	1	n/a	n/a	0	37	Fixation	Win	True
359.178	0.29	Win2	0.5263	0.002	Yes	2.87	-0.002	4.0	GoodResponse	1	0.239	358.417	0	37	Target	Win	True
359.417	0.3	Win2	0.5263	0.002	Yes	2.87	-0.002	4.0	GoodResponse	1	0.239	n/a	0	37	ButtonPress	Win	True
359.478	0.41	Win2	0.5263	n/a	Yes	2.87	n/a	n/a	GoodResponse	1	n/a	n/a	0	37	Blank	Win	True
359.878	1.45	Win2	0.5263	n/a	Yes	2.87	n/a	5.0	GoodResponse	1	1.124	360.002	0	37	Feedback	Win	True
361.328	2.87	Win2	0.5263	n/a	Yes	2.87	n/a	n/a	GoodResponse	1	0.0	n/a	0	37	ISIslide	Win	True
364.227	0.25	Lose2	0.5385	0.0	Yes	2.823	0.027	n/a	GoodResponse	0	n/a	n/a	0	38	Cue	AvoidedLoss	True
364.476	3.95	Lose2	0.5385	0.001	Yes	2.823	-0.001	n/a	GoodResponse	0	n/a	n/a	0	38	Fixation	AvoidedLoss	True
368.425	0.3	Lose2	0.5385	0.002	Yes	2.823	-0.002	4.0	GoodResponse	0	0.218	367.643	0	38	Target	AvoidedLoss	True
368.643	0.3	Lose2	0.5385	0.002	Yes	2.823	-0.002	4.0	GoodResponse	0	0.218	n/a	0	38	ButtonPress	AvoidedLoss	True
368.725	0.4	Lose2	0.5385	n/a	Yes	2.823	n/a	n/a	GoodResponse	0	n/a	n/a	0	38	Blank	AvoidedLoss	True
369.125	1.45	Lose2	0.5385	n/a	Yes	2.823	n/a	n/a	GoodResponse	0	n/a	n/a	0	38	Feedback	AvoidedLoss	True
370.574	2.823	Lose2	0.5385	n/a	Yes	2.823	n/a	n/a	GoodResponse	0	0.0	n/a	0	38	ISIslide	AvoidedLoss	True
373.423	0.25	Win2	0.55	0.0	Yes	2.977	0.023	n/a	GoodResponse	1	n/a	n/a	1	39	Cue	Win	True
373.673	4.1	Win2	0.55	0.0	Yes	2.977	0.0	n/a	GoodResponse	1	n/a	n/a	1	39	Fixation	Win	True
377.772	0.31	Win2	0.55	0.001	Yes	2.977	-0.001	4.0	GoodResponse	1	0.221	376.993	1	39	Target	Win	True
377.993	0.3	Win2	0.55	0.001	Yes	2.977	-0.001	4.0	GoodResponse	1	0.221	n/a	1	39	ButtonPress	Win	True
378.088	0.39	Win2	0.55	n/a	Yes	2.977	n/a	n/a	GoodResponse	1	n/a	n/a	1	39	Blank	Win	True
378.472	1.45	Win2	0.55	n/a	Yes	2.977	n/a	5.0	GoodResponse	1	0.53	378.002	1	39	Feedback	Win	True
379.921	2.977	Win2	0.55	n/a	Yes	2.977	n/a	n/a	GoodResponse	1	0.0	n/a	1	39	ISIslide	Win	True
382.92	0.25	Win2	0.561	0.0	Yes	2.73	0.02	n/a	GoodResponse	1	n/a	n/a	2	40	Cue	Win	True
383.17	3.95	Win2	0.561	0.0	Yes	2.73	0.0	n/a	GoodResponse	1	n/a	n/a	2	40	Fixation	Win	True
387.119	0.32	Win2	0.561	0.001	Yes	2.73	-0.001	4.0	GoodResponse	1	0.254	386.373	2	40	Target	Win	True
387.373	0.3	Win2	0.561	0.001	Yes	2.73	-0.001	4.0	GoodResponse	1	0.254	n/a	2	40	ButtonPress	Win	True
387.452	0.38	Win2	0.561	n/a	Yes	2.73	n/a	n/a	GoodResponse	1	n/a	n/a	2	40	Blank	Win	True
387.818	1.45	Win2	0.561	n/a	Yes	2.73	n/a	5.0	GoodResponse	1	1.183	388.001	2	40	Feedback	Win	True
389.268	2.73	Win2	0.561	n/a	Yes	2.73	n/a	n/a	GoodResponse	1	0.0	n/a	2	40	ISIslide	Win	True
392.017	0.25	Win2	0.5714	0.0	Yes	2.783	0.017	n/a	GoodResponse	1	n/a	n/a	3	41	Cue	Win	True
392.267	3.9	Win2	0.5714	0.0	Yes	2.783	0.0	n/a	GoodResponse	1	n/a	n/a	3	41	Fixation	Win	True
396.165	0.33	Win2	0.5714	0.002	Yes	2.783	-0.002	4.0	GoodResponse	1	0.294	395.459	3	41	Target	Win	True
396.459	0.3	Win2	0.5714	0.002	Yes	2.783	-0.002	4.0	GoodResponse	1	0.294	n/a	3	41	ButtonPress	Win	True
396.499	0.37	Win2	0.5714	n/a	Yes	2.783	n/a	n/a	GoodResponse	1	n/a	n/a	3	41	Blank	Win	True
396.865	1.45	Win2	0.5714	n/a	Yes	2.783	n/a	5.0	GoodResponse	1	0.136	396.001	3	41	Feedback	Win	True
398.315	2.783	Win2	0.5714	n/a	Yes	2.783	n/a	n/a	GoodResponse	1	0.0	n/a	3	41	ISIslide	Win	True
401.114	0.25	Control	0.5814	0.0	Yes	2.936	0.014	n/a	GoodResponse	0	n/a	n/a	3	42	Cue	Neutral	True
401.364	3.85	Control	0.5814	0.0	Yes	2.936	0.0	n/a	GoodResponse	0	n/a	n/a	3	42	Fixation	Neutral	True
405.212	0.34	Control	0.5814	0.002	Yes	2.936	-0.002	4.0	GoodResponse	0	0.26	404.472	3	42	Target	Neutral	True
405.472	0.3	Control	0.5814	0.002	Yes	2.936	-0.002	4.0	GoodResponse	0	0.26	n/a	3	42	ButtonPress	Neutral	True
405.562	0.36	Control	0.5814	n/a	Yes	2.936	n/a	n/a	GoodResponse	0	n/a	n/a	3	42	Blank	Neutral	True
405.912	1.45	Control	0.5814	n/a	Yes	2.936	n/a	5.0	GoodResponse	0	1.089	406.001	3	42	Feedback	Neutral	True
407.362	2.936	Control	0.5814	n/a	Yes	2.936	n/a	n/a	GoodResponse	0	0.0	n/a	3	42	ISIslide	Neutral	True
410.327	0.25	Win2	0.5909	0.0	Yes	3.173	0.027	n/a	GoodResponse	1	n/a	n/a	4	43	Cue	Win	True
410.577	4.0	Win2	0.5909	0.0	Yes	3.173	0.0	n/a	GoodResponse	1	n/a	n/a	4	43	Fixation	Win	True
414.576	0.35	Win2	0.5909	0.001	Yes	3.173	-0.001	4.0	GoodResponse	1	0.23	413.806	4	43	Target	Win	True
414.806	0.3	Win2	0.5909	0.001	Yes	3.173	-0.001	4.0	GoodResponse	1	0.23	n/a	4	43	ButtonPress	Win	True
414.926	0.35	Win2	0.5909	n/a	Yes	3.173	n/a	n/a	GoodResponse	1	n/a	n/a	4	43	Blank	Win	True
415.276	1.45	Win2	0.5909	n/a	Yes	3.173	n/a	n/a	GoodResponse	1	n/a	n/a	4	43	Feedback	Win	True
416.725	3.173	Win2	0.5909	n/a	Yes	3.173	n/a	n/a	GoodResponse	1	0.0	n/a	4	43	ISIslide	Win	True
419.924	0.25	Win2	0.6	0.0	Yes	2.976	0.024	n/a	GoodResponse	1	n/a	n/a	5	44	Cue	Win	True
420.174	4.0	Win2	0.6	0.0	Yes	2.976	0.0	n/a	GoodResponse	1	n/a	n/a	5	44	Fixation	Win	True
424.172	0.36	Win2	0.6	0.002	Yes	2.976	-0.002	4.0	GoodResponse	1	0.275	423.447	5	44	Target	Win	True
424.447	0.3	Win2	0.6	0.002	Yes	2.976	-0.002	4.0	GoodResponse	1	0.275	n/a	5	44	ButtonPress	Win	True
424.539	0.34	Win2	0.6	n/a	Yes	2.976	n/a	n/a	GoodResponse	1	n/a	n/a	5	44	Blank	Win	True
424.872	1.45	Win2	0.6	n/a	Yes	2.976	n/a	5.0	GoodResponse	1	0.129	424.001	5	44	Feedback	Win	True
426.322	2.976	Win2	0.6	n/a	Yes	2.976	n/a	n/a	GoodResponse	1	0.0	n/a	5	44	ISIslide	Win	True
429.321	0.25	Control	0.6087	0.0	Yes	2.879	0.021	n/a	GoodResponse	0	n/a	n/a	5	45	Cue	Neutral	True
429.571	4.1	Control	0.6087	0.0	Yes	2.879	0.0	n/a	GoodResponse	0	n/a	n/a	5	45	Fixation	Neutral	True
433.669	0.37	Control	0.6087	0.002	Yes	2.879	-0.002	4.0	GoodResponse	0	0.26	432.929	5	45	Target	Neutral	True
433.929	0.3	Control	0.6087	0.002	Yes	2.879	-0.002	4.0	GoodResponse	0	0.26	n/a	5	45	ButtonPress	Neutral	True
434.052	0.33	Control	0.6087	n/a	Yes	2.879	n/a	n/a	GoodResponse	0	n/a	n/a	5	45	Blank	Neutral	True
434.369	1.45	Control	0.6087	n/a	Yes	2.879	n/a	5.0	GoodResponse	0	0.633	434.002	5	45	Feedback	Neutral	True
435.818	2.879	Control	0.6087	n/a	Yes	2.879	n/a	n/a	GoodResponse	0	0.0	n/a	5	45	ISIslide	Neutral	True
438.717	0.25	Lose2	0.617	0.001	Yes	3.383	0.017	n/a	GoodResponse	0	n/a	n/a	5	46	Cue	AvoidedLoss	True
438.967	4.0	Lose2	0.617	0.0	Yes	3.383	0.0	n/a	GoodResponse	0	n/a	n/a	5	46	Fixation	AvoidedLoss	True
442.966	0.38	Lose2	0.617	0.001	Yes	3.383	-0.001	4.0	GoodResponse	0	0.232	442.198	5	46	Target	AvoidedLoss	True
443.198	0.3	Lose2	0.617	0.001	Yes	3.383	-0.001	4.0	GoodResponse	0	0.232	n/a	5	46	ButtonPress	AvoidedLoss	True
443.349	0.32	Lose2	0.617	n/a	Yes	3.383	n/a	n/a	GoodResponse	0	n/a	n/a	5	46	Blank	AvoidedLoss	True
443.666	1.45	Lose2	0.617	n/a	Yes	3.383	n/a	5.0	GoodResponse	0	1.336	444.002	5	46	Feedback	AvoidedLoss	True
445.115	3.383	Lose2	0.617	n/a	Yes	3.383	n/a	n/a	GoodResponse	0	0.0	n/a	5	46	ISIslide	AvoidedLoss	True
448.531	0.25	Lose2	0.625	0.0	Yes	2.669	0.031	n/a	GoodResponse	0	n/a	n/a	5	47	Cue	AvoidedLoss	True
448.781	4.0	Lose2	0.625	0.0	Yes	2.669	0.0	n/a	GoodResponse	0	n/a	n/a	5	47	Fixation	AvoidedLoss	True
452.779	0.39	Lose2	0.625	0.002	Yes	2.669	-0.002	4.0	GoodResponse	0	0.354	452.133	5	47	Target	AvoidedLoss	True
453.133	0.3	Lose2	0.625	0.002	Yes	2.669	-0.002	4.0	GoodResponse	0	0.354	n/a	5	47	ButtonPress	AvoidedLoss	True
453.179	0.31	Lose2	0.625	n/a	Yes	2.669	n/a	n/a	GoodResponse	0	n/a	n/a	5	47	Blank	AvoidedLoss	True
453.479	1.45	Lose2	0.625	n/a	Yes	2.669	n/a	n/a	GoodResponse	0	n/a	n/a	5	47	Feedback	AvoidedLoss	True
454.928	2.669	Lose2	0.625	n/a	Yes	2.669	n/a	n/a	GoodResponse	0	0.0	n/a	5	47	ISIslide	AvoidedLoss	True
457.628	0.25	Lose2	0.6327	0.0	Yes	3.022	0.028	n/a	GoodResponse	0	n/a	n/a	5	48	Cue	AvoidedLoss	True
457.877	3.95	Lose2	0.6327	0.001	Yes	3.022	-0.001	n/a	GoodResponse	0	n/a	n/a	5	48	Fixation	AvoidedLoss	True
461.826	0.4	Lose2	0.6327	0.002	Yes	3.022	-0.002	4.0	GoodResponse	0	0.249	461.075	5	48	Target	AvoidedLoss	True
462.075	0.3	Lose2	0.6327	0.002	Yes	3.022	-0.002	4.0	GoodResponse	0	0.249	n/a	5	48	ButtonPress	AvoidedLoss	True
462.226	0.3	Lose2	0.6327	n/a	Yes	3.022	n/a	n/a	GoodResponse	0	n/a	n/a	5	48	Blank	AvoidedLoss	True
462.526	1.45	Lose2	0.6327	n/a	Yes	3.022	n/a	5.0	GoodResponse	0	0.475	462.001	5	48	Feedback	AvoidedLoss	True
463.975	3.022	Lose2	0.6327	n/a	Yes	3.022	n/a	n/a	GoodResponse	0	0.0	n/a	5	48	ISIslide	AvoidedLoss	True
467.024	0.25	Control	0.64	0.0	Yes	2.876	0.024	n/a	GoodResponse	0	n/a	n/a	5	49	Cue	Neutral	True
467.274	4.0	Control	0.64	0.0	Yes	2.876	0.0	n/a	GoodResponse	0	n/a	n/a	5	49	Fixation	Neutral	True
471.273	0.41	Control	0.64	0.001	Yes	2.876	-0.001	4.0	GoodResponse	0	0.251	470.524	5	49	Target	Neutral	True
471.524	0.3	Control	0.64	0.001	Yes	2.876	-0.001	4.0	GoodResponse	0	0.251	n/a	5	49	ButtonPress	Neutral	True
471.689	0.29	Control	0.64	n/a	Yes	2.876	n/a	n/a	GoodResponse	0	n/a	n/a	5	49	Blank	Neutral	True
471.973	1.45	Control	0.64	n/a	Yes	2.876	n/a	5.0	GoodResponse	0	1.028	472.001	5	49	Feedback	Neutral	True
473.422	2.876	Control	0.64	n/a	Yes	2.876	n/a	n/a	GoodResponse	0	0.0	n/a	5	49	ISIslide	Neutral	True
476.321	0.25	Control	0.6470999999999999	0.0	Yes	2.779	0.021	n/a	GoodResponse	0	n/a	n/a	5	50	Cue	Neutral	True
476.571	4.0	Control	0.6470999999999999	0.0	Yes	2.779	0.0	n/a	GoodResponse	0	n/a	n/a	5	50	Fixation	Neutral	True
480.57	0.42	Control	0.6470999999999999	0.001	Yes	2.779	-0.001	4.0	GoodResponse	0	0.236	479.806	5	50	Target	Neutral	True
480.806	0.3	Control	0.6470999999999999	0.001	Yes	2.779	-0.001	4.0	GoodResponse	0	0.236	n/a	5	50	ButtonPress	Neutral	True
481.003	0.28	Control	0.6470999999999999	n/a	Yes	2.779	n/a	n/a	GoodResponse	0	n/a	n/a	5	50	Blank	Neutral	True
481.269	1.45	Control	0.6470999999999999	n/a	Yes	2.779	n/a	n/a	GoodResponse	0	n/a	n/a	5	50	Feedback	Neutral	True
482.719	2.779	Control	0.6470999999999999	n/a	Yes	2.779	n/a	n/a	GoodResponse	0	0.0	n/a	5	50	ISIslide	Neutral	True
485.518	0.25	Control	0.6537999999999999	0.0	Yes	2.732	0.018	n/a	GoodResponse	0	n/a	n/a	5	51	Cue	Neutral	True
485.768	3.95	Control	0.6537999999999999	0.0	Yes	2.732	0.0	n/a	GoodResponse	0	n/a	n/a	5	51	Fixation	Neutral	True
489.716	0.43	Control	0.6537999999999999	0.002	Yes	2.732	-0.002	4.0	GoodResponse	0	0.293	489.009	5	51	Target	Neutral	True
490.009	0.3	Control	0.6537999999999999	0.002	Yes	2.732	-0.002	4.0	GoodResponse	0	0.293	n/a	5	51	ButtonPress	Neutral	True
490.15	0.27	Control	0.6537999999999999	n/a	Yes	2.732	n/a	n/a	GoodResponse	0	n/a	n/a	5	51	Blank	Neutral	True
490.416	1.45	Control	0.6537999999999999	n/a	Yes	2.732	n/a	5.0	GoodResponse	0	0.585	490.001	5	51	Feedback	Neutral	True
491.866	2.732	Control	0.6537999999999999	n/a	Yes	2.732	n/a	n/a	GoodResponse	0	0.0	n/a	5	51	ISIslide	Neutral	True
494.615	0.25	Control	0.6604000000000001	0.0	Yes	2.635	0.015	n/a	GoodResponse	0	n/a	n/a	5	52	Cue	Neutral	True
494.865	4.05	Control	0.6604000000000001	0.0	Yes	2.635	0.0	n/a	GoodResponse	0	n/a	n/a	5	52	Fixation	Neutral	True
498.913	0.44	Control	0.6604000000000001	0.002	Yes	2.635	-0.002	4.0	GoodResponse	0	0.218	498.131	5	52	Target	Neutral	True
499.131	0.3	Control	0.6604000000000001	0.002	Yes	2.635	-0.002	4.0	GoodResponse	0	0.218	n/a	5	52	ButtonPress	Neutral	True
499.363	0.26	Control	0.6604000000000001	n/a	Yes	2.635	n/a	n/a	GoodResponse	0	n/a	n/a	5	52	Blank	Neutral	True
499.613	1.45	Control	0.6604000000000001	n/a	Yes	2.635	n/a	5.0	GoodResponse	0	1.388	500.001	5	52	Feedback	Neutral	True
501.063	2.635	Control	0.6604000000000001	n/a	Yes	2.635	n/a	n/a	GoodResponse	0	0.0	n/a	5	52	ISIslide	Neutral	True
503.728	0.25	Win2	0.6667000000000001	0.0	Yes	2.922	0.028	n/a	GoodResponse	1	n/a	n/a	6	53	Cue	Win	True
503.978	4.05	Win2	0.6667000000000001	0.0	Yes	2.922	0.0	n/a	GoodResponse	1	n/a	n/a	6	53	Fixation	Win	True
508.027	0.44	Win2	0.6667000000000001	0.001	Yes	2.922	-0.001	4.0	GoodResponse	1	0.261	507.288	6	53	Target	Win	True
508.288	0.3	Win2	0.6667000000000001	0.001	Yes	2.922	-0.001	4.0	GoodResponse	1	0.261	n/a	6	53	ButtonPress	Win	True
508.477	0.26	Win2	0.6667000000000001	n/a	Yes	2.922	n/a	n/a	GoodResponse	1	n/a	n/a	6	53	Blank	Win	True
508.727	1.45	Win2	0.6667000000000001	n/a	Yes	2.922	n/a	5.0	GoodResponse	1	0.273	508.0	6	53	Feedback	Win	True
510.176	2.922	Win2	0.6667000000000001	n/a	Yes	2.922	n/a	n/a	GoodResponse	1	0.0	n/a	6	53	ISIslide	Win	True
513.125	0.25	Win2	0.6727	0.0	Yes	2.725	0.025	n/a	GoodResponse	1	n/a	n/a	7	54	Cue	Win	True
513.375	3.95	Win2	0.6727	0.0	Yes	2.725	0.0	n/a	GoodResponse	1	n/a	n/a	7	54	Fixation	Win	True
517.324	0.43	Win2	0.6727	0.001	Yes	2.725	-0.001	4.0	GoodResponse	1	0.242	516.566	7	54	Target	Win	True
517.566	0.3	Win2	0.6727	0.001	Yes	2.725	-0.001	4.0	GoodResponse	1	0.242	n/a	7	54	ButtonPress	Win	True
517.757	0.27	Win2	0.6727	n/a	Yes	2.725	n/a	n/a	GoodResponse	1	n/a	n/a	7	54	Blank	Win	True
518.023	1.45	Win2	0.6727	n/a	Yes	2.725	n/a	5.0	GoodResponse	1	0.978	518.001	7	54	Feedback	Win	True
519.473	2.725	Win2	0.6727	n/a	Yes	2.725	n/a	n/a	GoodResponse	1	0.0	n/a	7	54	ISIslide	Win	True
522.222	0.25	Control	0.6786	0.0	Yes	3.028	0.022	n/a	GoodResponse	0	n/a	n/a	7	55	Cue	Neutral	True
522.472	3.95	Control	0.6786	0.0	Yes	3.028	0.0	n/a	GoodResponse	0	n/a	n/a	7	55	Fixation	Neutral	True
526.42	0.42	Control	0.6786	0.002	Yes	3.028	-0.002	4.0	GoodResponse	0	0.258	525.678	7	55	Target	Neutral	True
526.678	0.3	Control	0.6786	0.002	Yes	3.028	-0.002	4.0	GoodResponse	0	0.258	n/a	7	55	ButtonPress	Neutral	True
526.854	0.28	Control	0.6786	n/a	Yes	3.028	n/a	n/a	GoodResponse	0	n/a	n/a	7	55	Blank	Neutral	True
527.12	1.45	Control	0.6786	n/a	Yes	3.028	n/a	n/a	GoodResponse	0	n/a	n/a	7	55	Feedback	Neutral	True
528.57	3.028	Control	0.6786	n/a	Yes	3.028	n/a	n/a	GoodResponse	0	0.0	n/a	7	55	ISIslide	Neutral	True
531.619	0.25	Control	0.6842	0.0	Yes	2.831	0.019	n/a	GoodResponse	0	n/a	n/a	7	56	Cue	Neutral	True
531.869	3.95	Control	0.6842	0.0	Yes	2.831	0.0	n/a	GoodResponse	0	n/a	n/a	7	56	Fixation	Neutral	True
535.817	0.41	Control	0.6842	0.002	Yes	2.831	-0.002	4.0	GoodResponse	0	0.351	535.168	7	56	Target	Neutral	True
536.168	0.3	Control	0.6842	0.002	Yes	2.831	-0.002	4.0	GoodResponse	0	0.351	n/a	7	56	ButtonPress	Neutral	True
536.234	0.29	Control	0.6842	n/a	Yes	2.831	n/a	n/a	GoodResponse	0	n/a	n/a	7	56	Blank	Neutral	True
536.517	1.45	Control	0.6842	n/a	Yes	2.831	n/a	5.0	GoodResponse	0	0.484	536.001	7	56	Feedback	Neutral	True
537.966	2.831	Control	0.6842	n/a	Yes	2.831	n/a	n/a	GoodResponse	0	0.0	n/a	7	56	ISIslide	Neutral	True
540.815	0.25	Control	0.6897	0.001	Yes	3.485	0.015	n/a	GoodResponse	0	n/a	n/a	7	57	Cue	Neutral	False
541.065	4.0	Control	0.6897	0.0	Yes	3.485	0.0	4.0	GoodResponse	0	0.037	540.102	7	57	Fixation	Neutral	False
541.102	0.3	Control	0.6897	0.0	Yes	3.485	0.0	4.0	GoodResponse	0	0.037	n/a	7	57	ButtonPress	Neutral	False
545.064	0.4	Control	0.6897	0.001	Yes	3.485	-0.001	4.0	GoodResponse	0	0.347	544.411	7	57	Target	Neutral	False
545.411	0.3	Control	0.6897	0.001	Yes	3.485	-0.001	4.0	GoodResponse	0	0.347	n/a	7	57	ButtonPress	Neutral	False
545.464	0.3	Control	0.6897	n/a	Yes	3.485	n/a	n/a	GoodResponse	0	n/a	n/a	7	57	Blank	Neutral	False
545.764	1.45	Control	0.6897	n/a	Yes	3.485	n/a	5.0	GoodResponse	0	1.237	546.001	7	57	Feedback	Neutral	False
547.213	3.485	Control	0.6897	n/a	Yes	3.485	n/a	n/a	GoodResponse	0	0.0	n/a	7	57	ISIslide	Neutral	False
550.729	0.25	Win2	0.6949	0.0	Yes	2.721	0.029	n/a	GoodResponse	1	n/a	n/a	8	58	Cue	Win	False
550.979	4.05	Win2	0.6949	0.0	Yes	2.721	0.0	4.0	GoodResponse	1	0.029	550.008	8	58	Fixation	Win	False
551.008	0.3	Win2	0.6949	0.0	Yes	2.721	0.0	4.0	GoodResponse	1	0.029	n/a	8	58	ButtonPress	Win	False
555.027	0.39	Win2	0.6949	0.002	Yes	2.721	-0.002	4.0	GoodResponse	1	0.271	554.298	8	58	Target	Win	False
555.298	0.3	Win2	0.6949	0.002	Yes	2.721	-0.002	4.0	GoodResponse	1	0.271	n/a	8	58	ButtonPress	Win	False
555.427	0.31	Win2	0.6949	n/a	Yes	2.721	n/a	n/a	GoodResponse	1	n/a	n/a	8	58	Blank	Win	False
555.727	1.45	Win2	0.6949	n/a	Yes	2.721	n/a	5.0	GoodResponse	1	1.274	556.001	8	58	Feedback	Win	False
557.176	2.721	Win2	0.6949	n/a	Yes	2.721	n/a	n/a	GoodResponse	1	0.0	n/a	8	58	ISIslide	Win	False
559.926	0.25	Lose2	0.7	0.0	Yes	2.674	0.026	n/a	GoodResponse	0	n/a	n/a	8	59	Cue	AvoidedLoss	True
560.175	4.0	Lose2	0.7	0.001	Yes	2.674	-0.001	n/a	GoodResponse	0	n/a	n/a	8	59	Fixation	AvoidedLoss	True
564.174	0.38	Lose2	0.7	0.002	Yes	2.674	-0.002	4.0	GoodResponse	0	0.288	563.462	8	59	Target	AvoidedLoss	True
564.462	0.3	Lose2	0.7	0.002	Yes	2.674	-0.002	4.0	GoodResponse	0	0.288	n/a	8	59	ButtonPress	AvoidedLoss	True
564.557	0.32	Lose2	0.7	n/a	Yes	2.674	n/a	n/a	GoodResponse	0	n/a	n/a	8	59	Blank	AvoidedLoss	True
564.874	1.45	Lose2	0.7	n/a	Yes	2.674	n/a	5.0	GoodResponse	0	0.127	564.001	8	59	Feedback	AvoidedLoss	True
566.323	2.674	Lose2	0.7	n/a	Yes	2.674	n/a	n/a	GoodResponse	0	0.0	n/a	8	59	ISIslide	AvoidedLoss	True
569.022	0.25	Control	0.7049	0.0	Yes	2.678	0.022	n/a	GoodResponse	0	n/a	n/a	8	60	Cue	Neutral	True
569.272	4.0	Control	0.7049	0.0	Yes	2.678	0.0	n/a	GoodResponse	0	n/a	n/a	8	60	Fixation	Neutral	True
573.271	0.37	Control	0.7049	0.001	Yes	2.678	-0.001	4.0	GoodResponse	0	0.246	572.517	8	60	Target	Neutral	True
573.517	0.3	Control	0.7049	0.001	Yes	2.678	-0.001	4.0	GoodResponse	0	0.246	n/a	8	60	ButtonPress	Neutral	True
573.637	0.33	Control	0.7049	n/a	Yes	2.678	n/a	n/a	GoodResponse	0	n/a	n/a	8	60	Blank	Neutral	True
573.971	1.45	Control	0.7049	n/a	Yes	2.678	n/a	5.0	GoodResponse	0	1.029	574.0	8	60	Feedback	Neutral	True
575.42	2.678	Control	0.7049	n/a	Yes	2.678	n/a	n/a	GoodResponse	0	0.0	n/a	8	60	ISIslide	Neutral	True
578.119	0.25	Lose2	0.7097	0.0	Yes	2.981	0.019	n/a	GoodResponse	0	n/a	n/a	8	61	Cue	AvoidedLoss	False
578.369	4.0	Lose2	0.7097	0.0	Yes	2.981	0.0	4.0	GoodResponse	0	2.536	579.905	8	61	Fixation	AvoidedLoss	False
580.905	0.3	Lose2	0.7097	0.0	Yes	2.981	0.0	4.0	GoodResponse	0	2.536	n/a	8	61	ButtonPress	AvoidedLoss	False
582.368	0.36	Lose2	0.7097	0.001	Yes	2.981	-0.001	4.0	GoodResponse	0	0.235	581.603	8	61	Target	AvoidedLoss	False
582.603	0.3	Lose2	0.7097	0.001	Yes	2.981	-0.001	4.0	GoodResponse	0	0.235	n/a	8	61	ButtonPress	AvoidedLoss	False
582.734	0.34	Lose2	0.7097	n/a	Yes	2.981	n/a	n/a	GoodResponse	0	n/a	n/a	8	61	Blank	AvoidedLoss	False
583.068	1.45	Lose2	0.7097	n/a	Yes	2.981	n/a	n/a	GoodResponse	0	n/a	n/a	8	61	Feedback	AvoidedLoss	False
584.517	2.981	Lose2	0.7097	n/a	Yes	2.981	n/a	n/a	GoodResponse	0	0.0	n/a	8	61	ISIslide	AvoidedLoss	False
587.516	0.25	Lose2	0.7143	0.0	Yes	2.884	0.016	n/a	GoodResponse	0	n/a	n/a	8	62	Cue	AvoidedLoss	True
587.766	3.9	Lose2	0.7143	0.0	Yes	2.884	0.0	n/a	GoodResponse	0	n/a	n/a	8	62	Fixation	AvoidedLoss	True
591.665	0.35	Lose2	0.7143	0.001	Yes	2.884	-0.001	4.0	GoodResponse	0	0.254	590.919	8	62	Target	AvoidedLoss	True
591.919	0.3	Lose2	0.7143	0.001	Yes	2.884	-0.001	4.0	GoodResponse	0	0.254	n/a	8	62	ButtonPress	AvoidedLoss	True
592.014	0.35	Lose2	0.7143	n/a	Yes	2.884	n/a	n/a	GoodResponse	0	n/a	n/a	8	62	Blank	AvoidedLoss	True
592.364	1.45	Lose2	0.7143	n/a	Yes	2.884	n/a	5.0	GoodResponse	0	0.637	592.001	8	62	Feedback	AvoidedLoss	True
593.814	2.884	Lose2	0.7143	n/a	Yes	2.884	n/a	n/a	GoodResponse	0	0.0	n/a	8	62	ISIslide	AvoidedLoss	True
596.729	0.25	Lose2	0.7188	0.001	Yes	2.621	0.029	n/a	GoodResponse	0	n/a	n/a	8	63	Cue	AvoidedLoss	True
596.979	4.05	Lose2	0.7188	0.0	Yes	2.621	0.0	n/a	GoodResponse	0	n/a	n/a	8	63	Fixation	AvoidedLoss	True
601.028	0.34	Lose2	0.7188	0.001	Yes	2.621	-0.001	4.0	GoodResponse	0	0.272	600.3	8	63	Target	AvoidedLoss	True
601.3	0.3	Lose2	0.7188	0.001	Yes	2.621	-0.001	4.0	GoodResponse	0	0.272	n/a	8	63	ButtonPress	AvoidedLoss	True
601.378	0.36	Lose2	0.7188	n/a	Yes	2.621	n/a	n/a	GoodResponse	0	n/a	n/a	8	63	Blank	AvoidedLoss	True
601.728	1.45	Lose2	0.7188	n/a	Yes	2.621	n/a	5.0	GoodResponse	0	1.273	602.001	8	63	Feedback	AvoidedLoss	True
603.177	2.621	Lose2	0.7188	n/a	Yes	2.621	n/a	n/a	GoodResponse	0	0.0	n/a	8	63	ISIslide	AvoidedLoss	True
605.826	0.25	Win2	0.7231000000000001	0.0	Yes	3.124	0.026	n/a	GoodResponse	1	n/a	n/a	9	64	Cue	Win	True
606.076	4.15	Win2	0.7231000000000001	0.0	Yes	3.124	0.0	n/a	GoodResponse	1	n/a	n/a	9	64	Fixation	Win	True
610.225	0.33	Win2	0.7231000000000001	0.001	Yes	3.124	-0.001	4.0	GoodResponse	1	0.247	609.472	9	64	Target	Win	True
610.472	0.3	Win2	0.7231000000000001	0.001	Yes	3.124	-0.001	4.0	GoodResponse	1	0.247	n/a	9	64	ButtonPress	Win	True
610.558	0.37	Win2	0.7231000000000001	n/a	Yes	3.124	n/a	n/a	GoodResponse	1	n/a	n/a	9	64	Blank	Win	True
610.925	1.45	Win2	0.7231000000000001	n/a	Yes	3.124	n/a	5.0	GoodResponse	1	0.076	610.001	9	64	Feedback	Win	True
612.374	3.124	Win2	0.7231000000000001	n/a	Yes	3.124	n/a	n/a	GoodResponse	1	0.0	n/a	9	64	ISIslide	Win	True
615.523	0.25	Control	0.7273000000000001	0.0	Yes	2.777	0.023	n/a	GoodResponse	0	n/a	n/a	9	65	Cue	Neutral	True
615.773	4.0	Control	0.7273000000000001	0.0	Yes	2.777	0.0	n/a	GoodResponse	0	n/a	n/a	9	65	Fixation	Neutral	True
619.771	0.32	Control	0.7273000000000001	0.002	Yes	2.777	-0.002	4.0	GoodResponse	0	0.254	619.025	9	65	Target	Neutral	True
620.025	0.3	Control	0.7273000000000001	0.002	Yes	2.777	-0.002	4.0	GoodResponse	0	0.254	n/a	9	65	ButtonPress	Neutral	True
620.105	0.38	Control	0.7273000000000001	n/a	Yes	2.777	n/a	n/a	GoodResponse	0	n/a	n/a	9	65	Blank	Neutral	True
620.471	1.45	Control	0.7273000000000001	n/a	Yes	2.777	n/a	5.0	GoodResponse	0	0.53	620.001	9	65	Feedback	Neutral	True
621.921	2.777	Control	0.7273000000000001	n/a	Yes	2.777	n/a	n/a	GoodResponse	0	0.0	n/a	9	65	ISIslide	Neutral	True
624.72	0.25	Win2	0.7313	0.0	Yes	2.78	0.02	n/a	GoodResponse	1	n/a	n/a	10	66	Cue	Win	True
624.97	3.9	Win2	0.7313	0.0	Yes	2.78	0.0	n/a	GoodResponse	1	n/a	n/a	10	66	Fixation	Win	True
628.868	0.31	Win2	0.7313	0.002	Yes	2.78	-0.002	4.0	GoodResponse	1	0.255	628.123	10	66	Target	Win	True
629.123	0.3	Win2	0.7313	0.002	Yes	2.78	-0.002	4.0	GoodResponse	1	0.255	n/a	10	66	ButtonPress	Win	True
629.185	0.39	Win2	0.7313	n/a	Yes	2.78	n/a	n/a	GoodResponse	1	n/a	n/a	10	66	Blank	Win	True
629.568	1.45	Win2	0.7313	n/a	Yes	2.78	n/a	5.0	GoodResponse	1	1.432	630.0	10	66	Feedback	Win	True
631.018	2.78	Win2	0.7313	n/a	Yes	2.78	n/a	n/a	GoodResponse	1	0.0	n/a	10	66	ISIslide	Win	True
633.817	0.25	Control	0.7353000000000001	0.0	Yes	2.733	0.017	n/a	GoodResponse	0	n/a	n/a	10	67	Cue	Neutral	True
634.067	3.95	Control	0.7353000000000001	0.0	Yes	2.733	0.0	n/a	GoodResponse	0	n/a	n/a	10	67	Fixation	Neutral	True
638.015	0.3	Control	0.7353000000000001	0.002	Yes	2.733	-0.002	4.0	GoodResponse	0	0.268	637.283	10	67	Target	Neutral	True
638.283	0.3	Control	0.7353000000000001	0.002	Yes	2.733	-0.002	4.0	GoodResponse	0	0.268	n/a	10	67	ButtonPress	Neutral	True
638.315	0.4	Control	0.7353000000000001	n/a	Yes	2.733	n/a	n/a	GoodResponse	0	n/a	n/a	10	67	Blank	Neutral	True
638.715	1.45	Control	0.7353000000000001	n/a	Yes	2.733	n/a	5.0	GoodResponse	0	0.285	638.0	10	67	Feedback	Neutral	True
640.164	2.733	Control	0.7353000000000001	n/a	Yes	2.733	n/a	n/a	GoodResponse	0	0.0	n/a	10	67	ISIslide	Neutral	True
642.93	0.25	Win2	0.7391	0.0	Yes	3.07	0.03	n/a	GoodResponse	1	n/a	n/a	11	68	Cue	Win	True
643.18	4.0	Win2	0.7391	0.0	Yes	3.07	0.0	n/a	GoodResponse	1	n/a	n/a	11	68	Fixation	Win	True
647.179	0.29	Win2	0.7391	0.001	Yes	3.07	-0.001	4.0	GoodResponse	1	0.236	646.415	11	68	Target	Win	True
647.415	0.3	Win2	0.7391	0.001	Yes	3.07	-0.001	4.0	GoodResponse	1	0.236	n/a	11	68	ButtonPress	Win	True
647.479	0.41	Win2	0.7391	n/a	Yes	3.07	n/a	n/a	GoodResponse	1	n/a	n/a	11	68	Blank	Win	True
647.878	1.45	Win2	0.7391	n/a	Yes	3.07	n/a	5.0	GoodResponse	1	1.122	648.0	11	68	Feedback	Win	True
649.328	3.07	Win2	0.7391	n/a	Yes	3.07	n/a	n/a	GoodResponse	1	0.0	n/a	11	68	ISIslide	Win	True
652.427	0.25	Win2	0.7429000000000001	0.0	Yes	3.223	0.027	n/a	GoodResponse	1	n/a	n/a	12	69	Cue	Win	True
652.677	3.95	Win2	0.7429000000000001	0.0	Yes	3.223	0.0	n/a	GoodResponse	1	n/a	n/a	12	69	Fixation	Win	True
656.625	0.28	Win2	0.7429000000000001	0.002	Yes	3.223	-0.002	4.0	GoodResponse	1	0.246	655.871	12	69	Target	Win	True
656.871	0.3	Win2	0.7429000000000001	0.002	Yes	3.223	-0.002	4.0	GoodResponse	1	0.246	n/a	12	69	ButtonPress	Win	True
656.909	0.42	Win2	0.7429000000000001	n/a	Yes	3.223	n/a	n/a	GoodResponse	1	n/a	n/a	12	69	Blank	Win	True
657.325	1.45	Win2	0.7429000000000001	n/a	Yes	3.223	n/a	n/a	GoodResponse	1	n/a	n/a	12	69	Feedback	Win	True
658.775	3.223	Win2	0.7429000000000001	n/a	Yes	3.223	n/a	n/a	GoodResponse	1	0.0	n/a	12	69	ISIslide	Win	True
662.024	0.25	Lose2	0.7323999999999999	0.0	No	3.026	0.024	n/a	NoResponse	-1	n/a	n/a	11	70	Cue	Loss	True
662.273	4.05	Lose2	0.7323999999999999	0.001	No	3.026	-0.001	n/a	NoResponse	-1	n/a	n/a	11	70	Fixation	Loss	True
666.322	0.27	Lose2	0.7323999999999999	0.002	No	3.026	-0.002	4.0	NoResponse	-1	0.301	665.623	11	70	Target	Loss	True
666.605	0.43	Lose2	0.7323999999999999	n/a	No	3.026	n/a	n/a	NoResponse	-1	n/a	n/a	11	70	Blank	Loss	True
666.623	0.3	Lose2	0.7323999999999999	0.002	No	3.026	-0.002	4.0	NoResponse	-1	0.301	n/a	11	70	ButtonPress	Loss	True
667.022	1.45	Lose2	0.7323999999999999	n/a	No	3.026	n/a	n/a	NoResponse	-1	n/a	n/a	11	70	Feedback	Loss	True
668.471	3.026	Lose2	0.7323999999999999	n/a	No	3.026	n/a	n/a	NoResponse	-1	0.0	n/a	11	70	ISIslide	Loss	True
671.52	0.25	Win2	0.7222	0.0	No	2.73	0.02	n/a	NoResponse	0	n/a	n/a	11	71	Cue	MissedWin	True
671.77	4.05	Win2	0.7222	0.0	No	2.73	0.0	n/a	NoResponse	0	n/a	n/a	11	71	Fixation	MissedWin	True
675.819	0.26	Win2	0.7222	0.001	No	2.73	-0.001	4.0	NoResponse	0	0.28	675.099	11	71	Target	MissedWin	True
676.085	0.44	Win2	0.7222	n/a	No	2.73	n/a	n/a	NoResponse	0	n/a	n/a	11	71	Blank	MissedWin	True
676.099	0.3	Win2	0.7222	0.001	No	2.73	-0.001	4.0	NoResponse	0	0.28	n/a	11	71	ButtonPress	MissedWin	True
676.519	1.45	Win2	0.7222	n/a	No	2.73	n/a	5.0	NoResponse	0	0.482	676.001	11	71	Feedback	MissedWin	True
677.968	2.73	Win2	0.7222	n/a	No	2.73	n/a	n/a	NoResponse	0	0.0	n/a	11	71	ISIslide	MissedWin	True
680.717	0.25	Win2	0.726	0.0	Yes	2.783	0.017	n/a	GoodResponse	1	n/a	n/a	12	72	Cue	Win	True
680.967	4.1	Win2	0.726	0.0	Yes	2.783	0.0	n/a	GoodResponse	1	n/a	n/a	12	72	Fixation	Win	True
685.066	0.25	Win2	0.726	0.001	Yes	2.783	-0.001	4.0	GoodResponse	1	0.226	684.292	12	72	Target	Win	True
685.292	0.3	Win2	0.726	0.001	Yes	2.783	-0.001	4.0	GoodResponse	1	0.226	n/a	12	72	ButtonPress	Win	True
685.315	0.45	Win2	0.726	n/a	Yes	2.783	n/a	n/a	GoodResponse	1	n/a	n/a	12	72	Blank	Win	True
685.765	1.45	Win2	0.726	n/a	Yes	2.783	n/a	5.0	GoodResponse	1	1.235	686.0	12	72	Feedback	Win	True
687.215	2.783	Win2	0.726	n/a	Yes	2.783	n/a	n/a	GoodResponse	1	0.0	n/a	12	72	ISIslide	Win	True
690.014	0.25	Win2	0.7162000000000001	0.0	No	2.686	0.014	n/a	NoResponse	0	n/a	n/a	12	73	Cue	MissedWin	True
690.264	4.0	Win2	0.7162000000000001	0.0	No	2.686	0.0	n/a	NoResponse	0	n/a	n/a	12	73	Fixation	MissedWin	True
694.262	0.24	Win2	0.7162000000000001	0.002	No	2.686	-0.002	4.0	NoResponse	0	0.259	693.521	12	73	Target	MissedWin	True
694.512	0.46	Win2	0.7162000000000001	n/a	No	2.686	n/a	n/a	NoResponse	0	n/a	n/a	12	73	Blank	MissedWin	True
694.521	0.3	Win2	0.7162000000000001	0.002	No	2.686	-0.002	4.0	NoResponse	0	0.259	n/a	12	73	ButtonPress	MissedWin	True
694.962	1.45	Win2	0.7162000000000001	n/a	No	2.686	n/a	5.0	NoResponse	0	0.038	694.0	12	73	Feedback	MissedWin	True
696.412	2.686	Win2	0.7162000000000001	n/a	No	2.686	n/a	n/a	NoResponse	0	0.0	n/a	12	73	ISIslide	MissedWin	True
699.127	0.25	Lose2	0.7067	0.0	No	2.623	0.027	n/a	NoResponse	-1	n/a	n/a	11	74	Cue	Loss	True
699.377	4.05	Lose2	0.7067	0.0	No	2.623	0.0	n/a	NoResponse	-1	n/a	n/a	11	74	Fixation	Loss	True
703.426	0.23	Lose2	0.7067	0.001	No	2.623	-0.001	4.0	NoResponse	-1	0.245	702.671	11	74	Target	Loss	True
703.659	0.47	Lose2	0.7067	n/a	No	2.623	n/a	n/a	NoResponse	-1	n/a	n/a	11	74	Blank	Loss	True
703.671	0.3	Lose2	0.7067	0.001	No	2.623	-0.001	4.0	NoResponse	-1	0.245	n/a	11	74	ButtonPress	Loss	True
704.126	1.45	Lose2	0.7067	n/a	No	2.623	n/a	5.0	NoResponse	-1	0.874	704.0	11	74	Feedback	Loss	True
705.575	2.623	Lose2	0.7067	n/a	No	2.623	n/a	n/a	NoResponse	-1	0.0	n/a	11	74	ISIslide	Loss	True
708.224	0.25	Lose2	0.6973999999999999	0.0	No	2.926	0.024	n/a	NoResponse	-1	n/a	n/a	10	75	Cue	Loss	True
708.474	3.95	Lose2	0.6973999999999999	0.0	No	2.926	0.0	n/a	NoResponse	-1	n/a	n/a	10	75	Fixation	Loss	True
712.423	0.22	Lose2	0.6973999999999999	0.001	No	2.926	-0.001	4.0	NoResponse	-1	0.369	711.792	10	75	Target	Loss	True
712.639	0.48	Lose2	0.6973999999999999	n/a	No	2.926	n/a	n/a	NoResponse	-1	n/a	n/a	10	75	Blank	Loss	True
712.792	0.3	Lose2	0.6973999999999999	0.001	No	2.926	-0.001	4.0	NoResponse	-1	0.369	n/a	10	75	ButtonPress	Loss	True
713.123	1.45	Lose2	0.6973999999999999	n/a	No	2.926	n/a	n/a	NoResponse	-1	n/a	n/a	10	75	Feedback	Loss	True
714.572	2.926	Lose2	0.6973999999999999	n/a	No	2.926	n/a	n/a	NoResponse	-1	0.0	n/a	10	75	ISIslide	Loss	True
717.521	0.25	Control	0.6883	0.0	No	3.229	0.021	n/a	NoResponse	0	n/a	n/a	10	76	Cue	Neutral	True
717.771	4.05	Control	0.6883	0.0	No	3.229	0.0	n/a	NoResponse	0	n/a	n/a	10	76	Fixation	Neutral	True
721.82	0.21	Control	0.6883	0.001	No	3.229	-0.001	4.0	NoResponse	0	0.255	721.075	10	76	Target	Neutral	True
722.036	0.49	Control	0.6883	n/a	No	3.229	n/a	n/a	NoResponse	0	n/a	n/a	10	76	Blank	Neutral	True
722.075	0.3	Control	0.6883	0.001	No	3.229	-0.001	4.0	NoResponse	0	0.255	n/a	10	76	ButtonPress	Neutral	True
722.519	1.45	Control	0.6883	n/a	No	3.229	n/a	5.0	NoResponse	0	0.481	722.0	10	76	Feedback	Neutral	True
723.969	3.229	Control	0.6883	n/a	No	3.229	n/a	n/a	NoResponse	0	0.0	n/a	10	76	ISIslide	Neutral	True
727.218	0.25	Lose2	0.6795	0.0	No	2.582	0.018	n/a	NoResponse	-1	n/a	n/a	9	77	Cue	Loss	True
727.468	3.95	Lose2	0.6795	0.0	No	2.582	0.0	n/a	NoResponse	-1	n/a	n/a	9	77	Fixation	Loss	True
731.416	0.2	Lose2	0.6795	0.002	No	2.582	-0.002	4.0	NoResponse	-1	0.284	730.7	9	77	Target	Loss	True
731.616	0.5	Lose2	0.6795	n/a	No	2.582	n/a	n/a	NoResponse	-1	n/a	n/a	9	77	Blank	Loss	True
731.7	0.3	Lose2	0.6795	0.002	No	2.582	-0.002	4.0	NoResponse	-1	0.284	n/a	9	77	ButtonPress	Loss	True
732.116	1.45	Lose2	0.6795	n/a	No	2.582	n/a	n/a	NoResponse	-1	n/a	n/a	9	77	Feedback	Loss	True
733.565	2.582	Lose2	0.6795	n/a	No	2.582	n/a	n/a	NoResponse	-1	0.0	n/a	9	77	ISIslide	Loss	True
