onset	duration	cue_type	current_mean_accuracy	duration_error	is_hit	isi_adjusted	onset_delay	response	response_type	reward	rt	rt_time	total_reward	trial_number	trial_phase	trial_type	one_press
11.099	0.25	Control	1.0	0.0	Yes	2.951	-0.001	n/a	GoodResponse	0	n/a	n/a	0	0	Cue	Neutral	True
11.349	3.85	Control	1.0	0.0	Yes	2.951	0.0	n/a	GoodResponse	0	n/a	n/a	0	0	Fixation	Neutral	True
15.197	0.4	Control	1.0	0.002	Yes	2.951	-0.002	2.0	GoodResponse	0	0.223	14.42	0	0	Target	Neutral	True
15.42	0.3	Control	1.0	0.002	Yes	2.951	-0.002	2.0	GoodResponse	0	0.223	n/a	0	0	ButtonPress	Neutral	True
15.597	0.3	Control	1.0	n/a	Yes	2.951	n/a	n/a	GoodResponse	0	n/a	n/a	0	0	Blank	Neutral	True
15.897	1.45	Control	1.0	n/a	Yes	2.951	n/a	5.0	GoodResponse	0	0.031	14.928	0	0	Feedback	Neutral	True
17.347	2.951	Control	1.0	n/a	Yes	2.951	n/a	n/a	GoodResponse	0	0.0	n/a	0	0	ISIslide	Neutral	True
20.379	0.25	Lose2	1.0	0.0	Yes	2.721	0.079	n/a	GoodResponse	0	n/a	n/a	0	1	Cue	AvoidedLoss	True
20.629	4.0	Lose2	1.0	0.0	Yes	2.721	0.0	n/a	GoodResponse	0	n/a	n/a	0	1	Fixation	AvoidedLoss	True
24.627	0.39	Lose2	1.0	0.002	Yes	2.721	-0.002	2.0	GoodResponse	0	0.202	23.829	0	1	Target	AvoidedLoss	True
24.829	0.3	Lose2	1.0	0.002	Yes	2.721	-0.002	2.0	GoodResponse	0	0.202	n/a	0	1	ButtonPress	AvoidedLoss	True
25.027	0.31	Lose2	1.0	n/a	Yes	2.721	n/a	n/a	GoodResponse	0	n/a	n/a	0	1	Blank	AvoidedLoss	True
25.327	1.45	Lose2	1.0	n/a	Yes	2.721	n/a	5.0	GoodResponse	0	0.016	24.343	0	1	Feedback	AvoidedLoss	True
26.777	2.721	Lose2	1.0	n/a	Yes	2.721	n/a	n/a	GoodResponse	0	0.0	n/a	0	1	ISIslide	AvoidedLoss	True
29.526	0.25	Control	1.0	0.0	Yes	2.574	0.026	n/a	GoodResponse	0	n/a	n/a	0	2	Cue	Neutral	True
29.775	4.1	Control	1.0	0.001	Yes	2.574	-0.001	n/a	GoodResponse	0	n/a	n/a	0	2	Fixation	Neutral	True
33.874	0.38	Control	1.0	0.002	Yes	2.574	-0.002	2.0	GoodResponse	0	0.196	33.07	0	2	Target	Neutral	True
34.07	0.3	Control	1.0	0.002	Yes	2.574	-0.002	2.0	GoodResponse	0	0.196	n/a	0	2	ButtonPress	Neutral	True
34.257	0.32	Control	1.0	n/a	Yes	2.574	n/a	n/a	GoodResponse	0	n/a	n/a	0	2	Blank	Neutral	True
34.574	1.45	Control	1.0	n/a	Yes	2.574	n/a	5.0	GoodResponse	0	0.037	33.611	0	2	Feedback	Neutral	True
36.023	2.574	Control	1.0	n/a	Yes	2.574	n/a	n/a	GoodResponse	0	0.0	n/a	0	2	ISIslide	Neutral	True
38.622	0.25	Win2	1.0	0.0	Yes	2.828	0.022	n/a	GoodResponse	1	n/a	n/a	1	3	Cue	Win	True
38.872	3.95	Win2	1.0	0.0	Yes	2.828	0.0	n/a	GoodResponse	1	n/a	n/a	1	3	Fixation	Win	True
42.821	0.37	Win2	1.0	0.001	Yes	2.828	-0.001	2.0	GoodResponse	1	0.206	42.027	1	3	Target	Win	True
43.027	0.3	Win2	1.0	0.001	Yes	2.828	-0.001	2.0	GoodResponse	1	0.206	n/a	1	3	ButtonPress	Win	True
43.187	0.33	Win2	1.0	n/a	Yes	2.828	n/a	n/a	GoodResponse	1	n/a	n/a	1	3	Blank	Win	True
43.521	1.45	Win2	1.0	n/a	Yes	2.828	n/a	5.0	GoodResponse	1	0.017	42.538	1	3	Feedback	Win	True
44.97	2.828	Win2	1.0	n/a	Yes	2.828	n/a	n/a	GoodResponse	1	0.0	n/a	1	3	ISIslide	Win	True
47.819	0.25	Win2	1.0	0.0	Yes	3.281	0.019	n/a	GoodResponse	1	n/a	n/a	2	4	Cue	Win	True
48.069	4.0	Win2	1.0	0.0	Yes	3.281	0.0	n/a	GoodResponse	1	n/a	n/a	2	4	Fixation	Win	True
52.068	0.36	Win2	1.0	0.001	Yes	3.281	-0.001	2.0	GoodResponse	1	0.303	51.371	2	4	Target	Win	True
52.371	0.3	Win2	1.0	0.001	Yes	3.281	-0.001	2.0	GoodResponse	1	0.303	n/a	2	4	ButtonPress	Win	True
52.434	0.34	Win2	1.0	n/a	Yes	3.281	n/a	n/a	GoodResponse	1	n/a	n/a	2	4	Blank	Win	True
52.767	1.45	Win2	1.0	n/a	Yes	3.281	n/a	5.0	GoodResponse	1	0.039	51.806	2	4	Feedback	Win	True
54.217	3.281	Win2	1.0	n/a	Yes	3.281	n/a	n/a	GoodResponse	1	0.0	n/a	2	4	ISIslide	Win	True
57.516	0.25	Win2	1.0	0.0	Yes	2.784	0.016	n/a	GoodResponse	1	n/a	n/a	3	5	Cue	Win	True
57.766	4.0	Win2	1.0	0.0	Yes	2.784	0.0	n/a	GoodResponse	1	n/a	n/a	3	5	Fixation	Win	True
61.764	0.35	Win2	1.0	0.002	Yes	2.784	-0.002	2.0	GoodResponse	1	0.266	61.03	3	5	Target	Win	True
62.03	0.3	Win2	1.0	0.002	Yes	2.784	-0.002	2.0	GoodResponse	1	0.266	n/a	3	5	ButtonPress	Win	True
62.114	0.35	Win2	1.0	n/a	Yes	2.784	n/a	n/a	GoodResponse	1	n/a	n/a	3	5	Blank	Win	True
62.464	1.45	Win2	1.0	n/a	Yes	2.784	n/a	5.0	GoodResponse	1	0.0	61.464	3	5	Feedback	Win	True
63.913	2.784	Win2	1.0	n/a	Yes	2.784	n/a	n/a	GoodResponse	1	0.0	n/a	3	5	ISIslide	Win	True
66.712	0.25	Lose2	1.0	0.001	Yes	2.738	0.012	n/a	GoodResponse	0	n/a	n/a	3	6	Cue	AvoidedLoss	True
66.962	3.95	Lose2	1.0	0.0	Yes	2.738	0.0	n/a	GoodResponse	0	n/a	n/a	3	6	Fixation	AvoidedLoss	True
70.911	0.34	Lose2	1.0	0.001	Yes	2.738	-0.001	2.0	GoodResponse	0	0.209	70.12	3	6	Target	AvoidedLoss	True
71.12	0.3	Lose2	1.0	0.001	Yes	2.738	-0.001	2.0	GoodResponse	0	0.209	n/a	3	6	ButtonPress	AvoidedLoss	True
71.261	0.36	Lose2	1.0	n/a	Yes	2.738	n/a	n/a	GoodResponse	0	n/a	n/a	3	6	Blank	AvoidedLoss	True
71.611	1.45	Lose2	1.0	n/a	Yes	2.738	n/a	5.0	GoodResponse	0	0.024	70.635	3	6	Feedback	AvoidedLoss	True
73.06	2.738	Lose2	1.0	n/a	Yes	2.738	n/a	n/a	GoodResponse	0	0.0	n/a	3	6	ISIslide	AvoidedLoss	True
75.826	0.25	Lose2	1.0	0.0	Yes	4.024	0.026	n/a	GoodResponse	0	n/a	n/a	3	7	Cue	AvoidedLoss	True
76.076	4.05	Lose2	1.0	0.0	Yes	4.024	0.0	n/a	GoodResponse	0	n/a	n/a	3	7	Fixation	AvoidedLoss	True
80.124	0.33	Lose2	1.0	0.002	Yes	4.024	-0.002	2.0	GoodResponse	0	0.196	79.32	3	7	Target	AvoidedLoss	True
80.32	0.3	Lose2	1.0	0.002	Yes	4.024	-0.002	2.0	GoodResponse	0	0.196	n/a	3	7	ButtonPress	AvoidedLoss	True
80.458	0.37	Lose2	1.0	n/a	Yes	4.024	n/a	n/a	GoodResponse	0	n/a	n/a	3	7	Blank	AvoidedLoss	True
80.824	1.45	Lose2	1.0	n/a	Yes	4.024	n/a	5.0	GoodResponse	0	0.031	79.855	3	7	Feedback	AvoidedLoss	True
82.274	4.024	Lose2	1.0	n/a	Yes	4.024	n/a	n/a	GoodResponse	0	0.0	n/a	3	7	ISIslide	AvoidedLoss	True
86.322	0.25	Lose2	0.8889	0.0	No	3.028	0.022	n/a	NoResponse	-1	n/a	n/a	2	8	Cue	Loss	True
86.572	3.95	Lose2	0.8889	0.0	No	3.028	0.0	n/a	NoResponse	-1	n/a	n/a	2	8	Fixation	Loss	True
90.521	0.32	Lose2	0.8889	0.001	No	3.028	-0.001	2.0	NoResponse	-1	0.401	89.922	2	8	Target	Loss	True
90.854	0.38	Lose2	0.8889	n/a	No	3.028	n/a	n/a	NoResponse	-1	n/a	n/a	2	8	Blank	Loss	True
90.922	0.3	Lose2	0.8889	0.001	No	3.028	-0.001	2.0	NoResponse	-1	0.401	n/a	2	8	ButtonPress	Loss	True
91.221	1.45	Lose2	0.8889	n/a	No	3.028	n/a	5.0	NoResponse	-1	0.024	90.245	2	8	Feedback	Loss	True
92.67	3.028	Lose2	0.8889	n/a	No	3.028	n/a	n/a	NoResponse	-1	0.0	n/a	2	8	ISIslide	Loss	True
95.719	0.25	Lose2	0.9	0.0	Yes	3.131	0.019	n/a	GoodResponse	0	n/a	n/a	2	9	Cue	AvoidedLoss	True
95.969	3.95	Lose2	0.9	0.0	Yes	3.131	0.0	n/a	GoodResponse	0	n/a	n/a	2	9	Fixation	AvoidedLoss	True
99.917	0.31	Lose2	0.9	0.002	Yes	3.131	-0.002	2.0	GoodResponse	0	0.22	99.137	2	9	Target	AvoidedLoss	True
100.137	0.3	Lose2	0.9	0.002	Yes	3.131	-0.002	2.0	GoodResponse	0	0.22	n/a	2	9	ButtonPress	AvoidedLoss	True
100.234	0.39	Lose2	0.9	n/a	Yes	3.131	n/a	n/a	GoodResponse	0	n/a	n/a	2	9	Blank	AvoidedLoss	True
100.617	1.45	Lose2	0.9	n/a	Yes	3.131	n/a	5.0	GoodResponse	0	0.042	99.659	2	9	Feedback	AvoidedLoss	True
102.067	3.131	Lose2	0.9	n/a	Yes	3.131	n/a	n/a	GoodResponse	0	0.0	n/a	2	9	ISIslide	AvoidedLoss	True
105.216	0.25	Control	0.9091	0.0	Yes	3.284	0.016	n/a	GoodResponse	0	n/a	n/a	2	10	Cue	Neutral	True
105.466	4.0	Control	0.9091	0.0	Yes	3.284	0.0	n/a	GoodResponse	0	n/a	n/a	2	10	Fixation	Neutral	True
109.464	0.3	Control	0.9091	0.002	Yes	3.284	-0.002	2.0	GoodResponse	0	0.206	108.67	2	10	Target	Neutral	True
109.67	0.3	Control	0.9091	0.002	Yes	3.284	-0.002	2.0	GoodResponse	0	0.206	n/a	2	10	ButtonPress	Neutral	True
109.764	0.4	Control	0.9091	n/a	Yes	3.284	n/a	n/a	GoodResponse	0	n/a	n/a	2	10	Blank	Neutral	True
110.164	1.45	Control	0.9091	n/a	Yes	3.284	n/a	5.0	GoodResponse	0	0.008	109.172	2	10	Feedback	Neutral	True
111.613	3.284	Control	0.9091	n/a	Yes	3.284	n/a	n/a	GoodResponse	0	0.0	n/a	2	10	ISIslide	Neutral	True
114.929	0.25	Lose2	0.9167000000000001	0.0	Yes	2.721	0.029	n/a	GoodResponse	0	n/a	n/a	2	11	Cue	AvoidedLoss	True
115.179	4.05	Lose2	0.9167000000000001	0.0	Yes	2.721	0.0	n/a	GoodResponse	0	n/a	n/a	2	11	Fixation	AvoidedLoss	True
119.227	0.29	Lose2	0.9167000000000001	0.002	Yes	2.721	-0.002	2.0	GoodResponse	0	0.223	118.45	2	11	Target	AvoidedLoss	True
119.45	0.3	Lose2	0.9167000000000001	0.002	Yes	2.721	-0.002	2.0	GoodResponse	0	0.223	n/a	2	11	ButtonPress	AvoidedLoss	True
119.527	0.41	Lose2	0.9167000000000001	n/a	Yes	2.721	n/a	n/a	GoodResponse	0	n/a	n/a	2	11	Blank	AvoidedLoss	True
119.927	1.45	Lose2	0.9167000000000001	n/a	Yes	2.721	n/a	5.0	GoodResponse	0	0.049	118.976	2	11	Feedback	AvoidedLoss	True
121.377	2.721	Lose2	0.9167000000000001	n/a	Yes	2.721	n/a	n/a	GoodResponse	0	0.0	n/a	2	11	ISIslide	AvoidedLoss	True
124.126	0.25	Control	0.9231	0.0	Yes	2.974	0.026	n/a	GoodResponse	0	n/a	n/a	2	12	Cue	Neutral	True
124.376	3.9	Control	0.9231	0.0	Yes	2.974	0.0	n/a	GoodResponse	0	n/a	n/a	2	12	Fixation	Neutral	True
128.274	0.28	Control	0.9231	0.002	Yes	2.974	-0.002	2.0	GoodResponse	0	0.216	127.49	2	12	Target	Neutral	True
128.49	0.3	Control	0.9231	0.002	Yes	2.974	-0.002	2.0	GoodResponse	0	0.216	n/a	2	12	ButtonPress	Neutral	True
128.557	0.42	Control	0.9231	n/a	Yes	2.974	n/a	n/a	GoodResponse	0	n/a	n/a	2	12	Blank	Neutral	True
128.974	1.45	Control	0.9231	n/a	Yes	2.974	n/a	5.0	GoodResponse	0	0.027	128.001	2	12	Feedback	Neutral	True
130.423	2.974	Control	0.9231	n/a	Yes	2.974	n/a	n/a	GoodResponse	0	0.0	n/a	2	12	ISIslide	Neutral	True
133.422	0.25	Control	0.8571	0.0	No	2.778	0.022	n/a	NoResponse	0	n/a	n/a	2	13	Cue	Neutral	True
133.672	4.0	Control	0.8571	0.0	No	2.778	0.0	n/a	NoResponse	0	n/a	n/a	2	13	Fixation	Neutral	True
137.671	0.27	Control	0.8571	0.001	No	2.778	-0.001	2.0	NoResponse	0	0.278	136.949	2	13	Target	Neutral	True
137.937	0.43	Control	0.8571	n/a	No	2.778	n/a	n/a	NoResponse	0	n/a	n/a	2	13	Blank	Neutral	True
137.949	0.3	Control	0.8571	0.001	No	2.778	-0.001	2.0	NoResponse	0	0.278	n/a	2	13	ButtonPress	Neutral	True
138.371	1.45	Control	0.8571	n/a	No	2.778	n/a	5.0	NoResponse	0	0.043	137.414	2	13	Feedback	Neutral	True
139.82	2.778	Control	0.8571	n/a	No	2.778	n/a	n/a	NoResponse	0	0.0	n/a	2	13	ISIslide	Neutral	True
142.619	0.25	Win2	0.8667	0.0	Yes	2.681	0.019	n/a	GoodResponse	1	n/a	n/a	3	14	Cue	Win	True
142.869	4.1	Win2	0.8667	0.0	Yes	2.681	0.0	n/a	GoodResponse	1	n/a	n/a	3	14	Fixation	Win	True
146.968	0.26	Win2	0.8667	0.001	Yes	2.681	-0.001	2.0	GoodResponse	1	0.207	146.175	3	14	Target	Win	True
147.175	0.3	Win2	0.8667	0.001	Yes	2.681	-0.001	2.0	GoodResponse	1	0.207	n/a	3	14	ButtonPress	Win	True
147.234	0.44	Win2	0.8667	n/a	Yes	2.681	n/a	n/a	GoodResponse	1	n/a	n/a	3	14	Blank	Win	True
147.667	1.45	Win2	0.8667	n/a	Yes	2.681	n/a	5.0	GoodResponse	1	0.016	146.683	3	14	Feedback	Win	True
149.117	2.681	Win2	0.8667	n/a	Yes	2.681	n/a	n/a	GoodResponse	1	0.0	n/a	3	14	ISIslide	Win	True
151.816	0.25	Control	0.875	0.0	Yes	2.984	0.016	n/a	GoodResponse	0	n/a	n/a	3	15	Cue	Neutral	True
152.066	4.0	Control	0.875	0.0	Yes	2.984	0.0	n/a	GoodResponse	0	n/a	n/a	3	15	Fixation	Neutral	True
156.064	0.25	Control	0.875	0.002	Yes	2.984	-0.002	2.0	GoodResponse	0	0.198	155.262	3	15	Target	Neutral	True
156.262	0.3	Control	0.875	0.002	Yes	2.984	-0.002	2.0	GoodResponse	0	0.198	n/a	3	15	ButtonPress	Neutral	True
156.314	0.45	Control	0.875	n/a	Yes	2.984	n/a	n/a	GoodResponse	0	n/a	n/a	3	15	Blank	Neutral	True
156.764	1.45	Control	0.875	n/a	Yes	2.984	n/a	5.0	GoodResponse	0	0.041	155.805	3	15	Feedback	Neutral	True
158.214	2.984	Control	0.875	n/a	Yes	2.984	n/a	n/a	GoodResponse	0	0.0	n/a	3	15	ISIslide	Neutral	True
161.229	0.25	Win2	0.8824	0.0	Yes	2.871	0.029	n/a	GoodResponse	1	n/a	n/a	4	16	Cue	Win	True
161.479	4.0	Win2	0.8824	0.0	Yes	2.871	0.0	n/a	GoodResponse	1	n/a	n/a	4	16	Fixation	Win	True
165.478	0.24	Win2	0.8824	0.001	Yes	2.871	-0.001	2.0	GoodResponse	1	0.186	164.664	4	16	Target	Win	True
165.664	0.3	Win2	0.8824	0.001	Yes	2.871	-0.001	2.0	GoodResponse	1	0.186	n/a	4	16	ButtonPress	Win	True
165.728	0.46	Win2	0.8824	n/a	Yes	2.871	n/a	n/a	GoodResponse	1	n/a	n/a	4	16	Blank	Win	True
166.177	1.45	Win2	0.8824	n/a	Yes	2.871	n/a	5.0	GoodResponse	1	0.043	165.22	4	16	Feedback	Win	True
167.627	2.871	Win2	0.8824	n/a	Yes	2.871	n/a	n/a	GoodResponse	1	0.0	n/a	4	16	ISIslide	Win	True
170.526	0.25	Lose2	0.8889	0.0	Yes	2.724	0.026	n/a	GoodResponse	0	n/a	n/a	4	17	Cue	AvoidedLoss	True
170.776	3.95	Lose2	0.8889	0.0	Yes	2.724	0.0	n/a	GoodResponse	0	n/a	n/a	4	17	Fixation	AvoidedLoss	True
174.724	0.23	Lose2	0.8889	0.002	Yes	2.724	-0.002	2.0	GoodResponse	0	0.188	173.912	4	17	Target	AvoidedLoss	True
174.912	0.3	Lose2	0.8889	0.002	Yes	2.724	-0.002	2.0	GoodResponse	0	0.188	n/a	4	17	ButtonPress	AvoidedLoss	True
174.958	0.47	Lose2	0.8889	n/a	Yes	2.724	n/a	n/a	GoodResponse	0	n/a	n/a	4	17	Blank	AvoidedLoss	True
175.424	1.45	Lose2	0.8889	n/a	Yes	2.724	n/a	5.0	GoodResponse	0	0.015	174.439	4	17	Feedback	AvoidedLoss	True
176.874	2.724	Lose2	0.8889	n/a	Yes	2.724	n/a	n/a	GoodResponse	0	0.0	n/a	4	17	ISIslide	AvoidedLoss	True
179.623	0.25	Lose2	0.8421	0.0	No	2.727	0.023	n/a	NoResponse	-1	n/a	n/a	3	18	Cue	Loss	True
179.873	4.05	Lose2	0.8421	0.0	No	2.727	0.0	n/a	NoResponse	-1	n/a	n/a	3	18	Fixation	Loss	True
183.921	0.22	Lose2	0.8421	0.002	No	2.727	-0.002	2.0	NoResponse	-1	0.336	183.257	3	18	Target	Loss	True
184.154	0.48	Lose2	0.8421	n/a	No	2.727	n/a	n/a	NoResponse	-1	n/a	n/a	3	18	Blank	Loss	True
184.257	0.3	Lose2	0.8421	0.002	No	2.727	-0.002	2.0	NoResponse	-1	0.336	n/a	3	18	ButtonPress	Loss	True
184.621	1.45	Lose2	0.8421	n/a	No	2.727	n/a	5.0	NoResponse	-1	0.037	183.658	3	18	Feedback	Loss	True
186.07	2.727	Lose2	0.8421	n/a	No	2.727	n/a	n/a	NoResponse	-1	0.0	n/a	3	18	ISIslide	Loss	True
188.819	0.25	Control	0.85	0.001	Yes	2.931	0.019	n/a	GoodResponse	0	n/a	n/a	3	19	Cue	Neutral	True
189.069	3.95	Control	0.85	0.0	Yes	2.931	0.0	n/a	GoodResponse	0	n/a	n/a	3	19	Fixation	Neutral	True
193.018	0.21	Control	0.85	0.001	Yes	2.931	-0.001	2.0	GoodResponse	0	0.185	192.203	3	19	Target	Neutral	True
193.203	0.3	Control	0.85	0.001	Yes	2.931	-0.001	2.0	GoodResponse	0	0.185	n/a	3	19	ButtonPress	Neutral	True
193.235	0.49	Control	0.85	n/a	Yes	2.931	n/a	n/a	GoodResponse	0	n/a	n/a	3	19	Blank	Neutral	True
193.718	1.45	Control	0.85	n/a	Yes	2.931	n/a	5.0	GoodResponse	0	0.013	192.731	3	19	Feedback	Neutral	True
195.167	2.931	Control	0.85	n/a	Yes	2.931	n/a	n/a	GoodResponse	0	0.0	n/a	3	19	ISIslide	Neutral	True
198.116	0.25	Control	0.8571	0.0	Yes	2.634	0.016	n/a	GoodResponse	0	n/a	n/a	3	20	Cue	Neutral	True
198.366	4.05	Control	0.8571	0.0	Yes	2.634	0.0	n/a	GoodResponse	0	n/a	n/a	3	20	Fixation	Neutral	True
202.415	0.2	Control	0.8571	0.001	Yes	2.634	-0.001	2.0	GoodResponse	0	0.192	201.607	3	20	Target	Neutral	True
202.607	0.3	Control	0.8571	0.001	Yes	2.634	-0.001	2.0	GoodResponse	0	0.192	n/a	3	20	ButtonPress	Neutral	True
202.615	0.5	Control	0.8571	n/a	Yes	2.634	n/a	n/a	GoodResponse	0	n/a	n/a	3	20	Blank	Neutral	True
203.114	1.45	Control	0.8571	n/a	Yes	2.634	n/a	5.0	GoodResponse	0	0.032	202.146	3	20	Feedback	Neutral	True
204.564	2.634	Control	0.8571	n/a	Yes	2.634	n/a	n/a	GoodResponse	0	0.0	n/a	3	20	ISIslide	Neutral	True
207.23	0.25	Control	0.8181999999999999	0.0	No	2.77	0.03	n/a	NoResponse	0	n/a	n/a	3	21	Cue	Neutral	True
207.48	4.1	Control	0.8181999999999999	0.0	No	2.77	0.0	n/a	NoResponse	0	n/a	n/a	3	21	Fixation	Neutral	True
211.578	0.19	Control	0.8181999999999999	0.002	No	2.77	-0.002	2.0	NoResponse	0	0.209	210.787	3	21	Target	Neutral	True
211.778	0.51	Control	0.8181999999999999	n/a	No	2.77	n/a	n/a	NoResponse	0	n/a	n/a	3	21	Blank	Neutral	True
211.787	0.3	Control	0.8181999999999999	0.002	No	2.77	-0.002	2.0	NoResponse	0	0.209	n/a	3	21	ButtonPress	Neutral	True
212.278	1.45	Control	0.8181999999999999	n/a	No	2.77	n/a	5.0	NoResponse	0	0.039	211.317	3	21	Feedback	Neutral	True
213.727	2.77	Control	0.8181999999999999	n/a	No	2.77	n/a	n/a	NoResponse	0	0.0	n/a	3	21	ISIslide	Neutral	True
216.526	0.25	Control	0.7826000000000001	0.0	No	2.774	0.026	n/a	NoResponse	0	n/a	n/a	3	22	Cue	Neutral	True
216.776	4.0	Control	0.7826000000000001	0.0	No	2.774	0.0	n/a	NoResponse	0	n/a	n/a	3	22	Fixation	Neutral	True
220.775	0.18	Control	0.7826000000000001	0.001	No	2.774	-0.001	2.0	NoResponse	0	0.194	219.969	3	22	Target	Neutral	True
220.958	0.52	Control	0.7826000000000001	n/a	No	2.774	n/a	n/a	NoResponse	0	n/a	n/a	3	22	Blank	Neutral	True
220.969	0.3	Control	0.7826000000000001	0.001	No	2.774	-0.001	2.0	NoResponse	0	0.194	n/a	3	22	ButtonPress	Neutral	True
221.475	1.45	Control	0.7826000000000001	n/a	No	2.774	n/a	5.0	NoResponse	0	0.013	220.488	3	22	Feedback	Neutral	True
222.924	2.774	Control	0.7826000000000001	n/a	No	2.774	n/a	n/a	NoResponse	0	0.0	n/a	3	22	ISIslide	Neutral	True
225.723	0.25	Control	0.75	0.0	No	2.777	0.023	n/a	NoResponse	0	n/a	n/a	3	23	Cue	Neutral	True
225.973	3.9	Control	0.75	0.0	No	2.777	0.0	n/a	NoResponse	0	n/a	n/a	3	23	Fixation	Neutral	True
229.872	0.17	Control	0.75	0.001	No	2.777	-0.001	2.0	NoResponse	0	0.207	229.079	3	23	Target	Neutral	True
230.055	0.53	Control	0.75	n/a	No	2.777	n/a	n/a	NoResponse	0	n/a	n/a	3	23	Blank	Neutral	True
230.079	0.3	Control	0.75	0.001	No	2.777	-0.001	2.0	NoResponse	0	0.207	n/a	3	23	ButtonPress	Neutral	True
230.571	1.45	Control	0.75	n/a	No	2.777	n/a	5.0	NoResponse	0	0.038	229.609	3	23	Feedback	Neutral	True
232.021	2.777	Control	0.75	n/a	No	2.777	n/a	n/a	NoResponse	0	0.0	n/a	3	23	ISIslide	Neutral	True
234.82	0.25	Win2	0.72	0.0	No	3.13	0.02	n/a	NoResponse	0	n/a	n/a	3	24	Cue	MissedWin	True
235.07	3.95	Win2	0.72	0.0	No	3.13	0.0	n/a	NoResponse	0	n/a	n/a	3	24	Fixation	MissedWin	True
239.018	0.16	Win2	0.72	0.002	No	3.13	-0.002	2.0	NoResponse	0	0.206	238.224	3	24	Target	MissedWin	True
239.185	0.54	Win2	0.72	n/a	No	3.13	n/a	n/a	NoResponse	0	n/a	n/a	3	24	Blank	MissedWin	True
239.224	0.3	Win2	0.72	0.002	No	3.13	-0.002	2.0	NoResponse	0	0.206	n/a	3	24	ButtonPress	MissedWin	True
239.718	1.45	Win2	0.72	n/a	No	3.13	n/a	5.0	NoResponse	0	0.013	238.731	3	24	Feedback	MissedWin	True
241.168	3.13	Win2	0.72	n/a	No	3.13	n/a	n/a	NoResponse	0	0.0	n/a	3	24	ISIslide	MissedWin	True
244.317	0.25	Win2	0.6923	0.0	No	3.083	0.017	n/a	NoResponse	0	n/a	n/a	3	25	Cue	MissedWin	True
244.566	4.0	Win2	0.6923	0.001	No	3.083	-0.001	n/a	NoResponse	0	n/a	n/a	3	25	Fixation	MissedWin	True
248.565	0.15	Win2	0.6923	0.002	No	3.083	-0.002	2.0	NoResponse	0	0.195	247.76	3	25	Target	MissedWin	True
248.715	0.55	Win2	0.6923	n/a	No	3.083	n/a	n/a	NoResponse	0	n/a	n/a	3	25	Blank	MissedWin	True
248.76	0.3	Win2	0.6923	0.002	No	3.083	-0.002	2.0	NoResponse	0	0.195	n/a	3	25	ButtonPress	MissedWin	True
249.265	1.45	Win2	0.6923	n/a	No	3.083	n/a	5.0	NoResponse	0	0.027	248.292	3	25	Feedback	MissedWin	True
250.714	3.083	Win2	0.6923	n/a	No	3.083	n/a	n/a	NoResponse	0	0.0	n/a	3	25	ISIslide	MissedWin	True
253.813	0.25	Win2	0.6667000000000001	0.0	No	2.937	0.013	n/a	NoResponse	0	n/a	n/a	3	26	Cue	MissedWin	True
254.063	3.95	Win2	0.6667000000000001	0.0	No	2.937	0.0	n/a	NoResponse	0	n/a	n/a	3	26	Fixation	MissedWin	True
258.012	0.15	Win2	0.6667000000000001	0.001	No	2.937	-0.001	2.0	NoResponse	0	0.204	257.216	3	26	Target	MissedWin	True
258.162	0.55	Win2	0.6667000000000001	n/a	No	2.937	n/a	n/a	NoResponse	0	n/a	n/a	3	26	Blank	MissedWin	True
258.216	0.3	Win2	0.6667000000000001	0.001	No	2.937	-0.001	2.0	NoResponse	0	0.204	n/a	3	26	ButtonPress	MissedWin	True
258.711	1.45	Win2	0.6667000000000001	n/a	No	2.937	n/a	5.0	NoResponse	0	0.045	257.756	3	26	Feedback	MissedWin	True
260.161	2.937	Win2	0.6667000000000001	n/a	No	2.937	n/a	n/a	NoResponse	0	0.0	n/a	3	26	ISIslide	MissedWin	True
263.127	0.25	Lose2	0.6429	0.0	No	2.823	0.027	n/a	NoResponse	-1	n/a	n/a	2	27	Cue	Loss	True
263.377	4.05	Lose2	0.6429	0.0	No	2.823	0.0	n/a	NoResponse	-1	n/a	n/a	2	27	Fixation	Loss	True
267.425	0.15	Lose2	0.6429	0.002	No	2.823	-0.002	2.0	NoResponse	-1	0.193	266.618	2	27	Target	Loss	True
267.575	0.55	Lose2	0.6429	n/a	No	2.823	n/a	n/a	NoResponse	-1	n/a	n/a	2	27	Blank	Loss	True
267.618	0.3	Lose2	0.6429	0.002	No	2.823	-0.002	2.0	NoResponse	-1	0.193	n/a	2	27	ButtonPress	Loss	True
268.125	1.45	Lose2	0.6429	n/a	No	2.823	n/a	5.0	NoResponse	-1	0.044	267.169	2	27	Feedback	Loss	True
269.574	2.823	Lose2	0.6429	n/a	No	2.823	n/a	n/a	NoResponse	-1	0.0	n/a	2	27	ISIslide	Loss	True
272.423	0.25	Control	0.6207	0.0	No	2.827	0.023	n/a	NoResponse	0	n/a	n/a	2	28	Cue	Neutral	True
272.673	4.05	Control	0.6207	0.0	No	2.827	0.0	n/a	NoResponse	0	n/a	n/a	2	28	Fixation	Neutral	True
276.722	0.16	Control	0.6207	0.001	No	2.827	-0.001	2.0	NoResponse	0	0.194	275.916	2	28	Target	Neutral	True
276.888	0.54	Control	0.6207	n/a	No	2.827	n/a	n/a	NoResponse	0	n/a	n/a	2	28	Blank	Neutral	True
276.916	0.3	Control	0.6207	0.001	No	2.827	-0.001	2.0	NoResponse	0	0.194	n/a	2	28	ButtonPress	Neutral	True
277.422	1.45	Control	0.6207	n/a	No	2.827	n/a	5.0	NoResponse	0	0.016	276.438	2	28	Feedback	Neutral	True
278.871	2.827	Control	0.6207	n/a	No	2.827	n/a	n/a	NoResponse	0	0.0	n/a	2	28	ISIslide	Neutral	True
281.72	0.25	Lose2	0.6	0.0	No	2.83	0.02	n/a	LatePress	-1	n/a	n/a	1	29	Cue	Loss	True
281.97	3.95	Lose2	0.6	0.0	No	2.83	0.0	n/a	LatePress	-1	n/a	n/a	1	29	Fixation	Loss	True
285.919	0.17	Lose2	0.6	0.001	No	2.83	-0.001	2.0	LatePress	-1	0.181	285.1	1	29	Target	Loss	True
286.1	0.3	Lose2	0.6	0.001	No	2.83	-0.001	2.0	LatePress	-1	0.181	n/a	1	29	ButtonPress	Loss	True
286.102	0.53	Lose2	0.6	n/a	No	2.83	n/a	n/a	LatePress	-1	n/a	n/a	1	29	Blank	Loss	True
286.618	1.45	Lose2	0.6	n/a	No	2.83	n/a	5.0	LatePress	-1	0.039	285.657	1	29	Feedback	Loss	True
288.068	2.83	Lose2	0.6	n/a	No	2.83	n/a	n/a	LatePress	-1	0.0	n/a	1	29	ISIslide	Loss	True
290.917	0.25	Win2	0.5806	0.0	No	2.783	0.017	n/a	NoResponse	0	n/a	n/a	1	30	Cue	MissedWin	True
291.167	3.9	Win2	0.5806	0.0	No	2.783	0.0	n/a	NoResponse	0	n/a	n/a	1	30	Fixation	MissedWin	True
295.065	0.18	Win2	0.5806	0.002	No	2.783	-0.002	2.0	NoResponse	0	0.197	294.262	1	30	Target	MissedWin	True
295.249	0.52	Win2	0.5806	n/a	No	2.783	n/a	n/a	NoResponse	0	n/a	n/a	1	30	Blank	MissedWin	True
295.262	0.3	Win2	0.5806	0.002	No	2.783	-0.002	2.0	NoResponse	0	0.197	n/a	1	30	ButtonPress	MissedWin	True
295.765	1.45	Win2	0.5806	n/a	No	2.783	n/a	5.0	NoResponse	0	0.014	294.779	1	30	Feedback	MissedWin	True
297.215	2.783	Win2	0.5806	n/a	No	2.783	n/a	n/a	NoResponse	0	0.0	n/a	1	30	ISIslide	MissedWin	True
300.03	0.25	Lose2	0.5938	0.0	Yes	2.82	0.03	n/a	GoodResponse	0	n/a	n/a	1	31	Cue	AvoidedLoss	True
300.28	4.05	Lose2	0.5938	0.0	Yes	2.82	0.0	n/a	GoodResponse	0	n/a	n/a	1	31	Fixation	AvoidedLoss	True
304.329	0.19	Lose2	0.5938	0.001	Yes	2.82	-0.001	2.0	GoodResponse	0	0.183	303.512	1	31	Target	AvoidedLoss	True
304.512	0.3	Lose2	0.5938	0.001	Yes	2.82	-0.001	2.0	GoodResponse	0	0.183	n/a	1	31	ButtonPress	AvoidedLoss	True
304.529	0.51	Lose2	0.5938	n/a	Yes	2.82	n/a	n/a	GoodResponse	0	n/a	n/a	1	31	Blank	AvoidedLoss	True
305.029	1.45	Lose2	0.5938	n/a	Yes	2.82	n/a	5.0	GoodResponse	0	0.019	304.048	1	31	Feedback	AvoidedLoss	True
306.478	2.82	Lose2	0.5938	n/a	Yes	2.82	n/a	n/a	GoodResponse	0	0.0	n/a	1	31	ISIslide	AvoidedLoss	True
309.327	0.25	Lose2	0.6061	0.0	Yes	2.623	0.027	n/a	GoodResponse	0	n/a	n/a	1	32	Cue	AvoidedLoss	True
309.577	4.15	Lose2	0.6061	0.0	Yes	2.623	0.0	n/a	GoodResponse	0	n/a	n/a	1	32	Fixation	AvoidedLoss	True
313.725	0.2	Lose2	0.6061	0.002	Yes	2.623	-0.002	2.0	GoodResponse	0	0.198	312.923	1	32	Target	AvoidedLoss	True
313.923	0.3	Lose2	0.6061	0.002	Yes	2.623	-0.002	2.0	GoodResponse	0	0.198	n/a	1	32	ButtonPress	AvoidedLoss	True
313.925	0.5	Lose2	0.6061	n/a	Yes	2.623	n/a	n/a	GoodResponse	0	n/a	n/a	1	32	Blank	AvoidedLoss	True
314.425	1.45	Lose2	0.6061	n/a	Yes	2.623	n/a	5.0	GoodResponse	0	0.037	313.462	1	32	Feedback	AvoidedLoss	True
315.875	2.623	Lose2	0.6061	n/a	Yes	2.623	n/a	n/a	GoodResponse	0	0.0	n/a	1	32	ISIslide	AvoidedLoss	True
318.524	0.25	Win2	0.6175999999999999	0.0	Yes	2.676	0.024	n/a	GoodResponse	1	n/a	n/a	2	33	Cue	Win	True
318.774	4.0	Win2	0.6175999999999999	0.0	Yes	2.676	0.0	n/a	GoodResponse	1	n/a	n/a	2	33	Fixation	Win	True
322.772	0.21	Win2	0.6175999999999999	0.002	Yes	2.676	-0.002	2.0	GoodResponse	1	0.188	321.96	2	33	Target	Win	True
322.96	0.3	Win2	0.6175999999999999	0.002	Yes	2.676	-0.002	2.0	GoodResponse	1	0.188	n/a	2	33	ButtonPress	Win	True
322.989	0.49	Win2	0.6175999999999999	n/a	Yes	2.676	n/a	n/a	GoodResponse	1	n/a	n/a	2	33	Blank	Win	True
323.472	1.45	Win2	0.6175999999999999	n/a	Yes	2.676	n/a	5.0	GoodResponse	1	0.014	322.486	2	33	Feedback	Win	True
324.922	2.676	Win2	0.6175999999999999	n/a	Yes	2.676	n/a	n/a	GoodResponse	1	0.0	n/a	2	33	ISIslide	Win	True
327.621	0.25	Lose2	0.6	0.0	No	2.629	0.021	n/a	NoResponse	-1	n/a	n/a	1	34	Cue	Loss	True
327.87	4.05	Lose2	0.6	0.001	No	2.629	-0.001	n/a	NoResponse	-1	n/a	n/a	1	34	Fixation	Loss	True
331.919	0.22	Lose2	0.6	0.002	No	2.629	-0.002	2.0	NoResponse	-1	0.254	331.173	1	34	Target	Loss	True
332.152	0.48	Lose2	0.6	n/a	No	2.629	n/a	n/a	NoResponse	-1	n/a	n/a	1	34	Blank	Loss	True
332.173	0.3	Lose2	0.6	0.002	No	2.629	-0.002	2.0	NoResponse	-1	0.254	n/a	1	34	ButtonPress	Loss	True
332.619	1.45	Lose2	0.6	n/a	No	2.629	n/a	5.0	NoResponse	-1	0.038	331.657	1	34	Feedback	Loss	True
334.068	2.629	Lose2	0.6	n/a	No	2.629	n/a	n/a	NoResponse	-1	0.0	n/a	1	34	ISIslide	Loss	True
336.717	0.25	Lose2	0.5832999999999999	0.0	No	2.683	0.017	n/a	LatePress	-1	n/a	n/a	0	35	Cue	Loss	True
336.967	4.0	Lose2	0.5832999999999999	0.0	No	2.683	0.0	n/a	LatePress	-1	n/a	n/a	0	35	Fixation	Loss	True
340.966	0.23	Lose2	0.5832999999999999	0.001	No	2.683	-0.001	2.0	LatePress	-1	0.233	340.199	0	35	Target	Loss	True
341.199	0.47	Lose2	0.5832999999999999	n/a	No	2.683	n/a	n/a	LatePress	-1	n/a	n/a	0	35	Blank	Loss	True
341.199	0.3	Lose2	0.5832999999999999	0.001	No	2.683	-0.001	2.0	LatePress	-1	0.233	n/a	0	35	ButtonPress	Loss	True
341.666	1.45	Lose2	0.5832999999999999	n/a	No	2.683	n/a	5.0	LatePress	-1	0.015	340.681	0	35	Feedback	Loss	True
343.115	2.683	Lose2	0.5832999999999999	n/a	No	2.683	n/a	n/a	LatePress	-1	0.0	n/a	0	35	ISIslide	Loss	True
345.814	0.25	Control	0.5946	0.0	Yes	2.686	0.014	n/a	GoodResponse	0	n/a	n/a	0	36	Cue	Neutral	True
346.064	4.0	Control	0.5946	0.0	Yes	2.686	0.0	n/a	GoodResponse	0	n/a	n/a	0	36	Fixation	Neutral	True
350.063	0.24	Control	0.5946	0.001	Yes	2.686	-0.001	2.0	GoodResponse	0	0.175	349.238	0	36	Target	Neutral	True
350.238	0.3	Control	0.5946	0.001	Yes	2.686	-0.001	2.0	GoodResponse	0	0.175	n/a	0	36	ButtonPress	Neutral	True
350.313	0.46	Control	0.5946	n/a	Yes	2.686	n/a	n/a	GoodResponse	0	n/a	n/a	0	36	Blank	Neutral	True
350.762	1.45	Control	0.5946	n/a	Yes	2.686	n/a	5.0	GoodResponse	0	0.042	349.804	0	36	Feedback	Neutral	True
352.212	2.686	Control	0.5946	n/a	Yes	2.686	n/a	n/a	GoodResponse	0	0.0	n/a	0	36	ISIslide	Neutral	True
354.928	0.25	Win2	0.6053000000000001	0.0	Yes	2.872	0.028	n/a	GoodResponse	1	n/a	n/a	1	37	Cue	Win	True
355.178	4.0	Win2	0.6053000000000001	0.0	Yes	2.872	0.0	n/a	GoodResponse	1	n/a	n/a	1	37	Fixation	Win	True
359.176	0.25	Win2	0.6053000000000001	0.002	Yes	2.872	-0.002	2.0	GoodResponse	1	0.202	358.378	1	37	Target	Win	True
359.378	0.3	Win2	0.6053000000000001	0.002	Yes	2.872	-0.002	2.0	GoodResponse	1	0.202	n/a	1	37	ButtonPress	Win	True
359.426	0.45	Win2	0.6053000000000001	n/a	Yes	2.872	n/a	n/a	GoodResponse	1	n/a	n/a	1	37	Blank	Win	True
359.876	1.45	Win2	0.6053000000000001	n/a	Yes	2.872	n/a	5.0	GoodResponse	1	0.0	358.876	1	37	Feedback	Win	True
361.325	2.872	Win2	0.6053000000000001	n/a	Yes	2.872	n/a	n/a	GoodResponse	1	0.0	n/a	1	37	ISIslide	Win	True
364.224	0.25	Lose2	0.6154	0.0	Yes	2.826	0.024	n/a	GoodResponse	0	n/a	n/a	1	38	Cue	AvoidedLoss	True
364.474	3.95	Lose2	0.6154	0.0	Yes	2.826	0.0	n/a	GoodResponse	0	n/a	n/a	1	38	Fixation	AvoidedLoss	True
368.423	0.26	Lose2	0.6154	0.001	Yes	2.826	-0.001	2.0	GoodResponse	0	0.191	367.614	1	38	Target	AvoidedLoss	True
368.614	0.3	Lose2	0.6154	0.001	Yes	2.826	-0.001	2.0	GoodResponse	0	0.191	n/a	1	38	ButtonPress	AvoidedLoss	True
368.689	0.44	Lose2	0.6154	n/a	Yes	2.826	n/a	n/a	GoodResponse	0	n/a	n/a	1	38	Blank	AvoidedLoss	True
369.123	1.45	Lose2	0.6154	n/a	Yes	2.826	n/a	5.0	GoodResponse	0	0.021	368.144	1	38	Feedback	AvoidedLoss	True
370.572	2.826	Lose2	0.6154	n/a	Yes	2.826	n/a	n/a	GoodResponse	0	0.0	n/a	1	38	ISIslide	AvoidedLoss	True
373.421	0.25	Win2	0.625	0.0	Yes	2.979	0.021	n/a	GoodResponse	1	n/a	n/a	2	39	Cue	Win	True
373.671	4.1	Win2	0.625	0.0	Yes	2.979	0.0	n/a	GoodResponse	1	n/a	n/a	2	39	Fixation	Win	True
377.77	0.27	Win2	0.625	0.001	Yes	2.979	-0.001	2.0	GoodResponse	1	0.193	376.963	2	39	Target	Win	True
377.963	0.3	Win2	0.625	0.001	Yes	2.979	-0.001	2.0	GoodResponse	1	0.193	n/a	2	39	ButtonPress	Win	True
378.053	0.43	Win2	0.625	n/a	Yes	2.979	n/a	n/a	GoodResponse	1	n/a	n/a	2	39	Blank	Win	True
378.469	1.45	Win2	0.625	n/a	Yes	2.979	n/a	5.0	GoodResponse	1	0.041	377.51	2	39	Feedback	Win	True
379.919	2.979	Win2	0.625	n/a	Yes	2.979	n/a	n/a	GoodResponse	1	0.0	n/a	2	39	ISIslide	Win	True
382.918	0.25	Win2	0.6341	0.0	Yes	2.732	0.018	n/a	GoodResponse	1	n/a	n/a	3	40	Cue	Win	True
383.168	3.95	Win2	0.6341	0.0	Yes	2.732	0.0	n/a	GoodResponse	1	n/a	n/a	3	40	Fixation	Win	True
387.116	0.28	Win2	0.6341	0.002	Yes	2.732	-0.002	2.0	GoodResponse	1	0.201	386.317	3	40	Target	Win	True
387.317	0.3	Win2	0.6341	0.002	Yes	2.732	-0.002	2.0	GoodResponse	1	0.201	n/a	3	40	ButtonPress	Win	True
387.4	0.42	Win2	0.6341	n/a	Yes	2.732	n/a	n/a	GoodResponse	1	n/a	n/a	3	40	Blank	Win	True
387.816	1.45	Win2	0.6341	n/a	Yes	2.732	n/a	5.0	GoodResponse	1	0.011	386.827	3	40	Feedback	Win	True
389.266	2.732	Win2	0.6341	n/a	Yes	2.732	n/a	n/a	GoodResponse	1	0.0	n/a	3	40	ISIslide	Win	True
392.015	0.25	Win2	0.6429	0.0	Yes	2.785	0.015	n/a	GoodResponse	1	n/a	n/a	4	41	Cue	Win	True
392.264	3.9	Win2	0.6429	0.001	Yes	2.785	-0.001	n/a	GoodResponse	1	n/a	n/a	4	41	Fixation	Win	True
396.163	0.29	Win2	0.6429	0.002	Yes	2.785	-0.002	2.0	GoodResponse	1	0.197	395.36	4	41	Target	Win	True
396.36	0.3	Win2	0.6429	0.002	Yes	2.785	-0.002	2.0	GoodResponse	1	0.197	n/a	4	41	ButtonPress	Win	True
396.463	0.41	Win2	0.6429	n/a	Yes	2.785	n/a	n/a	GoodResponse	1	n/a	n/a	4	41	Blank	Win	True
396.863	1.45	Win2	0.6429	n/a	Yes	2.785	n/a	5.0	GoodResponse	1	0.037	395.9	4	41	Feedback	Win	True
398.312	2.785	Win2	0.6429	n/a	Yes	2.785	n/a	n/a	GoodResponse	1	0.0	n/a	4	41	ISIslide	Win	True
401.128	0.25	Control	0.6512	0.0	Yes	2.922	0.028	n/a	GoodResponse	0	n/a	n/a	4	42	Cue	Neutral	True
401.378	3.85	Control	0.6512	0.0	Yes	2.922	0.0	n/a	GoodResponse	0	n/a	n/a	4	42	Fixation	Neutral	True
405.227	0.3	Control	0.6512	0.001	Yes	2.922	-0.001	2.0	GoodResponse	0	0.247	404.474	4	42	Target	Neutral	True
405.474	0.3	Control	0.6512	0.001	Yes	2.922	-0.001	2.0	GoodResponse	0	0.247	n/a	4	42	ButtonPress	Neutral	True
405.526	0.4	Control	0.6512	n/a	Yes	2.922	n/a	n/a	GoodResponse	0	n/a	n/a	4	42	Blank	Neutral	True
405.926	1.45	Control	0.6512	n/a	Yes	2.922	n/a	5.0	GoodResponse	0	0.047	404.973	4	42	Feedback	Neutral	True
407.376	2.922	Control	0.6512	n/a	Yes	2.922	n/a	n/a	GoodResponse	0	0.0	n/a	4	42	ISIslide	Neutral	True
410.325	0.25	Win2	0.6364	0.0	No	3.175	0.025	n/a	NoResponse	0	n/a	n/a	4	43	Cue	MissedWin	True
410.575	4.0	Win2	0.6364	0.0	No	3.175	0.0	2.0	NoResponse	0	3.441	413.016	4	43	Fixation	MissedWin	True
414.016	0.3	Win2	0.6364	0.0	No	3.175	0.0	2.0	NoResponse	0	3.441	n/a	4	43	ButtonPress	MissedWin	True
414.573	0.31	Win2	0.6364	0.002	No	3.175	-0.002	n/a	NoResponse	0	n/a	n/a	4	43	Target	MissedWin	True
414.89	0.39	Win2	0.6364	n/a	No	3.175	n/a	n/a	NoResponse	0	n/a	n/a	4	43	Blank	MissedWin	True
415.273	1.45	Win2	0.6364	n/a	No	3.175	n/a	5.0	NoResponse	0	0.017	414.29	4	43	Feedback	MissedWin	True
416.722	3.175	Win2	0.6364	n/a	No	3.175	n/a	n/a	NoResponse	0	0.0	n/a	4	43	ISIslide	MissedWin	True
419.921	0.25	Win2	0.6444	0.0	Yes	2.979	0.021	n/a	GoodResponse	1	n/a	n/a	5	44	Cue	Win	True
420.171	4.0	Win2	0.6444	0.0	Yes	2.979	0.0	n/a	GoodResponse	1	n/a	n/a	5	44	Fixation	Win	True
424.17	0.32	Win2	0.6444	0.001	Yes	2.979	-0.001	2.0	GoodResponse	1	0.225	423.395	5	44	Target	Win	True
424.395	0.3	Win2	0.6444	0.001	Yes	2.979	-0.001	2.0	GoodResponse	1	0.225	n/a	5	44	ButtonPress	Win	True
424.486	0.38	Win2	0.6444	n/a	Yes	2.979	n/a	n/a	GoodResponse	1	n/a	n/a	5	44	Blank	Win	True
424.87	1.45	Win2	0.6444	n/a	Yes	2.979	n/a	5.0	GoodResponse	1	0.03	423.9	5	44	Feedback	Win	True
426.319	2.979	Win2	0.6444	n/a	Yes	2.979	n/a	n/a	GoodResponse	1	0.0	n/a	5	44	ISIslide	Win	True
429.318	0.25	Control	0.6522	0.0	Yes	2.882	0.018	n/a	GoodResponse	0	n/a	n/a	5	45	Cue	Neutral	True
429.568	4.1	Control	0.6522	0.0	Yes	2.882	0.0	n/a	GoodResponse	0	n/a	n/a	5	45	Fixation	Neutral	True
433.667	0.33	Control	0.6522	0.001	Yes	2.882	-0.001	2.0	GoodResponse	0	0.221	432.888	5	45	Target	Neutral	True
433.888	0.3	Control	0.6522	0.001	Yes	2.882	-0.001	2.0	GoodResponse	0	0.221	n/a	5	45	ButtonPress	Neutral	True
434	0.37	Control	0.6522	n/a	Yes	2.882	n/a	n/a	GoodResponse	0	n/a	n/a	5	45	Blank	Neutral	True
434.366	1.45	Control	0.6522	n/a	Yes	2.882	n/a	5.0	GoodResponse	0	0.046	433.412	5	45	Feedback	Neutral	True
435.816	2.882	Control	0.6522	n/a	Yes	2.882	n/a	n/a	GoodResponse	0	0.0	n/a	5	45	ISIslide	Neutral	True
438.715	0.25	Lose2	0.6596	0.0	Yes	3.385	0.015	n/a	GoodResponse	0	n/a	n/a	5	46	Cue	AvoidedLoss	True
438.965	4.0	Lose2	0.6596	0.0	Yes	3.385	0.0	n/a	GoodResponse	0	n/a	n/a	5	46	Fixation	AvoidedLoss	True
442.963	0.34	Lose2	0.6596	0.002	Yes	3.385	-0.002	2.0	GoodResponse	0	0.253	442.216	5	46	Target	AvoidedLoss	True
443.216	0.3	Lose2	0.6596	0.002	Yes	3.385	-0.002	2.0	GoodResponse	0	0.253	n/a	5	46	ButtonPress	AvoidedLoss	True
443.313	0.36	Lose2	0.6596	n/a	Yes	3.385	n/a	n/a	GoodResponse	0	n/a	n/a	5	46	Blank	AvoidedLoss	True
443.663	1.45	Lose2	0.6596	n/a	Yes	3.385	n/a	5.0	GoodResponse	0	0.017	442.68	5	46	Feedback	AvoidedLoss	True
445.112	3.385	Lose2	0.6596	n/a	Yes	3.385	n/a	n/a	GoodResponse	0	0.0	n/a	5	46	ISIslide	AvoidedLoss	True
448.528	0.25	Lose2	0.6667000000000001	0.0	Yes	2.672	0.028	n/a	GoodResponse	0	n/a	n/a	5	47	Cue	AvoidedLoss	True
448.778	4.0	Lose2	0.6667000000000001	0.0	Yes	2.672	0.0	n/a	GoodResponse	0	n/a	n/a	5	47	Fixation	AvoidedLoss	True
452.776	0.34	Lose2	0.6667000000000001	0.002	Yes	2.672	-0.002	2.0	GoodResponse	0	0.206	451.982	5	47	Target	AvoidedLoss	True
452.982	0.3	Lose2	0.6667000000000001	0.002	Yes	2.672	-0.002	2.0	GoodResponse	0	0.206	n/a	5	47	ButtonPress	AvoidedLoss	True
453.126	0.36	Lose2	0.6667000000000001	n/a	Yes	2.672	n/a	n/a	GoodResponse	0	n/a	n/a	5	47	Blank	AvoidedLoss	True
453.476	1.45	Lose2	0.6667000000000001	n/a	Yes	2.672	n/a	5.0	GoodResponse	0	0.009	452.485	5	47	Feedback	AvoidedLoss	True
454.926	2.672	Lose2	0.6667000000000001	n/a	Yes	2.672	n/a	n/a	GoodResponse	0	0.0	n/a	5	47	ISIslide	AvoidedLoss	True
457.625	0.25	Lose2	0.6735	0.0	Yes	3.025	0.025	n/a	GoodResponse	0	n/a	n/a	5	48	Cue	AvoidedLoss	True
457.875	3.95	Lose2	0.6735	0.0	Yes	3.025	0.0	n/a	GoodResponse	0	n/a	n/a	5	48	Fixation	AvoidedLoss	True
461.823	0.33	Lose2	0.6735	0.002	Yes	3.025	-0.002	2.0	GoodResponse	0	0.197	461.02	5	48	Target	AvoidedLoss	True
462.02	0.3	Lose2	0.6735	0.002	Yes	3.025	-0.002	2.0	GoodResponse	0	0.197	n/a	5	48	ButtonPress	AvoidedLoss	True
462.156	0.37	Lose2	0.6735	n/a	Yes	3.025	n/a	n/a	GoodResponse	0	n/a	n/a	5	48	Blank	AvoidedLoss	True
462.523	1.45	Lose2	0.6735	n/a	Yes	3.025	n/a	5.0	GoodResponse	0	0.035	461.558	5	48	Feedback	AvoidedLoss	True
463.973	3.025	Lose2	0.6735	n/a	Yes	3.025	n/a	n/a	GoodResponse	0	0.0	n/a	5	48	ISIslide	AvoidedLoss	True
467.021	0.25	Control	0.68	0.001	Yes	2.879	0.021	n/a	GoodResponse	0	n/a	n/a	5	49	Cue	Neutral	True
467.271	4.0	Control	0.68	0.0	Yes	2.879	0.0	n/a	GoodResponse	0	n/a	n/a	5	49	Fixation	Neutral	True
471.27	0.32	Control	0.68	0.001	Yes	2.879	-0.001	2.0	GoodResponse	0	0.225	470.495	5	49	Target	Neutral	True
471.495	0.3	Control	0.68	0.001	Yes	2.879	-0.001	2.0	GoodResponse	0	0.225	n/a	5	49	ButtonPress	Neutral	True
471.587	0.38	Control	0.68	n/a	Yes	2.879	n/a	n/a	GoodResponse	0	n/a	n/a	5	49	Blank	Neutral	True
471.97	1.45	Control	0.68	n/a	Yes	2.879	n/a	5.0	GoodResponse	0	0.007	470.977	5	49	Feedback	Neutral	True
473.419	2.879	Control	0.68	n/a	Yes	2.879	n/a	n/a	GoodResponse	0	0.0	n/a	5	49	ISIslide	Neutral	True
476.318	0.25	Control	0.6862999999999999	0.0	Yes	2.782	0.018	n/a	GoodResponse	0	n/a	n/a	5	50	Cue	Neutral	True
476.568	4.0	Control	0.6862999999999999	0.0	Yes	2.782	0.0	n/a	GoodResponse	0	n/a	n/a	5	50	Fixation	Neutral	True
480.567	0.31	Control	0.6862999999999999	0.001	Yes	2.782	-0.001	2.0	GoodResponse	0	0.24	479.807	5	50	Target	Neutral	True
480.807	0.3	Control	0.6862999999999999	0.001	Yes	2.782	-0.001	2.0	GoodResponse	0	0.24	n/a	5	50	ButtonPress	Neutral	True
480.883	0.39	Control	0.6862999999999999	n/a	Yes	2.782	n/a	n/a	GoodResponse	0	n/a	n/a	5	50	Blank	Neutral	True
481.266	1.45	Control	0.6862999999999999	n/a	Yes	2.782	n/a	5.0	GoodResponse	0	0.024	480.29	5	50	Feedback	Neutral	True
482.716	2.782	Control	0.6862999999999999	n/a	Yes	2.782	n/a	n/a	GoodResponse	0	0.0	n/a	5	50	ISIslide	Neutral	True
485.515	0.25	Control	0.6923	0.0	Yes	2.735	0.015	n/a	GoodResponse	0	n/a	n/a	5	51	Cue	Neutral	True
485.765	3.95	Control	0.6923	0.0	Yes	2.735	0.0	n/a	GoodResponse	0	n/a	n/a	5	51	Fixation	Neutral	True
489.713	0.3	Control	0.6923	0.002	Yes	2.735	-0.002	2.0	GoodResponse	0	0.189	488.902	5	51	Target	Neutral	True
489.902	0.3	Control	0.6923	0.002	Yes	2.735	-0.002	2.0	GoodResponse	0	0.189	n/a	5	51	ButtonPress	Neutral	True
490.013	0.4	Control	0.6923	n/a	Yes	2.735	n/a	n/a	GoodResponse	0	n/a	n/a	5	51	Blank	Neutral	True
490.413	1.45	Control	0.6923	n/a	Yes	2.735	n/a	5.0	GoodResponse	0	0.047	489.46	5	51	Feedback	Neutral	True
491.863	2.735	Control	0.6923	n/a	Yes	2.735	n/a	n/a	GoodResponse	0	0.0	n/a	5	51	ISIslide	Neutral	True
494.628	0.25	Control	0.6981	0.001	Yes	2.622	0.028	n/a	GoodResponse	0	n/a	n/a	5	52	Cue	Neutral	True
494.878	4.05	Control	0.6981	0.0	Yes	2.622	0.0	n/a	GoodResponse	0	n/a	n/a	5	52	Fixation	Neutral	True
498.927	0.29	Control	0.6981	0.001	Yes	2.622	-0.001	2.0	GoodResponse	0	0.19	498.117	5	52	Target	Neutral	True
499.117	0.3	Control	0.6981	0.001	Yes	2.622	-0.001	2.0	GoodResponse	0	0.19	n/a	5	52	ButtonPress	Neutral	True
499.227	0.41	Control	0.6981	n/a	Yes	2.622	n/a	n/a	GoodResponse	0	n/a	n/a	5	52	Blank	Neutral	True
499.627	1.45	Control	0.6981	n/a	Yes	2.622	n/a	5.0	GoodResponse	0	0.006	498.633	5	52	Feedback	Neutral	True
501.076	2.622	Control	0.6981	n/a	Yes	2.622	n/a	n/a	GoodResponse	0	0.0	n/a	5	52	ISIslide	Neutral	True
503.725	0.25	Win2	0.7037	0.0	Yes	2.925	0.025	n/a	GoodResponse	1	n/a	n/a	6	53	Cue	Win	True
503.975	4.05	Win2	0.7037	0.0	Yes	2.925	0.0	n/a	GoodResponse	1	n/a	n/a	6	53	Fixation	Win	True
508.024	0.28	Win2	0.7037	0.001	Yes	2.925	-0.001	2.0	GoodResponse	1	0.213	507.237	6	53	Target	Win	True
508.237	0.3	Win2	0.7037	0.001	Yes	2.925	-0.001	2.0	GoodResponse	1	0.213	n/a	6	53	ButtonPress	Win	True
508.307	0.42	Win2	0.7037	n/a	Yes	2.925	n/a	n/a	GoodResponse	1	n/a	n/a	6	53	Blank	Win	True
508.723	1.45	Win2	0.7037	n/a	Yes	2.925	n/a	5.0	GoodResponse	1	0.03	507.753	6	53	Feedback	Win	True
510.173	2.925	Win2	0.7037	n/a	Yes	2.925	n/a	n/a	GoodResponse	1	0.0	n/a	6	53	ISIslide	Win	True
513.122	0.25	Win2	0.7091	0.0	Yes	2.728	0.022	n/a	GoodResponse	1	n/a	n/a	7	54	Cue	Win	True
513.372	3.95	Win2	0.7091	0.0	Yes	2.728	0.0	n/a	GoodResponse	1	n/a	n/a	7	54	Fixation	Win	True
517.32	0.27	Win2	0.7091	0.002	Yes	2.728	-0.002	2.0	GoodResponse	1	0.171	516.491	7	54	Target	Win	True
517.491	0.3	Win2	0.7091	0.002	Yes	2.728	-0.002	2.0	GoodResponse	1	0.171	n/a	7	54	ButtonPress	Win	True
517.604	0.43	Win2	0.7091	n/a	Yes	2.728	n/a	n/a	GoodResponse	1	n/a	n/a	7	54	Blank	Win	True
518.02	1.45	Win2	0.7091	n/a	Yes	2.728	n/a	5.0	GoodResponse	1	0.001	517.021	7	54	Feedback	Win	True
519.47	2.728	Win2	0.7091	n/a	Yes	2.728	n/a	n/a	GoodResponse	1	0.0	n/a	7	54	ISIslide	Win	True
522.219	0.25	Control	0.7143	0.0	Yes	3.031	0.019	n/a	GoodResponse	0	n/a	n/a	7	55	Cue	Neutral	True
522.469	3.95	Control	0.7143	0.0	Yes	3.031	0.0	n/a	GoodResponse	0	n/a	n/a	7	55	Fixation	Neutral	True
526.417	0.26	Control	0.7143	0.002	Yes	3.031	-0.002	2.0	GoodResponse	0	0.255	525.672	7	55	Target	Neutral	True
526.672	0.3	Control	0.7143	0.002	Yes	3.031	-0.002	2.0	GoodResponse	0	0.255	n/a	7	55	ButtonPress	Neutral	True
526.684	0.44	Control	0.7143	n/a	Yes	3.031	n/a	n/a	GoodResponse	0	n/a	n/a	7	55	Blank	Neutral	True
527.117	1.45	Control	0.7143	n/a	Yes	3.031	n/a	5.0	GoodResponse	0	0.025	526.142	7	55	Feedback	Neutral	True
528.566	3.031	Control	0.7143	n/a	Yes	3.031	n/a	n/a	GoodResponse	0	0.0	n/a	7	55	ISIslide	Neutral	True
531.615	0.25	Control	0.7193	0.0	Yes	2.835	0.015	n/a	GoodResponse	0	n/a	n/a	7	56	Cue	Neutral	True
531.865	3.95	Control	0.7193	0.0	Yes	2.835	0.0	n/a	GoodResponse	0	n/a	n/a	7	56	Fixation	Neutral	True
535.814	0.25	Control	0.7193	0.001	Yes	2.835	-0.001	2.0	GoodResponse	0	0.175	534.989	7	56	Target	Neutral	True
535.989	0.3	Control	0.7193	0.001	Yes	2.835	-0.001	2.0	GoodResponse	0	0.175	n/a	7	56	ButtonPress	Neutral	True
536.064	0.45	Control	0.7193	n/a	Yes	2.835	n/a	n/a	GoodResponse	0	n/a	n/a	7	56	Blank	Neutral	True
536.514	1.45	Control	0.7193	n/a	Yes	2.835	n/a	5.0	GoodResponse	0	0.043	535.557	7	56	Feedback	Neutral	True
537.963	2.835	Control	0.7193	n/a	Yes	2.835	n/a	n/a	GoodResponse	0	0.0	n/a	7	56	ISIslide	Neutral	True
540.829	0.25	Control	0.7241	0.0	Yes	3.471	0.029	n/a	GoodResponse	0	n/a	n/a	7	57	Cue	Neutral	True
541.079	4.0	Control	0.7241	0.0	Yes	3.471	0.0	n/a	GoodResponse	0	n/a	n/a	7	57	Fixation	Neutral	True
545.077	0.24	Control	0.7241	0.002	Yes	3.471	-0.002	2.0	GoodResponse	0	0.237	544.314	7	57	Target	Neutral	True
545.314	0.3	Control	0.7241	0.002	Yes	3.471	-0.002	2.0	GoodResponse	0	0.237	n/a	7	57	ButtonPress	Neutral	True
545.327	0.46	Control	0.7241	n/a	Yes	3.471	n/a	n/a	GoodResponse	0	n/a	n/a	7	57	Blank	Neutral	True
545.777	1.45	Control	0.7241	n/a	Yes	3.471	n/a	5.0	GoodResponse	0	0.048	544.825	7	57	Feedback	Neutral	True
547.227	3.471	Control	0.7241	n/a	Yes	3.471	n/a	n/a	GoodResponse	0	0.0	n/a	7	57	ISIslide	Neutral	True
550.725	0.25	Win2	0.7288	0.0	Yes	2.725	0.025	n/a	GoodResponse	1	n/a	n/a	8	58	Cue	Win	True
550.975	4.05	Win2	0.7288	0.0	Yes	2.725	0.0	n/a	GoodResponse	1	n/a	n/a	8	58	Fixation	Win	True
555.024	0.23	Win2	0.7288	0.001	Yes	2.725	-0.001	2.0	GoodResponse	1	0.183	554.207	8	58	Target	Win	True
555.207	0.3	Win2	0.7288	0.001	Yes	2.725	-0.001	2.0	GoodResponse	1	0.183	n/a	8	58	ButtonPress	Win	True
555.257	0.47	Win2	0.7288	n/a	Yes	2.725	n/a	n/a	GoodResponse	1	n/a	n/a	8	58	Blank	Win	True
555.724	1.45	Win2	0.7288	n/a	Yes	2.725	n/a	5.0	GoodResponse	1	0.007	554.731	8	58	Feedback	Win	True
557.173	2.725	Win2	0.7288	n/a	Yes	2.725	n/a	n/a	GoodResponse	1	0.0	n/a	8	58	ISIslide	Win	True
559.922	0.25	Lose2	0.7167	0.0	No	2.678	0.022	n/a	LatePress	-1	n/a	n/a	7	59	Cue	Loss	True
560.172	4.0	Lose2	0.7167	0.0	No	2.678	0.0	n/a	LatePress	-1	n/a	n/a	7	59	Fixation	Loss	True
564.171	0.22	Lose2	0.7167	0.001	No	2.678	-0.001	2.0	LatePress	-1	0.228	563.399	7	59	Target	Loss	True
564.399	0.3	Lose2	0.7167	0.001	No	2.678	-0.001	2.0	LatePress	-1	0.228	n/a	7	59	ButtonPress	Loss	True
564.404	0.48	Lose2	0.7167	n/a	No	2.678	n/a	n/a	LatePress	-1	n/a	n/a	7	59	Blank	Loss	True
564.87	1.45	Lose2	0.7167	n/a	No	2.678	n/a	5.0	LatePress	-1	0.029	563.899	7	59	Feedback	Loss	True
566.32	2.678	Lose2	0.7167	n/a	No	2.678	n/a	n/a	LatePress	-1	0.0	n/a	7	59	ISIslide	Loss	True
569.019	0.25	Control	0.7049	0.0	No	2.681	0.019	n/a	NoResponse	0	n/a	n/a	7	60	Cue	Neutral	True
569.269	4.0	Control	0.7049	0.0	No	2.681	0.0	2.0	NoResponse	0	3.988	572.257	7	60	Fixation	Neutral	True
573.257	0.3	Control	0.7049	0.0	No	2.681	0.0	2.0	NoResponse	0	3.988	n/a	7	60	ButtonPress	Neutral	True
573.267	0.21	Control	0.7049	0.002	No	2.681	-0.002	n/a	NoResponse	0	n/a	n/a	7	60	Target	Neutral	True
573.484	0.49	Control	0.7049	n/a	No	2.681	n/a	n/a	NoResponse	0	n/a	n/a	7	60	Blank	Neutral	True
573.967	1.45	Control	0.7049	n/a	No	2.681	n/a	5.0	NoResponse	0	0.008	572.975	7	60	Feedback	Neutral	True
575.417	2.681	Control	0.7049	n/a	No	2.681	n/a	n/a	NoResponse	0	0.0	n/a	7	60	ISIslide	Neutral	True
578.116	0.25	Lose2	0.6934999999999999	0.0	No	2.984	0.016	n/a	NoResponse	-1	n/a	n/a	6	61	Cue	Loss	True
578.366	4.0	Lose2	0.6934999999999999	0.0	No	2.984	0.0	n/a	NoResponse	-1	n/a	n/a	6	61	Fixation	Loss	True
582.364	0.2	Lose2	0.6934999999999999	0.002	No	2.984	-0.002	2.0	NoResponse	-1	0.214	581.578	6	61	Target	Loss	True
582.564	0.5	Lose2	0.6934999999999999	n/a	No	2.984	n/a	n/a	NoResponse	-1	n/a	n/a	6	61	Blank	Loss	True
582.578	0.3	Lose2	0.6934999999999999	0.002	No	2.984	-0.002	2.0	NoResponse	-1	0.214	n/a	6	61	ButtonPress	Loss	True
583.064	1.45	Lose2	0.6934999999999999	n/a	No	2.984	n/a	5.0	NoResponse	-1	0.029	582.093	6	61	Feedback	Loss	True
584.513	2.984	Lose2	0.6934999999999999	n/a	No	2.984	n/a	n/a	NoResponse	-1	0.0	n/a	6	61	ISIslide	Loss	True
587.529	0.25	Lose2	0.6825	0.0	No	2.871	0.029	n/a	LatePress	-1	n/a	n/a	5	62	Cue	Loss	True
587.779	3.9	Lose2	0.6825	0.0	No	2.871	0.0	n/a	LatePress	-1	n/a	n/a	5	62	Fixation	Loss	True
591.678	0.19	Lose2	0.6825	0.001	No	2.871	-0.001	2.0	LatePress	-1	0.198	590.876	5	62	Target	Loss	True
591.876	0.3	Lose2	0.6825	0.001	No	2.871	-0.001	2.0	LatePress	-1	0.198	n/a	5	62	ButtonPress	Loss	True
591.877	0.51	Lose2	0.6825	n/a	No	2.871	n/a	n/a	LatePress	-1	n/a	n/a	5	62	Blank	Loss	True
592.377	1.45	Lose2	0.6825	n/a	No	2.871	n/a	5.0	LatePress	-1	0.033	591.41	5	62	Feedback	Loss	True
593.827	2.871	Lose2	0.6825	n/a	No	2.871	n/a	n/a	LatePress	-1	0.0	n/a	5	62	ISIslide	Loss	True
596.726	0.25	Lose2	0.6718999999999999	0.0	No	2.624	0.026	n/a	NoResponse	-1	n/a	n/a	4	63	Cue	Loss	True
596.976	4.05	Lose2	0.6718999999999999	0.0	No	2.624	0.0	n/a	NoResponse	-1	n/a	n/a	4	63	Fixation	Loss	True
601.024	0.18	Lose2	0.6718999999999999	0.002	No	2.624	-0.002	2.0	NoResponse	-1	0.256	600.28	4	63	Target	Loss	True
601.208	0.52	Lose2	0.6718999999999999	n/a	No	2.624	n/a	n/a	NoResponse	-1	n/a	n/a	4	63	Blank	Loss	True
601.28	0.3	Lose2	0.6718999999999999	0.002	No	2.624	-0.002	2.0	NoResponse	-1	0.256	n/a	4	63	ButtonPress	Loss	True
601.724	1.45	Lose2	0.6718999999999999	n/a	No	2.624	n/a	5.0	NoResponse	-1	0.007	600.731	4	63	Feedback	Loss	True
603.173	2.624	Lose2	0.6718999999999999	n/a	No	2.624	n/a	n/a	NoResponse	-1	0.0	n/a	4	63	ISIslide	Loss	True
605.823	0.25	Win2	0.6615000000000001	0.0	No	3.127	0.023	n/a	LatePress	0	n/a	n/a	4	64	Cue	MissedWin	True
606.072	4.15	Win2	0.6615000000000001	0.001	No	3.127	-0.001	n/a	LatePress	0	n/a	n/a	4	64	Fixation	MissedWin	True
610.221	0.17	Win2	0.6615000000000001	0.002	No	3.127	-0.002	2.0	LatePress	0	0.182	609.403	4	64	Target	MissedWin	True
610.403	0.3	Win2	0.6615000000000001	0.002	No	3.127	-0.002	2.0	LatePress	0	0.182	n/a	4	64	ButtonPress	MissedWin	True
610.404	0.53	Win2	0.6615000000000001	n/a	No	3.127	n/a	n/a	LatePress	0	n/a	n/a	4	64	Blank	MissedWin	True
610.921	1.45	Win2	0.6615000000000001	n/a	No	3.127	n/a	5.0	LatePress	0	0.025	609.946	4	64	Feedback	MissedWin	True
612.37	3.127	Win2	0.6615000000000001	n/a	No	3.127	n/a	n/a	LatePress	0	0.0	n/a	4	64	ISIslide	MissedWin	True
615.519	0.25	Control	0.6515000000000001	0.0	No	2.781	0.019	n/a	NoResponse	0	n/a	n/a	4	65	Cue	Neutral	True
615.769	4.0	Control	0.6515000000000001	0.0	No	2.781	0.0	n/a	NoResponse	0	n/a	n/a	4	65	Fixation	Neutral	True
619.768	0.17	Control	0.6515000000000001	0.001	No	2.781	-0.001	2.0	NoResponse	0	0.197	618.965	4	65	Target	Neutral	True
619.951	0.53	Control	0.6515000000000001	n/a	No	2.781	n/a	n/a	NoResponse	0	n/a	n/a	4	65	Blank	Neutral	True
619.965	0.3	Control	0.6515000000000001	0.001	No	2.781	-0.001	2.0	NoResponse	0	0.197	n/a	4	65	ButtonPress	Neutral	True
620.467	1.45	Control	0.6515000000000001	n/a	No	2.781	n/a	5.0	NoResponse	0	0.04	619.507	4	65	Feedback	Neutral	True
621.917	2.781	Control	0.6515000000000001	n/a	No	2.781	n/a	n/a	NoResponse	0	0.0	n/a	4	65	ISIslide	Neutral	True
624.716	0.25	Win2	0.6418	0.0	No	2.784	0.016	n/a	NoResponse	0	n/a	n/a	4	66	Cue	MissedWin	True
624.966	3.9	Win2	0.6418	0.0	No	2.784	0.0	n/a	NoResponse	0	n/a	n/a	4	66	Fixation	MissedWin	True
628.864	0.18	Win2	0.6418	0.002	No	2.784	-0.002	2.0	NoResponse	0	0.26	628.124	4	66	Target	MissedWin	True
629.048	0.52	Win2	0.6418	n/a	No	2.784	n/a	n/a	NoResponse	0	n/a	n/a	4	66	Blank	MissedWin	True
629.124	0.3	Win2	0.6418	0.002	No	2.784	-0.002	2.0	NoResponse	0	0.26	n/a	4	66	ButtonPress	MissedWin	True
629.564	1.45	Win2	0.6418	n/a	No	2.784	n/a	5.0	NoResponse	0	0.017	628.581	4	66	Feedback	MissedWin	True
631.014	2.784	Win2	0.6418	n/a	No	2.784	n/a	n/a	NoResponse	0	0.0	n/a	4	66	ISIslide	MissedWin	True
633.813	0.25	Control	0.6470999999999999	0.0	Yes	2.737	0.013	n/a	GoodResponse	0	n/a	n/a	4	67	Cue	Neutral	True
634.063	3.95	Control	0.6470999999999999	0.0	Yes	2.737	0.0	n/a	GoodResponse	0	n/a	n/a	4	67	Fixation	Neutral	True
638.011	0.19	Control	0.6470999999999999	0.002	Yes	2.737	-0.002	2.0	GoodResponse	0	0.165	637.176	4	67	Target	Neutral	True
638.176	0.3	Control	0.6470999999999999	0.002	Yes	2.737	-0.002	2.0	GoodResponse	0	0.165	n/a	4	67	ButtonPress	Neutral	True
638.211	0.51	Control	0.6470999999999999	n/a	Yes	2.737	n/a	n/a	GoodResponse	0	n/a	n/a	4	67	Blank	Neutral	True
638.711	1.45	Control	0.6470999999999999	n/a	Yes	2.737	n/a	5.0	GoodResponse	0	0.04	637.751	4	67	Feedback	Neutral	True
640.16	2.737	Control	0.6470999999999999	n/a	Yes	2.737	n/a	n/a	GoodResponse	0	0.0	n/a	4	67	ISIslide	Neutral	True
642.926	0.25	Win2	0.6377	0.0	No	3.074	0.026	n/a	NoResponse	0	n/a	n/a	4	68	Cue	MissedWin	True
643.176	4.0	Win2	0.6377	0.0	No	3.074	0.0	n/a	NoResponse	0	n/a	n/a	4	68	Fixation	MissedWin	True
647.175	0.2	Win2	0.6377	0.001	No	3.074	-0.001	2.0	NoResponse	0	0.212	646.387	4	68	Target	MissedWin	True
647.375	0.5	Win2	0.6377	n/a	No	3.074	n/a	n/a	NoResponse	0	n/a	n/a	4	68	Blank	MissedWin	True
647.387	0.3	Win2	0.6377	0.001	No	3.074	-0.001	2.0	NoResponse	0	0.212	n/a	4	68	ButtonPress	MissedWin	True
647.874	1.45	Win2	0.6377	n/a	No	3.074	n/a	5.0	NoResponse	0	0.048	646.922	4	68	Feedback	MissedWin	True
649.324	3.074	Win2	0.6377	n/a	No	3.074	n/a	n/a	NoResponse	0	0.0	n/a	4	68	ISIslide	MissedWin	True
652.423	0.25	Win2	0.6429	0.0	Yes	3.227	0.023	n/a	GoodResponse	1	n/a	n/a	5	69	Cue	Win	True
652.673	3.95	Win2	0.6429	0.0	Yes	3.227	0.0	n/a	GoodResponse	1	n/a	n/a	5	69	Fixation	Win	True
656.621	0.21	Win2	0.6429	0.002	Yes	3.227	-0.002	2.0	GoodResponse	1	0.19	655.811	5	69	Target	Win	True
656.811	0.3	Win2	0.6429	0.002	Yes	3.227	-0.002	2.0	GoodResponse	1	0.19	n/a	5	69	ButtonPress	Win	True
656.838	0.49	Win2	0.6429	n/a	Yes	3.227	n/a	n/a	GoodResponse	1	n/a	n/a	5	69	Blank	Win	True
657.321	1.45	Win2	0.6429	n/a	Yes	3.227	n/a	5.0	GoodResponse	1	0.015	656.336	5	69	Feedback	Win	True
658.771	3.227	Win2	0.6429	n/a	Yes	3.227	n/a	n/a	GoodResponse	1	0.0	n/a	5	69	ISIslide	Win	True
662.019	0.25	Lose2	0.6479	0.001	Yes	3.031	0.019	n/a	GoodResponse	0	n/a	n/a	5	70	Cue	AvoidedLoss	True
662.269	4.05	Lose2	0.6479	0.0	Yes	3.031	0.0	n/a	GoodResponse	0	n/a	n/a	5	70	Fixation	AvoidedLoss	True
666.318	0.22	Lose2	0.6479	0.001	Yes	3.031	-0.001	2.0	GoodResponse	0	0.194	665.512	5	70	Target	AvoidedLoss	True
666.512	0.3	Lose2	0.6479	0.001	Yes	3.031	-0.001	2.0	GoodResponse	0	0.194	n/a	5	70	ButtonPress	AvoidedLoss	True
666.535	0.48	Lose2	0.6479	n/a	Yes	3.031	n/a	n/a	GoodResponse	0	n/a	n/a	5	70	Blank	AvoidedLoss	True
667.018	1.45	Lose2	0.6479	n/a	Yes	3.031	n/a	5.0	GoodResponse	0	0.026	666.044	5	70	Feedback	AvoidedLoss	True
668.467	3.031	Lose2	0.6479	n/a	Yes	3.031	n/a	n/a	GoodResponse	0	0.0	n/a	5	70	ISIslide	AvoidedLoss	True
671.516	0.25	Win2	0.6389	0.0	No	2.734	0.016	n/a	NoResponse	0	n/a	n/a	5	71	Cue	MissedWin	True
671.766	4.05	Win2	0.6389	0.0	No	2.734	0.0	n/a	NoResponse	0	n/a	n/a	5	71	Fixation	MissedWin	True
675.815	0.23	Win2	0.6389	0.001	No	2.734	-0.001	2.0	NoResponse	0	0.257	675.072	5	71	Target	MissedWin	True
676.048	0.47	Win2	0.6389	n/a	No	2.734	n/a	n/a	NoResponse	0	n/a	n/a	5	71	Blank	MissedWin	True
676.072	0.3	Win2	0.6389	0.001	No	2.734	-0.001	2.0	NoResponse	0	0.257	n/a	5	71	ButtonPress	MissedWin	True
676.514	1.45	Win2	0.6389	n/a	No	2.734	n/a	5.0	NoResponse	0	0.042	675.556	5	71	Feedback	MissedWin	True
677.964	2.734	Win2	0.6389	n/a	No	2.734	n/a	n/a	NoResponse	0	0.0	n/a	5	71	ISIslide	MissedWin	True
680.729	0.25	Win2	0.6437999999999999	0.001	Yes	2.771	0.029	n/a	GoodResponse	1	n/a	n/a	6	72	Cue	Win	True
680.979	4.1	Win2	0.6437999999999999	0.0	Yes	2.771	0.0	n/a	GoodResponse	1	n/a	n/a	6	72	Fixation	Win	True
685.078	0.24	Win2	0.6437999999999999	0.001	Yes	2.771	-0.001	2.0	GoodResponse	1	0.204	684.282	6	72	Target	Win	True
685.282	0.3	Win2	0.6437999999999999	0.001	Yes	2.771	-0.001	2.0	GoodResponse	1	0.204	n/a	6	72	ButtonPress	Win	True
685.328	0.46	Win2	0.6437999999999999	n/a	Yes	2.771	n/a	n/a	GoodResponse	1	n/a	n/a	6	72	Blank	Win	True
685.778	1.45	Win2	0.6437999999999999	n/a	Yes	2.771	n/a	5.0	GoodResponse	1	0.046	684.824	6	72	Feedback	Win	True
687.227	2.771	Win2	0.6437999999999999	n/a	Yes	2.771	n/a	n/a	GoodResponse	1	0.0	n/a	6	72	ISIslide	Win	True
690.026	0.25	Win2	0.6486	0.0	Yes	2.674	0.026	n/a	GoodResponse	1	n/a	n/a	7	73	Cue	Win	True
690.276	4.0	Win2	0.6486	0.0	Yes	2.674	0.0	n/a	GoodResponse	1	n/a	n/a	7	73	Fixation	Win	True
694.275	0.25	Win2	0.6486	0.001	Yes	2.674	-0.001	2.0	GoodResponse	1	0.235	693.51	7	73	Target	Win	True
694.51	0.3	Win2	0.6486	0.001	Yes	2.674	-0.001	2.0	GoodResponse	1	0.235	n/a	7	73	ButtonPress	Win	True
694.525	0.45	Win2	0.6486	n/a	Yes	2.674	n/a	n/a	GoodResponse	1	n/a	n/a	7	73	Blank	Win	True
694.974	1.45	Win2	0.6486	n/a	Yes	2.674	n/a	5.0	GoodResponse	1	0.02	693.994	7	73	Feedback	Win	True
696.424	2.674	Win2	0.6486	n/a	Yes	2.674	n/a	n/a	GoodResponse	1	0.0	n/a	7	73	ISIslide	Win	True
699.123	0.25	Lose2	0.6533	0.0	Yes	2.627	0.023	n/a	GoodResponse	0	n/a	n/a	7	74	Cue	AvoidedLoss	True
699.373	4.05	Lose2	0.6533	0.0	Yes	2.627	0.0	n/a	GoodResponse	0	n/a	n/a	7	74	Fixation	AvoidedLoss	True
703.422	0.26	Lose2	0.6533	0.001	Yes	2.627	-0.001	2.0	GoodResponse	0	0.206	702.628	7	74	Target	AvoidedLoss	True
703.628	0.3	Lose2	0.6533	0.001	Yes	2.627	-0.001	2.0	GoodResponse	0	0.206	n/a	7	74	ButtonPress	AvoidedLoss	True
703.688	0.44	Lose2	0.6533	n/a	Yes	2.627	n/a	n/a	GoodResponse	0	n/a	n/a	7	74	Blank	AvoidedLoss	True
704.121	1.45	Lose2	0.6533	n/a	Yes	2.627	n/a	5.0	GoodResponse	0	0.044	703.165	7	74	Feedback	AvoidedLoss	True
705.571	2.627	Lose2	0.6533	n/a	Yes	2.627	n/a	n/a	GoodResponse	0	0.0	n/a	7	74	ISIslide	AvoidedLoss	True
708.22	0.25	Lose2	0.6579	0.0	Yes	2.93	0.02	n/a	GoodResponse	0	n/a	n/a	7	75	Cue	AvoidedLoss	True
708.47	3.95	Lose2	0.6579	0.0	Yes	2.93	0.0	n/a	GoodResponse	0	n/a	n/a	7	75	Fixation	AvoidedLoss	True
712.418	0.27	Lose2	0.6579	0.002	Yes	2.93	-0.002	2.0	GoodResponse	0	0.218	711.636	7	75	Target	AvoidedLoss	True
712.636	0.3	Lose2	0.6579	0.002	Yes	2.93	-0.002	2.0	GoodResponse	0	0.218	n/a	7	75	ButtonPress	AvoidedLoss	True
712.702	0.43	Lose2	0.6579	n/a	Yes	2.93	n/a	n/a	GoodResponse	0	n/a	n/a	7	75	Blank	AvoidedLoss	True
713.118	1.45	Lose2	0.6579	n/a	Yes	2.93	n/a	5.0	GoodResponse	0	0.023	712.141	7	75	Feedback	AvoidedLoss	True
714.568	2.93	Lose2	0.6579	n/a	Yes	2.93	n/a	n/a	GoodResponse	0	0.0	n/a	7	75	ISIslide	AvoidedLoss	True
717.517	0.25	Control	0.6623	0.0	Yes	3.233	0.017	n/a	GoodResponse	0	n/a	n/a	7	76	Cue	Neutral	True
717.766	4.05	Control	0.6623	0.001	Yes	3.233	-0.001	n/a	GoodResponse	0	n/a	n/a	7	76	Fixation	Neutral	True
721.815	0.27	Control	0.6623	0.002	Yes	3.233	-0.002	2.0	GoodResponse	0	0.228	721.043	7	76	Target	Neutral	True
722.043	0.3	Control	0.6623	0.002	Yes	3.233	-0.002	2.0	GoodResponse	0	0.228	n/a	7	76	ButtonPress	Neutral	True
722.098	0.43	Control	0.6623	n/a	Yes	3.233	n/a	n/a	GoodResponse	0	n/a	n/a	7	76	Blank	Neutral	True
722.515	1.45	Control	0.6623	n/a	Yes	3.233	n/a	5.0	GoodResponse	0	0.04	721.555	7	76	Feedback	Neutral	True
723.964	3.233	Control	0.6623	n/a	Yes	3.233	n/a	n/a	GoodResponse	0	0.0	n/a	7	76	ISIslide	Neutral	True
727.213	0.25	Lose2	0.6667000000000001	0.0	Yes	2.587	0.013	n/a	GoodResponse	0	n/a	n/a	7	77	Cue	AvoidedLoss	False
727.463	3.95	Lose2	0.6667000000000001	0.0	Yes	2.587	0.0	2.0	GoodResponse	0	0.066	726.529	7	77	Fixation	AvoidedLoss	False
727.529	0.3	Lose2	0.6667000000000001	0.0	Yes	2.587	0.0	2.0	GoodResponse	0	0.066	n/a	7	77	ButtonPress	AvoidedLoss	False
731.412	0.27	Lose2	0.6667000000000001	0.001	Yes	2.587	-0.001	2.0	GoodResponse	0	0.204	730.616	7	77	Target	AvoidedLoss	False
731.616	0.3	Lose2	0.6667000000000001	0.001	Yes	2.587	-0.001	2.0	GoodResponse	0	0.204	n/a	7	77	ButtonPress	AvoidedLoss	False
731.695	0.43	Lose2	0.6667000000000001	n/a	Yes	2.587	n/a	n/a	GoodResponse	0	n/a	n/a	7	77	Blank	AvoidedLoss	False
732.111	1.45	Lose2	0.6667000000000001	n/a	Yes	2.587	n/a	5.0	GoodResponse	0	0.008	731.119	7	77	Feedback	AvoidedLoss	False
733.561	2.587	Lose2	0.6667000000000001	n/a	Yes	2.587	n/a	n/a	GoodResponse	0	0.0	n/a	7	77	ISIslide	AvoidedLoss	False
