onset	duration	cue_type	current_mean_accuracy	duration_error	is_hit	isi_adjusted	onset_delay	response	response_type	reward	rt	rt_time	total_reward	trial_number	trial_phase	trial_type	one_press
11.1	0.25	Control	1.0	0.0	Yes	2.95	0.0	n/a	GoodResponse	0	n/a	n/a	0	0	Cue	Neutral	True
11.351	3.85	Control	1.0	0.0	Yes	2.95	0.001	n/a	GoodResponse	0	n/a	n/a	0	0	Fixation	Neutral	True
15.196	0.4	Control	1.0	0.004	Yes	2.95	-0.004	1.0	GoodResponse	0	0.205	14.401	0	0	Target	Neutral	True
15.401	0.3	Control	1.0	0.004	Yes	2.95	-0.004	1.0	GoodResponse	0	0.205	n/a	0	0	ButtonPress	Neutral	True
15.597	0.3	Control	1.0	n/a	Yes	2.95	n/a	n/a	GoodResponse	0	n/a	n/a	0	0	Blank	Neutral	True
15.898	1.45	Control	1.0	n/a	Yes	2.95	n/a	5.0	GoodResponse	0	0.027	14.925	0	0	Feedback	Neutral	True
17.352	2.95	Control	1.0	n/a	Yes	2.95	n/a	n/a	GoodResponse	0	0.0	n/a	0	0	ISIslide	Neutral	True
20.328	0.25	Lose2	1.0	0.0	Yes	2.772	0.028	n/a	GoodResponse	0	n/a	n/a	0	1	Cue	AvoidedLoss	True
20.578	4.0	Lose2	1.0	0.0	Yes	2.772	0.0	n/a	GoodResponse	0	n/a	n/a	0	1	Fixation	AvoidedLoss	True
24.574	0.39	Lose2	1.0	0.004	Yes	2.772	-0.004	1.0	GoodResponse	0	0.182	23.756	0	1	Target	AvoidedLoss	True
24.756	0.3	Lose2	1.0	0.004	Yes	2.772	-0.004	1.0	GoodResponse	0	0.182	n/a	0	1	ButtonPress	AvoidedLoss	True
24.975	0.31	Lose2	1.0	n/a	Yes	2.772	n/a	n/a	GoodResponse	0	n/a	n/a	0	1	Blank	AvoidedLoss	True
25.276	1.45	Lose2	1.0	n/a	Yes	2.772	n/a	5.0	GoodResponse	0	0.015	24.291	0	1	Feedback	AvoidedLoss	True
26.73	2.772	Lose2	1.0	n/a	Yes	2.772	n/a	n/a	GoodResponse	0	0.0	n/a	0	1	ISIslide	AvoidedLoss	True
29.522	0.25	Control	1.0	0.0	Yes	2.578	0.022	n/a	GoodResponse	0	n/a	n/a	0	2	Cue	Neutral	True
29.773	4.1	Control	1.0	0.0	Yes	2.578	0.001	n/a	GoodResponse	0	n/a	n/a	0	2	Fixation	Neutral	True
33.868	0.38	Control	1.0	0.004	Yes	2.578	-0.004	1.0	GoodResponse	0	0.211	33.079	0	2	Target	Neutral	True
34.079	0.3	Control	1.0	0.004	Yes	2.578	-0.004	1.0	GoodResponse	0	0.211	n/a	0	2	ButtonPress	Neutral	True
34.253	0.32	Control	1.0	n/a	Yes	2.578	n/a	n/a	GoodResponse	0	n/a	n/a	0	2	Blank	Neutral	True
34.57	1.45	Control	1.0	n/a	Yes	2.578	n/a	5.0	GoodResponse	0	0.038	33.608	0	2	Feedback	Neutral	True
36.025	2.578	Control	1.0	n/a	Yes	2.578	n/a	n/a	GoodResponse	0	0.0	n/a	0	2	ISIslide	Neutral	True
38.616	0.25	Win2	1.0	0.0	Yes	2.834	0.016	n/a	GoodResponse	1	n/a	n/a	1	3	Cue	Win	True
38.866	3.95	Win2	1.0	0.0	Yes	2.834	0.0	n/a	GoodResponse	1	n/a	n/a	1	3	Fixation	Win	True
42.812	0.37	Win2	1.0	0.004	Yes	2.834	-0.004	1.0	GoodResponse	1	0.264	42.076	1	3	Target	Win	True
43.076	0.3	Win2	1.0	0.004	Yes	2.834	-0.004	1.0	GoodResponse	1	0.264	n/a	1	3	ButtonPress	Win	True
43.196	0.33	Win2	1.0	n/a	Yes	2.834	n/a	n/a	GoodResponse	1	n/a	n/a	1	3	Blank	Win	True
43.514	1.45	Win2	1.0	n/a	Yes	2.834	n/a	5.0	GoodResponse	1	0.021	42.535	1	3	Feedback	Win	True
44.968	2.834	Win2	1.0	n/a	Yes	2.834	n/a	n/a	GoodResponse	1	0.0	n/a	1	3	ISIslide	Win	True
47.827	0.25	Win2	1.0	0.0	Yes	3.273	0.027	n/a	GoodResponse	1	n/a	n/a	2	4	Cue	Win	True
48.077	4.0	Win2	1.0	0.0	Yes	3.273	0.0	n/a	GoodResponse	1	n/a	n/a	2	4	Fixation	Win	True
52.073	0.36	Win2	1.0	0.004	Yes	3.273	-0.004	1.0	GoodResponse	1	0.179	51.252	2	4	Target	Win	True
52.252	0.3	Win2	1.0	0.004	Yes	3.273	-0.004	1.0	GoodResponse	1	0.179	n/a	2	4	ButtonPress	Win	True
52.44	0.34	Win2	1.0	n/a	Yes	3.273	n/a	n/a	GoodResponse	1	n/a	n/a	2	4	Blank	Win	True
52.775	1.45	Win2	1.0	n/a	Yes	3.273	n/a	5.0	GoodResponse	1	0.029	51.804	2	4	Feedback	Win	True
54.229	3.273	Win2	1.0	n/a	Yes	3.273	n/a	n/a	GoodResponse	1	0.0	n/a	2	4	ISIslide	Win	True
57.522	0.25	Win2	1.0	0.0	Yes	2.778	0.022	n/a	GoodResponse	1	n/a	n/a	3	5	Cue	Win	True
57.773	4.0	Win2	1.0	0.0	Yes	2.778	0.001	n/a	GoodResponse	1	n/a	n/a	3	5	Fixation	Win	True
61.768	0.35	Win2	1.0	0.004	Yes	2.778	-0.004	1.0	GoodResponse	1	0.201	60.969	3	5	Target	Win	True
61.969	0.3	Win2	1.0	0.004	Yes	2.778	-0.004	1.0	GoodResponse	1	0.201	n/a	3	5	ButtonPress	Win	True
62.119	0.35	Win2	1.0	n/a	Yes	2.778	n/a	n/a	GoodResponse	1	n/a	n/a	3	5	Blank	Win	True
62.47	1.45	Win2	1.0	n/a	Yes	2.778	n/a	5.0	GoodResponse	1	0.041	61.511	3	5	Feedback	Win	True
63.925	2.778	Win2	1.0	n/a	Yes	2.778	n/a	n/a	GoodResponse	1	0.0	n/a	3	5	ISIslide	Win	True
66.716	0.25	Lose2	1.0	0.001	Yes	2.734	0.016	n/a	GoodResponse	0	n/a	n/a	3	6	Cue	AvoidedLoss	True
66.967	3.95	Lose2	1.0	0.0	Yes	2.734	0.001	n/a	GoodResponse	0	n/a	n/a	3	6	Fixation	AvoidedLoss	True
70.912	0.34	Lose2	1.0	0.004	Yes	2.734	-0.004	1.0	GoodResponse	0	0.214	70.126	3	6	Target	AvoidedLoss	True
71.126	0.3	Lose2	1.0	0.004	Yes	2.734	-0.004	1.0	GoodResponse	0	0.214	n/a	3	6	ButtonPress	AvoidedLoss	True
71.263	0.36	Lose2	1.0	n/a	Yes	2.734	n/a	n/a	GoodResponse	0	n/a	n/a	3	6	Blank	AvoidedLoss	True
71.614	1.45	Lose2	1.0	n/a	Yes	2.734	n/a	5.0	GoodResponse	0	0.018	70.632	3	6	Feedback	AvoidedLoss	True
73.069	2.734	Lose2	1.0	n/a	Yes	2.734	n/a	n/a	GoodResponse	0	0.0	n/a	3	6	ISIslide	AvoidedLoss	True
75.827	0.25	Lose2	1.0	0.0	Yes	4.023	0.027	n/a	GoodResponse	0	n/a	n/a	3	7	Cue	AvoidedLoss	True
76.078	4.05	Lose2	1.0	0.0	Yes	4.023	0.001	n/a	GoodResponse	0	n/a	n/a	3	7	Fixation	AvoidedLoss	True
80.123	0.33	Lose2	1.0	0.004	Yes	4.023	-0.004	1.0	GoodResponse	0	0.246	79.369	3	7	Target	AvoidedLoss	True
80.369	0.3	Lose2	1.0	0.004	Yes	4.023	-0.004	1.0	GoodResponse	0	0.246	n/a	3	7	ButtonPress	AvoidedLoss	True
80.458	0.37	Lose2	1.0	n/a	Yes	4.023	n/a	n/a	GoodResponse	0	n/a	n/a	3	7	Blank	AvoidedLoss	True
80.825	1.45	Lose2	1.0	n/a	Yes	4.023	n/a	5.0	GoodResponse	0	0.027	79.852	3	7	Feedback	AvoidedLoss	True
82.28	4.023	Lose2	1.0	n/a	Yes	4.023	n/a	n/a	GoodResponse	0	0.0	n/a	3	7	ISIslide	AvoidedLoss	True
86.325	0.25	Lose2	1.0	0.0	Yes	3.025	0.025	n/a	GoodResponse	0	n/a	n/a	3	8	Cue	AvoidedLoss	True
86.576	3.95	Lose2	1.0	0.0	Yes	3.025	0.001	n/a	GoodResponse	0	n/a	n/a	3	8	Fixation	AvoidedLoss	True
90.521	0.32	Lose2	1.0	0.004	Yes	3.025	-0.004	1.0	GoodResponse	0	0.208	89.729	3	8	Target	AvoidedLoss	True
90.729	0.3	Lose2	1.0	0.004	Yes	3.025	-0.004	1.0	GoodResponse	0	0.208	n/a	3	8	ButtonPress	AvoidedLoss	True
90.855	0.38	Lose2	1.0	n/a	Yes	3.025	n/a	n/a	GoodResponse	0	n/a	n/a	3	8	Blank	AvoidedLoss	True
91.223	1.45	Lose2	1.0	n/a	Yes	3.025	n/a	5.0	GoodResponse	0	0.019	90.242	3	8	Feedback	AvoidedLoss	True
92.677	3.025	Lose2	1.0	n/a	Yes	3.025	n/a	n/a	GoodResponse	0	0.0	n/a	3	8	ISIslide	AvoidedLoss	True
95.72	0.25	Lose2	1.0	0.0	Yes	3.13	0.02	n/a	GoodResponse	0	n/a	n/a	3	9	Cue	AvoidedLoss	True
95.971	3.95	Lose2	1.0	0.0	Yes	3.13	0.001	n/a	GoodResponse	0	n/a	n/a	3	9	Fixation	AvoidedLoss	True
99.916	0.31	Lose2	1.0	0.004	Yes	3.13	-0.004	1.0	GoodResponse	0	0.207	99.123	3	9	Target	AvoidedLoss	True
100.123	0.3	Lose2	1.0	0.004	Yes	3.13	-0.004	1.0	GoodResponse	0	0.207	n/a	3	9	ButtonPress	AvoidedLoss	True
100.233	0.39	Lose2	1.0	n/a	Yes	3.13	n/a	n/a	GoodResponse	0	n/a	n/a	3	9	Blank	AvoidedLoss	True
100.618	1.45	Lose2	1.0	n/a	Yes	3.13	n/a	5.0	GoodResponse	0	0.039	99.657	3	9	Feedback	AvoidedLoss	True
102.072	3.13	Lose2	1.0	n/a	Yes	3.13	n/a	n/a	GoodResponse	0	0.0	n/a	3	9	ISIslide	AvoidedLoss	True
105.215	0.25	Control	1.0	0.0	Yes	3.285	0.015	n/a	GoodResponse	0	n/a	n/a	3	10	Cue	Neutral	True
105.466	4.0	Control	1.0	0.0	Yes	3.285	0.001	n/a	GoodResponse	0	n/a	n/a	3	10	Fixation	Neutral	True
109.461	0.3	Control	1.0	0.004	Yes	3.285	-0.004	1.0	GoodResponse	0	0.221	108.682	3	10	Target	Neutral	True
109.682	0.3	Control	1.0	0.004	Yes	3.285	-0.004	1.0	GoodResponse	0	0.221	n/a	3	10	ButtonPress	Neutral	True
109.762	0.4	Control	1.0	n/a	Yes	3.285	n/a	n/a	GoodResponse	0	n/a	n/a	3	10	Blank	Neutral	True
110.163	1.45	Control	1.0	n/a	Yes	3.285	n/a	5.0	GoodResponse	0	0.007	109.17	3	10	Feedback	Neutral	True
111.618	3.285	Control	1.0	n/a	Yes	3.285	n/a	n/a	GoodResponse	0	0.0	n/a	3	10	ISIslide	Neutral	True
114.927	0.25	Lose2	1.0	0.001	Yes	2.723	0.027	n/a	GoodResponse	0	n/a	n/a	3	11	Cue	AvoidedLoss	True
115.178	4.05	Lose2	1.0	0.0	Yes	2.723	0.001	n/a	GoodResponse	0	n/a	n/a	3	11	Fixation	AvoidedLoss	True
119.224	0.29	Lose2	1.0	0.003	Yes	2.723	-0.003	1.0	GoodResponse	0	0.163	118.387	3	11	Target	AvoidedLoss	True
119.387	0.3	Lose2	1.0	0.003	Yes	2.723	-0.003	1.0	GoodResponse	0	0.163	n/a	3	11	ButtonPress	AvoidedLoss	True
119.525	0.41	Lose2	1.0	n/a	Yes	2.723	n/a	n/a	GoodResponse	0	n/a	n/a	3	11	Blank	AvoidedLoss	True
119.926	1.45	Lose2	1.0	n/a	Yes	2.723	n/a	5.0	GoodResponse	0	0.047	118.973	3	11	Feedback	AvoidedLoss	True
121.38	2.723	Lose2	1.0	n/a	Yes	2.723	n/a	n/a	GoodResponse	0	0.0	n/a	3	11	ISIslide	AvoidedLoss	True
124.122	0.25	Control	1.0	0.0	Yes	2.978	0.022	n/a	GoodResponse	0	n/a	n/a	3	12	Cue	Neutral	True
124.372	3.9	Control	1.0	0.0	Yes	2.978	0.0	n/a	GoodResponse	0	n/a	n/a	3	12	Fixation	Neutral	True
128.284	0.28	Control	1.0	0.0	Yes	2.978	0.012	1.0	GoodResponse	0	0.198	127.482	3	12	Target	Neutral	True
128.482	0.3	Control	1.0	0.0	Yes	2.978	0.012	1.0	GoodResponse	0	0.198	n/a	3	12	ButtonPress	Neutral	True
128.552	0.42	Control	1.0	n/a	Yes	2.978	n/a	n/a	GoodResponse	0	n/a	n/a	3	12	Blank	Neutral	True
128.969	1.45	Control	1.0	n/a	Yes	2.978	n/a	5.0	GoodResponse	0	0.029	127.998	3	12	Feedback	Neutral	True
130.424	2.978	Control	1.0	n/a	Yes	2.978	n/a	n/a	GoodResponse	0	0.0	n/a	3	12	ISIslide	Neutral	True
133.416	0.25	Control	1.0	0.0	Yes	2.784	0.016	n/a	GoodResponse	0	n/a	n/a	3	13	Cue	Neutral	True
133.667	4.0	Control	1.0	0.0	Yes	2.784	0.001	n/a	GoodResponse	0	n/a	n/a	3	13	Fixation	Neutral	True
137.662	0.27	Control	1.0	0.004	Yes	2.784	-0.004	1.0	GoodResponse	0	0.183	136.845	3	13	Target	Neutral	True
137.845	0.3	Control	1.0	0.004	Yes	2.784	-0.004	1.0	GoodResponse	0	0.183	n/a	3	13	ButtonPress	Neutral	True
137.946	0.43	Control	1.0	n/a	Yes	2.784	n/a	n/a	GoodResponse	0	n/a	n/a	3	13	Blank	Neutral	True
138.364	1.45	Control	1.0	n/a	Yes	2.784	n/a	5.0	GoodResponse	0	0.049	137.413	3	13	Feedback	Neutral	True
139.819	2.784	Control	1.0	n/a	Yes	2.784	n/a	n/a	GoodResponse	0	0.0	n/a	3	13	ISIslide	Neutral	True
142.627	0.25	Win2	1.0	0.0	Yes	2.673	0.027	n/a	GoodResponse	1	n/a	n/a	4	14	Cue	Win	True
142.878	4.1	Win2	1.0	0.0	Yes	2.673	0.001	n/a	GoodResponse	1	n/a	n/a	4	14	Fixation	Win	True
146.973	0.26	Win2	1.0	0.004	Yes	2.673	-0.004	1.0	GoodResponse	1	0.167	146.14	4	14	Target	Win	True
147.14	0.3	Win2	1.0	0.004	Yes	2.673	-0.004	1.0	GoodResponse	1	0.167	n/a	4	14	ButtonPress	Win	True
147.241	0.44	Win2	1.0	n/a	Yes	2.673	n/a	n/a	GoodResponse	1	n/a	n/a	4	14	Blank	Win	True
147.675	1.45	Win2	1.0	n/a	Yes	2.673	n/a	5.0	GoodResponse	1	0.007	146.682	4	14	Feedback	Win	True
149.13	2.673	Win2	1.0	n/a	Yes	2.673	n/a	n/a	GoodResponse	1	0.0	n/a	4	14	ISIslide	Win	True
151.821	0.25	Control	1.0	0.0	Yes	2.979	0.021	n/a	GoodResponse	0	n/a	n/a	4	15	Cue	Neutral	True
152.072	4.0	Control	1.0	0.0	Yes	2.979	0.001	n/a	GoodResponse	0	n/a	n/a	4	15	Fixation	Neutral	True
156.067	0.25	Control	1.0	0.004	Yes	2.979	-0.004	1.0	GoodResponse	0	0.205	155.272	4	15	Target	Neutral	True
156.272	0.3	Control	1.0	0.004	Yes	2.979	-0.004	1.0	GoodResponse	0	0.205	n/a	4	15	ButtonPress	Neutral	True
156.318	0.45	Control	1.0	n/a	Yes	2.979	n/a	n/a	GoodResponse	0	n/a	n/a	4	15	Blank	Neutral	True
156.769	1.45	Control	1.0	n/a	Yes	2.979	n/a	5.0	GoodResponse	0	0.034	155.803	4	15	Feedback	Neutral	True
158.224	2.979	Control	1.0	n/a	Yes	2.979	n/a	n/a	GoodResponse	0	0.0	n/a	4	15	ISIslide	Neutral	True
161.216	0.25	Win2	1.0	0.0	Yes	2.884	0.016	n/a	GoodResponse	1	n/a	n/a	5	16	Cue	Win	True
161.467	4.0	Win2	1.0	0.0	Yes	2.884	0.001	n/a	GoodResponse	1	n/a	n/a	5	16	Fixation	Win	True
165.462	0.24	Win2	1.0	0.004	Yes	2.884	-0.004	1.0	GoodResponse	1	0.189	164.651	5	16	Target	Win	True
165.651	0.3	Win2	1.0	0.004	Yes	2.884	-0.004	1.0	GoodResponse	1	0.189	n/a	5	16	ButtonPress	Win	True
165.713	0.46	Win2	1.0	n/a	Yes	2.884	n/a	n/a	GoodResponse	1	n/a	n/a	5	16	Blank	Win	True
166.164	1.45	Win2	1.0	n/a	Yes	2.884	n/a	5.0	GoodResponse	1	0.007	165.171	5	16	Feedback	Win	True
167.618	2.884	Win2	1.0	n/a	Yes	2.884	n/a	n/a	GoodResponse	1	0.0	n/a	5	16	ISIslide	Win	True
170.527	0.25	Lose2	1.0	0.0	Yes	2.723	0.027	n/a	GoodResponse	0	n/a	n/a	5	17	Cue	AvoidedLoss	True
170.778	3.95	Lose2	1.0	0.0	Yes	2.723	0.001	n/a	GoodResponse	0	n/a	n/a	5	17	Fixation	AvoidedLoss	True
174.723	0.23	Lose2	1.0	0.004	Yes	2.723	-0.004	1.0	GoodResponse	0	0.223	173.946	5	17	Target	AvoidedLoss	True
174.946	0.3	Lose2	1.0	0.004	Yes	2.723	-0.004	1.0	GoodResponse	0	0.223	n/a	5	17	ButtonPress	AvoidedLoss	True
174.957	0.47	Lose2	1.0	n/a	Yes	2.723	n/a	n/a	GoodResponse	0	n/a	n/a	5	17	Blank	AvoidedLoss	True
175.425	1.45	Lose2	1.0	n/a	Yes	2.723	n/a	5.0	GoodResponse	0	0.011	174.436	5	17	Feedback	AvoidedLoss	True
176.88	2.723	Lose2	1.0	n/a	Yes	2.723	n/a	n/a	GoodResponse	0	0.0	n/a	5	17	ISIslide	AvoidedLoss	True
179.621	0.25	Lose2	1.0	0.0	Yes	2.729	0.021	n/a	GoodResponse	0	n/a	n/a	5	18	Cue	AvoidedLoss	True
179.872	4.05	Lose2	1.0	0.0	Yes	2.729	0.001	n/a	GoodResponse	0	n/a	n/a	5	18	Fixation	AvoidedLoss	True
183.917	0.22	Lose2	1.0	0.004	Yes	2.729	-0.004	1.0	GoodResponse	0	0.177	183.094	5	18	Target	AvoidedLoss	True
184.094	0.3	Lose2	1.0	0.004	Yes	2.729	-0.004	1.0	GoodResponse	0	0.177	n/a	5	18	ButtonPress	AvoidedLoss	True
184.151	0.48	Lose2	1.0	n/a	Yes	2.729	n/a	n/a	GoodResponse	0	n/a	n/a	5	18	Blank	AvoidedLoss	True
184.619	1.45	Lose2	1.0	n/a	Yes	2.729	n/a	5.0	GoodResponse	0	0.037	183.656	5	18	Feedback	AvoidedLoss	True
186.074	2.729	Lose2	1.0	n/a	Yes	2.729	n/a	n/a	GoodResponse	0	0.0	n/a	5	18	ISIslide	AvoidedLoss	True
188.815	0.25	Control	1.0	0.0	Yes	2.935	0.015	n/a	GoodResponse	0	n/a	n/a	5	19	Cue	Neutral	True
189.066	3.95	Control	1.0	0.0	Yes	2.935	0.001	n/a	GoodResponse	0	n/a	n/a	5	19	Fixation	Neutral	True
193.011	0.21	Control	1.0	0.004	Yes	2.935	-0.004	1.0	GoodResponse	0	0.188	192.199	5	19	Target	Neutral	True
193.199	0.3	Control	1.0	0.004	Yes	2.935	-0.004	1.0	GoodResponse	0	0.188	n/a	5	19	ButtonPress	Neutral	True
193.228	0.49	Control	1.0	n/a	Yes	2.935	n/a	n/a	GoodResponse	0	n/a	n/a	5	19	Blank	Neutral	True
193.713	1.45	Control	1.0	n/a	Yes	2.935	n/a	5.0	GoodResponse	0	0.016	192.729	5	19	Feedback	Neutral	True
195.168	2.935	Control	1.0	n/a	Yes	2.935	n/a	n/a	GoodResponse	0	0.0	n/a	5	19	ISIslide	Neutral	True
198.126	0.25	Control	1.0	0.001	Yes	2.624	0.026	n/a	GoodResponse	0	n/a	n/a	5	20	Cue	Neutral	True
198.377	4.05	Control	1.0	0.0	Yes	2.624	0.001	n/a	GoodResponse	0	n/a	n/a	5	20	Fixation	Neutral	True
202.423	0.2	Control	1.0	0.003	Yes	2.624	-0.003	1.0	GoodResponse	0	0.172	201.595	5	20	Target	Neutral	True
202.595	0.3	Control	1.0	0.003	Yes	2.624	-0.003	1.0	GoodResponse	0	0.172	n/a	5	20	ButtonPress	Neutral	True
202.623	0.5	Control	1.0	n/a	Yes	2.624	n/a	n/a	GoodResponse	0	n/a	n/a	5	20	Blank	Neutral	True
203.125	1.45	Control	1.0	n/a	Yes	2.624	n/a	5.0	GoodResponse	0	0.019	202.144	5	20	Feedback	Neutral	True
204.579	2.624	Control	1.0	n/a	Yes	2.624	n/a	n/a	GoodResponse	0	0.0	n/a	5	20	ISIslide	Neutral	True
207.22	0.25	Control	0.9545	0.0	No	2.78	0.02	n/a	NoResponse	0	n/a	n/a	5	21	Cue	Neutral	True
207.471	4.1	Control	0.9545	0.0	No	2.78	0.001	1.0	NoResponse	0	3.898	210.369	5	21	Fixation	Neutral	True
211.369	0.3	Control	0.9545	0.0	No	2.78	0.001	1.0	NoResponse	0	3.898	n/a	5	21	ButtonPress	Neutral	True
211.567	0.19	Control	0.9545	0.003	No	2.78	-0.003	n/a	NoResponse	0	n/a	n/a	5	21	Target	Neutral	True
211.767	0.51	Control	0.9545	n/a	No	2.78	n/a	n/a	NoResponse	0	n/a	n/a	5	21	Blank	Neutral	True
212.269	1.45	Control	0.9545	n/a	No	2.78	n/a	5.0	NoResponse	0	0.046	211.315	5	21	Feedback	Neutral	True
213.723	2.78	Control	0.9545	n/a	No	2.78	n/a	n/a	NoResponse	0	0.0	n/a	5	21	ISIslide	Neutral	True
216.515	0.25	Control	0.9129999999999999	0.0	No	2.785	0.015	n/a	NoResponse	0	n/a	n/a	5	22	Cue	Neutral	True
216.766	4.0	Control	0.9129999999999999	0.0	No	2.785	0.001	n/a	NoResponse	0	n/a	n/a	5	22	Fixation	Neutral	True
220.761	0.18	Control	0.9129999999999999	0.004	No	2.785	-0.004	1.0	NoResponse	0	0.223	219.984	5	22	Target	Neutral	True
220.945	0.52	Control	0.9129999999999999	n/a	No	2.785	n/a	n/a	NoResponse	0	n/a	n/a	5	22	Blank	Neutral	True
220.984	0.3	Control	0.9129999999999999	0.004	No	2.785	-0.004	1.0	NoResponse	0	0.223	n/a	5	22	ButtonPress	Neutral	True
221.463	1.45	Control	0.9129999999999999	n/a	No	2.785	n/a	5.0	NoResponse	0	0.022	220.485	5	22	Feedback	Neutral	True
222.917	2.785	Control	0.9129999999999999	n/a	No	2.785	n/a	n/a	NoResponse	0	0.0	n/a	5	22	ISIslide	Neutral	True
225.726	0.25	Control	0.875	0.0	No	2.774	0.026	n/a	NoResponse	0	n/a	n/a	5	23	Cue	Neutral	True
225.976	3.9	Control	0.875	0.001	No	2.774	0.0	n/a	NoResponse	0	n/a	n/a	5	23	Fixation	Neutral	True
229.888	0.17	Control	0.875	0.0	No	2.774	0.012	1.0	NoResponse	0	0.203	229.091	5	23	Target	Neutral	True
230.055	0.53	Control	0.875	n/a	No	2.774	n/a	n/a	NoResponse	0	n/a	n/a	5	23	Blank	Neutral	True
230.091	0.3	Control	0.875	0.0	No	2.774	0.012	1.0	NoResponse	0	0.203	n/a	5	23	ButtonPress	Neutral	True
230.574	1.45	Control	0.875	n/a	No	2.774	n/a	5.0	NoResponse	0	0.033	229.607	5	23	Feedback	Neutral	True
232.028	2.774	Control	0.875	n/a	No	2.774	n/a	n/a	NoResponse	0	0.0	n/a	5	23	ISIslide	Neutral	True
234.82	0.25	Win2	0.84	0.0	No	3.13	0.02	n/a	NoResponse	0	n/a	n/a	5	24	Cue	MissedWin	True
235.07	3.95	Win2	0.84	0.0	No	3.13	0.0	n/a	NoResponse	0	n/a	n/a	5	24	Fixation	MissedWin	True
239.016	0.16	Win2	0.84	0.004	No	3.13	-0.004	1.0	NoResponse	0	0.19	238.206	5	24	Target	MissedWin	True
239.183	0.54	Win2	0.84	n/a	No	3.13	n/a	n/a	NoResponse	0	n/a	n/a	5	24	Blank	MissedWin	True
239.206	0.3	Win2	0.84	0.004	No	3.13	-0.004	1.0	NoResponse	0	0.19	n/a	5	24	ButtonPress	MissedWin	True
239.718	1.45	Win2	0.84	n/a	No	3.13	n/a	5.0	NoResponse	0	0.011	238.729	5	24	Feedback	MissedWin	True
241.172	3.13	Win2	0.84	n/a	No	3.13	n/a	n/a	NoResponse	0	0.0	n/a	5	24	ISIslide	MissedWin	True
244.331	0.25	Win2	0.8077	0.001	No	3.069	0.031	n/a	NoResponse	0	n/a	n/a	5	25	Cue	MissedWin	True
244.582	4.0	Win2	0.8077	0.0	No	3.069	0.001	n/a	NoResponse	0	n/a	n/a	5	25	Fixation	MissedWin	True
248.577	0.15	Win2	0.8077	0.004	No	3.069	-0.004	1.0	NoResponse	0	0.162	247.739	5	25	Target	MissedWin	True
248.728	0.55	Win2	0.8077	n/a	No	3.069	n/a	n/a	NoResponse	0	n/a	n/a	5	25	Blank	MissedWin	True
248.739	0.3	Win2	0.8077	0.004	No	3.069	-0.004	1.0	NoResponse	0	0.162	n/a	5	25	ButtonPress	MissedWin	True
249.28	1.45	Win2	0.8077	n/a	No	3.069	n/a	5.0	NoResponse	0	0.01	248.29	5	25	Feedback	MissedWin	True
250.734	3.069	Win2	0.8077	n/a	No	3.069	n/a	n/a	NoResponse	0	0.0	n/a	5	25	ISIslide	MissedWin	True
253.827	0.25	Win2	0.7778	0.0	No	2.923	0.027	n/a	NoResponse	0	n/a	n/a	5	26	Cue	MissedWin	True
254.077	3.95	Win2	0.7778	0.0	No	2.923	0.0	n/a	NoResponse	0	n/a	n/a	5	26	Fixation	MissedWin	True
258.039	0.15	Win2	0.7778	0.0	No	2.923	0.012	1.0	NoResponse	0	0.165	257.204	5	26	Target	MissedWin	True
258.173	0.55	Win2	0.7778	n/a	No	2.923	n/a	n/a	NoResponse	0	n/a	n/a	5	26	Blank	MissedWin	True
258.204	0.3	Win2	0.7778	0.0	No	2.923	0.012	1.0	NoResponse	0	0.165	n/a	5	26	ButtonPress	MissedWin	True
258.725	1.45	Win2	0.7778	n/a	No	2.923	n/a	5.0	NoResponse	0	0.028	257.753	5	26	Feedback	MissedWin	True
260.179	2.923	Win2	0.7778	n/a	No	2.923	n/a	n/a	NoResponse	0	0.0	n/a	5	26	ISIslide	MissedWin	True
263.121	0.25	Lose2	0.75	0.0	No	2.829	0.021	n/a	NoResponse	-1	n/a	n/a	4	27	Cue	Loss	True
263.372	4.05	Lose2	0.75	0.0	No	2.829	0.001	n/a	NoResponse	-1	n/a	n/a	4	27	Fixation	Loss	True
267.417	0.15	Lose2	0.75	0.004	No	2.829	-0.004	1.0	NoResponse	-1	0.168	266.585	4	27	Target	Loss	True
267.568	0.55	Lose2	0.75	n/a	No	2.829	n/a	n/a	NoResponse	-1	n/a	n/a	4	27	Blank	Loss	True
267.585	0.3	Lose2	0.75	0.004	No	2.829	-0.004	1.0	NoResponse	-1	0.168	n/a	4	27	ButtonPress	Loss	True
268.119	1.45	Lose2	0.75	n/a	No	2.829	n/a	5.0	NoResponse	-1	0.048	267.167	4	27	Feedback	Loss	True
269.574	2.829	Lose2	0.75	n/a	No	2.829	n/a	n/a	NoResponse	-1	0.0	n/a	4	27	ISIslide	Loss	True
272.416	0.25	Control	0.7241	0.0	No	2.834	0.016	n/a	NoResponse	0	n/a	n/a	4	28	Cue	Neutral	True
272.666	4.05	Control	0.7241	0.0	No	2.834	0.0	n/a	NoResponse	0	n/a	n/a	4	28	Fixation	Neutral	True
276.712	0.15	Control	0.7241	0.004	No	2.834	-0.004	1.0	NoResponse	0	0.171	275.883	4	28	Target	Neutral	True
276.862	0.55	Control	0.7241	n/a	No	2.834	n/a	n/a	NoResponse	0	n/a	n/a	4	28	Blank	Neutral	True
276.883	0.3	Control	0.7241	0.004	No	2.834	-0.004	1.0	NoResponse	0	0.171	n/a	4	28	ButtonPress	Neutral	True
277.414	1.45	Control	0.7241	n/a	No	2.834	n/a	5.0	NoResponse	0	0.021	276.435	4	28	Feedback	Neutral	True
278.868	2.834	Control	0.7241	n/a	No	2.834	n/a	n/a	NoResponse	0	0.0	n/a	4	28	ISIslide	Neutral	True
281.727	0.25	Lose2	0.7	0.0	No	2.823	0.027	n/a	NoResponse	-1	n/a	n/a	3	29	Cue	Loss	True
281.977	3.95	Lose2	0.7	0.001	No	2.823	0.0	n/a	NoResponse	-1	n/a	n/a	3	29	Fixation	Loss	True
285.923	0.15	Lose2	0.7	0.004	No	2.823	-0.004	1.0	NoResponse	-1	0.169	285.092	3	29	Target	Loss	True
286.073	0.55	Lose2	0.7	n/a	No	2.823	n/a	n/a	NoResponse	-1	n/a	n/a	3	29	Blank	Loss	True
286.092	0.3	Lose2	0.7	0.004	No	2.823	-0.004	1.0	NoResponse	-1	0.169	n/a	3	29	ButtonPress	Loss	True
286.625	1.45	Lose2	0.7	n/a	No	2.823	n/a	5.0	NoResponse	-1	0.03	285.655	3	29	Feedback	Loss	True
288.079	2.823	Lose2	0.7	n/a	No	2.823	n/a	n/a	NoResponse	-1	0.0	n/a	3	29	ISIslide	Loss	True
290.921	0.25	Win2	0.6774	0.0	No	2.779	0.021	n/a	NoResponse	0	n/a	n/a	3	30	Cue	MissedWin	True
291.172	3.9	Win2	0.6774	0.0	No	2.779	0.001	n/a	NoResponse	0	n/a	n/a	3	30	Fixation	MissedWin	True
295.067	0.15	Win2	0.6774	0.004	No	2.779	-0.004	1.0	NoResponse	0	0.165	294.232	3	30	Target	MissedWin	True
295.217	0.55	Win2	0.6774	n/a	No	2.779	n/a	n/a	NoResponse	0	n/a	n/a	3	30	Blank	MissedWin	True
295.232	0.3	Win2	0.6774	0.004	No	2.779	-0.004	1.0	NoResponse	0	0.165	n/a	3	30	ButtonPress	MissedWin	True
295.769	1.45	Win2	0.6774	n/a	No	2.779	n/a	5.0	NoResponse	0	0.008	294.777	3	30	Feedback	MissedWin	True
297.223	2.779	Win2	0.6774	n/a	No	2.779	n/a	n/a	NoResponse	0	0.0	n/a	3	30	ISIslide	MissedWin	True
300.015	0.25	Lose2	0.6562	0.0	No	2.835	0.015	n/a	NoResponse	-1	n/a	n/a	2	31	Cue	Loss	True
300.266	4.05	Lose2	0.6562	0.0	No	2.835	0.001	n/a	NoResponse	-1	n/a	n/a	2	31	Fixation	Loss	True
304.311	0.15	Lose2	0.6562	0.004	No	2.835	-0.004	1.0	NoResponse	-1	0.165	303.476	2	31	Target	Loss	True
304.461	0.55	Lose2	0.6562	n/a	No	2.835	n/a	n/a	NoResponse	-1	n/a	n/a	2	31	Blank	Loss	True
304.476	0.3	Lose2	0.6562	0.004	No	2.835	-0.004	1.0	NoResponse	-1	0.165	n/a	2	31	ButtonPress	Loss	True
305.013	1.45	Lose2	0.6562	n/a	No	2.835	n/a	5.0	NoResponse	-1	0.033	304.046	2	31	Feedback	Loss	True
306.467	2.835	Lose2	0.6562	n/a	No	2.835	n/a	n/a	NoResponse	-1	0.0	n/a	2	31	ISIslide	Loss	True
309.326	0.25	Lose2	0.6364	0.0	No	2.624	0.026	n/a	NoResponse	-1	n/a	n/a	1	32	Cue	Loss	True
309.577	4.15	Lose2	0.6364	0.0	No	2.624	0.001	n/a	NoResponse	-1	n/a	n/a	1	32	Fixation	Loss	True
313.722	0.15	Lose2	0.6364	0.004	No	2.624	-0.004	1.0	NoResponse	-1	0.162	312.884	1	32	Target	Loss	True
313.873	0.55	Lose2	0.6364	n/a	No	2.624	n/a	n/a	NoResponse	-1	n/a	n/a	1	32	Blank	Loss	True
313.884	0.3	Lose2	0.6364	0.004	No	2.624	-0.004	1.0	NoResponse	-1	0.162	n/a	1	32	ButtonPress	Loss	True
314.425	1.45	Lose2	0.6364	n/a	No	2.624	n/a	5.0	NoResponse	-1	0.035	313.46	1	32	Feedback	Loss	True
315.879	2.624	Lose2	0.6364	n/a	No	2.624	n/a	n/a	NoResponse	-1	0.0	n/a	1	32	ISIslide	Loss	True
318.52	0.25	Win2	0.6175999999999999	0.0	No	2.68	0.02	n/a	NoResponse	0	n/a	n/a	1	33	Cue	MissedWin	True
318.771	4.0	Win2	0.6175999999999999	0.0	No	2.68	0.001	n/a	NoResponse	0	n/a	n/a	1	33	Fixation	MissedWin	True
322.766	0.16	Win2	0.6175999999999999	0.004	No	2.68	-0.004	1.0	NoResponse	0	0.175	321.941	1	33	Target	MissedWin	True
322.933	0.54	Win2	0.6175999999999999	n/a	No	2.68	n/a	n/a	NoResponse	0	n/a	n/a	1	33	Blank	MissedWin	True
322.941	0.3	Win2	0.6175999999999999	0.004	No	2.68	-0.004	1.0	NoResponse	0	0.175	n/a	1	33	ButtonPress	MissedWin	True
323.468	1.45	Win2	0.6175999999999999	n/a	No	2.68	n/a	5.0	NoResponse	0	0.016	322.484	1	33	Feedback	MissedWin	True
324.923	2.68	Win2	0.6175999999999999	n/a	No	2.68	n/a	n/a	NoResponse	0	0.0	n/a	1	33	ISIslide	MissedWin	True
327.631	0.25	Lose2	0.6286	0.0	Yes	2.619	0.031	n/a	GoodResponse	0	n/a	n/a	1	34	Cue	AvoidedLoss	True
327.882	4.05	Lose2	0.6286	0.0	Yes	2.619	0.001	n/a	GoodResponse	0	n/a	n/a	1	34	Fixation	AvoidedLoss	True
331.927	0.17	Lose2	0.6286	0.004	Yes	2.619	-0.004	1.0	GoodResponse	0	0.162	331.089	1	34	Target	AvoidedLoss	True
332.089	0.3	Lose2	0.6286	0.004	Yes	2.619	-0.004	1.0	GoodResponse	0	0.162	n/a	1	34	ButtonPress	AvoidedLoss	True
332.111	0.53	Lose2	0.6286	n/a	Yes	2.619	n/a	n/a	GoodResponse	0	n/a	n/a	1	34	Blank	AvoidedLoss	True
332.629	1.45	Lose2	0.6286	n/a	Yes	2.619	n/a	5.0	GoodResponse	0	0.026	331.655	1	34	Feedback	AvoidedLoss	True
334.083	2.619	Lose2	0.6286	n/a	Yes	2.619	n/a	n/a	GoodResponse	0	0.0	n/a	1	34	ISIslide	AvoidedLoss	True
336.725	0.25	Lose2	0.6389	0.0	Yes	2.675	0.025	n/a	GoodResponse	0	n/a	n/a	1	35	Cue	AvoidedLoss	True
336.975	4.0	Lose2	0.6389	0.001	Yes	2.675	0.0	n/a	GoodResponse	0	n/a	n/a	1	35	Fixation	AvoidedLoss	True
340.971	0.18	Lose2	0.6389	0.004	Yes	2.675	-0.004	1.0	GoodResponse	0	0.169	340.14	1	35	Target	AvoidedLoss	True
341.14	0.3	Lose2	0.6389	0.004	Yes	2.675	-0.004	1.0	GoodResponse	0	0.169	n/a	1	35	ButtonPress	AvoidedLoss	True
341.155	0.52	Lose2	0.6389	n/a	Yes	2.675	n/a	n/a	GoodResponse	0	n/a	n/a	1	35	Blank	AvoidedLoss	True
341.673	1.45	Lose2	0.6389	n/a	Yes	2.675	n/a	5.0	GoodResponse	0	0.007	340.68	1	35	Feedback	AvoidedLoss	True
343.127	2.675	Lose2	0.6389	n/a	Yes	2.675	n/a	n/a	GoodResponse	0	0.0	n/a	1	35	ISIslide	AvoidedLoss	True
345.819	0.25	Control	0.6486	0.0	Yes	2.681	0.019	n/a	GoodResponse	0	n/a	n/a	1	36	Cue	Neutral	True
346.069	4.0	Control	0.6486	0.0	Yes	2.681	0.0	n/a	GoodResponse	0	n/a	n/a	1	36	Fixation	Neutral	True
350.065	0.19	Control	0.6486	0.004	Yes	2.681	-0.004	1.0	GoodResponse	0	0.178	349.243	1	36	Target	Neutral	True
350.243	0.3	Control	0.6486	0.004	Yes	2.681	-0.004	1.0	GoodResponse	0	0.178	n/a	1	36	ButtonPress	Neutral	True
350.265	0.51	Control	0.6486	n/a	Yes	2.681	n/a	n/a	GoodResponse	0	n/a	n/a	1	36	Blank	Neutral	True
350.767	1.45	Control	0.6486	n/a	Yes	2.681	n/a	5.0	GoodResponse	0	0.034	349.801	1	36	Feedback	Neutral	True
352.221	2.681	Control	0.6486	n/a	Yes	2.681	n/a	n/a	GoodResponse	0	0.0	n/a	1	36	ISIslide	Neutral	True
354.929	0.25	Win2	0.6579	0.0	Yes	2.871	0.029	n/a	GoodResponse	1	n/a	n/a	2	37	Cue	Win	True
355.18	4.0	Win2	0.6579	0.0	Yes	2.871	0.001	n/a	GoodResponse	1	n/a	n/a	2	37	Fixation	Win	True
359.175	0.2	Win2	0.6579	0.004	Yes	2.871	-0.004	1.0	GoodResponse	1	0.147	358.322	2	37	Target	Win	True
359.322	0.3	Win2	0.6579	0.004	Yes	2.871	-0.004	1.0	GoodResponse	1	0.147	n/a	2	37	ButtonPress	Win	True
359.376	0.5	Win2	0.6579	n/a	Yes	2.871	n/a	n/a	GoodResponse	1	n/a	n/a	2	37	Blank	Win	True
359.877	1.45	Win2	0.6579	n/a	Yes	2.871	n/a	5.0	GoodResponse	1	0.046	358.923	2	37	Feedback	Win	True
361.332	2.871	Win2	0.6579	n/a	Yes	2.871	n/a	n/a	GoodResponse	1	0.0	n/a	2	37	ISIslide	Win	True
364.224	0.25	Lose2	0.6667000000000001	0.0	Yes	2.826	0.024	n/a	GoodResponse	0	n/a	n/a	2	38	Cue	AvoidedLoss	True
364.474	3.95	Lose2	0.6667000000000001	0.0	Yes	2.826	0.0	n/a	GoodResponse	0	n/a	n/a	2	38	Fixation	AvoidedLoss	True
368.42	0.2	Lose2	0.6667000000000001	0.004	Yes	2.826	-0.004	1.0	GoodResponse	0	0.17	367.59	2	38	Target	AvoidedLoss	True
368.59	0.3	Lose2	0.6667000000000001	0.004	Yes	2.826	-0.004	1.0	GoodResponse	0	0.17	n/a	2	38	ButtonPress	AvoidedLoss	True
368.62	0.5	Lose2	0.6667000000000001	n/a	Yes	2.826	n/a	n/a	GoodResponse	0	n/a	n/a	2	38	Blank	AvoidedLoss	True
369.122	1.45	Lose2	0.6667000000000001	n/a	Yes	2.826	n/a	5.0	GoodResponse	0	0.02	368.142	2	38	Feedback	AvoidedLoss	True
370.576	2.826	Lose2	0.6667000000000001	n/a	Yes	2.826	n/a	n/a	GoodResponse	0	0.0	n/a	2	38	ISIslide	AvoidedLoss	True
373.418	0.25	Win2	0.675	0.0	Yes	2.982	0.018	n/a	GoodResponse	1	n/a	n/a	3	39	Cue	Win	True
373.669	4.1	Win2	0.675	0.0	Yes	2.982	0.001	n/a	GoodResponse	1	n/a	n/a	3	39	Fixation	Win	True
377.764	0.19	Win2	0.675	0.004	Yes	2.982	-0.004	1.0	GoodResponse	1	0.164	376.928	3	39	Target	Win	True
377.928	0.3	Win2	0.675	0.004	Yes	2.982	-0.004	1.0	GoodResponse	1	0.164	n/a	3	39	ButtonPress	Win	True
377.965	0.51	Win2	0.675	n/a	Yes	2.982	n/a	n/a	GoodResponse	1	n/a	n/a	3	39	Blank	Win	True
378.466	1.45	Win2	0.675	n/a	Yes	2.982	n/a	5.0	GoodResponse	1	0.042	377.508	3	39	Feedback	Win	True
379.921	2.982	Win2	0.675	n/a	Yes	2.982	n/a	n/a	GoodResponse	1	0.0	n/a	3	39	ISIslide	Win	True
382.93	0.25	Win2	0.6585	0.0	No	2.72	0.03	n/a	LatePress	0	n/a	n/a	3	40	Cue	MissedWin	True
383.18	3.95	Win2	0.6585	0.0	No	2.72	0.0	n/a	LatePress	0	n/a	n/a	3	40	Fixation	MissedWin	True
387.126	0.18	Win2	0.6585	0.004	No	2.72	-0.004	1.0	LatePress	0	0.18	386.306	3	40	Target	MissedWin	True
387.306	0.3	Win2	0.6585	0.004	No	2.72	-0.004	1.0	LatePress	0	0.18	n/a	3	40	ButtonPress	MissedWin	True
387.309	0.52	Win2	0.6585	n/a	No	2.72	n/a	n/a	LatePress	0	n/a	n/a	3	40	Blank	MissedWin	True
387.828	1.45	Win2	0.6585	n/a	No	2.72	n/a	5.0	LatePress	0	0.046	386.874	3	40	Feedback	MissedWin	True
389.282	2.72	Win2	0.6585	n/a	No	2.72	n/a	n/a	LatePress	0	0.0	n/a	3	40	ISIslide	MissedWin	True
392.024	0.25	Win2	0.6429	0.0	No	2.776	0.024	n/a	NoResponse	0	n/a	n/a	3	41	Cue	MissedWin	True
392.274	3.9	Win2	0.6429	0.0	No	2.776	0.0	n/a	NoResponse	0	n/a	n/a	3	41	Fixation	MissedWin	True
396.186	0.18	Win2	0.6429	0.0	No	2.776	0.012	1.0	NoResponse	0	0.184	395.37	3	41	Target	MissedWin	True
396.353	0.52	Win2	0.6429	n/a	No	2.776	n/a	n/a	NoResponse	0	n/a	n/a	3	41	Blank	MissedWin	True
396.37	0.3	Win2	0.6429	0.0	No	2.776	0.012	1.0	NoResponse	0	0.184	n/a	3	41	ButtonPress	MissedWin	True
396.871	1.45	Win2	0.6429	n/a	No	2.776	n/a	5.0	NoResponse	0	0.027	395.898	3	41	Feedback	MissedWin	True
398.326	2.776	Win2	0.6429	n/a	No	2.776	n/a	n/a	NoResponse	0	0.0	n/a	3	41	ISIslide	MissedWin	True
401.117	0.25	Control	0.6512	0.001	Yes	2.933	0.017	n/a	GoodResponse	0	n/a	n/a	3	42	Cue	Neutral	True
401.368	3.85	Control	0.6512	0.0	Yes	2.933	0.001	n/a	GoodResponse	0	n/a	n/a	3	42	Fixation	Neutral	True
405.213	0.19	Control	0.6512	0.004	Yes	2.933	-0.004	1.0	GoodResponse	0	0.181	404.394	3	42	Target	Neutral	True
405.394	0.3	Control	0.6512	0.004	Yes	2.933	-0.004	1.0	GoodResponse	0	0.181	n/a	3	42	ButtonPress	Neutral	True
405.414	0.51	Control	0.6512	n/a	Yes	2.933	n/a	n/a	GoodResponse	0	n/a	n/a	3	42	Blank	Neutral	True
405.915	1.45	Control	0.6512	n/a	Yes	2.933	n/a	5.0	GoodResponse	0	0.008	404.923	3	42	Feedback	Neutral	True
407.369	2.933	Control	0.6512	n/a	Yes	2.933	n/a	n/a	GoodResponse	0	0.0	n/a	3	42	ISIslide	Neutral	True
410.328	0.25	Win2	0.6364	0.0	No	3.172	0.028	n/a	LatePress	0	n/a	n/a	3	43	Cue	MissedWin	False
410.579	4.0	Win2	0.6364	0.0	No	3.172	0.001	1.0	LatePress	0	3.542	413.121	3	43	Fixation	MissedWin	False
414.121	0.3	Win2	0.6364	0.0	No	3.172	0.001	1.0	LatePress	0	3.542	n/a	3	43	ButtonPress	MissedWin	False
414.574	0.2	Win2	0.6364	0.004	No	3.172	-0.004	1.0	LatePress	0	0.203	413.777	3	43	Target	MissedWin	False
414.775	0.5	Win2	0.6364	n/a	No	3.172	n/a	n/a	LatePress	0	n/a	n/a	3	43	Blank	MissedWin	False
414.777	0.3	Win2	0.6364	0.004	No	3.172	-0.004	1.0	LatePress	0	0.203	n/a	3	43	ButtonPress	MissedWin	False
415.276	1.45	Win2	0.6364	n/a	No	3.172	n/a	5.0	LatePress	0	0.013	414.289	3	43	Feedback	MissedWin	False
416.731	3.172	Win2	0.6364	n/a	No	3.172	n/a	n/a	LatePress	0	0.0	n/a	3	43	ISIslide	MissedWin	False
419.924	0.25	Win2	0.6444	0.0	Yes	2.976	0.024	n/a	GoodResponse	1	n/a	n/a	4	44	Cue	Win	True
420.174	4.0	Win2	0.6444	0.001	Yes	2.976	0.0	n/a	GoodResponse	1	n/a	n/a	4	44	Fixation	Win	True
424.17	0.21	Win2	0.6444	0.004	Yes	2.976	-0.004	1.0	GoodResponse	1	0.179	423.349	4	44	Target	Win	True
424.349	0.3	Win2	0.6444	0.004	Yes	2.976	-0.004	1.0	GoodResponse	1	0.179	n/a	4	44	ButtonPress	Win	True
424.387	0.49	Win2	0.6444	n/a	Yes	2.976	n/a	n/a	GoodResponse	1	n/a	n/a	4	44	Blank	Win	True
424.872	1.45	Win2	0.6444	n/a	Yes	2.976	n/a	5.0	GoodResponse	1	0.026	423.898	4	44	Feedback	Win	True
426.326	2.976	Win2	0.6444	n/a	Yes	2.976	n/a	n/a	GoodResponse	1	0.0	n/a	4	44	ISIslide	Win	True
429.319	0.25	Control	0.6522	0.0	Yes	2.881	0.019	n/a	GoodResponse	0	n/a	n/a	4	45	Cue	Neutral	True
429.569	4.1	Control	0.6522	0.0	Yes	2.881	0.0	n/a	GoodResponse	0	n/a	n/a	4	45	Fixation	Neutral	True
433.665	0.22	Control	0.6522	0.004	Yes	2.881	-0.004	1.0	GoodResponse	0	0.178	432.843	4	45	Target	Neutral	True
433.843	0.3	Control	0.6522	0.004	Yes	2.881	-0.004	1.0	GoodResponse	0	0.178	n/a	4	45	ButtonPress	Neutral	True
433.899	0.48	Control	0.6522	n/a	Yes	2.881	n/a	n/a	GoodResponse	0	n/a	n/a	4	45	Blank	Neutral	True
434.367	1.45	Control	0.6522	n/a	Yes	2.881	n/a	5.0	GoodResponse	0	0.043	433.41	4	45	Feedback	Neutral	True
435.821	2.881	Control	0.6522	n/a	Yes	2.881	n/a	n/a	GoodResponse	0	0.0	n/a	4	45	ISIslide	Neutral	True
438.73	0.25	Lose2	0.6596	0.0	Yes	3.37	0.03	n/a	GoodResponse	0	n/a	n/a	4	46	Cue	AvoidedLoss	True
438.981	4.0	Lose2	0.6596	0.0	Yes	3.37	0.001	n/a	GoodResponse	0	n/a	n/a	4	46	Fixation	AvoidedLoss	True
442.976	0.23	Lose2	0.6596	0.004	Yes	3.37	-0.004	1.0	GoodResponse	0	0.179	442.155	4	46	Target	AvoidedLoss	True
443.155	0.3	Lose2	0.6596	0.004	Yes	3.37	-0.004	1.0	GoodResponse	0	0.179	n/a	4	46	ButtonPress	AvoidedLoss	True
443.21	0.47	Lose2	0.6596	n/a	Yes	3.37	n/a	n/a	GoodResponse	0	n/a	n/a	4	46	Blank	AvoidedLoss	True
443.678	1.45	Lose2	0.6596	n/a	Yes	3.37	n/a	5.0	GoodResponse	0	0.049	442.727	4	46	Feedback	AvoidedLoss	True
445.132	3.37	Lose2	0.6596	n/a	Yes	3.37	n/a	n/a	GoodResponse	0	0.0	n/a	4	46	ISIslide	AvoidedLoss	True
448.526	0.25	Lose2	0.6667000000000001	0.0	Yes	2.674	0.026	n/a	GoodResponse	0	n/a	n/a	4	47	Cue	AvoidedLoss	True
448.777	4.0	Lose2	0.6667000000000001	0.0	Yes	2.674	0.001	n/a	GoodResponse	0	n/a	n/a	4	47	Fixation	AvoidedLoss	True
452.772	0.23	Lose2	0.6667000000000001	0.004	Yes	2.674	-0.004	1.0	GoodResponse	0	0.205	451.977	4	47	Target	AvoidedLoss	True
452.977	0.3	Lose2	0.6667000000000001	0.004	Yes	2.674	-0.004	1.0	GoodResponse	0	0.205	n/a	4	47	ButtonPress	AvoidedLoss	True
453.006	0.47	Lose2	0.6667000000000001	n/a	Yes	2.674	n/a	n/a	GoodResponse	0	n/a	n/a	4	47	Blank	AvoidedLoss	True
453.474	1.45	Lose2	0.6667000000000001	n/a	Yes	2.674	n/a	5.0	GoodResponse	0	0.009	452.483	4	47	Feedback	AvoidedLoss	True
454.928	2.674	Lose2	0.6667000000000001	n/a	Yes	2.674	n/a	n/a	GoodResponse	0	0.0	n/a	4	47	ISIslide	AvoidedLoss	True
457.62	0.25	Lose2	0.6735	0.0	Yes	3.03	0.02	n/a	GoodResponse	0	n/a	n/a	4	48	Cue	AvoidedLoss	True
457.871	3.95	Lose2	0.6735	0.0	Yes	3.03	0.001	n/a	GoodResponse	0	n/a	n/a	4	48	Fixation	AvoidedLoss	True
461.816	0.22	Lose2	0.6735	0.004	Yes	3.03	-0.004	1.0	GoodResponse	0	0.166	460.982	4	48	Target	AvoidedLoss	True
461.982	0.3	Lose2	0.6735	0.004	Yes	3.03	-0.004	1.0	GoodResponse	0	0.166	n/a	4	48	ButtonPress	AvoidedLoss	True
462.05	0.48	Lose2	0.6735	n/a	Yes	3.03	n/a	n/a	GoodResponse	0	n/a	n/a	4	48	Blank	AvoidedLoss	True
462.518	1.45	Lose2	0.6735	n/a	Yes	3.03	n/a	5.0	GoodResponse	0	0.039	461.557	4	48	Feedback	AvoidedLoss	True
463.972	3.03	Lose2	0.6735	n/a	Yes	3.03	n/a	n/a	GoodResponse	0	0.0	n/a	4	48	ISIslide	AvoidedLoss	True
467.015	0.25	Control	0.68	0.0	Yes	2.885	0.015	n/a	GoodResponse	0	n/a	n/a	4	49	Cue	Neutral	True
467.265	4.0	Control	0.68	0.001	Yes	2.885	0.0	n/a	GoodResponse	0	n/a	n/a	4	49	Fixation	Neutral	True
471.261	0.21	Control	0.68	0.004	Yes	2.885	-0.004	1.0	GoodResponse	0	0.161	470.422	4	49	Target	Neutral	True
471.422	0.3	Control	0.68	0.004	Yes	2.885	-0.004	1.0	GoodResponse	0	0.161	n/a	4	49	ButtonPress	Neutral	True
471.478	0.49	Control	0.68	n/a	Yes	2.885	n/a	n/a	GoodResponse	0	n/a	n/a	4	49	Blank	Neutral	True
471.963	1.45	Control	0.68	n/a	Yes	2.885	n/a	5.0	GoodResponse	0	0.007	470.97	4	49	Feedback	Neutral	True
473.417	2.885	Control	0.68	n/a	Yes	2.885	n/a	n/a	GoodResponse	0	0.0	n/a	4	49	ISIslide	Neutral	True
476.326	0.25	Control	0.6667000000000001	0.0	No	2.774	0.026	n/a	NoResponse	0	n/a	n/a	4	50	Cue	Neutral	True
476.577	4.0	Control	0.6667000000000001	0.0	No	2.774	0.001	n/a	NoResponse	0	n/a	n/a	4	50	Fixation	Neutral	True
480.572	0.2	Control	0.6667000000000001	0.004	No	2.774	-0.004	1.0	NoResponse	0	0.211	479.783	4	50	Target	Neutral	True
480.773	0.5	Control	0.6667000000000001	n/a	No	2.774	n/a	n/a	NoResponse	0	n/a	n/a	4	50	Blank	Neutral	True
480.783	0.3	Control	0.6667000000000001	0.004	No	2.774	-0.004	1.0	NoResponse	0	0.211	n/a	4	50	ButtonPress	Neutral	True
481.274	1.45	Control	0.6667000000000001	n/a	No	2.774	n/a	5.0	NoResponse	0	0.014	480.288	4	50	Feedback	Neutral	True
482.728	2.774	Control	0.6667000000000001	n/a	No	2.774	n/a	n/a	NoResponse	0	0.0	n/a	4	50	ISIslide	Neutral	True
485.52	0.25	Control	0.6537999999999999	0.0	No	2.73	0.02	n/a	NoResponse	0	n/a	n/a	4	51	Cue	Neutral	True
485.771	3.95	Control	0.6537999999999999	0.0	No	2.73	0.001	n/a	NoResponse	0	n/a	n/a	4	51	Fixation	Neutral	True
489.716	0.19	Control	0.6537999999999999	0.004	No	2.73	-0.004	1.0	NoResponse	0	0.213	488.929	4	51	Target	Neutral	True
489.917	0.51	Control	0.6537999999999999	n/a	No	2.73	n/a	n/a	NoResponse	0	n/a	n/a	4	51	Blank	Neutral	True
489.929	0.3	Control	0.6537999999999999	0.004	No	2.73	-0.004	1.0	NoResponse	0	0.213	n/a	4	51	ButtonPress	Neutral	True
490.418	1.45	Control	0.6537999999999999	n/a	No	2.73	n/a	5.0	NoResponse	0	0.04	489.458	4	51	Feedback	Neutral	True
491.872	2.73	Control	0.6537999999999999	n/a	No	2.73	n/a	n/a	NoResponse	0	0.0	n/a	4	51	ISIslide	Neutral	True
494.631	0.25	Control	0.6604000000000001	0.0	Yes	2.619	0.031	1.0	GoodResponse	0	0.1	493.731	4	52	Cue	Neutral	False
494.731	0.3	Control	0.6604000000000001	0.0	Yes	2.619	0.031	1.0	GoodResponse	0	0.1	n/a	4	52	ButtonPress	Neutral	False
494.881	4.05	Control	0.6604000000000001	0.0	Yes	2.619	0.0	n/a	GoodResponse	0	n/a	n/a	4	52	Fixation	Neutral	False
498.927	0.2	Control	0.6604000000000001	0.004	Yes	2.619	-0.004	1.0	GoodResponse	0	0.173	498.1	4	52	Target	Neutral	False
499.1	0.3	Control	0.6604000000000001	0.004	Yes	2.619	-0.004	1.0	GoodResponse	0	0.173	n/a	4	52	ButtonPress	Neutral	False
499.127	0.5	Control	0.6604000000000001	n/a	Yes	2.619	n/a	n/a	GoodResponse	0	n/a	n/a	4	52	Blank	Neutral	False
499.629	1.45	Control	0.6604000000000001	n/a	Yes	2.619	n/a	5.0	GoodResponse	0	0.049	498.678	4	52	Feedback	Neutral	False
501.083	2.619	Control	0.6604000000000001	n/a	Yes	2.619	n/a	n/a	GoodResponse	0	0.0	n/a	4	52	ISIslide	Neutral	False
503.725	0.25	Win2	0.6667000000000001	0.0	Yes	2.925	0.025	n/a	GoodResponse	1	n/a	n/a	5	53	Cue	Win	True
503.975	4.05	Win2	0.6667000000000001	0.0	Yes	2.925	0.0	n/a	GoodResponse	1	n/a	n/a	5	53	Fixation	Win	True
508.021	0.2	Win2	0.6667000000000001	0.004	Yes	2.925	-0.004	1.0	GoodResponse	1	0.179	507.2	5	53	Target	Win	True
508.2	0.3	Win2	0.6667000000000001	0.004	Yes	2.925	-0.004	1.0	GoodResponse	1	0.179	n/a	5	53	ButtonPress	Win	True
508.221	0.5	Win2	0.6667000000000001	n/a	Yes	2.925	n/a	n/a	GoodResponse	1	n/a	n/a	5	53	Blank	Win	True
508.723	1.45	Win2	0.6667000000000001	n/a	Yes	2.925	n/a	5.0	GoodResponse	1	0.028	507.751	5	53	Feedback	Win	True
510.177	2.925	Win2	0.6667000000000001	n/a	Yes	2.925	n/a	n/a	GoodResponse	1	0.0	n/a	5	53	ISIslide	Win	True
513.119	0.25	Win2	0.6727	0.0	Yes	2.731	0.019	n/a	GoodResponse	1	n/a	n/a	6	54	Cue	Win	True
513.37	3.95	Win2	0.6727	0.0	Yes	2.731	0.001	n/a	GoodResponse	1	n/a	n/a	6	54	Fixation	Win	True
517.315	0.19	Win2	0.6727	0.004	Yes	2.731	-0.004	1.0	GoodResponse	1	0.182	516.497	6	54	Target	Win	True
517.497	0.3	Win2	0.6727	0.004	Yes	2.731	-0.004	1.0	GoodResponse	1	0.182	n/a	6	54	ButtonPress	Win	True
517.516	0.51	Win2	0.6727	n/a	Yes	2.731	n/a	n/a	GoodResponse	1	n/a	n/a	6	54	Blank	Win	True
518.017	1.45	Win2	0.6727	n/a	Yes	2.731	n/a	5.0	GoodResponse	1	0.007	517.024	6	54	Feedback	Win	True
519.472	2.731	Win2	0.6727	n/a	Yes	2.731	n/a	n/a	GoodResponse	1	0.0	n/a	6	54	ISIslide	Win	True
522.23	0.25	Control	0.6607	0.0	No	3.02	0.03	n/a	NoResponse	0	n/a	n/a	6	55	Cue	Neutral	True
522.481	3.95	Control	0.6607	0.0	No	3.02	0.001	n/a	NoResponse	0	n/a	n/a	6	55	Fixation	Neutral	True
526.426	0.18	Control	0.6607	0.004	No	3.02	-0.004	1.0	NoResponse	0	0.212	525.638	6	55	Target	Neutral	True
526.61	0.52	Control	0.6607	n/a	No	3.02	n/a	n/a	NoResponse	0	n/a	n/a	6	55	Blank	Neutral	True
526.638	0.3	Control	0.6607	0.004	No	3.02	-0.004	1.0	NoResponse	0	0.212	n/a	6	55	ButtonPress	Neutral	True
527.128	1.45	Control	0.6607	n/a	No	3.02	n/a	5.0	NoResponse	0	0.013	526.141	6	55	Feedback	Neutral	True
528.582	3.02	Control	0.6607	n/a	No	3.02	n/a	n/a	NoResponse	0	0.0	n/a	6	55	ISIslide	Neutral	True
531.625	0.25	Control	0.6491	0.0	No	2.825	0.025	n/a	LatePress	0	n/a	n/a	6	56	Cue	Neutral	True
531.875	3.95	Control	0.6491	0.001	No	2.825	0.0	n/a	LatePress	0	n/a	n/a	6	56	Fixation	Neutral	True
535.821	0.18	Control	0.6491	0.004	No	2.825	-0.004	1.0	LatePress	0	0.183	535.004	6	56	Target	Neutral	True
536.004	0.3	Control	0.6491	0.004	No	2.825	-0.004	1.0	LatePress	0	0.183	n/a	6	56	ButtonPress	Neutral	True
536.005	0.52	Control	0.6491	n/a	No	2.825	n/a	n/a	LatePress	0	n/a	n/a	6	56	Blank	Neutral	True
536.523	1.45	Control	0.6491	n/a	No	2.825	n/a	5.0	LatePress	0	0.032	535.555	6	56	Feedback	Neutral	True
537.977	2.825	Control	0.6491	n/a	No	2.825	n/a	n/a	LatePress	0	0.0	n/a	6	56	ISIslide	Neutral	True
540.819	0.25	Control	0.6552	0.0	Yes	3.481	0.019	n/a	GoodResponse	0	n/a	n/a	6	57	Cue	Neutral	True
541.07	4.0	Control	0.6552	0.0	Yes	3.481	0.001	n/a	GoodResponse	0	n/a	n/a	6	57	Fixation	Neutral	True
545.065	0.19	Control	0.6552	0.004	Yes	3.481	-0.004	1.0	GoodResponse	0	0.151	544.216	6	57	Target	Neutral	True
545.216	0.3	Control	0.6552	0.004	Yes	3.481	-0.004	1.0	GoodResponse	0	0.151	n/a	6	57	ButtonPress	Neutral	True
545.266	0.51	Control	0.6552	n/a	Yes	3.481	n/a	n/a	GoodResponse	0	n/a	n/a	6	57	Blank	Neutral	True
545.767	1.45	Control	0.6552	n/a	Yes	3.481	n/a	5.0	GoodResponse	0	0.008	544.775	6	57	Feedback	Neutral	True
547.221	3.481	Control	0.6552	n/a	Yes	3.481	n/a	n/a	GoodResponse	0	0.0	n/a	6	57	ISIslide	Neutral	True
550.732	0.25	Win2	0.6609999999999999	0.0	Yes	2.718	0.032	n/a	GoodResponse	1	n/a	n/a	7	58	Cue	Win	True
550.983	4.05	Win2	0.6609999999999999	0.0	Yes	2.718	0.001	n/a	GoodResponse	1	n/a	n/a	7	58	Fixation	Win	True
555.028	0.19	Win2	0.6609999999999999	0.004	Yes	2.718	-0.004	1.0	GoodResponse	1	0.167	554.195	7	58	Target	Win	True
555.195	0.3	Win2	0.6609999999999999	0.004	Yes	2.718	-0.004	1.0	GoodResponse	1	0.167	n/a	7	58	ButtonPress	Win	True
555.229	0.51	Win2	0.6609999999999999	n/a	Yes	2.718	n/a	n/a	GoodResponse	1	n/a	n/a	7	58	Blank	Win	True
555.73	1.45	Win2	0.6609999999999999	n/a	Yes	2.718	n/a	5.0	GoodResponse	1	0.045	554.775	7	58	Feedback	Win	True
557.185	2.718	Win2	0.6609999999999999	n/a	Yes	2.718	n/a	n/a	GoodResponse	1	0.0	n/a	7	58	ISIslide	Win	True
559.926	0.25	Lose2	0.6667000000000001	0.0	Yes	2.674	0.026	n/a	GoodResponse	0	n/a	n/a	7	59	Cue	AvoidedLoss	True
560.177	4.0	Lose2	0.6667000000000001	0.0	Yes	2.674	0.001	n/a	GoodResponse	0	n/a	n/a	7	59	Fixation	AvoidedLoss	True
564.172	0.19	Lose2	0.6667000000000001	0.004	Yes	2.674	-0.004	1.0	GoodResponse	0	0.176	563.348	7	59	Target	AvoidedLoss	True
564.348	0.3	Lose2	0.6667000000000001	0.004	Yes	2.674	-0.004	1.0	GoodResponse	0	0.176	n/a	7	59	ButtonPress	AvoidedLoss	True
564.373	0.51	Lose2	0.6667000000000001	n/a	Yes	2.674	n/a	n/a	GoodResponse	0	n/a	n/a	7	59	Blank	AvoidedLoss	True
564.874	1.45	Lose2	0.6667000000000001	n/a	Yes	2.674	n/a	5.0	GoodResponse	0	0.023	563.897	7	59	Feedback	AvoidedLoss	True
566.329	2.674	Lose2	0.6667000000000001	n/a	Yes	2.674	n/a	n/a	GoodResponse	0	0.0	n/a	7	59	ISIslide	AvoidedLoss	True
569.02	0.25	Control	0.6557	0.0	No	2.68	0.02	n/a	NoResponse	0	n/a	n/a	7	60	Cue	Neutral	True
569.271	4.0	Control	0.6557	0.0	No	2.68	0.001	n/a	NoResponse	0	n/a	n/a	7	60	Fixation	Neutral	True
573.266	0.18	Control	0.6557	0.004	No	2.68	-0.004	1.0	NoResponse	0	0.193	572.459	7	60	Target	Neutral	True
573.45	0.52	Control	0.6557	n/a	No	2.68	n/a	n/a	NoResponse	0	n/a	n/a	7	60	Blank	Neutral	True
573.459	0.3	Control	0.6557	0.004	No	2.68	-0.004	1.0	NoResponse	0	0.193	n/a	7	60	ButtonPress	Neutral	True
573.968	1.45	Control	0.6557	n/a	No	2.68	n/a	5.0	NoResponse	0	0.001	572.969	7	60	Feedback	Neutral	True
575.423	2.68	Control	0.6557	n/a	No	2.68	n/a	n/a	NoResponse	0	0.0	n/a	7	60	ISIslide	Neutral	True
578.131	0.25	Lose2	0.6613	0.0	Yes	2.969	0.031	n/a	GoodResponse	0	n/a	n/a	7	61	Cue	AvoidedLoss	True
578.381	4.0	Lose2	0.6613	0.0	Yes	2.969	0.0	n/a	GoodResponse	0	n/a	n/a	7	61	Fixation	AvoidedLoss	True
582.377	0.18	Lose2	0.6613	0.004	Yes	2.969	-0.004	1.0	GoodResponse	0	0.154	581.531	7	61	Target	AvoidedLoss	True
582.531	0.3	Lose2	0.6613	0.004	Yes	2.969	-0.004	1.0	GoodResponse	0	0.154	n/a	7	61	ButtonPress	AvoidedLoss	True
582.561	0.52	Lose2	0.6613	n/a	Yes	2.969	n/a	n/a	GoodResponse	0	n/a	n/a	7	61	Blank	AvoidedLoss	True
583.079	1.45	Lose2	0.6613	n/a	Yes	2.969	n/a	5.0	GoodResponse	0	0.013	582.092	7	61	Feedback	AvoidedLoss	True
584.533	2.969	Lose2	0.6613	n/a	Yes	2.969	n/a	n/a	GoodResponse	0	0.0	n/a	7	61	ISIslide	AvoidedLoss	True
587.525	0.25	Lose2	0.6667000000000001	0.0	Yes	2.875	0.025	n/a	GoodResponse	0	n/a	n/a	7	62	Cue	AvoidedLoss	True
587.776	3.9	Lose2	0.6667000000000001	0.0	Yes	2.875	0.001	n/a	GoodResponse	0	n/a	n/a	7	62	Fixation	AvoidedLoss	True
591.671	0.18	Lose2	0.6667000000000001	0.004	Yes	2.875	-0.004	1.0	GoodResponse	0	0.177	590.848	7	62	Target	AvoidedLoss	True
591.848	0.3	Lose2	0.6667000000000001	0.004	Yes	2.875	-0.004	1.0	GoodResponse	0	0.177	n/a	7	62	ButtonPress	AvoidedLoss	True
591.855	0.52	Lose2	0.6667000000000001	n/a	Yes	2.875	n/a	n/a	GoodResponse	0	n/a	n/a	7	62	Blank	AvoidedLoss	True
592.373	1.45	Lose2	0.6667000000000001	n/a	Yes	2.875	n/a	5.0	GoodResponse	0	0.036	591.409	7	62	Feedback	AvoidedLoss	True
593.828	2.875	Lose2	0.6667000000000001	n/a	Yes	2.875	n/a	n/a	GoodResponse	0	0.0	n/a	7	62	ISIslide	AvoidedLoss	True
596.72	0.25	Lose2	0.6562	0.0	No	2.63	0.02	n/a	NoResponse	-1	n/a	n/a	6	63	Cue	Loss	True
596.97	4.05	Lose2	0.6562	0.0	No	2.63	0.0	n/a	NoResponse	-1	n/a	n/a	6	63	Fixation	Loss	True
601.016	0.17	Lose2	0.6562	0.004	No	2.63	-0.004	1.0	NoResponse	-1	0.195	600.211	6	63	Target	Loss	True
601.2	0.53	Lose2	0.6562	n/a	No	2.63	n/a	n/a	NoResponse	-1	n/a	n/a	6	63	Blank	Loss	True
601.211	0.3	Lose2	0.6562	0.004	No	2.63	-0.004	1.0	NoResponse	-1	0.195	n/a	6	63	ButtonPress	Loss	True
601.718	1.45	Lose2	0.6562	n/a	No	2.63	n/a	5.0	NoResponse	-1	0.008	600.726	6	63	Feedback	Loss	True
603.172	2.63	Lose2	0.6562	n/a	No	2.63	n/a	n/a	NoResponse	-1	0.0	n/a	6	63	ISIslide	Loss	True
605.83	0.25	Win2	0.6462	0.0	No	3.12	0.03	n/a	LatePress	0	n/a	n/a	6	64	Cue	MissedWin	True
606.081	4.15	Win2	0.6462	0.0	No	3.12	0.001	n/a	LatePress	0	n/a	n/a	6	64	Fixation	MissedWin	True
610.227	0.17	Win2	0.6462	0.003	No	3.12	-0.003	1.0	LatePress	0	0.178	609.405	6	64	Target	MissedWin	True
610.405	0.3	Win2	0.6462	0.003	No	3.12	-0.003	1.0	LatePress	0	0.178	n/a	6	64	ButtonPress	MissedWin	True
610.411	0.53	Win2	0.6462	n/a	No	3.12	n/a	n/a	LatePress	0	n/a	n/a	6	64	Blank	MissedWin	True
610.929	1.45	Win2	0.6462	n/a	No	3.12	n/a	5.0	LatePress	0	0.017	609.946	6	64	Feedback	MissedWin	True
612.383	3.12	Win2	0.6462	n/a	No	3.12	n/a	n/a	LatePress	0	0.0	n/a	6	64	ISIslide	MissedWin	True
615.526	0.25	Control	0.6364	0.0	No	2.774	0.026	n/a	NoResponse	0	n/a	n/a	6	65	Cue	Neutral	True
615.777	4.0	Control	0.6364	0.0	No	2.774	0.001	n/a	NoResponse	0	n/a	n/a	6	65	Fixation	Neutral	True
619.772	0.18	Control	0.6364	0.004	No	2.774	-0.004	1.0	NoResponse	0	0.194	618.966	6	65	Target	Neutral	True
619.956	0.52	Control	0.6364	n/a	No	2.774	n/a	n/a	NoResponse	0	n/a	n/a	6	65	Blank	Neutral	True
619.966	0.3	Control	0.6364	0.004	No	2.774	-0.004	1.0	NoResponse	0	0.194	n/a	6	65	ButtonPress	Neutral	True
620.474	1.45	Control	0.6364	n/a	No	2.774	n/a	5.0	NoResponse	0	0.032	619.506	6	65	Feedback	Neutral	True
621.928	2.774	Control	0.6364	n/a	No	2.774	n/a	n/a	NoResponse	0	0.0	n/a	6	65	ISIslide	Neutral	True
624.72	0.25	Win2	0.6418	0.0	Yes	2.78	0.02	n/a	GoodResponse	1	n/a	n/a	7	66	Cue	Win	True
624.971	3.9	Win2	0.6418	0.0	Yes	2.78	0.001	n/a	GoodResponse	1	n/a	n/a	7	66	Fixation	Win	True
628.866	0.19	Win2	0.6418	0.004	Yes	2.78	-0.004	1.0	GoodResponse	1	0.162	628.028	7	66	Target	Win	True
629.028	0.3	Win2	0.6418	0.004	Yes	2.78	-0.004	1.0	GoodResponse	1	0.162	n/a	7	66	ButtonPress	Win	True
629.066	0.51	Win2	0.6418	n/a	Yes	2.78	n/a	n/a	GoodResponse	1	n/a	n/a	7	66	Blank	Win	True
629.568	1.45	Win2	0.6418	n/a	Yes	2.78	n/a	5.0	GoodResponse	1	0.011	628.579	7	66	Feedback	Win	True
631.022	2.78	Win2	0.6418	n/a	Yes	2.78	n/a	n/a	GoodResponse	1	0.0	n/a	7	66	ISIslide	Win	True
633.831	0.25	Control	0.6324000000000001	0.0	No	2.719	0.031	n/a	NoResponse	0	n/a	n/a	7	67	Cue	Neutral	True
634.081	3.95	Control	0.6324000000000001	0.0	No	2.719	0.0	n/a	NoResponse	0	n/a	n/a	7	67	Fixation	Neutral	True
638.027	0.2	Control	0.6324000000000001	0.004	No	2.719	-0.004	1.0	NoResponse	0	0.216	637.243	7	67	Target	Neutral	True
638.227	0.5	Control	0.6324000000000001	n/a	No	2.719	n/a	n/a	NoResponse	0	n/a	n/a	7	67	Blank	Neutral	True
638.243	0.3	Control	0.6324000000000001	0.004	No	2.719	-0.004	1.0	NoResponse	0	0.216	n/a	7	67	ButtonPress	Neutral	True
638.729	1.45	Control	0.6324000000000001	n/a	No	2.719	n/a	5.0	NoResponse	0	0.021	637.75	7	67	Feedback	Neutral	True
640.183	2.719	Control	0.6324000000000001	n/a	No	2.719	n/a	n/a	NoResponse	0	0.0	n/a	7	67	ISIslide	Neutral	True
642.925	0.25	Win2	0.6377	0.0	Yes	3.075	0.025	n/a	GoodResponse	1	n/a	n/a	8	68	Cue	Win	True
643.175	4.0	Win2	0.6377	0.0	Yes	3.075	0.0	n/a	GoodResponse	1	n/a	n/a	8	68	Fixation	Win	True
647.171	0.21	Win2	0.6377	0.004	Yes	3.075	-0.004	1.0	GoodResponse	1	0.169	646.34	8	68	Target	Win	True
647.34	0.3	Win2	0.6377	0.004	Yes	3.075	-0.004	1.0	GoodResponse	1	0.169	n/a	8	68	ButtonPress	Win	True
647.388	0.49	Win2	0.6377	n/a	Yes	3.075	n/a	n/a	GoodResponse	1	n/a	n/a	8	68	Blank	Win	True
647.873	1.45	Win2	0.6377	n/a	Yes	3.075	n/a	5.0	GoodResponse	1	0.048	646.921	8	68	Feedback	Win	True
649.327	3.075	Win2	0.6377	n/a	Yes	3.075	n/a	n/a	GoodResponse	1	0.0	n/a	8	68	ISIslide	Win	True
652.42	0.25	Win2	0.6429	0.0	Yes	3.23	0.02	n/a	GoodResponse	1	n/a	n/a	9	69	Cue	Win	True
652.67	3.95	Win2	0.6429	0.0	Yes	3.23	0.0	n/a	GoodResponse	1	n/a	n/a	9	69	Fixation	Win	True
656.616	0.22	Win2	0.6429	0.004	Yes	3.23	-0.004	1.0	GoodResponse	1	0.165	655.781	9	69	Target	Win	True
656.781	0.3	Win2	0.6429	0.004	Yes	3.23	-0.004	1.0	GoodResponse	1	0.165	n/a	9	69	ButtonPress	Win	True
656.85	0.48	Win2	0.6429	n/a	Yes	3.23	n/a	n/a	GoodResponse	1	n/a	n/a	9	69	Blank	Win	True
657.318	1.45	Win2	0.6429	n/a	Yes	3.23	n/a	5.0	GoodResponse	1	0.017	656.335	9	69	Feedback	Win	True
658.772	3.23	Win2	0.6429	n/a	Yes	3.23	n/a	n/a	GoodResponse	1	0.0	n/a	9	69	ISIslide	Win	True
662.032	0.25	Lose2	0.6479	0.0	Yes	3.018	0.032	n/a	GoodResponse	0	n/a	n/a	9	70	Cue	AvoidedLoss	True
662.282	4.05	Lose2	0.6479	0.001	Yes	3.018	0.0	n/a	GoodResponse	0	n/a	n/a	9	70	Fixation	AvoidedLoss	True
666.328	0.23	Lose2	0.6479	0.004	Yes	3.018	-0.004	1.0	GoodResponse	0	0.168	665.496	9	70	Target	AvoidedLoss	True
666.496	0.3	Lose2	0.6479	0.004	Yes	3.018	-0.004	1.0	GoodResponse	0	0.168	n/a	9	70	ButtonPress	AvoidedLoss	True
666.562	0.47	Lose2	0.6479	n/a	Yes	3.018	n/a	n/a	GoodResponse	0	n/a	n/a	9	70	Blank	AvoidedLoss	True
667.03	1.45	Lose2	0.6479	n/a	Yes	3.018	n/a	5.0	GoodResponse	0	0.013	666.043	9	70	Feedback	AvoidedLoss	True
668.484	3.018	Lose2	0.6479	n/a	Yes	3.018	n/a	n/a	GoodResponse	0	0.0	n/a	9	70	ISIslide	AvoidedLoss	True
671.527	0.25	Win2	0.6528	0.0	Yes	2.723	0.027	n/a	GoodResponse	1	n/a	n/a	10	71	Cue	Win	True
671.778	4.05	Win2	0.6528	0.0	Yes	2.723	0.001	n/a	GoodResponse	1	n/a	n/a	10	71	Fixation	Win	True
675.823	0.24	Win2	0.6528	0.004	Yes	2.723	-0.004	1.0	GoodResponse	1	0.191	675.014	10	71	Target	Win	True
676.014	0.3	Win2	0.6528	0.004	Yes	2.723	-0.004	1.0	GoodResponse	1	0.191	n/a	10	71	ButtonPress	Win	True
676.074	0.46	Win2	0.6528	n/a	Yes	2.723	n/a	n/a	GoodResponse	1	n/a	n/a	10	71	Blank	Win	True
676.525	1.45	Win2	0.6528	n/a	Yes	2.723	n/a	5.0	GoodResponse	1	0.029	675.554	10	71	Feedback	Win	True
677.979	2.723	Win2	0.6528	n/a	Yes	2.723	n/a	n/a	GoodResponse	1	0.0	n/a	10	71	ISIslide	Win	True
680.721	0.25	Win2	0.6575	0.0	Yes	2.779	0.021	n/a	GoodResponse	1	n/a	n/a	11	72	Cue	Win	True
680.972	4.1	Win2	0.6575	0.0	Yes	2.779	0.001	n/a	GoodResponse	1	n/a	n/a	11	72	Fixation	Win	True
685.067	0.25	Win2	0.6575	0.004	Yes	2.779	-0.004	1.0	GoodResponse	1	0.173	684.24	11	72	Target	Win	True
685.24	0.3	Win2	0.6575	0.004	Yes	2.779	-0.004	1.0	GoodResponse	1	0.173	n/a	11	72	ButtonPress	Win	True
685.318	0.45	Win2	0.6575	n/a	Yes	2.779	n/a	n/a	GoodResponse	1	n/a	n/a	11	72	Blank	Win	True
685.769	1.45	Win2	0.6575	n/a	Yes	2.779	n/a	5.0	GoodResponse	1	0.007	684.776	11	72	Feedback	Win	True
687.224	2.779	Win2	0.6575	n/a	Yes	2.779	n/a	n/a	GoodResponse	1	0.0	n/a	11	72	ISIslide	Win	True
690.016	0.25	Win2	0.6622	0.0	Yes	2.684	0.016	n/a	GoodResponse	1	n/a	n/a	12	73	Cue	Win	True
690.266	4.0	Win2	0.6622	0.0	Yes	2.684	0.0	n/a	GoodResponse	1	n/a	n/a	12	73	Fixation	Win	True
694.262	0.25	Win2	0.6622	0.004	Yes	2.684	-0.004	1.0	GoodResponse	1	0.171	693.433	12	73	Target	Win	True
694.433	0.3	Win2	0.6622	0.004	Yes	2.684	-0.004	1.0	GoodResponse	1	0.171	n/a	12	73	ButtonPress	Win	True
694.512	0.45	Win2	0.6622	n/a	Yes	2.684	n/a	n/a	GoodResponse	1	n/a	n/a	12	73	Blank	Win	True
694.964	1.45	Win2	0.6622	n/a	Yes	2.684	n/a	5.0	GoodResponse	1	0.029	693.993	12	73	Feedback	Win	True
696.418	2.684	Win2	0.6622	n/a	Yes	2.684	n/a	n/a	GoodResponse	1	0.0	n/a	12	73	ISIslide	Win	True
699.126	0.25	Lose2	0.6667000000000001	0.0	Yes	2.624	0.026	n/a	GoodResponse	0	n/a	n/a	12	74	Cue	AvoidedLoss	True
699.377	4.05	Lose2	0.6667000000000001	0.0	Yes	2.624	0.001	n/a	GoodResponse	0	n/a	n/a	12	74	Fixation	AvoidedLoss	True
703.422	0.25	Lose2	0.6667000000000001	0.004	Yes	2.624	-0.004	1.0	GoodResponse	0	0.172	702.594	12	74	Target	AvoidedLoss	True
703.594	0.3	Lose2	0.6667000000000001	0.004	Yes	2.624	-0.004	1.0	GoodResponse	0	0.172	n/a	12	74	ButtonPress	AvoidedLoss	True
703.673	0.45	Lose2	0.6667000000000001	n/a	Yes	2.624	n/a	n/a	GoodResponse	0	n/a	n/a	12	74	Blank	AvoidedLoss	True
704.124	1.45	Lose2	0.6667000000000001	n/a	Yes	2.624	n/a	5.0	GoodResponse	0	0.04	703.164	12	74	Feedback	AvoidedLoss	True
705.579	2.624	Lose2	0.6667000000000001	n/a	Yes	2.624	n/a	n/a	GoodResponse	0	0.0	n/a	12	74	ISIslide	AvoidedLoss	True
708.22	0.25	Lose2	0.6711	0.0	Yes	2.93	0.02	n/a	GoodResponse	0	n/a	n/a	12	75	Cue	AvoidedLoss	True
708.471	3.95	Lose2	0.6711	0.0	Yes	2.93	0.001	n/a	GoodResponse	0	n/a	n/a	12	75	Fixation	AvoidedLoss	True
712.416	0.24	Lose2	0.6711	0.004	Yes	2.93	-0.004	1.0	GoodResponse	0	0.163	711.579	12	75	Target	AvoidedLoss	True
712.579	0.3	Lose2	0.6711	0.004	Yes	2.93	-0.004	1.0	GoodResponse	0	0.163	n/a	12	75	ButtonPress	AvoidedLoss	True
712.667	0.46	Lose2	0.6711	n/a	Yes	2.93	n/a	n/a	GoodResponse	0	n/a	n/a	12	75	Blank	AvoidedLoss	True
713.118	1.45	Lose2	0.6711	n/a	Yes	2.93	n/a	5.0	GoodResponse	0	0.022	712.14	12	75	Feedback	AvoidedLoss	True
714.572	2.93	Lose2	0.6711	n/a	Yes	2.93	n/a	n/a	GoodResponse	0	0.0	n/a	12	75	ISIslide	AvoidedLoss	True
717.531	0.25	Control	0.6753	0.0	Yes	3.219	0.031	n/a	GoodResponse	0	n/a	n/a	12	76	Cue	Neutral	True
717.782	4.05	Control	0.6753	0.0	Yes	3.219	0.001	n/a	GoodResponse	0	n/a	n/a	12	76	Fixation	Neutral	True
721.827	0.23	Control	0.6753	0.004	Yes	3.219	-0.004	1.0	GoodResponse	0	0.161	720.988	12	76	Target	Neutral	True
721.988	0.3	Control	0.6753	0.004	Yes	3.219	-0.004	1.0	GoodResponse	0	0.161	n/a	12	76	ButtonPress	Neutral	True
722.061	0.47	Control	0.6753	n/a	Yes	3.219	n/a	n/a	GoodResponse	0	n/a	n/a	12	76	Blank	Neutral	True
722.53	1.45	Control	0.6753	n/a	Yes	3.219	n/a	5.0	GoodResponse	0	0.024	721.554	12	76	Feedback	Neutral	True
723.984	3.219	Control	0.6753	n/a	Yes	3.219	n/a	n/a	GoodResponse	0	0.0	n/a	12	76	ISIslide	Neutral	True
727.227	0.25	Lose2	0.6795	0.0	Yes	2.573	0.027	n/a	GoodResponse	0	n/a	n/a	12	77	Cue	AvoidedLoss	True
727.478	3.95	Lose2	0.6795	0.0	Yes	2.573	0.001	n/a	GoodResponse	0	n/a	n/a	12	77	Fixation	AvoidedLoss	True
731.423	0.22	Lose2	0.6795	0.004	Yes	2.573	-0.004	1.0	GoodResponse	0	0.166	730.589	12	77	Target	AvoidedLoss	True
731.589	0.3	Lose2	0.6795	0.004	Yes	2.573	-0.004	1.0	GoodResponse	0	0.166	n/a	12	77	ButtonPress	AvoidedLoss	True
731.657	0.48	Lose2	0.6795	n/a	Yes	2.573	n/a	n/a	GoodResponse	0	n/a	n/a	12	77	Blank	AvoidedLoss	True
732.125	1.45	Lose2	0.6795	n/a	Yes	2.573	n/a	5.0	GoodResponse	0	0.038	731.163	12	77	Feedback	AvoidedLoss	True
733.579	2.573	Lose2	0.6795	n/a	Yes	2.573	n/a	n/a	GoodResponse	0	0.0	n/a	12	77	ISIslide	AvoidedLoss	True
