onset	duration	cue_type	current_mean_accuracy	duration_error	is_hit	isi_adjusted	onset_delay	response	response_type	reward	rt	rt_time	total_reward	trial_number	trial_phase	trial_type	one_press
11.1	0.25	Control	1.0	0.0	Yes	2.95	0.0	n/a	GoodResponse	0	n/a	n/a	0	0	Cue	Neutral	True
11.35	3.85	Control	1.0	0.0	Yes	2.95	0.0	n/a	GoodResponse	0	n/a	n/a	0	0	Fixation	Neutral	True
15.199	0.4	Control	1.0	0.001	Yes	2.95	-0.001	4.0	GoodResponse	0	0.281	14.48	0	0	Target	Neutral	True
15.48	0.3	Control	1.0	0.001	Yes	2.95	-0.001	4.0	GoodResponse	0	0.281	n/a	0	0	ButtonPress	Neutral	True
15.599	0.3	Control	1.0	n/a	Yes	2.95	n/a	n/a	GoodResponse	0	n/a	n/a	0	0	Blank	Neutral	True
15.899	1.45	Control	1.0	n/a	Yes	2.95	n/a	5.0	GoodResponse	0	0.027	14.926	0	0	Feedback	Neutral	True
17.348	2.95	Control	1.0	n/a	Yes	2.95	n/a	n/a	GoodResponse	0	0.0	n/a	0	0	ISIslide	Neutral	True
20.314	0.25	Lose2	1.0	0.0	Yes	2.786	0.014	n/a	GoodResponse	0	n/a	n/a	0	1	Cue	AvoidedLoss	True
20.564	4.0	Lose2	1.0	0.0	Yes	2.786	0.0	n/a	GoodResponse	0	n/a	n/a	0	1	Fixation	AvoidedLoss	True
24.562	0.39	Lose2	1.0	0.002	Yes	2.786	-0.002	4.0	GoodResponse	0	0.222	23.784	0	1	Target	AvoidedLoss	True
24.784	0.3	Lose2	1.0	0.002	Yes	2.786	-0.002	4.0	GoodResponse	0	0.222	n/a	0	1	ButtonPress	AvoidedLoss	True
24.962	0.31	Lose2	1.0	n/a	Yes	2.786	n/a	n/a	GoodResponse	0	n/a	n/a	0	1	Blank	AvoidedLoss	True
25.262	1.45	Lose2	1.0	n/a	Yes	2.786	n/a	5.0	GoodResponse	0	0.03	24.292	0	1	Feedback	AvoidedLoss	True
26.711	2.786	Lose2	1.0	n/a	Yes	2.786	n/a	n/a	GoodResponse	0	0.0	n/a	0	1	ISIslide	AvoidedLoss	True
29.511	0.25	Control	1.0	0.0	Yes	2.589	0.011	n/a	GoodResponse	0	n/a	n/a	0	2	Cue	Neutral	True
29.76	4.1	Control	1.0	0.001	Yes	2.589	-0.001	n/a	GoodResponse	0	n/a	n/a	0	2	Fixation	Neutral	True
33.859	0.38	Control	1.0	0.002	Yes	2.589	-0.002	4.0	GoodResponse	0	0.204	33.063	0	2	Target	Neutral	True
34.063	0.3	Control	1.0	0.002	Yes	2.589	-0.002	4.0	GoodResponse	0	0.204	n/a	0	2	ButtonPress	Neutral	True
34.242	0.32	Control	1.0	n/a	Yes	2.589	n/a	n/a	GoodResponse	0	n/a	n/a	0	2	Blank	Neutral	True
34.559	1.45	Control	1.0	n/a	Yes	2.589	n/a	5.0	GoodResponse	0	0.001	33.56	0	2	Feedback	Neutral	True
36.008	2.589	Control	1.0	n/a	Yes	2.589	n/a	n/a	GoodResponse	0	0.0	n/a	0	2	ISIslide	Neutral	True
38.624	0.25	Win2	1.0	0.0	Yes	2.826	0.024	n/a	GoodResponse	1	n/a	n/a	1	3	Cue	Win	True
38.874	3.95	Win2	1.0	0.0	Yes	2.826	0.0	n/a	GoodResponse	1	n/a	n/a	1	3	Fixation	Win	True
42.822	0.37	Win2	1.0	0.002	Yes	2.826	-0.002	4.0	GoodResponse	1	0.183	42.005	1	3	Target	Win	True
43.005	0.3	Win2	1.0	0.002	Yes	2.826	-0.002	4.0	GoodResponse	1	0.183	n/a	1	3	ButtonPress	Win	True
43.206	0.33	Win2	1.0	n/a	Yes	2.826	n/a	n/a	GoodResponse	1	n/a	n/a	1	3	Blank	Win	True
43.522	1.45	Win2	1.0	n/a	Yes	2.826	n/a	5.0	GoodResponse	1	0.014	42.536	1	3	Feedback	Win	True
44.972	2.826	Win2	1.0	n/a	Yes	2.826	n/a	n/a	GoodResponse	1	0.0	n/a	1	3	ISIslide	Win	True
47.821	0.25	Win2	1.0	0.0	Yes	3.279	0.021	n/a	GoodResponse	1	n/a	n/a	2	4	Cue	Win	True
48.071	4.0	Win2	1.0	0.0	Yes	3.279	0.0	n/a	GoodResponse	1	n/a	n/a	2	4	Fixation	Win	True
52.069	0.36	Win2	1.0	0.002	Yes	3.279	-0.002	4.0	GoodResponse	1	0.185	51.254	2	4	Target	Win	True
52.254	0.3	Win2	1.0	0.002	Yes	3.279	-0.002	4.0	GoodResponse	1	0.185	n/a	2	4	ButtonPress	Win	True
52.436	0.34	Win2	1.0	n/a	Yes	3.279	n/a	n/a	GoodResponse	1	n/a	n/a	2	4	Blank	Win	True
52.769	1.45	Win2	1.0	n/a	Yes	3.279	n/a	5.0	GoodResponse	1	0.035	51.804	2	4	Feedback	Win	True
54.218	3.279	Win2	1.0	n/a	Yes	3.279	n/a	n/a	GoodResponse	1	0.0	n/a	2	4	ISIslide	Win	True
57.517	0.25	Win2	1.0	0.0	Yes	2.783	0.017	n/a	GoodResponse	1	n/a	n/a	3	5	Cue	Win	True
57.767	4.0	Win2	1.0	0.0	Yes	2.783	0.0	n/a	GoodResponse	1	n/a	n/a	3	5	Fixation	Win	True
61.766	0.35	Win2	1.0	0.001	Yes	2.783	-0.001	4.0	GoodResponse	1	0.175	60.941	3	5	Target	Win	True
61.941	0.3	Win2	1.0	0.001	Yes	2.783	-0.001	4.0	GoodResponse	1	0.175	n/a	3	5	ButtonPress	Win	True
62.116	0.35	Win2	1.0	n/a	Yes	2.783	n/a	n/a	GoodResponse	1	n/a	n/a	3	5	Blank	Win	True
62.466	1.45	Win2	1.0	n/a	Yes	2.783	n/a	5.0	GoodResponse	1	0.045	61.511	3	5	Feedback	Win	True
63.915	2.783	Win2	1.0	n/a	Yes	2.783	n/a	n/a	GoodResponse	1	0.0	n/a	3	5	ISIslide	Win	True
66.714	0.25	Lose2	1.0	0.0	Yes	2.736	0.014	n/a	GoodResponse	0	n/a	n/a	3	6	Cue	AvoidedLoss	True
66.964	3.95	Lose2	1.0	0.0	Yes	2.736	0.0	n/a	GoodResponse	0	n/a	n/a	3	6	Fixation	AvoidedLoss	True
70.913	0.34	Lose2	1.0	0.001	Yes	2.736	-0.001	4.0	GoodResponse	0	0.222	70.135	3	6	Target	AvoidedLoss	True
71.135	0.3	Lose2	1.0	0.001	Yes	2.736	-0.001	4.0	GoodResponse	0	0.222	n/a	3	6	ButtonPress	AvoidedLoss	True
71.262	0.36	Lose2	1.0	n/a	Yes	2.736	n/a	n/a	GoodResponse	0	n/a	n/a	3	6	Blank	AvoidedLoss	True
71.612	1.45	Lose2	1.0	n/a	Yes	2.736	n/a	5.0	GoodResponse	0	0.021	70.633	3	6	Feedback	AvoidedLoss	True
73.062	2.736	Lose2	1.0	n/a	Yes	2.736	n/a	n/a	GoodResponse	0	0.0	n/a	3	6	ISIslide	AvoidedLoss	True
75.828	0.25	Lose2	1.0	0.0	Yes	4.022	0.028	n/a	GoodResponse	0	n/a	n/a	3	7	Cue	AvoidedLoss	True
76.077	4.05	Lose2	1.0	0.001	Yes	4.022	-0.001	n/a	GoodResponse	0	n/a	n/a	3	7	Fixation	AvoidedLoss	True
80.126	0.33	Lose2	1.0	0.002	Yes	4.022	-0.002	4.0	GoodResponse	0	0.2	79.326	3	7	Target	AvoidedLoss	True
80.326	0.3	Lose2	1.0	0.002	Yes	4.022	-0.002	4.0	GoodResponse	0	0.2	n/a	3	7	ButtonPress	AvoidedLoss	True
80.459	0.37	Lose2	1.0	n/a	Yes	4.022	n/a	n/a	GoodResponse	0	n/a	n/a	3	7	Blank	AvoidedLoss	True
80.826	1.45	Lose2	1.0	n/a	Yes	4.022	n/a	5.0	GoodResponse	0	0.026	79.852	3	7	Feedback	AvoidedLoss	True
82.275	4.022	Lose2	1.0	n/a	Yes	4.022	n/a	n/a	GoodResponse	0	0.0	n/a	3	7	ISIslide	AvoidedLoss	True
86.324	0.25	Lose2	1.0	0.0	Yes	3.026	0.024	n/a	GoodResponse	0	n/a	n/a	3	8	Cue	AvoidedLoss	True
86.574	3.95	Lose2	1.0	0.0	Yes	3.026	0.0	n/a	GoodResponse	0	n/a	n/a	3	8	Fixation	AvoidedLoss	True
90.522	0.32	Lose2	1.0	0.002	Yes	3.026	-0.002	4.0	GoodResponse	0	0.245	89.767	3	8	Target	AvoidedLoss	True
90.767	0.3	Lose2	1.0	0.002	Yes	3.026	-0.002	4.0	GoodResponse	0	0.245	n/a	3	8	ButtonPress	AvoidedLoss	True
90.856	0.38	Lose2	1.0	n/a	Yes	3.026	n/a	n/a	GoodResponse	0	n/a	n/a	3	8	Blank	AvoidedLoss	True
91.222	1.45	Lose2	1.0	n/a	Yes	3.026	n/a	5.0	GoodResponse	0	0.021	90.243	3	8	Feedback	AvoidedLoss	True
92.672	3.026	Lose2	1.0	n/a	Yes	3.026	n/a	n/a	GoodResponse	0	0.0	n/a	3	8	ISIslide	AvoidedLoss	True
95.721	0.25	Lose2	1.0	0.0	Yes	3.129	0.021	n/a	GoodResponse	0	n/a	n/a	3	9	Cue	AvoidedLoss	True
95.97	3.95	Lose2	1.0	0.001	Yes	3.129	-0.001	n/a	GoodResponse	0	n/a	n/a	3	9	Fixation	AvoidedLoss	True
99.919	0.31	Lose2	1.0	0.002	Yes	3.129	-0.002	4.0	GoodResponse	0	0.191	99.11	3	9	Target	AvoidedLoss	True
100.11	0.3	Lose2	1.0	0.002	Yes	3.129	-0.002	4.0	GoodResponse	0	0.191	n/a	3	9	ButtonPress	AvoidedLoss	True
100.236	0.39	Lose2	1.0	n/a	Yes	3.129	n/a	n/a	GoodResponse	0	n/a	n/a	3	9	Blank	AvoidedLoss	True
100.619	1.45	Lose2	1.0	n/a	Yes	3.129	n/a	5.0	GoodResponse	0	0.039	99.658	3	9	Feedback	AvoidedLoss	True
102.068	3.129	Lose2	1.0	n/a	Yes	3.129	n/a	n/a	GoodResponse	0	0.0	n/a	3	9	ISIslide	AvoidedLoss	True
105.217	0.25	Control	1.0	0.0	Yes	3.283	0.017	n/a	GoodResponse	0	n/a	n/a	3	10	Cue	Neutral	True
105.467	4.0	Control	1.0	0.0	Yes	3.283	0.0	n/a	GoodResponse	0	n/a	n/a	3	10	Fixation	Neutral	True
109.466	0.3	Control	1.0	0.001	Yes	3.283	-0.001	4.0	GoodResponse	0	0.185	108.651	3	10	Target	Neutral	True
109.651	0.3	Control	1.0	0.001	Yes	3.283	-0.001	4.0	GoodResponse	0	0.185	n/a	3	10	ButtonPress	Neutral	True
109.766	0.4	Control	1.0	n/a	Yes	3.283	n/a	n/a	GoodResponse	0	n/a	n/a	3	10	Blank	Neutral	True
110.165	1.45	Control	1.0	n/a	Yes	3.283	n/a	5.0	GoodResponse	0	0.004	109.169	3	10	Feedback	Neutral	True
111.615	3.283	Control	1.0	n/a	Yes	3.283	n/a	n/a	GoodResponse	0	0.0	n/a	3	10	ISIslide	Neutral	True
114.914	0.25	Lose2	1.0	0.0	Yes	2.736	0.014	n/a	GoodResponse	0	n/a	n/a	3	11	Cue	AvoidedLoss	True
115.164	4.05	Lose2	1.0	0.0	Yes	2.736	0.0	n/a	GoodResponse	0	n/a	n/a	3	11	Fixation	AvoidedLoss	True
119.212	0.29	Lose2	1.0	0.002	Yes	2.736	-0.002	4.0	GoodResponse	0	0.204	118.416	3	11	Target	AvoidedLoss	True
119.416	0.3	Lose2	1.0	0.002	Yes	2.736	-0.002	4.0	GoodResponse	0	0.204	n/a	3	11	ButtonPress	AvoidedLoss	True
119.512	0.41	Lose2	1.0	n/a	Yes	2.736	n/a	n/a	GoodResponse	0	n/a	n/a	3	11	Blank	AvoidedLoss	True
119.912	1.45	Lose2	1.0	n/a	Yes	2.736	n/a	5.0	GoodResponse	0	0.013	118.925	3	11	Feedback	AvoidedLoss	True
121.361	2.736	Lose2	1.0	n/a	Yes	2.736	n/a	n/a	GoodResponse	0	0.0	n/a	3	11	ISIslide	AvoidedLoss	True
124.111	0.25	Control	1.0	0.0	Yes	2.989	0.011	n/a	GoodResponse	0	n/a	n/a	3	12	Cue	Neutral	True
124.36	3.9	Control	1.0	0.001	Yes	2.989	-0.001	n/a	GoodResponse	0	n/a	n/a	3	12	Fixation	Neutral	True
128.259	0.28	Control	1.0	0.002	Yes	2.989	-0.002	4.0	GoodResponse	0	0.165	127.424	3	12	Target	Neutral	True
128.424	0.3	Control	1.0	0.002	Yes	2.989	-0.002	4.0	GoodResponse	0	0.165	n/a	3	12	ButtonPress	Neutral	True
128.542	0.42	Control	1.0	n/a	Yes	2.989	n/a	n/a	GoodResponse	0	n/a	n/a	3	12	Blank	Neutral	True
128.959	1.45	Control	1.0	n/a	Yes	2.989	n/a	5.0	GoodResponse	0	0.039	127.998	3	12	Feedback	Neutral	True
130.408	2.989	Control	1.0	n/a	Yes	2.989	n/a	n/a	GoodResponse	0	0.0	n/a	3	12	ISIslide	Neutral	True
133.424	0.25	Control	0.9286	0.0	No	2.776	0.024	n/a	NoResponse	0	n/a	n/a	3	13	Cue	Neutral	True
133.674	4.0	Control	0.9286	0.0	No	2.776	0.0	n/a	NoResponse	0	n/a	n/a	3	13	Fixation	Neutral	True
137.672	0.27	Control	0.9286	0.002	No	2.776	-0.002	4.0	NoResponse	0	0.343	137.015	3	13	Target	Neutral	True
137.956	0.43	Control	0.9286	n/a	No	2.776	n/a	n/a	NoResponse	0	n/a	n/a	3	13	Blank	Neutral	True
138.015	0.3	Control	0.9286	0.002	No	2.776	-0.002	4.0	NoResponse	0	0.343	n/a	3	13	ButtonPress	Neutral	True
138.372	1.45	Control	0.9286	n/a	No	2.776	n/a	5.0	NoResponse	0	0.041	137.413	3	13	Feedback	Neutral	True
139.822	2.776	Control	0.9286	n/a	No	2.776	n/a	n/a	NoResponse	0	0.0	n/a	3	13	ISIslide	Neutral	True
142.621	0.25	Win2	0.9333	0.0	Yes	2.679	0.021	n/a	GoodResponse	1	n/a	n/a	4	14	Cue	Win	True
142.871	4.1	Win2	0.9333	0.0	Yes	2.679	0.0	n/a	GoodResponse	1	n/a	n/a	4	14	Fixation	Win	True
146.969	0.26	Win2	0.9333	0.002	Yes	2.679	-0.002	4.0	GoodResponse	1	0.177	146.146	4	14	Target	Win	True
147.146	0.3	Win2	0.9333	0.002	Yes	2.679	-0.002	4.0	GoodResponse	1	0.177	n/a	4	14	ButtonPress	Win	True
147.236	0.44	Win2	0.9333	n/a	Yes	2.679	n/a	n/a	GoodResponse	1	n/a	n/a	4	14	Blank	Win	True
147.669	1.45	Win2	0.9333	n/a	Yes	2.679	n/a	5.0	GoodResponse	1	0.012	146.681	4	14	Feedback	Win	True
149.118	2.679	Win2	0.9333	n/a	Yes	2.679	n/a	n/a	GoodResponse	1	0.0	n/a	4	14	ISIslide	Win	True
151.817	0.25	Control	0.9375	0.0	Yes	2.983	0.017	n/a	GoodResponse	0	n/a	n/a	4	15	Cue	Neutral	True
152.067	4.0	Control	0.9375	0.0	Yes	2.983	0.0	n/a	GoodResponse	0	n/a	n/a	4	15	Fixation	Neutral	True
156.066	0.25	Control	0.9375	0.001	Yes	2.983	-0.001	4.0	GoodResponse	0	0.194	155.26	4	15	Target	Neutral	True
156.26	0.3	Control	0.9375	0.001	Yes	2.983	-0.001	4.0	GoodResponse	0	0.194	n/a	4	15	ButtonPress	Neutral	True
156.316	0.45	Control	0.9375	n/a	Yes	2.983	n/a	n/a	GoodResponse	0	n/a	n/a	4	15	Blank	Neutral	True
156.766	1.45	Control	0.9375	n/a	Yes	2.983	n/a	5.0	GoodResponse	0	0.037	155.803	4	15	Feedback	Neutral	True
158.215	2.983	Control	0.9375	n/a	Yes	2.983	n/a	n/a	GoodResponse	0	0.0	n/a	4	15	ISIslide	Neutral	True
161.214	0.25	Win2	0.9412	0.0	Yes	2.886	0.014	n/a	GoodResponse	1	n/a	n/a	5	16	Cue	Win	True
161.464	4.0	Win2	0.9412	0.0	Yes	2.886	0.0	n/a	GoodResponse	1	n/a	n/a	5	16	Fixation	Win	True
165.463	0.24	Win2	0.9412	0.001	Yes	2.886	-0.001	4.0	GoodResponse	1	0.168	164.631	5	16	Target	Win	True
165.631	0.3	Win2	0.9412	0.001	Yes	2.886	-0.001	4.0	GoodResponse	1	0.168	n/a	5	16	ButtonPress	Win	True
165.713	0.46	Win2	0.9412	n/a	Yes	2.886	n/a	n/a	GoodResponse	1	n/a	n/a	5	16	Blank	Win	True
166.162	1.45	Win2	0.9412	n/a	Yes	2.886	n/a	5.0	GoodResponse	1	0.007	165.169	5	16	Feedback	Win	True
167.612	2.886	Win2	0.9412	n/a	Yes	2.886	n/a	n/a	GoodResponse	1	0.0	n/a	5	16	ISIslide	Win	True
170.527	0.25	Lose2	0.9444	0.001	Yes	2.723	0.027	n/a	GoodResponse	0	n/a	n/a	5	17	Cue	AvoidedLoss	True
170.777	3.95	Lose2	0.9444	0.001	Yes	2.723	0.0	n/a	GoodResponse	0	n/a	n/a	5	17	Fixation	AvoidedLoss	True
174.726	0.23	Lose2	0.9444	0.001	Yes	2.723	-0.001	4.0	GoodResponse	0	0.204	173.93	5	17	Target	AvoidedLoss	True
174.93	0.3	Lose2	0.9444	0.001	Yes	2.723	-0.001	4.0	GoodResponse	0	0.204	n/a	5	17	ButtonPress	AvoidedLoss	True
174.959	0.47	Lose2	0.9444	n/a	Yes	2.723	n/a	n/a	GoodResponse	0	n/a	n/a	5	17	Blank	AvoidedLoss	True
175.426	1.45	Lose2	0.9444	n/a	Yes	2.723	n/a	5.0	GoodResponse	0	0.012	174.438	5	17	Feedback	AvoidedLoss	True
176.875	2.723	Lose2	0.9444	n/a	Yes	2.723	n/a	n/a	GoodResponse	0	0.0	n/a	5	17	ISIslide	AvoidedLoss	True
179.624	0.25	Lose2	0.9473999999999999	0.0	Yes	2.726	0.024	n/a	GoodResponse	0	n/a	n/a	5	18	Cue	AvoidedLoss	True
179.874	4.05	Lose2	0.9473999999999999	0.0	Yes	2.726	0.0	n/a	GoodResponse	0	n/a	n/a	5	18	Fixation	AvoidedLoss	True
183.923	0.22	Lose2	0.9473999999999999	0.001	Yes	2.726	-0.001	4.0	GoodResponse	0	0.176	183.099	5	18	Target	AvoidedLoss	True
184.099	0.3	Lose2	0.9473999999999999	0.001	Yes	2.726	-0.001	4.0	GoodResponse	0	0.176	n/a	5	18	ButtonPress	AvoidedLoss	True
184.139	0.48	Lose2	0.9473999999999999	n/a	Yes	2.726	n/a	n/a	GoodResponse	0	n/a	n/a	5	18	Blank	AvoidedLoss	True
184.623	1.45	Lose2	0.9473999999999999	n/a	Yes	2.726	n/a	5.0	GoodResponse	0	0.034	183.657	5	18	Feedback	AvoidedLoss	True
186.072	2.726	Lose2	0.9473999999999999	n/a	Yes	2.726	n/a	n/a	GoodResponse	0	0.0	n/a	5	18	ISIslide	AvoidedLoss	True
188.821	0.25	Control	0.95	0.0	Yes	2.929	0.021	n/a	GoodResponse	0	n/a	n/a	5	19	Cue	Neutral	True
189.071	3.95	Control	0.95	0.0	Yes	2.929	0.0	n/a	GoodResponse	0	n/a	n/a	5	19	Fixation	Neutral	True
193.02	0.21	Control	0.95	0.001	Yes	2.929	-0.001	4.0	GoodResponse	0	0.19	192.21	5	19	Target	Neutral	True
193.21	0.3	Control	0.95	0.001	Yes	2.929	-0.001	4.0	GoodResponse	0	0.19	n/a	5	19	ButtonPress	Neutral	True
193.236	0.49	Control	0.95	n/a	Yes	2.929	n/a	n/a	GoodResponse	0	n/a	n/a	5	19	Blank	Neutral	True
193.719	1.45	Control	0.95	n/a	Yes	2.929	n/a	5.0	GoodResponse	0	0.01	192.729	5	19	Feedback	Neutral	True
195.169	2.929	Control	0.95	n/a	Yes	2.929	n/a	n/a	GoodResponse	0	0.0	n/a	5	19	ISIslide	Neutral	True
198.118	0.25	Control	0.9048	0.0	No	2.632	0.018	n/a	NoResponse	0	n/a	n/a	5	20	Cue	Neutral	True
198.368	4.05	Control	0.9048	0.0	No	2.632	0.0	n/a	NoResponse	0	n/a	n/a	5	20	Fixation	Neutral	True
202.416	0.2	Control	0.9048	0.002	No	2.632	-0.002	4.0	NoResponse	0	0.241	201.657	5	20	Target	Neutral	True
202.616	0.5	Control	0.9048	n/a	No	2.632	n/a	n/a	NoResponse	0	n/a	n/a	5	20	Blank	Neutral	True
202.657	0.3	Control	0.9048	0.002	No	2.632	-0.002	4.0	NoResponse	0	0.241	n/a	5	20	ButtonPress	Neutral	True
203.116	1.45	Control	0.9048	n/a	No	2.632	n/a	5.0	NoResponse	0	0.028	202.144	5	20	Feedback	Neutral	True
204.565	2.632	Control	0.9048	n/a	No	2.632	n/a	n/a	NoResponse	0	0.0	n/a	5	20	ISIslide	Neutral	True
207.215	0.25	Control	0.9091	0.0	Yes	2.785	0.015	n/a	GoodResponse	0	n/a	n/a	5	21	Cue	Neutral	True
207.464	4.1	Control	0.9091	0.001	Yes	2.785	-0.001	n/a	GoodResponse	0	n/a	n/a	5	21	Fixation	Neutral	True
211.563	0.19	Control	0.9091	0.002	Yes	2.785	-0.002	4.0	GoodResponse	0	0.174	210.737	5	21	Target	Neutral	True
211.737	0.3	Control	0.9091	0.002	Yes	2.785	-0.002	4.0	GoodResponse	0	0.174	n/a	5	21	ButtonPress	Neutral	True
211.763	0.51	Control	0.9091	n/a	Yes	2.785	n/a	n/a	GoodResponse	0	n/a	n/a	5	21	Blank	Neutral	True
212.263	1.45	Control	0.9091	n/a	Yes	2.785	n/a	5.0	GoodResponse	0	0.005	211.268	5	21	Feedback	Neutral	True
213.712	2.785	Control	0.9091	n/a	Yes	2.785	n/a	n/a	GoodResponse	0	0.0	n/a	5	21	ISIslide	Neutral	True
216.511	0.25	Control	0.8695999999999999	0.0	No	2.789	0.011	n/a	NoResponse	0	n/a	n/a	5	22	Cue	Neutral	True
216.761	4.0	Control	0.8695999999999999	0.0	No	2.789	0.0	n/a	NoResponse	0	n/a	n/a	5	22	Fixation	Neutral	True
220.76	0.18	Control	0.8695999999999999	0.001	No	2.789	-0.001	4.0	NoResponse	0	0.194	219.954	5	22	Target	Neutral	True
220.943	0.52	Control	0.8695999999999999	n/a	No	2.789	n/a	n/a	NoResponse	0	n/a	n/a	5	22	Blank	Neutral	True
220.954	0.3	Control	0.8695999999999999	0.001	No	2.789	-0.001	4.0	NoResponse	0	0.194	n/a	5	22	ButtonPress	Neutral	True
221.46	1.45	Control	0.8695999999999999	n/a	No	2.789	n/a	5.0	NoResponse	0	0.025	220.485	5	22	Feedback	Neutral	True
222.909	2.789	Control	0.8695999999999999	n/a	No	2.789	n/a	n/a	NoResponse	0	0.0	n/a	5	22	ISIslide	Neutral	True
225.725	0.25	Control	0.8332999999999999	0.0	No	2.775	0.025	n/a	NoResponse	0	n/a	n/a	5	23	Cue	Neutral	True
225.975	3.9	Control	0.8332999999999999	0.0	No	2.775	0.0	n/a	NoResponse	0	n/a	n/a	5	23	Fixation	Neutral	True
229.873	0.17	Control	0.8332999999999999	0.002	No	2.775	-0.002	4.0	NoResponse	0	0.247	229.12	5	23	Target	Neutral	True
230.057	0.53	Control	0.8332999999999999	n/a	No	2.775	n/a	n/a	NoResponse	0	n/a	n/a	5	23	Blank	Neutral	True
230.12	0.3	Control	0.8332999999999999	0.002	No	2.775	-0.002	4.0	NoResponse	0	0.247	n/a	5	23	ButtonPress	Neutral	True
230.573	1.45	Control	0.8332999999999999	n/a	No	2.775	n/a	5.0	NoResponse	0	0.033	229.606	5	23	Feedback	Neutral	True
232.022	2.775	Control	0.8332999999999999	n/a	No	2.775	n/a	n/a	NoResponse	0	0.0	n/a	5	23	ISIslide	Neutral	True
234.822	0.25	Win2	0.8	0.0	No	3.128	0.022	n/a	NoResponse	0	n/a	n/a	5	24	Cue	MissedWin	True
235.071	3.95	Win2	0.8	0.001	No	3.128	-0.001	n/a	NoResponse	0	n/a	n/a	5	24	Fixation	MissedWin	True
239.02	0.16	Win2	0.8	0.002	No	3.128	-0.002	4.0	NoResponse	0	0.191	238.211	5	24	Target	MissedWin	True
239.187	0.54	Win2	0.8	n/a	No	3.128	n/a	n/a	NoResponse	0	n/a	n/a	5	24	Blank	MissedWin	True
239.211	0.3	Win2	0.8	0.002	No	3.128	-0.002	4.0	NoResponse	0	0.191	n/a	5	24	ButtonPress	MissedWin	True
239.72	1.45	Win2	0.8	n/a	No	3.128	n/a	5.0	NoResponse	0	0.009	238.729	5	24	Feedback	MissedWin	True
241.169	3.128	Win2	0.8	n/a	No	3.128	n/a	n/a	NoResponse	0	0.0	n/a	5	24	ISIslide	MissedWin	True
244.318	0.25	Win2	0.7692	0.0	No	3.082	0.018	n/a	NoResponse	0	n/a	n/a	5	25	Cue	MissedWin	True
244.568	4.0	Win2	0.7692	0.0	No	3.082	0.0	n/a	NoResponse	0	n/a	n/a	5	25	Fixation	MissedWin	True
248.567	0.15	Win2	0.7692	0.001	No	3.082	-0.001	4.0	NoResponse	0	0.187	247.754	5	25	Target	MissedWin	True
248.717	0.55	Win2	0.7692	n/a	No	3.082	n/a	n/a	NoResponse	0	n/a	n/a	5	25	Blank	MissedWin	True
248.754	0.3	Win2	0.7692	0.001	No	3.082	-0.001	4.0	NoResponse	0	0.187	n/a	5	25	ButtonPress	MissedWin	True
249.266	1.45	Win2	0.7692	n/a	No	3.082	n/a	5.0	NoResponse	0	0.024	248.29	5	25	Feedback	MissedWin	True
250.716	3.082	Win2	0.7692	n/a	No	3.082	n/a	n/a	NoResponse	0	0.0	n/a	5	25	ISIslide	MissedWin	True
253.815	0.25	Win2	0.7406999999999999	0.0	No	2.935	0.015	n/a	NoResponse	0	n/a	n/a	5	26	Cue	MissedWin	True
254.065	3.95	Win2	0.7406999999999999	0.0	No	2.935	0.0	n/a	NoResponse	0	n/a	n/a	5	26	Fixation	MissedWin	True
258.013	0.15	Win2	0.7406999999999999	0.002	No	2.935	-0.002	4.0	NoResponse	0	0.193	257.206	5	26	Target	MissedWin	True
258.163	0.55	Win2	0.7406999999999999	n/a	No	2.935	n/a	n/a	NoResponse	0	n/a	n/a	5	26	Blank	MissedWin	True
258.206	0.3	Win2	0.7406999999999999	0.002	No	2.935	-0.002	4.0	NoResponse	0	0.193	n/a	5	26	ButtonPress	MissedWin	True
258.713	1.45	Win2	0.7406999999999999	n/a	No	2.935	n/a	5.0	NoResponse	0	0.04	257.753	5	26	Feedback	MissedWin	True
260.163	2.935	Win2	0.7406999999999999	n/a	No	2.935	n/a	n/a	NoResponse	0	0.0	n/a	5	26	ISIslide	MissedWin	True
263.112	0.25	Lose2	0.7143	0.0	No	2.838	0.012	n/a	NoResponse	-1	n/a	n/a	4	27	Cue	Loss	True
263.361	4.05	Lose2	0.7143	0.001	No	2.838	-0.001	n/a	NoResponse	-1	n/a	n/a	4	27	Fixation	Loss	True
267.41	0.15	Lose2	0.7143	0.002	No	2.838	-0.002	4.0	NoResponse	-1	0.249	266.659	4	27	Target	Loss	True
267.56	0.55	Lose2	0.7143	n/a	No	2.838	n/a	n/a	NoResponse	-1	n/a	n/a	4	27	Blank	Loss	True
267.659	0.3	Lose2	0.7143	0.002	No	2.838	-0.002	4.0	NoResponse	-1	0.249	n/a	4	27	ButtonPress	Loss	True
268.11	1.45	Lose2	0.7143	n/a	No	2.838	n/a	5.0	NoResponse	-1	0.009	267.119	4	27	Feedback	Loss	True
269.559	2.838	Lose2	0.7143	n/a	No	2.838	n/a	n/a	NoResponse	-1	0.0	n/a	4	27	ISIslide	Loss	True
272.425	0.25	Control	0.6897	0.0	No	2.825	0.025	n/a	NoResponse	0	n/a	n/a	4	28	Cue	Neutral	True
272.675	4.05	Control	0.6897	0.0	No	2.825	0.0	n/a	NoResponse	0	n/a	n/a	4	28	Fixation	Neutral	True
276.723	0.15	Control	0.6897	0.002	No	2.825	-0.002	4.0	NoResponse	0	0.231	275.954	4	28	Target	Neutral	True
276.873	0.55	Control	0.6897	n/a	No	2.825	n/a	n/a	NoResponse	0	n/a	n/a	4	28	Blank	Neutral	True
276.954	0.3	Control	0.6897	0.002	No	2.825	-0.002	4.0	NoResponse	0	0.231	n/a	4	28	ButtonPress	Neutral	True
277.423	1.45	Control	0.6897	n/a	No	2.825	n/a	5.0	NoResponse	0	0.012	276.435	4	28	Feedback	Neutral	True
278.873	2.825	Control	0.6897	n/a	No	2.825	n/a	n/a	NoResponse	0	0.0	n/a	4	28	ISIslide	Neutral	True
281.722	0.25	Lose2	0.6667000000000001	0.0	No	2.828	0.022	n/a	NoResponse	-1	n/a	n/a	3	29	Cue	Loss	True
281.972	3.95	Lose2	0.6667000000000001	0.0	No	2.828	0.0	n/a	NoResponse	-1	n/a	n/a	3	29	Fixation	Loss	True
285.92	0.15	Lose2	0.6667000000000001	0.002	No	2.828	-0.002	4.0	NoResponse	-1	0.172	285.092	3	29	Target	Loss	True
286.07	0.55	Lose2	0.6667000000000001	n/a	No	2.828	n/a	n/a	NoResponse	-1	n/a	n/a	3	29	Blank	Loss	True
286.092	0.3	Lose2	0.6667000000000001	0.002	No	2.828	-0.002	4.0	NoResponse	-1	0.172	n/a	3	29	ButtonPress	Loss	True
286.62	1.45	Lose2	0.6667000000000001	n/a	No	2.828	n/a	5.0	NoResponse	-1	0.035	285.655	3	29	Feedback	Loss	True
288.069	2.828	Lose2	0.6667000000000001	n/a	No	2.828	n/a	n/a	NoResponse	-1	0.0	n/a	3	29	ISIslide	Loss	True
290.918	0.25	Win2	0.6452	0.0	No	2.782	0.018	n/a	NoResponse	0	n/a	n/a	3	30	Cue	MissedWin	True
291.168	3.9	Win2	0.6452	0.0	No	2.782	0.0	n/a	NoResponse	0	n/a	n/a	3	30	Fixation	MissedWin	True
295.067	0.15	Win2	0.6452	0.001	No	2.782	-0.001	4.0	NoResponse	0	0.19	294.257	3	30	Target	MissedWin	True
295.217	0.55	Win2	0.6452	n/a	No	2.782	n/a	n/a	NoResponse	0	n/a	n/a	3	30	Blank	MissedWin	True
295.257	0.3	Win2	0.6452	0.001	No	2.782	-0.001	4.0	NoResponse	0	0.19	n/a	3	30	ButtonPress	MissedWin	True
295.767	1.45	Win2	0.6452	n/a	No	2.782	n/a	5.0	NoResponse	0	0.01	294.777	3	30	Feedback	MissedWin	True
297.216	2.782	Win2	0.6452	n/a	No	2.782	n/a	n/a	NoResponse	0	0.0	n/a	3	30	ISIslide	MissedWin	True
300.015	0.25	Lose2	0.6562	0.0	Yes	2.835	0.015	n/a	GoodResponse	0	n/a	n/a	3	31	Cue	AvoidedLoss	True
300.265	4.05	Lose2	0.6562	0.0	Yes	2.835	0.0	n/a	GoodResponse	0	n/a	n/a	3	31	Fixation	AvoidedLoss	True
304.314	0.16	Lose2	0.6562	0.001	Yes	2.835	-0.001	4.0	GoodResponse	0	0.126	303.44	3	31	Target	AvoidedLoss	True
304.44	0.3	Lose2	0.6562	0.001	Yes	2.835	-0.001	4.0	GoodResponse	0	0.126	n/a	3	31	ButtonPress	AvoidedLoss	True
304.48	0.54	Lose2	0.6562	n/a	Yes	2.835	n/a	n/a	GoodResponse	0	n/a	n/a	3	31	Blank	AvoidedLoss	True
305.013	1.45	Lose2	0.6562	n/a	Yes	2.835	n/a	5.0	GoodResponse	0	0.032	304.045	3	31	Feedback	AvoidedLoss	True
306.463	2.835	Lose2	0.6562	n/a	Yes	2.835	n/a	n/a	GoodResponse	0	0.0	n/a	3	31	ISIslide	AvoidedLoss	True
309.329	0.25	Lose2	0.6364	0.0	No	2.621	0.029	n/a	NoResponse	-1	n/a	n/a	2	32	Cue	Loss	True
309.579	4.15	Lose2	0.6364	0.0	No	2.621	0.0	n/a	NoResponse	-1	n/a	n/a	2	32	Fixation	Loss	True
313.727	0.16	Lose2	0.6364	0.002	No	2.621	-0.002	4.0	NoResponse	-1	0.199	312.926	2	32	Target	Loss	True
313.894	0.54	Lose2	0.6364	n/a	No	2.621	n/a	n/a	NoResponse	-1	n/a	n/a	2	32	Blank	Loss	True
313.926	0.3	Lose2	0.6364	0.002	No	2.621	-0.002	4.0	NoResponse	-1	0.199	n/a	2	32	ButtonPress	Loss	True
314.427	1.45	Lose2	0.6364	n/a	No	2.621	n/a	5.0	NoResponse	-1	0.033	313.46	2	32	Feedback	Loss	True
315.876	2.621	Lose2	0.6364	n/a	No	2.621	n/a	n/a	NoResponse	-1	0.0	n/a	2	32	ISIslide	Loss	True
318.525	0.25	Win2	0.6175999999999999	0.0	No	2.675	0.025	n/a	NoResponse	0	n/a	n/a	2	33	Cue	MissedWin	True
318.775	4.0	Win2	0.6175999999999999	0.0	No	2.675	0.0	n/a	NoResponse	0	n/a	n/a	2	33	Fixation	MissedWin	True
322.774	0.17	Win2	0.6175999999999999	0.001	No	2.675	-0.001	4.0	NoResponse	0	0.192	321.966	2	33	Target	MissedWin	True
322.94	0.53	Win2	0.6175999999999999	n/a	No	2.675	n/a	n/a	NoResponse	0	n/a	n/a	2	33	Blank	MissedWin	True
322.966	0.3	Win2	0.6175999999999999	0.001	No	2.675	-0.001	4.0	NoResponse	0	0.192	n/a	2	33	ButtonPress	MissedWin	True
323.474	1.45	Win2	0.6175999999999999	n/a	No	2.675	n/a	5.0	NoResponse	0	0.01	322.484	2	33	Feedback	MissedWin	True
324.923	2.675	Win2	0.6175999999999999	n/a	No	2.675	n/a	n/a	NoResponse	0	0.0	n/a	2	33	ISIslide	MissedWin	True
327.622	0.25	Lose2	0.6	0.0	No	2.628	0.022	n/a	NoResponse	-1	n/a	n/a	1	34	Cue	Loss	True
327.872	4.05	Lose2	0.6	0.0	No	2.628	0.0	n/a	NoResponse	-1	n/a	n/a	1	34	Fixation	Loss	True
331.921	0.18	Lose2	0.6	0.001	No	2.628	-0.001	4.0	NoResponse	-1	0.227	331.148	1	34	Target	Loss	True
332.104	0.52	Lose2	0.6	n/a	No	2.628	n/a	n/a	NoResponse	-1	n/a	n/a	1	34	Blank	Loss	True
332.148	0.3	Lose2	0.6	0.001	No	2.628	-0.001	4.0	NoResponse	-1	0.227	n/a	1	34	ButtonPress	Loss	True
332.62	1.45	Lose2	0.6	n/a	No	2.628	n/a	5.0	NoResponse	-1	0.044	331.664	1	34	Feedback	Loss	True
334.07	2.628	Lose2	0.6	n/a	No	2.628	n/a	n/a	NoResponse	-1	0.0	n/a	1	34	ISIslide	Loss	True
336.719	0.25	Lose2	0.5832999999999999	0.0	No	2.681	0.019	n/a	LatePress	-1	n/a	n/a	0	35	Cue	Loss	True
336.969	4.0	Lose2	0.5832999999999999	0.0	No	2.681	0.0	n/a	LatePress	-1	n/a	n/a	0	35	Fixation	Loss	True
340.967	0.19	Lose2	0.5832999999999999	0.002	No	2.681	-0.002	4.0	LatePress	-1	0.193	340.16	0	35	Target	Loss	True
341.16	0.3	Lose2	0.5832999999999999	0.002	No	2.681	-0.002	4.0	LatePress	-1	0.193	n/a	0	35	ButtonPress	Loss	True
341.167	0.51	Lose2	0.5832999999999999	n/a	No	2.681	n/a	n/a	LatePress	-1	n/a	n/a	0	35	Blank	Loss	True
341.667	1.45	Lose2	0.5832999999999999	n/a	No	2.681	n/a	5.0	LatePress	-1	0.012	340.679	0	35	Feedback	Loss	True
343.117	2.681	Lose2	0.5832999999999999	n/a	No	2.681	n/a	n/a	LatePress	-1	0.0	n/a	0	35	ISIslide	Loss	True
345.816	0.25	Control	0.5946	0.0	Yes	2.684	0.016	n/a	GoodResponse	0	n/a	n/a	0	36	Cue	Neutral	True
346.066	4.0	Control	0.5946	0.0	Yes	2.684	0.0	n/a	GoodResponse	0	n/a	n/a	0	36	Fixation	Neutral	True
350.064	0.2	Control	0.5946	0.002	Yes	2.684	-0.002	4.0	GoodResponse	0	0.159	349.223	0	36	Target	Neutral	True
350.223	0.3	Control	0.5946	0.002	Yes	2.684	-0.002	4.0	GoodResponse	0	0.159	n/a	0	36	ButtonPress	Neutral	True
350.264	0.5	Control	0.5946	n/a	Yes	2.684	n/a	n/a	GoodResponse	0	n/a	n/a	0	36	Blank	Neutral	True
350.764	1.45	Control	0.5946	n/a	Yes	2.684	n/a	5.0	GoodResponse	0	0.037	349.801	0	36	Feedback	Neutral	True
352.213	2.684	Control	0.5946	n/a	Yes	2.684	n/a	n/a	GoodResponse	0	0.0	n/a	0	36	ISIslide	Neutral	True
354.913	0.25	Win2	0.6053000000000001	0.0	Yes	2.887	0.013	n/a	GoodResponse	1	n/a	n/a	1	37	Cue	Win	True
355.162	4.0	Win2	0.6053000000000001	0.001	Yes	2.887	-0.001	n/a	GoodResponse	1	n/a	n/a	1	37	Fixation	Win	True
359.161	0.21	Win2	0.6053000000000001	0.002	Yes	2.887	-0.002	4.0	GoodResponse	1	0.173	358.334	1	37	Target	Win	True
359.334	0.3	Win2	0.6053000000000001	0.002	Yes	2.887	-0.002	4.0	GoodResponse	1	0.173	n/a	1	37	ButtonPress	Win	True
359.378	0.49	Win2	0.6053000000000001	n/a	Yes	2.887	n/a	n/a	GoodResponse	1	n/a	n/a	1	37	Blank	Win	True
359.861	1.45	Win2	0.6053000000000001	n/a	Yes	2.887	n/a	5.0	GoodResponse	1	0.012	358.873	1	37	Feedback	Win	True
361.31	2.887	Win2	0.6053000000000001	n/a	Yes	2.887	n/a	n/a	GoodResponse	1	0.0	n/a	1	37	ISIslide	Win	True
364.243	0.25	Lose2	0.6154	0.0	Yes	2.807	0.043	n/a	GoodResponse	0	n/a	n/a	1	38	Cue	AvoidedLoss	True
364.492	3.95	Lose2	0.6154	0.001	Yes	2.807	-0.001	n/a	GoodResponse	0	n/a	n/a	1	38	Fixation	AvoidedLoss	True
368.441	0.22	Lose2	0.6154	0.002	Yes	2.807	-0.002	4.0	GoodResponse	0	0.191	367.632	1	38	Target	AvoidedLoss	True
368.632	0.3	Lose2	0.6154	0.002	Yes	2.807	-0.002	4.0	GoodResponse	0	0.191	n/a	1	38	ButtonPress	AvoidedLoss	True
368.674	0.48	Lose2	0.6154	n/a	Yes	2.807	n/a	n/a	GoodResponse	0	n/a	n/a	1	38	Blank	AvoidedLoss	True
369.141	1.45	Lose2	0.6154	n/a	Yes	2.807	n/a	5.0	GoodResponse	0	0.001	368.142	1	38	Feedback	AvoidedLoss	True
370.59	2.807	Lose2	0.6154	n/a	Yes	2.807	n/a	n/a	GoodResponse	0	0.0	n/a	1	38	ISIslide	AvoidedLoss	True
373.423	0.25	Win2	0.625	0.0	Yes	2.977	0.023	n/a	GoodResponse	1	n/a	n/a	2	39	Cue	Win	True
373.673	4.1	Win2	0.625	0.0	Yes	2.977	0.0	n/a	GoodResponse	1	n/a	n/a	2	39	Fixation	Win	True
377.771	0.23	Win2	0.625	0.002	Yes	2.977	-0.002	4.0	GoodResponse	1	0.212	376.983	2	39	Target	Win	True
377.983	0.3	Win2	0.625	0.002	Yes	2.977	-0.002	4.0	GoodResponse	1	0.212	n/a	2	39	ButtonPress	Win	True
378.004	0.47	Win2	0.625	n/a	Yes	2.977	n/a	n/a	GoodResponse	1	n/a	n/a	2	39	Blank	Win	True
378.471	1.45	Win2	0.625	n/a	Yes	2.977	n/a	5.0	GoodResponse	1	0.037	377.508	2	39	Feedback	Win	True
379.92	2.977	Win2	0.625	n/a	Yes	2.977	n/a	n/a	GoodResponse	1	0.0	n/a	2	39	ISIslide	Win	True
382.919	0.25	Win2	0.6341	0.0	Yes	2.731	0.019	n/a	GoodResponse	1	n/a	n/a	3	40	Cue	Win	True
383.169	3.95	Win2	0.6341	0.0	Yes	2.731	0.0	n/a	GoodResponse	1	n/a	n/a	3	40	Fixation	Win	True
387.118	0.24	Win2	0.6341	0.002	Yes	2.731	-0.001	4.0	GoodResponse	1	0.161	386.279	3	40	Target	Win	True
387.279	0.3	Win2	0.6341	0.002	Yes	2.731	-0.001	4.0	GoodResponse	1	0.161	n/a	3	40	ButtonPress	Win	True
387.368	0.46	Win2	0.6341	n/a	Yes	2.731	n/a	n/a	GoodResponse	1	n/a	n/a	3	40	Blank	Win	True
387.818	1.45	Win2	0.6341	n/a	Yes	2.731	n/a	5.0	GoodResponse	1	0.007	386.825	3	40	Feedback	Win	True
389.267	2.731	Win2	0.6341	n/a	Yes	2.731	n/a	n/a	GoodResponse	1	0.0	n/a	3	40	ISIslide	Win	True
392.016	0.25	Win2	0.6429	0.0	Yes	2.784	0.016	n/a	GoodResponse	1	n/a	n/a	4	41	Cue	Win	True
392.266	3.9	Win2	0.6429	0.0	Yes	2.784	0.0	n/a	GoodResponse	1	n/a	n/a	4	41	Fixation	Win	True
396.165	0.25	Win2	0.6429	0.001	Yes	2.784	-0.001	4.0	GoodResponse	1	0.188	395.353	4	41	Target	Win	True
396.353	0.3	Win2	0.6429	0.001	Yes	2.784	-0.001	4.0	GoodResponse	1	0.188	n/a	4	41	ButtonPress	Win	True
396.415	0.45	Win2	0.6429	n/a	Yes	2.784	n/a	n/a	GoodResponse	1	n/a	n/a	4	41	Blank	Win	True
396.864	1.45	Win2	0.6429	n/a	Yes	2.784	n/a	5.0	GoodResponse	1	0.034	395.898	4	41	Feedback	Win	True
398.314	2.784	Win2	0.6429	n/a	Yes	2.784	n/a	n/a	GoodResponse	1	0.0	n/a	4	41	ISIslide	Win	True
401.113	0.25	Control	0.6512	0.0	Yes	2.937	0.013	n/a	GoodResponse	0	n/a	n/a	4	42	Cue	Neutral	True
401.363	3.85	Control	0.6512	0.0	Yes	2.937	0.0	n/a	GoodResponse	0	n/a	n/a	4	42	Fixation	Neutral	True
405.211	0.26	Control	0.6512	0.002	Yes	2.937	-0.002	4.0	GoodResponse	0	0.186	404.397	4	42	Target	Neutral	True
405.397	0.3	Control	0.6512	0.002	Yes	2.937	-0.002	4.0	GoodResponse	0	0.186	n/a	4	42	ButtonPress	Neutral	True
405.478	0.44	Control	0.6512	n/a	Yes	2.937	n/a	n/a	GoodResponse	0	n/a	n/a	4	42	Blank	Neutral	True
405.911	1.45	Control	0.6512	n/a	Yes	2.937	n/a	5.0	GoodResponse	0	0.011	404.922	4	42	Feedback	Neutral	True
407.361	2.937	Control	0.6512	n/a	Yes	2.937	n/a	n/a	GoodResponse	0	0.0	n/a	4	42	ISIslide	Neutral	True
410.326	0.25	Win2	0.6591	0.0	Yes	3.174	0.026	n/a	GoodResponse	1	n/a	n/a	5	43	Cue	Win	True
410.576	4.0	Win2	0.6591	0.0	Yes	3.174	0.0	n/a	GoodResponse	1	n/a	n/a	5	43	Fixation	Win	True
414.592	0.27	Win2	0.6591	0.0	Yes	3.174	0.016	4.0	GoodResponse	1	0.197	413.789	5	43	Target	Win	True
414.789	0.3	Win2	0.6591	0.0	Yes	3.174	0.016	4.0	GoodResponse	1	0.197	n/a	5	43	ButtonPress	Win	True
414.841	0.43	Win2	0.6591	n/a	Yes	3.174	n/a	n/a	GoodResponse	1	n/a	n/a	5	43	Blank	Win	True
415.275	1.45	Win2	0.6591	n/a	Yes	3.174	n/a	5.0	GoodResponse	1	0.013	414.288	5	43	Feedback	Win	True
416.724	3.174	Win2	0.6591	n/a	Yes	3.174	n/a	n/a	GoodResponse	1	0.0	n/a	5	43	ISIslide	Win	True
419.923	0.25	Win2	0.6667000000000001	0.0	Yes	2.977	0.023	n/a	GoodResponse	1	n/a	n/a	6	44	Cue	Win	True
420.173	4.0	Win2	0.6667000000000001	0.0	Yes	2.977	0.0	n/a	GoodResponse	1	n/a	n/a	6	44	Fixation	Win	True
424.171	0.27	Win2	0.6667000000000001	0.002	Yes	2.977	-0.002	4.0	GoodResponse	1	0.172	423.343	6	44	Target	Win	True
424.343	0.3	Win2	0.6667000000000001	0.002	Yes	2.977	-0.002	4.0	GoodResponse	1	0.172	n/a	6	44	ButtonPress	Win	True
424.455	0.43	Win2	0.6667000000000001	n/a	Yes	2.977	n/a	n/a	GoodResponse	1	n/a	n/a	6	44	Blank	Win	True
424.871	1.45	Win2	0.6667000000000001	n/a	Yes	2.977	n/a	5.0	GoodResponse	1	0.027	423.898	6	44	Feedback	Win	True
426.321	2.977	Win2	0.6667000000000001	n/a	Yes	2.977	n/a	n/a	GoodResponse	1	0.0	n/a	6	44	ISIslide	Win	True
429.32	0.25	Control	0.6739	0.0	Yes	2.88	0.02	n/a	GoodResponse	0	n/a	n/a	6	45	Cue	Neutral	True
429.57	4.1	Control	0.6739	0.0	Yes	2.88	0.0	n/a	GoodResponse	0	n/a	n/a	6	45	Fixation	Neutral	True
433.668	0.26	Control	0.6739	0.002	Yes	2.88	-0.002	4.0	GoodResponse	0	0.188	432.856	6	45	Target	Neutral	True
433.856	0.3	Control	0.6739	0.002	Yes	2.88	-0.002	4.0	GoodResponse	0	0.188	n/a	6	45	ButtonPress	Neutral	True
433.935	0.44	Control	0.6739	n/a	Yes	2.88	n/a	n/a	GoodResponse	0	n/a	n/a	6	45	Blank	Neutral	True
434.368	1.45	Control	0.6739	n/a	Yes	2.88	n/a	5.0	GoodResponse	0	0.042	433.41	6	45	Feedback	Neutral	True
435.817	2.88	Control	0.6739	n/a	Yes	2.88	n/a	n/a	GoodResponse	0	0.0	n/a	6	45	ISIslide	Neutral	True
438.716	0.25	Lose2	0.6809000000000001	0.0	Yes	3.384	0.016	n/a	GoodResponse	0	n/a	n/a	6	46	Cue	AvoidedLoss	True
438.966	4.0	Lose2	0.6809000000000001	0.0	Yes	3.384	0.0	n/a	GoodResponse	0	n/a	n/a	6	46	Fixation	AvoidedLoss	True
442.965	0.25	Lose2	0.6809000000000001	0.001	Yes	3.384	-0.001	4.0	GoodResponse	0	0.197	442.162	6	46	Target	AvoidedLoss	True
443.162	0.3	Lose2	0.6809000000000001	0.001	Yes	3.384	-0.001	4.0	GoodResponse	0	0.197	n/a	6	46	ButtonPress	AvoidedLoss	True
443.215	0.45	Lose2	0.6809000000000001	n/a	Yes	3.384	n/a	n/a	GoodResponse	0	n/a	n/a	6	46	Blank	AvoidedLoss	True
443.665	1.45	Lose2	0.6809000000000001	n/a	Yes	3.384	n/a	5.0	GoodResponse	0	0.013	442.678	6	46	Feedback	AvoidedLoss	True
445.114	3.384	Lose2	0.6809000000000001	n/a	Yes	3.384	n/a	n/a	GoodResponse	0	0.0	n/a	6	46	ISIslide	AvoidedLoss	True
448.513	0.25	Lose2	0.6875	0.0	Yes	2.687	0.013	n/a	GoodResponse	0	n/a	n/a	6	47	Cue	AvoidedLoss	True
448.763	4.0	Lose2	0.6875	0.0	Yes	2.687	0.0	n/a	GoodResponse	0	n/a	n/a	6	47	Fixation	AvoidedLoss	True
452.761	0.24	Lose2	0.6875	0.002	Yes	2.687	-0.002	4.0	GoodResponse	0	0.187	451.948	6	47	Target	AvoidedLoss	True
452.948	0.3	Lose2	0.6875	0.002	Yes	2.687	-0.002	4.0	GoodResponse	0	0.187	n/a	6	47	ButtonPress	AvoidedLoss	True
453.011	0.46	Lose2	0.6875	n/a	Yes	2.687	n/a	n/a	GoodResponse	0	n/a	n/a	6	47	Blank	AvoidedLoss	True
453.461	1.45	Lose2	0.6875	n/a	Yes	2.687	n/a	5.0	GoodResponse	0	0.021	452.482	6	47	Feedback	AvoidedLoss	True
454.911	2.687	Lose2	0.6875	n/a	Yes	2.687	n/a	n/a	GoodResponse	0	0.0	n/a	6	47	ISIslide	AvoidedLoss	True
457.626	0.25	Lose2	0.6939	0.0	Yes	3.024	0.026	n/a	GoodResponse	0	n/a	n/a	6	48	Cue	AvoidedLoss	True
457.876	3.95	Lose2	0.6939	0.0	Yes	3.024	0.0	n/a	GoodResponse	0	n/a	n/a	6	48	Fixation	AvoidedLoss	True
461.825	0.23	Lose2	0.6939	0.001	Yes	3.024	-0.001	4.0	GoodResponse	0	0.191	461.016	6	48	Target	AvoidedLoss	True
462.016	0.3	Lose2	0.6939	0.001	Yes	3.024	-0.001	4.0	GoodResponse	0	0.191	n/a	6	48	ButtonPress	AvoidedLoss	True
462.058	0.47	Lose2	0.6939	n/a	Yes	3.024	n/a	n/a	GoodResponse	0	n/a	n/a	6	48	Blank	AvoidedLoss	True
462.525	1.45	Lose2	0.6939	n/a	Yes	3.024	n/a	5.0	GoodResponse	0	0.031	461.556	6	48	Feedback	AvoidedLoss	True
463.974	3.024	Lose2	0.6939	n/a	Yes	3.024	n/a	n/a	GoodResponse	0	0.0	n/a	6	48	ISIslide	AvoidedLoss	True
467.023	0.25	Control	0.7	0.0	Yes	2.877	0.023	n/a	GoodResponse	0	n/a	n/a	6	49	Cue	Neutral	True
467.273	4.0	Control	0.7	0.0	Yes	2.877	0.0	n/a	GoodResponse	0	n/a	n/a	6	49	Fixation	Neutral	True
471.272	0.22	Control	0.7	0.001	Yes	2.877	-0.001	4.0	GoodResponse	0	0.189	470.461	6	49	Target	Neutral	True
471.461	0.3	Control	0.7	0.001	Yes	2.877	-0.001	4.0	GoodResponse	0	0.189	n/a	6	49	ButtonPress	Neutral	True
471.505	0.48	Control	0.7	n/a	Yes	2.877	n/a	n/a	GoodResponse	0	n/a	n/a	6	49	Blank	Neutral	True
471.971	1.45	Control	0.7	n/a	Yes	2.877	n/a	5.0	GoodResponse	0	0.048	471.019	6	49	Feedback	Neutral	True
473.421	2.877	Control	0.7	n/a	Yes	2.877	n/a	n/a	GoodResponse	0	0.0	n/a	6	49	ISIslide	Neutral	True
476.32	0.25	Control	0.6862999999999999	0.0	No	2.78	0.02	n/a	PrematurePress	0	n/a	n/a	6	50	Cue	Neutral	True
476.57	4.0	Control	0.6862999999999999	0.0	No	2.78	0.0	n/a	PrematurePress	0	n/a	n/a	6	50	Fixation	Neutral	True
480.568	0.21	Control	0.6862999999999999	0.002	No	2.78	-0.002	4.0	PrematurePress	0	0.062	479.63	6	50	Target	Neutral	True
480.63	0.3	Control	0.6862999999999999	0.002	No	2.78	-0.002	4.0	PrematurePress	0	0.062	n/a	6	50	ButtonPress	Neutral	True
480.785	0.49	Control	0.6862999999999999	n/a	No	2.78	n/a	n/a	PrematurePress	0	n/a	n/a	6	50	Blank	Neutral	True
481.268	1.45	Control	0.6862999999999999	n/a	No	2.78	n/a	5.0	PrematurePress	0	0.02	480.288	6	50	Feedback	Neutral	True
482.718	2.78	Control	0.6862999999999999	n/a	No	2.78	n/a	n/a	PrematurePress	0	0.0	n/a	6	50	ISIslide	Neutral	True
485.517	0.25	Control	0.6923	0.0	Yes	2.733	0.017	n/a	GoodResponse	0	n/a	n/a	6	51	Cue	Neutral	True
485.766	3.95	Control	0.6923	0.001	Yes	2.733	-0.001	n/a	GoodResponse	0	n/a	n/a	6	51	Fixation	Neutral	True
489.715	0.2	Control	0.6923	0.002	Yes	2.733	-0.002	4.0	GoodResponse	0	0.174	488.889	6	51	Target	Neutral	True
489.889	0.3	Control	0.6923	0.002	Yes	2.733	-0.002	4.0	GoodResponse	0	0.174	n/a	6	51	ButtonPress	Neutral	True
489.915	0.5	Control	0.6923	n/a	Yes	2.733	n/a	n/a	GoodResponse	0	n/a	n/a	6	51	Blank	Neutral	True
490.415	1.45	Control	0.6923	n/a	Yes	2.733	n/a	5.0	GoodResponse	0	0.042	489.457	6	51	Feedback	Neutral	True
491.864	2.733	Control	0.6923	n/a	Yes	2.733	n/a	n/a	GoodResponse	0	0.0	n/a	6	51	ISIslide	Neutral	True
494.613	0.25	Control	0.6792	0.0	No	2.637	0.013	n/a	NoResponse	0	n/a	n/a	6	52	Cue	Neutral	True
494.863	4.05	Control	0.6792	0.0	No	2.637	0.0	n/a	NoResponse	0	n/a	n/a	6	52	Fixation	Neutral	True
498.912	0.19	Control	0.6792	0.001	No	2.637	-0.001	4.0	NoResponse	0	0.241	498.153	6	52	Target	Neutral	True
499.112	0.51	Control	0.6792	n/a	No	2.637	n/a	n/a	NoResponse	0	n/a	n/a	6	52	Blank	Neutral	True
499.153	0.3	Control	0.6792	0.001	No	2.637	-0.001	4.0	NoResponse	0	0.241	n/a	6	52	ButtonPress	Neutral	True
499.612	1.45	Control	0.6792	n/a	No	2.637	n/a	5.0	NoResponse	0	0.016	498.628	6	52	Feedback	Neutral	True
501.061	2.637	Control	0.6792	n/a	No	2.637	n/a	n/a	NoResponse	0	0.0	n/a	6	52	ISIslide	Neutral	True
503.727	0.25	Win2	0.6667000000000001	0.0	No	2.923	0.027	n/a	NoResponse	0	n/a	n/a	6	53	Cue	MissedWin	True
503.977	4.05	Win2	0.6667000000000001	0.0	No	2.923	0.0	n/a	NoResponse	0	n/a	n/a	6	53	Fixation	MissedWin	True
508.025	0.18	Win2	0.6667000000000001	0.002	No	2.923	-0.002	4.0	NoResponse	0	0.201	507.226	6	53	Target	MissedWin	True
508.209	0.52	Win2	0.6667000000000001	n/a	No	2.923	n/a	n/a	NoResponse	0	n/a	n/a	6	53	Blank	MissedWin	True
508.226	0.3	Win2	0.6667000000000001	0.002	No	2.923	-0.002	4.0	NoResponse	0	0.201	n/a	6	53	ButtonPress	MissedWin	True
508.725	1.45	Win2	0.6667000000000001	n/a	No	2.923	n/a	5.0	NoResponse	0	0.025	507.75	6	53	Feedback	MissedWin	True
510.175	2.923	Win2	0.6667000000000001	n/a	No	2.923	n/a	n/a	NoResponse	0	0.0	n/a	6	53	ISIslide	MissedWin	True
513.123	0.25	Win2	0.6545000000000001	0.001	No	2.727	0.023	n/a	NoResponse	0	n/a	n/a	6	54	Cue	MissedWin	True
513.373	3.95	Win2	0.6545000000000001	0.0	No	2.727	0.0	n/a	NoResponse	0	n/a	n/a	6	54	Fixation	MissedWin	True
517.322	0.17	Win2	0.6545000000000001	0.001	No	2.727	-0.001	4.0	NoResponse	0	0.205	516.527	6	54	Target	MissedWin	True
517.489	0.53	Win2	0.6545000000000001	n/a	No	2.727	n/a	n/a	NoResponse	0	n/a	n/a	6	54	Blank	MissedWin	True
517.527	0.3	Win2	0.6545000000000001	0.001	No	2.727	-0.001	4.0	NoResponse	0	0.205	n/a	6	54	ButtonPress	MissedWin	True
518.022	1.45	Win2	0.6545000000000001	n/a	No	2.727	n/a	5.0	NoResponse	0	0.046	517.068	6	54	Feedback	MissedWin	True
519.471	2.727	Win2	0.6545000000000001	n/a	No	2.727	n/a	n/a	NoResponse	0	0.0	n/a	6	54	ISIslide	MissedWin	True
522.22	0.25	Control	0.6607	0.0	Yes	3.03	0.02	n/a	GoodResponse	0	n/a	n/a	6	55	Cue	Neutral	True
522.47	3.95	Control	0.6607	0.0	Yes	3.03	0.0	n/a	GoodResponse	0	n/a	n/a	6	55	Fixation	Neutral	True
526.419	0.18	Control	0.6607	0.001	Yes	3.03	-0.001	4.0	GoodResponse	0	0.158	525.577	6	55	Target	Neutral	True
526.577	0.3	Control	0.6607	0.001	Yes	3.03	-0.001	4.0	GoodResponse	0	0.158	n/a	6	55	ButtonPress	Neutral	True
526.602	0.52	Control	0.6607	n/a	Yes	3.03	n/a	n/a	GoodResponse	0	n/a	n/a	6	55	Blank	Neutral	True
527.119	1.45	Control	0.6607	n/a	Yes	3.03	n/a	5.0	GoodResponse	0	0.022	526.141	6	55	Feedback	Neutral	True
528.568	3.03	Control	0.6607	n/a	Yes	3.03	n/a	n/a	GoodResponse	0	0.0	n/a	6	55	ISIslide	Neutral	True
531.617	0.25	Control	0.6667000000000001	0.0	Yes	2.833	0.017	n/a	GoodResponse	0	n/a	n/a	6	56	Cue	Neutral	True
531.867	3.95	Control	0.6667000000000001	0.0	Yes	2.833	0.0	n/a	GoodResponse	0	n/a	n/a	6	56	Fixation	Neutral	True
535.815	0.18	Control	0.6667000000000001	0.002	Yes	2.833	-0.002	4.0	GoodResponse	0	0.178	534.993	6	56	Target	Neutral	True
535.993	0.3	Control	0.6667000000000001	0.002	Yes	2.833	-0.002	4.0	GoodResponse	0	0.178	n/a	6	56	ButtonPress	Neutral	True
535.999	0.52	Control	0.6667000000000001	n/a	Yes	2.833	n/a	n/a	GoodResponse	0	n/a	n/a	6	56	Blank	Neutral	True
536.515	1.45	Control	0.6667000000000001	n/a	Yes	2.833	n/a	5.0	GoodResponse	0	0.04	535.555	6	56	Feedback	Neutral	True
537.965	2.833	Control	0.6667000000000001	n/a	Yes	2.833	n/a	n/a	GoodResponse	0	0.0	n/a	6	56	ISIslide	Neutral	True
540.814	0.25	Control	0.6552	0.0	No	3.486	0.014	n/a	NoResponse	0	n/a	n/a	6	57	Cue	Neutral	True
541.064	4.0	Control	0.6552	0.0	No	3.486	0.0	n/a	NoResponse	0	n/a	n/a	6	57	Fixation	Neutral	True
545.062	0.17	Control	0.6552	0.002	No	3.486	-0.002	4.0	NoResponse	0	0.189	544.251	6	57	Target	Neutral	True
545.245	0.53	Control	0.6552	n/a	No	3.486	n/a	n/a	NoResponse	0	n/a	n/a	6	57	Blank	Neutral	True
545.251	0.3	Control	0.6552	0.002	No	3.486	-0.002	4.0	NoResponse	0	0.189	n/a	6	57	ButtonPress	Neutral	True
545.762	1.45	Control	0.6552	n/a	No	3.486	n/a	5.0	NoResponse	0	0.012	544.774	6	57	Feedback	Neutral	True
547.211	3.486	Control	0.6552	n/a	No	3.486	n/a	n/a	NoResponse	0	0.0	n/a	6	57	ISIslide	Neutral	True
550.727	0.25	Win2	0.6441	0.0	No	2.723	0.027	n/a	NoResponse	0	n/a	n/a	6	58	Cue	MissedWin	True
550.977	4.05	Win2	0.6441	0.0	No	2.723	0.0	n/a	NoResponse	0	n/a	n/a	6	58	Fixation	MissedWin	True
555.025	0.17	Win2	0.6441	0.002	No	2.723	-0.002	4.0	NoResponse	0	0.19	554.215	6	58	Target	MissedWin	True
555.209	0.53	Win2	0.6441	n/a	No	2.723	n/a	n/a	NoResponse	0	n/a	n/a	6	58	Blank	MissedWin	True
555.215	0.3	Win2	0.6441	0.002	No	2.723	-0.002	4.0	NoResponse	0	0.19	n/a	6	58	ButtonPress	MissedWin	True
555.725	1.45	Win2	0.6441	n/a	No	2.723	n/a	5.0	NoResponse	0	0.001	554.726	6	58	Feedback	MissedWin	True
557.175	2.723	Win2	0.6441	n/a	No	2.723	n/a	n/a	NoResponse	0	0.0	n/a	6	58	ISIslide	MissedWin	True
559.924	0.25	Lose2	0.6333	0.0	No	2.676	0.024	n/a	NoResponse	-1	n/a	n/a	5	59	Cue	Loss	True
560.174	4.0	Lose2	0.6333	0.0	No	2.676	0.0	n/a	NoResponse	-1	n/a	n/a	5	59	Fixation	Loss	True
564.172	0.18	Lose2	0.6333	0.002	No	2.676	-0.002	4.0	NoResponse	-1	0.199	563.371	5	59	Target	Loss	True
564.355	0.52	Lose2	0.6333	n/a	No	2.676	n/a	n/a	NoResponse	-1	n/a	n/a	5	59	Blank	Loss	True
564.371	0.3	Lose2	0.6333	0.002	No	2.676	-0.002	4.0	NoResponse	-1	0.199	n/a	5	59	ButtonPress	Loss	True
564.872	1.45	Lose2	0.6333	n/a	No	2.676	n/a	5.0	NoResponse	-1	0.024	563.896	5	59	Feedback	Loss	True
566.321	2.676	Lose2	0.6333	n/a	No	2.676	n/a	n/a	NoResponse	-1	0.0	n/a	5	59	ISIslide	Loss	True
569.02	0.25	Control	0.623	0.001	No	2.68	0.02	n/a	NoResponse	0	n/a	n/a	5	60	Cue	Neutral	True
569.27	4.0	Control	0.623	0.0	No	2.68	0.0	n/a	NoResponse	0	n/a	n/a	5	60	Fixation	Neutral	True
573.269	0.19	Control	0.623	0.001	No	2.68	-0.001	4.0	NoResponse	0	0.205	572.474	5	60	Target	Neutral	True
573.469	0.51	Control	0.623	n/a	No	2.68	n/a	n/a	NoResponse	0	n/a	n/a	5	60	Blank	Neutral	True
573.474	0.3	Control	0.623	0.001	No	2.68	-0.001	4.0	NoResponse	0	0.205	n/a	5	60	ButtonPress	Neutral	True
573.969	1.45	Control	0.623	n/a	No	2.68	n/a	5.0	NoResponse	0	0.001	572.97	5	60	Feedback	Neutral	True
575.418	2.68	Control	0.623	n/a	No	2.68	n/a	n/a	NoResponse	0	0.0	n/a	5	60	ISIslide	Neutral	True
578.117	0.25	Lose2	0.6129	0.0	No	2.983	0.017	n/a	PrematurePress	-1	n/a	n/a	4	61	Cue	Loss	True
578.367	4.0	Lose2	0.6129	0.0	No	2.983	0.0	n/a	PrematurePress	-1	n/a	n/a	4	61	Fixation	Loss	True
582.366	0.2	Lose2	0.6129	0.001	No	2.983	-0.001	4.0	PrematurePress	-1	0.056	581.422	4	61	Target	Loss	True
582.422	0.3	Lose2	0.6129	0.001	No	2.983	-0.001	4.0	PrematurePress	-1	0.056	n/a	4	61	ButtonPress	Loss	True
582.566	0.5	Lose2	0.6129	n/a	No	2.983	n/a	n/a	PrematurePress	-1	n/a	n/a	4	61	Blank	Loss	True
583.065	1.45	Lose2	0.6129	n/a	No	2.983	n/a	5.0	PrematurePress	-1	0.026	582.091	4	61	Feedback	Loss	True
584.515	2.983	Lose2	0.6129	n/a	No	2.983	n/a	n/a	PrematurePress	-1	0.0	n/a	4	61	ISIslide	Loss	True
587.514	0.25	Lose2	0.6032	0.0	No	2.886	0.014	n/a	LatePress	-1	n/a	n/a	3	62	Cue	Loss	True
587.764	3.9	Lose2	0.6032	0.0	No	2.886	0.0	n/a	LatePress	-1	n/a	n/a	3	62	Fixation	Loss	True
591.662	0.21	Lose2	0.6032	0.002	No	2.886	-0.002	4.0	LatePress	-1	0.216	590.878	3	62	Target	Loss	True
591.878	0.3	Lose2	0.6032	0.002	No	2.886	-0.002	4.0	LatePress	-1	0.216	n/a	3	62	ButtonPress	Loss	True
591.879	0.49	Lose2	0.6032	n/a	No	2.886	n/a	n/a	LatePress	-1	n/a	n/a	3	62	Blank	Loss	True
592.362	1.45	Lose2	0.6032	n/a	No	2.886	n/a	5.0	LatePress	-1	0.046	591.408	3	62	Feedback	Loss	True
593.812	2.886	Lose2	0.6032	n/a	No	2.886	n/a	n/a	LatePress	-1	0.0	n/a	3	62	ISIslide	Loss	True
596.727	0.25	Lose2	0.6093999999999999	0.0	Yes	2.623	0.027	n/a	GoodResponse	0	n/a	n/a	3	63	Cue	AvoidedLoss	False
596.977	4.05	Lose2	0.6093999999999999	0.0	Yes	2.623	0.0	4.0	GoodResponse	0	3.606	599.583	3	63	Fixation	AvoidedLoss	False
600.583	0.3	Lose2	0.6093999999999999	0.0	Yes	2.623	0.0	4.0	GoodResponse	0	3.606	n/a	3	63	ButtonPress	AvoidedLoss	False
601.026	0.22	Lose2	0.6093999999999999	0.001	Yes	2.623	-0.001	4.0	GoodResponse	0	0.178	600.204	3	63	Target	AvoidedLoss	False
601.204	0.3	Lose2	0.6093999999999999	0.001	Yes	2.623	-0.001	4.0	GoodResponse	0	0.178	n/a	3	63	ButtonPress	AvoidedLoss	False
601.242	0.48	Lose2	0.6093999999999999	n/a	Yes	2.623	n/a	n/a	GoodResponse	0	n/a	n/a	3	63	Blank	AvoidedLoss	False
601.726	1.45	Lose2	0.6093999999999999	n/a	Yes	2.623	n/a	5.0	GoodResponse	0	0.048	600.774	3	63	Feedback	AvoidedLoss	False
603.175	2.623	Lose2	0.6093999999999999	n/a	Yes	2.623	n/a	n/a	GoodResponse	0	0.0	n/a	3	63	ISIslide	AvoidedLoss	False
605.824	0.25	Win2	0.6154	0.0	Yes	3.126	0.024	n/a	GoodResponse	1	n/a	n/a	4	64	Cue	Win	True
606.074	4.15	Win2	0.6154	0.0	Yes	3.126	0.0	n/a	GoodResponse	1	n/a	n/a	4	64	Fixation	Win	True
610.223	0.23	Win2	0.6154	0.001	Yes	3.126	-0.001	4.0	GoodResponse	1	0.167	609.39	4	64	Target	Win	True
610.39	0.3	Win2	0.6154	0.001	Yes	3.126	-0.001	4.0	GoodResponse	1	0.167	n/a	4	64	ButtonPress	Win	True
610.456	0.47	Win2	0.6154	n/a	Yes	3.126	n/a	n/a	GoodResponse	1	n/a	n/a	4	64	Blank	Win	True
610.922	1.45	Win2	0.6154	n/a	Yes	3.126	n/a	5.0	GoodResponse	1	0.023	609.945	4	64	Feedback	Win	True
612.372	3.126	Win2	0.6154	n/a	Yes	3.126	n/a	n/a	GoodResponse	1	0.0	n/a	4	64	ISIslide	Win	True
615.521	0.25	Control	0.6212	0.0	Yes	2.779	0.021	n/a	GoodResponse	0	n/a	n/a	4	65	Cue	Neutral	True
615.771	4.0	Control	0.6212	0.0	Yes	2.779	0.0	n/a	GoodResponse	0	n/a	n/a	4	65	Fixation	Neutral	True
619.769	0.24	Control	0.6212	0.002	Yes	2.779	-0.002	4.0	GoodResponse	0	0.233	619.002	4	65	Target	Neutral	True
620.002	0.3	Control	0.6212	0.002	Yes	2.779	-0.002	4.0	GoodResponse	0	0.233	n/a	4	65	ButtonPress	Neutral	True
620.019	0.46	Control	0.6212	n/a	Yes	2.779	n/a	n/a	GoodResponse	0	n/a	n/a	4	65	Blank	Neutral	True
620.469	1.45	Control	0.6212	n/a	Yes	2.779	n/a	5.0	GoodResponse	0	0.036	619.505	4	65	Feedback	Neutral	True
621.918	2.779	Control	0.6212	n/a	Yes	2.779	n/a	n/a	GoodResponse	0	0.0	n/a	4	65	ISIslide	Neutral	True
624.717	0.25	Win2	0.6269	0.001	Yes	2.783	0.017	n/a	GoodResponse	1	n/a	n/a	5	66	Cue	Win	True
624.967	3.9	Win2	0.6269	0.001	Yes	2.783	0.0	n/a	GoodResponse	1	n/a	n/a	5	66	Fixation	Win	True
628.866	0.25	Win2	0.6269	0.001	Yes	2.783	-0.001	4.0	GoodResponse	1	0.174	628.04	5	66	Target	Win	True
629.04	0.3	Win2	0.6269	0.001	Yes	2.783	-0.001	4.0	GoodResponse	1	0.174	n/a	5	66	ButtonPress	Win	True
629.116	0.45	Win2	0.6269	n/a	Yes	2.783	n/a	n/a	GoodResponse	1	n/a	n/a	5	66	Blank	Win	True
629.566	1.45	Win2	0.6269	n/a	Yes	2.783	n/a	5.0	GoodResponse	1	0.012	628.578	5	66	Feedback	Win	True
631.015	2.783	Win2	0.6269	n/a	Yes	2.783	n/a	n/a	GoodResponse	1	0.0	n/a	5	66	ISIslide	Win	True
633.814	0.25	Control	0.6324000000000001	0.0	Yes	2.736	0.014	n/a	GoodResponse	0	n/a	n/a	5	67	Cue	Neutral	True
634.064	3.95	Control	0.6324000000000001	0.0	Yes	2.736	0.0	n/a	GoodResponse	0	n/a	n/a	5	67	Fixation	Neutral	True
638.013	0.26	Control	0.6324000000000001	0.001	Yes	2.736	-0.001	4.0	GoodResponse	0	0.175	637.188	5	67	Target	Neutral	True
638.188	0.3	Control	0.6324000000000001	0.001	Yes	2.736	-0.001	4.0	GoodResponse	0	0.175	n/a	5	67	ButtonPress	Neutral	True
638.279	0.44	Control	0.6324000000000001	n/a	Yes	2.736	n/a	n/a	GoodResponse	0	n/a	n/a	5	67	Blank	Neutral	True
638.713	1.45	Control	0.6324000000000001	n/a	Yes	2.736	n/a	5.0	GoodResponse	0	0.036	637.749	5	67	Feedback	Neutral	True
640.162	2.736	Control	0.6324000000000001	n/a	Yes	2.736	n/a	n/a	GoodResponse	0	0.0	n/a	5	67	ISIslide	Neutral	True
642.928	0.25	Win2	0.6377	0.0	Yes	3.072	0.028	n/a	GoodResponse	1	n/a	n/a	6	68	Cue	Win	True
643.178	4.0	Win2	0.6377	0.0	Yes	3.072	0.0	n/a	GoodResponse	1	n/a	n/a	6	68	Fixation	Win	True
647.176	0.27	Win2	0.6377	0.002	Yes	3.072	-0.002	4.0	GoodResponse	1	0.202	646.378	6	68	Target	Win	True
647.378	0.3	Win2	0.6377	0.002	Yes	3.072	-0.002	4.0	GoodResponse	1	0.202	n/a	6	68	ButtonPress	Win	True
647.459	0.43	Win2	0.6377	n/a	Yes	3.072	n/a	n/a	GoodResponse	1	n/a	n/a	6	68	Blank	Win	True
647.876	1.45	Win2	0.6377	n/a	Yes	3.072	n/a	5.0	GoodResponse	1	0.044	646.92	6	68	Feedback	Win	True
649.325	3.072	Win2	0.6377	n/a	Yes	3.072	n/a	n/a	GoodResponse	1	0.0	n/a	6	68	ISIslide	Win	True
652.424	0.25	Win2	0.6429	0.0	Yes	3.226	0.024	n/a	GoodResponse	1	n/a	n/a	7	69	Cue	Win	True
652.674	3.95	Win2	0.6429	0.0	Yes	3.226	0.0	n/a	GoodResponse	1	n/a	n/a	7	69	Fixation	Win	True
656.623	0.28	Win2	0.6429	0.001	Yes	3.226	-0.001	4.0	GoodResponse	1	0.198	655.821	7	69	Target	Win	True
656.821	0.3	Win2	0.6429	0.001	Yes	3.226	-0.001	4.0	GoodResponse	1	0.198	n/a	7	69	ButtonPress	Win	True
656.906	0.42	Win2	0.6429	n/a	Yes	3.226	n/a	n/a	GoodResponse	1	n/a	n/a	7	69	Blank	Win	True
657.323	1.45	Win2	0.6429	n/a	Yes	3.226	n/a	5.0	GoodResponse	1	0.012	656.335	7	69	Feedback	Win	True
658.772	3.226	Win2	0.6429	n/a	Yes	3.226	n/a	n/a	GoodResponse	1	0.0	n/a	7	69	ISIslide	Win	True
662.021	0.25	Lose2	0.6479	0.0	Yes	3.029	0.021	n/a	GoodResponse	0	n/a	n/a	7	70	Cue	AvoidedLoss	True
662.271	4.05	Lose2	0.6479	0.0	Yes	3.029	0.0	n/a	GoodResponse	0	n/a	n/a	7	70	Fixation	AvoidedLoss	True
666.319	0.29	Lose2	0.6479	0.002	Yes	3.029	-0.002	4.0	GoodResponse	0	0.203	665.522	7	70	Target	AvoidedLoss	True
666.522	0.3	Lose2	0.6479	0.002	Yes	3.029	-0.002	4.0	GoodResponse	0	0.203	n/a	7	70	ButtonPress	AvoidedLoss	True
666.619	0.41	Lose2	0.6479	n/a	Yes	3.029	n/a	n/a	GoodResponse	0	n/a	n/a	7	70	Blank	AvoidedLoss	True
667.019	1.45	Lose2	0.6479	n/a	Yes	3.029	n/a	5.0	GoodResponse	0	0.022	666.041	7	70	Feedback	AvoidedLoss	True
668.469	3.029	Lose2	0.6479	n/a	Yes	3.029	n/a	n/a	GoodResponse	0	0.0	n/a	7	70	ISIslide	AvoidedLoss	True
671.518	0.25	Win2	0.6528	0.0	Yes	2.732	0.018	n/a	GoodResponse	1	n/a	n/a	8	71	Cue	Win	True
671.768	4.05	Win2	0.6528	0.0	Yes	2.732	0.0	n/a	GoodResponse	1	n/a	n/a	8	71	Fixation	Win	True
675.816	0.3	Win2	0.6528	0.002	Yes	2.732	-0.002	4.0	GoodResponse	1	0.196	675.012	8	71	Target	Win	True
676.012	0.3	Win2	0.6528	0.002	Yes	2.732	-0.002	4.0	GoodResponse	1	0.196	n/a	8	71	ButtonPress	Win	True
676.116	0.4	Win2	0.6528	n/a	Yes	2.732	n/a	n/a	GoodResponse	1	n/a	n/a	8	71	Blank	Win	True
676.516	1.45	Win2	0.6528	n/a	Yes	2.732	n/a	5.0	GoodResponse	1	0.037	675.553	8	71	Feedback	Win	True
677.965	2.732	Win2	0.6528	n/a	Yes	2.732	n/a	n/a	GoodResponse	1	0.0	n/a	8	71	ISIslide	Win	True
680.714	0.25	Win2	0.6575	0.001	Yes	2.786	0.014	n/a	GoodResponse	1	n/a	n/a	9	72	Cue	Win	True
680.964	4.1	Win2	0.6575	0.0	Yes	2.786	0.0	n/a	GoodResponse	1	n/a	n/a	9	72	Fixation	Win	True
685.063	0.31	Win2	0.6575	0.001	Yes	2.786	-0.001	4.0	GoodResponse	1	0.204	684.267	9	72	Target	Win	True
685.267	0.3	Win2	0.6575	0.001	Yes	2.786	-0.001	4.0	GoodResponse	1	0.204	n/a	9	72	ButtonPress	Win	True
685.379	0.39	Win2	0.6575	n/a	Yes	2.786	n/a	n/a	GoodResponse	1	n/a	n/a	9	72	Blank	Win	True
685.763	1.45	Win2	0.6575	n/a	Yes	2.786	n/a	5.0	GoodResponse	1	0.01	684.773	9	72	Feedback	Win	True
687.212	2.786	Win2	0.6575	n/a	Yes	2.786	n/a	n/a	GoodResponse	1	0.0	n/a	9	72	ISIslide	Win	True
690.028	0.25	Win2	0.6622	0.0	Yes	2.672	0.028	n/a	GoodResponse	1	n/a	n/a	10	73	Cue	Win	True
690.278	4.0	Win2	0.6622	0.0	Yes	2.672	0.0	n/a	GoodResponse	1	n/a	n/a	10	73	Fixation	Win	True
694.276	0.31	Win2	0.6622	0.002	Yes	2.672	-0.002	4.0	GoodResponse	1	0.246	693.522	10	73	Target	Win	True
694.522	0.3	Win2	0.6622	0.002	Yes	2.672	-0.002	4.0	GoodResponse	1	0.246	n/a	10	73	ButtonPress	Win	True
694.593	0.39	Win2	0.6622	n/a	Yes	2.672	n/a	n/a	GoodResponse	1	n/a	n/a	10	73	Blank	Win	True
694.976	1.45	Win2	0.6622	n/a	Yes	2.672	n/a	5.0	GoodResponse	1	0.017	693.993	10	73	Feedback	Win	True
696.426	2.672	Win2	0.6622	n/a	Yes	2.672	n/a	n/a	GoodResponse	1	0.0	n/a	10	73	ISIslide	Win	True
699.125	0.25	Lose2	0.6667000000000001	0.0	Yes	2.625	0.025	n/a	GoodResponse	0	n/a	n/a	10	74	Cue	AvoidedLoss	False
699.375	4.05	Lose2	0.6667000000000001	0.0	Yes	2.625	0.0	4.0	GoodResponse	0	3.259	701.634	10	74	Fixation	AvoidedLoss	False
702.634	0.3	Lose2	0.6667000000000001	0.0	Yes	2.625	0.0	4.0	GoodResponse	0	3.259	n/a	10	74	ButtonPress	AvoidedLoss	False
703.423	0.31	Lose2	0.6667000000000001	0.002	Yes	2.625	-0.002	4.0	GoodResponse	0	0.176	702.599	10	74	Target	AvoidedLoss	False
703.599	0.3	Lose2	0.6667000000000001	0.002	Yes	2.625	-0.002	4.0	GoodResponse	0	0.176	n/a	10	74	ButtonPress	AvoidedLoss	False
703.74	0.39	Lose2	0.6667000000000001	n/a	Yes	2.625	n/a	n/a	GoodResponse	0	n/a	n/a	10	74	Blank	AvoidedLoss	False
704.123	1.45	Lose2	0.6667000000000001	n/a	Yes	2.625	n/a	5.0	GoodResponse	0	0.039	703.162	10	74	Feedback	AvoidedLoss	False
705.572	2.625	Lose2	0.6667000000000001	n/a	Yes	2.625	n/a	n/a	GoodResponse	0	0.0	n/a	10	74	ISIslide	AvoidedLoss	False
708.221	0.25	Lose2	0.6711	0.0	Yes	2.929	0.021	n/a	GoodResponse	0	n/a	n/a	10	75	Cue	AvoidedLoss	True
708.471	3.95	Lose2	0.6711	0.0	Yes	2.929	0.0	n/a	GoodResponse	0	n/a	n/a	10	75	Fixation	AvoidedLoss	True
712.42	0.3	Lose2	0.6711	0.001	Yes	2.929	-0.001	4.0	GoodResponse	0	0.174	711.594	10	75	Target	AvoidedLoss	True
712.594	0.3	Lose2	0.6711	0.001	Yes	2.929	-0.001	4.0	GoodResponse	0	0.174	n/a	10	75	ButtonPress	AvoidedLoss	True
712.72	0.4	Lose2	0.6711	n/a	Yes	2.929	n/a	n/a	GoodResponse	0	n/a	n/a	10	75	Blank	AvoidedLoss	True
713.12	1.45	Lose2	0.6711	n/a	Yes	2.929	n/a	5.0	GoodResponse	0	0.018	712.138	10	75	Feedback	AvoidedLoss	True
714.569	2.929	Lose2	0.6711	n/a	Yes	2.929	n/a	n/a	GoodResponse	0	0.0	n/a	10	75	ISIslide	AvoidedLoss	True
717.518	0.25	Control	0.6753	0.0	Yes	3.232	0.018	n/a	GoodResponse	0	n/a	n/a	10	76	Cue	Neutral	True
717.768	4.05	Control	0.6753	0.0	Yes	3.232	0.0	n/a	GoodResponse	0	n/a	n/a	10	76	Fixation	Neutral	True
721.817	0.29	Control	0.6753	0.001	Yes	3.232	-0.001	4.0	GoodResponse	0	0.189	721.006	10	76	Target	Neutral	True
722.006	0.3	Control	0.6753	0.001	Yes	3.232	-0.001	4.0	GoodResponse	0	0.189	n/a	10	76	ButtonPress	Neutral	True
722.117	0.41	Control	0.6753	n/a	Yes	3.232	n/a	n/a	GoodResponse	0	n/a	n/a	10	76	Blank	Neutral	True
722.516	1.45	Control	0.6753	n/a	Yes	3.232	n/a	5.0	GoodResponse	0	0.037	721.553	10	76	Feedback	Neutral	True
723.966	3.232	Control	0.6753	n/a	Yes	3.232	n/a	n/a	GoodResponse	0	0.0	n/a	10	76	ISIslide	Neutral	True
727.215	0.25	Lose2	0.6795	0.0	Yes	2.585	0.015	n/a	GoodResponse	0	n/a	n/a	10	77	Cue	AvoidedLoss	True
727.465	3.95	Lose2	0.6795	0.0	Yes	2.585	0.0	n/a	GoodResponse	0	n/a	n/a	10	77	Fixation	AvoidedLoss	True
731.413	0.28	Lose2	0.6795	0.002	Yes	2.585	-0.002	4.0	GoodResponse	0	0.18	730.593	10	77	Target	AvoidedLoss	True
731.593	0.3	Lose2	0.6795	0.002	Yes	2.585	-0.002	4.0	GoodResponse	0	0.18	n/a	10	77	ButtonPress	AvoidedLoss	True
731.696	0.42	Lose2	0.6795	n/a	Yes	2.585	n/a	n/a	GoodResponse	0	n/a	n/a	10	77	Blank	AvoidedLoss	True
732.113	1.45	Lose2	0.6795	n/a	Yes	2.585	n/a	5.0	GoodResponse	0	0.001	731.114	10	77	Feedback	AvoidedLoss	True
733.562	2.585	Lose2	0.6795	n/a	Yes	2.585	n/a	n/a	GoodResponse	0	0.0	n/a	10	77	ISIslide	AvoidedLoss	True
