onset	duration	cue_type	current_mean_accuracy	duration_error	is_hit	isi_adjusted	onset_delay	response	response_type	reward	rt	rt_time	total_reward	trial_number	trial_phase	trial_type	one_press
11.103	0.25	Control	0.0	0.0	Yes	2.947	0.003	n/a	GoodResponse	0	n/a	n/a	0	0	Cue	Neutral	True
11.354	3.85	Control	0.0	0.0	Yes	2.947	0.001	n/a	GoodResponse	0	n/a	n/a	0	0	Fixation	Neutral	True
15.199	0.4	Control	0.0	0.004	Yes	2.947	-0.004	2.0	GoodResponse	0	0.321	14.52	0	0	Target	Neutral	True
15.52	0.3	Control	0.0	0.004	Yes	2.947	-0.004	2.0	GoodResponse	0	0.321	n/a	0	0	ButtonPress	Neutral	True
15.6	0.3	Control	0.0	n/a	Yes	2.947	n/a	n/a	GoodResponse	0	n/a	n/a	0	0	Blank	Neutral	True
15.901	1.45	Control	0.0	n/a	Yes	2.947	n/a	5.0	GoodResponse	0	0.025	14.926	0	0	Feedback	Neutral	True
17.355	2.947	Control	0.0	n/a	Yes	2.947	n/a	n/a	GoodResponse	0	0.0	n/a	0	0	ISIslide	Neutral	True
20.331	0.25	Lose2	0.0	0.0	Yes	2.769	0.031	n/a	GoodResponse	0	n/a	n/a	0	1	Cue	AvoidedLoss	True
20.582	4.0	Lose2	0.0	0.0	Yes	2.769	0.001	n/a	GoodResponse	0	n/a	n/a	0	1	Fixation	AvoidedLoss	True
24.577	0.39	Lose2	0.0	0.004	Yes	2.769	-0.004	2.0	GoodResponse	0	0.246	23.823	0	1	Target	AvoidedLoss	True
24.823	0.3	Lose2	0.0	0.004	Yes	2.769	-0.004	2.0	GoodResponse	0	0.246	n/a	0	1	ButtonPress	AvoidedLoss	True
24.978	0.31	Lose2	0.0	n/a	Yes	2.769	n/a	n/a	GoodResponse	0	n/a	n/a	0	1	Blank	AvoidedLoss	True
25.279	1.45	Lose2	0.0	n/a	Yes	2.769	n/a	5.0	GoodResponse	0	0.012	24.291	0	1	Feedback	AvoidedLoss	True
26.733	2.769	Lose2	0.0	n/a	Yes	2.769	n/a	n/a	GoodResponse	0	0.0	n/a	0	1	ISIslide	AvoidedLoss	True
29.525	0.25	Control	0.0	0.0	Yes	2.575	0.025	n/a	GoodResponse	0	n/a	n/a	0	2	Cue	Neutral	True
29.776	4.1	Control	0.0	0.0	Yes	2.575	0.001	n/a	GoodResponse	0	n/a	n/a	0	2	Fixation	Neutral	True
33.871	0.38	Control	0.0	0.004	Yes	2.575	-0.004	2.0	GoodResponse	0	0.252	33.123	0	2	Target	Neutral	True
34.123	0.3	Control	0.0	0.004	Yes	2.575	-0.004	2.0	GoodResponse	0	0.252	n/a	0	2	ButtonPress	Neutral	True
34.256	0.32	Control	0.0	n/a	Yes	2.575	n/a	n/a	GoodResponse	0	n/a	n/a	0	2	Blank	Neutral	True
34.574	1.45	Control	0.0	n/a	Yes	2.575	n/a	5.0	GoodResponse	0	0.034	33.608	0	2	Feedback	Neutral	True
36.028	2.575	Control	0.0	n/a	Yes	2.575	n/a	n/a	GoodResponse	0	0.0	n/a	0	2	ISIslide	Neutral	True
38.619	0.25	Win2	0.0	0.0	Yes	2.831	0.019	n/a	GoodResponse	1	n/a	n/a	1	3	Cue	Win	True
38.87	3.95	Win2	0.0	0.0	Yes	2.831	0.001	n/a	GoodResponse	1	n/a	n/a	1	3	Fixation	Win	True
42.815	0.37	Win2	0.0	0.004	Yes	2.831	-0.004	2.0	GoodResponse	1	0.271	42.086	1	3	Target	Win	True
43.086	0.3	Win2	0.0	0.004	Yes	2.831	-0.004	2.0	GoodResponse	1	0.271	n/a	1	3	ButtonPress	Win	True
43.199	0.33	Win2	0.0	n/a	Yes	2.831	n/a	n/a	GoodResponse	1	n/a	n/a	1	3	Blank	Win	True
43.517	1.45	Win2	0.0	n/a	Yes	2.831	n/a	5.0	GoodResponse	1	0.018	42.535	1	3	Feedback	Win	True
44.971	2.831	Win2	0.0	n/a	Yes	2.831	n/a	n/a	GoodResponse	1	0.0	n/a	1	3	ISIslide	Win	True
47.83	0.25	Win2	0.0	0.0	Yes	3.27	0.03	n/a	GoodResponse	1	n/a	n/a	2	4	Cue	Win	True
48.081	4.0	Win2	0.0	0.0	Yes	3.27	0.001	n/a	GoodResponse	1	n/a	n/a	2	4	Fixation	Win	True
52.076	0.36	Win2	0.0	0.004	Yes	3.27	-0.004	2.0	GoodResponse	1	0.261	51.337	2	4	Target	Win	True
52.337	0.3	Win2	0.0	0.004	Yes	3.27	-0.004	2.0	GoodResponse	1	0.261	n/a	2	4	ButtonPress	Win	True
52.444	0.34	Win2	0.0	n/a	Yes	3.27	n/a	n/a	GoodResponse	1	n/a	n/a	2	4	Blank	Win	True
52.778	1.45	Win2	0.0	n/a	Yes	3.27	n/a	5.0	GoodResponse	1	0.026	51.804	2	4	Feedback	Win	True
54.232	3.27	Win2	0.0	n/a	Yes	3.27	n/a	n/a	GoodResponse	1	0.0	n/a	2	4	ISIslide	Win	True
57.526	0.25	Win2	0.0	0.0	Yes	2.774	0.026	n/a	GoodResponse	1	n/a	n/a	3	5	Cue	Win	True
57.776	4.0	Win2	0.0	0.0	Yes	2.774	0.0	n/a	GoodResponse	1	n/a	n/a	3	5	Fixation	Win	True
61.772	0.35	Win2	0.0	0.004	Yes	2.774	-0.004	2.0	GoodResponse	1	0.288	61.06	3	5	Target	Win	True
62.06	0.3	Win2	0.0	0.004	Yes	2.774	-0.004	2.0	GoodResponse	1	0.288	n/a	3	5	ButtonPress	Win	True
62.123	0.35	Win2	0.0	n/a	Yes	2.774	n/a	n/a	GoodResponse	1	n/a	n/a	3	5	Blank	Win	True
62.474	1.45	Win2	0.0	n/a	Yes	2.774	n/a	5.0	GoodResponse	1	0.037	61.511	3	5	Feedback	Win	True
63.928	2.774	Win2	0.0	n/a	Yes	2.774	n/a	n/a	GoodResponse	1	0.0	n/a	3	5	ISIslide	Win	True
66.72	0.25	Lose2	0.0	0.0	Yes	2.73	0.02	n/a	GoodResponse	0	n/a	n/a	3	6	Cue	AvoidedLoss	True
66.971	3.95	Lose2	0.0	0.0	Yes	2.73	0.001	n/a	GoodResponse	0	n/a	n/a	3	6	Fixation	AvoidedLoss	True
70.916	0.34	Lose2	0.0	0.004	Yes	2.73	-0.004	2.0	GoodResponse	0	0.302	70.218	3	6	Target	AvoidedLoss	True
71.218	0.3	Lose2	0.0	0.004	Yes	2.73	-0.004	2.0	GoodResponse	0	0.302	n/a	3	6	ButtonPress	AvoidedLoss	True
71.267	0.36	Lose2	0.0	n/a	Yes	2.73	n/a	n/a	GoodResponse	0	n/a	n/a	3	6	Blank	AvoidedLoss	True
71.618	1.45	Lose2	0.0	n/a	Yes	2.73	n/a	5.0	GoodResponse	0	0.015	70.633	3	6	Feedback	AvoidedLoss	True
73.072	2.73	Lose2	0.0	n/a	Yes	2.73	n/a	n/a	GoodResponse	0	0.0	n/a	3	6	ISIslide	AvoidedLoss	True
75.83	0.25	Lose2	0.0	0.001	Yes	4.02	0.03	n/a	GoodResponse	0	n/a	n/a	3	7	Cue	AvoidedLoss	True
76.081	4.05	Lose2	0.0	0.0	Yes	4.02	0.001	n/a	GoodResponse	0	n/a	n/a	3	7	Fixation	AvoidedLoss	True
80.127	0.33	Lose2	0.0	0.003	Yes	4.02	-0.003	2.0	GoodResponse	0	0.263	79.39	3	7	Target	AvoidedLoss	True
80.39	0.3	Lose2	0.0	0.003	Yes	4.02	-0.003	2.0	GoodResponse	0	0.263	n/a	3	7	ButtonPress	AvoidedLoss	True
80.461	0.37	Lose2	0.0	n/a	Yes	4.02	n/a	n/a	GoodResponse	0	n/a	n/a	3	7	Blank	AvoidedLoss	True
80.829	1.45	Lose2	0.0	n/a	Yes	4.02	n/a	5.0	GoodResponse	0	0.024	79.853	3	7	Feedback	AvoidedLoss	True
82.283	4.02	Lose2	0.0	n/a	Yes	4.02	n/a	n/a	GoodResponse	0	0.0	n/a	3	7	ISIslide	AvoidedLoss	True
86.329	0.25	Lose2	0.0	0.0	Yes	3.021	0.029	n/a	GoodResponse	0	n/a	n/a	3	8	Cue	AvoidedLoss	True
86.579	3.95	Lose2	0.0	0.0	Yes	3.021	0.0	n/a	GoodResponse	0	n/a	n/a	3	8	Fixation	AvoidedLoss	True
90.525	0.32	Lose2	0.0	0.004	Yes	3.021	-0.004	2.0	GoodResponse	0	0.255	89.78	3	8	Target	AvoidedLoss	True
90.78	0.3	Lose2	0.0	0.004	Yes	3.021	-0.004	2.0	GoodResponse	0	0.255	n/a	3	8	ButtonPress	AvoidedLoss	True
90.859	0.38	Lose2	0.0	n/a	Yes	3.021	n/a	n/a	GoodResponse	0	n/a	n/a	3	8	Blank	AvoidedLoss	True
91.227	1.45	Lose2	0.0	n/a	Yes	3.021	n/a	5.0	GoodResponse	0	0.015	90.242	3	8	Feedback	AvoidedLoss	True
92.681	3.021	Lose2	0.0	n/a	Yes	3.021	n/a	n/a	GoodResponse	0	0.0	n/a	3	8	ISIslide	AvoidedLoss	True
95.723	0.25	Lose2	0.0	0.001	Yes	3.127	0.023	n/a	GoodResponse	0	n/a	n/a	3	9	Cue	AvoidedLoss	True
95.974	3.95	Lose2	0.0	0.0	Yes	3.127	0.001	n/a	GoodResponse	0	n/a	n/a	3	9	Fixation	AvoidedLoss	True
99.919	0.31	Lose2	0.0	0.004	Yes	3.127	-0.004	2.0	GoodResponse	0	0.267	99.186	3	9	Target	AvoidedLoss	True
100.186	0.3	Lose2	0.0	0.004	Yes	3.127	-0.004	2.0	GoodResponse	0	0.267	n/a	3	9	ButtonPress	AvoidedLoss	True
100.237	0.39	Lose2	0.0	n/a	Yes	3.127	n/a	n/a	GoodResponse	0	n/a	n/a	3	9	Blank	AvoidedLoss	True
100.621	1.45	Lose2	0.0	n/a	Yes	3.127	n/a	5.0	GoodResponse	0	0.036	99.657	3	9	Feedback	AvoidedLoss	True
102.076	3.127	Lose2	0.0	n/a	Yes	3.127	n/a	n/a	GoodResponse	0	0.0	n/a	3	9	ISIslide	AvoidedLoss	True
105.219	0.25	Control	0.0	0.0	Yes	3.281	0.019	n/a	GoodResponse	0	n/a	n/a	3	10	Cue	Neutral	True
105.469	4.0	Control	0.0	0.0	Yes	3.281	0.0	n/a	GoodResponse	0	n/a	n/a	3	10	Fixation	Neutral	True
109.465	0.3	Control	0.0	0.004	Yes	3.281	-0.004	2.0	GoodResponse	0	0.245	108.71	3	10	Target	Neutral	True
109.71	0.3	Control	0.0	0.004	Yes	3.281	-0.004	2.0	GoodResponse	0	0.245	n/a	3	10	ButtonPress	Neutral	True
109.766	0.4	Control	0.0	n/a	Yes	3.281	n/a	n/a	GoodResponse	0	n/a	n/a	3	10	Blank	Neutral	True
110.167	1.45	Control	0.0	n/a	Yes	3.281	n/a	5.0	GoodResponse	0	0.002	109.169	3	10	Feedback	Neutral	True
111.621	3.281	Control	0.0	n/a	Yes	3.281	n/a	n/a	GoodResponse	0	0.0	n/a	3	10	ISIslide	Neutral	True
114.931	0.25	Lose2	0.0167	0.0	No	2.719	0.031	n/a	LatePress	-1	n/a	n/a	2	11	Cue	Loss	False
115.182	4.05	Lose2	0.0167	0.0	No	2.719	0.001	2.0	LatePress	-1	0.175	114.357	2	11	Fixation	Loss	False
115.357	0.3	Lose2	0.0167	0.0	No	2.719	0.001	2.0	LatePress	-1	0.175	n/a	2	11	ButtonPress	Loss	False
119.227	0.29	Lose2	0.0167	0.004	No	2.719	-0.004	2.0	LatePress	-1	0.299	118.526	2	11	Target	Loss	False
119.526	0.3	Lose2	0.0167	0.004	No	2.719	-0.004	2.0	LatePress	-1	0.299	n/a	2	11	ButtonPress	Loss	False
119.528	0.41	Lose2	0.0167	n/a	No	2.719	n/a	n/a	LatePress	-1	n/a	n/a	2	11	Blank	Loss	False
119.929	1.45	Lose2	0.0167	n/a	No	2.719	n/a	5.0	LatePress	-1	0.045	118.974	2	11	Feedback	Loss	False
121.384	2.719	Lose2	0.0167	n/a	No	2.719	n/a	n/a	LatePress	-1	0.0	n/a	2	11	ISIslide	Loss	False
124.125	0.25	Control	0.0462	0.0	No	2.975	0.025	n/a	NoResponse	0	n/a	n/a	2	12	Cue	Neutral	True
124.376	3.9	Control	0.0462	0.0	No	2.975	0.001	n/a	NoResponse	0	n/a	n/a	2	12	Fixation	Neutral	True
128.271	0.28	Control	0.0462	0.004	No	2.975	-0.004	2.0	NoResponse	0	0.285	127.556	2	12	Target	Neutral	True
128.555	0.42	Control	0.0462	n/a	No	2.975	n/a	n/a	NoResponse	0	n/a	n/a	2	12	Blank	Neutral	True
128.556	0.3	Control	0.0462	0.004	No	2.975	-0.004	2.0	NoResponse	0	0.285	n/a	2	12	ButtonPress	Neutral	True
128.973	1.45	Control	0.0462	n/a	No	2.975	n/a	5.0	NoResponse	0	0.026	127.999	2	12	Feedback	Neutral	True
130.427	2.975	Control	0.0462	n/a	No	2.975	n/a	n/a	NoResponse	0	0.0	n/a	2	12	ISIslide	Neutral	True
133.42	0.25	Control	0.0571	0.0	Yes	2.78	0.02	n/a	GoodResponse	0	n/a	n/a	2	13	Cue	Neutral	True
133.67	4.0	Control	0.0571	0.001	Yes	2.78	0.0	n/a	GoodResponse	0	n/a	n/a	2	13	Fixation	Neutral	True
137.666	0.27	Control	0.0571	0.004	Yes	2.78	-0.004	2.0	GoodResponse	0	0.207	136.873	2	13	Target	Neutral	True
137.873	0.3	Control	0.0571	0.004	Yes	2.78	-0.004	2.0	GoodResponse	0	0.207	n/a	2	13	ButtonPress	Neutral	True
137.95	0.43	Control	0.0571	n/a	Yes	2.78	n/a	n/a	GoodResponse	0	n/a	n/a	2	13	Blank	Neutral	True
138.368	1.45	Control	0.0571	n/a	Yes	2.78	n/a	5.0	GoodResponse	0	0.046	137.414	2	13	Feedback	Neutral	True
139.822	2.78	Control	0.0571	n/a	Yes	2.78	n/a	n/a	GoodResponse	0	0.0	n/a	2	13	ISIslide	Neutral	True
142.631	0.25	Win2	0.0	0.0	No	2.669	0.031	n/a	NoResponse	0	n/a	n/a	2	14	Cue	MissedWin	True
142.881	4.1	Win2	0.0	0.0	No	2.669	0.0	n/a	NoResponse	0	n/a	n/a	2	14	Fixation	MissedWin	True
146.977	0.26	Win2	0.0	0.004	No	2.669	-0.004	2.0	NoResponse	0	0.276	146.253	2	14	Target	MissedWin	True
147.244	0.44	Win2	0.0	n/a	No	2.669	n/a	n/a	NoResponse	0	n/a	n/a	2	14	Blank	MissedWin	True
147.253	0.3	Win2	0.0	0.004	No	2.669	-0.004	2.0	NoResponse	0	0.276	n/a	2	14	ButtonPress	MissedWin	True
147.679	1.45	Win2	0.0	n/a	No	2.669	n/a	5.0	NoResponse	0	0.008	146.687	2	14	Feedback	MissedWin	True
149.133	2.669	Win2	0.0	n/a	No	2.669	n/a	n/a	NoResponse	0	0.0	n/a	2	14	ISIslide	MissedWin	True
151.825	0.25	Control	0.0125	0.0	Yes	2.975	0.025	n/a	GoodResponse	0	n/a	n/a	2	15	Cue	Neutral	True
152.076	4.0	Control	0.0125	0.0	Yes	2.975	0.001	n/a	GoodResponse	0	n/a	n/a	2	15	Fixation	Neutral	True
156.071	0.25	Control	0.0125	0.004	Yes	2.975	-0.004	2.0	GoodResponse	0	0.208	155.279	2	15	Target	Neutral	True
156.279	0.3	Control	0.0125	0.004	Yes	2.975	-0.004	2.0	GoodResponse	0	0.208	n/a	2	15	ButtonPress	Neutral	True
156.322	0.45	Control	0.0125	n/a	Yes	2.975	n/a	n/a	GoodResponse	0	n/a	n/a	2	15	Blank	Neutral	True
156.773	1.45	Control	0.0125	n/a	Yes	2.975	n/a	5.0	GoodResponse	0	0.03	155.803	2	15	Feedback	Neutral	True
158.227	2.975	Control	0.0125	n/a	Yes	2.975	n/a	n/a	GoodResponse	0	0.0	n/a	2	15	ISIslide	Neutral	True
161.22	0.25	Win2	0.0647	0.0	No	2.88	0.02	n/a	NoResponse	0	n/a	n/a	2	16	Cue	MissedWin	False
161.47	4.0	Win2	0.0647	0.001	No	2.88	0.0	n/a	NoResponse	0	n/a	n/a	2	16	Fixation	MissedWin	False
165.466	0.24	Win2	0.0647	0.004	No	2.88	-0.004	n/a	NoResponse	0	n/a	n/a	2	16	Target	MissedWin	False
165.716	0.46	Win2	0.0647	n/a	No	2.88	n/a	n/a	NoResponse	0	n/a	n/a	2	16	Blank	MissedWin	False
166.168	1.45	Win2	0.0647	n/a	No	2.88	n/a	5.0	NoResponse	0	0.001	165.169	2	16	Feedback	MissedWin	False
167.622	2.88	Win2	0.0647	n/a	No	2.88	n/a	n/a	NoResponse	0	0.0	n/a	2	16	ISIslide	MissedWin	False
170.531	0.25	Lose2	0.07780000000000001	0.0	Yes	2.719	0.031	n/a	GoodResponse	0	n/a	n/a	2	17	Cue	AvoidedLoss	True
170.782	3.95	Lose2	0.07780000000000001	0.0	Yes	2.719	0.001	n/a	GoodResponse	0	n/a	n/a	2	17	Fixation	AvoidedLoss	True
174.727	0.23	Lose2	0.07780000000000001	0.004	Yes	2.719	-0.004	2.0	GoodResponse	0	0.22	173.947	2	17	Target	AvoidedLoss	True
174.947	0.3	Lose2	0.07780000000000001	0.004	Yes	2.719	-0.004	2.0	GoodResponse	0	0.22	n/a	2	17	ButtonPress	AvoidedLoss	True
174.961	0.47	Lose2	0.07780000000000001	n/a	Yes	2.719	n/a	n/a	GoodResponse	0	n/a	n/a	2	17	Blank	AvoidedLoss	True
175.429	1.45	Lose2	0.07780000000000001	n/a	Yes	2.719	n/a	5.0	GoodResponse	0	0.008	174.437	2	17	Feedback	AvoidedLoss	True
176.883	2.719	Lose2	0.07780000000000001	n/a	Yes	2.719	n/a	n/a	GoodResponse	0	0.0	n/a	2	17	ISIslide	AvoidedLoss	True
179.625	0.25	Lose2	0.0368	0.0	No	2.725	0.025	n/a	LatePress	-1	n/a	n/a	1	18	Cue	Loss	True
179.876	4.05	Lose2	0.0368	0.0	No	2.725	0.001	n/a	LatePress	-1	n/a	n/a	1	18	Fixation	Loss	True
183.921	0.22	Lose2	0.0368	0.004	No	2.725	-0.004	2.0	LatePress	-1	0.223	183.144	1	18	Target	Loss	True
184.144	0.3	Lose2	0.0368	0.004	No	2.725	-0.004	2.0	LatePress	-1	0.223	n/a	1	18	ButtonPress	Loss	True
184.155	0.48	Lose2	0.0368	n/a	No	2.725	n/a	n/a	LatePress	-1	n/a	n/a	1	18	Blank	Loss	True
184.623	1.45	Lose2	0.0368	n/a	No	2.725	n/a	5.0	LatePress	-1	0.034	183.657	1	18	Feedback	Loss	True
186.077	2.725	Lose2	0.0368	n/a	No	2.725	n/a	n/a	LatePress	-1	0.0	n/a	1	18	ISIslide	Loss	True
188.819	0.25	Control	0.0	0.0	No	2.931	0.019	n/a	NoResponse	0	n/a	n/a	1	19	Cue	Neutral	True
189.07	3.95	Control	0.0	0.0	No	2.931	0.001	n/a	NoResponse	0	n/a	n/a	1	19	Fixation	Neutral	True
193.015	0.21	Control	0.0	0.004	No	2.931	-0.004	2.0	NoResponse	0	0.264	192.279	1	19	Target	Neutral	True
193.232	0.49	Control	0.0	n/a	No	2.931	n/a	n/a	NoResponse	0	n/a	n/a	1	19	Blank	Neutral	True
193.279	0.3	Control	0.0	0.004	No	2.931	-0.004	2.0	NoResponse	0	0.264	n/a	1	19	ButtonPress	Neutral	True
193.717	1.45	Control	0.0	n/a	No	2.931	n/a	5.0	NoResponse	0	0.013	192.73	1	19	Feedback	Neutral	True
195.171	2.931	Control	0.0	n/a	No	2.931	n/a	n/a	NoResponse	0	0.0	n/a	1	19	ISIslide	Neutral	True
198.13	0.25	Control	0.0667	0.0	No	2.62	0.03	n/a	NoResponse	0	n/a	n/a	1	20	Cue	Neutral	True
198.381	4.05	Control	0.0667	0.0	No	2.62	0.001	n/a	NoResponse	0	n/a	n/a	1	20	Fixation	Neutral	True
202.426	0.2	Control	0.0667	0.004	No	2.62	-0.004	2.0	NoResponse	0	0.273	201.699	1	20	Target	Neutral	True
202.627	0.5	Control	0.0667	n/a	No	2.62	n/a	n/a	NoResponse	0	n/a	n/a	1	20	Blank	Neutral	True
202.699	0.3	Control	0.0667	0.004	No	2.62	-0.004	2.0	NoResponse	0	0.273	n/a	1	20	ButtonPress	Neutral	True
203.129	1.45	Control	0.0667	n/a	No	2.62	n/a	5.0	NoResponse	0	0.015	202.144	1	20	Feedback	Neutral	True
204.583	2.62	Control	0.0667	n/a	No	2.62	n/a	n/a	NoResponse	0	0.0	n/a	1	20	ISIslide	Neutral	True
207.224	0.25	Control	0.0364	0.0	No	2.776	0.024	n/a	NoResponse	0	n/a	n/a	1	21	Cue	Neutral	True
207.475	4.1	Control	0.0364	0.0	No	2.776	0.001	n/a	NoResponse	0	n/a	n/a	1	21	Fixation	Neutral	True
211.571	0.19	Control	0.0364	0.003	No	2.776	-0.003	2.0	NoResponse	0	0.236	210.807	1	21	Target	Neutral	True
211.771	0.51	Control	0.0364	n/a	No	2.776	n/a	n/a	NoResponse	0	n/a	n/a	1	21	Blank	Neutral	True
211.807	0.3	Control	0.0364	0.003	No	2.776	-0.003	2.0	NoResponse	0	0.236	n/a	1	21	ButtonPress	Neutral	True
212.273	1.45	Control	0.0364	n/a	No	2.776	n/a	5.0	NoResponse	0	0.042	211.315	1	21	Feedback	Neutral	True
213.727	2.776	Control	0.0364	n/a	No	2.776	n/a	n/a	NoResponse	0	0.0	n/a	1	21	ISIslide	Neutral	True
216.519	0.25	Control	0.0087	0.0	No	2.781	0.019	n/a	NoResponse	0	n/a	n/a	1	22	Cue	Neutral	True
216.769	4.0	Control	0.0087	0.001	No	2.781	0.0	n/a	NoResponse	0	n/a	n/a	1	22	Fixation	Neutral	True
220.765	0.2	Control	0.0087	0.004	No	2.781	-0.004	2.0	NoResponse	0	0.261	220.026	1	22	Target	Neutral	True
220.965	0.5	Control	0.0087	n/a	No	2.781	n/a	n/a	NoResponse	0	n/a	n/a	1	22	Blank	Neutral	True
221.026	0.3	Control	0.0087	0.004	No	2.781	-0.004	2.0	NoResponse	0	0.261	n/a	1	22	ButtonPress	Neutral	True
221.467	1.45	Control	0.0087	n/a	No	2.781	n/a	5.0	NoResponse	0	0.019	220.486	1	22	Feedback	Neutral	True
222.921	2.781	Control	0.0087	n/a	No	2.781	n/a	n/a	NoResponse	0	0.0	n/a	1	22	ISIslide	Neutral	True
225.73	0.25	Control	0.0833	0.0	No	2.77	0.03	n/a	NoResponse	0	n/a	n/a	1	23	Cue	Neutral	True
225.98	3.9	Control	0.0833	0.0	No	2.77	0.0	n/a	NoResponse	0	n/a	n/a	1	23	Fixation	Neutral	True
229.892	0.21	Control	0.0833	0.0	No	2.77	0.012	2.0	NoResponse	0	0.256	229.148	1	23	Target	Neutral	True
230.093	0.49	Control	0.0833	n/a	No	2.77	n/a	n/a	NoResponse	0	n/a	n/a	1	23	Blank	Neutral	True
230.148	0.3	Control	0.0833	0.0	No	2.77	0.012	2.0	NoResponse	0	0.256	n/a	1	23	ButtonPress	Neutral	True
230.577	1.45	Control	0.0833	n/a	No	2.77	n/a	5.0	NoResponse	0	0.031	229.608	1	23	Feedback	Neutral	True
232.032	2.77	Control	0.0833	n/a	No	2.77	n/a	n/a	NoResponse	0	0.0	n/a	1	23	ISIslide	Neutral	True
234.824	0.25	Win2	0.06	0.0	No	3.126	0.024	n/a	NoResponse	0	n/a	n/a	1	24	Cue	MissedWin	True
235.074	3.95	Win2	0.06	0.0	No	3.126	0.0	n/a	NoResponse	0	n/a	n/a	1	24	Fixation	MissedWin	True
239.019	0.22	Win2	0.06	0.005	No	3.126	-0.005	2.0	NoResponse	0	0.243	238.262	1	24	Target	MissedWin	True
239.253	0.48	Win2	0.06	n/a	No	3.126	n/a	n/a	NoResponse	0	n/a	n/a	1	24	Blank	MissedWin	True
239.262	0.3	Win2	0.06	0.005	No	3.126	-0.005	2.0	NoResponse	0	0.243	n/a	1	24	ButtonPress	MissedWin	True
239.722	1.45	Win2	0.06	n/a	No	3.126	n/a	5.0	NoResponse	0	0.009	238.731	1	24	Feedback	MissedWin	True
241.176	3.126	Win2	0.06	n/a	No	3.126	n/a	n/a	NoResponse	0	0.0	n/a	1	24	ISIslide	MissedWin	True
244.319	0.25	Win2	0.07690000000000001	0.0	Yes	3.081	0.019	n/a	GoodResponse	1	n/a	n/a	2	25	Cue	Win	True
244.569	4.0	Win2	0.07690000000000001	0.0	Yes	3.081	0.0	n/a	GoodResponse	1	n/a	n/a	2	25	Fixation	Win	True
248.565	0.23	Win2	0.07690000000000001	0.004	Yes	3.081	-0.004	2.0	GoodResponse	1	0.214	247.779	2	25	Target	Win	True
248.779	0.3	Win2	0.07690000000000001	0.004	Yes	3.081	-0.004	2.0	GoodResponse	1	0.214	n/a	2	25	ButtonPress	Win	True
248.799	0.47	Win2	0.07690000000000001	n/a	Yes	3.081	n/a	n/a	GoodResponse	1	n/a	n/a	2	25	Blank	Win	True
249.267	1.45	Win2	0.07690000000000001	n/a	Yes	3.081	n/a	5.0	GoodResponse	1	0.024	248.291	2	25	Feedback	Win	True
250.721	3.081	Win2	0.07690000000000001	n/a	Yes	3.081	n/a	n/a	GoodResponse	1	0.0	n/a	2	25	ISIslide	Win	True
253.831	0.25	Win2	0.0926	0.0	Yes	2.919	0.031	n/a	GoodResponse	1	n/a	n/a	3	26	Cue	Win	True
254.081	3.95	Win2	0.0926	0.0	Yes	2.919	0.0	n/a	GoodResponse	1	n/a	n/a	3	26	Fixation	Win	True
258.043	0.24	Win2	0.0926	0.0	Yes	2.919	0.012	2.0	GoodResponse	1	0.209	257.252	3	26	Target	Win	True
258.252	0.3	Win2	0.0926	0.0	Yes	2.919	0.012	2.0	GoodResponse	1	0.209	n/a	3	26	ButtonPress	Win	True
258.277	0.46	Win2	0.0926	n/a	Yes	2.919	n/a	n/a	GoodResponse	1	n/a	n/a	3	26	Blank	Win	True
258.729	1.45	Win2	0.0926	n/a	Yes	2.919	n/a	5.0	GoodResponse	1	0.024	257.753	3	26	Feedback	Win	True
260.183	2.919	Win2	0.0926	n/a	Yes	2.919	n/a	n/a	GoodResponse	1	0.0	n/a	3	26	ISIslide	Win	True
263.125	0.25	Lose2	0.0070999999999999995	0.0	Yes	2.825	0.025	n/a	GoodResponse	0	n/a	n/a	3	27	Cue	AvoidedLoss	True
263.376	4.05	Lose2	0.0070999999999999995	0.0	Yes	2.825	0.001	n/a	GoodResponse	0	n/a	n/a	3	27	Fixation	AvoidedLoss	True
267.421	0.25	Lose2	0.0070999999999999995	0.004	Yes	2.825	-0.004	2.0	GoodResponse	0	0.247	266.668	3	27	Target	AvoidedLoss	True
267.668	0.3	Lose2	0.0070999999999999995	0.004	Yes	2.825	-0.004	2.0	GoodResponse	0	0.247	n/a	3	27	ButtonPress	AvoidedLoss	True
267.672	0.45	Lose2	0.0070999999999999995	n/a	Yes	2.825	n/a	n/a	GoodResponse	0	n/a	n/a	3	27	Blank	AvoidedLoss	True
268.123	1.45	Lose2	0.0070999999999999995	n/a	Yes	2.825	n/a	5.0	GoodResponse	0	0.045	267.168	3	27	Feedback	AvoidedLoss	True
269.578	2.825	Lose2	0.0070999999999999995	n/a	Yes	2.825	n/a	n/a	GoodResponse	0	0.0	n/a	3	27	ISIslide	AvoidedLoss	True
272.42	0.25	Control	0.0207	0.0	Yes	2.83	0.02	n/a	GoodResponse	0	n/a	n/a	3	28	Cue	Neutral	True
272.67	4.05	Control	0.0207	0.0	Yes	2.83	0.0	n/a	GoodResponse	0	n/a	n/a	3	28	Fixation	Neutral	True
276.716	0.26	Control	0.0207	0.004	Yes	2.83	-0.004	2.0	GoodResponse	0	0.196	275.912	3	28	Target	Neutral	True
276.912	0.3	Control	0.0207	0.004	Yes	2.83	-0.004	2.0	GoodResponse	0	0.196	n/a	3	28	ButtonPress	Neutral	True
276.983	0.44	Control	0.0207	n/a	Yes	2.83	n/a	n/a	GoodResponse	0	n/a	n/a	3	28	Blank	Neutral	True
277.418	1.45	Control	0.0207	n/a	Yes	2.83	n/a	5.0	GoodResponse	0	0.019	276.437	3	28	Feedback	Neutral	True
278.872	2.83	Control	0.0207	n/a	Yes	2.83	n/a	n/a	GoodResponse	0	0.0	n/a	3	28	ISIslide	Neutral	True
281.731	0.25	Lose2	0.0333	0.0	Yes	2.819	0.031	n/a	GoodResponse	0	n/a	n/a	3	29	Cue	AvoidedLoss	True
281.982	3.95	Lose2	0.0333	0.0	Yes	2.819	0.001	n/a	GoodResponse	0	n/a	n/a	3	29	Fixation	AvoidedLoss	True
285.927	0.27	Lose2	0.0333	0.004	Yes	2.819	-0.004	2.0	GoodResponse	0	0.252	285.179	3	29	Target	AvoidedLoss	True
286.179	0.3	Lose2	0.0333	0.004	Yes	2.819	-0.004	2.0	GoodResponse	0	0.252	n/a	3	29	ButtonPress	AvoidedLoss	True
286.211	0.43	Lose2	0.0333	n/a	Yes	2.819	n/a	n/a	GoodResponse	0	n/a	n/a	3	29	Blank	AvoidedLoss	True
286.629	1.45	Lose2	0.0333	n/a	Yes	2.819	n/a	5.0	GoodResponse	0	0.027	285.656	3	29	Feedback	AvoidedLoss	True
288.083	2.819	Lose2	0.0333	n/a	Yes	2.819	n/a	n/a	GoodResponse	0	0.0	n/a	3	29	ISIslide	AvoidedLoss	True
290.925	0.25	Win2	0.0452	0.0	Yes	2.775	0.025	n/a	GoodResponse	1	n/a	n/a	4	30	Cue	Win	True
291.176	3.9	Win2	0.0452	0.0	Yes	2.775	0.001	n/a	GoodResponse	1	n/a	n/a	4	30	Fixation	Win	True
295.071	0.28	Win2	0.0452	0.004	Yes	2.775	-0.004	2.0	GoodResponse	1	0.23	294.301	4	30	Target	Win	True
295.301	0.3	Win2	0.0452	0.004	Yes	2.775	-0.004	2.0	GoodResponse	1	0.23	n/a	4	30	ButtonPress	Win	True
295.355	0.42	Win2	0.0452	n/a	Yes	2.775	n/a	n/a	GoodResponse	1	n/a	n/a	4	30	Blank	Win	True
295.773	1.45	Win2	0.0452	n/a	Yes	2.775	n/a	5.0	GoodResponse	1	0.008	294.781	4	30	Feedback	Win	True
297.227	2.775	Win2	0.0452	n/a	Yes	2.775	n/a	n/a	GoodResponse	1	0.0	n/a	4	30	ISIslide	Win	True
300.019	0.25	Lose2	0.025	0.0	No	2.831	0.019	n/a	NoResponse	-1	n/a	n/a	3	31	Cue	Loss	True
300.27	4.05	Lose2	0.025	0.0	No	2.831	0.001	n/a	NoResponse	-1	n/a	n/a	3	31	Fixation	Loss	True
304.315	0.29	Lose2	0.025	0.004	No	2.831	-0.004	2.0	NoResponse	-1	0.347	303.662	3	31	Target	Loss	True
304.616	0.41	Lose2	0.025	n/a	No	2.831	n/a	n/a	NoResponse	-1	n/a	n/a	3	31	Blank	Loss	True
304.662	0.3	Lose2	0.025	0.004	No	2.831	-0.004	2.0	NoResponse	-1	0.347	n/a	3	31	ButtonPress	Loss	True
305.017	1.45	Lose2	0.025	n/a	No	2.831	n/a	5.0	NoResponse	-1	0.03	304.047	3	31	Feedback	Loss	True
306.472	2.831	Lose2	0.025	n/a	No	2.831	n/a	n/a	NoResponse	-1	0.0	n/a	3	31	ISIslide	Loss	True
309.33	0.25	Lose2	0.0364	0.0	Yes	2.62	0.03	n/a	GoodResponse	0	n/a	n/a	3	32	Cue	AvoidedLoss	True
309.581	4.15	Lose2	0.0364	0.0	Yes	2.62	0.001	n/a	GoodResponse	0	n/a	n/a	3	32	Fixation	AvoidedLoss	True
313.727	0.3	Lose2	0.0364	0.003	Yes	2.62	-0.003	2.0	GoodResponse	0	0.226	312.953	3	32	Target	AvoidedLoss	True
313.953	0.3	Lose2	0.0364	0.003	Yes	2.62	-0.003	2.0	GoodResponse	0	0.226	n/a	3	32	ButtonPress	AvoidedLoss	True
314.028	0.4	Lose2	0.0364	n/a	Yes	2.62	n/a	n/a	GoodResponse	0	n/a	n/a	3	32	Blank	AvoidedLoss	True
314.429	1.45	Lose2	0.0364	n/a	Yes	2.62	n/a	5.0	GoodResponse	0	0.032	313.461	3	32	Feedback	AvoidedLoss	True
315.883	2.62	Lose2	0.0364	n/a	Yes	2.62	n/a	n/a	GoodResponse	0	0.0	n/a	3	32	ISIslide	AvoidedLoss	True
318.524	0.25	Win2	0.0471	0.0	Yes	2.676	0.024	n/a	GoodResponse	1	n/a	n/a	4	33	Cue	Win	True
318.775	4.0	Win2	0.0471	0.0	Yes	2.676	0.001	n/a	GoodResponse	1	n/a	n/a	4	33	Fixation	Win	True
322.77	0.31	Win2	0.0471	0.004	Yes	2.676	-0.004	2.0	GoodResponse	1	0.234	322.004	4	33	Target	Win	True
323.004	0.3	Win2	0.0471	0.004	Yes	2.676	-0.004	2.0	GoodResponse	1	0.234	n/a	4	33	ButtonPress	Win	True
323.088	0.39	Win2	0.0471	n/a	Yes	2.676	n/a	n/a	GoodResponse	1	n/a	n/a	4	33	Blank	Win	True
323.473	1.45	Win2	0.0471	n/a	Yes	2.676	n/a	5.0	GoodResponse	1	0.012	322.485	4	33	Feedback	Win	True
324.927	2.676	Win2	0.0471	n/a	Yes	2.676	n/a	n/a	GoodResponse	1	0.0	n/a	4	33	ISIslide	Win	True
327.618	0.25	Lose2	0.0571	0.0	Yes	2.632	0.018	n/a	GoodResponse	0	n/a	n/a	4	34	Cue	AvoidedLoss	True
327.869	4.05	Lose2	0.0571	0.0	Yes	2.632	0.001	n/a	GoodResponse	0	n/a	n/a	4	34	Fixation	AvoidedLoss	True
331.914	0.32	Lose2	0.0571	0.004	Yes	2.632	-0.004	2.0	GoodResponse	0	0.218	331.132	4	34	Target	AvoidedLoss	True
332.132	0.3	Lose2	0.0571	0.004	Yes	2.632	-0.004	2.0	GoodResponse	0	0.218	n/a	4	34	ButtonPress	AvoidedLoss	True
332.249	0.38	Lose2	0.0571	n/a	Yes	2.632	n/a	n/a	GoodResponse	0	n/a	n/a	4	34	Blank	AvoidedLoss	True
332.617	1.45	Lose2	0.0571	n/a	Yes	2.632	n/a	5.0	GoodResponse	0	0.039	331.656	4	34	Feedback	AvoidedLoss	True
334.071	2.632	Lose2	0.0571	n/a	Yes	2.632	n/a	n/a	GoodResponse	0	0.0	n/a	4	34	ISIslide	AvoidedLoss	True
336.729	0.25	Lose2	0.0667	0.0	Yes	2.671	0.029	n/a	GoodResponse	0	n/a	n/a	4	35	Cue	AvoidedLoss	True
336.98	4.0	Lose2	0.0667	0.0	Yes	2.671	0.001	n/a	GoodResponse	0	n/a	n/a	4	35	Fixation	AvoidedLoss	True
340.975	0.32	Lose2	0.0667	0.004	Yes	2.671	-0.004	2.0	GoodResponse	0	0.3	340.275	4	35	Target	AvoidedLoss	True
341.275	0.3	Lose2	0.0667	0.004	Yes	2.671	-0.004	2.0	GoodResponse	0	0.3	n/a	4	35	ButtonPress	AvoidedLoss	True
341.309	0.38	Lose2	0.0667	n/a	Yes	2.671	n/a	n/a	GoodResponse	0	n/a	n/a	4	35	Blank	AvoidedLoss	True
341.677	1.45	Lose2	0.0667	n/a	Yes	2.671	n/a	5.0	GoodResponse	0	0.008	340.685	4	35	Feedback	AvoidedLoss	True
343.131	2.671	Lose2	0.0667	n/a	Yes	2.671	n/a	n/a	GoodResponse	0	0.0	n/a	4	35	ISIslide	AvoidedLoss	True
345.823	0.25	Control	0.0757	0.0	Yes	2.677	0.023	n/a	GoodResponse	0	n/a	n/a	4	36	Cue	Neutral	True
346.074	4.0	Control	0.0757	0.0	Yes	2.677	0.001	n/a	GoodResponse	0	n/a	n/a	4	36	Fixation	Neutral	True
350.069	0.31	Control	0.0757	0.004	Yes	2.677	-0.004	2.0	GoodResponse	0	0.258	349.327	4	36	Target	Neutral	True
350.327	0.3	Control	0.0757	0.004	Yes	2.677	-0.004	2.0	GoodResponse	0	0.258	n/a	4	36	ButtonPress	Neutral	True
350.386	0.39	Control	0.0757	n/a	Yes	2.677	n/a	n/a	GoodResponse	0	n/a	n/a	4	36	Blank	Neutral	True
350.771	1.45	Control	0.0757	n/a	Yes	2.677	n/a	5.0	GoodResponse	0	0.031	349.802	4	36	Feedback	Neutral	True
352.225	2.677	Control	0.0757	n/a	Yes	2.677	n/a	n/a	GoodResponse	0	0.0	n/a	4	36	ISIslide	Neutral	True
354.917	0.25	Win2	0.0842	0.0	Yes	2.883	0.017	n/a	GoodResponse	1	n/a	n/a	5	37	Cue	Win	True
355.167	4.0	Win2	0.0842	0.001	Yes	2.883	0.0	n/a	GoodResponse	1	n/a	n/a	5	37	Fixation	Win	True
359.163	0.3	Win2	0.0842	0.004	Yes	2.883	-0.004	2.0	GoodResponse	1	0.265	358.428	5	37	Target	Win	True
359.428	0.3	Win2	0.0842	0.004	Yes	2.883	-0.004	2.0	GoodResponse	1	0.265	n/a	5	37	ButtonPress	Win	True
359.464	0.4	Win2	0.0842	n/a	Yes	2.883	n/a	n/a	GoodResponse	1	n/a	n/a	5	37	Blank	Win	True
359.865	1.45	Win2	0.0842	n/a	Yes	2.883	n/a	5.0	GoodResponse	1	0.011	358.876	5	37	Feedback	Win	True
361.319	2.883	Win2	0.0842	n/a	Yes	2.883	n/a	n/a	GoodResponse	1	0.0	n/a	5	37	ISIslide	Win	True
364.228	0.25	Lose2	0.09230000000000001	0.0	Yes	2.822	0.028	n/a	GoodResponse	0	n/a	n/a	5	38	Cue	AvoidedLoss	True
364.479	3.95	Lose2	0.09230000000000001	0.0	Yes	2.822	0.001	n/a	GoodResponse	0	n/a	n/a	5	38	Fixation	AvoidedLoss	True
368.424	0.29	Lose2	0.09230000000000001	0.004	Yes	2.822	-0.004	2.0	GoodResponse	0	0.244	367.668	5	38	Target	AvoidedLoss	True
368.668	0.3	Lose2	0.09230000000000001	0.004	Yes	2.822	-0.004	2.0	GoodResponse	0	0.244	n/a	5	38	ButtonPress	AvoidedLoss	True
368.725	0.41	Lose2	0.09230000000000001	n/a	Yes	2.822	n/a	n/a	GoodResponse	0	n/a	n/a	5	38	Blank	AvoidedLoss	True
369.126	1.45	Lose2	0.09230000000000001	n/a	Yes	2.822	n/a	5.0	GoodResponse	0	0.018	368.144	5	38	Feedback	AvoidedLoss	True
370.58	2.822	Lose2	0.09230000000000001	n/a	Yes	2.822	n/a	n/a	GoodResponse	0	0.0	n/a	5	38	ISIslide	AvoidedLoss	True
373.422	0.25	Win2	0.0	0.0	Yes	2.978	0.022	n/a	GoodResponse	1	n/a	n/a	6	39	Cue	Win	True
373.673	4.1	Win2	0.0	0.0	Yes	2.978	0.001	n/a	GoodResponse	1	n/a	n/a	6	39	Fixation	Win	True
377.769	0.28	Win2	0.0	0.003	Yes	2.978	-0.003	2.0	GoodResponse	1	0.256	377.025	6	39	Target	Win	True
378.025	0.3	Win2	0.0	0.003	Yes	2.978	-0.003	2.0	GoodResponse	1	0.256	n/a	6	39	ButtonPress	Win	True
378.053	0.42	Win2	0.0	n/a	Yes	2.978	n/a	n/a	GoodResponse	1	n/a	n/a	6	39	Blank	Win	True
378.471	1.45	Win2	0.0	n/a	Yes	2.978	n/a	5.0	GoodResponse	1	0.038	377.509	6	39	Feedback	Win	True
379.925	2.978	Win2	0.0	n/a	Yes	2.978	n/a	n/a	GoodResponse	1	0.0	n/a	6	39	ISIslide	Win	True
382.917	0.25	Win2	0.0073	0.0	Yes	2.733	0.017	n/a	GoodResponse	1	n/a	n/a	7	40	Cue	Win	True
383.168	3.95	Win2	0.0073	0.0	Yes	2.733	0.001	n/a	GoodResponse	1	n/a	n/a	7	40	Fixation	Win	True
387.113	0.27	Win2	0.0073	0.004	Yes	2.733	-0.004	2.0	GoodResponse	1	0.248	386.361	7	40	Target	Win	True
387.361	0.3	Win2	0.0073	0.004	Yes	2.733	-0.004	2.0	GoodResponse	1	0.248	n/a	7	40	ButtonPress	Win	True
387.397	0.43	Win2	0.0073	n/a	Yes	2.733	n/a	n/a	GoodResponse	1	n/a	n/a	7	40	Blank	Win	True
387.815	1.45	Win2	0.0073	n/a	Yes	2.733	n/a	5.0	GoodResponse	1	0.011	386.826	7	40	Feedback	Win	True
389.27	2.733	Win2	0.0073	n/a	Yes	2.733	n/a	n/a	GoodResponse	1	0.0	n/a	7	40	ISIslide	Win	True
392.028	0.25	Win2	0.0143	0.0	Yes	2.772	0.028	n/a	GoodResponse	1	n/a	n/a	8	41	Cue	Win	True
392.279	3.9	Win2	0.0143	0.0	Yes	2.772	0.001	n/a	GoodResponse	1	n/a	n/a	8	41	Fixation	Win	True
396.174	0.26	Win2	0.0143	0.004	Yes	2.772	-0.004	2.0	GoodResponse	1	0.243	395.417	8	41	Target	Win	True
396.417	0.3	Win2	0.0143	0.004	Yes	2.772	-0.004	2.0	GoodResponse	1	0.243	n/a	8	41	ButtonPress	Win	True
396.441	0.44	Win2	0.0143	n/a	Yes	2.772	n/a	n/a	GoodResponse	1	n/a	n/a	8	41	Blank	Win	True
396.876	1.45	Win2	0.0143	n/a	Yes	2.772	n/a	5.0	GoodResponse	1	0.023	395.899	8	41	Feedback	Win	True
398.33	2.772	Win2	0.0143	n/a	Yes	2.772	n/a	n/a	GoodResponse	1	0.0	n/a	8	41	ISIslide	Win	True
401.122	0.25	Control	0.0209	0.0	Yes	2.928	0.022	n/a	GoodResponse	0	n/a	n/a	8	42	Cue	Neutral	True
401.373	3.85	Control	0.0209	0.0	Yes	2.928	0.001	n/a	GoodResponse	0	n/a	n/a	8	42	Fixation	Neutral	True
405.234	0.25	Control	0.0209	0.0	Yes	2.928	0.012	2.0	GoodResponse	0	0.217	404.451	8	42	Target	Neutral	True
405.451	0.3	Control	0.0209	0.0	Yes	2.928	0.012	2.0	GoodResponse	0	0.217	n/a	8	42	ButtonPress	Neutral	True
405.468	0.45	Control	0.0209	n/a	Yes	2.928	n/a	n/a	GoodResponse	0	n/a	n/a	8	42	Blank	Neutral	True
405.92	1.45	Control	0.0209	n/a	Yes	2.928	n/a	5.0	GoodResponse	0	0.008	404.928	8	42	Feedback	Neutral	True
407.374	2.928	Control	0.0209	n/a	Yes	2.928	n/a	n/a	GoodResponse	0	0.0	n/a	8	42	ISIslide	Neutral	True
410.316	0.25	Win2	0.0045000000000000005	0.0	No	3.184	0.016	n/a	NoResponse	0	n/a	n/a	8	43	Cue	MissedWin	True
410.567	4.0	Win2	0.0045000000000000005	0.0	No	3.184	0.001	n/a	NoResponse	0	n/a	n/a	8	43	Fixation	MissedWin	True
414.562	0.24	Win2	0.0045000000000000005	0.004	No	3.184	-0.004	2.0	NoResponse	0	0.31	413.872	8	43	Target	MissedWin	True
414.813	0.46	Win2	0.0045000000000000005	n/a	No	3.184	n/a	n/a	NoResponse	0	n/a	n/a	8	43	Blank	MissedWin	True
414.872	0.3	Win2	0.0045000000000000005	0.004	No	3.184	-0.004	2.0	NoResponse	0	0.31	n/a	8	43	ButtonPress	MissedWin	True
415.264	1.45	Win2	0.0045000000000000005	n/a	No	3.184	n/a	5.0	NoResponse	0	0.026	414.29	8	43	Feedback	MissedWin	True
416.719	3.184	Win2	0.0045000000000000005	n/a	No	3.184	n/a	n/a	NoResponse	0	0.0	n/a	8	43	ISIslide	MissedWin	True
419.928	0.25	Win2	0.0111	0.0	Yes	2.972	0.028	n/a	GoodResponse	1	n/a	n/a	9	44	Cue	Win	True
420.179	4.0	Win2	0.0111	0.0	Yes	2.972	0.001	n/a	GoodResponse	1	n/a	n/a	9	44	Fixation	Win	True
424.174	0.23	Win2	0.0111	0.004	Yes	2.972	-0.004	2.0	GoodResponse	1	0.205	423.379	9	44	Target	Win	True
424.379	0.3	Win2	0.0111	0.004	Yes	2.972	-0.004	2.0	GoodResponse	1	0.205	n/a	9	44	ButtonPress	Win	True
424.408	0.47	Win2	0.0111	n/a	Yes	2.972	n/a	n/a	GoodResponse	1	n/a	n/a	9	44	Blank	Win	True
424.876	1.45	Win2	0.0111	n/a	Yes	2.972	n/a	5.0	GoodResponse	1	0.024	423.9	9	44	Feedback	Win	True
426.331	2.972	Win2	0.0111	n/a	Yes	2.972	n/a	n/a	GoodResponse	1	0.0	n/a	9	44	ISIslide	Win	True
429.323	0.25	Control	0.09570000000000001	0.0	No	2.877	0.023	n/a	NoResponse	0	n/a	n/a	9	45	Cue	Neutral	False
429.574	4.1	Control	0.09570000000000001	0.0	No	2.877	0.001	n/a	NoResponse	0	n/a	n/a	9	45	Fixation	Neutral	False
433.669	0.22	Control	0.09570000000000001	0.004	No	2.877	-0.004	n/a	NoResponse	0	n/a	n/a	9	45	Target	Neutral	False
433.903	0.48	Control	0.09570000000000001	n/a	No	2.877	n/a	n/a	NoResponse	0	n/a	n/a	9	45	Blank	Neutral	False
434.371	1.45	Control	0.09570000000000001	n/a	No	2.877	n/a	5.0	NoResponse	0	0.041	433.412	9	45	Feedback	Neutral	False
435.826	2.877	Control	0.09570000000000001	n/a	No	2.877	n/a	n/a	NoResponse	0	0.0	n/a	9	45	ISIslide	Neutral	False
438.718	0.25	Lose2	0.0809	0.0	No	3.382	0.018	n/a	NoResponse	-1	n/a	n/a	8	46	Cue	Loss	True
438.969	4.0	Lose2	0.0809	0.0	No	3.382	0.001	n/a	NoResponse	-1	n/a	n/a	8	46	Fixation	Loss	True
442.964	0.21	Lose2	0.0809	0.004	No	3.382	-0.004	2.0	NoResponse	-1	0.242	442.206	8	46	Target	Loss	True
443.181	0.49	Lose2	0.0809	n/a	No	3.382	n/a	n/a	NoResponse	-1	n/a	n/a	8	46	Blank	Loss	True
443.206	0.3	Lose2	0.0809	0.004	No	3.382	-0.004	2.0	NoResponse	-1	0.242	n/a	8	46	ButtonPress	Loss	True
443.666	1.45	Lose2	0.0809	n/a	No	3.382	n/a	5.0	NoResponse	-1	0.013	442.679	8	46	Feedback	Loss	True
445.12	3.382	Lose2	0.0809	n/a	No	3.382	n/a	n/a	NoResponse	-1	0.0	n/a	8	46	ISIslide	Loss	True
448.531	0.25	Lose2	0.0667	0.0	No	2.669	0.031	n/a	NoResponse	-1	n/a	n/a	7	47	Cue	Loss	True
448.781	4.0	Lose2	0.0667	0.0	No	2.669	0.0	n/a	NoResponse	-1	n/a	n/a	7	47	Fixation	Loss	True
452.777	0.2	Lose2	0.0667	0.004	No	2.669	-0.004	2.0	NoResponse	-1	0.549	452.326	7	47	Target	Loss	True
452.977	0.5	Lose2	0.0667	n/a	No	2.669	n/a	n/a	NoResponse	-1	n/a	n/a	7	47	Blank	Loss	True
453.326	0.3	Lose2	0.0667	0.004	No	2.669	-0.004	2.0	NoResponse	-1	0.549	n/a	7	47	ButtonPress	Loss	True
453.479	1.45	Lose2	0.0667	n/a	No	2.669	n/a	5.0	NoResponse	-1	0.008	452.487	7	47	Feedback	Loss	True
454.933	2.669	Lose2	0.0667	n/a	No	2.669	n/a	n/a	NoResponse	-1	0.0	n/a	7	47	ISIslide	Loss	True
457.624	0.25	Lose2	0.053099999999999994	0.001	No	3.026	0.024	n/a	NoResponse	-1	n/a	n/a	6	48	Cue	Loss	True
457.875	3.95	Lose2	0.053099999999999994	0.0	No	3.026	0.001	n/a	NoResponse	-1	n/a	n/a	6	48	Fixation	Loss	True
461.82	0.19	Lose2	0.053099999999999994	0.004	No	3.026	-0.004	2.0	NoResponse	-1	0.32	461.14	6	48	Target	Loss	True
462.021	0.51	Lose2	0.053099999999999994	n/a	No	3.026	n/a	n/a	NoResponse	-1	n/a	n/a	6	48	Blank	Loss	True
462.14	0.3	Lose2	0.053099999999999994	0.004	No	3.026	-0.004	2.0	NoResponse	-1	0.32	n/a	6	48	ButtonPress	Loss	True
462.523	1.45	Lose2	0.053099999999999994	n/a	No	3.026	n/a	5.0	NoResponse	-1	0.035	461.558	6	48	Feedback	Loss	True
463.977	3.026	Lose2	0.053099999999999994	n/a	No	3.026	n/a	n/a	NoResponse	-1	0.0	n/a	6	48	ISIslide	Loss	True
467.019	0.25	Control	0.04	0.0	No	2.881	0.019	n/a	NoResponse	0	n/a	n/a	6	49	Cue	Neutral	True
467.27	4.0	Control	0.04	0.0	No	2.881	0.001	n/a	NoResponse	0	n/a	n/a	6	49	Fixation	Neutral	True
471.265	0.2	Control	0.04	0.004	No	2.881	-0.004	2.0	NoResponse	0	0.231	470.496	6	49	Target	Neutral	True
471.466	0.5	Control	0.04	n/a	No	2.881	n/a	n/a	NoResponse	0	n/a	n/a	6	49	Blank	Neutral	True
471.496	0.3	Control	0.04	0.004	No	2.881	-0.004	2.0	NoResponse	0	0.231	n/a	6	49	ButtonPress	Neutral	True
471.967	1.45	Control	0.04	n/a	No	2.881	n/a	5.0	NoResponse	0	0.008	470.975	6	49	Feedback	Neutral	True
473.422	2.881	Control	0.04	n/a	No	2.881	n/a	n/a	NoResponse	0	0.0	n/a	6	49	ISIslide	Neutral	True
476.331	0.25	Control	0.0275	0.0	No	2.769	0.031	n/a	NoResponse	0	n/a	n/a	6	50	Cue	Neutral	False
476.581	4.0	Control	0.0275	0.0	No	2.769	0.0	2.0	NoResponse	0	0.068	475.649	6	50	Fixation	Neutral	False
476.649	0.3	Control	0.0275	0.0	No	2.769	0.0	2.0	NoResponse	0	0.068	n/a	6	50	ButtonPress	Neutral	False
480.577	0.21	Control	0.0275	0.004	No	2.769	-0.004	2.0	NoResponse	0	0.682	480.259	6	50	Target	Neutral	False
480.794	0.49	Control	0.0275	n/a	No	2.769	n/a	n/a	NoResponse	0	n/a	n/a	6	50	Blank	Neutral	False
481.259	0.3	Control	0.0275	0.004	No	2.769	-0.004	2.0	NoResponse	0	0.682	n/a	6	50	ButtonPress	Neutral	False
481.279	1.45	Control	0.0275	n/a	No	2.769	n/a	5.0	NoResponse	0	0.011	480.29	6	50	Feedback	Neutral	False
482.733	2.769	Control	0.0275	n/a	No	2.769	n/a	n/a	NoResponse	0	0.0	n/a	6	50	ISIslide	Neutral	False
485.525	0.25	Control	0.0154	0.0	No	2.725	0.025	n/a	NoResponse	0	n/a	n/a	6	51	Cue	Neutral	True
485.776	3.95	Control	0.0154	0.0	No	2.725	0.001	n/a	NoResponse	0	n/a	n/a	6	51	Fixation	Neutral	True
489.721	0.22	Control	0.0154	0.004	No	2.725	-0.004	2.0	NoResponse	0	0.241	488.962	6	51	Target	Neutral	True
489.955	0.48	Control	0.0154	n/a	No	2.725	n/a	n/a	NoResponse	0	n/a	n/a	6	51	Blank	Neutral	True
489.962	0.3	Control	0.0154	0.004	No	2.725	-0.004	2.0	NoResponse	0	0.241	n/a	6	51	ButtonPress	Neutral	True
490.423	1.45	Control	0.0154	n/a	No	2.725	n/a	5.0	NoResponse	0	0.037	489.46	6	51	Feedback	Neutral	True
491.877	2.725	Control	0.0154	n/a	No	2.725	n/a	n/a	NoResponse	0	0.0	n/a	6	51	ISIslide	Neutral	True
494.619	0.25	Control	0.0226	0.0	Yes	2.631	0.019	n/a	GoodResponse	0	n/a	n/a	6	52	Cue	Neutral	True
494.869	4.05	Control	0.0226	0.0	Yes	2.631	0.0	n/a	GoodResponse	0	n/a	n/a	6	52	Fixation	Neutral	True
498.915	0.23	Control	0.0226	0.004	Yes	2.631	-0.004	2.0	GoodResponse	0	0.221	498.136	6	52	Target	Neutral	True
499.136	0.3	Control	0.0226	0.004	Yes	2.631	-0.004	2.0	GoodResponse	0	0.221	n/a	6	52	ButtonPress	Neutral	True
499.149	0.47	Control	0.0226	n/a	Yes	2.631	n/a	n/a	GoodResponse	0	n/a	n/a	6	52	Blank	Neutral	True
499.617	1.45	Control	0.0226	n/a	Yes	2.631	n/a	5.0	GoodResponse	0	0.013	498.63	6	52	Feedback	Neutral	True
501.071	2.631	Control	0.0226	n/a	Yes	2.631	n/a	n/a	GoodResponse	0	0.0	n/a	6	52	ISIslide	Neutral	True
503.729	0.25	Win2	0.0296	0.0	Yes	2.921	0.029	n/a	GoodResponse	1	n/a	n/a	7	53	Cue	Win	True
503.98	4.05	Win2	0.0296	0.0	Yes	2.921	0.001	n/a	GoodResponse	1	n/a	n/a	7	53	Fixation	Win	True
508.026	0.24	Win2	0.0296	0.003	Yes	2.921	-0.003	2.0	GoodResponse	1	0.236	507.262	7	53	Target	Win	True
508.262	0.3	Win2	0.0296	0.003	Yes	2.921	-0.003	2.0	GoodResponse	1	0.236	n/a	7	53	ButtonPress	Win	True
508.276	0.46	Win2	0.0296	n/a	Yes	2.921	n/a	n/a	GoodResponse	1	n/a	n/a	7	53	Blank	Win	True
508.728	1.45	Win2	0.0296	n/a	Yes	2.921	n/a	5.0	GoodResponse	1	0.024	507.752	7	53	Feedback	Win	True
510.182	2.921	Win2	0.0296	n/a	Yes	2.921	n/a	n/a	GoodResponse	1	0.0	n/a	7	53	ISIslide	Win	True
513.124	0.25	Win2	0.0364	0.0	Yes	2.726	0.024	n/a	GoodResponse	1	n/a	n/a	8	54	Cue	Win	True
513.375	3.95	Win2	0.0364	0.0	Yes	2.726	0.001	n/a	GoodResponse	1	n/a	n/a	8	54	Fixation	Win	True
517.32	0.25	Win2	0.0364	0.004	Yes	2.726	-0.004	2.0	GoodResponse	1	0.199	516.519	8	54	Target	Win	True
517.519	0.3	Win2	0.0364	0.004	Yes	2.726	-0.004	2.0	GoodResponse	1	0.199	n/a	8	54	ButtonPress	Win	True
517.571	0.45	Win2	0.0364	n/a	Yes	2.726	n/a	n/a	GoodResponse	1	n/a	n/a	8	54	Blank	Win	True
518.022	1.45	Win2	0.0364	n/a	Yes	2.726	n/a	5.0	GoodResponse	1	0.047	517.069	8	54	Feedback	Win	True
519.476	2.726	Win2	0.0364	n/a	Yes	2.726	n/a	n/a	GoodResponse	1	0.0	n/a	8	54	ISIslide	Win	True
522.218	0.25	Control	0.0429	0.0	Yes	3.032	0.018	n/a	GoodResponse	0	n/a	n/a	8	55	Cue	Neutral	True
522.469	3.95	Control	0.0429	0.0	Yes	3.032	0.001	n/a	GoodResponse	0	n/a	n/a	8	55	Fixation	Neutral	True
526.414	0.26	Control	0.0429	0.004	Yes	3.032	-0.004	2.0	GoodResponse	0	0.244	525.658	8	55	Target	Neutral	True
526.658	0.3	Control	0.0429	0.004	Yes	3.032	-0.004	2.0	GoodResponse	0	0.244	n/a	8	55	ButtonPress	Neutral	True
526.681	0.44	Control	0.0429	n/a	Yes	3.032	n/a	n/a	GoodResponse	0	n/a	n/a	8	55	Blank	Neutral	True
527.116	1.45	Control	0.0429	n/a	Yes	3.032	n/a	5.0	GoodResponse	0	0.027	526.143	8	55	Feedback	Neutral	True
528.57	3.032	Control	0.0429	n/a	Yes	3.032	n/a	n/a	GoodResponse	0	0.0	n/a	8	55	ISIslide	Neutral	True
531.63	0.25	Control	0.049100000000000005	0.0	Yes	2.82	0.03	n/a	GoodResponse	0	n/a	n/a	8	56	Cue	Neutral	True
531.88	3.95	Control	0.049100000000000005	0.0	Yes	2.82	0.0	n/a	GoodResponse	0	n/a	n/a	8	56	Fixation	Neutral	True
535.842	0.27	Control	0.049100000000000005	0.0	Yes	2.82	0.012	2.0	GoodResponse	0	0.238	535.08	8	56	Target	Neutral	True
536.08	0.3	Control	0.049100000000000005	0.0	Yes	2.82	0.012	2.0	GoodResponse	0	0.238	n/a	8	56	ButtonPress	Neutral	True
536.11	0.43	Control	0.049100000000000005	n/a	Yes	2.82	n/a	n/a	GoodResponse	0	n/a	n/a	8	56	Blank	Neutral	True
536.528	1.45	Control	0.049100000000000005	n/a	Yes	2.82	n/a	5.0	GoodResponse	0	0.029	535.557	8	56	Feedback	Neutral	True
537.982	2.82	Control	0.049100000000000005	n/a	Yes	2.82	n/a	n/a	GoodResponse	0	0.0	n/a	8	56	ISIslide	Neutral	True
540.824	0.25	Control	0.0552	0.0	Yes	3.476	0.024	n/a	GoodResponse	0	n/a	n/a	8	57	Cue	Neutral	True
541.075	4.0	Control	0.0552	0.0	Yes	3.476	0.001	n/a	GoodResponse	0	n/a	n/a	8	57	Fixation	Neutral	True
545.07	0.28	Control	0.0552	0.004	Yes	3.476	-0.004	2.0	GoodResponse	0	0.218	544.288	8	57	Target	Neutral	True
545.288	0.3	Control	0.0552	0.004	Yes	3.476	-0.004	2.0	GoodResponse	0	0.218	n/a	8	57	ButtonPress	Neutral	True
545.354	0.42	Control	0.0552	n/a	Yes	3.476	n/a	n/a	GoodResponse	0	n/a	n/a	8	57	Blank	Neutral	True
545.772	1.45	Control	0.0552	n/a	Yes	3.476	n/a	5.0	GoodResponse	0	0.008	544.78	8	57	Feedback	Neutral	True
547.226	3.476	Control	0.0552	n/a	Yes	3.476	n/a	n/a	GoodResponse	0	0.0	n/a	8	57	ISIslide	Neutral	True
550.72	0.25	Win2	0.061	0.0	Yes	2.73	0.02	n/a	GoodResponse	1	n/a	n/a	9	58	Cue	Win	True
550.971	4.05	Win2	0.061	0.0	Yes	2.73	0.001	n/a	GoodResponse	1	n/a	n/a	9	58	Fixation	Win	True
555.016	0.28	Win2	0.061	0.004	Yes	2.73	-0.004	2.0	GoodResponse	1	0.241	554.257	9	58	Target	Win	True
555.257	0.3	Win2	0.061	0.004	Yes	2.73	-0.004	2.0	GoodResponse	1	0.241	n/a	9	58	ButtonPress	Win	True
555.301	0.42	Win2	0.061	n/a	Yes	2.73	n/a	n/a	GoodResponse	1	n/a	n/a	9	58	Blank	Win	True
555.718	1.45	Win2	0.061	n/a	Yes	2.73	n/a	5.0	GoodResponse	1	0.01	554.728	9	58	Feedback	Win	True
557.173	2.73	Win2	0.061	n/a	Yes	2.73	n/a	n/a	GoodResponse	1	0.0	n/a	9	58	ISIslide	Win	True
559.931	0.25	Lose2	0.0667	0.0	Yes	2.669	0.031	n/a	GoodResponse	0	n/a	n/a	9	59	Cue	AvoidedLoss	True
560.182	4.0	Lose2	0.0667	0.0	Yes	2.669	0.001	n/a	GoodResponse	0	n/a	n/a	9	59	Fixation	AvoidedLoss	True
564.177	0.28	Lose2	0.0667	0.004	Yes	2.669	-0.004	2.0	GoodResponse	0	0.222	563.399	9	59	Target	AvoidedLoss	True
564.399	0.3	Lose2	0.0667	0.004	Yes	2.669	-0.004	2.0	GoodResponse	0	0.222	n/a	9	59	ButtonPress	AvoidedLoss	True
564.461	0.42	Lose2	0.0667	n/a	Yes	2.669	n/a	n/a	GoodResponse	0	n/a	n/a	9	59	Blank	AvoidedLoss	True
564.879	1.45	Lose2	0.0667	n/a	Yes	2.669	n/a	5.0	GoodResponse	0	0.019	563.898	9	59	Feedback	AvoidedLoss	True
566.334	2.669	Lose2	0.0667	n/a	Yes	2.669	n/a	n/a	GoodResponse	0	0.0	n/a	9	59	ISIslide	AvoidedLoss	True
569.025	0.25	Control	0.0721	0.0	Yes	2.675	0.025	n/a	GoodResponse	0	n/a	n/a	9	60	Cue	Neutral	True
569.276	4.0	Control	0.0721	0.0	Yes	2.675	0.001	n/a	GoodResponse	0	n/a	n/a	9	60	Fixation	Neutral	True
573.271	0.27	Control	0.0721	0.004	Yes	2.675	-0.004	2.0	GoodResponse	0	0.266	572.537	9	60	Target	Neutral	True
573.537	0.3	Control	0.0721	0.004	Yes	2.675	-0.004	2.0	GoodResponse	0	0.266	n/a	9	60	ButtonPress	Neutral	True
573.555	0.43	Control	0.0721	n/a	Yes	2.675	n/a	n/a	GoodResponse	0	n/a	n/a	9	60	Blank	Neutral	True
573.973	1.45	Control	0.0721	n/a	Yes	2.675	n/a	5.0	GoodResponse	0	0.047	573.02	9	60	Feedback	Neutral	True
575.427	2.675	Control	0.0721	n/a	Yes	2.675	n/a	n/a	GoodResponse	0	0.0	n/a	9	60	ISIslide	Neutral	True
578.119	0.25	Lose2	0.0774	0.0	Yes	2.981	0.019	n/a	GoodResponse	0	n/a	n/a	9	61	Cue	AvoidedLoss	True
578.37	4.0	Lose2	0.0774	0.0	Yes	2.981	0.001	n/a	GoodResponse	0	n/a	n/a	9	61	Fixation	AvoidedLoss	True
582.365	0.26	Lose2	0.0774	0.004	Yes	2.981	-0.004	2.0	GoodResponse	0	0.244	581.609	9	61	Target	AvoidedLoss	True
582.609	0.3	Lose2	0.0774	0.004	Yes	2.981	-0.004	2.0	GoodResponse	0	0.244	n/a	9	61	ButtonPress	AvoidedLoss	True
582.632	0.44	Lose2	0.0774	n/a	Yes	2.981	n/a	n/a	GoodResponse	0	n/a	n/a	9	61	Blank	AvoidedLoss	True
583.067	1.45	Lose2	0.0774	n/a	Yes	2.981	n/a	5.0	GoodResponse	0	0.027	582.094	9	61	Feedback	AvoidedLoss	True
584.521	2.981	Lose2	0.0774	n/a	Yes	2.981	n/a	n/a	GoodResponse	0	0.0	n/a	9	61	ISIslide	AvoidedLoss	True
587.53	0.25	Lose2	0.0825	0.0	Yes	2.87	0.03	n/a	GoodResponse	0	n/a	n/a	9	62	Cue	AvoidedLoss	True
587.781	3.9	Lose2	0.0825	0.0	Yes	2.87	0.001	n/a	GoodResponse	0	n/a	n/a	9	62	Fixation	AvoidedLoss	True
591.676	0.25	Lose2	0.0825	0.004	Yes	2.87	-0.004	2.0	GoodResponse	0	0.239	590.915	9	62	Target	AvoidedLoss	True
591.915	0.3	Lose2	0.0825	0.004	Yes	2.87	-0.004	2.0	GoodResponse	0	0.239	n/a	9	62	ButtonPress	AvoidedLoss	True
591.927	0.45	Lose2	0.0825	n/a	Yes	2.87	n/a	n/a	GoodResponse	0	n/a	n/a	9	62	Blank	AvoidedLoss	True
592.378	1.45	Lose2	0.0825	n/a	Yes	2.87	n/a	5.0	GoodResponse	0	0.033	591.411	9	62	Feedback	AvoidedLoss	True
593.833	2.87	Lose2	0.0825	n/a	Yes	2.87	n/a	n/a	GoodResponse	0	0.0	n/a	9	62	ISIslide	AvoidedLoss	True
596.725	0.25	Lose2	0.0719	0.0	No	2.625	0.025	n/a	NoResponse	-1	n/a	n/a	8	63	Cue	Loss	True
596.975	4.05	Lose2	0.0719	0.0	No	2.625	0.0	n/a	NoResponse	-1	n/a	n/a	8	63	Fixation	Loss	True
601.021	0.24	Lose2	0.0719	0.004	No	2.625	-0.004	2.0	NoResponse	-1	0.279	600.3	8	63	Target	Loss	True
601.272	0.46	Lose2	0.0719	n/a	No	2.625	n/a	n/a	NoResponse	-1	n/a	n/a	8	63	Blank	Loss	True
601.3	0.3	Lose2	0.0719	0.004	No	2.625	-0.004	2.0	NoResponse	-1	0.279	n/a	8	63	ButtonPress	Loss	True
601.723	1.45	Lose2	0.0719	n/a	No	2.625	n/a	5.0	NoResponse	-1	0.007	600.73	8	63	Feedback	Loss	True
603.177	2.625	Lose2	0.0719	n/a	No	2.625	n/a	n/a	NoResponse	-1	0.0	n/a	8	63	ISIslide	Loss	True
605.819	0.25	Win2	0.061500000000000006	0.0	No	3.131	0.019	n/a	NoResponse	0	n/a	n/a	8	64	Cue	MissedWin	True
606.069	4.15	Win2	0.061500000000000006	0.0	No	3.131	0.0	n/a	NoResponse	0	n/a	n/a	8	64	Fixation	MissedWin	True
610.215	0.23	Win2	0.061500000000000006	0.004	No	3.131	-0.004	2.0	NoResponse	0	0.248	609.463	8	64	Target	MissedWin	True
610.449	0.47	Win2	0.061500000000000006	n/a	No	3.131	n/a	n/a	NoResponse	0	n/a	n/a	8	64	Blank	MissedWin	True
610.463	0.3	Win2	0.061500000000000006	0.004	No	3.131	-0.004	2.0	NoResponse	0	0.248	n/a	8	64	ButtonPress	MissedWin	True
610.917	1.45	Win2	0.061500000000000006	n/a	No	3.131	n/a	5.0	NoResponse	0	0.031	609.948	8	64	Feedback	MissedWin	True
612.372	3.131	Win2	0.061500000000000006	n/a	No	3.131	n/a	n/a	NoResponse	0	0.0	n/a	8	64	ISIslide	MissedWin	True
615.531	0.25	Control	0.051500000000000004	0.0	No	2.769	0.031	n/a	NoResponse	0	n/a	n/a	8	65	Cue	Neutral	True
615.782	4.0	Control	0.051500000000000004	0.0	No	2.769	0.001	n/a	NoResponse	0	n/a	n/a	8	65	Fixation	Neutral	True
619.777	0.23	Control	0.051500000000000004	0.004	No	2.769	-0.004	2.0	NoResponse	0	0.271	619.048	8	65	Target	Neutral	True
620.011	0.47	Control	0.051500000000000004	n/a	No	2.769	n/a	n/a	NoResponse	0	n/a	n/a	8	65	Blank	Neutral	True
620.048	0.3	Control	0.051500000000000004	0.004	No	2.769	-0.004	2.0	NoResponse	0	0.271	n/a	8	65	ButtonPress	Neutral	True
620.479	1.45	Control	0.051500000000000004	n/a	No	2.769	n/a	5.0	NoResponse	0	0.029	619.508	8	65	Feedback	Neutral	True
621.933	2.769	Control	0.051500000000000004	n/a	No	2.769	n/a	n/a	NoResponse	0	0.0	n/a	8	65	ISIslide	Neutral	True
624.725	0.25	Win2	0.0418	0.0	No	2.775	0.025	n/a	NoResponse	0	n/a	n/a	8	66	Cue	MissedWin	True
624.976	3.9	Win2	0.0418	0.0	No	2.775	0.001	n/a	NoResponse	0	n/a	n/a	8	66	Fixation	MissedWin	True
628.871	0.24	Win2	0.0418	0.004	No	2.775	-0.004	2.0	NoResponse	0	0.289	628.16	8	66	Target	MissedWin	True
629.122	0.46	Win2	0.0418	n/a	No	2.775	n/a	n/a	NoResponse	0	n/a	n/a	8	66	Blank	MissedWin	True
629.16	0.3	Win2	0.0418	0.004	No	2.775	-0.004	2.0	NoResponse	0	0.289	n/a	8	66	ButtonPress	MissedWin	True
629.573	1.45	Win2	0.0418	n/a	No	2.775	n/a	5.0	NoResponse	0	0.008	628.581	8	66	Feedback	MissedWin	True
631.027	2.775	Win2	0.0418	n/a	No	2.775	n/a	n/a	NoResponse	0	0.0	n/a	8	66	ISIslide	MissedWin	True
633.819	0.25	Control	0.0471	0.0	Yes	2.731	0.019	n/a	GoodResponse	0	n/a	n/a	8	67	Cue	Neutral	True
634.07	3.95	Control	0.0471	0.0	Yes	2.731	0.001	n/a	GoodResponse	0	n/a	n/a	8	67	Fixation	Neutral	True
638.015	0.25	Control	0.0471	0.004	Yes	2.731	-0.004	2.0	GoodResponse	0	0.234	637.249	8	67	Target	Neutral	True
638.249	0.3	Control	0.0471	0.004	Yes	2.731	-0.004	2.0	GoodResponse	0	0.234	n/a	8	67	ButtonPress	Neutral	True
638.266	0.45	Control	0.0471	n/a	Yes	2.731	n/a	n/a	GoodResponse	0	n/a	n/a	8	67	Blank	Neutral	True
638.717	1.45	Control	0.0471	n/a	Yes	2.731	n/a	5.0	GoodResponse	0	0.035	637.752	8	67	Feedback	Neutral	True
640.171	2.731	Control	0.0471	n/a	Yes	2.731	n/a	n/a	GoodResponse	0	0.0	n/a	8	67	ISIslide	Neutral	True
642.93	0.25	Win2	0.052199999999999996	0.0	Yes	3.07	0.03	n/a	GoodResponse	1	n/a	n/a	9	68	Cue	Win	True
643.18	4.0	Win2	0.052199999999999996	0.001	Yes	3.07	0.0	n/a	GoodResponse	1	n/a	n/a	9	68	Fixation	Win	True
647.176	0.26	Win2	0.052199999999999996	0.004	Yes	3.07	-0.004	2.0	GoodResponse	1	0.251	646.427	9	68	Target	Win	True
647.427	0.3	Win2	0.052199999999999996	0.004	Yes	3.07	-0.004	2.0	GoodResponse	1	0.251	n/a	9	68	ButtonPress	Win	True
647.443	0.44	Win2	0.052199999999999996	n/a	Yes	3.07	n/a	n/a	GoodResponse	1	n/a	n/a	9	68	Blank	Win	True
647.878	1.45	Win2	0.052199999999999996	n/a	Yes	3.07	n/a	5.0	GoodResponse	1	0.045	646.923	9	68	Feedback	Win	True
649.332	3.07	Win2	0.052199999999999996	n/a	Yes	3.07	n/a	n/a	GoodResponse	1	0.0	n/a	9	68	ISIslide	Win	True
652.425	0.25	Win2	0.0571	0.0	Yes	3.225	0.025	n/a	GoodResponse	1	n/a	n/a	10	69	Cue	Win	True
652.676	3.95	Win2	0.0571	0.0	Yes	3.225	0.001	n/a	GoodResponse	1	n/a	n/a	10	69	Fixation	Win	True
656.621	0.27	Win2	0.0571	0.004	Yes	3.225	-0.004	2.0	GoodResponse	1	0.22	655.841	10	69	Target	Win	True
656.841	0.3	Win2	0.0571	0.004	Yes	3.225	-0.004	2.0	GoodResponse	1	0.22	n/a	10	69	ButtonPress	Win	True
656.905	0.43	Win2	0.0571	n/a	Yes	3.225	n/a	n/a	GoodResponse	1	n/a	n/a	10	69	Blank	Win	True
657.323	1.45	Win2	0.0571	n/a	Yes	3.225	n/a	5.0	GoodResponse	1	0.014	656.337	10	69	Feedback	Win	True
658.777	3.225	Win2	0.0571	n/a	Yes	3.225	n/a	n/a	GoodResponse	1	0.0	n/a	10	69	ISIslide	Win	True
662.02	0.25	Lose2	0.062	0.0	Yes	3.03	0.02	n/a	GoodResponse	0	n/a	n/a	10	70	Cue	AvoidedLoss	True
662.271	4.05	Lose2	0.062	0.0	Yes	3.03	0.001	n/a	GoodResponse	0	n/a	n/a	10	70	Fixation	AvoidedLoss	True
666.316	0.27	Lose2	0.062	0.004	Yes	3.03	-0.004	2.0	GoodResponse	0	0.208	665.524	10	70	Target	AvoidedLoss	True
666.524	0.3	Lose2	0.062	0.004	Yes	3.03	-0.004	2.0	GoodResponse	0	0.208	n/a	10	70	ButtonPress	AvoidedLoss	True
666.601	0.43	Lose2	0.062	n/a	Yes	3.03	n/a	n/a	GoodResponse	0	n/a	n/a	10	70	Blank	AvoidedLoss	True
667.019	1.45	Lose2	0.062	n/a	Yes	3.03	n/a	5.0	GoodResponse	0	0.026	666.045	10	70	Feedback	AvoidedLoss	True
668.473	3.03	Lose2	0.062	n/a	Yes	3.03	n/a	n/a	GoodResponse	0	0.0	n/a	10	70	ISIslide	AvoidedLoss	True
671.515	0.25	Win2	0.0667	0.0	Yes	2.735	0.015	n/a	GoodResponse	1	n/a	n/a	11	71	Cue	Win	True
671.766	4.05	Win2	0.0667	0.0	Yes	2.735	0.001	n/a	GoodResponse	1	n/a	n/a	11	71	Fixation	Win	True
675.812	0.27	Win2	0.0667	0.003	Yes	2.735	-0.003	2.0	GoodResponse	1	0.215	675.027	11	71	Target	Win	True
676.027	0.3	Win2	0.0667	0.003	Yes	2.735	-0.003	2.0	GoodResponse	1	0.215	n/a	11	71	ButtonPress	Win	True
676.096	0.43	Win2	0.0667	n/a	Yes	2.735	n/a	n/a	GoodResponse	1	n/a	n/a	11	71	Blank	Win	True
676.514	1.45	Win2	0.0667	n/a	Yes	2.735	n/a	5.0	GoodResponse	1	0.042	675.556	11	71	Feedback	Win	True
677.968	2.735	Win2	0.0667	n/a	Yes	2.735	n/a	n/a	GoodResponse	1	0.0	n/a	11	71	ISIslide	Win	True
680.726	0.25	Win2	0.0712	0.0	Yes	2.774	0.026	n/a	GoodResponse	1	n/a	n/a	12	72	Cue	Win	True
680.977	4.1	Win2	0.0712	0.0	Yes	2.774	0.001	n/a	GoodResponse	1	n/a	n/a	12	72	Fixation	Win	True
685.073	0.26	Win2	0.0712	0.003	Yes	2.774	-0.003	2.0	GoodResponse	1	0.259	684.332	12	72	Target	Win	True
685.332	0.3	Win2	0.0712	0.003	Yes	2.774	-0.003	2.0	GoodResponse	1	0.259	n/a	12	72	ButtonPress	Win	True
685.34	0.44	Win2	0.0712	n/a	Yes	2.774	n/a	n/a	GoodResponse	1	n/a	n/a	12	72	Blank	Win	True
685.775	1.45	Win2	0.0712	n/a	Yes	2.774	n/a	5.0	GoodResponse	1	0.007	684.782	12	72	Feedback	Win	True
687.229	2.774	Win2	0.0712	n/a	Yes	2.774	n/a	n/a	GoodResponse	1	0.0	n/a	12	72	ISIslide	Win	True
690.021	0.25	Win2	0.0757	0.0	Yes	2.679	0.021	n/a	GoodResponse	1	n/a	n/a	13	73	Cue	Win	True
690.272	4.0	Win2	0.0757	0.0	Yes	2.679	0.001	n/a	GoodResponse	1	n/a	n/a	13	73	Fixation	Win	True
694.267	0.25	Win2	0.0757	0.004	Yes	2.679	-0.004	2.0	GoodResponse	1	0.207	693.474	13	73	Target	Win	True
694.474	0.3	Win2	0.0757	0.004	Yes	2.679	-0.004	2.0	GoodResponse	1	0.207	n/a	13	73	ButtonPress	Win	True
694.518	0.45	Win2	0.0757	n/a	Yes	2.679	n/a	n/a	GoodResponse	1	n/a	n/a	13	73	Blank	Win	True
694.969	1.45	Win2	0.0757	n/a	Yes	2.679	n/a	5.0	GoodResponse	1	0.026	693.995	13	73	Feedback	Win	True
696.423	2.679	Win2	0.0757	n/a	Yes	2.679	n/a	n/a	GoodResponse	1	0.0	n/a	13	73	ISIslide	Win	True
699.131	0.25	Lose2	0.0667	0.001	No	2.619	0.031	n/a	NoResponse	-1	n/a	n/a	12	74	Cue	Loss	True
699.382	4.05	Lose2	0.0667	0.0	No	2.619	0.001	n/a	NoResponse	-1	n/a	n/a	12	74	Fixation	Loss	True
703.428	0.24	Lose2	0.0667	0.003	No	2.619	-0.003	2.0	NoResponse	-1	0.337	702.765	12	74	Target	Loss	True
703.678	0.46	Lose2	0.0667	n/a	No	2.619	n/a	n/a	NoResponse	-1	n/a	n/a	12	74	Blank	Loss	True
703.765	0.3	Lose2	0.0667	0.003	No	2.619	-0.003	2.0	NoResponse	-1	0.337	n/a	12	74	ButtonPress	Loss	True
704.13	1.45	Lose2	0.0667	n/a	No	2.619	n/a	5.0	NoResponse	-1	0.036	703.166	12	74	Feedback	Loss	True
705.584	2.619	Lose2	0.0667	n/a	No	2.619	n/a	n/a	NoResponse	-1	0.0	n/a	12	74	ISIslide	Loss	True
708.225	0.25	Lose2	0.0711	0.0	Yes	2.925	0.025	n/a	GoodResponse	0	n/a	n/a	12	75	Cue	AvoidedLoss	True
708.476	3.95	Lose2	0.0711	0.0	Yes	2.925	0.001	n/a	GoodResponse	0	n/a	n/a	12	75	Fixation	AvoidedLoss	True
712.421	0.23	Lose2	0.0711	0.004	Yes	2.925	-0.004	2.0	GoodResponse	0	0.223	711.644	12	75	Target	AvoidedLoss	True
712.644	0.3	Lose2	0.0711	0.004	Yes	2.925	-0.004	2.0	GoodResponse	0	0.223	n/a	12	75	ButtonPress	AvoidedLoss	True
712.655	0.47	Lose2	0.0711	n/a	Yes	2.925	n/a	n/a	GoodResponse	0	n/a	n/a	12	75	Blank	AvoidedLoss	True
713.123	1.45	Lose2	0.0711	n/a	Yes	2.925	n/a	5.0	GoodResponse	0	0.019	712.142	12	75	Feedback	AvoidedLoss	True
714.578	2.925	Lose2	0.0711	n/a	Yes	2.925	n/a	n/a	GoodResponse	0	0.0	n/a	12	75	ISIslide	AvoidedLoss	True
717.52	0.25	Control	0.0623	0.0	No	3.23	0.02	n/a	NoResponse	0	n/a	n/a	12	76	Cue	Neutral	True
717.771	4.05	Control	0.0623	0.0	No	3.23	0.001	n/a	NoResponse	0	n/a	n/a	12	76	Fixation	Neutral	True
721.816	0.22	Control	0.0623	0.004	No	3.23	-0.004	2.0	NoResponse	0	0.258	721.074	12	76	Target	Neutral	True
722.05	0.48	Control	0.0623	n/a	No	3.23	n/a	n/a	NoResponse	0	n/a	n/a	12	76	Blank	Neutral	True
722.074	0.3	Control	0.0623	0.004	No	3.23	-0.004	2.0	NoResponse	0	0.258	n/a	12	76	ButtonPress	Neutral	True
722.518	1.45	Control	0.0623	n/a	No	3.23	n/a	5.0	NoResponse	0	0.039	721.557	12	76	Feedback	Neutral	True
723.973	3.23	Control	0.0623	n/a	No	3.23	n/a	n/a	NoResponse	0	0.0	n/a	12	76	ISIslide	Neutral	True
727.216	0.25	Lose2	0.0538	0.0	No	2.584	0.016	n/a	LatePress	-1	n/a	n/a	11	77	Cue	Loss	True
727.466	3.95	Lose2	0.0538	0.0	No	2.584	0.0	n/a	LatePress	-1	n/a	n/a	11	77	Fixation	Loss	True
731.412	0.22	Lose2	0.0538	0.004	No	2.584	-0.004	2.0	LatePress	-1	0.22	730.632	11	77	Target	Loss	True
731.632	0.3	Lose2	0.0538	0.004	No	2.584	-0.004	2.0	LatePress	-1	0.22	n/a	11	77	ButtonPress	Loss	True
731.646	0.48	Lose2	0.0538	n/a	No	2.584	n/a	n/a	LatePress	-1	n/a	n/a	11	77	Blank	Loss	True
732.114	1.45	Lose2	0.0538	n/a	No	2.584	n/a	5.0	LatePress	-1	0.008	731.122	11	77	Feedback	Loss	True
733.568	2.584	Lose2	0.0538	n/a	No	2.584	n/a	n/a	LatePress	-1	0.0	n/a	11	77	ISIslide	Loss	True
