onset	duration	cue_type	current_mean_accuracy	duration_error	is_hit	isi_adjusted	onset_delay	response	response_type	reward	rt	rt_time	total_reward	trial_number	trial_phase	trial_type	one_press
11.096	0.25	Control	1.0	0.0	Yes	2.954	-0.004	n/a	GoodResponse	0	n/a	n/a	0	0	Cue	Neutral	True
11.346	3.85	Control	1.0	0.0	Yes	2.954	0.0	n/a	GoodResponse	0	n/a	n/a	0	0	Fixation	Neutral	True
15.195	0.4	Control	1.0	0.001	Yes	2.954	-0.001	2.0	GoodResponse	0	0.291	14.486	0	0	Target	Neutral	True
15.486	0.3	Control	1.0	0.001	Yes	2.954	-0.001	2.0	GoodResponse	0	0.291	n/a	0	0	ButtonPress	Neutral	True
15.595	0.3	Control	1.0	n/a	Yes	2.954	n/a	n/a	GoodResponse	0	n/a	n/a	0	0	Blank	Neutral	True
15.895	1.45	Control	1.0	n/a	Yes	2.954	n/a	5.0	GoodResponse	0	0.035	14.93	0	0	Feedback	Neutral	True
17.344	2.954	Control	1.0	n/a	Yes	2.954	n/a	n/a	GoodResponse	0	0.0	n/a	0	0	ISIslide	Neutral	True
20.376	0.25	Lose2	1.0	0.001	Yes	2.724	0.076	n/a	GoodResponse	0	n/a	n/a	0	1	Cue	AvoidedLoss	True
20.626	4.0	Lose2	1.0	0.0	Yes	2.724	0.0	n/a	GoodResponse	0	n/a	n/a	0	1	Fixation	AvoidedLoss	True
24.625	0.39	Lose2	1.0	0.001	Yes	2.724	-0.001	2.0	GoodResponse	0	0.184	23.809	0	1	Target	AvoidedLoss	True
24.809	0.3	Lose2	1.0	0.001	Yes	2.724	-0.001	2.0	GoodResponse	0	0.184	n/a	0	1	ButtonPress	AvoidedLoss	True
25.025	0.31	Lose2	1.0	n/a	Yes	2.724	n/a	n/a	GoodResponse	0	n/a	n/a	0	1	Blank	AvoidedLoss	True
25.325	1.45	Lose2	1.0	n/a	Yes	2.724	n/a	5.0	GoodResponse	0	0.019	24.344	0	1	Feedback	AvoidedLoss	True
26.774	2.724	Lose2	1.0	n/a	Yes	2.724	n/a	n/a	GoodResponse	0	0.0	n/a	0	1	ISIslide	AvoidedLoss	True
29.523	0.25	Control	1.0	0.0	Yes	2.577	0.023	n/a	GoodResponse	0	n/a	n/a	0	2	Cue	Neutral	True
29.773	4.1	Control	1.0	0.0	Yes	2.577	0.0	n/a	GoodResponse	0	n/a	n/a	0	2	Fixation	Neutral	True
33.872	0.38	Control	1.0	0.001	Yes	2.577	-0.001	2.0	GoodResponse	0	0.172	33.044	0	2	Target	Neutral	True
34.044	0.3	Control	1.0	0.001	Yes	2.577	-0.001	2.0	GoodResponse	0	0.172	n/a	0	2	ButtonPress	Neutral	True
34.255	0.32	Control	1.0	n/a	Yes	2.577	n/a	n/a	GoodResponse	0	n/a	n/a	0	2	Blank	Neutral	True
34.572	1.45	Control	1.0	n/a	Yes	2.577	n/a	5.0	GoodResponse	0	0.04	33.612	0	2	Feedback	Neutral	True
36.021	2.577	Control	1.0	n/a	Yes	2.577	n/a	n/a	GoodResponse	0	0.0	n/a	0	2	ISIslide	Neutral	True
38.687	0.25	Win2	1.0	0.0	Yes	2.763	0.087	n/a	GoodResponse	1	n/a	n/a	1	3	Cue	Win	True
38.937	3.95	Win2	1.0	0.0	Yes	2.763	0.0	n/a	GoodResponse	1	n/a	n/a	1	3	Fixation	Win	True
42.885	0.37	Win2	1.0	0.002	Yes	2.763	-0.002	2.0	GoodResponse	1	0.179	42.064	1	3	Target	Win	True
43.064	0.3	Win2	1.0	0.002	Yes	2.763	-0.002	2.0	GoodResponse	1	0.179	n/a	1	3	ButtonPress	Win	True
43.269	0.33	Win2	1.0	n/a	Yes	2.763	n/a	n/a	GoodResponse	1	n/a	n/a	1	3	Blank	Win	True
43.585	1.45	Win2	1.0	n/a	Yes	2.763	n/a	5.0	GoodResponse	1	0.006	42.591	1	3	Feedback	Win	True
45.035	2.763	Win2	1.0	n/a	Yes	2.763	n/a	n/a	GoodResponse	1	0.0	n/a	1	3	ISIslide	Win	True
47.817	0.25	Win2	1.0	0.0	Yes	3.283	0.017	n/a	GoodResponse	1	n/a	n/a	2	4	Cue	Win	True
48.067	4.0	Win2	1.0	0.0	Yes	3.283	0.0	n/a	GoodResponse	1	n/a	n/a	2	4	Fixation	Win	True
52.065	0.36	Win2	1.0	0.002	Yes	3.283	-0.002	2.0	GoodResponse	1	0.171	51.236	2	4	Target	Win	True
52.236	0.3	Win2	1.0	0.002	Yes	3.283	-0.002	2.0	GoodResponse	1	0.171	n/a	2	4	ButtonPress	Win	True
52.432	0.34	Win2	1.0	n/a	Yes	3.283	n/a	n/a	GoodResponse	1	n/a	n/a	2	4	Blank	Win	True
52.765	1.45	Win2	1.0	n/a	Yes	3.283	n/a	5.0	GoodResponse	1	0.042	51.807	2	4	Feedback	Win	True
54.215	3.283	Win2	1.0	n/a	Yes	3.283	n/a	n/a	GoodResponse	1	0.0	n/a	2	4	ISIslide	Win	True
57.53	0.25	Win2	1.0	0.0	Yes	2.77	0.03	n/a	GoodResponse	1	n/a	n/a	3	5	Cue	Win	True
57.78	4.0	Win2	1.0	0.0	Yes	2.77	0.0	n/a	GoodResponse	1	n/a	n/a	3	5	Fixation	Win	True
61.779	0.35	Win2	1.0	0.001	Yes	2.77	-0.001	2.0	GoodResponse	1	0.161	60.94	3	5	Target	Win	True
61.94	0.3	Win2	1.0	0.001	Yes	2.77	-0.001	2.0	GoodResponse	1	0.161	n/a	3	5	ButtonPress	Win	True
62.129	0.35	Win2	1.0	n/a	Yes	2.77	n/a	n/a	GoodResponse	1	n/a	n/a	3	5	Blank	Win	True
62.478	1.45	Win2	1.0	n/a	Yes	2.77	n/a	5.0	GoodResponse	1	0.037	61.515	3	5	Feedback	Win	True
63.928	2.77	Win2	1.0	n/a	Yes	2.77	n/a	n/a	GoodResponse	1	0.0	n/a	3	5	ISIslide	Win	True
66.727	0.25	Lose2	1.0	0.0	Yes	2.723	0.027	n/a	GoodResponse	0	n/a	n/a	3	6	Cue	AvoidedLoss	True
66.977	3.95	Lose2	1.0	0.0	Yes	2.723	0.0	n/a	GoodResponse	0	n/a	n/a	3	6	Fixation	AvoidedLoss	True
70.926	0.34	Lose2	1.0	0.001	Yes	2.723	-0.001	2.0	GoodResponse	0	0.195	70.121	3	6	Target	AvoidedLoss	True
71.121	0.3	Lose2	1.0	0.001	Yes	2.723	-0.001	2.0	GoodResponse	0	0.195	n/a	3	6	ButtonPress	AvoidedLoss	True
71.275	0.36	Lose2	1.0	n/a	Yes	2.723	n/a	n/a	GoodResponse	0	n/a	n/a	3	6	Blank	AvoidedLoss	True
71.625	1.45	Lose2	1.0	n/a	Yes	2.723	n/a	5.0	GoodResponse	0	0.012	70.637	3	6	Feedback	AvoidedLoss	True
73.075	2.723	Lose2	1.0	n/a	Yes	2.723	n/a	n/a	GoodResponse	0	0.0	n/a	3	6	ISIslide	AvoidedLoss	True
75.824	0.25	Lose2	1.0	0.0	Yes	4.026	0.024	n/a	GoodResponse	0	n/a	n/a	3	7	Cue	AvoidedLoss	True
76.074	4.05	Lose2	1.0	0.0	Yes	4.026	0.0	n/a	GoodResponse	0	n/a	n/a	3	7	Fixation	AvoidedLoss	True
80.122	0.33	Lose2	1.0	0.002	Yes	4.026	-0.002	2.0	GoodResponse	0	0.179	79.301	3	7	Target	AvoidedLoss	True
80.301	0.3	Lose2	1.0	0.002	Yes	4.026	-0.002	2.0	GoodResponse	0	0.179	n/a	3	7	ButtonPress	AvoidedLoss	True
80.456	0.37	Lose2	1.0	n/a	Yes	4.026	n/a	n/a	GoodResponse	0	n/a	n/a	3	7	Blank	AvoidedLoss	True
80.822	1.45	Lose2	1.0	n/a	Yes	4.026	n/a	5.0	GoodResponse	0	0.034	79.856	3	7	Feedback	AvoidedLoss	True
82.272	4.026	Lose2	1.0	n/a	Yes	4.026	n/a	n/a	GoodResponse	0	0.0	n/a	3	7	ISIslide	AvoidedLoss	True
86.32	0.25	Lose2	1.0	0.0	Yes	3.03	0.02	n/a	GoodResponse	0	n/a	n/a	3	8	Cue	AvoidedLoss	True
86.57	3.95	Lose2	1.0	0.0	Yes	3.03	0.0	n/a	GoodResponse	0	n/a	n/a	3	8	Fixation	AvoidedLoss	True
90.519	0.32	Lose2	1.0	0.001	Yes	3.03	-0.001	2.0	GoodResponse	0	0.172	89.691	3	8	Target	AvoidedLoss	True
90.691	0.3	Lose2	1.0	0.001	Yes	3.03	-0.001	2.0	GoodResponse	0	0.172	n/a	3	8	ButtonPress	AvoidedLoss	True
90.852	0.38	Lose2	1.0	n/a	Yes	3.03	n/a	n/a	GoodResponse	0	n/a	n/a	3	8	Blank	AvoidedLoss	True
91.218	1.45	Lose2	1.0	n/a	Yes	3.03	n/a	5.0	GoodResponse	0	0.028	90.246	3	8	Feedback	AvoidedLoss	True
92.668	3.03	Lose2	1.0	n/a	Yes	3.03	n/a	n/a	GoodResponse	0	0.0	n/a	3	8	ISIslide	AvoidedLoss	True
95.717	0.25	Lose2	1.0	0.0	Yes	3.133	0.017	n/a	GoodResponse	0	n/a	n/a	3	9	Cue	AvoidedLoss	True
95.967	3.95	Lose2	1.0	0.0	Yes	3.133	0.0	n/a	GoodResponse	0	n/a	n/a	3	9	Fixation	AvoidedLoss	True
99.915	0.31	Lose2	1.0	0.002	Yes	3.133	-0.002	2.0	GoodResponse	0	0.207	99.122	3	9	Target	AvoidedLoss	True
100.122	0.3	Lose2	1.0	0.002	Yes	3.133	-0.002	2.0	GoodResponse	0	0.207	n/a	3	9	ButtonPress	AvoidedLoss	True
100.232	0.39	Lose2	1.0	n/a	Yes	3.133	n/a	n/a	GoodResponse	0	n/a	n/a	3	9	Blank	AvoidedLoss	True
100.615	1.45	Lose2	1.0	n/a	Yes	3.133	n/a	5.0	GoodResponse	0	0.046	99.661	3	9	Feedback	AvoidedLoss	True
102.065	3.133	Lose2	1.0	n/a	Yes	3.133	n/a	n/a	GoodResponse	0	0.0	n/a	3	9	ISIslide	AvoidedLoss	True
105.214	0.25	Control	1.0	0.0	Yes	3.286	0.014	n/a	GoodResponse	0	n/a	n/a	3	10	Cue	Neutral	True
105.463	4.0	Control	1.0	0.001	Yes	3.286	-0.001	n/a	GoodResponse	0	n/a	n/a	3	10	Fixation	Neutral	True
109.462	0.3	Control	1.0	0.002	Yes	3.286	-0.002	2.0	GoodResponse	0	0.189	108.651	3	10	Target	Neutral	True
109.651	0.3	Control	1.0	0.002	Yes	3.286	-0.002	2.0	GoodResponse	0	0.189	n/a	3	10	ButtonPress	Neutral	True
109.762	0.4	Control	1.0	n/a	Yes	3.286	n/a	n/a	GoodResponse	0	n/a	n/a	3	10	Blank	Neutral	True
110.162	1.45	Control	1.0	n/a	Yes	3.286	n/a	5.0	GoodResponse	0	0.011	109.173	3	10	Feedback	Neutral	True
111.611	3.286	Control	1.0	n/a	Yes	3.286	n/a	n/a	GoodResponse	0	0.0	n/a	3	10	ISIslide	Neutral	True
114.927	0.25	Lose2	0.9167000000000001	0.0	No	2.723	0.027	n/a	PrematurePress	-1	n/a	n/a	2	11	Cue	Loss	True
115.177	4.05	Lose2	0.9167000000000001	0.0	No	2.723	0.0	n/a	PrematurePress	-1	n/a	n/a	2	11	Fixation	Loss	True
119.225	0.29	Lose2	0.9167000000000001	0.002	No	2.723	-0.002	2.0	PrematurePress	-1	0.094	118.319	2	11	Target	Loss	True
119.319	0.3	Lose2	0.9167000000000001	0.002	No	2.723	-0.002	2.0	PrematurePress	-1	0.094	n/a	2	11	ButtonPress	Loss	True
119.525	0.41	Lose2	0.9167000000000001	n/a	No	2.723	n/a	n/a	PrematurePress	-1	n/a	n/a	2	11	Blank	Loss	True
119.925	1.45	Lose2	0.9167000000000001	n/a	No	2.723	n/a	5.0	PrematurePress	-1	0.005	118.93	2	11	Feedback	Loss	True
121.375	2.723	Lose2	0.9167000000000001	n/a	No	2.723	n/a	n/a	PrematurePress	-1	0.0	n/a	2	11	ISIslide	Loss	True
124.124	0.25	Control	0.9231	0.0	Yes	2.976	0.024	n/a	GoodResponse	0	n/a	n/a	2	12	Cue	Neutral	True
124.374	3.9	Control	0.9231	0.0	Yes	2.976	0.0	n/a	GoodResponse	0	n/a	n/a	2	12	Fixation	Neutral	True
128.272	0.28	Control	0.9231	0.002	Yes	2.976	-0.002	2.0	GoodResponse	0	0.212	127.484	2	12	Target	Neutral	True
128.484	0.3	Control	0.9231	0.002	Yes	2.976	-0.002	2.0	GoodResponse	0	0.212	n/a	2	12	ButtonPress	Neutral	True
128.555	0.42	Control	0.9231	n/a	Yes	2.976	n/a	n/a	GoodResponse	0	n/a	n/a	2	12	Blank	Neutral	True
128.972	1.45	Control	0.9231	n/a	Yes	2.976	n/a	5.0	GoodResponse	0	0.031	128.003	2	12	Feedback	Neutral	True
130.421	2.976	Control	0.9231	n/a	Yes	2.976	n/a	n/a	GoodResponse	0	0.0	n/a	2	12	ISIslide	Neutral	True
133.42	0.25	Control	0.9286	0.0	Yes	2.78	0.02	n/a	GoodResponse	0	n/a	n/a	2	13	Cue	Neutral	True
133.67	4.0	Control	0.9286	0.0	Yes	2.78	0.0	n/a	GoodResponse	0	n/a	n/a	2	13	Fixation	Neutral	True
137.669	0.27	Control	0.9286	0.001	Yes	2.78	-0.001	2.0	GoodResponse	0	0.166	136.835	2	13	Target	Neutral	True
137.835	0.3	Control	0.9286	0.001	Yes	2.78	-0.001	2.0	GoodResponse	0	0.166	n/a	2	13	ButtonPress	Neutral	True
137.935	0.43	Control	0.9286	n/a	Yes	2.78	n/a	n/a	GoodResponse	0	n/a	n/a	2	13	Blank	Neutral	True
138.369	1.45	Control	0.9286	n/a	Yes	2.78	n/a	5.0	GoodResponse	0	0.047	137.416	2	13	Feedback	Neutral	True
139.818	2.78	Control	0.9286	n/a	Yes	2.78	n/a	n/a	GoodResponse	0	0.0	n/a	2	13	ISIslide	Neutral	True
142.617	0.25	Win2	0.9333	0.0	Yes	2.683	0.017	n/a	GoodResponse	1	n/a	n/a	3	14	Cue	Win	True
142.867	4.1	Win2	0.9333	0.0	Yes	2.683	0.0	n/a	GoodResponse	1	n/a	n/a	3	14	Fixation	Win	True
146.966	0.26	Win2	0.9333	0.001	Yes	2.683	-0.001	2.0	GoodResponse	1	0.185	146.151	3	14	Target	Win	True
147.151	0.3	Win2	0.9333	0.001	Yes	2.683	-0.001	2.0	GoodResponse	1	0.185	n/a	3	14	ButtonPress	Win	True
147.232	0.44	Win2	0.9333	n/a	Yes	2.683	n/a	n/a	GoodResponse	1	n/a	n/a	3	14	Blank	Win	True
147.665	1.45	Win2	0.9333	n/a	Yes	2.683	n/a	5.0	GoodResponse	1	0.02	146.685	3	14	Feedback	Win	True
149.115	2.683	Win2	0.9333	n/a	Yes	2.683	n/a	n/a	GoodResponse	1	0.0	n/a	3	14	ISIslide	Win	True
151.814	0.25	Control	0.9375	0.0	Yes	2.986	0.014	n/a	GoodResponse	0	n/a	n/a	3	15	Cue	Neutral	True
152.064	4.0	Control	0.9375	0.0	Yes	2.986	0.0	n/a	GoodResponse	0	n/a	n/a	3	15	Fixation	Neutral	True
156.062	0.25	Control	0.9375	0.002	Yes	2.986	-0.002	2.0	GoodResponse	0	0.141	155.203	3	15	Target	Neutral	True
156.203	0.3	Control	0.9375	0.002	Yes	2.986	-0.002	2.0	GoodResponse	0	0.141	n/a	3	15	ButtonPress	Neutral	True
156.312	0.45	Control	0.9375	n/a	Yes	2.986	n/a	n/a	GoodResponse	0	n/a	n/a	3	15	Blank	Neutral	True
156.762	1.45	Control	0.9375	n/a	Yes	2.986	n/a	5.0	GoodResponse	0	0.045	155.807	3	15	Feedback	Neutral	True
158.212	2.986	Control	0.9375	n/a	Yes	2.986	n/a	n/a	GoodResponse	0	0.0	n/a	3	15	ISIslide	Neutral	True
161.227	0.25	Win2	0.9412	0.0	Yes	2.873	0.027	n/a	GoodResponse	1	n/a	n/a	4	16	Cue	Win	True
161.477	4.0	Win2	0.9412	0.0	Yes	2.873	0.0	n/a	GoodResponse	1	n/a	n/a	4	16	Fixation	Win	True
165.476	0.24	Win2	0.9412	0.001	Yes	2.873	-0.001	2.0	GoodResponse	1	0.178	164.654	4	16	Target	Win	True
165.654	0.3	Win2	0.9412	0.001	Yes	2.873	-0.001	2.0	GoodResponse	1	0.178	n/a	4	16	ButtonPress	Win	True
165.726	0.46	Win2	0.9412	n/a	Yes	2.873	n/a	n/a	GoodResponse	1	n/a	n/a	4	16	Blank	Win	True
166.176	1.45	Win2	0.9412	n/a	Yes	2.873	n/a	5.0	GoodResponse	1	0.046	165.222	4	16	Feedback	Win	True
167.625	2.873	Win2	0.9412	n/a	Yes	2.873	n/a	n/a	GoodResponse	1	0.0	n/a	4	16	ISIslide	Win	True
170.524	0.25	Lose2	0.9444	0.0	Yes	2.726	0.024	n/a	GoodResponse	0	n/a	n/a	4	17	Cue	AvoidedLoss	True
170.774	3.95	Lose2	0.9444	0.0	Yes	2.726	0.0	n/a	GoodResponse	0	n/a	n/a	4	17	Fixation	AvoidedLoss	True
174.723	0.23	Lose2	0.9444	0.001	Yes	2.726	-0.001	2.0	GoodResponse	0	0.175	173.898	4	17	Target	AvoidedLoss	True
174.898	0.3	Lose2	0.9444	0.001	Yes	2.726	-0.001	2.0	GoodResponse	0	0.175	n/a	4	17	ButtonPress	AvoidedLoss	True
174.956	0.47	Lose2	0.9444	n/a	Yes	2.726	n/a	n/a	GoodResponse	0	n/a	n/a	4	17	Blank	AvoidedLoss	True
175.422	1.45	Lose2	0.9444	n/a	Yes	2.726	n/a	5.0	GoodResponse	0	0.019	174.441	4	17	Feedback	AvoidedLoss	True
176.872	2.726	Lose2	0.9444	n/a	Yes	2.726	n/a	n/a	GoodResponse	0	0.0	n/a	4	17	ISIslide	AvoidedLoss	True
179.621	0.25	Lose2	0.9473999999999999	0.0	Yes	2.729	0.021	n/a	GoodResponse	0	n/a	n/a	4	18	Cue	AvoidedLoss	True
179.871	4.05	Lose2	0.9473999999999999	0.0	Yes	2.729	0.0	n/a	GoodResponse	0	n/a	n/a	4	18	Fixation	AvoidedLoss	True
183.919	0.22	Lose2	0.9473999999999999	0.002	Yes	2.729	-0.002	2.0	GoodResponse	0	0.17	183.089	4	18	Target	AvoidedLoss	True
184.089	0.3	Lose2	0.9473999999999999	0.002	Yes	2.729	-0.002	2.0	GoodResponse	0	0.17	n/a	4	18	ButtonPress	AvoidedLoss	True
184.153	0.48	Lose2	0.9473999999999999	n/a	Yes	2.729	n/a	n/a	GoodResponse	0	n/a	n/a	4	18	Blank	AvoidedLoss	True
184.619	1.45	Lose2	0.9473999999999999	n/a	Yes	2.729	n/a	5.0	GoodResponse	0	0.041	183.66	4	18	Feedback	AvoidedLoss	True
186.069	2.729	Lose2	0.9473999999999999	n/a	Yes	2.729	n/a	n/a	GoodResponse	0	0.0	n/a	4	18	ISIslide	AvoidedLoss	True
188.818	0.25	Control	0.9	0.0	No	2.932	0.018	n/a	NoResponse	0	n/a	n/a	4	19	Cue	Neutral	False
189.068	3.95	Control	0.9	0.0	No	2.932	0.0	2.0	NoResponse	0	3.866	191.934	4	19	Fixation	Neutral	False
192.934	0.3	Control	0.9	0.0	No	2.932	0.0	2.0	NoResponse	0	3.866	n/a	4	19	ButtonPress	Neutral	False
193.016	0.21	Control	0.9	0.002	No	2.932	-0.002	2.0	NoResponse	0	0.269	192.285	4	19	Target	Neutral	False
193.233	0.49	Control	0.9	n/a	No	2.932	n/a	n/a	NoResponse	0	n/a	n/a	4	19	Blank	Neutral	False
193.285	0.3	Control	0.9	0.002	No	2.932	-0.002	2.0	NoResponse	0	0.269	n/a	4	19	ButtonPress	Neutral	False
193.716	1.45	Control	0.9	n/a	No	2.932	n/a	5.0	NoResponse	0	0.017	192.733	4	19	Feedback	Neutral	False
195.166	2.932	Control	0.9	n/a	No	2.932	n/a	n/a	NoResponse	0	0.0	n/a	4	19	ISIslide	Neutral	False
198.114	0.25	Control	0.9048	0.001	Yes	2.636	0.014	n/a	GoodResponse	0	n/a	n/a	4	20	Cue	Neutral	True
198.364	4.05	Control	0.9048	0.0	Yes	2.636	0.0	n/a	GoodResponse	0	n/a	n/a	4	20	Fixation	Neutral	True
202.413	0.2	Control	0.9048	0.001	Yes	2.636	-0.001	2.0	GoodResponse	0	0.172	201.585	4	20	Target	Neutral	True
202.585	0.3	Control	0.9048	0.001	Yes	2.636	-0.001	2.0	GoodResponse	0	0.172	n/a	4	20	ButtonPress	Neutral	True
202.613	0.5	Control	0.9048	n/a	Yes	2.636	n/a	n/a	GoodResponse	0	n/a	n/a	4	20	Blank	Neutral	True
203.113	1.45	Control	0.9048	n/a	Yes	2.636	n/a	5.0	GoodResponse	0	0.035	202.148	4	20	Feedback	Neutral	True
204.562	2.636	Control	0.9048	n/a	Yes	2.636	n/a	n/a	GoodResponse	0	0.0	n/a	4	20	ISIslide	Neutral	True
207.228	0.25	Control	0.8636	0.0	No	2.772	0.028	n/a	NoResponse	0	n/a	n/a	4	21	Cue	Neutral	True
207.478	4.1	Control	0.8636	0.0	No	2.772	0.0	n/a	NoResponse	0	n/a	n/a	4	21	Fixation	Neutral	True
211.576	0.19	Control	0.8636	0.002	No	2.772	-0.002	2.0	NoResponse	0	0.434	211.01	4	21	Target	Neutral	True
211.776	0.51	Control	0.8636	n/a	No	2.772	n/a	n/a	NoResponse	0	n/a	n/a	4	21	Blank	Neutral	True
212.01	0.3	Control	0.8636	0.002	No	2.772	-0.002	2.0	NoResponse	0	0.434	n/a	4	21	ButtonPress	Neutral	True
212.276	1.45	Control	0.8636	n/a	No	2.772	n/a	5.0	NoResponse	0	0.043	211.319	4	21	Feedback	Neutral	True
213.726	2.772	Control	0.8636	n/a	No	2.772	n/a	n/a	NoResponse	0	0.0	n/a	4	21	ISIslide	Neutral	True
216.525	0.25	Control	0.8261	0.0	No	2.775	0.025	n/a	NoResponse	0	n/a	n/a	4	22	Cue	Neutral	True
216.775	4.0	Control	0.8261	0.0	No	2.775	0.0	n/a	NoResponse	0	n/a	n/a	4	22	Fixation	Neutral	True
220.773	0.18	Control	0.8261	0.002	No	2.775	-0.002	2.0	NoResponse	0	0.554	220.327	4	22	Target	Neutral	True
220.957	0.52	Control	0.8261	n/a	No	2.775	n/a	n/a	NoResponse	0	n/a	n/a	4	22	Blank	Neutral	True
221.327	0.3	Control	0.8261	0.002	No	2.775	-0.002	2.0	NoResponse	0	0.554	n/a	4	22	ButtonPress	Neutral	True
221.473	1.45	Control	0.8261	n/a	No	2.775	n/a	5.0	NoResponse	0	0.017	220.49	4	22	Feedback	Neutral	True
222.922	2.775	Control	0.8261	n/a	No	2.775	n/a	n/a	NoResponse	0	0.0	n/a	4	22	ISIslide	Neutral	True
225.722	0.25	Control	0.7917000000000001	0.0	No	2.778	0.022	n/a	NoResponse	0	n/a	n/a	4	23	Cue	Neutral	True
225.971	3.9	Control	0.7917000000000001	0.001	No	2.778	-0.001	n/a	NoResponse	0	n/a	n/a	4	23	Fixation	Neutral	True
229.87	0.17	Control	0.7917000000000001	0.002	No	2.778	-0.002	2.0	NoResponse	0	0.236	229.106	4	23	Target	Neutral	True
230.053	0.53	Control	0.7917000000000001	n/a	No	2.778	n/a	n/a	NoResponse	0	n/a	n/a	4	23	Blank	Neutral	True
230.106	0.3	Control	0.7917000000000001	0.002	No	2.778	-0.002	2.0	NoResponse	0	0.236	n/a	4	23	ButtonPress	Neutral	True
230.57	1.45	Control	0.7917000000000001	n/a	No	2.778	n/a	5.0	NoResponse	0	0.041	229.611	4	23	Feedback	Neutral	True
232.019	2.778	Control	0.7917000000000001	n/a	No	2.778	n/a	n/a	NoResponse	0	0.0	n/a	4	23	ISIslide	Neutral	True
234.818	0.25	Win2	0.76	0.0	No	3.132	0.018	n/a	NoResponse	0	n/a	n/a	4	24	Cue	MissedWin	True
235.068	3.95	Win2	0.76	0.0	No	3.132	0.0	n/a	NoResponse	0	n/a	n/a	4	24	Fixation	MissedWin	True
239.017	0.16	Win2	0.76	0.001	No	3.132	-0.001	2.0	NoResponse	0	0.181	238.198	4	24	Target	MissedWin	True
239.183	0.54	Win2	0.76	n/a	No	3.132	n/a	n/a	NoResponse	0	n/a	n/a	4	24	Blank	MissedWin	True
239.198	0.3	Win2	0.76	0.001	No	3.132	-0.001	2.0	NoResponse	0	0.181	n/a	4	24	ButtonPress	MissedWin	True
239.717	1.45	Win2	0.76	n/a	No	3.132	n/a	5.0	NoResponse	0	0.016	238.733	4	24	Feedback	MissedWin	True
241.166	3.132	Win2	0.76	n/a	No	3.132	n/a	n/a	NoResponse	0	0.0	n/a	4	24	ISIslide	MissedWin	True
244.315	0.25	Win2	0.7308	0.0	No	3.085	0.015	n/a	NoResponse	0	n/a	n/a	4	25	Cue	MissedWin	True
244.565	4.0	Win2	0.7308	0.0	No	3.085	0.0	n/a	NoResponse	0	n/a	n/a	4	25	Fixation	MissedWin	True
248.564	0.15	Win2	0.7308	0.001	No	3.085	-0.001	2.0	NoResponse	0	0.173	247.737	4	25	Target	MissedWin	True
248.713	0.55	Win2	0.7308	n/a	No	3.085	n/a	n/a	NoResponse	0	n/a	n/a	4	25	Blank	MissedWin	True
248.737	0.3	Win2	0.7308	0.001	No	3.085	-0.001	2.0	NoResponse	0	0.173	n/a	4	25	ButtonPress	MissedWin	True
249.263	1.45	Win2	0.7308	n/a	No	3.085	n/a	5.0	NoResponse	0	0.031	248.294	4	25	Feedback	MissedWin	True
250.713	3.085	Win2	0.7308	n/a	No	3.085	n/a	n/a	NoResponse	0	0.0	n/a	4	25	ISIslide	MissedWin	True
253.828	0.25	Win2	0.7037	0.0	No	2.922	0.028	n/a	NoResponse	0	n/a	n/a	4	26	Cue	MissedWin	True
254.078	3.95	Win2	0.7037	0.0	No	2.922	0.0	n/a	NoResponse	0	n/a	n/a	4	26	Fixation	MissedWin	True
258.027	0.15	Win2	0.7037	0.001	No	2.922	-0.001	2.0	NoResponse	0	0.161	257.188	4	26	Target	MissedWin	True
258.177	0.55	Win2	0.7037	n/a	No	2.922	n/a	n/a	NoResponse	0	n/a	n/a	4	26	Blank	MissedWin	True
258.188	0.3	Win2	0.7037	0.001	No	2.922	-0.001	2.0	NoResponse	0	0.161	n/a	4	26	ButtonPress	MissedWin	True
258.727	1.45	Win2	0.7037	n/a	No	2.922	n/a	5.0	NoResponse	0	0.03	257.757	4	26	Feedback	MissedWin	True
260.176	2.922	Win2	0.7037	n/a	No	2.922	n/a	n/a	NoResponse	0	0.0	n/a	4	26	ISIslide	MissedWin	True
263.125	0.25	Lose2	0.6786	0.0	No	2.825	0.025	n/a	NoResponse	-1	n/a	n/a	3	27	Cue	Loss	True
263.375	4.05	Lose2	0.6786	0.0	No	2.825	0.0	n/a	NoResponse	-1	n/a	n/a	3	27	Fixation	Loss	True
267.424	0.15	Lose2	0.6786	0.001	No	2.825	-0.001	2.0	NoResponse	-1	0.156	266.58	3	27	Target	Loss	True
267.574	0.55	Lose2	0.6786	n/a	No	2.825	n/a	n/a	NoResponse	-1	n/a	n/a	3	27	Blank	Loss	True
267.58	0.3	Lose2	0.6786	0.001	No	2.825	-0.001	2.0	NoResponse	-1	0.156	n/a	3	27	ButtonPress	Loss	True
268.123	1.45	Lose2	0.6786	n/a	No	2.825	n/a	5.0	NoResponse	-1	0.049	267.172	3	27	Feedback	Loss	True
269.573	2.825	Lose2	0.6786	n/a	No	2.825	n/a	n/a	NoResponse	-1	0.0	n/a	3	27	ISIslide	Loss	True
272.422	0.25	Control	0.6552	0.0	No	2.828	0.022	n/a	NoResponse	0	n/a	n/a	3	28	Cue	Neutral	True
272.672	4.05	Control	0.6552	0.0	No	2.828	0.0	n/a	NoResponse	0	n/a	n/a	3	28	Fixation	Neutral	True
276.72	0.15	Control	0.6552	0.002	No	2.828	-0.002	2.0	NoResponse	0	0.173	275.893	3	28	Target	Neutral	True
276.87	0.55	Control	0.6552	n/a	No	2.828	n/a	n/a	NoResponse	0	n/a	n/a	3	28	Blank	Neutral	True
276.893	0.3	Control	0.6552	0.002	No	2.828	-0.002	2.0	NoResponse	0	0.173	n/a	3	28	ButtonPress	Neutral	True
277.42	1.45	Control	0.6552	n/a	No	2.828	n/a	5.0	NoResponse	0	0.02	276.44	3	28	Feedback	Neutral	True
278.87	2.828	Control	0.6552	n/a	No	2.828	n/a	n/a	NoResponse	0	0.0	n/a	3	28	ISIslide	Neutral	True
281.719	0.25	Lose2	0.6333	0.0	No	2.831	0.019	n/a	NoResponse	-1	n/a	n/a	2	29	Cue	Loss	True
281.969	3.95	Lose2	0.6333	0.0	No	2.831	0.0	n/a	NoResponse	-1	n/a	n/a	2	29	Fixation	Loss	True
285.917	0.15	Lose2	0.6333	0.002	No	2.831	-0.002	2.0	NoResponse	-1	0.188	285.105	2	29	Target	Loss	True
286.067	0.55	Lose2	0.6333	n/a	No	2.831	n/a	n/a	NoResponse	-1	n/a	n/a	2	29	Blank	Loss	True
286.105	0.3	Lose2	0.6333	0.002	No	2.831	-0.002	2.0	NoResponse	-1	0.188	n/a	2	29	ButtonPress	Loss	True
286.617	1.45	Lose2	0.6333	n/a	No	2.831	n/a	5.0	NoResponse	-1	0.042	285.659	2	29	Feedback	Loss	True
288.066	2.831	Lose2	0.6333	n/a	No	2.831	n/a	n/a	NoResponse	-1	0.0	n/a	2	29	ISIslide	Loss	True
290.915	0.25	Win2	0.6129	0.001	No	2.785	0.015	n/a	NoResponse	0	n/a	n/a	2	30	Cue	MissedWin	True
291.165	3.9	Win2	0.6129	0.0	No	2.785	0.0	n/a	NoResponse	0	n/a	n/a	2	30	Fixation	MissedWin	True
295.064	0.16	Win2	0.6129	0.001	No	2.785	-0.001	2.0	NoResponse	0	0.211	294.275	2	30	Target	MissedWin	True
295.231	0.54	Win2	0.6129	n/a	No	2.785	n/a	n/a	NoResponse	0	n/a	n/a	2	30	Blank	MissedWin	True
295.275	0.3	Win2	0.6129	0.001	No	2.785	-0.001	2.0	NoResponse	0	0.211	n/a	2	30	ButtonPress	MissedWin	True
295.764	1.45	Win2	0.6129	n/a	No	2.785	n/a	5.0	NoResponse	0	0.017	294.781	2	30	Feedback	MissedWin	True
297.213	2.785	Win2	0.6129	n/a	No	2.785	n/a	n/a	NoResponse	0	0.0	n/a	2	30	ISIslide	MissedWin	True
300.029	0.25	Lose2	0.5938	0.0	No	2.821	0.029	n/a	NoResponse	-1	n/a	n/a	1	31	Cue	Loss	True
300.279	4.05	Lose2	0.5938	0.0	No	2.821	0.0	n/a	NoResponse	-1	n/a	n/a	1	31	Fixation	Loss	True
304.327	0.17	Lose2	0.5938	0.002	No	2.821	-0.002	2.0	NoResponse	-1	0.192	303.519	1	31	Target	Loss	True
304.511	0.53	Lose2	0.5938	n/a	No	2.821	n/a	n/a	NoResponse	-1	n/a	n/a	1	31	Blank	Loss	True
304.519	0.3	Lose2	0.5938	0.002	No	2.821	-0.002	2.0	NoResponse	-1	0.192	n/a	1	31	ButtonPress	Loss	True
305.027	1.45	Lose2	0.5938	n/a	No	2.821	n/a	5.0	NoResponse	-1	0.023	304.05	1	31	Feedback	Loss	True
306.477	2.821	Lose2	0.5938	n/a	No	2.821	n/a	n/a	NoResponse	-1	0.0	n/a	1	31	ISIslide	Loss	True
309.326	0.25	Lose2	0.6061	0.0	Yes	2.624	0.026	n/a	GoodResponse	0	n/a	n/a	1	32	Cue	AvoidedLoss	True
309.576	4.15	Lose2	0.6061	0.0	Yes	2.624	0.0	n/a	GoodResponse	0	n/a	n/a	1	32	Fixation	AvoidedLoss	True
313.724	0.18	Lose2	0.6061	0.002	Yes	2.624	-0.002	2.0	GoodResponse	0	0.171	312.895	1	32	Target	AvoidedLoss	True
313.895	0.3	Lose2	0.6061	0.002	Yes	2.624	-0.002	2.0	GoodResponse	0	0.171	n/a	1	32	ButtonPress	AvoidedLoss	True
313.907	0.52	Lose2	0.6061	n/a	Yes	2.624	n/a	n/a	GoodResponse	0	n/a	n/a	1	32	Blank	AvoidedLoss	True
314.424	1.45	Lose2	0.6061	n/a	Yes	2.624	n/a	5.0	GoodResponse	0	0.04	313.464	1	32	Feedback	AvoidedLoss	True
315.873	2.624	Lose2	0.6061	n/a	Yes	2.624	n/a	n/a	GoodResponse	0	0.0	n/a	1	32	ISIslide	AvoidedLoss	True
318.522	0.25	Win2	0.6175999999999999	0.001	Yes	2.678	0.022	n/a	GoodResponse	1	n/a	n/a	2	33	Cue	Win	True
318.772	4.0	Win2	0.6175999999999999	0.0	Yes	2.678	0.0	n/a	GoodResponse	1	n/a	n/a	2	33	Fixation	Win	True
322.771	0.19	Win2	0.6175999999999999	0.001	Yes	2.678	-0.001	2.0	GoodResponse	1	0.167	321.938	2	33	Target	Win	True
322.938	0.3	Win2	0.6175999999999999	0.001	Yes	2.678	-0.001	2.0	GoodResponse	1	0.167	n/a	2	33	ButtonPress	Win	True
322.971	0.51	Win2	0.6175999999999999	n/a	Yes	2.678	n/a	n/a	GoodResponse	1	n/a	n/a	2	33	Blank	Win	True
323.471	1.45	Win2	0.6175999999999999	n/a	Yes	2.678	n/a	5.0	GoodResponse	1	0.018	322.489	2	33	Feedback	Win	True
324.92	2.678	Win2	0.6175999999999999	n/a	Yes	2.678	n/a	n/a	GoodResponse	1	0.0	n/a	2	33	ISIslide	Win	True
327.619	0.25	Lose2	0.6286	0.0	Yes	2.631	0.019	n/a	GoodResponse	0	n/a	n/a	2	34	Cue	AvoidedLoss	True
327.869	4.05	Lose2	0.6286	0.0	Yes	2.631	0.0	n/a	GoodResponse	0	n/a	n/a	2	34	Fixation	AvoidedLoss	True
331.918	0.2	Lose2	0.6286	0.001	Yes	2.631	-0.001	2.0	GoodResponse	0	0.162	331.08	2	34	Target	AvoidedLoss	True
332.08	0.3	Lose2	0.6286	0.001	Yes	2.631	-0.001	2.0	GoodResponse	0	0.162	n/a	2	34	ButtonPress	AvoidedLoss	True
332.118	0.5	Lose2	0.6286	n/a	Yes	2.631	n/a	n/a	GoodResponse	0	n/a	n/a	2	34	Blank	AvoidedLoss	True
332.618	1.45	Lose2	0.6286	n/a	Yes	2.631	n/a	5.0	GoodResponse	0	0.041	331.659	2	34	Feedback	AvoidedLoss	True
334.067	2.631	Lose2	0.6286	n/a	Yes	2.631	n/a	n/a	GoodResponse	0	0.0	n/a	2	34	ISIslide	AvoidedLoss	True
336.716	0.25	Lose2	0.6389	0.0	Yes	2.684	0.016	n/a	GoodResponse	0	n/a	n/a	2	35	Cue	AvoidedLoss	False
336.966	4.0	Lose2	0.6389	0.0	Yes	2.684	0.0	2.0	GoodResponse	0	2.619	338.585	2	35	Fixation	AvoidedLoss	False
339.585	0.3	Lose2	0.6389	0.0	Yes	2.684	0.0	2.0	GoodResponse	0	2.619	n/a	2	35	ButtonPress	AvoidedLoss	False
340.965	0.21	Lose2	0.6389	0.001	Yes	2.684	-0.001	2.0	GoodResponse	0	0.192	340.157	2	35	Target	AvoidedLoss	False
341.157	0.3	Lose2	0.6389	0.001	Yes	2.684	-0.001	2.0	GoodResponse	0	0.192	n/a	2	35	ButtonPress	AvoidedLoss	False
341.181	0.49	Lose2	0.6389	n/a	Yes	2.684	n/a	n/a	GoodResponse	0	n/a	n/a	2	35	Blank	AvoidedLoss	False
341.664	1.45	Lose2	0.6389	n/a	Yes	2.684	n/a	5.0	GoodResponse	0	0.019	340.683	2	35	Feedback	AvoidedLoss	False
343.114	2.684	Lose2	0.6389	n/a	Yes	2.684	n/a	n/a	GoodResponse	0	0.0	n/a	2	35	ISIslide	AvoidedLoss	False
345.813	0.25	Control	0.6486	0.0	Yes	2.687	0.013	n/a	GoodResponse	0	n/a	n/a	2	36	Cue	Neutral	True
346.063	4.0	Control	0.6486	0.0	Yes	2.687	0.0	n/a	GoodResponse	0	n/a	n/a	2	36	Fixation	Neutral	True
350.061	0.22	Control	0.6486	0.002	Yes	2.687	-0.002	2.0	GoodResponse	0	0.187	349.248	2	36	Target	Neutral	True
350.248	0.3	Control	0.6486	0.002	Yes	2.687	-0.002	2.0	GoodResponse	0	0.187	n/a	2	36	ButtonPress	Neutral	True
350.295	0.48	Control	0.6486	n/a	Yes	2.687	n/a	n/a	GoodResponse	0	n/a	n/a	2	36	Blank	Neutral	True
350.761	1.45	Control	0.6486	n/a	Yes	2.687	n/a	5.0	GoodResponse	0	0.044	349.805	2	36	Feedback	Neutral	True
352.211	2.687	Control	0.6486	n/a	Yes	2.687	n/a	n/a	GoodResponse	0	0.0	n/a	2	36	ISIslide	Neutral	True
354.926	0.25	Win2	0.6579	0.001	Yes	2.874	0.026	n/a	GoodResponse	1	n/a	n/a	3	37	Cue	Win	True
355.176	4.0	Win2	0.6579	0.0	Yes	2.874	0.0	n/a	GoodResponse	1	n/a	n/a	3	37	Fixation	Win	True
359.175	0.23	Win2	0.6579	0.001	Yes	2.874	-0.001	2.0	GoodResponse	1	0.216	358.391	3	37	Target	Win	True
359.391	0.3	Win2	0.6579	0.001	Yes	2.874	-0.001	2.0	GoodResponse	1	0.216	n/a	3	37	ButtonPress	Win	True
359.408	0.47	Win2	0.6579	n/a	Yes	2.874	n/a	n/a	GoodResponse	1	n/a	n/a	3	37	Blank	Win	True
359.875	1.45	Win2	0.6579	n/a	Yes	2.874	n/a	5.0	GoodResponse	1	0.004	358.879	3	37	Feedback	Win	True
361.324	2.874	Win2	0.6579	n/a	Yes	2.874	n/a	n/a	GoodResponse	1	0.0	n/a	3	37	ISIslide	Win	True
364.223	0.25	Lose2	0.6667000000000001	0.0	Yes	2.827	0.023	n/a	GoodResponse	0	n/a	n/a	3	38	Cue	AvoidedLoss	True
364.473	3.95	Lose2	0.6667000000000001	0.0	Yes	2.827	0.0	n/a	GoodResponse	0	n/a	n/a	3	38	Fixation	AvoidedLoss	True
368.422	0.23	Lose2	0.6667000000000001	0.001	Yes	2.827	-0.001	2.0	GoodResponse	0	0.186	367.608	3	38	Target	AvoidedLoss	True
368.608	0.3	Lose2	0.6667000000000001	0.001	Yes	2.827	-0.001	2.0	GoodResponse	0	0.186	n/a	3	38	ButtonPress	AvoidedLoss	True
368.655	0.47	Lose2	0.6667000000000001	n/a	Yes	2.827	n/a	n/a	GoodResponse	0	n/a	n/a	3	38	Blank	AvoidedLoss	True
369.121	1.45	Lose2	0.6667000000000001	n/a	Yes	2.827	n/a	5.0	GoodResponse	0	0.026	368.147	3	38	Feedback	AvoidedLoss	True
370.571	2.827	Lose2	0.6667000000000001	n/a	Yes	2.827	n/a	n/a	GoodResponse	0	0.0	n/a	3	38	ISIslide	AvoidedLoss	True
373.42	0.25	Win2	0.675	0.0	Yes	2.98	0.02	n/a	GoodResponse	1	n/a	n/a	4	39	Cue	Win	True
373.67	4.1	Win2	0.675	0.0	Yes	2.98	0.0	n/a	GoodResponse	1	n/a	n/a	4	39	Fixation	Win	True
377.768	0.22	Win2	0.675	0.002	Yes	2.98	-0.002	2.0	GoodResponse	1	0.165	376.933	4	39	Target	Win	True
377.933	0.3	Win2	0.675	0.002	Yes	2.98	-0.002	2.0	GoodResponse	1	0.165	n/a	4	39	ButtonPress	Win	True
378.002	0.48	Win2	0.675	n/a	Yes	2.98	n/a	n/a	GoodResponse	1	n/a	n/a	4	39	Blank	Win	True
378.468	1.45	Win2	0.675	n/a	Yes	2.98	n/a	5.0	GoodResponse	1	0.044	377.512	4	39	Feedback	Win	True
379.918	2.98	Win2	0.675	n/a	Yes	2.98	n/a	n/a	GoodResponse	1	0.0	n/a	4	39	ISIslide	Win	True
382.917	0.25	Win2	0.6829000000000001	0.0	Yes	2.733	0.017	n/a	GoodResponse	1	n/a	n/a	5	40	Cue	Win	True
383.167	3.95	Win2	0.6829000000000001	0.0	Yes	2.733	0.0	n/a	GoodResponse	1	n/a	n/a	5	40	Fixation	Win	True
387.115	0.21	Win2	0.6829000000000001	0.002	Yes	2.733	-0.002	2.0	GoodResponse	1	0.174	386.289	5	40	Target	Win	True
387.289	0.3	Win2	0.6829000000000001	0.002	Yes	2.733	-0.002	2.0	GoodResponse	1	0.174	n/a	5	40	ButtonPress	Win	True
387.332	0.49	Win2	0.6829000000000001	n/a	Yes	2.733	n/a	n/a	GoodResponse	1	n/a	n/a	5	40	Blank	Win	True
387.815	1.45	Win2	0.6829000000000001	n/a	Yes	2.733	n/a	5.0	GoodResponse	1	0.014	386.829	5	40	Feedback	Win	True
389.264	2.733	Win2	0.6829000000000001	n/a	Yes	2.733	n/a	n/a	GoodResponse	1	0.0	n/a	5	40	ISIslide	Win	True
392.013	0.25	Win2	0.6905	0.001	Yes	2.787	0.013	n/a	GoodResponse	1	n/a	n/a	6	41	Cue	Win	True
392.263	3.9	Win2	0.6905	0.0	Yes	2.787	0.0	n/a	GoodResponse	1	n/a	n/a	6	41	Fixation	Win	True
396.162	0.2	Win2	0.6905	0.001	Yes	2.787	-0.001	2.0	GoodResponse	1	0.163	395.325	6	41	Target	Win	True
396.325	0.3	Win2	0.6905	0.001	Yes	2.787	-0.001	2.0	GoodResponse	1	0.163	n/a	6	41	ButtonPress	Win	True
396.362	0.5	Win2	0.6905	n/a	Yes	2.787	n/a	n/a	GoodResponse	1	n/a	n/a	6	41	Blank	Win	True
396.862	1.45	Win2	0.6905	n/a	Yes	2.787	n/a	5.0	GoodResponse	1	0.04	395.902	6	41	Feedback	Win	True
398.311	2.787	Win2	0.6905	n/a	Yes	2.787	n/a	n/a	GoodResponse	1	0.0	n/a	6	41	ISIslide	Win	True
401.127	0.25	Control	0.6977	0.0	Yes	2.923	0.027	n/a	GoodResponse	0	n/a	n/a	6	42	Cue	Neutral	True
401.377	3.85	Control	0.6977	0.0	Yes	2.923	0.0	n/a	GoodResponse	0	n/a	n/a	6	42	Fixation	Neutral	True
405.226	0.19	Control	0.6977	0.001	Yes	2.923	-0.001	2.0	GoodResponse	0	0.182	404.408	6	42	Target	Neutral	True
405.408	0.3	Control	0.6977	0.001	Yes	2.923	-0.001	2.0	GoodResponse	0	0.182	n/a	6	42	ButtonPress	Neutral	True
405.425	0.51	Control	0.6977	n/a	Yes	2.923	n/a	n/a	GoodResponse	0	n/a	n/a	6	42	Blank	Neutral	True
405.925	1.45	Control	0.6977	n/a	Yes	2.923	n/a	5.0	GoodResponse	0	0.002	404.927	6	42	Feedback	Neutral	True
407.375	2.923	Control	0.6977	n/a	Yes	2.923	n/a	n/a	GoodResponse	0	0.0	n/a	6	42	ISIslide	Neutral	True
410.324	0.25	Win2	0.7045	0.0	Yes	3.176	0.024	n/a	GoodResponse	1	n/a	n/a	7	43	Cue	Win	True
410.574	4.0	Win2	0.7045	0.0	Yes	3.176	0.0	n/a	GoodResponse	1	n/a	n/a	7	43	Fixation	Win	True
414.572	0.18	Win2	0.7045	0.002	Yes	3.176	-0.002	2.0	GoodResponse	1	0.119	413.691	7	43	Target	Win	True
414.691	0.3	Win2	0.7045	0.002	Yes	3.176	-0.002	2.0	GoodResponse	1	0.119	n/a	7	43	ButtonPress	Win	True
414.756	0.52	Win2	0.7045	n/a	Yes	3.176	n/a	n/a	GoodResponse	1	n/a	n/a	7	43	Blank	Win	True
415.272	1.45	Win2	0.7045	n/a	Yes	3.176	n/a	5.0	GoodResponse	1	0.021	414.293	7	43	Feedback	Win	True
416.722	3.176	Win2	0.7045	n/a	Yes	3.176	n/a	n/a	GoodResponse	1	0.0	n/a	7	43	ISIslide	Win	True
419.92	0.25	Win2	0.7111	0.001	Yes	2.98	0.02	n/a	GoodResponse	1	n/a	n/a	8	44	Cue	Win	True
420.17	4.0	Win2	0.7111	0.0	Yes	2.98	0.0	n/a	GoodResponse	1	n/a	n/a	8	44	Fixation	Win	True
424.169	0.17	Win2	0.7111	0.001	Yes	2.98	-0.001	2.0	GoodResponse	1	0.167	423.336	8	44	Target	Win	True
424.336	0.53	Win2	0.7111	n/a	Yes	2.98	n/a	n/a	GoodResponse	1	n/a	n/a	8	44	Blank	Win	True
424.336	0.3	Win2	0.7111	0.001	Yes	2.98	-0.001	2.0	GoodResponse	1	0.167	n/a	8	44	ButtonPress	Win	True
424.869	1.45	Win2	0.7111	n/a	Yes	2.98	n/a	5.0	GoodResponse	1	0.034	423.903	8	44	Feedback	Win	True
426.318	2.98	Win2	0.7111	n/a	Yes	2.98	n/a	n/a	GoodResponse	1	0.0	n/a	8	44	ISIslide	Win	True
429.317	0.25	Control	0.7173999999999999	0.0	Yes	2.883	0.017	n/a	GoodResponse	0	n/a	n/a	8	45	Cue	Neutral	True
429.567	4.1	Control	0.7173999999999999	0.0	Yes	2.883	0.0	n/a	GoodResponse	0	n/a	n/a	8	45	Fixation	Neutral	True
433.666	0.16	Control	0.7173999999999999	0.001	Yes	2.883	-0.001	2.0	GoodResponse	0	0.15	432.816	8	45	Target	Neutral	True
433.816	0.3	Control	0.7173999999999999	0.001	Yes	2.883	-0.001	2.0	GoodResponse	0	0.15	n/a	8	45	ButtonPress	Neutral	True
433.832	0.54	Control	0.7173999999999999	n/a	Yes	2.883	n/a	n/a	GoodResponse	0	n/a	n/a	8	45	Blank	Neutral	True
434.365	1.45	Control	0.7173999999999999	n/a	Yes	2.883	n/a	5.0	GoodResponse	0	0.049	433.414	8	45	Feedback	Neutral	True
435.815	2.883	Control	0.7173999999999999	n/a	Yes	2.883	n/a	n/a	GoodResponse	0	0.0	n/a	8	45	ISIslide	Neutral	True
438.714	0.25	Lose2	0.7021	0.0	No	3.386	0.014	n/a	NoResponse	-1	n/a	n/a	7	46	Cue	Loss	True
438.964	4.0	Lose2	0.7021	0.0	No	3.386	0.0	n/a	NoResponse	-1	n/a	n/a	7	46	Fixation	Loss	True
442.962	0.15	Lose2	0.7021	0.002	No	3.386	-0.002	2.0	NoResponse	-1	0.227	442.189	7	46	Target	Loss	True
443.112	0.55	Lose2	0.7021	n/a	No	3.386	n/a	n/a	NoResponse	-1	n/a	n/a	7	46	Blank	Loss	True
443.189	0.3	Lose2	0.7021	0.002	No	3.386	-0.002	2.0	NoResponse	-1	0.227	n/a	7	46	ButtonPress	Loss	True
443.662	1.45	Lose2	0.7021	n/a	No	3.386	n/a	5.0	NoResponse	-1	0.021	442.683	7	46	Feedback	Loss	True
445.112	3.386	Lose2	0.7021	n/a	No	3.386	n/a	n/a	NoResponse	-1	0.0	n/a	7	46	ISIslide	Loss	True
448.527	0.25	Lose2	0.6875	0.0	No	2.673	0.027	n/a	NoResponse	-1	n/a	n/a	6	47	Cue	Loss	True
448.777	4.0	Lose2	0.6875	0.0	No	2.673	0.0	n/a	NoResponse	-1	n/a	n/a	6	47	Fixation	Loss	True
452.776	0.15	Lose2	0.6875	0.001	No	2.673	-0.001	2.0	NoResponse	-1	0.184	451.96	6	47	Target	Loss	True
452.926	0.55	Lose2	0.6875	n/a	No	2.673	n/a	n/a	NoResponse	-1	n/a	n/a	6	47	Blank	Loss	True
452.96	0.3	Lose2	0.6875	0.001	No	2.673	-0.001	2.0	NoResponse	-1	0.184	n/a	6	47	ButtonPress	Loss	True
453.475	1.45	Lose2	0.6875	n/a	No	2.673	n/a	5.0	NoResponse	-1	0.013	452.488	6	47	Feedback	Loss	True
454.925	2.673	Lose2	0.6875	n/a	No	2.673	n/a	n/a	NoResponse	-1	0.0	n/a	6	47	ISIslide	Loss	True
457.624	0.25	Lose2	0.6735	0.0	No	3.026	0.024	n/a	NoResponse	-1	n/a	n/a	5	48	Cue	Loss	True
457.874	3.95	Lose2	0.6735	0.0	No	3.026	0.0	n/a	NoResponse	-1	n/a	n/a	5	48	Fixation	Loss	True
461.822	0.15	Lose2	0.6735	0.002	No	3.026	-0.002	2.0	NoResponse	-1	0.176	460.998	5	48	Target	Loss	True
461.972	0.55	Lose2	0.6735	n/a	No	3.026	n/a	n/a	NoResponse	-1	n/a	n/a	5	48	Blank	Loss	True
461.998	0.3	Lose2	0.6735	0.002	No	3.026	-0.002	2.0	NoResponse	-1	0.176	n/a	5	48	ButtonPress	Loss	True
462.522	1.45	Lose2	0.6735	n/a	No	3.026	n/a	5.0	NoResponse	-1	0.039	461.561	5	48	Feedback	Loss	True
463.972	3.026	Lose2	0.6735	n/a	No	3.026	n/a	n/a	NoResponse	-1	0.0	n/a	5	48	ISIslide	Loss	True
467.021	0.25	Control	0.66	0.0	No	2.879	0.021	n/a	NoResponse	0	n/a	n/a	5	49	Cue	Neutral	True
467.271	4.0	Control	0.66	0.0	No	2.879	0.0	n/a	NoResponse	0	n/a	n/a	5	49	Fixation	Neutral	True
471.269	0.15	Control	0.66	0.002	No	2.879	-0.002	2.0	NoResponse	0	0.174	470.443	5	49	Target	Neutral	True
471.419	0.55	Control	0.66	n/a	No	2.879	n/a	n/a	NoResponse	0	n/a	n/a	5	49	Blank	Neutral	True
471.443	0.3	Control	0.66	0.002	No	2.879	-0.002	2.0	NoResponse	0	0.174	n/a	5	49	ButtonPress	Neutral	True
471.969	1.45	Control	0.66	n/a	No	2.879	n/a	5.0	NoResponse	0	0.007	470.976	5	49	Feedback	Neutral	True
473.418	2.879	Control	0.66	n/a	No	2.879	n/a	n/a	NoResponse	0	0.0	n/a	5	49	ISIslide	Neutral	True
476.317	0.25	Control	0.6470999999999999	0.001	No	2.783	0.017	n/a	NoResponse	0	n/a	n/a	5	50	Cue	Neutral	True
476.567	4.0	Control	0.6470999999999999	0.001	No	2.783	0.0	n/a	NoResponse	0	n/a	n/a	5	50	Fixation	Neutral	True
480.566	0.15	Control	0.6470999999999999	0.001	No	2.783	-0.001	2.0	NoResponse	0	0.188	479.754	5	50	Target	Neutral	True
480.716	0.55	Control	0.6470999999999999	n/a	No	2.783	n/a	n/a	NoResponse	0	n/a	n/a	5	50	Blank	Neutral	True
480.754	0.3	Control	0.6470999999999999	0.001	No	2.783	-0.001	2.0	NoResponse	0	0.188	n/a	5	50	ButtonPress	Neutral	True
481.266	1.45	Control	0.6470999999999999	n/a	No	2.783	n/a	5.0	NoResponse	0	0.027	480.293	5	50	Feedback	Neutral	True
482.715	2.783	Control	0.6470999999999999	n/a	No	2.783	n/a	n/a	NoResponse	0	0.0	n/a	5	50	ISIslide	Neutral	True
485.514	0.25	Control	0.6346	0.0	No	2.736	0.014	n/a	NoResponse	0	n/a	n/a	5	51	Cue	Neutral	False
485.764	3.95	Control	0.6346	0.0	No	2.736	0.0	2.0	NoResponse	0	3.739	488.503	5	51	Fixation	Neutral	False
489.503	0.3	Control	0.6346	0.0	No	2.736	0.0	2.0	NoResponse	0	3.739	n/a	5	51	ButtonPress	Neutral	False
489.713	0.16	Control	0.6346	0.001	No	2.736	-0.001	2.0	NoResponse	0	0.193	488.906	5	51	Target	Neutral	False
489.879	0.54	Control	0.6346	n/a	No	2.736	n/a	n/a	NoResponse	0	n/a	n/a	5	51	Blank	Neutral	False
489.906	0.3	Control	0.6346	0.001	No	2.736	-0.001	2.0	NoResponse	0	0.193	n/a	5	51	ButtonPress	Neutral	False
490.413	1.45	Control	0.6346	n/a	No	2.736	n/a	5.0	NoResponse	0	0.003	489.416	5	51	Feedback	Neutral	False
491.862	2.736	Control	0.6346	n/a	No	2.736	n/a	n/a	NoResponse	0	0.0	n/a	5	51	ISIslide	Neutral	False
494.611	0.25	Control	0.6225999999999999	0.0	No	2.639	0.011	n/a	NoResponse	0	n/a	n/a	5	52	Cue	Neutral	True
494.861	4.05	Control	0.6225999999999999	0.0	No	2.639	0.0	n/a	NoResponse	0	n/a	n/a	5	52	Fixation	Neutral	True
498.91	0.17	Control	0.6225999999999999	0.001	No	2.639	-0.001	2.0	NoResponse	0	0.237	498.147	5	52	Target	Neutral	True
499.093	0.53	Control	0.6225999999999999	n/a	No	2.639	n/a	n/a	NoResponse	0	n/a	n/a	5	52	Blank	Neutral	True
499.147	0.3	Control	0.6225999999999999	0.001	No	2.639	-0.001	2.0	NoResponse	0	0.237	n/a	5	52	ButtonPress	Neutral	True
499.609	1.45	Control	0.6225999999999999	n/a	No	2.639	n/a	5.0	NoResponse	0	0.024	498.633	5	52	Feedback	Neutral	True
501.059	2.639	Control	0.6225999999999999	n/a	No	2.639	n/a	n/a	NoResponse	0	0.0	n/a	5	52	ISIslide	Neutral	True
503.725	0.25	Win2	0.6111	0.0	No	2.925	0.025	n/a	NoResponse	0	n/a	n/a	5	53	Cue	MissedWin	True
503.974	4.05	Win2	0.6111	0.001	No	2.925	-0.001	n/a	NoResponse	0	n/a	n/a	5	53	Fixation	MissedWin	True
508.023	0.18	Win2	0.6111	0.002	No	2.925	-0.002	2.0	NoResponse	0	0.189	507.212	5	53	Target	MissedWin	True
508.206	0.52	Win2	0.6111	n/a	No	2.925	n/a	n/a	NoResponse	0	n/a	n/a	5	53	Blank	MissedWin	True
508.212	0.3	Win2	0.6111	0.002	No	2.925	-0.002	2.0	NoResponse	0	0.189	n/a	5	53	ButtonPress	MissedWin	True
508.723	1.45	Win2	0.6111	n/a	No	2.925	n/a	5.0	NoResponse	0	0.032	507.755	5	53	Feedback	MissedWin	True
510.172	2.925	Win2	0.6111	n/a	No	2.925	n/a	n/a	NoResponse	0	0.0	n/a	5	53	ISIslide	MissedWin	True
513.121	0.25	Win2	0.6182	0.0	Yes	2.729	0.021	n/a	GoodResponse	1	n/a	n/a	6	54	Cue	Win	True
513.371	3.95	Win2	0.6182	0.0	Yes	2.729	0.0	n/a	GoodResponse	1	n/a	n/a	6	54	Fixation	Win	True
517.32	0.19	Win2	0.6182	0.001	Yes	2.729	-0.001	2.0	GoodResponse	1	0.173	516.493	6	54	Target	Win	True
517.493	0.3	Win2	0.6182	0.001	Yes	2.729	-0.001	2.0	GoodResponse	1	0.173	n/a	6	54	ButtonPress	Win	True
517.52	0.51	Win2	0.6182	n/a	Yes	2.729	n/a	n/a	GoodResponse	1	n/a	n/a	6	54	Blank	Win	True
518.02	1.45	Win2	0.6182	n/a	Yes	2.729	n/a	5.0	GoodResponse	1	0.004	517.024	6	54	Feedback	Win	True
519.469	2.729	Win2	0.6182	n/a	Yes	2.729	n/a	n/a	GoodResponse	1	0.0	n/a	6	54	ISIslide	Win	True
522.218	0.25	Control	0.625	0.0	Yes	3.032	0.018	n/a	GoodResponse	0	n/a	n/a	6	55	Cue	Neutral	False
522.468	3.95	Control	0.625	0.0	Yes	3.032	0.0	2.0	GoodResponse	0	3.291	524.759	6	55	Fixation	Neutral	False
525.759	0.3	Control	0.625	0.0	Yes	3.032	0.0	2.0	GoodResponse	0	3.291	n/a	6	55	ButtonPress	Neutral	False
526.417	0.2	Control	0.625	0.001	Yes	3.032	-0.001	2.0	GoodResponse	0	0.134	525.551	6	55	Target	Neutral	False
526.551	0.3	Control	0.625	0.001	Yes	3.032	-0.001	2.0	GoodResponse	0	0.134	n/a	6	55	ButtonPress	Neutral	False
526.617	0.5	Control	0.625	n/a	Yes	3.032	n/a	n/a	GoodResponse	0	n/a	n/a	6	55	Blank	Neutral	False
527.116	1.45	Control	0.625	n/a	Yes	3.032	n/a	5.0	GoodResponse	0	0.03	526.146	6	55	Feedback	Neutral	False
528.566	3.032	Control	0.625	n/a	Yes	3.032	n/a	n/a	GoodResponse	0	0.0	n/a	6	55	ISIslide	Neutral	False
531.615	0.25	Control	0.614	0.0	No	2.835	0.015	n/a	NoResponse	0	n/a	n/a	6	56	Cue	Neutral	True
531.865	3.95	Control	0.614	0.0	No	2.835	0.0	n/a	NoResponse	0	n/a	n/a	6	56	Fixation	Neutral	True
535.813	0.21	Control	0.614	0.002	No	2.835	-0.002	2.0	NoResponse	0	0.226	535.039	6	56	Target	Neutral	True
536.03	0.49	Control	0.614	n/a	No	2.835	n/a	n/a	NoResponse	0	n/a	n/a	6	56	Blank	Neutral	True
536.039	0.3	Control	0.614	0.002	No	2.835	-0.002	2.0	NoResponse	0	0.226	n/a	6	56	ButtonPress	Neutral	True
536.513	1.45	Control	0.614	n/a	No	2.835	n/a	5.0	NoResponse	0	0.047	535.56	6	56	Feedback	Neutral	True
537.963	2.835	Control	0.614	n/a	No	2.835	n/a	n/a	NoResponse	0	0.0	n/a	6	56	ISIslide	Neutral	True
540.812	0.25	Control	0.6207	0.0	Yes	3.488	0.012	n/a	GoodResponse	0	n/a	n/a	6	57	Cue	Neutral	True
541.062	4.0	Control	0.6207	0.0	Yes	3.488	0.0	n/a	GoodResponse	0	n/a	n/a	6	57	Fixation	Neutral	True
545.06	0.22	Control	0.6207	0.002	Yes	3.488	-0.002	2.0	GoodResponse	0	0.173	544.233	6	57	Target	Neutral	True
545.233	0.3	Control	0.6207	0.002	Yes	3.488	-0.002	2.0	GoodResponse	0	0.173	n/a	6	57	ButtonPress	Neutral	True
545.293	0.48	Control	0.6207	n/a	Yes	3.488	n/a	n/a	GoodResponse	0	n/a	n/a	6	57	Blank	Neutral	True
545.76	1.45	Control	0.6207	n/a	Yes	3.488	n/a	5.0	GoodResponse	0	0.019	544.779	6	57	Feedback	Neutral	True
547.209	3.488	Control	0.6207	n/a	Yes	3.488	n/a	n/a	GoodResponse	0	0.0	n/a	6	57	ISIslide	Neutral	True
550.725	0.25	Win2	0.6271	0.0	Yes	2.725	0.025	n/a	GoodResponse	1	n/a	n/a	7	58	Cue	Win	True
550.975	4.05	Win2	0.6271	0.0	Yes	2.725	0.0	n/a	GoodResponse	1	n/a	n/a	7	58	Fixation	Win	True
555.023	0.23	Win2	0.6271	0.002	Yes	2.725	-0.002	2.0	GoodResponse	1	0.18	554.203	7	58	Target	Win	True
555.203	0.3	Win2	0.6271	0.002	Yes	2.725	-0.002	2.0	GoodResponse	1	0.18	n/a	7	58	ButtonPress	Win	True
555.257	0.47	Win2	0.6271	n/a	Yes	2.725	n/a	n/a	GoodResponse	1	n/a	n/a	7	58	Blank	Win	True
555.723	1.45	Win2	0.6271	n/a	Yes	2.725	n/a	5.0	GoodResponse	1	0.008	554.731	7	58	Feedback	Win	True
557.173	2.725	Win2	0.6271	n/a	Yes	2.725	n/a	n/a	GoodResponse	1	0.0	n/a	7	58	ISIslide	Win	True
559.922	0.25	Lose2	0.6333	0.0	Yes	2.678	0.022	n/a	GoodResponse	0	n/a	n/a	7	59	Cue	AvoidedLoss	True
560.171	4.0	Lose2	0.6333	0.001	Yes	2.678	-0.001	n/a	GoodResponse	0	n/a	n/a	7	59	Fixation	AvoidedLoss	True
564.17	0.24	Lose2	0.6333	0.002	Yes	2.678	-0.002	2.0	GoodResponse	0	0.169	563.339	7	59	Target	AvoidedLoss	True
564.339	0.3	Lose2	0.6333	0.002	Yes	2.678	-0.002	2.0	GoodResponse	0	0.169	n/a	7	59	ButtonPress	AvoidedLoss	True
564.42	0.46	Lose2	0.6333	n/a	Yes	2.678	n/a	n/a	GoodResponse	0	n/a	n/a	7	59	Blank	AvoidedLoss	True
564.87	1.45	Lose2	0.6333	n/a	Yes	2.678	n/a	5.0	GoodResponse	0	0.032	563.902	7	59	Feedback	AvoidedLoss	True
566.319	2.678	Lose2	0.6333	n/a	Yes	2.678	n/a	n/a	GoodResponse	0	0.0	n/a	7	59	ISIslide	AvoidedLoss	True
569.018	0.25	Control	0.623	0.0	No	2.682	0.018	n/a	NoResponse	0	n/a	n/a	7	60	Cue	Neutral	True
569.268	4.0	Control	0.623	0.0	No	2.682	0.0	n/a	NoResponse	0	n/a	n/a	7	60	Fixation	Neutral	True
573.267	0.25	Control	0.623	0.001	No	2.682	-0.001	2.0	NoResponse	0	0.293	572.56	7	60	Target	Neutral	True
573.517	0.45	Control	0.623	n/a	No	2.682	n/a	n/a	NoResponse	0	n/a	n/a	7	60	Blank	Neutral	True
573.56	0.3	Control	0.623	0.001	No	2.682	-0.001	2.0	NoResponse	0	0.293	n/a	7	60	ButtonPress	Neutral	True
573.967	1.45	Control	0.623	n/a	No	2.682	n/a	5.0	NoResponse	0	0.008	572.975	7	60	Feedback	Neutral	True
575.416	2.682	Control	0.623	n/a	No	2.682	n/a	n/a	NoResponse	0	0.0	n/a	7	60	ISIslide	Neutral	True
578.115	0.25	Lose2	0.629	0.0	Yes	2.985	0.015	n/a	GoodResponse	0	n/a	n/a	7	61	Cue	AvoidedLoss	True
578.365	4.0	Lose2	0.629	0.0	Yes	2.985	0.0	n/a	GoodResponse	0	n/a	n/a	7	61	Fixation	AvoidedLoss	True
582.364	0.26	Lose2	0.629	0.001	Yes	2.985	-0.001	2.0	GoodResponse	0	0.183	581.547	7	61	Target	AvoidedLoss	True
582.547	0.3	Lose2	0.629	0.001	Yes	2.985	-0.001	2.0	GoodResponse	0	0.183	n/a	7	61	ButtonPress	AvoidedLoss	True
582.63	0.44	Lose2	0.629	n/a	Yes	2.985	n/a	n/a	GoodResponse	0	n/a	n/a	7	61	Blank	AvoidedLoss	True
583.064	1.45	Lose2	0.629	n/a	Yes	2.985	n/a	5.0	GoodResponse	0	0.032	582.096	7	61	Feedback	AvoidedLoss	True
584.513	2.985	Lose2	0.629	n/a	Yes	2.985	n/a	n/a	GoodResponse	0	0.0	n/a	7	61	ISIslide	AvoidedLoss	True
587.529	0.25	Lose2	0.6349	0.0	Yes	2.871	0.029	n/a	GoodResponse	0	n/a	n/a	7	62	Cue	AvoidedLoss	True
587.779	3.9	Lose2	0.6349	0.0	Yes	2.871	0.0	n/a	GoodResponse	0	n/a	n/a	7	62	Fixation	AvoidedLoss	True
591.677	0.27	Lose2	0.6349	0.002	Yes	2.871	-0.002	2.0	GoodResponse	0	0.18	590.857	7	62	Target	AvoidedLoss	True
591.857	0.3	Lose2	0.6349	0.002	Yes	2.871	-0.002	2.0	GoodResponse	0	0.18	n/a	7	62	ButtonPress	AvoidedLoss	True
591.96	0.43	Lose2	0.6349	n/a	Yes	2.871	n/a	n/a	GoodResponse	0	n/a	n/a	7	62	Blank	AvoidedLoss	True
592.377	1.45	Lose2	0.6349	n/a	Yes	2.871	n/a	5.0	GoodResponse	0	0.036	591.413	7	62	Feedback	AvoidedLoss	True
593.826	2.871	Lose2	0.6349	n/a	Yes	2.871	n/a	n/a	GoodResponse	0	0.0	n/a	7	62	ISIslide	AvoidedLoss	True
596.725	0.25	Lose2	0.6406000000000001	0.0	Yes	2.625	0.025	n/a	GoodResponse	0	n/a	n/a	7	63	Cue	AvoidedLoss	True
596.975	4.05	Lose2	0.6406000000000001	0.0	Yes	2.625	0.0	n/a	GoodResponse	0	n/a	n/a	7	63	Fixation	AvoidedLoss	True
601.024	0.28	Lose2	0.6406000000000001	0.001	Yes	2.625	-0.001	2.0	GoodResponse	0	0.179	600.203	7	63	Target	AvoidedLoss	True
601.203	0.3	Lose2	0.6406000000000001	0.001	Yes	2.625	-0.001	2.0	GoodResponse	0	0.179	n/a	7	63	ButtonPress	AvoidedLoss	True
601.307	0.42	Lose2	0.6406000000000001	n/a	Yes	2.625	n/a	n/a	GoodResponse	0	n/a	n/a	7	63	Blank	AvoidedLoss	True
601.724	1.45	Lose2	0.6406000000000001	n/a	Yes	2.625	n/a	5.0	GoodResponse	0	0.006	600.73	7	63	Feedback	AvoidedLoss	True
603.173	2.625	Lose2	0.6406000000000001	n/a	Yes	2.625	n/a	n/a	GoodResponse	0	0.0	n/a	7	63	ISIslide	AvoidedLoss	True
605.822	0.25	Win2	0.6462	0.0	Yes	3.128	0.022	n/a	GoodResponse	1	n/a	n/a	8	64	Cue	Win	True
606.072	4.15	Win2	0.6462	0.0	Yes	3.128	0.0	n/a	GoodResponse	1	n/a	n/a	8	64	Fixation	Win	True
610.221	0.29	Win2	0.6462	0.001	Yes	3.128	-0.001	2.0	GoodResponse	1	0.149	609.37	8	64	Target	Win	True
610.37	0.3	Win2	0.6462	0.001	Yes	3.128	-0.001	2.0	GoodResponse	1	0.149	n/a	8	64	ButtonPress	Win	True
610.521	0.41	Win2	0.6462	n/a	Yes	3.128	n/a	n/a	GoodResponse	1	n/a	n/a	8	64	Blank	Win	True
610.92	1.45	Win2	0.6462	n/a	Yes	3.128	n/a	5.0	GoodResponse	1	0.03	609.95	8	64	Feedback	Win	True
612.37	3.128	Win2	0.6462	n/a	Yes	3.128	n/a	n/a	GoodResponse	1	0.0	n/a	8	64	ISIslide	Win	True
615.519	0.25	Control	0.6515000000000001	0.0	Yes	2.781	0.019	n/a	GoodResponse	0	n/a	n/a	8	65	Cue	Neutral	True
615.769	4.0	Control	0.6515000000000001	0.0	Yes	2.781	0.0	n/a	GoodResponse	0	n/a	n/a	8	65	Fixation	Neutral	True
619.767	0.3	Control	0.6515000000000001	0.002	Yes	2.781	-0.002	2.0	GoodResponse	0	0.18	618.947	8	65	Target	Neutral	True
619.947	0.3	Control	0.6515000000000001	0.002	Yes	2.781	-0.002	2.0	GoodResponse	0	0.18	n/a	8	65	ButtonPress	Neutral	True
620.067	0.4	Control	0.6515000000000001	n/a	Yes	2.781	n/a	n/a	GoodResponse	0	n/a	n/a	8	65	Blank	Neutral	True
620.467	1.45	Control	0.6515000000000001	n/a	Yes	2.781	n/a	5.0	GoodResponse	0	0.044	619.511	8	65	Feedback	Neutral	True
621.917	2.781	Control	0.6515000000000001	n/a	Yes	2.781	n/a	n/a	GoodResponse	0	0.0	n/a	8	65	ISIslide	Neutral	True
624.716	0.25	Win2	0.6567000000000001	0.0	Yes	2.784	0.016	n/a	GoodResponse	1	n/a	n/a	9	66	Cue	Win	True
624.966	3.9	Win2	0.6567000000000001	0.0	Yes	2.784	0.0	n/a	GoodResponse	1	n/a	n/a	9	66	Fixation	Win	True
628.864	0.31	Win2	0.6567000000000001	0.002	Yes	2.784	-0.002	2.0	GoodResponse	1	0.157	628.021	9	66	Target	Win	True
629.021	0.3	Win2	0.6567000000000001	0.002	Yes	2.784	-0.002	2.0	GoodResponse	1	0.157	n/a	9	66	ButtonPress	Win	True
629.181	0.39	Win2	0.6567000000000001	n/a	Yes	2.784	n/a	n/a	GoodResponse	1	n/a	n/a	9	66	Blank	Win	True
629.564	1.45	Win2	0.6567000000000001	n/a	Yes	2.784	n/a	5.0	GoodResponse	1	0.019	628.583	9	66	Feedback	Win	True
631.013	2.784	Win2	0.6567000000000001	n/a	Yes	2.784	n/a	n/a	GoodResponse	1	0.0	n/a	9	66	ISIslide	Win	True
633.812	0.25	Control	0.6470999999999999	0.001	No	2.738	0.012	n/a	NoResponse	0	n/a	n/a	9	67	Cue	Neutral	True
634.062	3.95	Control	0.6470999999999999	0.0	No	2.738	0.0	n/a	NoResponse	0	n/a	n/a	9	67	Fixation	Neutral	True
638.011	0.31	Control	0.6470999999999999	0.001	No	2.738	-0.001	2.0	NoResponse	0	0.329	637.34	9	67	Target	Neutral	True
638.328	0.39	Control	0.6470999999999999	n/a	No	2.738	n/a	n/a	NoResponse	0	n/a	n/a	9	67	Blank	Neutral	True
638.34	0.3	Control	0.6470999999999999	0.001	No	2.738	-0.001	2.0	NoResponse	0	0.329	n/a	9	67	ButtonPress	Neutral	True
638.711	1.45	Control	0.6470999999999999	n/a	No	2.738	n/a	5.0	NoResponse	0	0.043	637.754	9	67	Feedback	Neutral	True
640.16	2.738	Control	0.6470999999999999	n/a	No	2.738	n/a	n/a	NoResponse	0	0.0	n/a	9	67	ISIslide	Neutral	True
642.926	0.25	Win2	0.6522	0.0	Yes	3.074	0.026	n/a	GoodResponse	1	n/a	n/a	10	68	Cue	Win	True
643.176	4.0	Win2	0.6522	0.0	Yes	3.074	0.0	n/a	GoodResponse	1	n/a	n/a	10	68	Fixation	Win	True
647.174	0.32	Win2	0.6522	0.002	Yes	3.074	-0.002	2.0	GoodResponse	1	0.174	646.348	10	68	Target	Win	True
647.348	0.3	Win2	0.6522	0.002	Yes	3.074	-0.002	2.0	GoodResponse	1	0.174	n/a	10	68	ButtonPress	Win	True
647.508	0.38	Win2	0.6522	n/a	Yes	3.074	n/a	n/a	GoodResponse	1	n/a	n/a	10	68	Blank	Win	True
647.874	1.45	Win2	0.6522	n/a	Yes	3.074	n/a	5.0	GoodResponse	1	0.002	646.876	10	68	Feedback	Win	True
649.324	3.074	Win2	0.6522	n/a	Yes	3.074	n/a	n/a	GoodResponse	1	0.0	n/a	10	68	ISIslide	Win	True
652.423	0.25	Win2	0.6570999999999999	0.0	Yes	3.227	0.023	n/a	GoodResponse	1	n/a	n/a	11	69	Cue	Win	True
652.673	3.95	Win2	0.6570999999999999	0.0	Yes	3.227	0.0	n/a	GoodResponse	1	n/a	n/a	11	69	Fixation	Win	True
656.621	0.33	Win2	0.6570999999999999	0.002	Yes	3.227	-0.002	2.0	GoodResponse	1	0.182	655.803	11	69	Target	Win	True
656.803	0.3	Win2	0.6570999999999999	0.002	Yes	3.227	-0.002	2.0	GoodResponse	1	0.182	n/a	11	69	ButtonPress	Win	True
656.954	0.37	Win2	0.6570999999999999	n/a	Yes	3.227	n/a	n/a	GoodResponse	1	n/a	n/a	11	69	Blank	Win	True
657.321	1.45	Win2	0.6570999999999999	n/a	Yes	3.227	n/a	5.0	GoodResponse	1	0.019	656.34	11	69	Feedback	Win	True
658.77	3.227	Win2	0.6570999999999999	n/a	Yes	3.227	n/a	n/a	GoodResponse	1	0.0	n/a	11	69	ISIslide	Win	True
662.019	0.25	Lose2	0.662	0.0	Yes	3.031	0.019	n/a	GoodResponse	0	n/a	n/a	11	70	Cue	AvoidedLoss	True
662.269	4.05	Lose2	0.662	0.0	Yes	3.031	0.0	n/a	GoodResponse	0	n/a	n/a	11	70	Fixation	AvoidedLoss	True
666.318	0.33	Lose2	0.662	0.001	Yes	3.031	-0.001	2.0	GoodResponse	0	0.18	665.498	11	70	Target	AvoidedLoss	True
666.498	0.3	Lose2	0.662	0.001	Yes	3.031	-0.001	2.0	GoodResponse	0	0.18	n/a	11	70	ButtonPress	AvoidedLoss	True
666.651	0.37	Lose2	0.662	n/a	Yes	3.031	n/a	n/a	GoodResponse	0	n/a	n/a	11	70	Blank	AvoidedLoss	True
667.018	1.45	Lose2	0.662	n/a	Yes	3.031	n/a	5.0	GoodResponse	0	0.029	666.047	11	70	Feedback	AvoidedLoss	True
668.467	3.031	Lose2	0.662	n/a	Yes	3.031	n/a	n/a	GoodResponse	0	0.0	n/a	11	70	ISIslide	AvoidedLoss	True
671.516	0.25	Win2	0.6667000000000001	0.0	Yes	2.734	0.016	n/a	GoodResponse	1	n/a	n/a	12	71	Cue	Win	True
671.766	4.05	Win2	0.6667000000000001	0.0	Yes	2.734	0.0	n/a	GoodResponse	1	n/a	n/a	12	71	Fixation	Win	True
675.815	0.33	Win2	0.6667000000000001	0.001	Yes	2.734	-0.001	2.0	GoodResponse	1	0.176	674.991	12	71	Target	Win	True
675.991	0.3	Win2	0.6667000000000001	0.001	Yes	2.734	-0.001	2.0	GoodResponse	1	0.176	n/a	12	71	ButtonPress	Win	True
676.148	0.37	Win2	0.6667000000000001	n/a	Yes	2.734	n/a	n/a	GoodResponse	1	n/a	n/a	12	71	Blank	Win	True
676.514	1.45	Win2	0.6667000000000001	n/a	Yes	2.734	n/a	5.0	GoodResponse	1	0.046	675.56	12	71	Feedback	Win	True
677.964	2.734	Win2	0.6667000000000001	n/a	Yes	2.734	n/a	n/a	GoodResponse	1	0.0	n/a	12	71	ISIslide	Win	True
680.729	0.25	Win2	0.6712	0.001	Yes	2.771	0.029	n/a	GoodResponse	1	n/a	n/a	13	72	Cue	Win	True
680.979	4.1	Win2	0.6712	0.0	Yes	2.771	0.0	n/a	GoodResponse	1	n/a	n/a	13	72	Fixation	Win	True
685.078	0.32	Win2	0.6712	0.001	Yes	2.771	-0.001	2.0	GoodResponse	1	0.144	684.222	13	72	Target	Win	True
685.222	0.3	Win2	0.6712	0.001	Yes	2.771	-0.001	2.0	GoodResponse	1	0.144	n/a	13	72	ButtonPress	Win	True
685.394	0.38	Win2	0.6712	n/a	Yes	2.771	n/a	n/a	GoodResponse	1	n/a	n/a	13	72	Blank	Win	True
685.778	1.45	Win2	0.6712	n/a	Yes	2.771	n/a	5.0	GoodResponse	1	0.0	684.778	13	72	Feedback	Win	True
687.227	2.771	Win2	0.6712	n/a	Yes	2.771	n/a	n/a	GoodResponse	1	0.0	n/a	13	72	ISIslide	Win	True
690.026	0.25	Win2	0.6622	0.0	No	2.674	0.026	n/a	PrematurePress	0	n/a	n/a	13	73	Cue	MissedWin	True
690.276	4.0	Win2	0.6622	0.0	No	2.674	0.0	n/a	PrematurePress	0	n/a	n/a	13	73	Fixation	MissedWin	True
694.275	0.31	Win2	0.6622	0.001	No	2.674	-0.001	2.0	PrematurePress	0	0.025	693.3	13	73	Target	MissedWin	True
694.3	0.3	Win2	0.6622	0.001	No	2.674	-0.001	2.0	PrematurePress	0	0.025	n/a	13	73	ButtonPress	MissedWin	True
694.591	0.39	Win2	0.6622	n/a	No	2.674	n/a	n/a	PrematurePress	0	n/a	n/a	13	73	Blank	MissedWin	True
694.974	1.45	Win2	0.6622	n/a	No	2.674	n/a	5.0	PrematurePress	0	0.024	693.998	13	73	Feedback	MissedWin	True
696.424	2.674	Win2	0.6622	n/a	No	2.674	n/a	n/a	PrematurePress	0	0.0	n/a	13	73	ISIslide	MissedWin	True
699.123	0.25	Lose2	0.6667000000000001	0.0	Yes	2.627	0.023	n/a	GoodResponse	0	n/a	n/a	13	74	Cue	AvoidedLoss	True
699.373	4.05	Lose2	0.6667000000000001	0.0	Yes	2.627	0.0	n/a	GoodResponse	0	n/a	n/a	13	74	Fixation	AvoidedLoss	True
703.422	0.31	Lose2	0.6667000000000001	0.001	Yes	2.627	-0.001	2.0	GoodResponse	0	0.157	702.579	13	74	Target	AvoidedLoss	True
703.579	0.3	Lose2	0.6667000000000001	0.001	Yes	2.627	-0.001	2.0	GoodResponse	0	0.157	n/a	13	74	ButtonPress	AvoidedLoss	True
703.738	0.39	Lose2	0.6667000000000001	n/a	Yes	2.627	n/a	n/a	GoodResponse	0	n/a	n/a	13	74	Blank	AvoidedLoss	True
704.121	1.45	Lose2	0.6667000000000001	n/a	Yes	2.627	n/a	5.0	GoodResponse	0	0.048	703.169	13	74	Feedback	AvoidedLoss	True
705.571	2.627	Lose2	0.6667000000000001	n/a	Yes	2.627	n/a	n/a	GoodResponse	0	0.0	n/a	13	74	ISIslide	AvoidedLoss	True
708.22	0.25	Lose2	0.6711	0.0	Yes	2.93	0.02	n/a	GoodResponse	0	n/a	n/a	13	75	Cue	AvoidedLoss	True
708.47	3.95	Lose2	0.6711	0.0	Yes	2.93	0.0	n/a	GoodResponse	0	n/a	n/a	13	75	Fixation	AvoidedLoss	True
712.418	0.3	Lose2	0.6711	0.002	Yes	2.93	-0.002	2.0	GoodResponse	0	0.194	711.612	13	75	Target	AvoidedLoss	True
712.612	0.3	Lose2	0.6711	0.002	Yes	2.93	-0.002	2.0	GoodResponse	0	0.194	n/a	13	75	ButtonPress	AvoidedLoss	True
712.718	0.4	Lose2	0.6711	n/a	Yes	2.93	n/a	n/a	GoodResponse	0	n/a	n/a	13	75	Blank	AvoidedLoss	True
713.118	1.45	Lose2	0.6711	n/a	Yes	2.93	n/a	5.0	GoodResponse	0	0.026	712.144	13	75	Feedback	AvoidedLoss	True
714.568	2.93	Lose2	0.6711	n/a	Yes	2.93	n/a	n/a	GoodResponse	0	0.0	n/a	13	75	ISIslide	AvoidedLoss	True
717.517	0.25	Control	0.6753	0.0	Yes	3.233	0.017	n/a	GoodResponse	0	n/a	n/a	13	76	Cue	Neutral	True
717.767	4.05	Control	0.6753	0.0	Yes	3.233	0.0	n/a	GoodResponse	0	n/a	n/a	13	76	Fixation	Neutral	True
721.815	0.29	Control	0.6753	0.002	Yes	3.233	-0.002	2.0	GoodResponse	0	0.18	720.995	13	76	Target	Neutral	True
721.995	0.3	Control	0.6753	0.002	Yes	3.233	-0.002	2.0	GoodResponse	0	0.18	n/a	13	76	ButtonPress	Neutral	True
722.115	0.41	Control	0.6753	n/a	Yes	3.233	n/a	n/a	GoodResponse	0	n/a	n/a	13	76	Blank	Neutral	True
722.515	1.45	Control	0.6753	n/a	Yes	3.233	n/a	5.0	GoodResponse	0	0.044	721.559	13	76	Feedback	Neutral	True
723.964	3.233	Control	0.6753	n/a	Yes	3.233	n/a	n/a	GoodResponse	0	0.0	n/a	13	76	ISIslide	Neutral	True
727.213	0.25	Lose2	0.6795	0.0	Yes	2.587	0.013	n/a	GoodResponse	0	n/a	n/a	13	77	Cue	AvoidedLoss	True
727.463	3.95	Lose2	0.6795	0.0	Yes	2.587	0.0	n/a	GoodResponse	0	n/a	n/a	13	77	Fixation	AvoidedLoss	True
731.412	0.28	Lose2	0.6795	0.001	Yes	2.587	-0.001	2.0	GoodResponse	0	0.158	730.57	13	77	Target	AvoidedLoss	True
731.57	0.3	Lose2	0.6795	0.001	Yes	2.587	-0.001	2.0	GoodResponse	0	0.158	n/a	13	77	ButtonPress	AvoidedLoss	True
731.695	0.42	Lose2	0.6795	n/a	Yes	2.587	n/a	n/a	GoodResponse	0	n/a	n/a	13	77	Blank	AvoidedLoss	True
732.112	1.45	Lose2	0.6795	n/a	Yes	2.587	n/a	5.0	GoodResponse	0	0.007	731.119	13	77	Feedback	AvoidedLoss	True
733.561	2.587	Lose2	0.6795	n/a	Yes	2.587	n/a	n/a	GoodResponse	0	0.0	n/a	13	77	ISIslide	AvoidedLoss	True
