onset	duration	cue_type	current_mean_accuracy	duration_error	is_hit	isi_adjusted	onset_delay	response	response_type	reward	rt	rt_time	total_reward	trial_number	trial_phase	trial_type	one_press
11.107	0.25	Control	1.0	0.0	Yes	2.943	0.007	n/a	GoodResponse	0	n/a	n/a	0	0	Cue	Neutral	True
11.358	3.85	Control	1.0	0.0	Yes	2.943	0.001	n/a	GoodResponse	0	n/a	n/a	0	0	Fixation	Neutral	True
15.203	0.4	Control	1.0	0.004	Yes	2.943	-0.004	4.0	GoodResponse	0	0.229	14.432	0	0	Target	Neutral	True
15.432	0.3	Control	1.0	0.004	Yes	2.943	-0.004	4.0	GoodResponse	0	0.229	n/a	0	0	ButtonPress	Neutral	True
15.604	0.3	Control	1.0	n/a	Yes	2.943	n/a	n/a	GoodResponse	0	n/a	n/a	0	0	Blank	Neutral	True
15.905	1.45	Control	1.0	n/a	Yes	2.943	n/a	5.0	GoodResponse	0	0.022	14.927	0	0	Feedback	Neutral	True
17.359	2.943	Control	1.0	n/a	Yes	2.943	n/a	n/a	GoodResponse	0	0.0	n/a	0	0	ISIslide	Neutral	True
20.318	0.25	Lose2	1.0	0.0	Yes	2.782	0.018	n/a	GoodResponse	0	n/a	n/a	0	1	Cue	AvoidedLoss	True
20.569	4.0	Lose2	1.0	0.0	Yes	2.782	0.001	n/a	GoodResponse	0	n/a	n/a	0	1	Fixation	AvoidedLoss	True
24.564	0.39	Lose2	1.0	0.004	Yes	2.782	-0.004	4.0	GoodResponse	0	0.214	23.778	0	1	Target	AvoidedLoss	True
24.778	0.3	Lose2	1.0	0.004	Yes	2.782	-0.004	4.0	GoodResponse	0	0.214	n/a	0	1	ButtonPress	AvoidedLoss	True
24.965	0.31	Lose2	1.0	n/a	Yes	2.782	n/a	n/a	GoodResponse	0	n/a	n/a	0	1	Blank	AvoidedLoss	True
25.266	1.45	Lose2	1.0	n/a	Yes	2.782	n/a	5.0	GoodResponse	0	0.026	24.292	0	1	Feedback	AvoidedLoss	True
26.72	2.782	Lose2	1.0	n/a	Yes	2.782	n/a	n/a	GoodResponse	0	0.0	n/a	0	1	ISIslide	AvoidedLoss	True
29.529	0.25	Control	1.0	0.0	Yes	2.571	0.029	n/a	GoodResponse	0	n/a	n/a	0	2	Cue	Neutral	True
29.78	4.1	Control	1.0	0.0	Yes	2.571	0.001	n/a	GoodResponse	0	n/a	n/a	0	2	Fixation	Neutral	True
33.875	0.38	Control	1.0	0.004	Yes	2.571	-0.004	4.0	GoodResponse	0	0.212	33.087	0	2	Target	Neutral	True
34.087	0.3	Control	1.0	0.004	Yes	2.571	-0.004	4.0	GoodResponse	0	0.212	n/a	0	2	ButtonPress	Neutral	True
34.26	0.32	Control	1.0	n/a	Yes	2.571	n/a	n/a	GoodResponse	0	n/a	n/a	0	2	Blank	Neutral	True
34.577	1.45	Control	1.0	n/a	Yes	2.571	n/a	5.0	GoodResponse	0	0.032	33.609	0	2	Feedback	Neutral	True
36.032	2.571	Control	1.0	n/a	Yes	2.571	n/a	n/a	GoodResponse	0	0.0	n/a	0	2	ISIslide	Neutral	True
38.623	0.25	Win2	1.0	0.0	Yes	2.827	0.023	n/a	GoodResponse	1	n/a	n/a	1	3	Cue	Win	True
38.874	3.95	Win2	1.0	0.0	Yes	2.827	0.001	n/a	GoodResponse	1	n/a	n/a	1	3	Fixation	Win	True
42.819	0.37	Win2	1.0	0.004	Yes	2.827	-0.004	4.0	GoodResponse	1	0.205	42.024	1	3	Target	Win	True
43.024	0.3	Win2	1.0	0.004	Yes	2.827	-0.004	4.0	GoodResponse	1	0.205	n/a	1	3	ButtonPress	Win	True
43.203	0.33	Win2	1.0	n/a	Yes	2.827	n/a	n/a	GoodResponse	1	n/a	n/a	1	3	Blank	Win	True
43.521	1.45	Win2	1.0	n/a	Yes	2.827	n/a	5.0	GoodResponse	1	0.015	42.536	1	3	Feedback	Win	True
44.975	2.827	Win2	1.0	n/a	Yes	2.827	n/a	n/a	GoodResponse	1	0.0	n/a	1	3	ISIslide	Win	True
47.817	0.25	Win2	1.0	0.0	Yes	3.283	0.017	n/a	GoodResponse	1	n/a	n/a	2	4	Cue	Win	True
48.068	4.0	Win2	1.0	0.0	Yes	3.283	0.001	n/a	GoodResponse	1	n/a	n/a	2	4	Fixation	Win	True
52.063	0.36	Win2	1.0	0.004	Yes	3.283	-0.004	4.0	GoodResponse	1	0.185	51.248	2	4	Target	Win	True
52.248	0.3	Win2	1.0	0.004	Yes	3.283	-0.004	4.0	GoodResponse	1	0.185	n/a	2	4	ButtonPress	Win	True
52.431	0.34	Win2	1.0	n/a	Yes	3.283	n/a	n/a	GoodResponse	1	n/a	n/a	2	4	Blank	Win	True
52.765	1.45	Win2	1.0	n/a	Yes	3.283	n/a	5.0	GoodResponse	1	0.04	51.805	2	4	Feedback	Win	True
54.219	3.283	Win2	1.0	n/a	Yes	3.283	n/a	n/a	GoodResponse	1	0.0	n/a	2	4	ISIslide	Win	True
57.529	0.25	Win2	1.0	0.0	Yes	2.771	0.029	n/a	GoodResponse	1	n/a	n/a	3	5	Cue	Win	True
57.78	4.0	Win2	1.0	0.0	Yes	2.771	0.001	n/a	GoodResponse	1	n/a	n/a	3	5	Fixation	Win	True
61.775	0.35	Win2	1.0	0.004	Yes	2.771	-0.004	4.0	GoodResponse	1	0.26	61.035	3	5	Target	Win	True
62.035	0.3	Win2	1.0	0.004	Yes	2.771	-0.004	4.0	GoodResponse	1	0.26	n/a	3	5	ButtonPress	Win	True
62.127	0.35	Win2	1.0	n/a	Yes	2.771	n/a	n/a	GoodResponse	1	n/a	n/a	3	5	Blank	Win	True
62.478	1.45	Win2	1.0	n/a	Yes	2.771	n/a	5.0	GoodResponse	1	0.034	61.512	3	5	Feedback	Win	True
63.932	2.771	Win2	1.0	n/a	Yes	2.771	n/a	n/a	GoodResponse	1	0.0	n/a	3	5	ISIslide	Win	True
66.724	0.25	Lose2	1.0	0.0	Yes	2.726	0.024	n/a	GoodResponse	0	n/a	n/a	3	6	Cue	AvoidedLoss	True
66.974	3.95	Lose2	1.0	0.0	Yes	2.726	0.0	n/a	GoodResponse	0	n/a	n/a	3	6	Fixation	AvoidedLoss	True
70.92	0.34	Lose2	1.0	0.004	Yes	2.726	-0.004	4.0	GoodResponse	0	0.21	70.13	3	6	Target	AvoidedLoss	True
71.13	0.3	Lose2	1.0	0.004	Yes	2.726	-0.004	4.0	GoodResponse	0	0.21	n/a	3	6	ButtonPress	AvoidedLoss	True
71.271	0.36	Lose2	1.0	n/a	Yes	2.726	n/a	n/a	GoodResponse	0	n/a	n/a	3	6	Blank	AvoidedLoss	True
71.622	1.45	Lose2	1.0	n/a	Yes	2.726	n/a	5.0	GoodResponse	0	0.012	70.634	3	6	Feedback	AvoidedLoss	True
73.076	2.726	Lose2	1.0	n/a	Yes	2.726	n/a	n/a	GoodResponse	0	0.0	n/a	3	6	ISIslide	AvoidedLoss	True
75.818	0.25	Lose2	1.0	0.0	Yes	4.032	0.018	n/a	GoodResponse	0	n/a	n/a	3	7	Cue	AvoidedLoss	True
76.068	4.05	Lose2	1.0	0.0	Yes	4.032	0.0	n/a	GoodResponse	0	n/a	n/a	3	7	Fixation	AvoidedLoss	True
80.114	0.33	Lose2	1.0	0.004	Yes	4.032	-0.004	4.0	GoodResponse	0	0.202	79.316	3	7	Target	AvoidedLoss	True
80.316	0.3	Lose2	1.0	0.004	Yes	4.032	-0.004	4.0	GoodResponse	0	0.202	n/a	3	7	ButtonPress	AvoidedLoss	True
80.448	0.37	Lose2	1.0	n/a	Yes	4.032	n/a	n/a	GoodResponse	0	n/a	n/a	3	7	Blank	AvoidedLoss	True
80.816	1.45	Lose2	1.0	n/a	Yes	4.032	n/a	5.0	GoodResponse	0	0.037	79.853	3	7	Feedback	AvoidedLoss	True
82.27	4.032	Lose2	1.0	n/a	Yes	4.032	n/a	n/a	GoodResponse	0	0.0	n/a	3	7	ISIslide	AvoidedLoss	True
86.316	0.25	Lose2	1.0	0.0	Yes	3.034	0.016	n/a	GoodResponse	0	n/a	n/a	3	8	Cue	AvoidedLoss	True
86.566	3.95	Lose2	1.0	0.001	Yes	3.034	0.0	n/a	GoodResponse	0	n/a	n/a	3	8	Fixation	AvoidedLoss	True
90.512	0.32	Lose2	1.0	0.004	Yes	3.034	-0.004	4.0	GoodResponse	0	0.228	89.74	3	8	Target	AvoidedLoss	True
90.74	0.3	Lose2	1.0	0.004	Yes	3.034	-0.004	4.0	GoodResponse	0	0.228	n/a	3	8	ButtonPress	AvoidedLoss	True
90.846	0.38	Lose2	1.0	n/a	Yes	3.034	n/a	n/a	GoodResponse	0	n/a	n/a	3	8	Blank	AvoidedLoss	True
91.214	1.45	Lose2	1.0	n/a	Yes	3.034	n/a	5.0	GoodResponse	0	0.029	90.243	3	8	Feedback	AvoidedLoss	True
92.668	3.034	Lose2	1.0	n/a	Yes	3.034	n/a	n/a	GoodResponse	0	0.0	n/a	3	8	ISIslide	AvoidedLoss	True
95.727	0.25	Lose2	1.0	0.0	Yes	3.123	0.027	n/a	GoodResponse	0	n/a	n/a	3	9	Cue	AvoidedLoss	True
95.978	3.95	Lose2	1.0	0.0	Yes	3.123	0.001	n/a	GoodResponse	0	n/a	n/a	3	9	Fixation	AvoidedLoss	True
99.923	0.31	Lose2	1.0	0.004	Yes	3.123	-0.004	4.0	GoodResponse	0	0.208	99.131	3	9	Target	AvoidedLoss	True
100.131	0.3	Lose2	1.0	0.004	Yes	3.123	-0.004	4.0	GoodResponse	0	0.208	n/a	3	9	ButtonPress	AvoidedLoss	True
100.241	0.39	Lose2	1.0	n/a	Yes	3.123	n/a	n/a	GoodResponse	0	n/a	n/a	3	9	Blank	AvoidedLoss	True
100.625	1.45	Lose2	1.0	n/a	Yes	3.123	n/a	5.0	GoodResponse	0	0.033	99.658	3	9	Feedback	AvoidedLoss	True
102.08	3.123	Lose2	1.0	n/a	Yes	3.123	n/a	n/a	GoodResponse	0	0.0	n/a	3	9	ISIslide	AvoidedLoss	True
105.222	0.25	Control	1.0	0.0	Yes	3.278	0.022	n/a	GoodResponse	0	n/a	n/a	3	10	Cue	Neutral	True
105.473	4.0	Control	1.0	0.0	Yes	3.278	0.001	n/a	GoodResponse	0	n/a	n/a	3	10	Fixation	Neutral	True
109.468	0.3	Control	1.0	0.004	Yes	3.278	-0.004	4.0	GoodResponse	0	0.203	108.671	3	10	Target	Neutral	True
109.671	0.3	Control	1.0	0.004	Yes	3.278	-0.004	4.0	GoodResponse	0	0.203	n/a	3	10	ButtonPress	Neutral	True
109.769	0.4	Control	1.0	n/a	Yes	3.278	n/a	n/a	GoodResponse	0	n/a	n/a	3	10	Blank	Neutral	True
110.17	1.45	Control	1.0	n/a	Yes	3.278	n/a	5.0	GoodResponse	0	0.049	109.219	3	10	Feedback	Neutral	True
111.625	3.278	Control	1.0	n/a	Yes	3.278	n/a	n/a	GoodResponse	0	0.0	n/a	3	10	ISIslide	Neutral	True
114.918	0.25	Lose2	1.0	0.0	Yes	2.732	0.018	n/a	GoodResponse	0	n/a	n/a	3	11	Cue	AvoidedLoss	True
115.169	4.05	Lose2	1.0	0.0	Yes	2.732	0.001	n/a	GoodResponse	0	n/a	n/a	3	11	Fixation	AvoidedLoss	True
119.214	0.29	Lose2	1.0	0.004	Yes	2.732	-0.004	4.0	GoodResponse	0	0.177	118.391	3	11	Target	AvoidedLoss	True
119.391	0.3	Lose2	1.0	0.004	Yes	2.732	-0.004	4.0	GoodResponse	0	0.177	n/a	3	11	ButtonPress	AvoidedLoss	True
119.515	0.41	Lose2	1.0	n/a	Yes	2.732	n/a	n/a	GoodResponse	0	n/a	n/a	3	11	Blank	AvoidedLoss	True
119.916	1.45	Lose2	1.0	n/a	Yes	2.732	n/a	5.0	GoodResponse	0	0.01	118.926	3	11	Feedback	AvoidedLoss	True
121.371	2.732	Lose2	1.0	n/a	Yes	2.732	n/a	n/a	GoodResponse	0	0.0	n/a	3	11	ISIslide	AvoidedLoss	True
124.129	0.25	Control	0.9231	0.0	No	2.971	0.029	n/a	NoResponse	0	n/a	n/a	3	12	Cue	Neutral	False
124.38	3.9	Control	0.9231	0.0	No	2.971	0.001	n/a	NoResponse	0	n/a	n/a	3	12	Fixation	Neutral	False
128.275	0.28	Control	0.9231	0.004	No	2.971	-0.004	n/a	NoResponse	0	n/a	n/a	3	12	Target	Neutral	False
128.559	0.42	Control	0.9231	n/a	No	2.971	n/a	n/a	NoResponse	0	n/a	n/a	3	12	Blank	Neutral	False
128.977	1.45	Control	0.9231	n/a	No	2.971	n/a	5.0	NoResponse	0	0.023	128.0	3	12	Feedback	Neutral	False
130.431	2.971	Control	0.9231	n/a	No	2.971	n/a	n/a	NoResponse	0	0.0	n/a	3	12	ISIslide	Neutral	False
133.423	0.25	Control	0.8571	0.001	No	2.777	0.023	n/a	NoResponse	0	n/a	n/a	3	13	Cue	Neutral	False
133.674	4.0	Control	0.8571	0.0	No	2.777	0.001	n/a	NoResponse	0	n/a	n/a	3	13	Fixation	Neutral	False
137.67	0.27	Control	0.8571	0.003	No	2.777	-0.003	n/a	NoResponse	0	n/a	n/a	3	13	Target	Neutral	False
137.954	0.43	Control	0.8571	n/a	No	2.777	n/a	n/a	NoResponse	0	n/a	n/a	3	13	Blank	Neutral	False
138.372	1.45	Control	0.8571	n/a	No	2.777	n/a	5.0	NoResponse	0	0.041	137.413	3	13	Feedback	Neutral	False
139.826	2.777	Control	0.8571	n/a	No	2.777	n/a	n/a	NoResponse	0	0.0	n/a	3	13	ISIslide	Neutral	False
142.618	0.25	Win2	0.8667	0.0	Yes	2.682	0.018	n/a	GoodResponse	1	n/a	n/a	4	14	Cue	Win	True
142.868	4.1	Win2	0.8667	0.001	Yes	2.682	0.0	n/a	GoodResponse	1	n/a	n/a	4	14	Fixation	Win	True
146.964	0.26	Win2	0.8667	0.004	Yes	2.682	-0.004	4.0	GoodResponse	1	0.188	146.152	4	14	Target	Win	True
147.152	0.3	Win2	0.8667	0.004	Yes	2.682	-0.004	4.0	GoodResponse	1	0.188	n/a	4	14	ButtonPress	Win	True
147.232	0.44	Win2	0.8667	n/a	Yes	2.682	n/a	n/a	GoodResponse	1	n/a	n/a	4	14	Blank	Win	True
147.666	1.45	Win2	0.8667	n/a	Yes	2.682	n/a	5.0	GoodResponse	1	0.016	146.682	4	14	Feedback	Win	True
149.121	2.682	Win2	0.8667	n/a	Yes	2.682	n/a	n/a	GoodResponse	1	0.0	n/a	4	14	ISIslide	Win	True
151.829	0.25	Control	0.8125	0.0	No	2.971	0.029	n/a	NoResponse	0	n/a	n/a	4	15	Cue	Neutral	False
152.079	4.0	Control	0.8125	0.0	No	2.971	0.0	n/a	NoResponse	0	n/a	n/a	4	15	Fixation	Neutral	False
156.075	0.25	Control	0.8125	0.004	No	2.971	-0.004	n/a	NoResponse	0	n/a	n/a	4	15	Target	Neutral	False
156.325	0.45	Control	0.8125	n/a	No	2.971	n/a	n/a	NoResponse	0	n/a	n/a	4	15	Blank	Neutral	False
156.777	1.45	Control	0.8125	n/a	No	2.971	n/a	5.0	NoResponse	0	0.027	155.804	4	15	Feedback	Neutral	False
158.231	2.971	Control	0.8125	n/a	No	2.971	n/a	n/a	NoResponse	0	0.0	n/a	4	15	ISIslide	Neutral	False
161.223	0.25	Win2	0.8234999999999999	0.001	Yes	2.877	0.023	n/a	GoodResponse	1	n/a	n/a	5	16	Cue	Win	False
161.474	4.0	Win2	0.8234999999999999	0.0	Yes	2.877	0.001	4.0	GoodResponse	1	3.826	164.3	5	16	Fixation	Win	False
165.3	0.3	Win2	0.8234999999999999	0.0	Yes	2.877	0.001	4.0	GoodResponse	1	3.826	n/a	5	16	ButtonPress	Win	False
165.469	0.24	Win2	0.8234999999999999	0.004	Yes	2.877	-0.004	4.0	GoodResponse	1	0.118	164.587	5	16	Target	Win	False
165.587	0.3	Win2	0.8234999999999999	0.004	Yes	2.877	-0.004	4.0	GoodResponse	1	0.118	n/a	5	16	ButtonPress	Win	False
165.72	0.46	Win2	0.8234999999999999	n/a	Yes	2.877	n/a	n/a	GoodResponse	1	n/a	n/a	5	16	Blank	Win	False
166.172	1.45	Win2	0.8234999999999999	n/a	Yes	2.877	n/a	5.0	GoodResponse	1	0.046	165.218	5	16	Feedback	Win	False
167.626	2.877	Win2	0.8234999999999999	n/a	Yes	2.877	n/a	n/a	GoodResponse	1	0.0	n/a	5	16	ISIslide	Win	False
170.518	0.25	Lose2	0.8332999999999999	0.0	Yes	2.732	0.018	n/a	GoodResponse	0	n/a	n/a	5	17	Cue	AvoidedLoss	True
170.769	3.95	Lose2	0.8332999999999999	0.0	Yes	2.732	0.001	n/a	GoodResponse	0	n/a	n/a	5	17	Fixation	AvoidedLoss	True
174.714	0.23	Lose2	0.8332999999999999	0.004	Yes	2.732	-0.004	4.0	GoodResponse	0	0.226	173.94	5	17	Target	AvoidedLoss	True
174.94	0.3	Lose2	0.8332999999999999	0.004	Yes	2.732	-0.004	4.0	GoodResponse	0	0.226	n/a	5	17	ButtonPress	AvoidedLoss	True
174.948	0.47	Lose2	0.8332999999999999	n/a	Yes	2.732	n/a	n/a	GoodResponse	0	n/a	n/a	5	17	Blank	AvoidedLoss	True
175.416	1.45	Lose2	0.8332999999999999	n/a	Yes	2.732	n/a	5.0	GoodResponse	0	0.022	174.438	5	17	Feedback	AvoidedLoss	True
176.87	2.732	Lose2	0.8332999999999999	n/a	Yes	2.732	n/a	n/a	GoodResponse	0	0.0	n/a	5	17	ISIslide	AvoidedLoss	True
179.629	0.25	Lose2	0.8421	0.0	Yes	2.721	0.029	n/a	GoodResponse	0	n/a	n/a	5	18	Cue	AvoidedLoss	True
179.879	4.05	Lose2	0.8421	0.0	Yes	2.721	0.0	n/a	GoodResponse	0	n/a	n/a	5	18	Fixation	AvoidedLoss	True
183.925	0.22	Lose2	0.8421	0.004	Yes	2.721	-0.004	4.0	GoodResponse	0	0.172	183.097	5	18	Target	AvoidedLoss	True
184.097	0.3	Lose2	0.8421	0.004	Yes	2.721	-0.004	4.0	GoodResponse	0	0.172	n/a	5	18	ButtonPress	AvoidedLoss	True
184.159	0.48	Lose2	0.8421	n/a	Yes	2.721	n/a	n/a	GoodResponse	0	n/a	n/a	5	18	Blank	AvoidedLoss	True
184.627	1.45	Lose2	0.8421	n/a	Yes	2.721	n/a	5.0	GoodResponse	0	0.031	183.658	5	18	Feedback	AvoidedLoss	True
186.081	2.721	Lose2	0.8421	n/a	Yes	2.721	n/a	n/a	GoodResponse	0	0.0	n/a	5	18	ISIslide	AvoidedLoss	True
188.823	0.25	Control	0.8	0.0	No	2.927	0.023	n/a	NoResponse	0	n/a	n/a	5	19	Cue	Neutral	False
189.074	3.95	Control	0.8	0.0	No	2.927	0.001	n/a	NoResponse	0	n/a	n/a	5	19	Fixation	Neutral	False
193.019	0.21	Control	0.8	0.004	No	2.927	-0.004	n/a	NoResponse	0	n/a	n/a	5	19	Target	Neutral	False
193.236	0.49	Control	0.8	n/a	No	2.927	n/a	n/a	NoResponse	0	n/a	n/a	5	19	Blank	Neutral	False
193.721	1.45	Control	0.8	n/a	No	2.927	n/a	5.0	NoResponse	0	0.01	192.731	5	19	Feedback	Neutral	False
195.175	2.927	Control	0.8	n/a	No	2.927	n/a	n/a	NoResponse	0	0.0	n/a	5	19	ISIslide	Neutral	False
198.117	0.25	Control	0.7619	0.0	No	2.633	0.017	n/a	NoResponse	0	n/a	n/a	5	20	Cue	Neutral	False
198.368	4.05	Control	0.7619	0.0	No	2.633	0.001	n/a	NoResponse	0	n/a	n/a	5	20	Fixation	Neutral	False
202.414	0.2	Control	0.7619	0.003	No	2.633	-0.003	n/a	NoResponse	0	n/a	n/a	5	20	Target	Neutral	False
202.614	0.5	Control	0.7619	n/a	No	2.633	n/a	n/a	NoResponse	0	n/a	n/a	5	20	Blank	Neutral	False
203.116	1.45	Control	0.7619	n/a	No	2.633	n/a	5.0	NoResponse	0	0.029	202.145	5	20	Feedback	Neutral	False
204.57	2.633	Control	0.7619	n/a	No	2.633	n/a	n/a	NoResponse	0	0.0	n/a	5	20	ISIslide	Neutral	False
207.228	0.25	Control	0.7726999999999999	0.0	Yes	2.772	0.028	n/a	GoodResponse	0	n/a	n/a	5	21	Cue	Neutral	False
207.479	4.1	Control	0.7726999999999999	0.0	Yes	2.772	0.001	4.0	GoodResponse	0	3.965	210.444	5	21	Fixation	Neutral	False
211.444	0.3	Control	0.7726999999999999	0.0	Yes	2.772	0.001	4.0	GoodResponse	0	3.965	n/a	5	21	ButtonPress	Neutral	False
211.574	0.19	Control	0.7726999999999999	0.004	Yes	2.772	-0.004	4.0	GoodResponse	0	0.113	210.687	5	21	Target	Neutral	False
211.687	0.3	Control	0.7726999999999999	0.004	Yes	2.772	-0.004	4.0	GoodResponse	0	0.113	n/a	5	21	ButtonPress	Neutral	False
211.775	0.51	Control	0.7726999999999999	n/a	Yes	2.772	n/a	n/a	GoodResponse	0	n/a	n/a	5	21	Blank	Neutral	False
212.276	1.45	Control	0.7726999999999999	n/a	Yes	2.772	n/a	5.0	GoodResponse	0	0.04	211.316	5	21	Feedback	Neutral	False
213.731	2.772	Control	0.7726999999999999	n/a	Yes	2.772	n/a	n/a	GoodResponse	0	0.0	n/a	5	21	ISIslide	Neutral	False
216.522	0.25	Control	0.7391	0.001	No	2.778	0.022	n/a	NoResponse	0	n/a	n/a	5	22	Cue	Neutral	True
216.773	4.0	Control	0.7391	0.0	No	2.778	0.001	n/a	NoResponse	0	n/a	n/a	5	22	Fixation	Neutral	True
220.769	0.18	Control	0.7391	0.003	No	2.778	-0.003	4.0	NoResponse	0	0.246	220.015	5	22	Target	Neutral	True
220.952	0.52	Control	0.7391	n/a	No	2.778	n/a	n/a	NoResponse	0	n/a	n/a	5	22	Blank	Neutral	True
221.015	0.3	Control	0.7391	0.003	No	2.778	-0.003	4.0	NoResponse	0	0.246	n/a	5	22	ButtonPress	Neutral	True
221.471	1.45	Control	0.7391	n/a	No	2.778	n/a	5.0	NoResponse	0	0.015	220.486	5	22	Feedback	Neutral	True
222.925	2.778	Control	0.7391	n/a	No	2.778	n/a	n/a	NoResponse	0	0.0	n/a	5	22	ISIslide	Neutral	True
225.717	0.25	Control	0.7082999999999999	0.0	No	2.783	0.017	n/a	NoResponse	0	n/a	n/a	5	23	Cue	Neutral	True
225.967	3.9	Control	0.7082999999999999	0.001	No	2.783	0.0	n/a	NoResponse	0	n/a	n/a	5	23	Fixation	Neutral	True
229.879	0.17	Control	0.7082999999999999	0.0	No	2.783	0.012	4.0	NoResponse	0	0.178	229.057	5	23	Target	Neutral	True
230.046	0.53	Control	0.7082999999999999	n/a	No	2.783	n/a	n/a	NoResponse	0	n/a	n/a	5	23	Blank	Neutral	True
230.057	0.3	Control	0.7082999999999999	0.0	No	2.783	0.012	4.0	NoResponse	0	0.178	n/a	5	23	ButtonPress	Neutral	True
230.565	1.45	Control	0.7082999999999999	n/a	No	2.783	n/a	5.0	NoResponse	0	0.043	229.608	5	23	Feedback	Neutral	True
232.019	2.783	Control	0.7082999999999999	n/a	No	2.783	n/a	n/a	NoResponse	0	0.0	n/a	5	23	ISIslide	Neutral	True
234.827	0.25	Win2	0.68	0.0	No	3.123	0.027	n/a	NoResponse	0	n/a	n/a	5	24	Cue	MissedWin	True
235.078	3.95	Win2	0.68	0.0	No	3.123	0.001	n/a	NoResponse	0	n/a	n/a	5	24	Fixation	MissedWin	True
239.023	0.16	Win2	0.68	0.004	No	3.123	-0.004	4.0	NoResponse	0	0.206	238.229	5	24	Target	MissedWin	True
239.19	0.54	Win2	0.68	n/a	No	3.123	n/a	n/a	NoResponse	0	n/a	n/a	5	24	Blank	MissedWin	True
239.229	0.3	Win2	0.68	0.004	No	3.123	-0.004	4.0	NoResponse	0	0.206	n/a	5	24	ButtonPress	MissedWin	True
239.725	1.45	Win2	0.68	n/a	No	3.123	n/a	5.0	NoResponse	0	0.008	238.733	5	24	Feedback	MissedWin	True
241.18	3.123	Win2	0.68	n/a	No	3.123	n/a	n/a	NoResponse	0	0.0	n/a	5	24	ISIslide	MissedWin	True
244.322	0.25	Win2	0.6537999999999999	0.001	No	3.078	0.022	n/a	NoResponse	0	n/a	n/a	5	25	Cue	MissedWin	True
244.573	4.0	Win2	0.6537999999999999	0.0	No	3.078	0.001	n/a	NoResponse	0	n/a	n/a	5	25	Fixation	MissedWin	True
248.569	0.15	Win2	0.6537999999999999	0.003	No	3.078	-0.003	4.0	NoResponse	0	0.208	247.777	5	25	Target	MissedWin	True
248.719	0.55	Win2	0.6537999999999999	n/a	No	3.078	n/a	n/a	NoResponse	0	n/a	n/a	5	25	Blank	MissedWin	True
248.777	0.3	Win2	0.6537999999999999	0.003	No	3.078	-0.003	4.0	NoResponse	0	0.208	n/a	5	25	ButtonPress	MissedWin	True
249.271	1.45	Win2	0.6537999999999999	n/a	No	3.078	n/a	5.0	NoResponse	0	0.021	248.292	5	25	Feedback	MissedWin	True
250.725	3.078	Win2	0.6537999999999999	n/a	No	3.078	n/a	n/a	NoResponse	0	0.0	n/a	5	25	ISIslide	MissedWin	True
253.818	0.25	Win2	0.6667000000000001	0.0	Yes	2.932	0.018	n/a	GoodResponse	1	n/a	n/a	6	26	Cue	Win	False
254.068	3.95	Win2	0.6667000000000001	0.0	Yes	2.932	0.0	4.0	GoodResponse	1	3.729	256.797	6	26	Fixation	Win	False
257.797	0.3	Win2	0.6667000000000001	0.0	Yes	2.932	0.0	4.0	GoodResponse	1	3.729	n/a	6	26	ButtonPress	Win	False
258.03	0.16	Win2	0.6667000000000001	0.0	Yes	2.932	0.012	4.0	GoodResponse	1	0.101	257.131	6	26	Target	Win	False
258.131	0.3	Win2	0.6667000000000001	0.0	Yes	2.932	0.012	4.0	GoodResponse	1	0.101	n/a	6	26	ButtonPress	Win	False
258.181	0.54	Win2	0.6667000000000001	n/a	Yes	2.932	n/a	n/a	GoodResponse	1	n/a	n/a	6	26	Blank	Win	False
258.716	1.45	Win2	0.6667000000000001	n/a	Yes	2.932	n/a	5.0	GoodResponse	1	0.038	257.754	6	26	Feedback	Win	False
260.17	2.932	Win2	0.6667000000000001	n/a	Yes	2.932	n/a	n/a	GoodResponse	1	0.0	n/a	6	26	ISIslide	Win	False
263.129	0.25	Lose2	0.6786	0.0	Yes	2.821	0.029	n/a	GoodResponse	0	n/a	n/a	6	27	Cue	AvoidedLoss	True
263.38	4.05	Lose2	0.6786	0.0	Yes	2.821	0.001	n/a	GoodResponse	0	n/a	n/a	6	27	Fixation	AvoidedLoss	True
267.425	0.15	Lose2	0.6786	0.004	Yes	2.821	-0.004	4.0	GoodResponse	0	0.101	266.526	6	27	Target	AvoidedLoss	True
267.526	0.3	Lose2	0.6786	0.004	Yes	2.821	-0.004	4.0	GoodResponse	0	0.101	n/a	6	27	ButtonPress	AvoidedLoss	True
267.575	0.55	Lose2	0.6786	n/a	Yes	2.821	n/a	n/a	GoodResponse	0	n/a	n/a	6	27	Blank	AvoidedLoss	True
268.127	1.45	Lose2	0.6786	n/a	Yes	2.821	n/a	5.0	GoodResponse	0	0.042	267.169	6	27	Feedback	AvoidedLoss	True
269.581	2.821	Lose2	0.6786	n/a	Yes	2.821	n/a	n/a	GoodResponse	0	0.0	n/a	6	27	ISIslide	AvoidedLoss	True
272.423	0.25	Control	0.6552	0.0	No	2.827	0.023	n/a	NoResponse	0	n/a	n/a	6	28	Cue	Neutral	False
272.674	4.05	Control	0.6552	0.0	No	2.827	0.001	n/a	NoResponse	0	n/a	n/a	6	28	Fixation	Neutral	False
276.72	0.15	Control	0.6552	0.003	No	2.827	-0.003	n/a	NoResponse	0	n/a	n/a	6	28	Target	Neutral	False
276.87	0.55	Control	0.6552	n/a	No	2.827	n/a	n/a	NoResponse	0	n/a	n/a	6	28	Blank	Neutral	False
277.422	1.45	Control	0.6552	n/a	No	2.827	n/a	5.0	NoResponse	0	0.015	276.437	6	28	Feedback	Neutral	False
278.876	2.827	Control	0.6552	n/a	No	2.827	n/a	n/a	NoResponse	0	0.0	n/a	6	28	ISIslide	Neutral	False
281.718	0.25	Lose2	0.6667000000000001	0.0	Yes	2.832	0.018	n/a	GoodResponse	0	n/a	n/a	6	29	Cue	AvoidedLoss	True
281.969	3.95	Lose2	0.6667000000000001	0.0	Yes	2.832	0.001	n/a	GoodResponse	0	n/a	n/a	6	29	Fixation	AvoidedLoss	True
285.914	0.15	Lose2	0.6667000000000001	0.004	Yes	2.832	-0.004	4.0	GoodResponse	0	0.114	285.028	6	29	Target	AvoidedLoss	True
286.028	0.3	Lose2	0.6667000000000001	0.004	Yes	2.832	-0.004	4.0	GoodResponse	0	0.114	n/a	6	29	ButtonPress	AvoidedLoss	True
286.064	0.55	Lose2	0.6667000000000001	n/a	Yes	2.832	n/a	n/a	GoodResponse	0	n/a	n/a	6	29	Blank	AvoidedLoss	True
286.616	1.45	Lose2	0.6667000000000001	n/a	Yes	2.832	n/a	5.0	GoodResponse	0	0.041	285.657	6	29	Feedback	AvoidedLoss	True
288.07	2.832	Lose2	0.6667000000000001	n/a	Yes	2.832	n/a	n/a	GoodResponse	0	0.0	n/a	6	29	ISIslide	AvoidedLoss	True
290.929	0.25	Win2	0.6452	0.0	No	2.771	0.029	n/a	NoResponse	0	n/a	n/a	6	30	Cue	MissedWin	True
291.18	3.9	Win2	0.6452	0.0	No	2.771	0.001	n/a	NoResponse	0	n/a	n/a	6	30	Fixation	MissedWin	True
295.075	0.15	Win2	0.6452	0.004	No	2.771	-0.004	4.0	NoResponse	0	0.184	294.259	6	30	Target	MissedWin	True
295.225	0.55	Win2	0.6452	n/a	No	2.771	n/a	n/a	NoResponse	0	n/a	n/a	6	30	Blank	MissedWin	True
295.259	0.3	Win2	0.6452	0.004	No	2.771	-0.004	4.0	NoResponse	0	0.184	n/a	6	30	ButtonPress	MissedWin	True
295.777	1.45	Win2	0.6452	n/a	No	2.771	n/a	5.0	NoResponse	0	0.002	294.779	6	30	Feedback	MissedWin	True
297.231	2.771	Win2	0.6452	n/a	No	2.771	n/a	n/a	NoResponse	0	0.0	n/a	6	30	ISIslide	MissedWin	True
300.023	0.25	Lose2	0.625	0.0	No	2.827	0.023	n/a	NoResponse	-1	n/a	n/a	5	31	Cue	Loss	True
300.273	4.05	Lose2	0.625	0.001	No	2.827	0.0	n/a	NoResponse	-1	n/a	n/a	5	31	Fixation	Loss	True
304.319	0.16	Lose2	0.625	0.004	No	2.827	-0.004	4.0	NoResponse	-1	0.179	303.498	5	31	Target	Loss	True
304.486	0.54	Lose2	0.625	n/a	No	2.827	n/a	n/a	NoResponse	-1	n/a	n/a	5	31	Blank	Loss	True
304.498	0.3	Lose2	0.625	0.004	No	2.827	-0.004	4.0	NoResponse	-1	0.179	n/a	5	31	ButtonPress	Loss	True
305.021	1.45	Lose2	0.625	n/a	No	2.827	n/a	5.0	NoResponse	-1	0.026	304.047	5	31	Feedback	Loss	True
306.475	2.827	Lose2	0.625	n/a	No	2.827	n/a	n/a	NoResponse	-1	0.0	n/a	5	31	ISIslide	Loss	True
309.317	0.25	Lose2	0.6061	0.0	No	2.633	0.017	n/a	NoResponse	-1	n/a	n/a	4	32	Cue	Loss	False
309.568	4.15	Lose2	0.6061	0.0	No	2.633	0.001	4.0	NoResponse	-1	3.965	312.533	4	32	Fixation	Loss	False
313.533	0.3	Lose2	0.6061	0.0	No	2.633	0.001	4.0	NoResponse	-1	3.965	n/a	4	32	ButtonPress	Loss	False
313.714	0.17	Lose2	0.6061	0.003	No	2.633	-0.003	4.0	NoResponse	-1	0.354	313.068	4	32	Target	Loss	False
313.898	0.53	Lose2	0.6061	n/a	No	2.633	n/a	n/a	NoResponse	-1	n/a	n/a	4	32	Blank	Loss	False
314.068	0.3	Lose2	0.6061	0.003	No	2.633	-0.003	4.0	NoResponse	-1	0.354	n/a	4	32	ButtonPress	Loss	False
314.416	1.45	Lose2	0.6061	n/a	No	2.633	n/a	5.0	NoResponse	-1	0.045	313.461	4	32	Feedback	Loss	False
315.87	2.633	Lose2	0.6061	n/a	No	2.633	n/a	n/a	NoResponse	-1	0.0	n/a	4	32	ISIslide	Loss	False
318.528	0.25	Win2	0.6175999999999999	0.0	Yes	2.672	0.028	n/a	GoodResponse	1	n/a	n/a	5	33	Cue	Win	False
318.779	4.0	Win2	0.6175999999999999	0.0	Yes	2.672	0.001	4.0	GoodResponse	1	3.97	321.749	5	33	Fixation	Win	False
322.749	0.3	Win2	0.6175999999999999	0.0	Yes	2.672	0.001	4.0	GoodResponse	1	3.97	n/a	5	33	ButtonPress	Win	False
322.774	0.18	Win2	0.6175999999999999	0.004	Yes	2.672	-0.004	4.0	GoodResponse	1	0.111	321.885	5	33	Target	Win	False
322.885	0.3	Win2	0.6175999999999999	0.004	Yes	2.672	-0.004	4.0	GoodResponse	1	0.111	n/a	5	33	ButtonPress	Win	False
322.958	0.52	Win2	0.6175999999999999	n/a	Yes	2.672	n/a	n/a	GoodResponse	1	n/a	n/a	5	33	Blank	Win	False
323.476	1.45	Win2	0.6175999999999999	n/a	Yes	2.672	n/a	5.0	GoodResponse	1	0.009	322.485	5	33	Feedback	Win	False
324.931	2.672	Win2	0.6175999999999999	n/a	Yes	2.672	n/a	n/a	GoodResponse	1	0.0	n/a	5	33	ISIslide	Win	False
327.622	0.25	Lose2	0.6	0.0	No	2.628	0.022	n/a	PrematurePress	-1	n/a	n/a	4	34	Cue	Loss	False
327.873	4.05	Lose2	0.6	0.0	No	2.628	0.001	4.0	PrematurePress	-1	3.625	330.498	4	34	Fixation	Loss	False
331.498	0.3	Lose2	0.6	0.0	No	2.628	0.001	4.0	PrematurePress	-1	3.625	n/a	4	34	ButtonPress	Loss	False
331.918	0.19	Lose2	0.6	0.004	No	2.628	-0.004	4.0	PrematurePress	-1	0.086	331.004	4	34	Target	Loss	False
332.004	0.3	Lose2	0.6	0.004	No	2.628	-0.004	4.0	PrematurePress	-1	0.086	n/a	4	34	ButtonPress	Loss	False
332.119	0.51	Lose2	0.6	n/a	No	2.628	n/a	n/a	PrematurePress	-1	n/a	n/a	4	34	Blank	Loss	False
332.62	1.45	Lose2	0.6	n/a	No	2.628	n/a	5.0	PrematurePress	-1	0.036	331.656	4	34	Feedback	Loss	False
334.075	2.628	Lose2	0.6	n/a	No	2.628	n/a	n/a	PrematurePress	-1	0.0	n/a	4	34	ISIslide	Loss	False
336.716	0.25	Lose2	0.6111	0.0	Yes	2.684	0.016	n/a	GoodResponse	0	n/a	n/a	4	35	Cue	AvoidedLoss	False
336.967	4.0	Lose2	0.6111	0.0	Yes	2.684	0.001	4.0	GoodResponse	0	3.963	339.93	4	35	Fixation	AvoidedLoss	False
340.93	0.3	Lose2	0.6111	0.0	Yes	2.684	0.001	4.0	GoodResponse	0	3.963	n/a	4	35	ButtonPress	AvoidedLoss	False
340.962	0.2	Lose2	0.6111	0.004	Yes	2.684	-0.004	4.0	GoodResponse	0	0.123	340.085	4	35	Target	AvoidedLoss	False
341.085	0.3	Lose2	0.6111	0.004	Yes	2.684	-0.004	4.0	GoodResponse	0	0.123	n/a	4	35	ButtonPress	AvoidedLoss	False
341.163	0.5	Lose2	0.6111	n/a	Yes	2.684	n/a	n/a	GoodResponse	0	n/a	n/a	4	35	Blank	AvoidedLoss	False
341.664	1.45	Lose2	0.6111	n/a	Yes	2.684	n/a	5.0	GoodResponse	0	0.017	340.681	4	35	Feedback	AvoidedLoss	False
343.118	2.684	Lose2	0.6111	n/a	Yes	2.684	n/a	n/a	GoodResponse	0	0.0	n/a	4	35	ISIslide	AvoidedLoss	False
345.827	0.25	Control	0.5946	0.0	No	2.673	0.027	n/a	NoResponse	0	n/a	n/a	4	36	Cue	Neutral	False
346.077	4.0	Control	0.5946	0.0	No	2.673	0.0	n/a	NoResponse	0	n/a	n/a	4	36	Fixation	Neutral	False
350.073	0.21	Control	0.5946	0.004	No	2.673	-0.004	n/a	NoResponse	0	n/a	n/a	4	36	Target	Neutral	False
350.29	0.49	Control	0.5946	n/a	No	2.673	n/a	n/a	NoResponse	0	n/a	n/a	4	36	Blank	Neutral	False
350.775	1.45	Control	0.5946	n/a	No	2.673	n/a	5.0	NoResponse	0	0.028	349.803	4	36	Feedback	Neutral	False
352.229	2.673	Control	0.5946	n/a	No	2.673	n/a	n/a	NoResponse	0	0.0	n/a	4	36	ISIslide	Neutral	False
354.921	0.25	Win2	0.6053000000000001	0.0	Yes	2.879	0.021	n/a	GoodResponse	1	n/a	n/a	5	37	Cue	Win	True
355.171	4.0	Win2	0.6053000000000001	0.0	Yes	2.879	0.0	n/a	GoodResponse	1	n/a	n/a	5	37	Fixation	Win	True
359.167	0.22	Win2	0.6053000000000001	0.004	Yes	2.879	-0.004	4.0	GoodResponse	1	0.1	358.267	5	37	Target	Win	True
359.267	0.3	Win2	0.6053000000000001	0.004	Yes	2.879	-0.004	4.0	GoodResponse	1	0.1	n/a	5	37	ButtonPress	Win	True
359.401	0.48	Win2	0.6053000000000001	n/a	Yes	2.879	n/a	n/a	GoodResponse	1	n/a	n/a	5	37	Blank	Win	True
359.869	1.45	Win2	0.6053000000000001	n/a	Yes	2.879	n/a	5.0	GoodResponse	1	0.008	358.877	5	37	Feedback	Win	True
361.323	2.879	Win2	0.6053000000000001	n/a	Yes	2.879	n/a	n/a	GoodResponse	1	0.0	n/a	5	37	ISIslide	Win	True
364.215	0.25	Lose2	0.6154	0.0	Yes	2.835	0.015	n/a	GoodResponse	0	n/a	n/a	5	38	Cue	AvoidedLoss	True
364.466	3.95	Lose2	0.6154	0.0	Yes	2.835	0.001	n/a	GoodResponse	0	n/a	n/a	5	38	Fixation	AvoidedLoss	True
368.411	0.23	Lose2	0.6154	0.004	Yes	2.835	-0.004	4.0	GoodResponse	0	0.203	367.614	5	38	Target	AvoidedLoss	True
368.614	0.3	Lose2	0.6154	0.004	Yes	2.835	-0.004	4.0	GoodResponse	0	0.203	n/a	5	38	ButtonPress	AvoidedLoss	True
368.645	0.47	Lose2	0.6154	n/a	Yes	2.835	n/a	n/a	GoodResponse	0	n/a	n/a	5	38	Blank	AvoidedLoss	True
369.113	1.45	Lose2	0.6154	n/a	Yes	2.835	n/a	5.0	GoodResponse	0	0.032	368.145	5	38	Feedback	AvoidedLoss	True
370.567	2.835	Lose2	0.6154	n/a	Yes	2.835	n/a	n/a	GoodResponse	0	0.0	n/a	5	38	ISIslide	AvoidedLoss	True
373.426	0.25	Win2	0.625	0.0	Yes	2.974	0.026	n/a	GoodResponse	1	n/a	n/a	6	39	Cue	Win	True
373.677	4.1	Win2	0.625	0.0	Yes	2.974	0.001	n/a	GoodResponse	1	n/a	n/a	6	39	Fixation	Win	True
377.772	0.24	Win2	0.625	0.004	Yes	2.974	-0.004	4.0	GoodResponse	1	0.192	376.964	6	39	Target	Win	True
377.964	0.3	Win2	0.625	0.004	Yes	2.974	-0.004	4.0	GoodResponse	1	0.192	n/a	6	39	ButtonPress	Win	True
378.023	0.46	Win2	0.625	n/a	Yes	2.974	n/a	n/a	GoodResponse	1	n/a	n/a	6	39	Blank	Win	True
378.474	1.45	Win2	0.625	n/a	Yes	2.974	n/a	5.0	GoodResponse	1	0.036	377.51	6	39	Feedback	Win	True
379.929	2.974	Win2	0.625	n/a	Yes	2.974	n/a	n/a	GoodResponse	1	0.0	n/a	6	39	ISIslide	Win	True
382.921	0.25	Win2	0.6341	0.0	Yes	2.729	0.021	n/a	GoodResponse	1	n/a	n/a	7	40	Cue	Win	True
383.172	3.95	Win2	0.6341	0.0	Yes	2.729	0.001	n/a	GoodResponse	1	n/a	n/a	7	40	Fixation	Win	True
387.117	0.25	Win2	0.6341	0.004	Yes	2.729	-0.004	4.0	GoodResponse	1	0.231	386.348	7	40	Target	Win	True
387.348	0.3	Win2	0.6341	0.004	Yes	2.729	-0.004	4.0	GoodResponse	1	0.231	n/a	7	40	ButtonPress	Win	True
387.368	0.45	Win2	0.6341	n/a	Yes	2.729	n/a	n/a	GoodResponse	1	n/a	n/a	7	40	Blank	Win	True
387.819	1.45	Win2	0.6341	n/a	Yes	2.729	n/a	5.0	GoodResponse	1	0.008	386.827	7	40	Feedback	Win	True
389.273	2.729	Win2	0.6341	n/a	Yes	2.729	n/a	n/a	GoodResponse	1	0.0	n/a	7	40	ISIslide	Win	True
392.015	0.25	Win2	0.6429	0.0	Yes	2.785	0.015	n/a	GoodResponse	1	n/a	n/a	8	41	Cue	Win	True
392.266	3.9	Win2	0.6429	0.0	Yes	2.785	0.001	n/a	GoodResponse	1	n/a	n/a	8	41	Fixation	Win	True
396.161	0.26	Win2	0.6429	0.004	Yes	2.785	-0.004	4.0	GoodResponse	1	0.184	395.345	8	41	Target	Win	True
396.345	0.3	Win2	0.6429	0.004	Yes	2.785	-0.004	4.0	GoodResponse	1	0.184	n/a	8	41	ButtonPress	Win	True
396.428	0.44	Win2	0.6429	n/a	Yes	2.785	n/a	n/a	GoodResponse	1	n/a	n/a	8	41	Blank	Win	True
396.863	1.45	Win2	0.6429	n/a	Yes	2.785	n/a	5.0	GoodResponse	1	0.037	395.9	8	41	Feedback	Win	True
398.317	2.785	Win2	0.6429	n/a	Yes	2.785	n/a	n/a	GoodResponse	1	0.0	n/a	8	41	ISIslide	Win	True
401.126	0.25	Control	0.6279	0.0	No	2.924	0.026	n/a	NoResponse	0	n/a	n/a	8	42	Cue	Neutral	False
401.376	3.85	Control	0.6279	0.0	No	2.924	0.0	n/a	NoResponse	0	n/a	n/a	8	42	Fixation	Neutral	False
405.238	0.27	Control	0.6279	0.0	No	2.924	0.012	n/a	NoResponse	0	n/a	n/a	8	42	Target	Neutral	False
405.505	0.43	Control	0.6279	n/a	No	2.924	n/a	n/a	NoResponse	0	n/a	n/a	8	42	Blank	Neutral	False
405.923	1.45	Control	0.6279	n/a	No	2.924	n/a	5.0	NoResponse	0	0.001	404.924	8	42	Feedback	Neutral	False
407.378	2.924	Control	0.6279	n/a	No	2.924	n/a	n/a	NoResponse	0	0.0	n/a	8	42	ISIslide	Neutral	False
410.32	0.25	Win2	0.6364	0.0	Yes	3.18	0.02	n/a	GoodResponse	1	n/a	n/a	9	43	Cue	Win	True
410.571	4.0	Win2	0.6364	0.0	Yes	3.18	0.001	n/a	GoodResponse	1	n/a	n/a	9	43	Fixation	Win	True
414.566	0.28	Win2	0.6364	0.004	Yes	3.18	-0.004	4.0	GoodResponse	1	0.189	413.755	9	43	Target	Win	True
414.755	0.3	Win2	0.6364	0.004	Yes	3.18	-0.004	4.0	GoodResponse	1	0.189	n/a	9	43	ButtonPress	Win	True
414.85	0.42	Win2	0.6364	n/a	Yes	3.18	n/a	n/a	GoodResponse	1	n/a	n/a	9	43	Blank	Win	True
415.268	1.45	Win2	0.6364	n/a	Yes	3.18	n/a	5.0	GoodResponse	1	0.022	414.29	9	43	Feedback	Win	True
416.722	3.18	Win2	0.6364	n/a	Yes	3.18	n/a	n/a	GoodResponse	1	0.0	n/a	9	43	ISIslide	Win	True
419.915	0.25	Win2	0.6444	0.0	Yes	2.985	0.015	n/a	GoodResponse	1	n/a	n/a	10	44	Cue	Win	True
420.166	4.0	Win2	0.6444	0.0	Yes	2.985	0.001	n/a	GoodResponse	1	n/a	n/a	10	44	Fixation	Win	True
424.161	0.29	Win2	0.6444	0.004	Yes	2.985	-0.004	4.0	GoodResponse	1	0.191	423.352	10	44	Target	Win	True
424.352	0.3	Win2	0.6444	0.004	Yes	2.985	-0.004	4.0	GoodResponse	1	0.191	n/a	10	44	ButtonPress	Win	True
424.462	0.41	Win2	0.6444	n/a	Yes	2.985	n/a	n/a	GoodResponse	1	n/a	n/a	10	44	Blank	Win	True
424.863	1.45	Win2	0.6444	n/a	Yes	2.985	n/a	5.0	GoodResponse	1	0.037	423.9	10	44	Feedback	Win	True
426.318	2.985	Win2	0.6444	n/a	Yes	2.985	n/a	n/a	GoodResponse	1	0.0	n/a	10	44	ISIslide	Win	True
429.327	0.25	Control	0.6304	0.0	No	2.873	0.027	n/a	NoResponse	0	n/a	n/a	10	45	Cue	Neutral	False
429.578	4.1	Control	0.6304	0.0	No	2.873	0.001	n/a	NoResponse	0	n/a	n/a	10	45	Fixation	Neutral	False
433.673	0.3	Control	0.6304	0.004	No	2.873	-0.004	n/a	NoResponse	0	n/a	n/a	10	45	Target	Neutral	False
433.974	0.4	Control	0.6304	n/a	No	2.873	n/a	n/a	NoResponse	0	n/a	n/a	10	45	Blank	Neutral	False
434.375	1.45	Control	0.6304	n/a	No	2.873	n/a	5.0	NoResponse	0	0.037	433.412	10	45	Feedback	Neutral	False
435.83	2.873	Control	0.6304	n/a	No	2.873	n/a	n/a	NoResponse	0	0.0	n/a	10	45	ISIslide	Neutral	False
438.722	0.25	Lose2	0.6383	0.0	Yes	3.378	0.022	n/a	GoodResponse	0	n/a	n/a	10	46	Cue	AvoidedLoss	True
438.972	4.0	Lose2	0.6383	0.0	Yes	3.378	0.0	n/a	GoodResponse	0	n/a	n/a	10	46	Fixation	AvoidedLoss	True
442.968	0.31	Lose2	0.6383	0.004	Yes	3.378	-0.004	4.0	GoodResponse	0	0.18	442.148	10	46	Target	AvoidedLoss	True
443.148	0.3	Lose2	0.6383	0.004	Yes	3.378	-0.004	4.0	GoodResponse	0	0.18	n/a	10	46	ButtonPress	AvoidedLoss	True
443.285	0.39	Lose2	0.6383	n/a	Yes	3.378	n/a	n/a	GoodResponse	0	n/a	n/a	10	46	Blank	AvoidedLoss	True
443.67	1.45	Lose2	0.6383	n/a	Yes	3.378	n/a	5.0	GoodResponse	0	0.01	442.68	10	46	Feedback	AvoidedLoss	True
445.124	3.378	Lose2	0.6383	n/a	Yes	3.378	n/a	n/a	GoodResponse	0	0.0	n/a	10	46	ISIslide	AvoidedLoss	True
448.518	0.25	Lose2	0.6457999999999999	0.0	Yes	2.682	0.018	n/a	GoodResponse	0	n/a	n/a	10	47	Cue	AvoidedLoss	True
448.768	4.0	Lose2	0.6457999999999999	0.0	Yes	2.682	0.0	n/a	GoodResponse	0	n/a	n/a	10	47	Fixation	AvoidedLoss	True
452.764	0.32	Lose2	0.6457999999999999	0.004	Yes	2.682	-0.004	4.0	GoodResponse	0	0.201	451.965	10	47	Target	AvoidedLoss	True
452.965	0.3	Lose2	0.6457999999999999	0.004	Yes	2.682	-0.004	4.0	GoodResponse	0	0.201	n/a	10	47	ButtonPress	AvoidedLoss	True
453.098	0.38	Lose2	0.6457999999999999	n/a	Yes	2.682	n/a	n/a	GoodResponse	0	n/a	n/a	10	47	Blank	AvoidedLoss	True
453.466	1.45	Lose2	0.6457999999999999	n/a	Yes	2.682	n/a	5.0	GoodResponse	0	0.019	452.485	10	47	Feedback	AvoidedLoss	True
454.92	2.682	Lose2	0.6457999999999999	n/a	Yes	2.682	n/a	n/a	GoodResponse	0	0.0	n/a	10	47	ISIslide	AvoidedLoss	True
457.628	0.25	Lose2	0.6531	0.0	Yes	3.022	0.028	n/a	GoodResponse	0	n/a	n/a	10	48	Cue	AvoidedLoss	False
457.879	3.95	Lose2	0.6531	0.0	Yes	3.022	0.001	4.0	GoodResponse	0	3.945	460.824	10	48	Fixation	AvoidedLoss	False
461.824	0.33	Lose2	0.6531	0.004	Yes	3.022	-0.004	4.0	GoodResponse	0	0.238	461.062	10	48	Target	AvoidedLoss	False
461.824	0.3	Lose2	0.6531	0.0	Yes	3.022	0.001	4.0	GoodResponse	0	3.945	n/a	10	48	ButtonPress	AvoidedLoss	False
462.062	0.3	Lose2	0.6531	0.004	Yes	3.022	-0.004	4.0	GoodResponse	0	0.238	n/a	10	48	ButtonPress	AvoidedLoss	False
462.159	0.37	Lose2	0.6531	n/a	Yes	3.022	n/a	n/a	GoodResponse	0	n/a	n/a	10	48	Blank	AvoidedLoss	False
462.526	1.45	Lose2	0.6531	n/a	Yes	3.022	n/a	5.0	GoodResponse	0	0.032	461.558	10	48	Feedback	AvoidedLoss	False
463.981	3.022	Lose2	0.6531	n/a	Yes	3.022	n/a	n/a	GoodResponse	0	0.0	n/a	10	48	ISIslide	AvoidedLoss	False
467.023	0.25	Control	0.64	0.0	No	2.877	0.023	n/a	NoResponse	0	n/a	n/a	10	49	Cue	Neutral	False
467.274	4.0	Control	0.64	0.0	No	2.877	0.001	n/a	NoResponse	0	n/a	n/a	10	49	Fixation	Neutral	False
471.269	0.34	Control	0.64	0.004	No	2.877	-0.004	n/a	NoResponse	0	n/a	n/a	10	49	Target	Neutral	False
471.62	0.36	Control	0.64	n/a	No	2.877	n/a	n/a	NoResponse	0	n/a	n/a	10	49	Blank	Neutral	False
471.971	1.45	Control	0.64	n/a	No	2.877	n/a	5.0	NoResponse	0	0.002	470.973	10	49	Feedback	Neutral	False
473.426	2.877	Control	0.64	n/a	No	2.877	n/a	n/a	NoResponse	0	0.0	n/a	10	49	ISIslide	Neutral	False
476.318	0.25	Control	0.6275	0.0	No	2.782	0.018	n/a	NoResponse	0	n/a	n/a	10	50	Cue	Neutral	False
476.568	4.0	Control	0.6275	0.0	No	2.782	0.0	n/a	NoResponse	0	n/a	n/a	10	50	Fixation	Neutral	False
480.564	0.35	Control	0.6275	0.004	No	2.782	-0.004	n/a	NoResponse	0	n/a	n/a	10	50	Target	Neutral	False
480.915	0.35	Control	0.6275	n/a	No	2.782	n/a	n/a	NoResponse	0	n/a	n/a	10	50	Blank	Neutral	False
481.266	1.45	Control	0.6275	n/a	No	2.782	n/a	5.0	NoResponse	0	0.024	480.29	10	50	Feedback	Neutral	False
482.72	2.782	Control	0.6275	n/a	No	2.782	n/a	n/a	NoResponse	0	0.0	n/a	10	50	ISIslide	Neutral	False
485.529	0.25	Control	0.6154	0.0	No	2.721	0.029	n/a	NoResponse	0	n/a	n/a	10	51	Cue	Neutral	False
485.779	3.95	Control	0.6154	0.0	No	2.721	0.0	n/a	NoResponse	0	n/a	n/a	10	51	Fixation	Neutral	False
489.741	0.36	Control	0.6154	0.0	No	2.721	0.012	n/a	NoResponse	0	n/a	n/a	10	51	Target	Neutral	False
490.092	0.34	Control	0.6154	n/a	No	2.721	n/a	n/a	NoResponse	0	n/a	n/a	10	51	Blank	Neutral	False
490.427	1.45	Control	0.6154	n/a	No	2.721	n/a	5.0	NoResponse	0	0.034	489.461	10	51	Feedback	Neutral	False
491.881	2.721	Control	0.6154	n/a	No	2.721	n/a	n/a	NoResponse	0	0.0	n/a	10	51	ISIslide	Neutral	False
494.622	0.25	Control	0.6225999999999999	0.001	Yes	2.628	0.022	n/a	GoodResponse	0	n/a	n/a	10	52	Cue	Neutral	True
494.873	4.05	Control	0.6225999999999999	0.0	Yes	2.628	0.001	n/a	GoodResponse	0	n/a	n/a	10	52	Fixation	Neutral	True
498.919	0.37	Control	0.6225999999999999	0.003	Yes	2.628	-0.003	4.0	GoodResponse	0	0.175	498.094	10	52	Target	Neutral	True
499.094	0.3	Control	0.6225999999999999	0.003	Yes	2.628	-0.003	4.0	GoodResponse	0	0.175	n/a	10	52	ButtonPress	Neutral	True
499.303	0.33	Control	0.6225999999999999	n/a	Yes	2.628	n/a	n/a	GoodResponse	0	n/a	n/a	10	52	Blank	Neutral	True
499.621	1.45	Control	0.6225999999999999	n/a	Yes	2.628	n/a	5.0	GoodResponse	0	0.01	498.631	10	52	Feedback	Neutral	True
501.075	2.628	Control	0.6225999999999999	n/a	Yes	2.628	n/a	n/a	GoodResponse	0	0.0	n/a	10	52	ISIslide	Neutral	True
503.716	0.25	Win2	0.6296	0.0	Yes	2.934	0.016	n/a	GoodResponse	1	n/a	n/a	11	53	Cue	Win	True
503.967	4.05	Win2	0.6296	0.0	Yes	2.934	0.001	n/a	GoodResponse	1	n/a	n/a	11	53	Fixation	Win	True
508.013	0.38	Win2	0.6296	0.003	Yes	2.934	-0.003	4.0	GoodResponse	1	0.169	507.182	11	53	Target	Win	True
508.182	0.3	Win2	0.6296	0.003	Yes	2.934	-0.003	4.0	GoodResponse	1	0.169	n/a	11	53	ButtonPress	Win	True
508.397	0.32	Win2	0.6296	n/a	Yes	2.934	n/a	n/a	GoodResponse	1	n/a	n/a	11	53	Blank	Win	True
508.715	1.45	Win2	0.6296	n/a	Yes	2.934	n/a	5.0	GoodResponse	1	0.038	507.753	11	53	Feedback	Win	True
510.169	2.934	Win2	0.6296	n/a	Yes	2.934	n/a	n/a	GoodResponse	1	0.0	n/a	11	53	ISIslide	Win	True
513.128	0.25	Win2	0.6364	0.0	Yes	2.722	0.028	n/a	GoodResponse	1	n/a	n/a	12	54	Cue	Win	True
513.379	3.95	Win2	0.6364	0.0	Yes	2.722	0.001	n/a	GoodResponse	1	n/a	n/a	12	54	Fixation	Win	True
517.324	0.39	Win2	0.6364	0.004	Yes	2.722	-0.004	4.0	GoodResponse	1	0.207	516.531	12	54	Target	Win	True
517.531	0.3	Win2	0.6364	0.004	Yes	2.722	-0.004	4.0	GoodResponse	1	0.207	n/a	12	54	ButtonPress	Win	True
517.725	0.31	Win2	0.6364	n/a	Yes	2.722	n/a	n/a	GoodResponse	1	n/a	n/a	12	54	Blank	Win	True
518.026	1.45	Win2	0.6364	n/a	Yes	2.722	n/a	5.0	GoodResponse	1	0.044	517.07	12	54	Feedback	Win	True
519.48	2.722	Win2	0.6364	n/a	Yes	2.722	n/a	n/a	GoodResponse	1	0.0	n/a	12	54	ISIslide	Win	True
522.222	0.25	Control	0.625	0.0	No	3.028	0.022	n/a	NoResponse	0	n/a	n/a	12	55	Cue	Neutral	True
522.473	3.95	Control	0.625	0.0	No	3.028	0.001	4.0	NoResponse	0	3.914	525.387	12	55	Fixation	Neutral	True
526.387	0.3	Control	0.625	0.0	No	3.028	0.001	4.0	NoResponse	0	3.914	n/a	12	55	ButtonPress	Neutral	True
526.418	0.4	Control	0.625	0.004	No	3.028	-0.004	n/a	NoResponse	0	n/a	n/a	12	55	Target	Neutral	True
526.819	0.3	Control	0.625	n/a	No	3.028	n/a	n/a	NoResponse	0	n/a	n/a	12	55	Blank	Neutral	True
527.12	1.45	Control	0.625	n/a	No	3.028	n/a	5.0	NoResponse	0	0.023	526.143	12	55	Feedback	Neutral	True
528.574	3.028	Control	0.625	n/a	No	3.028	n/a	n/a	NoResponse	0	0.0	n/a	12	55	ISIslide	Neutral	True
531.617	0.25	Control	0.6315999999999999	0.0	Yes	2.833	0.017	n/a	GoodResponse	0	n/a	n/a	12	56	Cue	Neutral	True
531.867	3.95	Control	0.6315999999999999	0.0	Yes	2.833	0.0	n/a	GoodResponse	0	n/a	n/a	12	56	Fixation	Neutral	True
535.813	0.41	Control	0.6315999999999999	0.004	Yes	2.833	-0.004	4.0	GoodResponse	0	0.186	534.999	12	56	Target	Neutral	True
535.999	0.3	Control	0.6315999999999999	0.004	Yes	2.833	-0.004	4.0	GoodResponse	0	0.186	n/a	12	56	ButtonPress	Neutral	True
536.23	0.29	Control	0.6315999999999999	n/a	Yes	2.833	n/a	n/a	GoodResponse	0	n/a	n/a	12	56	Blank	Neutral	True
536.515	1.45	Control	0.6315999999999999	n/a	Yes	2.833	n/a	5.0	GoodResponse	0	0.043	535.558	12	56	Feedback	Neutral	True
537.969	2.833	Control	0.6315999999999999	n/a	Yes	2.833	n/a	n/a	GoodResponse	0	0.0	n/a	12	56	ISIslide	Neutral	True
540.828	0.25	Control	0.6207	0.0	No	3.472	0.028	n/a	PrematurePress	0	n/a	n/a	12	57	Cue	Neutral	False
541.078	4.0	Control	0.6207	0.0	No	3.472	0.0	4.0	PrematurePress	0	3.72	543.798	12	57	Fixation	Neutral	False
544.798	0.3	Control	0.6207	0.0	No	3.472	0.0	4.0	PrematurePress	0	3.72	n/a	12	57	ButtonPress	Neutral	False
545.074	0.42	Control	0.6207	0.004	No	3.472	-0.004	4.0	PrematurePress	0	0.035	544.109	12	57	Target	Neutral	False
545.109	0.3	Control	0.6207	0.004	No	3.472	-0.004	4.0	PrematurePress	0	0.035	n/a	12	57	ButtonPress	Neutral	False
545.508	0.28	Control	0.6207	n/a	No	3.472	n/a	n/a	PrematurePress	0	n/a	n/a	12	57	Blank	Neutral	False
545.776	1.45	Control	0.6207	n/a	No	3.472	n/a	5.0	PrematurePress	0	0.002	544.778	12	57	Feedback	Neutral	False
547.23	3.472	Control	0.6207	n/a	No	3.472	n/a	n/a	PrematurePress	0	0.0	n/a	12	57	ISIslide	Neutral	False
550.724	0.25	Win2	0.6271	0.0	Yes	2.726	0.024	n/a	GoodResponse	1	n/a	n/a	13	58	Cue	Win	True
550.975	4.05	Win2	0.6271	0.0	Yes	2.726	0.001	n/a	GoodResponse	1	n/a	n/a	13	58	Fixation	Win	True
555.02	0.43	Win2	0.6271	0.004	Yes	2.726	-0.004	4.0	GoodResponse	1	0.184	554.204	13	58	Target	Win	True
555.204	0.3	Win2	0.6271	0.004	Yes	2.726	-0.004	4.0	GoodResponse	1	0.184	n/a	13	58	ButtonPress	Win	True
555.455	0.27	Win2	0.6271	n/a	Yes	2.726	n/a	n/a	GoodResponse	1	n/a	n/a	13	58	Blank	Win	True
555.722	1.45	Win2	0.6271	n/a	Yes	2.726	n/a	5.0	GoodResponse	1	0.006	554.728	13	58	Feedback	Win	True
557.177	2.726	Win2	0.6271	n/a	Yes	2.726	n/a	n/a	GoodResponse	1	0.0	n/a	13	58	ISIslide	Win	True
559.918	0.25	Lose2	0.6333	0.0	Yes	2.682	0.018	n/a	GoodResponse	0	n/a	n/a	13	59	Cue	AvoidedLoss	True
560.169	4.0	Lose2	0.6333	0.0	Yes	2.682	0.001	n/a	GoodResponse	0	n/a	n/a	13	59	Fixation	AvoidedLoss	True
564.164	0.44	Lose2	0.6333	0.004	Yes	2.682	-0.004	4.0	GoodResponse	0	0.191	563.355	13	59	Target	AvoidedLoss	True
564.355	0.3	Lose2	0.6333	0.004	Yes	2.682	-0.004	4.0	GoodResponse	0	0.191	n/a	13	59	ButtonPress	AvoidedLoss	True
564.616	0.26	Lose2	0.6333	n/a	Yes	2.682	n/a	n/a	GoodResponse	0	n/a	n/a	13	59	Blank	AvoidedLoss	True
564.866	1.45	Lose2	0.6333	n/a	Yes	2.682	n/a	5.0	GoodResponse	0	0.033	563.899	13	59	Feedback	AvoidedLoss	True
566.321	2.682	Lose2	0.6333	n/a	Yes	2.682	n/a	n/a	GoodResponse	0	0.0	n/a	13	59	ISIslide	AvoidedLoss	True
569.029	0.25	Control	0.6393	0.0	Yes	2.671	0.029	n/a	GoodResponse	0	n/a	n/a	13	60	Cue	Neutral	True
569.279	4.0	Control	0.6393	0.001	Yes	2.671	0.0	n/a	GoodResponse	0	n/a	n/a	13	60	Fixation	Neutral	True
573.275	0.45	Control	0.6393	0.004	Yes	2.671	-0.004	4.0	GoodResponse	0	0.245	572.52	13	60	Target	Neutral	True
573.52	0.3	Control	0.6393	0.004	Yes	2.671	-0.004	4.0	GoodResponse	0	0.245	n/a	13	60	ButtonPress	Neutral	True
573.726	0.25	Control	0.6393	n/a	Yes	2.671	n/a	n/a	GoodResponse	0	n/a	n/a	13	60	Blank	Neutral	True
573.977	1.45	Control	0.6393	n/a	Yes	2.671	n/a	5.0	GoodResponse	0	0.044	573.021	13	60	Feedback	Neutral	True
575.431	2.671	Control	0.6393	n/a	Yes	2.671	n/a	n/a	GoodResponse	0	0.0	n/a	13	60	ISIslide	Neutral	True
578.123	0.25	Lose2	0.629	0.0	No	2.977	0.023	n/a	PrematurePress	-1	n/a	n/a	12	61	Cue	Loss	True
578.373	4.0	Lose2	0.629	0.0	No	2.977	0.0	n/a	PrematurePress	-1	n/a	n/a	12	61	Fixation	Loss	True
582.369	0.46	Lose2	0.629	0.004	No	2.977	-0.004	4.0	PrematurePress	-1	0.079	581.448	12	61	Target	Loss	True
582.448	0.3	Lose2	0.629	0.004	No	2.977	-0.004	4.0	PrematurePress	-1	0.079	n/a	12	61	ButtonPress	Loss	True
582.837	0.24	Lose2	0.629	n/a	No	2.977	n/a	n/a	PrematurePress	-1	n/a	n/a	12	61	Blank	Loss	True
583.071	1.45	Lose2	0.629	n/a	No	2.977	n/a	5.0	PrematurePress	-1	0.023	582.094	12	61	Feedback	Loss	True
584.525	2.977	Lose2	0.629	n/a	No	2.977	n/a	n/a	PrematurePress	-1	0.0	n/a	12	61	ISIslide	Loss	True
587.517	0.25	Lose2	0.6349	0.001	Yes	2.883	0.017	n/a	GoodResponse	0	n/a	n/a	12	62	Cue	AvoidedLoss	True
587.768	3.9	Lose2	0.6349	0.0	Yes	2.883	0.001	n/a	GoodResponse	0	n/a	n/a	12	62	Fixation	AvoidedLoss	True
591.663	0.47	Lose2	0.6349	0.004	Yes	2.883	-0.004	4.0	GoodResponse	0	0.168	590.831	12	62	Target	AvoidedLoss	True
591.831	0.3	Lose2	0.6349	0.004	Yes	2.883	-0.004	4.0	GoodResponse	0	0.168	n/a	12	62	ButtonPress	AvoidedLoss	True
592.148	0.23	Lose2	0.6349	n/a	Yes	2.883	n/a	n/a	GoodResponse	0	n/a	n/a	12	62	Blank	AvoidedLoss	True
592.365	1.45	Lose2	0.6349	n/a	Yes	2.883	n/a	5.0	GoodResponse	0	0.046	591.411	12	62	Feedback	AvoidedLoss	True
593.82	2.883	Lose2	0.6349	n/a	Yes	2.883	n/a	n/a	GoodResponse	0	0.0	n/a	12	62	ISIslide	AvoidedLoss	True
596.728	0.25	Lose2	0.6406000000000001	0.0	Yes	2.622	0.028	n/a	GoodResponse	0	n/a	n/a	12	63	Cue	AvoidedLoss	True
596.979	4.05	Lose2	0.6406000000000001	0.0	Yes	2.622	0.001	n/a	GoodResponse	0	n/a	n/a	12	63	Fixation	AvoidedLoss	True
601.025	0.48	Lose2	0.6406000000000001	0.003	Yes	2.622	-0.003	4.0	GoodResponse	0	0.193	600.218	12	63	Target	AvoidedLoss	True
601.218	0.3	Lose2	0.6406000000000001	0.003	Yes	2.622	-0.003	4.0	GoodResponse	0	0.193	n/a	12	63	ButtonPress	AvoidedLoss	True
601.509	0.22	Lose2	0.6406000000000001	n/a	Yes	2.622	n/a	n/a	GoodResponse	0	n/a	n/a	12	63	Blank	AvoidedLoss	True
601.727	1.45	Lose2	0.6406000000000001	n/a	Yes	2.622	n/a	5.0	GoodResponse	0	0.001	600.728	12	63	Feedback	AvoidedLoss	True
603.181	2.622	Lose2	0.6406000000000001	n/a	Yes	2.622	n/a	n/a	GoodResponse	0	0.0	n/a	12	63	ISIslide	AvoidedLoss	True
605.822	0.25	Win2	0.6462	0.0	Yes	3.128	0.022	n/a	GoodResponse	1	n/a	n/a	13	64	Cue	Win	True
606.073	4.15	Win2	0.6462	0.0	Yes	3.128	0.001	n/a	GoodResponse	1	n/a	n/a	13	64	Fixation	Win	True
610.219	0.49	Win2	0.6462	0.003	Yes	3.128	-0.003	4.0	GoodResponse	1	0.214	609.433	13	64	Target	Win	True
610.433	0.3	Win2	0.6462	0.003	Yes	3.128	-0.003	4.0	GoodResponse	1	0.214	n/a	13	64	ButtonPress	Win	True
610.72	0.21	Win2	0.6462	n/a	Yes	3.128	n/a	n/a	GoodResponse	1	n/a	n/a	13	64	Blank	Win	True
610.921	1.45	Win2	0.6462	n/a	Yes	3.128	n/a	5.0	GoodResponse	1	0.027	609.948	13	64	Feedback	Win	True
612.375	3.128	Win2	0.6462	n/a	Yes	3.128	n/a	n/a	GoodResponse	1	0.0	n/a	13	64	ISIslide	Win	True
615.518	0.25	Control	0.6515000000000001	0.0	Yes	2.782	0.018	n/a	GoodResponse	0	n/a	n/a	13	65	Cue	Neutral	True
615.769	4.0	Control	0.6515000000000001	0.0	Yes	2.782	0.001	n/a	GoodResponse	0	n/a	n/a	13	65	Fixation	Neutral	True
619.764	0.5	Control	0.6515000000000001	0.004	Yes	2.782	-0.004	4.0	GoodResponse	0	0.156	618.92	13	65	Target	Neutral	True
619.92	0.3	Control	0.6515000000000001	0.004	Yes	2.782	-0.004	4.0	GoodResponse	0	0.156	n/a	13	65	ButtonPress	Neutral	True
620.266	0.2	Control	0.6515000000000001	n/a	Yes	2.782	n/a	n/a	GoodResponse	0	n/a	n/a	13	65	Blank	Neutral	True
620.466	1.45	Control	0.6515000000000001	n/a	Yes	2.782	n/a	5.0	GoodResponse	0	0.042	619.508	13	65	Feedback	Neutral	True
621.921	2.782	Control	0.6515000000000001	n/a	Yes	2.782	n/a	n/a	GoodResponse	0	0.0	n/a	13	65	ISIslide	Neutral	True
624.729	0.25	Win2	0.6567000000000001	0.0	Yes	2.771	0.029	n/a	GoodResponse	1	n/a	n/a	14	66	Cue	Win	True
624.98	3.9	Win2	0.6567000000000001	0.0	Yes	2.771	0.001	n/a	GoodResponse	1	n/a	n/a	14	66	Fixation	Win	True
628.875	0.5	Win2	0.6567000000000001	0.004	Yes	2.771	-0.004	4.0	GoodResponse	1	0.274	628.149	14	66	Target	Win	True
629.149	0.3	Win2	0.6567000000000001	0.004	Yes	2.771	-0.004	4.0	GoodResponse	1	0.274	n/a	14	66	ButtonPress	Win	True
629.376	0.2	Win2	0.6567000000000001	n/a	Yes	2.771	n/a	n/a	GoodResponse	1	n/a	n/a	14	66	Blank	Win	True
629.577	1.45	Win2	0.6567000000000001	n/a	Yes	2.771	n/a	5.0	GoodResponse	1	0.007	628.584	14	66	Feedback	Win	True
631.031	2.771	Win2	0.6567000000000001	n/a	Yes	2.771	n/a	n/a	GoodResponse	1	0.0	n/a	14	66	ISIslide	Win	True
633.823	0.25	Control	0.6470999999999999	0.0	No	2.727	0.023	n/a	PrematurePress	0	n/a	n/a	14	67	Cue	Neutral	True
634.074	3.95	Control	0.6470999999999999	0.0	No	2.727	0.001	n/a	PrematurePress	0	n/a	n/a	14	67	Fixation	Neutral	True
638.019	0.5	Control	0.6470999999999999	0.004	No	2.727	-0.004	4.0	PrematurePress	0	0.091	637.11	14	67	Target	Neutral	True
638.11	0.3	Control	0.6470999999999999	0.004	No	2.727	-0.004	4.0	PrematurePress	0	0.091	n/a	14	67	ButtonPress	Neutral	True
638.52	0.2	Control	0.6470999999999999	n/a	No	2.727	n/a	n/a	PrematurePress	0	n/a	n/a	14	67	Blank	Neutral	True
638.721	1.45	Control	0.6470999999999999	n/a	No	2.727	n/a	5.0	PrematurePress	0	0.031	637.752	14	67	Feedback	Neutral	True
640.175	2.727	Control	0.6470999999999999	n/a	No	2.727	n/a	n/a	PrematurePress	0	0.0	n/a	14	67	ISIslide	Neutral	True
642.917	0.25	Win2	0.6522	0.0	Yes	3.083	0.017	n/a	GoodResponse	1	n/a	n/a	15	68	Cue	Win	True
643.168	4.0	Win2	0.6522	0.0	Yes	3.083	0.001	n/a	GoodResponse	1	n/a	n/a	15	68	Fixation	Win	True
647.163	0.5	Win2	0.6522	0.004	Yes	3.083	-0.004	4.0	GoodResponse	1	0.204	646.367	15	68	Target	Win	True
647.367	0.3	Win2	0.6522	0.004	Yes	3.083	-0.004	4.0	GoodResponse	1	0.204	n/a	15	68	ButtonPress	Win	True
647.664	0.2	Win2	0.6522	n/a	Yes	3.083	n/a	n/a	GoodResponse	1	n/a	n/a	15	68	Blank	Win	True
647.865	1.45	Win2	0.6522	n/a	Yes	3.083	n/a	5.0	GoodResponse	1	0.009	646.874	15	68	Feedback	Win	True
649.319	3.083	Win2	0.6522	n/a	Yes	3.083	n/a	n/a	GoodResponse	1	0.0	n/a	15	68	ISIslide	Win	True
652.429	0.25	Win2	0.6570999999999999	0.0	Yes	3.221	0.029	n/a	GoodResponse	1	n/a	n/a	16	69	Cue	Win	True
652.679	3.95	Win2	0.6570999999999999	0.0	Yes	3.221	0.0	n/a	GoodResponse	1	n/a	n/a	16	69	Fixation	Win	True
656.625	0.5	Win2	0.6570999999999999	0.004	Yes	3.221	-0.004	4.0	GoodResponse	1	0.198	655.823	16	69	Target	Win	True
656.823	0.3	Win2	0.6570999999999999	0.004	Yes	3.221	-0.004	4.0	GoodResponse	1	0.198	n/a	16	69	ButtonPress	Win	True
657.126	0.2	Win2	0.6570999999999999	n/a	Yes	3.221	n/a	n/a	GoodResponse	1	n/a	n/a	16	69	Blank	Win	True
657.327	1.45	Win2	0.6570999999999999	n/a	Yes	3.221	n/a	5.0	GoodResponse	1	0.011	656.338	16	69	Feedback	Win	True
658.781	3.221	Win2	0.6570999999999999	n/a	Yes	3.221	n/a	n/a	GoodResponse	1	0.0	n/a	16	69	ISIslide	Win	True
662.024	0.25	Lose2	0.662	0.0	Yes	3.026	0.024	n/a	GoodResponse	0	n/a	n/a	16	70	Cue	AvoidedLoss	True
662.275	4.05	Lose2	0.662	0.0	Yes	3.026	0.001	n/a	GoodResponse	0	n/a	n/a	16	70	Fixation	AvoidedLoss	True
666.32	0.5	Lose2	0.662	0.004	Yes	3.026	-0.004	4.0	GoodResponse	0	0.19	665.51	16	70	Target	AvoidedLoss	True
666.51	0.3	Lose2	0.662	0.004	Yes	3.026	-0.004	4.0	GoodResponse	0	0.19	n/a	16	70	ButtonPress	AvoidedLoss	True
666.822	0.2	Lose2	0.662	n/a	Yes	3.026	n/a	n/a	GoodResponse	0	n/a	n/a	16	70	Blank	AvoidedLoss	True
667.022	1.45	Lose2	0.662	n/a	Yes	3.026	n/a	5.0	GoodResponse	0	0.023	666.045	16	70	Feedback	AvoidedLoss	True
668.477	3.026	Lose2	0.662	n/a	Yes	3.026	n/a	n/a	GoodResponse	0	0.0	n/a	16	70	ISIslide	AvoidedLoss	True
671.519	0.25	Win2	0.6667000000000001	0.0	Yes	2.731	0.019	n/a	GoodResponse	1	n/a	n/a	17	71	Cue	Win	True
671.77	4.05	Win2	0.6667000000000001	0.0	Yes	2.731	0.001	n/a	GoodResponse	1	n/a	n/a	17	71	Fixation	Win	True
675.815	0.5	Win2	0.6667000000000001	0.004	Yes	2.731	-0.004	4.0	GoodResponse	1	0.207	675.022	17	71	Target	Win	True
676.022	0.3	Win2	0.6667000000000001	0.004	Yes	2.731	-0.004	4.0	GoodResponse	1	0.207	n/a	17	71	ButtonPress	Win	True
676.317	0.2	Win2	0.6667000000000001	n/a	Yes	2.731	n/a	n/a	GoodResponse	1	n/a	n/a	17	71	Blank	Win	True
676.517	1.45	Win2	0.6667000000000001	n/a	Yes	2.731	n/a	5.0	GoodResponse	1	0.039	675.556	17	71	Feedback	Win	True
677.972	2.731	Win2	0.6667000000000001	n/a	Yes	2.731	n/a	n/a	GoodResponse	1	0.0	n/a	17	71	ISIslide	Win	True
680.73	0.25	Win2	0.6712	0.0	Yes	2.77	0.03	n/a	GoodResponse	1	n/a	n/a	18	72	Cue	Win	True
680.981	4.1	Win2	0.6712	0.0	Yes	2.77	0.001	n/a	GoodResponse	1	n/a	n/a	18	72	Fixation	Win	True
685.076	0.49	Win2	0.6712	0.004	Yes	2.77	-0.004	4.0	GoodResponse	1	0.2	684.276	18	72	Target	Win	True
685.276	0.3	Win2	0.6712	0.004	Yes	2.77	-0.004	4.0	GoodResponse	1	0.2	n/a	18	72	ButtonPress	Win	True
685.578	0.21	Win2	0.6712	n/a	Yes	2.77	n/a	n/a	GoodResponse	1	n/a	n/a	18	72	Blank	Win	True
685.779	1.45	Win2	0.6712	n/a	Yes	2.77	n/a	5.0	GoodResponse	1	0.046	684.825	18	72	Feedback	Win	True
687.233	2.77	Win2	0.6712	n/a	Yes	2.77	n/a	n/a	GoodResponse	1	0.0	n/a	18	72	ISIslide	Win	True
690.025	0.25	Win2	0.6757	0.0	Yes	2.675	0.025	n/a	GoodResponse	1	n/a	n/a	19	73	Cue	Win	True
690.275	4.0	Win2	0.6757	0.0	Yes	2.675	0.0	n/a	GoodResponse	1	n/a	n/a	19	73	Fixation	Win	True
694.271	0.48	Win2	0.6757	0.004	Yes	2.675	-0.004	4.0	GoodResponse	1	0.218	693.489	19	73	Target	Win	True
694.489	0.3	Win2	0.6757	0.004	Yes	2.675	-0.004	4.0	GoodResponse	1	0.218	n/a	19	73	ButtonPress	Win	True
694.755	0.22	Win2	0.6757	n/a	Yes	2.675	n/a	n/a	GoodResponse	1	n/a	n/a	19	73	Blank	Win	True
694.973	1.45	Win2	0.6757	n/a	Yes	2.675	n/a	5.0	GoodResponse	1	0.023	693.996	19	73	Feedback	Win	True
696.427	2.675	Win2	0.6757	n/a	Yes	2.675	n/a	n/a	GoodResponse	1	0.0	n/a	19	73	ISIslide	Win	True
699.119	0.25	Lose2	0.68	0.0	Yes	2.631	0.019	n/a	GoodResponse	0	n/a	n/a	19	74	Cue	AvoidedLoss	True
699.369	4.05	Lose2	0.68	0.0	Yes	2.631	0.0	n/a	GoodResponse	0	n/a	n/a	19	74	Fixation	AvoidedLoss	True
703.415	0.47	Lose2	0.68	0.004	Yes	2.631	-0.004	4.0	GoodResponse	0	0.205	702.62	19	74	Target	AvoidedLoss	True
703.62	0.3	Lose2	0.68	0.004	Yes	2.631	-0.004	4.0	GoodResponse	0	0.205	n/a	19	74	ButtonPress	AvoidedLoss	True
703.9	0.23	Lose2	0.68	n/a	Yes	2.631	n/a	n/a	GoodResponse	0	n/a	n/a	19	74	Blank	AvoidedLoss	True
704.117	1.45	Lose2	0.68	n/a	Yes	2.631	n/a	5.0	GoodResponse	0	0.001	703.118	19	74	Feedback	AvoidedLoss	True
705.571	2.631	Lose2	0.68	n/a	Yes	2.631	n/a	n/a	GoodResponse	0	0.0	n/a	19	74	ISIslide	AvoidedLoss	True
708.229	0.25	Lose2	0.6842	0.0	Yes	2.921	0.029	n/a	GoodResponse	0	n/a	n/a	19	75	Cue	AvoidedLoss	True
708.48	3.95	Lose2	0.6842	0.0	Yes	2.921	0.001	n/a	GoodResponse	0	n/a	n/a	19	75	Fixation	AvoidedLoss	True
712.425	0.46	Lose2	0.6842	0.004	Yes	2.921	-0.004	4.0	GoodResponse	0	0.257	711.682	19	75	Target	AvoidedLoss	True
712.682	0.3	Lose2	0.6842	0.004	Yes	2.921	-0.004	4.0	GoodResponse	0	0.257	n/a	19	75	ButtonPress	AvoidedLoss	True
712.893	0.24	Lose2	0.6842	n/a	Yes	2.921	n/a	n/a	GoodResponse	0	n/a	n/a	19	75	Blank	AvoidedLoss	True
713.127	1.45	Lose2	0.6842	n/a	Yes	2.921	n/a	5.0	GoodResponse	0	0.015	712.142	19	75	Feedback	AvoidedLoss	True
714.582	2.921	Lose2	0.6842	n/a	Yes	2.921	n/a	n/a	GoodResponse	0	0.0	n/a	19	75	ISIslide	AvoidedLoss	True
717.524	0.25	Control	0.6883	0.0	Yes	3.226	0.024	n/a	GoodResponse	0	n/a	n/a	19	76	Cue	Neutral	True
717.774	4.05	Control	0.6883	0.0	Yes	3.226	0.0	n/a	GoodResponse	0	n/a	n/a	19	76	Fixation	Neutral	True
721.82	0.45	Control	0.6883	0.004	Yes	3.226	-0.004	4.0	GoodResponse	0	0.21	721.03	19	76	Target	Neutral	True
722.03	0.3	Control	0.6883	0.004	Yes	3.226	-0.004	4.0	GoodResponse	0	0.21	n/a	19	76	ButtonPress	Neutral	True
722.271	0.25	Control	0.6883	n/a	Yes	3.226	n/a	n/a	GoodResponse	0	n/a	n/a	19	76	Blank	Neutral	True
722.522	1.45	Control	0.6883	n/a	Yes	3.226	n/a	5.0	GoodResponse	0	0.035	721.557	19	76	Feedback	Neutral	True
723.976	3.226	Control	0.6883	n/a	Yes	3.226	n/a	n/a	GoodResponse	0	0.0	n/a	19	76	ISIslide	Neutral	True
727.219	0.25	Lose2	0.6923	0.0	Yes	2.581	0.019	n/a	GoodResponse	0	n/a	n/a	19	77	Cue	AvoidedLoss	True
727.47	3.95	Lose2	0.6923	0.0	Yes	2.581	0.001	n/a	GoodResponse	0	n/a	n/a	19	77	Fixation	AvoidedLoss	True
731.415	0.44	Lose2	0.6923	0.004	Yes	2.581	-0.004	4.0	GoodResponse	0	0.194	730.609	19	77	Target	AvoidedLoss	True
731.609	0.3	Lose2	0.6923	0.004	Yes	2.581	-0.004	4.0	GoodResponse	0	0.194	n/a	19	77	ButtonPress	AvoidedLoss	True
731.867	0.26	Lose2	0.6923	n/a	Yes	2.581	n/a	n/a	GoodResponse	0	n/a	n/a	19	77	Blank	AvoidedLoss	True
732.117	1.45	Lose2	0.6923	n/a	Yes	2.581	n/a	5.0	GoodResponse	0	0.001	731.118	19	77	Feedback	AvoidedLoss	True
733.572	2.581	Lose2	0.6923	n/a	Yes	2.581	n/a	n/a	GoodResponse	0	0.0	n/a	19	77	ISIslide	AvoidedLoss	True
