onset	duration	cue_type	current_mean_accuracy	duration_error	is_hit	isi_adjusted	onset_delay	response	response_type	reward	rt	rt_time	total_reward	trial_number	trial_phase	trial_type	one_press
11.109	0.25	Control	1.0	0.0	Yes	2.941	0.009	n/a	GoodResponse	0	n/a	n/a	0	0	Cue	Neutral	True
11.36	3.85	Control	1.0	0.0	Yes	2.941	0.001	n/a	GoodResponse	0	n/a	n/a	0	0	Fixation	Neutral	True
15.221	0.4	Control	1.0	0.0	Yes	2.941	0.012	3.0	GoodResponse	0	0.257	14.478000000000003	0	0	Target	Neutral	True
15.478	0.3	Control	1.0	0.0	Yes	2.941	0.012	3.0	GoodResponse	0	0.257	n/a	0	0	ButtonPress	Neutral	True
15.606	0.3	Control	1.0	n/a	Yes	2.941	n/a	n/a	GoodResponse	0	n/a	n/a	0	0	Blank	Neutral	True
15.906	1.45	Control	1.0	n/a	Yes	2.941	n/a	5.0	GoodResponse	0	0.02	14.926000000000004	0	0	Feedback	Neutral	True
17.361	2.941	Control	1.0	n/a	Yes	2.941	n/a	n/a	GoodResponse	0	0.0	n/a	0	0	ISIslide	Neutral	True
20.32	0.25	Lose2	1.0	0.0	Yes	2.78	0.02	n/a	GoodResponse	0	n/a	n/a	0	1	Cue	AvoidedLoss	True
20.57	4.0	Lose2	1.0	0.0	Yes	2.78	0.0	n/a	GoodResponse	0	n/a	n/a	0	1	Fixation	AvoidedLoss	True
24.566	0.39	Lose2	1.0	0.004	Yes	2.78	-0.004	3.0	GoodResponse	0	0.208	23.774000000000004	0	1	Target	AvoidedLoss	True
24.774	0.3	Lose2	1.0	0.004	Yes	2.78	-0.004	3.0	GoodResponse	0	0.208	n/a	0	1	ButtonPress	AvoidedLoss	True
24.967	0.31	Lose2	1.0	n/a	Yes	2.78	n/a	n/a	GoodResponse	0	n/a	n/a	0	1	Blank	AvoidedLoss	True
25.268	1.45	Lose2	1.0	n/a	Yes	2.78	n/a	5.0	GoodResponse	0	0.024	24.292000000000005	0	1	Feedback	AvoidedLoss	True
26.722	2.78	Lose2	1.0	n/a	Yes	2.78	n/a	n/a	GoodResponse	0	0.0	n/a	0	1	ISIslide	AvoidedLoss	True
29.531	0.25	Control	1.0	0.0	Yes	2.569	0.031	n/a	GoodResponse	0	n/a	n/a	0	2	Cue	Neutral	True
29.781	4.1	Control	1.0	0.0	Yes	2.569	0.0	n/a	GoodResponse	0	n/a	n/a	0	2	Fixation	Neutral	True
33.877	0.38	Control	1.0	0.004	Yes	2.569	-0.004	3.0	GoodResponse	0	0.229	33.106	0	2	Target	Neutral	True
34.106	0.3	Control	1.0	0.004	Yes	2.569	-0.004	3.0	GoodResponse	0	0.229	n/a	0	2	ButtonPress	Neutral	True
34.261	0.32	Control	1.0	n/a	Yes	2.569	n/a	n/a	GoodResponse	0	n/a	n/a	0	2	Blank	Neutral	True
34.579	1.45	Control	1.0	n/a	Yes	2.569	n/a	5.0	GoodResponse	0	0.03	33.609	0	2	Feedback	Neutral	True
36.033	2.569	Control	1.0	n/a	Yes	2.569	n/a	n/a	GoodResponse	0	0.0	n/a	0	2	ISIslide	Neutral	True
38.624	0.25	Win2	1.0	0.0	Yes	2.826	0.024	n/a	GoodResponse	1	n/a	n/a	1	3	Cue	Win	True
38.875	3.95	Win2	1.0	0.0	Yes	2.826	0.001	n/a	GoodResponse	1	n/a	n/a	1	3	Fixation	Win	True
42.82	0.37	Win2	1.0	0.004	Yes	2.826	-0.004	3.0	GoodResponse	1	0.209	42.029	1	3	Target	Win	True
43.029	0.3	Win2	1.0	0.004	Yes	2.826	-0.004	3.0	GoodResponse	1	0.209	n/a	1	3	ButtonPress	Win	True
43.205	0.33	Win2	1.0	n/a	Yes	2.826	n/a	n/a	GoodResponse	1	n/a	n/a	1	3	Blank	Win	True
43.522	1.45	Win2	1.0	n/a	Yes	2.826	n/a	5.0	GoodResponse	1	0.014	42.536	1	3	Feedback	Win	True
44.977	2.826	Win2	1.0	n/a	Yes	2.826	n/a	n/a	GoodResponse	1	0.0	n/a	1	3	ISIslide	Win	True
47.818	0.25	Win2	1.0	0.001	Yes	3.282	0.018	n/a	GoodResponse	1	n/a	n/a	2	4	Cue	Win	True
48.069	4.0	Win2	1.0	0.0	Yes	3.282	0.001	n/a	GoodResponse	1	n/a	n/a	2	4	Fixation	Win	True
52.064	0.36	Win2	1.0	0.004	Yes	3.282	-0.004	3.0	GoodResponse	1	0.225	51.289	2	4	Target	Win	True
52.289	0.3	Win2	1.0	0.004	Yes	3.282	-0.004	3.0	GoodResponse	1	0.225	n/a	2	4	ButtonPress	Win	True
52.432	0.34	Win2	1.0	n/a	Yes	3.282	n/a	n/a	GoodResponse	1	n/a	n/a	2	4	Blank	Win	True
52.767	1.45	Win2	1.0	n/a	Yes	3.282	n/a	5.0	GoodResponse	1	0.037	51.804	2	4	Feedback	Win	True
54.221	3.282	Win2	1.0	n/a	Yes	3.282	n/a	n/a	GoodResponse	1	0.0	n/a	2	4	ISIslide	Win	True
57.531	0.25	Win2	1.0	0.0	Yes	2.769	0.031	n/a	GoodResponse	1	n/a	n/a	3	5	Cue	Win	True
57.782	4.0	Win2	1.0	0.0	Yes	2.769	0.001	n/a	GoodResponse	1	n/a	n/a	3	5	Fixation	Win	True
61.777	0.35	Win2	1.0	0.004	Yes	2.769	-0.004	3.0	GoodResponse	1	0.199	60.976	3	5	Target	Win	True
61.976	0.3	Win2	1.0	0.004	Yes	2.769	-0.004	3.0	GoodResponse	1	0.199	n/a	3	5	ButtonPress	Win	True
62.128	0.35	Win2	1.0	n/a	Yes	2.769	n/a	n/a	GoodResponse	1	n/a	n/a	3	5	Blank	Win	True
62.479	1.45	Win2	1.0	n/a	Yes	2.769	n/a	5.0	GoodResponse	1	0.032	61.511	3	5	Feedback	Win	True
63.933	2.769	Win2	1.0	n/a	Yes	2.769	n/a	n/a	GoodResponse	1	0.0	n/a	3	5	ISIslide	Win	True
66.725	0.25	Lose2	1.0	0.0	Yes	2.725	0.025	n/a	GoodResponse	0	n/a	n/a	3	6	Cue	AvoidedLoss	True
66.976	3.95	Lose2	1.0	0.0	Yes	2.725	0.001	n/a	GoodResponse	0	n/a	n/a	3	6	Fixation	AvoidedLoss	True
70.921	0.34	Lose2	1.0	0.004	Yes	2.725	-0.004	3.0	GoodResponse	0	0.234	70.155	3	6	Target	AvoidedLoss	True
71.155	0.3	Lose2	1.0	0.004	Yes	2.725	-0.004	3.0	GoodResponse	0	0.234	n/a	3	6	ButtonPress	AvoidedLoss	True
71.272	0.36	Lose2	1.0	n/a	Yes	2.725	n/a	n/a	GoodResponse	0	n/a	n/a	3	6	Blank	AvoidedLoss	True
71.623	1.45	Lose2	1.0	n/a	Yes	2.725	n/a	5.0	GoodResponse	0	0.01	70.633	3	6	Feedback	AvoidedLoss	True
73.077	2.725	Lose2	1.0	n/a	Yes	2.725	n/a	n/a	GoodResponse	0	0.0	n/a	3	6	ISIslide	AvoidedLoss	True
75.819	0.25	Lose2	1.0	0.0	Yes	4.031	0.019	n/a	GoodResponse	0	n/a	n/a	3	7	Cue	AvoidedLoss	True
76.069	4.05	Lose2	1.0	0.001	Yes	4.031	0.0	n/a	GoodResponse	0	n/a	n/a	3	7	Fixation	AvoidedLoss	True
80.115	0.33	Lose2	1.0	0.004	Yes	4.031	-0.004	3.0	GoodResponse	0	0.197	79.312	3	7	Target	AvoidedLoss	True
80.312	0.3	Lose2	1.0	0.004	Yes	4.031	-0.004	3.0	GoodResponse	0	0.197	n/a	3	7	ButtonPress	AvoidedLoss	True
80.449	0.37	Lose2	1.0	n/a	Yes	4.031	n/a	n/a	GoodResponse	0	n/a	n/a	3	7	Blank	AvoidedLoss	True
80.817	1.45	Lose2	1.0	n/a	Yes	4.031	n/a	5.0	GoodResponse	0	0.036	79.853	3	7	Feedback	AvoidedLoss	True
82.271	4.031	Lose2	1.0	n/a	Yes	4.031	n/a	n/a	GoodResponse	0	0.0	n/a	3	7	ISIslide	AvoidedLoss	True
86.317	0.25	Lose2	1.0	0.0	Yes	3.033	0.017	n/a	GoodResponse	0	n/a	n/a	3	8	Cue	AvoidedLoss	True
86.568	3.95	Lose2	1.0	0.0	Yes	3.033	0.001	n/a	GoodResponse	0	n/a	n/a	3	8	Fixation	AvoidedLoss	True
90.513	0.32	Lose2	1.0	0.004	Yes	3.033	-0.004	3.0	GoodResponse	0	0.238	89.751	3	8	Target	AvoidedLoss	True
90.751	0.3	Lose2	1.0	0.004	Yes	3.033	-0.004	3.0	GoodResponse	0	0.238	n/a	3	8	ButtonPress	AvoidedLoss	True
90.847	0.38	Lose2	1.0	n/a	Yes	3.033	n/a	n/a	GoodResponse	0	n/a	n/a	3	8	Blank	AvoidedLoss	True
91.215	1.45	Lose2	1.0	n/a	Yes	3.033	n/a	5.0	GoodResponse	0	0.027	90.242	3	8	Feedback	AvoidedLoss	True
92.669	3.033	Lose2	1.0	n/a	Yes	3.033	n/a	n/a	GoodResponse	0	0.0	n/a	3	8	ISIslide	AvoidedLoss	True
95.728	0.25	Lose2	1.0	0.0	Yes	3.122	0.028	n/a	GoodResponse	0	n/a	n/a	3	9	Cue	AvoidedLoss	True
95.979	3.95	Lose2	1.0	0.0	Yes	3.122	0.001	n/a	GoodResponse	0	n/a	n/a	3	9	Fixation	AvoidedLoss	True
99.924	0.31	Lose2	1.0	0.004	Yes	3.122	-0.004	3.0	GoodResponse	0	0.21	99.134	3	9	Target	AvoidedLoss	True
100.134	0.3	Lose2	1.0	0.004	Yes	3.122	-0.004	3.0	GoodResponse	0	0.21	n/a	3	9	ButtonPress	AvoidedLoss	True
100.242	0.39	Lose2	1.0	n/a	Yes	3.122	n/a	n/a	GoodResponse	0	n/a	n/a	3	9	Blank	AvoidedLoss	True
100.626	1.45	Lose2	1.0	n/a	Yes	3.122	n/a	5.0	GoodResponse	0	0.031	99.657	3	9	Feedback	AvoidedLoss	True
102.081	3.122	Lose2	1.0	n/a	Yes	3.122	n/a	n/a	GoodResponse	0	0.0	n/a	3	9	ISIslide	AvoidedLoss	True
105.223	0.25	Control	1.0	0.0	Yes	3.277	0.023	n/a	GoodResponse	0	n/a	n/a	3	10	Cue	Neutral	True
105.474	4.0	Control	1.0	0.0	Yes	3.277	0.001	n/a	GoodResponse	0	n/a	n/a	3	10	Fixation	Neutral	True
109.469	0.3	Control	1.0	0.004	Yes	3.277	-0.004	3.0	GoodResponse	0	0.268	108.737	3	10	Target	Neutral	True
109.737	0.3	Control	1.0	0.004	Yes	3.277	-0.004	3.0	GoodResponse	0	0.268	n/a	3	10	ButtonPress	Neutral	True
109.77	0.4	Control	1.0	n/a	Yes	3.277	n/a	n/a	GoodResponse	0	n/a	n/a	3	10	Blank	Neutral	True
110.171	1.45	Control	1.0	n/a	Yes	3.277	n/a	5.0	GoodResponse	0	0.047	109.218	3	10	Feedback	Neutral	True
111.626	3.277	Control	1.0	n/a	Yes	3.277	n/a	n/a	GoodResponse	0	0.0	n/a	3	10	ISIslide	Neutral	True
114.919	0.25	Lose2	1.0	0.0	Yes	2.731	0.019	n/a	GoodResponse	0	n/a	n/a	3	11	Cue	AvoidedLoss	True
115.17	4.05	Lose2	1.0	0.0	Yes	2.731	0.001	n/a	GoodResponse	0	n/a	n/a	3	11	Fixation	AvoidedLoss	True
119.215	0.29	Lose2	1.0	0.004	Yes	2.731	-0.004	3.0	GoodResponse	0	0.23	118.445	3	11	Target	AvoidedLoss	True
119.445	0.3	Lose2	1.0	0.004	Yes	2.731	-0.004	3.0	GoodResponse	0	0.23	n/a	3	11	ButtonPress	AvoidedLoss	True
119.516	0.41	Lose2	1.0	n/a	Yes	2.731	n/a	n/a	GoodResponse	0	n/a	n/a	3	11	Blank	AvoidedLoss	True
119.917	1.45	Lose2	1.0	n/a	Yes	2.731	n/a	5.0	GoodResponse	0	0.008	118.925	3	11	Feedback	AvoidedLoss	True
121.371	2.731	Lose2	1.0	n/a	Yes	2.731	n/a	n/a	GoodResponse	0	0.0	n/a	3	11	ISIslide	AvoidedLoss	True
124.13	0.25	Control	1.0	0.0	Yes	2.97	0.03	n/a	GoodResponse	0	n/a	n/a	3	12	Cue	Neutral	True
124.38	3.9	Control	1.0	0.001	Yes	2.97	0.0	n/a	GoodResponse	0	n/a	n/a	3	12	Fixation	Neutral	True
128.292	0.28	Control	1.0	0.0	Yes	2.97	0.012	3.0	GoodResponse	0	0.19	127.482	3	12	Target	Neutral	True
128.482	0.3	Control	1.0	0.0	Yes	2.97	0.012	3.0	GoodResponse	0	0.19	n/a	3	12	ButtonPress	Neutral	True
128.56	0.42	Control	1.0	n/a	Yes	2.97	n/a	n/a	GoodResponse	0	n/a	n/a	3	12	Blank	Neutral	True
128.977	1.45	Control	1.0	n/a	Yes	2.97	n/a	5.0	GoodResponse	0	0.021	127.998	3	12	Feedback	Neutral	True
130.432	2.97	Control	1.0	n/a	Yes	2.97	n/a	n/a	GoodResponse	0	0.0	n/a	3	12	ISIslide	Neutral	True
133.424	0.25	Control	1.0	0.0	Yes	2.776	0.024	n/a	GoodResponse	0	n/a	n/a	3	13	Cue	Neutral	True
133.675	4.0	Control	1.0	0.0	Yes	2.776	0.001	n/a	GoodResponse	0	n/a	n/a	3	13	Fixation	Neutral	True
137.67	0.27	Control	1.0	0.004	Yes	2.776	-0.004	3.0	GoodResponse	0	0.222	136.892	3	13	Target	Neutral	True
137.892	0.3	Control	1.0	0.004	Yes	2.776	-0.004	3.0	GoodResponse	0	0.222	n/a	3	13	ButtonPress	Neutral	True
137.954	0.43	Control	1.0	n/a	Yes	2.776	n/a	n/a	GoodResponse	0	n/a	n/a	3	13	Blank	Neutral	True
138.372	1.45	Control	1.0	n/a	Yes	2.776	n/a	5.0	GoodResponse	0	0.04	137.412	3	13	Feedback	Neutral	True
139.827	2.776	Control	1.0	n/a	Yes	2.776	n/a	n/a	GoodResponse	0	0.0	n/a	3	13	ISIslide	Neutral	True
142.618	0.25	Win2	1.0	0.0	Yes	2.682	0.018	n/a	GoodResponse	1	n/a	n/a	4	14	Cue	Win	True
142.869	4.1	Win2	1.0	0.0	Yes	2.682	0.001	n/a	GoodResponse	1	n/a	n/a	4	14	Fixation	Win	True
146.965	0.26	Win2	1.0	0.003	Yes	2.682	-0.003	3.0	GoodResponse	1	0.213	146.178	4	14	Target	Win	True
147.178	0.3	Win2	1.0	0.003	Yes	2.682	-0.003	3.0	GoodResponse	1	0.213	n/a	4	14	ButtonPress	Win	True
147.232	0.44	Win2	1.0	n/a	Yes	2.682	n/a	n/a	GoodResponse	1	n/a	n/a	4	14	Blank	Win	True
147.667	1.45	Win2	1.0	n/a	Yes	2.682	n/a	5.0	GoodResponse	1	0.014	146.681	4	14	Feedback	Win	True
149.121	2.682	Win2	1.0	n/a	Yes	2.682	n/a	n/a	GoodResponse	1	0.0	n/a	4	14	ISIslide	Win	True
151.829	0.25	Control	0.9375	0.0	No	2.971	0.029	n/a	NoResponse	0	n/a	n/a	4	15	Cue	Neutral	True
152.08	4.0	Control	0.9375	0.0	No	2.971	0.001	3.0	NoResponse	0	3.946	155.026	4	15	Fixation	Neutral	True
156.026	0.3	Control	0.9375	0.0	No	2.971	0.001	3.0	NoResponse	0	3.946	n/a	4	15	ButtonPress	Neutral	True
156.075	0.25	Control	0.9375	0.004	No	2.971	-0.004	n/a	NoResponse	0	n/a	n/a	4	15	Target	Neutral	True
156.326	0.45	Control	0.9375	n/a	No	2.971	n/a	n/a	NoResponse	0	n/a	n/a	4	15	Blank	Neutral	True
156.777	1.45	Control	0.9375	n/a	No	2.971	n/a	5.0	NoResponse	0	0.026	155.803	4	15	Feedback	Neutral	True
158.232	2.971	Control	0.9375	n/a	No	2.971	n/a	n/a	NoResponse	0	0.0	n/a	4	15	ISIslide	Neutral	True
161.224	0.25	Win2	0.9412	0.0	Yes	2.876	0.024	n/a	GoodResponse	1	n/a	n/a	5	16	Cue	Win	True
161.475	4.0	Win2	0.9412	0.0	Yes	2.876	0.001	n/a	GoodResponse	1	n/a	n/a	5	16	Fixation	Win	True
165.47	0.24	Win2	0.9412	0.004	Yes	2.876	-0.004	3.0	GoodResponse	1	0.236	164.706	5	16	Target	Win	True
165.706	0.3	Win2	0.9412	0.004	Yes	2.876	-0.004	3.0	GoodResponse	1	0.236	n/a	5	16	ButtonPress	Win	True
165.721	0.46	Win2	0.9412	n/a	Yes	2.876	n/a	n/a	GoodResponse	1	n/a	n/a	5	16	Blank	Win	True
166.172	1.45	Win2	0.9412	n/a	Yes	2.876	n/a	5.0	GoodResponse	1	0.045	165.217	5	16	Feedback	Win	True
167.626	2.876	Win2	0.9412	n/a	Yes	2.876	n/a	n/a	GoodResponse	1	0.0	n/a	5	16	ISIslide	Win	True
170.518	0.25	Lose2	0.9444	0.0	Yes	2.732	0.018	n/a	GoodResponse	0	n/a	n/a	5	17	Cue	AvoidedLoss	True
170.769	3.95	Lose2	0.9444	0.0	Yes	2.732	0.001	n/a	GoodResponse	0	n/a	n/a	5	17	Fixation	AvoidedLoss	True
174.714	0.23	Lose2	0.9444	0.004	Yes	2.732	-0.004	3.0	GoodResponse	0	0.224	173.938	5	17	Target	AvoidedLoss	True
174.938	0.3	Lose2	0.9444	0.004	Yes	2.732	-0.004	3.0	GoodResponse	0	0.224	n/a	5	17	ButtonPress	AvoidedLoss	True
174.948	0.47	Lose2	0.9444	n/a	Yes	2.732	n/a	n/a	GoodResponse	0	n/a	n/a	5	17	Blank	AvoidedLoss	True
175.416	1.45	Lose2	0.9444	n/a	Yes	2.732	n/a	5.0	GoodResponse	0	0.02	174.436	5	17	Feedback	AvoidedLoss	True
176.871	2.732	Lose2	0.9444	n/a	Yes	2.732	n/a	n/a	GoodResponse	0	0.0	n/a	5	17	ISIslide	AvoidedLoss	True
179.629	0.25	Lose2	0.9473999999999999	0.0	Yes	2.721	0.029	n/a	GoodResponse	0	n/a	n/a	5	18	Cue	AvoidedLoss	True
179.88	4.05	Lose2	0.9473999999999999	0.0	Yes	2.721	0.001	n/a	GoodResponse	0	n/a	n/a	5	18	Fixation	AvoidedLoss	True
183.925	0.22	Lose2	0.9473999999999999	0.004	Yes	2.721	-0.004	3.0	GoodResponse	0	0.197	183.122	5	18	Target	AvoidedLoss	True
184.122	0.3	Lose2	0.9473999999999999	0.004	Yes	2.721	-0.004	3.0	GoodResponse	0	0.197	n/a	5	18	ButtonPress	AvoidedLoss	True
184.159	0.48	Lose2	0.9473999999999999	n/a	Yes	2.721	n/a	n/a	GoodResponse	0	n/a	n/a	5	18	Blank	AvoidedLoss	True
184.627	1.45	Lose2	0.9473999999999999	n/a	Yes	2.721	n/a	5.0	GoodResponse	0	0.029	183.656	5	18	Feedback	AvoidedLoss	True
186.081	2.721	Lose2	0.9473999999999999	n/a	Yes	2.721	n/a	n/a	GoodResponse	0	0.0	n/a	5	18	ISIslide	AvoidedLoss	True
188.823	0.25	Control	0.9	0.0	No	2.927	0.023	n/a	LatePress	0	n/a	n/a	5	19	Cue	Neutral	True
189.074	3.95	Control	0.9	0.0	No	2.927	0.001	n/a	LatePress	0	n/a	n/a	5	19	Fixation	Neutral	True
193.019	0.21	Control	0.9	0.004	No	2.927	-0.004	3.0	LatePress	0	0.21	192.229	5	19	Target	Neutral	True
193.229	0.3	Control	0.9	0.004	No	2.927	-0.004	3.0	LatePress	0	0.21	n/a	5	19	ButtonPress	Neutral	True
193.236	0.49	Control	0.9	n/a	No	2.927	n/a	n/a	LatePress	0	n/a	n/a	5	19	Blank	Neutral	True
193.721	1.45	Control	0.9	n/a	No	2.927	n/a	5.0	LatePress	0	0.008	192.729	5	19	Feedback	Neutral	True
195.175	2.927	Control	0.9	n/a	No	2.927	n/a	n/a	LatePress	0	0.0	n/a	5	19	ISIslide	Neutral	True
198.117	0.25	Control	0.8571	0.0	No	2.633	0.017	n/a	NoResponse	0	n/a	n/a	5	20	Cue	Neutral	True
198.368	4.05	Control	0.8571	0.0	No	2.633	0.001	n/a	NoResponse	0	n/a	n/a	5	20	Fixation	Neutral	True
202.413	0.2	Control	0.8571	0.004	No	2.633	-0.004	3.0	NoResponse	0	0.322	201.735	5	20	Target	Neutral	True
202.614	0.5	Control	0.8571	n/a	No	2.633	n/a	n/a	NoResponse	0	n/a	n/a	5	20	Blank	Neutral	True
202.735	0.3	Control	0.8571	0.004	No	2.633	-0.004	3.0	NoResponse	0	0.322	n/a	5	20	ButtonPress	Neutral	True
203.116	1.45	Control	0.8571	n/a	No	2.633	n/a	5.0	NoResponse	0	0.027	202.143	5	20	Feedback	Neutral	True
204.57	2.633	Control	0.8571	n/a	No	2.633	n/a	n/a	NoResponse	0	0.0	n/a	5	20	ISIslide	Neutral	True
207.228	0.25	Control	0.8181999999999999	0.0	No	2.772	0.028	n/a	NoResponse	0	n/a	n/a	5	21	Cue	Neutral	True
207.479	4.1	Control	0.8181999999999999	0.0	No	2.772	0.001	n/a	NoResponse	0	n/a	n/a	5	21	Fixation	Neutral	True
211.574	0.19	Control	0.8181999999999999	0.004	No	2.772	-0.004	3.0	NoResponse	0	0.218	210.792	5	21	Target	Neutral	True
211.775	0.51	Control	0.8181999999999999	n/a	No	2.772	n/a	n/a	NoResponse	0	n/a	n/a	5	21	Blank	Neutral	True
211.792	0.3	Control	0.8181999999999999	0.004	No	2.772	-0.004	3.0	NoResponse	0	0.218	n/a	5	21	ButtonPress	Neutral	True
212.276	1.45	Control	0.8181999999999999	n/a	No	2.772	n/a	5.0	NoResponse	0	0.038	211.314	5	21	Feedback	Neutral	True
213.731	2.772	Control	0.8181999999999999	n/a	No	2.772	n/a	n/a	NoResponse	0	0.0	n/a	5	21	ISIslide	Neutral	True
216.522	0.25	Control	0.7826000000000001	0.0	No	2.778	0.022	n/a	NoResponse	0	n/a	n/a	5	22	Cue	Neutral	True
216.773	4.0	Control	0.7826000000000001	0.0	No	2.778	0.001	n/a	NoResponse	0	n/a	n/a	5	22	Fixation	Neutral	True
220.768	0.18	Control	0.7826000000000001	0.004	No	2.778	-0.004	3.0	NoResponse	0	0.221	219.989	5	22	Target	Neutral	True
220.952	0.52	Control	0.7826000000000001	n/a	No	2.778	n/a	n/a	NoResponse	0	n/a	n/a	5	22	Blank	Neutral	True
220.989	0.3	Control	0.7826000000000001	0.004	No	2.778	-0.004	3.0	NoResponse	0	0.221	n/a	5	22	ButtonPress	Neutral	True
221.47	1.45	Control	0.7826000000000001	n/a	No	2.778	n/a	5.0	NoResponse	0	0.014	220.484	5	22	Feedback	Neutral	True
222.925	2.778	Control	0.7826000000000001	n/a	No	2.778	n/a	n/a	NoResponse	0	0.0	n/a	5	22	ISIslide	Neutral	True
225.716	0.25	Control	0.75	0.0	No	2.784	0.016	n/a	NoResponse	0	n/a	n/a	5	23	Cue	Neutral	True
225.967	3.9	Control	0.75	0.0	No	2.784	0.001	n/a	NoResponse	0	n/a	n/a	5	23	Fixation	Neutral	True
229.862	0.17	Control	0.75	0.004	No	2.784	-0.004	3.0	NoResponse	0	0.24	229.102	5	23	Target	Neutral	True
230.046	0.53	Control	0.75	n/a	No	2.784	n/a	n/a	NoResponse	0	n/a	n/a	5	23	Blank	Neutral	True
230.102	0.3	Control	0.75	0.004	No	2.784	-0.004	3.0	NoResponse	0	0.24	n/a	5	23	ButtonPress	Neutral	True
230.564	1.45	Control	0.75	n/a	No	2.784	n/a	5.0	NoResponse	0	0.043	229.607	5	23	Feedback	Neutral	True
232.019	2.784	Control	0.75	n/a	No	2.784	n/a	n/a	NoResponse	0	0.0	n/a	5	23	ISIslide	Neutral	True
234.827	0.25	Win2	0.72	0.0	No	3.123	0.027	n/a	NoResponse	0	n/a	n/a	5	24	Cue	MissedWin	True
235.078	3.95	Win2	0.72	0.0	No	3.123	0.001	n/a	NoResponse	0	n/a	n/a	5	24	Fixation	MissedWin	True
239.023	0.16	Win2	0.72	0.004	No	3.123	-0.004	3.0	NoResponse	0	0.175	238.198	5	24	Target	MissedWin	True
239.19	0.54	Win2	0.72	n/a	No	3.123	n/a	n/a	NoResponse	0	n/a	n/a	5	24	Blank	MissedWin	True
239.198	0.3	Win2	0.72	0.004	No	3.123	-0.004	3.0	NoResponse	0	0.175	n/a	5	24	ButtonPress	MissedWin	True
239.725	1.45	Win2	0.72	n/a	No	3.123	n/a	5.0	NoResponse	0	0.007	238.732	5	24	Feedback	MissedWin	True
241.179	3.123	Win2	0.72	n/a	No	3.123	n/a	n/a	NoResponse	0	0.0	n/a	5	24	ISIslide	MissedWin	True
244.322	0.25	Win2	0.6923	0.0	No	3.078	0.022	n/a	PrematurePress	0	n/a	n/a	5	25	Cue	MissedWin	True
244.573	4.0	Win2	0.6923	0.0	No	3.078	0.001	n/a	PrematurePress	0	n/a	n/a	5	25	Fixation	MissedWin	True
248.568	0.15	Win2	0.6923	0.004	No	3.078	-0.004	3.0	PrematurePress	0	0.088	247.656	5	25	Target	MissedWin	True
248.656	0.3	Win2	0.6923	0.004	No	3.078	-0.004	3.0	PrematurePress	0	0.088	n/a	5	25	ButtonPress	MissedWin	True
248.718	0.55	Win2	0.6923	n/a	No	3.078	n/a	n/a	PrematurePress	0	n/a	n/a	5	25	Blank	MissedWin	True
249.27	1.45	Win2	0.6923	n/a	No	3.078	n/a	5.0	PrematurePress	0	0.019	248.289	5	25	Feedback	MissedWin	True
250.724	3.078	Win2	0.6923	n/a	No	3.078	n/a	n/a	PrematurePress	0	0.0	n/a	5	25	ISIslide	MissedWin	True
253.817	0.25	Win2	0.6667000000000001	0.0	No	2.933	0.017	n/a	PrematurePress	0	n/a	n/a	5	26	Cue	MissedWin	True
254.068	3.95	Win2	0.6667000000000001	0.0	No	2.933	0.001	n/a	PrematurePress	0	n/a	n/a	5	26	Fixation	MissedWin	True
258.013	0.15	Win2	0.6667000000000001	0.004	No	2.933	-0.004	3.0	PrematurePress	0	0.092	257.105	5	26	Target	MissedWin	True
258.105	0.3	Win2	0.6667000000000001	0.004	No	2.933	-0.004	3.0	PrematurePress	0	0.092	n/a	5	26	ButtonPress	MissedWin	True
258.163	0.55	Win2	0.6667000000000001	n/a	No	2.933	n/a	n/a	PrematurePress	0	n/a	n/a	5	26	Blank	MissedWin	True
258.715	1.45	Win2	0.6667000000000001	n/a	No	2.933	n/a	5.0	PrematurePress	0	0.037	257.752	5	26	Feedback	MissedWin	True
260.169	2.933	Win2	0.6667000000000001	n/a	No	2.933	n/a	n/a	PrematurePress	0	0.0	n/a	5	26	ISIslide	MissedWin	True
263.128	0.25	Lose2	0.6429	0.0	No	2.822	0.028	n/a	PrematurePress	-1	n/a	n/a	4	27	Cue	Loss	True
263.379	4.05	Lose2	0.6429	0.0	No	2.822	0.001	n/a	PrematurePress	-1	n/a	n/a	4	27	Fixation	Loss	True
267.424	0.15	Lose2	0.6429	0.004	No	2.822	-0.004	3.0	PrematurePress	-1	0.055	266.479	4	27	Target	Loss	True
267.479	0.3	Lose2	0.6429	0.004	No	2.822	-0.004	3.0	PrematurePress	-1	0.055	n/a	4	27	ButtonPress	Loss	True
267.575	0.55	Lose2	0.6429	n/a	No	2.822	n/a	n/a	PrematurePress	-1	n/a	n/a	4	27	Blank	Loss	True
268.126	1.45	Lose2	0.6429	n/a	No	2.822	n/a	5.0	PrematurePress	-1	0.041	267.167	4	27	Feedback	Loss	True
269.581	2.822	Lose2	0.6429	n/a	No	2.822	n/a	n/a	PrematurePress	-1	0.0	n/a	4	27	ISIslide	Loss	True
272.423	0.25	Control	0.6207	0.0	No	2.827	0.023	n/a	NoResponse	0	n/a	n/a	4	28	Cue	Neutral	True
272.673	4.05	Control	0.6207	0.0	No	2.827	0.0	n/a	NoResponse	0	n/a	n/a	4	28	Fixation	Neutral	True
276.719	0.16	Control	0.6207	0.004	No	2.827	-0.004	2.0	NoResponse	0	0.214	275.933	4	28	Target	Neutral	True
276.886	0.54	Control	0.6207	n/a	No	2.827	n/a	n/a	NoResponse	0	n/a	n/a	4	28	Blank	Neutral	True
276.933	0.3	Control	0.6207	0.004	No	2.827	-0.004	2.0	NoResponse	0	0.214	n/a	4	28	ButtonPress	Neutral	True
277.421	1.45	Control	0.6207	n/a	No	2.827	n/a	5.0	NoResponse	0	0.013	276.434	4	28	Feedback	Neutral	True
278.875	2.827	Control	0.6207	n/a	No	2.827	n/a	n/a	NoResponse	0	0.0	n/a	4	28	ISIslide	Neutral	True
281.717	0.25	Lose2	0.6	0.0	No	2.833	0.017	n/a	NoResponse	-1	n/a	n/a	3	29	Cue	Loss	True
281.968	3.95	Lose2	0.6	0.0	No	2.833	0.001	n/a	NoResponse	-1	n/a	n/a	3	29	Fixation	Loss	True
285.913	0.17	Lose2	0.6	0.004	No	2.833	-0.004	3.0	NoResponse	-1	0.234	285.147	3	29	Target	Loss	True
286.097	0.53	Lose2	0.6	n/a	No	2.833	n/a	n/a	NoResponse	-1	n/a	n/a	3	29	Blank	Loss	True
286.147	0.3	Lose2	0.6	0.004	No	2.833	-0.004	3.0	NoResponse	-1	0.234	n/a	3	29	ButtonPress	Loss	True
286.615	1.45	Lose2	0.6	n/a	No	2.833	n/a	5.0	NoResponse	-1	0.039	285.654	3	29	Feedback	Loss	True
288.069	2.833	Lose2	0.6	n/a	No	2.833	n/a	n/a	NoResponse	-1	0.0	n/a	3	29	ISIslide	Loss	True
290.928	0.25	Win2	0.5806	0.0	No	2.772	0.028	n/a	NoResponse	0	n/a	n/a	3	30	Cue	MissedWin	True
291.179	3.9	Win2	0.5806	0.0	No	2.772	0.001	n/a	NoResponse	0	n/a	n/a	3	30	Fixation	MissedWin	True
295.074	0.18	Win2	0.5806	0.004	No	2.772	-0.004	3.0	NoResponse	0	0.246	294.32	3	30	Target	MissedWin	True
295.257	0.52	Win2	0.5806	n/a	No	2.772	n/a	n/a	NoResponse	0	n/a	n/a	3	30	Blank	MissedWin	True
295.32	0.3	Win2	0.5806	0.004	No	2.772	-0.004	3.0	NoResponse	0	0.246	n/a	3	30	ButtonPress	MissedWin	True
295.776	1.45	Win2	0.5806	n/a	No	2.772	n/a	5.0	NoResponse	0	0.0	294.776	3	30	Feedback	MissedWin	True
297.23	2.772	Win2	0.5806	n/a	No	2.772	n/a	n/a	NoResponse	0	0.0	n/a	3	30	ISIslide	MissedWin	True
300.022	0.25	Lose2	0.5625	0.0	No	2.828	0.022	n/a	NoResponse	-1	n/a	n/a	2	31	Cue	Loss	True
300.272	4.05	Lose2	0.5625	0.0	No	2.828	0.0	n/a	NoResponse	-1	n/a	n/a	2	31	Fixation	Loss	True
304.318	0.19	Lose2	0.5625	0.004	No	2.828	-0.004	2.0	NoResponse	-1	0.316	303.634	2	31	Target	Loss	True
304.518	0.51	Lose2	0.5625	n/a	No	2.828	n/a	n/a	NoResponse	-1	n/a	n/a	2	31	Blank	Loss	True
304.634	0.3	Lose2	0.5625	0.004	No	2.828	-0.004	2.0	NoResponse	-1	0.316	n/a	2	31	ButtonPress	Loss	True
305.02	1.45	Lose2	0.5625	n/a	No	2.828	n/a	5.0	NoResponse	-1	0.024	304.044	2	31	Feedback	Loss	True
306.474	2.828	Lose2	0.5625	n/a	No	2.828	n/a	n/a	NoResponse	-1	0.0	n/a	2	31	ISIslide	Loss	True
309.316	0.25	Lose2	0.5455	0.0	No	2.634	0.016	n/a	NoResponse	-1	n/a	n/a	1	32	Cue	Loss	True
309.567	4.15	Lose2	0.5455	0.0	No	2.634	0.001	2.0	NoResponse	-1	3.905	312.472	1	32	Fixation	Loss	True
313.472	0.3	Lose2	0.5455	0.0	No	2.634	0.001	2.0	NoResponse	-1	3.905	n/a	1	32	ButtonPress	Loss	True
313.713	0.2	Lose2	0.5455	0.003	No	2.634	-0.003	n/a	NoResponse	-1	n/a	n/a	1	32	Target	Loss	True
313.913	0.5	Lose2	0.5455	n/a	No	2.634	n/a	n/a	NoResponse	-1	n/a	n/a	1	32	Blank	Loss	True
314.415	1.45	Lose2	0.5455	n/a	No	2.634	n/a	5.0	NoResponse	-1	0.043	313.458	1	32	Feedback	Loss	True
315.869	2.634	Lose2	0.5455	n/a	No	2.634	n/a	n/a	NoResponse	-1	0.0	n/a	1	32	ISIslide	Loss	True
318.527	0.25	Win2	0.5294	0.0	No	2.673	0.027	n/a	LatePress	0	n/a	n/a	1	33	Cue	MissedWin	True
318.778	4.0	Win2	0.5294	0.0	No	2.673	0.001	n/a	LatePress	0	n/a	n/a	1	33	Fixation	MissedWin	True
322.773	0.21	Win2	0.5294	0.004	No	2.673	-0.004	2.0	LatePress	0	0.215	321.988	1	33	Target	MissedWin	True
322.988	0.3	Win2	0.5294	0.004	No	2.673	-0.004	2.0	LatePress	0	0.215	n/a	1	33	ButtonPress	MissedWin	True
322.99	0.49	Win2	0.5294	n/a	No	2.673	n/a	n/a	LatePress	0	n/a	n/a	1	33	Blank	MissedWin	True
323.475	1.45	Win2	0.5294	n/a	No	2.673	n/a	5.0	LatePress	0	0.008	322.483	1	33	Feedback	MissedWin	True
324.929	2.673	Win2	0.5294	n/a	No	2.673	n/a	n/a	LatePress	0	0.0	n/a	1	33	ISIslide	MissedWin	True
327.621	0.25	Lose2	0.5428999999999999	0.0	Yes	2.629	0.021	n/a	GoodResponse	0	n/a	n/a	1	34	Cue	AvoidedLoss	True
327.872	4.05	Lose2	0.5428999999999999	0.0	Yes	2.629	0.001	n/a	GoodResponse	0	n/a	n/a	1	34	Fixation	AvoidedLoss	True
331.917	0.22	Lose2	0.5428999999999999	0.004	Yes	2.629	-0.004	2.0	GoodResponse	0	0.217	331.134	1	34	Target	AvoidedLoss	True
332.134	0.3	Lose2	0.5428999999999999	0.004	Yes	2.629	-0.004	2.0	GoodResponse	0	0.217	n/a	1	34	ButtonPress	AvoidedLoss	True
332.151	0.48	Lose2	0.5428999999999999	n/a	Yes	2.629	n/a	n/a	GoodResponse	0	n/a	n/a	1	34	Blank	AvoidedLoss	True
332.619	1.45	Lose2	0.5428999999999999	n/a	Yes	2.629	n/a	5.0	GoodResponse	0	0.034	331.653	1	34	Feedback	AvoidedLoss	True
334.073	2.629	Lose2	0.5428999999999999	n/a	Yes	2.629	n/a	n/a	GoodResponse	0	0.0	n/a	1	34	ISIslide	AvoidedLoss	True
336.731	0.25	Lose2	0.5556	0.0	Yes	2.669	0.031	n/a	GoodResponse	0	n/a	n/a	1	35	Cue	AvoidedLoss	True
336.982	4.0	Lose2	0.5556	0.0	Yes	2.669	0.001	n/a	GoodResponse	0	n/a	n/a	1	35	Fixation	AvoidedLoss	True
340.977	0.23	Lose2	0.5556	0.004	Yes	2.669	-0.004	2.0	GoodResponse	0	0.18	340.157	1	35	Target	AvoidedLoss	True
341.157	0.3	Lose2	0.5556	0.004	Yes	2.669	-0.004	2.0	GoodResponse	0	0.18	n/a	1	35	ButtonPress	AvoidedLoss	True
341.211	0.47	Lose2	0.5556	n/a	Yes	2.669	n/a	n/a	GoodResponse	0	n/a	n/a	1	35	Blank	AvoidedLoss	True
341.679	1.45	Lose2	0.5556	n/a	Yes	2.669	n/a	5.0	GoodResponse	0	0.048	340.727	1	35	Feedback	AvoidedLoss	True
343.134	2.669	Lose2	0.5556	n/a	Yes	2.669	n/a	n/a	GoodResponse	0	0.0	n/a	1	35	ISIslide	AvoidedLoss	True
345.825	0.25	Control	0.5405	0.0	No	2.675	0.025	n/a	NoResponse	0	n/a	n/a	1	36	Cue	Neutral	True
346.076	4.0	Control	0.5405	0.0	No	2.675	0.001	2.0	NoResponse	0	3.532	348.608	1	36	Fixation	Neutral	True
349.608	0.3	Control	0.5405	0.0	No	2.675	0.001	2.0	NoResponse	0	3.532	n/a	1	36	ButtonPress	Neutral	True
350.071	0.24	Control	0.5405	0.004	No	2.675	-0.004	n/a	NoResponse	0	n/a	n/a	1	36	Target	Neutral	True
350.322	0.46	Control	0.5405	n/a	No	2.675	n/a	n/a	NoResponse	0	n/a	n/a	1	36	Blank	Neutral	True
350.773	1.45	Control	0.5405	n/a	No	2.675	n/a	5.0	NoResponse	0	0.026	349.799	1	36	Feedback	Neutral	True
352.228	2.675	Control	0.5405	n/a	No	2.675	n/a	n/a	NoResponse	0	0.0	n/a	1	36	ISIslide	Neutral	True
354.919	0.25	Win2	0.5526	0.0	Yes	2.881	0.019	n/a	GoodResponse	1	n/a	n/a	2	37	Cue	Win	True
355.17	4.0	Win2	0.5526	0.0	Yes	2.881	0.001	n/a	GoodResponse	1	n/a	n/a	2	37	Fixation	Win	True
359.165	0.25	Win2	0.5526	0.004	Yes	2.881	-0.004	2.0	GoodResponse	1	0.202	358.367	2	37	Target	Win	True
359.367	0.3	Win2	0.5526	0.004	Yes	2.881	-0.004	2.0	GoodResponse	1	0.202	n/a	2	37	ButtonPress	Win	True
359.416	0.45	Win2	0.5526	n/a	Yes	2.881	n/a	n/a	GoodResponse	1	n/a	n/a	2	37	Blank	Win	True
359.867	1.45	Win2	0.5526	n/a	Yes	2.881	n/a	5.0	GoodResponse	1	0.006	358.873	2	37	Feedback	Win	True
361.321	2.881	Win2	0.5526	n/a	Yes	2.881	n/a	n/a	GoodResponse	1	0.0	n/a	2	37	ISIslide	Win	True
364.23	0.25	Lose2	0.5640999999999999	0.0	Yes	2.82	0.03	n/a	GoodResponse	0	n/a	n/a	2	38	Cue	AvoidedLoss	True
364.481	3.95	Lose2	0.5640999999999999	0.0	Yes	2.82	0.001	n/a	GoodResponse	0	n/a	n/a	2	38	Fixation	AvoidedLoss	True
368.426	0.26	Lose2	0.5640999999999999	0.004	Yes	2.82	-0.004	2.0	GoodResponse	0	0.192	367.618	2	38	Target	AvoidedLoss	True
368.618	0.3	Lose2	0.5640999999999999	0.004	Yes	2.82	-0.004	2.0	GoodResponse	0	0.192	n/a	2	38	ButtonPress	AvoidedLoss	True
368.693	0.44	Lose2	0.5640999999999999	n/a	Yes	2.82	n/a	n/a	GoodResponse	0	n/a	n/a	2	38	Blank	AvoidedLoss	True
369.128	1.45	Lose2	0.5640999999999999	n/a	Yes	2.82	n/a	5.0	GoodResponse	0	0.013	368.141	2	38	Feedback	AvoidedLoss	True
370.582	2.82	Lose2	0.5640999999999999	n/a	Yes	2.82	n/a	n/a	GoodResponse	0	0.0	n/a	2	38	ISIslide	AvoidedLoss	True
373.424	0.25	Win2	0.575	0.0	Yes	2.976	0.024	n/a	GoodResponse	1	n/a	n/a	3	39	Cue	Win	True
373.675	4.1	Win2	0.575	0.0	Yes	2.976	0.001	n/a	GoodResponse	1	n/a	n/a	3	39	Fixation	Win	True
377.771	0.27	Win2	0.575	0.003	Yes	2.976	-0.003	2.0	GoodResponse	1	0.212	376.983	3	39	Target	Win	True
377.983	0.3	Win2	0.575	0.003	Yes	2.976	-0.003	2.0	GoodResponse	1	0.212	n/a	3	39	ButtonPress	Win	True
378.055	0.43	Win2	0.575	n/a	Yes	2.976	n/a	n/a	GoodResponse	1	n/a	n/a	3	39	Blank	Win	True
378.473	1.45	Win2	0.575	n/a	Yes	2.976	n/a	5.0	GoodResponse	1	0.034	377.507	3	39	Feedback	Win	True
379.927	2.976	Win2	0.575	n/a	Yes	2.976	n/a	n/a	GoodResponse	1	0.0	n/a	3	39	ISIslide	Win	True
382.919	0.25	Win2	0.5854	0.0	Yes	2.731	0.019	n/a	GoodResponse	1	n/a	n/a	4	40	Cue	Win	True
383.17	3.95	Win2	0.5854	0.0	Yes	2.731	0.001	n/a	GoodResponse	1	n/a	n/a	4	40	Fixation	Win	True
387.115	0.28	Win2	0.5854	0.004	Yes	2.731	-0.004	2.0	GoodResponse	1	0.215	386.33	4	40	Target	Win	True
387.33	0.3	Win2	0.5854	0.004	Yes	2.731	-0.004	2.0	GoodResponse	1	0.215	n/a	4	40	ButtonPress	Win	True
387.399	0.42	Win2	0.5854	n/a	Yes	2.731	n/a	n/a	GoodResponse	1	n/a	n/a	4	40	Blank	Win	True
387.817	1.45	Win2	0.5854	n/a	Yes	2.731	n/a	5.0	GoodResponse	1	0.007	386.824	4	40	Feedback	Win	True
389.272	2.731	Win2	0.5854	n/a	Yes	2.731	n/a	n/a	GoodResponse	1	0.0	n/a	4	40	ISIslide	Win	True
392.03	0.25	Win2	0.5952000000000001	0.0	Yes	2.77	0.03	n/a	GoodResponse	1	n/a	n/a	5	41	Cue	Win	True
392.281	3.9	Win2	0.5952000000000001	0.0	Yes	2.77	0.001	n/a	GoodResponse	1	n/a	n/a	5	41	Fixation	Win	True
396.175	0.29	Win2	0.5952000000000001	0.005	Yes	2.77	-0.005	2.0	GoodResponse	1	0.223	395.398	5	41	Target	Win	True
396.398	0.3	Win2	0.5952000000000001	0.005	Yes	2.77	-0.005	2.0	GoodResponse	1	0.223	n/a	5	41	ButtonPress	Win	True
396.476	0.41	Win2	0.5952000000000001	n/a	Yes	2.77	n/a	n/a	GoodResponse	1	n/a	n/a	5	41	Blank	Win	True
396.878	1.45	Win2	0.5952000000000001	n/a	Yes	2.77	n/a	5.0	GoodResponse	1	0.018	395.896	5	41	Feedback	Win	True
398.332	2.77	Win2	0.5952000000000001	n/a	Yes	2.77	n/a	n/a	GoodResponse	1	0.0	n/a	5	41	ISIslide	Win	True
401.124	0.25	Control	0.6047	0.0	Yes	2.926	0.024	n/a	GoodResponse	0	n/a	n/a	5	42	Cue	Neutral	True
401.374	3.85	Control	0.6047	0.0	Yes	2.926	0.0	n/a	GoodResponse	0	n/a	n/a	5	42	Fixation	Neutral	True
405.236	0.3	Control	0.6047	0.0	Yes	2.926	0.012	2.0	GoodResponse	0	0.198	404.434	5	42	Target	Neutral	True
405.434	0.3	Control	0.6047	0.0	Yes	2.926	0.012	2.0	GoodResponse	0	0.198	n/a	5	42	ButtonPress	Neutral	True
405.52	0.4	Control	0.6047	n/a	Yes	2.926	n/a	n/a	GoodResponse	0	n/a	n/a	5	42	Blank	Neutral	True
405.921	1.45	Control	0.6047	n/a	Yes	2.926	n/a	5.0	GoodResponse	0	0.048	404.969	5	42	Feedback	Neutral	True
407.376	2.926	Control	0.6047	n/a	Yes	2.926	n/a	n/a	GoodResponse	0	0.0	n/a	5	42	ISIslide	Neutral	True
410.318	0.25	Win2	0.6136	0.0	Yes	3.182	0.018	n/a	GoodResponse	1	n/a	n/a	6	43	Cue	Win	True
410.568	4.0	Win2	0.6136	0.001	Yes	3.182	0.0	n/a	GoodResponse	1	n/a	n/a	6	43	Fixation	Win	True
414.564	0.31	Win2	0.6136	0.004	Yes	3.182	-0.004	2.0	GoodResponse	1	0.185	413.749	6	43	Target	Win	True
414.749	0.3	Win2	0.6136	0.004	Yes	3.182	-0.004	2.0	GoodResponse	1	0.185	n/a	6	43	ButtonPress	Win	True
414.881	0.39	Win2	0.6136	n/a	Yes	3.182	n/a	n/a	GoodResponse	1	n/a	n/a	6	43	Blank	Win	True
415.266	1.45	Win2	0.6136	n/a	Yes	3.182	n/a	5.0	GoodResponse	1	0.02	414.286	6	43	Feedback	Win	True
416.72	3.182	Win2	0.6136	n/a	Yes	3.182	n/a	n/a	GoodResponse	1	0.0	n/a	6	43	ISIslide	Win	True
419.93	0.25	Win2	0.6222	0.0	Yes	2.97	0.03	n/a	GoodResponse	1	n/a	n/a	7	44	Cue	Win	True
420.181	4.0	Win2	0.6222	0.0	Yes	2.97	0.001	n/a	GoodResponse	1	n/a	n/a	7	44	Fixation	Win	True
424.176	0.32	Win2	0.6222	0.004	Yes	2.97	-0.004	2.0	GoodResponse	1	0.272	423.448	7	44	Target	Win	True
424.448	0.3	Win2	0.6222	0.004	Yes	2.97	-0.004	2.0	GoodResponse	1	0.272	n/a	7	44	ButtonPress	Win	True
424.51	0.38	Win2	0.6222	n/a	Yes	2.97	n/a	n/a	GoodResponse	1	n/a	n/a	7	44	Blank	Win	True
424.878	1.45	Win2	0.6222	n/a	Yes	2.97	n/a	5.0	GoodResponse	1	0.018	423.896	7	44	Feedback	Win	True
426.332	2.97	Win2	0.6222	n/a	Yes	2.97	n/a	n/a	GoodResponse	1	0.0	n/a	7	44	ISIslide	Win	True
429.324	0.25	Control	0.6304	0.001	Yes	2.876	0.024	n/a	GoodResponse	0	n/a	n/a	7	45	Cue	Neutral	True
429.575	4.1	Control	0.6304	0.0	Yes	2.876	0.001	n/a	GoodResponse	0	n/a	n/a	7	45	Fixation	Neutral	True
433.671	0.33	Control	0.6304	0.003	Yes	2.876	-0.003	2.0	GoodResponse	0	0.201	432.872	7	45	Target	Neutral	True
433.872	0.3	Control	0.6304	0.003	Yes	2.876	-0.003	2.0	GoodResponse	0	0.201	n/a	7	45	ButtonPress	Neutral	True
434.005	0.37	Control	0.6304	n/a	Yes	2.876	n/a	n/a	GoodResponse	0	n/a	n/a	7	45	Blank	Neutral	True
434.373	1.45	Control	0.6304	n/a	Yes	2.876	n/a	5.0	GoodResponse	0	0.035	433.408	7	45	Feedback	Neutral	True
435.827	2.876	Control	0.6304	n/a	Yes	2.876	n/a	n/a	GoodResponse	0	0.0	n/a	7	45	ISIslide	Neutral	True
438.719	0.25	Lose2	0.6383	0.0	Yes	3.381	0.019	n/a	GoodResponse	0	n/a	n/a	7	46	Cue	AvoidedLoss	True
438.97	4.0	Lose2	0.6383	0.0	Yes	3.381	0.001	n/a	GoodResponse	0	n/a	n/a	7	46	Fixation	AvoidedLoss	True
442.965	0.34	Lose2	0.6383	0.004	Yes	3.381	-0.004	2.0	GoodResponse	0	0.224	442.189	7	46	Target	AvoidedLoss	True
443.189	0.3	Lose2	0.6383	0.004	Yes	3.381	-0.004	2.0	GoodResponse	0	0.224	n/a	7	46	ButtonPress	AvoidedLoss	True
443.316	0.36	Lose2	0.6383	n/a	Yes	3.381	n/a	n/a	GoodResponse	0	n/a	n/a	7	46	Blank	AvoidedLoss	True
443.667	1.45	Lose2	0.6383	n/a	Yes	3.381	n/a	5.0	GoodResponse	0	0.009	442.676	7	46	Feedback	AvoidedLoss	True
445.122	3.381	Lose2	0.6383	n/a	Yes	3.381	n/a	n/a	GoodResponse	0	0.0	n/a	7	46	ISIslide	AvoidedLoss	True
448.515	0.25	Lose2	0.6457999999999999	0.0	Yes	2.685	0.015	n/a	GoodResponse	0	n/a	n/a	7	47	Cue	AvoidedLoss	True
448.766	4.0	Lose2	0.6457999999999999	0.0	Yes	2.685	0.001	n/a	GoodResponse	0	n/a	n/a	7	47	Fixation	AvoidedLoss	True
452.761	0.35	Lose2	0.6457999999999999	0.004	Yes	2.685	-0.004	2.0	GoodResponse	0	0.216	451.977	7	47	Target	AvoidedLoss	True
452.977	0.3	Lose2	0.6457999999999999	0.004	Yes	2.685	-0.004	2.0	GoodResponse	0	0.216	n/a	7	47	ButtonPress	AvoidedLoss	True
453.112	0.35	Lose2	0.6457999999999999	n/a	Yes	2.685	n/a	n/a	GoodResponse	0	n/a	n/a	7	47	Blank	AvoidedLoss	True
453.463	1.45	Lose2	0.6457999999999999	n/a	Yes	2.685	n/a	5.0	GoodResponse	0	0.018	452.481	7	47	Feedback	AvoidedLoss	True
454.918	2.685	Lose2	0.6457999999999999	n/a	Yes	2.685	n/a	n/a	GoodResponse	0	0.0	n/a	7	47	ISIslide	AvoidedLoss	True
457.626	0.25	Lose2	0.6531	0.0	Yes	3.024	0.026	n/a	GoodResponse	0	n/a	n/a	7	48	Cue	AvoidedLoss	True
457.876	3.95	Lose2	0.6531	0.001	Yes	3.024	0.0	n/a	GoodResponse	0	n/a	n/a	7	48	Fixation	AvoidedLoss	True
461.822	0.36	Lose2	0.6531	0.004	Yes	3.024	-0.004	2.0	GoodResponse	0	0.202	461.024	7	48	Target	AvoidedLoss	True
462.024	0.3	Lose2	0.6531	0.004	Yes	3.024	-0.004	2.0	GoodResponse	0	0.202	n/a	7	48	ButtonPress	AvoidedLoss	True
462.189	0.34	Lose2	0.6531	n/a	Yes	3.024	n/a	n/a	GoodResponse	0	n/a	n/a	7	48	Blank	AvoidedLoss	True
462.524	1.45	Lose2	0.6531	n/a	Yes	3.024	n/a	5.0	GoodResponse	0	0.03	461.554	7	48	Feedback	AvoidedLoss	True
463.978	3.024	Lose2	0.6531	n/a	Yes	3.024	n/a	n/a	GoodResponse	0	0.0	n/a	7	48	ISIslide	AvoidedLoss	True
467.02	0.25	Control	0.66	0.001	Yes	2.88	0.02	n/a	GoodResponse	0	n/a	n/a	7	49	Cue	Neutral	True
467.271	4.0	Control	0.66	0.0	Yes	2.88	0.001	n/a	GoodResponse	0	n/a	n/a	7	49	Fixation	Neutral	True
471.266	0.37	Control	0.66	0.004	Yes	2.88	-0.004	2.0	GoodResponse	0	0.28	470.546	7	49	Target	Neutral	True
471.546	0.3	Control	0.66	0.004	Yes	2.88	-0.004	2.0	GoodResponse	0	0.28	n/a	7	49	ButtonPress	Neutral	True
471.651	0.33	Control	0.66	n/a	Yes	2.88	n/a	n/a	GoodResponse	0	n/a	n/a	7	49	Blank	Neutral	True
471.969	1.45	Control	0.66	n/a	Yes	2.88	n/a	5.0	GoodResponse	0	0.048	471.017	7	49	Feedback	Neutral	True
473.423	2.88	Control	0.66	n/a	Yes	2.88	n/a	n/a	GoodResponse	0	0.0	n/a	7	49	ISIslide	Neutral	True
476.315	0.25	Control	0.6667000000000001	0.0	Yes	2.785	0.015	n/a	GoodResponse	0	n/a	n/a	7	50	Cue	Neutral	True
476.566	4.0	Control	0.6667000000000001	0.0	Yes	2.785	0.001	n/a	GoodResponse	0	n/a	n/a	7	50	Fixation	Neutral	True
480.561	0.37	Control	0.6667000000000001	0.004	Yes	2.785	-0.004	2.0	GoodResponse	0	0.21	479.771	7	50	Target	Neutral	True
480.771	0.3	Control	0.6667000000000001	0.004	Yes	2.785	-0.004	2.0	GoodResponse	0	0.21	n/a	7	50	ButtonPress	Neutral	True
480.945	0.33	Control	0.6667000000000001	n/a	Yes	2.785	n/a	n/a	GoodResponse	0	n/a	n/a	7	50	Blank	Neutral	True
481.263	1.45	Control	0.6667000000000001	n/a	Yes	2.785	n/a	5.0	GoodResponse	0	0.022	480.285	7	50	Feedback	Neutral	True
482.717	2.785	Control	0.6667000000000001	n/a	Yes	2.785	n/a	n/a	GoodResponse	0	0.0	n/a	7	50	ISIslide	Neutral	True
485.526	0.25	Control	0.6731	0.0	Yes	2.724	0.026	n/a	GoodResponse	0	n/a	n/a	7	51	Cue	Neutral	True
485.776	3.95	Control	0.6731	0.001	Yes	2.724	0.0	n/a	GoodResponse	0	n/a	n/a	7	51	Fixation	Neutral	True
489.722	0.36	Control	0.6731	0.004	Yes	2.724	-0.004	2.0	GoodResponse	0	0.216	488.938	7	51	Target	Neutral	True
489.938	0.3	Control	0.6731	0.004	Yes	2.724	-0.004	2.0	GoodResponse	0	0.216	n/a	7	51	ButtonPress	Neutral	True
490.089	0.34	Control	0.6731	n/a	Yes	2.724	n/a	n/a	GoodResponse	0	n/a	n/a	7	51	Blank	Neutral	True
490.424	1.45	Control	0.6731	n/a	Yes	2.724	n/a	5.0	GoodResponse	0	0.032	489.456	7	51	Feedback	Neutral	True
491.878	2.724	Control	0.6731	n/a	Yes	2.724	n/a	n/a	GoodResponse	0	0.0	n/a	7	51	ISIslide	Neutral	True
494.619	0.25	Control	0.6604000000000001	0.001	No	2.631	0.019	n/a	NoResponse	0	n/a	n/a	7	52	Cue	Neutral	True
494.87	4.05	Control	0.6604000000000001	0.0	No	2.631	0.001	n/a	NoResponse	0	n/a	n/a	7	52	Fixation	Neutral	True
498.916	0.35	Control	0.6604000000000001	0.003	No	2.631	-0.003	2.0	NoResponse	0	0.428	498.344	7	52	Target	Neutral	True
499.267	0.35	Control	0.6604000000000001	n/a	No	2.631	n/a	n/a	NoResponse	0	n/a	n/a	7	52	Blank	Neutral	True
499.344	0.3	Control	0.6604000000000001	0.003	No	2.631	-0.003	2.0	NoResponse	0	0.428	n/a	7	52	ButtonPress	Neutral	True
499.618	1.45	Control	0.6604000000000001	n/a	No	2.631	n/a	5.0	NoResponse	0	0.009	498.627	7	52	Feedback	Neutral	True
501.072	2.631	Control	0.6604000000000001	n/a	No	2.631	n/a	n/a	NoResponse	0	0.0	n/a	7	52	ISIslide	Neutral	True
503.73	0.25	Win2	0.6667000000000001	0.0	Yes	2.92	0.03	n/a	GoodResponse	1	n/a	n/a	8	53	Cue	Win	True
503.981	4.05	Win2	0.6667000000000001	0.0	Yes	2.92	0.001	n/a	GoodResponse	1	n/a	n/a	8	53	Fixation	Win	True
508.026	0.35	Win2	0.6667000000000001	0.004	Yes	2.92	-0.004	2.0	GoodResponse	1	0.229	507.255	8	53	Target	Win	True
508.255	0.3	Win2	0.6667000000000001	0.004	Yes	2.92	-0.004	2.0	GoodResponse	1	0.229	n/a	8	53	ButtonPress	Win	True
508.377	0.35	Win2	0.6667000000000001	n/a	Yes	2.92	n/a	n/a	GoodResponse	1	n/a	n/a	8	53	Blank	Win	True
508.728	1.45	Win2	0.6667000000000001	n/a	Yes	2.92	n/a	5.0	GoodResponse	1	0.02	507.748	8	53	Feedback	Win	True
510.183	2.92	Win2	0.6667000000000001	n/a	Yes	2.92	n/a	n/a	GoodResponse	1	0.0	n/a	8	53	ISIslide	Win	True
513.125	0.25	Win2	0.6727	0.0	Yes	2.725	0.025	n/a	GoodResponse	1	n/a	n/a	9	54	Cue	Win	True
513.375	3.95	Win2	0.6727	0.001	Yes	2.725	0.0	n/a	GoodResponse	1	n/a	n/a	9	54	Fixation	Win	True
517.321	0.34	Win2	0.6727	0.004	Yes	2.725	-0.004	2.0	GoodResponse	1	0.192	516.513	9	54	Target	Win	True
517.513	0.3	Win2	0.6727	0.004	Yes	2.725	-0.004	2.0	GoodResponse	1	0.192	n/a	9	54	ButtonPress	Win	True
517.672	0.36	Win2	0.6727	n/a	Yes	2.725	n/a	n/a	GoodResponse	1	n/a	n/a	9	54	Blank	Win	True
518.023	1.45	Win2	0.6727	n/a	Yes	2.725	n/a	5.0	GoodResponse	1	0.042	517.065	9	54	Feedback	Win	True
519.477	2.725	Win2	0.6727	n/a	Yes	2.725	n/a	n/a	GoodResponse	1	0.0	n/a	9	54	ISIslide	Win	True
522.219	0.25	Control	0.6786	0.0	Yes	3.031	0.019	n/a	GoodResponse	0	n/a	n/a	9	55	Cue	Neutral	True
522.469	3.95	Control	0.6786	0.0	Yes	3.031	0.0	n/a	GoodResponse	0	n/a	n/a	9	55	Fixation	Neutral	True
526.414	0.33	Control	0.6786	0.005	Yes	3.031	-0.005	2.0	GoodResponse	0	0.22	525.634	9	55	Target	Neutral	True
526.634	0.3	Control	0.6786	0.005	Yes	3.031	-0.005	2.0	GoodResponse	0	0.22	n/a	9	55	ButtonPress	Neutral	True
526.749	0.37	Control	0.6786	n/a	Yes	3.031	n/a	n/a	GoodResponse	0	n/a	n/a	9	55	Blank	Neutral	True
527.117	1.45	Control	0.6786	n/a	Yes	3.031	n/a	5.0	GoodResponse	0	0.021	526.138	9	55	Feedback	Neutral	True
528.571	3.031	Control	0.6786	n/a	Yes	3.031	n/a	n/a	GoodResponse	0	0.0	n/a	9	55	ISIslide	Neutral	True
531.63	0.25	Control	0.6842	0.0	Yes	2.82	0.03	n/a	GoodResponse	0	n/a	n/a	9	56	Cue	Neutral	True
531.881	3.95	Control	0.6842	0.0	Yes	2.82	0.001	n/a	GoodResponse	0	n/a	n/a	9	56	Fixation	Neutral	True
535.826	0.32	Control	0.6842	0.004	Yes	2.82	-0.004	2.0	GoodResponse	0	0.194	535.02	9	56	Target	Neutral	True
536.02	0.3	Control	0.6842	0.004	Yes	2.82	-0.004	2.0	GoodResponse	0	0.194	n/a	9	56	ButtonPress	Neutral	True
536.16	0.38	Control	0.6842	n/a	Yes	2.82	n/a	n/a	GoodResponse	0	n/a	n/a	9	56	Blank	Neutral	True
536.528	1.45	Control	0.6842	n/a	Yes	2.82	n/a	5.0	GoodResponse	0	0.025	535.553	9	56	Feedback	Neutral	True
537.982	2.82	Control	0.6842	n/a	Yes	2.82	n/a	n/a	GoodResponse	0	0.0	n/a	9	56	ISIslide	Neutral	True
540.824	0.25	Control	0.6897	0.0	Yes	3.476	0.024	n/a	GoodResponse	0	n/a	n/a	9	57	Cue	Neutral	True
541.075	4.0	Control	0.6897	0.0	Yes	3.476	0.001	n/a	GoodResponse	0	n/a	n/a	9	57	Fixation	Neutral	True
545.07	0.31	Control	0.6897	0.004	Yes	3.476	-0.004	2.0	GoodResponse	0	0.204	544.274	9	57	Target	Neutral	True
545.274	0.3	Control	0.6897	0.004	Yes	3.476	-0.004	2.0	GoodResponse	0	0.204	n/a	9	57	ButtonPress	Neutral	True
545.388	0.39	Control	0.6897	n/a	Yes	3.476	n/a	n/a	GoodResponse	0	n/a	n/a	9	57	Blank	Neutral	True
545.772	1.45	Control	0.6897	n/a	Yes	3.476	n/a	5.0	GoodResponse	0	0.048	544.82	9	57	Feedback	Neutral	True
547.227	3.476	Control	0.6897	n/a	Yes	3.476	n/a	n/a	GoodResponse	0	0.0	n/a	9	57	ISIslide	Neutral	True
550.72	0.25	Win2	0.6949	0.0	Yes	2.73	0.02	n/a	GoodResponse	1	n/a	n/a	10	58	Cue	Win	True
550.971	4.05	Win2	0.6949	0.0	Yes	2.73	0.001	n/a	GoodResponse	1	n/a	n/a	10	58	Fixation	Win	True
555.017	0.3	Win2	0.6949	0.003	Yes	2.73	-0.003	2.0	GoodResponse	1	0.18	554.197	10	58	Target	Win	True
555.197	0.3	Win2	0.6949	0.003	Yes	2.73	-0.003	2.0	GoodResponse	1	0.18	n/a	10	58	ButtonPress	Win	True
555.317	0.4	Win2	0.6949	n/a	Yes	2.73	n/a	n/a	GoodResponse	1	n/a	n/a	10	58	Blank	Win	True
555.719	1.45	Win2	0.6949	n/a	Yes	2.73	n/a	5.0	GoodResponse	1	0.006	554.725	10	58	Feedback	Win	True
557.173	2.73	Win2	0.6949	n/a	Yes	2.73	n/a	n/a	GoodResponse	1	0.0	n/a	10	58	ISIslide	Win	True
559.931	0.25	Lose2	0.7	0.0	Yes	2.669	0.031	n/a	GoodResponse	0	n/a	n/a	10	59	Cue	AvoidedLoss	True
560.182	4.0	Lose2	0.7	0.0	Yes	2.669	0.001	n/a	GoodResponse	0	n/a	n/a	10	59	Fixation	AvoidedLoss	True
564.177	0.29	Lose2	0.7	0.004	Yes	2.669	-0.004	2.0	GoodResponse	0	0.205	563.382	10	59	Target	AvoidedLoss	True
564.382	0.3	Lose2	0.7	0.004	Yes	2.669	-0.004	2.0	GoodResponse	0	0.205	n/a	10	59	ButtonPress	AvoidedLoss	True
564.478	0.41	Lose2	0.7	n/a	Yes	2.669	n/a	n/a	GoodResponse	0	n/a	n/a	10	59	Blank	AvoidedLoss	True
564.879	1.45	Lose2	0.7	n/a	Yes	2.669	n/a	5.0	GoodResponse	0	0.015	563.894	10	59	Feedback	AvoidedLoss	True
566.334	2.669	Lose2	0.7	n/a	Yes	2.669	n/a	n/a	GoodResponse	0	0.0	n/a	10	59	ISIslide	AvoidedLoss	True
569.025	0.25	Control	0.7049	0.0	Yes	2.675	0.025	n/a	GoodResponse	0	n/a	n/a	10	60	Cue	Neutral	True
569.276	4.0	Control	0.7049	0.0	Yes	2.675	0.001	n/a	GoodResponse	0	n/a	n/a	10	60	Fixation	Neutral	True
573.271	0.28	Control	0.7049	0.004	Yes	2.675	-0.004	2.0	GoodResponse	0	0.204	572.475	10	60	Target	Neutral	True
573.475	0.3	Control	0.7049	0.004	Yes	2.675	-0.004	2.0	GoodResponse	0	0.204	n/a	10	60	ButtonPress	Neutral	True
573.555	0.42	Control	0.7049	n/a	Yes	2.675	n/a	n/a	GoodResponse	0	n/a	n/a	10	60	Blank	Neutral	True
573.973	1.45	Control	0.7049	n/a	Yes	2.675	n/a	5.0	GoodResponse	0	0.043	573.016	10	60	Feedback	Neutral	True
575.427	2.675	Control	0.7049	n/a	Yes	2.675	n/a	n/a	GoodResponse	0	0.0	n/a	10	60	ISIslide	Neutral	True
578.119	0.25	Lose2	0.7097	0.0	Yes	2.981	0.019	n/a	GoodResponse	0	n/a	n/a	10	61	Cue	AvoidedLoss	True
578.37	4.0	Lose2	0.7097	0.0	Yes	2.981	0.001	n/a	GoodResponse	0	n/a	n/a	10	61	Fixation	AvoidedLoss	True
582.365	0.27	Lose2	0.7097	0.004	Yes	2.981	-0.004	2.0	GoodResponse	0	0.188	581.553	10	61	Target	AvoidedLoss	True
582.553	0.3	Lose2	0.7097	0.004	Yes	2.981	-0.004	2.0	GoodResponse	0	0.188	n/a	10	61	ButtonPress	AvoidedLoss	True
582.649	0.43	Lose2	0.7097	n/a	Yes	2.981	n/a	n/a	GoodResponse	0	n/a	n/a	10	61	Blank	AvoidedLoss	True
583.067	1.45	Lose2	0.7097	n/a	Yes	2.981	n/a	5.0	GoodResponse	0	0.021	582.088	10	61	Feedback	AvoidedLoss	True
584.521	2.981	Lose2	0.7097	n/a	Yes	2.981	n/a	n/a	GoodResponse	0	0.0	n/a	10	61	ISIslide	AvoidedLoss	True
587.53	0.25	Lose2	0.7143	0.0	Yes	2.87	0.03	n/a	GoodResponse	0	n/a	n/a	10	62	Cue	AvoidedLoss	True
587.781	3.9	Lose2	0.7143	0.0	Yes	2.87	0.001	n/a	GoodResponse	0	n/a	n/a	10	62	Fixation	AvoidedLoss	True
591.676	0.26	Lose2	0.7143	0.004	Yes	2.87	-0.004	2.0	GoodResponse	0	0.194	590.87	10	62	Target	AvoidedLoss	True
591.87	0.3	Lose2	0.7143	0.004	Yes	2.87	-0.004	2.0	GoodResponse	0	0.194	n/a	10	62	ButtonPress	AvoidedLoss	True
591.943	0.44	Lose2	0.7143	n/a	Yes	2.87	n/a	n/a	GoodResponse	0	n/a	n/a	10	62	Blank	AvoidedLoss	True
592.378	1.45	Lose2	0.7143	n/a	Yes	2.87	n/a	5.0	GoodResponse	0	0.027	591.405	10	62	Feedback	AvoidedLoss	True
593.832	2.87	Lose2	0.7143	n/a	Yes	2.87	n/a	n/a	GoodResponse	0	0.0	n/a	10	62	ISIslide	AvoidedLoss	True
596.724	0.25	Lose2	0.7031000000000001	0.001	No	2.626	0.024	n/a	NoResponse	-1	n/a	n/a	9	63	Cue	Loss	True
596.975	4.05	Lose2	0.7031000000000001	0.0	No	2.626	0.001	n/a	NoResponse	-1	n/a	n/a	9	63	Fixation	Loss	True
601.021	0.25	Lose2	0.7031000000000001	0.003	No	2.626	-0.003	2.0	NoResponse	-1	0.355	600.376	9	63	Target	Loss	True
601.271	0.45	Lose2	0.7031000000000001	n/a	No	2.626	n/a	n/a	NoResponse	-1	n/a	n/a	9	63	Blank	Loss	True
601.376	0.3	Lose2	0.7031000000000001	0.003	No	2.626	-0.003	2.0	NoResponse	-1	0.355	n/a	9	63	ButtonPress	Loss	True
601.723	1.45	Lose2	0.7031000000000001	n/a	No	2.626	n/a	5.0	NoResponse	-1	0.048	600.771	9	63	Feedback	Loss	True
603.177	2.626	Lose2	0.7031000000000001	n/a	No	2.626	n/a	n/a	NoResponse	-1	0.0	n/a	9	63	ISIslide	Loss	True
605.818	0.25	Win2	0.7077	0.0	Yes	3.132	0.018	n/a	GoodResponse	1	n/a	n/a	10	64	Cue	Win	True
606.069	4.15	Win2	0.7077	0.0	Yes	3.132	0.001	n/a	GoodResponse	1	n/a	n/a	10	64	Fixation	Win	True
610.215	0.24	Win2	0.7077	0.003	Yes	3.132	-0.003	2.0	GoodResponse	1	0.182	609.397	10	64	Target	Win	True
610.397	0.3	Win2	0.7077	0.003	Yes	3.132	-0.003	2.0	GoodResponse	1	0.182	n/a	10	64	ButtonPress	Win	True
610.465	0.46	Win2	0.7077	n/a	Yes	3.132	n/a	n/a	GoodResponse	1	n/a	n/a	10	64	Blank	Win	True
610.917	1.45	Win2	0.7077	n/a	Yes	3.132	n/a	5.0	GoodResponse	1	0.025	609.942	10	64	Feedback	Win	True
612.371	3.132	Win2	0.7077	n/a	Yes	3.132	n/a	n/a	GoodResponse	1	0.0	n/a	10	64	ISIslide	Win	True
615.531	0.25	Control	0.6970000000000001	0.0	No	2.769	0.031	n/a	PrematurePress	0	n/a	n/a	10	65	Cue	Neutral	True
615.781	4.0	Control	0.6970000000000001	0.0	No	2.769	0.0	n/a	PrematurePress	0	n/a	n/a	10	65	Fixation	Neutral	True
619.777	0.23	Control	0.6970000000000001	0.004	No	2.769	-0.004	2.0	PrematurePress	0	0.052	618.829	10	65	Target	Neutral	True
619.829	0.3	Control	0.6970000000000001	0.004	No	2.769	-0.004	2.0	PrematurePress	0	0.052	n/a	10	65	ButtonPress	Neutral	True
620.011	0.47	Control	0.6970000000000001	n/a	No	2.769	n/a	n/a	PrematurePress	0	n/a	n/a	10	65	Blank	Neutral	True
620.479	1.45	Control	0.6970000000000001	n/a	No	2.769	n/a	5.0	PrematurePress	0	0.023	619.502	10	65	Feedback	Neutral	True
621.933	2.769	Control	0.6970000000000001	n/a	No	2.769	n/a	n/a	PrematurePress	0	0.0	n/a	10	65	ISIslide	Neutral	True
624.725	0.25	Win2	0.7015	0.0	Yes	2.775	0.025	n/a	GoodResponse	1	n/a	n/a	11	66	Cue	Win	True
624.975	3.9	Win2	0.7015	0.001	Yes	2.775	0.0	n/a	GoodResponse	1	n/a	n/a	11	66	Fixation	Win	True
628.887	0.22	Win2	0.7015	0.0	Yes	2.775	0.012	2.0	GoodResponse	1	0.193	628.08	11	66	Target	Win	True
629.08	0.3	Win2	0.7015	0.0	Yes	2.775	0.012	2.0	GoodResponse	1	0.193	n/a	11	66	ButtonPress	Win	True
629.104	0.48	Win2	0.7015	n/a	Yes	2.775	n/a	n/a	GoodResponse	1	n/a	n/a	11	66	Blank	Win	True
629.573	1.45	Win2	0.7015	n/a	Yes	2.775	n/a	5.0	GoodResponse	1	0.002	628.575	11	66	Feedback	Win	True
631.027	2.775	Win2	0.7015	n/a	Yes	2.775	n/a	n/a	GoodResponse	1	0.0	n/a	11	66	ISIslide	Win	True
633.819	0.25	Control	0.6912	0.0	No	2.731	0.019	n/a	NoResponse	0	n/a	n/a	11	67	Cue	Neutral	True
634.069	3.95	Control	0.6912	0.0	No	2.731	0.0	n/a	NoResponse	0	n/a	n/a	11	67	Fixation	Neutral	True
638.031	0.21	Control	0.6912	0.0	No	2.731	0.012	2.0	NoResponse	0	0.243	637.274	11	67	Target	Neutral	True
638.232	0.49	Control	0.6912	n/a	No	2.731	n/a	n/a	NoResponse	0	n/a	n/a	11	67	Blank	Neutral	True
638.274	0.3	Control	0.6912	0.0	No	2.731	0.012	2.0	NoResponse	0	0.243	n/a	11	67	ButtonPress	Neutral	True
638.717	1.45	Control	0.6912	n/a	No	2.731	n/a	5.0	NoResponse	0	0.029	637.746	11	67	Feedback	Neutral	True
640.171	2.731	Control	0.6912	n/a	No	2.731	n/a	n/a	NoResponse	0	0.0	n/a	11	67	ISIslide	Neutral	True
642.929	0.25	Win2	0.6957	0.0	Yes	3.071	0.029	n/a	GoodResponse	1	n/a	n/a	12	68	Cue	Win	True
643.18	4.0	Win2	0.6957	0.0	Yes	3.071	0.001	n/a	GoodResponse	1	n/a	n/a	12	68	Fixation	Win	True
647.175	0.2	Win2	0.6957	0.004	Yes	3.071	-0.004	2.0	GoodResponse	1	0.196	646.371	12	68	Target	Win	True
647.371	0.3	Win2	0.6957	0.004	Yes	3.071	-0.004	2.0	GoodResponse	1	0.196	n/a	12	68	ButtonPress	Win	True
647.376	0.5	Win2	0.6957	n/a	Yes	3.071	n/a	n/a	GoodResponse	1	n/a	n/a	12	68	Blank	Win	True
647.877	1.45	Win2	0.6957	n/a	Yes	3.071	n/a	5.0	GoodResponse	1	0.04	646.917	12	68	Feedback	Win	True
649.332	3.071	Win2	0.6957	n/a	Yes	3.071	n/a	n/a	GoodResponse	1	0.0	n/a	12	68	ISIslide	Win	True
652.424	0.25	Win2	0.7	0.0	Yes	3.226	0.024	n/a	GoodResponse	1	n/a	n/a	13	69	Cue	Win	True
652.675	3.95	Win2	0.7	0.0	Yes	3.226	0.001	n/a	GoodResponse	1	n/a	n/a	13	69	Fixation	Win	True
656.62	0.19	Win2	0.7	0.004	Yes	3.226	-0.004	2.0	GoodResponse	1	0.185	655.805	13	69	Target	Win	True
656.805	0.3	Win2	0.7	0.004	Yes	3.226	-0.004	2.0	GoodResponse	1	0.185	n/a	13	69	ButtonPress	Win	True
656.821	0.51	Win2	0.7	n/a	Yes	3.226	n/a	n/a	GoodResponse	1	n/a	n/a	13	69	Blank	Win	True
657.322	1.45	Win2	0.7	n/a	Yes	3.226	n/a	5.0	GoodResponse	1	0.009	656.331	13	69	Feedback	Win	True
658.776	3.226	Win2	0.7	n/a	Yes	3.226	n/a	n/a	GoodResponse	1	0.0	n/a	13	69	ISIslide	Win	True
662.019	0.25	Lose2	0.6901	0.001	No	3.031	0.019	n/a	PrematurePress	-1	n/a	n/a	12	70	Cue	Loss	True
662.27	4.05	Lose2	0.6901	0.0	No	3.031	0.001	n/a	PrematurePress	-1	n/a	n/a	12	70	Fixation	Loss	True
666.316	0.18	Lose2	0.6901	0.003	No	3.031	-0.003	2.0	PrematurePress	-1	0.041	665.357	12	70	Target	Loss	True
666.357	0.3	Lose2	0.6901	0.003	No	3.031	-0.003	2.0	PrematurePress	-1	0.041	n/a	12	70	ButtonPress	Loss	True
666.499	0.52	Lose2	0.6901	n/a	No	3.031	n/a	n/a	PrematurePress	-1	n/a	n/a	12	70	Blank	Loss	True
667.018	1.45	Lose2	0.6901	n/a	No	3.031	n/a	5.0	PrematurePress	-1	0.02	666.038	12	70	Feedback	Loss	True
668.472	3.031	Lose2	0.6901	n/a	No	3.031	n/a	n/a	PrematurePress	-1	0.0	n/a	12	70	ISIslide	Loss	True
671.531	0.25	Win2	0.6944	0.0	Yes	2.719	0.031	n/a	GoodResponse	1	n/a	n/a	13	71	Cue	Win	True
671.782	4.05	Win2	0.6944	0.0	Yes	2.719	0.001	n/a	GoodResponse	1	n/a	n/a	13	71	Fixation	Win	True
675.827	0.17	Win2	0.6944	0.004	Yes	2.719	-0.004	2.0	GoodResponse	1	0.168	674.995	13	71	Target	Win	True
675.995	0.3	Win2	0.6944	0.004	Yes	2.719	-0.004	2.0	GoodResponse	1	0.168	n/a	13	71	ButtonPress	Win	True
676.011	0.53	Win2	0.6944	n/a	Yes	2.719	n/a	n/a	GoodResponse	1	n/a	n/a	13	71	Blank	Win	True
676.529	1.45	Win2	0.6944	n/a	Yes	2.719	n/a	5.0	GoodResponse	1	0.022	675.551	13	71	Feedback	Win	True
677.984	2.719	Win2	0.6944	n/a	Yes	2.719	n/a	n/a	GoodResponse	1	0.0	n/a	13	71	ISIslide	Win	True
680.725	0.25	Win2	0.6849	0.0	No	2.775	0.025	n/a	NoResponse	0	n/a	n/a	13	72	Cue	MissedWin	True
680.976	4.1	Win2	0.6849	0.0	No	2.775	0.001	n/a	NoResponse	0	n/a	n/a	13	72	Fixation	MissedWin	True
685.072	0.16	Win2	0.6849	0.003	No	2.775	-0.003	2.0	NoResponse	0	0.188	684.26	13	72	Target	MissedWin	True
685.239	0.54	Win2	0.6849	n/a	No	2.775	n/a	n/a	NoResponse	0	n/a	n/a	13	72	Blank	MissedWin	True
685.26	0.3	Win2	0.6849	0.003	No	2.775	-0.003	2.0	NoResponse	0	0.188	n/a	13	72	ButtonPress	MissedWin	True
685.774	1.45	Win2	0.6849	n/a	No	2.775	n/a	5.0	NoResponse	0	0.045	684.819	13	72	Feedback	MissedWin	True
687.228	2.775	Win2	0.6849	n/a	No	2.775	n/a	n/a	NoResponse	0	0.0	n/a	13	72	ISIslide	MissedWin	True
690.02	0.25	Win2	0.6757	0.0	No	2.68	0.02	n/a	NoResponse	0	n/a	n/a	13	73	Cue	MissedWin	True
690.27	4.0	Win2	0.6757	0.001	No	2.68	0.0	2.0	NoResponse	0	3.777	693.047	13	73	Fixation	MissedWin	True
694.047	0.3	Win2	0.6757	0.001	No	2.68	0.0	2.0	NoResponse	0	3.777	n/a	13	73	ButtonPress	MissedWin	True
694.266	0.15	Win2	0.6757	0.004	No	2.68	-0.004	n/a	NoResponse	0	n/a	n/a	13	73	Target	MissedWin	True
694.416	0.55	Win2	0.6757	n/a	No	2.68	n/a	n/a	NoResponse	0	n/a	n/a	13	73	Blank	MissedWin	True
694.968	1.45	Win2	0.6757	n/a	No	2.68	n/a	5.0	NoResponse	0	0.021	693.989	13	73	Feedback	MissedWin	True
696.422	2.68	Win2	0.6757	n/a	No	2.68	n/a	n/a	NoResponse	0	0.0	n/a	13	73	ISIslide	MissedWin	True
699.13	0.25	Lose2	0.6667000000000001	0.0	No	2.62	0.03	n/a	NoResponse	-1	n/a	n/a	12	74	Cue	Loss	True
699.381	4.05	Lose2	0.6667000000000001	0.0	No	2.62	0.001	n/a	NoResponse	-1	n/a	n/a	12	74	Fixation	Loss	True
703.426	0.15	Lose2	0.6667000000000001	0.004	No	2.62	-0.004	2.0	NoResponse	-1	0.174	702.6	12	74	Target	Loss	True
703.577	0.55	Lose2	0.6667000000000001	n/a	No	2.62	n/a	n/a	NoResponse	-1	n/a	n/a	12	74	Blank	Loss	True
703.6	0.3	Lose2	0.6667000000000001	0.004	No	2.62	-0.004	2.0	NoResponse	-1	0.174	n/a	12	74	ButtonPress	Loss	True
704.129	1.45	Lose2	0.6667000000000001	n/a	No	2.62	n/a	5.0	NoResponse	-1	0.031	703.16	12	74	Feedback	Loss	True
705.583	2.62	Lose2	0.6667000000000001	n/a	No	2.62	n/a	n/a	NoResponse	-1	0.0	n/a	12	74	ISIslide	Loss	True
708.224	0.25	Lose2	0.6579	0.0	No	2.926	0.024	n/a	NoResponse	-1	n/a	n/a	11	75	Cue	Loss	True
708.475	3.95	Lose2	0.6579	0.0	No	2.926	0.001	2.0	NoResponse	-1	3.698	711.173	11	75	Fixation	Loss	True
712.173	0.3	Lose2	0.6579	0.0	No	2.926	0.001	2.0	NoResponse	-1	3.698	n/a	11	75	ButtonPress	Loss	True
712.42	0.15	Lose2	0.6579	0.004	No	2.926	-0.004	n/a	NoResponse	-1	n/a	n/a	11	75	Target	Loss	True
712.57	0.55	Lose2	0.6579	n/a	No	2.926	n/a	n/a	NoResponse	-1	n/a	n/a	11	75	Blank	Loss	True
713.122	1.45	Lose2	0.6579	n/a	No	2.926	n/a	5.0	NoResponse	-1	0.013	712.135	11	75	Feedback	Loss	True
714.576	2.926	Lose2	0.6579	n/a	No	2.926	n/a	n/a	NoResponse	-1	0.0	n/a	11	75	ISIslide	Loss	True
717.519	0.25	Control	0.6494	0.0	No	3.231	0.019	n/a	NoResponse	0	n/a	n/a	11	76	Cue	Neutral	True
717.769	4.05	Control	0.6494	0.0	No	3.231	0.0	2.0	NoResponse	0	3.747	720.516	11	76	Fixation	Neutral	True
721.516	0.3	Control	0.6494	0.0	No	3.231	0.0	2.0	NoResponse	0	3.747	n/a	11	76	ButtonPress	Neutral	True
721.815	0.15	Control	0.6494	0.004	No	3.231	-0.004	n/a	NoResponse	0	n/a	n/a	11	76	Target	Neutral	True
721.965	0.55	Control	0.6494	n/a	No	3.231	n/a	n/a	NoResponse	0	n/a	n/a	11	76	Blank	Neutral	True
722.517	1.45	Control	0.6494	n/a	No	3.231	n/a	5.0	NoResponse	0	0.033	721.55	11	76	Feedback	Neutral	True
723.971	3.231	Control	0.6494	n/a	No	3.231	n/a	n/a	NoResponse	0	0.0	n/a	11	76	ISIslide	Neutral	True
727.231	0.25	Lose2	0.6409999999999999	0.0	No	2.569	0.031	n/a	NoResponse	-1	n/a	n/a	10	77	Cue	Loss	True
727.482	3.95	Lose2	0.6409999999999999	0.0	No	2.569	0.001	n/a	NoResponse	-1	n/a	n/a	10	77	Fixation	Loss	True
731.427	0.16	Lose2	0.6409999999999999	0.004	No	2.569	-0.004	2.0	NoResponse	-1	0.181	730.608	10	77	Target	Loss	True
731.594	0.54	Lose2	0.6409999999999999	n/a	No	2.569	n/a	n/a	NoResponse	-1	n/a	n/a	10	77	Blank	Loss	True
731.608	0.3	Lose2	0.6409999999999999	0.004	No	2.569	-0.004	2.0	NoResponse	-1	0.181	n/a	10	77	ButtonPress	Loss	True
732.129	1.45	Lose2	0.6409999999999999	n/a	No	2.569	n/a	5.0	NoResponse	-1	0.03	731.159	10	77	Feedback	Loss	True
733.583	2.569	Lose2	0.6409999999999999	n/a	No	2.569	n/a	n/a	NoResponse	-1	0.0	n/a	10	77	ISIslide	Loss	True
