onset	duration	cue_type	current_mean_accuracy	duration_error	is_hit	isi_adjusted	onset_delay	response	response_type	reward	rt	rt_time	total_reward	trial_number	trial_phase	trial_type	one_press
11.105	0.25	Control	1.0	0.0	Yes	2.945	0.005	n/a	GoodResponse	0	n/a	n/a	0	0	Cue	Neutral	True
11.355	3.85	Control	1.0	0.001	Yes	2.945	0.0	n/a	GoodResponse	0	n/a	n/a	0	0	Fixation	Neutral	True
15.217	0.4	Control	1.0	0.0	Yes	2.945	0.012	4.0	GoodResponse	0	0.225	14.442	0	0	Target	Neutral	True
15.442	0.3	Control	1.0	0.0	Yes	2.945	0.012	4.0	GoodResponse	0	0.225	n/a	0	0	ButtonPress	Neutral	True
15.602	0.3	Control	1.0	n/a	Yes	2.945	n/a	n/a	GoodResponse	0	n/a	n/a	0	0	Blank	Neutral	True
15.902	1.45	Control	1.0	n/a	Yes	2.945	n/a	5.0	GoodResponse	0	0.024	14.926	0	0	Feedback	Neutral	True
17.357	2.945	Control	1.0	n/a	Yes	2.945	n/a	n/a	GoodResponse	0	0.0	n/a	0	0	ISIslide	Neutral	True
20.316	0.25	Lose2	1.0	0.0	Yes	2.784	0.016	n/a	GoodResponse	0	n/a	n/a	0	1	Cue	AvoidedLoss	True
20.566	4.0	Lose2	1.0	0.0	Yes	2.784	0.0	n/a	GoodResponse	0	n/a	n/a	0	1	Fixation	AvoidedLoss	True
24.562	0.39	Lose2	1.0	0.004	Yes	2.784	-0.004	4.0	GoodResponse	0	0.203	23.765	0	1	Target	AvoidedLoss	True
24.765	0.3	Lose2	1.0	0.004	Yes	2.784	-0.004	4.0	GoodResponse	0	0.203	n/a	0	1	ButtonPress	AvoidedLoss	True
24.963	0.31	Lose2	1.0	n/a	Yes	2.784	n/a	n/a	GoodResponse	0	n/a	n/a	0	1	Blank	AvoidedLoss	True
25.264	1.45	Lose2	1.0	n/a	Yes	2.784	n/a	5.0	GoodResponse	0	0.028	24.292	0	1	Feedback	AvoidedLoss	True
26.718	2.784	Lose2	1.0	n/a	Yes	2.784	n/a	n/a	GoodResponse	0	0.0	n/a	0	1	ISIslide	AvoidedLoss	True
29.526	0.25	Control	1.0	0.001	Yes	2.574	0.026	n/a	GoodResponse	0	n/a	n/a	0	2	Cue	Neutral	True
29.777	4.1	Control	1.0	0.0	Yes	2.574	0.001	n/a	GoodResponse	0	n/a	n/a	0	2	Fixation	Neutral	True
33.873	0.38	Control	1.0	0.003	Yes	2.574	-0.003	4.0	GoodResponse	0	0.221	33.094	0	2	Target	Neutral	True
34.094	0.3	Control	1.0	0.003	Yes	2.574	-0.003	4.0	GoodResponse	0	0.221	n/a	0	2	ButtonPress	Neutral	True
34.257	0.32	Control	1.0	n/a	Yes	2.574	n/a	n/a	GoodResponse	0	n/a	n/a	0	2	Blank	Neutral	True
34.575	1.45	Control	1.0	n/a	Yes	2.574	n/a	5.0	GoodResponse	0	0.034	33.609	0	2	Feedback	Neutral	True
36.029	2.574	Control	1.0	n/a	Yes	2.574	n/a	n/a	GoodResponse	0	0.0	n/a	0	2	ISIslide	Neutral	True
38.62	0.25	Win2	1.0	0.0	Yes	2.83	0.02	n/a	GoodResponse	1	n/a	n/a	1	3	Cue	Win	True
38.871	3.95	Win2	1.0	0.0	Yes	2.83	0.001	n/a	GoodResponse	1	n/a	n/a	1	3	Fixation	Win	True
42.816	0.37	Win2	1.0	0.004	Yes	2.83	-0.004	4.0	GoodResponse	1	0.256	42.072	1	3	Target	Win	True
43.072	0.3	Win2	1.0	0.004	Yes	2.83	-0.004	4.0	GoodResponse	1	0.256	n/a	1	3	ButtonPress	Win	True
43.201	0.33	Win2	1.0	n/a	Yes	2.83	n/a	n/a	GoodResponse	1	n/a	n/a	1	3	Blank	Win	True
43.518	1.45	Win2	1.0	n/a	Yes	2.83	n/a	5.0	GoodResponse	1	0.018	42.536	1	3	Feedback	Win	True
44.973	2.83	Win2	1.0	n/a	Yes	2.83	n/a	n/a	GoodResponse	1	0.0	n/a	1	3	ISIslide	Win	True
47.831	0.25	Win2	1.0	0.0	Yes	3.269	0.031	n/a	GoodResponse	1	n/a	n/a	2	4	Cue	Win	True
48.082	4.0	Win2	1.0	0.0	Yes	3.269	0.001	n/a	GoodResponse	1	n/a	n/a	2	4	Fixation	Win	True
52.077	0.36	Win2	1.0	0.004	Yes	3.269	-0.004	4.0	GoodResponse	1	0.222	51.299	2	4	Target	Win	True
52.299	0.3	Win2	1.0	0.004	Yes	3.269	-0.004	4.0	GoodResponse	1	0.222	n/a	2	4	ButtonPress	Win	True
52.445	0.34	Win2	1.0	n/a	Yes	3.269	n/a	n/a	GoodResponse	1	n/a	n/a	2	4	Blank	Win	True
52.779	1.45	Win2	1.0	n/a	Yes	3.269	n/a	5.0	GoodResponse	1	0.025	51.804	2	4	Feedback	Win	True
54.234	3.269	Win2	1.0	n/a	Yes	3.269	n/a	n/a	GoodResponse	1	0.0	n/a	2	4	ISIslide	Win	True
57.527	0.25	Win2	1.0	0.0	Yes	2.773	0.027	n/a	GoodResponse	1	n/a	n/a	3	5	Cue	Win	True
57.778	4.0	Win2	1.0	0.0	Yes	2.773	0.001	n/a	GoodResponse	1	n/a	n/a	3	5	Fixation	Win	True
61.773	0.35	Win2	1.0	0.004	Yes	2.773	-0.004	4.0	GoodResponse	1	0.276	61.049	3	5	Target	Win	True
62.049	0.3	Win2	1.0	0.004	Yes	2.773	-0.004	4.0	GoodResponse	1	0.276	n/a	3	5	ButtonPress	Win	True
62.124	0.35	Win2	1.0	n/a	Yes	2.773	n/a	n/a	GoodResponse	1	n/a	n/a	3	5	Blank	Win	True
62.475	1.45	Win2	1.0	n/a	Yes	2.773	n/a	5.0	GoodResponse	1	0.036	61.511	3	5	Feedback	Win	True
63.929	2.773	Win2	1.0	n/a	Yes	2.773	n/a	n/a	GoodResponse	1	0.0	n/a	3	5	ISIslide	Win	True
66.721	0.25	Lose2	1.0	0.0	Yes	2.729	0.021	n/a	GoodResponse	0	n/a	n/a	3	6	Cue	AvoidedLoss	True
66.972	3.95	Lose2	1.0	0.0	Yes	2.729	0.001	n/a	GoodResponse	0	n/a	n/a	3	6	Fixation	AvoidedLoss	True
70.917	0.34	Lose2	1.0	0.004	Yes	2.729	-0.004	4.0	GoodResponse	0	0.243	70.16	3	6	Target	AvoidedLoss	True
71.16	0.3	Lose2	1.0	0.004	Yes	2.729	-0.004	4.0	GoodResponse	0	0.243	n/a	3	6	ButtonPress	AvoidedLoss	True
71.268	0.36	Lose2	1.0	n/a	Yes	2.729	n/a	n/a	GoodResponse	0	n/a	n/a	3	6	Blank	AvoidedLoss	True
71.619	1.45	Lose2	1.0	n/a	Yes	2.729	n/a	5.0	GoodResponse	0	0.014	70.633	3	6	Feedback	AvoidedLoss	True
73.073	2.729	Lose2	1.0	n/a	Yes	2.729	n/a	n/a	GoodResponse	0	0.0	n/a	3	6	ISIslide	AvoidedLoss	True
75.815	0.25	Lose2	1.0	0.0	Yes	4.035	0.015	n/a	GoodResponse	0	n/a	n/a	3	7	Cue	AvoidedLoss	True
76.066	4.05	Lose2	1.0	0.0	Yes	4.035	0.001	n/a	GoodResponse	0	n/a	n/a	3	7	Fixation	AvoidedLoss	True
80.111	0.33	Lose2	1.0	0.004	Yes	4.035	-0.004	4.0	GoodResponse	0	0.217	79.328	3	7	Target	AvoidedLoss	True
80.328	0.3	Lose2	1.0	0.004	Yes	4.035	-0.004	4.0	GoodResponse	0	0.217	n/a	3	7	ButtonPress	AvoidedLoss	True
80.445	0.37	Lose2	1.0	n/a	Yes	4.035	n/a	n/a	GoodResponse	0	n/a	n/a	3	7	Blank	AvoidedLoss	True
80.813	1.45	Lose2	1.0	n/a	Yes	4.035	n/a	5.0	GoodResponse	0	0.039	79.852	3	7	Feedback	AvoidedLoss	True
82.268	4.035	Lose2	1.0	n/a	Yes	4.035	n/a	n/a	GoodResponse	0	0.0	n/a	3	7	ISIslide	AvoidedLoss	True
86.33	0.25	Lose2	1.0	0.0	Yes	3.02	0.03	n/a	GoodResponse	0	n/a	n/a	3	8	Cue	AvoidedLoss	True
86.58	3.95	Lose2	1.0	0.0	Yes	3.02	0.0	n/a	GoodResponse	0	n/a	n/a	3	8	Fixation	AvoidedLoss	True
90.526	0.32	Lose2	1.0	0.004	Yes	3.02	-0.004	4.0	GoodResponse	0	0.23	89.756	3	8	Target	AvoidedLoss	True
90.756	0.3	Lose2	1.0	0.004	Yes	3.02	-0.004	4.0	GoodResponse	0	0.23	n/a	3	8	ButtonPress	AvoidedLoss	True
90.86	0.38	Lose2	1.0	n/a	Yes	3.02	n/a	n/a	GoodResponse	0	n/a	n/a	3	8	Blank	AvoidedLoss	True
91.228	1.45	Lose2	1.0	n/a	Yes	3.02	n/a	5.0	GoodResponse	0	0.015	90.243	3	8	Feedback	AvoidedLoss	True
92.682	3.02	Lose2	1.0	n/a	Yes	3.02	n/a	n/a	GoodResponse	0	0.0	n/a	3	8	ISIslide	AvoidedLoss	True
95.724	0.25	Lose2	1.0	0.0	Yes	3.126	0.024	n/a	GoodResponse	0	n/a	n/a	3	9	Cue	AvoidedLoss	True
95.975	3.95	Lose2	1.0	0.0	Yes	3.126	0.001	n/a	GoodResponse	0	n/a	n/a	3	9	Fixation	AvoidedLoss	True
99.92	0.31	Lose2	1.0	0.004	Yes	3.126	-0.004	4.0	GoodResponse	0	0.208	99.128	3	9	Target	AvoidedLoss	True
100.128	0.3	Lose2	1.0	0.004	Yes	3.126	-0.004	4.0	GoodResponse	0	0.208	n/a	3	9	ButtonPress	AvoidedLoss	True
100.238	0.39	Lose2	1.0	n/a	Yes	3.126	n/a	n/a	GoodResponse	0	n/a	n/a	3	9	Blank	AvoidedLoss	True
100.622	1.45	Lose2	1.0	n/a	Yes	3.126	n/a	5.0	GoodResponse	0	0.034	99.656	3	9	Feedback	AvoidedLoss	True
102.077	3.126	Lose2	1.0	n/a	Yes	3.126	n/a	n/a	GoodResponse	0	0.0	n/a	3	9	ISIslide	AvoidedLoss	True
105.219	0.25	Control	1.0	0.001	Yes	3.281	0.019	n/a	GoodResponse	0	n/a	n/a	3	10	Cue	Neutral	True
105.47	4.0	Control	1.0	0.0	Yes	3.281	0.001	n/a	GoodResponse	0	n/a	n/a	3	10	Fixation	Neutral	True
109.465	0.3	Control	1.0	0.004	Yes	3.281	-0.004	4.0	GoodResponse	0	0.205	108.67	3	10	Target	Neutral	True
109.67	0.3	Control	1.0	0.004	Yes	3.281	-0.004	4.0	GoodResponse	0	0.205	n/a	3	10	ButtonPress	Neutral	True
109.766	0.4	Control	1.0	n/a	Yes	3.281	n/a	n/a	GoodResponse	0	n/a	n/a	3	10	Blank	Neutral	True
110.168	1.45	Control	1.0	n/a	Yes	3.281	n/a	5.0	GoodResponse	0	0.007	109.175	3	10	Feedback	Neutral	True
111.622	3.281	Control	1.0	n/a	Yes	3.281	n/a	n/a	GoodResponse	0	0.0	n/a	3	10	ISIslide	Neutral	True
114.932	0.25	Lose2	1.0	0.0	Yes	2.718	0.032	n/a	GoodResponse	0	n/a	n/a	3	11	Cue	AvoidedLoss	True
115.183	4.05	Lose2	1.0	0.0	Yes	2.718	0.001	n/a	GoodResponse	0	n/a	n/a	3	11	Fixation	AvoidedLoss	True
119.228	0.29	Lose2	1.0	0.004	Yes	2.718	-0.004	4.0	GoodResponse	0	0.203	118.431	3	11	Target	AvoidedLoss	True
119.431	0.3	Lose2	1.0	0.004	Yes	2.718	-0.004	4.0	GoodResponse	0	0.203	n/a	3	11	ButtonPress	AvoidedLoss	True
119.529	0.41	Lose2	1.0	n/a	Yes	2.718	n/a	n/a	GoodResponse	0	n/a	n/a	3	11	Blank	AvoidedLoss	True
119.93	1.45	Lose2	1.0	n/a	Yes	2.718	n/a	5.0	GoodResponse	0	0.044	118.974	3	11	Feedback	AvoidedLoss	True
121.384	2.718	Lose2	1.0	n/a	Yes	2.718	n/a	n/a	GoodResponse	0	0.0	n/a	3	11	ISIslide	AvoidedLoss	True
124.126	0.25	Control	1.0	0.0	Yes	2.974	0.026	n/a	GoodResponse	0	n/a	n/a	3	12	Cue	Neutral	True
124.377	3.9	Control	1.0	0.0	Yes	2.974	0.001	n/a	GoodResponse	0	n/a	n/a	3	12	Fixation	Neutral	True
128.272	0.28	Control	1.0	0.004	Yes	2.974	-0.004	4.0	GoodResponse	0	0.237	127.509	3	12	Target	Neutral	True
128.509	0.3	Control	1.0	0.004	Yes	2.974	-0.004	4.0	GoodResponse	0	0.237	n/a	3	12	ButtonPress	Neutral	True
128.556	0.42	Control	1.0	n/a	Yes	2.974	n/a	n/a	GoodResponse	0	n/a	n/a	3	12	Blank	Neutral	True
128.974	1.45	Control	1.0	n/a	Yes	2.974	n/a	5.0	GoodResponse	0	0.024	127.998	3	12	Feedback	Neutral	True
130.428	2.974	Control	1.0	n/a	Yes	2.974	n/a	n/a	GoodResponse	0	0.0	n/a	3	12	ISIslide	Neutral	True
133.42	0.25	Control	1.0	0.001	Yes	2.78	0.02	n/a	GoodResponse	0	n/a	n/a	3	13	Cue	Neutral	True
133.671	4.0	Control	1.0	0.0	Yes	2.78	0.001	n/a	GoodResponse	0	n/a	n/a	3	13	Fixation	Neutral	True
137.666	0.27	Control	1.0	0.004	Yes	2.78	-0.004	4.0	GoodResponse	0	0.204	136.87	3	13	Target	Neutral	True
137.87	0.3	Control	1.0	0.004	Yes	2.78	-0.004	4.0	GoodResponse	0	0.204	n/a	3	13	ButtonPress	Neutral	True
137.951	0.43	Control	1.0	n/a	Yes	2.78	n/a	n/a	GoodResponse	0	n/a	n/a	3	13	Blank	Neutral	True
138.369	1.45	Control	1.0	n/a	Yes	2.78	n/a	5.0	GoodResponse	0	0.044	137.413	3	13	Feedback	Neutral	True
139.823	2.78	Control	1.0	n/a	Yes	2.78	n/a	n/a	GoodResponse	0	0.0	n/a	3	13	ISIslide	Neutral	True
142.615	0.25	Win2	1.0	0.0	Yes	2.685	0.015	n/a	GoodResponse	1	n/a	n/a	4	14	Cue	Win	True
142.865	4.1	Win2	1.0	0.0	Yes	2.685	0.0	n/a	GoodResponse	1	n/a	n/a	4	14	Fixation	Win	True
146.961	0.26	Win2	1.0	0.004	Yes	2.685	-0.004	4.0	GoodResponse	1	0.184	146.145	4	14	Target	Win	True
147.145	0.3	Win2	1.0	0.004	Yes	2.685	-0.004	4.0	GoodResponse	1	0.184	n/a	4	14	ButtonPress	Win	True
147.228	0.44	Win2	1.0	n/a	Yes	2.685	n/a	n/a	GoodResponse	1	n/a	n/a	4	14	Blank	Win	True
147.663	1.45	Win2	1.0	n/a	Yes	2.685	n/a	5.0	GoodResponse	1	0.017	146.68	4	14	Feedback	Win	True
149.117	2.685	Win2	1.0	n/a	Yes	2.685	n/a	n/a	GoodResponse	1	0.0	n/a	4	14	ISIslide	Win	True
151.825	0.25	Control	1.0	0.001	Yes	2.975	0.025	n/a	GoodResponse	0	n/a	n/a	4	15	Cue	Neutral	True
152.076	4.0	Control	1.0	0.0	Yes	2.975	0.001	n/a	GoodResponse	0	n/a	n/a	4	15	Fixation	Neutral	True
156.072	0.25	Control	1.0	0.003	Yes	2.975	-0.003	4.0	GoodResponse	0	0.212	155.284	4	15	Target	Neutral	True
156.284	0.3	Control	1.0	0.003	Yes	2.975	-0.003	4.0	GoodResponse	0	0.212	n/a	4	15	ButtonPress	Neutral	True
156.322	0.45	Control	1.0	n/a	Yes	2.975	n/a	n/a	GoodResponse	0	n/a	n/a	4	15	Blank	Neutral	True
156.774	1.45	Control	1.0	n/a	Yes	2.975	n/a	5.0	GoodResponse	0	0.028	155.802	4	15	Feedback	Neutral	True
158.228	2.975	Control	1.0	n/a	Yes	2.975	n/a	n/a	GoodResponse	0	0.0	n/a	4	15	ISIslide	Neutral	True
161.22	0.25	Win2	1.0	0.0	Yes	2.88	0.02	n/a	GoodResponse	1	n/a	n/a	5	16	Cue	Win	True
161.471	4.0	Win2	1.0	0.0	Yes	2.88	0.001	n/a	GoodResponse	1	n/a	n/a	5	16	Fixation	Win	True
165.466	0.24	Win2	1.0	0.004	Yes	2.88	-0.004	4.0	GoodResponse	1	0.195	164.661	5	16	Target	Win	True
165.661	0.3	Win2	1.0	0.004	Yes	2.88	-0.004	4.0	GoodResponse	1	0.195	n/a	5	16	ButtonPress	Win	True
165.717	0.46	Win2	1.0	n/a	Yes	2.88	n/a	n/a	GoodResponse	1	n/a	n/a	5	16	Blank	Win	True
166.168	1.45	Win2	1.0	n/a	Yes	2.88	n/a	5.0	GoodResponse	1	0.049	165.217	5	16	Feedback	Win	True
167.623	2.88	Win2	1.0	n/a	Yes	2.88	n/a	n/a	GoodResponse	1	0.0	n/a	5	16	ISIslide	Win	True
170.531	0.25	Lose2	0.9444	0.001	No	2.719	0.031	n/a	NoResponse	-1	n/a	n/a	4	17	Cue	Loss	True
170.782	3.95	Lose2	0.9444	0.0	No	2.719	0.001	n/a	NoResponse	-1	n/a	n/a	4	17	Fixation	Loss	True
174.727	0.23	Lose2	0.9444	0.004	No	2.719	-0.004	4.0	NoResponse	-1	0.253	173.98	4	17	Target	Loss	True
174.961	0.47	Lose2	0.9444	n/a	No	2.719	n/a	n/a	NoResponse	-1	n/a	n/a	4	17	Blank	Loss	True
174.98	0.3	Lose2	0.9444	0.004	No	2.719	-0.004	4.0	NoResponse	-1	0.253	n/a	4	17	ButtonPress	Loss	True
175.429	1.45	Lose2	0.9444	n/a	No	2.719	n/a	5.0	NoResponse	-1	0.008	174.437	4	17	Feedback	Loss	True
176.884	2.719	Lose2	0.9444	n/a	No	2.719	n/a	n/a	NoResponse	-1	0.0	n/a	4	17	ISIslide	Loss	True
179.625	0.25	Lose2	0.8946999999999999	0.0	No	2.725	0.025	n/a	LatePress	-1	n/a	n/a	3	18	Cue	Loss	True
179.876	4.05	Lose2	0.8946999999999999	0.0	No	2.725	0.001	n/a	LatePress	-1	n/a	n/a	3	18	Fixation	Loss	True
183.921	0.22	Lose2	0.8946999999999999	0.004	No	2.725	-0.004	4.0	LatePress	-1	0.228	183.149	3	18	Target	Loss	True
184.149	0.3	Lose2	0.8946999999999999	0.004	No	2.725	-0.004	4.0	LatePress	-1	0.228	n/a	3	18	ButtonPress	Loss	True
184.155	0.48	Lose2	0.8946999999999999	n/a	No	2.725	n/a	n/a	LatePress	-1	n/a	n/a	3	18	Blank	Loss	True
184.624	1.45	Lose2	0.8946999999999999	n/a	No	2.725	n/a	5.0	LatePress	-1	0.031	183.655	3	18	Feedback	Loss	True
186.078	2.725	Lose2	0.8946999999999999	n/a	No	2.725	n/a	n/a	LatePress	-1	0.0	n/a	3	18	ISIslide	Loss	True
188.819	0.25	Control	0.9	0.0	Yes	2.931	0.019	n/a	GoodResponse	0	n/a	n/a	3	19	Cue	Neutral	True
189.07	3.95	Control	0.9	0.0	Yes	2.931	0.001	n/a	GoodResponse	0	n/a	n/a	3	19	Fixation	Neutral	True
193.015	0.21	Control	0.9	0.004	Yes	2.931	-0.004	4.0	GoodResponse	0	0.2	192.215	3	19	Target	Neutral	True
193.215	0.3	Control	0.9	0.004	Yes	2.931	-0.004	4.0	GoodResponse	0	0.2	n/a	3	19	ButtonPress	Neutral	True
193.233	0.49	Control	0.9	n/a	Yes	2.931	n/a	n/a	GoodResponse	0	n/a	n/a	3	19	Blank	Neutral	True
193.717	1.45	Control	0.9	n/a	Yes	2.931	n/a	5.0	GoodResponse	0	0.012	192.729	3	19	Feedback	Neutral	True
195.172	2.931	Control	0.9	n/a	Yes	2.931	n/a	n/a	GoodResponse	0	0.0	n/a	3	19	ISIslide	Neutral	True
198.131	0.25	Control	0.8571	0.0	No	2.619	0.031	n/a	NoResponse	0	n/a	n/a	3	20	Cue	Neutral	True
198.381	4.05	Control	0.8571	0.0	No	2.619	0.0	n/a	NoResponse	0	n/a	n/a	3	20	Fixation	Neutral	True
202.427	0.2	Control	0.8571	0.004	No	2.619	-0.004	4.0	NoResponse	0	0.204	201.631	3	20	Target	Neutral	True
202.627	0.5	Control	0.8571	n/a	No	2.619	n/a	n/a	NoResponse	0	n/a	n/a	3	20	Blank	Neutral	True
202.631	0.3	Control	0.8571	0.004	No	2.619	-0.004	4.0	NoResponse	0	0.204	n/a	3	20	ButtonPress	Neutral	True
203.129	1.45	Control	0.8571	n/a	No	2.619	n/a	5.0	NoResponse	0	0.014	202.143	3	20	Feedback	Neutral	True
204.583	2.619	Control	0.8571	n/a	No	2.619	n/a	n/a	NoResponse	0	0.0	n/a	3	20	ISIslide	Neutral	True
207.224	0.25	Control	0.8181999999999999	0.001	No	2.776	0.024	n/a	NoResponse	0	n/a	n/a	3	21	Cue	Neutral	True
207.475	4.1	Control	0.8181999999999999	0.0	No	2.776	0.001	n/a	NoResponse	0	n/a	n/a	3	21	Fixation	Neutral	True
211.571	0.19	Control	0.8181999999999999	0.003	No	2.776	-0.003	4.0	NoResponse	0	0.223	210.794	3	21	Target	Neutral	True
211.771	0.51	Control	0.8181999999999999	n/a	No	2.776	n/a	n/a	NoResponse	0	n/a	n/a	3	21	Blank	Neutral	True
211.794	0.3	Control	0.8181999999999999	0.003	No	2.776	-0.003	4.0	NoResponse	0	0.223	n/a	3	21	ButtonPress	Neutral	True
212.273	1.45	Control	0.8181999999999999	n/a	No	2.776	n/a	5.0	NoResponse	0	0.041	211.314	3	21	Feedback	Neutral	True
213.727	2.776	Control	0.8181999999999999	n/a	No	2.776	n/a	n/a	NoResponse	0	0.0	n/a	3	21	ISIslide	Neutral	True
216.519	0.25	Control	0.7826000000000001	0.0	No	2.781	0.019	n/a	NoResponse	0	n/a	n/a	3	22	Cue	Neutral	True
216.77	4.0	Control	0.7826000000000001	0.0	No	2.781	0.001	n/a	NoResponse	0	n/a	n/a	3	22	Fixation	Neutral	True
220.765	0.18	Control	0.7826000000000001	0.004	No	2.781	-0.004	4.0	NoResponse	0	0.234	219.999	3	22	Target	Neutral	True
220.949	0.52	Control	0.7826000000000001	n/a	No	2.781	n/a	n/a	NoResponse	0	n/a	n/a	3	22	Blank	Neutral	True
220.999	0.3	Control	0.7826000000000001	0.004	No	2.781	-0.004	4.0	NoResponse	0	0.234	n/a	3	22	ButtonPress	Neutral	True
221.467	1.45	Control	0.7826000000000001	n/a	No	2.781	n/a	5.0	NoResponse	0	0.018	220.485	3	22	Feedback	Neutral	True
222.921	2.781	Control	0.7826000000000001	n/a	No	2.781	n/a	n/a	NoResponse	0	0.0	n/a	3	22	ISIslide	Neutral	True
225.73	0.25	Control	0.75	0.0	No	2.77	0.03	n/a	NoResponse	0	n/a	n/a	3	23	Cue	Neutral	True
225.981	3.9	Control	0.75	0.0	No	2.77	0.001	n/a	NoResponse	0	n/a	n/a	3	23	Fixation	Neutral	True
229.876	0.17	Control	0.75	0.004	No	2.77	-0.004	4.0	NoResponse	0	0.216	229.092	3	23	Target	Neutral	True
230.059	0.53	Control	0.75	n/a	No	2.77	n/a	n/a	NoResponse	0	n/a	n/a	3	23	Blank	Neutral	True
230.092	0.3	Control	0.75	0.004	No	2.77	-0.004	4.0	NoResponse	0	0.216	n/a	3	23	ButtonPress	Neutral	True
230.578	1.45	Control	0.75	n/a	No	2.77	n/a	5.0	NoResponse	0	0.028	229.606	3	23	Feedback	Neutral	True
232.032	2.77	Control	0.75	n/a	No	2.77	n/a	n/a	NoResponse	0	0.0	n/a	3	23	ISIslide	Neutral	True
234.824	0.25	Win2	0.72	0.0	No	3.126	0.024	n/a	NoResponse	0	n/a	n/a	3	24	Cue	MissedWin	True
235.074	3.95	Win2	0.72	0.0	No	3.126	0.0	n/a	NoResponse	0	n/a	n/a	3	24	Fixation	MissedWin	True
239.02	0.16	Win2	0.72	0.004	No	3.126	-0.004	4.0	NoResponse	0	0.174	238.194	3	24	Target	MissedWin	True
239.187	0.54	Win2	0.72	n/a	No	3.126	n/a	n/a	NoResponse	0	n/a	n/a	3	24	Blank	MissedWin	True
239.194	0.3	Win2	0.72	0.004	No	3.126	-0.004	4.0	NoResponse	0	0.174	n/a	3	24	ButtonPress	MissedWin	True
239.722	1.45	Win2	0.72	n/a	No	3.126	n/a	5.0	NoResponse	0	0.008	238.73	3	24	Feedback	MissedWin	True
241.176	3.126	Win2	0.72	n/a	No	3.126	n/a	n/a	NoResponse	0	0.0	n/a	3	24	ISIslide	MissedWin	True
244.319	0.25	Win2	0.6923	0.0	No	3.081	0.019	n/a	NoResponse	0	n/a	n/a	3	25	Cue	MissedWin	True
244.569	4.0	Win2	0.6923	0.001	No	3.081	0.0	n/a	NoResponse	0	n/a	n/a	3	25	Fixation	MissedWin	True
248.565	0.15	Win2	0.6923	0.004	No	3.081	-0.004	4.0	NoResponse	0	0.185	247.75	3	25	Target	MissedWin	True
248.715	0.55	Win2	0.6923	n/a	No	3.081	n/a	n/a	NoResponse	0	n/a	n/a	3	25	Blank	MissedWin	True
248.75	0.3	Win2	0.6923	0.004	No	3.081	-0.004	4.0	NoResponse	0	0.185	n/a	3	25	ButtonPress	MissedWin	True
249.267	1.45	Win2	0.6923	n/a	No	3.081	n/a	5.0	NoResponse	0	0.022	248.289	3	25	Feedback	MissedWin	True
250.721	3.081	Win2	0.6923	n/a	No	3.081	n/a	n/a	NoResponse	0	0.0	n/a	3	25	ISIslide	MissedWin	True
253.83	0.25	Win2	0.6667000000000001	0.001	No	2.92	0.03	n/a	NoResponse	0	n/a	n/a	3	26	Cue	MissedWin	True
254.081	3.95	Win2	0.6667000000000001	0.0	No	2.92	0.001	n/a	NoResponse	0	n/a	n/a	3	26	Fixation	MissedWin	True
258.026	0.15	Win2	0.6667000000000001	0.004	No	2.92	-0.004	4.0	NoResponse	0	0.185	257.211	3	26	Target	MissedWin	True
258.177	0.55	Win2	0.6667000000000001	n/a	No	2.92	n/a	n/a	NoResponse	0	n/a	n/a	3	26	Blank	MissedWin	True
258.211	0.3	Win2	0.6667000000000001	0.004	No	2.92	-0.004	4.0	NoResponse	0	0.185	n/a	3	26	ButtonPress	MissedWin	True
258.728	1.45	Win2	0.6667000000000001	n/a	No	2.92	n/a	5.0	NoResponse	0	0.025	257.753	3	26	Feedback	MissedWin	True
260.183	2.92	Win2	0.6667000000000001	n/a	No	2.92	n/a	n/a	NoResponse	0	0.0	n/a	3	26	ISIslide	MissedWin	True
263.125	0.25	Lose2	0.6429	0.0	No	2.825	0.025	n/a	NoResponse	-1	n/a	n/a	2	27	Cue	Loss	True
263.376	4.05	Lose2	0.6429	0.0	No	2.825	0.001	n/a	NoResponse	-1	n/a	n/a	2	27	Fixation	Loss	True
267.421	0.15	Lose2	0.6429	0.004	No	2.825	-0.004	4.0	NoResponse	-1	0.18	266.601	2	27	Target	Loss	True
267.572	0.55	Lose2	0.6429	n/a	No	2.825	n/a	n/a	NoResponse	-1	n/a	n/a	2	27	Blank	Loss	True
267.601	0.3	Lose2	0.6429	0.004	No	2.825	-0.004	4.0	NoResponse	-1	0.18	n/a	2	27	ButtonPress	Loss	True
268.123	1.45	Lose2	0.6429	n/a	No	2.825	n/a	5.0	NoResponse	-1	0.044	267.167	2	27	Feedback	Loss	True
269.578	2.825	Lose2	0.6429	n/a	No	2.825	n/a	n/a	NoResponse	-1	0.0	n/a	2	27	ISIslide	Loss	True
272.419	0.25	Control	0.6207	0.0	No	2.831	0.019	n/a	NoResponse	0	n/a	n/a	2	28	Cue	Neutral	True
272.67	4.05	Control	0.6207	0.0	No	2.831	0.001	n/a	NoResponse	0	n/a	n/a	2	28	Fixation	Neutral	True
276.716	0.16	Control	0.6207	0.003	No	2.831	-0.003	4.0	NoResponse	0	0.209	275.925	2	28	Target	Neutral	True
276.883	0.54	Control	0.6207	n/a	No	2.831	n/a	n/a	NoResponse	0	n/a	n/a	2	28	Blank	Neutral	True
276.925	0.3	Control	0.6207	0.003	No	2.831	-0.003	4.0	NoResponse	0	0.209	n/a	2	28	ButtonPress	Neutral	True
277.418	1.45	Control	0.6207	n/a	No	2.831	n/a	5.0	NoResponse	0	0.017	276.435	2	28	Feedback	Neutral	True
278.872	2.831	Control	0.6207	n/a	No	2.831	n/a	n/a	NoResponse	0	0.0	n/a	2	28	ISIslide	Neutral	True
281.731	0.25	Lose2	0.6	0.0	No	2.819	0.031	n/a	NoResponse	-1	n/a	n/a	1	29	Cue	Loss	True
281.981	3.95	Lose2	0.6	0.0	No	2.819	0.0	n/a	NoResponse	-1	n/a	n/a	1	29	Fixation	Loss	True
285.926	0.17	Lose2	0.6	0.005	No	2.819	-0.005	4.0	NoResponse	-1	0.192	285.118	1	29	Target	Loss	True
286.11	0.53	Lose2	0.6	n/a	No	2.819	n/a	n/a	NoResponse	-1	n/a	n/a	1	29	Blank	Loss	True
286.118	0.3	Lose2	0.6	0.005	No	2.819	-0.005	4.0	NoResponse	-1	0.192	n/a	1	29	ButtonPress	Loss	True
286.629	1.45	Lose2	0.6	n/a	No	2.819	n/a	5.0	NoResponse	-1	0.025	285.654	1	29	Feedback	Loss	True
288.083	2.819	Lose2	0.6	n/a	No	2.819	n/a	n/a	NoResponse	-1	0.0	n/a	1	29	ISIslide	Loss	True
290.925	0.25	Win2	0.5806	0.0	No	2.775	0.025	n/a	NoResponse	0	n/a	n/a	1	30	Cue	MissedWin	True
291.175	3.9	Win2	0.5806	0.001	No	2.775	0.0	n/a	NoResponse	0	n/a	n/a	1	30	Fixation	MissedWin	True
295.087	0.18	Win2	0.5806	0.0	No	2.775	0.012	4.0	NoResponse	0	0.183	294.27	1	30	Target	MissedWin	True
295.254	0.52	Win2	0.5806	n/a	No	2.775	n/a	n/a	NoResponse	0	n/a	n/a	1	30	Blank	MissedWin	True
295.27	0.3	Win2	0.5806	0.0	No	2.775	0.012	4.0	NoResponse	0	0.183	n/a	1	30	ButtonPress	MissedWin	True
295.773	1.45	Win2	0.5806	n/a	No	2.775	n/a	5.0	NoResponse	0	0.008	294.781	1	30	Feedback	MissedWin	True
297.227	2.775	Win2	0.5806	n/a	No	2.775	n/a	n/a	NoResponse	0	0.0	n/a	1	30	ISIslide	MissedWin	True
300.019	0.25	Lose2	0.5938	0.0	Yes	2.831	0.019	n/a	GoodResponse	0	n/a	n/a	1	31	Cue	AvoidedLoss	True
300.269	4.05	Lose2	0.5938	0.0	Yes	2.831	0.0	n/a	GoodResponse	0	n/a	n/a	1	31	Fixation	AvoidedLoss	True
304.315	0.19	Lose2	0.5938	0.004	Yes	2.831	-0.004	4.0	GoodResponse	0	0.183	303.498	1	31	Target	AvoidedLoss	True
304.498	0.3	Lose2	0.5938	0.004	Yes	2.831	-0.004	4.0	GoodResponse	0	0.183	n/a	1	31	ButtonPress	AvoidedLoss	True
304.515	0.51	Lose2	0.5938	n/a	Yes	2.831	n/a	n/a	GoodResponse	0	n/a	n/a	1	31	Blank	AvoidedLoss	True
305.017	1.45	Lose2	0.5938	n/a	Yes	2.831	n/a	5.0	GoodResponse	0	0.028	304.045	1	31	Feedback	AvoidedLoss	True
306.471	2.831	Lose2	0.5938	n/a	Yes	2.831	n/a	n/a	GoodResponse	0	0.0	n/a	1	31	ISIslide	AvoidedLoss	True
309.33	0.25	Lose2	0.6061	0.0	Yes	2.62	0.03	n/a	GoodResponse	0	n/a	n/a	1	32	Cue	AvoidedLoss	True
309.58	4.15	Lose2	0.6061	0.001	Yes	2.62	0.0	n/a	GoodResponse	0	n/a	n/a	1	32	Fixation	AvoidedLoss	True
313.726	0.2	Lose2	0.6061	0.004	Yes	2.62	-0.004	4.0	GoodResponse	0	0.176	312.902	1	32	Target	AvoidedLoss	True
313.902	0.3	Lose2	0.6061	0.004	Yes	2.62	-0.004	4.0	GoodResponse	0	0.176	n/a	1	32	ButtonPress	AvoidedLoss	True
313.927	0.5	Lose2	0.6061	n/a	Yes	2.62	n/a	n/a	GoodResponse	0	n/a	n/a	1	32	Blank	AvoidedLoss	True
314.428	1.45	Lose2	0.6061	n/a	Yes	2.62	n/a	5.0	GoodResponse	0	0.031	313.459	1	32	Feedback	AvoidedLoss	True
315.883	2.62	Lose2	0.6061	n/a	Yes	2.62	n/a	n/a	GoodResponse	0	0.0	n/a	1	32	ISIslide	AvoidedLoss	True
318.524	0.25	Win2	0.6175999999999999	0.0	Yes	2.676	0.024	n/a	GoodResponse	1	n/a	n/a	2	33	Cue	Win	True
318.775	4.0	Win2	0.6175999999999999	0.0	Yes	2.676	0.001	n/a	GoodResponse	1	n/a	n/a	2	33	Fixation	Win	True
322.77	0.21	Win2	0.6175999999999999	0.004	Yes	2.676	-0.004	4.0	GoodResponse	1	0.168	321.938	2	33	Target	Win	True
322.938	0.3	Win2	0.6175999999999999	0.004	Yes	2.676	-0.004	4.0	GoodResponse	1	0.168	n/a	2	33	ButtonPress	Win	True
322.987	0.49	Win2	0.6175999999999999	n/a	Yes	2.676	n/a	n/a	GoodResponse	1	n/a	n/a	2	33	Blank	Win	True
323.472	1.45	Win2	0.6175999999999999	n/a	Yes	2.676	n/a	5.0	GoodResponse	1	0.011	322.483	2	33	Feedback	Win	True
324.926	2.676	Win2	0.6175999999999999	n/a	Yes	2.676	n/a	n/a	GoodResponse	1	0.0	n/a	2	33	ISIslide	Win	True
327.618	0.25	Lose2	0.6286	0.0	Yes	2.632	0.018	n/a	GoodResponse	0	n/a	n/a	2	34	Cue	AvoidedLoss	True
327.868	4.05	Lose2	0.6286	0.001	Yes	2.632	0.0	n/a	GoodResponse	0	n/a	n/a	2	34	Fixation	AvoidedLoss	True
331.914	0.22	Lose2	0.6286	0.004	Yes	2.632	-0.004	4.0	GoodResponse	0	0.201	331.115	2	34	Target	AvoidedLoss	True
332.115	0.3	Lose2	0.6286	0.004	Yes	2.632	-0.004	4.0	GoodResponse	0	0.201	n/a	2	34	ButtonPress	AvoidedLoss	True
332.148	0.48	Lose2	0.6286	n/a	Yes	2.632	n/a	n/a	GoodResponse	0	n/a	n/a	2	34	Blank	AvoidedLoss	True
332.616	1.45	Lose2	0.6286	n/a	Yes	2.632	n/a	5.0	GoodResponse	0	0.038	331.654	2	34	Feedback	AvoidedLoss	True
334.07	2.632	Lose2	0.6286	n/a	Yes	2.632	n/a	n/a	GoodResponse	0	0.0	n/a	2	34	ISIslide	AvoidedLoss	True
336.728	0.25	Lose2	0.6389	0.0	Yes	2.672	0.028	n/a	GoodResponse	0	n/a	n/a	2	35	Cue	AvoidedLoss	True
336.979	4.0	Lose2	0.6389	0.0	Yes	2.672	0.001	n/a	GoodResponse	0	n/a	n/a	2	35	Fixation	AvoidedLoss	True
340.974	0.23	Lose2	0.6389	0.004	Yes	2.672	-0.004	4.0	GoodResponse	0	0.156	340.13	2	35	Target	AvoidedLoss	True
341.13	0.3	Lose2	0.6389	0.004	Yes	2.672	-0.004	4.0	GoodResponse	0	0.156	n/a	2	35	ButtonPress	AvoidedLoss	True
341.208	0.47	Lose2	0.6389	n/a	Yes	2.672	n/a	n/a	GoodResponse	0	n/a	n/a	2	35	Blank	AvoidedLoss	True
341.676	1.45	Lose2	0.6389	n/a	Yes	2.672	n/a	5.0	GoodResponse	0	0.002	340.678	2	35	Feedback	AvoidedLoss	True
343.131	2.672	Lose2	0.6389	n/a	Yes	2.672	n/a	n/a	GoodResponse	0	0.0	n/a	2	35	ISIslide	AvoidedLoss	True
345.822	0.25	Control	0.6215999999999999	0.0	No	2.678	0.022	n/a	NoResponse	0	n/a	n/a	2	36	Cue	Neutral	True
346.073	4.0	Control	0.6215999999999999	0.0	No	2.678	0.001	n/a	NoResponse	0	n/a	n/a	2	36	Fixation	Neutral	True
350.068	0.24	Control	0.6215999999999999	0.004	No	2.678	-0.004	4.0	NoResponse	0	0.259	349.327	2	36	Target	Neutral	True
350.319	0.46	Control	0.6215999999999999	n/a	No	2.678	n/a	n/a	NoResponse	0	n/a	n/a	2	36	Blank	Neutral	True
350.327	0.3	Control	0.6215999999999999	0.004	No	2.678	-0.004	4.0	NoResponse	0	0.259	n/a	2	36	ButtonPress	Neutral	True
350.77	1.45	Control	0.6215999999999999	n/a	No	2.678	n/a	5.0	NoResponse	0	0.03	349.8	2	36	Feedback	Neutral	True
352.225	2.678	Control	0.6215999999999999	n/a	No	2.678	n/a	n/a	NoResponse	0	0.0	n/a	2	36	ISIslide	Neutral	True
354.916	0.25	Win2	0.6315999999999999	0.0	Yes	2.884	0.016	n/a	GoodResponse	1	n/a	n/a	3	37	Cue	Win	True
355.167	4.0	Win2	0.6315999999999999	0.0	Yes	2.884	0.001	n/a	GoodResponse	1	n/a	n/a	3	37	Fixation	Win	True
359.162	0.25	Win2	0.6315999999999999	0.004	Yes	2.884	-0.004	4.0	GoodResponse	1	0.184	358.346	3	37	Target	Win	True
359.346	0.3	Win2	0.6315999999999999	0.004	Yes	2.884	-0.004	4.0	GoodResponse	1	0.184	n/a	3	37	ButtonPress	Win	True
359.413	0.45	Win2	0.6315999999999999	n/a	Yes	2.884	n/a	n/a	GoodResponse	1	n/a	n/a	3	37	Blank	Win	True
359.864	1.45	Win2	0.6315999999999999	n/a	Yes	2.884	n/a	5.0	GoodResponse	1	0.009	358.873	3	37	Feedback	Win	True
361.319	2.884	Win2	0.6315999999999999	n/a	Yes	2.884	n/a	n/a	GoodResponse	1	0.0	n/a	3	37	ISIslide	Win	True
364.227	0.25	Lose2	0.6409999999999999	0.0	Yes	2.823	0.027	n/a	GoodResponse	0	n/a	n/a	3	38	Cue	AvoidedLoss	True
364.478	3.95	Lose2	0.6409999999999999	0.0	Yes	2.823	0.001	n/a	GoodResponse	0	n/a	n/a	3	38	Fixation	AvoidedLoss	True
368.423	0.26	Lose2	0.6409999999999999	0.004	Yes	2.823	-0.004	4.0	GoodResponse	0	0.196	367.619	3	38	Target	AvoidedLoss	True
368.619	0.3	Lose2	0.6409999999999999	0.004	Yes	2.823	-0.004	4.0	GoodResponse	0	0.196	n/a	3	38	ButtonPress	AvoidedLoss	True
368.691	0.44	Lose2	0.6409999999999999	n/a	Yes	2.823	n/a	n/a	GoodResponse	0	n/a	n/a	3	38	Blank	AvoidedLoss	True
369.125	1.45	Lose2	0.6409999999999999	n/a	Yes	2.823	n/a	5.0	GoodResponse	0	0.016	368.141	3	38	Feedback	AvoidedLoss	True
370.58	2.823	Lose2	0.6409999999999999	n/a	Yes	2.823	n/a	n/a	GoodResponse	0	0.0	n/a	3	38	ISIslide	AvoidedLoss	True
373.421	0.25	Win2	0.65	0.0	Yes	2.979	0.021	n/a	GoodResponse	1	n/a	n/a	4	39	Cue	Win	True
373.672	4.1	Win2	0.65	0.0	Yes	2.979	0.001	n/a	GoodResponse	1	n/a	n/a	4	39	Fixation	Win	True
377.768	0.27	Win2	0.65	0.003	Yes	2.979	-0.003	4.0	GoodResponse	1	0.185	376.953	4	39	Target	Win	True
377.953	0.3	Win2	0.65	0.003	Yes	2.979	-0.003	4.0	GoodResponse	1	0.185	n/a	4	39	ButtonPress	Win	True
378.052	0.43	Win2	0.65	n/a	Yes	2.979	n/a	n/a	GoodResponse	1	n/a	n/a	4	39	Blank	Win	True
378.47	1.45	Win2	0.65	n/a	Yes	2.979	n/a	5.0	GoodResponse	1	0.037	377.507	4	39	Feedback	Win	True
379.924	2.979	Win2	0.65	n/a	Yes	2.979	n/a	n/a	GoodResponse	1	0.0	n/a	4	39	ISIslide	Win	True
382.916	0.25	Win2	0.6585	0.0	Yes	2.734	0.016	n/a	GoodResponse	1	n/a	n/a	5	40	Cue	Win	True
383.167	3.95	Win2	0.6585	0.0	Yes	2.734	0.001	n/a	GoodResponse	1	n/a	n/a	5	40	Fixation	Win	True
387.112	0.28	Win2	0.6585	0.004	Yes	2.734	-0.004	4.0	GoodResponse	1	0.163	386.275	5	40	Target	Win	True
387.275	0.3	Win2	0.6585	0.004	Yes	2.734	-0.004	4.0	GoodResponse	1	0.163	n/a	5	40	ButtonPress	Win	True
387.396	0.42	Win2	0.6585	n/a	Yes	2.734	n/a	n/a	GoodResponse	1	n/a	n/a	5	40	Blank	Win	True
387.814	1.45	Win2	0.6585	n/a	Yes	2.734	n/a	5.0	GoodResponse	1	0.01	386.824	5	40	Feedback	Win	True
389.269	2.734	Win2	0.6585	n/a	Yes	2.734	n/a	n/a	GoodResponse	1	0.0	n/a	5	40	ISIslide	Win	True
392.027	0.25	Win2	0.6667000000000001	0.0	Yes	2.773	0.027	n/a	GoodResponse	1	n/a	n/a	6	41	Cue	Win	True
392.278	3.9	Win2	0.6667000000000001	0.0	Yes	2.773	0.001	n/a	GoodResponse	1	n/a	n/a	6	41	Fixation	Win	True
396.173	0.28	Win2	0.6667000000000001	0.004	Yes	2.773	-0.004	4.0	GoodResponse	1	0.18	395.353	6	41	Target	Win	True
396.353	0.3	Win2	0.6667000000000001	0.004	Yes	2.773	-0.004	4.0	GoodResponse	1	0.18	n/a	6	41	ButtonPress	Win	True
396.457	0.42	Win2	0.6667000000000001	n/a	Yes	2.773	n/a	n/a	GoodResponse	1	n/a	n/a	6	41	Blank	Win	True
396.875	1.45	Win2	0.6667000000000001	n/a	Yes	2.773	n/a	5.0	GoodResponse	1	0.022	395.897	6	41	Feedback	Win	True
398.329	2.773	Win2	0.6667000000000001	n/a	Yes	2.773	n/a	n/a	GoodResponse	1	0.0	n/a	6	41	ISIslide	Win	True
401.121	0.25	Control	0.6744	0.0	Yes	2.929	0.021	n/a	GoodResponse	0	n/a	n/a	6	42	Cue	Neutral	True
401.372	3.85	Control	0.6744	0.0	Yes	2.929	0.001	n/a	GoodResponse	0	n/a	n/a	6	42	Fixation	Neutral	True
405.216	0.27	Control	0.6744	0.005	Yes	2.929	-0.005	4.0	GoodResponse	0	0.221	404.437	6	42	Target	Neutral	True
405.437	0.3	Control	0.6744	0.005	Yes	2.929	-0.005	4.0	GoodResponse	0	0.221	n/a	6	42	ButtonPress	Neutral	True
405.501	0.43	Control	0.6744	n/a	Yes	2.929	n/a	n/a	GoodResponse	0	n/a	n/a	6	42	Blank	Neutral	True
405.919	1.45	Control	0.6744	n/a	Yes	2.929	n/a	5.0	GoodResponse	0	0.007	404.926	6	42	Feedback	Neutral	True
407.373	2.929	Control	0.6744	n/a	Yes	2.929	n/a	n/a	GoodResponse	0	0.0	n/a	6	42	ISIslide	Neutral	True
410.315	0.25	Win2	0.6818000000000001	0.0	Yes	3.185	0.015	n/a	GoodResponse	1	n/a	n/a	7	43	Cue	Win	True
410.566	4.0	Win2	0.6818000000000001	0.0	Yes	3.185	0.001	n/a	GoodResponse	1	n/a	n/a	7	43	Fixation	Win	True
414.561	0.26	Win2	0.6818000000000001	0.004	Yes	3.185	-0.004	4.0	GoodResponse	1	0.195	413.756	7	43	Target	Win	True
414.756	0.3	Win2	0.6818000000000001	0.004	Yes	3.185	-0.004	4.0	GoodResponse	1	0.195	n/a	7	43	ButtonPress	Win	True
414.828	0.44	Win2	0.6818000000000001	n/a	Yes	3.185	n/a	n/a	GoodResponse	1	n/a	n/a	7	43	Blank	Win	True
415.263	1.45	Win2	0.6818000000000001	n/a	Yes	3.185	n/a	5.0	GoodResponse	1	0.024	414.287	7	43	Feedback	Win	True
416.717	3.185	Win2	0.6818000000000001	n/a	Yes	3.185	n/a	n/a	GoodResponse	1	0.0	n/a	7	43	ISIslide	Win	True
419.927	0.25	Win2	0.6889	0.0	Yes	2.973	0.027	n/a	GoodResponse	1	n/a	n/a	8	44	Cue	Win	True
420.178	4.0	Win2	0.6889	0.0	Yes	2.973	0.001	n/a	GoodResponse	1	n/a	n/a	8	44	Fixation	Win	True
424.173	0.25	Win2	0.6889	0.004	Yes	2.973	-0.004	4.0	GoodResponse	1	0.226	423.399	8	44	Target	Win	True
424.399	0.3	Win2	0.6889	0.004	Yes	2.973	-0.004	4.0	GoodResponse	1	0.226	n/a	8	44	ButtonPress	Win	True
424.424	0.45	Win2	0.6889	n/a	Yes	2.973	n/a	n/a	GoodResponse	1	n/a	n/a	8	44	Blank	Win	True
424.875	1.45	Win2	0.6889	n/a	Yes	2.973	n/a	5.0	GoodResponse	1	0.022	423.897	8	44	Feedback	Win	True
426.33	2.973	Win2	0.6889	n/a	Yes	2.973	n/a	n/a	GoodResponse	1	0.0	n/a	8	44	ISIslide	Win	True
429.322	0.25	Control	0.6739	0.0	No	2.878	0.022	n/a	NoResponse	0	n/a	n/a	8	45	Cue	Neutral	True
429.573	4.1	Control	0.6739	0.0	No	2.878	0.001	n/a	NoResponse	0	n/a	n/a	8	45	Fixation	Neutral	True
433.668	0.24	Control	0.6739	0.004	No	2.878	-0.004	4.0	NoResponse	0	0.263	432.931	8	45	Target	Neutral	True
433.919	0.46	Control	0.6739	n/a	No	2.878	n/a	n/a	NoResponse	0	n/a	n/a	8	45	Blank	Neutral	True
433.931	0.3	Control	0.6739	0.004	No	2.878	-0.004	4.0	NoResponse	0	0.263	n/a	8	45	ButtonPress	Neutral	True
434.37	1.45	Control	0.6739	n/a	No	2.878	n/a	5.0	NoResponse	0	0.039	433.409	8	45	Feedback	Neutral	True
435.825	2.878	Control	0.6739	n/a	No	2.878	n/a	n/a	NoResponse	0	0.0	n/a	8	45	ISIslide	Neutral	True
438.717	0.25	Lose2	0.6809000000000001	0.0	Yes	3.383	0.017	n/a	GoodResponse	0	n/a	n/a	8	46	Cue	AvoidedLoss	True
438.967	4.0	Lose2	0.6809000000000001	0.0	Yes	3.383	0.0	n/a	GoodResponse	0	n/a	n/a	8	46	Fixation	AvoidedLoss	True
442.963	0.23	Lose2	0.6809000000000001	0.004	Yes	3.383	-0.004	4.0	GoodResponse	0	0.189	442.152	8	46	Target	AvoidedLoss	True
443.152	0.3	Lose2	0.6809000000000001	0.004	Yes	3.383	-0.004	4.0	GoodResponse	0	0.189	n/a	8	46	ButtonPress	AvoidedLoss	True
443.197	0.47	Lose2	0.6809000000000001	n/a	Yes	3.383	n/a	n/a	GoodResponse	0	n/a	n/a	8	46	Blank	AvoidedLoss	True
443.665	1.45	Lose2	0.6809000000000001	n/a	Yes	3.383	n/a	5.0	GoodResponse	0	0.011	442.676	8	46	Feedback	AvoidedLoss	True
445.119	3.383	Lose2	0.6809000000000001	n/a	Yes	3.383	n/a	n/a	GoodResponse	0	0.0	n/a	8	46	ISIslide	AvoidedLoss	True
448.529	0.25	Lose2	0.6875	0.0	Yes	2.671	0.029	n/a	GoodResponse	0	n/a	n/a	8	47	Cue	AvoidedLoss	True
448.78	4.0	Lose2	0.6875	0.0	Yes	2.671	0.001	n/a	GoodResponse	0	n/a	n/a	8	47	Fixation	AvoidedLoss	True
452.775	0.22	Lose2	0.6875	0.004	Yes	2.671	-0.004	4.0	GoodResponse	0	0.214	451.989	8	47	Target	AvoidedLoss	True
452.989	0.3	Lose2	0.6875	0.004	Yes	2.671	-0.004	4.0	GoodResponse	0	0.214	n/a	8	47	ButtonPress	AvoidedLoss	True
453.009	0.48	Lose2	0.6875	n/a	Yes	2.671	n/a	n/a	GoodResponse	0	n/a	n/a	8	47	Blank	AvoidedLoss	True
453.477	1.45	Lose2	0.6875	n/a	Yes	2.671	n/a	5.0	GoodResponse	0	0.007	452.484	8	47	Feedback	AvoidedLoss	True
454.932	2.671	Lose2	0.6875	n/a	Yes	2.671	n/a	n/a	GoodResponse	0	0.0	n/a	8	47	ISIslide	AvoidedLoss	True
457.623	0.25	Lose2	0.6735	0.0	No	3.027	0.023	n/a	LatePress	-1	n/a	n/a	7	48	Cue	Loss	True
457.874	3.95	Lose2	0.6735	0.0	No	3.027	0.001	n/a	LatePress	-1	n/a	n/a	7	48	Fixation	Loss	True
461.819	0.21	Lose2	0.6735	0.004	No	3.027	-0.004	4.0	LatePress	-1	0.214	461.033	7	48	Target	Loss	True
462.033	0.3	Lose2	0.6735	0.004	No	3.027	-0.004	4.0	LatePress	-1	0.214	n/a	7	48	ButtonPress	Loss	True
462.036	0.49	Lose2	0.6735	n/a	No	3.027	n/a	n/a	LatePress	-1	n/a	n/a	7	48	Blank	Loss	True
462.521	1.45	Lose2	0.6735	n/a	No	3.027	n/a	5.0	LatePress	-1	0.034	461.555	7	48	Feedback	Loss	True
463.975	3.027	Lose2	0.6735	n/a	No	3.027	n/a	n/a	LatePress	-1	0.0	n/a	7	48	ISIslide	Loss	True
467.018	0.25	Control	0.66	0.0	No	2.882	0.018	n/a	PrematurePress	0	n/a	n/a	7	49	Cue	Neutral	True
467.269	4.0	Control	0.66	0.0	No	2.882	0.001	n/a	PrematurePress	0	n/a	n/a	7	49	Fixation	Neutral	True
471.264	0.2	Control	0.66	0.004	No	2.882	-0.004	4.0	PrematurePress	0	0.008	470.272	7	49	Target	Neutral	True
471.272	0.3	Control	0.66	0.004	No	2.882	-0.004	4.0	PrematurePress	0	0.008	n/a	7	49	ButtonPress	Neutral	True
471.465	0.5	Control	0.66	n/a	No	2.882	n/a	n/a	PrematurePress	0	n/a	n/a	7	49	Blank	Neutral	True
471.966	1.45	Control	0.66	n/a	No	2.882	n/a	5.0	PrematurePress	0	0.007	470.973	7	49	Feedback	Neutral	True
473.42	2.882	Control	0.66	n/a	No	2.882	n/a	n/a	PrematurePress	0	0.0	n/a	7	49	ISIslide	Neutral	True
476.329	0.25	Control	0.6470999999999999	0.0	No	2.771	0.029	n/a	NoResponse	0	n/a	n/a	7	50	Cue	Neutral	True
476.58	4.0	Control	0.6470999999999999	0.0	No	2.771	0.001	n/a	NoResponse	0	n/a	n/a	7	50	Fixation	Neutral	True
480.575	0.2	Control	0.6470999999999999	0.004	No	2.771	-0.004	4.0	NoResponse	0	0.231	479.806	7	50	Target	Neutral	True
480.776	0.5	Control	0.6470999999999999	n/a	No	2.771	n/a	n/a	NoResponse	0	n/a	n/a	7	50	Blank	Neutral	True
480.806	0.3	Control	0.6470999999999999	0.004	No	2.771	-0.004	4.0	NoResponse	0	0.231	n/a	7	50	ButtonPress	Neutral	True
481.277	1.45	Control	0.6470999999999999	n/a	No	2.771	n/a	5.0	NoResponse	0	0.01	480.287	7	50	Feedback	Neutral	True
482.732	2.771	Control	0.6470999999999999	n/a	No	2.771	n/a	n/a	NoResponse	0	0.0	n/a	7	50	ISIslide	Neutral	True
485.523	0.25	Control	0.6537999999999999	0.0	Yes	2.727	0.023	n/a	GoodResponse	0	n/a	n/a	7	51	Cue	Neutral	True
485.774	3.95	Control	0.6537999999999999	0.0	Yes	2.727	0.001	n/a	GoodResponse	0	n/a	n/a	7	51	Fixation	Neutral	True
489.719	0.21	Control	0.6537999999999999	0.004	Yes	2.727	-0.004	4.0	GoodResponse	0	0.177	488.896	7	51	Target	Neutral	True
489.896	0.3	Control	0.6537999999999999	0.004	Yes	2.727	-0.004	4.0	GoodResponse	0	0.177	n/a	7	51	ButtonPress	Neutral	True
489.936	0.49	Control	0.6537999999999999	n/a	Yes	2.727	n/a	n/a	GoodResponse	0	n/a	n/a	7	51	Blank	Neutral	True
490.421	1.45	Control	0.6537999999999999	n/a	Yes	2.727	n/a	5.0	GoodResponse	0	0.035	489.456	7	51	Feedback	Neutral	True
491.876	2.727	Control	0.6537999999999999	n/a	Yes	2.727	n/a	n/a	GoodResponse	0	0.0	n/a	7	51	ISIslide	Neutral	True
494.617	0.25	Control	0.6415000000000001	0.0	No	2.633	0.017	n/a	NoResponse	0	n/a	n/a	7	52	Cue	Neutral	False
494.868	4.05	Control	0.6415000000000001	0.0	No	2.633	0.001	n/a	NoResponse	0	n/a	n/a	7	52	Fixation	Neutral	False
498.913	0.22	Control	0.6415000000000001	0.004	No	2.633	-0.004	n/a	NoResponse	0	n/a	n/a	7	52	Target	Neutral	False
499.147	0.48	Control	0.6415000000000001	n/a	No	2.633	n/a	n/a	NoResponse	0	n/a	n/a	7	52	Blank	Neutral	False
499.615	1.45	Control	0.6415000000000001	n/a	No	2.633	n/a	5.0	NoResponse	0	0.012	498.627	7	52	Feedback	Neutral	False
501.07	2.633	Control	0.6415000000000001	n/a	No	2.633	n/a	n/a	NoResponse	0	0.0	n/a	7	52	ISIslide	Neutral	False
503.728	0.25	Win2	0.6481	0.0	Yes	2.922	0.028	n/a	GoodResponse	1	n/a	n/a	8	53	Cue	Win	True
503.978	4.05	Win2	0.6481	0.0	Yes	2.922	0.0	n/a	GoodResponse	1	n/a	n/a	8	53	Fixation	Win	True
508.024	0.23	Win2	0.6481	0.004	Yes	2.922	-0.004	4.0	GoodResponse	1	0.183	507.207	8	53	Target	Win	True
508.207	0.3	Win2	0.6481	0.004	Yes	2.922	-0.004	4.0	GoodResponse	1	0.183	n/a	8	53	ButtonPress	Win	True
508.258	0.47	Win2	0.6481	n/a	Yes	2.922	n/a	n/a	GoodResponse	1	n/a	n/a	8	53	Blank	Win	True
508.726	1.45	Win2	0.6481	n/a	Yes	2.922	n/a	5.0	GoodResponse	1	0.023	507.749	8	53	Feedback	Win	True
510.18	2.922	Win2	0.6481	n/a	Yes	2.922	n/a	n/a	GoodResponse	1	0.0	n/a	8	53	ISIslide	Win	True
513.122	0.25	Win2	0.6545000000000001	0.0	Yes	2.728	0.022	n/a	GoodResponse	1	n/a	n/a	9	54	Cue	Win	True
513.373	3.95	Win2	0.6545000000000001	0.0	Yes	2.728	0.001	n/a	GoodResponse	1	n/a	n/a	9	54	Fixation	Win	True
517.318	0.24	Win2	0.6545000000000001	0.004	Yes	2.728	-0.004	4.0	GoodResponse	1	0.164	516.482	9	54	Target	Win	True
517.482	0.3	Win2	0.6545000000000001	0.004	Yes	2.728	-0.004	4.0	GoodResponse	1	0.164	n/a	9	54	ButtonPress	Win	True
517.569	0.46	Win2	0.6545000000000001	n/a	Yes	2.728	n/a	n/a	GoodResponse	1	n/a	n/a	9	54	Blank	Win	True
518.02	1.45	Win2	0.6545000000000001	n/a	Yes	2.728	n/a	5.0	GoodResponse	1	0.046	517.066	9	54	Feedback	Win	True
519.475	2.728	Win2	0.6545000000000001	n/a	Yes	2.728	n/a	n/a	GoodResponse	1	0.0	n/a	9	54	ISIslide	Win	True
522.216	0.25	Control	0.6607	0.0	Yes	3.034	0.016	n/a	GoodResponse	0	n/a	n/a	9	55	Cue	Neutral	False
522.467	3.95	Control	0.6607	0.0	Yes	3.034	0.001	4.0	GoodResponse	0	1.701	523.168	9	55	Fixation	Neutral	False
524.168	0.3	Control	0.6607	0.0	Yes	3.034	0.001	4.0	GoodResponse	0	1.701	n/a	9	55	ButtonPress	Neutral	False
526.412	0.25	Control	0.6607	0.004	Yes	3.034	-0.004	4.0	GoodResponse	0	0.223	525.635	9	55	Target	Neutral	False
526.635	0.3	Control	0.6607	0.004	Yes	3.034	-0.004	4.0	GoodResponse	0	0.223	n/a	9	55	ButtonPress	Neutral	False
526.663	0.45	Control	0.6607	n/a	Yes	3.034	n/a	n/a	GoodResponse	0	n/a	n/a	9	55	Blank	Neutral	False
527.114	1.45	Control	0.6607	n/a	Yes	3.034	n/a	5.0	GoodResponse	0	0.026	526.14	9	55	Feedback	Neutral	False
528.569	3.034	Control	0.6607	n/a	Yes	3.034	n/a	n/a	GoodResponse	0	0.0	n/a	9	55	ISIslide	Neutral	False
531.628	0.25	Control	0.6667000000000001	0.0	Yes	2.822	0.028	n/a	GoodResponse	0	n/a	n/a	9	56	Cue	Neutral	True
531.878	3.95	Control	0.6667000000000001	0.001	Yes	2.822	0.0	n/a	GoodResponse	0	n/a	n/a	9	56	Fixation	Neutral	True
535.824	0.25	Control	0.6667000000000001	0.004	Yes	2.822	-0.004	4.0	GoodResponse	0	0.208	535.032	9	56	Target	Neutral	True
536.032	0.3	Control	0.6667000000000001	0.004	Yes	2.822	-0.004	4.0	GoodResponse	0	0.208	n/a	9	56	ButtonPress	Neutral	True
536.074	0.45	Control	0.6667000000000001	n/a	Yes	2.822	n/a	n/a	GoodResponse	0	n/a	n/a	9	56	Blank	Neutral	True
536.526	1.45	Control	0.6667000000000001	n/a	Yes	2.822	n/a	5.0	GoodResponse	0	0.027	535.553	9	56	Feedback	Neutral	True
537.98	2.822	Control	0.6667000000000001	n/a	Yes	2.822	n/a	n/a	GoodResponse	0	0.0	n/a	9	56	ISIslide	Neutral	True
540.822	0.25	Control	0.6724	0.0	Yes	3.478	0.022	n/a	GoodResponse	0	n/a	n/a	9	57	Cue	Neutral	True
541.073	4.0	Control	0.6724	0.0	Yes	3.478	0.001	n/a	GoodResponse	0	n/a	n/a	9	57	Fixation	Neutral	True
545.068	0.24	Control	0.6724	0.004	Yes	3.478	-0.004	4.0	GoodResponse	0	0.18	544.248	9	57	Target	Neutral	True
545.248	0.3	Control	0.6724	0.004	Yes	3.478	-0.004	4.0	GoodResponse	0	0.18	n/a	9	57	ButtonPress	Neutral	True
545.319	0.46	Control	0.6724	n/a	Yes	3.478	n/a	n/a	GoodResponse	0	n/a	n/a	9	57	Blank	Neutral	True
545.77	1.45	Control	0.6724	n/a	Yes	3.478	n/a	5.0	GoodResponse	0	0.007	544.777	9	57	Feedback	Neutral	True
547.224	3.478	Control	0.6724	n/a	Yes	3.478	n/a	n/a	GoodResponse	0	0.0	n/a	9	57	ISIslide	Neutral	True
550.718	0.25	Win2	0.6779999999999999	0.0	Yes	2.732	0.018	n/a	GoodResponse	1	n/a	n/a	10	58	Cue	Win	True
550.969	4.05	Win2	0.6779999999999999	0.0	Yes	2.732	0.001	n/a	GoodResponse	1	n/a	n/a	10	58	Fixation	Win	True
555.014	0.23	Win2	0.6779999999999999	0.004	Yes	2.732	-0.004	4.0	GoodResponse	1	0.185	554.199	10	58	Target	Win	True
555.199	0.3	Win2	0.6779999999999999	0.004	Yes	2.732	-0.004	4.0	GoodResponse	1	0.185	n/a	10	58	ButtonPress	Win	True
555.248	0.47	Win2	0.6779999999999999	n/a	Yes	2.732	n/a	n/a	GoodResponse	1	n/a	n/a	10	58	Blank	Win	True
555.716	1.45	Win2	0.6779999999999999	n/a	Yes	2.732	n/a	5.0	GoodResponse	1	0.008	554.724	10	58	Feedback	Win	True
557.171	2.732	Win2	0.6779999999999999	n/a	Yes	2.732	n/a	n/a	GoodResponse	1	0.0	n/a	10	58	ISIslide	Win	True
559.929	0.25	Lose2	0.6833	0.0	Yes	2.671	0.029	n/a	GoodResponse	0	n/a	n/a	10	59	Cue	AvoidedLoss	True
560.18	4.0	Lose2	0.6833	0.0	Yes	2.671	0.001	n/a	GoodResponse	0	n/a	n/a	10	59	Fixation	AvoidedLoss	True
564.175	0.22	Lose2	0.6833	0.004	Yes	2.671	-0.004	4.0	GoodResponse	0	0.176	563.351	10	59	Target	AvoidedLoss	True
564.351	0.3	Lose2	0.6833	0.004	Yes	2.671	-0.004	4.0	GoodResponse	0	0.176	n/a	10	59	ButtonPress	AvoidedLoss	True
564.409	0.48	Lose2	0.6833	n/a	Yes	2.671	n/a	n/a	GoodResponse	0	n/a	n/a	10	59	Blank	AvoidedLoss	True
564.877	1.45	Lose2	0.6833	n/a	Yes	2.671	n/a	5.0	GoodResponse	0	0.018	563.895	10	59	Feedback	AvoidedLoss	True
566.331	2.671	Lose2	0.6833	n/a	Yes	2.671	n/a	n/a	GoodResponse	0	0.0	n/a	10	59	ISIslide	AvoidedLoss	True
569.023	0.25	Control	0.6720999999999999	0.0	No	2.677	0.023	n/a	LatePress	0	n/a	n/a	10	60	Cue	Neutral	True
569.274	4.0	Control	0.6720999999999999	0.0	No	2.677	0.001	n/a	LatePress	0	n/a	n/a	10	60	Fixation	Neutral	True
573.269	0.21	Control	0.6720999999999999	0.004	No	2.677	-0.004	4.0	LatePress	0	0.214	572.483	10	60	Target	Neutral	True
573.483	0.3	Control	0.6720999999999999	0.004	No	2.677	-0.004	4.0	LatePress	0	0.214	n/a	10	60	ButtonPress	Neutral	True
573.486	0.49	Control	0.6720999999999999	n/a	No	2.677	n/a	n/a	LatePress	0	n/a	n/a	10	60	Blank	Neutral	True
573.971	1.45	Control	0.6720999999999999	n/a	No	2.677	n/a	5.0	LatePress	0	0.045	573.016	10	60	Feedback	Neutral	True
575.425	2.677	Control	0.6720999999999999	n/a	No	2.677	n/a	4.0	LatePress	0	1.181	n/a	10	60	ISIslide	Neutral	True
578.1	0.25	Lose2	0.6774	0.0	Yes	3.0	0.0	n/a	GoodResponse	0	n/a	n/a	10	61	Cue	AvoidedLoss	True
578.351	4.0	Lose2	0.6774	0.0	Yes	3.0	0.001	n/a	GoodResponse	0	n/a	n/a	10	61	Fixation	AvoidedLoss	True
582.346	0.2	Lose2	0.6774	0.004	Yes	3.0	-0.004	4.0	GoodResponse	0	0.178	581.524	10	61	Target	AvoidedLoss	True
582.524	0.3	Lose2	0.6774	0.004	Yes	3.0	-0.004	4.0	GoodResponse	0	0.178	n/a	10	61	ButtonPress	AvoidedLoss	True
582.547	0.5	Lose2	0.6774	n/a	Yes	3.0	n/a	n/a	GoodResponse	0	n/a	n/a	10	61	Blank	AvoidedLoss	True
583.048	1.45	Lose2	0.6774	n/a	Yes	3.0	n/a	5.0	GoodResponse	0	0.041	582.089	10	61	Feedback	AvoidedLoss	True
584.502	3.0	Lose2	0.6774	n/a	Yes	3.0	n/a	n/a	GoodResponse	0	0.0	n/a	10	61	ISIslide	AvoidedLoss	True
587.528	0.25	Lose2	0.6667000000000001	0.0	No	2.872	0.028	n/a	NoResponse	-1	n/a	n/a	9	62	Cue	Loss	True
587.779	3.9	Lose2	0.6667000000000001	0.0	No	2.872	0.001	n/a	NoResponse	-1	n/a	n/a	9	62	Fixation	Loss	True
591.674	0.19	Lose2	0.6667000000000001	0.004	No	2.872	-0.004	4.0	NoResponse	-1	0.223	590.897	9	62	Target	Loss	True
591.875	0.51	Lose2	0.6667000000000001	n/a	No	2.872	n/a	n/a	NoResponse	-1	n/a	n/a	9	62	Blank	Loss	True
591.897	0.3	Lose2	0.6667000000000001	0.004	No	2.872	-0.004	4.0	NoResponse	-1	0.223	n/a	9	62	ButtonPress	Loss	True
592.376	1.45	Lose2	0.6667000000000001	n/a	No	2.872	n/a	5.0	NoResponse	-1	0.031	591.407	9	62	Feedback	Loss	True
593.83	2.872	Lose2	0.6667000000000001	n/a	No	2.872	n/a	n/a	NoResponse	-1	0.0	n/a	9	62	ISIslide	Loss	True
596.722	0.25	Lose2	0.6718999999999999	0.0	Yes	2.628	0.022	n/a	GoodResponse	0	n/a	n/a	9	63	Cue	AvoidedLoss	True
596.973	4.05	Lose2	0.6718999999999999	0.0	Yes	2.628	0.001	n/a	GoodResponse	0	n/a	n/a	9	63	Fixation	AvoidedLoss	True
601.019	0.18	Lose2	0.6718999999999999	0.003	Yes	2.628	-0.003	4.0	GoodResponse	0	0.179	600.198	9	63	Target	AvoidedLoss	True
601.198	0.3	Lose2	0.6718999999999999	0.003	Yes	2.628	-0.003	4.0	GoodResponse	0	0.179	n/a	9	63	ButtonPress	AvoidedLoss	True
601.202	0.52	Lose2	0.6718999999999999	n/a	Yes	2.628	n/a	n/a	GoodResponse	0	n/a	n/a	9	63	Blank	AvoidedLoss	True
601.721	1.45	Lose2	0.6718999999999999	n/a	Yes	2.628	n/a	5.0	GoodResponse	0	0.003	600.724	9	63	Feedback	AvoidedLoss	True
603.175	2.628	Lose2	0.6718999999999999	n/a	Yes	2.628	n/a	n/a	GoodResponse	0	0.0	n/a	9	63	ISIslide	AvoidedLoss	True
605.816	0.25	Win2	0.6615000000000001	0.0	No	3.134	0.016	n/a	LatePress	0	n/a	n/a	9	64	Cue	MissedWin	True
606.067	4.15	Win2	0.6615000000000001	0.0	No	3.134	0.001	n/a	LatePress	0	n/a	n/a	9	64	Fixation	MissedWin	True
610.213	0.17	Win2	0.6615000000000001	0.003	No	3.134	-0.003	4.0	LatePress	0	0.179	609.392	9	64	Target	MissedWin	True
610.392	0.3	Win2	0.6615000000000001	0.003	No	3.134	-0.003	4.0	LatePress	0	0.179	n/a	9	64	ButtonPress	MissedWin	True
610.397	0.53	Win2	0.6615000000000001	n/a	No	3.134	n/a	n/a	LatePress	0	n/a	n/a	9	64	Blank	MissedWin	True
610.915	1.45	Win2	0.6615000000000001	n/a	No	3.134	n/a	5.0	LatePress	0	0.028	609.943	9	64	Feedback	MissedWin	True
612.369	3.134	Win2	0.6615000000000001	n/a	No	3.134	n/a	n/a	LatePress	0	0.0	n/a	9	64	ISIslide	MissedWin	True
615.529	0.25	Control	0.6515000000000001	0.0	No	2.771	0.029	n/a	NoResponse	0	n/a	n/a	9	65	Cue	Neutral	True
615.779	4.0	Control	0.6515000000000001	0.0	No	2.771	0.0	n/a	NoResponse	0	n/a	n/a	9	65	Fixation	Neutral	True
619.775	0.17	Control	0.6515000000000001	0.004	No	2.771	-0.004	4.0	NoResponse	0	0.231	619.006	9	65	Target	Neutral	True
619.958	0.53	Control	0.6515000000000001	n/a	No	2.771	n/a	n/a	NoResponse	0	n/a	n/a	9	65	Blank	Neutral	True
620.006	0.3	Control	0.6515000000000001	0.004	No	2.771	-0.004	4.0	NoResponse	0	0.231	n/a	9	65	ButtonPress	Neutral	True
620.477	1.45	Control	0.6515000000000001	n/a	No	2.771	n/a	5.0	NoResponse	0	0.027	619.504	9	65	Feedback	Neutral	True
621.931	2.771	Control	0.6515000000000001	n/a	No	2.771	n/a	n/a	NoResponse	0	0.0	n/a	9	65	ISIslide	Neutral	True
624.723	0.25	Win2	0.6418	0.0	No	2.777	0.023	n/a	NoResponse	0	n/a	n/a	9	66	Cue	MissedWin	True
624.973	3.9	Win2	0.6418	0.001	No	2.777	0.0	n/a	NoResponse	0	n/a	n/a	9	66	Fixation	MissedWin	True
628.885	0.18	Win2	0.6418	0.0	No	2.777	0.012	4.0	NoResponse	0	0.173	628.058	9	66	Target	MissedWin	True
629.052	0.52	Win2	0.6418	n/a	No	2.777	n/a	n/a	NoResponse	0	n/a	n/a	9	66	Blank	MissedWin	True
629.058	0.3	Win2	0.6418	0.0	No	2.777	0.012	4.0	NoResponse	0	0.173	n/a	9	66	ButtonPress	MissedWin	True
629.571	1.45	Win2	0.6418	n/a	No	2.777	n/a	5.0	NoResponse	0	0.006	628.577	9	66	Feedback	MissedWin	True
631.025	2.777	Win2	0.6418	n/a	No	2.777	n/a	n/a	NoResponse	0	0.0	n/a	9	66	ISIslide	MissedWin	True
633.817	0.25	Control	0.6324000000000001	0.0	No	2.733	0.017	n/a	NoResponse	0	n/a	n/a	9	67	Cue	Neutral	True
634.067	3.95	Control	0.6324000000000001	0.0	No	2.733	0.0	n/a	NoResponse	0	n/a	n/a	9	67	Fixation	Neutral	True
638.029	0.19	Control	0.6324000000000001	0.0	No	2.733	0.012	4.0	NoResponse	0	0.265	637.294	9	67	Target	Neutral	True
638.213	0.51	Control	0.6324000000000001	n/a	No	2.733	n/a	n/a	NoResponse	0	n/a	n/a	9	67	Blank	Neutral	True
638.294	0.3	Control	0.6324000000000001	0.0	No	2.733	0.012	4.0	NoResponse	0	0.265	n/a	9	67	ButtonPress	Neutral	True
638.715	1.45	Control	0.6324000000000001	n/a	No	2.733	n/a	5.0	NoResponse	0	0.033	637.748	9	67	Feedback	Neutral	True
640.169	2.733	Control	0.6324000000000001	n/a	No	2.733	n/a	n/a	NoResponse	0	0.0	n/a	9	67	ISIslide	Neutral	True
642.927	0.25	Win2	0.6377	0.0	Yes	3.073	0.027	n/a	GoodResponse	1	n/a	n/a	10	68	Cue	Win	True
643.178	4.0	Win2	0.6377	0.0	Yes	3.073	0.001	n/a	GoodResponse	1	n/a	n/a	10	68	Fixation	Win	True
647.173	0.2	Win2	0.6377	0.004	Yes	3.073	-0.004	4.0	GoodResponse	1	0.19	646.363	10	68	Target	Win	True
647.363	0.3	Win2	0.6377	0.004	Yes	3.073	-0.004	4.0	GoodResponse	1	0.19	n/a	10	68	ButtonPress	Win	True
647.374	0.5	Win2	0.6377	n/a	Yes	3.073	n/a	n/a	GoodResponse	1	n/a	n/a	10	68	Blank	Win	True
647.875	1.45	Win2	0.6377	n/a	Yes	3.073	n/a	5.0	GoodResponse	1	0.043	646.918	10	68	Feedback	Win	True
649.33	3.073	Win2	0.6377	n/a	Yes	3.073	n/a	n/a	GoodResponse	1	0.0	n/a	10	68	ISIslide	Win	True
652.422	0.25	Win2	0.6429	0.0	Yes	3.228	0.022	n/a	GoodResponse	1	n/a	n/a	11	69	Cue	Win	True
652.673	3.95	Win2	0.6429	0.0	Yes	3.228	0.001	n/a	GoodResponse	1	n/a	n/a	11	69	Fixation	Win	True
656.618	0.21	Win2	0.6429	0.004	Yes	3.228	-0.004	4.0	GoodResponse	1	0.199	655.817	11	69	Target	Win	True
656.817	0.3	Win2	0.6429	0.004	Yes	3.228	-0.004	4.0	GoodResponse	1	0.199	n/a	11	69	ButtonPress	Win	True
656.835	0.49	Win2	0.6429	n/a	Yes	3.228	n/a	n/a	GoodResponse	1	n/a	n/a	11	69	Blank	Win	True
657.32	1.45	Win2	0.6429	n/a	Yes	3.228	n/a	5.0	GoodResponse	1	0.013	656.333	11	69	Feedback	Win	True
658.775	3.228	Win2	0.6429	n/a	Yes	3.228	n/a	n/a	GoodResponse	1	0.0	n/a	11	69	ISIslide	Win	True
662.018	0.25	Lose2	0.6479	0.0	Yes	3.032	0.018	n/a	GoodResponse	0	n/a	n/a	11	70	Cue	AvoidedLoss	True
662.268	4.05	Lose2	0.6479	0.0	Yes	3.032	0.0	n/a	GoodResponse	0	n/a	n/a	11	70	Fixation	AvoidedLoss	True
666.314	0.22	Lose2	0.6479	0.004	Yes	3.032	-0.004	4.0	GoodResponse	0	0.167	665.481	11	70	Target	AvoidedLoss	True
666.481	0.3	Lose2	0.6479	0.004	Yes	3.032	-0.004	4.0	GoodResponse	0	0.167	n/a	11	70	ButtonPress	AvoidedLoss	True
666.548	0.48	Lose2	0.6479	n/a	Yes	3.032	n/a	n/a	GoodResponse	0	n/a	n/a	11	70	Blank	AvoidedLoss	True
667.016	1.45	Lose2	0.6479	n/a	Yes	3.032	n/a	5.0	GoodResponse	0	0.024	666.04	11	70	Feedback	AvoidedLoss	True
668.47	3.032	Lose2	0.6479	n/a	Yes	3.032	n/a	n/a	GoodResponse	0	0.0	n/a	11	70	ISIslide	AvoidedLoss	True
671.529	0.25	Win2	0.6389	0.0	No	2.721	0.029	n/a	NoResponse	0	n/a	n/a	11	71	Cue	MissedWin	True
671.78	4.05	Win2	0.6389	0.0	No	2.721	0.001	n/a	NoResponse	0	n/a	n/a	11	71	Fixation	MissedWin	True
675.826	0.23	Win2	0.6389	0.003	No	2.721	-0.003	4.0	NoResponse	0	0.246	675.072	11	71	Target	MissedWin	True
676.06	0.47	Win2	0.6389	n/a	No	2.721	n/a	n/a	NoResponse	0	n/a	n/a	11	71	Blank	MissedWin	True
676.072	0.3	Win2	0.6389	0.003	No	2.721	-0.003	4.0	NoResponse	0	0.246	n/a	11	71	ButtonPress	MissedWin	True
676.528	1.45	Win2	0.6389	n/a	No	2.721	n/a	5.0	NoResponse	0	0.024	675.552	11	71	Feedback	MissedWin	True
677.982	2.721	Win2	0.6389	n/a	No	2.721	n/a	n/a	NoResponse	0	0.0	n/a	11	71	ISIslide	MissedWin	True
680.723	0.25	Win2	0.6437999999999999	0.001	Yes	2.777	0.023	n/a	GoodResponse	1	n/a	n/a	12	72	Cue	Win	False
680.974	4.1	Win2	0.6437999999999999	0.0	Yes	2.777	0.001	4.0	GoodResponse	1	3.706	683.68	12	72	Fixation	Win	False
684.68	0.3	Win2	0.6437999999999999	0.0	Yes	2.777	0.001	4.0	GoodResponse	1	3.706	n/a	12	72	ButtonPress	Win	False
685.07	0.24	Win2	0.6437999999999999	0.003	Yes	2.777	-0.003	4.0	GoodResponse	1	0.1	684.17	12	72	Target	Win	False
685.17	0.3	Win2	0.6437999999999999	0.003	Yes	2.777	-0.003	4.0	GoodResponse	1	0.1	n/a	12	72	ButtonPress	Win	False
685.321	0.46	Win2	0.6437999999999999	n/a	Yes	2.777	n/a	n/a	GoodResponse	1	n/a	n/a	12	72	Blank	Win	False
685.772	1.45	Win2	0.6437999999999999	n/a	Yes	2.777	n/a	5.0	GoodResponse	1	0.048	684.82	12	72	Feedback	Win	False
687.226	2.777	Win2	0.6437999999999999	n/a	Yes	2.777	n/a	n/a	GoodResponse	1	0.0	n/a	12	72	ISIslide	Win	False
690.018	0.25	Win2	0.6486	0.0	Yes	2.682	0.018	n/a	GoodResponse	1	n/a	n/a	13	73	Cue	Win	True
690.269	4.0	Win2	0.6486	0.0	Yes	2.682	0.001	n/a	GoodResponse	1	n/a	n/a	13	73	Fixation	Win	True
694.264	0.25	Win2	0.6486	0.004	Yes	2.682	-0.004	4.0	GoodResponse	1	0.184	693.448	13	73	Target	Win	True
694.448	0.3	Win2	0.6486	0.004	Yes	2.682	-0.004	4.0	GoodResponse	1	0.184	n/a	13	73	ButtonPress	Win	True
694.515	0.45	Win2	0.6486	n/a	Yes	2.682	n/a	n/a	GoodResponse	1	n/a	n/a	13	73	Blank	Win	True
694.966	1.45	Win2	0.6486	n/a	Yes	2.682	n/a	5.0	GoodResponse	1	0.025	693.991	13	73	Feedback	Win	True
696.42	2.682	Win2	0.6486	n/a	Yes	2.682	n/a	n/a	GoodResponse	1	0.0	n/a	13	73	ISIslide	Win	True
699.129	0.25	Lose2	0.6533	0.0	Yes	2.621	0.029	n/a	GoodResponse	0	n/a	n/a	13	74	Cue	AvoidedLoss	True
699.379	4.05	Lose2	0.6533	0.0	Yes	2.621	0.0	n/a	GoodResponse	0	n/a	n/a	13	74	Fixation	AvoidedLoss	True
703.425	0.26	Lose2	0.6533	0.004	Yes	2.621	-0.004	4.0	GoodResponse	0	0.186	702.611	13	74	Target	AvoidedLoss	True
703.611	0.3	Lose2	0.6533	0.004	Yes	2.621	-0.004	4.0	GoodResponse	0	0.186	n/a	13	74	ButtonPress	AvoidedLoss	True
703.692	0.44	Lose2	0.6533	n/a	Yes	2.621	n/a	n/a	GoodResponse	0	n/a	n/a	13	74	Blank	AvoidedLoss	True
704.127	1.45	Lose2	0.6533	n/a	Yes	2.621	n/a	5.0	GoodResponse	0	0.034	703.161	13	74	Feedback	AvoidedLoss	True
705.581	2.621	Lose2	0.6533	n/a	Yes	2.621	n/a	n/a	GoodResponse	0	0.0	n/a	13	74	ISIslide	AvoidedLoss	True
708.222	0.25	Lose2	0.6579	0.0	Yes	2.928	0.022	n/a	GoodResponse	0	n/a	n/a	13	75	Cue	AvoidedLoss	True
708.473	3.95	Lose2	0.6579	0.0	Yes	2.928	0.001	n/a	GoodResponse	0	n/a	n/a	13	75	Fixation	AvoidedLoss	True
712.418	0.27	Lose2	0.6579	0.004	Yes	2.928	-0.004	4.0	GoodResponse	0	0.176	711.594	13	75	Target	AvoidedLoss	True
712.594	0.3	Lose2	0.6579	0.004	Yes	2.928	-0.004	4.0	GoodResponse	0	0.176	n/a	13	75	ButtonPress	AvoidedLoss	True
712.702	0.43	Lose2	0.6579	n/a	Yes	2.928	n/a	n/a	GoodResponse	0	n/a	n/a	13	75	Blank	AvoidedLoss	True
713.12	1.45	Lose2	0.6579	n/a	Yes	2.928	n/a	5.0	GoodResponse	0	0.017	712.137	13	75	Feedback	AvoidedLoss	True
714.575	2.928	Lose2	0.6579	n/a	Yes	2.928	n/a	n/a	GoodResponse	0	0.0	n/a	13	75	ISIslide	AvoidedLoss	True
717.517	0.25	Control	0.6494	0.0	No	3.233	0.017	n/a	NoResponse	0	n/a	n/a	13	76	Cue	Neutral	True
717.768	4.05	Control	0.6494	0.0	No	3.233	0.001	4.0	NoResponse	0	4.035	720.803	13	76	Fixation	Neutral	True
721.803	0.3	Control	0.6494	0.0	No	3.233	0.001	4.0	NoResponse	0	4.035	n/a	13	76	ButtonPress	Neutral	True
721.813	0.27	Control	0.6494	0.004	No	3.233	-0.004	n/a	NoResponse	0	n/a	n/a	13	76	Target	Neutral	True
722.097	0.43	Control	0.6494	n/a	No	3.233	n/a	n/a	NoResponse	0	n/a	n/a	13	76	Blank	Neutral	True
722.515	1.45	Control	0.6494	n/a	No	3.233	n/a	5.0	NoResponse	0	0.036	721.551	13	76	Feedback	Neutral	True
723.969	3.233	Control	0.6494	n/a	No	3.233	n/a	n/a	NoResponse	0	0.0	n/a	13	76	ISIslide	Neutral	True
727.229	0.25	Lose2	0.6537999999999999	0.0	Yes	2.571	0.029	n/a	GoodResponse	0	n/a	n/a	13	77	Cue	AvoidedLoss	True
727.48	3.95	Lose2	0.6537999999999999	0.0	Yes	2.571	0.001	n/a	GoodResponse	0	n/a	n/a	13	77	Fixation	AvoidedLoss	True
731.425	0.28	Lose2	0.6537999999999999	0.004	Yes	2.571	-0.004	4.0	GoodResponse	0	0.174	730.599	13	77	Target	AvoidedLoss	True
731.599	0.3	Lose2	0.6537999999999999	0.004	Yes	2.571	-0.004	4.0	GoodResponse	0	0.174	n/a	13	77	ButtonPress	AvoidedLoss	True
731.709	0.42	Lose2	0.6537999999999999	n/a	Yes	2.571	n/a	n/a	GoodResponse	0	n/a	n/a	13	77	Blank	AvoidedLoss	True
732.127	1.45	Lose2	0.6537999999999999	n/a	Yes	2.571	n/a	5.0	GoodResponse	0	0.034	731.161	13	77	Feedback	AvoidedLoss	True
733.582	2.571	Lose2	0.6537999999999999	n/a	Yes	2.571	n/a	n/a	GoodResponse	0	0.0	n/a	13	77	ISIslide	AvoidedLoss	True
