onset	duration	cue_type	current_mean_accuracy	duration_error	is_hit	isi_adjusted	onset_delay	response	response_type	reward	rt	rt_time	total_reward	trial_number	trial_phase	trial_type	one_press
11.104	0.25	Control	1.0	0.0	Yes	2.946	0.004	n/a	GoodResponse	0	n/a	n/a	0	0	Cue	Neutral	True
11.355	3.85	Control	1.0	0.0	Yes	2.946	0.001	n/a	GoodResponse	0	n/a	n/a	0	0	Fixation	Neutral	True
15.2	0.4	Control	1.0	0.004	Yes	2.946	-0.004	2.0	GoodResponse	0	0.273	14.473	0	0	Target	Neutral	True
15.473	0.3	Control	1.0	0.004	Yes	2.946	-0.004	2.0	GoodResponse	0	0.273	n/a	0	0	ButtonPress	Neutral	True
15.601	0.3	Control	1.0	n/a	Yes	2.946	n/a	n/a	GoodResponse	0	n/a	n/a	0	0	Blank	Neutral	True
15.902	1.45	Control	1.0	n/a	Yes	2.946	n/a	5.0	GoodResponse	0	0.025	14.927	0	0	Feedback	Neutral	True
17.356	2.946	Control	1.0	n/a	Yes	2.946	n/a	n/a	GoodResponse	0	0.0	n/a	0	0	ISIslide	Neutral	True
20.332	0.25	Lose2	1.0	0.0	Yes	2.768	0.032	n/a	GoodResponse	0	n/a	n/a	0	1	Cue	AvoidedLoss	True
20.583	4.0	Lose2	1.0	0.0	Yes	2.768	0.001	n/a	GoodResponse	0	n/a	n/a	0	1	Fixation	AvoidedLoss	True
24.578	0.39	Lose2	1.0	0.004	Yes	2.768	-0.004	2.0	GoodResponse	0	0.29	23.868	0	1	Target	AvoidedLoss	True
24.868	0.3	Lose2	1.0	0.004	Yes	2.768	-0.004	2.0	GoodResponse	0	0.29	n/a	0	1	ButtonPress	AvoidedLoss	True
24.979	0.31	Lose2	1.0	n/a	Yes	2.768	n/a	n/a	GoodResponse	0	n/a	n/a	0	1	Blank	AvoidedLoss	True
25.28	1.45	Lose2	1.0	n/a	Yes	2.768	n/a	5.0	GoodResponse	0	0.013	24.293	0	1	Feedback	AvoidedLoss	True
26.734	2.768	Lose2	1.0	n/a	Yes	2.768	n/a	n/a	GoodResponse	0	0.0	n/a	0	1	ISIslide	AvoidedLoss	True
29.526	0.25	Control	1.0	0.0	Yes	2.574	0.026	n/a	GoodResponse	0	n/a	n/a	0	2	Cue	Neutral	True
29.777	4.1	Control	1.0	0.0	Yes	2.574	0.001	n/a	GoodResponse	0	n/a	n/a	0	2	Fixation	Neutral	True
33.872	0.38	Control	1.0	0.004	Yes	2.574	-0.004	2.0	GoodResponse	0	0.245	33.117	0	2	Target	Neutral	True
34.117	0.3	Control	1.0	0.004	Yes	2.574	-0.004	2.0	GoodResponse	0	0.245	n/a	0	2	ButtonPress	Neutral	True
34.257	0.32	Control	1.0	n/a	Yes	2.574	n/a	n/a	GoodResponse	0	n/a	n/a	0	2	Blank	Neutral	True
34.574	1.45	Control	1.0	n/a	Yes	2.574	n/a	5.0	GoodResponse	0	0.035	33.609	0	2	Feedback	Neutral	True
36.029	2.574	Control	1.0	n/a	Yes	2.574	n/a	n/a	GoodResponse	0	0.0	n/a	0	2	ISIslide	Neutral	True
38.62	0.25	Win2	1.0	0.0	Yes	2.83	0.02	n/a	GoodResponse	1	n/a	n/a	1	3	Cue	Win	True
38.871	3.95	Win2	1.0	0.0	Yes	2.83	0.001	n/a	GoodResponse	1	n/a	n/a	1	3	Fixation	Win	True
42.816	0.37	Win2	1.0	0.004	Yes	2.83	-0.004	2.0	GoodResponse	1	0.271	42.087	1	3	Target	Win	True
43.087	0.3	Win2	1.0	0.004	Yes	2.83	-0.004	2.0	GoodResponse	1	0.271	n/a	1	3	ButtonPress	Win	True
43.2	0.33	Win2	1.0	n/a	Yes	2.83	n/a	n/a	GoodResponse	1	n/a	n/a	1	3	Blank	Win	True
43.518	1.45	Win2	1.0	n/a	Yes	2.83	n/a	5.0	GoodResponse	1	0.018	42.536	1	3	Feedback	Win	True
44.972	2.83	Win2	1.0	n/a	Yes	2.83	n/a	n/a	GoodResponse	1	0.0	n/a	1	3	ISIslide	Win	True
47.814	0.25	Win2	1.0	0.0	Yes	3.286	0.014	n/a	GoodResponse	1	n/a	n/a	2	4	Cue	Win	True
48.065	4.0	Win2	1.0	0.0	Yes	3.286	0.001	n/a	GoodResponse	1	n/a	n/a	2	4	Fixation	Win	True
52.06	0.36	Win2	1.0	0.004	Yes	3.286	-0.004	2.0	GoodResponse	1	0.114	51.174	2	4	Target	Win	True
52.174	0.3	Win2	1.0	0.004	Yes	3.286	-0.004	2.0	GoodResponse	1	0.114	n/a	2	4	ButtonPress	Win	True
52.428	0.34	Win2	1.0	n/a	Yes	3.286	n/a	n/a	GoodResponse	1	n/a	n/a	2	4	Blank	Win	True
52.762	1.45	Win2	1.0	n/a	Yes	3.286	n/a	5.0	GoodResponse	1	0.042	51.804	2	4	Feedback	Win	True
54.216	3.286	Win2	1.0	n/a	Yes	3.286	n/a	n/a	GoodResponse	1	0.0	n/a	2	4	ISIslide	Win	True
57.526	0.25	Win2	1.0	0.0	Yes	2.774	0.026	n/a	GoodResponse	1	n/a	n/a	3	5	Cue	Win	True
57.777	4.0	Win2	1.0	0.0	Yes	2.774	0.001	n/a	GoodResponse	1	n/a	n/a	3	5	Fixation	Win	True
61.772	0.35	Win2	1.0	0.004	Yes	2.774	-0.004	2.0	GoodResponse	1	0.258	61.03	3	5	Target	Win	True
62.03	0.3	Win2	1.0	0.004	Yes	2.774	-0.004	2.0	GoodResponse	1	0.258	n/a	3	5	ButtonPress	Win	True
62.123	0.35	Win2	1.0	n/a	Yes	2.774	n/a	n/a	GoodResponse	1	n/a	n/a	3	5	Blank	Win	True
62.474	1.45	Win2	1.0	n/a	Yes	2.774	n/a	5.0	GoodResponse	1	0.038	61.512	3	5	Feedback	Win	True
63.929	2.774	Win2	1.0	n/a	Yes	2.774	n/a	n/a	GoodResponse	1	0.0	n/a	3	5	ISIslide	Win	True
66.72	0.25	Lose2	1.0	0.0	Yes	2.73	0.02	n/a	GoodResponse	0	n/a	n/a	3	6	Cue	AvoidedLoss	True
66.971	3.95	Lose2	1.0	0.0	Yes	2.73	0.001	n/a	GoodResponse	0	n/a	n/a	3	6	Fixation	AvoidedLoss	True
70.916	0.34	Lose2	1.0	0.004	Yes	2.73	-0.004	2.0	GoodResponse	0	0.22	70.136	3	6	Target	AvoidedLoss	True
71.136	0.3	Lose2	1.0	0.004	Yes	2.73	-0.004	2.0	GoodResponse	0	0.22	n/a	3	6	ButtonPress	AvoidedLoss	True
71.267	0.36	Lose2	1.0	n/a	Yes	2.73	n/a	n/a	GoodResponse	0	n/a	n/a	3	6	Blank	AvoidedLoss	True
71.618	1.45	Lose2	1.0	n/a	Yes	2.73	n/a	5.0	GoodResponse	0	0.016	70.634	3	6	Feedback	AvoidedLoss	True
73.073	2.73	Lose2	1.0	n/a	Yes	2.73	n/a	n/a	GoodResponse	0	0.0	n/a	3	6	ISIslide	AvoidedLoss	True
75.814	0.25	Lose2	1.0	0.0	Yes	4.036	0.014	n/a	GoodResponse	0	n/a	n/a	3	7	Cue	AvoidedLoss	True
76.065	4.05	Lose2	1.0	0.0	Yes	4.036	0.001	n/a	GoodResponse	0	n/a	n/a	3	7	Fixation	AvoidedLoss	True
80.11	0.33	Lose2	1.0	0.004	Yes	4.036	-0.004	2.0	GoodResponse	0	0.269	79.379	3	7	Target	AvoidedLoss	True
80.379	0.3	Lose2	1.0	0.004	Yes	4.036	-0.004	2.0	GoodResponse	0	0.269	n/a	3	7	ButtonPress	AvoidedLoss	True
80.445	0.37	Lose2	1.0	n/a	Yes	4.036	n/a	n/a	GoodResponse	0	n/a	n/a	3	7	Blank	AvoidedLoss	True
80.812	1.45	Lose2	1.0	n/a	Yes	4.036	n/a	5.0	GoodResponse	0	0.04	79.852	3	7	Feedback	AvoidedLoss	True
82.267	4.036	Lose2	1.0	n/a	Yes	4.036	n/a	n/a	GoodResponse	0	0.0	n/a	3	7	ISIslide	AvoidedLoss	True
86.329	0.25	Lose2	1.0	0.0	Yes	3.021	0.029	n/a	GoodResponse	0	n/a	n/a	3	8	Cue	AvoidedLoss	True
86.58	3.95	Lose2	1.0	0.0	Yes	3.021	0.001	n/a	GoodResponse	0	n/a	n/a	3	8	Fixation	AvoidedLoss	True
90.525	0.32	Lose2	1.0	0.004	Yes	3.021	-0.004	2.0	GoodResponse	0	0.253	89.778	3	8	Target	AvoidedLoss	True
90.778	0.3	Lose2	1.0	0.004	Yes	3.021	-0.004	2.0	GoodResponse	0	0.253	n/a	3	8	ButtonPress	AvoidedLoss	True
90.859	0.38	Lose2	1.0	n/a	Yes	3.021	n/a	n/a	GoodResponse	0	n/a	n/a	3	8	Blank	AvoidedLoss	True
91.227	1.45	Lose2	1.0	n/a	Yes	3.021	n/a	5.0	GoodResponse	0	0.016	90.243	3	8	Feedback	AvoidedLoss	True
92.681	3.021	Lose2	1.0	n/a	Yes	3.021	n/a	n/a	GoodResponse	0	0.0	n/a	3	8	ISIslide	AvoidedLoss	True
95.724	0.25	Lose2	1.0	0.0	Yes	3.126	0.024	n/a	GoodResponse	0	n/a	n/a	3	9	Cue	AvoidedLoss	True
95.974	3.95	Lose2	1.0	0.001	Yes	3.126	0.0	n/a	GoodResponse	0	n/a	n/a	3	9	Fixation	AvoidedLoss	True
99.92	0.31	Lose2	1.0	0.004	Yes	3.126	-0.004	2.0	GoodResponse	0	0.242	99.162	3	9	Target	AvoidedLoss	True
100.162	0.3	Lose2	1.0	0.004	Yes	3.126	-0.004	2.0	GoodResponse	0	0.242	n/a	3	9	ButtonPress	AvoidedLoss	True
100.237	0.39	Lose2	1.0	n/a	Yes	3.126	n/a	n/a	GoodResponse	0	n/a	n/a	3	9	Blank	AvoidedLoss	True
100.622	1.45	Lose2	1.0	n/a	Yes	3.126	n/a	5.0	GoodResponse	0	0.035	99.657	3	9	Feedback	AvoidedLoss	True
102.076	3.126	Lose2	1.0	n/a	Yes	3.126	n/a	n/a	GoodResponse	0	0.0	n/a	3	9	ISIslide	AvoidedLoss	True
105.219	0.25	Control	1.0	0.0	Yes	3.281	0.019	n/a	GoodResponse	0	n/a	n/a	3	10	Cue	Neutral	True
105.469	4.0	Control	1.0	0.001	Yes	3.281	0.0	n/a	GoodResponse	0	n/a	n/a	3	10	Fixation	Neutral	True
109.465	0.3	Control	1.0	0.004	Yes	3.281	-0.004	2.0	GoodResponse	0	0.22	108.685	3	10	Target	Neutral	True
109.685	0.3	Control	1.0	0.004	Yes	3.281	-0.004	2.0	GoodResponse	0	0.22	n/a	3	10	ButtonPress	Neutral	True
109.766	0.4	Control	1.0	n/a	Yes	3.281	n/a	n/a	GoodResponse	0	n/a	n/a	3	10	Blank	Neutral	True
110.167	1.45	Control	1.0	n/a	Yes	3.281	n/a	5.0	GoodResponse	0	0.004	109.171	3	10	Feedback	Neutral	True
111.621	3.281	Control	1.0	n/a	Yes	3.281	n/a	n/a	GoodResponse	0	0.0	n/a	3	10	ISIslide	Neutral	True
114.914	0.25	Lose2	1.0	0.0	Yes	2.736	0.014	n/a	GoodResponse	0	n/a	n/a	3	11	Cue	AvoidedLoss	True
115.165	4.05	Lose2	1.0	0.0	Yes	2.736	0.001	n/a	GoodResponse	0	n/a	n/a	3	11	Fixation	AvoidedLoss	True
119.21	0.29	Lose2	1.0	0.004	Yes	2.736	-0.004	2.0	GoodResponse	0	0.257	118.467	3	11	Target	AvoidedLoss	True
119.467	0.3	Lose2	1.0	0.004	Yes	2.736	-0.004	2.0	GoodResponse	0	0.257	n/a	3	11	ButtonPress	AvoidedLoss	True
119.511	0.41	Lose2	1.0	n/a	Yes	2.736	n/a	n/a	GoodResponse	0	n/a	n/a	3	11	Blank	AvoidedLoss	True
119.913	1.45	Lose2	1.0	n/a	Yes	2.736	n/a	5.0	GoodResponse	0	0.012	118.925	3	11	Feedback	AvoidedLoss	True
121.367	2.736	Lose2	1.0	n/a	Yes	2.736	n/a	n/a	GoodResponse	0	0.0	n/a	3	11	ISIslide	AvoidedLoss	True
124.125	0.25	Control	1.0	0.0	Yes	2.975	0.025	n/a	GoodResponse	0	n/a	n/a	3	12	Cue	Neutral	True
124.376	3.9	Control	1.0	0.0	Yes	2.975	0.001	n/a	GoodResponse	0	n/a	n/a	3	12	Fixation	Neutral	True
128.271	0.28	Control	1.0	0.004	Yes	2.975	-0.004	2.0	GoodResponse	0	0.248	127.519	3	12	Target	Neutral	True
128.519	0.3	Control	1.0	0.004	Yes	2.975	-0.004	2.0	GoodResponse	0	0.248	n/a	3	12	ButtonPress	Neutral	True
128.555	0.42	Control	1.0	n/a	Yes	2.975	n/a	n/a	GoodResponse	0	n/a	n/a	3	12	Blank	Neutral	True
128.973	1.45	Control	1.0	n/a	Yes	2.975	n/a	5.0	GoodResponse	0	0.025	127.998	3	12	Feedback	Neutral	True
130.427	2.975	Control	1.0	n/a	Yes	2.975	n/a	n/a	GoodResponse	0	0.0	n/a	3	12	ISIslide	Neutral	True
133.42	0.25	Control	0.9286	0.0	No	2.78	0.02	n/a	NoResponse	0	n/a	n/a	3	13	Cue	Neutral	True
133.67	4.0	Control	0.9286	0.0	No	2.78	0.0	n/a	NoResponse	0	n/a	n/a	3	13	Fixation	Neutral	True
137.666	0.27	Control	0.9286	0.004	No	2.78	-0.004	2.0	NoResponse	0	0.333	136.999	3	13	Target	Neutral	True
137.95	0.43	Control	0.9286	n/a	No	2.78	n/a	n/a	NoResponse	0	n/a	n/a	3	13	Blank	Neutral	True
137.999	0.3	Control	0.9286	0.004	No	2.78	-0.004	2.0	NoResponse	0	0.333	n/a	3	13	ButtonPress	Neutral	True
138.368	1.45	Control	0.9286	n/a	No	2.78	n/a	5.0	NoResponse	0	0.045	137.413	3	13	Feedback	Neutral	True
139.822	2.78	Control	0.9286	n/a	No	2.78	n/a	n/a	NoResponse	0	0.0	n/a	3	13	ISIslide	Neutral	True
142.614	0.25	Win2	0.9333	0.0	Yes	2.686	0.014	n/a	GoodResponse	1	n/a	n/a	4	14	Cue	Win	True
142.864	4.1	Win2	0.9333	0.001	Yes	2.686	0.0	n/a	GoodResponse	1	n/a	n/a	4	14	Fixation	Win	True
146.96	0.26	Win2	0.9333	0.004	Yes	2.686	-0.004	2.0	GoodResponse	1	0.248	146.208	4	14	Target	Win	True
147.208	0.3	Win2	0.9333	0.004	Yes	2.686	-0.004	2.0	GoodResponse	1	0.248	n/a	4	14	ButtonPress	Win	True
147.227	0.44	Win2	0.9333	n/a	Yes	2.686	n/a	n/a	GoodResponse	1	n/a	n/a	4	14	Blank	Win	True
147.662	1.45	Win2	0.9333	n/a	Yes	2.686	n/a	5.0	GoodResponse	1	0.018	146.68	4	14	Feedback	Win	True
149.116	2.686	Win2	0.9333	n/a	Yes	2.686	n/a	n/a	GoodResponse	1	0.0	n/a	4	14	ISIslide	Win	True
151.825	0.25	Control	0.875	0.0	No	2.975	0.025	n/a	NoResponse	0	n/a	n/a	4	15	Cue	Neutral	False
152.075	4.0	Control	0.875	0.0	No	2.975	0.0	2.0	NoResponse	0	2.626	153.701	4	15	Fixation	Neutral	False
154.701	0.3	Control	0.875	0.0	No	2.975	0.0	2.0	NoResponse	0	2.626	n/a	4	15	ButtonPress	Neutral	False
156.071	0.25	Control	0.875	0.004	No	2.975	-0.004	2.0	NoResponse	0	0.28	155.351	4	15	Target	Neutral	False
156.321	0.45	Control	0.875	n/a	No	2.975	n/a	n/a	NoResponse	0	n/a	n/a	4	15	Blank	Neutral	False
156.351	0.3	Control	0.875	0.004	No	2.975	-0.004	2.0	NoResponse	0	0.28	n/a	4	15	ButtonPress	Neutral	False
156.773	1.45	Control	0.875	n/a	No	2.975	n/a	5.0	NoResponse	0	0.029	155.802	4	15	Feedback	Neutral	False
158.227	2.975	Control	0.875	n/a	No	2.975	n/a	n/a	NoResponse	0	0.0	n/a	4	15	ISIslide	Neutral	False
161.219	0.25	Win2	0.8824	0.0	Yes	2.881	0.019	n/a	GoodResponse	1	n/a	n/a	5	16	Cue	Win	True
161.47	4.0	Win2	0.8824	0.0	Yes	2.881	0.001	n/a	GoodResponse	1	n/a	n/a	5	16	Fixation	Win	True
165.465	0.24	Win2	0.8824	0.004	Yes	2.881	-0.004	2.0	GoodResponse	1	0.214	164.679	5	16	Target	Win	True
165.679	0.3	Win2	0.8824	0.004	Yes	2.881	-0.004	2.0	GoodResponse	1	0.214	n/a	5	16	ButtonPress	Win	True
165.716	0.46	Win2	0.8824	n/a	Yes	2.881	n/a	n/a	GoodResponse	1	n/a	n/a	5	16	Blank	Win	True
166.167	1.45	Win2	0.8824	n/a	Yes	2.881	n/a	5.0	GoodResponse	1	0.001	165.168	5	16	Feedback	Win	True
167.622	2.881	Win2	0.8824	n/a	Yes	2.881	n/a	n/a	GoodResponse	1	0.0	n/a	5	16	ISIslide	Win	True
170.514	0.25	Lose2	0.8889	0.0	Yes	2.736	0.014	n/a	GoodResponse	0	n/a	n/a	5	17	Cue	AvoidedLoss	True
170.764	3.95	Lose2	0.8889	0.001	Yes	2.736	0.0	n/a	GoodResponse	0	n/a	n/a	5	17	Fixation	AvoidedLoss	True
174.71	0.23	Lose2	0.8889	0.004	Yes	2.736	-0.004	2.0	GoodResponse	0	0.206	173.916	5	17	Target	AvoidedLoss	True
174.916	0.3	Lose2	0.8889	0.004	Yes	2.736	-0.004	2.0	GoodResponse	0	0.206	n/a	5	17	ButtonPress	AvoidedLoss	True
174.944	0.47	Lose2	0.8889	n/a	Yes	2.736	n/a	n/a	GoodResponse	0	n/a	n/a	5	17	Blank	AvoidedLoss	True
175.412	1.45	Lose2	0.8889	n/a	Yes	2.736	n/a	5.0	GoodResponse	0	0.025	174.437	5	17	Feedback	AvoidedLoss	True
176.866	2.736	Lose2	0.8889	n/a	Yes	2.736	n/a	n/a	GoodResponse	0	0.0	n/a	5	17	ISIslide	AvoidedLoss	True
179.624	0.25	Lose2	0.8421	0.0	No	2.726	0.024	n/a	NoResponse	-1	n/a	n/a	4	18	Cue	Loss	True
179.875	4.05	Lose2	0.8421	0.0	No	2.726	0.001	n/a	NoResponse	-1	n/a	n/a	4	18	Fixation	Loss	True
183.92	0.22	Lose2	0.8421	0.004	No	2.726	-0.004	2.0	NoResponse	-1	0.258	183.178	4	18	Target	Loss	True
184.154	0.48	Lose2	0.8421	n/a	No	2.726	n/a	n/a	NoResponse	-1	n/a	n/a	4	18	Blank	Loss	True
184.178	0.3	Lose2	0.8421	0.004	No	2.726	-0.004	2.0	NoResponse	-1	0.258	n/a	4	18	ButtonPress	Loss	True
184.622	1.45	Lose2	0.8421	n/a	No	2.726	n/a	5.0	NoResponse	-1	0.033	183.655	4	18	Feedback	Loss	True
186.077	2.726	Lose2	0.8421	n/a	No	2.726	n/a	n/a	NoResponse	-1	0.0	n/a	4	18	ISIslide	Loss	True
188.818	0.25	Control	0.8	0.0	No	2.932	0.018	n/a	NoResponse	0	n/a	n/a	4	19	Cue	Neutral	True
189.069	3.95	Control	0.8	0.0	No	2.932	0.001	n/a	NoResponse	0	n/a	n/a	4	19	Fixation	Neutral	True
193.014	0.21	Control	0.8	0.004	No	2.932	-0.004	2.0	NoResponse	0	0.283	192.297	4	19	Target	Neutral	True
193.232	0.49	Control	0.8	n/a	No	2.932	n/a	n/a	NoResponse	0	n/a	n/a	4	19	Blank	Neutral	True
193.297	0.3	Control	0.8	0.004	No	2.932	-0.004	2.0	NoResponse	0	0.283	n/a	4	19	ButtonPress	Neutral	True
193.716	1.45	Control	0.8	n/a	No	2.932	n/a	5.0	NoResponse	0	0.013	192.729	4	19	Feedback	Neutral	True
195.171	2.932	Control	0.8	n/a	No	2.932	n/a	n/a	NoResponse	0	0.0	n/a	4	19	ISIslide	Neutral	True
198.113	0.25	Control	0.7619	0.0	No	2.637	0.013	n/a	NoResponse	0	n/a	n/a	4	20	Cue	Neutral	True
198.364	4.05	Control	0.7619	0.0	No	2.637	0.001	n/a	NoResponse	0	n/a	n/a	4	20	Fixation	Neutral	True
202.409	0.2	Control	0.7619	0.004	No	2.637	-0.004	2.0	NoResponse	0	0.27	201.679	4	20	Target	Neutral	True
202.61	0.5	Control	0.7619	n/a	No	2.637	n/a	n/a	NoResponse	0	n/a	n/a	4	20	Blank	Neutral	True
202.679	0.3	Control	0.7619	0.004	No	2.637	-0.004	2.0	NoResponse	0	0.27	n/a	4	20	ButtonPress	Neutral	True
203.111	1.45	Control	0.7619	n/a	No	2.637	n/a	5.0	NoResponse	0	0.032	202.143	4	20	Feedback	Neutral	True
204.565	2.637	Control	0.7619	n/a	No	2.637	n/a	n/a	NoResponse	0	0.0	n/a	4	20	ISIslide	Neutral	True
207.223	0.25	Control	0.7273000000000001	0.0	No	2.777	0.023	n/a	NoResponse	0	n/a	n/a	4	21	Cue	Neutral	True
207.474	4.1	Control	0.7273000000000001	0.0	No	2.777	0.001	n/a	NoResponse	0	n/a	n/a	4	21	Fixation	Neutral	True
211.57	0.19	Control	0.7273000000000001	0.003	No	2.777	-0.003	2.0	NoResponse	0	0.235	210.805	4	21	Target	Neutral	True
211.77	0.51	Control	0.7273000000000001	n/a	No	2.777	n/a	n/a	NoResponse	0	n/a	n/a	4	21	Blank	Neutral	True
211.805	0.3	Control	0.7273000000000001	0.003	No	2.777	-0.003	2.0	NoResponse	0	0.235	n/a	4	21	ButtonPress	Neutral	True
212.272	1.45	Control	0.7273000000000001	n/a	No	2.777	n/a	5.0	NoResponse	0	0.042	211.314	4	21	Feedback	Neutral	True
213.726	2.777	Control	0.7273000000000001	n/a	No	2.777	n/a	n/a	NoResponse	0	0.0	n/a	4	21	ISIslide	Neutral	True
216.518	0.25	Control	0.6957	0.0	No	2.782	0.018	n/a	NoResponse	0	n/a	n/a	4	22	Cue	Neutral	True
216.768	4.0	Control	0.6957	0.001	No	2.782	0.0	n/a	NoResponse	0	n/a	n/a	4	22	Fixation	Neutral	True
220.764	0.18	Control	0.6957	0.004	No	2.782	-0.004	2.0	NoResponse	0	0.224	219.988	4	22	Target	Neutral	True
220.948	0.52	Control	0.6957	n/a	No	2.782	n/a	n/a	NoResponse	0	n/a	n/a	4	22	Blank	Neutral	True
220.988	0.3	Control	0.6957	0.004	No	2.782	-0.004	2.0	NoResponse	0	0.224	n/a	4	22	ButtonPress	Neutral	True
221.466	1.45	Control	0.6957	n/a	No	2.782	n/a	5.0	NoResponse	0	0.019	220.485	4	22	Feedback	Neutral	True
222.92	2.782	Control	0.6957	n/a	No	2.782	n/a	n/a	NoResponse	0	0.0	n/a	4	22	ISIslide	Neutral	True
225.729	0.25	Control	0.6667000000000001	0.0	No	2.771	0.029	n/a	NoResponse	0	n/a	n/a	4	23	Cue	Neutral	True
225.979	3.9	Control	0.6667000000000001	0.0	No	2.771	0.0	n/a	NoResponse	0	n/a	n/a	4	23	Fixation	Neutral	True
229.891	0.17	Control	0.6667000000000001	0.0	No	2.771	0.012	2.0	NoResponse	0	0.218	229.109	4	23	Target	Neutral	True
230.058	0.53	Control	0.6667000000000001	n/a	No	2.771	n/a	n/a	NoResponse	0	n/a	n/a	4	23	Blank	Neutral	True
230.109	0.3	Control	0.6667000000000001	0.0	No	2.771	0.012	2.0	NoResponse	0	0.218	n/a	4	23	ButtonPress	Neutral	True
230.576	1.45	Control	0.6667000000000001	n/a	No	2.771	n/a	5.0	NoResponse	0	0.03	229.606	4	23	Feedback	Neutral	True
232.031	2.771	Control	0.6667000000000001	n/a	No	2.771	n/a	n/a	NoResponse	0	0.0	n/a	4	23	ISIslide	Neutral	True
234.822	0.25	Win2	0.64	0.001	No	3.128	0.022	n/a	NoResponse	0	n/a	n/a	4	24	Cue	MissedWin	True
235.073	3.95	Win2	0.64	0.0	No	3.128	0.001	n/a	NoResponse	0	n/a	n/a	4	24	Fixation	MissedWin	True
239.018	0.16	Win2	0.64	0.004	No	3.128	-0.004	2.0	NoResponse	0	0.233	238.251	4	24	Target	MissedWin	True
239.185	0.54	Win2	0.64	n/a	No	3.128	n/a	n/a	NoResponse	0	n/a	n/a	4	24	Blank	MissedWin	True
239.251	0.3	Win2	0.64	0.004	No	3.128	-0.004	2.0	NoResponse	0	0.233	n/a	4	24	ButtonPress	MissedWin	True
239.72	1.45	Win2	0.64	n/a	No	3.128	n/a	5.0	NoResponse	0	0.008	238.728	4	24	Feedback	MissedWin	True
241.175	3.128	Win2	0.64	n/a	No	3.128	n/a	n/a	NoResponse	0	0.0	n/a	4	24	ISIslide	MissedWin	True
244.317	0.25	Win2	0.6154	0.001	No	3.083	0.017	n/a	NoResponse	0	n/a	n/a	4	25	Cue	MissedWin	True
244.568	4.0	Win2	0.6154	0.0	No	3.083	0.001	2.0	NoResponse	0	3.228	246.796	4	25	Fixation	MissedWin	True
247.796	0.3	Win2	0.6154	0.0	No	3.083	0.001	2.0	NoResponse	0	3.228	n/a	4	25	ButtonPress	MissedWin	True
248.563	0.17	Win2	0.6154	0.004	No	3.083	-0.004	n/a	NoResponse	0	n/a	n/a	4	25	Target	MissedWin	True
248.747	0.53	Win2	0.6154	n/a	No	3.083	n/a	n/a	NoResponse	0	n/a	n/a	4	25	Blank	MissedWin	True
249.266	1.45	Win2	0.6154	n/a	No	3.083	n/a	5.0	NoResponse	0	0.023	248.289	4	25	Feedback	MissedWin	True
250.72	3.083	Win2	0.6154	n/a	No	3.083	n/a	n/a	NoResponse	0	0.0	n/a	4	25	ISIslide	MissedWin	True
253.829	0.25	Win2	0.5926	0.0	No	2.921	0.029	n/a	NoResponse	0	n/a	n/a	4	26	Cue	MissedWin	True
254.08	3.95	Win2	0.5926	0.0	No	2.921	0.001	n/a	NoResponse	0	n/a	n/a	4	26	Fixation	MissedWin	True
258.025	0.18	Win2	0.5926	0.004	No	2.921	-0.004	2.0	NoResponse	0	0.238	257.263	4	26	Target	MissedWin	True
258.209	0.52	Win2	0.5926	n/a	No	2.921	n/a	n/a	NoResponse	0	n/a	n/a	4	26	Blank	MissedWin	True
258.263	0.3	Win2	0.5926	0.004	No	2.921	-0.004	2.0	NoResponse	0	0.238	n/a	4	26	ButtonPress	MissedWin	True
258.727	1.45	Win2	0.5926	n/a	No	2.921	n/a	5.0	NoResponse	0	0.025	257.752	4	26	Feedback	MissedWin	True
260.181	2.921	Win2	0.5926	n/a	No	2.921	n/a	n/a	NoResponse	0	0.0	n/a	4	26	ISIslide	MissedWin	True
263.124	0.25	Lose2	0.5714	0.0	No	2.826	0.024	n/a	NoResponse	-1	n/a	n/a	3	27	Cue	Loss	True
263.374	4.05	Lose2	0.5714	0.0	No	2.826	0.0	n/a	NoResponse	-1	n/a	n/a	3	27	Fixation	Loss	True
267.42	0.19	Lose2	0.5714	0.004	No	2.826	-0.004	2.0	NoResponse	-1	0.233	266.653	3	27	Target	Loss	True
267.62	0.51	Lose2	0.5714	n/a	No	2.826	n/a	n/a	NoResponse	-1	n/a	n/a	3	27	Blank	Loss	True
267.653	0.3	Lose2	0.5714	0.004	No	2.826	-0.004	2.0	NoResponse	-1	0.233	n/a	3	27	ButtonPress	Loss	True
268.122	1.45	Lose2	0.5714	n/a	No	2.826	n/a	5.0	NoResponse	-1	0.044	267.166	3	27	Feedback	Loss	True
269.576	2.826	Lose2	0.5714	n/a	No	2.826	n/a	n/a	NoResponse	-1	0.0	n/a	3	27	ISIslide	Loss	True
272.418	0.25	Control	0.5517	0.0	No	2.832	0.018	n/a	NoResponse	0	n/a	n/a	3	28	Cue	Neutral	False
272.669	4.05	Control	0.5517	0.0	No	2.832	0.001	2.0	NoResponse	0	1.052	272.721	3	28	Fixation	Neutral	False
273.721	0.3	Control	0.5517	0.0	No	2.832	0.001	2.0	NoResponse	0	1.052	n/a	3	28	ButtonPress	Neutral	False
276.714	0.2	Control	0.5517	0.004	No	2.832	-0.004	2.0	NoResponse	0	0.589	276.303	3	28	Target	Neutral	False
276.915	0.5	Control	0.5517	n/a	No	2.832	n/a	n/a	NoResponse	0	n/a	n/a	3	28	Blank	Neutral	False
277.303	0.3	Control	0.5517	0.004	No	2.832	-0.004	2.0	NoResponse	0	0.589	n/a	3	28	ButtonPress	Neutral	False
277.416	1.45	Control	0.5517	n/a	No	2.832	n/a	5.0	NoResponse	0	0.019	276.435	3	28	Feedback	Neutral	False
278.871	2.832	Control	0.5517	n/a	No	2.832	n/a	n/a	NoResponse	0	0.0	n/a	3	28	ISIslide	Neutral	False
281.729	0.25	Lose2	0.5333	0.0	No	2.821	0.029	n/a	NoResponse	-1	n/a	n/a	2	29	Cue	Loss	False
281.98	3.95	Lose2	0.5333	0.0	No	2.821	0.001	2.0	NoResponse	-1	1.895	282.875	2	29	Fixation	Loss	False
283.875	0.3	Lose2	0.5333	0.0	No	2.821	0.001	2.0	NoResponse	-1	1.895	n/a	2	29	ButtonPress	Loss	False
285.925	0.21	Lose2	0.5333	0.004	No	2.821	-0.004	2.0	NoResponse	-1	0.236	285.161	2	29	Target	Loss	False
286.142	0.49	Lose2	0.5333	n/a	No	2.821	n/a	n/a	NoResponse	-1	n/a	n/a	2	29	Blank	Loss	False
286.161	0.3	Lose2	0.5333	0.004	No	2.821	-0.004	2.0	NoResponse	-1	0.236	n/a	2	29	ButtonPress	Loss	False
286.627	1.45	Lose2	0.5333	n/a	No	2.821	n/a	5.0	NoResponse	-1	0.028	285.655	2	29	Feedback	Loss	False
288.081	2.821	Lose2	0.5333	n/a	No	2.821	n/a	n/a	NoResponse	-1	0.0	n/a	2	29	ISIslide	Loss	False
290.923	0.25	Win2	0.5484	0.0	Yes	2.777	0.023	n/a	GoodResponse	1	n/a	n/a	3	30	Cue	Win	False
291.174	3.9	Win2	0.5484	0.0	Yes	2.777	0.001	2.0	GoodResponse	1	1.772	291.946	3	30	Fixation	Win	False
292.946	0.3	Win2	0.5484	0.0	Yes	2.777	0.001	2.0	GoodResponse	1	1.772	n/a	3	30	ButtonPress	Win	False
295.069	0.22	Win2	0.5484	0.004	Yes	2.777	-0.004	2.0	GoodResponse	1	0.217	294.286	3	30	Target	Win	False
295.286	0.3	Win2	0.5484	0.004	Yes	2.777	-0.004	2.0	GoodResponse	1	0.217	n/a	3	30	ButtonPress	Win	False
295.303	0.48	Win2	0.5484	n/a	Yes	2.777	n/a	n/a	GoodResponse	1	n/a	n/a	3	30	Blank	Win	False
295.771	1.45	Win2	0.5484	n/a	Yes	2.777	n/a	5.0	GoodResponse	1	0.006	294.777	3	30	Feedback	Win	False
297.225	2.777	Win2	0.5484	n/a	Yes	2.777	n/a	n/a	GoodResponse	1	0.0	n/a	3	30	ISIslide	Win	False
300.017	0.25	Lose2	0.5625	0.0	Yes	2.833	0.017	n/a	GoodResponse	0	n/a	n/a	3	31	Cue	AvoidedLoss	True
300.268	4.05	Lose2	0.5625	0.0	Yes	2.833	0.001	n/a	GoodResponse	0	n/a	n/a	3	31	Fixation	AvoidedLoss	True
304.313	0.23	Lose2	0.5625	0.004	Yes	2.833	-0.004	2.0	GoodResponse	0	0.207	303.52	3	31	Target	AvoidedLoss	True
304.52	0.3	Lose2	0.5625	0.004	Yes	2.833	-0.004	2.0	GoodResponse	0	0.207	n/a	3	31	ButtonPress	AvoidedLoss	True
304.547	0.47	Lose2	0.5625	n/a	Yes	2.833	n/a	n/a	GoodResponse	0	n/a	n/a	3	31	Blank	AvoidedLoss	True
305.015	1.45	Lose2	0.5625	n/a	Yes	2.833	n/a	5.0	GoodResponse	0	0.029	304.044	3	31	Feedback	AvoidedLoss	True
306.47	2.833	Lose2	0.5625	n/a	Yes	2.833	n/a	n/a	GoodResponse	0	0.0	n/a	3	31	ISIslide	AvoidedLoss	True
309.328	0.25	Lose2	0.5758	0.0	Yes	2.622	0.028	n/a	GoodResponse	0	n/a	n/a	3	32	Cue	AvoidedLoss	True
309.579	4.15	Lose2	0.5758	0.0	Yes	2.622	0.001	n/a	GoodResponse	0	n/a	n/a	3	32	Fixation	AvoidedLoss	True
313.725	0.24	Lose2	0.5758	0.003	Yes	2.622	-0.003	2.0	GoodResponse	0	0.214	312.939	3	32	Target	AvoidedLoss	True
313.939	0.3	Lose2	0.5758	0.003	Yes	2.622	-0.003	2.0	GoodResponse	0	0.214	n/a	3	32	ButtonPress	AvoidedLoss	True
313.975	0.46	Lose2	0.5758	n/a	Yes	2.622	n/a	n/a	GoodResponse	0	n/a	n/a	3	32	Blank	AvoidedLoss	True
314.427	1.45	Lose2	0.5758	n/a	Yes	2.622	n/a	5.0	GoodResponse	0	0.032	313.459	3	32	Feedback	AvoidedLoss	True
315.881	2.622	Lose2	0.5758	n/a	Yes	2.622	n/a	n/a	GoodResponse	0	0.0	n/a	3	32	ISIslide	AvoidedLoss	True
318.522	0.25	Win2	0.5882000000000001	0.0	Yes	2.678	0.022	n/a	GoodResponse	1	n/a	n/a	4	33	Cue	Win	True
318.773	4.0	Win2	0.5882000000000001	0.0	Yes	2.678	0.001	n/a	GoodResponse	1	n/a	n/a	4	33	Fixation	Win	True
322.768	0.25	Win2	0.5882000000000001	0.004	Yes	2.678	-0.004	2.0	GoodResponse	1	0.201	321.969	4	33	Target	Win	True
322.969	0.3	Win2	0.5882000000000001	0.004	Yes	2.678	-0.004	2.0	GoodResponse	1	0.201	n/a	4	33	ButtonPress	Win	True
323.019	0.45	Win2	0.5882000000000001	n/a	Yes	2.678	n/a	n/a	GoodResponse	1	n/a	n/a	4	33	Blank	Win	True
323.471	1.45	Win2	0.5882000000000001	n/a	Yes	2.678	n/a	5.0	GoodResponse	1	0.012	322.483	4	33	Feedback	Win	True
324.925	2.678	Win2	0.5882000000000001	n/a	Yes	2.678	n/a	n/a	GoodResponse	1	0.0	n/a	4	33	ISIslide	Win	True
327.616	0.25	Lose2	0.5714	0.0	No	2.634	0.016	n/a	NoResponse	-1	n/a	n/a	3	34	Cue	Loss	True
327.867	4.05	Lose2	0.5714	0.0	No	2.634	0.001	n/a	NoResponse	-1	n/a	n/a	3	34	Fixation	Loss	True
331.912	0.26	Lose2	0.5714	0.004	No	2.634	-0.004	2.0	NoResponse	-1	0.313	331.225	3	34	Target	Loss	True
332.18	0.44	Lose2	0.5714	n/a	No	2.634	n/a	n/a	NoResponse	-1	n/a	n/a	3	34	Blank	Loss	True
332.225	0.3	Lose2	0.5714	0.004	No	2.634	-0.004	2.0	NoResponse	-1	0.313	n/a	3	34	ButtonPress	Loss	True
332.614	1.45	Lose2	0.5714	n/a	No	2.634	n/a	5.0	NoResponse	-1	0.04	331.654	3	34	Feedback	Loss	True
334.069	2.634	Lose2	0.5714	n/a	No	2.634	n/a	n/a	NoResponse	-1	0.0	n/a	3	34	ISIslide	Loss	True
336.727	0.25	Lose2	0.5832999999999999	0.0	Yes	2.673	0.027	n/a	GoodResponse	0	n/a	n/a	3	35	Cue	AvoidedLoss	True
336.978	4.0	Lose2	0.5832999999999999	0.0	Yes	2.673	0.001	n/a	GoodResponse	0	n/a	n/a	3	35	Fixation	AvoidedLoss	True
340.973	0.27	Lose2	0.5832999999999999	0.004	Yes	2.673	-0.004	2.0	GoodResponse	0	0.267	340.24	3	35	Target	AvoidedLoss	True
341.24	0.3	Lose2	0.5832999999999999	0.004	Yes	2.673	-0.004	2.0	GoodResponse	0	0.267	n/a	3	35	ButtonPress	AvoidedLoss	True
341.257	0.43	Lose2	0.5832999999999999	n/a	Yes	2.673	n/a	n/a	GoodResponse	0	n/a	n/a	3	35	Blank	AvoidedLoss	True
341.675	1.45	Lose2	0.5832999999999999	n/a	Yes	2.673	n/a	5.0	GoodResponse	0	0.007	340.682	3	35	Feedback	AvoidedLoss	True
343.129	2.673	Lose2	0.5832999999999999	n/a	Yes	2.673	n/a	n/a	GoodResponse	0	0.0	n/a	3	35	ISIslide	AvoidedLoss	True
345.821	0.25	Control	0.5946	0.0	Yes	2.679	0.021	n/a	GoodResponse	0	n/a	n/a	3	36	Cue	Neutral	True
346.071	4.0	Control	0.5946	0.0	Yes	2.679	0.0	n/a	GoodResponse	0	n/a	n/a	3	36	Fixation	Neutral	True
350.067	0.28	Control	0.5946	0.004	Yes	2.679	-0.004	2.0	GoodResponse	0	0.244	349.311	3	36	Target	Neutral	True
350.311	0.3	Control	0.5946	0.004	Yes	2.679	-0.004	2.0	GoodResponse	0	0.244	n/a	3	36	ButtonPress	Neutral	True
350.351	0.42	Control	0.5946	n/a	Yes	2.679	n/a	n/a	GoodResponse	0	n/a	n/a	3	36	Blank	Neutral	True
350.769	1.45	Control	0.5946	n/a	Yes	2.679	n/a	5.0	GoodResponse	0	0.031	349.8	3	36	Feedback	Neutral	True
352.223	2.679	Control	0.5946	n/a	Yes	2.679	n/a	n/a	GoodResponse	0	0.0	n/a	3	36	ISIslide	Neutral	True
354.931	0.25	Win2	0.5789	0.0	No	2.869	0.031	n/a	NoResponse	0	n/a	n/a	3	37	Cue	MissedWin	True
355.182	4.0	Win2	0.5789	0.0	No	2.869	0.001	n/a	NoResponse	0	n/a	n/a	3	37	Fixation	MissedWin	True
359.177	0.29	Win2	0.5789	0.004	No	2.869	-0.004	2.0	NoResponse	0	0.424	358.601	3	37	Target	MissedWin	True
359.478	0.41	Win2	0.5789	n/a	No	2.869	n/a	n/a	NoResponse	0	n/a	n/a	3	37	Blank	MissedWin	True
359.601	0.3	Win2	0.5789	0.004	No	2.869	-0.004	2.0	NoResponse	0	0.424	n/a	3	37	ButtonPress	MissedWin	True
359.879	1.45	Win2	0.5789	n/a	No	2.869	n/a	5.0	NoResponse	0	0.043	358.922	3	37	Feedback	MissedWin	True
361.334	2.869	Win2	0.5789	n/a	No	2.869	n/a	n/a	NoResponse	0	0.0	n/a	3	37	ISIslide	MissedWin	True
364.226	0.25	Lose2	0.5640999999999999	0.0	No	2.824	0.026	n/a	NoResponse	-1	n/a	n/a	2	38	Cue	Loss	True
364.476	3.95	Lose2	0.5640999999999999	0.0	No	2.824	0.0	2.0	NoResponse	-1	3.805	367.281	2	38	Fixation	Loss	True
368.281	0.3	Lose2	0.5640999999999999	0.0	No	2.824	0.0	2.0	NoResponse	-1	3.805	n/a	2	38	ButtonPress	Loss	True
368.438	0.3	Lose2	0.5640999999999999	0.0	No	2.824	0.012	n/a	NoResponse	-1	n/a	n/a	2	38	Target	Loss	True
368.722	0.4	Lose2	0.5640999999999999	n/a	No	2.824	n/a	n/a	NoResponse	-1	n/a	n/a	2	38	Blank	Loss	True
369.124	1.45	Lose2	0.5640999999999999	n/a	No	2.824	n/a	5.0	NoResponse	-1	0.017	368.141	2	38	Feedback	Loss	True
370.578	2.824	Lose2	0.5640999999999999	n/a	No	2.824	n/a	n/a	NoResponse	-1	0.0	n/a	2	38	ISIslide	Loss	True
373.42	0.25	Win2	0.575	0.0	Yes	2.98	0.02	n/a	GoodResponse	1	n/a	n/a	3	39	Cue	Win	True
373.67	4.1	Win2	0.575	0.0	Yes	2.98	0.0	n/a	GoodResponse	1	n/a	n/a	3	39	Fixation	Win	True
377.766	0.31	Win2	0.575	0.004	Yes	2.98	-0.004	2.0	GoodResponse	1	0.269	377.035	3	39	Target	Win	True
378.035	0.3	Win2	0.575	0.004	Yes	2.98	-0.004	2.0	GoodResponse	1	0.269	n/a	3	39	ButtonPress	Win	True
378.084	0.39	Win2	0.575	n/a	Yes	2.98	n/a	n/a	GoodResponse	1	n/a	n/a	3	39	Blank	Win	True
378.468	1.45	Win2	0.575	n/a	Yes	2.98	n/a	5.0	GoodResponse	1	0.038	377.506	3	39	Feedback	Win	True
379.922	2.98	Win2	0.575	n/a	Yes	2.98	n/a	n/a	GoodResponse	1	0.0	n/a	3	39	ISIslide	Win	True
382.931	0.25	Win2	0.5854	0.0	Yes	2.719	0.031	n/a	GoodResponse	1	n/a	n/a	4	40	Cue	Win	True
383.182	3.95	Win2	0.5854	0.0	Yes	2.719	0.001	n/a	GoodResponse	1	n/a	n/a	4	40	Fixation	Win	True
387.127	0.32	Win2	0.5854	0.004	Yes	2.719	-0.004	2.0	GoodResponse	1	0.261	386.388	4	40	Target	Win	True
387.388	0.3	Win2	0.5854	0.004	Yes	2.719	-0.004	2.0	GoodResponse	1	0.261	n/a	4	40	ButtonPress	Win	True
387.462	0.38	Win2	0.5854	n/a	Yes	2.719	n/a	n/a	GoodResponse	1	n/a	n/a	4	40	Blank	Win	True
387.829	1.45	Win2	0.5854	n/a	Yes	2.719	n/a	5.0	GoodResponse	1	0.043	386.872	4	40	Feedback	Win	True
389.284	2.719	Win2	0.5854	n/a	Yes	2.719	n/a	n/a	GoodResponse	1	0.0	n/a	4	40	ISIslide	Win	True
392.025	0.25	Win2	0.5714	0.0	No	2.775	0.025	n/a	NoResponse	0	n/a	n/a	4	41	Cue	MissedWin	True
392.276	3.9	Win2	0.5714	0.0	No	2.775	0.001	n/a	NoResponse	0	n/a	n/a	4	41	Fixation	MissedWin	True
396.171	0.33	Win2	0.5714	0.004	No	2.775	-0.004	2.0	NoResponse	0	0.378	395.549	4	41	Target	MissedWin	True
396.505	0.37	Win2	0.5714	n/a	No	2.775	n/a	n/a	NoResponse	0	n/a	n/a	4	41	Blank	MissedWin	True
396.549	0.3	Win2	0.5714	0.004	No	2.775	-0.004	2.0	NoResponse	0	0.378	n/a	4	41	ButtonPress	MissedWin	True
396.873	1.45	Win2	0.5714	n/a	No	2.775	n/a	5.0	NoResponse	0	0.024	395.897	4	41	Feedback	MissedWin	True
398.327	2.775	Win2	0.5714	n/a	No	2.775	n/a	n/a	NoResponse	0	0.0	n/a	4	41	ISIslide	MissedWin	True
401.119	0.25	Control	0.5814	0.0	Yes	2.931	0.019	n/a	GoodResponse	0	n/a	n/a	4	42	Cue	Neutral	True
401.37	3.85	Control	0.5814	0.0	Yes	2.931	0.001	n/a	GoodResponse	0	n/a	n/a	4	42	Fixation	Neutral	True
405.215	0.34	Control	0.5814	0.004	Yes	2.931	-0.004	2.0	GoodResponse	0	0.248	404.463	4	42	Target	Neutral	True
405.463	0.3	Control	0.5814	0.004	Yes	2.931	-0.004	2.0	GoodResponse	0	0.248	n/a	4	42	ButtonPress	Neutral	True
405.566	0.36	Control	0.5814	n/a	Yes	2.931	n/a	n/a	GoodResponse	0	n/a	n/a	4	42	Blank	Neutral	True
405.917	1.45	Control	0.5814	n/a	Yes	2.931	n/a	5.0	GoodResponse	0	0.007	404.924	4	42	Feedback	Neutral	True
407.371	2.931	Control	0.5814	n/a	Yes	2.931	n/a	n/a	GoodResponse	0	0.0	n/a	4	42	ISIslide	Neutral	True
410.33	0.25	Win2	0.5909	0.0	Yes	3.17	0.03	n/a	GoodResponse	1	n/a	n/a	5	43	Cue	Win	True
410.581	4.0	Win2	0.5909	0.0	Yes	3.17	0.001	n/a	GoodResponse	1	n/a	n/a	5	43	Fixation	Win	True
414.576	0.35	Win2	0.5909	0.004	Yes	3.17	-0.004	2.0	GoodResponse	1	0.158	413.734	5	43	Target	Win	True
414.734	0.3	Win2	0.5909	0.004	Yes	3.17	-0.004	2.0	GoodResponse	1	0.158	n/a	5	43	ButtonPress	Win	True
414.927	0.35	Win2	0.5909	n/a	Yes	3.17	n/a	n/a	GoodResponse	1	n/a	n/a	5	43	Blank	Win	True
415.278	1.45	Win2	0.5909	n/a	Yes	3.17	n/a	5.0	GoodResponse	1	0.008	414.286	5	43	Feedback	Win	True
416.732	3.17	Win2	0.5909	n/a	Yes	3.17	n/a	n/a	GoodResponse	1	0.0	n/a	5	43	ISIslide	Win	True
419.925	0.25	Win2	0.6	0.0	Yes	2.975	0.025	n/a	GoodResponse	1	n/a	n/a	6	44	Cue	Win	True
420.176	4.0	Win2	0.6	0.0	Yes	2.975	0.001	n/a	GoodResponse	1	n/a	n/a	6	44	Fixation	Win	True
424.171	0.36	Win2	0.6	0.004	Yes	2.975	-0.004	2.0	GoodResponse	1	0.235	423.406	6	44	Target	Win	True
424.406	0.3	Win2	0.6	0.004	Yes	2.975	-0.004	2.0	GoodResponse	1	0.235	n/a	6	44	ButtonPress	Win	True
424.539	0.34	Win2	0.6	n/a	Yes	2.975	n/a	n/a	GoodResponse	1	n/a	n/a	6	44	Blank	Win	True
424.873	1.45	Win2	0.6	n/a	Yes	2.975	n/a	5.0	GoodResponse	1	0.023	423.896	6	44	Feedback	Win	True
426.328	2.975	Win2	0.6	n/a	Yes	2.975	n/a	n/a	GoodResponse	1	0.0	n/a	6	44	ISIslide	Win	True
429.32	0.25	Control	0.5870000000000001	0.0	No	2.88	0.02	n/a	NoResponse	0	n/a	n/a	6	45	Cue	Neutral	True
429.571	4.1	Control	0.5870000000000001	0.0	No	2.88	0.001	n/a	NoResponse	0	n/a	n/a	6	45	Fixation	Neutral	True
433.666	0.37	Control	0.5870000000000001	0.004	No	2.88	-0.004	2.0	NoResponse	0	0.531	433.197	6	45	Target	Neutral	True
434.051	0.33	Control	0.5870000000000001	n/a	No	2.88	n/a	n/a	NoResponse	0	n/a	n/a	6	45	Blank	Neutral	True
434.197	0.3	Control	0.5870000000000001	0.004	No	2.88	-0.004	2.0	NoResponse	0	0.531	n/a	6	45	ButtonPress	Neutral	True
434.368	1.45	Control	0.5870000000000001	n/a	No	2.88	n/a	5.0	NoResponse	0	0.04	433.408	6	45	Feedback	Neutral	True
435.823	2.88	Control	0.5870000000000001	n/a	No	2.88	n/a	n/a	NoResponse	0	0.0	n/a	6	45	ISIslide	Neutral	True
438.731	0.25	Lose2	0.5957	0.0	Yes	3.369	0.031	n/a	GoodResponse	0	n/a	n/a	6	46	Cue	AvoidedLoss	True
438.982	4.0	Lose2	0.5957	0.0	Yes	3.369	0.001	n/a	GoodResponse	0	n/a	n/a	6	46	Fixation	AvoidedLoss	True
442.977	0.38	Lose2	0.5957	0.004	Yes	3.369	-0.004	2.0	GoodResponse	0	0.258	442.235	6	46	Target	AvoidedLoss	True
443.235	0.3	Lose2	0.5957	0.004	Yes	3.369	-0.004	2.0	GoodResponse	0	0.258	n/a	6	46	ButtonPress	AvoidedLoss	True
443.362	0.32	Lose2	0.5957	n/a	Yes	3.369	n/a	n/a	GoodResponse	0	n/a	n/a	6	46	Blank	AvoidedLoss	True
443.68	1.45	Lose2	0.5957	n/a	Yes	3.369	n/a	5.0	GoodResponse	0	0.046	442.726	6	46	Feedback	AvoidedLoss	True
445.134	3.369	Lose2	0.5957	n/a	Yes	3.369	n/a	n/a	GoodResponse	0	0.0	n/a	6	46	ISIslide	AvoidedLoss	True
448.527	0.25	Lose2	0.6042000000000001	0.0	Yes	2.673	0.027	n/a	GoodResponse	0	n/a	n/a	6	47	Cue	AvoidedLoss	True
448.778	4.0	Lose2	0.6042000000000001	0.0	Yes	2.673	0.001	n/a	GoodResponse	0	n/a	n/a	6	47	Fixation	AvoidedLoss	True
452.773	0.39	Lose2	0.6042000000000001	0.004	Yes	2.673	-0.004	2.0	GoodResponse	0	0.222	451.995	6	47	Target	AvoidedLoss	True
452.995	0.3	Lose2	0.6042000000000001	0.004	Yes	2.673	-0.004	2.0	GoodResponse	0	0.222	n/a	6	47	ButtonPress	AvoidedLoss	True
453.175	0.31	Lose2	0.6042000000000001	n/a	Yes	2.673	n/a	n/a	GoodResponse	0	n/a	n/a	6	47	Blank	AvoidedLoss	True
453.475	1.45	Lose2	0.6042000000000001	n/a	Yes	2.673	n/a	5.0	GoodResponse	0	0.006	452.481	6	47	Feedback	AvoidedLoss	True
454.93	2.673	Lose2	0.6042000000000001	n/a	Yes	2.673	n/a	n/a	GoodResponse	0	0.0	n/a	6	47	ISIslide	AvoidedLoss	True
457.621	0.25	Lose2	0.6122	0.0	Yes	3.029	0.021	n/a	GoodResponse	0	n/a	n/a	6	48	Cue	AvoidedLoss	True
457.872	3.95	Lose2	0.6122	0.0	Yes	3.029	0.001	n/a	GoodResponse	0	n/a	n/a	6	48	Fixation	AvoidedLoss	True
461.817	0.4	Lose2	0.6122	0.004	Yes	3.029	-0.004	2.0	GoodResponse	0	0.254	461.071	6	48	Target	AvoidedLoss	True
462.071	0.3	Lose2	0.6122	0.004	Yes	3.029	-0.004	2.0	GoodResponse	0	0.254	n/a	6	48	ButtonPress	AvoidedLoss	True
462.218	0.3	Lose2	0.6122	n/a	Yes	3.029	n/a	n/a	GoodResponse	0	n/a	n/a	6	48	Blank	AvoidedLoss	True
462.519	1.45	Lose2	0.6122	n/a	Yes	3.029	n/a	5.0	GoodResponse	0	0.035	461.554	6	48	Feedback	AvoidedLoss	True
463.973	3.029	Lose2	0.6122	n/a	Yes	3.029	n/a	n/a	GoodResponse	0	0.0	n/a	6	48	ISIslide	AvoidedLoss	True
467.016	0.25	Control	0.62	0.0	Yes	2.884	0.016	n/a	GoodResponse	0	n/a	n/a	6	49	Cue	Neutral	True
467.267	4.0	Control	0.62	0.0	Yes	2.884	0.001	n/a	GoodResponse	0	n/a	n/a	6	49	Fixation	Neutral	True
471.262	0.41	Control	0.62	0.004	Yes	2.884	-0.004	2.0	GoodResponse	0	0.268	470.53	6	49	Target	Neutral	True
471.53	0.3	Control	0.62	0.004	Yes	2.884	-0.004	2.0	GoodResponse	0	0.268	n/a	6	49	ButtonPress	Neutral	True
471.68	0.29	Control	0.62	n/a	Yes	2.884	n/a	n/a	GoodResponse	0	n/a	n/a	6	49	Blank	Neutral	True
471.964	1.45	Control	0.62	n/a	Yes	2.884	n/a	5.0	GoodResponse	0	0.007	470.971	6	49	Feedback	Neutral	True
473.418	2.884	Control	0.62	n/a	Yes	2.884	n/a	n/a	GoodResponse	0	0.0	n/a	6	49	ISIslide	Neutral	True
476.327	0.25	Control	0.6275	0.0	Yes	2.773	0.027	n/a	GoodResponse	0	n/a	n/a	6	50	Cue	Neutral	True
476.578	4.0	Control	0.6275	0.0	Yes	2.773	0.001	n/a	GoodResponse	0	n/a	n/a	6	50	Fixation	Neutral	True
480.573	0.42	Control	0.6275	0.004	Yes	2.773	-0.004	2.0	GoodResponse	0	0.337	479.91	6	50	Target	Neutral	True
480.91	0.3	Control	0.6275	0.004	Yes	2.773	-0.004	2.0	GoodResponse	0	0.337	n/a	6	50	ButtonPress	Neutral	True
481.008	0.28	Control	0.6275	n/a	Yes	2.773	n/a	n/a	GoodResponse	0	n/a	n/a	6	50	Blank	Neutral	True
481.275	1.45	Control	0.6275	n/a	Yes	2.773	n/a	5.0	GoodResponse	0	0.011	480.286	6	50	Feedback	Neutral	True
482.729	2.773	Control	0.6275	n/a	Yes	2.773	n/a	n/a	GoodResponse	0	0.0	n/a	6	50	ISIslide	Neutral	True
485.521	0.25	Control	0.6346	0.0	Yes	2.729	0.021	n/a	GoodResponse	0	n/a	n/a	6	51	Cue	Neutral	True
485.772	3.95	Control	0.6346	0.0	Yes	2.729	0.001	n/a	GoodResponse	0	n/a	n/a	6	51	Fixation	Neutral	True
489.717	0.43	Control	0.6346	0.004	Yes	2.729	-0.004	2.0	GoodResponse	0	0.236	488.953	6	51	Target	Neutral	True
489.953	0.3	Control	0.6346	0.004	Yes	2.729	-0.004	2.0	GoodResponse	0	0.236	n/a	6	51	ButtonPress	Neutral	True
490.152	0.27	Control	0.6346	n/a	Yes	2.729	n/a	n/a	GoodResponse	0	n/a	n/a	6	51	Blank	Neutral	True
490.419	1.45	Control	0.6346	n/a	Yes	2.729	n/a	5.0	GoodResponse	0	0.037	489.456	6	51	Feedback	Neutral	True
491.873	2.729	Control	0.6346	n/a	Yes	2.729	n/a	n/a	GoodResponse	0	0.0	n/a	6	51	ISIslide	Neutral	True
494.615	0.25	Control	0.6225999999999999	0.0	No	2.635	0.015	n/a	NoResponse	0	n/a	n/a	6	52	Cue	Neutral	True
494.866	4.05	Control	0.6225999999999999	0.0	No	2.635	0.001	n/a	NoResponse	0	n/a	n/a	6	52	Fixation	Neutral	True
498.911	0.44	Control	0.6225999999999999	0.004	No	2.635	-0.004	2.0	NoResponse	0	0.489	498.4	6	52	Target	Neutral	True
499.362	0.26	Control	0.6225999999999999	n/a	No	2.635	n/a	n/a	NoResponse	0	n/a	n/a	6	52	Blank	Neutral	True
499.4	0.3	Control	0.6225999999999999	0.004	No	2.635	-0.004	2.0	NoResponse	0	0.489	n/a	6	52	ButtonPress	Neutral	True
499.613	1.45	Control	0.6225999999999999	n/a	No	2.635	n/a	5.0	NoResponse	0	0.014	498.627	6	52	Feedback	Neutral	True
501.068	2.635	Control	0.6225999999999999	n/a	No	2.635	n/a	n/a	NoResponse	0	0.0	n/a	6	52	ISIslide	Neutral	True
503.726	0.25	Win2	0.6296	0.0	Yes	2.924	0.026	n/a	GoodResponse	1	n/a	n/a	7	53	Cue	Win	True
503.976	4.05	Win2	0.6296	0.0	Yes	2.924	0.0	n/a	GoodResponse	1	n/a	n/a	7	53	Fixation	Win	True
508.022	0.45	Win2	0.6296	0.004	Yes	2.924	-0.004	2.0	GoodResponse	1	0.236	507.258	7	53	Target	Win	True
508.258	0.3	Win2	0.6296	0.004	Yes	2.924	-0.004	2.0	GoodResponse	1	0.236	n/a	7	53	ButtonPress	Win	True
508.473	0.25	Win2	0.6296	n/a	Yes	2.924	n/a	n/a	GoodResponse	1	n/a	n/a	7	53	Blank	Win	True
508.724	1.45	Win2	0.6296	n/a	Yes	2.924	n/a	5.0	GoodResponse	1	0.025	507.749	7	53	Feedback	Win	True
510.178	2.924	Win2	0.6296	n/a	Yes	2.924	n/a	n/a	GoodResponse	1	0.0	n/a	7	53	ISIslide	Win	True
513.12	0.25	Win2	0.6364	0.0	Yes	2.73	0.02	n/a	GoodResponse	1	n/a	n/a	8	54	Cue	Win	True
513.371	3.95	Win2	0.6364	0.0	Yes	2.73	0.001	n/a	GoodResponse	1	n/a	n/a	8	54	Fixation	Win	True
517.316	0.46	Win2	0.6364	0.004	Yes	2.73	-0.004	2.0	GoodResponse	1	0.331	516.647	8	54	Target	Win	True
517.647	0.3	Win2	0.6364	0.004	Yes	2.73	-0.004	2.0	GoodResponse	1	0.331	n/a	8	54	ButtonPress	Win	True
517.784	0.24	Win2	0.6364	n/a	Yes	2.73	n/a	n/a	GoodResponse	1	n/a	n/a	8	54	Blank	Win	True
518.018	1.45	Win2	0.6364	n/a	Yes	2.73	n/a	5.0	GoodResponse	1	0.048	517.066	8	54	Feedback	Win	True
519.473	2.73	Win2	0.6364	n/a	Yes	2.73	n/a	n/a	GoodResponse	1	0.0	n/a	8	54	ISIslide	Win	True
522.231	0.25	Control	0.6429	0.0	Yes	3.019	0.031	n/a	GoodResponse	0	n/a	n/a	8	55	Cue	Neutral	True
522.482	3.95	Control	0.6429	0.0	Yes	3.019	0.001	n/a	GoodResponse	0	n/a	n/a	8	55	Fixation	Neutral	True
526.427	0.47	Control	0.6429	0.004	Yes	3.019	-0.004	2.0	GoodResponse	0	0.282	525.709	8	55	Target	Neutral	True
526.709	0.3	Control	0.6429	0.004	Yes	3.019	-0.004	2.0	GoodResponse	0	0.282	n/a	8	55	ButtonPress	Neutral	True
526.911	0.23	Control	0.6429	n/a	Yes	3.019	n/a	n/a	GoodResponse	0	n/a	n/a	8	55	Blank	Neutral	True
527.129	1.45	Control	0.6429	n/a	Yes	3.019	n/a	5.0	GoodResponse	0	0.009	526.138	8	55	Feedback	Neutral	True
528.583	3.019	Control	0.6429	n/a	Yes	3.019	n/a	n/a	GoodResponse	0	0.0	n/a	8	55	ISIslide	Neutral	True
531.625	0.25	Control	0.6315999999999999	0.001	No	2.825	0.025	n/a	NoResponse	0	n/a	n/a	8	56	Cue	Neutral	True
531.876	3.95	Control	0.6315999999999999	0.0	No	2.825	0.001	n/a	NoResponse	0	n/a	n/a	8	56	Fixation	Neutral	True
535.821	0.48	Control	0.6315999999999999	0.004	No	2.825	-0.004	2.0	NoResponse	0	0.511	535.332	8	56	Target	Neutral	True
536.306	0.22	Control	0.6315999999999999	n/a	No	2.825	n/a	n/a	NoResponse	0	n/a	n/a	8	56	Blank	Neutral	True
536.332	0.3	Control	0.6315999999999999	0.004	No	2.825	-0.004	2.0	NoResponse	0	0.511	n/a	8	56	ButtonPress	Neutral	True
536.523	1.45	Control	0.6315999999999999	n/a	No	2.825	n/a	5.0	NoResponse	0	0.03	535.553	8	56	Feedback	Neutral	True
537.978	2.825	Control	0.6315999999999999	n/a	No	2.825	n/a	n/a	NoResponse	0	0.0	n/a	8	56	ISIslide	Neutral	True
540.82	0.25	Control	0.6379	0.0	Yes	3.48	0.02	n/a	GoodResponse	0	n/a	n/a	8	57	Cue	Neutral	True
541.07	4.0	Control	0.6379	0.0	Yes	3.48	0.0	n/a	GoodResponse	0	n/a	n/a	8	57	Fixation	Neutral	True
545.066	0.49	Control	0.6379	0.004	Yes	3.48	-0.004	2.0	GoodResponse	0	0.287	544.353	8	57	Target	Neutral	True
545.353	0.3	Control	0.6379	0.004	Yes	3.48	-0.004	2.0	GoodResponse	0	0.287	n/a	8	57	ButtonPress	Neutral	True
545.567	0.21	Control	0.6379	n/a	Yes	3.48	n/a	n/a	GoodResponse	0	n/a	n/a	8	57	Blank	Neutral	True
545.768	1.45	Control	0.6379	n/a	Yes	3.48	n/a	5.0	GoodResponse	0	0.008	544.776	8	57	Feedback	Neutral	True
547.222	3.48	Control	0.6379	n/a	Yes	3.48	n/a	n/a	GoodResponse	0	0.0	n/a	8	57	ISIslide	Neutral	True
550.716	0.25	Win2	0.6441	0.0	Yes	2.734	0.016	n/a	GoodResponse	1	n/a	n/a	9	58	Cue	Win	True
550.967	4.05	Win2	0.6441	0.0	Yes	2.734	0.001	n/a	GoodResponse	1	n/a	n/a	9	58	Fixation	Win	True
555.012	0.5	Win2	0.6441	0.004	Yes	2.734	-0.004	2.0	GoodResponse	1	0.239	554.251	9	58	Target	Win	True
555.251	0.3	Win2	0.6441	0.004	Yes	2.734	-0.004	2.0	GoodResponse	1	0.239	n/a	9	58	ButtonPress	Win	True
555.513	0.2	Win2	0.6441	n/a	Yes	2.734	n/a	n/a	GoodResponse	1	n/a	n/a	9	58	Blank	Win	True
555.714	1.45	Win2	0.6441	n/a	Yes	2.734	n/a	5.0	GoodResponse	1	0.01	554.724	9	58	Feedback	Win	True
557.168	2.734	Win2	0.6441	n/a	Yes	2.734	n/a	n/a	GoodResponse	1	0.0	n/a	9	58	ISIslide	Win	True
559.927	0.25	Lose2	0.65	0.0	Yes	2.673	0.027	n/a	GoodResponse	0	n/a	n/a	9	59	Cue	AvoidedLoss	True
560.177	4.0	Lose2	0.65	0.0	Yes	2.673	0.0	n/a	GoodResponse	0	n/a	n/a	9	59	Fixation	AvoidedLoss	True
564.173	0.5	Lose2	0.65	0.004	Yes	2.673	-0.004	2.0	GoodResponse	0	0.234	563.407	9	59	Target	AvoidedLoss	True
564.407	0.3	Lose2	0.65	0.004	Yes	2.673	-0.004	2.0	GoodResponse	0	0.234	n/a	9	59	ButtonPress	AvoidedLoss	True
564.674	0.2	Lose2	0.65	n/a	Yes	2.673	n/a	n/a	GoodResponse	0	n/a	n/a	9	59	Blank	AvoidedLoss	True
564.875	1.45	Lose2	0.65	n/a	Yes	2.673	n/a	5.0	GoodResponse	0	0.019	563.894	9	59	Feedback	AvoidedLoss	True
566.329	2.673	Lose2	0.65	n/a	Yes	2.673	n/a	n/a	GoodResponse	0	0.0	n/a	9	59	ISIslide	AvoidedLoss	True
569.02	0.25	Control	0.6557	0.001	Yes	2.68	0.02	n/a	GoodResponse	0	n/a	n/a	9	60	Cue	Neutral	True
569.271	4.0	Control	0.6557	0.0	Yes	2.68	0.001	n/a	GoodResponse	0	n/a	n/a	9	60	Fixation	Neutral	True
573.267	0.5	Control	0.6557	0.003	Yes	2.68	-0.003	2.0	GoodResponse	0	0.322	572.589	9	60	Target	Neutral	True
573.589	0.3	Control	0.6557	0.003	Yes	2.68	-0.003	2.0	GoodResponse	0	0.322	n/a	9	60	ButtonPress	Neutral	True
573.768	0.2	Control	0.6557	n/a	Yes	2.68	n/a	n/a	GoodResponse	0	n/a	n/a	9	60	Blank	Neutral	True
573.969	1.45	Control	0.6557	n/a	Yes	2.68	n/a	5.0	GoodResponse	0	0.047	573.016	9	60	Feedback	Neutral	True
575.423	2.68	Control	0.6557	n/a	Yes	2.68	n/a	n/a	GoodResponse	0	0.0	n/a	9	60	ISIslide	Neutral	True
578.131	0.25	Lose2	0.6613	0.0	Yes	2.969	0.031	n/a	GoodResponse	0	n/a	n/a	9	61	Cue	AvoidedLoss	True
578.382	4.0	Lose2	0.6613	0.0	Yes	2.969	0.001	n/a	GoodResponse	0	n/a	n/a	9	61	Fixation	AvoidedLoss	True
582.377	0.5	Lose2	0.6613	0.004	Yes	2.969	-0.004	2.0	GoodResponse	0	0.267	581.644	9	61	Target	AvoidedLoss	True
582.644	0.3	Lose2	0.6613	0.004	Yes	2.969	-0.004	2.0	GoodResponse	0	0.267	n/a	9	61	ButtonPress	AvoidedLoss	True
582.879	0.2	Lose2	0.6613	n/a	Yes	2.969	n/a	n/a	GoodResponse	0	n/a	n/a	9	61	Blank	AvoidedLoss	True
583.079	1.45	Lose2	0.6613	n/a	Yes	2.969	n/a	5.0	GoodResponse	0	0.01	582.089	9	61	Feedback	AvoidedLoss	True
584.533	2.969	Lose2	0.6613	n/a	Yes	2.969	n/a	n/a	GoodResponse	0	0.0	n/a	9	61	ISIslide	AvoidedLoss	True
587.526	0.25	Lose2	0.6667000000000001	0.0	Yes	2.874	0.026	n/a	GoodResponse	0	n/a	n/a	9	62	Cue	AvoidedLoss	True
587.777	3.9	Lose2	0.6667000000000001	0.0	Yes	2.874	0.001	n/a	GoodResponse	0	n/a	n/a	9	62	Fixation	AvoidedLoss	True
591.671	0.5	Lose2	0.6667000000000001	0.005	Yes	2.874	-0.005	2.0	GoodResponse	0	0.356	591.027	9	62	Target	AvoidedLoss	True
592.027	0.3	Lose2	0.6667000000000001	0.005	Yes	2.874	-0.005	2.0	GoodResponse	0	0.356	n/a	9	62	ButtonPress	AvoidedLoss	True
592.173	0.2	Lose2	0.6667000000000001	n/a	Yes	2.874	n/a	n/a	GoodResponse	0	n/a	n/a	9	62	Blank	AvoidedLoss	True
592.374	1.45	Lose2	0.6667000000000001	n/a	Yes	2.874	n/a	5.0	GoodResponse	0	0.032	591.406	9	62	Feedback	AvoidedLoss	True
593.828	2.874	Lose2	0.6667000000000001	n/a	Yes	2.874	n/a	n/a	GoodResponse	0	0.0	n/a	9	62	ISIslide	AvoidedLoss	True
596.72	0.25	Lose2	0.6718999999999999	0.0	Yes	2.63	0.02	n/a	GoodResponse	0	n/a	n/a	9	63	Cue	AvoidedLoss	True
596.971	4.05	Lose2	0.6718999999999999	0.0	Yes	2.63	0.001	n/a	GoodResponse	0	n/a	n/a	9	63	Fixation	AvoidedLoss	True
601.016	0.49	Lose2	0.6718999999999999	0.004	Yes	2.63	-0.004	2.0	GoodResponse	0	0.265	600.281	9	63	Target	AvoidedLoss	True
601.281	0.3	Lose2	0.6718999999999999	0.004	Yes	2.63	-0.004	2.0	GoodResponse	0	0.265	n/a	9	63	ButtonPress	AvoidedLoss	True
601.518	0.21	Lose2	0.6718999999999999	n/a	Yes	2.63	n/a	n/a	GoodResponse	0	n/a	n/a	9	63	Blank	AvoidedLoss	True
601.718	1.45	Lose2	0.6718999999999999	n/a	Yes	2.63	n/a	5.0	GoodResponse	0	0.007	600.725	9	63	Feedback	AvoidedLoss	True
603.172	2.63	Lose2	0.6718999999999999	n/a	Yes	2.63	n/a	n/a	GoodResponse	0	0.0	n/a	9	63	ISIslide	AvoidedLoss	True
605.83	0.25	Win2	0.6769	0.001	Yes	3.12	0.03	n/a	GoodResponse	1	n/a	n/a	10	64	Cue	Win	True
606.081	4.15	Win2	0.6769	0.0	Yes	3.12	0.001	n/a	GoodResponse	1	n/a	n/a	10	64	Fixation	Win	True
610.227	0.48	Win2	0.6769	0.003	Yes	3.12	-0.003	2.0	GoodResponse	1	0.229	609.456	10	64	Target	Win	True
610.456	0.3	Win2	0.6769	0.003	Yes	3.12	-0.003	2.0	GoodResponse	1	0.229	n/a	10	64	ButtonPress	Win	True
610.712	0.22	Win2	0.6769	n/a	Yes	3.12	n/a	n/a	GoodResponse	1	n/a	n/a	10	64	Blank	Win	True
610.929	1.45	Win2	0.6769	n/a	Yes	3.12	n/a	5.0	GoodResponse	1	0.013	609.942	10	64	Feedback	Win	True
612.383	3.12	Win2	0.6769	n/a	Yes	3.12	n/a	n/a	GoodResponse	1	0.0	n/a	10	64	ISIslide	Win	True
615.526	0.25	Control	0.6818000000000001	0.0	Yes	2.774	0.026	n/a	GoodResponse	0	n/a	n/a	10	65	Cue	Neutral	True
615.777	4.0	Control	0.6818000000000001	0.0	Yes	2.774	0.001	n/a	GoodResponse	0	n/a	n/a	10	65	Fixation	Neutral	True
619.772	0.47	Control	0.6818000000000001	0.004	Yes	2.774	-0.004	2.0	GoodResponse	0	0.24	619.012	10	65	Target	Neutral	True
620.012	0.3	Control	0.6818000000000001	0.004	Yes	2.774	-0.004	2.0	GoodResponse	0	0.24	n/a	10	65	ButtonPress	Neutral	True
620.257	0.23	Control	0.6818000000000001	n/a	Yes	2.774	n/a	n/a	GoodResponse	0	n/a	n/a	10	65	Blank	Neutral	True
620.474	1.45	Control	0.6818000000000001	n/a	Yes	2.774	n/a	5.0	GoodResponse	0	0.029	619.503	10	65	Feedback	Neutral	True
621.929	2.774	Control	0.6818000000000001	n/a	Yes	2.774	n/a	n/a	GoodResponse	0	0.0	n/a	10	65	ISIslide	Neutral	True
624.72	0.25	Win2	0.6866	0.0	Yes	2.78	0.02	n/a	GoodResponse	1	n/a	n/a	11	66	Cue	Win	True
624.971	3.9	Win2	0.6866	0.0	Yes	2.78	0.001	n/a	GoodResponse	1	n/a	n/a	11	66	Fixation	Win	True
628.866	0.46	Win2	0.6866	0.004	Yes	2.78	-0.004	2.0	GoodResponse	1	0.274	628.14	11	66	Target	Win	True
629.14	0.3	Win2	0.6866	0.004	Yes	2.78	-0.004	2.0	GoodResponse	1	0.274	n/a	11	66	ButtonPress	Win	True
629.334	0.24	Win2	0.6866	n/a	Yes	2.78	n/a	n/a	GoodResponse	1	n/a	n/a	11	66	Blank	Win	True
629.568	1.45	Win2	0.6866	n/a	Yes	2.78	n/a	5.0	GoodResponse	1	0.008	628.576	11	66	Feedback	Win	True
631.022	2.78	Win2	0.6866	n/a	Yes	2.78	n/a	n/a	GoodResponse	1	0.0	n/a	11	66	ISIslide	Win	True
633.814	0.25	Control	0.6912	0.0	Yes	2.736	0.014	n/a	GoodResponse	0	n/a	n/a	11	67	Cue	Neutral	False
634.065	3.95	Control	0.6912	0.0	Yes	2.736	0.001	2.0	GoodResponse	0	0.031	633.096	11	67	Fixation	Neutral	False
634.096	0.3	Control	0.6912	0.0	Yes	2.736	0.001	2.0	GoodResponse	0	0.031	n/a	11	67	ButtonPress	Neutral	False
638.01	0.45	Control	0.6912	0.004	Yes	2.736	-0.004	2.0	GoodResponse	0	0.305	637.315	11	67	Target	Neutral	False
638.315	0.3	Control	0.6912	0.004	Yes	2.736	-0.004	2.0	GoodResponse	0	0.305	n/a	11	67	ButtonPress	Neutral	False
638.461	0.25	Control	0.6912	n/a	Yes	2.736	n/a	n/a	GoodResponse	0	n/a	n/a	11	67	Blank	Neutral	False
638.712	1.45	Control	0.6912	n/a	Yes	2.736	n/a	5.0	GoodResponse	0	0.034	637.746	11	67	Feedback	Neutral	False
640.166	2.736	Control	0.6912	n/a	Yes	2.736	n/a	2.0	GoodResponse	0	1.411	n/a	11	67	ISIslide	Neutral	False
642.908	0.25	Win2	0.6957	0.0	Yes	3.092	0.008	n/a	GoodResponse	1	n/a	n/a	12	68	Cue	Win	True
643.159	4.0	Win2	0.6957	0.0	Yes	3.092	0.001	n/a	GoodResponse	1	n/a	n/a	12	68	Fixation	Win	True
647.154	0.44	Win2	0.6957	0.004	Yes	3.092	-0.004	2.0	GoodResponse	1	0.266	646.42	12	68	Target	Win	True
647.42	0.3	Win2	0.6957	0.004	Yes	3.092	-0.004	2.0	GoodResponse	1	0.266	n/a	12	68	ButtonPress	Win	True
647.605	0.26	Win2	0.6957	n/a	Yes	3.092	n/a	n/a	GoodResponse	1	n/a	n/a	12	68	Blank	Win	True
647.856	1.45	Win2	0.6957	n/a	Yes	3.092	n/a	5.0	GoodResponse	1	0.012	646.868	12	68	Feedback	Win	True
649.31	3.092	Win2	0.6957	n/a	Yes	3.092	n/a	n/a	GoodResponse	1	0.0	n/a	12	68	ISIslide	Win	True
652.42	0.25	Win2	0.7	0.0	Yes	3.23	0.02	n/a	GoodResponse	1	n/a	n/a	13	69	Cue	Win	True
652.67	3.95	Win2	0.7	0.0	Yes	3.23	0.0	n/a	GoodResponse	1	n/a	n/a	13	69	Fixation	Win	True
656.632	0.43	Win2	0.7	0.0	Yes	3.23	0.012	2.0	GoodResponse	1	0.341	655.973	13	69	Target	Win	True
656.973	0.3	Win2	0.7	0.0	Yes	3.23	0.012	2.0	GoodResponse	1	0.341	n/a	13	69	ButtonPress	Win	True
657.05	0.27	Win2	0.7	n/a	Yes	3.23	n/a	n/a	GoodResponse	1	n/a	n/a	13	69	Blank	Win	True
657.318	1.45	Win2	0.7	n/a	Yes	3.23	n/a	5.0	GoodResponse	1	0.014	656.332	13	69	Feedback	Win	True
658.772	3.23	Win2	0.7	n/a	Yes	3.23	n/a	n/a	GoodResponse	1	0.0	n/a	13	69	ISIslide	Win	True
662.032	0.25	Lose2	0.7042	0.0	Yes	3.018	0.032	n/a	GoodResponse	0	n/a	n/a	13	70	Cue	AvoidedLoss	True
662.282	4.05	Lose2	0.7042	0.0	Yes	3.018	0.0	n/a	GoodResponse	0	n/a	n/a	13	70	Fixation	AvoidedLoss	True
666.328	0.42	Lose2	0.7042	0.004	Yes	3.018	-0.004	2.0	GoodResponse	0	0.264	665.592	13	70	Target	AvoidedLoss	True
666.592	0.3	Lose2	0.7042	0.004	Yes	3.018	-0.004	2.0	GoodResponse	0	0.264	n/a	13	70	ButtonPress	AvoidedLoss	True
666.762	0.28	Lose2	0.7042	n/a	Yes	3.018	n/a	n/a	GoodResponse	0	n/a	n/a	13	70	Blank	AvoidedLoss	True
667.03	1.45	Lose2	0.7042	n/a	Yes	3.018	n/a	5.0	GoodResponse	0	0.009	666.039	13	70	Feedback	AvoidedLoss	True
668.484	3.018	Lose2	0.7042	n/a	Yes	3.018	n/a	n/a	GoodResponse	0	0.0	n/a	13	70	ISIslide	AvoidedLoss	True
671.527	0.25	Win2	0.7082999999999999	0.0	Yes	2.723	0.027	n/a	GoodResponse	1	n/a	n/a	14	71	Cue	Win	True
671.777	4.05	Win2	0.7082999999999999	0.0	Yes	2.723	0.0	n/a	GoodResponse	1	n/a	n/a	14	71	Fixation	Win	True
675.823	0.41	Win2	0.7082999999999999	0.004	Yes	2.723	-0.004	2.0	GoodResponse	1	0.238	675.061	14	71	Target	Win	True
676.061	0.3	Win2	0.7082999999999999	0.004	Yes	2.723	-0.004	2.0	GoodResponse	1	0.238	n/a	14	71	ButtonPress	Win	True
676.241	0.29	Win2	0.7082999999999999	n/a	Yes	2.723	n/a	n/a	GoodResponse	1	n/a	n/a	14	71	Blank	Win	True
676.525	1.45	Win2	0.7082999999999999	n/a	Yes	2.723	n/a	5.0	GoodResponse	1	0.026	675.551	14	71	Feedback	Win	True
677.979	2.723	Win2	0.7082999999999999	n/a	Yes	2.723	n/a	n/a	GoodResponse	1	0.0	n/a	14	71	ISIslide	Win	True
680.721	0.25	Win2	0.7123	0.0	Yes	2.779	0.021	n/a	GoodResponse	1	n/a	n/a	15	72	Cue	Win	True
680.972	4.1	Win2	0.7123	0.0	Yes	2.779	0.001	n/a	GoodResponse	1	n/a	n/a	15	72	Fixation	Win	True
685.067	0.4	Win2	0.7123	0.004	Yes	2.779	-0.004	2.0	GoodResponse	1	0.239	684.306	15	72	Target	Win	True
685.306	0.3	Win2	0.7123	0.004	Yes	2.779	-0.004	2.0	GoodResponse	1	0.239	n/a	15	72	ButtonPress	Win	True
685.468	0.3	Win2	0.7123	n/a	Yes	2.779	n/a	n/a	GoodResponse	1	n/a	n/a	15	72	Blank	Win	True
685.769	1.45	Win2	0.7123	n/a	Yes	2.779	n/a	5.0	GoodResponse	1	0.001	684.77	15	72	Feedback	Win	True
687.224	2.779	Win2	0.7123	n/a	Yes	2.779	n/a	n/a	GoodResponse	1	0.0	n/a	15	72	ISIslide	Win	True
690.015	0.25	Win2	0.7162000000000001	0.0	Yes	2.685	0.015	n/a	GoodResponse	1	n/a	n/a	16	73	Cue	Win	True
690.266	4.0	Win2	0.7162000000000001	0.0	Yes	2.685	0.001	n/a	GoodResponse	1	n/a	n/a	16	73	Fixation	Win	True
694.261	0.39	Win2	0.7162000000000001	0.004	Yes	2.685	-0.004	2.0	GoodResponse	1	0.251	693.512	16	73	Target	Win	True
694.512	0.3	Win2	0.7162000000000001	0.004	Yes	2.685	-0.004	2.0	GoodResponse	1	0.251	n/a	16	73	ButtonPress	Win	True
694.662	0.31	Win2	0.7162000000000001	n/a	Yes	2.685	n/a	n/a	GoodResponse	1	n/a	n/a	16	73	Blank	Win	True
694.963	1.45	Win2	0.7162000000000001	n/a	Yes	2.685	n/a	5.0	GoodResponse	1	0.027	693.99	16	73	Feedback	Win	True
696.418	2.685	Win2	0.7162000000000001	n/a	Yes	2.685	n/a	n/a	GoodResponse	1	0.0	n/a	16	73	ISIslide	Win	True
699.126	0.25	Lose2	0.72	0.0	Yes	2.624	0.026	n/a	GoodResponse	0	n/a	n/a	16	74	Cue	AvoidedLoss	True
699.376	4.05	Lose2	0.72	0.001	Yes	2.624	0.0	n/a	GoodResponse	0	n/a	n/a	16	74	Fixation	AvoidedLoss	True
703.422	0.38	Lose2	0.72	0.004	Yes	2.624	-0.004	2.0	GoodResponse	0	0.319	702.741	16	74	Target	AvoidedLoss	True
703.741	0.3	Lose2	0.72	0.004	Yes	2.624	-0.004	2.0	GoodResponse	0	0.319	n/a	16	74	ButtonPress	AvoidedLoss	True
703.806	0.32	Lose2	0.72	n/a	Yes	2.624	n/a	n/a	GoodResponse	0	n/a	n/a	16	74	Blank	AvoidedLoss	True
704.124	1.45	Lose2	0.72	n/a	Yes	2.624	n/a	5.0	GoodResponse	0	0.037	703.161	16	74	Feedback	AvoidedLoss	True
705.578	2.624	Lose2	0.72	n/a	Yes	2.624	n/a	n/a	GoodResponse	0	0.0	n/a	16	74	ISIslide	AvoidedLoss	True
708.22	0.25	Lose2	0.7237	0.0	Yes	2.93	0.02	n/a	GoodResponse	0	n/a	n/a	16	75	Cue	AvoidedLoss	True
708.47	3.95	Lose2	0.7237	0.0	Yes	2.93	0.0	n/a	GoodResponse	0	n/a	n/a	16	75	Fixation	AvoidedLoss	True
712.432	0.37	Lose2	0.7237	0.0	Yes	2.93	0.012	2.0	GoodResponse	0	0.259	711.691	16	75	Target	AvoidedLoss	True
712.691	0.3	Lose2	0.7237	0.0	Yes	2.93	0.012	2.0	GoodResponse	0	0.259	n/a	16	75	ButtonPress	AvoidedLoss	True
712.8	0.33	Lose2	0.7237	n/a	Yes	2.93	n/a	n/a	GoodResponse	0	n/a	n/a	16	75	Blank	AvoidedLoss	True
713.118	1.45	Lose2	0.7237	n/a	Yes	2.93	n/a	5.0	GoodResponse	0	0.017	712.135	16	75	Feedback	AvoidedLoss	True
714.572	2.93	Lose2	0.7237	n/a	Yes	2.93	n/a	n/a	GoodResponse	0	0.0	n/a	16	75	ISIslide	AvoidedLoss	True
717.514	0.25	Control	0.7273000000000001	0.0	Yes	3.236	0.014	n/a	GoodResponse	0	n/a	n/a	16	76	Cue	Neutral	True
717.765	4.05	Control	0.7273000000000001	0.0	Yes	3.236	0.001	n/a	GoodResponse	0	n/a	n/a	16	76	Fixation	Neutral	True
721.81	0.36	Control	0.7273000000000001	0.004	Yes	3.236	-0.004	2.0	GoodResponse	0	0.269	721.079	16	76	Target	Neutral	True
722.079	0.3	Control	0.7273000000000001	0.004	Yes	3.236	-0.004	2.0	GoodResponse	0	0.269	n/a	16	76	ButtonPress	Neutral	True
722.178	0.34	Control	0.7273000000000001	n/a	Yes	3.236	n/a	n/a	GoodResponse	0	n/a	n/a	16	76	Blank	Neutral	True
722.512	1.45	Control	0.7273000000000001	n/a	Yes	3.236	n/a	5.0	GoodResponse	0	0.038	721.55	16	76	Feedback	Neutral	True
723.967	3.236	Control	0.7273000000000001	n/a	Yes	3.236	n/a	n/a	GoodResponse	0	0.0	n/a	16	76	ISIslide	Neutral	True
727.226	0.25	Lose2	0.7308	0.0	Yes	2.574	0.026	n/a	GoodResponse	0	n/a	n/a	16	77	Cue	AvoidedLoss	True
727.477	3.95	Lose2	0.7308	0.0	Yes	2.574	0.001	n/a	GoodResponse	0	n/a	n/a	16	77	Fixation	AvoidedLoss	True
731.422	0.35	Lose2	0.7308	0.004	Yes	2.574	-0.004	2.0	GoodResponse	0	0.251	730.673	16	77	Target	AvoidedLoss	True
731.673	0.3	Lose2	0.7308	0.004	Yes	2.574	-0.004	2.0	GoodResponse	0	0.251	n/a	16	77	ButtonPress	AvoidedLoss	True
731.773	0.35	Lose2	0.7308	n/a	Yes	2.574	n/a	n/a	GoodResponse	0	n/a	n/a	16	77	Blank	AvoidedLoss	True
732.124	1.45	Lose2	0.7308	n/a	Yes	2.574	n/a	5.0	GoodResponse	0	0.036	731.16	16	77	Feedback	AvoidedLoss	True
733.579	2.574	Lose2	0.7308	n/a	Yes	2.574	n/a	n/a	GoodResponse	0	0.0	n/a	16	77	ISIslide	AvoidedLoss	True
