onset	duration	cue_type	current_mean_accuracy	duration_error	is_hit	isi_adjusted	onset_delay	response	response_type	reward	rt	rt_time	total_reward	trial_number	trial_phase	trial_type	one_press
11.104	0.25	Control	1.0	0.0	Yes	2.946	0.004	n/a	GoodResponse	0	n/a	n/a	0	0	Cue	Neutral	True
11.354	3.85	Control	1.0	0.0	Yes	2.946	0.0	n/a	GoodResponse	0	n/a	n/a	0	0	Fixation	Neutral	True
15.202	0.4	Control	1.0	0.002	Yes	2.946	-0.002	4.0	GoodResponse	0	0.19	14.392	0	0	Target	Neutral	True
15.392	0.3	Control	1.0	0.002	Yes	2.946	-0.002	4.0	GoodResponse	0	0.19	n/a	0	0	ButtonPress	Neutral	True
15.602	0.3	Control	1.0	n/a	Yes	2.946	n/a	n/a	GoodResponse	0	n/a	n/a	0	0	Blank	Neutral	True
15.902	1.45	Control	1.0	n/a	Yes	2.946	n/a	5.0	GoodResponse	0	0.025	14.927	0	0	Feedback	Neutral	True
17.352	2.946	Control	1.0	n/a	Yes	2.946	n/a	n/a	GoodResponse	0	0.0	n/a	0	0	ISIslide	Neutral	True
20.317	0.25	Lose2	1.0	0.0	Yes	2.783	0.017	n/a	GoodResponse	0	n/a	n/a	0	1	Cue	AvoidedLoss	True
20.567	4.0	Lose2	1.0	0.0	Yes	2.783	0.0	n/a	GoodResponse	0	n/a	n/a	0	1	Fixation	AvoidedLoss	True
24.566	0.39	Lose2	1.0	0.001	Yes	2.783	-0.001	4.0	GoodResponse	0	0.185	23.751	0	1	Target	AvoidedLoss	True
24.751	0.3	Lose2	1.0	0.001	Yes	2.783	-0.001	4.0	GoodResponse	0	0.185	n/a	0	1	ButtonPress	AvoidedLoss	True
24.966	0.31	Lose2	1.0	n/a	Yes	2.783	n/a	n/a	GoodResponse	0	n/a	n/a	0	1	Blank	AvoidedLoss	True
25.266	1.45	Lose2	1.0	n/a	Yes	2.783	n/a	5.0	GoodResponse	0	0.027	24.293	0	1	Feedback	AvoidedLoss	True
26.715	2.783	Lose2	1.0	n/a	Yes	2.783	n/a	n/a	GoodResponse	0	0.0	n/a	0	1	ISIslide	AvoidedLoss	True
29.514	0.25	Control	1.0	0.0	Yes	2.586	0.014	n/a	GoodResponse	0	n/a	n/a	0	2	Cue	Neutral	True
29.764	4.1	Control	1.0	0.0	Yes	2.586	0.0	n/a	GoodResponse	0	n/a	n/a	0	2	Fixation	Neutral	True
33.863	0.38	Control	1.0	0.001	Yes	2.586	-0.001	4.0	GoodResponse	0	0.181	33.044	0	2	Target	Neutral	True
34.044	0.3	Control	1.0	0.001	Yes	2.586	-0.001	4.0	GoodResponse	0	0.181	n/a	0	2	ButtonPress	Neutral	True
34.246	0.32	Control	1.0	n/a	Yes	2.586	n/a	n/a	GoodResponse	0	n/a	n/a	0	2	Blank	Neutral	True
34.562	1.45	Control	1.0	n/a	Yes	2.586	n/a	5.0	GoodResponse	0	0.048	33.61	0	2	Feedback	Neutral	True
36.012	2.586	Control	1.0	n/a	Yes	2.586	n/a	n/a	GoodResponse	0	0.0	n/a	0	2	ISIslide	Neutral	True
38.628	0.25	Win2	1.0	0.0	Yes	2.822	0.028	n/a	GoodResponse	1	n/a	n/a	1	3	Cue	Win	True
38.878	3.95	Win2	1.0	0.0	Yes	2.822	0.0	n/a	GoodResponse	1	n/a	n/a	1	3	Fixation	Win	True
42.826	0.37	Win2	1.0	0.002	Yes	2.822	-0.002	4.0	GoodResponse	1	0.2	42.026	1	3	Target	Win	True
43.026	0.3	Win2	1.0	0.002	Yes	2.822	-0.002	4.0	GoodResponse	1	0.2	n/a	1	3	ButtonPress	Win	True
43.209	0.33	Win2	1.0	n/a	Yes	2.822	n/a	n/a	GoodResponse	1	n/a	n/a	1	3	Blank	Win	True
43.526	1.45	Win2	1.0	n/a	Yes	2.822	n/a	5.0	GoodResponse	1	0.01	42.536	1	3	Feedback	Win	True
44.975	2.822	Win2	1.0	n/a	Yes	2.822	n/a	n/a	GoodResponse	1	0.0	n/a	1	3	ISIslide	Win	True
47.824	0.25	Win2	1.0	0.001	Yes	3.276	0.024	n/a	GoodResponse	1	n/a	n/a	2	4	Cue	Win	True
48.074	4.0	Win2	1.0	0.0	Yes	3.276	0.0	n/a	GoodResponse	1	n/a	n/a	2	4	Fixation	Win	True
52.073	0.36	Win2	1.0	0.001	Yes	3.276	-0.001	4.0	GoodResponse	1	0.181	51.254	2	4	Target	Win	True
52.254	0.3	Win2	1.0	0.001	Yes	3.276	-0.001	4.0	GoodResponse	1	0.181	n/a	2	4	ButtonPress	Win	True
52.44	0.34	Win2	1.0	n/a	Yes	3.276	n/a	n/a	GoodResponse	1	n/a	n/a	2	4	Blank	Win	True
52.773	1.45	Win2	1.0	n/a	Yes	3.276	n/a	5.0	GoodResponse	1	0.032	51.805	2	4	Feedback	Win	True
54.222	3.276	Win2	1.0	n/a	Yes	3.276	n/a	n/a	GoodResponse	1	0.0	n/a	2	4	ISIslide	Win	True
57.521	0.25	Win2	1.0	0.0	Yes	2.779	0.021	n/a	GoodResponse	1	n/a	n/a	3	5	Cue	Win	True
57.771	4.0	Win2	1.0	0.0	Yes	2.779	0.0	n/a	GoodResponse	1	n/a	n/a	3	5	Fixation	Win	True
61.77	0.35	Win2	1.0	0.001	Yes	2.779	-0.001	4.0	GoodResponse	1	0.209	60.979	3	5	Target	Win	True
61.979	0.3	Win2	1.0	0.001	Yes	2.779	-0.001	4.0	GoodResponse	1	0.209	n/a	3	5	ButtonPress	Win	True
62.12	0.35	Win2	1.0	n/a	Yes	2.779	n/a	n/a	GoodResponse	1	n/a	n/a	3	5	Blank	Win	True
62.469	1.45	Win2	1.0	n/a	Yes	2.779	n/a	5.0	GoodResponse	1	0.043	61.512	3	5	Feedback	Win	True
63.919	2.779	Win2	1.0	n/a	Yes	2.779	n/a	n/a	GoodResponse	1	0.0	n/a	3	5	ISIslide	Win	True
66.718	0.25	Lose2	1.0	0.0	Yes	2.732	0.018	n/a	GoodResponse	0	n/a	n/a	3	6	Cue	AvoidedLoss	True
66.968	3.95	Lose2	1.0	0.0	Yes	2.732	0.0	n/a	GoodResponse	0	n/a	n/a	3	6	Fixation	AvoidedLoss	True
70.916	0.34	Lose2	1.0	0.002	Yes	2.732	-0.002	4.0	GoodResponse	0	0.228	70.144	3	6	Target	AvoidedLoss	True
71.144	0.3	Lose2	1.0	0.002	Yes	2.732	-0.002	4.0	GoodResponse	0	0.228	n/a	3	6	ButtonPress	AvoidedLoss	True
71.266	0.36	Lose2	1.0	n/a	Yes	2.732	n/a	n/a	GoodResponse	0	n/a	n/a	3	6	Blank	AvoidedLoss	True
71.616	1.45	Lose2	1.0	n/a	Yes	2.732	n/a	5.0	GoodResponse	0	0.018	70.634	3	6	Feedback	AvoidedLoss	True
73.066	2.732	Lose2	1.0	n/a	Yes	2.732	n/a	n/a	GoodResponse	0	0.0	n/a	3	6	ISIslide	AvoidedLoss	True
75.815	0.25	Lose2	1.0	0.0	Yes	4.035	0.015	n/a	GoodResponse	0	n/a	n/a	3	7	Cue	AvoidedLoss	True
76.065	4.05	Lose2	1.0	0.0	Yes	4.035	0.0	n/a	GoodResponse	0	n/a	n/a	3	7	Fixation	AvoidedLoss	True
80.113	0.33	Lose2	1.0	0.002	Yes	4.035	-0.002	4.0	GoodResponse	0	0.225	79.338	3	7	Target	AvoidedLoss	True
80.338	0.3	Lose2	1.0	0.002	Yes	4.035	-0.002	4.0	GoodResponse	0	0.225	n/a	3	7	ButtonPress	AvoidedLoss	True
80.447	0.37	Lose2	1.0	n/a	Yes	4.035	n/a	n/a	GoodResponse	0	n/a	n/a	3	7	Blank	AvoidedLoss	True
80.813	1.45	Lose2	1.0	n/a	Yes	4.035	n/a	5.0	GoodResponse	0	0.041	79.854	3	7	Feedback	AvoidedLoss	True
82.263	4.035	Lose2	1.0	n/a	Yes	4.035	n/a	n/a	GoodResponse	0	0.0	n/a	3	7	ISIslide	AvoidedLoss	True
86.328	0.25	Lose2	1.0	0.0	Yes	3.022	0.028	n/a	GoodResponse	0	n/a	n/a	3	8	Cue	AvoidedLoss	True
86.578	3.95	Lose2	1.0	0.0	Yes	3.022	0.0	n/a	GoodResponse	0	n/a	n/a	3	8	Fixation	AvoidedLoss	True
90.526	0.32	Lose2	1.0	0.002	Yes	3.022	-0.002	4.0	GoodResponse	0	0.19	89.716	3	8	Target	AvoidedLoss	True
90.716	0.3	Lose2	1.0	0.002	Yes	3.022	-0.002	4.0	GoodResponse	0	0.19	n/a	3	8	ButtonPress	AvoidedLoss	True
90.86	0.38	Lose2	1.0	n/a	Yes	3.022	n/a	n/a	GoodResponse	0	n/a	n/a	3	8	Blank	AvoidedLoss	True
91.226	1.45	Lose2	1.0	n/a	Yes	3.022	n/a	5.0	GoodResponse	0	0.018	90.244	3	8	Feedback	AvoidedLoss	True
92.676	3.022	Lose2	1.0	n/a	Yes	3.022	n/a	4.0	GoodResponse	0	1.184	n/a	3	8	ISIslide	AvoidedLoss	True
95.708	0.25	Lose2	1.0	0.0	Yes	3.142	0.008	n/a	GoodResponse	0	n/a	n/a	3	9	Cue	AvoidedLoss	True
95.958	3.95	Lose2	1.0	0.0	Yes	3.142	0.0	n/a	GoodResponse	0	n/a	n/a	3	9	Fixation	AvoidedLoss	True
99.906	0.31	Lose2	1.0	0.002	Yes	3.142	-0.002	4.0	GoodResponse	0	0.197	99.103	3	9	Target	AvoidedLoss	True
100.103	0.3	Lose2	1.0	0.002	Yes	3.142	-0.002	4.0	GoodResponse	0	0.197	n/a	3	9	ButtonPress	AvoidedLoss	True
100.223	0.39	Lose2	1.0	n/a	Yes	3.142	n/a	n/a	GoodResponse	0	n/a	n/a	3	9	Blank	AvoidedLoss	True
100.606	1.45	Lose2	1.0	n/a	Yes	3.142	n/a	5.0	GoodResponse	0	0.007	99.613	3	9	Feedback	AvoidedLoss	True
102.056	3.142	Lose2	1.0	n/a	Yes	3.142	n/a	n/a	GoodResponse	0	0.0	n/a	3	9	ISIslide	AvoidedLoss	True
105.221	0.25	Control	1.0	0.0	Yes	3.279	0.021	n/a	GoodResponse	0	n/a	n/a	3	10	Cue	Neutral	True
105.471	4.0	Control	1.0	0.0	Yes	3.279	0.0	n/a	GoodResponse	0	n/a	n/a	3	10	Fixation	Neutral	True
109.47	0.3	Control	1.0	0.001	Yes	3.279	-0.001	4.0	GoodResponse	0	0.202	108.672	3	10	Target	Neutral	True
109.672	0.3	Control	1.0	0.001	Yes	3.279	-0.001	4.0	GoodResponse	0	0.202	n/a	3	10	ButtonPress	Neutral	True
109.77	0.4	Control	1.0	n/a	Yes	3.279	n/a	n/a	GoodResponse	0	n/a	n/a	3	10	Blank	Neutral	True
110.17	1.45	Control	1.0	n/a	Yes	3.279	n/a	5.0	GoodResponse	0	0.0	109.17	3	10	Feedback	Neutral	True
111.619	3.279	Control	1.0	n/a	Yes	3.279	n/a	n/a	GoodResponse	0	0.0	n/a	3	10	ISIslide	Neutral	True
114.918	0.25	Lose2	1.0	0.0	Yes	2.732	0.018	n/a	GoodResponse	0	n/a	n/a	3	11	Cue	AvoidedLoss	True
115.168	4.05	Lose2	1.0	0.0	Yes	2.732	0.0	n/a	GoodResponse	0	n/a	n/a	3	11	Fixation	AvoidedLoss	True
119.216	0.29	Lose2	1.0	0.002	Yes	2.732	-0.002	4.0	GoodResponse	0	0.189	118.405	3	11	Target	AvoidedLoss	True
119.405	0.3	Lose2	1.0	0.002	Yes	2.732	-0.002	4.0	GoodResponse	0	0.189	n/a	3	11	ButtonPress	AvoidedLoss	True
119.516	0.41	Lose2	1.0	n/a	Yes	2.732	n/a	n/a	GoodResponse	0	n/a	n/a	3	11	Blank	AvoidedLoss	True
119.916	1.45	Lose2	1.0	n/a	Yes	2.732	n/a	5.0	GoodResponse	0	0.01	118.926	3	11	Feedback	AvoidedLoss	True
121.366	2.732	Lose2	1.0	n/a	Yes	2.732	n/a	n/a	GoodResponse	0	0.0	n/a	3	11	ISIslide	AvoidedLoss	True
124.115	0.25	Control	1.0	0.0	Yes	2.985	0.015	n/a	GoodResponse	0	n/a	n/a	3	12	Cue	Neutral	True
124.365	3.9	Control	1.0	0.0	Yes	2.985	0.0	n/a	GoodResponse	0	n/a	n/a	3	12	Fixation	Neutral	True
128.263	0.28	Control	1.0	0.002	Yes	2.985	-0.002	4.0	GoodResponse	0	0.22	127.483	3	12	Target	Neutral	True
128.483	0.3	Control	1.0	0.002	Yes	2.985	-0.002	4.0	GoodResponse	0	0.22	n/a	3	12	ButtonPress	Neutral	True
128.547	0.42	Control	1.0	n/a	Yes	2.985	n/a	n/a	GoodResponse	0	n/a	n/a	3	12	Blank	Neutral	True
128.963	1.45	Control	1.0	n/a	Yes	2.985	n/a	5.0	GoodResponse	0	0.037	128.0	3	12	Feedback	Neutral	True
130.413	2.985	Control	1.0	n/a	Yes	2.985	n/a	n/a	GoodResponse	0	0.0	n/a	3	12	ISIslide	Neutral	True
133.428	0.25	Control	1.0	0.0	Yes	2.772	0.028	n/a	GoodResponse	0	n/a	n/a	3	13	Cue	Neutral	True
133.678	4.0	Control	1.0	0.0	Yes	2.772	0.0	n/a	GoodResponse	0	n/a	n/a	3	13	Fixation	Neutral	True
137.677	0.27	Control	1.0	0.001	Yes	2.772	-0.001	4.0	GoodResponse	0	0.211	136.888	3	13	Target	Neutral	True
137.888	0.3	Control	1.0	0.001	Yes	2.772	-0.001	4.0	GoodResponse	0	0.211	n/a	3	13	ButtonPress	Neutral	True
137.96	0.43	Control	1.0	n/a	Yes	2.772	n/a	n/a	GoodResponse	0	n/a	n/a	3	13	Blank	Neutral	True
138.376	1.45	Control	1.0	n/a	Yes	2.772	n/a	5.0	GoodResponse	0	0.038	137.414	3	13	Feedback	Neutral	True
139.826	2.772	Control	1.0	n/a	Yes	2.772	n/a	n/a	GoodResponse	0	0.0	n/a	3	13	ISIslide	Neutral	True
142.625	0.25	Win2	1.0	0.0	Yes	2.675	0.025	n/a	GoodResponse	1	n/a	n/a	4	14	Cue	Win	True
142.875	4.1	Win2	1.0	0.0	Yes	2.675	0.0	n/a	GoodResponse	1	n/a	n/a	4	14	Fixation	Win	True
146.974	0.26	Win2	1.0	0.001	Yes	2.675	-0.001	4.0	GoodResponse	1	0.183	146.157	4	14	Target	Win	True
147.157	0.3	Win2	1.0	0.001	Yes	2.675	-0.001	4.0	GoodResponse	1	0.183	n/a	4	14	ButtonPress	Win	True
147.24	0.44	Win2	1.0	n/a	Yes	2.675	n/a	n/a	GoodResponse	1	n/a	n/a	4	14	Blank	Win	True
147.673	1.45	Win2	1.0	n/a	Yes	2.675	n/a	5.0	GoodResponse	1	0.01	146.683	4	14	Feedback	Win	True
149.123	2.675	Win2	1.0	n/a	Yes	2.675	n/a	n/a	GoodResponse	1	0.0	n/a	4	14	ISIslide	Win	True
151.822	0.25	Control	1.0	0.0	Yes	2.978	0.022	n/a	GoodResponse	0	n/a	n/a	4	15	Cue	Neutral	True
152.072	4.0	Control	1.0	0.0	Yes	2.978	0.0	n/a	GoodResponse	0	n/a	n/a	4	15	Fixation	Neutral	True
156.07	0.25	Control	1.0	0.002	Yes	2.978	-0.002	4.0	GoodResponse	0	0.199	155.269	4	15	Target	Neutral	True
156.269	0.3	Control	1.0	0.002	Yes	2.978	-0.002	4.0	GoodResponse	0	0.199	n/a	4	15	ButtonPress	Neutral	True
156.32	0.45	Control	1.0	n/a	Yes	2.978	n/a	n/a	GoodResponse	0	n/a	n/a	4	15	Blank	Neutral	True
156.77	1.45	Control	1.0	n/a	Yes	2.978	n/a	5.0	GoodResponse	0	0.035	155.805	4	15	Feedback	Neutral	True
158.22	2.978	Control	1.0	n/a	Yes	2.978	n/a	n/a	GoodResponse	0	0.0	n/a	4	15	ISIslide	Neutral	True
161.219	0.25	Win2	1.0	0.0	Yes	2.881	0.019	n/a	GoodResponse	1	n/a	n/a	5	16	Cue	Win	True
161.469	4.0	Win2	1.0	0.0	Yes	2.881	0.0	n/a	GoodResponse	1	n/a	n/a	5	16	Fixation	Win	True
165.467	0.24	Win2	1.0	0.002	Yes	2.881	-0.002	4.0	GoodResponse	1	0.213	164.68	5	16	Target	Win	True
165.68	0.3	Win2	1.0	0.002	Yes	2.881	-0.002	4.0	GoodResponse	1	0.213	n/a	5	16	ButtonPress	Win	True
165.717	0.46	Win2	1.0	n/a	Yes	2.881	n/a	n/a	GoodResponse	1	n/a	n/a	5	16	Blank	Win	True
166.167	1.45	Win2	1.0	n/a	Yes	2.881	n/a	5.0	GoodResponse	1	0.007	165.174	5	16	Feedback	Win	True
167.616	2.881	Win2	1.0	n/a	Yes	2.881	n/a	n/a	GoodResponse	1	0.0	n/a	5	16	ISIslide	Win	True
170.515	0.25	Lose2	1.0	0.0	Yes	2.735	0.015	n/a	GoodResponse	0	n/a	n/a	5	17	Cue	AvoidedLoss	True
170.765	3.95	Lose2	1.0	0.0	Yes	2.735	0.0	n/a	GoodResponse	0	n/a	n/a	5	17	Fixation	AvoidedLoss	True
174.714	0.23	Lose2	1.0	0.001	Yes	2.735	-0.001	4.0	GoodResponse	0	0.197	173.911	5	17	Target	AvoidedLoss	True
174.911	0.3	Lose2	1.0	0.001	Yes	2.735	-0.001	4.0	GoodResponse	0	0.197	n/a	5	17	ButtonPress	AvoidedLoss	True
174.947	0.47	Lose2	1.0	n/a	Yes	2.735	n/a	n/a	GoodResponse	0	n/a	n/a	5	17	Blank	AvoidedLoss	True
175.414	1.45	Lose2	1.0	n/a	Yes	2.735	n/a	5.0	GoodResponse	0	0.024	174.438	5	17	Feedback	AvoidedLoss	True
176.863	2.735	Lose2	1.0	n/a	Yes	2.735	n/a	n/a	GoodResponse	0	0.0	n/a	5	17	ISIslide	AvoidedLoss	True
179.629	0.25	Lose2	1.0	0.0	Yes	2.721	0.029	n/a	GoodResponse	0	n/a	n/a	5	18	Cue	AvoidedLoss	True
179.879	4.05	Lose2	1.0	0.0	Yes	2.721	0.0	n/a	GoodResponse	0	n/a	n/a	5	18	Fixation	AvoidedLoss	True
183.927	0.22	Lose2	1.0	0.002	Yes	2.721	-0.002	4.0	GoodResponse	0	0.205	183.132	5	18	Target	AvoidedLoss	True
184.132	0.3	Lose2	1.0	0.002	Yes	2.721	-0.002	4.0	GoodResponse	0	0.205	n/a	5	18	ButtonPress	AvoidedLoss	True
184.161	0.48	Lose2	1.0	n/a	Yes	2.721	n/a	n/a	GoodResponse	0	n/a	n/a	5	18	Blank	AvoidedLoss	True
184.627	1.45	Lose2	1.0	n/a	Yes	2.721	n/a	5.0	GoodResponse	0	0.031	183.658	5	18	Feedback	AvoidedLoss	True
186.077	2.721	Lose2	1.0	n/a	Yes	2.721	n/a	n/a	GoodResponse	0	0.0	n/a	5	18	ISIslide	AvoidedLoss	True
188.826	0.25	Control	0.95	0.0	No	2.924	0.026	n/a	NoResponse	0	n/a	n/a	5	19	Cue	Neutral	False
189.076	3.95	Control	0.95	0.0	No	2.924	0.0	n/a	NoResponse	0	n/a	n/a	5	19	Fixation	Neutral	False
193.024	0.21	Control	0.95	0.002	No	2.924	-0.002	n/a	NoResponse	0	n/a	n/a	5	19	Target	Neutral	False
193.241	0.49	Control	0.95	n/a	No	2.924	n/a	n/a	NoResponse	0	n/a	n/a	5	19	Blank	Neutral	False
193.724	1.45	Control	0.95	n/a	No	2.924	n/a	5.0	NoResponse	0	0.007	192.731	5	19	Feedback	Neutral	False
195.174	2.924	Control	0.95	n/a	No	2.924	n/a	n/a	NoResponse	0	0.0	n/a	5	19	ISIslide	Neutral	False
198.122	0.25	Control	0.9523999999999999	0.001	Yes	2.628	0.022	n/a	GoodResponse	0	n/a	n/a	5	20	Cue	Neutral	True
198.372	4.05	Control	0.9523999999999999	0.001	Yes	2.628	0.0	n/a	GoodResponse	0	n/a	n/a	5	20	Fixation	Neutral	True
202.421	0.2	Control	0.9523999999999999	0.001	Yes	2.628	-0.001	4.0	GoodResponse	0	0.195	201.616	5	20	Target	Neutral	True
202.616	0.3	Control	0.9523999999999999	0.001	Yes	2.628	-0.001	4.0	GoodResponse	0	0.195	n/a	5	20	ButtonPress	Neutral	True
202.621	0.5	Control	0.9523999999999999	n/a	Yes	2.628	n/a	n/a	GoodResponse	0	n/a	n/a	5	20	Blank	Neutral	True
203.121	1.45	Control	0.9523999999999999	n/a	Yes	2.628	n/a	5.0	GoodResponse	0	0.025	202.146	5	20	Feedback	Neutral	True
204.57	2.628	Control	0.9523999999999999	n/a	Yes	2.628	n/a	n/a	GoodResponse	0	0.0	n/a	5	20	ISIslide	Neutral	True
207.219	0.25	Control	0.9091	0.0	No	2.781	0.019	n/a	NoResponse	0	n/a	n/a	5	21	Cue	Neutral	False
207.469	4.1	Control	0.9091	0.0	No	2.781	0.0	4.0	NoResponse	0	3.47	209.939	5	21	Fixation	Neutral	False
210.939	0.3	Control	0.9091	0.0	No	2.781	0.0	4.0	NoResponse	0	3.47	n/a	5	21	ButtonPress	Neutral	False
211.568	0.19	Control	0.9091	0.001	No	2.781	-0.001	4.0	NoResponse	0	0.223	210.791	5	21	Target	Neutral	False
211.768	0.51	Control	0.9091	n/a	No	2.781	n/a	n/a	NoResponse	0	n/a	n/a	5	21	Blank	Neutral	False
211.791	0.3	Control	0.9091	0.001	No	2.781	-0.001	4.0	NoResponse	0	0.223	n/a	5	21	ButtonPress	Neutral	False
212.268	1.45	Control	0.9091	n/a	No	2.781	n/a	5.0	NoResponse	0	0.049	211.317	5	21	Feedback	Neutral	False
213.717	2.781	Control	0.9091	n/a	No	2.781	n/a	4.0	NoResponse	0	1.065	n/a	5	21	ISIslide	Neutral	False
216.499	0.25	Control	0.8695999999999999	0.001	No	2.801	-0.001	n/a	NoResponse	0	n/a	n/a	5	22	Cue	Neutral	True
216.749	4.0	Control	0.8695999999999999	0.0	No	2.801	0.0	n/a	NoResponse	0	n/a	n/a	5	22	Fixation	Neutral	True
220.748	0.18	Control	0.8695999999999999	0.001	No	2.801	-0.001	4.0	NoResponse	0	0.201	219.949	5	22	Target	Neutral	True
220.931	0.52	Control	0.8695999999999999	n/a	No	2.801	n/a	n/a	NoResponse	0	n/a	n/a	5	22	Blank	Neutral	True
220.949	0.3	Control	0.8695999999999999	0.001	No	2.801	-0.001	4.0	NoResponse	0	0.201	n/a	5	22	ButtonPress	Neutral	True
221.448	1.45	Control	0.8695999999999999	n/a	No	2.801	n/a	5.0	NoResponse	0	0.039	220.487	5	22	Feedback	Neutral	True
222.897	2.801	Control	0.8695999999999999	n/a	No	2.801	n/a	n/a	NoResponse	0	0.0	n/a	5	22	ISIslide	Neutral	True
225.713	0.25	Control	0.8332999999999999	0.0	No	2.787	0.013	n/a	NoResponse	0	n/a	n/a	5	23	Cue	Neutral	True
225.963	3.9	Control	0.8332999999999999	0.0	No	2.787	0.0	n/a	NoResponse	0	n/a	n/a	5	23	Fixation	Neutral	True
229.862	0.17	Control	0.8332999999999999	0.001	No	2.787	-0.001	4.0	NoResponse	0	0.191	229.053	5	23	Target	Neutral	True
230.045	0.53	Control	0.8332999999999999	n/a	No	2.787	n/a	n/a	NoResponse	0	n/a	n/a	5	23	Blank	Neutral	True
230.053	0.3	Control	0.8332999999999999	0.001	No	2.787	-0.001	4.0	NoResponse	0	0.191	n/a	5	23	ButtonPress	Neutral	True
230.561	1.45	Control	0.8332999999999999	n/a	No	2.787	n/a	5.0	NoResponse	0	0.048	229.609	5	23	Feedback	Neutral	True
232.011	2.787	Control	0.8332999999999999	n/a	No	2.787	n/a	n/a	NoResponse	0	0.0	n/a	5	23	ISIslide	Neutral	True
234.826	0.25	Win2	0.8	0.001	No	3.124	0.026	n/a	NoResponse	0	n/a	n/a	5	24	Cue	MissedWin	True
235.076	3.95	Win2	0.8	0.0	No	3.124	0.0	n/a	NoResponse	0	n/a	n/a	5	24	Fixation	MissedWin	True
239.025	0.16	Win2	0.8	0.001	No	3.124	-0.001	4.0	NoResponse	0	0.196	238.221	5	24	Target	MissedWin	True
239.192	0.54	Win2	0.8	n/a	No	3.124	n/a	n/a	NoResponse	0	n/a	n/a	5	24	Blank	MissedWin	True
239.221	0.3	Win2	0.8	0.001	No	3.124	-0.001	4.0	NoResponse	0	0.196	n/a	5	24	ButtonPress	MissedWin	True
239.725	1.45	Win2	0.8	n/a	No	3.124	n/a	5.0	NoResponse	0	0.006	238.731	5	24	Feedback	MissedWin	True
241.174	3.124	Win2	0.8	n/a	No	3.124	n/a	n/a	NoResponse	0	0.0	n/a	5	24	ISIslide	MissedWin	True
244.323	0.25	Win2	0.7692	0.0	No	3.077	0.023	n/a	NoResponse	0	n/a	n/a	5	25	Cue	MissedWin	True
244.573	4.0	Win2	0.7692	0.0	No	3.077	0.0	n/a	NoResponse	0	n/a	n/a	5	25	Fixation	MissedWin	True
248.572	0.15	Win2	0.7692	0.001	No	3.077	-0.001	4.0	NoResponse	0	0.215	247.787	5	25	Target	MissedWin	True
248.722	0.55	Win2	0.7692	n/a	No	3.077	n/a	n/a	NoResponse	0	n/a	n/a	5	25	Blank	MissedWin	True
248.787	0.3	Win2	0.7692	0.001	No	3.077	-0.001	4.0	NoResponse	0	0.215	n/a	5	25	ButtonPress	MissedWin	True
249.271	1.45	Win2	0.7692	n/a	No	3.077	n/a	5.0	NoResponse	0	0.021	248.292	5	25	Feedback	MissedWin	True
250.721	3.077	Win2	0.7692	n/a	No	3.077	n/a	n/a	NoResponse	0	0.0	n/a	5	25	ISIslide	MissedWin	True
253.82	0.25	Win2	0.7406999999999999	0.0	No	2.93	0.02	n/a	NoResponse	0	n/a	n/a	5	26	Cue	MissedWin	True
254.07	3.95	Win2	0.7406999999999999	0.0	No	2.93	0.0	n/a	NoResponse	0	n/a	n/a	5	26	Fixation	MissedWin	True
258.018	0.15	Win2	0.7406999999999999	0.002	No	2.93	-0.002	4.0	NoResponse	0	0.163	257.181	5	26	Target	MissedWin	True
258.168	0.55	Win2	0.7406999999999999	n/a	No	2.93	n/a	n/a	NoResponse	0	n/a	n/a	5	26	Blank	MissedWin	True
258.181	0.3	Win2	0.7406999999999999	0.002	No	2.93	-0.002	4.0	NoResponse	0	0.163	n/a	5	26	ButtonPress	MissedWin	True
258.718	1.45	Win2	0.7406999999999999	n/a	No	2.93	n/a	5.0	NoResponse	0	0.037	257.755	5	26	Feedback	MissedWin	True
260.168	2.93	Win2	0.7406999999999999	n/a	No	2.93	n/a	n/a	NoResponse	0	0.0	n/a	5	26	ISIslide	MissedWin	True
263.117	0.25	Lose2	0.7143	0.0	No	2.833	0.017	n/a	NoResponse	-1	n/a	n/a	4	27	Cue	Loss	True
263.367	4.05	Lose2	0.7143	0.0	No	2.833	0.0	n/a	NoResponse	-1	n/a	n/a	4	27	Fixation	Loss	True
267.415	0.15	Lose2	0.7143	0.002	No	2.833	-0.002	4.0	NoResponse	-1	0.187	266.602	4	27	Target	Loss	True
267.565	0.55	Lose2	0.7143	n/a	No	2.833	n/a	n/a	NoResponse	-1	n/a	n/a	4	27	Blank	Loss	True
267.602	0.3	Lose2	0.7143	0.002	No	2.833	-0.002	4.0	NoResponse	-1	0.187	n/a	4	27	ButtonPress	Loss	True
268.115	1.45	Lose2	0.7143	n/a	No	2.833	n/a	5.0	NoResponse	-1	0.007	267.122	4	27	Feedback	Loss	True
269.564	2.833	Lose2	0.7143	n/a	No	2.833	n/a	2.0	NoResponse	-1	0.748	n/a	4	27	ISIslide	Loss	True
272.397	0.25	Control	0.6897	0.0	No	2.853	-0.003	n/a	NoResponse	0	n/a	n/a	4	28	Cue	Neutral	True
272.647	4.05	Control	0.6897	0.0	No	2.853	0.0	n/a	NoResponse	0	n/a	n/a	4	28	Fixation	Neutral	True
276.695	0.15	Control	0.6897	0.002	No	2.853	-0.002	4.0	NoResponse	0	0.189	275.884	4	28	Target	Neutral	True
276.845	0.55	Control	0.6897	n/a	No	2.853	n/a	n/a	NoResponse	0	n/a	n/a	4	28	Blank	Neutral	True
276.884	0.3	Control	0.6897	0.002	No	2.853	-0.002	4.0	NoResponse	0	0.189	n/a	4	28	ButtonPress	Neutral	True
277.395	1.45	Control	0.6897	n/a	No	2.853	n/a	5.0	NoResponse	0	0.043	276.438	4	28	Feedback	Neutral	True
278.845	2.853	Control	0.6897	n/a	No	2.853	n/a	n/a	NoResponse	0	0.0	n/a	4	28	ISIslide	Neutral	True
281.727	0.25	Lose2	0.6667000000000001	0.0	No	2.823	0.027	n/a	NoResponse	-1	n/a	n/a	3	29	Cue	Loss	True
281.977	3.95	Lose2	0.6667000000000001	0.0	No	2.823	0.0	n/a	NoResponse	-1	n/a	n/a	3	29	Fixation	Loss	True
285.925	0.15	Lose2	0.6667000000000001	0.002	No	2.823	-0.002	4.0	NoResponse	-1	0.177	285.102	3	29	Target	Loss	True
286.075	0.55	Lose2	0.6667000000000001	n/a	No	2.823	n/a	n/a	NoResponse	-1	n/a	n/a	3	29	Blank	Loss	True
286.102	0.3	Lose2	0.6667000000000001	0.002	No	2.823	-0.002	4.0	NoResponse	-1	0.177	n/a	3	29	ButtonPress	Loss	True
286.625	1.45	Lose2	0.6667000000000001	n/a	No	2.823	n/a	5.0	NoResponse	-1	0.032	285.657	3	29	Feedback	Loss	True
288.075	2.823	Lose2	0.6667000000000001	n/a	No	2.823	n/a	n/a	NoResponse	-1	0.0	n/a	3	29	ISIslide	Loss	True
290.924	0.25	Win2	0.6452	0.0	No	2.776	0.024	n/a	NoResponse	0	n/a	n/a	3	30	Cue	MissedWin	True
291.174	3.9	Win2	0.6452	0.0	No	2.776	0.0	n/a	NoResponse	0	n/a	n/a	3	30	Fixation	MissedWin	True
295.072	0.15	Win2	0.6452	0.002	No	2.776	-0.002	4.0	NoResponse	0	0.185	294.257	3	30	Target	MissedWin	True
295.222	0.55	Win2	0.6452	n/a	No	2.776	n/a	n/a	NoResponse	0	n/a	n/a	3	30	Blank	MissedWin	True
295.257	0.3	Win2	0.6452	0.002	No	2.776	-0.002	4.0	NoResponse	0	0.185	n/a	3	30	ButtonPress	MissedWin	True
295.772	1.45	Win2	0.6452	n/a	No	2.776	n/a	5.0	NoResponse	0	0.007	294.779	3	30	Feedback	MissedWin	True
297.222	2.776	Win2	0.6452	n/a	No	2.776	n/a	4.0	NoResponse	0	2.234	n/a	3	30	ISIslide	MissedWin	True
300.004	0.25	Lose2	0.625	0.0	No	2.846	0.004	n/a	NoResponse	-1	n/a	n/a	2	31	Cue	Loss	True
300.254	4.05	Lose2	0.625	0.0	No	2.846	0.0	n/a	NoResponse	-1	n/a	n/a	2	31	Fixation	Loss	True
304.302	0.16	Lose2	0.625	0.002	No	2.846	-0.002	4.0	NoResponse	-1	0.206	303.508	2	31	Target	Loss	True
304.469	0.54	Lose2	0.625	n/a	No	2.846	n/a	n/a	NoResponse	-1	n/a	n/a	2	31	Blank	Loss	True
304.508	0.3	Lose2	0.625	0.002	No	2.846	-0.002	4.0	NoResponse	-1	0.206	n/a	2	31	ButtonPress	Loss	True
305.002	1.45	Lose2	0.625	n/a	No	2.846	n/a	5.0	NoResponse	-1	0.046	304.048	2	31	Feedback	Loss	True
306.452	2.846	Lose2	0.625	n/a	No	2.846	n/a	n/a	NoResponse	-1	0.0	n/a	2	31	ISIslide	Loss	True
309.317	0.25	Lose2	0.6061	0.001	No	2.633	0.017	n/a	NoResponse	-1	n/a	n/a	1	32	Cue	Loss	True
309.567	4.15	Lose2	0.6061	0.0	No	2.633	0.0	n/a	NoResponse	-1	n/a	n/a	1	32	Fixation	Loss	True
313.716	0.17	Lose2	0.6061	0.001	No	2.633	-0.001	4.0	NoResponse	-1	0.228	312.944	1	32	Target	Loss	True
313.882	0.53	Lose2	0.6061	n/a	No	2.633	n/a	n/a	NoResponse	-1	n/a	n/a	1	32	Blank	Loss	True
313.944	0.3	Lose2	0.6061	0.001	No	2.633	-0.001	4.0	NoResponse	-1	0.228	n/a	1	32	ButtonPress	Loss	True
314.416	1.45	Lose2	0.6061	n/a	No	2.633	n/a	5.0	NoResponse	-1	0.046	313.462	1	32	Feedback	Loss	True
315.865	2.633	Lose2	0.6061	n/a	No	2.633	n/a	n/a	NoResponse	-1	0.0	n/a	1	32	ISIslide	Loss	True
318.514	0.25	Win2	0.5882000000000001	0.0	No	2.686	0.014	n/a	NoResponse	0	n/a	n/a	1	33	Cue	MissedWin	True
318.764	4.0	Win2	0.5882000000000001	0.0	No	2.686	0.0	n/a	NoResponse	0	n/a	n/a	1	33	Fixation	MissedWin	True
322.763	0.18	Win2	0.5882000000000001	0.001	No	2.686	-0.001	4.0	NoResponse	0	0.212	321.975	1	33	Target	MissedWin	True
322.946	0.52	Win2	0.5882000000000001	n/a	No	2.686	n/a	n/a	NoResponse	0	n/a	n/a	1	33	Blank	MissedWin	True
322.975	0.3	Win2	0.5882000000000001	0.001	No	2.686	-0.001	4.0	NoResponse	0	0.212	n/a	1	33	ButtonPress	MissedWin	True
323.462	1.45	Win2	0.5882000000000001	n/a	No	2.686	n/a	5.0	NoResponse	0	0.025	322.487	1	33	Feedback	MissedWin	True
324.912	2.686	Win2	0.5882000000000001	n/a	No	2.686	n/a	n/a	NoResponse	0	0.0	n/a	1	33	ISIslide	MissedWin	True
327.628	0.25	Lose2	0.6	0.0	Yes	2.622	0.028	n/a	GoodResponse	0	n/a	n/a	1	34	Cue	AvoidedLoss	True
327.878	4.05	Lose2	0.6	0.0	Yes	2.622	0.0	n/a	GoodResponse	0	n/a	n/a	1	34	Fixation	AvoidedLoss	True
331.926	0.19	Lose2	0.6	0.002	Yes	2.622	-0.002	4.0	GoodResponse	0	0.182	331.108	1	34	Target	AvoidedLoss	True
332.108	0.3	Lose2	0.6	0.002	Yes	2.622	-0.002	4.0	GoodResponse	0	0.182	n/a	1	34	ButtonPress	AvoidedLoss	True
332.126	0.51	Lose2	0.6	n/a	Yes	2.622	n/a	n/a	GoodResponse	0	n/a	n/a	1	34	Blank	AvoidedLoss	True
332.626	1.45	Lose2	0.6	n/a	Yes	2.622	n/a	5.0	GoodResponse	0	0.032	331.658	1	34	Feedback	AvoidedLoss	True
334.075	2.622	Lose2	0.6	n/a	Yes	2.622	n/a	n/a	GoodResponse	0	0.0	n/a	1	34	ISIslide	AvoidedLoss	True
336.725	0.25	Lose2	0.6111	0.0	Yes	2.675	0.025	n/a	GoodResponse	0	n/a	n/a	1	35	Cue	AvoidedLoss	True
336.974	4.0	Lose2	0.6111	0.001	Yes	2.675	-0.001	n/a	GoodResponse	0	n/a	n/a	1	35	Fixation	AvoidedLoss	True
340.973	0.2	Lose2	0.6111	0.002	Yes	2.675	-0.002	4.0	GoodResponse	0	0.193	340.166	1	35	Target	AvoidedLoss	True
341.166	0.3	Lose2	0.6111	0.002	Yes	2.675	-0.002	4.0	GoodResponse	0	0.193	n/a	1	35	ButtonPress	AvoidedLoss	True
341.173	0.5	Lose2	0.6111	n/a	Yes	2.675	n/a	n/a	GoodResponse	0	n/a	n/a	1	35	Blank	AvoidedLoss	True
341.673	1.45	Lose2	0.6111	n/a	Yes	2.675	n/a	5.0	GoodResponse	0	0.008	340.681	1	35	Feedback	AvoidedLoss	True
343.122	2.675	Lose2	0.6111	n/a	Yes	2.675	n/a	n/a	GoodResponse	0	0.0	n/a	1	35	ISIslide	AvoidedLoss	True
345.821	0.25	Control	0.6215999999999999	0.001	Yes	2.679	0.021	n/a	GoodResponse	0	n/a	n/a	1	36	Cue	Neutral	False
346.071	4.0	Control	0.6215999999999999	0.0	Yes	2.679	0.0	4.0	GoodResponse	0	3.643	348.714	1	36	Fixation	Neutral	False
349.714	0.3	Control	0.6215999999999999	0.0	Yes	2.679	0.0	4.0	GoodResponse	0	3.643	n/a	1	36	ButtonPress	Neutral	False
350.07	0.21	Control	0.6215999999999999	0.001	Yes	2.679	-0.001	4.0	GoodResponse	0	0.202	349.272	1	36	Target	Neutral	False
350.272	0.3	Control	0.6215999999999999	0.001	Yes	2.679	-0.001	4.0	GoodResponse	0	0.202	n/a	1	36	ButtonPress	Neutral	False
350.287	0.49	Control	0.6215999999999999	n/a	Yes	2.679	n/a	n/a	GoodResponse	0	n/a	n/a	1	36	Blank	Neutral	False
350.77	1.45	Control	0.6215999999999999	n/a	Yes	2.679	n/a	5.0	GoodResponse	0	0.033	349.803	1	36	Feedback	Neutral	False
352.219	2.679	Control	0.6215999999999999	n/a	Yes	2.679	n/a	n/a	GoodResponse	0	0.0	n/a	1	36	ISIslide	Neutral	False
354.918	0.25	Win2	0.6315999999999999	0.0	Yes	2.882	0.018	n/a	GoodResponse	1	n/a	n/a	2	37	Cue	Win	True
355.168	4.0	Win2	0.6315999999999999	0.0	Yes	2.882	0.0	n/a	GoodResponse	1	n/a	n/a	2	37	Fixation	Win	True
359.167	0.22	Win2	0.6315999999999999	0.001	Yes	2.882	-0.001	4.0	GoodResponse	1	0.195	358.362	2	37	Target	Win	True
359.362	0.3	Win2	0.6315999999999999	0.001	Yes	2.882	-0.001	4.0	GoodResponse	1	0.195	n/a	2	37	ButtonPress	Win	True
359.383	0.48	Win2	0.6315999999999999	n/a	Yes	2.882	n/a	n/a	GoodResponse	1	n/a	n/a	2	37	Blank	Win	True
359.867	1.45	Win2	0.6315999999999999	n/a	Yes	2.882	n/a	5.0	GoodResponse	1	0.01	358.877	2	37	Feedback	Win	True
361.316	2.882	Win2	0.6315999999999999	n/a	Yes	2.882	n/a	n/a	GoodResponse	1	0.0	n/a	2	37	ISIslide	Win	True
364.215	0.25	Lose2	0.6154	0.0	No	2.835	0.015	n/a	LatePress	-1	n/a	n/a	1	38	Cue	Loss	True
364.465	3.95	Lose2	0.6154	0.0	No	2.835	0.0	n/a	LatePress	-1	n/a	n/a	1	38	Fixation	Loss	True
368.414	0.23	Lose2	0.6154	0.001	No	2.835	-0.001	4.0	LatePress	-1	0.23	367.644	1	38	Target	Loss	True
368.644	0.3	Lose2	0.6154	0.001	No	2.835	-0.001	4.0	LatePress	-1	0.23	n/a	1	38	ButtonPress	Loss	True
368.647	0.47	Lose2	0.6154	n/a	No	2.835	n/a	n/a	LatePress	-1	n/a	n/a	1	38	Blank	Loss	True
369.113	1.45	Lose2	0.6154	n/a	No	2.835	n/a	5.0	LatePress	-1	0.032	368.145	1	38	Feedback	Loss	True
370.563	2.835	Lose2	0.6154	n/a	No	2.835	n/a	n/a	LatePress	-1	0.0	n/a	1	38	ISIslide	Loss	True
373.429	0.25	Win2	0.625	0.0	Yes	2.971	0.029	n/a	GoodResponse	1	n/a	n/a	2	39	Cue	Win	True
373.678	4.1	Win2	0.625	0.001	Yes	2.971	-0.001	n/a	GoodResponse	1	n/a	n/a	2	39	Fixation	Win	True
377.777	0.24	Win2	0.625	0.002	Yes	2.971	-0.002	4.0	GoodResponse	1	0.21	376.987	2	39	Target	Win	True
377.987	0.3	Win2	0.625	0.002	Yes	2.971	-0.002	4.0	GoodResponse	1	0.21	n/a	2	39	ButtonPress	Win	True
378.027	0.46	Win2	0.625	n/a	Yes	2.971	n/a	n/a	GoodResponse	1	n/a	n/a	2	39	Blank	Win	True
378.477	1.45	Win2	0.625	n/a	Yes	2.971	n/a	5.0	GoodResponse	1	0.034	377.511	2	39	Feedback	Win	True
379.926	2.971	Win2	0.625	n/a	Yes	2.971	n/a	n/a	GoodResponse	1	0.0	n/a	2	39	ISIslide	Win	True
382.925	0.25	Win2	0.6341	0.0	Yes	2.725	0.025	n/a	GoodResponse	1	n/a	n/a	3	40	Cue	Win	True
383.175	3.95	Win2	0.6341	0.0	Yes	2.725	0.0	n/a	GoodResponse	1	n/a	n/a	3	40	Fixation	Win	True
387.124	0.25	Win2	0.6341	0.001	Yes	2.725	-0.001	4.0	GoodResponse	1	0.199	386.323	3	40	Target	Win	True
387.323	0.3	Win2	0.6341	0.001	Yes	2.725	-0.001	4.0	GoodResponse	1	0.199	n/a	3	40	ButtonPress	Win	True
387.374	0.45	Win2	0.6341	n/a	Yes	2.725	n/a	n/a	GoodResponse	1	n/a	n/a	3	40	Blank	Win	True
387.824	1.45	Win2	0.6341	n/a	Yes	2.725	n/a	5.0	GoodResponse	1	0.006	386.83	3	40	Feedback	Win	True
389.273	2.725	Win2	0.6341	n/a	Yes	2.725	n/a	n/a	GoodResponse	1	0.0	n/a	3	40	ISIslide	Win	True
392.022	0.25	Win2	0.6429	0.0	Yes	2.778	0.022	n/a	GoodResponse	1	n/a	n/a	4	41	Cue	Win	True
392.272	3.9	Win2	0.6429	0.0	Yes	2.778	0.0	n/a	GoodResponse	1	n/a	n/a	4	41	Fixation	Win	True
396.171	0.26	Win2	0.6429	0.001	Yes	2.778	-0.001	4.0	GoodResponse	1	0.156	395.327	4	41	Target	Win	True
396.327	0.3	Win2	0.6429	0.001	Yes	2.778	-0.001	4.0	GoodResponse	1	0.156	n/a	4	41	ButtonPress	Win	True
396.437	0.44	Win2	0.6429	n/a	Yes	2.778	n/a	n/a	GoodResponse	1	n/a	n/a	4	41	Blank	Win	True
396.87	1.45	Win2	0.6429	n/a	Yes	2.778	n/a	5.0	GoodResponse	1	0.03	395.9	4	41	Feedback	Win	True
398.32	2.778	Win2	0.6429	n/a	Yes	2.778	n/a	n/a	GoodResponse	1	0.0	n/a	4	41	ISIslide	Win	True
401.119	0.25	Control	0.6512	0.0	Yes	2.931	0.019	n/a	GoodResponse	0	n/a	n/a	4	42	Cue	Neutral	True
401.369	3.85	Control	0.6512	0.0	Yes	2.931	0.0	n/a	GoodResponse	0	n/a	n/a	4	42	Fixation	Neutral	True
405.218	0.27	Control	0.6512	0.001	Yes	2.931	-0.001	4.0	GoodResponse	0	0.193	404.411	4	42	Target	Neutral	True
405.411	0.3	Control	0.6512	0.001	Yes	2.931	-0.001	4.0	GoodResponse	0	0.193	n/a	4	42	ButtonPress	Neutral	True
405.501	0.43	Control	0.6512	n/a	Yes	2.931	n/a	n/a	GoodResponse	0	n/a	n/a	4	42	Blank	Neutral	True
405.917	1.45	Control	0.6512	n/a	Yes	2.931	n/a	5.0	GoodResponse	0	0.008	404.925	4	42	Feedback	Neutral	True
407.367	2.931	Control	0.6512	n/a	Yes	2.931	n/a	n/a	GoodResponse	0	0.0	n/a	4	42	ISIslide	Neutral	True
410.316	0.25	Win2	0.6591	0.0	Yes	3.184	0.016	n/a	GoodResponse	1	n/a	n/a	5	43	Cue	Win	True
410.566	4.0	Win2	0.6591	0.0	Yes	3.184	0.0	n/a	GoodResponse	1	n/a	n/a	5	43	Fixation	Win	True
414.564	0.28	Win2	0.6591	0.002	Yes	3.184	-0.002	4.0	GoodResponse	1	0.212	413.776	5	43	Target	Win	True
414.776	0.3	Win2	0.6591	0.002	Yes	3.184	-0.002	4.0	GoodResponse	1	0.212	n/a	5	43	ButtonPress	Win	True
414.848	0.42	Win2	0.6591	n/a	Yes	3.184	n/a	n/a	GoodResponse	1	n/a	n/a	5	43	Blank	Win	True
415.264	1.45	Win2	0.6591	n/a	Yes	3.184	n/a	5.0	GoodResponse	1	0.027	414.291	5	43	Feedback	Win	True
416.714	3.184	Win2	0.6591	n/a	Yes	3.184	n/a	n/a	GoodResponse	1	0.0	n/a	5	43	ISIslide	Win	True
419.929	0.25	Win2	0.6667000000000001	0.0	Yes	2.971	0.029	n/a	GoodResponse	1	n/a	n/a	6	44	Cue	Win	True
420.179	4.0	Win2	0.6667000000000001	0.0	Yes	2.971	0.0	n/a	GoodResponse	1	n/a	n/a	6	44	Fixation	Win	True
424.178	0.28	Win2	0.6667000000000001	0.001	Yes	2.971	-0.001	4.0	GoodResponse	1	0.196	423.374	6	44	Target	Win	True
424.374	0.3	Win2	0.6667000000000001	0.001	Yes	2.971	-0.001	4.0	GoodResponse	1	0.196	n/a	6	44	ButtonPress	Win	True
424.461	0.42	Win2	0.6667000000000001	n/a	Yes	2.971	n/a	n/a	GoodResponse	1	n/a	n/a	6	44	Blank	Win	True
424.877	1.45	Win2	0.6667000000000001	n/a	Yes	2.971	n/a	5.0	GoodResponse	1	0.024	423.901	6	44	Feedback	Win	True
426.327	2.971	Win2	0.6667000000000001	n/a	Yes	2.971	n/a	n/a	GoodResponse	1	0.0	n/a	6	44	ISIslide	Win	True
429.326	0.25	Control	0.6739	0.0	Yes	2.874	0.026	n/a	GoodResponse	0	n/a	n/a	6	45	Cue	Neutral	True
429.576	4.1	Control	0.6739	0.0	Yes	2.874	0.0	n/a	GoodResponse	0	n/a	n/a	6	45	Fixation	Neutral	True
433.674	0.27	Control	0.6739	0.002	Yes	2.874	-0.002	4.0	GoodResponse	0	0.216	432.89	6	45	Target	Neutral	True
433.89	0.3	Control	0.6739	0.002	Yes	2.874	-0.002	4.0	GoodResponse	0	0.216	n/a	6	45	ButtonPress	Neutral	True
433.958	0.43	Control	0.6739	n/a	Yes	2.874	n/a	n/a	GoodResponse	0	n/a	n/a	6	45	Blank	Neutral	True
434.374	1.45	Control	0.6739	n/a	Yes	2.874	n/a	5.0	GoodResponse	0	0.039	433.413	6	45	Feedback	Neutral	True
435.824	2.874	Control	0.6739	n/a	Yes	2.874	n/a	n/a	GoodResponse	0	0.0	n/a	6	45	ISIslide	Neutral	True
438.723	0.25	Lose2	0.6809000000000001	0.0	Yes	3.377	0.023	n/a	GoodResponse	0	n/a	n/a	6	46	Cue	AvoidedLoss	True
438.973	4.0	Lose2	0.6809000000000001	0.0	Yes	3.377	0.0	n/a	GoodResponse	0	n/a	n/a	6	46	Fixation	AvoidedLoss	True
442.971	0.26	Lose2	0.6809000000000001	0.002	Yes	3.377	-0.002	4.0	GoodResponse	0	0.241	442.212	6	46	Target	AvoidedLoss	True
443.212	0.3	Lose2	0.6809000000000001	0.002	Yes	3.377	-0.002	4.0	GoodResponse	0	0.241	n/a	6	46	ButtonPress	AvoidedLoss	True
443.238	0.44	Lose2	0.6809000000000001	n/a	Yes	3.377	n/a	n/a	GoodResponse	0	n/a	n/a	6	46	Blank	AvoidedLoss	True
443.671	1.45	Lose2	0.6809000000000001	n/a	Yes	3.377	n/a	5.0	GoodResponse	0	0.011	442.682	6	46	Feedback	AvoidedLoss	True
445.12	3.377	Lose2	0.6809000000000001	n/a	Yes	3.377	n/a	n/a	GoodResponse	0	0.0	n/a	6	46	ISIslide	AvoidedLoss	True
448.519	0.25	Lose2	0.6875	0.0	Yes	2.681	0.019	n/a	GoodResponse	0	n/a	n/a	6	47	Cue	AvoidedLoss	True
448.769	4.0	Lose2	0.6875	0.0	Yes	2.681	0.0	n/a	GoodResponse	0	n/a	n/a	6	47	Fixation	AvoidedLoss	True
452.768	0.25	Lose2	0.6875	0.001	Yes	2.681	-0.001	4.0	GoodResponse	0	0.189	451.957	6	47	Target	AvoidedLoss	True
452.957	0.3	Lose2	0.6875	0.001	Yes	2.681	-0.001	4.0	GoodResponse	0	0.189	n/a	6	47	ButtonPress	AvoidedLoss	True
453.018	0.45	Lose2	0.6875	n/a	Yes	2.681	n/a	n/a	GoodResponse	0	n/a	n/a	6	47	Blank	AvoidedLoss	True
453.468	1.45	Lose2	0.6875	n/a	Yes	2.681	n/a	5.0	GoodResponse	0	0.019	452.487	6	47	Feedback	AvoidedLoss	True
454.917	2.681	Lose2	0.6875	n/a	Yes	2.681	n/a	n/a	GoodResponse	0	0.0	n/a	6	47	ISIslide	AvoidedLoss	True
457.616	0.25	Lose2	0.6735	0.0	No	3.034	0.016	n/a	LatePress	-1	n/a	n/a	5	48	Cue	Loss	True
457.866	3.95	Lose2	0.6735	0.0	No	3.034	0.0	n/a	LatePress	-1	n/a	n/a	5	48	Fixation	Loss	True
461.815	0.24	Lose2	0.6735	0.001	No	3.034	-0.001	4.0	LatePress	-1	0.249	461.064	5	48	Target	Loss	True
462.064	0.3	Lose2	0.6735	0.001	No	3.034	-0.001	4.0	LatePress	-1	0.249	n/a	5	48	ButtonPress	Loss	True
462.065	0.46	Lose2	0.6735	n/a	No	3.034	n/a	n/a	LatePress	-1	n/a	n/a	5	48	Blank	Loss	True
462.514	1.45	Lose2	0.6735	n/a	No	3.034	n/a	5.0	LatePress	-1	0.045	461.559	5	48	Feedback	Loss	True
463.964	3.034	Lose2	0.6735	n/a	No	3.034	n/a	n/a	LatePress	-1	0.0	n/a	5	48	ISIslide	Loss	True
467.013	0.25	Control	0.68	0.0	Yes	2.887	0.013	n/a	GoodResponse	0	n/a	n/a	5	49	Cue	Neutral	True
467.263	4.0	Control	0.68	0.0	Yes	2.887	0.0	n/a	GoodResponse	0	n/a	n/a	5	49	Fixation	Neutral	True
471.261	0.23	Control	0.68	0.002	Yes	2.887	-0.002	4.0	GoodResponse	0	0.212	470.473	5	49	Target	Neutral	True
471.473	0.3	Control	0.68	0.002	Yes	2.887	-0.002	4.0	GoodResponse	0	0.212	n/a	5	49	ButtonPress	Neutral	True
471.495	0.47	Control	0.68	n/a	Yes	2.887	n/a	n/a	GoodResponse	0	n/a	n/a	5	49	Blank	Neutral	True
471.961	1.45	Control	0.68	n/a	Yes	2.887	n/a	5.0	GoodResponse	0	0.013	470.974	5	49	Feedback	Neutral	True
473.411	2.887	Control	0.68	n/a	Yes	2.887	n/a	n/a	GoodResponse	0	0.0	n/a	5	49	ISIslide	Neutral	True
476.326	0.25	Control	0.6862999999999999	0.0	Yes	2.774	0.026	n/a	GoodResponse	0	n/a	n/a	5	50	Cue	Neutral	True
476.576	4.0	Control	0.6862999999999999	0.0	Yes	2.774	0.0	n/a	GoodResponse	0	n/a	n/a	5	50	Fixation	Neutral	True
480.575	0.22	Control	0.6862999999999999	0.001	Yes	2.774	-0.001	4.0	GoodResponse	0	0.165	479.74	5	50	Target	Neutral	True
480.74	0.3	Control	0.6862999999999999	0.001	Yes	2.774	-0.001	4.0	GoodResponse	0	0.165	n/a	5	50	ButtonPress	Neutral	True
480.791	0.48	Control	0.6862999999999999	n/a	Yes	2.774	n/a	n/a	GoodResponse	0	n/a	n/a	5	50	Blank	Neutral	True
481.275	1.45	Control	0.6862999999999999	n/a	Yes	2.774	n/a	5.0	GoodResponse	0	0.016	480.291	5	50	Feedback	Neutral	True
482.724	2.774	Control	0.6862999999999999	n/a	Yes	2.774	n/a	n/a	GoodResponse	0	0.0	n/a	5	50	ISIslide	Neutral	True
485.523	0.25	Control	0.6923	0.0	Yes	2.727	0.023	n/a	GoodResponse	0	n/a	n/a	5	51	Cue	Neutral	True
485.773	3.95	Control	0.6923	0.0	Yes	2.727	0.0	n/a	GoodResponse	0	n/a	n/a	5	51	Fixation	Neutral	True
489.722	0.21	Control	0.6923	0.001	Yes	2.727	-0.001	4.0	GoodResponse	0	0.173	488.895	5	51	Target	Neutral	True
489.895	0.3	Control	0.6923	0.001	Yes	2.727	-0.001	4.0	GoodResponse	0	0.173	n/a	5	51	ButtonPress	Neutral	True
489.938	0.49	Control	0.6923	n/a	Yes	2.727	n/a	n/a	GoodResponse	0	n/a	n/a	5	51	Blank	Neutral	True
490.421	1.45	Control	0.6923	n/a	Yes	2.727	n/a	5.0	GoodResponse	0	0.041	489.462	5	51	Feedback	Neutral	True
491.871	2.727	Control	0.6923	n/a	Yes	2.727	n/a	n/a	GoodResponse	0	0.0	n/a	5	51	ISIslide	Neutral	True
494.62	0.25	Control	0.6792	0.0	No	2.63	0.02	n/a	NoResponse	0	n/a	n/a	5	52	Cue	Neutral	False
494.87	4.05	Control	0.6792	0.0	No	2.63	0.0	n/a	NoResponse	0	n/a	n/a	5	52	Fixation	Neutral	False
498.918	0.2	Control	0.6792	0.002	No	2.63	-0.002	n/a	NoResponse	0	n/a	n/a	5	52	Target	Neutral	False
499.118	0.5	Control	0.6792	n/a	No	2.63	n/a	n/a	NoResponse	0	n/a	n/a	5	52	Blank	Neutral	False
499.618	1.45	Control	0.6792	n/a	No	2.63	n/a	5.0	NoResponse	0	0.014	498.632	5	52	Feedback	Neutral	False
501.068	2.63	Control	0.6792	n/a	No	2.63	n/a	n/a	NoResponse	0	0.0	n/a	5	52	ISIslide	Neutral	False
503.717	0.25	Win2	0.6851999999999999	0.0	Yes	2.933	0.017	n/a	GoodResponse	1	n/a	n/a	6	53	Cue	Win	True
503.967	4.05	Win2	0.6851999999999999	0.0	Yes	2.933	0.0	n/a	GoodResponse	1	n/a	n/a	6	53	Fixation	Win	True
508.015	0.19	Win2	0.6851999999999999	0.002	Yes	2.933	-0.002	4.0	GoodResponse	1	0.166	507.181	6	53	Target	Win	True
508.181	0.3	Win2	0.6851999999999999	0.002	Yes	2.933	-0.002	4.0	GoodResponse	1	0.166	n/a	6	53	ButtonPress	Win	True
508.215	0.51	Win2	0.6851999999999999	n/a	Yes	2.933	n/a	n/a	GoodResponse	1	n/a	n/a	6	53	Blank	Win	True
508.715	1.45	Win2	0.6851999999999999	n/a	Yes	2.933	n/a	5.0	GoodResponse	1	0.04	507.755	6	53	Feedback	Win	True
510.165	2.933	Win2	0.6851999999999999	n/a	Yes	2.933	n/a	n/a	GoodResponse	1	0.0	n/a	6	53	ISIslide	Win	True
513.114	0.25	Win2	0.6727	0.0	No	2.736	0.014	n/a	NoResponse	0	n/a	n/a	6	54	Cue	MissedWin	True
513.364	3.95	Win2	0.6727	0.0	No	2.736	0.0	n/a	NoResponse	0	n/a	n/a	6	54	Fixation	MissedWin	True
517.312	0.18	Win2	0.6727	0.002	No	2.736	-0.002	4.0	NoResponse	0	0.215	516.527	6	54	Target	MissedWin	True
517.495	0.52	Win2	0.6727	n/a	No	2.736	n/a	n/a	NoResponse	0	n/a	n/a	6	54	Blank	MissedWin	True
517.527	0.3	Win2	0.6727	0.002	No	2.736	-0.002	4.0	NoResponse	0	0.215	n/a	6	54	ButtonPress	MissedWin	True
518.012	1.45	Win2	0.6727	n/a	No	2.736	n/a	5.0	NoResponse	0	0.01	517.022	6	54	Feedback	MissedWin	True
519.461	2.736	Win2	0.6727	n/a	No	2.736	n/a	n/a	NoResponse	0	0.0	n/a	6	54	ISIslide	MissedWin	True
522.227	0.25	Control	0.6607	0.0	No	3.023	0.027	n/a	LatePress	0	n/a	n/a	6	55	Cue	Neutral	True
522.477	3.95	Control	0.6607	0.0	No	3.023	0.0	n/a	LatePress	0	n/a	n/a	6	55	Fixation	Neutral	True
526.426	0.17	Control	0.6607	0.001	No	3.023	-0.001	4.0	LatePress	0	0.182	525.608	6	55	Target	Neutral	True
526.608	0.3	Control	0.6607	0.001	No	3.023	-0.001	4.0	LatePress	0	0.182	n/a	6	55	ButtonPress	Neutral	True
526.609	0.53	Control	0.6607	n/a	No	3.023	n/a	n/a	LatePress	0	n/a	n/a	6	55	Blank	Neutral	True
527.125	1.45	Control	0.6607	n/a	No	3.023	n/a	5.0	LatePress	0	0.019	526.144	6	55	Feedback	Neutral	True
528.575	3.023	Control	0.6607	n/a	No	3.023	n/a	n/a	LatePress	0	0.0	n/a	6	55	ISIslide	Neutral	True
531.624	0.25	Control	0.6491	0.0	No	2.826	0.024	n/a	NoResponse	0	n/a	n/a	6	56	Cue	Neutral	True
531.874	3.95	Control	0.6491	0.0	No	2.826	0.0	n/a	NoResponse	0	n/a	n/a	6	56	Fixation	Neutral	True
535.822	0.17	Control	0.6491	0.002	No	2.826	-0.002	4.0	NoResponse	0	0.576	535.398	6	56	Target	Neutral	True
536.006	0.53	Control	0.6491	n/a	No	2.826	n/a	n/a	NoResponse	0	n/a	n/a	6	56	Blank	Neutral	True
536.398	0.3	Control	0.6491	0.002	No	2.826	-0.002	4.0	NoResponse	0	0.576	n/a	6	56	ButtonPress	Neutral	True
536.522	1.45	Control	0.6491	n/a	No	2.826	n/a	5.0	NoResponse	0	0.037	535.559	6	56	Feedback	Neutral	True
537.972	2.826	Control	0.6491	n/a	No	2.826	n/a	n/a	NoResponse	0	0.0	n/a	6	56	ISIslide	Neutral	True
540.821	0.25	Control	0.6379	0.0	No	3.479	0.021	n/a	NoResponse	0	n/a	n/a	6	57	Cue	Neutral	True
541.071	4.0	Control	0.6379	0.0	No	3.479	0.0	n/a	NoResponse	0	n/a	n/a	6	57	Fixation	Neutral	True
545.069	0.18	Control	0.6379	0.002	No	3.479	-0.002	4.0	NoResponse	0	0.21	544.279	6	57	Target	Neutral	True
545.252	0.52	Control	0.6379	n/a	No	3.479	n/a	n/a	NoResponse	0	n/a	n/a	6	57	Blank	Neutral	True
545.279	0.3	Control	0.6379	0.002	No	3.479	-0.002	4.0	NoResponse	0	0.21	n/a	6	57	ButtonPress	Neutral	True
545.769	1.45	Control	0.6379	n/a	No	3.479	n/a	5.0	NoResponse	0	0.009	544.778	6	57	Feedback	Neutral	True
547.218	3.479	Control	0.6379	n/a	No	3.479	n/a	n/a	NoResponse	0	0.0	n/a	6	57	ISIslide	Neutral	True
550.717	0.25	Win2	0.6271	0.0	No	2.733	0.017	n/a	NoResponse	0	n/a	n/a	6	58	Cue	MissedWin	True
550.967	4.05	Win2	0.6271	0.0	No	2.733	0.0	n/a	NoResponse	0	n/a	n/a	6	58	Fixation	MissedWin	True
555.016	0.19	Win2	0.6271	0.001	No	2.733	-0.001	4.0	NoResponse	0	0.206	554.222	6	58	Target	MissedWin	True
555.216	0.51	Win2	0.6271	n/a	No	2.733	n/a	n/a	NoResponse	0	n/a	n/a	6	58	Blank	MissedWin	True
555.222	0.3	Win2	0.6271	0.001	No	2.733	-0.001	4.0	NoResponse	0	0.206	n/a	6	58	ButtonPress	MissedWin	True
555.716	1.45	Win2	0.6271	n/a	No	2.733	n/a	5.0	NoResponse	0	0.014	554.73	6	58	Feedback	MissedWin	True
557.165	2.733	Win2	0.6271	n/a	No	2.733	n/a	n/a	NoResponse	0	0.0	n/a	6	58	ISIslide	MissedWin	True
559.914	0.25	Lose2	0.6333	0.0	Yes	2.686	0.014	n/a	GoodResponse	0	n/a	n/a	6	59	Cue	AvoidedLoss	True
560.164	4.0	Lose2	0.6333	0.0	Yes	2.686	0.0	n/a	GoodResponse	0	n/a	n/a	6	59	Fixation	AvoidedLoss	True
564.163	0.2	Lose2	0.6333	0.001	Yes	2.686	-0.001	4.0	GoodResponse	0	0.195	563.358	6	59	Target	AvoidedLoss	True
564.358	0.3	Lose2	0.6333	0.001	Yes	2.686	-0.001	4.0	GoodResponse	0	0.195	n/a	6	59	ButtonPress	AvoidedLoss	True
564.363	0.5	Lose2	0.6333	n/a	Yes	2.686	n/a	n/a	GoodResponse	0	n/a	n/a	6	59	Blank	AvoidedLoss	True
564.862	1.45	Lose2	0.6333	n/a	Yes	2.686	n/a	5.0	GoodResponse	0	0.039	563.901	6	59	Feedback	AvoidedLoss	True
566.312	2.686	Lose2	0.6333	n/a	Yes	2.686	n/a	n/a	GoodResponse	0	0.0	n/a	6	59	ISIslide	AvoidedLoss	True
569.028	0.25	Control	0.623	0.0	No	2.672	0.028	n/a	LatePress	0	n/a	n/a	6	60	Cue	Neutral	True
569.277	4.0	Control	0.623	0.001	No	2.672	-0.001	n/a	LatePress	0	n/a	n/a	6	60	Fixation	Neutral	True
573.276	0.21	Control	0.623	0.002	No	2.672	-0.002	4.0	LatePress	0	0.211	572.487	6	60	Target	Neutral	True
573.487	0.3	Control	0.623	0.002	No	2.672	-0.002	4.0	LatePress	0	0.211	n/a	6	60	ButtonPress	Neutral	True
573.493	0.49	Control	0.623	n/a	No	2.672	n/a	n/a	LatePress	0	n/a	n/a	6	60	Blank	Neutral	True
573.976	1.45	Control	0.623	n/a	No	2.672	n/a	5.0	LatePress	0	0.047	573.023	6	60	Feedback	Neutral	True
575.425	2.672	Control	0.623	n/a	No	2.672	n/a	n/a	LatePress	0	0.0	n/a	6	60	ISIslide	Neutral	True
578.124	0.25	Lose2	0.629	0.001	Yes	2.976	0.024	n/a	GoodResponse	0	n/a	n/a	6	61	Cue	AvoidedLoss	True
578.374	4.0	Lose2	0.629	0.0	Yes	2.976	0.0	n/a	GoodResponse	0	n/a	n/a	6	61	Fixation	AvoidedLoss	True
582.373	0.22	Lose2	0.629	0.001	Yes	2.976	-0.001	4.0	GoodResponse	0	0.194	581.567	6	61	Target	AvoidedLoss	True
582.567	0.3	Lose2	0.629	0.001	Yes	2.976	-0.001	4.0	GoodResponse	0	0.194	n/a	6	61	ButtonPress	AvoidedLoss	True
582.59	0.48	Lose2	0.629	n/a	Yes	2.976	n/a	n/a	GoodResponse	0	n/a	n/a	6	61	Blank	AvoidedLoss	True
583.073	1.45	Lose2	0.629	n/a	Yes	2.976	n/a	5.0	GoodResponse	0	0.022	582.095	6	61	Feedback	AvoidedLoss	True
584.522	2.976	Lose2	0.629	n/a	Yes	2.976	n/a	n/a	GoodResponse	0	0.0	n/a	6	61	ISIslide	AvoidedLoss	True
587.521	0.25	Lose2	0.6349	0.0	Yes	2.879	0.021	n/a	GoodResponse	0	n/a	n/a	6	62	Cue	AvoidedLoss	True
587.771	3.9	Lose2	0.6349	0.0	Yes	2.879	0.0	n/a	GoodResponse	0	n/a	n/a	6	62	Fixation	AvoidedLoss	True
591.67	0.23	Lose2	0.6349	0.001	Yes	2.879	-0.001	4.0	GoodResponse	0	0.17	590.84	6	62	Target	AvoidedLoss	True
591.84	0.3	Lose2	0.6349	0.001	Yes	2.879	-0.001	4.0	GoodResponse	0	0.17	n/a	6	62	ButtonPress	AvoidedLoss	True
591.903	0.47	Lose2	0.6349	n/a	Yes	2.879	n/a	n/a	GoodResponse	0	n/a	n/a	6	62	Blank	AvoidedLoss	True
592.37	1.45	Lose2	0.6349	n/a	Yes	2.879	n/a	5.0	GoodResponse	0	0.042	591.412	6	62	Feedback	AvoidedLoss	True
593.819	2.879	Lose2	0.6349	n/a	Yes	2.879	n/a	n/a	GoodResponse	0	0.0	n/a	6	62	ISIslide	AvoidedLoss	True
596.718	0.25	Lose2	0.6406000000000001	0.0	Yes	2.632	0.018	n/a	GoodResponse	0	n/a	n/a	6	63	Cue	AvoidedLoss	True
596.968	4.05	Lose2	0.6406000000000001	0.0	Yes	2.632	0.0	n/a	GoodResponse	0	n/a	n/a	6	63	Fixation	AvoidedLoss	True
601.017	0.24	Lose2	0.6406000000000001	0.001	Yes	2.632	-0.001	4.0	GoodResponse	0	0.214	600.231	6	63	Target	AvoidedLoss	True
601.231	0.3	Lose2	0.6406000000000001	0.001	Yes	2.632	-0.001	4.0	GoodResponse	0	0.214	n/a	6	63	ButtonPress	AvoidedLoss	True
601.266	0.46	Lose2	0.6406000000000001	n/a	Yes	2.632	n/a	n/a	GoodResponse	0	n/a	n/a	6	63	Blank	AvoidedLoss	True
601.716	1.45	Lose2	0.6406000000000001	n/a	Yes	2.632	n/a	5.0	GoodResponse	0	0.013	600.729	6	63	Feedback	AvoidedLoss	True
603.166	2.632	Lose2	0.6406000000000001	n/a	Yes	2.632	n/a	n/a	GoodResponse	0	0.0	n/a	6	63	ISIslide	AvoidedLoss	True
605.832	0.25	Win2	0.6462	0.0	Yes	3.118	0.032	n/a	GoodResponse	1	n/a	n/a	7	64	Cue	Win	True
606.081	4.15	Win2	0.6462	0.001	Yes	3.118	-0.001	n/a	GoodResponse	1	n/a	n/a	7	64	Fixation	Win	True
610.23	0.25	Win2	0.6462	0.002	Yes	3.118	-0.002	4.0	GoodResponse	1	0.23	609.46	7	64	Target	Win	True
610.46	0.3	Win2	0.6462	0.002	Yes	3.118	-0.002	4.0	GoodResponse	1	0.23	n/a	7	64	ButtonPress	Win	True
610.48	0.45	Win2	0.6462	n/a	Yes	3.118	n/a	n/a	GoodResponse	1	n/a	n/a	7	64	Blank	Win	True
610.93	1.45	Win2	0.6462	n/a	Yes	3.118	n/a	5.0	GoodResponse	1	0.019	609.949	7	64	Feedback	Win	True
612.379	3.118	Win2	0.6462	n/a	Yes	3.118	n/a	n/a	GoodResponse	1	0.0	n/a	7	64	ISIslide	Win	True
615.528	0.25	Control	0.6515000000000001	0.0	Yes	2.772	0.028	n/a	GoodResponse	0	n/a	n/a	7	65	Cue	Neutral	True
615.778	4.0	Control	0.6515000000000001	0.0	Yes	2.772	0.0	n/a	GoodResponse	0	n/a	n/a	7	65	Fixation	Neutral	True
619.777	0.26	Control	0.6515000000000001	0.001	Yes	2.772	-0.001	4.0	GoodResponse	0	0.199	618.976	7	65	Target	Neutral	True
619.976	0.3	Control	0.6515000000000001	0.001	Yes	2.772	-0.001	4.0	GoodResponse	0	0.199	n/a	7	65	ButtonPress	Neutral	True
620.043	0.44	Control	0.6515000000000001	n/a	Yes	2.772	n/a	n/a	GoodResponse	0	n/a	n/a	7	65	Blank	Neutral	True
620.476	1.45	Control	0.6515000000000001	n/a	Yes	2.772	n/a	5.0	GoodResponse	0	0.034	619.51	7	65	Feedback	Neutral	True
621.926	2.772	Control	0.6515000000000001	n/a	Yes	2.772	n/a	n/a	GoodResponse	0	0.0	n/a	7	65	ISIslide	Neutral	True
624.725	0.25	Win2	0.6567000000000001	0.0	Yes	2.775	0.025	n/a	GoodResponse	1	n/a	n/a	8	66	Cue	Win	True
624.975	3.9	Win2	0.6567000000000001	0.0	Yes	2.775	0.0	n/a	GoodResponse	1	n/a	n/a	8	66	Fixation	Win	True
628.874	0.27	Win2	0.6567000000000001	0.001	Yes	2.775	-0.001	4.0	GoodResponse	1	0.209	628.083	8	66	Target	Win	True
629.083	0.3	Win2	0.6567000000000001	0.001	Yes	2.775	-0.001	4.0	GoodResponse	1	0.209	n/a	8	66	ButtonPress	Win	True
629.157	0.43	Win2	0.6567000000000001	n/a	Yes	2.775	n/a	n/a	GoodResponse	1	n/a	n/a	8	66	Blank	Win	True
629.573	1.45	Win2	0.6567000000000001	n/a	Yes	2.775	n/a	5.0	GoodResponse	1	0.01	628.583	8	66	Feedback	Win	True
631.023	2.775	Win2	0.6567000000000001	n/a	Yes	2.775	n/a	n/a	GoodResponse	1	0.0	n/a	8	66	ISIslide	Win	True
633.822	0.25	Control	0.6618	0.0	Yes	2.728	0.022	n/a	GoodResponse	0	n/a	n/a	8	67	Cue	Neutral	True
634.072	3.95	Control	0.6618	0.0	Yes	2.728	0.0	n/a	GoodResponse	0	n/a	n/a	8	67	Fixation	Neutral	True
638.02	0.27	Control	0.6618	0.002	Yes	2.728	-0.002	4.0	GoodResponse	0	0.209	637.229	8	67	Target	Neutral	True
638.229	0.3	Control	0.6618	0.002	Yes	2.728	-0.002	4.0	GoodResponse	0	0.209	n/a	8	67	ButtonPress	Neutral	True
638.304	0.43	Control	0.6618	n/a	Yes	2.728	n/a	n/a	GoodResponse	0	n/a	n/a	8	67	Blank	Neutral	True
638.72	1.45	Control	0.6618	n/a	Yes	2.728	n/a	5.0	GoodResponse	0	0.033	637.753	8	67	Feedback	Neutral	True
640.17	2.728	Control	0.6618	n/a	Yes	2.728	n/a	n/a	GoodResponse	0	0.0	n/a	8	67	ISIslide	Neutral	True
642.919	0.25	Win2	0.6667000000000001	0.0	Yes	3.081	0.019	n/a	GoodResponse	1	n/a	n/a	9	68	Cue	Win	True
643.169	4.0	Win2	0.6667000000000001	0.0	Yes	3.081	0.0	n/a	GoodResponse	1	n/a	n/a	9	68	Fixation	Win	True
647.167	0.27	Win2	0.6667000000000001	0.002	Yes	3.081	-0.002	4.0	GoodResponse	1	0.201	646.368	9	68	Target	Win	True
647.368	0.3	Win2	0.6667000000000001	0.002	Yes	3.081	-0.002	4.0	GoodResponse	1	0.201	n/a	9	68	ButtonPress	Win	True
647.45	0.43	Win2	0.6667000000000001	n/a	Yes	3.081	n/a	n/a	GoodResponse	1	n/a	n/a	9	68	Blank	Win	True
647.867	1.45	Win2	0.6667000000000001	n/a	Yes	3.081	n/a	5.0	GoodResponse	1	0.008	646.875	9	68	Feedback	Win	True
649.316	3.081	Win2	0.6667000000000001	n/a	Yes	3.081	n/a	n/a	GoodResponse	1	0.0	n/a	9	68	ISIslide	Win	True
652.415	0.25	Win2	0.6714	0.001	Yes	3.235	0.015	n/a	GoodResponse	1	n/a	n/a	10	69	Cue	Win	True
652.665	3.95	Win2	0.6714	0.0	Yes	3.235	0.0	n/a	GoodResponse	1	n/a	n/a	10	69	Fixation	Win	True
656.614	0.26	Win2	0.6714	0.001	Yes	3.235	-0.001	4.0	GoodResponse	1	0.199	655.813	10	69	Target	Win	True
656.813	0.3	Win2	0.6714	0.001	Yes	3.235	-0.001	4.0	GoodResponse	1	0.199	n/a	10	69	ButtonPress	Win	True
656.881	0.44	Win2	0.6714	n/a	Yes	3.235	n/a	n/a	GoodResponse	1	n/a	n/a	10	69	Blank	Win	True
657.314	1.45	Win2	0.6714	n/a	Yes	3.235	n/a	5.0	GoodResponse	1	0.025	656.339	10	69	Feedback	Win	True
658.763	3.235	Win2	0.6714	n/a	Yes	3.235	n/a	n/a	GoodResponse	1	0.0	n/a	10	69	ISIslide	Win	True
662.029	0.25	Lose2	0.6761	0.0	Yes	3.021	0.029	n/a	GoodResponse	0	n/a	n/a	10	70	Cue	AvoidedLoss	True
662.279	4.05	Lose2	0.6761	0.0	Yes	3.021	0.0	n/a	GoodResponse	0	n/a	n/a	10	70	Fixation	AvoidedLoss	True
666.327	0.25	Lose2	0.6761	0.002	Yes	3.021	-0.002	4.0	GoodResponse	0	0.241	665.568	10	70	Target	AvoidedLoss	True
666.568	0.3	Lose2	0.6761	0.002	Yes	3.021	-0.002	4.0	GoodResponse	0	0.241	n/a	10	70	ButtonPress	AvoidedLoss	True
666.577	0.45	Lose2	0.6761	n/a	Yes	3.021	n/a	n/a	GoodResponse	0	n/a	n/a	10	70	Blank	AvoidedLoss	True
667.027	1.45	Lose2	0.6761	n/a	Yes	3.021	n/a	5.0	GoodResponse	0	0.019	666.046	10	70	Feedback	AvoidedLoss	True
668.477	3.021	Lose2	0.6761	n/a	Yes	3.021	n/a	n/a	GoodResponse	0	0.0	n/a	10	70	ISIslide	AvoidedLoss	True
671.525	0.25	Win2	0.6667000000000001	0.001	No	2.725	0.025	n/a	NoResponse	0	n/a	n/a	10	71	Cue	MissedWin	True
671.775	4.05	Win2	0.6667000000000001	0.0	No	2.725	0.0	4.0	NoResponse	0	3.937	674.712	10	71	Fixation	MissedWin	True
675.712	0.3	Win2	0.6667000000000001	0.0	No	2.725	0.0	4.0	NoResponse	0	3.937	n/a	10	71	ButtonPress	MissedWin	True
675.824	0.24	Win2	0.6667000000000001	0.001	No	2.725	-0.001	n/a	NoResponse	0	n/a	n/a	10	71	Target	MissedWin	True
676.074	0.46	Win2	0.6667000000000001	n/a	No	2.725	n/a	n/a	NoResponse	0	n/a	n/a	10	71	Blank	MissedWin	True
676.524	1.45	Win2	0.6667000000000001	n/a	No	2.725	n/a	5.0	NoResponse	0	0.034	675.558	10	71	Feedback	MissedWin	True
677.973	2.725	Win2	0.6667000000000001	n/a	No	2.725	n/a	n/a	NoResponse	0	0.0	n/a	10	71	ISIslide	MissedWin	True
680.722	0.25	Win2	0.6712	0.0	Yes	2.778	0.022	n/a	GoodResponse	1	n/a	n/a	11	72	Cue	Win	True
680.972	4.1	Win2	0.6712	0.0	Yes	2.778	0.0	n/a	GoodResponse	1	n/a	n/a	11	72	Fixation	Win	True
685.071	0.23	Win2	0.6712	0.001	Yes	2.778	-0.001	4.0	GoodResponse	1	0.213	684.284	11	72	Target	Win	True
685.284	0.3	Win2	0.6712	0.001	Yes	2.778	-0.001	4.0	GoodResponse	1	0.213	n/a	11	72	ButtonPress	Win	True
685.304	0.47	Win2	0.6712	n/a	Yes	2.778	n/a	n/a	GoodResponse	1	n/a	n/a	11	72	Blank	Win	True
685.771	1.45	Win2	0.6712	n/a	Yes	2.778	n/a	5.0	GoodResponse	1	0.007	684.778	11	72	Feedback	Win	True
687.22	2.778	Win2	0.6712	n/a	Yes	2.778	n/a	n/a	GoodResponse	1	0.0	n/a	11	72	ISIslide	Win	True
690.019	0.25	Win2	0.6622	0.0	No	2.681	0.019	n/a	LatePress	0	n/a	n/a	11	73	Cue	MissedWin	True
690.269	4.0	Win2	0.6622	0.0	No	2.681	0.0	n/a	LatePress	0	n/a	n/a	11	73	Fixation	MissedWin	True
694.268	0.22	Win2	0.6622	0.001	No	2.681	-0.001	4.0	LatePress	0	0.228	693.496	11	73	Target	MissedWin	True
694.496	0.3	Win2	0.6622	0.001	No	2.681	-0.001	4.0	LatePress	0	0.228	n/a	11	73	ButtonPress	MissedWin	True
694.501	0.48	Win2	0.6622	n/a	No	2.681	n/a	n/a	LatePress	0	n/a	n/a	11	73	Blank	MissedWin	True
694.967	1.45	Win2	0.6622	n/a	No	2.681	n/a	5.0	LatePress	0	0.03	693.997	11	73	Feedback	MissedWin	True
696.417	2.681	Win2	0.6622	n/a	No	2.681	n/a	n/a	LatePress	0	0.0	n/a	11	73	ISIslide	MissedWin	True
699.116	0.25	Lose2	0.6533	0.0	No	2.634	0.016	n/a	LatePress	-1	n/a	n/a	10	74	Cue	Loss	True
699.366	4.05	Lose2	0.6533	0.0	No	2.634	0.0	n/a	LatePress	-1	n/a	n/a	10	74	Fixation	Loss	True
703.414	0.22	Lose2	0.6533	0.002	No	2.634	-0.002	4.0	LatePress	-1	0.231	702.645	10	74	Target	Loss	True
703.645	0.3	Lose2	0.6533	0.002	No	2.634	-0.002	4.0	LatePress	-1	0.231	n/a	10	74	ButtonPress	Loss	True
703.648	0.48	Lose2	0.6533	n/a	No	2.634	n/a	n/a	LatePress	-1	n/a	n/a	10	74	Blank	Loss	True
704.114	1.45	Lose2	0.6533	n/a	No	2.634	n/a	5.0	LatePress	-1	0.006	703.12	10	74	Feedback	Loss	True
705.564	2.634	Lose2	0.6533	n/a	No	2.634	n/a	n/a	LatePress	-1	0.0	n/a	10	74	ISIslide	Loss	True
708.229	0.25	Lose2	0.6579	0.001	Yes	2.921	0.029	n/a	GoodResponse	0	n/a	n/a	10	75	Cue	AvoidedLoss	True
708.479	3.95	Lose2	0.6579	0.0	Yes	2.921	0.0	n/a	GoodResponse	0	n/a	n/a	10	75	Fixation	AvoidedLoss	True
712.428	0.23	Lose2	0.6579	0.001	Yes	2.921	-0.001	4.0	GoodResponse	0	0.213	711.641	10	75	Target	AvoidedLoss	True
712.641	0.3	Lose2	0.6579	0.001	Yes	2.921	-0.001	4.0	GoodResponse	0	0.213	n/a	10	75	ButtonPress	AvoidedLoss	True
712.661	0.47	Lose2	0.6579	n/a	Yes	2.921	n/a	n/a	GoodResponse	0	n/a	n/a	10	75	Blank	AvoidedLoss	True
713.128	1.45	Lose2	0.6579	n/a	Yes	2.921	n/a	5.0	GoodResponse	0	0.015	712.143	10	75	Feedback	AvoidedLoss	True
714.577	2.921	Lose2	0.6579	n/a	Yes	2.921	n/a	n/a	GoodResponse	0	0.0	n/a	10	75	ISIslide	AvoidedLoss	True
717.526	0.25	Control	0.6623	0.0	Yes	3.224	0.026	n/a	GoodResponse	0	n/a	n/a	10	76	Cue	Neutral	True
717.776	4.05	Control	0.6623	0.0	Yes	3.224	0.0	n/a	GoodResponse	0	n/a	n/a	10	76	Fixation	Neutral	True
721.825	0.23	Control	0.6623	0.001	Yes	3.224	-0.001	4.0	GoodResponse	0	0.199	721.024	10	76	Target	Neutral	True
722.024	0.3	Control	0.6623	0.001	Yes	3.224	-0.001	4.0	GoodResponse	0	0.199	n/a	10	76	ButtonPress	Neutral	True
722.058	0.47	Control	0.6623	n/a	Yes	3.224	n/a	n/a	GoodResponse	0	n/a	n/a	10	76	Blank	Neutral	True
722.525	1.45	Control	0.6623	n/a	Yes	3.224	n/a	5.0	GoodResponse	0	0.033	721.558	10	76	Feedback	Neutral	True
723.974	3.224	Control	0.6623	n/a	Yes	3.224	n/a	n/a	GoodResponse	0	0.0	n/a	10	76	ISIslide	Neutral	True
727.223	0.25	Lose2	0.6667000000000001	0.0	Yes	2.577	0.023	n/a	GoodResponse	0	n/a	n/a	10	77	Cue	AvoidedLoss	True
727.473	3.95	Lose2	0.6667000000000001	0.0	Yes	2.577	0.0	n/a	GoodResponse	0	n/a	n/a	10	77	Fixation	AvoidedLoss	True
731.421	0.23	Lose2	0.6667000000000001	0.002	Yes	2.577	-0.002	4.0	GoodResponse	0	0.193	730.614	10	77	Target	AvoidedLoss	True
731.614	0.3	Lose2	0.6667000000000001	0.002	Yes	2.577	-0.002	4.0	GoodResponse	0	0.193	n/a	10	77	ButtonPress	AvoidedLoss	True
731.655	0.47	Lose2	0.6667000000000001	n/a	Yes	2.577	n/a	n/a	GoodResponse	0	n/a	n/a	10	77	Blank	AvoidedLoss	True
732.121	1.45	Lose2	0.6667000000000001	n/a	Yes	2.577	n/a	5.0	GoodResponse	0	0.047	731.168	10	77	Feedback	AvoidedLoss	True
733.571	2.577	Lose2	0.6667000000000001	n/a	Yes	2.577	n/a	n/a	GoodResponse	0	0.0	n/a	10	77	ISIslide	AvoidedLoss	True
