onset	duration	cue_type	current_mean_accuracy	duration_error	is_hit	isi_adjusted	onset_delay	response	response_type	reward	rt	rt_time	total_reward	trial_number	trial_phase	trial_type	one_press
11.104	0.25	Control	1.0	0.0	Yes	2.946	0.004	n/a	GoodResponse	0	n/a	n/a	0	0	Cue	Neutral	True
11.354	3.85	Control	1.0	0.001	Yes	2.946	0.0	n/a	GoodResponse	0	n/a	n/a	0	0	Fixation	Neutral	True
15.216	0.4	Control	1.0	0.0	Yes	2.946	0.012	2.0	GoodResponse	0	0.198	14.414	0	0	Target	Neutral	True
15.414	0.3	Control	1.0	0.0	Yes	2.946	0.012	2.0	GoodResponse	0	0.198	n/a	0	0	ButtonPress	Neutral	True
15.601	0.3	Control	1.0	n/a	Yes	2.946	n/a	n/a	GoodResponse	0	n/a	n/a	0	0	Blank	Neutral	True
15.901	1.45	Control	1.0	n/a	Yes	2.946	n/a	5.0	GoodResponse	0	0.026	14.927	0	0	Feedback	Neutral	True
17.356	2.946	Control	1.0	n/a	Yes	2.946	n/a	n/a	GoodResponse	0	0.0	n/a	0	0	ISIslide	Neutral	True
20.315	0.25	Lose2	1.0	0.0	Yes	2.785	0.015	n/a	GoodResponse	0	n/a	n/a	0	1	Cue	AvoidedLoss	True
20.565	4.0	Lose2	1.0	0.001	Yes	2.785	0.0	n/a	GoodResponse	0	n/a	n/a	0	1	Fixation	AvoidedLoss	True
24.561	0.39	Lose2	1.0	0.004	Yes	2.785	-0.004	2.0	GoodResponse	0	0.186	23.747	0	1	Target	AvoidedLoss	True
24.747	0.3	Lose2	1.0	0.004	Yes	2.785	-0.004	2.0	GoodResponse	0	0.186	n/a	0	1	ButtonPress	AvoidedLoss	True
24.962	0.31	Lose2	1.0	n/a	Yes	2.785	n/a	n/a	GoodResponse	0	n/a	n/a	0	1	Blank	AvoidedLoss	True
25.263	1.45	Lose2	1.0	n/a	Yes	2.785	n/a	5.0	GoodResponse	0	0.03	24.293	0	1	Feedback	AvoidedLoss	True
26.717	2.785	Lose2	1.0	n/a	Yes	2.785	n/a	n/a	GoodResponse	0	0.0	n/a	0	1	ISIslide	AvoidedLoss	True
29.526	0.25	Control	1.0	0.0	Yes	2.574	0.026	n/a	GoodResponse	0	n/a	n/a	0	2	Cue	Neutral	True
29.776	4.1	Control	1.0	0.0	Yes	2.574	0.0	n/a	GoodResponse	0	n/a	n/a	0	2	Fixation	Neutral	True
33.872	0.38	Control	1.0	0.004	Yes	2.574	-0.004	2.0	GoodResponse	0	0.18	33.052	0	2	Target	Neutral	True
34.052	0.3	Control	1.0	0.004	Yes	2.574	-0.004	2.0	GoodResponse	0	0.18	n/a	0	2	ButtonPress	Neutral	True
34.256	0.32	Control	1.0	n/a	Yes	2.574	n/a	n/a	GoodResponse	0	n/a	n/a	0	2	Blank	Neutral	True
34.574	1.45	Control	1.0	n/a	Yes	2.574	n/a	5.0	GoodResponse	0	0.036	33.61	0	2	Feedback	Neutral	True
36.028	2.574	Control	1.0	n/a	Yes	2.574	n/a	n/a	GoodResponse	0	0.0	n/a	0	2	ISIslide	Neutral	True
38.619	0.25	Win2	1.0	0.001	Yes	2.831	0.019	n/a	GoodResponse	1	n/a	n/a	1	3	Cue	Win	True
38.87	3.95	Win2	1.0	0.0	Yes	2.831	0.001	n/a	GoodResponse	1	n/a	n/a	1	3	Fixation	Win	True
42.815	0.37	Win2	1.0	0.004	Yes	2.831	-0.004	2.0	GoodResponse	1	0.106	41.921	1	3	Target	Win	True
42.921	0.3	Win2	1.0	0.004	Yes	2.831	-0.004	2.0	GoodResponse	1	0.106	n/a	1	3	ButtonPress	Win	True
43.2	0.33	Win2	1.0	n/a	Yes	2.831	n/a	n/a	GoodResponse	1	n/a	n/a	1	3	Blank	Win	True
43.518	1.45	Win2	1.0	n/a	Yes	2.831	n/a	5.0	GoodResponse	1	0.019	42.537	1	3	Feedback	Win	True
44.972	2.831	Win2	1.0	n/a	Yes	2.831	n/a	n/a	GoodResponse	1	0.0	n/a	1	3	ISIslide	Win	True
47.814	0.25	Win2	1.0	0.0	Yes	3.286	0.014	n/a	GoodResponse	1	n/a	n/a	2	4	Cue	Win	True
48.064	4.0	Win2	1.0	0.001	Yes	3.286	0.0	n/a	GoodResponse	1	n/a	n/a	2	4	Fixation	Win	True
52.06	0.36	Win2	1.0	0.004	Yes	3.286	-0.004	2.0	GoodResponse	1	0.198	51.258	2	4	Target	Win	True
52.258	0.3	Win2	1.0	0.004	Yes	3.286	-0.004	2.0	GoodResponse	1	0.198	n/a	2	4	ButtonPress	Win	True
52.428	0.34	Win2	1.0	n/a	Yes	3.286	n/a	n/a	GoodResponse	1	n/a	n/a	2	4	Blank	Win	True
52.762	1.45	Win2	1.0	n/a	Yes	3.286	n/a	5.0	GoodResponse	1	0.042	51.804	2	4	Feedback	Win	True
54.216	3.286	Win2	1.0	n/a	Yes	3.286	n/a	n/a	GoodResponse	1	0.0	n/a	2	4	ISIslide	Win	True
57.526	0.25	Win2	1.0	0.0	Yes	2.774	0.026	n/a	GoodResponse	1	n/a	n/a	3	5	Cue	Win	True
57.777	4.0	Win2	1.0	0.0	Yes	2.774	0.001	n/a	GoodResponse	1	n/a	n/a	3	5	Fixation	Win	True
61.772	0.35	Win2	1.0	0.004	Yes	2.774	-0.004	2.0	GoodResponse	1	0.237	61.009	3	5	Target	Win	True
62.009	0.3	Win2	1.0	0.004	Yes	2.774	-0.004	2.0	GoodResponse	1	0.237	n/a	3	5	ButtonPress	Win	True
62.123	0.35	Win2	1.0	n/a	Yes	2.774	n/a	n/a	GoodResponse	1	n/a	n/a	3	5	Blank	Win	True
62.474	1.45	Win2	1.0	n/a	Yes	2.774	n/a	5.0	GoodResponse	1	0.038	61.512	3	5	Feedback	Win	True
63.929	2.774	Win2	1.0	n/a	Yes	2.774	n/a	n/a	GoodResponse	1	0.0	n/a	3	5	ISIslide	Win	True
66.72	0.25	Lose2	1.0	0.0	Yes	2.73	0.02	n/a	GoodResponse	0	n/a	n/a	3	6	Cue	AvoidedLoss	True
66.971	3.95	Lose2	1.0	0.0	Yes	2.73	0.001	n/a	GoodResponse	0	n/a	n/a	3	6	Fixation	AvoidedLoss	True
70.916	0.34	Lose2	1.0	0.004	Yes	2.73	-0.004	2.0	GoodResponse	0	0.221	70.137	3	6	Target	AvoidedLoss	True
71.137	0.3	Lose2	1.0	0.004	Yes	2.73	-0.004	2.0	GoodResponse	0	0.221	n/a	3	6	ButtonPress	AvoidedLoss	True
71.267	0.36	Lose2	1.0	n/a	Yes	2.73	n/a	n/a	GoodResponse	0	n/a	n/a	3	6	Blank	AvoidedLoss	True
71.618	1.45	Lose2	1.0	n/a	Yes	2.73	n/a	5.0	GoodResponse	0	0.016	70.634	3	6	Feedback	AvoidedLoss	True
73.073	2.73	Lose2	1.0	n/a	Yes	2.73	n/a	n/a	GoodResponse	0	0.0	n/a	3	6	ISIslide	AvoidedLoss	True
75.814	0.25	Lose2	1.0	0.0	Yes	4.036	0.014	n/a	GoodResponse	0	n/a	n/a	3	7	Cue	AvoidedLoss	False
76.065	4.05	Lose2	1.0	0.0	Yes	4.036	0.001	2.0	GoodResponse	0	0.093	75.158	3	7	Fixation	AvoidedLoss	False
76.158	0.3	Lose2	1.0	0.0	Yes	4.036	0.001	2.0	GoodResponse	0	0.093	n/a	3	7	ButtonPress	AvoidedLoss	False
80.11	0.33	Lose2	1.0	0.004	Yes	4.036	-0.004	2.0	GoodResponse	0	0.247	79.357	3	7	Target	AvoidedLoss	False
80.357	0.3	Lose2	1.0	0.004	Yes	4.036	-0.004	2.0	GoodResponse	0	0.247	n/a	3	7	ButtonPress	AvoidedLoss	False
80.445	0.37	Lose2	1.0	n/a	Yes	4.036	n/a	n/a	GoodResponse	0	n/a	n/a	3	7	Blank	AvoidedLoss	False
80.813	1.45	Lose2	1.0	n/a	Yes	4.036	n/a	5.0	GoodResponse	0	0.041	79.854	3	7	Feedback	AvoidedLoss	False
82.267	4.036	Lose2	1.0	n/a	Yes	4.036	n/a	n/a	GoodResponse	0	0.0	n/a	3	7	ISIslide	AvoidedLoss	False
86.329	0.25	Lose2	1.0	0.0	Yes	3.021	0.029	n/a	GoodResponse	0	n/a	n/a	3	8	Cue	AvoidedLoss	True
86.58	3.95	Lose2	1.0	0.0	Yes	3.021	0.001	n/a	GoodResponse	0	n/a	n/a	3	8	Fixation	AvoidedLoss	True
90.525	0.32	Lose2	1.0	0.004	Yes	3.021	-0.004	2.0	GoodResponse	0	0.26	89.785	3	8	Target	AvoidedLoss	True
90.785	0.3	Lose2	1.0	0.004	Yes	3.021	-0.004	2.0	GoodResponse	0	0.26	n/a	3	8	ButtonPress	AvoidedLoss	True
90.859	0.38	Lose2	1.0	n/a	Yes	3.021	n/a	n/a	GoodResponse	0	n/a	n/a	3	8	Blank	AvoidedLoss	True
91.227	1.45	Lose2	1.0	n/a	Yes	3.021	n/a	5.0	GoodResponse	0	0.017	90.244	3	8	Feedback	AvoidedLoss	True
92.681	3.021	Lose2	1.0	n/a	Yes	3.021	n/a	n/a	GoodResponse	0	0.0	n/a	3	8	ISIslide	AvoidedLoss	True
95.724	0.25	Lose2	1.0	0.0	Yes	3.126	0.024	n/a	GoodResponse	0	n/a	n/a	3	9	Cue	AvoidedLoss	True
95.975	3.95	Lose2	1.0	0.0	Yes	3.126	0.001	n/a	GoodResponse	0	n/a	n/a	3	9	Fixation	AvoidedLoss	True
99.92	0.31	Lose2	1.0	0.004	Yes	3.126	-0.004	2.0	GoodResponse	0	0.23	99.15	3	9	Target	AvoidedLoss	True
100.15	0.3	Lose2	1.0	0.004	Yes	3.126	-0.004	2.0	GoodResponse	0	0.23	n/a	3	9	ButtonPress	AvoidedLoss	True
100.237	0.39	Lose2	1.0	n/a	Yes	3.126	n/a	n/a	GoodResponse	0	n/a	n/a	3	9	Blank	AvoidedLoss	True
100.622	1.45	Lose2	1.0	n/a	Yes	3.126	n/a	5.0	GoodResponse	0	0.037	99.659	3	9	Feedback	AvoidedLoss	True
102.076	3.126	Lose2	1.0	n/a	Yes	3.126	n/a	n/a	GoodResponse	0	0.0	n/a	3	9	ISIslide	AvoidedLoss	True
105.219	0.25	Control	1.0	0.0	Yes	3.281	0.019	n/a	GoodResponse	0	n/a	n/a	3	10	Cue	Neutral	True
105.47	4.0	Control	1.0	0.0	Yes	3.281	0.001	n/a	GoodResponse	0	n/a	n/a	3	10	Fixation	Neutral	True
109.465	0.3	Control	1.0	0.004	Yes	3.281	-0.004	2.0	GoodResponse	0	0.229	108.694	3	10	Target	Neutral	True
109.694	0.3	Control	1.0	0.004	Yes	3.281	-0.004	2.0	GoodResponse	0	0.229	n/a	3	10	ButtonPress	Neutral	True
109.766	0.4	Control	1.0	n/a	Yes	3.281	n/a	n/a	GoodResponse	0	n/a	n/a	3	10	Blank	Neutral	True
110.167	1.45	Control	1.0	n/a	Yes	3.281	n/a	5.0	GoodResponse	0	0.005	109.172	3	10	Feedback	Neutral	True
111.622	3.281	Control	1.0	n/a	Yes	3.281	n/a	n/a	GoodResponse	0	0.0	n/a	3	10	ISIslide	Neutral	True
114.915	0.25	Lose2	1.0	0.0	Yes	2.735	0.015	n/a	GoodResponse	0	n/a	n/a	3	11	Cue	AvoidedLoss	True
115.166	4.05	Lose2	1.0	0.0	Yes	2.735	0.001	n/a	GoodResponse	0	n/a	n/a	3	11	Fixation	AvoidedLoss	True
119.211	0.29	Lose2	1.0	0.004	Yes	2.735	-0.004	2.0	GoodResponse	0	0.242	118.453	3	11	Target	AvoidedLoss	True
119.453	0.3	Lose2	1.0	0.004	Yes	2.735	-0.004	2.0	GoodResponse	0	0.242	n/a	3	11	ButtonPress	AvoidedLoss	True
119.512	0.41	Lose2	1.0	n/a	Yes	2.735	n/a	n/a	GoodResponse	0	n/a	n/a	3	11	Blank	AvoidedLoss	True
119.913	1.45	Lose2	1.0	n/a	Yes	2.735	n/a	5.0	GoodResponse	0	0.013	118.926	3	11	Feedback	AvoidedLoss	True
121.367	2.735	Lose2	1.0	n/a	Yes	2.735	n/a	n/a	GoodResponse	0	0.0	n/a	3	11	ISIslide	AvoidedLoss	True
124.126	0.25	Control	1.0	0.0	Yes	2.974	0.026	n/a	GoodResponse	0	n/a	n/a	3	12	Cue	Neutral	True
124.376	3.9	Control	1.0	0.001	Yes	2.974	0.0	n/a	GoodResponse	0	n/a	n/a	3	12	Fixation	Neutral	True
128.288	0.28	Control	1.0	0.0	Yes	2.974	0.012	2.0	GoodResponse	0	0.221	127.509	3	12	Target	Neutral	True
128.509	0.3	Control	1.0	0.0	Yes	2.974	0.012	2.0	GoodResponse	0	0.221	n/a	3	12	ButtonPress	Neutral	True
128.556	0.42	Control	1.0	n/a	Yes	2.974	n/a	n/a	GoodResponse	0	n/a	n/a	3	12	Blank	Neutral	True
128.974	1.45	Control	1.0	n/a	Yes	2.974	n/a	5.0	GoodResponse	0	0.025	127.999	3	12	Feedback	Neutral	True
130.428	2.974	Control	1.0	n/a	Yes	2.974	n/a	n/a	GoodResponse	0	0.0	n/a	3	12	ISIslide	Neutral	True
133.42	0.25	Control	1.0	0.0	Yes	2.78	0.02	n/a	GoodResponse	0	n/a	n/a	3	13	Cue	Neutral	True
133.671	4.0	Control	1.0	0.0	Yes	2.78	0.001	n/a	GoodResponse	0	n/a	n/a	3	13	Fixation	Neutral	True
137.666	0.27	Control	1.0	0.004	Yes	2.78	-0.004	2.0	GoodResponse	0	0.23	136.896	3	13	Target	Neutral	True
137.896	0.3	Control	1.0	0.004	Yes	2.78	-0.004	2.0	GoodResponse	0	0.23	n/a	3	13	ButtonPress	Neutral	True
137.95	0.43	Control	1.0	n/a	Yes	2.78	n/a	n/a	GoodResponse	0	n/a	n/a	3	13	Blank	Neutral	True
138.368	1.45	Control	1.0	n/a	Yes	2.78	n/a	5.0	GoodResponse	0	0.046	137.414	3	13	Feedback	Neutral	True
139.823	2.78	Control	1.0	n/a	Yes	2.78	n/a	n/a	GoodResponse	0	0.0	n/a	3	13	ISIslide	Neutral	True
142.614	0.25	Win2	1.0	0.001	Yes	2.686	0.014	n/a	GoodResponse	1	n/a	n/a	4	14	Cue	Win	True
142.865	4.1	Win2	1.0	0.0	Yes	2.686	0.001	n/a	GoodResponse	1	n/a	n/a	4	14	Fixation	Win	True
146.961	0.26	Win2	1.0	0.003	Yes	2.686	-0.003	2.0	GoodResponse	1	0.19	146.151	4	14	Target	Win	True
147.151	0.3	Win2	1.0	0.003	Yes	2.686	-0.003	2.0	GoodResponse	1	0.19	n/a	4	14	ButtonPress	Win	True
147.228	0.44	Win2	1.0	n/a	Yes	2.686	n/a	n/a	GoodResponse	1	n/a	n/a	4	14	Blank	Win	True
147.663	1.45	Win2	1.0	n/a	Yes	2.686	n/a	5.0	GoodResponse	1	0.019	146.682	4	14	Feedback	Win	True
149.117	2.686	Win2	1.0	n/a	Yes	2.686	n/a	n/a	GoodResponse	1	0.0	n/a	4	14	ISIslide	Win	True
151.825	0.25	Control	1.0	0.0	Yes	2.975	0.025	n/a	GoodResponse	0	n/a	n/a	4	15	Cue	Neutral	True
152.076	4.0	Control	1.0	0.0	Yes	2.975	0.001	n/a	GoodResponse	0	n/a	n/a	4	15	Fixation	Neutral	True
156.071	0.25	Control	1.0	0.004	Yes	2.975	-0.004	2.0	GoodResponse	0	0.213	155.284	4	15	Target	Neutral	True
156.284	0.3	Control	1.0	0.004	Yes	2.975	-0.004	2.0	GoodResponse	0	0.213	n/a	4	15	ButtonPress	Neutral	True
156.322	0.45	Control	1.0	n/a	Yes	2.975	n/a	n/a	GoodResponse	0	n/a	n/a	4	15	Blank	Neutral	True
156.774	1.45	Control	1.0	n/a	Yes	2.975	n/a	5.0	GoodResponse	0	0.031	155.805	4	15	Feedback	Neutral	True
158.228	2.975	Control	1.0	n/a	Yes	2.975	n/a	n/a	GoodResponse	0	0.0	n/a	4	15	ISIslide	Neutral	True
161.22	0.25	Win2	1.0	0.0	Yes	2.88	0.02	n/a	GoodResponse	1	n/a	n/a	5	16	Cue	Win	True
161.471	4.0	Win2	1.0	0.0	Yes	2.88	0.001	n/a	GoodResponse	1	n/a	n/a	5	16	Fixation	Win	True
165.466	0.24	Win2	1.0	0.004	Yes	2.88	-0.004	2.0	GoodResponse	1	0.234	164.7	5	16	Target	Win	True
165.7	0.3	Win2	1.0	0.004	Yes	2.88	-0.004	2.0	GoodResponse	1	0.234	n/a	5	16	ButtonPress	Win	True
165.717	0.46	Win2	1.0	n/a	Yes	2.88	n/a	n/a	GoodResponse	1	n/a	n/a	5	16	Blank	Win	True
166.168	1.45	Win2	1.0	n/a	Yes	2.88	n/a	5.0	GoodResponse	1	0.002	165.17	5	16	Feedback	Win	True
167.623	2.88	Win2	1.0	n/a	Yes	2.88	n/a	n/a	GoodResponse	1	0.0	n/a	5	16	ISIslide	Win	True
170.515	0.25	Lose2	1.0	0.0	Yes	2.735	0.015	n/a	GoodResponse	0	n/a	n/a	5	17	Cue	AvoidedLoss	True
170.765	3.95	Lose2	1.0	0.001	Yes	2.735	0.0	n/a	GoodResponse	0	n/a	n/a	5	17	Fixation	AvoidedLoss	True
174.711	0.23	Lose2	1.0	0.004	Yes	2.735	-0.004	2.0	GoodResponse	0	0.213	173.924	5	17	Target	AvoidedLoss	True
174.924	0.3	Lose2	1.0	0.004	Yes	2.735	-0.004	2.0	GoodResponse	0	0.213	n/a	5	17	ButtonPress	AvoidedLoss	True
174.945	0.47	Lose2	1.0	n/a	Yes	2.735	n/a	n/a	GoodResponse	0	n/a	n/a	5	17	Blank	AvoidedLoss	True
175.413	1.45	Lose2	1.0	n/a	Yes	2.735	n/a	5.0	GoodResponse	0	0.025	174.438	5	17	Feedback	AvoidedLoss	True
176.867	2.735	Lose2	1.0	n/a	Yes	2.735	n/a	n/a	GoodResponse	0	0.0	n/a	5	17	ISIslide	AvoidedLoss	True
179.625	0.25	Lose2	0.9473999999999999	0.0	No	2.725	0.025	n/a	NoResponse	-1	n/a	n/a	4	18	Cue	Loss	True
179.876	4.05	Lose2	0.9473999999999999	0.0	No	2.725	0.001	n/a	NoResponse	-1	n/a	n/a	4	18	Fixation	Loss	True
183.922	0.22	Lose2	0.9473999999999999	0.003	No	2.725	-0.003	2.0	NoResponse	-1	0.26	183.182	4	18	Target	Loss	True
184.156	0.48	Lose2	0.9473999999999999	n/a	No	2.725	n/a	n/a	NoResponse	-1	n/a	n/a	4	18	Blank	Loss	True
184.182	0.3	Lose2	0.9473999999999999	0.003	No	2.725	-0.003	2.0	NoResponse	-1	0.26	n/a	4	18	ButtonPress	Loss	True
184.624	1.45	Lose2	0.9473999999999999	n/a	No	2.725	n/a	5.0	NoResponse	-1	0.033	183.657	4	18	Feedback	Loss	True
186.078	2.725	Lose2	0.9473999999999999	n/a	No	2.725	n/a	n/a	NoResponse	-1	0.0	n/a	4	18	ISIslide	Loss	True
188.82	0.25	Control	0.9	0.0	No	2.93	0.02	n/a	NoResponse	0	n/a	n/a	4	19	Cue	Neutral	True
189.07	3.95	Control	0.9	0.0	No	2.93	0.0	n/a	NoResponse	0	n/a	n/a	4	19	Fixation	Neutral	True
193.032	0.21	Control	0.9	0.0	No	2.93	0.012	2.0	NoResponse	0	0.25	192.282	4	19	Target	Neutral	True
193.233	0.49	Control	0.9	n/a	No	2.93	n/a	n/a	NoResponse	0	n/a	n/a	4	19	Blank	Neutral	True
193.282	0.3	Control	0.9	0.0	No	2.93	0.012	2.0	NoResponse	0	0.25	n/a	4	19	ButtonPress	Neutral	True
193.718	1.45	Control	0.9	n/a	No	2.93	n/a	5.0	NoResponse	0	0.013	192.731	4	19	Feedback	Neutral	True
195.172	2.93	Control	0.9	n/a	No	2.93	n/a	n/a	NoResponse	0	0.0	n/a	4	19	ISIslide	Neutral	True
198.114	0.25	Control	0.8571	0.0	No	2.636	0.014	n/a	NoResponse	0	n/a	n/a	4	20	Cue	Neutral	True
198.365	4.05	Control	0.8571	0.0	No	2.636	0.001	n/a	NoResponse	0	n/a	n/a	4	20	Fixation	Neutral	True
202.41	0.2	Control	0.8571	0.004	No	2.636	-0.004	2.0	NoResponse	0	0.298	201.708	4	20	Target	Neutral	True
202.611	0.5	Control	0.8571	n/a	No	2.636	n/a	n/a	NoResponse	0	n/a	n/a	4	20	Blank	Neutral	True
202.708	0.3	Control	0.8571	0.004	No	2.636	-0.004	2.0	NoResponse	0	0.298	n/a	4	20	ButtonPress	Neutral	True
203.112	1.45	Control	0.8571	n/a	No	2.636	n/a	5.0	NoResponse	0	0.034	202.146	4	20	Feedback	Neutral	True
204.567	2.636	Control	0.8571	n/a	No	2.636	n/a	n/a	NoResponse	0	0.0	n/a	4	20	ISIslide	Neutral	True
207.225	0.25	Control	0.8181999999999999	0.0	No	2.775	0.025	n/a	NoResponse	0	n/a	n/a	4	21	Cue	Neutral	True
207.475	4.1	Control	0.8181999999999999	0.001	No	2.775	0.0	n/a	NoResponse	0	n/a	n/a	4	21	Fixation	Neutral	True
211.571	0.19	Control	0.8181999999999999	0.004	No	2.775	-0.004	2.0	NoResponse	0	0.215	210.786	4	21	Target	Neutral	True
211.772	0.51	Control	0.8181999999999999	n/a	No	2.775	n/a	n/a	NoResponse	0	n/a	n/a	4	21	Blank	Neutral	True
211.786	0.3	Control	0.8181999999999999	0.004	No	2.775	-0.004	2.0	NoResponse	0	0.215	n/a	4	21	ButtonPress	Neutral	True
212.273	1.45	Control	0.8181999999999999	n/a	No	2.775	n/a	5.0	NoResponse	0	0.043	211.316	4	21	Feedback	Neutral	True
213.728	2.775	Control	0.8181999999999999	n/a	No	2.775	n/a	n/a	NoResponse	0	0.0	n/a	4	21	ISIslide	Neutral	True
216.519	0.25	Control	0.7826000000000001	0.0	No	2.781	0.019	n/a	NoResponse	0	n/a	n/a	4	22	Cue	Neutral	True
216.77	4.0	Control	0.7826000000000001	0.0	No	2.781	0.001	n/a	NoResponse	0	n/a	n/a	4	22	Fixation	Neutral	True
220.765	0.18	Control	0.7826000000000001	0.004	No	2.781	-0.004	2.0	NoResponse	0	0.185	219.95	4	22	Target	Neutral	True
220.949	0.52	Control	0.7826000000000001	n/a	No	2.781	n/a	n/a	NoResponse	0	n/a	n/a	4	22	Blank	Neutral	True
220.95	0.3	Control	0.7826000000000001	0.004	No	2.781	-0.004	2.0	NoResponse	0	0.185	n/a	4	22	ButtonPress	Neutral	True
221.467	1.45	Control	0.7826000000000001	n/a	No	2.781	n/a	5.0	NoResponse	0	0.02	220.487	4	22	Feedback	Neutral	True
222.922	2.781	Control	0.7826000000000001	n/a	No	2.781	n/a	n/a	NoResponse	0	0.0	n/a	4	22	ISIslide	Neutral	True
225.713	0.25	Control	0.75	0.001	No	2.787	0.013	n/a	LatePress	0	n/a	n/a	4	23	Cue	Neutral	True
225.964	3.9	Control	0.75	0.0	No	2.787	0.001	n/a	LatePress	0	n/a	n/a	4	23	Fixation	Neutral	True
229.859	0.17	Control	0.75	0.004	No	2.787	-0.004	2.0	LatePress	0	0.177	229.036	4	23	Target	Neutral	True
230.036	0.3	Control	0.75	0.004	No	2.787	-0.004	2.0	LatePress	0	0.177	n/a	4	23	ButtonPress	Neutral	True
230.043	0.53	Control	0.75	n/a	No	2.787	n/a	n/a	LatePress	0	n/a	n/a	4	23	Blank	Neutral	True
230.561	1.45	Control	0.75	n/a	No	2.787	n/a	5.0	LatePress	0	0.048	229.609	4	23	Feedback	Neutral	True
232.016	2.787	Control	0.75	n/a	No	2.787	n/a	n/a	LatePress	0	0.0	n/a	4	23	ISIslide	Neutral	True
234.824	0.25	Win2	0.72	0.0	No	3.126	0.024	n/a	NoResponse	0	n/a	n/a	4	24	Cue	MissedWin	True
235.075	3.95	Win2	0.72	0.0	No	3.126	0.001	n/a	NoResponse	0	n/a	n/a	4	24	Fixation	MissedWin	True
239.02	0.16	Win2	0.72	0.004	No	3.126	-0.004	2.0	NoResponse	0	0.189	238.209	4	24	Target	MissedWin	True
239.187	0.54	Win2	0.72	n/a	No	3.126	n/a	n/a	NoResponse	0	n/a	n/a	4	24	Blank	MissedWin	True
239.209	0.3	Win2	0.72	0.004	No	3.126	-0.004	2.0	NoResponse	0	0.189	n/a	4	24	ButtonPress	MissedWin	True
239.722	1.45	Win2	0.72	n/a	No	3.126	n/a	5.0	NoResponse	0	0.008	238.73	4	24	Feedback	MissedWin	True
241.176	3.126	Win2	0.72	n/a	No	3.126	n/a	n/a	NoResponse	0	0.0	n/a	4	24	ISIslide	MissedWin	True
244.319	0.25	Win2	0.6923	0.0	No	3.081	0.019	n/a	NoResponse	0	n/a	n/a	4	25	Cue	MissedWin	True
244.57	4.0	Win2	0.6923	0.0	No	3.081	0.001	n/a	NoResponse	0	n/a	n/a	4	25	Fixation	MissedWin	True
248.565	0.15	Win2	0.6923	0.004	No	3.081	-0.004	2.0	NoResponse	0	0.194	247.759	4	25	Target	MissedWin	True
248.716	0.55	Win2	0.6923	n/a	No	3.081	n/a	n/a	NoResponse	0	n/a	n/a	4	25	Blank	MissedWin	True
248.759	0.3	Win2	0.6923	0.004	No	3.081	-0.004	2.0	NoResponse	0	0.194	n/a	4	25	ButtonPress	MissedWin	True
249.267	1.45	Win2	0.6923	n/a	No	3.081	n/a	5.0	NoResponse	0	0.024	248.291	4	25	Feedback	MissedWin	True
250.722	3.081	Win2	0.6923	n/a	No	3.081	n/a	n/a	NoResponse	0	0.0	n/a	4	25	ISIslide	MissedWin	True
253.814	0.25	Win2	0.6667000000000001	0.0	No	2.936	0.014	n/a	NoResponse	0	n/a	n/a	4	26	Cue	MissedWin	True
254.065	3.95	Win2	0.6667000000000001	0.0	No	2.936	0.001	n/a	NoResponse	0	n/a	n/a	4	26	Fixation	MissedWin	True
258.01	0.15	Win2	0.6667000000000001	0.004	No	2.936	-0.004	2.0	NoResponse	0	0.193	257.203	4	26	Target	MissedWin	True
258.161	0.55	Win2	0.6667000000000001	n/a	No	2.936	n/a	n/a	NoResponse	0	n/a	n/a	4	26	Blank	MissedWin	True
258.203	0.3	Win2	0.6667000000000001	0.004	No	2.936	-0.004	2.0	NoResponse	0	0.193	n/a	4	26	ButtonPress	MissedWin	True
258.712	1.45	Win2	0.6667000000000001	n/a	No	2.936	n/a	5.0	NoResponse	0	0.043	257.755	4	26	Feedback	MissedWin	True
260.167	2.936	Win2	0.6667000000000001	n/a	No	2.936	n/a	n/a	NoResponse	0	0.0	n/a	4	26	ISIslide	MissedWin	True
263.126	0.25	Lose2	0.6429	0.0	No	2.824	0.026	n/a	NoResponse	-1	n/a	n/a	3	27	Cue	Loss	True
263.376	4.05	Lose2	0.6429	0.0	No	2.824	0.0	2.0	NoResponse	-1	3.98	266.356	3	27	Fixation	Loss	True
267.356	0.3	Lose2	0.6429	0.0	No	2.824	0.0	2.0	NoResponse	-1	3.98	n/a	3	27	ButtonPress	Loss	True
267.422	0.15	Lose2	0.6429	0.004	No	2.824	-0.004	n/a	NoResponse	-1	n/a	n/a	3	27	Target	Loss	True
267.572	0.55	Lose2	0.6429	n/a	No	2.824	n/a	n/a	NoResponse	-1	n/a	n/a	3	27	Blank	Loss	True
268.124	1.45	Lose2	0.6429	n/a	No	2.824	n/a	5.0	NoResponse	-1	0.046	267.17	3	27	Feedback	Loss	True
269.578	2.824	Lose2	0.6429	n/a	No	2.824	n/a	n/a	NoResponse	-1	0.0	n/a	3	27	ISIslide	Loss	True
272.42	0.25	Control	0.6207	0.0	No	2.83	0.02	n/a	NoResponse	0	n/a	n/a	3	28	Cue	Neutral	True
272.671	4.05	Control	0.6207	0.0	No	2.83	0.001	n/a	NoResponse	0	n/a	n/a	3	28	Fixation	Neutral	True
276.716	0.16	Control	0.6207	0.004	No	2.83	-0.004	2.0	NoResponse	0	0.183	275.899	3	28	Target	Neutral	True
276.883	0.54	Control	0.6207	n/a	No	2.83	n/a	n/a	NoResponse	0	n/a	n/a	3	28	Blank	Neutral	True
276.899	0.3	Control	0.6207	0.004	No	2.83	-0.004	2.0	NoResponse	0	0.183	n/a	3	28	ButtonPress	Neutral	True
277.418	1.45	Control	0.6207	n/a	No	2.83	n/a	5.0	NoResponse	0	0.02	276.438	3	28	Feedback	Neutral	True
278.873	2.83	Control	0.6207	n/a	No	2.83	n/a	n/a	NoResponse	0	0.0	n/a	3	28	ISIslide	Neutral	True
281.715	0.25	Lose2	0.6	0.0	No	2.835	0.015	n/a	NoResponse	-1	n/a	n/a	2	29	Cue	Loss	True
281.965	3.95	Lose2	0.6	0.0	No	2.835	0.0	n/a	NoResponse	-1	n/a	n/a	2	29	Fixation	Loss	True
285.91	0.17	Lose2	0.6	0.005	No	2.835	-0.005	2.0	NoResponse	-1	0.427	285.337	2	29	Target	Loss	True
286.094	0.53	Lose2	0.6	n/a	No	2.835	n/a	n/a	NoResponse	-1	n/a	n/a	2	29	Blank	Loss	True
286.337	0.3	Lose2	0.6	0.005	No	2.835	-0.005	2.0	NoResponse	-1	0.427	n/a	2	29	ButtonPress	Loss	True
286.613	1.45	Lose2	0.6	n/a	No	2.835	n/a	5.0	NoResponse	-1	0.045	285.658	2	29	Feedback	Loss	True
288.067	2.835	Lose2	0.6	n/a	No	2.835	n/a	n/a	NoResponse	-1	0.0	n/a	2	29	ISIslide	Loss	True
290.926	0.25	Win2	0.6129	0.0	Yes	2.774	0.026	n/a	GoodResponse	1	n/a	n/a	3	30	Cue	Win	True
291.176	3.9	Win2	0.6129	0.0	Yes	2.774	0.0	n/a	GoodResponse	1	n/a	n/a	3	30	Fixation	Win	True
295.088	0.18	Win2	0.6129	0.0	Yes	2.774	0.012	2.0	GoodResponse	1	0.142	294.23	3	30	Target	Win	True
295.23	0.3	Win2	0.6129	0.0	Yes	2.774	0.012	2.0	GoodResponse	1	0.142	n/a	3	30	ButtonPress	Win	True
295.255	0.52	Win2	0.6129	n/a	Yes	2.774	n/a	n/a	GoodResponse	1	n/a	n/a	3	30	Blank	Win	True
295.773	1.45	Win2	0.6129	n/a	Yes	2.774	n/a	5.0	GoodResponse	1	0.006	294.779	3	30	Feedback	Win	True
297.228	2.774	Win2	0.6129	n/a	Yes	2.774	n/a	n/a	GoodResponse	1	0.0	n/a	3	30	ISIslide	Win	True
300.019	0.25	Lose2	0.5938	0.001	No	2.831	0.019	n/a	NoResponse	-1	n/a	n/a	2	31	Cue	Loss	False
300.27	4.05	Lose2	0.5938	0.0	No	2.831	0.001	2.0	NoResponse	-1	3.834	303.104	2	31	Fixation	Loss	False
304.104	0.3	Lose2	0.5938	0.0	No	2.831	0.001	2.0	NoResponse	-1	3.834	n/a	2	31	ButtonPress	Loss	False
304.316	0.19	Lose2	0.5938	0.003	No	2.831	-0.003	2.0	NoResponse	-1	0.408	303.724	2	31	Target	Loss	False
304.516	0.51	Lose2	0.5938	n/a	No	2.831	n/a	n/a	NoResponse	-1	n/a	n/a	2	31	Blank	Loss	False
304.724	0.3	Lose2	0.5938	0.003	No	2.831	-0.003	2.0	NoResponse	-1	0.408	n/a	2	31	ButtonPress	Loss	False
305.018	1.45	Lose2	0.5938	n/a	No	2.831	n/a	5.0	NoResponse	-1	0.029	304.047	2	31	Feedback	Loss	False
306.472	2.831	Lose2	0.5938	n/a	No	2.831	n/a	n/a	NoResponse	-1	0.0	n/a	2	31	ISIslide	Loss	False
309.314	0.25	Lose2	0.6061	0.0	Yes	2.636	0.014	n/a	GoodResponse	0	n/a	n/a	2	32	Cue	AvoidedLoss	False
309.565	4.15	Lose2	0.6061	0.0	Yes	2.636	0.001	2.0	GoodResponse	0	0.514	309.079	2	32	Fixation	AvoidedLoss	False
310.079	0.3	Lose2	0.6061	0.0	Yes	2.636	0.001	2.0	GoodResponse	0	0.514	n/a	2	32	ButtonPress	AvoidedLoss	False
313.71	0.2	Lose2	0.6061	0.004	Yes	2.636	-0.004	2.0	GoodResponse	0	0.178	312.888	2	32	Target	AvoidedLoss	False
313.888	0.3	Lose2	0.6061	0.004	Yes	2.636	-0.004	2.0	GoodResponse	0	0.178	n/a	2	32	ButtonPress	AvoidedLoss	False
313.911	0.5	Lose2	0.6061	n/a	Yes	2.636	n/a	n/a	GoodResponse	0	n/a	n/a	2	32	Blank	AvoidedLoss	False
314.413	1.45	Lose2	0.6061	n/a	Yes	2.636	n/a	5.0	GoodResponse	0	0.0	313.413	2	32	Feedback	AvoidedLoss	False
315.867	2.636	Lose2	0.6061	n/a	Yes	2.636	n/a	n/a	GoodResponse	0	0.0	n/a	2	32	ISIslide	AvoidedLoss	False
318.525	0.25	Win2	0.6175999999999999	0.0	Yes	2.675	0.025	n/a	GoodResponse	1	n/a	n/a	3	33	Cue	Win	True
318.776	4.0	Win2	0.6175999999999999	0.0	Yes	2.675	0.001	n/a	GoodResponse	1	n/a	n/a	3	33	Fixation	Win	True
322.771	0.21	Win2	0.6175999999999999	0.004	Yes	2.675	-0.004	2.0	GoodResponse	1	0.203	321.974	3	33	Target	Win	True
322.974	0.3	Win2	0.6175999999999999	0.004	Yes	2.675	-0.004	2.0	GoodResponse	1	0.203	n/a	3	33	ButtonPress	Win	True
322.988	0.49	Win2	0.6175999999999999	n/a	Yes	2.675	n/a	n/a	GoodResponse	1	n/a	n/a	3	33	Blank	Win	True
323.473	1.45	Win2	0.6175999999999999	n/a	Yes	2.675	n/a	5.0	GoodResponse	1	0.013	322.486	3	33	Feedback	Win	True
324.927	2.675	Win2	0.6175999999999999	n/a	Yes	2.675	n/a	n/a	GoodResponse	1	0.0	n/a	3	33	ISIslide	Win	True
327.619	0.25	Lose2	0.6286	0.0	Yes	2.631	0.019	n/a	GoodResponse	0	n/a	n/a	3	34	Cue	AvoidedLoss	True
327.87	4.05	Lose2	0.6286	0.0	Yes	2.631	0.001	n/a	GoodResponse	0	n/a	n/a	3	34	Fixation	AvoidedLoss	True
331.915	0.22	Lose2	0.6286	0.004	Yes	2.631	-0.004	2.0	GoodResponse	0	0.192	331.107	3	34	Target	AvoidedLoss	True
332.107	0.3	Lose2	0.6286	0.004	Yes	2.631	-0.004	2.0	GoodResponse	0	0.192	n/a	3	34	ButtonPress	AvoidedLoss	True
332.149	0.48	Lose2	0.6286	n/a	Yes	2.631	n/a	n/a	GoodResponse	0	n/a	n/a	3	34	Blank	AvoidedLoss	True
332.617	1.45	Lose2	0.6286	n/a	Yes	2.631	n/a	5.0	GoodResponse	0	0.04	331.657	3	34	Feedback	AvoidedLoss	True
334.071	2.631	Lose2	0.6286	n/a	Yes	2.631	n/a	n/a	GoodResponse	0	0.0	n/a	3	34	ISIslide	AvoidedLoss	True
336.729	0.25	Lose2	0.6389	0.001	Yes	2.671	0.029	n/a	GoodResponse	0	n/a	n/a	3	35	Cue	AvoidedLoss	False
336.98	4.0	Lose2	0.6389	0.0	Yes	2.671	0.001	2.0	GoodResponse	0	3.499	339.479	3	35	Fixation	AvoidedLoss	False
340.479	0.3	Lose2	0.6389	0.0	Yes	2.671	0.001	2.0	GoodResponse	0	3.499	n/a	3	35	ButtonPress	AvoidedLoss	False
340.975	0.23	Lose2	0.6389	0.004	Yes	2.671	-0.004	2.0	GoodResponse	0	0.192	340.167	3	35	Target	AvoidedLoss	False
341.167	0.3	Lose2	0.6389	0.004	Yes	2.671	-0.004	2.0	GoodResponse	0	0.192	n/a	3	35	ButtonPress	AvoidedLoss	False
341.21	0.47	Lose2	0.6389	n/a	Yes	2.671	n/a	n/a	GoodResponse	0	n/a	n/a	3	35	Blank	AvoidedLoss	False
341.678	1.45	Lose2	0.6389	n/a	Yes	2.671	n/a	5.0	GoodResponse	0	0.004	340.682	3	35	Feedback	AvoidedLoss	False
343.132	2.671	Lose2	0.6389	n/a	Yes	2.671	n/a	n/a	GoodResponse	0	0.0	n/a	3	35	ISIslide	AvoidedLoss	False
345.823	0.25	Control	0.6486	0.0	Yes	2.677	0.023	n/a	GoodResponse	0	n/a	n/a	3	36	Cue	Neutral	True
346.074	4.0	Control	0.6486	0.0	Yes	2.677	0.001	n/a	GoodResponse	0	n/a	n/a	3	36	Fixation	Neutral	True
350.069	0.24	Control	0.6486	0.004	Yes	2.677	-0.004	2.0	GoodResponse	0	0.162	349.231	3	36	Target	Neutral	True
350.231	0.3	Control	0.6486	0.004	Yes	2.677	-0.004	2.0	GoodResponse	0	0.162	n/a	3	36	ButtonPress	Neutral	True
350.32	0.46	Control	0.6486	n/a	Yes	2.677	n/a	n/a	GoodResponse	0	n/a	n/a	3	36	Blank	Neutral	True
350.772	1.45	Control	0.6486	n/a	Yes	2.677	n/a	5.0	GoodResponse	0	0.031	349.803	3	36	Feedback	Neutral	True
352.226	2.677	Control	0.6486	n/a	Yes	2.677	n/a	n/a	GoodResponse	0	0.0	n/a	3	36	ISIslide	Neutral	True
354.917	0.25	Win2	0.6315999999999999	0.0	No	2.883	0.017	n/a	NoResponse	0	n/a	n/a	3	37	Cue	MissedWin	False
355.168	4.0	Win2	0.6315999999999999	0.0	No	2.883	0.001	2.0	NoResponse	0	3.835	358.003	3	37	Fixation	MissedWin	False
359.003	0.3	Win2	0.6315999999999999	0.0	No	2.883	0.001	2.0	NoResponse	0	3.835	n/a	3	37	ButtonPress	MissedWin	False
359.163	0.25	Win2	0.6315999999999999	0.004	No	2.883	-0.004	2.0	NoResponse	0	0.317	358.48	3	37	Target	MissedWin	False
359.414	0.45	Win2	0.6315999999999999	n/a	No	2.883	n/a	n/a	NoResponse	0	n/a	n/a	3	37	Blank	MissedWin	False
359.48	0.3	Win2	0.6315999999999999	0.004	No	2.883	-0.004	2.0	NoResponse	0	0.317	n/a	3	37	ButtonPress	MissedWin	False
359.865	1.45	Win2	0.6315999999999999	n/a	No	2.883	n/a	5.0	NoResponse	0	0.011	358.876	3	37	Feedback	MissedWin	False
361.32	2.883	Win2	0.6315999999999999	n/a	No	2.883	n/a	n/a	NoResponse	0	0.0	n/a	3	37	ISIslide	MissedWin	False
364.228	0.25	Lose2	0.6409999999999999	0.001	Yes	2.822	0.028	n/a	GoodResponse	0	n/a	n/a	3	38	Cue	AvoidedLoss	True
364.479	3.95	Lose2	0.6409999999999999	0.0	Yes	2.822	0.001	n/a	GoodResponse	0	n/a	n/a	3	38	Fixation	AvoidedLoss	True
368.424	0.26	Lose2	0.6409999999999999	0.004	Yes	2.822	-0.004	2.0	GoodResponse	0	0.16	367.584	3	38	Target	AvoidedLoss	True
368.584	0.3	Lose2	0.6409999999999999	0.004	Yes	2.822	-0.004	2.0	GoodResponse	0	0.16	n/a	3	38	ButtonPress	AvoidedLoss	True
368.692	0.44	Lose2	0.6409999999999999	n/a	Yes	2.822	n/a	n/a	GoodResponse	0	n/a	n/a	3	38	Blank	AvoidedLoss	True
369.127	1.45	Lose2	0.6409999999999999	n/a	Yes	2.822	n/a	5.0	GoodResponse	0	0.017	368.144	3	38	Feedback	AvoidedLoss	True
370.581	2.822	Lose2	0.6409999999999999	n/a	Yes	2.822	n/a	n/a	GoodResponse	0	0.0	n/a	3	38	ISIslide	AvoidedLoss	True
373.423	0.25	Win2	0.65	0.0	Yes	2.977	0.023	n/a	GoodResponse	1	n/a	n/a	4	39	Cue	Win	False
373.673	4.1	Win2	0.65	0.001	Yes	2.977	0.0	2.0	GoodResponse	1	3.791	376.464	4	39	Fixation	Win	False
377.464	0.3	Win2	0.65	0.001	Yes	2.977	0.0	2.0	GoodResponse	1	3.791	n/a	4	39	ButtonPress	Win	False
377.769	0.27	Win2	0.65	0.004	Yes	2.977	-0.004	2.0	GoodResponse	1	0.248	377.017	4	39	Target	Win	False
378.017	0.3	Win2	0.65	0.004	Yes	2.977	-0.004	2.0	GoodResponse	1	0.248	n/a	4	39	ButtonPress	Win	False
378.053	0.43	Win2	0.65	n/a	Yes	2.977	n/a	n/a	GoodResponse	1	n/a	n/a	4	39	Blank	Win	False
378.471	1.45	Win2	0.65	n/a	Yes	2.977	n/a	5.0	GoodResponse	1	0.039	377.51	4	39	Feedback	Win	False
379.926	2.977	Win2	0.65	n/a	Yes	2.977	n/a	n/a	GoodResponse	1	0.0	n/a	4	39	ISIslide	Win	False
382.918	0.25	Win2	0.6585	0.0	Yes	2.732	0.018	n/a	GoodResponse	1	n/a	n/a	5	40	Cue	Win	True
383.169	3.95	Win2	0.6585	0.0	Yes	2.732	0.001	n/a	GoodResponse	1	n/a	n/a	5	40	Fixation	Win	True
387.114	0.28	Win2	0.6585	0.004	Yes	2.732	-0.004	2.0	GoodResponse	1	0.21	386.324	5	40	Target	Win	True
387.324	0.3	Win2	0.6585	0.004	Yes	2.732	-0.004	2.0	GoodResponse	1	0.21	n/a	5	40	ButtonPress	Win	True
387.398	0.42	Win2	0.6585	n/a	Yes	2.732	n/a	n/a	GoodResponse	1	n/a	n/a	5	40	Blank	Win	True
387.816	1.45	Win2	0.6585	n/a	Yes	2.732	n/a	5.0	GoodResponse	1	0.011	386.827	5	40	Feedback	Win	True
389.27	2.732	Win2	0.6585	n/a	Yes	2.732	n/a	n/a	GoodResponse	1	0.0	n/a	5	40	ISIslide	Win	True
392.028	0.25	Win2	0.6667000000000001	0.001	Yes	2.772	0.028	n/a	GoodResponse	1	n/a	n/a	6	41	Cue	Win	True
392.279	3.9	Win2	0.6667000000000001	0.0	Yes	2.772	0.001	n/a	GoodResponse	1	n/a	n/a	6	41	Fixation	Win	True
396.174	0.28	Win2	0.6667000000000001	0.004	Yes	2.772	-0.004	2.0	GoodResponse	1	0.142	395.316	6	41	Target	Win	True
396.316	0.3	Win2	0.6667000000000001	0.004	Yes	2.772	-0.004	2.0	GoodResponse	1	0.142	n/a	6	41	ButtonPress	Win	True
396.458	0.42	Win2	0.6667000000000001	n/a	Yes	2.772	n/a	n/a	GoodResponse	1	n/a	n/a	6	41	Blank	Win	True
396.876	1.45	Win2	0.6667000000000001	n/a	Yes	2.772	n/a	5.0	GoodResponse	1	0.025	395.901	6	41	Feedback	Win	True
398.331	2.772	Win2	0.6667000000000001	n/a	Yes	2.772	n/a	n/a	GoodResponse	1	0.0	n/a	6	41	ISIslide	Win	True
401.122	0.25	Control	0.6744	0.0	Yes	2.928	0.022	n/a	GoodResponse	0	n/a	n/a	6	42	Cue	Neutral	True
401.373	3.85	Control	0.6744	0.0	Yes	2.928	0.001	n/a	GoodResponse	0	n/a	n/a	6	42	Fixation	Neutral	True
405.218	0.27	Control	0.6744	0.004	Yes	2.928	-0.004	2.0	GoodResponse	0	0.128	404.346	6	42	Target	Neutral	True
405.346	0.3	Control	0.6744	0.004	Yes	2.928	-0.004	2.0	GoodResponse	0	0.128	n/a	6	42	ButtonPress	Neutral	True
405.502	0.43	Control	0.6744	n/a	Yes	2.928	n/a	n/a	GoodResponse	0	n/a	n/a	6	42	Blank	Neutral	True
405.92	1.45	Control	0.6744	n/a	Yes	2.928	n/a	5.0	GoodResponse	0	0.005	404.925	6	42	Feedback	Neutral	True
407.374	2.928	Control	0.6744	n/a	Yes	2.928	n/a	n/a	GoodResponse	0	0.0	n/a	6	42	ISIslide	Neutral	True
410.317	0.25	Win2	0.6818000000000001	0.0	Yes	3.183	0.017	n/a	GoodResponse	1	n/a	n/a	7	43	Cue	Win	True
410.567	4.0	Win2	0.6818000000000001	0.0	Yes	3.183	0.0	n/a	GoodResponse	1	n/a	n/a	7	43	Fixation	Win	True
414.563	0.26	Win2	0.6818000000000001	0.004	Yes	3.183	-0.004	2.0	GoodResponse	1	0.195	413.758	7	43	Target	Win	True
414.758	0.3	Win2	0.6818000000000001	0.004	Yes	3.183	-0.004	2.0	GoodResponse	1	0.195	n/a	7	43	ButtonPress	Win	True
414.83	0.44	Win2	0.6818000000000001	n/a	Yes	3.183	n/a	n/a	GoodResponse	1	n/a	n/a	7	43	Blank	Win	True
415.265	1.45	Win2	0.6818000000000001	n/a	Yes	3.183	n/a	5.0	GoodResponse	1	0.025	414.29	7	43	Feedback	Win	True
416.719	3.183	Win2	0.6818000000000001	n/a	Yes	3.183	n/a	n/a	GoodResponse	1	0.0	n/a	7	43	ISIslide	Win	True
419.929	0.25	Win2	0.6667000000000001	0.0	No	2.971	0.029	n/a	NoResponse	0	n/a	n/a	7	44	Cue	MissedWin	True
420.179	4.0	Win2	0.6667000000000001	0.001	No	2.971	0.0	n/a	NoResponse	0	n/a	n/a	7	44	Fixation	MissedWin	True
424.175	0.25	Win2	0.6667000000000001	0.004	No	2.971	-0.004	2.0	NoResponse	0	0.583	423.758	7	44	Target	MissedWin	True
424.426	0.45	Win2	0.6667000000000001	n/a	No	2.971	n/a	n/a	NoResponse	0	n/a	n/a	7	44	Blank	MissedWin	True
424.758	0.3	Win2	0.6667000000000001	0.004	No	2.971	-0.004	2.0	NoResponse	0	0.583	n/a	7	44	ButtonPress	MissedWin	True
424.877	1.45	Win2	0.6667000000000001	n/a	No	2.971	n/a	5.0	NoResponse	0	0.023	423.9	7	44	Feedback	MissedWin	True
426.331	2.971	Win2	0.6667000000000001	n/a	No	2.971	n/a	n/a	NoResponse	0	0.0	n/a	7	44	ISIslide	MissedWin	True
429.324	0.25	Control	0.6522	0.0	No	2.876	0.024	n/a	NoResponse	0	n/a	n/a	7	45	Cue	Neutral	False
429.574	4.1	Control	0.6522	0.0	No	2.876	0.0	2.0	NoResponse	0	3.381	431.955	7	45	Fixation	Neutral	False
432.955	0.3	Control	0.6522	0.0	No	2.876	0.0	2.0	NoResponse	0	3.381	n/a	7	45	ButtonPress	Neutral	False
433.67	0.24	Control	0.6522	0.004	No	2.876	-0.004	2.0	NoResponse	0	0.257	432.927	7	45	Target	Neutral	False
433.921	0.46	Control	0.6522	n/a	No	2.876	n/a	n/a	NoResponse	0	n/a	n/a	7	45	Blank	Neutral	False
433.927	0.3	Control	0.6522	0.004	No	2.876	-0.004	2.0	NoResponse	0	0.257	n/a	7	45	ButtonPress	Neutral	False
434.372	1.45	Control	0.6522	n/a	No	2.876	n/a	5.0	NoResponse	0	0.04	433.412	7	45	Feedback	Neutral	False
435.826	2.876	Control	0.6522	n/a	No	2.876	n/a	n/a	NoResponse	0	0.0	n/a	7	45	ISIslide	Neutral	False
438.718	0.25	Lose2	0.6383	0.0	No	3.382	0.018	n/a	PrematurePress	-1	n/a	n/a	6	46	Cue	Loss	True
438.969	4.0	Lose2	0.6383	0.0	No	3.382	0.001	n/a	PrematurePress	-1	n/a	n/a	6	46	Fixation	Loss	True
442.964	0.25	Lose2	0.6383	0.004	No	3.382	-0.004	2.0	PrematurePress	-1	0.017	441.981	6	46	Target	Loss	True
442.981	0.3	Lose2	0.6383	0.004	No	3.382	-0.004	2.0	PrematurePress	-1	0.017	n/a	6	46	ButtonPress	Loss	True
443.215	0.45	Lose2	0.6383	n/a	No	3.382	n/a	n/a	PrematurePress	-1	n/a	n/a	6	46	Blank	Loss	True
443.667	1.45	Lose2	0.6383	n/a	No	3.382	n/a	5.0	PrematurePress	-1	0.014	442.681	6	46	Feedback	Loss	True
445.121	3.382	Lose2	0.6383	n/a	No	3.382	n/a	n/a	PrematurePress	-1	0.0	n/a	6	46	ISIslide	Loss	True
448.514	0.25	Lose2	0.6457999999999999	0.0	Yes	2.686	0.014	n/a	GoodResponse	0	n/a	n/a	6	47	Cue	AvoidedLoss	True
448.765	4.0	Lose2	0.6457999999999999	0.0	Yes	2.686	0.001	n/a	GoodResponse	0	n/a	n/a	6	47	Fixation	AvoidedLoss	True
452.76	0.26	Lose2	0.6457999999999999	0.004	Yes	2.686	-0.004	2.0	GoodResponse	0	0.166	451.926	6	47	Target	AvoidedLoss	True
452.926	0.3	Lose2	0.6457999999999999	0.004	Yes	2.686	-0.004	2.0	GoodResponse	0	0.166	n/a	6	47	ButtonPress	AvoidedLoss	True
453.028	0.44	Lose2	0.6457999999999999	n/a	Yes	2.686	n/a	n/a	GoodResponse	0	n/a	n/a	6	47	Blank	AvoidedLoss	True
453.463	1.45	Lose2	0.6457999999999999	n/a	Yes	2.686	n/a	5.0	GoodResponse	0	0.023	452.486	6	47	Feedback	AvoidedLoss	True
454.917	2.686	Lose2	0.6457999999999999	n/a	Yes	2.686	n/a	n/a	GoodResponse	0	0.0	n/a	6	47	ISIslide	AvoidedLoss	True
457.625	0.25	Lose2	0.6531	0.0	Yes	3.025	0.025	n/a	GoodResponse	0	n/a	n/a	6	48	Cue	AvoidedLoss	True
457.876	3.95	Lose2	0.6531	0.0	Yes	3.025	0.001	n/a	GoodResponse	0	n/a	n/a	6	48	Fixation	AvoidedLoss	True
461.821	0.27	Lose2	0.6531	0.004	Yes	3.025	-0.004	2.0	GoodResponse	0	0.195	461.016	6	48	Target	AvoidedLoss	True
462.016	0.3	Lose2	0.6531	0.004	Yes	3.025	-0.004	2.0	GoodResponse	0	0.195	n/a	6	48	ButtonPress	AvoidedLoss	True
462.105	0.43	Lose2	0.6531	n/a	Yes	3.025	n/a	n/a	GoodResponse	0	n/a	n/a	6	48	Blank	AvoidedLoss	True
462.523	1.45	Lose2	0.6531	n/a	Yes	3.025	n/a	5.0	GoodResponse	0	0.036	461.559	6	48	Feedback	AvoidedLoss	True
463.977	3.025	Lose2	0.6531	n/a	Yes	3.025	n/a	n/a	GoodResponse	0	0.0	n/a	6	48	ISIslide	AvoidedLoss	True
467.02	0.25	Control	0.66	0.0	Yes	2.88	0.02	n/a	GoodResponse	0	n/a	n/a	6	49	Cue	Neutral	True
467.271	4.0	Control	0.66	0.0	Yes	2.88	0.001	n/a	GoodResponse	0	n/a	n/a	6	49	Fixation	Neutral	True
471.266	0.28	Control	0.66	0.004	Yes	2.88	-0.004	2.0	GoodResponse	0	0.191	470.457	6	49	Target	Neutral	True
471.457	0.3	Control	0.66	0.004	Yes	2.88	-0.004	2.0	GoodResponse	0	0.191	n/a	6	49	ButtonPress	Neutral	True
471.55	0.42	Control	0.66	n/a	Yes	2.88	n/a	n/a	GoodResponse	0	n/a	n/a	6	49	Blank	Neutral	True
471.968	1.45	Control	0.66	n/a	Yes	2.88	n/a	5.0	GoodResponse	0	0.005	470.973	6	49	Feedback	Neutral	True
473.422	2.88	Control	0.66	n/a	Yes	2.88	n/a	n/a	GoodResponse	0	0.0	n/a	6	49	ISIslide	Neutral	True
476.314	0.25	Control	0.6667000000000001	0.001	Yes	2.786	0.014	n/a	GoodResponse	0	n/a	n/a	6	50	Cue	Neutral	True
476.565	4.0	Control	0.6667000000000001	0.0	Yes	2.786	0.001	n/a	GoodResponse	0	n/a	n/a	6	50	Fixation	Neutral	True
480.56	0.28	Control	0.6667000000000001	0.004	Yes	2.786	-0.004	2.0	GoodResponse	0	0.194	479.754	6	50	Target	Neutral	True
480.754	0.3	Control	0.6667000000000001	0.004	Yes	2.786	-0.004	2.0	GoodResponse	0	0.194	n/a	6	50	ButtonPress	Neutral	True
480.845	0.42	Control	0.6667000000000001	n/a	Yes	2.786	n/a	n/a	GoodResponse	0	n/a	n/a	6	50	Blank	Neutral	True
481.263	1.45	Control	0.6667000000000001	n/a	Yes	2.786	n/a	5.0	GoodResponse	0	0.027	480.29	6	50	Feedback	Neutral	True
482.717	2.786	Control	0.6667000000000001	n/a	Yes	2.786	n/a	n/a	GoodResponse	0	0.0	n/a	6	50	ISIslide	Neutral	True
485.525	0.25	Control	0.6731	0.0	Yes	2.725	0.025	n/a	GoodResponse	0	n/a	n/a	6	51	Cue	Neutral	True
485.776	3.95	Control	0.6731	0.0	Yes	2.725	0.001	n/a	GoodResponse	0	n/a	n/a	6	51	Fixation	Neutral	True
489.721	0.27	Control	0.6731	0.004	Yes	2.725	-0.004	2.0	GoodResponse	0	0.202	488.923	6	51	Target	Neutral	True
489.923	0.3	Control	0.6731	0.004	Yes	2.725	-0.004	2.0	GoodResponse	0	0.202	n/a	6	51	ButtonPress	Neutral	True
490.005	0.43	Control	0.6731	n/a	Yes	2.725	n/a	n/a	GoodResponse	0	n/a	n/a	6	51	Blank	Neutral	True
490.423	1.45	Control	0.6731	n/a	Yes	2.725	n/a	5.0	GoodResponse	0	0.038	489.461	6	51	Feedback	Neutral	True
491.878	2.725	Control	0.6731	n/a	Yes	2.725	n/a	n/a	GoodResponse	0	0.0	n/a	6	51	ISIslide	Neutral	True
494.619	0.25	Control	0.6792	0.0	Yes	2.631	0.019	n/a	GoodResponse	0	n/a	n/a	6	52	Cue	Neutral	True
494.87	4.05	Control	0.6792	0.0	Yes	2.631	0.001	n/a	GoodResponse	0	n/a	n/a	6	52	Fixation	Neutral	True
498.915	0.26	Control	0.6792	0.004	Yes	2.631	-0.004	2.0	GoodResponse	0	0.196	498.111	6	52	Target	Neutral	True
499.111	0.3	Control	0.6792	0.004	Yes	2.631	-0.004	2.0	GoodResponse	0	0.196	n/a	6	52	ButtonPress	Neutral	True
499.183	0.44	Control	0.6792	n/a	Yes	2.631	n/a	n/a	GoodResponse	0	n/a	n/a	6	52	Blank	Neutral	True
499.618	1.45	Control	0.6792	n/a	Yes	2.631	n/a	5.0	GoodResponse	0	0.013	498.631	6	52	Feedback	Neutral	True
501.072	2.631	Control	0.6792	n/a	Yes	2.631	n/a	n/a	GoodResponse	0	0.0	n/a	6	52	ISIslide	Neutral	True
503.73	0.25	Win2	0.6851999999999999	0.0	Yes	2.92	0.03	n/a	GoodResponse	1	n/a	n/a	7	53	Cue	Win	True
503.981	4.05	Win2	0.6851999999999999	0.0	Yes	2.92	0.001	n/a	GoodResponse	1	n/a	n/a	7	53	Fixation	Win	True
508.026	0.25	Win2	0.6851999999999999	0.004	Yes	2.92	-0.004	2.0	GoodResponse	1	0.186	507.212	7	53	Target	Win	True
508.212	0.3	Win2	0.6851999999999999	0.004	Yes	2.92	-0.004	2.0	GoodResponse	1	0.186	n/a	7	53	ButtonPress	Win	True
508.277	0.45	Win2	0.6851999999999999	n/a	Yes	2.92	n/a	n/a	GoodResponse	1	n/a	n/a	7	53	Blank	Win	True
508.728	1.45	Win2	0.6851999999999999	n/a	Yes	2.92	n/a	5.0	GoodResponse	1	0.026	507.754	7	53	Feedback	Win	True
510.182	2.92	Win2	0.6851999999999999	n/a	Yes	2.92	n/a	n/a	GoodResponse	1	0.0	n/a	7	53	ISIslide	Win	True
513.125	0.25	Win2	0.6727	0.0	No	2.725	0.025	n/a	LatePress	0	n/a	n/a	7	54	Cue	MissedWin	True
513.375	3.95	Win2	0.6727	0.0	No	2.725	0.0	n/a	LatePress	0	n/a	n/a	7	54	Fixation	MissedWin	True
517.321	0.24	Win2	0.6727	0.004	No	2.725	-0.004	2.0	LatePress	0	0.243	516.564	7	54	Target	MissedWin	True
517.564	0.3	Win2	0.6727	0.004	No	2.725	-0.004	2.0	LatePress	0	0.243	n/a	7	54	ButtonPress	MissedWin	True
517.571	0.46	Win2	0.6727	n/a	No	2.725	n/a	n/a	LatePress	0	n/a	n/a	7	54	Blank	MissedWin	True
518.023	1.45	Win2	0.6727	n/a	No	2.725	n/a	5.0	LatePress	0	0.048	517.071	7	54	Feedback	MissedWin	True
519.477	2.725	Win2	0.6727	n/a	No	2.725	n/a	n/a	LatePress	0	0.0	n/a	7	54	ISIslide	MissedWin	True
522.219	0.25	Control	0.6786	0.0	Yes	3.031	0.019	n/a	GoodResponse	0	n/a	n/a	7	55	Cue	Neutral	True
522.469	3.95	Control	0.6786	0.0	Yes	3.031	0.0	n/a	GoodResponse	0	n/a	n/a	7	55	Fixation	Neutral	True
526.414	0.23	Control	0.6786	0.005	Yes	3.031	-0.005	2.0	GoodResponse	0	0.175	525.589	7	55	Target	Neutral	True
526.589	0.3	Control	0.6786	0.005	Yes	3.031	-0.005	2.0	GoodResponse	0	0.175	n/a	7	55	ButtonPress	Neutral	True
526.648	0.47	Control	0.6786	n/a	Yes	3.031	n/a	n/a	GoodResponse	0	n/a	n/a	7	55	Blank	Neutral	True
527.117	1.45	Control	0.6786	n/a	Yes	3.031	n/a	5.0	GoodResponse	0	0.027	526.144	7	55	Feedback	Neutral	True
528.571	3.031	Control	0.6786	n/a	Yes	3.031	n/a	n/a	GoodResponse	0	0.0	n/a	7	55	ISIslide	Neutral	True
531.613	0.25	Control	0.6842	0.0	Yes	2.837	0.013	n/a	GoodResponse	0	n/a	n/a	7	56	Cue	Neutral	True
531.864	3.95	Control	0.6842	0.0	Yes	2.837	0.001	n/a	GoodResponse	0	n/a	n/a	7	56	Fixation	Neutral	True
535.809	0.22	Control	0.6842	0.004	Yes	2.837	-0.004	2.0	GoodResponse	0	0.185	534.994	7	56	Target	Neutral	True
535.994	0.3	Control	0.6842	0.004	Yes	2.837	-0.004	2.0	GoodResponse	0	0.185	n/a	7	56	ButtonPress	Neutral	True
536.043	0.48	Control	0.6842	n/a	Yes	2.837	n/a	n/a	GoodResponse	0	n/a	n/a	7	56	Blank	Neutral	True
536.511	1.45	Control	0.6842	n/a	Yes	2.837	n/a	5.0	GoodResponse	0	0.047	535.558	7	56	Feedback	Neutral	True
537.966	2.837	Control	0.6842	n/a	Yes	2.837	n/a	n/a	GoodResponse	0	0.0	n/a	7	56	ISIslide	Neutral	True
540.824	0.25	Control	0.6897	0.0	Yes	3.476	0.024	n/a	GoodResponse	0	n/a	n/a	7	57	Cue	Neutral	True
541.075	4.0	Control	0.6897	0.0	Yes	3.476	0.001	n/a	GoodResponse	0	n/a	n/a	7	57	Fixation	Neutral	True
545.07	0.21	Control	0.6897	0.004	Yes	3.476	-0.004	2.0	GoodResponse	0	0.179	544.249	7	57	Target	Neutral	True
545.249	0.3	Control	0.6897	0.004	Yes	3.476	-0.004	2.0	GoodResponse	0	0.179	n/a	7	57	ButtonPress	Neutral	True
545.288	0.49	Control	0.6897	n/a	Yes	3.476	n/a	n/a	GoodResponse	0	n/a	n/a	7	57	Blank	Neutral	True
545.772	1.45	Control	0.6897	n/a	Yes	3.476	n/a	5.0	GoodResponse	0	0.005	544.777	7	57	Feedback	Neutral	True
547.227	3.476	Control	0.6897	n/a	Yes	3.476	n/a	n/a	GoodResponse	0	0.0	n/a	7	57	ISIslide	Neutral	True
550.721	0.25	Win2	0.6779999999999999	0.0	No	2.729	0.021	n/a	PrematurePress	0	n/a	n/a	7	58	Cue	MissedWin	True
550.971	4.05	Win2	0.6779999999999999	0.0	No	2.729	0.0	n/a	PrematurePress	0	n/a	n/a	7	58	Fixation	MissedWin	True
555.017	0.2	Win2	0.6779999999999999	0.004	No	2.729	-0.004	2.0	PrematurePress	0	0.085	554.102	7	58	Target	MissedWin	True
555.102	0.3	Win2	0.6779999999999999	0.004	No	2.729	-0.004	2.0	PrematurePress	0	0.085	n/a	7	58	ButtonPress	MissedWin	True
555.217	0.5	Win2	0.6779999999999999	n/a	No	2.729	n/a	n/a	PrematurePress	0	n/a	n/a	7	58	Blank	MissedWin	True
555.719	1.45	Win2	0.6779999999999999	n/a	No	2.729	n/a	5.0	PrematurePress	0	0.01	554.729	7	58	Feedback	MissedWin	True
557.173	2.729	Win2	0.6779999999999999	n/a	No	2.729	n/a	n/a	PrematurePress	0	0.0	n/a	7	58	ISIslide	MissedWin	True
559.915	0.25	Lose2	0.6667000000000001	0.0	No	2.685	0.015	n/a	LatePress	-1	n/a	n/a	6	59	Cue	Loss	True
560.166	4.0	Lose2	0.6667000000000001	0.0	No	2.685	0.001	n/a	LatePress	-1	n/a	n/a	6	59	Fixation	Loss	True
564.161	0.19	Lose2	0.6667000000000001	0.004	No	2.685	-0.004	2.0	LatePress	-1	0.193	563.354	6	59	Target	Loss	True
564.354	0.3	Lose2	0.6667000000000001	0.004	No	2.685	-0.004	2.0	LatePress	-1	0.193	n/a	6	59	ButtonPress	Loss	True
564.362	0.51	Lose2	0.6667000000000001	n/a	No	2.685	n/a	n/a	LatePress	-1	n/a	n/a	6	59	Blank	Loss	True
564.863	1.45	Lose2	0.6667000000000001	n/a	No	2.685	n/a	5.0	LatePress	-1	0.036	563.899	6	59	Feedback	Loss	True
566.317	2.685	Lose2	0.6667000000000001	n/a	No	2.685	n/a	n/a	LatePress	-1	0.0	n/a	6	59	ISIslide	Loss	True
569.025	0.25	Control	0.6557	0.001	No	2.675	0.025	n/a	NoResponse	0	n/a	n/a	6	60	Cue	Neutral	True
569.276	4.0	Control	0.6557	0.0	No	2.675	0.001	n/a	NoResponse	0	n/a	n/a	6	60	Fixation	Neutral	True
573.272	0.18	Control	0.6557	0.003	No	2.675	-0.003	2.0	NoResponse	0	0.226	572.498	6	60	Target	Neutral	True
573.455	0.52	Control	0.6557	n/a	No	2.675	n/a	n/a	NoResponse	0	n/a	n/a	6	60	Blank	Neutral	True
573.498	0.3	Control	0.6557	0.003	No	2.675	-0.003	2.0	NoResponse	0	0.226	n/a	6	60	ButtonPress	Neutral	True
573.974	1.45	Control	0.6557	n/a	No	2.675	n/a	5.0	NoResponse	0	0.047	573.021	6	60	Feedback	Neutral	True
575.428	2.675	Control	0.6557	n/a	No	2.675	n/a	n/a	NoResponse	0	0.0	n/a	6	60	ISIslide	Neutral	True
578.119	0.25	Lose2	0.6452	0.0	No	2.981	0.019	n/a	NoResponse	-1	n/a	n/a	5	61	Cue	Loss	True
578.37	4.0	Lose2	0.6452	0.0	No	2.981	0.001	n/a	NoResponse	-1	n/a	n/a	5	61	Fixation	Loss	True
582.365	0.18	Lose2	0.6452	0.004	No	2.981	-0.004	2.0	NoResponse	-1	0.245	581.61	5	61	Target	Loss	True
582.549	0.52	Lose2	0.6452	n/a	No	2.981	n/a	n/a	NoResponse	-1	n/a	n/a	5	61	Blank	Loss	True
582.61	0.3	Lose2	0.6452	0.004	No	2.981	-0.004	2.0	NoResponse	-1	0.245	n/a	5	61	ButtonPress	Loss	True
583.068	1.45	Lose2	0.6452	n/a	No	2.981	n/a	5.0	NoResponse	-1	0.027	582.095	5	61	Feedback	Loss	True
584.522	2.981	Lose2	0.6452	n/a	No	2.981	n/a	n/a	NoResponse	-1	0.0	n/a	5	61	ISIslide	Loss	True
587.514	0.25	Lose2	0.6349	0.0	No	2.886	0.014	n/a	LatePress	-1	n/a	n/a	4	62	Cue	Loss	True
587.765	3.9	Lose2	0.6349	0.0	No	2.886	0.001	n/a	LatePress	-1	n/a	n/a	4	62	Fixation	Loss	True
591.66	0.19	Lose2	0.6349	0.004	No	2.886	-0.004	2.0	LatePress	-1	0.19	590.85	4	62	Target	Loss	True
591.85	0.3	Lose2	0.6349	0.004	No	2.886	-0.004	2.0	LatePress	-1	0.19	n/a	4	62	ButtonPress	Loss	True
591.861	0.51	Lose2	0.6349	n/a	No	2.886	n/a	n/a	LatePress	-1	n/a	n/a	4	62	Blank	Loss	True
592.362	1.45	Lose2	0.6349	n/a	No	2.886	n/a	5.0	LatePress	-1	0.0	591.362	4	62	Feedback	Loss	True
593.816	2.886	Lose2	0.6349	n/a	No	2.886	n/a	n/a	LatePress	-1	0.0	n/a	4	62	ISIslide	Loss	True
596.725	0.25	Lose2	0.6406000000000001	0.0	Yes	2.625	0.025	n/a	GoodResponse	0	n/a	n/a	4	63	Cue	AvoidedLoss	True
596.976	4.05	Lose2	0.6406000000000001	0.0	Yes	2.625	0.001	n/a	GoodResponse	0	n/a	n/a	4	63	Fixation	AvoidedLoss	True
601.021	0.2	Lose2	0.6406000000000001	0.004	Yes	2.625	-0.004	2.0	GoodResponse	0	0.163	600.184	4	63	Target	AvoidedLoss	True
601.184	0.3	Lose2	0.6406000000000001	0.004	Yes	2.625	-0.004	2.0	GoodResponse	0	0.163	n/a	4	63	ButtonPress	AvoidedLoss	True
601.222	0.5	Lose2	0.6406000000000001	n/a	Yes	2.625	n/a	n/a	GoodResponse	0	n/a	n/a	4	63	Blank	AvoidedLoss	True
601.723	1.45	Lose2	0.6406000000000001	n/a	Yes	2.625	n/a	5.0	GoodResponse	0	0.005	600.728	4	63	Feedback	AvoidedLoss	True
603.178	2.625	Lose2	0.6406000000000001	n/a	Yes	2.625	n/a	n/a	GoodResponse	0	0.0	n/a	4	63	ISIslide	AvoidedLoss	True
605.819	0.25	Win2	0.6462	0.0	Yes	3.131	0.019	n/a	GoodResponse	1	n/a	n/a	5	64	Cue	Win	True
606.07	4.15	Win2	0.6462	0.0	Yes	3.131	0.001	n/a	GoodResponse	1	n/a	n/a	5	64	Fixation	Win	True
610.216	0.21	Win2	0.6462	0.003	Yes	3.131	-0.003	2.0	GoodResponse	1	0.196	609.412	5	64	Target	Win	True
610.412	0.3	Win2	0.6462	0.003	Yes	3.131	-0.003	2.0	GoodResponse	1	0.196	n/a	5	64	ButtonPress	Win	True
610.433	0.49	Win2	0.6462	n/a	Yes	3.131	n/a	n/a	GoodResponse	1	n/a	n/a	5	64	Blank	Win	True
610.918	1.45	Win2	0.6462	n/a	Yes	3.131	n/a	5.0	GoodResponse	1	0.03	609.948	5	64	Feedback	Win	True
612.372	3.131	Win2	0.6462	n/a	Yes	3.131	n/a	n/a	GoodResponse	1	0.0	n/a	5	64	ISIslide	Win	True
615.515	0.25	Control	0.6515000000000001	0.0	Yes	2.785	0.015	n/a	GoodResponse	0	n/a	n/a	5	65	Cue	Neutral	False
615.766	4.0	Control	0.6515000000000001	0.0	Yes	2.785	0.001	2.0	GoodResponse	0	3.75	618.516	5	65	Fixation	Neutral	False
619.516	0.3	Control	0.6515000000000001	0.0	Yes	2.785	0.001	2.0	GoodResponse	0	3.75	n/a	5	65	ButtonPress	Neutral	False
619.761	0.22	Control	0.6515000000000001	0.004	Yes	2.785	-0.004	2.0	GoodResponse	0	0.119	618.88	5	65	Target	Neutral	False
619.88	0.3	Control	0.6515000000000001	0.004	Yes	2.785	-0.004	2.0	GoodResponse	0	0.119	n/a	5	65	ButtonPress	Neutral	False
619.995	0.48	Control	0.6515000000000001	n/a	Yes	2.785	n/a	n/a	GoodResponse	0	n/a	n/a	5	65	Blank	Neutral	False
620.463	1.45	Control	0.6515000000000001	n/a	Yes	2.785	n/a	5.0	GoodResponse	0	0.046	619.509	5	65	Feedback	Neutral	False
621.917	2.785	Control	0.6515000000000001	n/a	Yes	2.785	n/a	n/a	GoodResponse	0	0.0	n/a	5	65	ISIslide	Neutral	False
624.726	0.25	Win2	0.6418	0.0	No	2.774	0.026	n/a	NoResponse	0	n/a	n/a	5	66	Cue	MissedWin	True
624.976	3.9	Win2	0.6418	0.001	No	2.774	0.0	n/a	NoResponse	0	n/a	n/a	5	66	Fixation	MissedWin	True
628.888	0.23	Win2	0.6418	0.0	No	2.774	0.012	2.0	NoResponse	0	0.237	628.125	5	66	Target	MissedWin	True
629.106	0.47	Win2	0.6418	n/a	No	2.774	n/a	n/a	NoResponse	0	n/a	n/a	5	66	Blank	MissedWin	True
629.125	0.3	Win2	0.6418	0.0	No	2.774	0.012	2.0	NoResponse	0	0.237	n/a	5	66	ButtonPress	MissedWin	True
629.574	1.45	Win2	0.6418	n/a	No	2.774	n/a	5.0	NoResponse	0	0.008	628.582	5	66	Feedback	MissedWin	True
631.028	2.774	Win2	0.6418	n/a	No	2.774	n/a	n/a	NoResponse	0	0.0	n/a	5	66	ISIslide	MissedWin	True
633.82	0.25	Control	0.6470999999999999	0.0	Yes	2.73	0.02	n/a	GoodResponse	0	n/a	n/a	5	67	Cue	Neutral	True
634.07	3.95	Control	0.6470999999999999	0.0	Yes	2.73	0.0	n/a	GoodResponse	0	n/a	n/a	5	67	Fixation	Neutral	True
638.016	0.24	Control	0.6470999999999999	0.004	Yes	2.73	-0.004	2.0	GoodResponse	0	0.22	637.236	5	67	Target	Neutral	True
638.236	0.3	Control	0.6470999999999999	0.004	Yes	2.73	-0.004	2.0	GoodResponse	0	0.22	n/a	5	67	ButtonPress	Neutral	True
638.266	0.46	Control	0.6470999999999999	n/a	Yes	2.73	n/a	n/a	GoodResponse	0	n/a	n/a	5	67	Blank	Neutral	True
638.718	1.45	Control	0.6470999999999999	n/a	Yes	2.73	n/a	5.0	GoodResponse	0	0.035	637.753	5	67	Feedback	Neutral	True
640.172	2.73	Control	0.6470999999999999	n/a	Yes	2.73	n/a	n/a	GoodResponse	0	0.0	n/a	5	67	ISIslide	Neutral	True
642.914	0.25	Win2	0.6377	0.0	No	3.086	0.014	n/a	NoResponse	0	n/a	n/a	5	68	Cue	MissedWin	True
643.164	4.0	Win2	0.6377	0.0	No	3.086	0.0	n/a	NoResponse	0	n/a	n/a	5	68	Fixation	MissedWin	True
647.16	0.25	Win2	0.6377	0.004	No	3.086	-0.004	2.0	NoResponse	0	0.255	646.415	5	68	Target	MissedWin	True
647.41	0.45	Win2	0.6377	n/a	No	3.086	n/a	n/a	NoResponse	0	n/a	n/a	5	68	Blank	MissedWin	True
647.415	0.3	Win2	0.6377	0.004	No	3.086	-0.004	2.0	NoResponse	0	0.255	n/a	5	68	ButtonPress	MissedWin	True
647.862	1.45	Win2	0.6377	n/a	No	3.086	n/a	5.0	NoResponse	0	0.013	646.875	5	68	Feedback	MissedWin	True
649.316	3.086	Win2	0.6377	n/a	No	3.086	n/a	n/a	NoResponse	0	0.0	n/a	5	68	ISIslide	MissedWin	True
652.425	0.25	Win2	0.6429	0.0	Yes	3.225	0.025	n/a	GoodResponse	1	n/a	n/a	6	69	Cue	Win	True
652.676	3.95	Win2	0.6429	0.0	Yes	3.225	0.001	n/a	GoodResponse	1	n/a	n/a	6	69	Fixation	Win	True
656.621	0.26	Win2	0.6429	0.004	Yes	3.225	-0.004	2.0	GoodResponse	1	0.21	655.831	6	69	Target	Win	True
656.831	0.3	Win2	0.6429	0.004	Yes	3.225	-0.004	2.0	GoodResponse	1	0.21	n/a	6	69	ButtonPress	Win	True
656.889	0.44	Win2	0.6429	n/a	Yes	3.225	n/a	n/a	GoodResponse	1	n/a	n/a	6	69	Blank	Win	True
657.323	1.45	Win2	0.6429	n/a	Yes	3.225	n/a	5.0	GoodResponse	1	0.014	656.337	6	69	Feedback	Win	True
658.778	3.225	Win2	0.6429	n/a	Yes	3.225	n/a	n/a	GoodResponse	1	0.0	n/a	6	69	ISIslide	Win	True
662.021	0.25	Lose2	0.6479	0.0	Yes	3.029	0.021	n/a	GoodResponse	0	n/a	n/a	6	70	Cue	AvoidedLoss	True
662.272	4.05	Lose2	0.6479	0.0	Yes	3.029	0.001	n/a	GoodResponse	0	n/a	n/a	6	70	Fixation	AvoidedLoss	True
666.317	0.27	Lose2	0.6479	0.004	Yes	3.029	-0.004	2.0	GoodResponse	0	0.228	665.545	6	70	Target	AvoidedLoss	True
666.545	0.3	Lose2	0.6479	0.004	Yes	3.029	-0.004	2.0	GoodResponse	0	0.228	n/a	6	70	ButtonPress	AvoidedLoss	True
666.601	0.43	Lose2	0.6479	n/a	Yes	3.029	n/a	n/a	GoodResponse	0	n/a	n/a	6	70	Blank	AvoidedLoss	True
667.019	1.45	Lose2	0.6479	n/a	Yes	3.029	n/a	5.0	GoodResponse	0	0.026	666.045	6	70	Feedback	AvoidedLoss	True
668.473	3.029	Lose2	0.6479	n/a	Yes	3.029	n/a	n/a	GoodResponse	0	0.0	n/a	6	70	ISIslide	AvoidedLoss	True
671.516	0.25	Win2	0.6528	0.0	Yes	2.734	0.016	n/a	GoodResponse	1	n/a	n/a	7	71	Cue	Win	True
671.767	4.05	Win2	0.6528	0.0	Yes	2.734	0.001	n/a	GoodResponse	1	n/a	n/a	7	71	Fixation	Win	True
675.812	0.28	Win2	0.6528	0.004	Yes	2.734	-0.004	2.0	GoodResponse	1	0.179	674.991	7	71	Target	Win	True
675.991	0.3	Win2	0.6528	0.004	Yes	2.734	-0.004	2.0	GoodResponse	1	0.179	n/a	7	71	ButtonPress	Win	True
676.096	0.42	Win2	0.6528	n/a	Yes	2.734	n/a	n/a	GoodResponse	1	n/a	n/a	7	71	Blank	Win	True
676.514	1.45	Win2	0.6528	n/a	Yes	2.734	n/a	5.0	GoodResponse	1	0.043	675.557	7	71	Feedback	Win	True
677.969	2.734	Win2	0.6528	n/a	Yes	2.734	n/a	n/a	GoodResponse	1	0.0	n/a	7	71	ISIslide	Win	True
680.727	0.25	Win2	0.6575	0.0	Yes	2.773	0.027	n/a	GoodResponse	1	n/a	n/a	8	72	Cue	Win	False
680.978	4.1	Win2	0.6575	0.0	Yes	2.773	0.001	2.0	GoodResponse	1	3.974	683.952	8	72	Fixation	Win	False
684.952	0.3	Win2	0.6575	0.0	Yes	2.773	0.001	2.0	GoodResponse	1	3.974	n/a	8	72	ButtonPress	Win	False
685.073	0.29	Win2	0.6575	0.004	Yes	2.773	-0.004	2.0	GoodResponse	1	0.198	684.271	8	72	Target	Win	False
685.271	0.3	Win2	0.6575	0.004	Yes	2.773	-0.004	2.0	GoodResponse	1	0.198	n/a	8	72	ButtonPress	Win	False
685.374	0.41	Win2	0.6575	n/a	Yes	2.773	n/a	n/a	GoodResponse	1	n/a	n/a	8	72	Blank	Win	False
685.775	1.45	Win2	0.6575	n/a	Yes	2.773	n/a	5.0	GoodResponse	1	0.002	684.777	8	72	Feedback	Win	False
687.23	2.773	Win2	0.6575	n/a	Yes	2.773	n/a	n/a	GoodResponse	1	0.0	n/a	8	72	ISIslide	Win	False
690.021	0.25	Win2	0.6622	0.0	Yes	2.679	0.021	n/a	GoodResponse	1	n/a	n/a	9	73	Cue	Win	False
690.272	4.0	Win2	0.6622	0.0	Yes	2.679	0.001	2.0	GoodResponse	1	3.358	692.63	9	73	Fixation	Win	False
693.63	0.3	Win2	0.6622	0.0	Yes	2.679	0.001	2.0	GoodResponse	1	3.358	n/a	9	73	ButtonPress	Win	False
694.267	0.29	Win2	0.6622	0.004	Yes	2.679	-0.004	2.0	GoodResponse	1	0.206	693.473	9	73	Target	Win	False
694.473	0.3	Win2	0.6622	0.004	Yes	2.679	-0.004	2.0	GoodResponse	1	0.206	n/a	9	73	ButtonPress	Win	False
694.568	0.41	Win2	0.6622	n/a	Yes	2.679	n/a	n/a	GoodResponse	1	n/a	n/a	9	73	Blank	Win	False
694.97	1.45	Win2	0.6622	n/a	Yes	2.679	n/a	5.0	GoodResponse	1	0.026	693.996	9	73	Feedback	Win	False
696.424	2.679	Win2	0.6622	n/a	Yes	2.679	n/a	n/a	GoodResponse	1	0.0	n/a	9	73	ISIslide	Win	False
699.115	0.25	Lose2	0.6667000000000001	0.0	Yes	2.635	0.015	n/a	GoodResponse	0	n/a	n/a	9	74	Cue	AvoidedLoss	True
699.366	4.05	Lose2	0.6667000000000001	0.0	Yes	2.635	0.001	n/a	GoodResponse	0	n/a	n/a	9	74	Fixation	AvoidedLoss	True
703.411	0.29	Lose2	0.6667000000000001	0.004	Yes	2.635	-0.004	2.0	GoodResponse	0	0.208	702.619	9	74	Target	AvoidedLoss	True
703.619	0.3	Lose2	0.6667000000000001	0.004	Yes	2.635	-0.004	2.0	GoodResponse	0	0.208	n/a	9	74	ButtonPress	AvoidedLoss	True
703.712	0.41	Lose2	0.6667000000000001	n/a	Yes	2.635	n/a	n/a	GoodResponse	0	n/a	n/a	9	74	Blank	AvoidedLoss	True
704.114	1.45	Lose2	0.6667000000000001	n/a	Yes	2.635	n/a	5.0	GoodResponse	0	0.004	703.118	9	74	Feedback	AvoidedLoss	True
705.568	2.635	Lose2	0.6667000000000001	n/a	Yes	2.635	n/a	n/a	GoodResponse	0	0.0	n/a	9	74	ISIslide	AvoidedLoss	True
708.226	0.25	Lose2	0.6711	0.0	Yes	2.924	0.026	n/a	GoodResponse	0	n/a	n/a	9	75	Cue	AvoidedLoss	True
708.477	3.95	Lose2	0.6711	0.0	Yes	2.924	0.001	n/a	GoodResponse	0	n/a	n/a	9	75	Fixation	AvoidedLoss	True
712.422	0.28	Lose2	0.6711	0.004	Yes	2.924	-0.004	2.0	GoodResponse	0	0.242	711.664	9	75	Target	AvoidedLoss	True
712.664	0.3	Lose2	0.6711	0.004	Yes	2.924	-0.004	2.0	GoodResponse	0	0.242	n/a	9	75	ButtonPress	AvoidedLoss	True
712.706	0.42	Lose2	0.6711	n/a	Yes	2.924	n/a	n/a	GoodResponse	0	n/a	n/a	9	75	Blank	AvoidedLoss	True
713.124	1.45	Lose2	0.6711	n/a	Yes	2.924	n/a	5.0	GoodResponse	0	0.018	712.142	9	75	Feedback	AvoidedLoss	True
714.578	2.924	Lose2	0.6711	n/a	Yes	2.924	n/a	n/a	GoodResponse	0	0.0	n/a	9	75	ISIslide	AvoidedLoss	True
717.52	0.25	Control	0.6753	0.0	Yes	3.23	0.02	n/a	GoodResponse	0	n/a	n/a	9	76	Cue	Neutral	True
717.771	4.05	Control	0.6753	0.0	Yes	3.23	0.001	n/a	GoodResponse	0	n/a	n/a	9	76	Fixation	Neutral	True
721.817	0.27	Control	0.6753	0.003	Yes	3.23	-0.003	2.0	GoodResponse	0	0.231	721.048	9	76	Target	Neutral	True
722.048	0.3	Control	0.6753	0.003	Yes	3.23	-0.003	2.0	GoodResponse	0	0.231	n/a	9	76	ButtonPress	Neutral	True
722.101	0.43	Control	0.6753	n/a	Yes	3.23	n/a	n/a	GoodResponse	0	n/a	n/a	9	76	Blank	Neutral	True
722.519	1.45	Control	0.6753	n/a	Yes	3.23	n/a	5.0	GoodResponse	0	0.038	721.557	9	76	Feedback	Neutral	True
723.973	3.23	Control	0.6753	n/a	Yes	3.23	n/a	n/a	GoodResponse	0	0.0	n/a	9	76	ISIslide	Neutral	True
727.216	0.25	Lose2	0.6795	0.0	Yes	2.584	0.016	n/a	GoodResponse	0	n/a	n/a	9	77	Cue	AvoidedLoss	True
727.467	3.95	Lose2	0.6795	0.0	Yes	2.584	0.001	n/a	GoodResponse	0	n/a	n/a	9	77	Fixation	AvoidedLoss	True
731.412	0.26	Lose2	0.6795	0.004	Yes	2.584	-0.004	2.0	GoodResponse	0	0.229	730.641	9	77	Target	AvoidedLoss	True
731.641	0.3	Lose2	0.6795	0.004	Yes	2.584	-0.004	2.0	GoodResponse	0	0.229	n/a	9	77	ButtonPress	AvoidedLoss	True
731.68	0.44	Lose2	0.6795	n/a	Yes	2.584	n/a	n/a	GoodResponse	0	n/a	n/a	9	77	Blank	AvoidedLoss	True
732.114	1.45	Lose2	0.6795	n/a	Yes	2.584	n/a	5.0	GoodResponse	0	0.005	731.119	9	77	Feedback	AvoidedLoss	True
733.569	2.584	Lose2	0.6795	n/a	Yes	2.584	n/a	n/a	GoodResponse	0	0.0	n/a	9	77	ISIslide	AvoidedLoss	True
