onset	duration	cue_type	current_mean_accuracy	duration_error	is_hit	isi_adjusted	onset_delay	response	response_type	reward	rt	rt_time	total_reward	trial_number	trial_phase	trial_type	one_press
11.106	0.25	Control	1.0	0.0	Yes	2.944	0.006	n/a	GoodResponse	0	n/a	n/a	0	0	Cue	Neutral	True
11.356	3.85	Control	1.0	0.0	Yes	2.944	0.0	n/a	GoodResponse	0	n/a	n/a	0	0	Fixation	Neutral	True
15.204	0.4	Control	1.0	0.002	Yes	2.944	-0.002	4.0	GoodResponse	0	0.209	14.413	0	0	Target	Neutral	True
15.413	0.3	Control	1.0	0.002	Yes	2.944	-0.002	4.0	GoodResponse	0	0.209	n/a	0	0	ButtonPress	Neutral	True
15.604	0.3	Control	1.0	n/a	Yes	2.944	n/a	n/a	GoodResponse	0	n/a	n/a	0	0	Blank	Neutral	True
15.904	1.45	Control	1.0	n/a	Yes	2.944	n/a	5.0	GoodResponse	0	0.022	14.926	0	0	Feedback	Neutral	True
17.354	2.944	Control	1.0	n/a	Yes	2.944	n/a	n/a	GoodResponse	0	0.0	n/a	0	0	ISIslide	Neutral	True
20.319	0.25	Lose2	1.0	0.0	Yes	2.781	0.019	n/a	GoodResponse	0	n/a	n/a	0	1	Cue	AvoidedLoss	True
20.569	4.0	Lose2	1.0	0.0	Yes	2.781	0.0	n/a	GoodResponse	0	n/a	n/a	0	1	Fixation	AvoidedLoss	True
24.568	0.39	Lose2	1.0	0.001	Yes	2.781	-0.001	4.0	GoodResponse	0	0.219	23.787	0	1	Target	AvoidedLoss	True
24.787	0.3	Lose2	1.0	0.001	Yes	2.781	-0.001	4.0	GoodResponse	0	0.219	n/a	0	1	ButtonPress	AvoidedLoss	True
24.968	0.31	Lose2	1.0	n/a	Yes	2.781	n/a	n/a	GoodResponse	0	n/a	n/a	0	1	Blank	AvoidedLoss	True
25.267	1.45	Lose2	1.0	n/a	Yes	2.781	n/a	5.0	GoodResponse	0	0.025	24.292	0	1	Feedback	AvoidedLoss	True
26.717	2.781	Lose2	1.0	n/a	Yes	2.781	n/a	n/a	GoodResponse	0	0.0	n/a	0	1	ISIslide	AvoidedLoss	True
29.516	0.25	Control	1.0	0.0	Yes	2.584	0.016	n/a	GoodResponse	0	n/a	n/a	0	2	Cue	Neutral	True
29.766	4.1	Control	1.0	0.0	Yes	2.584	0.0	n/a	GoodResponse	0	n/a	n/a	0	2	Fixation	Neutral	True
33.864	0.38	Control	1.0	0.002	Yes	2.584	-0.002	4.0	GoodResponse	0	0.203	33.067	0	2	Target	Neutral	True
34.067	0.3	Control	1.0	0.002	Yes	2.584	-0.002	4.0	GoodResponse	0	0.203	n/a	0	2	ButtonPress	Neutral	True
34.248	0.32	Control	1.0	n/a	Yes	2.584	n/a	n/a	GoodResponse	0	n/a	n/a	0	2	Blank	Neutral	True
34.564	1.45	Control	1.0	n/a	Yes	2.584	n/a	5.0	GoodResponse	0	0.045	33.609	0	2	Feedback	Neutral	True
36.014	2.584	Control	1.0	n/a	Yes	2.584	n/a	n/a	GoodResponse	0	0.0	n/a	0	2	ISIslide	Neutral	True
38.613	0.25	Win2	1.0	0.0	Yes	2.837	0.013	n/a	GoodResponse	1	n/a	n/a	1	3	Cue	Win	True
38.863	3.95	Win2	1.0	0.0	Yes	2.837	0.0	n/a	GoodResponse	1	n/a	n/a	1	3	Fixation	Win	True
42.811	0.37	Win2	1.0	0.002	Yes	2.837	-0.002	4.0	GoodResponse	1	0.23	42.041	1	3	Target	Win	True
43.041	0.3	Win2	1.0	0.002	Yes	2.837	-0.002	4.0	GoodResponse	1	0.23	n/a	1	3	ButtonPress	Win	True
43.195	0.33	Win2	1.0	n/a	Yes	2.837	n/a	n/a	GoodResponse	1	n/a	n/a	1	3	Blank	Win	True
43.511	1.45	Win2	1.0	n/a	Yes	2.837	n/a	5.0	GoodResponse	1	0.024	42.535	1	3	Feedback	Win	True
44.961	2.837	Win2	1.0	n/a	Yes	2.837	n/a	n/a	GoodResponse	1	0.0	n/a	1	3	ISIslide	Win	True
47.826	0.25	Win2	1.0	0.0	Yes	3.274	0.026	n/a	GoodResponse	1	n/a	n/a	2	4	Cue	Win	True
48.076	4.0	Win2	1.0	0.0	Yes	3.274	0.0	n/a	GoodResponse	1	n/a	n/a	2	4	Fixation	Win	True
52.075	0.36	Win2	1.0	0.001	Yes	3.274	-0.001	4.0	GoodResponse	1	0.213	51.288	2	4	Target	Win	True
52.288	0.3	Win2	1.0	0.001	Yes	3.274	-0.001	4.0	GoodResponse	1	0.213	n/a	2	4	ButtonPress	Win	True
52.441	0.34	Win2	1.0	n/a	Yes	3.274	n/a	n/a	GoodResponse	1	n/a	n/a	2	4	Blank	Win	True
52.775	1.45	Win2	1.0	n/a	Yes	3.274	n/a	5.0	GoodResponse	1	0.029	51.804	2	4	Feedback	Win	True
54.224	3.274	Win2	1.0	n/a	Yes	3.274	n/a	n/a	GoodResponse	1	0.0	n/a	2	4	ISIslide	Win	True
57.523	0.25	Win2	1.0	0.0	Yes	2.777	0.023	n/a	GoodResponse	1	n/a	n/a	3	5	Cue	Win	True
57.773	4.0	Win2	1.0	0.0	Yes	2.777	0.0	n/a	GoodResponse	1	n/a	n/a	3	5	Fixation	Win	True
61.771	0.35	Win2	1.0	0.002	Yes	2.777	-0.002	4.0	GoodResponse	1	0.205	60.976	3	5	Target	Win	True
61.976	0.3	Win2	1.0	0.002	Yes	2.777	-0.002	4.0	GoodResponse	1	0.205	n/a	3	5	ButtonPress	Win	True
62.121	0.35	Win2	1.0	n/a	Yes	2.777	n/a	n/a	GoodResponse	1	n/a	n/a	3	5	Blank	Win	True
62.471	1.45	Win2	1.0	n/a	Yes	2.777	n/a	5.0	GoodResponse	1	0.04	61.511	3	5	Feedback	Win	True
63.921	2.777	Win2	1.0	n/a	Yes	2.777	n/a	n/a	GoodResponse	1	0.0	n/a	3	5	ISIslide	Win	True
66.72	0.25	Lose2	1.0	0.0	Yes	2.73	0.02	n/a	GoodResponse	0	n/a	n/a	3	6	Cue	AvoidedLoss	True
66.97	3.95	Lose2	1.0	0.0	Yes	2.73	0.0	n/a	GoodResponse	0	n/a	n/a	3	6	Fixation	AvoidedLoss	True
70.918	0.34	Lose2	1.0	0.002	Yes	2.73	-0.002	4.0	GoodResponse	0	0.22	70.138	3	6	Target	AvoidedLoss	True
71.138	0.3	Lose2	1.0	0.002	Yes	2.73	-0.002	4.0	GoodResponse	0	0.22	n/a	3	6	ButtonPress	AvoidedLoss	True
71.268	0.36	Lose2	1.0	n/a	Yes	2.73	n/a	n/a	GoodResponse	0	n/a	n/a	3	6	Blank	AvoidedLoss	True
71.618	1.45	Lose2	1.0	n/a	Yes	2.73	n/a	5.0	GoodResponse	0	0.015	70.633	3	6	Feedback	AvoidedLoss	True
73.067	2.73	Lose2	1.0	n/a	Yes	2.73	n/a	n/a	GoodResponse	0	0.0	n/a	3	6	ISIslide	AvoidedLoss	True
75.817	0.25	Lose2	1.0	0.0	Yes	4.033	0.017	n/a	GoodResponse	0	n/a	n/a	3	7	Cue	AvoidedLoss	True
76.066	4.05	Lose2	1.0	0.001	Yes	4.033	-0.001	n/a	GoodResponse	0	n/a	n/a	3	7	Fixation	AvoidedLoss	True
80.115	0.33	Lose2	1.0	0.002	Yes	4.033	-0.002	4.0	GoodResponse	0	0.203	79.318	3	7	Target	AvoidedLoss	True
80.318	0.3	Lose2	1.0	0.002	Yes	4.033	-0.002	4.0	GoodResponse	0	0.203	n/a	3	7	ButtonPress	AvoidedLoss	True
80.448	0.37	Lose2	1.0	n/a	Yes	4.033	n/a	n/a	GoodResponse	0	n/a	n/a	3	7	Blank	AvoidedLoss	True
80.815	1.45	Lose2	1.0	n/a	Yes	4.033	n/a	5.0	GoodResponse	0	0.037	79.852	3	7	Feedback	AvoidedLoss	True
82.264	4.033	Lose2	1.0	n/a	Yes	4.033	n/a	n/a	GoodResponse	0	0.0	n/a	3	7	ISIslide	AvoidedLoss	True
86.313	0.25	Lose2	1.0	0.0	Yes	3.037	0.013	n/a	GoodResponse	0	n/a	n/a	3	8	Cue	AvoidedLoss	True
86.563	3.95	Lose2	1.0	0.0	Yes	3.037	0.0	n/a	GoodResponse	0	n/a	n/a	3	8	Fixation	AvoidedLoss	True
90.511	0.32	Lose2	1.0	0.002	Yes	3.037	-0.002	4.0	GoodResponse	0	0.205	89.716	3	8	Target	AvoidedLoss	True
90.716	0.3	Lose2	1.0	0.002	Yes	3.037	-0.002	4.0	GoodResponse	0	0.205	n/a	3	8	ButtonPress	AvoidedLoss	True
90.845	0.38	Lose2	1.0	n/a	Yes	3.037	n/a	n/a	GoodResponse	0	n/a	n/a	3	8	Blank	AvoidedLoss	True
91.211	1.45	Lose2	1.0	n/a	Yes	3.037	n/a	5.0	GoodResponse	0	0.031	90.242	3	8	Feedback	AvoidedLoss	True
92.661	3.037	Lose2	1.0	n/a	Yes	3.037	n/a	n/a	GoodResponse	0	0.0	n/a	3	8	ISIslide	AvoidedLoss	True
95.726	0.25	Lose2	1.0	0.0	Yes	3.124	0.026	n/a	GoodResponse	0	n/a	n/a	3	9	Cue	AvoidedLoss	True
95.976	3.95	Lose2	1.0	0.0	Yes	3.124	0.0	n/a	GoodResponse	0	n/a	n/a	3	9	Fixation	AvoidedLoss	True
99.925	0.31	Lose2	1.0	0.001	Yes	3.124	-0.001	4.0	GoodResponse	0	0.2	99.125	3	9	Target	AvoidedLoss	True
100.125	0.3	Lose2	1.0	0.001	Yes	3.124	-0.001	4.0	GoodResponse	0	0.2	n/a	3	9	ButtonPress	AvoidedLoss	True
100.241	0.39	Lose2	1.0	n/a	Yes	3.124	n/a	n/a	GoodResponse	0	n/a	n/a	3	9	Blank	AvoidedLoss	True
100.625	1.45	Lose2	1.0	n/a	Yes	3.124	n/a	5.0	GoodResponse	0	0.032	99.657	3	9	Feedback	AvoidedLoss	True
102.074	3.124	Lose2	1.0	n/a	Yes	3.124	n/a	n/a	GoodResponse	0	0.0	n/a	3	9	ISIslide	AvoidedLoss	True
105.223	0.25	Control	1.0	0.0	Yes	3.277	0.023	n/a	GoodResponse	0	n/a	n/a	3	10	Cue	Neutral	True
105.473	4.0	Control	1.0	0.0	Yes	3.277	0.0	n/a	GoodResponse	0	n/a	n/a	3	10	Fixation	Neutral	True
109.471	0.3	Control	1.0	0.002	Yes	3.277	-0.002	4.0	GoodResponse	0	0.218	108.689	3	10	Target	Neutral	True
109.689	0.3	Control	1.0	0.002	Yes	3.277	-0.002	4.0	GoodResponse	0	0.218	n/a	3	10	ButtonPress	Neutral	True
109.771	0.4	Control	1.0	n/a	Yes	3.277	n/a	n/a	GoodResponse	0	n/a	n/a	3	10	Blank	Neutral	True
110.171	1.45	Control	1.0	n/a	Yes	3.277	n/a	5.0	GoodResponse	0	0.047	109.218	3	10	Feedback	Neutral	True
111.621	3.277	Control	1.0	n/a	Yes	3.277	n/a	n/a	GoodResponse	0	0.0	n/a	3	10	ISIslide	Neutral	True
114.92	0.25	Lose2	1.0	0.0	Yes	2.73	0.02	n/a	GoodResponse	0	n/a	n/a	3	11	Cue	AvoidedLoss	True
115.169	4.05	Lose2	1.0	0.001	Yes	2.73	-0.001	n/a	GoodResponse	0	n/a	n/a	3	11	Fixation	AvoidedLoss	True
119.218	0.29	Lose2	1.0	0.002	Yes	2.73	-0.002	4.0	GoodResponse	0	0.207	118.425	3	11	Target	AvoidedLoss	True
119.425	0.3	Lose2	1.0	0.002	Yes	2.73	-0.002	4.0	GoodResponse	0	0.207	n/a	3	11	ButtonPress	AvoidedLoss	True
119.518	0.41	Lose2	1.0	n/a	Yes	2.73	n/a	n/a	GoodResponse	0	n/a	n/a	3	11	Blank	AvoidedLoss	True
119.918	1.45	Lose2	1.0	n/a	Yes	2.73	n/a	5.0	GoodResponse	0	0.008	118.926	3	11	Feedback	AvoidedLoss	True
121.367	2.73	Lose2	1.0	n/a	Yes	2.73	n/a	n/a	GoodResponse	0	0.0	n/a	3	11	ISIslide	AvoidedLoss	True
124.116	0.25	Control	0.9231	0.0	No	2.984	0.016	n/a	NoResponse	0	n/a	n/a	3	12	Cue	Neutral	False
124.366	3.9	Control	0.9231	0.0	No	2.984	0.0	n/a	NoResponse	0	n/a	n/a	3	12	Fixation	Neutral	False
128.265	0.28	Control	0.9231	0.001	No	2.984	-0.001	n/a	NoResponse	0	n/a	n/a	3	12	Target	Neutral	False
128.548	0.42	Control	0.9231	n/a	No	2.984	n/a	n/a	NoResponse	0	n/a	n/a	3	12	Blank	Neutral	False
128.965	1.45	Control	0.9231	n/a	No	2.984	n/a	5.0	NoResponse	0	0.033	127.998	3	12	Feedback	Neutral	False
130.414	2.984	Control	0.9231	n/a	No	2.984	n/a	n/a	NoResponse	0	0.0	n/a	3	12	ISIslide	Neutral	False
133.413	0.25	Control	0.8571	0.0	No	2.787	0.013	n/a	NoResponse	0	n/a	n/a	3	13	Cue	Neutral	False
133.663	4.0	Control	0.8571	0.0	No	2.787	0.0	n/a	NoResponse	0	n/a	n/a	3	13	Fixation	Neutral	False
137.662	0.27	Control	0.8571	0.001	No	2.787	-0.001	n/a	NoResponse	0	n/a	n/a	3	13	Target	Neutral	False
137.945	0.43	Control	0.8571	n/a	No	2.787	n/a	n/a	NoResponse	0	n/a	n/a	3	13	Blank	Neutral	False
138.361	1.45	Control	0.8571	n/a	No	2.787	n/a	5.0	NoResponse	0	0.005	137.366	3	13	Feedback	Neutral	False
139.811	2.787	Control	0.8571	n/a	No	2.787	n/a	n/a	NoResponse	0	0.0	n/a	3	13	ISIslide	Neutral	False
142.627	0.25	Win2	0.8667	0.0	Yes	2.673	0.027	n/a	GoodResponse	1	n/a	n/a	4	14	Cue	Win	True
142.876	4.1	Win2	0.8667	0.001	Yes	2.673	-0.001	n/a	GoodResponse	1	n/a	n/a	4	14	Fixation	Win	True
146.975	0.26	Win2	0.8667	0.002	Yes	2.673	-0.002	4.0	GoodResponse	1	0.188	146.163	4	14	Target	Win	True
147.163	0.3	Win2	0.8667	0.002	Yes	2.673	-0.002	4.0	GoodResponse	1	0.188	n/a	4	14	ButtonPress	Win	True
147.242	0.44	Win2	0.8667	n/a	Yes	2.673	n/a	n/a	GoodResponse	1	n/a	n/a	4	14	Blank	Win	True
147.675	1.45	Win2	0.8667	n/a	Yes	2.673	n/a	5.0	GoodResponse	1	0.006	146.681	4	14	Feedback	Win	True
149.124	2.673	Win2	0.8667	n/a	Yes	2.673	n/a	n/a	GoodResponse	1	0.0	n/a	4	14	ISIslide	Win	True
151.823	0.25	Control	0.8125	0.0	No	2.977	0.023	n/a	NoResponse	0	n/a	n/a	4	15	Cue	Neutral	False
152.073	4.0	Control	0.8125	0.0	No	2.977	0.0	n/a	NoResponse	0	n/a	n/a	4	15	Fixation	Neutral	False
156.072	0.25	Control	0.8125	0.001	No	2.977	-0.001	n/a	NoResponse	0	n/a	n/a	4	15	Target	Neutral	False
156.322	0.45	Control	0.8125	n/a	No	2.977	n/a	n/a	NoResponse	0	n/a	n/a	4	15	Blank	Neutral	False
156.772	1.45	Control	0.8125	n/a	No	2.977	n/a	5.0	NoResponse	0	0.031	155.803	4	15	Feedback	Neutral	False
158.221	2.977	Control	0.8125	n/a	No	2.977	n/a	n/a	NoResponse	0	0.0	n/a	4	15	ISIslide	Neutral	False
161.22	0.25	Win2	0.8234999999999999	0.0	Yes	2.88	0.02	n/a	GoodResponse	1	n/a	n/a	5	16	Cue	Win	True
161.47	4.0	Win2	0.8234999999999999	0.0	Yes	2.88	0.0	n/a	GoodResponse	1	n/a	n/a	5	16	Fixation	Win	True
165.469	0.24	Win2	0.8234999999999999	0.001	Yes	2.88	-0.001	4.0	GoodResponse	1	0.185	164.654	5	16	Target	Win	True
165.654	0.3	Win2	0.8234999999999999	0.001	Yes	2.88	-0.001	4.0	GoodResponse	1	0.185	n/a	5	16	ButtonPress	Win	True
165.718	0.46	Win2	0.8234999999999999	n/a	Yes	2.88	n/a	n/a	GoodResponse	1	n/a	n/a	5	16	Blank	Win	True
166.168	1.45	Win2	0.8234999999999999	n/a	Yes	2.88	n/a	5.0	GoodResponse	1	0.001	165.169	5	16	Feedback	Win	True
167.618	2.88	Win2	0.8234999999999999	n/a	Yes	2.88	n/a	n/a	GoodResponse	1	0.0	n/a	5	16	ISIslide	Win	True
170.517	0.25	Lose2	0.8332999999999999	0.0	Yes	2.733	0.017	n/a	GoodResponse	0	n/a	n/a	5	17	Cue	AvoidedLoss	True
170.767	3.95	Lose2	0.8332999999999999	0.0	Yes	2.733	0.0	n/a	GoodResponse	0	n/a	n/a	5	17	Fixation	AvoidedLoss	True
174.715	0.23	Lose2	0.8332999999999999	0.002	Yes	2.733	-0.002	4.0	GoodResponse	0	0.182	173.897	5	17	Target	AvoidedLoss	True
174.897	0.3	Lose2	0.8332999999999999	0.002	Yes	2.733	-0.002	4.0	GoodResponse	0	0.182	n/a	5	17	ButtonPress	AvoidedLoss	True
174.949	0.47	Lose2	0.8332999999999999	n/a	Yes	2.733	n/a	n/a	GoodResponse	0	n/a	n/a	5	17	Blank	AvoidedLoss	True
175.415	1.45	Lose2	0.8332999999999999	n/a	Yes	2.733	n/a	5.0	GoodResponse	0	0.023	174.438	5	17	Feedback	AvoidedLoss	True
176.865	2.733	Lose2	0.8332999999999999	n/a	Yes	2.733	n/a	n/a	GoodResponse	0	0.0	n/a	5	17	ISIslide	AvoidedLoss	True
179.614	0.25	Lose2	0.8421	0.0	Yes	2.736	0.014	n/a	GoodResponse	0	n/a	n/a	5	18	Cue	AvoidedLoss	True
179.864	4.05	Lose2	0.8421	0.0	Yes	2.736	0.0	n/a	GoodResponse	0	n/a	n/a	5	18	Fixation	AvoidedLoss	True
183.912	0.22	Lose2	0.8421	0.002	Yes	2.736	-0.002	4.0	GoodResponse	0	0.184	183.096	5	18	Target	AvoidedLoss	True
184.096	0.3	Lose2	0.8421	0.002	Yes	2.736	-0.002	4.0	GoodResponse	0	0.184	n/a	5	18	ButtonPress	AvoidedLoss	True
184.145	0.48	Lose2	0.8421	n/a	Yes	2.736	n/a	n/a	GoodResponse	0	n/a	n/a	5	18	Blank	AvoidedLoss	True
184.612	1.45	Lose2	0.8421	n/a	Yes	2.736	n/a	5.0	GoodResponse	0	0.044	183.656	5	18	Feedback	AvoidedLoss	True
186.061	2.736	Lose2	0.8421	n/a	Yes	2.736	n/a	n/a	GoodResponse	0	0.0	n/a	5	18	ISIslide	AvoidedLoss	True
188.827	0.25	Control	0.8	0.0	No	2.923	0.027	n/a	NoResponse	0	n/a	n/a	5	19	Cue	Neutral	False
189.077	3.95	Control	0.8	0.0	No	2.923	0.0	n/a	NoResponse	0	n/a	n/a	5	19	Fixation	Neutral	False
193.026	0.21	Control	0.8	0.001	No	2.923	-0.001	n/a	NoResponse	0	n/a	n/a	5	19	Target	Neutral	False
193.242	0.49	Control	0.8	n/a	No	2.923	n/a	n/a	NoResponse	0	n/a	n/a	5	19	Blank	Neutral	False
193.725	1.45	Control	0.8	n/a	No	2.923	n/a	5.0	NoResponse	0	0.005	192.73	5	19	Feedback	Neutral	False
195.175	2.923	Control	0.8	n/a	No	2.923	n/a	n/a	NoResponse	0	0.0	n/a	5	19	ISIslide	Neutral	False
198.124	0.25	Control	0.7619	0.0	No	2.626	0.024	n/a	NoResponse	0	n/a	n/a	5	20	Cue	Neutral	False
198.374	4.05	Control	0.7619	0.0	No	2.626	0.0	n/a	NoResponse	0	n/a	n/a	5	20	Fixation	Neutral	False
202.422	0.2	Control	0.7619	0.002	No	2.626	-0.002	n/a	NoResponse	0	n/a	n/a	5	20	Target	Neutral	False
202.622	0.5	Control	0.7619	n/a	No	2.626	n/a	n/a	NoResponse	0	n/a	n/a	5	20	Blank	Neutral	False
203.122	1.45	Control	0.7619	n/a	No	2.626	n/a	5.0	NoResponse	0	0.022	202.144	5	20	Feedback	Neutral	False
204.572	2.626	Control	0.7619	n/a	No	2.626	n/a	n/a	NoResponse	0	0.0	n/a	5	20	ISIslide	Neutral	False
207.221	0.25	Control	0.7273000000000001	0.0	No	2.779	0.021	n/a	NoResponse	0	n/a	n/a	5	21	Cue	Neutral	True
207.471	4.1	Control	0.7273000000000001	0.0	No	2.779	0.0	4.0	NoResponse	0	3.668	210.139	5	21	Fixation	Neutral	True
211.139	0.3	Control	0.7273000000000001	0.0	No	2.779	0.0	4.0	NoResponse	0	3.668	n/a	5	21	ButtonPress	Neutral	True
211.569	0.19	Control	0.7273000000000001	0.002	No	2.779	-0.002	n/a	NoResponse	0	n/a	n/a	5	21	Target	Neutral	True
211.769	0.51	Control	0.7273000000000001	n/a	No	2.779	n/a	n/a	NoResponse	0	n/a	n/a	5	21	Blank	Neutral	True
212.269	1.45	Control	0.7273000000000001	n/a	No	2.779	n/a	5.0	NoResponse	0	0.046	211.315	5	21	Feedback	Neutral	True
213.718	2.779	Control	0.7273000000000001	n/a	No	2.779	n/a	n/a	NoResponse	0	0.0	n/a	5	21	ISIslide	Neutral	True
216.517	0.25	Control	0.6957	0.001	No	2.783	0.017	n/a	NoResponse	0	n/a	n/a	5	22	Cue	Neutral	False
216.767	4.0	Control	0.6957	0.0	No	2.783	0.0	n/a	NoResponse	0	n/a	n/a	5	22	Fixation	Neutral	False
220.766	0.18	Control	0.6957	0.001	No	2.783	-0.001	n/a	NoResponse	0	n/a	n/a	5	22	Target	Neutral	False
220.949	0.52	Control	0.6957	n/a	No	2.783	n/a	n/a	NoResponse	0	n/a	n/a	5	22	Blank	Neutral	False
221.466	1.45	Control	0.6957	n/a	No	2.783	n/a	5.0	NoResponse	0	0.02	220.486	5	22	Feedback	Neutral	False
222.915	2.783	Control	0.6957	n/a	No	2.783	n/a	n/a	NoResponse	0	0.0	n/a	5	22	ISIslide	Neutral	False
225.714	0.25	Control	0.6667000000000001	0.0	No	2.786	0.014	n/a	NoResponse	0	n/a	n/a	5	23	Cue	Neutral	True
225.964	3.9	Control	0.6667000000000001	0.0	No	2.786	0.0	4.0	NoResponse	0	3.881	228.845	5	23	Fixation	Neutral	True
229.845	0.3	Control	0.6667000000000001	0.0	No	2.786	0.0	4.0	NoResponse	0	3.881	n/a	5	23	ButtonPress	Neutral	True
229.863	0.17	Control	0.6667000000000001	0.001	No	2.786	-0.001	n/a	NoResponse	0	n/a	n/a	5	23	Target	Neutral	True
230.029	0.53	Control	0.6667000000000001	n/a	No	2.786	n/a	n/a	NoResponse	0	n/a	n/a	5	23	Blank	Neutral	True
230.563	1.45	Control	0.6667000000000001	n/a	No	2.786	n/a	5.0	NoResponse	0	0.044	229.607	5	23	Feedback	Neutral	True
232.012	2.786	Control	0.6667000000000001	n/a	No	2.786	n/a	n/a	NoResponse	0	0.0	n/a	5	23	ISIslide	Neutral	True
234.828	0.25	Win2	0.64	0.0	No	3.122	0.028	n/a	NoResponse	0	n/a	n/a	5	24	Cue	MissedWin	True
235.078	3.95	Win2	0.64	0.0	No	3.122	0.0	n/a	NoResponse	0	n/a	n/a	5	24	Fixation	MissedWin	True
239.026	0.16	Win2	0.64	0.002	No	3.122	-0.002	4.0	NoResponse	0	0.183	238.209	5	24	Target	MissedWin	True
239.193	0.54	Win2	0.64	n/a	No	3.122	n/a	n/a	NoResponse	0	n/a	n/a	5	24	Blank	MissedWin	True
239.209	0.3	Win2	0.64	0.002	No	3.122	-0.002	4.0	NoResponse	0	0.183	n/a	5	24	ButtonPress	MissedWin	True
239.726	1.45	Win2	0.64	n/a	No	3.122	n/a	5.0	NoResponse	0	0.005	238.731	5	24	Feedback	MissedWin	True
241.175	3.122	Win2	0.64	n/a	No	3.122	n/a	n/a	NoResponse	0	0.0	n/a	5	24	ISIslide	MissedWin	True
244.324	0.25	Win2	0.6537999999999999	0.0	Yes	3.076	0.024	n/a	GoodResponse	1	n/a	n/a	6	25	Cue	Win	True
244.574	4.0	Win2	0.6537999999999999	0.0	Yes	3.076	0.0	n/a	GoodResponse	1	n/a	n/a	6	25	Fixation	Win	True
248.573	0.17	Win2	0.6537999999999999	0.001	Yes	3.076	-0.001	4.0	GoodResponse	1	0.121	247.694	6	25	Target	Win	True
248.694	0.3	Win2	0.6537999999999999	0.001	Yes	3.076	-0.001	4.0	GoodResponse	1	0.121	n/a	6	25	ButtonPress	Win	True
248.739	0.53	Win2	0.6537999999999999	n/a	Yes	3.076	n/a	n/a	GoodResponse	1	n/a	n/a	6	25	Blank	Win	True
249.273	1.45	Win2	0.6537999999999999	n/a	Yes	3.076	n/a	5.0	GoodResponse	1	0.017	248.29	6	25	Feedback	Win	True
250.722	3.076	Win2	0.6537999999999999	n/a	Yes	3.076	n/a	n/a	GoodResponse	1	0.0	n/a	6	25	ISIslide	Win	True
253.821	0.25	Win2	0.6296	0.0	No	2.929	0.021	n/a	PrematurePress	0	n/a	n/a	6	26	Cue	MissedWin	True
254.071	3.95	Win2	0.6296	0.0	No	2.929	0.0	n/a	PrematurePress	0	n/a	n/a	6	26	Fixation	MissedWin	True
258.02	0.18	Win2	0.6296	0.001	No	2.929	-0.001	4.0	PrematurePress	0	0.079	257.099	6	26	Target	MissedWin	True
258.099	0.3	Win2	0.6296	0.001	No	2.929	-0.001	4.0	PrematurePress	0	0.079	n/a	6	26	ButtonPress	MissedWin	True
258.203	0.52	Win2	0.6296	n/a	No	2.929	n/a	n/a	PrematurePress	0	n/a	n/a	6	26	Blank	MissedWin	True
258.719	1.45	Win2	0.6296	n/a	No	2.929	n/a	5.0	PrematurePress	0	0.035	257.754	6	26	Feedback	MissedWin	True
260.169	2.929	Win2	0.6296	n/a	No	2.929	n/a	n/a	PrematurePress	0	0.0	n/a	6	26	ISIslide	MissedWin	True
263.118	0.25	Lose2	0.6071	0.0	No	2.832	0.018	n/a	NoResponse	-1	n/a	n/a	5	27	Cue	Loss	False
263.368	4.05	Lose2	0.6071	0.0	No	2.832	0.0	4.0	NoResponse	-1	3.625	265.993	5	27	Fixation	Loss	False
266.993	0.3	Lose2	0.6071	0.0	No	2.832	0.0	4.0	NoResponse	-1	3.625	n/a	5	27	ButtonPress	Loss	False
267.416	0.19	Lose2	0.6071	0.002	No	2.832	-0.002	4.0	NoResponse	-1	0.248	266.664	5	27	Target	Loss	False
267.616	0.51	Lose2	0.6071	n/a	No	2.832	n/a	n/a	NoResponse	-1	n/a	n/a	5	27	Blank	Loss	False
267.664	0.3	Lose2	0.6071	0.002	No	2.832	-0.002	4.0	NoResponse	-1	0.248	n/a	5	27	ButtonPress	Loss	False
268.116	1.45	Lose2	0.6071	n/a	No	2.832	n/a	5.0	NoResponse	-1	0.005	267.121	5	27	Feedback	Loss	False
269.566	2.832	Lose2	0.6071	n/a	No	2.832	n/a	n/a	NoResponse	-1	0.0	n/a	5	27	ISIslide	Loss	False
272.415	0.25	Control	0.6207	0.0	Yes	2.835	0.015	n/a	GoodResponse	0	n/a	n/a	5	28	Cue	Neutral	False
272.664	4.05	Control	0.6207	0.001	Yes	2.835	-0.001	4.0	GoodResponse	0	3.332	274.996	5	28	Fixation	Neutral	False
275.996	0.3	Control	0.6207	0.001	Yes	2.835	-0.001	4.0	GoodResponse	0	3.332	n/a	5	28	ButtonPress	Neutral	False
276.713	0.2	Control	0.6207	0.002	Yes	2.835	-0.002	4.0	GoodResponse	0	0.127	275.84	5	28	Target	Neutral	False
276.84	0.3	Control	0.6207	0.002	Yes	2.835	-0.002	4.0	GoodResponse	0	0.127	n/a	5	28	ButtonPress	Neutral	False
276.913	0.5	Control	0.6207	n/a	Yes	2.835	n/a	n/a	GoodResponse	0	n/a	n/a	5	28	Blank	Neutral	False
277.413	1.45	Control	0.6207	n/a	Yes	2.835	n/a	5.0	GoodResponse	0	0.024	276.437	5	28	Feedback	Neutral	False
278.862	2.835	Control	0.6207	n/a	Yes	2.835	n/a	n/a	GoodResponse	0	0.0	n/a	5	28	ISIslide	Neutral	False
281.711	0.25	Lose2	0.6333	0.0	Yes	2.839	0.011	n/a	GoodResponse	0	n/a	n/a	5	29	Cue	AvoidedLoss	False
281.961	3.95	Lose2	0.6333	0.0	Yes	2.839	0.0	4.0	GoodResponse	0	3.763	284.724	5	29	Fixation	AvoidedLoss	False
285.724	0.3	Lose2	0.6333	0.0	Yes	2.839	0.0	4.0	GoodResponse	0	3.763	n/a	5	29	ButtonPress	AvoidedLoss	False
285.91	0.21	Lose2	0.6333	0.001	Yes	2.839	-0.001	4.0	GoodResponse	0	0.115	285.025	5	29	Target	AvoidedLoss	False
286.025	0.3	Lose2	0.6333	0.001	Yes	2.839	-0.001	4.0	GoodResponse	0	0.115	n/a	5	29	ButtonPress	AvoidedLoss	False
286.126	0.49	Lose2	0.6333	n/a	Yes	2.839	n/a	n/a	GoodResponse	0	n/a	n/a	5	29	Blank	AvoidedLoss	False
286.61	1.45	Lose2	0.6333	n/a	Yes	2.839	n/a	5.0	GoodResponse	0	0.045	285.655	5	29	Feedback	AvoidedLoss	False
288.059	2.839	Lose2	0.6333	n/a	Yes	2.839	n/a	n/a	GoodResponse	0	0.0	n/a	5	29	ISIslide	AvoidedLoss	False
290.925	0.25	Win2	0.6129	0.0	No	2.775	0.025	n/a	PrematurePress	0	n/a	n/a	5	30	Cue	MissedWin	False
291.175	3.9	Win2	0.6129	0.0	No	2.775	0.0	4.0	PrematurePress	0	0.025	290.2	5	30	Fixation	MissedWin	False
291.2	0.3	Win2	0.6129	0.0	No	2.775	0.0	4.0	PrematurePress	0	0.025	n/a	5	30	ButtonPress	MissedWin	False
295.073	0.22	Win2	0.6129	0.002	No	2.775	-0.002	4.0	PrematurePress	0	0.079	294.152	5	30	Target	MissedWin	False
295.152	0.3	Win2	0.6129	0.002	No	2.775	-0.002	4.0	PrematurePress	0	0.079	n/a	5	30	ButtonPress	MissedWin	False
295.307	0.48	Win2	0.6129	n/a	No	2.775	n/a	n/a	PrematurePress	0	n/a	n/a	5	30	Blank	MissedWin	False
295.773	1.45	Win2	0.6129	n/a	No	2.775	n/a	5.0	PrematurePress	0	0.005	294.778	5	30	Feedback	MissedWin	False
297.223	2.775	Win2	0.6129	n/a	No	2.775	n/a	n/a	PrematurePress	0	0.0	n/a	5	30	ISIslide	MissedWin	False
300.022	0.25	Lose2	0.5938	0.0	No	2.828	0.022	n/a	PrematurePress	-1	n/a	n/a	4	31	Cue	Loss	True
300.272	4.05	Lose2	0.5938	0.0	No	2.828	0.0	n/a	PrematurePress	-1	n/a	n/a	4	31	Fixation	Loss	True
304.32	0.23	Lose2	0.5938	0.002	No	2.828	-0.002	4.0	PrematurePress	-1	0.055	303.375	4	31	Target	Loss	True
304.375	0.3	Lose2	0.5938	0.002	No	2.828	-0.002	4.0	PrematurePress	-1	0.055	n/a	4	31	ButtonPress	Loss	True
304.553	0.47	Lose2	0.5938	n/a	No	2.828	n/a	n/a	PrematurePress	-1	n/a	n/a	4	31	Blank	Loss	True
305.02	1.45	Lose2	0.5938	n/a	No	2.828	n/a	5.0	PrematurePress	-1	0.026	304.046	4	31	Feedback	Loss	True
306.469	2.828	Lose2	0.5938	n/a	No	2.828	n/a	n/a	PrematurePress	-1	0.0	n/a	4	31	ISIslide	Loss	True
309.318	0.25	Lose2	0.6061	0.0	Yes	2.632	0.018	n/a	GoodResponse	0	n/a	n/a	4	32	Cue	AvoidedLoss	True
309.568	4.15	Lose2	0.6061	0.0	Yes	2.632	0.0	n/a	GoodResponse	0	n/a	n/a	4	32	Fixation	AvoidedLoss	True
313.717	0.24	Lose2	0.6061	0.001	Yes	2.632	-0.001	4.0	GoodResponse	0	0.192	312.909	4	32	Target	AvoidedLoss	True
313.909	0.3	Lose2	0.6061	0.001	Yes	2.632	-0.001	4.0	GoodResponse	0	0.192	n/a	4	32	ButtonPress	AvoidedLoss	True
313.967	0.46	Lose2	0.6061	n/a	Yes	2.632	n/a	n/a	GoodResponse	0	n/a	n/a	4	32	Blank	AvoidedLoss	True
314.417	1.45	Lose2	0.6061	n/a	Yes	2.632	n/a	5.0	GoodResponse	0	0.044	313.461	4	32	Feedback	AvoidedLoss	True
315.866	2.632	Lose2	0.6061	n/a	Yes	2.632	n/a	n/a	GoodResponse	0	0.0	n/a	4	32	ISIslide	AvoidedLoss	True
318.515	0.25	Win2	0.6175999999999999	0.0	Yes	2.685	0.015	n/a	GoodResponse	1	n/a	n/a	5	33	Cue	Win	True
318.765	4.0	Win2	0.6175999999999999	0.0	Yes	2.685	0.0	n/a	GoodResponse	1	n/a	n/a	5	33	Fixation	Win	True
322.764	0.25	Win2	0.6175999999999999	0.001	Yes	2.685	-0.001	4.0	GoodResponse	1	0.178	321.942	5	33	Target	Win	True
322.942	0.3	Win2	0.6175999999999999	0.001	Yes	2.685	-0.001	4.0	GoodResponse	1	0.178	n/a	5	33	ButtonPress	Win	True
323.014	0.45	Win2	0.6175999999999999	n/a	Yes	2.685	n/a	n/a	GoodResponse	1	n/a	n/a	5	33	Blank	Win	True
323.463	1.45	Win2	0.6175999999999999	n/a	Yes	2.685	n/a	5.0	GoodResponse	1	0.022	322.485	5	33	Feedback	Win	True
324.913	2.685	Win2	0.6175999999999999	n/a	Yes	2.685	n/a	n/a	GoodResponse	1	0.0	n/a	5	33	ISIslide	Win	True
327.612	0.25	Lose2	0.6286	0.0	Yes	2.638	0.012	n/a	GoodResponse	0	n/a	n/a	5	34	Cue	AvoidedLoss	False
327.862	4.05	Lose2	0.6286	0.0	Yes	2.638	0.0	4.0	GoodResponse	0	4.003	330.865	5	34	Fixation	AvoidedLoss	False
331.865	0.3	Lose2	0.6286	0.0	Yes	2.638	0.0	4.0	GoodResponse	0	4.003	n/a	5	34	ButtonPress	AvoidedLoss	False
331.91	0.26	Lose2	0.6286	0.002	Yes	2.638	-0.002	4.0	GoodResponse	0	0.201	331.111	5	34	Target	AvoidedLoss	False
332.111	0.3	Lose2	0.6286	0.002	Yes	2.638	-0.002	4.0	GoodResponse	0	0.201	n/a	5	34	ButtonPress	AvoidedLoss	False
332.177	0.44	Lose2	0.6286	n/a	Yes	2.638	n/a	n/a	GoodResponse	0	n/a	n/a	5	34	Blank	AvoidedLoss	False
332.61	1.45	Lose2	0.6286	n/a	Yes	2.638	n/a	5.0	GoodResponse	0	0.045	331.655	5	34	Feedback	AvoidedLoss	False
334.06	2.638	Lose2	0.6286	n/a	Yes	2.638	n/a	n/a	GoodResponse	0	0.0	n/a	5	34	ISIslide	AvoidedLoss	False
336.725	0.25	Lose2	0.6389	0.001	Yes	2.675	0.025	n/a	GoodResponse	0	n/a	n/a	5	35	Cue	AvoidedLoss	True
336.975	4.0	Lose2	0.6389	0.001	Yes	2.675	0.0	n/a	GoodResponse	0	n/a	n/a	5	35	Fixation	AvoidedLoss	True
340.974	0.27	Lose2	0.6389	0.001	Yes	2.675	-0.001	4.0	GoodResponse	0	0.2	340.174	5	35	Target	AvoidedLoss	True
341.174	0.3	Lose2	0.6389	0.001	Yes	2.675	-0.001	4.0	GoodResponse	0	0.2	n/a	5	35	ButtonPress	AvoidedLoss	True
341.241	0.43	Lose2	0.6389	n/a	Yes	2.675	n/a	n/a	GoodResponse	0	n/a	n/a	5	35	Blank	AvoidedLoss	True
341.674	1.45	Lose2	0.6389	n/a	Yes	2.675	n/a	5.0	GoodResponse	0	0.006	340.68	5	35	Feedback	AvoidedLoss	True
343.123	2.675	Lose2	0.6389	n/a	Yes	2.675	n/a	n/a	GoodResponse	0	0.0	n/a	5	35	ISIslide	AvoidedLoss	True
345.822	0.25	Control	0.6486	0.0	Yes	2.678	0.022	n/a	GoodResponse	0	n/a	n/a	5	36	Cue	Neutral	True
346.072	4.0	Control	0.6486	0.0	Yes	2.678	0.0	n/a	GoodResponse	0	n/a	n/a	5	36	Fixation	Neutral	True
350.071	0.28	Control	0.6486	0.001	Yes	2.678	-0.001	4.0	GoodResponse	0	0.149	349.22	5	36	Target	Neutral	True
350.22	0.3	Control	0.6486	0.001	Yes	2.678	-0.001	4.0	GoodResponse	0	0.149	n/a	5	36	ButtonPress	Neutral	True
350.354	0.42	Control	0.6486	n/a	Yes	2.678	n/a	n/a	GoodResponse	0	n/a	n/a	5	36	Blank	Neutral	True
350.771	1.45	Control	0.6486	n/a	Yes	2.678	n/a	5.0	GoodResponse	0	0.031	349.802	5	36	Feedback	Neutral	True
352.22	2.678	Control	0.6486	n/a	Yes	2.678	n/a	n/a	GoodResponse	0	0.0	n/a	5	36	ISIslide	Neutral	True
354.919	0.25	Win2	0.6579	0.0	Yes	2.881	0.019	n/a	GoodResponse	1	n/a	n/a	6	37	Cue	Win	True
355.169	4.0	Win2	0.6579	0.0	Yes	2.881	0.0	n/a	GoodResponse	1	n/a	n/a	6	37	Fixation	Win	True
359.168	0.29	Win2	0.6579	0.001	Yes	2.881	-0.001	4.0	GoodResponse	1	0.212	358.38	6	37	Target	Win	True
359.38	0.3	Win2	0.6579	0.001	Yes	2.881	-0.001	4.0	GoodResponse	1	0.212	n/a	6	37	ButtonPress	Win	True
359.468	0.41	Win2	0.6579	n/a	Yes	2.881	n/a	n/a	GoodResponse	1	n/a	n/a	6	37	Blank	Win	True
359.867	1.45	Win2	0.6579	n/a	Yes	2.881	n/a	5.0	GoodResponse	1	0.008	358.875	6	37	Feedback	Win	True
361.317	2.881	Win2	0.6579	n/a	Yes	2.881	n/a	n/a	GoodResponse	1	0.0	n/a	6	37	ISIslide	Win	True
364.216	0.25	Lose2	0.6409999999999999	0.0	No	2.834	0.016	n/a	PrematurePress	-1	n/a	n/a	5	38	Cue	Loss	True
364.466	3.95	Lose2	0.6409999999999999	0.0	No	2.834	0.0	n/a	PrematurePress	-1	n/a	n/a	5	38	Fixation	Loss	True
368.414	0.29	Lose2	0.6409999999999999	0.002	No	2.834	-0.002	4.0	PrematurePress	-1	0.098	367.512	5	38	Target	Loss	True
368.512	0.3	Lose2	0.6409999999999999	0.002	No	2.834	-0.002	4.0	PrematurePress	-1	0.098	n/a	5	38	ButtonPress	Loss	True
368.714	0.41	Lose2	0.6409999999999999	n/a	No	2.834	n/a	n/a	PrematurePress	-1	n/a	n/a	5	38	Blank	Loss	True
369.114	1.45	Lose2	0.6409999999999999	n/a	No	2.834	n/a	5.0	PrematurePress	-1	0.029	368.143	5	38	Feedback	Loss	True
370.564	2.834	Lose2	0.6409999999999999	n/a	No	2.834	n/a	n/a	PrematurePress	-1	0.0	n/a	5	38	ISIslide	Loss	True
373.413	0.25	Win2	0.65	0.0	Yes	2.987	0.013	n/a	GoodResponse	1	n/a	n/a	6	39	Cue	Win	True
373.663	4.1	Win2	0.65	0.0	Yes	2.987	0.0	n/a	GoodResponse	1	n/a	n/a	6	39	Fixation	Win	True
377.761	0.3	Win2	0.65	0.002	Yes	2.987	-0.002	4.0	GoodResponse	1	0.181	376.942	6	39	Target	Win	True
377.942	0.3	Win2	0.65	0.002	Yes	2.987	-0.002	4.0	GoodResponse	1	0.181	n/a	6	39	ButtonPress	Win	True
378.061	0.4	Win2	0.65	n/a	Yes	2.987	n/a	n/a	GoodResponse	1	n/a	n/a	6	39	Blank	Win	True
378.461	1.45	Win2	0.65	n/a	Yes	2.987	n/a	5.0	GoodResponse	1	0.048	377.509	6	39	Feedback	Win	True
379.91	2.987	Win2	0.65	n/a	Yes	2.987	n/a	n/a	GoodResponse	1	0.0	n/a	6	39	ISIslide	Win	True
382.926	0.25	Win2	0.6585	0.0	Yes	2.724	0.026	n/a	GoodResponse	1	n/a	n/a	7	40	Cue	Win	True
383.176	3.95	Win2	0.6585	0.0	Yes	2.724	0.0	n/a	GoodResponse	1	n/a	n/a	7	40	Fixation	Win	True
387.125	0.31	Win2	0.6585	0.001	Yes	2.724	-0.001	4.0	GoodResponse	1	0.255	386.38	7	40	Target	Win	True
387.38	0.3	Win2	0.6585	0.001	Yes	2.724	-0.001	4.0	GoodResponse	1	0.255	n/a	7	40	ButtonPress	Win	True
387.441	0.39	Win2	0.6585	n/a	Yes	2.724	n/a	n/a	GoodResponse	1	n/a	n/a	7	40	Blank	Win	True
387.824	1.45	Win2	0.6585	n/a	Yes	2.724	n/a	5.0	GoodResponse	1	0.001	386.825	7	40	Feedback	Win	True
389.274	2.724	Win2	0.6585	n/a	Yes	2.724	n/a	n/a	GoodResponse	1	0.0	n/a	7	40	ISIslide	Win	True
392.023	0.25	Win2	0.6667000000000001	0.0	Yes	2.777	0.023	n/a	GoodResponse	1	n/a	n/a	8	41	Cue	Win	True
392.273	3.9	Win2	0.6667000000000001	0.0	Yes	2.777	0.0	n/a	GoodResponse	1	n/a	n/a	8	41	Fixation	Win	True
396.171	0.31	Win2	0.6667000000000001	0.002	Yes	2.777	-0.002	4.0	GoodResponse	1	0.197	395.368	8	41	Target	Win	True
396.368	0.3	Win2	0.6667000000000001	0.002	Yes	2.777	-0.002	4.0	GoodResponse	1	0.197	n/a	8	41	ButtonPress	Win	True
396.488	0.39	Win2	0.6667000000000001	n/a	Yes	2.777	n/a	n/a	GoodResponse	1	n/a	n/a	8	41	Blank	Win	True
396.871	1.45	Win2	0.6667000000000001	n/a	Yes	2.777	n/a	5.0	GoodResponse	1	0.028	395.899	8	41	Feedback	Win	True
398.321	2.777	Win2	0.6667000000000001	n/a	Yes	2.777	n/a	n/a	GoodResponse	1	0.0	n/a	8	41	ISIslide	Win	True
401.12	0.25	Control	0.6744	0.0	Yes	2.93	0.02	n/a	GoodResponse	0	n/a	n/a	8	42	Cue	Neutral	True
401.37	3.85	Control	0.6744	0.0	Yes	2.93	0.0	n/a	GoodResponse	0	n/a	n/a	8	42	Fixation	Neutral	True
405.218	0.3	Control	0.6744	0.002	Yes	2.93	-0.002	4.0	GoodResponse	0	0.187	404.405	8	42	Target	Neutral	True
405.405	0.3	Control	0.6744	0.002	Yes	2.93	-0.002	4.0	GoodResponse	0	0.187	n/a	8	42	ButtonPress	Neutral	True
405.518	0.4	Control	0.6744	n/a	Yes	2.93	n/a	n/a	GoodResponse	0	n/a	n/a	8	42	Blank	Neutral	True
405.918	1.45	Control	0.6744	n/a	Yes	2.93	n/a	5.0	GoodResponse	0	0.005	404.923	8	42	Feedback	Neutral	True
407.368	2.93	Control	0.6744	n/a	Yes	2.93	n/a	n/a	GoodResponse	0	0.0	n/a	8	42	ISIslide	Neutral	True
410.316	0.25	Win2	0.6818000000000001	0.001	Yes	3.184	0.016	n/a	GoodResponse	1	n/a	n/a	9	43	Cue	Win	True
410.566	4.0	Win2	0.6818000000000001	0.0	Yes	3.184	0.0	n/a	GoodResponse	1	n/a	n/a	9	43	Fixation	Win	True
414.565	0.29	Win2	0.6818000000000001	0.001	Yes	3.184	-0.001	4.0	GoodResponse	1	0.188	413.753	9	43	Target	Win	True
414.753	0.3	Win2	0.6818000000000001	0.001	Yes	3.184	-0.001	4.0	GoodResponse	1	0.188	n/a	9	43	ButtonPress	Win	True
414.865	0.41	Win2	0.6818000000000001	n/a	Yes	3.184	n/a	n/a	GoodResponse	1	n/a	n/a	9	43	Blank	Win	True
415.265	1.45	Win2	0.6818000000000001	n/a	Yes	3.184	n/a	5.0	GoodResponse	1	0.024	414.289	9	43	Feedback	Win	True
416.714	3.184	Win2	0.6818000000000001	n/a	Yes	3.184	n/a	n/a	GoodResponse	1	0.0	n/a	9	43	ISIslide	Win	True
419.913	0.25	Win2	0.6889	0.0	Yes	2.987	0.013	n/a	GoodResponse	1	n/a	n/a	10	44	Cue	Win	True
420.163	4.0	Win2	0.6889	0.0	Yes	2.987	0.0	n/a	GoodResponse	1	n/a	n/a	10	44	Fixation	Win	True
424.162	0.28	Win2	0.6889	0.001	Yes	2.987	-0.001	4.0	GoodResponse	1	0.164	423.326	10	44	Target	Win	True
424.326	0.3	Win2	0.6889	0.001	Yes	2.987	-0.001	4.0	GoodResponse	1	0.164	n/a	10	44	ButtonPress	Win	True
424.445	0.42	Win2	0.6889	n/a	Yes	2.987	n/a	n/a	GoodResponse	1	n/a	n/a	10	44	Blank	Win	True
424.861	1.45	Win2	0.6889	n/a	Yes	2.987	n/a	5.0	GoodResponse	1	0.038	423.899	10	44	Feedback	Win	True
426.311	2.987	Win2	0.6889	n/a	Yes	2.987	n/a	n/a	GoodResponse	1	0.0	n/a	10	44	ISIslide	Win	True
429.326	0.25	Control	0.6957	0.001	Yes	2.874	0.026	n/a	GoodResponse	0	n/a	n/a	10	45	Cue	Neutral	False
429.576	4.1	Control	0.6957	0.0	Yes	2.874	0.0	4.0	GoodResponse	0	3.887	432.463	10	45	Fixation	Neutral	False
433.463	0.3	Control	0.6957	0.0	Yes	2.874	0.0	4.0	GoodResponse	0	3.887	n/a	10	45	ButtonPress	Neutral	False
433.675	0.27	Control	0.6957	0.001	Yes	2.874	-0.001	4.0	GoodResponse	0	0.192	432.867	10	45	Target	Neutral	False
433.867	0.3	Control	0.6957	0.001	Yes	2.874	-0.001	4.0	GoodResponse	0	0.192	n/a	10	45	ButtonPress	Neutral	False
433.942	0.43	Control	0.6957	n/a	Yes	2.874	n/a	n/a	GoodResponse	0	n/a	n/a	10	45	Blank	Neutral	False
434.375	1.45	Control	0.6957	n/a	Yes	2.874	n/a	5.0	GoodResponse	0	0.035	433.41	10	45	Feedback	Neutral	False
435.824	2.874	Control	0.6957	n/a	Yes	2.874	n/a	n/a	GoodResponse	0	0.0	n/a	10	45	ISIslide	Neutral	False
438.723	0.25	Lose2	0.7021	0.0	Yes	3.377	0.023	n/a	GoodResponse	0	n/a	n/a	10	46	Cue	AvoidedLoss	True
438.973	4.0	Lose2	0.7021	0.0	Yes	3.377	0.0	n/a	GoodResponse	0	n/a	n/a	10	46	Fixation	AvoidedLoss	True
442.972	0.26	Lose2	0.7021	0.001	Yes	3.377	-0.001	4.0	GoodResponse	0	0.151	442.123	10	46	Target	AvoidedLoss	True
443.123	0.3	Lose2	0.7021	0.001	Yes	3.377	-0.001	4.0	GoodResponse	0	0.151	n/a	10	46	ButtonPress	AvoidedLoss	True
443.238	0.44	Lose2	0.7021	n/a	Yes	3.377	n/a	n/a	GoodResponse	0	n/a	n/a	10	46	Blank	AvoidedLoss	True
443.671	1.45	Lose2	0.7021	n/a	Yes	3.377	n/a	5.0	GoodResponse	0	0.009	442.68	10	46	Feedback	AvoidedLoss	True
445.121	3.377	Lose2	0.7021	n/a	Yes	3.377	n/a	n/a	GoodResponse	0	0.0	n/a	10	46	ISIslide	AvoidedLoss	True
448.52	0.25	Lose2	0.7082999999999999	0.0	Yes	2.68	0.02	n/a	GoodResponse	0	n/a	n/a	10	47	Cue	AvoidedLoss	True
448.77	4.0	Lose2	0.7082999999999999	0.0	Yes	2.68	0.0	n/a	GoodResponse	0	n/a	n/a	10	47	Fixation	AvoidedLoss	True
452.768	0.25	Lose2	0.7082999999999999	0.002	Yes	2.68	-0.002	4.0	GoodResponse	0	0.235	452.003	10	47	Target	AvoidedLoss	True
453.003	0.3	Lose2	0.7082999999999999	0.002	Yes	2.68	-0.002	4.0	GoodResponse	0	0.235	n/a	10	47	ButtonPress	AvoidedLoss	True
453.018	0.45	Lose2	0.7082999999999999	n/a	Yes	2.68	n/a	n/a	GoodResponse	0	n/a	n/a	10	47	Blank	AvoidedLoss	True
453.468	1.45	Lose2	0.7082999999999999	n/a	Yes	2.68	n/a	5.0	GoodResponse	0	0.016	452.484	10	47	Feedback	AvoidedLoss	True
454.918	2.68	Lose2	0.7082999999999999	n/a	Yes	2.68	n/a	n/a	GoodResponse	0	0.0	n/a	10	47	ISIslide	AvoidedLoss	True
457.617	0.25	Lose2	0.7143	0.0	Yes	3.033	0.017	n/a	GoodResponse	0	n/a	n/a	10	48	Cue	AvoidedLoss	True
457.867	3.95	Lose2	0.7143	0.0	Yes	3.033	0.0	n/a	GoodResponse	0	n/a	n/a	10	48	Fixation	AvoidedLoss	True
461.815	0.24	Lose2	0.7143	0.002	Yes	3.033	-0.002	4.0	GoodResponse	0	0.207	461.022	10	48	Target	AvoidedLoss	True
462.022	0.3	Lose2	0.7143	0.002	Yes	3.033	-0.002	4.0	GoodResponse	0	0.207	n/a	10	48	ButtonPress	AvoidedLoss	True
462.065	0.46	Lose2	0.7143	n/a	Yes	3.033	n/a	n/a	GoodResponse	0	n/a	n/a	10	48	Blank	AvoidedLoss	True
462.515	1.45	Lose2	0.7143	n/a	Yes	3.033	n/a	5.0	GoodResponse	0	0.042	461.557	10	48	Feedback	AvoidedLoss	True
463.964	3.033	Lose2	0.7143	n/a	Yes	3.033	n/a	n/a	GoodResponse	0	0.0	n/a	10	48	ISIslide	AvoidedLoss	True
467.013	0.25	Control	0.72	0.0	Yes	2.887	0.013	n/a	GoodResponse	0	n/a	n/a	10	49	Cue	Neutral	True
467.263	4.0	Control	0.72	0.0	Yes	2.887	0.0	n/a	GoodResponse	0	n/a	n/a	10	49	Fixation	Neutral	True
471.262	0.23	Control	0.72	0.001	Yes	2.887	-0.001	4.0	GoodResponse	0	0.21	470.472	10	49	Target	Neutral	True
471.472	0.3	Control	0.72	0.001	Yes	2.887	-0.001	4.0	GoodResponse	0	0.21	n/a	10	49	ButtonPress	Neutral	True
471.495	0.47	Control	0.72	n/a	Yes	2.887	n/a	n/a	GoodResponse	0	n/a	n/a	10	49	Blank	Neutral	True
471.962	1.45	Control	0.72	n/a	Yes	2.887	n/a	5.0	GoodResponse	0	0.01	470.972	10	49	Feedback	Neutral	True
473.411	2.887	Control	0.72	n/a	Yes	2.887	n/a	n/a	GoodResponse	0	0.0	n/a	10	49	ISIslide	Neutral	True
476.327	0.25	Control	0.7254999999999999	0.0	Yes	2.773	0.027	n/a	GoodResponse	0	n/a	n/a	10	50	Cue	Neutral	False
476.577	4.0	Control	0.7254999999999999	0.0	Yes	2.773	0.0	4.0	GoodResponse	0	3.894	479.471	10	50	Fixation	Neutral	False
480.471	0.3	Control	0.7254999999999999	0.0	Yes	2.773	0.0	4.0	GoodResponse	0	3.894	n/a	10	50	ButtonPress	Neutral	False
480.575	0.22	Control	0.7254999999999999	0.002	Yes	2.773	-0.002	4.0	GoodResponse	0	0.171	479.746	10	50	Target	Neutral	False
480.746	0.3	Control	0.7254999999999999	0.002	Yes	2.773	-0.002	4.0	GoodResponse	0	0.171	n/a	10	50	ButtonPress	Neutral	False
480.809	0.48	Control	0.7254999999999999	n/a	Yes	2.773	n/a	n/a	GoodResponse	0	n/a	n/a	10	50	Blank	Neutral	False
481.275	1.45	Control	0.7254999999999999	n/a	Yes	2.773	n/a	5.0	GoodResponse	0	0.014	480.289	10	50	Feedback	Neutral	False
482.725	2.773	Control	0.7254999999999999	n/a	Yes	2.773	n/a	n/a	GoodResponse	0	0.0	n/a	10	50	ISIslide	Neutral	False
485.524	0.25	Control	0.7308	0.0	Yes	2.726	0.024	n/a	GoodResponse	0	n/a	n/a	10	51	Cue	Neutral	True
485.773	3.95	Control	0.7308	0.001	Yes	2.726	-0.001	n/a	GoodResponse	0	n/a	n/a	10	51	Fixation	Neutral	True
489.722	0.21	Control	0.7308	0.002	Yes	2.726	-0.002	4.0	GoodResponse	0	0.203	488.925	10	51	Target	Neutral	True
489.925	0.3	Control	0.7308	0.002	Yes	2.726	-0.002	4.0	GoodResponse	0	0.203	n/a	10	51	ButtonPress	Neutral	True
489.939	0.49	Control	0.7308	n/a	Yes	2.726	n/a	n/a	GoodResponse	0	n/a	n/a	10	51	Blank	Neutral	True
490.422	1.45	Control	0.7308	n/a	Yes	2.726	n/a	5.0	GoodResponse	0	0.037	489.459	10	51	Feedback	Neutral	True
491.871	2.726	Control	0.7308	n/a	Yes	2.726	n/a	n/a	GoodResponse	0	0.0	n/a	10	51	ISIslide	Neutral	True
494.62	0.25	Control	0.7358	0.0	Yes	2.63	0.02	n/a	GoodResponse	0	n/a	n/a	10	52	Cue	Neutral	True
494.87	4.05	Control	0.7358	0.0	Yes	2.63	0.0	n/a	GoodResponse	0	n/a	n/a	10	52	Fixation	Neutral	True
498.919	0.2	Control	0.7358	0.001	Yes	2.63	-0.001	4.0	GoodResponse	0	0.176	498.095	10	52	Target	Neutral	True
499.095	0.3	Control	0.7358	0.001	Yes	2.63	-0.001	4.0	GoodResponse	0	0.176	n/a	10	52	ButtonPress	Neutral	True
499.119	0.5	Control	0.7358	n/a	Yes	2.63	n/a	n/a	GoodResponse	0	n/a	n/a	10	52	Blank	Neutral	True
499.619	1.45	Control	0.7358	n/a	Yes	2.63	n/a	5.0	GoodResponse	0	0.011	498.63	10	52	Feedback	Neutral	True
501.068	2.63	Control	0.7358	n/a	Yes	2.63	n/a	n/a	GoodResponse	0	0.0	n/a	10	52	ISIslide	Neutral	True
503.717	0.25	Win2	0.7222	0.0	No	2.933	0.017	n/a	LatePress	0	n/a	n/a	10	53	Cue	MissedWin	True
503.967	4.05	Win2	0.7222	0.0	No	2.933	0.0	n/a	LatePress	0	n/a	n/a	10	53	Fixation	MissedWin	True
508.016	0.19	Win2	0.7222	0.001	No	2.933	-0.001	4.0	LatePress	0	0.198	507.214	10	53	Target	MissedWin	True
508.214	0.3	Win2	0.7222	0.001	No	2.933	-0.001	4.0	LatePress	0	0.198	n/a	10	53	ButtonPress	MissedWin	True
508.216	0.51	Win2	0.7222	n/a	No	2.933	n/a	n/a	LatePress	0	n/a	n/a	10	53	Blank	MissedWin	True
508.715	1.45	Win2	0.7222	n/a	No	2.933	n/a	5.0	LatePress	0	0.037	507.752	10	53	Feedback	MissedWin	True
510.165	2.933	Win2	0.7222	n/a	No	2.933	n/a	n/a	LatePress	0	0.0	n/a	10	53	ISIslide	MissedWin	True
513.114	0.25	Win2	0.7091	0.0	No	2.736	0.014	n/a	NoResponse	0	n/a	n/a	10	54	Cue	MissedWin	True
513.364	3.95	Win2	0.7091	0.0	No	2.736	0.0	n/a	NoResponse	0	n/a	n/a	10	54	Fixation	MissedWin	True
517.312	0.18	Win2	0.7091	0.002	No	2.736	-0.002	4.0	NoResponse	0	0.193	516.505	10	54	Target	MissedWin	True
517.496	0.52	Win2	0.7091	n/a	No	2.736	n/a	n/a	NoResponse	0	n/a	n/a	10	54	Blank	MissedWin	True
517.505	0.3	Win2	0.7091	0.002	No	2.736	-0.002	4.0	NoResponse	0	0.193	n/a	10	54	ButtonPress	MissedWin	True
518.012	1.45	Win2	0.7091	n/a	No	2.736	n/a	5.0	NoResponse	0	0.008	517.02	10	54	Feedback	MissedWin	True
519.462	2.736	Win2	0.7091	n/a	No	2.736	n/a	n/a	NoResponse	0	0.0	n/a	10	54	ISIslide	MissedWin	True
522.227	0.25	Control	0.6964	0.001	No	3.023	0.027	n/a	NoResponse	0	n/a	n/a	10	55	Cue	Neutral	True
522.477	3.95	Control	0.6964	0.0	No	3.023	0.0	n/a	NoResponse	0	n/a	n/a	10	55	Fixation	Neutral	True
526.426	0.17	Control	0.6964	0.001	No	3.023	-0.001	4.0	NoResponse	0	0.192	525.618	10	55	Target	Neutral	True
526.593	0.53	Control	0.6964	n/a	No	3.023	n/a	n/a	NoResponse	0	n/a	n/a	10	55	Blank	Neutral	True
526.618	0.3	Control	0.6964	0.001	No	3.023	-0.001	4.0	NoResponse	0	0.192	n/a	10	55	ButtonPress	Neutral	True
527.126	1.45	Control	0.6964	n/a	No	3.023	n/a	5.0	NoResponse	0	0.016	526.142	10	55	Feedback	Neutral	True
528.575	3.023	Control	0.6964	n/a	No	3.023	n/a	n/a	NoResponse	0	0.0	n/a	10	55	ISIslide	Neutral	True
531.624	0.25	Control	0.7018000000000001	0.0	Yes	2.826	0.024	n/a	GoodResponse	0	n/a	n/a	10	56	Cue	Neutral	False
531.874	3.95	Control	0.7018000000000001	0.0	Yes	2.826	0.0	4.0	GoodResponse	0	3.269	534.143	10	56	Fixation	Neutral	False
535.143	0.3	Control	0.7018000000000001	0.0	Yes	2.826	0.0	4.0	GoodResponse	0	3.269	n/a	10	56	ButtonPress	Neutral	False
535.823	0.16	Control	0.7018000000000001	0.001	Yes	2.826	-0.001	4.0	GoodResponse	0	0.134	534.957	10	56	Target	Neutral	False
535.957	0.3	Control	0.7018000000000001	0.001	Yes	2.826	-0.001	4.0	GoodResponse	0	0.134	n/a	10	56	ButtonPress	Neutral	False
535.989	0.54	Control	0.7018000000000001	n/a	Yes	2.826	n/a	n/a	GoodResponse	0	n/a	n/a	10	56	Blank	Neutral	False
536.522	1.45	Control	0.7018000000000001	n/a	Yes	2.826	n/a	5.0	GoodResponse	0	0.034	535.556	10	56	Feedback	Neutral	False
537.972	2.826	Control	0.7018000000000001	n/a	Yes	2.826	n/a	n/a	GoodResponse	0	0.0	n/a	10	56	ISIslide	Neutral	False
540.821	0.25	Control	0.6897	0.0	No	3.479	0.021	n/a	NoResponse	0	n/a	n/a	10	57	Cue	Neutral	True
541.071	4.0	Control	0.6897	0.0	No	3.479	0.0	n/a	NoResponse	0	n/a	n/a	10	57	Fixation	Neutral	True
545.069	0.15	Control	0.6897	0.002	No	3.479	-0.002	4.0	NoResponse	0	0.159	544.228	10	57	Target	Neutral	True
545.219	0.55	Control	0.6897	n/a	No	3.479	n/a	n/a	NoResponse	0	n/a	n/a	10	57	Blank	Neutral	True
545.228	0.3	Control	0.6897	0.002	No	3.479	-0.002	4.0	NoResponse	0	0.159	n/a	10	57	ButtonPress	Neutral	True
545.769	1.45	Control	0.6897	n/a	No	3.479	n/a	5.0	NoResponse	0	0.007	544.776	10	57	Feedback	Neutral	True
547.219	3.479	Control	0.6897	n/a	No	3.479	n/a	n/a	NoResponse	0	0.0	n/a	10	57	ISIslide	Neutral	True
550.717	0.25	Win2	0.6779999999999999	0.001	No	2.733	0.017	n/a	PrematurePress	0	n/a	n/a	10	58	Cue	MissedWin	True
550.967	4.05	Win2	0.6779999999999999	0.001	No	2.733	0.0	n/a	PrematurePress	0	n/a	n/a	10	58	Fixation	MissedWin	True
555.016	0.15	Win2	0.6779999999999999	0.001	No	2.733	-0.001	4.0	PrematurePress	0	0.006	554.022	10	58	Target	MissedWin	True
555.022	0.3	Win2	0.6779999999999999	0.001	No	2.733	-0.001	4.0	PrematurePress	0	0.006	n/a	10	58	ButtonPress	MissedWin	True
555.166	0.55	Win2	0.6779999999999999	n/a	No	2.733	n/a	n/a	PrematurePress	0	n/a	n/a	10	58	Blank	MissedWin	True
555.716	1.45	Win2	0.6779999999999999	n/a	No	2.733	n/a	5.0	PrematurePress	0	0.011	554.727	10	58	Feedback	MissedWin	True
557.165	2.733	Win2	0.6779999999999999	n/a	No	2.733	n/a	n/a	PrematurePress	0	0.0	n/a	10	58	ISIslide	MissedWin	True
559.931	0.25	Lose2	0.6833	0.0	Yes	2.669	0.031	n/a	GoodResponse	0	n/a	n/a	10	59	Cue	AvoidedLoss	True
560.181	4.0	Lose2	0.6833	0.0	Yes	2.669	0.0	n/a	GoodResponse	0	n/a	n/a	10	59	Fixation	AvoidedLoss	True
564.179	0.15	Lose2	0.6833	0.002	Yes	2.669	-0.002	4.0	GoodResponse	0	0.141	563.32	10	59	Target	AvoidedLoss	True
564.32	0.3	Lose2	0.6833	0.002	Yes	2.669	-0.002	4.0	GoodResponse	0	0.141	n/a	10	59	ButtonPress	AvoidedLoss	True
564.329	0.55	Lose2	0.6833	n/a	Yes	2.669	n/a	n/a	GoodResponse	0	n/a	n/a	10	59	Blank	AvoidedLoss	True
564.879	1.45	Lose2	0.6833	n/a	Yes	2.669	n/a	5.0	GoodResponse	0	0.019	563.898	10	59	Feedback	AvoidedLoss	True
566.329	2.669	Lose2	0.6833	n/a	Yes	2.669	n/a	n/a	GoodResponse	0	0.0	n/a	10	59	ISIslide	AvoidedLoss	True
569.028	0.25	Control	0.6720999999999999	0.0	No	2.672	0.028	n/a	NoResponse	0	n/a	n/a	10	60	Cue	Neutral	True
569.278	4.0	Control	0.6720999999999999	0.0	No	2.672	0.0	n/a	NoResponse	0	n/a	n/a	10	60	Fixation	Neutral	True
573.276	0.15	Control	0.6720999999999999	0.002	No	2.672	-0.002	4.0	NoResponse	0	0.21	572.486	10	60	Target	Neutral	True
573.426	0.55	Control	0.6720999999999999	n/a	No	2.672	n/a	n/a	NoResponse	0	n/a	n/a	10	60	Blank	Neutral	True
573.486	0.3	Control	0.6720999999999999	0.002	No	2.672	-0.002	4.0	NoResponse	0	0.21	n/a	10	60	ButtonPress	Neutral	True
573.976	1.45	Control	0.6720999999999999	n/a	No	2.672	n/a	5.0	NoResponse	0	0.044	573.02	10	60	Feedback	Neutral	True
575.426	2.672	Control	0.6720999999999999	n/a	No	2.672	n/a	n/a	NoResponse	0	0.0	n/a	10	60	ISIslide	Neutral	True
578.125	0.25	Lose2	0.6774	0.0	Yes	2.975	0.025	n/a	GoodResponse	0	n/a	n/a	10	61	Cue	AvoidedLoss	False
578.375	4.0	Lose2	0.6774	0.0	Yes	2.975	0.0	4.0	GoodResponse	0	3.816	581.191	10	61	Fixation	AvoidedLoss	False
582.191	0.3	Lose2	0.6774	0.0	Yes	2.975	0.0	4.0	GoodResponse	0	3.816	n/a	10	61	ButtonPress	AvoidedLoss	False
582.373	0.15	Lose2	0.6774	0.002	Yes	2.975	-0.002	4.0	GoodResponse	0	0.111	581.484	10	61	Target	AvoidedLoss	False
582.484	0.3	Lose2	0.6774	0.002	Yes	2.975	-0.002	4.0	GoodResponse	0	0.111	n/a	10	61	ButtonPress	AvoidedLoss	False
582.523	0.55	Lose2	0.6774	n/a	Yes	2.975	n/a	n/a	GoodResponse	0	n/a	n/a	10	61	Blank	AvoidedLoss	False
583.073	1.45	Lose2	0.6774	n/a	Yes	2.975	n/a	5.0	GoodResponse	0	0.019	582.092	10	61	Feedback	AvoidedLoss	False
584.522	2.975	Lose2	0.6774	n/a	Yes	2.975	n/a	n/a	GoodResponse	0	0.0	n/a	10	61	ISIslide	AvoidedLoss	False
587.521	0.25	Lose2	0.6825	0.0	Yes	2.879	0.021	n/a	GoodResponse	0	n/a	n/a	10	62	Cue	AvoidedLoss	True
587.771	3.9	Lose2	0.6825	0.0	Yes	2.879	0.0	n/a	GoodResponse	0	n/a	n/a	10	62	Fixation	AvoidedLoss	True
591.67	0.15	Lose2	0.6825	0.001	Yes	2.879	-0.001	4.0	GoodResponse	0	0.149	590.819	10	62	Target	AvoidedLoss	True
591.819	0.3	Lose2	0.6825	0.001	Yes	2.879	-0.001	4.0	GoodResponse	0	0.149	n/a	10	62	ButtonPress	AvoidedLoss	True
591.82	0.55	Lose2	0.6825	n/a	Yes	2.879	n/a	n/a	GoodResponse	0	n/a	n/a	10	62	Blank	AvoidedLoss	True
592.37	1.45	Lose2	0.6825	n/a	Yes	2.879	n/a	5.0	GoodResponse	0	0.039	591.409	10	62	Feedback	AvoidedLoss	True
593.819	2.879	Lose2	0.6825	n/a	Yes	2.879	n/a	n/a	GoodResponse	0	0.0	n/a	10	62	ISIslide	AvoidedLoss	True
596.718	0.25	Lose2	0.6718999999999999	0.0	No	2.632	0.018	n/a	PrematurePress	-1	n/a	n/a	9	63	Cue	Loss	False
596.968	4.05	Lose2	0.6718999999999999	0.0	No	2.632	0.0	4.0	PrematurePress	-1	3.765	599.733	9	63	Fixation	Loss	False
600.733	0.3	Lose2	0.6718999999999999	0.0	No	2.632	0.0	4.0	PrematurePress	-1	3.765	n/a	9	63	ButtonPress	Loss	False
601.017	0.15	Lose2	0.6718999999999999	0.001	No	2.632	-0.001	4.0	PrematurePress	-1	0.005	600.022	9	63	Target	Loss	False
601.022	0.3	Lose2	0.6718999999999999	0.001	No	2.632	-0.001	4.0	PrematurePress	-1	0.005	n/a	9	63	ButtonPress	Loss	False
601.167	0.55	Lose2	0.6718999999999999	n/a	No	2.632	n/a	n/a	PrematurePress	-1	n/a	n/a	9	63	Blank	Loss	False
601.716	1.45	Lose2	0.6718999999999999	n/a	No	2.632	n/a	5.0	PrematurePress	-1	0.011	600.727	9	63	Feedback	Loss	False
603.166	2.632	Lose2	0.6718999999999999	n/a	No	2.632	n/a	n/a	PrematurePress	-1	0.0	n/a	9	63	ISIslide	Loss	False
605.815	0.25	Win2	0.6615000000000001	0.0	No	3.135	0.015	n/a	NoResponse	0	n/a	n/a	9	64	Cue	MissedWin	False
606.065	4.15	Win2	0.6615000000000001	0.0	No	3.135	0.0	4.0	NoResponse	0	4.036	609.101	9	64	Fixation	MissedWin	False
610.101	0.3	Win2	0.6615000000000001	0.0	No	3.135	0.0	4.0	NoResponse	0	4.036	n/a	9	64	ButtonPress	MissedWin	False
610.213	0.15	Win2	0.6615000000000001	0.002	No	3.135	-0.002	4.0	NoResponse	0	0.186	609.399	9	64	Target	MissedWin	False
610.363	0.55	Win2	0.6615000000000001	n/a	No	3.135	n/a	n/a	NoResponse	0	n/a	n/a	9	64	Blank	MissedWin	False
610.399	0.3	Win2	0.6615000000000001	0.002	No	3.135	-0.002	4.0	NoResponse	0	0.186	n/a	9	64	ButtonPress	MissedWin	False
610.913	1.45	Win2	0.6615000000000001	n/a	No	3.135	n/a	5.0	NoResponse	0	0.033	609.946	9	64	Feedback	MissedWin	False
612.363	3.135	Win2	0.6615000000000001	n/a	No	3.135	n/a	n/a	NoResponse	0	0.0	n/a	9	64	ISIslide	MissedWin	False
615.528	0.25	Control	0.6515000000000001	0.0	No	2.772	0.028	n/a	NoResponse	0	n/a	n/a	9	65	Cue	Neutral	True
615.778	4.0	Control	0.6515000000000001	0.0	No	2.772	0.0	n/a	NoResponse	0	n/a	n/a	9	65	Fixation	Neutral	True
619.777	0.15	Control	0.6515000000000001	0.001	No	2.772	-0.001	4.0	NoResponse	0	0.197	618.974	9	65	Target	Neutral	True
619.927	0.55	Control	0.6515000000000001	n/a	No	2.772	n/a	n/a	NoResponse	0	n/a	n/a	9	65	Blank	Neutral	True
619.974	0.3	Control	0.6515000000000001	0.001	No	2.772	-0.001	4.0	NoResponse	0	0.197	n/a	9	65	ButtonPress	Neutral	True
620.476	1.45	Control	0.6515000000000001	n/a	No	2.772	n/a	5.0	NoResponse	0	0.031	619.507	9	65	Feedback	Neutral	True
621.926	2.772	Control	0.6515000000000001	n/a	No	2.772	n/a	n/a	NoResponse	0	0.0	n/a	9	65	ISIslide	Neutral	True
624.725	0.25	Win2	0.6418	0.0	No	2.775	0.025	n/a	NoResponse	0	n/a	n/a	9	66	Cue	MissedWin	False
624.975	3.9	Win2	0.6418	0.0	No	2.775	0.0	4.0	NoResponse	0	3.849	627.824	9	66	Fixation	MissedWin	False
628.824	0.3	Win2	0.6418	0.0	No	2.775	0.0	4.0	NoResponse	0	3.849	n/a	9	66	ButtonPress	MissedWin	False
628.874	0.16	Win2	0.6418	0.001	No	2.775	-0.001	4.0	NoResponse	0	0.187	628.061	9	66	Target	MissedWin	False
629.04	0.54	Win2	0.6418	n/a	No	2.775	n/a	n/a	NoResponse	0	n/a	n/a	9	66	Blank	MissedWin	False
629.061	0.3	Win2	0.6418	0.001	No	2.775	-0.001	4.0	NoResponse	0	0.187	n/a	9	66	ButtonPress	MissedWin	False
629.573	1.45	Win2	0.6418	n/a	No	2.775	n/a	5.0	NoResponse	0	0.008	628.581	9	66	Feedback	MissedWin	False
631.023	2.775	Win2	0.6418	n/a	No	2.775	n/a	n/a	NoResponse	0	0.0	n/a	9	66	ISIslide	MissedWin	False
633.822	0.25	Control	0.6324000000000001	0.0	No	2.728	0.022	n/a	PrematurePress	0	n/a	n/a	9	67	Cue	Neutral	True
634.072	3.95	Control	0.6324000000000001	0.0	No	2.728	0.0	n/a	PrematurePress	0	n/a	n/a	9	67	Fixation	Neutral	True
638.02	0.17	Control	0.6324000000000001	0.002	No	2.728	-0.002	4.0	PrematurePress	0	0.097	637.117	9	67	Target	Neutral	True
638.117	0.3	Control	0.6324000000000001	0.002	No	2.728	-0.002	4.0	PrematurePress	0	0.097	n/a	9	67	ButtonPress	Neutral	True
638.204	0.53	Control	0.6324000000000001	n/a	No	2.728	n/a	n/a	PrematurePress	0	n/a	n/a	9	67	Blank	Neutral	True
638.72	1.45	Control	0.6324000000000001	n/a	No	2.728	n/a	5.0	PrematurePress	0	0.03	637.75	9	67	Feedback	Neutral	True
640.17	2.728	Control	0.6324000000000001	n/a	No	2.728	n/a	n/a	PrematurePress	0	0.0	n/a	9	67	ISIslide	Neutral	True
642.919	0.25	Win2	0.6377	0.0	Yes	3.081	0.019	n/a	GoodResponse	1	n/a	n/a	10	68	Cue	Win	False
643.169	4.0	Win2	0.6377	0.0	Yes	3.081	0.0	4.0	GoodResponse	1	3.645	645.814	10	68	Fixation	Win	False
646.814	0.3	Win2	0.6377	0.0	Yes	3.081	0.0	4.0	GoodResponse	1	3.645	n/a	10	68	ButtonPress	Win	False
647.167	0.18	Win2	0.6377	0.002	Yes	3.081	-0.002	4.0	GoodResponse	1	0.114	646.281	10	68	Target	Win	False
647.281	0.3	Win2	0.6377	0.002	Yes	3.081	-0.002	4.0	GoodResponse	1	0.114	n/a	10	68	ButtonPress	Win	False
647.35	0.52	Win2	0.6377	n/a	Yes	3.081	n/a	n/a	GoodResponse	1	n/a	n/a	10	68	Blank	Win	False
647.867	1.45	Win2	0.6377	n/a	Yes	3.081	n/a	5.0	GoodResponse	1	0.007	646.874	10	68	Feedback	Win	False
649.316	3.081	Win2	0.6377	n/a	Yes	3.081	n/a	n/a	GoodResponse	1	0.0	n/a	10	68	ISIslide	Win	False
652.415	0.25	Win2	0.6429	0.0	Yes	3.235	0.015	n/a	GoodResponse	1	n/a	n/a	11	69	Cue	Win	True
652.665	3.95	Win2	0.6429	0.0	Yes	3.235	0.0	n/a	GoodResponse	1	n/a	n/a	11	69	Fixation	Win	True
656.614	0.19	Win2	0.6429	0.001	Yes	3.235	-0.001	4.0	GoodResponse	1	0.1	655.714	11	69	Target	Win	True
656.714	0.3	Win2	0.6429	0.001	Yes	3.235	-0.001	4.0	GoodResponse	1	0.1	n/a	11	69	ButtonPress	Win	True
656.814	0.51	Win2	0.6429	n/a	Yes	3.235	n/a	n/a	GoodResponse	1	n/a	n/a	11	69	Blank	Win	True
657.314	1.45	Win2	0.6429	n/a	Yes	3.235	n/a	5.0	GoodResponse	1	0.022	656.336	11	69	Feedback	Win	True
658.763	3.235	Win2	0.6429	n/a	Yes	3.235	n/a	n/a	GoodResponse	1	0.0	n/a	11	69	ISIslide	Win	True
662.029	0.25	Lose2	0.6338	0.0	No	3.021	0.029	n/a	PrematurePress	-1	n/a	n/a	10	70	Cue	Loss	False
662.279	4.05	Lose2	0.6338	0.0	No	3.021	0.0	4.0	PrematurePress	-1	3.826	665.105	10	70	Fixation	Loss	False
666.105	0.3	Lose2	0.6338	0.0	No	3.021	0.0	4.0	PrematurePress	-1	3.826	n/a	10	70	ButtonPress	Loss	False
666.327	0.2	Lose2	0.6338	0.002	No	3.021	-0.002	4.0	PrematurePress	-1	0.038	665.365	10	70	Target	Loss	False
666.365	0.3	Lose2	0.6338	0.002	No	3.021	-0.002	4.0	PrematurePress	-1	0.038	n/a	10	70	ButtonPress	Loss	False
666.527	0.5	Lose2	0.6338	n/a	No	3.021	n/a	n/a	PrematurePress	-1	n/a	n/a	10	70	Blank	Loss	False
667.027	1.45	Lose2	0.6338	n/a	No	3.021	n/a	5.0	PrematurePress	-1	0.016	666.043	10	70	Feedback	Loss	False
668.476	3.021	Lose2	0.6338	n/a	No	3.021	n/a	n/a	PrematurePress	-1	0.0	n/a	10	70	ISIslide	Loss	False
671.525	0.25	Win2	0.6389	0.0	Yes	2.725	0.025	n/a	GoodResponse	1	n/a	n/a	11	71	Cue	Win	False
671.775	4.05	Win2	0.6389	0.0	Yes	2.725	0.0	4.0	GoodResponse	1	3.839	674.614	11	71	Fixation	Win	False
675.614	0.3	Win2	0.6389	0.0	Yes	2.725	0.0	4.0	GoodResponse	1	3.839	n/a	11	71	ButtonPress	Win	False
675.824	0.21	Win2	0.6389	0.001	Yes	2.725	-0.001	4.0	GoodResponse	1	0.204	675.028	11	71	Target	Win	False
676.028	0.3	Win2	0.6389	0.001	Yes	2.725	-0.001	4.0	GoodResponse	1	0.204	n/a	11	71	ButtonPress	Win	False
676.04	0.49	Win2	0.6389	n/a	Yes	2.725	n/a	n/a	GoodResponse	1	n/a	n/a	11	71	Blank	Win	False
676.524	1.45	Win2	0.6389	n/a	Yes	2.725	n/a	5.0	GoodResponse	1	0.032	675.556	11	71	Feedback	Win	False
677.973	2.725	Win2	0.6389	n/a	Yes	2.725	n/a	n/a	GoodResponse	1	0.0	n/a	11	71	ISIslide	Win	False
680.722	0.25	Win2	0.6437999999999999	0.0	Yes	2.778	0.022	n/a	GoodResponse	1	n/a	n/a	12	72	Cue	Win	True
680.972	4.1	Win2	0.6437999999999999	0.0	Yes	2.778	0.0	n/a	GoodResponse	1	n/a	n/a	12	72	Fixation	Win	True
685.071	0.22	Win2	0.6437999999999999	0.001	Yes	2.778	-0.001	4.0	GoodResponse	1	0.163	684.234	12	72	Target	Win	True
685.234	0.3	Win2	0.6437999999999999	0.001	Yes	2.778	-0.001	4.0	GoodResponse	1	0.163	n/a	12	72	ButtonPress	Win	True
685.304	0.48	Win2	0.6437999999999999	n/a	Yes	2.778	n/a	n/a	GoodResponse	1	n/a	n/a	12	72	Blank	Win	True
685.77	1.45	Win2	0.6437999999999999	n/a	Yes	2.778	n/a	5.0	GoodResponse	1	0.006	684.776	12	72	Feedback	Win	True
687.22	2.778	Win2	0.6437999999999999	n/a	Yes	2.778	n/a	n/a	GoodResponse	1	0.0	n/a	12	72	ISIslide	Win	True
690.019	0.25	Win2	0.6486	0.0	Yes	2.681	0.019	n/a	GoodResponse	1	n/a	n/a	13	73	Cue	Win	True
690.269	4.0	Win2	0.6486	0.0	Yes	2.681	0.0	n/a	GoodResponse	1	n/a	n/a	13	73	Fixation	Win	True
694.267	0.23	Win2	0.6486	0.002	Yes	2.681	-0.002	4.0	GoodResponse	1	0.188	693.455	13	73	Target	Win	True
694.455	0.3	Win2	0.6486	0.002	Yes	2.681	-0.002	4.0	GoodResponse	1	0.188	n/a	13	73	ButtonPress	Win	True
694.501	0.47	Win2	0.6486	n/a	Yes	2.681	n/a	n/a	GoodResponse	1	n/a	n/a	13	73	Blank	Win	True
694.967	1.45	Win2	0.6486	n/a	Yes	2.681	n/a	5.0	GoodResponse	1	0.027	693.994	13	73	Feedback	Win	True
696.417	2.681	Win2	0.6486	n/a	Yes	2.681	n/a	n/a	GoodResponse	1	0.0	n/a	13	73	ISIslide	Win	True
699.116	0.25	Lose2	0.6533	0.0	Yes	2.634	0.016	n/a	GoodResponse	0	n/a	n/a	13	74	Cue	AvoidedLoss	False
699.366	4.05	Lose2	0.6533	0.0	Yes	2.634	0.0	4.0	GoodResponse	0	3.916	702.282	13	74	Fixation	AvoidedLoss	False
703.282	0.3	Lose2	0.6533	0.0	Yes	2.634	0.0	4.0	GoodResponse	0	3.916	n/a	13	74	ButtonPress	AvoidedLoss	False
703.414	0.24	Lose2	0.6533	0.002	Yes	2.634	-0.002	4.0	GoodResponse	0	0.122	702.536	13	74	Target	AvoidedLoss	False
703.536	0.3	Lose2	0.6533	0.002	Yes	2.634	-0.002	4.0	GoodResponse	0	0.122	n/a	13	74	ButtonPress	AvoidedLoss	False
703.664	0.46	Lose2	0.6533	n/a	Yes	2.634	n/a	n/a	GoodResponse	0	n/a	n/a	13	74	Blank	AvoidedLoss	False
704.114	1.45	Lose2	0.6533	n/a	Yes	2.634	n/a	5.0	GoodResponse	0	0.002	703.116	13	74	Feedback	AvoidedLoss	False
705.563	2.634	Lose2	0.6533	n/a	Yes	2.634	n/a	n/a	GoodResponse	0	0.0	n/a	13	74	ISIslide	AvoidedLoss	False
708.213	0.25	Lose2	0.6579	0.0	Yes	2.937	0.013	n/a	GoodResponse	0	n/a	n/a	13	75	Cue	AvoidedLoss	True
708.462	3.95	Lose2	0.6579	0.001	Yes	2.937	-0.001	n/a	GoodResponse	0	n/a	n/a	13	75	Fixation	AvoidedLoss	True
712.411	0.25	Lose2	0.6579	0.002	Yes	2.937	-0.002	4.0	GoodResponse	0	0.177	711.588	13	75	Target	AvoidedLoss	True
712.588	0.3	Lose2	0.6579	0.002	Yes	2.937	-0.002	4.0	GoodResponse	0	0.177	n/a	13	75	ButtonPress	AvoidedLoss	True
712.661	0.45	Lose2	0.6579	n/a	Yes	2.937	n/a	n/a	GoodResponse	0	n/a	n/a	13	75	Blank	AvoidedLoss	True
713.111	1.45	Lose2	0.6579	n/a	Yes	2.937	n/a	5.0	GoodResponse	0	0.03	712.141	13	75	Feedback	AvoidedLoss	True
714.56	2.937	Lose2	0.6579	n/a	Yes	2.937	n/a	n/a	GoodResponse	0	0.0	n/a	13	75	ISIslide	AvoidedLoss	True
717.526	0.25	Control	0.6623	0.0	Yes	3.224	0.026	n/a	GoodResponse	0	n/a	n/a	13	76	Cue	Neutral	True
717.776	4.05	Control	0.6623	0.0	Yes	3.224	0.0	n/a	GoodResponse	0	n/a	n/a	13	76	Fixation	Neutral	True
721.824	0.25	Control	0.6623	0.002	Yes	3.224	-0.002	4.0	GoodResponse	0	0.2	721.024	13	76	Target	Neutral	True
722.024	0.3	Control	0.6623	0.002	Yes	3.224	-0.002	4.0	GoodResponse	0	0.2	n/a	13	76	ButtonPress	Neutral	True
722.074	0.45	Control	0.6623	n/a	Yes	3.224	n/a	n/a	GoodResponse	0	n/a	n/a	13	76	Blank	Neutral	True
722.524	1.45	Control	0.6623	n/a	Yes	3.224	n/a	5.0	GoodResponse	0	0.031	721.555	13	76	Feedback	Neutral	True
723.974	3.224	Control	0.6623	n/a	Yes	3.224	n/a	n/a	GoodResponse	0	0.0	n/a	13	76	ISIslide	Neutral	True
727.223	0.25	Lose2	0.6667000000000001	0.0	Yes	2.577	0.023	n/a	GoodResponse	0	n/a	n/a	13	77	Cue	AvoidedLoss	True
727.472	3.95	Lose2	0.6667000000000001	0.001	Yes	2.577	-0.001	n/a	GoodResponse	0	n/a	n/a	13	77	Fixation	AvoidedLoss	True
731.421	0.25	Lose2	0.6667000000000001	0.002	Yes	2.577	-0.002	4.0	GoodResponse	0	0.237	730.658	13	77	Target	AvoidedLoss	True
731.658	0.3	Lose2	0.6667000000000001	0.002	Yes	2.577	-0.002	4.0	GoodResponse	0	0.237	n/a	13	77	ButtonPress	AvoidedLoss	True
731.671	0.45	Lose2	0.6667000000000001	n/a	Yes	2.577	n/a	n/a	GoodResponse	0	n/a	n/a	13	77	Blank	AvoidedLoss	True
732.121	1.45	Lose2	0.6667000000000001	n/a	Yes	2.577	n/a	5.0	GoodResponse	0	0.043	731.164	13	77	Feedback	AvoidedLoss	True
733.57	2.577	Lose2	0.6667000000000001	n/a	Yes	2.577	n/a	n/a	GoodResponse	0	0.0	n/a	13	77	ISIslide	AvoidedLoss	True
