onset	duration	cue_type	current_mean_accuracy	duration_error	is_hit	isi_adjusted	onset_delay	response	response_type	reward	rt	rt_time	total_reward	trial_number	trial_phase	trial_type	one_press
11.1	0.25	Control	1.0	0.0	Yes	2.95	0.0	n/a	GoodResponse	0	n/a	n/a	0	0	Cue	Neutral	True
11.35	3.85	Control	1.0	0.0	Yes	2.95	0.0	n/a	GoodResponse	0	n/a	n/a	0	0	Fixation	Neutral	True
15.199	0.4	Control	1.0	0.001	Yes	2.95	-0.001	2.0	GoodResponse	0	0.172	14.371	0	0	Target	Neutral	True
15.371	0.3	Control	1.0	0.001	Yes	2.95	-0.001	2.0	GoodResponse	0	0.172	n/a	0	0	ButtonPress	Neutral	True
15.599	0.3	Control	1.0	n/a	Yes	2.95	n/a	n/a	GoodResponse	0	n/a	n/a	0	0	Blank	Neutral	True
15.898	1.45	Control	1.0	n/a	Yes	2.95	n/a	5.0	GoodResponse	0	0.028	14.926	0	0	Feedback	Neutral	True
17.348	2.95	Control	1.0	n/a	Yes	2.95	n/a	n/a	GoodResponse	0	0.0	n/a	0	0	ISIslide	Neutral	True
20.314	0.25	Lose2	1.0	0.0	Yes	2.786	0.014	n/a	GoodResponse	0	n/a	n/a	0	1	Cue	AvoidedLoss	True
20.564	4.0	Lose2	1.0	0.0	Yes	2.786	0.0	n/a	GoodResponse	0	n/a	n/a	0	1	Fixation	AvoidedLoss	True
24.562	0.39	Lose2	1.0	0.002	Yes	2.786	-0.002	2.0	GoodResponse	0	0.191	23.753	0	1	Target	AvoidedLoss	True
24.753	0.3	Lose2	1.0	0.002	Yes	2.786	-0.002	2.0	GoodResponse	0	0.191	n/a	0	1	ButtonPress	AvoidedLoss	True
24.962	0.31	Lose2	1.0	n/a	Yes	2.786	n/a	n/a	GoodResponse	0	n/a	n/a	0	1	Blank	AvoidedLoss	True
25.262	1.45	Lose2	1.0	n/a	Yes	2.786	n/a	5.0	GoodResponse	0	0.03	24.292	0	1	Feedback	AvoidedLoss	True
26.711	2.786	Lose2	1.0	n/a	Yes	2.786	n/a	n/a	GoodResponse	0	0.0	n/a	0	1	ISIslide	AvoidedLoss	True
29.527	0.25	Control	1.0	0.0	Yes	2.573	0.027	n/a	GoodResponse	0	n/a	n/a	0	2	Cue	Neutral	True
29.777	4.1	Control	1.0	0.0	Yes	2.573	0.0	n/a	GoodResponse	0	n/a	n/a	0	2	Fixation	Neutral	True
33.875	0.38	Control	1.0	0.002	Yes	2.573	-0.002	2.0	GoodResponse	0	0.28	33.155	0	2	Target	Neutral	True
34.155	0.3	Control	1.0	0.002	Yes	2.573	-0.002	2.0	GoodResponse	0	0.28	n/a	0	2	ButtonPress	Neutral	True
34.259	0.32	Control	1.0	n/a	Yes	2.573	n/a	n/a	GoodResponse	0	n/a	n/a	0	2	Blank	Neutral	True
34.575	1.45	Control	1.0	n/a	Yes	2.573	n/a	5.0	GoodResponse	0	0.034	33.609	0	2	Feedback	Neutral	True
36.025	2.573	Control	1.0	n/a	Yes	2.573	n/a	n/a	GoodResponse	0	0.0	n/a	0	2	ISIslide	Neutral	True
38.624	0.25	Win2	1.0	0.0	Yes	2.826	0.024	n/a	GoodResponse	1	n/a	n/a	1	3	Cue	Win	True
38.874	3.95	Win2	1.0	0.0	Yes	2.826	0.0	n/a	GoodResponse	1	n/a	n/a	1	3	Fixation	Win	True
42.822	0.37	Win2	1.0	0.002	Yes	2.826	-0.002	2.0	GoodResponse	1	0.228	42.05	1	3	Target	Win	True
43.05	0.3	Win2	1.0	0.002	Yes	2.826	-0.002	2.0	GoodResponse	1	0.228	n/a	1	3	ButtonPress	Win	True
43.206	0.33	Win2	1.0	n/a	Yes	2.826	n/a	n/a	GoodResponse	1	n/a	n/a	1	3	Blank	Win	True
43.522	1.45	Win2	1.0	n/a	Yes	2.826	n/a	5.0	GoodResponse	1	0.014	42.536	1	3	Feedback	Win	True
44.972	2.826	Win2	1.0	n/a	Yes	2.826	n/a	n/a	GoodResponse	1	0.0	n/a	1	3	ISIslide	Win	True
47.821	0.25	Win2	1.0	0.0	Yes	3.279	0.021	n/a	GoodResponse	1	n/a	n/a	2	4	Cue	Win	True
48.07	4.0	Win2	1.0	0.001	Yes	3.279	-0.001	n/a	GoodResponse	1	n/a	n/a	2	4	Fixation	Win	True
52.069	0.36	Win2	1.0	0.002	Yes	3.279	-0.002	2.0	GoodResponse	1	0.224	51.293	2	4	Target	Win	True
52.293	0.3	Win2	1.0	0.002	Yes	3.279	-0.002	2.0	GoodResponse	1	0.224	n/a	2	4	ButtonPress	Win	True
52.436	0.34	Win2	1.0	n/a	Yes	3.279	n/a	n/a	GoodResponse	1	n/a	n/a	2	4	Blank	Win	True
52.769	1.45	Win2	1.0	n/a	Yes	3.279	n/a	5.0	GoodResponse	1	0.035	51.804	2	4	Feedback	Win	True
54.218	3.279	Win2	1.0	n/a	Yes	3.279	n/a	n/a	GoodResponse	1	0.0	n/a	2	4	ISIslide	Win	True
57.517	0.25	Win2	1.0	0.0	Yes	2.783	0.017	n/a	GoodResponse	1	n/a	n/a	3	5	Cue	Win	True
57.767	4.0	Win2	1.0	0.0	Yes	2.783	0.0	n/a	GoodResponse	1	n/a	n/a	3	5	Fixation	Win	True
61.766	0.35	Win2	1.0	0.001	Yes	2.783	-0.001	2.0	GoodResponse	1	0.232	60.998	3	5	Target	Win	True
61.998	0.3	Win2	1.0	0.001	Yes	2.783	-0.001	2.0	GoodResponse	1	0.232	n/a	3	5	ButtonPress	Win	True
62.116	0.35	Win2	1.0	n/a	Yes	2.783	n/a	n/a	GoodResponse	1	n/a	n/a	3	5	Blank	Win	True
62.465	1.45	Win2	1.0	n/a	Yes	2.783	n/a	5.0	GoodResponse	1	0.046	61.511	3	5	Feedback	Win	True
63.915	2.783	Win2	1.0	n/a	Yes	2.783	n/a	n/a	GoodResponse	1	0.0	n/a	3	5	ISIslide	Win	True
66.714	0.25	Lose2	1.0	0.0	Yes	2.736	0.014	n/a	GoodResponse	0	n/a	n/a	3	6	Cue	AvoidedLoss	True
66.964	3.95	Lose2	1.0	0.0	Yes	2.736	0.0	n/a	GoodResponse	0	n/a	n/a	3	6	Fixation	AvoidedLoss	True
70.912	0.34	Lose2	1.0	0.002	Yes	2.736	-0.002	2.0	GoodResponse	0	0.195	70.107	3	6	Target	AvoidedLoss	True
71.107	0.3	Lose2	1.0	0.002	Yes	2.736	-0.002	2.0	GoodResponse	0	0.195	n/a	3	6	ButtonPress	AvoidedLoss	True
71.262	0.36	Lose2	1.0	n/a	Yes	2.736	n/a	n/a	GoodResponse	0	n/a	n/a	3	6	Blank	AvoidedLoss	True
71.612	1.45	Lose2	1.0	n/a	Yes	2.736	n/a	5.0	GoodResponse	0	0.021	70.633	3	6	Feedback	AvoidedLoss	True
73.062	2.736	Lose2	1.0	n/a	Yes	2.736	n/a	n/a	GoodResponse	0	0.0	n/a	3	6	ISIslide	AvoidedLoss	True
75.827	0.25	Lose2	1.0	0.0	Yes	4.023	0.027	n/a	GoodResponse	0	n/a	n/a	3	7	Cue	AvoidedLoss	True
76.077	4.05	Lose2	1.0	0.0	Yes	4.023	0.0	n/a	GoodResponse	0	n/a	n/a	3	7	Fixation	AvoidedLoss	True
80.126	0.33	Lose2	1.0	0.001	Yes	4.023	-0.001	2.0	GoodResponse	0	0.2	79.326	3	7	Target	AvoidedLoss	True
80.326	0.3	Lose2	1.0	0.001	Yes	4.023	-0.001	2.0	GoodResponse	0	0.2	n/a	3	7	ButtonPress	AvoidedLoss	True
80.459	0.37	Lose2	1.0	n/a	Yes	4.023	n/a	n/a	GoodResponse	0	n/a	n/a	3	7	Blank	AvoidedLoss	True
80.826	1.45	Lose2	1.0	n/a	Yes	4.023	n/a	5.0	GoodResponse	0	0.026	79.852	3	7	Feedback	AvoidedLoss	True
82.275	4.023	Lose2	1.0	n/a	Yes	4.023	n/a	n/a	GoodResponse	0	0.0	n/a	3	7	ISIslide	AvoidedLoss	True
86.324	0.25	Lose2	1.0	0.0	Yes	3.026	0.024	n/a	GoodResponse	0	n/a	n/a	3	8	Cue	AvoidedLoss	True
86.574	3.95	Lose2	1.0	0.0	Yes	3.026	0.0	n/a	GoodResponse	0	n/a	n/a	3	8	Fixation	AvoidedLoss	True
90.522	0.32	Lose2	1.0	0.002	Yes	3.026	-0.002	2.0	GoodResponse	0	0.214	89.736	3	8	Target	AvoidedLoss	True
90.736	0.3	Lose2	1.0	0.002	Yes	3.026	-0.002	2.0	GoodResponse	0	0.214	n/a	3	8	ButtonPress	AvoidedLoss	True
90.855	0.38	Lose2	1.0	n/a	Yes	3.026	n/a	n/a	GoodResponse	0	n/a	n/a	3	8	Blank	AvoidedLoss	True
91.222	1.45	Lose2	1.0	n/a	Yes	3.026	n/a	5.0	GoodResponse	0	0.021	90.243	3	8	Feedback	AvoidedLoss	True
92.671	3.026	Lose2	1.0	n/a	Yes	3.026	n/a	n/a	GoodResponse	0	0.0	n/a	3	8	ISIslide	AvoidedLoss	True
95.72	0.25	Lose2	1.0	0.0	Yes	3.13	0.02	n/a	GoodResponse	0	n/a	n/a	3	9	Cue	AvoidedLoss	True
95.97	3.95	Lose2	1.0	0.0	Yes	3.13	0.0	n/a	GoodResponse	0	n/a	n/a	3	9	Fixation	AvoidedLoss	True
99.919	0.31	Lose2	1.0	0.001	Yes	3.13	-0.001	2.0	GoodResponse	0	0.17	99.089	3	9	Target	AvoidedLoss	True
100.089	0.3	Lose2	1.0	0.001	Yes	3.13	-0.001	2.0	GoodResponse	0	0.17	n/a	3	9	ButtonPress	AvoidedLoss	True
100.235	0.39	Lose2	1.0	n/a	Yes	3.13	n/a	n/a	GoodResponse	0	n/a	n/a	3	9	Blank	AvoidedLoss	True
100.619	1.45	Lose2	1.0	n/a	Yes	3.13	n/a	5.0	GoodResponse	0	0.038	99.657	3	9	Feedback	AvoidedLoss	True
102.068	3.13	Lose2	1.0	n/a	Yes	3.13	n/a	n/a	GoodResponse	0	0.0	n/a	3	9	ISIslide	AvoidedLoss	True
105.217	0.25	Control	1.0	0.0	Yes	3.283	0.017	n/a	GoodResponse	0	n/a	n/a	3	10	Cue	Neutral	True
105.467	4.0	Control	1.0	0.0	Yes	3.283	0.0	n/a	GoodResponse	0	n/a	n/a	3	10	Fixation	Neutral	True
109.466	0.3	Control	1.0	0.001	Yes	3.283	-0.001	2.0	GoodResponse	0	0.231	108.697	3	10	Target	Neutral	True
109.697	0.3	Control	1.0	0.001	Yes	3.283	-0.001	2.0	GoodResponse	0	0.231	n/a	3	10	ButtonPress	Neutral	True
109.765	0.4	Control	1.0	n/a	Yes	3.283	n/a	n/a	GoodResponse	0	n/a	n/a	3	10	Blank	Neutral	True
110.165	1.45	Control	1.0	n/a	Yes	3.283	n/a	5.0	GoodResponse	0	0.006	109.171	3	10	Feedback	Neutral	True
111.615	3.283	Control	1.0	n/a	Yes	3.283	n/a	n/a	GoodResponse	0	0.0	n/a	3	10	ISIslide	Neutral	True
114.914	0.25	Lose2	1.0	0.0	Yes	2.736	0.014	n/a	GoodResponse	0	n/a	n/a	3	11	Cue	AvoidedLoss	True
115.164	4.05	Lose2	1.0	0.0	Yes	2.736	0.0	n/a	GoodResponse	0	n/a	n/a	3	11	Fixation	AvoidedLoss	True
119.212	0.29	Lose2	1.0	0.002	Yes	2.736	-0.002	2.0	GoodResponse	0	0.184	118.396	3	11	Target	AvoidedLoss	True
119.396	0.3	Lose2	1.0	0.002	Yes	2.736	-0.002	2.0	GoodResponse	0	0.184	n/a	3	11	ButtonPress	AvoidedLoss	True
119.512	0.41	Lose2	1.0	n/a	Yes	2.736	n/a	n/a	GoodResponse	0	n/a	n/a	3	11	Blank	AvoidedLoss	True
119.912	1.45	Lose2	1.0	n/a	Yes	2.736	n/a	5.0	GoodResponse	0	0.013	118.925	3	11	Feedback	AvoidedLoss	True
121.361	2.736	Lose2	1.0	n/a	Yes	2.736	n/a	n/a	GoodResponse	0	0.0	n/a	3	11	ISIslide	AvoidedLoss	True
124.127	0.25	Control	1.0	0.0	Yes	2.973	0.027	n/a	GoodResponse	0	n/a	n/a	3	12	Cue	Neutral	True
124.377	3.9	Control	1.0	0.0	Yes	2.973	0.0	n/a	GoodResponse	0	n/a	n/a	3	12	Fixation	Neutral	True
128.276	0.28	Control	1.0	0.001	Yes	2.973	-0.001	2.0	GoodResponse	0	0.199	127.475	3	12	Target	Neutral	True
128.475	0.3	Control	1.0	0.001	Yes	2.973	-0.001	2.0	GoodResponse	0	0.199	n/a	3	12	ButtonPress	Neutral	True
128.559	0.42	Control	1.0	n/a	Yes	2.973	n/a	n/a	GoodResponse	0	n/a	n/a	3	12	Blank	Neutral	True
128.975	1.45	Control	1.0	n/a	Yes	2.973	n/a	5.0	GoodResponse	0	0.023	127.998	3	12	Feedback	Neutral	True
130.425	2.973	Control	1.0	n/a	Yes	2.973	n/a	n/a	GoodResponse	0	0.0	n/a	3	12	ISIslide	Neutral	True
133.424	0.25	Control	0.9286	0.0	No	2.776	0.024	n/a	NoResponse	0	n/a	n/a	3	13	Cue	Neutral	True
133.674	4.0	Control	0.9286	0.0	No	2.776	0.0	2.0	NoResponse	0	3.957	136.631	3	13	Fixation	Neutral	True
137.631	0.3	Control	0.9286	0.0	No	2.776	0.0	2.0	NoResponse	0	3.957	n/a	3	13	ButtonPress	Neutral	True
137.672	0.27	Control	0.9286	0.002	No	2.776	-0.002	n/a	NoResponse	0	n/a	n/a	3	13	Target	Neutral	True
137.955	0.43	Control	0.9286	n/a	No	2.776	n/a	n/a	NoResponse	0	n/a	n/a	3	13	Blank	Neutral	True
138.372	1.45	Control	0.9286	n/a	No	2.776	n/a	5.0	NoResponse	0	0.041	137.413	3	13	Feedback	Neutral	True
139.821	2.776	Control	0.9286	n/a	No	2.776	n/a	n/a	NoResponse	0	0.0	n/a	3	13	ISIslide	Neutral	True
142.621	0.25	Win2	0.9333	0.0	Yes	2.679	0.021	n/a	GoodResponse	1	n/a	n/a	4	14	Cue	Win	True
142.87	4.1	Win2	0.9333	0.001	Yes	2.679	-0.001	n/a	GoodResponse	1	n/a	n/a	4	14	Fixation	Win	True
146.969	0.26	Win2	0.9333	0.002	Yes	2.679	-0.002	2.0	GoodResponse	1	0.21	146.179	4	14	Target	Win	True
147.179	0.3	Win2	0.9333	0.002	Yes	2.679	-0.002	2.0	GoodResponse	1	0.21	n/a	4	14	ButtonPress	Win	True
147.236	0.44	Win2	0.9333	n/a	Yes	2.679	n/a	n/a	GoodResponse	1	n/a	n/a	4	14	Blank	Win	True
147.669	1.45	Win2	0.9333	n/a	Yes	2.679	n/a	5.0	GoodResponse	1	0.012	146.681	4	14	Feedback	Win	True
149.118	2.679	Win2	0.9333	n/a	Yes	2.679	n/a	n/a	GoodResponse	1	0.0	n/a	4	14	ISIslide	Win	True
151.817	0.25	Control	0.9375	0.0	Yes	2.983	0.017	n/a	GoodResponse	0	n/a	n/a	4	15	Cue	Neutral	True
152.067	4.0	Control	0.9375	0.0	Yes	2.983	0.0	n/a	GoodResponse	0	n/a	n/a	4	15	Fixation	Neutral	True
156.066	0.25	Control	0.9375	0.001	Yes	2.983	-0.001	2.0	GoodResponse	0	0.229	155.295	4	15	Target	Neutral	True
156.295	0.3	Control	0.9375	0.001	Yes	2.983	-0.001	2.0	GoodResponse	0	0.229	n/a	4	15	ButtonPress	Neutral	True
156.316	0.45	Control	0.9375	n/a	Yes	2.983	n/a	n/a	GoodResponse	0	n/a	n/a	4	15	Blank	Neutral	True
156.766	1.45	Control	0.9375	n/a	Yes	2.983	n/a	5.0	GoodResponse	0	0.037	155.803	4	15	Feedback	Neutral	True
158.215	2.983	Control	0.9375	n/a	Yes	2.983	n/a	n/a	GoodResponse	0	0.0	n/a	4	15	ISIslide	Neutral	True
161.214	0.25	Win2	0.8824	0.0	No	2.886	0.014	n/a	NoResponse	0	n/a	n/a	4	16	Cue	MissedWin	True
161.464	4.0	Win2	0.8824	0.0	No	2.886	0.0	2.0	NoResponse	0	3.533	163.997	4	16	Fixation	MissedWin	True
164.997	0.3	Win2	0.8824	0.0	No	2.886	0.0	2.0	NoResponse	0	3.533	n/a	4	16	ButtonPress	MissedWin	True
165.462	0.24	Win2	0.8824	0.002	No	2.886	-0.002	n/a	NoResponse	0	n/a	n/a	4	16	Target	MissedWin	True
165.712	0.46	Win2	0.8824	n/a	No	2.886	n/a	n/a	NoResponse	0	n/a	n/a	4	16	Blank	MissedWin	True
166.162	1.45	Win2	0.8824	n/a	No	2.886	n/a	5.0	NoResponse	0	0.006	165.168	4	16	Feedback	MissedWin	True
167.612	2.886	Win2	0.8824	n/a	No	2.886	n/a	n/a	NoResponse	0	0.0	n/a	4	16	ISIslide	MissedWin	True
170.527	0.25	Lose2	0.8889	0.0	Yes	2.723	0.027	n/a	GoodResponse	0	n/a	n/a	4	17	Cue	AvoidedLoss	True
170.777	3.95	Lose2	0.8889	0.0	Yes	2.723	0.0	n/a	GoodResponse	0	n/a	n/a	4	17	Fixation	AvoidedLoss	True
174.726	0.23	Lose2	0.8889	0.001	Yes	2.723	-0.001	2.0	GoodResponse	0	0.222	173.948	4	17	Target	AvoidedLoss	True
174.948	0.3	Lose2	0.8889	0.001	Yes	2.723	-0.001	2.0	GoodResponse	0	0.222	n/a	4	17	ButtonPress	AvoidedLoss	True
174.959	0.47	Lose2	0.8889	n/a	Yes	2.723	n/a	n/a	GoodResponse	0	n/a	n/a	4	17	Blank	AvoidedLoss	True
175.426	1.45	Lose2	0.8889	n/a	Yes	2.723	n/a	5.0	GoodResponse	0	0.011	174.437	4	17	Feedback	AvoidedLoss	True
176.875	2.723	Lose2	0.8889	n/a	Yes	2.723	n/a	n/a	GoodResponse	0	0.0	n/a	4	17	ISIslide	AvoidedLoss	True
179.624	0.25	Lose2	0.8421	0.0	No	2.726	0.024	n/a	LatePress	-1	n/a	n/a	3	18	Cue	Loss	True
179.874	4.05	Lose2	0.8421	0.0	No	2.726	0.0	n/a	LatePress	-1	n/a	n/a	3	18	Fixation	Loss	True
183.923	0.22	Lose2	0.8421	0.001	No	2.726	-0.001	2.0	LatePress	-1	0.229	183.152	3	18	Target	Loss	True
184.152	0.3	Lose2	0.8421	0.001	No	2.726	-0.001	2.0	LatePress	-1	0.229	n/a	3	18	ButtonPress	Loss	True
184.156	0.48	Lose2	0.8421	n/a	No	2.726	n/a	n/a	LatePress	-1	n/a	n/a	3	18	Blank	Loss	True
184.622	1.45	Lose2	0.8421	n/a	No	2.726	n/a	5.0	LatePress	-1	0.034	183.656	3	18	Feedback	Loss	True
186.072	2.726	Lose2	0.8421	n/a	No	2.726	n/a	n/a	LatePress	-1	0.0	n/a	3	18	ISIslide	Loss	True
188.821	0.25	Control	0.85	0.0	Yes	2.929	0.021	n/a	GoodResponse	0	n/a	n/a	3	19	Cue	Neutral	True
189.071	3.95	Control	0.85	0.0	Yes	2.929	0.0	n/a	GoodResponse	0	n/a	n/a	3	19	Fixation	Neutral	True
193.019	0.21	Control	0.85	0.002	Yes	2.929	-0.002	2.0	GoodResponse	0	0.204	192.223	3	19	Target	Neutral	True
193.223	0.3	Control	0.85	0.002	Yes	2.929	-0.002	2.0	GoodResponse	0	0.204	n/a	3	19	ButtonPress	Neutral	True
193.236	0.49	Control	0.85	n/a	Yes	2.929	n/a	n/a	GoodResponse	0	n/a	n/a	3	19	Blank	Neutral	True
193.719	1.45	Control	0.85	n/a	Yes	2.929	n/a	5.0	GoodResponse	0	0.011	192.73	3	19	Feedback	Neutral	True
195.169	2.929	Control	0.85	n/a	Yes	2.929	n/a	n/a	GoodResponse	0	0.0	n/a	3	19	ISIslide	Neutral	True
198.118	0.25	Control	0.8571	0.0	Yes	2.632	0.018	n/a	GoodResponse	0	n/a	n/a	3	20	Cue	Neutral	True
198.368	4.05	Control	0.8571	0.0	Yes	2.632	0.0	n/a	GoodResponse	0	n/a	n/a	3	20	Fixation	Neutral	True
202.416	0.2	Control	0.8571	0.002	Yes	2.632	-0.002	2.0	GoodResponse	0	0.185	201.601	3	20	Target	Neutral	True
202.601	0.3	Control	0.8571	0.002	Yes	2.632	-0.002	2.0	GoodResponse	0	0.185	n/a	3	20	ButtonPress	Neutral	True
202.616	0.5	Control	0.8571	n/a	Yes	2.632	n/a	n/a	GoodResponse	0	n/a	n/a	3	20	Blank	Neutral	True
203.116	1.45	Control	0.8571	n/a	Yes	2.632	n/a	5.0	GoodResponse	0	0.028	202.144	3	20	Feedback	Neutral	True
204.565	2.632	Control	0.8571	n/a	Yes	2.632	n/a	n/a	GoodResponse	0	0.0	n/a	3	20	ISIslide	Neutral	True
207.214	0.25	Control	0.8181999999999999	0.001	No	2.786	0.014	n/a	LatePress	0	n/a	n/a	3	21	Cue	Neutral	True
207.464	4.1	Control	0.8181999999999999	0.0	No	2.786	0.0	n/a	LatePress	0	n/a	n/a	3	21	Fixation	Neutral	True
211.563	0.19	Control	0.8181999999999999	0.001	No	2.786	-0.001	2.0	LatePress	0	0.196	210.759	3	21	Target	Neutral	True
211.759	0.3	Control	0.8181999999999999	0.001	No	2.786	-0.001	2.0	LatePress	0	0.196	n/a	3	21	ButtonPress	Neutral	True
211.763	0.51	Control	0.8181999999999999	n/a	No	2.786	n/a	n/a	LatePress	0	n/a	n/a	3	21	Blank	Neutral	True
212.263	1.45	Control	0.8181999999999999	n/a	No	2.786	n/a	5.0	LatePress	0	0.004	211.267	3	21	Feedback	Neutral	True
213.712	2.786	Control	0.8181999999999999	n/a	No	2.786	n/a	n/a	LatePress	0	0.0	n/a	3	21	ISIslide	Neutral	True
216.511	0.25	Control	0.7826000000000001	0.0	No	2.789	0.011	n/a	NoResponse	0	n/a	n/a	3	22	Cue	Neutral	True
216.761	4.0	Control	0.7826000000000001	0.0	No	2.789	0.0	n/a	NoResponse	0	n/a	n/a	3	22	Fixation	Neutral	True
220.76	0.18	Control	0.7826000000000001	0.001	No	2.789	-0.001	2.0	NoResponse	0	0.208	219.968	3	22	Target	Neutral	True
220.943	0.52	Control	0.7826000000000001	n/a	No	2.789	n/a	n/a	NoResponse	0	n/a	n/a	3	22	Blank	Neutral	True
220.968	0.3	Control	0.7826000000000001	0.001	No	2.789	-0.001	2.0	NoResponse	0	0.208	n/a	3	22	ButtonPress	Neutral	True
221.459	1.45	Control	0.7826000000000001	n/a	No	2.789	n/a	5.0	NoResponse	0	0.026	220.485	3	22	Feedback	Neutral	True
222.909	2.789	Control	0.7826000000000001	n/a	No	2.789	n/a	n/a	NoResponse	0	0.0	n/a	3	22	ISIslide	Neutral	True
225.725	0.25	Control	0.75	0.0	No	2.775	0.025	n/a	NoResponse	0	n/a	n/a	3	23	Cue	Neutral	True
225.974	3.9	Control	0.75	0.001	No	2.775	-0.001	n/a	NoResponse	0	n/a	n/a	3	23	Fixation	Neutral	True
229.873	0.17	Control	0.75	0.002	No	2.775	-0.002	2.0	NoResponse	0	0.188	229.061	3	23	Target	Neutral	True
230.056	0.53	Control	0.75	n/a	No	2.775	n/a	n/a	NoResponse	0	n/a	n/a	3	23	Blank	Neutral	True
230.061	0.3	Control	0.75	0.002	No	2.775	-0.002	2.0	NoResponse	0	0.188	n/a	3	23	ButtonPress	Neutral	True
230.573	1.45	Control	0.75	n/a	No	2.775	n/a	5.0	NoResponse	0	0.034	229.607	3	23	Feedback	Neutral	True
232.022	2.775	Control	0.75	n/a	No	2.775	n/a	n/a	NoResponse	0	0.0	n/a	3	23	ISIslide	Neutral	True
234.821	0.25	Win2	0.72	0.0	No	3.129	0.021	n/a	NoResponse	0	n/a	n/a	3	24	Cue	MissedWin	True
235.071	3.95	Win2	0.72	0.0	No	3.129	0.0	n/a	NoResponse	0	n/a	n/a	3	24	Fixation	MissedWin	True
239.02	0.16	Win2	0.72	0.001	No	3.129	-0.001	2.0	NoResponse	0	0.194	238.214	3	24	Target	MissedWin	True
239.186	0.54	Win2	0.72	n/a	No	3.129	n/a	n/a	NoResponse	0	n/a	n/a	3	24	Blank	MissedWin	True
239.214	0.3	Win2	0.72	0.001	No	3.129	-0.001	2.0	NoResponse	0	0.194	n/a	3	24	ButtonPress	MissedWin	True
239.72	1.45	Win2	0.72	n/a	No	3.129	n/a	5.0	NoResponse	0	0.009	238.729	3	24	Feedback	MissedWin	True
241.169	3.129	Win2	0.72	n/a	No	3.129	n/a	n/a	NoResponse	0	0.0	n/a	3	24	ISIslide	MissedWin	True
244.318	0.25	Win2	0.6923	0.0	No	3.082	0.018	n/a	NoResponse	0	n/a	n/a	3	25	Cue	MissedWin	True
244.568	4.0	Win2	0.6923	0.0	No	3.082	0.0	n/a	NoResponse	0	n/a	n/a	3	25	Fixation	MissedWin	True
248.567	0.15	Win2	0.6923	0.001	No	3.082	-0.001	2.0	NoResponse	0	0.156	247.723	3	25	Target	MissedWin	True
248.716	0.55	Win2	0.6923	n/a	No	3.082	n/a	n/a	NoResponse	0	n/a	n/a	3	25	Blank	MissedWin	True
248.723	0.3	Win2	0.6923	0.001	No	3.082	-0.001	2.0	NoResponse	0	0.156	n/a	3	25	ButtonPress	MissedWin	True
249.266	1.45	Win2	0.6923	n/a	No	3.082	n/a	5.0	NoResponse	0	0.023	248.289	3	25	Feedback	MissedWin	True
250.716	3.082	Win2	0.6923	n/a	No	3.082	n/a	n/a	NoResponse	0	0.0	n/a	3	25	ISIslide	MissedWin	True
253.815	0.25	Win2	0.6667000000000001	0.0	No	2.935	0.015	n/a	NoResponse	0	n/a	n/a	3	26	Cue	MissedWin	True
254.065	3.95	Win2	0.6667000000000001	0.0	No	2.935	0.0	n/a	NoResponse	0	n/a	n/a	3	26	Fixation	MissedWin	True
258.013	0.15	Win2	0.6667000000000001	0.002	No	2.935	-0.002	2.0	NoResponse	0	0.172	257.185	3	26	Target	MissedWin	True
258.163	0.55	Win2	0.6667000000000001	n/a	No	2.935	n/a	n/a	NoResponse	0	n/a	n/a	3	26	Blank	MissedWin	True
258.185	0.3	Win2	0.6667000000000001	0.002	No	2.935	-0.002	2.0	NoResponse	0	0.172	n/a	3	26	ButtonPress	MissedWin	True
258.713	1.45	Win2	0.6667000000000001	n/a	No	2.935	n/a	5.0	NoResponse	0	0.04	257.753	3	26	Feedback	MissedWin	True
260.162	2.935	Win2	0.6667000000000001	n/a	No	2.935	n/a	n/a	NoResponse	0	0.0	n/a	3	26	ISIslide	MissedWin	True
263.111	0.25	Lose2	0.6429	0.0	No	2.839	0.011	n/a	NoResponse	-1	n/a	n/a	2	27	Cue	Loss	False
263.361	4.05	Lose2	0.6429	0.0	No	2.839	0.0	2.0	NoResponse	-1	3.793	266.154	2	27	Fixation	Loss	False
267.154	0.3	Lose2	0.6429	0.0	No	2.839	0.0	2.0	NoResponse	-1	3.793	n/a	2	27	ButtonPress	Loss	False
267.41	0.15	Lose2	0.6429	0.001	No	2.839	-0.001	2.0	NoResponse	-1	0.159	266.569	2	27	Target	Loss	False
267.56	0.55	Lose2	0.6429	n/a	No	2.839	n/a	n/a	NoResponse	-1	n/a	n/a	2	27	Blank	Loss	False
267.569	0.3	Lose2	0.6429	0.001	No	2.839	-0.001	2.0	NoResponse	-1	0.159	n/a	2	27	ButtonPress	Loss	False
268.11	1.45	Lose2	0.6429	n/a	No	2.839	n/a	5.0	NoResponse	-1	0.009	267.119	2	27	Feedback	Loss	False
269.559	2.839	Lose2	0.6429	n/a	No	2.839	n/a	n/a	NoResponse	-1	0.0	n/a	2	27	ISIslide	Loss	False
272.425	0.25	Control	0.6207	0.0	No	2.825	0.025	n/a	NoResponse	0	n/a	n/a	2	28	Cue	Neutral	True
272.675	4.05	Control	0.6207	0.0	No	2.825	0.0	n/a	NoResponse	0	n/a	n/a	2	28	Fixation	Neutral	True
276.723	0.16	Control	0.6207	0.002	No	2.825	-0.002	2.0	NoResponse	0	0.215	275.938	2	28	Target	Neutral	True
276.89	0.54	Control	0.6207	n/a	No	2.825	n/a	n/a	NoResponse	0	n/a	n/a	2	28	Blank	Neutral	True
276.938	0.3	Control	0.6207	0.002	No	2.825	-0.002	2.0	NoResponse	0	0.215	n/a	2	28	ButtonPress	Neutral	True
277.423	1.45	Control	0.6207	n/a	No	2.825	n/a	5.0	NoResponse	0	0.013	276.436	2	28	Feedback	Neutral	True
278.873	2.825	Control	0.6207	n/a	No	2.825	n/a	n/a	NoResponse	0	0.0	n/a	2	28	ISIslide	Neutral	True
281.722	0.25	Lose2	0.6	0.0	No	2.828	0.022	n/a	NoResponse	-1	n/a	n/a	1	29	Cue	Loss	True
281.971	3.95	Lose2	0.6	0.001	No	2.828	-0.001	2.0	NoResponse	-1	3.121	284.092	1	29	Fixation	Loss	True
285.092	0.3	Lose2	0.6	0.001	No	2.828	-0.001	2.0	NoResponse	-1	3.121	n/a	1	29	ButtonPress	Loss	True
285.92	0.17	Lose2	0.6	0.002	No	2.828	-0.002	n/a	NoResponse	-1	n/a	n/a	1	29	Target	Loss	True
286.103	0.53	Lose2	0.6	n/a	No	2.828	n/a	n/a	NoResponse	-1	n/a	n/a	1	29	Blank	Loss	True
286.62	1.45	Lose2	0.6	n/a	No	2.828	n/a	5.0	NoResponse	-1	0.036	285.656	1	29	Feedback	Loss	True
288.069	2.828	Lose2	0.6	n/a	No	2.828	n/a	n/a	NoResponse	-1	0.0	n/a	1	29	ISIslide	Loss	True
290.918	0.25	Win2	0.5806	0.0	No	2.782	0.018	n/a	NoResponse	0	n/a	n/a	1	30	Cue	MissedWin	True
291.168	3.9	Win2	0.5806	0.0	No	2.782	0.0	n/a	NoResponse	0	n/a	n/a	1	30	Fixation	MissedWin	True
295.067	0.18	Win2	0.5806	0.001	No	2.782	-0.001	2.0	NoResponse	0	0.213	294.28	1	30	Target	MissedWin	True
295.25	0.52	Win2	0.5806	n/a	No	2.782	n/a	n/a	NoResponse	0	n/a	n/a	1	30	Blank	MissedWin	True
295.28	0.3	Win2	0.5806	0.001	No	2.782	-0.001	2.0	NoResponse	0	0.213	n/a	1	30	ButtonPress	MissedWin	True
295.767	1.45	Win2	0.5806	n/a	No	2.782	n/a	5.0	NoResponse	0	0.01	294.777	1	30	Feedback	MissedWin	True
297.216	2.782	Win2	0.5806	n/a	No	2.782	n/a	n/a	NoResponse	0	0.0	n/a	1	30	ISIslide	MissedWin	True
300.015	0.25	Lose2	0.5625	0.0	No	2.835	0.015	n/a	NoResponse	-1	n/a	n/a	0	31	Cue	Loss	True
300.265	4.05	Lose2	0.5625	0.0	No	2.835	0.0	n/a	NoResponse	-1	n/a	n/a	0	31	Fixation	Loss	True
304.314	0.19	Lose2	0.5625	0.001	No	2.835	-0.001	2.0	NoResponse	-1	0.211	303.525	0	31	Target	Loss	True
304.513	0.51	Lose2	0.5625	n/a	No	2.835	n/a	n/a	NoResponse	-1	n/a	n/a	0	31	Blank	Loss	True
304.525	0.3	Lose2	0.5625	0.001	No	2.835	-0.001	2.0	NoResponse	-1	0.211	n/a	0	31	ButtonPress	Loss	True
305.013	1.45	Lose2	0.5625	n/a	No	2.835	n/a	5.0	NoResponse	-1	0.032	304.045	0	31	Feedback	Loss	True
306.463	2.835	Lose2	0.5625	n/a	No	2.835	n/a	n/a	NoResponse	-1	0.0	n/a	0	31	ISIslide	Loss	True
309.312	0.25	Lose2	0.5758	0.0	Yes	2.638	0.012	n/a	GoodResponse	0	n/a	n/a	0	32	Cue	AvoidedLoss	True
309.562	4.15	Lose2	0.5758	0.0	Yes	2.638	0.0	n/a	GoodResponse	0	n/a	n/a	0	32	Fixation	AvoidedLoss	True
313.71	0.2	Lose2	0.5758	0.002	Yes	2.638	-0.002	2.0	GoodResponse	0	0.185	312.895	0	32	Target	AvoidedLoss	True
313.895	0.3	Lose2	0.5758	0.002	Yes	2.638	-0.002	2.0	GoodResponse	0	0.185	n/a	0	32	ButtonPress	AvoidedLoss	True
313.91	0.5	Lose2	0.5758	n/a	Yes	2.638	n/a	n/a	GoodResponse	0	n/a	n/a	0	32	Blank	AvoidedLoss	True
314.41	1.45	Lose2	0.5758	n/a	Yes	2.638	n/a	5.0	GoodResponse	0	0.001	313.411	0	32	Feedback	AvoidedLoss	True
315.859	2.638	Lose2	0.5758	n/a	Yes	2.638	n/a	n/a	GoodResponse	0	0.0	n/a	0	32	ISIslide	AvoidedLoss	True
318.525	0.25	Win2	0.5588000000000001	0.0	No	2.675	0.025	n/a	NoResponse	0	n/a	n/a	0	33	Cue	MissedWin	True
318.775	4.0	Win2	0.5588000000000001	0.0	No	2.675	0.0	n/a	NoResponse	0	n/a	n/a	0	33	Fixation	MissedWin	True
322.774	0.21	Win2	0.5588000000000001	0.001	No	2.675	-0.001	2.0	NoResponse	0	0.223	321.997	0	33	Target	MissedWin	True
322.99	0.49	Win2	0.5588000000000001	n/a	No	2.675	n/a	n/a	NoResponse	0	n/a	n/a	0	33	Blank	MissedWin	True
322.997	0.3	Win2	0.5588000000000001	0.001	No	2.675	-0.001	2.0	NoResponse	0	0.223	n/a	0	33	ButtonPress	MissedWin	True
323.473	1.45	Win2	0.5588000000000001	n/a	No	2.675	n/a	5.0	NoResponse	0	0.011	322.484	0	33	Feedback	MissedWin	True
324.923	2.675	Win2	0.5588000000000001	n/a	No	2.675	n/a	n/a	NoResponse	0	0.0	n/a	0	33	ISIslide	MissedWin	True
327.622	0.25	Lose2	0.5714	0.0	Yes	2.628	0.022	n/a	GoodResponse	0	n/a	n/a	0	34	Cue	AvoidedLoss	True
327.872	4.05	Lose2	0.5714	0.0	Yes	2.628	0.0	n/a	GoodResponse	0	n/a	n/a	0	34	Fixation	AvoidedLoss	True
331.92	0.22	Lose2	0.5714	0.002	Yes	2.628	-0.002	2.0	GoodResponse	0	0.187	331.107	0	34	Target	AvoidedLoss	True
332.107	0.3	Lose2	0.5714	0.002	Yes	2.628	-0.002	2.0	GoodResponse	0	0.187	n/a	0	34	ButtonPress	AvoidedLoss	True
332.154	0.48	Lose2	0.5714	n/a	Yes	2.628	n/a	n/a	GoodResponse	0	n/a	n/a	0	34	Blank	AvoidedLoss	True
332.62	1.45	Lose2	0.5714	n/a	Yes	2.628	n/a	5.0	GoodResponse	0	0.035	331.655	0	34	Feedback	AvoidedLoss	True
334.07	2.628	Lose2	0.5714	n/a	Yes	2.628	n/a	n/a	GoodResponse	0	0.0	n/a	0	34	ISIslide	AvoidedLoss	True
336.719	0.25	Lose2	0.5832999999999999	0.0	Yes	2.681	0.019	n/a	GoodResponse	0	n/a	n/a	0	35	Cue	AvoidedLoss	True
336.969	4.0	Lose2	0.5832999999999999	0.0	Yes	2.681	0.0	n/a	GoodResponse	0	n/a	n/a	0	35	Fixation	AvoidedLoss	True
340.967	0.23	Lose2	0.5832999999999999	0.002	Yes	2.681	-0.002	2.0	GoodResponse	0	0.18	340.147	0	35	Target	AvoidedLoss	True
341.147	0.3	Lose2	0.5832999999999999	0.002	Yes	2.681	-0.002	2.0	GoodResponse	0	0.18	n/a	0	35	ButtonPress	AvoidedLoss	True
341.201	0.47	Lose2	0.5832999999999999	n/a	Yes	2.681	n/a	n/a	GoodResponse	0	n/a	n/a	0	35	Blank	AvoidedLoss	True
341.667	1.45	Lose2	0.5832999999999999	n/a	Yes	2.681	n/a	5.0	GoodResponse	0	0.012	340.679	0	35	Feedback	AvoidedLoss	True
343.117	2.681	Lose2	0.5832999999999999	n/a	Yes	2.681	n/a	n/a	GoodResponse	0	0.0	n/a	0	35	ISIslide	AvoidedLoss	True
345.816	0.25	Control	0.5946	0.0	Yes	2.684	0.016	n/a	GoodResponse	0	n/a	n/a	0	36	Cue	Neutral	True
346.065	4.0	Control	0.5946	0.001	Yes	2.684	-0.001	n/a	GoodResponse	0	n/a	n/a	0	36	Fixation	Neutral	True
350.064	0.24	Control	0.5946	0.002	Yes	2.684	-0.002	2.0	GoodResponse	0	0.229	349.293	0	36	Target	Neutral	True
350.293	0.3	Control	0.5946	0.002	Yes	2.684	-0.002	2.0	GoodResponse	0	0.229	n/a	0	36	ButtonPress	Neutral	True
350.314	0.46	Control	0.5946	n/a	Yes	2.684	n/a	n/a	GoodResponse	0	n/a	n/a	0	36	Blank	Neutral	True
350.764	1.45	Control	0.5946	n/a	Yes	2.684	n/a	5.0	GoodResponse	0	0.037	349.801	0	36	Feedback	Neutral	True
352.213	2.684	Control	0.5946	n/a	Yes	2.684	n/a	n/a	GoodResponse	0	0.0	n/a	0	36	ISIslide	Neutral	True
354.912	0.25	Win2	0.6053000000000001	0.0	Yes	2.888	0.012	n/a	GoodResponse	1	n/a	n/a	1	37	Cue	Win	True
355.162	4.0	Win2	0.6053000000000001	0.0	Yes	2.888	0.0	n/a	GoodResponse	1	n/a	n/a	1	37	Fixation	Win	True
359.161	0.25	Win2	0.6053000000000001	0.001	Yes	2.888	-0.001	2.0	GoodResponse	1	0.195	358.356	1	37	Target	Win	True
359.356	0.3	Win2	0.6053000000000001	0.001	Yes	2.888	-0.001	2.0	GoodResponse	1	0.195	n/a	1	37	ButtonPress	Win	True
359.411	0.45	Win2	0.6053000000000001	n/a	Yes	2.888	n/a	n/a	GoodResponse	1	n/a	n/a	1	37	Blank	Win	True
359.861	1.45	Win2	0.6053000000000001	n/a	Yes	2.888	n/a	5.0	GoodResponse	1	0.013	358.874	1	37	Feedback	Win	True
361.31	2.888	Win2	0.6053000000000001	n/a	Yes	2.888	n/a	n/a	GoodResponse	1	0.0	n/a	1	37	ISIslide	Win	True
364.226	0.25	Lose2	0.6154	0.0	Yes	2.824	0.026	n/a	GoodResponse	0	n/a	n/a	1	38	Cue	AvoidedLoss	True
364.476	3.95	Lose2	0.6154	0.0	Yes	2.824	0.0	n/a	GoodResponse	0	n/a	n/a	1	38	Fixation	AvoidedLoss	True
368.424	0.26	Lose2	0.6154	0.002	Yes	2.824	-0.002	2.0	GoodResponse	0	0.243	367.667	1	38	Target	AvoidedLoss	True
368.667	0.3	Lose2	0.6154	0.002	Yes	2.824	-0.002	2.0	GoodResponse	0	0.243	n/a	1	38	ButtonPress	AvoidedLoss	True
368.691	0.44	Lose2	0.6154	n/a	Yes	2.824	n/a	n/a	GoodResponse	0	n/a	n/a	1	38	Blank	AvoidedLoss	True
369.124	1.45	Lose2	0.6154	n/a	Yes	2.824	n/a	5.0	GoodResponse	0	0.018	368.142	1	38	Feedback	AvoidedLoss	True
370.574	2.824	Lose2	0.6154	n/a	Yes	2.824	n/a	n/a	GoodResponse	0	0.0	n/a	1	38	ISIslide	AvoidedLoss	True
373.423	0.25	Win2	0.625	0.0	Yes	2.977	0.023	n/a	GoodResponse	1	n/a	n/a	2	39	Cue	Win	True
373.672	4.1	Win2	0.625	0.001	Yes	2.977	-0.001	n/a	GoodResponse	1	n/a	n/a	2	39	Fixation	Win	True
377.771	0.27	Win2	0.625	0.002	Yes	2.977	-0.002	2.0	GoodResponse	1	0.199	376.97	2	39	Target	Win	True
377.97	0.3	Win2	0.625	0.002	Yes	2.977	-0.002	2.0	GoodResponse	1	0.199	n/a	2	39	ButtonPress	Win	True
378.054	0.43	Win2	0.625	n/a	Yes	2.977	n/a	n/a	GoodResponse	1	n/a	n/a	2	39	Blank	Win	True
378.471	1.45	Win2	0.625	n/a	Yes	2.977	n/a	5.0	GoodResponse	1	0.036	377.507	2	39	Feedback	Win	True
379.92	2.977	Win2	0.625	n/a	Yes	2.977	n/a	n/a	GoodResponse	1	0.0	n/a	2	39	ISIslide	Win	True
382.919	0.25	Win2	0.6341	0.0	Yes	2.731	0.019	n/a	GoodResponse	1	n/a	n/a	3	40	Cue	Win	True
383.169	3.95	Win2	0.6341	0.0	Yes	2.731	0.0	n/a	GoodResponse	1	n/a	n/a	3	40	Fixation	Win	True
387.118	0.28	Win2	0.6341	0.001	Yes	2.731	-0.001	2.0	GoodResponse	1	0.189	386.307	3	40	Target	Win	True
387.307	0.3	Win2	0.6341	0.001	Yes	2.731	-0.001	2.0	GoodResponse	1	0.189	n/a	3	40	ButtonPress	Win	True
387.401	0.42	Win2	0.6341	n/a	Yes	2.731	n/a	n/a	GoodResponse	1	n/a	n/a	3	40	Blank	Win	True
387.817	1.45	Win2	0.6341	n/a	Yes	2.731	n/a	5.0	GoodResponse	1	0.008	386.825	3	40	Feedback	Win	True
389.267	2.731	Win2	0.6341	n/a	Yes	2.731	n/a	n/a	GoodResponse	1	0.0	n/a	3	40	ISIslide	Win	True
392.016	0.25	Win2	0.6429	0.0	Yes	2.784	0.016	n/a	GoodResponse	1	n/a	n/a	4	41	Cue	Win	True
392.266	3.9	Win2	0.6429	0.0	Yes	2.784	0.0	n/a	GoodResponse	1	n/a	n/a	4	41	Fixation	Win	True
396.165	0.29	Win2	0.6429	0.001	Yes	2.784	-0.001	2.0	GoodResponse	1	0.205	395.37	4	41	Target	Win	True
396.37	0.3	Win2	0.6429	0.001	Yes	2.784	-0.001	2.0	GoodResponse	1	0.205	n/a	4	41	ButtonPress	Win	True
396.464	0.41	Win2	0.6429	n/a	Yes	2.784	n/a	n/a	GoodResponse	1	n/a	n/a	4	41	Blank	Win	True
396.864	1.45	Win2	0.6429	n/a	Yes	2.784	n/a	5.0	GoodResponse	1	0.034	395.898	4	41	Feedback	Win	True
398.314	2.784	Win2	0.6429	n/a	Yes	2.784	n/a	n/a	GoodResponse	1	0.0	n/a	4	41	ISIslide	Win	True
401.113	0.25	Control	0.6512	0.0	Yes	2.937	0.013	n/a	GoodResponse	0	n/a	n/a	4	42	Cue	Neutral	True
401.363	3.85	Control	0.6512	0.0	Yes	2.937	0.0	n/a	GoodResponse	0	n/a	n/a	4	42	Fixation	Neutral	True
405.211	0.3	Control	0.6512	0.002	Yes	2.937	-0.002	2.0	GoodResponse	0	0.226	404.437	4	42	Target	Neutral	True
405.437	0.3	Control	0.6512	0.002	Yes	2.937	-0.002	2.0	GoodResponse	0	0.226	n/a	4	42	ButtonPress	Neutral	True
405.511	0.4	Control	0.6512	n/a	Yes	2.937	n/a	n/a	GoodResponse	0	n/a	n/a	4	42	Blank	Neutral	True
405.911	1.45	Control	0.6512	n/a	Yes	2.937	n/a	5.0	GoodResponse	0	0.011	404.922	4	42	Feedback	Neutral	True
407.361	2.937	Control	0.6512	n/a	Yes	2.937	n/a	n/a	GoodResponse	0	0.0	n/a	4	42	ISIslide	Neutral	True
410.326	0.25	Win2	0.6591	0.0	Yes	3.174	0.026	n/a	GoodResponse	1	n/a	n/a	5	43	Cue	Win	True
410.576	4.0	Win2	0.6591	0.0	Yes	3.174	0.0	n/a	GoodResponse	1	n/a	n/a	5	43	Fixation	Win	True
414.575	0.31	Win2	0.6591	0.001	Yes	3.174	-0.001	2.0	GoodResponse	1	0.22	413.795	5	43	Target	Win	True
414.795	0.3	Win2	0.6591	0.001	Yes	3.174	-0.001	2.0	GoodResponse	1	0.22	n/a	5	43	ButtonPress	Win	True
414.891	0.39	Win2	0.6591	n/a	Yes	3.174	n/a	n/a	GoodResponse	1	n/a	n/a	5	43	Blank	Win	True
415.274	1.45	Win2	0.6591	n/a	Yes	3.174	n/a	5.0	GoodResponse	1	0.014	414.288	5	43	Feedback	Win	True
416.724	3.174	Win2	0.6591	n/a	Yes	3.174	n/a	n/a	GoodResponse	1	0.0	n/a	5	43	ISIslide	Win	True
419.923	0.25	Win2	0.6667000000000001	0.0	Yes	2.977	0.023	n/a	GoodResponse	1	n/a	n/a	6	44	Cue	Win	True
420.173	4.0	Win2	0.6667000000000001	0.0	Yes	2.977	0.0	n/a	GoodResponse	1	n/a	n/a	6	44	Fixation	Win	True
424.171	0.31	Win2	0.6667000000000001	0.002	Yes	2.977	-0.002	2.0	GoodResponse	1	0.237	423.408	6	44	Target	Win	True
424.408	0.3	Win2	0.6667000000000001	0.002	Yes	2.977	-0.002	2.0	GoodResponse	1	0.237	n/a	6	44	ButtonPress	Win	True
424.488	0.39	Win2	0.6667000000000001	n/a	Yes	2.977	n/a	n/a	GoodResponse	1	n/a	n/a	6	44	Blank	Win	True
424.871	1.45	Win2	0.6667000000000001	n/a	Yes	2.977	n/a	5.0	GoodResponse	1	0.026	423.897	6	44	Feedback	Win	True
426.321	2.977	Win2	0.6667000000000001	n/a	Yes	2.977	n/a	n/a	GoodResponse	1	0.0	n/a	6	44	ISIslide	Win	True
429.32	0.25	Control	0.6739	0.0	Yes	2.88	0.02	n/a	GoodResponse	0	n/a	n/a	6	45	Cue	Neutral	True
429.569	4.1	Control	0.6739	0.001	Yes	2.88	-0.001	n/a	GoodResponse	0	n/a	n/a	6	45	Fixation	Neutral	True
433.668	0.3	Control	0.6739	0.002	Yes	2.88	-0.002	2.0	GoodResponse	0	0.227	432.895	6	45	Target	Neutral	True
433.895	0.3	Control	0.6739	0.002	Yes	2.88	-0.002	2.0	GoodResponse	0	0.227	n/a	6	45	ButtonPress	Neutral	True
433.968	0.4	Control	0.6739	n/a	Yes	2.88	n/a	n/a	GoodResponse	0	n/a	n/a	6	45	Blank	Neutral	True
434.368	1.45	Control	0.6739	n/a	Yes	2.88	n/a	5.0	GoodResponse	0	0.042	433.41	6	45	Feedback	Neutral	True
435.817	2.88	Control	0.6739	n/a	Yes	2.88	n/a	n/a	GoodResponse	0	0.0	n/a	6	45	ISIslide	Neutral	True
438.716	0.25	Lose2	0.6809000000000001	0.0	Yes	3.384	0.016	n/a	GoodResponse	0	n/a	n/a	6	46	Cue	AvoidedLoss	True
438.966	4.0	Lose2	0.6809000000000001	0.0	Yes	3.384	0.0	n/a	GoodResponse	0	n/a	n/a	6	46	Fixation	AvoidedLoss	True
442.965	0.29	Lose2	0.6809000000000001	0.001	Yes	3.384	-0.001	2.0	GoodResponse	0	0.215	442.18	6	46	Target	AvoidedLoss	True
443.18	0.3	Lose2	0.6809000000000001	0.001	Yes	3.384	-0.001	2.0	GoodResponse	0	0.215	n/a	6	46	ButtonPress	AvoidedLoss	True
443.265	0.41	Lose2	0.6809000000000001	n/a	Yes	3.384	n/a	n/a	GoodResponse	0	n/a	n/a	6	46	Blank	AvoidedLoss	True
443.664	1.45	Lose2	0.6809000000000001	n/a	Yes	3.384	n/a	5.0	GoodResponse	0	0.014	442.678	6	46	Feedback	AvoidedLoss	True
445.114	3.384	Lose2	0.6809000000000001	n/a	Yes	3.384	n/a	n/a	GoodResponse	0	0.0	n/a	6	46	ISIslide	AvoidedLoss	True
448.513	0.25	Lose2	0.6667000000000001	0.0	No	2.687	0.013	n/a	LatePress	-1	n/a	n/a	5	47	Cue	Loss	True
448.763	4.0	Lose2	0.6667000000000001	0.0	No	2.687	0.0	n/a	LatePress	-1	n/a	n/a	5	47	Fixation	Loss	True
452.761	0.28	Lose2	0.6667000000000001	0.002	No	2.687	-0.002	2.0	LatePress	-1	0.283	452.044	5	47	Target	Loss	True
453.044	0.42	Lose2	0.6667000000000001	n/a	No	2.687	n/a	n/a	LatePress	-1	n/a	n/a	5	47	Blank	Loss	True
453.044	0.3	Lose2	0.6667000000000001	0.002	No	2.687	-0.002	2.0	LatePress	-1	0.283	n/a	5	47	ButtonPress	Loss	True
453.461	1.45	Lose2	0.6667000000000001	n/a	No	2.687	n/a	5.0	LatePress	-1	0.022	452.483	5	47	Feedback	Loss	True
454.91	2.687	Lose2	0.6667000000000001	n/a	No	2.687	n/a	n/a	LatePress	-1	0.0	n/a	5	47	ISIslide	Loss	True
457.626	0.25	Lose2	0.6735	0.0	Yes	3.024	0.026	n/a	GoodResponse	0	n/a	n/a	5	48	Cue	AvoidedLoss	True
457.876	3.95	Lose2	0.6735	0.0	Yes	3.024	0.0	n/a	GoodResponse	0	n/a	n/a	5	48	Fixation	AvoidedLoss	True
461.825	0.27	Lose2	0.6735	0.001	Yes	3.024	-0.001	2.0	GoodResponse	0	0.258	461.083	5	48	Target	AvoidedLoss	True
462.083	0.3	Lose2	0.6735	0.001	Yes	3.024	-0.001	2.0	GoodResponse	0	0.258	n/a	5	48	ButtonPress	AvoidedLoss	True
462.108	0.43	Lose2	0.6735	n/a	Yes	3.024	n/a	n/a	GoodResponse	0	n/a	n/a	5	48	Blank	AvoidedLoss	True
462.524	1.45	Lose2	0.6735	n/a	Yes	3.024	n/a	5.0	GoodResponse	0	0.031	461.555	5	48	Feedback	AvoidedLoss	True
463.974	3.024	Lose2	0.6735	n/a	Yes	3.024	n/a	n/a	GoodResponse	0	0.0	n/a	5	48	ISIslide	AvoidedLoss	True
467.023	0.25	Control	0.66	0.0	No	2.877	0.023	n/a	NoResponse	0	n/a	n/a	5	49	Cue	Neutral	True
467.273	4.0	Control	0.66	0.0	No	2.877	0.0	n/a	NoResponse	0	n/a	n/a	5	49	Fixation	Neutral	True
471.271	0.26	Control	0.66	0.002	No	2.877	-0.002	2.0	NoResponse	0	0.273	470.544	5	49	Target	Neutral	True
471.538	0.44	Control	0.66	n/a	No	2.877	n/a	n/a	NoResponse	0	n/a	n/a	5	49	Blank	Neutral	True
471.544	0.3	Control	0.66	0.002	No	2.877	-0.002	2.0	NoResponse	0	0.273	n/a	5	49	ButtonPress	Neutral	True
471.971	1.45	Control	0.66	n/a	No	2.877	n/a	5.0	NoResponse	0	0.048	471.019	5	49	Feedback	Neutral	True
473.421	2.877	Control	0.66	n/a	No	2.877	n/a	n/a	NoResponse	0	0.0	n/a	5	49	ISIslide	Neutral	True
476.32	0.25	Control	0.6667000000000001	0.0	Yes	2.78	0.02	n/a	GoodResponse	0	n/a	n/a	5	50	Cue	Neutral	True
476.57	4.0	Control	0.6667000000000001	0.0	Yes	2.78	0.0	n/a	GoodResponse	0	n/a	n/a	5	50	Fixation	Neutral	True
480.568	0.26	Control	0.6667000000000001	0.002	Yes	2.78	-0.002	2.0	GoodResponse	0	0.227	479.795	5	50	Target	Neutral	True
480.795	0.3	Control	0.6667000000000001	0.002	Yes	2.78	-0.002	2.0	GoodResponse	0	0.227	n/a	5	50	ButtonPress	Neutral	True
480.835	0.44	Control	0.6667000000000001	n/a	Yes	2.78	n/a	n/a	GoodResponse	0	n/a	n/a	5	50	Blank	Neutral	True
481.268	1.45	Control	0.6667000000000001	n/a	Yes	2.78	n/a	5.0	GoodResponse	0	0.019	480.287	5	50	Feedback	Neutral	True
482.717	2.78	Control	0.6667000000000001	n/a	Yes	2.78	n/a	n/a	GoodResponse	0	0.0	n/a	5	50	ISIslide	Neutral	True
485.516	0.25	Control	0.6537999999999999	0.0	No	2.734	0.016	n/a	NoResponse	0	n/a	n/a	5	51	Cue	Neutral	True
485.766	3.95	Control	0.6537999999999999	0.0	No	2.734	0.0	n/a	NoResponse	0	n/a	n/a	5	51	Fixation	Neutral	True
489.715	0.25	Control	0.6537999999999999	0.001	No	2.734	-0.001	2.0	NoResponse	0	0.259	488.974	5	51	Target	Neutral	True
489.965	0.45	Control	0.6537999999999999	n/a	No	2.734	n/a	n/a	NoResponse	0	n/a	n/a	5	51	Blank	Neutral	True
489.974	0.3	Control	0.6537999999999999	0.001	No	2.734	-0.001	2.0	NoResponse	0	0.259	n/a	5	51	ButtonPress	Neutral	True
490.415	1.45	Control	0.6537999999999999	n/a	No	2.734	n/a	5.0	NoResponse	0	0.043	489.458	5	51	Feedback	Neutral	True
491.864	2.734	Control	0.6537999999999999	n/a	No	2.734	n/a	n/a	NoResponse	0	0.0	n/a	5	51	ISIslide	Neutral	True
494.613	0.25	Control	0.6604000000000001	0.0	Yes	2.637	0.013	n/a	GoodResponse	0	n/a	n/a	5	52	Cue	Neutral	True
494.863	4.05	Control	0.6604000000000001	0.0	Yes	2.637	0.0	n/a	GoodResponse	0	n/a	n/a	5	52	Fixation	Neutral	True
498.912	0.26	Control	0.6604000000000001	0.001	Yes	2.637	-0.001	2.0	GoodResponse	0	0.237	498.149	5	52	Target	Neutral	True
499.149	0.3	Control	0.6604000000000001	0.001	Yes	2.637	-0.001	2.0	GoodResponse	0	0.237	n/a	5	52	ButtonPress	Neutral	True
499.178	0.44	Control	0.6604000000000001	n/a	Yes	2.637	n/a	n/a	GoodResponse	0	n/a	n/a	5	52	Blank	Neutral	True
499.611	1.45	Control	0.6604000000000001	n/a	Yes	2.637	n/a	5.0	GoodResponse	0	0.018	498.629	5	52	Feedback	Neutral	True
501.061	2.637	Control	0.6604000000000001	n/a	Yes	2.637	n/a	n/a	GoodResponse	0	0.0	n/a	5	52	ISIslide	Neutral	True
503.727	0.25	Win2	0.6667000000000001	0.0	Yes	2.923	0.027	n/a	GoodResponse	1	n/a	n/a	6	53	Cue	Win	True
503.977	4.05	Win2	0.6667000000000001	0.0	Yes	2.923	0.0	n/a	GoodResponse	1	n/a	n/a	6	53	Fixation	Win	True
508.025	0.26	Win2	0.6667000000000001	0.002	Yes	2.923	-0.002	2.0	GoodResponse	1	0.203	507.228	6	53	Target	Win	True
508.228	0.3	Win2	0.6667000000000001	0.002	Yes	2.923	-0.002	2.0	GoodResponse	1	0.203	n/a	6	53	ButtonPress	Win	True
508.292	0.44	Win2	0.6667000000000001	n/a	Yes	2.923	n/a	n/a	GoodResponse	1	n/a	n/a	6	53	Blank	Win	True
508.725	1.45	Win2	0.6667000000000001	n/a	Yes	2.923	n/a	5.0	GoodResponse	1	0.025	507.75	6	53	Feedback	Win	True
510.174	2.923	Win2	0.6667000000000001	n/a	Yes	2.923	n/a	n/a	GoodResponse	1	0.0	n/a	6	53	ISIslide	Win	True
513.123	0.25	Win2	0.6545000000000001	0.0	No	2.727	0.023	n/a	NoResponse	0	n/a	n/a	6	54	Cue	MissedWin	True
513.373	3.95	Win2	0.6545000000000001	0.0	No	2.727	0.0	n/a	NoResponse	0	n/a	n/a	6	54	Fixation	MissedWin	True
517.322	0.25	Win2	0.6545000000000001	0.001	No	2.727	-0.001	2.0	NoResponse	0	0.473	516.795	6	54	Target	MissedWin	True
517.572	0.45	Win2	0.6545000000000001	n/a	No	2.727	n/a	n/a	NoResponse	0	n/a	n/a	6	54	Blank	MissedWin	True
517.795	0.3	Win2	0.6545000000000001	0.001	No	2.727	-0.001	2.0	NoResponse	0	0.473	n/a	6	54	ButtonPress	MissedWin	True
518.022	1.45	Win2	0.6545000000000001	n/a	No	2.727	n/a	5.0	NoResponse	0	0.045	517.067	6	54	Feedback	MissedWin	True
519.471	2.727	Win2	0.6545000000000001	n/a	No	2.727	n/a	n/a	NoResponse	0	0.0	n/a	6	54	ISIslide	MissedWin	True
522.22	0.25	Control	0.6607	0.0	Yes	3.03	0.02	n/a	GoodResponse	0	n/a	n/a	6	55	Cue	Neutral	True
522.47	3.95	Control	0.6607	0.0	Yes	3.03	0.0	n/a	GoodResponse	0	n/a	n/a	6	55	Fixation	Neutral	True
526.419	0.26	Control	0.6607	0.001	Yes	3.03	-0.001	2.0	GoodResponse	0	0.218	525.637	6	55	Target	Neutral	True
526.637	0.3	Control	0.6607	0.001	Yes	3.03	-0.001	2.0	GoodResponse	0	0.218	n/a	6	55	ButtonPress	Neutral	True
526.685	0.44	Control	0.6607	n/a	Yes	3.03	n/a	n/a	GoodResponse	0	n/a	n/a	6	55	Blank	Neutral	True
527.118	1.45	Control	0.6607	n/a	Yes	3.03	n/a	5.0	GoodResponse	0	0.022	526.14	6	55	Feedback	Neutral	True
528.568	3.03	Control	0.6607	n/a	Yes	3.03	n/a	n/a	GoodResponse	0	0.0	n/a	6	55	ISIslide	Neutral	True
531.617	0.25	Control	0.6491	0.0	No	2.833	0.017	n/a	LatePress	0	n/a	n/a	6	56	Cue	Neutral	True
531.867	3.95	Control	0.6491	0.0	No	2.833	0.0	n/a	LatePress	0	n/a	n/a	6	56	Fixation	Neutral	True
535.815	0.26	Control	0.6491	0.002	No	2.833	-0.002	2.0	LatePress	0	0.265	535.08	6	56	Target	Neutral	True
536.08	0.3	Control	0.6491	0.002	No	2.833	-0.002	2.0	LatePress	0	0.265	n/a	6	56	ButtonPress	Neutral	True
536.082	0.44	Control	0.6491	n/a	No	2.833	n/a	n/a	LatePress	0	n/a	n/a	6	56	Blank	Neutral	True
536.515	1.45	Control	0.6491	n/a	No	2.833	n/a	5.0	LatePress	0	0.04	535.555	6	56	Feedback	Neutral	True
537.965	2.833	Control	0.6491	n/a	No	2.833	n/a	n/a	LatePress	0	0.0	n/a	6	56	ISIslide	Neutral	True
540.814	0.25	Control	0.6552	0.0	Yes	3.486	0.014	n/a	GoodResponse	0	n/a	n/a	6	57	Cue	Neutral	True
541.063	4.0	Control	0.6552	0.001	Yes	3.486	-0.001	n/a	GoodResponse	0	n/a	n/a	6	57	Fixation	Neutral	True
545.062	0.27	Control	0.6552	0.002	Yes	3.486	-0.002	2.0	GoodResponse	0	0.201	544.263	6	57	Target	Neutral	True
545.263	0.3	Control	0.6552	0.002	Yes	3.486	-0.002	2.0	GoodResponse	0	0.201	n/a	6	57	ButtonPress	Neutral	True
545.345	0.43	Control	0.6552	n/a	Yes	3.486	n/a	n/a	GoodResponse	0	n/a	n/a	6	57	Blank	Neutral	True
545.762	1.45	Control	0.6552	n/a	Yes	3.486	n/a	5.0	GoodResponse	0	0.013	544.775	6	57	Feedback	Neutral	True
547.211	3.486	Control	0.6552	n/a	Yes	3.486	n/a	n/a	GoodResponse	0	0.0	n/a	6	57	ISIslide	Neutral	True
550.727	0.25	Win2	0.6609999999999999	0.0	Yes	2.723	0.027	n/a	GoodResponse	1	n/a	n/a	7	58	Cue	Win	True
550.977	4.05	Win2	0.6609999999999999	0.0	Yes	2.723	0.0	n/a	GoodResponse	1	n/a	n/a	7	58	Fixation	Win	True
555.025	0.27	Win2	0.6609999999999999	0.002	Yes	2.723	-0.002	2.0	GoodResponse	1	0.211	554.236	7	58	Target	Win	True
555.236	0.3	Win2	0.6609999999999999	0.002	Yes	2.723	-0.002	2.0	GoodResponse	1	0.211	n/a	7	58	ButtonPress	Win	True
555.308	0.43	Win2	0.6609999999999999	n/a	Yes	2.723	n/a	n/a	GoodResponse	1	n/a	n/a	7	58	Blank	Win	True
555.725	1.45	Win2	0.6609999999999999	n/a	Yes	2.723	n/a	5.0	GoodResponse	1	0.0	554.725	7	58	Feedback	Win	True
557.174	2.723	Win2	0.6609999999999999	n/a	Yes	2.723	n/a	n/a	GoodResponse	1	0.0	n/a	7	58	ISIslide	Win	True
559.923	0.25	Lose2	0.65	0.001	No	2.677	0.023	n/a	NoResponse	-1	n/a	n/a	6	59	Cue	Loss	True
560.173	4.0	Lose2	0.65	0.0	No	2.677	0.0	n/a	NoResponse	-1	n/a	n/a	6	59	Fixation	Loss	True
564.172	0.27	Lose2	0.65	0.001	No	2.677	-0.001	2.0	NoResponse	-1	0.307	563.479	6	59	Target	Loss	True
564.439	0.43	Lose2	0.65	n/a	No	2.677	n/a	n/a	NoResponse	-1	n/a	n/a	6	59	Blank	Loss	True
564.479	0.3	Lose2	0.65	0.001	No	2.677	-0.001	2.0	NoResponse	-1	0.307	n/a	6	59	ButtonPress	Loss	True
564.872	1.45	Lose2	0.65	n/a	No	2.677	n/a	5.0	NoResponse	-1	0.024	563.896	6	59	Feedback	Loss	True
566.321	2.677	Lose2	0.65	n/a	No	2.677	n/a	n/a	NoResponse	-1	0.0	n/a	6	59	ISIslide	Loss	True
569.02	0.25	Control	0.6393	0.0	No	2.68	0.02	n/a	NoResponse	0	n/a	n/a	6	60	Cue	Neutral	True
569.27	4.0	Control	0.6393	0.0	No	2.68	0.0	n/a	NoResponse	0	n/a	n/a	6	60	Fixation	Neutral	True
573.269	0.28	Control	0.6393	0.001	No	2.68	-0.001	2.0	NoResponse	0	0.299	572.568	6	60	Target	Neutral	True
573.552	0.42	Control	0.6393	n/a	No	2.68	n/a	n/a	NoResponse	0	n/a	n/a	6	60	Blank	Neutral	True
573.568	0.3	Control	0.6393	0.001	No	2.68	-0.001	2.0	NoResponse	0	0.299	n/a	6	60	ButtonPress	Neutral	True
573.969	1.45	Control	0.6393	n/a	No	2.68	n/a	5.0	NoResponse	0	0.0	572.969	6	60	Feedback	Neutral	True
575.418	2.68	Control	0.6393	n/a	No	2.68	n/a	n/a	NoResponse	0	0.0	n/a	6	60	ISIslide	Neutral	True
578.117	0.25	Lose2	0.6452	0.0	Yes	2.983	0.017	n/a	GoodResponse	0	n/a	n/a	6	61	Cue	AvoidedLoss	True
578.367	4.0	Lose2	0.6452	0.0	Yes	2.983	0.0	n/a	GoodResponse	0	n/a	n/a	6	61	Fixation	AvoidedLoss	True
582.366	0.29	Lose2	0.6452	0.001	Yes	2.983	-0.001	2.0	GoodResponse	0	0.203	581.569	6	61	Target	AvoidedLoss	True
582.569	0.3	Lose2	0.6452	0.001	Yes	2.983	-0.001	2.0	GoodResponse	0	0.203	n/a	6	61	ButtonPress	AvoidedLoss	True
582.665	0.41	Lose2	0.6452	n/a	Yes	2.983	n/a	n/a	GoodResponse	0	n/a	n/a	6	61	Blank	AvoidedLoss	True
583.065	1.45	Lose2	0.6452	n/a	Yes	2.983	n/a	5.0	GoodResponse	0	0.026	582.091	6	61	Feedback	AvoidedLoss	True
584.515	2.983	Lose2	0.6452	n/a	Yes	2.983	n/a	n/a	GoodResponse	0	0.0	n/a	6	61	ISIslide	AvoidedLoss	True
587.514	0.25	Lose2	0.6507999999999999	0.0	Yes	2.886	0.014	n/a	GoodResponse	0	n/a	n/a	6	62	Cue	AvoidedLoss	True
587.764	3.9	Lose2	0.6507999999999999	0.0	Yes	2.886	0.0	n/a	GoodResponse	0	n/a	n/a	6	62	Fixation	AvoidedLoss	True
591.662	0.3	Lose2	0.6507999999999999	0.002	Yes	2.886	-0.002	2.0	GoodResponse	0	0.194	590.856	6	62	Target	AvoidedLoss	True
591.856	0.3	Lose2	0.6507999999999999	0.002	Yes	2.886	-0.002	2.0	GoodResponse	0	0.194	n/a	6	62	ButtonPress	AvoidedLoss	True
591.962	0.4	Lose2	0.6507999999999999	n/a	Yes	2.886	n/a	n/a	GoodResponse	0	n/a	n/a	6	62	Blank	AvoidedLoss	True
592.362	1.45	Lose2	0.6507999999999999	n/a	Yes	2.886	n/a	5.0	GoodResponse	0	0.045	591.407	6	62	Feedback	AvoidedLoss	True
593.812	2.886	Lose2	0.6507999999999999	n/a	Yes	2.886	n/a	n/a	GoodResponse	0	0.0	n/a	6	62	ISIslide	AvoidedLoss	True
596.727	0.25	Lose2	0.6562	0.0	Yes	2.623	0.027	n/a	GoodResponse	0	n/a	n/a	6	63	Cue	AvoidedLoss	True
596.977	4.05	Lose2	0.6562	0.0	Yes	2.623	0.0	n/a	GoodResponse	0	n/a	n/a	6	63	Fixation	AvoidedLoss	True
601.026	0.31	Lose2	0.6562	0.001	Yes	2.623	-0.001	2.0	GoodResponse	0	0.205	600.231	6	63	Target	AvoidedLoss	True
601.231	0.3	Lose2	0.6562	0.001	Yes	2.623	-0.001	2.0	GoodResponse	0	0.205	n/a	6	63	ButtonPress	AvoidedLoss	True
601.342	0.39	Lose2	0.6562	n/a	Yes	2.623	n/a	n/a	GoodResponse	0	n/a	n/a	6	63	Blank	AvoidedLoss	True
601.725	1.45	Lose2	0.6562	n/a	Yes	2.623	n/a	5.0	GoodResponse	0	0.048	600.773	6	63	Feedback	AvoidedLoss	True
603.175	2.623	Lose2	0.6562	n/a	Yes	2.623	n/a	n/a	GoodResponse	0	0.0	n/a	6	63	ISIslide	AvoidedLoss	True
605.824	0.25	Win2	0.6615000000000001	0.0	Yes	3.126	0.024	n/a	GoodResponse	1	n/a	n/a	7	64	Cue	Win	True
606.074	4.15	Win2	0.6615000000000001	0.0	Yes	3.126	0.0	n/a	GoodResponse	1	n/a	n/a	7	64	Fixation	Win	True
610.222	0.31	Win2	0.6615000000000001	0.002	Yes	3.126	-0.002	2.0	GoodResponse	1	0.235	609.457	7	64	Target	Win	True
610.457	0.3	Win2	0.6615000000000001	0.002	Yes	3.126	-0.002	2.0	GoodResponse	1	0.235	n/a	7	64	ButtonPress	Win	True
610.539	0.39	Win2	0.6615000000000001	n/a	Yes	3.126	n/a	n/a	GoodResponse	1	n/a	n/a	7	64	Blank	Win	True
610.922	1.45	Win2	0.6615000000000001	n/a	Yes	3.126	n/a	5.0	GoodResponse	1	0.022	609.944	7	64	Feedback	Win	True
612.372	3.126	Win2	0.6615000000000001	n/a	Yes	3.126	n/a	n/a	GoodResponse	1	0.0	n/a	7	64	ISIslide	Win	True
615.521	0.25	Control	0.6667000000000001	0.0	Yes	2.779	0.021	n/a	GoodResponse	0	n/a	n/a	7	65	Cue	Neutral	True
615.77	4.0	Control	0.6667000000000001	0.001	Yes	2.779	-0.001	n/a	GoodResponse	0	n/a	n/a	7	65	Fixation	Neutral	True
619.769	0.31	Control	0.6667000000000001	0.002	Yes	2.779	-0.002	2.0	GoodResponse	0	0.212	618.981	7	65	Target	Neutral	True
619.981	0.3	Control	0.6667000000000001	0.002	Yes	2.779	-0.002	2.0	GoodResponse	0	0.212	n/a	7	65	ButtonPress	Neutral	True
620.086	0.39	Control	0.6667000000000001	n/a	Yes	2.779	n/a	n/a	GoodResponse	0	n/a	n/a	7	65	Blank	Neutral	True
620.469	1.45	Control	0.6667000000000001	n/a	Yes	2.779	n/a	5.0	GoodResponse	0	0.036	619.505	7	65	Feedback	Neutral	True
621.918	2.779	Control	0.6667000000000001	n/a	Yes	2.779	n/a	n/a	GoodResponse	0	0.0	n/a	7	65	ISIslide	Neutral	True
624.717	0.25	Win2	0.6716	0.0	Yes	2.783	0.017	n/a	GoodResponse	1	n/a	n/a	8	66	Cue	Win	True
624.967	3.9	Win2	0.6716	0.0	Yes	2.783	0.0	n/a	GoodResponse	1	n/a	n/a	8	66	Fixation	Win	True
628.866	0.3	Win2	0.6716	0.001	Yes	2.783	-0.001	2.0	GoodResponse	1	0.291	628.157	8	66	Target	Win	True
629.157	0.3	Win2	0.6716	0.001	Yes	2.783	-0.001	2.0	GoodResponse	1	0.291	n/a	8	66	ButtonPress	Win	True
629.166	0.4	Win2	0.6716	n/a	Yes	2.783	n/a	n/a	GoodResponse	1	n/a	n/a	8	66	Blank	Win	True
629.566	1.45	Win2	0.6716	n/a	Yes	2.783	n/a	5.0	GoodResponse	1	0.013	628.579	8	66	Feedback	Win	True
631.015	2.783	Win2	0.6716	n/a	Yes	2.783	n/a	n/a	GoodResponse	1	0.0	n/a	8	66	ISIslide	Win	True
633.814	0.25	Control	0.6765000000000001	0.0	Yes	2.736	0.014	n/a	GoodResponse	0	n/a	n/a	8	67	Cue	Neutral	True
634.064	3.95	Control	0.6765000000000001	0.0	Yes	2.736	0.0	n/a	GoodResponse	0	n/a	n/a	8	67	Fixation	Neutral	True
638.013	0.29	Control	0.6765000000000001	0.001	Yes	2.736	-0.001	2.0	GoodResponse	0	0.26	637.273	8	67	Target	Neutral	True
638.273	0.3	Control	0.6765000000000001	0.001	Yes	2.736	-0.001	2.0	GoodResponse	0	0.26	n/a	8	67	ButtonPress	Neutral	True
638.313	0.41	Control	0.6765000000000001	n/a	Yes	2.736	n/a	n/a	GoodResponse	0	n/a	n/a	8	67	Blank	Neutral	True
638.712	1.45	Control	0.6765000000000001	n/a	Yes	2.736	n/a	5.0	GoodResponse	0	0.037	637.749	8	67	Feedback	Neutral	True
640.162	2.736	Control	0.6765000000000001	n/a	Yes	2.736	n/a	n/a	GoodResponse	0	0.0	n/a	8	67	ISIslide	Neutral	True
642.928	0.25	Win2	0.6812	0.0	Yes	3.072	0.028	n/a	GoodResponse	1	n/a	n/a	9	68	Cue	Win	True
643.177	4.0	Win2	0.6812	0.001	Yes	3.072	-0.001	n/a	GoodResponse	1	n/a	n/a	9	68	Fixation	Win	True
647.176	0.28	Win2	0.6812	0.002	Yes	3.072	-0.002	2.0	GoodResponse	1	0.238	646.414	9	68	Target	Win	True
647.414	0.3	Win2	0.6812	0.002	Yes	3.072	-0.002	2.0	GoodResponse	1	0.238	n/a	9	68	ButtonPress	Win	True
647.459	0.42	Win2	0.6812	n/a	Yes	3.072	n/a	n/a	GoodResponse	1	n/a	n/a	9	68	Blank	Win	True
647.876	1.45	Win2	0.6812	n/a	Yes	3.072	n/a	5.0	GoodResponse	1	0.043	646.919	9	68	Feedback	Win	True
649.325	3.072	Win2	0.6812	n/a	Yes	3.072	n/a	n/a	GoodResponse	1	0.0	n/a	9	68	ISIslide	Win	True
652.424	0.25	Win2	0.6857	0.0	Yes	3.226	0.024	n/a	GoodResponse	1	n/a	n/a	10	69	Cue	Win	True
652.674	3.95	Win2	0.6857	0.0	Yes	3.226	0.0	n/a	GoodResponse	1	n/a	n/a	10	69	Fixation	Win	True
656.623	0.27	Win2	0.6857	0.001	Yes	3.226	-0.001	2.0	GoodResponse	1	0.211	655.834	10	69	Target	Win	True
656.834	0.3	Win2	0.6857	0.001	Yes	3.226	-0.001	2.0	GoodResponse	1	0.211	n/a	10	69	ButtonPress	Win	True
656.906	0.43	Win2	0.6857	n/a	Yes	3.226	n/a	n/a	GoodResponse	1	n/a	n/a	10	69	Blank	Win	True
657.323	1.45	Win2	0.6857	n/a	Yes	3.226	n/a	5.0	GoodResponse	1	0.011	656.334	10	69	Feedback	Win	True
658.772	3.226	Win2	0.6857	n/a	Yes	3.226	n/a	n/a	GoodResponse	1	0.0	n/a	10	69	ISIslide	Win	True
662.021	0.25	Lose2	0.6901	0.0	Yes	3.029	0.021	n/a	GoodResponse	0	n/a	n/a	10	70	Cue	AvoidedLoss	True
662.271	4.05	Lose2	0.6901	0.0	Yes	3.029	0.0	n/a	GoodResponse	0	n/a	n/a	10	70	Fixation	AvoidedLoss	True
666.319	0.26	Lose2	0.6901	0.002	Yes	3.029	-0.002	2.0	GoodResponse	0	0.227	665.546	10	70	Target	AvoidedLoss	True
666.546	0.3	Lose2	0.6901	0.002	Yes	3.029	-0.002	2.0	GoodResponse	0	0.227	n/a	10	70	ButtonPress	AvoidedLoss	True
666.586	0.44	Lose2	0.6901	n/a	Yes	3.029	n/a	n/a	GoodResponse	0	n/a	n/a	10	70	Blank	AvoidedLoss	True
667.019	1.45	Lose2	0.6901	n/a	Yes	3.029	n/a	5.0	GoodResponse	0	0.023	666.042	10	70	Feedback	AvoidedLoss	True
668.469	3.029	Lose2	0.6901	n/a	Yes	3.029	n/a	n/a	GoodResponse	0	0.0	n/a	10	70	ISIslide	AvoidedLoss	True
671.518	0.25	Win2	0.6944	0.0	Yes	2.732	0.018	n/a	GoodResponse	1	n/a	n/a	11	71	Cue	Win	True
671.767	4.05	Win2	0.6944	0.001	Yes	2.732	-0.001	n/a	GoodResponse	1	n/a	n/a	11	71	Fixation	Win	True
675.816	0.25	Win2	0.6944	0.002	Yes	2.732	-0.002	2.0	GoodResponse	1	0.247	675.063	11	71	Target	Win	True
676.063	0.3	Win2	0.6944	0.002	Yes	2.732	-0.002	2.0	GoodResponse	1	0.247	n/a	11	71	ButtonPress	Win	True
676.066	0.45	Win2	0.6944	n/a	Yes	2.732	n/a	n/a	GoodResponse	1	n/a	n/a	11	71	Blank	Win	True
676.516	1.45	Win2	0.6944	n/a	Yes	2.732	n/a	5.0	GoodResponse	1	0.037	675.553	11	71	Feedback	Win	True
677.965	2.732	Win2	0.6944	n/a	Yes	2.732	n/a	n/a	GoodResponse	1	0.0	n/a	11	71	ISIslide	Win	True
680.714	0.25	Win2	0.6986	0.0	Yes	2.786	0.014	n/a	GoodResponse	1	n/a	n/a	12	72	Cue	Win	True
680.964	4.1	Win2	0.6986	0.0	Yes	2.786	0.0	n/a	GoodResponse	1	n/a	n/a	12	72	Fixation	Win	True
685.063	0.24	Win2	0.6986	0.001	Yes	2.786	-0.001	2.0	GoodResponse	1	0.214	684.277	12	72	Target	Win	True
685.277	0.3	Win2	0.6986	0.001	Yes	2.786	-0.001	2.0	GoodResponse	1	0.214	n/a	12	72	ButtonPress	Win	True
685.313	0.46	Win2	0.6986	n/a	Yes	2.786	n/a	n/a	GoodResponse	1	n/a	n/a	12	72	Blank	Win	True
685.763	1.45	Win2	0.6986	n/a	Yes	2.786	n/a	5.0	GoodResponse	1	0.009	684.772	12	72	Feedback	Win	True
687.212	2.786	Win2	0.6986	n/a	Yes	2.786	n/a	n/a	GoodResponse	1	0.0	n/a	12	72	ISIslide	Win	True
690.028	0.25	Win2	0.7027	0.0	Yes	2.672	0.028	n/a	GoodResponse	1	n/a	n/a	13	73	Cue	Win	True
690.278	4.0	Win2	0.7027	0.0	Yes	2.672	0.0	n/a	GoodResponse	1	n/a	n/a	13	73	Fixation	Win	True
694.276	0.23	Win2	0.7027	0.002	Yes	2.672	-0.002	2.0	GoodResponse	1	0.203	693.479	13	73	Target	Win	True
694.479	0.3	Win2	0.7027	0.002	Yes	2.672	-0.002	2.0	GoodResponse	1	0.203	n/a	13	73	ButtonPress	Win	True
694.509	0.47	Win2	0.7027	n/a	Yes	2.672	n/a	n/a	GoodResponse	1	n/a	n/a	13	73	Blank	Win	True
694.976	1.45	Win2	0.7027	n/a	Yes	2.672	n/a	5.0	GoodResponse	1	0.016	693.992	13	73	Feedback	Win	True
696.425	2.672	Win2	0.7027	n/a	Yes	2.672	n/a	n/a	GoodResponse	1	0.0	n/a	13	73	ISIslide	Win	True
699.124	0.25	Lose2	0.6933	0.001	No	2.626	0.024	n/a	NoResponse	-1	n/a	n/a	12	74	Cue	Loss	False
699.374	4.05	Lose2	0.6933	0.0	No	2.626	0.0	n/a	NoResponse	-1	n/a	n/a	12	74	Fixation	Loss	False
703.423	0.22	Lose2	0.6933	0.001	No	2.626	-0.001	n/a	NoResponse	-1	n/a	n/a	12	74	Target	Loss	False
703.64	0.48	Lose2	0.6933	n/a	No	2.626	n/a	n/a	NoResponse	-1	n/a	n/a	12	74	Blank	Loss	False
704.123	1.45	Lose2	0.6933	n/a	No	2.626	n/a	5.0	NoResponse	-1	0.04	703.163	12	74	Feedback	Loss	False
705.572	2.626	Lose2	0.6933	n/a	No	2.626	n/a	n/a	NoResponse	-1	0.0	n/a	12	74	ISIslide	Loss	False
708.221	0.25	Lose2	0.6842	0.0	No	2.929	0.021	n/a	NoResponse	-1	n/a	n/a	11	75	Cue	Loss	True
708.471	3.95	Lose2	0.6842	0.0	No	2.929	0.0	n/a	NoResponse	-1	n/a	n/a	11	75	Fixation	Loss	True
712.42	0.21	Lose2	0.6842	0.001	No	2.929	-0.001	2.0	NoResponse	-1	0.224	711.644	11	75	Target	Loss	True
712.636	0.49	Lose2	0.6842	n/a	No	2.929	n/a	n/a	NoResponse	-1	n/a	n/a	11	75	Blank	Loss	True
712.644	0.3	Lose2	0.6842	0.001	No	2.929	-0.001	2.0	NoResponse	-1	0.224	n/a	11	75	ButtonPress	Loss	True
713.12	1.45	Lose2	0.6842	n/a	No	2.929	n/a	5.0	NoResponse	-1	0.019	712.139	11	75	Feedback	Loss	True
714.569	2.929	Lose2	0.6842	n/a	No	2.929	n/a	n/a	NoResponse	-1	0.0	n/a	11	75	ISIslide	Loss	True
717.518	0.25	Control	0.6753	0.0	No	3.232	0.018	n/a	NoResponse	0	n/a	n/a	11	76	Cue	Neutral	True
717.768	4.05	Control	0.6753	0.0	No	3.232	0.0	n/a	NoResponse	0	n/a	n/a	11	76	Fixation	Neutral	True
721.816	0.2	Control	0.6753	0.002	No	3.232	-0.002	2.0	NoResponse	0	0.277	721.093	11	76	Target	Neutral	True
722.016	0.5	Control	0.6753	n/a	No	3.232	n/a	n/a	NoResponse	0	n/a	n/a	11	76	Blank	Neutral	True
722.093	0.3	Control	0.6753	0.002	No	3.232	-0.002	2.0	NoResponse	0	0.277	n/a	11	76	ButtonPress	Neutral	True
722.516	1.45	Control	0.6753	n/a	No	3.232	n/a	5.0	NoResponse	0	0.036	721.552	11	76	Feedback	Neutral	True
723.966	3.232	Control	0.6753	n/a	No	3.232	n/a	n/a	NoResponse	0	0.0	n/a	11	76	ISIslide	Neutral	True
727.215	0.25	Lose2	0.6667000000000001	0.0	No	2.585	0.015	n/a	NoResponse	-1	n/a	n/a	10	77	Cue	Loss	True
727.464	3.95	Lose2	0.6667000000000001	0.001	No	2.585	-0.001	n/a	NoResponse	-1	n/a	n/a	10	77	Fixation	Loss	True
731.413	0.19	Lose2	0.6667000000000001	0.002	No	2.585	-0.002	2.0	NoResponse	-1	0.223	730.636	10	77	Target	Loss	True
731.613	0.51	Lose2	0.6667000000000001	n/a	No	2.585	n/a	n/a	NoResponse	-1	n/a	n/a	10	77	Blank	Loss	True
731.636	0.3	Lose2	0.6667000000000001	0.002	No	2.585	-0.002	2.0	NoResponse	-1	0.223	n/a	10	77	ButtonPress	Loss	True
732.113	1.45	Lose2	0.6667000000000001	n/a	No	2.585	n/a	5.0	NoResponse	-1	0.001	731.114	10	77	Feedback	Loss	True
733.562	2.585	Lose2	0.6667000000000001	n/a	No	2.585	n/a	n/a	NoResponse	-1	0.0	n/a	10	77	ISIslide	Loss	True
