onset	duration	cue_type	current_mean_accuracy	duration_error	is_hit	isi_adjusted	onset_delay	response	response_type	reward	rt	rt_time	total_reward	trial_number	trial_phase	trial_type	one_press
11.108	0.25	Control	1.0	0.0	Yes	2.942	0.008	n/a	GoodResponse	0	n/a	n/a	0	0	Cue	Neutral	True
11.359	3.85	Control	1.0	0.0	Yes	2.942	0.001	n/a	GoodResponse	0	n/a	n/a	0	0	Fixation	Neutral	True
15.204	0.4	Control	1.0	0.004	Yes	2.942	-0.004	3.0	GoodResponse	0	0.218	14.422	0	0	Target	Neutral	True
15.422	0.3	Control	1.0	0.004	Yes	2.942	-0.004	3.0	GoodResponse	0	0.218	n/a	0	0	ButtonPress	Neutral	True
15.605	0.3	Control	1.0	n/a	Yes	2.942	n/a	n/a	GoodResponse	0	n/a	n/a	0	0	Blank	Neutral	True
15.906	1.45	Control	1.0	n/a	Yes	2.942	n/a	5.0	GoodResponse	0	0.02	14.926	0	0	Feedback	Neutral	True
17.36	2.942	Control	1.0	n/a	Yes	2.942	n/a	n/a	GoodResponse	0	0.0	n/a	0	0	ISIslide	Neutral	True
20.319	0.25	Lose2	1.0	0.0	Yes	2.781	0.019	n/a	GoodResponse	0	n/a	n/a	0	1	Cue	AvoidedLoss	True
20.57	4.0	Lose2	1.0	0.0	Yes	2.781	0.001	n/a	GoodResponse	0	n/a	n/a	0	1	Fixation	AvoidedLoss	True
24.565	0.39	Lose2	1.0	0.004	Yes	2.781	-0.004	3.0	GoodResponse	0	0.192	23.757	0	1	Target	AvoidedLoss	True
24.757	0.3	Lose2	1.0	0.004	Yes	2.781	-0.004	3.0	GoodResponse	0	0.192	n/a	0	1	ButtonPress	AvoidedLoss	True
24.966	0.31	Lose2	1.0	n/a	Yes	2.781	n/a	n/a	GoodResponse	0	n/a	n/a	0	1	Blank	AvoidedLoss	True
25.267	1.45	Lose2	1.0	n/a	Yes	2.781	n/a	5.0	GoodResponse	0	0.025	24.292	0	1	Feedback	AvoidedLoss	True
26.722	2.781	Lose2	1.0	n/a	Yes	2.781	n/a	n/a	GoodResponse	0	0.0	n/a	0	1	ISIslide	AvoidedLoss	True
29.53	0.25	Control	1.0	0.0	Yes	2.57	0.03	n/a	GoodResponse	0	n/a	n/a	0	2	Cue	Neutral	True
29.781	4.1	Control	1.0	0.0	Yes	2.57	0.001	n/a	GoodResponse	0	n/a	n/a	0	2	Fixation	Neutral	True
33.876	0.38	Control	1.0	0.004	Yes	2.57	-0.004	3.0	GoodResponse	0	0.229	33.105	0	2	Target	Neutral	True
34.105	0.3	Control	1.0	0.004	Yes	2.57	-0.004	3.0	GoodResponse	0	0.229	n/a	0	2	ButtonPress	Neutral	True
34.261	0.32	Control	1.0	n/a	Yes	2.57	n/a	n/a	GoodResponse	0	n/a	n/a	0	2	Blank	Neutral	True
34.579	1.45	Control	1.0	n/a	Yes	2.57	n/a	5.0	GoodResponse	0	0.03	33.609	0	2	Feedback	Neutral	True
36.033	2.57	Control	1.0	n/a	Yes	2.57	n/a	n/a	GoodResponse	0	0.0	n/a	0	2	ISIslide	Neutral	True
38.624	0.25	Win2	1.0	0.0	Yes	2.826	0.024	n/a	GoodResponse	1	n/a	n/a	1	3	Cue	Win	True
38.875	3.95	Win2	1.0	0.0	Yes	2.826	0.001	n/a	GoodResponse	1	n/a	n/a	1	3	Fixation	Win	True
42.82	0.37	Win2	1.0	0.004	Yes	2.826	-0.004	3.0	GoodResponse	1	0.256	42.076	1	3	Target	Win	True
43.076	0.3	Win2	1.0	0.004	Yes	2.826	-0.004	3.0	GoodResponse	1	0.256	n/a	1	3	ButtonPress	Win	True
43.204	0.33	Win2	1.0	n/a	Yes	2.826	n/a	n/a	GoodResponse	1	n/a	n/a	1	3	Blank	Win	True
43.522	1.45	Win2	1.0	n/a	Yes	2.826	n/a	5.0	GoodResponse	1	0.013	42.535	1	3	Feedback	Win	True
44.976	2.826	Win2	1.0	n/a	Yes	2.826	n/a	n/a	GoodResponse	1	0.0	n/a	1	3	ISIslide	Win	True
47.818	0.25	Win2	1.0	0.0	Yes	3.282	0.018	n/a	GoodResponse	1	n/a	n/a	2	4	Cue	Win	True
48.069	4.0	Win2	1.0	0.0	Yes	3.282	0.001	n/a	GoodResponse	1	n/a	n/a	2	4	Fixation	Win	True
52.064	0.36	Win2	1.0	0.004	Yes	3.282	-0.004	3.0	GoodResponse	1	0.256	51.32	2	4	Target	Win	True
52.32	0.3	Win2	1.0	0.004	Yes	3.282	-0.004	3.0	GoodResponse	1	0.256	n/a	2	4	ButtonPress	Win	True
52.432	0.34	Win2	1.0	n/a	Yes	3.282	n/a	n/a	GoodResponse	1	n/a	n/a	2	4	Blank	Win	True
52.766	1.45	Win2	1.0	n/a	Yes	3.282	n/a	5.0	GoodResponse	1	0.038	51.804	2	4	Feedback	Win	True
54.221	3.282	Win2	1.0	n/a	Yes	3.282	n/a	n/a	GoodResponse	1	0.0	n/a	2	4	ISIslide	Win	True
57.531	0.25	Win2	1.0	0.0	Yes	2.769	0.031	n/a	GoodResponse	1	n/a	n/a	3	5	Cue	Win	True
57.781	4.0	Win2	1.0	0.0	Yes	2.769	0.0	n/a	GoodResponse	1	n/a	n/a	3	5	Fixation	Win	True
61.777	0.35	Win2	1.0	0.004	Yes	2.769	-0.004	3.0	GoodResponse	1	0.213	60.99	3	5	Target	Win	True
61.99	0.3	Win2	1.0	0.004	Yes	2.769	-0.004	3.0	GoodResponse	1	0.213	n/a	3	5	ButtonPress	Win	True
62.128	0.35	Win2	1.0	n/a	Yes	2.769	n/a	n/a	GoodResponse	1	n/a	n/a	3	5	Blank	Win	True
62.479	1.45	Win2	1.0	n/a	Yes	2.769	n/a	5.0	GoodResponse	1	0.032	61.511	3	5	Feedback	Win	True
63.933	2.769	Win2	1.0	n/a	Yes	2.769	n/a	n/a	GoodResponse	1	0.0	n/a	3	5	ISIslide	Win	True
66.725	0.25	Lose2	1.0	0.0	Yes	2.725	0.025	n/a	GoodResponse	0	n/a	n/a	3	6	Cue	AvoidedLoss	True
66.976	3.95	Lose2	1.0	0.0	Yes	2.725	0.001	n/a	GoodResponse	0	n/a	n/a	3	6	Fixation	AvoidedLoss	True
70.921	0.34	Lose2	1.0	0.004	Yes	2.725	-0.004	3.0	GoodResponse	0	0.22	70.141	3	6	Target	AvoidedLoss	True
71.141	0.3	Lose2	1.0	0.004	Yes	2.725	-0.004	3.0	GoodResponse	0	0.22	n/a	3	6	ButtonPress	AvoidedLoss	True
71.272	0.36	Lose2	1.0	n/a	Yes	2.725	n/a	n/a	GoodResponse	0	n/a	n/a	3	6	Blank	AvoidedLoss	True
71.623	1.45	Lose2	1.0	n/a	Yes	2.725	n/a	5.0	GoodResponse	0	0.01	70.633	3	6	Feedback	AvoidedLoss	True
73.077	2.725	Lose2	1.0	n/a	Yes	2.725	n/a	n/a	GoodResponse	0	0.0	n/a	3	6	ISIslide	AvoidedLoss	True
75.819	0.25	Lose2	1.0	0.0	Yes	4.031	0.019	n/a	GoodResponse	0	n/a	n/a	3	7	Cue	AvoidedLoss	True
76.069	4.05	Lose2	1.0	0.0	Yes	4.031	0.0	n/a	GoodResponse	0	n/a	n/a	3	7	Fixation	AvoidedLoss	True
80.115	0.33	Lose2	1.0	0.004	Yes	4.031	-0.004	3.0	GoodResponse	0	0.227	79.342	3	7	Target	AvoidedLoss	True
80.342	0.3	Lose2	1.0	0.004	Yes	4.031	-0.004	3.0	GoodResponse	0	0.227	n/a	3	7	ButtonPress	AvoidedLoss	True
80.449	0.37	Lose2	1.0	n/a	Yes	4.031	n/a	n/a	GoodResponse	0	n/a	n/a	3	7	Blank	AvoidedLoss	True
80.817	1.45	Lose2	1.0	n/a	Yes	4.031	n/a	5.0	GoodResponse	0	0.035	79.852	3	7	Feedback	AvoidedLoss	True
82.271	4.031	Lose2	1.0	n/a	Yes	4.031	n/a	n/a	GoodResponse	0	0.0	n/a	3	7	ISIslide	AvoidedLoss	True
86.317	0.25	Lose2	0.8889	0.0	No	3.033	0.017	n/a	NoResponse	-1	n/a	n/a	2	8	Cue	Loss	False
86.567	3.95	Lose2	0.8889	0.001	No	3.033	0.0	3.0	NoResponse	-1	3.874	89.441	2	8	Fixation	Loss	False
90.441	0.3	Lose2	0.8889	0.001	No	3.033	0.0	3.0	NoResponse	-1	3.874	n/a	2	8	ButtonPress	Loss	False
90.513	0.32	Lose2	0.8889	0.004	No	3.033	-0.004	3.0	NoResponse	-1	0.56	90.073	2	8	Target	Loss	False
90.847	0.38	Lose2	0.8889	n/a	No	3.033	n/a	n/a	NoResponse	-1	n/a	n/a	2	8	Blank	Loss	False
91.073	0.3	Lose2	0.8889	0.004	No	3.033	-0.004	3.0	NoResponse	-1	0.56	n/a	2	8	ButtonPress	Loss	False
91.215	1.45	Lose2	0.8889	n/a	No	3.033	n/a	5.0	NoResponse	-1	0.027	90.242	2	8	Feedback	Loss	False
92.669	3.033	Lose2	0.8889	n/a	No	3.033	n/a	n/a	NoResponse	-1	0.0	n/a	2	8	ISIslide	Loss	False
95.728	0.25	Lose2	0.9	0.0	Yes	3.122	0.028	n/a	GoodResponse	0	n/a	n/a	2	9	Cue	AvoidedLoss	True
95.979	3.95	Lose2	0.9	0.0	Yes	3.122	0.001	n/a	GoodResponse	0	n/a	n/a	2	9	Fixation	AvoidedLoss	True
99.924	0.31	Lose2	0.9	0.004	Yes	3.122	-0.004	3.0	GoodResponse	0	0.3	99.224	2	9	Target	AvoidedLoss	True
100.224	0.3	Lose2	0.9	0.004	Yes	3.122	-0.004	3.0	GoodResponse	0	0.3	n/a	2	9	ButtonPress	AvoidedLoss	True
100.242	0.39	Lose2	0.9	n/a	Yes	3.122	n/a	n/a	GoodResponse	0	n/a	n/a	2	9	Blank	AvoidedLoss	True
100.626	1.45	Lose2	0.9	n/a	Yes	3.122	n/a	5.0	GoodResponse	0	0.031	99.657	2	9	Feedback	AvoidedLoss	True
102.081	3.122	Lose2	0.9	n/a	Yes	3.122	n/a	n/a	GoodResponse	0	0.0	n/a	2	9	ISIslide	AvoidedLoss	True
105.223	0.25	Control	0.9091	0.0	Yes	3.277	0.023	n/a	GoodResponse	0	n/a	n/a	2	10	Cue	Neutral	True
105.474	4.0	Control	0.9091	0.0	Yes	3.277	0.001	n/a	GoodResponse	0	n/a	n/a	2	10	Fixation	Neutral	True
109.469	0.3	Control	0.9091	0.004	Yes	3.277	-0.004	3.0	GoodResponse	0	0.209	108.678	2	10	Target	Neutral	True
109.678	0.3	Control	0.9091	0.004	Yes	3.277	-0.004	3.0	GoodResponse	0	0.209	n/a	2	10	ButtonPress	Neutral	True
109.77	0.4	Control	0.9091	n/a	Yes	3.277	n/a	n/a	GoodResponse	0	n/a	n/a	2	10	Blank	Neutral	True
110.171	1.45	Control	0.9091	n/a	Yes	3.277	n/a	5.0	GoodResponse	0	0.047	109.218	2	10	Feedback	Neutral	True
111.626	3.277	Control	0.9091	n/a	Yes	3.277	n/a	n/a	GoodResponse	0	0.0	n/a	2	10	ISIslide	Neutral	True
114.919	0.25	Lose2	0.9167000000000001	0.0	Yes	2.731	0.019	n/a	GoodResponse	0	n/a	n/a	2	11	Cue	AvoidedLoss	True
115.17	4.05	Lose2	0.9167000000000001	0.0	Yes	2.731	0.001	n/a	GoodResponse	0	n/a	n/a	2	11	Fixation	AvoidedLoss	True
119.215	0.29	Lose2	0.9167000000000001	0.004	Yes	2.731	-0.004	3.0	GoodResponse	0	0.276	118.491	2	11	Target	AvoidedLoss	True
119.491	0.3	Lose2	0.9167000000000001	0.004	Yes	2.731	-0.004	3.0	GoodResponse	0	0.276	n/a	2	11	ButtonPress	AvoidedLoss	True
119.516	0.41	Lose2	0.9167000000000001	n/a	Yes	2.731	n/a	n/a	GoodResponse	0	n/a	n/a	2	11	Blank	AvoidedLoss	True
119.917	1.45	Lose2	0.9167000000000001	n/a	Yes	2.731	n/a	5.0	GoodResponse	0	0.009	118.926	2	11	Feedback	AvoidedLoss	True
121.372	2.731	Lose2	0.9167000000000001	n/a	Yes	2.731	n/a	n/a	GoodResponse	0	0.0	n/a	2	11	ISIslide	AvoidedLoss	True
124.13	0.25	Control	0.9231	0.0	Yes	2.97	0.03	n/a	GoodResponse	0	n/a	n/a	2	12	Cue	Neutral	True
124.381	3.9	Control	0.9231	0.0	Yes	2.97	0.001	n/a	GoodResponse	0	n/a	n/a	2	12	Fixation	Neutral	True
128.276	0.28	Control	0.9231	0.004	Yes	2.97	-0.004	3.0	GoodResponse	0	0.279	127.555	2	12	Target	Neutral	True
128.555	0.3	Control	0.9231	0.004	Yes	2.97	-0.004	3.0	GoodResponse	0	0.279	n/a	2	12	ButtonPress	Neutral	True
128.56	0.42	Control	0.9231	n/a	Yes	2.97	n/a	n/a	GoodResponse	0	n/a	n/a	2	12	Blank	Neutral	True
128.978	1.45	Control	0.9231	n/a	Yes	2.97	n/a	5.0	GoodResponse	0	0.02	127.998	2	12	Feedback	Neutral	True
130.432	2.97	Control	0.9231	n/a	Yes	2.97	n/a	n/a	GoodResponse	0	0.0	n/a	2	12	ISIslide	Neutral	True
133.424	0.25	Control	0.9286	0.0	Yes	2.776	0.024	n/a	GoodResponse	0	n/a	n/a	2	13	Cue	Neutral	True
133.675	4.0	Control	0.9286	0.0	Yes	2.776	0.001	n/a	GoodResponse	0	n/a	n/a	2	13	Fixation	Neutral	True
137.67	0.27	Control	0.9286	0.004	Yes	2.776	-0.004	3.0	GoodResponse	0	0.243	136.913	2	13	Target	Neutral	True
137.913	0.3	Control	0.9286	0.004	Yes	2.776	-0.004	3.0	GoodResponse	0	0.243	n/a	2	13	ButtonPress	Neutral	True
137.955	0.43	Control	0.9286	n/a	Yes	2.776	n/a	n/a	GoodResponse	0	n/a	n/a	2	13	Blank	Neutral	True
138.373	1.45	Control	0.9286	n/a	Yes	2.776	n/a	5.0	GoodResponse	0	0.04	137.413	2	13	Feedback	Neutral	True
139.827	2.776	Control	0.9286	n/a	Yes	2.776	n/a	n/a	GoodResponse	0	0.0	n/a	2	13	ISIslide	Neutral	True
142.619	0.25	Win2	0.9333	0.0	Yes	2.681	0.019	n/a	GoodResponse	1	n/a	n/a	3	14	Cue	Win	True
142.869	4.1	Win2	0.9333	0.0	Yes	2.681	0.0	n/a	GoodResponse	1	n/a	n/a	3	14	Fixation	Win	True
146.965	0.26	Win2	0.9333	0.004	Yes	2.681	-0.004	3.0	GoodResponse	1	0.22	146.185	3	14	Target	Win	True
147.185	0.3	Win2	0.9333	0.004	Yes	2.681	-0.004	3.0	GoodResponse	1	0.22	n/a	3	14	ButtonPress	Win	True
147.232	0.44	Win2	0.9333	n/a	Yes	2.681	n/a	n/a	GoodResponse	1	n/a	n/a	3	14	Blank	Win	True
147.667	1.45	Win2	0.9333	n/a	Yes	2.681	n/a	5.0	GoodResponse	1	0.014	146.681	3	14	Feedback	Win	True
149.121	2.681	Win2	0.9333	n/a	Yes	2.681	n/a	n/a	GoodResponse	1	0.0	n/a	3	14	ISIslide	Win	True
151.83	0.25	Control	0.875	0.0	No	2.97	0.03	n/a	NoResponse	0	n/a	n/a	3	15	Cue	Neutral	True
152.08	4.0	Control	0.875	0.0	No	2.97	0.0	n/a	NoResponse	0	n/a	n/a	3	15	Fixation	Neutral	True
156.076	0.25	Control	0.875	0.004	No	2.97	-0.004	3.0	NoResponse	0	0.26	155.336	3	15	Target	Neutral	True
156.326	0.45	Control	0.875	n/a	No	2.97	n/a	n/a	NoResponse	0	n/a	n/a	3	15	Blank	Neutral	True
156.336	0.3	Control	0.875	0.004	No	2.97	-0.004	3.0	NoResponse	0	0.26	n/a	3	15	ButtonPress	Neutral	True
156.778	1.45	Control	0.875	n/a	No	2.97	n/a	5.0	NoResponse	0	0.025	155.803	3	15	Feedback	Neutral	True
158.232	2.97	Control	0.875	n/a	No	2.97	n/a	n/a	NoResponse	0	0.0	n/a	3	15	ISIslide	Neutral	True
161.224	0.25	Win2	0.8824	0.0	Yes	2.876	0.024	n/a	GoodResponse	1	n/a	n/a	4	16	Cue	Win	True
161.475	4.0	Win2	0.8824	0.0	Yes	2.876	0.001	n/a	GoodResponse	1	n/a	n/a	4	16	Fixation	Win	True
165.47	0.24	Win2	0.8824	0.004	Yes	2.876	-0.004	3.0	GoodResponse	1	0.233	164.703	4	16	Target	Win	True
165.703	0.3	Win2	0.8824	0.004	Yes	2.876	-0.004	3.0	GoodResponse	1	0.233	n/a	4	16	ButtonPress	Win	True
165.721	0.46	Win2	0.8824	n/a	Yes	2.876	n/a	n/a	GoodResponse	1	n/a	n/a	4	16	Blank	Win	True
166.172	1.45	Win2	0.8824	n/a	Yes	2.876	n/a	5.0	GoodResponse	1	0.046	165.218	4	16	Feedback	Win	True
167.627	2.876	Win2	0.8824	n/a	Yes	2.876	n/a	n/a	GoodResponse	1	0.0	n/a	4	16	ISIslide	Win	True
170.519	0.25	Lose2	0.8332999999999999	0.0	No	2.731	0.019	n/a	NoResponse	-1	n/a	n/a	3	17	Cue	Loss	True
170.77	3.95	Lose2	0.8332999999999999	0.0	No	2.731	0.001	n/a	NoResponse	-1	n/a	n/a	3	17	Fixation	Loss	True
174.715	0.23	Lose2	0.8332999999999999	0.004	No	2.731	-0.004	3.0	NoResponse	-1	0.251	173.966	3	17	Target	Loss	True
174.949	0.47	Lose2	0.8332999999999999	n/a	No	2.731	n/a	n/a	NoResponse	-1	n/a	n/a	3	17	Blank	Loss	True
174.966	0.3	Lose2	0.8332999999999999	0.004	No	2.731	-0.004	3.0	NoResponse	-1	0.251	n/a	3	17	ButtonPress	Loss	True
175.417	1.45	Lose2	0.8332999999999999	n/a	No	2.731	n/a	5.0	NoResponse	-1	0.021	174.438	3	17	Feedback	Loss	True
176.871	2.731	Lose2	0.8332999999999999	n/a	No	2.731	n/a	n/a	NoResponse	-1	0.0	n/a	3	17	ISIslide	Loss	True
179.629	0.25	Lose2	0.7895	0.0	No	2.721	0.029	n/a	NoResponse	-1	n/a	n/a	2	18	Cue	Loss	True
179.88	4.05	Lose2	0.7895	0.0	No	2.721	0.001	n/a	NoResponse	-1	n/a	n/a	2	18	Fixation	Loss	True
183.926	0.22	Lose2	0.7895	0.003	No	2.721	-0.003	3.0	NoResponse	-1	0.241	183.167	2	18	Target	Loss	True
184.16	0.48	Lose2	0.7895	n/a	No	2.721	n/a	n/a	NoResponse	-1	n/a	n/a	2	18	Blank	Loss	True
184.167	0.3	Lose2	0.7895	0.003	No	2.721	-0.003	3.0	NoResponse	-1	0.241	n/a	2	18	ButtonPress	Loss	True
184.628	1.45	Lose2	0.7895	n/a	No	2.721	n/a	5.0	NoResponse	-1	0.028	183.656	2	18	Feedback	Loss	True
186.082	2.721	Lose2	0.7895	n/a	No	2.721	n/a	n/a	NoResponse	-1	0.0	n/a	2	18	ISIslide	Loss	True
188.824	0.25	Control	0.75	0.0	No	2.926	0.024	n/a	NoResponse	0	n/a	n/a	2	19	Cue	Neutral	True
189.074	3.95	Control	0.75	0.0	No	2.926	0.0	n/a	NoResponse	0	n/a	n/a	2	19	Fixation	Neutral	True
193.036	0.21	Control	0.75	0.0	No	2.926	0.012	3.0	NoResponse	0	0.221	192.257	2	19	Target	Neutral	True
193.237	0.49	Control	0.75	n/a	No	2.926	n/a	n/a	NoResponse	0	n/a	n/a	2	19	Blank	Neutral	True
193.257	0.3	Control	0.75	0.0	No	2.926	0.012	3.0	NoResponse	0	0.221	n/a	2	19	ButtonPress	Neutral	True
193.722	1.45	Control	0.75	n/a	No	2.926	n/a	5.0	NoResponse	0	0.008	192.73	2	19	Feedback	Neutral	True
195.176	2.926	Control	0.75	n/a	No	2.926	n/a	n/a	NoResponse	0	0.0	n/a	2	19	ISIslide	Neutral	True
198.118	0.25	Control	0.7143	0.0	No	2.632	0.018	n/a	NoResponse	0	n/a	n/a	2	20	Cue	Neutral	True
198.369	4.05	Control	0.7143	0.0	No	2.632	0.001	n/a	NoResponse	0	n/a	n/a	2	20	Fixation	Neutral	True
202.414	0.2	Control	0.7143	0.004	No	2.632	-0.004	3.0	NoResponse	0	0.212	201.626	2	20	Target	Neutral	True
202.615	0.5	Control	0.7143	n/a	No	2.632	n/a	n/a	NoResponse	0	n/a	n/a	2	20	Blank	Neutral	True
202.626	0.3	Control	0.7143	0.004	No	2.632	-0.004	3.0	NoResponse	0	0.212	n/a	2	20	ButtonPress	Neutral	True
203.116	1.45	Control	0.7143	n/a	No	2.632	n/a	5.0	NoResponse	0	0.028	202.144	2	20	Feedback	Neutral	True
204.571	2.632	Control	0.7143	n/a	No	2.632	n/a	n/a	NoResponse	0	0.0	n/a	2	20	ISIslide	Neutral	True
207.229	0.25	Control	0.6818000000000001	0.0	No	2.771	0.029	n/a	NoResponse	0	n/a	n/a	2	21	Cue	Neutral	True
207.479	4.1	Control	0.6818000000000001	0.0	No	2.771	0.0	n/a	NoResponse	0	n/a	n/a	2	21	Fixation	Neutral	True
211.575	0.19	Control	0.6818000000000001	0.004	No	2.771	-0.004	3.0	NoResponse	0	0.238	210.813	2	21	Target	Neutral	True
211.776	0.51	Control	0.6818000000000001	n/a	No	2.771	n/a	n/a	NoResponse	0	n/a	n/a	2	21	Blank	Neutral	True
211.813	0.3	Control	0.6818000000000001	0.004	No	2.771	-0.004	3.0	NoResponse	0	0.238	n/a	2	21	ButtonPress	Neutral	True
212.277	1.45	Control	0.6818000000000001	n/a	No	2.771	n/a	5.0	NoResponse	0	0.038	211.315	2	21	Feedback	Neutral	True
213.731	2.771	Control	0.6818000000000001	n/a	No	2.771	n/a	n/a	NoResponse	0	0.0	n/a	2	21	ISIslide	Neutral	True
216.523	0.25	Control	0.6522	0.0	No	2.777	0.023	n/a	NoResponse	0	n/a	n/a	2	22	Cue	Neutral	True
216.774	4.0	Control	0.6522	0.0	No	2.777	0.001	n/a	NoResponse	0	n/a	n/a	2	22	Fixation	Neutral	True
220.769	0.18	Control	0.6522	0.004	No	2.777	-0.004	3.0	NoResponse	0	0.225	219.994	2	22	Target	Neutral	True
220.953	0.52	Control	0.6522	n/a	No	2.777	n/a	n/a	NoResponse	0	n/a	n/a	2	22	Blank	Neutral	True
220.994	0.3	Control	0.6522	0.004	No	2.777	-0.004	3.0	NoResponse	0	0.225	n/a	2	22	ButtonPress	Neutral	True
221.471	1.45	Control	0.6522	n/a	No	2.777	n/a	5.0	NoResponse	0	0.015	220.486	2	22	Feedback	Neutral	True
222.926	2.777	Control	0.6522	n/a	No	2.777	n/a	n/a	NoResponse	0	0.0	n/a	2	22	ISIslide	Neutral	True
225.717	0.25	Control	0.625	0.0	No	2.783	0.017	n/a	NoResponse	0	n/a	n/a	2	23	Cue	Neutral	True
225.968	3.9	Control	0.625	0.0	No	2.783	0.001	n/a	NoResponse	0	n/a	n/a	2	23	Fixation	Neutral	True
229.863	0.19	Control	0.625	0.004	No	2.783	-0.004	3.0	NoResponse	0	0.235	229.098	2	23	Target	Neutral	True
230.064	0.51	Control	0.625	n/a	No	2.783	n/a	n/a	NoResponse	0	n/a	n/a	2	23	Blank	Neutral	True
230.098	0.3	Control	0.625	0.004	No	2.783	-0.004	3.0	NoResponse	0	0.235	n/a	2	23	ButtonPress	Neutral	True
230.565	1.45	Control	0.625	n/a	No	2.783	n/a	5.0	NoResponse	0	0.042	229.607	2	23	Feedback	Neutral	True
232.02	2.783	Control	0.625	n/a	No	2.783	n/a	n/a	NoResponse	0	0.0	n/a	2	23	ISIslide	Neutral	True
234.828	0.25	Win2	0.6	0.0	No	3.122	0.028	n/a	NoResponse	0	n/a	n/a	2	24	Cue	MissedWin	True
235.079	3.95	Win2	0.6	0.0	No	3.122	0.001	n/a	NoResponse	0	n/a	n/a	2	24	Fixation	MissedWin	True
239.024	0.2	Win2	0.6	0.004	No	3.122	-0.004	3.0	NoResponse	0	0.229	238.253	2	24	Target	MissedWin	True
239.224	0.5	Win2	0.6	n/a	No	3.122	n/a	n/a	NoResponse	0	n/a	n/a	2	24	Blank	MissedWin	True
239.253	0.3	Win2	0.6	0.004	No	3.122	-0.004	3.0	NoResponse	0	0.229	n/a	2	24	ButtonPress	MissedWin	True
239.726	1.45	Win2	0.6	n/a	No	3.122	n/a	5.0	NoResponse	0	0.007	238.733	2	24	Feedback	MissedWin	True
241.18	3.122	Win2	0.6	n/a	No	3.122	n/a	n/a	NoResponse	0	0.0	n/a	2	24	ISIslide	MissedWin	True
244.323	0.25	Win2	0.5769	0.0	No	3.077	0.023	n/a	NoResponse	0	n/a	n/a	2	25	Cue	MissedWin	True
244.574	4.0	Win2	0.5769	0.0	No	3.077	0.001	n/a	NoResponse	0	n/a	n/a	2	25	Fixation	MissedWin	True
248.569	0.21	Win2	0.5769	0.004	No	3.077	-0.004	3.0	NoResponse	0	0.262	247.831	2	25	Target	MissedWin	True
248.786	0.49	Win2	0.5769	n/a	No	3.077	n/a	n/a	NoResponse	0	n/a	n/a	2	25	Blank	MissedWin	True
248.831	0.3	Win2	0.5769	0.004	No	3.077	-0.004	3.0	NoResponse	0	0.262	n/a	2	25	ButtonPress	MissedWin	True
249.271	1.45	Win2	0.5769	n/a	No	3.077	n/a	5.0	NoResponse	0	0.019	248.29	2	25	Feedback	MissedWin	True
250.726	3.077	Win2	0.5769	n/a	No	3.077	n/a	n/a	NoResponse	0	0.0	n/a	2	25	ISIslide	MissedWin	True
253.818	0.25	Win2	0.5556	0.0	No	2.932	0.018	n/a	NoResponse	0	n/a	n/a	2	26	Cue	MissedWin	True
254.069	3.95	Win2	0.5556	0.0	No	2.932	0.001	n/a	NoResponse	0	n/a	n/a	2	26	Fixation	MissedWin	True
258.014	0.22	Win2	0.5556	0.004	No	2.932	-0.004	3.0	NoResponse	0	0.269	257.283	2	26	Target	MissedWin	True
258.248	0.48	Win2	0.5556	n/a	No	2.932	n/a	n/a	NoResponse	0	n/a	n/a	2	26	Blank	MissedWin	True
258.283	0.3	Win2	0.5556	0.004	No	2.932	-0.004	3.0	NoResponse	0	0.269	n/a	2	26	ButtonPress	MissedWin	True
258.716	1.45	Win2	0.5556	n/a	No	2.932	n/a	5.0	NoResponse	0	0.038	257.754	2	26	Feedback	MissedWin	True
260.17	2.932	Win2	0.5556	n/a	No	2.932	n/a	n/a	NoResponse	0	0.0	n/a	2	26	ISIslide	MissedWin	True
263.129	0.25	Lose2	0.5714	0.0	Yes	2.821	0.029	n/a	GoodResponse	0	n/a	n/a	2	27	Cue	AvoidedLoss	True
263.38	4.05	Lose2	0.5714	0.0	Yes	2.821	0.001	n/a	GoodResponse	0	n/a	n/a	2	27	Fixation	AvoidedLoss	True
267.426	0.23	Lose2	0.5714	0.003	Yes	2.821	-0.003	3.0	GoodResponse	0	0.218	266.644	2	27	Target	AvoidedLoss	True
267.644	0.3	Lose2	0.5714	0.003	Yes	2.821	-0.003	3.0	GoodResponse	0	0.218	n/a	2	27	ButtonPress	AvoidedLoss	True
267.66	0.47	Lose2	0.5714	n/a	Yes	2.821	n/a	n/a	GoodResponse	0	n/a	n/a	2	27	Blank	AvoidedLoss	True
268.128	1.45	Lose2	0.5714	n/a	Yes	2.821	n/a	5.0	GoodResponse	0	0.04	267.168	2	27	Feedback	AvoidedLoss	True
269.582	2.821	Lose2	0.5714	n/a	Yes	2.821	n/a	n/a	GoodResponse	0	0.0	n/a	2	27	ISIslide	AvoidedLoss	True
272.424	0.25	Control	0.5861999999999999	0.0	Yes	2.826	0.024	n/a	GoodResponse	0	n/a	n/a	2	28	Cue	Neutral	True
272.675	4.05	Control	0.5861999999999999	0.0	Yes	2.826	0.001	n/a	GoodResponse	0	n/a	n/a	2	28	Fixation	Neutral	True
276.72	0.24	Control	0.5861999999999999	0.004	Yes	2.826	-0.004	3.0	GoodResponse	0	0.207	275.927	2	28	Target	Neutral	True
276.927	0.3	Control	0.5861999999999999	0.004	Yes	2.826	-0.004	3.0	GoodResponse	0	0.207	n/a	2	28	ButtonPress	Neutral	True
276.971	0.46	Control	0.5861999999999999	n/a	Yes	2.826	n/a	n/a	GoodResponse	0	n/a	n/a	2	28	Blank	Neutral	True
277.422	1.45	Control	0.5861999999999999	n/a	Yes	2.826	n/a	5.0	GoodResponse	0	0.014	276.436	2	28	Feedback	Neutral	True
278.876	2.826	Control	0.5861999999999999	n/a	Yes	2.826	n/a	n/a	GoodResponse	0	0.0	n/a	2	28	ISIslide	Neutral	True
281.718	0.25	Lose2	0.6	0.0	Yes	2.832	0.018	n/a	GoodResponse	0	n/a	n/a	2	29	Cue	AvoidedLoss	True
281.969	3.95	Lose2	0.6	0.0	Yes	2.832	0.001	n/a	GoodResponse	0	n/a	n/a	2	29	Fixation	AvoidedLoss	True
285.914	0.25	Lose2	0.6	0.004	Yes	2.832	-0.004	3.0	GoodResponse	0	0.214	285.128	2	29	Target	AvoidedLoss	True
286.128	0.3	Lose2	0.6	0.004	Yes	2.832	-0.004	3.0	GoodResponse	0	0.214	n/a	2	29	ButtonPress	AvoidedLoss	True
286.165	0.45	Lose2	0.6	n/a	Yes	2.832	n/a	n/a	GoodResponse	0	n/a	n/a	2	29	Blank	AvoidedLoss	True
286.616	1.45	Lose2	0.6	n/a	Yes	2.832	n/a	5.0	GoodResponse	0	0.04	285.656	2	29	Feedback	AvoidedLoss	True
288.071	2.832	Lose2	0.6	n/a	Yes	2.832	n/a	n/a	GoodResponse	0	0.0	n/a	2	29	ISIslide	AvoidedLoss	True
290.929	0.25	Win2	0.6129	0.0	Yes	2.771	0.029	n/a	GoodResponse	1	n/a	n/a	3	30	Cue	Win	True
291.18	3.9	Win2	0.6129	0.0	Yes	2.771	0.001	n/a	GoodResponse	1	n/a	n/a	3	30	Fixation	Win	True
295.075	0.26	Win2	0.6129	0.004	Yes	2.771	-0.004	3.0	GoodResponse	1	0.214	294.289	3	30	Target	Win	True
295.289	0.3	Win2	0.6129	0.004	Yes	2.771	-0.004	3.0	GoodResponse	1	0.214	n/a	3	30	ButtonPress	Win	True
295.342	0.44	Win2	0.6129	n/a	Yes	2.771	n/a	n/a	GoodResponse	1	n/a	n/a	3	30	Blank	Win	True
295.777	1.45	Win2	0.6129	n/a	Yes	2.771	n/a	5.0	GoodResponse	1	0.001	294.778	3	30	Feedback	Win	True
297.231	2.771	Win2	0.6129	n/a	Yes	2.771	n/a	n/a	GoodResponse	1	0.0	n/a	3	30	ISIslide	Win	True
300.023	0.25	Lose2	0.625	0.0	Yes	2.827	0.023	n/a	GoodResponse	0	n/a	n/a	3	31	Cue	AvoidedLoss	True
300.274	4.05	Lose2	0.625	0.0	Yes	2.827	0.001	n/a	GoodResponse	0	n/a	n/a	3	31	Fixation	AvoidedLoss	True
304.319	0.27	Lose2	0.625	0.004	Yes	2.827	-0.004	3.0	GoodResponse	0	0.218	303.537	3	31	Target	AvoidedLoss	True
304.537	0.3	Lose2	0.625	0.004	Yes	2.827	-0.004	3.0	GoodResponse	0	0.218	n/a	3	31	ButtonPress	AvoidedLoss	True
304.603	0.43	Lose2	0.625	n/a	Yes	2.827	n/a	n/a	GoodResponse	0	n/a	n/a	3	31	Blank	AvoidedLoss	True
305.021	1.45	Lose2	0.625	n/a	Yes	2.827	n/a	5.0	GoodResponse	0	0.025	304.046	3	31	Feedback	AvoidedLoss	True
306.476	2.827	Lose2	0.625	n/a	Yes	2.827	n/a	n/a	GoodResponse	0	0.0	n/a	3	31	ISIslide	AvoidedLoss	True
309.318	0.25	Lose2	0.6364	0.0	Yes	2.632	0.018	n/a	GoodResponse	0	n/a	n/a	3	32	Cue	AvoidedLoss	True
309.568	4.15	Lose2	0.6364	0.0	Yes	2.632	0.0	n/a	GoodResponse	0	n/a	n/a	3	32	Fixation	AvoidedLoss	True
313.714	0.28	Lose2	0.6364	0.004	Yes	2.632	-0.004	3.0	GoodResponse	0	0.221	312.935	3	32	Target	AvoidedLoss	True
313.935	0.3	Lose2	0.6364	0.004	Yes	2.632	-0.004	3.0	GoodResponse	0	0.221	n/a	3	32	ButtonPress	AvoidedLoss	True
313.998	0.42	Lose2	0.6364	n/a	Yes	2.632	n/a	n/a	GoodResponse	0	n/a	n/a	3	32	Blank	AvoidedLoss	True
314.416	1.45	Lose2	0.6364	n/a	Yes	2.632	n/a	5.0	GoodResponse	0	0.045	313.461	3	32	Feedback	AvoidedLoss	True
315.871	2.632	Lose2	0.6364	n/a	Yes	2.632	n/a	n/a	GoodResponse	0	0.0	n/a	3	32	ISIslide	AvoidedLoss	True
318.528	0.25	Win2	0.6470999999999999	0.001	Yes	2.672	0.028	n/a	GoodResponse	1	n/a	n/a	4	33	Cue	Win	True
318.779	4.0	Win2	0.6470999999999999	0.0	Yes	2.672	0.001	n/a	GoodResponse	1	n/a	n/a	4	33	Fixation	Win	True
322.775	0.29	Win2	0.6470999999999999	0.003	Yes	2.672	-0.003	3.0	GoodResponse	1	0.212	321.987	4	33	Target	Win	True
322.987	0.3	Win2	0.6470999999999999	0.003	Yes	2.672	-0.003	3.0	GoodResponse	1	0.212	n/a	4	33	ButtonPress	Win	True
323.075	0.41	Win2	0.6470999999999999	n/a	Yes	2.672	n/a	n/a	GoodResponse	1	n/a	n/a	4	33	Blank	Win	True
323.477	1.45	Win2	0.6470999999999999	n/a	Yes	2.672	n/a	5.0	GoodResponse	1	0.008	322.485	4	33	Feedback	Win	True
324.931	2.672	Win2	0.6470999999999999	n/a	Yes	2.672	n/a	n/a	GoodResponse	1	0.0	n/a	4	33	ISIslide	Win	True
327.622	0.25	Lose2	0.6570999999999999	0.0	Yes	2.628	0.022	n/a	GoodResponse	0	n/a	n/a	4	34	Cue	AvoidedLoss	True
327.873	4.05	Lose2	0.6570999999999999	0.0	Yes	2.628	0.001	n/a	GoodResponse	0	n/a	n/a	4	34	Fixation	AvoidedLoss	True
331.919	0.3	Lose2	0.6570999999999999	0.003	Yes	2.628	-0.003	3.0	GoodResponse	0	0.212	331.131	4	34	Target	AvoidedLoss	True
332.131	0.3	Lose2	0.6570999999999999	0.003	Yes	2.628	-0.003	3.0	GoodResponse	0	0.212	n/a	4	34	ButtonPress	AvoidedLoss	True
332.219	0.4	Lose2	0.6570999999999999	n/a	Yes	2.628	n/a	n/a	GoodResponse	0	n/a	n/a	4	34	Blank	AvoidedLoss	True
332.621	1.45	Lose2	0.6570999999999999	n/a	Yes	2.628	n/a	5.0	GoodResponse	0	0.034	331.655	4	34	Feedback	AvoidedLoss	True
334.075	2.628	Lose2	0.6570999999999999	n/a	Yes	2.628	n/a	n/a	GoodResponse	0	0.0	n/a	4	34	ISIslide	AvoidedLoss	True
336.716	0.25	Lose2	0.6667000000000001	0.0	Yes	2.684	0.016	n/a	GoodResponse	0	n/a	n/a	4	35	Cue	AvoidedLoss	True
336.967	4.0	Lose2	0.6667000000000001	0.0	Yes	2.684	0.001	n/a	GoodResponse	0	n/a	n/a	4	35	Fixation	AvoidedLoss	True
340.962	0.3	Lose2	0.6667000000000001	0.004	Yes	2.684	-0.004	3.0	GoodResponse	0	0.282	340.244	4	35	Target	AvoidedLoss	True
341.244	0.3	Lose2	0.6667000000000001	0.004	Yes	2.684	-0.004	3.0	GoodResponse	0	0.282	n/a	4	35	ButtonPress	AvoidedLoss	True
341.263	0.4	Lose2	0.6667000000000001	n/a	Yes	2.684	n/a	n/a	GoodResponse	0	n/a	n/a	4	35	Blank	AvoidedLoss	True
341.664	1.45	Lose2	0.6667000000000001	n/a	Yes	2.684	n/a	5.0	GoodResponse	0	0.016	340.68	4	35	Feedback	AvoidedLoss	True
343.119	2.684	Lose2	0.6667000000000001	n/a	Yes	2.684	n/a	n/a	GoodResponse	0	0.0	n/a	4	35	ISIslide	AvoidedLoss	True
345.827	0.25	Control	0.6757	0.0	Yes	2.673	0.027	n/a	GoodResponse	0	n/a	n/a	4	36	Cue	Neutral	True
346.078	4.0	Control	0.6757	0.0	Yes	2.673	0.001	n/a	GoodResponse	0	n/a	n/a	4	36	Fixation	Neutral	True
350.073	0.29	Control	0.6757	0.004	Yes	2.673	-0.004	3.0	GoodResponse	0	0.218	349.291	4	36	Target	Neutral	True
350.291	0.3	Control	0.6757	0.004	Yes	2.673	-0.004	3.0	GoodResponse	0	0.218	n/a	4	36	ButtonPress	Neutral	True
350.374	0.41	Control	0.6757	n/a	Yes	2.673	n/a	n/a	GoodResponse	0	n/a	n/a	4	36	Blank	Neutral	True
350.775	1.45	Control	0.6757	n/a	Yes	2.673	n/a	5.0	GoodResponse	0	0.027	349.802	4	36	Feedback	Neutral	True
352.229	2.673	Control	0.6757	n/a	Yes	2.673	n/a	n/a	GoodResponse	0	0.0	n/a	4	36	ISIslide	Neutral	True
354.921	0.25	Win2	0.6842	0.0	Yes	2.879	0.021	n/a	GoodResponse	1	n/a	n/a	5	37	Cue	Win	True
355.172	4.0	Win2	0.6842	0.0	Yes	2.879	0.001	n/a	GoodResponse	1	n/a	n/a	5	37	Fixation	Win	True
359.167	0.28	Win2	0.6842	0.004	Yes	2.879	-0.004	3.0	GoodResponse	1	0.245	358.412	5	37	Target	Win	True
359.412	0.3	Win2	0.6842	0.004	Yes	2.879	-0.004	3.0	GoodResponse	1	0.245	n/a	5	37	ButtonPress	Win	True
359.451	0.42	Win2	0.6842	n/a	Yes	2.879	n/a	n/a	GoodResponse	1	n/a	n/a	5	37	Blank	Win	True
359.869	1.45	Win2	0.6842	n/a	Yes	2.879	n/a	5.0	GoodResponse	1	0.007	358.876	5	37	Feedback	Win	True
361.323	2.879	Win2	0.6842	n/a	Yes	2.879	n/a	n/a	GoodResponse	1	0.0	n/a	5	37	ISIslide	Win	True
364.215	0.25	Lose2	0.6923	0.0	Yes	2.835	0.015	n/a	GoodResponse	0	n/a	n/a	5	38	Cue	AvoidedLoss	True
364.466	3.95	Lose2	0.6923	0.0	Yes	2.835	0.001	n/a	GoodResponse	0	n/a	n/a	5	38	Fixation	AvoidedLoss	True
368.411	0.27	Lose2	0.6923	0.004	Yes	2.835	-0.004	3.0	GoodResponse	0	0.215	367.626	5	38	Target	AvoidedLoss	True
368.626	0.3	Lose2	0.6923	0.004	Yes	2.835	-0.004	3.0	GoodResponse	0	0.215	n/a	5	38	ButtonPress	AvoidedLoss	True
368.695	0.43	Lose2	0.6923	n/a	Yes	2.835	n/a	n/a	GoodResponse	0	n/a	n/a	5	38	Blank	AvoidedLoss	True
369.113	1.45	Lose2	0.6923	n/a	Yes	2.835	n/a	5.0	GoodResponse	0	0.03	368.143	5	38	Feedback	AvoidedLoss	True
370.568	2.835	Lose2	0.6923	n/a	Yes	2.835	n/a	n/a	GoodResponse	0	0.0	n/a	5	38	ISIslide	AvoidedLoss	True
373.426	0.25	Win2	0.7	0.0	Yes	2.974	0.026	n/a	GoodResponse	1	n/a	n/a	6	39	Cue	Win	True
373.677	4.1	Win2	0.7	0.0	Yes	2.974	0.001	n/a	GoodResponse	1	n/a	n/a	6	39	Fixation	Win	True
377.772	0.26	Win2	0.7	0.004	Yes	2.974	-0.004	3.0	GoodResponse	1	0.231	377.003	6	39	Target	Win	True
378.003	0.3	Win2	0.7	0.004	Yes	2.974	-0.004	3.0	GoodResponse	1	0.231	n/a	6	39	ButtonPress	Win	True
378.04	0.44	Win2	0.7	n/a	Yes	2.974	n/a	n/a	GoodResponse	1	n/a	n/a	6	39	Blank	Win	True
378.475	1.45	Win2	0.7	n/a	Yes	2.974	n/a	5.0	GoodResponse	1	0.033	377.508	6	39	Feedback	Win	True
379.929	2.974	Win2	0.7	n/a	Yes	2.974	n/a	n/a	GoodResponse	1	0.0	n/a	6	39	ISIslide	Win	True
382.921	0.25	Win2	0.7073	0.0	Yes	2.729	0.021	n/a	GoodResponse	1	n/a	n/a	7	40	Cue	Win	True
383.172	3.95	Win2	0.7073	0.0	Yes	2.729	0.001	n/a	GoodResponse	1	n/a	n/a	7	40	Fixation	Win	True
387.117	0.25	Win2	0.7073	0.004	Yes	2.729	-0.004	3.0	GoodResponse	1	0.21	386.327	7	40	Target	Win	True
387.327	0.3	Win2	0.7073	0.004	Yes	2.729	-0.004	3.0	GoodResponse	1	0.21	n/a	7	40	ButtonPress	Win	True
387.368	0.45	Win2	0.7073	n/a	Yes	2.729	n/a	n/a	GoodResponse	1	n/a	n/a	7	40	Blank	Win	True
387.819	1.45	Win2	0.7073	n/a	Yes	2.729	n/a	5.0	GoodResponse	1	0.008	386.827	7	40	Feedback	Win	True
389.274	2.729	Win2	0.7073	n/a	Yes	2.729	n/a	n/a	GoodResponse	1	0.0	n/a	7	40	ISIslide	Win	True
392.032	0.25	Win2	0.7143	0.0	Yes	2.768	0.032	n/a	GoodResponse	1	n/a	n/a	8	41	Cue	Win	True
392.283	3.9	Win2	0.7143	0.0	Yes	2.768	0.001	n/a	GoodResponse	1	n/a	n/a	8	41	Fixation	Win	True
396.178	0.24	Win2	0.7143	0.004	Yes	2.768	-0.004	3.0	GoodResponse	1	0.232	395.41	8	41	Target	Win	True
396.41	0.3	Win2	0.7143	0.004	Yes	2.768	-0.004	3.0	GoodResponse	1	0.232	n/a	8	41	ButtonPress	Win	True
396.428	0.46	Win2	0.7143	n/a	Yes	2.768	n/a	n/a	GoodResponse	1	n/a	n/a	8	41	Blank	Win	True
396.88	1.45	Win2	0.7143	n/a	Yes	2.768	n/a	5.0	GoodResponse	1	0.019	395.899	8	41	Feedback	Win	True
398.334	2.768	Win2	0.7143	n/a	Yes	2.768	n/a	n/a	GoodResponse	1	0.0	n/a	8	41	ISIslide	Win	True
401.126	0.25	Control	0.6977	0.0	No	2.924	0.026	n/a	NoResponse	0	n/a	n/a	8	42	Cue	Neutral	True
401.376	3.85	Control	0.6977	0.001	No	2.924	0.0	n/a	NoResponse	0	n/a	n/a	8	42	Fixation	Neutral	True
405.238	0.23	Control	0.6977	0.0	No	2.924	0.012	3.0	NoResponse	0	0.258	404.496	8	42	Target	Neutral	True
405.455	0.47	Control	0.6977	n/a	No	2.924	n/a	n/a	NoResponse	0	n/a	n/a	8	42	Blank	Neutral	True
405.496	0.3	Control	0.6977	0.0	No	2.924	0.012	3.0	NoResponse	0	0.258	n/a	8	42	ButtonPress	Neutral	True
405.923	1.45	Control	0.6977	n/a	No	2.924	n/a	5.0	NoResponse	0	0.049	404.972	8	42	Feedback	Neutral	True
407.378	2.924	Control	0.6977	n/a	No	2.924	n/a	n/a	NoResponse	0	0.0	n/a	8	42	ISIslide	Neutral	True
410.32	0.25	Win2	0.7045	0.0	Yes	3.18	0.02	n/a	GoodResponse	1	n/a	n/a	9	43	Cue	Win	True
410.571	4.0	Win2	0.7045	0.0	Yes	3.18	0.001	n/a	GoodResponse	1	n/a	n/a	9	43	Fixation	Win	True
414.566	0.22	Win2	0.7045	0.004	Yes	3.18	-0.004	3.0	GoodResponse	1	0.219	413.785	9	43	Target	Win	True
414.785	0.3	Win2	0.7045	0.004	Yes	3.18	-0.004	3.0	GoodResponse	1	0.219	n/a	9	43	ButtonPress	Win	True
414.8	0.48	Win2	0.7045	n/a	Yes	3.18	n/a	n/a	GoodResponse	1	n/a	n/a	9	43	Blank	Win	True
415.268	1.45	Win2	0.7045	n/a	Yes	3.18	n/a	5.0	GoodResponse	1	0.021	414.289	9	43	Feedback	Win	True
416.722	3.18	Win2	0.7045	n/a	Yes	3.18	n/a	n/a	GoodResponse	1	0.0	n/a	9	43	ISIslide	Win	True
419.915	0.25	Win2	0.6889	0.0	No	2.985	0.015	n/a	LatePress	0	n/a	n/a	9	44	Cue	MissedWin	True
420.166	4.0	Win2	0.6889	0.0	No	2.985	0.001	n/a	LatePress	0	n/a	n/a	9	44	Fixation	MissedWin	True
424.161	0.21	Win2	0.6889	0.004	No	2.985	-0.004	3.0	LatePress	0	0.218	423.379	9	44	Target	MissedWin	True
424.379	0.49	Win2	0.6889	n/a	No	2.985	n/a	n/a	LatePress	0	n/a	n/a	9	44	Blank	MissedWin	True
424.379	0.3	Win2	0.6889	0.004	No	2.985	-0.004	3.0	LatePress	0	0.218	n/a	9	44	ButtonPress	MissedWin	True
424.863	1.45	Win2	0.6889	n/a	No	2.985	n/a	5.0	LatePress	0	0.036	423.899	9	44	Feedback	MissedWin	True
426.318	2.985	Win2	0.6889	n/a	No	2.985	n/a	n/a	LatePress	0	0.0	n/a	9	44	ISIslide	MissedWin	True
429.327	0.25	Control	0.6739	0.0	No	2.873	0.027	n/a	NoResponse	0	n/a	n/a	9	45	Cue	Neutral	True
429.578	4.1	Control	0.6739	0.0	No	2.873	0.001	n/a	NoResponse	0	n/a	n/a	9	45	Fixation	Neutral	True
433.673	0.2	Control	0.6739	0.004	No	2.873	-0.004	3.0	NoResponse	0	0.232	432.905	9	45	Target	Neutral	True
433.874	0.5	Control	0.6739	n/a	No	2.873	n/a	n/a	NoResponse	0	n/a	n/a	9	45	Blank	Neutral	True
433.905	0.3	Control	0.6739	0.004	No	2.873	-0.004	3.0	NoResponse	0	0.232	n/a	9	45	ButtonPress	Neutral	True
434.375	1.45	Control	0.6739	n/a	No	2.873	n/a	5.0	NoResponse	0	0.036	433.411	9	45	Feedback	Neutral	True
435.83	2.873	Control	0.6739	n/a	No	2.873	n/a	n/a	NoResponse	0	0.0	n/a	9	45	ISIslide	Neutral	True
438.722	0.25	Lose2	0.6596	0.0	No	3.378	0.022	n/a	NoResponse	-1	n/a	n/a	8	46	Cue	Loss	True
438.972	4.0	Lose2	0.6596	0.0	No	3.378	0.0	n/a	NoResponse	-1	n/a	n/a	8	46	Fixation	Loss	True
442.968	0.19	Lose2	0.6596	0.004	No	3.378	-0.004	3.0	NoResponse	-1	0.24	442.208	8	46	Target	Loss	True
443.168	0.51	Lose2	0.6596	n/a	No	3.378	n/a	n/a	NoResponse	-1	n/a	n/a	8	46	Blank	Loss	True
443.208	0.3	Lose2	0.6596	0.004	No	3.378	-0.004	3.0	NoResponse	-1	0.24	n/a	8	46	ButtonPress	Loss	True
443.67	1.45	Lose2	0.6596	n/a	No	3.378	n/a	5.0	NoResponse	-1	0.009	442.679	8	46	Feedback	Loss	True
445.124	3.378	Lose2	0.6596	n/a	No	3.378	n/a	n/a	NoResponse	-1	0.0	n/a	8	46	ISIslide	Loss	True
448.518	0.25	Lose2	0.6457999999999999	0.0	No	2.682	0.018	n/a	NoResponse	-1	n/a	n/a	7	47	Cue	Loss	True
448.768	4.0	Lose2	0.6457999999999999	0.0	No	2.682	0.0	n/a	NoResponse	-1	n/a	n/a	7	47	Fixation	Loss	True
452.764	0.19	Lose2	0.6457999999999999	0.004	No	2.682	-0.004	3.0	NoResponse	-1	0.224	451.988	7	47	Target	Loss	True
452.964	0.51	Lose2	0.6457999999999999	n/a	No	2.682	n/a	n/a	NoResponse	-1	n/a	n/a	7	47	Blank	Loss	True
452.988	0.3	Lose2	0.6457999999999999	0.004	No	2.682	-0.004	3.0	NoResponse	-1	0.224	n/a	7	47	ButtonPress	Loss	True
453.466	1.45	Lose2	0.6457999999999999	n/a	No	2.682	n/a	5.0	NoResponse	-1	0.018	452.484	7	47	Feedback	Loss	True
454.92	2.682	Lose2	0.6457999999999999	n/a	No	2.682	n/a	n/a	NoResponse	-1	0.0	n/a	7	47	ISIslide	Loss	True
457.628	0.25	Lose2	0.6327	0.0	No	3.022	0.028	n/a	NoResponse	-1	n/a	n/a	6	48	Cue	Loss	True
457.879	3.95	Lose2	0.6327	0.0	No	3.022	0.001	n/a	NoResponse	-1	n/a	n/a	6	48	Fixation	Loss	True
461.824	0.2	Lose2	0.6327	0.004	No	3.022	-0.004	3.0	NoResponse	-1	0.211	461.035	6	48	Target	Loss	True
462.025	0.5	Lose2	0.6327	n/a	No	3.022	n/a	n/a	NoResponse	-1	n/a	n/a	6	48	Blank	Loss	True
462.035	0.3	Lose2	0.6327	0.004	No	3.022	-0.004	3.0	NoResponse	-1	0.211	n/a	6	48	ButtonPress	Loss	True
462.526	1.45	Lose2	0.6327	n/a	No	3.022	n/a	5.0	NoResponse	-1	0.031	461.557	6	48	Feedback	Loss	True
463.981	3.022	Lose2	0.6327	n/a	No	3.022	n/a	n/a	NoResponse	-1	0.0	n/a	6	48	ISIslide	Loss	True
467.023	0.25	Control	0.62	0.0	No	2.877	0.023	n/a	NoResponse	0	n/a	n/a	6	49	Cue	Neutral	True
467.274	4.0	Control	0.62	0.0	No	2.877	0.001	n/a	NoResponse	0	n/a	n/a	6	49	Fixation	Neutral	True
471.269	0.21	Control	0.62	0.004	No	2.877	-0.004	3.0	NoResponse	0	0.228	470.497	6	49	Target	Neutral	True
471.486	0.49	Control	0.62	n/a	No	2.877	n/a	n/a	NoResponse	0	n/a	n/a	6	49	Blank	Neutral	True
471.497	0.3	Control	0.62	0.004	No	2.877	-0.004	3.0	NoResponse	0	0.228	n/a	6	49	ButtonPress	Neutral	True
471.971	1.45	Control	0.62	n/a	No	2.877	n/a	5.0	NoResponse	0	0.001	470.972	6	49	Feedback	Neutral	True
473.425	2.877	Control	0.62	n/a	No	2.877	n/a	n/a	NoResponse	0	0.0	n/a	6	49	ISIslide	Neutral	True
476.317	0.25	Control	0.6078	0.001	No	2.783	0.017	n/a	LatePress	0	n/a	n/a	6	50	Cue	Neutral	True
476.568	4.0	Control	0.6078	0.0	No	2.783	0.001	n/a	LatePress	0	n/a	n/a	6	50	Fixation	Neutral	True
480.564	0.22	Control	0.6078	0.003	No	2.783	-0.003	3.0	LatePress	0	0.226	479.79	6	50	Target	Neutral	True
480.79	0.3	Control	0.6078	0.003	No	2.783	-0.003	3.0	LatePress	0	0.226	n/a	6	50	ButtonPress	Neutral	True
480.798	0.48	Control	0.6078	n/a	No	2.783	n/a	n/a	LatePress	0	n/a	n/a	6	50	Blank	Neutral	True
481.266	1.45	Control	0.6078	n/a	No	2.783	n/a	5.0	LatePress	0	0.022	480.288	6	50	Feedback	Neutral	True
482.72	2.783	Control	0.6078	n/a	No	2.783	n/a	n/a	LatePress	0	0.0	n/a	6	50	ISIslide	Neutral	True
485.528	0.25	Control	0.6154	0.0	Yes	2.722	0.028	n/a	GoodResponse	0	n/a	n/a	6	51	Cue	Neutral	True
485.779	3.95	Control	0.6154	0.0	Yes	2.722	0.001	n/a	GoodResponse	0	n/a	n/a	6	51	Fixation	Neutral	True
489.724	0.23	Control	0.6154	0.004	Yes	2.722	-0.004	3.0	GoodResponse	0	0.228	488.952	6	51	Target	Neutral	True
489.952	0.3	Control	0.6154	0.004	Yes	2.722	-0.004	3.0	GoodResponse	0	0.228	n/a	6	51	ButtonPress	Neutral	True
489.958	0.47	Control	0.6154	n/a	Yes	2.722	n/a	n/a	GoodResponse	0	n/a	n/a	6	51	Blank	Neutral	True
490.426	1.45	Control	0.6154	n/a	Yes	2.722	n/a	5.0	GoodResponse	0	0.033	489.459	6	51	Feedback	Neutral	True
491.881	2.722	Control	0.6154	n/a	Yes	2.722	n/a	n/a	GoodResponse	0	0.0	n/a	6	51	ISIslide	Neutral	True
494.622	0.25	Control	0.6225999999999999	0.0	Yes	2.628	0.022	n/a	GoodResponse	0	n/a	n/a	6	52	Cue	Neutral	True
494.873	4.05	Control	0.6225999999999999	0.0	Yes	2.628	0.001	n/a	GoodResponse	0	n/a	n/a	6	52	Fixation	Neutral	True
498.918	0.24	Control	0.6225999999999999	0.004	Yes	2.628	-0.004	3.0	GoodResponse	0	0.206	498.124	6	52	Target	Neutral	True
499.124	0.3	Control	0.6225999999999999	0.004	Yes	2.628	-0.004	3.0	GoodResponse	0	0.206	n/a	6	52	ButtonPress	Neutral	True
499.169	0.46	Control	0.6225999999999999	n/a	Yes	2.628	n/a	n/a	GoodResponse	0	n/a	n/a	6	52	Blank	Neutral	True
499.621	1.45	Control	0.6225999999999999	n/a	Yes	2.628	n/a	5.0	GoodResponse	0	0.009	498.63	6	52	Feedback	Neutral	True
501.075	2.628	Control	0.6225999999999999	n/a	Yes	2.628	n/a	n/a	GoodResponse	0	0.0	n/a	6	52	ISIslide	Neutral	True
503.716	0.25	Win2	0.6296	0.0	Yes	2.934	0.016	n/a	GoodResponse	1	n/a	n/a	7	53	Cue	Win	True
503.967	4.05	Win2	0.6296	0.0	Yes	2.934	0.001	n/a	GoodResponse	1	n/a	n/a	7	53	Fixation	Win	True
508.012	0.25	Win2	0.6296	0.004	Yes	2.934	-0.004	3.0	GoodResponse	1	0.219	507.231	7	53	Target	Win	True
508.231	0.3	Win2	0.6296	0.004	Yes	2.934	-0.004	3.0	GoodResponse	1	0.219	n/a	7	53	ButtonPress	Win	True
508.263	0.45	Win2	0.6296	n/a	Yes	2.934	n/a	n/a	GoodResponse	1	n/a	n/a	7	53	Blank	Win	True
508.714	1.45	Win2	0.6296	n/a	Yes	2.934	n/a	5.0	GoodResponse	1	0.038	507.752	7	53	Feedback	Win	True
510.169	2.934	Win2	0.6296	n/a	Yes	2.934	n/a	n/a	GoodResponse	1	0.0	n/a	7	53	ISIslide	Win	True
513.128	0.25	Win2	0.6182	0.0	No	2.722	0.028	n/a	NoResponse	0	n/a	n/a	7	54	Cue	MissedWin	True
513.378	3.95	Win2	0.6182	0.0	No	2.722	0.0	n/a	NoResponse	0	n/a	n/a	7	54	Fixation	MissedWin	True
517.324	0.26	Win2	0.6182	0.004	No	2.722	-0.004	3.0	NoResponse	0	0.3	516.624	7	54	Target	MissedWin	True
517.591	0.44	Win2	0.6182	n/a	No	2.722	n/a	n/a	NoResponse	0	n/a	n/a	7	54	Blank	MissedWin	True
517.624	0.3	Win2	0.6182	0.004	No	2.722	-0.004	3.0	NoResponse	0	0.3	n/a	7	54	ButtonPress	MissedWin	True
518.026	1.45	Win2	0.6182	n/a	No	2.722	n/a	5.0	NoResponse	0	0.043	517.069	7	54	Feedback	MissedWin	True
519.48	2.722	Win2	0.6182	n/a	No	2.722	n/a	n/a	NoResponse	0	0.0	n/a	7	54	ISIslide	MissedWin	True
522.222	0.25	Control	0.6071	0.0	No	3.028	0.022	n/a	LatePress	0	n/a	n/a	7	55	Cue	Neutral	True
522.472	3.95	Control	0.6071	0.0	No	3.028	0.0	n/a	LatePress	0	n/a	n/a	7	55	Fixation	Neutral	True
526.417	0.27	Control	0.6071	0.005	No	3.028	-0.005	3.0	LatePress	0	0.285	525.702	7	55	Target	Neutral	True
526.702	0.43	Control	0.6071	n/a	No	3.028	n/a	n/a	LatePress	0	n/a	n/a	7	55	Blank	Neutral	True
526.702	0.3	Control	0.6071	0.005	No	3.028	-0.005	3.0	LatePress	0	0.285	n/a	7	55	ButtonPress	Neutral	True
527.12	1.45	Control	0.6071	n/a	No	3.028	n/a	5.0	LatePress	0	0.022	526.142	7	55	Feedback	Neutral	True
528.574	3.028	Control	0.6071	n/a	No	3.028	n/a	n/a	LatePress	0	0.0	n/a	7	55	ISIslide	Neutral	True
531.616	0.25	Control	0.614	0.0	Yes	2.834	0.016	n/a	GoodResponse	0	n/a	n/a	7	56	Cue	Neutral	True
531.867	3.95	Control	0.614	0.0	Yes	2.834	0.001	n/a	GoodResponse	0	n/a	n/a	7	56	Fixation	Neutral	True
535.812	0.28	Control	0.614	0.004	Yes	2.834	-0.004	3.0	GoodResponse	0	0.216	535.028	7	56	Target	Neutral	True
536.028	0.3	Control	0.614	0.004	Yes	2.834	-0.004	3.0	GoodResponse	0	0.216	n/a	7	56	ButtonPress	Neutral	True
536.096	0.42	Control	0.614	n/a	Yes	2.834	n/a	n/a	GoodResponse	0	n/a	n/a	7	56	Blank	Neutral	True
536.514	1.45	Control	0.614	n/a	Yes	2.834	n/a	5.0	GoodResponse	0	0.042	535.556	7	56	Feedback	Neutral	True
537.969	2.834	Control	0.614	n/a	Yes	2.834	n/a	n/a	GoodResponse	0	0.0	n/a	7	56	ISIslide	Neutral	True
540.827	0.25	Control	0.6207	0.0	Yes	3.473	0.027	n/a	GoodResponse	0	n/a	n/a	7	57	Cue	Neutral	True
541.078	4.0	Control	0.6207	0.0	Yes	3.473	0.001	n/a	GoodResponse	0	n/a	n/a	7	57	Fixation	Neutral	True
545.073	0.29	Control	0.6207	0.004	Yes	3.473	-0.004	3.0	GoodResponse	0	0.21	544.283	7	57	Target	Neutral	True
545.283	0.3	Control	0.6207	0.004	Yes	3.473	-0.004	3.0	GoodResponse	0	0.21	n/a	7	57	ButtonPress	Neutral	True
545.374	0.41	Control	0.6207	n/a	Yes	3.473	n/a	n/a	GoodResponse	0	n/a	n/a	7	57	Blank	Neutral	True
545.775	1.45	Control	0.6207	n/a	Yes	3.473	n/a	5.0	GoodResponse	0	0.001	544.776	7	57	Feedback	Neutral	True
547.23	3.473	Control	0.6207	n/a	Yes	3.473	n/a	n/a	GoodResponse	0	0.0	n/a	7	57	ISIslide	Neutral	True
550.724	0.25	Win2	0.6271	0.0	Yes	2.726	0.024	n/a	GoodResponse	1	n/a	n/a	8	58	Cue	Win	False
550.974	4.05	Win2	0.6271	0.0	Yes	2.726	0.0	3.0	GoodResponse	1	0.234	550.208	8	58	Fixation	Win	False
551.208	0.3	Win2	0.6271	0.0	Yes	2.726	0.0	3.0	GoodResponse	1	0.234	n/a	8	58	ButtonPress	Win	False
555.02	0.3	Win2	0.6271	0.004	Yes	2.726	-0.004	3.0	GoodResponse	1	0.228	554.248	8	58	Target	Win	False
555.248	0.3	Win2	0.6271	0.004	Yes	2.726	-0.004	3.0	GoodResponse	1	0.228	n/a	8	58	ButtonPress	Win	False
555.321	0.4	Win2	0.6271	n/a	Yes	2.726	n/a	n/a	GoodResponse	1	n/a	n/a	8	58	Blank	Win	False
555.722	1.45	Win2	0.6271	n/a	Yes	2.726	n/a	5.0	GoodResponse	1	0.007	554.729	8	58	Feedback	Win	False
557.176	2.726	Win2	0.6271	n/a	Yes	2.726	n/a	n/a	GoodResponse	1	0.0	n/a	8	58	ISIslide	Win	False
559.918	0.25	Lose2	0.6333	0.0	Yes	2.682	0.018	n/a	GoodResponse	0	n/a	n/a	8	59	Cue	AvoidedLoss	True
560.168	4.0	Lose2	0.6333	0.001	Yes	2.682	0.0	n/a	GoodResponse	0	n/a	n/a	8	59	Fixation	AvoidedLoss	True
564.164	0.31	Lose2	0.6333	0.004	Yes	2.682	-0.004	3.0	GoodResponse	0	0.222	563.386	8	59	Target	AvoidedLoss	True
564.386	0.3	Lose2	0.6333	0.004	Yes	2.682	-0.004	3.0	GoodResponse	0	0.222	n/a	8	59	ButtonPress	AvoidedLoss	True
564.481	0.39	Lose2	0.6333	n/a	Yes	2.682	n/a	n/a	GoodResponse	0	n/a	n/a	8	59	Blank	AvoidedLoss	True
564.866	1.45	Lose2	0.6333	n/a	Yes	2.682	n/a	5.0	GoodResponse	0	0.032	563.898	8	59	Feedback	AvoidedLoss	True
566.32	2.682	Lose2	0.6333	n/a	Yes	2.682	n/a	n/a	GoodResponse	0	0.0	n/a	8	59	ISIslide	AvoidedLoss	True
569.028	0.25	Control	0.6393	0.0	Yes	2.672	0.028	n/a	GoodResponse	0	n/a	n/a	8	60	Cue	Neutral	True
569.279	4.0	Control	0.6393	0.0	Yes	2.672	0.001	n/a	GoodResponse	0	n/a	n/a	8	60	Fixation	Neutral	True
573.274	0.32	Control	0.6393	0.004	Yes	2.672	-0.004	3.0	GoodResponse	0	0.25	572.524	8	60	Target	Neutral	True
573.524	0.3	Control	0.6393	0.004	Yes	2.672	-0.004	3.0	GoodResponse	0	0.25	n/a	8	60	ButtonPress	Neutral	True
573.609	0.38	Control	0.6393	n/a	Yes	2.672	n/a	n/a	GoodResponse	0	n/a	n/a	8	60	Blank	Neutral	True
573.976	1.45	Control	0.6393	n/a	Yes	2.672	n/a	5.0	GoodResponse	0	0.044	573.02	8	60	Feedback	Neutral	True
575.431	2.672	Control	0.6393	n/a	Yes	2.672	n/a	n/a	GoodResponse	0	0.0	n/a	8	60	ISIslide	Neutral	True
578.122	0.25	Lose2	0.6452	0.0	Yes	2.978	0.022	n/a	GoodResponse	0	n/a	n/a	8	61	Cue	AvoidedLoss	True
578.373	4.0	Lose2	0.6452	0.0	Yes	2.978	0.001	n/a	GoodResponse	0	n/a	n/a	8	61	Fixation	AvoidedLoss	True
582.368	0.33	Lose2	0.6452	0.004	Yes	2.978	-0.004	3.0	GoodResponse	0	0.222	581.59	8	61	Target	AvoidedLoss	True
582.59	0.3	Lose2	0.6452	0.004	Yes	2.978	-0.004	3.0	GoodResponse	0	0.222	n/a	8	61	ButtonPress	AvoidedLoss	True
582.703	0.37	Lose2	0.6452	n/a	Yes	2.978	n/a	n/a	GoodResponse	0	n/a	n/a	8	61	Blank	AvoidedLoss	True
583.07	1.45	Lose2	0.6452	n/a	Yes	2.978	n/a	5.0	GoodResponse	0	0.022	582.092	8	61	Feedback	AvoidedLoss	True
584.525	2.978	Lose2	0.6452	n/a	Yes	2.978	n/a	n/a	GoodResponse	0	0.0	n/a	8	61	ISIslide	AvoidedLoss	True
587.517	0.25	Lose2	0.6349	0.0	No	2.883	0.017	n/a	NoResponse	-1	n/a	n/a	7	62	Cue	Loss	True
587.768	3.9	Lose2	0.6349	0.0	No	2.883	0.001	n/a	NoResponse	-1	n/a	n/a	7	62	Fixation	Loss	True
591.663	0.34	Lose2	0.6349	0.004	No	2.883	-0.004	3.0	NoResponse	-1	0.494	591.157	7	62	Target	Loss	True
592.014	0.36	Lose2	0.6349	n/a	No	2.883	n/a	n/a	NoResponse	-1	n/a	n/a	7	62	Blank	Loss	True
592.157	0.3	Lose2	0.6349	0.004	No	2.883	-0.004	3.0	NoResponse	-1	0.494	n/a	7	62	ButtonPress	Loss	True
592.365	1.45	Lose2	0.6349	n/a	No	2.883	n/a	5.0	NoResponse	-1	0.045	591.41	7	62	Feedback	Loss	True
593.819	2.883	Lose2	0.6349	n/a	No	2.883	n/a	n/a	NoResponse	-1	0.0	n/a	7	62	ISIslide	Loss	True
596.728	0.25	Lose2	0.6406000000000001	0.0	Yes	2.622	0.028	n/a	GoodResponse	0	n/a	n/a	7	63	Cue	AvoidedLoss	True
596.979	4.05	Lose2	0.6406000000000001	0.0	Yes	2.622	0.001	n/a	GoodResponse	0	n/a	n/a	7	63	Fixation	AvoidedLoss	True
601.024	0.35	Lose2	0.6406000000000001	0.004	Yes	2.622	-0.004	3.0	GoodResponse	0	0.206	600.23	7	63	Target	AvoidedLoss	True
601.23	0.3	Lose2	0.6406000000000001	0.004	Yes	2.622	-0.004	3.0	GoodResponse	0	0.206	n/a	7	63	ButtonPress	AvoidedLoss	True
601.375	0.35	Lose2	0.6406000000000001	n/a	Yes	2.622	n/a	n/a	GoodResponse	0	n/a	n/a	7	63	Blank	AvoidedLoss	True
601.726	1.45	Lose2	0.6406000000000001	n/a	Yes	2.622	n/a	5.0	GoodResponse	0	0.001	600.727	7	63	Feedback	AvoidedLoss	True
603.181	2.622	Lose2	0.6406000000000001	n/a	Yes	2.622	n/a	n/a	GoodResponse	0	0.0	n/a	7	63	ISIslide	AvoidedLoss	True
605.822	0.25	Win2	0.6462	0.0	Yes	3.128	0.022	n/a	GoodResponse	1	n/a	n/a	8	64	Cue	Win	True
606.073	4.15	Win2	0.6462	0.0	Yes	3.128	0.001	n/a	GoodResponse	1	n/a	n/a	8	64	Fixation	Win	True
610.218	0.36	Win2	0.6462	0.004	Yes	3.128	-0.004	3.0	GoodResponse	1	0.224	609.442	8	64	Target	Win	True
610.442	0.3	Win2	0.6462	0.004	Yes	3.128	-0.004	3.0	GoodResponse	1	0.224	n/a	8	64	ButtonPress	Win	True
610.586	0.34	Win2	0.6462	n/a	Yes	3.128	n/a	n/a	GoodResponse	1	n/a	n/a	8	64	Blank	Win	True
610.92	1.45	Win2	0.6462	n/a	Yes	3.128	n/a	5.0	GoodResponse	1	0.026	609.946	8	64	Feedback	Win	True
612.375	3.128	Win2	0.6462	n/a	Yes	3.128	n/a	n/a	GoodResponse	1	0.0	n/a	8	64	ISIslide	Win	True
615.517	0.25	Control	0.6515000000000001	0.001	Yes	2.783	0.017	n/a	GoodResponse	0	n/a	n/a	8	65	Cue	Neutral	True
615.768	4.0	Control	0.6515000000000001	0.0	Yes	2.783	0.001	n/a	GoodResponse	0	n/a	n/a	8	65	Fixation	Neutral	True
619.764	0.37	Control	0.6515000000000001	0.003	Yes	2.783	-0.003	3.0	GoodResponse	0	0.268	619.032	8	65	Target	Neutral	True
620.032	0.3	Control	0.6515000000000001	0.003	Yes	2.783	-0.003	3.0	GoodResponse	0	0.268	n/a	8	65	ButtonPress	Neutral	True
620.148	0.33	Control	0.6515000000000001	n/a	Yes	2.783	n/a	n/a	GoodResponse	0	n/a	n/a	8	65	Blank	Neutral	True
620.466	1.45	Control	0.6515000000000001	n/a	Yes	2.783	n/a	5.0	GoodResponse	0	0.041	619.507	8	65	Feedback	Neutral	True
621.92	2.783	Control	0.6515000000000001	n/a	Yes	2.783	n/a	n/a	GoodResponse	0	0.0	n/a	8	65	ISIslide	Neutral	True
624.728	0.25	Win2	0.6567000000000001	0.0	Yes	2.772	0.028	n/a	GoodResponse	1	n/a	n/a	9	66	Cue	Win	True
624.979	3.9	Win2	0.6567000000000001	0.0	Yes	2.772	0.001	n/a	GoodResponse	1	n/a	n/a	9	66	Fixation	Win	True
628.874	0.38	Win2	0.6567000000000001	0.004	Yes	2.772	-0.004	3.0	GoodResponse	1	0.195	628.069	9	66	Target	Win	True
629.069	0.3	Win2	0.6567000000000001	0.004	Yes	2.772	-0.004	3.0	GoodResponse	1	0.195	n/a	9	66	ButtonPress	Win	True
629.259	0.32	Win2	0.6567000000000001	n/a	Yes	2.772	n/a	n/a	GoodResponse	1	n/a	n/a	9	66	Blank	Win	True
629.576	1.45	Win2	0.6567000000000001	n/a	Yes	2.772	n/a	5.0	GoodResponse	1	0.008	628.584	9	66	Feedback	Win	True
631.031	2.772	Win2	0.6567000000000001	n/a	Yes	2.772	n/a	n/a	GoodResponse	1	0.0	n/a	9	66	ISIslide	Win	True
633.822	0.25	Control	0.6618	0.0	Yes	2.728	0.022	n/a	GoodResponse	0	n/a	n/a	9	67	Cue	Neutral	True
634.073	3.95	Control	0.6618	0.0	Yes	2.728	0.001	n/a	GoodResponse	0	n/a	n/a	9	67	Fixation	Neutral	True
638.018	0.38	Control	0.6618	0.004	Yes	2.728	-0.004	3.0	GoodResponse	0	0.276	637.294	9	67	Target	Neutral	True
638.294	0.3	Control	0.6618	0.004	Yes	2.728	-0.004	3.0	GoodResponse	0	0.276	n/a	9	67	ButtonPress	Neutral	True
638.403	0.32	Control	0.6618	n/a	Yes	2.728	n/a	n/a	GoodResponse	0	n/a	n/a	9	67	Blank	Neutral	True
638.72	1.45	Control	0.6618	n/a	Yes	2.728	n/a	5.0	GoodResponse	0	0.031	637.751	9	67	Feedback	Neutral	True
640.175	2.728	Control	0.6618	n/a	Yes	2.728	n/a	n/a	GoodResponse	0	0.0	n/a	9	67	ISIslide	Neutral	True
642.916	0.25	Win2	0.6667000000000001	0.0	Yes	3.084	0.016	n/a	GoodResponse	1	n/a	n/a	10	68	Cue	Win	True
643.167	4.0	Win2	0.6667000000000001	0.0	Yes	3.084	0.001	n/a	GoodResponse	1	n/a	n/a	10	68	Fixation	Win	True
647.162	0.38	Win2	0.6667000000000001	0.004	Yes	3.084	-0.004	3.0	GoodResponse	1	0.223	646.385	10	68	Target	Win	True
647.385	0.3	Win2	0.6667000000000001	0.004	Yes	3.084	-0.004	3.0	GoodResponse	1	0.223	n/a	10	68	ButtonPress	Win	True
647.547	0.32	Win2	0.6667000000000001	n/a	Yes	3.084	n/a	n/a	GoodResponse	1	n/a	n/a	10	68	Blank	Win	True
647.864	1.45	Win2	0.6667000000000001	n/a	Yes	3.084	n/a	5.0	GoodResponse	1	0.009	646.873	10	68	Feedback	Win	True
649.319	3.084	Win2	0.6667000000000001	n/a	Yes	3.084	n/a	n/a	GoodResponse	1	0.0	n/a	10	68	ISIslide	Win	True
652.428	0.25	Win2	0.6714	0.0	Yes	3.222	0.028	n/a	GoodResponse	1	n/a	n/a	11	69	Cue	Win	True
652.679	3.95	Win2	0.6714	0.0	Yes	3.222	0.001	n/a	GoodResponse	1	n/a	n/a	11	69	Fixation	Win	True
656.624	0.37	Win2	0.6714	0.004	Yes	3.222	-0.004	3.0	GoodResponse	1	0.214	655.838	11	69	Target	Win	True
656.838	0.3	Win2	0.6714	0.004	Yes	3.222	-0.004	3.0	GoodResponse	1	0.214	n/a	11	69	ButtonPress	Win	True
657.008	0.33	Win2	0.6714	n/a	Yes	3.222	n/a	n/a	GoodResponse	1	n/a	n/a	11	69	Blank	Win	True
657.326	1.45	Win2	0.6714	n/a	Yes	3.222	n/a	5.0	GoodResponse	1	0.01	656.336	11	69	Feedback	Win	True
658.78	3.222	Win2	0.6714	n/a	Yes	3.222	n/a	n/a	GoodResponse	1	0.0	n/a	11	69	ISIslide	Win	True
662.023	0.25	Lose2	0.6761	0.0	Yes	3.027	0.023	n/a	GoodResponse	0	n/a	n/a	11	70	Cue	AvoidedLoss	True
662.274	4.05	Lose2	0.6761	0.0	Yes	3.027	0.001	n/a	GoodResponse	0	n/a	n/a	11	70	Fixation	AvoidedLoss	True
666.32	0.36	Lose2	0.6761	0.003	Yes	3.027	-0.003	3.0	GoodResponse	0	0.21	665.53	11	70	Target	AvoidedLoss	True
666.53	0.3	Lose2	0.6761	0.003	Yes	3.027	-0.003	3.0	GoodResponse	0	0.21	n/a	11	70	ButtonPress	AvoidedLoss	True
666.687	0.34	Lose2	0.6761	n/a	Yes	3.027	n/a	n/a	GoodResponse	0	n/a	n/a	11	70	Blank	AvoidedLoss	True
667.022	1.45	Lose2	0.6761	n/a	Yes	3.027	n/a	5.0	GoodResponse	0	0.022	666.044	11	70	Feedback	AvoidedLoss	True
668.476	3.027	Lose2	0.6761	n/a	Yes	3.027	n/a	n/a	GoodResponse	0	0.0	n/a	11	70	ISIslide	AvoidedLoss	True
671.518	0.25	Win2	0.6806	0.001	Yes	2.732	0.018	n/a	GoodResponse	1	n/a	n/a	12	71	Cue	Win	True
671.769	4.05	Win2	0.6806	0.0	Yes	2.732	0.001	n/a	GoodResponse	1	n/a	n/a	12	71	Fixation	Win	True
675.815	0.35	Win2	0.6806	0.003	Yes	2.732	-0.003	3.0	GoodResponse	1	0.221	675.036	12	71	Target	Win	True
676.036	0.3	Win2	0.6806	0.003	Yes	2.732	-0.003	3.0	GoodResponse	1	0.221	n/a	12	71	ButtonPress	Win	True
676.166	0.35	Win2	0.6806	n/a	Yes	2.732	n/a	n/a	GoodResponse	1	n/a	n/a	12	71	Blank	Win	True
676.517	1.45	Win2	0.6806	n/a	Yes	2.732	n/a	5.0	GoodResponse	1	0.039	675.556	12	71	Feedback	Win	True
677.971	2.732	Win2	0.6806	n/a	Yes	2.732	n/a	n/a	GoodResponse	1	0.0	n/a	12	71	ISIslide	Win	True
680.729	0.25	Win2	0.6849	0.0	Yes	2.771	0.029	n/a	GoodResponse	1	n/a	n/a	13	72	Cue	Win	True
680.98	4.1	Win2	0.6849	0.0	Yes	2.771	0.001	n/a	GoodResponse	1	n/a	n/a	13	72	Fixation	Win	True
685.076	0.34	Win2	0.6849	0.003	Yes	2.771	-0.003	3.0	GoodResponse	1	0.201	684.277	13	72	Target	Win	True
685.277	0.3	Win2	0.6849	0.003	Yes	2.771	-0.003	3.0	GoodResponse	1	0.201	n/a	13	72	ButtonPress	Win	True
685.427	0.36	Win2	0.6849	n/a	Yes	2.771	n/a	n/a	GoodResponse	1	n/a	n/a	13	72	Blank	Win	True
685.778	1.45	Win2	0.6849	n/a	Yes	2.771	n/a	5.0	GoodResponse	1	0.045	684.823	13	72	Feedback	Win	True
687.232	2.771	Win2	0.6849	n/a	Yes	2.771	n/a	n/a	GoodResponse	1	0.0	n/a	13	72	ISIslide	Win	True
690.024	0.25	Win2	0.6892	0.0	Yes	2.676	0.024	n/a	GoodResponse	1	n/a	n/a	14	73	Cue	Win	True
690.275	4.0	Win2	0.6892	0.0	Yes	2.676	0.001	n/a	GoodResponse	1	n/a	n/a	14	73	Fixation	Win	True
694.27	0.33	Win2	0.6892	0.004	Yes	2.676	-0.004	3.0	GoodResponse	1	0.265	693.535	14	73	Target	Win	True
694.535	0.3	Win2	0.6892	0.004	Yes	2.676	-0.004	3.0	GoodResponse	1	0.265	n/a	14	73	ButtonPress	Win	True
694.604	0.37	Win2	0.6892	n/a	Yes	2.676	n/a	n/a	GoodResponse	1	n/a	n/a	14	73	Blank	Win	True
694.972	1.45	Win2	0.6892	n/a	Yes	2.676	n/a	5.0	GoodResponse	1	0.022	693.994	14	73	Feedback	Win	True
696.426	2.676	Win2	0.6892	n/a	Yes	2.676	n/a	n/a	GoodResponse	1	0.0	n/a	14	73	ISIslide	Win	True
699.118	0.25	Lose2	0.6933	0.0	Yes	2.632	0.018	n/a	GoodResponse	0	n/a	n/a	14	74	Cue	AvoidedLoss	True
699.368	4.05	Lose2	0.6933	0.001	Yes	2.632	0.0	n/a	GoodResponse	0	n/a	n/a	14	74	Fixation	AvoidedLoss	True
703.414	0.32	Lose2	0.6933	0.004	Yes	2.632	-0.004	3.0	GoodResponse	0	0.249	702.663	14	74	Target	AvoidedLoss	True
703.663	0.3	Lose2	0.6933	0.004	Yes	2.632	-0.004	3.0	GoodResponse	0	0.249	n/a	14	74	ButtonPress	AvoidedLoss	True
703.748	0.38	Lose2	0.6933	n/a	Yes	2.632	n/a	n/a	GoodResponse	0	n/a	n/a	14	74	Blank	AvoidedLoss	True
704.116	1.45	Lose2	0.6933	n/a	Yes	2.632	n/a	5.0	GoodResponse	0	0.049	703.165	14	74	Feedback	AvoidedLoss	True
705.57	2.632	Lose2	0.6933	n/a	Yes	2.632	n/a	n/a	GoodResponse	0	0.0	n/a	14	74	ISIslide	AvoidedLoss	True
708.228	0.25	Lose2	0.6973999999999999	0.0	Yes	2.922	0.028	n/a	GoodResponse	0	n/a	n/a	14	75	Cue	AvoidedLoss	True
708.479	3.95	Lose2	0.6973999999999999	0.0	Yes	2.922	0.001	n/a	GoodResponse	0	n/a	n/a	14	75	Fixation	AvoidedLoss	True
712.424	0.31	Lose2	0.6973999999999999	0.004	Yes	2.922	-0.004	3.0	GoodResponse	0	0.22	711.644	14	75	Target	AvoidedLoss	True
712.644	0.3	Lose2	0.6973999999999999	0.004	Yes	2.922	-0.004	3.0	GoodResponse	0	0.22	n/a	14	75	ButtonPress	AvoidedLoss	True
712.742	0.39	Lose2	0.6973999999999999	n/a	Yes	2.922	n/a	n/a	GoodResponse	0	n/a	n/a	14	75	Blank	AvoidedLoss	True
713.126	1.45	Lose2	0.6973999999999999	n/a	Yes	2.922	n/a	5.0	GoodResponse	0	0.015	712.141	14	75	Feedback	AvoidedLoss	True
714.581	2.922	Lose2	0.6973999999999999	n/a	Yes	2.922	n/a	n/a	GoodResponse	0	0.0	n/a	14	75	ISIslide	AvoidedLoss	True
717.523	0.25	Control	0.7012999999999999	0.0	Yes	3.227	0.023	n/a	GoodResponse	0	n/a	n/a	14	76	Cue	Neutral	True
717.774	4.05	Control	0.7012999999999999	0.0	Yes	3.227	0.001	n/a	GoodResponse	0	n/a	n/a	14	76	Fixation	Neutral	True
721.819	0.3	Control	0.7012999999999999	0.004	Yes	3.227	-0.004	3.0	GoodResponse	0	0.225	721.044	14	76	Target	Neutral	True
722.044	0.3	Control	0.7012999999999999	0.004	Yes	3.227	-0.004	3.0	GoodResponse	0	0.225	n/a	14	76	ButtonPress	Neutral	True
722.12	0.4	Control	0.7012999999999999	n/a	Yes	3.227	n/a	n/a	GoodResponse	0	n/a	n/a	14	76	Blank	Neutral	True
722.521	1.45	Control	0.7012999999999999	n/a	Yes	3.227	n/a	5.0	GoodResponse	0	0.035	721.556	14	76	Feedback	Neutral	True
723.975	3.227	Control	0.7012999999999999	n/a	Yes	3.227	n/a	n/a	GoodResponse	0	0.0	n/a	14	76	ISIslide	Neutral	True
727.218	0.25	Lose2	0.7051000000000001	0.001	Yes	2.582	0.018	n/a	GoodResponse	0	n/a	n/a	14	77	Cue	AvoidedLoss	False
727.469	3.95	Lose2	0.7051000000000001	0.0	Yes	2.582	0.001	3.0	GoodResponse	0	0.091	726.56	14	77	Fixation	AvoidedLoss	False
727.56	0.3	Lose2	0.7051000000000001	0.0	Yes	2.582	0.001	3.0	GoodResponse	0	0.091	n/a	14	77	ButtonPress	AvoidedLoss	False
731.414	0.29	Lose2	0.7051000000000001	0.004	Yes	2.582	-0.004	3.0	GoodResponse	0	0.213	730.627	14	77	Target	AvoidedLoss	False
731.627	0.3	Lose2	0.7051000000000001	0.004	Yes	2.582	-0.004	3.0	GoodResponse	0	0.213	n/a	14	77	ButtonPress	AvoidedLoss	False
731.715	0.41	Lose2	0.7051000000000001	n/a	Yes	2.582	n/a	n/a	GoodResponse	0	n/a	n/a	14	77	Blank	AvoidedLoss	False
732.116	1.45	Lose2	0.7051000000000001	n/a	Yes	2.582	n/a	5.0	GoodResponse	0	0.048	731.164	14	77	Feedback	AvoidedLoss	False
733.571	2.582	Lose2	0.7051000000000001	n/a	Yes	2.582	n/a	n/a	GoodResponse	0	0.0	n/a	14	77	ISIslide	AvoidedLoss	False
