onset	duration	cue_type	current_mean_accuracy	duration_error	is_hit	isi_adjusted	onset_delay	response	response_type	reward	rt	rt_time	total_reward	trial_number	trial_phase	trial_type	one_press
11.103	0.25	Control	1.0	0.0	Yes	2.947	0.003	n/a	GoodResponse	0	n/a	n/a	0	0	Cue	Neutral	True
11.354	3.85	Control	1.0	0.0	Yes	2.947	0.001	n/a	GoodResponse	0	n/a	n/a	0	0	Fixation	Neutral	True
15.199	0.4	Control	1.0	0.004	Yes	2.947	-0.004	4.0	GoodResponse	0	0.276	14.475	0	0	Target	Neutral	True
15.475	0.3	Control	1.0	0.004	Yes	2.947	-0.004	4.0	GoodResponse	0	0.276	n/a	0	0	ButtonPress	Neutral	True
15.6	0.3	Control	1.0	n/a	Yes	2.947	n/a	n/a	GoodResponse	0	n/a	n/a	0	0	Blank	Neutral	True
15.901	1.45	Control	1.0	n/a	Yes	2.947	n/a	5.0	GoodResponse	0	0.028	14.929	0	0	Feedback	Neutral	True
17.355	2.947	Control	1.0	n/a	Yes	2.947	n/a	n/a	GoodResponse	0	0.0	n/a	0	0	ISIslide	Neutral	True
20.331	0.25	Lose2	1.0	0.0	Yes	2.769	0.031	n/a	GoodResponse	0	n/a	n/a	0	1	Cue	AvoidedLoss	True
20.581	4.0	Lose2	1.0	0.0	Yes	2.769	0.0	n/a	GoodResponse	0	n/a	n/a	0	1	Fixation	AvoidedLoss	True
24.577	0.39	Lose2	1.0	0.004	Yes	2.769	-0.004	4.0	GoodResponse	0	0.204	23.781	0	1	Target	AvoidedLoss	True
24.781	0.3	Lose2	1.0	0.004	Yes	2.769	-0.004	4.0	GoodResponse	0	0.204	n/a	0	1	ButtonPress	AvoidedLoss	True
24.978	0.31	Lose2	1.0	n/a	Yes	2.769	n/a	n/a	GoodResponse	0	n/a	n/a	0	1	Blank	AvoidedLoss	True
25.279	1.45	Lose2	1.0	n/a	Yes	2.769	n/a	5.0	GoodResponse	0	0.016	24.295	0	1	Feedback	AvoidedLoss	True
26.733	2.769	Lose2	1.0	n/a	Yes	2.769	n/a	n/a	GoodResponse	0	0.0	n/a	0	1	ISIslide	AvoidedLoss	True
29.525	0.25	Control	1.0	0.0	Yes	2.575	0.025	n/a	GoodResponse	0	n/a	n/a	0	2	Cue	Neutral	True
29.776	4.1	Control	1.0	0.0	Yes	2.575	0.001	n/a	GoodResponse	0	n/a	n/a	0	2	Fixation	Neutral	True
33.871	0.38	Control	1.0	0.004	Yes	2.575	-0.004	4.0	GoodResponse	0	0.236	33.107	0	2	Target	Neutral	True
34.107	0.3	Control	1.0	0.004	Yes	2.575	-0.004	4.0	GoodResponse	0	0.236	n/a	0	2	ButtonPress	Neutral	True
34.256	0.32	Control	1.0	n/a	Yes	2.575	n/a	n/a	GoodResponse	0	n/a	n/a	0	2	Blank	Neutral	True
34.573	1.45	Control	1.0	n/a	Yes	2.575	n/a	5.0	GoodResponse	0	0.039	33.612	0	2	Feedback	Neutral	True
36.028	2.575	Control	1.0	n/a	Yes	2.575	n/a	n/a	GoodResponse	0	0.0	n/a	0	2	ISIslide	Neutral	True
38.619	0.25	Win2	0.75	0.0	No	2.831	0.019	n/a	PrematurePress	0	n/a	n/a	0	3	Cue	MissedWin	False
38.869	3.95	Win2	0.75	0.001	No	2.831	0.0	4.0	PrematurePress	0	3.549	41.418	0	3	Fixation	MissedWin	False
42.418	0.3	Win2	0.75	0.001	No	2.831	0.0	4.0	PrematurePress	0	3.549	n/a	0	3	ButtonPress	MissedWin	False
42.815	0.37	Win2	0.75	0.004	No	2.831	-0.004	4.0	PrematurePress	0	0.02	41.835	0	3	Target	MissedWin	False
42.835	0.3	Win2	0.75	0.004	No	2.831	-0.004	4.0	PrematurePress	0	0.02	n/a	0	3	ButtonPress	MissedWin	False
43.199	0.33	Win2	0.75	n/a	No	2.831	n/a	n/a	PrematurePress	0	n/a	n/a	0	3	Blank	MissedWin	False
43.517	1.45	Win2	0.75	n/a	No	2.831	n/a	5.0	PrematurePress	0	0.021	42.538	0	3	Feedback	MissedWin	False
44.971	2.831	Win2	0.75	n/a	No	2.831	n/a	n/a	PrematurePress	0	0.0	n/a	0	3	ISIslide	MissedWin	False
47.83	0.25	Win2	0.8	0.0	Yes	3.27	0.03	n/a	GoodResponse	1	n/a	n/a	1	4	Cue	Win	True
48.08	4.0	Win2	0.8	0.0	Yes	3.27	0.0	n/a	GoodResponse	1	n/a	n/a	1	4	Fixation	Win	True
52.076	0.36	Win2	0.8	0.004	Yes	3.27	-0.004	4.0	GoodResponse	1	0.294	51.37	1	4	Target	Win	True
52.37	0.3	Win2	0.8	0.004	Yes	3.27	-0.004	4.0	GoodResponse	1	0.294	n/a	1	4	ButtonPress	Win	True
52.443	0.34	Win2	0.8	n/a	Yes	3.27	n/a	n/a	GoodResponse	1	n/a	n/a	1	4	Blank	Win	True
52.778	1.45	Win2	0.8	n/a	Yes	3.27	n/a	5.0	GoodResponse	1	0.029	51.807	1	4	Feedback	Win	True
54.232	3.27	Win2	0.8	n/a	Yes	3.27	n/a	n/a	GoodResponse	1	0.0	n/a	1	4	ISIslide	Win	True
57.525	0.25	Win2	0.8332999999999999	0.0	Yes	2.775	0.025	n/a	GoodResponse	1	n/a	n/a	2	5	Cue	Win	True
57.776	4.0	Win2	0.8332999999999999	0.0	Yes	2.775	0.001	n/a	GoodResponse	1	n/a	n/a	2	5	Fixation	Win	True
61.771	0.35	Win2	0.8332999999999999	0.004	Yes	2.775	-0.004	4.0	GoodResponse	1	0.293	61.064	2	5	Target	Win	True
62.064	0.3	Win2	0.8332999999999999	0.004	Yes	2.775	-0.004	4.0	GoodResponse	1	0.293	n/a	2	5	ButtonPress	Win	True
62.122	0.35	Win2	0.8332999999999999	n/a	Yes	2.775	n/a	n/a	GoodResponse	1	n/a	n/a	2	5	Blank	Win	True
62.473	1.45	Win2	0.8332999999999999	n/a	Yes	2.775	n/a	5.0	GoodResponse	1	0.041	61.514	2	5	Feedback	Win	True
63.928	2.775	Win2	0.8332999999999999	n/a	Yes	2.775	n/a	n/a	GoodResponse	1	0.0	n/a	2	5	ISIslide	Win	True
66.719	0.25	Lose2	0.8571	0.001	Yes	2.731	0.019	n/a	GoodResponse	0	n/a	n/a	2	6	Cue	AvoidedLoss	True
66.97	3.95	Lose2	0.8571	0.0	Yes	2.731	0.001	n/a	GoodResponse	0	n/a	n/a	2	6	Fixation	AvoidedLoss	True
70.915	0.34	Lose2	0.8571	0.004	Yes	2.731	-0.004	4.0	GoodResponse	0	0.216	70.131	2	6	Target	AvoidedLoss	True
71.131	0.3	Lose2	0.8571	0.004	Yes	2.731	-0.004	4.0	GoodResponse	0	0.216	n/a	2	6	ButtonPress	AvoidedLoss	True
71.266	0.36	Lose2	0.8571	n/a	Yes	2.731	n/a	n/a	GoodResponse	0	n/a	n/a	2	6	Blank	AvoidedLoss	True
71.617	1.45	Lose2	0.8571	n/a	Yes	2.731	n/a	5.0	GoodResponse	0	0.019	70.636	2	6	Feedback	AvoidedLoss	True
73.072	2.731	Lose2	0.8571	n/a	Yes	2.731	n/a	n/a	GoodResponse	0	0.0	n/a	2	6	ISIslide	AvoidedLoss	True
75.83	0.25	Lose2	0.875	0.0	Yes	4.02	0.03	n/a	GoodResponse	0	n/a	n/a	2	7	Cue	AvoidedLoss	True
76.081	4.05	Lose2	0.875	0.0	Yes	4.02	0.001	n/a	GoodResponse	0	n/a	n/a	2	7	Fixation	AvoidedLoss	True
80.126	0.33	Lose2	0.875	0.004	Yes	4.02	-0.004	4.0	GoodResponse	0	0.237	79.363	2	7	Target	AvoidedLoss	True
80.363	0.3	Lose2	0.875	0.004	Yes	4.02	-0.004	4.0	GoodResponse	0	0.237	n/a	2	7	ButtonPress	AvoidedLoss	True
80.461	0.37	Lose2	0.875	n/a	Yes	4.02	n/a	n/a	GoodResponse	0	n/a	n/a	2	7	Blank	AvoidedLoss	True
80.828	1.45	Lose2	0.875	n/a	Yes	4.02	n/a	5.0	GoodResponse	0	0.028	79.856	2	7	Feedback	AvoidedLoss	True
82.283	4.02	Lose2	0.875	n/a	Yes	4.02	n/a	n/a	GoodResponse	0	0.0	n/a	2	7	ISIslide	AvoidedLoss	True
86.328	0.25	Lose2	0.8889	0.0	Yes	3.022	0.028	n/a	GoodResponse	0	n/a	n/a	2	8	Cue	AvoidedLoss	True
86.579	3.95	Lose2	0.8889	0.0	Yes	3.022	0.001	n/a	GoodResponse	0	n/a	n/a	2	8	Fixation	AvoidedLoss	True
90.524	0.32	Lose2	0.8889	0.004	Yes	3.022	-0.004	4.0	GoodResponse	0	0.23	89.754	2	8	Target	AvoidedLoss	True
90.754	0.3	Lose2	0.8889	0.004	Yes	3.022	-0.004	4.0	GoodResponse	0	0.23	n/a	2	8	ButtonPress	AvoidedLoss	True
90.858	0.38	Lose2	0.8889	n/a	Yes	3.022	n/a	n/a	GoodResponse	0	n/a	n/a	2	8	Blank	AvoidedLoss	True
91.226	1.45	Lose2	0.8889	n/a	Yes	3.022	n/a	5.0	GoodResponse	0	0.02	90.246	2	8	Feedback	AvoidedLoss	True
92.681	3.022	Lose2	0.8889	n/a	Yes	3.022	n/a	n/a	GoodResponse	0	0.0	n/a	2	8	ISIslide	AvoidedLoss	True
95.723	0.25	Lose2	0.9	0.0	Yes	3.127	0.023	n/a	GoodResponse	0	n/a	n/a	2	9	Cue	AvoidedLoss	True
95.974	3.95	Lose2	0.9	0.0	Yes	3.127	0.001	n/a	GoodResponse	0	n/a	n/a	2	9	Fixation	AvoidedLoss	True
99.919	0.31	Lose2	0.9	0.004	Yes	3.127	-0.004	4.0	GoodResponse	0	0.219	99.138	2	9	Target	AvoidedLoss	True
100.138	0.3	Lose2	0.9	0.004	Yes	3.127	-0.004	4.0	GoodResponse	0	0.219	n/a	2	9	ButtonPress	AvoidedLoss	True
100.236	0.39	Lose2	0.9	n/a	Yes	3.127	n/a	n/a	GoodResponse	0	n/a	n/a	2	9	Blank	AvoidedLoss	True
100.621	1.45	Lose2	0.9	n/a	Yes	3.127	n/a	5.0	GoodResponse	0	0.039	99.66	2	9	Feedback	AvoidedLoss	True
102.075	3.127	Lose2	0.9	n/a	Yes	3.127	n/a	n/a	GoodResponse	0	0.0	n/a	2	9	ISIslide	AvoidedLoss	True
105.218	0.25	Control	0.9091	0.0	Yes	3.282	0.018	n/a	GoodResponse	0	n/a	n/a	2	10	Cue	Neutral	True
105.469	4.0	Control	0.9091	0.0	Yes	3.282	0.001	n/a	GoodResponse	0	n/a	n/a	2	10	Fixation	Neutral	True
109.464	0.3	Control	0.9091	0.004	Yes	3.282	-0.004	4.0	GoodResponse	0	0.212	108.676	2	10	Target	Neutral	True
109.676	0.3	Control	0.9091	0.004	Yes	3.282	-0.004	4.0	GoodResponse	0	0.212	n/a	2	10	ButtonPress	Neutral	True
109.765	0.4	Control	0.9091	n/a	Yes	3.282	n/a	n/a	GoodResponse	0	n/a	n/a	2	10	Blank	Neutral	True
110.166	1.45	Control	0.9091	n/a	Yes	3.282	n/a	5.0	GoodResponse	0	0.006	109.172	2	10	Feedback	Neutral	True
111.621	3.282	Control	0.9091	n/a	Yes	3.282	n/a	n/a	GoodResponse	0	0.0	n/a	2	10	ISIslide	Neutral	True
114.93	0.25	Lose2	0.9167000000000001	0.001	Yes	2.72	0.03	n/a	GoodResponse	0	n/a	n/a	2	11	Cue	AvoidedLoss	True
115.181	4.05	Lose2	0.9167000000000001	0.0	Yes	2.72	0.001	n/a	GoodResponse	0	n/a	n/a	2	11	Fixation	AvoidedLoss	True
119.227	0.29	Lose2	0.9167000000000001	0.003	Yes	2.72	-0.003	4.0	GoodResponse	0	0.279	118.506	2	11	Target	AvoidedLoss	True
119.506	0.3	Lose2	0.9167000000000001	0.003	Yes	2.72	-0.003	4.0	GoodResponse	0	0.279	n/a	2	11	ButtonPress	AvoidedLoss	True
119.528	0.41	Lose2	0.9167000000000001	n/a	Yes	2.72	n/a	n/a	GoodResponse	0	n/a	n/a	2	11	Blank	AvoidedLoss	True
119.929	1.45	Lose2	0.9167000000000001	n/a	Yes	2.72	n/a	5.0	GoodResponse	0	0.0	118.929	2	11	Feedback	AvoidedLoss	True
121.383	2.72	Lose2	0.9167000000000001	n/a	Yes	2.72	n/a	n/a	GoodResponse	0	0.0	n/a	2	11	ISIslide	AvoidedLoss	True
124.125	0.25	Control	0.9231	0.0	Yes	2.975	0.025	n/a	GoodResponse	0	n/a	n/a	2	12	Cue	Neutral	True
124.375	3.9	Control	0.9231	0.0	Yes	2.975	0.0	n/a	GoodResponse	0	n/a	n/a	2	12	Fixation	Neutral	True
128.287	0.28	Control	0.9231	0.0	Yes	2.975	0.012	4.0	GoodResponse	0	0.213	127.5	2	12	Target	Neutral	True
128.5	0.3	Control	0.9231	0.0	Yes	2.975	0.012	4.0	GoodResponse	0	0.213	n/a	2	12	ButtonPress	Neutral	True
128.555	0.42	Control	0.9231	n/a	Yes	2.975	n/a	n/a	GoodResponse	0	n/a	n/a	2	12	Blank	Neutral	True
128.972	1.45	Control	0.9231	n/a	Yes	2.975	n/a	5.0	GoodResponse	0	0.03	128.002	2	12	Feedback	Neutral	True
130.427	2.975	Control	0.9231	n/a	Yes	2.975	n/a	n/a	GoodResponse	0	0.0	n/a	2	12	ISIslide	Neutral	True
133.419	0.25	Control	0.8571	0.0	No	2.781	0.019	4.0	NoResponse	0	0.248	132.667	2	13	Cue	Neutral	False
133.667	0.3	Control	0.8571	0.0	No	2.781	0.019	4.0	NoResponse	0	0.248	n/a	2	13	ButtonPress	Neutral	False
133.67	4.0	Control	0.8571	0.0	No	2.781	0.001	n/a	NoResponse	0	n/a	n/a	2	13	Fixation	Neutral	False
137.665	0.27	Control	0.8571	0.004	No	2.781	-0.004	4.0	NoResponse	0	0.341	137.006	2	13	Target	Neutral	False
137.949	0.43	Control	0.8571	n/a	No	2.781	n/a	n/a	NoResponse	0	n/a	n/a	2	13	Blank	Neutral	False
138.006	0.3	Control	0.8571	0.004	No	2.781	-0.004	4.0	NoResponse	0	0.341	n/a	2	13	ButtonPress	Neutral	False
138.367	1.45	Control	0.8571	n/a	No	2.781	n/a	5.0	NoResponse	0	0.001	137.368	2	13	Feedback	Neutral	False
139.822	2.781	Control	0.8571	n/a	No	2.781	n/a	n/a	NoResponse	0	0.0	n/a	2	13	ISIslide	Neutral	False
142.63	0.25	Win2	0.8667	0.0	Yes	2.67	0.03	n/a	GoodResponse	1	n/a	n/a	3	14	Cue	Win	True
142.881	4.1	Win2	0.8667	0.0	Yes	2.67	0.001	n/a	GoodResponse	1	n/a	n/a	3	14	Fixation	Win	True
146.976	0.26	Win2	0.8667	0.004	Yes	2.67	-0.004	4.0	GoodResponse	1	0.238	146.214	3	14	Target	Win	True
147.214	0.3	Win2	0.8667	0.004	Yes	2.67	-0.004	4.0	GoodResponse	1	0.238	n/a	3	14	ButtonPress	Win	True
147.244	0.44	Win2	0.8667	n/a	Yes	2.67	n/a	n/a	GoodResponse	1	n/a	n/a	3	14	Blank	Win	True
147.678	1.45	Win2	0.8667	n/a	Yes	2.67	n/a	5.0	GoodResponse	1	0.007	146.685	3	14	Feedback	Win	True
149.133	2.67	Win2	0.8667	n/a	Yes	2.67	n/a	n/a	GoodResponse	1	0.0	n/a	3	14	ISIslide	Win	True
151.824	0.25	Control	0.875	0.0	Yes	2.976	0.024	n/a	GoodResponse	0	n/a	n/a	3	15	Cue	Neutral	True
152.075	4.0	Control	0.875	0.0	Yes	2.976	0.001	n/a	GoodResponse	0	n/a	n/a	3	15	Fixation	Neutral	True
156.07	0.25	Control	0.875	0.004	Yes	2.976	-0.004	4.0	GoodResponse	0	0.23	155.3	3	15	Target	Neutral	True
156.3	0.3	Control	0.875	0.004	Yes	2.976	-0.004	4.0	GoodResponse	0	0.23	n/a	3	15	ButtonPress	Neutral	True
156.321	0.45	Control	0.875	n/a	Yes	2.976	n/a	n/a	GoodResponse	0	n/a	n/a	3	15	Blank	Neutral	True
156.772	1.45	Control	0.875	n/a	Yes	2.976	n/a	5.0	GoodResponse	0	0.034	155.806	3	15	Feedback	Neutral	True
158.227	2.976	Control	0.875	n/a	Yes	2.976	n/a	n/a	GoodResponse	0	0.0	n/a	3	15	ISIslide	Neutral	True
161.219	0.25	Win2	0.8824	0.0	Yes	2.881	0.019	n/a	GoodResponse	1	n/a	n/a	4	16	Cue	Win	True
161.47	4.0	Win2	0.8824	0.0	Yes	2.881	0.001	n/a	GoodResponse	1	n/a	n/a	4	16	Fixation	Win	True
165.465	0.24	Win2	0.8824	0.004	Yes	2.881	-0.004	4.0	GoodResponse	1	0.197	164.662	4	16	Target	Win	True
165.662	0.3	Win2	0.8824	0.004	Yes	2.881	-0.004	4.0	GoodResponse	1	0.197	n/a	4	16	ButtonPress	Win	True
165.716	0.46	Win2	0.8824	n/a	Yes	2.881	n/a	n/a	GoodResponse	1	n/a	n/a	4	16	Blank	Win	True
166.167	1.45	Win2	0.8824	n/a	Yes	2.881	n/a	5.0	GoodResponse	1	0.006	165.173	4	16	Feedback	Win	True
167.622	2.881	Win2	0.8824	n/a	Yes	2.881	n/a	n/a	GoodResponse	1	0.0	n/a	4	16	ISIslide	Win	True
170.53	0.25	Lose2	0.8332999999999999	0.0	No	2.72	0.03	n/a	NoResponse	-1	n/a	n/a	3	17	Cue	Loss	True
170.781	3.95	Lose2	0.8332999999999999	0.0	No	2.72	0.001	n/a	NoResponse	-1	n/a	n/a	3	17	Fixation	Loss	True
174.726	0.23	Lose2	0.8332999999999999	0.004	No	2.72	-0.004	4.0	NoResponse	-1	0.248	173.974	3	17	Target	Loss	True
174.96	0.47	Lose2	0.8332999999999999	n/a	No	2.72	n/a	n/a	NoResponse	-1	n/a	n/a	3	17	Blank	Loss	True
174.974	0.3	Lose2	0.8332999999999999	0.004	No	2.72	-0.004	4.0	NoResponse	-1	0.248	n/a	3	17	ButtonPress	Loss	True
175.428	1.45	Lose2	0.8332999999999999	n/a	No	2.72	n/a	5.0	NoResponse	-1	0.012	174.44	3	17	Feedback	Loss	True
176.883	2.72	Lose2	0.8332999999999999	n/a	No	2.72	n/a	n/a	NoResponse	-1	0.0	n/a	3	17	ISIslide	Loss	True
179.624	0.25	Lose2	0.7895	0.0	No	2.726	0.024	n/a	LatePress	-1	n/a	n/a	2	18	Cue	Loss	True
179.875	4.05	Lose2	0.7895	0.0	No	2.726	0.001	n/a	LatePress	-1	n/a	n/a	2	18	Fixation	Loss	True
183.92	0.22	Lose2	0.7895	0.004	No	2.726	-0.004	4.0	LatePress	-1	0.231	183.151	2	18	Target	Loss	True
184.151	0.3	Lose2	0.7895	0.004	No	2.726	-0.004	4.0	LatePress	-1	0.231	n/a	2	18	ButtonPress	Loss	True
184.154	0.48	Lose2	0.7895	n/a	No	2.726	n/a	n/a	LatePress	-1	n/a	n/a	2	18	Blank	Loss	True
184.622	1.45	Lose2	0.7895	n/a	No	2.726	n/a	5.0	LatePress	-1	0.038	183.66	2	18	Feedback	Loss	True
186.077	2.726	Lose2	0.7895	n/a	No	2.726	n/a	n/a	LatePress	-1	0.0	n/a	2	18	ISIslide	Loss	True
188.818	0.25	Control	0.75	0.0	No	2.932	0.018	n/a	NoResponse	0	n/a	n/a	2	19	Cue	Neutral	True
189.069	3.95	Control	0.75	0.0	No	2.932	0.001	n/a	NoResponse	0	n/a	n/a	2	19	Fixation	Neutral	True
193.014	0.21	Control	0.75	0.004	No	2.932	-0.004	4.0	NoResponse	0	0.252	192.266	2	19	Target	Neutral	True
193.231	0.49	Control	0.75	n/a	No	2.932	n/a	n/a	NoResponse	0	n/a	n/a	2	19	Blank	Neutral	True
193.266	0.3	Control	0.75	0.004	No	2.932	-0.004	4.0	NoResponse	0	0.252	n/a	2	19	ButtonPress	Neutral	True
193.716	1.45	Control	0.75	n/a	No	2.932	n/a	5.0	NoResponse	0	0.017	192.733	2	19	Feedback	Neutral	True
195.171	2.932	Control	0.75	n/a	No	2.932	n/a	n/a	NoResponse	0	0.0	n/a	2	19	ISIslide	Neutral	True
198.129	0.25	Control	0.7143	0.001	No	2.621	0.029	n/a	NoResponse	0	n/a	n/a	2	20	Cue	Neutral	True
198.38	4.05	Control	0.7143	0.0	No	2.621	0.001	n/a	NoResponse	0	n/a	n/a	2	20	Fixation	Neutral	True
202.426	0.2	Control	0.7143	0.003	No	2.621	-0.003	4.0	NoResponse	0	0.217	201.643	2	20	Target	Neutral	True
202.626	0.5	Control	0.7143	n/a	No	2.621	n/a	n/a	NoResponse	0	n/a	n/a	2	20	Blank	Neutral	True
202.643	0.3	Control	0.7143	0.003	No	2.621	-0.003	4.0	NoResponse	0	0.217	n/a	2	20	ButtonPress	Neutral	True
203.128	1.45	Control	0.7143	n/a	No	2.621	n/a	5.0	NoResponse	0	0.019	202.147	2	20	Feedback	Neutral	True
204.582	2.621	Control	0.7143	n/a	No	2.621	n/a	n/a	NoResponse	0	0.0	n/a	2	20	ISIslide	Neutral	True
207.223	0.25	Control	0.6818000000000001	0.001	No	2.777	0.023	n/a	NoResponse	0	n/a	n/a	2	21	Cue	Neutral	False
207.474	4.1	Control	0.6818000000000001	0.0	No	2.777	0.001	2.0	NoResponse	0	1.373	207.847	2	21	Fixation	Neutral	False
208.847	0.3	Control	0.6818000000000001	0.0	No	2.777	0.001	2.0	NoResponse	0	1.373	n/a	2	21	ButtonPress	Neutral	False
211.57	0.19	Control	0.6818000000000001	0.003	No	2.777	-0.003	4.0	NoResponse	0	0.299	210.869	2	21	Target	Neutral	False
211.77	0.51	Control	0.6818000000000001	n/a	No	2.777	n/a	n/a	NoResponse	0	n/a	n/a	2	21	Blank	Neutral	False
211.869	0.3	Control	0.6818000000000001	0.003	No	2.777	-0.003	4.0	NoResponse	0	0.299	n/a	2	21	ButtonPress	Neutral	False
212.272	1.45	Control	0.6818000000000001	n/a	No	2.777	n/a	5.0	NoResponse	0	0.046	211.318	2	21	Feedback	Neutral	False
213.726	2.777	Control	0.6818000000000001	n/a	No	2.777	n/a	n/a	NoResponse	0	0.0	n/a	2	21	ISIslide	Neutral	False
216.518	0.25	Control	0.6522	0.0	No	2.782	0.018	n/a	NoResponse	0	n/a	n/a	2	22	Cue	Neutral	True
216.769	4.0	Control	0.6522	0.0	No	2.782	0.001	n/a	NoResponse	0	n/a	n/a	2	22	Fixation	Neutral	True
220.764	0.18	Control	0.6522	0.004	No	2.782	-0.004	4.0	NoResponse	0	0.199	219.963	2	22	Target	Neutral	True
220.948	0.52	Control	0.6522	n/a	No	2.782	n/a	n/a	NoResponse	0	n/a	n/a	2	22	Blank	Neutral	True
220.963	0.3	Control	0.6522	0.004	No	2.782	-0.004	4.0	NoResponse	0	0.199	n/a	2	22	ButtonPress	Neutral	True
221.466	1.45	Control	0.6522	n/a	No	2.782	n/a	5.0	NoResponse	0	0.023	220.489	2	22	Feedback	Neutral	True
222.92	2.782	Control	0.6522	n/a	No	2.782	n/a	n/a	NoResponse	0	0.0	n/a	2	22	ISIslide	Neutral	True
225.729	0.25	Control	0.6667000000000001	0.0	Yes	2.771	0.029	n/a	GoodResponse	0	n/a	n/a	2	23	Cue	Neutral	True
225.98	3.9	Control	0.6667000000000001	0.0	Yes	2.771	0.001	n/a	GoodResponse	0	n/a	n/a	2	23	Fixation	Neutral	True
229.875	0.19	Control	0.6667000000000001	0.004	Yes	2.771	-0.004	4.0	GoodResponse	0	0.189	229.064	2	23	Target	Neutral	True
230.064	0.3	Control	0.6667000000000001	0.004	Yes	2.771	-0.004	4.0	GoodResponse	0	0.189	n/a	2	23	ButtonPress	Neutral	True
230.075	0.51	Control	0.6667000000000001	n/a	Yes	2.771	n/a	n/a	GoodResponse	0	n/a	n/a	2	23	Blank	Neutral	True
230.577	1.45	Control	0.6667000000000001	n/a	Yes	2.771	n/a	5.0	GoodResponse	0	0.034	229.611	2	23	Feedback	Neutral	True
232.031	2.771	Control	0.6667000000000001	n/a	Yes	2.771	n/a	n/a	GoodResponse	0	0.0	n/a	2	23	ISIslide	Neutral	True
234.823	0.25	Win2	0.64	0.0	No	3.127	0.023	n/a	NoResponse	0	n/a	n/a	2	24	Cue	MissedWin	True
235.073	3.95	Win2	0.64	0.001	No	3.127	0.0	n/a	NoResponse	0	n/a	n/a	2	24	Fixation	MissedWin	True
239.019	0.18	Win2	0.64	0.004	No	3.127	-0.004	4.0	NoResponse	0	0.199	238.218	2	24	Target	MissedWin	True
239.202	0.52	Win2	0.64	n/a	No	3.127	n/a	n/a	NoResponse	0	n/a	n/a	2	24	Blank	MissedWin	True
239.218	0.3	Win2	0.64	0.004	No	3.127	-0.004	4.0	NoResponse	0	0.199	n/a	2	24	ButtonPress	MissedWin	True
239.721	1.45	Win2	0.64	n/a	No	3.127	n/a	5.0	NoResponse	0	0.012	238.733	2	24	Feedback	MissedWin	True
241.175	3.127	Win2	0.64	n/a	No	3.127	n/a	n/a	NoResponse	0	0.0	n/a	2	24	ISIslide	MissedWin	True
244.318	0.25	Win2	0.6537999999999999	0.0	Yes	3.082	0.018	n/a	GoodResponse	1	n/a	n/a	3	25	Cue	Win	True
244.569	4.0	Win2	0.6537999999999999	0.0	Yes	3.082	0.001	n/a	GoodResponse	1	n/a	n/a	3	25	Fixation	Win	True
248.564	0.19	Win2	0.6537999999999999	0.004	Yes	3.082	-0.004	4.0	GoodResponse	1	0.188	247.752	3	25	Target	Win	True
248.752	0.3	Win2	0.6537999999999999	0.004	Yes	3.082	-0.004	4.0	GoodResponse	1	0.188	n/a	3	25	ButtonPress	Win	True
248.764	0.51	Win2	0.6537999999999999	n/a	Yes	3.082	n/a	n/a	GoodResponse	1	n/a	n/a	3	25	Blank	Win	True
249.266	1.45	Win2	0.6537999999999999	n/a	Yes	3.082	n/a	5.0	GoodResponse	1	0.027	248.293	3	25	Feedback	Win	True
250.72	3.082	Win2	0.6537999999999999	n/a	Yes	3.082	n/a	n/a	GoodResponse	1	0.0	n/a	3	25	ISIslide	Win	True
253.83	0.25	Win2	0.6296	0.0	No	2.92	0.03	n/a	NoResponse	0	n/a	n/a	3	26	Cue	MissedWin	True
254.08	3.95	Win2	0.6296	0.0	No	2.92	0.0	n/a	NoResponse	0	n/a	n/a	3	26	Fixation	MissedWin	True
258.025	0.2	Win2	0.6296	0.005	No	2.92	-0.005	4.0	NoResponse	0	0.251	257.276	3	26	Target	MissedWin	True
258.226	0.5	Win2	0.6296	n/a	No	2.92	n/a	n/a	NoResponse	0	n/a	n/a	3	26	Blank	MissedWin	True
258.276	0.3	Win2	0.6296	0.005	No	2.92	-0.005	4.0	NoResponse	0	0.251	n/a	3	26	ButtonPress	MissedWin	True
258.728	1.45	Win2	0.6296	n/a	No	2.92	n/a	5.0	NoResponse	0	0.029	257.757	3	26	Feedback	MissedWin	True
260.182	2.92	Win2	0.6296	n/a	No	2.92	n/a	n/a	NoResponse	0	0.0	n/a	3	26	ISIslide	MissedWin	True
263.124	0.25	Lose2	0.6429	0.0	Yes	2.826	0.024	n/a	GoodResponse	0	n/a	n/a	3	27	Cue	AvoidedLoss	True
263.375	4.05	Lose2	0.6429	0.0	Yes	2.826	0.001	n/a	GoodResponse	0	n/a	n/a	3	27	Fixation	AvoidedLoss	True
267.42	0.21	Lose2	0.6429	0.004	Yes	2.826	-0.004	4.0	GoodResponse	0	0.208	266.628	3	27	Target	AvoidedLoss	True
267.628	0.3	Lose2	0.6429	0.004	Yes	2.826	-0.004	4.0	GoodResponse	0	0.208	n/a	3	27	ButtonPress	AvoidedLoss	True
267.638	0.49	Lose2	0.6429	n/a	Yes	2.826	n/a	n/a	GoodResponse	0	n/a	n/a	3	27	Blank	AvoidedLoss	True
268.122	1.45	Lose2	0.6429	n/a	Yes	2.826	n/a	5.0	GoodResponse	0	0.001	267.123	3	27	Feedback	AvoidedLoss	True
269.577	2.826	Lose2	0.6429	n/a	Yes	2.826	n/a	n/a	GoodResponse	0	0.0	n/a	3	27	ISIslide	AvoidedLoss	True
272.419	0.25	Control	0.6552	0.0	Yes	2.831	0.019	n/a	GoodResponse	0	n/a	n/a	3	28	Cue	Neutral	True
272.669	4.05	Control	0.6552	0.0	Yes	2.831	0.0	n/a	GoodResponse	0	n/a	n/a	3	28	Fixation	Neutral	True
276.715	0.22	Control	0.6552	0.004	Yes	2.831	-0.004	4.0	GoodResponse	0	0.215	275.93	3	28	Target	Neutral	True
276.93	0.3	Control	0.6552	0.004	Yes	2.831	-0.004	4.0	GoodResponse	0	0.215	n/a	3	28	ButtonPress	Neutral	True
276.949	0.48	Control	0.6552	n/a	Yes	2.831	n/a	n/a	GoodResponse	0	n/a	n/a	3	28	Blank	Neutral	True
277.417	1.45	Control	0.6552	n/a	Yes	2.831	n/a	5.0	GoodResponse	0	0.023	276.44	3	28	Feedback	Neutral	True
278.871	2.831	Control	0.6552	n/a	Yes	2.831	n/a	n/a	GoodResponse	0	0.0	n/a	3	28	ISIslide	Neutral	True
281.73	0.25	Lose2	0.6333	0.0	No	2.82	0.03	n/a	NoResponse	-1	n/a	n/a	2	29	Cue	Loss	True
281.98	3.95	Lose2	0.6333	0.001	No	2.82	0.0	n/a	NoResponse	-1	n/a	n/a	2	29	Fixation	Loss	True
285.926	0.22	Lose2	0.6333	0.004	No	2.82	-0.004	4.0	NoResponse	-1	0.247	285.173	2	29	Target	Loss	True
286.16	0.48	Lose2	0.6333	n/a	No	2.82	n/a	n/a	NoResponse	-1	n/a	n/a	2	29	Blank	Loss	True
286.173	0.3	Lose2	0.6333	0.004	No	2.82	-0.004	4.0	NoResponse	-1	0.247	n/a	2	29	ButtonPress	Loss	True
286.628	1.45	Lose2	0.6333	n/a	No	2.82	n/a	5.0	NoResponse	-1	0.031	285.659	2	29	Feedback	Loss	True
288.082	2.82	Lose2	0.6333	n/a	No	2.82	n/a	n/a	NoResponse	-1	0.0	n/a	2	29	ISIslide	Loss	True
290.924	0.25	Win2	0.6452	0.0	Yes	2.776	0.024	n/a	GoodResponse	1	n/a	n/a	3	30	Cue	Win	True
291.175	3.9	Win2	0.6452	0.0	Yes	2.776	0.001	n/a	GoodResponse	1	n/a	n/a	3	30	Fixation	Win	True
295.07	0.23	Win2	0.6452	0.004	Yes	2.776	-0.004	4.0	GoodResponse	1	0.211	294.281	3	30	Target	Win	True
295.281	0.3	Win2	0.6452	0.004	Yes	2.776	-0.004	4.0	GoodResponse	1	0.211	n/a	3	30	ButtonPress	Win	True
295.304	0.47	Win2	0.6452	n/a	Yes	2.776	n/a	n/a	GoodResponse	1	n/a	n/a	3	30	Blank	Win	True
295.772	1.45	Win2	0.6452	n/a	Yes	2.776	n/a	5.0	GoodResponse	1	0.009	294.781	3	30	Feedback	Win	True
297.226	2.776	Win2	0.6452	n/a	Yes	2.776	n/a	n/a	GoodResponse	1	0.0	n/a	3	30	ISIslide	Win	True
300.018	0.25	Lose2	0.6562	0.0	Yes	2.832	0.018	n/a	GoodResponse	0	n/a	n/a	3	31	Cue	AvoidedLoss	True
300.269	4.05	Lose2	0.6562	0.0	Yes	2.832	0.001	n/a	GoodResponse	0	n/a	n/a	3	31	Fixation	AvoidedLoss	True
304.314	0.24	Lose2	0.6562	0.004	Yes	2.832	-0.004	4.0	GoodResponse	0	0.216	303.53	3	31	Target	AvoidedLoss	True
304.53	0.3	Lose2	0.6562	0.004	Yes	2.832	-0.004	4.0	GoodResponse	0	0.216	n/a	3	31	ButtonPress	AvoidedLoss	True
304.565	0.46	Lose2	0.6562	n/a	Yes	2.832	n/a	n/a	GoodResponse	0	n/a	n/a	3	31	Blank	AvoidedLoss	True
305.016	1.45	Lose2	0.6562	n/a	Yes	2.832	n/a	5.0	GoodResponse	0	0.033	304.049	3	31	Feedback	AvoidedLoss	True
306.47	2.832	Lose2	0.6562	n/a	Yes	2.832	n/a	n/a	GoodResponse	0	0.0	n/a	3	31	ISIslide	AvoidedLoss	True
309.329	0.25	Lose2	0.6667000000000001	0.0	Yes	2.621	0.029	n/a	GoodResponse	0	n/a	n/a	3	32	Cue	AvoidedLoss	False
309.58	4.15	Lose2	0.6667000000000001	0.0	Yes	2.621	0.001	4.0	GoodResponse	0	3.877	312.457	3	32	Fixation	AvoidedLoss	False
313.457	0.3	Lose2	0.6667000000000001	0.0	Yes	2.621	0.001	4.0	GoodResponse	0	3.877	n/a	3	32	ButtonPress	AvoidedLoss	False
313.726	0.24	Lose2	0.6667000000000001	0.003	Yes	2.621	-0.003	4.0	GoodResponse	0	0.22	312.946	3	32	Target	AvoidedLoss	False
313.946	0.3	Lose2	0.6667000000000001	0.003	Yes	2.621	-0.003	4.0	GoodResponse	0	0.22	n/a	3	32	ButtonPress	AvoidedLoss	False
313.976	0.46	Lose2	0.6667000000000001	n/a	Yes	2.621	n/a	n/a	GoodResponse	0	n/a	n/a	3	32	Blank	AvoidedLoss	False
314.428	1.45	Lose2	0.6667000000000001	n/a	Yes	2.621	n/a	5.0	GoodResponse	0	0.036	313.464	3	32	Feedback	AvoidedLoss	False
315.882	2.621	Lose2	0.6667000000000001	n/a	Yes	2.621	n/a	n/a	GoodResponse	0	0.0	n/a	3	32	ISIslide	AvoidedLoss	False
318.523	0.25	Win2	0.6765000000000001	0.0	Yes	2.677	0.023	n/a	GoodResponse	1	n/a	n/a	4	33	Cue	Win	True
318.774	4.0	Win2	0.6765000000000001	0.0	Yes	2.677	0.001	n/a	GoodResponse	1	n/a	n/a	4	33	Fixation	Win	True
322.769	0.23	Win2	0.6765000000000001	0.004	Yes	2.677	-0.004	4.0	GoodResponse	1	0.227	321.996	4	33	Target	Win	True
322.996	0.3	Win2	0.6765000000000001	0.004	Yes	2.677	-0.004	4.0	GoodResponse	1	0.227	n/a	4	33	ButtonPress	Win	True
323.003	0.47	Win2	0.6765000000000001	n/a	Yes	2.677	n/a	n/a	GoodResponse	1	n/a	n/a	4	33	Blank	Win	True
323.471	1.45	Win2	0.6765000000000001	n/a	Yes	2.677	n/a	5.0	GoodResponse	1	0.017	322.488	4	33	Feedback	Win	True
324.926	2.677	Win2	0.6765000000000001	n/a	Yes	2.677	n/a	n/a	GoodResponse	1	0.0	n/a	4	33	ISIslide	Win	True
327.617	0.25	Lose2	0.6857	0.0	Yes	2.633	0.017	n/a	GoodResponse	0	n/a	n/a	4	34	Cue	AvoidedLoss	True
327.868	4.05	Lose2	0.6857	0.0	Yes	2.633	0.001	n/a	GoodResponse	0	n/a	n/a	4	34	Fixation	AvoidedLoss	True
331.913	0.22	Lose2	0.6857	0.004	Yes	2.633	-0.004	4.0	GoodResponse	0	0.21	331.123	4	34	Target	AvoidedLoss	True
332.123	0.3	Lose2	0.6857	0.004	Yes	2.633	-0.004	4.0	GoodResponse	0	0.21	n/a	4	34	ButtonPress	AvoidedLoss	True
332.147	0.48	Lose2	0.6857	n/a	Yes	2.633	n/a	n/a	GoodResponse	0	n/a	n/a	4	34	Blank	AvoidedLoss	True
332.615	1.45	Lose2	0.6857	n/a	Yes	2.633	n/a	5.0	GoodResponse	0	0.044	331.659	4	34	Feedback	AvoidedLoss	True
334.07	2.633	Lose2	0.6857	n/a	Yes	2.633	n/a	n/a	GoodResponse	0	0.0	n/a	4	34	ISIslide	AvoidedLoss	True
336.728	0.25	Lose2	0.6667000000000001	0.0	No	2.672	0.028	n/a	NoResponse	-1	n/a	n/a	3	35	Cue	Loss	True
336.978	4.0	Lose2	0.6667000000000001	0.001	No	2.672	0.0	n/a	NoResponse	-1	n/a	n/a	3	35	Fixation	Loss	True
340.974	0.21	Lose2	0.6667000000000001	0.004	No	2.672	-0.004	4.0	NoResponse	-1	0.251	340.225	3	35	Target	Loss	True
341.191	0.49	Lose2	0.6667000000000001	n/a	No	2.672	n/a	n/a	NoResponse	-1	n/a	n/a	3	35	Blank	Loss	True
341.225	0.3	Lose2	0.6667000000000001	0.004	No	2.672	-0.004	4.0	NoResponse	-1	0.251	n/a	3	35	ButtonPress	Loss	True
341.676	1.45	Lose2	0.6667000000000001	n/a	No	2.672	n/a	5.0	NoResponse	-1	0.008	340.684	3	35	Feedback	Loss	True
343.13	2.672	Lose2	0.6667000000000001	n/a	No	2.672	n/a	n/a	NoResponse	-1	0.0	n/a	3	35	ISIslide	Loss	True
345.822	0.25	Control	0.6486	0.0	No	2.678	0.022	n/a	NoResponse	0	n/a	n/a	3	36	Cue	Neutral	True
346.072	4.0	Control	0.6486	0.0	No	2.678	0.0	n/a	NoResponse	0	n/a	n/a	3	36	Fixation	Neutral	True
350.068	0.2	Control	0.6486	0.004	No	2.678	-0.004	4.0	NoResponse	0	0.235	349.303	3	36	Target	Neutral	True
350.268	0.5	Control	0.6486	n/a	No	2.678	n/a	n/a	NoResponse	0	n/a	n/a	3	36	Blank	Neutral	True
350.303	0.3	Control	0.6486	0.004	No	2.678	-0.004	4.0	NoResponse	0	0.235	n/a	3	36	ButtonPress	Neutral	True
350.77	1.45	Control	0.6486	n/a	No	2.678	n/a	5.0	NoResponse	0	0.035	349.805	3	36	Feedback	Neutral	True
352.224	2.678	Control	0.6486	n/a	No	2.678	n/a	n/a	NoResponse	0	0.0	n/a	3	36	ISIslide	Neutral	True
354.915	0.25	Win2	0.6315999999999999	0.001	No	2.885	0.015	n/a	NoResponse	0	n/a	n/a	3	37	Cue	MissedWin	True
355.166	4.0	Win2	0.6315999999999999	0.0	No	2.885	0.001	n/a	NoResponse	0	n/a	n/a	3	37	Fixation	MissedWin	True
359.162	0.21	Win2	0.6315999999999999	0.003	No	2.885	-0.003	4.0	NoResponse	0	0.232	358.394	3	37	Target	MissedWin	True
359.379	0.49	Win2	0.6315999999999999	n/a	No	2.885	n/a	n/a	NoResponse	0	n/a	n/a	3	37	Blank	MissedWin	True
359.394	0.3	Win2	0.6315999999999999	0.003	No	2.885	-0.003	4.0	NoResponse	0	0.232	n/a	3	37	ButtonPress	MissedWin	True
359.864	1.45	Win2	0.6315999999999999	n/a	No	2.885	n/a	5.0	NoResponse	0	0.014	358.878	3	37	Feedback	MissedWin	True
361.318	2.885	Win2	0.6315999999999999	n/a	No	2.885	n/a	n/a	NoResponse	0	0.0	n/a	3	37	ISIslide	MissedWin	True
364.227	0.25	Lose2	0.6154	0.0	No	2.823	0.027	n/a	LatePress	-1	n/a	n/a	2	38	Cue	Loss	True
364.477	3.95	Lose2	0.6154	0.001	No	2.823	0.0	n/a	LatePress	-1	n/a	n/a	2	38	Fixation	Loss	True
368.423	0.22	Lose2	0.6154	0.004	No	2.823	-0.004	4.0	LatePress	-1	0.223	367.646	2	38	Target	Loss	True
368.646	0.3	Lose2	0.6154	0.004	No	2.823	-0.004	4.0	LatePress	-1	0.223	n/a	2	38	ButtonPress	Loss	True
368.657	0.48	Lose2	0.6154	n/a	No	2.823	n/a	n/a	LatePress	-1	n/a	n/a	2	38	Blank	Loss	True
369.125	1.45	Lose2	0.6154	n/a	No	2.823	n/a	5.0	LatePress	-1	0.021	368.146	2	38	Feedback	Loss	True
370.579	2.823	Lose2	0.6154	n/a	No	2.823	n/a	n/a	LatePress	-1	0.0	n/a	2	38	ISIslide	Loss	True
373.421	0.25	Win2	0.6	0.0	No	2.979	0.021	n/a	LatePress	0	n/a	n/a	2	39	Cue	MissedWin	True
373.672	4.1	Win2	0.6	0.0	No	2.979	0.001	n/a	LatePress	0	n/a	n/a	2	39	Fixation	MissedWin	True
377.767	0.23	Win2	0.6	0.004	No	2.979	-0.004	4.0	LatePress	0	0.23	376.997	2	39	Target	MissedWin	True
377.997	0.3	Win2	0.6	0.004	No	2.979	-0.004	4.0	LatePress	0	0.23	n/a	2	39	ButtonPress	MissedWin	True
378.001	0.47	Win2	0.6	n/a	No	2.979	n/a	n/a	LatePress	0	n/a	n/a	2	39	Blank	MissedWin	True
378.469	1.45	Win2	0.6	n/a	No	2.979	n/a	5.0	LatePress	0	0.043	377.512	2	39	Feedback	MissedWin	True
379.924	2.979	Win2	0.6	n/a	No	2.979	n/a	n/a	LatePress	0	0.0	n/a	2	39	ISIslide	MissedWin	True
382.916	0.25	Win2	0.6098	0.0	Yes	2.734	0.016	n/a	GoodResponse	1	n/a	n/a	3	40	Cue	Win	True
383.167	3.95	Win2	0.6098	0.0	Yes	2.734	0.001	n/a	GoodResponse	1	n/a	n/a	3	40	Fixation	Win	True
387.112	0.24	Win2	0.6098	0.004	Yes	2.734	-0.004	4.0	GoodResponse	1	0.219	386.331	3	40	Target	Win	True
387.331	0.3	Win2	0.6098	0.004	Yes	2.734	-0.004	4.0	GoodResponse	1	0.219	n/a	3	40	ButtonPress	Win	True
387.363	0.46	Win2	0.6098	n/a	Yes	2.734	n/a	n/a	GoodResponse	1	n/a	n/a	3	40	Blank	Win	True
387.814	1.45	Win2	0.6098	n/a	Yes	2.734	n/a	5.0	GoodResponse	1	0.015	386.829	3	40	Feedback	Win	True
389.268	2.734	Win2	0.6098	n/a	Yes	2.734	n/a	n/a	GoodResponse	1	0.0	n/a	3	40	ISIslide	Win	True
392.027	0.25	Win2	0.619	0.0	Yes	2.773	0.027	n/a	GoodResponse	1	n/a	n/a	4	41	Cue	Win	True
392.277	3.9	Win2	0.619	0.0	Yes	2.773	0.0	n/a	GoodResponse	1	n/a	n/a	4	41	Fixation	Win	True
396.189	0.25	Win2	0.619	0.0	Yes	2.773	0.012	4.0	GoodResponse	1	0.205	395.394	4	41	Target	Win	True
396.394	0.3	Win2	0.619	0.0	Yes	2.773	0.012	4.0	GoodResponse	1	0.205	n/a	4	41	ButtonPress	Win	True
396.423	0.45	Win2	0.619	n/a	Yes	2.773	n/a	n/a	GoodResponse	1	n/a	n/a	4	41	Blank	Win	True
396.874	1.45	Win2	0.619	n/a	Yes	2.773	n/a	5.0	GoodResponse	1	0.028	395.902	4	41	Feedback	Win	True
398.329	2.773	Win2	0.619	n/a	Yes	2.773	n/a	n/a	GoodResponse	1	0.0	n/a	4	41	ISIslide	Win	True
401.12	0.25	Control	0.6279	0.001	Yes	2.93	0.02	n/a	GoodResponse	0	n/a	n/a	4	42	Cue	Neutral	True
401.371	3.85	Control	0.6279	0.0	Yes	2.93	0.001	n/a	GoodResponse	0	n/a	n/a	4	42	Fixation	Neutral	True
405.216	0.26	Control	0.6279	0.004	Yes	2.93	-0.004	4.0	GoodResponse	0	0.224	404.44	4	42	Target	Neutral	True
405.44	0.3	Control	0.6279	0.004	Yes	2.93	-0.004	4.0	GoodResponse	0	0.224	n/a	4	42	ButtonPress	Neutral	True
405.484	0.44	Control	0.6279	n/a	Yes	2.93	n/a	n/a	GoodResponse	0	n/a	n/a	4	42	Blank	Neutral	True
405.918	1.45	Control	0.6279	n/a	Yes	2.93	n/a	5.0	GoodResponse	0	0.008	404.926	4	42	Feedback	Neutral	True
407.372	2.93	Control	0.6279	n/a	Yes	2.93	n/a	n/a	GoodResponse	0	0.0	n/a	4	42	ISIslide	Neutral	True
410.331	0.25	Win2	0.6136	0.0	No	3.169	0.031	n/a	LatePress	0	n/a	n/a	4	43	Cue	MissedWin	True
410.582	4.0	Win2	0.6136	0.0	No	3.169	0.001	n/a	LatePress	0	n/a	n/a	4	43	Fixation	MissedWin	True
414.577	0.27	Win2	0.6136	0.004	No	3.169	-0.004	4.0	LatePress	0	0.27	413.847	4	43	Target	MissedWin	True
414.847	0.3	Win2	0.6136	0.004	No	3.169	-0.004	4.0	LatePress	0	0.27	n/a	4	43	ButtonPress	MissedWin	True
414.862	0.43	Win2	0.6136	n/a	No	3.169	n/a	n/a	LatePress	0	n/a	n/a	4	43	Blank	MissedWin	True
415.279	1.45	Win2	0.6136	n/a	No	3.169	n/a	5.0	LatePress	0	0.013	414.292	4	43	Feedback	MissedWin	True
416.734	3.169	Win2	0.6136	n/a	No	3.169	n/a	n/a	LatePress	0	0.0	n/a	4	43	ISIslide	MissedWin	True
419.927	0.25	Win2	0.6222	0.0	Yes	2.973	0.027	n/a	GoodResponse	1	n/a	n/a	5	44	Cue	Win	True
420.177	4.0	Win2	0.6222	0.001	Yes	2.973	0.0	n/a	GoodResponse	1	n/a	n/a	5	44	Fixation	Win	True
424.173	0.28	Win2	0.6222	0.004	Yes	2.973	-0.004	4.0	GoodResponse	1	0.24	423.413	5	44	Target	Win	True
424.413	0.3	Win2	0.6222	0.004	Yes	2.973	-0.004	4.0	GoodResponse	1	0.24	n/a	5	44	ButtonPress	Win	True
424.457	0.42	Win2	0.6222	n/a	Yes	2.973	n/a	n/a	GoodResponse	1	n/a	n/a	5	44	Blank	Win	True
424.875	1.45	Win2	0.6222	n/a	Yes	2.973	n/a	5.0	GoodResponse	1	0.027	423.902	5	44	Feedback	Win	True
426.329	2.973	Win2	0.6222	n/a	Yes	2.973	n/a	n/a	GoodResponse	1	0.0	n/a	5	44	ISIslide	Win	True
429.322	0.25	Control	0.6304	0.0	Yes	2.878	0.022	n/a	GoodResponse	0	n/a	n/a	5	45	Cue	Neutral	True
429.572	4.1	Control	0.6304	0.0	Yes	2.878	0.0	n/a	GoodResponse	0	n/a	n/a	5	45	Fixation	Neutral	True
433.668	0.29	Control	0.6304	0.004	Yes	2.878	-0.004	4.0	GoodResponse	0	0.271	432.939	5	45	Target	Neutral	True
433.939	0.3	Control	0.6304	0.004	Yes	2.878	-0.004	4.0	GoodResponse	0	0.271	n/a	5	45	ButtonPress	Neutral	True
433.969	0.41	Control	0.6304	n/a	Yes	2.878	n/a	n/a	GoodResponse	0	n/a	n/a	5	45	Blank	Neutral	True
434.37	1.45	Control	0.6304	n/a	Yes	2.878	n/a	5.0	GoodResponse	0	0.044	433.414	5	45	Feedback	Neutral	True
435.824	2.878	Control	0.6304	n/a	Yes	2.878	n/a	n/a	GoodResponse	0	0.0	n/a	5	45	ISIslide	Neutral	True
438.716	0.25	Lose2	0.6383	0.0	Yes	3.384	0.016	n/a	GoodResponse	0	n/a	n/a	5	46	Cue	AvoidedLoss	True
438.967	4.0	Lose2	0.6383	0.0	Yes	3.384	0.001	n/a	GoodResponse	0	n/a	n/a	5	46	Fixation	AvoidedLoss	True
442.962	0.3	Lose2	0.6383	0.004	Yes	3.384	-0.004	4.0	GoodResponse	0	0.261	442.223	5	46	Target	AvoidedLoss	True
443.223	0.3	Lose2	0.6383	0.004	Yes	3.384	-0.004	4.0	GoodResponse	0	0.261	n/a	5	46	ButtonPress	AvoidedLoss	True
443.263	0.4	Lose2	0.6383	n/a	Yes	3.384	n/a	n/a	GoodResponse	0	n/a	n/a	5	46	Blank	AvoidedLoss	True
443.664	1.45	Lose2	0.6383	n/a	Yes	3.384	n/a	5.0	GoodResponse	0	0.019	442.683	5	46	Feedback	AvoidedLoss	True
445.119	3.384	Lose2	0.6383	n/a	Yes	3.384	n/a	n/a	GoodResponse	0	0.0	n/a	5	46	ISIslide	AvoidedLoss	True
448.529	0.25	Lose2	0.625	0.0	No	2.671	0.029	n/a	NoResponse	-1	n/a	n/a	4	47	Cue	Loss	True
448.78	4.0	Lose2	0.625	0.0	No	2.671	0.001	n/a	NoResponse	-1	n/a	n/a	4	47	Fixation	Loss	True
452.775	0.31	Lose2	0.625	0.004	No	2.671	-0.004	4.0	NoResponse	-1	0.325	452.1	4	47	Target	Loss	True
453.093	0.39	Lose2	0.625	n/a	No	2.671	n/a	n/a	NoResponse	-1	n/a	n/a	4	47	Blank	Loss	True
453.1	0.3	Lose2	0.625	0.004	No	2.671	-0.004	4.0	NoResponse	-1	0.325	n/a	4	47	ButtonPress	Loss	True
453.477	1.45	Lose2	0.625	n/a	No	2.671	n/a	5.0	NoResponse	-1	0.01	452.487	4	47	Feedback	Loss	True
454.932	2.671	Lose2	0.625	n/a	No	2.671	n/a	n/a	NoResponse	-1	0.0	n/a	4	47	ISIslide	Loss	True
457.623	0.25	Lose2	0.6327	0.0	Yes	3.027	0.023	n/a	GoodResponse	0	n/a	n/a	4	48	Cue	AvoidedLoss	True
457.874	3.95	Lose2	0.6327	0.0	Yes	3.027	0.001	n/a	GoodResponse	0	n/a	n/a	4	48	Fixation	AvoidedLoss	True
461.819	0.32	Lose2	0.6327	0.004	Yes	3.027	-0.004	4.0	GoodResponse	0	0.216	461.035	4	48	Target	AvoidedLoss	True
462.035	0.3	Lose2	0.6327	0.004	Yes	3.027	-0.004	4.0	GoodResponse	0	0.216	n/a	4	48	ButtonPress	AvoidedLoss	True
462.153	0.38	Lose2	0.6327	n/a	Yes	3.027	n/a	n/a	GoodResponse	0	n/a	n/a	4	48	Blank	AvoidedLoss	True
462.521	1.45	Lose2	0.6327	n/a	Yes	3.027	n/a	5.0	GoodResponse	0	0.039	461.56	4	48	Feedback	AvoidedLoss	True
463.975	3.027	Lose2	0.6327	n/a	Yes	3.027	n/a	n/a	GoodResponse	0	0.0	n/a	4	48	ISIslide	AvoidedLoss	True
467.018	0.25	Control	0.64	0.0	Yes	2.882	0.018	n/a	GoodResponse	0	n/a	n/a	4	49	Cue	Neutral	True
467.268	4.0	Control	0.64	0.001	Yes	2.882	0.0	n/a	GoodResponse	0	n/a	n/a	4	49	Fixation	Neutral	True
471.264	0.33	Control	0.64	0.004	Yes	2.882	-0.004	4.0	GoodResponse	0	0.279	470.543	4	49	Target	Neutral	True
471.543	0.3	Control	0.64	0.004	Yes	2.882	-0.004	4.0	GoodResponse	0	0.279	n/a	4	49	ButtonPress	Neutral	True
471.598	0.37	Control	0.64	n/a	Yes	2.882	n/a	n/a	GoodResponse	0	n/a	n/a	4	49	Blank	Neutral	True
471.966	1.45	Control	0.64	n/a	Yes	2.882	n/a	5.0	GoodResponse	0	0.009	470.975	4	49	Feedback	Neutral	True
473.42	2.882	Control	0.64	n/a	Yes	2.882	n/a	n/a	GoodResponse	0	0.0	n/a	4	49	ISIslide	Neutral	True
476.329	0.25	Control	0.6470999999999999	0.0	Yes	2.771	0.029	n/a	GoodResponse	0	n/a	n/a	4	50	Cue	Neutral	True
476.58	4.0	Control	0.6470999999999999	0.0	Yes	2.771	0.001	n/a	GoodResponse	0	n/a	n/a	4	50	Fixation	Neutral	True
480.575	0.34	Control	0.6470999999999999	0.004	Yes	2.771	-0.004	4.0	GoodResponse	0	0.224	479.799	4	50	Target	Neutral	True
480.799	0.3	Control	0.6470999999999999	0.004	Yes	2.771	-0.004	4.0	GoodResponse	0	0.224	n/a	4	50	ButtonPress	Neutral	True
480.926	0.36	Control	0.6470999999999999	n/a	Yes	2.771	n/a	n/a	GoodResponse	0	n/a	n/a	4	50	Blank	Neutral	True
481.277	1.45	Control	0.6470999999999999	n/a	Yes	2.771	n/a	5.0	GoodResponse	0	0.015	480.292	4	50	Feedback	Neutral	True
482.731	2.771	Control	0.6470999999999999	n/a	Yes	2.771	n/a	n/a	GoodResponse	0	0.0	n/a	4	50	ISIslide	Neutral	True
485.523	0.25	Control	0.6537999999999999	0.0	Yes	2.727	0.023	n/a	GoodResponse	0	n/a	n/a	4	51	Cue	Neutral	True
485.774	3.95	Control	0.6537999999999999	0.0	Yes	2.727	0.001	n/a	GoodResponse	0	n/a	n/a	4	51	Fixation	Neutral	True
489.719	0.35	Control	0.6537999999999999	0.004	Yes	2.727	-0.004	4.0	GoodResponse	0	0.295	489.014	4	51	Target	Neutral	True
490.014	0.3	Control	0.6537999999999999	0.004	Yes	2.727	-0.004	4.0	GoodResponse	0	0.295	n/a	4	51	ButtonPress	Neutral	True
490.07	0.35	Control	0.6537999999999999	n/a	Yes	2.727	n/a	n/a	GoodResponse	0	n/a	n/a	4	51	Blank	Neutral	True
490.421	1.45	Control	0.6537999999999999	n/a	Yes	2.727	n/a	5.0	GoodResponse	0	0.042	489.463	4	51	Feedback	Neutral	True
491.875	2.727	Control	0.6537999999999999	n/a	Yes	2.727	n/a	n/a	GoodResponse	0	0.0	n/a	4	51	ISIslide	Neutral	True
494.617	0.25	Control	0.6604000000000001	0.0	Yes	2.633	0.017	n/a	GoodResponse	0	n/a	n/a	4	52	Cue	Neutral	True
494.868	4.05	Control	0.6604000000000001	0.0	Yes	2.633	0.001	n/a	GoodResponse	0	n/a	n/a	4	52	Fixation	Neutral	True
498.913	0.36	Control	0.6604000000000001	0.004	Yes	2.633	-0.004	4.0	GoodResponse	0	0.205	498.118	4	52	Target	Neutral	True
499.118	0.3	Control	0.6604000000000001	0.004	Yes	2.633	-0.004	4.0	GoodResponse	0	0.205	n/a	4	52	ButtonPress	Neutral	True
499.281	0.34	Control	0.6604000000000001	n/a	Yes	2.633	n/a	n/a	GoodResponse	0	n/a	n/a	4	52	Blank	Neutral	True
499.615	1.45	Control	0.6604000000000001	n/a	Yes	2.633	n/a	5.0	GoodResponse	0	0.018	498.633	4	52	Feedback	Neutral	True
501.07	2.633	Control	0.6604000000000001	n/a	Yes	2.633	n/a	n/a	GoodResponse	0	0.0	n/a	4	52	ISIslide	Neutral	True
503.728	0.25	Win2	0.6667000000000001	0.0	Yes	2.922	0.028	n/a	GoodResponse	1	n/a	n/a	5	53	Cue	Win	True
503.978	4.05	Win2	0.6667000000000001	0.0	Yes	2.922	0.0	n/a	GoodResponse	1	n/a	n/a	5	53	Fixation	Win	True
508.024	0.36	Win2	0.6667000000000001	0.004	Yes	2.922	-0.004	4.0	GoodResponse	1	0.243	507.267	5	53	Target	Win	True
508.267	0.3	Win2	0.6667000000000001	0.004	Yes	2.922	-0.004	4.0	GoodResponse	1	0.243	n/a	5	53	ButtonPress	Win	True
508.392	0.34	Win2	0.6667000000000001	n/a	Yes	2.922	n/a	n/a	GoodResponse	1	n/a	n/a	5	53	Blank	Win	True
508.726	1.45	Win2	0.6667000000000001	n/a	Yes	2.922	n/a	5.0	GoodResponse	1	0.029	507.755	5	53	Feedback	Win	True
510.18	2.922	Win2	0.6667000000000001	n/a	Yes	2.922	n/a	n/a	GoodResponse	1	0.0	n/a	5	53	ISIslide	Win	True
513.122	0.25	Win2	0.6727	0.0	Yes	2.728	0.022	n/a	GoodResponse	1	n/a	n/a	6	54	Cue	Win	True
513.373	3.95	Win2	0.6727	0.0	Yes	2.728	0.001	n/a	GoodResponse	1	n/a	n/a	6	54	Fixation	Win	True
517.318	0.35	Win2	0.6727	0.004	Yes	2.728	-0.004	4.0	GoodResponse	1	0.216	516.534	6	54	Target	Win	True
517.534	0.3	Win2	0.6727	0.004	Yes	2.728	-0.004	4.0	GoodResponse	1	0.216	n/a	6	54	ButtonPress	Win	True
517.669	0.35	Win2	0.6727	n/a	Yes	2.728	n/a	n/a	GoodResponse	1	n/a	n/a	6	54	Blank	Win	True
518.02	1.45	Win2	0.6727	n/a	Yes	2.728	n/a	5.0	GoodResponse	1	0.005	517.025	6	54	Feedback	Win	True
519.475	2.728	Win2	0.6727	n/a	Yes	2.728	n/a	n/a	GoodResponse	1	0.0	n/a	6	54	ISIslide	Win	True
522.216	0.25	Control	0.6786	0.0	Yes	3.034	0.016	n/a	GoodResponse	0	n/a	n/a	6	55	Cue	Neutral	True
522.467	3.95	Control	0.6786	0.0	Yes	3.034	0.001	n/a	GoodResponse	0	n/a	n/a	6	55	Fixation	Neutral	True
526.412	0.34	Control	0.6786	0.004	Yes	3.034	-0.004	4.0	GoodResponse	0	0.228	525.64	6	55	Target	Neutral	True
526.64	0.3	Control	0.6786	0.004	Yes	3.034	-0.004	4.0	GoodResponse	0	0.228	n/a	6	55	ButtonPress	Neutral	True
526.763	0.36	Control	0.6786	n/a	Yes	3.034	n/a	n/a	GoodResponse	0	n/a	n/a	6	55	Blank	Neutral	True
527.114	1.45	Control	0.6786	n/a	Yes	3.034	n/a	5.0	GoodResponse	0	0.031	526.145	6	55	Feedback	Neutral	True
528.569	3.034	Control	0.6786	n/a	Yes	3.034	n/a	n/a	GoodResponse	0	0.0	n/a	6	55	ISIslide	Neutral	True
531.628	0.25	Control	0.6667000000000001	0.0	No	2.822	0.028	n/a	NoResponse	0	n/a	n/a	6	56	Cue	Neutral	False
531.879	3.95	Control	0.6667000000000001	0.0	No	2.822	0.001	n/a	NoResponse	0	n/a	n/a	6	56	Fixation	Neutral	False
535.824	0.33	Control	0.6667000000000001	0.004	No	2.822	-0.004	n/a	NoResponse	0	n/a	n/a	6	56	Target	Neutral	False
536.158	0.37	Control	0.6667000000000001	n/a	No	2.822	n/a	n/a	NoResponse	0	n/a	n/a	6	56	Blank	Neutral	False
536.526	1.45	Control	0.6667000000000001	n/a	No	2.822	n/a	5.0	NoResponse	0	0.034	535.56	6	56	Feedback	Neutral	False
537.98	2.822	Control	0.6667000000000001	n/a	No	2.822	n/a	n/a	NoResponse	0	0.0	n/a	6	56	ISIslide	Neutral	False
540.822	0.25	Control	0.6724	0.0	Yes	3.478	0.022	n/a	GoodResponse	0	n/a	n/a	6	57	Cue	Neutral	True
541.073	4.0	Control	0.6724	0.0	Yes	3.478	0.001	n/a	GoodResponse	0	n/a	n/a	6	57	Fixation	Neutral	True
545.068	0.32	Control	0.6724	0.004	Yes	3.478	-0.004	4.0	GoodResponse	0	0.252	544.32	6	57	Target	Neutral	True
545.32	0.3	Control	0.6724	0.004	Yes	3.478	-0.004	4.0	GoodResponse	0	0.252	n/a	6	57	ButtonPress	Neutral	True
545.402	0.38	Control	0.6724	n/a	Yes	3.478	n/a	n/a	GoodResponse	0	n/a	n/a	6	57	Blank	Neutral	True
545.77	1.45	Control	0.6724	n/a	Yes	3.478	n/a	5.0	GoodResponse	0	0.01	544.78	6	57	Feedback	Neutral	True
547.224	3.478	Control	0.6724	n/a	Yes	3.478	n/a	n/a	GoodResponse	0	0.0	n/a	6	57	ISIslide	Neutral	True
550.718	0.25	Win2	0.6779999999999999	0.0	Yes	2.732	0.018	n/a	GoodResponse	1	n/a	n/a	7	58	Cue	Win	True
550.969	4.05	Win2	0.6779999999999999	0.0	Yes	2.732	0.001	n/a	GoodResponse	1	n/a	n/a	7	58	Fixation	Win	True
555.014	0.31	Win2	0.6779999999999999	0.004	Yes	2.732	-0.004	4.0	GoodResponse	1	0.231	554.245	7	58	Target	Win	True
555.245	0.3	Win2	0.6779999999999999	0.004	Yes	2.732	-0.004	4.0	GoodResponse	1	0.231	n/a	7	58	ButtonPress	Win	True
555.332	0.39	Win2	0.6779999999999999	n/a	Yes	2.732	n/a	n/a	GoodResponse	1	n/a	n/a	7	58	Blank	Win	True
555.717	1.45	Win2	0.6779999999999999	n/a	Yes	2.732	n/a	5.0	GoodResponse	1	0.013	554.73	7	58	Feedback	Win	True
557.171	2.732	Win2	0.6779999999999999	n/a	Yes	2.732	n/a	n/a	GoodResponse	1	0.0	n/a	7	58	ISIslide	Win	True
559.929	0.25	Lose2	0.6833	0.0	Yes	2.671	0.029	n/a	GoodResponse	0	n/a	n/a	7	59	Cue	AvoidedLoss	True
560.18	4.0	Lose2	0.6833	0.0	Yes	2.671	0.001	n/a	GoodResponse	0	n/a	n/a	7	59	Fixation	AvoidedLoss	True
564.175	0.3	Lose2	0.6833	0.004	Yes	2.671	-0.004	4.0	GoodResponse	0	0.219	563.394	7	59	Target	AvoidedLoss	True
564.394	0.3	Lose2	0.6833	0.004	Yes	2.671	-0.004	4.0	GoodResponse	0	0.219	n/a	7	59	ButtonPress	AvoidedLoss	True
564.476	0.4	Lose2	0.6833	n/a	Yes	2.671	n/a	n/a	GoodResponse	0	n/a	n/a	7	59	Blank	AvoidedLoss	True
564.877	1.45	Lose2	0.6833	n/a	Yes	2.671	n/a	5.0	GoodResponse	0	0.024	563.901	7	59	Feedback	AvoidedLoss	True
566.332	2.671	Lose2	0.6833	n/a	Yes	2.671	n/a	n/a	GoodResponse	0	0.0	n/a	7	59	ISIslide	AvoidedLoss	True
569.023	0.25	Control	0.6884999999999999	0.0	Yes	2.677	0.023	n/a	GoodResponse	0	n/a	n/a	7	60	Cue	Neutral	True
569.274	4.0	Control	0.6884999999999999	0.0	Yes	2.677	0.001	n/a	GoodResponse	0	n/a	n/a	7	60	Fixation	Neutral	True
573.269	0.29	Control	0.6884999999999999	0.004	Yes	2.677	-0.004	4.0	GoodResponse	0	0.218	572.487	7	60	Target	Neutral	True
573.487	0.3	Control	0.6884999999999999	0.004	Yes	2.677	-0.004	4.0	GoodResponse	0	0.218	n/a	7	60	ButtonPress	Neutral	True
573.57	0.41	Control	0.6884999999999999	n/a	Yes	2.677	n/a	n/a	GoodResponse	0	n/a	n/a	7	60	Blank	Neutral	True
573.971	1.45	Control	0.6884999999999999	n/a	Yes	2.677	n/a	5.0	GoodResponse	0	0.006	572.977	7	60	Feedback	Neutral	True
575.426	2.677	Control	0.6884999999999999	n/a	Yes	2.677	n/a	n/a	GoodResponse	0	0.0	n/a	7	60	ISIslide	Neutral	True
578.117	0.25	Lose2	0.6934999999999999	0.0	Yes	2.983	0.017	n/a	GoodResponse	0	n/a	n/a	7	61	Cue	AvoidedLoss	False
578.368	4.0	Lose2	0.6934999999999999	0.0	Yes	2.983	0.001	4.0	GoodResponse	0	3.611	580.979	7	61	Fixation	AvoidedLoss	False
581.979	0.3	Lose2	0.6934999999999999	0.0	Yes	2.983	0.001	4.0	GoodResponse	0	3.611	n/a	7	61	ButtonPress	AvoidedLoss	False
582.363	0.28	Lose2	0.6934999999999999	0.004	Yes	2.983	-0.004	4.0	GoodResponse	0	0.229	581.592	7	61	Target	AvoidedLoss	False
582.592	0.3	Lose2	0.6934999999999999	0.004	Yes	2.983	-0.004	4.0	GoodResponse	0	0.229	n/a	7	61	ButtonPress	AvoidedLoss	False
582.647	0.42	Lose2	0.6934999999999999	n/a	Yes	2.983	n/a	n/a	GoodResponse	0	n/a	n/a	7	61	Blank	AvoidedLoss	False
583.065	1.45	Lose2	0.6934999999999999	n/a	Yes	2.983	n/a	5.0	GoodResponse	0	0.031	582.096	7	61	Feedback	AvoidedLoss	False
584.519	2.983	Lose2	0.6934999999999999	n/a	Yes	2.983	n/a	n/a	GoodResponse	0	0.0	n/a	7	61	ISIslide	AvoidedLoss	False
587.528	0.25	Lose2	0.6984	0.0	Yes	2.872	0.028	n/a	GoodResponse	0	n/a	n/a	7	62	Cue	AvoidedLoss	True
587.779	3.9	Lose2	0.6984	0.0	Yes	2.872	0.001	n/a	GoodResponse	0	n/a	n/a	7	62	Fixation	AvoidedLoss	True
591.674	0.27	Lose2	0.6984	0.004	Yes	2.872	-0.004	4.0	GoodResponse	0	0.257	590.931	7	62	Target	AvoidedLoss	True
591.931	0.3	Lose2	0.6984	0.004	Yes	2.872	-0.004	4.0	GoodResponse	0	0.257	n/a	7	62	ButtonPress	AvoidedLoss	True
591.958	0.43	Lose2	0.6984	n/a	Yes	2.872	n/a	n/a	GoodResponse	0	n/a	n/a	7	62	Blank	AvoidedLoss	True
592.376	1.45	Lose2	0.6984	n/a	Yes	2.872	n/a	5.0	GoodResponse	0	0.038	591.414	7	62	Feedback	AvoidedLoss	True
593.831	2.872	Lose2	0.6984	n/a	Yes	2.872	n/a	n/a	GoodResponse	0	0.0	n/a	7	62	ISIslide	AvoidedLoss	True
596.723	0.25	Lose2	0.7031000000000001	0.0	Yes	2.627	0.023	n/a	GoodResponse	0	n/a	n/a	7	63	Cue	AvoidedLoss	True
596.973	4.05	Lose2	0.7031000000000001	0.0	Yes	2.627	0.0	n/a	GoodResponse	0	n/a	n/a	7	63	Fixation	AvoidedLoss	True
601.019	0.26	Lose2	0.7031000000000001	0.004	Yes	2.627	-0.004	4.0	GoodResponse	0	0.256	600.275	7	63	Target	AvoidedLoss	True
601.275	0.3	Lose2	0.7031000000000001	0.004	Yes	2.627	-0.004	4.0	GoodResponse	0	0.256	n/a	7	63	ButtonPress	AvoidedLoss	True
601.286	0.44	Lose2	0.7031000000000001	n/a	Yes	2.627	n/a	n/a	GoodResponse	0	n/a	n/a	7	63	Blank	AvoidedLoss	True
601.721	1.45	Lose2	0.7031000000000001	n/a	Yes	2.627	n/a	5.0	GoodResponse	0	0.009	600.73	7	63	Feedback	AvoidedLoss	True
603.175	2.627	Lose2	0.7031000000000001	n/a	Yes	2.627	n/a	n/a	GoodResponse	0	0.0	n/a	7	63	ISIslide	AvoidedLoss	True
605.817	0.25	Win2	0.7077	0.0	Yes	3.133	0.017	n/a	GoodResponse	1	n/a	n/a	8	64	Cue	Win	True
606.067	4.15	Win2	0.7077	0.0	Yes	3.133	0.0	n/a	GoodResponse	1	n/a	n/a	8	64	Fixation	Win	True
610.213	0.25	Win2	0.7077	0.004	Yes	3.133	-0.004	4.0	GoodResponse	1	0.212	609.425	8	64	Target	Win	True
610.425	0.3	Win2	0.7077	0.004	Yes	3.133	-0.004	4.0	GoodResponse	1	0.212	n/a	8	64	ButtonPress	Win	True
610.464	0.45	Win2	0.7077	n/a	Yes	3.133	n/a	n/a	GoodResponse	1	n/a	n/a	8	64	Blank	Win	True
610.915	1.45	Win2	0.7077	n/a	Yes	3.133	n/a	5.0	GoodResponse	1	0.034	609.949	8	64	Feedback	Win	True
612.369	3.133	Win2	0.7077	n/a	Yes	3.133	n/a	n/a	GoodResponse	1	0.0	n/a	8	64	ISIslide	Win	True
615.529	0.25	Control	0.6970000000000001	0.0	No	2.771	0.029	n/a	LatePress	0	n/a	n/a	8	65	Cue	Neutral	True
615.78	4.0	Control	0.6970000000000001	0.0	No	2.771	0.001	n/a	LatePress	0	n/a	n/a	8	65	Fixation	Neutral	True
619.775	0.24	Control	0.6970000000000001	0.004	No	2.771	-0.004	4.0	LatePress	0	0.246	619.021	8	65	Target	Neutral	True
620.021	0.3	Control	0.6970000000000001	0.004	No	2.771	-0.004	4.0	LatePress	0	0.246	n/a	8	65	ButtonPress	Neutral	True
620.026	0.46	Control	0.6970000000000001	n/a	No	2.771	n/a	n/a	LatePress	0	n/a	n/a	8	65	Blank	Neutral	True
620.477	1.45	Control	0.6970000000000001	n/a	No	2.771	n/a	5.0	LatePress	0	0.033	619.51	8	65	Feedback	Neutral	True
621.931	2.771	Control	0.6970000000000001	n/a	No	2.771	n/a	n/a	LatePress	0	0.0	n/a	8	65	ISIslide	Neutral	True
624.723	0.25	Win2	0.6866	0.0	No	2.777	0.023	n/a	NoResponse	0	n/a	n/a	8	66	Cue	MissedWin	True
624.974	3.9	Win2	0.6866	0.0	No	2.777	0.001	n/a	NoResponse	0	n/a	n/a	8	66	Fixation	MissedWin	True
628.869	0.23	Win2	0.6866	0.004	No	2.777	-0.004	4.0	NoResponse	0	0.261	628.13	8	66	Target	MissedWin	True
629.103	0.47	Win2	0.6866	n/a	No	2.777	n/a	n/a	NoResponse	0	n/a	n/a	8	66	Blank	MissedWin	True
629.13	0.3	Win2	0.6866	0.004	No	2.777	-0.004	4.0	NoResponse	0	0.261	n/a	8	66	ButtonPress	MissedWin	True
629.571	1.45	Win2	0.6866	n/a	No	2.777	n/a	5.0	NoResponse	0	0.013	628.584	8	66	Feedback	MissedWin	True
631.025	2.777	Win2	0.6866	n/a	No	2.777	n/a	n/a	NoResponse	0	0.0	n/a	8	66	ISIslide	MissedWin	True
633.817	0.25	Control	0.6912	0.0	Yes	2.733	0.017	n/a	GoodResponse	0	n/a	n/a	8	67	Cue	Neutral	True
634.068	3.95	Control	0.6912	0.0	Yes	2.733	0.001	n/a	GoodResponse	0	n/a	n/a	8	67	Fixation	Neutral	True
638.013	0.22	Control	0.6912	0.004	Yes	2.733	-0.004	4.0	GoodResponse	0	0.215	637.228	8	67	Target	Neutral	True
638.228	0.3	Control	0.6912	0.004	Yes	2.733	-0.004	4.0	GoodResponse	0	0.215	n/a	8	67	ButtonPress	Neutral	True
638.247	0.48	Control	0.6912	n/a	Yes	2.733	n/a	n/a	GoodResponse	0	n/a	n/a	8	67	Blank	Neutral	True
638.715	1.45	Control	0.6912	n/a	Yes	2.733	n/a	5.0	GoodResponse	0	0.04	637.755	8	67	Feedback	Neutral	True
640.169	2.733	Control	0.6912	n/a	Yes	2.733	n/a	n/a	GoodResponse	0	0.0	n/a	8	67	ISIslide	Neutral	True
642.928	0.25	Win2	0.6812	0.0	No	3.072	0.028	n/a	NoResponse	0	n/a	n/a	8	68	Cue	MissedWin	True
643.178	4.0	Win2	0.6812	0.0	No	3.072	0.0	n/a	NoResponse	0	n/a	n/a	8	68	Fixation	MissedWin	True
647.174	0.21	Win2	0.6812	0.004	No	3.072	-0.004	4.0	NoResponse	0	0.226	646.4	8	68	Target	MissedWin	True
647.391	0.49	Win2	0.6812	n/a	No	3.072	n/a	n/a	NoResponse	0	n/a	n/a	8	68	Blank	MissedWin	True
647.4	0.3	Win2	0.6812	0.004	No	3.072	-0.004	4.0	NoResponse	0	0.226	n/a	8	68	ButtonPress	MissedWin	True
647.876	1.45	Win2	0.6812	n/a	No	3.072	n/a	5.0	NoResponse	0	0.0	646.876	8	68	Feedback	MissedWin	True
649.33	3.072	Win2	0.6812	n/a	No	3.072	n/a	n/a	NoResponse	0	0.0	n/a	8	68	ISIslide	MissedWin	True
652.423	0.25	Win2	0.6714	0.0	No	3.227	0.023	n/a	NoResponse	0	n/a	n/a	8	69	Cue	MissedWin	True
652.673	3.95	Win2	0.6714	0.0	No	3.227	0.0	n/a	NoResponse	0	n/a	n/a	8	69	Fixation	MissedWin	True
656.619	0.2	Win2	0.6714	0.004	No	3.227	-0.004	4.0	NoResponse	0	0.324	655.943	8	69	Target	MissedWin	True
656.819	0.5	Win2	0.6714	n/a	No	3.227	n/a	n/a	NoResponse	0	n/a	n/a	8	69	Blank	MissedWin	True
656.943	0.3	Win2	0.6714	0.004	No	3.227	-0.004	4.0	NoResponse	0	0.324	n/a	8	69	ButtonPress	MissedWin	True
657.321	1.45	Win2	0.6714	n/a	No	3.227	n/a	5.0	NoResponse	0	0.018	656.339	8	69	Feedback	MissedWin	True
658.775	3.227	Win2	0.6714	n/a	No	3.227	n/a	n/a	NoResponse	0	0.0	n/a	8	69	ISIslide	MissedWin	True
662.018	0.25	Lose2	0.662	0.0	No	3.032	0.018	n/a	NoResponse	-1	n/a	n/a	7	70	Cue	Loss	False
662.269	4.05	Lose2	0.662	0.0	No	3.032	0.001	4.0	NoResponse	-1	2.245	663.514	7	70	Fixation	Loss	False
664.514	0.3	Lose2	0.662	0.0	No	3.032	0.001	4.0	NoResponse	-1	2.245	n/a	7	70	ButtonPress	Loss	False
666.314	0.19	Lose2	0.662	0.004	No	3.032	-0.004	4.0	NoResponse	-1	0.22	665.534	7	70	Target	Loss	False
666.515	0.51	Lose2	0.662	n/a	No	3.032	n/a	n/a	NoResponse	-1	n/a	n/a	7	70	Blank	Loss	False
666.534	0.3	Lose2	0.662	0.004	No	3.032	-0.004	4.0	NoResponse	-1	0.22	n/a	7	70	ButtonPress	Loss	False
667.016	1.45	Lose2	0.662	n/a	No	3.032	n/a	5.0	NoResponse	-1	0.031	666.047	7	70	Feedback	Loss	False
668.471	3.032	Lose2	0.662	n/a	No	3.032	n/a	n/a	NoResponse	-1	0.0	n/a	7	70	ISIslide	Loss	False
671.53	0.25	Win2	0.6528	0.0	No	2.72	0.03	n/a	NoResponse	0	n/a	n/a	7	71	Cue	MissedWin	False
671.781	4.05	Win2	0.6528	0.0	No	2.72	0.001	4.0	NoResponse	0	3.557	674.338	7	71	Fixation	MissedWin	False
675.338	0.3	Win2	0.6528	0.0	No	2.72	0.001	4.0	NoResponse	0	3.557	n/a	7	71	ButtonPress	MissedWin	False
675.826	0.19	Win2	0.6528	0.004	No	2.72	-0.004	4.0	NoResponse	0	0.216	675.042	7	71	Target	MissedWin	False
676.027	0.51	Win2	0.6528	n/a	No	2.72	n/a	n/a	NoResponse	0	n/a	n/a	7	71	Blank	MissedWin	False
676.042	0.3	Win2	0.6528	0.004	No	2.72	-0.004	4.0	NoResponse	0	0.216	n/a	7	71	ButtonPress	MissedWin	False
676.528	1.45	Win2	0.6528	n/a	No	2.72	n/a	5.0	NoResponse	0	0.031	675.559	7	71	Feedback	MissedWin	False
677.983	2.72	Win2	0.6528	n/a	No	2.72	n/a	n/a	NoResponse	0	0.0	n/a	7	71	ISIslide	MissedWin	False
680.724	0.25	Win2	0.6437999999999999	0.0	No	2.776	0.024	n/a	NoResponse	0	n/a	n/a	7	72	Cue	MissedWin	True
680.975	4.1	Win2	0.6437999999999999	0.0	No	2.776	0.001	n/a	NoResponse	0	n/a	n/a	7	72	Fixation	MissedWin	True
685.07	0.2	Win2	0.6437999999999999	0.004	No	2.776	-0.004	4.0	NoResponse	0	0.235	684.305	7	72	Target	MissedWin	True
685.271	0.5	Win2	0.6437999999999999	n/a	No	2.776	n/a	n/a	NoResponse	0	n/a	n/a	7	72	Blank	MissedWin	True
685.305	0.3	Win2	0.6437999999999999	0.004	No	2.776	-0.004	4.0	NoResponse	0	0.235	n/a	7	72	ButtonPress	MissedWin	True
685.772	1.45	Win2	0.6437999999999999	n/a	No	2.776	n/a	5.0	NoResponse	0	0.007	684.779	7	72	Feedback	MissedWin	True
687.227	2.776	Win2	0.6437999999999999	n/a	No	2.776	n/a	n/a	NoResponse	0	0.0	n/a	7	72	ISIslide	MissedWin	True
690.019	0.25	Win2	0.6351	0.0	No	2.681	0.019	n/a	NoResponse	0	n/a	n/a	7	73	Cue	MissedWin	True
690.269	4.0	Win2	0.6351	0.0	No	2.681	0.0	n/a	NoResponse	0	n/a	n/a	7	73	Fixation	MissedWin	True
694.265	0.21	Win2	0.6351	0.004	No	2.681	-0.004	4.0	NoResponse	0	0.238	693.503	7	73	Target	MissedWin	True
694.482	0.49	Win2	0.6351	n/a	No	2.681	n/a	n/a	NoResponse	0	n/a	n/a	7	73	Blank	MissedWin	True
694.503	0.3	Win2	0.6351	0.004	No	2.681	-0.004	4.0	NoResponse	0	0.238	n/a	7	73	ButtonPress	MissedWin	True
694.967	1.45	Win2	0.6351	n/a	No	2.681	n/a	5.0	NoResponse	0	0.031	693.998	7	73	Feedback	MissedWin	True
696.421	2.681	Win2	0.6351	n/a	No	2.681	n/a	n/a	NoResponse	0	0.0	n/a	7	73	ISIslide	MissedWin	True
699.129	0.25	Lose2	0.6267	0.0	No	2.621	0.029	n/a	LatePress	-1	n/a	n/a	6	74	Cue	Loss	True
699.38	4.05	Lose2	0.6267	0.0	No	2.621	0.001	n/a	LatePress	-1	n/a	n/a	6	74	Fixation	Loss	True
703.425	0.22	Lose2	0.6267	0.004	No	2.621	-0.004	4.0	LatePress	-1	0.225	702.65	6	74	Target	Loss	True
703.65	0.3	Lose2	0.6267	0.004	No	2.621	-0.004	4.0	LatePress	-1	0.225	n/a	6	74	ButtonPress	Loss	True
703.659	0.48	Lose2	0.6267	n/a	No	2.621	n/a	n/a	LatePress	-1	n/a	n/a	6	74	Blank	Loss	True
704.127	1.45	Lose2	0.6267	n/a	No	2.621	n/a	5.0	LatePress	-1	0.041	703.168	6	74	Feedback	Loss	True
705.582	2.621	Lose2	0.6267	n/a	No	2.621	n/a	n/a	LatePress	-1	0.0	n/a	6	74	ISIslide	Loss	True
708.223	0.25	Lose2	0.6184000000000001	0.0	No	2.927	0.023	n/a	NoResponse	-1	n/a	n/a	5	75	Cue	Loss	True
708.474	3.95	Lose2	0.6184000000000001	0.0	No	2.927	0.001	n/a	NoResponse	-1	n/a	n/a	5	75	Fixation	Loss	True
712.419	0.23	Lose2	0.6184000000000001	0.004	No	2.927	-0.004	4.0	NoResponse	-1	0.257	711.676	5	75	Target	Loss	True
712.653	0.47	Lose2	0.6184000000000001	n/a	No	2.927	n/a	n/a	NoResponse	-1	n/a	n/a	5	75	Blank	Loss	True
712.676	0.3	Lose2	0.6184000000000001	0.004	No	2.927	-0.004	4.0	NoResponse	-1	0.257	n/a	5	75	ButtonPress	Loss	True
713.121	1.45	Lose2	0.6184000000000001	n/a	No	2.927	n/a	5.0	NoResponse	-1	0.023	712.144	5	75	Feedback	Loss	True
714.575	2.927	Lose2	0.6184000000000001	n/a	No	2.927	n/a	n/a	NoResponse	-1	0.0	n/a	5	75	ISIslide	Loss	True
717.518	0.25	Control	0.6103999999999999	0.0	No	3.232	0.018	n/a	NoResponse	0	n/a	n/a	5	76	Cue	Neutral	True
717.768	4.05	Control	0.6103999999999999	0.0	No	3.232	0.0	n/a	NoResponse	0	n/a	n/a	5	76	Fixation	Neutral	True
721.814	0.24	Control	0.6103999999999999	0.004	No	3.232	-0.004	4.0	NoResponse	0	0.257	721.071	5	76	Target	Neutral	True
722.064	0.46	Control	0.6103999999999999	n/a	No	3.232	n/a	n/a	NoResponse	0	n/a	n/a	5	76	Blank	Neutral	True
722.071	0.3	Control	0.6103999999999999	0.004	No	3.232	-0.004	4.0	NoResponse	0	0.257	n/a	5	76	ButtonPress	Neutral	True
722.516	1.45	Control	0.6103999999999999	n/a	No	3.232	n/a	5.0	NoResponse	0	0.043	721.559	5	76	Feedback	Neutral	True
723.97	3.232	Control	0.6103999999999999	n/a	No	3.232	n/a	n/a	NoResponse	0	0.0	n/a	5	76	ISIslide	Neutral	True
727.23	0.25	Lose2	0.6026	0.0	No	2.57	0.03	n/a	NoResponse	-1	n/a	n/a	4	77	Cue	Loss	True
727.481	3.95	Lose2	0.6026	0.0	No	2.57	0.001	n/a	NoResponse	-1	n/a	n/a	4	77	Fixation	Loss	True
731.426	0.25	Lose2	0.6026	0.004	No	2.57	-0.004	4.0	NoResponse	-1	0.279	730.705	4	77	Target	Loss	True
731.677	0.45	Lose2	0.6026	n/a	No	2.57	n/a	n/a	NoResponse	-1	n/a	n/a	4	77	Blank	Loss	True
731.705	0.3	Lose2	0.6026	0.004	No	2.57	-0.004	4.0	NoResponse	-1	0.279	n/a	4	77	ButtonPress	Loss	True
732.128	1.45	Lose2	0.6026	n/a	No	2.57	n/a	5.0	NoResponse	-1	0.04	731.168	4	77	Feedback	Loss	True
733.582	2.57	Lose2	0.6026	n/a	No	2.57	n/a	n/a	NoResponse	-1	0.0	n/a	4	77	ISIslide	Loss	True
