onset	duration	cue_type	current_mean_accuracy	duration_error	is_hit	isi_adjusted	onset_delay	response	response_type	reward	rt	rt_time	total_reward	trial_number	trial_phase	trial_type	one_press
11.105	0.25	Control	1.0	0.0	Yes	2.945	0.005	n/a	GoodResponse	0	n/a	n/a	0	0	Cue	Neutral	True
11.356	3.85	Control	1.0	0.0	Yes	2.945	0.001	n/a	GoodResponse	0	n/a	n/a	0	0	Fixation	Neutral	True
15.217	0.4	Control	1.0	0.0	Yes	2.945	0.012	2.0	GoodResponse	0	0.27	14.487	0	0	Target	Neutral	True
15.487	0.3	Control	1.0	0.0	Yes	2.945	0.012	2.0	GoodResponse	0	0.27	n/a	0	0	ButtonPress	Neutral	True
15.602	0.3	Control	1.0	n/a	Yes	2.945	n/a	n/a	GoodResponse	0	n/a	n/a	0	0	Blank	Neutral	True
15.902	1.45	Control	1.0	n/a	Yes	2.945	n/a	5.0	GoodResponse	0	0.025	14.927	0	0	Feedback	Neutral	True
17.357	2.945	Control	1.0	n/a	Yes	2.945	n/a	n/a	GoodResponse	0	0.0	n/a	0	0	ISIslide	Neutral	True
20.332	0.25	Lose2	1.0	0.0	Yes	2.768	0.032	n/a	GoodResponse	0	n/a	n/a	0	1	Cue	AvoidedLoss	True
20.583	4.0	Lose2	1.0	0.0	Yes	2.768	0.001	n/a	GoodResponse	0	n/a	n/a	0	1	Fixation	AvoidedLoss	True
24.578	0.39	Lose2	1.0	0.004	Yes	2.768	-0.004	2.0	GoodResponse	0	0.253	23.831	0	1	Target	AvoidedLoss	True
24.831	0.3	Lose2	1.0	0.004	Yes	2.768	-0.004	2.0	GoodResponse	0	0.253	n/a	0	1	ButtonPress	AvoidedLoss	True
24.98	0.31	Lose2	1.0	n/a	Yes	2.768	n/a	n/a	GoodResponse	0	n/a	n/a	0	1	Blank	AvoidedLoss	True
25.28	1.45	Lose2	1.0	n/a	Yes	2.768	n/a	5.0	GoodResponse	0	0.012	24.292	0	1	Feedback	AvoidedLoss	True
26.735	2.768	Lose2	1.0	n/a	Yes	2.768	n/a	n/a	GoodResponse	0	0.0	n/a	0	1	ISIslide	AvoidedLoss	True
29.526	0.25	Control	1.0	0.001	Yes	2.574	0.026	n/a	GoodResponse	0	n/a	n/a	0	2	Cue	Neutral	True
29.777	4.1	Control	1.0	0.0	Yes	2.574	0.001	n/a	GoodResponse	0	n/a	n/a	0	2	Fixation	Neutral	True
33.873	0.38	Control	1.0	0.003	Yes	2.574	-0.003	2.0	GoodResponse	0	0.233	33.106	0	2	Target	Neutral	True
34.106	0.3	Control	1.0	0.003	Yes	2.574	-0.003	2.0	GoodResponse	0	0.233	n/a	0	2	ButtonPress	Neutral	True
34.257	0.32	Control	1.0	n/a	Yes	2.574	n/a	n/a	GoodResponse	0	n/a	n/a	0	2	Blank	Neutral	True
34.575	1.45	Control	1.0	n/a	Yes	2.574	n/a	5.0	GoodResponse	0	0.034	33.609	0	2	Feedback	Neutral	True
36.029	2.574	Control	1.0	n/a	Yes	2.574	n/a	n/a	GoodResponse	0	0.0	n/a	0	2	ISIslide	Neutral	True
38.62	0.25	Win2	1.0	0.0	Yes	2.83	0.02	n/a	GoodResponse	1	n/a	n/a	1	3	Cue	Win	True
38.871	3.95	Win2	1.0	0.0	Yes	2.83	0.001	n/a	GoodResponse	1	n/a	n/a	1	3	Fixation	Win	True
42.816	0.37	Win2	1.0	0.004	Yes	2.83	-0.004	2.0	GoodResponse	1	0.241	42.057	1	3	Target	Win	True
43.057	0.3	Win2	1.0	0.004	Yes	2.83	-0.004	2.0	GoodResponse	1	0.241	n/a	1	3	ButtonPress	Win	True
43.201	0.33	Win2	1.0	n/a	Yes	2.83	n/a	n/a	GoodResponse	1	n/a	n/a	1	3	Blank	Win	True
43.518	1.45	Win2	1.0	n/a	Yes	2.83	n/a	5.0	GoodResponse	1	0.018	42.536	1	3	Feedback	Win	True
44.973	2.83	Win2	1.0	n/a	Yes	2.83	n/a	n/a	GoodResponse	1	0.0	n/a	1	3	ISIslide	Win	True
47.831	0.25	Win2	1.0	0.0	Yes	3.269	0.031	n/a	GoodResponse	1	n/a	n/a	2	4	Cue	Win	True
48.082	4.0	Win2	1.0	0.0	Yes	3.269	0.001	n/a	GoodResponse	1	n/a	n/a	2	4	Fixation	Win	True
52.077	0.36	Win2	1.0	0.004	Yes	3.269	-0.004	2.0	GoodResponse	1	0.248	51.325	2	4	Target	Win	True
52.325	0.3	Win2	1.0	0.004	Yes	3.269	-0.004	2.0	GoodResponse	1	0.248	n/a	2	4	ButtonPress	Win	True
52.445	0.34	Win2	1.0	n/a	Yes	3.269	n/a	n/a	GoodResponse	1	n/a	n/a	2	4	Blank	Win	True
52.779	1.45	Win2	1.0	n/a	Yes	3.269	n/a	5.0	GoodResponse	1	0.025	51.804	2	4	Feedback	Win	True
54.234	3.269	Win2	1.0	n/a	Yes	3.269	n/a	n/a	GoodResponse	1	0.0	n/a	2	4	ISIslide	Win	True
57.527	0.25	Win2	1.0	0.0	Yes	2.773	0.027	n/a	GoodResponse	1	n/a	n/a	3	5	Cue	Win	True
57.778	4.0	Win2	1.0	0.0	Yes	2.773	0.001	n/a	GoodResponse	1	n/a	n/a	3	5	Fixation	Win	True
61.773	0.35	Win2	1.0	0.004	Yes	2.773	-0.004	2.0	GoodResponse	1	0.275	61.048	3	5	Target	Win	True
62.048	0.3	Win2	1.0	0.004	Yes	2.773	-0.004	2.0	GoodResponse	1	0.275	n/a	3	5	ButtonPress	Win	True
62.124	0.35	Win2	1.0	n/a	Yes	2.773	n/a	n/a	GoodResponse	1	n/a	n/a	3	5	Blank	Win	True
62.475	1.45	Win2	1.0	n/a	Yes	2.773	n/a	5.0	GoodResponse	1	0.036	61.511	3	5	Feedback	Win	True
63.929	2.773	Win2	1.0	n/a	Yes	2.773	n/a	n/a	GoodResponse	1	0.0	n/a	3	5	ISIslide	Win	True
66.721	0.25	Lose2	1.0	0.0	Yes	2.729	0.021	n/a	GoodResponse	0	n/a	n/a	3	6	Cue	AvoidedLoss	True
66.972	3.95	Lose2	1.0	0.0	Yes	2.729	0.001	n/a	GoodResponse	0	n/a	n/a	3	6	Fixation	AvoidedLoss	True
70.917	0.34	Lose2	1.0	0.004	Yes	2.729	-0.004	2.0	GoodResponse	0	0.233	70.15	3	6	Target	AvoidedLoss	True
71.15	0.3	Lose2	1.0	0.004	Yes	2.729	-0.004	2.0	GoodResponse	0	0.233	n/a	3	6	ButtonPress	AvoidedLoss	True
71.268	0.36	Lose2	1.0	n/a	Yes	2.729	n/a	n/a	GoodResponse	0	n/a	n/a	3	6	Blank	AvoidedLoss	True
71.619	1.45	Lose2	1.0	n/a	Yes	2.729	n/a	5.0	GoodResponse	0	0.014	70.633	3	6	Feedback	AvoidedLoss	True
73.073	2.729	Lose2	1.0	n/a	Yes	2.729	n/a	n/a	GoodResponse	0	0.0	n/a	3	6	ISIslide	AvoidedLoss	True
75.815	0.25	Lose2	1.0	0.0	Yes	4.035	0.015	n/a	GoodResponse	0	n/a	n/a	3	7	Cue	AvoidedLoss	True
76.065	4.05	Lose2	1.0	0.001	Yes	4.035	0.0	n/a	GoodResponse	0	n/a	n/a	3	7	Fixation	AvoidedLoss	True
80.111	0.33	Lose2	1.0	0.004	Yes	4.035	-0.004	2.0	GoodResponse	0	0.328	79.439	3	7	Target	AvoidedLoss	True
80.439	0.3	Lose2	1.0	0.004	Yes	4.035	-0.004	2.0	GoodResponse	0	0.328	n/a	3	7	ButtonPress	AvoidedLoss	True
80.445	0.37	Lose2	1.0	n/a	Yes	4.035	n/a	n/a	GoodResponse	0	n/a	n/a	3	7	Blank	AvoidedLoss	True
80.813	1.45	Lose2	1.0	n/a	Yes	4.035	n/a	5.0	GoodResponse	0	0.039	79.852	3	7	Feedback	AvoidedLoss	True
82.267	4.035	Lose2	1.0	n/a	Yes	4.035	n/a	n/a	GoodResponse	0	0.0	n/a	3	7	ISIslide	AvoidedLoss	True
86.329	0.25	Lose2	1.0	0.001	Yes	3.021	0.029	n/a	GoodResponse	0	n/a	n/a	3	8	Cue	AvoidedLoss	True
86.58	3.95	Lose2	1.0	0.0	Yes	3.021	0.001	n/a	GoodResponse	0	n/a	n/a	3	8	Fixation	AvoidedLoss	True
90.525	0.32	Lose2	1.0	0.004	Yes	3.021	-0.004	2.0	GoodResponse	0	0.276	89.801	3	8	Target	AvoidedLoss	True
90.801	0.3	Lose2	1.0	0.004	Yes	3.021	-0.004	2.0	GoodResponse	0	0.276	n/a	3	8	ButtonPress	AvoidedLoss	True
90.86	0.38	Lose2	1.0	n/a	Yes	3.021	n/a	n/a	GoodResponse	0	n/a	n/a	3	8	Blank	AvoidedLoss	True
91.227	1.45	Lose2	1.0	n/a	Yes	3.021	n/a	5.0	GoodResponse	0	0.016	90.243	3	8	Feedback	AvoidedLoss	True
92.682	3.021	Lose2	1.0	n/a	Yes	3.021	n/a	n/a	GoodResponse	0	0.0	n/a	3	8	ISIslide	AvoidedLoss	True
95.724	0.25	Lose2	1.0	0.0	Yes	3.126	0.024	n/a	GoodResponse	0	n/a	n/a	3	9	Cue	AvoidedLoss	True
95.975	3.95	Lose2	1.0	0.0	Yes	3.126	0.001	n/a	GoodResponse	0	n/a	n/a	3	9	Fixation	AvoidedLoss	True
99.92	0.31	Lose2	1.0	0.004	Yes	3.126	-0.004	2.0	GoodResponse	0	0.279	99.199	3	9	Target	AvoidedLoss	True
100.199	0.3	Lose2	1.0	0.004	Yes	3.126	-0.004	2.0	GoodResponse	0	0.279	n/a	3	9	ButtonPress	AvoidedLoss	True
100.238	0.39	Lose2	1.0	n/a	Yes	3.126	n/a	n/a	GoodResponse	0	n/a	n/a	3	9	Blank	AvoidedLoss	True
100.622	1.45	Lose2	1.0	n/a	Yes	3.126	n/a	5.0	GoodResponse	0	0.034	99.656	3	9	Feedback	AvoidedLoss	True
102.076	3.126	Lose2	1.0	n/a	Yes	3.126	n/a	n/a	GoodResponse	0	0.0	n/a	3	9	ISIslide	AvoidedLoss	True
105.219	0.25	Control	1.0	0.0	Yes	3.281	0.019	n/a	GoodResponse	0	n/a	n/a	3	10	Cue	Neutral	True
105.47	4.0	Control	1.0	0.0	Yes	3.281	0.001	n/a	GoodResponse	0	n/a	n/a	3	10	Fixation	Neutral	True
109.465	0.3	Control	1.0	0.004	Yes	3.281	-0.004	2.0	GoodResponse	0	0.189	108.654	3	10	Target	Neutral	True
109.654	0.3	Control	1.0	0.004	Yes	3.281	-0.004	2.0	GoodResponse	0	0.189	n/a	3	10	ButtonPress	Neutral	True
109.766	0.4	Control	1.0	n/a	Yes	3.281	n/a	n/a	GoodResponse	0	n/a	n/a	3	10	Blank	Neutral	True
110.167	1.45	Control	1.0	n/a	Yes	3.281	n/a	5.0	GoodResponse	0	0.002	109.169	3	10	Feedback	Neutral	True
111.622	3.281	Control	1.0	n/a	Yes	3.281	n/a	n/a	GoodResponse	0	0.0	n/a	3	10	ISIslide	Neutral	True
114.915	0.25	Lose2	1.0	0.0	Yes	2.735	0.015	n/a	GoodResponse	0	n/a	n/a	3	11	Cue	AvoidedLoss	True
115.166	4.05	Lose2	1.0	0.0	Yes	2.735	0.001	n/a	GoodResponse	0	n/a	n/a	3	11	Fixation	AvoidedLoss	True
119.211	0.29	Lose2	1.0	0.004	Yes	2.735	-0.004	2.0	GoodResponse	0	0.218	118.429	3	11	Target	AvoidedLoss	True
119.429	0.3	Lose2	1.0	0.004	Yes	2.735	-0.004	2.0	GoodResponse	0	0.218	n/a	3	11	ButtonPress	AvoidedLoss	True
119.512	0.41	Lose2	1.0	n/a	Yes	2.735	n/a	n/a	GoodResponse	0	n/a	n/a	3	11	Blank	AvoidedLoss	True
119.913	1.45	Lose2	1.0	n/a	Yes	2.735	n/a	5.0	GoodResponse	0	0.012	118.925	3	11	Feedback	AvoidedLoss	True
121.367	2.735	Lose2	1.0	n/a	Yes	2.735	n/a	n/a	GoodResponse	0	0.0	n/a	3	11	ISIslide	AvoidedLoss	True
124.126	0.25	Control	0.9231	0.0	No	2.974	0.026	n/a	NoResponse	0	n/a	n/a	3	12	Cue	Neutral	True
124.376	3.9	Control	0.9231	0.0	No	2.974	0.0	n/a	NoResponse	0	n/a	n/a	3	12	Fixation	Neutral	True
128.288	0.28	Control	0.9231	0.0	No	2.974	0.012	2.0	NoResponse	0	0.269	127.557	3	12	Target	Neutral	True
128.556	0.42	Control	0.9231	n/a	No	2.974	n/a	n/a	NoResponse	0	n/a	n/a	3	12	Blank	Neutral	True
128.557	0.3	Control	0.9231	0.0	No	2.974	0.012	2.0	NoResponse	0	0.269	n/a	3	12	ButtonPress	Neutral	True
128.973	1.45	Control	0.9231	n/a	No	2.974	n/a	5.0	NoResponse	0	0.025	127.998	3	12	Feedback	Neutral	True
130.428	2.974	Control	0.9231	n/a	No	2.974	n/a	n/a	NoResponse	0	0.0	n/a	3	12	ISIslide	Neutral	True
133.42	0.25	Control	0.8571	0.0	No	2.78	0.02	n/a	NoResponse	0	n/a	n/a	3	13	Cue	Neutral	True
133.671	4.0	Control	0.8571	0.0	No	2.78	0.001	n/a	NoResponse	0	n/a	n/a	3	13	Fixation	Neutral	True
137.666	0.27	Control	0.8571	0.004	No	2.78	-0.004	2.0	NoResponse	0	0.293	136.959	3	13	Target	Neutral	True
137.95	0.43	Control	0.8571	n/a	No	2.78	n/a	n/a	NoResponse	0	n/a	n/a	3	13	Blank	Neutral	True
137.959	0.3	Control	0.8571	0.004	No	2.78	-0.004	2.0	NoResponse	0	0.293	n/a	3	13	ButtonPress	Neutral	True
138.368	1.45	Control	0.8571	n/a	No	2.78	n/a	5.0	NoResponse	0	0.044	137.412	3	13	Feedback	Neutral	True
139.823	2.78	Control	0.8571	n/a	No	2.78	n/a	n/a	NoResponse	0	0.0	n/a	3	13	ISIslide	Neutral	True
142.631	0.25	Win2	0.8667	0.0	Yes	2.669	0.031	n/a	GoodResponse	1	n/a	n/a	4	14	Cue	Win	True
142.882	4.1	Win2	0.8667	0.0	Yes	2.669	0.001	n/a	GoodResponse	1	n/a	n/a	4	14	Fixation	Win	True
146.977	0.26	Win2	0.8667	0.004	Yes	2.669	-0.004	2.0	GoodResponse	1	0.2	146.177	4	14	Target	Win	True
147.177	0.3	Win2	0.8667	0.004	Yes	2.669	-0.004	2.0	GoodResponse	1	0.2	n/a	4	14	ButtonPress	Win	True
147.245	0.44	Win2	0.8667	n/a	Yes	2.669	n/a	n/a	GoodResponse	1	n/a	n/a	4	14	Blank	Win	True
147.679	1.45	Win2	0.8667	n/a	Yes	2.669	n/a	5.0	GoodResponse	1	0.001	146.68	4	14	Feedback	Win	True
149.134	2.669	Win2	0.8667	n/a	Yes	2.669	n/a	n/a	GoodResponse	1	0.0	n/a	4	14	ISIslide	Win	True
151.825	0.25	Control	0.8125	0.0	No	2.975	0.025	n/a	NoResponse	0	n/a	n/a	4	15	Cue	Neutral	True
152.076	4.0	Control	0.8125	0.0	No	2.975	0.001	n/a	NoResponse	0	n/a	n/a	4	15	Fixation	Neutral	True
156.071	0.25	Control	0.8125	0.004	No	2.975	-0.004	2.0	NoResponse	0	0.282	155.353	4	15	Target	Neutral	True
156.322	0.45	Control	0.8125	n/a	No	2.975	n/a	n/a	NoResponse	0	n/a	n/a	4	15	Blank	Neutral	True
156.353	0.3	Control	0.8125	0.004	No	2.975	-0.004	2.0	NoResponse	0	0.282	n/a	4	15	ButtonPress	Neutral	True
156.773	1.45	Control	0.8125	n/a	No	2.975	n/a	5.0	NoResponse	0	0.029	155.802	4	15	Feedback	Neutral	True
158.228	2.975	Control	0.8125	n/a	No	2.975	n/a	n/a	NoResponse	0	0.0	n/a	4	15	ISIslide	Neutral	True
161.22	0.25	Win2	0.8234999999999999	0.0	Yes	2.88	0.02	n/a	GoodResponse	1	n/a	n/a	5	16	Cue	Win	True
161.471	4.0	Win2	0.8234999999999999	0.0	Yes	2.88	0.001	n/a	GoodResponse	1	n/a	n/a	5	16	Fixation	Win	True
165.466	0.24	Win2	0.8234999999999999	0.004	Yes	2.88	-0.004	2.0	GoodResponse	1	0.233	164.699	5	16	Target	Win	True
165.699	0.3	Win2	0.8234999999999999	0.004	Yes	2.88	-0.004	2.0	GoodResponse	1	0.233	n/a	5	16	ButtonPress	Win	True
165.717	0.46	Win2	0.8234999999999999	n/a	Yes	2.88	n/a	n/a	GoodResponse	1	n/a	n/a	5	16	Blank	Win	True
166.168	1.45	Win2	0.8234999999999999	n/a	Yes	2.88	n/a	5.0	GoodResponse	1	0.049	165.217	5	16	Feedback	Win	True
167.622	2.88	Win2	0.8234999999999999	n/a	Yes	2.88	n/a	n/a	GoodResponse	1	0.0	n/a	5	16	ISIslide	Win	True
170.531	0.25	Lose2	0.8332999999999999	0.0	Yes	2.719	0.031	n/a	GoodResponse	0	n/a	n/a	5	17	Cue	AvoidedLoss	True
170.782	3.95	Lose2	0.8332999999999999	0.0	Yes	2.719	0.001	n/a	GoodResponse	0	n/a	n/a	5	17	Fixation	AvoidedLoss	True
174.727	0.23	Lose2	0.8332999999999999	0.004	Yes	2.719	-0.004	2.0	GoodResponse	0	0.219	173.946	5	17	Target	AvoidedLoss	True
174.946	0.3	Lose2	0.8332999999999999	0.004	Yes	2.719	-0.004	2.0	GoodResponse	0	0.219	n/a	5	17	ButtonPress	AvoidedLoss	True
174.961	0.47	Lose2	0.8332999999999999	n/a	Yes	2.719	n/a	n/a	GoodResponse	0	n/a	n/a	5	17	Blank	AvoidedLoss	True
175.429	1.45	Lose2	0.8332999999999999	n/a	Yes	2.719	n/a	5.0	GoodResponse	0	0.008	174.437	5	17	Feedback	AvoidedLoss	True
176.883	2.719	Lose2	0.8332999999999999	n/a	Yes	2.719	n/a	n/a	GoodResponse	0	0.0	n/a	5	17	ISIslide	AvoidedLoss	True
179.625	0.25	Lose2	0.7895	0.0	No	2.725	0.025	n/a	NoResponse	-1	n/a	n/a	4	18	Cue	Loss	True
179.875	4.05	Lose2	0.7895	0.001	No	2.725	0.0	n/a	NoResponse	-1	n/a	n/a	4	18	Fixation	Loss	True
183.921	0.22	Lose2	0.7895	0.004	No	2.725	-0.004	2.0	NoResponse	-1	0.252	183.173	4	18	Target	Loss	True
184.155	0.48	Lose2	0.7895	n/a	No	2.725	n/a	n/a	NoResponse	-1	n/a	n/a	4	18	Blank	Loss	True
184.173	0.3	Lose2	0.7895	0.004	No	2.725	-0.004	2.0	NoResponse	-1	0.252	n/a	4	18	ButtonPress	Loss	True
184.623	1.45	Lose2	0.7895	n/a	No	2.725	n/a	5.0	NoResponse	-1	0.032	183.655	4	18	Feedback	Loss	True
186.077	2.725	Lose2	0.7895	n/a	No	2.725	n/a	n/a	NoResponse	-1	0.0	n/a	4	18	ISIslide	Loss	True
188.819	0.25	Control	0.75	0.0	No	2.931	0.019	n/a	LatePress	0	n/a	n/a	4	19	Cue	Neutral	True
189.07	3.95	Control	0.75	0.0	No	2.931	0.001	n/a	LatePress	0	n/a	n/a	4	19	Fixation	Neutral	True
193.015	0.21	Control	0.75	0.004	No	2.931	-0.004	2.0	LatePress	0	0.21	192.225	4	19	Target	Neutral	True
193.225	0.3	Control	0.75	0.004	No	2.931	-0.004	2.0	LatePress	0	0.21	n/a	4	19	ButtonPress	Neutral	True
193.232	0.49	Control	0.75	n/a	No	2.931	n/a	n/a	LatePress	0	n/a	n/a	4	19	Blank	Neutral	True
193.717	1.45	Control	0.75	n/a	No	2.931	n/a	5.0	LatePress	0	0.012	192.729	4	19	Feedback	Neutral	True
195.171	2.931	Control	0.75	n/a	No	2.931	n/a	n/a	LatePress	0	0.0	n/a	4	19	ISIslide	Neutral	True
198.13	0.25	Control	0.7143	0.0	No	2.62	0.03	n/a	NoResponse	0	n/a	n/a	4	20	Cue	Neutral	True
198.381	4.05	Control	0.7143	0.0	No	2.62	0.001	n/a	NoResponse	0	n/a	n/a	4	20	Fixation	Neutral	True
202.426	0.2	Control	0.7143	0.004	No	2.62	-0.004	2.0	NoResponse	0	0.223	201.649	4	20	Target	Neutral	True
202.627	0.5	Control	0.7143	n/a	No	2.62	n/a	n/a	NoResponse	0	n/a	n/a	4	20	Blank	Neutral	True
202.649	0.3	Control	0.7143	0.004	No	2.62	-0.004	2.0	NoResponse	0	0.223	n/a	4	20	ButtonPress	Neutral	True
203.128	1.45	Control	0.7143	n/a	No	2.62	n/a	5.0	NoResponse	0	0.015	202.143	4	20	Feedback	Neutral	True
204.583	2.62	Control	0.7143	n/a	No	2.62	n/a	n/a	NoResponse	0	0.0	n/a	4	20	ISIslide	Neutral	True
207.224	0.25	Control	0.6818000000000001	0.0	No	2.776	0.024	n/a	LatePress	0	n/a	n/a	4	21	Cue	Neutral	True
207.475	4.1	Control	0.6818000000000001	0.0	No	2.776	0.001	n/a	LatePress	0	n/a	n/a	4	21	Fixation	Neutral	True
211.57	0.19	Control	0.6818000000000001	0.004	No	2.776	-0.004	2.0	LatePress	0	0.195	210.765	4	21	Target	Neutral	True
211.765	0.3	Control	0.6818000000000001	0.004	No	2.776	-0.004	2.0	LatePress	0	0.195	n/a	4	21	ButtonPress	Neutral	True
211.771	0.51	Control	0.6818000000000001	n/a	No	2.776	n/a	n/a	LatePress	0	n/a	n/a	4	21	Blank	Neutral	True
212.272	1.45	Control	0.6818000000000001	n/a	No	2.776	n/a	5.0	LatePress	0	0.041	211.313	4	21	Feedback	Neutral	True
213.727	2.776	Control	0.6818000000000001	n/a	No	2.776	n/a	n/a	LatePress	0	0.0	n/a	4	21	ISIslide	Neutral	True
216.518	0.25	Control	0.6522	0.0	No	2.782	0.018	n/a	NoResponse	0	n/a	n/a	4	22	Cue	Neutral	True
216.769	4.0	Control	0.6522	0.0	No	2.782	0.001	n/a	NoResponse	0	n/a	n/a	4	22	Fixation	Neutral	True
220.764	0.18	Control	0.6522	0.004	No	2.782	-0.004	2.0	NoResponse	0	0.231	219.995	4	22	Target	Neutral	True
220.948	0.52	Control	0.6522	n/a	No	2.782	n/a	n/a	NoResponse	0	n/a	n/a	4	22	Blank	Neutral	True
220.995	0.3	Control	0.6522	0.004	No	2.782	-0.004	2.0	NoResponse	0	0.231	n/a	4	22	ButtonPress	Neutral	True
221.466	1.45	Control	0.6522	n/a	No	2.782	n/a	5.0	NoResponse	0	0.018	220.484	4	22	Feedback	Neutral	True
222.921	2.782	Control	0.6522	n/a	No	2.782	n/a	n/a	NoResponse	0	0.0	n/a	4	22	ISIslide	Neutral	True
225.729	0.25	Control	0.625	0.0	No	2.771	0.029	n/a	NoResponse	0	n/a	n/a	4	23	Cue	Neutral	True
225.98	3.9	Control	0.625	0.0	No	2.771	0.001	n/a	NoResponse	0	n/a	n/a	4	23	Fixation	Neutral	True
229.875	0.19	Control	0.625	0.004	No	2.771	-0.004	2.0	NoResponse	0	0.284	229.159	4	23	Target	Neutral	True
230.075	0.51	Control	0.625	n/a	No	2.771	n/a	n/a	NoResponse	0	n/a	n/a	4	23	Blank	Neutral	True
230.159	0.3	Control	0.625	0.004	No	2.771	-0.004	2.0	NoResponse	0	0.284	n/a	4	23	ButtonPress	Neutral	True
230.577	1.45	Control	0.625	n/a	No	2.771	n/a	5.0	NoResponse	0	0.029	229.606	4	23	Feedback	Neutral	True
232.031	2.771	Control	0.625	n/a	No	2.771	n/a	n/a	NoResponse	0	0.0	n/a	4	23	ISIslide	Neutral	True
234.823	0.25	Win2	0.6	0.0	No	3.127	0.023	n/a	NoResponse	0	n/a	n/a	4	24	Cue	MissedWin	True
235.074	3.95	Win2	0.6	0.0	No	3.127	0.001	n/a	NoResponse	0	n/a	n/a	4	24	Fixation	MissedWin	True
239.019	0.2	Win2	0.6	0.004	No	3.127	-0.004	2.0	NoResponse	0	0.238	238.257	4	24	Target	MissedWin	True
239.219	0.5	Win2	0.6	n/a	No	3.127	n/a	n/a	NoResponse	0	n/a	n/a	4	24	Blank	MissedWin	True
239.257	0.3	Win2	0.6	0.004	No	3.127	-0.004	2.0	NoResponse	0	0.238	n/a	4	24	ButtonPress	MissedWin	True
239.721	1.45	Win2	0.6	n/a	No	3.127	n/a	5.0	NoResponse	0	0.008	238.729	4	24	Feedback	MissedWin	True
241.175	3.127	Win2	0.6	n/a	No	3.127	n/a	n/a	NoResponse	0	0.0	n/a	4	24	ISIslide	MissedWin	True
244.318	0.25	Win2	0.5769	0.0	No	3.082	0.018	n/a	NoResponse	0	n/a	n/a	4	25	Cue	MissedWin	False
244.569	4.0	Win2	0.5769	0.0	No	3.082	0.001	2.0	NoResponse	0	0.212	243.781	4	25	Fixation	MissedWin	False
244.781	0.3	Win2	0.5769	0.0	No	3.082	0.001	2.0	NoResponse	0	0.212	n/a	4	25	ButtonPress	MissedWin	False
248.564	0.21	Win2	0.5769	0.004	No	3.082	-0.004	2.0	NoResponse	0	0.244	247.808	4	25	Target	MissedWin	False
248.781	0.49	Win2	0.5769	n/a	No	3.082	n/a	n/a	NoResponse	0	n/a	n/a	4	25	Blank	MissedWin	False
248.808	0.3	Win2	0.5769	0.004	No	3.082	-0.004	2.0	NoResponse	0	0.244	n/a	4	25	ButtonPress	MissedWin	False
249.266	1.45	Win2	0.5769	n/a	No	3.082	n/a	5.0	NoResponse	0	0.022	248.288	4	25	Feedback	MissedWin	False
250.72	3.082	Win2	0.5769	n/a	No	3.082	n/a	n/a	NoResponse	0	0.0	n/a	4	25	ISIslide	MissedWin	False
253.83	0.25	Win2	0.5556	0.0	No	2.92	0.03	n/a	NoResponse	0	n/a	n/a	4	26	Cue	MissedWin	False
254.08	3.95	Win2	0.5556	0.001	No	2.92	0.0	2.0	NoResponse	0	0.246	253.326	4	26	Fixation	MissedWin	False
254.326	0.3	Win2	0.5556	0.001	No	2.92	0.0	2.0	NoResponse	0	0.246	n/a	4	26	ButtonPress	MissedWin	False
258.026	0.22	Win2	0.5556	0.004	No	2.92	-0.004	2.0	NoResponse	0	0.265	257.291	4	26	Target	MissedWin	False
258.26	0.48	Win2	0.5556	n/a	No	2.92	n/a	n/a	NoResponse	0	n/a	n/a	4	26	Blank	MissedWin	False
258.291	0.3	Win2	0.5556	0.004	No	2.92	-0.004	2.0	NoResponse	0	0.265	n/a	4	26	ButtonPress	MissedWin	False
258.728	1.45	Win2	0.5556	n/a	No	2.92	n/a	5.0	NoResponse	0	0.024	257.752	4	26	Feedback	MissedWin	False
260.182	2.92	Win2	0.5556	n/a	No	2.92	n/a	n/a	NoResponse	0	0.0	n/a	4	26	ISIslide	MissedWin	False
263.124	0.25	Lose2	0.5714	0.0	Yes	2.826	0.024	n/a	GoodResponse	0	n/a	n/a	4	27	Cue	AvoidedLoss	True
263.375	4.05	Lose2	0.5714	0.0	Yes	2.826	0.001	n/a	GoodResponse	0	n/a	n/a	4	27	Fixation	AvoidedLoss	True
267.42	0.23	Lose2	0.5714	0.004	Yes	2.826	-0.004	2.0	GoodResponse	0	0.196	266.616	4	27	Target	AvoidedLoss	True
267.616	0.3	Lose2	0.5714	0.004	Yes	2.826	-0.004	2.0	GoodResponse	0	0.196	n/a	4	27	ButtonPress	AvoidedLoss	True
267.654	0.47	Lose2	0.5714	n/a	Yes	2.826	n/a	n/a	GoodResponse	0	n/a	n/a	4	27	Blank	AvoidedLoss	True
268.122	1.45	Lose2	0.5714	n/a	Yes	2.826	n/a	5.0	GoodResponse	0	0.044	267.166	4	27	Feedback	AvoidedLoss	True
269.577	2.826	Lose2	0.5714	n/a	Yes	2.826	n/a	n/a	GoodResponse	0	0.0	n/a	4	27	ISIslide	AvoidedLoss	True
272.419	0.25	Control	0.5517	0.0	No	2.831	0.019	n/a	LatePress	0	n/a	n/a	4	28	Cue	Neutral	True
272.669	4.05	Control	0.5517	0.0	No	2.831	0.0	n/a	LatePress	0	n/a	n/a	4	28	Fixation	Neutral	True
276.715	0.24	Control	0.5517	0.004	No	2.831	-0.004	2.0	LatePress	0	0.245	275.96	4	28	Target	Neutral	True
276.96	0.3	Control	0.5517	0.004	No	2.831	-0.004	2.0	LatePress	0	0.245	n/a	4	28	ButtonPress	Neutral	True
276.965	0.46	Control	0.5517	n/a	No	2.831	n/a	n/a	LatePress	0	n/a	n/a	4	28	Blank	Neutral	True
277.417	1.45	Control	0.5517	n/a	No	2.831	n/a	5.0	LatePress	0	0.018	276.435	4	28	Feedback	Neutral	True
278.871	2.831	Control	0.5517	n/a	No	2.831	n/a	n/a	LatePress	0	0.0	n/a	4	28	ISIslide	Neutral	True
281.73	0.25	Lose2	0.5667	0.0	Yes	2.82	0.03	n/a	GoodResponse	0	n/a	n/a	4	29	Cue	AvoidedLoss	True
281.98	3.95	Lose2	0.5667	0.001	Yes	2.82	0.0	n/a	GoodResponse	0	n/a	n/a	4	29	Fixation	AvoidedLoss	True
285.926	0.25	Lose2	0.5667	0.004	Yes	2.82	-0.004	2.0	GoodResponse	0	0.178	285.104	4	29	Target	AvoidedLoss	True
286.104	0.3	Lose2	0.5667	0.004	Yes	2.82	-0.004	2.0	GoodResponse	0	0.178	n/a	4	29	ButtonPress	AvoidedLoss	True
286.176	0.45	Lose2	0.5667	n/a	Yes	2.82	n/a	n/a	GoodResponse	0	n/a	n/a	4	29	Blank	AvoidedLoss	True
286.628	1.45	Lose2	0.5667	n/a	Yes	2.82	n/a	5.0	GoodResponse	0	0.025	285.653	4	29	Feedback	AvoidedLoss	True
288.082	2.82	Lose2	0.5667	n/a	Yes	2.82	n/a	n/a	GoodResponse	0	0.0	n/a	4	29	ISIslide	AvoidedLoss	True
290.924	0.25	Win2	0.5806	0.0	Yes	2.776	0.024	n/a	GoodResponse	1	n/a	n/a	5	30	Cue	Win	True
291.175	3.9	Win2	0.5806	0.0	Yes	2.776	0.001	n/a	GoodResponse	1	n/a	n/a	5	30	Fixation	Win	True
295.07	0.26	Win2	0.5806	0.004	Yes	2.776	-0.004	2.0	GoodResponse	1	0.224	294.294	5	30	Target	Win	True
295.294	0.3	Win2	0.5806	0.004	Yes	2.776	-0.004	2.0	GoodResponse	1	0.224	n/a	5	30	ButtonPress	Win	True
295.337	0.44	Win2	0.5806	n/a	Yes	2.776	n/a	n/a	GoodResponse	1	n/a	n/a	5	30	Blank	Win	True
295.772	1.45	Win2	0.5806	n/a	Yes	2.776	n/a	5.0	GoodResponse	1	0.008	294.78	5	30	Feedback	Win	True
297.226	2.776	Win2	0.5806	n/a	Yes	2.776	n/a	n/a	GoodResponse	1	0.0	n/a	5	30	ISIslide	Win	True
300.018	0.25	Lose2	0.5625	0.0	No	2.832	0.018	n/a	LatePress	-1	n/a	n/a	4	31	Cue	Loss	True
300.268	4.05	Lose2	0.5625	0.0	No	2.832	0.0	n/a	LatePress	-1	n/a	n/a	4	31	Fixation	Loss	True
304.314	0.27	Lose2	0.5625	0.004	No	2.832	-0.004	2.0	LatePress	-1	0.274	303.588	4	31	Target	Loss	True
304.588	0.3	Lose2	0.5625	0.004	No	2.832	-0.004	2.0	LatePress	-1	0.274	n/a	4	31	ButtonPress	Loss	True
304.598	0.43	Lose2	0.5625	n/a	No	2.832	n/a	n/a	LatePress	-1	n/a	n/a	4	31	Blank	Loss	True
305.016	1.45	Lose2	0.5625	n/a	No	2.832	n/a	5.0	LatePress	-1	0.028	304.044	4	31	Feedback	Loss	True
306.47	2.832	Lose2	0.5625	n/a	No	2.832	n/a	n/a	LatePress	-1	0.0	n/a	4	31	ISIslide	Loss	True
309.329	0.25	Lose2	0.5758	0.0	Yes	2.621	0.029	n/a	GoodResponse	0	n/a	n/a	4	32	Cue	AvoidedLoss	True
309.58	4.15	Lose2	0.5758	0.0	Yes	2.621	0.001	n/a	GoodResponse	0	n/a	n/a	4	32	Fixation	AvoidedLoss	True
313.725	0.28	Lose2	0.5758	0.004	Yes	2.621	-0.004	2.0	GoodResponse	0	0.198	312.923	4	32	Target	AvoidedLoss	True
313.923	0.3	Lose2	0.5758	0.004	Yes	2.621	-0.004	2.0	GoodResponse	0	0.198	n/a	4	32	ButtonPress	AvoidedLoss	True
314.009	0.42	Lose2	0.5758	n/a	Yes	2.621	n/a	n/a	GoodResponse	0	n/a	n/a	4	32	Blank	AvoidedLoss	True
314.427	1.45	Lose2	0.5758	n/a	Yes	2.621	n/a	5.0	GoodResponse	0	0.032	313.459	4	32	Feedback	AvoidedLoss	True
315.882	2.621	Lose2	0.5758	n/a	Yes	2.621	n/a	n/a	GoodResponse	0	0.0	n/a	4	32	ISIslide	AvoidedLoss	True
318.523	0.25	Win2	0.5882000000000001	0.0	Yes	2.677	0.023	n/a	GoodResponse	1	n/a	n/a	5	33	Cue	Win	True
318.774	4.0	Win2	0.5882000000000001	0.0	Yes	2.677	0.001	n/a	GoodResponse	1	n/a	n/a	5	33	Fixation	Win	True
322.769	0.29	Win2	0.5882000000000001	0.004	Yes	2.677	-0.004	2.0	GoodResponse	1	0.166	321.935	5	33	Target	Win	True
322.935	0.3	Win2	0.5882000000000001	0.004	Yes	2.677	-0.004	2.0	GoodResponse	1	0.166	n/a	5	33	ButtonPress	Win	True
323.07	0.41	Win2	0.5882000000000001	n/a	Yes	2.677	n/a	n/a	GoodResponse	1	n/a	n/a	5	33	Blank	Win	True
323.471	1.45	Win2	0.5882000000000001	n/a	Yes	2.677	n/a	5.0	GoodResponse	1	0.011	322.482	5	33	Feedback	Win	True
324.925	2.677	Win2	0.5882000000000001	n/a	Yes	2.677	n/a	n/a	GoodResponse	1	0.0	n/a	5	33	ISIslide	Win	True
327.617	0.25	Lose2	0.6	0.0	Yes	2.633	0.017	n/a	GoodResponse	0	n/a	n/a	5	34	Cue	AvoidedLoss	True
327.867	4.05	Lose2	0.6	0.001	Yes	2.633	0.0	n/a	GoodResponse	0	n/a	n/a	5	34	Fixation	AvoidedLoss	True
331.913	0.3	Lose2	0.6	0.004	Yes	2.633	-0.004	2.0	GoodResponse	0	0.192	331.105	5	34	Target	AvoidedLoss	True
332.105	0.3	Lose2	0.6	0.004	Yes	2.633	-0.004	2.0	GoodResponse	0	0.192	n/a	5	34	ButtonPress	AvoidedLoss	True
332.214	0.4	Lose2	0.6	n/a	Yes	2.633	n/a	n/a	GoodResponse	0	n/a	n/a	5	34	Blank	AvoidedLoss	True
332.615	1.45	Lose2	0.6	n/a	Yes	2.633	n/a	5.0	GoodResponse	0	0.038	331.653	5	34	Feedback	AvoidedLoss	True
334.069	2.633	Lose2	0.6	n/a	Yes	2.633	n/a	n/a	GoodResponse	0	0.0	n/a	5	34	ISIslide	AvoidedLoss	True
336.727	0.25	Lose2	0.6111	0.0	Yes	2.673	0.027	n/a	GoodResponse	0	n/a	n/a	5	35	Cue	AvoidedLoss	True
336.978	4.0	Lose2	0.6111	0.0	Yes	2.673	0.001	n/a	GoodResponse	0	n/a	n/a	5	35	Fixation	AvoidedLoss	True
340.973	0.31	Lose2	0.6111	0.004	Yes	2.673	-0.004	2.0	GoodResponse	0	0.212	340.185	5	35	Target	AvoidedLoss	True
341.185	0.3	Lose2	0.6111	0.004	Yes	2.673	-0.004	2.0	GoodResponse	0	0.212	n/a	5	35	ButtonPress	AvoidedLoss	True
341.291	0.39	Lose2	0.6111	n/a	Yes	2.673	n/a	n/a	GoodResponse	0	n/a	n/a	5	35	Blank	AvoidedLoss	True
341.675	1.45	Lose2	0.6111	n/a	Yes	2.673	n/a	5.0	GoodResponse	0	0.002	340.677	5	35	Feedback	AvoidedLoss	True
343.13	2.673	Lose2	0.6111	n/a	Yes	2.673	n/a	n/a	GoodResponse	0	0.0	n/a	5	35	ISIslide	AvoidedLoss	True
345.821	0.25	Control	0.6215999999999999	0.0	Yes	2.679	0.021	n/a	GoodResponse	0	n/a	n/a	5	36	Cue	Neutral	True
346.072	4.0	Control	0.6215999999999999	0.0	Yes	2.679	0.001	n/a	GoodResponse	0	n/a	n/a	5	36	Fixation	Neutral	True
350.067	0.32	Control	0.6215999999999999	0.004	Yes	2.679	-0.004	2.0	GoodResponse	0	0.301	349.368	5	36	Target	Neutral	True
350.368	0.3	Control	0.6215999999999999	0.004	Yes	2.679	-0.004	2.0	GoodResponse	0	0.301	n/a	5	36	ButtonPress	Neutral	True
350.401	0.38	Control	0.6215999999999999	n/a	Yes	2.679	n/a	n/a	GoodResponse	0	n/a	n/a	5	36	Blank	Neutral	True
350.769	1.45	Control	0.6215999999999999	n/a	Yes	2.679	n/a	5.0	GoodResponse	0	0.03	349.799	5	36	Feedback	Neutral	True
352.224	2.679	Control	0.6215999999999999	n/a	Yes	2.679	n/a	n/a	GoodResponse	0	0.0	n/a	5	36	ISIslide	Neutral	True
354.932	0.25	Win2	0.6315999999999999	0.0	Yes	2.868	0.032	n/a	GoodResponse	1	n/a	n/a	6	37	Cue	Win	True
355.182	4.0	Win2	0.6315999999999999	0.0	Yes	2.868	0.0	n/a	GoodResponse	1	n/a	n/a	6	37	Fixation	Win	True
359.178	0.33	Win2	0.6315999999999999	0.004	Yes	2.868	-0.004	2.0	GoodResponse	1	0.238	358.416	6	37	Target	Win	True
359.416	0.3	Win2	0.6315999999999999	0.004	Yes	2.868	-0.004	2.0	GoodResponse	1	0.238	n/a	6	37	ButtonPress	Win	True
359.512	0.37	Win2	0.6315999999999999	n/a	Yes	2.868	n/a	n/a	GoodResponse	1	n/a	n/a	6	37	Blank	Win	True
359.88	1.45	Win2	0.6315999999999999	n/a	Yes	2.868	n/a	5.0	GoodResponse	1	0.04	358.92	6	37	Feedback	Win	True
361.334	2.868	Win2	0.6315999999999999	n/a	Yes	2.868	n/a	n/a	GoodResponse	1	0.0	n/a	6	37	ISIslide	Win	True
364.226	0.25	Lose2	0.6409999999999999	0.0	Yes	2.824	0.026	n/a	GoodResponse	0	n/a	n/a	6	38	Cue	AvoidedLoss	True
364.477	3.95	Lose2	0.6409999999999999	0.0	Yes	2.824	0.001	n/a	GoodResponse	0	n/a	n/a	6	38	Fixation	AvoidedLoss	True
368.422	0.34	Lose2	0.6409999999999999	0.004	Yes	2.824	-0.004	2.0	GoodResponse	0	0.179	367.601	6	38	Target	AvoidedLoss	True
368.601	0.3	Lose2	0.6409999999999999	0.004	Yes	2.824	-0.004	2.0	GoodResponse	0	0.179	n/a	6	38	ButtonPress	AvoidedLoss	True
368.773	0.36	Lose2	0.6409999999999999	n/a	Yes	2.824	n/a	n/a	GoodResponse	0	n/a	n/a	6	38	Blank	AvoidedLoss	True
369.124	1.45	Lose2	0.6409999999999999	n/a	Yes	2.824	n/a	5.0	GoodResponse	0	0.016	368.14	6	38	Feedback	AvoidedLoss	True
370.578	2.824	Lose2	0.6409999999999999	n/a	Yes	2.824	n/a	n/a	GoodResponse	0	0.0	n/a	6	38	ISIslide	AvoidedLoss	True
373.42	0.25	Win2	0.65	0.0	Yes	2.98	0.02	n/a	GoodResponse	1	n/a	n/a	7	39	Cue	Win	True
373.671	4.1	Win2	0.65	0.0	Yes	2.98	0.001	n/a	GoodResponse	1	n/a	n/a	7	39	Fixation	Win	True
377.767	0.35	Win2	0.65	0.003	Yes	2.98	-0.003	2.0	GoodResponse	1	0.203	376.97	7	39	Target	Win	True
377.97	0.3	Win2	0.65	0.003	Yes	2.98	-0.003	2.0	GoodResponse	1	0.203	n/a	7	39	ButtonPress	Win	True
378.118	0.35	Win2	0.65	n/a	Yes	2.98	n/a	n/a	GoodResponse	1	n/a	n/a	7	39	Blank	Win	True
378.469	1.45	Win2	0.65	n/a	Yes	2.98	n/a	5.0	GoodResponse	1	0.037	377.506	7	39	Feedback	Win	True
379.923	2.98	Win2	0.65	n/a	Yes	2.98	n/a	n/a	GoodResponse	1	0.0	n/a	7	39	ISIslide	Win	True
382.915	0.25	Win2	0.6585	0.0	Yes	2.735	0.015	n/a	GoodResponse	1	n/a	n/a	8	40	Cue	Win	True
383.166	3.95	Win2	0.6585	0.0	Yes	2.735	0.001	n/a	GoodResponse	1	n/a	n/a	8	40	Fixation	Win	True
387.111	0.36	Win2	0.6585	0.004	Yes	2.735	-0.004	2.0	GoodResponse	1	0.213	386.324	8	40	Target	Win	True
387.324	0.3	Win2	0.6585	0.004	Yes	2.735	-0.004	2.0	GoodResponse	1	0.213	n/a	8	40	ButtonPress	Win	True
387.479	0.34	Win2	0.6585	n/a	Yes	2.735	n/a	n/a	GoodResponse	1	n/a	n/a	8	40	Blank	Win	True
387.813	1.45	Win2	0.6585	n/a	Yes	2.735	n/a	5.0	GoodResponse	1	0.01	386.823	8	40	Feedback	Win	True
389.268	2.735	Win2	0.6585	n/a	Yes	2.735	n/a	n/a	GoodResponse	1	0.0	n/a	8	40	ISIslide	Win	True
392.026	0.25	Win2	0.6667000000000001	0.0	Yes	2.774	0.026	n/a	GoodResponse	1	n/a	n/a	9	41	Cue	Win	True
392.277	3.9	Win2	0.6667000000000001	0.0	Yes	2.774	0.001	n/a	GoodResponse	1	n/a	n/a	9	41	Fixation	Win	True
396.188	0.36	Win2	0.6667000000000001	0.0	Yes	2.774	0.012	2.0	GoodResponse	1	0.266	395.454	9	41	Target	Win	True
396.454	0.3	Win2	0.6667000000000001	0.0	Yes	2.774	0.012	2.0	GoodResponse	1	0.266	n/a	9	41	ButtonPress	Win	True
396.539	0.34	Win2	0.6667000000000001	n/a	Yes	2.774	n/a	n/a	GoodResponse	1	n/a	n/a	9	41	Blank	Win	True
396.874	1.45	Win2	0.6667000000000001	n/a	Yes	2.774	n/a	5.0	GoodResponse	1	0.021	395.895	9	41	Feedback	Win	True
398.328	2.774	Win2	0.6667000000000001	n/a	Yes	2.774	n/a	n/a	GoodResponse	1	0.0	n/a	9	41	ISIslide	Win	True
401.12	0.25	Control	0.6744	0.0	Yes	2.93	0.02	n/a	GoodResponse	0	n/a	n/a	9	42	Cue	Neutral	True
401.37	3.85	Control	0.6744	0.0	Yes	2.93	0.0	n/a	GoodResponse	0	n/a	n/a	9	42	Fixation	Neutral	True
405.232	0.35	Control	0.6744	0.0	Yes	2.93	0.012	2.0	GoodResponse	0	0.209	404.441	9	42	Target	Neutral	True
405.441	0.3	Control	0.6744	0.0	Yes	2.93	0.012	2.0	GoodResponse	0	0.209	n/a	9	42	ButtonPress	Neutral	True
405.566	0.35	Control	0.6744	n/a	Yes	2.93	n/a	n/a	GoodResponse	0	n/a	n/a	9	42	Blank	Neutral	True
405.917	1.45	Control	0.6744	n/a	Yes	2.93	n/a	5.0	GoodResponse	0	0.009	404.926	9	42	Feedback	Neutral	True
407.372	2.93	Control	0.6744	n/a	Yes	2.93	n/a	n/a	GoodResponse	0	0.0	n/a	9	42	ISIslide	Neutral	True
410.33	0.25	Win2	0.6818000000000001	0.001	Yes	3.17	0.03	n/a	GoodResponse	1	n/a	n/a	10	43	Cue	Win	True
410.581	4.0	Win2	0.6818000000000001	0.0	Yes	3.17	0.001	n/a	GoodResponse	1	n/a	n/a	10	43	Fixation	Win	True
414.576	0.34	Win2	0.6818000000000001	0.004	Yes	3.17	-0.004	2.0	GoodResponse	1	0.213	413.789	10	43	Target	Win	True
414.789	0.3	Win2	0.6818000000000001	0.004	Yes	3.17	-0.004	2.0	GoodResponse	1	0.213	n/a	10	43	ButtonPress	Win	True
414.927	0.36	Win2	0.6818000000000001	n/a	Yes	3.17	n/a	n/a	GoodResponse	1	n/a	n/a	10	43	Blank	Win	True
415.279	1.45	Win2	0.6818000000000001	n/a	Yes	3.17	n/a	5.0	GoodResponse	1	0.007	414.286	10	43	Feedback	Win	True
416.733	3.17	Win2	0.6818000000000001	n/a	Yes	3.17	n/a	n/a	GoodResponse	1	0.0	n/a	10	43	ISIslide	Win	True
419.926	0.25	Win2	0.6889	0.0	Yes	2.974	0.026	n/a	GoodResponse	1	n/a	n/a	11	44	Cue	Win	True
420.176	4.0	Win2	0.6889	0.001	Yes	2.974	0.0	n/a	GoodResponse	1	n/a	n/a	11	44	Fixation	Win	True
424.172	0.33	Win2	0.6889	0.004	Yes	2.974	-0.004	2.0	GoodResponse	1	0.235	423.407	11	44	Target	Win	True
424.407	0.3	Win2	0.6889	0.004	Yes	2.974	-0.004	2.0	GoodResponse	1	0.235	n/a	11	44	ButtonPress	Win	True
424.506	0.37	Win2	0.6889	n/a	Yes	2.974	n/a	n/a	GoodResponse	1	n/a	n/a	11	44	Blank	Win	True
424.874	1.45	Win2	0.6889	n/a	Yes	2.974	n/a	5.0	GoodResponse	1	0.022	423.896	11	44	Feedback	Win	True
426.328	2.974	Win2	0.6889	n/a	Yes	2.974	n/a	n/a	GoodResponse	1	0.0	n/a	11	44	ISIslide	Win	True
429.32	0.25	Control	0.6957	0.001	Yes	2.88	0.02	n/a	GoodResponse	0	n/a	n/a	11	45	Cue	Neutral	True
429.571	4.1	Control	0.6957	0.0	Yes	2.88	0.001	n/a	GoodResponse	0	n/a	n/a	11	45	Fixation	Neutral	True
433.667	0.32	Control	0.6957	0.003	Yes	2.88	-0.003	2.0	GoodResponse	0	0.297	432.964	11	45	Target	Neutral	True
433.964	0.3	Control	0.6957	0.003	Yes	2.88	-0.003	2.0	GoodResponse	0	0.297	n/a	11	45	ButtonPress	Neutral	True
434.001	0.38	Control	0.6957	n/a	Yes	2.88	n/a	n/a	GoodResponse	0	n/a	n/a	11	45	Blank	Neutral	True
434.369	1.45	Control	0.6957	n/a	Yes	2.88	n/a	5.0	GoodResponse	0	0.038	433.407	11	45	Feedback	Neutral	True
435.823	2.88	Control	0.6957	n/a	Yes	2.88	n/a	n/a	GoodResponse	0	0.0	n/a	11	45	ISIslide	Neutral	True
438.715	0.25	Lose2	0.7021	0.0	Yes	3.385	0.015	n/a	GoodResponse	0	n/a	n/a	11	46	Cue	AvoidedLoss	True
438.966	4.0	Lose2	0.7021	0.0	Yes	3.385	0.001	n/a	GoodResponse	0	n/a	n/a	11	46	Fixation	AvoidedLoss	True
442.961	0.31	Lose2	0.7021	0.004	Yes	3.385	-0.004	2.0	GoodResponse	0	0.188	442.149	11	46	Target	AvoidedLoss	True
443.149	0.3	Lose2	0.7021	0.004	Yes	3.385	-0.004	2.0	GoodResponse	0	0.188	n/a	11	46	ButtonPress	AvoidedLoss	True
443.279	0.39	Lose2	0.7021	n/a	Yes	3.385	n/a	n/a	GoodResponse	0	n/a	n/a	11	46	Blank	AvoidedLoss	True
443.663	1.45	Lose2	0.7021	n/a	Yes	3.385	n/a	5.0	GoodResponse	0	0.012	442.675	11	46	Feedback	AvoidedLoss	True
445.118	3.385	Lose2	0.7021	n/a	Yes	3.385	n/a	n/a	GoodResponse	0	0.0	n/a	11	46	ISIslide	AvoidedLoss	True
448.528	0.25	Lose2	0.7082999999999999	0.0	Yes	2.672	0.028	n/a	GoodResponse	0	n/a	n/a	11	47	Cue	AvoidedLoss	True
448.779	4.0	Lose2	0.7082999999999999	0.0	Yes	2.672	0.001	n/a	GoodResponse	0	n/a	n/a	11	47	Fixation	AvoidedLoss	True
452.774	0.3	Lose2	0.7082999999999999	0.004	Yes	2.672	-0.004	2.0	GoodResponse	0	0.237	452.011	11	47	Target	AvoidedLoss	True
453.011	0.3	Lose2	0.7082999999999999	0.004	Yes	2.672	-0.004	2.0	GoodResponse	0	0.237	n/a	11	47	ButtonPress	AvoidedLoss	True
453.075	0.4	Lose2	0.7082999999999999	n/a	Yes	2.672	n/a	n/a	GoodResponse	0	n/a	n/a	11	47	Blank	AvoidedLoss	True
453.476	1.45	Lose2	0.7082999999999999	n/a	Yes	2.672	n/a	5.0	GoodResponse	0	0.008	452.484	11	47	Feedback	AvoidedLoss	True
454.93	2.672	Lose2	0.7082999999999999	n/a	Yes	2.672	n/a	n/a	GoodResponse	0	0.0	n/a	11	47	ISIslide	AvoidedLoss	True
457.622	0.25	Lose2	0.7143	0.0	Yes	3.028	0.022	n/a	GoodResponse	0	n/a	n/a	11	48	Cue	AvoidedLoss	True
457.872	3.95	Lose2	0.7143	0.0	Yes	3.028	0.0	n/a	GoodResponse	0	n/a	n/a	11	48	Fixation	AvoidedLoss	True
461.818	0.29	Lose2	0.7143	0.004	Yes	3.028	-0.004	2.0	GoodResponse	0	0.236	461.054	11	48	Target	AvoidedLoss	True
462.054	0.3	Lose2	0.7143	0.004	Yes	3.028	-0.004	2.0	GoodResponse	0	0.236	n/a	11	48	ButtonPress	AvoidedLoss	True
462.118	0.41	Lose2	0.7143	n/a	Yes	3.028	n/a	n/a	GoodResponse	0	n/a	n/a	11	48	Blank	AvoidedLoss	True
462.52	1.45	Lose2	0.7143	n/a	Yes	3.028	n/a	5.0	GoodResponse	0	0.034	461.554	11	48	Feedback	AvoidedLoss	True
463.974	3.028	Lose2	0.7143	n/a	Yes	3.028	n/a	n/a	GoodResponse	0	0.0	n/a	11	48	ISIslide	AvoidedLoss	True
467.016	0.25	Control	0.72	0.0	Yes	2.884	0.016	n/a	GoodResponse	0	n/a	n/a	11	49	Cue	Neutral	True
467.267	4.0	Control	0.72	0.0	Yes	2.884	0.001	n/a	GoodResponse	0	n/a	n/a	11	49	Fixation	Neutral	True
471.262	0.28	Control	0.72	0.004	Yes	2.884	-0.004	2.0	GoodResponse	0	0.213	470.475	11	49	Target	Neutral	True
471.475	0.3	Control	0.72	0.004	Yes	2.884	-0.004	2.0	GoodResponse	0	0.213	n/a	11	49	ButtonPress	Neutral	True
471.547	0.42	Control	0.72	n/a	Yes	2.884	n/a	n/a	GoodResponse	0	n/a	n/a	11	49	Blank	Neutral	True
471.964	1.45	Control	0.72	n/a	Yes	2.884	n/a	5.0	GoodResponse	0	0.008	470.972	11	49	Feedback	Neutral	True
473.419	2.884	Control	0.72	n/a	Yes	2.884	n/a	n/a	GoodResponse	0	0.0	n/a	11	49	ISIslide	Neutral	True
476.328	0.25	Control	0.7254999999999999	0.0	Yes	2.772	0.028	n/a	GoodResponse	0	n/a	n/a	11	50	Cue	Neutral	True
476.578	4.0	Control	0.7254999999999999	0.0	Yes	2.772	0.0	n/a	GoodResponse	0	n/a	n/a	11	50	Fixation	Neutral	True
480.574	0.27	Control	0.7254999999999999	0.004	Yes	2.772	-0.004	2.0	GoodResponse	0	0.229	479.803	11	50	Target	Neutral	True
480.803	0.3	Control	0.7254999999999999	0.004	Yes	2.772	-0.004	2.0	GoodResponse	0	0.229	n/a	11	50	ButtonPress	Neutral	True
480.858	0.43	Control	0.7254999999999999	n/a	Yes	2.772	n/a	n/a	GoodResponse	0	n/a	n/a	11	50	Blank	Neutral	True
481.276	1.45	Control	0.7254999999999999	n/a	Yes	2.772	n/a	5.0	GoodResponse	0	0.009	480.285	11	50	Feedback	Neutral	True
482.73	2.772	Control	0.7254999999999999	n/a	Yes	2.772	n/a	n/a	GoodResponse	0	0.0	n/a	11	50	ISIslide	Neutral	True
485.522	0.25	Control	0.7308	0.0	Yes	2.728	0.022	n/a	GoodResponse	0	n/a	n/a	11	51	Cue	Neutral	True
485.772	3.95	Control	0.7308	0.0	Yes	2.728	0.0	n/a	GoodResponse	0	n/a	n/a	11	51	Fixation	Neutral	True
489.718	0.26	Control	0.7308	0.004	Yes	2.728	-0.004	2.0	GoodResponse	0	0.212	488.93	11	51	Target	Neutral	True
489.93	0.3	Control	0.7308	0.004	Yes	2.728	-0.004	2.0	GoodResponse	0	0.212	n/a	11	51	ButtonPress	Neutral	True
489.985	0.44	Control	0.7308	n/a	Yes	2.728	n/a	n/a	GoodResponse	0	n/a	n/a	11	51	Blank	Neutral	True
490.42	1.45	Control	0.7308	n/a	Yes	2.728	n/a	5.0	GoodResponse	0	0.035	489.455	11	51	Feedback	Neutral	True
491.874	2.728	Control	0.7308	n/a	Yes	2.728	n/a	n/a	GoodResponse	0	0.0	n/a	11	51	ISIslide	Neutral	True
494.615	0.25	Control	0.7358	0.001	Yes	2.635	0.015	n/a	GoodResponse	0	n/a	n/a	11	52	Cue	Neutral	True
494.866	4.05	Control	0.7358	0.0	Yes	2.635	0.001	n/a	GoodResponse	0	n/a	n/a	11	52	Fixation	Neutral	True
498.912	0.25	Control	0.7358	0.003	Yes	2.635	-0.003	2.0	GoodResponse	0	0.206	498.118	11	52	Target	Neutral	True
499.118	0.3	Control	0.7358	0.003	Yes	2.635	-0.003	2.0	GoodResponse	0	0.206	n/a	11	52	ButtonPress	Neutral	True
499.162	0.45	Control	0.7358	n/a	Yes	2.635	n/a	n/a	GoodResponse	0	n/a	n/a	11	52	Blank	Neutral	True
499.614	1.45	Control	0.7358	n/a	Yes	2.635	n/a	5.0	GoodResponse	0	0.012	498.626	11	52	Feedback	Neutral	True
501.068	2.635	Control	0.7358	n/a	Yes	2.635	n/a	n/a	GoodResponse	0	0.0	n/a	11	52	ISIslide	Neutral	True
503.726	0.25	Win2	0.7406999999999999	0.0	Yes	2.924	0.026	n/a	GoodResponse	1	n/a	n/a	12	53	Cue	Win	True
503.977	4.05	Win2	0.7406999999999999	0.0	Yes	2.924	0.001	n/a	GoodResponse	1	n/a	n/a	12	53	Fixation	Win	True
508.022	0.24	Win2	0.7406999999999999	0.004	Yes	2.924	-0.004	2.0	GoodResponse	1	0.18	507.202	12	53	Target	Win	True
508.202	0.3	Win2	0.7406999999999999	0.004	Yes	2.924	-0.004	2.0	GoodResponse	1	0.18	n/a	12	53	ButtonPress	Win	True
508.273	0.46	Win2	0.7406999999999999	n/a	Yes	2.924	n/a	n/a	GoodResponse	1	n/a	n/a	12	53	Blank	Win	True
508.724	1.45	Win2	0.7406999999999999	n/a	Yes	2.924	n/a	5.0	GoodResponse	1	0.024	507.748	12	53	Feedback	Win	True
510.179	2.924	Win2	0.7406999999999999	n/a	Yes	2.924	n/a	n/a	GoodResponse	1	0.0	n/a	12	53	ISIslide	Win	True
513.121	0.25	Win2	0.7454999999999999	0.0	Yes	2.729	0.021	n/a	GoodResponse	1	n/a	n/a	13	54	Cue	Win	True
513.372	3.95	Win2	0.7454999999999999	0.0	Yes	2.729	0.001	n/a	GoodResponse	1	n/a	n/a	13	54	Fixation	Win	True
517.317	0.23	Win2	0.7454999999999999	0.004	Yes	2.729	-0.004	2.0	GoodResponse	1	0.22	516.537	13	54	Target	Win	True
517.537	0.3	Win2	0.7454999999999999	0.004	Yes	2.729	-0.004	2.0	GoodResponse	1	0.22	n/a	13	54	ButtonPress	Win	True
517.551	0.47	Win2	0.7454999999999999	n/a	Yes	2.729	n/a	n/a	GoodResponse	1	n/a	n/a	13	54	Blank	Win	True
518.019	1.45	Win2	0.7454999999999999	n/a	Yes	2.729	n/a	5.0	GoodResponse	1	0.0	517.019	13	54	Feedback	Win	True
519.473	2.729	Win2	0.7454999999999999	n/a	Yes	2.729	n/a	n/a	GoodResponse	1	0.0	n/a	13	54	ISIslide	Win	True
522.215	0.25	Control	0.7321	0.0	No	3.035	0.015	n/a	NoResponse	0	n/a	n/a	13	55	Cue	Neutral	True
522.465	3.95	Control	0.7321	0.0	No	3.035	0.0	n/a	NoResponse	0	n/a	n/a	13	55	Fixation	Neutral	True
526.427	0.22	Control	0.7321	0.0	No	3.035	0.012	2.0	NoResponse	0	0.313	525.74	13	55	Target	Neutral	True
526.644	0.48	Control	0.7321	n/a	No	3.035	n/a	n/a	NoResponse	0	n/a	n/a	13	55	Blank	Neutral	True
526.74	0.3	Control	0.7321	0.0	No	3.035	0.012	2.0	NoResponse	0	0.313	n/a	13	55	ButtonPress	Neutral	True
527.113	1.45	Control	0.7321	n/a	No	3.035	n/a	5.0	NoResponse	0	0.025	526.138	13	55	Feedback	Neutral	True
528.567	3.035	Control	0.7321	n/a	No	3.035	n/a	n/a	NoResponse	0	0.0	n/a	13	55	ISIslide	Neutral	True
531.626	0.25	Control	0.7193	0.0	No	2.824	0.026	n/a	NoResponse	0	n/a	n/a	13	56	Cue	Neutral	True
531.877	3.95	Control	0.7193	0.0	No	2.824	0.001	n/a	NoResponse	0	n/a	n/a	13	56	Fixation	Neutral	True
535.822	0.21	Control	0.7193	0.004	No	2.824	-0.004	2.0	NoResponse	0	0.218	535.04	13	56	Target	Neutral	True
536.039	0.49	Control	0.7193	n/a	No	2.824	n/a	n/a	NoResponse	0	n/a	n/a	13	56	Blank	Neutral	True
536.04	0.3	Control	0.7193	0.004	No	2.824	-0.004	2.0	NoResponse	0	0.218	n/a	13	56	ButtonPress	Neutral	True
536.524	1.45	Control	0.7193	n/a	No	2.824	n/a	5.0	NoResponse	0	0.028	535.552	13	56	Feedback	Neutral	True
537.978	2.824	Control	0.7193	n/a	No	2.824	n/a	n/a	NoResponse	0	0.0	n/a	13	56	ISIslide	Neutral	True
540.82	0.25	Control	0.7069	0.0	No	3.48	0.02	n/a	NoResponse	0	n/a	n/a	13	57	Cue	Neutral	True
541.071	4.0	Control	0.7069	0.0	No	3.48	0.001	n/a	NoResponse	0	n/a	n/a	13	57	Fixation	Neutral	True
545.066	0.2	Control	0.7069	0.004	No	3.48	-0.004	2.0	NoResponse	0	0.211	544.277	13	57	Target	Neutral	True
545.267	0.5	Control	0.7069	n/a	No	3.48	n/a	n/a	NoResponse	0	n/a	n/a	13	57	Blank	Neutral	True
545.277	0.3	Control	0.7069	0.004	No	3.48	-0.004	2.0	NoResponse	0	0.211	n/a	13	57	ButtonPress	Neutral	True
545.768	1.45	Control	0.7069	n/a	No	3.48	n/a	5.0	NoResponse	0	0.006	544.774	13	57	Feedback	Neutral	True
547.223	3.48	Control	0.7069	n/a	No	3.48	n/a	n/a	NoResponse	0	0.0	n/a	13	57	ISIslide	Neutral	True
550.716	0.25	Win2	0.6949	0.0	No	2.734	0.016	n/a	NoResponse	0	n/a	n/a	13	58	Cue	MissedWin	True
550.967	4.05	Win2	0.6949	0.0	No	2.734	0.001	n/a	NoResponse	0	n/a	n/a	13	58	Fixation	MissedWin	True
555.013	0.19	Win2	0.6949	0.003	No	2.734	-0.003	2.0	NoResponse	0	0.208	554.221	13	58	Target	MissedWin	True
555.213	0.51	Win2	0.6949	n/a	No	2.734	n/a	n/a	NoResponse	0	n/a	n/a	13	58	Blank	MissedWin	True
555.221	0.3	Win2	0.6949	0.003	No	2.734	-0.003	2.0	NoResponse	0	0.208	n/a	13	58	ButtonPress	MissedWin	True
555.715	1.45	Win2	0.6949	n/a	No	2.734	n/a	5.0	NoResponse	0	0.007	554.722	13	58	Feedback	MissedWin	True
557.169	2.734	Win2	0.6949	n/a	No	2.734	n/a	n/a	NoResponse	0	0.0	n/a	13	58	ISIslide	MissedWin	True
559.927	0.25	Lose2	0.6833	0.0	No	2.673	0.027	n/a	NoResponse	-1	n/a	n/a	12	59	Cue	Loss	True
560.178	4.0	Lose2	0.6833	0.0	No	2.673	0.001	2.0	NoResponse	-1	3.52	562.698	12	59	Fixation	Loss	True
563.698	0.3	Lose2	0.6833	0.0	No	2.673	0.001	2.0	NoResponse	-1	3.52	n/a	12	59	ButtonPress	Loss	True
564.173	0.18	Lose2	0.6833	0.004	No	2.673	-0.004	n/a	NoResponse	-1	n/a	n/a	12	59	Target	Loss	True
564.357	0.52	Lose2	0.6833	n/a	No	2.673	n/a	n/a	NoResponse	-1	n/a	n/a	12	59	Blank	Loss	True
564.875	1.45	Lose2	0.6833	n/a	No	2.673	n/a	5.0	NoResponse	-1	0.018	563.893	12	59	Feedback	Loss	True
566.33	2.673	Lose2	0.6833	n/a	No	2.673	n/a	n/a	NoResponse	-1	0.0	n/a	12	59	ISIslide	Loss	True
569.021	0.25	Control	0.6720999999999999	0.0	No	2.679	0.021	n/a	NoResponse	0	n/a	n/a	12	60	Cue	Neutral	True
569.272	4.0	Control	0.6720999999999999	0.0	No	2.679	0.001	n/a	NoResponse	0	n/a	n/a	12	60	Fixation	Neutral	True
573.267	0.17	Control	0.6720999999999999	0.004	No	2.679	-0.004	2.0	NoResponse	0	0.238	572.505	12	60	Target	Neutral	True
573.451	0.53	Control	0.6720999999999999	n/a	No	2.679	n/a	n/a	NoResponse	0	n/a	n/a	12	60	Blank	Neutral	True
573.505	0.3	Control	0.6720999999999999	0.004	No	2.679	-0.004	2.0	NoResponse	0	0.238	n/a	12	60	ButtonPress	Neutral	True
573.969	1.45	Control	0.6720999999999999	n/a	No	2.679	n/a	5.0	NoResponse	0	0.046	573.015	12	60	Feedback	Neutral	True
575.423	2.679	Control	0.6720999999999999	n/a	No	2.679	n/a	n/a	NoResponse	0	0.0	n/a	12	60	ISIslide	Neutral	True
578.115	0.25	Lose2	0.6613	0.0	No	2.985	0.015	n/a	NoResponse	-1	n/a	n/a	11	61	Cue	Loss	False
578.366	4.0	Lose2	0.6613	0.0	No	2.985	0.001	2.0	NoResponse	-1	0.09	577.456	11	61	Fixation	Loss	False
578.456	0.3	Lose2	0.6613	0.0	No	2.985	0.001	2.0	NoResponse	-1	0.09	n/a	11	61	ButtonPress	Loss	False
582.361	0.16	Lose2	0.6613	0.004	No	2.985	-0.004	2.0	NoResponse	-1	0.212	581.573	11	61	Target	Loss	False
582.528	0.54	Lose2	0.6613	n/a	No	2.985	n/a	n/a	NoResponse	-1	n/a	n/a	11	61	Blank	Loss	False
582.573	0.3	Lose2	0.6613	0.004	No	2.985	-0.004	2.0	NoResponse	-1	0.212	n/a	11	61	ButtonPress	Loss	False
583.063	1.45	Lose2	0.6613	n/a	No	2.985	n/a	5.0	NoResponse	-1	0.026	582.089	11	61	Feedback	Loss	False
584.517	2.985	Lose2	0.6613	n/a	No	2.985	n/a	n/a	NoResponse	-1	0.0	n/a	11	61	ISIslide	Loss	False
587.526	0.25	Lose2	0.6507999999999999	0.0	No	2.874	0.026	n/a	NoResponse	-1	n/a	n/a	10	62	Cue	Loss	True
587.777	3.9	Lose2	0.6507999999999999	0.0	No	2.874	0.001	n/a	NoResponse	-1	n/a	n/a	10	62	Fixation	Loss	True
591.672	0.16	Lose2	0.6507999999999999	0.004	No	2.874	-0.004	2.0	NoResponse	-1	0.181	590.853	10	62	Target	Loss	True
591.839	0.54	Lose2	0.6507999999999999	n/a	No	2.874	n/a	n/a	NoResponse	-1	n/a	n/a	10	62	Blank	Loss	True
591.853	0.3	Lose2	0.6507999999999999	0.004	No	2.874	-0.004	2.0	NoResponse	-1	0.181	n/a	10	62	ButtonPress	Loss	True
592.374	1.45	Lose2	0.6507999999999999	n/a	No	2.874	n/a	5.0	NoResponse	-1	0.032	591.406	10	62	Feedback	Loss	True
593.828	2.874	Lose2	0.6507999999999999	n/a	No	2.874	n/a	n/a	NoResponse	-1	0.0	n/a	10	62	ISIslide	Loss	True
596.72	0.25	Lose2	0.6406000000000001	0.001	No	2.63	0.02	n/a	NoResponse	-1	n/a	n/a	9	63	Cue	Loss	True
596.971	4.05	Lose2	0.6406000000000001	0.0	No	2.63	0.001	n/a	NoResponse	-1	n/a	n/a	9	63	Fixation	Loss	True
601.017	0.17	Lose2	0.6406000000000001	0.003	No	2.63	-0.003	2.0	NoResponse	-1	0.197	600.214	9	63	Target	Loss	True
601.2	0.53	Lose2	0.6406000000000001	n/a	No	2.63	n/a	n/a	NoResponse	-1	n/a	n/a	9	63	Blank	Loss	True
601.214	0.3	Lose2	0.6406000000000001	0.003	No	2.63	-0.003	2.0	NoResponse	-1	0.197	n/a	9	63	ButtonPress	Loss	True
601.719	1.45	Lose2	0.6406000000000001	n/a	No	2.63	n/a	5.0	NoResponse	-1	0.007	600.726	9	63	Feedback	Loss	True
603.173	2.63	Lose2	0.6406000000000001	n/a	No	2.63	n/a	n/a	NoResponse	-1	0.0	n/a	9	63	ISIslide	Loss	True
605.831	0.25	Win2	0.6308	0.0	No	3.119	0.031	n/a	NoResponse	0	n/a	n/a	9	64	Cue	MissedWin	True
606.082	4.15	Win2	0.6308	0.0	No	3.119	0.001	n/a	NoResponse	0	n/a	n/a	9	64	Fixation	MissedWin	True
610.227	0.18	Win2	0.6308	0.004	No	3.119	-0.004	2.0	NoResponse	0	0.205	609.432	9	64	Target	MissedWin	True
610.411	0.52	Win2	0.6308	n/a	No	3.119	n/a	n/a	NoResponse	0	n/a	n/a	9	64	Blank	MissedWin	True
610.432	0.3	Win2	0.6308	0.004	No	3.119	-0.004	2.0	NoResponse	0	0.205	n/a	9	64	ButtonPress	MissedWin	True
610.93	1.45	Win2	0.6308	n/a	No	3.119	n/a	5.0	NoResponse	0	0.011	609.941	9	64	Feedback	MissedWin	True
612.384	3.119	Win2	0.6308	n/a	No	3.119	n/a	n/a	NoResponse	0	0.0	n/a	9	64	ISIslide	MissedWin	True
615.527	0.25	Control	0.6212	0.0	No	2.773	0.027	n/a	NoResponse	0	n/a	n/a	9	65	Cue	Neutral	True
615.777	4.0	Control	0.6212	0.0	No	2.773	0.0	n/a	NoResponse	0	n/a	n/a	9	65	Fixation	Neutral	True
619.773	0.19	Control	0.6212	0.004	No	2.773	-0.004	2.0	NoResponse	0	0.236	619.009	9	65	Target	Neutral	True
619.973	0.51	Control	0.6212	n/a	No	2.773	n/a	n/a	NoResponse	0	n/a	n/a	9	65	Blank	Neutral	True
620.009	0.3	Control	0.6212	0.004	No	2.773	-0.004	2.0	NoResponse	0	0.236	n/a	9	65	ButtonPress	Neutral	True
620.475	1.45	Control	0.6212	n/a	No	2.773	n/a	5.0	NoResponse	0	0.028	619.503	9	65	Feedback	Neutral	True
621.929	2.773	Control	0.6212	n/a	No	2.773	n/a	n/a	NoResponse	0	0.0	n/a	9	65	ISIslide	Neutral	True
624.721	0.25	Win2	0.6119	0.0	No	2.779	0.021	n/a	NoResponse	0	n/a	n/a	9	66	Cue	MissedWin	False
624.971	3.9	Win2	0.6119	0.001	No	2.779	0.0	2.0	NoResponse	0	0.098	624.069	9	66	Fixation	MissedWin	False
625.069	0.3	Win2	0.6119	0.001	No	2.779	0.0	2.0	NoResponse	0	0.098	n/a	9	66	ButtonPress	MissedWin	False
628.883	0.2	Win2	0.6119	0.0	No	2.779	0.012	2.0	NoResponse	0	0.205	628.088	9	66	Target	MissedWin	False
629.067	0.5	Win2	0.6119	n/a	No	2.779	n/a	n/a	NoResponse	0	n/a	n/a	9	66	Blank	MissedWin	False
629.088	0.3	Win2	0.6119	0.0	No	2.779	0.012	2.0	NoResponse	0	0.205	n/a	9	66	ButtonPress	MissedWin	False
629.569	1.45	Win2	0.6119	n/a	No	2.779	n/a	5.0	NoResponse	0	0.007	628.576	9	66	Feedback	MissedWin	False
631.023	2.779	Win2	0.6119	n/a	No	2.779	n/a	n/a	NoResponse	0	0.0	n/a	9	66	ISIslide	MissedWin	False
633.815	0.25	Control	0.6029	0.0	No	2.735	0.015	n/a	NoResponse	0	n/a	n/a	9	67	Cue	Neutral	True
634.065	3.95	Control	0.6029	0.0	No	2.735	0.0	n/a	NoResponse	0	n/a	n/a	9	67	Fixation	Neutral	True
638.027	0.21	Control	0.6029	0.0	No	2.735	0.012	2.0	NoResponse	0	0.254	637.281	9	67	Target	Neutral	True
638.228	0.49	Control	0.6029	n/a	No	2.735	n/a	n/a	NoResponse	0	n/a	n/a	9	67	Blank	Neutral	True
638.281	0.3	Control	0.6029	0.0	No	2.735	0.012	2.0	NoResponse	0	0.254	n/a	9	67	ButtonPress	Neutral	True
638.712	1.45	Control	0.6029	n/a	No	2.735	n/a	5.0	NoResponse	0	0.034	637.746	9	67	Feedback	Neutral	True
640.167	2.735	Control	0.6029	n/a	No	2.735	n/a	n/a	NoResponse	0	0.0	n/a	9	67	ISIslide	Neutral	True
642.925	0.25	Win2	0.6087	0.0	Yes	3.075	0.025	n/a	GoodResponse	1	n/a	n/a	10	68	Cue	Win	True
643.176	4.0	Win2	0.6087	0.0	Yes	3.075	0.001	n/a	GoodResponse	1	n/a	n/a	10	68	Fixation	Win	True
647.171	0.22	Win2	0.6087	0.004	Yes	3.075	-0.004	2.0	GoodResponse	1	0.187	646.358	10	68	Target	Win	True
647.358	0.3	Win2	0.6087	0.004	Yes	3.075	-0.004	2.0	GoodResponse	1	0.187	n/a	10	68	ButtonPress	Win	True
647.405	0.48	Win2	0.6087	n/a	Yes	3.075	n/a	n/a	GoodResponse	1	n/a	n/a	10	68	Blank	Win	True
647.873	1.45	Win2	0.6087	n/a	Yes	3.075	n/a	5.0	GoodResponse	1	0.044	646.917	10	68	Feedback	Win	True
649.328	3.075	Win2	0.6087	n/a	Yes	3.075	n/a	n/a	GoodResponse	1	0.0	n/a	10	68	ISIslide	Win	True
652.42	0.25	Win2	0.6143	0.0	Yes	3.23	0.02	n/a	GoodResponse	1	n/a	n/a	11	69	Cue	Win	True
652.671	3.95	Win2	0.6143	0.0	Yes	3.23	0.001	n/a	GoodResponse	1	n/a	n/a	11	69	Fixation	Win	True
656.616	0.23	Win2	0.6143	0.004	Yes	3.23	-0.004	2.0	GoodResponse	1	0.203	655.819	11	69	Target	Win	True
656.819	0.3	Win2	0.6143	0.004	Yes	3.23	-0.004	2.0	GoodResponse	1	0.203	n/a	11	69	ButtonPress	Win	True
656.85	0.47	Win2	0.6143	n/a	Yes	3.23	n/a	n/a	GoodResponse	1	n/a	n/a	11	69	Blank	Win	True
657.318	1.45	Win2	0.6143	n/a	Yes	3.23	n/a	5.0	GoodResponse	1	0.013	656.331	11	69	Feedback	Win	True
658.772	3.23	Win2	0.6143	n/a	Yes	3.23	n/a	n/a	GoodResponse	1	0.0	n/a	11	69	ISIslide	Win	True
662.015	0.25	Lose2	0.6197	0.001	Yes	3.035	0.015	n/a	GoodResponse	0	n/a	n/a	11	70	Cue	AvoidedLoss	True
662.266	4.05	Lose2	0.6197	0.0	Yes	3.035	0.001	n/a	GoodResponse	0	n/a	n/a	11	70	Fixation	AvoidedLoss	True
666.312	0.24	Lose2	0.6197	0.003	Yes	3.035	-0.003	2.0	GoodResponse	0	0.207	665.519	11	70	Target	AvoidedLoss	True
666.519	0.3	Lose2	0.6197	0.003	Yes	3.035	-0.003	2.0	GoodResponse	0	0.207	n/a	11	70	ButtonPress	AvoidedLoss	True
666.562	0.46	Lose2	0.6197	n/a	Yes	3.035	n/a	n/a	GoodResponse	0	n/a	n/a	11	70	Blank	AvoidedLoss	True
667.014	1.45	Lose2	0.6197	n/a	Yes	3.035	n/a	5.0	GoodResponse	0	0.024	666.038	11	70	Feedback	AvoidedLoss	True
668.468	3.035	Lose2	0.6197	n/a	Yes	3.035	n/a	n/a	GoodResponse	0	0.0	n/a	11	70	ISIslide	AvoidedLoss	True
671.527	0.25	Win2	0.625	0.0	Yes	2.723	0.027	n/a	GoodResponse	1	n/a	n/a	12	71	Cue	Win	True
671.778	4.05	Win2	0.625	0.0	Yes	2.723	0.001	n/a	GoodResponse	1	n/a	n/a	12	71	Fixation	Win	True
675.823	0.25	Win2	0.625	0.004	Yes	2.723	-0.004	2.0	GoodResponse	1	0.217	675.04	12	71	Target	Win	True
676.04	0.3	Win2	0.625	0.004	Yes	2.723	-0.004	2.0	GoodResponse	1	0.217	n/a	12	71	ButtonPress	Win	True
676.074	0.45	Win2	0.625	n/a	Yes	2.723	n/a	n/a	GoodResponse	1	n/a	n/a	12	71	Blank	Win	True
676.525	1.45	Win2	0.625	n/a	Yes	2.723	n/a	5.0	GoodResponse	1	0.025	675.55	12	71	Feedback	Win	True
677.98	2.723	Win2	0.625	n/a	Yes	2.723	n/a	n/a	GoodResponse	1	0.0	n/a	12	71	ISIslide	Win	True
680.721	0.25	Win2	0.6301	0.0	Yes	2.779	0.021	n/a	GoodResponse	1	n/a	n/a	13	72	Cue	Win	True
680.972	4.1	Win2	0.6301	0.0	Yes	2.779	0.001	n/a	GoodResponse	1	n/a	n/a	13	72	Fixation	Win	True
685.068	0.26	Win2	0.6301	0.003	Yes	2.779	-0.003	2.0	GoodResponse	1	0.216	684.284	13	72	Target	Win	True
685.284	0.3	Win2	0.6301	0.003	Yes	2.779	-0.003	2.0	GoodResponse	1	0.216	n/a	13	72	ButtonPress	Win	True
685.335	0.44	Win2	0.6301	n/a	Yes	2.779	n/a	n/a	GoodResponse	1	n/a	n/a	13	72	Blank	Win	True
685.77	1.45	Win2	0.6301	n/a	Yes	2.779	n/a	5.0	GoodResponse	1	0.0	684.77	13	72	Feedback	Win	True
687.224	2.779	Win2	0.6301	n/a	Yes	2.779	n/a	n/a	GoodResponse	1	0.0	n/a	13	72	ISIslide	Win	True
690.016	0.25	Win2	0.6351	0.0	Yes	2.684	0.016	n/a	GoodResponse	1	n/a	n/a	14	73	Cue	Win	True
690.266	4.0	Win2	0.6351	0.001	Yes	2.684	0.0	n/a	GoodResponse	1	n/a	n/a	14	73	Fixation	Win	True
694.262	0.27	Win2	0.6351	0.004	Yes	2.684	-0.004	2.0	GoodResponse	1	0.218	693.48	14	73	Target	Win	True
694.48	0.3	Win2	0.6351	0.004	Yes	2.684	-0.004	2.0	GoodResponse	1	0.218	n/a	14	73	ButtonPress	Win	True
694.546	0.43	Win2	0.6351	n/a	Yes	2.684	n/a	n/a	GoodResponse	1	n/a	n/a	14	73	Blank	Win	True
694.964	1.45	Win2	0.6351	n/a	Yes	2.684	n/a	5.0	GoodResponse	1	0.025	693.989	14	73	Feedback	Win	True
696.418	2.684	Win2	0.6351	n/a	Yes	2.684	n/a	n/a	GoodResponse	1	0.0	n/a	14	73	ISIslide	Win	True
699.126	0.25	Lose2	0.64	0.0	Yes	2.624	0.026	n/a	GoodResponse	0	n/a	n/a	14	74	Cue	AvoidedLoss	True
699.377	4.05	Lose2	0.64	0.0	Yes	2.624	0.001	n/a	GoodResponse	0	n/a	n/a	14	74	Fixation	AvoidedLoss	True
703.422	0.28	Lose2	0.64	0.004	Yes	2.624	-0.004	2.0	GoodResponse	0	0.239	702.661	14	74	Target	AvoidedLoss	True
703.661	0.3	Lose2	0.64	0.004	Yes	2.624	-0.004	2.0	GoodResponse	0	0.239	n/a	14	74	ButtonPress	AvoidedLoss	True
703.707	0.42	Lose2	0.64	n/a	Yes	2.624	n/a	n/a	GoodResponse	0	n/a	n/a	14	74	Blank	AvoidedLoss	True
704.124	1.45	Lose2	0.64	n/a	Yes	2.624	n/a	5.0	GoodResponse	0	0.035	703.159	14	74	Feedback	AvoidedLoss	True
705.579	2.624	Lose2	0.64	n/a	Yes	2.624	n/a	n/a	GoodResponse	0	0.0	n/a	14	74	ISIslide	AvoidedLoss	True
708.22	0.25	Lose2	0.6446999999999999	0.0	Yes	2.93	0.02	n/a	GoodResponse	0	n/a	n/a	14	75	Cue	AvoidedLoss	True
708.471	3.95	Lose2	0.6446999999999999	0.0	Yes	2.93	0.001	n/a	GoodResponse	0	n/a	n/a	14	75	Fixation	AvoidedLoss	True
712.416	0.29	Lose2	0.6446999999999999	0.004	Yes	2.93	-0.004	2.0	GoodResponse	0	0.27	711.686	14	75	Target	AvoidedLoss	True
712.686	0.3	Lose2	0.6446999999999999	0.004	Yes	2.93	-0.004	2.0	GoodResponse	0	0.27	n/a	14	75	ButtonPress	AvoidedLoss	True
712.717	0.41	Lose2	0.6446999999999999	n/a	Yes	2.93	n/a	n/a	GoodResponse	0	n/a	n/a	14	75	Blank	AvoidedLoss	True
713.118	1.45	Lose2	0.6446999999999999	n/a	Yes	2.93	n/a	5.0	GoodResponse	0	0.017	712.135	14	75	Feedback	AvoidedLoss	True
714.572	2.93	Lose2	0.6446999999999999	n/a	Yes	2.93	n/a	n/a	GoodResponse	0	0.0	n/a	14	75	ISIslide	AvoidedLoss	True
717.514	0.25	Control	0.6494	0.001	Yes	3.236	0.014	n/a	GoodResponse	0	n/a	n/a	14	76	Cue	Neutral	True
717.765	4.05	Control	0.6494	0.0	Yes	3.236	0.001	n/a	GoodResponse	0	n/a	n/a	14	76	Fixation	Neutral	True
721.811	0.3	Control	0.6494	0.003	Yes	3.236	-0.003	2.0	GoodResponse	0	0.243	721.054	14	76	Target	Neutral	True
722.054	0.3	Control	0.6494	0.003	Yes	3.236	-0.003	2.0	GoodResponse	0	0.243	n/a	14	76	ButtonPress	Neutral	True
722.112	0.4	Control	0.6494	n/a	Yes	3.236	n/a	n/a	GoodResponse	0	n/a	n/a	14	76	Blank	Neutral	True
722.513	1.45	Control	0.6494	n/a	Yes	3.236	n/a	5.0	GoodResponse	0	0.036	721.549	14	76	Feedback	Neutral	True
723.967	3.236	Control	0.6494	n/a	Yes	3.236	n/a	n/a	GoodResponse	0	0.0	n/a	14	76	ISIslide	Neutral	True
727.227	0.25	Lose2	0.6537999999999999	0.0	Yes	2.573	0.027	n/a	GoodResponse	0	n/a	n/a	14	77	Cue	AvoidedLoss	True
727.478	3.95	Lose2	0.6537999999999999	0.0	Yes	2.573	0.001	n/a	GoodResponse	0	n/a	n/a	14	77	Fixation	AvoidedLoss	True
731.423	0.31	Lose2	0.6537999999999999	0.004	Yes	2.573	-0.004	2.0	GoodResponse	0	0.256	730.679	14	77	Target	AvoidedLoss	True
731.679	0.3	Lose2	0.6537999999999999	0.004	Yes	2.573	-0.004	2.0	GoodResponse	0	0.256	n/a	14	77	ButtonPress	AvoidedLoss	True
731.74	0.39	Lose2	0.6537999999999999	n/a	Yes	2.573	n/a	n/a	GoodResponse	0	n/a	n/a	14	77	Blank	AvoidedLoss	True
732.125	1.45	Lose2	0.6537999999999999	n/a	Yes	2.573	n/a	5.0	GoodResponse	0	0.034	731.159	14	77	Feedback	AvoidedLoss	True
733.579	2.573	Lose2	0.6537999999999999	n/a	Yes	2.573	n/a	n/a	GoodResponse	0	0.0	n/a	14	77	ISIslide	AvoidedLoss	True
