onset	duration	cue_type	current_mean_accuracy	duration_error	is_hit	isi_adjusted	onset_delay	response	response_type	reward	rt	rt_time	total_reward	trial_number	trial_phase	trial_type	one_press
11.109	0.25	Control	1.0	0.001	Yes	2.941	0.009	n/a	GoodResponse	0	n/a	n/a	0	0	Cue	Neutral	True
11.359	3.85	Control	1.0	0.0	Yes	2.941	0.0	n/a	GoodResponse	0	n/a	n/a	0	0	Fixation	Neutral	True
15.208	0.4	Control	1.0	0.001	Yes	2.941	-0.001	4.0	GoodResponse	0	0.285	14.493	0	0	Target	Neutral	True
15.493	0.3	Control	1.0	0.001	Yes	2.941	-0.001	4.0	GoodResponse	0	0.285	n/a	0	0	ButtonPress	Neutral	True
15.608	0.3	Control	1.0	n/a	Yes	2.941	n/a	n/a	GoodResponse	0	n/a	n/a	0	0	Blank	Neutral	True
15.908	1.45	Control	1.0	n/a	Yes	2.941	n/a	5.0	GoodResponse	0	0.018	14.926	0	0	Feedback	Neutral	True
17.357	2.941	Control	1.0	n/a	Yes	2.941	n/a	n/a	GoodResponse	0	0.0	n/a	0	0	ISIslide	Neutral	True
20.373	0.25	Lose2	1.0	0.0	Yes	2.727	0.073	n/a	GoodResponse	0	n/a	n/a	0	1	Cue	AvoidedLoss	True
20.623	4.0	Lose2	1.0	0.0	Yes	2.727	0.0	n/a	GoodResponse	0	n/a	n/a	0	1	Fixation	AvoidedLoss	True
24.621	0.39	Lose2	1.0	0.002	Yes	2.727	-0.002	4.0	GoodResponse	0	0.242	23.863	0	1	Target	AvoidedLoss	True
24.863	0.3	Lose2	1.0	0.002	Yes	2.727	-0.002	4.0	GoodResponse	0	0.242	n/a	0	1	ButtonPress	AvoidedLoss	True
25.021	0.31	Lose2	1.0	n/a	Yes	2.727	n/a	n/a	GoodResponse	0	n/a	n/a	0	1	Blank	AvoidedLoss	True
25.321	1.45	Lose2	1.0	n/a	Yes	2.727	n/a	5.0	GoodResponse	0	0.019	24.34	0	1	Feedback	AvoidedLoss	True
26.771	2.727	Lose2	1.0	n/a	Yes	2.727	n/a	n/a	GoodResponse	0	0.0	n/a	0	1	ISIslide	AvoidedLoss	True
29.52	0.25	Control	1.0	0.0	Yes	2.58	0.02	n/a	GoodResponse	0	n/a	n/a	0	2	Cue	Neutral	True
29.769	4.1	Control	1.0	0.001	Yes	2.58	-0.001	n/a	GoodResponse	0	n/a	n/a	0	2	Fixation	Neutral	True
33.868	0.38	Control	1.0	0.002	Yes	2.58	-0.002	4.0	GoodResponse	0	0.231	33.099	0	2	Target	Neutral	True
34.099	0.3	Control	1.0	0.002	Yes	2.58	-0.002	4.0	GoodResponse	0	0.231	n/a	0	2	ButtonPress	Neutral	True
34.251	0.32	Control	1.0	n/a	Yes	2.58	n/a	n/a	GoodResponse	0	n/a	n/a	0	2	Blank	Neutral	True
34.568	1.45	Control	1.0	n/a	Yes	2.58	n/a	5.0	GoodResponse	0	0.041	33.609	0	2	Feedback	Neutral	True
36.017	2.58	Control	1.0	n/a	Yes	2.58	n/a	n/a	GoodResponse	0	0.0	n/a	0	2	ISIslide	Neutral	True
38.633	0.25	Win2	1.0	0.0	Yes	2.817	0.033	n/a	GoodResponse	1	n/a	n/a	1	3	Cue	Win	True
38.883	3.95	Win2	1.0	0.0	Yes	2.817	0.0	n/a	GoodResponse	1	n/a	n/a	1	3	Fixation	Win	True
42.832	0.37	Win2	1.0	0.001	Yes	2.817	-0.001	4.0	GoodResponse	1	0.207	42.039	1	3	Target	Win	True
43.039	0.3	Win2	1.0	0.001	Yes	2.817	-0.001	4.0	GoodResponse	1	0.207	n/a	1	3	ButtonPress	Win	True
43.215	0.33	Win2	1.0	n/a	Yes	2.817	n/a	n/a	GoodResponse	1	n/a	n/a	1	3	Blank	Win	True
43.531	1.45	Win2	1.0	n/a	Yes	2.817	n/a	5.0	GoodResponse	1	0.007	42.538	1	3	Feedback	Win	True
44.981	2.817	Win2	1.0	n/a	Yes	2.817	n/a	n/a	GoodResponse	1	0.0	n/a	1	3	ISIslide	Win	True
47.83	0.25	Win2	1.0	0.0	Yes	3.27	0.03	n/a	GoodResponse	1	n/a	n/a	2	4	Cue	Win	True
48.08	4.0	Win2	1.0	0.0	Yes	3.27	0.0	n/a	GoodResponse	1	n/a	n/a	2	4	Fixation	Win	True
52.078	0.36	Win2	1.0	0.002	Yes	3.27	-0.002	4.0	GoodResponse	1	0.215	51.293	2	4	Target	Win	True
52.293	0.3	Win2	1.0	0.002	Yes	3.27	-0.002	4.0	GoodResponse	1	0.215	n/a	2	4	ButtonPress	Win	True
52.445	0.34	Win2	1.0	n/a	Yes	3.27	n/a	n/a	GoodResponse	1	n/a	n/a	2	4	Blank	Win	True
52.778	1.45	Win2	1.0	n/a	Yes	3.27	n/a	5.0	GoodResponse	1	0.025	51.803	2	4	Feedback	Win	True
54.227	3.27	Win2	1.0	n/a	Yes	3.27	n/a	n/a	GoodResponse	1	0.0	n/a	2	4	ISIslide	Win	True
57.526	0.25	Win2	1.0	0.0	Yes	2.774	0.026	n/a	GoodResponse	1	n/a	n/a	3	5	Cue	Win	True
57.776	4.0	Win2	1.0	0.0	Yes	2.774	0.0	n/a	GoodResponse	1	n/a	n/a	3	5	Fixation	Win	True
61.775	0.35	Win2	1.0	0.001	Yes	2.774	-0.001	4.0	GoodResponse	1	0.212	60.987	3	5	Target	Win	True
61.987	0.3	Win2	1.0	0.001	Yes	2.774	-0.001	4.0	GoodResponse	1	0.212	n/a	3	5	ButtonPress	Win	True
62.125	0.35	Win2	1.0	n/a	Yes	2.774	n/a	n/a	GoodResponse	1	n/a	n/a	3	5	Blank	Win	True
62.475	1.45	Win2	1.0	n/a	Yes	2.774	n/a	5.0	GoodResponse	1	0.036	61.511	3	5	Feedback	Win	True
63.924	2.774	Win2	1.0	n/a	Yes	2.774	n/a	n/a	GoodResponse	1	0.0	n/a	3	5	ISIslide	Win	True
66.723	0.25	Lose2	1.0	0.0	Yes	2.727	0.023	n/a	GoodResponse	0	n/a	n/a	3	6	Cue	AvoidedLoss	True
66.973	3.95	Lose2	1.0	0.0	Yes	2.727	0.0	n/a	GoodResponse	0	n/a	n/a	3	6	Fixation	AvoidedLoss	True
70.922	0.34	Lose2	1.0	0.001	Yes	2.727	-0.001	4.0	GoodResponse	0	0.248	70.17	3	6	Target	AvoidedLoss	True
71.17	0.3	Lose2	1.0	0.001	Yes	2.727	-0.001	4.0	GoodResponse	0	0.248	n/a	3	6	ButtonPress	AvoidedLoss	True
71.271	0.36	Lose2	1.0	n/a	Yes	2.727	n/a	n/a	GoodResponse	0	n/a	n/a	3	6	Blank	AvoidedLoss	True
71.621	1.45	Lose2	1.0	n/a	Yes	2.727	n/a	5.0	GoodResponse	0	0.012	70.633	3	6	Feedback	AvoidedLoss	True
73.071	2.727	Lose2	1.0	n/a	Yes	2.727	n/a	n/a	GoodResponse	0	0.0	n/a	3	6	ISIslide	AvoidedLoss	True
75.82	0.25	Lose2	1.0	0.0	Yes	4.03	0.02	n/a	GoodResponse	0	n/a	n/a	3	7	Cue	AvoidedLoss	True
76.07	4.05	Lose2	1.0	0.0	Yes	4.03	0.0	n/a	GoodResponse	0	n/a	n/a	3	7	Fixation	AvoidedLoss	True
80.118	0.33	Lose2	1.0	0.002	Yes	4.03	-0.002	4.0	GoodResponse	0	0.23	79.348	3	7	Target	AvoidedLoss	True
80.348	0.3	Lose2	1.0	0.002	Yes	4.03	-0.002	4.0	GoodResponse	0	0.23	n/a	3	7	ButtonPress	AvoidedLoss	True
80.451	0.37	Lose2	1.0	n/a	Yes	4.03	n/a	n/a	GoodResponse	0	n/a	n/a	3	7	Blank	AvoidedLoss	True
80.818	1.45	Lose2	1.0	n/a	Yes	4.03	n/a	5.0	GoodResponse	0	0.034	79.852	3	7	Feedback	AvoidedLoss	True
82.267	4.03	Lose2	1.0	n/a	Yes	4.03	n/a	n/a	GoodResponse	0	0.0	n/a	3	7	ISIslide	AvoidedLoss	True
86.316	0.25	Lose2	1.0	0.0	Yes	3.034	0.016	n/a	GoodResponse	0	n/a	n/a	3	8	Cue	AvoidedLoss	True
86.566	3.95	Lose2	1.0	0.0	Yes	3.034	0.0	n/a	GoodResponse	0	n/a	n/a	3	8	Fixation	AvoidedLoss	True
90.515	0.32	Lose2	1.0	0.001	Yes	3.034	-0.001	4.0	GoodResponse	0	0.219	89.734	3	8	Target	AvoidedLoss	True
90.734	0.3	Lose2	1.0	0.001	Yes	3.034	-0.001	4.0	GoodResponse	0	0.219	n/a	3	8	ButtonPress	AvoidedLoss	True
90.848	0.38	Lose2	1.0	n/a	Yes	3.034	n/a	n/a	GoodResponse	0	n/a	n/a	3	8	Blank	AvoidedLoss	True
91.214	1.45	Lose2	1.0	n/a	Yes	3.034	n/a	5.0	GoodResponse	0	0.028	90.242	3	8	Feedback	AvoidedLoss	True
92.664	3.034	Lose2	1.0	n/a	Yes	3.034	n/a	n/a	GoodResponse	0	0.0	n/a	3	8	ISIslide	AvoidedLoss	True
95.729	0.25	Lose2	1.0	0.0	Yes	3.121	0.029	n/a	GoodResponse	0	n/a	n/a	3	9	Cue	AvoidedLoss	True
95.979	3.95	Lose2	1.0	0.0	Yes	3.121	0.0	n/a	GoodResponse	0	n/a	n/a	3	9	Fixation	AvoidedLoss	True
99.928	0.31	Lose2	1.0	0.001	Yes	3.121	-0.001	4.0	GoodResponse	0	0.231	99.159	3	9	Target	AvoidedLoss	True
100.159	0.3	Lose2	1.0	0.001	Yes	3.121	-0.001	4.0	GoodResponse	0	0.231	n/a	3	9	ButtonPress	AvoidedLoss	True
100.244	0.39	Lose2	1.0	n/a	Yes	3.121	n/a	n/a	GoodResponse	0	n/a	n/a	3	9	Blank	AvoidedLoss	True
100.628	1.45	Lose2	1.0	n/a	Yes	3.121	n/a	5.0	GoodResponse	0	0.028	99.656	3	9	Feedback	AvoidedLoss	True
102.077	3.121	Lose2	1.0	n/a	Yes	3.121	n/a	n/a	GoodResponse	0	0.0	n/a	3	9	ISIslide	AvoidedLoss	True
105.226	0.25	Control	1.0	0.0	Yes	3.274	0.026	n/a	GoodResponse	0	n/a	n/a	3	10	Cue	Neutral	True
105.476	4.0	Control	1.0	0.0	Yes	3.274	0.0	n/a	GoodResponse	0	n/a	n/a	3	10	Fixation	Neutral	True
109.475	0.3	Control	1.0	0.001	Yes	3.274	-0.001	4.0	GoodResponse	0	0.219	108.694	3	10	Target	Neutral	True
109.694	0.3	Control	1.0	0.001	Yes	3.274	-0.001	4.0	GoodResponse	0	0.219	n/a	3	10	ButtonPress	Neutral	True
109.774	0.4	Control	1.0	n/a	Yes	3.274	n/a	n/a	GoodResponse	0	n/a	n/a	3	10	Blank	Neutral	True
110.174	1.45	Control	1.0	n/a	Yes	3.274	n/a	5.0	GoodResponse	0	0.044	109.218	3	10	Feedback	Neutral	True
111.624	3.274	Control	1.0	n/a	Yes	3.274	n/a	n/a	GoodResponse	0	0.0	n/a	3	10	ISIslide	Neutral	True
114.923	0.25	Lose2	1.0	0.0	Yes	2.727	0.023	n/a	GoodResponse	0	n/a	n/a	3	11	Cue	AvoidedLoss	True
115.172	4.05	Lose2	1.0	0.001	Yes	2.727	-0.001	n/a	GoodResponse	0	n/a	n/a	3	11	Fixation	AvoidedLoss	True
119.221	0.29	Lose2	1.0	0.002	Yes	2.727	-0.002	4.0	GoodResponse	0	0.233	118.454	3	11	Target	AvoidedLoss	True
119.454	0.3	Lose2	1.0	0.002	Yes	2.727	-0.002	4.0	GoodResponse	0	0.233	n/a	3	11	ButtonPress	AvoidedLoss	True
119.521	0.41	Lose2	1.0	n/a	Yes	2.727	n/a	n/a	GoodResponse	0	n/a	n/a	3	11	Blank	AvoidedLoss	True
119.921	1.45	Lose2	1.0	n/a	Yes	2.727	n/a	5.0	GoodResponse	0	0.008	118.929	3	11	Feedback	AvoidedLoss	True
121.37	2.727	Lose2	1.0	n/a	Yes	2.727	n/a	n/a	GoodResponse	0	0.0	n/a	3	11	ISIslide	AvoidedLoss	True
124.119	0.25	Control	1.0	0.0	Yes	2.981	0.019	n/a	GoodResponse	0	n/a	n/a	3	12	Cue	Neutral	False
124.369	3.9	Control	1.0	0.0	Yes	2.981	0.0	4.0	GoodResponse	0	2.247	125.616	3	12	Fixation	Neutral	False
126.616	0.3	Control	1.0	0.0	Yes	2.981	0.0	4.0	GoodResponse	0	2.247	n/a	3	12	ButtonPress	Neutral	False
128.268	0.28	Control	1.0	0.001	Yes	2.981	-0.001	4.0	GoodResponse	0	0.227	127.495	3	12	Target	Neutral	False
128.495	0.3	Control	1.0	0.001	Yes	2.981	-0.001	4.0	GoodResponse	0	0.227	n/a	3	12	ButtonPress	Neutral	False
128.551	0.42	Control	1.0	n/a	Yes	2.981	n/a	n/a	GoodResponse	0	n/a	n/a	3	12	Blank	Neutral	False
128.968	1.45	Control	1.0	n/a	Yes	2.981	n/a	5.0	GoodResponse	0	0.029	127.997	3	12	Feedback	Neutral	False
130.417	2.981	Control	1.0	n/a	Yes	2.981	n/a	n/a	GoodResponse	0	0.0	n/a	3	12	ISIslide	Neutral	False
133.433	0.25	Control	0.9286	0.0	No	2.767	0.033	n/a	NoResponse	0	n/a	n/a	3	13	Cue	Neutral	True
133.683	4.0	Control	0.9286	0.0	No	2.767	0.0	n/a	NoResponse	0	n/a	n/a	3	13	Fixation	Neutral	True
137.681	0.27	Control	0.9286	0.002	No	2.767	-0.002	4.0	NoResponse	0	0.431	137.112	3	13	Target	Neutral	True
137.964	0.43	Control	0.9286	n/a	No	2.767	n/a	n/a	NoResponse	0	n/a	n/a	3	13	Blank	Neutral	True
138.112	0.3	Control	0.9286	0.002	No	2.767	-0.002	4.0	NoResponse	0	0.431	n/a	3	13	ButtonPress	Neutral	True
138.381	1.45	Control	0.9286	n/a	No	2.767	n/a	5.0	NoResponse	0	0.031	137.412	3	13	Feedback	Neutral	True
139.83	2.767	Control	0.9286	n/a	No	2.767	n/a	n/a	NoResponse	0	0.0	n/a	3	13	ISIslide	Neutral	True
142.613	0.25	Win2	0.9333	0.0	Yes	2.687	0.013	n/a	GoodResponse	1	n/a	n/a	4	14	Cue	Win	True
142.863	4.1	Win2	0.9333	0.0	Yes	2.687	0.0	n/a	GoodResponse	1	n/a	n/a	4	14	Fixation	Win	True
146.961	0.26	Win2	0.9333	0.002	Yes	2.687	-0.002	4.0	GoodResponse	1	0.217	146.178	4	14	Target	Win	True
147.178	0.3	Win2	0.9333	0.002	Yes	2.687	-0.002	4.0	GoodResponse	1	0.217	n/a	4	14	ButtonPress	Win	True
147.228	0.44	Win2	0.9333	n/a	Yes	2.687	n/a	n/a	GoodResponse	1	n/a	n/a	4	14	Blank	Win	True
147.661	1.45	Win2	0.9333	n/a	Yes	2.687	n/a	5.0	GoodResponse	1	0.019	146.68	4	14	Feedback	Win	True
149.11	2.687	Win2	0.9333	n/a	Yes	2.687	n/a	n/a	GoodResponse	1	0.0	n/a	4	14	ISIslide	Win	True
151.826	0.25	Control	0.9375	0.0	Yes	2.974	0.026	n/a	GoodResponse	0	n/a	n/a	4	15	Cue	Neutral	True
152.076	4.0	Control	0.9375	0.0	Yes	2.974	0.0	n/a	GoodResponse	0	n/a	n/a	4	15	Fixation	Neutral	True
156.075	0.25	Control	0.9375	0.001	Yes	2.974	-0.001	4.0	GoodResponse	0	0.244	155.319	4	15	Target	Neutral	True
156.319	0.3	Control	0.9375	0.001	Yes	2.974	-0.001	4.0	GoodResponse	0	0.244	n/a	4	15	ButtonPress	Neutral	True
156.324	0.45	Control	0.9375	n/a	Yes	2.974	n/a	n/a	GoodResponse	0	n/a	n/a	4	15	Blank	Neutral	True
156.774	1.45	Control	0.9375	n/a	Yes	2.974	n/a	5.0	GoodResponse	0	0.028	155.802	4	15	Feedback	Neutral	True
158.224	2.974	Control	0.9375	n/a	Yes	2.974	n/a	n/a	GoodResponse	0	0.0	n/a	4	15	ISIslide	Neutral	True
161.223	0.25	Win2	0.9412	0.0	Yes	2.877	0.023	n/a	GoodResponse	1	n/a	n/a	5	16	Cue	Win	True
161.473	4.0	Win2	0.9412	0.0	Yes	2.877	0.0	n/a	GoodResponse	1	n/a	n/a	5	16	Fixation	Win	True
165.471	0.24	Win2	0.9412	0.002	Yes	2.877	-0.002	4.0	GoodResponse	1	0.227	164.698	5	16	Target	Win	True
165.698	0.3	Win2	0.9412	0.002	Yes	2.877	-0.002	4.0	GoodResponse	1	0.227	n/a	5	16	ButtonPress	Win	True
165.721	0.46	Win2	0.9412	n/a	Yes	2.877	n/a	n/a	GoodResponse	1	n/a	n/a	5	16	Blank	Win	True
166.171	1.45	Win2	0.9412	n/a	Yes	2.877	n/a	5.0	GoodResponse	1	0.045	165.216	5	16	Feedback	Win	True
167.62	2.877	Win2	0.9412	n/a	Yes	2.877	n/a	n/a	GoodResponse	1	0.0	n/a	5	16	ISIslide	Win	True
170.519	0.25	Lose2	0.9444	0.001	Yes	2.731	0.019	n/a	GoodResponse	0	n/a	n/a	5	17	Cue	AvoidedLoss	True
170.769	3.95	Lose2	0.9444	0.0	Yes	2.731	0.0	n/a	GoodResponse	0	n/a	n/a	5	17	Fixation	AvoidedLoss	True
174.718	0.23	Lose2	0.9444	0.001	Yes	2.731	-0.001	4.0	GoodResponse	0	0.227	173.945	5	17	Target	AvoidedLoss	True
174.945	0.3	Lose2	0.9444	0.001	Yes	2.731	-0.001	4.0	GoodResponse	0	0.227	n/a	5	17	ButtonPress	AvoidedLoss	True
174.951	0.47	Lose2	0.9444	n/a	Yes	2.731	n/a	n/a	GoodResponse	0	n/a	n/a	5	17	Blank	AvoidedLoss	True
175.418	1.45	Lose2	0.9444	n/a	Yes	2.731	n/a	5.0	GoodResponse	0	0.018	174.436	5	17	Feedback	AvoidedLoss	True
176.867	2.731	Lose2	0.9444	n/a	Yes	2.731	n/a	n/a	GoodResponse	0	0.0	n/a	5	17	ISIslide	AvoidedLoss	True
179.616	0.25	Lose2	0.8946999999999999	0.0	No	2.734	0.016	n/a	NoResponse	-1	n/a	n/a	4	18	Cue	Loss	True
179.866	4.05	Lose2	0.8946999999999999	0.0	No	2.734	0.0	n/a	NoResponse	-1	n/a	n/a	4	18	Fixation	Loss	True
183.915	0.22	Lose2	0.8946999999999999	0.001	No	2.734	-0.001	4.0	NoResponse	-1	0.248	183.163	4	18	Target	Loss	True
184.148	0.48	Lose2	0.8946999999999999	n/a	No	2.734	n/a	n/a	NoResponse	-1	n/a	n/a	4	18	Blank	Loss	True
184.163	0.3	Lose2	0.8946999999999999	0.001	No	2.734	-0.001	4.0	NoResponse	-1	0.248	n/a	4	18	ButtonPress	Loss	True
184.614	1.45	Lose2	0.8946999999999999	n/a	No	2.734	n/a	5.0	NoResponse	-1	0.041	183.655	4	18	Feedback	Loss	True
186.064	2.734	Lose2	0.8946999999999999	n/a	No	2.734	n/a	n/a	NoResponse	-1	0.0	n/a	4	18	ISIslide	Loss	True
188.83	0.25	Control	0.85	0.0	No	2.92	0.03	n/a	NoResponse	0	n/a	n/a	4	19	Cue	Neutral	True
189.08	3.95	Control	0.85	0.0	No	2.92	0.0	n/a	NoResponse	0	n/a	n/a	4	19	Fixation	Neutral	True
193.028	0.21	Control	0.85	0.002	No	2.92	-0.002	4.0	NoResponse	0	0.223	192.251	4	19	Target	Neutral	True
193.245	0.49	Control	0.85	n/a	No	2.92	n/a	n/a	NoResponse	0	n/a	n/a	4	19	Blank	Neutral	True
193.251	0.3	Control	0.85	0.002	No	2.92	-0.002	4.0	NoResponse	0	0.223	n/a	4	19	ButtonPress	Neutral	True
193.728	1.45	Control	0.85	n/a	No	2.92	n/a	5.0	NoResponse	0	0.001	192.729	4	19	Feedback	Neutral	True
195.177	2.92	Control	0.85	n/a	No	2.92	n/a	n/a	NoResponse	0	0.0	n/a	4	19	ISIslide	Neutral	True
198.126	0.25	Control	0.8095	0.0	No	2.624	0.026	n/a	NoResponse	0	n/a	n/a	4	20	Cue	Neutral	True
198.376	4.05	Control	0.8095	0.0	No	2.624	0.0	n/a	NoResponse	0	n/a	n/a	4	20	Fixation	Neutral	True
202.425	0.2	Control	0.8095	0.001	No	2.624	-0.001	4.0	NoResponse	0	0.223	201.648	4	20	Target	Neutral	True
202.625	0.5	Control	0.8095	n/a	No	2.624	n/a	n/a	NoResponse	0	n/a	n/a	4	20	Blank	Neutral	True
202.648	0.3	Control	0.8095	0.001	No	2.624	-0.001	4.0	NoResponse	0	0.223	n/a	4	20	ButtonPress	Neutral	True
203.125	1.45	Control	0.8095	n/a	No	2.624	n/a	5.0	NoResponse	0	0.017	202.142	4	20	Feedback	Neutral	True
204.574	2.624	Control	0.8095	n/a	No	2.624	n/a	n/a	NoResponse	0	0.0	n/a	4	20	ISIslide	Neutral	True
207.223	0.25	Control	0.7726999999999999	0.0	No	2.777	0.023	n/a	NoResponse	0	n/a	n/a	4	21	Cue	Neutral	True
207.473	4.1	Control	0.7726999999999999	0.0	No	2.777	0.0	n/a	NoResponse	0	n/a	n/a	4	21	Fixation	Neutral	True
211.572	0.19	Control	0.7726999999999999	0.001	No	2.777	-0.001	4.0	NoResponse	0	0.21	210.782	4	21	Target	Neutral	True
211.771	0.51	Control	0.7726999999999999	n/a	No	2.777	n/a	n/a	NoResponse	0	n/a	n/a	4	21	Blank	Neutral	True
211.782	0.3	Control	0.7726999999999999	0.001	No	2.777	-0.001	4.0	NoResponse	0	0.21	n/a	4	21	ButtonPress	Neutral	True
212.271	1.45	Control	0.7726999999999999	n/a	No	2.777	n/a	5.0	NoResponse	0	0.042	211.313	4	21	Feedback	Neutral	True
213.721	2.777	Control	0.7726999999999999	n/a	No	2.777	n/a	n/a	NoResponse	0	0.0	n/a	4	21	ISIslide	Neutral	True
216.52	0.25	Control	0.7391	0.0	No	2.78	0.02	n/a	NoResponse	0	n/a	n/a	4	22	Cue	Neutral	True
216.77	4.0	Control	0.7391	0.0	No	2.78	0.0	n/a	NoResponse	0	n/a	n/a	4	22	Fixation	Neutral	True
220.768	0.18	Control	0.7391	0.002	No	2.78	-0.002	4.0	NoResponse	0	0.218	219.986	4	22	Target	Neutral	True
220.951	0.52	Control	0.7391	n/a	No	2.78	n/a	n/a	NoResponse	0	n/a	n/a	4	22	Blank	Neutral	True
220.986	0.3	Control	0.7391	0.002	No	2.78	-0.002	4.0	NoResponse	0	0.218	n/a	4	22	ButtonPress	Neutral	True
221.468	1.45	Control	0.7391	n/a	No	2.78	n/a	5.0	NoResponse	0	0.016	220.484	4	22	Feedback	Neutral	True
222.917	2.78	Control	0.7391	n/a	No	2.78	n/a	n/a	NoResponse	0	0.0	n/a	4	22	ISIslide	Neutral	True
225.716	0.25	Control	0.7082999999999999	0.001	No	2.784	0.016	n/a	NoResponse	0	n/a	n/a	4	23	Cue	Neutral	True
225.966	3.9	Control	0.7082999999999999	0.0	No	2.784	0.0	n/a	NoResponse	0	n/a	n/a	4	23	Fixation	Neutral	True
229.865	0.17	Control	0.7082999999999999	0.001	No	2.784	-0.001	4.0	NoResponse	0	0.212	229.077	4	23	Target	Neutral	True
230.032	0.53	Control	0.7082999999999999	n/a	No	2.784	n/a	n/a	NoResponse	0	n/a	n/a	4	23	Blank	Neutral	True
230.077	0.3	Control	0.7082999999999999	0.001	No	2.784	-0.001	4.0	NoResponse	0	0.212	n/a	4	23	ButtonPress	Neutral	True
230.565	1.45	Control	0.7082999999999999	n/a	No	2.784	n/a	5.0	NoResponse	0	0.041	229.606	4	23	Feedback	Neutral	True
232.014	2.784	Control	0.7082999999999999	n/a	No	2.784	n/a	n/a	NoResponse	0	0.0	n/a	4	23	ISIslide	Neutral	True
234.83	0.25	Win2	0.68	0.0	No	3.12	0.03	n/a	NoResponse	0	n/a	n/a	4	24	Cue	MissedWin	True
235.08	3.95	Win2	0.68	0.0	No	3.12	0.0	n/a	NoResponse	0	n/a	n/a	4	24	Fixation	MissedWin	True
239.028	0.16	Win2	0.68	0.002	No	3.12	-0.002	4.0	NoResponse	0	0.209	238.237	4	24	Target	MissedWin	True
239.195	0.54	Win2	0.68	n/a	No	3.12	n/a	n/a	NoResponse	0	n/a	n/a	4	24	Blank	MissedWin	True
239.237	0.3	Win2	0.68	0.002	No	3.12	-0.002	4.0	NoResponse	0	0.209	n/a	4	24	ButtonPress	MissedWin	True
239.728	1.45	Win2	0.68	n/a	No	3.12	n/a	5.0	NoResponse	0	0.048	238.776	4	24	Feedback	MissedWin	True
241.178	3.12	Win2	0.68	n/a	No	3.12	n/a	n/a	NoResponse	0	0.0	n/a	4	24	ISIslide	MissedWin	True
244.327	0.25	Win2	0.6537999999999999	0.0	No	3.073	0.027	n/a	NoResponse	0	n/a	n/a	4	25	Cue	MissedWin	True
244.576	4.0	Win2	0.6537999999999999	0.001	No	3.073	-0.001	n/a	NoResponse	0	n/a	n/a	4	25	Fixation	MissedWin	True
248.575	0.15	Win2	0.6537999999999999	0.002	No	3.073	-0.002	4.0	NoResponse	0	0.202	247.777	4	25	Target	MissedWin	True
248.725	0.55	Win2	0.6537999999999999	n/a	No	3.073	n/a	n/a	NoResponse	0	n/a	n/a	4	25	Blank	MissedWin	True
248.777	0.3	Win2	0.6537999999999999	0.002	No	3.073	-0.002	4.0	NoResponse	0	0.202	n/a	4	25	ButtonPress	MissedWin	True
249.275	1.45	Win2	0.6537999999999999	n/a	No	3.073	n/a	5.0	NoResponse	0	0.013	248.288	4	25	Feedback	MissedWin	True
250.724	3.073	Win2	0.6537999999999999	n/a	No	3.073	n/a	n/a	NoResponse	0	0.0	n/a	4	25	ISIslide	MissedWin	True
253.823	0.25	Win2	0.6296	0.0	No	2.927	0.023	n/a	NoResponse	0	n/a	n/a	4	26	Cue	MissedWin	True
254.073	3.95	Win2	0.6296	0.0	No	2.927	0.0	n/a	NoResponse	0	n/a	n/a	4	26	Fixation	MissedWin	True
258.022	0.16	Win2	0.6296	0.001	No	2.927	-0.001	4.0	NoResponse	0	0.232	257.254	4	26	Target	MissedWin	True
258.188	0.54	Win2	0.6296	n/a	No	2.927	n/a	n/a	NoResponse	0	n/a	n/a	4	26	Blank	MissedWin	True
258.254	0.3	Win2	0.6296	0.001	No	2.927	-0.001	4.0	NoResponse	0	0.232	n/a	4	26	ButtonPress	MissedWin	True
258.721	1.45	Win2	0.6296	n/a	No	2.927	n/a	5.0	NoResponse	0	0.031	257.752	4	26	Feedback	MissedWin	True
260.171	2.927	Win2	0.6296	n/a	No	2.927	n/a	n/a	NoResponse	0	0.0	n/a	4	26	ISIslide	MissedWin	True
263.12	0.25	Lose2	0.6071	0.0	No	2.83	0.02	n/a	NoResponse	-1	n/a	n/a	3	27	Cue	Loss	True
263.37	4.05	Lose2	0.6071	0.0	No	2.83	0.0	n/a	NoResponse	-1	n/a	n/a	3	27	Fixation	Loss	True
267.418	0.17	Lose2	0.6071	0.002	No	2.83	-0.002	4.0	NoResponse	-1	0.245	266.663	3	27	Target	Loss	True
267.602	0.53	Lose2	0.6071	n/a	No	2.83	n/a	n/a	NoResponse	-1	n/a	n/a	3	27	Blank	Loss	True
267.663	0.3	Lose2	0.6071	0.002	No	2.83	-0.002	4.0	NoResponse	-1	0.245	n/a	3	27	ButtonPress	Loss	True
268.118	1.45	Lose2	0.6071	n/a	No	2.83	n/a	5.0	NoResponse	-1	0.049	267.167	3	27	Feedback	Loss	True
269.568	2.83	Lose2	0.6071	n/a	No	2.83	n/a	n/a	NoResponse	-1	0.0	n/a	3	27	ISIslide	Loss	True
272.417	0.25	Control	0.5861999999999999	0.0	No	2.833	0.017	n/a	NoResponse	0	n/a	n/a	3	28	Cue	Neutral	True
272.666	4.05	Control	0.5861999999999999	0.001	No	2.833	-0.001	n/a	NoResponse	0	n/a	n/a	3	28	Fixation	Neutral	True
276.715	0.18	Control	0.5861999999999999	0.002	No	2.833	-0.002	4.0	NoResponse	0	0.238	275.953	3	28	Target	Neutral	True
276.898	0.52	Control	0.5861999999999999	n/a	No	2.833	n/a	n/a	NoResponse	0	n/a	n/a	3	28	Blank	Neutral	True
276.953	0.3	Control	0.5861999999999999	0.002	No	2.833	-0.002	4.0	NoResponse	0	0.238	n/a	3	28	ButtonPress	Neutral	True
277.415	1.45	Control	0.5861999999999999	n/a	No	2.833	n/a	5.0	NoResponse	0	0.019	276.434	3	28	Feedback	Neutral	True
278.864	2.833	Control	0.5861999999999999	n/a	No	2.833	n/a	n/a	NoResponse	0	0.0	n/a	3	28	ISIslide	Neutral	True
281.713	0.25	Lose2	0.5667	0.0	No	2.837	0.013	n/a	LatePress	-1	n/a	n/a	2	29	Cue	Loss	True
281.963	3.95	Lose2	0.5667	0.0	No	2.837	0.0	n/a	LatePress	-1	n/a	n/a	2	29	Fixation	Loss	True
285.912	0.19	Lose2	0.5667	0.001	No	2.837	-0.001	4.0	LatePress	-1	0.199	285.111	2	29	Target	Loss	True
286.111	0.3	Lose2	0.5667	0.001	No	2.837	-0.001	4.0	LatePress	-1	0.199	n/a	2	29	ButtonPress	Loss	True
286.112	0.51	Lose2	0.5667	n/a	No	2.837	n/a	n/a	LatePress	-1	n/a	n/a	2	29	Blank	Loss	True
286.611	1.45	Lose2	0.5667	n/a	No	2.837	n/a	5.0	LatePress	-1	0.043	285.654	2	29	Feedback	Loss	True
288.061	2.837	Lose2	0.5667	n/a	No	2.837	n/a	n/a	LatePress	-1	0.0	n/a	2	29	ISIslide	Loss	True
290.927	0.25	Win2	0.5484	0.0	No	2.773	0.027	n/a	NoResponse	0	n/a	n/a	2	30	Cue	MissedWin	True
291.177	3.9	Win2	0.5484	0.0	No	2.773	0.0	n/a	NoResponse	0	n/a	n/a	2	30	Fixation	MissedWin	True
295.075	0.2	Win2	0.5484	0.002	No	2.773	-0.002	4.0	NoResponse	0	0.209	294.284	2	30	Target	MissedWin	True
295.275	0.5	Win2	0.5484	n/a	No	2.773	n/a	n/a	NoResponse	0	n/a	n/a	2	30	Blank	MissedWin	True
295.284	0.3	Win2	0.5484	0.002	No	2.773	-0.002	4.0	NoResponse	0	0.209	n/a	2	30	ButtonPress	MissedWin	True
295.775	1.45	Win2	0.5484	n/a	No	2.773	n/a	5.0	NoResponse	0	0.001	294.776	2	30	Feedback	MissedWin	True
297.224	2.773	Win2	0.5484	n/a	No	2.773	n/a	n/a	NoResponse	0	0.0	n/a	2	30	ISIslide	MissedWin	True
300.023	0.25	Lose2	0.5312	0.001	No	2.827	0.023	n/a	NoResponse	-1	n/a	n/a	1	31	Cue	Loss	True
300.273	4.05	Lose2	0.5312	0.0	No	2.827	0.0	4.0	NoResponse	-1	1.932	301.205	1	31	Fixation	Loss	True
302.205	0.3	Lose2	0.5312	0.0	No	2.827	0.0	4.0	NoResponse	-1	1.932	n/a	1	31	ButtonPress	Loss	True
304.322	0.21	Lose2	0.5312	0.001	No	2.827	-0.001	n/a	NoResponse	-1	n/a	n/a	1	31	Target	Loss	True
304.538	0.49	Lose2	0.5312	n/a	No	2.827	n/a	n/a	NoResponse	-1	n/a	n/a	1	31	Blank	Loss	True
305.038	1.45	Lose2	0.5312	n/a	No	2.827	n/a	5.0	NoResponse	-1	0.006	304.044	1	31	Feedback	Loss	True
306.471	2.827	Lose2	0.5312	n/a	No	2.827	n/a	n/a	NoResponse	-1	0.0	n/a	1	31	ISIslide	Loss	True
309.32	0.25	Lose2	0.5455	0.0	Yes	2.63	0.02	n/a	GoodResponse	0	n/a	n/a	1	32	Cue	AvoidedLoss	True
309.57	4.15	Lose2	0.5455	0.0	Yes	2.63	0.0	n/a	GoodResponse	0	n/a	n/a	1	32	Fixation	AvoidedLoss	True
313.719	0.22	Lose2	0.5455	0.001	Yes	2.63	-0.001	4.0	GoodResponse	0	0.191	312.91	1	32	Target	AvoidedLoss	True
313.91	0.3	Lose2	0.5455	0.001	Yes	2.63	-0.001	4.0	GoodResponse	0	0.191	n/a	1	32	ButtonPress	AvoidedLoss	True
313.952	0.48	Lose2	0.5455	n/a	Yes	2.63	n/a	n/a	GoodResponse	0	n/a	n/a	1	32	Blank	AvoidedLoss	True
314.418	1.45	Lose2	0.5455	n/a	Yes	2.63	n/a	5.0	GoodResponse	0	0.04	313.458	1	32	Feedback	AvoidedLoss	True
315.868	2.63	Lose2	0.5455	n/a	Yes	2.63	n/a	n/a	GoodResponse	0	0.0	n/a	1	32	ISIslide	AvoidedLoss	True
318.517	0.25	Win2	0.5588000000000001	0.0	Yes	2.683	0.017	n/a	GoodResponse	1	n/a	n/a	2	33	Cue	Win	True
318.767	4.0	Win2	0.5588000000000001	0.0	Yes	2.683	0.0	n/a	GoodResponse	1	n/a	n/a	2	33	Fixation	Win	True
322.765	0.23	Win2	0.5588000000000001	0.002	Yes	2.683	-0.002	4.0	GoodResponse	1	0.198	321.963	2	33	Target	Win	True
322.963	0.3	Win2	0.5588000000000001	0.002	Yes	2.683	-0.002	4.0	GoodResponse	1	0.198	n/a	2	33	ButtonPress	Win	True
322.999	0.47	Win2	0.5588000000000001	n/a	Yes	2.683	n/a	n/a	GoodResponse	1	n/a	n/a	2	33	Blank	Win	True
323.465	1.45	Win2	0.5588000000000001	n/a	Yes	2.683	n/a	5.0	GoodResponse	1	0.017	322.482	2	33	Feedback	Win	True
324.915	2.683	Win2	0.5588000000000001	n/a	Yes	2.683	n/a	n/a	GoodResponse	1	0.0	n/a	2	33	ISIslide	Win	True
327.614	0.25	Lose2	0.5714	0.0	Yes	2.636	0.014	n/a	GoodResponse	0	n/a	n/a	2	34	Cue	AvoidedLoss	False
327.863	4.05	Lose2	0.5714	0.001	Yes	2.636	-0.001	4.0	GoodResponse	0	3.002	329.865	2	34	Fixation	AvoidedLoss	False
330.865	0.3	Lose2	0.5714	0.001	Yes	2.636	-0.001	4.0	GoodResponse	0	3.002	n/a	2	34	ButtonPress	AvoidedLoss	False
331.912	0.24	Lose2	0.5714	0.002	Yes	2.636	-0.002	4.0	GoodResponse	0	0.23	331.142	2	34	Target	AvoidedLoss	False
332.142	0.3	Lose2	0.5714	0.002	Yes	2.636	-0.002	4.0	GoodResponse	0	0.23	n/a	2	34	ButtonPress	AvoidedLoss	False
332.162	0.46	Lose2	0.5714	n/a	Yes	2.636	n/a	n/a	GoodResponse	0	n/a	n/a	2	34	Blank	AvoidedLoss	False
332.612	1.45	Lose2	0.5714	n/a	Yes	2.636	n/a	5.0	GoodResponse	0	0.041	331.653	2	34	Feedback	AvoidedLoss	False
334.061	2.636	Lose2	0.5714	n/a	Yes	2.636	n/a	n/a	GoodResponse	0	0.0	n/a	2	34	ISIslide	AvoidedLoss	False
336.727	0.25	Lose2	0.5832999999999999	0.0	Yes	2.673	0.027	n/a	GoodResponse	0	n/a	n/a	2	35	Cue	AvoidedLoss	True
336.977	4.0	Lose2	0.5832999999999999	0.0	Yes	2.673	0.0	n/a	GoodResponse	0	n/a	n/a	2	35	Fixation	AvoidedLoss	True
340.975	0.25	Lose2	0.5832999999999999	0.002	Yes	2.673	-0.002	4.0	GoodResponse	0	0.243	340.218	2	35	Target	AvoidedLoss	True
341.218	0.3	Lose2	0.5832999999999999	0.002	Yes	2.673	-0.002	4.0	GoodResponse	0	0.243	n/a	2	35	ButtonPress	AvoidedLoss	True
341.225	0.45	Lose2	0.5832999999999999	n/a	Yes	2.673	n/a	n/a	GoodResponse	0	n/a	n/a	2	35	Blank	AvoidedLoss	True
341.675	1.45	Lose2	0.5832999999999999	n/a	Yes	2.673	n/a	5.0	GoodResponse	0	0.006	340.681	2	35	Feedback	AvoidedLoss	True
343.125	2.673	Lose2	0.5832999999999999	n/a	Yes	2.673	n/a	n/a	GoodResponse	0	0.0	n/a	2	35	ISIslide	AvoidedLoss	True
345.824	0.25	Control	0.5946	0.0	Yes	2.676	0.024	n/a	GoodResponse	0	n/a	n/a	2	36	Cue	Neutral	True
346.074	4.0	Control	0.5946	0.0	Yes	2.676	0.0	n/a	GoodResponse	0	n/a	n/a	2	36	Fixation	Neutral	True
350.072	0.26	Control	0.5946	0.002	Yes	2.676	-0.002	4.0	GoodResponse	0	0.224	349.296	2	36	Target	Neutral	True
350.296	0.3	Control	0.5946	0.002	Yes	2.676	-0.002	4.0	GoodResponse	0	0.224	n/a	2	36	ButtonPress	Neutral	True
350.339	0.44	Control	0.5946	n/a	Yes	2.676	n/a	n/a	GoodResponse	0	n/a	n/a	2	36	Blank	Neutral	True
350.772	1.45	Control	0.5946	n/a	Yes	2.676	n/a	5.0	GoodResponse	0	0.027	349.799	2	36	Feedback	Neutral	True
352.221	2.676	Control	0.5946	n/a	Yes	2.676	n/a	n/a	GoodResponse	0	0.0	n/a	2	36	ISIslide	Neutral	True
354.921	0.25	Win2	0.6053000000000001	0.0	Yes	2.879	0.021	n/a	GoodResponse	1	n/a	n/a	3	37	Cue	Win	True
355.17	4.0	Win2	0.6053000000000001	0.001	Yes	2.879	-0.001	n/a	GoodResponse	1	n/a	n/a	3	37	Fixation	Win	True
359.169	0.27	Win2	0.6053000000000001	0.002	Yes	2.879	-0.002	4.0	GoodResponse	1	0.217	358.386	3	37	Target	Win	True
359.386	0.3	Win2	0.6053000000000001	0.002	Yes	2.879	-0.002	4.0	GoodResponse	1	0.217	n/a	3	37	ButtonPress	Win	True
359.452	0.43	Win2	0.6053000000000001	n/a	Yes	2.879	n/a	n/a	GoodResponse	1	n/a	n/a	3	37	Blank	Win	True
359.869	1.45	Win2	0.6053000000000001	n/a	Yes	2.879	n/a	5.0	GoodResponse	1	0.007	358.876	3	37	Feedback	Win	True
361.318	2.879	Win2	0.6053000000000001	n/a	Yes	2.879	n/a	n/a	GoodResponse	1	0.0	n/a	3	37	ISIslide	Win	True
364.217	0.25	Lose2	0.6154	0.0	Yes	2.833	0.017	n/a	GoodResponse	0	n/a	n/a	3	38	Cue	AvoidedLoss	True
364.467	3.95	Lose2	0.6154	0.0	Yes	2.833	0.0	n/a	GoodResponse	0	n/a	n/a	3	38	Fixation	AvoidedLoss	True
368.416	0.28	Lose2	0.6154	0.001	Yes	2.833	-0.001	4.0	GoodResponse	0	0.224	367.64	3	38	Target	AvoidedLoss	True
368.64	0.3	Lose2	0.6154	0.001	Yes	2.833	-0.001	4.0	GoodResponse	0	0.224	n/a	3	38	ButtonPress	AvoidedLoss	True
368.699	0.42	Lose2	0.6154	n/a	Yes	2.833	n/a	n/a	GoodResponse	0	n/a	n/a	3	38	Blank	AvoidedLoss	True
369.115	1.45	Lose2	0.6154	n/a	Yes	2.833	n/a	5.0	GoodResponse	0	0.026	368.141	3	38	Feedback	AvoidedLoss	True
370.565	2.833	Lose2	0.6154	n/a	Yes	2.833	n/a	n/a	GoodResponse	0	0.0	n/a	3	38	ISIslide	AvoidedLoss	True
373.414	0.25	Win2	0.625	0.0	Yes	2.986	0.014	n/a	GoodResponse	1	n/a	n/a	4	39	Cue	Win	True
373.664	4.1	Win2	0.625	0.0	Yes	2.986	0.0	n/a	GoodResponse	1	n/a	n/a	4	39	Fixation	Win	True
377.762	0.29	Win2	0.625	0.002	Yes	2.986	-0.002	4.0	GoodResponse	1	0.198	376.96	4	39	Target	Win	True
377.96	0.3	Win2	0.625	0.002	Yes	2.986	-0.002	4.0	GoodResponse	1	0.198	n/a	4	39	ButtonPress	Win	True
378.062	0.41	Win2	0.625	n/a	Yes	2.986	n/a	n/a	GoodResponse	1	n/a	n/a	4	39	Blank	Win	True
378.462	1.45	Win2	0.625	n/a	Yes	2.986	n/a	5.0	GoodResponse	1	0.045	377.507	4	39	Feedback	Win	True
379.912	2.986	Win2	0.625	n/a	Yes	2.986	n/a	n/a	GoodResponse	1	0.0	n/a	4	39	ISIslide	Win	True
382.927	0.25	Win2	0.6341	0.0	Yes	2.723	0.027	n/a	GoodResponse	1	n/a	n/a	5	40	Cue	Win	True
383.177	3.95	Win2	0.6341	0.0	Yes	2.723	0.0	n/a	GoodResponse	1	n/a	n/a	5	40	Fixation	Win	True
387.126	0.3	Win2	0.6341	0.001	Yes	2.723	-0.001	4.0	GoodResponse	1	0.226	386.352	5	40	Target	Win	True
387.352	0.3	Win2	0.6341	0.001	Yes	2.723	-0.001	4.0	GoodResponse	1	0.226	n/a	5	40	ButtonPress	Win	True
387.426	0.4	Win2	0.6341	n/a	Yes	2.723	n/a	n/a	GoodResponse	1	n/a	n/a	5	40	Blank	Win	True
387.825	1.45	Win2	0.6341	n/a	Yes	2.723	n/a	5.0	GoodResponse	1	0.047	386.872	5	40	Feedback	Win	True
389.275	2.723	Win2	0.6341	n/a	Yes	2.723	n/a	n/a	GoodResponse	1	0.0	n/a	5	40	ISIslide	Win	True
392.024	0.25	Win2	0.6429	0.0	Yes	2.776	0.024	n/a	GoodResponse	1	n/a	n/a	6	41	Cue	Win	True
392.274	3.9	Win2	0.6429	0.0	Yes	2.776	0.0	n/a	GoodResponse	1	n/a	n/a	6	41	Fixation	Win	True
396.172	0.31	Win2	0.6429	0.002	Yes	2.776	-0.002	4.0	GoodResponse	1	0.16	395.332	6	41	Target	Win	True
396.332	0.3	Win2	0.6429	0.002	Yes	2.776	-0.002	4.0	GoodResponse	1	0.16	n/a	6	41	ButtonPress	Win	True
396.489	0.39	Win2	0.6429	n/a	Yes	2.776	n/a	n/a	GoodResponse	1	n/a	n/a	6	41	Blank	Win	True
396.872	1.45	Win2	0.6429	n/a	Yes	2.776	n/a	5.0	GoodResponse	1	0.024	395.896	6	41	Feedback	Win	True
398.322	2.776	Win2	0.6429	n/a	Yes	2.776	n/a	n/a	GoodResponse	1	0.0	n/a	6	41	ISIslide	Win	True
401.121	0.25	Control	0.6512	0.0	Yes	2.929	0.021	n/a	GoodResponse	0	n/a	n/a	6	42	Cue	Neutral	True
401.371	3.85	Control	0.6512	0.0	Yes	2.929	0.0	n/a	GoodResponse	0	n/a	n/a	6	42	Fixation	Neutral	True
405.219	0.32	Control	0.6512	0.002	Yes	2.929	-0.002	4.0	GoodResponse	0	0.24	404.459	6	42	Target	Neutral	True
405.459	0.3	Control	0.6512	0.002	Yes	2.929	-0.002	4.0	GoodResponse	0	0.24	n/a	6	42	ButtonPress	Neutral	True
405.553	0.38	Control	0.6512	n/a	Yes	2.929	n/a	n/a	GoodResponse	0	n/a	n/a	6	42	Blank	Neutral	True
405.919	1.45	Control	0.6512	n/a	Yes	2.929	n/a	5.0	GoodResponse	0	0.002	404.921	6	42	Feedback	Neutral	True
407.369	2.929	Control	0.6512	n/a	Yes	2.929	n/a	n/a	GoodResponse	0	0.0	n/a	6	42	ISIslide	Neutral	True
410.317	0.25	Win2	0.6591	0.001	Yes	3.183	0.017	n/a	GoodResponse	1	n/a	n/a	7	43	Cue	Win	True
410.567	4.0	Win2	0.6591	0.0	Yes	3.183	0.0	n/a	GoodResponse	1	n/a	n/a	7	43	Fixation	Win	True
414.566	0.33	Win2	0.6591	0.001	Yes	3.183	-0.001	4.0	GoodResponse	1	0.213	413.779	7	43	Target	Win	True
414.779	0.3	Win2	0.6591	0.001	Yes	3.183	-0.001	4.0	GoodResponse	1	0.213	n/a	7	43	ButtonPress	Win	True
414.899	0.37	Win2	0.6591	n/a	Yes	3.183	n/a	n/a	GoodResponse	1	n/a	n/a	7	43	Blank	Win	True
415.266	1.45	Win2	0.6591	n/a	Yes	3.183	n/a	5.0	GoodResponse	1	0.021	414.287	7	43	Feedback	Win	True
416.715	3.183	Win2	0.6591	n/a	Yes	3.183	n/a	n/a	GoodResponse	1	0.0	n/a	7	43	ISIslide	Win	True
419.931	0.25	Win2	0.6667000000000001	0.0	Yes	2.969	0.031	n/a	GoodResponse	1	n/a	n/a	8	44	Cue	Win	True
420.181	4.0	Win2	0.6667000000000001	0.0	Yes	2.969	0.0	n/a	GoodResponse	1	n/a	n/a	8	44	Fixation	Win	True
424.179	0.33	Win2	0.6667000000000001	0.002	Yes	2.969	-0.002	4.0	GoodResponse	1	0.233	423.412	8	44	Target	Win	True
424.412	0.3	Win2	0.6667000000000001	0.002	Yes	2.969	-0.002	4.0	GoodResponse	1	0.233	n/a	8	44	ButtonPress	Win	True
424.512	0.37	Win2	0.6667000000000001	n/a	Yes	2.969	n/a	n/a	GoodResponse	1	n/a	n/a	8	44	Blank	Win	True
424.879	1.45	Win2	0.6667000000000001	n/a	Yes	2.969	n/a	5.0	GoodResponse	1	0.016	423.895	8	44	Feedback	Win	True
426.328	2.969	Win2	0.6667000000000001	n/a	Yes	2.969	n/a	n/a	GoodResponse	1	0.0	n/a	8	44	ISIslide	Win	True
429.327	0.25	Control	0.6739	0.0	Yes	2.873	0.027	n/a	GoodResponse	0	n/a	n/a	8	45	Cue	Neutral	True
429.577	4.1	Control	0.6739	0.0	Yes	2.873	0.0	n/a	GoodResponse	0	n/a	n/a	8	45	Fixation	Neutral	True
433.676	0.32	Control	0.6739	0.001	Yes	2.873	-0.001	4.0	GoodResponse	0	0.239	432.915	8	45	Target	Neutral	True
433.915	0.3	Control	0.6739	0.001	Yes	2.873	-0.001	4.0	GoodResponse	0	0.239	n/a	8	45	ButtonPress	Neutral	True
433.992	0.38	Control	0.6739	n/a	Yes	2.873	n/a	n/a	GoodResponse	0	n/a	n/a	8	45	Blank	Neutral	True
434.376	1.45	Control	0.6739	n/a	Yes	2.873	n/a	5.0	GoodResponse	0	0.032	433.408	8	45	Feedback	Neutral	True
435.825	2.873	Control	0.6739	n/a	Yes	2.873	n/a	n/a	GoodResponse	0	0.0	n/a	8	45	ISIslide	Neutral	True
438.724	0.25	Lose2	0.6809000000000001	0.0	Yes	3.376	0.024	n/a	GoodResponse	0	n/a	n/a	8	46	Cue	AvoidedLoss	True
438.974	4.0	Lose2	0.6809000000000001	0.0	Yes	3.376	0.0	n/a	GoodResponse	0	n/a	n/a	8	46	Fixation	AvoidedLoss	True
442.973	0.31	Lose2	0.6809000000000001	0.001	Yes	3.376	-0.001	4.0	GoodResponse	0	0.202	442.175	8	46	Target	AvoidedLoss	True
443.175	0.3	Lose2	0.6809000000000001	0.001	Yes	3.376	-0.001	4.0	GoodResponse	0	0.202	n/a	8	46	ButtonPress	AvoidedLoss	True
443.289	0.39	Lose2	0.6809000000000001	n/a	Yes	3.376	n/a	n/a	GoodResponse	0	n/a	n/a	8	46	Blank	AvoidedLoss	True
443.672	1.45	Lose2	0.6809000000000001	n/a	Yes	3.376	n/a	5.0	GoodResponse	0	0.008	442.68	8	46	Feedback	AvoidedLoss	True
445.122	3.376	Lose2	0.6809000000000001	n/a	Yes	3.376	n/a	n/a	GoodResponse	0	0.0	n/a	8	46	ISIslide	AvoidedLoss	True
448.521	0.25	Lose2	0.6875	0.0	Yes	2.679	0.021	n/a	GoodResponse	0	n/a	n/a	8	47	Cue	AvoidedLoss	True
448.77	4.0	Lose2	0.6875	0.001	Yes	2.679	-0.001	n/a	GoodResponse	0	n/a	n/a	8	47	Fixation	AvoidedLoss	True
452.769	0.3	Lose2	0.6875	0.002	Yes	2.679	-0.002	4.0	GoodResponse	0	0.215	451.984	8	47	Target	AvoidedLoss	True
452.984	0.3	Lose2	0.6875	0.002	Yes	2.679	-0.002	4.0	GoodResponse	0	0.215	n/a	8	47	ButtonPress	AvoidedLoss	True
453.069	0.4	Lose2	0.6875	n/a	Yes	2.679	n/a	n/a	GoodResponse	0	n/a	n/a	8	47	Blank	AvoidedLoss	True
453.469	1.45	Lose2	0.6875	n/a	Yes	2.679	n/a	5.0	GoodResponse	0	0.012	452.481	8	47	Feedback	AvoidedLoss	True
454.918	2.679	Lose2	0.6875	n/a	Yes	2.679	n/a	n/a	GoodResponse	0	0.0	n/a	8	47	ISIslide	AvoidedLoss	True
457.617	0.25	Lose2	0.6939	0.0	Yes	3.033	0.017	n/a	GoodResponse	0	n/a	n/a	8	48	Cue	AvoidedLoss	True
457.867	3.95	Lose2	0.6939	0.0	Yes	3.033	0.0	n/a	GoodResponse	0	n/a	n/a	8	48	Fixation	AvoidedLoss	True
461.816	0.29	Lose2	0.6939	0.001	Yes	3.033	-0.001	4.0	GoodResponse	0	0.24	461.056	8	48	Target	AvoidedLoss	True
462.056	0.3	Lose2	0.6939	0.001	Yes	3.033	-0.001	4.0	GoodResponse	0	0.24	n/a	8	48	ButtonPress	AvoidedLoss	True
462.116	0.41	Lose2	0.6939	n/a	Yes	3.033	n/a	n/a	GoodResponse	0	n/a	n/a	8	48	Blank	AvoidedLoss	True
462.516	1.45	Lose2	0.6939	n/a	Yes	3.033	n/a	5.0	GoodResponse	0	0.037	461.553	8	48	Feedback	AvoidedLoss	True
463.965	3.033	Lose2	0.6939	n/a	Yes	3.033	n/a	n/a	GoodResponse	0	0.0	n/a	8	48	ISIslide	AvoidedLoss	True
467.031	0.25	Control	0.7	0.0	Yes	2.869	0.031	n/a	GoodResponse	0	n/a	n/a	8	49	Cue	Neutral	True
467.281	4.0	Control	0.7	0.0	Yes	2.869	0.0	n/a	GoodResponse	0	n/a	n/a	8	49	Fixation	Neutral	True
471.279	0.28	Control	0.7	0.002	Yes	2.869	-0.002	4.0	GoodResponse	0	0.226	470.505	8	49	Target	Neutral	True
471.505	0.3	Control	0.7	0.002	Yes	2.869	-0.002	4.0	GoodResponse	0	0.226	n/a	8	49	ButtonPress	Neutral	True
471.562	0.42	Control	0.7	n/a	Yes	2.869	n/a	n/a	GoodResponse	0	n/a	n/a	8	49	Blank	Neutral	True
471.979	1.45	Control	0.7	n/a	Yes	2.869	n/a	5.0	GoodResponse	0	0.038	471.017	8	49	Feedback	Neutral	True
473.428	2.869	Control	0.7	n/a	Yes	2.869	n/a	n/a	GoodResponse	0	0.0	n/a	8	49	ISIslide	Neutral	True
476.327	0.25	Control	0.7059000000000001	0.0	Yes	2.773	0.027	n/a	GoodResponse	0	n/a	n/a	8	50	Cue	Neutral	True
476.577	4.0	Control	0.7059000000000001	0.0	Yes	2.773	0.0	n/a	GoodResponse	0	n/a	n/a	8	50	Fixation	Neutral	True
480.576	0.27	Control	0.7059000000000001	0.001	Yes	2.773	-0.001	4.0	GoodResponse	0	0.226	479.802	8	50	Target	Neutral	True
480.802	0.3	Control	0.7059000000000001	0.001	Yes	2.773	-0.001	4.0	GoodResponse	0	0.226	n/a	8	50	ButtonPress	Neutral	True
480.842	0.43	Control	0.7059000000000001	n/a	Yes	2.773	n/a	n/a	GoodResponse	0	n/a	n/a	8	50	Blank	Neutral	True
481.276	1.45	Control	0.7059000000000001	n/a	Yes	2.773	n/a	5.0	GoodResponse	0	0.009	480.285	8	50	Feedback	Neutral	True
482.725	2.773	Control	0.7059000000000001	n/a	Yes	2.773	n/a	n/a	GoodResponse	0	0.0	n/a	8	50	ISIslide	Neutral	True
485.524	0.25	Control	0.7115	0.0	Yes	2.726	0.024	n/a	GoodResponse	0	n/a	n/a	8	51	Cue	Neutral	True
485.774	3.95	Control	0.7115	0.0	Yes	2.726	0.0	n/a	GoodResponse	0	n/a	n/a	8	51	Fixation	Neutral	True
489.723	0.26	Control	0.7115	0.001	Yes	2.726	-0.001	4.0	GoodResponse	0	0.249	488.972	8	51	Target	Neutral	True
489.972	0.3	Control	0.7115	0.001	Yes	2.726	-0.001	4.0	GoodResponse	0	0.249	n/a	8	51	ButtonPress	Neutral	True
489.989	0.44	Control	0.7115	n/a	Yes	2.726	n/a	n/a	GoodResponse	0	n/a	n/a	8	51	Blank	Neutral	True
490.422	1.45	Control	0.7115	n/a	Yes	2.726	n/a	5.0	GoodResponse	0	0.034	489.456	8	51	Feedback	Neutral	True
491.872	2.726	Control	0.7115	n/a	Yes	2.726	n/a	n/a	GoodResponse	0	0.0	n/a	8	51	ISIslide	Neutral	True
494.621	0.25	Control	0.7170000000000001	0.0	Yes	2.629	0.021	n/a	GoodResponse	0	n/a	n/a	8	52	Cue	Neutral	True
494.871	4.05	Control	0.7170000000000001	0.0	Yes	2.629	0.0	n/a	GoodResponse	0	n/a	n/a	8	52	Fixation	Neutral	True
498.919	0.25	Control	0.7170000000000001	0.002	Yes	2.629	-0.002	4.0	GoodResponse	0	0.245	498.164	8	52	Target	Neutral	True
499.164	0.3	Control	0.7170000000000001	0.002	Yes	2.629	-0.002	4.0	GoodResponse	0	0.245	n/a	8	52	ButtonPress	Neutral	True
499.169	0.45	Control	0.7170000000000001	n/a	Yes	2.629	n/a	n/a	GoodResponse	0	n/a	n/a	8	52	Blank	Neutral	True
499.619	1.45	Control	0.7170000000000001	n/a	Yes	2.629	n/a	5.0	GoodResponse	0	0.008	498.627	8	52	Feedback	Neutral	True
501.069	2.629	Control	0.7170000000000001	n/a	Yes	2.629	n/a	n/a	GoodResponse	0	0.0	n/a	8	52	ISIslide	Neutral	True
503.718	0.25	Win2	0.7222	0.0	Yes	2.932	0.018	n/a	GoodResponse	1	n/a	n/a	9	53	Cue	Win	True
503.968	4.05	Win2	0.7222	0.0	Yes	2.932	0.0	n/a	GoodResponse	1	n/a	n/a	9	53	Fixation	Win	True
508.016	0.24	Win2	0.7222	0.002	Yes	2.932	-0.002	4.0	GoodResponse	1	0.225	507.241	9	53	Target	Win	True
508.241	0.3	Win2	0.7222	0.002	Yes	2.932	-0.002	4.0	GoodResponse	1	0.225	n/a	9	53	ButtonPress	Win	True
508.266	0.46	Win2	0.7222	n/a	Yes	2.932	n/a	n/a	GoodResponse	1	n/a	n/a	9	53	Blank	Win	True
508.716	1.45	Win2	0.7222	n/a	Yes	2.932	n/a	5.0	GoodResponse	1	0.032	507.748	9	53	Feedback	Win	True
510.165	2.932	Win2	0.7222	n/a	Yes	2.932	n/a	n/a	GoodResponse	1	0.0	n/a	9	53	ISIslide	Win	True
513.114	0.25	Win2	0.7273000000000001	0.0	Yes	2.736	0.014	n/a	GoodResponse	1	n/a	n/a	10	54	Cue	Win	True
513.364	3.95	Win2	0.7273000000000001	0.0	Yes	2.736	0.0	n/a	GoodResponse	1	n/a	n/a	10	54	Fixation	Win	True
517.313	0.23	Win2	0.7273000000000001	0.001	Yes	2.736	-0.001	4.0	GoodResponse	1	0.225	516.538	10	54	Target	Win	True
517.538	0.3	Win2	0.7273000000000001	0.001	Yes	2.736	-0.001	4.0	GoodResponse	1	0.225	n/a	10	54	ButtonPress	Win	True
517.546	0.47	Win2	0.7273000000000001	n/a	Yes	2.736	n/a	n/a	GoodResponse	1	n/a	n/a	10	54	Blank	Win	True
518.013	1.45	Win2	0.7273000000000001	n/a	Yes	2.736	n/a	5.0	GoodResponse	1	0.007	517.02	10	54	Feedback	Win	True
519.462	2.736	Win2	0.7273000000000001	n/a	Yes	2.736	n/a	n/a	GoodResponse	1	0.0	n/a	10	54	ISIslide	Win	True
522.228	0.25	Control	0.7321	0.0	Yes	3.022	0.028	n/a	GoodResponse	0	n/a	n/a	10	55	Cue	Neutral	True
522.478	3.95	Control	0.7321	0.0	Yes	3.022	0.0	n/a	GoodResponse	0	n/a	n/a	10	55	Fixation	Neutral	True
526.426	0.22	Control	0.7321	0.002	Yes	3.022	-0.002	4.0	GoodResponse	0	0.219	525.645	10	55	Target	Neutral	True
526.645	0.3	Control	0.7321	0.002	Yes	3.022	-0.002	4.0	GoodResponse	0	0.219	n/a	10	55	ButtonPress	Neutral	True
526.659	0.48	Control	0.7321	n/a	Yes	3.022	n/a	n/a	GoodResponse	0	n/a	n/a	10	55	Blank	Neutral	True
527.126	1.45	Control	0.7321	n/a	Yes	3.022	n/a	5.0	GoodResponse	0	0.013	526.139	10	55	Feedback	Neutral	True
528.575	3.022	Control	0.7321	n/a	Yes	3.022	n/a	n/a	GoodResponse	0	0.0	n/a	10	55	ISIslide	Neutral	True
531.624	0.25	Control	0.7193	0.0	No	2.826	0.024	n/a	NoResponse	0	n/a	n/a	10	56	Cue	Neutral	True
531.874	3.95	Control	0.7193	0.0	No	2.826	0.0	n/a	NoResponse	0	n/a	n/a	10	56	Fixation	Neutral	True
535.823	0.21	Control	0.7193	0.001	No	2.826	-0.001	4.0	NoResponse	0	0.224	535.047	10	56	Target	Neutral	True
536.039	0.49	Control	0.7193	n/a	No	2.826	n/a	n/a	NoResponse	0	n/a	n/a	10	56	Blank	Neutral	True
536.047	0.3	Control	0.7193	0.001	No	2.826	-0.001	4.0	NoResponse	0	0.224	n/a	10	56	ButtonPress	Neutral	True
536.523	1.45	Control	0.7193	n/a	No	2.826	n/a	5.0	NoResponse	0	0.029	535.552	10	56	Feedback	Neutral	True
537.972	2.826	Control	0.7193	n/a	No	2.826	n/a	n/a	NoResponse	0	0.0	n/a	10	56	ISIslide	Neutral	True
540.821	0.25	Control	0.7069	0.0	No	3.479	0.021	n/a	NoResponse	0	n/a	n/a	10	57	Cue	Neutral	True
541.071	4.0	Control	0.7069	0.0	No	3.479	0.0	n/a	NoResponse	0	n/a	n/a	10	57	Fixation	Neutral	True
545.07	0.2	Control	0.7069	0.001	No	3.479	-0.001	4.0	NoResponse	0	0.244	544.314	10	57	Target	Neutral	True
545.269	0.5	Control	0.7069	n/a	No	3.479	n/a	n/a	NoResponse	0	n/a	n/a	10	57	Blank	Neutral	True
545.314	0.3	Control	0.7069	0.001	No	3.479	-0.001	4.0	NoResponse	0	0.244	n/a	10	57	ButtonPress	Neutral	True
545.769	1.45	Control	0.7069	n/a	No	3.479	n/a	5.0	NoResponse	0	0.007	544.776	10	57	Feedback	Neutral	True
547.219	3.479	Control	0.7069	n/a	No	3.479	n/a	n/a	NoResponse	0	0.0	n/a	10	57	ISIslide	Neutral	True
550.718	0.25	Win2	0.6949	0.0	No	2.732	0.018	n/a	NoResponse	0	n/a	n/a	10	58	Cue	MissedWin	True
550.967	4.05	Win2	0.6949	0.001	No	2.732	-0.001	n/a	NoResponse	0	n/a	n/a	10	58	Fixation	MissedWin	True
555.016	0.19	Win2	0.6949	0.002	No	2.732	-0.002	4.0	NoResponse	0	0.26	554.276	10	58	Target	MissedWin	True
555.216	0.51	Win2	0.6949	n/a	No	2.732	n/a	n/a	NoResponse	0	n/a	n/a	10	58	Blank	MissedWin	True
555.276	0.3	Win2	0.6949	0.002	No	2.732	-0.002	4.0	NoResponse	0	0.26	n/a	10	58	ButtonPress	MissedWin	True
555.716	1.45	Win2	0.6949	n/a	No	2.732	n/a	5.0	NoResponse	0	0.007	554.723	10	58	Feedback	MissedWin	True
557.165	2.732	Win2	0.6949	n/a	No	2.732	n/a	n/a	NoResponse	0	0.0	n/a	10	58	ISIslide	MissedWin	True
559.914	0.25	Lose2	0.6833	0.0	No	2.686	0.014	n/a	NoResponse	-1	n/a	n/a	9	59	Cue	Loss	True
560.164	4.0	Lose2	0.6833	0.0	No	2.686	0.0	n/a	NoResponse	-1	n/a	n/a	9	59	Fixation	Loss	True
564.163	0.18	Lose2	0.6833	0.001	No	2.686	-0.001	4.0	NoResponse	-1	0.2	563.363	9	59	Target	Loss	True
564.346	0.52	Lose2	0.6833	n/a	No	2.686	n/a	n/a	NoResponse	-1	n/a	n/a	9	59	Blank	Loss	True
564.363	0.3	Lose2	0.6833	0.001	No	2.686	-0.001	4.0	NoResponse	-1	0.2	n/a	9	59	ButtonPress	Loss	True
564.862	1.45	Lose2	0.6833	n/a	No	2.686	n/a	5.0	NoResponse	-1	0.032	563.894	9	59	Feedback	Loss	True
566.312	2.686	Lose2	0.6833	n/a	No	2.686	n/a	n/a	NoResponse	-1	0.0	n/a	9	59	ISIslide	Loss	True
569.028	0.25	Control	0.6720999999999999	0.0	No	2.672	0.028	n/a	NoResponse	0	n/a	n/a	9	60	Cue	Neutral	True
569.278	4.0	Control	0.6720999999999999	0.0	No	2.672	0.0	n/a	NoResponse	0	n/a	n/a	9	60	Fixation	Neutral	True
573.276	0.17	Control	0.6720999999999999	0.002	No	2.672	-0.002	4.0	NoResponse	0	0.237	572.513	9	60	Target	Neutral	True
573.459	0.53	Control	0.6720999999999999	n/a	No	2.672	n/a	n/a	NoResponse	0	n/a	n/a	9	60	Blank	Neutral	True
573.513	0.3	Control	0.6720999999999999	0.002	No	2.672	-0.002	4.0	NoResponse	0	0.237	n/a	9	60	ButtonPress	Neutral	True
573.976	1.45	Control	0.6720999999999999	n/a	No	2.672	n/a	5.0	NoResponse	0	0.039	573.015	9	60	Feedback	Neutral	True
575.425	2.672	Control	0.6720999999999999	n/a	No	2.672	n/a	n/a	NoResponse	0	0.0	n/a	9	60	ISIslide	Neutral	True
578.124	0.25	Lose2	0.6613	0.001	No	2.976	0.024	n/a	NoResponse	-1	n/a	n/a	8	61	Cue	Loss	True
578.374	4.0	Lose2	0.6613	0.0	No	2.976	0.0	n/a	NoResponse	-1	n/a	n/a	8	61	Fixation	Loss	True
582.373	0.16	Lose2	0.6613	0.001	No	2.976	-0.001	4.0	NoResponse	-1	0.205	581.578	8	61	Target	Loss	True
582.54	0.54	Lose2	0.6613	n/a	No	2.976	n/a	n/a	NoResponse	-1	n/a	n/a	8	61	Blank	Loss	True
582.578	0.3	Lose2	0.6613	0.001	No	2.976	-0.001	4.0	NoResponse	-1	0.205	n/a	8	61	ButtonPress	Loss	True
583.073	1.45	Lose2	0.6613	n/a	No	2.976	n/a	5.0	NoResponse	-1	0.016	582.089	8	61	Feedback	Loss	True
584.522	2.976	Lose2	0.6613	n/a	No	2.976	n/a	n/a	NoResponse	-1	0.0	n/a	8	61	ISIslide	Loss	True
587.521	0.25	Lose2	0.6507999999999999	0.0	No	2.879	0.021	n/a	NoResponse	-1	n/a	n/a	7	62	Cue	Loss	True
587.771	3.9	Lose2	0.6507999999999999	0.0	No	2.879	0.0	n/a	NoResponse	-1	n/a	n/a	7	62	Fixation	Loss	True
591.67	0.16	Lose2	0.6507999999999999	0.001	No	2.879	-0.001	4.0	NoResponse	-1	0.227	590.897	7	62	Target	Loss	True
591.836	0.54	Lose2	0.6507999999999999	n/a	No	2.879	n/a	n/a	NoResponse	-1	n/a	n/a	7	62	Blank	Loss	True
591.897	0.3	Lose2	0.6507999999999999	0.001	No	2.879	-0.001	4.0	NoResponse	-1	0.227	n/a	7	62	ButtonPress	Loss	True
592.369	1.45	Lose2	0.6507999999999999	n/a	No	2.879	n/a	5.0	NoResponse	-1	0.037	591.406	7	62	Feedback	Loss	True
593.819	2.879	Lose2	0.6507999999999999	n/a	No	2.879	n/a	n/a	NoResponse	-1	0.0	n/a	7	62	ISIslide	Loss	True
596.718	0.25	Lose2	0.6406000000000001	0.0	No	2.632	0.018	n/a	NoResponse	-1	n/a	n/a	6	63	Cue	Loss	True
596.968	4.05	Lose2	0.6406000000000001	0.0	No	2.632	0.0	n/a	NoResponse	-1	n/a	n/a	6	63	Fixation	Loss	True
601.016	0.17	Lose2	0.6406000000000001	0.002	No	2.632	-0.002	4.0	NoResponse	-1	0.224	600.24	6	63	Target	Loss	True
601.2	0.53	Lose2	0.6406000000000001	n/a	No	2.632	n/a	n/a	NoResponse	-1	n/a	n/a	6	63	Blank	Loss	True
601.24	0.3	Lose2	0.6406000000000001	0.002	No	2.632	-0.002	4.0	NoResponse	-1	0.224	n/a	6	63	ButtonPress	Loss	True
601.716	1.45	Lose2	0.6406000000000001	n/a	No	2.632	n/a	5.0	NoResponse	-1	0.008	600.724	6	63	Feedback	Loss	True
603.166	2.632	Lose2	0.6406000000000001	n/a	No	2.632	n/a	n/a	NoResponse	-1	0.0	n/a	6	63	ISIslide	Loss	True
605.815	0.25	Win2	0.6308	0.0	No	3.135	0.015	n/a	NoResponse	0	n/a	n/a	6	64	Cue	MissedWin	True
606.065	4.15	Win2	0.6308	0.0	No	3.135	0.0	n/a	NoResponse	0	n/a	n/a	6	64	Fixation	MissedWin	True
610.213	0.18	Win2	0.6308	0.002	No	3.135	-0.002	4.0	NoResponse	0	0.213	609.426	6	64	Target	MissedWin	True
610.396	0.52	Win2	0.6308	n/a	No	3.135	n/a	n/a	NoResponse	0	n/a	n/a	6	64	Blank	MissedWin	True
610.426	0.3	Win2	0.6308	0.002	No	3.135	-0.002	4.0	NoResponse	0	0.213	n/a	6	64	ButtonPress	MissedWin	True
610.913	1.45	Win2	0.6308	n/a	No	3.135	n/a	5.0	NoResponse	0	0.03	609.943	6	64	Feedback	MissedWin	True
612.362	3.135	Win2	0.6308	n/a	No	3.135	n/a	n/a	NoResponse	0	0.0	n/a	6	64	ISIslide	MissedWin	True
615.528	0.25	Control	0.6212	0.0	No	2.772	0.028	n/a	NoResponse	0	n/a	n/a	6	65	Cue	Neutral	True
615.778	4.0	Control	0.6212	0.0	No	2.772	0.0	n/a	NoResponse	0	n/a	n/a	6	65	Fixation	Neutral	True
619.776	0.19	Control	0.6212	0.002	No	2.772	-0.002	4.0	NoResponse	0	0.295	619.071	6	65	Target	Neutral	True
619.976	0.51	Control	0.6212	n/a	No	2.772	n/a	n/a	NoResponse	0	n/a	n/a	6	65	Blank	Neutral	True
620.071	0.3	Control	0.6212	0.002	No	2.772	-0.002	4.0	NoResponse	0	0.295	n/a	6	65	ButtonPress	Neutral	True
620.476	1.45	Control	0.6212	n/a	No	2.772	n/a	5.0	NoResponse	0	0.027	619.503	6	65	Feedback	Neutral	True
621.926	2.772	Control	0.6212	n/a	No	2.772	n/a	n/a	NoResponse	0	0.0	n/a	6	65	ISIslide	Neutral	True
624.725	0.25	Win2	0.6119	0.0	No	2.775	0.025	n/a	NoResponse	0	n/a	n/a	6	66	Cue	MissedWin	False
624.974	3.9	Win2	0.6119	0.001	No	2.775	-0.001	4.0	NoResponse	0	2.666	626.64	6	66	Fixation	MissedWin	False
627.64	0.3	Win2	0.6119	0.001	No	2.775	-0.001	4.0	NoResponse	0	2.666	n/a	6	66	ButtonPress	MissedWin	False
628.873	0.2	Win2	0.6119	0.002	No	2.775	-0.002	4.0	NoResponse	0	0.227	628.1	6	66	Target	MissedWin	False
629.073	0.5	Win2	0.6119	n/a	No	2.775	n/a	n/a	NoResponse	0	n/a	n/a	6	66	Blank	MissedWin	False
629.1	0.3	Win2	0.6119	0.002	No	2.775	-0.002	4.0	NoResponse	0	0.227	n/a	6	66	ButtonPress	MissedWin	False
629.573	1.45	Win2	0.6119	n/a	No	2.775	n/a	5.0	NoResponse	0	0.007	628.58	6	66	Feedback	MissedWin	False
631.022	2.775	Win2	0.6119	n/a	No	2.775	n/a	n/a	NoResponse	0	0.0	n/a	6	66	ISIslide	MissedWin	False
633.821	0.25	Control	0.6029	0.0	No	2.729	0.021	n/a	NoResponse	0	n/a	n/a	6	67	Cue	Neutral	True
634.071	3.95	Control	0.6029	0.0	No	2.729	0.0	n/a	NoResponse	0	n/a	n/a	6	67	Fixation	Neutral	True
638.02	0.21	Control	0.6029	0.001	No	2.729	-0.001	4.0	NoResponse	0	0.252	637.272	6	67	Target	Neutral	True
638.236	0.49	Control	0.6029	n/a	No	2.729	n/a	n/a	NoResponse	0	n/a	n/a	6	67	Blank	Neutral	True
638.272	0.3	Control	0.6029	0.001	No	2.729	-0.001	4.0	NoResponse	0	0.252	n/a	6	67	ButtonPress	Neutral	True
638.72	1.45	Control	0.6029	n/a	No	2.729	n/a	5.0	NoResponse	0	0.027	637.747	6	67	Feedback	Neutral	True
640.169	2.729	Control	0.6029	n/a	No	2.729	n/a	n/a	NoResponse	0	0.0	n/a	6	67	ISIslide	Neutral	True
642.918	0.25	Win2	0.5942000000000001	0.0	No	3.082	0.018	n/a	NoResponse	0	n/a	n/a	6	68	Cue	MissedWin	True
643.168	4.0	Win2	0.5942000000000001	0.0	No	3.082	0.0	n/a	NoResponse	0	n/a	n/a	6	68	Fixation	MissedWin	True
647.167	0.22	Win2	0.5942000000000001	0.001	No	3.082	-0.001	4.0	NoResponse	0	0.276	646.443	6	68	Target	MissedWin	True
647.4	0.48	Win2	0.5942000000000001	n/a	No	3.082	n/a	n/a	NoResponse	0	n/a	n/a	6	68	Blank	MissedWin	True
647.443	0.3	Win2	0.5942000000000001	0.001	No	3.082	-0.001	4.0	NoResponse	0	0.276	n/a	6	68	ButtonPress	MissedWin	True
647.866	1.45	Win2	0.5942000000000001	n/a	No	3.082	n/a	5.0	NoResponse	0	0.007	646.873	6	68	Feedback	MissedWin	True
649.316	3.082	Win2	0.5942000000000001	n/a	No	3.082	n/a	n/a	NoResponse	0	0.0	n/a	6	68	ISIslide	MissedWin	True
652.415	0.25	Win2	0.6	0.0	Yes	3.235	0.015	n/a	GoodResponse	1	n/a	n/a	7	69	Cue	Win	True
652.665	3.95	Win2	0.6	0.0	Yes	3.235	0.0	n/a	GoodResponse	1	n/a	n/a	7	69	Fixation	Win	True
656.613	0.23	Win2	0.6	0.002	Yes	3.235	-0.002	4.0	GoodResponse	1	0.201	655.814	7	69	Target	Win	True
656.814	0.3	Win2	0.6	0.002	Yes	3.235	-0.002	4.0	GoodResponse	1	0.201	n/a	7	69	ButtonPress	Win	True
656.846	0.47	Win2	0.6	n/a	Yes	3.235	n/a	n/a	GoodResponse	1	n/a	n/a	7	69	Blank	Win	True
657.313	1.45	Win2	0.6	n/a	Yes	3.235	n/a	5.0	GoodResponse	1	0.018	656.331	7	69	Feedback	Win	True
658.762	3.235	Win2	0.6	n/a	Yes	3.235	n/a	n/a	GoodResponse	1	0.0	n/a	7	69	ISIslide	Win	True
662.028	0.25	Lose2	0.6056	0.0	Yes	3.022	0.028	n/a	GoodResponse	0	n/a	n/a	7	70	Cue	AvoidedLoss	True
662.278	4.05	Lose2	0.6056	0.0	Yes	3.022	0.0	n/a	GoodResponse	0	n/a	n/a	7	70	Fixation	AvoidedLoss	True
666.326	0.24	Lose2	0.6056	0.002	Yes	3.022	-0.002	4.0	GoodResponse	0	0.149	665.475	7	70	Target	AvoidedLoss	True
666.475	0.3	Lose2	0.6056	0.002	Yes	3.022	-0.002	4.0	GoodResponse	0	0.149	n/a	7	70	ButtonPress	AvoidedLoss	True
666.576	0.46	Lose2	0.6056	n/a	Yes	3.022	n/a	n/a	GoodResponse	0	n/a	n/a	7	70	Blank	AvoidedLoss	True
667.026	1.45	Lose2	0.6056	n/a	Yes	3.022	n/a	5.0	GoodResponse	0	0.013	666.039	7	70	Feedback	AvoidedLoss	True
668.476	3.022	Lose2	0.6056	n/a	Yes	3.022	n/a	n/a	GoodResponse	0	0.0	n/a	7	70	ISIslide	AvoidedLoss	True
671.525	0.25	Win2	0.6111	0.0	Yes	2.725	0.025	n/a	GoodResponse	1	n/a	n/a	8	71	Cue	Win	True
671.774	4.05	Win2	0.6111	0.001	Yes	2.725	-0.001	n/a	GoodResponse	1	n/a	n/a	8	71	Fixation	Win	True
675.823	0.25	Win2	0.6111	0.002	Yes	2.725	-0.002	4.0	GoodResponse	1	0.199	675.022	8	71	Target	Win	True
676.022	0.3	Win2	0.6111	0.002	Yes	2.725	-0.002	4.0	GoodResponse	1	0.199	n/a	8	71	ButtonPress	Win	True
676.073	0.45	Win2	0.6111	n/a	Yes	2.725	n/a	n/a	GoodResponse	1	n/a	n/a	8	71	Blank	Win	True
676.523	1.45	Win2	0.6111	n/a	Yes	2.725	n/a	5.0	GoodResponse	1	0.028	675.551	8	71	Feedback	Win	True
677.972	2.725	Win2	0.6111	n/a	Yes	2.725	n/a	n/a	GoodResponse	1	0.0	n/a	8	71	ISIslide	Win	True
680.721	0.25	Win2	0.6164000000000001	0.0	Yes	2.779	0.021	n/a	GoodResponse	1	n/a	n/a	9	72	Cue	Win	True
680.971	4.1	Win2	0.6164000000000001	0.0	Yes	2.779	0.0	n/a	GoodResponse	1	n/a	n/a	9	72	Fixation	Win	True
685.07	0.26	Win2	0.6164000000000001	0.001	Yes	2.779	-0.001	4.0	GoodResponse	1	0.212	684.282	9	72	Target	Win	True
685.282	0.3	Win2	0.6164000000000001	0.001	Yes	2.779	-0.001	4.0	GoodResponse	1	0.212	n/a	9	72	ButtonPress	Win	True
685.336	0.44	Win2	0.6164000000000001	n/a	Yes	2.779	n/a	n/a	GoodResponse	1	n/a	n/a	9	72	Blank	Win	True
685.769	1.45	Win2	0.6164000000000001	n/a	Yes	2.779	n/a	5.0	GoodResponse	1	0.001	684.77	9	72	Feedback	Win	True
687.219	2.779	Win2	0.6164000000000001	n/a	Yes	2.779	n/a	n/a	GoodResponse	1	0.0	n/a	9	72	ISIslide	Win	True
690.018	0.25	Win2	0.6215999999999999	0.0	Yes	2.682	0.018	n/a	GoodResponse	1	n/a	n/a	10	73	Cue	Win	True
690.268	4.0	Win2	0.6215999999999999	0.0	Yes	2.682	0.0	n/a	GoodResponse	1	n/a	n/a	10	73	Fixation	Win	True
694.266	0.27	Win2	0.6215999999999999	0.002	Yes	2.682	-0.002	4.0	GoodResponse	1	0.21	693.476	10	73	Target	Win	True
694.476	0.3	Win2	0.6215999999999999	0.002	Yes	2.682	-0.002	4.0	GoodResponse	1	0.21	n/a	10	73	ButtonPress	Win	True
694.55	0.43	Win2	0.6215999999999999	n/a	Yes	2.682	n/a	n/a	GoodResponse	1	n/a	n/a	10	73	Blank	Win	True
694.966	1.45	Win2	0.6215999999999999	n/a	Yes	2.682	n/a	5.0	GoodResponse	1	0.023	693.989	10	73	Feedback	Win	True
696.416	2.682	Win2	0.6215999999999999	n/a	Yes	2.682	n/a	n/a	GoodResponse	1	0.0	n/a	10	73	ISIslide	Win	True
699.115	0.25	Lose2	0.6267	0.0	Yes	2.635	0.015	n/a	GoodResponse	0	n/a	n/a	10	74	Cue	AvoidedLoss	True
699.365	4.05	Lose2	0.6267	0.0	Yes	2.635	0.0	n/a	GoodResponse	0	n/a	n/a	10	74	Fixation	AvoidedLoss	True
703.413	0.28	Lose2	0.6267	0.002	Yes	2.635	-0.002	4.0	GoodResponse	0	0.192	702.605	10	74	Target	AvoidedLoss	True
703.605	0.3	Lose2	0.6267	0.002	Yes	2.635	-0.002	4.0	GoodResponse	0	0.192	n/a	10	74	ButtonPress	AvoidedLoss	True
703.696	0.42	Lose2	0.6267	n/a	Yes	2.635	n/a	n/a	GoodResponse	0	n/a	n/a	10	74	Blank	AvoidedLoss	True
704.113	1.45	Lose2	0.6267	n/a	Yes	2.635	n/a	5.0	GoodResponse	0	0.047	703.16	10	74	Feedback	AvoidedLoss	True
705.562	2.635	Lose2	0.6267	n/a	Yes	2.635	n/a	n/a	GoodResponse	0	0.0	n/a	10	74	ISIslide	AvoidedLoss	True
708.212	0.25	Lose2	0.6315999999999999	0.0	Yes	2.938	0.012	n/a	GoodResponse	0	n/a	n/a	10	75	Cue	AvoidedLoss	True
708.461	3.95	Lose2	0.6315999999999999	0.001	Yes	2.938	-0.001	n/a	GoodResponse	0	n/a	n/a	10	75	Fixation	AvoidedLoss	True
712.41	0.29	Lose2	0.6315999999999999	0.002	Yes	2.938	-0.002	4.0	GoodResponse	0	0.209	711.619	10	75	Target	AvoidedLoss	True
712.619	0.3	Lose2	0.6315999999999999	0.002	Yes	2.938	-0.002	4.0	GoodResponse	0	0.209	n/a	10	75	ButtonPress	AvoidedLoss	True
712.71	0.41	Lose2	0.6315999999999999	n/a	Yes	2.938	n/a	n/a	GoodResponse	0	n/a	n/a	10	75	Blank	AvoidedLoss	True
713.11	1.45	Lose2	0.6315999999999999	n/a	Yes	2.938	n/a	5.0	GoodResponse	0	0.026	712.136	10	75	Feedback	AvoidedLoss	True
714.559	2.938	Lose2	0.6315999999999999	n/a	Yes	2.938	n/a	n/a	GoodResponse	0	0.0	n/a	10	75	ISIslide	AvoidedLoss	True
717.525	0.25	Control	0.6364	0.0	Yes	3.225	0.025	n/a	GoodResponse	0	n/a	n/a	10	76	Cue	Neutral	True
717.775	4.05	Control	0.6364	0.0	Yes	3.225	0.0	n/a	GoodResponse	0	n/a	n/a	10	76	Fixation	Neutral	True
721.823	0.3	Control	0.6364	0.002	Yes	3.225	-0.002	4.0	GoodResponse	0	0.225	721.048	10	76	Target	Neutral	True
722.048	0.3	Control	0.6364	0.002	Yes	3.225	-0.002	4.0	GoodResponse	0	0.225	n/a	10	76	ButtonPress	Neutral	True
722.123	0.4	Control	0.6364	n/a	Yes	3.225	n/a	n/a	GoodResponse	0	n/a	n/a	10	76	Blank	Neutral	True
722.523	1.45	Control	0.6364	n/a	Yes	3.225	n/a	5.0	GoodResponse	0	0.027	721.55	10	76	Feedback	Neutral	True
723.973	3.225	Control	0.6364	n/a	Yes	3.225	n/a	n/a	GoodResponse	0	0.0	n/a	10	76	ISIslide	Neutral	True
727.221	0.25	Lose2	0.6409999999999999	0.0	Yes	2.579	0.021	n/a	GoodResponse	0	n/a	n/a	10	77	Cue	AvoidedLoss	True
727.471	3.95	Lose2	0.6409999999999999	0.0	Yes	2.579	0.0	n/a	GoodResponse	0	n/a	n/a	10	77	Fixation	AvoidedLoss	True
731.42	0.31	Lose2	0.6409999999999999	0.001	Yes	2.579	-0.001	4.0	GoodResponse	0	0.219	730.639	10	77	Target	AvoidedLoss	True
731.639	0.3	Lose2	0.6409999999999999	0.001	Yes	2.579	-0.001	4.0	GoodResponse	0	0.219	n/a	10	77	ButtonPress	AvoidedLoss	True
731.736	0.39	Lose2	0.6409999999999999	n/a	Yes	2.579	n/a	n/a	GoodResponse	0	n/a	n/a	10	77	Blank	AvoidedLoss	True
732.12	1.45	Lose2	0.6409999999999999	n/a	Yes	2.579	n/a	5.0	GoodResponse	0	0.04	731.16	10	77	Feedback	AvoidedLoss	True
733.569	2.579	Lose2	0.6409999999999999	n/a	Yes	2.579	n/a	n/a	GoodResponse	0	0.0	n/a	10	77	ISIslide	AvoidedLoss	True
