onset	duration	cue_type	current_mean_accuracy	duration_error	is_hit	isi_adjusted	onset_delay	response	response_type	reward	rt	rt_time	total_reward	trial_number	trial_phase	trial_type	one_press
11.101	0.25	Control	1.0	0.0	Yes	2.949	0.001	n/a	GoodResponse	0	n/a	n/a	0	0	Cue	Neutral	True
11.351	3.85	Control	1.0	0.0	Yes	2.949	0.0	n/a	GoodResponse	0	n/a	n/a	0	0	Fixation	Neutral	True
15.199	0.4	Control	1.0	0.002	Yes	2.949	-0.002	4.0	GoodResponse	0	0.22	14.419	0	0	Target	Neutral	True
15.419	0.3	Control	1.0	0.002	Yes	2.949	-0.002	4.0	GoodResponse	0	0.22	n/a	0	0	ButtonPress	Neutral	True
15.599	0.3	Control	1.0	n/a	Yes	2.949	n/a	n/a	GoodResponse	0	n/a	n/a	0	0	Blank	Neutral	True
15.899	1.45	Control	1.0	n/a	Yes	2.949	n/a	5.0	GoodResponse	0	0.03	14.929	0	0	Feedback	Neutral	True
17.348	2.949	Control	1.0	n/a	Yes	2.949	n/a	n/a	GoodResponse	0	0.0	n/a	0	0	ISIslide	Neutral	True
20.331	0.25	Lose2	1.0	0.0	Yes	2.769	0.031	n/a	GoodResponse	0	n/a	n/a	0	1	Cue	AvoidedLoss	False
20.581	4.0	Lose2	1.0	0.0	Yes	2.769	0.0	4.0	GoodResponse	0	0.291	19.872	0	1	Fixation	AvoidedLoss	False
20.872	0.3	Lose2	1.0	0.0	Yes	2.769	0.0	4.0	GoodResponse	0	0.291	n/a	0	1	ButtonPress	AvoidedLoss	False
24.579	0.39	Lose2	1.0	0.002	Yes	2.769	-0.002	4.0	GoodResponse	0	0.242	23.821	0	1	Target	AvoidedLoss	False
24.821	0.3	Lose2	1.0	0.002	Yes	2.769	-0.002	4.0	GoodResponse	0	0.242	n/a	0	1	ButtonPress	AvoidedLoss	False
24.979	0.31	Lose2	1.0	n/a	Yes	2.769	n/a	n/a	GoodResponse	0	n/a	n/a	0	1	Blank	AvoidedLoss	False
25.279	1.45	Lose2	1.0	n/a	Yes	2.769	n/a	5.0	GoodResponse	0	0.016	24.295	0	1	Feedback	AvoidedLoss	False
26.728	2.769	Lose2	1.0	n/a	Yes	2.769	n/a	n/a	GoodResponse	0	0.0	n/a	0	1	ISIslide	AvoidedLoss	False
29.527	0.25	Control	1.0	0.001	Yes	2.573	0.027	n/a	GoodResponse	0	n/a	n/a	0	2	Cue	Neutral	True
29.777	4.1	Control	1.0	0.0	Yes	2.573	0.0	n/a	GoodResponse	0	n/a	n/a	0	2	Fixation	Neutral	True
33.876	0.38	Control	1.0	0.001	Yes	2.573	-0.001	4.0	GoodResponse	0	0.244	33.12	0	2	Target	Neutral	True
34.12	0.3	Control	1.0	0.001	Yes	2.573	-0.001	4.0	GoodResponse	0	0.244	n/a	0	2	ButtonPress	Neutral	True
34.259	0.32	Control	1.0	n/a	Yes	2.573	n/a	n/a	GoodResponse	0	n/a	n/a	0	2	Blank	Neutral	True
34.576	1.45	Control	1.0	n/a	Yes	2.573	n/a	5.0	GoodResponse	0	0.036	33.612	0	2	Feedback	Neutral	True
36.025	2.573	Control	1.0	n/a	Yes	2.573	n/a	n/a	GoodResponse	0	0.0	n/a	0	2	ISIslide	Neutral	True
38.624	0.25	Win2	1.0	0.0	Yes	2.826	0.024	n/a	GoodResponse	1	n/a	n/a	1	3	Cue	Win	True
38.874	3.95	Win2	1.0	0.0	Yes	2.826	0.0	n/a	GoodResponse	1	n/a	n/a	1	3	Fixation	Win	True
42.823	0.37	Win2	1.0	0.001	Yes	2.826	-0.001	4.0	GoodResponse	1	0.24	42.063	1	3	Target	Win	True
43.063	0.3	Win2	1.0	0.001	Yes	2.826	-0.001	4.0	GoodResponse	1	0.24	n/a	1	3	ButtonPress	Win	True
43.189	0.33	Win2	1.0	n/a	Yes	2.826	n/a	n/a	GoodResponse	1	n/a	n/a	1	3	Blank	Win	True
43.523	1.45	Win2	1.0	n/a	Yes	2.826	n/a	5.0	GoodResponse	1	0.015	42.538	1	3	Feedback	Win	True
44.972	2.826	Win2	1.0	n/a	Yes	2.826	n/a	n/a	GoodResponse	1	0.0	n/a	1	3	ISIslide	Win	True
47.821	0.25	Win2	1.0	0.0	Yes	3.279	0.021	n/a	GoodResponse	1	n/a	n/a	2	4	Cue	Win	True
48.071	4.0	Win2	1.0	0.0	Yes	3.279	0.0	n/a	GoodResponse	1	n/a	n/a	2	4	Fixation	Win	True
52.07	0.36	Win2	1.0	0.001	Yes	3.279	-0.001	4.0	GoodResponse	1	0.219	51.289	2	4	Target	Win	True
52.289	0.3	Win2	1.0	0.001	Yes	3.279	-0.001	4.0	GoodResponse	1	0.219	n/a	2	4	ButtonPress	Win	True
52.436	0.34	Win2	1.0	n/a	Yes	3.279	n/a	n/a	GoodResponse	1	n/a	n/a	2	4	Blank	Win	True
52.769	1.45	Win2	1.0	n/a	Yes	3.279	n/a	5.0	GoodResponse	1	0.038	51.807	2	4	Feedback	Win	True
54.219	3.279	Win2	1.0	n/a	Yes	3.279	n/a	n/a	GoodResponse	1	0.0	n/a	2	4	ISIslide	Win	True
57.518	0.25	Win2	1.0	0.0	Yes	2.782	0.018	n/a	GoodResponse	1	n/a	n/a	3	5	Cue	Win	True
57.767	4.0	Win2	1.0	0.001	Yes	2.782	-0.001	n/a	GoodResponse	1	n/a	n/a	3	5	Fixation	Win	True
61.766	0.35	Win2	1.0	0.002	Yes	2.782	-0.002	4.0	GoodResponse	1	0.278	61.044	3	5	Target	Win	True
62.044	0.3	Win2	1.0	0.002	Yes	2.782	-0.002	4.0	GoodResponse	1	0.278	n/a	3	5	ButtonPress	Win	True
62.116	0.35	Win2	1.0	n/a	Yes	2.782	n/a	n/a	GoodResponse	1	n/a	n/a	3	5	Blank	Win	True
62.466	1.45	Win2	1.0	n/a	Yes	2.782	n/a	5.0	GoodResponse	1	0.048	61.514	3	5	Feedback	Win	True
63.915	2.782	Win2	1.0	n/a	Yes	2.782	n/a	n/a	GoodResponse	1	0.0	n/a	3	5	ISIslide	Win	True
66.714	0.25	Lose2	1.0	0.0	Yes	2.736	0.014	n/a	GoodResponse	0	n/a	n/a	3	6	Cue	AvoidedLoss	True
66.964	3.95	Lose2	1.0	0.0	Yes	2.736	0.0	n/a	GoodResponse	0	n/a	n/a	3	6	Fixation	AvoidedLoss	True
70.913	0.34	Lose2	1.0	0.001	Yes	2.736	-0.001	4.0	GoodResponse	0	0.276	70.189	3	6	Target	AvoidedLoss	True
71.189	0.3	Lose2	1.0	0.001	Yes	2.736	-0.001	4.0	GoodResponse	0	0.276	n/a	3	6	ButtonPress	AvoidedLoss	True
71.263	0.36	Lose2	1.0	n/a	Yes	2.736	n/a	n/a	GoodResponse	0	n/a	n/a	3	6	Blank	AvoidedLoss	True
71.613	1.45	Lose2	1.0	n/a	Yes	2.736	n/a	5.0	GoodResponse	0	0.023	70.636	3	6	Feedback	AvoidedLoss	True
73.062	2.736	Lose2	1.0	n/a	Yes	2.736	n/a	n/a	GoodResponse	0	0.0	n/a	3	6	ISIslide	AvoidedLoss	True
75.828	0.25	Lose2	1.0	0.0	Yes	4.022	0.028	n/a	GoodResponse	0	n/a	n/a	3	7	Cue	AvoidedLoss	True
76.078	4.05	Lose2	1.0	0.0	Yes	4.022	0.0	n/a	GoodResponse	0	n/a	n/a	3	7	Fixation	AvoidedLoss	True
80.126	0.33	Lose2	1.0	0.002	Yes	4.022	-0.002	4.0	GoodResponse	0	0.234	79.36	3	7	Target	AvoidedLoss	True
80.36	0.3	Lose2	1.0	0.002	Yes	4.022	-0.002	4.0	GoodResponse	0	0.234	n/a	3	7	ButtonPress	AvoidedLoss	True
80.46	0.37	Lose2	1.0	n/a	Yes	4.022	n/a	n/a	GoodResponse	0	n/a	n/a	3	7	Blank	AvoidedLoss	True
80.826	1.45	Lose2	1.0	n/a	Yes	4.022	n/a	5.0	GoodResponse	0	0.029	79.855	3	7	Feedback	AvoidedLoss	True
82.276	4.022	Lose2	1.0	n/a	Yes	4.022	n/a	n/a	GoodResponse	0	0.0	n/a	3	7	ISIslide	AvoidedLoss	True
86.324	0.25	Lose2	1.0	0.0	Yes	3.026	0.024	n/a	GoodResponse	0	n/a	n/a	3	8	Cue	AvoidedLoss	True
86.574	3.95	Lose2	1.0	0.0	Yes	3.026	0.0	n/a	GoodResponse	0	n/a	n/a	3	8	Fixation	AvoidedLoss	True
90.523	0.32	Lose2	1.0	0.001	Yes	3.026	-0.001	4.0	GoodResponse	0	0.287	89.81	3	8	Target	AvoidedLoss	True
90.81	0.3	Lose2	1.0	0.001	Yes	3.026	-0.001	4.0	GoodResponse	0	0.287	n/a	3	8	ButtonPress	AvoidedLoss	True
90.856	0.38	Lose2	1.0	n/a	Yes	3.026	n/a	n/a	GoodResponse	0	n/a	n/a	3	8	Blank	AvoidedLoss	True
91.222	1.45	Lose2	1.0	n/a	Yes	3.026	n/a	5.0	GoodResponse	0	0.023	90.245	3	8	Feedback	AvoidedLoss	True
92.672	3.026	Lose2	1.0	n/a	Yes	3.026	n/a	n/a	GoodResponse	0	0.0	n/a	3	8	ISIslide	AvoidedLoss	True
95.721	0.25	Lose2	1.0	0.0	Yes	3.129	0.021	n/a	GoodResponse	0	n/a	n/a	3	9	Cue	AvoidedLoss	True
95.971	3.95	Lose2	1.0	0.0	Yes	3.129	0.0	n/a	GoodResponse	0	n/a	n/a	3	9	Fixation	AvoidedLoss	True
99.919	0.31	Lose2	1.0	0.002	Yes	3.129	-0.002	4.0	GoodResponse	0	0.238	99.157	3	9	Target	AvoidedLoss	True
100.157	0.3	Lose2	1.0	0.002	Yes	3.129	-0.002	4.0	GoodResponse	0	0.238	n/a	3	9	ButtonPress	AvoidedLoss	True
100.236	0.39	Lose2	1.0	n/a	Yes	3.129	n/a	n/a	GoodResponse	0	n/a	n/a	3	9	Blank	AvoidedLoss	True
100.619	1.45	Lose2	1.0	n/a	Yes	3.129	n/a	5.0	GoodResponse	0	0.041	99.66	3	9	Feedback	AvoidedLoss	True
102.069	3.129	Lose2	1.0	n/a	Yes	3.129	n/a	n/a	GoodResponse	0	0.0	n/a	3	9	ISIslide	AvoidedLoss	True
105.217	0.25	Control	1.0	0.001	Yes	3.283	0.017	n/a	GoodResponse	0	n/a	n/a	3	10	Cue	Neutral	True
105.467	4.0	Control	1.0	0.0	Yes	3.283	0.0	n/a	GoodResponse	0	n/a	n/a	3	10	Fixation	Neutral	True
109.466	0.3	Control	1.0	0.001	Yes	3.283	-0.001	4.0	GoodResponse	0	0.239	108.705	3	10	Target	Neutral	True
109.705	0.3	Control	1.0	0.001	Yes	3.283	-0.001	4.0	GoodResponse	0	0.239	n/a	3	10	ButtonPress	Neutral	True
109.766	0.4	Control	1.0	n/a	Yes	3.283	n/a	n/a	GoodResponse	0	n/a	n/a	3	10	Blank	Neutral	True
110.166	1.45	Control	1.0	n/a	Yes	3.283	n/a	5.0	GoodResponse	0	0.006	109.172	3	10	Feedback	Neutral	True
111.615	3.283	Control	1.0	n/a	Yes	3.283	n/a	n/a	GoodResponse	0	0.0	n/a	3	10	ISIslide	Neutral	True
114.914	0.25	Lose2	1.0	0.0	Yes	2.736	0.014	n/a	GoodResponse	0	n/a	n/a	3	11	Cue	AvoidedLoss	True
115.164	4.05	Lose2	1.0	0.0	Yes	2.736	0.0	n/a	GoodResponse	0	n/a	n/a	3	11	Fixation	AvoidedLoss	True
119.213	0.29	Lose2	1.0	0.001	Yes	2.736	-0.001	4.0	GoodResponse	0	0.249	118.462	3	11	Target	AvoidedLoss	True
119.462	0.3	Lose2	1.0	0.001	Yes	2.736	-0.001	4.0	GoodResponse	0	0.249	n/a	3	11	ButtonPress	AvoidedLoss	True
119.512	0.41	Lose2	1.0	n/a	Yes	2.736	n/a	n/a	GoodResponse	0	n/a	n/a	3	11	Blank	AvoidedLoss	True
119.912	1.45	Lose2	1.0	n/a	Yes	2.736	n/a	5.0	GoodResponse	0	0.016	118.928	3	11	Feedback	AvoidedLoss	True
121.362	2.736	Lose2	1.0	n/a	Yes	2.736	n/a	n/a	GoodResponse	0	0.0	n/a	3	11	ISIslide	AvoidedLoss	True
124.127	0.25	Control	1.0	0.001	Yes	2.973	0.027	n/a	GoodResponse	0	n/a	n/a	3	12	Cue	Neutral	True
124.377	3.9	Control	1.0	0.0	Yes	2.973	0.0	n/a	GoodResponse	0	n/a	n/a	3	12	Fixation	Neutral	True
128.276	0.28	Control	1.0	0.001	Yes	2.973	-0.001	4.0	GoodResponse	0	0.202	127.478	3	12	Target	Neutral	True
128.478	0.3	Control	1.0	0.001	Yes	2.973	-0.001	4.0	GoodResponse	0	0.202	n/a	3	12	ButtonPress	Neutral	True
128.559	0.42	Control	1.0	n/a	Yes	2.973	n/a	n/a	GoodResponse	0	n/a	n/a	3	12	Blank	Neutral	True
128.976	1.45	Control	1.0	n/a	Yes	2.973	n/a	5.0	GoodResponse	0	0.025	128.001	3	12	Feedback	Neutral	True
130.425	2.973	Control	1.0	n/a	Yes	2.973	n/a	n/a	GoodResponse	0	0.0	n/a	3	12	ISIslide	Neutral	True
133.424	0.25	Control	1.0	0.0	Yes	2.776	0.024	n/a	GoodResponse	0	n/a	n/a	3	13	Cue	Neutral	True
133.674	4.0	Control	1.0	0.0	Yes	2.776	0.0	n/a	GoodResponse	0	n/a	n/a	3	13	Fixation	Neutral	True
137.673	0.27	Control	1.0	0.001	Yes	2.776	-0.001	4.0	GoodResponse	0	0.215	136.888	3	13	Target	Neutral	True
137.888	0.3	Control	1.0	0.001	Yes	2.776	-0.001	4.0	GoodResponse	0	0.215	n/a	3	13	ButtonPress	Neutral	True
137.956	0.43	Control	1.0	n/a	Yes	2.776	n/a	n/a	GoodResponse	0	n/a	n/a	3	13	Blank	Neutral	True
138.372	1.45	Control	1.0	n/a	Yes	2.776	n/a	5.0	GoodResponse	0	0.043	137.415	3	13	Feedback	Neutral	True
139.822	2.776	Control	1.0	n/a	Yes	2.776	n/a	n/a	GoodResponse	0	0.0	n/a	3	13	ISIslide	Neutral	True
142.621	0.25	Win2	1.0	0.0	Yes	2.679	0.021	n/a	GoodResponse	1	n/a	n/a	4	14	Cue	Win	True
142.871	4.1	Win2	1.0	0.0	Yes	2.679	0.0	n/a	GoodResponse	1	n/a	n/a	4	14	Fixation	Win	True
146.969	0.26	Win2	1.0	0.002	Yes	2.679	-0.002	4.0	GoodResponse	1	0.204	146.173	4	14	Target	Win	True
147.173	0.3	Win2	1.0	0.002	Yes	2.679	-0.002	4.0	GoodResponse	1	0.204	n/a	4	14	ButtonPress	Win	True
147.236	0.44	Win2	1.0	n/a	Yes	2.679	n/a	n/a	GoodResponse	1	n/a	n/a	4	14	Blank	Win	True
147.669	1.45	Win2	1.0	n/a	Yes	2.679	n/a	5.0	GoodResponse	1	0.015	146.684	4	14	Feedback	Win	True
149.119	2.679	Win2	1.0	n/a	Yes	2.679	n/a	n/a	GoodResponse	1	0.0	n/a	4	14	ISIslide	Win	True
151.818	0.25	Control	1.0	0.0	Yes	2.982	0.018	n/a	GoodResponse	0	n/a	n/a	4	15	Cue	Neutral	True
152.068	4.0	Control	1.0	0.0	Yes	2.982	0.0	n/a	GoodResponse	0	n/a	n/a	4	15	Fixation	Neutral	True
156.066	0.25	Control	1.0	0.002	Yes	2.982	-0.002	4.0	GoodResponse	0	0.228	155.294	4	15	Target	Neutral	True
156.294	0.3	Control	1.0	0.002	Yes	2.982	-0.002	4.0	GoodResponse	0	0.228	n/a	4	15	ButtonPress	Neutral	True
156.316	0.45	Control	1.0	n/a	Yes	2.982	n/a	n/a	GoodResponse	0	n/a	n/a	4	15	Blank	Neutral	True
156.766	1.45	Control	1.0	n/a	Yes	2.982	n/a	5.0	GoodResponse	0	0.04	155.806	4	15	Feedback	Neutral	True
158.215	2.982	Control	1.0	n/a	Yes	2.982	n/a	n/a	GoodResponse	0	0.0	n/a	4	15	ISIslide	Neutral	True
161.214	0.25	Win2	1.0	0.0	Yes	2.886	0.014	n/a	GoodResponse	1	n/a	n/a	5	16	Cue	Win	True
161.464	4.0	Win2	1.0	0.0	Yes	2.886	0.0	n/a	GoodResponse	1	n/a	n/a	5	16	Fixation	Win	True
165.463	0.24	Win2	1.0	0.001	Yes	2.886	-0.001	4.0	GoodResponse	1	0.209	164.672	5	16	Target	Win	True
165.672	0.3	Win2	1.0	0.001	Yes	2.886	-0.001	4.0	GoodResponse	1	0.209	n/a	5	16	ButtonPress	Win	True
165.713	0.46	Win2	1.0	n/a	Yes	2.886	n/a	n/a	GoodResponse	1	n/a	n/a	5	16	Blank	Win	True
166.163	1.45	Win2	1.0	n/a	Yes	2.886	n/a	5.0	GoodResponse	1	0.008	165.171	5	16	Feedback	Win	True
167.612	2.886	Win2	1.0	n/a	Yes	2.886	n/a	n/a	GoodResponse	1	0.0	n/a	5	16	ISIslide	Win	True
170.528	0.25	Lose2	0.9444	0.0	No	2.722	0.028	n/a	NoResponse	-1	n/a	n/a	4	17	Cue	Loss	True
170.778	3.95	Lose2	0.9444	0.0	No	2.722	0.0	n/a	NoResponse	-1	n/a	n/a	4	17	Fixation	Loss	True
174.726	0.23	Lose2	0.9444	0.002	No	2.722	-0.002	4.0	NoResponse	-1	0.259	173.985	4	17	Target	Loss	True
174.96	0.47	Lose2	0.9444	n/a	No	2.722	n/a	n/a	NoResponse	-1	n/a	n/a	4	17	Blank	Loss	True
174.985	0.3	Lose2	0.9444	0.002	No	2.722	-0.002	4.0	NoResponse	-1	0.259	n/a	4	17	ButtonPress	Loss	True
175.426	1.45	Lose2	0.9444	n/a	No	2.722	n/a	5.0	NoResponse	-1	0.013	174.439	4	17	Feedback	Loss	True
176.876	2.722	Lose2	0.9444	n/a	No	2.722	n/a	n/a	NoResponse	-1	0.0	n/a	4	17	ISIslide	Loss	True
179.625	0.25	Lose2	0.8946999999999999	0.0	No	2.725	0.025	n/a	LatePress	-1	n/a	n/a	3	18	Cue	Loss	True
179.874	4.05	Lose2	0.8946999999999999	0.001	No	2.725	-0.001	n/a	LatePress	-1	n/a	n/a	3	18	Fixation	Loss	True
183.923	0.22	Lose2	0.8946999999999999	0.002	No	2.725	-0.002	4.0	LatePress	-1	0.232	183.155	3	18	Target	Loss	True
184.155	0.3	Lose2	0.8946999999999999	0.002	No	2.725	-0.002	4.0	LatePress	-1	0.232	n/a	3	18	ButtonPress	Loss	True
184.156	0.48	Lose2	0.8946999999999999	n/a	No	2.725	n/a	n/a	LatePress	-1	n/a	n/a	3	18	Blank	Loss	True
184.623	1.45	Lose2	0.8946999999999999	n/a	No	2.725	n/a	5.0	LatePress	-1	0.036	183.659	3	18	Feedback	Loss	True
186.072	2.725	Lose2	0.8946999999999999	n/a	No	2.725	n/a	n/a	LatePress	-1	0.0	n/a	3	18	ISIslide	Loss	True
188.821	0.25	Control	0.85	0.0	No	2.929	0.021	n/a	NoResponse	0	n/a	n/a	3	19	Cue	Neutral	True
189.071	3.95	Control	0.85	0.0	No	2.929	0.0	n/a	NoResponse	0	n/a	n/a	3	19	Fixation	Neutral	True
193.02	0.21	Control	0.85	0.001	No	2.929	-0.001	4.0	NoResponse	0	0.247	192.267	3	19	Target	Neutral	True
193.236	0.49	Control	0.85	n/a	No	2.929	n/a	n/a	NoResponse	0	n/a	n/a	3	19	Blank	Neutral	True
193.267	0.3	Control	0.85	0.001	No	2.929	-0.001	4.0	NoResponse	0	0.247	n/a	3	19	ButtonPress	Neutral	True
193.72	1.45	Control	0.85	n/a	No	2.929	n/a	5.0	NoResponse	0	0.012	192.732	3	19	Feedback	Neutral	True
195.169	2.929	Control	0.85	n/a	No	2.929	n/a	n/a	NoResponse	0	0.0	n/a	3	19	ISIslide	Neutral	True
198.118	0.25	Control	0.8095	0.0	No	2.632	0.018	n/a	NoResponse	0	n/a	n/a	3	20	Cue	Neutral	True
198.368	4.05	Control	0.8095	0.0	No	2.632	0.0	n/a	NoResponse	0	n/a	n/a	3	20	Fixation	Neutral	True
202.417	0.2	Control	0.8095	0.001	No	2.632	-0.001	4.0	NoResponse	0	0.236	201.653	3	20	Target	Neutral	True
202.616	0.5	Control	0.8095	n/a	No	2.632	n/a	n/a	NoResponse	0	n/a	n/a	3	20	Blank	Neutral	True
202.653	0.3	Control	0.8095	0.001	No	2.632	-0.001	4.0	NoResponse	0	0.236	n/a	3	20	ButtonPress	Neutral	True
203.116	1.45	Control	0.8095	n/a	No	2.632	n/a	5.0	NoResponse	0	0.031	202.147	3	20	Feedback	Neutral	True
204.566	2.632	Control	0.8095	n/a	No	2.632	n/a	n/a	NoResponse	0	0.0	n/a	3	20	ISIslide	Neutral	True
207.215	0.25	Control	0.7726999999999999	0.0	No	2.785	0.015	n/a	NoResponse	0	n/a	n/a	3	21	Cue	Neutral	True
207.465	4.1	Control	0.7726999999999999	0.0	No	2.785	0.0	n/a	NoResponse	0	n/a	n/a	3	21	Fixation	Neutral	True
211.563	0.19	Control	0.7726999999999999	0.002	No	2.785	-0.002	4.0	NoResponse	0	0.218	210.781	3	21	Target	Neutral	True
211.763	0.51	Control	0.7726999999999999	n/a	No	2.785	n/a	n/a	NoResponse	0	n/a	n/a	3	21	Blank	Neutral	True
211.781	0.3	Control	0.7726999999999999	0.002	No	2.785	-0.002	4.0	NoResponse	0	0.218	n/a	3	21	ButtonPress	Neutral	True
212.263	1.45	Control	0.7726999999999999	n/a	No	2.785	n/a	5.0	NoResponse	0	0.007	211.27	3	21	Feedback	Neutral	True
213.713	2.785	Control	0.7726999999999999	n/a	No	2.785	n/a	n/a	NoResponse	0	0.0	n/a	3	21	ISIslide	Neutral	True
216.528	0.25	Control	0.7391	0.0	No	2.772	0.028	n/a	NoResponse	0	n/a	n/a	3	22	Cue	Neutral	True
216.778	4.0	Control	0.7391	0.0	No	2.772	0.0	n/a	NoResponse	0	n/a	n/a	3	22	Fixation	Neutral	True
220.777	0.18	Control	0.7391	0.001	No	2.772	-0.001	4.0	NoResponse	0	0.203	219.98	3	22	Target	Neutral	True
220.96	0.52	Control	0.7391	n/a	No	2.772	n/a	n/a	NoResponse	0	n/a	n/a	3	22	Blank	Neutral	True
220.98	0.3	Control	0.7391	0.001	No	2.772	-0.001	4.0	NoResponse	0	0.203	n/a	3	22	ButtonPress	Neutral	True
221.476	1.45	Control	0.7391	n/a	No	2.772	n/a	5.0	NoResponse	0	0.012	220.488	3	22	Feedback	Neutral	True
222.926	2.772	Control	0.7391	n/a	No	2.772	n/a	n/a	NoResponse	0	0.0	n/a	3	22	ISIslide	Neutral	True
225.725	0.25	Control	0.7082999999999999	0.0	No	2.775	0.025	n/a	NoResponse	0	n/a	n/a	3	23	Cue	Neutral	True
225.975	3.9	Control	0.7082999999999999	0.0	No	2.775	0.0	n/a	NoResponse	0	n/a	n/a	3	23	Fixation	Neutral	True
229.874	0.17	Control	0.7082999999999999	0.001	No	2.775	-0.001	4.0	NoResponse	0	0.261	229.135	3	23	Target	Neutral	True
230.057	0.53	Control	0.7082999999999999	n/a	No	2.775	n/a	n/a	NoResponse	0	n/a	n/a	3	23	Blank	Neutral	True
230.135	0.3	Control	0.7082999999999999	0.001	No	2.775	-0.001	4.0	NoResponse	0	0.261	n/a	3	23	ButtonPress	Neutral	True
230.573	1.45	Control	0.7082999999999999	n/a	No	2.775	n/a	5.0	NoResponse	0	0.037	229.61	3	23	Feedback	Neutral	True
232.023	2.775	Control	0.7082999999999999	n/a	No	2.775	n/a	n/a	NoResponse	0	0.0	n/a	3	23	ISIslide	Neutral	True
234.822	0.25	Win2	0.68	0.0	No	3.128	0.022	n/a	NoResponse	0	n/a	n/a	3	24	Cue	MissedWin	True
235.072	3.95	Win2	0.68	0.0	No	3.128	0.0	n/a	NoResponse	0	n/a	n/a	3	24	Fixation	MissedWin	True
239.02	0.16	Win2	0.68	0.002	No	3.128	-0.002	4.0	NoResponse	0	0.217	238.237	3	24	Target	MissedWin	True
239.187	0.54	Win2	0.68	n/a	No	3.128	n/a	n/a	NoResponse	0	n/a	n/a	3	24	Blank	MissedWin	True
239.237	0.3	Win2	0.68	0.002	No	3.128	-0.002	4.0	NoResponse	0	0.217	n/a	3	24	ButtonPress	MissedWin	True
239.72	1.45	Win2	0.68	n/a	No	3.128	n/a	5.0	NoResponse	0	0.012	238.732	3	24	Feedback	MissedWin	True
241.17	3.128	Win2	0.68	n/a	No	3.128	n/a	n/a	NoResponse	0	0.0	n/a	3	24	ISIslide	MissedWin	True
244.318	0.25	Win2	0.6537999999999999	0.001	No	3.082	0.018	n/a	NoResponse	0	n/a	n/a	3	25	Cue	MissedWin	True
244.568	4.0	Win2	0.6537999999999999	0.0	No	3.082	0.0	n/a	NoResponse	0	n/a	n/a	3	25	Fixation	MissedWin	True
248.567	0.15	Win2	0.6537999999999999	0.001	No	3.082	-0.001	4.0	NoResponse	0	0.23	247.797	3	25	Target	MissedWin	True
248.717	0.55	Win2	0.6537999999999999	n/a	No	3.082	n/a	n/a	NoResponse	0	n/a	n/a	3	25	Blank	MissedWin	True
248.797	0.3	Win2	0.6537999999999999	0.001	No	3.082	-0.001	4.0	NoResponse	0	0.23	n/a	3	25	ButtonPress	MissedWin	True
249.267	1.45	Win2	0.6537999999999999	n/a	No	3.082	n/a	5.0	NoResponse	0	0.026	248.293	3	25	Feedback	MissedWin	True
250.716	3.082	Win2	0.6537999999999999	n/a	No	3.082	n/a	n/a	NoResponse	0	0.0	n/a	3	25	ISIslide	MissedWin	True
253.815	0.25	Win2	0.6296	0.0	No	2.935	0.015	n/a	NoResponse	0	n/a	n/a	3	26	Cue	MissedWin	True
254.065	3.95	Win2	0.6296	0.0	No	2.935	0.0	n/a	NoResponse	0	n/a	n/a	3	26	Fixation	MissedWin	True
258.014	0.16	Win2	0.6296	0.001	No	2.935	-0.001	4.0	NoResponse	0	0.242	257.256	3	26	Target	MissedWin	True
258.18	0.54	Win2	0.6296	n/a	No	2.935	n/a	n/a	NoResponse	0	n/a	n/a	3	26	Blank	MissedWin	True
258.256	0.3	Win2	0.6296	0.001	No	2.935	-0.001	4.0	NoResponse	0	0.242	n/a	3	26	ButtonPress	MissedWin	True
258.713	1.45	Win2	0.6296	n/a	No	2.935	n/a	5.0	NoResponse	0	0.043	257.756	3	26	Feedback	MissedWin	True
260.163	2.935	Win2	0.6296	n/a	No	2.935	n/a	n/a	NoResponse	0	0.0	n/a	3	26	ISIslide	MissedWin	True
263.128	0.25	Lose2	0.6071	0.001	No	2.822	0.028	n/a	NoResponse	-1	n/a	n/a	2	27	Cue	Loss	True
263.378	4.05	Lose2	0.6071	0.0	No	2.822	0.0	n/a	NoResponse	-1	n/a	n/a	2	27	Fixation	Loss	True
267.427	0.17	Lose2	0.6071	0.001	No	2.822	-0.001	4.0	NoResponse	-1	0.207	266.634	2	27	Target	Loss	True
267.594	0.53	Lose2	0.6071	n/a	No	2.822	n/a	n/a	NoResponse	-1	n/a	n/a	2	27	Blank	Loss	True
267.634	0.3	Lose2	0.6071	0.001	No	2.822	-0.001	4.0	NoResponse	-1	0.207	n/a	2	27	ButtonPress	Loss	True
268.127	1.45	Lose2	0.6071	n/a	No	2.822	n/a	5.0	NoResponse	-1	0.043	267.17	2	27	Feedback	Loss	True
269.576	2.822	Lose2	0.6071	n/a	No	2.822	n/a	n/a	NoResponse	-1	0.0	n/a	2	27	ISIslide	Loss	True
272.425	0.25	Control	0.5861999999999999	0.0	No	2.825	0.025	n/a	NoResponse	0	n/a	n/a	2	28	Cue	Neutral	True
272.675	4.05	Control	0.5861999999999999	0.0	No	2.825	0.0	n/a	NoResponse	0	n/a	n/a	2	28	Fixation	Neutral	True
276.724	0.18	Control	0.5861999999999999	0.001	No	2.825	-0.001	4.0	NoResponse	0	0.217	275.941	2	28	Target	Neutral	True
276.907	0.52	Control	0.5861999999999999	n/a	No	2.825	n/a	n/a	NoResponse	0	n/a	n/a	2	28	Blank	Neutral	True
276.941	0.3	Control	0.5861999999999999	0.001	No	2.825	-0.001	4.0	NoResponse	0	0.217	n/a	2	28	ButtonPress	Neutral	True
277.423	1.45	Control	0.5861999999999999	n/a	No	2.825	n/a	5.0	NoResponse	0	0.016	276.439	2	28	Feedback	Neutral	True
278.873	2.825	Control	0.5861999999999999	n/a	No	2.825	n/a	n/a	NoResponse	0	0.0	n/a	2	28	ISIslide	Neutral	True
281.722	0.25	Lose2	0.5667	0.0	No	2.828	0.022	n/a	LatePress	-1	n/a	n/a	1	29	Cue	Loss	True
281.972	3.95	Lose2	0.5667	0.0	No	2.828	0.0	n/a	LatePress	-1	n/a	n/a	1	29	Fixation	Loss	True
285.92	0.19	Lose2	0.5667	0.002	No	2.828	-0.002	4.0	LatePress	-1	0.2	285.12	1	29	Target	Loss	True
286.12	0.51	Lose2	0.5667	n/a	No	2.828	n/a	n/a	LatePress	-1	n/a	n/a	1	29	Blank	Loss	True
286.12	0.3	Lose2	0.5667	0.002	No	2.828	-0.002	4.0	LatePress	-1	0.2	n/a	1	29	ButtonPress	Loss	True
286.62	1.45	Lose2	0.5667	n/a	No	2.828	n/a	5.0	LatePress	-1	0.038	285.658	1	29	Feedback	Loss	True
288.07	2.828	Lose2	0.5667	n/a	No	2.828	n/a	n/a	LatePress	-1	0.0	n/a	1	29	ISIslide	Loss	True
290.919	0.25	Win2	0.5484	0.0	No	2.781	0.019	n/a	NoResponse	0	n/a	n/a	1	30	Cue	MissedWin	True
291.169	3.9	Win2	0.5484	0.0	No	2.781	0.0	n/a	NoResponse	0	n/a	n/a	1	30	Fixation	MissedWin	True
295.067	0.2	Win2	0.5484	0.002	No	2.781	-0.002	4.0	NoResponse	0	0.209	294.276	1	30	Target	MissedWin	True
295.267	0.5	Win2	0.5484	n/a	No	2.781	n/a	n/a	NoResponse	0	n/a	n/a	1	30	Blank	MissedWin	True
295.276	0.3	Win2	0.5484	0.002	No	2.781	-0.002	4.0	NoResponse	0	0.209	n/a	1	30	ButtonPress	MissedWin	True
295.767	1.45	Win2	0.5484	n/a	No	2.781	n/a	5.0	NoResponse	0	0.012	294.779	1	30	Feedback	MissedWin	True
297.216	2.781	Win2	0.5484	n/a	No	2.781	n/a	n/a	NoResponse	0	0.0	n/a	1	30	ISIslide	MissedWin	True
300.015	0.25	Lose2	0.5312	0.001	No	2.835	0.015	n/a	NoResponse	-1	n/a	n/a	0	31	Cue	Loss	True
300.265	4.05	Lose2	0.5312	0.0	No	2.835	0.0	n/a	NoResponse	-1	n/a	n/a	0	31	Fixation	Loss	True
304.314	0.21	Lose2	0.5312	0.001	No	2.835	-0.001	4.0	NoResponse	-1	0.224	303.538	0	31	Target	Loss	True
304.531	0.49	Lose2	0.5312	n/a	No	2.835	n/a	n/a	NoResponse	-1	n/a	n/a	0	31	Blank	Loss	True
304.538	0.3	Lose2	0.5312	0.001	No	2.835	-0.001	4.0	NoResponse	-1	0.224	n/a	0	31	ButtonPress	Loss	True
305.014	1.45	Lose2	0.5312	n/a	No	2.835	n/a	5.0	NoResponse	-1	0.034	304.048	0	31	Feedback	Loss	True
306.463	2.835	Lose2	0.5312	n/a	No	2.835	n/a	n/a	NoResponse	-1	0.0	n/a	0	31	ISIslide	Loss	True
309.329	0.25	Lose2	0.5152	0.0	No	2.621	0.029	n/a	NoResponse	-1	n/a	n/a	-1	32	Cue	Loss	True
309.579	4.15	Lose2	0.5152	0.0	No	2.621	0.0	n/a	NoResponse	-1	n/a	n/a	-1	32	Fixation	Loss	True
313.727	0.22	Lose2	0.5152	0.002	No	2.621	-0.002	4.0	NoResponse	-1	0.241	312.968	-1	32	Target	Loss	True
313.961	0.48	Lose2	0.5152	n/a	No	2.621	n/a	n/a	NoResponse	-1	n/a	n/a	-1	32	Blank	Loss	True
313.968	0.3	Lose2	0.5152	0.002	No	2.621	-0.002	4.0	NoResponse	-1	0.241	n/a	-1	32	ButtonPress	Loss	True
314.427	1.45	Lose2	0.5152	n/a	No	2.621	n/a	5.0	NoResponse	-1	0.036	313.463	-1	32	Feedback	Loss	True
315.877	2.621	Lose2	0.5152	n/a	No	2.621	n/a	n/a	NoResponse	-1	0.0	n/a	-1	32	ISIslide	Loss	True
318.526	0.25	Win2	0.5294	0.0	Yes	2.674	0.026	n/a	GoodResponse	1	n/a	n/a	0	33	Cue	Win	True
318.776	4.0	Win2	0.5294	0.0	Yes	2.674	0.0	n/a	GoodResponse	1	n/a	n/a	0	33	Fixation	Win	True
322.774	0.23	Win2	0.5294	0.002	Yes	2.674	-0.002	4.0	GoodResponse	1	0.222	321.996	0	33	Target	Win	True
322.996	0.3	Win2	0.5294	0.002	Yes	2.674	-0.002	4.0	GoodResponse	1	0.222	n/a	0	33	ButtonPress	Win	True
323.007	0.47	Win2	0.5294	n/a	Yes	2.674	n/a	n/a	GoodResponse	1	n/a	n/a	0	33	Blank	Win	True
323.474	1.45	Win2	0.5294	n/a	Yes	2.674	n/a	5.0	GoodResponse	1	0.013	322.487	0	33	Feedback	Win	True
324.923	2.674	Win2	0.5294	n/a	Yes	2.674	n/a	n/a	GoodResponse	1	0.0	n/a	0	33	ISIslide	Win	True
327.622	0.25	Lose2	0.5428999999999999	0.001	Yes	2.628	0.022	n/a	GoodResponse	0	n/a	n/a	0	34	Cue	AvoidedLoss	True
327.872	4.05	Lose2	0.5428999999999999	0.0	Yes	2.628	0.0	n/a	GoodResponse	0	n/a	n/a	0	34	Fixation	AvoidedLoss	True
331.921	0.24	Lose2	0.5428999999999999	0.001	Yes	2.628	-0.001	4.0	GoodResponse	0	0.213	331.134	0	34	Target	AvoidedLoss	True
332.134	0.3	Lose2	0.5428999999999999	0.001	Yes	2.628	-0.001	4.0	GoodResponse	0	0.213	n/a	0	34	ButtonPress	AvoidedLoss	True
332.171	0.46	Lose2	0.5428999999999999	n/a	Yes	2.628	n/a	n/a	GoodResponse	0	n/a	n/a	0	34	Blank	AvoidedLoss	True
332.621	1.45	Lose2	0.5428999999999999	n/a	Yes	2.628	n/a	5.0	GoodResponse	0	0.037	331.658	0	34	Feedback	AvoidedLoss	True
334.07	2.628	Lose2	0.5428999999999999	n/a	Yes	2.628	n/a	n/a	GoodResponse	0	0.0	n/a	0	34	ISIslide	AvoidedLoss	True
336.719	0.25	Lose2	0.5556	0.0	Yes	2.681	0.019	n/a	GoodResponse	0	n/a	n/a	0	35	Cue	AvoidedLoss	False
336.969	4.0	Lose2	0.5556	0.0	Yes	2.681	0.0	4.0	GoodResponse	0	1.328	337.297	0	35	Fixation	AvoidedLoss	False
338.297	0.3	Lose2	0.5556	0.0	Yes	2.681	0.0	4.0	GoodResponse	0	1.328	n/a	0	35	ButtonPress	AvoidedLoss	False
340.968	0.25	Lose2	0.5556	0.001	Yes	2.681	-0.001	4.0	GoodResponse	0	0.242	340.21	0	35	Target	AvoidedLoss	False
341.21	0.3	Lose2	0.5556	0.001	Yes	2.681	-0.001	4.0	GoodResponse	0	0.242	n/a	0	35	ButtonPress	AvoidedLoss	False
341.218	0.45	Lose2	0.5556	n/a	Yes	2.681	n/a	n/a	GoodResponse	0	n/a	n/a	0	35	Blank	AvoidedLoss	False
341.667	1.45	Lose2	0.5556	n/a	Yes	2.681	n/a	5.0	GoodResponse	0	0.014	340.681	0	35	Feedback	AvoidedLoss	False
343.117	2.681	Lose2	0.5556	n/a	Yes	2.681	n/a	n/a	GoodResponse	0	0.0	n/a	0	35	ISIslide	AvoidedLoss	False
345.816	0.25	Control	0.5676	0.0	Yes	2.684	0.016	n/a	GoodResponse	0	n/a	n/a	0	36	Cue	Neutral	True
346.066	4.0	Control	0.5676	0.0	Yes	2.684	0.0	n/a	GoodResponse	0	n/a	n/a	0	36	Fixation	Neutral	True
350.065	0.26	Control	0.5676	0.001	Yes	2.684	-0.001	4.0	GoodResponse	0	0.225	349.29	0	36	Target	Neutral	True
350.29	0.3	Control	0.5676	0.001	Yes	2.684	-0.001	4.0	GoodResponse	0	0.225	n/a	0	36	ButtonPress	Neutral	True
350.331	0.44	Control	0.5676	n/a	Yes	2.684	n/a	n/a	GoodResponse	0	n/a	n/a	0	36	Blank	Neutral	True
350.764	1.45	Control	0.5676	n/a	Yes	2.684	n/a	5.0	GoodResponse	0	0.04	349.804	0	36	Feedback	Neutral	True
352.214	2.684	Control	0.5676	n/a	Yes	2.684	n/a	n/a	GoodResponse	0	0.0	n/a	0	36	ISIslide	Neutral	True
354.929	0.25	Win2	0.5789	0.001	Yes	2.871	0.029	n/a	GoodResponse	1	n/a	n/a	1	37	Cue	Win	True
355.179	4.0	Win2	0.5789	0.0	Yes	2.871	0.0	n/a	GoodResponse	1	n/a	n/a	1	37	Fixation	Win	True
359.178	0.27	Win2	0.5789	0.001	Yes	2.871	-0.001	4.0	GoodResponse	1	0.224	358.402	1	37	Target	Win	True
359.402	0.3	Win2	0.5789	0.001	Yes	2.871	-0.001	4.0	GoodResponse	1	0.224	n/a	1	37	ButtonPress	Win	True
359.445	0.43	Win2	0.5789	n/a	Yes	2.871	n/a	n/a	GoodResponse	1	n/a	n/a	1	37	Blank	Win	True
359.878	1.45	Win2	0.5789	n/a	Yes	2.871	n/a	5.0	GoodResponse	1	0.048	358.926	1	37	Feedback	Win	True
361.327	2.871	Win2	0.5789	n/a	Yes	2.871	n/a	n/a	GoodResponse	1	0.0	n/a	1	37	ISIslide	Win	True
364.226	0.25	Lose2	0.5897	0.0	Yes	2.824	0.026	n/a	GoodResponse	0	n/a	n/a	1	38	Cue	AvoidedLoss	True
364.476	3.95	Lose2	0.5897	0.0	Yes	2.824	0.0	n/a	GoodResponse	0	n/a	n/a	1	38	Fixation	AvoidedLoss	True
368.425	0.28	Lose2	0.5897	0.001	Yes	2.824	-0.001	4.0	GoodResponse	0	0.233	367.658	1	38	Target	AvoidedLoss	True
368.658	0.3	Lose2	0.5897	0.001	Yes	2.824	-0.001	4.0	GoodResponse	0	0.233	n/a	1	38	ButtonPress	AvoidedLoss	True
368.708	0.42	Lose2	0.5897	n/a	Yes	2.824	n/a	n/a	GoodResponse	0	n/a	n/a	1	38	Blank	AvoidedLoss	True
369.124	1.45	Lose2	0.5897	n/a	Yes	2.824	n/a	5.0	GoodResponse	0	0.021	368.145	1	38	Feedback	AvoidedLoss	True
370.574	2.824	Lose2	0.5897	n/a	Yes	2.824	n/a	n/a	GoodResponse	0	0.0	n/a	1	38	ISIslide	AvoidedLoss	True
373.423	0.25	Win2	0.6	0.0	Yes	2.977	0.023	n/a	GoodResponse	1	n/a	n/a	2	39	Cue	Win	True
373.673	4.1	Win2	0.6	0.0	Yes	2.977	0.0	n/a	GoodResponse	1	n/a	n/a	2	39	Fixation	Win	True
377.771	0.29	Win2	0.6	0.002	Yes	2.977	-0.002	4.0	GoodResponse	1	0.269	377.04	2	39	Target	Win	True
378.04	0.3	Win2	0.6	0.002	Yes	2.977	-0.002	4.0	GoodResponse	1	0.269	n/a	2	39	ButtonPress	Win	True
378.071	0.41	Win2	0.6	n/a	Yes	2.977	n/a	n/a	GoodResponse	1	n/a	n/a	2	39	Blank	Win	True
378.471	1.45	Win2	0.6	n/a	Yes	2.977	n/a	5.0	GoodResponse	1	0.04	377.511	2	39	Feedback	Win	True
379.921	2.977	Win2	0.6	n/a	Yes	2.977	n/a	n/a	GoodResponse	1	0.0	n/a	2	39	ISIslide	Win	True
382.92	0.25	Win2	0.6098	0.0	Yes	2.73	0.02	n/a	GoodResponse	1	n/a	n/a	3	40	Cue	Win	True
383.17	3.95	Win2	0.6098	0.0	Yes	2.73	0.0	n/a	GoodResponse	1	n/a	n/a	3	40	Fixation	Win	True
387.118	0.3	Win2	0.6098	0.002	Yes	2.73	-0.002	4.0	GoodResponse	1	0.238	386.356	3	40	Target	Win	True
387.356	0.3	Win2	0.6098	0.002	Yes	2.73	-0.002	4.0	GoodResponse	1	0.238	n/a	3	40	ButtonPress	Win	True
387.418	0.4	Win2	0.6098	n/a	Yes	2.73	n/a	n/a	GoodResponse	1	n/a	n/a	3	40	Blank	Win	True
387.818	1.45	Win2	0.6098	n/a	Yes	2.73	n/a	5.0	GoodResponse	1	0.009	386.827	3	40	Feedback	Win	True
389.267	2.73	Win2	0.6098	n/a	Yes	2.73	n/a	n/a	GoodResponse	1	0.0	n/a	3	40	ISIslide	Win	True
392.016	0.25	Win2	0.619	0.0	Yes	2.784	0.016	n/a	GoodResponse	1	n/a	n/a	4	41	Cue	Win	True
392.266	3.9	Win2	0.619	0.0	Yes	2.784	0.0	n/a	GoodResponse	1	n/a	n/a	4	41	Fixation	Win	True
396.165	0.31	Win2	0.619	0.001	Yes	2.784	-0.001	4.0	GoodResponse	1	0.263	395.428	4	41	Target	Win	True
396.428	0.3	Win2	0.619	0.001	Yes	2.784	-0.001	4.0	GoodResponse	1	0.263	n/a	4	41	ButtonPress	Win	True
396.482	0.39	Win2	0.619	n/a	Yes	2.784	n/a	n/a	GoodResponse	1	n/a	n/a	4	41	Blank	Win	True
396.865	1.45	Win2	0.619	n/a	Yes	2.784	n/a	5.0	GoodResponse	1	0.036	395.901	4	41	Feedback	Win	True
398.314	2.784	Win2	0.619	n/a	Yes	2.784	n/a	n/a	GoodResponse	1	0.0	n/a	4	41	ISIslide	Win	True
401.13	0.25	Control	0.6279	0.0	Yes	2.92	0.03	n/a	GoodResponse	0	n/a	n/a	4	42	Cue	Neutral	True
401.38	3.85	Control	0.6279	0.0	Yes	2.92	0.0	n/a	GoodResponse	0	n/a	n/a	4	42	Fixation	Neutral	True
405.228	0.32	Control	0.6279	0.002	Yes	2.92	-0.002	4.0	GoodResponse	0	0.213	404.441	4	42	Target	Neutral	True
405.441	0.3	Control	0.6279	0.002	Yes	2.92	-0.002	4.0	GoodResponse	0	0.213	n/a	4	42	ButtonPress	Neutral	True
405.562	0.38	Control	0.6279	n/a	Yes	2.92	n/a	n/a	GoodResponse	0	n/a	n/a	4	42	Blank	Neutral	True
405.928	1.45	Control	0.6279	n/a	Yes	2.92	n/a	5.0	GoodResponse	0	0.046	404.974	4	42	Feedback	Neutral	True
407.378	2.92	Control	0.6279	n/a	Yes	2.92	n/a	n/a	GoodResponse	0	0.0	n/a	4	42	ISIslide	Neutral	True
410.327	0.25	Win2	0.6364	0.0	Yes	3.173	0.027	n/a	GoodResponse	1	n/a	n/a	5	43	Cue	Win	True
410.577	4.0	Win2	0.6364	0.0	Yes	3.173	0.0	n/a	GoodResponse	1	n/a	n/a	5	43	Fixation	Win	True
414.575	0.33	Win2	0.6364	0.002	Yes	3.173	-0.002	4.0	GoodResponse	1	0.204	413.779	5	43	Target	Win	True
414.779	0.3	Win2	0.6364	0.002	Yes	3.173	-0.002	4.0	GoodResponse	1	0.204	n/a	5	43	ButtonPress	Win	True
414.908	0.37	Win2	0.6364	n/a	Yes	3.173	n/a	n/a	GoodResponse	1	n/a	n/a	5	43	Blank	Win	True
415.275	1.45	Win2	0.6364	n/a	Yes	3.173	n/a	5.0	GoodResponse	1	0.016	414.291	5	43	Feedback	Win	True
416.724	3.173	Win2	0.6364	n/a	Yes	3.173	n/a	n/a	GoodResponse	1	0.0	n/a	5	43	ISIslide	Win	True
419.923	0.25	Win2	0.6444	0.0	Yes	2.977	0.023	n/a	GoodResponse	1	n/a	n/a	6	44	Cue	Win	True
420.173	4.0	Win2	0.6444	0.0	Yes	2.977	0.0	n/a	GoodResponse	1	n/a	n/a	6	44	Fixation	Win	True
424.172	0.34	Win2	0.6444	0.001	Yes	2.977	-0.001	4.0	GoodResponse	1	0.214	423.386	6	44	Target	Win	True
424.386	0.3	Win2	0.6444	0.001	Yes	2.977	-0.001	4.0	GoodResponse	1	0.214	n/a	6	44	ButtonPress	Win	True
424.522	0.36	Win2	0.6444	n/a	Yes	2.977	n/a	n/a	GoodResponse	1	n/a	n/a	6	44	Blank	Win	True
424.871	1.45	Win2	0.6444	n/a	Yes	2.977	n/a	5.0	GoodResponse	1	0.029	423.9	6	44	Feedback	Win	True
426.321	2.977	Win2	0.6444	n/a	Yes	2.977	n/a	n/a	GoodResponse	1	0.0	n/a	6	44	ISIslide	Win	True
429.32	0.25	Control	0.6522	0.0	Yes	2.88	0.02	n/a	GoodResponse	0	n/a	n/a	6	45	Cue	Neutral	True
429.57	4.1	Control	0.6522	0.0	Yes	2.88	0.0	n/a	GoodResponse	0	n/a	n/a	6	45	Fixation	Neutral	True
433.668	0.35	Control	0.6522	0.002	Yes	2.88	-0.002	4.0	GoodResponse	0	0.235	432.903	6	45	Target	Neutral	True
433.903	0.3	Control	0.6522	0.002	Yes	2.88	-0.002	4.0	GoodResponse	0	0.235	n/a	6	45	ButtonPress	Neutral	True
434.018	0.35	Control	0.6522	n/a	Yes	2.88	n/a	n/a	GoodResponse	0	n/a	n/a	6	45	Blank	Neutral	True
434.368	1.45	Control	0.6522	n/a	Yes	2.88	n/a	5.0	GoodResponse	0	0.044	433.412	6	45	Feedback	Neutral	True
435.818	2.88	Control	0.6522	n/a	Yes	2.88	n/a	n/a	GoodResponse	0	0.0	n/a	6	45	ISIslide	Neutral	True
438.717	0.25	Lose2	0.6383	0.0	No	3.383	0.017	n/a	NoResponse	-1	n/a	n/a	5	46	Cue	Loss	True
438.967	4.0	Lose2	0.6383	0.0	No	3.383	0.0	n/a	NoResponse	-1	n/a	n/a	5	46	Fixation	Loss	True
442.965	0.36	Lose2	0.6383	0.002	No	3.383	-0.002	4.0	NoResponse	-1	0.401	442.366	5	46	Target	Loss	True
443.332	0.34	Lose2	0.6383	n/a	No	3.383	n/a	n/a	NoResponse	-1	n/a	n/a	5	46	Blank	Loss	True
443.366	0.3	Lose2	0.6383	0.002	No	3.383	-0.002	4.0	NoResponse	-1	0.401	n/a	5	46	ButtonPress	Loss	True
443.665	1.45	Lose2	0.6383	n/a	No	3.383	n/a	5.0	NoResponse	-1	0.016	442.681	5	46	Feedback	Loss	True
445.114	3.383	Lose2	0.6383	n/a	No	3.383	n/a	n/a	NoResponse	-1	0.0	n/a	5	46	ISIslide	Loss	True
448.513	0.25	Lose2	0.6457999999999999	0.0	Yes	2.687	0.013	n/a	GoodResponse	0	n/a	n/a	5	47	Cue	AvoidedLoss	True
448.763	4.0	Lose2	0.6457999999999999	0.0	Yes	2.687	0.0	n/a	GoodResponse	0	n/a	n/a	5	47	Fixation	AvoidedLoss	True
452.762	0.37	Lose2	0.6457999999999999	0.001	Yes	2.687	-0.001	4.0	GoodResponse	0	0.215	451.977	5	47	Target	AvoidedLoss	True
452.977	0.3	Lose2	0.6457999999999999	0.001	Yes	2.687	-0.001	4.0	GoodResponse	0	0.215	n/a	5	47	ButtonPress	AvoidedLoss	True
453.145	0.33	Lose2	0.6457999999999999	n/a	Yes	2.687	n/a	n/a	GoodResponse	0	n/a	n/a	5	47	Blank	AvoidedLoss	True
453.461	1.45	Lose2	0.6457999999999999	n/a	Yes	2.687	n/a	5.0	GoodResponse	0	0.025	452.486	5	47	Feedback	AvoidedLoss	True
454.911	2.687	Lose2	0.6457999999999999	n/a	Yes	2.687	n/a	n/a	GoodResponse	0	0.0	n/a	5	47	ISIslide	AvoidedLoss	True
457.627	0.25	Lose2	0.6531	0.0	Yes	3.023	0.027	n/a	GoodResponse	0	n/a	n/a	5	48	Cue	AvoidedLoss	True
457.877	3.95	Lose2	0.6531	0.0	Yes	3.023	0.0	n/a	GoodResponse	0	n/a	n/a	5	48	Fixation	AvoidedLoss	True
461.825	0.38	Lose2	0.6531	0.002	Yes	3.023	-0.002	4.0	GoodResponse	0	0.235	461.06	5	48	Target	AvoidedLoss	True
462.06	0.3	Lose2	0.6531	0.002	Yes	3.023	-0.002	4.0	GoodResponse	0	0.235	n/a	5	48	ButtonPress	AvoidedLoss	True
462.208	0.32	Lose2	0.6531	n/a	Yes	3.023	n/a	n/a	GoodResponse	0	n/a	n/a	5	48	Blank	AvoidedLoss	True
462.525	1.45	Lose2	0.6531	n/a	Yes	3.023	n/a	5.0	GoodResponse	0	0.034	461.559	5	48	Feedback	AvoidedLoss	True
463.974	3.023	Lose2	0.6531	n/a	Yes	3.023	n/a	n/a	GoodResponse	0	0.0	n/a	5	48	ISIslide	AvoidedLoss	True
467.023	0.25	Control	0.66	0.0	Yes	2.877	0.023	n/a	GoodResponse	0	n/a	n/a	5	49	Cue	Neutral	True
467.273	4.0	Control	0.66	0.0	Yes	2.877	0.0	n/a	GoodResponse	0	n/a	n/a	5	49	Fixation	Neutral	True
471.272	0.39	Control	0.66	0.001	Yes	2.877	-0.001	4.0	GoodResponse	0	0.212	470.484	5	49	Target	Neutral	True
471.484	0.3	Control	0.66	0.001	Yes	2.877	-0.001	4.0	GoodResponse	0	0.212	n/a	5	49	ButtonPress	Neutral	True
471.672	0.31	Control	0.66	n/a	Yes	2.877	n/a	n/a	GoodResponse	0	n/a	n/a	5	49	Blank	Neutral	True
471.972	1.45	Control	0.66	n/a	Yes	2.877	n/a	5.0	GoodResponse	0	0.007	470.979	5	49	Feedback	Neutral	True
473.421	2.877	Control	0.66	n/a	Yes	2.877	n/a	n/a	GoodResponse	0	0.0	n/a	5	49	ISIslide	Neutral	True
476.32	0.25	Control	0.6667000000000001	0.0	Yes	2.78	0.02	n/a	GoodResponse	0	n/a	n/a	5	50	Cue	Neutral	True
476.57	4.0	Control	0.6667000000000001	0.0	Yes	2.78	0.0	n/a	GoodResponse	0	n/a	n/a	5	50	Fixation	Neutral	True
480.569	0.39	Control	0.6667000000000001	0.001	Yes	2.78	-0.001	4.0	GoodResponse	0	0.248	479.817	5	50	Target	Neutral	True
480.817	0.3	Control	0.6667000000000001	0.001	Yes	2.78	-0.001	4.0	GoodResponse	0	0.248	n/a	5	50	ButtonPress	Neutral	True
480.968	0.31	Control	0.6667000000000001	n/a	Yes	2.78	n/a	n/a	GoodResponse	0	n/a	n/a	5	50	Blank	Neutral	True
481.268	1.45	Control	0.6667000000000001	n/a	Yes	2.78	n/a	5.0	GoodResponse	0	0.022	480.29	5	50	Feedback	Neutral	True
482.718	2.78	Control	0.6667000000000001	n/a	Yes	2.78	n/a	n/a	GoodResponse	0	0.0	n/a	5	50	ISIslide	Neutral	True
485.517	0.25	Control	0.6731	0.0	Yes	2.733	0.017	n/a	GoodResponse	0	n/a	n/a	5	51	Cue	Neutral	False
485.767	3.95	Control	0.6731	0.0	Yes	2.733	0.0	4.0	GoodResponse	0	0.171	484.938	5	51	Fixation	Neutral	False
485.938	0.3	Control	0.6731	0.0	Yes	2.733	0.0	4.0	GoodResponse	0	0.171	n/a	5	51	ButtonPress	Neutral	False
489.715	0.38	Control	0.6731	0.002	Yes	2.733	-0.002	4.0	GoodResponse	0	0.229	488.944	5	51	Target	Neutral	False
489.944	0.3	Control	0.6731	0.002	Yes	2.733	-0.002	4.0	GoodResponse	0	0.229	n/a	5	51	ButtonPress	Neutral	False
490.099	0.32	Control	0.6731	n/a	Yes	2.733	n/a	n/a	GoodResponse	0	n/a	n/a	5	51	Blank	Neutral	False
490.415	1.45	Control	0.6731	n/a	Yes	2.733	n/a	5.0	GoodResponse	0	0.046	489.461	5	51	Feedback	Neutral	False
491.865	2.733	Control	0.6731	n/a	Yes	2.733	n/a	n/a	GoodResponse	0	0.0	n/a	5	51	ISIslide	Neutral	False
494.614	0.25	Control	0.6792	0.0	Yes	2.636	0.014	n/a	GoodResponse	0	n/a	n/a	5	52	Cue	Neutral	True
494.864	4.05	Control	0.6792	0.0	Yes	2.636	0.0	n/a	GoodResponse	0	n/a	n/a	5	52	Fixation	Neutral	True
498.912	0.37	Control	0.6792	0.002	Yes	2.636	-0.002	4.0	GoodResponse	0	0.327	498.239	5	52	Target	Neutral	True
499.239	0.3	Control	0.6792	0.002	Yes	2.636	-0.002	4.0	GoodResponse	0	0.327	n/a	5	52	ButtonPress	Neutral	True
499.295	0.33	Control	0.6792	n/a	Yes	2.636	n/a	n/a	GoodResponse	0	n/a	n/a	5	52	Blank	Neutral	True
499.612	1.45	Control	0.6792	n/a	Yes	2.636	n/a	5.0	GoodResponse	0	0.02	498.632	5	52	Feedback	Neutral	True
501.061	2.636	Control	0.6792	n/a	Yes	2.636	n/a	n/a	GoodResponse	0	0.0	n/a	5	52	ISIslide	Neutral	True
503.727	0.25	Win2	0.6851999999999999	0.0	Yes	2.923	0.027	n/a	GoodResponse	1	n/a	n/a	6	53	Cue	Win	True
503.977	4.05	Win2	0.6851999999999999	0.0	Yes	2.923	0.0	n/a	GoodResponse	1	n/a	n/a	6	53	Fixation	Win	True
508.026	0.36	Win2	0.6851999999999999	0.001	Yes	2.923	-0.001	4.0	GoodResponse	1	0.213	507.239	6	53	Target	Win	True
508.239	0.3	Win2	0.6851999999999999	0.001	Yes	2.923	-0.001	4.0	GoodResponse	1	0.213	n/a	6	53	ButtonPress	Win	True
508.392	0.34	Win2	0.6851999999999999	n/a	Yes	2.923	n/a	n/a	GoodResponse	1	n/a	n/a	6	53	Blank	Win	True
508.725	1.45	Win2	0.6851999999999999	n/a	Yes	2.923	n/a	5.0	GoodResponse	1	0.028	507.753	6	53	Feedback	Win	True
510.175	2.923	Win2	0.6851999999999999	n/a	Yes	2.923	n/a	n/a	GoodResponse	1	0.0	n/a	6	53	ISIslide	Win	True
513.124	0.25	Win2	0.6909000000000001	0.0	Yes	2.726	0.024	n/a	GoodResponse	1	n/a	n/a	7	54	Cue	Win	True
513.374	3.95	Win2	0.6909000000000001	0.0	Yes	2.726	0.0	n/a	GoodResponse	1	n/a	n/a	7	54	Fixation	Win	True
517.322	0.35	Win2	0.6909000000000001	0.002	Yes	2.726	-0.002	4.0	GoodResponse	1	0.219	516.541	7	54	Target	Win	True
517.541	0.3	Win2	0.6909000000000001	0.002	Yes	2.726	-0.002	4.0	GoodResponse	1	0.219	n/a	7	54	ButtonPress	Win	True
517.672	0.35	Win2	0.6909000000000001	n/a	Yes	2.726	n/a	n/a	GoodResponse	1	n/a	n/a	7	54	Blank	Win	True
518.022	1.45	Win2	0.6909000000000001	n/a	Yes	2.726	n/a	5.0	GoodResponse	1	0.048	517.07	7	54	Feedback	Win	True
519.472	2.726	Win2	0.6909000000000001	n/a	Yes	2.726	n/a	n/a	GoodResponse	1	0.0	n/a	7	54	ISIslide	Win	True
522.221	0.25	Control	0.6964	0.0	Yes	3.029	0.021	n/a	GoodResponse	0	n/a	n/a	7	55	Cue	Neutral	True
522.47	3.95	Control	0.6964	0.001	Yes	3.029	-0.001	n/a	GoodResponse	0	n/a	n/a	7	55	Fixation	Neutral	True
526.419	0.34	Control	0.6964	0.002	Yes	3.029	-0.002	4.0	GoodResponse	0	0.232	525.651	7	55	Target	Neutral	True
526.651	0.3	Control	0.6964	0.002	Yes	3.029	-0.002	4.0	GoodResponse	0	0.232	n/a	7	55	ButtonPress	Neutral	True
526.769	0.36	Control	0.6964	n/a	Yes	3.029	n/a	n/a	GoodResponse	0	n/a	n/a	7	55	Blank	Neutral	True
527.119	1.45	Control	0.6964	n/a	Yes	3.029	n/a	5.0	GoodResponse	0	0.024	526.143	7	55	Feedback	Neutral	True
528.569	3.029	Control	0.6964	n/a	Yes	3.029	n/a	n/a	GoodResponse	0	0.0	n/a	7	55	ISIslide	Neutral	True
531.617	0.25	Control	0.7018000000000001	0.0	Yes	2.833	0.017	n/a	GoodResponse	0	n/a	n/a	7	56	Cue	Neutral	True
531.867	3.95	Control	0.7018000000000001	0.0	Yes	2.833	0.0	n/a	GoodResponse	0	n/a	n/a	7	56	Fixation	Neutral	True
535.816	0.33	Control	0.7018000000000001	0.001	Yes	2.833	-0.001	4.0	GoodResponse	0	0.252	535.068	7	56	Target	Neutral	True
536.068	0.3	Control	0.7018000000000001	0.001	Yes	2.833	-0.001	4.0	GoodResponse	0	0.252	n/a	7	56	ButtonPress	Neutral	True
536.149	0.37	Control	0.7018000000000001	n/a	Yes	2.833	n/a	n/a	GoodResponse	0	n/a	n/a	7	56	Blank	Neutral	True
536.516	1.45	Control	0.7018000000000001	n/a	Yes	2.833	n/a	5.0	GoodResponse	0	0.042	535.558	7	56	Feedback	Neutral	True
537.965	2.833	Control	0.7018000000000001	n/a	Yes	2.833	n/a	n/a	GoodResponse	0	0.0	n/a	7	56	ISIslide	Neutral	True
540.814	0.25	Control	0.7069	0.0	Yes	3.486	0.014	n/a	GoodResponse	0	n/a	n/a	7	57	Cue	Neutral	True
541.064	4.0	Control	0.7069	0.0	Yes	3.486	0.0	n/a	GoodResponse	0	n/a	n/a	7	57	Fixation	Neutral	True
545.063	0.32	Control	0.7069	0.001	Yes	3.486	-0.001	4.0	GoodResponse	0	0.235	544.298	7	57	Target	Neutral	True
545.298	0.3	Control	0.7069	0.001	Yes	3.486	-0.001	4.0	GoodResponse	0	0.235	n/a	7	57	ButtonPress	Neutral	True
545.396	0.38	Control	0.7069	n/a	Yes	3.486	n/a	n/a	GoodResponse	0	n/a	n/a	7	57	Blank	Neutral	True
545.762	1.45	Control	0.7069	n/a	Yes	3.486	n/a	5.0	GoodResponse	0	0.016	544.778	7	57	Feedback	Neutral	True
547.212	3.486	Control	0.7069	n/a	Yes	3.486	n/a	n/a	GoodResponse	0	0.0	n/a	7	57	ISIslide	Neutral	True
550.727	0.25	Win2	0.7119	0.0	Yes	2.723	0.027	n/a	GoodResponse	1	n/a	n/a	8	58	Cue	Win	True
550.977	4.05	Win2	0.7119	0.0	Yes	2.723	0.0	n/a	GoodResponse	1	n/a	n/a	8	58	Fixation	Win	True
555.026	0.31	Win2	0.7119	0.001	Yes	2.723	-0.001	4.0	GoodResponse	1	0.247	554.273	8	58	Target	Win	True
555.273	0.3	Win2	0.7119	0.001	Yes	2.723	-0.001	4.0	GoodResponse	1	0.247	n/a	8	58	ButtonPress	Win	True
555.342	0.39	Win2	0.7119	n/a	Yes	2.723	n/a	n/a	GoodResponse	1	n/a	n/a	8	58	Blank	Win	True
555.725	1.45	Win2	0.7119	n/a	Yes	2.723	n/a	5.0	GoodResponse	1	0.007	554.732	8	58	Feedback	Win	True
557.175	2.723	Win2	0.7119	n/a	Yes	2.723	n/a	n/a	GoodResponse	1	0.0	n/a	8	58	ISIslide	Win	True
559.924	0.25	Lose2	0.7	0.0	No	2.676	0.024	n/a	NoResponse	-1	n/a	n/a	7	59	Cue	Loss	True
560.174	4.0	Lose2	0.7	0.0	No	2.676	0.0	n/a	NoResponse	-1	n/a	n/a	7	59	Fixation	Loss	True
564.172	0.3	Lose2	0.7	0.002	No	2.676	-0.002	4.0	NoResponse	-1	0.613	563.785	7	59	Target	Loss	True
564.472	0.4	Lose2	0.7	n/a	No	2.676	n/a	n/a	NoResponse	-1	n/a	n/a	7	59	Blank	Loss	True
564.785	0.3	Lose2	0.7	0.002	No	2.676	-0.002	4.0	NoResponse	-1	0.613	n/a	7	59	ButtonPress	Loss	True
564.872	1.45	Lose2	0.7	n/a	No	2.676	n/a	5.0	NoResponse	-1	0.027	563.899	7	59	Feedback	Loss	True
566.322	2.676	Lose2	0.7	n/a	No	2.676	n/a	n/a	NoResponse	-1	0.0	n/a	7	59	ISIslide	Loss	True
569.021	0.25	Control	0.7049	0.0	Yes	2.679	0.021	n/a	GoodResponse	0	n/a	n/a	7	60	Cue	Neutral	True
569.271	4.0	Control	0.7049	0.0	Yes	2.679	0.0	n/a	GoodResponse	0	n/a	n/a	7	60	Fixation	Neutral	True
573.269	0.29	Control	0.7049	0.002	Yes	2.679	-0.002	4.0	GoodResponse	0	0.234	572.503	7	60	Target	Neutral	True
573.503	0.3	Control	0.7049	0.002	Yes	2.679	-0.002	4.0	GoodResponse	0	0.234	n/a	7	60	ButtonPress	Neutral	True
573.569	0.41	Control	0.7049	n/a	Yes	2.679	n/a	n/a	GoodResponse	0	n/a	n/a	7	60	Blank	Neutral	True
573.969	1.45	Control	0.7049	n/a	Yes	2.679	n/a	5.0	GoodResponse	0	0.007	572.976	7	60	Feedback	Neutral	True
575.418	2.679	Control	0.7049	n/a	Yes	2.679	n/a	n/a	GoodResponse	0	0.0	n/a	7	60	ISIslide	Neutral	True
578.118	0.25	Lose2	0.6934999999999999	0.0	No	2.982	0.018	n/a	NoResponse	-1	n/a	n/a	6	61	Cue	Loss	True
578.367	4.0	Lose2	0.6934999999999999	0.001	No	2.982	-0.001	n/a	NoResponse	-1	n/a	n/a	6	61	Fixation	Loss	True
582.366	0.28	Lose2	0.6934999999999999	0.002	No	2.982	-0.002	4.0	NoResponse	-1	0.293	581.659	6	61	Target	Loss	True
582.649	0.42	Lose2	0.6934999999999999	n/a	No	2.982	n/a	n/a	NoResponse	-1	n/a	n/a	6	61	Blank	Loss	True
582.659	0.3	Lose2	0.6934999999999999	0.002	No	2.982	-0.002	4.0	NoResponse	-1	0.293	n/a	6	61	ButtonPress	Loss	True
583.066	1.45	Lose2	0.6934999999999999	n/a	No	2.982	n/a	5.0	NoResponse	-1	0.028	582.094	6	61	Feedback	Loss	True
584.515	2.982	Lose2	0.6934999999999999	n/a	No	2.982	n/a	n/a	NoResponse	-1	0.0	n/a	6	61	ISIslide	Loss	True
587.531	0.25	Lose2	0.6984	0.0	Yes	2.869	0.031	n/a	GoodResponse	0	n/a	n/a	6	62	Cue	AvoidedLoss	True
587.781	3.9	Lose2	0.6984	0.0	Yes	2.869	0.0	n/a	GoodResponse	0	n/a	n/a	6	62	Fixation	AvoidedLoss	True
591.679	0.27	Lose2	0.6984	0.002	Yes	2.869	-0.002	4.0	GoodResponse	0	0.226	590.905	6	62	Target	AvoidedLoss	True
591.905	0.3	Lose2	0.6984	0.002	Yes	2.869	-0.002	4.0	GoodResponse	0	0.226	n/a	6	62	ButtonPress	AvoidedLoss	True
591.963	0.43	Lose2	0.6984	n/a	Yes	2.869	n/a	n/a	GoodResponse	0	n/a	n/a	6	62	Blank	AvoidedLoss	True
592.379	1.45	Lose2	0.6984	n/a	Yes	2.869	n/a	5.0	GoodResponse	0	0.033	591.412	6	62	Feedback	AvoidedLoss	True
593.829	2.869	Lose2	0.6984	n/a	Yes	2.869	n/a	n/a	GoodResponse	0	0.0	n/a	6	62	ISIslide	AvoidedLoss	True
596.728	0.25	Lose2	0.7031000000000001	0.0	Yes	2.622	0.028	n/a	GoodResponse	0	n/a	n/a	6	63	Cue	AvoidedLoss	True
596.978	4.05	Lose2	0.7031000000000001	0.0	Yes	2.622	0.0	n/a	GoodResponse	0	n/a	n/a	6	63	Fixation	AvoidedLoss	True
601.027	0.26	Lose2	0.7031000000000001	0.001	Yes	2.622	-0.001	4.0	GoodResponse	0	0.214	600.241	6	63	Target	AvoidedLoss	True
601.241	0.3	Lose2	0.7031000000000001	0.001	Yes	2.622	-0.001	4.0	GoodResponse	0	0.214	n/a	6	63	ButtonPress	AvoidedLoss	True
601.293	0.44	Lose2	0.7031000000000001	n/a	Yes	2.622	n/a	n/a	GoodResponse	0	n/a	n/a	6	63	Blank	AvoidedLoss	True
601.726	1.45	Lose2	0.7031000000000001	n/a	Yes	2.622	n/a	5.0	GoodResponse	0	0.006	600.732	6	63	Feedback	AvoidedLoss	True
603.175	2.622	Lose2	0.7031000000000001	n/a	Yes	2.622	n/a	n/a	GoodResponse	0	0.0	n/a	6	63	ISIslide	AvoidedLoss	True
605.824	0.25	Win2	0.7077	0.0	Yes	3.126	0.024	n/a	GoodResponse	1	n/a	n/a	7	64	Cue	Win	True
606.074	4.15	Win2	0.7077	0.0	Yes	3.126	0.0	n/a	GoodResponse	1	n/a	n/a	7	64	Fixation	Win	True
610.223	0.25	Win2	0.7077	0.001	Yes	3.126	-0.001	4.0	GoodResponse	1	0.221	609.444	7	64	Target	Win	True
610.444	0.3	Win2	0.7077	0.001	Yes	3.126	-0.001	4.0	GoodResponse	1	0.221	n/a	7	64	ButtonPress	Win	True
610.473	0.45	Win2	0.7077	n/a	Yes	3.126	n/a	n/a	GoodResponse	1	n/a	n/a	7	64	Blank	Win	True
610.923	1.45	Win2	0.7077	n/a	Yes	3.126	n/a	5.0	GoodResponse	1	0.024	609.947	7	64	Feedback	Win	True
612.372	3.126	Win2	0.7077	n/a	Yes	3.126	n/a	n/a	GoodResponse	1	0.0	n/a	7	64	ISIslide	Win	True
615.521	0.25	Control	0.6970000000000001	0.0	No	2.779	0.021	n/a	NoResponse	0	n/a	n/a	7	65	Cue	Neutral	True
615.771	4.0	Control	0.6970000000000001	0.0	No	2.779	0.0	n/a	NoResponse	0	n/a	n/a	7	65	Fixation	Neutral	True
619.77	0.24	Control	0.6970000000000001	0.001	No	2.779	-0.001	4.0	NoResponse	0	0.27	619.04	7	65	Target	Neutral	True
620.019	0.46	Control	0.6970000000000001	n/a	No	2.779	n/a	n/a	NoResponse	0	n/a	n/a	7	65	Blank	Neutral	True
620.04	0.3	Control	0.6970000000000001	0.001	No	2.779	-0.001	4.0	NoResponse	0	0.27	n/a	7	65	ButtonPress	Neutral	True
620.469	1.45	Control	0.6970000000000001	n/a	No	2.779	n/a	5.0	NoResponse	0	0.039	619.508	7	65	Feedback	Neutral	True
621.919	2.779	Control	0.6970000000000001	n/a	No	2.779	n/a	n/a	NoResponse	0	0.0	n/a	7	65	ISIslide	Neutral	True
624.718	0.25	Win2	0.7015	0.0	Yes	2.782	0.018	n/a	GoodResponse	1	n/a	n/a	8	66	Cue	Win	True
624.968	3.9	Win2	0.7015	0.0	Yes	2.782	0.0	n/a	GoodResponse	1	n/a	n/a	8	66	Fixation	Win	True
628.866	0.23	Win2	0.7015	0.002	Yes	2.782	-0.002	4.0	GoodResponse	1	0.205	628.071	8	66	Target	Win	True
629.071	0.3	Win2	0.7015	0.002	Yes	2.782	-0.002	4.0	GoodResponse	1	0.205	n/a	8	66	ButtonPress	Win	True
629.1	0.47	Win2	0.7015	n/a	Yes	2.782	n/a	n/a	GoodResponse	1	n/a	n/a	8	66	Blank	Win	True
629.566	1.45	Win2	0.7015	n/a	Yes	2.782	n/a	5.0	GoodResponse	1	0.016	628.582	8	66	Feedback	Win	True
631.016	2.782	Win2	0.7015	n/a	Yes	2.782	n/a	n/a	GoodResponse	1	0.0	n/a	8	66	ISIslide	Win	True
633.815	0.25	Control	0.6912	0.0	No	2.735	0.015	n/a	NoResponse	0	n/a	n/a	8	67	Cue	Neutral	True
634.064	3.95	Control	0.6912	0.001	No	2.735	-0.001	n/a	NoResponse	0	n/a	n/a	8	67	Fixation	Neutral	True
638.013	0.22	Control	0.6912	0.002	No	2.735	-0.002	4.0	NoResponse	0	0.252	637.265	8	67	Target	Neutral	True
638.246	0.48	Control	0.6912	n/a	No	2.735	n/a	n/a	NoResponse	0	n/a	n/a	8	67	Blank	Neutral	True
638.265	0.3	Control	0.6912	0.002	No	2.735	-0.002	4.0	NoResponse	0	0.252	n/a	8	67	ButtonPress	Neutral	True
638.713	1.45	Control	0.6912	n/a	No	2.735	n/a	5.0	NoResponse	0	0.039	637.752	8	67	Feedback	Neutral	True
640.162	2.735	Control	0.6912	n/a	No	2.735	n/a	n/a	NoResponse	0	0.0	n/a	8	67	ISIslide	Neutral	True
642.928	0.25	Win2	0.6812	0.0	No	3.072	0.028	n/a	NoResponse	0	n/a	n/a	8	68	Cue	MissedWin	True
643.178	4.0	Win2	0.6812	0.0	No	3.072	0.0	n/a	NoResponse	0	n/a	n/a	8	68	Fixation	MissedWin	True
647.177	0.21	Win2	0.6812	0.001	No	3.072	-0.001	4.0	NoResponse	0	0.284	646.461	8	68	Target	MissedWin	True
647.393	0.49	Win2	0.6812	n/a	No	3.072	n/a	n/a	NoResponse	0	n/a	n/a	8	68	Blank	MissedWin	True
647.461	0.3	Win2	0.6812	0.001	No	3.072	-0.001	4.0	NoResponse	0	0.284	n/a	8	68	ButtonPress	MissedWin	True
647.876	1.45	Win2	0.6812	n/a	No	3.072	n/a	5.0	NoResponse	0	0.046	646.922	8	68	Feedback	MissedWin	True
649.326	3.072	Win2	0.6812	n/a	No	3.072	n/a	n/a	NoResponse	0	0.0	n/a	8	68	ISIslide	MissedWin	True
652.425	0.25	Win2	0.6714	0.0	No	3.225	0.025	n/a	NoResponse	0	n/a	n/a	8	69	Cue	MissedWin	True
652.675	3.95	Win2	0.6714	0.0	No	3.225	0.0	n/a	NoResponse	0	n/a	n/a	8	69	Fixation	MissedWin	True
656.623	0.2	Win2	0.6714	0.002	No	3.225	-0.002	4.0	NoResponse	0	0.212	655.835	8	69	Target	MissedWin	True
656.823	0.5	Win2	0.6714	n/a	No	3.225	n/a	n/a	NoResponse	0	n/a	n/a	8	69	Blank	MissedWin	True
656.835	0.3	Win2	0.6714	0.002	No	3.225	-0.002	4.0	NoResponse	0	0.212	n/a	8	69	ButtonPress	MissedWin	True
657.323	1.45	Win2	0.6714	n/a	No	3.225	n/a	5.0	NoResponse	0	0.014	656.337	8	69	Feedback	MissedWin	True
658.772	3.225	Win2	0.6714	n/a	No	3.225	n/a	n/a	NoResponse	0	0.0	n/a	8	69	ISIslide	MissedWin	True
662.021	0.25	Lose2	0.662	0.0	No	3.029	0.021	n/a	NoResponse	-1	n/a	n/a	7	70	Cue	Loss	True
662.271	4.05	Lose2	0.662	0.0	No	3.029	0.0	n/a	NoResponse	-1	n/a	n/a	7	70	Fixation	Loss	True
666.32	0.19	Lose2	0.662	0.001	No	3.029	-0.001	4.0	NoResponse	-1	0.254	665.574	7	70	Target	Loss	True
666.52	0.51	Lose2	0.662	n/a	No	3.029	n/a	n/a	NoResponse	-1	n/a	n/a	7	70	Blank	Loss	True
666.574	0.3	Lose2	0.662	0.001	No	3.029	-0.001	4.0	NoResponse	-1	0.254	n/a	7	70	ButtonPress	Loss	True
667.02	1.45	Lose2	0.662	n/a	No	3.029	n/a	5.0	NoResponse	-1	0.025	666.045	7	70	Feedback	Loss	True
668.469	3.029	Lose2	0.662	n/a	No	3.029	n/a	n/a	NoResponse	-1	0.0	n/a	7	70	ISIslide	Loss	True
671.518	0.25	Win2	0.6528	0.0	No	2.732	0.018	n/a	NoResponse	0	n/a	n/a	7	71	Cue	MissedWin	True
671.768	4.05	Win2	0.6528	0.0	No	2.732	0.0	n/a	NoResponse	0	n/a	n/a	7	71	Fixation	MissedWin	True
675.816	0.19	Win2	0.6528	0.002	No	2.732	-0.002	4.0	NoResponse	0	0.229	675.045	7	71	Target	MissedWin	True
676.016	0.51	Win2	0.6528	n/a	No	2.732	n/a	n/a	NoResponse	0	n/a	n/a	7	71	Blank	MissedWin	True
676.045	0.3	Win2	0.6528	0.002	No	2.732	-0.002	4.0	NoResponse	0	0.229	n/a	7	71	ButtonPress	MissedWin	True
676.516	1.45	Win2	0.6528	n/a	No	2.732	n/a	5.0	NoResponse	0	0.041	675.557	7	71	Feedback	MissedWin	True
677.966	2.732	Win2	0.6528	n/a	No	2.732	n/a	n/a	NoResponse	0	0.0	n/a	7	71	ISIslide	MissedWin	True
680.715	0.25	Win2	0.6437999999999999	0.0	No	2.785	0.015	n/a	NoResponse	0	n/a	n/a	7	72	Cue	MissedWin	True
680.965	4.1	Win2	0.6437999999999999	0.0	No	2.785	0.0	n/a	NoResponse	0	n/a	n/a	7	72	Fixation	MissedWin	True
685.063	0.2	Win2	0.6437999999999999	0.002	No	2.785	-0.002	4.0	NoResponse	0	0.239	684.302	7	72	Target	MissedWin	True
685.263	0.5	Win2	0.6437999999999999	n/a	No	2.785	n/a	n/a	NoResponse	0	n/a	n/a	7	72	Blank	MissedWin	True
685.302	0.3	Win2	0.6437999999999999	0.002	No	2.785	-0.002	4.0	NoResponse	0	0.239	n/a	7	72	ButtonPress	MissedWin	True
685.763	1.45	Win2	0.6437999999999999	n/a	No	2.785	n/a	5.0	NoResponse	0	0.013	684.776	7	72	Feedback	MissedWin	True
687.262	2.785	Win2	0.6437999999999999	n/a	No	2.785	n/a	n/a	NoResponse	0	0.0	n/a	7	72	ISIslide	MissedWin	True
690.028	0.25	Win2	0.6351	0.0	No	2.672	0.028	n/a	NoResponse	0	n/a	n/a	7	73	Cue	MissedWin	True
690.278	4.0	Win2	0.6351	0.0	No	2.672	0.0	n/a	NoResponse	0	n/a	n/a	7	73	Fixation	MissedWin	True
694.277	0.21	Win2	0.6351	0.001	No	2.672	-0.001	4.0	NoResponse	0	0.238	693.515	7	73	Target	MissedWin	True
694.493	0.49	Win2	0.6351	n/a	No	2.672	n/a	n/a	NoResponse	0	n/a	n/a	7	73	Blank	MissedWin	True
694.515	0.3	Win2	0.6351	0.001	No	2.672	-0.001	4.0	NoResponse	0	0.238	n/a	7	73	ButtonPress	MissedWin	True
694.976	1.45	Win2	0.6351	n/a	No	2.672	n/a	5.0	NoResponse	0	0.019	693.995	7	73	Feedback	MissedWin	True
696.426	2.672	Win2	0.6351	n/a	No	2.672	n/a	n/a	NoResponse	0	0.0	n/a	7	73	ISIslide	MissedWin	True
699.125	0.25	Lose2	0.6267	0.0	No	2.625	0.025	n/a	LatePress	-1	n/a	n/a	6	74	Cue	Loss	False
699.375	4.05	Lose2	0.6267	0.0	No	2.625	0.0	4.0	LatePress	-1	2.624	700.999	6	74	Fixation	Loss	False
701.999	0.3	Lose2	0.6267	0.0	No	2.625	0.0	4.0	LatePress	-1	2.624	n/a	6	74	ButtonPress	Loss	False
703.423	0.22	Lose2	0.6267	0.002	No	2.625	-0.002	4.0	LatePress	-1	0.226	702.649	6	74	Target	Loss	False
703.649	0.3	Lose2	0.6267	0.002	No	2.625	-0.002	4.0	LatePress	-1	0.226	n/a	6	74	ButtonPress	Loss	False
703.657	0.48	Lose2	0.6267	n/a	No	2.625	n/a	n/a	LatePress	-1	n/a	n/a	6	74	Blank	Loss	False
704.123	1.45	Lose2	0.6267	n/a	No	2.625	n/a	5.0	LatePress	-1	0.043	703.166	6	74	Feedback	Loss	False
705.573	2.625	Lose2	0.6267	n/a	No	2.625	n/a	n/a	LatePress	-1	0.0	n/a	6	74	ISIslide	Loss	False
708.222	0.25	Lose2	0.6184000000000001	0.0	No	2.928	0.022	n/a	NoResponse	-1	n/a	n/a	5	75	Cue	Loss	True
708.472	3.95	Lose2	0.6184000000000001	0.0	No	2.928	0.0	n/a	NoResponse	-1	n/a	n/a	5	75	Fixation	Loss	True
712.42	0.23	Lose2	0.6184000000000001	0.002	No	2.928	-0.002	4.0	NoResponse	-1	0.241	711.661	5	75	Target	Loss	True
712.653	0.47	Lose2	0.6184000000000001	n/a	No	2.928	n/a	n/a	NoResponse	-1	n/a	n/a	5	75	Blank	Loss	True
712.661	0.3	Lose2	0.6184000000000001	0.002	No	2.928	-0.002	4.0	NoResponse	-1	0.241	n/a	5	75	ButtonPress	Loss	True
713.12	1.45	Lose2	0.6184000000000001	n/a	No	2.928	n/a	5.0	NoResponse	-1	0.022	712.142	5	75	Feedback	Loss	True
714.569	2.928	Lose2	0.6184000000000001	n/a	No	2.928	n/a	n/a	NoResponse	-1	0.0	n/a	5	75	ISIslide	Loss	True
717.518	0.25	Control	0.6234000000000001	0.001	Yes	3.232	0.018	n/a	GoodResponse	0	n/a	n/a	5	76	Cue	Neutral	True
717.768	4.05	Control	0.6234000000000001	0.0	Yes	3.232	0.0	n/a	GoodResponse	0	n/a	n/a	5	76	Fixation	Neutral	True
721.817	0.24	Control	0.6234000000000001	0.001	Yes	3.232	-0.001	4.0	GoodResponse	0	0.232	721.049	5	76	Target	Neutral	True
722.049	0.3	Control	0.6234000000000001	0.001	Yes	3.232	-0.001	4.0	GoodResponse	0	0.232	n/a	5	76	ButtonPress	Neutral	True
722.067	0.46	Control	0.6234000000000001	n/a	Yes	3.232	n/a	n/a	GoodResponse	0	n/a	n/a	5	76	Blank	Neutral	True
722.517	1.45	Control	0.6234000000000001	n/a	Yes	3.232	n/a	5.0	GoodResponse	0	0.039	721.556	5	76	Feedback	Neutral	True
723.966	3.232	Control	0.6234000000000001	n/a	Yes	3.232	n/a	n/a	GoodResponse	0	0.0	n/a	5	76	ISIslide	Neutral	True
727.215	0.25	Lose2	0.6154	0.0	No	2.585	0.015	n/a	NoResponse	-1	n/a	n/a	4	77	Cue	Loss	True
727.465	3.95	Lose2	0.6154	0.0	No	2.585	0.0	n/a	NoResponse	-1	n/a	n/a	4	77	Fixation	Loss	True
731.414	0.25	Lose2	0.6154	0.001	No	2.585	-0.001	4.0	NoResponse	-1	0.277	730.691	4	77	Target	Loss	True
731.663	0.45	Lose2	0.6154	n/a	No	2.585	n/a	n/a	NoResponse	-1	n/a	n/a	4	77	Blank	Loss	True
731.691	0.3	Lose2	0.6154	0.001	No	2.585	-0.001	4.0	NoResponse	-1	0.277	n/a	4	77	ButtonPress	Loss	True
732.113	1.45	Lose2	0.6154	n/a	No	2.585	n/a	5.0	NoResponse	-1	0.006	731.119	4	77	Feedback	Loss	True
733.563	2.585	Lose2	0.6154	n/a	No	2.585	n/a	n/a	NoResponse	-1	0.0	n/a	4	77	ISIslide	Loss	True
