onset	duration	cue_type	current_mean_accuracy	duration_error	is_hit	isi_adjusted	onset_delay	response	response_type	reward	rt	rt_time	total_reward	trial_number	trial_phase	trial_type	one_press
11.099	0.25	Control	0.0	0.0	No	2.951	-0.001	n/a	NoResponse	0	n/a	n/a	0	0	Cue	Neutral	True
11.35	3.85	Control	0.0	0.0	No	2.951	0.001	2.0	NoResponse	0	0.168	10.518	0	0	Fixation	Neutral	True
11.518	0.3	Control	0.0	0.0	No	2.951	0.001	2.0	NoResponse	0	0.168	n/a	0	0	ButtonPress	Neutral	True
15.211	0.4	Control	0.0	0.0	No	2.951	0.012	n/a	NoResponse	0	n/a	n/a	0	0	Target	Neutral	True
15.596	0.3	Control	0.0	n/a	No	2.951	n/a	n/a	NoResponse	0	n/a	n/a	0	0	Blank	Neutral	True
15.897	1.45	Control	0.0	n/a	No	2.951	n/a	5.0	NoResponse	0	0.03	14.927	0	0	Feedback	Neutral	True
17.351	2.951	Control	0.0	n/a	No	2.951	n/a	n/a	NoResponse	0	0.0	n/a	0	0	ISIslide	Neutral	True
20.326	0.25	Lose2	0.5	0.001	Yes	2.774	0.026	n/a	GoodResponse	0	n/a	n/a	0	1	Cue	AvoidedLoss	True
20.577	4.0	Lose2	0.5	0.0	Yes	2.774	0.001	n/a	GoodResponse	0	n/a	n/a	0	1	Fixation	AvoidedLoss	True
24.573	0.41	Lose2	0.5	0.003	Yes	2.774	-0.003	2.0	GoodResponse	0	0.192	23.765	0	1	Target	AvoidedLoss	True
24.765	0.3	Lose2	0.5	0.003	Yes	2.774	-0.003	2.0	GoodResponse	0	0.192	n/a	0	1	ButtonPress	AvoidedLoss	True
24.99	0.29	Lose2	0.5	n/a	Yes	2.774	n/a	n/a	GoodResponse	0	n/a	n/a	0	1	Blank	AvoidedLoss	True
25.275	1.45	Lose2	0.5	n/a	Yes	2.774	n/a	5.0	GoodResponse	0	0.018	24.293	0	1	Feedback	AvoidedLoss	True
26.729	2.774	Lose2	0.5	n/a	Yes	2.774	n/a	n/a	GoodResponse	0	0.0	n/a	0	1	ISIslide	AvoidedLoss	True
29.521	0.25	Control	0.6667000000000001	0.0	Yes	2.579	0.021	n/a	GoodResponse	0	n/a	n/a	0	2	Cue	Neutral	True
29.771	4.1	Control	0.6667000000000001	0.001	Yes	2.579	0.0	n/a	GoodResponse	0	n/a	n/a	0	2	Fixation	Neutral	True
33.867	0.42	Control	0.6667000000000001	0.004	Yes	2.579	-0.004	2.0	GoodResponse	0	0.201	33.068	0	2	Target	Neutral	True
34.068	0.3	Control	0.6667000000000001	0.004	Yes	2.579	-0.004	2.0	GoodResponse	0	0.201	n/a	0	2	ButtonPress	Neutral	True
34.302	0.28	Control	0.6667000000000001	n/a	Yes	2.579	n/a	n/a	GoodResponse	0	n/a	n/a	0	2	Blank	Neutral	True
34.569	1.45	Control	0.6667000000000001	n/a	Yes	2.579	n/a	5.0	GoodResponse	0	0.041	33.61	0	2	Feedback	Neutral	True
36.024	2.579	Control	0.6667000000000001	n/a	Yes	2.579	n/a	n/a	GoodResponse	0	0.0	n/a	0	2	ISIslide	Neutral	True
38.615	0.25	Win2	0.75	0.0	Yes	2.835	0.015	n/a	GoodResponse	1	n/a	n/a	1	3	Cue	Win	True
38.865	3.95	Win2	0.75	0.0	Yes	2.835	0.0	n/a	GoodResponse	1	n/a	n/a	1	3	Fixation	Win	True
42.811	0.41	Win2	0.75	0.004	Yes	2.835	-0.004	2.0	GoodResponse	1	0.238	42.049	1	3	Target	Win	True
43.049	0.3	Win2	0.75	0.004	Yes	2.835	-0.004	2.0	GoodResponse	1	0.238	n/a	1	3	ButtonPress	Win	True
43.228	0.29	Win2	0.75	n/a	Yes	2.835	n/a	n/a	GoodResponse	1	n/a	n/a	1	3	Blank	Win	True
43.513	1.45	Win2	0.75	n/a	Yes	2.835	n/a	5.0	GoodResponse	1	0.024	42.537	1	3	Feedback	Win	True
44.967	2.835	Win2	0.75	n/a	Yes	2.835	n/a	n/a	GoodResponse	1	0.0	n/a	1	3	ISIslide	Win	True
47.826	0.25	Win2	0.8	0.0	Yes	3.274	0.026	n/a	GoodResponse	1	n/a	n/a	2	4	Cue	Win	True
48.076	4.0	Win2	0.8	0.0	Yes	3.274	0.0	n/a	GoodResponse	1	n/a	n/a	2	4	Fixation	Win	True
52.072	0.4	Win2	0.8	0.004	Yes	3.274	-0.004	2.0	GoodResponse	1	0.193	51.265	2	4	Target	Win	True
52.265	0.3	Win2	0.8	0.004	Yes	3.274	-0.004	2.0	GoodResponse	1	0.193	n/a	2	4	ButtonPress	Win	True
52.473	0.3	Win2	0.8	n/a	Yes	3.274	n/a	n/a	GoodResponse	1	n/a	n/a	2	4	Blank	Win	True
52.774	1.45	Win2	0.8	n/a	Yes	3.274	n/a	5.0	GoodResponse	1	0.032	51.806	2	4	Feedback	Win	True
54.228	3.274	Win2	0.8	n/a	Yes	3.274	n/a	n/a	GoodResponse	1	0.0	n/a	2	4	ISIslide	Win	True
57.521	0.25	Win2	0.6667000000000001	0.0	No	2.779	0.021	n/a	NoResponse	0	n/a	n/a	2	5	Cue	MissedWin	False
57.772	4.0	Win2	0.6667000000000001	0.0	No	2.779	0.001	n/a	NoResponse	0	n/a	n/a	2	5	Fixation	MissedWin	False
61.767	0.39	Win2	0.6667000000000001	0.004	No	2.779	-0.004	n/a	NoResponse	0	n/a	n/a	2	5	Target	MissedWin	False
62.169	0.31	Win2	0.6667000000000001	n/a	No	2.779	n/a	n/a	NoResponse	0	n/a	n/a	2	5	Blank	MissedWin	False
62.469	1.45	Win2	0.6667000000000001	n/a	No	2.779	n/a	5.0	NoResponse	0	0.043	61.512	2	5	Feedback	MissedWin	False
63.924	2.779	Win2	0.6667000000000001	n/a	No	2.779	n/a	n/a	NoResponse	0	0.0	n/a	2	5	ISIslide	MissedWin	False
66.715	0.25	Lose2	0.7143	0.001	Yes	2.735	0.015	n/a	GoodResponse	0	n/a	n/a	2	6	Cue	AvoidedLoss	True
66.966	3.95	Lose2	0.7143	0.0	Yes	2.735	0.001	n/a	GoodResponse	0	n/a	n/a	2	6	Fixation	AvoidedLoss	True
70.911	0.38	Lose2	0.7143	0.004	Yes	2.735	-0.004	2.0	GoodResponse	0	0.263	70.174	2	6	Target	AvoidedLoss	True
71.174	0.3	Lose2	0.7143	0.004	Yes	2.735	-0.004	2.0	GoodResponse	0	0.263	n/a	2	6	ButtonPress	AvoidedLoss	True
71.296	0.32	Lose2	0.7143	n/a	Yes	2.735	n/a	n/a	GoodResponse	0	n/a	n/a	2	6	Blank	AvoidedLoss	True
71.614	1.45	Lose2	0.7143	n/a	Yes	2.735	n/a	5.0	GoodResponse	0	0.02	70.634	2	6	Feedback	AvoidedLoss	True
73.068	2.735	Lose2	0.7143	n/a	Yes	2.735	n/a	n/a	GoodResponse	0	0.0	n/a	2	6	ISIslide	AvoidedLoss	True
75.826	0.25	Lose2	0.75	0.0	Yes	4.024	0.026	n/a	GoodResponse	0	n/a	n/a	2	7	Cue	AvoidedLoss	True
76.077	4.05	Lose2	0.75	0.0	Yes	4.024	0.001	n/a	GoodResponse	0	n/a	n/a	2	7	Fixation	AvoidedLoss	True
80.122	0.37	Lose2	0.75	0.004	Yes	4.024	-0.004	2.0	GoodResponse	0	0.248	79.37	2	7	Target	AvoidedLoss	True
80.37	0.3	Lose2	0.75	0.004	Yes	4.024	-0.004	2.0	GoodResponse	0	0.248	n/a	2	7	ButtonPress	AvoidedLoss	True
80.507	0.33	Lose2	0.75	n/a	Yes	4.024	n/a	n/a	GoodResponse	0	n/a	n/a	2	7	Blank	AvoidedLoss	True
80.824	1.45	Lose2	0.75	n/a	Yes	4.024	n/a	5.0	GoodResponse	0	0.03	79.854	2	7	Feedback	AvoidedLoss	True
82.279	4.024	Lose2	0.75	n/a	Yes	4.024	n/a	n/a	GoodResponse	0	0.0	n/a	2	7	ISIslide	AvoidedLoss	True
86.324	0.25	Lose2	0.7778	0.0	Yes	3.026	0.024	n/a	GoodResponse	0	n/a	n/a	2	8	Cue	AvoidedLoss	True
86.575	3.95	Lose2	0.7778	0.0	Yes	3.026	0.001	n/a	GoodResponse	0	n/a	n/a	2	8	Fixation	AvoidedLoss	True
90.52	0.36	Lose2	0.7778	0.004	Yes	3.026	-0.004	2.0	GoodResponse	0	0.201	89.721	2	8	Target	AvoidedLoss	True
90.721	0.3	Lose2	0.7778	0.004	Yes	3.026	-0.004	2.0	GoodResponse	0	0.201	n/a	2	8	ButtonPress	AvoidedLoss	True
90.888	0.34	Lose2	0.7778	n/a	Yes	3.026	n/a	n/a	GoodResponse	0	n/a	n/a	2	8	Blank	AvoidedLoss	True
91.222	1.45	Lose2	0.7778	n/a	Yes	3.026	n/a	5.0	GoodResponse	0	0.022	90.244	2	8	Feedback	AvoidedLoss	True
92.677	3.026	Lose2	0.7778	n/a	Yes	3.026	n/a	n/a	GoodResponse	0	0.0	n/a	2	8	ISIslide	AvoidedLoss	True
95.719	0.25	Lose2	0.8	0.0	Yes	3.131	0.019	n/a	GoodResponse	0	n/a	n/a	2	9	Cue	AvoidedLoss	True
95.97	3.95	Lose2	0.8	0.0	Yes	3.131	0.001	n/a	GoodResponse	0	n/a	n/a	2	9	Fixation	AvoidedLoss	True
99.915	0.35	Lose2	0.8	0.004	Yes	3.131	-0.004	2.0	GoodResponse	0	0.164	99.079	2	9	Target	AvoidedLoss	True
100.079	0.3	Lose2	0.8	0.004	Yes	3.131	-0.004	2.0	GoodResponse	0	0.164	n/a	2	9	ButtonPress	AvoidedLoss	True
100.266	0.35	Lose2	0.8	n/a	Yes	3.131	n/a	n/a	GoodResponse	0	n/a	n/a	2	9	Blank	AvoidedLoss	True
100.617	1.45	Lose2	0.8	n/a	Yes	3.131	n/a	5.0	GoodResponse	0	0.042	99.659	2	9	Feedback	AvoidedLoss	True
102.071	3.131	Lose2	0.8	n/a	Yes	3.131	n/a	n/a	GoodResponse	0	0.0	n/a	2	9	ISIslide	AvoidedLoss	True
105.214	0.25	Control	0.8181999999999999	0.0	Yes	3.286	0.014	n/a	GoodResponse	0	n/a	n/a	2	10	Cue	Neutral	True
105.465	4.0	Control	0.8181999999999999	0.0	Yes	3.286	0.001	n/a	GoodResponse	0	n/a	n/a	2	10	Fixation	Neutral	True
109.46	0.34	Control	0.8181999999999999	0.004	Yes	3.286	-0.004	2.0	GoodResponse	0	0.249	108.709	2	10	Target	Neutral	True
109.709	0.3	Control	0.8181999999999999	0.004	Yes	3.286	-0.004	2.0	GoodResponse	0	0.249	n/a	2	10	ButtonPress	Neutral	True
109.811	0.36	Control	0.8181999999999999	n/a	Yes	3.286	n/a	n/a	GoodResponse	0	n/a	n/a	2	10	Blank	Neutral	True
110.162	1.45	Control	0.8181999999999999	n/a	Yes	3.286	n/a	5.0	GoodResponse	0	0.009	109.171	2	10	Feedback	Neutral	True
111.617	3.286	Control	0.8181999999999999	n/a	Yes	3.286	n/a	n/a	GoodResponse	0	0.0	n/a	2	10	ISIslide	Neutral	True
114.927	0.25	Lose2	0.8332999999999999	0.0	Yes	2.723	0.027	n/a	GoodResponse	0	n/a	n/a	2	11	Cue	AvoidedLoss	True
115.177	4.05	Lose2	0.8332999999999999	0.0	Yes	2.723	0.0	n/a	GoodResponse	0	n/a	n/a	2	11	Fixation	AvoidedLoss	True
119.223	0.33	Lose2	0.8332999999999999	0.004	Yes	2.723	-0.004	2.0	GoodResponse	0	0.203	118.426	2	11	Target	AvoidedLoss	True
119.426	0.3	Lose2	0.8332999999999999	0.004	Yes	2.723	-0.004	2.0	GoodResponse	0	0.203	n/a	2	11	ButtonPress	AvoidedLoss	True
119.557	0.37	Lose2	0.8332999999999999	n/a	Yes	2.723	n/a	n/a	GoodResponse	0	n/a	n/a	2	11	Blank	AvoidedLoss	True
119.925	1.45	Lose2	0.8332999999999999	n/a	Yes	2.723	n/a	5.0	GoodResponse	0	0.001	118.926	2	11	Feedback	AvoidedLoss	True
121.379	2.723	Lose2	0.8332999999999999	n/a	Yes	2.723	n/a	n/a	GoodResponse	0	0.0	n/a	2	11	ISIslide	AvoidedLoss	True
124.121	0.25	Control	0.7692	0.0	No	2.979	0.021	n/a	NoResponse	0	n/a	n/a	2	12	Cue	Neutral	True
124.372	3.9	Control	0.7692	0.0	No	2.979	0.001	2.0	NoResponse	0	3.708	127.08	2	12	Fixation	Neutral	True
128.08	0.3	Control	0.7692	0.0	No	2.979	0.001	2.0	NoResponse	0	3.708	n/a	2	12	ButtonPress	Neutral	True
128.267	0.32	Control	0.7692	0.004	No	2.979	-0.004	n/a	NoResponse	0	n/a	n/a	2	12	Target	Neutral	True
128.601	0.38	Control	0.7692	n/a	No	2.979	n/a	n/a	NoResponse	0	n/a	n/a	2	12	Blank	Neutral	True
128.969	1.45	Control	0.7692	n/a	No	2.979	n/a	5.0	NoResponse	0	0.031	128.0	2	12	Feedback	Neutral	True
130.423	2.979	Control	0.7692	n/a	No	2.979	n/a	n/a	NoResponse	0	0.0	n/a	2	12	ISIslide	Neutral	True
133.415	0.25	Control	0.7857	0.0	Yes	2.785	0.015	n/a	GoodResponse	0	n/a	n/a	2	13	Cue	Neutral	True
133.666	4.0	Control	0.7857	0.0	Yes	2.785	0.001	n/a	GoodResponse	0	n/a	n/a	2	13	Fixation	Neutral	True
137.661	0.31	Control	0.7857	0.004	Yes	2.785	-0.004	2.0	GoodResponse	0	0.263	136.924	2	13	Target	Neutral	True
137.924	0.3	Control	0.7857	0.004	Yes	2.785	-0.004	2.0	GoodResponse	0	0.263	n/a	2	13	ButtonPress	Neutral	True
137.979	0.39	Control	0.7857	n/a	Yes	2.785	n/a	n/a	GoodResponse	0	n/a	n/a	2	13	Blank	Neutral	True
138.364	1.45	Control	0.7857	n/a	Yes	2.785	n/a	5.0	GoodResponse	0	0.001	137.365	2	13	Feedback	Neutral	True
139.818	2.785	Control	0.7857	n/a	Yes	2.785	n/a	n/a	GoodResponse	0	0.0	n/a	2	13	ISIslide	Neutral	True
142.626	0.25	Win2	0.8	0.0	Yes	2.674	0.026	n/a	GoodResponse	1	n/a	n/a	3	14	Cue	Win	True
142.877	4.1	Win2	0.8	0.0	Yes	2.674	0.001	n/a	GoodResponse	1	n/a	n/a	3	14	Fixation	Win	True
146.973	0.3	Win2	0.8	0.003	Yes	2.674	-0.003	2.0	GoodResponse	1	0.208	146.181	3	14	Target	Win	True
147.181	0.3	Win2	0.8	0.003	Yes	2.674	-0.003	2.0	GoodResponse	1	0.208	n/a	3	14	ButtonPress	Win	True
147.274	0.4	Win2	0.8	n/a	Yes	2.674	n/a	n/a	GoodResponse	1	n/a	n/a	3	14	Blank	Win	True
147.675	1.45	Win2	0.8	n/a	Yes	2.674	n/a	5.0	GoodResponse	1	0.008	146.683	3	14	Feedback	Win	True
149.129	2.674	Win2	0.8	n/a	Yes	2.674	n/a	n/a	GoodResponse	1	0.0	n/a	3	14	ISIslide	Win	True
151.82	0.25	Control	0.75	0.001	No	2.98	0.02	n/a	NoResponse	0	n/a	n/a	3	15	Cue	Neutral	False
152.071	4.0	Control	0.75	0.0	No	2.98	0.001	n/a	NoResponse	0	n/a	n/a	3	15	Fixation	Neutral	False
156.067	0.29	Control	0.75	0.003	No	2.98	-0.003	n/a	NoResponse	0	n/a	n/a	3	15	Target	Neutral	False
156.367	0.41	Control	0.75	n/a	No	2.98	n/a	n/a	NoResponse	0	n/a	n/a	3	15	Blank	Neutral	False
156.769	1.45	Control	0.75	n/a	No	2.98	n/a	5.0	NoResponse	0	0.036	155.805	3	15	Feedback	Neutral	False
158.223	2.98	Control	0.75	n/a	No	2.98	n/a	n/a	NoResponse	0	0.0	n/a	3	15	ISIslide	Neutral	False
161.215	0.25	Win2	0.7646999999999999	0.0	Yes	2.885	0.015	n/a	GoodResponse	1	n/a	n/a	4	16	Cue	Win	True
161.466	4.0	Win2	0.7646999999999999	0.0	Yes	2.885	0.001	n/a	GoodResponse	1	n/a	n/a	4	16	Fixation	Win	True
165.461	0.28	Win2	0.7646999999999999	0.004	Yes	2.885	-0.004	2.0	GoodResponse	1	0.192	164.653	4	16	Target	Win	True
165.653	0.3	Win2	0.7646999999999999	0.004	Yes	2.885	-0.004	2.0	GoodResponse	1	0.192	n/a	4	16	ButtonPress	Win	True
165.746	0.42	Win2	0.7646999999999999	n/a	Yes	2.885	n/a	n/a	GoodResponse	1	n/a	n/a	4	16	Blank	Win	True
166.163	1.45	Win2	0.7646999999999999	n/a	Yes	2.885	n/a	5.0	GoodResponse	1	0.008	165.171	4	16	Feedback	Win	True
167.618	2.885	Win2	0.7646999999999999	n/a	Yes	2.885	n/a	n/a	GoodResponse	1	0.0	n/a	4	16	ISIslide	Win	True
170.527	0.25	Lose2	0.7778	0.0	Yes	2.723	0.027	n/a	GoodResponse	0	n/a	n/a	4	17	Cue	AvoidedLoss	True
170.777	3.95	Lose2	0.7778	0.0	Yes	2.723	0.0	n/a	GoodResponse	0	n/a	n/a	4	17	Fixation	AvoidedLoss	True
174.739	0.27	Lose2	0.7778	0.0	Yes	2.723	0.012	2.0	GoodResponse	0	0.202	173.941	4	17	Target	AvoidedLoss	True
174.941	0.3	Lose2	0.7778	0.0	Yes	2.723	0.012	2.0	GoodResponse	0	0.202	n/a	4	17	ButtonPress	AvoidedLoss	True
175.007	0.43	Lose2	0.7778	n/a	Yes	2.723	n/a	n/a	GoodResponse	0	n/a	n/a	4	17	Blank	AvoidedLoss	True
175.425	1.45	Lose2	0.7778	n/a	Yes	2.723	n/a	5.0	GoodResponse	0	0.014	174.439	4	17	Feedback	AvoidedLoss	True
176.879	2.723	Lose2	0.7778	n/a	Yes	2.723	n/a	n/a	GoodResponse	0	0.0	n/a	4	17	ISIslide	AvoidedLoss	True
179.62	0.25	Lose2	0.7895	0.001	Yes	2.73	0.02	n/a	GoodResponse	0	n/a	n/a	4	18	Cue	AvoidedLoss	True
179.871	4.05	Lose2	0.7895	0.0	Yes	2.73	0.001	n/a	GoodResponse	0	n/a	n/a	4	18	Fixation	AvoidedLoss	True
183.917	0.26	Lose2	0.7895	0.003	Yes	2.73	-0.003	2.0	GoodResponse	0	0.245	183.162	4	18	Target	AvoidedLoss	True
184.162	0.3	Lose2	0.7895	0.003	Yes	2.73	-0.003	2.0	GoodResponse	0	0.245	n/a	4	18	ButtonPress	AvoidedLoss	True
184.184	0.44	Lose2	0.7895	n/a	Yes	2.73	n/a	n/a	GoodResponse	0	n/a	n/a	4	18	Blank	AvoidedLoss	True
184.619	1.45	Lose2	0.7895	n/a	Yes	2.73	n/a	5.0	GoodResponse	0	0.039	183.658	4	18	Feedback	AvoidedLoss	True
186.073	2.73	Lose2	0.7895	n/a	Yes	2.73	n/a	n/a	GoodResponse	0	0.0	n/a	4	18	ISIslide	AvoidedLoss	True
188.815	0.25	Control	0.8	0.0	Yes	2.935	0.015	n/a	GoodResponse	0	n/a	n/a	4	19	Cue	Neutral	True
189.065	3.95	Control	0.8	0.001	Yes	2.935	0.0	n/a	GoodResponse	0	n/a	n/a	4	19	Fixation	Neutral	True
193.011	0.25	Control	0.8	0.004	Yes	2.935	-0.004	2.0	GoodResponse	0	0.16	192.171	4	19	Target	Neutral	True
193.171	0.3	Control	0.8	0.004	Yes	2.935	-0.004	2.0	GoodResponse	0	0.16	n/a	4	19	ButtonPress	Neutral	True
193.261	0.45	Control	0.8	n/a	Yes	2.935	n/a	n/a	GoodResponse	0	n/a	n/a	4	19	Blank	Neutral	True
193.713	1.45	Control	0.8	n/a	Yes	2.935	n/a	5.0	GoodResponse	0	0.018	192.731	4	19	Feedback	Neutral	True
195.167	2.935	Control	0.8	n/a	Yes	2.935	n/a	n/a	GoodResponse	0	0.0	n/a	4	19	ISIslide	Neutral	True
198.126	0.25	Control	0.8095	0.0	Yes	2.624	0.026	n/a	GoodResponse	0	n/a	n/a	4	20	Cue	Neutral	True
198.377	4.05	Control	0.8095	0.0	Yes	2.624	0.001	n/a	GoodResponse	0	n/a	n/a	4	20	Fixation	Neutral	True
202.422	0.24	Control	0.8095	0.004	Yes	2.624	-0.004	2.0	GoodResponse	0	0.23	201.652	4	20	Target	Neutral	True
202.652	0.3	Control	0.8095	0.004	Yes	2.624	-0.004	2.0	GoodResponse	0	0.23	n/a	4	20	ButtonPress	Neutral	True
202.673	0.46	Control	0.8095	n/a	Yes	2.624	n/a	n/a	GoodResponse	0	n/a	n/a	4	20	Blank	Neutral	True
203.124	1.45	Control	0.8095	n/a	Yes	2.624	n/a	5.0	GoodResponse	0	0.022	202.146	4	20	Feedback	Neutral	True
204.579	2.624	Control	0.8095	n/a	Yes	2.624	n/a	n/a	GoodResponse	0	0.0	n/a	4	20	ISIslide	Neutral	True
207.22	0.25	Control	0.8181999999999999	0.0	Yes	2.78	0.02	n/a	GoodResponse	0	n/a	n/a	4	21	Cue	Neutral	True
207.471	4.1	Control	0.8181999999999999	0.0	Yes	2.78	0.001	n/a	GoodResponse	0	n/a	n/a	4	21	Fixation	Neutral	True
211.566	0.23	Control	0.8181999999999999	0.004	Yes	2.78	-0.004	2.0	GoodResponse	0	0.219	210.785	4	21	Target	Neutral	True
211.785	0.3	Control	0.8181999999999999	0.004	Yes	2.78	-0.004	2.0	GoodResponse	0	0.219	n/a	4	21	ButtonPress	Neutral	True
211.8	0.47	Control	0.8181999999999999	n/a	Yes	2.78	n/a	n/a	GoodResponse	0	n/a	n/a	4	21	Blank	Neutral	True
212.268	1.45	Control	0.8181999999999999	n/a	Yes	2.78	n/a	5.0	GoodResponse	0	0.049	211.317	4	21	Feedback	Neutral	True
213.723	2.78	Control	0.8181999999999999	n/a	Yes	2.78	n/a	n/a	GoodResponse	0	0.0	n/a	4	21	ISIslide	Neutral	True
216.514	0.25	Control	0.8261	0.0	Yes	2.786	0.014	n/a	GoodResponse	0	n/a	n/a	4	22	Cue	Neutral	True
216.765	4.0	Control	0.8261	0.0	Yes	2.786	0.001	n/a	GoodResponse	0	n/a	n/a	4	22	Fixation	Neutral	True
220.76	0.22	Control	0.8261	0.004	Yes	2.786	-0.004	2.0	GoodResponse	0	0.192	219.952	4	22	Target	Neutral	True
220.952	0.3	Control	0.8261	0.004	Yes	2.786	-0.004	2.0	GoodResponse	0	0.192	n/a	4	22	ButtonPress	Neutral	True
220.994	0.48	Control	0.8261	n/a	Yes	2.786	n/a	n/a	GoodResponse	0	n/a	n/a	4	22	Blank	Neutral	True
221.463	1.45	Control	0.8261	n/a	Yes	2.786	n/a	5.0	GoodResponse	0	0.024	220.487	4	22	Feedback	Neutral	True
222.917	2.786	Control	0.8261	n/a	Yes	2.786	n/a	n/a	GoodResponse	0	0.0	n/a	4	22	ISIslide	Neutral	True
225.725	0.25	Control	0.7917000000000001	0.0	No	2.775	0.025	n/a	NoResponse	0	n/a	n/a	4	23	Cue	Neutral	True
225.976	3.9	Control	0.7917000000000001	0.0	No	2.775	0.001	n/a	NoResponse	0	n/a	n/a	4	23	Fixation	Neutral	True
229.871	0.21	Control	0.7917000000000001	0.004	No	2.775	-0.004	2.0	NoResponse	0	0.267	229.138	4	23	Target	Neutral	True
230.088	0.49	Control	0.7917000000000001	n/a	No	2.775	n/a	n/a	NoResponse	0	n/a	n/a	4	23	Blank	Neutral	True
230.138	0.3	Control	0.7917000000000001	0.004	No	2.775	-0.004	2.0	NoResponse	0	0.267	n/a	4	23	ButtonPress	Neutral	True
230.573	1.45	Control	0.7917000000000001	n/a	No	2.775	n/a	5.0	NoResponse	0	0.036	229.609	4	23	Feedback	Neutral	True
232.028	2.775	Control	0.7917000000000001	n/a	No	2.775	n/a	n/a	NoResponse	0	0.0	n/a	4	23	ISIslide	Neutral	True
234.819	0.25	Win2	0.76	0.0	No	3.131	0.019	n/a	PrematurePress	0	n/a	n/a	4	24	Cue	MissedWin	True
235.07	3.95	Win2	0.76	0.0	No	3.131	0.001	n/a	PrematurePress	0	n/a	n/a	4	24	Fixation	MissedWin	True
239.015	0.2	Win2	0.76	0.004	No	3.131	-0.004	2.0	PrematurePress	0	0.032	238.047	4	24	Target	MissedWin	True
239.047	0.3	Win2	0.76	0.004	No	3.131	-0.004	2.0	PrematurePress	0	0.032	n/a	4	24	ButtonPress	MissedWin	True
239.216	0.5	Win2	0.76	n/a	No	3.131	n/a	n/a	PrematurePress	0	n/a	n/a	4	24	Blank	MissedWin	True
239.717	1.45	Win2	0.76	n/a	No	3.131	n/a	5.0	PrematurePress	0	0.013	238.73	4	24	Feedback	MissedWin	True
241.172	3.131	Win2	0.76	n/a	No	3.131	n/a	n/a	PrematurePress	0	0.0	n/a	4	24	ISIslide	MissedWin	True
244.314	0.25	Win2	0.7308	0.0	No	3.086	0.014	n/a	NoResponse	0	n/a	n/a	4	25	Cue	MissedWin	True
244.565	4.0	Win2	0.7308	0.0	No	3.086	0.001	n/a	NoResponse	0	n/a	n/a	4	25	Fixation	MissedWin	True
248.56	0.19	Win2	0.7308	0.004	No	3.086	-0.004	2.0	NoResponse	0	0.23	247.79	4	25	Target	MissedWin	True
248.761	0.51	Win2	0.7308	n/a	No	3.086	n/a	n/a	NoResponse	0	n/a	n/a	4	25	Blank	MissedWin	True
248.79	0.3	Win2	0.7308	0.004	No	3.086	-0.004	2.0	NoResponse	0	0.23	n/a	4	25	ButtonPress	MissedWin	True
249.262	1.45	Win2	0.7308	n/a	No	3.086	n/a	5.0	NoResponse	0	0.03	248.292	4	25	Feedback	MissedWin	True
250.717	3.086	Win2	0.7308	n/a	No	3.086	n/a	n/a	NoResponse	0	0.0	n/a	4	25	ISIslide	MissedWin	True
253.826	0.25	Win2	0.7037	0.0	No	2.924	0.026	n/a	NoResponse	0	n/a	n/a	4	26	Cue	MissedWin	True
254.077	3.95	Win2	0.7037	0.0	No	2.924	0.001	n/a	NoResponse	0	n/a	n/a	4	26	Fixation	MissedWin	True
258.022	0.18	Win2	0.7037	0.004	No	2.924	-0.004	2.0	NoResponse	0	0.204	257.226	4	26	Target	MissedWin	True
258.206	0.52	Win2	0.7037	n/a	No	2.924	n/a	n/a	NoResponse	0	n/a	n/a	4	26	Blank	MissedWin	True
258.226	0.3	Win2	0.7037	0.004	No	2.924	-0.004	2.0	NoResponse	0	0.204	n/a	4	26	ButtonPress	MissedWin	True
258.724	1.45	Win2	0.7037	n/a	No	2.924	n/a	5.0	NoResponse	0	0.031	257.755	4	26	Feedback	MissedWin	True
260.179	2.924	Win2	0.7037	n/a	No	2.924	n/a	n/a	NoResponse	0	0.0	n/a	4	26	ISIslide	MissedWin	True
263.121	0.25	Lose2	0.6786	0.0	No	2.829	0.021	n/a	NoResponse	-1	n/a	n/a	3	27	Cue	Loss	True
263.371	4.05	Lose2	0.6786	0.0	No	2.829	0.0	2.0	NoResponse	-1	3.976	266.347	3	27	Fixation	Loss	True
267.347	0.3	Lose2	0.6786	0.0	No	2.829	0.0	2.0	NoResponse	-1	3.976	n/a	3	27	ButtonPress	Loss	True
267.417	0.17	Lose2	0.6786	0.004	No	2.829	-0.004	n/a	NoResponse	-1	n/a	n/a	3	27	Target	Loss	True
267.601	0.53	Lose2	0.6786	n/a	No	2.829	n/a	n/a	NoResponse	-1	n/a	n/a	3	27	Blank	Loss	True
268.119	1.45	Lose2	0.6786	n/a	No	2.829	n/a	5.0	NoResponse	-1	0.002	267.121	3	27	Feedback	Loss	True
269.573	2.829	Lose2	0.6786	n/a	No	2.829	n/a	n/a	NoResponse	-1	0.0	n/a	3	27	ISIslide	Loss	True
272.415	0.25	Control	0.6552	0.0	No	2.835	0.015	n/a	NoResponse	0	n/a	n/a	3	28	Cue	Neutral	False
272.666	4.05	Control	0.6552	0.0	No	2.835	0.001	n/a	NoResponse	0	n/a	n/a	3	28	Fixation	Neutral	False
276.711	0.16	Control	0.6552	0.004	No	2.835	-0.004	n/a	NoResponse	0	n/a	n/a	3	28	Target	Neutral	False
276.879	0.54	Control	0.6552	n/a	No	2.835	n/a	n/a	NoResponse	0	n/a	n/a	3	28	Blank	Neutral	False
277.413	1.45	Control	0.6552	n/a	No	2.835	n/a	5.0	NoResponse	0	0.025	276.438	3	28	Feedback	Neutral	False
278.868	2.835	Control	0.6552	n/a	No	2.835	n/a	n/a	NoResponse	0	0.0	n/a	3	28	ISIslide	Neutral	False
281.726	0.25	Lose2	0.6333	0.0	No	2.824	0.026	n/a	NoResponse	-1	n/a	n/a	2	29	Cue	Loss	True
281.977	3.95	Lose2	0.6333	0.0	No	2.824	0.001	n/a	NoResponse	-1	n/a	n/a	2	29	Fixation	Loss	True
285.922	0.16	Lose2	0.6333	0.004	No	2.824	-0.004	2.0	NoResponse	-1	0.326	285.248	2	29	Target	Loss	True
286.089	0.54	Lose2	0.6333	n/a	No	2.824	n/a	n/a	NoResponse	-1	n/a	n/a	2	29	Blank	Loss	True
286.248	0.3	Lose2	0.6333	0.004	No	2.824	-0.004	2.0	NoResponse	-1	0.326	n/a	2	29	ButtonPress	Loss	True
286.624	1.45	Lose2	0.6333	n/a	No	2.824	n/a	5.0	NoResponse	-1	0.034	285.658	2	29	Feedback	Loss	True
288.079	2.824	Lose2	0.6333	n/a	No	2.824	n/a	n/a	NoResponse	-1	0.0	n/a	2	29	ISIslide	Loss	True
290.921	0.25	Win2	0.6129	0.0	No	2.779	0.021	n/a	NoResponse	0	n/a	n/a	2	30	Cue	MissedWin	True
291.171	3.9	Win2	0.6129	0.0	No	2.779	0.0	n/a	NoResponse	0	n/a	n/a	2	30	Fixation	MissedWin	True
295.083	0.17	Win2	0.6129	0.0	No	2.779	0.012	2.0	NoResponse	0	0.227	294.31	2	30	Target	MissedWin	True
295.25	0.53	Win2	0.6129	n/a	No	2.779	n/a	n/a	NoResponse	0	n/a	n/a	2	30	Blank	MissedWin	True
295.31	0.3	Win2	0.6129	0.0	No	2.779	0.012	2.0	NoResponse	0	0.227	n/a	2	30	ButtonPress	MissedWin	True
295.769	1.45	Win2	0.6129	n/a	No	2.779	n/a	5.0	NoResponse	0	0.011	294.78	2	30	Feedback	MissedWin	True
297.223	2.779	Win2	0.6129	n/a	No	2.779	n/a	n/a	NoResponse	0	0.0	n/a	2	30	ISIslide	MissedWin	True
300.015	0.25	Lose2	0.5938	0.0	No	2.835	0.015	n/a	NoResponse	-1	n/a	n/a	1	31	Cue	Loss	True
300.265	4.05	Lose2	0.5938	0.0	No	2.835	0.0	n/a	NoResponse	-1	n/a	n/a	1	31	Fixation	Loss	True
304.311	0.18	Lose2	0.5938	0.004	No	2.835	-0.004	2.0	NoResponse	-1	0.199	303.51	1	31	Target	Loss	True
304.495	0.52	Lose2	0.5938	n/a	No	2.835	n/a	n/a	NoResponse	-1	n/a	n/a	1	31	Blank	Loss	True
304.51	0.3	Lose2	0.5938	0.004	No	2.835	-0.004	2.0	NoResponse	-1	0.199	n/a	1	31	ButtonPress	Loss	True
305.013	1.45	Lose2	0.5938	n/a	No	2.835	n/a	5.0	NoResponse	-1	0.034	304.047	1	31	Feedback	Loss	True
306.467	2.835	Lose2	0.5938	n/a	No	2.835	n/a	n/a	NoResponse	-1	0.0	n/a	1	31	ISIslide	Loss	True
309.326	0.25	Lose2	0.5758	0.0	No	2.624	0.026	n/a	NoResponse	-1	n/a	n/a	0	32	Cue	Loss	False
309.577	4.15	Lose2	0.5758	0.0	No	2.624	0.001	n/a	NoResponse	-1	n/a	n/a	0	32	Fixation	Loss	False
313.722	0.19	Lose2	0.5758	0.004	No	2.624	-0.004	n/a	NoResponse	-1	n/a	n/a	0	32	Target	Loss	False
313.923	0.51	Lose2	0.5758	n/a	No	2.624	n/a	n/a	NoResponse	-1	n/a	n/a	0	32	Blank	Loss	False
314.424	1.45	Lose2	0.5758	n/a	No	2.624	n/a	5.0	NoResponse	-1	0.038	313.462	0	32	Feedback	Loss	False
315.879	2.624	Lose2	0.5758	n/a	No	2.624	n/a	n/a	NoResponse	-1	0.0	n/a	0	32	ISIslide	Loss	False
318.52	0.25	Win2	0.5882000000000001	0.0	Yes	2.68	0.02	n/a	GoodResponse	1	n/a	n/a	1	33	Cue	Win	True
318.771	4.0	Win2	0.5882000000000001	0.0	Yes	2.68	0.001	n/a	GoodResponse	1	n/a	n/a	1	33	Fixation	Win	True
322.766	0.2	Win2	0.5882000000000001	0.004	Yes	2.68	-0.004	2.0	GoodResponse	1	0.178	321.944	1	33	Target	Win	True
322.944	0.3	Win2	0.5882000000000001	0.004	Yes	2.68	-0.004	2.0	GoodResponse	1	0.178	n/a	1	33	ButtonPress	Win	True
322.967	0.5	Win2	0.5882000000000001	n/a	Yes	2.68	n/a	n/a	GoodResponse	1	n/a	n/a	1	33	Blank	Win	True
323.468	1.45	Win2	0.5882000000000001	n/a	Yes	2.68	n/a	5.0	GoodResponse	1	0.018	322.486	1	33	Feedback	Win	True
324.923	2.68	Win2	0.5882000000000001	n/a	Yes	2.68	n/a	n/a	GoodResponse	1	0.0	n/a	1	33	ISIslide	Win	True
327.614	0.25	Lose2	0.6	0.0	Yes	2.636	0.014	n/a	GoodResponse	0	n/a	n/a	1	34	Cue	AvoidedLoss	True
327.865	4.05	Lose2	0.6	0.0	Yes	2.636	0.001	n/a	GoodResponse	0	n/a	n/a	1	34	Fixation	AvoidedLoss	True
331.91	0.21	Lose2	0.6	0.004	Yes	2.636	-0.004	2.0	GoodResponse	0	0.198	331.108	1	34	Target	AvoidedLoss	True
332.108	0.3	Lose2	0.6	0.004	Yes	2.636	-0.004	2.0	GoodResponse	0	0.198	n/a	1	34	ButtonPress	AvoidedLoss	True
332.127	0.49	Lose2	0.6	n/a	Yes	2.636	n/a	n/a	GoodResponse	0	n/a	n/a	1	34	Blank	AvoidedLoss	True
332.612	1.45	Lose2	0.6	n/a	Yes	2.636	n/a	5.0	GoodResponse	0	0.045	331.657	1	34	Feedback	AvoidedLoss	True
334.067	2.636	Lose2	0.6	n/a	Yes	2.636	n/a	n/a	GoodResponse	0	0.0	n/a	1	34	ISIslide	AvoidedLoss	True
336.725	0.25	Lose2	0.6111	0.0	Yes	2.675	0.025	n/a	GoodResponse	0	n/a	n/a	1	35	Cue	AvoidedLoss	True
336.975	4.0	Lose2	0.6111	0.0	Yes	2.675	0.0	n/a	GoodResponse	0	n/a	n/a	1	35	Fixation	AvoidedLoss	True
340.971	0.22	Lose2	0.6111	0.004	Yes	2.675	-0.004	2.0	GoodResponse	0	0.196	340.167	1	35	Target	AvoidedLoss	True
341.167	0.3	Lose2	0.6111	0.004	Yes	2.675	-0.004	2.0	GoodResponse	0	0.196	n/a	1	35	ButtonPress	AvoidedLoss	True
341.205	0.48	Lose2	0.6111	n/a	Yes	2.675	n/a	n/a	GoodResponse	0	n/a	n/a	1	35	Blank	AvoidedLoss	True
341.673	1.45	Lose2	0.6111	n/a	Yes	2.675	n/a	5.0	GoodResponse	0	0.009	340.682	1	35	Feedback	AvoidedLoss	True
343.127	2.675	Lose2	0.6111	n/a	Yes	2.675	n/a	n/a	GoodResponse	0	0.0	n/a	1	35	ISIslide	AvoidedLoss	True
345.818	0.25	Control	0.6215999999999999	0.001	Yes	2.682	0.018	n/a	GoodResponse	0	n/a	n/a	1	36	Cue	Neutral	True
346.069	4.0	Control	0.6215999999999999	0.0	Yes	2.682	0.001	n/a	GoodResponse	0	n/a	n/a	1	36	Fixation	Neutral	True
350.065	0.23	Control	0.6215999999999999	0.003	Yes	2.682	-0.003	2.0	GoodResponse	0	0.206	349.271	1	36	Target	Neutral	True
350.271	0.3	Control	0.6215999999999999	0.003	Yes	2.682	-0.003	2.0	GoodResponse	0	0.206	n/a	1	36	ButtonPress	Neutral	True
350.299	0.47	Control	0.6215999999999999	n/a	Yes	2.682	n/a	n/a	GoodResponse	0	n/a	n/a	1	36	Blank	Neutral	True
350.767	1.45	Control	0.6215999999999999	n/a	Yes	2.682	n/a	5.0	GoodResponse	0	0.037	349.804	1	36	Feedback	Neutral	True
352.221	2.682	Control	0.6215999999999999	n/a	Yes	2.682	n/a	n/a	GoodResponse	0	0.0	n/a	1	36	ISIslide	Neutral	True
354.929	0.25	Win2	0.6315999999999999	0.0	Yes	2.871	0.029	n/a	GoodResponse	1	n/a	n/a	2	37	Cue	Win	True
355.18	4.0	Win2	0.6315999999999999	0.0	Yes	2.871	0.001	n/a	GoodResponse	1	n/a	n/a	2	37	Fixation	Win	True
359.175	0.24	Win2	0.6315999999999999	0.004	Yes	2.871	-0.004	2.0	GoodResponse	1	0.191	358.366	2	37	Target	Win	True
359.366	0.3	Win2	0.6315999999999999	0.004	Yes	2.871	-0.004	2.0	GoodResponse	1	0.191	n/a	2	37	ButtonPress	Win	True
359.426	0.46	Win2	0.6315999999999999	n/a	Yes	2.871	n/a	n/a	GoodResponse	1	n/a	n/a	2	37	Blank	Win	True
359.877	1.45	Win2	0.6315999999999999	n/a	Yes	2.871	n/a	5.0	GoodResponse	1	0.048	358.925	2	37	Feedback	Win	True
361.332	2.871	Win2	0.6315999999999999	n/a	Yes	2.871	n/a	n/a	GoodResponse	1	0.0	n/a	2	37	ISIslide	Win	True
364.224	0.25	Lose2	0.6409999999999999	0.0	Yes	2.826	0.024	n/a	GoodResponse	0	n/a	n/a	2	38	Cue	AvoidedLoss	True
364.474	3.95	Lose2	0.6409999999999999	0.0	Yes	2.826	0.0	n/a	GoodResponse	0	n/a	n/a	2	38	Fixation	AvoidedLoss	True
368.42	0.25	Lose2	0.6409999999999999	0.004	Yes	2.826	-0.004	2.0	GoodResponse	0	0.215	367.635	2	38	Target	AvoidedLoss	True
368.635	0.3	Lose2	0.6409999999999999	0.004	Yes	2.826	-0.004	2.0	GoodResponse	0	0.215	n/a	2	38	ButtonPress	AvoidedLoss	True
368.67	0.45	Lose2	0.6409999999999999	n/a	Yes	2.826	n/a	n/a	GoodResponse	0	n/a	n/a	2	38	Blank	AvoidedLoss	True
369.122	1.45	Lose2	0.6409999999999999	n/a	Yes	2.826	n/a	5.0	GoodResponse	0	0.022	368.144	2	38	Feedback	AvoidedLoss	True
370.576	2.826	Lose2	0.6409999999999999	n/a	Yes	2.826	n/a	n/a	GoodResponse	0	0.0	n/a	2	38	ISIslide	AvoidedLoss	True
373.418	0.25	Win2	0.625	0.0	No	2.982	0.018	n/a	NoResponse	0	n/a	n/a	2	39	Cue	MissedWin	True
373.669	4.1	Win2	0.625	0.0	No	2.982	0.001	n/a	NoResponse	0	n/a	n/a	2	39	Fixation	MissedWin	True
377.764	0.26	Win2	0.625	0.004	No	2.982	-0.004	2.0	NoResponse	0	0.275	377.039	2	39	Target	MissedWin	True
378.032	0.44	Win2	0.625	n/a	No	2.982	n/a	n/a	NoResponse	0	n/a	n/a	2	39	Blank	MissedWin	True
378.039	0.3	Win2	0.625	0.004	No	2.982	-0.004	2.0	NoResponse	0	0.275	n/a	2	39	ButtonPress	MissedWin	True
378.466	1.45	Win2	0.625	n/a	No	2.982	n/a	5.0	NoResponse	0	0.044	377.51	2	39	Feedback	MissedWin	True
379.921	2.982	Win2	0.625	n/a	No	2.982	n/a	n/a	NoResponse	0	0.0	n/a	2	39	ISIslide	MissedWin	True
382.913	0.25	Win2	0.6341	0.0	Yes	2.737	0.013	n/a	GoodResponse	1	n/a	n/a	3	40	Cue	Win	True
383.164	3.95	Win2	0.6341	0.0	Yes	2.737	0.001	n/a	GoodResponse	1	n/a	n/a	3	40	Fixation	Win	True
387.109	0.27	Win2	0.6341	0.004	Yes	2.737	-0.004	2.0	GoodResponse	1	0.203	386.312	3	40	Target	Win	True
387.312	0.3	Win2	0.6341	0.004	Yes	2.737	-0.004	2.0	GoodResponse	1	0.203	n/a	3	40	ButtonPress	Win	True
387.393	0.43	Win2	0.6341	n/a	Yes	2.737	n/a	n/a	GoodResponse	1	n/a	n/a	3	40	Blank	Win	True
387.811	1.45	Win2	0.6341	n/a	Yes	2.737	n/a	5.0	GoodResponse	1	0.017	386.828	3	40	Feedback	Win	True
389.265	2.737	Win2	0.6341	n/a	Yes	2.737	n/a	n/a	GoodResponse	1	0.0	n/a	3	40	ISIslide	Win	True
392.024	0.25	Win2	0.6429	0.0	Yes	2.776	0.024	n/a	GoodResponse	1	n/a	n/a	4	41	Cue	Win	True
392.274	3.9	Win2	0.6429	0.0	Yes	2.776	0.0	n/a	GoodResponse	1	n/a	n/a	4	41	Fixation	Win	True
396.186	0.28	Win2	0.6429	0.0	Yes	2.776	0.012	2.0	GoodResponse	1	0.21	395.396	4	41	Target	Win	True
396.396	0.3	Win2	0.6429	0.0	Yes	2.776	0.012	2.0	GoodResponse	1	0.21	n/a	4	41	ButtonPress	Win	True
396.454	0.42	Win2	0.6429	n/a	Yes	2.776	n/a	n/a	GoodResponse	1	n/a	n/a	4	41	Blank	Win	True
396.871	1.45	Win2	0.6429	n/a	Yes	2.776	n/a	5.0	GoodResponse	1	0.03	395.901	4	41	Feedback	Win	True
398.326	2.776	Win2	0.6429	n/a	Yes	2.776	n/a	n/a	GoodResponse	1	0.0	n/a	4	41	ISIslide	Win	True
401.118	0.25	Control	0.6512	0.0	Yes	2.932	0.018	n/a	GoodResponse	0	n/a	n/a	4	42	Cue	Neutral	True
401.368	3.85	Control	0.6512	0.0	Yes	2.932	0.0	n/a	GoodResponse	0	n/a	n/a	4	42	Fixation	Neutral	True
405.23	0.29	Control	0.6512	0.0	Yes	2.932	0.012	2.0	GoodResponse	0	0.206	404.436	4	42	Target	Neutral	True
405.436	0.3	Control	0.6512	0.0	Yes	2.932	0.012	2.0	GoodResponse	0	0.206	n/a	4	42	ButtonPress	Neutral	True
405.514	0.41	Control	0.6512	n/a	Yes	2.932	n/a	n/a	GoodResponse	0	n/a	n/a	4	42	Blank	Neutral	True
405.915	1.45	Control	0.6512	n/a	Yes	2.932	n/a	5.0	GoodResponse	0	0.01	404.925	4	42	Feedback	Neutral	True
407.37	2.932	Control	0.6512	n/a	Yes	2.932	n/a	n/a	GoodResponse	0	0.0	n/a	4	42	ISIslide	Neutral	True
410.328	0.25	Win2	0.6591	0.0	Yes	3.172	0.028	n/a	GoodResponse	1	n/a	n/a	5	43	Cue	Win	True
410.579	4.0	Win2	0.6591	0.0	Yes	3.172	0.001	n/a	GoodResponse	1	n/a	n/a	5	43	Fixation	Win	True
414.574	0.3	Win2	0.6591	0.004	Yes	3.172	-0.004	2.0	GoodResponse	1	0.201	413.775	5	43	Target	Win	True
414.775	0.3	Win2	0.6591	0.004	Yes	3.172	-0.004	2.0	GoodResponse	1	0.201	n/a	5	43	ButtonPress	Win	True
414.875	0.4	Win2	0.6591	n/a	Yes	3.172	n/a	n/a	GoodResponse	1	n/a	n/a	5	43	Blank	Win	True
415.277	1.45	Win2	0.6591	n/a	Yes	3.172	n/a	5.0	GoodResponse	1	0.014	414.291	5	43	Feedback	Win	True
416.731	3.172	Win2	0.6591	n/a	Yes	3.172	n/a	n/a	GoodResponse	1	0.0	n/a	5	43	ISIslide	Win	True
419.924	0.25	Win2	0.6667000000000001	0.0	Yes	2.976	0.024	n/a	GoodResponse	1	n/a	n/a	6	44	Cue	Win	True
420.175	4.0	Win2	0.6667000000000001	0.0	Yes	2.976	0.001	n/a	GoodResponse	1	n/a	n/a	6	44	Fixation	Win	True
424.17	0.3	Win2	0.6667000000000001	0.004	Yes	2.976	-0.004	2.0	GoodResponse	1	0.23	423.4	6	44	Target	Win	True
424.4	0.3	Win2	0.6667000000000001	0.004	Yes	2.976	-0.004	2.0	GoodResponse	1	0.23	n/a	6	44	ButtonPress	Win	True
424.471	0.4	Win2	0.6667000000000001	n/a	Yes	2.976	n/a	n/a	GoodResponse	1	n/a	n/a	6	44	Blank	Win	True
424.872	1.45	Win2	0.6667000000000001	n/a	Yes	2.976	n/a	5.0	GoodResponse	1	0.028	423.9	6	44	Feedback	Win	True
426.326	2.976	Win2	0.6667000000000001	n/a	Yes	2.976	n/a	n/a	GoodResponse	1	0.0	n/a	6	44	ISIslide	Win	True
429.319	0.25	Control	0.6739	0.0	Yes	2.881	0.019	n/a	GoodResponse	0	n/a	n/a	6	45	Cue	Neutral	True
429.569	4.1	Control	0.6739	0.0	Yes	2.881	0.0	n/a	GoodResponse	0	n/a	n/a	6	45	Fixation	Neutral	True
433.665	0.29	Control	0.6739	0.004	Yes	2.881	-0.004	2.0	GoodResponse	0	0.149	432.814	6	45	Target	Neutral	True
433.814	0.3	Control	0.6739	0.004	Yes	2.881	-0.004	2.0	GoodResponse	0	0.149	n/a	6	45	ButtonPress	Neutral	True
433.966	0.41	Control	0.6739	n/a	Yes	2.881	n/a	n/a	GoodResponse	0	n/a	n/a	6	45	Blank	Neutral	True
434.367	1.45	Control	0.6739	n/a	Yes	2.881	n/a	5.0	GoodResponse	0	0.045	433.412	6	45	Feedback	Neutral	True
435.821	2.881	Control	0.6739	n/a	Yes	2.881	n/a	n/a	GoodResponse	0	0.0	n/a	6	45	ISIslide	Neutral	True
438.713	0.25	Lose2	0.6809000000000001	0.001	Yes	3.387	0.013	n/a	GoodResponse	0	n/a	n/a	6	46	Cue	AvoidedLoss	True
438.964	4.0	Lose2	0.6809000000000001	0.0	Yes	3.387	0.001	n/a	GoodResponse	0	n/a	n/a	6	46	Fixation	AvoidedLoss	True
442.96	0.28	Lose2	0.6809000000000001	0.003	Yes	3.387	-0.003	2.0	GoodResponse	0	0.212	442.172	6	46	Target	AvoidedLoss	True
443.172	0.3	Lose2	0.6809000000000001	0.003	Yes	3.387	-0.003	2.0	GoodResponse	0	0.212	n/a	6	46	ButtonPress	AvoidedLoss	True
443.244	0.42	Lose2	0.6809000000000001	n/a	Yes	3.387	n/a	n/a	GoodResponse	0	n/a	n/a	6	46	Blank	AvoidedLoss	True
443.662	1.45	Lose2	0.6809000000000001	n/a	Yes	3.387	n/a	5.0	GoodResponse	0	0.019	442.681	6	46	Feedback	AvoidedLoss	True
445.116	3.387	Lose2	0.6809000000000001	n/a	Yes	3.387	n/a	n/a	GoodResponse	0	0.0	n/a	6	46	ISIslide	AvoidedLoss	True
448.526	0.25	Lose2	0.6875	0.0	Yes	2.674	0.026	n/a	GoodResponse	0	n/a	n/a	6	47	Cue	AvoidedLoss	True
448.777	4.0	Lose2	0.6875	0.0	Yes	2.674	0.001	n/a	GoodResponse	0	n/a	n/a	6	47	Fixation	AvoidedLoss	True
452.772	0.27	Lose2	0.6875	0.004	Yes	2.674	-0.004	2.0	GoodResponse	0	0.201	451.973	6	47	Target	AvoidedLoss	True
452.973	0.3	Lose2	0.6875	0.004	Yes	2.674	-0.004	2.0	GoodResponse	0	0.201	n/a	6	47	ButtonPress	AvoidedLoss	True
453.056	0.43	Lose2	0.6875	n/a	Yes	2.674	n/a	n/a	GoodResponse	0	n/a	n/a	6	47	Blank	AvoidedLoss	True
453.474	1.45	Lose2	0.6875	n/a	Yes	2.674	n/a	5.0	GoodResponse	0	0.012	452.486	6	47	Feedback	AvoidedLoss	True
454.929	2.674	Lose2	0.6875	n/a	Yes	2.674	n/a	n/a	GoodResponse	0	0.0	n/a	6	47	ISIslide	AvoidedLoss	True
457.62	0.25	Lose2	0.6735	0.0	No	3.03	0.02	n/a	NoResponse	-1	n/a	n/a	5	48	Cue	Loss	True
457.871	3.95	Lose2	0.6735	0.0	No	3.03	0.001	n/a	NoResponse	-1	n/a	n/a	5	48	Fixation	Loss	True
461.816	0.26	Lose2	0.6735	0.004	No	3.03	-0.004	2.0	NoResponse	-1	0.3	461.116	5	48	Target	Loss	True
462.084	0.44	Lose2	0.6735	n/a	No	3.03	n/a	n/a	NoResponse	-1	n/a	n/a	5	48	Blank	Loss	True
462.116	0.3	Lose2	0.6735	0.004	No	3.03	-0.004	2.0	NoResponse	-1	0.3	n/a	5	48	ButtonPress	Loss	True
462.518	1.45	Lose2	0.6735	n/a	No	3.03	n/a	5.0	NoResponse	-1	0.041	461.559	5	48	Feedback	Loss	True
463.972	3.03	Lose2	0.6735	n/a	No	3.03	n/a	n/a	NoResponse	-1	0.0	n/a	5	48	ISIslide	Loss	True
467.015	0.25	Control	0.68	0.0	Yes	2.885	0.015	n/a	GoodResponse	0	n/a	n/a	5	49	Cue	Neutral	True
467.266	4.0	Control	0.68	0.0	Yes	2.885	0.001	n/a	GoodResponse	0	n/a	n/a	5	49	Fixation	Neutral	True
471.261	0.25	Control	0.68	0.004	Yes	2.885	-0.004	2.0	GoodResponse	0	0.187	470.448	5	49	Target	Neutral	True
471.448	0.3	Control	0.68	0.004	Yes	2.885	-0.004	2.0	GoodResponse	0	0.187	n/a	5	49	ButtonPress	Neutral	True
471.512	0.45	Control	0.68	n/a	Yes	2.885	n/a	n/a	GoodResponse	0	n/a	n/a	5	49	Blank	Neutral	True
471.963	1.45	Control	0.68	n/a	Yes	2.885	n/a	5.0	GoodResponse	0	0.011	470.974	5	49	Feedback	Neutral	True
473.417	2.885	Control	0.68	n/a	Yes	2.885	n/a	n/a	GoodResponse	0	0.0	n/a	5	49	ISIslide	Neutral	True
476.326	0.25	Control	0.6862999999999999	0.0	Yes	2.774	0.026	n/a	GoodResponse	0	n/a	n/a	5	50	Cue	Neutral	True
476.577	4.0	Control	0.6862999999999999	0.0	Yes	2.774	0.001	n/a	GoodResponse	0	n/a	n/a	5	50	Fixation	Neutral	True
480.572	0.24	Control	0.6862999999999999	0.004	Yes	2.774	-0.004	2.0	GoodResponse	0	0.231	479.803	5	50	Target	Neutral	True
480.803	0.3	Control	0.6862999999999999	0.004	Yes	2.774	-0.004	2.0	GoodResponse	0	0.231	n/a	5	50	ButtonPress	Neutral	True
480.823	0.46	Control	0.6862999999999999	n/a	Yes	2.774	n/a	n/a	GoodResponse	0	n/a	n/a	5	50	Blank	Neutral	True
481.274	1.45	Control	0.6862999999999999	n/a	Yes	2.774	n/a	5.0	GoodResponse	0	0.016	480.29	5	50	Feedback	Neutral	True
482.729	2.774	Control	0.6862999999999999	n/a	Yes	2.774	n/a	n/a	GoodResponse	0	0.0	n/a	5	50	ISIslide	Neutral	True
485.52	0.25	Control	0.6923	0.0	Yes	2.73	0.02	n/a	GoodResponse	0	n/a	n/a	5	51	Cue	Neutral	True
485.771	3.95	Control	0.6923	0.0	Yes	2.73	0.001	n/a	GoodResponse	0	n/a	n/a	5	51	Fixation	Neutral	True
489.716	0.23	Control	0.6923	0.004	Yes	2.73	-0.004	2.0	GoodResponse	0	0.187	488.903	5	51	Target	Neutral	True
489.903	0.3	Control	0.6923	0.004	Yes	2.73	-0.004	2.0	GoodResponse	0	0.187	n/a	5	51	ButtonPress	Neutral	True
489.95	0.47	Control	0.6923	n/a	Yes	2.73	n/a	n/a	GoodResponse	0	n/a	n/a	5	51	Blank	Neutral	True
490.418	1.45	Control	0.6923	n/a	Yes	2.73	n/a	5.0	GoodResponse	0	0.043	489.461	5	51	Feedback	Neutral	True
491.873	2.73	Control	0.6923	n/a	Yes	2.73	n/a	n/a	GoodResponse	0	0.0	n/a	5	51	ISIslide	Neutral	True
494.614	0.25	Control	0.6792	0.0	No	2.636	0.014	n/a	NoResponse	0	n/a	n/a	5	52	Cue	Neutral	True
494.865	4.05	Control	0.6792	0.0	No	2.636	0.001	n/a	NoResponse	0	n/a	n/a	5	52	Fixation	Neutral	True
498.911	0.22	Control	0.6792	0.003	No	2.636	-0.003	2.0	NoResponse	0	0.301	498.212	5	52	Target	Neutral	True
499.145	0.48	Control	0.6792	n/a	No	2.636	n/a	n/a	NoResponse	0	n/a	n/a	5	52	Blank	Neutral	True
499.212	0.3	Control	0.6792	0.003	No	2.636	-0.003	2.0	NoResponse	0	0.301	n/a	5	52	ButtonPress	Neutral	True
499.613	1.45	Control	0.6792	n/a	No	2.636	n/a	5.0	NoResponse	0	0.019	498.632	5	52	Feedback	Neutral	True
501.067	2.636	Control	0.6792	n/a	No	2.636	n/a	n/a	NoResponse	0	0.0	n/a	5	52	ISIslide	Neutral	True
503.725	0.25	Win2	0.6667000000000001	0.0	No	2.925	0.025	n/a	NoResponse	0	n/a	n/a	5	53	Cue	MissedWin	True
503.976	4.05	Win2	0.6667000000000001	0.0	No	2.925	0.001	n/a	NoResponse	0	n/a	n/a	5	53	Fixation	MissedWin	True
508.021	0.21	Win2	0.6667000000000001	0.004	No	2.925	-0.004	2.0	NoResponse	0	0.241	507.262	5	53	Target	MissedWin	True
508.238	0.49	Win2	0.6667000000000001	n/a	No	2.925	n/a	n/a	NoResponse	0	n/a	n/a	5	53	Blank	MissedWin	True
508.262	0.3	Win2	0.6667000000000001	0.004	No	2.925	-0.004	2.0	NoResponse	0	0.241	n/a	5	53	ButtonPress	MissedWin	True
508.723	1.45	Win2	0.6667000000000001	n/a	No	2.925	n/a	5.0	NoResponse	0	0.031	507.754	5	53	Feedback	MissedWin	True
510.178	2.925	Win2	0.6667000000000001	n/a	No	2.925	n/a	n/a	NoResponse	0	0.0	n/a	5	53	ISIslide	MissedWin	True
513.12	0.25	Win2	0.6545000000000001	0.0	No	2.73	0.02	n/a	NoResponse	0	n/a	n/a	5	54	Cue	MissedWin	True
513.371	3.95	Win2	0.6545000000000001	0.0	No	2.73	0.001	n/a	NoResponse	0	n/a	n/a	5	54	Fixation	MissedWin	True
517.316	0.2	Win2	0.6545000000000001	0.004	No	2.73	-0.004	2.0	NoResponse	0	0.255	516.571	5	54	Target	MissedWin	True
517.516	0.5	Win2	0.6545000000000001	n/a	No	2.73	n/a	n/a	NoResponse	0	n/a	n/a	5	54	Blank	MissedWin	True
517.571	0.3	Win2	0.6545000000000001	0.004	No	2.73	-0.004	2.0	NoResponse	0	0.255	n/a	5	54	ButtonPress	MissedWin	True
518.018	1.45	Win2	0.6545000000000001	n/a	No	2.73	n/a	5.0	NoResponse	0	0.004	517.022	5	54	Feedback	MissedWin	True
519.472	2.73	Win2	0.6545000000000001	n/a	No	2.73	n/a	n/a	NoResponse	0	0.0	n/a	5	54	ISIslide	MissedWin	True
522.214	0.25	Control	0.6429	0.0	No	3.036	0.014	n/a	NoResponse	0	n/a	n/a	5	55	Cue	Neutral	True
522.464	3.95	Control	0.6429	0.001	No	3.036	0.0	n/a	NoResponse	0	n/a	n/a	5	55	Fixation	Neutral	True
526.41	0.21	Control	0.6429	0.004	No	3.036	-0.004	2.0	NoResponse	0	0.255	525.665	5	55	Target	Neutral	True
526.627	0.49	Control	0.6429	n/a	No	3.036	n/a	n/a	NoResponse	0	n/a	n/a	5	55	Blank	Neutral	True
526.665	0.3	Control	0.6429	0.004	No	3.036	-0.004	2.0	NoResponse	0	0.255	n/a	5	55	ButtonPress	Neutral	True
527.112	1.45	Control	0.6429	n/a	No	3.036	n/a	5.0	NoResponse	0	0.032	526.144	5	55	Feedback	Neutral	True
528.566	3.036	Control	0.6429	n/a	No	3.036	n/a	n/a	NoResponse	0	0.0	n/a	5	55	ISIslide	Neutral	True
531.625	0.25	Control	0.6315999999999999	0.0	No	2.825	0.025	n/a	NoResponse	0	n/a	n/a	5	56	Cue	Neutral	True
531.876	3.95	Control	0.6315999999999999	0.0	No	2.825	0.001	2.0	NoResponse	0	3.79	534.666	5	56	Fixation	Neutral	True
535.666	0.3	Control	0.6315999999999999	0.0	No	2.825	0.001	2.0	NoResponse	0	3.79	n/a	5	56	ButtonPress	Neutral	True
535.821	0.22	Control	0.6315999999999999	0.004	No	2.825	-0.004	n/a	NoResponse	0	n/a	n/a	5	56	Target	Neutral	True
536.055	0.48	Control	0.6315999999999999	n/a	No	2.825	n/a	n/a	NoResponse	0	n/a	n/a	5	56	Blank	Neutral	True
536.523	1.45	Control	0.6315999999999999	n/a	No	2.825	n/a	5.0	NoResponse	0	0.035	535.558	5	56	Feedback	Neutral	True
537.978	2.825	Control	0.6315999999999999	n/a	No	2.825	n/a	n/a	NoResponse	0	0.0	n/a	5	56	ISIslide	Neutral	True
540.819	0.25	Control	0.6379	0.001	Yes	3.481	0.019	n/a	GoodResponse	0	n/a	n/a	5	57	Cue	Neutral	True
541.07	4.0	Control	0.6379	0.0	Yes	3.481	0.001	n/a	GoodResponse	0	n/a	n/a	5	57	Fixation	Neutral	True
545.065	0.23	Control	0.6379	0.004	Yes	3.481	-0.004	2.0	GoodResponse	0	0.205	544.27	5	57	Target	Neutral	True
545.27	0.3	Control	0.6379	0.004	Yes	3.481	-0.004	2.0	GoodResponse	0	0.205	n/a	5	57	ButtonPress	Neutral	True
545.3	0.47	Control	0.6379	n/a	Yes	3.481	n/a	n/a	GoodResponse	0	n/a	n/a	5	57	Blank	Neutral	True
545.768	1.45	Control	0.6379	n/a	Yes	3.481	n/a	5.0	GoodResponse	0	0.009	544.777	5	57	Feedback	Neutral	True
547.222	3.481	Control	0.6379	n/a	Yes	3.481	n/a	n/a	GoodResponse	0	0.0	n/a	5	57	ISIslide	Neutral	True
550.716	0.25	Win2	0.6441	0.0	Yes	2.734	0.016	n/a	GoodResponse	1	n/a	n/a	6	58	Cue	Win	True
550.967	4.05	Win2	0.6441	0.0	Yes	2.734	0.001	n/a	GoodResponse	1	n/a	n/a	6	58	Fixation	Win	True
555.012	0.24	Win2	0.6441	0.004	Yes	2.734	-0.004	2.0	GoodResponse	1	0.189	554.201	6	58	Target	Win	True
555.201	0.3	Win2	0.6441	0.004	Yes	2.734	-0.004	2.0	GoodResponse	1	0.189	n/a	6	58	ButtonPress	Win	True
555.263	0.46	Win2	0.6441	n/a	Yes	2.734	n/a	n/a	GoodResponse	1	n/a	n/a	6	58	Blank	Win	True
555.714	1.45	Win2	0.6441	n/a	Yes	2.734	n/a	5.0	GoodResponse	1	0.015	554.729	6	58	Feedback	Win	True
557.168	2.734	Win2	0.6441	n/a	Yes	2.734	n/a	n/a	GoodResponse	1	0.0	n/a	6	58	ISIslide	Win	True
559.927	0.25	Lose2	0.6333	0.0	No	2.673	0.027	n/a	NoResponse	-1	n/a	n/a	5	59	Cue	Loss	True
560.177	4.0	Lose2	0.6333	0.001	No	2.673	0.0	n/a	NoResponse	-1	n/a	n/a	5	59	Fixation	Loss	True
564.173	0.25	Lose2	0.6333	0.004	No	2.673	-0.004	2.0	NoResponse	-1	0.323	563.496	5	59	Target	Loss	True
564.423	0.45	Lose2	0.6333	n/a	No	2.673	n/a	n/a	NoResponse	-1	n/a	n/a	5	59	Blank	Loss	True
564.496	0.3	Lose2	0.6333	0.004	No	2.673	-0.004	2.0	NoResponse	-1	0.323	n/a	5	59	ButtonPress	Loss	True
564.875	1.45	Lose2	0.6333	n/a	No	2.673	n/a	5.0	NoResponse	-1	0.025	563.9	5	59	Feedback	Loss	True
566.329	2.673	Lose2	0.6333	n/a	No	2.673	n/a	n/a	NoResponse	-1	0.0	n/a	5	59	ISIslide	Loss	True
569.021	0.25	Control	0.6393	0.0	Yes	2.679	0.021	n/a	GoodResponse	0	n/a	n/a	5	60	Cue	Neutral	True
569.271	4.0	Control	0.6393	0.0	Yes	2.679	0.0	n/a	GoodResponse	0	n/a	n/a	5	60	Fixation	Neutral	True
573.267	0.26	Control	0.6393	0.004	Yes	2.679	-0.004	2.0	GoodResponse	0	0.194	572.461	5	60	Target	Neutral	True
573.461	0.3	Control	0.6393	0.004	Yes	2.679	-0.004	2.0	GoodResponse	0	0.194	n/a	5	60	ButtonPress	Neutral	True
573.534	0.44	Control	0.6393	n/a	Yes	2.679	n/a	n/a	GoodResponse	0	n/a	n/a	5	60	Blank	Neutral	True
573.969	1.45	Control	0.6393	n/a	Yes	2.679	n/a	5.0	GoodResponse	0	0.004	572.973	5	60	Feedback	Neutral	True
575.423	2.679	Control	0.6393	n/a	Yes	2.679	n/a	n/a	GoodResponse	0	0.0	n/a	5	60	ISIslide	Neutral	True
578.115	0.25	Lose2	0.629	0.0	No	2.985	0.015	n/a	NoResponse	-1	n/a	n/a	4	61	Cue	Loss	True
578.365	4.0	Lose2	0.629	0.0	No	2.985	0.0	n/a	NoResponse	-1	n/a	n/a	4	61	Fixation	Loss	True
582.361	0.27	Lose2	0.629	0.004	No	2.985	-0.004	2.0	NoResponse	-1	0.365	581.726	4	61	Target	Loss	True
582.645	0.43	Lose2	0.629	n/a	No	2.985	n/a	n/a	NoResponse	-1	n/a	n/a	4	61	Blank	Loss	True
582.726	0.3	Lose2	0.629	0.004	No	2.985	-0.004	2.0	NoResponse	-1	0.365	n/a	4	61	ButtonPress	Loss	True
583.063	1.45	Lose2	0.629	n/a	No	2.985	n/a	5.0	NoResponse	-1	0.032	582.095	4	61	Feedback	Loss	True
584.517	2.985	Lose2	0.629	n/a	No	2.985	n/a	n/a	NoResponse	-1	0.0	n/a	4	61	ISIslide	Loss	True
587.526	0.25	Lose2	0.6349	0.0	Yes	2.874	0.026	n/a	GoodResponse	0	n/a	n/a	4	62	Cue	AvoidedLoss	True
587.777	3.9	Lose2	0.6349	0.0	Yes	2.874	0.001	n/a	GoodResponse	0	n/a	n/a	4	62	Fixation	AvoidedLoss	True
591.672	0.28	Lose2	0.6349	0.004	Yes	2.874	-0.004	2.0	GoodResponse	0	0.234	590.906	4	62	Target	AvoidedLoss	True
591.906	0.3	Lose2	0.6349	0.004	Yes	2.874	-0.004	2.0	GoodResponse	0	0.234	n/a	4	62	ButtonPress	AvoidedLoss	True
591.956	0.42	Lose2	0.6349	n/a	Yes	2.874	n/a	n/a	GoodResponse	0	n/a	n/a	4	62	Blank	AvoidedLoss	True
592.374	1.45	Lose2	0.6349	n/a	Yes	2.874	n/a	5.0	GoodResponse	0	0.037	591.411	4	62	Feedback	AvoidedLoss	True
593.828	2.874	Lose2	0.6349	n/a	Yes	2.874	n/a	n/a	GoodResponse	0	0.0	n/a	4	62	ISIslide	AvoidedLoss	True
596.72	0.25	Lose2	0.6406000000000001	0.0	Yes	2.63	0.02	n/a	GoodResponse	0	n/a	n/a	4	63	Cue	AvoidedLoss	True
596.971	4.05	Lose2	0.6406000000000001	0.0	Yes	2.63	0.001	n/a	GoodResponse	0	n/a	n/a	4	63	Fixation	AvoidedLoss	True
601.016	0.29	Lose2	0.6406000000000001	0.004	Yes	2.63	-0.004	2.0	GoodResponse	0	0.177	600.193	4	63	Target	AvoidedLoss	True
601.193	0.3	Lose2	0.6406000000000001	0.004	Yes	2.63	-0.004	2.0	GoodResponse	0	0.177	n/a	4	63	ButtonPress	AvoidedLoss	True
601.317	0.41	Lose2	0.6406000000000001	n/a	Yes	2.63	n/a	n/a	GoodResponse	0	n/a	n/a	4	63	Blank	AvoidedLoss	True
601.719	1.45	Lose2	0.6406000000000001	n/a	Yes	2.63	n/a	5.0	GoodResponse	0	0.009	600.728	4	63	Feedback	AvoidedLoss	True
603.173	2.63	Lose2	0.6406000000000001	n/a	Yes	2.63	n/a	n/a	GoodResponse	0	0.0	n/a	4	63	ISIslide	AvoidedLoss	True
605.814	0.25	Win2	0.6462	0.0	Yes	3.136	0.014	n/a	GoodResponse	1	n/a	n/a	5	64	Cue	Win	True
606.065	4.15	Win2	0.6462	0.0	Yes	3.136	0.001	n/a	GoodResponse	1	n/a	n/a	5	64	Fixation	Win	True
610.211	0.3	Win2	0.6462	0.003	Yes	3.136	-0.003	2.0	GoodResponse	1	0.214	609.425	5	64	Target	Win	True
610.425	0.3	Win2	0.6462	0.003	Yes	3.136	-0.003	2.0	GoodResponse	1	0.214	n/a	5	64	ButtonPress	Win	True
610.512	0.4	Win2	0.6462	n/a	Yes	3.136	n/a	n/a	GoodResponse	1	n/a	n/a	5	64	Blank	Win	True
610.913	1.45	Win2	0.6462	n/a	Yes	3.136	n/a	5.0	GoodResponse	1	0.035	609.948	5	64	Feedback	Win	True
612.367	3.136	Win2	0.6462	n/a	Yes	3.136	n/a	n/a	GoodResponse	1	0.0	n/a	5	64	ISIslide	Win	True
615.527	0.25	Control	0.6515000000000001	0.0	Yes	2.773	0.027	n/a	GoodResponse	0	n/a	n/a	5	65	Cue	Neutral	True
615.777	4.0	Control	0.6515000000000001	0.0	Yes	2.773	0.0	n/a	GoodResponse	0	n/a	n/a	5	65	Fixation	Neutral	True
619.773	0.31	Control	0.6515000000000001	0.004	Yes	2.773	-0.004	2.0	GoodResponse	0	0.252	619.025	5	65	Target	Neutral	True
620.025	0.3	Control	0.6515000000000001	0.004	Yes	2.773	-0.004	2.0	GoodResponse	0	0.252	n/a	5	65	ButtonPress	Neutral	True
620.09	0.39	Control	0.6515000000000001	n/a	Yes	2.773	n/a	n/a	GoodResponse	0	n/a	n/a	5	65	Blank	Neutral	True
620.475	1.45	Control	0.6515000000000001	n/a	Yes	2.773	n/a	5.0	GoodResponse	0	0.034	619.509	5	65	Feedback	Neutral	True
621.929	2.773	Control	0.6515000000000001	n/a	Yes	2.773	n/a	n/a	GoodResponse	0	0.0	n/a	5	65	ISIslide	Neutral	True
624.721	0.25	Win2	0.6567000000000001	0.0	Yes	2.779	0.021	n/a	GoodResponse	1	n/a	n/a	6	66	Cue	Win	True
624.972	3.9	Win2	0.6567000000000001	0.0	Yes	2.779	0.001	n/a	GoodResponse	1	n/a	n/a	6	66	Fixation	Win	True
628.867	0.32	Win2	0.6567000000000001	0.004	Yes	2.779	-0.004	2.0	GoodResponse	1	0.306	628.173	6	66	Target	Win	True
629.173	0.3	Win2	0.6567000000000001	0.004	Yes	2.779	-0.004	2.0	GoodResponse	1	0.306	n/a	6	66	ButtonPress	Win	True
629.201	0.38	Win2	0.6567000000000001	n/a	Yes	2.779	n/a	n/a	GoodResponse	1	n/a	n/a	6	66	Blank	Win	True
629.569	1.45	Win2	0.6567000000000001	n/a	Yes	2.779	n/a	5.0	GoodResponse	1	0.013	628.582	6	66	Feedback	Win	True
631.023	2.779	Win2	0.6567000000000001	n/a	Yes	2.779	n/a	n/a	GoodResponse	1	0.0	n/a	6	66	ISIslide	Win	True
633.815	0.25	Control	0.6618	0.0	Yes	2.735	0.015	n/a	GoodResponse	0	n/a	n/a	6	67	Cue	Neutral	True
634.066	3.95	Control	0.6618	0.0	Yes	2.735	0.001	n/a	GoodResponse	0	n/a	n/a	6	67	Fixation	Neutral	True
638.011	0.32	Control	0.6618	0.004	Yes	2.735	-0.004	2.0	GoodResponse	0	0.296	637.307	6	67	Target	Neutral	True
638.307	0.3	Control	0.6618	0.004	Yes	2.735	-0.004	2.0	GoodResponse	0	0.296	n/a	6	67	ButtonPress	Neutral	True
638.345	0.38	Control	0.6618	n/a	Yes	2.735	n/a	n/a	GoodResponse	0	n/a	n/a	6	67	Blank	Neutral	True
638.713	1.45	Control	0.6618	n/a	Yes	2.735	n/a	5.0	GoodResponse	0	0.04	637.753	6	67	Feedback	Neutral	True
640.167	2.735	Control	0.6618	n/a	Yes	2.735	n/a	n/a	GoodResponse	0	0.0	n/a	6	67	ISIslide	Neutral	True
642.925	0.25	Win2	0.6667000000000001	0.0	Yes	3.075	0.025	n/a	GoodResponse	1	n/a	n/a	7	68	Cue	Win	True
643.176	4.0	Win2	0.6667000000000001	0.0	Yes	3.075	0.001	n/a	GoodResponse	1	n/a	n/a	7	68	Fixation	Win	True
647.171	0.32	Win2	0.6667000000000001	0.004	Yes	3.075	-0.004	2.0	GoodResponse	1	0.228	646.399	7	68	Target	Win	True
647.399	0.3	Win2	0.6667000000000001	0.004	Yes	3.075	-0.004	2.0	GoodResponse	1	0.228	n/a	7	68	ButtonPress	Win	True
647.506	0.38	Win2	0.6667000000000001	n/a	Yes	3.075	n/a	n/a	GoodResponse	1	n/a	n/a	7	68	Blank	Win	True
647.874	1.45	Win2	0.6667000000000001	n/a	Yes	3.075	n/a	5.0	GoodResponse	1	0.001	646.875	7	68	Feedback	Win	True
649.328	3.075	Win2	0.6667000000000001	n/a	Yes	3.075	n/a	n/a	GoodResponse	1	0.0	n/a	7	68	ISIslide	Win	True
652.42	0.25	Win2	0.6714	0.001	Yes	3.23	0.02	n/a	GoodResponse	1	n/a	n/a	8	69	Cue	Win	True
652.671	3.95	Win2	0.6714	0.0	Yes	3.23	0.001	n/a	GoodResponse	1	n/a	n/a	8	69	Fixation	Win	True
656.616	0.31	Win2	0.6714	0.004	Yes	3.23	-0.004	2.0	GoodResponse	1	0.225	655.841	8	69	Target	Win	True
656.841	0.3	Win2	0.6714	0.004	Yes	3.23	-0.004	2.0	GoodResponse	1	0.225	n/a	8	69	ButtonPress	Win	True
656.934	0.39	Win2	0.6714	n/a	Yes	3.23	n/a	n/a	GoodResponse	1	n/a	n/a	8	69	Blank	Win	True
657.319	1.45	Win2	0.6714	n/a	Yes	3.23	n/a	5.0	GoodResponse	1	0.019	656.338	8	69	Feedback	Win	True
658.773	3.23	Win2	0.6714	n/a	Yes	3.23	n/a	n/a	GoodResponse	1	0.0	n/a	8	69	ISIslide	Win	True
662.016	0.25	Lose2	0.6761	0.0	Yes	3.034	0.016	n/a	GoodResponse	0	n/a	n/a	8	70	Cue	AvoidedLoss	True
662.267	4.05	Lose2	0.6761	0.0	Yes	3.034	0.001	n/a	GoodResponse	0	n/a	n/a	8	70	Fixation	AvoidedLoss	True
666.312	0.3	Lose2	0.6761	0.004	Yes	3.034	-0.004	2.0	GoodResponse	0	0.171	665.483	8	70	Target	AvoidedLoss	True
666.483	0.3	Lose2	0.6761	0.004	Yes	3.034	-0.004	2.0	GoodResponse	0	0.171	n/a	8	70	ButtonPress	AvoidedLoss	True
666.613	0.4	Lose2	0.6761	n/a	Yes	3.034	n/a	n/a	GoodResponse	0	n/a	n/a	8	70	Blank	AvoidedLoss	True
667.014	1.45	Lose2	0.6761	n/a	Yes	3.034	n/a	5.0	GoodResponse	0	0.031	666.045	8	70	Feedback	AvoidedLoss	True
668.469	3.034	Lose2	0.6761	n/a	Yes	3.034	n/a	n/a	GoodResponse	0	0.0	n/a	8	70	ISIslide	AvoidedLoss	True
671.528	0.25	Win2	0.6806	0.0	Yes	2.722	0.028	n/a	GoodResponse	1	n/a	n/a	9	71	Cue	Win	True
671.778	4.05	Win2	0.6806	0.001	Yes	2.722	0.0	n/a	GoodResponse	1	n/a	n/a	9	71	Fixation	Win	True
675.824	0.29	Win2	0.6806	0.004	Yes	2.722	-0.004	2.0	GoodResponse	1	0.208	675.032	9	71	Target	Win	True
676.032	0.3	Win2	0.6806	0.004	Yes	2.722	-0.004	2.0	GoodResponse	1	0.208	n/a	9	71	ButtonPress	Win	True
676.125	0.41	Win2	0.6806	n/a	Yes	2.722	n/a	n/a	GoodResponse	1	n/a	n/a	9	71	Blank	Win	True
676.526	1.45	Win2	0.6806	n/a	Yes	2.722	n/a	5.0	GoodResponse	1	0.031	675.557	9	71	Feedback	Win	True
677.98	2.722	Win2	0.6806	n/a	Yes	2.722	n/a	n/a	GoodResponse	1	0.0	n/a	9	71	ISIslide	Win	True
680.722	0.25	Win2	0.6849	0.0	Yes	2.778	0.022	n/a	GoodResponse	1	n/a	n/a	10	72	Cue	Win	True
680.973	4.1	Win2	0.6849	0.0	Yes	2.778	0.001	n/a	GoodResponse	1	n/a	n/a	10	72	Fixation	Win	True
685.068	0.28	Win2	0.6849	0.004	Yes	2.778	-0.004	2.0	GoodResponse	1	0.216	684.284	10	72	Target	Win	True
685.284	0.3	Win2	0.6849	0.004	Yes	2.778	-0.004	2.0	GoodResponse	1	0.216	n/a	10	72	ButtonPress	Win	True
685.352	0.42	Win2	0.6849	n/a	Yes	2.778	n/a	n/a	GoodResponse	1	n/a	n/a	10	72	Blank	Win	True
685.77	1.45	Win2	0.6849	n/a	Yes	2.778	n/a	5.0	GoodResponse	1	0.007	684.777	10	72	Feedback	Win	True
687.225	2.778	Win2	0.6849	n/a	Yes	2.778	n/a	n/a	GoodResponse	1	0.0	n/a	10	72	ISIslide	Win	True
690.016	0.25	Win2	0.6757	0.001	No	2.684	0.016	n/a	LatePress	0	n/a	n/a	10	73	Cue	MissedWin	True
690.267	4.0	Win2	0.6757	0.0	No	2.684	0.001	n/a	LatePress	0	n/a	n/a	10	73	Fixation	MissedWin	True
694.263	0.27	Win2	0.6757	0.003	No	2.684	-0.003	2.0	LatePress	0	0.278	693.541	10	73	Target	MissedWin	True
694.541	0.3	Win2	0.6757	0.003	No	2.684	-0.003	2.0	LatePress	0	0.278	n/a	10	73	ButtonPress	MissedWin	True
694.547	0.43	Win2	0.6757	n/a	No	2.684	n/a	n/a	LatePress	0	n/a	n/a	10	73	Blank	MissedWin	True
694.965	1.45	Win2	0.6757	n/a	No	2.684	n/a	5.0	LatePress	0	0.032	693.997	10	73	Feedback	MissedWin	True
696.419	2.684	Win2	0.6757	n/a	No	2.684	n/a	n/a	LatePress	0	0.0	n/a	10	73	ISIslide	MissedWin	True
699.127	0.25	Lose2	0.6667000000000001	0.0	No	2.623	0.027	n/a	NoResponse	-1	n/a	n/a	9	74	Cue	Loss	True
699.378	4.05	Lose2	0.6667000000000001	0.0	No	2.623	0.001	n/a	NoResponse	-1	n/a	n/a	9	74	Fixation	Loss	True
703.423	0.26	Lose2	0.6667000000000001	0.004	No	2.623	-0.004	2.0	NoResponse	-1	0.426	702.849	9	74	Target	Loss	True
703.691	0.44	Lose2	0.6667000000000001	n/a	No	2.623	n/a	n/a	NoResponse	-1	n/a	n/a	9	74	Blank	Loss	True
703.849	0.3	Lose2	0.6667000000000001	0.004	No	2.623	-0.004	2.0	NoResponse	-1	0.426	n/a	9	74	ButtonPress	Loss	True
704.125	1.45	Lose2	0.6667000000000001	n/a	No	2.623	n/a	5.0	NoResponse	-1	0.042	703.167	9	74	Feedback	Loss	True
705.58	2.623	Lose2	0.6667000000000001	n/a	No	2.623	n/a	n/a	NoResponse	-1	0.0	n/a	9	74	ISIslide	Loss	True
708.221	0.25	Lose2	0.6711	0.0	Yes	2.929	0.021	n/a	GoodResponse	0	n/a	n/a	9	75	Cue	AvoidedLoss	True
708.472	3.95	Lose2	0.6711	0.0	Yes	2.929	0.001	n/a	GoodResponse	0	n/a	n/a	9	75	Fixation	AvoidedLoss	True
712.417	0.25	Lose2	0.6711	0.004	Yes	2.929	-0.004	2.0	GoodResponse	0	0.215	711.632	9	75	Target	AvoidedLoss	True
712.632	0.3	Lose2	0.6711	0.004	Yes	2.929	-0.004	2.0	GoodResponse	0	0.215	n/a	9	75	ButtonPress	AvoidedLoss	True
712.668	0.45	Lose2	0.6711	n/a	Yes	2.929	n/a	n/a	GoodResponse	0	n/a	n/a	9	75	Blank	AvoidedLoss	True
713.119	1.45	Lose2	0.6711	n/a	Yes	2.929	n/a	5.0	GoodResponse	0	0.023	712.142	9	75	Feedback	AvoidedLoss	True
714.573	2.929	Lose2	0.6711	n/a	Yes	2.929	n/a	n/a	GoodResponse	0	0.0	n/a	9	75	ISIslide	AvoidedLoss	True
717.516	0.25	Control	0.6753	0.0	Yes	3.234	0.016	n/a	GoodResponse	0	n/a	n/a	9	76	Cue	Neutral	True
717.766	4.05	Control	0.6753	0.0	Yes	3.234	0.0	n/a	GoodResponse	0	n/a	n/a	9	76	Fixation	Neutral	True
721.812	0.24	Control	0.6753	0.004	Yes	3.234	-0.004	2.0	GoodResponse	0	0.153	720.965	9	76	Target	Neutral	True
721.965	0.3	Control	0.6753	0.004	Yes	3.234	-0.004	2.0	GoodResponse	0	0.153	n/a	9	76	ButtonPress	Neutral	True
722.063	0.46	Control	0.6753	n/a	Yes	3.234	n/a	n/a	GoodResponse	0	n/a	n/a	9	76	Blank	Neutral	True
722.514	1.45	Control	0.6753	n/a	Yes	3.234	n/a	5.0	GoodResponse	0	0.043	721.557	9	76	Feedback	Neutral	True
723.968	3.234	Control	0.6753	n/a	Yes	3.234	n/a	n/a	GoodResponse	0	0.0	n/a	9	76	ISIslide	Neutral	True
727.228	0.25	Lose2	0.6795	0.0	Yes	2.572	0.028	n/a	GoodResponse	0	n/a	n/a	9	77	Cue	AvoidedLoss	True
727.479	3.95	Lose2	0.6795	0.0	Yes	2.572	0.001	n/a	GoodResponse	0	n/a	n/a	9	77	Fixation	AvoidedLoss	True
731.424	0.23	Lose2	0.6795	0.004	Yes	2.572	-0.004	2.0	GoodResponse	0	0.203	730.627	9	77	Target	AvoidedLoss	True
731.627	0.3	Lose2	0.6795	0.004	Yes	2.572	-0.004	2.0	GoodResponse	0	0.203	n/a	9	77	ButtonPress	AvoidedLoss	True
731.658	0.47	Lose2	0.6795	n/a	Yes	2.572	n/a	n/a	GoodResponse	0	n/a	n/a	9	77	Blank	AvoidedLoss	True
732.126	1.45	Lose2	0.6795	n/a	Yes	2.572	n/a	5.0	GoodResponse	0	0.041	731.167	9	77	Feedback	AvoidedLoss	True
733.58	2.572	Lose2	0.6795	n/a	Yes	2.572	n/a	n/a	GoodResponse	0	0.0	n/a	9	77	ISIslide	AvoidedLoss	True
