onset	duration	cue_type	current_mean_accuracy	duration_error	is_hit	isi_adjusted	onset_delay	response	response_type	reward	rt	rt_time	total_reward	trial_number	trial_phase	trial_type	one_press
11.1	0.25	Control	1.0	0.0	Yes	2.95	0.0	n/a	GoodResponse	0	n/a	n/a	0	0	Cue	Neutral	True
11.351	3.85	Control	1.0	0.0	Yes	2.95	0.001	n/a	GoodResponse	0	n/a	n/a	0	0	Fixation	Neutral	True
15.196	0.4	Control	1.0	0.004	Yes	2.95	-0.004	2.0	GoodResponse	0	0.331	14.527	0	0	Target	Neutral	True
15.527	0.3	Control	1.0	0.004	Yes	2.95	-0.004	2.0	GoodResponse	0	0.331	n/a	0	0	ButtonPress	Neutral	True
15.597	0.3	Control	1.0	n/a	Yes	2.95	n/a	n/a	GoodResponse	0	n/a	n/a	0	0	Blank	Neutral	True
15.898	1.45	Control	1.0	n/a	Yes	2.95	n/a	5.0	GoodResponse	0	0.027	14.925	0	0	Feedback	Neutral	True
17.352	2.95	Control	1.0	n/a	Yes	2.95	n/a	n/a	GoodResponse	0	0.0	n/a	0	0	ISIslide	Neutral	True
20.328	0.25	Lose2	1.0	0.0	Yes	2.772	0.028	n/a	GoodResponse	0	n/a	n/a	0	1	Cue	AvoidedLoss	True
20.579	4.0	Lose2	1.0	0.0	Yes	2.772	0.001	n/a	GoodResponse	0	n/a	n/a	0	1	Fixation	AvoidedLoss	True
24.574	0.39	Lose2	1.0	0.004	Yes	2.772	-0.004	2.0	GoodResponse	0	0.221	23.795	0	1	Target	AvoidedLoss	True
24.795	0.3	Lose2	1.0	0.004	Yes	2.772	-0.004	2.0	GoodResponse	0	0.221	n/a	0	1	ButtonPress	AvoidedLoss	True
24.975	0.31	Lose2	1.0	n/a	Yes	2.772	n/a	n/a	GoodResponse	0	n/a	n/a	0	1	Blank	AvoidedLoss	True
25.276	1.45	Lose2	1.0	n/a	Yes	2.772	n/a	5.0	GoodResponse	0	0.015	24.291	0	1	Feedback	AvoidedLoss	True
26.73	2.772	Lose2	1.0	n/a	Yes	2.772	n/a	n/a	GoodResponse	0	0.0	n/a	0	1	ISIslide	AvoidedLoss	True
29.522	0.25	Control	1.0	0.0	Yes	2.578	0.022	n/a	GoodResponse	0	n/a	n/a	0	2	Cue	Neutral	True
29.773	4.1	Control	1.0	0.0	Yes	2.578	0.001	n/a	GoodResponse	0	n/a	n/a	0	2	Fixation	Neutral	True
33.868	0.38	Control	1.0	0.004	Yes	2.578	-0.004	2.0	GoodResponse	0	0.272	33.14	0	2	Target	Neutral	True
34.14	0.3	Control	1.0	0.004	Yes	2.578	-0.004	2.0	GoodResponse	0	0.272	n/a	0	2	ButtonPress	Neutral	True
34.253	0.32	Control	1.0	n/a	Yes	2.578	n/a	n/a	GoodResponse	0	n/a	n/a	0	2	Blank	Neutral	True
34.571	1.45	Control	1.0	n/a	Yes	2.578	n/a	5.0	GoodResponse	0	0.038	33.609	0	2	Feedback	Neutral	True
36.025	2.578	Control	1.0	n/a	Yes	2.578	n/a	n/a	GoodResponse	0	0.0	n/a	0	2	ISIslide	Neutral	True
38.616	0.25	Win2	1.0	0.0	Yes	2.834	0.016	n/a	GoodResponse	1	n/a	n/a	1	3	Cue	Win	True
38.867	3.95	Win2	1.0	0.0	Yes	2.834	0.001	n/a	GoodResponse	1	n/a	n/a	1	3	Fixation	Win	True
42.812	0.37	Win2	1.0	0.004	Yes	2.834	-0.004	2.0	GoodResponse	1	0.296	42.108	1	3	Target	Win	True
43.108	0.3	Win2	1.0	0.004	Yes	2.834	-0.004	2.0	GoodResponse	1	0.296	n/a	1	3	ButtonPress	Win	True
43.196	0.33	Win2	1.0	n/a	Yes	2.834	n/a	n/a	GoodResponse	1	n/a	n/a	1	3	Blank	Win	True
43.514	1.45	Win2	1.0	n/a	Yes	2.834	n/a	5.0	GoodResponse	1	0.022	42.536	1	3	Feedback	Win	True
44.968	2.834	Win2	1.0	n/a	Yes	2.834	n/a	n/a	GoodResponse	1	0.0	n/a	1	3	ISIslide	Win	True
47.827	0.25	Win2	1.0	0.0	Yes	3.273	0.027	n/a	GoodResponse	1	n/a	n/a	2	4	Cue	Win	True
48.078	4.0	Win2	1.0	0.0	Yes	3.273	0.001	n/a	GoodResponse	1	n/a	n/a	2	4	Fixation	Win	True
52.073	0.36	Win2	1.0	0.004	Yes	3.273	-0.004	2.0	GoodResponse	1	0.245	51.318	2	4	Target	Win	True
52.318	0.3	Win2	1.0	0.004	Yes	3.273	-0.004	2.0	GoodResponse	1	0.245	n/a	2	4	ButtonPress	Win	True
52.441	0.34	Win2	1.0	n/a	Yes	3.273	n/a	n/a	GoodResponse	1	n/a	n/a	2	4	Blank	Win	True
52.775	1.45	Win2	1.0	n/a	Yes	3.273	n/a	5.0	GoodResponse	1	0.028	51.803	2	4	Feedback	Win	True
54.229	3.273	Win2	1.0	n/a	Yes	3.273	n/a	n/a	GoodResponse	1	0.0	n/a	2	4	ISIslide	Win	True
57.523	0.25	Win2	1.0	0.0	Yes	2.777	0.023	n/a	GoodResponse	1	n/a	n/a	3	5	Cue	Win	True
57.773	4.0	Win2	1.0	0.0	Yes	2.777	0.0	n/a	GoodResponse	1	n/a	n/a	3	5	Fixation	Win	True
61.769	0.35	Win2	1.0	0.004	Yes	2.777	-0.004	2.0	GoodResponse	1	0.216	60.985	3	5	Target	Win	True
61.985	0.3	Win2	1.0	0.004	Yes	2.777	-0.004	2.0	GoodResponse	1	0.216	n/a	3	5	ButtonPress	Win	True
62.12	0.35	Win2	1.0	n/a	Yes	2.777	n/a	n/a	GoodResponse	1	n/a	n/a	3	5	Blank	Win	True
62.471	1.45	Win2	1.0	n/a	Yes	2.777	n/a	5.0	GoodResponse	1	0.039	61.51	3	5	Feedback	Win	True
63.925	2.777	Win2	1.0	n/a	Yes	2.777	n/a	n/a	GoodResponse	1	0.0	n/a	3	5	ISIslide	Win	True
66.717	0.25	Lose2	1.0	0.0	Yes	2.733	0.017	n/a	GoodResponse	0	n/a	n/a	3	6	Cue	AvoidedLoss	True
66.967	3.95	Lose2	1.0	0.0	Yes	2.733	0.0	n/a	GoodResponse	0	n/a	n/a	3	6	Fixation	AvoidedLoss	True
70.913	0.34	Lose2	1.0	0.004	Yes	2.733	-0.004	2.0	GoodResponse	0	0.251	70.164	3	6	Target	AvoidedLoss	True
71.164	0.3	Lose2	1.0	0.004	Yes	2.733	-0.004	2.0	GoodResponse	0	0.251	n/a	3	6	ButtonPress	AvoidedLoss	True
71.264	0.36	Lose2	1.0	n/a	Yes	2.733	n/a	n/a	GoodResponse	0	n/a	n/a	3	6	Blank	AvoidedLoss	True
71.615	1.45	Lose2	1.0	n/a	Yes	2.733	n/a	5.0	GoodResponse	0	0.017	70.632	3	6	Feedback	AvoidedLoss	True
73.069	2.733	Lose2	1.0	n/a	Yes	2.733	n/a	n/a	GoodResponse	0	0.0	n/a	3	6	ISIslide	AvoidedLoss	True
75.827	0.25	Lose2	0.875	0.0	No	4.023	0.027	n/a	NoResponse	-1	n/a	n/a	2	7	Cue	Loss	True
76.078	4.05	Lose2	0.875	0.0	No	4.023	0.001	n/a	NoResponse	-1	n/a	n/a	2	7	Fixation	Loss	True
80.123	0.33	Lose2	0.875	0.004	No	4.023	-0.004	2.0	NoResponse	-1	0.371	79.494	2	7	Target	Loss	True
80.458	0.37	Lose2	0.875	n/a	No	4.023	n/a	n/a	NoResponse	-1	n/a	n/a	2	7	Blank	Loss	True
80.494	0.3	Lose2	0.875	0.004	No	4.023	-0.004	2.0	NoResponse	-1	0.371	n/a	2	7	ButtonPress	Loss	True
80.826	1.45	Lose2	0.875	n/a	No	4.023	n/a	5.0	NoResponse	-1	0.026	79.852	2	7	Feedback	Loss	True
82.28	4.023	Lose2	0.875	n/a	No	4.023	n/a	n/a	NoResponse	-1	0.0	n/a	2	7	ISIslide	Loss	True
86.325	0.25	Lose2	0.8889	0.0	Yes	3.025	0.025	n/a	GoodResponse	0	n/a	n/a	2	8	Cue	AvoidedLoss	True
86.576	3.95	Lose2	0.8889	0.0	Yes	3.025	0.001	n/a	GoodResponse	0	n/a	n/a	2	8	Fixation	AvoidedLoss	True
90.521	0.32	Lose2	0.8889	0.004	Yes	3.025	-0.004	2.0	GoodResponse	0	0.257	89.778	2	8	Target	AvoidedLoss	True
90.778	0.3	Lose2	0.8889	0.004	Yes	3.025	-0.004	2.0	GoodResponse	0	0.257	n/a	2	8	ButtonPress	AvoidedLoss	True
90.856	0.38	Lose2	0.8889	n/a	Yes	3.025	n/a	n/a	GoodResponse	0	n/a	n/a	2	8	Blank	AvoidedLoss	True
91.223	1.45	Lose2	0.8889	n/a	Yes	3.025	n/a	5.0	GoodResponse	0	0.018	90.241	2	8	Feedback	AvoidedLoss	True
92.678	3.025	Lose2	0.8889	n/a	Yes	3.025	n/a	n/a	GoodResponse	0	0.0	n/a	2	8	ISIslide	AvoidedLoss	True
95.72	0.25	Lose2	0.9	0.0	Yes	3.13	0.02	n/a	GoodResponse	0	n/a	n/a	2	9	Cue	AvoidedLoss	True
95.971	3.95	Lose2	0.9	0.0	Yes	3.13	0.001	n/a	GoodResponse	0	n/a	n/a	2	9	Fixation	AvoidedLoss	True
99.916	0.31	Lose2	0.9	0.004	Yes	3.13	-0.004	2.0	GoodResponse	0	0.277	99.193	2	9	Target	AvoidedLoss	True
100.193	0.3	Lose2	0.9	0.004	Yes	3.13	-0.004	2.0	GoodResponse	0	0.277	n/a	2	9	ButtonPress	AvoidedLoss	True
100.234	0.39	Lose2	0.9	n/a	Yes	3.13	n/a	n/a	GoodResponse	0	n/a	n/a	2	9	Blank	AvoidedLoss	True
100.618	1.45	Lose2	0.9	n/a	Yes	3.13	n/a	5.0	GoodResponse	0	0.038	99.656	2	9	Feedback	AvoidedLoss	True
102.072	3.13	Lose2	0.9	n/a	Yes	3.13	n/a	n/a	GoodResponse	0	0.0	n/a	2	9	ISIslide	AvoidedLoss	True
105.215	0.25	Control	0.9091	0.0	Yes	3.285	0.015	n/a	GoodResponse	0	n/a	n/a	2	10	Cue	Neutral	True
105.466	4.0	Control	0.9091	0.0	Yes	3.285	0.001	n/a	GoodResponse	0	n/a	n/a	2	10	Fixation	Neutral	True
109.461	0.3	Control	0.9091	0.004	Yes	3.285	-0.004	2.0	GoodResponse	0	0.2	108.661	2	10	Target	Neutral	True
109.661	0.3	Control	0.9091	0.004	Yes	3.285	-0.004	2.0	GoodResponse	0	0.2	n/a	2	10	ButtonPress	Neutral	True
109.762	0.4	Control	0.9091	n/a	Yes	3.285	n/a	n/a	GoodResponse	0	n/a	n/a	2	10	Blank	Neutral	True
110.163	1.45	Control	0.9091	n/a	Yes	3.285	n/a	5.0	GoodResponse	0	0.008	109.171	2	10	Feedback	Neutral	True
111.618	3.285	Control	0.9091	n/a	Yes	3.285	n/a	n/a	GoodResponse	0	0.0	n/a	2	10	ISIslide	Neutral	True
114.927	0.25	Lose2	0.8332999999999999	0.001	No	2.723	0.027	n/a	NoResponse	-1	n/a	n/a	1	11	Cue	Loss	True
115.178	4.05	Lose2	0.8332999999999999	0.0	No	2.723	0.001	n/a	NoResponse	-1	n/a	n/a	1	11	Fixation	Loss	True
119.224	0.29	Lose2	0.8332999999999999	0.003	No	2.723	-0.003	2.0	NoResponse	-1	0.344	118.568	1	11	Target	Loss	True
119.525	0.41	Lose2	0.8332999999999999	n/a	No	2.723	n/a	n/a	NoResponse	-1	n/a	n/a	1	11	Blank	Loss	True
119.568	0.3	Lose2	0.8332999999999999	0.003	No	2.723	-0.003	2.0	NoResponse	-1	0.344	n/a	1	11	ButtonPress	Loss	True
119.926	1.45	Lose2	0.8332999999999999	n/a	No	2.723	n/a	5.0	NoResponse	-1	0.047	118.973	1	11	Feedback	Loss	True
121.38	2.723	Lose2	0.8332999999999999	n/a	No	2.723	n/a	n/a	NoResponse	-1	0.0	n/a	1	11	ISIslide	Loss	True
124.122	0.25	Control	0.8462000000000001	0.0	Yes	2.978	0.022	n/a	GoodResponse	0	n/a	n/a	1	12	Cue	Neutral	True
124.372	3.9	Control	0.8462000000000001	0.0	Yes	2.978	0.0	n/a	GoodResponse	0	n/a	n/a	1	12	Fixation	Neutral	True
128.284	0.28	Control	0.8462000000000001	0.0	Yes	2.978	0.012	2.0	GoodResponse	0	0.247	127.531	1	12	Target	Neutral	True
128.531	0.3	Control	0.8462000000000001	0.0	Yes	2.978	0.012	2.0	GoodResponse	0	0.247	n/a	1	12	ButtonPress	Neutral	True
128.552	0.42	Control	0.8462000000000001	n/a	Yes	2.978	n/a	n/a	GoodResponse	0	n/a	n/a	1	12	Blank	Neutral	True
128.969	1.45	Control	0.8462000000000001	n/a	Yes	2.978	n/a	5.0	GoodResponse	0	0.029	127.998	1	12	Feedback	Neutral	True
130.424	2.978	Control	0.8462000000000001	n/a	Yes	2.978	n/a	n/a	GoodResponse	0	0.0	n/a	1	12	ISIslide	Neutral	True
133.416	0.25	Control	0.8571	0.0	Yes	2.784	0.016	n/a	GoodResponse	0	n/a	n/a	1	13	Cue	Neutral	True
133.667	4.0	Control	0.8571	0.0	Yes	2.784	0.001	n/a	GoodResponse	0	n/a	n/a	1	13	Fixation	Neutral	True
137.662	0.27	Control	0.8571	0.004	Yes	2.784	-0.004	2.0	GoodResponse	0	0.201	136.863	1	13	Target	Neutral	True
137.863	0.3	Control	0.8571	0.004	Yes	2.784	-0.004	2.0	GoodResponse	0	0.201	n/a	1	13	ButtonPress	Neutral	True
137.946	0.43	Control	0.8571	n/a	Yes	2.784	n/a	n/a	GoodResponse	0	n/a	n/a	1	13	Blank	Neutral	True
138.364	1.45	Control	0.8571	n/a	Yes	2.784	n/a	5.0	GoodResponse	0	0.048	137.412	1	13	Feedback	Neutral	True
139.819	2.784	Control	0.8571	n/a	Yes	2.784	n/a	n/a	GoodResponse	0	0.0	n/a	1	13	ISIslide	Neutral	True
142.627	0.25	Win2	0.8667	0.0	Yes	2.673	0.027	n/a	GoodResponse	1	n/a	n/a	2	14	Cue	Win	True
142.878	4.1	Win2	0.8667	0.0	Yes	2.673	0.001	n/a	GoodResponse	1	n/a	n/a	2	14	Fixation	Win	True
146.973	0.26	Win2	0.8667	0.004	Yes	2.673	-0.004	2.0	GoodResponse	1	0.207	146.18	2	14	Target	Win	True
147.18	0.3	Win2	0.8667	0.004	Yes	2.673	-0.004	2.0	GoodResponse	1	0.207	n/a	2	14	ButtonPress	Win	True
147.241	0.44	Win2	0.8667	n/a	Yes	2.673	n/a	n/a	GoodResponse	1	n/a	n/a	2	14	Blank	Win	True
147.675	1.45	Win2	0.8667	n/a	Yes	2.673	n/a	5.0	GoodResponse	1	0.008	146.683	2	14	Feedback	Win	True
149.13	2.673	Win2	0.8667	n/a	Yes	2.673	n/a	n/a	GoodResponse	1	0.0	n/a	2	14	ISIslide	Win	True
151.821	0.25	Control	0.8125	0.0	No	2.979	0.021	n/a	NoResponse	0	n/a	n/a	2	15	Cue	Neutral	True
152.072	4.0	Control	0.8125	0.0	No	2.979	0.001	2.0	NoResponse	0	3.58	154.652	2	15	Fixation	Neutral	True
155.652	0.3	Control	0.8125	0.0	No	2.979	0.001	2.0	NoResponse	0	3.58	n/a	2	15	ButtonPress	Neutral	True
156.067	0.25	Control	0.8125	0.004	No	2.979	-0.004	n/a	NoResponse	0	n/a	n/a	2	15	Target	Neutral	True
156.318	0.45	Control	0.8125	n/a	No	2.979	n/a	n/a	NoResponse	0	n/a	n/a	2	15	Blank	Neutral	True
156.769	1.45	Control	0.8125	n/a	No	2.979	n/a	5.0	NoResponse	0	0.033	155.802	2	15	Feedback	Neutral	True
158.224	2.979	Control	0.8125	n/a	No	2.979	n/a	n/a	NoResponse	0	0.0	n/a	2	15	ISIslide	Neutral	True
161.216	0.25	Win2	0.7646999999999999	0.0	No	2.884	0.016	n/a	NoResponse	0	n/a	n/a	2	16	Cue	MissedWin	True
161.467	4.0	Win2	0.7646999999999999	0.0	No	2.884	0.001	n/a	NoResponse	0	n/a	n/a	2	16	Fixation	MissedWin	True
165.462	0.24	Win2	0.7646999999999999	0.004	No	2.884	-0.004	2.0	NoResponse	0	0.311	164.773	2	16	Target	MissedWin	True
165.713	0.46	Win2	0.7646999999999999	n/a	No	2.884	n/a	n/a	NoResponse	0	n/a	n/a	2	16	Blank	MissedWin	True
165.773	0.3	Win2	0.7646999999999999	0.004	No	2.884	-0.004	2.0	NoResponse	0	0.311	n/a	2	16	ButtonPress	MissedWin	True
166.164	1.45	Win2	0.7646999999999999	n/a	No	2.884	n/a	5.0	NoResponse	0	0.007	165.171	2	16	Feedback	MissedWin	True
167.618	2.884	Win2	0.7646999999999999	n/a	No	2.884	n/a	n/a	NoResponse	0	0.0	n/a	2	16	ISIslide	MissedWin	True
170.527	0.25	Lose2	0.7222	0.0	No	2.723	0.027	n/a	NoResponse	-1	n/a	n/a	1	17	Cue	Loss	True
170.778	3.95	Lose2	0.7222	0.0	No	2.723	0.001	n/a	NoResponse	-1	n/a	n/a	1	17	Fixation	Loss	True
174.723	0.23	Lose2	0.7222	0.004	No	2.723	-0.004	2.0	NoResponse	-1	0.34	174.063	1	17	Target	Loss	True
174.957	0.47	Lose2	0.7222	n/a	No	2.723	n/a	n/a	NoResponse	-1	n/a	n/a	1	17	Blank	Loss	True
175.063	0.3	Lose2	0.7222	0.004	No	2.723	-0.004	2.0	NoResponse	-1	0.34	n/a	1	17	ButtonPress	Loss	True
175.425	1.45	Lose2	0.7222	n/a	No	2.723	n/a	5.0	NoResponse	-1	0.011	174.436	1	17	Feedback	Loss	True
176.879	2.723	Lose2	0.7222	n/a	No	2.723	n/a	n/a	NoResponse	-1	0.0	n/a	1	17	ISIslide	Loss	True
179.621	0.25	Lose2	0.7368000000000001	0.0	Yes	2.729	0.021	n/a	GoodResponse	0	n/a	n/a	1	18	Cue	AvoidedLoss	True
179.872	4.05	Lose2	0.7368000000000001	0.0	Yes	2.729	0.001	n/a	GoodResponse	0	n/a	n/a	1	18	Fixation	AvoidedLoss	True
183.917	0.22	Lose2	0.7368000000000001	0.004	Yes	2.729	-0.004	2.0	GoodResponse	0	0.219	183.136	1	18	Target	AvoidedLoss	True
184.136	0.3	Lose2	0.7368000000000001	0.004	Yes	2.729	-0.004	2.0	GoodResponse	0	0.219	n/a	1	18	ButtonPress	AvoidedLoss	True
184.151	0.48	Lose2	0.7368000000000001	n/a	Yes	2.729	n/a	n/a	GoodResponse	0	n/a	n/a	1	18	Blank	AvoidedLoss	True
184.619	1.45	Lose2	0.7368000000000001	n/a	Yes	2.729	n/a	5.0	GoodResponse	0	0.036	183.655	1	18	Feedback	AvoidedLoss	True
186.074	2.729	Lose2	0.7368000000000001	n/a	Yes	2.729	n/a	n/a	GoodResponse	0	0.0	n/a	1	18	ISIslide	AvoidedLoss	True
188.815	0.25	Control	0.7	0.0	No	2.935	0.015	n/a	NoResponse	0	n/a	n/a	1	19	Cue	Neutral	True
189.066	3.95	Control	0.7	0.0	No	2.935	0.001	n/a	NoResponse	0	n/a	n/a	1	19	Fixation	Neutral	True
193.011	0.21	Control	0.7	0.004	No	2.935	-0.004	2.0	NoResponse	0	0.284	192.295	1	19	Target	Neutral	True
193.228	0.49	Control	0.7	n/a	No	2.935	n/a	n/a	NoResponse	0	n/a	n/a	1	19	Blank	Neutral	True
193.295	0.3	Control	0.7	0.004	No	2.935	-0.004	2.0	NoResponse	0	0.284	n/a	1	19	ButtonPress	Neutral	True
193.713	1.45	Control	0.7	n/a	No	2.935	n/a	5.0	NoResponse	0	0.015	192.728	1	19	Feedback	Neutral	True
195.167	2.935	Control	0.7	n/a	No	2.935	n/a	n/a	NoResponse	0	0.0	n/a	1	19	ISIslide	Neutral	True
198.126	0.25	Control	0.6667000000000001	0.0	No	2.624	0.026	n/a	NoResponse	0	n/a	n/a	1	20	Cue	Neutral	True
198.377	4.05	Control	0.6667000000000001	0.0	No	2.624	0.001	n/a	NoResponse	0	n/a	n/a	1	20	Fixation	Neutral	True
202.422	0.2	Control	0.6667000000000001	0.004	No	2.624	-0.004	2.0	NoResponse	0	0.319	201.741	1	20	Target	Neutral	True
202.623	0.5	Control	0.6667000000000001	n/a	No	2.624	n/a	n/a	NoResponse	0	n/a	n/a	1	20	Blank	Neutral	True
202.741	0.3	Control	0.6667000000000001	0.004	No	2.624	-0.004	2.0	NoResponse	0	0.319	n/a	1	20	ButtonPress	Neutral	True
203.125	1.45	Control	0.6667000000000001	n/a	No	2.624	n/a	5.0	NoResponse	0	0.018	202.143	1	20	Feedback	Neutral	True
204.579	2.624	Control	0.6667000000000001	n/a	No	2.624	n/a	n/a	NoResponse	0	0.0	n/a	1	20	ISIslide	Neutral	True
207.22	0.25	Control	0.6364	0.0	No	2.78	0.02	n/a	NoResponse	0	n/a	n/a	1	21	Cue	Neutral	True
207.471	4.1	Control	0.6364	0.0	No	2.78	0.001	n/a	NoResponse	0	n/a	n/a	1	21	Fixation	Neutral	True
211.566	0.19	Control	0.6364	0.004	No	2.78	-0.004	2.0	NoResponse	0	0.327	210.893	1	21	Target	Neutral	True
211.767	0.51	Control	0.6364	n/a	No	2.78	n/a	n/a	NoResponse	0	n/a	n/a	1	21	Blank	Neutral	True
211.893	0.3	Control	0.6364	0.004	No	2.78	-0.004	2.0	NoResponse	0	0.327	n/a	1	21	ButtonPress	Neutral	True
212.269	1.45	Control	0.6364	n/a	No	2.78	n/a	5.0	NoResponse	0	0.045	211.314	1	21	Feedback	Neutral	True
213.723	2.78	Control	0.6364	n/a	No	2.78	n/a	n/a	NoResponse	0	0.0	n/a	1	21	ISIslide	Neutral	True
216.515	0.25	Control	0.6522	0.0	Yes	2.785	0.015	n/a	GoodResponse	0	n/a	n/a	1	22	Cue	Neutral	True
216.765	4.0	Control	0.6522	0.0	Yes	2.785	0.0	n/a	GoodResponse	0	n/a	n/a	1	22	Fixation	Neutral	True
220.761	0.2	Control	0.6522	0.004	Yes	2.785	-0.004	2.0	GoodResponse	0	0.185	219.946	1	22	Target	Neutral	True
220.946	0.3	Control	0.6522	0.004	Yes	2.785	-0.004	2.0	GoodResponse	0	0.185	n/a	1	22	ButtonPress	Neutral	True
220.961	0.5	Control	0.6522	n/a	Yes	2.785	n/a	n/a	GoodResponse	0	n/a	n/a	1	22	Blank	Neutral	True
221.463	1.45	Control	0.6522	n/a	Yes	2.785	n/a	5.0	GoodResponse	0	0.021	220.484	1	22	Feedback	Neutral	True
222.917	2.785	Control	0.6522	n/a	Yes	2.785	n/a	n/a	GoodResponse	0	0.0	n/a	1	22	ISIslide	Neutral	True
225.725	0.25	Control	0.625	0.001	No	2.775	0.025	n/a	NoResponse	0	n/a	n/a	1	23	Cue	Neutral	True
225.976	3.9	Control	0.625	0.0	No	2.775	0.001	n/a	NoResponse	0	n/a	n/a	1	23	Fixation	Neutral	True
229.871	0.21	Control	0.625	0.004	No	2.775	-0.004	2.0	NoResponse	0	0.249	229.12	1	23	Target	Neutral	True
230.088	0.49	Control	0.625	n/a	No	2.775	n/a	n/a	NoResponse	0	n/a	n/a	1	23	Blank	Neutral	True
230.12	0.3	Control	0.625	0.004	No	2.775	-0.004	2.0	NoResponse	0	0.249	n/a	1	23	ButtonPress	Neutral	True
230.573	1.45	Control	0.625	n/a	No	2.775	n/a	5.0	NoResponse	0	0.033	229.606	1	23	Feedback	Neutral	True
232.028	2.775	Control	0.625	n/a	No	2.775	n/a	n/a	NoResponse	0	0.0	n/a	1	23	ISIslide	Neutral	True
234.819	0.25	Win2	0.64	0.0	Yes	3.131	0.019	n/a	GoodResponse	1	n/a	n/a	2	24	Cue	Win	True
235.07	3.95	Win2	0.64	0.0	Yes	3.131	0.001	n/a	GoodResponse	1	n/a	n/a	2	24	Fixation	Win	True
239.015	0.22	Win2	0.64	0.004	Yes	3.131	-0.004	2.0	GoodResponse	1	0.203	238.218	2	24	Target	Win	True
239.218	0.3	Win2	0.64	0.004	Yes	3.131	-0.004	2.0	GoodResponse	1	0.203	n/a	2	24	ButtonPress	Win	True
239.249	0.48	Win2	0.64	n/a	Yes	3.131	n/a	n/a	GoodResponse	1	n/a	n/a	2	24	Blank	Win	True
239.717	1.45	Win2	0.64	n/a	Yes	3.131	n/a	5.0	GoodResponse	1	0.011	238.728	2	24	Feedback	Win	True
241.172	3.131	Win2	0.64	n/a	Yes	3.131	n/a	n/a	GoodResponse	1	0.0	n/a	2	24	ISIslide	Win	True
244.314	0.25	Win2	0.6154	0.0	No	3.086	0.014	n/a	NoResponse	0	n/a	n/a	2	25	Cue	MissedWin	False
244.565	4.0	Win2	0.6154	0.0	No	3.086	0.001	2.0	NoResponse	0	0.433	243.998	2	25	Fixation	MissedWin	False
244.998	0.3	Win2	0.6154	0.0	No	3.086	0.001	2.0	NoResponse	0	0.433	n/a	2	25	ButtonPress	MissedWin	False
248.56	0.23	Win2	0.6154	0.004	No	3.086	-0.004	2.0	NoResponse	0	0.325	247.885	2	25	Target	MissedWin	False
248.794	0.47	Win2	0.6154	n/a	No	3.086	n/a	n/a	NoResponse	0	n/a	n/a	2	25	Blank	MissedWin	False
248.885	0.3	Win2	0.6154	0.004	No	3.086	-0.004	2.0	NoResponse	0	0.325	n/a	2	25	ButtonPress	MissedWin	False
249.262	1.45	Win2	0.6154	n/a	No	3.086	n/a	5.0	NoResponse	0	0.027	248.289	2	25	Feedback	MissedWin	False
250.717	3.086	Win2	0.6154	n/a	No	3.086	n/a	n/a	NoResponse	0	0.0	n/a	2	25	ISIslide	MissedWin	False
253.826	0.25	Win2	0.5926	0.0	No	2.924	0.026	n/a	NoResponse	0	n/a	n/a	2	26	Cue	MissedWin	True
254.077	3.95	Win2	0.5926	0.0	No	2.924	0.001	n/a	NoResponse	0	n/a	n/a	2	26	Fixation	MissedWin	True
258.022	0.24	Win2	0.5926	0.004	No	2.924	-0.004	2.0	NoResponse	0	0.257	257.279	2	26	Target	MissedWin	True
258.273	0.46	Win2	0.5926	n/a	No	2.924	n/a	n/a	NoResponse	0	n/a	n/a	2	26	Blank	MissedWin	True
258.279	0.3	Win2	0.5926	0.004	No	2.924	-0.004	2.0	NoResponse	0	0.257	n/a	2	26	ButtonPress	MissedWin	True
258.724	1.45	Win2	0.5926	n/a	No	2.924	n/a	5.0	NoResponse	0	0.028	257.752	2	26	Feedback	MissedWin	True
260.178	2.924	Win2	0.5926	n/a	No	2.924	n/a	n/a	NoResponse	0	0.0	n/a	2	26	ISIslide	MissedWin	True
263.121	0.25	Lose2	0.6071	0.0	Yes	2.829	0.021	n/a	GoodResponse	0	n/a	n/a	2	27	Cue	AvoidedLoss	True
263.371	4.05	Lose2	0.6071	0.0	Yes	2.829	0.0	n/a	GoodResponse	0	n/a	n/a	2	27	Fixation	AvoidedLoss	True
267.417	0.25	Lose2	0.6071	0.004	Yes	2.829	-0.004	2.0	GoodResponse	0	0.231	266.648	2	27	Target	AvoidedLoss	True
267.648	0.3	Lose2	0.6071	0.004	Yes	2.829	-0.004	2.0	GoodResponse	0	0.231	n/a	2	27	ButtonPress	AvoidedLoss	True
267.667	0.45	Lose2	0.6071	n/a	Yes	2.829	n/a	n/a	GoodResponse	0	n/a	n/a	2	27	Blank	AvoidedLoss	True
268.119	1.45	Lose2	0.6071	n/a	Yes	2.829	n/a	5.0	GoodResponse	0	0.047	267.166	2	27	Feedback	AvoidedLoss	True
269.573	2.829	Lose2	0.6071	n/a	Yes	2.829	n/a	n/a	GoodResponse	0	0.0	n/a	2	27	ISIslide	AvoidedLoss	True
272.415	0.25	Control	0.6207	0.0	Yes	2.835	0.015	n/a	GoodResponse	0	n/a	n/a	2	28	Cue	Neutral	True
272.666	4.05	Control	0.6207	0.0	Yes	2.835	0.001	n/a	GoodResponse	0	n/a	n/a	2	28	Fixation	Neutral	True
276.711	0.26	Control	0.6207	0.004	Yes	2.835	-0.004	2.0	GoodResponse	0	0.217	275.928	2	28	Target	Neutral	True
276.928	0.3	Control	0.6207	0.004	Yes	2.835	-0.004	2.0	GoodResponse	0	0.217	n/a	2	28	ButtonPress	Neutral	True
276.979	0.44	Control	0.6207	n/a	Yes	2.835	n/a	n/a	GoodResponse	0	n/a	n/a	2	28	Blank	Neutral	True
277.413	1.45	Control	0.6207	n/a	Yes	2.835	n/a	5.0	GoodResponse	0	0.021	276.434	2	28	Feedback	Neutral	True
278.868	2.835	Control	0.6207	n/a	Yes	2.835	n/a	n/a	GoodResponse	0	0.0	n/a	2	28	ISIslide	Neutral	True
281.726	0.25	Lose2	0.6	0.0	No	2.824	0.026	n/a	NoResponse	-1	n/a	n/a	1	29	Cue	Loss	False
281.977	3.95	Lose2	0.6	0.0	No	2.824	0.001	n/a	NoResponse	-1	n/a	n/a	1	29	Fixation	Loss	False
285.922	0.27	Lose2	0.6	0.004	No	2.824	-0.004	n/a	NoResponse	-1	n/a	n/a	1	29	Target	Loss	False
286.206	0.43	Lose2	0.6	n/a	No	2.824	n/a	n/a	NoResponse	-1	n/a	n/a	1	29	Blank	Loss	False
286.624	1.45	Lose2	0.6	n/a	No	2.824	n/a	5.0	NoResponse	-1	0.03	285.654	1	29	Feedback	Loss	False
288.079	2.824	Lose2	0.6	n/a	No	2.824	n/a	n/a	NoResponse	-1	0.0	n/a	1	29	ISIslide	Loss	False
290.92	0.25	Win2	0.5806	0.0	No	2.78	0.02	n/a	NoResponse	0	n/a	n/a	1	30	Cue	MissedWin	True
291.171	3.9	Win2	0.5806	0.0	No	2.78	0.001	n/a	NoResponse	0	n/a	n/a	1	30	Fixation	MissedWin	True
295.066	0.28	Win2	0.5806	0.004	No	2.78	-0.004	2.0	NoResponse	0	0.335	294.401	1	30	Target	MissedWin	True
295.35	0.42	Win2	0.5806	n/a	No	2.78	n/a	n/a	NoResponse	0	n/a	n/a	1	30	Blank	MissedWin	True
295.401	0.3	Win2	0.5806	0.004	No	2.78	-0.004	2.0	NoResponse	0	0.335	n/a	1	30	ButtonPress	MissedWin	True
295.768	1.45	Win2	0.5806	n/a	No	2.78	n/a	5.0	NoResponse	0	0.008	294.776	1	30	Feedback	MissedWin	True
297.223	2.78	Win2	0.5806	n/a	No	2.78	n/a	n/a	NoResponse	0	0.0	n/a	1	30	ISIslide	MissedWin	True
300.014	0.25	Lose2	0.5938	0.0	Yes	2.836	0.014	n/a	GoodResponse	0	n/a	n/a	1	31	Cue	AvoidedLoss	True
300.265	4.05	Lose2	0.5938	0.0	Yes	2.836	0.001	n/a	GoodResponse	0	n/a	n/a	1	31	Fixation	AvoidedLoss	True
304.31	0.29	Lose2	0.5938	0.004	Yes	2.836	-0.004	2.0	GoodResponse	0	0.242	303.552	1	31	Target	AvoidedLoss	True
304.552	0.3	Lose2	0.5938	0.004	Yes	2.836	-0.004	2.0	GoodResponse	0	0.242	n/a	1	31	ButtonPress	AvoidedLoss	True
304.611	0.41	Lose2	0.5938	n/a	Yes	2.836	n/a	n/a	GoodResponse	0	n/a	n/a	1	31	Blank	AvoidedLoss	True
305.012	1.45	Lose2	0.5938	n/a	Yes	2.836	n/a	5.0	GoodResponse	0	0.031	304.043	1	31	Feedback	AvoidedLoss	True
306.467	2.836	Lose2	0.5938	n/a	Yes	2.836	n/a	n/a	GoodResponse	0	0.0	n/a	1	31	ISIslide	AvoidedLoss	True
309.325	0.25	Lose2	0.6061	0.0	Yes	2.625	0.025	n/a	GoodResponse	0	n/a	n/a	1	32	Cue	AvoidedLoss	True
309.576	4.15	Lose2	0.6061	0.0	Yes	2.625	0.001	n/a	GoodResponse	0	n/a	n/a	1	32	Fixation	AvoidedLoss	True
313.722	0.3	Lose2	0.6061	0.003	Yes	2.625	-0.003	2.0	GoodResponse	0	0.258	312.98	1	32	Target	AvoidedLoss	True
313.98	0.3	Lose2	0.6061	0.003	Yes	2.625	-0.003	2.0	GoodResponse	0	0.258	n/a	1	32	ButtonPress	AvoidedLoss	True
314.023	0.4	Lose2	0.6061	n/a	Yes	2.625	n/a	n/a	GoodResponse	0	n/a	n/a	1	32	Blank	AvoidedLoss	True
314.424	1.45	Lose2	0.6061	n/a	Yes	2.625	n/a	5.0	GoodResponse	0	0.034	313.458	1	32	Feedback	AvoidedLoss	True
315.878	2.625	Lose2	0.6061	n/a	Yes	2.625	n/a	n/a	GoodResponse	0	0.0	n/a	1	32	ISIslide	AvoidedLoss	True
318.52	0.25	Win2	0.6175999999999999	0.0	Yes	2.68	0.02	n/a	GoodResponse	1	n/a	n/a	2	33	Cue	Win	True
318.77	4.0	Win2	0.6175999999999999	0.0	Yes	2.68	0.0	n/a	GoodResponse	1	n/a	n/a	2	33	Fixation	Win	True
322.766	0.31	Win2	0.6175999999999999	0.004	Yes	2.68	-0.004	2.0	GoodResponse	1	0.202	321.968	2	33	Target	Win	True
322.968	0.3	Win2	0.6175999999999999	0.004	Yes	2.68	-0.004	2.0	GoodResponse	1	0.202	n/a	2	33	ButtonPress	Win	True
323.083	0.39	Win2	0.6175999999999999	n/a	Yes	2.68	n/a	n/a	GoodResponse	1	n/a	n/a	2	33	Blank	Win	True
323.468	1.45	Win2	0.6175999999999999	n/a	Yes	2.68	n/a	5.0	GoodResponse	1	0.015	322.483	2	33	Feedback	Win	True
324.922	2.68	Win2	0.6175999999999999	n/a	Yes	2.68	n/a	n/a	GoodResponse	1	0.0	n/a	2	33	ISIslide	Win	True
327.613	0.25	Lose2	0.6286	0.0	Yes	2.637	0.013	n/a	GoodResponse	0	n/a	n/a	2	34	Cue	AvoidedLoss	True
327.864	4.05	Lose2	0.6286	0.0	Yes	2.637	0.001	n/a	GoodResponse	0	n/a	n/a	2	34	Fixation	AvoidedLoss	True
331.91	0.32	Lose2	0.6286	0.003	Yes	2.637	-0.003	2.0	GoodResponse	0	0.207	331.117	2	34	Target	AvoidedLoss	True
332.117	0.3	Lose2	0.6286	0.003	Yes	2.637	-0.003	2.0	GoodResponse	0	0.207	n/a	2	34	ButtonPress	AvoidedLoss	True
332.244	0.38	Lose2	0.6286	n/a	Yes	2.637	n/a	n/a	GoodResponse	0	n/a	n/a	2	34	Blank	AvoidedLoss	True
332.612	1.45	Lose2	0.6286	n/a	Yes	2.637	n/a	5.0	GoodResponse	0	0.041	331.653	2	34	Feedback	AvoidedLoss	True
334.066	2.637	Lose2	0.6286	n/a	Yes	2.637	n/a	n/a	GoodResponse	0	0.0	n/a	2	34	ISIslide	AvoidedLoss	True
336.724	0.25	Lose2	0.6389	0.0	Yes	2.676	0.024	n/a	GoodResponse	0	n/a	n/a	2	35	Cue	AvoidedLoss	True
336.975	4.0	Lose2	0.6389	0.0	Yes	2.676	0.001	n/a	GoodResponse	0	n/a	n/a	2	35	Fixation	AvoidedLoss	True
340.97	0.33	Lose2	0.6389	0.004	Yes	2.676	-0.004	2.0	GoodResponse	0	0.318	340.288	2	35	Target	AvoidedLoss	True
341.288	0.3	Lose2	0.6389	0.004	Yes	2.676	-0.004	2.0	GoodResponse	0	0.318	n/a	2	35	ButtonPress	AvoidedLoss	True
341.304	0.37	Lose2	0.6389	n/a	Yes	2.676	n/a	n/a	GoodResponse	0	n/a	n/a	2	35	Blank	AvoidedLoss	True
341.672	1.45	Lose2	0.6389	n/a	Yes	2.676	n/a	5.0	GoodResponse	0	0.006	340.678	2	35	Feedback	AvoidedLoss	True
343.126	2.676	Lose2	0.6389	n/a	Yes	2.676	n/a	n/a	GoodResponse	0	0.0	n/a	2	35	ISIslide	AvoidedLoss	True
345.818	0.25	Control	0.6486	0.0	Yes	2.682	0.018	n/a	GoodResponse	0	n/a	n/a	2	36	Cue	Neutral	True
346.069	4.0	Control	0.6486	0.0	Yes	2.682	0.001	n/a	GoodResponse	0	n/a	n/a	2	36	Fixation	Neutral	True
350.064	0.34	Control	0.6486	0.004	Yes	2.682	-0.004	2.0	GoodResponse	0	0.228	349.292	2	36	Target	Neutral	True
350.292	0.3	Control	0.6486	0.004	Yes	2.682	-0.004	2.0	GoodResponse	0	0.228	n/a	2	36	ButtonPress	Neutral	True
350.415	0.36	Control	0.6486	n/a	Yes	2.682	n/a	n/a	GoodResponse	0	n/a	n/a	2	36	Blank	Neutral	True
350.766	1.45	Control	0.6486	n/a	Yes	2.682	n/a	5.0	GoodResponse	0	0.033	349.799	2	36	Feedback	Neutral	True
352.22	2.682	Control	0.6486	n/a	Yes	2.682	n/a	n/a	GoodResponse	0	0.0	n/a	2	36	ISIslide	Neutral	True
354.928	0.25	Win2	0.6579	0.0	Yes	2.872	0.028	n/a	GoodResponse	1	n/a	n/a	3	37	Cue	Win	True
355.179	4.0	Win2	0.6579	0.0	Yes	2.872	0.001	n/a	GoodResponse	1	n/a	n/a	3	37	Fixation	Win	True
359.174	0.35	Win2	0.6579	0.004	Yes	2.872	-0.004	2.0	GoodResponse	1	0.223	358.397	3	37	Target	Win	True
359.397	0.3	Win2	0.6579	0.004	Yes	2.872	-0.004	2.0	GoodResponse	1	0.223	n/a	3	37	ButtonPress	Win	True
359.525	0.35	Win2	0.6579	n/a	Yes	2.872	n/a	n/a	GoodResponse	1	n/a	n/a	3	37	Blank	Win	True
359.877	1.45	Win2	0.6579	n/a	Yes	2.872	n/a	5.0	GoodResponse	1	0.044	358.921	3	37	Feedback	Win	True
361.331	2.872	Win2	0.6579	n/a	Yes	2.872	n/a	n/a	GoodResponse	1	0.0	n/a	3	37	ISIslide	Win	True
364.223	0.25	Lose2	0.6667000000000001	0.0	Yes	2.827	0.023	n/a	GoodResponse	0	n/a	n/a	3	38	Cue	AvoidedLoss	True
364.474	3.95	Lose2	0.6667000000000001	0.0	Yes	2.827	0.001	n/a	GoodResponse	0	n/a	n/a	3	38	Fixation	AvoidedLoss	True
368.419	0.35	Lose2	0.6667000000000001	0.004	Yes	2.827	-0.004	2.0	GoodResponse	0	0.213	367.632	3	38	Target	AvoidedLoss	True
368.632	0.3	Lose2	0.6667000000000001	0.004	Yes	2.827	-0.004	2.0	GoodResponse	0	0.213	n/a	3	38	ButtonPress	AvoidedLoss	True
368.77	0.35	Lose2	0.6667000000000001	n/a	Yes	2.827	n/a	n/a	GoodResponse	0	n/a	n/a	3	38	Blank	AvoidedLoss	True
369.121	1.45	Lose2	0.6667000000000001	n/a	Yes	2.827	n/a	5.0	GoodResponse	0	0.02	368.141	3	38	Feedback	AvoidedLoss	True
370.575	2.827	Lose2	0.6667000000000001	n/a	Yes	2.827	n/a	n/a	GoodResponse	0	0.0	n/a	3	38	ISIslide	AvoidedLoss	True
373.417	0.25	Win2	0.675	0.0	Yes	2.983	0.017	n/a	GoodResponse	1	n/a	n/a	4	39	Cue	Win	True
373.668	4.1	Win2	0.675	0.0	Yes	2.983	0.001	n/a	GoodResponse	1	n/a	n/a	4	39	Fixation	Win	True
377.763	0.34	Win2	0.675	0.004	Yes	2.983	-0.004	2.0	GoodResponse	1	0.225	376.988	4	39	Target	Win	True
377.988	0.3	Win2	0.675	0.004	Yes	2.983	-0.004	2.0	GoodResponse	1	0.225	n/a	4	39	ButtonPress	Win	True
378.114	0.36	Win2	0.675	n/a	Yes	2.983	n/a	n/a	GoodResponse	1	n/a	n/a	4	39	Blank	Win	True
378.465	1.45	Win2	0.675	n/a	Yes	2.983	n/a	5.0	GoodResponse	1	0.042	377.507	4	39	Feedback	Win	True
379.92	2.983	Win2	0.675	n/a	Yes	2.983	n/a	n/a	GoodResponse	1	0.0	n/a	4	39	ISIslide	Win	True
382.929	0.25	Win2	0.6829000000000001	0.0	Yes	2.721	0.029	n/a	GoodResponse	1	n/a	n/a	5	40	Cue	Win	True
383.18	3.95	Win2	0.6829000000000001	0.0	Yes	2.721	0.001	n/a	GoodResponse	1	n/a	n/a	5	40	Fixation	Win	True
387.125	0.33	Win2	0.6829000000000001	0.004	Yes	2.721	-0.004	2.0	GoodResponse	1	0.238	386.363	5	40	Target	Win	True
387.363	0.3	Win2	0.6829000000000001	0.004	Yes	2.721	-0.004	2.0	GoodResponse	1	0.238	n/a	5	40	ButtonPress	Win	True
387.459	0.37	Win2	0.6829000000000001	n/a	Yes	2.721	n/a	n/a	GoodResponse	1	n/a	n/a	5	40	Blank	Win	True
387.827	1.45	Win2	0.6829000000000001	n/a	Yes	2.721	n/a	5.0	GoodResponse	1	0.045	386.872	5	40	Feedback	Win	True
389.281	2.721	Win2	0.6829000000000001	n/a	Yes	2.721	n/a	n/a	GoodResponse	1	0.0	n/a	5	40	ISIslide	Win	True
392.023	0.25	Win2	0.6667000000000001	0.0	No	2.777	0.023	n/a	NoResponse	0	n/a	n/a	5	41	Cue	MissedWin	True
392.273	3.9	Win2	0.6667000000000001	0.0	No	2.777	0.0	n/a	NoResponse	0	n/a	n/a	5	41	Fixation	MissedWin	True
396.185	0.32	Win2	0.6667000000000001	0.0	No	2.777	0.012	2.0	NoResponse	0	0.391	395.576	5	41	Target	MissedWin	True
396.503	0.38	Win2	0.6667000000000001	n/a	No	2.777	n/a	n/a	NoResponse	0	n/a	n/a	5	41	Blank	MissedWin	True
396.576	0.3	Win2	0.6667000000000001	0.0	No	2.777	0.012	2.0	NoResponse	0	0.391	n/a	5	41	ButtonPress	MissedWin	True
396.87	1.45	Win2	0.6667000000000001	n/a	No	2.777	n/a	5.0	NoResponse	0	0.026	395.896	5	41	Feedback	MissedWin	True
398.325	2.777	Win2	0.6667000000000001	n/a	No	2.777	n/a	n/a	NoResponse	0	0.0	n/a	5	41	ISIslide	MissedWin	True
401.117	0.25	Control	0.6744	0.0	Yes	2.933	0.017	n/a	GoodResponse	0	n/a	n/a	5	42	Cue	Neutral	True
401.367	3.85	Control	0.6744	0.0	Yes	2.933	0.0	n/a	GoodResponse	0	n/a	n/a	5	42	Fixation	Neutral	True
405.229	0.31	Control	0.6744	0.0	Yes	2.933	0.012	2.0	GoodResponse	0	0.286	404.515	5	42	Target	Neutral	True
405.515	0.3	Control	0.6744	0.0	Yes	2.933	0.012	2.0	GoodResponse	0	0.286	n/a	5	42	ButtonPress	Neutral	True
405.53	0.39	Control	0.6744	n/a	Yes	2.933	n/a	n/a	GoodResponse	0	n/a	n/a	5	42	Blank	Neutral	True
405.914	1.45	Control	0.6744	n/a	Yes	2.933	n/a	5.0	GoodResponse	0	0.006	404.92	5	42	Feedback	Neutral	True
407.369	2.933	Control	0.6744	n/a	Yes	2.933	n/a	n/a	GoodResponse	0	0.0	n/a	5	42	ISIslide	Neutral	True
410.327	0.25	Win2	0.6818000000000001	0.0	Yes	3.173	0.027	n/a	GoodResponse	1	n/a	n/a	6	43	Cue	Win	True
410.578	4.0	Win2	0.6818000000000001	0.0	Yes	3.173	0.001	n/a	GoodResponse	1	n/a	n/a	6	43	Fixation	Win	True
414.573	0.3	Win2	0.6818000000000001	0.004	Yes	3.173	-0.004	2.0	GoodResponse	1	0.264	413.837	6	43	Target	Win	True
414.837	0.3	Win2	0.6818000000000001	0.004	Yes	3.173	-0.004	2.0	GoodResponse	1	0.264	n/a	6	43	ButtonPress	Win	True
414.874	0.4	Win2	0.6818000000000001	n/a	Yes	3.173	n/a	n/a	GoodResponse	1	n/a	n/a	6	43	Blank	Win	True
415.275	1.45	Win2	0.6818000000000001	n/a	Yes	3.173	n/a	5.0	GoodResponse	1	0.011	414.286	6	43	Feedback	Win	True
416.73	3.173	Win2	0.6818000000000001	n/a	Yes	3.173	n/a	n/a	GoodResponse	1	0.0	n/a	6	43	ISIslide	Win	True
419.923	0.25	Win2	0.6889	0.0	Yes	2.977	0.023	n/a	GoodResponse	1	n/a	n/a	7	44	Cue	Win	True
420.173	4.0	Win2	0.6889	0.001	Yes	2.977	0.0	n/a	GoodResponse	1	n/a	n/a	7	44	Fixation	Win	True
424.169	0.29	Win2	0.6889	0.004	Yes	2.977	-0.004	2.0	GoodResponse	1	0.215	423.384	7	44	Target	Win	True
424.384	0.3	Win2	0.6889	0.004	Yes	2.977	-0.004	2.0	GoodResponse	1	0.215	n/a	7	44	ButtonPress	Win	True
424.47	0.41	Win2	0.6889	n/a	Yes	2.977	n/a	n/a	GoodResponse	1	n/a	n/a	7	44	Blank	Win	True
424.871	1.45	Win2	0.6889	n/a	Yes	2.977	n/a	5.0	GoodResponse	1	0.025	423.896	7	44	Feedback	Win	True
426.325	2.977	Win2	0.6889	n/a	Yes	2.977	n/a	n/a	GoodResponse	1	0.0	n/a	7	44	ISIslide	Win	True
429.317	0.25	Control	0.6739	0.001	No	2.883	0.017	n/a	NoResponse	0	n/a	n/a	7	45	Cue	Neutral	True
429.568	4.1	Control	0.6739	0.0	No	2.883	0.001	2.0	NoResponse	0	3.97	432.538	7	45	Fixation	Neutral	True
433.538	0.3	Control	0.6739	0.0	No	2.883	0.001	2.0	NoResponse	0	3.97	n/a	7	45	ButtonPress	Neutral	True
433.664	0.28	Control	0.6739	0.003	No	2.883	-0.003	n/a	NoResponse	0	n/a	n/a	7	45	Target	Neutral	True
433.948	0.42	Control	0.6739	n/a	No	2.883	n/a	n/a	NoResponse	0	n/a	n/a	7	45	Blank	Neutral	True
434.366	1.45	Control	0.6739	n/a	No	2.883	n/a	5.0	NoResponse	0	0.042	433.408	7	45	Feedback	Neutral	True
435.82	2.883	Control	0.6739	n/a	No	2.883	n/a	n/a	NoResponse	0	0.0	n/a	7	45	ISIslide	Neutral	True
438.729	0.25	Lose2	0.6596	0.0	No	3.371	0.029	n/a	NoResponse	-1	n/a	n/a	6	46	Cue	Loss	True
438.98	4.0	Lose2	0.6596	0.0	No	3.371	0.001	n/a	NoResponse	-1	n/a	n/a	6	46	Fixation	Loss	True
442.975	0.27	Lose2	0.6596	0.004	No	3.371	-0.004	2.0	NoResponse	-1	0.37	442.345	6	46	Target	Loss	True
443.259	0.43	Lose2	0.6596	n/a	No	3.371	n/a	n/a	NoResponse	-1	n/a	n/a	6	46	Blank	Loss	True
443.345	0.3	Lose2	0.6596	0.004	No	3.371	-0.004	2.0	NoResponse	-1	0.37	n/a	6	46	ButtonPress	Loss	True
443.677	1.45	Lose2	0.6596	n/a	No	3.371	n/a	5.0	NoResponse	-1	0.048	442.725	6	46	Feedback	Loss	True
445.131	3.371	Lose2	0.6596	n/a	No	3.371	n/a	n/a	NoResponse	-1	0.0	n/a	6	46	ISIslide	Loss	True
448.525	0.25	Lose2	0.6667000000000001	0.0	Yes	2.675	0.025	n/a	GoodResponse	0	n/a	n/a	6	47	Cue	AvoidedLoss	True
448.776	4.0	Lose2	0.6667000000000001	0.0	Yes	2.675	0.001	n/a	GoodResponse	0	n/a	n/a	6	47	Fixation	AvoidedLoss	True
452.771	0.27	Lose2	0.6667000000000001	0.004	Yes	2.675	-0.004	2.0	GoodResponse	0	0.248	452.019	6	47	Target	AvoidedLoss	True
453.019	0.3	Lose2	0.6667000000000001	0.004	Yes	2.675	-0.004	2.0	GoodResponse	0	0.248	n/a	6	47	ButtonPress	AvoidedLoss	True
453.055	0.43	Lose2	0.6667000000000001	n/a	Yes	2.675	n/a	n/a	GoodResponse	0	n/a	n/a	6	47	Blank	AvoidedLoss	True
453.473	1.45	Lose2	0.6667000000000001	n/a	Yes	2.675	n/a	5.0	GoodResponse	0	0.008	452.481	6	47	Feedback	AvoidedLoss	True
454.927	2.675	Lose2	0.6667000000000001	n/a	Yes	2.675	n/a	n/a	GoodResponse	0	0.0	n/a	6	47	ISIslide	AvoidedLoss	True
457.619	0.25	Lose2	0.6531	0.0	No	3.031	0.019	n/a	NoResponse	-1	n/a	n/a	5	48	Cue	Loss	True
457.87	3.95	Lose2	0.6531	0.0	No	3.031	0.001	n/a	NoResponse	-1	n/a	n/a	5	48	Fixation	Loss	True
461.815	0.26	Lose2	0.6531	0.004	No	3.031	-0.004	2.0	NoResponse	-1	0.33	461.145	5	48	Target	Loss	True
462.082	0.44	Lose2	0.6531	n/a	No	3.031	n/a	n/a	NoResponse	-1	n/a	n/a	5	48	Blank	Loss	True
462.145	0.3	Lose2	0.6531	0.004	No	3.031	-0.004	2.0	NoResponse	-1	0.33	n/a	5	48	ButtonPress	Loss	True
462.517	1.45	Lose2	0.6531	n/a	No	3.031	n/a	5.0	NoResponse	-1	0.037	461.554	5	48	Feedback	Loss	True
463.971	3.031	Lose2	0.6531	n/a	No	3.031	n/a	n/a	NoResponse	-1	0.0	n/a	5	48	ISIslide	Loss	True
467.014	0.25	Control	0.66	0.0	Yes	2.886	0.014	n/a	GoodResponse	0	n/a	n/a	5	49	Cue	Neutral	True
467.264	4.0	Control	0.66	0.0	Yes	2.886	0.0	n/a	GoodResponse	0	n/a	n/a	5	49	Fixation	Neutral	True
471.26	0.27	Control	0.66	0.004	Yes	2.886	-0.004	2.0	GoodResponse	0	0.24	470.5	5	49	Target	Neutral	True
471.5	0.3	Control	0.66	0.004	Yes	2.886	-0.004	2.0	GoodResponse	0	0.24	n/a	5	49	ButtonPress	Neutral	True
471.544	0.43	Control	0.66	n/a	Yes	2.886	n/a	n/a	GoodResponse	0	n/a	n/a	5	49	Blank	Neutral	True
471.962	1.45	Control	0.66	n/a	Yes	2.886	n/a	5.0	GoodResponse	0	0.007	470.969	5	49	Feedback	Neutral	True
473.416	2.886	Control	0.66	n/a	Yes	2.886	n/a	n/a	GoodResponse	0	0.0	n/a	5	49	ISIslide	Neutral	True
476.325	0.25	Control	0.6667000000000001	0.0	Yes	2.775	0.025	n/a	GoodResponse	0	n/a	n/a	5	50	Cue	Neutral	True
476.575	4.0	Control	0.6667000000000001	0.001	Yes	2.775	0.0	n/a	GoodResponse	0	n/a	n/a	5	50	Fixation	Neutral	True
480.571	0.27	Control	0.6667000000000001	0.004	Yes	2.775	-0.004	2.0	GoodResponse	0	0.241	479.812	5	50	Target	Neutral	True
480.812	0.3	Control	0.6667000000000001	0.004	Yes	2.775	-0.004	2.0	GoodResponse	0	0.241	n/a	5	50	ButtonPress	Neutral	True
480.855	0.43	Control	0.6667000000000001	n/a	Yes	2.775	n/a	n/a	GoodResponse	0	n/a	n/a	5	50	Blank	Neutral	True
481.273	1.45	Control	0.6667000000000001	n/a	Yes	2.775	n/a	5.0	GoodResponse	0	0.012	480.285	5	50	Feedback	Neutral	True
482.727	2.775	Control	0.6667000000000001	n/a	Yes	2.775	n/a	n/a	GoodResponse	0	0.0	n/a	5	50	ISIslide	Neutral	True
485.519	0.25	Control	0.6731	0.0	Yes	2.731	0.019	n/a	GoodResponse	0	n/a	n/a	5	51	Cue	Neutral	True
485.77	3.95	Control	0.6731	0.0	Yes	2.731	0.001	n/a	GoodResponse	0	n/a	n/a	5	51	Fixation	Neutral	True
489.715	0.26	Control	0.6731	0.004	Yes	2.731	-0.004	2.0	GoodResponse	0	0.199	488.914	5	51	Target	Neutral	True
489.914	0.3	Control	0.6731	0.004	Yes	2.731	-0.004	2.0	GoodResponse	0	0.199	n/a	5	51	ButtonPress	Neutral	True
489.982	0.44	Control	0.6731	n/a	Yes	2.731	n/a	n/a	GoodResponse	0	n/a	n/a	5	51	Blank	Neutral	True
490.417	1.45	Control	0.6731	n/a	Yes	2.731	n/a	5.0	GoodResponse	0	0.039	489.456	5	51	Feedback	Neutral	True
491.871	2.731	Control	0.6731	n/a	Yes	2.731	n/a	n/a	GoodResponse	0	0.0	n/a	5	51	ISIslide	Neutral	True
494.613	0.25	Control	0.6604000000000001	0.0	No	2.637	0.013	n/a	NoResponse	0	n/a	n/a	5	52	Cue	Neutral	True
494.863	4.05	Control	0.6604000000000001	0.001	No	2.637	0.0	n/a	NoResponse	0	n/a	n/a	5	52	Fixation	Neutral	True
498.909	0.25	Control	0.6604000000000001	0.004	No	2.637	-0.004	2.0	NoResponse	0	0.291	498.2	5	52	Target	Neutral	True
499.16	0.45	Control	0.6604000000000001	n/a	No	2.637	n/a	n/a	NoResponse	0	n/a	n/a	5	52	Blank	Neutral	True
499.2	0.3	Control	0.6604000000000001	0.004	No	2.637	-0.004	2.0	NoResponse	0	0.291	n/a	5	52	ButtonPress	Neutral	True
499.611	1.45	Control	0.6604000000000001	n/a	No	2.637	n/a	5.0	NoResponse	0	0.016	498.627	5	52	Feedback	Neutral	True
501.065	2.637	Control	0.6604000000000001	n/a	No	2.637	n/a	n/a	NoResponse	0	0.0	n/a	5	52	ISIslide	Neutral	True
503.723	0.25	Win2	0.6481	0.0	No	2.927	0.023	n/a	NoResponse	0	n/a	n/a	5	53	Cue	MissedWin	True
503.974	4.05	Win2	0.6481	0.0	No	2.927	0.001	n/a	NoResponse	0	n/a	n/a	5	53	Fixation	MissedWin	True
508.019	0.25	Win2	0.6481	0.004	No	2.927	-0.004	2.0	NoResponse	0	0.316	507.335	5	53	Target	MissedWin	True
508.27	0.45	Win2	0.6481	n/a	No	2.927	n/a	n/a	NoResponse	0	n/a	n/a	5	53	Blank	MissedWin	True
508.335	0.3	Win2	0.6481	0.004	No	2.927	-0.004	2.0	NoResponse	0	0.316	n/a	5	53	ButtonPress	MissedWin	True
508.722	1.45	Win2	0.6481	n/a	No	2.927	n/a	5.0	NoResponse	0	0.027	507.749	5	53	Feedback	MissedWin	True
510.176	2.927	Win2	0.6481	n/a	No	2.927	n/a	n/a	NoResponse	0	0.0	n/a	5	53	ISIslide	MissedWin	True
513.118	0.25	Win2	0.6545000000000001	0.0	Yes	2.732	0.018	n/a	GoodResponse	1	n/a	n/a	6	54	Cue	Win	True
513.369	3.95	Win2	0.6545000000000001	0.0	Yes	2.732	0.001	n/a	GoodResponse	1	n/a	n/a	6	54	Fixation	Win	True
517.314	0.26	Win2	0.6545000000000001	0.004	Yes	2.732	-0.004	2.0	GoodResponse	1	0.235	516.549	6	54	Target	Win	True
517.549	0.3	Win2	0.6545000000000001	0.004	Yes	2.732	-0.004	2.0	GoodResponse	1	0.235	n/a	6	54	ButtonPress	Win	True
517.581	0.44	Win2	0.6545000000000001	n/a	Yes	2.732	n/a	n/a	GoodResponse	1	n/a	n/a	6	54	Blank	Win	True
518.016	1.45	Win2	0.6545000000000001	n/a	Yes	2.732	n/a	5.0	GoodResponse	1	0.0	517.016	6	54	Feedback	Win	True
519.47	2.732	Win2	0.6545000000000001	n/a	Yes	2.732	n/a	n/a	GoodResponse	1	0.0	n/a	6	54	ISIslide	Win	True
522.229	0.25	Control	0.6429	0.0	No	3.021	0.029	n/a	NoResponse	0	n/a	n/a	6	55	Cue	Neutral	True
522.479	3.95	Control	0.6429	0.0	No	3.021	0.0	n/a	NoResponse	0	n/a	n/a	6	55	Fixation	Neutral	True
526.424	0.27	Control	0.6429	0.005	No	3.021	-0.005	2.0	NoResponse	0	0.292	525.716	6	55	Target	Neutral	True
526.709	0.43	Control	0.6429	n/a	No	3.021	n/a	n/a	NoResponse	0	n/a	n/a	6	55	Blank	Neutral	True
526.716	0.3	Control	0.6429	0.005	No	3.021	-0.005	2.0	NoResponse	0	0.292	n/a	6	55	ButtonPress	Neutral	True
527.127	1.45	Control	0.6429	n/a	No	3.021	n/a	5.0	NoResponse	0	0.011	526.138	6	55	Feedback	Neutral	True
528.581	3.021	Control	0.6429	n/a	No	3.021	n/a	n/a	NoResponse	0	0.0	n/a	6	55	ISIslide	Neutral	True
531.623	0.25	Control	0.6491	0.0	Yes	2.827	0.023	n/a	GoodResponse	0	n/a	n/a	6	56	Cue	Neutral	True
531.874	3.95	Control	0.6491	0.0	Yes	2.827	0.001	n/a	GoodResponse	0	n/a	n/a	6	56	Fixation	Neutral	True
535.819	0.28	Control	0.6491	0.004	Yes	2.827	-0.004	2.0	GoodResponse	0	0.205	535.024	6	56	Target	Neutral	True
536.024	0.3	Control	0.6491	0.004	Yes	2.827	-0.004	2.0	GoodResponse	0	0.205	n/a	6	56	ButtonPress	Neutral	True
536.103	0.42	Control	0.6491	n/a	Yes	2.827	n/a	n/a	GoodResponse	0	n/a	n/a	6	56	Blank	Neutral	True
536.521	1.45	Control	0.6491	n/a	Yes	2.827	n/a	5.0	GoodResponse	0	0.032	535.553	6	56	Feedback	Neutral	True
537.976	2.827	Control	0.6491	n/a	Yes	2.827	n/a	n/a	GoodResponse	0	0.0	n/a	6	56	ISIslide	Neutral	True
540.818	0.25	Control	0.6379	0.0	No	3.482	0.018	n/a	LatePress	0	n/a	n/a	6	57	Cue	Neutral	True
541.068	4.0	Control	0.6379	0.0	No	3.482	0.0	n/a	LatePress	0	n/a	n/a	6	57	Fixation	Neutral	True
545.064	0.29	Control	0.6379	0.004	No	3.482	-0.004	2.0	LatePress	0	0.294	544.358	6	57	Target	Neutral	True
545.358	0.3	Control	0.6379	0.004	No	3.482	-0.004	2.0	LatePress	0	0.294	n/a	6	57	ButtonPress	Neutral	True
545.364	0.41	Control	0.6379	n/a	No	3.482	n/a	n/a	LatePress	0	n/a	n/a	6	57	Blank	Neutral	True
545.766	1.45	Control	0.6379	n/a	No	3.482	n/a	5.0	LatePress	0	0.007	544.773	6	57	Feedback	Neutral	True
547.22	3.482	Control	0.6379	n/a	No	3.482	n/a	n/a	LatePress	0	0.0	n/a	6	57	ISIslide	Neutral	True
550.714	0.25	Win2	0.6441	0.0	Yes	2.736	0.014	n/a	GoodResponse	1	n/a	n/a	7	58	Cue	Win	True
550.965	4.05	Win2	0.6441	0.0	Yes	2.736	0.001	n/a	GoodResponse	1	n/a	n/a	7	58	Fixation	Win	True
555.01	0.3	Win2	0.6441	0.004	Yes	2.736	-0.004	2.0	GoodResponse	1	0.202	554.212	7	58	Target	Win	True
555.212	0.3	Win2	0.6441	0.004	Yes	2.736	-0.004	2.0	GoodResponse	1	0.202	n/a	7	58	ButtonPress	Win	True
555.311	0.4	Win2	0.6441	n/a	Yes	2.736	n/a	n/a	GoodResponse	1	n/a	n/a	7	58	Blank	Win	True
555.712	1.45	Win2	0.6441	n/a	Yes	2.736	n/a	5.0	GoodResponse	1	0.012	554.724	7	58	Feedback	Win	True
557.166	2.736	Win2	0.6441	n/a	Yes	2.736	n/a	n/a	GoodResponse	1	0.0	n/a	7	58	ISIslide	Win	True
559.925	0.25	Lose2	0.65	0.0	Yes	2.675	0.025	n/a	GoodResponse	0	n/a	n/a	7	59	Cue	AvoidedLoss	True
560.175	4.0	Lose2	0.65	0.0	Yes	2.675	0.0	n/a	GoodResponse	0	n/a	n/a	7	59	Fixation	AvoidedLoss	True
564.171	0.31	Lose2	0.65	0.004	Yes	2.675	-0.004	2.0	GoodResponse	0	0.218	563.389	7	59	Target	AvoidedLoss	True
564.389	0.3	Lose2	0.65	0.004	Yes	2.675	-0.004	2.0	GoodResponse	0	0.218	n/a	7	59	ButtonPress	AvoidedLoss	True
564.488	0.39	Lose2	0.65	n/a	Yes	2.675	n/a	n/a	GoodResponse	0	n/a	n/a	7	59	Blank	AvoidedLoss	True
564.873	1.45	Lose2	0.65	n/a	Yes	2.675	n/a	5.0	GoodResponse	0	0.021	563.894	7	59	Feedback	AvoidedLoss	True
566.327	2.675	Lose2	0.65	n/a	Yes	2.675	n/a	n/a	GoodResponse	0	0.0	n/a	7	59	ISIslide	AvoidedLoss	True
569.019	0.25	Control	0.6393	0.0	No	2.681	0.019	n/a	NoResponse	0	n/a	n/a	7	60	Cue	Neutral	True
569.269	4.0	Control	0.6393	0.0	No	2.681	0.0	n/a	NoResponse	0	n/a	n/a	7	60	Fixation	Neutral	True
573.265	0.32	Control	0.6393	0.004	No	2.681	-0.004	2.0	NoResponse	0	0.444	572.709	7	60	Target	Neutral	True
573.599	0.38	Control	0.6393	n/a	No	2.681	n/a	n/a	NoResponse	0	n/a	n/a	7	60	Blank	Neutral	True
573.709	0.3	Control	0.6393	0.004	No	2.681	-0.004	2.0	NoResponse	0	0.444	n/a	7	60	ButtonPress	Neutral	True
573.967	1.45	Control	0.6393	n/a	No	2.681	n/a	5.0	NoResponse	0	0.0	572.967	7	60	Feedback	Neutral	True
575.421	2.681	Control	0.6393	n/a	No	2.681	n/a	n/a	NoResponse	0	0.0	n/a	7	60	ISIslide	Neutral	True
578.129	0.25	Lose2	0.6452	0.0	Yes	2.971	0.029	n/a	GoodResponse	0	n/a	n/a	7	61	Cue	AvoidedLoss	True
578.38	4.0	Lose2	0.6452	0.0	Yes	2.971	0.001	n/a	GoodResponse	0	n/a	n/a	7	61	Fixation	AvoidedLoss	True
582.375	0.33	Lose2	0.6452	0.004	Yes	2.971	-0.004	2.0	GoodResponse	0	0.205	581.58	7	61	Target	AvoidedLoss	True
582.58	0.3	Lose2	0.6452	0.004	Yes	2.971	-0.004	2.0	GoodResponse	0	0.205	n/a	7	61	ButtonPress	AvoidedLoss	True
582.709	0.37	Lose2	0.6452	n/a	Yes	2.971	n/a	n/a	GoodResponse	0	n/a	n/a	7	61	Blank	AvoidedLoss	True
583.077	1.45	Lose2	0.6452	n/a	Yes	2.971	n/a	5.0	GoodResponse	0	0.012	582.089	7	61	Feedback	AvoidedLoss	True
584.532	2.971	Lose2	0.6452	n/a	Yes	2.971	n/a	n/a	GoodResponse	0	0.0	n/a	7	61	ISIslide	AvoidedLoss	True
587.524	0.25	Lose2	0.6507999999999999	0.0	Yes	2.876	0.024	n/a	GoodResponse	0	n/a	n/a	7	62	Cue	AvoidedLoss	True
587.775	3.9	Lose2	0.6507999999999999	0.0	Yes	2.876	0.001	n/a	GoodResponse	0	n/a	n/a	7	62	Fixation	AvoidedLoss	True
591.67	0.34	Lose2	0.6507999999999999	0.004	Yes	2.876	-0.004	2.0	GoodResponse	0	0.189	590.859	7	62	Target	AvoidedLoss	True
591.859	0.3	Lose2	0.6507999999999999	0.004	Yes	2.876	-0.004	2.0	GoodResponse	0	0.189	n/a	7	62	ButtonPress	AvoidedLoss	True
592.021	0.36	Lose2	0.6507999999999999	n/a	Yes	2.876	n/a	n/a	GoodResponse	0	n/a	n/a	7	62	Blank	AvoidedLoss	True
592.372	1.45	Lose2	0.6507999999999999	n/a	Yes	2.876	n/a	5.0	GoodResponse	0	0.034	591.406	7	62	Feedback	AvoidedLoss	True
593.826	2.876	Lose2	0.6507999999999999	n/a	Yes	2.876	n/a	n/a	GoodResponse	0	0.0	n/a	7	62	ISIslide	AvoidedLoss	True
596.718	0.25	Lose2	0.6562	0.0	Yes	2.632	0.018	n/a	GoodResponse	0	n/a	n/a	7	63	Cue	AvoidedLoss	True
596.969	4.05	Lose2	0.6562	0.0	Yes	2.632	0.001	n/a	GoodResponse	0	n/a	n/a	7	63	Fixation	AvoidedLoss	True
601.014	0.35	Lose2	0.6562	0.004	Yes	2.632	-0.004	2.0	GoodResponse	0	0.208	600.222	7	63	Target	AvoidedLoss	True
601.222	0.3	Lose2	0.6562	0.004	Yes	2.632	-0.004	2.0	GoodResponse	0	0.208	n/a	7	63	ButtonPress	AvoidedLoss	True
601.365	0.35	Lose2	0.6562	n/a	Yes	2.632	n/a	n/a	GoodResponse	0	n/a	n/a	7	63	Blank	AvoidedLoss	True
601.716	1.45	Lose2	0.6562	n/a	Yes	2.632	n/a	5.0	GoodResponse	0	0.007	600.723	7	63	Feedback	AvoidedLoss	True
603.171	2.632	Lose2	0.6562	n/a	Yes	2.632	n/a	n/a	GoodResponse	0	0.0	n/a	7	63	ISIslide	AvoidedLoss	True
605.829	0.25	Win2	0.6615000000000001	0.0	Yes	3.121	0.029	n/a	GoodResponse	1	n/a	n/a	8	64	Cue	Win	True
606.079	4.15	Win2	0.6615000000000001	0.0	Yes	3.121	0.0	n/a	GoodResponse	1	n/a	n/a	8	64	Fixation	Win	True
610.225	0.35	Win2	0.6615000000000001	0.004	Yes	3.121	-0.004	2.0	GoodResponse	1	0.199	609.424	8	64	Target	Win	True
610.424	0.3	Win2	0.6615000000000001	0.004	Yes	3.121	-0.004	2.0	GoodResponse	1	0.199	n/a	8	64	ButtonPress	Win	True
610.576	0.35	Win2	0.6615000000000001	n/a	Yes	3.121	n/a	n/a	GoodResponse	1	n/a	n/a	8	64	Blank	Win	True
610.927	1.45	Win2	0.6615000000000001	n/a	Yes	3.121	n/a	5.0	GoodResponse	1	0.015	609.942	8	64	Feedback	Win	True
612.381	3.121	Win2	0.6615000000000001	n/a	Yes	3.121	n/a	n/a	GoodResponse	1	0.0	n/a	8	64	ISIslide	Win	True
615.524	0.25	Control	0.6667000000000001	0.0	Yes	2.776	0.024	n/a	GoodResponse	0	n/a	n/a	8	65	Cue	Neutral	True
615.775	4.0	Control	0.6667000000000001	0.0	Yes	2.776	0.001	n/a	GoodResponse	0	n/a	n/a	8	65	Fixation	Neutral	True
619.77	0.35	Control	0.6667000000000001	0.004	Yes	2.776	-0.004	2.0	GoodResponse	0	0.243	619.013	8	65	Target	Neutral	True
620.013	0.3	Control	0.6667000000000001	0.004	Yes	2.776	-0.004	2.0	GoodResponse	0	0.243	n/a	8	65	ButtonPress	Neutral	True
620.121	0.35	Control	0.6667000000000001	n/a	Yes	2.776	n/a	n/a	GoodResponse	0	n/a	n/a	8	65	Blank	Neutral	True
620.472	1.45	Control	0.6667000000000001	n/a	Yes	2.776	n/a	5.0	GoodResponse	0	0.031	619.503	8	65	Feedback	Neutral	True
621.927	2.776	Control	0.6667000000000001	n/a	Yes	2.776	n/a	n/a	GoodResponse	0	0.0	n/a	8	65	ISIslide	Neutral	True
624.718	0.25	Win2	0.6716	0.0	Yes	2.782	0.018	n/a	GoodResponse	1	n/a	n/a	9	66	Cue	Win	False
624.969	3.9	Win2	0.6716	0.0	Yes	2.782	0.001	2.0	GoodResponse	1	0.194	624.163	9	66	Fixation	Win	False
625.163	0.3	Win2	0.6716	0.0	Yes	2.782	0.001	2.0	GoodResponse	1	0.194	n/a	9	66	ButtonPress	Win	False
628.864	0.34	Win2	0.6716	0.004	Yes	2.782	-0.004	2.0	GoodResponse	1	0.248	628.112	9	66	Target	Win	False
629.112	0.3	Win2	0.6716	0.004	Yes	2.782	-0.004	2.0	GoodResponse	1	0.248	n/a	9	66	ButtonPress	Win	False
629.215	0.36	Win2	0.6716	n/a	Yes	2.782	n/a	n/a	GoodResponse	1	n/a	n/a	9	66	Blank	Win	False
629.566	1.45	Win2	0.6716	n/a	Yes	2.782	n/a	5.0	GoodResponse	1	0.01	628.576	9	66	Feedback	Win	False
631.021	2.782	Win2	0.6716	n/a	Yes	2.782	n/a	n/a	GoodResponse	1	0.0	n/a	9	66	ISIslide	Win	False
633.812	0.25	Control	0.6618	0.0	No	2.738	0.012	n/a	NoResponse	0	n/a	n/a	9	67	Cue	Neutral	False
634.063	3.95	Control	0.6618	0.0	No	2.738	0.001	n/a	NoResponse	0	n/a	n/a	9	67	Fixation	Neutral	False
638.008	0.33	Control	0.6618	0.004	No	2.738	-0.004	n/a	NoResponse	0	n/a	n/a	9	67	Target	Neutral	False
638.342	0.37	Control	0.6618	n/a	No	2.738	n/a	n/a	NoResponse	0	n/a	n/a	9	67	Blank	Neutral	False
638.71	1.45	Control	0.6618	n/a	No	2.738	n/a	5.0	NoResponse	0	0.037	637.747	9	67	Feedback	Neutral	False
640.165	2.738	Control	0.6618	n/a	No	2.738	n/a	n/a	NoResponse	0	0.0	n/a	9	67	ISIslide	Neutral	False
642.923	0.25	Win2	0.6667000000000001	0.0	Yes	3.077	0.023	n/a	GoodResponse	1	n/a	n/a	10	68	Cue	Win	True
643.174	4.0	Win2	0.6667000000000001	0.0	Yes	3.077	0.001	n/a	GoodResponse	1	n/a	n/a	10	68	Fixation	Win	True
647.169	0.33	Win2	0.6667000000000001	0.004	Yes	3.077	-0.004	2.0	GoodResponse	1	0.194	646.363	10	68	Target	Win	True
647.363	0.3	Win2	0.6667000000000001	0.004	Yes	3.077	-0.004	2.0	GoodResponse	1	0.194	n/a	10	68	ButtonPress	Win	True
647.503	0.37	Win2	0.6667000000000001	n/a	Yes	3.077	n/a	n/a	GoodResponse	1	n/a	n/a	10	68	Blank	Win	True
647.871	1.45	Win2	0.6667000000000001	n/a	Yes	3.077	n/a	5.0	GoodResponse	1	0.046	646.917	10	68	Feedback	Win	True
649.325	3.077	Win2	0.6667000000000001	n/a	Yes	3.077	n/a	n/a	GoodResponse	1	0.0	n/a	10	68	ISIslide	Win	True
652.418	0.25	Win2	0.6714	0.0	Yes	3.232	0.018	n/a	GoodResponse	1	n/a	n/a	11	69	Cue	Win	True
652.669	3.95	Win2	0.6714	0.0	Yes	3.232	0.001	n/a	GoodResponse	1	n/a	n/a	11	69	Fixation	Win	True
656.614	0.32	Win2	0.6714	0.004	Yes	3.232	-0.004	2.0	GoodResponse	1	0.215	655.829	11	69	Target	Win	True
656.829	0.3	Win2	0.6714	0.004	Yes	3.232	-0.004	2.0	GoodResponse	1	0.215	n/a	11	69	ButtonPress	Win	True
656.948	0.38	Win2	0.6714	n/a	Yes	3.232	n/a	n/a	GoodResponse	1	n/a	n/a	11	69	Blank	Win	True
657.316	1.45	Win2	0.6714	n/a	Yes	3.232	n/a	5.0	GoodResponse	1	0.016	656.332	11	69	Feedback	Win	True
658.77	3.232	Win2	0.6714	n/a	Yes	3.232	n/a	n/a	GoodResponse	1	0.0	n/a	11	69	ISIslide	Win	True
662.013	0.25	Lose2	0.6761	0.0	Yes	3.037	0.013	n/a	GoodResponse	0	n/a	n/a	11	70	Cue	AvoidedLoss	True
662.264	4.05	Lose2	0.6761	0.0	Yes	3.037	0.001	n/a	GoodResponse	0	n/a	n/a	11	70	Fixation	AvoidedLoss	True
666.309	0.31	Lose2	0.6761	0.004	Yes	3.037	-0.004	2.0	GoodResponse	0	0.303	665.612	11	70	Target	AvoidedLoss	True
666.612	0.3	Lose2	0.6761	0.004	Yes	3.037	-0.004	2.0	GoodResponse	0	0.303	n/a	11	70	ButtonPress	AvoidedLoss	True
666.627	0.39	Lose2	0.6761	n/a	Yes	3.037	n/a	n/a	GoodResponse	0	n/a	n/a	11	70	Blank	AvoidedLoss	True
667.012	1.45	Lose2	0.6761	n/a	Yes	3.037	n/a	5.0	GoodResponse	0	0.027	666.039	11	70	Feedback	AvoidedLoss	True
668.466	3.037	Lose2	0.6761	n/a	Yes	3.037	n/a	n/a	GoodResponse	0	0.0	n/a	11	70	ISIslide	AvoidedLoss	True
671.525	0.25	Win2	0.6806	0.0	Yes	2.725	0.025	n/a	GoodResponse	1	n/a	n/a	12	71	Cue	Win	True
671.776	4.05	Win2	0.6806	0.0	Yes	2.725	0.001	n/a	GoodResponse	1	n/a	n/a	12	71	Fixation	Win	True
675.821	0.3	Win2	0.6806	0.004	Yes	2.725	-0.004	2.0	GoodResponse	1	0.235	675.056	12	71	Target	Win	True
676.056	0.3	Win2	0.6806	0.004	Yes	2.725	-0.004	2.0	GoodResponse	1	0.235	n/a	12	71	ButtonPress	Win	True
676.122	0.4	Win2	0.6806	n/a	Yes	2.725	n/a	n/a	GoodResponse	1	n/a	n/a	12	71	Blank	Win	True
676.523	1.45	Win2	0.6806	n/a	Yes	2.725	n/a	5.0	GoodResponse	1	0.028	675.551	12	71	Feedback	Win	True
677.978	2.725	Win2	0.6806	n/a	Yes	2.725	n/a	n/a	GoodResponse	1	0.0	n/a	12	71	ISIslide	Win	True
680.719	0.25	Win2	0.6849	0.0	Yes	2.781	0.019	n/a	GoodResponse	1	n/a	n/a	13	72	Cue	Win	True
680.97	4.1	Win2	0.6849	0.0	Yes	2.781	0.001	n/a	GoodResponse	1	n/a	n/a	13	72	Fixation	Win	True
685.065	0.29	Win2	0.6849	0.004	Yes	2.781	-0.004	2.0	GoodResponse	1	0.239	684.304	13	72	Target	Win	True
685.304	0.3	Win2	0.6849	0.004	Yes	2.781	-0.004	2.0	GoodResponse	1	0.239	n/a	13	72	ButtonPress	Win	True
685.366	0.41	Win2	0.6849	n/a	Yes	2.781	n/a	n/a	GoodResponse	1	n/a	n/a	13	72	Blank	Win	True
685.768	1.45	Win2	0.6849	n/a	Yes	2.781	n/a	5.0	GoodResponse	1	0.003	684.771	13	72	Feedback	Win	True
687.222	2.781	Win2	0.6849	n/a	Yes	2.781	n/a	n/a	GoodResponse	1	0.0	n/a	13	72	ISIslide	Win	True
690.014	0.25	Win2	0.6892	0.0	Yes	2.686	0.014	n/a	GoodResponse	1	n/a	n/a	14	73	Cue	Win	True
690.264	4.0	Win2	0.6892	0.0	Yes	2.686	0.0	n/a	GoodResponse	1	n/a	n/a	14	73	Fixation	Win	True
694.26	0.28	Win2	0.6892	0.004	Yes	2.686	-0.004	2.0	GoodResponse	1	0.266	693.526	14	73	Target	Win	True
694.526	0.3	Win2	0.6892	0.004	Yes	2.686	-0.004	2.0	GoodResponse	1	0.266	n/a	14	73	ButtonPress	Win	True
694.544	0.42	Win2	0.6892	n/a	Yes	2.686	n/a	n/a	GoodResponse	1	n/a	n/a	14	73	Blank	Win	True
694.962	1.45	Win2	0.6892	n/a	Yes	2.686	n/a	5.0	GoodResponse	1	0.028	693.99	14	73	Feedback	Win	True
696.416	2.686	Win2	0.6892	n/a	Yes	2.686	n/a	n/a	GoodResponse	1	0.0	n/a	14	73	ISIslide	Win	True
699.124	0.25	Lose2	0.6933	0.0	Yes	2.626	0.024	n/a	GoodResponse	0	n/a	n/a	14	74	Cue	AvoidedLoss	True
699.375	4.05	Lose2	0.6933	0.0	Yes	2.626	0.001	n/a	GoodResponse	0	n/a	n/a	14	74	Fixation	AvoidedLoss	True
703.42	0.27	Lose2	0.6933	0.004	Yes	2.626	-0.004	2.0	GoodResponse	0	0.212	702.632	14	74	Target	AvoidedLoss	True
703.632	0.3	Lose2	0.6933	0.004	Yes	2.626	-0.004	2.0	GoodResponse	0	0.212	n/a	14	74	ButtonPress	AvoidedLoss	True
703.705	0.43	Lose2	0.6933	n/a	Yes	2.626	n/a	n/a	GoodResponse	0	n/a	n/a	14	74	Blank	AvoidedLoss	True
704.122	1.45	Lose2	0.6933	n/a	Yes	2.626	n/a	5.0	GoodResponse	0	0.039	703.161	14	74	Feedback	AvoidedLoss	True
705.577	2.626	Lose2	0.6933	n/a	Yes	2.626	n/a	n/a	GoodResponse	0	0.0	n/a	14	74	ISIslide	AvoidedLoss	True
708.218	0.25	Lose2	0.6973999999999999	0.0	Yes	2.932	0.018	n/a	GoodResponse	0	n/a	n/a	14	75	Cue	AvoidedLoss	True
708.469	3.95	Lose2	0.6973999999999999	0.0	Yes	2.932	0.001	n/a	GoodResponse	0	n/a	n/a	14	75	Fixation	AvoidedLoss	True
712.414	0.26	Lose2	0.6973999999999999	0.004	Yes	2.932	-0.004	2.0	GoodResponse	0	0.235	711.649	14	75	Target	AvoidedLoss	True
712.649	0.3	Lose2	0.6973999999999999	0.004	Yes	2.932	-0.004	2.0	GoodResponse	0	0.235	n/a	14	75	ButtonPress	AvoidedLoss	True
712.681	0.44	Lose2	0.6973999999999999	n/a	Yes	2.932	n/a	n/a	GoodResponse	0	n/a	n/a	14	75	Blank	AvoidedLoss	True
713.116	1.45	Lose2	0.6973999999999999	n/a	Yes	2.932	n/a	5.0	GoodResponse	0	0.02	712.136	14	75	Feedback	AvoidedLoss	True
714.57	2.932	Lose2	0.6973999999999999	n/a	Yes	2.932	n/a	n/a	GoodResponse	0	0.0	n/a	14	75	ISIslide	AvoidedLoss	True
717.512	0.25	Control	0.7012999999999999	0.001	Yes	3.238	0.012	n/a	GoodResponse	0	n/a	n/a	14	76	Cue	Neutral	True
717.763	4.05	Control	0.7012999999999999	0.0	Yes	3.238	0.001	n/a	GoodResponse	0	n/a	n/a	14	76	Fixation	Neutral	True
721.809	0.25	Control	0.7012999999999999	0.003	Yes	3.238	-0.003	2.0	GoodResponse	0	0.205	721.014	14	76	Target	Neutral	True
722.014	0.3	Control	0.7012999999999999	0.003	Yes	3.238	-0.003	2.0	GoodResponse	0	0.205	n/a	14	76	ButtonPress	Neutral	True
722.059	0.45	Control	0.7012999999999999	n/a	Yes	3.238	n/a	n/a	GoodResponse	0	n/a	n/a	14	76	Blank	Neutral	True
722.511	1.45	Control	0.7012999999999999	n/a	Yes	3.238	n/a	5.0	GoodResponse	0	0.04	721.551	14	76	Feedback	Neutral	True
723.965	3.238	Control	0.7012999999999999	n/a	Yes	3.238	n/a	n/a	GoodResponse	0	0.0	n/a	14	76	ISIslide	Neutral	True
727.225	0.25	Lose2	0.7051000000000001	0.0	Yes	2.575	0.025	n/a	GoodResponse	0	n/a	n/a	14	77	Cue	AvoidedLoss	True
727.476	3.95	Lose2	0.7051000000000001	0.0	Yes	2.575	0.001	n/a	GoodResponse	0	n/a	n/a	14	77	Fixation	AvoidedLoss	True
731.421	0.24	Lose2	0.7051000000000001	0.004	Yes	2.575	-0.004	2.0	GoodResponse	0	0.189	730.61	14	77	Target	AvoidedLoss	True
731.61	0.3	Lose2	0.7051000000000001	0.004	Yes	2.575	-0.004	2.0	GoodResponse	0	0.189	n/a	14	77	ButtonPress	AvoidedLoss	True
731.671	0.46	Lose2	0.7051000000000001	n/a	Yes	2.575	n/a	n/a	GoodResponse	0	n/a	n/a	14	77	Blank	AvoidedLoss	True
732.123	1.45	Lose2	0.7051000000000001	n/a	Yes	2.575	n/a	5.0	GoodResponse	0	0.037	731.16	14	77	Feedback	AvoidedLoss	True
733.577	2.575	Lose2	0.7051000000000001	n/a	Yes	2.575	n/a	n/a	GoodResponse	0	0.0	n/a	14	77	ISIslide	AvoidedLoss	True
