onset	duration	cue_type	current_mean_accuracy	duration_error	is_hit	isi_adjusted	onset_delay	response	response_type	reward	rt	rt_time	total_reward	trial_number	trial_phase	trial_type	one_press
11.101	0.25	Control	1.0	0.0	Yes	2.949	0.001	n/a	GoodResponse	0	n/a	n/a	0	0	Cue	Neutral	False
11.352	3.85	Control	1.0	0.0	Yes	2.949	0.001	2.0	GoodResponse	0	0.484	10.836	0	0	Fixation	Neutral	False
11.836	0.3	Control	1.0	0.0	Yes	2.949	0.001	2.0	GoodResponse	0	0.484	n/a	0	0	ButtonPress	Neutral	False
15.213	0.4	Control	1.0	0.0	Yes	2.949	0.012	2.0	GoodResponse	0	0.207	14.42	0	0	Target	Neutral	False
15.42	0.3	Control	1.0	0.0	Yes	2.949	0.012	2.0	GoodResponse	0	0.207	n/a	0	0	ButtonPress	Neutral	False
15.598	0.3	Control	1.0	n/a	Yes	2.949	n/a	n/a	GoodResponse	0	n/a	n/a	0	0	Blank	Neutral	False
15.899	1.45	Control	1.0	n/a	Yes	2.949	n/a	5.0	GoodResponse	0	0.027	14.926	0	0	Feedback	Neutral	False
17.353	2.949	Control	1.0	n/a	Yes	2.949	n/a	n/a	GoodResponse	0	0.0	n/a	0	0	ISIslide	Neutral	False
20.329	0.25	Lose2	1.0	0.0	Yes	2.771	0.029	n/a	GoodResponse	0	n/a	n/a	0	1	Cue	AvoidedLoss	True
20.579	4.0	Lose2	1.0	0.0	Yes	2.771	0.0	n/a	GoodResponse	0	n/a	n/a	0	1	Fixation	AvoidedLoss	True
24.575	0.39	Lose2	1.0	0.004	Yes	2.771	-0.004	2.0	GoodResponse	0	0.181	23.756	0	1	Target	AvoidedLoss	True
24.756	0.3	Lose2	1.0	0.004	Yes	2.771	-0.004	2.0	GoodResponse	0	0.181	n/a	0	1	ButtonPress	AvoidedLoss	True
24.976	0.31	Lose2	1.0	n/a	Yes	2.771	n/a	n/a	GoodResponse	0	n/a	n/a	0	1	Blank	AvoidedLoss	True
25.277	1.45	Lose2	1.0	n/a	Yes	2.771	n/a	5.0	GoodResponse	0	0.015	24.292	0	1	Feedback	AvoidedLoss	True
26.731	2.771	Lose2	1.0	n/a	Yes	2.771	n/a	n/a	GoodResponse	0	0.0	n/a	0	1	ISIslide	AvoidedLoss	True
29.523	0.25	Control	1.0	0.0	Yes	2.577	0.023	n/a	GoodResponse	0	n/a	n/a	0	2	Cue	Neutral	True
29.774	4.1	Control	1.0	0.0	Yes	2.577	0.001	n/a	GoodResponse	0	n/a	n/a	0	2	Fixation	Neutral	True
33.869	0.38	Control	1.0	0.004	Yes	2.577	-0.004	2.0	GoodResponse	0	0.161	33.03	0	2	Target	Neutral	True
34.03	0.3	Control	1.0	0.004	Yes	2.577	-0.004	2.0	GoodResponse	0	0.161	n/a	0	2	ButtonPress	Neutral	True
34.254	0.32	Control	1.0	n/a	Yes	2.577	n/a	n/a	GoodResponse	0	n/a	n/a	0	2	Blank	Neutral	True
34.571	1.45	Control	1.0	n/a	Yes	2.577	n/a	5.0	GoodResponse	0	0.038	33.609	0	2	Feedback	Neutral	True
36.026	2.577	Control	1.0	n/a	Yes	2.577	n/a	n/a	GoodResponse	0	0.0	n/a	0	2	ISIslide	Neutral	True
38.617	0.25	Win2	0.75	0.0	No	2.833	0.017	n/a	PrematurePress	0	n/a	n/a	0	3	Cue	MissedWin	False
38.867	3.95	Win2	0.75	0.001	No	2.833	0.0	2.0	PrematurePress	0	3.54	41.407	0	3	Fixation	MissedWin	False
42.407	0.3	Win2	0.75	0.001	No	2.833	0.0	2.0	PrematurePress	0	3.54	n/a	0	3	ButtonPress	MissedWin	False
42.813	0.37	Win2	0.75	0.004	No	2.833	-0.004	2.0	PrematurePress	0	0.019	41.832	0	3	Target	MissedWin	False
42.832	0.3	Win2	0.75	0.004	No	2.833	-0.004	2.0	PrematurePress	0	0.019	n/a	0	3	ButtonPress	MissedWin	False
43.197	0.33	Win2	0.75	n/a	No	2.833	n/a	n/a	PrematurePress	0	n/a	n/a	0	3	Blank	MissedWin	False
43.515	1.45	Win2	0.75	n/a	No	2.833	n/a	5.0	PrematurePress	0	0.021	42.536	0	3	Feedback	MissedWin	False
44.969	2.833	Win2	0.75	n/a	No	2.833	n/a	n/a	PrematurePress	0	0.0	n/a	0	3	ISIslide	MissedWin	False
47.828	0.25	Win2	0.8	0.0	Yes	3.272	0.028	n/a	GoodResponse	1	n/a	n/a	1	4	Cue	Win	True
48.078	4.0	Win2	0.8	0.001	Yes	3.272	0.0	n/a	GoodResponse	1	n/a	n/a	1	4	Fixation	Win	True
52.074	0.36	Win2	0.8	0.004	Yes	3.272	-0.004	2.0	GoodResponse	1	0.179	51.253	1	4	Target	Win	True
52.253	0.3	Win2	0.8	0.004	Yes	3.272	-0.004	2.0	GoodResponse	1	0.179	n/a	1	4	ButtonPress	Win	True
52.442	0.34	Win2	0.8	n/a	Yes	3.272	n/a	n/a	GoodResponse	1	n/a	n/a	1	4	Blank	Win	True
52.776	1.45	Win2	0.8	n/a	Yes	3.272	n/a	5.0	GoodResponse	1	0.028	51.804	1	4	Feedback	Win	True
54.23	3.272	Win2	0.8	n/a	Yes	3.272	n/a	n/a	GoodResponse	1	0.0	n/a	1	4	ISIslide	Win	True
57.523	0.25	Win2	0.6667000000000001	0.001	No	2.777	0.023	n/a	PrematurePress	0	n/a	n/a	1	5	Cue	MissedWin	True
57.774	4.0	Win2	0.6667000000000001	0.0	No	2.777	0.001	n/a	PrematurePress	0	n/a	n/a	1	5	Fixation	MissedWin	True
61.77	0.35	Win2	0.6667000000000001	0.003	No	2.777	-0.003	2.0	PrematurePress	0	0.057	60.827	1	5	Target	MissedWin	True
61.827	0.3	Win2	0.6667000000000001	0.003	No	2.777	-0.003	2.0	PrematurePress	0	0.057	n/a	1	5	ButtonPress	MissedWin	True
62.121	0.35	Win2	0.6667000000000001	n/a	No	2.777	n/a	n/a	PrematurePress	0	n/a	n/a	1	5	Blank	MissedWin	True
62.472	1.45	Win2	0.6667000000000001	n/a	No	2.777	n/a	5.0	PrematurePress	0	0.04	61.512	1	5	Feedback	MissedWin	True
63.926	2.777	Win2	0.6667000000000001	n/a	No	2.777	n/a	n/a	PrematurePress	0	0.0	n/a	1	5	ISIslide	MissedWin	True
66.718	0.25	Lose2	0.7143	0.0	Yes	2.732	0.018	n/a	GoodResponse	0	n/a	n/a	1	6	Cue	AvoidedLoss	True
66.968	3.95	Lose2	0.7143	0.001	Yes	2.732	0.0	n/a	GoodResponse	0	n/a	n/a	1	6	Fixation	AvoidedLoss	True
70.914	0.34	Lose2	0.7143	0.004	Yes	2.732	-0.004	2.0	GoodResponse	0	0.193	70.107	1	6	Target	AvoidedLoss	True
71.107	0.3	Lose2	0.7143	0.004	Yes	2.732	-0.004	2.0	GoodResponse	0	0.193	n/a	1	6	ButtonPress	AvoidedLoss	True
71.265	0.36	Lose2	0.7143	n/a	Yes	2.732	n/a	n/a	GoodResponse	0	n/a	n/a	1	6	Blank	AvoidedLoss	True
71.616	1.45	Lose2	0.7143	n/a	Yes	2.732	n/a	5.0	GoodResponse	0	0.018	70.634	1	6	Feedback	AvoidedLoss	True
73.07	2.732	Lose2	0.7143	n/a	Yes	2.732	n/a	n/a	GoodResponse	0	0.0	n/a	1	6	ISIslide	AvoidedLoss	True
75.828	0.25	Lose2	0.75	0.0	Yes	4.022	0.028	n/a	GoodResponse	0	n/a	n/a	1	7	Cue	AvoidedLoss	True
76.079	4.05	Lose2	0.75	0.0	Yes	4.022	0.001	n/a	GoodResponse	0	n/a	n/a	1	7	Fixation	AvoidedLoss	True
80.125	0.33	Lose2	0.75	0.003	Yes	4.022	-0.003	2.0	GoodResponse	0	0.196	79.321	1	7	Target	AvoidedLoss	True
80.321	0.3	Lose2	0.75	0.003	Yes	4.022	-0.003	2.0	GoodResponse	0	0.196	n/a	1	7	ButtonPress	AvoidedLoss	True
80.459	0.37	Lose2	0.75	n/a	Yes	4.022	n/a	n/a	GoodResponse	0	n/a	n/a	1	7	Blank	AvoidedLoss	True
80.827	1.45	Lose2	0.75	n/a	Yes	4.022	n/a	5.0	GoodResponse	0	0.026	79.853	1	7	Feedback	AvoidedLoss	True
82.281	4.022	Lose2	0.75	n/a	Yes	4.022	n/a	n/a	GoodResponse	0	0.0	n/a	1	7	ISIslide	AvoidedLoss	True
86.327	0.25	Lose2	0.7778	0.0	Yes	3.023	0.027	n/a	GoodResponse	0	n/a	n/a	1	8	Cue	AvoidedLoss	True
86.577	3.95	Lose2	0.7778	0.0	Yes	3.023	0.0	n/a	GoodResponse	0	n/a	n/a	1	8	Fixation	AvoidedLoss	True
90.539	0.32	Lose2	0.7778	0.0	Yes	3.023	0.012	2.0	GoodResponse	0	0.171	89.71	1	8	Target	AvoidedLoss	True
90.71	0.3	Lose2	0.7778	0.0	Yes	3.023	0.012	2.0	GoodResponse	0	0.171	n/a	1	8	ButtonPress	AvoidedLoss	True
90.857	0.38	Lose2	0.7778	n/a	Yes	3.023	n/a	n/a	GoodResponse	0	n/a	n/a	1	8	Blank	AvoidedLoss	True
91.225	1.45	Lose2	0.7778	n/a	Yes	3.023	n/a	5.0	GoodResponse	0	0.018	90.243	1	8	Feedback	AvoidedLoss	True
92.679	3.023	Lose2	0.7778	n/a	Yes	3.023	n/a	n/a	GoodResponse	0	0.0	n/a	1	8	ISIslide	AvoidedLoss	True
95.721	0.25	Lose2	0.8	0.0	Yes	3.129	0.021	n/a	GoodResponse	0	n/a	n/a	1	9	Cue	AvoidedLoss	True
95.972	3.95	Lose2	0.8	0.0	Yes	3.129	0.001	n/a	GoodResponse	0	n/a	n/a	1	9	Fixation	AvoidedLoss	True
99.917	0.31	Lose2	0.8	0.004	Yes	3.129	-0.004	2.0	GoodResponse	0	0.243	99.16	1	9	Target	AvoidedLoss	True
100.16	0.3	Lose2	0.8	0.004	Yes	3.129	-0.004	2.0	GoodResponse	0	0.243	n/a	1	9	ButtonPress	AvoidedLoss	True
100.235	0.39	Lose2	0.8	n/a	Yes	3.129	n/a	n/a	GoodResponse	0	n/a	n/a	1	9	Blank	AvoidedLoss	True
100.619	1.45	Lose2	0.8	n/a	Yes	3.129	n/a	5.0	GoodResponse	0	0.038	99.657	1	9	Feedback	AvoidedLoss	True
102.074	3.129	Lose2	0.8	n/a	Yes	3.129	n/a	n/a	GoodResponse	0	0.0	n/a	1	9	ISIslide	AvoidedLoss	True
105.217	0.25	Control	0.8181999999999999	0.0	Yes	3.283	0.017	n/a	GoodResponse	0	n/a	n/a	1	10	Cue	Neutral	True
105.467	4.0	Control	0.8181999999999999	0.0	Yes	3.283	0.0	n/a	GoodResponse	0	n/a	n/a	1	10	Fixation	Neutral	True
109.463	0.3	Control	0.8181999999999999	0.004	Yes	3.283	-0.004	2.0	GoodResponse	0	0.238	108.701	1	10	Target	Neutral	True
109.701	0.3	Control	0.8181999999999999	0.004	Yes	3.283	-0.004	2.0	GoodResponse	0	0.238	n/a	1	10	ButtonPress	Neutral	True
109.764	0.4	Control	0.8181999999999999	n/a	Yes	3.283	n/a	n/a	GoodResponse	0	n/a	n/a	1	10	Blank	Neutral	True
110.165	1.45	Control	0.8181999999999999	n/a	Yes	3.283	n/a	5.0	GoodResponse	0	0.006	109.171	1	10	Feedback	Neutral	True
111.619	3.283	Control	0.8181999999999999	n/a	Yes	3.283	n/a	n/a	GoodResponse	0	0.0	n/a	1	10	ISIslide	Neutral	True
114.929	0.25	Lose2	0.8332999999999999	0.0	Yes	2.721	0.029	n/a	GoodResponse	0	n/a	n/a	1	11	Cue	AvoidedLoss	True
115.18	4.05	Lose2	0.8332999999999999	0.0	Yes	2.721	0.001	n/a	GoodResponse	0	n/a	n/a	1	11	Fixation	AvoidedLoss	True
119.225	0.29	Lose2	0.8332999999999999	0.004	Yes	2.721	-0.004	2.0	GoodResponse	0	0.197	118.422	1	11	Target	AvoidedLoss	True
119.422	0.3	Lose2	0.8332999999999999	0.004	Yes	2.721	-0.004	2.0	GoodResponse	0	0.197	n/a	1	11	ButtonPress	AvoidedLoss	True
119.526	0.41	Lose2	0.8332999999999999	n/a	Yes	2.721	n/a	n/a	GoodResponse	0	n/a	n/a	1	11	Blank	AvoidedLoss	True
119.927	1.45	Lose2	0.8332999999999999	n/a	Yes	2.721	n/a	5.0	GoodResponse	0	0.048	118.975	1	11	Feedback	AvoidedLoss	True
121.382	2.721	Lose2	0.8332999999999999	n/a	Yes	2.721	n/a	n/a	GoodResponse	0	0.0	n/a	1	11	ISIslide	AvoidedLoss	True
124.123	0.25	Control	0.7692	0.0	No	2.977	0.023	n/a	NoResponse	0	n/a	n/a	1	12	Cue	Neutral	True
124.374	3.9	Control	0.7692	0.0	No	2.977	0.001	n/a	NoResponse	0	n/a	n/a	1	12	Fixation	Neutral	True
128.269	0.28	Control	0.7692	0.004	No	2.977	-0.004	2.0	NoResponse	0	0.416	127.685	1	12	Target	Neutral	True
128.553	0.42	Control	0.7692	n/a	No	2.977	n/a	n/a	NoResponse	0	n/a	n/a	1	12	Blank	Neutral	True
128.685	0.3	Control	0.7692	0.004	No	2.977	-0.004	2.0	NoResponse	0	0.416	n/a	1	12	ButtonPress	Neutral	True
128.971	1.45	Control	0.7692	n/a	No	2.977	n/a	5.0	NoResponse	0	0.028	127.999	1	12	Feedback	Neutral	True
130.425	2.977	Control	0.7692	n/a	No	2.977	n/a	n/a	NoResponse	0	0.0	n/a	1	12	ISIslide	Neutral	True
133.418	0.25	Control	0.7857	0.0	Yes	2.782	0.018	n/a	GoodResponse	0	n/a	n/a	1	13	Cue	Neutral	True
133.669	4.0	Control	0.7857	0.0	Yes	2.782	0.001	n/a	GoodResponse	0	n/a	n/a	1	13	Fixation	Neutral	True
137.664	0.27	Control	0.7857	0.004	Yes	2.782	-0.004	2.0	GoodResponse	0	0.186	136.85	1	13	Target	Neutral	True
137.85	0.3	Control	0.7857	0.004	Yes	2.782	-0.004	2.0	GoodResponse	0	0.186	n/a	1	13	ButtonPress	Neutral	True
137.948	0.43	Control	0.7857	n/a	Yes	2.782	n/a	n/a	GoodResponse	0	n/a	n/a	1	13	Blank	Neutral	True
138.366	1.45	Control	0.7857	n/a	Yes	2.782	n/a	5.0	GoodResponse	0	0.048	137.414	1	13	Feedback	Neutral	True
139.82	2.782	Control	0.7857	n/a	Yes	2.782	n/a	n/a	GoodResponse	0	0.0	n/a	1	13	ISIslide	Neutral	True
142.629	0.25	Win2	0.8	0.0	Yes	2.671	0.029	n/a	GoodResponse	1	n/a	n/a	2	14	Cue	Win	True
142.88	4.1	Win2	0.8	0.0	Yes	2.671	0.001	n/a	GoodResponse	1	n/a	n/a	2	14	Fixation	Win	True
146.975	0.26	Win2	0.8	0.004	Yes	2.671	-0.004	2.0	GoodResponse	1	0.248	146.223	2	14	Target	Win	True
147.223	0.3	Win2	0.8	0.004	Yes	2.671	-0.004	2.0	GoodResponse	1	0.248	n/a	2	14	ButtonPress	Win	True
147.243	0.44	Win2	0.8	n/a	Yes	2.671	n/a	n/a	GoodResponse	1	n/a	n/a	2	14	Blank	Win	True
147.677	1.45	Win2	0.8	n/a	Yes	2.671	n/a	5.0	GoodResponse	1	0.006	146.683	2	14	Feedback	Win	True
149.132	2.671	Win2	0.8	n/a	Yes	2.671	n/a	n/a	GoodResponse	1	0.0	n/a	2	14	ISIslide	Win	True
151.823	0.25	Control	0.8125	0.0	Yes	2.977	0.023	n/a	GoodResponse	0	n/a	n/a	2	15	Cue	Neutral	False
152.074	4.0	Control	0.8125	0.0	Yes	2.977	0.001	2.0	GoodResponse	0	3.2	154.274	2	15	Fixation	Neutral	False
155.274	0.3	Control	0.8125	0.0	Yes	2.977	0.001	2.0	GoodResponse	0	3.2	n/a	2	15	ButtonPress	Neutral	False
156.069	0.25	Control	0.8125	0.004	Yes	2.977	-0.004	2.0	GoodResponse	0	0.167	155.236	2	15	Target	Neutral	False
156.236	0.3	Control	0.8125	0.004	Yes	2.977	-0.004	2.0	GoodResponse	0	0.167	n/a	2	15	ButtonPress	Neutral	False
156.32	0.45	Control	0.8125	n/a	Yes	2.977	n/a	n/a	GoodResponse	0	n/a	n/a	2	15	Blank	Neutral	False
156.771	1.45	Control	0.8125	n/a	Yes	2.977	n/a	5.0	GoodResponse	0	0.033	155.804	2	15	Feedback	Neutral	False
158.226	2.977	Control	0.8125	n/a	Yes	2.977	n/a	n/a	GoodResponse	0	0.0	n/a	2	15	ISIslide	Neutral	False
161.218	0.25	Win2	0.8234999999999999	0.0	Yes	2.882	0.018	n/a	GoodResponse	1	n/a	n/a	3	16	Cue	Win	True
161.469	4.0	Win2	0.8234999999999999	0.0	Yes	2.882	0.001	n/a	GoodResponse	1	n/a	n/a	3	16	Fixation	Win	True
165.464	0.24	Win2	0.8234999999999999	0.004	Yes	2.882	-0.004	2.0	GoodResponse	1	0.161	164.625	3	16	Target	Win	True
165.625	0.3	Win2	0.8234999999999999	0.004	Yes	2.882	-0.004	2.0	GoodResponse	1	0.161	n/a	3	16	ButtonPress	Win	True
165.715	0.46	Win2	0.8234999999999999	n/a	Yes	2.882	n/a	n/a	GoodResponse	1	n/a	n/a	3	16	Blank	Win	True
166.166	1.45	Win2	0.8234999999999999	n/a	Yes	2.882	n/a	5.0	GoodResponse	1	0.006	165.172	3	16	Feedback	Win	True
167.62	2.882	Win2	0.8234999999999999	n/a	Yes	2.882	n/a	n/a	GoodResponse	1	0.0	n/a	3	16	ISIslide	Win	True
170.529	0.25	Lose2	0.8332999999999999	0.0	Yes	2.721	0.029	n/a	GoodResponse	0	n/a	n/a	3	17	Cue	AvoidedLoss	True
170.78	3.95	Lose2	0.8332999999999999	0.0	Yes	2.721	0.001	n/a	GoodResponse	0	n/a	n/a	3	17	Fixation	AvoidedLoss	True
174.725	0.23	Lose2	0.8332999999999999	0.004	Yes	2.721	-0.004	2.0	GoodResponse	0	0.167	173.892	3	17	Target	AvoidedLoss	True
174.892	0.3	Lose2	0.8332999999999999	0.004	Yes	2.721	-0.004	2.0	GoodResponse	0	0.167	n/a	3	17	ButtonPress	AvoidedLoss	True
174.959	0.47	Lose2	0.8332999999999999	n/a	Yes	2.721	n/a	n/a	GoodResponse	0	n/a	n/a	3	17	Blank	AvoidedLoss	True
175.427	1.45	Lose2	0.8332999999999999	n/a	Yes	2.721	n/a	5.0	GoodResponse	0	0.011	174.438	3	17	Feedback	AvoidedLoss	True
176.882	2.721	Lose2	0.8332999999999999	n/a	Yes	2.721	n/a	n/a	GoodResponse	0	0.0	n/a	3	17	ISIslide	AvoidedLoss	True
179.623	0.25	Lose2	0.8421	0.0	Yes	2.727	0.023	n/a	GoodResponse	0	n/a	n/a	3	18	Cue	AvoidedLoss	True
179.874	4.05	Lose2	0.8421	0.0	Yes	2.727	0.001	n/a	GoodResponse	0	n/a	n/a	3	18	Fixation	AvoidedLoss	True
183.919	0.22	Lose2	0.8421	0.004	Yes	2.727	-0.004	2.0	GoodResponse	0	0.171	183.09	3	18	Target	AvoidedLoss	True
184.09	0.3	Lose2	0.8421	0.004	Yes	2.727	-0.004	2.0	GoodResponse	0	0.171	n/a	3	18	ButtonPress	AvoidedLoss	True
184.153	0.48	Lose2	0.8421	n/a	Yes	2.727	n/a	n/a	GoodResponse	0	n/a	n/a	3	18	Blank	AvoidedLoss	True
184.621	1.45	Lose2	0.8421	n/a	Yes	2.727	n/a	5.0	GoodResponse	0	0.036	183.657	3	18	Feedback	AvoidedLoss	True
186.076	2.727	Lose2	0.8421	n/a	Yes	2.727	n/a	n/a	GoodResponse	0	0.0	n/a	3	18	ISIslide	AvoidedLoss	True
188.817	0.25	Control	0.8	0.0	No	2.933	0.017	n/a	NoResponse	0	n/a	n/a	3	19	Cue	Neutral	True
189.068	3.95	Control	0.8	0.0	No	2.933	0.001	n/a	NoResponse	0	n/a	n/a	3	19	Fixation	Neutral	True
193.013	0.21	Control	0.8	0.004	No	2.933	-0.004	2.0	NoResponse	0	0.245	192.258	3	19	Target	Neutral	True
193.231	0.49	Control	0.8	n/a	No	2.933	n/a	n/a	NoResponse	0	n/a	n/a	3	19	Blank	Neutral	True
193.258	0.3	Control	0.8	0.004	No	2.933	-0.004	2.0	NoResponse	0	0.245	n/a	3	19	ButtonPress	Neutral	True
193.715	1.45	Control	0.8	n/a	No	2.933	n/a	5.0	NoResponse	0	0.015	192.73	3	19	Feedback	Neutral	True
195.17	2.933	Control	0.8	n/a	No	2.933	n/a	n/a	NoResponse	0	0.0	n/a	3	19	ISIslide	Neutral	True
198.129	0.25	Control	0.8095	0.0	Yes	2.621	0.029	n/a	GoodResponse	0	n/a	n/a	3	20	Cue	Neutral	True
198.379	4.05	Control	0.8095	0.0	Yes	2.621	0.0	n/a	GoodResponse	0	n/a	n/a	3	20	Fixation	Neutral	True
202.425	0.2	Control	0.8095	0.004	Yes	2.621	-0.004	2.0	GoodResponse	0	0.185	201.61	3	20	Target	Neutral	True
202.61	0.3	Control	0.8095	0.004	Yes	2.621	-0.004	2.0	GoodResponse	0	0.185	n/a	3	20	ButtonPress	Neutral	True
202.625	0.5	Control	0.8095	n/a	Yes	2.621	n/a	n/a	GoodResponse	0	n/a	n/a	3	20	Blank	Neutral	True
203.127	1.45	Control	0.8095	n/a	Yes	2.621	n/a	5.0	GoodResponse	0	0.018	202.145	3	20	Feedback	Neutral	True
204.581	2.621	Control	0.8095	n/a	Yes	2.621	n/a	n/a	GoodResponse	0	0.0	n/a	3	20	ISIslide	Neutral	True
207.223	0.25	Control	0.7726999999999999	0.0	No	2.777	0.023	n/a	NoResponse	0	n/a	n/a	3	21	Cue	Neutral	False
207.473	4.1	Control	0.7726999999999999	0.0	No	2.777	0.0	n/a	NoResponse	0	n/a	n/a	3	21	Fixation	Neutral	False
211.569	0.19	Control	0.7726999999999999	0.004	No	2.777	-0.004	n/a	NoResponse	0	n/a	n/a	3	21	Target	Neutral	False
211.77	0.51	Control	0.7726999999999999	n/a	No	2.777	n/a	n/a	NoResponse	0	n/a	n/a	3	21	Blank	Neutral	False
212.271	1.45	Control	0.7726999999999999	n/a	No	2.777	n/a	5.0	NoResponse	0	0.045	211.316	3	21	Feedback	Neutral	False
213.725	2.777	Control	0.7726999999999999	n/a	No	2.777	n/a	n/a	NoResponse	0	0.0	n/a	3	21	ISIslide	Neutral	False
216.517	0.25	Control	0.7391	0.0	No	2.783	0.017	n/a	NoResponse	0	n/a	n/a	3	22	Cue	Neutral	True
216.768	4.0	Control	0.7391	0.0	No	2.783	0.001	n/a	NoResponse	0	n/a	n/a	3	22	Fixation	Neutral	True
220.763	0.18	Control	0.7391	0.004	No	2.783	-0.004	2.0	NoResponse	0	0.201	219.964	3	22	Target	Neutral	True
220.947	0.52	Control	0.7391	n/a	No	2.783	n/a	n/a	NoResponse	0	n/a	n/a	3	22	Blank	Neutral	True
220.964	0.3	Control	0.7391	0.004	No	2.783	-0.004	2.0	NoResponse	0	0.201	n/a	3	22	ButtonPress	Neutral	True
221.465	1.45	Control	0.7391	n/a	No	2.783	n/a	5.0	NoResponse	0	0.022	220.487	3	22	Feedback	Neutral	True
222.92	2.783	Control	0.7391	n/a	No	2.783	n/a	n/a	NoResponse	0	0.0	n/a	3	22	ISIslide	Neutral	True
225.728	0.25	Control	0.75	0.0	Yes	2.772	0.028	n/a	GoodResponse	0	n/a	n/a	3	23	Cue	Neutral	True
225.979	3.9	Control	0.75	0.0	Yes	2.772	0.001	n/a	GoodResponse	0	n/a	n/a	3	23	Fixation	Neutral	True
229.874	0.17	Control	0.75	0.004	Yes	2.772	-0.004	2.0	GoodResponse	0	0.166	229.04	3	23	Target	Neutral	True
230.04	0.3	Control	0.75	0.004	Yes	2.772	-0.004	2.0	GoodResponse	0	0.166	n/a	3	23	ButtonPress	Neutral	True
230.058	0.53	Control	0.75	n/a	Yes	2.772	n/a	n/a	GoodResponse	0	n/a	n/a	3	23	Blank	Neutral	True
230.576	1.45	Control	0.75	n/a	Yes	2.772	n/a	5.0	GoodResponse	0	0.033	229.609	3	23	Feedback	Neutral	True
232.03	2.772	Control	0.75	n/a	Yes	2.772	n/a	n/a	GoodResponse	0	0.0	n/a	3	23	ISIslide	Neutral	True
234.822	0.25	Win2	0.72	0.0	No	3.128	0.022	n/a	LatePress	0	n/a	n/a	3	24	Cue	MissedWin	True
235.073	3.95	Win2	0.72	0.0	No	3.128	0.001	n/a	LatePress	0	n/a	n/a	3	24	Fixation	MissedWin	True
239.018	0.16	Win2	0.72	0.004	No	3.128	-0.004	2.0	LatePress	0	0.165	238.183	3	24	Target	MissedWin	True
239.183	0.3	Win2	0.72	0.004	No	3.128	-0.004	2.0	LatePress	0	0.165	n/a	3	24	ButtonPress	MissedWin	True
239.185	0.54	Win2	0.72	n/a	No	3.128	n/a	n/a	LatePress	0	n/a	n/a	3	24	Blank	MissedWin	True
239.72	1.45	Win2	0.72	n/a	No	3.128	n/a	5.0	LatePress	0	0.01	238.73	3	24	Feedback	MissedWin	True
241.174	3.128	Win2	0.72	n/a	No	3.128	n/a	n/a	LatePress	0	0.0	n/a	3	24	ISIslide	MissedWin	True
244.317	0.25	Win2	0.6923	0.0	No	3.083	0.017	n/a	NoResponse	0	n/a	n/a	3	25	Cue	MissedWin	False
244.568	4.0	Win2	0.6923	0.0	No	3.083	0.001	2.0	NoResponse	0	3.79	247.358	3	25	Fixation	MissedWin	False
248.358	0.3	Win2	0.6923	0.0	No	3.083	0.001	2.0	NoResponse	0	3.79	n/a	3	25	ButtonPress	MissedWin	False
248.563	0.15	Win2	0.6923	0.004	No	3.083	-0.004	2.0	NoResponse	0	0.16	247.723	3	25	Target	MissedWin	False
248.714	0.55	Win2	0.6923	n/a	No	3.083	n/a	n/a	NoResponse	0	n/a	n/a	3	25	Blank	MissedWin	False
248.723	0.3	Win2	0.6923	0.004	No	3.083	-0.004	2.0	NoResponse	0	0.16	n/a	3	25	ButtonPress	MissedWin	False
249.265	1.45	Win2	0.6923	n/a	No	3.083	n/a	5.0	NoResponse	0	0.026	248.291	3	25	Feedback	MissedWin	False
250.72	3.083	Win2	0.6923	n/a	No	3.083	n/a	n/a	NoResponse	0	0.0	n/a	3	25	ISIslide	MissedWin	False
253.829	0.25	Win2	0.6667000000000001	0.0	No	2.921	0.029	n/a	NoResponse	0	n/a	n/a	3	26	Cue	MissedWin	True
254.08	3.95	Win2	0.6667000000000001	0.0	No	2.921	0.001	n/a	NoResponse	0	n/a	n/a	3	26	Fixation	MissedWin	True
258.025	0.15	Win2	0.6667000000000001	0.004	No	2.921	-0.004	2.0	NoResponse	0	0.176	257.201	3	26	Target	MissedWin	True
258.175	0.55	Win2	0.6667000000000001	n/a	No	2.921	n/a	n/a	NoResponse	0	n/a	n/a	3	26	Blank	MissedWin	True
258.201	0.3	Win2	0.6667000000000001	0.004	No	2.921	-0.004	2.0	NoResponse	0	0.176	n/a	3	26	ButtonPress	MissedWin	True
258.727	1.45	Win2	0.6667000000000001	n/a	No	2.921	n/a	5.0	NoResponse	0	0.028	257.755	3	26	Feedback	MissedWin	True
260.181	2.921	Win2	0.6667000000000001	n/a	No	2.921	n/a	n/a	NoResponse	0	0.0	n/a	3	26	ISIslide	MissedWin	True
263.124	0.25	Lose2	0.6429	0.0	No	2.826	0.024	n/a	NoResponse	-1	n/a	n/a	2	27	Cue	Loss	True
263.374	4.05	Lose2	0.6429	0.0	No	2.826	0.0	n/a	NoResponse	-1	n/a	n/a	2	27	Fixation	Loss	True
267.42	0.15	Lose2	0.6429	0.004	No	2.826	-0.004	2.0	NoResponse	-1	0.167	266.587	2	27	Target	Loss	True
267.57	0.55	Lose2	0.6429	n/a	No	2.826	n/a	n/a	NoResponse	-1	n/a	n/a	2	27	Blank	Loss	True
267.587	0.3	Lose2	0.6429	0.004	No	2.826	-0.004	2.0	NoResponse	-1	0.167	n/a	2	27	ButtonPress	Loss	True
268.122	1.45	Lose2	0.6429	n/a	No	2.826	n/a	5.0	NoResponse	-1	0.047	267.169	2	27	Feedback	Loss	True
269.576	2.826	Lose2	0.6429	n/a	No	2.826	n/a	n/a	NoResponse	-1	0.0	n/a	2	27	ISIslide	Loss	True
272.418	0.25	Control	0.6207	0.0	No	2.832	0.018	n/a	PrematurePress	0	n/a	n/a	2	28	Cue	Neutral	False
272.669	4.05	Control	0.6207	0.0	No	2.832	0.001	2.0	PrematurePress	0	3.773	275.442	2	28	Fixation	Neutral	False
276.442	0.3	Control	0.6207	0.0	No	2.832	0.001	2.0	PrematurePress	0	3.773	n/a	2	28	ButtonPress	Neutral	False
276.714	0.16	Control	0.6207	0.004	No	2.832	-0.004	2.0	PrematurePress	0	0.094	275.808	2	28	Target	Neutral	False
276.808	0.3	Control	0.6207	0.004	No	2.832	-0.004	2.0	PrematurePress	0	0.094	n/a	2	28	ButtonPress	Neutral	False
276.881	0.54	Control	0.6207	n/a	No	2.832	n/a	n/a	PrematurePress	0	n/a	n/a	2	28	Blank	Neutral	False
277.416	1.45	Control	0.6207	n/a	No	2.832	n/a	5.0	PrematurePress	0	0.022	276.438	2	28	Feedback	Neutral	False
278.871	2.832	Control	0.6207	n/a	No	2.832	n/a	n/a	PrematurePress	0	0.0	n/a	2	28	ISIslide	Neutral	False
281.729	0.25	Lose2	0.6	0.0	No	2.821	0.029	n/a	LatePress	-1	n/a	n/a	1	29	Cue	Loss	True
281.98	3.95	Lose2	0.6	0.0	No	2.821	0.001	n/a	LatePress	-1	n/a	n/a	1	29	Fixation	Loss	True
285.925	0.17	Lose2	0.6	0.004	No	2.821	-0.004	2.0	LatePress	-1	0.18	285.105	1	29	Target	Loss	True
286.105	0.3	Lose2	0.6	0.004	No	2.821	-0.004	2.0	LatePress	-1	0.18	n/a	1	29	ButtonPress	Loss	True
286.109	0.53	Lose2	0.6	n/a	No	2.821	n/a	n/a	LatePress	-1	n/a	n/a	1	29	Blank	Loss	True
286.627	1.45	Lose2	0.6	n/a	No	2.821	n/a	5.0	LatePress	-1	0.03	285.657	1	29	Feedback	Loss	True
288.082	2.821	Lose2	0.6	n/a	No	2.821	n/a	n/a	LatePress	-1	0.0	n/a	1	29	ISIslide	Loss	True
290.924	0.25	Win2	0.5806	0.0	No	2.776	0.024	n/a	NoResponse	0	n/a	n/a	1	30	Cue	MissedWin	True
291.174	3.9	Win2	0.5806	0.0	No	2.776	0.0	n/a	NoResponse	0	n/a	n/a	1	30	Fixation	MissedWin	True
295.086	0.18	Win2	0.5806	0.0	No	2.776	0.012	2.0	NoResponse	0	0.18	294.266	1	30	Target	MissedWin	True
295.253	0.52	Win2	0.5806	n/a	No	2.776	n/a	n/a	NoResponse	0	n/a	n/a	1	30	Blank	MissedWin	True
295.266	0.3	Win2	0.5806	0.0	No	2.776	0.012	2.0	NoResponse	0	0.18	n/a	1	30	ButtonPress	MissedWin	True
295.771	1.45	Win2	0.5806	n/a	No	2.776	n/a	5.0	NoResponse	0	0.008	294.779	1	30	Feedback	MissedWin	True
297.226	2.776	Win2	0.5806	n/a	No	2.776	n/a	n/a	NoResponse	0	0.0	n/a	1	30	ISIslide	MissedWin	True
300.018	0.25	Lose2	0.5938	0.0	Yes	2.832	0.018	n/a	GoodResponse	0	n/a	n/a	1	31	Cue	AvoidedLoss	True
300.268	4.05	Lose2	0.5938	0.0	Yes	2.832	0.0	n/a	GoodResponse	0	n/a	n/a	1	31	Fixation	AvoidedLoss	True
304.314	0.19	Lose2	0.5938	0.004	Yes	2.832	-0.004	2.0	GoodResponse	0	0.172	303.486	1	31	Target	AvoidedLoss	True
304.486	0.3	Lose2	0.5938	0.004	Yes	2.832	-0.004	2.0	GoodResponse	0	0.172	n/a	1	31	ButtonPress	AvoidedLoss	True
304.514	0.51	Lose2	0.5938	n/a	Yes	2.832	n/a	n/a	GoodResponse	0	n/a	n/a	1	31	Blank	AvoidedLoss	True
305.016	1.45	Lose2	0.5938	n/a	Yes	2.832	n/a	5.0	GoodResponse	0	0.032	304.048	1	31	Feedback	AvoidedLoss	True
306.47	2.832	Lose2	0.5938	n/a	Yes	2.832	n/a	n/a	GoodResponse	0	0.0	n/a	1	31	ISIslide	AvoidedLoss	True
309.329	0.25	Lose2	0.6061	0.0	Yes	2.621	0.029	n/a	GoodResponse	0	n/a	n/a	1	32	Cue	AvoidedLoss	True
309.58	4.15	Lose2	0.6061	0.0	Yes	2.621	0.001	n/a	GoodResponse	0	n/a	n/a	1	32	Fixation	AvoidedLoss	True
313.725	0.2	Lose2	0.6061	0.004	Yes	2.621	-0.004	2.0	GoodResponse	0	0.177	312.902	1	32	Target	AvoidedLoss	True
313.902	0.3	Lose2	0.6061	0.004	Yes	2.621	-0.004	2.0	GoodResponse	0	0.177	n/a	1	32	ButtonPress	AvoidedLoss	True
313.926	0.5	Lose2	0.6061	n/a	Yes	2.621	n/a	n/a	GoodResponse	0	n/a	n/a	1	32	Blank	AvoidedLoss	True
314.427	1.45	Lose2	0.6061	n/a	Yes	2.621	n/a	5.0	GoodResponse	0	0.034	313.461	1	32	Feedback	AvoidedLoss	True
315.882	2.621	Lose2	0.6061	n/a	Yes	2.621	n/a	n/a	GoodResponse	0	0.0	n/a	1	32	ISIslide	AvoidedLoss	True
318.523	0.25	Win2	0.6175999999999999	0.0	Yes	2.677	0.023	n/a	GoodResponse	1	n/a	n/a	2	33	Cue	Win	True
318.774	4.0	Win2	0.6175999999999999	0.0	Yes	2.677	0.001	n/a	GoodResponse	1	n/a	n/a	2	33	Fixation	Win	True
322.769	0.21	Win2	0.6175999999999999	0.004	Yes	2.677	-0.004	2.0	GoodResponse	1	0.153	321.922	2	33	Target	Win	True
322.922	0.3	Win2	0.6175999999999999	0.004	Yes	2.677	-0.004	2.0	GoodResponse	1	0.153	n/a	2	33	ButtonPress	Win	True
322.986	0.49	Win2	0.6175999999999999	n/a	Yes	2.677	n/a	n/a	GoodResponse	1	n/a	n/a	2	33	Blank	Win	True
323.471	1.45	Win2	0.6175999999999999	n/a	Yes	2.677	n/a	5.0	GoodResponse	1	0.015	322.486	2	33	Feedback	Win	True
324.926	2.677	Win2	0.6175999999999999	n/a	Yes	2.677	n/a	n/a	GoodResponse	1	0.0	n/a	2	33	ISIslide	Win	True
327.617	0.25	Lose2	0.6286	0.0	Yes	2.633	0.017	n/a	GoodResponse	0	n/a	n/a	2	34	Cue	AvoidedLoss	True
327.868	4.05	Lose2	0.6286	0.0	Yes	2.633	0.001	n/a	GoodResponse	0	n/a	n/a	2	34	Fixation	AvoidedLoss	True
331.913	0.22	Lose2	0.6286	0.004	Yes	2.633	-0.004	2.0	GoodResponse	0	0.174	331.087	2	34	Target	AvoidedLoss	True
332.087	0.3	Lose2	0.6286	0.004	Yes	2.633	-0.004	2.0	GoodResponse	0	0.174	n/a	2	34	ButtonPress	AvoidedLoss	True
332.147	0.48	Lose2	0.6286	n/a	Yes	2.633	n/a	n/a	GoodResponse	0	n/a	n/a	2	34	Blank	AvoidedLoss	True
332.615	1.45	Lose2	0.6286	n/a	Yes	2.633	n/a	5.0	GoodResponse	0	0.042	331.657	2	34	Feedback	AvoidedLoss	True
334.07	2.633	Lose2	0.6286	n/a	Yes	2.633	n/a	n/a	GoodResponse	0	0.0	n/a	2	34	ISIslide	AvoidedLoss	True
336.728	0.25	Lose2	0.6389	0.0	Yes	2.672	0.028	n/a	GoodResponse	0	n/a	n/a	2	35	Cue	AvoidedLoss	True
336.978	4.0	Lose2	0.6389	0.001	Yes	2.672	0.0	n/a	GoodResponse	0	n/a	n/a	2	35	Fixation	AvoidedLoss	True
340.974	0.23	Lose2	0.6389	0.004	Yes	2.672	-0.004	2.0	GoodResponse	0	0.192	340.166	2	35	Target	AvoidedLoss	True
341.166	0.3	Lose2	0.6389	0.004	Yes	2.672	-0.004	2.0	GoodResponse	0	0.192	n/a	2	35	ButtonPress	AvoidedLoss	True
341.208	0.47	Lose2	0.6389	n/a	Yes	2.672	n/a	n/a	GoodResponse	0	n/a	n/a	2	35	Blank	AvoidedLoss	True
341.676	1.45	Lose2	0.6389	n/a	Yes	2.672	n/a	5.0	GoodResponse	0	0.006	340.682	2	35	Feedback	AvoidedLoss	True
343.13	2.672	Lose2	0.6389	n/a	Yes	2.672	n/a	n/a	GoodResponse	0	0.0	n/a	2	35	ISIslide	AvoidedLoss	True
345.822	0.25	Control	0.6215999999999999	0.0	No	2.678	0.022	n/a	PrematurePress	0	n/a	n/a	2	36	Cue	Neutral	False
346.072	4.0	Control	0.6215999999999999	0.0	No	2.678	0.0	2.0	PrematurePress	0	3.691	348.763	2	36	Fixation	Neutral	False
349.763	0.3	Control	0.6215999999999999	0.0	No	2.678	0.0	2.0	PrematurePress	0	3.691	n/a	2	36	ButtonPress	Neutral	False
350.068	0.24	Control	0.6215999999999999	0.004	No	2.678	-0.004	2.0	PrematurePress	0	0.021	349.089	2	36	Target	Neutral	False
350.089	0.3	Control	0.6215999999999999	0.004	No	2.678	-0.004	2.0	PrematurePress	0	0.021	n/a	2	36	ButtonPress	Neutral	False
350.318	0.46	Control	0.6215999999999999	n/a	No	2.678	n/a	n/a	PrematurePress	0	n/a	n/a	2	36	Blank	Neutral	False
350.77	1.45	Control	0.6215999999999999	n/a	No	2.678	n/a	5.0	PrematurePress	0	0.033	349.803	2	36	Feedback	Neutral	False
352.224	2.678	Control	0.6215999999999999	n/a	No	2.678	n/a	n/a	PrematurePress	0	0.0	n/a	2	36	ISIslide	Neutral	False
354.916	0.25	Win2	0.6315999999999999	0.0	Yes	2.884	0.016	n/a	GoodResponse	1	n/a	n/a	3	37	Cue	Win	True
355.166	4.0	Win2	0.6315999999999999	0.0	Yes	2.884	0.0	n/a	GoodResponse	1	n/a	n/a	3	37	Fixation	Win	True
359.162	0.25	Win2	0.6315999999999999	0.004	Yes	2.884	-0.004	2.0	GoodResponse	1	0.184	358.346	3	37	Target	Win	True
359.346	0.3	Win2	0.6315999999999999	0.004	Yes	2.884	-0.004	2.0	GoodResponse	1	0.184	n/a	3	37	ButtonPress	Win	True
359.412	0.45	Win2	0.6315999999999999	n/a	Yes	2.884	n/a	n/a	GoodResponse	1	n/a	n/a	3	37	Blank	Win	True
359.864	1.45	Win2	0.6315999999999999	n/a	Yes	2.884	n/a	5.0	GoodResponse	1	0.013	358.877	3	37	Feedback	Win	True
361.318	2.884	Win2	0.6315999999999999	n/a	Yes	2.884	n/a	n/a	GoodResponse	1	0.0	n/a	3	37	ISIslide	Win	True
364.227	0.25	Lose2	0.6409999999999999	0.0	Yes	2.823	0.027	n/a	GoodResponse	0	n/a	n/a	3	38	Cue	AvoidedLoss	True
364.478	3.95	Lose2	0.6409999999999999	0.0	Yes	2.823	0.001	n/a	GoodResponse	0	n/a	n/a	3	38	Fixation	AvoidedLoss	True
368.423	0.26	Lose2	0.6409999999999999	0.004	Yes	2.823	-0.004	2.0	GoodResponse	0	0.19	367.613	3	38	Target	AvoidedLoss	True
368.613	0.3	Lose2	0.6409999999999999	0.004	Yes	2.823	-0.004	2.0	GoodResponse	0	0.19	n/a	3	38	ButtonPress	AvoidedLoss	True
368.69	0.44	Lose2	0.6409999999999999	n/a	Yes	2.823	n/a	n/a	GoodResponse	0	n/a	n/a	3	38	Blank	AvoidedLoss	True
369.125	1.45	Lose2	0.6409999999999999	n/a	Yes	2.823	n/a	5.0	GoodResponse	0	0.02	368.145	3	38	Feedback	AvoidedLoss	True
370.579	2.823	Lose2	0.6409999999999999	n/a	Yes	2.823	n/a	n/a	GoodResponse	0	0.0	n/a	3	38	ISIslide	AvoidedLoss	True
373.421	0.25	Win2	0.625	0.0	No	2.979	0.021	n/a	LatePress	0	n/a	n/a	3	39	Cue	MissedWin	True
373.672	4.1	Win2	0.625	0.0	No	2.979	0.001	n/a	LatePress	0	n/a	n/a	3	39	Fixation	MissedWin	True
377.767	0.27	Win2	0.625	0.004	No	2.979	-0.004	2.0	LatePress	0	0.272	377.039	3	39	Target	MissedWin	True
378.039	0.3	Win2	0.625	0.004	No	2.979	-0.004	2.0	LatePress	0	0.272	n/a	3	39	ButtonPress	MissedWin	True
378.052	0.43	Win2	0.625	n/a	No	2.979	n/a	n/a	LatePress	0	n/a	n/a	3	39	Blank	MissedWin	True
378.47	1.45	Win2	0.625	n/a	No	2.979	n/a	5.0	LatePress	0	0.041	377.511	3	39	Feedback	MissedWin	True
379.924	2.979	Win2	0.625	n/a	No	2.979	n/a	n/a	LatePress	0	0.0	n/a	3	39	ISIslide	MissedWin	True
382.916	0.25	Win2	0.6341	0.0	Yes	2.734	0.016	n/a	GoodResponse	1	n/a	n/a	4	40	Cue	Win	True
383.167	3.95	Win2	0.6341	0.0	Yes	2.734	0.001	n/a	GoodResponse	1	n/a	n/a	4	40	Fixation	Win	True
387.112	0.28	Win2	0.6341	0.004	Yes	2.734	-0.004	2.0	GoodResponse	1	0.208	386.32	4	40	Target	Win	True
387.32	0.3	Win2	0.6341	0.004	Yes	2.734	-0.004	2.0	GoodResponse	1	0.208	n/a	4	40	ButtonPress	Win	True
387.396	0.42	Win2	0.6341	n/a	Yes	2.734	n/a	n/a	GoodResponse	1	n/a	n/a	4	40	Blank	Win	True
387.814	1.45	Win2	0.6341	n/a	Yes	2.734	n/a	5.0	GoodResponse	1	0.013	386.827	4	40	Feedback	Win	True
389.269	2.734	Win2	0.6341	n/a	Yes	2.734	n/a	n/a	GoodResponse	1	0.0	n/a	4	40	ISIslide	Win	True
392.027	0.25	Win2	0.619	0.0	No	2.773	0.027	n/a	NoResponse	0	n/a	n/a	4	41	Cue	MissedWin	True
392.278	3.9	Win2	0.619	0.0	No	2.773	0.001	n/a	NoResponse	0	n/a	n/a	4	41	Fixation	MissedWin	True
396.173	0.29	Win2	0.619	0.004	No	2.773	-0.004	2.0	NoResponse	0	0.317	395.49	4	41	Target	MissedWin	True
396.474	0.41	Win2	0.619	n/a	No	2.773	n/a	n/a	NoResponse	0	n/a	n/a	4	41	Blank	MissedWin	True
396.49	0.3	Win2	0.619	0.004	No	2.773	-0.004	2.0	NoResponse	0	0.317	n/a	4	41	ButtonPress	MissedWin	True
396.875	1.45	Win2	0.619	n/a	No	2.773	n/a	5.0	NoResponse	0	0.025	395.9	4	41	Feedback	MissedWin	True
398.329	2.773	Win2	0.619	n/a	No	2.773	n/a	n/a	NoResponse	0	0.0	n/a	4	41	ISIslide	MissedWin	True
401.121	0.25	Control	0.6279	0.0	Yes	2.929	0.021	n/a	GoodResponse	0	n/a	n/a	4	42	Cue	Neutral	True
401.372	3.85	Control	0.6279	0.0	Yes	2.929	0.001	n/a	GoodResponse	0	n/a	n/a	4	42	Fixation	Neutral	True
405.233	0.3	Control	0.6279	0.0	Yes	2.929	0.012	2.0	GoodResponse	0	0.167	404.4	4	42	Target	Neutral	True
405.4	0.3	Control	0.6279	0.0	Yes	2.929	0.012	2.0	GoodResponse	0	0.167	n/a	4	42	ButtonPress	Neutral	True
405.517	0.4	Control	0.6279	n/a	Yes	2.929	n/a	n/a	GoodResponse	0	n/a	n/a	4	42	Blank	Neutral	True
405.919	1.45	Control	0.6279	n/a	Yes	2.929	n/a	5.0	GoodResponse	0	0.006	404.925	4	42	Feedback	Neutral	True
407.373	2.929	Control	0.6279	n/a	Yes	2.929	n/a	n/a	GoodResponse	0	0.0	n/a	4	42	ISIslide	Neutral	True
410.315	0.25	Win2	0.6364	0.0	Yes	3.185	0.015	n/a	GoodResponse	1	n/a	n/a	5	43	Cue	Win	False
410.566	4.0	Win2	0.6364	0.0	Yes	3.185	0.001	2.0	GoodResponse	1	3.79	413.356	5	43	Fixation	Win	False
414.356	0.3	Win2	0.6364	0.0	Yes	3.185	0.001	2.0	GoodResponse	1	3.79	n/a	5	43	ButtonPress	Win	False
414.561	0.31	Win2	0.6364	0.004	Yes	3.185	-0.004	2.0	GoodResponse	1	0.1	413.661	5	43	Target	Win	False
414.661	0.3	Win2	0.6364	0.004	Yes	3.185	-0.004	2.0	GoodResponse	1	0.1	n/a	5	43	ButtonPress	Win	False
414.879	0.39	Win2	0.6364	n/a	Yes	3.185	n/a	n/a	GoodResponse	1	n/a	n/a	5	43	Blank	Win	False
415.263	1.45	Win2	0.6364	n/a	Yes	3.185	n/a	5.0	GoodResponse	1	0.028	414.291	5	43	Feedback	Win	False
416.718	3.185	Win2	0.6364	n/a	Yes	3.185	n/a	n/a	GoodResponse	1	0.0	n/a	5	43	ISIslide	Win	False
419.927	0.25	Win2	0.6444	0.0	Yes	2.973	0.027	n/a	GoodResponse	1	n/a	n/a	6	44	Cue	Win	True
420.178	4.0	Win2	0.6444	0.0	Yes	2.973	0.001	n/a	GoodResponse	1	n/a	n/a	6	44	Fixation	Win	True
424.173	0.32	Win2	0.6444	0.004	Yes	2.973	-0.004	2.0	GoodResponse	1	0.218	423.391	6	44	Target	Win	True
424.391	0.3	Win2	0.6444	0.004	Yes	2.973	-0.004	2.0	GoodResponse	1	0.218	n/a	6	44	ButtonPress	Win	True
424.508	0.38	Win2	0.6444	n/a	Yes	2.973	n/a	n/a	GoodResponse	1	n/a	n/a	6	44	Blank	Win	True
424.875	1.45	Win2	0.6444	n/a	Yes	2.973	n/a	5.0	GoodResponse	1	0.026	423.901	6	44	Feedback	Win	True
426.33	2.973	Win2	0.6444	n/a	Yes	2.973	n/a	n/a	GoodResponse	1	0.0	n/a	6	44	ISIslide	Win	True
429.322	0.25	Control	0.6304	0.0	No	2.878	0.022	n/a	NoResponse	0	n/a	n/a	6	45	Cue	Neutral	False
429.573	4.1	Control	0.6304	0.0	No	2.878	0.001	n/a	NoResponse	0	n/a	n/a	6	45	Fixation	Neutral	False
433.668	0.33	Control	0.6304	0.004	No	2.878	-0.004	n/a	NoResponse	0	n/a	n/a	6	45	Target	Neutral	False
434.003	0.37	Control	0.6304	n/a	No	2.878	n/a	n/a	NoResponse	0	n/a	n/a	6	45	Blank	Neutral	False
434.371	1.45	Control	0.6304	n/a	No	2.878	n/a	5.0	NoResponse	0	0.042	433.413	6	45	Feedback	Neutral	False
435.825	2.878	Control	0.6304	n/a	No	2.878	n/a	n/a	NoResponse	0	0.0	n/a	6	45	ISIslide	Neutral	False
438.717	0.25	Lose2	0.6383	0.0	Yes	3.383	0.017	n/a	GoodResponse	0	n/a	n/a	6	46	Cue	AvoidedLoss	True
438.968	4.0	Lose2	0.6383	0.0	Yes	3.383	0.001	n/a	GoodResponse	0	n/a	n/a	6	46	Fixation	AvoidedLoss	True
442.963	0.34	Lose2	0.6383	0.004	Yes	3.383	-0.004	2.0	GoodResponse	0	0.23	442.193	6	46	Target	AvoidedLoss	True
443.193	0.3	Lose2	0.6383	0.004	Yes	3.383	-0.004	2.0	GoodResponse	0	0.23	n/a	6	46	ButtonPress	AvoidedLoss	True
443.314	0.36	Lose2	0.6383	n/a	Yes	3.383	n/a	n/a	GoodResponse	0	n/a	n/a	6	46	Blank	AvoidedLoss	True
443.665	1.45	Lose2	0.6383	n/a	Yes	3.383	n/a	5.0	GoodResponse	0	0.016	442.681	6	46	Feedback	AvoidedLoss	True
445.12	3.383	Lose2	0.6383	n/a	Yes	3.383	n/a	n/a	GoodResponse	0	0.0	n/a	6	46	ISIslide	AvoidedLoss	True
448.53	0.25	Lose2	0.6457999999999999	0.0	Yes	2.67	0.03	n/a	GoodResponse	0	n/a	n/a	6	47	Cue	AvoidedLoss	True
448.78	4.0	Lose2	0.6457999999999999	0.001	Yes	2.67	0.0	n/a	GoodResponse	0	n/a	n/a	6	47	Fixation	AvoidedLoss	True
452.776	0.35	Lose2	0.6457999999999999	0.004	Yes	2.67	-0.004	2.0	GoodResponse	0	0.185	451.961	6	47	Target	AvoidedLoss	True
452.961	0.3	Lose2	0.6457999999999999	0.004	Yes	2.67	-0.004	2.0	GoodResponse	0	0.185	n/a	6	47	ButtonPress	AvoidedLoss	True
453.127	0.35	Lose2	0.6457999999999999	n/a	Yes	2.67	n/a	n/a	GoodResponse	0	n/a	n/a	6	47	Blank	AvoidedLoss	True
453.478	1.45	Lose2	0.6457999999999999	n/a	Yes	2.67	n/a	5.0	GoodResponse	0	0.008	452.486	6	47	Feedback	AvoidedLoss	True
454.932	2.67	Lose2	0.6457999999999999	n/a	Yes	2.67	n/a	n/a	GoodResponse	0	0.0	n/a	6	47	ISIslide	AvoidedLoss	True
457.624	0.25	Lose2	0.6327	0.0	No	3.026	0.024	n/a	NoResponse	-1	n/a	n/a	5	48	Cue	Loss	False
457.874	3.95	Lose2	0.6327	0.0	No	3.026	0.0	2.0	NoResponse	-1	0.078	456.952	5	48	Fixation	Loss	False
457.952	0.3	Lose2	0.6327	0.0	No	3.026	0.0	2.0	NoResponse	-1	0.078	n/a	5	48	ButtonPress	Loss	False
461.82	0.36	Lose2	0.6327	0.004	No	3.026	-0.004	2.0	NoResponse	-1	0.455	461.275	5	48	Target	Loss	False
462.187	0.34	Lose2	0.6327	n/a	No	3.026	n/a	n/a	NoResponse	-1	n/a	n/a	5	48	Blank	Loss	False
462.275	0.3	Lose2	0.6327	0.004	No	3.026	-0.004	2.0	NoResponse	-1	0.455	n/a	5	48	ButtonPress	Loss	False
462.522	1.45	Lose2	0.6327	n/a	No	3.026	n/a	5.0	NoResponse	-1	0.037	461.559	5	48	Feedback	Loss	False
463.976	3.026	Lose2	0.6327	n/a	No	3.026	n/a	n/a	NoResponse	-1	0.0	n/a	5	48	ISIslide	Loss	False
467.019	0.25	Control	0.64	0.0	Yes	2.881	0.019	n/a	GoodResponse	0	n/a	n/a	5	49	Cue	Neutral	True
467.269	4.0	Control	0.64	0.0	Yes	2.881	0.0	n/a	GoodResponse	0	n/a	n/a	5	49	Fixation	Neutral	True
471.265	0.37	Control	0.64	0.004	Yes	2.881	-0.004	2.0	GoodResponse	0	0.169	470.434	5	49	Target	Neutral	True
471.434	0.3	Control	0.64	0.004	Yes	2.881	-0.004	2.0	GoodResponse	0	0.169	n/a	5	49	ButtonPress	Neutral	True
471.649	0.33	Control	0.64	n/a	Yes	2.881	n/a	n/a	GoodResponse	0	n/a	n/a	5	49	Blank	Neutral	True
471.967	1.45	Control	0.64	n/a	Yes	2.881	n/a	5.0	GoodResponse	0	0.006	470.973	5	49	Feedback	Neutral	True
473.421	2.881	Control	0.64	n/a	Yes	2.881	n/a	n/a	GoodResponse	0	0.0	n/a	5	49	ISIslide	Neutral	True
476.33	0.25	Control	0.6470999999999999	0.0	Yes	2.77	0.03	n/a	GoodResponse	0	n/a	n/a	5	50	Cue	Neutral	True
476.581	4.0	Control	0.6470999999999999	0.0	Yes	2.77	0.001	n/a	GoodResponse	0	n/a	n/a	5	50	Fixation	Neutral	True
480.576	0.38	Control	0.6470999999999999	0.004	Yes	2.77	-0.004	2.0	GoodResponse	0	0.15	479.726	5	50	Target	Neutral	True
480.726	0.3	Control	0.6470999999999999	0.004	Yes	2.77	-0.004	2.0	GoodResponse	0	0.15	n/a	5	50	ButtonPress	Neutral	True
480.96	0.32	Control	0.6470999999999999	n/a	Yes	2.77	n/a	n/a	GoodResponse	0	n/a	n/a	5	50	Blank	Neutral	True
481.278	1.45	Control	0.6470999999999999	n/a	Yes	2.77	n/a	5.0	GoodResponse	0	0.013	480.291	5	50	Feedback	Neutral	True
482.732	2.77	Control	0.6470999999999999	n/a	Yes	2.77	n/a	n/a	GoodResponse	0	0.0	n/a	5	50	ISIslide	Neutral	True
485.524	0.25	Control	0.6537999999999999	0.0	Yes	2.726	0.024	n/a	GoodResponse	0	n/a	n/a	5	51	Cue	Neutral	True
485.775	3.95	Control	0.6537999999999999	0.0	Yes	2.726	0.001	n/a	GoodResponse	0	n/a	n/a	5	51	Fixation	Neutral	True
489.72	0.39	Control	0.6537999999999999	0.004	Yes	2.726	-0.004	2.0	GoodResponse	0	0.196	488.916	5	51	Target	Neutral	True
489.916	0.3	Control	0.6537999999999999	0.004	Yes	2.726	-0.004	2.0	GoodResponse	0	0.196	n/a	5	51	ButtonPress	Neutral	True
490.121	0.31	Control	0.6537999999999999	n/a	Yes	2.726	n/a	n/a	GoodResponse	0	n/a	n/a	5	51	Blank	Neutral	True
490.422	1.45	Control	0.6537999999999999	n/a	Yes	2.726	n/a	5.0	GoodResponse	0	0.039	489.461	5	51	Feedback	Neutral	True
491.876	2.726	Control	0.6537999999999999	n/a	Yes	2.726	n/a	n/a	GoodResponse	0	0.0	n/a	5	51	ISIslide	Neutral	True
494.618	0.25	Control	0.6604000000000001	0.0	Yes	2.632	0.018	n/a	GoodResponse	0	n/a	n/a	5	52	Cue	Neutral	True
494.869	4.05	Control	0.6604000000000001	0.0	Yes	2.632	0.001	n/a	GoodResponse	0	n/a	n/a	5	52	Fixation	Neutral	True
498.914	0.4	Control	0.6604000000000001	0.004	Yes	2.632	-0.004	2.0	GoodResponse	0	0.302	498.216	5	52	Target	Neutral	True
499.216	0.3	Control	0.6604000000000001	0.004	Yes	2.632	-0.004	2.0	GoodResponse	0	0.302	n/a	5	52	ButtonPress	Neutral	True
499.315	0.3	Control	0.6604000000000001	n/a	Yes	2.632	n/a	n/a	GoodResponse	0	n/a	n/a	5	52	Blank	Neutral	True
499.616	1.45	Control	0.6604000000000001	n/a	Yes	2.632	n/a	5.0	GoodResponse	0	0.016	498.632	5	52	Feedback	Neutral	True
501.071	2.632	Control	0.6604000000000001	n/a	Yes	2.632	n/a	n/a	GoodResponse	0	0.0	n/a	5	52	ISIslide	Neutral	True
503.729	0.25	Win2	0.6667000000000001	0.0	Yes	2.921	0.029	n/a	GoodResponse	1	n/a	n/a	6	53	Cue	Win	True
503.979	4.05	Win2	0.6667000000000001	0.001	Yes	2.921	0.0	n/a	GoodResponse	1	n/a	n/a	6	53	Fixation	Win	True
508.025	0.4	Win2	0.6667000000000001	0.004	Yes	2.921	-0.004	2.0	GoodResponse	1	0.296	507.321	6	53	Target	Win	True
508.321	0.3	Win2	0.6667000000000001	0.004	Yes	2.921	-0.004	2.0	GoodResponse	1	0.296	n/a	6	53	ButtonPress	Win	True
508.426	0.3	Win2	0.6667000000000001	n/a	Yes	2.921	n/a	n/a	GoodResponse	1	n/a	n/a	6	53	Blank	Win	True
508.727	1.45	Win2	0.6667000000000001	n/a	Yes	2.921	n/a	5.0	GoodResponse	1	0.027	507.754	6	53	Feedback	Win	True
510.181	2.921	Win2	0.6667000000000001	n/a	Yes	2.921	n/a	n/a	GoodResponse	1	0.0	n/a	6	53	ISIslide	Win	True
513.124	0.25	Win2	0.6727	0.0	Yes	2.726	0.024	n/a	GoodResponse	1	n/a	n/a	7	54	Cue	Win	True
513.374	3.95	Win2	0.6727	0.0	Yes	2.726	0.0	n/a	GoodResponse	1	n/a	n/a	7	54	Fixation	Win	True
517.336	0.39	Win2	0.6727	0.0	Yes	2.726	0.012	2.0	GoodResponse	1	0.168	516.504	7	54	Target	Win	True
517.504	0.3	Win2	0.6727	0.0	Yes	2.726	0.012	2.0	GoodResponse	1	0.168	n/a	7	54	ButtonPress	Win	True
517.721	0.31	Win2	0.6727	n/a	Yes	2.726	n/a	n/a	GoodResponse	1	n/a	n/a	7	54	Blank	Win	True
518.022	1.45	Win2	0.6727	n/a	Yes	2.726	n/a	5.0	GoodResponse	1	0.001	517.023	7	54	Feedback	Win	True
519.476	2.726	Win2	0.6727	n/a	Yes	2.726	n/a	n/a	GoodResponse	1	0.0	n/a	7	54	ISIslide	Win	True
522.217	0.25	Control	0.6786	0.001	Yes	3.033	0.017	n/a	GoodResponse	0	n/a	n/a	7	55	Cue	Neutral	True
522.468	3.95	Control	0.6786	0.0	Yes	3.033	0.001	n/a	GoodResponse	0	n/a	n/a	7	55	Fixation	Neutral	True
526.413	0.38	Control	0.6786	0.004	Yes	3.033	-0.004	2.0	GoodResponse	0	0.222	525.635	7	55	Target	Neutral	True
526.635	0.3	Control	0.6786	0.004	Yes	3.033	-0.004	2.0	GoodResponse	0	0.222	n/a	7	55	ButtonPress	Neutral	True
526.798	0.32	Control	0.6786	n/a	Yes	3.033	n/a	n/a	GoodResponse	0	n/a	n/a	7	55	Blank	Neutral	True
527.115	1.45	Control	0.6786	n/a	Yes	3.033	n/a	5.0	GoodResponse	0	0.03	526.145	7	55	Feedback	Neutral	True
528.57	3.033	Control	0.6786	n/a	Yes	3.033	n/a	n/a	GoodResponse	0	0.0	n/a	7	55	ISIslide	Neutral	True
531.629	0.25	Control	0.6842	0.0	Yes	2.821	0.029	n/a	GoodResponse	0	n/a	n/a	7	56	Cue	Neutral	True
531.88	3.95	Control	0.6842	0.0	Yes	2.821	0.001	n/a	GoodResponse	0	n/a	n/a	7	56	Fixation	Neutral	True
535.825	0.37	Control	0.6842	0.004	Yes	2.821	-0.004	2.0	GoodResponse	0	0.185	535.01	7	56	Target	Neutral	True
536.01	0.3	Control	0.6842	0.004	Yes	2.821	-0.004	2.0	GoodResponse	0	0.185	n/a	7	56	ButtonPress	Neutral	True
536.209	0.33	Control	0.6842	n/a	Yes	2.821	n/a	n/a	GoodResponse	0	n/a	n/a	7	56	Blank	Neutral	True
536.527	1.45	Control	0.6842	n/a	Yes	2.821	n/a	5.0	GoodResponse	0	0.031	535.558	7	56	Feedback	Neutral	True
537.981	2.821	Control	0.6842	n/a	Yes	2.821	n/a	n/a	GoodResponse	0	0.0	n/a	7	56	ISIslide	Neutral	True
540.823	0.25	Control	0.6897	0.0	Yes	3.477	0.023	n/a	GoodResponse	0	n/a	n/a	7	57	Cue	Neutral	True
541.074	4.0	Control	0.6897	0.0	Yes	3.477	0.001	n/a	GoodResponse	0	n/a	n/a	7	57	Fixation	Neutral	True
545.069	0.36	Control	0.6897	0.004	Yes	3.477	-0.004	2.0	GoodResponse	0	0.221	544.29	7	57	Target	Neutral	True
545.29	0.3	Control	0.6897	0.004	Yes	3.477	-0.004	2.0	GoodResponse	0	0.221	n/a	7	57	ButtonPress	Neutral	True
545.437	0.34	Control	0.6897	n/a	Yes	3.477	n/a	n/a	GoodResponse	0	n/a	n/a	7	57	Blank	Neutral	True
545.771	1.45	Control	0.6897	n/a	Yes	3.477	n/a	5.0	GoodResponse	0	0.007	544.778	7	57	Feedback	Neutral	True
547.226	3.477	Control	0.6897	n/a	Yes	3.477	n/a	n/a	GoodResponse	0	0.0	n/a	7	57	ISIslide	Neutral	True
550.72	0.25	Win2	0.6949	0.0	Yes	2.73	0.02	n/a	GoodResponse	1	n/a	n/a	8	58	Cue	Win	True
550.97	4.05	Win2	0.6949	0.0	Yes	2.73	0.0	n/a	GoodResponse	1	n/a	n/a	8	58	Fixation	Win	True
555.016	0.35	Win2	0.6949	0.004	Yes	2.73	-0.004	2.0	GoodResponse	1	0.183	554.199	8	58	Target	Win	True
555.199	0.3	Win2	0.6949	0.004	Yes	2.73	-0.004	2.0	GoodResponse	1	0.183	n/a	8	58	ButtonPress	Win	True
555.367	0.35	Win2	0.6949	n/a	Yes	2.73	n/a	n/a	GoodResponse	1	n/a	n/a	8	58	Blank	Win	True
555.718	1.45	Win2	0.6949	n/a	Yes	2.73	n/a	5.0	GoodResponse	1	0.011	554.729	8	58	Feedback	Win	True
557.172	2.73	Win2	0.6949	n/a	Yes	2.73	n/a	n/a	GoodResponse	1	0.0	n/a	8	58	ISIslide	Win	True
559.931	0.25	Lose2	0.7	0.0	Yes	2.669	0.031	n/a	GoodResponse	0	n/a	n/a	8	59	Cue	AvoidedLoss	True
560.181	4.0	Lose2	0.7	0.0	Yes	2.669	0.0	n/a	GoodResponse	0	n/a	n/a	8	59	Fixation	AvoidedLoss	True
564.177	0.34	Lose2	0.7	0.004	Yes	2.669	-0.004	2.0	GoodResponse	0	0.189	563.366	8	59	Target	AvoidedLoss	True
564.366	0.3	Lose2	0.7	0.004	Yes	2.669	-0.004	2.0	GoodResponse	0	0.189	n/a	8	59	ButtonPress	AvoidedLoss	True
564.528	0.36	Lose2	0.7	n/a	Yes	2.669	n/a	n/a	GoodResponse	0	n/a	n/a	8	59	Blank	AvoidedLoss	True
564.879	1.45	Lose2	0.7	n/a	Yes	2.669	n/a	5.0	GoodResponse	0	0.021	563.9	8	59	Feedback	AvoidedLoss	True
566.333	2.669	Lose2	0.7	n/a	Yes	2.669	n/a	n/a	GoodResponse	0	0.0	n/a	8	59	ISIslide	AvoidedLoss	True
569.025	0.25	Control	0.7049	0.0	Yes	2.675	0.025	n/a	GoodResponse	0	n/a	n/a	8	60	Cue	Neutral	True
569.275	4.0	Control	0.7049	0.0	Yes	2.675	0.0	n/a	GoodResponse	0	n/a	n/a	8	60	Fixation	Neutral	True
573.271	0.33	Control	0.7049	0.004	Yes	2.675	-0.004	2.0	GoodResponse	0	0.177	572.448	8	60	Target	Neutral	True
573.448	0.3	Control	0.7049	0.004	Yes	2.675	-0.004	2.0	GoodResponse	0	0.177	n/a	8	60	ButtonPress	Neutral	True
573.605	0.37	Control	0.7049	n/a	Yes	2.675	n/a	n/a	GoodResponse	0	n/a	n/a	8	60	Blank	Neutral	True
573.973	1.45	Control	0.7049	n/a	Yes	2.675	n/a	5.0	GoodResponse	0	0.001	572.974	8	60	Feedback	Neutral	True
575.427	2.675	Control	0.7049	n/a	Yes	2.675	n/a	n/a	GoodResponse	0	0.0	n/a	8	60	ISIslide	Neutral	True
578.118	0.25	Lose2	0.7097	0.001	Yes	2.982	0.018	n/a	GoodResponse	0	n/a	n/a	8	61	Cue	AvoidedLoss	True
578.369	4.0	Lose2	0.7097	0.0	Yes	2.982	0.001	n/a	GoodResponse	0	n/a	n/a	8	61	Fixation	AvoidedLoss	True
582.365	0.32	Lose2	0.7097	0.003	Yes	2.982	-0.003	2.0	GoodResponse	0	0.183	581.548	8	61	Target	AvoidedLoss	True
582.548	0.3	Lose2	0.7097	0.003	Yes	2.982	-0.003	2.0	GoodResponse	0	0.183	n/a	8	61	ButtonPress	AvoidedLoss	True
582.699	0.38	Lose2	0.7097	n/a	Yes	2.982	n/a	n/a	GoodResponse	0	n/a	n/a	8	61	Blank	AvoidedLoss	True
583.067	1.45	Lose2	0.7097	n/a	Yes	2.982	n/a	5.0	GoodResponse	0	0.029	582.096	8	61	Feedback	AvoidedLoss	True
584.521	2.982	Lose2	0.7097	n/a	Yes	2.982	n/a	n/a	GoodResponse	0	0.0	n/a	8	61	ISIslide	AvoidedLoss	True
587.53	0.25	Lose2	0.7143	0.0	Yes	2.87	0.03	n/a	GoodResponse	0	n/a	n/a	8	62	Cue	AvoidedLoss	True
587.781	3.9	Lose2	0.7143	0.0	Yes	2.87	0.001	n/a	GoodResponse	0	n/a	n/a	8	62	Fixation	AvoidedLoss	True
591.676	0.31	Lose2	0.7143	0.004	Yes	2.87	-0.004	2.0	GoodResponse	0	0.164	590.84	8	62	Target	AvoidedLoss	True
591.84	0.3	Lose2	0.7143	0.004	Yes	2.87	-0.004	2.0	GoodResponse	0	0.164	n/a	8	62	ButtonPress	AvoidedLoss	True
591.993	0.39	Lose2	0.7143	n/a	Yes	2.87	n/a	n/a	GoodResponse	0	n/a	n/a	8	62	Blank	AvoidedLoss	True
592.378	1.45	Lose2	0.7143	n/a	Yes	2.87	n/a	5.0	GoodResponse	0	0.035	591.413	8	62	Feedback	AvoidedLoss	True
593.832	2.87	Lose2	0.7143	n/a	Yes	2.87	n/a	n/a	GoodResponse	0	0.0	n/a	8	62	ISIslide	AvoidedLoss	True
596.724	0.25	Lose2	0.7188	0.0	Yes	2.626	0.024	n/a	GoodResponse	0	n/a	n/a	8	63	Cue	AvoidedLoss	True
596.975	4.05	Lose2	0.7188	0.0	Yes	2.626	0.001	n/a	GoodResponse	0	n/a	n/a	8	63	Fixation	AvoidedLoss	True
601.021	0.3	Lose2	0.7188	0.003	Yes	2.626	-0.003	2.0	GoodResponse	0	0.168	600.189	8	63	Target	AvoidedLoss	True
601.189	0.3	Lose2	0.7188	0.003	Yes	2.626	-0.003	2.0	GoodResponse	0	0.168	n/a	8	63	ButtonPress	AvoidedLoss	True
601.321	0.4	Lose2	0.7188	n/a	Yes	2.626	n/a	n/a	GoodResponse	0	n/a	n/a	8	63	Blank	AvoidedLoss	True
601.723	1.45	Lose2	0.7188	n/a	Yes	2.626	n/a	5.0	GoodResponse	0	0.007	600.73	8	63	Feedback	AvoidedLoss	True
603.177	2.626	Lose2	0.7188	n/a	Yes	2.626	n/a	n/a	GoodResponse	0	0.0	n/a	8	63	ISIslide	AvoidedLoss	True
605.818	0.25	Win2	0.7231000000000001	0.0	Yes	3.132	0.018	n/a	GoodResponse	1	n/a	n/a	9	64	Cue	Win	True
606.069	4.15	Win2	0.7231000000000001	0.0	Yes	3.132	0.001	n/a	GoodResponse	1	n/a	n/a	9	64	Fixation	Win	True
610.215	0.29	Win2	0.7231000000000001	0.003	Yes	3.132	-0.003	2.0	GoodResponse	1	0.186	609.401	9	64	Target	Win	True
610.401	0.3	Win2	0.7231000000000001	0.003	Yes	3.132	-0.003	2.0	GoodResponse	1	0.186	n/a	9	64	ButtonPress	Win	True
610.516	0.41	Win2	0.7231000000000001	n/a	Yes	3.132	n/a	n/a	GoodResponse	1	n/a	n/a	9	64	Blank	Win	True
610.917	1.45	Win2	0.7231000000000001	n/a	Yes	3.132	n/a	5.0	GoodResponse	1	0.031	609.948	9	64	Feedback	Win	True
612.371	3.132	Win2	0.7231000000000001	n/a	Yes	3.132	n/a	n/a	GoodResponse	1	0.0	n/a	9	64	ISIslide	Win	True
615.514	0.25	Control	0.7273000000000001	0.0	Yes	2.786	0.014	n/a	GoodResponse	0	n/a	n/a	9	65	Cue	Neutral	True
615.765	4.0	Control	0.7273000000000001	0.0	Yes	2.786	0.001	n/a	GoodResponse	0	n/a	n/a	9	65	Fixation	Neutral	True
619.76	0.28	Control	0.7273000000000001	0.004	Yes	2.786	-0.004	2.0	GoodResponse	0	0.195	618.955	9	65	Target	Neutral	True
619.955	0.3	Control	0.7273000000000001	0.004	Yes	2.786	-0.004	2.0	GoodResponse	0	0.195	n/a	9	65	ButtonPress	Neutral	True
620.044	0.42	Control	0.7273000000000001	n/a	Yes	2.786	n/a	n/a	GoodResponse	0	n/a	n/a	9	65	Blank	Neutral	True
620.462	1.45	Control	0.7273000000000001	n/a	Yes	2.786	n/a	5.0	GoodResponse	0	0.048	619.51	9	65	Feedback	Neutral	True
621.917	2.786	Control	0.7273000000000001	n/a	Yes	2.786	n/a	n/a	GoodResponse	0	0.0	n/a	9	65	ISIslide	Neutral	True
624.725	0.25	Win2	0.7313	0.0	Yes	2.775	0.025	n/a	GoodResponse	1	n/a	n/a	10	66	Cue	Win	True
624.976	3.9	Win2	0.7313	0.0	Yes	2.775	0.001	n/a	GoodResponse	1	n/a	n/a	10	66	Fixation	Win	True
628.871	0.27	Win2	0.7313	0.004	Yes	2.775	-0.004	2.0	GoodResponse	1	0.175	628.046	10	66	Target	Win	True
629.046	0.3	Win2	0.7313	0.004	Yes	2.775	-0.004	2.0	GoodResponse	1	0.175	n/a	10	66	ButtonPress	Win	True
629.155	0.43	Win2	0.7313	n/a	Yes	2.775	n/a	n/a	GoodResponse	1	n/a	n/a	10	66	Blank	Win	True
629.573	1.45	Win2	0.7313	n/a	Yes	2.775	n/a	5.0	GoodResponse	1	0.01	628.583	10	66	Feedback	Win	True
631.027	2.775	Win2	0.7313	n/a	Yes	2.775	n/a	n/a	GoodResponse	1	0.0	n/a	10	66	ISIslide	Win	True
633.819	0.25	Control	0.7353000000000001	0.0	Yes	2.731	0.019	n/a	GoodResponse	0	n/a	n/a	10	67	Cue	Neutral	True
634.07	3.95	Control	0.7353000000000001	0.0	Yes	2.731	0.001	n/a	GoodResponse	0	n/a	n/a	10	67	Fixation	Neutral	True
638.015	0.26	Control	0.7353000000000001	0.004	Yes	2.731	-0.004	2.0	GoodResponse	0	0.181	637.196	10	67	Target	Neutral	True
638.196	0.3	Control	0.7353000000000001	0.004	Yes	2.731	-0.004	2.0	GoodResponse	0	0.181	n/a	10	67	ButtonPress	Neutral	True
638.282	0.44	Control	0.7353000000000001	n/a	Yes	2.731	n/a	n/a	GoodResponse	0	n/a	n/a	10	67	Blank	Neutral	True
638.717	1.45	Control	0.7353000000000001	n/a	Yes	2.731	n/a	5.0	GoodResponse	0	0.037	637.754	10	67	Feedback	Neutral	True
640.171	2.731	Control	0.7353000000000001	n/a	Yes	2.731	n/a	n/a	GoodResponse	0	0.0	n/a	10	67	ISIslide	Neutral	True
642.93	0.25	Win2	0.7245999999999999	0.0	No	3.07	0.03	n/a	NoResponse	0	n/a	n/a	10	68	Cue	MissedWin	True
643.18	4.0	Win2	0.7245999999999999	0.0	No	3.07	0.0	n/a	NoResponse	0	n/a	n/a	10	68	Fixation	MissedWin	True
647.176	0.25	Win2	0.7245999999999999	0.004	No	3.07	-0.004	2.0	NoResponse	0	0.254	646.43	10	68	Target	MissedWin	True
647.426	0.45	Win2	0.7245999999999999	n/a	No	3.07	n/a	n/a	NoResponse	0	n/a	n/a	10	68	Blank	MissedWin	True
647.43	0.3	Win2	0.7245999999999999	0.004	No	3.07	-0.004	2.0	NoResponse	0	0.254	n/a	10	68	ButtonPress	MissedWin	True
647.878	1.45	Win2	0.7245999999999999	n/a	No	3.07	n/a	5.0	NoResponse	0	0.047	646.925	10	68	Feedback	MissedWin	True
649.332	3.07	Win2	0.7245999999999999	n/a	No	3.07	n/a	n/a	NoResponse	0	0.0	n/a	10	68	ISIslide	MissedWin	True
652.425	0.25	Win2	0.7286	0.0	Yes	3.225	0.025	n/a	GoodResponse	1	n/a	n/a	11	69	Cue	Win	True
652.675	3.95	Win2	0.7286	0.001	Yes	3.225	0.0	n/a	GoodResponse	1	n/a	n/a	11	69	Fixation	Win	True
656.621	0.24	Win2	0.7286	0.004	Yes	3.225	-0.004	2.0	GoodResponse	1	0.183	655.804	11	69	Target	Win	True
656.804	0.3	Win2	0.7286	0.004	Yes	3.225	-0.004	2.0	GoodResponse	1	0.183	n/a	11	69	ButtonPress	Win	True
656.871	0.46	Win2	0.7286	n/a	Yes	3.225	n/a	n/a	GoodResponse	1	n/a	n/a	11	69	Blank	Win	True
657.323	1.45	Win2	0.7286	n/a	Yes	3.225	n/a	5.0	GoodResponse	1	0.016	656.339	11	69	Feedback	Win	True
658.777	3.225	Win2	0.7286	n/a	Yes	3.225	n/a	n/a	GoodResponse	1	0.0	n/a	11	69	ISIslide	Win	True
662.02	0.25	Lose2	0.7323999999999999	0.0	Yes	3.03	0.02	n/a	GoodResponse	0	n/a	n/a	11	70	Cue	AvoidedLoss	True
662.271	4.05	Lose2	0.7323999999999999	0.0	Yes	3.03	0.001	n/a	GoodResponse	0	n/a	n/a	11	70	Fixation	AvoidedLoss	True
666.316	0.23	Lose2	0.7323999999999999	0.004	Yes	3.03	-0.004	2.0	GoodResponse	0	0.218	665.534	11	70	Target	AvoidedLoss	True
666.534	0.3	Lose2	0.7323999999999999	0.004	Yes	3.03	-0.004	2.0	GoodResponse	0	0.218	n/a	11	70	ButtonPress	AvoidedLoss	True
666.55	0.47	Lose2	0.7323999999999999	n/a	Yes	3.03	n/a	n/a	GoodResponse	0	n/a	n/a	11	70	Blank	AvoidedLoss	True
667.018	1.45	Lose2	0.7323999999999999	n/a	Yes	3.03	n/a	5.0	GoodResponse	0	0.029	666.047	11	70	Feedback	AvoidedLoss	True
668.473	3.03	Lose2	0.7323999999999999	n/a	Yes	3.03	n/a	n/a	GoodResponse	0	0.0	n/a	11	70	ISIslide	AvoidedLoss	True
671.515	0.25	Win2	0.7222	0.0	No	2.735	0.015	n/a	NoResponse	0	n/a	n/a	11	71	Cue	MissedWin	True
671.766	4.05	Win2	0.7222	0.0	No	2.735	0.001	n/a	NoResponse	0	n/a	n/a	11	71	Fixation	MissedWin	True
675.812	0.22	Win2	0.7222	0.003	No	2.735	-0.003	2.0	NoResponse	0	0.26	675.072	11	71	Target	MissedWin	True
676.046	0.48	Win2	0.7222	n/a	No	2.735	n/a	n/a	NoResponse	0	n/a	n/a	11	71	Blank	MissedWin	True
676.072	0.3	Win2	0.7222	0.003	No	2.735	-0.003	2.0	NoResponse	0	0.26	n/a	11	71	ButtonPress	MissedWin	True
676.514	1.45	Win2	0.7222	n/a	No	2.735	n/a	5.0	NoResponse	0	0.045	675.559	11	71	Feedback	MissedWin	True
677.968	2.735	Win2	0.7222	n/a	No	2.735	n/a	n/a	NoResponse	0	0.0	n/a	11	71	ISIslide	MissedWin	True
680.726	0.25	Win2	0.7123	0.0	No	2.774	0.026	n/a	NoResponse	0	n/a	n/a	11	72	Cue	MissedWin	True
680.977	4.1	Win2	0.7123	0.0	No	2.774	0.001	n/a	NoResponse	0	n/a	n/a	11	72	Fixation	MissedWin	True
685.073	0.21	Win2	0.7123	0.003	No	2.774	-0.003	2.0	NoResponse	0	0.227	684.3	11	72	Target	MissedWin	True
685.29	0.49	Win2	0.7123	n/a	No	2.774	n/a	n/a	NoResponse	0	n/a	n/a	11	72	Blank	MissedWin	True
685.3	0.3	Win2	0.7123	0.003	No	2.774	-0.003	2.0	NoResponse	0	0.227	n/a	11	72	ButtonPress	MissedWin	True
685.775	1.45	Win2	0.7123	n/a	No	2.774	n/a	5.0	NoResponse	0	0.006	684.781	11	72	Feedback	MissedWin	True
687.229	2.774	Win2	0.7123	n/a	No	2.774	n/a	n/a	NoResponse	0	0.0	n/a	11	72	ISIslide	MissedWin	True
690.021	0.25	Win2	0.7162000000000001	0.0	Yes	2.679	0.021	n/a	GoodResponse	1	n/a	n/a	12	73	Cue	Win	True
690.272	4.0	Win2	0.7162000000000001	0.0	Yes	2.679	0.001	n/a	GoodResponse	1	n/a	n/a	12	73	Fixation	Win	True
694.267	0.2	Win2	0.7162000000000001	0.004	Yes	2.679	-0.004	2.0	GoodResponse	1	0.185	693.452	12	73	Target	Win	True
694.452	0.3	Win2	0.7162000000000001	0.004	Yes	2.679	-0.004	2.0	GoodResponse	1	0.185	n/a	12	73	ButtonPress	Win	True
694.467	0.5	Win2	0.7162000000000001	n/a	Yes	2.679	n/a	n/a	GoodResponse	1	n/a	n/a	12	73	Blank	Win	True
694.969	1.45	Win2	0.7162000000000001	n/a	Yes	2.679	n/a	5.0	GoodResponse	1	0.028	693.997	12	73	Feedback	Win	True
696.423	2.679	Win2	0.7162000000000001	n/a	Yes	2.679	n/a	n/a	GoodResponse	1	0.0	n/a	12	73	ISIslide	Win	True
699.131	0.25	Lose2	0.72	0.001	Yes	2.619	0.031	n/a	GoodResponse	0	n/a	n/a	12	74	Cue	AvoidedLoss	True
699.382	4.05	Lose2	0.72	0.0	Yes	2.619	0.001	n/a	GoodResponse	0	n/a	n/a	12	74	Fixation	AvoidedLoss	True
703.428	0.19	Lose2	0.72	0.003	Yes	2.619	-0.003	2.0	GoodResponse	0	0.166	702.594	12	74	Target	AvoidedLoss	True
703.594	0.3	Lose2	0.72	0.003	Yes	2.619	-0.003	2.0	GoodResponse	0	0.166	n/a	12	74	ButtonPress	AvoidedLoss	True
703.628	0.51	Lose2	0.72	n/a	Yes	2.619	n/a	n/a	GoodResponse	0	n/a	n/a	12	74	Blank	AvoidedLoss	True
704.13	1.45	Lose2	0.72	n/a	Yes	2.619	n/a	5.0	GoodResponse	0	0.038	703.168	12	74	Feedback	AvoidedLoss	True
705.584	2.619	Lose2	0.72	n/a	Yes	2.619	n/a	n/a	GoodResponse	0	0.0	n/a	12	74	ISIslide	AvoidedLoss	True
708.225	0.25	Lose2	0.7237	0.001	Yes	2.925	0.025	n/a	GoodResponse	0	n/a	n/a	12	75	Cue	AvoidedLoss	True
708.476	3.95	Lose2	0.7237	0.0	Yes	2.925	0.001	n/a	GoodResponse	0	n/a	n/a	12	75	Fixation	AvoidedLoss	True
712.421	0.18	Lose2	0.7237	0.004	Yes	2.925	-0.004	2.0	GoodResponse	0	0.16	711.581	12	75	Target	AvoidedLoss	True
712.581	0.3	Lose2	0.7237	0.004	Yes	2.925	-0.004	2.0	GoodResponse	0	0.16	n/a	12	75	ButtonPress	AvoidedLoss	True
712.605	0.52	Lose2	0.7237	n/a	Yes	2.925	n/a	n/a	GoodResponse	0	n/a	n/a	12	75	Blank	AvoidedLoss	True
713.123	1.45	Lose2	0.7237	n/a	Yes	2.925	n/a	5.0	GoodResponse	0	0.021	712.144	12	75	Feedback	AvoidedLoss	True
714.578	2.925	Lose2	0.7237	n/a	Yes	2.925	n/a	n/a	GoodResponse	0	0.0	n/a	12	75	ISIslide	AvoidedLoss	True
717.52	0.25	Control	0.7143	0.0	No	3.23	0.02	n/a	NoResponse	0	n/a	n/a	12	76	Cue	Neutral	False
717.771	4.05	Control	0.7143	0.0	No	3.23	0.001	n/a	NoResponse	0	n/a	n/a	12	76	Fixation	Neutral	False
721.816	0.17	Control	0.7143	0.004	No	3.23	-0.004	n/a	NoResponse	0	n/a	n/a	12	76	Target	Neutral	False
722	0.53	Control	0.7143	n/a	No	3.23	n/a	n/a	NoResponse	0	n/a	n/a	12	76	Blank	Neutral	False
722.518	1.45	Control	0.7143	n/a	No	3.23	n/a	5.0	NoResponse	0	0.04	721.558	12	76	Feedback	Neutral	False
723.973	3.23	Control	0.7143	n/a	No	3.23	n/a	n/a	NoResponse	0	0.0	n/a	12	76	ISIslide	Neutral	False
727.216	0.25	Lose2	0.7051000000000001	0.0	No	2.584	0.016	n/a	NoResponse	-1	n/a	n/a	11	77	Cue	Loss	True
727.466	3.95	Lose2	0.7051000000000001	0.001	No	2.584	0.0	n/a	NoResponse	-1	n/a	n/a	11	77	Fixation	Loss	True
731.412	0.16	Lose2	0.7051000000000001	0.004	No	2.584	-0.004	2.0	NoResponse	-1	0.175	730.587	11	77	Target	Loss	True
731.579	0.54	Lose2	0.7051000000000001	n/a	No	2.584	n/a	n/a	NoResponse	-1	n/a	n/a	11	77	Blank	Loss	True
731.587	0.3	Lose2	0.7051000000000001	0.004	No	2.584	-0.004	2.0	NoResponse	-1	0.175	n/a	11	77	ButtonPress	Loss	True
732.114	1.45	Lose2	0.7051000000000001	n/a	No	2.584	n/a	5.0	NoResponse	-1	0.007	731.121	11	77	Feedback	Loss	True
733.568	2.584	Lose2	0.7051000000000001	n/a	No	2.584	n/a	n/a	NoResponse	-1	0.0	n/a	11	77	ISIslide	Loss	True
