onset	duration	cue_type	current_mean_accuracy	duration_error	is_hit	isi_adjusted	onset_delay	response	response_type	reward	rt	rt_time	total_reward	trial_number	trial_phase	trial_type	one_press
11.1	0.25	Control	1.0	0.0	Yes	2.95	0.0	n/a	GoodResponse	0	n/a	n/a	0	0	Cue	Neutral	True
11.35	3.85	Control	1.0	0.0	Yes	2.95	0.0	n/a	GoodResponse	0	n/a	n/a	0	0	Fixation	Neutral	True
15.198	0.4	Control	1.0	0.002	Yes	2.95	-0.002	3.0	GoodResponse	0	0.248	14.446	0	0	Target	Neutral	True
15.446	0.3	Control	1.0	0.002	Yes	2.95	-0.002	3.0	GoodResponse	0	0.248	n/a	0	0	ButtonPress	Neutral	True
15.598	0.3	Control	1.0	n/a	Yes	2.95	n/a	n/a	GoodResponse	0	n/a	n/a	0	0	Blank	Neutral	True
15.898	1.45	Control	1.0	n/a	Yes	2.95	n/a	5.0	GoodResponse	0	0.032	14.93	0	0	Feedback	Neutral	True
17.348	2.95	Control	1.0	n/a	Yes	2.95	n/a	n/a	GoodResponse	0	0.0	n/a	0	0	ISIslide	Neutral	True
20.33	0.25	Lose2	1.0	0.0	Yes	2.77	0.03	n/a	GoodResponse	0	n/a	n/a	0	1	Cue	AvoidedLoss	True
20.58	4.0	Lose2	1.0	0.0	Yes	2.77	0.0	n/a	GoodResponse	0	n/a	n/a	0	1	Fixation	AvoidedLoss	True
24.579	0.39	Lose2	1.0	0.001	Yes	2.77	-0.001	3.0	GoodResponse	0	0.247	23.826	0	1	Target	AvoidedLoss	True
24.826	0.3	Lose2	1.0	0.001	Yes	2.77	-0.001	3.0	GoodResponse	0	0.247	n/a	0	1	ButtonPress	AvoidedLoss	True
24.978	0.31	Lose2	1.0	n/a	Yes	2.77	n/a	n/a	GoodResponse	0	n/a	n/a	0	1	Blank	AvoidedLoss	True
25.278	1.45	Lose2	1.0	n/a	Yes	2.77	n/a	5.0	GoodResponse	0	0.018	24.296	0	1	Feedback	AvoidedLoss	True
26.728	2.77	Lose2	1.0	n/a	Yes	2.77	n/a	n/a	GoodResponse	0	0.0	n/a	0	1	ISIslide	AvoidedLoss	True
29.527	0.25	Control	1.0	0.0	Yes	2.573	0.027	n/a	GoodResponse	0	n/a	n/a	0	2	Cue	Neutral	True
29.777	4.1	Control	1.0	0.0	Yes	2.573	0.0	n/a	GoodResponse	0	n/a	n/a	0	2	Fixation	Neutral	True
33.875	0.38	Control	1.0	0.002	Yes	2.573	-0.002	3.0	GoodResponse	0	0.205	33.08	0	2	Target	Neutral	True
34.08	0.3	Control	1.0	0.002	Yes	2.573	-0.002	3.0	GoodResponse	0	0.205	n/a	0	2	ButtonPress	Neutral	True
34.258	0.32	Control	1.0	n/a	Yes	2.573	n/a	n/a	GoodResponse	0	n/a	n/a	0	2	Blank	Neutral	True
34.575	1.45	Control	1.0	n/a	Yes	2.573	n/a	5.0	GoodResponse	0	0.037	33.612	0	2	Feedback	Neutral	True
36.025	2.573	Control	1.0	n/a	Yes	2.573	n/a	n/a	GoodResponse	0	0.0	n/a	0	2	ISIslide	Neutral	True
38.624	0.25	Win2	1.0	0.0	Yes	2.826	0.024	n/a	GoodResponse	1	n/a	n/a	1	3	Cue	Win	True
38.874	3.95	Win2	1.0	0.0	Yes	2.826	0.0	n/a	GoodResponse	1	n/a	n/a	1	3	Fixation	Win	True
42.822	0.37	Win2	1.0	0.002	Yes	2.826	-0.002	3.0	GoodResponse	1	0.226	42.048	1	3	Target	Win	True
43.048	0.3	Win2	1.0	0.002	Yes	2.826	-0.002	3.0	GoodResponse	1	0.226	n/a	1	3	ButtonPress	Win	True
43.205	0.33	Win2	1.0	n/a	Yes	2.826	n/a	n/a	GoodResponse	1	n/a	n/a	1	3	Blank	Win	True
43.522	1.45	Win2	1.0	n/a	Yes	2.826	n/a	5.0	GoodResponse	1	0.017	42.539	1	3	Feedback	Win	True
44.971	2.826	Win2	1.0	n/a	Yes	2.826	n/a	n/a	GoodResponse	1	0.0	n/a	1	3	ISIslide	Win	True
47.82	0.25	Win2	1.0	0.001	Yes	3.28	0.02	n/a	GoodResponse	1	n/a	n/a	2	4	Cue	Win	True
48.07	4.0	Win2	1.0	0.0	Yes	3.28	0.0	n/a	GoodResponse	1	n/a	n/a	2	4	Fixation	Win	True
52.069	0.36	Win2	1.0	0.001	Yes	3.28	-0.001	3.0	GoodResponse	1	0.225	51.294	2	4	Target	Win	True
52.294	0.3	Win2	1.0	0.001	Yes	3.28	-0.001	3.0	GoodResponse	1	0.225	n/a	2	4	ButtonPress	Win	True
52.435	0.34	Win2	1.0	n/a	Yes	3.28	n/a	n/a	GoodResponse	1	n/a	n/a	2	4	Blank	Win	True
52.769	1.45	Win2	1.0	n/a	Yes	3.28	n/a	5.0	GoodResponse	1	0.038	51.807	2	4	Feedback	Win	True
54.218	3.28	Win2	1.0	n/a	Yes	3.28	n/a	n/a	GoodResponse	1	0.0	n/a	2	4	ISIslide	Win	True
57.517	0.25	Win2	1.0	0.0	Yes	2.783	0.017	n/a	GoodResponse	1	n/a	n/a	3	5	Cue	Win	True
57.767	4.0	Win2	1.0	0.0	Yes	2.783	0.0	n/a	GoodResponse	1	n/a	n/a	3	5	Fixation	Win	True
61.766	0.35	Win2	1.0	0.001	Yes	2.783	-0.001	3.0	GoodResponse	1	0.235	61.001	3	5	Target	Win	True
62.001	0.3	Win2	1.0	0.001	Yes	2.783	-0.001	3.0	GoodResponse	1	0.235	n/a	3	5	ButtonPress	Win	True
62.115	0.35	Win2	1.0	n/a	Yes	2.783	n/a	n/a	GoodResponse	1	n/a	n/a	3	5	Blank	Win	True
62.465	1.45	Win2	1.0	n/a	Yes	2.783	n/a	5.0	GoodResponse	1	0.001	61.466	3	5	Feedback	Win	True
63.915	2.783	Win2	1.0	n/a	Yes	2.783	n/a	n/a	GoodResponse	1	0.0	n/a	3	5	ISIslide	Win	True
66.714	0.25	Lose2	1.0	0.0	Yes	2.736	0.014	n/a	GoodResponse	0	n/a	n/a	3	6	Cue	AvoidedLoss	True
66.964	3.95	Lose2	1.0	0.0	Yes	2.736	0.0	n/a	GoodResponse	0	n/a	n/a	3	6	Fixation	AvoidedLoss	True
70.912	0.34	Lose2	1.0	0.002	Yes	2.736	-0.002	3.0	GoodResponse	0	0.242	70.154	3	6	Target	AvoidedLoss	True
71.154	0.3	Lose2	1.0	0.002	Yes	2.736	-0.002	3.0	GoodResponse	0	0.242	n/a	3	6	ButtonPress	AvoidedLoss	True
71.262	0.36	Lose2	1.0	n/a	Yes	2.736	n/a	n/a	GoodResponse	0	n/a	n/a	3	6	Blank	AvoidedLoss	True
71.612	1.45	Lose2	1.0	n/a	Yes	2.736	n/a	5.0	GoodResponse	0	0.025	70.637	3	6	Feedback	AvoidedLoss	True
73.062	2.736	Lose2	1.0	n/a	Yes	2.736	n/a	n/a	GoodResponse	0	0.0	n/a	3	6	ISIslide	AvoidedLoss	True
75.827	0.25	Lose2	1.0	0.0	Yes	4.023	0.027	n/a	GoodResponse	0	n/a	n/a	3	7	Cue	AvoidedLoss	True
76.077	4.05	Lose2	1.0	0.0	Yes	4.023	0.0	n/a	GoodResponse	0	n/a	n/a	3	7	Fixation	AvoidedLoss	True
80.126	0.33	Lose2	1.0	0.001	Yes	4.023	-0.001	3.0	GoodResponse	0	0.262	79.388	3	7	Target	AvoidedLoss	True
80.388	0.3	Lose2	1.0	0.001	Yes	4.023	-0.001	3.0	GoodResponse	0	0.262	n/a	3	7	ButtonPress	AvoidedLoss	True
80.459	0.37	Lose2	1.0	n/a	Yes	4.023	n/a	n/a	GoodResponse	0	n/a	n/a	3	7	Blank	AvoidedLoss	True
80.826	1.45	Lose2	1.0	n/a	Yes	4.023	n/a	5.0	GoodResponse	0	0.029	79.855	3	7	Feedback	AvoidedLoss	True
82.275	4.023	Lose2	1.0	n/a	Yes	4.023	n/a	n/a	GoodResponse	0	0.0	n/a	3	7	ISIslide	AvoidedLoss	True
86.324	0.25	Lose2	1.0	0.0	Yes	3.026	0.024	n/a	GoodResponse	0	n/a	n/a	3	8	Cue	AvoidedLoss	True
86.574	3.95	Lose2	1.0	0.0	Yes	3.026	0.0	n/a	GoodResponse	0	n/a	n/a	3	8	Fixation	AvoidedLoss	True
90.522	0.32	Lose2	1.0	0.002	Yes	3.026	-0.002	3.0	GoodResponse	0	0.27	89.792	3	8	Target	AvoidedLoss	True
90.792	0.3	Lose2	1.0	0.002	Yes	3.026	-0.002	3.0	GoodResponse	0	0.27	n/a	3	8	ButtonPress	AvoidedLoss	True
90.855	0.38	Lose2	1.0	n/a	Yes	3.026	n/a	n/a	GoodResponse	0	n/a	n/a	3	8	Blank	AvoidedLoss	True
91.222	1.45	Lose2	1.0	n/a	Yes	3.026	n/a	5.0	GoodResponse	0	0.024	90.246	3	8	Feedback	AvoidedLoss	True
92.671	3.026	Lose2	1.0	n/a	Yes	3.026	n/a	n/a	GoodResponse	0	0.0	n/a	3	8	ISIslide	AvoidedLoss	True
95.72	0.25	Lose2	1.0	0.0	Yes	3.13	0.02	n/a	GoodResponse	0	n/a	n/a	3	9	Cue	AvoidedLoss	True
95.97	3.95	Lose2	1.0	0.0	Yes	3.13	0.0	n/a	GoodResponse	0	n/a	n/a	3	9	Fixation	AvoidedLoss	True
99.919	0.31	Lose2	1.0	0.001	Yes	3.13	-0.001	3.0	GoodResponse	0	0.285	99.204	3	9	Target	AvoidedLoss	True
100.204	0.3	Lose2	1.0	0.001	Yes	3.13	-0.001	3.0	GoodResponse	0	0.285	n/a	3	9	ButtonPress	AvoidedLoss	True
100.235	0.39	Lose2	1.0	n/a	Yes	3.13	n/a	n/a	GoodResponse	0	n/a	n/a	3	9	Blank	AvoidedLoss	True
100.619	1.45	Lose2	1.0	n/a	Yes	3.13	n/a	5.0	GoodResponse	0	0.041	99.66	3	9	Feedback	AvoidedLoss	True
102.068	3.13	Lose2	1.0	n/a	Yes	3.13	n/a	n/a	GoodResponse	0	0.0	n/a	3	9	ISIslide	AvoidedLoss	True
105.217	0.25	Control	1.0	0.0	Yes	3.283	0.017	n/a	GoodResponse	0	n/a	n/a	3	10	Cue	Neutral	True
105.467	4.0	Control	1.0	0.0	Yes	3.283	0.0	n/a	GoodResponse	0	n/a	n/a	3	10	Fixation	Neutral	True
109.466	0.3	Control	1.0	0.001	Yes	3.283	-0.001	3.0	GoodResponse	0	0.269	108.735	3	10	Target	Neutral	True
109.735	0.3	Control	1.0	0.001	Yes	3.283	-0.001	3.0	GoodResponse	0	0.269	n/a	3	10	ButtonPress	Neutral	True
109.765	0.4	Control	1.0	n/a	Yes	3.283	n/a	n/a	GoodResponse	0	n/a	n/a	3	10	Blank	Neutral	True
110.165	1.45	Control	1.0	n/a	Yes	3.283	n/a	5.0	GoodResponse	0	0.008	109.173	3	10	Feedback	Neutral	True
111.615	3.283	Control	1.0	n/a	Yes	3.283	n/a	n/a	GoodResponse	0	0.0	n/a	3	10	ISIslide	Neutral	True
114.914	0.25	Lose2	0.9167000000000001	0.0	No	2.736	0.014	n/a	NoResponse	-1	n/a	n/a	2	11	Cue	Loss	True
115.164	4.05	Lose2	0.9167000000000001	0.0	No	2.736	0.0	n/a	NoResponse	-1	n/a	n/a	2	11	Fixation	Loss	True
119.212	0.29	Lose2	0.9167000000000001	0.002	No	2.736	-0.002	3.0	NoResponse	-1	0.349	118.561	2	11	Target	Loss	True
119.512	0.41	Lose2	0.9167000000000001	n/a	No	2.736	n/a	n/a	NoResponse	-1	n/a	n/a	2	11	Blank	Loss	True
119.561	0.3	Lose2	0.9167000000000001	0.002	No	2.736	-0.002	3.0	NoResponse	-1	0.349	n/a	2	11	ButtonPress	Loss	True
119.912	1.45	Lose2	0.9167000000000001	n/a	No	2.736	n/a	5.0	NoResponse	-1	0.017	118.929	2	11	Feedback	Loss	True
121.361	2.736	Lose2	0.9167000000000001	n/a	No	2.736	n/a	n/a	NoResponse	-1	0.0	n/a	2	11	ISIslide	Loss	True
124.127	0.25	Control	0.8462000000000001	0.0	No	2.973	0.027	n/a	NoResponse	0	n/a	n/a	2	12	Cue	Neutral	True
124.377	3.9	Control	0.8462000000000001	0.0	No	2.973	0.0	n/a	NoResponse	0	n/a	n/a	2	12	Fixation	Neutral	True
128.276	0.28	Control	0.8462000000000001	0.001	No	2.973	-0.001	3.0	NoResponse	0	0.298	127.574	2	12	Target	Neutral	True
128.559	0.42	Control	0.8462000000000001	n/a	No	2.973	n/a	n/a	NoResponse	0	n/a	n/a	2	12	Blank	Neutral	True
128.574	0.3	Control	0.8462000000000001	0.001	No	2.973	-0.001	3.0	NoResponse	0	0.298	n/a	2	12	ButtonPress	Neutral	True
128.975	1.45	Control	0.8462000000000001	n/a	No	2.973	n/a	5.0	NoResponse	0	0.027	128.002	2	12	Feedback	Neutral	True
130.425	2.973	Control	0.8462000000000001	n/a	No	2.973	n/a	n/a	NoResponse	0	0.0	n/a	2	12	ISIslide	Neutral	True
133.424	0.25	Control	0.7857	0.0	No	2.776	0.024	n/a	LatePress	0	n/a	n/a	2	13	Cue	Neutral	True
133.674	4.0	Control	0.7857	0.0	No	2.776	0.0	n/a	LatePress	0	n/a	n/a	2	13	Fixation	Neutral	True
137.672	0.27	Control	0.7857	0.002	No	2.776	-0.002	3.0	LatePress	0	0.279	136.951	2	13	Target	Neutral	True
137.951	0.3	Control	0.7857	0.002	No	2.776	-0.002	3.0	LatePress	0	0.279	n/a	2	13	ButtonPress	Neutral	True
137.956	0.43	Control	0.7857	n/a	No	2.776	n/a	n/a	LatePress	0	n/a	n/a	2	13	Blank	Neutral	True
138.372	1.45	Control	0.7857	n/a	No	2.776	n/a	5.0	LatePress	0	0.044	137.416	2	13	Feedback	Neutral	True
139.822	2.776	Control	0.7857	n/a	No	2.776	n/a	n/a	LatePress	0	0.0	n/a	2	13	ISIslide	Neutral	True
142.621	0.25	Win2	0.7333	0.0	No	2.679	0.021	n/a	NoResponse	0	n/a	n/a	2	14	Cue	MissedWin	True
142.871	4.1	Win2	0.7333	0.0	No	2.679	0.0	n/a	NoResponse	0	n/a	n/a	2	14	Fixation	MissedWin	True
146.969	0.26	Win2	0.7333	0.002	No	2.679	-0.002	3.0	NoResponse	0	0.293	146.262	2	14	Target	MissedWin	True
147.236	0.44	Win2	0.7333	n/a	No	2.679	n/a	n/a	NoResponse	0	n/a	n/a	2	14	Blank	MissedWin	True
147.262	0.3	Win2	0.7333	0.002	No	2.679	-0.002	3.0	NoResponse	0	0.293	n/a	2	14	ButtonPress	MissedWin	True
147.669	1.45	Win2	0.7333	n/a	No	2.679	n/a	5.0	NoResponse	0	0.015	146.684	2	14	Feedback	MissedWin	True
149.118	2.679	Win2	0.7333	n/a	No	2.679	n/a	n/a	NoResponse	0	0.0	n/a	2	14	ISIslide	MissedWin	True
151.817	0.25	Control	0.6875	0.001	No	2.983	0.017	n/a	NoResponse	0	n/a	n/a	2	15	Cue	Neutral	True
152.067	4.0	Control	0.6875	0.001	No	2.983	0.0	n/a	NoResponse	0	n/a	n/a	2	15	Fixation	Neutral	True
156.066	0.25	Control	0.6875	0.001	No	2.983	-0.001	3.0	NoResponse	0	0.281	155.347	2	15	Target	Neutral	True
156.316	0.45	Control	0.6875	n/a	No	2.983	n/a	n/a	NoResponse	0	n/a	n/a	2	15	Blank	Neutral	True
156.347	0.3	Control	0.6875	0.001	No	2.983	-0.001	3.0	NoResponse	0	0.281	n/a	2	15	ButtonPress	Neutral	True
156.766	1.45	Control	0.6875	n/a	No	2.983	n/a	5.0	NoResponse	0	0.04	155.806	2	15	Feedback	Neutral	True
158.215	2.983	Control	0.6875	n/a	No	2.983	n/a	n/a	NoResponse	0	0.0	n/a	2	15	ISIslide	Neutral	True
161.214	0.25	Win2	0.6470999999999999	0.0	No	2.886	0.014	n/a	NoResponse	0	n/a	n/a	2	16	Cue	MissedWin	True
161.464	4.0	Win2	0.6470999999999999	0.0	No	2.886	0.0	n/a	NoResponse	0	n/a	n/a	2	16	Fixation	MissedWin	True
165.463	0.24	Win2	0.6470999999999999	0.001	No	2.886	-0.001	3.0	NoResponse	0	0.279	164.742	2	16	Target	MissedWin	True
165.713	0.46	Win2	0.6470999999999999	n/a	No	2.886	n/a	n/a	NoResponse	0	n/a	n/a	2	16	Blank	MissedWin	True
165.742	0.3	Win2	0.6470999999999999	0.001	No	2.886	-0.001	3.0	NoResponse	0	0.279	n/a	2	16	ButtonPress	MissedWin	True
166.162	1.45	Win2	0.6470999999999999	n/a	No	2.886	n/a	5.0	NoResponse	0	0.01	165.172	2	16	Feedback	MissedWin	True
167.612	2.886	Win2	0.6470999999999999	n/a	No	2.886	n/a	n/a	NoResponse	0	0.0	n/a	2	16	ISIslide	MissedWin	True
170.528	0.25	Lose2	0.6111	0.0	No	2.722	0.028	n/a	NoResponse	-1	n/a	n/a	1	17	Cue	Loss	True
170.778	3.95	Lose2	0.6111	0.0	No	2.722	0.0	n/a	NoResponse	-1	n/a	n/a	1	17	Fixation	Loss	True
174.726	0.25	Lose2	0.6111	0.002	No	2.722	-0.002	3.0	NoResponse	-1	0.259	173.985	1	17	Target	Loss	True
174.976	0.45	Lose2	0.6111	n/a	No	2.722	n/a	n/a	NoResponse	-1	n/a	n/a	1	17	Blank	Loss	True
174.985	0.3	Lose2	0.6111	0.002	No	2.722	-0.002	3.0	NoResponse	-1	0.259	n/a	1	17	ButtonPress	Loss	True
175.426	1.45	Lose2	0.6111	n/a	No	2.722	n/a	5.0	NoResponse	-1	0.015	174.441	1	17	Feedback	Loss	True
176.875	2.722	Lose2	0.6111	n/a	No	2.722	n/a	n/a	NoResponse	-1	0.0	n/a	1	17	ISIslide	Loss	True
179.624	0.25	Lose2	0.5789	0.001	No	2.726	0.024	n/a	NoResponse	-1	n/a	n/a	0	18	Cue	Loss	True
179.874	4.05	Lose2	0.5789	0.0	No	2.726	0.0	n/a	NoResponse	-1	n/a	n/a	0	18	Fixation	Loss	True
183.923	0.26	Lose2	0.5789	0.001	No	2.726	-0.001	3.0	NoResponse	-1	0.274	183.197	0	18	Target	Loss	True
184.19	0.44	Lose2	0.5789	n/a	No	2.726	n/a	n/a	NoResponse	-1	n/a	n/a	0	18	Blank	Loss	True
184.197	0.3	Lose2	0.5789	0.001	No	2.726	-0.001	3.0	NoResponse	-1	0.274	n/a	0	18	ButtonPress	Loss	True
184.623	1.45	Lose2	0.5789	n/a	No	2.726	n/a	5.0	NoResponse	-1	0.037	183.66	0	18	Feedback	Loss	True
186.072	2.726	Lose2	0.5789	n/a	No	2.726	n/a	n/a	NoResponse	-1	0.0	n/a	0	18	ISIslide	Loss	True
188.821	0.25	Control	0.55	0.0	No	2.929	0.021	n/a	NoResponse	0	n/a	n/a	0	19	Cue	Neutral	True
189.071	3.95	Control	0.55	0.0	No	2.929	0.0	n/a	NoResponse	0	n/a	n/a	0	19	Fixation	Neutral	True
193.02	0.27	Control	0.55	0.001	No	2.929	-0.001	3.0	NoResponse	0	0.291	192.311	0	19	Target	Neutral	True
193.303	0.43	Control	0.55	n/a	No	2.929	n/a	n/a	NoResponse	0	n/a	n/a	0	19	Blank	Neutral	True
193.311	0.3	Control	0.55	0.001	No	2.929	-0.001	3.0	NoResponse	0	0.291	n/a	0	19	ButtonPress	Neutral	True
193.72	1.45	Control	0.55	n/a	No	2.929	n/a	5.0	NoResponse	0	0.013	192.733	0	19	Feedback	Neutral	True
195.169	2.929	Control	0.55	n/a	No	2.929	n/a	n/a	NoResponse	0	0.0	n/a	0	19	ISIslide	Neutral	True
198.118	0.25	Control	0.5714	0.0	Yes	2.632	0.018	n/a	GoodResponse	0	n/a	n/a	0	20	Cue	Neutral	True
198.368	4.05	Control	0.5714	0.0	Yes	2.632	0.0	n/a	GoodResponse	0	n/a	n/a	0	20	Fixation	Neutral	True
202.416	0.28	Control	0.5714	0.002	Yes	2.632	-0.002	3.0	GoodResponse	0	0.232	201.648	0	20	Target	Neutral	True
202.648	0.3	Control	0.5714	0.002	Yes	2.632	-0.002	3.0	GoodResponse	0	0.232	n/a	0	20	ButtonPress	Neutral	True
202.7	0.42	Control	0.5714	n/a	Yes	2.632	n/a	n/a	GoodResponse	0	n/a	n/a	0	20	Blank	Neutral	True
203.116	1.45	Control	0.5714	n/a	Yes	2.632	n/a	5.0	GoodResponse	0	0.032	202.148	0	20	Feedback	Neutral	True
204.566	2.632	Control	0.5714	n/a	Yes	2.632	n/a	n/a	GoodResponse	0	0.0	n/a	0	20	ISIslide	Neutral	True
207.215	0.25	Control	0.5909	0.0	Yes	2.785	0.015	n/a	GoodResponse	0	n/a	n/a	0	21	Cue	Neutral	True
207.465	4.1	Control	0.5909	0.0	Yes	2.785	0.0	n/a	GoodResponse	0	n/a	n/a	0	21	Fixation	Neutral	True
211.563	0.29	Control	0.5909	0.002	Yes	2.785	-0.002	3.0	GoodResponse	0	0.224	210.787	0	21	Target	Neutral	True
211.787	0.3	Control	0.5909	0.002	Yes	2.785	-0.002	3.0	GoodResponse	0	0.224	n/a	0	21	ButtonPress	Neutral	True
211.863	0.41	Control	0.5909	n/a	Yes	2.785	n/a	n/a	GoodResponse	0	n/a	n/a	0	21	Blank	Neutral	True
212.263	1.45	Control	0.5909	n/a	Yes	2.785	n/a	5.0	GoodResponse	0	0.007	211.27	0	21	Feedback	Neutral	True
213.713	2.785	Control	0.5909	n/a	Yes	2.785	n/a	n/a	GoodResponse	0	0.0	n/a	0	21	ISIslide	Neutral	True
216.528	0.25	Control	0.6087	0.0	Yes	2.772	0.028	n/a	GoodResponse	0	n/a	n/a	0	22	Cue	Neutral	True
216.778	4.0	Control	0.6087	0.0	Yes	2.772	0.0	n/a	GoodResponse	0	n/a	n/a	0	22	Fixation	Neutral	True
220.777	0.3	Control	0.6087	0.001	Yes	2.772	-0.001	3.0	GoodResponse	0	0.237	220.014	0	22	Target	Neutral	True
221.014	0.3	Control	0.6087	0.001	Yes	2.772	-0.001	3.0	GoodResponse	0	0.237	n/a	0	22	ButtonPress	Neutral	True
221.077	0.4	Control	0.6087	n/a	Yes	2.772	n/a	n/a	GoodResponse	0	n/a	n/a	0	22	Blank	Neutral	True
221.477	1.45	Control	0.6087	n/a	Yes	2.772	n/a	5.0	GoodResponse	0	0.012	220.489	0	22	Feedback	Neutral	True
222.926	2.772	Control	0.6087	n/a	Yes	2.772	n/a	n/a	GoodResponse	0	0.0	n/a	0	22	ISIslide	Neutral	True
225.725	0.25	Control	0.625	0.0	Yes	2.775	0.025	n/a	GoodResponse	0	n/a	n/a	0	23	Cue	Neutral	True
225.975	3.9	Control	0.625	0.0	Yes	2.775	0.0	n/a	GoodResponse	0	n/a	n/a	0	23	Fixation	Neutral	True
229.874	0.31	Control	0.625	0.001	Yes	2.775	-0.001	3.0	GoodResponse	0	0.292	229.166	0	23	Target	Neutral	True
230.166	0.3	Control	0.625	0.001	Yes	2.775	-0.001	3.0	GoodResponse	0	0.292	n/a	0	23	ButtonPress	Neutral	True
230.19	0.39	Control	0.625	n/a	Yes	2.775	n/a	n/a	GoodResponse	0	n/a	n/a	0	23	Blank	Neutral	True
230.573	1.45	Control	0.625	n/a	Yes	2.775	n/a	5.0	GoodResponse	0	0.038	229.611	0	23	Feedback	Neutral	True
232.023	2.775	Control	0.625	n/a	Yes	2.775	n/a	n/a	GoodResponse	0	0.0	n/a	0	23	ISIslide	Neutral	True
234.822	0.25	Win2	0.64	0.0	Yes	3.128	0.022	n/a	GoodResponse	1	n/a	n/a	1	24	Cue	Win	True
235.072	3.95	Win2	0.64	0.0	Yes	3.128	0.0	n/a	GoodResponse	1	n/a	n/a	1	24	Fixation	Win	True
239.02	0.32	Win2	0.64	0.002	Yes	3.128	-0.002	3.0	GoodResponse	1	0.232	238.252	1	24	Target	Win	True
239.252	0.3	Win2	0.64	0.002	Yes	3.128	-0.002	3.0	GoodResponse	1	0.232	n/a	1	24	ButtonPress	Win	True
239.354	0.38	Win2	0.64	n/a	Yes	3.128	n/a	n/a	GoodResponse	1	n/a	n/a	1	24	Blank	Win	True
239.72	1.45	Win2	0.64	n/a	Yes	3.128	n/a	5.0	GoodResponse	1	0.012	238.732	1	24	Feedback	Win	True
241.17	3.128	Win2	0.64	n/a	Yes	3.128	n/a	n/a	GoodResponse	1	0.0	n/a	1	24	ISIslide	Win	True
244.319	0.25	Win2	0.6537999999999999	0.0	Yes	3.081	0.019	n/a	GoodResponse	1	n/a	n/a	2	25	Cue	Win	True
244.568	4.0	Win2	0.6537999999999999	0.001	Yes	3.081	-0.001	n/a	GoodResponse	1	n/a	n/a	2	25	Fixation	Win	True
248.567	0.33	Win2	0.6537999999999999	0.002	Yes	3.081	-0.002	3.0	GoodResponse	1	0.221	247.788	2	25	Target	Win	True
248.788	0.3	Win2	0.6537999999999999	0.002	Yes	3.081	-0.002	3.0	GoodResponse	1	0.221	n/a	2	25	ButtonPress	Win	True
248.9	0.37	Win2	0.6537999999999999	n/a	Yes	3.081	n/a	n/a	GoodResponse	1	n/a	n/a	2	25	Blank	Win	True
249.267	1.45	Win2	0.6537999999999999	n/a	Yes	3.081	n/a	5.0	GoodResponse	1	0.027	248.294	2	25	Feedback	Win	True
250.716	3.081	Win2	0.6537999999999999	n/a	Yes	3.081	n/a	n/a	GoodResponse	1	0.0	n/a	2	25	ISIslide	Win	True
253.815	0.25	Win2	0.6667000000000001	0.0	Yes	2.935	0.015	n/a	GoodResponse	1	n/a	n/a	3	26	Cue	Win	True
254.065	3.95	Win2	0.6667000000000001	0.0	Yes	2.935	0.0	n/a	GoodResponse	1	n/a	n/a	3	26	Fixation	Win	True
258.014	0.34	Win2	0.6667000000000001	0.001	Yes	2.935	-0.001	3.0	GoodResponse	1	0.259	257.273	3	26	Target	Win	True
258.273	0.3	Win2	0.6667000000000001	0.001	Yes	2.935	-0.001	3.0	GoodResponse	1	0.259	n/a	3	26	ButtonPress	Win	True
258.364	0.36	Win2	0.6667000000000001	n/a	Yes	2.935	n/a	n/a	GoodResponse	1	n/a	n/a	3	26	Blank	Win	True
258.714	1.45	Win2	0.6667000000000001	n/a	Yes	2.935	n/a	5.0	GoodResponse	1	0.043	257.757	3	26	Feedback	Win	True
260.163	2.935	Win2	0.6667000000000001	n/a	Yes	2.935	n/a	n/a	GoodResponse	1	0.0	n/a	3	26	ISIslide	Win	True
263.129	0.25	Lose2	0.6786	0.0	Yes	2.821	0.029	n/a	GoodResponse	0	n/a	n/a	3	27	Cue	AvoidedLoss	True
263.379	4.05	Lose2	0.6786	0.0	Yes	2.821	0.0	n/a	GoodResponse	0	n/a	n/a	3	27	Fixation	AvoidedLoss	True
267.427	0.33	Lose2	0.6786	0.002	Yes	2.821	-0.002	3.0	GoodResponse	0	0.258	266.685	3	27	Target	AvoidedLoss	True
267.685	0.3	Lose2	0.6786	0.002	Yes	2.821	-0.002	3.0	GoodResponse	0	0.258	n/a	3	27	ButtonPress	AvoidedLoss	True
267.76	0.37	Lose2	0.6786	n/a	Yes	2.821	n/a	n/a	GoodResponse	0	n/a	n/a	3	27	Blank	AvoidedLoss	True
268.127	1.45	Lose2	0.6786	n/a	Yes	2.821	n/a	5.0	GoodResponse	0	0.045	267.172	3	27	Feedback	AvoidedLoss	True
269.576	2.821	Lose2	0.6786	n/a	Yes	2.821	n/a	n/a	GoodResponse	0	0.0	n/a	3	27	ISIslide	AvoidedLoss	True
272.425	0.25	Control	0.6897	0.0	Yes	2.825	0.025	n/a	GoodResponse	0	n/a	n/a	3	28	Cue	Neutral	True
272.675	4.05	Control	0.6897	0.0	Yes	2.825	0.0	n/a	GoodResponse	0	n/a	n/a	3	28	Fixation	Neutral	True
276.724	0.32	Control	0.6897	0.001	Yes	2.825	-0.001	3.0	GoodResponse	0	0.271	275.995	3	28	Target	Neutral	True
276.995	0.3	Control	0.6897	0.001	Yes	2.825	-0.001	3.0	GoodResponse	0	0.271	n/a	3	28	ButtonPress	Neutral	True
277.04	0.38	Control	0.6897	n/a	Yes	2.825	n/a	n/a	GoodResponse	0	n/a	n/a	3	28	Blank	Neutral	True
277.424	1.45	Control	0.6897	n/a	Yes	2.825	n/a	5.0	GoodResponse	0	0.016	276.44	3	28	Feedback	Neutral	True
278.873	2.825	Control	0.6897	n/a	Yes	2.825	n/a	n/a	GoodResponse	0	0.0	n/a	3	28	ISIslide	Neutral	True
281.722	0.25	Lose2	0.7	0.0	Yes	2.828	0.022	n/a	GoodResponse	0	n/a	n/a	3	29	Cue	AvoidedLoss	True
281.972	3.95	Lose2	0.7	0.0	Yes	2.828	0.0	n/a	GoodResponse	0	n/a	n/a	3	29	Fixation	AvoidedLoss	True
285.921	0.31	Lose2	0.7	0.001	Yes	2.828	-0.001	3.0	GoodResponse	0	0.244	285.165	3	29	Target	AvoidedLoss	True
286.165	0.3	Lose2	0.7	0.001	Yes	2.828	-0.001	3.0	GoodResponse	0	0.244	n/a	3	29	ButtonPress	AvoidedLoss	True
286.237	0.39	Lose2	0.7	n/a	Yes	2.828	n/a	n/a	GoodResponse	0	n/a	n/a	3	29	Blank	AvoidedLoss	True
286.62	1.45	Lose2	0.7	n/a	Yes	2.828	n/a	5.0	GoodResponse	0	0.039	285.659	3	29	Feedback	AvoidedLoss	True
288.07	2.828	Lose2	0.7	n/a	Yes	2.828	n/a	n/a	GoodResponse	0	0.0	n/a	3	29	ISIslide	AvoidedLoss	True
290.919	0.25	Win2	0.7097	0.0	Yes	2.781	0.019	n/a	GoodResponse	1	n/a	n/a	4	30	Cue	Win	True
291.169	3.9	Win2	0.7097	0.0	Yes	2.781	0.0	n/a	GoodResponse	1	n/a	n/a	4	30	Fixation	Win	True
295.068	0.3	Win2	0.7097	0.001	Yes	2.781	-0.001	3.0	GoodResponse	1	0.224	294.292	4	30	Target	Win	True
295.292	0.3	Win2	0.7097	0.001	Yes	2.781	-0.001	3.0	GoodResponse	1	0.224	n/a	4	30	ButtonPress	Win	True
295.367	0.4	Win2	0.7097	n/a	Yes	2.781	n/a	n/a	GoodResponse	1	n/a	n/a	4	30	Blank	Win	True
295.767	1.45	Win2	0.7097	n/a	Yes	2.781	n/a	5.0	GoodResponse	1	0.014	294.781	4	30	Feedback	Win	True
297.217	2.781	Win2	0.7097	n/a	Yes	2.781	n/a	n/a	GoodResponse	1	0.0	n/a	4	30	ISIslide	Win	True
300.016	0.25	Lose2	0.6875	0.0	No	2.834	0.016	n/a	NoResponse	-1	n/a	n/a	3	31	Cue	Loss	True
300.266	4.05	Lose2	0.6875	0.0	No	2.834	0.0	n/a	NoResponse	-1	n/a	n/a	3	31	Fixation	Loss	True
304.314	0.29	Lose2	0.6875	0.002	No	2.834	-0.002	3.0	NoResponse	-1	0.352	303.666	3	31	Target	Loss	True
304.614	0.41	Lose2	0.6875	n/a	No	2.834	n/a	n/a	NoResponse	-1	n/a	n/a	3	31	Blank	Loss	True
304.666	0.3	Lose2	0.6875	0.002	No	2.834	-0.002	3.0	NoResponse	-1	0.352	n/a	3	31	ButtonPress	Loss	True
305.014	1.45	Lose2	0.6875	n/a	No	2.834	n/a	5.0	NoResponse	-1	0.035	304.049	3	31	Feedback	Loss	True
306.464	2.834	Lose2	0.6875	n/a	No	2.834	n/a	n/a	NoResponse	-1	0.0	n/a	3	31	ISIslide	Loss	True
309.329	0.25	Lose2	0.6970000000000001	0.0	Yes	2.621	0.029	n/a	GoodResponse	0	n/a	n/a	3	32	Cue	AvoidedLoss	True
309.579	4.15	Lose2	0.6970000000000001	0.0	Yes	2.621	0.0	n/a	GoodResponse	0	n/a	n/a	3	32	Fixation	AvoidedLoss	True
313.728	0.28	Lose2	0.6970000000000001	0.001	Yes	2.621	-0.001	3.0	GoodResponse	0	0.237	312.965	3	32	Target	AvoidedLoss	True
313.965	0.3	Lose2	0.6970000000000001	0.001	Yes	2.621	-0.001	3.0	GoodResponse	0	0.237	n/a	3	32	ButtonPress	AvoidedLoss	True
314.011	0.42	Lose2	0.6970000000000001	n/a	Yes	2.621	n/a	n/a	GoodResponse	0	n/a	n/a	3	32	Blank	AvoidedLoss	True
314.427	1.45	Lose2	0.6970000000000001	n/a	Yes	2.621	n/a	5.0	GoodResponse	0	0.037	313.464	3	32	Feedback	AvoidedLoss	True
315.877	2.621	Lose2	0.6970000000000001	n/a	Yes	2.621	n/a	n/a	GoodResponse	0	0.0	n/a	3	32	ISIslide	AvoidedLoss	True
318.526	0.25	Win2	0.7059000000000001	0.0	Yes	2.674	0.026	n/a	GoodResponse	1	n/a	n/a	4	33	Cue	Win	True
318.776	4.0	Win2	0.7059000000000001	0.0	Yes	2.674	0.0	n/a	GoodResponse	1	n/a	n/a	4	33	Fixation	Win	True
322.774	0.27	Win2	0.7059000000000001	0.002	Yes	2.674	-0.002	3.0	GoodResponse	1	0.219	321.993	4	33	Target	Win	True
322.993	0.3	Win2	0.7059000000000001	0.002	Yes	2.674	-0.002	3.0	GoodResponse	1	0.219	n/a	4	33	ButtonPress	Win	True
323.058	0.43	Win2	0.7059000000000001	n/a	Yes	2.674	n/a	n/a	GoodResponse	1	n/a	n/a	4	33	Blank	Win	True
323.474	1.45	Win2	0.7059000000000001	n/a	Yes	2.674	n/a	5.0	GoodResponse	1	0.015	322.489	4	33	Feedback	Win	True
324.924	2.674	Win2	0.7059000000000001	n/a	Yes	2.674	n/a	n/a	GoodResponse	1	0.0	n/a	4	33	ISIslide	Win	True
327.623	0.25	Lose2	0.7143	0.0	Yes	2.627	0.023	n/a	GoodResponse	0	n/a	n/a	4	34	Cue	AvoidedLoss	True
327.873	4.05	Lose2	0.7143	0.0	Yes	2.627	0.0	n/a	GoodResponse	0	n/a	n/a	4	34	Fixation	AvoidedLoss	True
331.921	0.26	Lose2	0.7143	0.002	Yes	2.627	-0.002	3.0	GoodResponse	0	0.251	331.172	4	34	Target	AvoidedLoss	True
332.172	0.3	Lose2	0.7143	0.002	Yes	2.627	-0.002	3.0	GoodResponse	0	0.251	n/a	4	34	ButtonPress	AvoidedLoss	True
332.188	0.44	Lose2	0.7143	n/a	Yes	2.627	n/a	n/a	GoodResponse	0	n/a	n/a	4	34	Blank	AvoidedLoss	True
332.621	1.45	Lose2	0.7143	n/a	Yes	2.627	n/a	5.0	GoodResponse	0	0.037	331.658	4	34	Feedback	AvoidedLoss	True
334.071	2.627	Lose2	0.7143	n/a	Yes	2.627	n/a	n/a	GoodResponse	0	0.0	n/a	4	34	ISIslide	AvoidedLoss	True
336.72	0.25	Lose2	0.6944	0.0	No	2.68	0.02	n/a	NoResponse	-1	n/a	n/a	3	35	Cue	Loss	True
336.97	4.0	Lose2	0.6944	0.0	No	2.68	0.0	n/a	NoResponse	-1	n/a	n/a	3	35	Fixation	Loss	True
340.968	0.25	Lose2	0.6944	0.002	No	2.68	-0.002	3.0	NoResponse	-1	0.259	340.227	3	35	Target	Loss	True
341.218	0.45	Lose2	0.6944	n/a	No	2.68	n/a	n/a	NoResponse	-1	n/a	n/a	3	35	Blank	Loss	True
341.227	0.3	Lose2	0.6944	0.002	No	2.68	-0.002	3.0	NoResponse	-1	0.259	n/a	3	35	ButtonPress	Loss	True
341.668	1.45	Lose2	0.6944	n/a	No	2.68	n/a	5.0	NoResponse	-1	0.015	340.683	3	35	Feedback	Loss	True
343.117	2.68	Lose2	0.6944	n/a	No	2.68	n/a	n/a	NoResponse	-1	0.0	n/a	3	35	ISIslide	Loss	True
345.816	0.25	Control	0.6757	0.001	No	2.684	0.016	n/a	NoResponse	0	n/a	n/a	3	36	Cue	Neutral	True
346.066	4.0	Control	0.6757	0.0	No	2.684	0.0	n/a	NoResponse	0	n/a	n/a	3	36	Fixation	Neutral	True
350.065	0.24	Control	0.6757	0.001	No	2.684	-0.001	3.0	NoResponse	0	0.441	349.506	3	36	Target	Neutral	True
350.315	0.46	Control	0.6757	n/a	No	2.684	n/a	n/a	NoResponse	0	n/a	n/a	3	36	Blank	Neutral	True
350.506	0.3	Control	0.6757	0.001	No	2.684	-0.001	3.0	NoResponse	0	0.441	n/a	3	36	ButtonPress	Neutral	True
350.765	1.45	Control	0.6757	n/a	No	2.684	n/a	5.0	NoResponse	0	0.04	349.805	3	36	Feedback	Neutral	True
352.214	2.684	Control	0.6757	n/a	No	2.684	n/a	n/a	NoResponse	0	0.0	n/a	3	36	ISIslide	Neutral	True
354.93	0.25	Win2	0.6579	0.0	No	2.87	0.03	n/a	LatePress	0	n/a	n/a	3	37	Cue	MissedWin	True
355.18	4.0	Win2	0.6579	0.0	No	2.87	0.0	n/a	LatePress	0	n/a	n/a	3	37	Fixation	MissedWin	True
359.178	0.23	Win2	0.6579	0.002	No	2.87	-0.002	3.0	LatePress	0	0.23	358.408	3	37	Target	MissedWin	True
359.408	0.3	Win2	0.6579	0.002	No	2.87	-0.002	3.0	LatePress	0	0.23	n/a	3	37	ButtonPress	MissedWin	True
359.412	0.47	Win2	0.6579	n/a	No	2.87	n/a	n/a	LatePress	0	n/a	n/a	3	37	Blank	MissedWin	True
359.878	1.45	Win2	0.6579	n/a	No	2.87	n/a	5.0	LatePress	0	0.049	358.927	3	37	Feedback	MissedWin	True
361.328	2.87	Win2	0.6579	n/a	No	2.87	n/a	n/a	LatePress	0	0.0	n/a	3	37	ISIslide	MissedWin	True
364.227	0.25	Lose2	0.6667000000000001	0.0	Yes	2.823	0.027	n/a	GoodResponse	0	n/a	n/a	3	38	Cue	AvoidedLoss	True
364.477	3.95	Lose2	0.6667000000000001	0.0	Yes	2.823	0.0	n/a	GoodResponse	0	n/a	n/a	3	38	Fixation	AvoidedLoss	True
368.425	0.23	Lose2	0.6667000000000001	0.002	Yes	2.823	-0.002	3.0	GoodResponse	0	0.229	367.654	3	38	Target	AvoidedLoss	True
368.654	0.3	Lose2	0.6667000000000001	0.002	Yes	2.823	-0.002	3.0	GoodResponse	0	0.229	n/a	3	38	ButtonPress	AvoidedLoss	True
368.658	0.47	Lose2	0.6667000000000001	n/a	Yes	2.823	n/a	n/a	GoodResponse	0	n/a	n/a	3	38	Blank	AvoidedLoss	True
369.125	1.45	Lose2	0.6667000000000001	n/a	Yes	2.823	n/a	5.0	GoodResponse	0	0.022	368.147	3	38	Feedback	AvoidedLoss	True
370.574	2.823	Lose2	0.6667000000000001	n/a	Yes	2.823	n/a	n/a	GoodResponse	0	0.0	n/a	3	38	ISIslide	AvoidedLoss	True
373.424	0.25	Win2	0.65	0.0	No	2.976	0.024	n/a	NoResponse	0	n/a	n/a	3	39	Cue	MissedWin	True
373.673	4.1	Win2	0.65	0.001	No	2.976	-0.001	n/a	NoResponse	0	n/a	n/a	3	39	Fixation	MissedWin	True
377.772	0.22	Win2	0.65	0.002	No	2.976	-0.002	3.0	NoResponse	0	0.284	377.056	3	39	Target	MissedWin	True
378.005	0.48	Win2	0.65	n/a	No	2.976	n/a	n/a	NoResponse	0	n/a	n/a	3	39	Blank	MissedWin	True
378.056	0.3	Win2	0.65	0.002	No	2.976	-0.002	3.0	NoResponse	0	0.284	n/a	3	39	ButtonPress	MissedWin	True
378.472	1.45	Win2	0.65	n/a	No	2.976	n/a	5.0	NoResponse	0	0.041	377.513	3	39	Feedback	MissedWin	True
379.921	2.976	Win2	0.65	n/a	No	2.976	n/a	n/a	NoResponse	0	0.0	n/a	3	39	ISIslide	MissedWin	True
382.92	0.25	Win2	0.6341	0.0	No	2.73	0.02	n/a	NoResponse	0	n/a	n/a	3	40	Cue	MissedWin	True
383.17	3.95	Win2	0.6341	0.0	No	2.73	0.0	n/a	NoResponse	0	n/a	n/a	3	40	Fixation	MissedWin	True
387.119	0.23	Win2	0.6341	0.001	No	2.73	-0.001	3.0	NoResponse	0	0.245	386.364	3	40	Target	MissedWin	True
387.352	0.47	Win2	0.6341	n/a	No	2.73	n/a	n/a	NoResponse	0	n/a	n/a	3	40	Blank	MissedWin	True
387.364	0.3	Win2	0.6341	0.001	No	2.73	-0.001	3.0	NoResponse	0	0.245	n/a	3	40	ButtonPress	MissedWin	True
387.818	1.45	Win2	0.6341	n/a	No	2.73	n/a	5.0	NoResponse	0	0.011	386.829	3	40	Feedback	MissedWin	True
389.268	2.73	Win2	0.6341	n/a	No	2.73	n/a	n/a	NoResponse	0	0.0	n/a	3	40	ISIslide	MissedWin	True
392.017	0.25	Win2	0.619	0.0	No	2.783	0.017	n/a	NoResponse	0	n/a	n/a	3	41	Cue	MissedWin	True
392.267	3.9	Win2	0.619	0.0	No	2.783	0.0	n/a	NoResponse	0	n/a	n/a	3	41	Fixation	MissedWin	True
396.166	0.24	Win2	0.619	0.001	No	2.783	-0.001	3.0	NoResponse	0	0.276	395.442	3	41	Target	MissedWin	True
396.415	0.46	Win2	0.619	n/a	No	2.783	n/a	n/a	NoResponse	0	n/a	n/a	3	41	Blank	MissedWin	True
396.442	0.3	Win2	0.619	0.001	No	2.783	-0.001	3.0	NoResponse	0	0.276	n/a	3	41	ButtonPress	MissedWin	True
396.865	1.45	Win2	0.619	n/a	No	2.783	n/a	5.0	NoResponse	0	0.037	395.902	3	41	Feedback	MissedWin	True
398.315	2.783	Win2	0.619	n/a	No	2.783	n/a	n/a	NoResponse	0	0.0	n/a	3	41	ISIslide	MissedWin	True
401.114	0.25	Control	0.6047	0.0	No	2.936	0.014	n/a	NoResponse	0	n/a	n/a	3	42	Cue	Neutral	True
401.364	3.85	Control	0.6047	0.0	No	2.936	0.0	n/a	NoResponse	0	n/a	n/a	3	42	Fixation	Neutral	True
405.212	0.25	Control	0.6047	0.002	No	2.936	-0.002	3.0	NoResponse	0	0.293	404.505	3	42	Target	Neutral	True
405.462	0.45	Control	0.6047	n/a	No	2.936	n/a	n/a	NoResponse	0	n/a	n/a	3	42	Blank	Neutral	True
405.505	0.3	Control	0.6047	0.002	No	2.936	-0.002	3.0	NoResponse	0	0.293	n/a	3	42	ButtonPress	Neutral	True
405.912	1.45	Control	0.6047	n/a	No	2.936	n/a	5.0	NoResponse	0	0.015	404.927	3	42	Feedback	Neutral	True
407.362	2.936	Control	0.6047	n/a	No	2.936	n/a	n/a	NoResponse	0	0.0	n/a	3	42	ISIslide	Neutral	True
410.327	0.25	Win2	0.6136	0.0	Yes	3.173	0.027	n/a	GoodResponse	1	n/a	n/a	4	43	Cue	Win	True
410.577	4.0	Win2	0.6136	0.0	Yes	3.173	0.0	n/a	GoodResponse	1	n/a	n/a	4	43	Fixation	Win	True
414.576	0.26	Win2	0.6136	0.001	Yes	3.173	-0.001	3.0	GoodResponse	1	0.222	413.798	4	43	Target	Win	True
414.798	0.3	Win2	0.6136	0.001	Yes	3.173	-0.001	3.0	GoodResponse	1	0.222	n/a	4	43	ButtonPress	Win	True
414.842	0.44	Win2	0.6136	n/a	Yes	3.173	n/a	n/a	GoodResponse	1	n/a	n/a	4	43	Blank	Win	True
415.276	1.45	Win2	0.6136	n/a	Yes	3.173	n/a	5.0	GoodResponse	1	0.017	414.293	4	43	Feedback	Win	True
416.725	3.173	Win2	0.6136	n/a	Yes	3.173	n/a	n/a	GoodResponse	1	0.0	n/a	4	43	ISIslide	Win	True
419.924	0.25	Win2	0.6	0.0	No	2.976	0.024	n/a	LatePress	0	n/a	n/a	4	44	Cue	MissedWin	True
420.174	4.0	Win2	0.6	0.0	No	2.976	0.0	n/a	LatePress	0	n/a	n/a	4	44	Fixation	MissedWin	True
424.172	0.27	Win2	0.6	0.002	No	2.976	-0.002	3.0	LatePress	0	0.272	423.444	4	44	Target	MissedWin	True
424.444	0.3	Win2	0.6	0.002	No	2.976	-0.002	3.0	LatePress	0	0.272	n/a	4	44	ButtonPress	MissedWin	True
424.456	0.43	Win2	0.6	n/a	No	2.976	n/a	n/a	LatePress	0	n/a	n/a	4	44	Blank	MissedWin	True
424.872	1.45	Win2	0.6	n/a	No	2.976	n/a	5.0	LatePress	0	0.031	423.903	4	44	Feedback	MissedWin	True
426.322	2.976	Win2	0.6	n/a	No	2.976	n/a	n/a	LatePress	0	0.0	n/a	4	44	ISIslide	MissedWin	True
429.321	0.25	Control	0.6087	0.0	Yes	2.879	0.021	n/a	GoodResponse	0	n/a	n/a	4	45	Cue	Neutral	True
429.571	4.1	Control	0.6087	0.0	Yes	2.879	0.0	n/a	GoodResponse	0	n/a	n/a	4	45	Fixation	Neutral	True
433.669	0.28	Control	0.6087	0.002	Yes	2.879	-0.002	3.0	GoodResponse	0	0.252	432.921	4	45	Target	Neutral	True
433.921	0.3	Control	0.6087	0.002	Yes	2.879	-0.002	3.0	GoodResponse	0	0.252	n/a	4	45	ButtonPress	Neutral	True
433.952	0.42	Control	0.6087	n/a	Yes	2.879	n/a	n/a	GoodResponse	0	n/a	n/a	4	45	Blank	Neutral	True
434.369	1.45	Control	0.6087	n/a	Yes	2.879	n/a	5.0	GoodResponse	0	0.045	433.414	4	45	Feedback	Neutral	True
435.818	2.879	Control	0.6087	n/a	Yes	2.879	n/a	n/a	GoodResponse	0	0.0	n/a	4	45	ISIslide	Neutral	True
438.717	0.25	Lose2	0.617	0.0	Yes	3.383	0.017	n/a	GoodResponse	0	n/a	n/a	4	46	Cue	AvoidedLoss	True
438.967	4.0	Lose2	0.617	0.0	Yes	3.383	0.0	n/a	GoodResponse	0	n/a	n/a	4	46	Fixation	AvoidedLoss	True
442.966	0.29	Lose2	0.617	0.001	Yes	3.383	-0.001	3.0	GoodResponse	0	0.261	442.227	4	46	Target	AvoidedLoss	True
443.227	0.3	Lose2	0.617	0.001	Yes	3.383	-0.001	3.0	GoodResponse	0	0.261	n/a	4	46	ButtonPress	AvoidedLoss	True
443.266	0.41	Lose2	0.617	n/a	Yes	3.383	n/a	n/a	GoodResponse	0	n/a	n/a	4	46	Blank	AvoidedLoss	True
443.666	1.45	Lose2	0.617	n/a	Yes	3.383	n/a	5.0	GoodResponse	0	0.016	442.682	4	46	Feedback	AvoidedLoss	True
445.115	3.383	Lose2	0.617	n/a	Yes	3.383	n/a	n/a	GoodResponse	0	0.0	n/a	4	46	ISIslide	AvoidedLoss	True
448.514	0.25	Lose2	0.625	0.0	Yes	2.686	0.014	n/a	GoodResponse	0	n/a	n/a	4	47	Cue	AvoidedLoss	True
448.764	4.0	Lose2	0.625	0.0	Yes	2.686	0.0	n/a	GoodResponse	0	n/a	n/a	4	47	Fixation	AvoidedLoss	True
452.762	0.3	Lose2	0.625	0.002	Yes	2.686	-0.002	3.0	GoodResponse	0	0.275	452.037	4	47	Target	AvoidedLoss	True
453.037	0.3	Lose2	0.625	0.002	Yes	2.686	-0.002	3.0	GoodResponse	0	0.275	n/a	4	47	ButtonPress	AvoidedLoss	True
453.062	0.4	Lose2	0.625	n/a	Yes	2.686	n/a	n/a	GoodResponse	0	n/a	n/a	4	47	Blank	AvoidedLoss	True
453.462	1.45	Lose2	0.625	n/a	Yes	2.686	n/a	5.0	GoodResponse	0	0.025	452.487	4	47	Feedback	AvoidedLoss	True
454.912	2.686	Lose2	0.625	n/a	Yes	2.686	n/a	n/a	GoodResponse	0	0.0	n/a	4	47	ISIslide	AvoidedLoss	True
457.627	0.25	Lose2	0.6327	0.001	Yes	3.023	0.027	n/a	GoodResponse	0	n/a	n/a	4	48	Cue	AvoidedLoss	True
457.877	3.95	Lose2	0.6327	0.0	Yes	3.023	0.0	n/a	GoodResponse	0	n/a	n/a	4	48	Fixation	AvoidedLoss	True
461.826	0.31	Lose2	0.6327	0.001	Yes	3.023	-0.001	3.0	GoodResponse	0	0.258	461.084	4	48	Target	AvoidedLoss	True
462.084	0.3	Lose2	0.6327	0.001	Yes	3.023	-0.001	3.0	GoodResponse	0	0.258	n/a	4	48	ButtonPress	AvoidedLoss	True
462.143	0.39	Lose2	0.6327	n/a	Yes	3.023	n/a	n/a	GoodResponse	0	n/a	n/a	4	48	Blank	AvoidedLoss	True
462.526	1.45	Lose2	0.6327	n/a	Yes	3.023	n/a	5.0	GoodResponse	0	0.035	461.561	4	48	Feedback	AvoidedLoss	True
463.975	3.023	Lose2	0.6327	n/a	Yes	3.023	n/a	n/a	GoodResponse	0	0.0	n/a	4	48	ISIslide	AvoidedLoss	True
467.024	0.25	Control	0.62	0.0	No	2.876	0.024	n/a	LatePress	0	n/a	n/a	4	49	Cue	Neutral	True
467.274	4.0	Control	0.62	0.0	No	2.876	0.0	n/a	LatePress	0	n/a	n/a	4	49	Fixation	Neutral	True
471.273	0.32	Control	0.62	0.001	No	2.876	-0.001	3.0	LatePress	0	0.331	470.604	4	49	Target	Neutral	True
471.604	0.3	Control	0.62	0.001	No	2.876	-0.001	3.0	LatePress	0	0.331	n/a	4	49	ButtonPress	Neutral	True
471.606	0.38	Control	0.62	n/a	No	2.876	n/a	n/a	LatePress	0	n/a	n/a	4	49	Blank	Neutral	True
471.972	1.45	Control	0.62	n/a	No	2.876	n/a	5.0	LatePress	0	0.005	470.977	4	49	Feedback	Neutral	True
473.422	2.876	Control	0.62	n/a	No	2.876	n/a	n/a	LatePress	0	0.0	n/a	4	49	ISIslide	Neutral	True
476.321	0.25	Control	0.6275	0.0	Yes	2.779	0.021	n/a	GoodResponse	0	n/a	n/a	4	50	Cue	Neutral	True
476.571	4.0	Control	0.6275	0.0	Yes	2.779	0.0	n/a	GoodResponse	0	n/a	n/a	4	50	Fixation	Neutral	True
480.569	0.33	Control	0.6275	0.002	Yes	2.779	-0.002	3.0	GoodResponse	0	0.254	479.823	4	50	Target	Neutral	True
480.823	0.3	Control	0.6275	0.002	Yes	2.779	-0.002	3.0	GoodResponse	0	0.254	n/a	4	50	ButtonPress	Neutral	True
480.903	0.37	Control	0.6275	n/a	Yes	2.779	n/a	n/a	GoodResponse	0	n/a	n/a	4	50	Blank	Neutral	True
481.269	1.45	Control	0.6275	n/a	Yes	2.779	n/a	5.0	GoodResponse	0	0.024	480.293	4	50	Feedback	Neutral	True
482.719	2.779	Control	0.6275	n/a	Yes	2.779	n/a	n/a	GoodResponse	0	0.0	n/a	4	50	ISIslide	Neutral	True
485.518	0.25	Control	0.6346	0.0	Yes	2.732	0.018	n/a	GoodResponse	0	n/a	n/a	4	51	Cue	Neutral	True
485.768	3.95	Control	0.6346	0.0	Yes	2.732	0.0	n/a	GoodResponse	0	n/a	n/a	4	51	Fixation	Neutral	True
489.716	0.34	Control	0.6346	0.002	Yes	2.732	-0.002	3.0	GoodResponse	0	0.254	488.97	4	51	Target	Neutral	True
489.97	0.3	Control	0.6346	0.002	Yes	2.732	-0.002	3.0	GoodResponse	0	0.254	n/a	4	51	ButtonPress	Neutral	True
490.066	0.36	Control	0.6346	n/a	Yes	2.732	n/a	n/a	GoodResponse	0	n/a	n/a	4	51	Blank	Neutral	True
490.416	1.45	Control	0.6346	n/a	Yes	2.732	n/a	5.0	GoodResponse	0	0.046	489.462	4	51	Feedback	Neutral	True
491.866	2.732	Control	0.6346	n/a	Yes	2.732	n/a	n/a	GoodResponse	0	0.0	n/a	4	51	ISIslide	Neutral	True
494.615	0.25	Control	0.6415000000000001	0.0	Yes	2.635	0.015	n/a	GoodResponse	0	n/a	n/a	4	52	Cue	Neutral	True
494.864	4.05	Control	0.6415000000000001	0.001	Yes	2.635	-0.001	n/a	GoodResponse	0	n/a	n/a	4	52	Fixation	Neutral	True
498.913	0.35	Control	0.6415000000000001	0.002	Yes	2.635	-0.002	3.0	GoodResponse	0	0.252	498.165	4	52	Target	Neutral	True
499.165	0.3	Control	0.6415000000000001	0.002	Yes	2.635	-0.002	3.0	GoodResponse	0	0.252	n/a	4	52	ButtonPress	Neutral	True
499.263	0.35	Control	0.6415000000000001	n/a	Yes	2.635	n/a	n/a	GoodResponse	0	n/a	n/a	4	52	Blank	Neutral	True
499.613	1.45	Control	0.6415000000000001	n/a	Yes	2.635	n/a	5.0	GoodResponse	0	0.02	498.633	4	52	Feedback	Neutral	True
501.062	2.635	Control	0.6415000000000001	n/a	Yes	2.635	n/a	n/a	GoodResponse	0	0.0	n/a	4	52	ISIslide	Neutral	True
503.728	0.25	Win2	0.6481	0.0	Yes	2.922	0.028	n/a	GoodResponse	1	n/a	n/a	5	53	Cue	Win	True
503.978	4.05	Win2	0.6481	0.0	Yes	2.922	0.0	n/a	GoodResponse	1	n/a	n/a	5	53	Fixation	Win	True
508.027	0.36	Win2	0.6481	0.001	Yes	2.922	-0.001	3.0	GoodResponse	1	0.252	507.279	5	53	Target	Win	True
508.279	0.3	Win2	0.6481	0.001	Yes	2.922	-0.001	3.0	GoodResponse	1	0.252	n/a	5	53	ButtonPress	Win	True
508.393	0.34	Win2	0.6481	n/a	Yes	2.922	n/a	n/a	GoodResponse	1	n/a	n/a	5	53	Blank	Win	True
508.726	1.45	Win2	0.6481	n/a	Yes	2.922	n/a	5.0	GoodResponse	1	0.029	507.755	5	53	Feedback	Win	True
510.176	2.922	Win2	0.6481	n/a	Yes	2.922	n/a	n/a	GoodResponse	1	0.0	n/a	5	53	ISIslide	Win	True
513.125	0.25	Win2	0.6545000000000001	0.0	Yes	2.725	0.025	n/a	GoodResponse	1	n/a	n/a	6	54	Cue	Win	True
513.375	3.95	Win2	0.6545000000000001	0.0	Yes	2.725	0.0	n/a	GoodResponse	1	n/a	n/a	6	54	Fixation	Win	True
517.323	0.37	Win2	0.6545000000000001	0.002	Yes	2.725	-0.002	3.0	GoodResponse	1	0.211	516.534	6	54	Target	Win	True
517.534	0.3	Win2	0.6545000000000001	0.002	Yes	2.725	-0.002	3.0	GoodResponse	1	0.211	n/a	6	54	ButtonPress	Win	True
517.706	0.33	Win2	0.6545000000000001	n/a	Yes	2.725	n/a	n/a	GoodResponse	1	n/a	n/a	6	54	Blank	Win	True
518.023	1.45	Win2	0.6545000000000001	n/a	Yes	2.725	n/a	5.0	GoodResponse	1	0.001	517.024	6	54	Feedback	Win	True
519.473	2.725	Win2	0.6545000000000001	n/a	Yes	2.725	n/a	n/a	GoodResponse	1	0.0	n/a	6	54	ISIslide	Win	True
522.222	0.25	Control	0.6607	0.0	Yes	3.028	0.022	n/a	GoodResponse	0	n/a	n/a	6	55	Cue	Neutral	True
522.472	3.95	Control	0.6607	0.0	Yes	3.028	0.0	n/a	GoodResponse	0	n/a	n/a	6	55	Fixation	Neutral	True
526.42	0.38	Control	0.6607	0.002	Yes	3.028	-0.002	3.0	GoodResponse	0	0.329	525.749	6	55	Target	Neutral	True
526.749	0.3	Control	0.6607	0.002	Yes	3.028	-0.002	3.0	GoodResponse	0	0.329	n/a	6	55	ButtonPress	Neutral	True
526.803	0.32	Control	0.6607	n/a	Yes	3.028	n/a	n/a	GoodResponse	0	n/a	n/a	6	55	Blank	Neutral	True
527.12	1.45	Control	0.6607	n/a	Yes	3.028	n/a	5.0	GoodResponse	0	0.026	526.146	6	55	Feedback	Neutral	True
528.569	3.028	Control	0.6607	n/a	Yes	3.028	n/a	n/a	GoodResponse	0	0.0	n/a	6	55	ISIslide	Neutral	True
531.618	0.25	Control	0.6667000000000001	0.0	Yes	2.832	0.018	n/a	GoodResponse	0	n/a	n/a	6	56	Cue	Neutral	True
531.868	3.95	Control	0.6667000000000001	0.0	Yes	2.832	0.0	n/a	GoodResponse	0	n/a	n/a	6	56	Fixation	Neutral	True
535.817	0.38	Control	0.6667000000000001	0.001	Yes	2.832	-0.001	3.0	GoodResponse	0	0.22	535.037	6	56	Target	Neutral	True
536.037	0.3	Control	0.6667000000000001	0.001	Yes	2.832	-0.001	3.0	GoodResponse	0	0.22	n/a	6	56	ButtonPress	Neutral	True
536.2	0.32	Control	0.6667000000000001	n/a	Yes	2.832	n/a	n/a	GoodResponse	0	n/a	n/a	6	56	Blank	Neutral	True
536.517	1.45	Control	0.6667000000000001	n/a	Yes	2.832	n/a	5.0	GoodResponse	0	0.043	535.56	6	56	Feedback	Neutral	True
537.966	2.832	Control	0.6667000000000001	n/a	Yes	2.832	n/a	n/a	GoodResponse	0	0.0	n/a	6	56	ISIslide	Neutral	True
540.815	0.25	Control	0.6724	0.0	Yes	3.485	0.015	n/a	GoodResponse	0	n/a	n/a	6	57	Cue	Neutral	True
541.065	4.0	Control	0.6724	0.0	Yes	3.485	0.0	n/a	GoodResponse	0	n/a	n/a	6	57	Fixation	Neutral	True
545.064	0.37	Control	0.6724	0.001	Yes	3.485	-0.001	3.0	GoodResponse	0	0.234	544.298	6	57	Target	Neutral	True
545.298	0.3	Control	0.6724	0.001	Yes	3.485	-0.001	3.0	GoodResponse	0	0.234	n/a	6	57	ButtonPress	Neutral	True
545.447	0.33	Control	0.6724	n/a	Yes	3.485	n/a	n/a	GoodResponse	0	n/a	n/a	6	57	Blank	Neutral	True
545.763	1.45	Control	0.6724	n/a	Yes	3.485	n/a	5.0	GoodResponse	0	0.016	544.779	6	57	Feedback	Neutral	True
547.213	3.485	Control	0.6724	n/a	Yes	3.485	n/a	n/a	GoodResponse	0	0.0	n/a	6	57	ISIslide	Neutral	True
550.728	0.25	Win2	0.6779999999999999	0.0	Yes	2.722	0.028	n/a	GoodResponse	1	n/a	n/a	7	58	Cue	Win	True
550.978	4.05	Win2	0.6779999999999999	0.0	Yes	2.722	0.0	n/a	GoodResponse	1	n/a	n/a	7	58	Fixation	Win	True
555.027	0.36	Win2	0.6779999999999999	0.001	Yes	2.722	-0.001	3.0	GoodResponse	1	0.251	554.278	7	58	Target	Win	True
555.278	0.3	Win2	0.6779999999999999	0.001	Yes	2.722	-0.001	3.0	GoodResponse	1	0.251	n/a	7	58	ButtonPress	Win	True
555.393	0.34	Win2	0.6779999999999999	n/a	Yes	2.722	n/a	n/a	GoodResponse	1	n/a	n/a	7	58	Blank	Win	True
555.727	1.45	Win2	0.6779999999999999	n/a	Yes	2.722	n/a	5.0	GoodResponse	1	0.004	554.731	7	58	Feedback	Win	True
557.176	2.722	Win2	0.6779999999999999	n/a	Yes	2.722	n/a	n/a	GoodResponse	1	0.0	n/a	7	58	ISIslide	Win	True
559.925	0.25	Lose2	0.6833	0.0	Yes	2.675	0.025	n/a	GoodResponse	0	n/a	n/a	7	59	Cue	AvoidedLoss	True
560.175	4.0	Lose2	0.6833	0.0	Yes	2.675	0.0	n/a	GoodResponse	0	n/a	n/a	7	59	Fixation	AvoidedLoss	True
564.174	0.35	Lose2	0.6833	0.001	Yes	2.675	-0.001	3.0	GoodResponse	0	0.256	563.43	7	59	Target	AvoidedLoss	True
564.43	0.3	Lose2	0.6833	0.001	Yes	2.675	-0.001	3.0	GoodResponse	0	0.256	n/a	7	59	ButtonPress	AvoidedLoss	True
564.524	0.35	Lose2	0.6833	n/a	Yes	2.675	n/a	n/a	GoodResponse	0	n/a	n/a	7	59	Blank	AvoidedLoss	True
564.873	1.45	Lose2	0.6833	n/a	Yes	2.675	n/a	5.0	GoodResponse	0	0.028	563.901	7	59	Feedback	AvoidedLoss	True
566.323	2.675	Lose2	0.6833	n/a	Yes	2.675	n/a	n/a	GoodResponse	0	0.0	n/a	7	59	ISIslide	AvoidedLoss	True
569.022	0.25	Control	0.6720999999999999	0.0	No	2.678	0.022	n/a	NoResponse	0	n/a	n/a	7	60	Cue	Neutral	True
569.272	4.0	Control	0.6720999999999999	0.0	No	2.678	0.0	n/a	NoResponse	0	n/a	n/a	7	60	Fixation	Neutral	True
573.27	0.34	Control	0.6720999999999999	0.002	No	2.678	-0.002	3.0	NoResponse	0	0.357	572.627	7	60	Target	Neutral	True
573.62	0.36	Control	0.6720999999999999	n/a	No	2.678	n/a	n/a	NoResponse	0	n/a	n/a	7	60	Blank	Neutral	True
573.627	0.3	Control	0.6720999999999999	0.002	No	2.678	-0.002	3.0	NoResponse	0	0.357	n/a	7	60	ButtonPress	Neutral	True
573.97	1.45	Control	0.6720999999999999	n/a	No	2.678	n/a	5.0	NoResponse	0	0.005	572.975	7	60	Feedback	Neutral	True
575.42	2.678	Control	0.6720999999999999	n/a	No	2.678	n/a	n/a	NoResponse	0	0.0	n/a	7	60	ISIslide	Neutral	True
578.119	0.25	Lose2	0.6774	0.0	Yes	2.981	0.019	n/a	GoodResponse	0	n/a	n/a	7	61	Cue	AvoidedLoss	True
578.369	4.0	Lose2	0.6774	0.0	Yes	2.981	0.0	n/a	GoodResponse	0	n/a	n/a	7	61	Fixation	AvoidedLoss	True
582.367	0.33	Lose2	0.6774	0.002	Yes	2.981	-0.002	3.0	GoodResponse	0	0.269	581.636	7	61	Target	AvoidedLoss	True
582.636	0.3	Lose2	0.6774	0.002	Yes	2.981	-0.002	3.0	GoodResponse	0	0.269	n/a	7	61	ButtonPress	AvoidedLoss	True
582.7	0.37	Lose2	0.6774	n/a	Yes	2.981	n/a	n/a	GoodResponse	0	n/a	n/a	7	61	Blank	AvoidedLoss	True
583.067	1.45	Lose2	0.6774	n/a	Yes	2.981	n/a	5.0	GoodResponse	0	0.029	582.096	7	61	Feedback	AvoidedLoss	True
584.517	2.981	Lose2	0.6774	n/a	Yes	2.981	n/a	n/a	GoodResponse	0	0.0	n/a	7	61	ISIslide	AvoidedLoss	True
587.515	0.25	Lose2	0.6825	0.001	Yes	2.885	0.015	n/a	GoodResponse	0	n/a	n/a	7	62	Cue	AvoidedLoss	True
587.765	3.9	Lose2	0.6825	0.0	Yes	2.885	0.0	n/a	GoodResponse	0	n/a	n/a	7	62	Fixation	AvoidedLoss	True
591.664	0.32	Lose2	0.6825	0.001	Yes	2.885	-0.001	3.0	GoodResponse	0	0.303	590.967	7	62	Target	AvoidedLoss	True
591.967	0.3	Lose2	0.6825	0.001	Yes	2.885	-0.001	3.0	GoodResponse	0	0.303	n/a	7	62	ButtonPress	AvoidedLoss	True
591.981	0.38	Lose2	0.6825	n/a	Yes	2.885	n/a	n/a	GoodResponse	0	n/a	n/a	7	62	Blank	AvoidedLoss	True
592.364	1.45	Lose2	0.6825	n/a	Yes	2.885	n/a	5.0	GoodResponse	0	0.0	591.364	7	62	Feedback	AvoidedLoss	True
593.813	2.885	Lose2	0.6825	n/a	Yes	2.885	n/a	n/a	GoodResponse	0	0.0	n/a	7	62	ISIslide	AvoidedLoss	True
596.712	0.25	Lose2	0.6718999999999999	0.0	No	2.638	0.012	n/a	NoResponse	-1	n/a	n/a	6	63	Cue	Loss	True
596.962	4.05	Lose2	0.6718999999999999	0.0	No	2.638	0.0	n/a	NoResponse	-1	n/a	n/a	6	63	Fixation	Loss	True
601.011	0.31	Lose2	0.6718999999999999	0.001	No	2.638	-0.001	3.0	NoResponse	-1	0.379	600.39	6	63	Target	Loss	True
601.327	0.39	Lose2	0.6718999999999999	n/a	No	2.638	n/a	n/a	NoResponse	-1	n/a	n/a	6	63	Blank	Loss	True
601.39	0.3	Lose2	0.6718999999999999	0.001	No	2.638	-0.001	3.0	NoResponse	-1	0.379	n/a	6	63	ButtonPress	Loss	True
601.711	1.45	Lose2	0.6718999999999999	n/a	No	2.638	n/a	5.0	NoResponse	-1	0.019	600.73	6	63	Feedback	Loss	True
603.16	2.638	Lose2	0.6718999999999999	n/a	No	2.638	n/a	n/a	NoResponse	-1	0.0	n/a	6	63	ISIslide	Loss	True
605.826	0.25	Win2	0.6769	0.0	Yes	3.124	0.026	n/a	GoodResponse	1	n/a	n/a	7	64	Cue	Win	True
606.076	4.15	Win2	0.6769	0.0	Yes	3.124	0.0	n/a	GoodResponse	1	n/a	n/a	7	64	Fixation	Win	True
610.224	0.3	Win2	0.6769	0.002	Yes	3.124	-0.002	3.0	GoodResponse	1	0.237	609.461	7	64	Target	Win	True
610.461	0.3	Win2	0.6769	0.002	Yes	3.124	-0.002	3.0	GoodResponse	1	0.237	n/a	7	64	ButtonPress	Win	True
610.524	0.4	Win2	0.6769	n/a	Yes	3.124	n/a	n/a	GoodResponse	1	n/a	n/a	7	64	Blank	Win	True
610.924	1.45	Win2	0.6769	n/a	Yes	3.124	n/a	5.0	GoodResponse	1	0.026	609.95	7	64	Feedback	Win	True
612.373	3.124	Win2	0.6769	n/a	Yes	3.124	n/a	n/a	GoodResponse	1	0.0	n/a	7	64	ISIslide	Win	True
615.522	0.25	Control	0.6818000000000001	0.0	Yes	2.778	0.022	n/a	GoodResponse	0	n/a	n/a	7	65	Cue	Neutral	True
615.772	4.0	Control	0.6818000000000001	0.0	Yes	2.778	0.0	n/a	GoodResponse	0	n/a	n/a	7	65	Fixation	Neutral	True
619.771	0.29	Control	0.6818000000000001	0.001	Yes	2.778	-0.001	3.0	GoodResponse	0	0.262	619.033	7	65	Target	Neutral	True
620.033	0.3	Control	0.6818000000000001	0.001	Yes	2.778	-0.001	3.0	GoodResponse	0	0.262	n/a	7	65	ButtonPress	Neutral	True
620.071	0.41	Control	0.6818000000000001	n/a	Yes	2.778	n/a	n/a	GoodResponse	0	n/a	n/a	7	65	Blank	Neutral	True
620.471	1.45	Control	0.6818000000000001	n/a	Yes	2.778	n/a	5.0	GoodResponse	0	0.04	619.511	7	65	Feedback	Neutral	True
621.92	2.778	Control	0.6818000000000001	n/a	Yes	2.778	n/a	n/a	GoodResponse	0	0.0	n/a	7	65	ISIslide	Neutral	True
624.719	0.25	Win2	0.6716	0.0	No	2.781	0.019	n/a	NoResponse	0	n/a	n/a	7	66	Cue	MissedWin	True
624.969	3.9	Win2	0.6716	0.0	No	2.781	0.0	n/a	NoResponse	0	n/a	n/a	7	66	Fixation	MissedWin	True
628.868	0.28	Win2	0.6716	0.001	No	2.781	-0.001	3.0	NoResponse	0	0.376	628.244	7	66	Target	MissedWin	True
629.151	0.42	Win2	0.6716	n/a	No	2.781	n/a	n/a	NoResponse	0	n/a	n/a	7	66	Blank	MissedWin	True
629.244	0.3	Win2	0.6716	0.001	No	2.781	-0.001	3.0	NoResponse	0	0.376	n/a	7	66	ButtonPress	MissedWin	True
629.567	1.45	Win2	0.6716	n/a	No	2.781	n/a	5.0	NoResponse	0	0.017	628.584	7	66	Feedback	MissedWin	True
631.017	2.781	Win2	0.6716	n/a	No	2.781	n/a	n/a	NoResponse	0	0.0	n/a	7	66	ISIslide	MissedWin	True
633.816	0.25	Control	0.6618	0.0	No	2.734	0.016	n/a	NoResponse	0	n/a	n/a	7	67	Cue	Neutral	True
634.066	3.95	Control	0.6618	0.0	No	2.734	0.0	n/a	NoResponse	0	n/a	n/a	7	67	Fixation	Neutral	True
638.015	0.27	Control	0.6618	0.001	No	2.734	-0.001	3.0	NoResponse	0	0.33	637.345	7	67	Target	Neutral	True
638.298	0.43	Control	0.6618	n/a	No	2.734	n/a	n/a	NoResponse	0	n/a	n/a	7	67	Blank	Neutral	True
638.345	0.3	Control	0.6618	0.001	No	2.734	-0.001	3.0	NoResponse	0	0.33	n/a	7	67	ButtonPress	Neutral	True
638.714	1.45	Control	0.6618	n/a	No	2.734	n/a	5.0	NoResponse	0	0.04	637.754	7	67	Feedback	Neutral	True
640.164	2.734	Control	0.6618	n/a	No	2.734	n/a	n/a	NoResponse	0	0.0	n/a	7	67	ISIslide	Neutral	True
642.913	0.25	Win2	0.6667000000000001	0.0	Yes	3.087	0.013	n/a	GoodResponse	1	n/a	n/a	8	68	Cue	Win	True
643.163	4.0	Win2	0.6667000000000001	0.0	Yes	3.087	0.0	n/a	GoodResponse	1	n/a	n/a	8	68	Fixation	Win	True
647.161	0.27	Win2	0.6667000000000001	0.002	Yes	3.087	-0.002	3.0	GoodResponse	1	0.22	646.381	8	68	Target	Win	True
647.381	0.3	Win2	0.6667000000000001	0.002	Yes	3.087	-0.002	3.0	GoodResponse	1	0.22	n/a	8	68	ButtonPress	Win	True
647.445	0.43	Win2	0.6667000000000001	n/a	Yes	3.087	n/a	n/a	GoodResponse	1	n/a	n/a	8	68	Blank	Win	True
647.861	1.45	Win2	0.6667000000000001	n/a	Yes	3.087	n/a	5.0	GoodResponse	1	0.015	646.876	8	68	Feedback	Win	True
649.311	3.087	Win2	0.6667000000000001	n/a	Yes	3.087	n/a	n/a	GoodResponse	1	0.0	n/a	8	68	ISIslide	Win	True
652.426	0.25	Win2	0.6714	0.0	Yes	3.224	0.026	n/a	GoodResponse	1	n/a	n/a	9	69	Cue	Win	True
652.676	3.95	Win2	0.6714	0.0	Yes	3.224	0.0	n/a	GoodResponse	1	n/a	n/a	9	69	Fixation	Win	True
656.625	0.26	Win2	0.6714	0.001	Yes	3.224	-0.001	3.0	GoodResponse	1	0.243	655.868	9	69	Target	Win	True
656.868	0.3	Win2	0.6714	0.001	Yes	3.224	-0.001	3.0	GoodResponse	1	0.243	n/a	9	69	ButtonPress	Win	True
656.891	0.44	Win2	0.6714	n/a	Yes	3.224	n/a	n/a	GoodResponse	1	n/a	n/a	9	69	Blank	Win	True
657.324	1.45	Win2	0.6714	n/a	Yes	3.224	n/a	5.0	GoodResponse	1	0.016	656.34	9	69	Feedback	Win	True
658.774	3.224	Win2	0.6714	n/a	Yes	3.224	n/a	n/a	GoodResponse	1	0.0	n/a	9	69	ISIslide	Win	True
662.023	0.25	Lose2	0.662	0.0	No	3.027	0.023	n/a	NoResponse	-1	n/a	n/a	8	70	Cue	Loss	True
662.273	4.05	Lose2	0.662	0.0	No	3.027	0.0	n/a	NoResponse	-1	n/a	n/a	8	70	Fixation	Loss	True
666.321	0.25	Lose2	0.662	0.002	No	3.027	-0.002	3.0	NoResponse	-1	0.258	665.579	8	70	Target	Loss	True
666.571	0.45	Lose2	0.662	n/a	No	3.027	n/a	n/a	NoResponse	-1	n/a	n/a	8	70	Blank	Loss	True
666.579	0.3	Lose2	0.662	0.002	No	3.027	-0.002	3.0	NoResponse	-1	0.258	n/a	8	70	ButtonPress	Loss	True
667.021	1.45	Lose2	0.662	n/a	No	3.027	n/a	5.0	NoResponse	-1	0.026	666.047	8	70	Feedback	Loss	True
668.471	3.027	Lose2	0.662	n/a	No	3.027	n/a	n/a	NoResponse	-1	0.0	n/a	8	70	ISIslide	Loss	True
671.52	0.25	Win2	0.6667000000000001	0.0	Yes	2.73	0.02	n/a	GoodResponse	1	n/a	n/a	9	71	Cue	Win	True
671.769	4.05	Win2	0.6667000000000001	0.001	Yes	2.73	-0.001	n/a	GoodResponse	1	n/a	n/a	9	71	Fixation	Win	True
675.818	0.25	Win2	0.6667000000000001	0.002	Yes	2.73	-0.002	3.0	GoodResponse	1	0.125	674.943	9	71	Target	Win	True
675.943	0.3	Win2	0.6667000000000001	0.002	Yes	2.73	-0.002	3.0	GoodResponse	1	0.125	n/a	9	71	ButtonPress	Win	True
676.068	0.45	Win2	0.6667000000000001	n/a	Yes	2.73	n/a	n/a	GoodResponse	1	n/a	n/a	9	71	Blank	Win	True
676.518	1.45	Win2	0.6667000000000001	n/a	Yes	2.73	n/a	5.0	GoodResponse	1	0.041	675.559	9	71	Feedback	Win	True
677.967	2.73	Win2	0.6667000000000001	n/a	Yes	2.73	n/a	n/a	GoodResponse	1	0.0	n/a	9	71	ISIslide	Win	True
680.716	0.25	Win2	0.6575	0.0	No	2.784	0.016	n/a	NoResponse	0	n/a	n/a	9	72	Cue	MissedWin	True
680.966	4.1	Win2	0.6575	0.0	No	2.784	0.0	n/a	NoResponse	0	n/a	n/a	9	72	Fixation	MissedWin	True
685.065	0.24	Win2	0.6575	0.001	No	2.784	-0.001	3.0	NoResponse	0	0.313	684.378	9	72	Target	MissedWin	True
685.315	0.46	Win2	0.6575	n/a	No	2.784	n/a	n/a	NoResponse	0	n/a	n/a	9	72	Blank	MissedWin	True
685.378	0.3	Win2	0.6575	0.001	No	2.784	-0.001	3.0	NoResponse	0	0.313	n/a	9	72	ButtonPress	MissedWin	True
685.765	1.45	Win2	0.6575	n/a	No	2.784	n/a	5.0	NoResponse	0	0.014	684.779	9	72	Feedback	MissedWin	True
687.214	2.784	Win2	0.6575	n/a	No	2.784	n/a	n/a	NoResponse	0	0.0	n/a	9	72	ISIslide	MissedWin	True
690.013	0.25	Win2	0.6486	0.0	No	2.687	0.013	n/a	LatePress	0	n/a	n/a	9	73	Cue	MissedWin	True
690.263	4.0	Win2	0.6486	0.0	No	2.687	0.0	n/a	LatePress	0	n/a	n/a	9	73	Fixation	MissedWin	True
694.262	0.24	Win2	0.6486	0.001	No	2.687	-0.001	3.0	LatePress	0	0.247	693.509	9	73	Target	MissedWin	True
694.509	0.3	Win2	0.6486	0.001	No	2.687	-0.001	3.0	LatePress	0	0.247	n/a	9	73	ButtonPress	MissedWin	True
694.511	0.46	Win2	0.6486	n/a	No	2.687	n/a	n/a	LatePress	0	n/a	n/a	9	73	Blank	MissedWin	True
694.961	1.45	Win2	0.6486	n/a	No	2.687	n/a	5.0	LatePress	0	0.037	693.998	9	73	Feedback	MissedWin	True
696.411	2.687	Win2	0.6486	n/a	No	2.687	n/a	n/a	LatePress	0	0.0	n/a	9	73	ISIslide	MissedWin	True
699.127	0.25	Lose2	0.64	0.0	No	2.623	0.027	n/a	NoResponse	-1	n/a	n/a	8	74	Cue	Loss	True
699.376	4.05	Lose2	0.64	0.001	No	2.623	-0.001	n/a	NoResponse	-1	n/a	n/a	8	74	Fixation	Loss	True
703.425	0.25	Lose2	0.64	0.002	No	2.623	-0.002	3.0	NoResponse	-1	0.346	702.771	8	74	Target	Loss	True
703.675	0.45	Lose2	0.64	n/a	No	2.623	n/a	n/a	NoResponse	-1	n/a	n/a	8	74	Blank	Loss	True
703.771	0.3	Lose2	0.64	0.002	No	2.623	-0.002	3.0	NoResponse	-1	0.346	n/a	8	74	ButtonPress	Loss	True
704.125	1.45	Lose2	0.64	n/a	No	2.623	n/a	5.0	NoResponse	-1	0.044	703.169	8	74	Feedback	Loss	True
705.574	2.623	Lose2	0.64	n/a	No	2.623	n/a	n/a	NoResponse	-1	0.0	n/a	8	74	ISIslide	Loss	True
708.223	0.25	Lose2	0.6315999999999999	0.0	No	2.927	0.023	n/a	NoResponse	-1	n/a	n/a	7	75	Cue	Loss	True
708.473	3.95	Lose2	0.6315999999999999	0.0	No	2.927	0.0	n/a	NoResponse	-1	n/a	n/a	7	75	Fixation	Loss	True
712.422	0.26	Lose2	0.6315999999999999	0.001	No	2.927	-0.001	3.0	NoResponse	-1	0.337	711.759	7	75	Target	Loss	True
712.688	0.44	Lose2	0.6315999999999999	n/a	No	2.927	n/a	n/a	NoResponse	-1	n/a	n/a	7	75	Blank	Loss	True
712.759	0.3	Lose2	0.6315999999999999	0.001	No	2.927	-0.001	3.0	NoResponse	-1	0.337	n/a	7	75	ButtonPress	Loss	True
713.122	1.45	Lose2	0.6315999999999999	n/a	No	2.927	n/a	5.0	NoResponse	-1	0.022	712.144	7	75	Feedback	Loss	True
714.571	2.927	Lose2	0.6315999999999999	n/a	No	2.927	n/a	n/a	NoResponse	-1	0.0	n/a	7	75	ISIslide	Loss	True
717.52	0.25	Control	0.6234000000000001	0.0	No	3.23	0.02	n/a	NoResponse	0	n/a	n/a	7	76	Cue	Neutral	True
717.77	4.05	Control	0.6234000000000001	0.0	No	3.23	0.0	n/a	NoResponse	0	n/a	n/a	7	76	Fixation	Neutral	True
721.819	0.27	Control	0.6234000000000001	0.001	No	3.23	-0.001	3.0	NoResponse	0	0.355	721.174	7	76	Target	Neutral	True
722.102	0.43	Control	0.6234000000000001	n/a	No	3.23	n/a	n/a	NoResponse	0	n/a	n/a	7	76	Blank	Neutral	True
722.174	0.3	Control	0.6234000000000001	0.001	No	3.23	-0.001	3.0	NoResponse	0	0.355	n/a	7	76	ButtonPress	Neutral	True
722.518	1.45	Control	0.6234000000000001	n/a	No	3.23	n/a	5.0	NoResponse	0	0.041	721.559	7	76	Feedback	Neutral	True
723.968	3.23	Control	0.6234000000000001	n/a	No	3.23	n/a	n/a	NoResponse	0	0.0	n/a	7	76	ISIslide	Neutral	True
727.217	0.25	Lose2	0.6282	0.0	Yes	2.583	0.017	n/a	GoodResponse	0	n/a	n/a	7	77	Cue	AvoidedLoss	True
727.467	3.95	Lose2	0.6282	0.0	Yes	2.583	0.0	n/a	GoodResponse	0	n/a	n/a	7	77	Fixation	AvoidedLoss	True
731.415	0.28	Lose2	0.6282	0.002	Yes	2.583	-0.002	3.0	GoodResponse	0	0.248	730.663	7	77	Target	AvoidedLoss	True
731.663	0.3	Lose2	0.6282	0.002	Yes	2.583	-0.002	3.0	GoodResponse	0	0.248	n/a	7	77	ButtonPress	AvoidedLoss	True
731.699	0.42	Lose2	0.6282	n/a	Yes	2.583	n/a	n/a	GoodResponse	0	n/a	n/a	7	77	Blank	AvoidedLoss	True
732.115	1.45	Lose2	0.6282	n/a	Yes	2.583	n/a	5.0	GoodResponse	0	0.005	731.12	7	77	Feedback	AvoidedLoss	True
733.565	2.583	Lose2	0.6282	n/a	Yes	2.583	n/a	n/a	GoodResponse	0	0.0	n/a	7	77	ISIslide	AvoidedLoss	True
