onset	duration	cue_type	current_mean_accuracy	duration_error	is_hit	isi_adjusted	onset_delay	response	response_type	reward	rt	rt_time	total_reward	trial_number	trial_phase	trial_type	one_press
11.101	0.25	Control	1.0	0.0	Yes	2.949	0.001	n/a	GoodResponse	0	n/a	n/a	0	0	Cue	Neutral	True
11.352	3.85	Control	1.0	0.0	Yes	2.949	0.001	n/a	GoodResponse	0	n/a	n/a	0	0	Fixation	Neutral	True
15.197	0.4	Control	1.0	0.004	Yes	2.949	-0.004	2.0	GoodResponse	0	0.239	14.436	0	0	Target	Neutral	True
15.436	0.3	Control	1.0	0.004	Yes	2.949	-0.004	2.0	GoodResponse	0	0.239	n/a	0	0	ButtonPress	Neutral	True
15.598	0.3	Control	1.0	n/a	Yes	2.949	n/a	n/a	GoodResponse	0	n/a	n/a	0	0	Blank	Neutral	True
15.899	1.45	Control	1.0	n/a	Yes	2.949	n/a	5.0	GoodResponse	0	0.027	14.926	0	0	Feedback	Neutral	True
17.353	2.949	Control	1.0	n/a	Yes	2.949	n/a	n/a	GoodResponse	0	0.0	n/a	0	0	ISIslide	Neutral	True
20.329	0.25	Lose2	1.0	0.0	Yes	2.771	0.029	n/a	GoodResponse	0	n/a	n/a	0	1	Cue	AvoidedLoss	True
20.58	4.0	Lose2	1.0	0.0	Yes	2.771	0.001	n/a	GoodResponse	0	n/a	n/a	0	1	Fixation	AvoidedLoss	True
24.575	0.39	Lose2	1.0	0.004	Yes	2.771	-0.004	2.0	GoodResponse	0	0.22	23.795	0	1	Target	AvoidedLoss	True
24.795	0.3	Lose2	1.0	0.004	Yes	2.771	-0.004	2.0	GoodResponse	0	0.22	n/a	0	1	ButtonPress	AvoidedLoss	True
24.976	0.31	Lose2	1.0	n/a	Yes	2.771	n/a	n/a	GoodResponse	0	n/a	n/a	0	1	Blank	AvoidedLoss	True
25.277	1.45	Lose2	1.0	n/a	Yes	2.771	n/a	5.0	GoodResponse	0	0.015	24.292	0	1	Feedback	AvoidedLoss	True
26.731	2.771	Lose2	1.0	n/a	Yes	2.771	n/a	n/a	GoodResponse	0	0.0	n/a	0	1	ISIslide	AvoidedLoss	True
29.523	0.25	Control	1.0	0.0	Yes	2.577	0.023	n/a	GoodResponse	0	n/a	n/a	0	2	Cue	Neutral	True
29.774	4.1	Control	1.0	0.0	Yes	2.577	0.001	n/a	GoodResponse	0	n/a	n/a	0	2	Fixation	Neutral	True
33.869	0.38	Control	1.0	0.004	Yes	2.577	-0.004	2.0	GoodResponse	0	0.217	33.086	0	2	Target	Neutral	True
34.086	0.3	Control	1.0	0.004	Yes	2.577	-0.004	2.0	GoodResponse	0	0.217	n/a	0	2	ButtonPress	Neutral	True
34.254	0.32	Control	1.0	n/a	Yes	2.577	n/a	n/a	GoodResponse	0	n/a	n/a	0	2	Blank	Neutral	True
34.571	1.45	Control	1.0	n/a	Yes	2.577	n/a	5.0	GoodResponse	0	0.038	33.609	0	2	Feedback	Neutral	True
36.026	2.577	Control	1.0	n/a	Yes	2.577	n/a	n/a	GoodResponse	0	0.0	n/a	0	2	ISIslide	Neutral	True
38.617	0.25	Win2	1.0	0.0	Yes	2.833	0.017	n/a	GoodResponse	1	n/a	n/a	1	3	Cue	Win	True
38.868	3.95	Win2	1.0	0.0	Yes	2.833	0.001	n/a	GoodResponse	1	n/a	n/a	1	3	Fixation	Win	True
42.813	0.37	Win2	1.0	0.004	Yes	2.833	-0.004	2.0	GoodResponse	1	0.212	42.025	1	3	Target	Win	True
43.025	0.3	Win2	1.0	0.004	Yes	2.833	-0.004	2.0	GoodResponse	1	0.212	n/a	1	3	ButtonPress	Win	True
43.197	0.33	Win2	1.0	n/a	Yes	2.833	n/a	n/a	GoodResponse	1	n/a	n/a	1	3	Blank	Win	True
43.515	1.45	Win2	1.0	n/a	Yes	2.833	n/a	5.0	GoodResponse	1	0.021	42.536	1	3	Feedback	Win	True
44.969	2.833	Win2	1.0	n/a	Yes	2.833	n/a	n/a	GoodResponse	1	0.0	n/a	1	3	ISIslide	Win	True
47.828	0.25	Win2	1.0	0.0	Yes	3.272	0.028	n/a	GoodResponse	1	n/a	n/a	2	4	Cue	Win	True
48.078	4.0	Win2	1.0	0.001	Yes	3.272	0.0	n/a	GoodResponse	1	n/a	n/a	2	4	Fixation	Win	True
52.074	0.36	Win2	1.0	0.004	Yes	3.272	-0.004	2.0	GoodResponse	1	0.264	51.338	2	4	Target	Win	True
52.338	0.3	Win2	1.0	0.004	Yes	3.272	-0.004	2.0	GoodResponse	1	0.264	n/a	2	4	ButtonPress	Win	True
52.441	0.34	Win2	1.0	n/a	Yes	3.272	n/a	n/a	GoodResponse	1	n/a	n/a	2	4	Blank	Win	True
52.776	1.45	Win2	1.0	n/a	Yes	3.272	n/a	5.0	GoodResponse	1	0.027	51.803	2	4	Feedback	Win	True
54.23	3.272	Win2	1.0	n/a	Yes	3.272	n/a	n/a	GoodResponse	1	0.0	n/a	2	4	ISIslide	Win	True
57.523	0.25	Win2	1.0	0.0	Yes	2.777	0.023	n/a	GoodResponse	1	n/a	n/a	3	5	Cue	Win	True
57.774	4.0	Win2	1.0	0.0	Yes	2.777	0.001	n/a	GoodResponse	1	n/a	n/a	3	5	Fixation	Win	True
61.769	0.35	Win2	1.0	0.004	Yes	2.777	-0.004	2.0	GoodResponse	1	0.231	61.0	3	5	Target	Win	True
62	0.3	Win2	1.0	0.004	Yes	2.777	-0.004	2.0	GoodResponse	1	0.231	n/a	3	5	ButtonPress	Win	True
62.12	0.35	Win2	1.0	n/a	Yes	2.777	n/a	n/a	GoodResponse	1	n/a	n/a	3	5	Blank	Win	True
62.471	1.45	Win2	1.0	n/a	Yes	2.777	n/a	5.0	GoodResponse	1	0.039	61.51	3	5	Feedback	Win	True
63.926	2.777	Win2	1.0	n/a	Yes	2.777	n/a	n/a	GoodResponse	1	0.0	n/a	3	5	ISIslide	Win	True
66.717	0.25	Lose2	1.0	0.001	Yes	2.733	0.017	n/a	GoodResponse	0	n/a	n/a	3	6	Cue	AvoidedLoss	True
66.968	3.95	Lose2	1.0	0.0	Yes	2.733	0.001	n/a	GoodResponse	0	n/a	n/a	3	6	Fixation	AvoidedLoss	True
70.913	0.34	Lose2	1.0	0.004	Yes	2.733	-0.004	2.0	GoodResponse	0	0.264	70.177	3	6	Target	AvoidedLoss	True
71.177	0.3	Lose2	1.0	0.004	Yes	2.733	-0.004	2.0	GoodResponse	0	0.264	n/a	3	6	ButtonPress	AvoidedLoss	True
71.264	0.36	Lose2	1.0	n/a	Yes	2.733	n/a	n/a	GoodResponse	0	n/a	n/a	3	6	Blank	AvoidedLoss	True
71.615	1.45	Lose2	1.0	n/a	Yes	2.733	n/a	5.0	GoodResponse	0	0.017	70.632	3	6	Feedback	AvoidedLoss	True
73.07	2.733	Lose2	1.0	n/a	Yes	2.733	n/a	n/a	GoodResponse	0	0.0	n/a	3	6	ISIslide	AvoidedLoss	True
75.828	0.25	Lose2	1.0	0.0	Yes	4.022	0.028	n/a	GoodResponse	0	n/a	n/a	3	7	Cue	AvoidedLoss	True
76.079	4.05	Lose2	1.0	0.0	Yes	4.022	0.001	n/a	GoodResponse	0	n/a	n/a	3	7	Fixation	AvoidedLoss	True
80.124	0.33	Lose2	1.0	0.004	Yes	4.022	-0.004	2.0	GoodResponse	0	0.2	79.324	3	7	Target	AvoidedLoss	True
80.324	0.3	Lose2	1.0	0.004	Yes	4.022	-0.004	2.0	GoodResponse	0	0.2	n/a	3	7	ButtonPress	AvoidedLoss	True
80.458	0.37	Lose2	1.0	n/a	Yes	4.022	n/a	n/a	GoodResponse	0	n/a	n/a	3	7	Blank	AvoidedLoss	True
80.826	1.45	Lose2	1.0	n/a	Yes	4.022	n/a	5.0	GoodResponse	0	0.026	79.852	3	7	Feedback	AvoidedLoss	True
82.281	4.022	Lose2	1.0	n/a	Yes	4.022	n/a	n/a	GoodResponse	0	0.0	n/a	3	7	ISIslide	AvoidedLoss	True
86.326	0.25	Lose2	0.8889	0.0	No	3.024	0.026	n/a	LatePress	-1	n/a	n/a	2	8	Cue	Loss	True
86.577	3.95	Lose2	0.8889	0.0	No	3.024	0.001	n/a	LatePress	-1	n/a	n/a	2	8	Fixation	Loss	True
90.522	0.32	Lose2	0.8889	0.004	No	3.024	-0.004	2.0	LatePress	-1	0.329	89.851	2	8	Target	Loss	True
90.851	0.3	Lose2	0.8889	0.004	No	3.024	-0.004	2.0	LatePress	-1	0.329	n/a	2	8	ButtonPress	Loss	True
90.856	0.38	Lose2	0.8889	n/a	No	3.024	n/a	n/a	LatePress	-1	n/a	n/a	2	8	Blank	Loss	True
91.224	1.45	Lose2	0.8889	n/a	No	3.024	n/a	5.0	LatePress	-1	0.017	90.241	2	8	Feedback	Loss	True
92.678	3.024	Lose2	0.8889	n/a	No	3.024	n/a	n/a	LatePress	-1	0.0	n/a	2	8	ISIslide	Loss	True
95.721	0.25	Lose2	0.9	0.0	Yes	3.129	0.021	n/a	GoodResponse	0	n/a	n/a	2	9	Cue	AvoidedLoss	True
95.971	3.95	Lose2	0.9	0.001	Yes	3.129	0.0	n/a	GoodResponse	0	n/a	n/a	2	9	Fixation	AvoidedLoss	True
99.917	0.31	Lose2	0.9	0.004	Yes	3.129	-0.004	2.0	GoodResponse	0	0.199	99.116	2	9	Target	AvoidedLoss	True
100.116	0.3	Lose2	0.9	0.004	Yes	3.129	-0.004	2.0	GoodResponse	0	0.199	n/a	2	9	ButtonPress	AvoidedLoss	True
100.234	0.39	Lose2	0.9	n/a	Yes	3.129	n/a	n/a	GoodResponse	0	n/a	n/a	2	9	Blank	AvoidedLoss	True
100.619	1.45	Lose2	0.9	n/a	Yes	3.129	n/a	5.0	GoodResponse	0	0.037	99.656	2	9	Feedback	AvoidedLoss	True
102.073	3.129	Lose2	0.9	n/a	Yes	3.129	n/a	n/a	GoodResponse	0	0.0	n/a	2	9	ISIslide	AvoidedLoss	True
105.216	0.25	Control	0.9091	0.0	Yes	3.284	0.016	n/a	GoodResponse	0	n/a	n/a	2	10	Cue	Neutral	True
105.466	4.0	Control	0.9091	0.001	Yes	3.284	0.0	n/a	GoodResponse	0	n/a	n/a	2	10	Fixation	Neutral	True
109.462	0.3	Control	0.9091	0.004	Yes	3.284	-0.004	2.0	GoodResponse	0	0.227	108.689	2	10	Target	Neutral	True
109.689	0.3	Control	0.9091	0.004	Yes	3.284	-0.004	2.0	GoodResponse	0	0.227	n/a	2	10	ButtonPress	Neutral	True
109.763	0.4	Control	0.9091	n/a	Yes	3.284	n/a	n/a	GoodResponse	0	n/a	n/a	2	10	Blank	Neutral	True
110.164	1.45	Control	0.9091	n/a	Yes	3.284	n/a	5.0	GoodResponse	0	0.008	109.172	2	10	Feedback	Neutral	True
111.618	3.284	Control	0.9091	n/a	Yes	3.284	n/a	n/a	GoodResponse	0	0.0	n/a	2	10	ISIslide	Neutral	True
114.928	0.25	Lose2	0.9167000000000001	0.0	Yes	2.722	0.028	n/a	GoodResponse	0	n/a	n/a	2	11	Cue	AvoidedLoss	True
115.179	4.05	Lose2	0.9167000000000001	0.0	Yes	2.722	0.001	n/a	GoodResponse	0	n/a	n/a	2	11	Fixation	AvoidedLoss	True
119.224	0.29	Lose2	0.9167000000000001	0.004	Yes	2.722	-0.004	2.0	GoodResponse	0	0.278	118.502	2	11	Target	AvoidedLoss	True
119.502	0.3	Lose2	0.9167000000000001	0.004	Yes	2.722	-0.004	2.0	GoodResponse	0	0.278	n/a	2	11	ButtonPress	AvoidedLoss	True
119.525	0.41	Lose2	0.9167000000000001	n/a	Yes	2.722	n/a	n/a	GoodResponse	0	n/a	n/a	2	11	Blank	AvoidedLoss	True
119.926	1.45	Lose2	0.9167000000000001	n/a	Yes	2.722	n/a	5.0	GoodResponse	0	0.047	118.973	2	11	Feedback	AvoidedLoss	True
121.381	2.722	Lose2	0.9167000000000001	n/a	Yes	2.722	n/a	n/a	GoodResponse	0	0.0	n/a	2	11	ISIslide	AvoidedLoss	True
124.122	0.25	Control	0.8462000000000001	0.0	No	2.978	0.022	n/a	NoResponse	0	n/a	n/a	2	12	Cue	Neutral	True
124.373	3.9	Control	0.8462000000000001	0.0	No	2.978	0.001	n/a	NoResponse	0	n/a	n/a	2	12	Fixation	Neutral	True
128.268	0.28	Control	0.8462000000000001	0.004	No	2.978	-0.004	2.0	NoResponse	0	0.316	127.584	2	12	Target	Neutral	True
128.552	0.42	Control	0.8462000000000001	n/a	No	2.978	n/a	n/a	NoResponse	0	n/a	n/a	2	12	Blank	Neutral	True
128.584	0.3	Control	0.8462000000000001	0.004	No	2.978	-0.004	2.0	NoResponse	0	0.316	n/a	2	12	ButtonPress	Neutral	True
128.97	1.45	Control	0.8462000000000001	n/a	No	2.978	n/a	5.0	NoResponse	0	0.027	127.997	2	12	Feedback	Neutral	True
130.424	2.978	Control	0.8462000000000001	n/a	No	2.978	n/a	n/a	NoResponse	0	0.0	n/a	2	12	ISIslide	Neutral	True
133.417	0.25	Control	0.8571	0.0	Yes	2.783	0.017	n/a	GoodResponse	0	n/a	n/a	2	13	Cue	Neutral	True
133.667	4.0	Control	0.8571	0.0	Yes	2.783	0.0	n/a	GoodResponse	0	n/a	n/a	2	13	Fixation	Neutral	True
137.663	0.27	Control	0.8571	0.004	Yes	2.783	-0.004	2.0	GoodResponse	0	0.219	136.882	2	13	Target	Neutral	True
137.882	0.3	Control	0.8571	0.004	Yes	2.783	-0.004	2.0	GoodResponse	0	0.219	n/a	2	13	ButtonPress	Neutral	True
137.947	0.43	Control	0.8571	n/a	Yes	2.783	n/a	n/a	GoodResponse	0	n/a	n/a	2	13	Blank	Neutral	True
138.365	1.45	Control	0.8571	n/a	Yes	2.783	n/a	5.0	GoodResponse	0	0.047	137.412	2	13	Feedback	Neutral	True
139.819	2.783	Control	0.8571	n/a	Yes	2.783	n/a	n/a	GoodResponse	0	0.0	n/a	2	13	ISIslide	Neutral	True
142.627	0.25	Win2	0.8667	0.001	Yes	2.673	0.027	n/a	GoodResponse	1	n/a	n/a	3	14	Cue	Win	True
142.878	4.1	Win2	0.8667	0.0	Yes	2.673	0.001	n/a	GoodResponse	1	n/a	n/a	3	14	Fixation	Win	True
146.974	0.26	Win2	0.8667	0.003	Yes	2.673	-0.003	2.0	GoodResponse	1	0.203	146.177	3	14	Target	Win	True
147.177	0.3	Win2	0.8667	0.003	Yes	2.673	-0.003	2.0	GoodResponse	1	0.203	n/a	3	14	ButtonPress	Win	True
147.241	0.44	Win2	0.8667	n/a	Yes	2.673	n/a	n/a	GoodResponse	1	n/a	n/a	3	14	Blank	Win	True
147.676	1.45	Win2	0.8667	n/a	Yes	2.673	n/a	5.0	GoodResponse	1	0.006	146.682	3	14	Feedback	Win	True
149.13	2.673	Win2	0.8667	n/a	Yes	2.673	n/a	n/a	GoodResponse	1	0.0	n/a	3	14	ISIslide	Win	True
151.822	0.25	Control	0.875	0.0	Yes	2.978	0.022	n/a	GoodResponse	0	n/a	n/a	3	15	Cue	Neutral	True
152.072	4.0	Control	0.875	0.0	Yes	2.978	0.0	n/a	GoodResponse	0	n/a	n/a	3	15	Fixation	Neutral	True
156.068	0.25	Control	0.875	0.004	Yes	2.978	-0.004	2.0	GoodResponse	0	0.219	155.287	3	15	Target	Neutral	True
156.287	0.3	Control	0.875	0.004	Yes	2.978	-0.004	2.0	GoodResponse	0	0.219	n/a	3	15	ButtonPress	Neutral	True
156.318	0.45	Control	0.875	n/a	Yes	2.978	n/a	n/a	GoodResponse	0	n/a	n/a	3	15	Blank	Neutral	True
156.77	1.45	Control	0.875	n/a	Yes	2.978	n/a	5.0	GoodResponse	0	0.032	155.802	3	15	Feedback	Neutral	True
158.224	2.978	Control	0.875	n/a	Yes	2.978	n/a	n/a	GoodResponse	0	0.0	n/a	3	15	ISIslide	Neutral	True
161.216	0.25	Win2	0.8824	0.0	Yes	2.884	0.016	n/a	GoodResponse	1	n/a	n/a	4	16	Cue	Win	True
161.467	4.0	Win2	0.8824	0.0	Yes	2.884	0.001	n/a	GoodResponse	1	n/a	n/a	4	16	Fixation	Win	True
165.462	0.24	Win2	0.8824	0.004	Yes	2.884	-0.004	2.0	GoodResponse	1	0.185	164.647	4	16	Target	Win	True
165.647	0.3	Win2	0.8824	0.004	Yes	2.884	-0.004	2.0	GoodResponse	1	0.185	n/a	4	16	ButtonPress	Win	True
165.713	0.46	Win2	0.8824	n/a	Yes	2.884	n/a	n/a	GoodResponse	1	n/a	n/a	4	16	Blank	Win	True
166.164	1.45	Win2	0.8824	n/a	Yes	2.884	n/a	5.0	GoodResponse	1	0.008	165.172	4	16	Feedback	Win	True
167.619	2.884	Win2	0.8824	n/a	Yes	2.884	n/a	n/a	GoodResponse	1	0.0	n/a	4	16	ISIslide	Win	True
170.527	0.25	Lose2	0.8889	0.001	Yes	2.723	0.027	n/a	GoodResponse	0	n/a	n/a	4	17	Cue	AvoidedLoss	True
170.778	3.95	Lose2	0.8889	0.0	Yes	2.723	0.001	n/a	GoodResponse	0	n/a	n/a	4	17	Fixation	AvoidedLoss	True
174.723	0.23	Lose2	0.8889	0.004	Yes	2.723	-0.004	2.0	GoodResponse	0	0.185	173.908	4	17	Target	AvoidedLoss	True
174.908	0.3	Lose2	0.8889	0.004	Yes	2.723	-0.004	2.0	GoodResponse	0	0.185	n/a	4	17	ButtonPress	AvoidedLoss	True
174.957	0.47	Lose2	0.8889	n/a	Yes	2.723	n/a	n/a	GoodResponse	0	n/a	n/a	4	17	Blank	AvoidedLoss	True
175.425	1.45	Lose2	0.8889	n/a	Yes	2.723	n/a	5.0	GoodResponse	0	0.01	174.435	4	17	Feedback	AvoidedLoss	True
176.88	2.723	Lose2	0.8889	n/a	Yes	2.723	n/a	n/a	GoodResponse	0	0.0	n/a	4	17	ISIslide	AvoidedLoss	True
179.621	0.25	Lose2	0.8946999999999999	0.0	Yes	2.729	0.021	n/a	GoodResponse	0	n/a	n/a	4	18	Cue	AvoidedLoss	True
179.872	4.05	Lose2	0.8946999999999999	0.0	Yes	2.729	0.001	n/a	GoodResponse	0	n/a	n/a	4	18	Fixation	AvoidedLoss	True
183.917	0.22	Lose2	0.8946999999999999	0.004	Yes	2.729	-0.004	2.0	GoodResponse	0	0.216	183.133	4	18	Target	AvoidedLoss	True
184.133	0.3	Lose2	0.8946999999999999	0.004	Yes	2.729	-0.004	2.0	GoodResponse	0	0.216	n/a	4	18	ButtonPress	AvoidedLoss	True
184.151	0.48	Lose2	0.8946999999999999	n/a	Yes	2.729	n/a	n/a	GoodResponse	0	n/a	n/a	4	18	Blank	AvoidedLoss	True
184.62	1.45	Lose2	0.8946999999999999	n/a	Yes	2.729	n/a	5.0	GoodResponse	0	0.035	183.655	4	18	Feedback	AvoidedLoss	True
186.074	2.729	Lose2	0.8946999999999999	n/a	Yes	2.729	n/a	n/a	GoodResponse	0	0.0	n/a	4	18	ISIslide	AvoidedLoss	True
188.815	0.25	Control	0.85	0.0	No	2.935	0.015	n/a	NoResponse	0	n/a	n/a	4	19	Cue	Neutral	True
189.066	3.95	Control	0.85	0.0	No	2.935	0.001	n/a	NoResponse	0	n/a	n/a	4	19	Fixation	Neutral	True
193.011	0.21	Control	0.85	0.004	No	2.935	-0.004	2.0	NoResponse	0	0.275	192.286	4	19	Target	Neutral	True
193.229	0.49	Control	0.85	n/a	No	2.935	n/a	n/a	NoResponse	0	n/a	n/a	4	19	Blank	Neutral	True
193.286	0.3	Control	0.85	0.004	No	2.935	-0.004	2.0	NoResponse	0	0.275	n/a	4	19	ButtonPress	Neutral	True
193.713	1.45	Control	0.85	n/a	No	2.935	n/a	5.0	NoResponse	0	0.015	192.728	4	19	Feedback	Neutral	True
195.168	2.935	Control	0.85	n/a	No	2.935	n/a	n/a	NoResponse	0	0.0	n/a	4	19	ISIslide	Neutral	True
198.127	0.25	Control	0.8095	0.0	No	2.623	0.027	n/a	NoResponse	0	n/a	n/a	4	20	Cue	Neutral	True
198.377	4.05	Control	0.8095	0.0	No	2.623	0.0	n/a	NoResponse	0	n/a	n/a	4	20	Fixation	Neutral	True
202.423	0.2	Control	0.8095	0.004	No	2.623	-0.004	2.0	NoResponse	0	0.286	201.709	4	20	Target	Neutral	True
202.623	0.5	Control	0.8095	n/a	No	2.623	n/a	n/a	NoResponse	0	n/a	n/a	4	20	Blank	Neutral	True
202.709	0.3	Control	0.8095	0.004	No	2.623	-0.004	2.0	NoResponse	0	0.286	n/a	4	20	ButtonPress	Neutral	True
203.125	1.45	Control	0.8095	n/a	No	2.623	n/a	5.0	NoResponse	0	0.017	202.142	4	20	Feedback	Neutral	True
204.579	2.623	Control	0.8095	n/a	No	2.623	n/a	n/a	NoResponse	0	0.0	n/a	4	20	ISIslide	Neutral	True
207.22	0.25	Control	0.8181999999999999	0.0	Yes	2.78	0.02	n/a	GoodResponse	0	n/a	n/a	4	21	Cue	Neutral	True
207.471	4.1	Control	0.8181999999999999	0.0	Yes	2.78	0.001	n/a	GoodResponse	0	n/a	n/a	4	21	Fixation	Neutral	True
211.567	0.19	Control	0.8181999999999999	0.003	Yes	2.78	-0.003	2.0	GoodResponse	0	0.186	210.753	4	21	Target	Neutral	True
211.753	0.3	Control	0.8181999999999999	0.003	Yes	2.78	-0.003	2.0	GoodResponse	0	0.186	n/a	4	21	ButtonPress	Neutral	True
211.767	0.51	Control	0.8181999999999999	n/a	Yes	2.78	n/a	n/a	GoodResponse	0	n/a	n/a	4	21	Blank	Neutral	True
212.269	1.45	Control	0.8181999999999999	n/a	Yes	2.78	n/a	5.0	GoodResponse	0	0.044	211.313	4	21	Feedback	Neutral	True
213.723	2.78	Control	0.8181999999999999	n/a	Yes	2.78	n/a	n/a	GoodResponse	0	0.0	n/a	4	21	ISIslide	Neutral	True
216.515	0.25	Control	0.7826000000000001	0.0	No	2.785	0.015	n/a	NoResponse	0	n/a	n/a	4	22	Cue	Neutral	True
216.766	4.0	Control	0.7826000000000001	0.0	No	2.785	0.001	n/a	NoResponse	0	n/a	n/a	4	22	Fixation	Neutral	True
220.761	0.18	Control	0.7826000000000001	0.004	No	2.785	-0.004	2.0	NoResponse	0	0.191	219.952	4	22	Target	Neutral	True
220.945	0.52	Control	0.7826000000000001	n/a	No	2.785	n/a	n/a	NoResponse	0	n/a	n/a	4	22	Blank	Neutral	True
220.952	0.3	Control	0.7826000000000001	0.004	No	2.785	-0.004	2.0	NoResponse	0	0.191	n/a	4	22	ButtonPress	Neutral	True
221.463	1.45	Control	0.7826000000000001	n/a	No	2.785	n/a	5.0	NoResponse	0	0.021	220.484	4	22	Feedback	Neutral	True
222.917	2.785	Control	0.7826000000000001	n/a	No	2.785	n/a	n/a	NoResponse	0	0.0	n/a	4	22	ISIslide	Neutral	True
225.726	0.25	Control	0.75	0.0	No	2.774	0.026	n/a	NoResponse	0	n/a	n/a	4	23	Cue	Neutral	True
225.976	3.9	Control	0.75	0.0	No	2.774	0.0	n/a	NoResponse	0	n/a	n/a	4	23	Fixation	Neutral	True
229.888	0.17	Control	0.75	0.0	No	2.774	0.012	2.0	NoResponse	0	0.257	229.145	4	23	Target	Neutral	True
230.055	0.53	Control	0.75	n/a	No	2.774	n/a	n/a	NoResponse	0	n/a	n/a	4	23	Blank	Neutral	True
230.145	0.3	Control	0.75	0.0	No	2.774	0.012	2.0	NoResponse	0	0.257	n/a	4	23	ButtonPress	Neutral	True
230.573	1.45	Control	0.75	n/a	No	2.774	n/a	5.0	NoResponse	0	0.033	229.606	4	23	Feedback	Neutral	True
232.028	2.774	Control	0.75	n/a	No	2.774	n/a	n/a	NoResponse	0	0.0	n/a	4	23	ISIslide	Neutral	True
234.819	0.25	Win2	0.72	0.001	No	3.131	0.019	n/a	NoResponse	0	n/a	n/a	4	24	Cue	MissedWin	True
235.07	3.95	Win2	0.72	0.0	No	3.131	0.001	n/a	NoResponse	0	n/a	n/a	4	24	Fixation	MissedWin	True
239.015	0.16	Win2	0.72	0.004	No	3.131	-0.004	2.0	NoResponse	0	0.192	238.207	4	24	Target	MissedWin	True
239.182	0.54	Win2	0.72	n/a	No	3.131	n/a	n/a	NoResponse	0	n/a	n/a	4	24	Blank	MissedWin	True
239.207	0.3	Win2	0.72	0.004	No	3.131	-0.004	2.0	NoResponse	0	0.192	n/a	4	24	ButtonPress	MissedWin	True
239.717	1.45	Win2	0.72	n/a	No	3.131	n/a	5.0	NoResponse	0	0.01	238.727	4	24	Feedback	MissedWin	True
241.172	3.131	Win2	0.72	n/a	No	3.131	n/a	n/a	NoResponse	0	0.0	n/a	4	24	ISIslide	MissedWin	True
244.331	0.25	Win2	0.6923	0.0	No	3.069	0.031	n/a	NoResponse	0	n/a	n/a	4	25	Cue	MissedWin	True
244.582	4.0	Win2	0.6923	0.0	No	3.069	0.001	n/a	NoResponse	0	n/a	n/a	4	25	Fixation	MissedWin	True
248.577	0.15	Win2	0.6923	0.004	No	3.069	-0.004	2.0	NoResponse	0	0.198	247.775	4	25	Target	MissedWin	True
248.728	0.55	Win2	0.6923	n/a	No	3.069	n/a	n/a	NoResponse	0	n/a	n/a	4	25	Blank	MissedWin	True
248.775	0.3	Win2	0.6923	0.004	No	3.069	-0.004	2.0	NoResponse	0	0.198	n/a	4	25	ButtonPress	MissedWin	True
249.279	1.45	Win2	0.6923	n/a	No	3.069	n/a	5.0	NoResponse	0	0.009	248.288	4	25	Feedback	MissedWin	True
250.734	3.069	Win2	0.6923	n/a	No	3.069	n/a	n/a	NoResponse	0	0.0	n/a	4	25	ISIslide	MissedWin	True
253.826	0.25	Win2	0.6667000000000001	0.0	No	2.924	0.026	n/a	NoResponse	0	n/a	n/a	4	26	Cue	MissedWin	True
254.077	3.95	Win2	0.6667000000000001	0.0	No	2.924	0.001	n/a	NoResponse	0	n/a	n/a	4	26	Fixation	MissedWin	True
258.022	0.15	Win2	0.6667000000000001	0.004	No	2.924	-0.004	2.0	NoResponse	0	0.235	257.257	4	26	Target	MissedWin	True
258.173	0.55	Win2	0.6667000000000001	n/a	No	2.924	n/a	n/a	NoResponse	0	n/a	n/a	4	26	Blank	MissedWin	True
258.257	0.3	Win2	0.6667000000000001	0.004	No	2.924	-0.004	2.0	NoResponse	0	0.235	n/a	4	26	ButtonPress	MissedWin	True
258.724	1.45	Win2	0.6667000000000001	n/a	No	2.924	n/a	5.0	NoResponse	0	0.027	257.751	4	26	Feedback	MissedWin	True
260.179	2.924	Win2	0.6667000000000001	n/a	No	2.924	n/a	n/a	NoResponse	0	0.0	n/a	4	26	ISIslide	MissedWin	True
263.121	0.25	Lose2	0.6429	0.0	No	2.829	0.021	n/a	NoResponse	-1	n/a	n/a	3	27	Cue	Loss	True
263.371	4.05	Lose2	0.6429	0.0	No	2.829	0.0	n/a	NoResponse	-1	n/a	n/a	3	27	Fixation	Loss	True
267.417	0.15	Lose2	0.6429	0.004	No	2.829	-0.004	2.0	NoResponse	-1	0.197	266.614	3	27	Target	Loss	True
267.567	0.55	Lose2	0.6429	n/a	No	2.829	n/a	n/a	NoResponse	-1	n/a	n/a	3	27	Blank	Loss	True
267.614	0.3	Lose2	0.6429	0.004	No	2.829	-0.004	2.0	NoResponse	-1	0.197	n/a	3	27	ButtonPress	Loss	True
268.119	1.45	Lose2	0.6429	n/a	No	2.829	n/a	5.0	NoResponse	-1	0.047	267.166	3	27	Feedback	Loss	True
269.573	2.829	Lose2	0.6429	n/a	No	2.829	n/a	n/a	NoResponse	-1	0.0	n/a	3	27	ISIslide	Loss	True
272.415	0.25	Control	0.6207	0.0	No	2.835	0.015	n/a	NoResponse	0	n/a	n/a	3	28	Cue	Neutral	True
272.666	4.05	Control	0.6207	0.0	No	2.835	0.001	2.0	NoResponse	0	4.032	275.698	3	28	Fixation	Neutral	True
276.698	0.3	Control	0.6207	0.0	No	2.835	0.001	2.0	NoResponse	0	4.032	n/a	3	28	ButtonPress	Neutral	True
276.711	0.16	Control	0.6207	0.004	No	2.835	-0.004	n/a	NoResponse	0	n/a	n/a	3	28	Target	Neutral	True
276.878	0.54	Control	0.6207	n/a	No	2.835	n/a	n/a	NoResponse	0	n/a	n/a	3	28	Blank	Neutral	True
277.413	1.45	Control	0.6207	n/a	No	2.835	n/a	5.0	NoResponse	0	0.02	276.433	3	28	Feedback	Neutral	True
278.868	2.835	Control	0.6207	n/a	No	2.835	n/a	n/a	NoResponse	0	0.0	n/a	3	28	ISIslide	Neutral	True
281.726	0.25	Lose2	0.6	0.0	No	2.824	0.026	n/a	NoResponse	-1	n/a	n/a	2	29	Cue	Loss	True
281.977	3.95	Lose2	0.6	0.0	No	2.824	0.001	n/a	NoResponse	-1	n/a	n/a	2	29	Fixation	Loss	True
285.922	0.17	Lose2	0.6	0.004	No	2.824	-0.004	2.0	NoResponse	-1	0.21	285.132	2	29	Target	Loss	True
286.106	0.53	Lose2	0.6	n/a	No	2.824	n/a	n/a	NoResponse	-1	n/a	n/a	2	29	Blank	Loss	True
286.132	0.3	Lose2	0.6	0.004	No	2.824	-0.004	2.0	NoResponse	-1	0.21	n/a	2	29	ButtonPress	Loss	True
286.624	1.45	Lose2	0.6	n/a	No	2.824	n/a	5.0	NoResponse	-1	0.029	285.653	2	29	Feedback	Loss	True
288.079	2.824	Lose2	0.6	n/a	No	2.824	n/a	n/a	NoResponse	-1	0.0	n/a	2	29	ISIslide	Loss	True
290.92	0.25	Win2	0.5806	0.0	No	2.78	0.02	n/a	NoResponse	0	n/a	n/a	2	30	Cue	MissedWin	True
291.171	3.9	Win2	0.5806	0.0	No	2.78	0.001	n/a	NoResponse	0	n/a	n/a	2	30	Fixation	MissedWin	True
295.066	0.18	Win2	0.5806	0.004	No	2.78	-0.004	2.0	NoResponse	0	0.213	294.279	2	30	Target	MissedWin	True
295.25	0.52	Win2	0.5806	n/a	No	2.78	n/a	n/a	NoResponse	0	n/a	n/a	2	30	Blank	MissedWin	True
295.279	0.3	Win2	0.5806	0.004	No	2.78	-0.004	2.0	NoResponse	0	0.213	n/a	2	30	ButtonPress	MissedWin	True
295.768	1.45	Win2	0.5806	n/a	No	2.78	n/a	5.0	NoResponse	0	0.008	294.776	2	30	Feedback	MissedWin	True
297.223	2.78	Win2	0.5806	n/a	No	2.78	n/a	n/a	NoResponse	0	0.0	n/a	2	30	ISIslide	MissedWin	True
300.031	0.25	Lose2	0.5625	0.0	No	2.819	0.031	n/a	NoResponse	-1	n/a	n/a	1	31	Cue	Loss	True
300.282	4.05	Lose2	0.5625	0.0	No	2.819	0.001	n/a	NoResponse	-1	n/a	n/a	1	31	Fixation	Loss	True
304.327	0.19	Lose2	0.5625	0.004	No	2.819	-0.004	2.0	NoResponse	-1	0.21	303.537	1	31	Target	Loss	True
304.528	0.51	Lose2	0.5625	n/a	No	2.819	n/a	n/a	NoResponse	-1	n/a	n/a	1	31	Blank	Loss	True
304.537	0.3	Lose2	0.5625	0.004	No	2.819	-0.004	2.0	NoResponse	-1	0.21	n/a	1	31	ButtonPress	Loss	True
305.029	1.45	Lose2	0.5625	n/a	No	2.819	n/a	5.0	NoResponse	-1	0.014	304.043	1	31	Feedback	Loss	True
306.484	2.819	Lose2	0.5625	n/a	No	2.819	n/a	n/a	NoResponse	-1	0.0	n/a	1	31	ISIslide	Loss	True
309.325	0.25	Lose2	0.5758	0.0	Yes	2.625	0.025	n/a	GoodResponse	0	n/a	n/a	1	32	Cue	AvoidedLoss	True
309.576	4.15	Lose2	0.5758	0.0	Yes	2.625	0.001	n/a	GoodResponse	0	n/a	n/a	1	32	Fixation	AvoidedLoss	True
313.722	0.2	Lose2	0.5758	0.003	Yes	2.625	-0.003	2.0	GoodResponse	0	0.185	312.907	1	32	Target	AvoidedLoss	True
313.907	0.3	Lose2	0.5758	0.003	Yes	2.625	-0.003	2.0	GoodResponse	0	0.185	n/a	1	32	ButtonPress	AvoidedLoss	True
313.922	0.5	Lose2	0.5758	n/a	Yes	2.625	n/a	n/a	GoodResponse	0	n/a	n/a	1	32	Blank	AvoidedLoss	True
314.424	1.45	Lose2	0.5758	n/a	Yes	2.625	n/a	5.0	GoodResponse	0	0.033	313.457	1	32	Feedback	AvoidedLoss	True
315.878	2.625	Lose2	0.5758	n/a	Yes	2.625	n/a	n/a	GoodResponse	0	0.0	n/a	1	32	ISIslide	AvoidedLoss	True
318.519	0.25	Win2	0.5882000000000001	0.001	Yes	2.681	0.019	n/a	GoodResponse	1	n/a	n/a	2	33	Cue	Win	True
318.77	4.0	Win2	0.5882000000000001	0.0	Yes	2.681	0.001	n/a	GoodResponse	1	n/a	n/a	2	33	Fixation	Win	True
322.765	0.21	Win2	0.5882000000000001	0.004	Yes	2.681	-0.004	2.0	GoodResponse	1	0.192	321.957	2	33	Target	Win	True
322.957	0.3	Win2	0.5882000000000001	0.004	Yes	2.681	-0.004	2.0	GoodResponse	1	0.192	n/a	2	33	ButtonPress	Win	True
322.983	0.49	Win2	0.5882000000000001	n/a	Yes	2.681	n/a	n/a	GoodResponse	1	n/a	n/a	2	33	Blank	Win	True
323.468	1.45	Win2	0.5882000000000001	n/a	Yes	2.681	n/a	5.0	GoodResponse	1	0.014	322.482	2	33	Feedback	Win	True
324.922	2.681	Win2	0.5882000000000001	n/a	Yes	2.681	n/a	n/a	GoodResponse	1	0.0	n/a	2	33	ISIslide	Win	True
327.63	0.25	Lose2	0.6	0.0	Yes	2.62	0.03	n/a	GoodResponse	0	n/a	n/a	2	34	Cue	AvoidedLoss	True
327.881	4.05	Lose2	0.6	0.0	Yes	2.62	0.001	n/a	GoodResponse	0	n/a	n/a	2	34	Fixation	AvoidedLoss	True
331.926	0.22	Lose2	0.6	0.004	Yes	2.62	-0.004	2.0	GoodResponse	0	0.192	331.118	2	34	Target	AvoidedLoss	True
332.118	0.3	Lose2	0.6	0.004	Yes	2.62	-0.004	2.0	GoodResponse	0	0.192	n/a	2	34	ButtonPress	AvoidedLoss	True
332.16	0.48	Lose2	0.6	n/a	Yes	2.62	n/a	n/a	GoodResponse	0	n/a	n/a	2	34	Blank	AvoidedLoss	True
332.628	1.45	Lose2	0.6	n/a	Yes	2.62	n/a	5.0	GoodResponse	0	0.025	331.653	2	34	Feedback	AvoidedLoss	True
334.083	2.62	Lose2	0.6	n/a	Yes	2.62	n/a	n/a	GoodResponse	0	0.0	n/a	2	34	ISIslide	AvoidedLoss	True
336.724	0.25	Lose2	0.6111	0.0	Yes	2.676	0.024	n/a	GoodResponse	0	n/a	n/a	2	35	Cue	AvoidedLoss	True
336.975	4.0	Lose2	0.6111	0.0	Yes	2.676	0.001	n/a	GoodResponse	0	n/a	n/a	2	35	Fixation	AvoidedLoss	True
340.97	0.23	Lose2	0.6111	0.004	Yes	2.676	-0.004	2.0	GoodResponse	0	0.205	340.175	2	35	Target	AvoidedLoss	True
341.175	0.3	Lose2	0.6111	0.004	Yes	2.676	-0.004	2.0	GoodResponse	0	0.205	n/a	2	35	ButtonPress	AvoidedLoss	True
341.204	0.47	Lose2	0.6111	n/a	Yes	2.676	n/a	n/a	GoodResponse	0	n/a	n/a	2	35	Blank	AvoidedLoss	True
341.672	1.45	Lose2	0.6111	n/a	Yes	2.676	n/a	5.0	GoodResponse	0	0.007	340.679	2	35	Feedback	AvoidedLoss	True
343.126	2.676	Lose2	0.6111	n/a	Yes	2.676	n/a	n/a	GoodResponse	0	0.0	n/a	2	35	ISIslide	AvoidedLoss	True
345.818	0.25	Control	0.6215999999999999	0.0	Yes	2.682	0.018	n/a	GoodResponse	0	n/a	n/a	2	36	Cue	Neutral	True
346.068	4.0	Control	0.6215999999999999	0.0	Yes	2.682	0.0	n/a	GoodResponse	0	n/a	n/a	2	36	Fixation	Neutral	True
350.064	0.24	Control	0.6215999999999999	0.004	Yes	2.682	-0.004	2.0	GoodResponse	0	0.222	349.286	2	36	Target	Neutral	True
350.286	0.3	Control	0.6215999999999999	0.004	Yes	2.682	-0.004	2.0	GoodResponse	0	0.222	n/a	2	36	ButtonPress	Neutral	True
350.314	0.46	Control	0.6215999999999999	n/a	Yes	2.682	n/a	n/a	GoodResponse	0	n/a	n/a	2	36	Blank	Neutral	True
350.766	1.45	Control	0.6215999999999999	n/a	Yes	2.682	n/a	5.0	GoodResponse	0	0.032	349.798	2	36	Feedback	Neutral	True
352.22	2.682	Control	0.6215999999999999	n/a	Yes	2.682	n/a	n/a	GoodResponse	0	0.0	n/a	2	36	ISIslide	Neutral	True
354.928	0.25	Win2	0.6315999999999999	0.0	Yes	2.872	0.028	n/a	GoodResponse	1	n/a	n/a	3	37	Cue	Win	True
355.179	4.0	Win2	0.6315999999999999	0.0	Yes	2.872	0.001	n/a	GoodResponse	1	n/a	n/a	3	37	Fixation	Win	True
359.174	0.25	Win2	0.6315999999999999	0.004	Yes	2.872	-0.004	2.0	GoodResponse	1	0.238	358.412	3	37	Target	Win	True
359.412	0.3	Win2	0.6315999999999999	0.004	Yes	2.872	-0.004	2.0	GoodResponse	1	0.238	n/a	3	37	ButtonPress	Win	True
359.425	0.45	Win2	0.6315999999999999	n/a	Yes	2.872	n/a	n/a	GoodResponse	1	n/a	n/a	3	37	Blank	Win	True
359.876	1.45	Win2	0.6315999999999999	n/a	Yes	2.872	n/a	5.0	GoodResponse	1	0.044	358.92	3	37	Feedback	Win	True
361.331	2.872	Win2	0.6315999999999999	n/a	Yes	2.872	n/a	n/a	GoodResponse	1	0.0	n/a	3	37	ISIslide	Win	True
364.223	0.25	Lose2	0.6409999999999999	0.0	Yes	2.827	0.023	n/a	GoodResponse	0	n/a	n/a	3	38	Cue	AvoidedLoss	True
364.473	3.95	Lose2	0.6409999999999999	0.0	Yes	2.827	0.0	n/a	GoodResponse	0	n/a	n/a	3	38	Fixation	AvoidedLoss	True
368.435	0.26	Lose2	0.6409999999999999	0.0	Yes	2.827	0.012	2.0	GoodResponse	0	0.193	367.628	3	38	Target	AvoidedLoss	True
368.628	0.3	Lose2	0.6409999999999999	0.0	Yes	2.827	0.012	2.0	GoodResponse	0	0.193	n/a	3	38	ButtonPress	AvoidedLoss	True
368.686	0.44	Lose2	0.6409999999999999	n/a	Yes	2.827	n/a	n/a	GoodResponse	0	n/a	n/a	3	38	Blank	AvoidedLoss	True
369.121	1.45	Lose2	0.6409999999999999	n/a	Yes	2.827	n/a	5.0	GoodResponse	0	0.019	368.14	3	38	Feedback	AvoidedLoss	True
370.575	2.827	Lose2	0.6409999999999999	n/a	Yes	2.827	n/a	n/a	GoodResponse	0	0.0	n/a	3	38	ISIslide	AvoidedLoss	True
373.417	0.25	Win2	0.65	0.0	Yes	2.983	0.017	n/a	GoodResponse	1	n/a	n/a	4	39	Cue	Win	True
373.667	4.1	Win2	0.65	0.001	Yes	2.983	0.0	n/a	GoodResponse	1	n/a	n/a	4	39	Fixation	Win	True
377.763	0.27	Win2	0.65	0.004	Yes	2.983	-0.004	2.0	GoodResponse	1	0.256	377.019	4	39	Target	Win	True
378.019	0.3	Win2	0.65	0.004	Yes	2.983	-0.004	2.0	GoodResponse	1	0.256	n/a	4	39	ButtonPress	Win	True
378.047	0.43	Win2	0.65	n/a	Yes	2.983	n/a	n/a	GoodResponse	1	n/a	n/a	4	39	Blank	Win	True
378.465	1.45	Win2	0.65	n/a	Yes	2.983	n/a	5.0	GoodResponse	1	0.041	377.506	4	39	Feedback	Win	True
379.919	2.983	Win2	0.65	n/a	Yes	2.983	n/a	n/a	GoodResponse	1	0.0	n/a	4	39	ISIslide	Win	True
382.928	0.25	Win2	0.6585	0.001	Yes	2.722	0.028	n/a	GoodResponse	1	n/a	n/a	5	40	Cue	Win	True
383.179	3.95	Win2	0.6585	0.0	Yes	2.722	0.001	n/a	GoodResponse	1	n/a	n/a	5	40	Fixation	Win	True
387.124	0.28	Win2	0.6585	0.004	Yes	2.722	-0.004	2.0	GoodResponse	1	0.213	386.337	5	40	Target	Win	True
387.337	0.3	Win2	0.6585	0.004	Yes	2.722	-0.004	2.0	GoodResponse	1	0.213	n/a	5	40	ButtonPress	Win	True
387.409	0.42	Win2	0.6585	n/a	Yes	2.722	n/a	n/a	GoodResponse	1	n/a	n/a	5	40	Blank	Win	True
387.826	1.45	Win2	0.6585	n/a	Yes	2.722	n/a	5.0	GoodResponse	1	0.045	386.871	5	40	Feedback	Win	True
389.281	2.722	Win2	0.6585	n/a	Yes	2.722	n/a	n/a	GoodResponse	1	0.0	n/a	5	40	ISIslide	Win	True
392.022	0.25	Win2	0.6667000000000001	0.0	Yes	2.778	0.022	n/a	GoodResponse	1	n/a	n/a	6	41	Cue	Win	True
392.273	3.9	Win2	0.6667000000000001	0.0	Yes	2.778	0.001	n/a	GoodResponse	1	n/a	n/a	6	41	Fixation	Win	True
396.168	0.28	Win2	0.6667000000000001	0.004	Yes	2.778	-0.004	2.0	GoodResponse	1	0.221	395.389	6	41	Target	Win	True
396.389	0.3	Win2	0.6667000000000001	0.004	Yes	2.778	-0.004	2.0	GoodResponse	1	0.221	n/a	6	41	ButtonPress	Win	True
396.452	0.42	Win2	0.6667000000000001	n/a	Yes	2.778	n/a	n/a	GoodResponse	1	n/a	n/a	6	41	Blank	Win	True
396.87	1.45	Win2	0.6667000000000001	n/a	Yes	2.778	n/a	5.0	GoodResponse	1	0.025	395.895	6	41	Feedback	Win	True
398.324	2.778	Win2	0.6667000000000001	n/a	Yes	2.778	n/a	n/a	GoodResponse	1	0.0	n/a	6	41	ISIslide	Win	True
401.116	0.25	Control	0.6512	0.0	No	2.934	0.016	n/a	NoResponse	0	n/a	n/a	6	42	Cue	Neutral	True
401.367	3.85	Control	0.6512	0.0	No	2.934	0.001	n/a	NoResponse	0	n/a	n/a	6	42	Fixation	Neutral	True
405.212	0.27	Control	0.6512	0.004	No	2.934	-0.004	2.0	NoResponse	0	0.436	404.648	6	42	Target	Neutral	True
405.496	0.43	Control	0.6512	n/a	No	2.934	n/a	n/a	NoResponse	0	n/a	n/a	6	42	Blank	Neutral	True
405.648	0.3	Control	0.6512	0.004	No	2.934	-0.004	2.0	NoResponse	0	0.436	n/a	6	42	ButtonPress	Neutral	True
405.914	1.45	Control	0.6512	n/a	No	2.934	n/a	5.0	NoResponse	0	0.007	404.921	6	42	Feedback	Neutral	True
407.368	2.934	Control	0.6512	n/a	No	2.934	n/a	n/a	NoResponse	0	0.0	n/a	6	42	ISIslide	Neutral	True
410.327	0.25	Win2	0.6591	0.0	Yes	3.173	0.027	n/a	GoodResponse	1	n/a	n/a	7	43	Cue	Win	True
410.578	4.0	Win2	0.6591	0.0	Yes	3.173	0.001	n/a	GoodResponse	1	n/a	n/a	7	43	Fixation	Win	True
414.573	0.28	Win2	0.6591	0.004	Yes	3.173	-0.004	2.0	GoodResponse	1	0.202	413.775	7	43	Target	Win	True
414.775	0.3	Win2	0.6591	0.004	Yes	3.173	-0.004	2.0	GoodResponse	1	0.202	n/a	7	43	ButtonPress	Win	True
414.857	0.42	Win2	0.6591	n/a	Yes	3.173	n/a	n/a	GoodResponse	1	n/a	n/a	7	43	Blank	Win	True
415.275	1.45	Win2	0.6591	n/a	Yes	3.173	n/a	5.0	GoodResponse	1	0.011	414.286	7	43	Feedback	Win	True
416.729	3.173	Win2	0.6591	n/a	Yes	3.173	n/a	n/a	GoodResponse	1	0.0	n/a	7	43	ISIslide	Win	True
419.922	0.25	Win2	0.6667000000000001	0.0	Yes	2.978	0.022	n/a	GoodResponse	1	n/a	n/a	8	44	Cue	Win	True
420.173	4.0	Win2	0.6667000000000001	0.0	Yes	2.978	0.001	n/a	GoodResponse	1	n/a	n/a	8	44	Fixation	Win	True
424.168	0.28	Win2	0.6667000000000001	0.004	Yes	2.978	-0.004	2.0	GoodResponse	1	0.189	423.357	8	44	Target	Win	True
424.357	0.3	Win2	0.6667000000000001	0.004	Yes	2.978	-0.004	2.0	GoodResponse	1	0.189	n/a	8	44	ButtonPress	Win	True
424.452	0.42	Win2	0.6667000000000001	n/a	Yes	2.978	n/a	n/a	GoodResponse	1	n/a	n/a	8	44	Blank	Win	True
424.87	1.45	Win2	0.6667000000000001	n/a	Yes	2.978	n/a	5.0	GoodResponse	1	0.024	423.894	8	44	Feedback	Win	True
426.325	2.978	Win2	0.6667000000000001	n/a	Yes	2.978	n/a	n/a	GoodResponse	1	0.0	n/a	8	44	ISIslide	Win	True
429.317	0.25	Control	0.6522	0.0	No	2.883	0.017	n/a	NoResponse	0	n/a	n/a	8	45	Cue	Neutral	True
429.568	4.1	Control	0.6522	0.0	No	2.883	0.001	2.0	NoResponse	0	3.893	432.461	8	45	Fixation	Neutral	True
433.461	0.3	Control	0.6522	0.0	No	2.883	0.001	2.0	NoResponse	0	3.893	n/a	8	45	ButtonPress	Neutral	True
433.663	0.27	Control	0.6522	0.004	No	2.883	-0.004	n/a	NoResponse	0	n/a	n/a	8	45	Target	Neutral	True
433.947	0.43	Control	0.6522	n/a	No	2.883	n/a	n/a	NoResponse	0	n/a	n/a	8	45	Blank	Neutral	True
434.365	1.45	Control	0.6522	n/a	No	2.883	n/a	5.0	NoResponse	0	0.042	433.407	8	45	Feedback	Neutral	True
435.82	2.883	Control	0.6522	n/a	No	2.883	n/a	n/a	NoResponse	0	0.0	n/a	8	45	ISIslide	Neutral	True
438.728	0.25	Lose2	0.6596	0.001	Yes	3.372	0.028	n/a	GoodResponse	0	n/a	n/a	8	46	Cue	AvoidedLoss	True
438.979	4.0	Lose2	0.6596	0.0	Yes	3.372	0.001	n/a	GoodResponse	0	n/a	n/a	8	46	Fixation	AvoidedLoss	True
442.974	0.28	Lose2	0.6596	0.004	Yes	3.372	-0.004	2.0	GoodResponse	0	0.228	442.202	8	46	Target	AvoidedLoss	True
443.202	0.3	Lose2	0.6596	0.004	Yes	3.372	-0.004	2.0	GoodResponse	0	0.228	n/a	8	46	ButtonPress	AvoidedLoss	True
443.259	0.42	Lose2	0.6596	n/a	Yes	3.372	n/a	n/a	GoodResponse	0	n/a	n/a	8	46	Blank	AvoidedLoss	True
443.677	1.45	Lose2	0.6596	n/a	Yes	3.372	n/a	5.0	GoodResponse	0	0.047	442.724	8	46	Feedback	AvoidedLoss	True
445.131	3.372	Lose2	0.6596	n/a	Yes	3.372	n/a	n/a	GoodResponse	0	0.0	n/a	8	46	ISIslide	AvoidedLoss	True
448.524	0.25	Lose2	0.6667000000000001	0.0	Yes	2.676	0.024	n/a	GoodResponse	0	n/a	n/a	8	47	Cue	AvoidedLoss	True
448.775	4.0	Lose2	0.6667000000000001	0.0	Yes	2.676	0.001	n/a	GoodResponse	0	n/a	n/a	8	47	Fixation	AvoidedLoss	True
452.77	0.28	Lose2	0.6667000000000001	0.004	Yes	2.676	-0.004	2.0	GoodResponse	0	0.241	452.011	8	47	Target	AvoidedLoss	True
453.011	0.3	Lose2	0.6667000000000001	0.004	Yes	2.676	-0.004	2.0	GoodResponse	0	0.241	n/a	8	47	ButtonPress	AvoidedLoss	True
453.055	0.42	Lose2	0.6667000000000001	n/a	Yes	2.676	n/a	n/a	GoodResponse	0	n/a	n/a	8	47	Blank	AvoidedLoss	True
453.472	1.45	Lose2	0.6667000000000001	n/a	Yes	2.676	n/a	5.0	GoodResponse	0	0.008	452.48	8	47	Feedback	AvoidedLoss	True
454.927	2.676	Lose2	0.6667000000000001	n/a	Yes	2.676	n/a	n/a	GoodResponse	0	0.0	n/a	8	47	ISIslide	AvoidedLoss	True
457.618	0.25	Lose2	0.6735	0.0	Yes	3.032	0.018	n/a	GoodResponse	0	n/a	n/a	8	48	Cue	AvoidedLoss	True
457.869	3.95	Lose2	0.6735	0.0	Yes	3.032	0.001	n/a	GoodResponse	0	n/a	n/a	8	48	Fixation	AvoidedLoss	True
461.814	0.27	Lose2	0.6735	0.004	Yes	3.032	-0.004	2.0	GoodResponse	0	0.236	461.05	8	48	Target	AvoidedLoss	True
462.05	0.3	Lose2	0.6735	0.004	Yes	3.032	-0.004	2.0	GoodResponse	0	0.236	n/a	8	48	ButtonPress	AvoidedLoss	True
462.098	0.43	Lose2	0.6735	n/a	Yes	3.032	n/a	n/a	GoodResponse	0	n/a	n/a	8	48	Blank	AvoidedLoss	True
462.516	1.45	Lose2	0.6735	n/a	Yes	3.032	n/a	5.0	GoodResponse	0	0.036	461.552	8	48	Feedback	AvoidedLoss	True
463.971	3.032	Lose2	0.6735	n/a	Yes	3.032	n/a	n/a	GoodResponse	0	0.0	n/a	8	48	ISIslide	AvoidedLoss	True
467.03	0.25	Control	0.68	0.0	Yes	2.87	0.03	n/a	GoodResponse	0	n/a	n/a	8	49	Cue	Neutral	True
467.28	4.0	Control	0.68	0.0	Yes	2.87	0.0	n/a	GoodResponse	0	n/a	n/a	8	49	Fixation	Neutral	True
471.276	0.26	Control	0.68	0.004	Yes	2.87	-0.004	2.0	GoodResponse	0	0.214	470.49	8	49	Target	Neutral	True
471.49	0.3	Control	0.68	0.004	Yes	2.87	-0.004	2.0	GoodResponse	0	0.214	n/a	8	49	ButtonPress	Neutral	True
471.543	0.44	Control	0.68	n/a	Yes	2.87	n/a	n/a	GoodResponse	0	n/a	n/a	8	49	Blank	Neutral	True
471.978	1.45	Control	0.68	n/a	Yes	2.87	n/a	5.0	GoodResponse	0	0.038	471.016	8	49	Feedback	Neutral	True
473.432	2.87	Control	0.68	n/a	Yes	2.87	n/a	n/a	GoodResponse	0	0.0	n/a	8	49	ISIslide	Neutral	True
476.324	0.25	Control	0.6862999999999999	0.0	Yes	2.776	0.024	n/a	GoodResponse	0	n/a	n/a	8	50	Cue	Neutral	True
476.575	4.0	Control	0.6862999999999999	0.0	Yes	2.776	0.001	n/a	GoodResponse	0	n/a	n/a	8	50	Fixation	Neutral	True
480.57	0.25	Control	0.6862999999999999	0.004	Yes	2.776	-0.004	2.0	GoodResponse	0	0.237	479.807	8	50	Target	Neutral	True
480.807	0.3	Control	0.6862999999999999	0.004	Yes	2.776	-0.004	2.0	GoodResponse	0	0.237	n/a	8	50	ButtonPress	Neutral	True
480.821	0.45	Control	0.6862999999999999	n/a	Yes	2.776	n/a	n/a	GoodResponse	0	n/a	n/a	8	50	Blank	Neutral	True
481.272	1.45	Control	0.6862999999999999	n/a	Yes	2.776	n/a	5.0	GoodResponse	0	0.012	480.284	8	50	Feedback	Neutral	True
482.727	2.776	Control	0.6862999999999999	n/a	Yes	2.776	n/a	n/a	GoodResponse	0	0.0	n/a	8	50	ISIslide	Neutral	True
485.518	0.25	Control	0.6731	0.0	No	2.732	0.018	n/a	LatePress	0	n/a	n/a	8	51	Cue	Neutral	True
485.769	3.95	Control	0.6731	0.0	No	2.732	0.001	n/a	LatePress	0	n/a	n/a	8	51	Fixation	Neutral	True
489.714	0.24	Control	0.6731	0.004	No	2.732	-0.004	2.0	LatePress	0	0.242	488.956	8	51	Target	Neutral	True
489.956	0.3	Control	0.6731	0.004	No	2.732	-0.004	2.0	LatePress	0	0.242	n/a	8	51	ButtonPress	Neutral	True
489.965	0.46	Control	0.6731	n/a	No	2.732	n/a	n/a	LatePress	0	n/a	n/a	8	51	Blank	Neutral	True
490.416	1.45	Control	0.6731	n/a	No	2.732	n/a	5.0	LatePress	0	0.039	489.455	8	51	Feedback	Neutral	True
491.87	2.732	Control	0.6731	n/a	No	2.732	n/a	n/a	LatePress	0	0.0	n/a	8	51	ISIslide	Neutral	True
494.629	0.25	Control	0.6792	0.0	Yes	2.621	0.029	n/a	GoodResponse	0	n/a	n/a	8	52	Cue	Neutral	True
494.879	4.05	Control	0.6792	0.001	Yes	2.621	0.0	n/a	GoodResponse	0	n/a	n/a	8	52	Fixation	Neutral	True
498.925	0.23	Control	0.6792	0.004	Yes	2.621	-0.004	2.0	GoodResponse	0	0.22	498.145	8	52	Target	Neutral	True
499.145	0.3	Control	0.6792	0.004	Yes	2.621	-0.004	2.0	GoodResponse	0	0.22	n/a	8	52	ButtonPress	Neutral	True
499.159	0.47	Control	0.6792	n/a	Yes	2.621	n/a	n/a	GoodResponse	0	n/a	n/a	8	52	Blank	Neutral	True
499.627	1.45	Control	0.6792	n/a	Yes	2.621	n/a	5.0	GoodResponse	0	0.047	498.674	8	52	Feedback	Neutral	True
501.081	2.621	Control	0.6792	n/a	Yes	2.621	n/a	n/a	GoodResponse	0	0.0	n/a	8	52	ISIslide	Neutral	True
503.723	0.25	Win2	0.6851999999999999	0.0	Yes	2.927	0.023	n/a	GoodResponse	1	n/a	n/a	9	53	Cue	Win	True
503.973	4.05	Win2	0.6851999999999999	0.0	Yes	2.927	0.0	n/a	GoodResponse	1	n/a	n/a	9	53	Fixation	Win	True
508.019	0.22	Win2	0.6851999999999999	0.004	Yes	2.927	-0.004	2.0	GoodResponse	1	0.203	507.222	9	53	Target	Win	True
508.222	0.3	Win2	0.6851999999999999	0.004	Yes	2.927	-0.004	2.0	GoodResponse	1	0.203	n/a	9	53	ButtonPress	Win	True
508.253	0.48	Win2	0.6851999999999999	n/a	Yes	2.927	n/a	n/a	GoodResponse	1	n/a	n/a	9	53	Blank	Win	True
508.721	1.45	Win2	0.6851999999999999	n/a	Yes	2.927	n/a	5.0	GoodResponse	1	0.026	507.747	9	53	Feedback	Win	True
510.175	2.927	Win2	0.6851999999999999	n/a	Yes	2.927	n/a	n/a	GoodResponse	1	0.0	n/a	9	53	ISIslide	Win	True
513.117	0.25	Win2	0.6727	0.0	No	2.733	0.017	n/a	NoResponse	0	n/a	n/a	9	54	Cue	MissedWin	True
513.368	3.95	Win2	0.6727	0.0	No	2.733	0.001	n/a	NoResponse	0	n/a	n/a	9	54	Fixation	MissedWin	True
517.313	0.21	Win2	0.6727	0.004	No	2.733	-0.004	2.0	NoResponse	0	0.226	516.539	9	54	Target	MissedWin	True
517.53	0.49	Win2	0.6727	n/a	No	2.733	n/a	n/a	NoResponse	0	n/a	n/a	9	54	Blank	MissedWin	True
517.539	0.3	Win2	0.6727	0.004	No	2.733	-0.004	2.0	NoResponse	0	0.226	n/a	9	54	ButtonPress	MissedWin	True
518.015	1.45	Win2	0.6727	n/a	No	2.733	n/a	5.0	NoResponse	0	0.049	517.064	9	54	Feedback	MissedWin	True
519.47	2.733	Win2	0.6727	n/a	No	2.733	n/a	n/a	NoResponse	0	0.0	n/a	9	54	ISIslide	MissedWin	True
522.228	0.25	Control	0.6607	0.0	No	3.022	0.028	n/a	NoResponse	0	n/a	n/a	9	55	Cue	Neutral	True
522.479	3.95	Control	0.6607	0.0	No	3.022	0.001	n/a	NoResponse	0	n/a	n/a	9	55	Fixation	Neutral	True
526.424	0.2	Control	0.6607	0.004	No	3.022	-0.004	2.0	NoResponse	0	0.286	525.71	9	55	Target	Neutral	True
526.624	0.5	Control	0.6607	n/a	No	3.022	n/a	n/a	NoResponse	0	n/a	n/a	9	55	Blank	Neutral	True
526.71	0.3	Control	0.6607	0.004	No	3.022	-0.004	2.0	NoResponse	0	0.286	n/a	9	55	ButtonPress	Neutral	True
527.126	1.45	Control	0.6607	n/a	No	3.022	n/a	5.0	NoResponse	0	0.011	526.137	9	55	Feedback	Neutral	True
528.58	3.022	Control	0.6607	n/a	No	3.022	n/a	n/a	NoResponse	0	0.0	n/a	9	55	ISIslide	Neutral	True
531.623	0.25	Control	0.6491	0.0	No	2.827	0.023	n/a	NoResponse	0	n/a	n/a	9	56	Cue	Neutral	True
531.873	3.95	Control	0.6491	0.0	No	2.827	0.0	n/a	NoResponse	0	n/a	n/a	9	56	Fixation	Neutral	True
535.835	0.2	Control	0.6491	0.0	No	2.827	0.012	2.0	NoResponse	0	0.235	535.07	9	56	Target	Neutral	True
536.019	0.5	Control	0.6491	n/a	No	2.827	n/a	n/a	NoResponse	0	n/a	n/a	9	56	Blank	Neutral	True
536.07	0.3	Control	0.6491	0.0	No	2.827	0.012	2.0	NoResponse	0	0.235	n/a	9	56	ButtonPress	Neutral	True
536.521	1.45	Control	0.6491	n/a	No	2.827	n/a	5.0	NoResponse	0	0.03	535.551	9	56	Feedback	Neutral	True
537.975	2.827	Control	0.6491	n/a	No	2.827	n/a	n/a	NoResponse	0	0.0	n/a	9	56	ISIslide	Neutral	True
540.817	0.25	Control	0.6379	0.0	No	3.483	0.017	n/a	NoResponse	0	n/a	n/a	9	57	Cue	Neutral	True
541.067	4.0	Control	0.6379	0.001	No	3.483	0.0	n/a	NoResponse	0	n/a	n/a	9	57	Fixation	Neutral	True
545.063	0.21	Control	0.6379	0.004	No	3.483	-0.004	2.0	NoResponse	0	0.232	544.295	9	57	Target	Neutral	True
545.28	0.49	Control	0.6379	n/a	No	3.483	n/a	n/a	NoResponse	0	n/a	n/a	9	57	Blank	Neutral	True
545.295	0.3	Control	0.6379	0.004	No	3.483	-0.004	2.0	NoResponse	0	0.232	n/a	9	57	ButtonPress	Neutral	True
545.765	1.45	Control	0.6379	n/a	No	3.483	n/a	5.0	NoResponse	0	0.007	544.772	9	57	Feedback	Neutral	True
547.219	3.483	Control	0.6379	n/a	No	3.483	n/a	n/a	NoResponse	0	0.0	n/a	9	57	ISIslide	Neutral	True
550.73	0.25	Win2	0.6271	0.0	No	2.72	0.03	n/a	NoResponse	0	n/a	n/a	9	58	Cue	MissedWin	True
550.98	4.05	Win2	0.6271	0.0	No	2.72	0.0	n/a	NoResponse	0	n/a	n/a	9	58	Fixation	MissedWin	True
555.026	0.22	Win2	0.6271	0.004	No	2.72	-0.004	2.0	NoResponse	0	0.235	554.261	9	58	Target	MissedWin	True
555.26	0.48	Win2	0.6271	n/a	No	2.72	n/a	n/a	NoResponse	0	n/a	n/a	9	58	Blank	MissedWin	True
555.261	0.3	Win2	0.6271	0.004	No	2.72	-0.004	2.0	NoResponse	0	0.235	n/a	9	58	ButtonPress	MissedWin	True
555.728	1.45	Win2	0.6271	n/a	No	2.72	n/a	5.0	NoResponse	0	0.043	554.771	9	58	Feedback	MissedWin	True
557.182	2.72	Win2	0.6271	n/a	No	2.72	n/a	n/a	NoResponse	0	0.0	n/a	9	58	ISIslide	MissedWin	True
559.924	0.25	Lose2	0.6167	0.0	No	2.676	0.024	n/a	NoResponse	-1	n/a	n/a	8	59	Cue	Loss	True
560.174	4.0	Lose2	0.6167	0.001	No	2.676	0.0	n/a	NoResponse	-1	n/a	n/a	8	59	Fixation	Loss	True
564.17	0.23	Lose2	0.6167	0.004	No	2.676	-0.004	2.0	NoResponse	-1	0.243	563.413	8	59	Target	Loss	True
564.404	0.47	Lose2	0.6167	n/a	No	2.676	n/a	n/a	NoResponse	-1	n/a	n/a	8	59	Blank	Loss	True
564.413	0.3	Lose2	0.6167	0.004	No	2.676	-0.004	2.0	NoResponse	-1	0.243	n/a	8	59	ButtonPress	Loss	True
564.872	1.45	Lose2	0.6167	n/a	No	2.676	n/a	5.0	NoResponse	-1	0.021	563.893	8	59	Feedback	Loss	True
566.326	2.676	Lose2	0.6167	n/a	No	2.676	n/a	n/a	NoResponse	-1	0.0	n/a	8	59	ISIslide	Loss	True
569.018	0.25	Control	0.623	0.0	Yes	2.682	0.018	n/a	GoodResponse	0	n/a	n/a	8	60	Cue	Neutral	True
569.268	4.0	Control	0.623	0.0	Yes	2.682	0.0	n/a	GoodResponse	0	n/a	n/a	8	60	Fixation	Neutral	True
573.264	0.24	Control	0.623	0.004	Yes	2.682	-0.004	2.0	GoodResponse	0	0.216	572.48	8	60	Target	Neutral	True
573.48	0.3	Control	0.623	0.004	Yes	2.682	-0.004	2.0	GoodResponse	0	0.216	n/a	8	60	ButtonPress	Neutral	True
573.514	0.46	Control	0.623	n/a	Yes	2.682	n/a	n/a	GoodResponse	0	n/a	n/a	8	60	Blank	Neutral	True
573.966	1.45	Control	0.623	n/a	Yes	2.682	n/a	5.0	GoodResponse	0	0.048	573.014	8	60	Feedback	Neutral	True
575.42	2.682	Control	0.623	n/a	Yes	2.682	n/a	n/a	GoodResponse	0	0.0	n/a	8	60	ISIslide	Neutral	True
578.128	0.25	Lose2	0.629	0.0	Yes	2.972	0.028	n/a	GoodResponse	0	n/a	n/a	8	61	Cue	AvoidedLoss	True
578.379	4.0	Lose2	0.629	0.0	Yes	2.972	0.001	n/a	GoodResponse	0	n/a	n/a	8	61	Fixation	AvoidedLoss	True
582.374	0.25	Lose2	0.629	0.004	Yes	2.972	-0.004	2.0	GoodResponse	0	0.238	581.612	8	61	Target	AvoidedLoss	True
582.612	0.3	Lose2	0.629	0.004	Yes	2.972	-0.004	2.0	GoodResponse	0	0.238	n/a	8	61	ButtonPress	AvoidedLoss	True
582.625	0.45	Lose2	0.629	n/a	Yes	2.972	n/a	n/a	GoodResponse	0	n/a	n/a	8	61	Blank	AvoidedLoss	True
583.076	1.45	Lose2	0.629	n/a	Yes	2.972	n/a	5.0	GoodResponse	0	0.011	582.087	8	61	Feedback	AvoidedLoss	True
584.531	2.972	Lose2	0.629	n/a	Yes	2.972	n/a	n/a	GoodResponse	0	0.0	n/a	8	61	ISIslide	AvoidedLoss	True
587.523	0.25	Lose2	0.619	0.0	No	2.877	0.023	n/a	LatePress	-1	n/a	n/a	7	62	Cue	Loss	True
587.774	3.9	Lose2	0.619	0.0	No	2.877	0.001	n/a	LatePress	-1	n/a	n/a	7	62	Fixation	Loss	True
591.669	0.26	Lose2	0.619	0.004	No	2.877	-0.004	2.0	LatePress	-1	0.266	590.935	7	62	Target	Loss	True
591.935	0.3	Lose2	0.619	0.004	No	2.877	-0.004	2.0	LatePress	-1	0.266	n/a	7	62	ButtonPress	Loss	True
591.936	0.44	Lose2	0.619	n/a	No	2.877	n/a	n/a	LatePress	-1	n/a	n/a	7	62	Blank	Loss	True
592.371	1.45	Lose2	0.619	n/a	No	2.877	n/a	5.0	LatePress	-1	0.033	591.404	7	62	Feedback	Loss	True
593.825	2.877	Lose2	0.619	n/a	No	2.877	n/a	n/a	LatePress	-1	0.0	n/a	7	62	ISIslide	Loss	True
596.717	0.25	Lose2	0.625	0.0	Yes	2.633	0.017	n/a	GoodResponse	0	n/a	n/a	7	63	Cue	AvoidedLoss	True
596.968	4.05	Lose2	0.625	0.0	Yes	2.633	0.001	n/a	GoodResponse	0	n/a	n/a	7	63	Fixation	AvoidedLoss	True
601.013	0.27	Lose2	0.625	0.004	Yes	2.633	-0.004	2.0	GoodResponse	0	0.228	600.241	7	63	Target	AvoidedLoss	True
601.241	0.3	Lose2	0.625	0.004	Yes	2.633	-0.004	2.0	GoodResponse	0	0.228	n/a	7	63	ButtonPress	AvoidedLoss	True
601.297	0.43	Lose2	0.625	n/a	Yes	2.633	n/a	n/a	GoodResponse	0	n/a	n/a	7	63	Blank	AvoidedLoss	True
601.715	1.45	Lose2	0.625	n/a	Yes	2.633	n/a	5.0	GoodResponse	0	0.008	600.723	7	63	Feedback	AvoidedLoss	True
603.17	2.633	Lose2	0.625	n/a	Yes	2.633	n/a	n/a	GoodResponse	0	0.0	n/a	7	63	ISIslide	AvoidedLoss	True
605.827	0.25	Win2	0.6308	0.001	Yes	3.123	0.027	n/a	GoodResponse	1	n/a	n/a	8	64	Cue	Win	True
606.078	4.15	Win2	0.6308	0.0	Yes	3.123	0.001	n/a	GoodResponse	1	n/a	n/a	8	64	Fixation	Win	True
610.224	0.28	Win2	0.6308	0.003	Yes	3.123	-0.003	2.0	GoodResponse	1	0.214	609.438	8	64	Target	Win	True
610.438	0.3	Win2	0.6308	0.003	Yes	3.123	-0.003	2.0	GoodResponse	1	0.214	n/a	8	64	ButtonPress	Win	True
610.508	0.42	Win2	0.6308	n/a	Yes	3.123	n/a	n/a	GoodResponse	1	n/a	n/a	8	64	Blank	Win	True
610.926	1.45	Win2	0.6308	n/a	Yes	3.123	n/a	5.0	GoodResponse	1	0.014	609.94	8	64	Feedback	Win	True
612.38	3.123	Win2	0.6308	n/a	Yes	3.123	n/a	n/a	GoodResponse	1	0.0	n/a	8	64	ISIslide	Win	True
615.523	0.25	Control	0.6364	0.0	Yes	2.777	0.023	n/a	GoodResponse	0	n/a	n/a	8	65	Cue	Neutral	True
615.774	4.0	Control	0.6364	0.0	Yes	2.777	0.001	n/a	GoodResponse	0	n/a	n/a	8	65	Fixation	Neutral	True
619.769	0.29	Control	0.6364	0.004	Yes	2.777	-0.004	2.0	GoodResponse	0	0.229	618.998	8	65	Target	Neutral	True
619.998	0.3	Control	0.6364	0.004	Yes	2.777	-0.004	2.0	GoodResponse	0	0.229	n/a	8	65	ButtonPress	Neutral	True
620.07	0.41	Control	0.6364	n/a	Yes	2.777	n/a	n/a	GoodResponse	0	n/a	n/a	8	65	Blank	Neutral	True
620.471	1.45	Control	0.6364	n/a	Yes	2.777	n/a	5.0	GoodResponse	0	0.03	619.501	8	65	Feedback	Neutral	True
621.926	2.777	Control	0.6364	n/a	Yes	2.777	n/a	n/a	GoodResponse	0	0.0	n/a	8	65	ISIslide	Neutral	True
624.717	0.25	Win2	0.6418	0.0	Yes	2.783	0.017	n/a	GoodResponse	1	n/a	n/a	9	66	Cue	Win	True
624.968	3.9	Win2	0.6418	0.0	Yes	2.783	0.001	n/a	GoodResponse	1	n/a	n/a	9	66	Fixation	Win	True
628.863	0.3	Win2	0.6418	0.004	Yes	2.783	-0.004	2.0	GoodResponse	1	0.197	628.06	9	66	Target	Win	True
629.06	0.3	Win2	0.6418	0.004	Yes	2.783	-0.004	2.0	GoodResponse	1	0.197	n/a	9	66	ButtonPress	Win	True
629.164	0.4	Win2	0.6418	n/a	Yes	2.783	n/a	n/a	GoodResponse	1	n/a	n/a	9	66	Blank	Win	True
629.565	1.45	Win2	0.6418	n/a	Yes	2.783	n/a	5.0	GoodResponse	1	0.009	628.574	9	66	Feedback	Win	True
631.019	2.783	Win2	0.6418	n/a	Yes	2.783	n/a	n/a	GoodResponse	1	0.0	n/a	9	66	ISIslide	Win	True
633.828	0.25	Control	0.6470999999999999	0.0	Yes	2.722	0.028	n/a	GoodResponse	0	n/a	n/a	9	67	Cue	Neutral	True
634.079	3.95	Control	0.6470999999999999	0.0	Yes	2.722	0.001	n/a	GoodResponse	0	n/a	n/a	9	67	Fixation	Neutral	True
638.024	0.31	Control	0.6470999999999999	0.004	Yes	2.722	-0.004	2.0	GoodResponse	0	0.191	637.215	9	67	Target	Neutral	True
638.215	0.3	Control	0.6470999999999999	0.004	Yes	2.722	-0.004	2.0	GoodResponse	0	0.191	n/a	9	67	ButtonPress	Neutral	True
638.341	0.39	Control	0.6470999999999999	n/a	Yes	2.722	n/a	n/a	GoodResponse	0	n/a	n/a	9	67	Blank	Neutral	True
638.726	1.45	Control	0.6470999999999999	n/a	Yes	2.722	n/a	5.0	GoodResponse	0	0.019	637.745	9	67	Feedback	Neutral	True
640.18	2.722	Control	0.6470999999999999	n/a	Yes	2.722	n/a	n/a	GoodResponse	0	0.0	n/a	9	67	ISIslide	Neutral	True
642.922	0.25	Win2	0.6522	0.0	Yes	3.078	0.022	n/a	GoodResponse	1	n/a	n/a	10	68	Cue	Win	True
643.172	4.0	Win2	0.6522	0.0	Yes	3.078	0.0	n/a	GoodResponse	1	n/a	n/a	10	68	Fixation	Win	True
647.168	0.32	Win2	0.6522	0.004	Yes	3.078	-0.004	2.0	GoodResponse	1	0.194	646.362	10	68	Target	Win	True
647.362	0.3	Win2	0.6522	0.004	Yes	3.078	-0.004	2.0	GoodResponse	1	0.194	n/a	10	68	ButtonPress	Win	True
647.502	0.38	Win2	0.6522	n/a	Yes	3.078	n/a	n/a	GoodResponse	1	n/a	n/a	10	68	Blank	Win	True
647.87	1.45	Win2	0.6522	n/a	Yes	3.078	n/a	5.0	GoodResponse	1	0.045	646.915	10	68	Feedback	Win	True
649.324	3.078	Win2	0.6522	n/a	Yes	3.078	n/a	n/a	GoodResponse	1	0.0	n/a	10	68	ISIslide	Win	True
652.417	0.25	Win2	0.6570999999999999	0.0	Yes	3.233	0.017	n/a	GoodResponse	1	n/a	n/a	11	69	Cue	Win	True
652.667	3.95	Win2	0.6570999999999999	0.0	Yes	3.233	0.0	n/a	GoodResponse	1	n/a	n/a	11	69	Fixation	Win	True
656.612	0.33	Win2	0.6570999999999999	0.005	Yes	3.233	-0.005	2.0	GoodResponse	1	0.201	655.813	11	69	Target	Win	True
656.813	0.3	Win2	0.6570999999999999	0.005	Yes	3.233	-0.005	2.0	GoodResponse	1	0.201	n/a	11	69	ButtonPress	Win	True
656.947	0.37	Win2	0.6570999999999999	n/a	Yes	3.233	n/a	n/a	GoodResponse	1	n/a	n/a	11	69	Blank	Win	True
657.315	1.45	Win2	0.6570999999999999	n/a	Yes	3.233	n/a	5.0	GoodResponse	1	0.015	656.33	11	69	Feedback	Win	True
658.769	3.233	Win2	0.6570999999999999	n/a	Yes	3.233	n/a	n/a	GoodResponse	1	0.0	n/a	11	69	ISIslide	Win	True
662.029	0.25	Lose2	0.662	0.0	Yes	3.021	0.029	n/a	GoodResponse	0	n/a	n/a	11	70	Cue	AvoidedLoss	True
662.279	4.05	Lose2	0.662	0.001	Yes	3.021	0.0	n/a	GoodResponse	0	n/a	n/a	11	70	Fixation	AvoidedLoss	True
666.325	0.33	Lose2	0.662	0.004	Yes	3.021	-0.004	2.0	GoodResponse	0	0.179	665.504	11	70	Target	AvoidedLoss	True
666.504	0.3	Lose2	0.662	0.004	Yes	3.021	-0.004	2.0	GoodResponse	0	0.179	n/a	11	70	ButtonPress	AvoidedLoss	True
666.659	0.37	Lose2	0.662	n/a	Yes	3.021	n/a	n/a	GoodResponse	0	n/a	n/a	11	70	Blank	AvoidedLoss	True
667.027	1.45	Lose2	0.662	n/a	Yes	3.021	n/a	5.0	GoodResponse	0	0.01	666.037	11	70	Feedback	AvoidedLoss	True
668.481	3.021	Lose2	0.662	n/a	Yes	3.021	n/a	n/a	GoodResponse	0	0.0	n/a	11	70	ISIslide	AvoidedLoss	True
671.524	0.25	Win2	0.6667000000000001	0.0	Yes	2.726	0.024	n/a	GoodResponse	1	n/a	n/a	12	71	Cue	Win	True
671.774	4.05	Win2	0.6667000000000001	0.001	Yes	2.726	0.0	n/a	GoodResponse	1	n/a	n/a	12	71	Fixation	Win	True
675.82	0.33	Win2	0.6667000000000001	0.004	Yes	2.726	-0.004	2.0	GoodResponse	1	0.209	675.029	12	71	Target	Win	True
676.029	0.3	Win2	0.6667000000000001	0.004	Yes	2.726	-0.004	2.0	GoodResponse	1	0.209	n/a	12	71	ButtonPress	Win	True
676.154	0.37	Win2	0.6667000000000001	n/a	Yes	2.726	n/a	n/a	GoodResponse	1	n/a	n/a	12	71	Blank	Win	True
676.522	1.45	Win2	0.6667000000000001	n/a	Yes	2.726	n/a	5.0	GoodResponse	1	0.028	675.55	12	71	Feedback	Win	True
677.976	2.726	Win2	0.6667000000000001	n/a	Yes	2.726	n/a	n/a	GoodResponse	1	0.0	n/a	12	71	ISIslide	Win	True
680.718	0.25	Win2	0.6712	0.0	Yes	2.782	0.018	n/a	GoodResponse	1	n/a	n/a	13	72	Cue	Win	True
680.969	4.1	Win2	0.6712	0.0	Yes	2.782	0.001	n/a	GoodResponse	1	n/a	n/a	13	72	Fixation	Win	True
685.064	0.32	Win2	0.6712	0.004	Yes	2.782	-0.004	2.0	GoodResponse	1	0.216	684.28	13	72	Target	Win	True
685.28	0.3	Win2	0.6712	0.004	Yes	2.782	-0.004	2.0	GoodResponse	1	0.216	n/a	13	72	ButtonPress	Win	True
685.399	0.38	Win2	0.6712	n/a	Yes	2.782	n/a	n/a	GoodResponse	1	n/a	n/a	13	72	Blank	Win	True
685.766	1.45	Win2	0.6712	n/a	Yes	2.782	n/a	5.0	GoodResponse	1	0.007	684.773	13	72	Feedback	Win	True
687.221	2.782	Win2	0.6712	n/a	Yes	2.782	n/a	n/a	GoodResponse	1	0.0	n/a	13	72	ISIslide	Win	True
690.029	0.25	Win2	0.6757	0.0	Yes	2.671	0.029	n/a	GoodResponse	1	n/a	n/a	14	73	Cue	Win	True
690.28	4.0	Win2	0.6757	0.0	Yes	2.671	0.001	n/a	GoodResponse	1	n/a	n/a	14	73	Fixation	Win	True
694.275	0.31	Win2	0.6757	0.004	Yes	2.671	-0.004	2.0	GoodResponse	1	0.213	693.488	14	73	Target	Win	True
694.488	0.3	Win2	0.6757	0.004	Yes	2.671	-0.004	2.0	GoodResponse	1	0.213	n/a	14	73	ButtonPress	Win	True
694.593	0.39	Win2	0.6757	n/a	Yes	2.671	n/a	n/a	GoodResponse	1	n/a	n/a	14	73	Blank	Win	True
694.977	1.45	Win2	0.6757	n/a	Yes	2.671	n/a	5.0	GoodResponse	1	0.011	693.988	14	73	Feedback	Win	True
696.431	2.671	Win2	0.6757	n/a	Yes	2.671	n/a	n/a	GoodResponse	1	0.0	n/a	14	73	ISIslide	Win	True
699.123	0.25	Lose2	0.68	0.0	Yes	2.627	0.023	n/a	GoodResponse	0	n/a	n/a	14	74	Cue	AvoidedLoss	True
699.374	4.05	Lose2	0.68	0.0	Yes	2.627	0.001	n/a	GoodResponse	0	n/a	n/a	14	74	Fixation	AvoidedLoss	True
703.419	0.3	Lose2	0.68	0.004	Yes	2.627	-0.004	2.0	GoodResponse	0	0.237	702.656	14	74	Target	AvoidedLoss	True
703.656	0.3	Lose2	0.68	0.004	Yes	2.627	-0.004	2.0	GoodResponse	0	0.237	n/a	14	74	ButtonPress	AvoidedLoss	True
703.72	0.4	Lose2	0.68	n/a	Yes	2.627	n/a	n/a	GoodResponse	0	n/a	n/a	14	74	Blank	AvoidedLoss	True
704.121	1.45	Lose2	0.68	n/a	Yes	2.627	n/a	5.0	GoodResponse	0	0.038	703.159	14	74	Feedback	AvoidedLoss	True
705.575	2.627	Lose2	0.68	n/a	Yes	2.627	n/a	n/a	GoodResponse	0	0.0	n/a	14	74	ISIslide	AvoidedLoss	True
708.217	0.25	Lose2	0.6842	0.0	Yes	2.933	0.017	n/a	GoodResponse	0	n/a	n/a	14	75	Cue	AvoidedLoss	True
708.467	3.95	Lose2	0.6842	0.0	Yes	2.933	0.0	n/a	GoodResponse	0	n/a	n/a	14	75	Fixation	AvoidedLoss	True
712.412	0.29	Lose2	0.6842	0.005	Yes	2.933	-0.005	2.0	GoodResponse	0	0.188	711.6	14	75	Target	AvoidedLoss	True
712.6	0.3	Lose2	0.6842	0.005	Yes	2.933	-0.005	2.0	GoodResponse	0	0.188	n/a	14	75	ButtonPress	AvoidedLoss	True
712.713	0.41	Lose2	0.6842	n/a	Yes	2.933	n/a	n/a	GoodResponse	0	n/a	n/a	14	75	Blank	AvoidedLoss	True
713.115	1.45	Lose2	0.6842	n/a	Yes	2.933	n/a	5.0	GoodResponse	0	0.019	712.134	14	75	Feedback	AvoidedLoss	True
714.569	2.933	Lose2	0.6842	n/a	Yes	2.933	n/a	n/a	GoodResponse	0	0.0	n/a	14	75	ISIslide	AvoidedLoss	True
717.528	0.25	Control	0.6883	0.0	Yes	3.222	0.028	n/a	GoodResponse	0	n/a	n/a	14	76	Cue	Neutral	True
717.779	4.05	Control	0.6883	0.0	Yes	3.222	0.001	n/a	GoodResponse	0	n/a	n/a	14	76	Fixation	Neutral	True
721.824	0.28	Control	0.6883	0.004	Yes	3.222	-0.004	2.0	GoodResponse	0	0.262	721.086	14	76	Target	Neutral	True
722.086	0.3	Control	0.6883	0.004	Yes	3.222	-0.004	2.0	GoodResponse	0	0.262	n/a	14	76	ButtonPress	Neutral	True
722.108	0.42	Control	0.6883	n/a	Yes	3.222	n/a	n/a	GoodResponse	0	n/a	n/a	14	76	Blank	Neutral	True
722.526	1.45	Control	0.6883	n/a	Yes	3.222	n/a	5.0	GoodResponse	0	0.023	721.549	14	76	Feedback	Neutral	True
723.98	3.222	Control	0.6883	n/a	Yes	3.222	n/a	n/a	GoodResponse	0	0.0	n/a	14	76	ISIslide	Neutral	True
727.223	0.25	Lose2	0.6923	0.0	Yes	2.577	0.023	n/a	GoodResponse	0	n/a	n/a	14	77	Cue	AvoidedLoss	True
727.474	3.95	Lose2	0.6923	0.0	Yes	2.577	0.001	n/a	GoodResponse	0	n/a	n/a	14	77	Fixation	AvoidedLoss	True
731.419	0.27	Lose2	0.6923	0.004	Yes	2.577	-0.004	2.0	GoodResponse	0	0.202	730.621	14	77	Target	AvoidedLoss	True
731.621	0.3	Lose2	0.6923	0.004	Yes	2.577	-0.004	2.0	GoodResponse	0	0.202	n/a	14	77	ButtonPress	AvoidedLoss	True
731.703	0.43	Lose2	0.6923	n/a	Yes	2.577	n/a	n/a	GoodResponse	0	n/a	n/a	14	77	Blank	AvoidedLoss	True
732.121	1.45	Lose2	0.6923	n/a	Yes	2.577	n/a	5.0	GoodResponse	0	0.037	731.158	14	77	Feedback	AvoidedLoss	True
733.576	2.577	Lose2	0.6923	n/a	Yes	2.577	n/a	n/a	GoodResponse	0	0.0	n/a	14	77	ISIslide	AvoidedLoss	True
