onset	duration	cue_type	current_mean_accuracy	duration_error	is_hit	isi_adjusted	onset_delay	response	response_type	reward	rt	rt_time	total_reward	trial_number	trial_phase	trial_type	one_press
11.098	0.25	Control	1.0	0.0	Yes	2.952	-0.002	n/a	GoodResponse	0	n/a	n/a	0	0	Cue	Neutral	True
11.348	3.85	Control	1.0	0.0	Yes	2.952	0.0	n/a	GoodResponse	0	n/a	n/a	0	0	Fixation	Neutral	True
15.197	0.4	Control	1.0	0.001	Yes	2.952	-0.001	2.0	GoodResponse	0	0.23	14.427	0	0	Target	Neutral	True
15.427	0.3	Control	1.0	0.001	Yes	2.952	-0.001	2.0	GoodResponse	0	0.23	n/a	0	0	ButtonPress	Neutral	True
15.596	0.3	Control	1.0	n/a	Yes	2.952	n/a	n/a	GoodResponse	0	n/a	n/a	0	0	Blank	Neutral	True
15.896	1.45	Control	1.0	n/a	Yes	2.952	n/a	5.0	GoodResponse	0	0.029	14.925	0	0	Feedback	Neutral	True
17.346	2.952	Control	1.0	n/a	Yes	2.952	n/a	n/a	GoodResponse	0	0.0	n/a	0	0	ISIslide	Neutral	True
20.328	0.25	Lose2	1.0	0.0	Yes	2.772	0.028	n/a	GoodResponse	0	n/a	n/a	0	1	Cue	AvoidedLoss	True
20.578	4.0	Lose2	1.0	0.0	Yes	2.772	0.0	n/a	GoodResponse	0	n/a	n/a	0	1	Fixation	AvoidedLoss	True
24.577	0.39	Lose2	1.0	0.001	Yes	2.772	-0.001	2.0	GoodResponse	0	0.181	23.758	0	1	Target	AvoidedLoss	True
24.758	0.3	Lose2	1.0	0.001	Yes	2.772	-0.001	2.0	GoodResponse	0	0.181	n/a	0	1	ButtonPress	AvoidedLoss	True
24.976	0.31	Lose2	1.0	n/a	Yes	2.772	n/a	n/a	GoodResponse	0	n/a	n/a	0	1	Blank	AvoidedLoss	True
25.276	1.45	Lose2	1.0	n/a	Yes	2.772	n/a	5.0	GoodResponse	0	0.015	24.291	0	1	Feedback	AvoidedLoss	True
26.726	2.772	Lose2	1.0	n/a	Yes	2.772	n/a	n/a	GoodResponse	0	0.0	n/a	0	1	ISIslide	AvoidedLoss	True
29.525	0.25	Control	1.0	0.0	Yes	2.575	0.025	n/a	GoodResponse	0	n/a	n/a	0	2	Cue	Neutral	True
29.775	4.1	Control	1.0	0.0	Yes	2.575	0.0	n/a	GoodResponse	0	n/a	n/a	0	2	Fixation	Neutral	True
33.873	0.38	Control	1.0	0.002	Yes	2.575	-0.002	2.0	GoodResponse	0	0.216	33.089	0	2	Target	Neutral	True
34.089	0.3	Control	1.0	0.002	Yes	2.575	-0.002	2.0	GoodResponse	0	0.216	n/a	0	2	ButtonPress	Neutral	True
34.257	0.32	Control	1.0	n/a	Yes	2.575	n/a	n/a	GoodResponse	0	n/a	n/a	0	2	Blank	Neutral	True
34.573	1.45	Control	1.0	n/a	Yes	2.575	n/a	5.0	GoodResponse	0	0.035	33.608	0	2	Feedback	Neutral	True
36.023	2.575	Control	1.0	n/a	Yes	2.575	n/a	n/a	GoodResponse	0	0.0	n/a	0	2	ISIslide	Neutral	True
38.622	0.25	Win2	1.0	0.0	Yes	2.828	0.022	n/a	GoodResponse	1	n/a	n/a	1	3	Cue	Win	True
38.872	3.95	Win2	1.0	0.0	Yes	2.828	0.0	n/a	GoodResponse	1	n/a	n/a	1	3	Fixation	Win	True
42.82	0.37	Win2	1.0	0.002	Yes	2.828	-0.002	2.0	GoodResponse	1	0.281	42.101	1	3	Target	Win	True
43.101	0.3	Win2	1.0	0.002	Yes	2.828	-0.002	2.0	GoodResponse	1	0.281	n/a	1	3	ButtonPress	Win	True
43.203	0.33	Win2	1.0	n/a	Yes	2.828	n/a	n/a	GoodResponse	1	n/a	n/a	1	3	Blank	Win	True
43.52	1.45	Win2	1.0	n/a	Yes	2.828	n/a	5.0	GoodResponse	1	0.015	42.535	1	3	Feedback	Win	True
44.97	2.828	Win2	1.0	n/a	Yes	2.828	n/a	n/a	GoodResponse	1	0.0	n/a	1	3	ISIslide	Win	True
47.819	0.25	Win2	1.0	0.0	Yes	3.281	0.019	n/a	GoodResponse	1	n/a	n/a	2	4	Cue	Win	True
48.068	4.0	Win2	1.0	0.001	Yes	3.281	-0.001	n/a	GoodResponse	1	n/a	n/a	2	4	Fixation	Win	True
52.067	0.36	Win2	1.0	0.002	Yes	3.281	-0.002	2.0	GoodResponse	1	0.228	51.295	2	4	Target	Win	True
52.295	0.3	Win2	1.0	0.002	Yes	3.281	-0.002	2.0	GoodResponse	1	0.228	n/a	2	4	ButtonPress	Win	True
52.434	0.34	Win2	1.0	n/a	Yes	3.281	n/a	n/a	GoodResponse	1	n/a	n/a	2	4	Blank	Win	True
52.767	1.45	Win2	1.0	n/a	Yes	3.281	n/a	5.0	GoodResponse	1	0.037	51.804	2	4	Feedback	Win	True
54.216	3.281	Win2	1.0	n/a	Yes	3.281	n/a	n/a	GoodResponse	1	0.0	n/a	2	4	ISIslide	Win	True
57.515	0.25	Win2	1.0	0.0	Yes	2.785	0.015	n/a	GoodResponse	1	n/a	n/a	3	5	Cue	Win	True
57.765	4.0	Win2	1.0	0.0	Yes	2.785	0.0	n/a	GoodResponse	1	n/a	n/a	3	5	Fixation	Win	True
61.764	0.35	Win2	1.0	0.001	Yes	2.785	-0.001	2.0	GoodResponse	1	0.2	60.964	3	5	Target	Win	True
61.964	0.3	Win2	1.0	0.001	Yes	2.785	-0.001	2.0	GoodResponse	1	0.2	n/a	3	5	ButtonPress	Win	True
62.114	0.35	Win2	1.0	n/a	Yes	2.785	n/a	n/a	GoodResponse	1	n/a	n/a	3	5	Blank	Win	True
62.463	1.45	Win2	1.0	n/a	Yes	2.785	n/a	5.0	GoodResponse	1	0.047	61.51	3	5	Feedback	Win	True
63.913	2.785	Win2	1.0	n/a	Yes	2.785	n/a	n/a	GoodResponse	1	0.0	n/a	3	5	ISIslide	Win	True
66.729	0.25	Lose2	1.0	0.0	Yes	2.721	0.029	n/a	GoodResponse	0	n/a	n/a	3	6	Cue	AvoidedLoss	True
66.979	3.95	Lose2	1.0	0.0	Yes	2.721	0.0	n/a	GoodResponse	0	n/a	n/a	3	6	Fixation	AvoidedLoss	True
70.927	0.34	Lose2	1.0	0.002	Yes	2.721	-0.002	2.0	GoodResponse	0	0.252	70.179	3	6	Target	AvoidedLoss	True
71.179	0.3	Lose2	1.0	0.002	Yes	2.721	-0.002	2.0	GoodResponse	0	0.252	n/a	3	6	ButtonPress	AvoidedLoss	True
71.277	0.36	Lose2	1.0	n/a	Yes	2.721	n/a	n/a	GoodResponse	0	n/a	n/a	3	6	Blank	AvoidedLoss	True
71.627	1.45	Lose2	1.0	n/a	Yes	2.721	n/a	5.0	GoodResponse	0	0.007	70.634	3	6	Feedback	AvoidedLoss	True
73.076	2.721	Lose2	1.0	n/a	Yes	2.721	n/a	n/a	GoodResponse	0	0.0	n/a	3	6	ISIslide	AvoidedLoss	True
75.826	0.25	Lose2	1.0	0.0	Yes	4.024	0.026	n/a	GoodResponse	0	n/a	n/a	3	7	Cue	AvoidedLoss	True
76.075	4.05	Lose2	1.0	0.001	Yes	4.024	-0.001	n/a	GoodResponse	0	n/a	n/a	3	7	Fixation	AvoidedLoss	True
80.124	0.33	Lose2	1.0	0.002	Yes	4.024	-0.002	2.0	GoodResponse	0	0.202	79.326	3	7	Target	AvoidedLoss	True
80.326	0.3	Lose2	1.0	0.002	Yes	4.024	-0.002	2.0	GoodResponse	0	0.202	n/a	3	7	ButtonPress	AvoidedLoss	True
80.457	0.37	Lose2	1.0	n/a	Yes	4.024	n/a	n/a	GoodResponse	0	n/a	n/a	3	7	Blank	AvoidedLoss	True
80.824	1.45	Lose2	1.0	n/a	Yes	4.024	n/a	5.0	GoodResponse	0	0.028	79.852	3	7	Feedback	AvoidedLoss	True
82.273	4.024	Lose2	1.0	n/a	Yes	4.024	n/a	n/a	GoodResponse	0	0.0	n/a	3	7	ISIslide	AvoidedLoss	True
86.322	0.25	Lose2	1.0	0.0	Yes	3.028	0.022	n/a	GoodResponse	0	n/a	n/a	3	8	Cue	AvoidedLoss	True
86.572	3.95	Lose2	1.0	0.0	Yes	3.028	0.0	n/a	GoodResponse	0	n/a	n/a	3	8	Fixation	AvoidedLoss	True
90.52	0.32	Lose2	1.0	0.002	Yes	3.028	-0.002	2.0	GoodResponse	0	0.167	89.687	3	8	Target	AvoidedLoss	True
90.687	0.3	Lose2	1.0	0.002	Yes	3.028	-0.002	2.0	GoodResponse	0	0.167	n/a	3	8	ButtonPress	AvoidedLoss	True
90.854	0.38	Lose2	1.0	n/a	Yes	3.028	n/a	n/a	GoodResponse	0	n/a	n/a	3	8	Blank	AvoidedLoss	True
91.22	1.45	Lose2	1.0	n/a	Yes	3.028	n/a	5.0	GoodResponse	0	0.022	90.242	3	8	Feedback	AvoidedLoss	True
92.67	3.028	Lose2	1.0	n/a	Yes	3.028	n/a	n/a	GoodResponse	0	0.0	n/a	3	8	ISIslide	AvoidedLoss	True
95.719	0.25	Lose2	1.0	0.0	Yes	3.131	0.019	n/a	GoodResponse	0	n/a	n/a	3	9	Cue	AvoidedLoss	True
95.969	3.95	Lose2	1.0	0.0	Yes	3.131	0.0	n/a	GoodResponse	0	n/a	n/a	3	9	Fixation	AvoidedLoss	True
99.917	0.31	Lose2	1.0	0.002	Yes	3.131	-0.002	2.0	GoodResponse	0	0.203	99.12	3	9	Target	AvoidedLoss	True
100.12	0.3	Lose2	1.0	0.002	Yes	3.131	-0.002	2.0	GoodResponse	0	0.203	n/a	3	9	ButtonPress	AvoidedLoss	True
100.234	0.39	Lose2	1.0	n/a	Yes	3.131	n/a	n/a	GoodResponse	0	n/a	n/a	3	9	Blank	AvoidedLoss	True
100.617	1.45	Lose2	1.0	n/a	Yes	3.131	n/a	5.0	GoodResponse	0	0.04	99.657	3	9	Feedback	AvoidedLoss	True
102.066	3.131	Lose2	1.0	n/a	Yes	3.131	n/a	n/a	GoodResponse	0	0.0	n/a	3	9	ISIslide	AvoidedLoss	True
105.215	0.25	Control	0.9091	0.0	No	3.285	0.015	n/a	NoResponse	0	n/a	n/a	3	10	Cue	Neutral	True
105.465	4.0	Control	0.9091	0.0	No	3.285	0.0	n/a	NoResponse	0	n/a	n/a	3	10	Fixation	Neutral	True
109.464	0.3	Control	0.9091	0.001	No	3.285	-0.001	2.0	NoResponse	0	0.326	108.79	3	10	Target	Neutral	True
109.764	0.4	Control	0.9091	n/a	No	3.285	n/a	n/a	NoResponse	0	n/a	n/a	3	10	Blank	Neutral	True
109.79	0.3	Control	0.9091	0.001	No	3.285	-0.001	2.0	NoResponse	0	0.326	n/a	3	10	ButtonPress	Neutral	True
110.164	1.45	Control	0.9091	n/a	No	3.285	n/a	5.0	NoResponse	0	0.006	109.17	3	10	Feedback	Neutral	True
111.613	3.285	Control	0.9091	n/a	No	3.285	n/a	n/a	NoResponse	0	0.0	n/a	3	10	ISIslide	Neutral	True
114.929	0.25	Lose2	0.9167000000000001	0.0	Yes	2.721	0.029	n/a	GoodResponse	0	n/a	n/a	3	11	Cue	AvoidedLoss	True
115.179	4.05	Lose2	0.9167000000000001	0.0	Yes	2.721	0.0	n/a	GoodResponse	0	n/a	n/a	3	11	Fixation	AvoidedLoss	True
119.227	0.29	Lose2	0.9167000000000001	0.002	Yes	2.721	-0.002	2.0	GoodResponse	0	0.117	118.344	3	11	Target	AvoidedLoss	True
119.344	0.3	Lose2	0.9167000000000001	0.002	Yes	2.721	-0.002	2.0	GoodResponse	0	0.117	n/a	3	11	ButtonPress	AvoidedLoss	True
119.527	0.41	Lose2	0.9167000000000001	n/a	Yes	2.721	n/a	n/a	GoodResponse	0	n/a	n/a	3	11	Blank	AvoidedLoss	True
119.927	1.45	Lose2	0.9167000000000001	n/a	Yes	2.721	n/a	5.0	GoodResponse	0	0.046	118.973	3	11	Feedback	AvoidedLoss	True
121.376	2.721	Lose2	0.9167000000000001	n/a	Yes	2.721	n/a	n/a	GoodResponse	0	0.0	n/a	3	11	ISIslide	AvoidedLoss	True
124.126	0.25	Control	0.9231	0.0	Yes	2.974	0.026	n/a	GoodResponse	0	n/a	n/a	3	12	Cue	Neutral	True
124.375	3.9	Control	0.9231	0.001	Yes	2.974	-0.001	n/a	GoodResponse	0	n/a	n/a	3	12	Fixation	Neutral	True
128.274	0.28	Control	0.9231	0.002	Yes	2.974	-0.002	2.0	GoodResponse	0	0.271	127.545	3	12	Target	Neutral	True
128.545	0.3	Control	0.9231	0.002	Yes	2.974	-0.002	2.0	GoodResponse	0	0.271	n/a	3	12	ButtonPress	Neutral	True
128.557	0.42	Control	0.9231	n/a	Yes	2.974	n/a	n/a	GoodResponse	0	n/a	n/a	3	12	Blank	Neutral	True
128.974	1.45	Control	0.9231	n/a	Yes	2.974	n/a	5.0	GoodResponse	0	0.024	127.998	3	12	Feedback	Neutral	True
130.423	2.974	Control	0.9231	n/a	Yes	2.974	n/a	n/a	GoodResponse	0	0.0	n/a	3	12	ISIslide	Neutral	True
133.422	0.25	Control	0.9286	0.0	Yes	2.778	0.022	n/a	GoodResponse	0	n/a	n/a	3	13	Cue	Neutral	True
133.672	4.0	Control	0.9286	0.0	Yes	2.778	0.0	n/a	GoodResponse	0	n/a	n/a	3	13	Fixation	Neutral	True
137.671	0.27	Control	0.9286	0.001	Yes	2.778	-0.001	2.0	GoodResponse	0	0.212	136.883	3	13	Target	Neutral	True
137.883	0.3	Control	0.9286	0.001	Yes	2.778	-0.001	2.0	GoodResponse	0	0.212	n/a	3	13	ButtonPress	Neutral	True
137.937	0.43	Control	0.9286	n/a	Yes	2.778	n/a	n/a	GoodResponse	0	n/a	n/a	3	13	Blank	Neutral	True
138.371	1.45	Control	0.9286	n/a	Yes	2.778	n/a	5.0	GoodResponse	0	0.042	137.413	3	13	Feedback	Neutral	True
139.82	2.778	Control	0.9286	n/a	Yes	2.778	n/a	n/a	GoodResponse	0	0.0	n/a	3	13	ISIslide	Neutral	True
142.619	0.25	Win2	0.9333	0.0	Yes	2.681	0.019	n/a	GoodResponse	1	n/a	n/a	4	14	Cue	Win	True
142.869	4.1	Win2	0.9333	0.0	Yes	2.681	0.0	n/a	GoodResponse	1	n/a	n/a	4	14	Fixation	Win	True
146.968	0.26	Win2	0.9333	0.001	Yes	2.681	-0.001	2.0	GoodResponse	1	0.24	146.208	4	14	Target	Win	True
147.208	0.3	Win2	0.9333	0.001	Yes	2.681	-0.001	2.0	GoodResponse	1	0.24	n/a	4	14	ButtonPress	Win	True
147.234	0.44	Win2	0.9333	n/a	Yes	2.681	n/a	n/a	GoodResponse	1	n/a	n/a	4	14	Blank	Win	True
147.667	1.45	Win2	0.9333	n/a	Yes	2.681	n/a	5.0	GoodResponse	1	0.014	146.681	4	14	Feedback	Win	True
149.117	2.681	Win2	0.9333	n/a	Yes	2.681	n/a	n/a	GoodResponse	1	0.0	n/a	4	14	ISIslide	Win	True
151.816	0.25	Control	0.9375	0.0	Yes	2.984	0.016	n/a	GoodResponse	0	n/a	n/a	4	15	Cue	Neutral	True
152.066	4.0	Control	0.9375	0.0	Yes	2.984	0.0	n/a	GoodResponse	0	n/a	n/a	4	15	Fixation	Neutral	True
156.064	0.25	Control	0.9375	0.002	Yes	2.984	-0.002	2.0	GoodResponse	0	0.222	155.286	4	15	Target	Neutral	True
156.286	0.3	Control	0.9375	0.002	Yes	2.984	-0.002	2.0	GoodResponse	0	0.222	n/a	4	15	ButtonPress	Neutral	True
156.314	0.45	Control	0.9375	n/a	Yes	2.984	n/a	n/a	GoodResponse	0	n/a	n/a	4	15	Blank	Neutral	True
156.764	1.45	Control	0.9375	n/a	Yes	2.984	n/a	5.0	GoodResponse	0	0.039	155.803	4	15	Feedback	Neutral	True
158.214	2.984	Control	0.9375	n/a	Yes	2.984	n/a	n/a	GoodResponse	0	0.0	n/a	4	15	ISIslide	Neutral	True
161.229	0.25	Win2	0.9412	0.0	Yes	2.871	0.029	n/a	GoodResponse	1	n/a	n/a	5	16	Cue	Win	True
161.479	4.0	Win2	0.9412	0.0	Yes	2.871	0.0	n/a	GoodResponse	1	n/a	n/a	5	16	Fixation	Win	True
165.478	0.24	Win2	0.9412	0.001	Yes	2.871	-0.001	2.0	GoodResponse	1	0.222	164.7	5	16	Target	Win	True
165.7	0.3	Win2	0.9412	0.001	Yes	2.871	-0.001	2.0	GoodResponse	1	0.222	n/a	5	16	ButtonPress	Win	True
165.728	0.46	Win2	0.9412	n/a	Yes	2.871	n/a	n/a	GoodResponse	1	n/a	n/a	5	16	Blank	Win	True
166.178	1.45	Win2	0.9412	n/a	Yes	2.871	n/a	5.0	GoodResponse	1	0.04	165.218	5	16	Feedback	Win	True
167.627	2.871	Win2	0.9412	n/a	Yes	2.871	n/a	n/a	GoodResponse	1	0.0	n/a	5	16	ISIslide	Win	True
170.526	0.25	Lose2	0.9444	0.0	Yes	2.724	0.026	n/a	GoodResponse	0	n/a	n/a	5	17	Cue	AvoidedLoss	True
170.776	3.95	Lose2	0.9444	0.0	Yes	2.724	0.0	n/a	GoodResponse	0	n/a	n/a	5	17	Fixation	AvoidedLoss	True
174.725	0.23	Lose2	0.9444	0.001	Yes	2.724	-0.001	2.0	GoodResponse	0	0.209	173.934	5	17	Target	AvoidedLoss	True
174.934	0.3	Lose2	0.9444	0.001	Yes	2.724	-0.001	2.0	GoodResponse	0	0.209	n/a	5	17	ButtonPress	AvoidedLoss	True
174.958	0.47	Lose2	0.9444	n/a	Yes	2.724	n/a	n/a	GoodResponse	0	n/a	n/a	5	17	Blank	AvoidedLoss	True
175.424	1.45	Lose2	0.9444	n/a	Yes	2.724	n/a	5.0	GoodResponse	0	0.014	174.438	5	17	Feedback	AvoidedLoss	True
176.874	2.724	Lose2	0.9444	n/a	Yes	2.724	n/a	n/a	GoodResponse	0	0.0	n/a	5	17	ISIslide	AvoidedLoss	True
179.623	0.25	Lose2	0.8946999999999999	0.0	No	2.727	0.023	n/a	NoResponse	-1	n/a	n/a	4	18	Cue	Loss	False
179.873	4.05	Lose2	0.8946999999999999	0.0	No	2.727	0.0	2.0	NoResponse	-1	3.862	182.735	4	18	Fixation	Loss	False
183.735	0.3	Lose2	0.8946999999999999	0.0	No	2.727	0.0	2.0	NoResponse	-1	3.862	n/a	4	18	ButtonPress	Loss	False
183.922	0.22	Lose2	0.8946999999999999	0.001	No	2.727	-0.001	2.0	NoResponse	-1	0.251	183.173	4	18	Target	Loss	False
184.155	0.48	Lose2	0.8946999999999999	n/a	No	2.727	n/a	n/a	NoResponse	-1	n/a	n/a	4	18	Blank	Loss	False
184.173	0.3	Lose2	0.8946999999999999	0.001	No	2.727	-0.001	2.0	NoResponse	-1	0.251	n/a	4	18	ButtonPress	Loss	False
184.621	1.45	Lose2	0.8946999999999999	n/a	No	2.727	n/a	5.0	NoResponse	-1	0.035	183.656	4	18	Feedback	Loss	False
186.071	2.727	Lose2	0.8946999999999999	n/a	No	2.727	n/a	n/a	NoResponse	-1	0.0	n/a	4	18	ISIslide	Loss	False
188.82	0.25	Control	0.85	0.0	No	2.93	0.02	n/a	NoResponse	0	n/a	n/a	4	19	Cue	Neutral	True
189.07	3.95	Control	0.85	0.0	No	2.93	0.0	n/a	NoResponse	0	n/a	n/a	4	19	Fixation	Neutral	True
193.018	0.21	Control	0.85	0.002	No	2.93	-0.002	2.0	NoResponse	0	0.229	192.247	4	19	Target	Neutral	True
193.235	0.49	Control	0.85	n/a	No	2.93	n/a	n/a	NoResponse	0	n/a	n/a	4	19	Blank	Neutral	True
193.247	0.3	Control	0.85	0.002	No	2.93	-0.002	2.0	NoResponse	0	0.229	n/a	4	19	ButtonPress	Neutral	True
193.718	1.45	Control	0.85	n/a	No	2.93	n/a	5.0	NoResponse	0	0.011	192.729	4	19	Feedback	Neutral	True
195.168	2.93	Control	0.85	n/a	No	2.93	n/a	n/a	NoResponse	0	0.0	n/a	4	19	ISIslide	Neutral	True
198.117	0.25	Control	0.8095	0.0	No	2.633	0.017	n/a	NoResponse	0	n/a	n/a	4	20	Cue	Neutral	True
198.367	4.05	Control	0.8095	0.0	No	2.633	0.0	n/a	NoResponse	0	n/a	n/a	4	20	Fixation	Neutral	True
202.415	0.2	Control	0.8095	0.002	No	2.633	-0.002	2.0	NoResponse	0	0.223	201.638	4	20	Target	Neutral	True
202.615	0.5	Control	0.8095	n/a	No	2.633	n/a	n/a	NoResponse	0	n/a	n/a	4	20	Blank	Neutral	True
202.638	0.3	Control	0.8095	0.002	No	2.633	-0.002	2.0	NoResponse	0	0.223	n/a	4	20	ButtonPress	Neutral	True
203.115	1.45	Control	0.8095	n/a	No	2.633	n/a	5.0	NoResponse	0	0.029	202.144	4	20	Feedback	Neutral	True
204.564	2.633	Control	0.8095	n/a	No	2.633	n/a	n/a	NoResponse	0	0.0	n/a	4	20	ISIslide	Neutral	True
207.213	0.25	Control	0.7726999999999999	0.001	No	2.787	0.013	n/a	NoResponse	0	n/a	n/a	4	21	Cue	Neutral	True
207.463	4.1	Control	0.7726999999999999	0.001	No	2.787	0.0	n/a	NoResponse	0	n/a	n/a	4	21	Fixation	Neutral	True
211.562	0.19	Control	0.7726999999999999	0.001	No	2.787	-0.001	2.0	NoResponse	0	0.219	210.781	4	21	Target	Neutral	True
211.762	0.51	Control	0.7726999999999999	n/a	No	2.787	n/a	n/a	NoResponse	0	n/a	n/a	4	21	Blank	Neutral	True
211.781	0.3	Control	0.7726999999999999	0.001	No	2.787	-0.001	2.0	NoResponse	0	0.219	n/a	4	21	ButtonPress	Neutral	True
212.262	1.45	Control	0.7726999999999999	n/a	No	2.787	n/a	5.0	NoResponse	0	0.006	211.268	4	21	Feedback	Neutral	True
213.711	2.787	Control	0.7726999999999999	n/a	No	2.787	n/a	n/a	NoResponse	0	0.0	n/a	4	21	ISIslide	Neutral	True
216.527	0.25	Control	0.7391	0.0	No	2.773	0.027	n/a	NoResponse	0	n/a	n/a	4	22	Cue	Neutral	True
216.777	4.0	Control	0.7391	0.0	No	2.773	0.0	n/a	NoResponse	0	n/a	n/a	4	22	Fixation	Neutral	True
220.775	0.18	Control	0.7391	0.002	No	2.773	-0.002	2.0	NoResponse	0	0.274	220.049	4	22	Target	Neutral	True
220.959	0.52	Control	0.7391	n/a	No	2.773	n/a	n/a	NoResponse	0	n/a	n/a	4	22	Blank	Neutral	True
221.049	0.3	Control	0.7391	0.002	No	2.773	-0.002	2.0	NoResponse	0	0.274	n/a	4	22	ButtonPress	Neutral	True
221.475	1.45	Control	0.7391	n/a	No	2.773	n/a	5.0	NoResponse	0	0.011	220.486	4	22	Feedback	Neutral	True
222.925	2.773	Control	0.7391	n/a	No	2.773	n/a	n/a	NoResponse	0	0.0	n/a	4	22	ISIslide	Neutral	True
225.724	0.25	Control	0.7082999999999999	0.0	No	2.776	0.024	n/a	NoResponse	0	n/a	n/a	4	23	Cue	Neutral	True
225.974	3.9	Control	0.7082999999999999	0.0	No	2.776	0.0	n/a	NoResponse	0	n/a	n/a	4	23	Fixation	Neutral	True
229.872	0.17	Control	0.7082999999999999	0.002	No	2.776	-0.002	2.0	NoResponse	0	0.221	229.093	4	23	Target	Neutral	True
230.056	0.53	Control	0.7082999999999999	n/a	No	2.776	n/a	n/a	NoResponse	0	n/a	n/a	4	23	Blank	Neutral	True
230.093	0.3	Control	0.7082999999999999	0.002	No	2.776	-0.002	2.0	NoResponse	0	0.221	n/a	4	23	ButtonPress	Neutral	True
230.572	1.45	Control	0.7082999999999999	n/a	No	2.776	n/a	5.0	NoResponse	0	0.036	229.608	4	23	Feedback	Neutral	True
232.022	2.776	Control	0.7082999999999999	n/a	No	2.776	n/a	n/a	NoResponse	0	0.0	n/a	4	23	ISIslide	Neutral	True
234.821	0.25	Win2	0.68	0.0	No	3.129	0.021	n/a	NoResponse	0	n/a	n/a	4	24	Cue	MissedWin	True
235.07	3.95	Win2	0.68	0.001	No	3.129	-0.001	n/a	NoResponse	0	n/a	n/a	4	24	Fixation	MissedWin	True
239.019	0.16	Win2	0.68	0.002	No	3.129	-0.002	2.0	NoResponse	0	0.211	238.23	4	24	Target	MissedWin	True
239.186	0.54	Win2	0.68	n/a	No	3.129	n/a	n/a	NoResponse	0	n/a	n/a	4	24	Blank	MissedWin	True
239.23	0.3	Win2	0.68	0.002	No	3.129	-0.002	2.0	NoResponse	0	0.211	n/a	4	24	ButtonPress	MissedWin	True
239.719	1.45	Win2	0.68	n/a	No	3.129	n/a	5.0	NoResponse	0	0.011	238.73	4	24	Feedback	MissedWin	True
241.168	3.129	Win2	0.68	n/a	No	3.129	n/a	n/a	NoResponse	0	0.0	n/a	4	24	ISIslide	MissedWin	True
244.317	0.25	Win2	0.6537999999999999	0.0	No	3.083	0.017	n/a	NoResponse	0	n/a	n/a	4	25	Cue	MissedWin	True
244.567	4.0	Win2	0.6537999999999999	0.0	No	3.083	0.0	n/a	NoResponse	0	n/a	n/a	4	25	Fixation	MissedWin	True
248.566	0.15	Win2	0.6537999999999999	0.001	No	3.083	-0.001	2.0	NoResponse	0	0.209	247.775	4	25	Target	MissedWin	True
248.716	0.55	Win2	0.6537999999999999	n/a	No	3.083	n/a	n/a	NoResponse	0	n/a	n/a	4	25	Blank	MissedWin	True
248.775	0.3	Win2	0.6537999999999999	0.001	No	3.083	-0.001	2.0	NoResponse	0	0.209	n/a	4	25	ButtonPress	MissedWin	True
249.266	1.45	Win2	0.6537999999999999	n/a	No	3.083	n/a	5.0	NoResponse	0	0.024	248.29	4	25	Feedback	MissedWin	True
250.715	3.083	Win2	0.6537999999999999	n/a	No	3.083	n/a	n/a	NoResponse	0	0.0	n/a	4	25	ISIslide	MissedWin	True
253.814	0.25	Win2	0.6296	0.0	No	2.936	0.014	n/a	NoResponse	0	n/a	n/a	4	26	Cue	MissedWin	True
254.064	3.95	Win2	0.6296	0.0	No	2.936	0.0	n/a	NoResponse	0	n/a	n/a	4	26	Fixation	MissedWin	True
258.013	0.16	Win2	0.6296	0.001	No	2.936	-0.001	2.0	NoResponse	0	0.222	257.235	4	26	Target	MissedWin	True
258.179	0.54	Win2	0.6296	n/a	No	2.936	n/a	n/a	NoResponse	0	n/a	n/a	4	26	Blank	MissedWin	True
258.235	0.3	Win2	0.6296	0.001	No	2.936	-0.001	2.0	NoResponse	0	0.222	n/a	4	26	ButtonPress	MissedWin	True
258.712	1.45	Win2	0.6296	n/a	No	2.936	n/a	5.0	NoResponse	0	0.042	257.754	4	26	Feedback	MissedWin	True
260.162	2.936	Win2	0.6296	n/a	No	2.936	n/a	n/a	NoResponse	0	0.0	n/a	4	26	ISIslide	MissedWin	True
263.127	0.25	Lose2	0.6071	0.001	No	2.823	0.027	n/a	NoResponse	-1	n/a	n/a	3	27	Cue	Loss	True
263.377	4.05	Lose2	0.6071	0.0	No	2.823	0.0	n/a	NoResponse	-1	n/a	n/a	3	27	Fixation	Loss	True
267.426	0.17	Lose2	0.6071	0.001	No	2.823	-0.001	2.0	NoResponse	-1	0.221	266.647	3	27	Target	Loss	True
267.593	0.53	Lose2	0.6071	n/a	No	2.823	n/a	n/a	NoResponse	-1	n/a	n/a	3	27	Blank	Loss	True
267.647	0.3	Lose2	0.6071	0.001	No	2.823	-0.001	2.0	NoResponse	-1	0.221	n/a	3	27	ButtonPress	Loss	True
268.126	1.45	Lose2	0.6071	n/a	No	2.823	n/a	5.0	NoResponse	-1	0.042	267.168	3	27	Feedback	Loss	True
269.575	2.823	Lose2	0.6071	n/a	No	2.823	n/a	n/a	NoResponse	-1	0.0	n/a	3	27	ISIslide	Loss	True
272.424	0.25	Control	0.5861999999999999	0.0	No	2.826	0.024	n/a	NoResponse	0	n/a	n/a	3	28	Cue	Neutral	True
272.674	4.05	Control	0.5861999999999999	0.0	No	2.826	0.0	2.0	NoResponse	0	3.383	275.057	3	28	Fixation	Neutral	True
276.057	0.3	Control	0.5861999999999999	0.0	No	2.826	0.0	2.0	NoResponse	0	3.383	n/a	3	28	ButtonPress	Neutral	True
276.723	0.18	Control	0.5861999999999999	0.001	No	2.826	-0.001	n/a	NoResponse	0	n/a	n/a	3	28	Target	Neutral	True
276.906	0.52	Control	0.5861999999999999	n/a	No	2.826	n/a	n/a	NoResponse	0	n/a	n/a	3	28	Blank	Neutral	True
277.423	1.45	Control	0.5861999999999999	n/a	No	2.826	n/a	5.0	NoResponse	0	0.014	276.437	3	28	Feedback	Neutral	True
278.872	2.826	Control	0.5861999999999999	n/a	No	2.826	n/a	n/a	NoResponse	0	0.0	n/a	3	28	ISIslide	Neutral	True
281.721	0.25	Lose2	0.5667	0.0	No	2.829	0.021	n/a	NoResponse	-1	n/a	n/a	2	29	Cue	Loss	True
281.971	3.95	Lose2	0.5667	0.0	No	2.829	0.0	n/a	NoResponse	-1	n/a	n/a	2	29	Fixation	Loss	True
285.92	0.19	Lose2	0.5667	0.001	No	2.829	-0.001	2.0	NoResponse	-1	0.211	285.131	2	29	Target	Loss	True
286.119	0.51	Lose2	0.5667	n/a	No	2.829	n/a	n/a	NoResponse	-1	n/a	n/a	2	29	Blank	Loss	True
286.131	0.3	Lose2	0.5667	0.001	No	2.829	-0.001	2.0	NoResponse	-1	0.211	n/a	2	29	ButtonPress	Loss	True
286.619	1.45	Lose2	0.5667	n/a	No	2.829	n/a	5.0	NoResponse	-1	0.037	285.656	2	29	Feedback	Loss	True
288.069	2.829	Lose2	0.5667	n/a	No	2.829	n/a	n/a	NoResponse	-1	0.0	n/a	2	29	ISIslide	Loss	True
290.918	0.25	Win2	0.5484	0.0	No	2.782	0.018	n/a	LatePress	0	n/a	n/a	2	30	Cue	MissedWin	True
291.168	3.9	Win2	0.5484	0.0	No	2.782	0.0	n/a	LatePress	0	n/a	n/a	2	30	Fixation	MissedWin	True
295.066	0.2	Win2	0.5484	0.002	No	2.782	-0.002	2.0	LatePress	0	0.201	294.267	2	30	Target	MissedWin	True
295.266	0.5	Win2	0.5484	n/a	No	2.782	n/a	n/a	LatePress	0	n/a	n/a	2	30	Blank	MissedWin	True
295.267	0.3	Win2	0.5484	0.002	No	2.782	-0.002	2.0	LatePress	0	0.201	n/a	2	30	ButtonPress	MissedWin	True
295.766	1.45	Win2	0.5484	n/a	No	2.782	n/a	5.0	LatePress	0	0.013	294.779	2	30	Feedback	MissedWin	True
297.216	2.782	Win2	0.5484	n/a	No	2.782	n/a	n/a	LatePress	0	0.0	n/a	2	30	ISIslide	MissedWin	True
300.015	0.25	Lose2	0.5625	0.0	Yes	2.835	0.015	n/a	GoodResponse	0	n/a	n/a	2	31	Cue	AvoidedLoss	False
300.265	4.05	Lose2	0.5625	0.0	Yes	2.835	0.0	2.0	GoodResponse	0	3.746	303.011	2	31	Fixation	AvoidedLoss	False
304.011	0.3	Lose2	0.5625	0.0	Yes	2.835	0.0	2.0	GoodResponse	0	3.746	n/a	2	31	ButtonPress	AvoidedLoss	False
304.313	0.21	Lose2	0.5625	0.002	Yes	2.835	-0.002	2.0	GoodResponse	0	0.198	303.511	2	31	Target	AvoidedLoss	False
304.511	0.3	Lose2	0.5625	0.002	Yes	2.835	-0.002	2.0	GoodResponse	0	0.198	n/a	2	31	ButtonPress	AvoidedLoss	False
304.53	0.49	Lose2	0.5625	n/a	Yes	2.835	n/a	n/a	GoodResponse	0	n/a	n/a	2	31	Blank	AvoidedLoss	False
305.013	1.45	Lose2	0.5625	n/a	Yes	2.835	n/a	5.0	GoodResponse	0	0.033	304.046	2	31	Feedback	AvoidedLoss	False
306.462	2.835	Lose2	0.5625	n/a	Yes	2.835	n/a	n/a	GoodResponse	0	0.0	n/a	2	31	ISIslide	AvoidedLoss	False
309.328	0.25	Lose2	0.5758	0.0	Yes	2.622	0.028	n/a	GoodResponse	0	n/a	n/a	2	32	Cue	AvoidedLoss	True
309.578	4.15	Lose2	0.5758	0.0	Yes	2.622	0.0	n/a	GoodResponse	0	n/a	n/a	2	32	Fixation	AvoidedLoss	True
313.727	0.22	Lose2	0.5758	0.001	Yes	2.622	-0.001	2.0	GoodResponse	0	0.213	312.94	2	32	Target	AvoidedLoss	True
313.94	0.3	Lose2	0.5758	0.001	Yes	2.622	-0.001	2.0	GoodResponse	0	0.213	n/a	2	32	ButtonPress	AvoidedLoss	True
313.96	0.48	Lose2	0.5758	n/a	Yes	2.622	n/a	n/a	GoodResponse	0	n/a	n/a	2	32	Blank	AvoidedLoss	True
314.426	1.45	Lose2	0.5758	n/a	Yes	2.622	n/a	5.0	GoodResponse	0	0.035	313.461	2	32	Feedback	AvoidedLoss	True
315.876	2.622	Lose2	0.5758	n/a	Yes	2.622	n/a	n/a	GoodResponse	0	0.0	n/a	2	32	ISIslide	AvoidedLoss	True
318.525	0.25	Win2	0.5882000000000001	0.0	Yes	2.675	0.025	n/a	GoodResponse	1	n/a	n/a	3	33	Cue	Win	True
318.775	4.0	Win2	0.5882000000000001	0.0	Yes	2.675	0.0	n/a	GoodResponse	1	n/a	n/a	3	33	Fixation	Win	True
322.773	0.23	Win2	0.5882000000000001	0.002	Yes	2.675	-0.002	2.0	GoodResponse	1	0.226	321.999	3	33	Target	Win	True
322.999	0.3	Win2	0.5882000000000001	0.002	Yes	2.675	-0.002	2.0	GoodResponse	1	0.226	n/a	3	33	ButtonPress	Win	True
323.007	0.47	Win2	0.5882000000000001	n/a	Yes	2.675	n/a	n/a	GoodResponse	1	n/a	n/a	3	33	Blank	Win	True
323.473	1.45	Win2	0.5882000000000001	n/a	Yes	2.675	n/a	5.0	GoodResponse	1	0.012	322.485	3	33	Feedback	Win	True
324.923	2.675	Win2	0.5882000000000001	n/a	Yes	2.675	n/a	n/a	GoodResponse	1	0.0	n/a	3	33	ISIslide	Win	True
327.622	0.25	Lose2	0.6	0.0	Yes	2.628	0.022	n/a	GoodResponse	0	n/a	n/a	3	34	Cue	AvoidedLoss	True
327.872	4.05	Lose2	0.6	0.0	Yes	2.628	0.0	n/a	GoodResponse	0	n/a	n/a	3	34	Fixation	AvoidedLoss	True
331.92	0.24	Lose2	0.6	0.002	Yes	2.628	-0.002	2.0	GoodResponse	0	0.217	331.137	3	34	Target	AvoidedLoss	True
332.137	0.3	Lose2	0.6	0.002	Yes	2.628	-0.002	2.0	GoodResponse	0	0.217	n/a	3	34	ButtonPress	AvoidedLoss	True
332.17	0.46	Lose2	0.6	n/a	Yes	2.628	n/a	n/a	GoodResponse	0	n/a	n/a	3	34	Blank	AvoidedLoss	True
332.62	1.45	Lose2	0.6	n/a	Yes	2.628	n/a	5.0	GoodResponse	0	0.036	331.656	3	34	Feedback	AvoidedLoss	True
334.07	2.628	Lose2	0.6	n/a	Yes	2.628	n/a	n/a	GoodResponse	0	0.0	n/a	3	34	ISIslide	AvoidedLoss	True
336.719	0.25	Lose2	0.6111	0.0	Yes	2.681	0.019	n/a	GoodResponse	0	n/a	n/a	3	35	Cue	AvoidedLoss	True
336.969	4.0	Lose2	0.6111	0.0	Yes	2.681	0.0	n/a	GoodResponse	0	n/a	n/a	3	35	Fixation	AvoidedLoss	True
340.967	0.25	Lose2	0.6111	0.002	Yes	2.681	-0.002	2.0	GoodResponse	0	0.244	340.211	3	35	Target	AvoidedLoss	True
341.211	0.3	Lose2	0.6111	0.002	Yes	2.681	-0.002	2.0	GoodResponse	0	0.244	n/a	3	35	ButtonPress	AvoidedLoss	True
341.217	0.45	Lose2	0.6111	n/a	Yes	2.681	n/a	n/a	GoodResponse	0	n/a	n/a	3	35	Blank	AvoidedLoss	True
341.667	1.45	Lose2	0.6111	n/a	Yes	2.681	n/a	5.0	GoodResponse	0	0.014	340.681	3	35	Feedback	AvoidedLoss	True
343.116	2.681	Lose2	0.6111	n/a	Yes	2.681	n/a	n/a	GoodResponse	0	0.0	n/a	3	35	ISIslide	AvoidedLoss	True
345.816	0.25	Control	0.6215999999999999	0.0	Yes	2.684	0.016	n/a	GoodResponse	0	n/a	n/a	3	36	Cue	Neutral	True
346.065	4.0	Control	0.6215999999999999	0.001	Yes	2.684	-0.001	n/a	GoodResponse	0	n/a	n/a	3	36	Fixation	Neutral	True
350.064	0.26	Control	0.6215999999999999	0.002	Yes	2.684	-0.002	2.0	GoodResponse	0	0.205	349.269	3	36	Target	Neutral	True
350.269	0.3	Control	0.6215999999999999	0.002	Yes	2.684	-0.002	2.0	GoodResponse	0	0.205	n/a	3	36	ButtonPress	Neutral	True
350.331	0.44	Control	0.6215999999999999	n/a	Yes	2.684	n/a	n/a	GoodResponse	0	n/a	n/a	3	36	Blank	Neutral	True
350.764	1.45	Control	0.6215999999999999	n/a	Yes	2.684	n/a	5.0	GoodResponse	0	0.039	349.803	3	36	Feedback	Neutral	True
352.213	2.684	Control	0.6215999999999999	n/a	Yes	2.684	n/a	n/a	GoodResponse	0	0.0	n/a	3	36	ISIslide	Neutral	True
354.912	0.25	Win2	0.6315999999999999	0.0	Yes	2.888	0.012	n/a	GoodResponse	1	n/a	n/a	4	37	Cue	Win	True
355.162	4.0	Win2	0.6315999999999999	0.0	Yes	2.888	0.0	n/a	GoodResponse	1	n/a	n/a	4	37	Fixation	Win	True
359.161	0.27	Win2	0.6315999999999999	0.001	Yes	2.888	-0.001	2.0	GoodResponse	1	0.211	358.372	4	37	Target	Win	True
359.372	0.3	Win2	0.6315999999999999	0.001	Yes	2.888	-0.001	2.0	GoodResponse	1	0.211	n/a	4	37	ButtonPress	Win	True
359.427	0.43	Win2	0.6315999999999999	n/a	Yes	2.888	n/a	n/a	GoodResponse	1	n/a	n/a	4	37	Blank	Win	True
359.861	1.45	Win2	0.6315999999999999	n/a	Yes	2.888	n/a	5.0	GoodResponse	1	0.014	358.875	4	37	Feedback	Win	True
361.31	2.888	Win2	0.6315999999999999	n/a	Yes	2.888	n/a	n/a	GoodResponse	1	0.0	n/a	4	37	ISIslide	Win	True
364.226	0.25	Lose2	0.6409999999999999	0.0	Yes	2.824	0.026	n/a	GoodResponse	0	n/a	n/a	4	38	Cue	AvoidedLoss	True
364.476	3.95	Lose2	0.6409999999999999	0.0	Yes	2.824	0.0	n/a	GoodResponse	0	n/a	n/a	4	38	Fixation	AvoidedLoss	True
368.424	0.28	Lose2	0.6409999999999999	0.002	Yes	2.824	-0.002	2.0	GoodResponse	0	0.224	367.648	4	38	Target	AvoidedLoss	True
368.648	0.3	Lose2	0.6409999999999999	0.002	Yes	2.824	-0.002	2.0	GoodResponse	0	0.224	n/a	4	38	ButtonPress	AvoidedLoss	True
368.708	0.42	Lose2	0.6409999999999999	n/a	Yes	2.824	n/a	n/a	GoodResponse	0	n/a	n/a	4	38	Blank	AvoidedLoss	True
369.124	1.45	Lose2	0.6409999999999999	n/a	Yes	2.824	n/a	5.0	GoodResponse	0	0.019	368.143	4	38	Feedback	AvoidedLoss	True
370.574	2.824	Lose2	0.6409999999999999	n/a	Yes	2.824	n/a	n/a	GoodResponse	0	0.0	n/a	4	38	ISIslide	AvoidedLoss	True
373.423	0.25	Win2	0.65	0.0	Yes	2.977	0.023	n/a	GoodResponse	1	n/a	n/a	5	39	Cue	Win	True
373.673	4.1	Win2	0.65	0.0	Yes	2.977	0.0	n/a	GoodResponse	1	n/a	n/a	5	39	Fixation	Win	True
377.771	0.29	Win2	0.65	0.002	Yes	2.977	-0.002	2.0	GoodResponse	1	0.201	376.972	5	39	Target	Win	True
377.972	0.3	Win2	0.65	0.002	Yes	2.977	-0.002	2.0	GoodResponse	1	0.201	n/a	5	39	ButtonPress	Win	True
378.071	0.41	Win2	0.65	n/a	Yes	2.977	n/a	n/a	GoodResponse	1	n/a	n/a	5	39	Blank	Win	True
378.471	1.45	Win2	0.65	n/a	Yes	2.977	n/a	5.0	GoodResponse	1	0.038	377.509	5	39	Feedback	Win	True
379.92	2.977	Win2	0.65	n/a	Yes	2.977	n/a	n/a	GoodResponse	1	0.0	n/a	5	39	ISIslide	Win	True
382.919	0.25	Win2	0.6585	0.0	Yes	2.731	0.019	n/a	GoodResponse	1	n/a	n/a	6	40	Cue	Win	True
383.169	3.95	Win2	0.6585	0.0	Yes	2.731	0.0	n/a	GoodResponse	1	n/a	n/a	6	40	Fixation	Win	True
387.118	0.3	Win2	0.6585	0.001	Yes	2.731	-0.001	2.0	GoodResponse	1	0.248	386.366	6	40	Target	Win	True
387.366	0.3	Win2	0.6585	0.001	Yes	2.731	-0.001	2.0	GoodResponse	1	0.248	n/a	6	40	ButtonPress	Win	True
387.418	0.4	Win2	0.6585	n/a	Yes	2.731	n/a	n/a	GoodResponse	1	n/a	n/a	6	40	Blank	Win	True
387.818	1.45	Win2	0.6585	n/a	Yes	2.731	n/a	5.0	GoodResponse	1	0.008	386.826	6	40	Feedback	Win	True
389.267	2.731	Win2	0.6585	n/a	Yes	2.731	n/a	n/a	GoodResponse	1	0.0	n/a	6	40	ISIslide	Win	True
392.016	0.25	Win2	0.6667000000000001	0.0	Yes	2.784	0.016	n/a	GoodResponse	1	n/a	n/a	7	41	Cue	Win	True
392.266	3.9	Win2	0.6667000000000001	0.0	Yes	2.784	0.0	n/a	GoodResponse	1	n/a	n/a	7	41	Fixation	Win	True
396.165	0.3	Win2	0.6667000000000001	0.001	Yes	2.784	-0.001	2.0	GoodResponse	1	0.222	395.387	7	41	Target	Win	True
396.387	0.3	Win2	0.6667000000000001	0.001	Yes	2.784	-0.001	2.0	GoodResponse	1	0.222	n/a	7	41	ButtonPress	Win	True
396.465	0.4	Win2	0.6667000000000001	n/a	Yes	2.784	n/a	n/a	GoodResponse	1	n/a	n/a	7	41	Blank	Win	True
396.865	1.45	Win2	0.6667000000000001	n/a	Yes	2.784	n/a	5.0	GoodResponse	1	0.035	395.9	7	41	Feedback	Win	True
398.314	2.784	Win2	0.6667000000000001	n/a	Yes	2.784	n/a	n/a	GoodResponse	1	0.0	n/a	7	41	ISIslide	Win	True
401.13	0.25	Control	0.6744	0.0	Yes	2.92	0.03	n/a	GoodResponse	0	n/a	n/a	7	42	Cue	Neutral	True
401.38	3.85	Control	0.6744	0.0	Yes	2.92	0.0	n/a	GoodResponse	0	n/a	n/a	7	42	Fixation	Neutral	True
405.228	0.29	Control	0.6744	0.002	Yes	2.92	-0.002	2.0	GoodResponse	0	0.233	404.461	7	42	Target	Neutral	True
405.461	0.3	Control	0.6744	0.002	Yes	2.92	-0.002	2.0	GoodResponse	0	0.233	n/a	7	42	ButtonPress	Neutral	True
405.528	0.41	Control	0.6744	n/a	Yes	2.92	n/a	n/a	GoodResponse	0	n/a	n/a	7	42	Blank	Neutral	True
405.928	1.45	Control	0.6744	n/a	Yes	2.92	n/a	5.0	GoodResponse	0	0.045	404.973	7	42	Feedback	Neutral	True
407.378	2.92	Control	0.6744	n/a	Yes	2.92	n/a	n/a	GoodResponse	0	0.0	n/a	7	42	ISIslide	Neutral	True
410.327	0.25	Win2	0.6818000000000001	0.0	Yes	3.173	0.027	n/a	GoodResponse	1	n/a	n/a	8	43	Cue	Win	True
410.576	4.0	Win2	0.6818000000000001	0.001	Yes	3.173	-0.001	n/a	GoodResponse	1	n/a	n/a	8	43	Fixation	Win	True
414.575	0.28	Win2	0.6818000000000001	0.002	Yes	3.173	-0.002	2.0	GoodResponse	1	0.213	413.788	8	43	Target	Win	True
414.788	0.3	Win2	0.6818000000000001	0.002	Yes	3.173	-0.002	2.0	GoodResponse	1	0.213	n/a	8	43	ButtonPress	Win	True
414.858	0.42	Win2	0.6818000000000001	n/a	Yes	3.173	n/a	n/a	GoodResponse	1	n/a	n/a	8	43	Blank	Win	True
415.275	1.45	Win2	0.6818000000000001	n/a	Yes	3.173	n/a	5.0	GoodResponse	1	0.015	414.29	8	43	Feedback	Win	True
416.724	3.173	Win2	0.6818000000000001	n/a	Yes	3.173	n/a	n/a	GoodResponse	1	0.0	n/a	8	43	ISIslide	Win	True
419.923	0.25	Win2	0.6889	0.0	Yes	2.977	0.023	n/a	GoodResponse	1	n/a	n/a	9	44	Cue	Win	True
420.173	4.0	Win2	0.6889	0.0	Yes	2.977	0.0	n/a	GoodResponse	1	n/a	n/a	9	44	Fixation	Win	True
424.172	0.27	Win2	0.6889	0.001	Yes	2.977	-0.001	2.0	GoodResponse	1	0.208	423.38	9	44	Target	Win	True
424.38	0.3	Win2	0.6889	0.001	Yes	2.977	-0.001	2.0	GoodResponse	1	0.208	n/a	9	44	ButtonPress	Win	True
424.455	0.43	Win2	0.6889	n/a	Yes	2.977	n/a	n/a	GoodResponse	1	n/a	n/a	9	44	Blank	Win	True
424.872	1.45	Win2	0.6889	n/a	Yes	2.977	n/a	5.0	GoodResponse	1	0.027	423.899	9	44	Feedback	Win	True
426.321	2.977	Win2	0.6889	n/a	Yes	2.977	n/a	n/a	GoodResponse	1	0.0	n/a	9	44	ISIslide	Win	True
429.32	0.25	Control	0.6957	0.0	Yes	2.88	0.02	n/a	GoodResponse	0	n/a	n/a	9	45	Cue	Neutral	True
429.57	4.1	Control	0.6957	0.0	Yes	2.88	0.0	n/a	GoodResponse	0	n/a	n/a	9	45	Fixation	Neutral	True
433.668	0.26	Control	0.6957	0.002	Yes	2.88	-0.002	2.0	GoodResponse	0	0.201	432.869	9	45	Target	Neutral	True
433.869	0.3	Control	0.6957	0.002	Yes	2.88	-0.002	2.0	GoodResponse	0	0.201	n/a	9	45	ButtonPress	Neutral	True
433.935	0.44	Control	0.6957	n/a	Yes	2.88	n/a	n/a	GoodResponse	0	n/a	n/a	9	45	Blank	Neutral	True
434.368	1.45	Control	0.6957	n/a	Yes	2.88	n/a	5.0	GoodResponse	0	0.043	433.411	9	45	Feedback	Neutral	True
435.818	2.88	Control	0.6957	n/a	Yes	2.88	n/a	n/a	GoodResponse	0	0.0	n/a	9	45	ISIslide	Neutral	True
438.717	0.25	Lose2	0.7021	0.0	Yes	3.383	0.017	n/a	GoodResponse	0	n/a	n/a	9	46	Cue	AvoidedLoss	True
438.967	4.0	Lose2	0.7021	0.0	Yes	3.383	0.0	n/a	GoodResponse	0	n/a	n/a	9	46	Fixation	AvoidedLoss	True
442.965	0.25	Lose2	0.7021	0.002	Yes	3.383	-0.002	2.0	GoodResponse	0	0.246	442.211	9	46	Target	AvoidedLoss	True
443.211	0.3	Lose2	0.7021	0.002	Yes	3.383	-0.002	2.0	GoodResponse	0	0.246	n/a	9	46	ButtonPress	AvoidedLoss	True
443.215	0.45	Lose2	0.7021	n/a	Yes	3.383	n/a	n/a	GoodResponse	0	n/a	n/a	9	46	Blank	AvoidedLoss	True
443.665	1.45	Lose2	0.7021	n/a	Yes	3.383	n/a	5.0	GoodResponse	0	0.015	442.68	9	46	Feedback	AvoidedLoss	True
445.115	3.383	Lose2	0.7021	n/a	Yes	3.383	n/a	n/a	GoodResponse	0	0.0	n/a	9	46	ISIslide	AvoidedLoss	True
448.513	0.25	Lose2	0.6875	0.0	No	2.687	0.013	n/a	NoResponse	-1	n/a	n/a	8	47	Cue	Loss	True
448.763	4.0	Lose2	0.6875	0.0	No	2.687	0.0	n/a	NoResponse	-1	n/a	n/a	8	47	Fixation	Loss	True
452.762	0.24	Lose2	0.6875	0.001	No	2.687	-0.001	2.0	NoResponse	-1	0.279	452.041	8	47	Target	Loss	True
453.012	0.46	Lose2	0.6875	n/a	No	2.687	n/a	n/a	NoResponse	-1	n/a	n/a	8	47	Blank	Loss	True
453.041	0.3	Lose2	0.6875	0.001	No	2.687	-0.001	2.0	NoResponse	-1	0.279	n/a	8	47	ButtonPress	Loss	True
453.462	1.45	Lose2	0.6875	n/a	No	2.687	n/a	5.0	NoResponse	-1	0.023	452.485	8	47	Feedback	Loss	True
454.911	2.687	Lose2	0.6875	n/a	No	2.687	n/a	n/a	NoResponse	-1	0.0	n/a	8	47	ISIslide	Loss	True
457.627	0.25	Lose2	0.6939	0.0	Yes	3.023	0.027	n/a	GoodResponse	0	n/a	n/a	8	48	Cue	AvoidedLoss	True
457.877	3.95	Lose2	0.6939	0.0	Yes	3.023	0.0	n/a	GoodResponse	0	n/a	n/a	8	48	Fixation	AvoidedLoss	True
461.825	0.23	Lose2	0.6939	0.002	Yes	3.023	-0.002	2.0	GoodResponse	0	0.2	461.025	8	48	Target	AvoidedLoss	True
462.025	0.3	Lose2	0.6939	0.002	Yes	3.023	-0.002	2.0	GoodResponse	0	0.2	n/a	8	48	ButtonPress	AvoidedLoss	True
462.059	0.47	Lose2	0.6939	n/a	Yes	3.023	n/a	n/a	GoodResponse	0	n/a	n/a	8	48	Blank	AvoidedLoss	True
462.525	1.45	Lose2	0.6939	n/a	Yes	3.023	n/a	5.0	GoodResponse	0	0.033	461.558	8	48	Feedback	AvoidedLoss	True
463.975	3.023	Lose2	0.6939	n/a	Yes	3.023	n/a	n/a	GoodResponse	0	0.0	n/a	8	48	ISIslide	AvoidedLoss	True
467.024	0.25	Control	0.68	0.0	No	2.876	0.024	n/a	NoResponse	0	n/a	n/a	8	49	Cue	Neutral	True
467.274	4.0	Control	0.68	0.0	No	2.876	0.0	n/a	NoResponse	0	n/a	n/a	8	49	Fixation	Neutral	True
471.272	0.22	Control	0.68	0.002	No	2.876	-0.002	2.0	NoResponse	0	0.253	470.525	8	49	Target	Neutral	True
471.505	0.48	Control	0.68	n/a	No	2.876	n/a	n/a	NoResponse	0	n/a	n/a	8	49	Blank	Neutral	True
471.525	0.3	Control	0.68	0.002	No	2.876	-0.002	2.0	NoResponse	0	0.253	n/a	8	49	ButtonPress	Neutral	True
471.972	1.45	Control	0.68	n/a	No	2.876	n/a	5.0	NoResponse	0	0.001	470.973	8	49	Feedback	Neutral	True
473.421	2.876	Control	0.68	n/a	No	2.876	n/a	n/a	NoResponse	0	0.0	n/a	8	49	ISIslide	Neutral	True
476.32	0.25	Control	0.6667000000000001	0.001	No	2.78	0.02	n/a	NoResponse	0	n/a	n/a	8	50	Cue	Neutral	True
476.57	4.0	Control	0.6667000000000001	0.0	No	2.78	0.0	n/a	NoResponse	0	n/a	n/a	8	50	Fixation	Neutral	True
480.569	0.21	Control	0.6667000000000001	0.001	No	2.78	-0.001	2.0	NoResponse	0	0.276	479.845	8	50	Target	Neutral	True
480.786	0.49	Control	0.6667000000000001	n/a	No	2.78	n/a	n/a	NoResponse	0	n/a	n/a	8	50	Blank	Neutral	True
480.845	0.3	Control	0.6667000000000001	0.001	No	2.78	-0.001	2.0	NoResponse	0	0.276	n/a	8	50	ButtonPress	Neutral	True
481.269	1.45	Control	0.6667000000000001	n/a	No	2.78	n/a	5.0	NoResponse	0	0.02	480.289	8	50	Feedback	Neutral	True
482.718	2.78	Control	0.6667000000000001	n/a	No	2.78	n/a	n/a	NoResponse	0	0.0	n/a	8	50	ISIslide	Neutral	True
485.517	0.25	Control	0.6537999999999999	0.0	No	2.733	0.017	n/a	NoResponse	0	n/a	n/a	8	51	Cue	Neutral	True
485.767	3.95	Control	0.6537999999999999	0.0	No	2.733	0.0	2.0	NoResponse	0	3.872	488.639	8	51	Fixation	Neutral	True
489.639	0.3	Control	0.6537999999999999	0.0	No	2.733	0.0	2.0	NoResponse	0	3.872	n/a	8	51	ButtonPress	Neutral	True
489.716	0.2	Control	0.6537999999999999	0.001	No	2.733	-0.001	n/a	NoResponse	0	n/a	n/a	8	51	Target	Neutral	True
489.916	0.5	Control	0.6537999999999999	n/a	No	2.733	n/a	n/a	NoResponse	0	n/a	n/a	8	51	Blank	Neutral	True
490.416	1.45	Control	0.6537999999999999	n/a	No	2.733	n/a	5.0	NoResponse	0	0.044	489.46	8	51	Feedback	Neutral	True
491.865	2.733	Control	0.6537999999999999	n/a	No	2.733	n/a	n/a	NoResponse	0	0.0	n/a	8	51	ISIslide	Neutral	True
494.614	0.25	Control	0.6415000000000001	0.0	No	2.636	0.014	n/a	NoResponse	0	n/a	n/a	8	52	Cue	Neutral	True
494.864	4.05	Control	0.6415000000000001	0.0	No	2.636	0.0	n/a	NoResponse	0	n/a	n/a	8	52	Fixation	Neutral	True
498.913	0.21	Control	0.6415000000000001	0.001	No	2.636	-0.001	2.0	NoResponse	0	0.222	498.135	8	52	Target	Neutral	True
499.129	0.49	Control	0.6415000000000001	n/a	No	2.636	n/a	n/a	NoResponse	0	n/a	n/a	8	52	Blank	Neutral	True
499.135	0.3	Control	0.6415000000000001	0.001	No	2.636	-0.001	2.0	NoResponse	0	0.222	n/a	8	52	ButtonPress	Neutral	True
499.612	1.45	Control	0.6415000000000001	n/a	No	2.636	n/a	5.0	NoResponse	0	0.019	498.631	8	52	Feedback	Neutral	True
501.062	2.636	Control	0.6415000000000001	n/a	No	2.636	n/a	n/a	NoResponse	0	0.0	n/a	8	52	ISIslide	Neutral	True
503.728	0.25	Win2	0.6296	0.0	No	2.922	0.028	n/a	NoResponse	0	n/a	n/a	8	53	Cue	MissedWin	True
503.977	4.05	Win2	0.6296	0.001	No	2.922	-0.001	n/a	NoResponse	0	n/a	n/a	8	53	Fixation	MissedWin	True
508.026	0.22	Win2	0.6296	0.002	No	2.922	-0.002	2.0	NoResponse	0	0.244	507.27	8	53	Target	MissedWin	True
508.259	0.48	Win2	0.6296	n/a	No	2.922	n/a	n/a	NoResponse	0	n/a	n/a	8	53	Blank	MissedWin	True
508.27	0.3	Win2	0.6296	0.002	No	2.922	-0.002	2.0	NoResponse	0	0.244	n/a	8	53	ButtonPress	MissedWin	True
508.726	1.45	Win2	0.6296	n/a	No	2.922	n/a	5.0	NoResponse	0	0.027	507.753	8	53	Feedback	MissedWin	True
510.175	2.922	Win2	0.6296	n/a	No	2.922	n/a	n/a	NoResponse	0	0.0	n/a	8	53	ISIslide	MissedWin	True
513.124	0.25	Win2	0.6364	0.0	Yes	2.726	0.024	n/a	GoodResponse	1	n/a	n/a	9	54	Cue	Win	True
513.374	3.95	Win2	0.6364	0.0	Yes	2.726	0.0	n/a	GoodResponse	1	n/a	n/a	9	54	Fixation	Win	True
517.323	0.23	Win2	0.6364	0.001	Yes	2.726	-0.001	2.0	GoodResponse	1	0.187	516.51	9	54	Target	Win	True
517.51	0.3	Win2	0.6364	0.001	Yes	2.726	-0.001	2.0	GoodResponse	1	0.187	n/a	9	54	ButtonPress	Win	True
517.556	0.47	Win2	0.6364	n/a	Yes	2.726	n/a	n/a	GoodResponse	1	n/a	n/a	9	54	Blank	Win	True
518.023	1.45	Win2	0.6364	n/a	Yes	2.726	n/a	5.0	GoodResponse	1	0.047	517.07	9	54	Feedback	Win	True
519.472	2.726	Win2	0.6364	n/a	Yes	2.726	n/a	n/a	GoodResponse	1	0.0	n/a	9	54	ISIslide	Win	True
522.221	0.25	Control	0.6429	0.0	Yes	3.029	0.021	n/a	GoodResponse	0	n/a	n/a	9	55	Cue	Neutral	True
522.471	3.95	Control	0.6429	0.0	Yes	3.029	0.0	n/a	GoodResponse	0	n/a	n/a	9	55	Fixation	Neutral	True
526.42	0.24	Control	0.6429	0.001	Yes	3.029	-0.001	2.0	GoodResponse	0	0.205	525.625	9	55	Target	Neutral	True
526.625	0.3	Control	0.6429	0.001	Yes	3.029	-0.001	2.0	GoodResponse	0	0.205	n/a	9	55	ButtonPress	Neutral	True
526.67	0.46	Control	0.6429	n/a	Yes	3.029	n/a	n/a	GoodResponse	0	n/a	n/a	9	55	Blank	Neutral	True
527.119	1.45	Control	0.6429	n/a	Yes	3.029	n/a	5.0	GoodResponse	0	0.024	526.143	9	55	Feedback	Neutral	True
528.569	3.029	Control	0.6429	n/a	Yes	3.029	n/a	n/a	GoodResponse	0	0.0	n/a	9	55	ISIslide	Neutral	True
531.618	0.25	Control	0.6491	0.0	Yes	2.832	0.018	n/a	GoodResponse	0	n/a	n/a	9	56	Cue	Neutral	True
531.868	3.95	Control	0.6491	0.0	Yes	2.832	0.0	n/a	GoodResponse	0	n/a	n/a	9	56	Fixation	Neutral	True
535.816	0.25	Control	0.6491	0.002	Yes	2.832	-0.002	2.0	GoodResponse	0	0.248	535.064	9	56	Target	Neutral	True
536.064	0.3	Control	0.6491	0.002	Yes	2.832	-0.002	2.0	GoodResponse	0	0.248	n/a	9	56	ButtonPress	Neutral	True
536.066	0.45	Control	0.6491	n/a	Yes	2.832	n/a	n/a	GoodResponse	0	n/a	n/a	9	56	Blank	Neutral	True
536.516	1.45	Control	0.6491	n/a	Yes	2.832	n/a	5.0	GoodResponse	0	0.041	535.557	9	56	Feedback	Neutral	True
537.966	2.832	Control	0.6491	n/a	Yes	2.832	n/a	n/a	GoodResponse	0	0.0	n/a	9	56	ISIslide	Neutral	True
540.815	0.25	Control	0.6552	0.0	Yes	3.485	0.015	n/a	GoodResponse	0	n/a	n/a	9	57	Cue	Neutral	True
541.065	4.0	Control	0.6552	0.0	Yes	3.485	0.0	n/a	GoodResponse	0	n/a	n/a	9	57	Fixation	Neutral	True
545.063	0.26	Control	0.6552	0.002	Yes	3.485	-0.002	2.0	GoodResponse	0	0.212	544.275	9	57	Target	Neutral	True
545.275	0.3	Control	0.6552	0.002	Yes	3.485	-0.002	2.0	GoodResponse	0	0.212	n/a	9	57	ButtonPress	Neutral	True
545.33	0.44	Control	0.6552	n/a	Yes	3.485	n/a	n/a	GoodResponse	0	n/a	n/a	9	57	Blank	Neutral	True
545.763	1.45	Control	0.6552	n/a	Yes	3.485	n/a	5.0	GoodResponse	0	0.014	544.777	9	57	Feedback	Neutral	True
547.213	3.485	Control	0.6552	n/a	Yes	3.485	n/a	n/a	GoodResponse	0	0.0	n/a	9	57	ISIslide	Neutral	True
550.728	0.25	Win2	0.6609999999999999	0.0	Yes	2.722	0.028	n/a	GoodResponse	1	n/a	n/a	10	58	Cue	Win	True
550.978	4.05	Win2	0.6609999999999999	0.0	Yes	2.722	0.0	n/a	GoodResponse	1	n/a	n/a	10	58	Fixation	Win	True
555.027	0.26	Win2	0.6609999999999999	0.001	Yes	2.722	-0.001	2.0	GoodResponse	1	0.234	554.261	10	58	Target	Win	True
555.261	0.3	Win2	0.6609999999999999	0.001	Yes	2.722	-0.001	2.0	GoodResponse	1	0.234	n/a	10	58	ButtonPress	Win	True
555.293	0.44	Win2	0.6609999999999999	n/a	Yes	2.722	n/a	n/a	GoodResponse	1	n/a	n/a	10	58	Blank	Win	True
555.726	1.45	Win2	0.6609999999999999	n/a	Yes	2.722	n/a	5.0	GoodResponse	1	0.002	554.728	10	58	Feedback	Win	True
557.176	2.722	Win2	0.6609999999999999	n/a	Yes	2.722	n/a	n/a	GoodResponse	1	0.0	n/a	10	58	ISIslide	Win	True
559.925	0.25	Lose2	0.6667000000000001	0.0	Yes	2.675	0.025	n/a	GoodResponse	0	n/a	n/a	10	59	Cue	AvoidedLoss	True
560.175	4.0	Lose2	0.6667000000000001	0.0	Yes	2.675	0.0	n/a	GoodResponse	0	n/a	n/a	10	59	Fixation	AvoidedLoss	True
564.173	0.26	Lose2	0.6667000000000001	0.002	Yes	2.675	-0.002	2.0	GoodResponse	0	0.185	563.358	10	59	Target	AvoidedLoss	True
564.358	0.3	Lose2	0.6667000000000001	0.002	Yes	2.675	-0.002	2.0	GoodResponse	0	0.185	n/a	10	59	ButtonPress	AvoidedLoss	True
564.44	0.44	Lose2	0.6667000000000001	n/a	Yes	2.675	n/a	n/a	GoodResponse	0	n/a	n/a	10	59	Blank	AvoidedLoss	True
564.873	1.45	Lose2	0.6667000000000001	n/a	Yes	2.675	n/a	5.0	GoodResponse	0	0.026	563.899	10	59	Feedback	AvoidedLoss	True
566.323	2.675	Lose2	0.6667000000000001	n/a	Yes	2.675	n/a	n/a	GoodResponse	0	0.0	n/a	10	59	ISIslide	AvoidedLoss	True
569.022	0.25	Control	0.6720999999999999	0.0	Yes	2.678	0.022	n/a	GoodResponse	0	n/a	n/a	10	60	Cue	Neutral	True
569.272	4.0	Control	0.6720999999999999	0.0	Yes	2.678	0.0	n/a	GoodResponse	0	n/a	n/a	10	60	Fixation	Neutral	True
573.27	0.25	Control	0.6720999999999999	0.002	Yes	2.678	-0.002	2.0	GoodResponse	0	0.226	572.496	10	60	Target	Neutral	True
573.496	0.3	Control	0.6720999999999999	0.002	Yes	2.678	-0.002	2.0	GoodResponse	0	0.226	n/a	10	60	ButtonPress	Neutral	True
573.52	0.45	Control	0.6720999999999999	n/a	Yes	2.678	n/a	n/a	GoodResponse	0	n/a	n/a	10	60	Blank	Neutral	True
573.97	1.45	Control	0.6720999999999999	n/a	Yes	2.678	n/a	5.0	GoodResponse	0	0.002	572.972	10	60	Feedback	Neutral	True
575.419	2.678	Control	0.6720999999999999	n/a	Yes	2.678	n/a	n/a	GoodResponse	0	0.0	n/a	10	60	ISIslide	Neutral	True
578.119	0.25	Lose2	0.6774	0.0	Yes	2.981	0.019	n/a	GoodResponse	0	n/a	n/a	10	61	Cue	AvoidedLoss	True
578.368	4.0	Lose2	0.6774	0.001	Yes	2.981	-0.001	n/a	GoodResponse	0	n/a	n/a	10	61	Fixation	AvoidedLoss	True
582.367	0.24	Lose2	0.6774	0.002	Yes	2.981	-0.002	2.0	GoodResponse	0	0.2	581.567	10	61	Target	AvoidedLoss	True
582.567	0.3	Lose2	0.6774	0.002	Yes	2.981	-0.002	2.0	GoodResponse	0	0.2	n/a	10	61	ButtonPress	AvoidedLoss	True
582.617	0.46	Lose2	0.6774	n/a	Yes	2.981	n/a	n/a	GoodResponse	0	n/a	n/a	10	61	Blank	AvoidedLoss	True
583.067	1.45	Lose2	0.6774	n/a	Yes	2.981	n/a	5.0	GoodResponse	0	0.027	582.094	10	61	Feedback	AvoidedLoss	True
584.516	2.981	Lose2	0.6774	n/a	Yes	2.981	n/a	n/a	GoodResponse	0	0.0	n/a	10	61	ISIslide	AvoidedLoss	True
587.515	0.25	Lose2	0.6667000000000001	0.0	No	2.885	0.015	n/a	NoResponse	-1	n/a	n/a	9	62	Cue	Loss	True
587.765	3.9	Lose2	0.6667000000000001	0.0	No	2.885	0.0	n/a	NoResponse	-1	n/a	n/a	9	62	Fixation	Loss	True
591.664	0.23	Lose2	0.6667000000000001	0.001	No	2.885	-0.001	2.0	NoResponse	-1	0.245	590.909	9	62	Target	Loss	True
591.897	0.47	Lose2	0.6667000000000001	n/a	No	2.885	n/a	n/a	NoResponse	-1	n/a	n/a	9	62	Blank	Loss	True
591.909	0.3	Lose2	0.6667000000000001	0.001	No	2.885	-0.001	2.0	NoResponse	-1	0.245	n/a	9	62	ButtonPress	Loss	True
592.364	1.45	Lose2	0.6667000000000001	n/a	No	2.885	n/a	5.0	NoResponse	-1	0.048	591.412	9	62	Feedback	Loss	True
593.813	2.885	Lose2	0.6667000000000001	n/a	No	2.885	n/a	n/a	NoResponse	-1	0.0	n/a	9	62	ISIslide	Loss	True
596.712	0.25	Lose2	0.6718999999999999	0.0	Yes	2.638	0.012	n/a	GoodResponse	0	n/a	n/a	9	63	Cue	AvoidedLoss	True
596.962	4.05	Lose2	0.6718999999999999	0.0	Yes	2.638	0.0	n/a	GoodResponse	0	n/a	n/a	9	63	Fixation	AvoidedLoss	True
601.011	0.22	Lose2	0.6718999999999999	0.001	Yes	2.638	-0.001	2.0	GoodResponse	0	0.2	600.211	9	63	Target	AvoidedLoss	True
601.211	0.3	Lose2	0.6718999999999999	0.001	Yes	2.638	-0.001	2.0	GoodResponse	0	0.2	n/a	9	63	ButtonPress	AvoidedLoss	True
601.244	0.48	Lose2	0.6718999999999999	n/a	Yes	2.638	n/a	n/a	GoodResponse	0	n/a	n/a	9	63	Blank	AvoidedLoss	True
601.71	1.45	Lose2	0.6718999999999999	n/a	Yes	2.638	n/a	5.0	GoodResponse	0	0.018	600.728	9	63	Feedback	AvoidedLoss	True
603.16	2.638	Lose2	0.6718999999999999	n/a	Yes	2.638	n/a	n/a	GoodResponse	0	0.0	n/a	9	63	ISIslide	AvoidedLoss	True
605.826	0.25	Win2	0.6615000000000001	0.0	No	3.124	0.026	n/a	NoResponse	0	n/a	n/a	9	64	Cue	MissedWin	True
606.076	4.15	Win2	0.6615000000000001	0.0	No	3.124	0.0	n/a	NoResponse	0	n/a	n/a	9	64	Fixation	MissedWin	True
610.224	0.21	Win2	0.6615000000000001	0.002	No	3.124	-0.002	2.0	NoResponse	0	0.257	609.481	9	64	Target	MissedWin	True
610.441	0.49	Win2	0.6615000000000001	n/a	No	3.124	n/a	n/a	NoResponse	0	n/a	n/a	9	64	Blank	MissedWin	True
610.481	0.3	Win2	0.6615000000000001	0.002	No	3.124	-0.002	2.0	NoResponse	0	0.257	n/a	9	64	ButtonPress	MissedWin	True
610.924	1.45	Win2	0.6615000000000001	n/a	No	3.124	n/a	5.0	NoResponse	0	0.023	609.947	9	64	Feedback	MissedWin	True
612.373	3.124	Win2	0.6615000000000001	n/a	No	3.124	n/a	n/a	NoResponse	0	0.0	n/a	9	64	ISIslide	MissedWin	True
615.522	0.25	Control	0.6667000000000001	0.0	Yes	2.778	0.022	n/a	GoodResponse	0	n/a	n/a	9	65	Cue	Neutral	True
615.772	4.0	Control	0.6667000000000001	0.0	Yes	2.778	0.0	n/a	GoodResponse	0	n/a	n/a	9	65	Fixation	Neutral	True
619.771	0.21	Control	0.6667000000000001	0.001	Yes	2.778	-0.001	2.0	GoodResponse	0	0.196	618.967	9	65	Target	Neutral	True
619.967	0.3	Control	0.6667000000000001	0.001	Yes	2.778	-0.001	2.0	GoodResponse	0	0.196	n/a	9	65	ButtonPress	Neutral	True
619.987	0.49	Control	0.6667000000000001	n/a	Yes	2.778	n/a	n/a	GoodResponse	0	n/a	n/a	9	65	Blank	Neutral	True
620.471	1.45	Control	0.6667000000000001	n/a	Yes	2.778	n/a	5.0	GoodResponse	0	0.037	619.508	9	65	Feedback	Neutral	True
621.92	2.778	Control	0.6667000000000001	n/a	Yes	2.778	n/a	n/a	GoodResponse	0	0.0	n/a	9	65	ISIslide	Neutral	True
624.719	0.25	Win2	0.6567000000000001	0.0	No	2.781	0.019	n/a	PrematurePress	0	n/a	n/a	9	66	Cue	MissedWin	True
624.969	3.9	Win2	0.6567000000000001	0.0	No	2.781	0.0	n/a	PrematurePress	0	n/a	n/a	9	66	Fixation	MissedWin	True
628.868	0.2	Win2	0.6567000000000001	0.001	No	2.781	-0.001	2.0	PrematurePress	0	0.008	627.876	9	66	Target	MissedWin	True
628.876	0.3	Win2	0.6567000000000001	0.001	No	2.781	-0.001	2.0	PrematurePress	0	0.008	n/a	9	66	ButtonPress	MissedWin	True
629.068	0.5	Win2	0.6567000000000001	n/a	No	2.781	n/a	n/a	PrematurePress	0	n/a	n/a	9	66	Blank	MissedWin	True
629.567	1.45	Win2	0.6567000000000001	n/a	No	2.781	n/a	5.0	PrematurePress	0	0.015	628.582	9	66	Feedback	MissedWin	True
631.017	2.781	Win2	0.6567000000000001	n/a	No	2.781	n/a	n/a	PrematurePress	0	0.0	n/a	9	66	ISIslide	MissedWin	True
633.816	0.25	Control	0.6470999999999999	0.0	No	2.734	0.016	n/a	NoResponse	0	n/a	n/a	9	67	Cue	Neutral	False
634.066	3.95	Control	0.6470999999999999	0.0	No	2.734	0.0	n/a	NoResponse	0	n/a	n/a	9	67	Fixation	Neutral	False
638.014	0.2	Control	0.6470999999999999	0.002	No	2.734	-0.002	n/a	NoResponse	0	n/a	n/a	9	67	Target	Neutral	False
638.214	0.5	Control	0.6470999999999999	n/a	No	2.734	n/a	n/a	NoResponse	0	n/a	n/a	9	67	Blank	Neutral	False
638.714	1.45	Control	0.6470999999999999	n/a	No	2.734	n/a	5.0	NoResponse	0	0.039	637.753	9	67	Feedback	Neutral	False
640.164	2.734	Control	0.6470999999999999	n/a	No	2.734	n/a	n/a	NoResponse	0	0.0	n/a	9	67	ISIslide	Neutral	False
642.913	0.25	Win2	0.6377	0.0	No	3.087	0.013	n/a	NoResponse	0	n/a	n/a	9	68	Cue	MissedWin	True
643.163	4.0	Win2	0.6377	0.0	No	3.087	0.0	n/a	NoResponse	0	n/a	n/a	9	68	Fixation	MissedWin	True
647.161	0.21	Win2	0.6377	0.002	No	3.087	-0.002	2.0	NoResponse	0	0.232	646.393	9	68	Target	MissedWin	True
647.378	0.49	Win2	0.6377	n/a	No	3.087	n/a	n/a	NoResponse	0	n/a	n/a	9	68	Blank	MissedWin	True
647.393	0.3	Win2	0.6377	0.002	No	3.087	-0.002	2.0	NoResponse	0	0.232	n/a	9	68	ButtonPress	MissedWin	True
647.861	1.45	Win2	0.6377	n/a	No	3.087	n/a	5.0	NoResponse	0	0.014	646.875	9	68	Feedback	MissedWin	True
649.311	3.087	Win2	0.6377	n/a	No	3.087	n/a	n/a	NoResponse	0	0.0	n/a	9	68	ISIslide	MissedWin	True
652.426	0.25	Win2	0.6286	0.0	No	3.224	0.026	n/a	NoResponse	0	n/a	n/a	9	69	Cue	MissedWin	True
652.676	3.95	Win2	0.6286	0.0	No	3.224	0.0	n/a	NoResponse	0	n/a	n/a	9	69	Fixation	MissedWin	True
656.625	0.22	Win2	0.6286	0.001	No	3.224	-0.001	2.0	NoResponse	0	0.255	655.88	9	69	Target	MissedWin	True
656.858	0.48	Win2	0.6286	n/a	No	3.224	n/a	n/a	NoResponse	0	n/a	n/a	9	69	Blank	MissedWin	True
656.88	0.3	Win2	0.6286	0.001	No	3.224	-0.001	2.0	NoResponse	0	0.255	n/a	9	69	ButtonPress	MissedWin	True
657.324	1.45	Win2	0.6286	n/a	No	3.224	n/a	5.0	NoResponse	0	0.014	656.338	9	69	Feedback	MissedWin	True
658.774	3.224	Win2	0.6286	n/a	No	3.224	n/a	n/a	NoResponse	0	0.0	n/a	9	69	ISIslide	MissedWin	True
662.023	0.25	Lose2	0.6197	0.0	No	3.027	0.023	n/a	NoResponse	-1	n/a	n/a	8	70	Cue	Loss	True
662.273	4.05	Lose2	0.6197	0.0	No	3.027	0.0	n/a	NoResponse	-1	n/a	n/a	8	70	Fixation	Loss	True
666.321	0.23	Lose2	0.6197	0.002	No	3.027	-0.002	2.0	NoResponse	-1	0.258	665.579	8	70	Target	Loss	True
666.555	0.47	Lose2	0.6197	n/a	No	3.027	n/a	n/a	NoResponse	-1	n/a	n/a	8	70	Blank	Loss	True
666.579	0.3	Lose2	0.6197	0.002	No	3.027	-0.002	2.0	NoResponse	-1	0.258	n/a	8	70	ButtonPress	Loss	True
667.021	1.45	Lose2	0.6197	n/a	No	3.027	n/a	5.0	NoResponse	-1	0.024	666.045	8	70	Feedback	Loss	True
668.471	3.027	Lose2	0.6197	n/a	No	3.027	n/a	n/a	NoResponse	-1	0.0	n/a	8	70	ISIslide	Loss	True
671.52	0.25	Win2	0.625	0.0	Yes	2.73	0.02	n/a	GoodResponse	1	n/a	n/a	9	71	Cue	Win	True
671.769	4.05	Win2	0.625	0.001	Yes	2.73	-0.001	n/a	GoodResponse	1	n/a	n/a	9	71	Fixation	Win	True
675.818	0.24	Win2	0.625	0.002	Yes	2.73	-0.002	2.0	GoodResponse	1	0.2	675.018	9	71	Target	Win	True
676.018	0.3	Win2	0.625	0.002	Yes	2.73	-0.002	2.0	GoodResponse	1	0.2	n/a	9	71	ButtonPress	Win	True
676.068	0.46	Win2	0.625	n/a	Yes	2.73	n/a	n/a	GoodResponse	1	n/a	n/a	9	71	Blank	Win	True
676.518	1.45	Win2	0.625	n/a	Yes	2.73	n/a	5.0	GoodResponse	1	0.039	675.557	9	71	Feedback	Win	True
677.967	2.73	Win2	0.625	n/a	Yes	2.73	n/a	n/a	GoodResponse	1	0.0	n/a	9	71	ISIslide	Win	True
680.716	0.25	Win2	0.6301	0.0	Yes	2.784	0.016	n/a	GoodResponse	1	n/a	n/a	10	72	Cue	Win	True
680.966	4.1	Win2	0.6301	0.0	Yes	2.784	0.0	n/a	GoodResponse	1	n/a	n/a	10	72	Fixation	Win	True
685.065	0.25	Win2	0.6301	0.001	Yes	2.784	-0.001	2.0	GoodResponse	1	0.193	684.258	10	72	Target	Win	True
685.258	0.3	Win2	0.6301	0.001	Yes	2.784	-0.001	2.0	GoodResponse	1	0.193	n/a	10	72	ButtonPress	Win	True
685.315	0.45	Win2	0.6301	n/a	Yes	2.784	n/a	n/a	GoodResponse	1	n/a	n/a	10	72	Blank	Win	True
685.765	1.45	Win2	0.6301	n/a	Yes	2.784	n/a	5.0	GoodResponse	1	0.012	684.777	10	72	Feedback	Win	True
687.214	2.784	Win2	0.6301	n/a	Yes	2.784	n/a	n/a	GoodResponse	1	0.0	n/a	10	72	ISIslide	Win	True
690.013	0.25	Win2	0.6351	0.0	Yes	2.687	0.013	n/a	GoodResponse	1	n/a	n/a	11	73	Cue	Win	True
690.263	4.0	Win2	0.6351	0.0	Yes	2.687	0.0	n/a	GoodResponse	1	n/a	n/a	11	73	Fixation	Win	True
694.262	0.26	Win2	0.6351	0.001	Yes	2.687	-0.001	2.0	GoodResponse	1	0.196	693.458	11	73	Target	Win	True
694.458	0.3	Win2	0.6351	0.001	Yes	2.687	-0.001	2.0	GoodResponse	1	0.196	n/a	11	73	ButtonPress	Win	True
694.528	0.44	Win2	0.6351	n/a	Yes	2.687	n/a	n/a	GoodResponse	1	n/a	n/a	11	73	Blank	Win	True
694.961	1.45	Win2	0.6351	n/a	Yes	2.687	n/a	5.0	GoodResponse	1	0.035	693.996	11	73	Feedback	Win	True
696.411	2.687	Win2	0.6351	n/a	Yes	2.687	n/a	n/a	GoodResponse	1	0.0	n/a	11	73	ISIslide	Win	True
699.127	0.25	Lose2	0.64	0.0	Yes	2.623	0.027	n/a	GoodResponse	0	n/a	n/a	11	74	Cue	AvoidedLoss	True
699.377	4.05	Lose2	0.64	0.0	Yes	2.623	0.0	n/a	GoodResponse	0	n/a	n/a	11	74	Fixation	AvoidedLoss	True
703.425	0.27	Lose2	0.64	0.002	Yes	2.623	-0.002	2.0	GoodResponse	0	0.22	702.645	11	74	Target	AvoidedLoss	True
703.645	0.3	Lose2	0.64	0.002	Yes	2.623	-0.002	2.0	GoodResponse	0	0.22	n/a	11	74	ButtonPress	AvoidedLoss	True
703.708	0.43	Lose2	0.64	n/a	Yes	2.623	n/a	n/a	GoodResponse	0	n/a	n/a	11	74	Blank	AvoidedLoss	True
704.125	1.45	Lose2	0.64	n/a	Yes	2.623	n/a	5.0	GoodResponse	0	0.042	703.167	11	74	Feedback	AvoidedLoss	True
705.574	2.623	Lose2	0.64	n/a	Yes	2.623	n/a	n/a	GoodResponse	0	0.0	n/a	11	74	ISIslide	AvoidedLoss	True
708.224	0.25	Lose2	0.6446999999999999	0.0	Yes	2.926	0.024	n/a	GoodResponse	0	n/a	n/a	11	75	Cue	AvoidedLoss	True
708.473	3.95	Lose2	0.6446999999999999	0.001	Yes	2.926	-0.001	n/a	GoodResponse	0	n/a	n/a	11	75	Fixation	AvoidedLoss	True
712.422	0.28	Lose2	0.6446999999999999	0.002	Yes	2.926	-0.002	2.0	GoodResponse	0	0.185	711.607	11	75	Target	AvoidedLoss	True
712.607	0.3	Lose2	0.6446999999999999	0.002	Yes	2.926	-0.002	2.0	GoodResponse	0	0.185	n/a	11	75	ButtonPress	AvoidedLoss	True
712.705	0.42	Lose2	0.6446999999999999	n/a	Yes	2.926	n/a	n/a	GoodResponse	0	n/a	n/a	11	75	Blank	AvoidedLoss	True
713.122	1.45	Lose2	0.6446999999999999	n/a	Yes	2.926	n/a	5.0	GoodResponse	0	0.021	712.143	11	75	Feedback	AvoidedLoss	True
714.571	2.926	Lose2	0.6446999999999999	n/a	Yes	2.926	n/a	n/a	GoodResponse	0	0.0	n/a	11	75	ISIslide	AvoidedLoss	True
717.52	0.25	Control	0.6494	0.0	Yes	3.23	0.02	n/a	GoodResponse	0	n/a	n/a	11	76	Cue	Neutral	True
717.77	4.05	Control	0.6494	0.0	Yes	3.23	0.0	n/a	GoodResponse	0	n/a	n/a	11	76	Fixation	Neutral	True
721.819	0.29	Control	0.6494	0.001	Yes	3.23	-0.001	2.0	GoodResponse	0	0.195	721.014	11	76	Target	Neutral	True
722.014	0.3	Control	0.6494	0.001	Yes	3.23	-0.001	2.0	GoodResponse	0	0.195	n/a	11	76	ButtonPress	Neutral	True
722.119	0.41	Control	0.6494	n/a	Yes	3.23	n/a	n/a	GoodResponse	0	n/a	n/a	11	76	Blank	Neutral	True
722.519	1.45	Control	0.6494	n/a	Yes	3.23	n/a	5.0	GoodResponse	0	0.038	721.557	11	76	Feedback	Neutral	True
723.968	3.23	Control	0.6494	n/a	Yes	3.23	n/a	n/a	GoodResponse	0	0.0	n/a	11	76	ISIslide	Neutral	True
727.217	0.25	Lose2	0.6537999999999999	0.0	Yes	2.583	0.017	n/a	GoodResponse	0	n/a	n/a	11	77	Cue	AvoidedLoss	True
727.467	3.95	Lose2	0.6537999999999999	0.0	Yes	2.583	0.0	n/a	GoodResponse	0	n/a	n/a	11	77	Fixation	AvoidedLoss	True
731.416	0.3	Lose2	0.6537999999999999	0.001	Yes	2.583	-0.001	2.0	GoodResponse	0	0.207	730.623	11	77	Target	AvoidedLoss	True
731.623	0.3	Lose2	0.6537999999999999	0.001	Yes	2.583	-0.001	2.0	GoodResponse	0	0.207	n/a	11	77	ButtonPress	AvoidedLoss	True
731.715	0.4	Lose2	0.6537999999999999	n/a	Yes	2.583	n/a	n/a	GoodResponse	0	n/a	n/a	11	77	Blank	AvoidedLoss	True
732.115	1.45	Lose2	0.6537999999999999	n/a	Yes	2.583	n/a	5.0	GoodResponse	0	0.004	731.119	11	77	Feedback	AvoidedLoss	True
733.565	2.583	Lose2	0.6537999999999999	n/a	Yes	2.583	n/a	n/a	GoodResponse	0	0.0	n/a	11	77	ISIslide	AvoidedLoss	True
