onset	duration	cue_type	current_mean_accuracy	duration_error	is_hit	isi_adjusted	onset_delay	response	response_type	reward	rt	rt_time	total_reward	trial_number	trial_phase	trial_type	one_press
11.104	0.25	Control	1.0	0.0	Yes	2.946	0.004	n/a	GoodResponse	0	n/a	n/a	0	0	Cue	Neutral	True
11.355	3.85	Control	1.0	0.0	Yes	2.946	0.001	n/a	GoodResponse	0	n/a	n/a	0	0	Fixation	Neutral	True
15.2	0.4	Control	1.0	0.004	Yes	2.946	-0.004	2.0	GoodResponse	0	0.204	14.404	0	0	Target	Neutral	True
15.404	0.3	Control	1.0	0.004	Yes	2.946	-0.004	2.0	GoodResponse	0	0.204	n/a	0	0	ButtonPress	Neutral	True
15.601	0.3	Control	1.0	n/a	Yes	2.946	n/a	n/a	GoodResponse	0	n/a	n/a	0	0	Blank	Neutral	True
15.902	1.45	Control	1.0	n/a	Yes	2.946	n/a	5.0	GoodResponse	0	0.025	14.927	0	0	Feedback	Neutral	True
17.356	2.946	Control	1.0	n/a	Yes	2.946	n/a	n/a	GoodResponse	0	0.0	n/a	0	0	ISIslide	Neutral	True
20.315	0.25	Lose2	1.0	0.0	Yes	2.785	0.015	n/a	GoodResponse	0	n/a	n/a	0	1	Cue	AvoidedLoss	True
20.566	4.0	Lose2	1.0	0.0	Yes	2.785	0.001	n/a	GoodResponse	0	n/a	n/a	0	1	Fixation	AvoidedLoss	True
24.561	0.39	Lose2	1.0	0.004	Yes	2.785	-0.004	2.0	GoodResponse	0	0.182	23.743	0	1	Target	AvoidedLoss	True
24.743	0.3	Lose2	1.0	0.004	Yes	2.785	-0.004	2.0	GoodResponse	0	0.182	n/a	0	1	ButtonPress	AvoidedLoss	True
24.962	0.31	Lose2	1.0	n/a	Yes	2.785	n/a	n/a	GoodResponse	0	n/a	n/a	0	1	Blank	AvoidedLoss	True
25.263	1.45	Lose2	1.0	n/a	Yes	2.785	n/a	5.0	GoodResponse	0	0.03	24.293	0	1	Feedback	AvoidedLoss	True
26.718	2.785	Lose2	1.0	n/a	Yes	2.785	n/a	n/a	GoodResponse	0	0.0	n/a	0	1	ISIslide	AvoidedLoss	True
29.526	0.25	Control	1.0	0.0	Yes	2.574	0.026	n/a	GoodResponse	0	n/a	n/a	0	2	Cue	Neutral	True
29.777	4.1	Control	1.0	0.0	Yes	2.574	0.001	n/a	GoodResponse	0	n/a	n/a	0	2	Fixation	Neutral	True
33.872	0.38	Control	1.0	0.004	Yes	2.574	-0.004	2.0	GoodResponse	0	0.152	33.024	0	2	Target	Neutral	True
34.024	0.3	Control	1.0	0.004	Yes	2.574	-0.004	2.0	GoodResponse	0	0.152	n/a	0	2	ButtonPress	Neutral	True
34.257	0.32	Control	1.0	n/a	Yes	2.574	n/a	n/a	GoodResponse	0	n/a	n/a	0	2	Blank	Neutral	True
34.574	1.45	Control	1.0	n/a	Yes	2.574	n/a	5.0	GoodResponse	0	0.036	33.61	0	2	Feedback	Neutral	True
36.029	2.574	Control	1.0	n/a	Yes	2.574	n/a	n/a	GoodResponse	0	0.0	n/a	0	2	ISIslide	Neutral	True
38.62	0.25	Win2	1.0	0.0	Yes	2.83	0.02	n/a	GoodResponse	1	n/a	n/a	1	3	Cue	Win	True
38.871	3.95	Win2	1.0	0.0	Yes	2.83	0.001	n/a	GoodResponse	1	n/a	n/a	1	3	Fixation	Win	True
42.816	0.37	Win2	1.0	0.004	Yes	2.83	-0.004	2.0	GoodResponse	1	0.188	42.004	1	3	Target	Win	True
43.004	0.3	Win2	1.0	0.004	Yes	2.83	-0.004	2.0	GoodResponse	1	0.188	n/a	1	3	ButtonPress	Win	True
43.2	0.33	Win2	1.0	n/a	Yes	2.83	n/a	n/a	GoodResponse	1	n/a	n/a	1	3	Blank	Win	True
43.518	1.45	Win2	1.0	n/a	Yes	2.83	n/a	5.0	GoodResponse	1	0.019	42.537	1	3	Feedback	Win	True
44.972	2.83	Win2	1.0	n/a	Yes	2.83	n/a	n/a	GoodResponse	1	0.0	n/a	1	3	ISIslide	Win	True
47.831	0.25	Win2	0.8	0.0	No	3.269	0.031	n/a	NoResponse	0	n/a	n/a	1	4	Cue	MissedWin	True
48.082	4.0	Win2	0.8	0.0	No	3.269	0.001	n/a	NoResponse	0	n/a	n/a	1	4	Fixation	MissedWin	True
52.077	0.36	Win2	0.8	0.004	No	3.269	-0.004	2.0	NoResponse	0	0.381	51.458	1	4	Target	MissedWin	True
52.445	0.34	Win2	0.8	n/a	No	3.269	n/a	n/a	NoResponse	0	n/a	n/a	1	4	Blank	MissedWin	True
52.458	0.3	Win2	0.8	0.004	No	3.269	-0.004	2.0	NoResponse	0	0.381	n/a	1	4	ButtonPress	MissedWin	True
52.779	1.45	Win2	0.8	n/a	No	3.269	n/a	5.0	NoResponse	0	0.025	51.804	1	4	Feedback	MissedWin	True
54.233	3.269	Win2	0.8	n/a	No	3.269	n/a	n/a	NoResponse	0	0.0	n/a	1	4	ISIslide	MissedWin	True
57.527	0.25	Win2	0.8332999999999999	0.0	Yes	2.773	0.027	n/a	GoodResponse	1	n/a	n/a	2	5	Cue	Win	True
57.777	4.0	Win2	0.8332999999999999	0.0	Yes	2.773	0.0	n/a	GoodResponse	1	n/a	n/a	2	5	Fixation	Win	True
61.773	0.35	Win2	0.8332999999999999	0.004	Yes	2.773	-0.004	2.0	GoodResponse	1	0.177	60.95	2	5	Target	Win	True
61.95	0.3	Win2	0.8332999999999999	0.004	Yes	2.773	-0.004	2.0	GoodResponse	1	0.177	n/a	2	5	ButtonPress	Win	True
62.124	0.35	Win2	0.8332999999999999	n/a	Yes	2.773	n/a	n/a	GoodResponse	1	n/a	n/a	2	5	Blank	Win	True
62.475	1.45	Win2	0.8332999999999999	n/a	Yes	2.773	n/a	5.0	GoodResponse	1	0.037	61.512	2	5	Feedback	Win	True
63.929	2.773	Win2	0.8332999999999999	n/a	Yes	2.773	n/a	n/a	GoodResponse	1	0.0	n/a	2	5	ISIslide	Win	True
66.721	0.25	Lose2	0.8571	0.0	Yes	2.729	0.021	n/a	GoodResponse	0	n/a	n/a	2	6	Cue	AvoidedLoss	True
66.972	3.95	Lose2	0.8571	0.0	Yes	2.729	0.001	n/a	GoodResponse	0	n/a	n/a	2	6	Fixation	AvoidedLoss	True
70.917	0.34	Lose2	0.8571	0.004	Yes	2.729	-0.004	2.0	GoodResponse	0	0.224	70.141	2	6	Target	AvoidedLoss	True
71.141	0.3	Lose2	0.8571	0.004	Yes	2.729	-0.004	2.0	GoodResponse	0	0.224	n/a	2	6	ButtonPress	AvoidedLoss	True
71.268	0.36	Lose2	0.8571	n/a	Yes	2.729	n/a	n/a	GoodResponse	0	n/a	n/a	2	6	Blank	AvoidedLoss	True
71.619	1.45	Lose2	0.8571	n/a	Yes	2.729	n/a	5.0	GoodResponse	0	0.015	70.634	2	6	Feedback	AvoidedLoss	True
73.073	2.729	Lose2	0.8571	n/a	Yes	2.729	n/a	n/a	GoodResponse	0	0.0	n/a	2	6	ISIslide	AvoidedLoss	True
75.831	0.25	Lose2	0.875	0.001	Yes	4.019	0.031	n/a	GoodResponse	0	n/a	n/a	2	7	Cue	AvoidedLoss	True
76.082	4.05	Lose2	0.875	0.0	Yes	4.019	0.001	n/a	GoodResponse	0	n/a	n/a	2	7	Fixation	AvoidedLoss	True
80.128	0.33	Lose2	0.875	0.003	Yes	4.019	-0.003	2.0	GoodResponse	0	0.161	79.289	2	7	Target	AvoidedLoss	True
80.289	0.3	Lose2	0.875	0.003	Yes	4.019	-0.003	2.0	GoodResponse	0	0.161	n/a	2	7	ButtonPress	AvoidedLoss	True
80.462	0.37	Lose2	0.875	n/a	Yes	4.019	n/a	n/a	GoodResponse	0	n/a	n/a	2	7	Blank	AvoidedLoss	True
80.83	1.45	Lose2	0.875	n/a	Yes	4.019	n/a	5.0	GoodResponse	0	0.023	79.853	2	7	Feedback	AvoidedLoss	True
82.284	4.019	Lose2	0.875	n/a	Yes	4.019	n/a	n/a	GoodResponse	0	0.0	n/a	2	7	ISIslide	AvoidedLoss	True
86.33	0.25	Lose2	0.8889	0.0	Yes	3.02	0.03	n/a	GoodResponse	0	n/a	n/a	2	8	Cue	AvoidedLoss	True
86.58	3.95	Lose2	0.8889	0.0	Yes	3.02	0.0	n/a	GoodResponse	0	n/a	n/a	2	8	Fixation	AvoidedLoss	True
90.542	0.32	Lose2	0.8889	0.0	Yes	3.02	0.012	2.0	GoodResponse	0	0.183	89.725	2	8	Target	AvoidedLoss	True
90.725	0.3	Lose2	0.8889	0.0	Yes	3.02	0.012	2.0	GoodResponse	0	0.183	n/a	2	8	ButtonPress	AvoidedLoss	True
90.86	0.38	Lose2	0.8889	n/a	Yes	3.02	n/a	n/a	GoodResponse	0	n/a	n/a	2	8	Blank	AvoidedLoss	True
91.228	1.45	Lose2	0.8889	n/a	Yes	3.02	n/a	5.0	GoodResponse	0	0.016	90.244	2	8	Feedback	AvoidedLoss	True
92.682	3.02	Lose2	0.8889	n/a	Yes	3.02	n/a	n/a	GoodResponse	0	0.0	n/a	2	8	ISIslide	AvoidedLoss	True
95.724	0.25	Lose2	0.9	0.0	Yes	3.126	0.024	n/a	GoodResponse	0	n/a	n/a	2	9	Cue	AvoidedLoss	True
95.975	3.95	Lose2	0.9	0.0	Yes	3.126	0.001	n/a	GoodResponse	0	n/a	n/a	2	9	Fixation	AvoidedLoss	True
99.92	0.31	Lose2	0.9	0.004	Yes	3.126	-0.004	2.0	GoodResponse	0	0.156	99.076	2	9	Target	AvoidedLoss	True
100.076	0.3	Lose2	0.9	0.004	Yes	3.126	-0.004	2.0	GoodResponse	0	0.156	n/a	2	9	ButtonPress	AvoidedLoss	True
100.238	0.39	Lose2	0.9	n/a	Yes	3.126	n/a	n/a	GoodResponse	0	n/a	n/a	2	9	Blank	AvoidedLoss	True
100.622	1.45	Lose2	0.9	n/a	Yes	3.126	n/a	5.0	GoodResponse	0	0.036	99.658	2	9	Feedback	AvoidedLoss	True
102.077	3.126	Lose2	0.9	n/a	Yes	3.126	n/a	n/a	GoodResponse	0	0.0	n/a	2	9	ISIslide	AvoidedLoss	True
105.219	0.25	Control	0.9091	0.001	Yes	3.281	0.019	n/a	GoodResponse	0	n/a	n/a	2	10	Cue	Neutral	True
105.47	4.0	Control	0.9091	0.0	Yes	3.281	0.001	n/a	GoodResponse	0	n/a	n/a	2	10	Fixation	Neutral	True
109.466	0.3	Control	0.9091	0.003	Yes	3.281	-0.003	2.0	GoodResponse	0	0.243	108.709	2	10	Target	Neutral	True
109.709	0.3	Control	0.9091	0.003	Yes	3.281	-0.003	2.0	GoodResponse	0	0.243	n/a	2	10	ButtonPress	Neutral	True
109.766	0.4	Control	0.9091	n/a	Yes	3.281	n/a	n/a	GoodResponse	0	n/a	n/a	2	10	Blank	Neutral	True
110.168	1.45	Control	0.9091	n/a	Yes	3.281	n/a	5.0	GoodResponse	0	0.005	109.173	2	10	Feedback	Neutral	True
111.622	3.281	Control	0.9091	n/a	Yes	3.281	n/a	n/a	GoodResponse	0	0.0	n/a	2	10	ISIslide	Neutral	True
114.915	0.25	Lose2	0.9167000000000001	0.0	Yes	2.735	0.015	n/a	GoodResponse	0	n/a	n/a	2	11	Cue	AvoidedLoss	True
115.166	4.05	Lose2	0.9167000000000001	0.0	Yes	2.735	0.001	n/a	GoodResponse	0	n/a	n/a	2	11	Fixation	AvoidedLoss	True
119.211	0.29	Lose2	0.9167000000000001	0.004	Yes	2.735	-0.004	2.0	GoodResponse	0	0.228	118.439	2	11	Target	AvoidedLoss	True
119.439	0.3	Lose2	0.9167000000000001	0.004	Yes	2.735	-0.004	2.0	GoodResponse	0	0.228	n/a	2	11	ButtonPress	AvoidedLoss	True
119.512	0.41	Lose2	0.9167000000000001	n/a	Yes	2.735	n/a	n/a	GoodResponse	0	n/a	n/a	2	11	Blank	AvoidedLoss	True
119.914	1.45	Lose2	0.9167000000000001	n/a	Yes	2.735	n/a	5.0	GoodResponse	0	0.012	118.926	2	11	Feedback	AvoidedLoss	True
121.368	2.735	Lose2	0.9167000000000001	n/a	Yes	2.735	n/a	n/a	GoodResponse	0	0.0	n/a	2	11	ISIslide	AvoidedLoss	True
124.126	0.25	Control	0.8462000000000001	0.0	No	2.974	0.026	n/a	NoResponse	0	n/a	n/a	2	12	Cue	Neutral	True
124.377	3.9	Control	0.8462000000000001	0.0	No	2.974	0.001	n/a	NoResponse	0	n/a	n/a	2	12	Fixation	Neutral	True
128.272	0.28	Control	0.8462000000000001	0.004	No	2.974	-0.004	2.0	NoResponse	0	0.383	127.655	2	12	Target	Neutral	True
128.556	0.42	Control	0.8462000000000001	n/a	No	2.974	n/a	n/a	NoResponse	0	n/a	n/a	2	12	Blank	Neutral	True
128.655	0.3	Control	0.8462000000000001	0.004	No	2.974	-0.004	2.0	NoResponse	0	0.383	n/a	2	12	ButtonPress	Neutral	True
128.974	1.45	Control	0.8462000000000001	n/a	No	2.974	n/a	5.0	NoResponse	0	0.025	127.999	2	12	Feedback	Neutral	True
130.428	2.974	Control	0.8462000000000001	n/a	No	2.974	n/a	n/a	NoResponse	0	0.0	n/a	2	12	ISIslide	Neutral	True
133.421	0.25	Control	0.8571	0.0	Yes	2.779	0.021	n/a	GoodResponse	0	n/a	n/a	2	13	Cue	Neutral	True
133.671	4.0	Control	0.8571	0.0	Yes	2.779	0.0	n/a	GoodResponse	0	n/a	n/a	2	13	Fixation	Neutral	True
137.667	0.27	Control	0.8571	0.004	Yes	2.779	-0.004	2.0	GoodResponse	0	0.166	136.833	2	13	Target	Neutral	True
137.833	0.3	Control	0.8571	0.004	Yes	2.779	-0.004	2.0	GoodResponse	0	0.166	n/a	2	13	ButtonPress	Neutral	True
137.951	0.43	Control	0.8571	n/a	Yes	2.779	n/a	n/a	GoodResponse	0	n/a	n/a	2	13	Blank	Neutral	True
138.369	1.45	Control	0.8571	n/a	Yes	2.779	n/a	5.0	GoodResponse	0	0.045	137.414	2	13	Feedback	Neutral	True
139.823	2.779	Control	0.8571	n/a	Yes	2.779	n/a	n/a	GoodResponse	0	0.0	n/a	2	13	ISIslide	Neutral	True
142.615	0.25	Win2	0.8667	0.0	Yes	2.685	0.015	n/a	GoodResponse	1	n/a	n/a	3	14	Cue	Win	True
142.866	4.1	Win2	0.8667	0.0	Yes	2.685	0.001	n/a	GoodResponse	1	n/a	n/a	3	14	Fixation	Win	True
146.961	0.26	Win2	0.8667	0.004	Yes	2.685	-0.004	2.0	GoodResponse	1	0.178	146.139	3	14	Target	Win	True
147.139	0.3	Win2	0.8667	0.004	Yes	2.685	-0.004	2.0	GoodResponse	1	0.178	n/a	3	14	ButtonPress	Win	True
147.229	0.44	Win2	0.8667	n/a	Yes	2.685	n/a	n/a	GoodResponse	1	n/a	n/a	3	14	Blank	Win	True
147.663	1.45	Win2	0.8667	n/a	Yes	2.685	n/a	5.0	GoodResponse	1	0.019	146.682	3	14	Feedback	Win	True
149.118	2.685	Win2	0.8667	n/a	Yes	2.685	n/a	n/a	GoodResponse	1	0.0	n/a	3	14	ISIslide	Win	True
151.826	0.25	Control	0.8125	0.0	No	2.974	0.026	n/a	NoResponse	0	n/a	n/a	3	15	Cue	Neutral	True
152.077	4.0	Control	0.8125	0.0	No	2.974	0.001	2.0	NoResponse	0	3.883	154.96	3	15	Fixation	Neutral	True
155.96	0.3	Control	0.8125	0.0	No	2.974	0.001	2.0	NoResponse	0	3.883	n/a	3	15	ButtonPress	Neutral	True
156.072	0.25	Control	0.8125	0.004	No	2.974	-0.004	n/a	NoResponse	0	n/a	n/a	3	15	Target	Neutral	True
156.323	0.45	Control	0.8125	n/a	No	2.974	n/a	n/a	NoResponse	0	n/a	n/a	3	15	Blank	Neutral	True
156.774	1.45	Control	0.8125	n/a	No	2.974	n/a	5.0	NoResponse	0	0.03	155.804	3	15	Feedback	Neutral	True
158.228	2.974	Control	0.8125	n/a	No	2.974	n/a	n/a	NoResponse	0	0.0	n/a	3	15	ISIslide	Neutral	True
161.221	0.25	Win2	0.8234999999999999	0.0	Yes	2.879	0.021	n/a	GoodResponse	1	n/a	n/a	4	16	Cue	Win	True
161.471	4.0	Win2	0.8234999999999999	0.0	Yes	2.879	0.0	n/a	GoodResponse	1	n/a	n/a	4	16	Fixation	Win	True
165.467	0.24	Win2	0.8234999999999999	0.004	Yes	2.879	-0.004	2.0	GoodResponse	1	0.141	164.608	4	16	Target	Win	True
165.608	0.3	Win2	0.8234999999999999	0.004	Yes	2.879	-0.004	2.0	GoodResponse	1	0.141	n/a	4	16	ButtonPress	Win	True
165.717	0.46	Win2	0.8234999999999999	n/a	Yes	2.879	n/a	n/a	GoodResponse	1	n/a	n/a	4	16	Blank	Win	True
166.169	1.45	Win2	0.8234999999999999	n/a	Yes	2.879	n/a	5.0	GoodResponse	1	0.0	165.169	4	16	Feedback	Win	True
167.623	2.879	Win2	0.8234999999999999	n/a	Yes	2.879	n/a	n/a	GoodResponse	1	0.0	n/a	4	16	ISIslide	Win	True
170.515	0.25	Lose2	0.7778	0.0	No	2.735	0.015	n/a	NoResponse	-1	n/a	n/a	3	17	Cue	Loss	False
170.766	3.95	Lose2	0.7778	0.0	No	2.735	0.001	2.0	NoResponse	-1	3.656	173.422	3	17	Fixation	Loss	False
174.422	0.3	Lose2	0.7778	0.0	No	2.735	0.001	2.0	NoResponse	-1	3.656	n/a	3	17	ButtonPress	Loss	False
174.711	0.23	Lose2	0.7778	0.004	No	2.735	-0.004	2.0	NoResponse	-1	0.246	173.957	3	17	Target	Loss	False
174.945	0.47	Lose2	0.7778	n/a	No	2.735	n/a	n/a	NoResponse	-1	n/a	n/a	3	17	Blank	Loss	False
174.957	0.3	Lose2	0.7778	0.004	No	2.735	-0.004	2.0	NoResponse	-1	0.246	n/a	3	17	ButtonPress	Loss	False
175.413	1.45	Lose2	0.7778	n/a	No	2.735	n/a	5.0	NoResponse	-1	0.025	174.438	3	17	Feedback	Loss	False
176.867	2.735	Lose2	0.7778	n/a	No	2.735	n/a	n/a	NoResponse	-1	0.0	n/a	3	17	ISIslide	Loss	False
179.626	0.25	Lose2	0.7368000000000001	0.0	No	2.724	0.026	n/a	LatePress	-1	n/a	n/a	2	18	Cue	Loss	True
179.877	4.05	Lose2	0.7368000000000001	0.0	No	2.724	0.001	n/a	LatePress	-1	n/a	n/a	2	18	Fixation	Loss	True
183.922	0.22	Lose2	0.7368000000000001	0.004	No	2.724	-0.004	2.0	LatePress	-1	0.228	183.15	2	18	Target	Loss	True
184.15	0.3	Lose2	0.7368000000000001	0.004	No	2.724	-0.004	2.0	LatePress	-1	0.228	n/a	2	18	ButtonPress	Loss	True
184.156	0.48	Lose2	0.7368000000000001	n/a	No	2.724	n/a	n/a	LatePress	-1	n/a	n/a	2	18	Blank	Loss	True
184.624	1.45	Lose2	0.7368000000000001	n/a	No	2.724	n/a	5.0	LatePress	-1	0.033	183.657	2	18	Feedback	Loss	True
186.078	2.724	Lose2	0.7368000000000001	n/a	No	2.724	n/a	n/a	LatePress	-1	0.0	n/a	2	18	ISIslide	Loss	True
188.82	0.25	Control	0.7	0.0	No	2.93	0.02	n/a	LatePress	0	n/a	n/a	2	19	Cue	Neutral	True
189.071	3.95	Control	0.7	0.0	No	2.93	0.001	n/a	LatePress	0	n/a	n/a	2	19	Fixation	Neutral	True
193.016	0.21	Control	0.7	0.004	No	2.93	-0.004	2.0	LatePress	0	0.214	192.23	2	19	Target	Neutral	True
193.23	0.3	Control	0.7	0.004	No	2.93	-0.004	2.0	LatePress	0	0.214	n/a	2	19	ButtonPress	Neutral	True
193.233	0.49	Control	0.7	n/a	No	2.93	n/a	n/a	LatePress	0	n/a	n/a	2	19	Blank	Neutral	True
193.718	1.45	Control	0.7	n/a	No	2.93	n/a	5.0	LatePress	0	0.013	192.731	2	19	Feedback	Neutral	True
195.172	2.93	Control	0.7	n/a	No	2.93	n/a	n/a	LatePress	0	0.0	n/a	2	19	ISIslide	Neutral	True
198.114	0.25	Control	0.7143	0.001	Yes	2.636	0.014	n/a	GoodResponse	0	n/a	n/a	2	20	Cue	Neutral	True
198.365	4.05	Control	0.7143	0.0	Yes	2.636	0.001	n/a	GoodResponse	0	n/a	n/a	2	20	Fixation	Neutral	True
202.411	0.2	Control	0.7143	0.003	Yes	2.636	-0.003	2.0	GoodResponse	0	0.137	201.548	2	20	Target	Neutral	True
202.548	0.3	Control	0.7143	0.003	Yes	2.636	-0.003	2.0	GoodResponse	0	0.137	n/a	2	20	ButtonPress	Neutral	True
202.611	0.5	Control	0.7143	n/a	Yes	2.636	n/a	n/a	GoodResponse	0	n/a	n/a	2	20	Blank	Neutral	True
203.113	1.45	Control	0.7143	n/a	Yes	2.636	n/a	5.0	GoodResponse	0	0.032	202.145	2	20	Feedback	Neutral	True
204.567	2.636	Control	0.7143	n/a	Yes	2.636	n/a	n/a	GoodResponse	0	0.0	n/a	2	20	ISIslide	Neutral	True
207.225	0.25	Control	0.7273000000000001	0.0	Yes	2.775	0.025	n/a	GoodResponse	0	n/a	n/a	2	21	Cue	Neutral	True
207.476	4.1	Control	0.7273000000000001	0.0	Yes	2.775	0.001	n/a	GoodResponse	0	n/a	n/a	2	21	Fixation	Neutral	True
211.571	0.19	Control	0.7273000000000001	0.004	Yes	2.775	-0.004	2.0	GoodResponse	0	0.181	210.752	2	21	Target	Neutral	True
211.752	0.3	Control	0.7273000000000001	0.004	Yes	2.775	-0.004	2.0	GoodResponse	0	0.181	n/a	2	21	ButtonPress	Neutral	True
211.772	0.51	Control	0.7273000000000001	n/a	Yes	2.775	n/a	n/a	GoodResponse	0	n/a	n/a	2	21	Blank	Neutral	True
212.274	1.45	Control	0.7273000000000001	n/a	Yes	2.775	n/a	5.0	GoodResponse	0	0.042	211.316	2	21	Feedback	Neutral	True
213.728	2.775	Control	0.7273000000000001	n/a	Yes	2.775	n/a	n/a	GoodResponse	0	0.0	n/a	2	21	ISIslide	Neutral	True
216.52	0.25	Control	0.6957	0.0	No	2.78	0.02	n/a	NoResponse	0	n/a	n/a	2	22	Cue	Neutral	True
216.77	4.0	Control	0.6957	0.0	No	2.78	0.0	n/a	NoResponse	0	n/a	n/a	2	22	Fixation	Neutral	True
220.766	0.18	Control	0.6957	0.004	No	2.78	-0.004	2.0	NoResponse	0	0.252	220.018	2	22	Target	Neutral	True
220.95	0.52	Control	0.6957	n/a	No	2.78	n/a	n/a	NoResponse	0	n/a	n/a	2	22	Blank	Neutral	True
221.018	0.3	Control	0.6957	0.004	No	2.78	-0.004	2.0	NoResponse	0	0.252	n/a	2	22	ButtonPress	Neutral	True
221.468	1.45	Control	0.6957	n/a	No	2.78	n/a	5.0	NoResponse	0	0.019	220.487	2	22	Feedback	Neutral	True
222.922	2.78	Control	0.6957	n/a	No	2.78	n/a	n/a	NoResponse	0	0.0	n/a	2	22	ISIslide	Neutral	True
225.731	0.25	Control	0.6667000000000001	0.0	No	2.769	0.031	n/a	NoResponse	0	n/a	n/a	2	23	Cue	Neutral	True
225.981	3.9	Control	0.6667000000000001	0.0	No	2.769	0.0	n/a	NoResponse	0	n/a	n/a	2	23	Fixation	Neutral	True
229.893	0.17	Control	0.6667000000000001	0.0	No	2.769	0.012	2.0	NoResponse	0	0.193	229.086	2	23	Target	Neutral	True
230.06	0.53	Control	0.6667000000000001	n/a	No	2.769	n/a	n/a	NoResponse	0	n/a	n/a	2	23	Blank	Neutral	True
230.086	0.3	Control	0.6667000000000001	0.0	No	2.769	0.012	2.0	NoResponse	0	0.193	n/a	2	23	ButtonPress	Neutral	True
230.578	1.45	Control	0.6667000000000001	n/a	No	2.769	n/a	5.0	NoResponse	0	0.03	229.608	2	23	Feedback	Neutral	True
232.033	2.769	Control	0.6667000000000001	n/a	No	2.769	n/a	n/a	NoResponse	0	0.0	n/a	2	23	ISIslide	Neutral	True
234.824	0.25	Win2	0.64	0.001	No	3.126	0.024	n/a	NoResponse	0	n/a	n/a	2	24	Cue	MissedWin	True
235.075	3.95	Win2	0.64	0.0	No	3.126	0.001	n/a	NoResponse	0	n/a	n/a	2	24	Fixation	MissedWin	True
239.02	0.16	Win2	0.64	0.004	No	3.126	-0.004	2.0	NoResponse	0	0.175	238.195	2	24	Target	MissedWin	True
239.188	0.54	Win2	0.64	n/a	No	3.126	n/a	n/a	NoResponse	0	n/a	n/a	2	24	Blank	MissedWin	True
239.195	0.3	Win2	0.64	0.004	No	3.126	-0.004	2.0	NoResponse	0	0.175	n/a	2	24	ButtonPress	MissedWin	True
239.723	1.45	Win2	0.64	n/a	No	3.126	n/a	5.0	NoResponse	0	0.007	238.73	2	24	Feedback	MissedWin	True
241.177	3.126	Win2	0.64	n/a	No	3.126	n/a	n/a	NoResponse	0	0.0	n/a	2	24	ISIslide	MissedWin	True
244.32	0.25	Win2	0.6154	0.0	No	3.08	0.02	n/a	PrematurePress	0	n/a	n/a	2	25	Cue	MissedWin	True
244.57	4.0	Win2	0.6154	0.0	No	3.08	0.0	n/a	PrematurePress	0	n/a	n/a	2	25	Fixation	MissedWin	True
248.566	0.17	Win2	0.6154	0.004	No	3.08	-0.004	2.0	PrematurePress	0	0.022	247.588	2	25	Target	MissedWin	True
248.588	0.3	Win2	0.6154	0.004	No	3.08	-0.004	2.0	PrematurePress	0	0.022	n/a	2	25	ButtonPress	MissedWin	True
248.75	0.53	Win2	0.6154	n/a	No	3.08	n/a	n/a	PrematurePress	0	n/a	n/a	2	25	Blank	MissedWin	True
249.268	1.45	Win2	0.6154	n/a	No	3.08	n/a	5.0	PrematurePress	0	0.023	248.291	2	25	Feedback	MissedWin	True
250.722	3.08	Win2	0.6154	n/a	No	3.08	n/a	n/a	PrematurePress	0	0.0	n/a	2	25	ISIslide	MissedWin	True
253.815	0.25	Win2	0.5926	0.0	No	2.935	0.015	n/a	NoResponse	0	n/a	n/a	2	26	Cue	MissedWin	True
254.065	3.95	Win2	0.5926	0.001	No	2.935	0.0	n/a	NoResponse	0	n/a	n/a	2	26	Fixation	MissedWin	True
258.011	0.18	Win2	0.5926	0.004	No	2.935	-0.004	2.0	NoResponse	0	0.193	257.204	2	26	Target	MissedWin	True
258.195	0.52	Win2	0.5926	n/a	No	2.935	n/a	n/a	NoResponse	0	n/a	n/a	2	26	Blank	MissedWin	True
258.204	0.3	Win2	0.5926	0.004	No	2.935	-0.004	2.0	NoResponse	0	0.193	n/a	2	26	ButtonPress	MissedWin	True
258.713	1.45	Win2	0.5926	n/a	No	2.935	n/a	5.0	NoResponse	0	0.042	257.755	2	26	Feedback	MissedWin	True
260.167	2.935	Win2	0.5926	n/a	No	2.935	n/a	n/a	NoResponse	0	0.0	n/a	2	26	ISIslide	MissedWin	True
263.126	0.25	Lose2	0.5714	0.0	No	2.824	0.026	n/a	PrematurePress	-1	n/a	n/a	1	27	Cue	Loss	True
263.377	4.05	Lose2	0.5714	0.0	No	2.824	0.001	n/a	PrematurePress	-1	n/a	n/a	1	27	Fixation	Loss	True
267.422	0.19	Lose2	0.5714	0.004	No	2.824	-0.004	2.0	PrematurePress	-1	0.08	266.502	1	27	Target	Loss	True
267.502	0.3	Lose2	0.5714	0.004	No	2.824	-0.004	2.0	PrematurePress	-1	0.08	n/a	1	27	ButtonPress	Loss	True
267.623	0.51	Lose2	0.5714	n/a	No	2.824	n/a	n/a	PrematurePress	-1	n/a	n/a	1	27	Blank	Loss	True
268.124	1.45	Lose2	0.5714	n/a	No	2.824	n/a	5.0	PrematurePress	-1	0.045	267.169	1	27	Feedback	Loss	True
269.579	2.824	Lose2	0.5714	n/a	No	2.824	n/a	n/a	PrematurePress	-1	0.0	n/a	1	27	ISIslide	Loss	True
272.42	0.25	Control	0.5861999999999999	0.001	Yes	2.83	0.02	n/a	GoodResponse	0	n/a	n/a	1	28	Cue	Neutral	True
272.671	4.05	Control	0.5861999999999999	0.0	Yes	2.83	0.001	n/a	GoodResponse	0	n/a	n/a	1	28	Fixation	Neutral	True
276.717	0.2	Control	0.5861999999999999	0.003	Yes	2.83	-0.003	2.0	GoodResponse	0	0.188	275.905	1	28	Target	Neutral	True
276.905	0.3	Control	0.5861999999999999	0.003	Yes	2.83	-0.003	2.0	GoodResponse	0	0.188	n/a	1	28	ButtonPress	Neutral	True
276.917	0.5	Control	0.5861999999999999	n/a	Yes	2.83	n/a	n/a	GoodResponse	0	n/a	n/a	1	28	Blank	Neutral	True
277.419	1.45	Control	0.5861999999999999	n/a	Yes	2.83	n/a	5.0	GoodResponse	0	0.019	276.438	1	28	Feedback	Neutral	True
278.873	2.83	Control	0.5861999999999999	n/a	Yes	2.83	n/a	n/a	GoodResponse	0	0.0	n/a	1	28	ISIslide	Neutral	True
281.715	0.25	Lose2	0.5667	0.0	No	2.835	0.015	n/a	PrematurePress	-1	n/a	n/a	0	29	Cue	Loss	True
281.966	3.95	Lose2	0.5667	0.0	No	2.835	0.001	n/a	PrematurePress	-1	n/a	n/a	0	29	Fixation	Loss	True
285.911	0.21	Lose2	0.5667	0.004	No	2.835	-0.004	2.0	PrematurePress	-1	0.04	284.951	0	29	Target	Loss	True
285.951	0.3	Lose2	0.5667	0.004	No	2.835	-0.004	2.0	PrematurePress	-1	0.04	n/a	0	29	ButtonPress	Loss	True
286.128	0.49	Lose2	0.5667	n/a	No	2.835	n/a	n/a	PrematurePress	-1	n/a	n/a	0	29	Blank	Loss	True
286.613	1.45	Lose2	0.5667	n/a	No	2.835	n/a	5.0	PrematurePress	-1	0.043	285.656	0	29	Feedback	Loss	True
288.067	2.835	Lose2	0.5667	n/a	No	2.835	n/a	n/a	PrematurePress	-1	0.0	n/a	0	29	ISIslide	Loss	True
290.926	0.25	Win2	0.5484	0.0	No	2.774	0.026	n/a	NoResponse	0	n/a	n/a	0	30	Cue	MissedWin	False
291.177	3.9	Win2	0.5484	0.0	No	2.774	0.001	n/a	NoResponse	0	n/a	n/a	0	30	Fixation	MissedWin	False
295.072	0.22	Win2	0.5484	0.004	No	2.774	-0.004	n/a	NoResponse	0	n/a	n/a	0	30	Target	MissedWin	False
295.306	0.48	Win2	0.5484	n/a	No	2.774	n/a	n/a	NoResponse	0	n/a	n/a	0	30	Blank	MissedWin	False
295.774	1.45	Win2	0.5484	n/a	No	2.774	n/a	5.0	NoResponse	0	0.004	294.778	0	30	Feedback	MissedWin	False
297.228	2.774	Win2	0.5484	n/a	No	2.774	n/a	n/a	NoResponse	0	0.0	n/a	0	30	ISIslide	MissedWin	False
300.02	0.25	Lose2	0.5625	0.0	Yes	2.83	0.02	n/a	GoodResponse	0	n/a	n/a	0	31	Cue	AvoidedLoss	True
300.271	4.05	Lose2	0.5625	0.0	Yes	2.83	0.001	n/a	GoodResponse	0	n/a	n/a	0	31	Fixation	AvoidedLoss	True
304.316	0.23	Lose2	0.5625	0.004	Yes	2.83	-0.004	2.0	GoodResponse	0	0.19	303.506	0	31	Target	AvoidedLoss	True
304.506	0.3	Lose2	0.5625	0.004	Yes	2.83	-0.004	2.0	GoodResponse	0	0.19	n/a	0	31	ButtonPress	AvoidedLoss	True
304.55	0.47	Lose2	0.5625	n/a	Yes	2.83	n/a	n/a	GoodResponse	0	n/a	n/a	0	31	Blank	AvoidedLoss	True
305.018	1.45	Lose2	0.5625	n/a	Yes	2.83	n/a	5.0	GoodResponse	0	0.029	304.047	0	31	Feedback	AvoidedLoss	True
306.473	2.83	Lose2	0.5625	n/a	Yes	2.83	n/a	n/a	GoodResponse	0	0.0	n/a	0	31	ISIslide	AvoidedLoss	True
309.314	0.25	Lose2	0.5455	0.0	No	2.636	0.014	n/a	NoResponse	-1	n/a	n/a	-1	32	Cue	Loss	False
309.565	4.15	Lose2	0.5455	0.0	No	2.636	0.001	2.0	NoResponse	-1	4.043	312.608	-1	32	Fixation	Loss	False
313.608	0.3	Lose2	0.5455	0.0	No	2.636	0.001	2.0	NoResponse	-1	4.043	n/a	-1	32	ButtonPress	Loss	False
313.711	0.24	Lose2	0.5455	0.003	No	2.636	-0.003	2.0	NoResponse	-1	0.369	313.08	-1	32	Target	Loss	False
313.962	0.46	Lose2	0.5455	n/a	No	2.636	n/a	n/a	NoResponse	-1	n/a	n/a	-1	32	Blank	Loss	False
314.08	0.3	Lose2	0.5455	0.003	No	2.636	-0.003	2.0	NoResponse	-1	0.369	n/a	-1	32	ButtonPress	Loss	False
314.413	1.45	Lose2	0.5455	n/a	No	2.636	n/a	5.0	NoResponse	-1	0.049	313.462	-1	32	Feedback	Loss	False
315.867	2.636	Lose2	0.5455	n/a	No	2.636	n/a	n/a	NoResponse	-1	0.0	n/a	-1	32	ISIslide	Loss	False
318.525	0.25	Win2	0.5294	0.0	No	2.675	0.025	n/a	NoResponse	0	n/a	n/a	-1	33	Cue	MissedWin	True
318.776	4.0	Win2	0.5294	0.0	No	2.675	0.001	n/a	NoResponse	0	n/a	n/a	-1	33	Fixation	MissedWin	True
322.771	0.25	Win2	0.5294	0.004	No	2.675	-0.004	2.0	NoResponse	0	0.332	322.103	-1	33	Target	MissedWin	True
323.022	0.45	Win2	0.5294	n/a	No	2.675	n/a	n/a	NoResponse	0	n/a	n/a	-1	33	Blank	MissedWin	True
323.103	0.3	Win2	0.5294	0.004	No	2.675	-0.004	2.0	NoResponse	0	0.332	n/a	-1	33	ButtonPress	MissedWin	True
323.473	1.45	Win2	0.5294	n/a	No	2.675	n/a	5.0	NoResponse	0	0.013	322.486	-1	33	Feedback	MissedWin	True
324.928	2.675	Win2	0.5294	n/a	No	2.675	n/a	n/a	NoResponse	0	0.0	n/a	-1	33	ISIslide	MissedWin	True
327.619	0.25	Lose2	0.5428999999999999	0.0	Yes	2.631	0.019	n/a	GoodResponse	0	n/a	n/a	-1	34	Cue	AvoidedLoss	True
327.87	4.05	Lose2	0.5428999999999999	0.0	Yes	2.631	0.001	n/a	GoodResponse	0	n/a	n/a	-1	34	Fixation	AvoidedLoss	True
331.915	0.26	Lose2	0.5428999999999999	0.004	Yes	2.631	-0.004	2.0	GoodResponse	0	0.149	331.064	-1	34	Target	AvoidedLoss	True
332.064	0.3	Lose2	0.5428999999999999	0.004	Yes	2.631	-0.004	2.0	GoodResponse	0	0.149	n/a	-1	34	ButtonPress	AvoidedLoss	True
332.183	0.44	Lose2	0.5428999999999999	n/a	Yes	2.631	n/a	n/a	GoodResponse	0	n/a	n/a	-1	34	Blank	AvoidedLoss	True
332.618	1.45	Lose2	0.5428999999999999	n/a	Yes	2.631	n/a	5.0	GoodResponse	0	0.039	331.657	-1	34	Feedback	AvoidedLoss	True
334.072	2.631	Lose2	0.5428999999999999	n/a	Yes	2.631	n/a	n/a	GoodResponse	0	0.0	n/a	-1	34	ISIslide	AvoidedLoss	True
336.713	0.25	Lose2	0.5278	0.0	No	2.687	0.013	n/a	NoResponse	-1	n/a	n/a	-2	35	Cue	Loss	True
336.964	4.0	Lose2	0.5278	0.0	No	2.687	0.001	n/a	NoResponse	-1	n/a	n/a	-2	35	Fixation	Loss	True
340.959	0.27	Lose2	0.5278	0.004	No	2.687	-0.004	2.0	NoResponse	-1	0.338	340.297	-2	35	Target	Loss	True
341.243	0.43	Lose2	0.5278	n/a	No	2.687	n/a	n/a	NoResponse	-1	n/a	n/a	-2	35	Blank	Loss	True
341.297	0.3	Lose2	0.5278	0.004	No	2.687	-0.004	2.0	NoResponse	-1	0.338	n/a	-2	35	ButtonPress	Loss	True
341.661	1.45	Lose2	0.5278	n/a	No	2.687	n/a	5.0	NoResponse	-1	0.02	340.681	-2	35	Feedback	Loss	True
343.116	2.687	Lose2	0.5278	n/a	No	2.687	n/a	n/a	NoResponse	-1	0.0	n/a	-2	35	ISIslide	Loss	True
345.824	0.25	Control	0.5405	0.0	Yes	2.676	0.024	n/a	GoodResponse	0	n/a	n/a	-2	36	Cue	Neutral	True
346.075	4.0	Control	0.5405	0.0	Yes	2.676	0.001	n/a	GoodResponse	0	n/a	n/a	-2	36	Fixation	Neutral	True
350.07	0.28	Control	0.5405	0.004	Yes	2.676	-0.004	2.0	GoodResponse	0	0.184	349.254	-2	36	Target	Neutral	True
350.254	0.3	Control	0.5405	0.004	Yes	2.676	-0.004	2.0	GoodResponse	0	0.184	n/a	-2	36	ButtonPress	Neutral	True
350.354	0.42	Control	0.5405	n/a	Yes	2.676	n/a	n/a	GoodResponse	0	n/a	n/a	-2	36	Blank	Neutral	True
350.772	1.45	Control	0.5405	n/a	Yes	2.676	n/a	5.0	GoodResponse	0	0.03	349.802	-2	36	Feedback	Neutral	True
352.226	2.676	Control	0.5405	n/a	Yes	2.676	n/a	n/a	GoodResponse	0	0.0	n/a	-2	36	ISIslide	Neutral	True
354.918	0.25	Win2	0.5526	0.0	Yes	2.882	0.018	n/a	GoodResponse	1	n/a	n/a	-1	37	Cue	Win	False
355.168	4.0	Win2	0.5526	0.001	Yes	2.882	0.0	2.0	GoodResponse	1	3.575	357.743	-1	37	Fixation	Win	False
358.743	0.3	Win2	0.5526	0.001	Yes	2.882	0.0	2.0	GoodResponse	1	3.575	n/a	-1	37	ButtonPress	Win	False
359.164	0.29	Win2	0.5526	0.004	Yes	2.882	-0.004	2.0	GoodResponse	1	0.135	358.299	-1	37	Target	Win	False
359.299	0.3	Win2	0.5526	0.004	Yes	2.882	-0.004	2.0	GoodResponse	1	0.135	n/a	-1	37	ButtonPress	Win	False
359.465	0.41	Win2	0.5526	n/a	Yes	2.882	n/a	n/a	GoodResponse	1	n/a	n/a	-1	37	Blank	Win	False
359.866	1.45	Win2	0.5526	n/a	Yes	2.882	n/a	5.0	GoodResponse	1	0.01	358.876	-1	37	Feedback	Win	False
361.32	2.882	Win2	0.5526	n/a	Yes	2.882	n/a	n/a	GoodResponse	1	0.0	n/a	-1	37	ISIslide	Win	False
364.229	0.25	Lose2	0.5640999999999999	0.0	Yes	2.821	0.029	n/a	GoodResponse	0	n/a	n/a	-1	38	Cue	AvoidedLoss	False
364.48	3.95	Lose2	0.5640999999999999	0.0	Yes	2.821	0.001	2.0	GoodResponse	0	1.855	365.335	-1	38	Fixation	AvoidedLoss	False
366.335	0.3	Lose2	0.5640999999999999	0.0	Yes	2.821	0.001	2.0	GoodResponse	0	1.855	n/a	-1	38	ButtonPress	AvoidedLoss	False
368.425	0.3	Lose2	0.5640999999999999	0.004	Yes	2.821	-0.004	2.0	GoodResponse	0	0.184	367.609	-1	38	Target	AvoidedLoss	False
368.609	0.3	Lose2	0.5640999999999999	0.004	Yes	2.821	-0.004	2.0	GoodResponse	0	0.184	n/a	-1	38	ButtonPress	AvoidedLoss	False
368.726	0.4	Lose2	0.5640999999999999	n/a	Yes	2.821	n/a	n/a	GoodResponse	0	n/a	n/a	-1	38	Blank	AvoidedLoss	False
369.127	1.45	Lose2	0.5640999999999999	n/a	Yes	2.821	n/a	5.0	GoodResponse	0	0.017	368.144	-1	38	Feedback	AvoidedLoss	False
370.581	2.821	Lose2	0.5640999999999999	n/a	Yes	2.821	n/a	n/a	GoodResponse	0	0.0	n/a	-1	38	ISIslide	AvoidedLoss	False
373.423	0.25	Win2	0.575	0.0	Yes	2.977	0.023	2.0	GoodResponse	1	0.2	372.623	0	39	Cue	Win	False
373.623	0.3	Win2	0.575	0.0	Yes	2.977	0.023	2.0	GoodResponse	1	0.2	n/a	0	39	ButtonPress	Win	False
373.674	4.1	Win2	0.575	0.0	Yes	2.977	0.001	2.0	GoodResponse	1	0.168	372.842	0	39	Fixation	Win	False
373.842	0.3	Win2	0.575	0.0	Yes	2.977	0.001	2.0	GoodResponse	1	0.168	n/a	0	39	ButtonPress	Win	False
377.769	0.31	Win2	0.575	0.004	Yes	2.977	-0.004	2.0	GoodResponse	1	0.227	376.996	0	39	Target	Win	False
377.996	0.3	Win2	0.575	0.004	Yes	2.977	-0.004	2.0	GoodResponse	1	0.227	n/a	0	39	ButtonPress	Win	False
378.087	0.39	Win2	0.575	n/a	Yes	2.977	n/a	n/a	GoodResponse	1	n/a	n/a	0	39	Blank	Win	False
378.472	1.45	Win2	0.575	n/a	Yes	2.977	n/a	5.0	GoodResponse	1	0.038	377.51	0	39	Feedback	Win	False
379.926	2.977	Win2	0.575	n/a	Yes	2.977	n/a	2.0	GoodResponse	1	0.379	n/a	0	39	ISIslide	Win	False
382.902	0.25	Win2	0.5854	0.0	Yes	2.748	0.002	2.0	GoodResponse	1	0.199	382.101	1	40	Cue	Win	False
383.101	0.3	Win2	0.5854	0.0	Yes	2.748	0.002	2.0	GoodResponse	1	0.199	n/a	1	40	ButtonPress	Win	False
383.152	3.95	Win2	0.5854	0.0	Yes	2.748	0.0	2.0	GoodResponse	1	0.228	382.38	1	40	Fixation	Win	False
383.38	0.3	Win2	0.5854	0.0	Yes	2.748	0.0	2.0	GoodResponse	1	0.228	n/a	1	40	ButtonPress	Win	False
387.114	0.32	Win2	0.5854	0.0	Yes	2.748	0.012	2.0	GoodResponse	1	0.157	386.271	1	40	Target	Win	False
387.271	0.3	Win2	0.5854	0.0	Yes	2.748	0.012	2.0	GoodResponse	1	0.157	n/a	1	40	ButtonPress	Win	False
387.432	0.38	Win2	0.5854	n/a	Yes	2.748	n/a	n/a	GoodResponse	1	n/a	n/a	1	40	Blank	Win	False
387.8	1.45	Win2	0.5854	n/a	Yes	2.748	n/a	5.0	GoodResponse	1	0.027	386.827	1	40	Feedback	Win	False
389.254	2.748	Win2	0.5854	n/a	Yes	2.748	n/a	n/a	GoodResponse	1	0.0	n/a	1	40	ISIslide	Win	False
392.029	0.25	Win2	0.5952000000000001	0.0	Yes	2.771	0.029	2.0	GoodResponse	1	0.112	391.141	2	41	Cue	Win	False
392.141	0.3	Win2	0.5952000000000001	0.0	Yes	2.771	0.029	2.0	GoodResponse	1	0.112	n/a	2	41	ButtonPress	Win	False
392.28	3.9	Win2	0.5952000000000001	0.0	Yes	2.771	0.001	2.0	GoodResponse	1	0.141	391.421	2	41	Fixation	Win	False
392.421	0.3	Win2	0.5952000000000001	0.0	Yes	2.771	0.001	2.0	GoodResponse	1	0.141	n/a	2	41	ButtonPress	Win	False
396.175	0.33	Win2	0.5952000000000001	0.004	Yes	2.771	-0.004	2.0	GoodResponse	1	0.101	395.276	2	41	Target	Win	False
396.276	0.3	Win2	0.5952000000000001	0.004	Yes	2.771	-0.004	2.0	GoodResponse	1	0.101	n/a	2	41	ButtonPress	Win	False
396.509	0.37	Win2	0.5952000000000001	n/a	Yes	2.771	n/a	n/a	GoodResponse	1	n/a	n/a	2	41	Blank	Win	False
396.877	1.45	Win2	0.5952000000000001	n/a	Yes	2.771	n/a	2.0	GoodResponse	1	0.02	395.897	2	41	Feedback	Win	False
396.897	0.3	Win2	0.5952000000000001	n/a	Yes	2.771	n/a	2.0	GoodResponse	1	0.02	n/a	2	41	ButtonPress	Win	False
398.331	2.771	Win2	0.5952000000000001	n/a	Yes	2.771	n/a	2.0	GoodResponse	1	0.142	n/a	2	41	ISIslide	Win	False
401.106	0.25	Control	0.6047	0.0	Yes	2.944	0.006	2.0	GoodResponse	0	0.17	400.276	2	42	Cue	Neutral	False
401.276	0.3	Control	0.6047	0.0	Yes	2.944	0.006	2.0	GoodResponse	0	0.17	n/a	2	42	ButtonPress	Neutral	False
401.357	3.85	Control	0.6047	0.0	Yes	2.944	0.001	2.0	GoodResponse	0	0.252	400.609	2	42	Fixation	Neutral	False
401.609	0.3	Control	0.6047	0.0	Yes	2.944	0.001	2.0	GoodResponse	0	0.252	n/a	2	42	ButtonPress	Neutral	False
405.202	0.34	Control	0.6047	0.004	Yes	2.944	-0.004	2.0	GoodResponse	0	0.268	404.47	2	42	Target	Neutral	False
405.47	0.3	Control	0.6047	0.004	Yes	2.944	-0.004	2.0	GoodResponse	0	0.268	n/a	2	42	ButtonPress	Neutral	False
405.553	0.36	Control	0.6047	n/a	Yes	2.944	n/a	n/a	GoodResponse	0	n/a	n/a	2	42	Blank	Neutral	False
405.904	1.45	Control	0.6047	n/a	Yes	2.944	n/a	5.0	GoodResponse	0	0.02	404.924	2	42	Feedback	Neutral	False
407.358	2.944	Control	0.6047	n/a	Yes	2.944	n/a	2.0	GoodResponse	0	0.029	n/a	2	42	ISIslide	Neutral	False
410.3	0.25	Win2	0.6136	0.0	Yes	3.2	0.0	2.0	GoodResponse	1	0.027	409.327	3	43	Cue	Win	False
410.327	0.3	Win2	0.6136	0.0	Yes	3.2	0.0	2.0	GoodResponse	1	0.027	n/a	3	43	ButtonPress	Win	False
410.551	4.0	Win2	0.6136	0.0	Yes	3.2	0.001	2.0	GoodResponse	1	0.106	409.657	3	43	Fixation	Win	False
410.657	0.3	Win2	0.6136	0.0	Yes	3.2	0.001	2.0	GoodResponse	1	0.106	n/a	3	43	ButtonPress	Win	False
414.546	0.35	Win2	0.6136	0.004	Yes	3.2	-0.004	2.0	GoodResponse	1	0.114	413.66	3	43	Target	Win	False
414.66	0.3	Win2	0.6136	0.004	Yes	3.2	-0.004	2.0	GoodResponse	1	0.114	n/a	3	43	ButtonPress	Win	False
414.897	0.35	Win2	0.6136	n/a	Yes	3.2	n/a	n/a	GoodResponse	1	n/a	n/a	3	43	Blank	Win	False
415.248	1.45	Win2	0.6136	n/a	Yes	3.2	n/a	5.0	GoodResponse	1	0.042	414.29	3	43	Feedback	Win	False
416.703	3.2	Win2	0.6136	n/a	Yes	3.2	n/a	2.0	GoodResponse	1	0.326	n/a	3	43	ISIslide	Win	False
419.896	0.25	Win2	0.6	0.0	No	3.004	-0.004	2.0	PrematurePress	0	0.172	419.068	3	44	Cue	MissedWin	False
420.068	0.3	Win2	0.6	0.0	No	3.004	-0.004	2.0	PrematurePress	0	0.172	n/a	3	44	ButtonPress	MissedWin	False
420.146	4.0	Win2	0.6	0.001	No	3.004	0.0	2.0	PrematurePress	0	0.26	419.406	3	44	Fixation	MissedWin	False
420.406	0.3	Win2	0.6	0.001	No	3.004	0.0	2.0	PrematurePress	0	0.26	n/a	3	44	ButtonPress	MissedWin	False
424.142	0.36	Win2	0.6	0.004	No	3.004	-0.004	2.0	PrematurePress	0	0.078	423.22	3	44	Target	MissedWin	False
424.22	0.3	Win2	0.6	0.004	No	3.004	-0.004	2.0	PrematurePress	0	0.078	n/a	3	44	ButtonPress	MissedWin	False
424.51	0.34	Win2	0.6	n/a	No	3.004	n/a	n/a	PrematurePress	0	n/a	n/a	3	44	Blank	MissedWin	False
424.844	1.45	Win2	0.6	n/a	No	3.004	n/a	5.0	PrematurePress	0	0.007	423.851	3	44	Feedback	MissedWin	False
426.298	3.004	Win2	0.6	n/a	No	3.004	n/a	2.0	PrematurePress	0	0.209	n/a	3	44	ISIslide	MissedWin	False
429.307	0.25	Control	0.5870000000000001	0.0	No	2.893	0.007	n/a	NoResponse	0	n/a	n/a	3	45	Cue	Neutral	False
429.558	4.1	Control	0.5870000000000001	0.0	No	2.893	0.001	n/a	NoResponse	0	n/a	n/a	3	45	Fixation	Neutral	False
433.654	0.37	Control	0.5870000000000001	0.003	No	2.893	-0.003	n/a	NoResponse	0	n/a	n/a	3	45	Target	Neutral	False
434.038	0.33	Control	0.5870000000000001	n/a	No	2.893	n/a	n/a	NoResponse	0	n/a	n/a	3	45	Blank	Neutral	False
434.356	1.45	Control	0.5870000000000001	n/a	No	2.893	n/a	5.0	NoResponse	0	0.007	433.363	3	45	Feedback	Neutral	False
435.81	2.893	Control	0.5870000000000001	n/a	No	2.893	n/a	n/a	NoResponse	0	0.0	n/a	3	45	ISIslide	Neutral	False
438.719	0.25	Lose2	0.5745	0.0	No	3.381	0.019	n/a	NoResponse	-1	n/a	n/a	2	46	Cue	Loss	False
438.97	4.0	Lose2	0.5745	0.0	No	3.381	0.001	n/a	NoResponse	-1	n/a	n/a	2	46	Fixation	Loss	False
442.965	0.38	Lose2	0.5745	0.004	No	3.381	-0.004	n/a	NoResponse	-1	n/a	n/a	2	46	Target	Loss	False
443.349	0.32	Lose2	0.5745	n/a	No	3.381	n/a	n/a	NoResponse	-1	n/a	n/a	2	46	Blank	Loss	False
443.667	1.45	Lose2	0.5745	n/a	No	3.381	n/a	5.0	NoResponse	-1	0.014	442.681	2	46	Feedback	Loss	False
445.121	3.381	Lose2	0.5745	n/a	No	3.381	n/a	n/a	NoResponse	-1	0.0	n/a	2	46	ISIslide	Loss	False
448.515	0.25	Lose2	0.5832999999999999	0.0	Yes	2.685	0.015	n/a	GoodResponse	0	n/a	n/a	2	47	Cue	AvoidedLoss	False
448.766	4.0	Lose2	0.5832999999999999	0.0	Yes	2.685	0.001	2.0	GoodResponse	0	1.139	448.905	2	47	Fixation	AvoidedLoss	False
449.905	0.3	Lose2	0.5832999999999999	0.0	Yes	2.685	0.001	2.0	GoodResponse	0	1.139	n/a	2	47	ButtonPress	AvoidedLoss	False
452.761	0.39	Lose2	0.5832999999999999	0.004	Yes	2.685	-0.004	2.0	GoodResponse	0	0.102	451.863	2	47	Target	AvoidedLoss	False
452.863	0.3	Lose2	0.5832999999999999	0.004	Yes	2.685	-0.004	2.0	GoodResponse	0	0.102	n/a	2	47	ButtonPress	AvoidedLoss	False
453.162	0.31	Lose2	0.5832999999999999	n/a	Yes	2.685	n/a	n/a	GoodResponse	0	n/a	n/a	2	47	Blank	AvoidedLoss	False
453.463	1.45	Lose2	0.5832999999999999	n/a	Yes	2.685	n/a	5.0	GoodResponse	0	0.023	452.486	2	47	Feedback	AvoidedLoss	False
454.917	2.685	Lose2	0.5832999999999999	n/a	Yes	2.685	n/a	n/a	GoodResponse	0	0.0	n/a	2	47	ISIslide	AvoidedLoss	False
457.625	0.25	Lose2	0.5918	0.0	Yes	3.025	0.025	n/a	GoodResponse	0	n/a	n/a	2	48	Cue	AvoidedLoss	False
457.876	3.95	Lose2	0.5918	0.0	Yes	3.025	0.001	2.0	GoodResponse	0	1.433	458.309	2	48	Fixation	AvoidedLoss	False
459.309	0.3	Lose2	0.5918	0.0	Yes	3.025	0.001	2.0	GoodResponse	0	1.433	n/a	2	48	ButtonPress	AvoidedLoss	False
461.821	0.4	Lose2	0.5918	0.004	Yes	3.025	-0.004	2.0	GoodResponse	0	0.12	460.941	2	48	Target	AvoidedLoss	False
461.941	0.3	Lose2	0.5918	0.004	Yes	3.025	-0.004	2.0	GoodResponse	0	0.12	n/a	2	48	ButtonPress	AvoidedLoss	False
462.223	0.3	Lose2	0.5918	n/a	Yes	3.025	n/a	n/a	GoodResponse	0	n/a	n/a	2	48	Blank	AvoidedLoss	False
462.523	1.45	Lose2	0.5918	n/a	Yes	3.025	n/a	5.0	GoodResponse	0	0.035	461.558	2	48	Feedback	AvoidedLoss	False
463.978	3.025	Lose2	0.5918	n/a	Yes	3.025	n/a	2.0	GoodResponse	0	1.903	n/a	2	48	ISIslide	AvoidedLoss	False
467.004	0.25	Control	0.58	0.0	No	2.896	0.004	2.0	PrematurePress	0	0.221	466.225	2	49	Cue	Neutral	False
467.225	0.3	Control	0.58	0.0	No	2.896	0.004	2.0	PrematurePress	0	0.221	n/a	2	49	ButtonPress	Neutral	False
467.254	4.0	Control	0.58	0.0	No	2.896	0.0	2.0	PrematurePress	0	0.408	466.662	2	49	Fixation	Neutral	False
467.662	0.3	Control	0.58	0.0	No	2.896	0.0	2.0	PrematurePress	0	0.408	n/a	2	49	ButtonPress	Neutral	False
471.25	0.41	Control	0.58	0.004	No	2.896	-0.004	2.0	PrematurePress	0	0.086	470.336	2	49	Target	Neutral	False
471.336	0.3	Control	0.58	0.004	No	2.896	-0.004	2.0	PrematurePress	0	0.086	n/a	2	49	ButtonPress	Neutral	False
471.667	0.29	Control	0.58	n/a	No	2.896	n/a	n/a	PrematurePress	0	n/a	n/a	2	49	Blank	Neutral	False
471.952	1.45	Control	0.58	n/a	No	2.896	n/a	5.0	PrematurePress	0	0.021	470.973	2	49	Feedback	Neutral	False
473.406	2.896	Control	0.58	n/a	No	2.896	n/a	2.0	PrematurePress	0	0.565	n/a	2	49	ISIslide	Neutral	False
476.298	0.25	Control	0.5882000000000001	0.0	Yes	2.802	-0.002	2.0	GoodResponse	0	0.193	475.491	2	50	Cue	Neutral	False
476.491	0.3	Control	0.5882000000000001	0.0	Yes	2.802	-0.002	2.0	GoodResponse	0	0.193	n/a	2	50	ButtonPress	Neutral	False
476.549	4.0	Control	0.5882000000000001	0.0	Yes	2.802	0.001	2.0	GoodResponse	0	0.369	475.918	2	50	Fixation	Neutral	False
476.918	0.3	Control	0.5882000000000001	0.0	Yes	2.802	0.001	2.0	GoodResponse	0	0.369	n/a	2	50	ButtonPress	Neutral	False
480.544	0.42	Control	0.5882000000000001	0.004	Yes	2.802	-0.004	2.0	GoodResponse	0	0.189	479.733	2	50	Target	Neutral	False
480.733	0.3	Control	0.5882000000000001	0.004	Yes	2.802	-0.004	2.0	GoodResponse	0	0.189	n/a	2	50	ButtonPress	Neutral	False
480.979	0.28	Control	0.5882000000000001	n/a	Yes	2.802	n/a	n/a	GoodResponse	0	n/a	n/a	2	50	Blank	Neutral	False
481.246	1.45	Control	0.5882000000000001	n/a	Yes	2.802	n/a	5.0	GoodResponse	0	0.044	480.29	2	50	Feedback	Neutral	False
482.701	2.802	Control	0.5882000000000001	n/a	Yes	2.802	n/a	2.0	GoodResponse	0	0.09	n/a	2	50	ISIslide	Neutral	False
485.509	0.25	Control	0.5769	0.0	No	2.741	0.009	n/a	PrematurePress	0	n/a	n/a	2	51	Cue	Neutral	False
485.76	3.95	Control	0.5769	0.0	No	2.741	0.001	2.0	PrematurePress	0	0.182	484.942	2	51	Fixation	Neutral	False
485.942	0.3	Control	0.5769	0.0	No	2.741	0.001	2.0	PrematurePress	0	0.182	n/a	2	51	ButtonPress	Neutral	False
489.705	0.43	Control	0.5769	0.004	No	2.741	-0.004	2.0	PrematurePress	0	0.06	488.765	2	51	Target	Neutral	False
489.765	0.3	Control	0.5769	0.004	No	2.741	-0.004	2.0	PrematurePress	0	0.06	n/a	2	51	ButtonPress	Neutral	False
490.14	0.27	Control	0.5769	n/a	No	2.741	n/a	n/a	PrematurePress	0	n/a	n/a	2	51	Blank	Neutral	False
490.407	1.45	Control	0.5769	n/a	No	2.741	n/a	5.0	PrematurePress	0	0.005	489.412	2	51	Feedback	Neutral	False
491.861	2.741	Control	0.5769	n/a	No	2.741	n/a	2.0	PrematurePress	0	0.012	n/a	2	51	ISIslide	Neutral	False
494.603	0.25	Control	0.5849	0.0	Yes	2.647	0.003	n/a	GoodResponse	0	n/a	n/a	2	52	Cue	Neutral	False
494.854	4.05	Control	0.5849	0.0	Yes	2.647	0.001	2.0	GoodResponse	0	0.257	494.111	2	52	Fixation	Neutral	False
495.111	0.3	Control	0.5849	0.0	Yes	2.647	0.001	2.0	GoodResponse	0	0.257	n/a	2	52	ButtonPress	Neutral	False
498.899	0.44	Control	0.5849	0.004	Yes	2.647	-0.004	2.0	GoodResponse	0	0.229	498.128	2	52	Target	Neutral	False
499.128	0.3	Control	0.5849	0.004	Yes	2.647	-0.004	2.0	GoodResponse	0	0.229	n/a	2	52	ButtonPress	Neutral	False
499.35	0.26	Control	0.5849	n/a	Yes	2.647	n/a	n/a	GoodResponse	0	n/a	n/a	2	52	Blank	Neutral	False
499.601	1.45	Control	0.5849	n/a	Yes	2.647	n/a	5.0	GoodResponse	0	0.03	498.631	2	52	Feedback	Neutral	False
501.056	2.647	Control	0.5849	n/a	Yes	2.647	n/a	n/a	GoodResponse	0	0.0	n/a	2	52	ISIslide	Neutral	False
503.714	0.25	Win2	0.5740999999999999	0.0	No	2.936	0.014	n/a	PrematurePress	0	n/a	n/a	2	53	Cue	MissedWin	False
503.964	4.05	Win2	0.5740999999999999	0.0	No	2.936	0.0	2.0	PrematurePress	0	0.439	503.403	2	53	Fixation	MissedWin	False
504.403	0.3	Win2	0.5740999999999999	0.0	No	2.936	0.0	2.0	PrematurePress	0	0.439	n/a	2	53	ButtonPress	MissedWin	False
508.01	0.45	Win2	0.5740999999999999	0.004	No	2.936	-0.004	2.0	PrematurePress	0	0.066	507.076	2	53	Target	MissedWin	False
508.076	0.3	Win2	0.5740999999999999	0.004	No	2.936	-0.004	2.0	PrematurePress	0	0.066	n/a	2	53	ButtonPress	MissedWin	False
508.461	0.25	Win2	0.5740999999999999	n/a	No	2.936	n/a	n/a	PrematurePress	0	n/a	n/a	2	53	Blank	MissedWin	False
508.712	1.45	Win2	0.5740999999999999	n/a	No	2.936	n/a	2.0	PrematurePress	0	0.04	507.752	2	53	Feedback	MissedWin	False
508.752	0.3	Win2	0.5740999999999999	n/a	No	2.936	n/a	2.0	PrematurePress	0	0.04	n/a	2	53	ButtonPress	MissedWin	False
510.166	2.936	Win2	0.5740999999999999	n/a	No	2.936	n/a	n/a	PrematurePress	0	0.0	n/a	2	53	ISIslide	MissedWin	False
513.125	0.25	Win2	0.5818	0.0	Yes	2.725	0.025	n/a	GoodResponse	1	n/a	n/a	3	54	Cue	Win	False
513.376	3.95	Win2	0.5818	0.0	Yes	2.725	0.001	2.0	GoodResponse	1	1.613	513.989	3	54	Fixation	Win	False
514.989	0.3	Win2	0.5818	0.0	Yes	2.725	0.001	2.0	GoodResponse	1	1.613	n/a	3	54	ButtonPress	Win	False
517.321	0.46	Win2	0.5818	0.004	Yes	2.725	-0.004	2.0	GoodResponse	1	0.188	516.509	3	54	Target	Win	False
517.509	0.3	Win2	0.5818	0.004	Yes	2.725	-0.004	2.0	GoodResponse	1	0.188	n/a	3	54	ButtonPress	Win	False
517.789	0.24	Win2	0.5818	n/a	Yes	2.725	n/a	n/a	GoodResponse	1	n/a	n/a	3	54	Blank	Win	False
518.023	1.45	Win2	0.5818	n/a	Yes	2.725	n/a	5.0	GoodResponse	1	0.048	517.071	3	54	Feedback	Win	False
519.477	2.725	Win2	0.5818	n/a	Yes	2.725	n/a	n/a	GoodResponse	1	0.0	n/a	3	54	ISIslide	Win	False
522.219	0.25	Control	0.5714	0.0	No	3.031	0.019	n/a	PrematurePress	0	n/a	n/a	3	55	Cue	Neutral	False
522.47	3.95	Control	0.5714	0.0	No	3.031	0.001	2.0	PrematurePress	0	1.022	522.492	3	55	Fixation	Neutral	False
523.492	0.3	Control	0.5714	0.0	No	3.031	0.001	2.0	PrematurePress	0	1.022	n/a	3	55	ButtonPress	Neutral	False
526.415	0.47	Control	0.5714	0.004	No	3.031	-0.004	2.0	PrematurePress	0	0.016	525.431	3	55	Target	Neutral	False
526.431	0.3	Control	0.5714	0.004	No	3.031	-0.004	2.0	PrematurePress	0	0.016	n/a	3	55	ButtonPress	Neutral	False
526.9	0.23	Control	0.5714	n/a	No	3.031	n/a	n/a	PrematurePress	0	n/a	n/a	3	55	Blank	Neutral	False
527.117	1.45	Control	0.5714	n/a	No	3.031	n/a	5.0	PrematurePress	0	0.026	526.143	3	55	Feedback	Neutral	False
528.571	3.031	Control	0.5714	n/a	No	3.031	n/a	n/a	PrematurePress	0	0.0	n/a	3	55	ISIslide	Neutral	False
531.614	0.25	Control	0.5789	0.0	Yes	2.836	0.014	n/a	GoodResponse	0	n/a	n/a	3	56	Cue	Neutral	False
531.865	3.95	Control	0.5789	0.0	Yes	2.836	0.001	2.0	GoodResponse	0	0.275	531.14	3	56	Fixation	Neutral	False
532.14	0.3	Control	0.5789	0.0	Yes	2.836	0.001	2.0	GoodResponse	0	0.275	n/a	3	56	ButtonPress	Neutral	False
535.81	0.48	Control	0.5789	0.004	Yes	2.836	-0.004	2.0	GoodResponse	0	0.232	535.042	3	56	Target	Neutral	False
536.042	0.3	Control	0.5789	0.004	Yes	2.836	-0.004	2.0	GoodResponse	0	0.232	n/a	3	56	ButtonPress	Neutral	False
536.294	0.22	Control	0.5789	n/a	Yes	2.836	n/a	n/a	GoodResponse	0	n/a	n/a	3	56	Blank	Neutral	False
536.512	1.45	Control	0.5789	n/a	Yes	2.836	n/a	2.0	GoodResponse	0	0.012	535.524	3	56	Feedback	Neutral	False
536.524	0.3	Control	0.5789	n/a	Yes	2.836	n/a	2.0	GoodResponse	0	0.012	n/a	3	56	ButtonPress	Neutral	False
537.966	2.836	Control	0.5789	n/a	Yes	2.836	n/a	2.0	GoodResponse	0	2.312	n/a	3	56	ISIslide	Neutral	False
540.808	0.25	Control	0.569	0.0	No	3.492	0.008	2.0	NoResponse	0	0.158	539.966	3	57	Cue	Neutral	False
540.966	0.3	Control	0.569	0.0	No	3.492	0.008	2.0	NoResponse	0	0.158	n/a	3	57	ButtonPress	Neutral	False
541.059	4.0	Control	0.569	0.0	No	3.492	0.001	2.0	NoResponse	0	0.108	540.167	3	57	Fixation	Neutral	False
541.167	0.3	Control	0.569	0.0	No	3.492	0.001	2.0	NoResponse	0	0.108	n/a	3	57	ButtonPress	Neutral	False
545.054	0.49	Control	0.569	0.004	No	3.492	-0.004	2.0	NoResponse	0	0.53	544.584	3	57	Target	Neutral	False
545.556	0.21	Control	0.569	n/a	No	3.492	n/a	n/a	NoResponse	0	n/a	n/a	3	57	Blank	Neutral	False
545.584	0.3	Control	0.569	0.004	No	3.492	-0.004	2.0	NoResponse	0	0.53	n/a	3	57	ButtonPress	Neutral	False
545.756	1.45	Control	0.569	n/a	No	3.492	n/a	5.0	NoResponse	0	0.021	544.777	3	57	Feedback	Neutral	False
547.211	3.492	Control	0.569	n/a	No	3.492	n/a	n/a	NoResponse	0	0.0	n/a	3	57	ISIslide	Neutral	False
550.721	0.25	Win2	0.5593	0.0	No	2.729	0.021	n/a	PrematurePress	0	n/a	n/a	3	58	Cue	MissedWin	False
550.972	4.05	Win2	0.5593	0.0	No	2.729	0.001	2.0	PrematurePress	0	0.182	550.154	3	58	Fixation	MissedWin	False
551.154	0.3	Win2	0.5593	0.0	No	2.729	0.001	2.0	PrematurePress	0	0.182	n/a	3	58	ButtonPress	MissedWin	False
555.017	0.5	Win2	0.5593	0.004	No	2.729	-0.004	2.0	PrematurePress	0	0.032	554.049	3	58	Target	MissedWin	False
555.049	0.3	Win2	0.5593	0.004	No	2.729	-0.004	2.0	PrematurePress	0	0.032	n/a	3	58	ButtonPress	MissedWin	False
555.519	0.2	Win2	0.5593	n/a	No	2.729	n/a	n/a	PrematurePress	0	n/a	n/a	3	58	Blank	MissedWin	False
555.719	1.45	Win2	0.5593	n/a	No	2.729	n/a	5.0	PrematurePress	0	0.01	554.729	3	58	Feedback	MissedWin	False
557.174	2.729	Win2	0.5593	n/a	No	2.729	n/a	n/a	PrematurePress	0	0.0	n/a	3	58	ISIslide	MissedWin	False
559.915	0.25	Lose2	0.5667	0.0	Yes	2.685	0.015	n/a	GoodResponse	0	n/a	n/a	3	59	Cue	AvoidedLoss	True
560.166	4.0	Lose2	0.5667	0.0	Yes	2.685	0.001	n/a	GoodResponse	0	n/a	n/a	3	59	Fixation	AvoidedLoss	True
564.161	0.5	Lose2	0.5667	0.004	Yes	2.685	-0.004	2.0	GoodResponse	0	0.273	563.434	3	59	Target	AvoidedLoss	True
564.434	0.3	Lose2	0.5667	0.004	Yes	2.685	-0.004	2.0	GoodResponse	0	0.273	n/a	3	59	ButtonPress	AvoidedLoss	True
564.663	0.2	Lose2	0.5667	n/a	Yes	2.685	n/a	n/a	GoodResponse	0	n/a	n/a	3	59	Blank	AvoidedLoss	True
564.863	1.45	Lose2	0.5667	n/a	Yes	2.685	n/a	5.0	GoodResponse	0	0.036	563.899	3	59	Feedback	AvoidedLoss	True
566.318	2.685	Lose2	0.5667	n/a	Yes	2.685	n/a	n/a	GoodResponse	0	0.0	n/a	3	59	ISIslide	AvoidedLoss	True
569.026	0.25	Control	0.5738	0.0	Yes	2.674	0.026	n/a	GoodResponse	0	n/a	n/a	3	60	Cue	Neutral	True
569.277	4.0	Control	0.5738	0.0	Yes	2.674	0.001	n/a	GoodResponse	0	n/a	n/a	3	60	Fixation	Neutral	True
573.272	0.5	Control	0.5738	0.004	Yes	2.674	-0.004	2.0	GoodResponse	0	0.224	572.496	3	60	Target	Neutral	True
573.496	0.3	Control	0.5738	0.004	Yes	2.674	-0.004	2.0	GoodResponse	0	0.224	n/a	3	60	ButtonPress	Neutral	True
573.773	0.2	Control	0.5738	n/a	Yes	2.674	n/a	n/a	GoodResponse	0	n/a	n/a	3	60	Blank	Neutral	True
573.974	1.45	Control	0.5738	n/a	Yes	2.674	n/a	5.0	GoodResponse	0	0.047	573.021	3	60	Feedback	Neutral	True
575.428	2.674	Control	0.5738	n/a	Yes	2.674	n/a	n/a	GoodResponse	0	0.0	n/a	3	60	ISIslide	Neutral	True
578.12	0.25	Lose2	0.5806	0.0	Yes	2.98	0.02	n/a	GoodResponse	0	n/a	n/a	3	61	Cue	AvoidedLoss	True
578.371	4.0	Lose2	0.5806	0.0	Yes	2.98	0.001	n/a	GoodResponse	0	n/a	n/a	3	61	Fixation	AvoidedLoss	True
582.366	0.5	Lose2	0.5806	0.004	Yes	2.98	-0.004	2.0	GoodResponse	0	0.317	581.683	3	61	Target	AvoidedLoss	True
582.683	0.3	Lose2	0.5806	0.004	Yes	2.98	-0.004	2.0	GoodResponse	0	0.317	n/a	3	61	ButtonPress	AvoidedLoss	True
582.867	0.2	Lose2	0.5806	n/a	Yes	2.98	n/a	n/a	GoodResponse	0	n/a	n/a	3	61	Blank	AvoidedLoss	True
583.068	1.45	Lose2	0.5806	n/a	Yes	2.98	n/a	5.0	GoodResponse	0	0.026	582.094	3	61	Feedback	AvoidedLoss	True
584.522	2.98	Lose2	0.5806	n/a	Yes	2.98	n/a	n/a	GoodResponse	0	0.0	n/a	3	61	ISIslide	AvoidedLoss	True
587.515	0.25	Lose2	0.5714	0.0	No	2.885	0.015	n/a	NoResponse	-1	n/a	n/a	2	62	Cue	Loss	True
587.765	3.9	Lose2	0.5714	0.0	No	2.885	0.0	2.0	NoResponse	-1	1.133	587.898	2	62	Fixation	Loss	True
588.898	0.3	Lose2	0.5714	0.0	No	2.885	0.0	2.0	NoResponse	-1	1.133	n/a	2	62	ButtonPress	Loss	True
591.677	0.5	Lose2	0.5714	0.0	No	2.885	0.012	n/a	NoResponse	-1	n/a	n/a	2	62	Target	Loss	True
592.162	0.2	Lose2	0.5714	n/a	No	2.885	n/a	n/a	NoResponse	-1	n/a	n/a	2	62	Blank	Loss	True
592.362	1.45	Lose2	0.5714	n/a	No	2.885	n/a	5.0	NoResponse	-1	0.049	591.411	2	62	Feedback	Loss	True
593.817	2.885	Lose2	0.5714	n/a	No	2.885	n/a	n/a	NoResponse	-1	0.0	n/a	2	62	ISIslide	Loss	True
596.726	0.25	Lose2	0.5781000000000001	0.0	Yes	2.624	0.026	n/a	GoodResponse	0	n/a	n/a	2	63	Cue	AvoidedLoss	False
596.976	4.05	Lose2	0.5781000000000001	0.0	Yes	2.624	0.0	2.0	GoodResponse	0	0.2	596.176	2	63	Fixation	AvoidedLoss	False
597.176	0.3	Lose2	0.5781000000000001	0.0	Yes	2.624	0.0	2.0	GoodResponse	0	0.2	n/a	2	63	ButtonPress	AvoidedLoss	False
601.022	0.5	Lose2	0.5781000000000001	0.004	Yes	2.624	-0.004	2.0	GoodResponse	0	0.238	600.26	2	63	Target	AvoidedLoss	False
601.26	0.3	Lose2	0.5781000000000001	0.004	Yes	2.624	-0.004	2.0	GoodResponse	0	0.238	n/a	2	63	ButtonPress	AvoidedLoss	False
601.523	0.2	Lose2	0.5781000000000001	n/a	Yes	2.624	n/a	n/a	GoodResponse	0	n/a	n/a	2	63	Blank	AvoidedLoss	False
601.724	1.45	Lose2	0.5781000000000001	n/a	Yes	2.624	n/a	5.0	GoodResponse	0	0.004	600.728	2	63	Feedback	AvoidedLoss	False
603.178	2.624	Lose2	0.5781000000000001	n/a	Yes	2.624	n/a	n/a	GoodResponse	0	0.0	n/a	2	63	ISIslide	AvoidedLoss	False
605.819	0.25	Win2	0.5846	0.001	Yes	3.131	0.019	n/a	GoodResponse	1	n/a	n/a	3	64	Cue	Win	False
606.07	4.15	Win2	0.5846	0.0	Yes	3.131	0.001	2.0	GoodResponse	1	0.629	605.699	3	64	Fixation	Win	False
606.699	0.3	Win2	0.5846	0.0	Yes	3.131	0.001	2.0	GoodResponse	1	0.629	n/a	3	64	ButtonPress	Win	False
610.216	0.5	Win2	0.5846	0.003	Yes	3.131	-0.003	2.0	GoodResponse	1	0.134	609.35	3	64	Target	Win	False
610.35	0.3	Win2	0.5846	0.003	Yes	3.131	-0.003	2.0	GoodResponse	1	0.134	n/a	3	64	ButtonPress	Win	False
610.717	0.2	Win2	0.5846	n/a	Yes	3.131	n/a	n/a	GoodResponse	1	n/a	n/a	3	64	Blank	Win	False
610.918	1.45	Win2	0.5846	n/a	Yes	3.131	n/a	5.0	GoodResponse	1	0.03	609.948	3	64	Feedback	Win	False
612.372	3.131	Win2	0.5846	n/a	Yes	3.131	n/a	n/a	GoodResponse	1	0.0	n/a	3	64	ISIslide	Win	False
615.515	0.25	Control	0.5758	0.0	No	2.785	0.015	n/a	PrematurePress	0	n/a	n/a	3	65	Cue	Neutral	False
615.766	4.0	Control	0.5758	0.0	No	2.785	0.001	2.0	PrematurePress	0	0.164	614.93	3	65	Fixation	Neutral	False
615.93	0.3	Control	0.5758	0.0	No	2.785	0.001	2.0	PrematurePress	0	0.164	n/a	3	65	ButtonPress	Neutral	False
619.761	0.5	Control	0.5758	0.004	No	2.785	-0.004	2.0	PrematurePress	0	0.033	618.794	3	65	Target	Neutral	False
619.794	0.3	Control	0.5758	0.004	No	2.785	-0.004	2.0	PrematurePress	0	0.033	n/a	3	65	ButtonPress	Neutral	False
620.263	0.2	Control	0.5758	n/a	No	2.785	n/a	n/a	PrematurePress	0	n/a	n/a	3	65	Blank	Neutral	False
620.463	1.45	Control	0.5758	n/a	No	2.785	n/a	5.0	PrematurePress	0	0.046	619.509	3	65	Feedback	Neutral	False
621.918	2.785	Control	0.5758	n/a	No	2.785	n/a	n/a	PrematurePress	0	0.0	n/a	3	65	ISIslide	Neutral	False
624.726	0.25	Win2	0.5821000000000001	0.0	Yes	2.774	0.026	n/a	GoodResponse	1	n/a	n/a	4	66	Cue	Win	False
624.977	3.9	Win2	0.5821000000000001	0.0	Yes	2.774	0.001	2.0	GoodResponse	1	1.22	625.197	4	66	Fixation	Win	False
626.197	0.3	Win2	0.5821000000000001	0.0	Yes	2.774	0.001	2.0	GoodResponse	1	1.22	n/a	4	66	ButtonPress	Win	False
628.872	0.5	Win2	0.5821000000000001	0.004	Yes	2.774	-0.004	2.0	GoodResponse	1	0.154	628.026	4	66	Target	Win	False
629.026	0.3	Win2	0.5821000000000001	0.004	Yes	2.774	-0.004	2.0	GoodResponse	1	0.154	n/a	4	66	ButtonPress	Win	False
629.373	0.2	Win2	0.5821000000000001	n/a	Yes	2.774	n/a	n/a	GoodResponse	1	n/a	n/a	4	66	Blank	Win	False
629.574	1.45	Win2	0.5821000000000001	n/a	Yes	2.774	n/a	5.0	GoodResponse	1	0.008	628.582	4	66	Feedback	Win	False
631.028	2.774	Win2	0.5821000000000001	n/a	Yes	2.774	n/a	n/a	GoodResponse	1	0.0	n/a	4	66	ISIslide	Win	False
633.82	0.25	Control	0.5882000000000001	0.0	Yes	2.73	0.02	n/a	GoodResponse	0	n/a	n/a	4	67	Cue	Neutral	False
634.071	3.95	Control	0.5882000000000001	0.0	Yes	2.73	0.001	2.0	GoodResponse	0	2.306	635.377	4	67	Fixation	Neutral	False
636.377	0.3	Control	0.5882000000000001	0.0	Yes	2.73	0.001	2.0	GoodResponse	0	2.306	n/a	4	67	ButtonPress	Neutral	False
638.016	0.5	Control	0.5882000000000001	0.004	Yes	2.73	-0.004	2.0	GoodResponse	0	0.176	637.192	4	67	Target	Neutral	False
638.192	0.3	Control	0.5882000000000001	0.004	Yes	2.73	-0.004	2.0	GoodResponse	0	0.176	n/a	4	67	ButtonPress	Neutral	False
638.517	0.2	Control	0.5882000000000001	n/a	Yes	2.73	n/a	n/a	GoodResponse	0	n/a	n/a	4	67	Blank	Neutral	False
638.718	1.45	Control	0.5882000000000001	n/a	Yes	2.73	n/a	5.0	GoodResponse	0	0.035	637.753	4	67	Feedback	Neutral	False
640.172	2.73	Control	0.5882000000000001	n/a	Yes	2.73	n/a	n/a	GoodResponse	0	0.0	n/a	4	67	ISIslide	Neutral	False
642.914	0.25	Win2	0.5942000000000001	0.0	Yes	3.086	0.014	n/a	GoodResponse	1	n/a	n/a	5	68	Cue	Win	False
643.165	4.0	Win2	0.5942000000000001	0.0	Yes	3.086	0.001	2.0	GoodResponse	1	0.076	642.241	5	68	Fixation	Win	False
643.241	0.3	Win2	0.5942000000000001	0.0	Yes	3.086	0.001	2.0	GoodResponse	1	0.076	n/a	5	68	ButtonPress	Win	False
647.16	0.5	Win2	0.5942000000000001	0.004	Yes	3.086	-0.004	2.0	GoodResponse	1	0.108	646.268	5	68	Target	Win	False
647.268	0.3	Win2	0.5942000000000001	0.004	Yes	3.086	-0.004	2.0	GoodResponse	1	0.108	n/a	5	68	ButtonPress	Win	False
647.662	0.2	Win2	0.5942000000000001	n/a	Yes	3.086	n/a	n/a	GoodResponse	1	n/a	n/a	5	68	Blank	Win	False
647.862	1.45	Win2	0.5942000000000001	n/a	Yes	3.086	n/a	5.0	GoodResponse	1	0.012	646.874	5	68	Feedback	Win	False
649.316	3.086	Win2	0.5942000000000001	n/a	Yes	3.086	n/a	n/a	GoodResponse	1	0.0	n/a	5	68	ISIslide	Win	False
652.426	0.25	Win2	0.6	0.0	Yes	3.224	0.026	n/a	GoodResponse	1	n/a	n/a	6	69	Cue	Win	False
652.677	3.95	Win2	0.6	0.0	Yes	3.224	0.001	2.0	GoodResponse	1	0.186	651.863	6	69	Fixation	Win	False
652.863	0.3	Win2	0.6	0.0	Yes	3.224	0.001	2.0	GoodResponse	1	0.186	n/a	6	69	ButtonPress	Win	False
656.622	0.5	Win2	0.6	0.004	Yes	3.224	-0.004	2.0	GoodResponse	1	0.2	655.822	6	69	Target	Win	False
656.822	0.3	Win2	0.6	0.004	Yes	3.224	-0.004	2.0	GoodResponse	1	0.2	n/a	6	69	ButtonPress	Win	False
657.123	0.2	Win2	0.6	n/a	Yes	3.224	n/a	n/a	GoodResponse	1	n/a	n/a	6	69	Blank	Win	False
657.324	1.45	Win2	0.6	n/a	Yes	3.224	n/a	5.0	GoodResponse	1	0.013	656.337	6	69	Feedback	Win	False
658.778	3.224	Win2	0.6	n/a	Yes	3.224	n/a	2.0	GoodResponse	1	2.661	n/a	6	69	ISIslide	Win	False
662.004	0.25	Lose2	0.5915	0.001	No	3.046	0.004	2.0	PrematurePress	-1	0.006	661.01	5	70	Cue	Loss	False
662.01	0.3	Lose2	0.5915	0.001	No	3.046	0.004	2.0	PrematurePress	-1	0.006	n/a	5	70	ButtonPress	Loss	False
662.255	4.05	Lose2	0.5915	0.0	No	3.046	0.001	2.0	PrematurePress	-1	0.249	661.504	5	70	Fixation	Loss	False
662.504	0.3	Lose2	0.5915	0.0	No	3.046	0.001	2.0	PrematurePress	-1	0.249	n/a	5	70	ButtonPress	Loss	False
666.301	0.5	Lose2	0.5915	0.003	No	3.046	-0.003	2.0	PrematurePress	-1	0.094	665.395	5	70	Target	Loss	False
666.395	0.3	Lose2	0.5915	0.003	No	3.046	-0.003	2.0	PrematurePress	-1	0.094	n/a	5	70	ButtonPress	Loss	False
666.802	0.2	Lose2	0.5915	n/a	No	3.046	n/a	n/a	PrematurePress	-1	n/a	n/a	5	70	Blank	Loss	False
667.003	1.45	Lose2	0.5915	n/a	No	3.046	n/a	5.0	PrematurePress	-1	0.042	666.045	5	70	Feedback	Loss	False
668.457	3.046	Lose2	0.5915	n/a	No	3.046	n/a	2.0	PrematurePress	-1	0.053	n/a	5	70	ISIslide	Loss	False
671.5	0.25	Win2	0.5832999999999999	0.0	No	2.75	0.0	2.0	PrematurePress	0	0.024	670.524	5	71	Cue	MissedWin	False
671.524	0.3	Win2	0.5832999999999999	0.0	No	2.75	0.0	2.0	PrematurePress	0	0.024	n/a	5	71	ButtonPress	MissedWin	False
671.75	4.05	Win2	0.5832999999999999	0.0	No	2.75	0.0	2.0	PrematurePress	0	0.007	670.757	5	71	Fixation	MissedWin	False
671.757	0.3	Win2	0.5832999999999999	0.0	No	2.75	0.0	2.0	PrematurePress	0	0.007	n/a	5	71	ButtonPress	MissedWin	False
675.796	0.5	Win2	0.5832999999999999	0.004	No	2.75	-0.004	2.0	PrematurePress	0	0.035	674.831	5	71	Target	MissedWin	False
675.831	0.3	Win2	0.5832999999999999	0.004	No	2.75	-0.004	2.0	PrematurePress	0	0.035	n/a	5	71	ButtonPress	MissedWin	False
676.297	0.2	Win2	0.5832999999999999	n/a	No	2.75	n/a	n/a	PrematurePress	0	n/a	n/a	5	71	Blank	MissedWin	False
676.498	1.45	Win2	0.5832999999999999	n/a	No	2.75	n/a	5.0	PrematurePress	0	0.01	675.508	5	71	Feedback	MissedWin	False
677.952	2.75	Win2	0.5832999999999999	n/a	No	2.75	n/a	n/a	PrematurePress	0	0.0	n/a	5	71	ISIslide	MissedWin	False
680.727	0.25	Win2	0.5753	0.0	No	2.773	0.027	n/a	NoResponse	0	n/a	n/a	5	72	Cue	MissedWin	False
680.978	4.1	Win2	0.5753	0.0	No	2.773	0.001	n/a	NoResponse	0	n/a	n/a	5	72	Fixation	MissedWin	False
685.074	0.5	Win2	0.5753	0.003	No	2.773	-0.003	n/a	NoResponse	0	n/a	n/a	5	72	Target	MissedWin	False
685.575	0.2	Win2	0.5753	n/a	No	2.773	n/a	n/a	NoResponse	0	n/a	n/a	5	72	Blank	MissedWin	False
685.776	1.45	Win2	0.5753	n/a	No	2.773	n/a	5.0	NoResponse	0	0.001	684.777	5	72	Feedback	MissedWin	False
687.23	2.773	Win2	0.5753	n/a	No	2.773	n/a	n/a	NoResponse	0	0.0	n/a	5	72	ISIslide	MissedWin	False
690.022	0.25	Win2	0.5676	0.0	No	2.678	0.022	n/a	NoResponse	0	n/a	n/a	5	73	Cue	MissedWin	False
690.273	4.0	Win2	0.5676	0.0	No	2.678	0.001	n/a	NoResponse	0	n/a	n/a	5	73	Fixation	MissedWin	False
694.268	0.5	Win2	0.5676	0.004	No	2.678	-0.004	n/a	NoResponse	0	n/a	n/a	5	73	Target	MissedWin	False
694.769	0.2	Win2	0.5676	n/a	No	2.678	n/a	n/a	NoResponse	0	n/a	n/a	5	73	Blank	MissedWin	False
694.97	1.45	Win2	0.5676	n/a	No	2.678	n/a	5.0	NoResponse	0	0.026	693.996	5	73	Feedback	MissedWin	False
696.424	2.678	Win2	0.5676	n/a	No	2.678	n/a	n/a	NoResponse	0	0.0	n/a	5	73	ISIslide	MissedWin	False
699.116	0.25	Lose2	0.56	0.0	No	2.634	0.016	n/a	NoResponse	-1	n/a	n/a	4	74	Cue	Loss	False
699.366	4.05	Lose2	0.56	0.001	No	2.634	0.0	n/a	NoResponse	-1	n/a	n/a	4	74	Fixation	Loss	False
703.412	0.5	Lose2	0.56	0.004	No	2.634	-0.004	n/a	NoResponse	-1	n/a	n/a	4	74	Target	Loss	False
703.913	0.2	Lose2	0.56	n/a	No	2.634	n/a	n/a	NoResponse	-1	n/a	n/a	4	74	Blank	Loss	False
704.114	1.45	Lose2	0.56	n/a	No	2.634	n/a	5.0	NoResponse	-1	0.004	703.118	4	74	Feedback	Loss	False
705.568	2.634	Lose2	0.56	n/a	No	2.634	n/a	n/a	NoResponse	-1	0.0	n/a	4	74	ISIslide	Loss	False
708.226	0.25	Lose2	0.5526	0.0	No	2.924	0.026	n/a	NoResponse	-1	n/a	n/a	3	75	Cue	Loss	False
708.477	3.95	Lose2	0.5526	0.0	No	2.924	0.001	n/a	NoResponse	-1	n/a	n/a	3	75	Fixation	Loss	False
712.422	0.5	Lose2	0.5526	0.004	No	2.924	-0.004	n/a	NoResponse	-1	n/a	n/a	3	75	Target	Loss	False
712.924	0.2	Lose2	0.5526	n/a	No	2.924	n/a	n/a	NoResponse	-1	n/a	n/a	3	75	Blank	Loss	False
713.124	1.45	Lose2	0.5526	n/a	No	2.924	n/a	5.0	NoResponse	-1	0.018	712.142	3	75	Feedback	Loss	False
714.579	2.924	Lose2	0.5526	n/a	No	2.924	n/a	n/a	NoResponse	-1	0.0	n/a	3	75	ISIslide	Loss	False
717.521	0.25	Control	0.5455	0.0	No	3.229	0.021	n/a	NoResponse	0	n/a	n/a	3	76	Cue	Neutral	False
717.772	4.05	Control	0.5455	0.0	No	3.229	0.001	n/a	NoResponse	0	n/a	n/a	3	76	Fixation	Neutral	False
721.817	0.5	Control	0.5455	0.004	No	3.229	-0.004	n/a	NoResponse	0	n/a	n/a	3	76	Target	Neutral	False
722.319	0.2	Control	0.5455	n/a	No	3.229	n/a	n/a	NoResponse	0	n/a	n/a	3	76	Blank	Neutral	False
722.519	1.45	Control	0.5455	n/a	No	3.229	n/a	5.0	NoResponse	0	0.038	721.557	3	76	Feedback	Neutral	False
723.974	3.229	Control	0.5455	n/a	No	3.229	n/a	n/a	NoResponse	0	0.0	n/a	3	76	ISIslide	Neutral	False
727.217	0.25	Lose2	0.5385	0.0	No	2.583	0.017	n/a	NoResponse	-1	n/a	n/a	2	77	Cue	Loss	False
727.467	3.95	Lose2	0.5385	0.0	No	2.583	0.0	n/a	NoResponse	-1	n/a	n/a	2	77	Fixation	Loss	False
731.429	0.5	Lose2	0.5385	0.0	No	2.583	0.012	n/a	NoResponse	-1	n/a	n/a	2	77	Target	Loss	False
731.914	0.2	Lose2	0.5385	n/a	No	2.583	n/a	n/a	NoResponse	-1	n/a	n/a	2	77	Blank	Loss	False
732.115	1.45	Lose2	0.5385	n/a	No	2.583	n/a	5.0	NoResponse	-1	0.005	731.12	2	77	Feedback	Loss	False
733.569	2.583	Lose2	0.5385	n/a	No	2.583	n/a	2.0	NoResponse	-1	2.454	n/a	2	77	ISIslide	Loss	False
