onset	duration	cue_type	current_mean_accuracy	duration_error	is_hit	isi_adjusted	onset_delay	response	response_type	reward	rt	rt_time	total_reward	trial_number	trial_phase	trial_type	one_press
11.101	0.25	Control	1.0	0.0	Yes	2.949	0.001	n/a	GoodResponse	0	n/a	n/a	0	0	Cue	Neutral	True
11.352	3.85	Control	1.0	0.0	Yes	2.949	0.001	n/a	GoodResponse	0	n/a	n/a	0	0	Fixation	Neutral	True
15.197	0.4	Control	1.0	0.004	Yes	2.949	-0.004	4.0	GoodResponse	0	0.228	14.425	0	0	Target	Neutral	True
15.425	0.3	Control	1.0	0.004	Yes	2.949	-0.004	4.0	GoodResponse	0	0.228	n/a	0	0	ButtonPress	Neutral	True
15.598	0.3	Control	1.0	n/a	Yes	2.949	n/a	n/a	GoodResponse	0	n/a	n/a	0	0	Blank	Neutral	True
15.899	1.45	Control	1.0	n/a	Yes	2.949	n/a	5.0	GoodResponse	0	0.028	14.927	0	0	Feedback	Neutral	True
17.353	2.949	Control	1.0	n/a	Yes	2.949	n/a	n/a	GoodResponse	0	0.0	n/a	0	0	ISIslide	Neutral	True
20.329	0.25	Lose2	1.0	0.0	Yes	2.771	0.029	n/a	GoodResponse	0	n/a	n/a	0	1	Cue	AvoidedLoss	True
20.579	4.0	Lose2	1.0	0.0	Yes	2.771	0.0	n/a	GoodResponse	0	n/a	n/a	0	1	Fixation	AvoidedLoss	True
24.575	0.39	Lose2	1.0	0.004	Yes	2.771	-0.004	4.0	GoodResponse	0	0.231	23.806	0	1	Target	AvoidedLoss	True
24.806	0.3	Lose2	1.0	0.004	Yes	2.771	-0.004	4.0	GoodResponse	0	0.231	n/a	0	1	ButtonPress	AvoidedLoss	True
24.976	0.31	Lose2	1.0	n/a	Yes	2.771	n/a	n/a	GoodResponse	0	n/a	n/a	0	1	Blank	AvoidedLoss	True
25.277	1.45	Lose2	1.0	n/a	Yes	2.771	n/a	5.0	GoodResponse	0	0.016	24.293	0	1	Feedback	AvoidedLoss	True
26.731	2.771	Lose2	1.0	n/a	Yes	2.771	n/a	n/a	GoodResponse	0	0.0	n/a	0	1	ISIslide	AvoidedLoss	True
29.523	0.25	Control	1.0	0.0	Yes	2.577	0.023	n/a	GoodResponse	0	n/a	n/a	0	2	Cue	Neutral	True
29.774	4.1	Control	1.0	0.0	Yes	2.577	0.001	n/a	GoodResponse	0	n/a	n/a	0	2	Fixation	Neutral	True
33.869	0.38	Control	1.0	0.004	Yes	2.577	-0.004	4.0	GoodResponse	0	0.226	33.095	0	2	Target	Neutral	True
34.095	0.3	Control	1.0	0.004	Yes	2.577	-0.004	4.0	GoodResponse	0	0.226	n/a	0	2	ButtonPress	Neutral	True
34.254	0.32	Control	1.0	n/a	Yes	2.577	n/a	n/a	GoodResponse	0	n/a	n/a	0	2	Blank	Neutral	True
34.571	1.45	Control	1.0	n/a	Yes	2.577	n/a	5.0	GoodResponse	0	0.038	33.609	0	2	Feedback	Neutral	True
36.026	2.577	Control	1.0	n/a	Yes	2.577	n/a	n/a	GoodResponse	0	0.0	n/a	0	2	ISIslide	Neutral	True
38.617	0.25	Win2	1.0	0.0	Yes	2.833	0.017	n/a	GoodResponse	1	n/a	n/a	1	3	Cue	Win	True
38.867	3.95	Win2	1.0	0.001	Yes	2.833	0.0	n/a	GoodResponse	1	n/a	n/a	1	3	Fixation	Win	True
42.813	0.37	Win2	1.0	0.004	Yes	2.833	-0.004	4.0	GoodResponse	1	0.232	42.045	1	3	Target	Win	True
43.045	0.3	Win2	1.0	0.004	Yes	2.833	-0.004	4.0	GoodResponse	1	0.232	n/a	1	3	ButtonPress	Win	True
43.197	0.33	Win2	1.0	n/a	Yes	2.833	n/a	n/a	GoodResponse	1	n/a	n/a	1	3	Blank	Win	True
43.515	1.45	Win2	1.0	n/a	Yes	2.833	n/a	5.0	GoodResponse	1	0.021	42.536	1	3	Feedback	Win	True
44.969	2.833	Win2	1.0	n/a	Yes	2.833	n/a	n/a	GoodResponse	1	0.0	n/a	1	3	ISIslide	Win	True
47.828	0.25	Win2	1.0	0.0	Yes	3.272	0.028	n/a	GoodResponse	1	n/a	n/a	2	4	Cue	Win	True
48.078	4.0	Win2	1.0	0.0	Yes	3.272	0.0	n/a	GoodResponse	1	n/a	n/a	2	4	Fixation	Win	True
52.074	0.36	Win2	1.0	0.004	Yes	3.272	-0.004	4.0	GoodResponse	1	0.241	51.315	2	4	Target	Win	True
52.315	0.3	Win2	1.0	0.004	Yes	3.272	-0.004	4.0	GoodResponse	1	0.241	n/a	2	4	ButtonPress	Win	True
52.441	0.34	Win2	1.0	n/a	Yes	3.272	n/a	n/a	GoodResponse	1	n/a	n/a	2	4	Blank	Win	True
52.776	1.45	Win2	1.0	n/a	Yes	3.272	n/a	5.0	GoodResponse	1	0.028	51.804	2	4	Feedback	Win	True
54.23	3.272	Win2	1.0	n/a	Yes	3.272	n/a	n/a	GoodResponse	1	0.0	n/a	2	4	ISIslide	Win	True
57.523	0.25	Win2	1.0	0.0	Yes	2.777	0.023	n/a	GoodResponse	1	n/a	n/a	3	5	Cue	Win	True
57.774	4.0	Win2	1.0	0.0	Yes	2.777	0.001	n/a	GoodResponse	1	n/a	n/a	3	5	Fixation	Win	True
61.769	0.35	Win2	1.0	0.004	Yes	2.777	-0.004	4.0	GoodResponse	1	0.228	60.997	3	5	Target	Win	True
61.997	0.3	Win2	1.0	0.004	Yes	2.777	-0.004	4.0	GoodResponse	1	0.228	n/a	3	5	ButtonPress	Win	True
62.12	0.35	Win2	1.0	n/a	Yes	2.777	n/a	n/a	GoodResponse	1	n/a	n/a	3	5	Blank	Win	True
62.471	1.45	Win2	1.0	n/a	Yes	2.777	n/a	5.0	GoodResponse	1	0.041	61.512	3	5	Feedback	Win	True
63.926	2.777	Win2	1.0	n/a	Yes	2.777	n/a	n/a	GoodResponse	1	0.0	n/a	3	5	ISIslide	Win	True
66.717	0.25	Lose2	1.0	0.001	Yes	2.733	0.017	n/a	GoodResponse	0	n/a	n/a	3	6	Cue	AvoidedLoss	True
66.968	3.95	Lose2	1.0	0.0	Yes	2.733	0.001	n/a	GoodResponse	0	n/a	n/a	3	6	Fixation	AvoidedLoss	True
70.913	0.34	Lose2	1.0	0.004	Yes	2.733	-0.004	4.0	GoodResponse	0	0.198	70.111	3	6	Target	AvoidedLoss	True
71.111	0.3	Lose2	1.0	0.004	Yes	2.733	-0.004	4.0	GoodResponse	0	0.198	n/a	3	6	ButtonPress	AvoidedLoss	True
71.264	0.36	Lose2	1.0	n/a	Yes	2.733	n/a	n/a	GoodResponse	0	n/a	n/a	3	6	Blank	AvoidedLoss	True
71.615	1.45	Lose2	1.0	n/a	Yes	2.733	n/a	5.0	GoodResponse	0	0.019	70.634	3	6	Feedback	AvoidedLoss	True
73.07	2.733	Lose2	1.0	n/a	Yes	2.733	n/a	n/a	GoodResponse	0	0.0	n/a	3	6	ISIslide	AvoidedLoss	True
75.828	0.25	Lose2	1.0	0.0	Yes	4.022	0.028	n/a	GoodResponse	0	n/a	n/a	3	7	Cue	AvoidedLoss	True
76.079	4.05	Lose2	1.0	0.0	Yes	4.022	0.001	n/a	GoodResponse	0	n/a	n/a	3	7	Fixation	AvoidedLoss	True
80.124	0.33	Lose2	1.0	0.004	Yes	4.022	-0.004	4.0	GoodResponse	0	0.207	79.331	3	7	Target	AvoidedLoss	True
80.331	0.3	Lose2	1.0	0.004	Yes	4.022	-0.004	4.0	GoodResponse	0	0.207	n/a	3	7	ButtonPress	AvoidedLoss	True
80.459	0.37	Lose2	1.0	n/a	Yes	4.022	n/a	n/a	GoodResponse	0	n/a	n/a	3	7	Blank	AvoidedLoss	True
80.826	1.45	Lose2	1.0	n/a	Yes	4.022	n/a	5.0	GoodResponse	0	0.026	79.852	3	7	Feedback	AvoidedLoss	True
82.281	4.022	Lose2	1.0	n/a	Yes	4.022	n/a	n/a	GoodResponse	0	0.0	n/a	3	7	ISIslide	AvoidedLoss	True
86.326	0.25	Lose2	1.0	0.0	Yes	3.024	0.026	n/a	GoodResponse	0	n/a	n/a	3	8	Cue	AvoidedLoss	True
86.577	3.95	Lose2	1.0	0.0	Yes	3.024	0.001	n/a	GoodResponse	0	n/a	n/a	3	8	Fixation	AvoidedLoss	True
90.522	0.32	Lose2	1.0	0.004	Yes	3.024	-0.004	4.0	GoodResponse	0	0.271	89.793	3	8	Target	AvoidedLoss	True
90.793	0.3	Lose2	1.0	0.004	Yes	3.024	-0.004	4.0	GoodResponse	0	0.271	n/a	3	8	ButtonPress	AvoidedLoss	True
90.856	0.38	Lose2	1.0	n/a	Yes	3.024	n/a	n/a	GoodResponse	0	n/a	n/a	3	8	Blank	AvoidedLoss	True
91.224	1.45	Lose2	1.0	n/a	Yes	3.024	n/a	5.0	GoodResponse	0	0.019	90.243	3	8	Feedback	AvoidedLoss	True
92.679	3.024	Lose2	1.0	n/a	Yes	3.024	n/a	n/a	GoodResponse	0	0.0	n/a	3	8	ISIslide	AvoidedLoss	True
95.721	0.25	Lose2	1.0	0.0	Yes	3.129	0.021	n/a	GoodResponse	0	n/a	n/a	3	9	Cue	AvoidedLoss	True
95.972	3.95	Lose2	1.0	0.0	Yes	3.129	0.001	n/a	GoodResponse	0	n/a	n/a	3	9	Fixation	AvoidedLoss	True
99.917	0.31	Lose2	1.0	0.004	Yes	3.129	-0.004	4.0	GoodResponse	0	0.237	99.154	3	9	Target	AvoidedLoss	True
100.154	0.3	Lose2	1.0	0.004	Yes	3.129	-0.004	4.0	GoodResponse	0	0.237	n/a	3	9	ButtonPress	AvoidedLoss	True
100.234	0.39	Lose2	1.0	n/a	Yes	3.129	n/a	n/a	GoodResponse	0	n/a	n/a	3	9	Blank	AvoidedLoss	True
100.619	1.45	Lose2	1.0	n/a	Yes	3.129	n/a	5.0	GoodResponse	0	0.038	99.657	3	9	Feedback	AvoidedLoss	True
102.073	3.129	Lose2	1.0	n/a	Yes	3.129	n/a	n/a	GoodResponse	0	0.0	n/a	3	9	ISIslide	AvoidedLoss	True
105.216	0.25	Control	1.0	0.0	Yes	3.284	0.016	n/a	GoodResponse	0	n/a	n/a	3	10	Cue	Neutral	True
105.467	4.0	Control	1.0	0.0	Yes	3.284	0.001	n/a	GoodResponse	0	n/a	n/a	3	10	Fixation	Neutral	True
109.462	0.3	Control	1.0	0.004	Yes	3.284	-0.004	4.0	GoodResponse	0	0.252	108.714	3	10	Target	Neutral	True
109.714	0.3	Control	1.0	0.004	Yes	3.284	-0.004	4.0	GoodResponse	0	0.252	n/a	3	10	ButtonPress	Neutral	True
109.763	0.4	Control	1.0	n/a	Yes	3.284	n/a	n/a	GoodResponse	0	n/a	n/a	3	10	Blank	Neutral	True
110.164	1.45	Control	1.0	n/a	Yes	3.284	n/a	5.0	GoodResponse	0	0.008	109.172	3	10	Feedback	Neutral	True
111.619	3.284	Control	1.0	n/a	Yes	3.284	n/a	n/a	GoodResponse	0	0.0	n/a	3	10	ISIslide	Neutral	True
114.928	0.25	Lose2	1.0	0.001	Yes	2.722	0.028	n/a	GoodResponse	0	n/a	n/a	3	11	Cue	AvoidedLoss	True
115.179	4.05	Lose2	1.0	0.0	Yes	2.722	0.001	n/a	GoodResponse	0	n/a	n/a	3	11	Fixation	AvoidedLoss	True
119.225	0.29	Lose2	1.0	0.003	Yes	2.722	-0.003	4.0	GoodResponse	0	0.208	118.433	3	11	Target	AvoidedLoss	True
119.433	0.3	Lose2	1.0	0.003	Yes	2.722	-0.003	4.0	GoodResponse	0	0.208	n/a	3	11	ButtonPress	AvoidedLoss	True
119.526	0.41	Lose2	1.0	n/a	Yes	2.722	n/a	n/a	GoodResponse	0	n/a	n/a	3	11	Blank	AvoidedLoss	True
119.927	1.45	Lose2	1.0	n/a	Yes	2.722	n/a	5.0	GoodResponse	0	0.048	118.975	3	11	Feedback	AvoidedLoss	True
121.381	2.722	Lose2	1.0	n/a	Yes	2.722	n/a	n/a	GoodResponse	0	0.0	n/a	3	11	ISIslide	AvoidedLoss	True
124.123	0.25	Control	1.0	0.0	Yes	2.977	0.023	n/a	GoodResponse	0	n/a	n/a	3	12	Cue	Neutral	True
124.373	3.9	Control	1.0	0.0	Yes	2.977	0.0	n/a	GoodResponse	0	n/a	n/a	3	12	Fixation	Neutral	True
128.285	0.28	Control	1.0	0.0	Yes	2.977	0.012	4.0	GoodResponse	0	0.2	127.485	3	12	Target	Neutral	True
128.485	0.3	Control	1.0	0.0	Yes	2.977	0.012	4.0	GoodResponse	0	0.2	n/a	3	12	ButtonPress	Neutral	True
128.553	0.42	Control	1.0	n/a	Yes	2.977	n/a	n/a	GoodResponse	0	n/a	n/a	3	12	Blank	Neutral	True
128.97	1.45	Control	1.0	n/a	Yes	2.977	n/a	5.0	GoodResponse	0	0.029	127.999	3	12	Feedback	Neutral	True
130.425	2.977	Control	1.0	n/a	Yes	2.977	n/a	n/a	GoodResponse	0	0.0	n/a	3	12	ISIslide	Neutral	True
133.417	0.25	Control	1.0	0.0	Yes	2.783	0.017	n/a	GoodResponse	0	n/a	n/a	3	13	Cue	Neutral	True
133.668	4.0	Control	1.0	0.0	Yes	2.783	0.001	n/a	GoodResponse	0	n/a	n/a	3	13	Fixation	Neutral	True
137.663	0.27	Control	1.0	0.004	Yes	2.783	-0.004	4.0	GoodResponse	0	0.231	136.894	3	13	Target	Neutral	True
137.894	0.3	Control	1.0	0.004	Yes	2.783	-0.004	4.0	GoodResponse	0	0.231	n/a	3	13	ButtonPress	Neutral	True
137.947	0.43	Control	1.0	n/a	Yes	2.783	n/a	n/a	GoodResponse	0	n/a	n/a	3	13	Blank	Neutral	True
138.365	1.45	Control	1.0	n/a	Yes	2.783	n/a	5.0	GoodResponse	0	0.048	137.413	3	13	Feedback	Neutral	True
139.82	2.783	Control	1.0	n/a	Yes	2.783	n/a	n/a	GoodResponse	0	0.0	n/a	3	13	ISIslide	Neutral	True
142.628	0.25	Win2	1.0	0.0	Yes	2.672	0.028	n/a	GoodResponse	1	n/a	n/a	4	14	Cue	Win	True
142.879	4.1	Win2	1.0	0.0	Yes	2.672	0.001	n/a	GoodResponse	1	n/a	n/a	4	14	Fixation	Win	True
146.974	0.26	Win2	1.0	0.004	Yes	2.672	-0.004	4.0	GoodResponse	1	0.231	146.205	4	14	Target	Win	True
147.205	0.3	Win2	1.0	0.004	Yes	2.672	-0.004	4.0	GoodResponse	1	0.231	n/a	4	14	ButtonPress	Win	True
147.242	0.44	Win2	1.0	n/a	Yes	2.672	n/a	n/a	GoodResponse	1	n/a	n/a	4	14	Blank	Win	True
147.676	1.45	Win2	1.0	n/a	Yes	2.672	n/a	5.0	GoodResponse	1	0.007	146.683	4	14	Feedback	Win	True
149.131	2.672	Win2	1.0	n/a	Yes	2.672	n/a	n/a	GoodResponse	1	0.0	n/a	4	14	ISIslide	Win	True
151.822	0.25	Control	0.9375	0.0	No	2.978	0.022	n/a	NoResponse	0	n/a	n/a	4	15	Cue	Neutral	True
152.073	4.0	Control	0.9375	0.0	No	2.978	0.001	n/a	NoResponse	0	n/a	n/a	4	15	Fixation	Neutral	True
156.068	0.25	Control	0.9375	0.004	No	2.978	-0.004	4.0	NoResponse	0	0.353	155.421	4	15	Target	Neutral	True
156.319	0.45	Control	0.9375	n/a	No	2.978	n/a	n/a	NoResponse	0	n/a	n/a	4	15	Blank	Neutral	True
156.421	0.3	Control	0.9375	0.004	No	2.978	-0.004	4.0	NoResponse	0	0.353	n/a	4	15	ButtonPress	Neutral	True
156.77	1.45	Control	0.9375	n/a	No	2.978	n/a	5.0	NoResponse	0	0.033	155.803	4	15	Feedback	Neutral	True
158.225	2.978	Control	0.9375	n/a	No	2.978	n/a	n/a	NoResponse	0	0.0	n/a	4	15	ISIslide	Neutral	True
161.217	0.25	Win2	0.9412	0.0	Yes	2.883	0.017	n/a	GoodResponse	1	n/a	n/a	5	16	Cue	Win	True
161.468	4.0	Win2	0.9412	0.0	Yes	2.883	0.001	n/a	GoodResponse	1	n/a	n/a	5	16	Fixation	Win	True
165.463	0.24	Win2	0.9412	0.004	Yes	2.883	-0.004	4.0	GoodResponse	1	0.191	164.654	5	16	Target	Win	True
165.654	0.3	Win2	0.9412	0.004	Yes	2.883	-0.004	4.0	GoodResponse	1	0.191	n/a	5	16	ButtonPress	Win	True
165.714	0.46	Win2	0.9412	n/a	Yes	2.883	n/a	n/a	GoodResponse	1	n/a	n/a	5	16	Blank	Win	True
166.165	1.45	Win2	0.9412	n/a	Yes	2.883	n/a	5.0	GoodResponse	1	0.007	165.172	5	16	Feedback	Win	True
167.619	2.883	Win2	0.9412	n/a	Yes	2.883	n/a	n/a	GoodResponse	1	0.0	n/a	5	16	ISIslide	Win	True
170.528	0.25	Lose2	0.9444	0.0	Yes	2.722	0.028	n/a	GoodResponse	0	n/a	n/a	5	17	Cue	AvoidedLoss	True
170.779	3.95	Lose2	0.9444	0.0	Yes	2.722	0.001	n/a	GoodResponse	0	n/a	n/a	5	17	Fixation	AvoidedLoss	True
174.724	0.23	Lose2	0.9444	0.004	Yes	2.722	-0.004	4.0	GoodResponse	0	0.221	173.945	5	17	Target	AvoidedLoss	True
174.945	0.3	Lose2	0.9444	0.004	Yes	2.722	-0.004	4.0	GoodResponse	0	0.221	n/a	5	17	ButtonPress	AvoidedLoss	True
174.958	0.47	Lose2	0.9444	n/a	Yes	2.722	n/a	n/a	GoodResponse	0	n/a	n/a	5	17	Blank	AvoidedLoss	True
175.426	1.45	Lose2	0.9444	n/a	Yes	2.722	n/a	5.0	GoodResponse	0	0.012	174.438	5	17	Feedback	AvoidedLoss	True
176.881	2.722	Lose2	0.9444	n/a	Yes	2.722	n/a	n/a	GoodResponse	0	0.0	n/a	5	17	ISIslide	AvoidedLoss	True
179.622	0.25	Lose2	0.9473999999999999	0.0	Yes	2.728	0.022	n/a	GoodResponse	0	n/a	n/a	5	18	Cue	AvoidedLoss	True
179.873	4.05	Lose2	0.9473999999999999	0.0	Yes	2.728	0.001	n/a	GoodResponse	0	n/a	n/a	5	18	Fixation	AvoidedLoss	True
183.918	0.22	Lose2	0.9473999999999999	0.004	Yes	2.728	-0.004	4.0	GoodResponse	0	0.212	183.13	5	18	Target	AvoidedLoss	True
184.13	0.3	Lose2	0.9473999999999999	0.004	Yes	2.728	-0.004	4.0	GoodResponse	0	0.212	n/a	5	18	ButtonPress	AvoidedLoss	True
184.152	0.48	Lose2	0.9473999999999999	n/a	Yes	2.728	n/a	n/a	GoodResponse	0	n/a	n/a	5	18	Blank	AvoidedLoss	True
184.62	1.45	Lose2	0.9473999999999999	n/a	Yes	2.728	n/a	5.0	GoodResponse	0	0.036	183.656	5	18	Feedback	AvoidedLoss	True
186.075	2.728	Lose2	0.9473999999999999	n/a	Yes	2.728	n/a	n/a	GoodResponse	0	0.0	n/a	5	18	ISIslide	AvoidedLoss	True
188.816	0.25	Control	0.95	0.0	Yes	2.934	0.016	n/a	GoodResponse	0	n/a	n/a	5	19	Cue	Neutral	True
189.067	3.95	Control	0.95	0.0	Yes	2.934	0.001	n/a	GoodResponse	0	n/a	n/a	5	19	Fixation	Neutral	True
193.012	0.21	Control	0.95	0.004	Yes	2.934	-0.004	4.0	GoodResponse	0	0.2	192.212	5	19	Target	Neutral	True
193.212	0.3	Control	0.95	0.004	Yes	2.934	-0.004	4.0	GoodResponse	0	0.2	n/a	5	19	ButtonPress	Neutral	True
193.23	0.49	Control	0.95	n/a	Yes	2.934	n/a	n/a	GoodResponse	0	n/a	n/a	5	19	Blank	Neutral	True
193.714	1.45	Control	0.95	n/a	Yes	2.934	n/a	5.0	GoodResponse	0	0.015	192.729	5	19	Feedback	Neutral	True
195.169	2.934	Control	0.95	n/a	Yes	2.934	n/a	n/a	GoodResponse	0	0.0	n/a	5	19	ISIslide	Neutral	True
198.127	0.25	Control	0.9048	0.001	No	2.623	0.027	n/a	NoResponse	0	n/a	n/a	5	20	Cue	Neutral	True
198.378	4.05	Control	0.9048	0.0	No	2.623	0.001	n/a	NoResponse	0	n/a	n/a	5	20	Fixation	Neutral	True
202.424	0.2	Control	0.9048	0.003	No	2.623	-0.003	4.0	NoResponse	0	0.225	201.649	5	20	Target	Neutral	True
202.624	0.5	Control	0.9048	n/a	No	2.623	n/a	n/a	NoResponse	0	n/a	n/a	5	20	Blank	Neutral	True
202.649	0.3	Control	0.9048	0.003	No	2.623	-0.003	4.0	NoResponse	0	0.225	n/a	5	20	ButtonPress	Neutral	True
203.126	1.45	Control	0.9048	n/a	No	2.623	n/a	5.0	NoResponse	0	0.018	202.144	5	20	Feedback	Neutral	True
204.58	2.623	Control	0.9048	n/a	No	2.623	n/a	n/a	NoResponse	0	0.0	n/a	5	20	ISIslide	Neutral	True
207.221	0.25	Control	0.8636	0.0	No	2.779	0.021	n/a	NoResponse	0	n/a	n/a	5	21	Cue	Neutral	True
207.472	4.1	Control	0.8636	0.0	No	2.779	0.001	n/a	NoResponse	0	n/a	n/a	5	21	Fixation	Neutral	True
211.568	0.19	Control	0.8636	0.003	No	2.779	-0.003	4.0	NoResponse	0	0.209	210.777	5	21	Target	Neutral	True
211.768	0.51	Control	0.8636	n/a	No	2.779	n/a	n/a	NoResponse	0	n/a	n/a	5	21	Blank	Neutral	True
211.777	0.3	Control	0.8636	0.003	No	2.779	-0.003	4.0	NoResponse	0	0.209	n/a	5	21	ButtonPress	Neutral	True
212.27	1.45	Control	0.8636	n/a	No	2.779	n/a	5.0	NoResponse	0	0.045	211.315	5	21	Feedback	Neutral	True
213.724	2.779	Control	0.8636	n/a	No	2.779	n/a	n/a	NoResponse	0	0.0	n/a	5	21	ISIslide	Neutral	True
216.516	0.25	Control	0.8261	0.0	No	2.784	0.016	n/a	NoResponse	0	n/a	n/a	5	22	Cue	Neutral	True
216.767	4.0	Control	0.8261	0.0	No	2.784	0.001	n/a	NoResponse	0	n/a	n/a	5	22	Fixation	Neutral	True
220.762	0.18	Control	0.8261	0.004	No	2.784	-0.004	4.0	NoResponse	0	0.258	220.02	5	22	Target	Neutral	True
220.946	0.52	Control	0.8261	n/a	No	2.784	n/a	n/a	NoResponse	0	n/a	n/a	5	22	Blank	Neutral	True
221.02	0.3	Control	0.8261	0.004	No	2.784	-0.004	4.0	NoResponse	0	0.258	n/a	5	22	ButtonPress	Neutral	True
221.464	1.45	Control	0.8261	n/a	No	2.784	n/a	5.0	NoResponse	0	0.022	220.486	5	22	Feedback	Neutral	True
222.918	2.784	Control	0.8261	n/a	No	2.784	n/a	n/a	NoResponse	0	0.0	n/a	5	22	ISIslide	Neutral	True
225.727	0.25	Control	0.7917000000000001	0.0	No	2.773	0.027	n/a	NoResponse	0	n/a	n/a	5	23	Cue	Neutral	True
225.978	3.9	Control	0.7917000000000001	0.0	No	2.773	0.001	n/a	NoResponse	0	n/a	n/a	5	23	Fixation	Neutral	True
229.873	0.17	Control	0.7917000000000001	0.004	No	2.773	-0.004	4.0	NoResponse	0	0.404	229.277	5	23	Target	Neutral	True
230.056	0.53	Control	0.7917000000000001	n/a	No	2.773	n/a	n/a	NoResponse	0	n/a	n/a	5	23	Blank	Neutral	True
230.277	0.3	Control	0.7917000000000001	0.004	No	2.773	-0.004	4.0	NoResponse	0	0.404	n/a	5	23	ButtonPress	Neutral	True
230.575	1.45	Control	0.7917000000000001	n/a	No	2.773	n/a	5.0	NoResponse	0	0.032	229.607	5	23	Feedback	Neutral	True
232.029	2.773	Control	0.7917000000000001	n/a	No	2.773	n/a	n/a	NoResponse	0	0.0	n/a	5	23	ISIslide	Neutral	True
234.821	0.25	Win2	0.76	0.0	No	3.129	0.021	n/a	PrematurePress	0	n/a	n/a	5	24	Cue	MissedWin	True
235.071	3.95	Win2	0.76	0.001	No	3.129	0.0	n/a	PrematurePress	0	n/a	n/a	5	24	Fixation	MissedWin	True
239.017	0.16	Win2	0.76	0.004	No	3.129	-0.004	4.0	PrematurePress	0	0.085	238.102	5	24	Target	MissedWin	True
239.102	0.3	Win2	0.76	0.004	No	3.129	-0.004	4.0	PrematurePress	0	0.085	n/a	5	24	ButtonPress	MissedWin	True
239.184	0.54	Win2	0.76	n/a	No	3.129	n/a	n/a	PrematurePress	0	n/a	n/a	5	24	Blank	MissedWin	True
239.719	1.45	Win2	0.76	n/a	No	3.129	n/a	5.0	PrematurePress	0	0.01	238.729	5	24	Feedback	MissedWin	True
241.173	3.129	Win2	0.76	n/a	No	3.129	n/a	n/a	PrematurePress	0	0.0	n/a	5	24	ISIslide	MissedWin	True
244.316	0.25	Win2	0.7308	0.0	No	3.084	0.016	n/a	NoResponse	0	n/a	n/a	5	25	Cue	MissedWin	True
244.567	4.0	Win2	0.7308	0.0	No	3.084	0.001	n/a	NoResponse	0	n/a	n/a	5	25	Fixation	MissedWin	True
248.562	0.15	Win2	0.7308	0.004	No	3.084	-0.004	4.0	NoResponse	0	0.288	247.85	5	25	Target	MissedWin	True
248.712	0.55	Win2	0.7308	n/a	No	3.084	n/a	n/a	NoResponse	0	n/a	n/a	5	25	Blank	MissedWin	True
248.85	0.3	Win2	0.7308	0.004	No	3.084	-0.004	4.0	NoResponse	0	0.288	n/a	5	25	ButtonPress	MissedWin	True
249.264	1.45	Win2	0.7308	n/a	No	3.084	n/a	5.0	NoResponse	0	0.026	248.29	5	25	Feedback	MissedWin	True
250.718	3.084	Win2	0.7308	n/a	No	3.084	n/a	n/a	NoResponse	0	0.0	n/a	5	25	ISIslide	MissedWin	True
253.828	0.25	Win2	0.7037	0.0	No	2.922	0.028	n/a	NoResponse	0	n/a	n/a	5	26	Cue	MissedWin	False
254.078	3.95	Win2	0.7037	0.0	No	2.922	0.0	4.0	NoResponse	0	3.672	256.75	5	26	Fixation	MissedWin	False
257.75	0.3	Win2	0.7037	0.0	No	2.922	0.0	4.0	NoResponse	0	3.672	n/a	5	26	ButtonPress	MissedWin	False
258.04	0.15	Win2	0.7037	0.0	No	2.922	0.012	4.0	NoResponse	0	0.213	257.253	5	26	Target	MissedWin	False
258.174	0.55	Win2	0.7037	n/a	No	2.922	n/a	n/a	NoResponse	0	n/a	n/a	5	26	Blank	MissedWin	False
258.253	0.3	Win2	0.7037	0.0	No	2.922	0.012	4.0	NoResponse	0	0.213	n/a	5	26	ButtonPress	MissedWin	False
258.726	1.45	Win2	0.7037	n/a	No	2.922	n/a	5.0	NoResponse	0	0.027	257.753	5	26	Feedback	MissedWin	False
260.18	2.922	Win2	0.7037	n/a	No	2.922	n/a	n/a	NoResponse	0	0.0	n/a	5	26	ISIslide	MissedWin	False
263.122	0.25	Lose2	0.6786	0.0	No	2.828	0.022	n/a	NoResponse	-1	n/a	n/a	4	27	Cue	Loss	True
263.373	4.05	Lose2	0.6786	0.0	No	2.828	0.001	n/a	NoResponse	-1	n/a	n/a	4	27	Fixation	Loss	True
267.418	0.15	Lose2	0.6786	0.004	No	2.828	-0.004	4.0	NoResponse	-1	0.229	266.647	4	27	Target	Loss	True
267.569	0.55	Lose2	0.6786	n/a	No	2.828	n/a	n/a	NoResponse	-1	n/a	n/a	4	27	Blank	Loss	True
267.647	0.3	Lose2	0.6786	0.004	No	2.828	-0.004	4.0	NoResponse	-1	0.229	n/a	4	27	ButtonPress	Loss	True
268.12	1.45	Lose2	0.6786	n/a	No	2.828	n/a	5.0	NoResponse	-1	0.048	267.168	4	27	Feedback	Loss	True
269.575	2.828	Lose2	0.6786	n/a	No	2.828	n/a	n/a	NoResponse	-1	0.0	n/a	4	27	ISIslide	Loss	True
272.417	0.25	Control	0.6552	0.0	No	2.833	0.017	n/a	PrematurePress	0	n/a	n/a	4	28	Cue	Neutral	True
272.667	4.05	Control	0.6552	0.0	No	2.833	0.0	n/a	PrematurePress	0	n/a	n/a	4	28	Fixation	Neutral	True
276.713	0.15	Control	0.6552	0.004	No	2.833	-0.004	4.0	PrematurePress	0	0.016	275.729	4	28	Target	Neutral	True
276.729	0.3	Control	0.6552	0.004	No	2.833	-0.004	4.0	PrematurePress	0	0.016	n/a	4	28	ButtonPress	Neutral	True
276.863	0.55	Control	0.6552	n/a	No	2.833	n/a	n/a	PrematurePress	0	n/a	n/a	4	28	Blank	Neutral	True
277.415	1.45	Control	0.6552	n/a	No	2.833	n/a	5.0	PrematurePress	0	0.022	276.437	4	28	Feedback	Neutral	True
278.869	2.833	Control	0.6552	n/a	No	2.833	n/a	n/a	PrematurePress	0	0.0	n/a	4	28	ISIslide	Neutral	True
281.728	0.25	Lose2	0.6333	0.0	No	2.822	0.028	n/a	NoResponse	-1	n/a	n/a	3	29	Cue	Loss	True
281.978	3.95	Lose2	0.6333	0.001	No	2.822	0.0	n/a	NoResponse	-1	n/a	n/a	3	29	Fixation	Loss	True
285.924	0.15	Lose2	0.6333	0.004	No	2.822	-0.004	4.0	NoResponse	-1	0.195	285.119	3	29	Target	Loss	True
286.074	0.55	Lose2	0.6333	n/a	No	2.822	n/a	n/a	NoResponse	-1	n/a	n/a	3	29	Blank	Loss	True
286.119	0.3	Lose2	0.6333	0.004	No	2.822	-0.004	4.0	NoResponse	-1	0.195	n/a	3	29	ButtonPress	Loss	True
286.626	1.45	Lose2	0.6333	n/a	No	2.822	n/a	5.0	NoResponse	-1	0.029	285.655	3	29	Feedback	Loss	True
288.08	2.822	Lose2	0.6333	n/a	No	2.822	n/a	n/a	NoResponse	-1	0.0	n/a	3	29	ISIslide	Loss	True
290.922	0.25	Win2	0.6129	0.0	No	2.778	0.022	n/a	NoResponse	0	n/a	n/a	3	30	Cue	MissedWin	True
291.173	3.9	Win2	0.6129	0.0	No	2.778	0.001	n/a	NoResponse	0	n/a	n/a	3	30	Fixation	MissedWin	True
295.068	0.16	Win2	0.6129	0.004	No	2.778	-0.004	4.0	NoResponse	0	0.197	294.265	3	30	Target	MissedWin	True
295.235	0.54	Win2	0.6129	n/a	No	2.778	n/a	n/a	NoResponse	0	n/a	n/a	3	30	Blank	MissedWin	True
295.265	0.3	Win2	0.6129	0.004	No	2.778	-0.004	4.0	NoResponse	0	0.197	n/a	3	30	ButtonPress	MissedWin	True
295.77	1.45	Win2	0.6129	n/a	No	2.778	n/a	5.0	NoResponse	0	0.008	294.778	3	30	Feedback	MissedWin	True
297.224	2.778	Win2	0.6129	n/a	No	2.778	n/a	n/a	NoResponse	0	0.0	n/a	3	30	ISIslide	MissedWin	True
300.016	0.25	Lose2	0.5938	0.0	No	2.834	0.016	n/a	NoResponse	-1	n/a	n/a	2	31	Cue	Loss	True
300.267	4.05	Lose2	0.5938	0.0	No	2.834	0.001	n/a	NoResponse	-1	n/a	n/a	2	31	Fixation	Loss	True
304.312	0.17	Lose2	0.5938	0.004	No	2.834	-0.004	4.0	NoResponse	-1	0.297	303.609	2	31	Target	Loss	True
304.496	0.53	Lose2	0.5938	n/a	No	2.834	n/a	n/a	NoResponse	-1	n/a	n/a	2	31	Blank	Loss	True
304.609	0.3	Lose2	0.5938	0.004	No	2.834	-0.004	4.0	NoResponse	-1	0.297	n/a	2	31	ButtonPress	Loss	True
305.014	1.45	Lose2	0.5938	n/a	No	2.834	n/a	5.0	NoResponse	-1	0.032	304.046	2	31	Feedback	Loss	True
306.468	2.834	Lose2	0.5938	n/a	No	2.834	n/a	n/a	NoResponse	-1	0.0	n/a	2	31	ISIslide	Loss	True
309.327	0.25	Lose2	0.5758	0.0	No	2.623	0.027	n/a	PrematurePress	-1	n/a	n/a	1	32	Cue	Loss	True
309.578	4.15	Lose2	0.5758	0.0	No	2.623	0.001	n/a	PrematurePress	-1	n/a	n/a	1	32	Fixation	Loss	True
313.724	0.18	Lose2	0.5758	0.003	No	2.623	-0.003	4.0	PrematurePress	-1	0.063	312.787	1	32	Target	Loss	True
313.787	0.3	Lose2	0.5758	0.003	No	2.623	-0.003	4.0	PrematurePress	-1	0.063	n/a	1	32	ButtonPress	Loss	True
313.907	0.52	Lose2	0.5758	n/a	No	2.623	n/a	n/a	PrematurePress	-1	n/a	n/a	1	32	Blank	Loss	True
314.426	1.45	Lose2	0.5758	n/a	No	2.623	n/a	5.0	PrematurePress	-1	0.034	313.46	1	32	Feedback	Loss	True
315.88	2.623	Lose2	0.5758	n/a	No	2.623	n/a	n/a	PrematurePress	-1	0.0	n/a	1	32	ISIslide	Loss	True
318.521	0.25	Win2	0.5588000000000001	0.0	No	2.679	0.021	n/a	PrematurePress	0	n/a	n/a	1	33	Cue	MissedWin	True
318.772	4.0	Win2	0.5588000000000001	0.0	No	2.679	0.001	n/a	PrematurePress	0	n/a	n/a	1	33	Fixation	MissedWin	True
322.767	0.19	Win2	0.5588000000000001	0.004	No	2.679	-0.004	4.0	PrematurePress	0	0.091	321.858	1	33	Target	MissedWin	True
322.858	0.3	Win2	0.5588000000000001	0.004	No	2.679	-0.004	4.0	PrematurePress	0	0.091	n/a	1	33	ButtonPress	MissedWin	True
322.968	0.51	Win2	0.5588000000000001	n/a	No	2.679	n/a	n/a	PrematurePress	0	n/a	n/a	1	33	Blank	MissedWin	True
323.469	1.45	Win2	0.5588000000000001	n/a	No	2.679	n/a	5.0	PrematurePress	0	0.016	322.485	1	33	Feedback	MissedWin	True
324.924	2.679	Win2	0.5588000000000001	n/a	No	2.679	n/a	n/a	PrematurePress	0	0.0	n/a	1	33	ISIslide	MissedWin	True
327.615	0.25	Lose2	0.5428999999999999	0.0	No	2.635	0.015	n/a	LatePress	-1	n/a	n/a	0	34	Cue	Loss	True
327.866	4.05	Lose2	0.5428999999999999	0.0	No	2.635	0.001	n/a	LatePress	-1	n/a	n/a	0	34	Fixation	Loss	True
331.911	0.2	Lose2	0.5428999999999999	0.004	No	2.635	-0.004	4.0	LatePress	-1	0.203	331.114	0	34	Target	Loss	True
332.112	0.5	Lose2	0.5428999999999999	n/a	No	2.635	n/a	n/a	LatePress	-1	n/a	n/a	0	34	Blank	Loss	True
332.114	0.3	Lose2	0.5428999999999999	0.004	No	2.635	-0.004	4.0	LatePress	-1	0.203	n/a	0	34	ButtonPress	Loss	True
332.613	1.45	Lose2	0.5428999999999999	n/a	No	2.635	n/a	5.0	LatePress	-1	0.042	331.655	0	34	Feedback	Loss	True
334.068	2.635	Lose2	0.5428999999999999	n/a	No	2.635	n/a	n/a	LatePress	-1	0.0	n/a	0	34	ISIslide	Loss	True
336.726	0.25	Lose2	0.5556	0.0	Yes	2.674	0.026	n/a	GoodResponse	0	n/a	n/a	0	35	Cue	AvoidedLoss	True
336.976	4.0	Lose2	0.5556	0.001	Yes	2.674	0.0	n/a	GoodResponse	0	n/a	n/a	0	35	Fixation	AvoidedLoss	True
340.972	0.21	Lose2	0.5556	0.004	Yes	2.674	-0.004	4.0	GoodResponse	0	0.167	340.139	0	35	Target	AvoidedLoss	True
341.139	0.3	Lose2	0.5556	0.004	Yes	2.674	-0.004	4.0	GoodResponse	0	0.167	n/a	0	35	ButtonPress	AvoidedLoss	True
341.189	0.49	Lose2	0.5556	n/a	Yes	2.674	n/a	n/a	GoodResponse	0	n/a	n/a	0	35	Blank	AvoidedLoss	True
341.674	1.45	Lose2	0.5556	n/a	Yes	2.674	n/a	5.0	GoodResponse	0	0.008	340.682	0	35	Feedback	AvoidedLoss	True
343.128	2.674	Lose2	0.5556	n/a	Yes	2.674	n/a	n/a	GoodResponse	0	0.0	n/a	0	35	ISIslide	AvoidedLoss	True
345.82	0.25	Control	0.5676	0.0	Yes	2.68	0.02	n/a	GoodResponse	0	n/a	n/a	0	36	Cue	Neutral	True
346.07	4.0	Control	0.5676	0.0	Yes	2.68	0.0	n/a	GoodResponse	0	n/a	n/a	0	36	Fixation	Neutral	True
350.066	0.22	Control	0.5676	0.004	Yes	2.68	-0.004	4.0	GoodResponse	0	0.212	349.278	0	36	Target	Neutral	True
350.278	0.3	Control	0.5676	0.004	Yes	2.68	-0.004	4.0	GoodResponse	0	0.212	n/a	0	36	ButtonPress	Neutral	True
350.3	0.48	Control	0.5676	n/a	Yes	2.68	n/a	n/a	GoodResponse	0	n/a	n/a	0	36	Blank	Neutral	True
350.768	1.45	Control	0.5676	n/a	Yes	2.68	n/a	5.0	GoodResponse	0	0.033	349.801	0	36	Feedback	Neutral	True
352.222	2.68	Control	0.5676	n/a	Yes	2.68	n/a	n/a	GoodResponse	0	0.0	n/a	0	36	ISIslide	Neutral	True
354.93	0.25	Win2	0.5789	0.0	Yes	2.87	0.03	n/a	GoodResponse	1	n/a	n/a	1	37	Cue	Win	True
355.181	4.0	Win2	0.5789	0.0	Yes	2.87	0.001	n/a	GoodResponse	1	n/a	n/a	1	37	Fixation	Win	True
359.176	0.23	Win2	0.5789	0.004	Yes	2.87	-0.004	4.0	GoodResponse	1	0.218	358.394	1	37	Target	Win	True
359.394	0.3	Win2	0.5789	0.004	Yes	2.87	-0.004	4.0	GoodResponse	1	0.218	n/a	1	37	ButtonPress	Win	True
359.41	0.47	Win2	0.5789	n/a	Yes	2.87	n/a	n/a	GoodResponse	1	n/a	n/a	1	37	Blank	Win	True
359.878	1.45	Win2	0.5789	n/a	Yes	2.87	n/a	5.0	GoodResponse	1	0.045	358.923	1	37	Feedback	Win	True
361.333	2.87	Win2	0.5789	n/a	Yes	2.87	n/a	n/a	GoodResponse	1	0.0	n/a	1	37	ISIslide	Win	True
364.225	0.25	Lose2	0.5897	0.0	Yes	2.825	0.025	n/a	GoodResponse	0	n/a	n/a	1	38	Cue	AvoidedLoss	True
364.475	3.95	Lose2	0.5897	0.0	Yes	2.825	0.0	n/a	GoodResponse	0	n/a	n/a	1	38	Fixation	AvoidedLoss	True
368.421	0.24	Lose2	0.5897	0.004	Yes	2.825	-0.004	4.0	GoodResponse	0	0.232	367.653	1	38	Target	AvoidedLoss	True
368.653	0.3	Lose2	0.5897	0.004	Yes	2.825	-0.004	4.0	GoodResponse	0	0.232	n/a	1	38	ButtonPress	AvoidedLoss	True
368.671	0.46	Lose2	0.5897	n/a	Yes	2.825	n/a	n/a	GoodResponse	0	n/a	n/a	1	38	Blank	AvoidedLoss	True
369.123	1.45	Lose2	0.5897	n/a	Yes	2.825	n/a	5.0	GoodResponse	0	0.02	368.143	1	38	Feedback	AvoidedLoss	True
370.577	2.825	Lose2	0.5897	n/a	Yes	2.825	n/a	n/a	GoodResponse	0	0.0	n/a	1	38	ISIslide	AvoidedLoss	True
373.419	0.25	Win2	0.6	0.0	Yes	2.981	0.019	n/a	GoodResponse	1	n/a	n/a	2	39	Cue	Win	True
373.67	4.1	Win2	0.6	0.0	Yes	2.981	0.001	n/a	GoodResponse	1	n/a	n/a	2	39	Fixation	Win	True
377.765	0.25	Win2	0.6	0.004	Yes	2.981	-0.004	4.0	GoodResponse	1	0.225	376.99	2	39	Target	Win	True
377.99	0.3	Win2	0.6	0.004	Yes	2.981	-0.004	4.0	GoodResponse	1	0.225	n/a	2	39	ButtonPress	Win	True
378.016	0.45	Win2	0.6	n/a	Yes	2.981	n/a	n/a	GoodResponse	1	n/a	n/a	2	39	Blank	Win	True
378.467	1.45	Win2	0.6	n/a	Yes	2.981	n/a	5.0	GoodResponse	1	0.042	377.509	2	39	Feedback	Win	True
379.922	2.981	Win2	0.6	n/a	Yes	2.981	n/a	n/a	GoodResponse	1	0.0	n/a	2	39	ISIslide	Win	True
382.931	0.25	Win2	0.6098	0.0	Yes	2.719	0.031	n/a	GoodResponse	1	n/a	n/a	3	40	Cue	Win	True
383.181	3.95	Win2	0.6098	0.0	Yes	2.719	0.0	n/a	GoodResponse	1	n/a	n/a	3	40	Fixation	Win	True
387.127	0.26	Win2	0.6098	0.004	Yes	2.719	-0.004	4.0	GoodResponse	1	0.217	386.344	3	40	Target	Win	True
387.344	0.3	Win2	0.6098	0.004	Yes	2.719	-0.004	4.0	GoodResponse	1	0.217	n/a	3	40	ButtonPress	Win	True
387.394	0.44	Win2	0.6098	n/a	Yes	2.719	n/a	n/a	GoodResponse	1	n/a	n/a	3	40	Blank	Win	True
387.829	1.45	Win2	0.6098	n/a	Yes	2.719	n/a	5.0	GoodResponse	1	0.045	386.874	3	40	Feedback	Win	True
389.283	2.719	Win2	0.6098	n/a	Yes	2.719	n/a	n/a	GoodResponse	1	0.0	n/a	3	40	ISIslide	Win	True
392.025	0.25	Win2	0.619	0.0	Yes	2.775	0.025	n/a	GoodResponse	1	n/a	n/a	4	41	Cue	Win	True
392.275	3.9	Win2	0.619	0.0	Yes	2.775	0.0	n/a	GoodResponse	1	n/a	n/a	4	41	Fixation	Win	True
396.187	0.27	Win2	0.619	0.0	Yes	2.775	0.012	4.0	GoodResponse	1	0.225	395.412	4	41	Target	Win	True
396.412	0.3	Win2	0.619	0.0	Yes	2.775	0.012	4.0	GoodResponse	1	0.225	n/a	4	41	ButtonPress	Win	True
396.454	0.43	Win2	0.619	n/a	Yes	2.775	n/a	n/a	GoodResponse	1	n/a	n/a	4	41	Blank	Win	True
396.872	1.45	Win2	0.619	n/a	Yes	2.775	n/a	5.0	GoodResponse	1	0.026	395.898	4	41	Feedback	Win	True
398.327	2.775	Win2	0.619	n/a	Yes	2.775	n/a	n/a	GoodResponse	1	0.0	n/a	4	41	ISIslide	Win	True
401.118	0.25	Control	0.6279	0.001	Yes	2.932	0.018	n/a	GoodResponse	0	n/a	n/a	4	42	Cue	Neutral	True
401.369	3.85	Control	0.6279	0.0	Yes	2.932	0.001	n/a	GoodResponse	0	n/a	n/a	4	42	Fixation	Neutral	True
405.214	0.28	Control	0.6279	0.004	Yes	2.932	-0.004	4.0	GoodResponse	0	0.277	404.491	4	42	Target	Neutral	True
405.491	0.3	Control	0.6279	0.004	Yes	2.932	-0.004	4.0	GoodResponse	0	0.277	n/a	4	42	ButtonPress	Neutral	True
405.498	0.42	Control	0.6279	n/a	Yes	2.932	n/a	n/a	GoodResponse	0	n/a	n/a	4	42	Blank	Neutral	True
405.916	1.45	Control	0.6279	n/a	Yes	2.932	n/a	5.0	GoodResponse	0	0.008	404.924	4	42	Feedback	Neutral	True
407.37	2.932	Control	0.6279	n/a	Yes	2.932	n/a	n/a	GoodResponse	0	0.0	n/a	4	42	ISIslide	Neutral	True
410.329	0.25	Win2	0.6364	0.0	Yes	3.171	0.029	n/a	GoodResponse	1	n/a	n/a	5	43	Cue	Win	True
410.58	4.0	Win2	0.6364	0.0	Yes	3.171	0.001	n/a	GoodResponse	1	n/a	n/a	5	43	Fixation	Win	True
414.575	0.29	Win2	0.6364	0.004	Yes	3.171	-0.004	4.0	GoodResponse	1	0.212	413.787	5	43	Target	Win	True
414.787	0.3	Win2	0.6364	0.004	Yes	3.171	-0.004	4.0	GoodResponse	1	0.212	n/a	5	43	ButtonPress	Win	True
414.876	0.41	Win2	0.6364	n/a	Yes	3.171	n/a	n/a	GoodResponse	1	n/a	n/a	5	43	Blank	Win	True
415.277	1.45	Win2	0.6364	n/a	Yes	3.171	n/a	5.0	GoodResponse	1	0.012	414.289	5	43	Feedback	Win	True
416.732	3.171	Win2	0.6364	n/a	Yes	3.171	n/a	n/a	GoodResponse	1	0.0	n/a	5	43	ISIslide	Win	True
419.925	0.25	Win2	0.6222	0.0	No	2.975	0.025	n/a	PrematurePress	0	n/a	n/a	5	44	Cue	MissedWin	False
420.175	4.0	Win2	0.6222	0.001	No	2.975	0.0	4.0	PrematurePress	0	3.48	422.655	5	44	Fixation	MissedWin	False
423.655	0.3	Win2	0.6222	0.001	No	2.975	0.0	4.0	PrematurePress	0	3.48	n/a	5	44	ButtonPress	MissedWin	False
424.171	0.3	Win2	0.6222	0.004	No	2.975	-0.004	4.0	PrematurePress	0	0.06	423.231	5	44	Target	MissedWin	False
424.231	0.3	Win2	0.6222	0.004	No	2.975	-0.004	4.0	PrematurePress	0	0.06	n/a	5	44	ButtonPress	MissedWin	False
424.472	0.4	Win2	0.6222	n/a	No	2.975	n/a	n/a	PrematurePress	0	n/a	n/a	5	44	Blank	MissedWin	False
424.873	1.45	Win2	0.6222	n/a	No	2.975	n/a	5.0	PrematurePress	0	0.025	423.898	5	44	Feedback	MissedWin	False
426.327	2.975	Win2	0.6222	n/a	No	2.975	n/a	n/a	PrematurePress	0	0.0	n/a	5	44	ISIslide	MissedWin	False
429.32	0.25	Control	0.6304	0.0	Yes	2.88	0.02	n/a	GoodResponse	0	n/a	n/a	5	45	Cue	Neutral	True
429.57	4.1	Control	0.6304	0.0	Yes	2.88	0.0	n/a	GoodResponse	0	n/a	n/a	5	45	Fixation	Neutral	True
433.666	0.31	Control	0.6304	0.004	Yes	2.88	-0.004	4.0	GoodResponse	0	0.261	432.927	5	45	Target	Neutral	True
433.927	0.3	Control	0.6304	0.004	Yes	2.88	-0.004	4.0	GoodResponse	0	0.261	n/a	5	45	ButtonPress	Neutral	True
433.983	0.39	Control	0.6304	n/a	Yes	2.88	n/a	n/a	GoodResponse	0	n/a	n/a	5	45	Blank	Neutral	True
434.368	1.45	Control	0.6304	n/a	Yes	2.88	n/a	5.0	GoodResponse	0	0.042	433.41	5	45	Feedback	Neutral	True
435.822	2.88	Control	0.6304	n/a	Yes	2.88	n/a	n/a	GoodResponse	0	0.0	n/a	5	45	ISIslide	Neutral	True
438.731	0.25	Lose2	0.6383	0.0	Yes	3.369	0.031	n/a	GoodResponse	0	n/a	n/a	5	46	Cue	AvoidedLoss	True
438.982	4.0	Lose2	0.6383	0.0	Yes	3.369	0.001	n/a	GoodResponse	0	n/a	n/a	5	46	Fixation	AvoidedLoss	True
442.977	0.32	Lose2	0.6383	0.004	Yes	3.369	-0.004	4.0	GoodResponse	0	0.213	442.19	5	46	Target	AvoidedLoss	True
443.19	0.3	Lose2	0.6383	0.004	Yes	3.369	-0.004	4.0	GoodResponse	0	0.213	n/a	5	46	ButtonPress	AvoidedLoss	True
443.311	0.38	Lose2	0.6383	n/a	Yes	3.369	n/a	n/a	GoodResponse	0	n/a	n/a	5	46	Blank	AvoidedLoss	True
443.679	1.45	Lose2	0.6383	n/a	Yes	3.369	n/a	5.0	GoodResponse	0	0.048	442.727	5	46	Feedback	AvoidedLoss	True
445.134	3.369	Lose2	0.6383	n/a	Yes	3.369	n/a	n/a	GoodResponse	0	0.0	n/a	5	46	ISIslide	AvoidedLoss	True
448.527	0.25	Lose2	0.6457999999999999	0.0	Yes	2.673	0.027	n/a	GoodResponse	0	n/a	n/a	5	47	Cue	AvoidedLoss	True
448.778	4.0	Lose2	0.6457999999999999	0.0	Yes	2.673	0.001	n/a	GoodResponse	0	n/a	n/a	5	47	Fixation	AvoidedLoss	True
452.773	0.33	Lose2	0.6457999999999999	0.004	Yes	2.673	-0.004	4.0	GoodResponse	0	0.229	452.002	5	47	Target	AvoidedLoss	True
453.002	0.3	Lose2	0.6457999999999999	0.004	Yes	2.673	-0.004	4.0	GoodResponse	0	0.229	n/a	5	47	ButtonPress	AvoidedLoss	True
453.107	0.37	Lose2	0.6457999999999999	n/a	Yes	2.673	n/a	n/a	GoodResponse	0	n/a	n/a	5	47	Blank	AvoidedLoss	True
453.475	1.45	Lose2	0.6457999999999999	n/a	Yes	2.673	n/a	5.0	GoodResponse	0	0.008	452.483	5	47	Feedback	AvoidedLoss	True
454.93	2.673	Lose2	0.6457999999999999	n/a	Yes	2.673	n/a	n/a	GoodResponse	0	0.0	n/a	5	47	ISIslide	AvoidedLoss	True
457.621	0.25	Lose2	0.6531	0.0	Yes	3.029	0.021	n/a	GoodResponse	0	n/a	n/a	5	48	Cue	AvoidedLoss	True
457.872	3.95	Lose2	0.6531	0.0	Yes	3.029	0.001	n/a	GoodResponse	0	n/a	n/a	5	48	Fixation	AvoidedLoss	True
461.817	0.34	Lose2	0.6531	0.004	Yes	3.029	-0.004	4.0	GoodResponse	0	0.228	461.045	5	48	Target	AvoidedLoss	True
462.045	0.3	Lose2	0.6531	0.004	Yes	3.029	-0.004	4.0	GoodResponse	0	0.228	n/a	5	48	ButtonPress	AvoidedLoss	True
462.168	0.36	Lose2	0.6531	n/a	Yes	3.029	n/a	n/a	GoodResponse	0	n/a	n/a	5	48	Blank	AvoidedLoss	True
462.519	1.45	Lose2	0.6531	n/a	Yes	3.029	n/a	5.0	GoodResponse	0	0.037	461.556	5	48	Feedback	AvoidedLoss	True
463.973	3.029	Lose2	0.6531	n/a	Yes	3.029	n/a	n/a	GoodResponse	0	0.0	n/a	5	48	ISIslide	AvoidedLoss	True
467.016	0.25	Control	0.66	0.0	Yes	2.884	0.016	n/a	GoodResponse	0	n/a	n/a	5	49	Cue	Neutral	True
467.266	4.0	Control	0.66	0.001	Yes	2.884	0.0	n/a	GoodResponse	0	n/a	n/a	5	49	Fixation	Neutral	True
471.262	0.35	Control	0.66	0.004	Yes	2.884	-0.004	4.0	GoodResponse	0	0.25	470.512	5	49	Target	Neutral	True
471.512	0.3	Control	0.66	0.004	Yes	2.884	-0.004	4.0	GoodResponse	0	0.25	n/a	5	49	ButtonPress	Neutral	True
471.613	0.35	Control	0.66	n/a	Yes	2.884	n/a	n/a	GoodResponse	0	n/a	n/a	5	49	Blank	Neutral	True
471.964	1.45	Control	0.66	n/a	Yes	2.884	n/a	5.0	GoodResponse	0	0.008	470.972	5	49	Feedback	Neutral	True
473.418	2.884	Control	0.66	n/a	Yes	2.884	n/a	n/a	GoodResponse	0	0.0	n/a	5	49	ISIslide	Neutral	True
476.327	0.25	Control	0.6667000000000001	0.0	Yes	2.773	0.027	n/a	GoodResponse	0	n/a	n/a	5	50	Cue	Neutral	True
476.578	4.0	Control	0.6667000000000001	0.0	Yes	2.773	0.001	n/a	GoodResponse	0	n/a	n/a	5	50	Fixation	Neutral	True
480.573	0.35	Control	0.6667000000000001	0.004	Yes	2.773	-0.004	4.0	GoodResponse	0	0.274	479.847	5	50	Target	Neutral	True
480.847	0.3	Control	0.6667000000000001	0.004	Yes	2.773	-0.004	4.0	GoodResponse	0	0.274	n/a	5	50	ButtonPress	Neutral	True
480.924	0.35	Control	0.6667000000000001	n/a	Yes	2.773	n/a	n/a	GoodResponse	0	n/a	n/a	5	50	Blank	Neutral	True
481.275	1.45	Control	0.6667000000000001	n/a	Yes	2.773	n/a	5.0	GoodResponse	0	0.013	480.288	5	50	Feedback	Neutral	True
482.729	2.773	Control	0.6667000000000001	n/a	Yes	2.773	n/a	n/a	GoodResponse	0	0.0	n/a	5	50	ISIslide	Neutral	True
485.521	0.25	Control	0.6731	0.0	Yes	2.729	0.021	n/a	GoodResponse	0	n/a	n/a	5	51	Cue	Neutral	True
485.772	3.95	Control	0.6731	0.0	Yes	2.729	0.001	n/a	GoodResponse	0	n/a	n/a	5	51	Fixation	Neutral	True
489.717	0.34	Control	0.6731	0.004	Yes	2.729	-0.004	4.0	GoodResponse	0	0.226	488.943	5	51	Target	Neutral	True
489.943	0.3	Control	0.6731	0.004	Yes	2.729	-0.004	4.0	GoodResponse	0	0.226	n/a	5	51	ButtonPress	Neutral	True
490.068	0.36	Control	0.6731	n/a	Yes	2.729	n/a	n/a	GoodResponse	0	n/a	n/a	5	51	Blank	Neutral	True
490.419	1.45	Control	0.6731	n/a	Yes	2.729	n/a	5.0	GoodResponse	0	0.039	489.458	5	51	Feedback	Neutral	True
491.873	2.729	Control	0.6731	n/a	Yes	2.729	n/a	n/a	GoodResponse	0	0.0	n/a	5	51	ISIslide	Neutral	True
494.615	0.25	Control	0.6792	0.0	Yes	2.635	0.015	n/a	GoodResponse	0	n/a	n/a	5	52	Cue	Neutral	True
494.866	4.05	Control	0.6792	0.0	Yes	2.635	0.001	n/a	GoodResponse	0	n/a	n/a	5	52	Fixation	Neutral	True
498.911	0.33	Control	0.6792	0.004	Yes	2.635	-0.004	4.0	GoodResponse	0	0.274	498.185	5	52	Target	Neutral	True
499.185	0.3	Control	0.6792	0.004	Yes	2.635	-0.004	4.0	GoodResponse	0	0.274	n/a	5	52	ButtonPress	Neutral	True
499.246	0.37	Control	0.6792	n/a	Yes	2.635	n/a	n/a	GoodResponse	0	n/a	n/a	5	52	Blank	Neutral	True
499.613	1.45	Control	0.6792	n/a	Yes	2.635	n/a	5.0	GoodResponse	0	0.016	498.629	5	52	Feedback	Neutral	True
501.068	2.635	Control	0.6792	n/a	Yes	2.635	n/a	n/a	GoodResponse	0	0.0	n/a	5	52	ISIslide	Neutral	True
503.726	0.25	Win2	0.6851999999999999	0.0	Yes	2.924	0.026	n/a	GoodResponse	1	n/a	n/a	6	53	Cue	Win	True
503.976	4.05	Win2	0.6851999999999999	0.0	Yes	2.924	0.0	n/a	GoodResponse	1	n/a	n/a	6	53	Fixation	Win	True
508.022	0.32	Win2	0.6851999999999999	0.004	Yes	2.924	-0.004	4.0	GoodResponse	1	0.208	507.23	6	53	Target	Win	True
508.23	0.3	Win2	0.6851999999999999	0.004	Yes	2.924	-0.004	4.0	GoodResponse	1	0.208	n/a	6	53	ButtonPress	Win	True
508.356	0.38	Win2	0.6851999999999999	n/a	Yes	2.924	n/a	n/a	GoodResponse	1	n/a	n/a	6	53	Blank	Win	True
508.724	1.45	Win2	0.6851999999999999	n/a	Yes	2.924	n/a	5.0	GoodResponse	1	0.027	507.751	6	53	Feedback	Win	True
510.178	2.924	Win2	0.6851999999999999	n/a	Yes	2.924	n/a	n/a	GoodResponse	1	0.0	n/a	6	53	ISIslide	Win	True
513.12	0.25	Win2	0.6909000000000001	0.0	Yes	2.73	0.02	n/a	GoodResponse	1	n/a	n/a	7	54	Cue	Win	True
513.371	3.95	Win2	0.6909000000000001	0.0	Yes	2.73	0.001	n/a	GoodResponse	1	n/a	n/a	7	54	Fixation	Win	True
517.316	0.31	Win2	0.6909000000000001	0.004	Yes	2.73	-0.004	4.0	GoodResponse	1	0.192	516.508	7	54	Target	Win	True
517.508	0.3	Win2	0.6909000000000001	0.004	Yes	2.73	-0.004	4.0	GoodResponse	1	0.192	n/a	7	54	ButtonPress	Win	True
517.634	0.39	Win2	0.6909000000000001	n/a	Yes	2.73	n/a	n/a	GoodResponse	1	n/a	n/a	7	54	Blank	Win	True
518.018	1.45	Win2	0.6909000000000001	n/a	Yes	2.73	n/a	5.0	GoodResponse	1	0.001	517.019	7	54	Feedback	Win	True
519.473	2.73	Win2	0.6909000000000001	n/a	Yes	2.73	n/a	n/a	GoodResponse	1	0.0	n/a	7	54	ISIslide	Win	True
522.231	0.25	Control	0.6786	0.0	No	3.019	0.031	n/a	LatePress	0	n/a	n/a	7	55	Cue	Neutral	True
522.482	3.95	Control	0.6786	0.0	No	3.019	0.001	n/a	LatePress	0	n/a	n/a	7	55	Fixation	Neutral	True
526.427	0.3	Control	0.6786	0.004	No	3.019	-0.004	4.0	LatePress	0	0.302	525.729	7	55	Target	Neutral	True
526.728	0.4	Control	0.6786	n/a	No	3.019	n/a	n/a	LatePress	0	n/a	n/a	7	55	Blank	Neutral	True
526.729	0.3	Control	0.6786	0.004	No	3.019	-0.004	4.0	LatePress	0	0.302	n/a	7	55	ButtonPress	Neutral	True
527.129	1.45	Control	0.6786	n/a	No	3.019	n/a	5.0	LatePress	0	0.012	526.141	7	55	Feedback	Neutral	True
528.583	3.019	Control	0.6786	n/a	No	3.019	n/a	n/a	LatePress	0	0.0	n/a	7	55	ISIslide	Neutral	True
531.626	0.25	Control	0.6842	0.0	Yes	2.824	0.026	n/a	GoodResponse	0	n/a	n/a	7	56	Cue	Neutral	True
531.877	3.95	Control	0.6842	0.0	Yes	2.824	0.001	n/a	GoodResponse	0	n/a	n/a	7	56	Fixation	Neutral	True
535.822	0.29	Control	0.6842	0.004	Yes	2.824	-0.004	4.0	GoodResponse	0	0.256	535.078	7	56	Target	Neutral	True
536.078	0.3	Control	0.6842	0.004	Yes	2.824	-0.004	4.0	GoodResponse	0	0.256	n/a	7	56	ButtonPress	Neutral	True
536.123	0.41	Control	0.6842	n/a	Yes	2.824	n/a	n/a	GoodResponse	0	n/a	n/a	7	56	Blank	Neutral	True
536.524	1.45	Control	0.6842	n/a	Yes	2.824	n/a	5.0	GoodResponse	0	0.031	535.555	7	56	Feedback	Neutral	True
537.978	2.824	Control	0.6842	n/a	Yes	2.824	n/a	n/a	GoodResponse	0	0.0	n/a	7	56	ISIslide	Neutral	True
540.82	0.25	Control	0.6897	0.0	Yes	3.48	0.02	n/a	GoodResponse	0	n/a	n/a	7	57	Cue	Neutral	True
541.071	4.0	Control	0.6897	0.0	Yes	3.48	0.001	n/a	GoodResponse	0	n/a	n/a	7	57	Fixation	Neutral	True
545.066	0.28	Control	0.6897	0.004	Yes	3.48	-0.004	4.0	GoodResponse	0	0.249	544.315	7	57	Target	Neutral	True
545.315	0.3	Control	0.6897	0.004	Yes	3.48	-0.004	4.0	GoodResponse	0	0.249	n/a	7	57	ButtonPress	Neutral	True
545.35	0.42	Control	0.6897	n/a	Yes	3.48	n/a	n/a	GoodResponse	0	n/a	n/a	7	57	Blank	Neutral	True
545.768	1.45	Control	0.6897	n/a	Yes	3.48	n/a	5.0	GoodResponse	0	0.007	544.775	7	57	Feedback	Neutral	True
547.222	3.48	Control	0.6897	n/a	Yes	3.48	n/a	n/a	GoodResponse	0	0.0	n/a	7	57	ISIslide	Neutral	True
550.716	0.25	Win2	0.6779999999999999	0.0	No	2.734	0.016	n/a	PrematurePress	0	n/a	n/a	7	58	Cue	MissedWin	False
550.967	4.05	Win2	0.6779999999999999	0.0	No	2.734	0.001	4.0	PrematurePress	0	3.645	553.612	7	58	Fixation	MissedWin	False
554.612	0.3	Win2	0.6779999999999999	0.0	No	2.734	0.001	4.0	PrematurePress	0	3.645	n/a	7	58	ButtonPress	MissedWin	False
555.012	0.27	Win2	0.6779999999999999	0.004	No	2.734	-0.004	4.0	PrematurePress	0	0.008	554.02	7	58	Target	MissedWin	False
555.02	0.3	Win2	0.6779999999999999	0.004	No	2.734	-0.004	4.0	PrematurePress	0	0.008	n/a	7	58	ButtonPress	MissedWin	False
555.297	0.43	Win2	0.6779999999999999	n/a	No	2.734	n/a	n/a	PrematurePress	0	n/a	n/a	7	58	Blank	MissedWin	False
555.715	1.45	Win2	0.6779999999999999	n/a	No	2.734	n/a	5.0	PrematurePress	0	0.011	554.726	7	58	Feedback	MissedWin	False
557.169	2.734	Win2	0.6779999999999999	n/a	No	2.734	n/a	n/a	PrematurePress	0	0.0	n/a	7	58	ISIslide	MissedWin	False
559.927	0.25	Lose2	0.6833	0.0	Yes	2.673	0.027	n/a	GoodResponse	0	n/a	n/a	7	59	Cue	AvoidedLoss	True
560.178	4.0	Lose2	0.6833	0.0	Yes	2.673	0.001	n/a	GoodResponse	0	n/a	n/a	7	59	Fixation	AvoidedLoss	True
564.173	0.26	Lose2	0.6833	0.004	Yes	2.673	-0.004	4.0	GoodResponse	0	0.214	563.387	7	59	Target	AvoidedLoss	True
564.387	0.3	Lose2	0.6833	0.004	Yes	2.673	-0.004	4.0	GoodResponse	0	0.214	n/a	7	59	ButtonPress	AvoidedLoss	True
564.441	0.44	Lose2	0.6833	n/a	Yes	2.673	n/a	n/a	GoodResponse	0	n/a	n/a	7	59	Blank	AvoidedLoss	True
564.875	1.45	Lose2	0.6833	n/a	Yes	2.673	n/a	5.0	GoodResponse	0	0.022	563.897	7	59	Feedback	AvoidedLoss	True
566.33	2.673	Lose2	0.6833	n/a	Yes	2.673	n/a	n/a	GoodResponse	0	0.0	n/a	7	59	ISIslide	AvoidedLoss	True
569.021	0.25	Control	0.6884999999999999	0.0	Yes	2.679	0.021	n/a	GoodResponse	0	n/a	n/a	7	60	Cue	Neutral	True
569.272	4.0	Control	0.6884999999999999	0.0	Yes	2.679	0.001	n/a	GoodResponse	0	n/a	n/a	7	60	Fixation	Neutral	True
573.267	0.25	Control	0.6884999999999999	0.004	Yes	2.679	-0.004	4.0	GoodResponse	0	0.237	572.504	7	60	Target	Neutral	True
573.504	0.3	Control	0.6884999999999999	0.004	Yes	2.679	-0.004	4.0	GoodResponse	0	0.237	n/a	7	60	ButtonPress	Neutral	True
573.518	0.45	Control	0.6884999999999999	n/a	Yes	2.679	n/a	n/a	GoodResponse	0	n/a	n/a	7	60	Blank	Neutral	True
573.969	1.45	Control	0.6884999999999999	n/a	Yes	2.679	n/a	5.0	GoodResponse	0	0.001	572.97	7	60	Feedback	Neutral	True
575.424	2.679	Control	0.6884999999999999	n/a	Yes	2.679	n/a	n/a	GoodResponse	0	0.0	n/a	7	60	ISIslide	Neutral	True
578.115	0.25	Lose2	0.6934999999999999	0.0	Yes	2.985	0.015	n/a	GoodResponse	0	n/a	n/a	7	61	Cue	AvoidedLoss	True
578.366	4.0	Lose2	0.6934999999999999	0.0	Yes	2.985	0.001	n/a	GoodResponse	0	n/a	n/a	7	61	Fixation	AvoidedLoss	True
582.361	0.24	Lose2	0.6934999999999999	0.004	Yes	2.985	-0.004	4.0	GoodResponse	0	0.222	581.583	7	61	Target	AvoidedLoss	True
582.583	0.3	Lose2	0.6934999999999999	0.004	Yes	2.985	-0.004	4.0	GoodResponse	0	0.222	n/a	7	61	ButtonPress	AvoidedLoss	True
582.612	0.46	Lose2	0.6934999999999999	n/a	Yes	2.985	n/a	n/a	GoodResponse	0	n/a	n/a	7	61	Blank	AvoidedLoss	True
583.063	1.45	Lose2	0.6934999999999999	n/a	Yes	2.985	n/a	5.0	GoodResponse	0	0.029	582.092	7	61	Feedback	AvoidedLoss	True
584.517	2.985	Lose2	0.6934999999999999	n/a	Yes	2.985	n/a	n/a	GoodResponse	0	0.0	n/a	7	61	ISIslide	AvoidedLoss	True
587.526	0.25	Lose2	0.6825	0.001	No	2.874	0.026	n/a	NoResponse	-1	n/a	n/a	6	62	Cue	Loss	True
587.777	3.9	Lose2	0.6825	0.0	No	2.874	0.001	n/a	NoResponse	-1	n/a	n/a	6	62	Fixation	Loss	True
591.672	0.23	Lose2	0.6825	0.004	No	2.874	-0.004	4.0	NoResponse	-1	0.243	590.915	6	62	Target	Loss	True
591.906	0.47	Lose2	0.6825	n/a	No	2.874	n/a	n/a	NoResponse	-1	n/a	n/a	6	62	Blank	Loss	True
591.915	0.3	Lose2	0.6825	0.004	No	2.874	-0.004	4.0	NoResponse	-1	0.243	n/a	6	62	ButtonPress	Loss	True
592.374	1.45	Lose2	0.6825	n/a	No	2.874	n/a	5.0	NoResponse	-1	0.034	591.408	6	62	Feedback	Loss	True
593.829	2.874	Lose2	0.6825	n/a	No	2.874	n/a	n/a	NoResponse	-1	0.0	n/a	6	62	ISIslide	Loss	True
596.721	0.25	Lose2	0.6875	0.0	Yes	2.629	0.021	n/a	GoodResponse	0	n/a	n/a	6	63	Cue	AvoidedLoss	True
596.971	4.05	Lose2	0.6875	0.0	Yes	2.629	0.0	n/a	GoodResponse	0	n/a	n/a	6	63	Fixation	AvoidedLoss	True
601.017	0.22	Lose2	0.6875	0.004	Yes	2.629	-0.004	4.0	GoodResponse	0	0.209	600.226	6	63	Target	AvoidedLoss	True
601.226	0.3	Lose2	0.6875	0.004	Yes	2.629	-0.004	4.0	GoodResponse	0	0.209	n/a	6	63	ButtonPress	AvoidedLoss	True
601.251	0.48	Lose2	0.6875	n/a	Yes	2.629	n/a	n/a	GoodResponse	0	n/a	n/a	6	63	Blank	AvoidedLoss	True
601.719	1.45	Lose2	0.6875	n/a	Yes	2.629	n/a	5.0	GoodResponse	0	0.008	600.727	6	63	Feedback	AvoidedLoss	True
603.173	2.629	Lose2	0.6875	n/a	Yes	2.629	n/a	n/a	GoodResponse	0	0.0	n/a	6	63	ISIslide	AvoidedLoss	True
605.831	0.25	Win2	0.6923	0.0	Yes	3.119	0.031	n/a	GoodResponse	1	n/a	n/a	7	64	Cue	Win	True
606.082	4.15	Win2	0.6923	0.0	Yes	3.119	0.001	n/a	GoodResponse	1	n/a	n/a	7	64	Fixation	Win	True
610.228	0.21	Win2	0.6923	0.003	Yes	3.119	-0.003	4.0	GoodResponse	1	0.203	609.431	7	64	Target	Win	True
610.431	0.3	Win2	0.6923	0.003	Yes	3.119	-0.003	4.0	GoodResponse	1	0.203	n/a	7	64	ButtonPress	Win	True
610.445	0.49	Win2	0.6923	n/a	Yes	3.119	n/a	n/a	GoodResponse	1	n/a	n/a	7	64	Blank	Win	True
610.93	1.45	Win2	0.6923	n/a	Yes	3.119	n/a	5.0	GoodResponse	1	0.015	609.945	7	64	Feedback	Win	True
612.384	3.119	Win2	0.6923	n/a	Yes	3.119	n/a	n/a	GoodResponse	1	0.0	n/a	7	64	ISIslide	Win	True
615.527	0.25	Control	0.6970000000000001	0.0	Yes	2.773	0.027	n/a	GoodResponse	0	n/a	n/a	7	65	Cue	Neutral	True
615.778	4.0	Control	0.6970000000000001	0.0	Yes	2.773	0.001	n/a	GoodResponse	0	n/a	n/a	7	65	Fixation	Neutral	True
619.773	0.2	Control	0.6970000000000001	0.004	Yes	2.773	-0.004	4.0	GoodResponse	0	0.195	618.968	7	65	Target	Neutral	True
619.968	0.3	Control	0.6970000000000001	0.004	Yes	2.773	-0.004	4.0	GoodResponse	0	0.195	n/a	7	65	ButtonPress	Neutral	True
619.974	0.5	Control	0.6970000000000001	n/a	Yes	2.773	n/a	n/a	GoodResponse	0	n/a	n/a	7	65	Blank	Neutral	True
620.475	1.45	Control	0.6970000000000001	n/a	Yes	2.773	n/a	5.0	GoodResponse	0	0.031	619.506	7	65	Feedback	Neutral	True
621.929	2.773	Control	0.6970000000000001	n/a	Yes	2.773	n/a	n/a	GoodResponse	0	0.0	n/a	7	65	ISIslide	Neutral	True
624.721	0.25	Win2	0.6866	0.0	No	2.779	0.021	n/a	NoResponse	0	n/a	n/a	7	66	Cue	MissedWin	True
624.972	3.9	Win2	0.6866	0.0	No	2.779	0.001	n/a	NoResponse	0	n/a	n/a	7	66	Fixation	MissedWin	True
628.867	0.19	Win2	0.6866	0.004	No	2.779	-0.004	4.0	NoResponse	0	0.216	628.083	7	66	Target	MissedWin	True
629.067	0.51	Win2	0.6866	n/a	No	2.779	n/a	n/a	NoResponse	0	n/a	n/a	7	66	Blank	MissedWin	True
629.083	0.3	Win2	0.6866	0.004	No	2.779	-0.004	4.0	NoResponse	0	0.216	n/a	7	66	ButtonPress	MissedWin	True
629.569	1.45	Win2	0.6866	n/a	No	2.779	n/a	5.0	NoResponse	0	0.01	628.579	7	66	Feedback	MissedWin	True
631.023	2.779	Win2	0.6866	n/a	No	2.779	n/a	n/a	NoResponse	0	0.0	n/a	7	66	ISIslide	MissedWin	True
633.815	0.25	Control	0.6765000000000001	0.0	No	2.735	0.015	n/a	NoResponse	0	n/a	n/a	7	67	Cue	Neutral	True
634.066	3.95	Control	0.6765000000000001	0.0	No	2.735	0.001	n/a	NoResponse	0	n/a	n/a	7	67	Fixation	Neutral	True
638.011	0.18	Control	0.6765000000000001	0.004	No	2.735	-0.004	4.0	NoResponse	0	0.282	637.293	7	67	Target	Neutral	True
638.195	0.52	Control	0.6765000000000001	n/a	No	2.735	n/a	n/a	NoResponse	0	n/a	n/a	7	67	Blank	Neutral	True
638.293	0.3	Control	0.6765000000000001	0.004	No	2.735	-0.004	4.0	NoResponse	0	0.282	n/a	7	67	ButtonPress	Neutral	True
638.713	1.45	Control	0.6765000000000001	n/a	No	2.735	n/a	5.0	NoResponse	0	0.036	637.749	7	67	Feedback	Neutral	True
640.167	2.735	Control	0.6765000000000001	n/a	No	2.735	n/a	n/a	NoResponse	0	0.0	n/a	7	67	ISIslide	Neutral	True
642.926	0.25	Win2	0.6667000000000001	0.0	No	3.074	0.026	n/a	NoResponse	0	n/a	n/a	7	68	Cue	MissedWin	True
643.176	4.0	Win2	0.6667000000000001	0.0	No	3.074	0.0	n/a	NoResponse	0	n/a	n/a	7	68	Fixation	MissedWin	True
647.172	0.17	Win2	0.6667000000000001	0.004	No	3.074	-0.004	4.0	NoResponse	0	0.216	646.388	7	68	Target	MissedWin	True
647.356	0.53	Win2	0.6667000000000001	n/a	No	3.074	n/a	n/a	NoResponse	0	n/a	n/a	7	68	Blank	MissedWin	True
647.388	0.3	Win2	0.6667000000000001	0.004	No	3.074	-0.004	4.0	NoResponse	0	0.216	n/a	7	68	ButtonPress	MissedWin	True
647.874	1.45	Win2	0.6667000000000001	n/a	No	3.074	n/a	5.0	NoResponse	0	0.046	646.92	7	68	Feedback	MissedWin	True
649.328	3.074	Win2	0.6667000000000001	n/a	No	3.074	n/a	n/a	NoResponse	0	0.0	n/a	7	68	ISIslide	MissedWin	True
652.421	0.25	Win2	0.6570999999999999	0.0	No	3.229	0.021	n/a	NoResponse	0	n/a	n/a	7	69	Cue	MissedWin	True
652.671	3.95	Win2	0.6570999999999999	0.0	No	3.229	0.0	n/a	NoResponse	0	n/a	n/a	7	69	Fixation	MissedWin	True
656.617	0.16	Win2	0.6570999999999999	0.004	No	3.229	-0.004	4.0	NoResponse	0	0.211	655.828	7	69	Target	MissedWin	True
656.784	0.54	Win2	0.6570999999999999	n/a	No	3.229	n/a	n/a	NoResponse	0	n/a	n/a	7	69	Blank	MissedWin	True
656.828	0.3	Win2	0.6570999999999999	0.004	No	3.229	-0.004	4.0	NoResponse	0	0.211	n/a	7	69	ButtonPress	MissedWin	True
657.319	1.45	Win2	0.6570999999999999	n/a	No	3.229	n/a	5.0	NoResponse	0	0.016	656.335	7	69	Feedback	MissedWin	True
658.773	3.229	Win2	0.6570999999999999	n/a	No	3.229	n/a	n/a	NoResponse	0	0.0	n/a	7	69	ISIslide	MissedWin	True
662.016	0.25	Lose2	0.6479	0.0	No	3.034	0.016	n/a	NoResponse	-1	n/a	n/a	6	70	Cue	Loss	True
662.267	4.05	Lose2	0.6479	0.0	No	3.034	0.001	n/a	NoResponse	-1	n/a	n/a	6	70	Fixation	Loss	True
666.312	0.16	Lose2	0.6479	0.004	No	3.034	-0.004	4.0	NoResponse	-1	0.176	665.488	6	70	Target	Loss	True
666.479	0.54	Lose2	0.6479	n/a	No	3.034	n/a	n/a	NoResponse	-1	n/a	n/a	6	70	Blank	Loss	True
666.488	0.3	Lose2	0.6479	0.004	No	3.034	-0.004	4.0	NoResponse	-1	0.176	n/a	6	70	ButtonPress	Loss	True
667.014	1.45	Lose2	0.6479	n/a	No	3.034	n/a	5.0	NoResponse	-1	0.028	666.042	6	70	Feedback	Loss	True
668.469	3.034	Lose2	0.6479	n/a	No	3.034	n/a	n/a	NoResponse	-1	0.0	n/a	6	70	ISIslide	Loss	True
671.528	0.25	Win2	0.6389	0.0	No	2.722	0.028	n/a	PrematurePress	0	n/a	n/a	6	71	Cue	MissedWin	False
671.779	4.05	Win2	0.6389	0.0	No	2.722	0.001	4.0	PrematurePress	0	3.794	674.573	6	71	Fixation	MissedWin	False
675.573	0.3	Win2	0.6389	0.0	No	2.722	0.001	4.0	PrematurePress	0	3.794	n/a	6	71	ButtonPress	MissedWin	False
675.824	0.17	Win2	0.6389	0.004	No	2.722	-0.004	4.0	PrematurePress	0	0.098	674.922	6	71	Target	MissedWin	False
675.922	0.3	Win2	0.6389	0.004	No	2.722	-0.004	4.0	PrematurePress	0	0.098	n/a	6	71	ButtonPress	MissedWin	False
676.008	0.53	Win2	0.6389	n/a	No	2.722	n/a	n/a	PrematurePress	0	n/a	n/a	6	71	Blank	MissedWin	False
676.526	1.45	Win2	0.6389	n/a	No	2.722	n/a	5.0	PrematurePress	0	0.029	675.555	6	71	Feedback	MissedWin	False
677.981	2.722	Win2	0.6389	n/a	No	2.722	n/a	n/a	PrematurePress	0	0.0	n/a	6	71	ISIslide	MissedWin	False
680.722	0.25	Win2	0.6301	0.0	No	2.778	0.022	n/a	NoResponse	0	n/a	n/a	6	72	Cue	MissedWin	True
680.973	4.1	Win2	0.6301	0.0	No	2.778	0.001	n/a	NoResponse	0	n/a	n/a	6	72	Fixation	MissedWin	True
685.068	0.18	Win2	0.6301	0.004	No	2.778	-0.004	4.0	NoResponse	0	0.193	684.261	6	72	Target	MissedWin	True
685.252	0.52	Win2	0.6301	n/a	No	2.778	n/a	n/a	NoResponse	0	n/a	n/a	6	72	Blank	MissedWin	True
685.261	0.3	Win2	0.6301	0.004	No	2.778	-0.004	4.0	NoResponse	0	0.193	n/a	6	72	ButtonPress	MissedWin	True
685.77	1.45	Win2	0.6301	n/a	No	2.778	n/a	5.0	NoResponse	0	0.007	684.777	6	72	Feedback	MissedWin	True
687.225	2.778	Win2	0.6301	n/a	No	2.778	n/a	n/a	NoResponse	0	0.0	n/a	6	72	ISIslide	MissedWin	True
690.017	0.25	Win2	0.6215999999999999	0.0	No	2.683	0.017	n/a	NoResponse	0	n/a	n/a	6	73	Cue	MissedWin	True
690.267	4.0	Win2	0.6215999999999999	0.0	No	2.683	0.0	n/a	NoResponse	0	n/a	n/a	6	73	Fixation	MissedWin	True
694.263	0.19	Win2	0.6215999999999999	0.004	No	2.683	-0.004	4.0	NoResponse	0	0.209	693.472	6	73	Target	MissedWin	True
694.463	0.51	Win2	0.6215999999999999	n/a	No	2.683	n/a	n/a	NoResponse	0	n/a	n/a	6	73	Blank	MissedWin	True
694.472	0.3	Win2	0.6215999999999999	0.004	No	2.683	-0.004	4.0	NoResponse	0	0.209	n/a	6	73	ButtonPress	MissedWin	True
694.965	1.45	Win2	0.6215999999999999	n/a	No	2.683	n/a	5.0	NoResponse	0	0.028	693.993	6	73	Feedback	MissedWin	True
696.419	2.683	Win2	0.6215999999999999	n/a	No	2.683	n/a	n/a	NoResponse	0	0.0	n/a	6	73	ISIslide	MissedWin	True
699.127	0.25	Lose2	0.6133	0.0	No	2.623	0.027	n/a	LatePress	-1	n/a	n/a	5	74	Cue	Loss	True
699.378	4.05	Lose2	0.6133	0.0	No	2.623	0.001	n/a	LatePress	-1	n/a	n/a	5	74	Fixation	Loss	True
703.423	0.2	Lose2	0.6133	0.004	No	2.623	-0.004	4.0	LatePress	-1	0.202	702.625	5	74	Target	Loss	True
703.624	0.5	Lose2	0.6133	n/a	No	2.623	n/a	n/a	LatePress	-1	n/a	n/a	5	74	Blank	Loss	True
703.625	0.3	Lose2	0.6133	0.004	No	2.623	-0.004	4.0	LatePress	-1	0.202	n/a	5	74	ButtonPress	Loss	True
704.125	1.45	Lose2	0.6133	n/a	No	2.623	n/a	5.0	LatePress	-1	0.039	703.164	5	74	Feedback	Loss	True
705.58	2.623	Lose2	0.6133	n/a	No	2.623	n/a	n/a	LatePress	-1	0.0	n/a	5	74	ISIslide	Loss	True
708.221	0.25	Lose2	0.6053000000000001	0.0	No	2.929	0.021	n/a	LatePress	-1	n/a	n/a	4	75	Cue	Loss	True
708.472	3.95	Lose2	0.6053000000000001	0.0	No	2.929	0.001	n/a	LatePress	-1	n/a	n/a	4	75	Fixation	Loss	True
712.417	0.21	Lose2	0.6053000000000001	0.004	No	2.929	-0.004	4.0	LatePress	-1	0.21	711.627	4	75	Target	Loss	True
712.627	0.3	Lose2	0.6053000000000001	0.004	No	2.929	-0.004	4.0	LatePress	-1	0.21	n/a	4	75	ButtonPress	Loss	True
712.634	0.49	Lose2	0.6053000000000001	n/a	No	2.929	n/a	n/a	LatePress	-1	n/a	n/a	4	75	Blank	Loss	True
713.119	1.45	Lose2	0.6053000000000001	n/a	No	2.929	n/a	5.0	LatePress	-1	0.02	712.139	4	75	Feedback	Loss	True
714.573	2.929	Lose2	0.6053000000000001	n/a	No	2.929	n/a	n/a	LatePress	-1	0.0	n/a	4	75	ISIslide	Loss	True
717.516	0.25	Control	0.6103999999999999	0.0	Yes	3.234	0.016	n/a	GoodResponse	0	n/a	n/a	4	76	Cue	Neutral	True
717.766	4.05	Control	0.6103999999999999	0.0	Yes	3.234	0.0	n/a	GoodResponse	0	n/a	n/a	4	76	Fixation	Neutral	True
721.812	0.22	Control	0.6103999999999999	0.004	Yes	3.234	-0.004	4.0	GoodResponse	0	0.202	721.014	4	76	Target	Neutral	True
722.014	0.3	Control	0.6103999999999999	0.004	Yes	3.234	-0.004	4.0	GoodResponse	0	0.202	n/a	4	76	ButtonPress	Neutral	True
722.046	0.48	Control	0.6103999999999999	n/a	Yes	3.234	n/a	n/a	GoodResponse	0	n/a	n/a	4	76	Blank	Neutral	True
722.514	1.45	Control	0.6103999999999999	n/a	Yes	3.234	n/a	5.0	GoodResponse	0	0.04	721.554	4	76	Feedback	Neutral	True
723.968	3.234	Control	0.6103999999999999	n/a	Yes	3.234	n/a	n/a	GoodResponse	0	0.0	n/a	4	76	ISIslide	Neutral	True
727.228	0.25	Lose2	0.6154	0.0	Yes	2.572	0.028	n/a	GoodResponse	0	n/a	n/a	4	77	Cue	AvoidedLoss	True
727.479	3.95	Lose2	0.6154	0.0	Yes	2.572	0.001	n/a	GoodResponse	0	n/a	n/a	4	77	Fixation	AvoidedLoss	True
731.424	0.23	Lose2	0.6154	0.004	Yes	2.572	-0.004	4.0	GoodResponse	0	0.169	730.593	4	77	Target	AvoidedLoss	True
731.593	0.3	Lose2	0.6154	0.004	Yes	2.572	-0.004	4.0	GoodResponse	0	0.169	n/a	4	77	ButtonPress	AvoidedLoss	True
731.658	0.47	Lose2	0.6154	n/a	Yes	2.572	n/a	n/a	GoodResponse	0	n/a	n/a	4	77	Blank	AvoidedLoss	True
732.126	1.45	Lose2	0.6154	n/a	Yes	2.572	n/a	5.0	GoodResponse	0	0.038	731.164	4	77	Feedback	AvoidedLoss	True
733.58	2.572	Lose2	0.6154	n/a	Yes	2.572	n/a	n/a	GoodResponse	0	0.0	n/a	4	77	ISIslide	AvoidedLoss	True
