onset	duration	cue_type	current_mean_accuracy	duration_error	is_hit	isi_adjusted	onset_delay	response	response_type	reward	rt	rt_time	total_reward	trial_number	trial_phase	trial_type	one_press
11.102	0.25	Control	1.0	0.0	Yes	2.948	0.002	n/a	GoodResponse	0	n/a	n/a	0	0	Cue	Neutral	True
11.353	3.85	Control	1.0	0.0	Yes	2.948	0.001	n/a	GoodResponse	0	n/a	n/a	0	0	Fixation	Neutral	True
15.198	0.4	Control	1.0	0.004	Yes	2.948	-0.004	2.0	GoodResponse	0	0.217	14.415	0	0	Target	Neutral	True
15.415	0.3	Control	1.0	0.004	Yes	2.948	-0.004	2.0	GoodResponse	0	0.217	n/a	0	0	ButtonPress	Neutral	True
15.599	0.3	Control	1.0	n/a	Yes	2.948	n/a	n/a	GoodResponse	0	n/a	n/a	0	0	Blank	Neutral	True
15.9	1.45	Control	1.0	n/a	Yes	2.948	n/a	5.0	GoodResponse	0	0.026	14.926	0	0	Feedback	Neutral	True
17.354	2.948	Control	1.0	n/a	Yes	2.948	n/a	n/a	GoodResponse	0	0.0	n/a	0	0	ISIslide	Neutral	True
20.33	0.25	Lose2	1.0	0.0	Yes	2.77	0.03	n/a	GoodResponse	0	n/a	n/a	0	1	Cue	AvoidedLoss	True
20.58	4.0	Lose2	1.0	0.001	Yes	2.77	0.0	n/a	GoodResponse	0	n/a	n/a	0	1	Fixation	AvoidedLoss	True
24.576	0.39	Lose2	1.0	0.004	Yes	2.77	-0.004	2.0	GoodResponse	0	0.209	23.785	0	1	Target	AvoidedLoss	True
24.785	0.3	Lose2	1.0	0.004	Yes	2.77	-0.004	2.0	GoodResponse	0	0.209	n/a	0	1	ButtonPress	AvoidedLoss	True
24.977	0.31	Lose2	1.0	n/a	Yes	2.77	n/a	n/a	GoodResponse	0	n/a	n/a	0	1	Blank	AvoidedLoss	True
25.278	1.45	Lose2	1.0	n/a	Yes	2.77	n/a	5.0	GoodResponse	0	0.014	24.292	0	1	Feedback	AvoidedLoss	True
26.732	2.77	Lose2	1.0	n/a	Yes	2.77	n/a	n/a	GoodResponse	0	0.0	n/a	0	1	ISIslide	AvoidedLoss	True
29.524	0.25	Control	1.0	0.0	Yes	2.576	0.024	n/a	GoodResponse	0	n/a	n/a	0	2	Cue	Neutral	True
29.775	4.1	Control	1.0	0.0	Yes	2.576	0.001	n/a	GoodResponse	0	n/a	n/a	0	2	Fixation	Neutral	True
33.87	0.38	Control	1.0	0.004	Yes	2.576	-0.004	2.0	GoodResponse	0	0.205	33.075	0	2	Target	Neutral	True
34.075	0.3	Control	1.0	0.004	Yes	2.576	-0.004	2.0	GoodResponse	0	0.205	n/a	0	2	ButtonPress	Neutral	True
34.255	0.32	Control	1.0	n/a	Yes	2.576	n/a	n/a	GoodResponse	0	n/a	n/a	0	2	Blank	Neutral	True
34.572	1.45	Control	1.0	n/a	Yes	2.576	n/a	5.0	GoodResponse	0	0.037	33.609	0	2	Feedback	Neutral	True
36.027	2.576	Control	1.0	n/a	Yes	2.576	n/a	n/a	GoodResponse	0	0.0	n/a	0	2	ISIslide	Neutral	True
38.618	0.25	Win2	1.0	0.0	Yes	2.832	0.018	n/a	GoodResponse	1	n/a	n/a	1	3	Cue	Win	True
38.868	3.95	Win2	1.0	0.0	Yes	2.832	0.0	n/a	GoodResponse	1	n/a	n/a	1	3	Fixation	Win	True
42.814	0.37	Win2	1.0	0.004	Yes	2.832	-0.004	2.0	GoodResponse	1	0.2	42.014	1	3	Target	Win	True
43.014	0.3	Win2	1.0	0.004	Yes	2.832	-0.004	2.0	GoodResponse	1	0.2	n/a	1	3	ButtonPress	Win	True
43.198	0.33	Win2	1.0	n/a	Yes	2.832	n/a	n/a	GoodResponse	1	n/a	n/a	1	3	Blank	Win	True
43.516	1.45	Win2	1.0	n/a	Yes	2.832	n/a	5.0	GoodResponse	1	0.02	42.536	1	3	Feedback	Win	True
44.97	2.832	Win2	1.0	n/a	Yes	2.832	n/a	n/a	GoodResponse	1	0.0	n/a	1	3	ISIslide	Win	True
47.828	0.25	Win2	1.0	0.001	Yes	3.272	0.028	n/a	GoodResponse	1	n/a	n/a	2	4	Cue	Win	True
48.079	4.0	Win2	1.0	0.0	Yes	3.272	0.001	n/a	GoodResponse	1	n/a	n/a	2	4	Fixation	Win	True
52.075	0.36	Win2	1.0	0.003	Yes	3.272	-0.003	2.0	GoodResponse	1	0.176	51.251	2	4	Target	Win	True
52.251	0.3	Win2	1.0	0.003	Yes	3.272	-0.003	2.0	GoodResponse	1	0.176	n/a	2	4	ButtonPress	Win	True
52.442	0.34	Win2	1.0	n/a	Yes	3.272	n/a	n/a	GoodResponse	1	n/a	n/a	2	4	Blank	Win	True
52.777	1.45	Win2	1.0	n/a	Yes	3.272	n/a	5.0	GoodResponse	1	0.026	51.803	2	4	Feedback	Win	True
54.231	3.272	Win2	1.0	n/a	Yes	3.272	n/a	n/a	GoodResponse	1	0.0	n/a	2	4	ISIslide	Win	True
57.524	0.25	Win2	1.0	0.0	Yes	2.776	0.024	n/a	GoodResponse	1	n/a	n/a	3	5	Cue	Win	True
57.775	4.0	Win2	1.0	0.0	Yes	2.776	0.001	n/a	GoodResponse	1	n/a	n/a	3	5	Fixation	Win	True
61.77	0.35	Win2	1.0	0.004	Yes	2.776	-0.004	2.0	GoodResponse	1	0.216	60.986	3	5	Target	Win	True
61.986	0.3	Win2	1.0	0.004	Yes	2.776	-0.004	2.0	GoodResponse	1	0.216	n/a	3	5	ButtonPress	Win	True
62.121	0.35	Win2	1.0	n/a	Yes	2.776	n/a	n/a	GoodResponse	1	n/a	n/a	3	5	Blank	Win	True
62.472	1.45	Win2	1.0	n/a	Yes	2.776	n/a	5.0	GoodResponse	1	0.039	61.511	3	5	Feedback	Win	True
63.927	2.776	Win2	1.0	n/a	Yes	2.776	n/a	n/a	GoodResponse	1	0.0	n/a	3	5	ISIslide	Win	True
66.718	0.25	Lose2	1.0	0.0	Yes	2.732	0.018	n/a	GoodResponse	0	n/a	n/a	3	6	Cue	AvoidedLoss	True
66.969	3.95	Lose2	1.0	0.0	Yes	2.732	0.001	n/a	GoodResponse	0	n/a	n/a	3	6	Fixation	AvoidedLoss	True
70.914	0.34	Lose2	1.0	0.004	Yes	2.732	-0.004	2.0	GoodResponse	0	0.196	70.11	3	6	Target	AvoidedLoss	True
71.11	0.3	Lose2	1.0	0.004	Yes	2.732	-0.004	2.0	GoodResponse	0	0.196	n/a	3	6	ButtonPress	AvoidedLoss	True
71.265	0.36	Lose2	1.0	n/a	Yes	2.732	n/a	n/a	GoodResponse	0	n/a	n/a	3	6	Blank	AvoidedLoss	True
71.616	1.45	Lose2	1.0	n/a	Yes	2.732	n/a	5.0	GoodResponse	0	0.017	70.633	3	6	Feedback	AvoidedLoss	True
73.071	2.732	Lose2	1.0	n/a	Yes	2.732	n/a	n/a	GoodResponse	0	0.0	n/a	3	6	ISIslide	AvoidedLoss	True
75.829	0.25	Lose2	1.0	0.0	Yes	4.021	0.029	n/a	GoodResponse	0	n/a	n/a	3	7	Cue	AvoidedLoss	True
76.08	4.05	Lose2	1.0	0.0	Yes	4.021	0.001	n/a	GoodResponse	0	n/a	n/a	3	7	Fixation	AvoidedLoss	True
80.125	0.33	Lose2	1.0	0.004	Yes	4.021	-0.004	2.0	GoodResponse	0	0.196	79.321	3	7	Target	AvoidedLoss	True
80.321	0.3	Lose2	1.0	0.004	Yes	4.021	-0.004	2.0	GoodResponse	0	0.196	n/a	3	7	ButtonPress	AvoidedLoss	True
80.459	0.37	Lose2	1.0	n/a	Yes	4.021	n/a	n/a	GoodResponse	0	n/a	n/a	3	7	Blank	AvoidedLoss	True
80.827	1.45	Lose2	1.0	n/a	Yes	4.021	n/a	5.0	GoodResponse	0	0.025	79.852	3	7	Feedback	AvoidedLoss	True
82.281	4.021	Lose2	1.0	n/a	Yes	4.021	n/a	n/a	GoodResponse	0	0.0	n/a	3	7	ISIslide	AvoidedLoss	True
86.327	0.25	Lose2	1.0	0.0	Yes	3.023	0.027	n/a	GoodResponse	0	n/a	n/a	3	8	Cue	AvoidedLoss	True
86.578	3.95	Lose2	1.0	0.0	Yes	3.023	0.001	n/a	GoodResponse	0	n/a	n/a	3	8	Fixation	AvoidedLoss	True
90.523	0.32	Lose2	1.0	0.004	Yes	3.023	-0.004	2.0	GoodResponse	0	0.176	89.699	3	8	Target	AvoidedLoss	True
90.699	0.3	Lose2	1.0	0.004	Yes	3.023	-0.004	2.0	GoodResponse	0	0.176	n/a	3	8	ButtonPress	AvoidedLoss	True
90.857	0.38	Lose2	1.0	n/a	Yes	3.023	n/a	n/a	GoodResponse	0	n/a	n/a	3	8	Blank	AvoidedLoss	True
91.225	1.45	Lose2	1.0	n/a	Yes	3.023	n/a	5.0	GoodResponse	0	0.017	90.242	3	8	Feedback	AvoidedLoss	True
92.679	3.023	Lose2	1.0	n/a	Yes	3.023	n/a	n/a	GoodResponse	0	0.0	n/a	3	8	ISIslide	AvoidedLoss	True
95.722	0.25	Lose2	1.0	0.0	Yes	3.128	0.022	n/a	GoodResponse	0	n/a	n/a	3	9	Cue	AvoidedLoss	True
95.972	3.95	Lose2	1.0	0.0	Yes	3.128	0.0	n/a	GoodResponse	0	n/a	n/a	3	9	Fixation	AvoidedLoss	True
99.934	0.31	Lose2	1.0	0.0	Yes	3.128	0.012	2.0	GoodResponse	0	0.193	99.127	3	9	Target	AvoidedLoss	True
100.127	0.3	Lose2	1.0	0.0	Yes	3.128	0.012	2.0	GoodResponse	0	0.193	n/a	3	9	ButtonPress	AvoidedLoss	True
100.235	0.39	Lose2	1.0	n/a	Yes	3.128	n/a	n/a	GoodResponse	0	n/a	n/a	3	9	Blank	AvoidedLoss	True
100.619	1.45	Lose2	1.0	n/a	Yes	3.128	n/a	5.0	GoodResponse	0	0.037	99.656	3	9	Feedback	AvoidedLoss	True
102.074	3.128	Lose2	1.0	n/a	Yes	3.128	n/a	n/a	GoodResponse	0	0.0	n/a	3	9	ISIslide	AvoidedLoss	True
105.217	0.25	Control	1.0	0.0	Yes	3.283	0.017	n/a	GoodResponse	0	n/a	n/a	3	10	Cue	Neutral	True
105.467	4.0	Control	1.0	0.0	Yes	3.283	0.0	n/a	GoodResponse	0	n/a	n/a	3	10	Fixation	Neutral	True
109.463	0.3	Control	1.0	0.004	Yes	3.283	-0.004	2.0	GoodResponse	0	0.155	108.618	3	10	Target	Neutral	True
109.618	0.3	Control	1.0	0.004	Yes	3.283	-0.004	2.0	GoodResponse	0	0.155	n/a	3	10	ButtonPress	Neutral	True
109.763	0.4	Control	1.0	n/a	Yes	3.283	n/a	n/a	GoodResponse	0	n/a	n/a	3	10	Blank	Neutral	True
110.165	1.45	Control	1.0	n/a	Yes	3.283	n/a	5.0	GoodResponse	0	0.008	109.173	3	10	Feedback	Neutral	True
111.619	3.283	Control	1.0	n/a	Yes	3.283	n/a	n/a	GoodResponse	0	0.0	n/a	3	10	ISIslide	Neutral	True
114.929	0.25	Lose2	1.0	0.0	Yes	2.721	0.029	n/a	GoodResponse	0	n/a	n/a	3	11	Cue	AvoidedLoss	True
115.18	4.05	Lose2	1.0	0.0	Yes	2.721	0.001	n/a	GoodResponse	0	n/a	n/a	3	11	Fixation	AvoidedLoss	True
119.225	0.29	Lose2	1.0	0.004	Yes	2.721	-0.004	2.0	GoodResponse	0	0.201	118.426	3	11	Target	AvoidedLoss	True
119.426	0.3	Lose2	1.0	0.004	Yes	2.721	-0.004	2.0	GoodResponse	0	0.201	n/a	3	11	ButtonPress	AvoidedLoss	True
119.526	0.41	Lose2	1.0	n/a	Yes	2.721	n/a	n/a	GoodResponse	0	n/a	n/a	3	11	Blank	AvoidedLoss	True
119.927	1.45	Lose2	1.0	n/a	Yes	2.721	n/a	5.0	GoodResponse	0	0.047	118.974	3	11	Feedback	AvoidedLoss	True
121.381	2.721	Lose2	1.0	n/a	Yes	2.721	n/a	n/a	GoodResponse	0	0.0	n/a	3	11	ISIslide	AvoidedLoss	True
124.123	0.25	Control	1.0	0.0	Yes	2.977	0.023	n/a	GoodResponse	0	n/a	n/a	3	12	Cue	Neutral	True
124.374	3.9	Control	1.0	0.0	Yes	2.977	0.001	n/a	GoodResponse	0	n/a	n/a	3	12	Fixation	Neutral	True
128.269	0.28	Control	1.0	0.004	Yes	2.977	-0.004	2.0	GoodResponse	0	0.202	127.471	3	12	Target	Neutral	True
128.471	0.3	Control	1.0	0.004	Yes	2.977	-0.004	2.0	GoodResponse	0	0.202	n/a	3	12	ButtonPress	Neutral	True
128.553	0.42	Control	1.0	n/a	Yes	2.977	n/a	n/a	GoodResponse	0	n/a	n/a	3	12	Blank	Neutral	True
128.971	1.45	Control	1.0	n/a	Yes	2.977	n/a	5.0	GoodResponse	0	0.026	127.997	3	12	Feedback	Neutral	True
130.425	2.977	Control	1.0	n/a	Yes	2.977	n/a	n/a	GoodResponse	0	0.0	n/a	3	12	ISIslide	Neutral	True
133.417	0.25	Control	1.0	0.001	Yes	2.783	0.017	n/a	GoodResponse	0	n/a	n/a	3	13	Cue	Neutral	True
133.668	4.0	Control	1.0	0.0	Yes	2.783	0.001	n/a	GoodResponse	0	n/a	n/a	3	13	Fixation	Neutral	True
137.663	0.27	Control	1.0	0.004	Yes	2.783	-0.004	2.0	GoodResponse	0	0.207	136.87	3	13	Target	Neutral	True
137.87	0.3	Control	1.0	0.004	Yes	2.783	-0.004	2.0	GoodResponse	0	0.207	n/a	3	13	ButtonPress	Neutral	True
137.948	0.43	Control	1.0	n/a	Yes	2.783	n/a	n/a	GoodResponse	0	n/a	n/a	3	13	Blank	Neutral	True
138.366	1.45	Control	1.0	n/a	Yes	2.783	n/a	5.0	GoodResponse	0	0.046	137.412	3	13	Feedback	Neutral	True
139.82	2.783	Control	1.0	n/a	Yes	2.783	n/a	n/a	GoodResponse	0	0.0	n/a	3	13	ISIslide	Neutral	True
142.628	0.25	Win2	1.0	0.0	Yes	2.672	0.028	n/a	GoodResponse	1	n/a	n/a	4	14	Cue	Win	True
142.879	4.1	Win2	1.0	0.0	Yes	2.672	0.001	n/a	GoodResponse	1	n/a	n/a	4	14	Fixation	Win	True
146.975	0.26	Win2	1.0	0.003	Yes	2.672	-0.003	2.0	GoodResponse	1	0.168	146.143	4	14	Target	Win	True
147.143	0.3	Win2	1.0	0.003	Yes	2.672	-0.003	2.0	GoodResponse	1	0.168	n/a	4	14	ButtonPress	Win	True
147.242	0.44	Win2	1.0	n/a	Yes	2.672	n/a	n/a	GoodResponse	1	n/a	n/a	4	14	Blank	Win	True
147.677	1.45	Win2	1.0	n/a	Yes	2.672	n/a	5.0	GoodResponse	1	0.007	146.684	4	14	Feedback	Win	True
149.131	2.672	Win2	1.0	n/a	Yes	2.672	n/a	n/a	GoodResponse	1	0.0	n/a	4	14	ISIslide	Win	True
151.822	0.25	Control	1.0	0.0	Yes	2.978	0.022	n/a	GoodResponse	0	n/a	n/a	4	15	Cue	Neutral	True
152.073	4.0	Control	1.0	0.0	Yes	2.978	0.001	n/a	GoodResponse	0	n/a	n/a	4	15	Fixation	Neutral	True
156.068	0.25	Control	1.0	0.004	Yes	2.978	-0.004	2.0	GoodResponse	0	0.209	155.277	4	15	Target	Neutral	True
156.277	0.3	Control	1.0	0.004	Yes	2.978	-0.004	2.0	GoodResponse	0	0.209	n/a	4	15	ButtonPress	Neutral	True
156.319	0.45	Control	1.0	n/a	Yes	2.978	n/a	n/a	GoodResponse	0	n/a	n/a	4	15	Blank	Neutral	True
156.771	1.45	Control	1.0	n/a	Yes	2.978	n/a	5.0	GoodResponse	0	0.031	155.802	4	15	Feedback	Neutral	True
158.225	2.978	Control	1.0	n/a	Yes	2.978	n/a	n/a	GoodResponse	0	0.0	n/a	4	15	ISIslide	Neutral	True
161.217	0.25	Win2	1.0	0.0	Yes	2.883	0.017	n/a	GoodResponse	1	n/a	n/a	5	16	Cue	Win	True
161.468	4.0	Win2	1.0	0.0	Yes	2.883	0.001	n/a	GoodResponse	1	n/a	n/a	5	16	Fixation	Win	True
165.463	0.24	Win2	1.0	0.004	Yes	2.883	-0.004	2.0	GoodResponse	1	0.206	164.669	5	16	Target	Win	True
165.669	0.3	Win2	1.0	0.004	Yes	2.883	-0.004	2.0	GoodResponse	1	0.206	n/a	5	16	ButtonPress	Win	True
165.714	0.46	Win2	1.0	n/a	Yes	2.883	n/a	n/a	GoodResponse	1	n/a	n/a	5	16	Blank	Win	True
166.165	1.45	Win2	1.0	n/a	Yes	2.883	n/a	5.0	GoodResponse	1	0.008	165.173	5	16	Feedback	Win	True
167.62	2.883	Win2	1.0	n/a	Yes	2.883	n/a	n/a	GoodResponse	1	0.0	n/a	5	16	ISIslide	Win	True
170.528	0.25	Lose2	0.9444	0.0	No	2.722	0.028	n/a	NoResponse	-1	n/a	n/a	4	17	Cue	Loss	True
170.779	3.95	Lose2	0.9444	0.0	No	2.722	0.001	n/a	NoResponse	-1	n/a	n/a	4	17	Fixation	Loss	True
174.724	0.23	Lose2	0.9444	0.004	No	2.722	-0.004	2.0	NoResponse	-1	0.243	173.967	4	17	Target	Loss	True
174.958	0.47	Lose2	0.9444	n/a	No	2.722	n/a	n/a	NoResponse	-1	n/a	n/a	4	17	Blank	Loss	True
174.967	0.3	Lose2	0.9444	0.004	No	2.722	-0.004	2.0	NoResponse	-1	0.243	n/a	4	17	ButtonPress	Loss	True
175.426	1.45	Lose2	0.9444	n/a	No	2.722	n/a	5.0	NoResponse	-1	0.01	174.436	4	17	Feedback	Loss	True
176.881	2.722	Lose2	0.9444	n/a	No	2.722	n/a	n/a	NoResponse	-1	0.0	n/a	4	17	ISIslide	Loss	True
179.622	0.25	Lose2	0.8946999999999999	0.0	No	2.728	0.022	n/a	LatePress	-1	n/a	n/a	3	18	Cue	Loss	True
179.873	4.05	Lose2	0.8946999999999999	0.0	No	2.728	0.001	n/a	LatePress	-1	n/a	n/a	3	18	Fixation	Loss	True
183.918	0.22	Lose2	0.8946999999999999	0.004	No	2.728	-0.004	2.0	LatePress	-1	0.222	183.14	3	18	Target	Loss	True
184.14	0.3	Lose2	0.8946999999999999	0.004	No	2.728	-0.004	2.0	LatePress	-1	0.222	n/a	3	18	ButtonPress	Loss	True
184.152	0.48	Lose2	0.8946999999999999	n/a	No	2.728	n/a	n/a	LatePress	-1	n/a	n/a	3	18	Blank	Loss	True
184.62	1.45	Lose2	0.8946999999999999	n/a	No	2.728	n/a	5.0	LatePress	-1	0.035	183.655	3	18	Feedback	Loss	True
186.075	2.728	Lose2	0.8946999999999999	n/a	No	2.728	n/a	n/a	LatePress	-1	0.0	n/a	3	18	ISIslide	Loss	True
188.816	0.25	Control	0.9	0.0	Yes	2.934	0.016	n/a	GoodResponse	0	n/a	n/a	3	19	Cue	Neutral	True
189.067	3.95	Control	0.9	0.0	Yes	2.934	0.001	n/a	GoodResponse	0	n/a	n/a	3	19	Fixation	Neutral	True
193.012	0.21	Control	0.9	0.004	Yes	2.934	-0.004	2.0	GoodResponse	0	0.201	192.213	3	19	Target	Neutral	True
193.213	0.3	Control	0.9	0.004	Yes	2.934	-0.004	2.0	GoodResponse	0	0.201	n/a	3	19	ButtonPress	Neutral	True
193.229	0.49	Control	0.9	n/a	Yes	2.934	n/a	n/a	GoodResponse	0	n/a	n/a	3	19	Blank	Neutral	True
193.714	1.45	Control	0.9	n/a	Yes	2.934	n/a	5.0	GoodResponse	0	0.015	192.729	3	19	Feedback	Neutral	True
195.169	2.934	Control	0.9	n/a	Yes	2.934	n/a	n/a	GoodResponse	0	0.0	n/a	3	19	ISIslide	Neutral	True
198.127	0.25	Control	0.8571	0.0	No	2.623	0.027	n/a	NoResponse	0	n/a	n/a	3	20	Cue	Neutral	True
198.378	4.05	Control	0.8571	0.0	No	2.623	0.001	n/a	NoResponse	0	n/a	n/a	3	20	Fixation	Neutral	True
202.424	0.2	Control	0.8571	0.003	No	2.623	-0.003	2.0	NoResponse	0	0.212	201.636	3	20	Target	Neutral	True
202.624	0.5	Control	0.8571	n/a	No	2.623	n/a	n/a	NoResponse	0	n/a	n/a	3	20	Blank	Neutral	True
202.636	0.3	Control	0.8571	0.003	No	2.623	-0.003	2.0	NoResponse	0	0.212	n/a	3	20	ButtonPress	Neutral	True
203.126	1.45	Control	0.8571	n/a	No	2.623	n/a	5.0	NoResponse	0	0.016	202.142	3	20	Feedback	Neutral	True
204.58	2.623	Control	0.8571	n/a	No	2.623	n/a	n/a	NoResponse	0	0.0	n/a	3	20	ISIslide	Neutral	True
207.221	0.25	Control	0.8181999999999999	0.0	No	2.779	0.021	n/a	LatePress	0	n/a	n/a	3	21	Cue	Neutral	True
207.472	4.1	Control	0.8181999999999999	0.0	No	2.779	0.001	n/a	LatePress	0	n/a	n/a	3	21	Fixation	Neutral	True
211.568	0.19	Control	0.8181999999999999	0.003	No	2.779	-0.003	2.0	LatePress	0	0.2	210.768	3	21	Target	Neutral	True
211.768	0.51	Control	0.8181999999999999	n/a	No	2.779	n/a	n/a	LatePress	0	n/a	n/a	3	21	Blank	Neutral	True
211.768	0.3	Control	0.8181999999999999	0.003	No	2.779	-0.003	2.0	LatePress	0	0.2	n/a	3	21	ButtonPress	Neutral	True
212.27	1.45	Control	0.8181999999999999	n/a	No	2.779	n/a	5.0	LatePress	0	0.043	211.313	3	21	Feedback	Neutral	True
213.724	2.779	Control	0.8181999999999999	n/a	No	2.779	n/a	n/a	LatePress	0	0.0	n/a	3	21	ISIslide	Neutral	True
216.516	0.25	Control	0.7826000000000001	0.0	No	2.784	0.016	n/a	NoResponse	0	n/a	n/a	3	22	Cue	Neutral	True
216.766	4.0	Control	0.7826000000000001	0.0	No	2.784	0.0	n/a	NoResponse	0	n/a	n/a	3	22	Fixation	Neutral	True
220.762	0.18	Control	0.7826000000000001	0.004	No	2.784	-0.004	2.0	NoResponse	0	0.202	219.964	3	22	Target	Neutral	True
220.946	0.52	Control	0.7826000000000001	n/a	No	2.784	n/a	n/a	NoResponse	0	n/a	n/a	3	22	Blank	Neutral	True
220.964	0.3	Control	0.7826000000000001	0.004	No	2.784	-0.004	2.0	NoResponse	0	0.202	n/a	3	22	ButtonPress	Neutral	True
221.464	1.45	Control	0.7826000000000001	n/a	No	2.784	n/a	5.0	NoResponse	0	0.02	220.484	3	22	Feedback	Neutral	True
222.918	2.784	Control	0.7826000000000001	n/a	No	2.784	n/a	n/a	NoResponse	0	0.0	n/a	3	22	ISIslide	Neutral	True
225.726	0.25	Control	0.75	0.001	No	2.774	0.026	n/a	NoResponse	0	n/a	n/a	3	23	Cue	Neutral	True
225.977	3.9	Control	0.75	0.0	No	2.774	0.001	n/a	NoResponse	0	n/a	n/a	3	23	Fixation	Neutral	True
229.872	0.17	Control	0.75	0.004	No	2.774	-0.004	2.0	NoResponse	0	0.209	229.081	3	23	Target	Neutral	True
230.056	0.53	Control	0.75	n/a	No	2.774	n/a	n/a	NoResponse	0	n/a	n/a	3	23	Blank	Neutral	True
230.081	0.3	Control	0.75	0.004	No	2.774	-0.004	2.0	NoResponse	0	0.209	n/a	3	23	ButtonPress	Neutral	True
230.574	1.45	Control	0.75	n/a	No	2.774	n/a	5.0	NoResponse	0	0.032	229.606	3	23	Feedback	Neutral	True
232.029	2.774	Control	0.75	n/a	No	2.774	n/a	n/a	NoResponse	0	0.0	n/a	3	23	ISIslide	Neutral	True
234.82	0.25	Win2	0.72	0.0	No	3.13	0.02	n/a	NoResponse	0	n/a	n/a	3	24	Cue	MissedWin	True
235.071	3.95	Win2	0.72	0.0	No	3.13	0.001	n/a	NoResponse	0	n/a	n/a	3	24	Fixation	MissedWin	True
239.016	0.16	Win2	0.72	0.004	No	3.13	-0.004	2.0	NoResponse	0	0.197	238.213	3	24	Target	MissedWin	True
239.183	0.54	Win2	0.72	n/a	No	3.13	n/a	n/a	NoResponse	0	n/a	n/a	3	24	Blank	MissedWin	True
239.213	0.3	Win2	0.72	0.004	No	3.13	-0.004	2.0	NoResponse	0	0.197	n/a	3	24	ButtonPress	MissedWin	True
239.718	1.45	Win2	0.72	n/a	No	3.13	n/a	5.0	NoResponse	0	0.009	238.727	3	24	Feedback	MissedWin	True
241.173	3.13	Win2	0.72	n/a	No	3.13	n/a	n/a	NoResponse	0	0.0	n/a	3	24	ISIslide	MissedWin	True
244.315	0.25	Win2	0.6923	0.0	No	3.085	0.015	n/a	NoResponse	0	n/a	n/a	3	25	Cue	MissedWin	True
244.566	4.0	Win2	0.6923	0.0	No	3.085	0.001	n/a	NoResponse	0	n/a	n/a	3	25	Fixation	MissedWin	True
248.561	0.15	Win2	0.6923	0.004	No	3.085	-0.004	2.0	NoResponse	0	0.178	247.739	3	25	Target	MissedWin	True
248.712	0.55	Win2	0.6923	n/a	No	3.085	n/a	n/a	NoResponse	0	n/a	n/a	3	25	Blank	MissedWin	True
248.739	0.3	Win2	0.6923	0.004	No	3.085	-0.004	2.0	NoResponse	0	0.178	n/a	3	25	ButtonPress	MissedWin	True
249.263	1.45	Win2	0.6923	n/a	No	3.085	n/a	5.0	NoResponse	0	0.025	248.288	3	25	Feedback	MissedWin	True
250.718	3.085	Win2	0.6923	n/a	No	3.085	n/a	n/a	NoResponse	0	0.0	n/a	3	25	ISIslide	MissedWin	True
253.827	0.25	Win2	0.6667000000000001	0.0	No	2.923	0.027	n/a	NoResponse	0	n/a	n/a	3	26	Cue	MissedWin	True
254.078	3.95	Win2	0.6667000000000001	0.0	No	2.923	0.001	n/a	NoResponse	0	n/a	n/a	3	26	Fixation	MissedWin	True
258.023	0.15	Win2	0.6667000000000001	0.004	No	2.923	-0.004	2.0	NoResponse	0	0.206	257.229	3	26	Target	MissedWin	True
258.173	0.55	Win2	0.6667000000000001	n/a	No	2.923	n/a	n/a	NoResponse	0	n/a	n/a	3	26	Blank	MissedWin	True
258.229	0.3	Win2	0.6667000000000001	0.004	No	2.923	-0.004	2.0	NoResponse	0	0.206	n/a	3	26	ButtonPress	MissedWin	True
258.725	1.45	Win2	0.6667000000000001	n/a	No	2.923	n/a	5.0	NoResponse	0	0.027	257.752	3	26	Feedback	MissedWin	True
260.179	2.923	Win2	0.6667000000000001	n/a	No	2.923	n/a	n/a	NoResponse	0	0.0	n/a	3	26	ISIslide	MissedWin	True
263.121	0.25	Lose2	0.6786	0.001	Yes	2.829	0.021	n/a	GoodResponse	0	n/a	n/a	3	27	Cue	AvoidedLoss	True
263.372	4.05	Lose2	0.6786	0.0	Yes	2.829	0.001	n/a	GoodResponse	0	n/a	n/a	3	27	Fixation	AvoidedLoss	True
267.418	0.15	Lose2	0.6786	0.003	Yes	2.829	-0.003	2.0	GoodResponse	0	0.134	266.552	3	27	Target	AvoidedLoss	True
267.552	0.3	Lose2	0.6786	0.003	Yes	2.829	-0.003	2.0	GoodResponse	0	0.134	n/a	3	27	ButtonPress	AvoidedLoss	True
267.568	0.55	Lose2	0.6786	n/a	Yes	2.829	n/a	n/a	GoodResponse	0	n/a	n/a	3	27	Blank	AvoidedLoss	True
268.12	1.45	Lose2	0.6786	n/a	Yes	2.829	n/a	5.0	GoodResponse	0	0.046	267.166	3	27	Feedback	AvoidedLoss	True
269.574	2.829	Lose2	0.6786	n/a	Yes	2.829	n/a	n/a	GoodResponse	0	0.0	n/a	3	27	ISIslide	AvoidedLoss	True
272.416	0.25	Control	0.6897	0.0	Yes	2.834	0.016	n/a	GoodResponse	0	n/a	n/a	3	28	Cue	Neutral	True
272.667	4.05	Control	0.6897	0.0	Yes	2.834	0.001	n/a	GoodResponse	0	n/a	n/a	3	28	Fixation	Neutral	True
276.712	0.15	Control	0.6897	0.004	Yes	2.834	-0.004	2.0	GoodResponse	0	0.128	275.84	3	28	Target	Neutral	True
276.84	0.3	Control	0.6897	0.004	Yes	2.834	-0.004	2.0	GoodResponse	0	0.128	n/a	3	28	ButtonPress	Neutral	True
276.862	0.55	Control	0.6897	n/a	Yes	2.834	n/a	n/a	GoodResponse	0	n/a	n/a	3	28	Blank	Neutral	True
277.414	1.45	Control	0.6897	n/a	Yes	2.834	n/a	5.0	GoodResponse	0	0.02	276.434	3	28	Feedback	Neutral	True
278.868	2.834	Control	0.6897	n/a	Yes	2.834	n/a	n/a	GoodResponse	0	0.0	n/a	3	28	ISIslide	Neutral	True
281.727	0.25	Lose2	0.6667000000000001	0.0	No	2.823	0.027	n/a	NoResponse	-1	n/a	n/a	2	29	Cue	Loss	True
281.978	3.95	Lose2	0.6667000000000001	0.0	No	2.823	0.001	2.0	NoResponse	-1	3.853	284.831	2	29	Fixation	Loss	True
285.831	0.3	Lose2	0.6667000000000001	0.0	No	2.823	0.001	2.0	NoResponse	-1	3.853	n/a	2	29	ButtonPress	Loss	True
285.923	0.15	Lose2	0.6667000000000001	0.004	No	2.823	-0.004	n/a	NoResponse	-1	n/a	n/a	2	29	Target	Loss	True
286.073	0.55	Lose2	0.6667000000000001	n/a	No	2.823	n/a	n/a	NoResponse	-1	n/a	n/a	2	29	Blank	Loss	True
286.625	1.45	Lose2	0.6667000000000001	n/a	No	2.823	n/a	5.0	NoResponse	-1	0.028	285.653	2	29	Feedback	Loss	True
288.079	2.823	Lose2	0.6667000000000001	n/a	No	2.823	n/a	n/a	NoResponse	-1	0.0	n/a	2	29	ISIslide	Loss	True
290.921	0.25	Win2	0.6774	0.0	Yes	2.779	0.021	n/a	GoodResponse	1	n/a	n/a	3	30	Cue	Win	True
291.172	3.9	Win2	0.6774	0.0	Yes	2.779	0.001	n/a	GoodResponse	1	n/a	n/a	3	30	Fixation	Win	True
295.067	0.15	Win2	0.6774	0.004	Yes	2.779	-0.004	2.0	GoodResponse	1	0.124	294.191	3	30	Target	Win	True
295.191	0.3	Win2	0.6774	0.004	Yes	2.779	-0.004	2.0	GoodResponse	1	0.124	n/a	3	30	ButtonPress	Win	True
295.217	0.55	Win2	0.6774	n/a	Yes	2.779	n/a	n/a	GoodResponse	1	n/a	n/a	3	30	Blank	Win	True
295.769	1.45	Win2	0.6774	n/a	Yes	2.779	n/a	5.0	GoodResponse	1	0.008	294.777	3	30	Feedback	Win	True
297.223	2.779	Win2	0.6774	n/a	Yes	2.779	n/a	n/a	GoodResponse	1	0.0	n/a	3	30	ISIslide	Win	True
300.032	0.25	Lose2	0.6875	0.0	Yes	2.818	0.032	n/a	GoodResponse	0	n/a	n/a	3	31	Cue	AvoidedLoss	False
300.282	4.05	Lose2	0.6875	0.001	Yes	2.818	0.0	2.0	GoodResponse	0	3.828	303.11	3	31	Fixation	AvoidedLoss	False
304.11	0.3	Lose2	0.6875	0.001	Yes	2.818	0.0	2.0	GoodResponse	0	3.828	n/a	3	31	ButtonPress	AvoidedLoss	False
304.328	0.15	Lose2	0.6875	0.004	Yes	2.818	-0.004	2.0	GoodResponse	0	0.143	303.471	3	31	Target	AvoidedLoss	False
304.471	0.3	Lose2	0.6875	0.004	Yes	2.818	-0.004	2.0	GoodResponse	0	0.143	n/a	3	31	ButtonPress	AvoidedLoss	False
304.478	0.55	Lose2	0.6875	n/a	Yes	2.818	n/a	n/a	GoodResponse	0	n/a	n/a	3	31	Blank	AvoidedLoss	False
305.03	1.45	Lose2	0.6875	n/a	Yes	2.818	n/a	5.0	GoodResponse	0	0.014	304.044	3	31	Feedback	AvoidedLoss	False
306.484	2.818	Lose2	0.6875	n/a	Yes	2.818	n/a	n/a	GoodResponse	0	0.0	n/a	3	31	ISIslide	AvoidedLoss	False
309.326	0.25	Lose2	0.6667000000000001	0.0	No	2.624	0.026	n/a	PrematurePress	-1	n/a	n/a	2	32	Cue	Loss	True
309.577	4.15	Lose2	0.6667000000000001	0.0	No	2.624	0.001	n/a	PrematurePress	-1	n/a	n/a	2	32	Fixation	Loss	True
313.723	0.15	Lose2	0.6667000000000001	0.003	No	2.624	-0.003	2.0	PrematurePress	-1	0.078	312.801	2	32	Target	Loss	True
313.801	0.3	Lose2	0.6667000000000001	0.003	No	2.624	-0.003	2.0	PrematurePress	-1	0.078	n/a	2	32	ButtonPress	Loss	True
313.873	0.55	Lose2	0.6667000000000001	n/a	No	2.624	n/a	n/a	PrematurePress	-1	n/a	n/a	2	32	Blank	Loss	True
314.425	1.45	Lose2	0.6667000000000001	n/a	No	2.624	n/a	5.0	PrematurePress	-1	0.033	313.458	2	32	Feedback	Loss	True
315.879	2.624	Lose2	0.6667000000000001	n/a	No	2.624	n/a	n/a	PrematurePress	-1	0.0	n/a	2	32	ISIslide	Loss	True
318.52	0.25	Win2	0.6470999999999999	0.0	No	2.68	0.02	n/a	NoResponse	0	n/a	n/a	2	33	Cue	MissedWin	True
318.771	4.0	Win2	0.6470999999999999	0.0	No	2.68	0.001	n/a	NoResponse	0	n/a	n/a	2	33	Fixation	MissedWin	True
322.766	0.15	Win2	0.6470999999999999	0.004	No	2.68	-0.004	2.0	NoResponse	0	0.208	321.974	2	33	Target	MissedWin	True
322.917	0.55	Win2	0.6470999999999999	n/a	No	2.68	n/a	n/a	NoResponse	0	n/a	n/a	2	33	Blank	MissedWin	True
322.974	0.3	Win2	0.6470999999999999	0.004	No	2.68	-0.004	2.0	NoResponse	0	0.208	n/a	2	33	ButtonPress	MissedWin	True
323.468	1.45	Win2	0.6470999999999999	n/a	No	2.68	n/a	5.0	NoResponse	0	0.014	322.482	2	33	Feedback	MissedWin	True
324.923	2.68	Win2	0.6470999999999999	n/a	No	2.68	n/a	n/a	NoResponse	0	0.0	n/a	2	33	ISIslide	MissedWin	True
327.631	0.25	Lose2	0.6286	0.0	No	2.619	0.031	n/a	NoResponse	-1	n/a	n/a	1	34	Cue	Loss	True
327.882	4.05	Lose2	0.6286	0.0	No	2.619	0.001	n/a	NoResponse	-1	n/a	n/a	1	34	Fixation	Loss	True
331.927	0.16	Lose2	0.6286	0.004	No	2.619	-0.004	2.0	NoResponse	-1	0.192	331.119	1	34	Target	Loss	True
332.094	0.54	Lose2	0.6286	n/a	No	2.619	n/a	n/a	NoResponse	-1	n/a	n/a	1	34	Blank	Loss	True
332.119	0.3	Lose2	0.6286	0.004	No	2.619	-0.004	2.0	NoResponse	-1	0.192	n/a	1	34	ButtonPress	Loss	True
332.629	1.45	Lose2	0.6286	n/a	No	2.619	n/a	5.0	NoResponse	-1	0.024	331.653	1	34	Feedback	Loss	True
334.083	2.619	Lose2	0.6286	n/a	No	2.619	n/a	n/a	NoResponse	-1	0.0	n/a	1	34	ISIslide	Loss	True
336.725	0.25	Lose2	0.6111	0.0	No	2.675	0.025	n/a	NoResponse	-1	n/a	n/a	0	35	Cue	Loss	True
336.975	4.0	Lose2	0.6111	0.0	No	2.675	0.0	n/a	NoResponse	-1	n/a	n/a	0	35	Fixation	Loss	True
340.971	0.17	Lose2	0.6111	0.004	No	2.675	-0.004	2.0	NoResponse	-1	0.218	340.189	0	35	Target	Loss	True
341.155	0.53	Lose2	0.6111	n/a	No	2.675	n/a	n/a	NoResponse	-1	n/a	n/a	0	35	Blank	Loss	True
341.189	0.3	Lose2	0.6111	0.004	No	2.675	-0.004	2.0	NoResponse	-1	0.218	n/a	0	35	ButtonPress	Loss	True
341.673	1.45	Lose2	0.6111	n/a	No	2.675	n/a	5.0	NoResponse	-1	0.007	340.68	0	35	Feedback	Loss	True
343.127	2.675	Lose2	0.6111	n/a	No	2.675	n/a	n/a	NoResponse	-1	0.0	n/a	0	35	ISIslide	Loss	True
345.818	0.25	Control	0.5946	0.001	No	2.682	0.018	n/a	NoResponse	0	n/a	n/a	0	36	Cue	Neutral	True
346.069	4.0	Control	0.5946	0.0	No	2.682	0.001	2.0	NoResponse	0	3.961	349.03	0	36	Fixation	Neutral	True
350.03	0.3	Control	0.5946	0.0	No	2.682	0.001	2.0	NoResponse	0	3.961	n/a	0	36	ButtonPress	Neutral	True
350.064	0.18	Control	0.5946	0.004	No	2.682	-0.004	n/a	NoResponse	0	n/a	n/a	0	36	Target	Neutral	True
350.248	0.52	Control	0.5946	n/a	No	2.682	n/a	n/a	NoResponse	0	n/a	n/a	0	36	Blank	Neutral	True
350.767	1.45	Control	0.5946	n/a	No	2.682	n/a	5.0	NoResponse	0	0.031	349.798	0	36	Feedback	Neutral	True
352.221	2.682	Control	0.5946	n/a	No	2.682	n/a	n/a	NoResponse	0	0.0	n/a	0	36	ISIslide	Neutral	True
354.929	0.25	Win2	0.5789	0.0	No	2.871	0.029	n/a	NoResponse	0	n/a	n/a	0	37	Cue	MissedWin	True
355.18	4.0	Win2	0.5789	0.0	No	2.871	0.001	n/a	NoResponse	0	n/a	n/a	0	37	Fixation	MissedWin	True
359.175	0.19	Win2	0.5789	0.004	No	2.871	-0.004	2.0	NoResponse	0	0.21	358.385	0	37	Target	MissedWin	True
359.376	0.51	Win2	0.5789	n/a	No	2.871	n/a	n/a	NoResponse	0	n/a	n/a	0	37	Blank	MissedWin	True
359.385	0.3	Win2	0.5789	0.004	No	2.871	-0.004	2.0	NoResponse	0	0.21	n/a	0	37	ButtonPress	MissedWin	True
359.877	1.45	Win2	0.5789	n/a	No	2.871	n/a	5.0	NoResponse	0	0.043	358.92	0	37	Feedback	MissedWin	True
361.331	2.871	Win2	0.5789	n/a	No	2.871	n/a	n/a	NoResponse	0	0.0	n/a	0	37	ISIslide	MissedWin	True
364.223	0.25	Lose2	0.5640999999999999	0.0	No	2.827	0.023	n/a	NoResponse	-1	n/a	n/a	-1	38	Cue	Loss	True
364.474	3.95	Lose2	0.5640999999999999	0.0	No	2.827	0.001	n/a	NoResponse	-1	n/a	n/a	-1	38	Fixation	Loss	True
368.419	0.2	Lose2	0.5640999999999999	0.004	No	2.827	-0.004	2.0	NoResponse	-1	0.204	367.623	-1	38	Target	Loss	True
368.62	0.5	Lose2	0.5640999999999999	n/a	No	2.827	n/a	n/a	NoResponse	-1	n/a	n/a	-1	38	Blank	Loss	True
368.623	0.3	Lose2	0.5640999999999999	0.004	No	2.827	-0.004	2.0	NoResponse	-1	0.204	n/a	-1	38	ButtonPress	Loss	True
369.121	1.45	Lose2	0.5640999999999999	n/a	No	2.827	n/a	5.0	NoResponse	-1	0.019	368.14	-1	38	Feedback	Loss	True
370.576	2.827	Lose2	0.5640999999999999	n/a	No	2.827	n/a	n/a	NoResponse	-1	0.0	n/a	-1	38	ISIslide	Loss	True
373.418	0.25	Win2	0.575	0.0	Yes	2.982	0.018	n/a	GoodResponse	1	n/a	n/a	0	39	Cue	Win	True
373.668	4.1	Win2	0.575	0.0	Yes	2.982	0.0	n/a	GoodResponse	1	n/a	n/a	0	39	Fixation	Win	True
377.764	0.21	Win2	0.575	0.004	Yes	2.982	-0.004	2.0	GoodResponse	1	0.157	376.921	0	39	Target	Win	True
377.921	0.3	Win2	0.575	0.004	Yes	2.982	-0.004	2.0	GoodResponse	1	0.157	n/a	0	39	ButtonPress	Win	True
377.981	0.49	Win2	0.575	n/a	Yes	2.982	n/a	n/a	GoodResponse	1	n/a	n/a	0	39	Blank	Win	True
378.466	1.45	Win2	0.575	n/a	Yes	2.982	n/a	5.0	GoodResponse	1	0.04	377.506	0	39	Feedback	Win	True
379.92	2.982	Win2	0.575	n/a	Yes	2.982	n/a	n/a	GoodResponse	1	0.0	n/a	0	39	ISIslide	Win	True
382.929	0.25	Win2	0.5854	0.0	Yes	2.721	0.029	n/a	GoodResponse	1	n/a	n/a	1	40	Cue	Win	True
383.18	3.95	Win2	0.5854	0.0	Yes	2.721	0.001	n/a	GoodResponse	1	n/a	n/a	1	40	Fixation	Win	True
387.125	0.22	Win2	0.5854	0.004	Yes	2.721	-0.004	2.0	GoodResponse	1	0.197	386.322	1	40	Target	Win	True
387.322	0.3	Win2	0.5854	0.004	Yes	2.721	-0.004	2.0	GoodResponse	1	0.197	n/a	1	40	ButtonPress	Win	True
387.359	0.48	Win2	0.5854	n/a	Yes	2.721	n/a	n/a	GoodResponse	1	n/a	n/a	1	40	Blank	Win	True
387.827	1.45	Win2	0.5854	n/a	Yes	2.721	n/a	5.0	GoodResponse	1	0.044	386.871	1	40	Feedback	Win	True
389.282	2.721	Win2	0.5854	n/a	Yes	2.721	n/a	n/a	GoodResponse	1	0.0	n/a	1	40	ISIslide	Win	True
392.023	0.25	Win2	0.5714	0.0	No	2.777	0.023	n/a	NoResponse	0	n/a	n/a	1	41	Cue	MissedWin	True
392.274	3.9	Win2	0.5714	0.0	No	2.777	0.001	n/a	NoResponse	0	n/a	n/a	1	41	Fixation	MissedWin	True
396.169	0.23	Win2	0.5714	0.004	No	2.777	-0.004	2.0	NoResponse	0	0.234	395.403	1	41	Target	MissedWin	True
396.403	0.47	Win2	0.5714	n/a	No	2.777	n/a	n/a	NoResponse	0	n/a	n/a	1	41	Blank	MissedWin	True
396.403	0.3	Win2	0.5714	0.004	No	2.777	-0.004	2.0	NoResponse	0	0.234	n/a	1	41	ButtonPress	MissedWin	True
396.871	1.45	Win2	0.5714	n/a	No	2.777	n/a	5.0	NoResponse	0	0.024	395.895	1	41	Feedback	MissedWin	True
398.325	2.777	Win2	0.5714	n/a	No	2.777	n/a	n/a	NoResponse	0	0.0	n/a	1	41	ISIslide	MissedWin	True
401.117	0.25	Control	0.5814	0.0	Yes	2.933	0.017	n/a	GoodResponse	0	n/a	n/a	1	42	Cue	Neutral	True
401.368	3.85	Control	0.5814	0.0	Yes	2.933	0.001	n/a	GoodResponse	0	n/a	n/a	1	42	Fixation	Neutral	True
405.212	0.24	Control	0.5814	0.005	Yes	2.933	-0.005	2.0	GoodResponse	0	0.2	404.412	1	42	Target	Neutral	True
405.412	0.3	Control	0.5814	0.005	Yes	2.933	-0.005	2.0	GoodResponse	0	0.2	n/a	1	42	ButtonPress	Neutral	True
405.463	0.46	Control	0.5814	n/a	Yes	2.933	n/a	n/a	GoodResponse	0	n/a	n/a	1	42	Blank	Neutral	True
405.915	1.45	Control	0.5814	n/a	Yes	2.933	n/a	5.0	GoodResponse	0	0.007	404.922	1	42	Feedback	Neutral	True
407.369	2.933	Control	0.5814	n/a	Yes	2.933	n/a	n/a	GoodResponse	0	0.0	n/a	1	42	ISIslide	Neutral	True
410.328	0.25	Win2	0.5909	0.0	Yes	3.172	0.028	n/a	GoodResponse	1	n/a	n/a	2	43	Cue	Win	True
410.579	4.0	Win2	0.5909	0.0	Yes	3.172	0.001	n/a	GoodResponse	1	n/a	n/a	2	43	Fixation	Win	True
414.574	0.25	Win2	0.5909	0.004	Yes	3.172	-0.004	2.0	GoodResponse	1	0.189	413.763	2	43	Target	Win	True
414.763	0.3	Win2	0.5909	0.004	Yes	3.172	-0.004	2.0	GoodResponse	1	0.189	n/a	2	43	ButtonPress	Win	True
414.825	0.45	Win2	0.5909	n/a	Yes	3.172	n/a	n/a	GoodResponse	1	n/a	n/a	2	43	Blank	Win	True
415.276	1.45	Win2	0.5909	n/a	Yes	3.172	n/a	5.0	GoodResponse	1	0.01	414.286	2	43	Feedback	Win	True
416.73	3.172	Win2	0.5909	n/a	Yes	3.172	n/a	n/a	GoodResponse	1	0.0	n/a	2	43	ISIslide	Win	True
419.923	0.25	Win2	0.6	0.0	Yes	2.977	0.023	n/a	GoodResponse	1	n/a	n/a	3	44	Cue	Win	True
420.174	4.0	Win2	0.6	0.0	Yes	2.977	0.001	n/a	GoodResponse	1	n/a	n/a	3	44	Fixation	Win	True
424.169	0.26	Win2	0.6	0.004	Yes	2.977	-0.004	2.0	GoodResponse	1	0.214	423.383	3	44	Target	Win	True
424.383	0.3	Win2	0.6	0.004	Yes	2.977	-0.004	2.0	GoodResponse	1	0.214	n/a	3	44	ButtonPress	Win	True
424.437	0.44	Win2	0.6	n/a	Yes	2.977	n/a	n/a	GoodResponse	1	n/a	n/a	3	44	Blank	Win	True
424.871	1.45	Win2	0.6	n/a	Yes	2.977	n/a	5.0	GoodResponse	1	0.024	423.895	3	44	Feedback	Win	True
426.326	2.977	Win2	0.6	n/a	Yes	2.977	n/a	n/a	GoodResponse	1	0.0	n/a	3	44	ISIslide	Win	True
429.318	0.25	Control	0.6087	0.0	Yes	2.882	0.018	n/a	GoodResponse	0	n/a	n/a	3	45	Cue	Neutral	True
429.569	4.1	Control	0.6087	0.0	Yes	2.882	0.001	n/a	GoodResponse	0	n/a	n/a	3	45	Fixation	Neutral	True
433.664	0.27	Control	0.6087	0.004	Yes	2.882	-0.004	2.0	GoodResponse	0	0.191	432.855	3	45	Target	Neutral	True
433.855	0.3	Control	0.6087	0.004	Yes	2.882	-0.004	2.0	GoodResponse	0	0.191	n/a	3	45	ButtonPress	Neutral	True
433.948	0.43	Control	0.6087	n/a	Yes	2.882	n/a	n/a	GoodResponse	0	n/a	n/a	3	45	Blank	Neutral	True
434.366	1.45	Control	0.6087	n/a	Yes	2.882	n/a	5.0	GoodResponse	0	0.041	433.407	3	45	Feedback	Neutral	True
435.821	2.882	Control	0.6087	n/a	Yes	2.882	n/a	n/a	GoodResponse	0	0.0	n/a	3	45	ISIslide	Neutral	True
438.729	0.25	Lose2	0.617	0.0	Yes	3.371	0.029	n/a	GoodResponse	0	n/a	n/a	3	46	Cue	AvoidedLoss	True
438.98	4.0	Lose2	0.617	0.0	Yes	3.371	0.001	n/a	GoodResponse	0	n/a	n/a	3	46	Fixation	AvoidedLoss	True
442.975	0.28	Lose2	0.617	0.004	Yes	3.371	-0.004	2.0	GoodResponse	0	0.205	442.18	3	46	Target	AvoidedLoss	True
443.18	0.3	Lose2	0.617	0.004	Yes	3.371	-0.004	2.0	GoodResponse	0	0.205	n/a	3	46	ButtonPress	AvoidedLoss	True
443.259	0.42	Lose2	0.617	n/a	Yes	3.371	n/a	n/a	GoodResponse	0	n/a	n/a	3	46	Blank	AvoidedLoss	True
443.677	1.45	Lose2	0.617	n/a	Yes	3.371	n/a	5.0	GoodResponse	0	0.047	442.724	3	46	Feedback	AvoidedLoss	True
445.132	3.371	Lose2	0.617	n/a	Yes	3.371	n/a	n/a	GoodResponse	0	0.0	n/a	3	46	ISIslide	AvoidedLoss	True
448.525	0.25	Lose2	0.625	0.0	Yes	2.675	0.025	n/a	GoodResponse	0	n/a	n/a	3	47	Cue	AvoidedLoss	True
448.776	4.0	Lose2	0.625	0.0	Yes	2.675	0.001	n/a	GoodResponse	0	n/a	n/a	3	47	Fixation	AvoidedLoss	True
452.771	0.29	Lose2	0.625	0.004	Yes	2.675	-0.004	2.0	GoodResponse	0	0.197	451.968	3	47	Target	AvoidedLoss	True
452.968	0.3	Lose2	0.625	0.004	Yes	2.675	-0.004	2.0	GoodResponse	0	0.197	n/a	3	47	ButtonPress	AvoidedLoss	True
453.072	0.41	Lose2	0.625	n/a	Yes	2.675	n/a	n/a	GoodResponse	0	n/a	n/a	3	47	Blank	AvoidedLoss	True
453.473	1.45	Lose2	0.625	n/a	Yes	2.675	n/a	5.0	GoodResponse	0	0.008	452.481	3	47	Feedback	AvoidedLoss	True
454.928	2.675	Lose2	0.625	n/a	Yes	2.675	n/a	n/a	GoodResponse	0	0.0	n/a	3	47	ISIslide	AvoidedLoss	True
457.619	0.25	Lose2	0.6327	0.0	Yes	3.031	0.019	n/a	GoodResponse	0	n/a	n/a	3	48	Cue	AvoidedLoss	True
457.87	3.95	Lose2	0.6327	0.0	Yes	3.031	0.001	n/a	GoodResponse	0	n/a	n/a	3	48	Fixation	AvoidedLoss	True
461.815	0.3	Lose2	0.6327	0.004	Yes	3.031	-0.004	2.0	GoodResponse	0	0.269	461.084	3	48	Target	AvoidedLoss	True
462.084	0.3	Lose2	0.6327	0.004	Yes	3.031	-0.004	2.0	GoodResponse	0	0.269	n/a	3	48	ButtonPress	AvoidedLoss	True
462.116	0.4	Lose2	0.6327	n/a	Yes	3.031	n/a	n/a	GoodResponse	0	n/a	n/a	3	48	Blank	AvoidedLoss	True
462.517	1.45	Lose2	0.6327	n/a	Yes	3.031	n/a	5.0	GoodResponse	0	0.036	461.553	3	48	Feedback	AvoidedLoss	True
463.971	3.031	Lose2	0.6327	n/a	Yes	3.031	n/a	n/a	GoodResponse	0	0.0	n/a	3	48	ISIslide	AvoidedLoss	True
467.03	0.25	Control	0.64	0.001	Yes	2.87	0.03	n/a	GoodResponse	0	n/a	n/a	3	49	Cue	Neutral	True
467.281	4.0	Control	0.64	0.0	Yes	2.87	0.001	n/a	GoodResponse	0	n/a	n/a	3	49	Fixation	Neutral	True
471.276	0.31	Control	0.64	0.004	Yes	2.87	-0.004	2.0	GoodResponse	0	0.206	470.482	3	49	Target	Neutral	True
471.482	0.3	Control	0.64	0.004	Yes	2.87	-0.004	2.0	GoodResponse	0	0.206	n/a	3	49	ButtonPress	Neutral	True
471.594	0.39	Control	0.64	n/a	Yes	2.87	n/a	n/a	GoodResponse	0	n/a	n/a	3	49	Blank	Neutral	True
471.979	1.45	Control	0.64	n/a	Yes	2.87	n/a	5.0	GoodResponse	0	0.037	471.016	3	49	Feedback	Neutral	True
473.433	2.87	Control	0.64	n/a	Yes	2.87	n/a	n/a	GoodResponse	0	0.0	n/a	3	49	ISIslide	Neutral	True
476.325	0.25	Control	0.6470999999999999	0.0	Yes	2.775	0.025	n/a	GoodResponse	0	n/a	n/a	3	50	Cue	Neutral	True
476.576	4.0	Control	0.6470999999999999	0.0	Yes	2.775	0.001	n/a	GoodResponse	0	n/a	n/a	3	50	Fixation	Neutral	True
480.571	0.32	Control	0.6470999999999999	0.004	Yes	2.775	-0.004	2.0	GoodResponse	0	0.173	479.744	3	50	Target	Neutral	True
480.744	0.3	Control	0.6470999999999999	0.004	Yes	2.775	-0.004	2.0	GoodResponse	0	0.173	n/a	3	50	ButtonPress	Neutral	True
480.905	0.38	Control	0.6470999999999999	n/a	Yes	2.775	n/a	n/a	GoodResponse	0	n/a	n/a	3	50	Blank	Neutral	True
481.273	1.45	Control	0.6470999999999999	n/a	Yes	2.775	n/a	5.0	GoodResponse	0	0.012	480.285	3	50	Feedback	Neutral	True
482.727	2.775	Control	0.6470999999999999	n/a	Yes	2.775	n/a	n/a	GoodResponse	0	0.0	n/a	3	50	ISIslide	Neutral	True
485.519	0.25	Control	0.6537999999999999	0.0	Yes	2.731	0.019	n/a	GoodResponse	0	n/a	n/a	3	51	Cue	Neutral	True
485.77	3.95	Control	0.6537999999999999	0.0	Yes	2.731	0.001	n/a	GoodResponse	0	n/a	n/a	3	51	Fixation	Neutral	True
489.715	0.33	Control	0.6537999999999999	0.004	Yes	2.731	-0.004	2.0	GoodResponse	0	0.238	488.953	3	51	Target	Neutral	True
489.953	0.3	Control	0.6537999999999999	0.004	Yes	2.731	-0.004	2.0	GoodResponse	0	0.238	n/a	3	51	ButtonPress	Neutral	True
490.049	0.37	Control	0.6537999999999999	n/a	Yes	2.731	n/a	n/a	GoodResponse	0	n/a	n/a	3	51	Blank	Neutral	True
490.417	1.45	Control	0.6537999999999999	n/a	Yes	2.731	n/a	5.0	GoodResponse	0	0.039	489.456	3	51	Feedback	Neutral	True
491.871	2.731	Control	0.6537999999999999	n/a	Yes	2.731	n/a	n/a	GoodResponse	0	0.0	n/a	3	51	ISIslide	Neutral	True
494.63	0.25	Control	0.6604000000000001	0.0	Yes	2.62	0.03	n/a	GoodResponse	0	n/a	n/a	3	52	Cue	Neutral	False
494.88	4.05	Control	0.6604000000000001	0.0	Yes	2.62	0.0	2.0	GoodResponse	0	3.841	497.721	3	52	Fixation	Neutral	False
498.721	0.3	Control	0.6604000000000001	0.0	Yes	2.62	0.0	2.0	GoodResponse	0	3.841	n/a	3	52	ButtonPress	Neutral	False
498.926	0.34	Control	0.6604000000000001	0.004	Yes	2.62	-0.004	2.0	GoodResponse	0	0.133	498.059	3	52	Target	Neutral	False
499.059	0.3	Control	0.6604000000000001	0.004	Yes	2.62	-0.004	2.0	GoodResponse	0	0.133	n/a	3	52	ButtonPress	Neutral	False
499.277	0.36	Control	0.6604000000000001	n/a	Yes	2.62	n/a	n/a	GoodResponse	0	n/a	n/a	3	52	Blank	Neutral	False
499.628	1.45	Control	0.6604000000000001	n/a	Yes	2.62	n/a	5.0	GoodResponse	0	0.046	498.674	3	52	Feedback	Neutral	False
501.082	2.62	Control	0.6604000000000001	n/a	Yes	2.62	n/a	n/a	GoodResponse	0	0.0	n/a	3	52	ISIslide	Neutral	False
503.723	0.25	Win2	0.6667000000000001	0.0	Yes	2.927	0.023	n/a	GoodResponse	1	n/a	n/a	4	53	Cue	Win	True
503.974	4.05	Win2	0.6667000000000001	0.0	Yes	2.927	0.001	n/a	GoodResponse	1	n/a	n/a	4	53	Fixation	Win	True
508.02	0.34	Win2	0.6667000000000001	0.003	Yes	2.927	-0.003	2.0	GoodResponse	1	0.217	507.237	4	53	Target	Win	True
508.237	0.3	Win2	0.6667000000000001	0.003	Yes	2.927	-0.003	2.0	GoodResponse	1	0.217	n/a	4	53	ButtonPress	Win	True
508.371	0.36	Win2	0.6667000000000001	n/a	Yes	2.927	n/a	n/a	GoodResponse	1	n/a	n/a	4	53	Blank	Win	True
508.722	1.45	Win2	0.6667000000000001	n/a	Yes	2.927	n/a	5.0	GoodResponse	1	0.025	507.747	4	53	Feedback	Win	True
510.176	2.927	Win2	0.6667000000000001	n/a	Yes	2.927	n/a	n/a	GoodResponse	1	0.0	n/a	4	53	ISIslide	Win	True
513.118	0.25	Win2	0.6727	0.0	Yes	2.732	0.018	n/a	GoodResponse	1	n/a	n/a	5	54	Cue	Win	True
513.369	3.95	Win2	0.6727	0.0	Yes	2.732	0.001	n/a	GoodResponse	1	n/a	n/a	5	54	Fixation	Win	True
517.314	0.33	Win2	0.6727	0.004	Yes	2.732	-0.004	2.0	GoodResponse	1	0.215	516.529	5	54	Target	Win	True
517.529	0.3	Win2	0.6727	0.004	Yes	2.732	-0.004	2.0	GoodResponse	1	0.215	n/a	5	54	ButtonPress	Win	True
517.648	0.37	Win2	0.6727	n/a	Yes	2.732	n/a	n/a	GoodResponse	1	n/a	n/a	5	54	Blank	Win	True
518.016	1.45	Win2	0.6727	n/a	Yes	2.732	n/a	5.0	GoodResponse	1	0.049	517.065	5	54	Feedback	Win	True
519.47	2.732	Win2	0.6727	n/a	Yes	2.732	n/a	n/a	GoodResponse	1	0.0	n/a	5	54	ISIslide	Win	True
522.229	0.25	Control	0.6786	0.0	Yes	3.021	0.029	n/a	GoodResponse	0	n/a	n/a	5	55	Cue	Neutral	True
522.479	3.95	Control	0.6786	0.0	Yes	3.021	0.0	n/a	GoodResponse	0	n/a	n/a	5	55	Fixation	Neutral	True
526.424	0.32	Control	0.6786	0.005	Yes	3.021	-0.005	2.0	GoodResponse	0	0.223	525.647	5	55	Target	Neutral	True
526.647	0.3	Control	0.6786	0.005	Yes	3.021	-0.005	2.0	GoodResponse	0	0.223	n/a	5	55	ButtonPress	Neutral	True
526.759	0.38	Control	0.6786	n/a	Yes	3.021	n/a	n/a	GoodResponse	0	n/a	n/a	5	55	Blank	Neutral	True
527.127	1.45	Control	0.6786	n/a	Yes	3.021	n/a	5.0	GoodResponse	0	0.011	526.138	5	55	Feedback	Neutral	True
528.581	3.021	Control	0.6786	n/a	Yes	3.021	n/a	n/a	GoodResponse	0	0.0	n/a	5	55	ISIslide	Neutral	True
531.623	0.25	Control	0.6842	0.0	Yes	2.827	0.023	n/a	GoodResponse	0	n/a	n/a	5	56	Cue	Neutral	True
531.874	3.95	Control	0.6842	0.0	Yes	2.827	0.001	n/a	GoodResponse	0	n/a	n/a	5	56	Fixation	Neutral	True
535.819	0.31	Control	0.6842	0.004	Yes	2.827	-0.004	2.0	GoodResponse	0	0.19	535.009	5	56	Target	Neutral	True
536.009	0.3	Control	0.6842	0.004	Yes	2.827	-0.004	2.0	GoodResponse	0	0.19	n/a	5	56	ButtonPress	Neutral	True
536.137	0.39	Control	0.6842	n/a	Yes	2.827	n/a	n/a	GoodResponse	0	n/a	n/a	5	56	Blank	Neutral	True
536.521	1.45	Control	0.6842	n/a	Yes	2.827	n/a	5.0	GoodResponse	0	0.032	535.553	5	56	Feedback	Neutral	True
537.976	2.827	Control	0.6842	n/a	Yes	2.827	n/a	n/a	GoodResponse	0	0.0	n/a	5	56	ISIslide	Neutral	True
540.817	0.25	Control	0.6897	0.001	Yes	3.483	0.017	n/a	GoodResponse	0	n/a	n/a	5	57	Cue	Neutral	True
541.068	4.0	Control	0.6897	0.0	Yes	3.483	0.001	n/a	GoodResponse	0	n/a	n/a	5	57	Fixation	Neutral	True
545.063	0.3	Control	0.6897	0.004	Yes	3.483	-0.004	2.0	GoodResponse	0	0.217	544.28	5	57	Target	Neutral	True
545.28	0.3	Control	0.6897	0.004	Yes	3.483	-0.004	2.0	GoodResponse	0	0.217	n/a	5	57	ButtonPress	Neutral	True
545.364	0.4	Control	0.6897	n/a	Yes	3.483	n/a	n/a	GoodResponse	0	n/a	n/a	5	57	Blank	Neutral	True
545.766	1.45	Control	0.6897	n/a	Yes	3.483	n/a	5.0	GoodResponse	0	0.006	544.772	5	57	Feedback	Neutral	True
547.22	3.483	Control	0.6897	n/a	Yes	3.483	n/a	n/a	GoodResponse	0	0.0	n/a	5	57	ISIslide	Neutral	True
550.73	0.25	Win2	0.6949	0.0	Yes	2.72	0.03	n/a	GoodResponse	1	n/a	n/a	6	58	Cue	Win	True
550.981	4.05	Win2	0.6949	0.0	Yes	2.72	0.001	n/a	GoodResponse	1	n/a	n/a	6	58	Fixation	Win	True
555.027	0.29	Win2	0.6949	0.003	Yes	2.72	-0.003	2.0	GoodResponse	1	0.184	554.211	6	58	Target	Win	True
555.211	0.3	Win2	0.6949	0.003	Yes	2.72	-0.003	2.0	GoodResponse	1	0.184	n/a	6	58	ButtonPress	Win	True
555.327	0.41	Win2	0.6949	n/a	Yes	2.72	n/a	n/a	GoodResponse	1	n/a	n/a	6	58	Blank	Win	True
555.729	1.45	Win2	0.6949	n/a	Yes	2.72	n/a	5.0	GoodResponse	1	0.042	554.771	6	58	Feedback	Win	True
557.183	2.72	Win2	0.6949	n/a	Yes	2.72	n/a	n/a	GoodResponse	1	0.0	n/a	6	58	ISIslide	Win	True
559.925	0.25	Lose2	0.7	0.0	Yes	2.675	0.025	n/a	GoodResponse	0	n/a	n/a	6	59	Cue	AvoidedLoss	True
560.175	4.0	Lose2	0.7	0.0	Yes	2.675	0.0	n/a	GoodResponse	0	n/a	n/a	6	59	Fixation	AvoidedLoss	True
564.171	0.28	Lose2	0.7	0.004	Yes	2.675	-0.004	2.0	GoodResponse	0	0.217	563.388	6	59	Target	AvoidedLoss	True
564.388	0.3	Lose2	0.7	0.004	Yes	2.675	-0.004	2.0	GoodResponse	0	0.217	n/a	6	59	ButtonPress	AvoidedLoss	True
564.455	0.42	Lose2	0.7	n/a	Yes	2.675	n/a	n/a	GoodResponse	0	n/a	n/a	6	59	Blank	AvoidedLoss	True
564.873	1.45	Lose2	0.7	n/a	Yes	2.675	n/a	5.0	GoodResponse	0	0.02	563.893	6	59	Feedback	AvoidedLoss	True
566.327	2.675	Lose2	0.7	n/a	Yes	2.675	n/a	n/a	GoodResponse	0	0.0	n/a	6	59	ISIslide	AvoidedLoss	True
569.018	0.25	Control	0.7049	0.0	Yes	2.682	0.018	n/a	GoodResponse	0	n/a	n/a	6	60	Cue	Neutral	True
569.269	4.0	Control	0.7049	0.0	Yes	2.682	0.001	n/a	GoodResponse	0	n/a	n/a	6	60	Fixation	Neutral	True
573.264	0.27	Control	0.7049	0.004	Yes	2.682	-0.004	2.0	GoodResponse	0	0.195	572.459	6	60	Target	Neutral	True
573.459	0.3	Control	0.7049	0.004	Yes	2.682	-0.004	2.0	GoodResponse	0	0.195	n/a	6	60	ButtonPress	Neutral	True
573.549	0.43	Control	0.7049	n/a	Yes	2.682	n/a	n/a	GoodResponse	0	n/a	n/a	6	60	Blank	Neutral	True
573.966	1.45	Control	0.7049	n/a	Yes	2.682	n/a	5.0	GoodResponse	0	0.048	573.014	6	60	Feedback	Neutral	True
575.421	2.682	Control	0.7049	n/a	Yes	2.682	n/a	n/a	GoodResponse	0	0.0	n/a	6	60	ISIslide	Neutral	True
578.129	0.25	Lose2	0.7097	0.0	Yes	2.971	0.029	n/a	GoodResponse	0	n/a	n/a	6	61	Cue	AvoidedLoss	True
578.38	4.0	Lose2	0.7097	0.0	Yes	2.971	0.001	n/a	GoodResponse	0	n/a	n/a	6	61	Fixation	AvoidedLoss	True
582.375	0.26	Lose2	0.7097	0.004	Yes	2.971	-0.004	2.0	GoodResponse	0	0.222	581.597	6	61	Target	AvoidedLoss	True
582.597	0.3	Lose2	0.7097	0.004	Yes	2.971	-0.004	2.0	GoodResponse	0	0.222	n/a	6	61	ButtonPress	AvoidedLoss	True
582.642	0.44	Lose2	0.7097	n/a	Yes	2.971	n/a	n/a	GoodResponse	0	n/a	n/a	6	61	Blank	AvoidedLoss	True
583.077	1.45	Lose2	0.7097	n/a	Yes	2.971	n/a	5.0	GoodResponse	0	0.011	582.088	6	61	Feedback	AvoidedLoss	True
584.531	2.971	Lose2	0.7097	n/a	Yes	2.971	n/a	n/a	GoodResponse	0	0.0	n/a	6	61	ISIslide	AvoidedLoss	True
587.524	0.25	Lose2	0.7143	0.0	Yes	2.876	0.024	n/a	GoodResponse	0	n/a	n/a	6	62	Cue	AvoidedLoss	True
587.774	3.9	Lose2	0.7143	0.0	Yes	2.876	0.0	n/a	GoodResponse	0	n/a	n/a	6	62	Fixation	AvoidedLoss	True
591.686	0.25	Lose2	0.7143	0.0	Yes	2.876	0.012	2.0	GoodResponse	0	0.206	590.892	6	62	Target	AvoidedLoss	True
591.892	0.3	Lose2	0.7143	0.0	Yes	2.876	0.012	2.0	GoodResponse	0	0.206	n/a	6	62	ButtonPress	AvoidedLoss	True
591.92	0.45	Lose2	0.7143	n/a	Yes	2.876	n/a	n/a	GoodResponse	0	n/a	n/a	6	62	Blank	AvoidedLoss	True
592.371	1.45	Lose2	0.7143	n/a	Yes	2.876	n/a	5.0	GoodResponse	0	0.034	591.405	6	62	Feedback	AvoidedLoss	True
593.826	2.876	Lose2	0.7143	n/a	Yes	2.876	n/a	n/a	GoodResponse	0	0.0	n/a	6	62	ISIslide	AvoidedLoss	True
596.718	0.25	Lose2	0.7188	0.0	Yes	2.632	0.018	n/a	GoodResponse	0	n/a	n/a	6	63	Cue	AvoidedLoss	True
596.968	4.05	Lose2	0.7188	0.001	Yes	2.632	0.0	n/a	GoodResponse	0	n/a	n/a	6	63	Fixation	AvoidedLoss	True
601.014	0.24	Lose2	0.7188	0.004	Yes	2.632	-0.004	2.0	GoodResponse	0	0.21	600.224	6	63	Target	AvoidedLoss	True
601.224	0.3	Lose2	0.7188	0.004	Yes	2.632	-0.004	2.0	GoodResponse	0	0.21	n/a	6	63	ButtonPress	AvoidedLoss	True
601.265	0.46	Lose2	0.7188	n/a	Yes	2.632	n/a	n/a	GoodResponse	0	n/a	n/a	6	63	Blank	AvoidedLoss	True
601.716	1.45	Lose2	0.7188	n/a	Yes	2.632	n/a	5.0	GoodResponse	0	0.008	600.724	6	63	Feedback	AvoidedLoss	True
603.17	2.632	Lose2	0.7188	n/a	Yes	2.632	n/a	n/a	GoodResponse	0	0.0	n/a	6	63	ISIslide	AvoidedLoss	True
605.828	0.25	Win2	0.7231000000000001	0.0	Yes	3.122	0.028	n/a	GoodResponse	1	n/a	n/a	7	64	Cue	Win	True
606.079	4.15	Win2	0.7231000000000001	0.0	Yes	3.122	0.001	n/a	GoodResponse	1	n/a	n/a	7	64	Fixation	Win	True
610.225	0.23	Win2	0.7231000000000001	0.003	Yes	3.122	-0.003	2.0	GoodResponse	1	0.196	609.421	7	64	Target	Win	True
610.421	0.3	Win2	0.7231000000000001	0.003	Yes	3.122	-0.003	2.0	GoodResponse	1	0.196	n/a	7	64	ButtonPress	Win	True
610.459	0.47	Win2	0.7231000000000001	n/a	Yes	3.122	n/a	n/a	GoodResponse	1	n/a	n/a	7	64	Blank	Win	True
610.927	1.45	Win2	0.7231000000000001	n/a	Yes	3.122	n/a	5.0	GoodResponse	1	0.014	609.941	7	64	Feedback	Win	True
612.381	3.122	Win2	0.7231000000000001	n/a	Yes	3.122	n/a	n/a	GoodResponse	1	0.0	n/a	7	64	ISIslide	Win	True
615.524	0.25	Control	0.7273000000000001	0.0	Yes	2.776	0.024	n/a	GoodResponse	0	n/a	n/a	7	65	Cue	Neutral	True
615.775	4.0	Control	0.7273000000000001	0.0	Yes	2.776	0.001	n/a	GoodResponse	0	n/a	n/a	7	65	Fixation	Neutral	True
619.77	0.22	Control	0.7273000000000001	0.004	Yes	2.776	-0.004	2.0	GoodResponse	0	0.213	618.983	7	65	Target	Neutral	True
619.983	0.3	Control	0.7273000000000001	0.004	Yes	2.776	-0.004	2.0	GoodResponse	0	0.213	n/a	7	65	ButtonPress	Neutral	True
620.004	0.48	Control	0.7273000000000001	n/a	Yes	2.776	n/a	n/a	GoodResponse	0	n/a	n/a	7	65	Blank	Neutral	True
620.472	1.45	Control	0.7273000000000001	n/a	Yes	2.776	n/a	5.0	GoodResponse	0	0.03	619.502	7	65	Feedback	Neutral	True
621.926	2.776	Control	0.7273000000000001	n/a	Yes	2.776	n/a	n/a	GoodResponse	0	0.0	n/a	7	65	ISIslide	Neutral	True
624.718	0.25	Win2	0.7313	0.0	Yes	2.782	0.018	n/a	GoodResponse	1	n/a	n/a	8	66	Cue	Win	True
624.969	3.9	Win2	0.7313	0.0	Yes	2.782	0.001	n/a	GoodResponse	1	n/a	n/a	8	66	Fixation	Win	True
628.864	0.21	Win2	0.7313	0.004	Yes	2.782	-0.004	2.0	GoodResponse	1	0.204	628.068	8	66	Target	Win	True
629.068	0.3	Win2	0.7313	0.004	Yes	2.782	-0.004	2.0	GoodResponse	1	0.204	n/a	8	66	ButtonPress	Win	True
629.081	0.49	Win2	0.7313	n/a	Yes	2.782	n/a	n/a	GoodResponse	1	n/a	n/a	8	66	Blank	Win	True
629.566	1.45	Win2	0.7313	n/a	Yes	2.782	n/a	5.0	GoodResponse	1	0.009	628.575	8	66	Feedback	Win	True
631.02	2.782	Win2	0.7313	n/a	Yes	2.782	n/a	n/a	GoodResponse	1	0.0	n/a	8	66	ISIslide	Win	True
633.829	0.25	Control	0.7206	0.0	No	2.721	0.029	n/a	NoResponse	0	n/a	n/a	8	67	Cue	Neutral	True
634.079	3.95	Control	0.7206	0.0	No	2.721	0.0	n/a	NoResponse	0	n/a	n/a	8	67	Fixation	Neutral	True
638.041	0.2	Control	0.7206	0.0	No	2.721	0.012	2.0	NoResponse	0	0.253	637.294	8	67	Target	Neutral	True
638.225	0.5	Control	0.7206	n/a	No	2.721	n/a	n/a	NoResponse	0	n/a	n/a	8	67	Blank	Neutral	True
638.294	0.3	Control	0.7206	0.0	No	2.721	0.012	2.0	NoResponse	0	0.253	n/a	8	67	ButtonPress	Neutral	True
638.727	1.45	Control	0.7206	n/a	No	2.721	n/a	5.0	NoResponse	0	0.019	637.746	8	67	Feedback	Neutral	True
640.181	2.721	Control	0.7206	n/a	No	2.721	n/a	n/a	NoResponse	0	0.0	n/a	8	67	ISIslide	Neutral	True
642.922	0.25	Win2	0.7101000000000001	0.0	No	3.078	0.022	n/a	NoResponse	0	n/a	n/a	8	68	Cue	MissedWin	True
643.173	4.0	Win2	0.7101000000000001	0.0	No	3.078	0.001	2.0	NoResponse	0	3.756	645.929	8	68	Fixation	MissedWin	True
646.929	0.3	Win2	0.7101000000000001	0.0	No	3.078	0.001	2.0	NoResponse	0	3.756	n/a	8	68	ButtonPress	MissedWin	True
647.168	0.19	Win2	0.7101000000000001	0.004	No	3.078	-0.004	n/a	NoResponse	0	n/a	n/a	8	68	Target	MissedWin	True
647.369	0.51	Win2	0.7101000000000001	n/a	No	3.078	n/a	n/a	NoResponse	0	n/a	n/a	8	68	Blank	MissedWin	True
647.871	1.45	Win2	0.7101000000000001	n/a	No	3.078	n/a	5.0	NoResponse	0	0.045	646.916	8	68	Feedback	MissedWin	True
649.325	3.078	Win2	0.7101000000000001	n/a	No	3.078	n/a	n/a	NoResponse	0	0.0	n/a	8	68	ISIslide	MissedWin	True
652.417	0.25	Win2	0.7	0.001	No	3.233	0.017	n/a	NoResponse	0	n/a	n/a	8	69	Cue	MissedWin	True
652.668	3.95	Win2	0.7	0.0	No	3.233	0.001	n/a	NoResponse	0	n/a	n/a	8	69	Fixation	MissedWin	True
656.613	0.18	Win2	0.7	0.004	No	3.233	-0.004	2.0	NoResponse	0	0.211	655.824	8	69	Target	MissedWin	True
656.797	0.52	Win2	0.7	n/a	No	3.233	n/a	n/a	NoResponse	0	n/a	n/a	8	69	Blank	MissedWin	True
656.824	0.3	Win2	0.7	0.004	No	3.233	-0.004	2.0	NoResponse	0	0.211	n/a	8	69	ButtonPress	MissedWin	True
657.315	1.45	Win2	0.7	n/a	No	3.233	n/a	5.0	NoResponse	0	0.015	656.33	8	69	Feedback	MissedWin	True
658.77	3.233	Win2	0.7	n/a	No	3.233	n/a	n/a	NoResponse	0	0.0	n/a	8	69	ISIslide	MissedWin	True
662.029	0.25	Lose2	0.6901	0.001	No	3.021	0.029	n/a	NoResponse	-1	n/a	n/a	7	70	Cue	Loss	True
662.28	4.05	Lose2	0.6901	0.0	No	3.021	0.001	n/a	NoResponse	-1	n/a	n/a	7	70	Fixation	Loss	True
666.326	0.17	Lose2	0.6901	0.003	No	3.021	-0.003	2.0	NoResponse	-1	0.221	665.547	7	70	Target	Loss	True
666.51	0.53	Lose2	0.6901	n/a	No	3.021	n/a	n/a	NoResponse	-1	n/a	n/a	7	70	Blank	Loss	True
666.547	0.3	Lose2	0.6901	0.003	No	3.021	-0.003	2.0	NoResponse	-1	0.221	n/a	7	70	ButtonPress	Loss	True
667.028	1.45	Lose2	0.6901	n/a	No	3.021	n/a	5.0	NoResponse	-1	0.01	666.038	7	70	Feedback	Loss	True
668.482	3.021	Lose2	0.6901	n/a	No	3.021	n/a	n/a	NoResponse	-1	0.0	n/a	7	70	ISIslide	Loss	True
671.524	0.25	Win2	0.6806	0.001	No	2.726	0.024	n/a	NoResponse	0	n/a	n/a	7	71	Cue	MissedWin	True
671.775	4.05	Win2	0.6806	0.0	No	2.726	0.001	n/a	NoResponse	0	n/a	n/a	7	71	Fixation	MissedWin	True
675.821	0.16	Win2	0.6806	0.003	No	2.726	-0.003	2.0	NoResponse	0	0.221	675.042	7	71	Target	MissedWin	True
675.988	0.54	Win2	0.6806	n/a	No	2.726	n/a	n/a	NoResponse	0	n/a	n/a	7	71	Blank	MissedWin	True
676.042	0.3	Win2	0.6806	0.003	No	2.726	-0.003	2.0	NoResponse	0	0.221	n/a	7	71	ButtonPress	MissedWin	True
676.523	1.45	Win2	0.6806	n/a	No	2.726	n/a	5.0	NoResponse	0	0.027	675.55	7	71	Feedback	MissedWin	True
677.977	2.726	Win2	0.6806	n/a	No	2.726	n/a	n/a	NoResponse	0	0.0	n/a	7	71	ISIslide	MissedWin	True
680.719	0.25	Win2	0.6712	0.0	No	2.781	0.019	n/a	NoResponse	0	n/a	n/a	7	72	Cue	MissedWin	True
680.969	4.1	Win2	0.6712	0.0	No	2.781	0.0	n/a	NoResponse	0	n/a	n/a	7	72	Fixation	MissedWin	True
685.065	0.15	Win2	0.6712	0.004	No	2.781	-0.004	2.0	NoResponse	0	0.191	684.256	7	72	Target	MissedWin	True
685.215	0.55	Win2	0.6712	n/a	No	2.781	n/a	n/a	NoResponse	0	n/a	n/a	7	72	Blank	MissedWin	True
685.256	0.3	Win2	0.6712	0.004	No	2.781	-0.004	2.0	NoResponse	0	0.191	n/a	7	72	ButtonPress	MissedWin	True
685.767	1.45	Win2	0.6712	n/a	No	2.781	n/a	5.0	NoResponse	0	0.008	684.775	7	72	Feedback	MissedWin	True
687.221	2.781	Win2	0.6712	n/a	No	2.781	n/a	n/a	NoResponse	0	0.0	n/a	7	72	ISIslide	MissedWin	True
690.03	0.25	Win2	0.6757	0.0	Yes	2.67	0.03	n/a	GoodResponse	1	n/a	n/a	8	73	Cue	Win	True
690.281	4.0	Win2	0.6757	0.0	Yes	2.67	0.001	n/a	GoodResponse	1	n/a	n/a	8	73	Fixation	Win	True
694.276	0.15	Win2	0.6757	0.004	Yes	2.67	-0.004	2.0	GoodResponse	1	0.145	693.421	8	73	Target	Win	True
694.421	0.3	Win2	0.6757	0.004	Yes	2.67	-0.004	2.0	GoodResponse	1	0.145	n/a	8	73	ButtonPress	Win	True
694.426	0.55	Win2	0.6757	n/a	Yes	2.67	n/a	n/a	GoodResponse	1	n/a	n/a	8	73	Blank	Win	True
694.978	1.45	Win2	0.6757	n/a	Yes	2.67	n/a	5.0	GoodResponse	1	0.01	693.988	8	73	Feedback	Win	True
696.432	2.67	Win2	0.6757	n/a	Yes	2.67	n/a	n/a	GoodResponse	1	0.0	n/a	8	73	ISIslide	Win	True
699.124	0.25	Lose2	0.6667000000000001	0.0	No	2.626	0.024	n/a	NoResponse	-1	n/a	n/a	7	74	Cue	Loss	True
699.374	4.05	Lose2	0.6667000000000001	0.0	No	2.626	0.0	n/a	NoResponse	-1	n/a	n/a	7	74	Fixation	Loss	True
703.42	0.15	Lose2	0.6667000000000001	0.004	No	2.626	-0.004	2.0	NoResponse	-1	0.163	702.583	7	74	Target	Loss	True
703.57	0.55	Lose2	0.6667000000000001	n/a	No	2.626	n/a	n/a	NoResponse	-1	n/a	n/a	7	74	Blank	Loss	True
703.583	0.3	Lose2	0.6667000000000001	0.004	No	2.626	-0.004	2.0	NoResponse	-1	0.163	n/a	7	74	ButtonPress	Loss	True
704.122	1.45	Lose2	0.6667000000000001	n/a	No	2.626	n/a	5.0	NoResponse	-1	0.037	703.159	7	74	Feedback	Loss	True
705.576	2.626	Lose2	0.6667000000000001	n/a	No	2.626	n/a	n/a	NoResponse	-1	0.0	n/a	7	74	ISIslide	Loss	True
708.217	0.25	Lose2	0.6579	0.001	No	2.933	0.017	n/a	PrematurePress	-1	n/a	n/a	6	75	Cue	Loss	False
708.468	3.95	Lose2	0.6579	0.0	No	2.933	0.001	2.0	PrematurePress	-1	3.757	711.225	6	75	Fixation	Loss	False
712.225	0.3	Lose2	0.6579	0.0	No	2.933	0.001	2.0	PrematurePress	-1	3.757	n/a	6	75	ButtonPress	Loss	False
712.413	0.15	Lose2	0.6579	0.004	No	2.933	-0.004	2.0	PrematurePress	-1	0.08	711.493	6	75	Target	Loss	False
712.493	0.3	Lose2	0.6579	0.004	No	2.933	-0.004	2.0	PrematurePress	-1	0.08	n/a	6	75	ButtonPress	Loss	False
712.564	0.55	Lose2	0.6579	n/a	No	2.933	n/a	n/a	PrematurePress	-1	n/a	n/a	6	75	Blank	Loss	False
713.115	1.45	Lose2	0.6579	n/a	No	2.933	n/a	5.0	PrematurePress	-1	0.02	712.135	6	75	Feedback	Loss	False
714.57	2.933	Lose2	0.6579	n/a	No	2.933	n/a	n/a	PrematurePress	-1	0.0	n/a	6	75	ISIslide	Loss	False
717.529	0.25	Control	0.6494	0.0	No	3.221	0.029	n/a	NoResponse	0	n/a	n/a	6	76	Cue	Neutral	True
717.779	4.05	Control	0.6494	0.0	No	3.221	0.0	n/a	NoResponse	0	n/a	n/a	6	76	Fixation	Neutral	True
721.825	0.15	Control	0.6494	0.004	No	3.221	-0.004	2.0	NoResponse	0	0.196	721.021	6	76	Target	Neutral	True
721.975	0.55	Control	0.6494	n/a	No	3.221	n/a	n/a	NoResponse	0	n/a	n/a	6	76	Blank	Neutral	True
722.021	0.3	Control	0.6494	0.004	No	3.221	-0.004	2.0	NoResponse	0	0.196	n/a	6	76	ButtonPress	Neutral	True
722.527	1.45	Control	0.6494	n/a	No	3.221	n/a	5.0	NoResponse	0	0.022	721.549	6	76	Feedback	Neutral	True
723.981	3.221	Control	0.6494	n/a	No	3.221	n/a	n/a	NoResponse	0	0.0	n/a	6	76	ISIslide	Neutral	True
727.224	0.25	Lose2	0.6409999999999999	0.0	No	2.576	0.024	n/a	NoResponse	-1	n/a	n/a	5	77	Cue	Loss	True
727.475	3.95	Lose2	0.6409999999999999	0.0	No	2.576	0.001	n/a	NoResponse	-1	n/a	n/a	5	77	Fixation	Loss	True
731.42	0.16	Lose2	0.6409999999999999	0.004	No	2.576	-0.004	2.0	NoResponse	-1	0.2	730.62	5	77	Target	Loss	True
731.587	0.54	Lose2	0.6409999999999999	n/a	No	2.576	n/a	n/a	NoResponse	-1	n/a	n/a	5	77	Blank	Loss	True
731.62	0.3	Lose2	0.6409999999999999	0.004	No	2.576	-0.004	2.0	NoResponse	-1	0.2	n/a	5	77	ButtonPress	Loss	True
732.122	1.45	Lose2	0.6409999999999999	n/a	No	2.576	n/a	5.0	NoResponse	-1	0.036	731.158	5	77	Feedback	Loss	True
733.576	2.576	Lose2	0.6409999999999999	n/a	No	2.576	n/a	n/a	NoResponse	-1	0.0	n/a	5	77	ISIslide	Loss	True
