onset	duration	cue_type	current_mean_accuracy	duration_error	is_hit	isi_adjusted	onset_delay	response	response_type	reward	rt	rt_time	total_reward	trial_number	trial_phase	trial_type	one_press
11.098	0.25	Control	1.0	0.0	Yes	2.952	-0.002	n/a	GoodResponse	0	n/a	n/a	0	0	Cue	Neutral	True
11.349	3.85	Control	1.0	0.0	Yes	2.952	0.001	n/a	GoodResponse	0	n/a	n/a	0	0	Fixation	Neutral	True
15.193	0.4	Control	1.0	0.005	Yes	2.952	-0.005	2.0	GoodResponse	0	0.231	14.424	0	0	Target	Neutral	True
15.424	0.3	Control	1.0	0.005	Yes	2.952	-0.005	2.0	GoodResponse	0	0.231	n/a	0	0	ButtonPress	Neutral	True
15.595	0.3	Control	1.0	n/a	Yes	2.952	n/a	n/a	GoodResponse	0	n/a	n/a	0	0	Blank	Neutral	True
15.896	1.45	Control	1.0	n/a	Yes	2.952	n/a	5.0	GoodResponse	0	0.03	14.926	0	0	Feedback	Neutral	True
17.35	2.952	Control	1.0	n/a	Yes	2.952	n/a	n/a	GoodResponse	0	0.0	n/a	0	0	ISIslide	Neutral	True
20.326	0.25	Lose2	1.0	0.0	Yes	2.774	0.026	n/a	GoodResponse	0	n/a	n/a	0	1	Cue	AvoidedLoss	True
20.576	4.0	Lose2	1.0	0.0	Yes	2.774	0.0	n/a	GoodResponse	0	n/a	n/a	0	1	Fixation	AvoidedLoss	True
24.572	0.39	Lose2	1.0	0.004	Yes	2.774	-0.004	2.0	GoodResponse	0	0.205	23.777	0	1	Target	AvoidedLoss	True
24.777	0.3	Lose2	1.0	0.004	Yes	2.774	-0.004	2.0	GoodResponse	0	0.205	n/a	0	1	ButtonPress	AvoidedLoss	True
24.973	0.31	Lose2	1.0	n/a	Yes	2.774	n/a	n/a	GoodResponse	0	n/a	n/a	0	1	Blank	AvoidedLoss	True
25.274	1.45	Lose2	1.0	n/a	Yes	2.774	n/a	5.0	GoodResponse	0	0.018	24.292	0	1	Feedback	AvoidedLoss	True
26.728	2.774	Lose2	1.0	n/a	Yes	2.774	n/a	n/a	GoodResponse	0	0.0	n/a	0	1	ISIslide	AvoidedLoss	True
29.52	0.25	Control	1.0	0.0	Yes	2.58	0.02	n/a	GoodResponse	0	n/a	n/a	0	2	Cue	Neutral	True
29.77	4.1	Control	1.0	0.001	Yes	2.58	0.0	n/a	GoodResponse	0	n/a	n/a	0	2	Fixation	Neutral	True
33.866	0.38	Control	1.0	0.004	Yes	2.58	-0.004	2.0	GoodResponse	0	0.197	33.063	0	2	Target	Neutral	True
34.063	0.3	Control	1.0	0.004	Yes	2.58	-0.004	2.0	GoodResponse	0	0.197	n/a	0	2	ButtonPress	Neutral	True
34.251	0.32	Control	1.0	n/a	Yes	2.58	n/a	n/a	GoodResponse	0	n/a	n/a	0	2	Blank	Neutral	True
34.568	1.45	Control	1.0	n/a	Yes	2.58	n/a	5.0	GoodResponse	0	0.041	33.609	0	2	Feedback	Neutral	True
36.023	2.58	Control	1.0	n/a	Yes	2.58	n/a	n/a	GoodResponse	0	0.0	n/a	0	2	ISIslide	Neutral	True
38.63	0.25	Win2	1.0	0.0	Yes	2.82	0.03	n/a	GoodResponse	1	n/a	n/a	1	3	Cue	Win	True
38.881	3.95	Win2	1.0	0.0	Yes	2.82	0.001	n/a	GoodResponse	1	n/a	n/a	1	3	Fixation	Win	True
42.826	0.37	Win2	1.0	0.004	Yes	2.82	-0.004	2.0	GoodResponse	1	0.242	42.068	1	3	Target	Win	True
43.068	0.3	Win2	1.0	0.004	Yes	2.82	-0.004	2.0	GoodResponse	1	0.242	n/a	1	3	ButtonPress	Win	True
43.211	0.33	Win2	1.0	n/a	Yes	2.82	n/a	n/a	GoodResponse	1	n/a	n/a	1	3	Blank	Win	True
43.528	1.45	Win2	1.0	n/a	Yes	2.82	n/a	5.0	GoodResponse	1	0.008	42.536	1	3	Feedback	Win	True
44.983	2.82	Win2	1.0	n/a	Yes	2.82	n/a	n/a	GoodResponse	1	0.0	n/a	1	3	ISIslide	Win	True
47.824	0.25	Win2	1.0	0.001	Yes	3.276	0.024	n/a	GoodResponse	1	n/a	n/a	2	4	Cue	Win	True
48.075	4.0	Win2	1.0	0.0	Yes	3.276	0.001	n/a	GoodResponse	1	n/a	n/a	2	4	Fixation	Win	True
52.071	0.36	Win2	1.0	0.003	Yes	3.276	-0.003	2.0	GoodResponse	1	0.243	51.314	2	4	Target	Win	True
52.314	0.3	Win2	1.0	0.003	Yes	3.276	-0.003	2.0	GoodResponse	1	0.243	n/a	2	4	ButtonPress	Win	True
52.438	0.34	Win2	1.0	n/a	Yes	3.276	n/a	n/a	GoodResponse	1	n/a	n/a	2	4	Blank	Win	True
52.773	1.45	Win2	1.0	n/a	Yes	3.276	n/a	5.0	GoodResponse	1	0.031	51.804	2	4	Feedback	Win	True
54.227	3.276	Win2	1.0	n/a	Yes	3.276	n/a	n/a	GoodResponse	1	0.0	n/a	2	4	ISIslide	Win	True
57.52	0.25	Win2	1.0	0.0	Yes	2.78	0.02	n/a	GoodResponse	1	n/a	n/a	3	5	Cue	Win	True
57.771	4.0	Win2	1.0	0.0	Yes	2.78	0.001	n/a	GoodResponse	1	n/a	n/a	3	5	Fixation	Win	True
61.766	0.35	Win2	1.0	0.004	Yes	2.78	-0.004	2.0	GoodResponse	1	0.207	60.973	3	5	Target	Win	True
61.973	0.3	Win2	1.0	0.004	Yes	2.78	-0.004	2.0	GoodResponse	1	0.207	n/a	3	5	ButtonPress	Win	True
62.117	0.35	Win2	1.0	n/a	Yes	2.78	n/a	n/a	GoodResponse	1	n/a	n/a	3	5	Blank	Win	True
62.468	1.45	Win2	1.0	n/a	Yes	2.78	n/a	5.0	GoodResponse	1	0.043	61.511	3	5	Feedback	Win	True
63.923	2.78	Win2	1.0	n/a	Yes	2.78	n/a	n/a	GoodResponse	1	0.0	n/a	3	5	ISIslide	Win	True
66.731	0.25	Lose2	1.0	0.0	Yes	2.719	0.031	n/a	GoodResponse	0	n/a	n/a	3	6	Cue	AvoidedLoss	True
66.982	3.95	Lose2	1.0	0.0	Yes	2.719	0.001	n/a	GoodResponse	0	n/a	n/a	3	6	Fixation	AvoidedLoss	True
70.927	0.34	Lose2	1.0	0.004	Yes	2.719	-0.004	2.0	GoodResponse	0	0.209	70.136	3	6	Target	AvoidedLoss	True
71.136	0.3	Lose2	1.0	0.004	Yes	2.719	-0.004	2.0	GoodResponse	0	0.209	n/a	3	6	ButtonPress	AvoidedLoss	True
71.278	0.36	Lose2	1.0	n/a	Yes	2.719	n/a	n/a	GoodResponse	0	n/a	n/a	3	6	Blank	AvoidedLoss	True
71.629	1.45	Lose2	1.0	n/a	Yes	2.719	n/a	5.0	GoodResponse	0	0.008	70.637	3	6	Feedback	AvoidedLoss	True
73.083	2.719	Lose2	1.0	n/a	Yes	2.719	n/a	n/a	GoodResponse	0	0.0	n/a	3	6	ISIslide	AvoidedLoss	True
75.825	0.25	Lose2	0.875	0.0	No	4.025	0.025	n/a	NoResponse	-1	n/a	n/a	2	7	Cue	Loss	True
76.076	4.05	Lose2	0.875	0.0	No	4.025	0.001	2.0	NoResponse	-1	3.89	78.966	2	7	Fixation	Loss	True
79.966	0.3	Lose2	0.875	0.0	No	4.025	0.001	2.0	NoResponse	-1	3.89	n/a	2	7	ButtonPress	Loss	True
80.121	0.33	Lose2	0.875	0.004	No	4.025	-0.004	n/a	NoResponse	-1	n/a	n/a	2	7	Target	Loss	True
80.456	0.37	Lose2	0.875	n/a	No	4.025	n/a	n/a	NoResponse	-1	n/a	n/a	2	7	Blank	Loss	True
80.823	1.45	Lose2	0.875	n/a	No	4.025	n/a	5.0	NoResponse	-1	0.03	79.853	2	7	Feedback	Loss	True
82.278	4.025	Lose2	0.875	n/a	No	4.025	n/a	n/a	NoResponse	-1	0.0	n/a	2	7	ISIslide	Loss	True
86.323	0.25	Lose2	0.8889	0.0	Yes	3.027	0.023	n/a	GoodResponse	0	n/a	n/a	2	8	Cue	AvoidedLoss	True
86.574	3.95	Lose2	0.8889	0.0	Yes	3.027	0.001	n/a	GoodResponse	0	n/a	n/a	2	8	Fixation	AvoidedLoss	True
90.519	0.32	Lose2	0.8889	0.004	Yes	3.027	-0.004	2.0	GoodResponse	0	0.312	89.831	2	8	Target	AvoidedLoss	True
90.831	0.3	Lose2	0.8889	0.004	Yes	3.027	-0.004	2.0	GoodResponse	0	0.312	n/a	2	8	ButtonPress	AvoidedLoss	True
90.853	0.38	Lose2	0.8889	n/a	Yes	3.027	n/a	n/a	GoodResponse	0	n/a	n/a	2	8	Blank	AvoidedLoss	True
91.221	1.45	Lose2	0.8889	n/a	Yes	3.027	n/a	5.0	GoodResponse	0	0.022	90.243	2	8	Feedback	AvoidedLoss	True
92.675	3.027	Lose2	0.8889	n/a	Yes	3.027	n/a	n/a	GoodResponse	0	0.0	n/a	2	8	ISIslide	AvoidedLoss	True
95.718	0.25	Lose2	0.9	0.0	Yes	3.132	0.018	n/a	GoodResponse	0	n/a	n/a	2	9	Cue	AvoidedLoss	True
95.969	3.95	Lose2	0.9	0.0	Yes	3.132	0.001	n/a	GoodResponse	0	n/a	n/a	2	9	Fixation	AvoidedLoss	True
99.914	0.31	Lose2	0.9	0.004	Yes	3.132	-0.004	2.0	GoodResponse	0	0.223	99.137	2	9	Target	AvoidedLoss	True
100.137	0.3	Lose2	0.9	0.004	Yes	3.132	-0.004	2.0	GoodResponse	0	0.223	n/a	2	9	ButtonPress	AvoidedLoss	True
100.231	0.39	Lose2	0.9	n/a	Yes	3.132	n/a	n/a	GoodResponse	0	n/a	n/a	2	9	Blank	AvoidedLoss	True
100.616	1.45	Lose2	0.9	n/a	Yes	3.132	n/a	5.0	GoodResponse	0	0.041	99.657	2	9	Feedback	AvoidedLoss	True
102.07	3.132	Lose2	0.9	n/a	Yes	3.132	n/a	n/a	GoodResponse	0	0.0	n/a	2	9	ISIslide	AvoidedLoss	True
105.23	0.25	Control	0.9091	0.0	Yes	3.27	0.03	n/a	GoodResponse	0	n/a	n/a	2	10	Cue	Neutral	True
105.48	4.0	Control	0.9091	0.001	Yes	3.27	0.0	n/a	GoodResponse	0	n/a	n/a	2	10	Fixation	Neutral	True
109.476	0.3	Control	0.9091	0.004	Yes	3.27	-0.004	2.0	GoodResponse	0	0.247	108.723	2	10	Target	Neutral	True
109.723	0.3	Control	0.9091	0.004	Yes	3.27	-0.004	2.0	GoodResponse	0	0.247	n/a	2	10	ButtonPress	Neutral	True
109.777	0.4	Control	0.9091	n/a	Yes	3.27	n/a	n/a	GoodResponse	0	n/a	n/a	2	10	Blank	Neutral	True
110.178	1.45	Control	0.9091	n/a	Yes	3.27	n/a	5.0	GoodResponse	0	0.04	109.218	2	10	Feedback	Neutral	True
111.632	3.27	Control	0.9091	n/a	Yes	3.27	n/a	n/a	GoodResponse	0	0.0	n/a	2	10	ISIslide	Neutral	True
114.925	0.25	Lose2	0.9167000000000001	0.0	Yes	2.725	0.025	n/a	GoodResponse	0	n/a	n/a	2	11	Cue	AvoidedLoss	True
115.176	4.05	Lose2	0.9167000000000001	0.0	Yes	2.725	0.001	n/a	GoodResponse	0	n/a	n/a	2	11	Fixation	AvoidedLoss	True
119.222	0.29	Lose2	0.9167000000000001	0.003	Yes	2.725	-0.003	2.0	GoodResponse	0	0.257	118.479	2	11	Target	AvoidedLoss	True
119.479	0.3	Lose2	0.9167000000000001	0.003	Yes	2.725	-0.003	2.0	GoodResponse	0	0.257	n/a	2	11	ButtonPress	AvoidedLoss	True
119.522	0.41	Lose2	0.9167000000000001	n/a	Yes	2.725	n/a	n/a	GoodResponse	0	n/a	n/a	2	11	Blank	AvoidedLoss	True
119.924	1.45	Lose2	0.9167000000000001	n/a	Yes	2.725	n/a	5.0	GoodResponse	0	0.001	118.925	2	11	Feedback	AvoidedLoss	True
121.378	2.725	Lose2	0.9167000000000001	n/a	Yes	2.725	n/a	n/a	GoodResponse	0	0.0	n/a	2	11	ISIslide	AvoidedLoss	True
124.12	0.25	Control	0.9231	0.0	Yes	2.98	0.02	n/a	GoodResponse	0	n/a	n/a	2	12	Cue	Neutral	True
124.37	3.9	Control	0.9231	0.0	Yes	2.98	0.0	n/a	GoodResponse	0	n/a	n/a	2	12	Fixation	Neutral	True
128.282	0.28	Control	0.9231	0.0	Yes	2.98	0.012	2.0	GoodResponse	0	0.232	127.514	2	12	Target	Neutral	True
128.514	0.3	Control	0.9231	0.0	Yes	2.98	0.012	2.0	GoodResponse	0	0.232	n/a	2	12	ButtonPress	Neutral	True
128.549	0.42	Control	0.9231	n/a	Yes	2.98	n/a	n/a	GoodResponse	0	n/a	n/a	2	12	Blank	Neutral	True
128.967	1.45	Control	0.9231	n/a	Yes	2.98	n/a	5.0	GoodResponse	0	0.032	127.999	2	12	Feedback	Neutral	True
130.422	2.98	Control	0.9231	n/a	Yes	2.98	n/a	n/a	GoodResponse	0	0.0	n/a	2	12	ISIslide	Neutral	True
133.414	0.25	Control	0.9286	0.0	Yes	2.786	0.014	n/a	GoodResponse	0	n/a	n/a	2	13	Cue	Neutral	True
133.665	4.0	Control	0.9286	0.0	Yes	2.786	0.001	n/a	GoodResponse	0	n/a	n/a	2	13	Fixation	Neutral	True
137.66	0.27	Control	0.9286	0.004	Yes	2.786	-0.004	2.0	GoodResponse	0	0.215	136.875	2	13	Target	Neutral	True
137.875	0.3	Control	0.9286	0.004	Yes	2.786	-0.004	2.0	GoodResponse	0	0.215	n/a	2	13	ButtonPress	Neutral	True
137.944	0.43	Control	0.9286	n/a	Yes	2.786	n/a	n/a	GoodResponse	0	n/a	n/a	2	13	Blank	Neutral	True
138.362	1.45	Control	0.9286	n/a	Yes	2.786	n/a	5.0	GoodResponse	0	0.008	137.37	2	13	Feedback	Neutral	True
139.817	2.786	Control	0.9286	n/a	Yes	2.786	n/a	n/a	GoodResponse	0	0.0	n/a	2	13	ISIslide	Neutral	True
142.625	0.25	Win2	0.9333	0.0	Yes	2.675	0.025	n/a	GoodResponse	1	n/a	n/a	3	14	Cue	Win	True
142.876	4.1	Win2	0.9333	0.0	Yes	2.675	0.001	n/a	GoodResponse	1	n/a	n/a	3	14	Fixation	Win	True
146.971	0.26	Win2	0.9333	0.004	Yes	2.675	-0.004	2.0	GoodResponse	1	0.252	146.223	3	14	Target	Win	True
147.223	0.3	Win2	0.9333	0.004	Yes	2.675	-0.004	2.0	GoodResponse	1	0.252	n/a	3	14	ButtonPress	Win	True
147.239	0.44	Win2	0.9333	n/a	Yes	2.675	n/a	n/a	GoodResponse	1	n/a	n/a	3	14	Blank	Win	True
147.673	1.45	Win2	0.9333	n/a	Yes	2.675	n/a	5.0	GoodResponse	1	0.009	146.682	3	14	Feedback	Win	True
149.128	2.675	Win2	0.9333	n/a	Yes	2.675	n/a	n/a	GoodResponse	1	0.0	n/a	3	14	ISIslide	Win	True
151.819	0.25	Control	0.9375	0.0	Yes	2.981	0.019	n/a	GoodResponse	0	n/a	n/a	3	15	Cue	Neutral	True
152.07	4.0	Control	0.9375	0.0	Yes	2.981	0.001	n/a	GoodResponse	0	n/a	n/a	3	15	Fixation	Neutral	True
156.065	0.25	Control	0.9375	0.004	Yes	2.981	-0.004	2.0	GoodResponse	0	0.248	155.313	3	15	Target	Neutral	True
156.313	0.3	Control	0.9375	0.004	Yes	2.981	-0.004	2.0	GoodResponse	0	0.248	n/a	3	15	ButtonPress	Neutral	True
156.316	0.45	Control	0.9375	n/a	Yes	2.981	n/a	n/a	GoodResponse	0	n/a	n/a	3	15	Blank	Neutral	True
156.767	1.45	Control	0.9375	n/a	Yes	2.981	n/a	5.0	GoodResponse	0	0.036	155.803	3	15	Feedback	Neutral	True
158.222	2.981	Control	0.9375	n/a	Yes	2.981	n/a	n/a	GoodResponse	0	0.0	n/a	3	15	ISIslide	Neutral	True
161.231	0.25	Win2	0.9412	0.0	Yes	2.869	0.031	n/a	GoodResponse	1	n/a	n/a	4	16	Cue	Win	True
161.481	4.0	Win2	0.9412	0.0	Yes	2.869	0.0	n/a	GoodResponse	1	n/a	n/a	4	16	Fixation	Win	True
165.477	0.24	Win2	0.9412	0.004	Yes	2.869	-0.004	2.0	GoodResponse	1	0.229	164.706	4	16	Target	Win	True
165.706	0.3	Win2	0.9412	0.004	Yes	2.869	-0.004	2.0	GoodResponse	1	0.229	n/a	4	16	ButtonPress	Win	True
165.727	0.46	Win2	0.9412	n/a	Yes	2.869	n/a	n/a	GoodResponse	1	n/a	n/a	4	16	Blank	Win	True
166.179	1.45	Win2	0.9412	n/a	Yes	2.869	n/a	5.0	GoodResponse	1	0.039	165.218	4	16	Feedback	Win	True
167.633	2.869	Win2	0.9412	n/a	Yes	2.869	n/a	n/a	GoodResponse	1	0.0	n/a	4	16	ISIslide	Win	True
170.525	0.25	Lose2	0.8889	0.0	No	2.725	0.025	n/a	NoResponse	-1	n/a	n/a	3	17	Cue	Loss	True
170.776	3.95	Lose2	0.8889	0.0	No	2.725	0.001	n/a	NoResponse	-1	n/a	n/a	3	17	Fixation	Loss	True
174.721	0.23	Lose2	0.8889	0.004	No	2.725	-0.004	2.0	NoResponse	-1	0.253	173.974	3	17	Target	Loss	True
174.955	0.47	Lose2	0.8889	n/a	No	2.725	n/a	n/a	NoResponse	-1	n/a	n/a	3	17	Blank	Loss	True
174.974	0.3	Lose2	0.8889	0.004	No	2.725	-0.004	2.0	NoResponse	-1	0.253	n/a	3	17	ButtonPress	Loss	True
175.423	1.45	Lose2	0.8889	n/a	No	2.725	n/a	5.0	NoResponse	-1	0.014	174.437	3	17	Feedback	Loss	True
176.877	2.725	Lose2	0.8889	n/a	No	2.725	n/a	n/a	NoResponse	-1	0.0	n/a	3	17	ISIslide	Loss	True
179.619	0.25	Lose2	0.8946999999999999	0.0	Yes	2.731	0.019	n/a	GoodResponse	0	n/a	n/a	3	18	Cue	AvoidedLoss	True
179.87	4.05	Lose2	0.8946999999999999	0.0	Yes	2.731	0.001	n/a	GoodResponse	0	n/a	n/a	3	18	Fixation	AvoidedLoss	True
183.915	0.22	Lose2	0.8946999999999999	0.004	Yes	2.731	-0.004	2.0	GoodResponse	0	0.187	183.102	3	18	Target	AvoidedLoss	True
184.102	0.3	Lose2	0.8946999999999999	0.004	Yes	2.731	-0.004	2.0	GoodResponse	0	0.187	n/a	3	18	ButtonPress	AvoidedLoss	True
184.149	0.48	Lose2	0.8946999999999999	n/a	Yes	2.731	n/a	n/a	GoodResponse	0	n/a	n/a	3	18	Blank	AvoidedLoss	True
184.617	1.45	Lose2	0.8946999999999999	n/a	Yes	2.731	n/a	5.0	GoodResponse	0	0.04	183.657	3	18	Feedback	AvoidedLoss	True
186.072	2.731	Lose2	0.8946999999999999	n/a	Yes	2.731	n/a	n/a	GoodResponse	0	0.0	n/a	3	18	ISIslide	AvoidedLoss	True
188.83	0.25	Control	0.85	0.0	No	2.92	0.03	n/a	NoResponse	0	n/a	n/a	3	19	Cue	Neutral	True
189.081	3.95	Control	0.85	0.0	No	2.92	0.001	n/a	NoResponse	0	n/a	n/a	3	19	Fixation	Neutral	True
193.026	0.21	Control	0.85	0.004	No	2.92	-0.004	2.0	NoResponse	0	0.244	192.27	3	19	Target	Neutral	True
193.243	0.49	Control	0.85	n/a	No	2.92	n/a	n/a	NoResponse	0	n/a	n/a	3	19	Blank	Neutral	True
193.27	0.3	Control	0.85	0.004	No	2.92	-0.004	2.0	NoResponse	0	0.244	n/a	3	19	ButtonPress	Neutral	True
193.728	1.45	Control	0.85	n/a	No	2.92	n/a	5.0	NoResponse	0	0.002	192.73	3	19	Feedback	Neutral	True
195.182	2.92	Control	0.85	n/a	No	2.92	n/a	n/a	NoResponse	0	0.0	n/a	3	19	ISIslide	Neutral	True
198.124	0.25	Control	0.8095	0.001	No	2.626	0.024	n/a	NoResponse	0	n/a	n/a	3	20	Cue	Neutral	True
198.375	4.05	Control	0.8095	0.0	No	2.626	0.001	n/a	NoResponse	0	n/a	n/a	3	20	Fixation	Neutral	True
202.421	0.2	Control	0.8095	0.003	No	2.626	-0.003	2.0	NoResponse	0	0.43	201.851	3	20	Target	Neutral	True
202.621	0.5	Control	0.8095	n/a	No	2.626	n/a	n/a	NoResponse	0	n/a	n/a	3	20	Blank	Neutral	True
202.851	0.3	Control	0.8095	0.003	No	2.626	-0.003	2.0	NoResponse	0	0.43	n/a	3	20	ButtonPress	Neutral	True
203.123	1.45	Control	0.8095	n/a	No	2.626	n/a	5.0	NoResponse	0	0.021	202.144	3	20	Feedback	Neutral	True
204.577	2.626	Control	0.8095	n/a	No	2.626	n/a	n/a	NoResponse	0	0.0	n/a	3	20	ISIslide	Neutral	True
207.218	0.25	Control	0.7726999999999999	0.0	No	2.782	0.018	n/a	NoResponse	0	n/a	n/a	3	21	Cue	Neutral	True
207.469	4.1	Control	0.7726999999999999	0.0	No	2.782	0.001	n/a	NoResponse	0	n/a	n/a	3	21	Fixation	Neutral	True
211.565	0.19	Control	0.7726999999999999	0.003	No	2.782	-0.003	2.0	NoResponse	0	0.251	210.816	3	21	Target	Neutral	True
211.765	0.51	Control	0.7726999999999999	n/a	No	2.782	n/a	n/a	NoResponse	0	n/a	n/a	3	21	Blank	Neutral	True
211.816	0.3	Control	0.7726999999999999	0.003	No	2.782	-0.003	2.0	NoResponse	0	0.251	n/a	3	21	ButtonPress	Neutral	True
212.267	1.45	Control	0.7726999999999999	n/a	No	2.782	n/a	5.0	NoResponse	0	0.048	211.315	3	21	Feedback	Neutral	True
213.721	2.782	Control	0.7726999999999999	n/a	No	2.782	n/a	n/a	NoResponse	0	0.0	n/a	3	21	ISIslide	Neutral	True
216.513	0.25	Control	0.7391	0.0	No	2.787	0.013	n/a	NoResponse	0	n/a	n/a	3	22	Cue	Neutral	True
216.764	4.0	Control	0.7391	0.0	No	2.787	0.001	n/a	NoResponse	0	n/a	n/a	3	22	Fixation	Neutral	True
220.759	0.18	Control	0.7391	0.004	No	2.787	-0.004	2.0	NoResponse	0	0.215	219.974	3	22	Target	Neutral	True
220.943	0.52	Control	0.7391	n/a	No	2.787	n/a	n/a	NoResponse	0	n/a	n/a	3	22	Blank	Neutral	True
220.974	0.3	Control	0.7391	0.004	No	2.787	-0.004	2.0	NoResponse	0	0.215	n/a	3	22	ButtonPress	Neutral	True
221.461	1.45	Control	0.7391	n/a	No	2.787	n/a	5.0	NoResponse	0	0.024	220.485	3	22	Feedback	Neutral	True
222.915	2.787	Control	0.7391	n/a	No	2.787	n/a	n/a	NoResponse	0	0.0	n/a	3	22	ISIslide	Neutral	True
225.724	0.25	Control	0.7082999999999999	0.0	No	2.776	0.024	n/a	NoResponse	0	n/a	n/a	3	23	Cue	Neutral	True
225.974	3.9	Control	0.7082999999999999	0.001	No	2.776	0.0	n/a	NoResponse	0	n/a	n/a	3	23	Fixation	Neutral	True
229.886	0.17	Control	0.7082999999999999	0.0	No	2.776	0.012	2.0	NoResponse	0	0.223	229.109	3	23	Target	Neutral	True
230.053	0.53	Control	0.7082999999999999	n/a	No	2.776	n/a	n/a	NoResponse	0	n/a	n/a	3	23	Blank	Neutral	True
230.109	0.3	Control	0.7082999999999999	0.0	No	2.776	0.012	2.0	NoResponse	0	0.223	n/a	3	23	ButtonPress	Neutral	True
230.572	1.45	Control	0.7082999999999999	n/a	No	2.776	n/a	5.0	NoResponse	0	0.035	229.607	3	23	Feedback	Neutral	True
232.026	2.776	Control	0.7082999999999999	n/a	No	2.776	n/a	n/a	NoResponse	0	0.0	n/a	3	23	ISIslide	Neutral	True
234.818	0.25	Win2	0.68	0.0	No	3.132	0.018	n/a	NoResponse	0	n/a	n/a	3	24	Cue	MissedWin	True
235.068	3.95	Win2	0.68	0.0	No	3.132	0.0	2.0	NoResponse	0	3.912	237.98	3	24	Fixation	MissedWin	True
238.98	0.3	Win2	0.68	0.0	No	3.132	0.0	2.0	NoResponse	0	3.912	n/a	3	24	ButtonPress	MissedWin	True
239.03	0.16	Win2	0.68	0.0	No	3.132	0.012	n/a	NoResponse	0	n/a	n/a	3	24	Target	MissedWin	True
239.181	0.54	Win2	0.68	n/a	No	3.132	n/a	n/a	NoResponse	0	n/a	n/a	3	24	Blank	MissedWin	True
239.716	1.45	Win2	0.68	n/a	No	3.132	n/a	5.0	NoResponse	0	0.014	238.73	3	24	Feedback	MissedWin	True
241.17	3.132	Win2	0.68	n/a	No	3.132	n/a	n/a	NoResponse	0	0.0	n/a	3	24	ISIslide	MissedWin	True
244.329	0.25	Win2	0.6537999999999999	0.0	No	3.071	0.029	n/a	NoResponse	0	n/a	n/a	3	25	Cue	MissedWin	True
244.58	4.0	Win2	0.6537999999999999	0.0	No	3.071	0.001	n/a	NoResponse	0	n/a	n/a	3	25	Fixation	MissedWin	True
248.575	0.15	Win2	0.6537999999999999	0.004	No	3.071	-0.004	2.0	NoResponse	0	0.287	247.862	3	25	Target	MissedWin	True
248.726	0.55	Win2	0.6537999999999999	n/a	No	3.071	n/a	n/a	NoResponse	0	n/a	n/a	3	25	Blank	MissedWin	True
248.862	0.3	Win2	0.6537999999999999	0.004	No	3.071	-0.004	2.0	NoResponse	0	0.287	n/a	3	25	ButtonPress	MissedWin	True
249.278	1.45	Win2	0.6537999999999999	n/a	No	3.071	n/a	5.0	NoResponse	0	0.013	248.291	3	25	Feedback	MissedWin	True
250.732	3.071	Win2	0.6537999999999999	n/a	No	3.071	n/a	n/a	NoResponse	0	0.0	n/a	3	25	ISIslide	MissedWin	True
253.824	0.25	Win2	0.6296	0.001	No	2.926	0.024	n/a	NoResponse	0	n/a	n/a	3	26	Cue	MissedWin	True
254.075	3.95	Win2	0.6296	0.0	No	2.926	0.001	n/a	NoResponse	0	n/a	n/a	3	26	Fixation	MissedWin	True
258.02	0.16	Win2	0.6296	0.004	No	2.926	-0.004	2.0	NoResponse	0	0.229	257.249	3	26	Target	MissedWin	True
258.188	0.54	Win2	0.6296	n/a	No	2.926	n/a	n/a	NoResponse	0	n/a	n/a	3	26	Blank	MissedWin	True
258.249	0.3	Win2	0.6296	0.004	No	2.926	-0.004	2.0	NoResponse	0	0.229	n/a	3	26	ButtonPress	MissedWin	True
258.722	1.45	Win2	0.6296	n/a	No	2.926	n/a	5.0	NoResponse	0	0.031	257.753	3	26	Feedback	MissedWin	True
260.177	2.926	Win2	0.6296	n/a	No	2.926	n/a	n/a	NoResponse	0	0.0	n/a	3	26	ISIslide	MissedWin	True
263.119	0.25	Lose2	0.6071	0.0	No	2.831	0.019	n/a	NoResponse	-1	n/a	n/a	2	27	Cue	Loss	True
263.37	4.05	Lose2	0.6071	0.0	No	2.831	0.001	n/a	NoResponse	-1	n/a	n/a	2	27	Fixation	Loss	True
267.415	0.17	Lose2	0.6071	0.004	No	2.831	-0.004	2.0	NoResponse	-1	0.231	266.646	2	27	Target	Loss	True
267.599	0.53	Lose2	0.6071	n/a	No	2.831	n/a	n/a	NoResponse	-1	n/a	n/a	2	27	Blank	Loss	True
267.646	0.3	Lose2	0.6071	0.004	No	2.831	-0.004	2.0	NoResponse	-1	0.231	n/a	2	27	ButtonPress	Loss	True
268.117	1.45	Lose2	0.6071	n/a	No	2.831	n/a	5.0	NoResponse	-1	0.002	267.119	2	27	Feedback	Loss	True
269.572	2.831	Lose2	0.6071	n/a	No	2.831	n/a	n/a	NoResponse	-1	0.0	n/a	2	27	ISIslide	Loss	True
272.413	0.25	Control	0.5861999999999999	0.001	No	2.837	0.013	n/a	NoResponse	0	n/a	n/a	2	28	Cue	Neutral	True
272.664	4.05	Control	0.5861999999999999	0.0	No	2.837	0.001	n/a	NoResponse	0	n/a	n/a	2	28	Fixation	Neutral	True
276.71	0.18	Control	0.5861999999999999	0.003	No	2.837	-0.003	2.0	NoResponse	0	0.251	275.961	2	28	Target	Neutral	True
276.894	0.52	Control	0.5861999999999999	n/a	No	2.837	n/a	n/a	NoResponse	0	n/a	n/a	2	28	Blank	Neutral	True
276.961	0.3	Control	0.5861999999999999	0.003	No	2.837	-0.003	2.0	NoResponse	0	0.251	n/a	2	28	ButtonPress	Neutral	True
277.412	1.45	Control	0.5861999999999999	n/a	No	2.837	n/a	5.0	NoResponse	0	0.024	276.436	2	28	Feedback	Neutral	True
278.866	2.837	Control	0.5861999999999999	n/a	No	2.837	n/a	n/a	NoResponse	0	0.0	n/a	2	28	ISIslide	Neutral	True
281.725	0.25	Lose2	0.5667	0.0	No	2.825	0.025	n/a	NoResponse	-1	n/a	n/a	1	29	Cue	Loss	True
281.975	3.95	Lose2	0.5667	0.0	No	2.825	0.0	n/a	NoResponse	-1	n/a	n/a	1	29	Fixation	Loss	True
285.921	0.19	Lose2	0.5667	0.004	No	2.825	-0.004	2.0	NoResponse	-1	0.248	285.169	1	29	Target	Loss	True
286.121	0.51	Lose2	0.5667	n/a	No	2.825	n/a	n/a	NoResponse	-1	n/a	n/a	1	29	Blank	Loss	True
286.169	0.3	Lose2	0.5667	0.004	No	2.825	-0.004	2.0	NoResponse	-1	0.248	n/a	1	29	ButtonPress	Loss	True
286.623	1.45	Lose2	0.5667	n/a	No	2.825	n/a	5.0	NoResponse	-1	0.033	285.656	1	29	Feedback	Loss	True
288.077	2.825	Lose2	0.5667	n/a	No	2.825	n/a	n/a	NoResponse	-1	0.0	n/a	1	29	ISIslide	Loss	True
290.919	0.25	Win2	0.5484	0.0	No	2.781	0.019	n/a	NoResponse	0	n/a	n/a	1	30	Cue	MissedWin	True
291.17	3.9	Win2	0.5484	0.0	No	2.781	0.001	n/a	NoResponse	0	n/a	n/a	1	30	Fixation	MissedWin	True
295.065	0.2	Win2	0.5484	0.004	No	2.781	-0.004	2.0	NoResponse	0	0.277	294.342	1	30	Target	MissedWin	True
295.265	0.5	Win2	0.5484	n/a	No	2.781	n/a	n/a	NoResponse	0	n/a	n/a	1	30	Blank	MissedWin	True
295.342	0.3	Win2	0.5484	0.004	No	2.781	-0.004	2.0	NoResponse	0	0.277	n/a	1	30	ButtonPress	MissedWin	True
295.767	1.45	Win2	0.5484	n/a	No	2.781	n/a	5.0	NoResponse	0	0.011	294.778	1	30	Feedback	MissedWin	True
297.221	2.781	Win2	0.5484	n/a	No	2.781	n/a	n/a	NoResponse	0	0.0	n/a	1	30	ISIslide	MissedWin	True
300.029	0.25	Lose2	0.5312	0.001	No	2.821	0.029	n/a	NoResponse	-1	n/a	n/a	0	31	Cue	Loss	True
300.28	4.05	Lose2	0.5312	0.0	No	2.821	0.001	n/a	NoResponse	-1	n/a	n/a	0	31	Fixation	Loss	True
304.326	0.21	Lose2	0.5312	0.003	No	2.821	-0.003	2.0	NoResponse	-1	0.246	303.572	0	31	Target	Loss	True
304.543	0.49	Lose2	0.5312	n/a	No	2.821	n/a	n/a	NoResponse	-1	n/a	n/a	0	31	Blank	Loss	True
304.572	0.3	Lose2	0.5312	0.003	No	2.821	-0.003	2.0	NoResponse	-1	0.246	n/a	0	31	ButtonPress	Loss	True
305.028	1.45	Lose2	0.5312	n/a	No	2.821	n/a	5.0	NoResponse	-1	0.017	304.045	0	31	Feedback	Loss	True
306.482	2.821	Lose2	0.5312	n/a	No	2.821	n/a	n/a	NoResponse	-1	0.0	n/a	0	31	ISIslide	Loss	True
309.324	0.25	Lose2	0.5152	0.0	No	2.626	0.024	n/a	NoResponse	-1	n/a	n/a	-1	32	Cue	Loss	True
309.575	4.15	Lose2	0.5152	0.0	No	2.626	0.001	n/a	NoResponse	-1	n/a	n/a	-1	32	Fixation	Loss	True
313.72	0.22	Lose2	0.5152	0.004	No	2.626	-0.004	2.0	NoResponse	-1	0.326	313.046	-1	32	Target	Loss	True
313.954	0.48	Lose2	0.5152	n/a	No	2.626	n/a	n/a	NoResponse	-1	n/a	n/a	-1	32	Blank	Loss	True
314.046	0.3	Lose2	0.5152	0.004	No	2.626	-0.004	2.0	NoResponse	-1	0.326	n/a	-1	32	ButtonPress	Loss	True
314.423	1.45	Lose2	0.5152	n/a	No	2.626	n/a	5.0	NoResponse	-1	0.037	313.46	-1	32	Feedback	Loss	True
315.877	2.626	Lose2	0.5152	n/a	No	2.626	n/a	n/a	NoResponse	-1	0.0	n/a	-1	32	ISIslide	Loss	True
318.518	0.25	Win2	0.5	0.0	No	2.682	0.018	n/a	NoResponse	0	n/a	n/a	-1	33	Cue	MissedWin	True
318.769	4.0	Win2	0.5	0.0	No	2.682	0.001	n/a	NoResponse	0	n/a	n/a	-1	33	Fixation	MissedWin	True
322.764	0.23	Win2	0.5	0.004	No	2.682	-0.004	2.0	NoResponse	0	0.263	322.027	-1	33	Target	MissedWin	True
322.998	0.47	Win2	0.5	n/a	No	2.682	n/a	n/a	NoResponse	0	n/a	n/a	-1	33	Blank	MissedWin	True
323.027	0.3	Win2	0.5	0.004	No	2.682	-0.004	2.0	NoResponse	0	0.263	n/a	-1	33	ButtonPress	MissedWin	True
323.466	1.45	Win2	0.5	n/a	No	2.682	n/a	5.0	NoResponse	0	0.019	322.485	-1	33	Feedback	MissedWin	True
324.921	2.682	Win2	0.5	n/a	No	2.682	n/a	n/a	NoResponse	0	0.0	n/a	-1	33	ISIslide	MissedWin	True
327.629	0.25	Lose2	0.4857	0.0	No	2.621	0.029	n/a	LatePress	-1	n/a	n/a	-2	34	Cue	Loss	True
327.879	4.05	Lose2	0.4857	0.001	No	2.621	0.0	n/a	LatePress	-1	n/a	n/a	-2	34	Fixation	Loss	True
331.925	0.24	Lose2	0.4857	0.004	No	2.621	-0.004	2.0	LatePress	-1	0.241	331.166	-2	34	Target	Loss	True
332.166	0.3	Lose2	0.4857	0.004	No	2.621	-0.004	2.0	LatePress	-1	0.241	n/a	-2	34	ButtonPress	Loss	True
332.176	0.46	Lose2	0.4857	n/a	No	2.621	n/a	n/a	LatePress	-1	n/a	n/a	-2	34	Blank	Loss	True
332.627	1.45	Lose2	0.4857	n/a	No	2.621	n/a	5.0	LatePress	-1	0.028	331.655	-2	34	Feedback	Loss	True
334.081	2.621	Lose2	0.4857	n/a	No	2.621	n/a	n/a	LatePress	-1	0.0	n/a	-2	34	ISIslide	Loss	True
336.723	0.25	Lose2	0.5	0.0	Yes	2.677	0.023	n/a	GoodResponse	0	n/a	n/a	-2	35	Cue	AvoidedLoss	True
336.973	4.0	Lose2	0.5	0.0	Yes	2.677	0.0	n/a	GoodResponse	0	n/a	n/a	-2	35	Fixation	AvoidedLoss	True
340.969	0.25	Lose2	0.5	0.004	Yes	2.677	-0.004	2.0	GoodResponse	0	0.241	340.21	-2	35	Target	AvoidedLoss	True
341.21	0.3	Lose2	0.5	0.004	Yes	2.677	-0.004	2.0	GoodResponse	0	0.241	n/a	-2	35	ButtonPress	AvoidedLoss	True
341.219	0.45	Lose2	0.5	n/a	Yes	2.677	n/a	n/a	GoodResponse	0	n/a	n/a	-2	35	Blank	AvoidedLoss	True
341.671	1.45	Lose2	0.5	n/a	Yes	2.677	n/a	5.0	GoodResponse	0	0.009	340.68	-2	35	Feedback	AvoidedLoss	True
343.125	2.677	Lose2	0.5	n/a	Yes	2.677	n/a	n/a	GoodResponse	0	0.0	n/a	-2	35	ISIslide	AvoidedLoss	True
345.816	0.25	Control	0.5135000000000001	0.001	Yes	2.684	0.016	n/a	GoodResponse	0	n/a	n/a	-2	36	Cue	Neutral	True
346.067	4.0	Control	0.5135000000000001	0.0	Yes	2.684	0.001	n/a	GoodResponse	0	n/a	n/a	-2	36	Fixation	Neutral	True
350.063	0.26	Control	0.5135000000000001	0.003	Yes	2.684	-0.003	2.0	GoodResponse	0	0.199	349.262	-2	36	Target	Neutral	True
350.262	0.3	Control	0.5135000000000001	0.003	Yes	2.684	-0.003	2.0	GoodResponse	0	0.199	n/a	-2	36	ButtonPress	Neutral	True
350.33	0.44	Control	0.5135000000000001	n/a	Yes	2.684	n/a	n/a	GoodResponse	0	n/a	n/a	-2	36	Blank	Neutral	True
350.765	1.45	Control	0.5135000000000001	n/a	Yes	2.684	n/a	5.0	GoodResponse	0	0.036	349.801	-2	36	Feedback	Neutral	True
352.219	2.684	Control	0.5135000000000001	n/a	Yes	2.684	n/a	n/a	GoodResponse	0	0.0	n/a	-2	36	ISIslide	Neutral	True
354.927	0.25	Win2	0.5263	0.0	Yes	2.873	0.027	n/a	GoodResponse	1	n/a	n/a	-1	37	Cue	Win	True
355.178	4.0	Win2	0.5263	0.0	Yes	2.873	0.001	n/a	GoodResponse	1	n/a	n/a	-1	37	Fixation	Win	True
359.173	0.27	Win2	0.5263	0.004	Yes	2.873	-0.004	2.0	GoodResponse	1	0.234	358.407	-1	37	Target	Win	True
359.407	0.3	Win2	0.5263	0.004	Yes	2.873	-0.004	2.0	GoodResponse	1	0.234	n/a	-1	37	ButtonPress	Win	True
359.457	0.43	Win2	0.5263	n/a	Yes	2.873	n/a	n/a	GoodResponse	1	n/a	n/a	-1	37	Blank	Win	True
359.875	1.45	Win2	0.5263	n/a	Yes	2.873	n/a	5.0	GoodResponse	1	0.048	358.923	-1	37	Feedback	Win	True
361.33	2.873	Win2	0.5263	n/a	Yes	2.873	n/a	n/a	GoodResponse	1	0.0	n/a	-1	37	ISIslide	Win	True
364.222	0.25	Lose2	0.5385	0.0	Yes	2.828	0.022	n/a	GoodResponse	0	n/a	n/a	-1	38	Cue	AvoidedLoss	True
364.472	3.95	Lose2	0.5385	0.0	Yes	2.828	0.0	n/a	GoodResponse	0	n/a	n/a	-1	38	Fixation	AvoidedLoss	True
368.434	0.28	Lose2	0.5385	0.0	Yes	2.828	0.012	2.0	GoodResponse	0	0.228	367.662	-1	38	Target	AvoidedLoss	True
368.662	0.3	Lose2	0.5385	0.0	Yes	2.828	0.012	2.0	GoodResponse	0	0.228	n/a	-1	38	ButtonPress	AvoidedLoss	True
368.702	0.42	Lose2	0.5385	n/a	Yes	2.828	n/a	n/a	GoodResponse	0	n/a	n/a	-1	38	Blank	AvoidedLoss	True
369.12	1.45	Lose2	0.5385	n/a	Yes	2.828	n/a	5.0	GoodResponse	0	0.023	368.143	-1	38	Feedback	AvoidedLoss	True
370.574	2.828	Lose2	0.5385	n/a	Yes	2.828	n/a	n/a	GoodResponse	0	0.0	n/a	-1	38	ISIslide	AvoidedLoss	True
373.416	0.25	Win2	0.55	0.0	Yes	2.984	0.016	n/a	GoodResponse	1	n/a	n/a	0	39	Cue	Win	True
373.667	4.1	Win2	0.55	0.0	Yes	2.984	0.001	n/a	GoodResponse	1	n/a	n/a	0	39	Fixation	Win	True
377.762	0.29	Win2	0.55	0.004	Yes	2.984	-0.004	2.0	GoodResponse	1	0.255	377.017	0	39	Target	Win	True
378.017	0.3	Win2	0.55	0.004	Yes	2.984	-0.004	2.0	GoodResponse	1	0.255	n/a	0	39	ButtonPress	Win	True
378.063	0.41	Win2	0.55	n/a	Yes	2.984	n/a	n/a	GoodResponse	1	n/a	n/a	0	39	Blank	Win	True
378.464	1.45	Win2	0.55	n/a	Yes	2.984	n/a	5.0	GoodResponse	1	0.044	377.508	0	39	Feedback	Win	True
379.919	2.984	Win2	0.55	n/a	Yes	2.984	n/a	n/a	GoodResponse	1	0.0	n/a	0	39	ISIslide	Win	True
382.928	0.25	Win2	0.561	0.0	Yes	2.722	0.028	n/a	GoodResponse	1	n/a	n/a	1	40	Cue	Win	True
383.178	3.95	Win2	0.561	0.0	Yes	2.722	0.0	n/a	GoodResponse	1	n/a	n/a	1	40	Fixation	Win	True
387.14	0.3	Win2	0.561	0.0	Yes	2.722	0.012	2.0	GoodResponse	1	0.281	386.421	1	40	Target	Win	True
387.421	0.3	Win2	0.561	0.0	Yes	2.722	0.012	2.0	GoodResponse	1	0.281	n/a	1	40	ButtonPress	Win	True
387.424	0.4	Win2	0.561	n/a	Yes	2.722	n/a	n/a	GoodResponse	1	n/a	n/a	1	40	Blank	Win	True
387.826	1.45	Win2	0.561	n/a	Yes	2.722	n/a	5.0	GoodResponse	1	0.0	386.826	1	40	Feedback	Win	True
389.28	2.722	Win2	0.561	n/a	Yes	2.722	n/a	n/a	GoodResponse	1	0.0	n/a	1	40	ISIslide	Win	True
392.021	0.25	Win2	0.5714	0.001	Yes	2.779	0.021	n/a	GoodResponse	1	n/a	n/a	2	41	Cue	Win	True
392.272	3.9	Win2	0.5714	0.0	Yes	2.779	0.001	n/a	GoodResponse	1	n/a	n/a	2	41	Fixation	Win	True
396.167	0.31	Win2	0.5714	0.004	Yes	2.779	-0.004	2.0	GoodResponse	1	0.246	395.413	2	41	Target	Win	True
396.413	0.3	Win2	0.5714	0.004	Yes	2.779	-0.004	2.0	GoodResponse	1	0.246	n/a	2	41	ButtonPress	Win	True
396.485	0.39	Win2	0.5714	n/a	Yes	2.779	n/a	n/a	GoodResponse	1	n/a	n/a	2	41	Blank	Win	True
396.869	1.45	Win2	0.5714	n/a	Yes	2.779	n/a	5.0	GoodResponse	1	0.03	395.899	2	41	Feedback	Win	True
398.324	2.779	Win2	0.5714	n/a	Yes	2.779	n/a	n/a	GoodResponse	1	0.0	n/a	2	41	ISIslide	Win	True
401.115	0.25	Control	0.5814	0.0	Yes	2.935	0.015	n/a	GoodResponse	0	n/a	n/a	2	42	Cue	Neutral	True
401.366	3.85	Control	0.5814	0.0	Yes	2.935	0.001	n/a	GoodResponse	0	n/a	n/a	2	42	Fixation	Neutral	True
405.211	0.32	Control	0.5814	0.004	Yes	2.935	-0.004	2.0	GoodResponse	0	0.23	404.441	2	42	Target	Neutral	True
405.441	0.3	Control	0.5814	0.004	Yes	2.935	-0.004	2.0	GoodResponse	0	0.23	n/a	2	42	ButtonPress	Neutral	True
405.545	0.38	Control	0.5814	n/a	Yes	2.935	n/a	n/a	GoodResponse	0	n/a	n/a	2	42	Blank	Neutral	True
405.913	1.45	Control	0.5814	n/a	Yes	2.935	n/a	5.0	GoodResponse	0	0.009	404.922	2	42	Feedback	Neutral	True
407.367	2.935	Control	0.5814	n/a	Yes	2.935	n/a	n/a	GoodResponse	0	0.0	n/a	2	42	ISIslide	Neutral	True
410.326	0.25	Win2	0.5909	0.0	Yes	3.174	0.026	n/a	GoodResponse	1	n/a	n/a	3	43	Cue	Win	True
410.577	4.0	Win2	0.5909	0.0	Yes	3.174	0.001	n/a	GoodResponse	1	n/a	n/a	3	43	Fixation	Win	True
414.572	0.33	Win2	0.5909	0.004	Yes	3.174	-0.004	2.0	GoodResponse	1	0.231	413.803	3	43	Target	Win	True
414.803	0.3	Win2	0.5909	0.004	Yes	3.174	-0.004	2.0	GoodResponse	1	0.231	n/a	3	43	ButtonPress	Win	True
414.907	0.37	Win2	0.5909	n/a	Yes	3.174	n/a	n/a	GoodResponse	1	n/a	n/a	3	43	Blank	Win	True
415.274	1.45	Win2	0.5909	n/a	Yes	3.174	n/a	5.0	GoodResponse	1	0.014	414.288	3	43	Feedback	Win	True
416.729	3.174	Win2	0.5909	n/a	Yes	3.174	n/a	n/a	GoodResponse	1	0.0	n/a	3	43	ISIslide	Win	True
419.922	0.25	Win2	0.6	0.0	Yes	2.978	0.022	n/a	GoodResponse	1	n/a	n/a	4	44	Cue	Win	True
420.172	4.0	Win2	0.6	0.0	Yes	2.978	0.0	n/a	GoodResponse	1	n/a	n/a	4	44	Fixation	Win	True
424.168	0.34	Win2	0.6	0.004	Yes	2.978	-0.004	2.0	GoodResponse	1	0.234	423.402	4	44	Target	Win	True
424.402	0.3	Win2	0.6	0.004	Yes	2.978	-0.004	2.0	GoodResponse	1	0.234	n/a	4	44	ButtonPress	Win	True
424.519	0.36	Win2	0.6	n/a	Yes	2.978	n/a	n/a	GoodResponse	1	n/a	n/a	4	44	Blank	Win	True
424.87	1.45	Win2	0.6	n/a	Yes	2.978	n/a	5.0	GoodResponse	1	0.028	423.898	4	44	Feedback	Win	True
426.324	2.978	Win2	0.6	n/a	Yes	2.978	n/a	n/a	GoodResponse	1	0.0	n/a	4	44	ISIslide	Win	True
429.316	0.25	Control	0.6087	0.001	Yes	2.884	0.016	n/a	GoodResponse	0	n/a	n/a	4	45	Cue	Neutral	True
429.567	4.1	Control	0.6087	0.0	Yes	2.884	0.001	n/a	GoodResponse	0	n/a	n/a	4	45	Fixation	Neutral	True
433.663	0.35	Control	0.6087	0.003	Yes	2.884	-0.003	2.0	GoodResponse	0	0.272	432.935	4	45	Target	Neutral	True
433.935	0.3	Control	0.6087	0.003	Yes	2.884	-0.003	2.0	GoodResponse	0	0.272	n/a	4	45	ButtonPress	Neutral	True
434.014	0.35	Control	0.6087	n/a	Yes	2.884	n/a	n/a	GoodResponse	0	n/a	n/a	4	45	Blank	Neutral	True
434.365	1.45	Control	0.6087	n/a	Yes	2.884	n/a	5.0	GoodResponse	0	0.046	433.411	4	45	Feedback	Neutral	True
435.819	2.884	Control	0.6087	n/a	Yes	2.884	n/a	n/a	GoodResponse	0	0.0	n/a	4	45	ISIslide	Neutral	True
438.728	0.25	Lose2	0.617	0.0	Yes	3.372	0.028	n/a	GoodResponse	0	n/a	n/a	4	46	Cue	AvoidedLoss	True
438.979	4.0	Lose2	0.617	0.0	Yes	3.372	0.001	n/a	GoodResponse	0	n/a	n/a	4	46	Fixation	AvoidedLoss	True
442.974	0.36	Lose2	0.617	0.004	Yes	3.372	-0.004	2.0	GoodResponse	0	0.231	442.205	4	46	Target	AvoidedLoss	True
443.205	0.3	Lose2	0.617	0.004	Yes	3.372	-0.004	2.0	GoodResponse	0	0.231	n/a	4	46	ButtonPress	AvoidedLoss	True
443.342	0.34	Lose2	0.617	n/a	Yes	3.372	n/a	n/a	GoodResponse	0	n/a	n/a	4	46	Blank	AvoidedLoss	True
443.676	1.45	Lose2	0.617	n/a	Yes	3.372	n/a	5.0	GoodResponse	0	0.005	442.681	4	46	Feedback	AvoidedLoss	True
445.13	3.372	Lose2	0.617	n/a	Yes	3.372	n/a	n/a	GoodResponse	0	0.0	n/a	4	46	ISIslide	AvoidedLoss	True
448.524	0.25	Lose2	0.625	0.0	Yes	2.676	0.024	n/a	GoodResponse	0	n/a	n/a	4	47	Cue	AvoidedLoss	True
448.775	4.0	Lose2	0.625	0.0	Yes	2.676	0.001	n/a	GoodResponse	0	n/a	n/a	4	47	Fixation	AvoidedLoss	True
452.77	0.37	Lose2	0.625	0.004	Yes	2.676	-0.004	2.0	GoodResponse	0	0.309	452.079	4	47	Target	AvoidedLoss	True
453.079	0.3	Lose2	0.625	0.004	Yes	2.676	-0.004	2.0	GoodResponse	0	0.309	n/a	4	47	ButtonPress	AvoidedLoss	True
453.154	0.33	Lose2	0.625	n/a	Yes	2.676	n/a	n/a	GoodResponse	0	n/a	n/a	4	47	Blank	AvoidedLoss	True
453.472	1.45	Lose2	0.625	n/a	Yes	2.676	n/a	5.0	GoodResponse	0	0.011	452.483	4	47	Feedback	AvoidedLoss	True
454.926	2.676	Lose2	0.625	n/a	Yes	2.676	n/a	n/a	GoodResponse	0	0.0	n/a	4	47	ISIslide	AvoidedLoss	True
457.618	0.25	Lose2	0.6327	0.0	Yes	3.032	0.018	n/a	GoodResponse	0	n/a	n/a	4	48	Cue	AvoidedLoss	True
457.869	3.95	Lose2	0.6327	0.0	Yes	3.032	0.001	n/a	GoodResponse	0	n/a	n/a	4	48	Fixation	AvoidedLoss	True
461.814	0.38	Lose2	0.6327	0.004	Yes	3.032	-0.004	2.0	GoodResponse	0	0.236	461.05	4	48	Target	AvoidedLoss	True
462.05	0.3	Lose2	0.6327	0.004	Yes	3.032	-0.004	2.0	GoodResponse	0	0.236	n/a	4	48	ButtonPress	AvoidedLoss	True
462.198	0.32	Lose2	0.6327	n/a	Yes	3.032	n/a	n/a	GoodResponse	0	n/a	n/a	4	48	Blank	AvoidedLoss	True
462.516	1.45	Lose2	0.6327	n/a	Yes	3.032	n/a	5.0	GoodResponse	0	0.04	461.556	4	48	Feedback	AvoidedLoss	True
463.97	3.032	Lose2	0.6327	n/a	Yes	3.032	n/a	n/a	GoodResponse	0	0.0	n/a	4	48	ISIslide	AvoidedLoss	True
467.013	0.25	Control	0.64	0.0	Yes	2.887	0.013	n/a	GoodResponse	0	n/a	n/a	4	49	Cue	Neutral	True
467.263	4.0	Control	0.64	0.0	Yes	2.887	0.0	n/a	GoodResponse	0	n/a	n/a	4	49	Fixation	Neutral	True
471.259	0.39	Control	0.64	0.004	Yes	2.887	-0.004	2.0	GoodResponse	0	0.227	470.486	4	49	Target	Neutral	True
471.486	0.3	Control	0.64	0.004	Yes	2.887	-0.004	2.0	GoodResponse	0	0.227	n/a	4	49	ButtonPress	Neutral	True
471.66	0.31	Control	0.64	n/a	Yes	2.887	n/a	n/a	GoodResponse	0	n/a	n/a	4	49	Blank	Neutral	True
471.961	1.45	Control	0.64	n/a	Yes	2.887	n/a	5.0	GoodResponse	0	0.01	470.971	4	49	Feedback	Neutral	True
473.415	2.887	Control	0.64	n/a	Yes	2.887	n/a	n/a	GoodResponse	0	0.0	n/a	4	49	ISIslide	Neutral	True
476.324	0.25	Control	0.6470999999999999	0.0	Yes	2.776	0.024	n/a	GoodResponse	0	n/a	n/a	4	50	Cue	Neutral	True
476.575	4.0	Control	0.6470999999999999	0.0	Yes	2.776	0.001	n/a	GoodResponse	0	n/a	n/a	4	50	Fixation	Neutral	True
480.57	0.4	Control	0.6470999999999999	0.004	Yes	2.776	-0.004	2.0	GoodResponse	0	0.208	479.778	4	50	Target	Neutral	True
480.778	0.3	Control	0.6470999999999999	0.004	Yes	2.776	-0.004	2.0	GoodResponse	0	0.208	n/a	4	50	ButtonPress	Neutral	True
480.971	0.3	Control	0.6470999999999999	n/a	Yes	2.776	n/a	n/a	GoodResponse	0	n/a	n/a	4	50	Blank	Neutral	True
481.272	1.45	Control	0.6470999999999999	n/a	Yes	2.776	n/a	5.0	GoodResponse	0	0.016	480.288	4	50	Feedback	Neutral	True
482.726	2.776	Control	0.6470999999999999	n/a	Yes	2.776	n/a	n/a	GoodResponse	0	0.0	n/a	4	50	ISIslide	Neutral	True
485.518	0.25	Control	0.6537999999999999	0.0	Yes	2.732	0.018	n/a	GoodResponse	0	n/a	n/a	4	51	Cue	Neutral	True
485.769	3.95	Control	0.6537999999999999	0.0	Yes	2.732	0.001	n/a	GoodResponse	0	n/a	n/a	4	51	Fixation	Neutral	True
489.714	0.41	Control	0.6537999999999999	0.004	Yes	2.732	-0.004	2.0	GoodResponse	0	0.236	488.95	4	51	Target	Neutral	True
489.95	0.3	Control	0.6537999999999999	0.004	Yes	2.732	-0.004	2.0	GoodResponse	0	0.236	n/a	4	51	ButtonPress	Neutral	True
490.132	0.29	Control	0.6537999999999999	n/a	Yes	2.732	n/a	n/a	GoodResponse	0	n/a	n/a	4	51	Blank	Neutral	True
490.416	1.45	Control	0.6537999999999999	n/a	Yes	2.732	n/a	5.0	GoodResponse	0	0.043	489.459	4	51	Feedback	Neutral	True
491.87	2.732	Control	0.6537999999999999	n/a	Yes	2.732	n/a	n/a	GoodResponse	0	0.0	n/a	4	51	ISIslide	Neutral	True
494.629	0.25	Control	0.6604000000000001	0.0	Yes	2.621	0.029	n/a	GoodResponse	0	n/a	n/a	4	52	Cue	Neutral	True
494.879	4.05	Control	0.6604000000000001	0.0	Yes	2.621	0.0	n/a	GoodResponse	0	n/a	n/a	4	52	Fixation	Neutral	True
498.925	0.42	Control	0.6604000000000001	0.004	Yes	2.621	-0.004	2.0	GoodResponse	0	0.244	498.169	4	52	Target	Neutral	True
499.169	0.3	Control	0.6604000000000001	0.004	Yes	2.621	-0.004	2.0	GoodResponse	0	0.244	n/a	4	52	ButtonPress	Neutral	True
499.359	0.28	Control	0.6604000000000001	n/a	Yes	2.621	n/a	n/a	GoodResponse	0	n/a	n/a	4	52	Blank	Neutral	True
499.627	1.45	Control	0.6604000000000001	n/a	Yes	2.621	n/a	5.0	GoodResponse	0	0.005	498.632	4	52	Feedback	Neutral	True
501.081	2.621	Control	0.6604000000000001	n/a	Yes	2.621	n/a	n/a	GoodResponse	0	0.0	n/a	4	52	ISIslide	Neutral	True
503.722	0.25	Win2	0.6667000000000001	0.001	Yes	2.928	0.022	n/a	GoodResponse	1	n/a	n/a	5	53	Cue	Win	True
503.973	4.05	Win2	0.6667000000000001	0.0	Yes	2.928	0.001	n/a	GoodResponse	1	n/a	n/a	5	53	Fixation	Win	True
508.019	0.42	Win2	0.6667000000000001	0.003	Yes	2.928	-0.003	2.0	GoodResponse	1	0.221	507.24	5	53	Target	Win	True
508.24	0.3	Win2	0.6667000000000001	0.003	Yes	2.928	-0.003	2.0	GoodResponse	1	0.221	n/a	5	53	ButtonPress	Win	True
508.453	0.28	Win2	0.6667000000000001	n/a	Yes	2.928	n/a	n/a	GoodResponse	1	n/a	n/a	5	53	Blank	Win	True
508.721	1.45	Win2	0.6667000000000001	n/a	Yes	2.928	n/a	5.0	GoodResponse	1	0.03	507.751	5	53	Feedback	Win	True
510.175	2.928	Win2	0.6667000000000001	n/a	Yes	2.928	n/a	n/a	GoodResponse	1	0.0	n/a	5	53	ISIslide	Win	True
513.117	0.25	Win2	0.6727	0.0	Yes	2.733	0.017	n/a	GoodResponse	1	n/a	n/a	6	54	Cue	Win	True
513.368	3.95	Win2	0.6727	0.0	Yes	2.733	0.001	n/a	GoodResponse	1	n/a	n/a	6	54	Fixation	Win	True
517.313	0.41	Win2	0.6727	0.004	Yes	2.733	-0.004	2.0	GoodResponse	1	0.213	516.526	6	54	Target	Win	True
517.526	0.3	Win2	0.6727	0.004	Yes	2.733	-0.004	2.0	GoodResponse	1	0.213	n/a	6	54	ButtonPress	Win	True
517.731	0.29	Win2	0.6727	n/a	Yes	2.733	n/a	n/a	GoodResponse	1	n/a	n/a	6	54	Blank	Win	True
518.015	1.45	Win2	0.6727	n/a	Yes	2.733	n/a	5.0	GoodResponse	1	0.004	517.019	6	54	Feedback	Win	True
519.47	2.733	Win2	0.6727	n/a	Yes	2.733	n/a	n/a	GoodResponse	1	0.0	n/a	6	54	ISIslide	Win	True
522.228	0.25	Control	0.6786	0.0	Yes	3.022	0.028	n/a	GoodResponse	0	n/a	n/a	6	55	Cue	Neutral	True
522.479	3.95	Control	0.6786	0.0	Yes	3.022	0.001	n/a	GoodResponse	0	n/a	n/a	6	55	Fixation	Neutral	True
526.424	0.4	Control	0.6786	0.004	Yes	3.022	-0.004	2.0	GoodResponse	0	0.233	525.657	6	55	Target	Neutral	True
526.657	0.3	Control	0.6786	0.004	Yes	3.022	-0.004	2.0	GoodResponse	0	0.233	n/a	6	55	ButtonPress	Neutral	True
526.825	0.3	Control	0.6786	n/a	Yes	3.022	n/a	n/a	GoodResponse	0	n/a	n/a	6	55	Blank	Neutral	True
527.126	1.45	Control	0.6786	n/a	Yes	3.022	n/a	5.0	GoodResponse	0	0.015	526.141	6	55	Feedback	Neutral	True
528.58	3.022	Control	0.6786	n/a	Yes	3.022	n/a	n/a	GoodResponse	0	0.0	n/a	6	55	ISIslide	Neutral	True
531.623	0.25	Control	0.6842	0.0	Yes	2.827	0.023	n/a	GoodResponse	0	n/a	n/a	6	56	Cue	Neutral	True
531.873	3.95	Control	0.6842	0.001	Yes	2.827	0.0	n/a	GoodResponse	0	n/a	n/a	6	56	Fixation	Neutral	True
535.819	0.39	Control	0.6842	0.004	Yes	2.827	-0.004	2.0	GoodResponse	0	0.237	535.056	6	56	Target	Neutral	True
536.056	0.3	Control	0.6842	0.004	Yes	2.827	-0.004	2.0	GoodResponse	0	0.237	n/a	6	56	ButtonPress	Neutral	True
536.22	0.31	Control	0.6842	n/a	Yes	2.827	n/a	n/a	GoodResponse	0	n/a	n/a	6	56	Blank	Neutral	True
536.521	1.45	Control	0.6842	n/a	Yes	2.827	n/a	5.0	GoodResponse	0	0.035	535.556	6	56	Feedback	Neutral	True
537.975	2.827	Control	0.6842	n/a	Yes	2.827	n/a	n/a	GoodResponse	0	0.0	n/a	6	56	ISIslide	Neutral	True
540.817	0.25	Control	0.6897	0.0	Yes	3.483	0.017	n/a	GoodResponse	0	n/a	n/a	6	57	Cue	Neutral	True
541.068	4.0	Control	0.6897	0.0	Yes	3.483	0.001	n/a	GoodResponse	0	n/a	n/a	6	57	Fixation	Neutral	True
545.063	0.38	Control	0.6897	0.004	Yes	3.483	-0.004	2.0	GoodResponse	0	0.334	544.397	6	57	Target	Neutral	True
545.397	0.3	Control	0.6897	0.004	Yes	3.483	-0.004	2.0	GoodResponse	0	0.334	n/a	6	57	ButtonPress	Neutral	True
545.447	0.32	Control	0.6897	n/a	Yes	3.483	n/a	n/a	GoodResponse	0	n/a	n/a	6	57	Blank	Neutral	True
545.765	1.45	Control	0.6897	n/a	Yes	3.483	n/a	5.0	GoodResponse	0	0.011	544.776	6	57	Feedback	Neutral	True
547.219	3.483	Control	0.6897	n/a	Yes	3.483	n/a	n/a	GoodResponse	0	0.0	n/a	6	57	ISIslide	Neutral	True
550.73	0.25	Win2	0.6949	0.0	Yes	2.72	0.03	n/a	GoodResponse	1	n/a	n/a	7	58	Cue	Win	True
550.981	4.05	Win2	0.6949	0.0	Yes	2.72	0.001	n/a	GoodResponse	1	n/a	n/a	7	58	Fixation	Win	True
555.026	0.37	Win2	0.6949	0.004	Yes	2.72	-0.004	2.0	GoodResponse	1	0.215	554.241	7	58	Target	Win	True
555.241	0.3	Win2	0.6949	0.004	Yes	2.72	-0.004	2.0	GoodResponse	1	0.215	n/a	7	58	ButtonPress	Win	True
555.411	0.33	Win2	0.6949	n/a	Yes	2.72	n/a	n/a	GoodResponse	1	n/a	n/a	7	58	Blank	Win	True
555.728	1.45	Win2	0.6949	n/a	Yes	2.72	n/a	5.0	GoodResponse	1	0.047	554.775	7	58	Feedback	Win	True
557.183	2.72	Win2	0.6949	n/a	Yes	2.72	n/a	n/a	GoodResponse	1	0.0	n/a	7	58	ISIslide	Win	True
559.924	0.25	Lose2	0.7	0.0	Yes	2.676	0.024	n/a	GoodResponse	0	n/a	n/a	7	59	Cue	AvoidedLoss	True
560.175	4.0	Lose2	0.7	0.0	Yes	2.676	0.001	n/a	GoodResponse	0	n/a	n/a	7	59	Fixation	AvoidedLoss	True
564.17	0.36	Lose2	0.7	0.004	Yes	2.676	-0.004	2.0	GoodResponse	0	0.233	563.403	7	59	Target	AvoidedLoss	True
564.403	0.3	Lose2	0.7	0.004	Yes	2.676	-0.004	2.0	GoodResponse	0	0.233	n/a	7	59	ButtonPress	AvoidedLoss	True
564.538	0.34	Lose2	0.7	n/a	Yes	2.676	n/a	n/a	GoodResponse	0	n/a	n/a	7	59	Blank	AvoidedLoss	True
564.872	1.45	Lose2	0.7	n/a	Yes	2.676	n/a	5.0	GoodResponse	0	0.025	563.897	7	59	Feedback	AvoidedLoss	True
566.327	2.676	Lose2	0.7	n/a	Yes	2.676	n/a	n/a	GoodResponse	0	0.0	n/a	7	59	ISIslide	AvoidedLoss	True
569.018	0.25	Control	0.7049	0.0	Yes	2.682	0.018	n/a	GoodResponse	0	n/a	n/a	7	60	Cue	Neutral	True
569.269	4.0	Control	0.7049	0.0	Yes	2.682	0.001	n/a	GoodResponse	0	n/a	n/a	7	60	Fixation	Neutral	True
573.264	0.35	Control	0.7049	0.004	Yes	2.682	-0.004	2.0	GoodResponse	0	0.195	572.459	7	60	Target	Neutral	True
573.459	0.3	Control	0.7049	0.004	Yes	2.682	-0.004	2.0	GoodResponse	0	0.195	n/a	7	60	ButtonPress	Neutral	True
573.615	0.35	Control	0.7049	n/a	Yes	2.682	n/a	n/a	GoodResponse	0	n/a	n/a	7	60	Blank	Neutral	True
573.966	1.45	Control	0.7049	n/a	Yes	2.682	n/a	5.0	GoodResponse	0	0.005	572.971	7	60	Feedback	Neutral	True
575.42	2.682	Control	0.7049	n/a	Yes	2.682	n/a	n/a	GoodResponse	0	0.0	n/a	7	60	ISIslide	Neutral	True
578.129	0.25	Lose2	0.7097	0.0	Yes	2.971	0.029	n/a	GoodResponse	0	n/a	n/a	7	61	Cue	AvoidedLoss	True
578.379	4.0	Lose2	0.7097	0.0	Yes	2.971	0.0	n/a	GoodResponse	0	n/a	n/a	7	61	Fixation	AvoidedLoss	True
582.375	0.34	Lose2	0.7097	0.004	Yes	2.971	-0.004	2.0	GoodResponse	0	0.226	581.601	7	61	Target	AvoidedLoss	True
582.601	0.3	Lose2	0.7097	0.004	Yes	2.971	-0.004	2.0	GoodResponse	0	0.226	n/a	7	61	ButtonPress	AvoidedLoss	True
582.726	0.36	Lose2	0.7097	n/a	Yes	2.971	n/a	n/a	GoodResponse	0	n/a	n/a	7	61	Blank	AvoidedLoss	True
583.077	1.45	Lose2	0.7097	n/a	Yes	2.971	n/a	5.0	GoodResponse	0	0.015	582.092	7	61	Feedback	AvoidedLoss	True
584.531	2.971	Lose2	0.7097	n/a	Yes	2.971	n/a	n/a	GoodResponse	0	0.0	n/a	7	61	ISIslide	AvoidedLoss	True
587.523	0.25	Lose2	0.6984	0.0	No	2.877	0.023	n/a	NoResponse	-1	n/a	n/a	6	62	Cue	Loss	True
587.774	3.9	Lose2	0.6984	0.0	No	2.877	0.001	n/a	NoResponse	-1	n/a	n/a	6	62	Fixation	Loss	True
591.669	0.33	Lose2	0.6984	0.004	No	2.877	-0.004	2.0	NoResponse	-1	0.346	591.015	6	62	Target	Loss	True
592.003	0.37	Lose2	0.6984	n/a	No	2.877	n/a	n/a	NoResponse	-1	n/a	n/a	6	62	Blank	Loss	True
592.015	0.3	Lose2	0.6984	0.004	No	2.877	-0.004	2.0	NoResponse	-1	0.346	n/a	6	62	ButtonPress	Loss	True
592.371	1.45	Lose2	0.6984	n/a	No	2.877	n/a	5.0	NoResponse	-1	0.038	591.409	6	62	Feedback	Loss	True
593.826	2.877	Lose2	0.6984	n/a	No	2.877	n/a	n/a	NoResponse	-1	0.0	n/a	6	62	ISIslide	Loss	True
596.718	0.25	Lose2	0.7031000000000001	0.0	Yes	2.632	0.018	n/a	GoodResponse	0	n/a	n/a	6	63	Cue	AvoidedLoss	True
596.968	4.05	Lose2	0.7031000000000001	0.0	Yes	2.632	0.0	n/a	GoodResponse	0	n/a	n/a	6	63	Fixation	AvoidedLoss	True
601.014	0.32	Lose2	0.7031000000000001	0.004	Yes	2.632	-0.004	2.0	GoodResponse	0	0.192	600.206	6	63	Target	AvoidedLoss	True
601.206	0.3	Lose2	0.7031000000000001	0.004	Yes	2.632	-0.004	2.0	GoodResponse	0	0.192	n/a	6	63	ButtonPress	AvoidedLoss	True
601.348	0.38	Lose2	0.7031000000000001	n/a	Yes	2.632	n/a	n/a	GoodResponse	0	n/a	n/a	6	63	Blank	AvoidedLoss	True
601.716	1.45	Lose2	0.7031000000000001	n/a	Yes	2.632	n/a	5.0	GoodResponse	0	0.01	600.726	6	63	Feedback	AvoidedLoss	True
603.17	2.632	Lose2	0.7031000000000001	n/a	Yes	2.632	n/a	n/a	GoodResponse	0	0.0	n/a	6	63	ISIslide	AvoidedLoss	True
605.828	0.25	Win2	0.7077	0.0	Yes	3.122	0.028	n/a	GoodResponse	1	n/a	n/a	7	64	Cue	Win	True
606.079	4.15	Win2	0.7077	0.0	Yes	3.122	0.001	n/a	GoodResponse	1	n/a	n/a	7	64	Fixation	Win	True
610.225	0.31	Win2	0.7077	0.003	Yes	3.122	-0.003	2.0	GoodResponse	1	0.209	609.434	7	64	Target	Win	True
610.434	0.3	Win2	0.7077	0.003	Yes	3.122	-0.003	2.0	GoodResponse	1	0.209	n/a	7	64	ButtonPress	Win	True
610.542	0.39	Win2	0.7077	n/a	Yes	3.122	n/a	n/a	GoodResponse	1	n/a	n/a	7	64	Blank	Win	True
610.927	1.45	Win2	0.7077	n/a	Yes	3.122	n/a	5.0	GoodResponse	1	0.018	609.945	7	64	Feedback	Win	True
612.381	3.122	Win2	0.7077	n/a	Yes	3.122	n/a	n/a	GoodResponse	1	0.0	n/a	7	64	ISIslide	Win	True
615.524	0.25	Control	0.6970000000000001	0.0	No	2.776	0.024	n/a	PrematurePress	0	n/a	n/a	7	65	Cue	Neutral	True
615.775	4.0	Control	0.6970000000000001	0.0	No	2.776	0.001	n/a	PrematurePress	0	n/a	n/a	7	65	Fixation	Neutral	True
619.77	0.3	Control	0.6970000000000001	0.004	No	2.776	-0.004	2.0	PrematurePress	0	0.068	618.838	7	65	Target	Neutral	True
619.838	0.3	Control	0.6970000000000001	0.004	No	2.776	-0.004	2.0	PrematurePress	0	0.068	n/a	7	65	ButtonPress	Neutral	True
620.071	0.4	Control	0.6970000000000001	n/a	No	2.776	n/a	n/a	PrematurePress	0	n/a	n/a	7	65	Blank	Neutral	True
620.472	1.45	Control	0.6970000000000001	n/a	No	2.776	n/a	5.0	PrematurePress	0	0.034	619.506	7	65	Feedback	Neutral	True
621.926	2.776	Control	0.6970000000000001	n/a	No	2.776	n/a	n/a	PrematurePress	0	0.0	n/a	7	65	ISIslide	Neutral	True
624.718	0.25	Win2	0.7015	0.0	Yes	2.782	0.018	n/a	GoodResponse	1	n/a	n/a	8	66	Cue	Win	True
624.969	3.9	Win2	0.7015	0.0	Yes	2.782	0.001	n/a	GoodResponse	1	n/a	n/a	8	66	Fixation	Win	True
628.864	0.29	Win2	0.7015	0.004	Yes	2.782	-0.004	2.0	GoodResponse	1	0.287	628.151	8	66	Target	Win	True
629.151	0.3	Win2	0.7015	0.004	Yes	2.782	-0.004	2.0	GoodResponse	1	0.287	n/a	8	66	ButtonPress	Win	True
629.165	0.41	Win2	0.7015	n/a	Yes	2.782	n/a	n/a	GoodResponse	1	n/a	n/a	8	66	Blank	Win	True
629.566	1.45	Win2	0.7015	n/a	Yes	2.782	n/a	5.0	GoodResponse	1	0.013	628.579	8	66	Feedback	Win	True
631.02	2.782	Win2	0.7015	n/a	Yes	2.782	n/a	n/a	GoodResponse	1	0.0	n/a	8	66	ISIslide	Win	True
633.829	0.25	Control	0.7059000000000001	0.0	Yes	2.721	0.029	n/a	GoodResponse	0	n/a	n/a	8	67	Cue	Neutral	True
634.079	3.95	Control	0.7059000000000001	0.0	Yes	2.721	0.0	n/a	GoodResponse	0	n/a	n/a	8	67	Fixation	Neutral	True
638.041	0.28	Control	0.7059000000000001	0.0	Yes	2.721	0.012	2.0	GoodResponse	0	0.221	637.262	8	67	Target	Neutral	True
638.262	0.3	Control	0.7059000000000001	0.0	Yes	2.721	0.012	2.0	GoodResponse	0	0.221	n/a	8	67	ButtonPress	Neutral	True
638.309	0.42	Control	0.7059000000000001	n/a	Yes	2.721	n/a	n/a	GoodResponse	0	n/a	n/a	8	67	Blank	Neutral	True
638.727	1.45	Control	0.7059000000000001	n/a	Yes	2.721	n/a	5.0	GoodResponse	0	0.023	637.75	8	67	Feedback	Neutral	True
640.181	2.721	Control	0.7059000000000001	n/a	Yes	2.721	n/a	n/a	GoodResponse	0	0.0	n/a	8	67	ISIslide	Neutral	True
642.922	0.25	Win2	0.7101000000000001	0.001	Yes	3.078	0.022	n/a	GoodResponse	1	n/a	n/a	9	68	Cue	Win	True
643.173	4.0	Win2	0.7101000000000001	0.0	Yes	3.078	0.001	n/a	GoodResponse	1	n/a	n/a	9	68	Fixation	Win	True
647.169	0.27	Win2	0.7101000000000001	0.003	Yes	3.078	-0.003	2.0	GoodResponse	1	0.232	646.401	9	68	Target	Win	True
647.401	0.3	Win2	0.7101000000000001	0.003	Yes	3.078	-0.003	2.0	GoodResponse	1	0.232	n/a	9	68	ButtonPress	Win	True
647.453	0.43	Win2	0.7101000000000001	n/a	Yes	3.078	n/a	n/a	GoodResponse	1	n/a	n/a	9	68	Blank	Win	True
647.871	1.45	Win2	0.7101000000000001	n/a	Yes	3.078	n/a	5.0	GoodResponse	1	0.001	646.872	9	68	Feedback	Win	True
649.325	3.078	Win2	0.7101000000000001	n/a	Yes	3.078	n/a	n/a	GoodResponse	1	0.0	n/a	9	68	ISIslide	Win	True
652.418	0.25	Win2	0.7143	0.0	Yes	3.232	0.018	n/a	GoodResponse	1	n/a	n/a	10	69	Cue	Win	True
652.668	3.95	Win2	0.7143	0.0	Yes	3.232	0.0	n/a	GoodResponse	1	n/a	n/a	10	69	Fixation	Win	True
656.63	0.26	Win2	0.7143	0.0	Yes	3.232	0.012	2.0	GoodResponse	1	0.224	655.854	10	69	Target	Win	True
656.854	0.3	Win2	0.7143	0.0	Yes	3.232	0.012	2.0	GoodResponse	1	0.224	n/a	10	69	ButtonPress	Win	True
656.881	0.44	Win2	0.7143	n/a	Yes	3.232	n/a	n/a	GoodResponse	1	n/a	n/a	10	69	Blank	Win	True
657.316	1.45	Win2	0.7143	n/a	Yes	3.232	n/a	5.0	GoodResponse	1	0.019	656.335	10	69	Feedback	Win	True
658.77	3.232	Win2	0.7143	n/a	Yes	3.232	n/a	n/a	GoodResponse	1	0.0	n/a	10	69	ISIslide	Win	True
662.03	0.25	Lose2	0.7182999999999999	0.0	Yes	3.02	0.03	n/a	GoodResponse	0	n/a	n/a	10	70	Cue	AvoidedLoss	True
662.28	4.05	Lose2	0.7182999999999999	0.001	Yes	3.02	0.0	n/a	GoodResponse	0	n/a	n/a	10	70	Fixation	AvoidedLoss	True
666.326	0.25	Lose2	0.7182999999999999	0.004	Yes	3.02	-0.004	2.0	GoodResponse	0	0.223	665.549	10	70	Target	AvoidedLoss	True
666.549	0.3	Lose2	0.7182999999999999	0.004	Yes	3.02	-0.004	2.0	GoodResponse	0	0.223	n/a	10	70	ButtonPress	AvoidedLoss	True
666.577	0.45	Lose2	0.7182999999999999	n/a	Yes	3.02	n/a	n/a	GoodResponse	0	n/a	n/a	10	70	Blank	AvoidedLoss	True
667.028	1.45	Lose2	0.7182999999999999	n/a	Yes	3.02	n/a	5.0	GoodResponse	0	0.014	666.042	10	70	Feedback	AvoidedLoss	True
668.482	3.02	Lose2	0.7182999999999999	n/a	Yes	3.02	n/a	n/a	GoodResponse	0	0.0	n/a	10	70	ISIslide	AvoidedLoss	True
671.525	0.25	Win2	0.7082999999999999	0.0	No	2.725	0.025	n/a	NoResponse	0	n/a	n/a	10	71	Cue	MissedWin	True
671.776	4.05	Win2	0.7082999999999999	0.0	No	2.725	0.001	n/a	NoResponse	0	n/a	n/a	10	71	Fixation	MissedWin	True
675.821	0.24	Win2	0.7082999999999999	0.004	No	2.725	-0.004	2.0	NoResponse	0	0.312	675.133	10	71	Target	MissedWin	True
676.072	0.46	Win2	0.7082999999999999	n/a	No	2.725	n/a	n/a	NoResponse	0	n/a	n/a	10	71	Blank	MissedWin	True
676.133	0.3	Win2	0.7082999999999999	0.004	No	2.725	-0.004	2.0	NoResponse	0	0.312	n/a	10	71	ButtonPress	MissedWin	True
676.523	1.45	Win2	0.7082999999999999	n/a	No	2.725	n/a	5.0	NoResponse	0	0.031	675.554	10	71	Feedback	MissedWin	True
677.977	2.725	Win2	0.7082999999999999	n/a	No	2.725	n/a	n/a	NoResponse	0	0.0	n/a	10	71	ISIslide	MissedWin	True
680.719	0.25	Win2	0.7123	0.0	Yes	2.781	0.019	n/a	GoodResponse	1	n/a	n/a	11	72	Cue	Win	True
680.97	4.1	Win2	0.7123	0.0	Yes	2.781	0.001	n/a	GoodResponse	1	n/a	n/a	11	72	Fixation	Win	True
685.065	0.23	Win2	0.7123	0.004	Yes	2.781	-0.004	2.0	GoodResponse	1	0.222	684.287	11	72	Target	Win	True
685.287	0.3	Win2	0.7123	0.004	Yes	2.781	-0.004	2.0	GoodResponse	1	0.222	n/a	11	72	ButtonPress	Win	True
685.299	0.47	Win2	0.7123	n/a	Yes	2.781	n/a	n/a	GoodResponse	1	n/a	n/a	11	72	Blank	Win	True
685.767	1.45	Win2	0.7123	n/a	Yes	2.781	n/a	5.0	GoodResponse	1	0.007	684.774	11	72	Feedback	Win	True
687.222	2.781	Win2	0.7123	n/a	Yes	2.781	n/a	n/a	GoodResponse	1	0.0	n/a	11	72	ISIslide	Win	True
690.013	0.25	Win2	0.7162000000000001	0.001	Yes	2.687	0.013	n/a	GoodResponse	1	n/a	n/a	12	73	Cue	Win	True
690.264	4.0	Win2	0.7162000000000001	0.0	Yes	2.687	0.001	n/a	GoodResponse	1	n/a	n/a	12	73	Fixation	Win	True
694.259	0.22	Win2	0.7162000000000001	0.004	Yes	2.687	-0.004	2.0	GoodResponse	1	0.199	693.458	12	73	Target	Win	True
694.458	0.3	Win2	0.7162000000000001	0.004	Yes	2.687	-0.004	2.0	GoodResponse	1	0.199	n/a	12	73	ButtonPress	Win	True
694.494	0.48	Win2	0.7162000000000001	n/a	Yes	2.687	n/a	n/a	GoodResponse	1	n/a	n/a	12	73	Blank	Win	True
694.962	1.45	Win2	0.7162000000000001	n/a	Yes	2.687	n/a	5.0	GoodResponse	1	0.032	693.994	12	73	Feedback	Win	True
696.416	2.687	Win2	0.7162000000000001	n/a	Yes	2.687	n/a	n/a	GoodResponse	1	0.0	n/a	12	73	ISIslide	Win	True
699.124	0.25	Lose2	0.7067	0.0	No	2.626	0.024	n/a	NoResponse	-1	n/a	n/a	11	74	Cue	Loss	True
699.375	4.05	Lose2	0.7067	0.0	No	2.626	0.001	n/a	NoResponse	-1	n/a	n/a	11	74	Fixation	Loss	True
703.42	0.21	Lose2	0.7067	0.004	No	2.626	-0.004	2.0	NoResponse	-1	0.228	702.648	11	74	Target	Loss	True
703.638	0.49	Lose2	0.7067	n/a	No	2.626	n/a	n/a	NoResponse	-1	n/a	n/a	11	74	Blank	Loss	True
703.648	0.3	Lose2	0.7067	0.004	No	2.626	-0.004	2.0	NoResponse	-1	0.228	n/a	11	74	ButtonPress	Loss	True
704.122	1.45	Lose2	0.7067	n/a	No	2.626	n/a	5.0	NoResponse	-1	0.042	703.164	11	74	Feedback	Loss	True
705.577	2.626	Lose2	0.7067	n/a	No	2.626	n/a	n/a	NoResponse	-1	0.0	n/a	11	74	ISIslide	Loss	True
708.218	0.25	Lose2	0.6973999999999999	0.0	No	2.932	0.018	n/a	NoResponse	-1	n/a	n/a	10	75	Cue	Loss	True
708.469	3.95	Lose2	0.6973999999999999	0.0	No	2.932	0.001	n/a	NoResponse	-1	n/a	n/a	10	75	Fixation	Loss	True
712.414	0.2	Lose2	0.6973999999999999	0.004	No	2.932	-0.004	2.0	NoResponse	-1	0.229	711.643	10	75	Target	Loss	True
712.614	0.5	Lose2	0.6973999999999999	n/a	No	2.932	n/a	n/a	NoResponse	-1	n/a	n/a	10	75	Blank	Loss	True
712.643	0.3	Lose2	0.6973999999999999	0.004	No	2.932	-0.004	2.0	NoResponse	-1	0.229	n/a	10	75	ButtonPress	Loss	True
713.116	1.45	Lose2	0.6973999999999999	n/a	No	2.932	n/a	5.0	NoResponse	-1	0.023	712.139	10	75	Feedback	Loss	True
714.57	2.932	Lose2	0.6973999999999999	n/a	No	2.932	n/a	n/a	NoResponse	-1	0.0	n/a	10	75	ISIslide	Loss	True
717.529	0.25	Control	0.6883	0.0	No	3.221	0.029	n/a	NoResponse	0	n/a	n/a	10	76	Cue	Neutral	True
717.78	4.05	Control	0.6883	0.0	No	3.221	0.001	n/a	NoResponse	0	n/a	n/a	10	76	Fixation	Neutral	True
721.825	0.19	Control	0.6883	0.004	No	3.221	-0.004	2.0	NoResponse	0	0.263	721.088	10	76	Target	Neutral	True
722.026	0.51	Control	0.6883	n/a	No	3.221	n/a	n/a	NoResponse	0	n/a	n/a	10	76	Blank	Neutral	True
722.088	0.3	Control	0.6883	0.004	No	3.221	-0.004	2.0	NoResponse	0	0.263	n/a	10	76	ButtonPress	Neutral	True
722.527	1.45	Control	0.6883	n/a	No	3.221	n/a	5.0	NoResponse	0	0.027	721.554	10	76	Feedback	Neutral	True
723.982	3.221	Control	0.6883	n/a	No	3.221	n/a	n/a	NoResponse	0	0.0	n/a	10	76	ISIslide	Neutral	True
727.225	0.25	Lose2	0.6795	0.0	No	2.575	0.025	n/a	NoResponse	-1	n/a	n/a	9	77	Cue	Loss	True
727.476	3.95	Lose2	0.6795	0.0	No	2.575	0.001	n/a	NoResponse	-1	n/a	n/a	9	77	Fixation	Loss	True
731.421	0.18	Lose2	0.6795	0.004	No	2.575	-0.004	2.0	NoResponse	-1	0.258	730.679	9	77	Target	Loss	True
731.605	0.52	Lose2	0.6795	n/a	No	2.575	n/a	n/a	NoResponse	-1	n/a	n/a	9	77	Blank	Loss	True
731.679	0.3	Lose2	0.6795	0.004	No	2.575	-0.004	2.0	NoResponse	-1	0.258	n/a	9	77	ButtonPress	Loss	True
732.123	1.45	Lose2	0.6795	n/a	No	2.575	n/a	5.0	NoResponse	-1	0.041	731.164	9	77	Feedback	Loss	True
733.577	2.575	Lose2	0.6795	n/a	No	2.575	n/a	n/a	NoResponse	-1	0.0	n/a	9	77	ISIslide	Loss	True
