onset	duration	cue_type	current_mean_accuracy	duration_error	is_hit	isi_adjusted	onset_delay	response	response_type	reward	rt	rt_time	total_reward	trial_number	trial_phase	trial_type	one_press
11.105	0.25	Control	1.0	0.001	Yes	2.945	0.005	n/a	GoodResponse	0	n/a	n/a	0	0	Cue	Neutral	True
11.355	3.85	Control	1.0	0.0	Yes	2.945	0.0	n/a	GoodResponse	0	n/a	n/a	0	0	Fixation	Neutral	True
15.204	0.4	Control	1.0	0.001	Yes	2.945	-0.001	2.0	GoodResponse	0	0.287	14.491	0	0	Target	Neutral	True
15.491	0.3	Control	1.0	0.001	Yes	2.945	-0.001	2.0	GoodResponse	0	0.287	n/a	0	0	ButtonPress	Neutral	True
15.604	0.3	Control	1.0	n/a	Yes	2.945	n/a	n/a	GoodResponse	0	n/a	n/a	0	0	Blank	Neutral	True
15.904	1.45	Control	1.0	n/a	Yes	2.945	n/a	5.0	GoodResponse	0	0.025	14.929	0	0	Feedback	Neutral	True
17.353	2.945	Control	1.0	n/a	Yes	2.945	n/a	n/a	GoodResponse	0	0.0	n/a	0	0	ISIslide	Neutral	True
20.319	0.25	Lose2	1.0	0.0	Yes	2.781	0.019	n/a	GoodResponse	0	n/a	n/a	0	1	Cue	AvoidedLoss	True
20.569	4.0	Lose2	1.0	0.0	Yes	2.781	0.0	n/a	GoodResponse	0	n/a	n/a	0	1	Fixation	AvoidedLoss	True
24.567	0.39	Lose2	1.0	0.002	Yes	2.781	-0.002	2.0	GoodResponse	0	0.236	23.803	0	1	Target	AvoidedLoss	True
24.803	0.3	Lose2	1.0	0.002	Yes	2.781	-0.002	2.0	GoodResponse	0	0.236	n/a	0	1	ButtonPress	AvoidedLoss	True
24.967	0.31	Lose2	1.0	n/a	Yes	2.781	n/a	n/a	GoodResponse	0	n/a	n/a	0	1	Blank	AvoidedLoss	True
25.267	1.45	Lose2	1.0	n/a	Yes	2.781	n/a	5.0	GoodResponse	0	0.028	24.295	0	1	Feedback	AvoidedLoss	True
26.717	2.781	Lose2	1.0	n/a	Yes	2.781	n/a	n/a	GoodResponse	0	0.0	n/a	0	1	ISIslide	AvoidedLoss	True
29.516	0.25	Control	1.0	0.0	Yes	2.584	0.016	n/a	GoodResponse	0	n/a	n/a	0	2	Cue	Neutral	True
29.766	4.1	Control	1.0	0.0	Yes	2.584	0.0	n/a	GoodResponse	0	n/a	n/a	0	2	Fixation	Neutral	True
33.864	0.38	Control	1.0	0.002	Yes	2.584	-0.002	2.0	GoodResponse	0	0.256	33.12	0	2	Target	Neutral	True
34.12	0.3	Control	1.0	0.002	Yes	2.584	-0.002	2.0	GoodResponse	0	0.256	n/a	0	2	ButtonPress	Neutral	True
34.247	0.32	Control	1.0	n/a	Yes	2.584	n/a	n/a	GoodResponse	0	n/a	n/a	0	2	Blank	Neutral	True
34.564	1.45	Control	1.0	n/a	Yes	2.584	n/a	5.0	GoodResponse	0	0.049	33.613	0	2	Feedback	Neutral	True
36.013	2.584	Control	1.0	n/a	Yes	2.584	n/a	n/a	GoodResponse	0	0.0	n/a	0	2	ISIslide	Neutral	True
38.629	0.25	Win2	1.0	0.0	Yes	2.821	0.029	n/a	GoodResponse	1	n/a	n/a	1	3	Cue	Win	True
38.879	3.95	Win2	1.0	0.0	Yes	2.821	0.0	n/a	GoodResponse	1	n/a	n/a	1	3	Fixation	Win	True
42.828	0.37	Win2	1.0	0.001	Yes	2.821	-0.001	2.0	GoodResponse	1	0.297	42.125	1	3	Target	Win	True
43.125	0.3	Win2	1.0	0.001	Yes	2.821	-0.001	2.0	GoodResponse	1	0.297	n/a	1	3	ButtonPress	Win	True
43.211	0.33	Win2	1.0	n/a	Yes	2.821	n/a	n/a	GoodResponse	1	n/a	n/a	1	3	Blank	Win	True
43.527	1.45	Win2	1.0	n/a	Yes	2.821	n/a	5.0	GoodResponse	1	0.013	42.54	1	3	Feedback	Win	True
44.977	2.821	Win2	1.0	n/a	Yes	2.821	n/a	n/a	GoodResponse	1	0.0	n/a	1	3	ISIslide	Win	True
47.826	0.25	Win2	1.0	0.0	Yes	3.274	0.026	n/a	GoodResponse	1	n/a	n/a	2	4	Cue	Win	True
48.076	4.0	Win2	1.0	0.0	Yes	3.274	0.0	n/a	GoodResponse	1	n/a	n/a	2	4	Fixation	Win	True
52.075	0.36	Win2	1.0	0.001	Yes	3.274	-0.001	2.0	GoodResponse	1	0.219	51.294	2	4	Target	Win	True
52.294	0.3	Win2	1.0	0.001	Yes	3.274	-0.001	2.0	GoodResponse	1	0.219	n/a	2	4	ButtonPress	Win	True
52.441	0.34	Win2	1.0	n/a	Yes	3.274	n/a	n/a	GoodResponse	1	n/a	n/a	2	4	Blank	Win	True
52.774	1.45	Win2	1.0	n/a	Yes	3.274	n/a	5.0	GoodResponse	1	0.033	51.807	2	4	Feedback	Win	True
54.224	3.274	Win2	1.0	n/a	Yes	3.274	n/a	n/a	GoodResponse	1	0.0	n/a	2	4	ISIslide	Win	True
57.523	0.25	Win2	1.0	0.0	Yes	2.777	0.023	n/a	GoodResponse	1	n/a	n/a	3	5	Cue	Win	True
57.773	4.0	Win2	1.0	0.0	Yes	2.777	0.0	n/a	GoodResponse	1	n/a	n/a	3	5	Fixation	Win	True
61.771	0.35	Win2	1.0	0.002	Yes	2.777	-0.002	2.0	GoodResponse	1	0.277	61.048	3	5	Target	Win	True
62.048	0.3	Win2	1.0	0.002	Yes	2.777	-0.002	2.0	GoodResponse	1	0.277	n/a	3	5	ButtonPress	Win	True
62.121	0.35	Win2	1.0	n/a	Yes	2.777	n/a	n/a	GoodResponse	1	n/a	n/a	3	5	Blank	Win	True
62.471	1.45	Win2	1.0	n/a	Yes	2.777	n/a	5.0	GoodResponse	1	0.043	61.514	3	5	Feedback	Win	True
63.92	2.777	Win2	1.0	n/a	Yes	2.777	n/a	n/a	GoodResponse	1	0.0	n/a	3	5	ISIslide	Win	True
66.719	0.25	Lose2	0.8571	0.0	No	2.731	0.019	n/a	NoResponse	-1	n/a	n/a	2	6	Cue	Loss	True
66.969	3.95	Lose2	0.8571	0.0	No	2.731	0.0	n/a	NoResponse	-1	n/a	n/a	2	6	Fixation	Loss	True
70.918	0.34	Lose2	0.8571	0.001	No	2.731	-0.001	2.0	NoResponse	-1	0.427	70.345	2	6	Target	Loss	True
71.268	0.36	Lose2	0.8571	n/a	No	2.731	n/a	n/a	NoResponse	-1	n/a	n/a	2	6	Blank	Loss	True
71.345	0.3	Lose2	0.8571	0.001	No	2.731	-0.001	2.0	NoResponse	-1	0.427	n/a	2	6	ButtonPress	Loss	True
71.618	1.45	Lose2	0.8571	n/a	No	2.731	n/a	5.0	NoResponse	-1	0.018	70.636	2	6	Feedback	Loss	True
73.067	2.731	Lose2	0.8571	n/a	No	2.731	n/a	n/a	NoResponse	-1	0.0	n/a	2	6	ISIslide	Loss	True
75.816	0.25	Lose2	0.875	0.0	Yes	4.034	0.016	n/a	GoodResponse	0	n/a	n/a	2	7	Cue	AvoidedLoss	True
76.066	4.05	Lose2	0.875	0.0	Yes	4.034	0.0	n/a	GoodResponse	0	n/a	n/a	2	7	Fixation	AvoidedLoss	True
80.115	0.33	Lose2	0.875	0.001	Yes	4.034	-0.001	2.0	GoodResponse	0	0.252	79.367	2	7	Target	AvoidedLoss	True
80.367	0.3	Lose2	0.875	0.001	Yes	4.034	-0.001	2.0	GoodResponse	0	0.252	n/a	2	7	ButtonPress	AvoidedLoss	True
80.448	0.37	Lose2	0.875	n/a	Yes	4.034	n/a	n/a	GoodResponse	0	n/a	n/a	2	7	Blank	AvoidedLoss	True
80.814	1.45	Lose2	0.875	n/a	Yes	4.034	n/a	5.0	GoodResponse	0	0.042	79.856	2	7	Feedback	AvoidedLoss	True
82.264	4.034	Lose2	0.875	n/a	Yes	4.034	n/a	n/a	GoodResponse	0	0.0	n/a	2	7	ISIslide	AvoidedLoss	True
86.329	0.25	Lose2	0.8889	0.0	Yes	3.021	0.029	n/a	GoodResponse	0	n/a	n/a	2	8	Cue	AvoidedLoss	False
86.579	3.95	Lose2	0.8889	0.0	Yes	3.021	0.0	2.0	GoodResponse	0	0.077	85.656	2	8	Fixation	AvoidedLoss	False
86.656	0.3	Lose2	0.8889	0.0	Yes	3.021	0.0	2.0	GoodResponse	0	0.077	n/a	2	8	ButtonPress	AvoidedLoss	False
90.528	0.32	Lose2	0.8889	0.001	Yes	3.021	-0.001	2.0	GoodResponse	0	0.306	89.834	2	8	Target	AvoidedLoss	False
90.834	0.3	Lose2	0.8889	0.001	Yes	3.021	-0.001	2.0	GoodResponse	0	0.306	n/a	2	8	ButtonPress	AvoidedLoss	False
90.861	0.38	Lose2	0.8889	n/a	Yes	3.021	n/a	n/a	GoodResponse	0	n/a	n/a	2	8	Blank	AvoidedLoss	False
91.228	1.45	Lose2	0.8889	n/a	Yes	3.021	n/a	5.0	GoodResponse	0	0.018	90.246	2	8	Feedback	AvoidedLoss	False
92.677	3.021	Lose2	0.8889	n/a	Yes	3.021	n/a	n/a	GoodResponse	0	0.0	n/a	2	8	ISIslide	AvoidedLoss	False
95.726	0.25	Lose2	0.9	0.0	Yes	3.124	0.026	n/a	GoodResponse	0	n/a	n/a	2	9	Cue	AvoidedLoss	True
95.976	3.95	Lose2	0.9	0.0	Yes	3.124	0.0	n/a	GoodResponse	0	n/a	n/a	2	9	Fixation	AvoidedLoss	True
99.924	0.31	Lose2	0.9	0.002	Yes	3.124	-0.002	2.0	GoodResponse	0	0.24	99.164	2	9	Target	AvoidedLoss	True
100.164	0.3	Lose2	0.9	0.002	Yes	3.124	-0.002	2.0	GoodResponse	0	0.24	n/a	2	9	ButtonPress	AvoidedLoss	True
100.241	0.39	Lose2	0.9	n/a	Yes	3.124	n/a	n/a	GoodResponse	0	n/a	n/a	2	9	Blank	AvoidedLoss	True
100.624	1.45	Lose2	0.9	n/a	Yes	3.124	n/a	5.0	GoodResponse	0	0.036	99.66	2	9	Feedback	AvoidedLoss	True
102.074	3.124	Lose2	0.9	n/a	Yes	3.124	n/a	n/a	GoodResponse	0	0.0	n/a	2	9	ISIslide	AvoidedLoss	True
105.223	0.25	Control	0.8181999999999999	0.0	No	3.277	0.023	n/a	NoResponse	0	n/a	n/a	2	10	Cue	Neutral	True
105.473	4.0	Control	0.8181999999999999	0.0	No	3.277	0.0	n/a	NoResponse	0	n/a	n/a	2	10	Fixation	Neutral	True
109.471	0.3	Control	0.8181999999999999	0.002	No	3.277	-0.002	2.0	NoResponse	0	0.312	108.783	2	10	Target	Neutral	True
109.771	0.4	Control	0.8181999999999999	n/a	No	3.277	n/a	n/a	NoResponse	0	n/a	n/a	2	10	Blank	Neutral	True
109.783	0.3	Control	0.8181999999999999	0.002	No	3.277	-0.002	2.0	NoResponse	0	0.312	n/a	2	10	ButtonPress	Neutral	True
110.171	1.45	Control	0.8181999999999999	n/a	No	3.277	n/a	5.0	NoResponse	0	0.001	109.172	2	10	Feedback	Neutral	True
111.62	3.277	Control	0.8181999999999999	n/a	No	3.277	n/a	n/a	NoResponse	0	0.0	n/a	2	10	ISIslide	Neutral	True
114.919	0.25	Lose2	0.75	0.0	No	2.731	0.019	n/a	LatePress	-1	n/a	n/a	1	11	Cue	Loss	True
115.169	4.05	Lose2	0.75	0.0	No	2.731	0.0	n/a	LatePress	-1	n/a	n/a	1	11	Fixation	Loss	True
119.218	0.29	Lose2	0.75	0.001	No	2.731	-0.001	2.0	LatePress	-1	0.29	118.508	1	11	Target	Loss	True
119.508	0.3	Lose2	0.75	0.001	No	2.731	-0.001	2.0	LatePress	-1	0.29	n/a	1	11	ButtonPress	Loss	True
119.518	0.41	Lose2	0.75	n/a	No	2.731	n/a	n/a	LatePress	-1	n/a	n/a	1	11	Blank	Loss	True
119.917	1.45	Lose2	0.75	n/a	No	2.731	n/a	5.0	LatePress	-1	0.012	118.929	1	11	Feedback	Loss	True
121.367	2.731	Lose2	0.75	n/a	No	2.731	n/a	n/a	LatePress	-1	0.0	n/a	1	11	ISIslide	Loss	True
124.116	0.25	Control	0.7692	0.0	Yes	2.984	0.016	n/a	GoodResponse	0	n/a	n/a	1	12	Cue	Neutral	True
124.366	3.9	Control	0.7692	0.0	Yes	2.984	0.0	n/a	GoodResponse	0	n/a	n/a	1	12	Fixation	Neutral	True
128.265	0.28	Control	0.7692	0.001	Yes	2.984	-0.001	2.0	GoodResponse	0	0.262	127.527	1	12	Target	Neutral	True
128.527	0.3	Control	0.7692	0.001	Yes	2.984	-0.001	2.0	GoodResponse	0	0.262	n/a	1	12	ButtonPress	Neutral	True
128.548	0.42	Control	0.7692	n/a	Yes	2.984	n/a	n/a	GoodResponse	0	n/a	n/a	1	12	Blank	Neutral	True
128.964	1.45	Control	0.7692	n/a	Yes	2.984	n/a	5.0	GoodResponse	0	0.038	128.002	1	12	Feedback	Neutral	True
130.414	2.984	Control	0.7692	n/a	Yes	2.984	n/a	n/a	GoodResponse	0	0.0	n/a	1	12	ISIslide	Neutral	True
133.413	0.25	Control	0.7143	0.0	No	2.787	0.013	n/a	NoResponse	0	n/a	n/a	1	13	Cue	Neutral	True
133.663	4.0	Control	0.7143	0.0	No	2.787	0.0	n/a	NoResponse	0	n/a	n/a	1	13	Fixation	Neutral	True
137.661	0.27	Control	0.7143	0.002	No	2.787	-0.002	2.0	NoResponse	0	0.295	136.956	1	13	Target	Neutral	True
137.945	0.43	Control	0.7143	n/a	No	2.787	n/a	n/a	NoResponse	0	n/a	n/a	1	13	Blank	Neutral	True
137.956	0.3	Control	0.7143	0.002	No	2.787	-0.002	2.0	NoResponse	0	0.295	n/a	1	13	ButtonPress	Neutral	True
138.361	1.45	Control	0.7143	n/a	No	2.787	n/a	5.0	NoResponse	0	0.007	137.368	1	13	Feedback	Neutral	True
139.811	2.787	Control	0.7143	n/a	No	2.787	n/a	n/a	NoResponse	0	0.0	n/a	1	13	ISIslide	Neutral	True
142.626	0.25	Win2	0.6667000000000001	0.0	No	2.674	0.026	n/a	NoResponse	0	n/a	n/a	1	14	Cue	MissedWin	True
142.876	4.1	Win2	0.6667000000000001	0.0	No	2.674	0.0	n/a	NoResponse	0	n/a	n/a	1	14	Fixation	MissedWin	True
146.975	0.26	Win2	0.6667000000000001	0.001	No	2.674	-0.001	2.0	NoResponse	0	0.278	146.253	1	14	Target	MissedWin	True
147.241	0.44	Win2	0.6667000000000001	n/a	No	2.674	n/a	n/a	NoResponse	0	n/a	n/a	1	14	Blank	MissedWin	True
147.253	0.3	Win2	0.6667000000000001	0.001	No	2.674	-0.001	2.0	NoResponse	0	0.278	n/a	1	14	ButtonPress	MissedWin	True
147.674	1.45	Win2	0.6667000000000001	n/a	No	2.674	n/a	5.0	NoResponse	0	0.01	146.684	1	14	Feedback	MissedWin	True
149.124	2.674	Win2	0.6667000000000001	n/a	No	2.674	n/a	n/a	NoResponse	0	0.0	n/a	1	14	ISIslide	MissedWin	True
151.823	0.25	Control	0.625	0.0	No	2.977	0.023	n/a	NoResponse	0	n/a	n/a	1	15	Cue	Neutral	True
152.073	4.0	Control	0.625	0.0	No	2.977	0.0	n/a	NoResponse	0	n/a	n/a	1	15	Fixation	Neutral	True
156.072	0.25	Control	0.625	0.001	No	2.977	-0.001	2.0	NoResponse	0	0.288	155.36	1	15	Target	Neutral	True
156.321	0.45	Control	0.625	n/a	No	2.977	n/a	n/a	NoResponse	0	n/a	n/a	1	15	Blank	Neutral	True
156.36	0.3	Control	0.625	0.001	No	2.977	-0.001	2.0	NoResponse	0	0.288	n/a	1	15	ButtonPress	Neutral	True
156.771	1.45	Control	0.625	n/a	No	2.977	n/a	5.0	NoResponse	0	0.035	155.806	1	15	Feedback	Neutral	True
158.221	2.977	Control	0.625	n/a	No	2.977	n/a	n/a	NoResponse	0	0.0	n/a	1	15	ISIslide	Neutral	True
161.22	0.25	Win2	0.6470999999999999	0.0	Yes	2.88	0.02	n/a	GoodResponse	1	n/a	n/a	2	16	Cue	Win	True
161.47	4.0	Win2	0.6470999999999999	0.0	Yes	2.88	0.0	n/a	GoodResponse	1	n/a	n/a	2	16	Fixation	Win	True
165.468	0.26	Win2	0.6470999999999999	0.002	Yes	2.88	-0.002	2.0	GoodResponse	1	0.236	164.704	2	16	Target	Win	True
165.704	0.3	Win2	0.6470999999999999	0.002	Yes	2.88	-0.002	2.0	GoodResponse	1	0.236	n/a	2	16	ButtonPress	Win	True
165.735	0.44	Win2	0.6470999999999999	n/a	Yes	2.88	n/a	n/a	GoodResponse	1	n/a	n/a	2	16	Blank	Win	True
166.168	1.45	Win2	0.6470999999999999	n/a	Yes	2.88	n/a	5.0	GoodResponse	1	0.007	165.175	2	16	Feedback	Win	True
167.618	2.88	Win2	0.6470999999999999	n/a	Yes	2.88	n/a	n/a	GoodResponse	1	0.0	n/a	2	16	ISIslide	Win	True
170.517	0.25	Lose2	0.6111	0.0	No	2.733	0.017	n/a	NoResponse	-1	n/a	n/a	1	17	Cue	Loss	True
170.766	3.95	Lose2	0.6111	0.001	No	2.733	-0.001	n/a	NoResponse	-1	n/a	n/a	1	17	Fixation	Loss	True
174.715	0.27	Lose2	0.6111	0.002	No	2.733	-0.002	2.0	NoResponse	-1	0.296	174.011	1	17	Target	Loss	True
174.998	0.43	Lose2	0.6111	n/a	No	2.733	n/a	n/a	NoResponse	-1	n/a	n/a	1	17	Blank	Loss	True
175.011	0.3	Lose2	0.6111	0.002	No	2.733	-0.002	2.0	NoResponse	-1	0.296	n/a	1	17	ButtonPress	Loss	True
175.415	1.45	Lose2	0.6111	n/a	No	2.733	n/a	5.0	NoResponse	-1	0.026	174.441	1	17	Feedback	Loss	True
176.864	2.733	Lose2	0.6111	n/a	No	2.733	n/a	n/a	NoResponse	-1	0.0	n/a	1	17	ISIslide	Loss	True
179.63	0.25	Lose2	0.6315999999999999	0.0	Yes	2.72	0.03	n/a	GoodResponse	0	n/a	n/a	1	18	Cue	AvoidedLoss	True
179.88	4.05	Lose2	0.6315999999999999	0.0	Yes	2.72	0.0	n/a	GoodResponse	0	n/a	n/a	1	18	Fixation	AvoidedLoss	True
183.929	0.28	Lose2	0.6315999999999999	0.001	Yes	2.72	-0.001	2.0	GoodResponse	0	0.224	183.153	1	18	Target	AvoidedLoss	True
184.153	0.3	Lose2	0.6315999999999999	0.001	Yes	2.72	-0.001	2.0	GoodResponse	0	0.224	n/a	1	18	ButtonPress	AvoidedLoss	True
184.212	0.42	Lose2	0.6315999999999999	n/a	Yes	2.72	n/a	n/a	GoodResponse	0	n/a	n/a	1	18	Blank	AvoidedLoss	True
184.628	1.45	Lose2	0.6315999999999999	n/a	Yes	2.72	n/a	5.0	GoodResponse	0	0.032	183.66	1	18	Feedback	AvoidedLoss	True
186.078	2.72	Lose2	0.6315999999999999	n/a	Yes	2.72	n/a	n/a	GoodResponse	0	0.0	n/a	1	18	ISIslide	AvoidedLoss	True
188.827	0.25	Control	0.65	0.0	Yes	2.923	0.027	n/a	GoodResponse	0	n/a	n/a	1	19	Cue	Neutral	True
189.077	3.95	Control	0.65	0.0	Yes	2.923	0.0	n/a	GoodResponse	0	n/a	n/a	1	19	Fixation	Neutral	True
193.025	0.29	Control	0.65	0.002	Yes	2.923	-0.002	2.0	GoodResponse	0	0.219	192.244	1	19	Target	Neutral	True
193.244	0.3	Control	0.65	0.002	Yes	2.923	-0.002	2.0	GoodResponse	0	0.219	n/a	1	19	ButtonPress	Neutral	True
193.325	0.41	Control	0.65	n/a	Yes	2.923	n/a	n/a	GoodResponse	0	n/a	n/a	1	19	Blank	Neutral	True
193.725	1.45	Control	0.65	n/a	Yes	2.923	n/a	5.0	GoodResponse	0	0.009	192.734	1	19	Feedback	Neutral	True
195.175	2.923	Control	0.65	n/a	Yes	2.923	n/a	n/a	GoodResponse	0	0.0	n/a	1	19	ISIslide	Neutral	True
198.124	0.25	Control	0.6667000000000001	0.0	Yes	2.626	0.024	n/a	GoodResponse	0	n/a	n/a	1	20	Cue	Neutral	True
198.373	4.05	Control	0.6667000000000001	0.001	Yes	2.626	-0.001	n/a	GoodResponse	0	n/a	n/a	1	20	Fixation	Neutral	True
202.422	0.3	Control	0.6667000000000001	0.002	Yes	2.626	-0.002	2.0	GoodResponse	0	0.256	201.678	1	20	Target	Neutral	True
202.678	0.3	Control	0.6667000000000001	0.002	Yes	2.626	-0.002	2.0	GoodResponse	0	0.256	n/a	1	20	ButtonPress	Neutral	True
202.722	0.4	Control	0.6667000000000001	n/a	Yes	2.626	n/a	n/a	GoodResponse	0	n/a	n/a	1	20	Blank	Neutral	True
203.122	1.45	Control	0.6667000000000001	n/a	Yes	2.626	n/a	5.0	GoodResponse	0	0.025	202.147	1	20	Feedback	Neutral	True
204.571	2.626	Control	0.6667000000000001	n/a	Yes	2.626	n/a	n/a	GoodResponse	0	0.0	n/a	1	20	ISIslide	Neutral	True
207.22	0.25	Control	0.6818000000000001	0.0	Yes	2.78	0.02	n/a	GoodResponse	0	n/a	n/a	1	21	Cue	Neutral	True
207.47	4.1	Control	0.6818000000000001	0.0	Yes	2.78	0.0	n/a	GoodResponse	0	n/a	n/a	1	21	Fixation	Neutral	True
211.569	0.29	Control	0.6818000000000001	0.001	Yes	2.78	-0.001	2.0	GoodResponse	0	0.26	210.829	1	21	Target	Neutral	True
211.829	0.3	Control	0.6818000000000001	0.001	Yes	2.78	-0.001	2.0	GoodResponse	0	0.26	n/a	1	21	ButtonPress	Neutral	True
211.869	0.41	Control	0.6818000000000001	n/a	Yes	2.78	n/a	n/a	GoodResponse	0	n/a	n/a	1	21	Blank	Neutral	True
212.269	1.45	Control	0.6818000000000001	n/a	Yes	2.78	n/a	5.0	GoodResponse	0	0.0	211.269	1	21	Feedback	Neutral	True
213.718	2.78	Control	0.6818000000000001	n/a	Yes	2.78	n/a	n/a	GoodResponse	0	0.0	n/a	1	21	ISIslide	Neutral	True
216.517	0.25	Control	0.6957	0.0	Yes	2.783	0.017	n/a	GoodResponse	0	n/a	n/a	1	22	Cue	Neutral	True
216.767	4.0	Control	0.6957	0.0	Yes	2.783	0.0	n/a	GoodResponse	0	n/a	n/a	1	22	Fixation	Neutral	True
220.766	0.28	Control	0.6957	0.001	Yes	2.783	-0.001	2.0	GoodResponse	0	0.272	220.038	1	22	Target	Neutral	True
221.038	0.3	Control	0.6957	0.001	Yes	2.783	-0.001	2.0	GoodResponse	0	0.272	n/a	1	22	ButtonPress	Neutral	True
221.049	0.42	Control	0.6957	n/a	Yes	2.783	n/a	n/a	GoodResponse	0	n/a	n/a	1	22	Blank	Neutral	True
221.465	1.45	Control	0.6957	n/a	Yes	2.783	n/a	5.0	GoodResponse	0	0.024	220.489	1	22	Feedback	Neutral	True
222.915	2.783	Control	0.6957	n/a	Yes	2.783	n/a	n/a	GoodResponse	0	0.0	n/a	1	22	ISIslide	Neutral	True
225.731	0.25	Control	0.7082999999999999	0.0	Yes	2.769	0.031	n/a	GoodResponse	0	n/a	n/a	1	23	Cue	Neutral	True
225.981	3.9	Control	0.7082999999999999	0.0	Yes	2.769	0.0	n/a	GoodResponse	0	n/a	n/a	1	23	Fixation	Neutral	True
229.879	0.27	Control	0.7082999999999999	0.002	Yes	2.769	-0.002	2.0	GoodResponse	0	0.262	229.141	1	23	Target	Neutral	True
230.141	0.3	Control	0.7082999999999999	0.002	Yes	2.769	-0.002	2.0	GoodResponse	0	0.262	n/a	1	23	ButtonPress	Neutral	True
230.162	0.43	Control	0.7082999999999999	n/a	Yes	2.769	n/a	n/a	GoodResponse	0	n/a	n/a	1	23	Blank	Neutral	True
230.579	1.45	Control	0.7082999999999999	n/a	Yes	2.769	n/a	5.0	GoodResponse	0	0.032	229.611	1	23	Feedback	Neutral	True
232.028	2.769	Control	0.7082999999999999	n/a	Yes	2.769	n/a	n/a	GoodResponse	0	0.0	n/a	1	23	ISIslide	Neutral	True
234.827	0.25	Win2	0.72	0.001	Yes	3.123	0.027	n/a	GoodResponse	1	n/a	n/a	2	24	Cue	Win	True
235.077	3.95	Win2	0.72	0.0	Yes	3.123	0.0	n/a	GoodResponse	1	n/a	n/a	2	24	Fixation	Win	True
239.026	0.26	Win2	0.72	0.001	Yes	3.123	-0.001	2.0	GoodResponse	1	0.22	238.246	2	24	Target	Win	True
239.246	0.3	Win2	0.72	0.001	Yes	3.123	-0.001	2.0	GoodResponse	1	0.22	n/a	2	24	ButtonPress	Win	True
239.293	0.44	Win2	0.72	n/a	Yes	3.123	n/a	n/a	GoodResponse	1	n/a	n/a	2	24	Blank	Win	True
239.726	1.45	Win2	0.72	n/a	Yes	3.123	n/a	5.0	GoodResponse	1	0.007	238.733	2	24	Feedback	Win	True
241.175	3.123	Win2	0.72	n/a	Yes	3.123	n/a	n/a	GoodResponse	1	0.0	n/a	2	24	ISIslide	Win	True
244.324	0.25	Win2	0.7308	0.0	Yes	3.076	0.024	n/a	GoodResponse	1	n/a	n/a	3	25	Cue	Win	True
244.574	4.0	Win2	0.7308	0.0	Yes	3.076	0.0	n/a	GoodResponse	1	n/a	n/a	3	25	Fixation	Win	True
248.573	0.25	Win2	0.7308	0.001	Yes	3.076	-0.001	2.0	GoodResponse	1	0.217	247.79	3	25	Target	Win	True
248.79	0.3	Win2	0.7308	0.001	Yes	3.076	-0.001	2.0	GoodResponse	1	0.217	n/a	3	25	ButtonPress	Win	True
248.823	0.45	Win2	0.7308	n/a	Yes	3.076	n/a	n/a	GoodResponse	1	n/a	n/a	3	25	Blank	Win	True
249.272	1.45	Win2	0.7308	n/a	Yes	3.076	n/a	5.0	GoodResponse	1	0.021	248.293	3	25	Feedback	Win	True
250.722	3.076	Win2	0.7308	n/a	Yes	3.076	n/a	n/a	GoodResponse	1	0.0	n/a	3	25	ISIslide	Win	True
253.821	0.25	Win2	0.7037	0.0	No	2.929	0.021	n/a	LatePress	0	n/a	n/a	3	26	Cue	MissedWin	True
254.071	3.95	Win2	0.7037	0.0	No	2.929	0.0	n/a	LatePress	0	n/a	n/a	3	26	Fixation	MissedWin	True
258.019	0.24	Win2	0.7037	0.002	No	2.929	-0.002	2.0	LatePress	0	0.246	257.265	3	26	Target	MissedWin	True
258.265	0.3	Win2	0.7037	0.002	No	2.929	-0.002	2.0	LatePress	0	0.246	n/a	3	26	ButtonPress	MissedWin	True
258.269	0.46	Win2	0.7037	n/a	No	2.929	n/a	n/a	LatePress	0	n/a	n/a	3	26	Blank	MissedWin	True
258.719	1.45	Win2	0.7037	n/a	No	2.929	n/a	5.0	LatePress	0	0.038	257.757	3	26	Feedback	MissedWin	True
260.169	2.929	Win2	0.7037	n/a	No	2.929	n/a	n/a	LatePress	0	0.0	n/a	3	26	ISIslide	MissedWin	True
263.118	0.25	Lose2	0.6786	0.0	No	2.832	0.018	n/a	NoResponse	-1	n/a	n/a	2	27	Cue	Loss	True
263.367	4.05	Lose2	0.6786	0.001	No	2.832	-0.001	n/a	NoResponse	-1	n/a	n/a	2	27	Fixation	Loss	True
267.416	0.23	Lose2	0.6786	0.002	No	2.832	-0.002	2.0	NoResponse	-1	0.249	266.665	2	27	Target	Loss	True
267.649	0.47	Lose2	0.6786	n/a	No	2.832	n/a	n/a	NoResponse	-1	n/a	n/a	2	27	Blank	Loss	True
267.665	0.3	Lose2	0.6786	0.002	No	2.832	-0.002	2.0	NoResponse	-1	0.249	n/a	2	27	ButtonPress	Loss	True
268.116	1.45	Lose2	0.6786	n/a	No	2.832	n/a	5.0	NoResponse	-1	0.008	267.124	2	27	Feedback	Loss	True
269.565	2.832	Lose2	0.6786	n/a	No	2.832	n/a	n/a	NoResponse	-1	0.0	n/a	2	27	ISIslide	Loss	True
272.414	0.25	Control	0.6552	0.0	No	2.836	0.014	n/a	NoResponse	0	n/a	n/a	2	28	Cue	Neutral	True
272.664	4.05	Control	0.6552	0.0	No	2.836	0.0	n/a	NoResponse	0	n/a	n/a	2	28	Fixation	Neutral	True
276.713	0.22	Control	0.6552	0.001	No	2.836	-0.001	2.0	NoResponse	0	0.366	276.079	2	28	Target	Neutral	True
276.929	0.48	Control	0.6552	n/a	No	2.836	n/a	n/a	NoResponse	0	n/a	n/a	2	28	Blank	Neutral	True
277.079	0.3	Control	0.6552	0.001	No	2.836	-0.001	2.0	NoResponse	0	0.366	n/a	2	28	ButtonPress	Neutral	True
277.413	1.45	Control	0.6552	n/a	No	2.836	n/a	5.0	NoResponse	0	0.027	276.44	2	28	Feedback	Neutral	True
278.862	2.836	Control	0.6552	n/a	No	2.836	n/a	n/a	NoResponse	0	0.0	n/a	2	28	ISIslide	Neutral	True
281.728	0.25	Lose2	0.6333	0.0	No	2.822	0.028	n/a	NoResponse	-1	n/a	n/a	1	29	Cue	Loss	True
281.978	3.95	Lose2	0.6333	0.0	No	2.822	0.0	n/a	NoResponse	-1	n/a	n/a	1	29	Fixation	Loss	True
285.926	0.22	Lose2	0.6333	0.002	No	2.822	-0.002	2.0	NoResponse	-1	0.245	285.171	1	29	Target	Loss	True
286.16	0.48	Lose2	0.6333	n/a	No	2.822	n/a	n/a	NoResponse	-1	n/a	n/a	1	29	Blank	Loss	True
286.171	0.3	Lose2	0.6333	0.002	No	2.822	-0.002	2.0	NoResponse	-1	0.245	n/a	1	29	ButtonPress	Loss	True
286.626	1.45	Lose2	0.6333	n/a	No	2.822	n/a	5.0	NoResponse	-1	0.034	285.66	1	29	Feedback	Loss	True
288.075	2.822	Lose2	0.6333	n/a	No	2.822	n/a	n/a	NoResponse	-1	0.0	n/a	1	29	ISIslide	Loss	True
290.925	0.25	Win2	0.6452	0.0	Yes	2.775	0.025	n/a	GoodResponse	1	n/a	n/a	2	30	Cue	Win	True
291.174	3.9	Win2	0.6452	0.001	Yes	2.775	-0.001	n/a	GoodResponse	1	n/a	n/a	2	30	Fixation	Win	True
295.073	0.23	Win2	0.6452	0.002	Yes	2.775	-0.002	2.0	GoodResponse	1	0.228	294.301	2	30	Target	Win	True
295.301	0.3	Win2	0.6452	0.002	Yes	2.775	-0.002	2.0	GoodResponse	1	0.228	n/a	2	30	ButtonPress	Win	True
295.306	0.47	Win2	0.6452	n/a	Yes	2.775	n/a	n/a	GoodResponse	1	n/a	n/a	2	30	Blank	Win	True
295.773	1.45	Win2	0.6452	n/a	Yes	2.775	n/a	5.0	GoodResponse	1	0.009	294.782	2	30	Feedback	Win	True
297.222	2.775	Win2	0.6452	n/a	Yes	2.775	n/a	n/a	GoodResponse	1	0.0	n/a	2	30	ISIslide	Win	True
300.021	0.25	Lose2	0.6562	0.0	Yes	2.829	0.021	n/a	GoodResponse	0	n/a	n/a	2	31	Cue	AvoidedLoss	True
300.271	4.05	Lose2	0.6562	0.0	Yes	2.829	0.0	n/a	GoodResponse	0	n/a	n/a	2	31	Fixation	AvoidedLoss	True
304.32	0.24	Lose2	0.6562	0.001	Yes	2.829	-0.001	2.0	GoodResponse	0	0.223	303.543	2	31	Target	AvoidedLoss	True
304.543	0.3	Lose2	0.6562	0.001	Yes	2.829	-0.001	2.0	GoodResponse	0	0.223	n/a	2	31	ButtonPress	AvoidedLoss	True
304.57	0.46	Lose2	0.6562	n/a	Yes	2.829	n/a	n/a	GoodResponse	0	n/a	n/a	2	31	Blank	AvoidedLoss	True
305.02	1.45	Lose2	0.6562	n/a	Yes	2.829	n/a	5.0	GoodResponse	0	0.029	304.049	2	31	Feedback	AvoidedLoss	True
306.469	2.829	Lose2	0.6562	n/a	Yes	2.829	n/a	n/a	GoodResponse	0	0.0	n/a	2	31	ISIslide	AvoidedLoss	True
309.318	0.25	Lose2	0.6364	0.0	No	2.632	0.018	n/a	NoResponse	-1	n/a	n/a	1	32	Cue	Loss	True
309.568	4.15	Lose2	0.6364	0.0	No	2.632	0.0	n/a	NoResponse	-1	n/a	n/a	1	32	Fixation	Loss	True
313.717	0.24	Lose2	0.6364	0.001	No	2.632	-0.001	2.0	NoResponse	-1	0.258	312.975	1	32	Target	Loss	True
313.966	0.46	Lose2	0.6364	n/a	No	2.632	n/a	n/a	NoResponse	-1	n/a	n/a	1	32	Blank	Loss	True
313.975	0.3	Lose2	0.6364	0.001	No	2.632	-0.001	2.0	NoResponse	-1	0.258	n/a	1	32	ButtonPress	Loss	True
314.416	1.45	Lose2	0.6364	n/a	No	2.632	n/a	5.0	NoResponse	-1	0.048	313.464	1	32	Feedback	Loss	True
315.866	2.632	Lose2	0.6364	n/a	No	2.632	n/a	n/a	NoResponse	-1	0.0	n/a	1	32	ISIslide	Loss	True
318.515	0.25	Win2	0.6175999999999999	0.0	No	2.685	0.015	n/a	NoResponse	0	n/a	n/a	1	33	Cue	MissedWin	True
318.765	4.0	Win2	0.6175999999999999	0.0	No	2.685	0.0	n/a	NoResponse	0	n/a	n/a	1	33	Fixation	MissedWin	True
322.763	0.25	Win2	0.6175999999999999	0.002	No	2.685	-0.002	2.0	NoResponse	0	0.273	322.036	1	33	Target	MissedWin	True
323.013	0.45	Win2	0.6175999999999999	n/a	No	2.685	n/a	n/a	NoResponse	0	n/a	n/a	1	33	Blank	MissedWin	True
323.036	0.3	Win2	0.6175999999999999	0.002	No	2.685	-0.002	2.0	NoResponse	0	0.273	n/a	1	33	ButtonPress	MissedWin	True
323.463	1.45	Win2	0.6175999999999999	n/a	No	2.685	n/a	5.0	NoResponse	0	0.025	322.488	1	33	Feedback	MissedWin	True
324.913	2.685	Win2	0.6175999999999999	n/a	No	2.685	n/a	n/a	NoResponse	0	0.0	n/a	1	33	ISIslide	MissedWin	True
327.628	0.25	Lose2	0.6286	0.0	Yes	2.622	0.028	n/a	GoodResponse	0	n/a	n/a	1	34	Cue	AvoidedLoss	True
327.878	4.05	Lose2	0.6286	0.0	Yes	2.622	0.0	n/a	GoodResponse	0	n/a	n/a	1	34	Fixation	AvoidedLoss	True
331.927	0.26	Lose2	0.6286	0.001	Yes	2.622	-0.001	2.0	GoodResponse	0	0.255	331.182	1	34	Target	AvoidedLoss	True
332.182	0.3	Lose2	0.6286	0.001	Yes	2.622	-0.001	2.0	GoodResponse	0	0.255	n/a	1	34	ButtonPress	AvoidedLoss	True
332.193	0.44	Lose2	0.6286	n/a	Yes	2.622	n/a	n/a	GoodResponse	0	n/a	n/a	1	34	Blank	AvoidedLoss	True
332.627	1.45	Lose2	0.6286	n/a	Yes	2.622	n/a	5.0	GoodResponse	0	0.032	331.659	1	34	Feedback	AvoidedLoss	True
334.076	2.622	Lose2	0.6286	n/a	Yes	2.622	n/a	n/a	GoodResponse	0	0.0	n/a	1	34	ISIslide	AvoidedLoss	True
336.725	0.25	Lose2	0.6389	0.0	Yes	2.675	0.025	n/a	GoodResponse	0	n/a	n/a	1	35	Cue	AvoidedLoss	True
336.975	4.0	Lose2	0.6389	0.0	Yes	2.675	0.0	n/a	GoodResponse	0	n/a	n/a	1	35	Fixation	AvoidedLoss	True
340.974	0.27	Lose2	0.6389	0.001	Yes	2.675	-0.001	2.0	GoodResponse	0	0.247	340.221	1	35	Target	AvoidedLoss	True
341.221	0.3	Lose2	0.6389	0.001	Yes	2.675	-0.001	2.0	GoodResponse	0	0.247	n/a	1	35	ButtonPress	AvoidedLoss	True
341.257	0.43	Lose2	0.6389	n/a	Yes	2.675	n/a	n/a	GoodResponse	0	n/a	n/a	1	35	Blank	AvoidedLoss	True
341.673	1.45	Lose2	0.6389	n/a	Yes	2.675	n/a	5.0	GoodResponse	0	0.011	340.684	1	35	Feedback	AvoidedLoss	True
343.123	2.675	Lose2	0.6389	n/a	Yes	2.675	n/a	n/a	GoodResponse	0	0.0	n/a	1	35	ISIslide	AvoidedLoss	True
345.822	0.25	Control	0.6215999999999999	0.0	No	2.678	0.022	n/a	NoResponse	0	n/a	n/a	1	36	Cue	Neutral	True
346.072	4.0	Control	0.6215999999999999	0.0	No	2.678	0.0	n/a	NoResponse	0	n/a	n/a	1	36	Fixation	Neutral	True
350.071	0.28	Control	0.6215999999999999	0.001	No	2.678	-0.001	2.0	NoResponse	0	0.325	349.396	1	36	Target	Neutral	True
350.354	0.42	Control	0.6215999999999999	n/a	No	2.678	n/a	n/a	NoResponse	0	n/a	n/a	1	36	Blank	Neutral	True
350.396	0.3	Control	0.6215999999999999	0.001	No	2.678	-0.001	2.0	NoResponse	0	0.325	n/a	1	36	ButtonPress	Neutral	True
350.77	1.45	Control	0.6215999999999999	n/a	No	2.678	n/a	5.0	NoResponse	0	0.035	349.805	1	36	Feedback	Neutral	True
352.22	2.678	Control	0.6215999999999999	n/a	No	2.678	n/a	n/a	NoResponse	0	0.0	n/a	1	36	ISIslide	Neutral	True
354.919	0.25	Win2	0.6315999999999999	0.0	Yes	2.881	0.019	n/a	GoodResponse	1	n/a	n/a	2	37	Cue	Win	True
355.169	4.0	Win2	0.6315999999999999	0.0	Yes	2.881	0.0	n/a	GoodResponse	1	n/a	n/a	2	37	Fixation	Win	True
359.167	0.29	Win2	0.6315999999999999	0.002	Yes	2.881	-0.002	2.0	GoodResponse	1	0.238	358.405	2	37	Target	Win	True
359.405	0.3	Win2	0.6315999999999999	0.002	Yes	2.881	-0.002	2.0	GoodResponse	1	0.238	n/a	2	37	ButtonPress	Win	True
359.467	0.41	Win2	0.6315999999999999	n/a	Yes	2.881	n/a	n/a	GoodResponse	1	n/a	n/a	2	37	Blank	Win	True
359.867	1.45	Win2	0.6315999999999999	n/a	Yes	2.881	n/a	5.0	GoodResponse	1	0.011	358.878	2	37	Feedback	Win	True
361.317	2.881	Win2	0.6315999999999999	n/a	Yes	2.881	n/a	n/a	GoodResponse	1	0.0	n/a	2	37	ISIslide	Win	True
364.216	0.25	Lose2	0.6409999999999999	0.0	Yes	2.834	0.016	n/a	GoodResponse	0	n/a	n/a	2	38	Cue	AvoidedLoss	True
364.466	3.95	Lose2	0.6409999999999999	0.0	Yes	2.834	0.0	n/a	GoodResponse	0	n/a	n/a	2	38	Fixation	AvoidedLoss	True
368.414	0.3	Lose2	0.6409999999999999	0.002	Yes	2.834	-0.002	2.0	GoodResponse	0	0.252	367.666	2	38	Target	AvoidedLoss	True
368.666	0.3	Lose2	0.6409999999999999	0.002	Yes	2.834	-0.002	2.0	GoodResponse	0	0.252	n/a	2	38	ButtonPress	AvoidedLoss	True
368.714	0.4	Lose2	0.6409999999999999	n/a	Yes	2.834	n/a	n/a	GoodResponse	0	n/a	n/a	2	38	Blank	AvoidedLoss	True
369.114	1.45	Lose2	0.6409999999999999	n/a	Yes	2.834	n/a	5.0	GoodResponse	0	0.032	368.146	2	38	Feedback	AvoidedLoss	True
370.563	2.834	Lose2	0.6409999999999999	n/a	Yes	2.834	n/a	n/a	GoodResponse	0	0.0	n/a	2	38	ISIslide	AvoidedLoss	True
373.429	0.25	Win2	0.65	0.0	Yes	2.971	0.029	n/a	GoodResponse	1	n/a	n/a	3	39	Cue	Win	True
373.679	4.1	Win2	0.65	0.0	Yes	2.971	0.0	n/a	GoodResponse	1	n/a	n/a	3	39	Fixation	Win	True
377.778	0.31	Win2	0.65	0.001	Yes	2.971	-0.001	2.0	GoodResponse	1	0.245	377.023	3	39	Target	Win	True
378.023	0.3	Win2	0.65	0.001	Yes	2.971	-0.001	2.0	GoodResponse	1	0.245	n/a	3	39	ButtonPress	Win	True
378.094	0.39	Win2	0.65	n/a	Yes	2.971	n/a	n/a	GoodResponse	1	n/a	n/a	3	39	Blank	Win	True
378.477	1.45	Win2	0.65	n/a	Yes	2.971	n/a	5.0	GoodResponse	1	0.035	377.512	3	39	Feedback	Win	True
379.927	2.971	Win2	0.65	n/a	Yes	2.971	n/a	n/a	GoodResponse	1	0.0	n/a	3	39	ISIslide	Win	True
382.926	0.25	Win2	0.6341	0.0	No	2.724	0.026	n/a	NoResponse	0	n/a	n/a	3	40	Cue	MissedWin	True
383.176	3.95	Win2	0.6341	0.0	No	2.724	0.0	2.0	NoResponse	0	3.858	386.034	3	40	Fixation	MissedWin	True
387.034	0.3	Win2	0.6341	0.0	No	2.724	0.0	2.0	NoResponse	0	3.858	n/a	3	40	ButtonPress	MissedWin	True
387.124	0.32	Win2	0.6341	0.002	No	2.724	-0.002	n/a	NoResponse	0	n/a	n/a	3	40	Target	MissedWin	True
387.458	0.38	Win2	0.6341	n/a	No	2.724	n/a	n/a	NoResponse	0	n/a	n/a	3	40	Blank	MissedWin	True
387.824	1.45	Win2	0.6341	n/a	No	2.724	n/a	5.0	NoResponse	0	0.007	386.831	3	40	Feedback	MissedWin	True
389.274	2.724	Win2	0.6341	n/a	No	2.724	n/a	n/a	NoResponse	0	0.0	n/a	3	40	ISIslide	MissedWin	True
392.023	0.25	Win2	0.6429	0.0	Yes	2.777	0.023	n/a	GoodResponse	1	n/a	n/a	4	41	Cue	Win	True
392.272	3.9	Win2	0.6429	0.001	Yes	2.777	-0.001	n/a	GoodResponse	1	n/a	n/a	4	41	Fixation	Win	True
396.171	0.33	Win2	0.6429	0.002	Yes	2.777	-0.002	2.0	GoodResponse	1	0.326	395.497	4	41	Target	Win	True
396.497	0.3	Win2	0.6429	0.002	Yes	2.777	-0.002	2.0	GoodResponse	1	0.326	n/a	4	41	ButtonPress	Win	True
396.504	0.37	Win2	0.6429	n/a	Yes	2.777	n/a	n/a	GoodResponse	1	n/a	n/a	4	41	Blank	Win	True
396.871	1.45	Win2	0.6429	n/a	Yes	2.777	n/a	5.0	GoodResponse	1	0.031	395.902	4	41	Feedback	Win	True
398.32	2.777	Win2	0.6429	n/a	Yes	2.777	n/a	n/a	GoodResponse	1	0.0	n/a	4	41	ISIslide	Win	True
401.119	0.25	Control	0.6512	0.001	Yes	2.931	0.019	n/a	GoodResponse	0	n/a	n/a	4	42	Cue	Neutral	True
401.369	3.85	Control	0.6512	0.0	Yes	2.931	0.0	n/a	GoodResponse	0	n/a	n/a	4	42	Fixation	Neutral	True
405.218	0.34	Control	0.6512	0.001	Yes	2.931	-0.001	2.0	GoodResponse	0	0.277	404.495	4	42	Target	Neutral	True
405.495	0.3	Control	0.6512	0.001	Yes	2.931	-0.001	2.0	GoodResponse	0	0.277	n/a	4	42	ButtonPress	Neutral	True
405.568	0.36	Control	0.6512	n/a	Yes	2.931	n/a	n/a	GoodResponse	0	n/a	n/a	4	42	Blank	Neutral	True
405.918	1.45	Control	0.6512	n/a	Yes	2.931	n/a	5.0	GoodResponse	0	0.008	404.926	4	42	Feedback	Neutral	True
407.367	2.931	Control	0.6512	n/a	Yes	2.931	n/a	n/a	GoodResponse	0	0.0	n/a	4	42	ISIslide	Neutral	True
410.316	0.25	Win2	0.6591	0.0	Yes	3.184	0.016	n/a	GoodResponse	1	n/a	n/a	5	43	Cue	Win	True
410.566	4.0	Win2	0.6591	0.0	Yes	3.184	0.0	n/a	GoodResponse	1	n/a	n/a	5	43	Fixation	Win	True
414.565	0.35	Win2	0.6591	0.001	Yes	3.184	-0.001	2.0	GoodResponse	1	0.227	413.792	5	43	Target	Win	True
414.792	0.3	Win2	0.6591	0.001	Yes	3.184	-0.001	2.0	GoodResponse	1	0.227	n/a	5	43	ButtonPress	Win	True
414.915	0.35	Win2	0.6591	n/a	Yes	3.184	n/a	n/a	GoodResponse	1	n/a	n/a	5	43	Blank	Win	True
415.264	1.45	Win2	0.6591	n/a	Yes	3.184	n/a	5.0	GoodResponse	1	0.028	414.292	5	43	Feedback	Win	True
416.714	3.184	Win2	0.6591	n/a	Yes	3.184	n/a	n/a	GoodResponse	1	0.0	n/a	5	43	ISIslide	Win	True
419.93	0.25	Win2	0.6667000000000001	0.0	Yes	2.97	0.03	n/a	GoodResponse	1	n/a	n/a	6	44	Cue	Win	True
420.179	4.0	Win2	0.6667000000000001	0.001	Yes	2.97	-0.001	n/a	GoodResponse	1	n/a	n/a	6	44	Fixation	Win	True
424.178	0.35	Win2	0.6667000000000001	0.002	Yes	2.97	-0.002	2.0	GoodResponse	1	0.325	423.503	6	44	Target	Win	True
424.503	0.3	Win2	0.6667000000000001	0.002	Yes	2.97	-0.002	2.0	GoodResponse	1	0.325	n/a	6	44	ButtonPress	Win	True
424.528	0.35	Win2	0.6667000000000001	n/a	Yes	2.97	n/a	n/a	GoodResponse	1	n/a	n/a	6	44	Blank	Win	True
424.878	1.45	Win2	0.6667000000000001	n/a	Yes	2.97	n/a	5.0	GoodResponse	1	0.024	423.902	6	44	Feedback	Win	True
426.327	2.97	Win2	0.6667000000000001	n/a	Yes	2.97	n/a	n/a	GoodResponse	1	0.0	n/a	6	44	ISIslide	Win	True
429.326	0.25	Control	0.6739	0.0	Yes	2.874	0.026	n/a	GoodResponse	0	n/a	n/a	6	45	Cue	Neutral	True
429.576	4.1	Control	0.6739	0.0	Yes	2.874	0.0	n/a	GoodResponse	0	n/a	n/a	6	45	Fixation	Neutral	True
433.675	0.34	Control	0.6739	0.001	Yes	2.874	-0.001	2.0	GoodResponse	0	0.225	432.9	6	45	Target	Neutral	True
433.9	0.3	Control	0.6739	0.001	Yes	2.874	-0.001	2.0	GoodResponse	0	0.225	n/a	6	45	ButtonPress	Neutral	True
434.025	0.36	Control	0.6739	n/a	Yes	2.874	n/a	n/a	GoodResponse	0	n/a	n/a	6	45	Blank	Neutral	True
434.374	1.45	Control	0.6739	n/a	Yes	2.874	n/a	5.0	GoodResponse	0	0.04	433.414	6	45	Feedback	Neutral	True
435.824	2.874	Control	0.6739	n/a	Yes	2.874	n/a	n/a	GoodResponse	0	0.0	n/a	6	45	ISIslide	Neutral	True
438.723	0.25	Lose2	0.6809000000000001	0.0	Yes	3.377	0.023	n/a	GoodResponse	0	n/a	n/a	6	46	Cue	AvoidedLoss	True
438.973	4.0	Lose2	0.6809000000000001	0.0	Yes	3.377	0.0	n/a	GoodResponse	0	n/a	n/a	6	46	Fixation	AvoidedLoss	True
442.971	0.33	Lose2	0.6809000000000001	0.002	Yes	3.377	-0.002	2.0	GoodResponse	0	0.242	442.213	6	46	Target	AvoidedLoss	True
443.213	0.3	Lose2	0.6809000000000001	0.002	Yes	3.377	-0.002	2.0	GoodResponse	0	0.242	n/a	6	46	ButtonPress	AvoidedLoss	True
443.305	0.37	Lose2	0.6809000000000001	n/a	Yes	3.377	n/a	n/a	GoodResponse	0	n/a	n/a	6	46	Blank	AvoidedLoss	True
443.671	1.45	Lose2	0.6809000000000001	n/a	Yes	3.377	n/a	5.0	GoodResponse	0	0.012	442.683	6	46	Feedback	AvoidedLoss	True
445.121	3.377	Lose2	0.6809000000000001	n/a	Yes	3.377	n/a	n/a	GoodResponse	0	0.0	n/a	6	46	ISIslide	AvoidedLoss	True
448.52	0.25	Lose2	0.6875	0.0	Yes	2.68	0.02	n/a	GoodResponse	0	n/a	n/a	6	47	Cue	AvoidedLoss	True
448.769	4.0	Lose2	0.6875	0.001	Yes	2.68	-0.001	n/a	GoodResponse	0	n/a	n/a	6	47	Fixation	AvoidedLoss	True
452.768	0.32	Lose2	0.6875	0.002	Yes	2.68	-0.002	2.0	GoodResponse	0	0.277	452.045	6	47	Target	AvoidedLoss	True
453.045	0.3	Lose2	0.6875	0.002	Yes	2.68	-0.002	2.0	GoodResponse	0	0.277	n/a	6	47	ButtonPress	AvoidedLoss	True
453.101	0.38	Lose2	0.6875	n/a	Yes	2.68	n/a	n/a	GoodResponse	0	n/a	n/a	6	47	Blank	AvoidedLoss	True
453.468	1.45	Lose2	0.6875	n/a	Yes	2.68	n/a	5.0	GoodResponse	0	0.019	452.487	6	47	Feedback	AvoidedLoss	True
454.917	2.68	Lose2	0.6875	n/a	Yes	2.68	n/a	n/a	GoodResponse	0	0.0	n/a	6	47	ISIslide	AvoidedLoss	True
457.616	0.25	Lose2	0.6939	0.0	Yes	3.034	0.016	n/a	GoodResponse	0	n/a	n/a	6	48	Cue	AvoidedLoss	True
457.866	3.95	Lose2	0.6939	0.0	Yes	3.034	0.0	n/a	GoodResponse	0	n/a	n/a	6	48	Fixation	AvoidedLoss	True
461.815	0.31	Lose2	0.6939	0.001	Yes	3.034	-0.001	2.0	GoodResponse	0	0.234	461.049	6	48	Target	AvoidedLoss	True
462.049	0.3	Lose2	0.6939	0.001	Yes	3.034	-0.001	2.0	GoodResponse	0	0.234	n/a	6	48	ButtonPress	AvoidedLoss	True
462.131	0.39	Lose2	0.6939	n/a	Yes	3.034	n/a	n/a	GoodResponse	0	n/a	n/a	6	48	Blank	AvoidedLoss	True
462.515	1.45	Lose2	0.6939	n/a	Yes	3.034	n/a	5.0	GoodResponse	0	0.045	461.56	6	48	Feedback	AvoidedLoss	True
463.964	3.034	Lose2	0.6939	n/a	Yes	3.034	n/a	n/a	GoodResponse	0	0.0	n/a	6	48	ISIslide	AvoidedLoss	True
467.03	0.25	Control	0.7	0.0	Yes	2.87	0.03	n/a	GoodResponse	0	n/a	n/a	6	49	Cue	Neutral	True
467.28	4.0	Control	0.7	0.0	Yes	2.87	0.0	n/a	GoodResponse	0	n/a	n/a	6	49	Fixation	Neutral	True
471.278	0.3	Control	0.7	0.002	Yes	2.87	-0.002	2.0	GoodResponse	0	0.244	470.522	6	49	Target	Neutral	True
471.522	0.3	Control	0.7	0.002	Yes	2.87	-0.002	2.0	GoodResponse	0	0.244	n/a	6	49	ButtonPress	Neutral	True
471.578	0.4	Control	0.7	n/a	Yes	2.87	n/a	n/a	GoodResponse	0	n/a	n/a	6	49	Blank	Neutral	True
471.978	1.45	Control	0.7	n/a	Yes	2.87	n/a	5.0	GoodResponse	0	0.046	471.024	6	49	Feedback	Neutral	True
473.428	2.87	Control	0.7	n/a	Yes	2.87	n/a	n/a	GoodResponse	0	0.0	n/a	6	49	ISIslide	Neutral	True
476.327	0.25	Control	0.7059000000000001	0.0	Yes	2.773	0.027	n/a	GoodResponse	0	n/a	n/a	6	50	Cue	Neutral	True
476.576	4.0	Control	0.7059000000000001	0.001	Yes	2.773	-0.001	n/a	GoodResponse	0	n/a	n/a	6	50	Fixation	Neutral	True
480.575	0.29	Control	0.7059000000000001	0.002	Yes	2.773	-0.002	2.0	GoodResponse	0	0.256	479.831	6	50	Target	Neutral	True
480.831	0.3	Control	0.7059000000000001	0.002	Yes	2.773	-0.002	2.0	GoodResponse	0	0.256	n/a	6	50	ButtonPress	Neutral	True
480.875	0.41	Control	0.7059000000000001	n/a	Yes	2.773	n/a	n/a	GoodResponse	0	n/a	n/a	6	50	Blank	Neutral	True
481.275	1.45	Control	0.7059000000000001	n/a	Yes	2.773	n/a	5.0	GoodResponse	0	0.017	480.292	6	50	Feedback	Neutral	True
482.724	2.773	Control	0.7059000000000001	n/a	Yes	2.773	n/a	n/a	GoodResponse	0	0.0	n/a	6	50	ISIslide	Neutral	True
485.523	0.25	Control	0.6923	0.0	No	2.727	0.023	n/a	NoResponse	0	n/a	n/a	6	51	Cue	Neutral	True
485.773	3.95	Control	0.6923	0.0	No	2.727	0.0	n/a	NoResponse	0	n/a	n/a	6	51	Fixation	Neutral	True
489.722	0.28	Control	0.6923	0.001	No	2.727	-0.001	2.0	NoResponse	0	0.311	489.033	6	51	Target	Neutral	True
490.005	0.42	Control	0.6923	n/a	No	2.727	n/a	n/a	NoResponse	0	n/a	n/a	6	51	Blank	Neutral	True
490.033	0.3	Control	0.6923	0.001	No	2.727	-0.001	2.0	NoResponse	0	0.311	n/a	6	51	ButtonPress	Neutral	True
490.422	1.45	Control	0.6923	n/a	No	2.727	n/a	5.0	NoResponse	0	0.041	489.463	6	51	Feedback	Neutral	True
491.871	2.727	Control	0.6923	n/a	No	2.727	n/a	n/a	NoResponse	0	0.0	n/a	6	51	ISIslide	Neutral	True
494.62	0.25	Control	0.6792	0.0	No	2.63	0.02	n/a	LatePress	0	n/a	n/a	6	52	Cue	Neutral	True
494.87	4.05	Control	0.6792	0.0	No	2.63	0.0	n/a	LatePress	0	n/a	n/a	6	52	Fixation	Neutral	True
498.919	0.27	Control	0.6792	0.001	No	2.63	-0.001	2.0	LatePress	0	0.273	498.192	6	52	Target	Neutral	True
499.192	0.3	Control	0.6792	0.001	No	2.63	-0.001	2.0	LatePress	0	0.273	n/a	6	52	ButtonPress	Neutral	True
499.202	0.43	Control	0.6792	n/a	No	2.63	n/a	n/a	LatePress	0	n/a	n/a	6	52	Blank	Neutral	True
499.618	1.45	Control	0.6792	n/a	No	2.63	n/a	5.0	LatePress	0	0.015	498.633	6	52	Feedback	Neutral	True
501.068	2.63	Control	0.6792	n/a	No	2.63	n/a	n/a	LatePress	0	0.0	n/a	6	52	ISIslide	Neutral	True
503.717	0.25	Win2	0.6851999999999999	0.0	Yes	2.933	0.017	n/a	GoodResponse	1	n/a	n/a	7	53	Cue	Win	True
503.967	4.05	Win2	0.6851999999999999	0.0	Yes	2.933	0.0	n/a	GoodResponse	1	n/a	n/a	7	53	Fixation	Win	True
508.015	0.26	Win2	0.6851999999999999	0.002	Yes	2.933	-0.002	2.0	GoodResponse	1	0.246	507.261	7	53	Target	Win	True
508.261	0.3	Win2	0.6851999999999999	0.002	Yes	2.933	-0.002	2.0	GoodResponse	1	0.246	n/a	7	53	ButtonPress	Win	True
508.282	0.44	Win2	0.6851999999999999	n/a	Yes	2.933	n/a	n/a	GoodResponse	1	n/a	n/a	7	53	Blank	Win	True
508.715	1.45	Win2	0.6851999999999999	n/a	Yes	2.933	n/a	5.0	GoodResponse	1	0.04	507.755	7	53	Feedback	Win	True
510.165	2.933	Win2	0.6851999999999999	n/a	Yes	2.933	n/a	n/a	GoodResponse	1	0.0	n/a	7	53	ISIslide	Win	True
513.114	0.25	Win2	0.6909000000000001	0.0	Yes	2.736	0.014	n/a	GoodResponse	1	n/a	n/a	8	54	Cue	Win	True
513.364	3.95	Win2	0.6909000000000001	0.0	Yes	2.736	0.0	n/a	GoodResponse	1	n/a	n/a	8	54	Fixation	Win	True
517.312	0.25	Win2	0.6909000000000001	0.002	Yes	2.736	-0.002	2.0	GoodResponse	1	0.222	516.534	8	54	Target	Win	True
517.534	0.3	Win2	0.6909000000000001	0.002	Yes	2.736	-0.002	2.0	GoodResponse	1	0.222	n/a	8	54	ButtonPress	Win	True
517.562	0.45	Win2	0.6909000000000001	n/a	Yes	2.736	n/a	n/a	GoodResponse	1	n/a	n/a	8	54	Blank	Win	True
518.012	1.45	Win2	0.6909000000000001	n/a	Yes	2.736	n/a	5.0	GoodResponse	1	0.011	517.023	8	54	Feedback	Win	True
519.461	2.736	Win2	0.6909000000000001	n/a	Yes	2.736	n/a	n/a	GoodResponse	1	0.0	n/a	8	54	ISIslide	Win	True
522.227	0.25	Control	0.6786	0.0	No	3.023	0.027	n/a	PrematurePress	0	n/a	n/a	8	55	Cue	Neutral	True
522.477	3.95	Control	0.6786	0.0	No	3.023	0.0	n/a	PrematurePress	0	n/a	n/a	8	55	Fixation	Neutral	True
526.426	0.24	Control	0.6786	0.001	No	3.023	-0.001	2.0	PrematurePress	0	0.035	525.461	8	55	Target	Neutral	True
526.461	0.3	Control	0.6786	0.001	No	3.023	-0.001	2.0	PrematurePress	0	0.035	n/a	8	55	ButtonPress	Neutral	True
526.676	0.46	Control	0.6786	n/a	No	3.023	n/a	n/a	PrematurePress	0	n/a	n/a	8	55	Blank	Neutral	True
527.125	1.45	Control	0.6786	n/a	No	3.023	n/a	5.0	PrematurePress	0	0.02	526.145	8	55	Feedback	Neutral	True
528.575	3.023	Control	0.6786	n/a	No	3.023	n/a	n/a	PrematurePress	0	0.0	n/a	8	55	ISIslide	Neutral	True
531.624	0.25	Control	0.6667000000000001	0.0	No	2.826	0.024	n/a	NoResponse	0	n/a	n/a	8	56	Cue	Neutral	True
531.874	3.95	Control	0.6667000000000001	0.0	No	2.826	0.0	n/a	NoResponse	0	n/a	n/a	8	56	Fixation	Neutral	True
535.822	0.23	Control	0.6667000000000001	0.002	No	2.826	-0.002	2.0	NoResponse	0	0.244	535.066	8	56	Target	Neutral	True
536.056	0.47	Control	0.6667000000000001	n/a	No	2.826	n/a	n/a	NoResponse	0	n/a	n/a	8	56	Blank	Neutral	True
536.066	0.3	Control	0.6667000000000001	0.002	No	2.826	-0.002	2.0	NoResponse	0	0.244	n/a	8	56	ButtonPress	Neutral	True
536.522	1.45	Control	0.6667000000000001	n/a	No	2.826	n/a	5.0	NoResponse	0	0.038	535.56	8	56	Feedback	Neutral	True
537.972	2.826	Control	0.6667000000000001	n/a	No	2.826	n/a	n/a	NoResponse	0	0.0	n/a	8	56	ISIslide	Neutral	True
540.821	0.25	Control	0.6552	0.0	No	3.479	0.021	n/a	NoResponse	0	n/a	n/a	8	57	Cue	Neutral	True
541.071	4.0	Control	0.6552	0.0	No	3.479	0.0	n/a	NoResponse	0	n/a	n/a	8	57	Fixation	Neutral	True
545.069	0.22	Control	0.6552	0.002	No	3.479	-0.002	2.0	NoResponse	0	0.463	544.532	8	57	Target	Neutral	True
545.302	0.48	Control	0.6552	n/a	No	3.479	n/a	n/a	NoResponse	0	n/a	n/a	8	57	Blank	Neutral	True
545.532	0.3	Control	0.6552	0.002	No	3.479	-0.002	2.0	NoResponse	0	0.463	n/a	8	57	ButtonPress	Neutral	True
545.769	1.45	Control	0.6552	n/a	No	3.479	n/a	5.0	NoResponse	0	0.011	544.78	8	57	Feedback	Neutral	True
547.218	3.479	Control	0.6552	n/a	No	3.479	n/a	n/a	NoResponse	0	0.0	n/a	8	57	ISIslide	Neutral	True
550.717	0.25	Win2	0.6441	0.0	No	2.733	0.017	n/a	NoResponse	0	n/a	n/a	8	58	Cue	MissedWin	True
550.967	4.05	Win2	0.6441	0.0	No	2.733	0.0	n/a	NoResponse	0	n/a	n/a	8	58	Fixation	MissedWin	True
555.016	0.22	Win2	0.6441	0.001	No	2.733	-0.001	2.0	NoResponse	0	0.288	554.304	8	58	Target	MissedWin	True
555.232	0.48	Win2	0.6441	n/a	No	2.733	n/a	n/a	NoResponse	0	n/a	n/a	8	58	Blank	MissedWin	True
555.304	0.3	Win2	0.6441	0.001	No	2.733	-0.001	2.0	NoResponse	0	0.288	n/a	8	58	ButtonPress	MissedWin	True
555.715	1.45	Win2	0.6441	n/a	No	2.733	n/a	5.0	NoResponse	0	0.015	554.73	8	58	Feedback	MissedWin	True
557.165	2.733	Win2	0.6441	n/a	No	2.733	n/a	n/a	NoResponse	0	0.0	n/a	8	58	ISIslide	MissedWin	True
559.914	0.25	Lose2	0.6333	0.0	No	2.686	0.014	n/a	NoResponse	-1	n/a	n/a	7	59	Cue	Loss	True
560.164	4.0	Lose2	0.6333	0.0	No	2.686	0.0	n/a	NoResponse	-1	n/a	n/a	7	59	Fixation	Loss	True
564.163	0.23	Lose2	0.6333	0.001	No	2.686	-0.001	2.0	NoResponse	-1	0.233	563.396	7	59	Target	Loss	True
564.396	0.47	Lose2	0.6333	n/a	No	2.686	n/a	n/a	NoResponse	-1	n/a	n/a	7	59	Blank	Loss	True
564.396	0.3	Lose2	0.6333	0.001	No	2.686	-0.001	2.0	NoResponse	-1	0.233	n/a	7	59	ButtonPress	Loss	True
564.862	1.45	Lose2	0.6333	n/a	No	2.686	n/a	5.0	NoResponse	-1	0.039	563.901	7	59	Feedback	Loss	True
566.312	2.686	Lose2	0.6333	n/a	No	2.686	n/a	n/a	NoResponse	-1	0.0	n/a	7	59	ISIslide	Loss	True
569.028	0.25	Control	0.6393	0.0	Yes	2.672	0.028	n/a	GoodResponse	0	n/a	n/a	7	60	Cue	Neutral	True
569.277	4.0	Control	0.6393	0.001	Yes	2.672	-0.001	n/a	GoodResponse	0	n/a	n/a	7	60	Fixation	Neutral	True
573.276	0.24	Control	0.6393	0.002	Yes	2.672	-0.002	2.0	GoodResponse	0	0.237	572.513	7	60	Target	Neutral	True
573.513	0.3	Control	0.6393	0.002	Yes	2.672	-0.002	2.0	GoodResponse	0	0.237	n/a	7	60	ButtonPress	Neutral	True
573.526	0.46	Control	0.6393	n/a	Yes	2.672	n/a	n/a	GoodResponse	0	n/a	n/a	7	60	Blank	Neutral	True
573.976	1.45	Control	0.6393	n/a	Yes	2.672	n/a	5.0	GoodResponse	0	0.047	573.023	7	60	Feedback	Neutral	True
575.425	2.672	Control	0.6393	n/a	Yes	2.672	n/a	n/a	GoodResponse	0	0.0	n/a	7	60	ISIslide	Neutral	True
578.124	0.25	Lose2	0.629	0.0	No	2.976	0.024	n/a	NoResponse	-1	n/a	n/a	6	61	Cue	Loss	True
578.374	4.0	Lose2	0.629	0.0	No	2.976	0.0	n/a	NoResponse	-1	n/a	n/a	6	61	Fixation	Loss	True
582.373	0.25	Lose2	0.629	0.001	No	2.976	-0.001	2.0	NoResponse	-1	0.258	581.631	6	61	Target	Loss	True
582.623	0.45	Lose2	0.629	n/a	No	2.976	n/a	n/a	NoResponse	-1	n/a	n/a	6	61	Blank	Loss	True
582.631	0.3	Lose2	0.629	0.001	No	2.976	-0.001	2.0	NoResponse	-1	0.258	n/a	6	61	ButtonPress	Loss	True
583.073	1.45	Lose2	0.629	n/a	No	2.976	n/a	5.0	NoResponse	-1	0.023	582.096	6	61	Feedback	Loss	True
584.522	2.976	Lose2	0.629	n/a	No	2.976	n/a	n/a	NoResponse	-1	0.0	n/a	6	61	ISIslide	Loss	True
587.521	0.25	Lose2	0.619	0.0	No	2.879	0.021	n/a	NoResponse	-1	n/a	n/a	5	62	Cue	Loss	True
587.771	3.9	Lose2	0.619	0.0	No	2.879	0.0	n/a	NoResponse	-1	n/a	n/a	5	62	Fixation	Loss	True
591.67	0.26	Lose2	0.619	0.001	No	2.879	-0.001	2.0	NoResponse	-1	0.31	590.98	5	62	Target	Loss	True
591.936	0.44	Lose2	0.619	n/a	No	2.879	n/a	n/a	NoResponse	-1	n/a	n/a	5	62	Blank	Loss	True
591.98	0.3	Lose2	0.619	0.001	No	2.879	-0.001	2.0	NoResponse	-1	0.31	n/a	5	62	ButtonPress	Loss	True
592.369	1.45	Lose2	0.619	n/a	No	2.879	n/a	5.0	NoResponse	-1	0.044	591.413	5	62	Feedback	Loss	True
593.819	2.879	Lose2	0.619	n/a	No	2.879	n/a	n/a	NoResponse	-1	0.0	n/a	5	62	ISIslide	Loss	True
596.718	0.25	Lose2	0.625	0.0	Yes	2.632	0.018	n/a	GoodResponse	0	n/a	n/a	5	63	Cue	AvoidedLoss	True
596.968	4.05	Lose2	0.625	0.0	Yes	2.632	0.0	n/a	GoodResponse	0	n/a	n/a	5	63	Fixation	AvoidedLoss	True
601.016	0.27	Lose2	0.625	0.002	Yes	2.632	-0.002	2.0	GoodResponse	0	0.222	600.238	5	63	Target	AvoidedLoss	True
601.238	0.3	Lose2	0.625	0.002	Yes	2.632	-0.002	2.0	GoodResponse	0	0.222	n/a	5	63	ButtonPress	AvoidedLoss	True
601.3	0.43	Lose2	0.625	n/a	Yes	2.632	n/a	n/a	GoodResponse	0	n/a	n/a	5	63	Blank	AvoidedLoss	True
601.716	1.45	Lose2	0.625	n/a	Yes	2.632	n/a	5.0	GoodResponse	0	0.014	600.73	5	63	Feedback	AvoidedLoss	True
603.166	2.632	Lose2	0.625	n/a	Yes	2.632	n/a	n/a	GoodResponse	0	0.0	n/a	5	63	ISIslide	AvoidedLoss	True
605.815	0.25	Win2	0.6154	0.0	No	3.135	0.015	n/a	NoResponse	0	n/a	n/a	5	64	Cue	MissedWin	True
606.065	4.15	Win2	0.6154	0.0	No	3.135	0.0	n/a	NoResponse	0	n/a	n/a	5	64	Fixation	MissedWin	True
610.213	0.28	Win2	0.6154	0.002	No	3.135	-0.002	2.0	NoResponse	0	0.318	609.531	5	64	Target	MissedWin	True
610.496	0.42	Win2	0.6154	n/a	No	3.135	n/a	n/a	NoResponse	0	n/a	n/a	5	64	Blank	MissedWin	True
610.531	0.3	Win2	0.6154	0.002	No	3.135	-0.002	2.0	NoResponse	0	0.318	n/a	5	64	ButtonPress	MissedWin	True
610.913	1.45	Win2	0.6154	n/a	No	3.135	n/a	5.0	NoResponse	0	0.036	609.949	5	64	Feedback	MissedWin	True
612.362	3.135	Win2	0.6154	n/a	No	3.135	n/a	n/a	NoResponse	0	0.0	n/a	5	64	ISIslide	MissedWin	True
615.528	0.25	Control	0.6212	0.0	Yes	2.772	0.028	n/a	GoodResponse	0	n/a	n/a	5	65	Cue	Neutral	True
615.778	4.0	Control	0.6212	0.0	Yes	2.772	0.0	n/a	GoodResponse	0	n/a	n/a	5	65	Fixation	Neutral	True
619.776	0.29	Control	0.6212	0.002	Yes	2.772	-0.002	2.0	GoodResponse	0	0.256	619.032	5	65	Target	Neutral	True
620.032	0.3	Control	0.6212	0.002	Yes	2.772	-0.002	2.0	GoodResponse	0	0.256	n/a	5	65	ButtonPress	Neutral	True
620.076	0.41	Control	0.6212	n/a	Yes	2.772	n/a	n/a	GoodResponse	0	n/a	n/a	5	65	Blank	Neutral	True
620.476	1.45	Control	0.6212	n/a	Yes	2.772	n/a	5.0	GoodResponse	0	0.034	619.51	5	65	Feedback	Neutral	True
621.926	2.772	Control	0.6212	n/a	Yes	2.772	n/a	n/a	GoodResponse	0	0.0	n/a	5	65	ISIslide	Neutral	True
624.725	0.25	Win2	0.6269	0.0	Yes	2.775	0.025	n/a	GoodResponse	1	n/a	n/a	6	66	Cue	Win	True
624.975	3.9	Win2	0.6269	0.0	Yes	2.775	0.0	n/a	GoodResponse	1	n/a	n/a	6	66	Fixation	Win	True
628.873	0.3	Win2	0.6269	0.002	Yes	2.775	-0.002	2.0	GoodResponse	1	0.296	628.169	6	66	Target	Win	True
629.169	0.3	Win2	0.6269	0.002	Yes	2.775	-0.002	2.0	GoodResponse	1	0.296	n/a	6	66	ButtonPress	Win	True
629.173	0.4	Win2	0.6269	n/a	Yes	2.775	n/a	n/a	GoodResponse	1	n/a	n/a	6	66	Blank	Win	True
629.573	1.45	Win2	0.6269	n/a	Yes	2.775	n/a	5.0	GoodResponse	1	0.011	628.584	6	66	Feedback	Win	True
631.023	2.775	Win2	0.6269	n/a	Yes	2.775	n/a	n/a	GoodResponse	1	0.0	n/a	6	66	ISIslide	Win	True
633.822	0.25	Control	0.6324000000000001	0.0	Yes	2.728	0.022	n/a	GoodResponse	0	n/a	n/a	6	67	Cue	Neutral	True
634.071	3.95	Control	0.6324000000000001	0.001	Yes	2.728	-0.001	n/a	GoodResponse	0	n/a	n/a	6	67	Fixation	Neutral	True
638.02	0.31	Control	0.6324000000000001	0.002	Yes	2.728	-0.002	2.0	GoodResponse	0	0.27	637.29	6	67	Target	Neutral	True
638.29	0.3	Control	0.6324000000000001	0.002	Yes	2.728	-0.002	2.0	GoodResponse	0	0.27	n/a	6	67	ButtonPress	Neutral	True
638.337	0.39	Control	0.6324000000000001	n/a	Yes	2.728	n/a	n/a	GoodResponse	0	n/a	n/a	6	67	Blank	Neutral	True
638.72	1.45	Control	0.6324000000000001	n/a	Yes	2.728	n/a	5.0	GoodResponse	0	0.034	637.754	6	67	Feedback	Neutral	True
640.169	2.728	Control	0.6324000000000001	n/a	Yes	2.728	n/a	n/a	GoodResponse	0	0.0	n/a	6	67	ISIslide	Neutral	True
642.918	0.25	Win2	0.6377	0.0	Yes	3.082	0.018	n/a	GoodResponse	1	n/a	n/a	7	68	Cue	Win	True
643.168	4.0	Win2	0.6377	0.0	Yes	3.082	0.0	n/a	GoodResponse	1	n/a	n/a	7	68	Fixation	Win	True
647.167	0.32	Win2	0.6377	0.001	Yes	3.082	-0.001	2.0	GoodResponse	1	0.268	646.435	7	68	Target	Win	True
647.435	0.3	Win2	0.6377	0.001	Yes	3.082	-0.001	2.0	GoodResponse	1	0.268	n/a	7	68	ButtonPress	Win	True
647.483	0.38	Win2	0.6377	n/a	Yes	3.082	n/a	n/a	GoodResponse	1	n/a	n/a	7	68	Blank	Win	True
647.867	1.45	Win2	0.6377	n/a	Yes	3.082	n/a	5.0	GoodResponse	1	0.01	646.877	7	68	Feedback	Win	True
649.316	3.082	Win2	0.6377	n/a	Yes	3.082	n/a	n/a	GoodResponse	1	0.0	n/a	7	68	ISIslide	Win	True
652.415	0.25	Win2	0.6429	0.0	Yes	3.235	0.015	n/a	GoodResponse	1	n/a	n/a	8	69	Cue	Win	True
652.665	3.95	Win2	0.6429	0.0	Yes	3.235	0.0	n/a	GoodResponse	1	n/a	n/a	8	69	Fixation	Win	True
656.614	0.33	Win2	0.6429	0.001	Yes	3.235	-0.001	2.0	GoodResponse	1	0.254	655.868	8	69	Target	Win	True
656.868	0.3	Win2	0.6429	0.001	Yes	3.235	-0.001	2.0	GoodResponse	1	0.254	n/a	8	69	ButtonPress	Win	True
656.947	0.37	Win2	0.6429	n/a	Yes	3.235	n/a	n/a	GoodResponse	1	n/a	n/a	8	69	Blank	Win	True
657.313	1.45	Win2	0.6429	n/a	Yes	3.235	n/a	5.0	GoodResponse	1	0.026	656.339	8	69	Feedback	Win	True
658.763	3.235	Win2	0.6429	n/a	Yes	3.235	n/a	n/a	GoodResponse	1	0.0	n/a	8	69	ISIslide	Win	True
662.028	0.25	Lose2	0.6338	0.0	No	3.022	0.028	n/a	NoResponse	-1	n/a	n/a	7	70	Cue	Loss	True
662.278	4.05	Lose2	0.6338	0.0	No	3.022	0.0	n/a	NoResponse	-1	n/a	n/a	7	70	Fixation	Loss	True
666.327	0.34	Lose2	0.6338	0.001	No	3.022	-0.001	2.0	NoResponse	-1	0.358	665.685	7	70	Target	Loss	True
666.677	0.36	Lose2	0.6338	n/a	No	3.022	n/a	n/a	NoResponse	-1	n/a	n/a	7	70	Blank	Loss	True
666.685	0.3	Lose2	0.6338	0.001	No	3.022	-0.001	2.0	NoResponse	-1	0.358	n/a	7	70	ButtonPress	Loss	True
667.027	1.45	Lose2	0.6338	n/a	No	3.022	n/a	5.0	NoResponse	-1	0.02	666.047	7	70	Feedback	Loss	True
668.476	3.022	Lose2	0.6338	n/a	No	3.022	n/a	n/a	NoResponse	-1	0.0	n/a	7	70	ISIslide	Loss	True
671.525	0.25	Win2	0.6389	0.0	Yes	2.725	0.025	n/a	GoodResponse	1	n/a	n/a	8	71	Cue	Win	True
671.775	4.05	Win2	0.6389	0.0	Yes	2.725	0.0	n/a	GoodResponse	1	n/a	n/a	8	71	Fixation	Win	True
675.824	0.35	Win2	0.6389	0.001	Yes	2.725	-0.001	2.0	GoodResponse	1	0.21	675.034	8	71	Target	Win	True
676.034	0.3	Win2	0.6389	0.001	Yes	2.725	-0.001	2.0	GoodResponse	1	0.21	n/a	8	71	ButtonPress	Win	True
676.173	0.35	Win2	0.6389	n/a	Yes	2.725	n/a	n/a	GoodResponse	1	n/a	n/a	8	71	Blank	Win	True
676.523	1.45	Win2	0.6389	n/a	Yes	2.725	n/a	5.0	GoodResponse	1	0.036	675.559	8	71	Feedback	Win	True
677.973	2.725	Win2	0.6389	n/a	Yes	2.725	n/a	n/a	GoodResponse	1	0.0	n/a	8	71	ISIslide	Win	True
680.722	0.25	Win2	0.6437999999999999	0.0	Yes	2.778	0.022	n/a	GoodResponse	1	n/a	n/a	9	72	Cue	Win	True
680.972	4.1	Win2	0.6437999999999999	0.0	Yes	2.778	0.0	n/a	GoodResponse	1	n/a	n/a	9	72	Fixation	Win	True
685.07	0.36	Win2	0.6437999999999999	0.002	Yes	2.778	-0.002	2.0	GoodResponse	1	0.258	684.328	9	72	Target	Win	True
685.328	0.3	Win2	0.6437999999999999	0.002	Yes	2.778	-0.002	2.0	GoodResponse	1	0.258	n/a	9	72	ButtonPress	Win	True
685.437	0.34	Win2	0.6437999999999999	n/a	Yes	2.778	n/a	n/a	GoodResponse	1	n/a	n/a	9	72	Blank	Win	True
685.77	1.45	Win2	0.6437999999999999	n/a	Yes	2.778	n/a	5.0	GoodResponse	1	0.008	684.778	9	72	Feedback	Win	True
687.22	2.778	Win2	0.6437999999999999	n/a	Yes	2.778	n/a	n/a	GoodResponse	1	0.0	n/a	9	72	ISIslide	Win	True
690.019	0.25	Win2	0.6351	0.0	No	2.681	0.019	n/a	NoResponse	0	n/a	n/a	9	73	Cue	MissedWin	True
690.269	4.0	Win2	0.6351	0.0	No	2.681	0.0	2.0	NoResponse	0	3.867	693.136	9	73	Fixation	MissedWin	True
694.136	0.3	Win2	0.6351	0.0	No	2.681	0.0	2.0	NoResponse	0	3.867	n/a	9	73	ButtonPress	MissedWin	True
694.267	0.37	Win2	0.6351	0.002	No	2.681	-0.002	n/a	NoResponse	0	n/a	n/a	9	73	Target	MissedWin	True
694.65	0.33	Win2	0.6351	n/a	No	2.681	n/a	n/a	NoResponse	0	n/a	n/a	9	73	Blank	MissedWin	True
694.967	1.45	Win2	0.6351	n/a	No	2.681	n/a	5.0	NoResponse	0	0.031	693.998	9	73	Feedback	MissedWin	True
696.416	2.681	Win2	0.6351	n/a	No	2.681	n/a	n/a	NoResponse	0	0.0	n/a	9	73	ISIslide	MissedWin	True
699.115	0.25	Lose2	0.64	0.001	Yes	2.635	0.015	n/a	GoodResponse	0	n/a	n/a	9	74	Cue	AvoidedLoss	True
699.365	4.05	Lose2	0.64	0.0	Yes	2.635	0.0	n/a	GoodResponse	0	n/a	n/a	9	74	Fixation	AvoidedLoss	True
703.414	0.38	Lose2	0.64	0.001	Yes	2.635	-0.001	2.0	GoodResponse	0	0.244	702.658	9	74	Target	AvoidedLoss	True
703.658	0.3	Lose2	0.64	0.001	Yes	2.635	-0.001	2.0	GoodResponse	0	0.244	n/a	9	74	ButtonPress	AvoidedLoss	True
703.797	0.32	Lose2	0.64	n/a	Yes	2.635	n/a	n/a	GoodResponse	0	n/a	n/a	9	74	Blank	AvoidedLoss	True
704.114	1.45	Lose2	0.64	n/a	Yes	2.635	n/a	5.0	GoodResponse	0	0.007	703.121	9	74	Feedback	AvoidedLoss	True
705.563	2.635	Lose2	0.64	n/a	Yes	2.635	n/a	n/a	GoodResponse	0	0.0	n/a	9	74	ISIslide	AvoidedLoss	True
708.229	0.25	Lose2	0.6446999999999999	0.0	Yes	2.921	0.029	n/a	GoodResponse	0	n/a	n/a	9	75	Cue	AvoidedLoss	True
708.479	3.95	Lose2	0.6446999999999999	0.0	Yes	2.921	0.0	n/a	GoodResponse	0	n/a	n/a	9	75	Fixation	AvoidedLoss	True
712.427	0.39	Lose2	0.6446999999999999	0.002	Yes	2.921	-0.002	2.0	GoodResponse	0	0.221	711.648	9	75	Target	AvoidedLoss	True
712.648	0.3	Lose2	0.6446999999999999	0.002	Yes	2.921	-0.002	2.0	GoodResponse	0	0.221	n/a	9	75	ButtonPress	AvoidedLoss	True
712.827	0.31	Lose2	0.6446999999999999	n/a	Yes	2.921	n/a	n/a	GoodResponse	0	n/a	n/a	9	75	Blank	AvoidedLoss	True
713.127	1.45	Lose2	0.6446999999999999	n/a	Yes	2.921	n/a	5.0	GoodResponse	0	0.017	712.144	9	75	Feedback	AvoidedLoss	True
714.577	2.921	Lose2	0.6446999999999999	n/a	Yes	2.921	n/a	n/a	GoodResponse	0	0.0	n/a	9	75	ISIslide	AvoidedLoss	True
717.526	0.25	Control	0.6494	0.0	Yes	3.224	0.026	n/a	GoodResponse	0	n/a	n/a	9	76	Cue	Neutral	True
717.776	4.05	Control	0.6494	0.0	Yes	3.224	0.0	n/a	GoodResponse	0	n/a	n/a	9	76	Fixation	Neutral	True
721.824	0.4	Control	0.6494	0.002	Yes	3.224	-0.002	2.0	GoodResponse	0	0.29	721.114	9	76	Target	Neutral	True
722.114	0.3	Control	0.6494	0.002	Yes	3.224	-0.002	2.0	GoodResponse	0	0.29	n/a	9	76	ButtonPress	Neutral	True
722.224	0.3	Control	0.6494	n/a	Yes	3.224	n/a	n/a	GoodResponse	0	n/a	n/a	9	76	Blank	Neutral	True
722.524	1.45	Control	0.6494	n/a	Yes	3.224	n/a	5.0	GoodResponse	0	0.034	721.558	9	76	Feedback	Neutral	True
723.973	3.224	Control	0.6494	n/a	Yes	3.224	n/a	n/a	GoodResponse	0	0.0	n/a	9	76	ISIslide	Neutral	True
727.222	0.25	Lose2	0.6537999999999999	0.0	Yes	2.578	0.022	n/a	GoodResponse	0	n/a	n/a	9	77	Cue	AvoidedLoss	True
727.472	3.95	Lose2	0.6537999999999999	0.0	Yes	2.578	0.0	n/a	GoodResponse	0	n/a	n/a	9	77	Fixation	AvoidedLoss	True
731.421	0.41	Lose2	0.6537999999999999	0.001	Yes	2.578	-0.001	2.0	GoodResponse	0	0.3	730.721	9	77	Target	AvoidedLoss	True
731.721	0.3	Lose2	0.6537999999999999	0.001	Yes	2.578	-0.001	2.0	GoodResponse	0	0.3	n/a	9	77	ButtonPress	AvoidedLoss	True
731.837	0.29	Lose2	0.6537999999999999	n/a	Yes	2.578	n/a	n/a	GoodResponse	0	n/a	n/a	9	77	Blank	AvoidedLoss	True
732.121	1.45	Lose2	0.6537999999999999	n/a	Yes	2.578	n/a	5.0	GoodResponse	0	0.047	731.168	9	77	Feedback	AvoidedLoss	True
733.57	2.578	Lose2	0.6537999999999999	n/a	Yes	2.578	n/a	n/a	GoodResponse	0	0.0	n/a	9	77	ISIslide	AvoidedLoss	True
