onset	duration	cue_type	current_mean_accuracy	duration_error	is_hit	isi_adjusted	onset_delay	response	response_type	reward	rt	rt_time	total_reward	trial_number	trial_phase	trial_type	one_press
11.102	0.25	Control	1.0	0.0	Yes	2.948	0.002	n/a	GoodResponse	0	n/a	n/a	0	0	Cue	Neutral	True
11.352	3.85	Control	1.0	0.0	Yes	2.948	0.0	n/a	GoodResponse	0	n/a	n/a	0	0	Fixation	Neutral	True
15.201	0.4	Control	1.0	0.001	Yes	2.948	-0.001	2.0	GoodResponse	0	0.223	14.424	0	0	Target	Neutral	True
15.424	0.3	Control	1.0	0.001	Yes	2.948	-0.001	2.0	GoodResponse	0	0.223	n/a	0	0	ButtonPress	Neutral	True
15.6	0.3	Control	1.0	n/a	Yes	2.948	n/a	n/a	GoodResponse	0	n/a	n/a	0	0	Blank	Neutral	True
15.9	1.45	Control	1.0	n/a	Yes	2.948	n/a	5.0	GoodResponse	0	0.028	14.928	0	0	Feedback	Neutral	True
17.35	2.948	Control	1.0	n/a	Yes	2.948	n/a	n/a	GoodResponse	0	0.0	n/a	0	0	ISIslide	Neutral	True
20.315	0.25	Lose2	0.5	0.001	No	2.785	0.015	n/a	NoResponse	-1	n/a	n/a	-1	1	Cue	Loss	True
20.565	4.0	Lose2	0.5	0.0	No	2.785	0.0	n/a	NoResponse	-1	n/a	n/a	-1	1	Fixation	Loss	True
24.564	0.39	Lose2	0.5	0.001	No	2.785	-0.001	2.0	NoResponse	-1	0.581	24.145	-1	1	Target	Loss	True
24.964	0.31	Lose2	0.5	n/a	No	2.785	n/a	n/a	NoResponse	-1	n/a	n/a	-1	1	Blank	Loss	True
25.145	0.3	Lose2	0.5	0.001	No	2.785	-0.001	2.0	NoResponse	-1	0.581	n/a	-1	1	ButtonPress	Loss	True
25.264	1.45	Lose2	0.5	n/a	No	2.785	n/a	5.0	NoResponse	-1	0.03	24.294	-1	1	Feedback	Loss	True
26.713	2.785	Lose2	0.5	n/a	No	2.785	n/a	n/a	NoResponse	-1	0.0	n/a	-1	1	ISIslide	Loss	True
29.512	0.25	Control	0.6667000000000001	0.0	Yes	2.588	0.012	n/a	GoodResponse	0	n/a	n/a	-1	2	Cue	Neutral	True
29.762	4.1	Control	0.6667000000000001	0.0	Yes	2.588	0.0	n/a	GoodResponse	0	n/a	n/a	-1	2	Fixation	Neutral	True
33.861	0.4	Control	0.6667000000000001	0.001	Yes	2.588	-0.001	2.0	GoodResponse	0	0.203	33.064	-1	2	Target	Neutral	True
34.064	0.3	Control	0.6667000000000001	0.001	Yes	2.588	-0.001	2.0	GoodResponse	0	0.203	n/a	-1	2	ButtonPress	Neutral	True
34.261	0.3	Control	0.6667000000000001	n/a	Yes	2.588	n/a	n/a	GoodResponse	0	n/a	n/a	-1	2	Blank	Neutral	True
34.56	1.45	Control	0.6667000000000001	n/a	Yes	2.588	n/a	5.0	GoodResponse	0	0.002	33.562	-1	2	Feedback	Neutral	True
36.01	2.588	Control	0.6667000000000001	n/a	Yes	2.588	n/a	n/a	GoodResponse	0	0.0	n/a	-1	2	ISIslide	Neutral	True
38.626	0.25	Win2	0.75	0.0	Yes	2.824	0.026	n/a	GoodResponse	1	n/a	n/a	0	3	Cue	Win	True
38.876	3.95	Win2	0.75	0.0	Yes	2.824	0.0	n/a	GoodResponse	1	n/a	n/a	0	3	Fixation	Win	True
42.824	0.39	Win2	0.75	0.002	Yes	2.824	-0.002	2.0	GoodResponse	1	0.237	42.061	0	3	Target	Win	True
43.061	0.3	Win2	0.75	0.002	Yes	2.824	-0.002	2.0	GoodResponse	1	0.237	n/a	0	3	ButtonPress	Win	True
43.224	0.31	Win2	0.75	n/a	Yes	2.824	n/a	n/a	GoodResponse	1	n/a	n/a	0	3	Blank	Win	True
43.524	1.45	Win2	0.75	n/a	Yes	2.824	n/a	5.0	GoodResponse	1	0.014	42.538	0	3	Feedback	Win	True
44.973	2.824	Win2	0.75	n/a	Yes	2.824	n/a	n/a	GoodResponse	1	0.0	n/a	0	3	ISIslide	Win	True
47.822	0.25	Win2	0.8	0.001	Yes	3.278	0.022	n/a	GoodResponse	1	n/a	n/a	1	4	Cue	Win	True
48.072	4.0	Win2	0.8	0.0	Yes	3.278	0.0	n/a	GoodResponse	1	n/a	n/a	1	4	Fixation	Win	True
52.071	0.38	Win2	0.8	0.001	Yes	3.278	-0.001	2.0	GoodResponse	1	0.229	51.3	1	4	Target	Win	True
52.3	0.3	Win2	0.8	0.001	Yes	3.278	-0.001	2.0	GoodResponse	1	0.229	n/a	1	4	ButtonPress	Win	True
52.454	0.32	Win2	0.8	n/a	Yes	3.278	n/a	n/a	GoodResponse	1	n/a	n/a	1	4	Blank	Win	True
52.771	1.45	Win2	0.8	n/a	Yes	3.278	n/a	5.0	GoodResponse	1	0.035	51.806	1	4	Feedback	Win	True
54.22	3.278	Win2	0.8	n/a	Yes	3.278	n/a	n/a	GoodResponse	1	0.0	n/a	1	4	ISIslide	Win	True
57.519	0.25	Win2	0.8332999999999999	0.0	Yes	2.781	0.019	n/a	GoodResponse	1	n/a	n/a	2	5	Cue	Win	True
57.769	4.0	Win2	0.8332999999999999	0.0	Yes	2.781	0.0	n/a	GoodResponse	1	n/a	n/a	2	5	Fixation	Win	True
61.768	0.37	Win2	0.8332999999999999	0.001	Yes	2.781	-0.001	2.0	GoodResponse	1	0.202	60.97	2	5	Target	Win	True
61.97	0.3	Win2	0.8332999999999999	0.001	Yes	2.781	-0.001	2.0	GoodResponse	1	0.202	n/a	2	5	ButtonPress	Win	True
62.151	0.33	Win2	0.8332999999999999	n/a	Yes	2.781	n/a	n/a	GoodResponse	1	n/a	n/a	2	5	Blank	Win	True
62.467	1.45	Win2	0.8332999999999999	n/a	Yes	2.781	n/a	5.0	GoodResponse	1	0.046	61.513	2	5	Feedback	Win	True
63.917	2.781	Win2	0.8332999999999999	n/a	Yes	2.781	n/a	n/a	GoodResponse	1	0.0	n/a	2	5	ISIslide	Win	True
66.716	0.25	Lose2	0.8571	0.0	Yes	2.734	0.016	n/a	GoodResponse	0	n/a	n/a	2	6	Cue	AvoidedLoss	True
66.966	3.95	Lose2	0.8571	0.0	Yes	2.734	0.0	n/a	GoodResponse	0	n/a	n/a	2	6	Fixation	AvoidedLoss	True
70.914	0.36	Lose2	0.8571	0.002	Yes	2.734	-0.002	2.0	GoodResponse	0	0.203	70.117	2	6	Target	AvoidedLoss	True
71.117	0.3	Lose2	0.8571	0.002	Yes	2.734	-0.002	2.0	GoodResponse	0	0.203	n/a	2	6	ButtonPress	AvoidedLoss	True
71.281	0.34	Lose2	0.8571	n/a	Yes	2.734	n/a	n/a	GoodResponse	0	n/a	n/a	2	6	Blank	AvoidedLoss	True
71.614	1.45	Lose2	0.8571	n/a	Yes	2.734	n/a	5.0	GoodResponse	0	0.021	70.635	2	6	Feedback	AvoidedLoss	True
73.064	2.734	Lose2	0.8571	n/a	Yes	2.734	n/a	n/a	GoodResponse	0	0.0	n/a	2	6	ISIslide	AvoidedLoss	True
75.829	0.25	Lose2	0.875	0.0	Yes	4.021	0.029	n/a	GoodResponse	0	n/a	n/a	2	7	Cue	AvoidedLoss	True
76.079	4.05	Lose2	0.875	0.0	Yes	4.021	0.0	n/a	GoodResponse	0	n/a	n/a	2	7	Fixation	AvoidedLoss	True
80.128	0.35	Lose2	0.875	0.001	Yes	4.021	-0.001	2.0	GoodResponse	0	0.21	79.338	2	7	Target	AvoidedLoss	True
80.338	0.3	Lose2	0.875	0.001	Yes	4.021	-0.001	2.0	GoodResponse	0	0.21	n/a	2	7	ButtonPress	AvoidedLoss	True
80.478	0.35	Lose2	0.875	n/a	Yes	4.021	n/a	n/a	GoodResponse	0	n/a	n/a	2	7	Blank	AvoidedLoss	True
80.827	1.45	Lose2	0.875	n/a	Yes	4.021	n/a	5.0	GoodResponse	0	0.028	79.855	2	7	Feedback	AvoidedLoss	True
82.277	4.021	Lose2	0.875	n/a	Yes	4.021	n/a	n/a	GoodResponse	0	0.0	n/a	2	7	ISIslide	AvoidedLoss	True
86.326	0.25	Lose2	0.8889	0.0	Yes	3.024	0.026	n/a	GoodResponse	0	n/a	n/a	2	8	Cue	AvoidedLoss	True
86.575	3.95	Lose2	0.8889	0.001	Yes	3.024	-0.001	n/a	GoodResponse	0	n/a	n/a	2	8	Fixation	AvoidedLoss	True
90.524	0.34	Lose2	0.8889	0.002	Yes	3.024	-0.002	2.0	GoodResponse	0	0.21	89.734	2	8	Target	AvoidedLoss	True
90.734	0.3	Lose2	0.8889	0.002	Yes	3.024	-0.002	2.0	GoodResponse	0	0.21	n/a	2	8	ButtonPress	AvoidedLoss	True
90.874	0.36	Lose2	0.8889	n/a	Yes	3.024	n/a	n/a	GoodResponse	0	n/a	n/a	2	8	Blank	AvoidedLoss	True
91.224	1.45	Lose2	0.8889	n/a	Yes	3.024	n/a	5.0	GoodResponse	0	0.021	90.245	2	8	Feedback	AvoidedLoss	True
92.673	3.024	Lose2	0.8889	n/a	Yes	3.024	n/a	n/a	GoodResponse	0	0.0	n/a	2	8	ISIslide	AvoidedLoss	True
95.722	0.25	Lose2	0.9	0.0	Yes	3.128	0.022	n/a	GoodResponse	0	n/a	n/a	2	9	Cue	AvoidedLoss	True
95.972	3.95	Lose2	0.9	0.0	Yes	3.128	0.0	n/a	GoodResponse	0	n/a	n/a	2	9	Fixation	AvoidedLoss	True
99.921	0.33	Lose2	0.9	0.001	Yes	3.128	-0.001	2.0	GoodResponse	0	0.189	99.11	2	9	Target	AvoidedLoss	True
100.11	0.3	Lose2	0.9	0.001	Yes	3.128	-0.001	2.0	GoodResponse	0	0.189	n/a	2	9	ButtonPress	AvoidedLoss	True
100.254	0.37	Lose2	0.9	n/a	Yes	3.128	n/a	n/a	GoodResponse	0	n/a	n/a	2	9	Blank	AvoidedLoss	True
100.621	1.45	Lose2	0.9	n/a	Yes	3.128	n/a	5.0	GoodResponse	0	0.038	99.659	2	9	Feedback	AvoidedLoss	True
102.07	3.128	Lose2	0.9	n/a	Yes	3.128	n/a	n/a	GoodResponse	0	0.0	n/a	2	9	ISIslide	AvoidedLoss	True
105.219	0.25	Control	0.9091	0.0	Yes	3.281	0.019	n/a	GoodResponse	0	n/a	n/a	2	10	Cue	Neutral	True
105.469	4.0	Control	0.9091	0.0	Yes	3.281	0.0	n/a	GoodResponse	0	n/a	n/a	2	10	Fixation	Neutral	True
109.467	0.32	Control	0.9091	0.002	Yes	3.281	-0.002	2.0	GoodResponse	0	0.214	108.681	2	10	Target	Neutral	True
109.681	0.3	Control	0.9091	0.002	Yes	3.281	-0.002	2.0	GoodResponse	0	0.214	n/a	2	10	ButtonPress	Neutral	True
109.801	0.38	Control	0.9091	n/a	Yes	3.281	n/a	n/a	GoodResponse	0	n/a	n/a	2	10	Blank	Neutral	True
110.167	1.45	Control	0.9091	n/a	Yes	3.281	n/a	5.0	GoodResponse	0	0.007	109.174	2	10	Feedback	Neutral	True
111.617	3.281	Control	0.9091	n/a	Yes	3.281	n/a	n/a	GoodResponse	0	0.0	n/a	2	10	ISIslide	Neutral	True
114.915	0.25	Lose2	0.9167000000000001	0.001	Yes	2.735	0.015	n/a	GoodResponse	0	n/a	n/a	2	11	Cue	AvoidedLoss	True
115.165	4.05	Lose2	0.9167000000000001	0.0	Yes	2.735	0.0	n/a	GoodResponse	0	n/a	n/a	2	11	Fixation	AvoidedLoss	True
119.214	0.31	Lose2	0.9167000000000001	0.001	Yes	2.735	-0.001	2.0	GoodResponse	0	0.226	118.44	2	11	Target	AvoidedLoss	True
119.44	0.3	Lose2	0.9167000000000001	0.001	Yes	2.735	-0.001	2.0	GoodResponse	0	0.226	n/a	2	11	ButtonPress	AvoidedLoss	True
119.531	0.39	Lose2	0.9167000000000001	n/a	Yes	2.735	n/a	n/a	GoodResponse	0	n/a	n/a	2	11	Blank	AvoidedLoss	True
119.914	1.45	Lose2	0.9167000000000001	n/a	Yes	2.735	n/a	5.0	GoodResponse	0	0.013	118.927	2	11	Feedback	AvoidedLoss	True
121.363	2.735	Lose2	0.9167000000000001	n/a	Yes	2.735	n/a	n/a	GoodResponse	0	0.0	n/a	2	11	ISIslide	AvoidedLoss	True
124.129	0.25	Control	0.9231	0.0	Yes	2.971	0.029	n/a	GoodResponse	0	n/a	n/a	2	12	Cue	Neutral	True
124.379	3.9	Control	0.9231	0.0	Yes	2.971	0.0	n/a	GoodResponse	0	n/a	n/a	2	12	Fixation	Neutral	True
128.277	0.3	Control	0.9231	0.002	Yes	2.971	-0.002	2.0	GoodResponse	0	0.106	127.383	2	12	Target	Neutral	True
128.383	0.3	Control	0.9231	0.002	Yes	2.971	-0.002	2.0	GoodResponse	0	0.106	n/a	2	12	ButtonPress	Neutral	True
128.577	0.4	Control	0.9231	n/a	Yes	2.971	n/a	n/a	GoodResponse	0	n/a	n/a	2	12	Blank	Neutral	True
128.977	1.45	Control	0.9231	n/a	Yes	2.971	n/a	5.0	GoodResponse	0	0.024	128.001	2	12	Feedback	Neutral	True
130.427	2.971	Control	0.9231	n/a	Yes	2.971	n/a	n/a	GoodResponse	0	0.0	n/a	2	12	ISIslide	Neutral	True
133.426	0.25	Control	0.9286	0.0	Yes	2.774	0.026	n/a	GoodResponse	0	n/a	n/a	2	13	Cue	Neutral	True
133.676	4.0	Control	0.9286	0.0	Yes	2.774	0.0	n/a	GoodResponse	0	n/a	n/a	2	13	Fixation	Neutral	True
137.674	0.29	Control	0.9286	0.002	Yes	2.774	-0.002	2.0	GoodResponse	0	0.214	136.888	2	13	Target	Neutral	True
137.888	0.3	Control	0.9286	0.002	Yes	2.774	-0.002	2.0	GoodResponse	0	0.214	n/a	2	13	ButtonPress	Neutral	True
137.974	0.41	Control	0.9286	n/a	Yes	2.774	n/a	n/a	GoodResponse	0	n/a	n/a	2	13	Blank	Neutral	True
138.374	1.45	Control	0.9286	n/a	Yes	2.774	n/a	5.0	GoodResponse	0	0.041	137.415	2	13	Feedback	Neutral	True
139.823	2.774	Control	0.9286	n/a	Yes	2.774	n/a	n/a	GoodResponse	0	0.0	n/a	2	13	ISIslide	Neutral	True
142.622	0.25	Win2	0.9333	0.0	Yes	2.678	0.022	n/a	GoodResponse	1	n/a	n/a	3	14	Cue	Win	True
142.872	4.1	Win2	0.9333	0.0	Yes	2.678	0.0	n/a	GoodResponse	1	n/a	n/a	3	14	Fixation	Win	True
146.971	0.28	Win2	0.9333	0.001	Yes	2.678	-0.001	2.0	GoodResponse	1	0.205	146.176	3	14	Target	Win	True
147.176	0.3	Win2	0.9333	0.001	Yes	2.678	-0.001	2.0	GoodResponse	1	0.205	n/a	3	14	ButtonPress	Win	True
147.254	0.42	Win2	0.9333	n/a	Yes	2.678	n/a	n/a	GoodResponse	1	n/a	n/a	3	14	Blank	Win	True
147.671	1.45	Win2	0.9333	n/a	Yes	2.678	n/a	5.0	GoodResponse	1	0.012	146.683	3	14	Feedback	Win	True
149.12	2.678	Win2	0.9333	n/a	Yes	2.678	n/a	n/a	GoodResponse	1	0.0	n/a	3	14	ISIslide	Win	True
151.819	0.25	Control	0.9375	0.0	Yes	2.981	0.019	n/a	GoodResponse	0	n/a	n/a	3	15	Cue	Neutral	True
152.069	4.0	Control	0.9375	0.0	Yes	2.981	0.0	n/a	GoodResponse	0	n/a	n/a	3	15	Fixation	Neutral	True
156.068	0.27	Control	0.9375	0.001	Yes	2.981	-0.001	2.0	GoodResponse	0	0.2	155.268	3	15	Target	Neutral	True
156.268	0.3	Control	0.9375	0.001	Yes	2.981	-0.001	2.0	GoodResponse	0	0.2	n/a	3	15	ButtonPress	Neutral	True
156.351	0.43	Control	0.9375	n/a	Yes	2.981	n/a	n/a	GoodResponse	0	n/a	n/a	3	15	Blank	Neutral	True
156.767	1.45	Control	0.9375	n/a	Yes	2.981	n/a	5.0	GoodResponse	0	0.038	155.805	3	15	Feedback	Neutral	True
158.217	2.981	Control	0.9375	n/a	Yes	2.981	n/a	n/a	GoodResponse	0	0.0	n/a	3	15	ISIslide	Neutral	True
161.216	0.25	Win2	0.9412	0.0	Yes	2.884	0.016	n/a	GoodResponse	1	n/a	n/a	4	16	Cue	Win	True
161.466	4.0	Win2	0.9412	0.0	Yes	2.884	0.0	n/a	GoodResponse	1	n/a	n/a	4	16	Fixation	Win	True
165.464	0.26	Win2	0.9412	0.002	Yes	2.884	-0.002	2.0	GoodResponse	1	0.224	164.688	4	16	Target	Win	True
165.688	0.3	Win2	0.9412	0.002	Yes	2.884	-0.002	2.0	GoodResponse	1	0.224	n/a	4	16	ButtonPress	Win	True
165.731	0.44	Win2	0.9412	n/a	Yes	2.884	n/a	n/a	GoodResponse	1	n/a	n/a	4	16	Blank	Win	True
166.164	1.45	Win2	0.9412	n/a	Yes	2.884	n/a	5.0	GoodResponse	1	0.007	165.171	4	16	Feedback	Win	True
167.614	2.884	Win2	0.9412	n/a	Yes	2.884	n/a	n/a	GoodResponse	1	0.0	n/a	4	16	ISIslide	Win	True
170.529	0.25	Lose2	0.9444	0.0	Yes	2.721	0.029	n/a	GoodResponse	0	n/a	n/a	4	17	Cue	AvoidedLoss	True
170.779	3.95	Lose2	0.9444	0.0	Yes	2.721	0.0	n/a	GoodResponse	0	n/a	n/a	4	17	Fixation	AvoidedLoss	True
174.728	0.25	Lose2	0.9444	0.001	Yes	2.721	-0.001	2.0	GoodResponse	0	0.221	173.949	4	17	Target	AvoidedLoss	True
174.949	0.3	Lose2	0.9444	0.001	Yes	2.721	-0.001	2.0	GoodResponse	0	0.221	n/a	4	17	ButtonPress	AvoidedLoss	True
174.978	0.45	Lose2	0.9444	n/a	Yes	2.721	n/a	n/a	GoodResponse	0	n/a	n/a	4	17	Blank	AvoidedLoss	True
175.428	1.45	Lose2	0.9444	n/a	Yes	2.721	n/a	5.0	GoodResponse	0	0.011	174.439	4	17	Feedback	AvoidedLoss	True
176.877	2.721	Lose2	0.9444	n/a	Yes	2.721	n/a	n/a	GoodResponse	0	0.0	n/a	4	17	ISIslide	AvoidedLoss	True
179.626	0.25	Lose2	0.9473999999999999	0.0	Yes	2.724	0.026	n/a	GoodResponse	0	n/a	n/a	4	18	Cue	AvoidedLoss	False
179.876	4.05	Lose2	0.9473999999999999	0.0	Yes	2.724	0.0	2.0	GoodResponse	0	3.763	182.639	4	18	Fixation	AvoidedLoss	False
183.639	0.3	Lose2	0.9473999999999999	0.0	Yes	2.724	0.0	2.0	GoodResponse	0	3.763	n/a	4	18	ButtonPress	AvoidedLoss	False
183.925	0.24	Lose2	0.9473999999999999	0.001	Yes	2.724	-0.001	2.0	GoodResponse	0	0.227	183.152	4	18	Target	AvoidedLoss	False
184.152	0.3	Lose2	0.9473999999999999	0.001	Yes	2.724	-0.001	2.0	GoodResponse	0	0.227	n/a	4	18	ButtonPress	AvoidedLoss	False
184.174	0.46	Lose2	0.9473999999999999	n/a	Yes	2.724	n/a	n/a	GoodResponse	0	n/a	n/a	4	18	Blank	AvoidedLoss	False
184.624	1.45	Lose2	0.9473999999999999	n/a	Yes	2.724	n/a	5.0	GoodResponse	0	0.034	183.658	4	18	Feedback	AvoidedLoss	False
186.074	2.724	Lose2	0.9473999999999999	n/a	Yes	2.724	n/a	n/a	GoodResponse	0	0.0	n/a	4	18	ISIslide	AvoidedLoss	False
188.823	0.25	Control	0.95	0.0	Yes	2.927	0.023	n/a	GoodResponse	0	n/a	n/a	4	19	Cue	Neutral	True
189.073	3.95	Control	0.95	0.0	Yes	2.927	0.0	n/a	GoodResponse	0	n/a	n/a	4	19	Fixation	Neutral	True
193.021	0.23	Control	0.95	0.002	Yes	2.927	-0.002	2.0	GoodResponse	0	0.221	192.242	4	19	Target	Neutral	True
193.242	0.3	Control	0.95	0.002	Yes	2.927	-0.002	2.0	GoodResponse	0	0.221	n/a	4	19	ButtonPress	Neutral	True
193.255	0.47	Control	0.95	n/a	Yes	2.927	n/a	n/a	GoodResponse	0	n/a	n/a	4	19	Blank	Neutral	True
193.721	1.45	Control	0.95	n/a	Yes	2.927	n/a	5.0	GoodResponse	0	0.01	192.731	4	19	Feedback	Neutral	True
195.171	2.927	Control	0.95	n/a	Yes	2.927	n/a	n/a	GoodResponse	0	0.0	n/a	4	19	ISIslide	Neutral	True
198.12	0.25	Control	0.9048	0.0	No	2.63	0.02	n/a	LatePress	0	n/a	n/a	4	20	Cue	Neutral	False
198.369	4.05	Control	0.9048	0.001	No	2.63	-0.001	2.0	LatePress	0	0.028	197.397	4	20	Fixation	Neutral	False
198.397	0.3	Control	0.9048	0.001	No	2.63	-0.001	2.0	LatePress	0	0.028	n/a	4	20	ButtonPress	Neutral	False
202.418	0.22	Control	0.9048	0.002	No	2.63	-0.002	2.0	LatePress	0	0.226	201.644	4	20	Target	Neutral	False
202.644	0.3	Control	0.9048	0.002	No	2.63	-0.002	2.0	LatePress	0	0.226	n/a	4	20	ButtonPress	Neutral	False
202.651	0.48	Control	0.9048	n/a	No	2.63	n/a	n/a	LatePress	0	n/a	n/a	4	20	Blank	Neutral	False
203.118	1.45	Control	0.9048	n/a	No	2.63	n/a	5.0	LatePress	0	0.028	202.146	4	20	Feedback	Neutral	False
204.567	2.63	Control	0.9048	n/a	No	2.63	n/a	n/a	LatePress	0	0.0	n/a	4	20	ISIslide	Neutral	False
207.216	0.25	Control	0.8636	0.0	No	2.784	0.016	n/a	NoResponse	0	n/a	n/a	4	21	Cue	Neutral	True
207.466	4.1	Control	0.8636	0.0	No	2.784	0.0	n/a	NoResponse	0	n/a	n/a	4	21	Fixation	Neutral	True
211.565	0.21	Control	0.8636	0.001	No	2.784	-0.001	2.0	NoResponse	0	0.224	210.789	4	21	Target	Neutral	True
211.781	0.49	Control	0.8636	n/a	No	2.784	n/a	n/a	NoResponse	0	n/a	n/a	4	21	Blank	Neutral	True
211.789	0.3	Control	0.8636	0.001	No	2.784	-0.001	2.0	NoResponse	0	0.224	n/a	4	21	ButtonPress	Neutral	True
212.265	1.45	Control	0.8636	n/a	No	2.784	n/a	5.0	NoResponse	0	0.006	211.271	4	21	Feedback	Neutral	True
213.714	2.784	Control	0.8636	n/a	No	2.784	n/a	n/a	NoResponse	0	0.0	n/a	4	21	ISIslide	Neutral	True
216.513	0.25	Control	0.8261	0.0	No	2.787	0.013	n/a	NoResponse	0	n/a	n/a	4	22	Cue	Neutral	False
216.763	4.0	Control	0.8261	0.0	No	2.787	0.0	2.0	NoResponse	0	0.019	215.782	4	22	Fixation	Neutral	False
216.782	0.3	Control	0.8261	0.0	No	2.787	0.0	2.0	NoResponse	0	0.019	n/a	4	22	ButtonPress	Neutral	False
220.762	0.2	Control	0.8261	0.001	No	2.787	-0.001	2.0	NoResponse	0	0.239	220.001	4	22	Target	Neutral	False
220.961	0.5	Control	0.8261	n/a	No	2.787	n/a	n/a	NoResponse	0	n/a	n/a	4	22	Blank	Neutral	False
221.001	0.3	Control	0.8261	0.001	No	2.787	-0.001	2.0	NoResponse	0	0.239	n/a	4	22	ButtonPress	Neutral	False
221.461	1.45	Control	0.8261	n/a	No	2.787	n/a	5.0	NoResponse	0	0.027	220.488	4	22	Feedback	Neutral	False
222.911	2.787	Control	0.8261	n/a	No	2.787	n/a	n/a	NoResponse	0	0.0	n/a	4	22	ISIslide	Neutral	False
225.726	0.25	Control	0.7917000000000001	0.001	No	2.774	0.026	n/a	NoResponse	0	n/a	n/a	4	23	Cue	Neutral	True
225.976	3.9	Control	0.7917000000000001	0.0	No	2.774	0.0	n/a	NoResponse	0	n/a	n/a	4	23	Fixation	Neutral	True
229.875	0.19	Control	0.7917000000000001	0.001	No	2.774	-0.001	2.0	NoResponse	0	0.208	229.083	4	23	Target	Neutral	True
230.075	0.51	Control	0.7917000000000001	n/a	No	2.774	n/a	n/a	NoResponse	0	n/a	n/a	4	23	Blank	Neutral	True
230.083	0.3	Control	0.7917000000000001	0.001	No	2.774	-0.001	2.0	NoResponse	0	0.208	n/a	4	23	ButtonPress	Neutral	True
230.575	1.45	Control	0.7917000000000001	n/a	No	2.774	n/a	5.0	NoResponse	0	0.034	229.609	4	23	Feedback	Neutral	True
232.024	2.774	Control	0.7917000000000001	n/a	No	2.774	n/a	n/a	NoResponse	0	0.0	n/a	4	23	ISIslide	Neutral	True
234.823	0.25	Win2	0.76	0.0	No	3.127	0.023	n/a	NoResponse	0	n/a	n/a	4	24	Cue	MissedWin	True
235.073	3.95	Win2	0.76	0.0	No	3.127	0.0	n/a	NoResponse	0	n/a	n/a	4	24	Fixation	MissedWin	True
239.022	0.18	Win2	0.76	0.001	No	3.127	-0.001	2.0	NoResponse	0	0.194	238.216	4	24	Target	MissedWin	True
239.205	0.52	Win2	0.76	n/a	No	3.127	n/a	n/a	NoResponse	0	n/a	n/a	4	24	Blank	MissedWin	True
239.216	0.3	Win2	0.76	0.001	No	3.127	-0.001	2.0	NoResponse	0	0.194	n/a	4	24	ButtonPress	MissedWin	True
239.722	1.45	Win2	0.76	n/a	No	3.127	n/a	5.0	NoResponse	0	0.009	238.731	4	24	Feedback	MissedWin	True
241.171	3.127	Win2	0.76	n/a	No	3.127	n/a	n/a	NoResponse	0	0.0	n/a	4	24	ISIslide	MissedWin	True
244.32	0.25	Win2	0.7308	0.0	No	3.08	0.02	n/a	NoResponse	0	n/a	n/a	4	25	Cue	MissedWin	True
244.57	4.0	Win2	0.7308	0.0	No	3.08	0.0	n/a	NoResponse	0	n/a	n/a	4	25	Fixation	MissedWin	True
248.568	0.17	Win2	0.7308	0.002	No	3.08	-0.002	2.0	NoResponse	0	0.211	247.779	4	25	Target	MissedWin	True
248.752	0.53	Win2	0.7308	n/a	No	3.08	n/a	n/a	NoResponse	0	n/a	n/a	4	25	Blank	MissedWin	True
248.779	0.3	Win2	0.7308	0.002	No	3.08	-0.002	2.0	NoResponse	0	0.211	n/a	4	25	ButtonPress	MissedWin	True
249.268	1.45	Win2	0.7308	n/a	No	3.08	n/a	5.0	NoResponse	0	0.024	248.292	4	25	Feedback	MissedWin	True
250.718	3.08	Win2	0.7308	n/a	No	3.08	n/a	n/a	NoResponse	0	0.0	n/a	4	25	ISIslide	MissedWin	True
253.817	0.25	Win2	0.7037	0.0	No	2.933	0.017	n/a	NoResponse	0	n/a	n/a	4	26	Cue	MissedWin	True
254.066	3.95	Win2	0.7037	0.001	No	2.933	-0.001	n/a	NoResponse	0	n/a	n/a	4	26	Fixation	MissedWin	True
258.015	0.16	Win2	0.7037	0.002	No	2.933	-0.002	2.0	NoResponse	0	0.207	257.222	4	26	Target	MissedWin	True
258.182	0.54	Win2	0.7037	n/a	No	2.933	n/a	n/a	NoResponse	0	n/a	n/a	4	26	Blank	MissedWin	True
258.222	0.3	Win2	0.7037	0.002	No	2.933	-0.002	2.0	NoResponse	0	0.207	n/a	4	26	ButtonPress	MissedWin	True
258.715	1.45	Win2	0.7037	n/a	No	2.933	n/a	5.0	NoResponse	0	0.04	257.755	4	26	Feedback	MissedWin	True
260.164	2.933	Win2	0.7037	n/a	No	2.933	n/a	n/a	NoResponse	0	0.0	n/a	4	26	ISIslide	MissedWin	True
263.13	0.25	Lose2	0.6786	0.0	No	2.82	0.03	n/a	NoResponse	-1	n/a	n/a	3	27	Cue	Loss	True
263.38	4.05	Lose2	0.6786	0.0	No	2.82	0.0	n/a	NoResponse	-1	n/a	n/a	3	27	Fixation	Loss	True
267.428	0.15	Lose2	0.6786	0.002	No	2.82	-0.002	2.0	NoResponse	-1	0.224	266.652	3	27	Target	Loss	True
267.578	0.55	Lose2	0.6786	n/a	No	2.82	n/a	n/a	NoResponse	-1	n/a	n/a	3	27	Blank	Loss	True
267.652	0.3	Lose2	0.6786	0.002	No	2.82	-0.002	2.0	NoResponse	-1	0.224	n/a	3	27	ButtonPress	Loss	True
268.128	1.45	Lose2	0.6786	n/a	No	2.82	n/a	5.0	NoResponse	-1	0.042	267.17	3	27	Feedback	Loss	True
269.578	2.82	Lose2	0.6786	n/a	No	2.82	n/a	n/a	NoResponse	-1	0.0	n/a	3	27	ISIslide	Loss	True
272.427	0.25	Control	0.6552	0.0	No	2.823	0.027	n/a	NoResponse	0	n/a	n/a	3	28	Cue	Neutral	True
272.677	4.05	Control	0.6552	0.0	No	2.823	0.0	n/a	NoResponse	0	n/a	n/a	3	28	Fixation	Neutral	True
276.725	0.15	Control	0.6552	0.002	No	2.823	-0.002	2.0	NoResponse	0	0.209	275.934	3	28	Target	Neutral	True
276.875	0.55	Control	0.6552	n/a	No	2.823	n/a	n/a	NoResponse	0	n/a	n/a	3	28	Blank	Neutral	True
276.934	0.3	Control	0.6552	0.002	No	2.823	-0.002	2.0	NoResponse	0	0.209	n/a	3	28	ButtonPress	Neutral	True
277.425	1.45	Control	0.6552	n/a	No	2.823	n/a	5.0	NoResponse	0	0.013	276.438	3	28	Feedback	Neutral	True
278.874	2.823	Control	0.6552	n/a	No	2.823	n/a	n/a	NoResponse	0	0.0	n/a	3	28	ISIslide	Neutral	True
281.723	0.25	Lose2	0.6333	0.0	No	2.827	0.023	n/a	NoResponse	-1	n/a	n/a	2	29	Cue	Loss	True
281.973	3.95	Lose2	0.6333	0.0	No	2.827	0.0	n/a	NoResponse	-1	n/a	n/a	2	29	Fixation	Loss	True
285.922	0.15	Lose2	0.6333	0.001	No	2.827	-0.001	2.0	NoResponse	-1	0.225	285.147	2	29	Target	Loss	True
286.072	0.55	Lose2	0.6333	n/a	No	2.827	n/a	n/a	NoResponse	-1	n/a	n/a	2	29	Blank	Loss	True
286.147	0.3	Lose2	0.6333	0.001	No	2.827	-0.001	2.0	NoResponse	-1	0.225	n/a	2	29	ButtonPress	Loss	True
286.622	1.45	Lose2	0.6333	n/a	No	2.827	n/a	5.0	NoResponse	-1	0.035	285.657	2	29	Feedback	Loss	True
288.071	2.827	Lose2	0.6333	n/a	No	2.827	n/a	n/a	NoResponse	-1	0.0	n/a	2	29	ISIslide	Loss	True
290.92	0.25	Win2	0.6129	0.0	No	2.78	0.02	n/a	NoResponse	0	n/a	n/a	2	30	Cue	MissedWin	True
291.17	3.9	Win2	0.6129	0.0	No	2.78	0.0	n/a	NoResponse	0	n/a	n/a	2	30	Fixation	MissedWin	True
295.069	0.16	Win2	0.6129	0.001	No	2.78	-0.001	2.0	NoResponse	0	0.187	294.256	2	30	Target	MissedWin	True
295.235	0.54	Win2	0.6129	n/a	No	2.78	n/a	n/a	NoResponse	0	n/a	n/a	2	30	Blank	MissedWin	True
295.256	0.3	Win2	0.6129	0.001	No	2.78	-0.001	2.0	NoResponse	0	0.187	n/a	2	30	ButtonPress	MissedWin	True
295.768	1.45	Win2	0.6129	n/a	No	2.78	n/a	5.0	NoResponse	0	0.011	294.779	2	30	Feedback	MissedWin	True
297.218	2.78	Win2	0.6129	n/a	No	2.78	n/a	n/a	NoResponse	0	0.0	n/a	2	30	ISIslide	MissedWin	True
300.017	0.25	Lose2	0.5938	0.0	No	2.833	0.017	n/a	NoResponse	-1	n/a	n/a	1	31	Cue	Loss	True
300.267	4.05	Lose2	0.5938	0.0	No	2.833	0.0	n/a	NoResponse	-1	n/a	n/a	1	31	Fixation	Loss	True
304.315	0.17	Lose2	0.5938	0.002	No	2.833	-0.002	2.0	NoResponse	-1	0.202	303.517	1	31	Target	Loss	True
304.499	0.53	Lose2	0.5938	n/a	No	2.833	n/a	n/a	NoResponse	-1	n/a	n/a	1	31	Blank	Loss	True
304.517	0.3	Lose2	0.5938	0.002	No	2.833	-0.002	2.0	NoResponse	-1	0.202	n/a	1	31	ButtonPress	Loss	True
305.015	1.45	Lose2	0.5938	n/a	No	2.833	n/a	5.0	NoResponse	-1	0.033	304.048	1	31	Feedback	Loss	True
306.465	2.833	Lose2	0.5938	n/a	No	2.833	n/a	n/a	NoResponse	-1	0.0	n/a	1	31	ISIslide	Loss	True
309.314	0.25	Lose2	0.6061	0.0	Yes	2.636	0.014	n/a	GoodResponse	0	n/a	n/a	1	32	Cue	AvoidedLoss	True
309.564	4.15	Lose2	0.6061	0.0	Yes	2.636	0.0	n/a	GoodResponse	0	n/a	n/a	1	32	Fixation	AvoidedLoss	True
313.712	0.18	Lose2	0.6061	0.002	Yes	2.636	-0.002	2.0	GoodResponse	0	0.176	312.888	1	32	Target	AvoidedLoss	True
313.888	0.3	Lose2	0.6061	0.002	Yes	2.636	-0.002	2.0	GoodResponse	0	0.176	n/a	1	32	ButtonPress	AvoidedLoss	True
313.895	0.52	Lose2	0.6061	n/a	Yes	2.636	n/a	n/a	GoodResponse	0	n/a	n/a	1	32	Blank	AvoidedLoss	True
314.412	1.45	Lose2	0.6061	n/a	Yes	2.636	n/a	5.0	GoodResponse	0	0.001	313.413	1	32	Feedback	AvoidedLoss	True
315.861	2.636	Lose2	0.6061	n/a	Yes	2.636	n/a	n/a	GoodResponse	0	0.0	n/a	1	32	ISIslide	AvoidedLoss	True
318.527	0.25	Win2	0.5882000000000001	0.0	No	2.673	0.027	n/a	NoResponse	0	n/a	n/a	1	33	Cue	MissedWin	True
318.777	4.0	Win2	0.5882000000000001	0.0	No	2.673	0.0	2.0	NoResponse	0	3.494	321.271	1	33	Fixation	MissedWin	True
322.271	0.3	Win2	0.5882000000000001	0.0	No	2.673	0.0	2.0	NoResponse	0	3.494	n/a	1	33	ButtonPress	MissedWin	True
322.776	0.19	Win2	0.5882000000000001	0.001	No	2.673	-0.001	n/a	NoResponse	0	n/a	n/a	1	33	Target	MissedWin	True
322.976	0.51	Win2	0.5882000000000001	n/a	No	2.673	n/a	n/a	NoResponse	0	n/a	n/a	1	33	Blank	MissedWin	True
323.475	1.45	Win2	0.5882000000000001	n/a	No	2.673	n/a	5.0	NoResponse	0	0.011	322.486	1	33	Feedback	MissedWin	True
324.925	2.673	Win2	0.5882000000000001	n/a	No	2.673	n/a	n/a	NoResponse	0	0.0	n/a	1	33	ISIslide	MissedWin	True
327.624	0.25	Lose2	0.5714	0.0	No	2.626	0.024	n/a	NoResponse	-1	n/a	n/a	0	34	Cue	Loss	True
327.874	4.05	Lose2	0.5714	0.0	No	2.626	0.0	n/a	NoResponse	-1	n/a	n/a	0	34	Fixation	Loss	True
331.922	0.2	Lose2	0.5714	0.002	No	2.626	-0.002	2.0	NoResponse	-1	0.242	331.164	0	34	Target	Loss	True
332.122	0.5	Lose2	0.5714	n/a	No	2.626	n/a	n/a	NoResponse	-1	n/a	n/a	0	34	Blank	Loss	True
332.164	0.3	Lose2	0.5714	0.002	No	2.626	-0.002	2.0	NoResponse	-1	0.242	n/a	0	34	ButtonPress	Loss	True
332.622	1.45	Lose2	0.5714	n/a	No	2.626	n/a	5.0	NoResponse	-1	0.035	331.657	0	34	Feedback	Loss	True
334.072	2.626	Lose2	0.5714	n/a	No	2.626	n/a	n/a	NoResponse	-1	0.0	n/a	0	34	ISIslide	Loss	True
336.721	0.25	Lose2	0.5556	0.0	No	2.679	0.021	n/a	NoResponse	-1	n/a	n/a	-1	35	Cue	Loss	True
336.971	4.0	Lose2	0.5556	0.0	No	2.679	0.0	n/a	NoResponse	-1	n/a	n/a	-1	35	Fixation	Loss	True
340.969	0.21	Lose2	0.5556	0.002	No	2.679	-0.002	2.0	NoResponse	-1	0.224	340.193	-1	35	Target	Loss	True
341.186	0.49	Lose2	0.5556	n/a	No	2.679	n/a	n/a	NoResponse	-1	n/a	n/a	-1	35	Blank	Loss	True
341.193	0.3	Lose2	0.5556	0.002	No	2.679	-0.002	2.0	NoResponse	-1	0.224	n/a	-1	35	ButtonPress	Loss	True
341.669	1.45	Lose2	0.5556	n/a	No	2.679	n/a	5.0	NoResponse	-1	0.012	340.681	-1	35	Feedback	Loss	True
343.118	2.679	Lose2	0.5556	n/a	No	2.679	n/a	n/a	NoResponse	-1	0.0	n/a	-1	35	ISIslide	Loss	True
345.817	0.25	Control	0.5676	0.001	Yes	2.683	0.017	n/a	GoodResponse	0	n/a	n/a	-1	36	Cue	Neutral	True
346.067	4.0	Control	0.5676	0.0	Yes	2.683	0.0	n/a	GoodResponse	0	n/a	n/a	-1	36	Fixation	Neutral	True
350.066	0.22	Control	0.5676	0.001	Yes	2.683	-0.001	2.0	GoodResponse	0	0.216	349.282	-1	36	Target	Neutral	True
350.282	0.3	Control	0.5676	0.001	Yes	2.683	-0.001	2.0	GoodResponse	0	0.216	n/a	-1	36	ButtonPress	Neutral	True
350.283	0.48	Control	0.5676	n/a	Yes	2.683	n/a	n/a	GoodResponse	0	n/a	n/a	-1	36	Blank	Neutral	True
350.766	1.45	Control	0.5676	n/a	Yes	2.683	n/a	5.0	GoodResponse	0	0.037	349.803	-1	36	Feedback	Neutral	True
352.215	2.683	Control	0.5676	n/a	Yes	2.683	n/a	n/a	GoodResponse	0	0.0	n/a	-1	36	ISIslide	Neutral	True
354.914	0.25	Win2	0.5526	0.0	No	2.886	0.014	n/a	NoResponse	0	n/a	n/a	-1	37	Cue	MissedWin	True
355.164	4.0	Win2	0.5526	0.0	No	2.886	0.0	n/a	NoResponse	0	n/a	n/a	-1	37	Fixation	MissedWin	True
359.163	0.23	Win2	0.5526	0.001	No	2.886	-0.001	2.0	NoResponse	0	0.256	358.419	-1	37	Target	MissedWin	True
359.396	0.47	Win2	0.5526	n/a	No	2.886	n/a	n/a	NoResponse	0	n/a	n/a	-1	37	Blank	MissedWin	True
359.419	0.3	Win2	0.5526	0.001	No	2.886	-0.001	2.0	NoResponse	0	0.256	n/a	-1	37	ButtonPress	MissedWin	True
359.863	1.45	Win2	0.5526	n/a	No	2.886	n/a	5.0	NoResponse	0	0.013	358.876	-1	37	Feedback	MissedWin	True
361.312	2.886	Win2	0.5526	n/a	No	2.886	n/a	n/a	NoResponse	0	0.0	n/a	-1	37	ISIslide	MissedWin	True
364.228	0.25	Lose2	0.5640999999999999	0.0	Yes	2.822	0.028	n/a	GoodResponse	0	n/a	n/a	-1	38	Cue	AvoidedLoss	True
364.478	3.95	Lose2	0.5640999999999999	0.0	Yes	2.822	0.0	n/a	GoodResponse	0	n/a	n/a	-1	38	Fixation	AvoidedLoss	True
368.426	0.24	Lose2	0.5640999999999999	0.002	Yes	2.822	-0.002	2.0	GoodResponse	0	0.191	367.617	-1	38	Target	AvoidedLoss	True
368.617	0.3	Lose2	0.5640999999999999	0.002	Yes	2.822	-0.002	2.0	GoodResponse	0	0.191	n/a	-1	38	ButtonPress	AvoidedLoss	True
368.676	0.46	Lose2	0.5640999999999999	n/a	Yes	2.822	n/a	n/a	GoodResponse	0	n/a	n/a	-1	38	Blank	AvoidedLoss	True
369.126	1.45	Lose2	0.5640999999999999	n/a	Yes	2.822	n/a	5.0	GoodResponse	0	0.018	368.144	-1	38	Feedback	AvoidedLoss	True
370.575	2.822	Lose2	0.5640999999999999	n/a	Yes	2.822	n/a	n/a	GoodResponse	0	0.0	n/a	-1	38	ISIslide	AvoidedLoss	True
373.424	0.25	Win2	0.55	0.0	No	2.976	0.024	n/a	NoResponse	0	n/a	n/a	-1	39	Cue	MissedWin	True
373.674	4.1	Win2	0.55	0.0	No	2.976	0.0	n/a	NoResponse	0	n/a	n/a	-1	39	Fixation	MissedWin	True
377.773	0.25	Win2	0.55	0.001	No	2.976	-0.001	2.0	NoResponse	0	0.262	377.035	-1	39	Target	MissedWin	True
378.023	0.45	Win2	0.55	n/a	No	2.976	n/a	n/a	NoResponse	0	n/a	n/a	-1	39	Blank	MissedWin	True
378.035	0.3	Win2	0.55	0.001	No	2.976	-0.001	2.0	NoResponse	0	0.262	n/a	-1	39	ButtonPress	MissedWin	True
378.473	1.45	Win2	0.55	n/a	No	2.976	n/a	5.0	NoResponse	0	0.037	377.51	-1	39	Feedback	MissedWin	True
379.922	2.976	Win2	0.55	n/a	No	2.976	n/a	n/a	NoResponse	0	0.0	n/a	-1	39	ISIslide	MissedWin	True
382.921	0.25	Win2	0.561	0.0	Yes	2.729	0.021	n/a	GoodResponse	1	n/a	n/a	0	40	Cue	Win	True
383.171	3.95	Win2	0.561	0.0	Yes	2.729	0.0	n/a	GoodResponse	1	n/a	n/a	0	40	Fixation	Win	True
387.12	0.26	Win2	0.561	0.001	Yes	2.729	-0.001	2.0	GoodResponse	1	0.206	386.326	0	40	Target	Win	True
387.326	0.3	Win2	0.561	0.001	Yes	2.729	-0.001	2.0	GoodResponse	1	0.206	n/a	0	40	ButtonPress	Win	True
387.386	0.44	Win2	0.561	n/a	Yes	2.729	n/a	n/a	GoodResponse	1	n/a	n/a	0	40	Blank	Win	True
387.819	1.45	Win2	0.561	n/a	Yes	2.729	n/a	5.0	GoodResponse	1	0.008	386.827	0	40	Feedback	Win	True
389.269	2.729	Win2	0.561	n/a	Yes	2.729	n/a	n/a	GoodResponse	1	0.0	n/a	0	40	ISIslide	Win	True
392.018	0.25	Win2	0.5714	0.0	Yes	2.782	0.018	n/a	GoodResponse	1	n/a	n/a	1	41	Cue	Win	True
392.268	3.9	Win2	0.5714	0.0	Yes	2.782	0.0	n/a	GoodResponse	1	n/a	n/a	1	41	Fixation	Win	True
396.166	0.27	Win2	0.5714	0.002	Yes	2.782	-0.002	2.0	GoodResponse	1	0.194	395.36	1	41	Target	Win	True
396.36	0.3	Win2	0.5714	0.002	Yes	2.782	-0.002	2.0	GoodResponse	1	0.194	n/a	1	41	ButtonPress	Win	True
396.45	0.43	Win2	0.5714	n/a	Yes	2.782	n/a	n/a	GoodResponse	1	n/a	n/a	1	41	Blank	Win	True
396.866	1.45	Win2	0.5714	n/a	Yes	2.782	n/a	5.0	GoodResponse	1	0.034	395.9	1	41	Feedback	Win	True
398.316	2.782	Win2	0.5714	n/a	Yes	2.782	n/a	n/a	GoodResponse	1	0.0	n/a	1	41	ISIslide	Win	True
401.115	0.25	Control	0.5814	0.0	Yes	2.935	0.015	n/a	GoodResponse	0	n/a	n/a	1	42	Cue	Neutral	True
401.365	3.85	Control	0.5814	0.0	Yes	2.935	0.0	n/a	GoodResponse	0	n/a	n/a	1	42	Fixation	Neutral	True
405.213	0.28	Control	0.5814	0.002	Yes	2.935	-0.002	2.0	GoodResponse	0	0.213	404.426	1	42	Target	Neutral	True
405.426	0.3	Control	0.5814	0.002	Yes	2.935	-0.002	2.0	GoodResponse	0	0.213	n/a	1	42	ButtonPress	Neutral	True
405.496	0.42	Control	0.5814	n/a	Yes	2.935	n/a	n/a	GoodResponse	0	n/a	n/a	1	42	Blank	Neutral	True
405.913	1.45	Control	0.5814	n/a	Yes	2.935	n/a	5.0	GoodResponse	0	0.011	404.924	1	42	Feedback	Neutral	True
407.362	2.935	Control	0.5814	n/a	Yes	2.935	n/a	n/a	GoodResponse	0	0.0	n/a	1	42	ISIslide	Neutral	True
410.328	0.25	Win2	0.5909	0.0	Yes	3.172	0.028	n/a	GoodResponse	1	n/a	n/a	2	43	Cue	Win	True
410.578	4.0	Win2	0.5909	0.0	Yes	3.172	0.0	n/a	GoodResponse	1	n/a	n/a	2	43	Fixation	Win	True
414.577	0.29	Win2	0.5909	0.001	Yes	3.172	-0.001	2.0	GoodResponse	1	0.248	413.825	2	43	Target	Win	True
414.825	0.3	Win2	0.5909	0.001	Yes	3.172	-0.001	2.0	GoodResponse	1	0.248	n/a	2	43	ButtonPress	Win	True
414.876	0.41	Win2	0.5909	n/a	Yes	3.172	n/a	n/a	GoodResponse	1	n/a	n/a	2	43	Blank	Win	True
415.276	1.45	Win2	0.5909	n/a	Yes	3.172	n/a	5.0	GoodResponse	1	0.014	414.29	2	43	Feedback	Win	True
416.726	3.172	Win2	0.5909	n/a	Yes	3.172	n/a	n/a	GoodResponse	1	0.0	n/a	2	43	ISIslide	Win	True
419.925	0.25	Win2	0.6	0.0	Yes	2.975	0.025	n/a	GoodResponse	1	n/a	n/a	3	44	Cue	Win	True
420.175	4.0	Win2	0.6	0.0	Yes	2.975	0.0	n/a	GoodResponse	1	n/a	n/a	3	44	Fixation	Win	True
424.173	0.3	Win2	0.6	0.002	Yes	2.975	-0.002	2.0	GoodResponse	1	0.206	423.379	3	44	Target	Win	True
424.379	0.3	Win2	0.6	0.002	Yes	2.975	-0.002	2.0	GoodResponse	1	0.206	n/a	3	44	ButtonPress	Win	True
424.473	0.4	Win2	0.6	n/a	Yes	2.975	n/a	n/a	GoodResponse	1	n/a	n/a	3	44	Blank	Win	True
424.873	1.45	Win2	0.6	n/a	Yes	2.975	n/a	5.0	GoodResponse	1	0.027	423.9	3	44	Feedback	Win	True
426.322	2.975	Win2	0.6	n/a	Yes	2.975	n/a	n/a	GoodResponse	1	0.0	n/a	3	44	ISIslide	Win	True
429.321	0.25	Control	0.6087	0.0	Yes	2.879	0.021	n/a	GoodResponse	0	n/a	n/a	3	45	Cue	Neutral	True
429.571	4.1	Control	0.6087	0.0	Yes	2.879	0.0	n/a	GoodResponse	0	n/a	n/a	3	45	Fixation	Neutral	True
433.67	0.31	Control	0.6087	0.001	Yes	2.879	-0.001	2.0	GoodResponse	0	0.204	432.874	3	45	Target	Neutral	True
433.874	0.3	Control	0.6087	0.001	Yes	2.879	-0.001	2.0	GoodResponse	0	0.204	n/a	3	45	ButtonPress	Neutral	True
433.986	0.39	Control	0.6087	n/a	Yes	2.879	n/a	n/a	GoodResponse	0	n/a	n/a	3	45	Blank	Neutral	True
434.37	1.45	Control	0.6087	n/a	Yes	2.879	n/a	5.0	GoodResponse	0	0.042	433.412	3	45	Feedback	Neutral	True
435.819	2.879	Control	0.6087	n/a	Yes	2.879	n/a	n/a	GoodResponse	0	0.0	n/a	3	45	ISIslide	Neutral	True
438.718	0.25	Lose2	0.617	0.0	Yes	3.382	0.018	n/a	GoodResponse	0	n/a	n/a	3	46	Cue	AvoidedLoss	True
438.968	4.0	Lose2	0.617	0.0	Yes	3.382	0.0	n/a	GoodResponse	0	n/a	n/a	3	46	Fixation	AvoidedLoss	True
442.967	0.32	Lose2	0.617	0.001	Yes	3.382	-0.001	2.0	GoodResponse	0	0.202	442.169	3	46	Target	AvoidedLoss	True
443.169	0.3	Lose2	0.617	0.001	Yes	3.382	-0.001	2.0	GoodResponse	0	0.202	n/a	3	46	ButtonPress	AvoidedLoss	True
443.3	0.38	Lose2	0.617	n/a	Yes	3.382	n/a	n/a	GoodResponse	0	n/a	n/a	3	46	Blank	AvoidedLoss	True
443.666	1.45	Lose2	0.617	n/a	Yes	3.382	n/a	5.0	GoodResponse	0	0.014	442.68	3	46	Feedback	AvoidedLoss	True
445.116	3.382	Lose2	0.617	n/a	Yes	3.382	n/a	n/a	GoodResponse	0	0.0	n/a	3	46	ISIslide	AvoidedLoss	True
448.531	0.25	Lose2	0.625	0.0	Yes	2.669	0.031	n/a	GoodResponse	0	n/a	n/a	3	47	Cue	AvoidedLoss	True
448.781	4.0	Lose2	0.625	0.0	Yes	2.669	0.0	n/a	GoodResponse	0	n/a	n/a	3	47	Fixation	AvoidedLoss	True
452.78	0.33	Lose2	0.625	0.001	Yes	2.669	-0.001	2.0	GoodResponse	0	0.209	451.989	3	47	Target	AvoidedLoss	True
452.989	0.3	Lose2	0.625	0.001	Yes	2.669	-0.001	2.0	GoodResponse	0	0.209	n/a	3	47	ButtonPress	AvoidedLoss	True
453.113	0.37	Lose2	0.625	n/a	Yes	2.669	n/a	n/a	GoodResponse	0	n/a	n/a	3	47	Blank	AvoidedLoss	True
453.48	1.45	Lose2	0.625	n/a	Yes	2.669	n/a	5.0	GoodResponse	0	0.006	452.486	3	47	Feedback	AvoidedLoss	True
454.929	2.669	Lose2	0.625	n/a	Yes	2.669	n/a	n/a	GoodResponse	0	0.0	n/a	3	47	ISIslide	AvoidedLoss	True
457.628	0.25	Lose2	0.6122	0.0	No	3.022	0.028	n/a	NoResponse	-1	n/a	n/a	2	48	Cue	Loss	True
457.878	3.95	Lose2	0.6122	0.0	No	3.022	0.0	n/a	NoResponse	-1	n/a	n/a	2	48	Fixation	Loss	True
461.827	0.34	Lose2	0.6122	0.001	No	3.022	-0.001	2.0	NoResponse	-1	0.357	461.184	2	48	Target	Loss	True
462.176	0.36	Lose2	0.6122	n/a	No	3.022	n/a	n/a	NoResponse	-1	n/a	n/a	2	48	Blank	Loss	True
462.184	0.3	Lose2	0.6122	0.001	No	3.022	-0.001	2.0	NoResponse	-1	0.357	n/a	2	48	ButtonPress	Loss	True
462.526	1.45	Lose2	0.6122	n/a	No	3.022	n/a	5.0	NoResponse	-1	0.032	461.558	2	48	Feedback	Loss	True
463.976	3.022	Lose2	0.6122	n/a	No	3.022	n/a	n/a	NoResponse	-1	0.0	n/a	2	48	ISIslide	Loss	True
467.025	0.25	Control	0.62	0.0	Yes	2.875	0.025	n/a	GoodResponse	0	n/a	n/a	2	49	Cue	Neutral	True
467.275	4.0	Control	0.62	0.0	Yes	2.875	0.0	n/a	GoodResponse	0	n/a	n/a	2	49	Fixation	Neutral	True
471.273	0.35	Control	0.62	0.002	Yes	2.875	-0.002	2.0	GoodResponse	0	0.224	470.497	2	49	Target	Neutral	True
471.497	0.3	Control	0.62	0.002	Yes	2.875	-0.002	2.0	GoodResponse	0	0.224	n/a	2	49	ButtonPress	Neutral	True
471.623	0.35	Control	0.62	n/a	Yes	2.875	n/a	n/a	GoodResponse	0	n/a	n/a	2	49	Blank	Neutral	True
471.973	1.45	Control	0.62	n/a	Yes	2.875	n/a	5.0	GoodResponse	0	0.048	471.021	2	49	Feedback	Neutral	True
473.423	2.875	Control	0.62	n/a	Yes	2.875	n/a	n/a	GoodResponse	0	0.0	n/a	2	49	ISIslide	Neutral	True
476.322	0.25	Control	0.6275	0.0	Yes	2.778	0.022	n/a	GoodResponse	0	n/a	n/a	2	50	Cue	Neutral	True
476.571	4.0	Control	0.6275	0.001	Yes	2.778	-0.001	n/a	GoodResponse	0	n/a	n/a	2	50	Fixation	Neutral	True
480.57	0.36	Control	0.6275	0.002	Yes	2.778	-0.002	2.0	GoodResponse	0	0.174	479.744	2	50	Target	Neutral	True
480.744	0.3	Control	0.6275	0.002	Yes	2.778	-0.002	2.0	GoodResponse	0	0.174	n/a	2	50	ButtonPress	Neutral	True
480.937	0.34	Control	0.6275	n/a	Yes	2.778	n/a	n/a	GoodResponse	0	n/a	n/a	2	50	Blank	Neutral	True
481.27	1.45	Control	0.6275	n/a	Yes	2.778	n/a	5.0	GoodResponse	0	0.02	480.29	2	50	Feedback	Neutral	True
482.719	2.778	Control	0.6275	n/a	Yes	2.778	n/a	n/a	GoodResponse	0	0.0	n/a	2	50	ISIslide	Neutral	True
485.518	0.25	Control	0.6346	0.0	Yes	2.732	0.018	n/a	GoodResponse	0	n/a	n/a	2	51	Cue	Neutral	True
485.768	3.95	Control	0.6346	0.0	Yes	2.732	0.0	n/a	GoodResponse	0	n/a	n/a	2	51	Fixation	Neutral	True
489.717	0.37	Control	0.6346	0.001	Yes	2.732	-0.001	2.0	GoodResponse	0	0.204	488.921	2	51	Target	Neutral	True
489.921	0.3	Control	0.6346	0.001	Yes	2.732	-0.001	2.0	GoodResponse	0	0.204	n/a	2	51	ButtonPress	Neutral	True
490.1	0.33	Control	0.6346	n/a	Yes	2.732	n/a	n/a	GoodResponse	0	n/a	n/a	2	51	Blank	Neutral	True
490.417	1.45	Control	0.6346	n/a	Yes	2.732	n/a	5.0	GoodResponse	0	0.043	489.46	2	51	Feedback	Neutral	True
491.866	2.732	Control	0.6346	n/a	Yes	2.732	n/a	n/a	GoodResponse	0	0.0	n/a	2	51	ISIslide	Neutral	True
494.615	0.25	Control	0.6415000000000001	0.0	Yes	2.635	0.015	n/a	GoodResponse	0	n/a	n/a	2	52	Cue	Neutral	True
494.865	4.05	Control	0.6415000000000001	0.0	Yes	2.635	0.0	n/a	GoodResponse	0	n/a	n/a	2	52	Fixation	Neutral	True
498.914	0.38	Control	0.6415000000000001	0.001	Yes	2.635	-0.001	2.0	GoodResponse	0	0.22	498.134	2	52	Target	Neutral	True
499.134	0.3	Control	0.6415000000000001	0.001	Yes	2.635	-0.001	2.0	GoodResponse	0	0.22	n/a	2	52	ButtonPress	Neutral	True
499.297	0.32	Control	0.6415000000000001	n/a	Yes	2.635	n/a	n/a	GoodResponse	0	n/a	n/a	2	52	Blank	Neutral	True
499.613	1.45	Control	0.6415000000000001	n/a	Yes	2.635	n/a	5.0	GoodResponse	0	0.018	498.631	2	52	Feedback	Neutral	True
501.063	2.635	Control	0.6415000000000001	n/a	Yes	2.635	n/a	n/a	GoodResponse	0	0.0	n/a	2	52	ISIslide	Neutral	True
503.729	0.25	Win2	0.6481	0.0	Yes	2.921	0.029	n/a	GoodResponse	1	n/a	n/a	3	53	Cue	Win	True
503.978	4.05	Win2	0.6481	0.001	Yes	2.921	-0.001	n/a	GoodResponse	1	n/a	n/a	3	53	Fixation	Win	True
508.027	0.39	Win2	0.6481	0.002	Yes	2.921	-0.002	2.0	GoodResponse	1	0.191	507.218	3	53	Target	Win	True
508.218	0.3	Win2	0.6481	0.002	Yes	2.921	-0.002	2.0	GoodResponse	1	0.191	n/a	3	53	ButtonPress	Win	True
508.427	0.31	Win2	0.6481	n/a	Yes	2.921	n/a	n/a	GoodResponse	1	n/a	n/a	3	53	Blank	Win	True
508.727	1.45	Win2	0.6481	n/a	Yes	2.921	n/a	5.0	GoodResponse	1	0.025	507.752	3	53	Feedback	Win	True
510.176	2.921	Win2	0.6481	n/a	Yes	2.921	n/a	n/a	GoodResponse	1	0.0	n/a	3	53	ISIslide	Win	True
513.125	0.25	Win2	0.6545000000000001	0.0	Yes	2.725	0.025	n/a	GoodResponse	1	n/a	n/a	4	54	Cue	Win	True
513.375	3.95	Win2	0.6545000000000001	0.0	Yes	2.725	0.0	n/a	GoodResponse	1	n/a	n/a	4	54	Fixation	Win	True
517.324	0.4	Win2	0.6545000000000001	0.001	Yes	2.725	-0.001	2.0	GoodResponse	1	0.256	516.58	4	54	Target	Win	True
517.58	0.3	Win2	0.6545000000000001	0.001	Yes	2.725	-0.001	2.0	GoodResponse	1	0.256	n/a	4	54	ButtonPress	Win	True
517.724	0.3	Win2	0.6545000000000001	n/a	Yes	2.725	n/a	n/a	GoodResponse	1	n/a	n/a	4	54	Blank	Win	True
518.023	1.45	Win2	0.6545000000000001	n/a	Yes	2.725	n/a	5.0	GoodResponse	1	0.047	517.07	4	54	Feedback	Win	True
519.473	2.725	Win2	0.6545000000000001	n/a	Yes	2.725	n/a	n/a	GoodResponse	1	0.0	n/a	4	54	ISIslide	Win	True
522.222	0.25	Control	0.6607	0.0	Yes	3.028	0.022	n/a	GoodResponse	0	n/a	n/a	4	55	Cue	Neutral	True
522.472	3.95	Control	0.6607	0.0	Yes	3.028	0.0	n/a	GoodResponse	0	n/a	n/a	4	55	Fixation	Neutral	True
526.421	0.41	Control	0.6607	0.001	Yes	3.028	-0.001	2.0	GoodResponse	0	0.123	525.544	4	55	Target	Neutral	True
526.544	0.3	Control	0.6607	0.001	Yes	3.028	-0.001	2.0	GoodResponse	0	0.123	n/a	4	55	ButtonPress	Neutral	True
526.837	0.29	Control	0.6607	n/a	Yes	3.028	n/a	n/a	GoodResponse	0	n/a	n/a	4	55	Blank	Neutral	True
527.12	1.45	Control	0.6607	n/a	Yes	3.028	n/a	5.0	GoodResponse	0	0.022	526.142	4	55	Feedback	Neutral	True
528.57	3.028	Control	0.6607	n/a	Yes	3.028	n/a	n/a	GoodResponse	0	0.0	n/a	4	55	ISIslide	Neutral	True
531.619	0.25	Control	0.6667000000000001	0.0	Yes	2.831	0.019	n/a	GoodResponse	0	n/a	n/a	4	56	Cue	Neutral	True
531.869	3.95	Control	0.6667000000000001	0.0	Yes	2.831	0.0	n/a	GoodResponse	0	n/a	n/a	4	56	Fixation	Neutral	True
535.817	0.41	Control	0.6667000000000001	0.002	Yes	2.831	-0.002	2.0	GoodResponse	0	0.221	535.038	4	56	Target	Neutral	True
536.038	0.3	Control	0.6667000000000001	0.002	Yes	2.831	-0.002	2.0	GoodResponse	0	0.221	n/a	4	56	ButtonPress	Neutral	True
536.234	0.29	Control	0.6667000000000001	n/a	Yes	2.831	n/a	n/a	GoodResponse	0	n/a	n/a	4	56	Blank	Neutral	True
536.517	1.45	Control	0.6667000000000001	n/a	Yes	2.831	n/a	5.0	GoodResponse	0	0.04	535.557	4	56	Feedback	Neutral	True
537.966	2.831	Control	0.6667000000000001	n/a	Yes	2.831	n/a	n/a	GoodResponse	0	0.0	n/a	4	56	ISIslide	Neutral	True
540.815	0.25	Control	0.6724	0.001	Yes	3.485	0.015	n/a	GoodResponse	0	n/a	n/a	4	57	Cue	Neutral	True
541.065	4.0	Control	0.6724	0.0	Yes	3.485	0.0	n/a	GoodResponse	0	n/a	n/a	4	57	Fixation	Neutral	True
545.064	0.4	Control	0.6724	0.001	Yes	3.485	-0.001	2.0	GoodResponse	0	0.216	544.28	4	57	Target	Neutral	True
545.28	0.3	Control	0.6724	0.001	Yes	3.485	-0.001	2.0	GoodResponse	0	0.216	n/a	4	57	ButtonPress	Neutral	True
545.464	0.3	Control	0.6724	n/a	Yes	3.485	n/a	n/a	GoodResponse	0	n/a	n/a	4	57	Blank	Neutral	True
545.764	1.45	Control	0.6724	n/a	Yes	3.485	n/a	5.0	GoodResponse	0	0.012	544.776	4	57	Feedback	Neutral	True
547.213	3.485	Control	0.6724	n/a	Yes	3.485	n/a	n/a	GoodResponse	0	0.0	n/a	4	57	ISIslide	Neutral	True
550.729	0.25	Win2	0.6779999999999999	0.0	Yes	2.721	0.029	n/a	GoodResponse	1	n/a	n/a	5	58	Cue	Win	True
550.979	4.05	Win2	0.6779999999999999	0.0	Yes	2.721	0.0	n/a	GoodResponse	1	n/a	n/a	5	58	Fixation	Win	True
555.027	0.39	Win2	0.6779999999999999	0.002	Yes	2.721	-0.002	2.0	GoodResponse	1	0.228	554.255	5	58	Target	Win	True
555.255	0.3	Win2	0.6779999999999999	0.002	Yes	2.721	-0.002	2.0	GoodResponse	1	0.228	n/a	5	58	ButtonPress	Win	True
555.427	0.31	Win2	0.6779999999999999	n/a	Yes	2.721	n/a	n/a	GoodResponse	1	n/a	n/a	5	58	Blank	Win	True
555.727	1.45	Win2	0.6779999999999999	n/a	Yes	2.721	n/a	5.0	GoodResponse	1	0.001	554.728	5	58	Feedback	Win	True
557.176	2.721	Win2	0.6779999999999999	n/a	Yes	2.721	n/a	n/a	GoodResponse	1	0.0	n/a	5	58	ISIslide	Win	True
559.925	0.25	Lose2	0.6833	0.001	Yes	2.675	0.025	n/a	GoodResponse	0	n/a	n/a	5	59	Cue	AvoidedLoss	True
560.175	4.0	Lose2	0.6833	0.0	Yes	2.675	0.0	n/a	GoodResponse	0	n/a	n/a	5	59	Fixation	AvoidedLoss	True
564.174	0.38	Lose2	0.6833	0.001	Yes	2.675	-0.001	2.0	GoodResponse	0	0.234	563.408	5	59	Target	AvoidedLoss	True
564.408	0.3	Lose2	0.6833	0.001	Yes	2.675	-0.001	2.0	GoodResponse	0	0.234	n/a	5	59	ButtonPress	AvoidedLoss	True
564.557	0.32	Lose2	0.6833	n/a	Yes	2.675	n/a	n/a	GoodResponse	0	n/a	n/a	5	59	Blank	AvoidedLoss	True
564.874	1.45	Lose2	0.6833	n/a	Yes	2.675	n/a	5.0	GoodResponse	0	0.025	563.899	5	59	Feedback	AvoidedLoss	True
566.323	2.675	Lose2	0.6833	n/a	Yes	2.675	n/a	n/a	GoodResponse	0	0.0	n/a	5	59	ISIslide	AvoidedLoss	True
569.022	0.25	Control	0.6884999999999999	0.0	Yes	2.678	0.022	n/a	GoodResponse	0	n/a	n/a	5	60	Cue	Neutral	True
569.272	4.0	Control	0.6884999999999999	0.0	Yes	2.678	0.0	n/a	GoodResponse	0	n/a	n/a	5	60	Fixation	Neutral	True
573.271	0.37	Control	0.6884999999999999	0.001	Yes	2.678	-0.001	2.0	GoodResponse	0	0.246	572.517	5	60	Target	Neutral	True
573.517	0.3	Control	0.6884999999999999	0.001	Yes	2.678	-0.001	2.0	GoodResponse	0	0.246	n/a	5	60	ButtonPress	Neutral	True
573.654	0.33	Control	0.6884999999999999	n/a	Yes	2.678	n/a	n/a	GoodResponse	0	n/a	n/a	5	60	Blank	Neutral	True
573.97	1.45	Control	0.6884999999999999	n/a	Yes	2.678	n/a	5.0	GoodResponse	0	0.001	572.971	5	60	Feedback	Neutral	True
575.42	2.678	Control	0.6884999999999999	n/a	Yes	2.678	n/a	n/a	GoodResponse	0	0.0	n/a	5	60	ISIslide	Neutral	True
578.119	0.25	Lose2	0.6934999999999999	0.0	Yes	2.981	0.019	n/a	GoodResponse	0	n/a	n/a	5	61	Cue	AvoidedLoss	True
578.369	4.0	Lose2	0.6934999999999999	0.0	Yes	2.981	0.0	n/a	GoodResponse	0	n/a	n/a	5	61	Fixation	AvoidedLoss	True
582.367	0.36	Lose2	0.6934999999999999	0.002	Yes	2.981	-0.002	2.0	GoodResponse	0	0.218	581.585	5	61	Target	AvoidedLoss	True
582.585	0.3	Lose2	0.6934999999999999	0.002	Yes	2.981	-0.002	2.0	GoodResponse	0	0.218	n/a	5	61	ButtonPress	AvoidedLoss	True
582.734	0.34	Lose2	0.6934999999999999	n/a	Yes	2.981	n/a	n/a	GoodResponse	0	n/a	n/a	5	61	Blank	AvoidedLoss	True
583.067	1.45	Lose2	0.6934999999999999	n/a	Yes	2.981	n/a	5.0	GoodResponse	0	0.026	582.093	5	61	Feedback	AvoidedLoss	True
584.517	2.981	Lose2	0.6934999999999999	n/a	Yes	2.981	n/a	n/a	GoodResponse	0	0.0	n/a	5	61	ISIslide	AvoidedLoss	True
587.516	0.25	Lose2	0.6984	0.0	Yes	2.884	0.016	n/a	GoodResponse	0	n/a	n/a	5	62	Cue	AvoidedLoss	True
587.766	3.9	Lose2	0.6984	0.0	Yes	2.884	0.0	n/a	GoodResponse	0	n/a	n/a	5	62	Fixation	AvoidedLoss	True
591.664	0.35	Lose2	0.6984	0.002	Yes	2.884	-0.002	2.0	GoodResponse	0	0.216	590.88	5	62	Target	AvoidedLoss	True
591.88	0.3	Lose2	0.6984	0.002	Yes	2.884	-0.002	2.0	GoodResponse	0	0.216	n/a	5	62	ButtonPress	AvoidedLoss	True
592.014	0.35	Lose2	0.6984	n/a	Yes	2.884	n/a	n/a	GoodResponse	0	n/a	n/a	5	62	Blank	AvoidedLoss	True
592.364	1.45	Lose2	0.6984	n/a	Yes	2.884	n/a	5.0	GoodResponse	0	0.046	591.41	5	62	Feedback	AvoidedLoss	True
593.813	2.884	Lose2	0.6984	n/a	Yes	2.884	n/a	n/a	GoodResponse	0	0.0	n/a	5	62	ISIslide	AvoidedLoss	True
596.712	0.25	Lose2	0.7031000000000001	0.001	Yes	2.638	0.012	n/a	GoodResponse	0	n/a	n/a	5	63	Cue	AvoidedLoss	True
596.962	4.05	Lose2	0.7031000000000001	0.0	Yes	2.638	0.0	n/a	GoodResponse	0	n/a	n/a	5	63	Fixation	AvoidedLoss	True
601.011	0.34	Lose2	0.7031000000000001	0.001	Yes	2.638	-0.001	2.0	GoodResponse	0	0.211	600.222	5	63	Target	AvoidedLoss	True
601.222	0.3	Lose2	0.7031000000000001	0.001	Yes	2.638	-0.001	2.0	GoodResponse	0	0.211	n/a	5	63	ButtonPress	AvoidedLoss	True
601.361	0.36	Lose2	0.7031000000000001	n/a	Yes	2.638	n/a	n/a	GoodResponse	0	n/a	n/a	5	63	Blank	AvoidedLoss	True
601.711	1.45	Lose2	0.7031000000000001	n/a	Yes	2.638	n/a	5.0	GoodResponse	0	0.016	600.727	5	63	Feedback	AvoidedLoss	True
603.16	2.638	Lose2	0.7031000000000001	n/a	Yes	2.638	n/a	n/a	GoodResponse	0	0.0	n/a	5	63	ISIslide	AvoidedLoss	True
605.826	0.25	Win2	0.7077	0.0	Yes	3.124	0.026	n/a	GoodResponse	1	n/a	n/a	6	64	Cue	Win	True
606.076	4.15	Win2	0.7077	0.0	Yes	3.124	0.0	n/a	GoodResponse	1	n/a	n/a	6	64	Fixation	Win	True
610.224	0.33	Win2	0.7077	0.002	Yes	3.124	-0.002	2.0	GoodResponse	1	0.191	609.415	6	64	Target	Win	True
610.415	0.3	Win2	0.7077	0.002	Yes	3.124	-0.002	2.0	GoodResponse	1	0.191	n/a	6	64	ButtonPress	Win	True
610.558	0.37	Win2	0.7077	n/a	Yes	3.124	n/a	n/a	GoodResponse	1	n/a	n/a	6	64	Blank	Win	True
610.924	1.45	Win2	0.7077	n/a	Yes	3.124	n/a	5.0	GoodResponse	1	0.023	609.947	6	64	Feedback	Win	True
612.374	3.124	Win2	0.7077	n/a	Yes	3.124	n/a	n/a	GoodResponse	1	0.0	n/a	6	64	ISIslide	Win	True
615.522	0.25	Control	0.7121	0.001	Yes	2.778	0.022	n/a	GoodResponse	0	n/a	n/a	6	65	Cue	Neutral	True
615.772	4.0	Control	0.7121	0.0	Yes	2.778	0.0	n/a	GoodResponse	0	n/a	n/a	6	65	Fixation	Neutral	True
619.771	0.32	Control	0.7121	0.001	Yes	2.778	-0.001	2.0	GoodResponse	0	0.235	619.006	6	65	Target	Neutral	True
620.006	0.3	Control	0.7121	0.001	Yes	2.778	-0.001	2.0	GoodResponse	0	0.235	n/a	6	65	ButtonPress	Neutral	True
620.088	0.38	Control	0.7121	n/a	Yes	2.778	n/a	n/a	GoodResponse	0	n/a	n/a	6	65	Blank	Neutral	True
620.471	1.45	Control	0.7121	n/a	Yes	2.778	n/a	5.0	GoodResponse	0	0.036	619.507	6	65	Feedback	Neutral	True
621.92	2.778	Control	0.7121	n/a	Yes	2.778	n/a	n/a	GoodResponse	0	0.0	n/a	6	65	ISIslide	Neutral	True
624.719	0.25	Win2	0.7015	0.0	No	2.781	0.019	n/a	NoResponse	0	n/a	n/a	6	66	Cue	MissedWin	True
624.969	3.9	Win2	0.7015	0.0	No	2.781	0.0	2.0	NoResponse	0	3.772	627.741	6	66	Fixation	MissedWin	True
628.741	0.3	Win2	0.7015	0.0	No	2.781	0.0	2.0	NoResponse	0	3.772	n/a	6	66	ButtonPress	MissedWin	True
628.868	0.31	Win2	0.7015	0.001	No	2.781	-0.001	n/a	NoResponse	0	n/a	n/a	6	66	Target	MissedWin	True
629.184	0.39	Win2	0.7015	n/a	No	2.781	n/a	n/a	NoResponse	0	n/a	n/a	6	66	Blank	MissedWin	True
629.568	1.45	Win2	0.7015	n/a	No	2.781	n/a	5.0	NoResponse	0	0.012	628.58	6	66	Feedback	MissedWin	True
631.017	2.781	Win2	0.7015	n/a	No	2.781	n/a	n/a	NoResponse	0	0.0	n/a	6	66	ISIslide	MissedWin	True
633.816	0.25	Control	0.7059000000000001	0.0	Yes	2.734	0.016	n/a	GoodResponse	0	n/a	n/a	6	67	Cue	Neutral	True
634.066	3.95	Control	0.7059000000000001	0.0	Yes	2.734	0.0	n/a	GoodResponse	0	n/a	n/a	6	67	Fixation	Neutral	True
638.015	0.3	Control	0.7059000000000001	0.001	Yes	2.734	-0.001	2.0	GoodResponse	0	0.248	637.263	6	67	Target	Neutral	True
638.263	0.3	Control	0.7059000000000001	0.001	Yes	2.734	-0.001	2.0	GoodResponse	0	0.248	n/a	6	67	ButtonPress	Neutral	True
638.314	0.4	Control	0.7059000000000001	n/a	Yes	2.734	n/a	n/a	GoodResponse	0	n/a	n/a	6	67	Blank	Neutral	True
638.714	1.45	Control	0.7059000000000001	n/a	Yes	2.734	n/a	5.0	GoodResponse	0	0.037	637.751	6	67	Feedback	Neutral	True
640.164	2.734	Control	0.7059000000000001	n/a	Yes	2.734	n/a	n/a	GoodResponse	0	0.0	n/a	6	67	ISIslide	Neutral	True
642.929	0.25	Win2	0.7101000000000001	0.001	Yes	3.071	0.029	2.0	GoodResponse	1	0.249	642.178	7	68	Cue	Win	False
643.178	0.3	Win2	0.7101000000000001	0.001	Yes	3.071	0.029	2.0	GoodResponse	1	0.249	n/a	7	68	ButtonPress	Win	False
643.179	4.0	Win2	0.7101000000000001	0.0	Yes	3.071	0.0	n/a	GoodResponse	1	n/a	n/a	7	68	Fixation	Win	False
647.178	0.29	Win2	0.7101000000000001	0.001	Yes	3.071	-0.001	2.0	GoodResponse	1	0.216	646.394	7	68	Target	Win	False
647.394	0.3	Win2	0.7101000000000001	0.001	Yes	3.071	-0.001	2.0	GoodResponse	1	0.216	n/a	7	68	ButtonPress	Win	False
647.478	0.41	Win2	0.7101000000000001	n/a	Yes	3.071	n/a	n/a	GoodResponse	1	n/a	n/a	7	68	Blank	Win	False
647.878	1.45	Win2	0.7101000000000001	n/a	Yes	3.071	n/a	5.0	GoodResponse	1	0.044	646.922	7	68	Feedback	Win	False
649.327	3.071	Win2	0.7101000000000001	n/a	Yes	3.071	n/a	n/a	GoodResponse	1	0.0	n/a	7	68	ISIslide	Win	False
652.426	0.25	Win2	0.7143	0.0	Yes	3.224	0.026	n/a	GoodResponse	1	n/a	n/a	8	69	Cue	Win	True
652.676	3.95	Win2	0.7143	0.0	Yes	3.224	0.0	n/a	GoodResponse	1	n/a	n/a	8	69	Fixation	Win	True
656.625	0.28	Win2	0.7143	0.001	Yes	3.224	-0.001	2.0	GoodResponse	1	0.209	655.834	8	69	Target	Win	True
656.834	0.3	Win2	0.7143	0.001	Yes	3.224	-0.001	2.0	GoodResponse	1	0.209	n/a	8	69	ButtonPress	Win	True
656.908	0.42	Win2	0.7143	n/a	Yes	3.224	n/a	n/a	GoodResponse	1	n/a	n/a	8	69	Blank	Win	True
657.324	1.45	Win2	0.7143	n/a	Yes	3.224	n/a	5.0	GoodResponse	1	0.012	656.336	8	69	Feedback	Win	True
658.774	3.224	Win2	0.7143	n/a	Yes	3.224	n/a	n/a	GoodResponse	1	0.0	n/a	8	69	ISIslide	Win	True
662.023	0.25	Lose2	0.7182999999999999	0.0	Yes	3.027	0.023	n/a	GoodResponse	0	n/a	n/a	8	70	Cue	AvoidedLoss	True
662.273	4.05	Lose2	0.7182999999999999	0.0	Yes	3.027	0.0	n/a	GoodResponse	0	n/a	n/a	8	70	Fixation	AvoidedLoss	True
666.321	0.27	Lose2	0.7182999999999999	0.002	Yes	3.027	-0.002	2.0	GoodResponse	0	0.235	665.556	8	70	Target	AvoidedLoss	True
666.556	0.3	Lose2	0.7182999999999999	0.002	Yes	3.027	-0.002	2.0	GoodResponse	0	0.235	n/a	8	70	ButtonPress	AvoidedLoss	True
666.604	0.43	Lose2	0.7182999999999999	n/a	Yes	3.027	n/a	n/a	GoodResponse	0	n/a	n/a	8	70	Blank	AvoidedLoss	True
667.021	1.45	Lose2	0.7182999999999999	n/a	Yes	3.027	n/a	5.0	GoodResponse	0	0.022	666.043	8	70	Feedback	AvoidedLoss	True
668.47	3.027	Lose2	0.7182999999999999	n/a	Yes	3.027	n/a	n/a	GoodResponse	0	0.0	n/a	8	70	ISIslide	AvoidedLoss	True
671.519	0.25	Win2	0.7222	0.0	Yes	2.731	0.019	n/a	GoodResponse	1	n/a	n/a	9	71	Cue	Win	True
671.769	4.05	Win2	0.7222	0.0	Yes	2.731	0.0	n/a	GoodResponse	1	n/a	n/a	9	71	Fixation	Win	True
675.818	0.26	Win2	0.7222	0.001	Yes	2.731	-0.001	2.0	GoodResponse	1	0.199	675.017	9	71	Target	Win	True
676.017	0.3	Win2	0.7222	0.001	Yes	2.731	-0.001	2.0	GoodResponse	1	0.199	n/a	9	71	ButtonPress	Win	True
676.084	0.44	Win2	0.7222	n/a	Yes	2.731	n/a	n/a	GoodResponse	1	n/a	n/a	9	71	Blank	Win	True
676.518	1.45	Win2	0.7222	n/a	Yes	2.731	n/a	5.0	GoodResponse	1	0.037	675.555	9	71	Feedback	Win	True
677.967	2.731	Win2	0.7222	n/a	Yes	2.731	n/a	n/a	GoodResponse	1	0.0	n/a	9	71	ISIslide	Win	True
680.716	0.25	Win2	0.726	0.0	Yes	2.784	0.016	n/a	GoodResponse	1	n/a	n/a	10	72	Cue	Win	True
680.966	4.1	Win2	0.726	0.0	Yes	2.784	0.0	n/a	GoodResponse	1	n/a	n/a	10	72	Fixation	Win	True
685.065	0.25	Win2	0.726	0.001	Yes	2.784	-0.001	2.0	GoodResponse	1	0.2	684.265	10	72	Target	Win	True
685.265	0.3	Win2	0.726	0.001	Yes	2.784	-0.001	2.0	GoodResponse	1	0.2	n/a	10	72	ButtonPress	Win	True
685.315	0.45	Win2	0.726	n/a	Yes	2.784	n/a	n/a	GoodResponse	1	n/a	n/a	10	72	Blank	Win	True
685.764	1.45	Win2	0.726	n/a	Yes	2.784	n/a	5.0	GoodResponse	1	0.011	684.775	10	72	Feedback	Win	True
687.214	2.784	Win2	0.726	n/a	Yes	2.784	n/a	n/a	GoodResponse	1	0.0	n/a	10	72	ISIslide	Win	True
690.03	0.25	Win2	0.7297	0.0	Yes	2.67	0.03	n/a	GoodResponse	1	n/a	n/a	11	73	Cue	Win	True
690.279	4.0	Win2	0.7297	0.001	Yes	2.67	-0.001	n/a	GoodResponse	1	n/a	n/a	11	73	Fixation	Win	True
694.278	0.24	Win2	0.7297	0.002	Yes	2.67	-0.002	2.0	GoodResponse	1	0.218	693.496	11	73	Target	Win	True
694.496	0.3	Win2	0.7297	0.002	Yes	2.67	-0.002	2.0	GoodResponse	1	0.218	n/a	11	73	ButtonPress	Win	True
694.528	0.46	Win2	0.7297	n/a	Yes	2.67	n/a	n/a	GoodResponse	1	n/a	n/a	11	73	Blank	Win	True
694.978	1.45	Win2	0.7297	n/a	Yes	2.67	n/a	5.0	GoodResponse	1	0.017	693.995	11	73	Feedback	Win	True
696.427	2.67	Win2	0.7297	n/a	Yes	2.67	n/a	n/a	GoodResponse	1	0.0	n/a	11	73	ISIslide	Win	True
699.126	0.25	Lose2	0.7333	0.0	Yes	2.624	0.026	n/a	GoodResponse	0	n/a	n/a	11	74	Cue	AvoidedLoss	True
699.376	4.05	Lose2	0.7333	0.0	Yes	2.624	0.0	n/a	GoodResponse	0	n/a	n/a	11	74	Fixation	AvoidedLoss	True
703.425	0.23	Lose2	0.7333	0.001	Yes	2.624	-0.001	2.0	GoodResponse	0	0.199	702.624	11	74	Target	AvoidedLoss	True
703.624	0.3	Lose2	0.7333	0.001	Yes	2.624	-0.001	2.0	GoodResponse	0	0.199	n/a	11	74	ButtonPress	AvoidedLoss	True
703.658	0.47	Lose2	0.7333	n/a	Yes	2.624	n/a	n/a	GoodResponse	0	n/a	n/a	11	74	Blank	AvoidedLoss	True
704.125	1.45	Lose2	0.7333	n/a	Yes	2.624	n/a	5.0	GoodResponse	0	0.04	703.165	11	74	Feedback	AvoidedLoss	True
705.574	2.624	Lose2	0.7333	n/a	Yes	2.624	n/a	n/a	GoodResponse	0	0.0	n/a	11	74	ISIslide	AvoidedLoss	True
708.223	0.25	Lose2	0.7368000000000001	0.0	Yes	2.927	0.023	n/a	GoodResponse	0	n/a	n/a	11	75	Cue	AvoidedLoss	True
708.473	3.95	Lose2	0.7368000000000001	0.0	Yes	2.927	0.0	n/a	GoodResponse	0	n/a	n/a	11	75	Fixation	AvoidedLoss	True
712.422	0.22	Lose2	0.7368000000000001	0.001	Yes	2.927	-0.001	2.0	GoodResponse	0	0.197	711.619	11	75	Target	AvoidedLoss	True
712.619	0.3	Lose2	0.7368000000000001	0.001	Yes	2.927	-0.001	2.0	GoodResponse	0	0.197	n/a	11	75	ButtonPress	AvoidedLoss	True
712.655	0.48	Lose2	0.7368000000000001	n/a	Yes	2.927	n/a	n/a	GoodResponse	0	n/a	n/a	11	75	Blank	AvoidedLoss	True
713.121	1.45	Lose2	0.7368000000000001	n/a	Yes	2.927	n/a	5.0	GoodResponse	0	0.019	712.14	11	75	Feedback	AvoidedLoss	True
714.571	2.927	Lose2	0.7368000000000001	n/a	Yes	2.927	n/a	n/a	GoodResponse	0	0.0	n/a	11	75	ISIslide	AvoidedLoss	True
717.537	0.25	Control	0.7403	0.0	Yes	3.213	0.037	n/a	GoodResponse	0	n/a	n/a	11	76	Cue	Neutral	True
717.786	4.05	Control	0.7403	0.001	Yes	3.213	-0.001	n/a	GoodResponse	0	n/a	n/a	11	76	Fixation	Neutral	True
721.835	0.21	Control	0.7403	0.002	Yes	3.213	-0.002	2.0	GoodResponse	0	0.207	721.042	11	76	Target	Neutral	True
722.042	0.3	Control	0.7403	0.002	Yes	3.213	-0.002	2.0	GoodResponse	0	0.207	n/a	11	76	ButtonPress	Neutral	True
722.052	0.49	Control	0.7403	n/a	Yes	3.213	n/a	n/a	GoodResponse	0	n/a	n/a	11	76	Blank	Neutral	True
722.535	1.45	Control	0.7403	n/a	Yes	3.213	n/a	5.0	GoodResponse	0	0.02	721.555	11	76	Feedback	Neutral	True
723.984	3.213	Control	0.7403	n/a	Yes	3.213	n/a	n/a	GoodResponse	0	0.0	n/a	11	76	ISIslide	Neutral	True
727.216	0.25	Lose2	0.7308	0.001	No	2.584	0.016	n/a	NoResponse	-1	n/a	n/a	10	77	Cue	Loss	True
727.466	3.95	Lose2	0.7308	0.0	No	2.584	0.0	n/a	NoResponse	-1	n/a	n/a	10	77	Fixation	Loss	True
731.415	0.2	Lose2	0.7308	0.001	No	2.584	-0.001	2.0	NoResponse	-1	0.218	730.633	10	77	Target	Loss	True
731.615	0.5	Lose2	0.7308	n/a	No	2.584	n/a	n/a	NoResponse	-1	n/a	n/a	10	77	Blank	Loss	True
731.633	0.3	Lose2	0.7308	0.001	No	2.584	-0.001	2.0	NoResponse	-1	0.218	n/a	10	77	ButtonPress	Loss	True
732.115	1.45	Lose2	0.7308	n/a	No	2.584	n/a	5.0	NoResponse	-1	0.001	731.116	10	77	Feedback	Loss	True
733.564	2.584	Lose2	0.7308	n/a	No	2.584	n/a	n/a	NoResponse	-1	0.0	n/a	10	77	ISIslide	Loss	True
