onset	duration	cue_type	current_mean_accuracy	duration_error	is_hit	isi_adjusted	onset_delay	response	response_type	reward	rt	rt_time	total_reward	trial_number	trial_phase	trial_type	one_press
11.1	0.25	Control	1.0	0.0	Yes	2.95	0.0	n/a	GoodResponse	0	n/a	n/a	0	0	Cue	Neutral	True
11.35	3.85	Control	1.0	0.0	Yes	2.95	0.0	n/a	GoodResponse	0	n/a	n/a	0	0	Fixation	Neutral	True
15.199	0.4	Control	1.0	0.001	Yes	2.95	-0.001	1.0	GoodResponse	0	0.39	14.589	0	0	Target	Neutral	True
15.589	0.3	Control	1.0	0.001	Yes	2.95	-0.001	1.0	GoodResponse	0	0.39	n/a	0	0	ButtonPress	Neutral	True
15.599	0.3	Control	1.0	n/a	Yes	2.95	n/a	n/a	GoodResponse	0	n/a	n/a	0	0	Blank	Neutral	True
15.899	1.45	Control	1.0	n/a	Yes	2.95	n/a	5.0	GoodResponse	0	0.125	15.024	0	0	Feedback	Neutral	True
17.348	2.95	Control	1.0	n/a	Yes	2.95	n/a	n/a	GoodResponse	0	0.0	n/a	0	0	ISIslide	Neutral	True
20.314	0.25	Lose2	1.0	0.0	Yes	2.786	0.014	n/a	GoodResponse	0	n/a	n/a	0	1	Cue	AvoidedLoss	True
20.564	4.0	Lose2	1.0	0.0	Yes	2.786	0.0	n/a	GoodResponse	0	n/a	n/a	0	1	Fixation	AvoidedLoss	True
24.562	0.39	Lose2	1.0	0.002	Yes	2.786	-0.002	1.0	GoodResponse	0	0.235	23.797	0	1	Target	AvoidedLoss	True
24.797	0.3	Lose2	1.0	0.002	Yes	2.786	-0.002	1.0	GoodResponse	0	0.235	n/a	0	1	ButtonPress	AvoidedLoss	True
24.962	0.31	Lose2	1.0	n/a	Yes	2.786	n/a	n/a	GoodResponse	0	n/a	n/a	0	1	Blank	AvoidedLoss	True
25.262	1.45	Lose2	1.0	n/a	Yes	2.786	n/a	5.0	GoodResponse	0	0.421	24.683	0	1	Feedback	AvoidedLoss	True
26.711	2.786	Lose2	1.0	n/a	Yes	2.786	n/a	n/a	GoodResponse	0	0.0	n/a	0	1	ISIslide	AvoidedLoss	True
29.527	0.25	Control	1.0	0.0	Yes	2.573	0.027	n/a	GoodResponse	0	n/a	n/a	0	2	Cue	Neutral	False
29.777	4.1	Control	1.0	0.0	Yes	2.573	0.0	1.0	GoodResponse	0	3.556	32.333	0	2	Fixation	Neutral	False
33.333	0.3	Control	1.0	0.0	Yes	2.573	0.0	1.0	GoodResponse	0	3.556	n/a	0	2	ButtonPress	Neutral	False
33.876	0.38	Control	1.0	0.001	Yes	2.573	-0.001	1.0	GoodResponse	0	0.266	33.142	0	2	Target	Neutral	False
34.142	0.3	Control	1.0	0.001	Yes	2.573	-0.001	1.0	GoodResponse	0	0.266	n/a	0	2	ButtonPress	Neutral	False
34.259	0.32	Control	1.0	n/a	Yes	2.573	n/a	n/a	GoodResponse	0	n/a	n/a	0	2	Blank	Neutral	False
34.575	1.45	Control	1.0	n/a	Yes	2.573	n/a	5.0	GoodResponse	0	0.23	33.805	0	2	Feedback	Neutral	False
36.025	2.573	Control	1.0	n/a	Yes	2.573	n/a	n/a	GoodResponse	0	0.0	n/a	0	2	ISIslide	Neutral	False
38.624	0.25	Win2	1.0	0.0	Yes	2.826	0.024	n/a	GoodResponse	1	n/a	n/a	1	3	Cue	Win	True
38.874	3.95	Win2	1.0	0.0	Yes	2.826	0.0	n/a	GoodResponse	1	n/a	n/a	1	3	Fixation	Win	True
42.822	0.37	Win2	1.0	0.002	Yes	2.826	-0.002	1.0	GoodResponse	1	0.315	42.137	1	3	Target	Win	True
43.137	0.3	Win2	1.0	0.002	Yes	2.826	-0.002	1.0	GoodResponse	1	0.315	n/a	1	3	ButtonPress	Win	True
43.206	0.33	Win2	1.0	n/a	Yes	2.826	n/a	n/a	GoodResponse	1	n/a	n/a	1	3	Blank	Win	True
43.522	1.45	Win2	1.0	n/a	Yes	2.826	n/a	5.0	GoodResponse	1	0.404	42.926	1	3	Feedback	Win	True
44.972	2.826	Win2	1.0	n/a	Yes	2.826	n/a	n/a	GoodResponse	1	0.0	n/a	1	3	ISIslide	Win	True
47.821	0.25	Win2	1.0	0.0	Yes	3.279	0.021	n/a	GoodResponse	1	n/a	n/a	2	4	Cue	Win	True
48.071	4.0	Win2	1.0	0.0	Yes	3.279	0.0	n/a	GoodResponse	1	n/a	n/a	2	4	Fixation	Win	True
52.069	0.36	Win2	1.0	0.002	Yes	3.279	-0.002	1.0	GoodResponse	1	0.24	51.309	2	4	Target	Win	True
52.309	0.3	Win2	1.0	0.002	Yes	3.279	-0.002	1.0	GoodResponse	1	0.24	n/a	2	4	ButtonPress	Win	True
52.436	0.34	Win2	1.0	n/a	Yes	3.279	n/a	n/a	GoodResponse	1	n/a	n/a	2	4	Blank	Win	True
52.769	1.45	Win2	1.0	n/a	Yes	3.279	n/a	5.0	GoodResponse	1	0.279	52.048	2	4	Feedback	Win	True
54.218	3.279	Win2	1.0	n/a	Yes	3.279	n/a	n/a	GoodResponse	1	0.0	n/a	2	4	ISIslide	Win	True
57.517	0.25	Win2	1.0	0.0	Yes	2.783	0.017	n/a	GoodResponse	1	n/a	n/a	3	5	Cue	Win	True
57.767	4.0	Win2	1.0	0.0	Yes	2.783	0.0	n/a	GoodResponse	1	n/a	n/a	3	5	Fixation	Win	True
61.766	0.35	Win2	1.0	0.001	Yes	2.783	-0.001	1.0	GoodResponse	1	0.285	61.051	3	5	Target	Win	True
62.051	0.3	Win2	1.0	0.001	Yes	2.783	-0.001	1.0	GoodResponse	1	0.285	n/a	3	5	ButtonPress	Win	True
62.116	0.35	Win2	1.0	n/a	Yes	2.783	n/a	n/a	GoodResponse	1	n/a	n/a	3	5	Blank	Win	True
62.465	1.45	Win2	1.0	n/a	Yes	2.783	n/a	5.0	GoodResponse	1	0.242	61.707	3	5	Feedback	Win	True
63.915	2.783	Win2	1.0	n/a	Yes	2.783	n/a	n/a	GoodResponse	1	0.0	n/a	3	5	ISIslide	Win	True
66.714	0.25	Lose2	1.0	0.0	Yes	2.736	0.014	n/a	GoodResponse	0	n/a	n/a	3	6	Cue	AvoidedLoss	True
66.964	3.95	Lose2	1.0	0.0	Yes	2.736	0.0	n/a	GoodResponse	0	n/a	n/a	3	6	Fixation	AvoidedLoss	True
70.912	0.34	Lose2	1.0	0.002	Yes	2.736	-0.002	1.0	GoodResponse	0	0.256	70.168	3	6	Target	AvoidedLoss	True
71.168	0.3	Lose2	1.0	0.002	Yes	2.736	-0.002	1.0	GoodResponse	0	0.256	n/a	3	6	ButtonPress	AvoidedLoss	True
71.262	0.36	Lose2	1.0	n/a	Yes	2.736	n/a	n/a	GoodResponse	0	n/a	n/a	3	6	Blank	AvoidedLoss	True
71.612	1.45	Lose2	1.0	n/a	Yes	2.736	n/a	5.0	GoodResponse	0	0.217	70.829	3	6	Feedback	AvoidedLoss	True
73.062	2.736	Lose2	1.0	n/a	Yes	2.736	n/a	n/a	GoodResponse	0	0.0	n/a	3	6	ISIslide	AvoidedLoss	True
75.811	0.25	Lose2	0.875	0.0	No	4.039	0.011	n/a	PrematurePress	-1	n/a	n/a	2	7	Cue	Loss	False
76.061	4.05	Lose2	0.875	0.0	No	4.039	0.0	1.0	PrematurePress	-1	3.669	78.73	2	7	Fixation	Loss	False
79.73	0.3	Lose2	0.875	0.0	No	4.039	0.0	1.0	PrematurePress	-1	3.669	n/a	2	7	ButtonPress	Loss	False
80.109	0.33	Lose2	0.875	0.002	No	4.039	-0.002	1.0	PrematurePress	-1	0.08	79.189	2	7	Target	Loss	False
80.189	0.3	Lose2	0.875	0.002	No	4.039	-0.002	1.0	PrematurePress	-1	0.08	n/a	2	7	ButtonPress	Loss	False
80.442	0.37	Lose2	0.875	n/a	No	4.039	n/a	n/a	PrematurePress	-1	n/a	n/a	2	7	Blank	Loss	False
80.809	1.45	Lose2	0.875	n/a	No	4.039	n/a	5.0	PrematurePress	-1	0.142	79.951	2	7	Feedback	Loss	False
82.258	4.039	Lose2	0.875	n/a	No	4.039	n/a	n/a	PrematurePress	-1	0.0	n/a	2	7	ISIslide	Loss	False
86.324	0.25	Lose2	0.7778	0.0	No	3.026	0.024	n/a	NoResponse	-1	n/a	n/a	1	8	Cue	Loss	False
86.574	3.95	Lose2	0.7778	0.0	No	3.026	0.0	n/a	NoResponse	-1	n/a	n/a	1	8	Fixation	Loss	False
90.522	0.32	Lose2	0.7778	0.002	No	3.026	-0.002	n/a	NoResponse	-1	n/a	n/a	1	8	Target	Loss	False
90.855	0.38	Lose2	0.7778	n/a	No	3.026	n/a	n/a	NoResponse	-1	n/a	n/a	1	8	Blank	Loss	False
91.222	1.45	Lose2	0.7778	n/a	No	3.026	n/a	5.0	NoResponse	-1	0.46	90.682	1	8	Feedback	Loss	False
92.671	3.026	Lose2	0.7778	n/a	No	3.026	n/a	n/a	NoResponse	-1	0.0	n/a	1	8	ISIslide	Loss	False
95.72	0.25	Lose2	0.7	0.0	No	3.13	0.02	n/a	NoResponse	-1	n/a	n/a	0	9	Cue	Loss	True
95.97	3.95	Lose2	0.7	0.0	No	3.13	0.0	n/a	NoResponse	-1	n/a	n/a	0	9	Fixation	Loss	True
99.919	0.31	Lose2	0.7	0.001	No	3.13	-0.001	1.0	NoResponse	-1	0.385	99.304	0	9	Target	Loss	True
100.235	0.39	Lose2	0.7	n/a	No	3.13	n/a	n/a	NoResponse	-1	n/a	n/a	0	9	Blank	Loss	True
100.304	0.3	Lose2	0.7	0.001	No	3.13	-0.001	1.0	NoResponse	-1	0.385	n/a	0	9	ButtonPress	Loss	True
100.619	1.45	Lose2	0.7	n/a	No	3.13	n/a	5.0	NoResponse	-1	0.185	99.804	0	9	Feedback	Loss	True
102.068	3.13	Lose2	0.7	n/a	No	3.13	n/a	n/a	NoResponse	-1	0.0	n/a	0	9	ISIslide	Loss	True
105.217	0.25	Control	0.7273000000000001	0.0	Yes	3.283	0.017	n/a	GoodResponse	0	n/a	n/a	0	10	Cue	Neutral	True
105.467	4.0	Control	0.7273000000000001	0.0	Yes	3.283	0.0	n/a	GoodResponse	0	n/a	n/a	0	10	Fixation	Neutral	True
109.466	0.3	Control	0.7273000000000001	0.001	Yes	3.283	-0.001	1.0	GoodResponse	0	0.234	108.7	0	10	Target	Neutral	True
109.7	0.3	Control	0.7273000000000001	0.001	Yes	3.283	-0.001	1.0	GoodResponse	0	0.234	n/a	0	10	ButtonPress	Neutral	True
109.765	0.4	Control	0.7273000000000001	n/a	Yes	3.283	n/a	n/a	GoodResponse	0	n/a	n/a	0	10	Blank	Neutral	True
110.165	1.45	Control	0.7273000000000001	n/a	Yes	3.283	n/a	5.0	GoodResponse	0	0.298	109.463	0	10	Feedback	Neutral	True
111.615	3.283	Control	0.7273000000000001	n/a	Yes	3.283	n/a	n/a	GoodResponse	0	0.0	n/a	0	10	ISIslide	Neutral	True
114.914	0.25	Lose2	0.75	0.0	Yes	2.736	0.014	n/a	GoodResponse	0	n/a	n/a	0	11	Cue	AvoidedLoss	True
115.164	4.05	Lose2	0.75	0.0	Yes	2.736	0.0	n/a	GoodResponse	0	n/a	n/a	0	11	Fixation	AvoidedLoss	True
119.212	0.29	Lose2	0.75	0.002	Yes	2.736	-0.002	1.0	GoodResponse	0	0.233	118.445	0	11	Target	AvoidedLoss	True
119.445	0.3	Lose2	0.75	0.002	Yes	2.736	-0.002	1.0	GoodResponse	0	0.233	n/a	0	11	ButtonPress	AvoidedLoss	True
119.512	0.41	Lose2	0.75	n/a	Yes	2.736	n/a	n/a	GoodResponse	0	n/a	n/a	0	11	Blank	AvoidedLoss	True
119.912	1.45	Lose2	0.75	n/a	Yes	2.736	n/a	5.0	GoodResponse	0	0.209	119.121	0	11	Feedback	AvoidedLoss	True
121.361	2.736	Lose2	0.75	n/a	Yes	2.736	n/a	n/a	GoodResponse	0	0.0	n/a	0	11	ISIslide	AvoidedLoss	True
124.11	0.25	Control	0.7692	0.0	Yes	2.99	0.01	n/a	GoodResponse	0	n/a	n/a	0	12	Cue	Neutral	True
124.36	3.9	Control	0.7692	0.0	Yes	2.99	0.0	n/a	GoodResponse	0	n/a	n/a	0	12	Fixation	Neutral	True
128.259	0.28	Control	0.7692	0.001	Yes	2.99	-0.001	1.0	GoodResponse	0	0.227	127.486	0	12	Target	Neutral	True
128.486	0.3	Control	0.7692	0.001	Yes	2.99	-0.001	1.0	GoodResponse	0	0.227	n/a	0	12	ButtonPress	Neutral	True
128.542	0.42	Control	0.7692	n/a	Yes	2.99	n/a	n/a	GoodResponse	0	n/a	n/a	0	12	Blank	Neutral	True
128.959	1.45	Control	0.7692	n/a	Yes	2.99	n/a	5.0	GoodResponse	0	0.283	128.242	0	12	Feedback	Neutral	True
130.408	2.99	Control	0.7692	n/a	Yes	2.99	n/a	n/a	GoodResponse	0	0.0	n/a	0	12	ISIslide	Neutral	True
133.424	0.25	Control	0.7143	0.0	No	2.776	0.024	n/a	NoResponse	0	n/a	n/a	0	13	Cue	Neutral	False
133.674	4.0	Control	0.7143	0.0	No	2.776	0.0	n/a	NoResponse	0	n/a	n/a	0	13	Fixation	Neutral	False
137.672	0.27	Control	0.7143	0.002	No	2.776	-0.002	n/a	NoResponse	0	n/a	n/a	0	13	Target	Neutral	False
137.956	0.43	Control	0.7143	n/a	No	2.776	n/a	n/a	NoResponse	0	n/a	n/a	0	13	Blank	Neutral	False
138.372	1.45	Control	0.7143	n/a	No	2.776	n/a	5.0	NoResponse	0	0.529	137.901	0	13	Feedback	Neutral	False
139.822	2.776	Control	0.7143	n/a	No	2.776	n/a	n/a	NoResponse	0	0.0	n/a	0	13	ISIslide	Neutral	False
142.621	0.25	Win2	0.6667000000000001	0.0	No	2.679	0.021	n/a	PrematurePress	0	n/a	n/a	0	14	Cue	MissedWin	True
142.87	4.1	Win2	0.6667000000000001	0.001	No	2.679	-0.001	n/a	PrematurePress	0	n/a	n/a	0	14	Fixation	MissedWin	True
146.969	0.26	Win2	0.6667000000000001	0.002	No	2.679	-0.002	1.0	PrematurePress	0	0.026	145.995	0	14	Target	MissedWin	True
146.995	0.3	Win2	0.6667000000000001	0.002	No	2.679	-0.002	1.0	PrematurePress	0	0.026	n/a	0	14	ButtonPress	MissedWin	True
147.236	0.44	Win2	0.6667000000000001	n/a	No	2.679	n/a	n/a	PrematurePress	0	n/a	n/a	0	14	Blank	MissedWin	True
147.669	1.45	Win2	0.6667000000000001	n/a	No	2.679	n/a	5.0	PrematurePress	0	0.354	147.023	0	14	Feedback	MissedWin	True
149.118	2.679	Win2	0.6667000000000001	n/a	No	2.679	n/a	n/a	PrematurePress	0	0.0	n/a	0	14	ISIslide	MissedWin	True
151.817	0.25	Control	0.625	0.0	No	2.983	0.017	n/a	NoResponse	0	n/a	n/a	0	15	Cue	Neutral	True
152.067	4.0	Control	0.625	0.0	No	2.983	0.0	n/a	NoResponse	0	n/a	n/a	0	15	Fixation	Neutral	True
156.066	0.25	Control	0.625	0.001	No	2.983	-0.001	1.0	NoResponse	0	0.299	155.365	0	15	Target	Neutral	True
156.316	0.45	Control	0.625	n/a	No	2.983	n/a	n/a	NoResponse	0	n/a	n/a	0	15	Blank	Neutral	True
156.365	0.3	Control	0.625	0.001	No	2.983	-0.001	1.0	NoResponse	0	0.299	n/a	0	15	ButtonPress	Neutral	True
156.766	1.45	Control	0.625	n/a	No	2.983	n/a	5.0	NoResponse	0	0.379	156.145	0	15	Feedback	Neutral	True
158.215	2.983	Control	0.625	n/a	No	2.983	n/a	n/a	NoResponse	0	0.0	n/a	0	15	ISIslide	Neutral	True
161.214	0.25	Win2	0.6470999999999999	0.0	Yes	2.886	0.014	n/a	GoodResponse	1	n/a	n/a	1	16	Cue	Win	False
161.464	4.0	Win2	0.6470999999999999	0.0	Yes	2.886	0.0	1.0	GoodResponse	1	3.901	164.365	1	16	Fixation	Win	False
165.365	0.3	Win2	0.6470999999999999	0.0	Yes	2.886	0.0	1.0	GoodResponse	1	3.901	n/a	1	16	ButtonPress	Win	False
165.463	0.26	Win2	0.6470999999999999	0.001	Yes	2.886	-0.001	1.0	GoodResponse	1	0.255	164.718	1	16	Target	Win	False
165.718	0.3	Win2	0.6470999999999999	0.001	Yes	2.886	-0.001	1.0	GoodResponse	1	0.255	n/a	1	16	ButtonPress	Win	False
165.729	0.44	Win2	0.6470999999999999	n/a	Yes	2.886	n/a	n/a	GoodResponse	1	n/a	n/a	1	16	Blank	Win	False
166.162	1.45	Win2	0.6470999999999999	n/a	Yes	2.886	n/a	5.0	GoodResponse	1	0.105	165.267	1	16	Feedback	Win	False
167.612	2.886	Win2	0.6470999999999999	n/a	Yes	2.886	n/a	n/a	GoodResponse	1	0.0	n/a	1	16	ISIslide	Win	False
170.527	0.25	Lose2	0.6667000000000001	0.0	Yes	2.723	0.027	n/a	GoodResponse	0	n/a	n/a	1	17	Cue	AvoidedLoss	False
170.777	3.95	Lose2	0.6667000000000001	0.0	Yes	2.723	0.0	1.0	GoodResponse	0	0.092	169.869	1	17	Fixation	AvoidedLoss	False
170.869	0.3	Lose2	0.6667000000000001	0.0	Yes	2.723	0.0	1.0	GoodResponse	0	0.092	n/a	1	17	ButtonPress	AvoidedLoss	False
174.726	0.27	Lose2	0.6667000000000001	0.001	Yes	2.723	-0.001	1.0	GoodResponse	0	0.268	173.994	1	17	Target	AvoidedLoss	False
174.992	0.43	Lose2	0.6667000000000001	n/a	Yes	2.723	n/a	n/a	GoodResponse	0	n/a	n/a	1	17	Blank	AvoidedLoss	False
174.994	0.3	Lose2	0.6667000000000001	0.001	Yes	2.723	-0.001	1.0	GoodResponse	0	0.268	n/a	1	17	ButtonPress	AvoidedLoss	False
175.426	1.45	Lose2	0.6667000000000001	n/a	Yes	2.723	n/a	5.0	GoodResponse	0	0.499	174.925	1	17	Feedback	AvoidedLoss	False
176.875	2.723	Lose2	0.6667000000000001	n/a	Yes	2.723	n/a	n/a	GoodResponse	0	0.0	n/a	1	17	ISIslide	AvoidedLoss	False
179.624	0.25	Lose2	0.6315999999999999	0.0	No	2.726	0.024	n/a	NoResponse	-1	n/a	n/a	0	18	Cue	Loss	True
179.874	4.05	Lose2	0.6315999999999999	0.0	No	2.726	0.0	n/a	NoResponse	-1	n/a	n/a	0	18	Fixation	Loss	True
183.923	0.26	Lose2	0.6315999999999999	0.001	No	2.726	-0.001	1.0	NoResponse	-1	0.411	183.334	0	18	Target	Loss	True
184.189	0.44	Lose2	0.6315999999999999	n/a	No	2.726	n/a	n/a	NoResponse	-1	n/a	n/a	0	18	Blank	Loss	True
184.334	0.3	Lose2	0.6315999999999999	0.001	No	2.726	-0.001	1.0	NoResponse	-1	0.411	n/a	0	18	ButtonPress	Loss	True
184.622	1.45	Lose2	0.6315999999999999	n/a	No	2.726	n/a	5.0	NoResponse	-1	0.425	184.047	0	18	Feedback	Loss	True
186.072	2.726	Lose2	0.6315999999999999	n/a	No	2.726	n/a	n/a	NoResponse	-1	0.0	n/a	0	18	ISIslide	Loss	True
188.821	0.25	Control	0.6	0.0	No	2.929	0.021	n/a	NoResponse	0	n/a	n/a	0	19	Cue	Neutral	True
189.071	3.95	Control	0.6	0.0	No	2.929	0.0	n/a	NoResponse	0	n/a	n/a	0	19	Fixation	Neutral	True
193.019	0.27	Control	0.6	0.002	No	2.929	-0.002	1.0	NoResponse	0	0.372	192.391	0	19	Target	Neutral	True
193.303	0.43	Control	0.6	n/a	No	2.929	n/a	n/a	NoResponse	0	n/a	n/a	0	19	Blank	Neutral	True
193.391	0.3	Control	0.6	0.002	No	2.929	-0.002	1.0	NoResponse	0	0.372	n/a	0	19	ButtonPress	Neutral	True
193.719	1.45	Control	0.6	n/a	No	2.929	n/a	5.0	NoResponse	0	0.45	193.169	0	19	Feedback	Neutral	True
195.169	2.929	Control	0.6	n/a	No	2.929	n/a	n/a	NoResponse	0	0.0	n/a	0	19	ISIslide	Neutral	True
198.118	0.25	Control	0.619	0.0	Yes	2.632	0.018	n/a	GoodResponse	0	n/a	n/a	0	20	Cue	Neutral	False
198.368	4.05	Control	0.619	0.0	Yes	2.632	0.0	1.0	GoodResponse	0	3.214	200.582	0	20	Fixation	Neutral	False
201.582	0.3	Control	0.619	0.0	Yes	2.632	0.0	1.0	GoodResponse	0	3.214	n/a	0	20	ButtonPress	Neutral	False
202.416	0.28	Control	0.619	0.002	Yes	2.632	-0.002	1.0	GoodResponse	0	0.222	201.638	0	20	Target	Neutral	False
202.638	0.3	Control	0.619	0.002	Yes	2.632	-0.002	1.0	GoodResponse	0	0.222	n/a	0	20	ButtonPress	Neutral	False
202.699	0.42	Control	0.619	n/a	Yes	2.632	n/a	n/a	GoodResponse	0	n/a	n/a	0	20	Blank	Neutral	False
203.116	1.45	Control	0.619	n/a	Yes	2.632	n/a	5.0	GoodResponse	0	0.175	202.291	0	20	Feedback	Neutral	False
204.565	2.632	Control	0.619	n/a	Yes	2.632	n/a	n/a	GoodResponse	0	0.0	n/a	0	20	ISIslide	Neutral	False
207.214	0.25	Control	0.6364	0.001	Yes	2.786	0.014	n/a	GoodResponse	0	n/a	n/a	0	21	Cue	Neutral	True
207.464	4.1	Control	0.6364	0.0	Yes	2.786	0.0	n/a	GoodResponse	0	n/a	n/a	0	21	Fixation	Neutral	True
211.563	0.29	Control	0.6364	0.001	Yes	2.786	-0.001	1.0	GoodResponse	0	0.248	210.811	0	21	Target	Neutral	True
211.811	0.3	Control	0.6364	0.001	Yes	2.786	-0.001	1.0	GoodResponse	0	0.248	n/a	0	21	ButtonPress	Neutral	True
211.863	0.41	Control	0.6364	n/a	Yes	2.786	n/a	n/a	GoodResponse	0	n/a	n/a	0	21	Blank	Neutral	True
212.263	1.45	Control	0.6364	n/a	Yes	2.786	n/a	5.0	GoodResponse	0	0.15	211.413	0	21	Feedback	Neutral	True
213.712	2.786	Control	0.6364	n/a	Yes	2.786	n/a	n/a	GoodResponse	0	0.0	n/a	0	21	ISIslide	Neutral	True
216.528	0.25	Control	0.6522	0.0	Yes	2.772	0.028	n/a	GoodResponse	0	n/a	n/a	0	22	Cue	Neutral	True
216.778	4.0	Control	0.6522	0.0	Yes	2.772	0.0	n/a	GoodResponse	0	n/a	n/a	0	22	Fixation	Neutral	True
220.776	0.3	Control	0.6522	0.002	Yes	2.772	-0.002	1.0	GoodResponse	0	0.236	220.012	0	22	Target	Neutral	True
221.012	0.3	Control	0.6522	0.002	Yes	2.772	-0.002	1.0	GoodResponse	0	0.236	n/a	0	22	ButtonPress	Neutral	True
221.076	0.4	Control	0.6522	n/a	Yes	2.772	n/a	n/a	GoodResponse	0	n/a	n/a	0	22	Blank	Neutral	True
221.476	1.45	Control	0.6522	n/a	Yes	2.772	n/a	5.0	GoodResponse	0	0.058	220.534	0	22	Feedback	Neutral	True
222.926	2.772	Control	0.6522	n/a	Yes	2.772	n/a	n/a	GoodResponse	0	0.0	n/a	0	22	ISIslide	Neutral	True
225.725	0.25	Control	0.6667000000000001	0.0	Yes	2.775	0.025	n/a	GoodResponse	0	n/a	n/a	0	23	Cue	Neutral	True
225.975	3.9	Control	0.6667000000000001	0.0	Yes	2.775	0.0	n/a	GoodResponse	0	n/a	n/a	0	23	Fixation	Neutral	True
229.873	0.31	Control	0.6667000000000001	0.002	Yes	2.775	-0.002	1.0	GoodResponse	0	0.308	229.181	0	23	Target	Neutral	True
230.181	0.3	Control	0.6667000000000001	0.002	Yes	2.775	-0.002	1.0	GoodResponse	0	0.308	n/a	0	23	ButtonPress	Neutral	True
230.19	0.39	Control	0.6667000000000001	n/a	Yes	2.775	n/a	n/a	GoodResponse	0	n/a	n/a	0	23	Blank	Neutral	True
230.573	1.45	Control	0.6667000000000001	n/a	Yes	2.775	n/a	5.0	GoodResponse	0	0.083	229.656	0	23	Feedback	Neutral	True
232.022	2.775	Control	0.6667000000000001	n/a	Yes	2.775	n/a	n/a	GoodResponse	0	0.0	n/a	0	23	ISIslide	Neutral	True
234.821	0.25	Win2	0.64	0.0	No	3.129	0.021	n/a	NoResponse	0	n/a	n/a	0	24	Cue	MissedWin	True
235.071	3.95	Win2	0.64	0.0	No	3.129	0.0	n/a	NoResponse	0	n/a	n/a	0	24	Fixation	MissedWin	True
239.02	0.3	Win2	0.64	0.001	No	3.129	-0.001	1.0	NoResponse	0	0.337	238.357	0	24	Target	MissedWin	True
239.32	0.4	Win2	0.64	n/a	No	3.129	n/a	n/a	NoResponse	0	n/a	n/a	0	24	Blank	MissedWin	True
239.357	0.3	Win2	0.64	0.001	No	3.129	-0.001	1.0	NoResponse	0	0.337	n/a	0	24	ButtonPress	MissedWin	True
239.72	1.45	Win2	0.64	n/a	No	3.129	n/a	5.0	NoResponse	0	0.058	238.778	0	24	Feedback	MissedWin	True
241.169	3.129	Win2	0.64	n/a	No	3.129	n/a	n/a	NoResponse	0	0.0	n/a	0	24	ISIslide	MissedWin	True
244.318	0.25	Win2	0.6537999999999999	0.0	Yes	3.082	0.018	n/a	GoodResponse	1	n/a	n/a	1	25	Cue	Win	True
244.568	4.0	Win2	0.6537999999999999	0.0	Yes	3.082	0.0	n/a	GoodResponse	1	n/a	n/a	1	25	Fixation	Win	True
248.567	0.31	Win2	0.6537999999999999	0.001	Yes	3.082	-0.001	1.0	GoodResponse	1	0.258	247.825	1	25	Target	Win	True
248.825	0.3	Win2	0.6537999999999999	0.001	Yes	3.082	-0.001	1.0	GoodResponse	1	0.258	n/a	1	25	ButtonPress	Win	True
248.883	0.39	Win2	0.6537999999999999	n/a	Yes	3.082	n/a	n/a	GoodResponse	1	n/a	n/a	1	25	Blank	Win	True
249.266	1.45	Win2	0.6537999999999999	n/a	Yes	3.082	n/a	5.0	GoodResponse	1	0.171	248.437	1	25	Feedback	Win	True
250.716	3.082	Win2	0.6537999999999999	n/a	Yes	3.082	n/a	n/a	GoodResponse	1	0.0	n/a	1	25	ISIslide	Win	True
253.815	0.25	Win2	0.6296	0.0	No	2.935	0.015	n/a	NoResponse	0	n/a	n/a	1	26	Cue	MissedWin	False
254.065	3.95	Win2	0.6296	0.0	No	2.935	0.0	n/a	NoResponse	0	n/a	n/a	1	26	Fixation	MissedWin	False
258.013	0.32	Win2	0.6296	0.002	No	2.935	-0.002	n/a	NoResponse	0	n/a	n/a	1	26	Target	MissedWin	False
258.346	0.38	Win2	0.6296	n/a	No	2.935	n/a	n/a	NoResponse	0	n/a	n/a	1	26	Blank	MissedWin	False
258.713	1.45	Win2	0.6296	n/a	No	2.935	n/a	5.0	NoResponse	0	0.382	258.095	1	26	Feedback	MissedWin	False
260.162	2.935	Win2	0.6296	n/a	No	2.935	n/a	n/a	NoResponse	0	0.0	n/a	1	26	ISIslide	MissedWin	False
263.128	0.25	Lose2	0.6429	0.0	Yes	2.822	0.028	n/a	GoodResponse	0	n/a	n/a	1	27	Cue	AvoidedLoss	True
263.378	4.05	Lose2	0.6429	0.0	Yes	2.822	0.0	n/a	GoodResponse	0	n/a	n/a	1	27	Fixation	AvoidedLoss	True
267.427	0.33	Lose2	0.6429	0.001	Yes	2.822	-0.001	1.0	GoodResponse	0	0.267	266.694	1	27	Target	AvoidedLoss	True
267.694	0.3	Lose2	0.6429	0.001	Yes	2.822	-0.001	1.0	GoodResponse	0	0.267	n/a	1	27	ButtonPress	AvoidedLoss	True
267.76	0.37	Lose2	0.6429	n/a	Yes	2.822	n/a	n/a	GoodResponse	0	n/a	n/a	1	27	Blank	AvoidedLoss	True
268.126	1.45	Lose2	0.6429	n/a	Yes	2.822	n/a	5.0	GoodResponse	0	0.091	267.217	1	27	Feedback	AvoidedLoss	True
269.576	2.822	Lose2	0.6429	n/a	Yes	2.822	n/a	n/a	GoodResponse	0	0.0	n/a	1	27	ISIslide	AvoidedLoss	True
272.425	0.25	Control	0.6552	0.0	Yes	2.825	0.025	n/a	GoodResponse	0	n/a	n/a	1	28	Cue	Neutral	True
272.675	4.05	Control	0.6552	0.0	Yes	2.825	0.0	n/a	GoodResponse	0	n/a	n/a	1	28	Fixation	Neutral	True
276.723	0.34	Control	0.6552	0.002	Yes	2.825	-0.002	1.0	GoodResponse	0	0.274	275.997	1	28	Target	Neutral	True
276.997	0.3	Control	0.6552	0.002	Yes	2.825	-0.002	1.0	GoodResponse	0	0.274	n/a	1	28	ButtonPress	Neutral	True
277.073	0.36	Control	0.6552	n/a	Yes	2.825	n/a	n/a	GoodResponse	0	n/a	n/a	1	28	Blank	Neutral	True
277.423	1.45	Control	0.6552	n/a	Yes	2.825	n/a	5.0	GoodResponse	0	0.452	276.875	1	28	Feedback	Neutral	True
278.873	2.825	Control	0.6552	n/a	Yes	2.825	n/a	n/a	GoodResponse	0	0.0	n/a	1	28	ISIslide	Neutral	True
281.722	0.25	Lose2	0.6333	0.0	No	2.828	0.022	n/a	NoResponse	-1	n/a	n/a	0	29	Cue	Loss	False
281.971	3.95	Lose2	0.6333	0.001	No	2.828	-0.001	n/a	NoResponse	-1	n/a	n/a	0	29	Fixation	Loss	False
285.92	0.34	Lose2	0.6333	0.002	No	2.828	-0.002	n/a	NoResponse	-1	n/a	n/a	0	29	Target	Loss	False
286.27	0.36	Lose2	0.6333	n/a	No	2.828	n/a	n/a	NoResponse	-1	n/a	n/a	0	29	Blank	Loss	False
286.62	1.45	Lose2	0.6333	n/a	No	2.828	n/a	5.0	NoResponse	-1	0.378	285.998	0	29	Feedback	Loss	False
288.069	2.828	Lose2	0.6333	n/a	No	2.828	n/a	n/a	NoResponse	-1	0.0	n/a	0	29	ISIslide	Loss	False
290.918	0.25	Win2	0.6452	0.0	Yes	2.782	0.018	n/a	GoodResponse	1	n/a	n/a	1	30	Cue	Win	True
291.168	3.9	Win2	0.6452	0.0	Yes	2.782	0.0	n/a	GoodResponse	1	n/a	n/a	1	30	Fixation	Win	True
295.067	0.35	Win2	0.6452	0.001	Yes	2.782	-0.001	1.0	GoodResponse	1	0.24	294.307	1	30	Target	Win	True
295.307	0.3	Win2	0.6452	0.001	Yes	2.782	-0.001	1.0	GoodResponse	1	0.24	n/a	1	30	ButtonPress	Win	True
295.417	0.35	Win2	0.6452	n/a	Yes	2.782	n/a	n/a	GoodResponse	1	n/a	n/a	1	30	Blank	Win	True
295.767	1.45	Win2	0.6452	n/a	Yes	2.782	n/a	5.0	GoodResponse	1	0.352	295.119	1	30	Feedback	Win	True
297.216	2.782	Win2	0.6452	n/a	Yes	2.782	n/a	n/a	GoodResponse	1	0.0	n/a	1	30	ISIslide	Win	True
300.015	0.25	Lose2	0.6562	0.0	Yes	2.835	0.015	n/a	GoodResponse	0	n/a	n/a	1	31	Cue	AvoidedLoss	True
300.265	4.05	Lose2	0.6562	0.0	Yes	2.835	0.0	n/a	GoodResponse	0	n/a	n/a	1	31	Fixation	AvoidedLoss	True
304.314	0.36	Lose2	0.6562	0.001	Yes	2.835	-0.001	1.0	GoodResponse	0	0.302	303.616	1	31	Target	AvoidedLoss	True
304.616	0.3	Lose2	0.6562	0.001	Yes	2.835	-0.001	1.0	GoodResponse	0	0.302	n/a	1	31	ButtonPress	AvoidedLoss	True
304.68	0.34	Lose2	0.6562	n/a	Yes	2.835	n/a	n/a	GoodResponse	0	n/a	n/a	1	31	Blank	AvoidedLoss	True
305.013	1.45	Lose2	0.6562	n/a	Yes	2.835	n/a	5.0	GoodResponse	0	0.228	304.241	1	31	Feedback	AvoidedLoss	True
306.463	2.835	Lose2	0.6562	n/a	Yes	2.835	n/a	n/a	GoodResponse	0	0.0	n/a	1	31	ISIslide	AvoidedLoss	True
309.312	0.25	Lose2	0.6667000000000001	0.0	Yes	2.638	0.012	n/a	GoodResponse	0	n/a	n/a	1	32	Cue	AvoidedLoss	True
309.562	4.15	Lose2	0.6667000000000001	0.0	Yes	2.638	0.0	n/a	GoodResponse	0	n/a	n/a	1	32	Fixation	AvoidedLoss	True
313.71	0.36	Lose2	0.6667000000000001	0.002	Yes	2.638	-0.002	1.0	GoodResponse	0	0.233	312.943	1	32	Target	AvoidedLoss	True
313.943	0.3	Lose2	0.6667000000000001	0.002	Yes	2.638	-0.002	1.0	GoodResponse	0	0.233	n/a	1	32	ButtonPress	AvoidedLoss	True
314.077	0.34	Lose2	0.6667000000000001	n/a	Yes	2.638	n/a	n/a	GoodResponse	0	n/a	n/a	1	32	Blank	AvoidedLoss	True
314.41	1.45	Lose2	0.6667000000000001	n/a	Yes	2.638	n/a	5.0	GoodResponse	0	0.489	313.899	1	32	Feedback	AvoidedLoss	True
315.86	2.638	Lose2	0.6667000000000001	n/a	Yes	2.638	n/a	n/a	GoodResponse	0	0.0	n/a	1	32	ISIslide	AvoidedLoss	True
318.525	0.25	Win2	0.6470999999999999	0.0	No	2.675	0.025	n/a	NoResponse	0	n/a	n/a	1	33	Cue	MissedWin	True
318.775	4.0	Win2	0.6470999999999999	0.0	No	2.675	0.0	1.0	NoResponse	0	3.34	321.115	1	33	Fixation	MissedWin	True
322.115	0.3	Win2	0.6470999999999999	0.0	No	2.675	0.0	1.0	NoResponse	0	3.34	n/a	1	33	ButtonPress	MissedWin	True
322.774	0.35	Win2	0.6470999999999999	0.001	No	2.675	-0.001	n/a	NoResponse	0	n/a	n/a	1	33	Target	MissedWin	True
323.124	0.35	Win2	0.6470999999999999	n/a	No	2.675	n/a	n/a	NoResponse	0	n/a	n/a	1	33	Blank	MissedWin	True
323.474	1.45	Win2	0.6470999999999999	n/a	No	2.675	n/a	5.0	NoResponse	0	0.011	322.485	1	33	Feedback	MissedWin	True
324.923	2.675	Win2	0.6470999999999999	n/a	No	2.675	n/a	n/a	NoResponse	0	0.0	n/a	1	33	ISIslide	MissedWin	True
327.622	0.25	Lose2	0.6570999999999999	0.0	Yes	2.628	0.022	n/a	GoodResponse	0	n/a	n/a	1	34	Cue	AvoidedLoss	True
327.872	4.05	Lose2	0.6570999999999999	0.0	Yes	2.628	0.0	n/a	GoodResponse	0	n/a	n/a	1	34	Fixation	AvoidedLoss	True
331.921	0.36	Lose2	0.6570999999999999	0.001	Yes	2.628	-0.001	1.0	GoodResponse	0	0.252	331.173	1	34	Target	AvoidedLoss	True
332.173	0.3	Lose2	0.6570999999999999	0.001	Yes	2.628	-0.001	1.0	GoodResponse	0	0.252	n/a	1	34	ButtonPress	AvoidedLoss	True
332.287	0.34	Lose2	0.6570999999999999	n/a	Yes	2.628	n/a	n/a	GoodResponse	0	n/a	n/a	1	34	Blank	AvoidedLoss	True
332.62	1.45	Lose2	0.6570999999999999	n/a	Yes	2.628	n/a	5.0	GoodResponse	0	0.523	332.143	1	34	Feedback	AvoidedLoss	True
334.07	2.628	Lose2	0.6570999999999999	n/a	Yes	2.628	n/a	n/a	GoodResponse	0	0.0	n/a	1	34	ISIslide	AvoidedLoss	True
336.719	0.25	Lose2	0.6389	0.0	No	2.681	0.019	n/a	NoResponse	-1	n/a	n/a	0	35	Cue	Loss	True
336.969	4.0	Lose2	0.6389	0.0	No	2.681	0.0	n/a	NoResponse	-1	n/a	n/a	0	35	Fixation	Loss	True
340.967	0.36	Lose2	0.6389	0.002	No	2.681	-0.002	1.0	NoResponse	-1	0.38	340.347	0	35	Target	Loss	True
341.334	0.34	Lose2	0.6389	n/a	No	2.681	n/a	n/a	NoResponse	-1	n/a	n/a	0	35	Blank	Loss	True
341.347	0.3	Lose2	0.6389	0.002	No	2.681	-0.002	1.0	NoResponse	-1	0.38	n/a	0	35	ButtonPress	Loss	True
341.667	1.45	Lose2	0.6389	n/a	No	2.681	n/a	5.0	NoResponse	-1	0.061	340.728	0	35	Feedback	Loss	True
343.117	2.681	Lose2	0.6389	n/a	No	2.681	n/a	n/a	NoResponse	-1	0.0	n/a	0	35	ISIslide	Loss	True
345.816	0.25	Control	0.6486	0.0	Yes	2.684	0.016	n/a	GoodResponse	0	n/a	n/a	0	36	Cue	Neutral	True
346.066	4.0	Control	0.6486	0.0	Yes	2.684	0.0	n/a	GoodResponse	0	n/a	n/a	0	36	Fixation	Neutral	True
350.064	0.37	Control	0.6486	0.002	Yes	2.684	-0.002	1.0	GoodResponse	0	0.263	349.327	0	36	Target	Neutral	True
350.327	0.3	Control	0.6486	0.002	Yes	2.684	-0.002	1.0	GoodResponse	0	0.263	n/a	0	36	ButtonPress	Neutral	True
350.447	0.33	Control	0.6486	n/a	Yes	2.684	n/a	n/a	GoodResponse	0	n/a	n/a	0	36	Blank	Neutral	True
350.764	1.45	Control	0.6486	n/a	Yes	2.684	n/a	5.0	GoodResponse	0	0.086	349.85	0	36	Feedback	Neutral	True
352.213	2.684	Control	0.6486	n/a	Yes	2.684	n/a	n/a	GoodResponse	0	0.0	n/a	0	36	ISIslide	Neutral	True
354.929	0.25	Win2	0.6315999999999999	0.0	No	2.871	0.029	n/a	NoResponse	0	n/a	n/a	0	37	Cue	MissedWin	False
355.179	4.0	Win2	0.6315999999999999	0.0	No	2.871	0.0	n/a	NoResponse	0	n/a	n/a	0	37	Fixation	MissedWin	False
359.178	0.38	Win2	0.6315999999999999	0.001	No	2.871	-0.001	n/a	NoResponse	0	n/a	n/a	0	37	Target	MissedWin	False
359.561	0.32	Win2	0.6315999999999999	n/a	No	2.871	n/a	n/a	NoResponse	0	n/a	n/a	0	37	Blank	MissedWin	False
359.877	1.45	Win2	0.6315999999999999	n/a	No	2.871	n/a	5.0	NoResponse	0	0.095	358.972	0	37	Feedback	MissedWin	False
361.327	2.871	Win2	0.6315999999999999	n/a	No	2.871	n/a	n/a	NoResponse	0	0.0	n/a	0	37	ISIslide	MissedWin	False
364.226	0.25	Lose2	0.6409999999999999	0.0	Yes	2.824	0.026	n/a	GoodResponse	0	n/a	n/a	0	38	Cue	AvoidedLoss	True
364.476	3.95	Lose2	0.6409999999999999	0.0	Yes	2.824	0.0	n/a	GoodResponse	0	n/a	n/a	0	38	Fixation	AvoidedLoss	True
368.424	0.39	Lose2	0.6409999999999999	0.002	Yes	2.824	-0.002	1.0	GoodResponse	0	0.284	367.708	0	38	Target	AvoidedLoss	True
368.708	0.3	Lose2	0.6409999999999999	0.002	Yes	2.824	-0.002	1.0	GoodResponse	0	0.284	n/a	0	38	ButtonPress	AvoidedLoss	True
368.824	0.31	Lose2	0.6409999999999999	n/a	Yes	2.824	n/a	n/a	GoodResponse	0	n/a	n/a	0	38	Blank	AvoidedLoss	True
369.124	1.45	Lose2	0.6409999999999999	n/a	Yes	2.824	n/a	5.0	GoodResponse	0	0.507	368.631	0	38	Feedback	AvoidedLoss	True
370.574	2.824	Lose2	0.6409999999999999	n/a	Yes	2.824	n/a	n/a	GoodResponse	0	0.0	n/a	0	38	ISIslide	AvoidedLoss	True
373.423	0.25	Win2	0.65	0.0	Yes	2.977	0.023	n/a	GoodResponse	1	n/a	n/a	1	39	Cue	Win	True
373.673	4.1	Win2	0.65	0.0	Yes	2.977	0.0	n/a	GoodResponse	1	n/a	n/a	1	39	Fixation	Win	True
377.771	0.4	Win2	0.65	0.002	Yes	2.977	-0.002	1.0	GoodResponse	1	0.329	377.1	1	39	Target	Win	True
378.1	0.3	Win2	0.65	0.002	Yes	2.977	-0.002	1.0	GoodResponse	1	0.329	n/a	1	39	ButtonPress	Win	True
378.171	0.3	Win2	0.65	n/a	Yes	2.977	n/a	n/a	GoodResponse	1	n/a	n/a	1	39	Blank	Win	True
378.471	1.45	Win2	0.65	n/a	Yes	2.977	n/a	5.0	GoodResponse	1	0.282	377.753	1	39	Feedback	Win	True
379.92	2.977	Win2	0.65	n/a	Yes	2.977	n/a	n/a	GoodResponse	1	0.0	n/a	1	39	ISIslide	Win	True
382.919	0.25	Win2	0.6585	0.0	Yes	2.731	0.019	n/a	GoodResponse	1	n/a	n/a	2	40	Cue	Win	True
383.169	3.95	Win2	0.6585	0.0	Yes	2.731	0.0	n/a	GoodResponse	1	n/a	n/a	2	40	Fixation	Win	True
387.118	0.41	Win2	0.6585	0.001	Yes	2.731	-0.001	1.0	GoodResponse	1	0.251	386.369	2	40	Target	Win	True
387.369	0.3	Win2	0.6585	0.001	Yes	2.731	-0.001	1.0	GoodResponse	1	0.251	n/a	2	40	ButtonPress	Win	True
387.534	0.29	Win2	0.6585	n/a	Yes	2.731	n/a	n/a	GoodResponse	1	n/a	n/a	2	40	Blank	Win	True
387.818	1.45	Win2	0.6585	n/a	Yes	2.731	n/a	5.0	GoodResponse	1	0.056	386.874	2	40	Feedback	Win	True
389.267	2.731	Win2	0.6585	n/a	Yes	2.731	n/a	n/a	GoodResponse	1	0.0	n/a	2	40	ISIslide	Win	True
392.016	0.25	Win2	0.6667000000000001	0.0	Yes	2.784	0.016	n/a	GoodResponse	1	n/a	n/a	3	41	Cue	Win	True
392.266	3.9	Win2	0.6667000000000001	0.0	Yes	2.784	0.0	n/a	GoodResponse	1	n/a	n/a	3	41	Fixation	Win	True
396.165	0.41	Win2	0.6667000000000001	0.001	Yes	2.784	-0.001	1.0	GoodResponse	1	0.274	395.439	3	41	Target	Win	True
396.439	0.3	Win2	0.6667000000000001	0.001	Yes	2.784	-0.001	1.0	GoodResponse	1	0.274	n/a	3	41	ButtonPress	Win	True
396.581	0.29	Win2	0.6667000000000001	n/a	Yes	2.784	n/a	n/a	GoodResponse	1	n/a	n/a	3	41	Blank	Win	True
396.864	1.45	Win2	0.6667000000000001	n/a	Yes	2.784	n/a	5.0	GoodResponse	1	0.132	395.996	3	41	Feedback	Win	True
398.314	2.784	Win2	0.6667000000000001	n/a	Yes	2.784	n/a	n/a	GoodResponse	1	0.0	n/a	3	41	ISIslide	Win	True
401.113	0.25	Control	0.6512	0.0	No	2.937	0.013	n/a	NoResponse	0	n/a	n/a	3	42	Cue	Neutral	False
401.363	3.85	Control	0.6512	0.0	No	2.937	0.0	n/a	NoResponse	0	n/a	n/a	3	42	Fixation	Neutral	False
405.211	0.4	Control	0.6512	0.002	No	2.937	-0.002	n/a	NoResponse	0	n/a	n/a	3	42	Target	Neutral	False
405.611	0.3	Control	0.6512	n/a	No	2.937	n/a	n/a	NoResponse	0	n/a	n/a	3	42	Blank	Neutral	False
405.911	1.45	Control	0.6512	n/a	No	2.937	n/a	5.0	NoResponse	0	0.207	405.118	3	42	Feedback	Neutral	False
407.361	2.937	Control	0.6512	n/a	No	2.937	n/a	1.0	NoResponse	0	0.095	n/a	3	42	ISIslide	Neutral	False
410.31	0.25	Win2	0.6591	0.0	Yes	3.19	0.01	n/a	GoodResponse	1	n/a	n/a	4	43	Cue	Win	True
410.559	4.0	Win2	0.6591	0.001	Yes	3.19	-0.001	n/a	GoodResponse	1	n/a	n/a	4	43	Fixation	Win	True
414.558	0.41	Win2	0.6591	0.002	Yes	3.19	-0.002	1.0	GoodResponse	1	0.366	413.924	4	43	Target	Win	True
414.924	0.3	Win2	0.6591	0.002	Yes	3.19	-0.002	1.0	GoodResponse	1	0.366	n/a	4	43	ButtonPress	Win	True
414.975	0.29	Win2	0.6591	n/a	Yes	3.19	n/a	n/a	GoodResponse	1	n/a	n/a	4	43	Blank	Win	True
415.258	1.45	Win2	0.6591	n/a	Yes	3.19	n/a	5.0	GoodResponse	1	0.519	414.777	4	43	Feedback	Win	True
416.707	3.19	Win2	0.6591	n/a	Yes	3.19	n/a	n/a	GoodResponse	1	0.0	n/a	4	43	ISIslide	Win	True
419.923	0.25	Win2	0.6444	0.0	No	2.977	0.023	n/a	NoResponse	0	n/a	n/a	4	44	Cue	MissedWin	True
420.173	4.0	Win2	0.6444	0.0	No	2.977	0.0	n/a	NoResponse	0	n/a	n/a	4	44	Fixation	MissedWin	True
424.171	0.41	Win2	0.6444	0.002	No	2.977	-0.002	1.0	NoResponse	0	0.538	423.709	4	44	Target	MissedWin	True
424.588	0.29	Win2	0.6444	n/a	No	2.977	n/a	n/a	NoResponse	0	n/a	n/a	4	44	Blank	MissedWin	True
424.709	0.3	Win2	0.6444	0.002	No	2.977	-0.002	1.0	NoResponse	0	0.538	n/a	4	44	ButtonPress	MissedWin	True
424.871	1.45	Win2	0.6444	n/a	No	2.977	n/a	5.0	NoResponse	0	0.028	423.899	4	44	Feedback	MissedWin	True
426.321	2.977	Win2	0.6444	n/a	No	2.977	n/a	n/a	NoResponse	0	0.0	n/a	4	44	ISIslide	MissedWin	True
429.32	0.25	Control	0.6522	0.0	Yes	2.88	0.02	n/a	GoodResponse	0	n/a	n/a	4	45	Cue	Neutral	True
429.569	4.1	Control	0.6522	0.001	Yes	2.88	-0.001	n/a	GoodResponse	0	n/a	n/a	4	45	Fixation	Neutral	True
433.668	0.42	Control	0.6522	0.002	Yes	2.88	-0.002	1.0	GoodResponse	0	0.261	432.929	4	45	Target	Neutral	True
433.929	0.3	Control	0.6522	0.002	Yes	2.88	-0.002	1.0	GoodResponse	0	0.261	n/a	4	45	ButtonPress	Neutral	True
434.101	0.28	Control	0.6522	n/a	Yes	2.88	n/a	n/a	GoodResponse	0	n/a	n/a	4	45	Blank	Neutral	True
434.368	1.45	Control	0.6522	n/a	Yes	2.88	n/a	5.0	GoodResponse	0	0.188	433.556	4	45	Feedback	Neutral	True
435.817	2.88	Control	0.6522	n/a	Yes	2.88	n/a	n/a	GoodResponse	0	0.0	n/a	4	45	ISIslide	Neutral	True
438.716	0.25	Lose2	0.6383	0.0	No	3.384	0.016	n/a	NoResponse	-1	n/a	n/a	3	46	Cue	Loss	False
438.966	4.0	Lose2	0.6383	0.0	No	3.384	0.0	n/a	NoResponse	-1	n/a	n/a	3	46	Fixation	Loss	False
442.965	0.43	Lose2	0.6383	0.001	No	3.384	-0.001	n/a	NoResponse	-1	n/a	n/a	3	46	Target	Loss	False
443.398	0.27	Lose2	0.6383	n/a	No	3.384	n/a	n/a	NoResponse	-1	n/a	n/a	3	46	Blank	Loss	False
443.665	1.45	Lose2	0.6383	n/a	No	3.384	n/a	5.0	NoResponse	-1	0.013	442.678	3	46	Feedback	Loss	False
445.114	3.384	Lose2	0.6383	n/a	No	3.384	n/a	n/a	NoResponse	-1	0.0	n/a	3	46	ISIslide	Loss	False
448.513	0.25	Lose2	0.6457999999999999	0.0	Yes	2.687	0.013	n/a	GoodResponse	0	n/a	n/a	3	47	Cue	AvoidedLoss	True
448.763	4.0	Lose2	0.6457999999999999	0.0	Yes	2.687	0.0	n/a	GoodResponse	0	n/a	n/a	3	47	Fixation	AvoidedLoss	True
452.761	0.44	Lose2	0.6457999999999999	0.002	Yes	2.687	-0.002	1.0	GoodResponse	0	0.206	451.967	3	47	Target	AvoidedLoss	True
452.967	0.3	Lose2	0.6457999999999999	0.002	Yes	2.687	-0.002	1.0	GoodResponse	0	0.206	n/a	3	47	ButtonPress	AvoidedLoss	True
453.211	0.26	Lose2	0.6457999999999999	n/a	Yes	2.687	n/a	n/a	GoodResponse	0	n/a	n/a	3	47	Blank	AvoidedLoss	True
453.461	1.45	Lose2	0.6457999999999999	n/a	Yes	2.687	n/a	5.0	GoodResponse	0	0.413	452.874	3	47	Feedback	AvoidedLoss	True
454.911	2.687	Lose2	0.6457999999999999	n/a	Yes	2.687	n/a	n/a	GoodResponse	0	0.0	n/a	3	47	ISIslide	AvoidedLoss	True
457.626	0.25	Lose2	0.6327	0.0	No	3.024	0.026	n/a	NoResponse	-1	n/a	n/a	2	48	Cue	Loss	False
457.876	3.95	Lose2	0.6327	0.0	No	3.024	0.0	n/a	NoResponse	-1	n/a	n/a	2	48	Fixation	Loss	False
461.825	0.45	Lose2	0.6327	0.001	No	3.024	-0.001	n/a	NoResponse	-1	n/a	n/a	2	48	Target	Loss	False
462.275	0.25	Lose2	0.6327	n/a	No	3.024	n/a	n/a	NoResponse	-1	n/a	n/a	2	48	Blank	Loss	False
462.525	1.45	Lose2	0.6327	n/a	No	3.024	n/a	5.0	NoResponse	-1	0.471	461.996	2	48	Feedback	Loss	False
463.974	3.024	Lose2	0.6327	n/a	No	3.024	n/a	n/a	NoResponse	-1	0.0	n/a	2	48	ISIslide	Loss	False
467.023	0.25	Control	0.62	0.0	No	2.877	0.023	n/a	NoResponse	0	n/a	n/a	2	49	Cue	Neutral	False
467.273	4.0	Control	0.62	0.0	No	2.877	0.0	n/a	NoResponse	0	n/a	n/a	2	49	Fixation	Neutral	False
471.271	0.46	Control	0.62	0.002	No	2.877	-0.002	n/a	NoResponse	0	n/a	n/a	2	49	Target	Neutral	False
471.738	0.24	Control	0.62	n/a	No	2.877	n/a	n/a	NoResponse	0	n/a	n/a	2	49	Blank	Neutral	False
471.971	1.45	Control	0.62	n/a	No	2.877	n/a	5.0	NoResponse	0	0.146	471.117	2	49	Feedback	Neutral	False
473.421	2.877	Control	0.62	n/a	No	2.877	n/a	n/a	NoResponse	0	0.0	n/a	2	49	ISIslide	Neutral	False
476.32	0.25	Control	0.6078	0.0	No	2.78	0.02	n/a	NoResponse	0	n/a	n/a	2	50	Cue	Neutral	False
476.57	4.0	Control	0.6078	0.0	No	2.78	0.0	n/a	NoResponse	0	n/a	n/a	2	50	Fixation	Neutral	False
480.568	0.47	Control	0.6078	0.002	No	2.78	-0.002	n/a	NoResponse	0	n/a	n/a	2	50	Target	Neutral	False
481.051	0.23	Control	0.6078	n/a	No	2.78	n/a	n/a	NoResponse	0	n/a	n/a	2	50	Blank	Neutral	False
481.268	1.45	Control	0.6078	n/a	No	2.78	n/a	5.0	NoResponse	0	0.507	480.775	2	50	Feedback	Neutral	False
482.717	2.78	Control	0.6078	n/a	No	2.78	n/a	n/a	NoResponse	0	0.0	n/a	2	50	ISIslide	Neutral	False
485.516	0.25	Control	0.5962	0.001	No	2.734	0.016	n/a	NoResponse	0	n/a	n/a	2	51	Cue	Neutral	True
485.766	3.95	Control	0.5962	0.0	No	2.734	0.0	n/a	NoResponse	0	n/a	n/a	2	51	Fixation	Neutral	True
489.715	0.48	Control	0.5962	0.001	No	2.734	-0.001	n/a	NoResponse	0	n/a	n/a	2	51	Target	Neutral	True
490.198	0.22	Control	0.5962	n/a	No	2.734	n/a	n/a	NoResponse	0	n/a	n/a	2	51	Blank	Neutral	True
490.415	1.45	Control	0.5962	n/a	No	2.734	n/a	1.0	NoResponse	0	0.406	489.821	2	51	Feedback	Neutral	True
490.821	0.3	Control	0.5962	n/a	No	2.734	n/a	1.0	NoResponse	0	0.406	n/a	2	51	ButtonPress	Neutral	True
491.864	2.734	Control	0.5962	n/a	No	2.734	n/a	n/a	NoResponse	0	0.0	n/a	2	51	ISIslide	Neutral	True
494.613	0.25	Control	0.5849	0.0	No	2.637	0.013	n/a	NoResponse	0	n/a	n/a	2	52	Cue	Neutral	False
494.863	4.05	Control	0.5849	0.0	No	2.637	0.0	n/a	NoResponse	0	n/a	n/a	2	52	Fixation	Neutral	False
498.912	0.49	Control	0.5849	0.001	No	2.637	-0.001	n/a	NoResponse	0	n/a	n/a	2	52	Target	Neutral	False
499.412	0.21	Control	0.5849	n/a	No	2.637	n/a	n/a	NoResponse	0	n/a	n/a	2	52	Blank	Neutral	False
499.611	1.45	Control	0.5849	n/a	No	2.637	n/a	5.0	NoResponse	0	0.409	499.02	2	52	Feedback	Neutral	False
501.061	2.637	Control	0.5849	n/a	No	2.637	n/a	n/a	NoResponse	0	0.0	n/a	2	52	ISIslide	Neutral	False
503.727	0.25	Win2	0.5926	0.0	Yes	2.923	0.027	n/a	GoodResponse	1	n/a	n/a	3	53	Cue	Win	False
503.977	4.05	Win2	0.5926	0.0	Yes	2.923	0.0	1.0	GoodResponse	1	0.653	503.63	3	53	Fixation	Win	False
504.63	0.3	Win2	0.5926	0.0	Yes	2.923	0.0	1.0	GoodResponse	1	0.653	n/a	3	53	ButtonPress	Win	False
508.025	0.5	Win2	0.5926	0.002	Yes	2.923	-0.002	1.0	GoodResponse	1	0.419	507.444	3	53	Target	Win	False
508.444	0.3	Win2	0.5926	0.002	Yes	2.923	-0.002	1.0	GoodResponse	1	0.419	n/a	3	53	ButtonPress	Win	False
508.525	0.2	Win2	0.5926	n/a	Yes	2.923	n/a	n/a	GoodResponse	1	n/a	n/a	3	53	Blank	Win	False
508.725	1.45	Win2	0.5926	n/a	Yes	2.923	n/a	5.0	GoodResponse	1	0.417	508.142	3	53	Feedback	Win	False
510.174	2.923	Win2	0.5926	n/a	Yes	2.923	n/a	n/a	GoodResponse	1	0.0	n/a	3	53	ISIslide	Win	False
513.123	0.25	Win2	0.6	0.0	Yes	2.727	0.023	n/a	GoodResponse	1	n/a	n/a	4	54	Cue	Win	True
513.373	3.95	Win2	0.6	0.0	Yes	2.727	0.0	n/a	GoodResponse	1	n/a	n/a	4	54	Fixation	Win	True
517.322	0.5	Win2	0.6	0.001	Yes	2.727	-0.001	1.0	GoodResponse	1	0.315	516.637	4	54	Target	Win	True
517.637	0.3	Win2	0.6	0.001	Yes	2.727	-0.001	1.0	GoodResponse	1	0.315	n/a	4	54	ButtonPress	Win	True
517.822	0.2	Win2	0.6	n/a	Yes	2.727	n/a	n/a	GoodResponse	1	n/a	n/a	4	54	Blank	Win	True
518.022	1.45	Win2	0.6	n/a	Yes	2.727	n/a	5.0	GoodResponse	1	0.241	517.263	4	54	Feedback	Win	True
519.471	2.727	Win2	0.6	n/a	Yes	2.727	n/a	n/a	GoodResponse	1	0.0	n/a	4	54	ISIslide	Win	True
522.22	0.25	Control	0.6071	0.0	Yes	3.03	0.02	n/a	GoodResponse	0	n/a	n/a	4	55	Cue	Neutral	True
522.47	3.95	Control	0.6071	0.0	Yes	3.03	0.0	n/a	GoodResponse	0	n/a	n/a	4	55	Fixation	Neutral	True
526.419	0.5	Control	0.6071	0.001	Yes	3.03	-0.001	1.0	GoodResponse	0	0.271	525.69	4	55	Target	Neutral	True
526.69	0.3	Control	0.6071	0.001	Yes	3.03	-0.001	1.0	GoodResponse	0	0.271	n/a	4	55	ButtonPress	Neutral	True
526.919	0.2	Control	0.6071	n/a	Yes	3.03	n/a	n/a	GoodResponse	0	n/a	n/a	4	55	Blank	Neutral	True
527.118	1.45	Control	0.6071	n/a	Yes	3.03	n/a	5.0	GoodResponse	0	0.267	526.385	4	55	Feedback	Neutral	True
528.568	3.03	Control	0.6071	n/a	Yes	3.03	n/a	n/a	GoodResponse	0	0.0	n/a	4	55	ISIslide	Neutral	True
531.617	0.25	Control	0.5965	0.0	No	2.833	0.017	n/a	NoResponse	0	n/a	n/a	4	56	Cue	Neutral	True
531.867	3.95	Control	0.5965	0.0	No	2.833	0.0	n/a	NoResponse	0	n/a	n/a	4	56	Fixation	Neutral	True
535.815	0.5	Control	0.5965	0.002	No	2.833	-0.002	n/a	NoResponse	0	n/a	n/a	4	56	Target	Neutral	True
536.315	0.2	Control	0.5965	n/a	No	2.833	n/a	n/a	NoResponse	0	n/a	n/a	4	56	Blank	Neutral	True
536.515	1.45	Control	0.5965	n/a	No	2.833	n/a	1.0	NoResponse	0	0.176	535.691	4	56	Feedback	Neutral	True
536.691	0.3	Control	0.5965	n/a	No	2.833	n/a	1.0	NoResponse	0	0.176	n/a	4	56	ButtonPress	Neutral	True
537.965	2.833	Control	0.5965	n/a	No	2.833	n/a	n/a	NoResponse	0	0.0	n/a	4	56	ISIslide	Neutral	True
540.814	0.25	Control	0.6034	0.0	Yes	3.486	0.014	n/a	GoodResponse	0	n/a	n/a	4	57	Cue	Neutral	True
541.064	4.0	Control	0.6034	0.0	Yes	3.486	0.0	n/a	GoodResponse	0	n/a	n/a	4	57	Fixation	Neutral	True
545.062	0.5	Control	0.6034	0.002	Yes	3.486	-0.002	1.0	GoodResponse	0	0.327	544.389	4	57	Target	Neutral	True
545.389	0.3	Control	0.6034	0.002	Yes	3.486	-0.002	1.0	GoodResponse	0	0.327	n/a	4	57	ButtonPress	Neutral	True
545.562	0.2	Control	0.6034	n/a	Yes	3.486	n/a	n/a	GoodResponse	0	n/a	n/a	4	57	Blank	Neutral	True
545.762	1.45	Control	0.6034	n/a	Yes	3.486	n/a	5.0	GoodResponse	0	0.404	545.166	4	57	Feedback	Neutral	True
547.211	3.486	Control	0.6034	n/a	Yes	3.486	n/a	n/a	GoodResponse	0	0.0	n/a	4	57	ISIslide	Neutral	True
550.71	0.25	Win2	0.5932	0.0	No	2.74	0.01	n/a	NoResponse	0	n/a	n/a	4	58	Cue	MissedWin	False
550.96	4.05	Win2	0.5932	0.0	No	2.74	0.0	n/a	NoResponse	0	n/a	n/a	4	58	Fixation	MissedWin	False
555.009	0.5	Win2	0.5932	0.001	No	2.74	-0.001	n/a	NoResponse	0	n/a	n/a	4	58	Target	MissedWin	False
555.508	0.2	Win2	0.5932	n/a	No	2.74	n/a	n/a	NoResponse	0	n/a	n/a	4	58	Blank	MissedWin	False
555.708	1.45	Win2	0.5932	n/a	No	2.74	n/a	5.0	NoResponse	0	0.115	554.823	4	58	Feedback	MissedWin	False
557.158	2.74	Win2	0.5932	n/a	No	2.74	n/a	n/a	NoResponse	0	0.0	n/a	4	58	ISIslide	MissedWin	False
559.924	0.25	Lose2	0.6	0.0	Yes	2.676	0.024	n/a	GoodResponse	0	n/a	n/a	4	59	Cue	AvoidedLoss	False
560.173	4.0	Lose2	0.6	0.001	Yes	2.676	-0.001	1.0	GoodResponse	0	0.237	559.41	4	59	Fixation	AvoidedLoss	False
560.41	0.3	Lose2	0.6	0.001	Yes	2.676	-0.001	1.0	GoodResponse	0	0.237	n/a	4	59	ButtonPress	AvoidedLoss	False
564.172	0.5	Lose2	0.6	0.002	Yes	2.676	-0.002	1.0	GoodResponse	0	0.429	563.601	4	59	Target	AvoidedLoss	False
564.601	0.3	Lose2	0.6	0.002	Yes	2.676	-0.002	1.0	GoodResponse	0	0.429	n/a	4	59	ButtonPress	AvoidedLoss	False
564.672	0.2	Lose2	0.6	n/a	Yes	2.676	n/a	n/a	GoodResponse	0	n/a	n/a	4	59	Blank	AvoidedLoss	False
564.872	1.45	Lose2	0.6	n/a	Yes	2.676	n/a	5.0	GoodResponse	0	0.073	563.945	4	59	Feedback	AvoidedLoss	False
566.321	2.676	Lose2	0.6	n/a	Yes	2.676	n/a	n/a	GoodResponse	0	0.0	n/a	4	59	ISIslide	AvoidedLoss	False
569.02	0.25	Control	0.5902000000000001	0.0	No	2.68	0.02	n/a	NoResponse	0	n/a	n/a	4	60	Cue	Neutral	True
569.27	4.0	Control	0.5902000000000001	0.0	No	2.68	0.0	n/a	NoResponse	0	n/a	n/a	4	60	Fixation	Neutral	True
573.269	0.5	Control	0.5902000000000001	0.001	No	2.68	-0.001	1.0	NoResponse	0	0.645	572.914	4	60	Target	Neutral	True
573.769	0.2	Control	0.5902000000000001	n/a	No	2.68	n/a	n/a	NoResponse	0	n/a	n/a	4	60	Blank	Neutral	True
573.914	0.3	Control	0.5902000000000001	0.001	No	2.68	-0.001	1.0	NoResponse	0	0.645	n/a	4	60	ButtonPress	Neutral	True
573.969	1.45	Control	0.5902000000000001	n/a	No	2.68	n/a	5.0	NoResponse	0	0.098	573.067	4	60	Feedback	Neutral	True
575.418	2.68	Control	0.5902000000000001	n/a	No	2.68	n/a	n/a	NoResponse	0	0.0	n/a	4	60	ISIslide	Neutral	True
578.117	0.25	Lose2	0.5806	0.0	No	2.983	0.017	n/a	NoResponse	-1	n/a	n/a	3	61	Cue	Loss	True
578.367	4.0	Lose2	0.5806	0.0	No	2.983	0.0	n/a	NoResponse	-1	n/a	n/a	3	61	Fixation	Loss	True
582.366	0.5	Lose2	0.5806	0.001	No	2.983	-0.001	1.0	NoResponse	-1	0.524	581.89	3	61	Target	Loss	True
582.865	0.2	Lose2	0.5806	n/a	No	2.983	n/a	n/a	NoResponse	-1	n/a	n/a	3	61	Blank	Loss	True
582.89	0.3	Lose2	0.5806	0.001	No	2.983	-0.001	1.0	NoResponse	-1	0.524	n/a	3	61	ButtonPress	Loss	True
583.065	1.45	Lose2	0.5806	n/a	No	2.983	n/a	5.0	NoResponse	-1	0.124	582.189	3	61	Feedback	Loss	True
584.515	2.983	Lose2	0.5806	n/a	No	2.983	n/a	n/a	NoResponse	-1	0.0	n/a	3	61	ISIslide	Loss	True
587.514	0.25	Lose2	0.5714	0.0	No	2.886	0.014	n/a	NoResponse	-1	n/a	n/a	2	62	Cue	Loss	False
587.764	3.9	Lose2	0.5714	0.0	No	2.886	0.0	n/a	NoResponse	-1	n/a	n/a	2	62	Fixation	Loss	False
591.662	0.5	Lose2	0.5714	0.002	No	2.886	-0.002	n/a	NoResponse	-1	n/a	n/a	2	62	Target	Loss	False
592.162	0.2	Lose2	0.5714	n/a	No	2.886	n/a	n/a	NoResponse	-1	n/a	n/a	2	62	Blank	Loss	False
592.362	1.45	Lose2	0.5714	n/a	No	2.886	n/a	5.0	NoResponse	-1	0.486	591.848	2	62	Feedback	Loss	False
593.812	2.886	Lose2	0.5714	n/a	No	2.886	n/a	n/a	NoResponse	-1	0.0	n/a	2	62	ISIslide	Loss	False
596.727	0.25	Lose2	0.5781000000000001	0.0	Yes	2.623	0.027	n/a	GoodResponse	0	n/a	n/a	2	63	Cue	AvoidedLoss	True
596.977	4.05	Lose2	0.5781000000000001	0.0	Yes	2.623	0.0	n/a	GoodResponse	0	n/a	n/a	2	63	Fixation	AvoidedLoss	True
601.026	0.5	Lose2	0.5781000000000001	0.001	Yes	2.623	-0.001	1.0	GoodResponse	0	0.387	600.413	2	63	Target	AvoidedLoss	True
601.413	0.3	Lose2	0.5781000000000001	0.001	Yes	2.623	-0.001	1.0	GoodResponse	0	0.387	n/a	2	63	ButtonPress	AvoidedLoss	True
601.526	0.2	Lose2	0.5781000000000001	n/a	Yes	2.623	n/a	n/a	GoodResponse	0	n/a	n/a	2	63	Blank	AvoidedLoss	True
601.725	1.45	Lose2	0.5781000000000001	n/a	Yes	2.623	n/a	5.0	GoodResponse	0	0.244	600.969	2	63	Feedback	AvoidedLoss	True
603.175	2.623	Lose2	0.5781000000000001	n/a	Yes	2.623	n/a	n/a	GoodResponse	0	0.0	n/a	2	63	ISIslide	AvoidedLoss	True
605.824	0.25	Win2	0.5692	0.0	No	3.126	0.024	n/a	NoResponse	0	n/a	n/a	2	64	Cue	MissedWin	False
606.074	4.15	Win2	0.5692	0.0	No	3.126	0.0	n/a	NoResponse	0	n/a	n/a	2	64	Fixation	MissedWin	False
610.223	0.5	Win2	0.5692	0.001	No	3.126	-0.001	n/a	NoResponse	0	n/a	n/a	2	64	Target	MissedWin	False
610.722	0.2	Win2	0.5692	n/a	No	3.126	n/a	n/a	NoResponse	0	n/a	n/a	2	64	Blank	MissedWin	False
610.922	1.45	Win2	0.5692	n/a	No	3.126	n/a	5.0	NoResponse	0	0.169	610.091	2	64	Feedback	MissedWin	False
612.372	3.126	Win2	0.5692	n/a	No	3.126	n/a	n/a	NoResponse	0	0.0	n/a	2	64	ISIslide	MissedWin	False
615.521	0.25	Control	0.5758	0.0	Yes	2.779	0.021	n/a	GoodResponse	0	n/a	n/a	2	65	Cue	Neutral	True
615.771	4.0	Control	0.5758	0.0	Yes	2.779	0.0	n/a	GoodResponse	0	n/a	n/a	2	65	Fixation	Neutral	True
619.769	0.5	Control	0.5758	0.002	Yes	2.779	-0.002	1.0	GoodResponse	0	0.299	619.068	2	65	Target	Neutral	True
620.068	0.3	Control	0.5758	0.002	Yes	2.779	-0.002	1.0	GoodResponse	0	0.299	n/a	2	65	ButtonPress	Neutral	True
620.269	0.2	Control	0.5758	n/a	Yes	2.779	n/a	n/a	GoodResponse	0	n/a	n/a	2	65	Blank	Neutral	True
620.469	1.45	Control	0.5758	n/a	Yes	2.779	n/a	5.0	GoodResponse	0	0.281	619.75	2	65	Feedback	Neutral	True
621.918	2.779	Control	0.5758	n/a	Yes	2.779	n/a	n/a	GoodResponse	0	0.0	n/a	2	65	ISIslide	Neutral	True
624.717	0.25	Win2	0.5821000000000001	0.0	Yes	2.783	0.017	n/a	GoodResponse	1	n/a	n/a	3	66	Cue	Win	True
624.967	3.9	Win2	0.5821000000000001	0.0	Yes	2.783	0.0	n/a	GoodResponse	1	n/a	n/a	3	66	Fixation	Win	True
628.866	0.5	Win2	0.5821000000000001	0.001	Yes	2.783	-0.001	1.0	GoodResponse	1	0.309	628.175	3	66	Target	Win	True
629.175	0.3	Win2	0.5821000000000001	0.001	Yes	2.783	-0.001	1.0	GoodResponse	1	0.309	n/a	3	66	ButtonPress	Win	True
629.366	0.2	Win2	0.5821000000000001	n/a	Yes	2.783	n/a	n/a	GoodResponse	1	n/a	n/a	3	66	Blank	Win	True
629.566	1.45	Win2	0.5821000000000001	n/a	Yes	2.783	n/a	5.0	GoodResponse	1	0.306	628.872	3	66	Feedback	Win	True
631.015	2.783	Win2	0.5821000000000001	n/a	Yes	2.783	n/a	n/a	GoodResponse	1	0.0	n/a	3	66	ISIslide	Win	True
633.814	0.25	Control	0.5735	0.0	No	2.736	0.014	n/a	NoResponse	0	n/a	n/a	3	67	Cue	Neutral	True
634.064	3.95	Control	0.5735	0.0	No	2.736	0.0	1.0	NoResponse	0	3.226	636.29	3	67	Fixation	Neutral	True
637.29	0.3	Control	0.5735	0.0	No	2.736	0.0	1.0	NoResponse	0	3.226	n/a	3	67	ButtonPress	Neutral	True
638.013	0.5	Control	0.5735	0.001	No	2.736	-0.001	n/a	NoResponse	0	n/a	n/a	3	67	Target	Neutral	True
638.513	0.2	Control	0.5735	n/a	No	2.736	n/a	n/a	NoResponse	0	n/a	n/a	3	67	Blank	Neutral	True
638.712	1.45	Control	0.5735	n/a	No	2.736	n/a	5.0	NoResponse	0	0.282	637.994	3	67	Feedback	Neutral	True
640.162	2.736	Control	0.5735	n/a	No	2.736	n/a	n/a	NoResponse	0	0.0	n/a	3	67	ISIslide	Neutral	True
642.928	0.25	Win2	0.5652	0.0	No	3.072	0.028	n/a	NoResponse	0	n/a	n/a	3	68	Cue	MissedWin	False
643.178	4.0	Win2	0.5652	0.0	No	3.072	0.0	n/a	NoResponse	0	n/a	n/a	3	68	Fixation	MissedWin	False
647.176	0.5	Win2	0.5652	0.002	No	3.072	-0.002	n/a	NoResponse	0	n/a	n/a	3	68	Target	MissedWin	False
647.676	0.2	Win2	0.5652	n/a	No	3.072	n/a	n/a	NoResponse	0	n/a	n/a	3	68	Blank	MissedWin	False
647.876	1.45	Win2	0.5652	n/a	No	3.072	n/a	5.0	NoResponse	0	0.239	647.115	3	68	Feedback	MissedWin	False
649.325	3.072	Win2	0.5652	n/a	No	3.072	n/a	n/a	NoResponse	0	0.0	n/a	3	68	ISIslide	MissedWin	False
652.424	0.25	Win2	0.5714	0.0	Yes	3.226	0.024	n/a	GoodResponse	1	n/a	n/a	4	69	Cue	Win	True
652.674	3.95	Win2	0.5714	0.0	Yes	3.226	0.0	n/a	GoodResponse	1	n/a	n/a	4	69	Fixation	Win	True
656.623	0.5	Win2	0.5714	0.001	Yes	3.226	-0.001	1.0	GoodResponse	1	0.259	655.882	4	69	Target	Win	True
656.882	0.3	Win2	0.5714	0.001	Yes	3.226	-0.001	1.0	GoodResponse	1	0.259	n/a	4	69	ButtonPress	Win	True
657.123	0.2	Win2	0.5714	n/a	Yes	3.226	n/a	n/a	GoodResponse	1	n/a	n/a	4	69	Blank	Win	True
657.323	1.45	Win2	0.5714	n/a	Yes	3.226	n/a	5.0	GoodResponse	1	0.451	656.774	4	69	Feedback	Win	True
658.772	3.226	Win2	0.5714	n/a	Yes	3.226	n/a	n/a	GoodResponse	1	0.0	n/a	4	69	ISIslide	Win	True
662.021	0.25	Lose2	0.5775	0.0	Yes	3.029	0.021	n/a	GoodResponse	0	n/a	n/a	4	70	Cue	AvoidedLoss	True
662.271	4.05	Lose2	0.5775	0.0	Yes	3.029	0.0	n/a	GoodResponse	0	n/a	n/a	4	70	Fixation	AvoidedLoss	True
666.319	0.5	Lose2	0.5775	0.002	Yes	3.029	-0.002	1.0	GoodResponse	0	0.326	665.645	4	70	Target	AvoidedLoss	True
666.645	0.3	Lose2	0.5775	0.002	Yes	3.029	-0.002	1.0	GoodResponse	0	0.326	n/a	4	70	ButtonPress	AvoidedLoss	True
666.819	0.2	Lose2	0.5775	n/a	Yes	3.029	n/a	n/a	GoodResponse	0	n/a	n/a	4	70	Blank	AvoidedLoss	True
667.019	1.45	Lose2	0.5775	n/a	Yes	3.029	n/a	5.0	GoodResponse	0	0.413	666.432	4	70	Feedback	AvoidedLoss	True
668.469	3.029	Lose2	0.5775	n/a	Yes	3.029	n/a	n/a	GoodResponse	0	0.0	n/a	4	70	ISIslide	AvoidedLoss	True
671.518	0.25	Win2	0.5694	0.0	No	2.732	0.018	n/a	NoResponse	0	n/a	n/a	4	71	Cue	MissedWin	False
671.767	4.05	Win2	0.5694	0.001	No	2.732	-0.001	n/a	NoResponse	0	n/a	n/a	4	71	Fixation	MissedWin	False
675.816	0.5	Win2	0.5694	0.002	No	2.732	-0.002	n/a	NoResponse	0	n/a	n/a	4	71	Target	MissedWin	False
676.316	0.2	Win2	0.5694	n/a	No	2.732	n/a	n/a	NoResponse	0	n/a	n/a	4	71	Blank	MissedWin	False
676.516	1.45	Win2	0.5694	n/a	No	2.732	n/a	5.0	NoResponse	0	0.038	675.554	4	71	Feedback	MissedWin	False
677.965	2.732	Win2	0.5694	n/a	No	2.732	n/a	n/a	NoResponse	0	0.0	n/a	4	71	ISIslide	MissedWin	False
680.714	0.25	Win2	0.5616	0.0	No	2.786	0.014	n/a	NoResponse	0	n/a	n/a	4	72	Cue	MissedWin	False
680.964	4.1	Win2	0.5616	0.0	No	2.786	0.0	n/a	NoResponse	0	n/a	n/a	4	72	Fixation	MissedWin	False
685.063	0.5	Win2	0.5616	0.001	No	2.786	-0.001	n/a	NoResponse	0	n/a	n/a	4	72	Target	MissedWin	False
685.563	0.2	Win2	0.5616	n/a	No	2.786	n/a	n/a	NoResponse	0	n/a	n/a	4	72	Blank	MissedWin	False
685.763	1.45	Win2	0.5616	n/a	No	2.786	n/a	5.0	NoResponse	0	0.449	685.212	4	72	Feedback	MissedWin	False
687.212	2.786	Win2	0.5616	n/a	No	2.786	n/a	n/a	NoResponse	0	0.0	n/a	4	72	ISIslide	MissedWin	False
690.028	0.25	Win2	0.5676	0.0	Yes	2.672	0.028	n/a	GoodResponse	1	n/a	n/a	5	73	Cue	Win	True
690.278	4.0	Win2	0.5676	0.0	Yes	2.672	0.0	n/a	GoodResponse	1	n/a	n/a	5	73	Fixation	Win	True
694.276	0.5	Win2	0.5676	0.002	Yes	2.672	-0.002	1.0	GoodResponse	1	0.469	693.745	5	73	Target	Win	True
694.745	0.3	Win2	0.5676	0.002	Yes	2.672	-0.002	1.0	GoodResponse	1	0.469	n/a	5	73	ButtonPress	Win	True
694.776	0.2	Win2	0.5676	n/a	Yes	2.672	n/a	n/a	GoodResponse	1	n/a	n/a	5	73	Blank	Win	True
694.976	1.45	Win2	0.5676	n/a	Yes	2.672	n/a	5.0	GoodResponse	1	0.358	694.334	5	73	Feedback	Win	True
696.425	2.672	Win2	0.5676	n/a	Yes	2.672	n/a	n/a	GoodResponse	1	0.0	n/a	5	73	ISIslide	Win	True
699.125	0.25	Lose2	0.5733	0.0	Yes	2.625	0.025	n/a	GoodResponse	0	n/a	n/a	5	74	Cue	AvoidedLoss	True
699.374	4.05	Lose2	0.5733	0.001	Yes	2.625	-0.001	n/a	GoodResponse	0	n/a	n/a	5	74	Fixation	AvoidedLoss	True
703.423	0.5	Lose2	0.5733	0.002	Yes	2.625	-0.002	1.0	GoodResponse	0	0.484	702.907	5	74	Target	AvoidedLoss	True
703.907	0.3	Lose2	0.5733	0.002	Yes	2.625	-0.002	1.0	GoodResponse	0	0.484	n/a	5	74	ButtonPress	AvoidedLoss	True
703.923	0.2	Lose2	0.5733	n/a	Yes	2.625	n/a	n/a	GoodResponse	0	n/a	n/a	5	74	Blank	AvoidedLoss	True
704.123	1.45	Lose2	0.5733	n/a	Yes	2.625	n/a	5.0	GoodResponse	0	0.333	703.456	5	74	Feedback	AvoidedLoss	True
705.572	2.625	Lose2	0.5733	n/a	Yes	2.625	n/a	n/a	GoodResponse	0	0.0	n/a	5	74	ISIslide	AvoidedLoss	True
708.221	0.25	Lose2	0.5658	0.0	No	2.929	0.021	n/a	NoResponse	-1	n/a	n/a	4	75	Cue	Loss	False
708.471	3.95	Lose2	0.5658	0.0	No	2.929	0.0	n/a	NoResponse	-1	n/a	n/a	4	75	Fixation	Loss	False
712.42	0.5	Lose2	0.5658	0.001	No	2.929	-0.001	n/a	NoResponse	-1	n/a	n/a	4	75	Target	Loss	False
712.92	0.2	Lose2	0.5658	n/a	No	2.929	n/a	n/a	NoResponse	-1	n/a	n/a	4	75	Blank	Loss	False
713.12	1.45	Lose2	0.5658	n/a	No	2.929	n/a	5.0	NoResponse	-1	0.458	712.578	4	75	Feedback	Loss	False
714.569	2.929	Lose2	0.5658	n/a	No	2.929	n/a	n/a	NoResponse	-1	0.0	n/a	4	75	ISIslide	Loss	False
717.518	0.25	Control	0.5714	0.0	Yes	3.232	0.018	n/a	GoodResponse	0	n/a	n/a	4	76	Cue	Neutral	False
717.768	4.05	Control	0.5714	0.0	Yes	3.232	0.0	1.0	GoodResponse	0	0.305	717.073	4	76	Fixation	Neutral	False
718.073	0.3	Control	0.5714	0.0	Yes	3.232	0.0	1.0	GoodResponse	0	0.305	n/a	4	76	ButtonPress	Neutral	False
721.817	0.5	Control	0.5714	0.001	Yes	3.232	-0.001	1.0	GoodResponse	0	0.495	721.312	4	76	Target	Neutral	False
722.312	0.3	Control	0.5714	0.001	Yes	3.232	-0.001	1.0	GoodResponse	0	0.495	n/a	4	76	ButtonPress	Neutral	False
722.316	0.2	Control	0.5714	n/a	Yes	3.232	n/a	n/a	GoodResponse	0	n/a	n/a	4	76	Blank	Neutral	False
722.516	1.45	Control	0.5714	n/a	Yes	3.232	n/a	5.0	GoodResponse	0	0.184	721.7	4	76	Feedback	Neutral	False
723.966	3.232	Control	0.5714	n/a	Yes	3.232	n/a	n/a	GoodResponse	0	0.0	n/a	4	76	ISIslide	Neutral	False
727.215	0.25	Lose2	0.5640999999999999	0.0	No	2.585	0.015	n/a	NoResponse	-1	n/a	n/a	3	77	Cue	Loss	False
727.465	3.95	Lose2	0.5640999999999999	0.0	No	2.585	0.0	n/a	NoResponse	-1	n/a	n/a	3	77	Fixation	Loss	False
731.413	0.5	Lose2	0.5640999999999999	0.002	No	2.585	-0.002	n/a	NoResponse	-1	n/a	n/a	3	77	Target	Loss	False
731.913	0.2	Lose2	0.5640999999999999	n/a	No	2.585	n/a	n/a	NoResponse	-1	n/a	n/a	3	77	Blank	Loss	False
732.113	1.45	Lose2	0.5640999999999999	n/a	No	2.585	n/a	5.0	NoResponse	-1	0.245	731.358	3	77	Feedback	Loss	False
733.562	2.585	Lose2	0.5640999999999999	n/a	No	2.585	n/a	n/a	NoResponse	-1	0.0	n/a	3	77	ISIslide	Loss	False
