onset	duration	cue_type	current_mean_accuracy	duration_error	is_hit	isi_adjusted	onset_delay	response	response_type	reward	rt	rt_time	total_reward	trial_number	trial_phase	trial_type	one_press
11.111	0.25	Control	1.0	0.0	Yes	2.939	0.011	n/a	GoodResponse	0	n/a	n/a	0	0	Cue	Neutral	False
11.362	3.85	Control	1.0	0.0	Yes	2.939	0.001	2.0	GoodResponse	0	0.614	10.976	0	0	Fixation	Neutral	False
11.976	0.3	Control	1.0	0.0	Yes	2.939	0.001	2.0	GoodResponse	0	0.614	n/a	0	0	ButtonPress	Neutral	False
15.207	0.4	Control	1.0	0.004	Yes	2.939	-0.004	2.0	GoodResponse	0	0.23	14.437	0	0	Target	Neutral	False
15.437	0.3	Control	1.0	0.004	Yes	2.939	-0.004	2.0	GoodResponse	0	0.23	n/a	0	0	ButtonPress	Neutral	False
15.608	0.3	Control	1.0	n/a	Yes	2.939	n/a	n/a	GoodResponse	0	n/a	n/a	0	0	Blank	Neutral	False
15.909	1.45	Control	1.0	n/a	Yes	2.939	n/a	5.0	GoodResponse	0	0.018	14.927	0	0	Feedback	Neutral	False
17.363	2.939	Control	1.0	n/a	Yes	2.939	n/a	n/a	GoodResponse	0	0.0	n/a	0	0	ISIslide	Neutral	False
20.322	0.25	Lose2	1.0	0.0	Yes	2.778	0.022	n/a	GoodResponse	0	n/a	n/a	0	1	Cue	AvoidedLoss	True
20.573	4.0	Lose2	1.0	0.0	Yes	2.778	0.001	n/a	GoodResponse	0	n/a	n/a	0	1	Fixation	AvoidedLoss	True
24.568	0.39	Lose2	1.0	0.004	Yes	2.778	-0.004	2.0	GoodResponse	0	0.217	23.785	0	1	Target	AvoidedLoss	True
24.785	0.3	Lose2	1.0	0.004	Yes	2.778	-0.004	2.0	GoodResponse	0	0.217	n/a	0	1	ButtonPress	AvoidedLoss	True
24.97	0.31	Lose2	1.0	n/a	Yes	2.778	n/a	n/a	GoodResponse	0	n/a	n/a	0	1	Blank	AvoidedLoss	True
25.27	1.45	Lose2	1.0	n/a	Yes	2.778	n/a	5.0	GoodResponse	0	0.022	24.292	0	1	Feedback	AvoidedLoss	True
26.725	2.778	Lose2	1.0	n/a	Yes	2.778	n/a	n/a	GoodResponse	0	0.0	n/a	0	1	ISIslide	AvoidedLoss	True
29.516	0.25	Control	0.6667000000000001	0.001	No	2.584	0.016	n/a	NoResponse	0	n/a	n/a	0	2	Cue	Neutral	True
29.767	4.1	Control	0.6667000000000001	0.0	No	2.584	0.001	2.0	NoResponse	0	3.996	32.763	0	2	Fixation	Neutral	True
33.763	0.3	Control	0.6667000000000001	0.0	No	2.584	0.001	2.0	NoResponse	0	3.996	n/a	0	2	ButtonPress	Neutral	True
33.863	0.38	Control	0.6667000000000001	0.003	No	2.584	-0.003	n/a	NoResponse	0	n/a	n/a	0	2	Target	Neutral	True
34.247	0.32	Control	0.6667000000000001	n/a	No	2.584	n/a	n/a	NoResponse	0	n/a	n/a	0	2	Blank	Neutral	True
34.565	1.45	Control	0.6667000000000001	n/a	No	2.584	n/a	5.0	NoResponse	0	0.044	33.609	0	2	Feedback	Neutral	True
36.019	2.584	Control	0.6667000000000001	n/a	No	2.584	n/a	n/a	NoResponse	0	0.0	n/a	0	2	ISIslide	Neutral	True
38.627	0.25	Win2	0.75	0.0	Yes	2.823	0.027	n/a	GoodResponse	1	n/a	n/a	1	3	Cue	Win	True
38.878	3.95	Win2	0.75	0.0	Yes	2.823	0.001	n/a	GoodResponse	1	n/a	n/a	1	3	Fixation	Win	True
42.823	0.37	Win2	0.75	0.004	Yes	2.823	-0.004	2.0	GoodResponse	1	0.232	42.055	1	3	Target	Win	True
43.055	0.3	Win2	0.75	0.004	Yes	2.823	-0.004	2.0	GoodResponse	1	0.232	n/a	1	3	ButtonPress	Win	True
43.207	0.33	Win2	0.75	n/a	Yes	2.823	n/a	n/a	GoodResponse	1	n/a	n/a	1	3	Blank	Win	True
43.525	1.45	Win2	0.75	n/a	Yes	2.823	n/a	5.0	GoodResponse	1	0.011	42.536	1	3	Feedback	Win	True
44.979	2.823	Win2	0.75	n/a	Yes	2.823	n/a	n/a	GoodResponse	1	0.0	n/a	1	3	ISIslide	Win	True
47.821	0.25	Win2	0.8	0.0	Yes	3.279	0.021	n/a	GoodResponse	1	n/a	n/a	2	4	Cue	Win	True
48.072	4.0	Win2	0.8	0.0	Yes	3.279	0.001	n/a	GoodResponse	1	n/a	n/a	2	4	Fixation	Win	True
52.067	0.36	Win2	0.8	0.004	Yes	3.279	-0.004	2.0	GoodResponse	1	0.235	51.302	2	4	Target	Win	True
52.302	0.3	Win2	0.8	0.004	Yes	3.279	-0.004	2.0	GoodResponse	1	0.235	n/a	2	4	ButtonPress	Win	True
52.435	0.34	Win2	0.8	n/a	Yes	3.279	n/a	n/a	GoodResponse	1	n/a	n/a	2	4	Blank	Win	True
52.769	1.45	Win2	0.8	n/a	Yes	3.279	n/a	5.0	GoodResponse	1	0.035	51.804	2	4	Feedback	Win	True
54.224	3.279	Win2	0.8	n/a	Yes	3.279	n/a	n/a	GoodResponse	1	0.0	n/a	2	4	ISIslide	Win	True
57.517	0.25	Win2	0.8332999999999999	0.0	Yes	2.783	0.017	n/a	GoodResponse	1	n/a	n/a	3	5	Cue	Win	True
57.768	4.0	Win2	0.8332999999999999	0.0	Yes	2.783	0.001	n/a	GoodResponse	1	n/a	n/a	3	5	Fixation	Win	True
61.763	0.35	Win2	0.8332999999999999	0.004	Yes	2.783	-0.004	2.0	GoodResponse	1	0.218	60.981	3	5	Target	Win	True
61.981	0.3	Win2	0.8332999999999999	0.004	Yes	2.783	-0.004	2.0	GoodResponse	1	0.218	n/a	3	5	ButtonPress	Win	True
62.114	0.35	Win2	0.8332999999999999	n/a	Yes	2.783	n/a	n/a	GoodResponse	1	n/a	n/a	3	5	Blank	Win	True
62.465	1.45	Win2	0.8332999999999999	n/a	Yes	2.783	n/a	5.0	GoodResponse	1	0.047	61.512	3	5	Feedback	Win	True
63.919	2.783	Win2	0.8332999999999999	n/a	Yes	2.783	n/a	n/a	GoodResponse	1	0.0	n/a	3	5	ISIslide	Win	True
66.728	0.25	Lose2	0.8571	0.0	Yes	2.722	0.028	n/a	GoodResponse	0	n/a	n/a	3	6	Cue	AvoidedLoss	True
66.979	3.95	Lose2	0.8571	0.0	Yes	2.722	0.001	n/a	GoodResponse	0	n/a	n/a	3	6	Fixation	AvoidedLoss	True
70.924	0.34	Lose2	0.8571	0.004	Yes	2.722	-0.004	2.0	GoodResponse	0	0.261	70.185	3	6	Target	AvoidedLoss	True
71.185	0.3	Lose2	0.8571	0.004	Yes	2.722	-0.004	2.0	GoodResponse	0	0.261	n/a	3	6	ButtonPress	AvoidedLoss	True
71.275	0.36	Lose2	0.8571	n/a	Yes	2.722	n/a	n/a	GoodResponse	0	n/a	n/a	3	6	Blank	AvoidedLoss	True
71.626	1.45	Lose2	0.8571	n/a	Yes	2.722	n/a	5.0	GoodResponse	0	0.007	70.633	3	6	Feedback	AvoidedLoss	True
73.08	2.722	Lose2	0.8571	n/a	Yes	2.722	n/a	n/a	GoodResponse	0	0.0	n/a	3	6	ISIslide	AvoidedLoss	True
75.822	0.25	Lose2	0.875	0.0	Yes	4.028	0.022	n/a	GoodResponse	0	n/a	n/a	3	7	Cue	AvoidedLoss	True
76.072	4.05	Lose2	0.875	0.001	Yes	4.028	0.0	n/a	GoodResponse	0	n/a	n/a	3	7	Fixation	AvoidedLoss	True
80.118	0.33	Lose2	0.875	0.004	Yes	4.028	-0.004	2.0	GoodResponse	0	0.205	79.323	3	7	Target	AvoidedLoss	True
80.323	0.3	Lose2	0.875	0.004	Yes	4.028	-0.004	2.0	GoodResponse	0	0.205	n/a	3	7	ButtonPress	AvoidedLoss	True
80.452	0.37	Lose2	0.875	n/a	Yes	4.028	n/a	n/a	GoodResponse	0	n/a	n/a	3	7	Blank	AvoidedLoss	True
80.82	1.45	Lose2	0.875	n/a	Yes	4.028	n/a	5.0	GoodResponse	0	0.032	79.852	3	7	Feedback	AvoidedLoss	True
82.274	4.028	Lose2	0.875	n/a	Yes	4.028	n/a	n/a	GoodResponse	0	0.0	n/a	3	7	ISIslide	AvoidedLoss	True
86.32	0.25	Lose2	0.8889	0.0	Yes	3.03	0.02	n/a	GoodResponse	0	n/a	n/a	3	8	Cue	AvoidedLoss	True
86.571	3.95	Lose2	0.8889	0.0	Yes	3.03	0.001	n/a	GoodResponse	0	n/a	n/a	3	8	Fixation	AvoidedLoss	True
90.516	0.32	Lose2	0.8889	0.004	Yes	3.03	-0.004	2.0	GoodResponse	0	0.225	89.741	3	8	Target	AvoidedLoss	True
90.741	0.3	Lose2	0.8889	0.004	Yes	3.03	-0.004	2.0	GoodResponse	0	0.225	n/a	3	8	ButtonPress	AvoidedLoss	True
90.85	0.38	Lose2	0.8889	n/a	Yes	3.03	n/a	n/a	GoodResponse	0	n/a	n/a	3	8	Blank	AvoidedLoss	True
91.218	1.45	Lose2	0.8889	n/a	Yes	3.03	n/a	5.0	GoodResponse	0	0.025	90.243	3	8	Feedback	AvoidedLoss	True
92.672	3.03	Lose2	0.8889	n/a	Yes	3.03	n/a	n/a	GoodResponse	0	0.0	n/a	3	8	ISIslide	AvoidedLoss	True
95.715	0.25	Lose2	0.9	0.0	Yes	3.135	0.015	n/a	GoodResponse	0	n/a	n/a	3	9	Cue	AvoidedLoss	True
95.965	3.95	Lose2	0.9	0.0	Yes	3.135	0.0	n/a	GoodResponse	0	n/a	n/a	3	9	Fixation	AvoidedLoss	True
99.911	0.31	Lose2	0.9	0.004	Yes	3.135	-0.004	2.0	GoodResponse	0	0.212	99.123	3	9	Target	AvoidedLoss	True
100.123	0.3	Lose2	0.9	0.004	Yes	3.135	-0.004	2.0	GoodResponse	0	0.212	n/a	3	9	ButtonPress	AvoidedLoss	True
100.228	0.39	Lose2	0.9	n/a	Yes	3.135	n/a	n/a	GoodResponse	0	n/a	n/a	3	9	Blank	AvoidedLoss	True
100.613	1.45	Lose2	0.9	n/a	Yes	3.135	n/a	5.0	GoodResponse	0	0.044	99.657	3	9	Feedback	AvoidedLoss	True
102.067	3.135	Lose2	0.9	n/a	Yes	3.135	n/a	n/a	GoodResponse	0	0.0	n/a	3	9	ISIslide	AvoidedLoss	True
105.226	0.25	Control	0.8181999999999999	0.001	No	3.274	0.026	n/a	NoResponse	0	n/a	n/a	3	10	Cue	Neutral	False
105.477	4.0	Control	0.8181999999999999	0.0	No	3.274	0.001	n/a	NoResponse	0	n/a	n/a	3	10	Fixation	Neutral	False
109.472	0.3	Control	0.8181999999999999	0.004	No	3.274	-0.004	n/a	NoResponse	0	n/a	n/a	3	10	Target	Neutral	False
109.773	0.4	Control	0.8181999999999999	n/a	No	3.274	n/a	n/a	NoResponse	0	n/a	n/a	3	10	Blank	Neutral	False
110.175	1.45	Control	0.8181999999999999	n/a	No	3.274	n/a	5.0	NoResponse	0	0.043	109.218	3	10	Feedback	Neutral	False
111.629	3.274	Control	0.8181999999999999	n/a	No	3.274	n/a	2.0	NoResponse	0	3.23	n/a	3	10	ISIslide	Neutral	False
114.905	0.25	Lose2	0.8332999999999999	0.001	Yes	2.745	0.005	n/a	GoodResponse	0	n/a	n/a	3	11	Cue	AvoidedLoss	True
115.156	4.05	Lose2	0.8332999999999999	0.0	Yes	2.745	0.001	n/a	GoodResponse	0	n/a	n/a	3	11	Fixation	AvoidedLoss	True
119.202	0.29	Lose2	0.8332999999999999	0.003	Yes	2.745	-0.003	2.0	GoodResponse	0	0.22	118.422	3	11	Target	AvoidedLoss	True
119.422	0.3	Lose2	0.8332999999999999	0.003	Yes	2.745	-0.003	2.0	GoodResponse	0	0.22	n/a	3	11	ButtonPress	AvoidedLoss	True
119.502	0.41	Lose2	0.8332999999999999	n/a	Yes	2.745	n/a	n/a	GoodResponse	0	n/a	n/a	3	11	Blank	AvoidedLoss	True
119.904	1.45	Lose2	0.8332999999999999	n/a	Yes	2.745	n/a	5.0	GoodResponse	0	0.021	118.925	3	11	Feedback	AvoidedLoss	True
121.358	2.745	Lose2	0.8332999999999999	n/a	Yes	2.745	n/a	n/a	GoodResponse	0	0.0	n/a	3	11	ISIslide	AvoidedLoss	True
124.116	0.25	Control	0.8462000000000001	0.0	Yes	2.984	0.016	n/a	GoodResponse	0	n/a	n/a	3	12	Cue	Neutral	True
124.367	3.9	Control	0.8462000000000001	0.0	Yes	2.984	0.001	n/a	GoodResponse	0	n/a	n/a	3	12	Fixation	Neutral	True
128.262	0.28	Control	0.8462000000000001	0.004	Yes	2.984	-0.004	2.0	GoodResponse	0	0.197	127.459	3	12	Target	Neutral	True
128.459	0.3	Control	0.8462000000000001	0.004	Yes	2.984	-0.004	2.0	GoodResponse	0	0.197	n/a	3	12	ButtonPress	Neutral	True
128.546	0.42	Control	0.8462000000000001	n/a	Yes	2.984	n/a	n/a	GoodResponse	0	n/a	n/a	3	12	Blank	Neutral	True
128.964	1.45	Control	0.8462000000000001	n/a	Yes	2.984	n/a	5.0	GoodResponse	0	0.034	127.998	3	12	Feedback	Neutral	True
130.419	2.984	Control	0.8462000000000001	n/a	Yes	2.984	n/a	n/a	GoodResponse	0	0.0	n/a	3	12	ISIslide	Neutral	True
133.428	0.25	Control	0.8571	0.0	Yes	2.772	0.028	n/a	GoodResponse	0	n/a	n/a	3	13	Cue	Neutral	True
133.678	4.0	Control	0.8571	0.0	Yes	2.772	0.0	n/a	GoodResponse	0	n/a	n/a	3	13	Fixation	Neutral	True
137.674	0.27	Control	0.8571	0.004	Yes	2.772	-0.004	2.0	GoodResponse	0	0.231	136.905	3	13	Target	Neutral	True
137.905	0.3	Control	0.8571	0.004	Yes	2.772	-0.004	2.0	GoodResponse	0	0.231	n/a	3	13	ButtonPress	Neutral	True
137.958	0.43	Control	0.8571	n/a	Yes	2.772	n/a	n/a	GoodResponse	0	n/a	n/a	3	13	Blank	Neutral	True
138.376	1.45	Control	0.8571	n/a	Yes	2.772	n/a	5.0	GoodResponse	0	0.037	137.413	3	13	Feedback	Neutral	True
139.83	2.772	Control	0.8571	n/a	Yes	2.772	n/a	n/a	GoodResponse	0	0.0	n/a	3	13	ISIslide	Neutral	True
142.622	0.25	Win2	0.8667	0.0	Yes	2.678	0.022	n/a	GoodResponse	1	n/a	n/a	4	14	Cue	Win	True
142.872	4.1	Win2	0.8667	0.001	Yes	2.678	0.0	n/a	GoodResponse	1	n/a	n/a	4	14	Fixation	Win	True
146.968	0.26	Win2	0.8667	0.004	Yes	2.678	-0.004	2.0	GoodResponse	1	0.243	146.211	4	14	Target	Win	True
147.211	0.3	Win2	0.8667	0.004	Yes	2.678	-0.004	2.0	GoodResponse	1	0.243	n/a	4	14	ButtonPress	Win	True
147.236	0.44	Win2	0.8667	n/a	Yes	2.678	n/a	n/a	GoodResponse	1	n/a	n/a	4	14	Blank	Win	True
147.67	1.45	Win2	0.8667	n/a	Yes	2.678	n/a	5.0	GoodResponse	1	0.011	146.681	4	14	Feedback	Win	True
149.124	2.678	Win2	0.8667	n/a	Yes	2.678	n/a	n/a	GoodResponse	1	0.0	n/a	4	14	ISIslide	Win	True
151.816	0.25	Control	0.875	0.0	Yes	2.984	0.016	n/a	GoodResponse	0	n/a	n/a	4	15	Cue	Neutral	True
152.067	4.0	Control	0.875	0.0	Yes	2.984	0.001	n/a	GoodResponse	0	n/a	n/a	4	15	Fixation	Neutral	True
156.062	0.25	Control	0.875	0.004	Yes	2.984	-0.004	2.0	GoodResponse	0	0.214	155.276	4	15	Target	Neutral	True
156.276	0.3	Control	0.875	0.004	Yes	2.984	-0.004	2.0	GoodResponse	0	0.214	n/a	4	15	ButtonPress	Neutral	True
156.313	0.45	Control	0.875	n/a	Yes	2.984	n/a	n/a	GoodResponse	0	n/a	n/a	4	15	Blank	Neutral	True
156.764	1.45	Control	0.875	n/a	Yes	2.984	n/a	5.0	GoodResponse	0	0.039	155.803	4	15	Feedback	Neutral	True
158.218	2.984	Control	0.875	n/a	Yes	2.984	n/a	n/a	GoodResponse	0	0.0	n/a	4	15	ISIslide	Neutral	True
161.227	0.25	Win2	0.8824	0.0	Yes	2.873	0.027	n/a	GoodResponse	1	n/a	n/a	5	16	Cue	Win	True
161.478	4.0	Win2	0.8824	0.0	Yes	2.873	0.001	n/a	GoodResponse	1	n/a	n/a	5	16	Fixation	Win	True
165.473	0.24	Win2	0.8824	0.004	Yes	2.873	-0.004	2.0	GoodResponse	1	0.225	164.698	5	16	Target	Win	True
165.698	0.3	Win2	0.8824	0.004	Yes	2.873	-0.004	2.0	GoodResponse	1	0.225	n/a	5	16	ButtonPress	Win	True
165.724	0.46	Win2	0.8824	n/a	Yes	2.873	n/a	n/a	GoodResponse	1	n/a	n/a	5	16	Blank	Win	True
166.176	1.45	Win2	0.8824	n/a	Yes	2.873	n/a	5.0	GoodResponse	1	0.042	165.218	5	16	Feedback	Win	True
167.63	2.873	Win2	0.8824	n/a	Yes	2.873	n/a	n/a	GoodResponse	1	0.0	n/a	5	16	ISIslide	Win	True
170.522	0.25	Lose2	0.8332999999999999	0.0	No	2.728	0.022	n/a	LatePress	-1	n/a	n/a	4	17	Cue	Loss	True
170.773	3.95	Lose2	0.8332999999999999	0.0	No	2.728	0.001	n/a	LatePress	-1	n/a	n/a	4	17	Fixation	Loss	True
174.718	0.23	Lose2	0.8332999999999999	0.004	No	2.728	-0.004	2.0	LatePress	-1	0.233	173.951	4	17	Target	Loss	True
174.951	0.3	Lose2	0.8332999999999999	0.004	No	2.728	-0.004	2.0	LatePress	-1	0.233	n/a	4	17	ButtonPress	Loss	True
174.952	0.47	Lose2	0.8332999999999999	n/a	No	2.728	n/a	n/a	LatePress	-1	n/a	n/a	4	17	Blank	Loss	True
175.42	1.45	Lose2	0.8332999999999999	n/a	No	2.728	n/a	5.0	LatePress	-1	0.017	174.437	4	17	Feedback	Loss	True
176.874	2.728	Lose2	0.8332999999999999	n/a	No	2.728	n/a	n/a	LatePress	-1	0.0	n/a	4	17	ISIslide	Loss	True
179.616	0.25	Lose2	0.8421	0.0	Yes	2.734	0.016	n/a	GoodResponse	0	n/a	n/a	4	18	Cue	AvoidedLoss	True
179.867	4.05	Lose2	0.8421	0.0	Yes	2.734	0.001	n/a	GoodResponse	0	n/a	n/a	4	18	Fixation	AvoidedLoss	True
183.912	0.22	Lose2	0.8421	0.004	Yes	2.734	-0.004	2.0	GoodResponse	0	0.133	183.045	4	18	Target	AvoidedLoss	True
184.045	0.3	Lose2	0.8421	0.004	Yes	2.734	-0.004	2.0	GoodResponse	0	0.133	n/a	4	18	ButtonPress	AvoidedLoss	True
184.146	0.48	Lose2	0.8421	n/a	Yes	2.734	n/a	n/a	GoodResponse	0	n/a	n/a	4	18	Blank	AvoidedLoss	True
184.614	1.45	Lose2	0.8421	n/a	Yes	2.734	n/a	5.0	GoodResponse	0	0.042	183.656	4	18	Feedback	AvoidedLoss	True
186.068	2.734	Lose2	0.8421	n/a	Yes	2.734	n/a	n/a	GoodResponse	0	0.0	n/a	4	18	ISIslide	AvoidedLoss	True
188.827	0.25	Control	0.8	0.0	No	2.923	0.027	n/a	NoResponse	0	n/a	n/a	4	19	Cue	Neutral	False
189.077	3.95	Control	0.8	0.0	No	2.923	0.0	n/a	NoResponse	0	n/a	n/a	4	19	Fixation	Neutral	False
193.023	0.21	Control	0.8	0.004	No	2.923	-0.004	n/a	NoResponse	0	n/a	n/a	4	19	Target	Neutral	False
193.24	0.49	Control	0.8	n/a	No	2.923	n/a	n/a	NoResponse	0	n/a	n/a	4	19	Blank	Neutral	False
193.725	1.45	Control	0.8	n/a	No	2.923	n/a	5.0	NoResponse	0	0.005	192.73	4	19	Feedback	Neutral	False
195.179	2.923	Control	0.8	n/a	No	2.923	n/a	n/a	NoResponse	0	0.0	n/a	4	19	ISIslide	Neutral	False
198.121	0.25	Control	0.7619	0.0	No	2.629	0.021	n/a	NoResponse	0	n/a	n/a	4	20	Cue	Neutral	False
198.372	4.05	Control	0.7619	0.0	No	2.629	0.001	n/a	NoResponse	0	n/a	n/a	4	20	Fixation	Neutral	False
202.417	0.2	Control	0.7619	0.004	No	2.629	-0.004	n/a	NoResponse	0	n/a	n/a	4	20	Target	Neutral	False
202.618	0.5	Control	0.7619	n/a	No	2.629	n/a	n/a	NoResponse	0	n/a	n/a	4	20	Blank	Neutral	False
203.119	1.45	Control	0.7619	n/a	No	2.629	n/a	5.0	NoResponse	0	0.026	202.145	4	20	Feedback	Neutral	False
204.574	2.629	Control	0.7619	n/a	No	2.629	n/a	n/a	NoResponse	0	0.0	n/a	4	20	ISIslide	Neutral	False
207.215	0.25	Control	0.7273000000000001	0.0	No	2.785	0.015	n/a	NoResponse	0	n/a	n/a	4	21	Cue	Neutral	False
207.466	4.1	Control	0.7273000000000001	0.0	No	2.785	0.001	n/a	NoResponse	0	n/a	n/a	4	21	Fixation	Neutral	False
211.561	0.19	Control	0.7273000000000001	0.004	No	2.785	-0.004	n/a	NoResponse	0	n/a	n/a	4	21	Target	Neutral	False
211.762	0.51	Control	0.7273000000000001	n/a	No	2.785	n/a	n/a	NoResponse	0	n/a	n/a	4	21	Blank	Neutral	False
212.263	1.45	Control	0.7273000000000001	n/a	No	2.785	n/a	5.0	NoResponse	0	0.006	211.269	4	21	Feedback	Neutral	False
213.718	2.785	Control	0.7273000000000001	n/a	No	2.785	n/a	n/a	NoResponse	0	0.0	n/a	4	21	ISIslide	Neutral	False
216.526	0.25	Control	0.6957	0.0	No	2.774	0.026	n/a	NoResponse	0	n/a	n/a	4	22	Cue	Neutral	True
216.777	4.0	Control	0.6957	0.0	No	2.774	0.001	n/a	NoResponse	0	n/a	n/a	4	22	Fixation	Neutral	True
220.772	0.18	Control	0.6957	0.004	No	2.774	-0.004	2.0	NoResponse	0	0.221	219.993	4	22	Target	Neutral	True
220.956	0.52	Control	0.6957	n/a	No	2.774	n/a	n/a	NoResponse	0	n/a	n/a	4	22	Blank	Neutral	True
220.993	0.3	Control	0.6957	0.004	No	2.774	-0.004	2.0	NoResponse	0	0.221	n/a	4	22	ButtonPress	Neutral	True
221.474	1.45	Control	0.6957	n/a	No	2.774	n/a	5.0	NoResponse	0	0.011	220.485	4	22	Feedback	Neutral	True
222.929	2.774	Control	0.6957	n/a	No	2.774	n/a	n/a	NoResponse	0	0.0	n/a	4	22	ISIslide	Neutral	True
225.72	0.25	Control	0.6667000000000001	0.001	No	2.78	0.02	n/a	NoResponse	0	n/a	n/a	4	23	Cue	Neutral	True
225.971	3.9	Control	0.6667000000000001	0.0	No	2.78	0.001	n/a	NoResponse	0	n/a	n/a	4	23	Fixation	Neutral	True
229.866	0.17	Control	0.6667000000000001	0.004	No	2.78	-0.004	2.0	NoResponse	0	0.223	229.089	4	23	Target	Neutral	True
230.05	0.53	Control	0.6667000000000001	n/a	No	2.78	n/a	n/a	NoResponse	0	n/a	n/a	4	23	Blank	Neutral	True
230.089	0.3	Control	0.6667000000000001	0.004	No	2.78	-0.004	2.0	NoResponse	0	0.223	n/a	4	23	ButtonPress	Neutral	True
230.568	1.45	Control	0.6667000000000001	n/a	No	2.78	n/a	5.0	NoResponse	0	0.039	229.607	4	23	Feedback	Neutral	True
232.023	2.78	Control	0.6667000000000001	n/a	No	2.78	n/a	n/a	NoResponse	0	0.0	n/a	4	23	ISIslide	Neutral	True
234.814	0.25	Win2	0.64	0.0	No	3.136	0.014	n/a	NoResponse	0	n/a	n/a	4	24	Cue	MissedWin	True
235.065	3.95	Win2	0.64	0.0	No	3.136	0.001	n/a	NoResponse	0	n/a	n/a	4	24	Fixation	MissedWin	True
239.01	0.16	Win2	0.64	0.004	No	3.136	-0.004	2.0	NoResponse	0	0.233	238.243	4	24	Target	MissedWin	True
239.177	0.54	Win2	0.64	n/a	No	3.136	n/a	n/a	NoResponse	0	n/a	n/a	4	24	Blank	MissedWin	True
239.243	0.3	Win2	0.64	0.004	No	3.136	-0.004	2.0	NoResponse	0	0.233	n/a	4	24	ButtonPress	MissedWin	True
239.712	1.45	Win2	0.64	n/a	No	3.136	n/a	5.0	NoResponse	0	0.017	238.729	4	24	Feedback	MissedWin	True
241.167	3.136	Win2	0.64	n/a	No	3.136	n/a	n/a	NoResponse	0	0.0	n/a	4	24	ISIslide	MissedWin	True
244.326	0.25	Win2	0.6154	0.0	No	3.074	0.026	n/a	NoResponse	0	n/a	n/a	4	25	Cue	MissedWin	True
244.577	4.0	Win2	0.6154	0.0	No	3.074	0.001	n/a	NoResponse	0	n/a	n/a	4	25	Fixation	MissedWin	True
248.572	0.17	Win2	0.6154	0.004	No	3.074	-0.004	2.0	NoResponse	0	0.216	247.788	4	25	Target	MissedWin	True
248.756	0.53	Win2	0.6154	n/a	No	3.074	n/a	n/a	NoResponse	0	n/a	n/a	4	25	Blank	MissedWin	True
248.788	0.3	Win2	0.6154	0.004	No	3.074	-0.004	2.0	NoResponse	0	0.216	n/a	4	25	ButtonPress	MissedWin	True
249.274	1.45	Win2	0.6154	n/a	No	3.074	n/a	5.0	NoResponse	0	0.016	248.29	4	25	Feedback	MissedWin	True
250.729	3.074	Win2	0.6154	n/a	No	3.074	n/a	n/a	NoResponse	0	0.0	n/a	4	25	ISIslide	MissedWin	True
253.821	0.25	Win2	0.5926	0.0	No	2.929	0.021	n/a	NoResponse	0	n/a	n/a	4	26	Cue	MissedWin	True
254.072	3.95	Win2	0.5926	0.0	No	2.929	0.001	n/a	NoResponse	0	n/a	n/a	4	26	Fixation	MissedWin	True
258.017	0.18	Win2	0.5926	0.004	No	2.929	-0.004	2.0	NoResponse	0	0.205	257.222	4	26	Target	MissedWin	True
258.201	0.52	Win2	0.5926	n/a	No	2.929	n/a	n/a	NoResponse	0	n/a	n/a	4	26	Blank	MissedWin	True
258.222	0.3	Win2	0.5926	0.004	No	2.929	-0.004	2.0	NoResponse	0	0.205	n/a	4	26	ButtonPress	MissedWin	True
258.719	1.45	Win2	0.5926	n/a	No	2.929	n/a	5.0	NoResponse	0	0.035	257.754	4	26	Feedback	MissedWin	True
260.174	2.929	Win2	0.5926	n/a	No	2.929	n/a	n/a	NoResponse	0	0.0	n/a	4	26	ISIslide	MissedWin	True
263.116	0.25	Lose2	0.5714	0.0	No	2.834	0.016	n/a	NoResponse	-1	n/a	n/a	3	27	Cue	Loss	False
263.366	4.05	Lose2	0.5714	0.001	No	2.834	0.0	n/a	NoResponse	-1	n/a	n/a	3	27	Fixation	Loss	False
267.412	0.19	Lose2	0.5714	0.004	No	2.834	-0.004	n/a	NoResponse	-1	n/a	n/a	3	27	Target	Loss	False
267.613	0.51	Lose2	0.5714	n/a	No	2.834	n/a	n/a	NoResponse	-1	n/a	n/a	3	27	Blank	Loss	False
268.114	1.45	Lose2	0.5714	n/a	No	2.834	n/a	5.0	NoResponse	-1	0.006	267.12	3	27	Feedback	Loss	False
269.568	2.834	Lose2	0.5714	n/a	No	2.834	n/a	n/a	NoResponse	-1	0.0	n/a	3	27	ISIslide	Loss	False
272.427	0.25	Control	0.5517	0.0	No	2.823	0.027	n/a	LatePress	0	n/a	n/a	3	28	Cue	Neutral	True
272.678	4.05	Control	0.5517	0.0	No	2.823	0.001	n/a	LatePress	0	n/a	n/a	3	28	Fixation	Neutral	True
276.723	0.2	Control	0.5517	0.004	No	2.823	-0.004	2.0	LatePress	0	0.2	275.923	3	28	Target	Neutral	True
276.923	0.3	Control	0.5517	0.004	No	2.823	-0.004	2.0	LatePress	0	0.2	n/a	3	28	ButtonPress	Neutral	True
276.924	0.5	Control	0.5517	n/a	No	2.823	n/a	n/a	LatePress	0	n/a	n/a	3	28	Blank	Neutral	True
277.425	1.45	Control	0.5517	n/a	No	2.823	n/a	5.0	LatePress	0	0.011	276.436	3	28	Feedback	Neutral	True
278.88	2.823	Control	0.5517	n/a	No	2.823	n/a	n/a	LatePress	0	0.0	n/a	3	28	ISIslide	Neutral	True
281.721	0.25	Lose2	0.5333	0.0	No	2.829	0.021	n/a	NoResponse	-1	n/a	n/a	2	29	Cue	Loss	True
281.972	3.95	Lose2	0.5333	0.0	No	2.829	0.001	n/a	NoResponse	-1	n/a	n/a	2	29	Fixation	Loss	True
285.917	0.21	Lose2	0.5333	0.004	No	2.829	-0.004	2.0	NoResponse	-1	0.258	285.175	2	29	Target	Loss	True
286.135	0.49	Lose2	0.5333	n/a	No	2.829	n/a	n/a	NoResponse	-1	n/a	n/a	2	29	Blank	Loss	True
286.175	0.3	Lose2	0.5333	0.004	No	2.829	-0.004	2.0	NoResponse	-1	0.258	n/a	2	29	ButtonPress	Loss	True
286.619	1.45	Lose2	0.5333	n/a	No	2.829	n/a	5.0	NoResponse	-1	0.037	285.656	2	29	Feedback	Loss	True
288.074	2.829	Lose2	0.5333	n/a	No	2.829	n/a	n/a	NoResponse	-1	0.0	n/a	2	29	ISIslide	Loss	True
290.916	0.25	Win2	0.5484	0.0	Yes	2.784	0.016	n/a	GoodResponse	1	n/a	n/a	3	30	Cue	Win	True
291.166	3.9	Win2	0.5484	0.0	Yes	2.784	0.0	n/a	GoodResponse	1	n/a	n/a	3	30	Fixation	Win	True
295.078	0.22	Win2	0.5484	0.0	Yes	2.784	0.012	2.0	GoodResponse	1	0.207	294.285	3	30	Target	Win	True
295.285	0.3	Win2	0.5484	0.0	Yes	2.784	0.012	2.0	GoodResponse	1	0.207	n/a	3	30	ButtonPress	Win	True
295.295	0.48	Win2	0.5484	n/a	Yes	2.784	n/a	n/a	GoodResponse	1	n/a	n/a	3	30	Blank	Win	True
295.763	1.45	Win2	0.5484	n/a	Yes	2.784	n/a	5.0	GoodResponse	1	0.015	294.778	3	30	Feedback	Win	True
297.218	2.784	Win2	0.5484	n/a	Yes	2.784	n/a	n/a	GoodResponse	1	0.0	n/a	3	30	ISIslide	Win	True
300.026	0.25	Lose2	0.5312	0.0	No	2.824	0.026	n/a	NoResponse	-1	n/a	n/a	2	31	Cue	Loss	True
300.277	4.05	Lose2	0.5312	0.0	No	2.824	0.001	n/a	NoResponse	-1	n/a	n/a	2	31	Fixation	Loss	True
304.322	0.23	Lose2	0.5312	0.004	No	2.824	-0.004	2.0	NoResponse	-1	0.245	303.567	2	31	Target	Loss	True
304.556	0.47	Lose2	0.5312	n/a	No	2.824	n/a	n/a	NoResponse	-1	n/a	n/a	2	31	Blank	Loss	True
304.567	0.3	Lose2	0.5312	0.004	No	2.824	-0.004	2.0	NoResponse	-1	0.245	n/a	2	31	ButtonPress	Loss	True
305.024	1.45	Lose2	0.5312	n/a	No	2.824	n/a	5.0	NoResponse	-1	0.022	304.046	2	31	Feedback	Loss	True
306.479	2.824	Lose2	0.5312	n/a	No	2.824	n/a	n/a	NoResponse	-1	0.0	n/a	2	31	ISIslide	Loss	True
309.321	0.25	Lose2	0.5152	0.0	No	2.629	0.021	n/a	NoResponse	-1	n/a	n/a	1	32	Cue	Loss	True
309.571	4.15	Lose2	0.5152	0.0	No	2.629	0.0	n/a	NoResponse	-1	n/a	n/a	1	32	Fixation	Loss	True
313.717	0.24	Lose2	0.5152	0.004	No	2.629	-0.004	2.0	NoResponse	-1	0.44	313.157	1	32	Target	Loss	True
313.968	0.46	Lose2	0.5152	n/a	No	2.629	n/a	n/a	NoResponse	-1	n/a	n/a	1	32	Blank	Loss	True
314.157	0.3	Lose2	0.5152	0.004	No	2.629	-0.004	2.0	NoResponse	-1	0.44	n/a	1	32	ButtonPress	Loss	True
314.419	1.45	Lose2	0.5152	n/a	No	2.629	n/a	5.0	NoResponse	-1	0.042	313.461	1	32	Feedback	Loss	True
315.874	2.629	Lose2	0.5152	n/a	No	2.629	n/a	n/a	NoResponse	-1	0.0	n/a	1	32	ISIslide	Loss	True
318.515	0.25	Win2	0.5	0.0	No	2.685	0.015	n/a	NoResponse	0	n/a	n/a	1	33	Cue	MissedWin	False
318.766	4.0	Win2	0.5	0.0	No	2.685	0.001	n/a	NoResponse	0	n/a	n/a	1	33	Fixation	MissedWin	False
322.761	0.25	Win2	0.5	0.004	No	2.685	-0.004	n/a	NoResponse	0	n/a	n/a	1	33	Target	MissedWin	False
323.012	0.45	Win2	0.5	n/a	No	2.685	n/a	n/a	NoResponse	0	n/a	n/a	1	33	Blank	MissedWin	False
323.463	1.45	Win2	0.5	n/a	No	2.685	n/a	5.0	NoResponse	0	0.022	322.485	1	33	Feedback	MissedWin	False
324.917	2.685	Win2	0.5	n/a	No	2.685	n/a	2.0	NoResponse	0	0.844	n/a	1	33	ISIslide	MissedWin	False
327.609	0.25	Lose2	0.5143	0.0	Yes	2.641	0.009	n/a	GoodResponse	0	n/a	n/a	1	34	Cue	AvoidedLoss	True
327.86	4.05	Lose2	0.5143	0.0	Yes	2.641	0.001	n/a	GoodResponse	0	n/a	n/a	1	34	Fixation	AvoidedLoss	True
331.905	0.26	Lose2	0.5143	0.004	Yes	2.641	-0.004	2.0	GoodResponse	0	0.194	331.099	1	34	Target	AvoidedLoss	True
332.099	0.3	Lose2	0.5143	0.004	Yes	2.641	-0.004	2.0	GoodResponse	0	0.194	n/a	1	34	ButtonPress	AvoidedLoss	True
332.172	0.44	Lose2	0.5143	n/a	Yes	2.641	n/a	n/a	GoodResponse	0	n/a	n/a	1	34	Blank	AvoidedLoss	True
332.607	1.45	Lose2	0.5143	n/a	Yes	2.641	n/a	5.0	GoodResponse	0	0.0	331.607	1	34	Feedback	AvoidedLoss	True
334.061	2.641	Lose2	0.5143	n/a	Yes	2.641	n/a	n/a	GoodResponse	0	0.0	n/a	1	34	ISIslide	AvoidedLoss	True
336.719	0.25	Lose2	0.5278	0.0	Yes	2.681	0.019	n/a	GoodResponse	0	n/a	n/a	1	35	Cue	AvoidedLoss	True
336.97	4.0	Lose2	0.5278	0.0	Yes	2.681	0.001	n/a	GoodResponse	0	n/a	n/a	1	35	Fixation	AvoidedLoss	True
340.965	0.27	Lose2	0.5278	0.004	Yes	2.681	-0.004	2.0	GoodResponse	0	0.195	340.16	1	35	Target	AvoidedLoss	True
341.16	0.3	Lose2	0.5278	0.004	Yes	2.681	-0.004	2.0	GoodResponse	0	0.195	n/a	1	35	ButtonPress	AvoidedLoss	True
341.25	0.43	Lose2	0.5278	n/a	Yes	2.681	n/a	n/a	GoodResponse	0	n/a	n/a	1	35	Blank	AvoidedLoss	True
341.668	1.45	Lose2	0.5278	n/a	Yes	2.681	n/a	5.0	GoodResponse	0	0.012	340.68	1	35	Feedback	AvoidedLoss	True
343.122	2.681	Lose2	0.5278	n/a	Yes	2.681	n/a	n/a	GoodResponse	0	0.0	n/a	1	35	ISIslide	AvoidedLoss	True
345.813	0.25	Control	0.5405	0.0	Yes	2.687	0.013	n/a	GoodResponse	0	n/a	n/a	1	36	Cue	Neutral	True
346.064	4.0	Control	0.5405	0.0	Yes	2.687	0.001	n/a	GoodResponse	0	n/a	n/a	1	36	Fixation	Neutral	True
350.059	0.28	Control	0.5405	0.004	Yes	2.687	-0.004	2.0	GoodResponse	0	0.205	349.264	1	36	Target	Neutral	True
350.264	0.3	Control	0.5405	0.004	Yes	2.687	-0.004	2.0	GoodResponse	0	0.205	n/a	1	36	ButtonPress	Neutral	True
350.343	0.42	Control	0.5405	n/a	Yes	2.687	n/a	n/a	GoodResponse	0	n/a	n/a	1	36	Blank	Neutral	True
350.761	1.45	Control	0.5405	n/a	Yes	2.687	n/a	5.0	GoodResponse	0	0.041	349.802	1	36	Feedback	Neutral	True
352.216	2.687	Control	0.5405	n/a	Yes	2.687	n/a	n/a	GoodResponse	0	0.0	n/a	1	36	ISIslide	Neutral	True
354.924	0.25	Win2	0.5526	0.0	Yes	2.876	0.024	n/a	GoodResponse	1	n/a	n/a	2	37	Cue	Win	True
355.175	4.0	Win2	0.5526	0.0	Yes	2.876	0.001	n/a	GoodResponse	1	n/a	n/a	2	37	Fixation	Win	True
359.17	0.29	Win2	0.5526	0.004	Yes	2.876	-0.004	2.0	GoodResponse	1	0.195	358.365	2	37	Target	Win	True
359.365	0.3	Win2	0.5526	0.004	Yes	2.876	-0.004	2.0	GoodResponse	1	0.195	n/a	2	37	ButtonPress	Win	True
359.471	0.41	Win2	0.5526	n/a	Yes	2.876	n/a	n/a	GoodResponse	1	n/a	n/a	2	37	Blank	Win	True
359.872	1.45	Win2	0.5526	n/a	Yes	2.876	n/a	5.0	GoodResponse	1	0.005	358.877	2	37	Feedback	Win	True
361.326	2.876	Win2	0.5526	n/a	Yes	2.876	n/a	n/a	GoodResponse	1	0.0	n/a	2	37	ISIslide	Win	True
364.218	0.25	Lose2	0.5385	0.0	No	2.832	0.018	n/a	NoResponse	-1	n/a	n/a	1	38	Cue	Loss	False
364.469	3.95	Lose2	0.5385	0.0	No	2.832	0.001	n/a	NoResponse	-1	n/a	n/a	1	38	Fixation	Loss	False
368.414	0.3	Lose2	0.5385	0.004	No	2.832	-0.004	n/a	NoResponse	-1	n/a	n/a	1	38	Target	Loss	False
368.715	0.4	Lose2	0.5385	n/a	No	2.832	n/a	n/a	NoResponse	-1	n/a	n/a	1	38	Blank	Loss	False
369.116	1.45	Lose2	0.5385	n/a	No	2.832	n/a	5.0	NoResponse	-1	0.028	368.144	1	38	Feedback	Loss	False
370.571	2.832	Lose2	0.5385	n/a	No	2.832	n/a	n/a	NoResponse	-1	0.0	n/a	1	38	ISIslide	Loss	False
373.429	0.25	Win2	0.55	0.0	Yes	2.971	0.029	n/a	GoodResponse	1	n/a	n/a	2	39	Cue	Win	True
373.68	4.1	Win2	0.55	0.0	Yes	2.971	0.001	n/a	GoodResponse	1	n/a	n/a	2	39	Fixation	Win	True
377.776	0.31	Win2	0.55	0.003	Yes	2.971	-0.003	2.0	GoodResponse	1	0.221	376.997	2	39	Target	Win	True
377.997	0.3	Win2	0.55	0.003	Yes	2.971	-0.003	2.0	GoodResponse	1	0.221	n/a	2	39	ButtonPress	Win	True
378.093	0.39	Win2	0.55	n/a	Yes	2.971	n/a	n/a	GoodResponse	1	n/a	n/a	2	39	Blank	Win	True
378.478	1.45	Win2	0.55	n/a	Yes	2.971	n/a	5.0	GoodResponse	1	0.031	377.509	2	39	Feedback	Win	True
379.932	2.971	Win2	0.55	n/a	Yes	2.971	n/a	n/a	GoodResponse	1	0.0	n/a	2	39	ISIslide	Win	True
382.924	0.25	Win2	0.5366	0.0	No	2.726	0.024	n/a	NoResponse	0	n/a	n/a	2	40	Cue	MissedWin	True
383.175	3.95	Win2	0.5366	0.0	No	2.726	0.001	n/a	NoResponse	0	n/a	n/a	2	40	Fixation	MissedWin	True
387.12	0.32	Win2	0.5366	0.004	No	2.726	-0.004	2.0	NoResponse	0	0.436	386.556	2	40	Target	MissedWin	True
387.455	0.38	Win2	0.5366	n/a	No	2.726	n/a	n/a	NoResponse	0	n/a	n/a	2	40	Blank	MissedWin	True
387.556	0.3	Win2	0.5366	0.004	No	2.726	-0.004	2.0	NoResponse	0	0.436	n/a	2	40	ButtonPress	MissedWin	True
387.822	1.45	Win2	0.5366	n/a	No	2.726	n/a	5.0	NoResponse	0	0.005	386.827	2	40	Feedback	MissedWin	True
389.277	2.726	Win2	0.5366	n/a	No	2.726	n/a	n/a	NoResponse	0	0.0	n/a	2	40	ISIslide	MissedWin	True
392.018	0.25	Win2	0.5238	0.0	No	2.782	0.018	n/a	NoResponse	0	n/a	n/a	2	41	Cue	MissedWin	False
392.269	3.9	Win2	0.5238	0.0	No	2.782	0.001	n/a	NoResponse	0	n/a	n/a	2	41	Fixation	MissedWin	False
396.164	0.33	Win2	0.5238	0.004	No	2.782	-0.004	n/a	NoResponse	0	n/a	n/a	2	41	Target	MissedWin	False
396.498	0.37	Win2	0.5238	n/a	No	2.782	n/a	n/a	NoResponse	0	n/a	n/a	2	41	Blank	MissedWin	False
396.866	1.45	Win2	0.5238	n/a	No	2.782	n/a	5.0	NoResponse	0	0.033	395.899	2	41	Feedback	MissedWin	False
398.32	2.782	Win2	0.5238	n/a	No	2.782	n/a	n/a	NoResponse	0	0.0	n/a	2	41	ISIslide	MissedWin	False
401.129	0.25	Control	0.5349	0.0	Yes	2.921	0.029	n/a	GoodResponse	0	n/a	n/a	2	42	Cue	Neutral	True
401.38	3.85	Control	0.5349	0.0	Yes	2.921	0.001	n/a	GoodResponse	0	n/a	n/a	2	42	Fixation	Neutral	True
405.241	0.34	Control	0.5349	0.0	Yes	2.921	0.012	2.0	GoodResponse	0	0.239	404.48	2	42	Target	Neutral	True
405.48	0.3	Control	0.5349	0.0	Yes	2.921	0.012	2.0	GoodResponse	0	0.239	n/a	2	42	ButtonPress	Neutral	True
405.575	0.36	Control	0.5349	n/a	Yes	2.921	n/a	n/a	GoodResponse	0	n/a	n/a	2	42	Blank	Neutral	True
405.927	1.45	Control	0.5349	n/a	Yes	2.921	n/a	5.0	GoodResponse	0	0.045	404.972	2	42	Feedback	Neutral	True
407.381	2.921	Control	0.5349	n/a	Yes	2.921	n/a	n/a	GoodResponse	0	0.0	n/a	2	42	ISIslide	Neutral	True
410.323	0.25	Win2	0.5455	0.0	Yes	3.177	0.023	n/a	GoodResponse	1	n/a	n/a	3	43	Cue	Win	True
410.574	4.0	Win2	0.5455	0.0	Yes	3.177	0.001	n/a	GoodResponse	1	n/a	n/a	3	43	Fixation	Win	True
414.569	0.35	Win2	0.5455	0.004	Yes	3.177	-0.004	2.0	GoodResponse	1	0.207	413.776	3	43	Target	Win	True
414.776	0.3	Win2	0.5455	0.004	Yes	3.177	-0.004	2.0	GoodResponse	1	0.207	n/a	3	43	ButtonPress	Win	True
414.92	0.35	Win2	0.5455	n/a	Yes	3.177	n/a	n/a	GoodResponse	1	n/a	n/a	3	43	Blank	Win	True
415.271	1.45	Win2	0.5455	n/a	Yes	3.177	n/a	5.0	GoodResponse	1	0.019	414.29	3	43	Feedback	Win	True
416.726	3.177	Win2	0.5455	n/a	Yes	3.177	n/a	n/a	GoodResponse	1	0.0	n/a	3	43	ISIslide	Win	True
419.918	0.25	Win2	0.5556	0.0	Yes	2.982	0.018	n/a	GoodResponse	1	n/a	n/a	4	44	Cue	Win	True
420.169	4.0	Win2	0.5556	0.0	Yes	2.982	0.001	n/a	GoodResponse	1	n/a	n/a	4	44	Fixation	Win	True
424.164	0.36	Win2	0.5556	0.004	Yes	2.982	-0.004	2.0	GoodResponse	1	0.196	423.36	4	44	Target	Win	True
424.36	0.3	Win2	0.5556	0.004	Yes	2.982	-0.004	2.0	GoodResponse	1	0.196	n/a	4	44	ButtonPress	Win	True
424.532	0.34	Win2	0.5556	n/a	Yes	2.982	n/a	n/a	GoodResponse	1	n/a	n/a	4	44	Blank	Win	True
424.867	1.45	Win2	0.5556	n/a	Yes	2.982	n/a	5.0	GoodResponse	1	0.031	423.898	4	44	Feedback	Win	True
426.321	2.982	Win2	0.5556	n/a	Yes	2.982	n/a	n/a	GoodResponse	1	0.0	n/a	4	44	ISIslide	Win	True
429.313	0.25	Control	0.5652	0.0	Yes	2.887	0.013	n/a	GoodResponse	0	n/a	n/a	4	45	Cue	Neutral	True
429.564	4.1	Control	0.5652	0.0	Yes	2.887	0.001	n/a	GoodResponse	0	n/a	n/a	4	45	Fixation	Neutral	True
433.66	0.37	Control	0.5652	0.003	Yes	2.887	-0.003	2.0	GoodResponse	0	0.21	432.87	4	45	Target	Neutral	True
433.87	0.3	Control	0.5652	0.003	Yes	2.887	-0.003	2.0	GoodResponse	0	0.21	n/a	4	45	ButtonPress	Neutral	True
434.044	0.33	Control	0.5652	n/a	Yes	2.887	n/a	n/a	GoodResponse	0	n/a	n/a	4	45	Blank	Neutral	True
434.362	1.45	Control	0.5652	n/a	Yes	2.887	n/a	5.0	GoodResponse	0	0.0	433.362	4	45	Feedback	Neutral	True
435.816	2.887	Control	0.5652	n/a	Yes	2.887	n/a	n/a	GoodResponse	0	0.0	n/a	4	45	ISIslide	Neutral	True
438.725	0.25	Lose2	0.5745	0.0	Yes	3.375	0.025	n/a	GoodResponse	0	n/a	n/a	4	46	Cue	AvoidedLoss	True
438.975	4.0	Lose2	0.5745	0.001	Yes	3.375	0.0	n/a	GoodResponse	0	n/a	n/a	4	46	Fixation	AvoidedLoss	True
442.971	0.38	Lose2	0.5745	0.004	Yes	3.375	-0.004	2.0	GoodResponse	0	0.203	442.174	4	46	Target	AvoidedLoss	True
443.174	0.3	Lose2	0.5745	0.004	Yes	3.375	-0.004	2.0	GoodResponse	0	0.203	n/a	4	46	ButtonPress	AvoidedLoss	True
443.355	0.32	Lose2	0.5745	n/a	Yes	3.375	n/a	n/a	GoodResponse	0	n/a	n/a	4	46	Blank	AvoidedLoss	True
443.673	1.45	Lose2	0.5745	n/a	Yes	3.375	n/a	5.0	GoodResponse	0	0.006	442.679	4	46	Feedback	AvoidedLoss	True
445.127	3.375	Lose2	0.5745	n/a	Yes	3.375	n/a	n/a	GoodResponse	0	0.0	n/a	4	46	ISIslide	AvoidedLoss	True
448.521	0.25	Lose2	0.5832999999999999	0.0	Yes	2.679	0.021	n/a	GoodResponse	0	n/a	n/a	4	47	Cue	AvoidedLoss	True
448.771	4.0	Lose2	0.5832999999999999	0.0	Yes	2.679	0.0	n/a	GoodResponse	0	n/a	n/a	4	47	Fixation	AvoidedLoss	True
452.767	0.39	Lose2	0.5832999999999999	0.004	Yes	2.679	-0.004	2.0	GoodResponse	0	0.199	451.966	4	47	Target	AvoidedLoss	True
452.966	0.3	Lose2	0.5832999999999999	0.004	Yes	2.679	-0.004	2.0	GoodResponse	0	0.199	n/a	4	47	ButtonPress	AvoidedLoss	True
453.168	0.31	Lose2	0.5832999999999999	n/a	Yes	2.679	n/a	n/a	GoodResponse	0	n/a	n/a	4	47	Blank	AvoidedLoss	True
453.469	1.45	Lose2	0.5832999999999999	n/a	Yes	2.679	n/a	5.0	GoodResponse	0	0.015	452.484	4	47	Feedback	AvoidedLoss	True
454.923	2.679	Lose2	0.5832999999999999	n/a	Yes	2.679	n/a	n/a	GoodResponse	0	0.0	n/a	4	47	ISIslide	AvoidedLoss	True
457.615	0.25	Lose2	0.5918	0.0	Yes	3.035	0.015	n/a	GoodResponse	0	n/a	n/a	4	48	Cue	AvoidedLoss	True
457.865	3.95	Lose2	0.5918	0.0	Yes	3.035	0.0	n/a	GoodResponse	0	n/a	n/a	4	48	Fixation	AvoidedLoss	True
461.81	0.4	Lose2	0.5918	0.005	Yes	3.035	-0.005	2.0	GoodResponse	0	0.231	461.041	4	48	Target	AvoidedLoss	True
462.041	0.3	Lose2	0.5918	0.005	Yes	3.035	-0.005	2.0	GoodResponse	0	0.231	n/a	4	48	ButtonPress	AvoidedLoss	True
462.212	0.3	Lose2	0.5918	n/a	Yes	3.035	n/a	n/a	GoodResponse	0	n/a	n/a	4	48	Blank	AvoidedLoss	True
462.513	1.45	Lose2	0.5918	n/a	Yes	3.035	n/a	5.0	GoodResponse	0	0.044	461.557	4	48	Feedback	AvoidedLoss	True
463.967	3.035	Lose2	0.5918	n/a	Yes	3.035	n/a	n/a	GoodResponse	0	0.0	n/a	4	48	ISIslide	AvoidedLoss	True
467.026	0.25	Control	0.6	0.0	Yes	2.874	0.026	n/a	GoodResponse	0	n/a	n/a	4	49	Cue	Neutral	True
467.277	4.0	Control	0.6	0.0	Yes	2.874	0.001	n/a	GoodResponse	0	n/a	n/a	4	49	Fixation	Neutral	True
471.272	0.41	Control	0.6	0.004	Yes	2.874	-0.004	2.0	GoodResponse	0	0.2	470.472	4	49	Target	Neutral	True
471.472	0.3	Control	0.6	0.004	Yes	2.874	-0.004	2.0	GoodResponse	0	0.2	n/a	4	49	ButtonPress	Neutral	True
471.69	0.29	Control	0.6	n/a	Yes	2.874	n/a	n/a	GoodResponse	0	n/a	n/a	4	49	Blank	Neutral	True
471.974	1.45	Control	0.6	n/a	Yes	2.874	n/a	5.0	GoodResponse	0	0.047	471.021	4	49	Feedback	Neutral	True
473.429	2.874	Control	0.6	n/a	Yes	2.874	n/a	n/a	GoodResponse	0	0.0	n/a	4	49	ISIslide	Neutral	True
476.321	0.25	Control	0.5882000000000001	0.0	No	2.779	0.021	n/a	NoResponse	0	n/a	n/a	4	50	Cue	Neutral	False
476.571	4.0	Control	0.5882000000000001	0.0	No	2.779	0.0	n/a	NoResponse	0	n/a	n/a	4	50	Fixation	Neutral	False
480.567	0.42	Control	0.5882000000000001	0.004	No	2.779	-0.004	n/a	NoResponse	0	n/a	n/a	4	50	Target	Neutral	False
481.001	0.28	Control	0.5882000000000001	n/a	No	2.779	n/a	n/a	NoResponse	0	n/a	n/a	4	50	Blank	Neutral	False
481.269	1.45	Control	0.5882000000000001	n/a	No	2.779	n/a	5.0	NoResponse	0	0.019	480.288	4	50	Feedback	Neutral	False
482.723	2.779	Control	0.5882000000000001	n/a	No	2.779	n/a	n/a	NoResponse	0	0.0	n/a	4	50	ISIslide	Neutral	False
485.515	0.25	Control	0.5962	0.0	Yes	2.735	0.015	n/a	GoodResponse	0	n/a	n/a	4	51	Cue	Neutral	True
485.766	3.95	Control	0.5962	0.0	Yes	2.735	0.001	n/a	GoodResponse	0	n/a	n/a	4	51	Fixation	Neutral	True
489.711	0.43	Control	0.5962	0.004	Yes	2.735	-0.004	2.0	GoodResponse	0	0.285	488.996	4	51	Target	Neutral	True
489.996	0.3	Control	0.5962	0.004	Yes	2.735	-0.004	2.0	GoodResponse	0	0.285	n/a	4	51	ButtonPress	Neutral	True
490.145	0.27	Control	0.5962	n/a	Yes	2.735	n/a	n/a	GoodResponse	0	n/a	n/a	4	51	Blank	Neutral	True
490.413	1.45	Control	0.5962	n/a	Yes	2.735	n/a	5.0	GoodResponse	0	0.046	489.459	4	51	Feedback	Neutral	True
491.867	2.735	Control	0.5962	n/a	Yes	2.735	n/a	n/a	GoodResponse	0	0.0	n/a	4	51	ISIslide	Neutral	True
494.625	0.25	Control	0.6038	0.0	Yes	2.625	0.025	n/a	GoodResponse	0	n/a	n/a	4	52	Cue	Neutral	True
494.876	4.05	Control	0.6038	0.0	Yes	2.625	0.001	n/a	GoodResponse	0	n/a	n/a	4	52	Fixation	Neutral	True
498.922	0.44	Control	0.6038	0.003	Yes	2.625	-0.003	2.0	GoodResponse	0	0.286	498.208	4	52	Target	Neutral	True
499.208	0.3	Control	0.6038	0.003	Yes	2.625	-0.003	2.0	GoodResponse	0	0.286	n/a	4	52	ButtonPress	Neutral	True
499.373	0.26	Control	0.6038	n/a	Yes	2.625	n/a	n/a	GoodResponse	0	n/a	n/a	4	52	Blank	Neutral	True
499.624	1.45	Control	0.6038	n/a	Yes	2.625	n/a	5.0	GoodResponse	0	0.006	498.63	4	52	Feedback	Neutral	True
501.078	2.625	Control	0.6038	n/a	Yes	2.625	n/a	n/a	GoodResponse	0	0.0	n/a	4	52	ISIslide	Neutral	True
503.719	0.25	Win2	0.6111	0.0	Yes	2.931	0.019	n/a	GoodResponse	1	n/a	n/a	5	53	Cue	Win	True
503.97	4.05	Win2	0.6111	0.0	Yes	2.931	0.001	n/a	GoodResponse	1	n/a	n/a	5	53	Fixation	Win	True
508.015	0.45	Win2	0.6111	0.004	Yes	2.931	-0.004	2.0	GoodResponse	1	0.2	507.215	5	53	Target	Win	True
508.215	0.3	Win2	0.6111	0.004	Yes	2.931	-0.004	2.0	GoodResponse	1	0.2	n/a	5	53	ButtonPress	Win	True
508.467	0.25	Win2	0.6111	n/a	Yes	2.931	n/a	n/a	GoodResponse	1	n/a	n/a	5	53	Blank	Win	True
508.718	1.45	Win2	0.6111	n/a	Yes	2.931	n/a	5.0	GoodResponse	1	0.034	507.752	5	53	Feedback	Win	True
510.172	2.931	Win2	0.6111	n/a	Yes	2.931	n/a	n/a	GoodResponse	1	0.0	n/a	5	53	ISIslide	Win	True
513.114	0.25	Win2	0.6182	0.0	Yes	2.736	0.014	n/a	GoodResponse	1	n/a	n/a	6	54	Cue	Win	True
513.365	3.95	Win2	0.6182	0.0	Yes	2.736	0.001	n/a	GoodResponse	1	n/a	n/a	6	54	Fixation	Win	True
517.31	0.46	Win2	0.6182	0.004	Yes	2.736	-0.004	2.0	GoodResponse	1	0.191	516.501	6	54	Target	Win	True
517.501	0.3	Win2	0.6182	0.004	Yes	2.736	-0.004	2.0	GoodResponse	1	0.191	n/a	6	54	ButtonPress	Win	True
517.778	0.24	Win2	0.6182	n/a	Yes	2.736	n/a	n/a	GoodResponse	1	n/a	n/a	6	54	Blank	Win	True
518.012	1.45	Win2	0.6182	n/a	Yes	2.736	n/a	5.0	GoodResponse	1	0.009	517.021	6	54	Feedback	Win	True
519.466	2.736	Win2	0.6182	n/a	Yes	2.736	n/a	n/a	GoodResponse	1	0.0	n/a	6	54	ISIslide	Win	True
522.225	0.25	Control	0.625	0.0	Yes	3.025	0.025	n/a	GoodResponse	0	n/a	n/a	6	55	Cue	Neutral	True
522.475	3.95	Control	0.625	0.0	Yes	3.025	0.0	n/a	GoodResponse	0	n/a	n/a	6	55	Fixation	Neutral	True
526.421	0.47	Control	0.625	0.004	Yes	3.025	-0.004	2.0	GoodResponse	0	0.379	525.8	6	55	Target	Neutral	True
526.8	0.3	Control	0.625	0.004	Yes	3.025	-0.004	2.0	GoodResponse	0	0.379	n/a	6	55	ButtonPress	Neutral	True
526.905	0.23	Control	0.625	n/a	Yes	3.025	n/a	n/a	GoodResponse	0	n/a	n/a	6	55	Blank	Neutral	True
527.123	1.45	Control	0.625	n/a	Yes	3.025	n/a	5.0	GoodResponse	0	0.019	526.142	6	55	Feedback	Neutral	True
528.577	3.025	Control	0.625	n/a	Yes	3.025	n/a	n/a	GoodResponse	0	0.0	n/a	6	55	ISIslide	Neutral	True
531.619	0.25	Control	0.6315999999999999	0.0	Yes	2.831	0.019	n/a	GoodResponse	0	n/a	n/a	6	56	Cue	Neutral	True
531.87	3.95	Control	0.6315999999999999	0.0	Yes	2.831	0.001	n/a	GoodResponse	0	n/a	n/a	6	56	Fixation	Neutral	True
535.815	0.48	Control	0.6315999999999999	0.004	Yes	2.831	-0.004	2.0	GoodResponse	0	0.245	535.06	6	56	Target	Neutral	True
536.06	0.3	Control	0.6315999999999999	0.004	Yes	2.831	-0.004	2.0	GoodResponse	0	0.245	n/a	6	56	ButtonPress	Neutral	True
536.3	0.22	Control	0.6315999999999999	n/a	Yes	2.831	n/a	n/a	GoodResponse	0	n/a	n/a	6	56	Blank	Neutral	True
536.517	1.45	Control	0.6315999999999999	n/a	Yes	2.831	n/a	5.0	GoodResponse	0	0.039	535.556	6	56	Feedback	Neutral	True
537.972	2.831	Control	0.6315999999999999	n/a	Yes	2.831	n/a	n/a	GoodResponse	0	0.0	n/a	6	56	ISIslide	Neutral	True
540.814	0.25	Control	0.6207	0.0	No	3.486	0.014	n/a	NoResponse	0	n/a	n/a	6	57	Cue	Neutral	False
541.064	4.0	Control	0.6207	0.0	No	3.486	0.0	n/a	NoResponse	0	n/a	n/a	6	57	Fixation	Neutral	False
545.06	0.49	Control	0.6207	0.004	No	3.486	-0.004	n/a	NoResponse	0	n/a	n/a	6	57	Target	Neutral	False
545.561	0.21	Control	0.6207	n/a	No	3.486	n/a	n/a	NoResponse	0	n/a	n/a	6	57	Blank	Neutral	False
545.762	1.45	Control	0.6207	n/a	No	3.486	n/a	5.0	NoResponse	0	0.014	544.776	6	57	Feedback	Neutral	False
547.216	3.486	Control	0.6207	n/a	No	3.486	n/a	n/a	NoResponse	0	0.0	n/a	6	57	ISIslide	Neutral	False
550.727	0.25	Win2	0.6271	0.0	Yes	2.723	0.027	n/a	GoodResponse	1	n/a	n/a	7	58	Cue	Win	True
550.977	4.05	Win2	0.6271	0.0	Yes	2.723	0.0	n/a	GoodResponse	1	n/a	n/a	7	58	Fixation	Win	True
555.023	0.5	Win2	0.6271	0.004	Yes	2.723	-0.004	2.0	GoodResponse	1	0.32	554.343	7	58	Target	Win	True
555.343	0.3	Win2	0.6271	0.004	Yes	2.723	-0.004	2.0	GoodResponse	1	0.32	n/a	7	58	ButtonPress	Win	True
555.524	0.2	Win2	0.6271	n/a	Yes	2.723	n/a	n/a	GoodResponse	1	n/a	n/a	7	58	Blank	Win	True
555.725	1.45	Win2	0.6271	n/a	Yes	2.723	n/a	5.0	GoodResponse	1	0.002	554.727	7	58	Feedback	Win	True
557.179	2.723	Win2	0.6271	n/a	Yes	2.723	n/a	n/a	GoodResponse	1	0.0	n/a	7	58	ISIslide	Win	True
559.921	0.25	Lose2	0.6333	0.0	Yes	2.679	0.021	n/a	GoodResponse	0	n/a	n/a	7	59	Cue	AvoidedLoss	True
560.172	4.0	Lose2	0.6333	0.0	Yes	2.679	0.001	n/a	GoodResponse	0	n/a	n/a	7	59	Fixation	AvoidedLoss	True
564.167	0.5	Lose2	0.6333	0.004	Yes	2.679	-0.004	2.0	GoodResponse	0	0.34	563.507	7	59	Target	AvoidedLoss	True
564.507	0.3	Lose2	0.6333	0.004	Yes	2.679	-0.004	2.0	GoodResponse	0	0.34	n/a	7	59	ButtonPress	AvoidedLoss	True
564.668	0.2	Lose2	0.6333	n/a	Yes	2.679	n/a	n/a	GoodResponse	0	n/a	n/a	7	59	Blank	AvoidedLoss	True
564.869	1.45	Lose2	0.6333	n/a	Yes	2.679	n/a	5.0	GoodResponse	0	0.029	563.898	7	59	Feedback	AvoidedLoss	True
566.323	2.679	Lose2	0.6333	n/a	Yes	2.679	n/a	n/a	GoodResponse	0	0.0	n/a	7	59	ISIslide	AvoidedLoss	True
569.015	0.25	Control	0.6393	0.0	Yes	2.685	0.015	n/a	GoodResponse	0	n/a	n/a	7	60	Cue	Neutral	True
569.265	4.0	Control	0.6393	0.001	Yes	2.685	0.0	n/a	GoodResponse	0	n/a	n/a	7	60	Fixation	Neutral	True
573.261	0.5	Control	0.6393	0.004	Yes	2.685	-0.004	2.0	GoodResponse	0	0.305	572.566	7	60	Target	Neutral	True
573.566	0.3	Control	0.6393	0.004	Yes	2.685	-0.004	2.0	GoodResponse	0	0.305	n/a	7	60	ButtonPress	Neutral	True
573.762	0.2	Control	0.6393	n/a	Yes	2.685	n/a	n/a	GoodResponse	0	n/a	n/a	7	60	Blank	Neutral	True
573.963	1.45	Control	0.6393	n/a	Yes	2.685	n/a	5.0	GoodResponse	0	0.008	572.971	7	60	Feedback	Neutral	True
575.417	2.685	Control	0.6393	n/a	Yes	2.685	n/a	n/a	GoodResponse	0	0.0	n/a	7	60	ISIslide	Neutral	True
578.125	0.25	Lose2	0.6452	0.0	Yes	2.975	0.025	n/a	GoodResponse	0	n/a	n/a	7	61	Cue	AvoidedLoss	True
578.376	4.0	Lose2	0.6452	0.0	Yes	2.975	0.001	n/a	GoodResponse	0	n/a	n/a	7	61	Fixation	AvoidedLoss	True
582.371	0.5	Lose2	0.6452	0.004	Yes	2.975	-0.004	2.0	GoodResponse	0	0.244	581.615	7	61	Target	AvoidedLoss	True
582.615	0.3	Lose2	0.6452	0.004	Yes	2.975	-0.004	2.0	GoodResponse	0	0.244	n/a	7	61	ButtonPress	AvoidedLoss	True
582.873	0.2	Lose2	0.6452	n/a	Yes	2.975	n/a	n/a	GoodResponse	0	n/a	n/a	7	61	Blank	AvoidedLoss	True
583.073	1.45	Lose2	0.6452	n/a	Yes	2.975	n/a	5.0	GoodResponse	0	0.02	582.093	7	61	Feedback	AvoidedLoss	True
584.528	2.975	Lose2	0.6452	n/a	Yes	2.975	n/a	n/a	GoodResponse	0	0.0	n/a	7	61	ISIslide	AvoidedLoss	True
587.52	0.25	Lose2	0.6507999999999999	0.0	Yes	2.88	0.02	n/a	GoodResponse	0	n/a	n/a	7	62	Cue	AvoidedLoss	True
587.771	3.9	Lose2	0.6507999999999999	0.0	Yes	2.88	0.001	n/a	GoodResponse	0	n/a	n/a	7	62	Fixation	AvoidedLoss	True
591.666	0.5	Lose2	0.6507999999999999	0.004	Yes	2.88	-0.004	2.0	GoodResponse	0	0.292	590.958	7	62	Target	AvoidedLoss	True
591.958	0.3	Lose2	0.6507999999999999	0.004	Yes	2.88	-0.004	2.0	GoodResponse	0	0.292	n/a	7	62	ButtonPress	AvoidedLoss	True
592.167	0.2	Lose2	0.6507999999999999	n/a	Yes	2.88	n/a	n/a	GoodResponse	0	n/a	n/a	7	62	Blank	AvoidedLoss	True
592.368	1.45	Lose2	0.6507999999999999	n/a	Yes	2.88	n/a	5.0	GoodResponse	0	0.042	591.41	7	62	Feedback	AvoidedLoss	True
593.822	2.88	Lose2	0.6507999999999999	n/a	Yes	2.88	n/a	n/a	GoodResponse	0	0.0	n/a	7	62	ISIslide	AvoidedLoss	True
596.714	0.25	Lose2	0.6562	0.0	Yes	2.636	0.014	n/a	GoodResponse	0	n/a	n/a	7	63	Cue	AvoidedLoss	True
596.965	4.05	Lose2	0.6562	0.0	Yes	2.636	0.001	n/a	GoodResponse	0	n/a	n/a	7	63	Fixation	AvoidedLoss	True
601.01	0.5	Lose2	0.6562	0.004	Yes	2.636	-0.004	2.0	GoodResponse	0	0.419	600.429	7	63	Target	AvoidedLoss	True
601.429	0.3	Lose2	0.6562	0.004	Yes	2.636	-0.004	2.0	GoodResponse	0	0.419	n/a	7	63	ButtonPress	AvoidedLoss	True
601.512	0.2	Lose2	0.6562	n/a	Yes	2.636	n/a	n/a	GoodResponse	0	n/a	n/a	7	63	Blank	AvoidedLoss	True
601.713	1.45	Lose2	0.6562	n/a	Yes	2.636	n/a	5.0	GoodResponse	0	0.014	600.727	7	63	Feedback	AvoidedLoss	True
603.167	2.636	Lose2	0.6562	n/a	Yes	2.636	n/a	n/a	GoodResponse	0	0.0	n/a	7	63	ISIslide	AvoidedLoss	True
605.825	0.25	Win2	0.6615000000000001	0.0	Yes	3.125	0.025	n/a	GoodResponse	1	n/a	n/a	8	64	Cue	Win	True
606.076	4.15	Win2	0.6615000000000001	0.0	Yes	3.125	0.001	n/a	GoodResponse	1	n/a	n/a	8	64	Fixation	Win	True
610.221	0.5	Win2	0.6615000000000001	0.004	Yes	3.125	-0.004	2.0	GoodResponse	1	0.211	609.432	8	64	Target	Win	True
610.432	0.3	Win2	0.6615000000000001	0.004	Yes	3.125	-0.004	2.0	GoodResponse	1	0.211	n/a	8	64	ButtonPress	Win	True
610.723	0.2	Win2	0.6615000000000001	n/a	Yes	3.125	n/a	n/a	GoodResponse	1	n/a	n/a	8	64	Blank	Win	True
610.923	1.45	Win2	0.6615000000000001	n/a	Yes	3.125	n/a	5.0	GoodResponse	1	0.024	609.947	8	64	Feedback	Win	True
612.378	3.125	Win2	0.6615000000000001	n/a	Yes	3.125	n/a	n/a	GoodResponse	1	0.0	n/a	8	64	ISIslide	Win	True
615.521	0.25	Control	0.6667000000000001	0.0	Yes	2.779	0.021	n/a	GoodResponse	0	n/a	n/a	8	65	Cue	Neutral	True
615.771	4.0	Control	0.6667000000000001	0.0	Yes	2.779	0.0	n/a	GoodResponse	0	n/a	n/a	8	65	Fixation	Neutral	True
619.767	0.5	Control	0.6667000000000001	0.004	Yes	2.779	-0.004	2.0	GoodResponse	0	0.238	619.005	8	65	Target	Neutral	True
620.005	0.3	Control	0.6667000000000001	0.004	Yes	2.779	-0.004	2.0	GoodResponse	0	0.238	n/a	8	65	ButtonPress	Neutral	True
620.268	0.2	Control	0.6667000000000001	n/a	Yes	2.779	n/a	n/a	GoodResponse	0	n/a	n/a	8	65	Blank	Neutral	True
620.469	1.45	Control	0.6667000000000001	n/a	Yes	2.779	n/a	5.0	GoodResponse	0	0.039	619.508	8	65	Feedback	Neutral	True
621.923	2.779	Control	0.6667000000000001	n/a	Yes	2.779	n/a	n/a	GoodResponse	0	0.0	n/a	8	65	ISIslide	Neutral	True
624.731	0.25	Win2	0.6716	0.001	Yes	2.769	0.031	n/a	GoodResponse	1	n/a	n/a	9	66	Cue	Win	True
624.982	3.9	Win2	0.6716	0.0	Yes	2.769	0.001	n/a	GoodResponse	1	n/a	n/a	9	66	Fixation	Win	True
628.877	0.49	Win2	0.6716	0.004	Yes	2.769	-0.004	2.0	GoodResponse	1	0.295	628.172	9	66	Target	Win	True
629.172	0.3	Win2	0.6716	0.004	Yes	2.769	-0.004	2.0	GoodResponse	1	0.295	n/a	9	66	ButtonPress	Win	True
629.379	0.21	Win2	0.6716	n/a	Yes	2.769	n/a	n/a	GoodResponse	1	n/a	n/a	9	66	Blank	Win	True
629.579	1.45	Win2	0.6716	n/a	Yes	2.769	n/a	5.0	GoodResponse	1	0.001	628.58	9	66	Feedback	Win	True
631.034	2.769	Win2	0.6716	n/a	Yes	2.769	n/a	n/a	GoodResponse	1	0.0	n/a	9	66	ISIslide	Win	True
633.825	0.25	Control	0.6765000000000001	0.0	Yes	2.725	0.025	n/a	GoodResponse	0	n/a	n/a	9	67	Cue	Neutral	True
634.076	3.95	Control	0.6765000000000001	0.0	Yes	2.725	0.001	n/a	GoodResponse	0	n/a	n/a	9	67	Fixation	Neutral	True
638.021	0.48	Control	0.6765000000000001	0.004	Yes	2.725	-0.004	2.0	GoodResponse	0	0.216	637.237	9	67	Target	Neutral	True
638.237	0.3	Control	0.6765000000000001	0.004	Yes	2.725	-0.004	2.0	GoodResponse	0	0.216	n/a	9	67	ButtonPress	Neutral	True
638.506	0.22	Control	0.6765000000000001	n/a	Yes	2.725	n/a	n/a	GoodResponse	0	n/a	n/a	9	67	Blank	Neutral	True
638.723	1.45	Control	0.6765000000000001	n/a	Yes	2.725	n/a	5.0	GoodResponse	0	0.028	637.751	9	67	Feedback	Neutral	True
640.178	2.725	Control	0.6765000000000001	n/a	Yes	2.725	n/a	n/a	GoodResponse	0	0.0	n/a	9	67	ISIslide	Neutral	True
642.919	0.25	Win2	0.6812	0.0	Yes	3.081	0.019	n/a	GoodResponse	1	n/a	n/a	10	68	Cue	Win	True
643.17	4.0	Win2	0.6812	0.0	Yes	3.081	0.001	n/a	GoodResponse	1	n/a	n/a	10	68	Fixation	Win	True
647.165	0.47	Win2	0.6812	0.004	Yes	3.081	-0.004	2.0	GoodResponse	1	0.234	646.399	10	68	Target	Win	True
647.399	0.3	Win2	0.6812	0.004	Yes	3.081	-0.004	2.0	GoodResponse	1	0.234	n/a	10	68	ButtonPress	Win	True
647.65	0.23	Win2	0.6812	n/a	Yes	3.081	n/a	n/a	GoodResponse	1	n/a	n/a	10	68	Blank	Win	True
647.867	1.45	Win2	0.6812	n/a	Yes	3.081	n/a	5.0	GoodResponse	1	0.007	646.874	10	68	Feedback	Win	True
649.322	3.081	Win2	0.6812	n/a	Yes	3.081	n/a	n/a	GoodResponse	1	0.0	n/a	10	68	ISIslide	Win	True
652.431	0.25	Win2	0.6857	0.0	Yes	3.219	0.031	n/a	GoodResponse	1	n/a	n/a	11	69	Cue	Win	True
652.682	3.95	Win2	0.6857	0.0	Yes	3.219	0.001	n/a	GoodResponse	1	n/a	n/a	11	69	Fixation	Win	True
656.627	0.46	Win2	0.6857	0.004	Yes	3.219	-0.004	2.0	GoodResponse	1	0.233	655.86	11	69	Target	Win	True
656.86	0.3	Win2	0.6857	0.004	Yes	3.219	-0.004	2.0	GoodResponse	1	0.233	n/a	11	69	ButtonPress	Win	True
657.095	0.24	Win2	0.6857	n/a	Yes	3.219	n/a	n/a	GoodResponse	1	n/a	n/a	11	69	Blank	Win	True
657.329	1.45	Win2	0.6857	n/a	Yes	3.219	n/a	5.0	GoodResponse	1	0.007	656.336	11	69	Feedback	Win	True
658.783	3.219	Win2	0.6857	n/a	Yes	3.219	n/a	n/a	GoodResponse	1	0.0	n/a	11	69	ISIslide	Win	True
662.026	0.25	Lose2	0.6901	0.001	Yes	3.024	0.026	n/a	GoodResponse	0	n/a	n/a	11	70	Cue	AvoidedLoss	True
662.277	4.05	Lose2	0.6901	0.0	Yes	3.024	0.001	n/a	GoodResponse	0	n/a	n/a	11	70	Fixation	AvoidedLoss	True
666.323	0.45	Lose2	0.6901	0.003	Yes	3.024	-0.003	2.0	GoodResponse	0	0.215	665.538	11	70	Target	AvoidedLoss	True
666.538	0.3	Lose2	0.6901	0.003	Yes	3.024	-0.003	2.0	GoodResponse	0	0.215	n/a	11	70	ButtonPress	AvoidedLoss	True
666.774	0.25	Lose2	0.6901	n/a	Yes	3.024	n/a	n/a	GoodResponse	0	n/a	n/a	11	70	Blank	AvoidedLoss	True
667.025	1.45	Lose2	0.6901	n/a	Yes	3.024	n/a	5.0	GoodResponse	0	0.019	666.044	11	70	Feedback	AvoidedLoss	True
668.479	3.024	Lose2	0.6901	n/a	Yes	3.024	n/a	n/a	GoodResponse	0	0.0	n/a	11	70	ISIslide	AvoidedLoss	True
671.522	0.25	Win2	0.6806	0.0	No	2.728	0.022	n/a	NoResponse	0	n/a	n/a	11	71	Cue	MissedWin	False
671.772	4.05	Win2	0.6806	0.0	No	2.728	0.0	n/a	NoResponse	0	n/a	n/a	11	71	Fixation	MissedWin	False
675.818	0.44	Win2	0.6806	0.004	No	2.728	-0.004	n/a	NoResponse	0	n/a	n/a	11	71	Target	MissedWin	False
676.269	0.26	Win2	0.6806	n/a	No	2.728	n/a	n/a	NoResponse	0	n/a	n/a	11	71	Blank	MissedWin	False
676.52	1.45	Win2	0.6806	n/a	No	2.728	n/a	5.0	NoResponse	0	0.035	675.555	11	71	Feedback	MissedWin	False
677.974	2.728	Win2	0.6806	n/a	No	2.728	n/a	n/a	NoResponse	0	0.0	n/a	11	71	ISIslide	MissedWin	False
680.716	0.25	Win2	0.6849	0.0	Yes	2.784	0.016	n/a	GoodResponse	1	n/a	n/a	12	72	Cue	Win	False
680.966	4.1	Win2	0.6849	0.001	Yes	2.784	0.0	2.0	GoodResponse	1	1.437	681.403	12	72	Fixation	Win	False
682.403	0.3	Win2	0.6849	0.001	Yes	2.784	0.0	2.0	GoodResponse	1	1.437	n/a	12	72	ButtonPress	Win	False
685.062	0.43	Win2	0.6849	0.004	Yes	2.784	-0.004	2.0	GoodResponse	1	0.221	684.283	12	72	Target	Win	False
685.283	0.3	Win2	0.6849	0.004	Yes	2.784	-0.004	2.0	GoodResponse	1	0.221	n/a	12	72	ButtonPress	Win	False
685.497	0.27	Win2	0.6849	n/a	Yes	2.784	n/a	n/a	GoodResponse	1	n/a	n/a	12	72	Blank	Win	False
685.764	1.45	Win2	0.6849	n/a	Yes	2.784	n/a	5.0	GoodResponse	1	0.011	684.775	12	72	Feedback	Win	False
687.219	2.784	Win2	0.6849	n/a	Yes	2.784	n/a	n/a	GoodResponse	1	0.0	n/a	12	72	ISIslide	Win	False
690.027	0.25	Win2	0.6892	0.0	Yes	2.673	0.027	n/a	GoodResponse	1	n/a	n/a	13	73	Cue	Win	True
690.278	4.0	Win2	0.6892	0.0	Yes	2.673	0.001	n/a	GoodResponse	1	n/a	n/a	13	73	Fixation	Win	True
694.273	0.42	Win2	0.6892	0.004	Yes	2.673	-0.004	2.0	GoodResponse	1	0.231	693.504	13	73	Target	Win	True
694.504	0.3	Win2	0.6892	0.004	Yes	2.673	-0.004	2.0	GoodResponse	1	0.231	n/a	13	73	ButtonPress	Win	True
694.708	0.28	Win2	0.6892	n/a	Yes	2.673	n/a	n/a	GoodResponse	1	n/a	n/a	13	73	Blank	Win	True
694.975	1.45	Win2	0.6892	n/a	Yes	2.673	n/a	5.0	GoodResponse	1	0.019	693.994	13	73	Feedback	Win	True
696.429	2.673	Win2	0.6892	n/a	Yes	2.673	n/a	n/a	GoodResponse	1	0.0	n/a	13	73	ISIslide	Win	True
699.121	0.25	Lose2	0.6933	0.0	Yes	2.629	0.021	n/a	GoodResponse	0	n/a	n/a	13	74	Cue	AvoidedLoss	True
699.372	4.05	Lose2	0.6933	0.0	Yes	2.629	0.001	n/a	GoodResponse	0	n/a	n/a	13	74	Fixation	AvoidedLoss	True
703.417	0.41	Lose2	0.6933	0.004	Yes	2.629	-0.004	2.0	GoodResponse	0	0.172	702.589	13	74	Target	AvoidedLoss	True
703.589	0.3	Lose2	0.6933	0.004	Yes	2.629	-0.004	2.0	GoodResponse	0	0.172	n/a	13	74	ButtonPress	AvoidedLoss	True
703.835	0.29	Lose2	0.6933	n/a	Yes	2.629	n/a	n/a	GoodResponse	0	n/a	n/a	13	74	Blank	AvoidedLoss	True
704.119	1.45	Lose2	0.6933	n/a	Yes	2.629	n/a	5.0	GoodResponse	0	0.046	703.165	13	74	Feedback	AvoidedLoss	True
705.573	2.629	Lose2	0.6933	n/a	Yes	2.629	n/a	n/a	GoodResponse	0	0.0	n/a	13	74	ISIslide	AvoidedLoss	True
708.231	0.25	Lose2	0.6973999999999999	0.0	Yes	2.919	0.031	n/a	GoodResponse	0	n/a	n/a	13	75	Cue	AvoidedLoss	True
708.482	3.95	Lose2	0.6973999999999999	0.0	Yes	2.919	0.001	n/a	GoodResponse	0	n/a	n/a	13	75	Fixation	AvoidedLoss	True
712.427	0.4	Lose2	0.6973999999999999	0.004	Yes	2.919	-0.004	2.0	GoodResponse	0	0.269	711.696	13	75	Target	AvoidedLoss	True
712.696	0.3	Lose2	0.6973999999999999	0.004	Yes	2.919	-0.004	2.0	GoodResponse	0	0.269	n/a	13	75	ButtonPress	AvoidedLoss	True
712.829	0.3	Lose2	0.6973999999999999	n/a	Yes	2.919	n/a	n/a	GoodResponse	0	n/a	n/a	13	75	Blank	AvoidedLoss	True
713.129	1.45	Lose2	0.6973999999999999	n/a	Yes	2.919	n/a	5.0	GoodResponse	0	0.012	712.141	13	75	Feedback	AvoidedLoss	True
714.584	2.919	Lose2	0.6973999999999999	n/a	Yes	2.919	n/a	n/a	GoodResponse	0	0.0	n/a	13	75	ISIslide	AvoidedLoss	True
717.526	0.25	Control	0.7012999999999999	0.0	Yes	3.224	0.026	n/a	GoodResponse	0	n/a	n/a	13	76	Cue	Neutral	True
717.777	4.05	Control	0.7012999999999999	0.0	Yes	3.224	0.001	n/a	GoodResponse	0	n/a	n/a	13	76	Fixation	Neutral	True
721.822	0.39	Control	0.7012999999999999	0.004	Yes	3.224	-0.004	2.0	GoodResponse	0	0.265	721.087	13	76	Target	Neutral	True
722.087	0.3	Control	0.7012999999999999	0.004	Yes	3.224	-0.004	2.0	GoodResponse	0	0.265	n/a	13	76	ButtonPress	Neutral	True
722.223	0.31	Control	0.7012999999999999	n/a	Yes	3.224	n/a	n/a	GoodResponse	0	n/a	n/a	13	76	Blank	Neutral	True
722.524	1.45	Control	0.7012999999999999	n/a	Yes	3.224	n/a	5.0	GoodResponse	0	0.032	721.556	13	76	Feedback	Neutral	True
723.979	3.224	Control	0.7012999999999999	n/a	Yes	3.224	n/a	n/a	GoodResponse	0	0.0	n/a	13	76	ISIslide	Neutral	True
727.222	0.25	Lose2	0.7051000000000001	0.0	Yes	2.578	0.022	n/a	GoodResponse	0	n/a	n/a	13	77	Cue	AvoidedLoss	True
727.472	3.95	Lose2	0.7051000000000001	0.0	Yes	2.578	0.0	n/a	GoodResponse	0	n/a	n/a	13	77	Fixation	AvoidedLoss	True
731.434	0.38	Lose2	0.7051000000000001	0.0	Yes	2.578	0.012	2.0	GoodResponse	0	0.305	730.739	13	77	Target	AvoidedLoss	True
731.739	0.3	Lose2	0.7051000000000001	0.0	Yes	2.578	0.012	2.0	GoodResponse	0	0.305	n/a	13	77	ButtonPress	AvoidedLoss	True
731.802	0.32	Lose2	0.7051000000000001	n/a	Yes	2.578	n/a	n/a	GoodResponse	0	n/a	n/a	13	77	Blank	AvoidedLoss	True
732.12	1.45	Lose2	0.7051000000000001	n/a	Yes	2.578	n/a	5.0	GoodResponse	0	0.045	731.165	13	77	Feedback	AvoidedLoss	True
733.574	2.578	Lose2	0.7051000000000001	n/a	Yes	2.578	n/a	n/a	GoodResponse	0	0.0	n/a	13	77	ISIslide	AvoidedLoss	True
