onset	duration	cue_type	current_mean_accuracy	duration_error	is_hit	isi_adjusted	onset_delay	response	response_type	reward	rt	rt_time	total_reward	trial_number	trial_phase	trial_type	one_press
11.105	0.25	Control	1.0	0.0	Yes	2.945	0.005	n/a	GoodResponse	0	n/a	n/a	0	0	Cue	Neutral	True
11.355	3.85	Control	1.0	0.0	Yes	2.945	0.0	n/a	GoodResponse	0	n/a	n/a	0	0	Fixation	Neutral	True
15.204	0.4	Control	1.0	0.001	Yes	2.945	-0.001	3.0	GoodResponse	0	0.307	14.511	0	0	Target	Neutral	True
15.511	0.3	Control	1.0	0.001	Yes	2.945	-0.001	3.0	GoodResponse	0	0.307	n/a	0	0	ButtonPress	Neutral	True
15.604	0.3	Control	1.0	n/a	Yes	2.945	n/a	n/a	GoodResponse	0	n/a	n/a	0	0	Blank	Neutral	True
15.904	1.45	Control	1.0	n/a	Yes	2.945	n/a	5.0	GoodResponse	0	0.022	14.926	0	0	Feedback	Neutral	True
17.353	2.945	Control	1.0	n/a	Yes	2.945	n/a	n/a	GoodResponse	0	0.0	n/a	0	0	ISIslide	Neutral	True
20.369	0.25	Lose2	1.0	0.0	Yes	2.731	0.069	n/a	GoodResponse	0	n/a	n/a	0	1	Cue	AvoidedLoss	True
20.619	4.0	Lose2	1.0	0.0	Yes	2.731	0.0	n/a	GoodResponse	0	n/a	n/a	0	1	Fixation	AvoidedLoss	True
24.617	0.39	Lose2	1.0	0.002	Yes	2.731	-0.002	3.0	GoodResponse	0	0.281	23.898	0	1	Target	AvoidedLoss	True
24.898	0.3	Lose2	1.0	0.002	Yes	2.731	-0.002	3.0	GoodResponse	0	0.281	n/a	0	1	ButtonPress	AvoidedLoss	True
25.017	0.31	Lose2	1.0	n/a	Yes	2.731	n/a	n/a	GoodResponse	0	n/a	n/a	0	1	Blank	AvoidedLoss	True
25.317	1.45	Lose2	1.0	n/a	Yes	2.731	n/a	5.0	GoodResponse	0	0.024	24.341	0	1	Feedback	AvoidedLoss	True
26.767	2.731	Lose2	1.0	n/a	Yes	2.731	n/a	n/a	GoodResponse	0	0.0	n/a	0	1	ISIslide	AvoidedLoss	True
29.516	0.25	Control	1.0	0.0	Yes	2.584	0.016	n/a	GoodResponse	0	n/a	n/a	0	2	Cue	Neutral	True
29.766	4.1	Control	1.0	0.0	Yes	2.584	0.0	n/a	GoodResponse	0	n/a	n/a	0	2	Fixation	Neutral	True
33.864	0.38	Control	1.0	0.002	Yes	2.584	-0.002	3.0	GoodResponse	0	0.278	33.142	0	2	Target	Neutral	True
34.142	0.3	Control	1.0	0.002	Yes	2.584	-0.002	3.0	GoodResponse	0	0.278	n/a	0	2	ButtonPress	Neutral	True
34.247	0.32	Control	1.0	n/a	Yes	2.584	n/a	n/a	GoodResponse	0	n/a	n/a	0	2	Blank	Neutral	True
34.564	1.45	Control	1.0	n/a	Yes	2.584	n/a	5.0	GoodResponse	0	0.045	33.609	0	2	Feedback	Neutral	True
36.013	2.584	Control	1.0	n/a	Yes	2.584	n/a	n/a	GoodResponse	0	0.0	n/a	0	2	ISIslide	Neutral	True
38.629	0.25	Win2	1.0	0.0	Yes	2.821	0.029	n/a	GoodResponse	1	n/a	n/a	1	3	Cue	Win	True
38.879	3.95	Win2	1.0	0.0	Yes	2.821	0.0	n/a	GoodResponse	1	n/a	n/a	1	3	Fixation	Win	True
42.828	0.37	Win2	1.0	0.001	Yes	2.821	-0.001	3.0	GoodResponse	1	0.244	42.072	1	3	Target	Win	True
43.072	0.3	Win2	1.0	0.001	Yes	2.821	-0.001	3.0	GoodResponse	1	0.244	n/a	1	3	ButtonPress	Win	True
43.211	0.33	Win2	1.0	n/a	Yes	2.821	n/a	n/a	GoodResponse	1	n/a	n/a	1	3	Blank	Win	True
43.527	1.45	Win2	1.0	n/a	Yes	2.821	n/a	5.0	GoodResponse	1	0.009	42.536	1	3	Feedback	Win	True
44.977	2.821	Win2	1.0	n/a	Yes	2.821	n/a	n/a	GoodResponse	1	0.0	n/a	1	3	ISIslide	Win	True
47.826	0.25	Win2	1.0	0.0	Yes	3.274	0.026	n/a	GoodResponse	1	n/a	n/a	2	4	Cue	Win	True
48.076	4.0	Win2	1.0	0.0	Yes	3.274	0.0	n/a	GoodResponse	1	n/a	n/a	2	4	Fixation	Win	True
52.075	0.36	Win2	1.0	0.001	Yes	3.274	-0.001	3.0	GoodResponse	1	0.301	51.376	2	4	Target	Win	True
52.376	0.3	Win2	1.0	0.001	Yes	3.274	-0.001	3.0	GoodResponse	1	0.301	n/a	2	4	ButtonPress	Win	True
52.441	0.34	Win2	1.0	n/a	Yes	3.274	n/a	n/a	GoodResponse	1	n/a	n/a	2	4	Blank	Win	True
52.774	1.45	Win2	1.0	n/a	Yes	3.274	n/a	5.0	GoodResponse	1	0.03	51.804	2	4	Feedback	Win	True
54.224	3.274	Win2	1.0	n/a	Yes	3.274	n/a	n/a	GoodResponse	1	0.0	n/a	2	4	ISIslide	Win	True
57.523	0.25	Win2	1.0	0.0	Yes	2.777	0.023	n/a	GoodResponse	1	n/a	n/a	3	5	Cue	Win	True
57.773	4.0	Win2	1.0	0.0	Yes	2.777	0.0	n/a	GoodResponse	1	n/a	n/a	3	5	Fixation	Win	True
61.771	0.35	Win2	1.0	0.002	Yes	2.777	-0.002	3.0	GoodResponse	1	0.301	61.072	3	5	Target	Win	True
62.072	0.3	Win2	1.0	0.002	Yes	2.777	-0.002	3.0	GoodResponse	1	0.301	n/a	3	5	ButtonPress	Win	True
62.121	0.35	Win2	1.0	n/a	Yes	2.777	n/a	n/a	GoodResponse	1	n/a	n/a	3	5	Blank	Win	True
62.471	1.45	Win2	1.0	n/a	Yes	2.777	n/a	5.0	GoodResponse	1	0.04	61.511	3	5	Feedback	Win	True
63.921	2.777	Win2	1.0	n/a	Yes	2.777	n/a	n/a	GoodResponse	1	0.0	n/a	3	5	ISIslide	Win	True
66.72	0.25	Lose2	1.0	0.0	Yes	2.73	0.02	n/a	GoodResponse	0	n/a	n/a	3	6	Cue	AvoidedLoss	True
66.969	3.95	Lose2	1.0	0.001	Yes	2.73	-0.001	n/a	GoodResponse	0	n/a	n/a	3	6	Fixation	AvoidedLoss	True
70.918	0.34	Lose2	1.0	0.002	Yes	2.73	-0.002	3.0	GoodResponse	0	0.241	70.159	3	6	Target	AvoidedLoss	True
71.159	0.3	Lose2	1.0	0.002	Yes	2.73	-0.002	3.0	GoodResponse	0	0.241	n/a	3	6	ButtonPress	AvoidedLoss	True
71.268	0.36	Lose2	1.0	n/a	Yes	2.73	n/a	n/a	GoodResponse	0	n/a	n/a	3	6	Blank	AvoidedLoss	True
71.618	1.45	Lose2	1.0	n/a	Yes	2.73	n/a	5.0	GoodResponse	0	0.015	70.633	3	6	Feedback	AvoidedLoss	True
73.067	2.73	Lose2	1.0	n/a	Yes	2.73	n/a	n/a	GoodResponse	0	0.0	n/a	3	6	ISIslide	AvoidedLoss	True
75.816	0.25	Lose2	1.0	0.001	Yes	4.034	0.016	n/a	GoodResponse	0	n/a	n/a	3	7	Cue	AvoidedLoss	True
76.066	4.05	Lose2	1.0	0.0	Yes	4.034	0.0	n/a	GoodResponse	0	n/a	n/a	3	7	Fixation	AvoidedLoss	True
80.115	0.33	Lose2	1.0	0.001	Yes	4.034	-0.001	3.0	GoodResponse	0	0.306	79.421	3	7	Target	AvoidedLoss	True
80.421	0.3	Lose2	1.0	0.001	Yes	4.034	-0.001	3.0	GoodResponse	0	0.306	n/a	3	7	ButtonPress	AvoidedLoss	True
80.448	0.37	Lose2	1.0	n/a	Yes	4.034	n/a	n/a	GoodResponse	0	n/a	n/a	3	7	Blank	AvoidedLoss	True
80.815	1.45	Lose2	1.0	n/a	Yes	4.034	n/a	5.0	GoodResponse	0	0.038	79.853	3	7	Feedback	AvoidedLoss	True
82.264	4.034	Lose2	1.0	n/a	Yes	4.034	n/a	n/a	GoodResponse	0	0.0	n/a	3	7	ISIslide	AvoidedLoss	True
86.33	0.25	Lose2	1.0	0.0	Yes	3.02	0.03	n/a	GoodResponse	0	n/a	n/a	3	8	Cue	AvoidedLoss	True
86.579	3.95	Lose2	1.0	0.001	Yes	3.02	-0.001	n/a	GoodResponse	0	n/a	n/a	3	8	Fixation	AvoidedLoss	True
90.528	0.32	Lose2	1.0	0.002	Yes	3.02	-0.002	3.0	GoodResponse	0	0.27	89.798	3	8	Target	AvoidedLoss	True
90.798	0.3	Lose2	1.0	0.002	Yes	3.02	-0.002	3.0	GoodResponse	0	0.27	n/a	3	8	ButtonPress	AvoidedLoss	True
90.861	0.38	Lose2	1.0	n/a	Yes	3.02	n/a	n/a	GoodResponse	0	n/a	n/a	3	8	Blank	AvoidedLoss	True
91.228	1.45	Lose2	1.0	n/a	Yes	3.02	n/a	5.0	GoodResponse	0	0.015	90.243	3	8	Feedback	AvoidedLoss	True
92.677	3.02	Lose2	1.0	n/a	Yes	3.02	n/a	n/a	GoodResponse	0	0.0	n/a	3	8	ISIslide	AvoidedLoss	True
95.726	0.25	Lose2	1.0	0.0	Yes	3.124	0.026	n/a	GoodResponse	0	n/a	n/a	3	9	Cue	AvoidedLoss	True
95.976	3.95	Lose2	1.0	0.0	Yes	3.124	0.0	n/a	GoodResponse	0	n/a	n/a	3	9	Fixation	AvoidedLoss	True
99.925	0.31	Lose2	1.0	0.001	Yes	3.124	-0.001	3.0	GoodResponse	0	0.264	99.189	3	9	Target	AvoidedLoss	True
100.189	0.3	Lose2	1.0	0.001	Yes	3.124	-0.001	3.0	GoodResponse	0	0.264	n/a	3	9	ButtonPress	AvoidedLoss	True
100.241	0.39	Lose2	1.0	n/a	Yes	3.124	n/a	n/a	GoodResponse	0	n/a	n/a	3	9	Blank	AvoidedLoss	True
100.625	1.45	Lose2	1.0	n/a	Yes	3.124	n/a	5.0	GoodResponse	0	0.033	99.658	3	9	Feedback	AvoidedLoss	True
102.074	3.124	Lose2	1.0	n/a	Yes	3.124	n/a	n/a	GoodResponse	0	0.0	n/a	3	9	ISIslide	AvoidedLoss	True
105.223	0.25	Control	1.0	0.0	Yes	3.277	0.023	n/a	GoodResponse	0	n/a	n/a	3	10	Cue	Neutral	True
105.473	4.0	Control	1.0	0.0	Yes	3.277	0.0	n/a	GoodResponse	0	n/a	n/a	3	10	Fixation	Neutral	True
109.472	0.3	Control	1.0	0.001	Yes	3.277	-0.001	3.0	GoodResponse	0	0.295	108.767	3	10	Target	Neutral	True
109.767	0.3	Control	1.0	0.001	Yes	3.277	-0.001	3.0	GoodResponse	0	0.295	n/a	3	10	ButtonPress	Neutral	True
109.771	0.4	Control	1.0	n/a	Yes	3.277	n/a	n/a	GoodResponse	0	n/a	n/a	3	10	Blank	Neutral	True
110.171	1.45	Control	1.0	n/a	Yes	3.277	n/a	5.0	GoodResponse	0	0.048	109.219	3	10	Feedback	Neutral	True
111.621	3.277	Control	1.0	n/a	Yes	3.277	n/a	n/a	GoodResponse	0	0.0	n/a	3	10	ISIslide	Neutral	True
114.92	0.25	Lose2	1.0	0.0	Yes	2.73	0.02	n/a	GoodResponse	0	n/a	n/a	3	11	Cue	AvoidedLoss	True
115.17	4.05	Lose2	1.0	0.0	Yes	2.73	0.0	n/a	GoodResponse	0	n/a	n/a	3	11	Fixation	AvoidedLoss	True
119.218	0.29	Lose2	1.0	0.002	Yes	2.73	-0.002	3.0	GoodResponse	0	0.282	118.5	3	11	Target	AvoidedLoss	True
119.5	0.3	Lose2	1.0	0.002	Yes	2.73	-0.002	3.0	GoodResponse	0	0.282	n/a	3	11	ButtonPress	AvoidedLoss	True
119.518	0.41	Lose2	1.0	n/a	Yes	2.73	n/a	n/a	GoodResponse	0	n/a	n/a	3	11	Blank	AvoidedLoss	True
119.918	1.45	Lose2	1.0	n/a	Yes	2.73	n/a	5.0	GoodResponse	0	0.008	118.926	3	11	Feedback	AvoidedLoss	True
121.368	2.73	Lose2	1.0	n/a	Yes	2.73	n/a	n/a	GoodResponse	0	0.0	n/a	3	11	ISIslide	AvoidedLoss	True
124.117	0.25	Control	0.9231	0.0	No	2.983	0.017	n/a	NoResponse	0	n/a	n/a	3	12	Cue	Neutral	True
124.366	3.9	Control	0.9231	0.001	No	2.983	-0.001	n/a	NoResponse	0	n/a	n/a	3	12	Fixation	Neutral	True
128.265	0.28	Control	0.9231	0.002	No	2.983	-0.002	3.0	NoResponse	0	0.341	127.606	3	12	Target	Neutral	True
128.548	0.42	Control	0.9231	n/a	No	2.983	n/a	n/a	NoResponse	0	n/a	n/a	3	12	Blank	Neutral	True
128.606	0.3	Control	0.9231	0.002	No	2.983	-0.002	3.0	NoResponse	0	0.341	n/a	3	12	ButtonPress	Neutral	True
128.965	1.45	Control	0.9231	n/a	No	2.983	n/a	5.0	NoResponse	0	0.034	127.999	3	12	Feedback	Neutral	True
130.414	2.983	Control	0.9231	n/a	No	2.983	n/a	n/a	NoResponse	0	0.0	n/a	3	12	ISIslide	Neutral	True
133.43	0.25	Control	0.8571	0.0	No	2.77	0.03	n/a	NoResponse	0	n/a	n/a	3	13	Cue	Neutral	True
133.68	4.0	Control	0.8571	0.0	No	2.77	0.0	n/a	NoResponse	0	n/a	n/a	3	13	Fixation	Neutral	True
137.679	0.27	Control	0.8571	0.001	No	2.77	-0.001	3.0	NoResponse	0	0.29	136.969	3	13	Target	Neutral	True
137.962	0.43	Control	0.8571	n/a	No	2.77	n/a	n/a	NoResponse	0	n/a	n/a	3	13	Blank	Neutral	True
137.969	0.3	Control	0.8571	0.001	No	2.77	-0.001	3.0	NoResponse	0	0.29	n/a	3	13	ButtonPress	Neutral	True
138.378	1.45	Control	0.8571	n/a	No	2.77	n/a	5.0	NoResponse	0	0.036	137.414	3	13	Feedback	Neutral	True
139.828	2.77	Control	0.8571	n/a	No	2.77	n/a	n/a	NoResponse	0	0.0	n/a	3	13	ISIslide	Neutral	True
142.627	0.25	Win2	0.8667	0.0	Yes	2.673	0.027	n/a	GoodResponse	1	n/a	n/a	4	14	Cue	Win	True
142.877	4.1	Win2	0.8667	0.0	Yes	2.673	0.0	n/a	GoodResponse	1	n/a	n/a	4	14	Fixation	Win	True
146.975	0.26	Win2	0.8667	0.002	Yes	2.673	-0.002	3.0	GoodResponse	1	0.256	146.231	4	14	Target	Win	True
147.231	0.3	Win2	0.8667	0.002	Yes	2.673	-0.002	3.0	GoodResponse	1	0.256	n/a	4	14	ButtonPress	Win	True
147.242	0.44	Win2	0.8667	n/a	Yes	2.673	n/a	n/a	GoodResponse	1	n/a	n/a	4	14	Blank	Win	True
147.675	1.45	Win2	0.8667	n/a	Yes	2.673	n/a	5.0	GoodResponse	1	0.008	146.683	4	14	Feedback	Win	True
149.125	2.673	Win2	0.8667	n/a	Yes	2.673	n/a	n/a	GoodResponse	1	0.0	n/a	4	14	ISIslide	Win	True
151.824	0.25	Control	0.8125	0.0	No	2.976	0.024	n/a	NoResponse	0	n/a	n/a	4	15	Cue	Neutral	True
152.074	4.0	Control	0.8125	0.0	No	2.976	0.0	n/a	NoResponse	0	n/a	n/a	4	15	Fixation	Neutral	True
156.072	0.25	Control	0.8125	0.002	No	2.976	-0.002	3.0	NoResponse	0	0.38	155.452	4	15	Target	Neutral	True
156.322	0.45	Control	0.8125	n/a	No	2.976	n/a	n/a	NoResponse	0	n/a	n/a	4	15	Blank	Neutral	True
156.452	0.3	Control	0.8125	0.002	No	2.976	-0.002	3.0	NoResponse	0	0.38	n/a	4	15	ButtonPress	Neutral	True
156.772	1.45	Control	0.8125	n/a	No	2.976	n/a	5.0	NoResponse	0	0.032	155.804	4	15	Feedback	Neutral	True
158.222	2.976	Control	0.8125	n/a	No	2.976	n/a	n/a	NoResponse	0	0.0	n/a	4	15	ISIslide	Neutral	True
161.221	0.25	Win2	0.8234999999999999	0.0	Yes	2.879	0.021	n/a	GoodResponse	1	n/a	n/a	5	16	Cue	Win	True
161.47	4.0	Win2	0.8234999999999999	0.001	Yes	2.879	-0.001	n/a	GoodResponse	1	n/a	n/a	5	16	Fixation	Win	True
165.469	0.24	Win2	0.8234999999999999	0.002	Yes	2.879	-0.002	3.0	GoodResponse	1	0.232	164.701	5	16	Target	Win	True
165.701	0.3	Win2	0.8234999999999999	0.002	Yes	2.879	-0.002	3.0	GoodResponse	1	0.232	n/a	5	16	ButtonPress	Win	True
165.719	0.46	Win2	0.8234999999999999	n/a	Yes	2.879	n/a	n/a	GoodResponse	1	n/a	n/a	5	16	Blank	Win	True
166.169	1.45	Win2	0.8234999999999999	n/a	Yes	2.879	n/a	5.0	GoodResponse	1	0.001	165.17	5	16	Feedback	Win	True
167.618	2.879	Win2	0.8234999999999999	n/a	Yes	2.879	n/a	n/a	GoodResponse	1	0.0	n/a	5	16	ISIslide	Win	True
170.517	0.25	Lose2	0.7778	0.0	No	2.733	0.017	n/a	NoResponse	-1	n/a	n/a	4	17	Cue	Loss	True
170.767	3.95	Lose2	0.7778	0.0	No	2.733	0.0	n/a	NoResponse	-1	n/a	n/a	4	17	Fixation	Loss	True
174.716	0.23	Lose2	0.7778	0.001	No	2.733	-0.001	3.0	NoResponse	-1	0.24	173.956	4	17	Target	Loss	True
174.949	0.47	Lose2	0.7778	n/a	No	2.733	n/a	n/a	NoResponse	-1	n/a	n/a	4	17	Blank	Loss	True
174.956	0.3	Lose2	0.7778	0.001	No	2.733	-0.001	3.0	NoResponse	-1	0.24	n/a	4	17	ButtonPress	Loss	True
175.416	1.45	Lose2	0.7778	n/a	No	2.733	n/a	5.0	NoResponse	-1	0.023	174.439	4	17	Feedback	Loss	True
176.865	2.733	Lose2	0.7778	n/a	No	2.733	n/a	n/a	NoResponse	-1	0.0	n/a	4	17	ISIslide	Loss	True
179.614	0.25	Lose2	0.7895	0.0	Yes	2.736	0.014	n/a	GoodResponse	0	n/a	n/a	4	18	Cue	AvoidedLoss	True
179.864	4.05	Lose2	0.7895	0.0	Yes	2.736	0.0	n/a	GoodResponse	0	n/a	n/a	4	18	Fixation	AvoidedLoss	True
183.913	0.22	Lose2	0.7895	0.001	Yes	2.736	-0.001	3.0	GoodResponse	0	0.203	183.116	4	18	Target	AvoidedLoss	True
184.116	0.3	Lose2	0.7895	0.001	Yes	2.736	-0.001	3.0	GoodResponse	0	0.203	n/a	4	18	ButtonPress	AvoidedLoss	True
184.129	0.48	Lose2	0.7895	n/a	Yes	2.736	n/a	n/a	GoodResponse	0	n/a	n/a	4	18	Blank	AvoidedLoss	True
184.613	1.45	Lose2	0.7895	n/a	Yes	2.736	n/a	5.0	GoodResponse	0	0.045	183.658	4	18	Feedback	AvoidedLoss	True
186.062	2.736	Lose2	0.7895	n/a	Yes	2.736	n/a	n/a	GoodResponse	0	0.0	n/a	4	18	ISIslide	AvoidedLoss	True
188.828	0.25	Control	0.75	0.0	No	2.922	0.028	n/a	LatePress	0	n/a	n/a	4	19	Cue	Neutral	True
189.078	3.95	Control	0.75	0.0	No	2.922	0.0	n/a	LatePress	0	n/a	n/a	4	19	Fixation	Neutral	True
193.026	0.21	Control	0.75	0.002	No	2.922	-0.002	3.0	LatePress	0	0.212	192.238	4	19	Target	Neutral	True
193.238	0.3	Control	0.75	0.002	No	2.922	-0.002	3.0	LatePress	0	0.212	n/a	4	19	ButtonPress	Neutral	True
193.243	0.49	Control	0.75	n/a	No	2.922	n/a	n/a	LatePress	0	n/a	n/a	4	19	Blank	Neutral	True
193.726	1.45	Control	0.75	n/a	No	2.922	n/a	5.0	LatePress	0	0.008	192.734	4	19	Feedback	Neutral	True
195.176	2.922	Control	0.75	n/a	No	2.922	n/a	n/a	LatePress	0	0.0	n/a	4	19	ISIslide	Neutral	True
198.125	0.25	Control	0.7143	0.0	No	2.625	0.025	n/a	NoResponse	0	n/a	n/a	4	20	Cue	Neutral	True
198.374	4.05	Control	0.7143	0.001	No	2.625	-0.001	n/a	NoResponse	0	n/a	n/a	4	20	Fixation	Neutral	True
202.423	0.2	Control	0.7143	0.002	No	2.625	-0.002	3.0	NoResponse	0	0.277	201.7	4	20	Target	Neutral	True
202.623	0.5	Control	0.7143	n/a	No	2.625	n/a	n/a	NoResponse	0	n/a	n/a	4	20	Blank	Neutral	True
202.7	0.3	Control	0.7143	0.002	No	2.625	-0.002	3.0	NoResponse	0	0.277	n/a	4	20	ButtonPress	Neutral	True
203.123	1.45	Control	0.7143	n/a	No	2.625	n/a	5.0	NoResponse	0	0.022	202.145	4	20	Feedback	Neutral	True
204.572	2.625	Control	0.7143	n/a	No	2.625	n/a	n/a	NoResponse	0	0.0	n/a	4	20	ISIslide	Neutral	True
207.221	0.25	Control	0.6818000000000001	0.001	No	2.779	0.021	n/a	NoResponse	0	n/a	n/a	4	21	Cue	Neutral	True
207.471	4.1	Control	0.6818000000000001	0.0	No	2.779	0.0	n/a	NoResponse	0	n/a	n/a	4	21	Fixation	Neutral	True
211.57	0.19	Control	0.6818000000000001	0.001	No	2.779	-0.001	3.0	NoResponse	0	0.232	210.802	4	21	Target	Neutral	True
211.77	0.51	Control	0.6818000000000001	n/a	No	2.779	n/a	n/a	NoResponse	0	n/a	n/a	4	21	Blank	Neutral	True
211.802	0.3	Control	0.6818000000000001	0.001	No	2.779	-0.001	3.0	NoResponse	0	0.232	n/a	4	21	ButtonPress	Neutral	True
212.27	1.45	Control	0.6818000000000001	n/a	No	2.779	n/a	5.0	NoResponse	0	0.046	211.316	4	21	Feedback	Neutral	True
213.719	2.779	Control	0.6818000000000001	n/a	No	2.779	n/a	n/a	NoResponse	0	0.0	n/a	4	21	ISIslide	Neutral	True
216.518	0.25	Control	0.6522	0.0	No	2.782	0.018	n/a	NoResponse	0	n/a	n/a	4	22	Cue	Neutral	True
216.768	4.0	Control	0.6522	0.0	No	2.782	0.0	n/a	NoResponse	0	n/a	n/a	4	22	Fixation	Neutral	True
220.767	0.18	Control	0.6522	0.001	No	2.782	-0.001	3.0	NoResponse	0	0.242	220.009	4	22	Target	Neutral	True
220.95	0.52	Control	0.6522	n/a	No	2.782	n/a	n/a	NoResponse	0	n/a	n/a	4	22	Blank	Neutral	True
221.009	0.3	Control	0.6522	0.001	No	2.782	-0.001	3.0	NoResponse	0	0.242	n/a	4	22	ButtonPress	Neutral	True
221.467	1.45	Control	0.6522	n/a	No	2.782	n/a	5.0	NoResponse	0	0.02	220.487	4	22	Feedback	Neutral	True
222.916	2.782	Control	0.6522	n/a	No	2.782	n/a	n/a	NoResponse	0	0.0	n/a	4	22	ISIslide	Neutral	True
225.715	0.25	Control	0.625	0.0	No	2.785	0.015	n/a	NoResponse	0	n/a	n/a	4	23	Cue	Neutral	True
225.965	3.9	Control	0.625	0.0	No	2.785	0.0	n/a	NoResponse	0	n/a	n/a	4	23	Fixation	Neutral	True
229.864	0.19	Control	0.625	0.001	No	2.785	-0.001	3.0	NoResponse	0	0.241	229.105	4	23	Target	Neutral	True
230.064	0.51	Control	0.625	n/a	No	2.785	n/a	n/a	NoResponse	0	n/a	n/a	4	23	Blank	Neutral	True
230.105	0.3	Control	0.625	0.001	No	2.785	-0.001	3.0	NoResponse	0	0.241	n/a	4	23	ButtonPress	Neutral	True
230.563	1.45	Control	0.625	n/a	No	2.785	n/a	5.0	NoResponse	0	0.046	229.609	4	23	Feedback	Neutral	True
232.013	2.785	Control	0.625	n/a	No	2.785	n/a	n/a	NoResponse	0	0.0	n/a	4	23	ISIslide	Neutral	True
234.829	0.25	Win2	0.6	0.0	No	3.121	0.029	n/a	NoResponse	0	n/a	n/a	4	24	Cue	MissedWin	True
235.079	3.95	Win2	0.6	0.0	No	3.121	0.0	n/a	NoResponse	0	n/a	n/a	4	24	Fixation	MissedWin	True
239.027	0.2	Win2	0.6	0.002	No	3.121	-0.002	3.0	NoResponse	0	0.224	238.251	4	24	Target	MissedWin	True
239.227	0.5	Win2	0.6	n/a	No	3.121	n/a	n/a	NoResponse	0	n/a	n/a	4	24	Blank	MissedWin	True
239.251	0.3	Win2	0.6	0.002	No	3.121	-0.002	3.0	NoResponse	0	0.224	n/a	4	24	ButtonPress	MissedWin	True
239.727	1.45	Win2	0.6	n/a	No	3.121	n/a	5.0	NoResponse	0	0.007	238.734	4	24	Feedback	MissedWin	True
241.176	3.121	Win2	0.6	n/a	No	3.121	n/a	n/a	NoResponse	0	0.0	n/a	4	24	ISIslide	MissedWin	True
244.325	0.25	Win2	0.5769	0.0	No	3.075	0.025	n/a	LatePress	0	n/a	n/a	4	25	Cue	MissedWin	True
244.575	4.0	Win2	0.5769	0.0	No	3.075	0.0	n/a	LatePress	0	n/a	n/a	4	25	Fixation	MissedWin	True
248.574	0.21	Win2	0.5769	0.001	No	3.075	-0.001	3.0	LatePress	0	0.213	247.787	4	25	Target	MissedWin	True
248.787	0.3	Win2	0.5769	0.001	No	3.075	-0.001	3.0	LatePress	0	0.213	n/a	4	25	ButtonPress	MissedWin	True
248.791	0.49	Win2	0.5769	n/a	No	3.075	n/a	n/a	LatePress	0	n/a	n/a	4	25	Blank	MissedWin	True
249.274	1.45	Win2	0.5769	n/a	No	3.075	n/a	5.0	LatePress	0	0.018	248.292	4	25	Feedback	MissedWin	True
250.723	3.075	Win2	0.5769	n/a	No	3.075	n/a	n/a	LatePress	0	0.0	n/a	4	25	ISIslide	MissedWin	True
253.822	0.25	Win2	0.5556	0.0	No	2.928	0.022	n/a	NoResponse	0	n/a	n/a	4	26	Cue	MissedWin	True
254.072	3.95	Win2	0.5556	0.0	No	2.928	0.0	n/a	NoResponse	0	n/a	n/a	4	26	Fixation	MissedWin	True
258.021	0.22	Win2	0.5556	0.001	No	2.928	-0.001	3.0	NoResponse	0	0.233	257.254	4	26	Target	MissedWin	True
258.237	0.48	Win2	0.5556	n/a	No	2.928	n/a	n/a	NoResponse	0	n/a	n/a	4	26	Blank	MissedWin	True
258.254	0.3	Win2	0.5556	0.001	No	2.928	-0.001	3.0	NoResponse	0	0.233	n/a	4	26	ButtonPress	MissedWin	True
258.72	1.45	Win2	0.5556	n/a	No	2.928	n/a	5.0	NoResponse	0	0.036	257.756	4	26	Feedback	MissedWin	True
260.17	2.928	Win2	0.5556	n/a	No	2.928	n/a	n/a	NoResponse	0	0.0	n/a	4	26	ISIslide	MissedWin	True
263.119	0.25	Lose2	0.5714	0.0	Yes	2.831	0.019	n/a	GoodResponse	0	n/a	n/a	4	27	Cue	AvoidedLoss	True
263.369	4.05	Lose2	0.5714	0.0	Yes	2.831	0.0	n/a	GoodResponse	0	n/a	n/a	4	27	Fixation	AvoidedLoss	True
267.418	0.23	Lose2	0.5714	0.001	Yes	2.831	-0.001	3.0	GoodResponse	0	0.217	266.635	4	27	Target	AvoidedLoss	True
267.635	0.3	Lose2	0.5714	0.001	Yes	2.831	-0.001	3.0	GoodResponse	0	0.217	n/a	4	27	ButtonPress	AvoidedLoss	True
267.651	0.47	Lose2	0.5714	n/a	Yes	2.831	n/a	n/a	GoodResponse	0	n/a	n/a	4	27	Blank	AvoidedLoss	True
268.117	1.45	Lose2	0.5714	n/a	Yes	2.831	n/a	5.0	GoodResponse	0	0.005	267.122	4	27	Feedback	AvoidedLoss	True
269.567	2.831	Lose2	0.5714	n/a	Yes	2.831	n/a	n/a	GoodResponse	0	0.0	n/a	4	27	ISIslide	AvoidedLoss	True
272.416	0.25	Control	0.5517	0.0	No	2.834	0.016	n/a	NoResponse	0	n/a	n/a	4	28	Cue	Neutral	True
272.666	4.05	Control	0.5517	0.0	No	2.834	0.0	n/a	NoResponse	0	n/a	n/a	4	28	Fixation	Neutral	True
276.714	0.24	Control	0.5517	0.002	No	2.834	-0.002	3.0	NoResponse	0	0.257	275.971	4	28	Target	Neutral	True
276.964	0.46	Control	0.5517	n/a	No	2.834	n/a	n/a	NoResponse	0	n/a	n/a	4	28	Blank	Neutral	True
276.971	0.3	Control	0.5517	0.002	No	2.834	-0.002	3.0	NoResponse	0	0.257	n/a	4	28	ButtonPress	Neutral	True
277.414	1.45	Control	0.5517	n/a	No	2.834	n/a	5.0	NoResponse	0	0.024	276.438	4	28	Feedback	Neutral	True
278.864	2.834	Control	0.5517	n/a	No	2.834	n/a	n/a	NoResponse	0	0.0	n/a	4	28	ISIslide	Neutral	True
281.729	0.25	Lose2	0.5333	0.0	No	2.821	0.029	n/a	NoResponse	-1	n/a	n/a	3	29	Cue	Loss	False
281.979	3.95	Lose2	0.5333	0.0	No	2.821	0.0	3.0	NoResponse	-1	0.421	281.4	3	29	Fixation	Loss	False
282.4	0.3	Lose2	0.5333	0.0	No	2.821	0.0	3.0	NoResponse	-1	0.421	n/a	3	29	ButtonPress	Loss	False
285.928	0.25	Lose2	0.5333	0.001	No	2.821	-0.001	3.0	NoResponse	-1	0.301	285.229	3	29	Target	Loss	False
286.178	0.45	Lose2	0.5333	n/a	No	2.821	n/a	n/a	NoResponse	-1	n/a	n/a	3	29	Blank	Loss	False
286.229	0.3	Lose2	0.5333	0.001	No	2.821	-0.001	3.0	NoResponse	-1	0.301	n/a	3	29	ButtonPress	Loss	False
286.628	1.45	Lose2	0.5333	n/a	No	2.821	n/a	5.0	NoResponse	-1	0.03	285.658	3	29	Feedback	Loss	False
288.077	2.821	Lose2	0.5333	n/a	No	2.821	n/a	n/a	NoResponse	-1	0.0	n/a	3	29	ISIslide	Loss	False
290.926	0.25	Win2	0.5484	0.0	Yes	2.774	0.026	n/a	GoodResponse	1	n/a	n/a	4	30	Cue	Win	True
291.176	3.9	Win2	0.5484	0.0	Yes	2.774	0.0	n/a	GoodResponse	1	n/a	n/a	4	30	Fixation	Win	True
295.075	0.26	Win2	0.5484	0.001	Yes	2.774	-0.001	3.0	GoodResponse	1	0.211	294.286	4	30	Target	Win	True
295.286	0.3	Win2	0.5484	0.001	Yes	2.774	-0.001	3.0	GoodResponse	1	0.211	n/a	4	30	ButtonPress	Win	True
295.341	0.44	Win2	0.5484	n/a	Yes	2.774	n/a	n/a	GoodResponse	1	n/a	n/a	4	30	Blank	Win	True
295.774	1.45	Win2	0.5484	n/a	Yes	2.774	n/a	5.0	GoodResponse	1	0.008	294.782	4	30	Feedback	Win	True
297.224	2.774	Win2	0.5484	n/a	Yes	2.774	n/a	n/a	GoodResponse	1	0.0	n/a	4	30	ISIslide	Win	True
300.023	0.25	Lose2	0.5312	0.0	No	2.827	0.023	n/a	LatePress	-1	n/a	n/a	3	31	Cue	Loss	True
300.273	4.05	Lose2	0.5312	0.0	No	2.827	0.0	n/a	LatePress	-1	n/a	n/a	3	31	Fixation	Loss	True
304.322	0.27	Lose2	0.5312	0.001	No	2.827	-0.001	3.0	LatePress	-1	0.274	303.596	3	31	Target	Loss	True
304.596	0.3	Lose2	0.5312	0.001	No	2.827	-0.001	3.0	LatePress	-1	0.274	n/a	3	31	ButtonPress	Loss	True
304.605	0.43	Lose2	0.5312	n/a	No	2.827	n/a	n/a	LatePress	-1	n/a	n/a	3	31	Blank	Loss	True
305.021	1.45	Lose2	0.5312	n/a	No	2.827	n/a	5.0	LatePress	-1	0.027	304.048	3	31	Feedback	Loss	True
306.471	2.827	Lose2	0.5312	n/a	No	2.827	n/a	n/a	LatePress	-1	0.0	n/a	3	31	ISIslide	Loss	True
309.32	0.25	Lose2	0.5455	0.0	Yes	2.63	0.02	n/a	GoodResponse	0	n/a	n/a	3	32	Cue	AvoidedLoss	True
309.57	4.15	Lose2	0.5455	0.0	Yes	2.63	0.0	n/a	GoodResponse	0	n/a	n/a	3	32	Fixation	AvoidedLoss	True
313.718	0.28	Lose2	0.5455	0.002	Yes	2.63	-0.002	3.0	GoodResponse	0	0.252	312.97	3	32	Target	AvoidedLoss	True
313.97	0.3	Lose2	0.5455	0.002	Yes	2.63	-0.002	3.0	GoodResponse	0	0.252	n/a	3	32	ButtonPress	AvoidedLoss	True
314.002	0.42	Lose2	0.5455	n/a	Yes	2.63	n/a	n/a	GoodResponse	0	n/a	n/a	3	32	Blank	AvoidedLoss	True
314.418	1.45	Lose2	0.5455	n/a	Yes	2.63	n/a	5.0	GoodResponse	0	0.045	313.463	3	32	Feedback	AvoidedLoss	True
315.868	2.63	Lose2	0.5455	n/a	Yes	2.63	n/a	n/a	GoodResponse	0	0.0	n/a	3	32	ISIslide	AvoidedLoss	True
318.517	0.25	Win2	0.5588000000000001	0.0	Yes	2.683	0.017	n/a	GoodResponse	1	n/a	n/a	4	33	Cue	Win	True
318.767	4.0	Win2	0.5588000000000001	0.0	Yes	2.683	0.0	n/a	GoodResponse	1	n/a	n/a	4	33	Fixation	Win	True
322.765	0.29	Win2	0.5588000000000001	0.002	Yes	2.683	-0.002	3.0	GoodResponse	1	0.217	321.982	4	33	Target	Win	True
322.982	0.3	Win2	0.5588000000000001	0.002	Yes	2.683	-0.002	3.0	GoodResponse	1	0.217	n/a	4	33	ButtonPress	Win	True
323.065	0.41	Win2	0.5588000000000001	n/a	Yes	2.683	n/a	n/a	GoodResponse	1	n/a	n/a	4	33	Blank	Win	True
323.465	1.45	Win2	0.5588000000000001	n/a	Yes	2.683	n/a	5.0	GoodResponse	1	0.022	322.487	4	33	Feedback	Win	True
324.914	2.683	Win2	0.5588000000000001	n/a	Yes	2.683	n/a	n/a	GoodResponse	1	0.0	n/a	4	33	ISIslide	Win	True
327.614	0.25	Lose2	0.5714	0.0	Yes	2.636	0.014	n/a	GoodResponse	0	n/a	n/a	4	34	Cue	AvoidedLoss	True
327.863	4.05	Lose2	0.5714	0.001	Yes	2.636	-0.001	n/a	GoodResponse	0	n/a	n/a	4	34	Fixation	AvoidedLoss	True
331.912	0.3	Lose2	0.5714	0.002	Yes	2.636	-0.002	3.0	GoodResponse	0	0.24	331.152	4	34	Target	AvoidedLoss	True
332.152	0.3	Lose2	0.5714	0.002	Yes	2.636	-0.002	3.0	GoodResponse	0	0.24	n/a	4	34	ButtonPress	AvoidedLoss	True
332.212	0.4	Lose2	0.5714	n/a	Yes	2.636	n/a	n/a	GoodResponse	0	n/a	n/a	4	34	Blank	AvoidedLoss	True
332.612	1.45	Lose2	0.5714	n/a	Yes	2.636	n/a	5.0	GoodResponse	0	0.046	331.658	4	34	Feedback	AvoidedLoss	True
334.061	2.636	Lose2	0.5714	n/a	Yes	2.636	n/a	n/a	GoodResponse	0	0.0	n/a	4	34	ISIslide	AvoidedLoss	True
336.727	0.25	Lose2	0.5832999999999999	0.0	Yes	2.673	0.027	n/a	GoodResponse	0	n/a	n/a	4	35	Cue	AvoidedLoss	True
336.977	4.0	Lose2	0.5832999999999999	0.0	Yes	2.673	0.0	n/a	GoodResponse	0	n/a	n/a	4	35	Fixation	AvoidedLoss	True
340.976	0.31	Lose2	0.5832999999999999	0.001	Yes	2.673	-0.001	3.0	GoodResponse	0	0.22	340.196	4	35	Target	AvoidedLoss	True
341.196	0.3	Lose2	0.5832999999999999	0.001	Yes	2.673	-0.001	3.0	GoodResponse	0	0.22	n/a	4	35	ButtonPress	AvoidedLoss	True
341.292	0.39	Lose2	0.5832999999999999	n/a	Yes	2.673	n/a	n/a	GoodResponse	0	n/a	n/a	4	35	Blank	AvoidedLoss	True
341.675	1.45	Lose2	0.5832999999999999	n/a	Yes	2.673	n/a	5.0	GoodResponse	0	0.008	340.683	4	35	Feedback	AvoidedLoss	True
343.125	2.673	Lose2	0.5832999999999999	n/a	Yes	2.673	n/a	n/a	GoodResponse	0	0.0	n/a	4	35	ISIslide	AvoidedLoss	True
345.824	0.25	Control	0.5946	0.0	Yes	2.676	0.024	n/a	GoodResponse	0	n/a	n/a	4	36	Cue	Neutral	True
346.074	4.0	Control	0.5946	0.0	Yes	2.676	0.0	n/a	GoodResponse	0	n/a	n/a	4	36	Fixation	Neutral	True
350.073	0.32	Control	0.5946	0.001	Yes	2.676	-0.001	3.0	GoodResponse	0	0.202	349.275	4	36	Target	Neutral	True
350.275	0.3	Control	0.5946	0.001	Yes	2.676	-0.001	3.0	GoodResponse	0	0.202	n/a	4	36	ButtonPress	Neutral	True
350.406	0.38	Control	0.5946	n/a	Yes	2.676	n/a	n/a	GoodResponse	0	n/a	n/a	4	36	Blank	Neutral	True
350.772	1.45	Control	0.5946	n/a	Yes	2.676	n/a	5.0	GoodResponse	0	0.032	349.804	4	36	Feedback	Neutral	True
352.222	2.676	Control	0.5946	n/a	Yes	2.676	n/a	n/a	GoodResponse	0	0.0	n/a	4	36	ISIslide	Neutral	True
354.921	0.25	Win2	0.6053000000000001	0.0	Yes	2.879	0.021	n/a	GoodResponse	1	n/a	n/a	5	37	Cue	Win	True
355.171	4.0	Win2	0.6053000000000001	0.0	Yes	2.879	0.0	n/a	GoodResponse	1	n/a	n/a	5	37	Fixation	Win	True
359.169	0.33	Win2	0.6053000000000001	0.002	Yes	2.879	-0.002	3.0	GoodResponse	1	0.221	358.39	5	37	Target	Win	True
359.39	0.3	Win2	0.6053000000000001	0.002	Yes	2.879	-0.002	3.0	GoodResponse	1	0.221	n/a	5	37	ButtonPress	Win	True
359.503	0.37	Win2	0.6053000000000001	n/a	Yes	2.879	n/a	n/a	GoodResponse	1	n/a	n/a	5	37	Blank	Win	True
359.869	1.45	Win2	0.6053000000000001	n/a	Yes	2.879	n/a	5.0	GoodResponse	1	0.008	358.877	5	37	Feedback	Win	True
361.319	2.879	Win2	0.6053000000000001	n/a	Yes	2.879	n/a	n/a	GoodResponse	1	0.0	n/a	5	37	ISIslide	Win	True
364.218	0.25	Lose2	0.6154	0.0	Yes	2.832	0.018	n/a	GoodResponse	0	n/a	n/a	5	38	Cue	AvoidedLoss	True
364.468	3.95	Lose2	0.6154	0.0	Yes	2.832	0.0	n/a	GoodResponse	0	n/a	n/a	5	38	Fixation	AvoidedLoss	True
368.416	0.34	Lose2	0.6154	0.002	Yes	2.832	-0.002	3.0	GoodResponse	0	0.245	367.661	5	38	Target	AvoidedLoss	True
368.661	0.3	Lose2	0.6154	0.002	Yes	2.832	-0.002	3.0	GoodResponse	0	0.245	n/a	5	38	ButtonPress	AvoidedLoss	True
368.766	0.36	Lose2	0.6154	n/a	Yes	2.832	n/a	n/a	GoodResponse	0	n/a	n/a	5	38	Blank	AvoidedLoss	True
369.116	1.45	Lose2	0.6154	n/a	Yes	2.832	n/a	5.0	GoodResponse	0	0.029	368.145	5	38	Feedback	AvoidedLoss	True
370.566	2.832	Lose2	0.6154	n/a	Yes	2.832	n/a	n/a	GoodResponse	0	0.0	n/a	5	38	ISIslide	AvoidedLoss	True
373.415	0.25	Win2	0.625	0.0	Yes	2.985	0.015	n/a	GoodResponse	1	n/a	n/a	6	39	Cue	Win	True
373.664	4.1	Win2	0.625	0.001	Yes	2.985	-0.001	n/a	GoodResponse	1	n/a	n/a	6	39	Fixation	Win	True
377.763	0.35	Win2	0.625	0.002	Yes	2.985	-0.002	3.0	GoodResponse	1	0.227	376.99	6	39	Target	Win	True
377.99	0.3	Win2	0.625	0.002	Yes	2.985	-0.002	3.0	GoodResponse	1	0.227	n/a	6	39	ButtonPress	Win	True
378.113	0.35	Win2	0.625	n/a	Yes	2.985	n/a	n/a	GoodResponse	1	n/a	n/a	6	39	Blank	Win	True
378.463	1.45	Win2	0.625	n/a	Yes	2.985	n/a	5.0	GoodResponse	1	0.001	377.464	6	39	Feedback	Win	True
379.912	2.985	Win2	0.625	n/a	Yes	2.985	n/a	n/a	GoodResponse	1	0.0	n/a	6	39	ISIslide	Win	True
382.928	0.25	Win2	0.6341	0.0	Yes	2.722	0.028	n/a	GoodResponse	1	n/a	n/a	7	40	Cue	Win	True
383.178	3.95	Win2	0.6341	0.0	Yes	2.722	0.0	n/a	GoodResponse	1	n/a	n/a	7	40	Fixation	Win	True
387.127	0.36	Win2	0.6341	0.001	Yes	2.722	-0.001	3.0	GoodResponse	1	0.256	386.383	7	40	Target	Win	True
387.383	0.3	Win2	0.6341	0.001	Yes	2.722	-0.001	3.0	GoodResponse	1	0.256	n/a	7	40	ButtonPress	Win	True
387.493	0.34	Win2	0.6341	n/a	Yes	2.722	n/a	n/a	GoodResponse	1	n/a	n/a	7	40	Blank	Win	True
387.826	1.45	Win2	0.6341	n/a	Yes	2.722	n/a	5.0	GoodResponse	1	0.007	386.833	7	40	Feedback	Win	True
389.276	2.722	Win2	0.6341	n/a	Yes	2.722	n/a	n/a	GoodResponse	1	0.0	n/a	7	40	ISIslide	Win	True
392.025	0.25	Win2	0.6429	0.0	Yes	2.775	0.025	n/a	GoodResponse	1	n/a	n/a	8	41	Cue	Win	True
392.275	3.9	Win2	0.6429	0.0	Yes	2.775	0.0	n/a	GoodResponse	1	n/a	n/a	8	41	Fixation	Win	True
396.173	0.37	Win2	0.6429	0.002	Yes	2.775	-0.002	3.0	GoodResponse	1	0.216	395.389	8	41	Target	Win	True
396.389	0.3	Win2	0.6429	0.002	Yes	2.775	-0.002	3.0	GoodResponse	1	0.216	n/a	8	41	ButtonPress	Win	True
396.557	0.33	Win2	0.6429	n/a	Yes	2.775	n/a	n/a	GoodResponse	1	n/a	n/a	8	41	Blank	Win	True
396.873	1.45	Win2	0.6429	n/a	Yes	2.775	n/a	5.0	GoodResponse	1	0.029	395.902	8	41	Feedback	Win	True
398.323	2.775	Win2	0.6429	n/a	Yes	2.775	n/a	n/a	GoodResponse	1	0.0	n/a	8	41	ISIslide	Win	True
401.122	0.25	Control	0.6512	0.0	Yes	2.928	0.022	n/a	GoodResponse	0	n/a	n/a	8	42	Cue	Neutral	True
401.372	3.85	Control	0.6512	0.0	Yes	2.928	0.0	n/a	GoodResponse	0	n/a	n/a	8	42	Fixation	Neutral	True
405.22	0.38	Control	0.6512	0.002	Yes	2.928	-0.002	3.0	GoodResponse	0	0.255	404.475	8	42	Target	Neutral	True
405.475	0.3	Control	0.6512	0.002	Yes	2.928	-0.002	3.0	GoodResponse	0	0.255	n/a	8	42	ButtonPress	Neutral	True
405.604	0.32	Control	0.6512	n/a	Yes	2.928	n/a	n/a	GoodResponse	0	n/a	n/a	8	42	Blank	Neutral	True
405.92	1.45	Control	0.6512	n/a	Yes	2.928	n/a	5.0	GoodResponse	0	0.006	404.926	8	42	Feedback	Neutral	True
407.37	2.928	Control	0.6512	n/a	Yes	2.928	n/a	n/a	GoodResponse	0	0.0	n/a	8	42	ISIslide	Neutral	True
410.319	0.25	Win2	0.6591	0.0	Yes	3.181	0.019	n/a	GoodResponse	1	n/a	n/a	9	43	Cue	Win	True
410.568	4.0	Win2	0.6591	0.001	Yes	3.181	-0.001	n/a	GoodResponse	1	n/a	n/a	9	43	Fixation	Win	True
414.567	0.39	Win2	0.6591	0.002	Yes	3.181	-0.002	3.0	GoodResponse	1	0.231	413.798	9	43	Target	Win	True
414.798	0.3	Win2	0.6591	0.002	Yes	3.181	-0.002	3.0	GoodResponse	1	0.231	n/a	9	43	ButtonPress	Win	True
414.967	0.31	Win2	0.6591	n/a	Yes	3.181	n/a	n/a	GoodResponse	1	n/a	n/a	9	43	Blank	Win	True
415.267	1.45	Win2	0.6591	n/a	Yes	3.181	n/a	5.0	GoodResponse	1	0.024	414.291	9	43	Feedback	Win	True
416.716	3.181	Win2	0.6591	n/a	Yes	3.181	n/a	n/a	GoodResponse	1	0.0	n/a	9	43	ISIslide	Win	True
419.915	0.25	Win2	0.6667000000000001	0.0	Yes	2.985	0.015	n/a	GoodResponse	1	n/a	n/a	10	44	Cue	Win	True
420.165	4.0	Win2	0.6667000000000001	0.0	Yes	2.985	0.0	n/a	GoodResponse	1	n/a	n/a	10	44	Fixation	Win	True
424.164	0.39	Win2	0.6667000000000001	0.001	Yes	2.985	-0.001	3.0	GoodResponse	1	0.202	423.366	10	44	Target	Win	True
424.366	0.3	Win2	0.6667000000000001	0.001	Yes	2.985	-0.001	3.0	GoodResponse	1	0.202	n/a	10	44	ButtonPress	Win	True
424.564	0.31	Win2	0.6667000000000001	n/a	Yes	2.985	n/a	n/a	GoodResponse	1	n/a	n/a	10	44	Blank	Win	True
424.864	1.45	Win2	0.6667000000000001	n/a	Yes	2.985	n/a	5.0	GoodResponse	1	0.037	423.901	10	44	Feedback	Win	True
426.313	2.985	Win2	0.6667000000000001	n/a	Yes	2.985	n/a	n/a	GoodResponse	1	0.0	n/a	10	44	ISIslide	Win	True
429.329	0.25	Control	0.6739	0.0	Yes	2.871	0.029	n/a	GoodResponse	0	n/a	n/a	10	45	Cue	Neutral	True
429.579	4.1	Control	0.6739	0.0	Yes	2.871	0.0	n/a	GoodResponse	0	n/a	n/a	10	45	Fixation	Neutral	True
433.677	0.38	Control	0.6739	0.002	Yes	2.871	-0.002	3.0	GoodResponse	0	0.331	433.008	10	45	Target	Neutral	True
434.008	0.3	Control	0.6739	0.002	Yes	2.871	-0.002	3.0	GoodResponse	0	0.331	n/a	10	45	ButtonPress	Neutral	True
434.06	0.32	Control	0.6739	n/a	Yes	2.871	n/a	n/a	GoodResponse	0	n/a	n/a	10	45	Blank	Neutral	True
434.377	1.45	Control	0.6739	n/a	Yes	2.871	n/a	5.0	GoodResponse	0	0.037	433.414	10	45	Feedback	Neutral	True
435.827	2.871	Control	0.6739	n/a	Yes	2.871	n/a	n/a	GoodResponse	0	0.0	n/a	10	45	ISIslide	Neutral	True
438.726	0.25	Lose2	0.6809000000000001	0.0	Yes	3.374	0.026	n/a	GoodResponse	0	n/a	n/a	10	46	Cue	AvoidedLoss	True
438.975	4.0	Lose2	0.6809000000000001	0.001	Yes	3.374	-0.001	n/a	GoodResponse	0	n/a	n/a	10	46	Fixation	AvoidedLoss	True
442.974	0.37	Lose2	0.6809000000000001	0.002	Yes	3.374	-0.002	3.0	GoodResponse	0	0.213	442.187	10	46	Target	AvoidedLoss	True
443.187	0.3	Lose2	0.6809000000000001	0.002	Yes	3.374	-0.002	3.0	GoodResponse	0	0.213	n/a	10	46	ButtonPress	AvoidedLoss	True
443.357	0.33	Lose2	0.6809000000000001	n/a	Yes	3.374	n/a	n/a	GoodResponse	0	n/a	n/a	10	46	Blank	AvoidedLoss	True
443.674	1.45	Lose2	0.6809000000000001	n/a	Yes	3.374	n/a	5.0	GoodResponse	0	0.008	442.682	10	46	Feedback	AvoidedLoss	True
445.123	3.374	Lose2	0.6809000000000001	n/a	Yes	3.374	n/a	n/a	GoodResponse	0	0.0	n/a	10	46	ISIslide	AvoidedLoss	True
448.522	0.25	Lose2	0.6875	0.0	Yes	2.678	0.022	n/a	GoodResponse	0	n/a	n/a	10	47	Cue	AvoidedLoss	True
448.772	4.0	Lose2	0.6875	0.0	Yes	2.678	0.0	n/a	GoodResponse	0	n/a	n/a	10	47	Fixation	AvoidedLoss	True
452.771	0.36	Lose2	0.6875	0.001	Yes	2.678	-0.001	3.0	GoodResponse	0	0.216	451.987	10	47	Target	AvoidedLoss	True
452.987	0.3	Lose2	0.6875	0.001	Yes	2.678	-0.001	3.0	GoodResponse	0	0.216	n/a	10	47	ButtonPress	AvoidedLoss	True
453.137	0.34	Lose2	0.6875	n/a	Yes	2.678	n/a	n/a	GoodResponse	0	n/a	n/a	10	47	Blank	AvoidedLoss	True
453.47	1.45	Lose2	0.6875	n/a	Yes	2.678	n/a	5.0	GoodResponse	0	0.017	452.487	10	47	Feedback	AvoidedLoss	True
454.92	2.678	Lose2	0.6875	n/a	Yes	2.678	n/a	n/a	GoodResponse	0	0.0	n/a	10	47	ISIslide	AvoidedLoss	True
457.619	0.25	Lose2	0.6735	0.0	No	3.031	0.019	n/a	NoResponse	-1	n/a	n/a	9	48	Cue	Loss	True
457.869	3.95	Lose2	0.6735	0.0	No	3.031	0.0	n/a	NoResponse	-1	n/a	n/a	9	48	Fixation	Loss	True
461.818	0.35	Lose2	0.6735	0.001	No	3.031	-0.001	3.0	NoResponse	-1	0.366	461.184	9	48	Target	Loss	True
462.168	0.35	Lose2	0.6735	n/a	No	3.031	n/a	n/a	NoResponse	-1	n/a	n/a	9	48	Blank	Loss	True
462.184	0.3	Lose2	0.6735	0.001	No	3.031	-0.001	3.0	NoResponse	-1	0.366	n/a	9	48	ButtonPress	Loss	True
462.517	1.45	Lose2	0.6735	n/a	No	3.031	n/a	5.0	NoResponse	-1	0.043	461.56	9	48	Feedback	Loss	True
463.967	3.031	Lose2	0.6735	n/a	No	3.031	n/a	n/a	NoResponse	-1	0.0	n/a	9	48	ISIslide	Loss	True
467.016	0.25	Control	0.66	0.0	No	2.884	0.016	n/a	NoResponse	0	n/a	n/a	9	49	Cue	Neutral	True
467.266	4.0	Control	0.66	0.0	No	2.884	0.0	n/a	NoResponse	0	n/a	n/a	9	49	Fixation	Neutral	True
471.264	0.34	Control	0.66	0.002	No	2.884	-0.002	3.0	NoResponse	0	0.471	470.735	9	49	Target	Neutral	True
471.614	0.36	Control	0.66	n/a	No	2.884	n/a	n/a	NoResponse	0	n/a	n/a	9	49	Blank	Neutral	True
471.735	0.3	Control	0.66	0.002	No	2.884	-0.002	3.0	NoResponse	0	0.471	n/a	9	49	ButtonPress	Neutral	True
471.964	1.45	Control	0.66	n/a	No	2.884	n/a	5.0	NoResponse	0	0.011	470.975	9	49	Feedback	Neutral	True
473.414	2.884	Control	0.66	n/a	No	2.884	n/a	n/a	NoResponse	0	0.0	n/a	9	49	ISIslide	Neutral	True
476.313	0.25	Control	0.6667000000000001	0.0	Yes	2.787	0.013	n/a	GoodResponse	0	n/a	n/a	9	50	Cue	Neutral	True
476.563	4.0	Control	0.6667000000000001	0.0	Yes	2.787	0.0	n/a	GoodResponse	0	n/a	n/a	9	50	Fixation	Neutral	True
480.561	0.34	Control	0.6667000000000001	0.002	Yes	2.787	-0.002	3.0	GoodResponse	0	0.189	479.75	9	50	Target	Neutral	True
480.75	0.3	Control	0.6667000000000001	0.002	Yes	2.787	-0.002	3.0	GoodResponse	0	0.189	n/a	9	50	ButtonPress	Neutral	True
480.911	0.36	Control	0.6667000000000001	n/a	Yes	2.787	n/a	n/a	GoodResponse	0	n/a	n/a	9	50	Blank	Neutral	True
481.261	1.45	Control	0.6667000000000001	n/a	Yes	2.787	n/a	5.0	GoodResponse	0	0.031	480.292	9	50	Feedback	Neutral	True
482.71	2.787	Control	0.6667000000000001	n/a	Yes	2.787	n/a	n/a	GoodResponse	0	0.0	n/a	9	50	ISIslide	Neutral	True
485.526	0.25	Control	0.6731	0.0	Yes	2.724	0.026	n/a	GoodResponse	0	n/a	n/a	9	51	Cue	Neutral	True
485.776	3.95	Control	0.6731	0.0	Yes	2.724	0.0	n/a	GoodResponse	0	n/a	n/a	9	51	Fixation	Neutral	True
489.725	0.33	Control	0.6731	0.001	Yes	2.724	-0.001	3.0	GoodResponse	0	0.265	488.99	9	51	Target	Neutral	True
489.99	0.3	Control	0.6731	0.001	Yes	2.724	-0.001	3.0	GoodResponse	0	0.265	n/a	9	51	ButtonPress	Neutral	True
490.058	0.37	Control	0.6731	n/a	Yes	2.724	n/a	n/a	GoodResponse	0	n/a	n/a	9	51	Blank	Neutral	True
490.425	1.45	Control	0.6731	n/a	Yes	2.724	n/a	5.0	GoodResponse	0	0.037	489.462	9	51	Feedback	Neutral	True
491.874	2.724	Control	0.6731	n/a	Yes	2.724	n/a	n/a	GoodResponse	0	0.0	n/a	9	51	ISIslide	Neutral	True
494.623	0.25	Control	0.6792	0.0	Yes	2.627	0.023	n/a	GoodResponse	0	n/a	n/a	9	52	Cue	Neutral	True
494.873	4.05	Control	0.6792	0.0	Yes	2.627	0.0	n/a	GoodResponse	0	n/a	n/a	9	52	Fixation	Neutral	True
498.922	0.32	Control	0.6792	0.001	Yes	2.627	-0.001	3.0	GoodResponse	0	0.237	498.159	9	52	Target	Neutral	True
499.159	0.3	Control	0.6792	0.001	Yes	2.627	-0.001	3.0	GoodResponse	0	0.237	n/a	9	52	ButtonPress	Neutral	True
499.255	0.38	Control	0.6792	n/a	Yes	2.627	n/a	n/a	GoodResponse	0	n/a	n/a	9	52	Blank	Neutral	True
499.621	1.45	Control	0.6792	n/a	Yes	2.627	n/a	5.0	GoodResponse	0	0.012	498.633	9	52	Feedback	Neutral	True
501.071	2.627	Control	0.6792	n/a	Yes	2.627	n/a	n/a	GoodResponse	0	0.0	n/a	9	52	ISIslide	Neutral	True
503.72	0.25	Win2	0.6851999999999999	0.0	Yes	2.93	0.02	n/a	GoodResponse	1	n/a	n/a	10	53	Cue	Win	False
503.97	4.05	Win2	0.6851999999999999	0.0	Yes	2.93	0.0	3.0	GoodResponse	1	0.35	503.32	10	53	Fixation	Win	False
504.32	0.3	Win2	0.6851999999999999	0.0	Yes	2.93	0.0	3.0	GoodResponse	1	0.35	n/a	10	53	ButtonPress	Win	False
508.018	0.31	Win2	0.6851999999999999	0.002	Yes	2.93	-0.002	3.0	GoodResponse	1	0.238	507.256	10	53	Target	Win	False
508.256	0.3	Win2	0.6851999999999999	0.002	Yes	2.93	-0.002	3.0	GoodResponse	1	0.238	n/a	10	53	ButtonPress	Win	False
508.335	0.39	Win2	0.6851999999999999	n/a	Yes	2.93	n/a	n/a	GoodResponse	1	n/a	n/a	10	53	Blank	Win	False
508.718	1.45	Win2	0.6851999999999999	n/a	Yes	2.93	n/a	5.0	GoodResponse	1	0.037	507.755	10	53	Feedback	Win	False
510.168	2.93	Win2	0.6851999999999999	n/a	Yes	2.93	n/a	n/a	GoodResponse	1	0.0	n/a	10	53	ISIslide	Win	False
513.117	0.25	Win2	0.6909000000000001	0.0	Yes	2.733	0.017	n/a	GoodResponse	1	n/a	n/a	11	54	Cue	Win	True
513.367	3.95	Win2	0.6909000000000001	0.0	Yes	2.733	0.0	n/a	GoodResponse	1	n/a	n/a	11	54	Fixation	Win	True
517.315	0.3	Win2	0.6909000000000001	0.002	Yes	2.733	-0.002	3.0	GoodResponse	1	0.256	516.571	11	54	Target	Win	True
517.571	0.3	Win2	0.6909000000000001	0.002	Yes	2.733	-0.002	3.0	GoodResponse	1	0.256	n/a	11	54	ButtonPress	Win	True
517.615	0.4	Win2	0.6909000000000001	n/a	Yes	2.733	n/a	n/a	GoodResponse	1	n/a	n/a	11	54	Blank	Win	True
518.015	1.45	Win2	0.6909000000000001	n/a	Yes	2.733	n/a	5.0	GoodResponse	1	0.008	517.023	11	54	Feedback	Win	True
519.465	2.733	Win2	0.6909000000000001	n/a	Yes	2.733	n/a	n/a	GoodResponse	1	0.0	n/a	11	54	ISIslide	Win	True
522.23	0.25	Control	0.6964	0.0	Yes	3.02	0.03	n/a	GoodResponse	0	n/a	n/a	11	55	Cue	Neutral	True
522.48	3.95	Control	0.6964	0.0	Yes	3.02	0.0	n/a	GoodResponse	0	n/a	n/a	11	55	Fixation	Neutral	True
526.429	0.29	Control	0.6964	0.001	Yes	3.02	-0.001	3.0	GoodResponse	0	0.268	525.697	11	55	Target	Neutral	True
526.697	0.3	Control	0.6964	0.001	Yes	3.02	-0.001	3.0	GoodResponse	0	0.268	n/a	11	55	ButtonPress	Neutral	True
526.729	0.41	Control	0.6964	n/a	Yes	3.02	n/a	n/a	GoodResponse	0	n/a	n/a	11	55	Blank	Neutral	True
527.129	1.45	Control	0.6964	n/a	Yes	3.02	n/a	5.0	GoodResponse	0	0.016	526.145	11	55	Feedback	Neutral	True
528.578	3.02	Control	0.6964	n/a	Yes	3.02	n/a	n/a	GoodResponse	0	0.0	n/a	11	55	ISIslide	Neutral	True
531.627	0.25	Control	0.6842	0.0	No	2.823	0.027	n/a	NoResponse	0	n/a	n/a	11	56	Cue	Neutral	False
531.877	3.95	Control	0.6842	0.0	No	2.823	0.0	n/a	NoResponse	0	n/a	n/a	11	56	Fixation	Neutral	False
535.826	0.28	Control	0.6842	0.001	No	2.823	-0.001	n/a	NoResponse	0	n/a	n/a	11	56	Target	Neutral	False
536.109	0.42	Control	0.6842	n/a	No	2.823	n/a	n/a	NoResponse	0	n/a	n/a	11	56	Blank	Neutral	False
536.525	1.45	Control	0.6842	n/a	No	2.823	n/a	5.0	NoResponse	0	0.035	535.56	11	56	Feedback	Neutral	False
537.975	2.823	Control	0.6842	n/a	No	2.823	n/a	n/a	NoResponse	0	0.0	n/a	11	56	ISIslide	Neutral	False
540.824	0.25	Control	0.6897	0.0	Yes	3.476	0.024	n/a	GoodResponse	0	n/a	n/a	11	57	Cue	Neutral	True
541.074	4.0	Control	0.6897	0.0	Yes	3.476	0.0	n/a	GoodResponse	0	n/a	n/a	11	57	Fixation	Neutral	True
545.072	0.27	Control	0.6897	0.002	Yes	3.476	-0.002	3.0	GoodResponse	0	0.204	544.276	11	57	Target	Neutral	True
545.276	0.3	Control	0.6897	0.002	Yes	3.476	-0.002	3.0	GoodResponse	0	0.204	n/a	11	57	ButtonPress	Neutral	True
545.356	0.43	Control	0.6897	n/a	Yes	3.476	n/a	n/a	GoodResponse	0	n/a	n/a	11	57	Blank	Neutral	True
545.772	1.45	Control	0.6897	n/a	Yes	3.476	n/a	5.0	GoodResponse	0	0.008	544.78	11	57	Feedback	Neutral	True
547.222	3.476	Control	0.6897	n/a	Yes	3.476	n/a	n/a	GoodResponse	0	0.0	n/a	11	57	ISIslide	Neutral	True
550.721	0.25	Win2	0.6949	0.0	Yes	2.729	0.021	n/a	GoodResponse	1	n/a	n/a	12	58	Cue	Win	True
550.97	4.05	Win2	0.6949	0.001	Yes	2.729	-0.001	n/a	GoodResponse	1	n/a	n/a	12	58	Fixation	Win	True
555.019	0.26	Win2	0.6949	0.002	Yes	2.729	-0.002	3.0	GoodResponse	1	0.215	554.234	12	58	Target	Win	True
555.234	0.3	Win2	0.6949	0.002	Yes	2.729	-0.002	3.0	GoodResponse	1	0.215	n/a	12	58	ButtonPress	Win	True
555.286	0.44	Win2	0.6949	n/a	Yes	2.729	n/a	n/a	GoodResponse	1	n/a	n/a	12	58	Blank	Win	True
555.719	1.45	Win2	0.6949	n/a	Yes	2.729	n/a	5.0	GoodResponse	1	0.012	554.731	12	58	Feedback	Win	True
557.168	2.729	Win2	0.6949	n/a	Yes	2.729	n/a	n/a	GoodResponse	1	0.0	n/a	12	58	ISIslide	Win	True
559.917	0.25	Lose2	0.7	0.0	Yes	2.683	0.017	n/a	GoodResponse	0	n/a	n/a	12	59	Cue	AvoidedLoss	True
560.167	4.0	Lose2	0.7	0.0	Yes	2.683	0.0	n/a	GoodResponse	0	n/a	n/a	12	59	Fixation	AvoidedLoss	True
564.166	0.25	Lose2	0.7	0.001	Yes	2.683	-0.001	3.0	GoodResponse	0	0.172	563.338	12	59	Target	AvoidedLoss	True
564.338	0.3	Lose2	0.7	0.001	Yes	2.683	-0.001	3.0	GoodResponse	0	0.172	n/a	12	59	ButtonPress	AvoidedLoss	True
564.416	0.45	Lose2	0.7	n/a	Yes	2.683	n/a	n/a	GoodResponse	0	n/a	n/a	12	59	Blank	AvoidedLoss	True
564.866	1.45	Lose2	0.7	n/a	Yes	2.683	n/a	5.0	GoodResponse	0	0.035	563.901	12	59	Feedback	AvoidedLoss	True
566.315	2.683	Lose2	0.7	n/a	Yes	2.683	n/a	n/a	GoodResponse	0	0.0	n/a	12	59	ISIslide	AvoidedLoss	True
569.014	0.25	Control	0.7049	0.0	Yes	2.686	0.014	n/a	GoodResponse	0	n/a	n/a	12	60	Cue	Neutral	True
569.264	4.0	Control	0.7049	0.0	Yes	2.686	0.0	n/a	GoodResponse	0	n/a	n/a	12	60	Fixation	Neutral	True
573.263	0.24	Control	0.7049	0.001	Yes	2.686	-0.001	3.0	GoodResponse	0	0.202	572.465	12	60	Target	Neutral	True
573.465	0.3	Control	0.7049	0.001	Yes	2.686	-0.001	3.0	GoodResponse	0	0.202	n/a	12	60	ButtonPress	Neutral	True
573.513	0.46	Control	0.7049	n/a	Yes	2.686	n/a	n/a	GoodResponse	0	n/a	n/a	12	60	Blank	Neutral	True
573.963	1.45	Control	0.7049	n/a	Yes	2.686	n/a	5.0	GoodResponse	0	0.011	572.974	12	60	Feedback	Neutral	True
575.412	2.686	Control	0.7049	n/a	Yes	2.686	n/a	n/a	GoodResponse	0	0.0	n/a	12	60	ISIslide	Neutral	True
578.128	0.25	Lose2	0.7097	0.0	Yes	2.972	0.028	n/a	GoodResponse	0	n/a	n/a	12	61	Cue	AvoidedLoss	True
578.378	4.0	Lose2	0.7097	0.0	Yes	2.972	0.0	n/a	GoodResponse	0	n/a	n/a	12	61	Fixation	AvoidedLoss	True
582.376	0.23	Lose2	0.7097	0.002	Yes	2.972	-0.002	3.0	GoodResponse	0	0.214	581.59	12	61	Target	AvoidedLoss	True
582.59	0.3	Lose2	0.7097	0.002	Yes	2.972	-0.002	3.0	GoodResponse	0	0.214	n/a	12	61	ButtonPress	AvoidedLoss	True
582.61	0.47	Lose2	0.7097	n/a	Yes	2.972	n/a	n/a	GoodResponse	0	n/a	n/a	12	61	Blank	AvoidedLoss	True
583.076	1.45	Lose2	0.7097	n/a	Yes	2.972	n/a	5.0	GoodResponse	0	0.02	582.096	12	61	Feedback	AvoidedLoss	True
584.526	2.972	Lose2	0.7097	n/a	Yes	2.972	n/a	n/a	GoodResponse	0	0.0	n/a	12	61	ISIslide	AvoidedLoss	True
587.525	0.25	Lose2	0.6984	0.0	No	2.875	0.025	n/a	NoResponse	-1	n/a	n/a	11	62	Cue	Loss	True
587.774	3.9	Lose2	0.6984	0.001	No	2.875	-0.001	n/a	NoResponse	-1	n/a	n/a	11	62	Fixation	Loss	True
591.673	0.22	Lose2	0.6984	0.002	No	2.875	-0.002	3.0	NoResponse	-1	0.245	590.918	11	62	Target	Loss	True
591.906	0.48	Lose2	0.6984	n/a	No	2.875	n/a	n/a	NoResponse	-1	n/a	n/a	11	62	Blank	Loss	True
591.918	0.3	Lose2	0.6984	0.002	No	2.875	-0.002	3.0	NoResponse	-1	0.245	n/a	11	62	ButtonPress	Loss	True
592.373	1.45	Lose2	0.6984	n/a	No	2.875	n/a	5.0	NoResponse	-1	0.04	591.413	11	62	Feedback	Loss	True
593.822	2.875	Lose2	0.6984	n/a	No	2.875	n/a	n/a	NoResponse	-1	0.0	n/a	11	62	ISIslide	Loss	True
596.721	0.25	Lose2	0.6875	0.001	No	2.629	0.021	n/a	LatePress	-1	n/a	n/a	10	63	Cue	Loss	True
596.971	4.05	Lose2	0.6875	0.0	No	2.629	0.0	n/a	LatePress	-1	n/a	n/a	10	63	Fixation	Loss	True
601.02	0.21	Lose2	0.6875	0.001	No	2.629	-0.001	3.0	LatePress	-1	0.211	600.231	10	63	Target	Loss	True
601.231	0.3	Lose2	0.6875	0.001	No	2.629	-0.001	3.0	LatePress	-1	0.211	n/a	10	63	ButtonPress	Loss	True
601.237	0.49	Lose2	0.6875	n/a	No	2.629	n/a	n/a	LatePress	-1	n/a	n/a	10	63	Blank	Loss	True
601.72	1.45	Lose2	0.6875	n/a	No	2.629	n/a	5.0	LatePress	-1	0.011	600.731	10	63	Feedback	Loss	True
603.169	2.629	Lose2	0.6875	n/a	No	2.629	n/a	n/a	LatePress	-1	0.0	n/a	10	63	ISIslide	Loss	True
605.818	0.25	Win2	0.6769	0.0	No	3.132	0.018	n/a	NoResponse	0	n/a	n/a	10	64	Cue	MissedWin	False
606.068	4.15	Win2	0.6769	0.0	No	3.132	0.0	3.0	NoResponse	0	0.224	605.292	10	64	Fixation	MissedWin	False
606.292	0.3	Win2	0.6769	0.0	No	3.132	0.0	3.0	NoResponse	0	0.224	n/a	10	64	ButtonPress	MissedWin	False
610.217	0.2	Win2	0.6769	0.001	No	3.132	-0.001	3.0	NoResponse	0	0.207	609.424	10	64	Target	MissedWin	False
610.417	0.5	Win2	0.6769	n/a	No	3.132	n/a	n/a	NoResponse	0	n/a	n/a	10	64	Blank	MissedWin	False
610.424	0.3	Win2	0.6769	0.001	No	3.132	-0.001	3.0	NoResponse	0	0.207	n/a	10	64	ButtonPress	MissedWin	False
610.917	1.45	Win2	0.6769	n/a	No	3.132	n/a	5.0	NoResponse	0	0.033	609.95	10	64	Feedback	MissedWin	False
612.366	3.132	Win2	0.6769	n/a	No	3.132	n/a	n/a	NoResponse	0	0.0	n/a	10	64	ISIslide	MissedWin	False
615.515	0.25	Control	0.6667000000000001	0.0	No	2.785	0.015	n/a	NoResponse	0	n/a	n/a	10	65	Cue	Neutral	False
615.765	4.0	Control	0.6667000000000001	0.0	No	2.785	0.0	n/a	NoResponse	0	n/a	n/a	10	65	Fixation	Neutral	False
619.764	0.19	Control	0.6667000000000001	0.001	No	2.785	-0.001	n/a	NoResponse	0	n/a	n/a	10	65	Target	Neutral	False
619.963	0.51	Control	0.6667000000000001	n/a	No	2.785	n/a	n/a	NoResponse	0	n/a	n/a	10	65	Blank	Neutral	False
620.463	1.45	Control	0.6667000000000001	n/a	No	2.785	n/a	5.0	NoResponse	0	0.048	619.511	10	65	Feedback	Neutral	False
621.913	2.785	Control	0.6667000000000001	n/a	No	2.785	n/a	n/a	NoResponse	0	0.0	n/a	10	65	ISIslide	Neutral	False
624.729	0.25	Win2	0.6567000000000001	0.0	No	2.771	0.029	n/a	LatePress	0	n/a	n/a	10	66	Cue	MissedWin	False
624.978	3.9	Win2	0.6567000000000001	0.001	No	2.771	-0.001	3.0	LatePress	0	3.633	627.611	10	66	Fixation	MissedWin	False
628.611	0.3	Win2	0.6567000000000001	0.001	No	2.771	-0.001	3.0	LatePress	0	3.633	n/a	10	66	ButtonPress	MissedWin	False
628.877	0.18	Win2	0.6567000000000001	0.002	No	2.771	-0.002	3.0	LatePress	0	0.18	628.057	10	66	Target	MissedWin	False
629.057	0.3	Win2	0.6567000000000001	0.002	No	2.771	-0.002	3.0	LatePress	0	0.18	n/a	10	66	ButtonPress	MissedWin	False
629.06	0.52	Win2	0.6567000000000001	n/a	No	2.771	n/a	n/a	LatePress	0	n/a	n/a	10	66	Blank	MissedWin	False
629.577	1.45	Win2	0.6567000000000001	n/a	No	2.771	n/a	5.0	LatePress	0	0.008	628.585	10	66	Feedback	MissedWin	False
631.026	2.771	Win2	0.6567000000000001	n/a	No	2.771	n/a	n/a	LatePress	0	0.0	n/a	10	66	ISIslide	MissedWin	False
633.825	0.25	Control	0.6470999999999999	0.0	No	2.725	0.025	n/a	NoResponse	0	n/a	n/a	10	67	Cue	Neutral	True
634.075	3.95	Control	0.6470999999999999	0.0	No	2.725	0.0	n/a	NoResponse	0	n/a	n/a	10	67	Fixation	Neutral	True
638.024	0.18	Control	0.6470999999999999	0.001	No	2.725	-0.001	3.0	NoResponse	0	0.284	637.308	10	67	Target	Neutral	True
638.207	0.52	Control	0.6470999999999999	n/a	No	2.725	n/a	n/a	NoResponse	0	n/a	n/a	10	67	Blank	Neutral	True
638.308	0.3	Control	0.6470999999999999	0.001	No	2.725	-0.001	3.0	NoResponse	0	0.284	n/a	10	67	ButtonPress	Neutral	True
638.724	1.45	Control	0.6470999999999999	n/a	No	2.725	n/a	5.0	NoResponse	0	0.031	637.755	10	67	Feedback	Neutral	True
640.173	2.725	Control	0.6470999999999999	n/a	No	2.725	n/a	n/a	NoResponse	0	0.0	n/a	10	67	ISIslide	Neutral	True
642.922	0.25	Win2	0.6377	0.0	No	3.078	0.022	n/a	NoResponse	0	n/a	n/a	10	68	Cue	MissedWin	True
643.172	4.0	Win2	0.6377	0.0	No	3.078	0.0	n/a	NoResponse	0	n/a	n/a	10	68	Fixation	MissedWin	True
647.171	0.19	Win2	0.6377	0.001	No	3.078	-0.001	3.0	NoResponse	0	0.284	646.455	10	68	Target	MissedWin	True
647.371	0.51	Win2	0.6377	n/a	No	3.078	n/a	n/a	NoResponse	0	n/a	n/a	10	68	Blank	MissedWin	True
647.455	0.3	Win2	0.6377	0.001	No	3.078	-0.001	3.0	NoResponse	0	0.284	n/a	10	68	ButtonPress	MissedWin	True
647.871	1.45	Win2	0.6377	n/a	No	3.078	n/a	5.0	NoResponse	0	0.007	646.878	10	68	Feedback	MissedWin	True
649.32	3.078	Win2	0.6377	n/a	No	3.078	n/a	n/a	NoResponse	0	0.0	n/a	10	68	ISIslide	MissedWin	True
652.419	0.25	Win2	0.6286	0.0	No	3.231	0.019	n/a	NoResponse	0	n/a	n/a	10	69	Cue	MissedWin	False
652.669	3.95	Win2	0.6286	0.0	No	3.231	0.0	3.0	NoResponse	0	0.161	651.83	10	69	Fixation	MissedWin	False
652.83	0.3	Win2	0.6286	0.0	No	3.231	0.0	3.0	NoResponse	0	0.161	n/a	10	69	ButtonPress	MissedWin	False
656.618	0.2	Win2	0.6286	0.001	No	3.231	-0.001	3.0	NoResponse	0	0.293	655.911	10	69	Target	MissedWin	False
656.818	0.5	Win2	0.6286	n/a	No	3.231	n/a	n/a	NoResponse	0	n/a	n/a	10	69	Blank	MissedWin	False
656.911	0.3	Win2	0.6286	0.001	No	3.231	-0.001	3.0	NoResponse	0	0.293	n/a	10	69	ButtonPress	MissedWin	False
657.317	1.45	Win2	0.6286	n/a	No	3.231	n/a	5.0	NoResponse	0	0.023	656.34	10	69	Feedback	MissedWin	False
658.767	3.231	Win2	0.6286	n/a	No	3.231	n/a	n/a	NoResponse	0	0.0	n/a	10	69	ISIslide	MissedWin	False
662.016	0.25	Lose2	0.6197	0.0	No	3.034	0.016	n/a	NoResponse	-1	n/a	n/a	9	70	Cue	Loss	True
662.266	4.05	Lose2	0.6197	0.0	No	3.034	0.0	n/a	NoResponse	-1	n/a	n/a	9	70	Fixation	Loss	True
666.314	0.21	Lose2	0.6197	0.002	No	3.034	-0.002	3.0	NoResponse	-1	0.269	665.583	9	70	Target	Loss	True
666.531	0.49	Lose2	0.6197	n/a	No	3.034	n/a	n/a	NoResponse	-1	n/a	n/a	9	70	Blank	Loss	True
666.583	0.3	Lose2	0.6197	0.002	No	3.034	-0.002	3.0	NoResponse	-1	0.269	n/a	9	70	ButtonPress	Loss	True
667.014	1.45	Lose2	0.6197	n/a	No	3.034	n/a	5.0	NoResponse	-1	0.034	666.048	9	70	Feedback	Loss	True
668.464	3.034	Lose2	0.6197	n/a	No	3.034	n/a	n/a	NoResponse	-1	0.0	n/a	9	70	ISIslide	Loss	True
671.529	0.25	Win2	0.6111	0.0	No	2.721	0.029	n/a	LatePress	0	n/a	n/a	9	71	Cue	MissedWin	True
671.779	4.05	Win2	0.6111	0.0	No	2.721	0.0	n/a	LatePress	0	n/a	n/a	9	71	Fixation	MissedWin	True
675.828	0.22	Win2	0.6111	0.001	No	2.721	-0.001	3.0	LatePress	0	0.222	675.05	9	71	Target	MissedWin	True
676.05	0.3	Win2	0.6111	0.001	No	2.721	-0.001	3.0	LatePress	0	0.222	n/a	9	71	ButtonPress	MissedWin	True
676.061	0.48	Win2	0.6111	n/a	No	2.721	n/a	n/a	LatePress	0	n/a	n/a	9	71	Blank	MissedWin	True
676.527	1.45	Win2	0.6111	n/a	No	2.721	n/a	5.0	LatePress	0	0.033	675.56	9	71	Feedback	MissedWin	True
677.977	2.721	Win2	0.6111	n/a	No	2.721	n/a	n/a	LatePress	0	0.0	n/a	9	71	ISIslide	MissedWin	True
680.726	0.25	Win2	0.6164000000000001	0.0	Yes	2.774	0.026	n/a	GoodResponse	1	n/a	n/a	10	72	Cue	Win	True
680.976	4.1	Win2	0.6164000000000001	0.0	Yes	2.774	0.0	n/a	GoodResponse	1	n/a	n/a	10	72	Fixation	Win	True
685.075	0.23	Win2	0.6164000000000001	0.001	Yes	2.774	-0.001	3.0	GoodResponse	1	0.221	684.296	10	72	Target	Win	True
685.296	0.3	Win2	0.6164000000000001	0.001	Yes	2.774	-0.001	3.0	GoodResponse	1	0.221	n/a	10	72	ButtonPress	Win	True
685.308	0.47	Win2	0.6164000000000001	n/a	Yes	2.774	n/a	n/a	GoodResponse	1	n/a	n/a	10	72	Blank	Win	True
685.774	1.45	Win2	0.6164000000000001	n/a	Yes	2.774	n/a	5.0	GoodResponse	1	0.007	684.781	10	72	Feedback	Win	True
687.224	2.774	Win2	0.6164000000000001	n/a	Yes	2.774	n/a	n/a	GoodResponse	1	0.0	n/a	10	72	ISIslide	Win	True
690.023	0.25	Win2	0.6081	0.0	No	2.677	0.023	n/a	NoResponse	0	n/a	n/a	10	73	Cue	MissedWin	True
690.273	4.0	Win2	0.6081	0.0	No	2.677	0.0	n/a	NoResponse	0	n/a	n/a	10	73	Fixation	MissedWin	True
694.271	0.24	Win2	0.6081	0.002	No	2.677	-0.002	3.0	NoResponse	0	0.307	693.578	10	73	Target	MissedWin	True
694.521	0.46	Win2	0.6081	n/a	No	2.677	n/a	n/a	NoResponse	0	n/a	n/a	10	73	Blank	MissedWin	True
694.578	0.3	Win2	0.6081	0.002	No	2.677	-0.002	3.0	NoResponse	0	0.307	n/a	10	73	ButtonPress	MissedWin	True
694.971	1.45	Win2	0.6081	n/a	No	2.677	n/a	5.0	NoResponse	0	0.028	693.999	10	73	Feedback	MissedWin	True
696.421	2.677	Win2	0.6081	n/a	No	2.677	n/a	n/a	NoResponse	0	0.0	n/a	10	73	ISIslide	MissedWin	True
699.12	0.25	Lose2	0.6133	0.0	Yes	2.63	0.02	n/a	GoodResponse	0	n/a	n/a	10	74	Cue	AvoidedLoss	True
699.37	4.05	Lose2	0.6133	0.0	Yes	2.63	0.0	n/a	GoodResponse	0	n/a	n/a	10	74	Fixation	AvoidedLoss	True
703.418	0.25	Lose2	0.6133	0.002	Yes	2.63	-0.002	3.0	GoodResponse	0	0.191	702.609	10	74	Target	AvoidedLoss	True
703.609	0.3	Lose2	0.6133	0.002	Yes	2.63	-0.002	3.0	GoodResponse	0	0.191	n/a	10	74	ButtonPress	AvoidedLoss	True
703.668	0.45	Lose2	0.6133	n/a	Yes	2.63	n/a	n/a	GoodResponse	0	n/a	n/a	10	74	Blank	AvoidedLoss	True
704.118	1.45	Lose2	0.6133	n/a	Yes	2.63	n/a	5.0	GoodResponse	0	0.008	703.126	10	74	Feedback	AvoidedLoss	True
705.568	2.63	Lose2	0.6133	n/a	Yes	2.63	n/a	n/a	GoodResponse	0	0.0	n/a	10	74	ISIslide	AvoidedLoss	True
708.217	0.25	Lose2	0.6184000000000001	0.0	Yes	2.933	0.017	n/a	GoodResponse	0	n/a	n/a	10	75	Cue	AvoidedLoss	True
708.467	3.95	Lose2	0.6184000000000001	0.0	Yes	2.933	0.0	n/a	GoodResponse	0	n/a	n/a	10	75	Fixation	AvoidedLoss	True
712.415	0.26	Lose2	0.6184000000000001	0.002	Yes	2.933	-0.002	3.0	GoodResponse	0	0.246	711.661	10	75	Target	AvoidedLoss	True
712.661	0.3	Lose2	0.6184000000000001	0.002	Yes	2.933	-0.002	3.0	GoodResponse	0	0.246	n/a	10	75	ButtonPress	AvoidedLoss	True
712.682	0.44	Lose2	0.6184000000000001	n/a	Yes	2.933	n/a	n/a	GoodResponse	0	n/a	n/a	10	75	Blank	AvoidedLoss	True
713.115	1.45	Lose2	0.6184000000000001	n/a	Yes	2.933	n/a	5.0	GoodResponse	0	0.03	712.145	10	75	Feedback	AvoidedLoss	True
714.564	2.933	Lose2	0.6184000000000001	n/a	Yes	2.933	n/a	n/a	GoodResponse	0	0.0	n/a	10	75	ISIslide	AvoidedLoss	True
717.513	0.25	Control	0.6234000000000001	0.001	Yes	3.237	0.013	n/a	GoodResponse	0	n/a	n/a	10	76	Cue	Neutral	True
717.763	4.05	Control	0.6234000000000001	0.0	Yes	3.237	0.0	n/a	GoodResponse	0	n/a	n/a	10	76	Fixation	Neutral	True
721.812	0.27	Control	0.6234000000000001	0.001	Yes	3.237	-0.001	3.0	GoodResponse	0	0.232	721.044	10	76	Target	Neutral	True
722.044	0.3	Control	0.6234000000000001	0.001	Yes	3.237	-0.001	3.0	GoodResponse	0	0.232	n/a	10	76	ButtonPress	Neutral	True
722.079	0.43	Control	0.6234000000000001	n/a	Yes	3.237	n/a	n/a	GoodResponse	0	n/a	n/a	10	76	Blank	Neutral	True
722.512	1.45	Control	0.6234000000000001	n/a	Yes	3.237	n/a	5.0	GoodResponse	0	0.047	721.559	10	76	Feedback	Neutral	True
723.961	3.237	Control	0.6234000000000001	n/a	Yes	3.237	n/a	n/a	GoodResponse	0	0.0	n/a	10	76	ISIslide	Neutral	True
727.227	0.25	Lose2	0.6282	0.0	Yes	2.573	0.027	n/a	GoodResponse	0	n/a	n/a	10	77	Cue	AvoidedLoss	True
727.477	3.95	Lose2	0.6282	0.0	Yes	2.573	0.0	n/a	GoodResponse	0	n/a	n/a	10	77	Fixation	AvoidedLoss	True
731.425	0.28	Lose2	0.6282	0.002	Yes	2.573	-0.002	3.0	GoodResponse	0	0.22	730.645	10	77	Target	AvoidedLoss	True
731.645	0.3	Lose2	0.6282	0.002	Yes	2.573	-0.002	3.0	GoodResponse	0	0.22	n/a	10	77	ButtonPress	AvoidedLoss	True
731.709	0.42	Lose2	0.6282	n/a	Yes	2.573	n/a	n/a	GoodResponse	0	n/a	n/a	10	77	Blank	AvoidedLoss	True
732.125	1.45	Lose2	0.6282	n/a	Yes	2.573	n/a	5.0	GoodResponse	0	0.044	731.169	10	77	Feedback	AvoidedLoss	True
733.575	2.573	Lose2	0.6282	n/a	Yes	2.573	n/a	n/a	GoodResponse	0	0.0	n/a	10	77	ISIslide	AvoidedLoss	True
