onset	duration	cue_type	current_mean_accuracy	duration_error	is_hit	isi_adjusted	onset_delay	response	response_type	reward	rt	rt_time	total_reward	trial_number	trial_phase	trial_type	one_press
11.104	0.25	Control	1.0	0.0	Yes	2.946	0.004	n/a	GoodResponse	0	n/a	n/a	0	0	Cue	Neutral	True
11.354	3.85	Control	1.0	0.0	Yes	2.946	0.0	n/a	GoodResponse	0	n/a	n/a	0	0	Fixation	Neutral	True
15.202	0.4	Control	1.0	0.002	Yes	2.946	-0.002	2.0	GoodResponse	0	0.242	14.444000000000004	0	0	Target	Neutral	True
15.444	0.3	Control	1.0	0.002	Yes	2.946	-0.002	2.0	GoodResponse	0	0.242	n/a	0	0	ButtonPress	Neutral	True
15.602	0.3	Control	1.0	n/a	Yes	2.946	n/a	n/a	GoodResponse	0	n/a	n/a	0	0	Blank	Neutral	True
15.902	1.45	Control	1.0	n/a	Yes	2.946	n/a	5.0	GoodResponse	0	0.026	14.928000000000004	0	0	Feedback	Neutral	True
17.352	2.946	Control	1.0	n/a	Yes	2.946	n/a	n/a	GoodResponse	0	0.0	n/a	0	0	ISIslide	Neutral	True
20.317	0.25	Lose2	1.0	0.0	Yes	2.783	0.017	n/a	GoodResponse	0	n/a	n/a	0	1	Cue	AvoidedLoss	True
20.567	4.0	Lose2	1.0	0.0	Yes	2.783	0.0	n/a	GoodResponse	0	n/a	n/a	0	1	Fixation	AvoidedLoss	True
24.566	0.39	Lose2	1.0	0.001	Yes	2.783	-0.001	2.0	GoodResponse	0	0.223	23.789000000000005	0	1	Target	AvoidedLoss	True
24.789	0.3	Lose2	1.0	0.001	Yes	2.783	-0.001	2.0	GoodResponse	0	0.223	n/a	0	1	ButtonPress	AvoidedLoss	True
24.966	0.31	Lose2	1.0	n/a	Yes	2.783	n/a	n/a	GoodResponse	0	n/a	n/a	0	1	Blank	AvoidedLoss	True
25.266	1.45	Lose2	1.0	n/a	Yes	2.783	n/a	5.0	GoodResponse	0	0.028	24.294000000000004	0	1	Feedback	AvoidedLoss	True
26.715	2.783	Lose2	1.0	n/a	Yes	2.783	n/a	n/a	GoodResponse	0	0.0	n/a	0	1	ISIslide	AvoidedLoss	True
29.514	0.25	Control	1.0	0.0	Yes	2.586	0.014	n/a	GoodResponse	0	n/a	n/a	0	2	Cue	Neutral	True
29.764	4.1	Control	1.0	0.0	Yes	2.586	0.0	n/a	GoodResponse	0	n/a	n/a	0	2	Fixation	Neutral	True
33.863	0.38	Control	1.0	0.001	Yes	2.586	-0.001	2.0	GoodResponse	0	0.264	33.127	0	2	Target	Neutral	True
34.127	0.3	Control	1.0	0.001	Yes	2.586	-0.001	2.0	GoodResponse	0	0.264	n/a	0	2	ButtonPress	Neutral	True
34.246	0.32	Control	1.0	n/a	Yes	2.586	n/a	n/a	GoodResponse	0	n/a	n/a	0	2	Blank	Neutral	True
34.562	1.45	Control	1.0	n/a	Yes	2.586	n/a	5.0	GoodResponse	0	0.001	33.563	0	2	Feedback	Neutral	True
36.012	2.586	Control	1.0	n/a	Yes	2.586	n/a	n/a	GoodResponse	0	0.0	n/a	0	2	ISIslide	Neutral	True
38.628	0.25	Win2	1.0	0.0	Yes	2.822	0.028	n/a	GoodResponse	1	n/a	n/a	1	3	Cue	Win	True
38.878	3.95	Win2	1.0	0.0	Yes	2.822	0.0	n/a	GoodResponse	1	n/a	n/a	1	3	Fixation	Win	True
42.826	0.37	Win2	1.0	0.002	Yes	2.822	-0.002	2.0	GoodResponse	1	0.224	42.05	1	3	Target	Win	True
43.05	0.3	Win2	1.0	0.002	Yes	2.822	-0.002	2.0	GoodResponse	1	0.224	n/a	1	3	ButtonPress	Win	True
43.209	0.33	Win2	1.0	n/a	Yes	2.822	n/a	n/a	GoodResponse	1	n/a	n/a	1	3	Blank	Win	True
43.526	1.45	Win2	1.0	n/a	Yes	2.822	n/a	5.0	GoodResponse	1	0.013	42.539	1	3	Feedback	Win	True
44.975	2.822	Win2	1.0	n/a	Yes	2.822	n/a	n/a	GoodResponse	1	0.0	n/a	1	3	ISIslide	Win	True
47.824	0.25	Win2	1.0	0.001	Yes	3.276	0.024	n/a	GoodResponse	1	n/a	n/a	2	4	Cue	Win	True
48.074	4.0	Win2	1.0	0.0	Yes	3.276	0.0	n/a	GoodResponse	1	n/a	n/a	2	4	Fixation	Win	True
52.073	0.36	Win2	1.0	0.001	Yes	3.276	-0.001	2.0	GoodResponse	1	0.194	51.267	2	4	Target	Win	True
52.267	0.3	Win2	1.0	0.001	Yes	3.276	-0.001	2.0	GoodResponse	1	0.194	n/a	2	4	ButtonPress	Win	True
52.44	0.34	Win2	1.0	n/a	Yes	3.276	n/a	n/a	GoodResponse	1	n/a	n/a	2	4	Blank	Win	True
52.773	1.45	Win2	1.0	n/a	Yes	3.276	n/a	5.0	GoodResponse	1	0.034	51.807	2	4	Feedback	Win	True
54.222	3.276	Win2	1.0	n/a	Yes	3.276	n/a	n/a	GoodResponse	1	0.0	n/a	2	4	ISIslide	Win	True
57.521	0.25	Win2	1.0	0.0	Yes	2.779	0.021	n/a	GoodResponse	1	n/a	n/a	3	5	Cue	Win	True
57.771	4.0	Win2	1.0	0.0	Yes	2.779	0.0	n/a	GoodResponse	1	n/a	n/a	3	5	Fixation	Win	True
61.77	0.35	Win2	1.0	0.001	Yes	2.779	-0.001	2.0	GoodResponse	1	0.293	61.063	3	5	Target	Win	True
62.063	0.3	Win2	1.0	0.001	Yes	2.779	-0.001	2.0	GoodResponse	1	0.293	n/a	3	5	ButtonPress	Win	True
62.12	0.35	Win2	1.0	n/a	Yes	2.779	n/a	n/a	GoodResponse	1	n/a	n/a	3	5	Blank	Win	True
62.469	1.45	Win2	1.0	n/a	Yes	2.779	n/a	5.0	GoodResponse	1	0.045	61.514	3	5	Feedback	Win	True
63.919	2.779	Win2	1.0	n/a	Yes	2.779	n/a	n/a	GoodResponse	1	0.0	n/a	3	5	ISIslide	Win	True
66.718	0.25	Lose2	1.0	0.0	Yes	2.732	0.018	n/a	GoodResponse	0	n/a	n/a	3	6	Cue	AvoidedLoss	True
66.968	3.95	Lose2	1.0	0.0	Yes	2.732	0.0	n/a	GoodResponse	0	n/a	n/a	3	6	Fixation	AvoidedLoss	True
70.916	0.34	Lose2	1.0	0.002	Yes	2.732	-0.002	2.0	GoodResponse	0	0.253	70.169	3	6	Target	AvoidedLoss	True
71.169	0.3	Lose2	1.0	0.002	Yes	2.732	-0.002	2.0	GoodResponse	0	0.253	n/a	3	6	ButtonPress	AvoidedLoss	True
71.266	0.36	Lose2	1.0	n/a	Yes	2.732	n/a	n/a	GoodResponse	0	n/a	n/a	3	6	Blank	AvoidedLoss	True
71.616	1.45	Lose2	1.0	n/a	Yes	2.732	n/a	5.0	GoodResponse	0	0.02	70.636	3	6	Feedback	AvoidedLoss	True
73.066	2.732	Lose2	1.0	n/a	Yes	2.732	n/a	n/a	GoodResponse	0	0.0	n/a	3	6	ISIslide	AvoidedLoss	True
75.815	0.25	Lose2	1.0	0.0	Yes	4.035	0.015	n/a	GoodResponse	0	n/a	n/a	3	7	Cue	AvoidedLoss	True
76.065	4.05	Lose2	1.0	0.0	Yes	4.035	0.0	n/a	GoodResponse	0	n/a	n/a	3	7	Fixation	AvoidedLoss	True
80.113	0.33	Lose2	1.0	0.002	Yes	4.035	-0.002	2.0	GoodResponse	0	0.253	79.366	3	7	Target	AvoidedLoss	True
80.366	0.3	Lose2	1.0	0.002	Yes	4.035	-0.002	2.0	GoodResponse	0	0.253	n/a	3	7	ButtonPress	AvoidedLoss	True
80.447	0.37	Lose2	1.0	n/a	Yes	4.035	n/a	n/a	GoodResponse	0	n/a	n/a	3	7	Blank	AvoidedLoss	True
80.813	1.45	Lose2	1.0	n/a	Yes	4.035	n/a	5.0	GoodResponse	0	0.042	79.855	3	7	Feedback	AvoidedLoss	True
82.263	4.035	Lose2	1.0	n/a	Yes	4.035	n/a	n/a	GoodResponse	0	0.0	n/a	3	7	ISIslide	AvoidedLoss	True
86.328	0.25	Lose2	1.0	0.0	Yes	3.022	0.028	n/a	GoodResponse	0	n/a	n/a	3	8	Cue	AvoidedLoss	True
86.578	3.95	Lose2	1.0	0.0	Yes	3.022	0.0	n/a	GoodResponse	0	n/a	n/a	3	8	Fixation	AvoidedLoss	True
90.526	0.32	Lose2	1.0	0.002	Yes	3.022	-0.002	2.0	GoodResponse	0	0.254	89.78	3	8	Target	AvoidedLoss	True
90.78	0.3	Lose2	1.0	0.002	Yes	3.022	-0.002	2.0	GoodResponse	0	0.254	n/a	3	8	ButtonPress	AvoidedLoss	True
90.86	0.38	Lose2	1.0	n/a	Yes	3.022	n/a	n/a	GoodResponse	0	n/a	n/a	3	8	Blank	AvoidedLoss	True
91.226	1.45	Lose2	1.0	n/a	Yes	3.022	n/a	5.0	GoodResponse	0	0.02	90.246	3	8	Feedback	AvoidedLoss	True
92.676	3.022	Lose2	1.0	n/a	Yes	3.022	n/a	n/a	GoodResponse	0	0.0	n/a	3	8	ISIslide	AvoidedLoss	True
95.725	0.25	Lose2	1.0	0.0	Yes	3.125	0.025	n/a	GoodResponse	0	n/a	n/a	3	9	Cue	AvoidedLoss	True
95.974	3.95	Lose2	1.0	0.001	Yes	3.125	-0.001	n/a	GoodResponse	0	n/a	n/a	3	9	Fixation	AvoidedLoss	True
99.923	0.31	Lose2	1.0	0.002	Yes	3.125	-0.002	2.0	GoodResponse	0	0.243	99.166	3	9	Target	AvoidedLoss	True
100.166	0.3	Lose2	1.0	0.002	Yes	3.125	-0.002	2.0	GoodResponse	0	0.243	n/a	3	9	ButtonPress	AvoidedLoss	True
100.24	0.39	Lose2	1.0	n/a	Yes	3.125	n/a	n/a	GoodResponse	0	n/a	n/a	3	9	Blank	AvoidedLoss	True
100.623	1.45	Lose2	1.0	n/a	Yes	3.125	n/a	5.0	GoodResponse	0	0.037	99.66	3	9	Feedback	AvoidedLoss	True
102.072	3.125	Lose2	1.0	n/a	Yes	3.125	n/a	n/a	GoodResponse	0	0.0	n/a	3	9	ISIslide	AvoidedLoss	True
105.221	0.25	Control	1.0	0.0	Yes	3.279	0.021	n/a	GoodResponse	0	n/a	n/a	3	10	Cue	Neutral	True
105.471	4.0	Control	1.0	0.0	Yes	3.279	0.0	n/a	GoodResponse	0	n/a	n/a	3	10	Fixation	Neutral	True
109.47	0.3	Control	1.0	0.001	Yes	3.279	-0.001	2.0	GoodResponse	0	0.224	108.694	3	10	Target	Neutral	True
109.694	0.3	Control	1.0	0.001	Yes	3.279	-0.001	2.0	GoodResponse	0	0.224	n/a	3	10	ButtonPress	Neutral	True
109.77	0.4	Control	1.0	n/a	Yes	3.279	n/a	n/a	GoodResponse	0	n/a	n/a	3	10	Blank	Neutral	True
110.17	1.45	Control	1.0	n/a	Yes	3.279	n/a	5.0	GoodResponse	0	0.005	109.175	3	10	Feedback	Neutral	True
111.619	3.279	Control	1.0	n/a	Yes	3.279	n/a	n/a	GoodResponse	0	0.0	n/a	3	10	ISIslide	Neutral	True
114.918	0.25	Lose2	1.0	0.0	Yes	2.732	0.018	n/a	GoodResponse	0	n/a	n/a	3	11	Cue	AvoidedLoss	True
115.168	4.05	Lose2	1.0	0.0	Yes	2.732	0.0	n/a	GoodResponse	0	n/a	n/a	3	11	Fixation	AvoidedLoss	True
119.216	0.29	Lose2	1.0	0.002	Yes	2.732	-0.002	2.0	GoodResponse	0	0.2	118.416	3	11	Target	AvoidedLoss	True
119.416	0.3	Lose2	1.0	0.002	Yes	2.732	-0.002	2.0	GoodResponse	0	0.2	n/a	3	11	ButtonPress	AvoidedLoss	True
119.516	0.41	Lose2	1.0	n/a	Yes	2.732	n/a	n/a	GoodResponse	0	n/a	n/a	3	11	Blank	AvoidedLoss	True
119.916	1.45	Lose2	1.0	n/a	Yes	2.732	n/a	5.0	GoodResponse	0	0.013	118.929	3	11	Feedback	AvoidedLoss	True
121.366	2.732	Lose2	1.0	n/a	Yes	2.732	n/a	n/a	GoodResponse	0	0.0	n/a	3	11	ISIslide	AvoidedLoss	True
124.115	0.25	Control	0.9231	0.0	No	2.985	0.015	n/a	NoResponse	0	n/a	n/a	3	12	Cue	Neutral	True
124.365	3.9	Control	0.9231	0.0	No	2.985	0.0	n/a	NoResponse	0	n/a	n/a	3	12	Fixation	Neutral	True
128.263	0.28	Control	0.9231	0.002	No	2.985	-0.002	2.0	NoResponse	0	0.309	127.572	3	12	Target	Neutral	True
128.547	0.42	Control	0.9231	n/a	No	2.985	n/a	n/a	NoResponse	0	n/a	n/a	3	12	Blank	Neutral	True
128.572	0.3	Control	0.9231	0.002	No	2.985	-0.002	2.0	NoResponse	0	0.309	n/a	3	12	ButtonPress	Neutral	True
128.963	1.45	Control	0.9231	n/a	No	2.985	n/a	5.0	NoResponse	0	0.039	128.002	3	12	Feedback	Neutral	True
130.413	2.985	Control	0.9231	n/a	No	2.985	n/a	n/a	NoResponse	0	0.0	n/a	3	12	ISIslide	Neutral	True
133.412	0.25	Control	0.9286	0.0	Yes	2.788	0.012	n/a	GoodResponse	0	n/a	n/a	3	13	Cue	Neutral	True
133.661	4.0	Control	0.9286	0.001	Yes	2.788	-0.001	n/a	GoodResponse	0	n/a	n/a	3	13	Fixation	Neutral	True
137.66	0.27	Control	0.9286	0.002	Yes	2.788	-0.002	2.0	GoodResponse	0	0.228	136.888	3	13	Target	Neutral	True
137.888	0.3	Control	0.9286	0.002	Yes	2.788	-0.002	2.0	GoodResponse	0	0.228	n/a	3	13	ButtonPress	Neutral	True
137.943	0.43	Control	0.9286	n/a	Yes	2.788	n/a	n/a	GoodResponse	0	n/a	n/a	3	13	Blank	Neutral	True
138.36	1.45	Control	0.9286	n/a	Yes	2.788	n/a	5.0	GoodResponse	0	0.007	137.367	3	13	Feedback	Neutral	True
139.809	2.788	Control	0.9286	n/a	Yes	2.788	n/a	n/a	GoodResponse	0	0.0	n/a	3	13	ISIslide	Neutral	True
142.625	0.25	Win2	0.9333	0.0	Yes	2.675	0.025	n/a	GoodResponse	1	n/a	n/a	4	14	Cue	Win	True
142.875	4.1	Win2	0.9333	0.0	Yes	2.675	0.0	n/a	GoodResponse	1	n/a	n/a	4	14	Fixation	Win	True
146.974	0.26	Win2	0.9333	0.001	Yes	2.675	-0.001	2.0	GoodResponse	1	0.221	146.195	4	14	Target	Win	True
147.195	0.3	Win2	0.9333	0.001	Yes	2.675	-0.001	2.0	GoodResponse	1	0.221	n/a	4	14	ButtonPress	Win	True
147.24	0.44	Win2	0.9333	n/a	Yes	2.675	n/a	n/a	GoodResponse	1	n/a	n/a	4	14	Blank	Win	True
147.673	1.45	Win2	0.9333	n/a	Yes	2.675	n/a	5.0	GoodResponse	1	0.011	146.684	4	14	Feedback	Win	True
149.123	2.675	Win2	0.9333	n/a	Yes	2.675	n/a	n/a	GoodResponse	1	0.0	n/a	4	14	ISIslide	Win	True
151.822	0.25	Control	0.9375	0.0	Yes	2.978	0.022	n/a	GoodResponse	0	n/a	n/a	4	15	Cue	Neutral	True
152.072	4.0	Control	0.9375	0.0	Yes	2.978	0.0	n/a	GoodResponse	0	n/a	n/a	4	15	Fixation	Neutral	True
156.07	0.25	Control	0.9375	0.002	Yes	2.978	-0.002	2.0	GoodResponse	0	0.233	155.303	4	15	Target	Neutral	True
156.303	0.3	Control	0.9375	0.002	Yes	2.978	-0.002	2.0	GoodResponse	0	0.233	n/a	4	15	ButtonPress	Neutral	True
156.32	0.45	Control	0.9375	n/a	Yes	2.978	n/a	n/a	GoodResponse	0	n/a	n/a	4	15	Blank	Neutral	True
156.77	1.45	Control	0.9375	n/a	Yes	2.978	n/a	5.0	GoodResponse	0	0.036	155.806	4	15	Feedback	Neutral	True
158.22	2.978	Control	0.9375	n/a	Yes	2.978	n/a	n/a	GoodResponse	0	0.0	n/a	4	15	ISIslide	Neutral	True
161.219	0.25	Win2	0.8824	0.0	No	2.881	0.019	n/a	LatePress	0	n/a	n/a	4	16	Cue	MissedWin	True
161.468	4.0	Win2	0.8824	0.001	No	2.881	-0.001	n/a	LatePress	0	n/a	n/a	4	16	Fixation	MissedWin	True
165.467	0.24	Win2	0.8824	0.002	No	2.881	-0.002	2.0	LatePress	0	0.241	164.708	4	16	Target	MissedWin	True
165.708	0.3	Win2	0.8824	0.002	No	2.881	-0.002	2.0	LatePress	0	0.241	n/a	4	16	ButtonPress	MissedWin	True
165.717	0.46	Win2	0.8824	n/a	No	2.881	n/a	n/a	LatePress	0	n/a	n/a	4	16	Blank	MissedWin	True
166.167	1.45	Win2	0.8824	n/a	No	2.881	n/a	5.0	LatePress	0	0.006	165.173	4	16	Feedback	MissedWin	True
167.616	2.881	Win2	0.8824	n/a	No	2.881	n/a	n/a	LatePress	0	0.0	n/a	4	16	ISIslide	MissedWin	True
170.515	0.25	Lose2	0.8332999999999999	0.0	No	2.735	0.015	n/a	NoResponse	-1	n/a	n/a	3	17	Cue	Loss	True
170.765	3.95	Lose2	0.8332999999999999	0.0	No	2.735	0.0	n/a	NoResponse	-1	n/a	n/a	3	17	Fixation	Loss	True
174.714	0.23	Lose2	0.8332999999999999	0.001	No	2.735	-0.001	2.0	NoResponse	-1	0.247	173.961	3	17	Target	Loss	True
174.947	0.47	Lose2	0.8332999999999999	n/a	No	2.735	n/a	n/a	NoResponse	-1	n/a	n/a	3	17	Blank	Loss	True
174.961	0.3	Lose2	0.8332999999999999	0.001	No	2.735	-0.001	2.0	NoResponse	-1	0.247	n/a	3	17	ButtonPress	Loss	True
175.414	1.45	Lose2	0.8332999999999999	n/a	No	2.735	n/a	5.0	NoResponse	-1	0.027	174.441	3	17	Feedback	Loss	True
176.863	2.735	Lose2	0.8332999999999999	n/a	No	2.735	n/a	n/a	NoResponse	-1	0.0	n/a	3	17	ISIslide	Loss	True
179.629	0.25	Lose2	0.8421	0.0	Yes	2.721	0.029	n/a	GoodResponse	0	n/a	n/a	3	18	Cue	AvoidedLoss	True
179.879	4.05	Lose2	0.8421	0.0	Yes	2.721	0.0	n/a	GoodResponse	0	n/a	n/a	3	18	Fixation	AvoidedLoss	True
183.927	0.22	Lose2	0.8421	0.002	Yes	2.721	-0.002	2.0	GoodResponse	0	0.207	183.134	3	18	Target	AvoidedLoss	True
184.134	0.3	Lose2	0.8421	0.002	Yes	2.721	-0.002	2.0	GoodResponse	0	0.207	n/a	3	18	ButtonPress	AvoidedLoss	True
184.161	0.48	Lose2	0.8421	n/a	Yes	2.721	n/a	n/a	GoodResponse	0	n/a	n/a	3	18	Blank	AvoidedLoss	True
184.627	1.45	Lose2	0.8421	n/a	Yes	2.721	n/a	5.0	GoodResponse	0	0.033	183.66	3	18	Feedback	AvoidedLoss	True
186.077	2.721	Lose2	0.8421	n/a	Yes	2.721	n/a	n/a	GoodResponse	0	0.0	n/a	3	18	ISIslide	AvoidedLoss	True
188.826	0.25	Control	0.8	0.0	No	2.924	0.026	n/a	NoResponse	0	n/a	n/a	3	19	Cue	Neutral	True
189.076	3.95	Control	0.8	0.0	No	2.924	0.0	n/a	NoResponse	0	n/a	n/a	3	19	Fixation	Neutral	True
193.024	0.21	Control	0.8	0.002	No	2.924	-0.002	2.0	NoResponse	0	0.374	192.398	3	19	Target	Neutral	True
193.241	0.49	Control	0.8	n/a	No	2.924	n/a	n/a	NoResponse	0	n/a	n/a	3	19	Blank	Neutral	True
193.398	0.3	Control	0.8	0.002	No	2.924	-0.002	2.0	NoResponse	0	0.374	n/a	3	19	ButtonPress	Neutral	True
193.724	1.45	Control	0.8	n/a	No	2.924	n/a	5.0	NoResponse	0	0.009	192.733	3	19	Feedback	Neutral	True
195.174	2.924	Control	0.8	n/a	No	2.924	n/a	n/a	NoResponse	0	0.0	n/a	3	19	ISIslide	Neutral	True
198.122	0.25	Control	0.7619	0.001	No	2.628	0.022	n/a	NoResponse	0	n/a	n/a	3	20	Cue	Neutral	True
198.372	4.05	Control	0.7619	0.001	No	2.628	0.0	n/a	NoResponse	0	n/a	n/a	3	20	Fixation	Neutral	True
202.421	0.2	Control	0.7619	0.001	No	2.628	-0.001	2.0	NoResponse	0	0.202	201.623	3	20	Target	Neutral	True
202.621	0.5	Control	0.7619	n/a	No	2.628	n/a	n/a	NoResponse	0	n/a	n/a	3	20	Blank	Neutral	True
202.623	0.3	Control	0.7619	0.001	No	2.628	-0.001	2.0	NoResponse	0	0.202	n/a	3	20	ButtonPress	Neutral	True
203.121	1.45	Control	0.7619	n/a	No	2.628	n/a	5.0	NoResponse	0	0.027	202.148	3	20	Feedback	Neutral	True
204.57	2.628	Control	0.7619	n/a	No	2.628	n/a	n/a	NoResponse	0	0.0	n/a	3	20	ISIslide	Neutral	True
207.219	0.25	Control	0.7273000000000001	0.0	No	2.781	0.019	n/a	NoResponse	0	n/a	n/a	3	21	Cue	Neutral	True
207.469	4.1	Control	0.7273000000000001	0.0	No	2.781	0.0	n/a	NoResponse	0	n/a	n/a	3	21	Fixation	Neutral	True
211.568	0.19	Control	0.7273000000000001	0.001	No	2.781	-0.001	2.0	NoResponse	0	0.284	210.852	3	21	Target	Neutral	True
211.768	0.51	Control	0.7273000000000001	n/a	No	2.781	n/a	n/a	NoResponse	0	n/a	n/a	3	21	Blank	Neutral	True
211.852	0.3	Control	0.7273000000000001	0.001	No	2.781	-0.001	2.0	NoResponse	0	0.284	n/a	3	21	ButtonPress	Neutral	True
212.268	1.45	Control	0.7273000000000001	n/a	No	2.781	n/a	5.0	NoResponse	0	0.007	211.275	3	21	Feedback	Neutral	True
213.717	2.781	Control	0.7273000000000001	n/a	No	2.781	n/a	n/a	NoResponse	0	0.0	n/a	3	21	ISIslide	Neutral	True
216.516	0.25	Control	0.6957	0.0	No	2.784	0.016	n/a	NoResponse	0	n/a	n/a	3	22	Cue	Neutral	True
216.766	4.0	Control	0.6957	0.0	No	2.784	0.0	n/a	NoResponse	0	n/a	n/a	3	22	Fixation	Neutral	True
220.765	0.18	Control	0.6957	0.001	No	2.784	-0.001	2.0	NoResponse	0	0.326	220.091	3	22	Target	Neutral	True
220.948	0.52	Control	0.6957	n/a	No	2.784	n/a	n/a	NoResponse	0	n/a	n/a	3	22	Blank	Neutral	True
221.091	0.3	Control	0.6957	0.001	No	2.784	-0.001	2.0	NoResponse	0	0.326	n/a	3	22	ButtonPress	Neutral	True
221.464	1.45	Control	0.6957	n/a	No	2.784	n/a	5.0	NoResponse	0	0.025	220.489	3	22	Feedback	Neutral	True
222.914	2.784	Control	0.6957	n/a	No	2.784	n/a	n/a	NoResponse	0	0.0	n/a	3	22	ISIslide	Neutral	True
225.73	0.25	Control	0.6667000000000001	0.0	No	2.77	0.03	n/a	NoResponse	0	n/a	n/a	3	23	Cue	Neutral	True
225.98	3.9	Control	0.6667000000000001	0.0	No	2.77	0.0	n/a	NoResponse	0	n/a	n/a	3	23	Fixation	Neutral	True
229.878	0.17	Control	0.6667000000000001	0.002	No	2.77	-0.002	2.0	NoResponse	0	0.235	229.113	3	23	Target	Neutral	True
230.061	0.53	Control	0.6667000000000001	n/a	No	2.77	n/a	n/a	NoResponse	0	n/a	n/a	3	23	Blank	Neutral	True
230.113	0.3	Control	0.6667000000000001	0.002	No	2.77	-0.002	2.0	NoResponse	0	0.235	n/a	3	23	ButtonPress	Neutral	True
230.578	1.45	Control	0.6667000000000001	n/a	No	2.77	n/a	5.0	NoResponse	0	0.033	229.611	3	23	Feedback	Neutral	True
232.027	2.77	Control	0.6667000000000001	n/a	No	2.77	n/a	n/a	NoResponse	0	0.0	n/a	3	23	ISIslide	Neutral	True
234.826	0.25	Win2	0.64	0.001	No	3.124	0.026	n/a	NoResponse	0	n/a	n/a	3	24	Cue	MissedWin	True
235.076	3.95	Win2	0.64	0.0	No	3.124	0.0	n/a	NoResponse	0	n/a	n/a	3	24	Fixation	MissedWin	True
239.025	0.16	Win2	0.64	0.001	No	3.124	-0.001	2.0	NoResponse	0	0.227	238.252	3	24	Target	MissedWin	True
239.192	0.54	Win2	0.64	n/a	No	3.124	n/a	n/a	NoResponse	0	n/a	n/a	3	24	Blank	MissedWin	True
239.252	0.3	Win2	0.64	0.001	No	3.124	-0.001	2.0	NoResponse	0	0.227	n/a	3	24	ButtonPress	MissedWin	True
239.725	1.45	Win2	0.64	n/a	No	3.124	n/a	5.0	NoResponse	0	0.008	238.733	3	24	Feedback	MissedWin	True
241.174	3.124	Win2	0.64	n/a	No	3.124	n/a	n/a	NoResponse	0	0.0	n/a	3	24	ISIslide	MissedWin	True
244.323	0.25	Win2	0.6154	0.0	No	3.077	0.023	n/a	NoResponse	0	n/a	n/a	3	25	Cue	MissedWin	True
244.573	4.0	Win2	0.6154	0.0	No	3.077	0.0	n/a	NoResponse	0	n/a	n/a	3	25	Fixation	MissedWin	True
248.572	0.17	Win2	0.6154	0.001	No	3.077	-0.001	2.0	NoResponse	0	0.271	247.843	3	25	Target	MissedWin	True
248.755	0.53	Win2	0.6154	n/a	No	3.077	n/a	n/a	NoResponse	0	n/a	n/a	3	25	Blank	MissedWin	True
248.843	0.3	Win2	0.6154	0.001	No	3.077	-0.001	2.0	NoResponse	0	0.271	n/a	3	25	ButtonPress	MissedWin	True
249.271	1.45	Win2	0.6154	n/a	No	3.077	n/a	5.0	NoResponse	0	0.022	248.293	3	25	Feedback	MissedWin	True
250.721	3.077	Win2	0.6154	n/a	No	3.077	n/a	n/a	NoResponse	0	0.0	n/a	3	25	ISIslide	MissedWin	True
253.82	0.25	Win2	0.5926	0.0	No	2.93	0.02	n/a	NoResponse	0	n/a	n/a	3	26	Cue	MissedWin	True
254.07	3.95	Win2	0.5926	0.0	No	2.93	0.0	n/a	NoResponse	0	n/a	n/a	3	26	Fixation	MissedWin	True
258.018	0.18	Win2	0.5926	0.002	No	2.93	-0.002	2.0	NoResponse	0	0.246	257.264	3	26	Target	MissedWin	True
258.202	0.52	Win2	0.5926	n/a	No	2.93	n/a	n/a	NoResponse	0	n/a	n/a	3	26	Blank	MissedWin	True
258.264	0.3	Win2	0.5926	0.002	No	2.93	-0.002	2.0	NoResponse	0	0.246	n/a	3	26	ButtonPress	MissedWin	True
258.718	1.45	Win2	0.5926	n/a	No	2.93	n/a	5.0	NoResponse	0	0.039	257.757	3	26	Feedback	MissedWin	True
260.168	2.93	Win2	0.5926	n/a	No	2.93	n/a	n/a	NoResponse	0	0.0	n/a	3	26	ISIslide	MissedWin	True
263.117	0.25	Lose2	0.5714	0.0	No	2.833	0.017	n/a	NoResponse	-1	n/a	n/a	2	27	Cue	Loss	True
263.367	4.05	Lose2	0.5714	0.0	No	2.833	0.0	n/a	NoResponse	-1	n/a	n/a	2	27	Fixation	Loss	True
267.415	0.19	Lose2	0.5714	0.002	No	2.833	-0.002	2.0	NoResponse	-1	0.201	266.616	2	27	Target	Loss	True
267.615	0.51	Lose2	0.5714	n/a	No	2.833	n/a	n/a	NoResponse	-1	n/a	n/a	2	27	Blank	Loss	True
267.616	0.3	Lose2	0.5714	0.002	No	2.833	-0.002	2.0	NoResponse	-1	0.201	n/a	2	27	ButtonPress	Loss	True
268.115	1.45	Lose2	0.5714	n/a	No	2.833	n/a	5.0	NoResponse	-1	0.008	267.123	2	27	Feedback	Loss	True
269.564	2.833	Lose2	0.5714	n/a	No	2.833	n/a	n/a	NoResponse	-1	0.0	n/a	2	27	ISIslide	Loss	True
272.413	0.25	Control	0.5517	0.001	No	2.837	0.013	n/a	NoResponse	0	n/a	n/a	2	28	Cue	Neutral	True
272.663	4.05	Control	0.5517	0.0	No	2.837	0.0	n/a	NoResponse	0	n/a	n/a	2	28	Fixation	Neutral	True
276.712	0.2	Control	0.5517	0.001	No	2.837	-0.001	2.0	NoResponse	0	0.208	275.92	2	28	Target	Neutral	True
276.912	0.5	Control	0.5517	n/a	No	2.837	n/a	n/a	NoResponse	0	n/a	n/a	2	28	Blank	Neutral	True
276.92	0.3	Control	0.5517	0.001	No	2.837	-0.001	2.0	NoResponse	0	0.208	n/a	2	28	ButtonPress	Neutral	True
277.412	1.45	Control	0.5517	n/a	No	2.837	n/a	5.0	NoResponse	0	0.028	276.44	2	28	Feedback	Neutral	True
278.861	2.837	Control	0.5517	n/a	No	2.837	n/a	n/a	NoResponse	0	0.0	n/a	2	28	ISIslide	Neutral	True
281.727	0.25	Lose2	0.5333	0.0	No	2.823	0.027	n/a	NoResponse	-1	n/a	n/a	1	29	Cue	Loss	True
281.977	3.95	Lose2	0.5333	0.0	No	2.823	0.0	n/a	NoResponse	-1	n/a	n/a	1	29	Fixation	Loss	True
285.925	0.21	Lose2	0.5333	0.002	No	2.823	-0.002	2.0	NoResponse	-1	0.23	285.155	1	29	Target	Loss	True
286.142	0.49	Lose2	0.5333	n/a	No	2.823	n/a	n/a	NoResponse	-1	n/a	n/a	1	29	Blank	Loss	True
286.155	0.3	Lose2	0.5333	0.002	No	2.823	-0.002	2.0	NoResponse	-1	0.23	n/a	1	29	ButtonPress	Loss	True
286.625	1.45	Lose2	0.5333	n/a	No	2.823	n/a	5.0	NoResponse	-1	0.035	285.66	1	29	Feedback	Loss	True
288.075	2.823	Lose2	0.5333	n/a	No	2.823	n/a	n/a	NoResponse	-1	0.0	n/a	1	29	ISIslide	Loss	True
290.924	0.25	Win2	0.5161	0.0	No	2.776	0.024	n/a	LatePress	0	n/a	n/a	1	30	Cue	MissedWin	True
291.174	3.9	Win2	0.5161	0.0	No	2.776	0.0	n/a	LatePress	0	n/a	n/a	1	30	Fixation	MissedWin	True
295.072	0.22	Win2	0.5161	0.002	No	2.776	-0.002	2.0	LatePress	0	0.227	294.299	1	30	Target	MissedWin	True
295.299	0.3	Win2	0.5161	0.002	No	2.776	-0.002	2.0	LatePress	0	0.227	n/a	1	30	ButtonPress	MissedWin	True
295.306	0.48	Win2	0.5161	n/a	No	2.776	n/a	n/a	LatePress	0	n/a	n/a	1	30	Blank	MissedWin	True
295.772	1.45	Win2	0.5161	n/a	No	2.776	n/a	5.0	LatePress	0	0.01	294.782	1	30	Feedback	MissedWin	True
297.222	2.776	Win2	0.5161	n/a	No	2.776	n/a	n/a	LatePress	0	0.0	n/a	1	30	ISIslide	MissedWin	True
300.021	0.25	Lose2	0.5312	0.0	Yes	2.829	0.021	n/a	GoodResponse	0	n/a	n/a	1	31	Cue	AvoidedLoss	True
300.271	4.05	Lose2	0.5312	0.0	Yes	2.829	0.0	n/a	GoodResponse	0	n/a	n/a	1	31	Fixation	AvoidedLoss	True
304.319	0.23	Lose2	0.5312	0.002	Yes	2.829	-0.002	2.0	GoodResponse	0	0.223	303.542	1	31	Target	AvoidedLoss	True
304.542	0.3	Lose2	0.5312	0.002	Yes	2.829	-0.002	2.0	GoodResponse	0	0.223	n/a	1	31	ButtonPress	AvoidedLoss	True
304.552	0.47	Lose2	0.5312	n/a	Yes	2.829	n/a	n/a	GoodResponse	0	n/a	n/a	1	31	Blank	AvoidedLoss	True
305.019	1.45	Lose2	0.5312	n/a	Yes	2.829	n/a	5.0	GoodResponse	0	0.031	304.05	1	31	Feedback	AvoidedLoss	True
306.468	2.829	Lose2	0.5312	n/a	Yes	2.829	n/a	n/a	GoodResponse	0	0.0	n/a	1	31	ISIslide	AvoidedLoss	True
309.317	0.25	Lose2	0.5455	0.0	Yes	2.633	0.017	n/a	GoodResponse	0	n/a	n/a	1	32	Cue	AvoidedLoss	True
309.567	4.15	Lose2	0.5455	0.0	Yes	2.633	0.0	n/a	GoodResponse	0	n/a	n/a	1	32	Fixation	AvoidedLoss	True
313.716	0.24	Lose2	0.5455	0.001	Yes	2.633	-0.001	2.0	GoodResponse	0	0.208	312.924	1	32	Target	AvoidedLoss	True
313.924	0.3	Lose2	0.5455	0.001	Yes	2.633	-0.001	2.0	GoodResponse	0	0.208	n/a	1	32	ButtonPress	AvoidedLoss	True
313.966	0.46	Lose2	0.5455	n/a	Yes	2.633	n/a	n/a	GoodResponse	0	n/a	n/a	1	32	Blank	AvoidedLoss	True
314.416	1.45	Lose2	0.5455	n/a	Yes	2.633	n/a	5.0	GoodResponse	0	0.048	313.464	1	32	Feedback	AvoidedLoss	True
315.865	2.633	Lose2	0.5455	n/a	Yes	2.633	n/a	n/a	GoodResponse	0	0.0	n/a	1	32	ISIslide	AvoidedLoss	True
318.514	0.25	Win2	0.5294	0.0	No	2.686	0.014	n/a	NoResponse	0	n/a	n/a	1	33	Cue	MissedWin	True
318.764	4.0	Win2	0.5294	0.0	No	2.686	0.0	n/a	NoResponse	0	n/a	n/a	1	33	Fixation	MissedWin	True
322.763	0.25	Win2	0.5294	0.001	No	2.686	-0.001	2.0	NoResponse	0	0.319	322.082	1	33	Target	MissedWin	True
323.013	0.45	Win2	0.5294	n/a	No	2.686	n/a	n/a	NoResponse	0	n/a	n/a	1	33	Blank	MissedWin	True
323.082	0.3	Win2	0.5294	0.001	No	2.686	-0.001	2.0	NoResponse	0	0.319	n/a	1	33	ButtonPress	MissedWin	True
323.462	1.45	Win2	0.5294	n/a	No	2.686	n/a	5.0	NoResponse	0	0.027	322.489	1	33	Feedback	MissedWin	True
324.912	2.686	Win2	0.5294	n/a	No	2.686	n/a	n/a	NoResponse	0	0.0	n/a	1	33	ISIslide	MissedWin	True
327.628	0.25	Lose2	0.5428999999999999	0.0	Yes	2.622	0.028	n/a	GoodResponse	0	n/a	n/a	1	34	Cue	AvoidedLoss	True
327.878	4.05	Lose2	0.5428999999999999	0.0	Yes	2.622	0.0	n/a	GoodResponse	0	n/a	n/a	1	34	Fixation	AvoidedLoss	True
331.926	0.26	Lose2	0.5428999999999999	0.002	Yes	2.622	-0.002	2.0	GoodResponse	0	0.243	331.169	1	34	Target	AvoidedLoss	True
332.169	0.3	Lose2	0.5428999999999999	0.002	Yes	2.622	-0.002	2.0	GoodResponse	0	0.243	n/a	1	34	ButtonPress	AvoidedLoss	True
332.193	0.44	Lose2	0.5428999999999999	n/a	Yes	2.622	n/a	n/a	GoodResponse	0	n/a	n/a	1	34	Blank	AvoidedLoss	True
332.626	1.45	Lose2	0.5428999999999999	n/a	Yes	2.622	n/a	5.0	GoodResponse	0	0.033	331.659	1	34	Feedback	AvoidedLoss	True
334.075	2.622	Lose2	0.5428999999999999	n/a	Yes	2.622	n/a	n/a	GoodResponse	0	0.0	n/a	1	34	ISIslide	AvoidedLoss	True
336.725	0.25	Lose2	0.5278	0.0	No	2.675	0.025	n/a	NoResponse	-1	n/a	n/a	0	35	Cue	Loss	True
336.974	4.0	Lose2	0.5278	0.001	No	2.675	-0.001	n/a	NoResponse	-1	n/a	n/a	0	35	Fixation	Loss	True
340.973	0.27	Lose2	0.5278	0.002	No	2.675	-0.002	2.0	NoResponse	-1	0.295	340.268	0	35	Target	Loss	True
341.256	0.43	Lose2	0.5278	n/a	No	2.675	n/a	n/a	NoResponse	-1	n/a	n/a	0	35	Blank	Loss	True
341.268	0.3	Lose2	0.5278	0.002	No	2.675	-0.002	2.0	NoResponse	-1	0.295	n/a	0	35	ButtonPress	Loss	True
341.673	1.45	Lose2	0.5278	n/a	No	2.675	n/a	5.0	NoResponse	-1	0.011	340.684	0	35	Feedback	Loss	True
343.122	2.675	Lose2	0.5278	n/a	No	2.675	n/a	n/a	NoResponse	-1	0.0	n/a	0	35	ISIslide	Loss	True
345.821	0.25	Control	0.5405	0.0	Yes	2.679	0.021	n/a	GoodResponse	0	n/a	n/a	0	36	Cue	Neutral	True
346.071	4.0	Control	0.5405	0.0	Yes	2.679	0.0	n/a	GoodResponse	0	n/a	n/a	0	36	Fixation	Neutral	True
350.07	0.28	Control	0.5405	0.001	Yes	2.679	-0.001	2.0	GoodResponse	0	0.221	349.291	0	36	Target	Neutral	True
350.291	0.3	Control	0.5405	0.001	Yes	2.679	-0.001	2.0	GoodResponse	0	0.221	n/a	0	36	ButtonPress	Neutral	True
350.353	0.42	Control	0.5405	n/a	Yes	2.679	n/a	n/a	GoodResponse	0	n/a	n/a	0	36	Blank	Neutral	True
350.77	1.45	Control	0.5405	n/a	Yes	2.679	n/a	5.0	GoodResponse	0	0.036	349.806	0	36	Feedback	Neutral	True
352.219	2.679	Control	0.5405	n/a	Yes	2.679	n/a	n/a	GoodResponse	0	0.0	n/a	0	36	ISIslide	Neutral	True
354.918	0.25	Win2	0.5526	0.0	Yes	2.882	0.018	n/a	GoodResponse	1	n/a	n/a	1	37	Cue	Win	True
355.168	4.0	Win2	0.5526	0.0	Yes	2.882	0.0	n/a	GoodResponse	1	n/a	n/a	1	37	Fixation	Win	True
359.167	0.29	Win2	0.5526	0.001	Yes	2.882	-0.001	2.0	GoodResponse	1	0.216	358.383	1	37	Target	Win	True
359.383	0.3	Win2	0.5526	0.001	Yes	2.882	-0.001	2.0	GoodResponse	1	0.216	n/a	1	37	ButtonPress	Win	True
359.467	0.41	Win2	0.5526	n/a	Yes	2.882	n/a	n/a	GoodResponse	1	n/a	n/a	1	37	Blank	Win	True
359.867	1.45	Win2	0.5526	n/a	Yes	2.882	n/a	5.0	GoodResponse	1	0.012	358.879	1	37	Feedback	Win	True
361.316	2.882	Win2	0.5526	n/a	Yes	2.882	n/a	n/a	GoodResponse	1	0.0	n/a	1	37	ISIslide	Win	True
364.215	0.25	Lose2	0.5640999999999999	0.0	Yes	2.835	0.015	n/a	GoodResponse	0	n/a	n/a	1	38	Cue	AvoidedLoss	True
364.465	3.95	Lose2	0.5640999999999999	0.0	Yes	2.835	0.0	n/a	GoodResponse	0	n/a	n/a	1	38	Fixation	AvoidedLoss	True
368.414	0.3	Lose2	0.5640999999999999	0.001	Yes	2.835	-0.001	2.0	GoodResponse	0	0.249	367.663	1	38	Target	AvoidedLoss	True
368.663	0.3	Lose2	0.5640999999999999	0.001	Yes	2.835	-0.001	2.0	GoodResponse	0	0.249	n/a	1	38	ButtonPress	AvoidedLoss	True
368.714	0.4	Lose2	0.5640999999999999	n/a	Yes	2.835	n/a	n/a	GoodResponse	0	n/a	n/a	1	38	Blank	AvoidedLoss	True
369.113	1.45	Lose2	0.5640999999999999	n/a	Yes	2.835	n/a	5.0	GoodResponse	0	0.034	368.147	1	38	Feedback	AvoidedLoss	True
370.563	2.835	Lose2	0.5640999999999999	n/a	Yes	2.835	n/a	n/a	GoodResponse	0	0.0	n/a	1	38	ISIslide	AvoidedLoss	True
373.429	0.25	Win2	0.575	0.0	Yes	2.971	0.029	n/a	GoodResponse	1	n/a	n/a	2	39	Cue	Win	True
373.678	4.1	Win2	0.575	0.001	Yes	2.971	-0.001	n/a	GoodResponse	1	n/a	n/a	2	39	Fixation	Win	True
377.777	0.31	Win2	0.575	0.002	Yes	2.971	-0.002	2.0	GoodResponse	1	0.214	376.991	2	39	Target	Win	True
377.991	0.3	Win2	0.575	0.002	Yes	2.971	-0.002	2.0	GoodResponse	1	0.214	n/a	2	39	ButtonPress	Win	True
378.094	0.39	Win2	0.575	n/a	Yes	2.971	n/a	n/a	GoodResponse	1	n/a	n/a	2	39	Blank	Win	True
378.477	1.45	Win2	0.575	n/a	Yes	2.971	n/a	5.0	GoodResponse	1	0.036	377.513	2	39	Feedback	Win	True
379.926	2.971	Win2	0.575	n/a	Yes	2.971	n/a	n/a	GoodResponse	1	0.0	n/a	2	39	ISIslide	Win	True
382.925	0.25	Win2	0.5854	0.0	Yes	2.725	0.025	n/a	GoodResponse	1	n/a	n/a	3	40	Cue	Win	True
383.175	3.95	Win2	0.5854	0.0	Yes	2.725	0.0	n/a	GoodResponse	1	n/a	n/a	3	40	Fixation	Win	True
387.124	0.32	Win2	0.5854	0.001	Yes	2.725	-0.001	2.0	GoodResponse	1	0.274	386.398	3	40	Target	Win	True
387.398	0.3	Win2	0.5854	0.001	Yes	2.725	-0.001	2.0	GoodResponse	1	0.274	n/a	3	40	ButtonPress	Win	True
387.457	0.38	Win2	0.5854	n/a	Yes	2.725	n/a	n/a	GoodResponse	1	n/a	n/a	3	40	Blank	Win	True
387.824	1.45	Win2	0.5854	n/a	Yes	2.725	n/a	5.0	GoodResponse	1	0.006	386.83	3	40	Feedback	Win	True
389.273	2.725	Win2	0.5854	n/a	Yes	2.725	n/a	n/a	GoodResponse	1	0.0	n/a	3	40	ISIslide	Win	True
392.022	0.25	Win2	0.5952000000000001	0.0	Yes	2.778	0.022	n/a	GoodResponse	1	n/a	n/a	4	41	Cue	Win	True
392.272	3.9	Win2	0.5952000000000001	0.0	Yes	2.778	0.0	n/a	GoodResponse	1	n/a	n/a	4	41	Fixation	Win	True
396.171	0.33	Win2	0.5952000000000001	0.001	Yes	2.778	-0.001	2.0	GoodResponse	1	0.307	395.478	4	41	Target	Win	True
396.478	0.3	Win2	0.5952000000000001	0.001	Yes	2.778	-0.001	2.0	GoodResponse	1	0.307	n/a	4	41	ButtonPress	Win	True
396.504	0.37	Win2	0.5952000000000001	n/a	Yes	2.778	n/a	n/a	GoodResponse	1	n/a	n/a	4	41	Blank	Win	True
396.87	1.45	Win2	0.5952000000000001	n/a	Yes	2.778	n/a	5.0	GoodResponse	1	0.033	395.903	4	41	Feedback	Win	True
398.32	2.778	Win2	0.5952000000000001	n/a	Yes	2.778	n/a	n/a	GoodResponse	1	0.0	n/a	4	41	ISIslide	Win	True
401.119	0.25	Control	0.6047	0.0	Yes	2.931	0.019	n/a	GoodResponse	0	n/a	n/a	4	42	Cue	Neutral	True
401.369	3.85	Control	0.6047	0.0	Yes	2.931	0.0	n/a	GoodResponse	0	n/a	n/a	4	42	Fixation	Neutral	True
405.218	0.34	Control	0.6047	0.001	Yes	2.931	-0.001	2.0	GoodResponse	0	0.222	404.44	4	42	Target	Neutral	True
405.44	0.3	Control	0.6047	0.001	Yes	2.931	-0.001	2.0	GoodResponse	0	0.222	n/a	4	42	ButtonPress	Neutral	True
405.567	0.36	Control	0.6047	n/a	Yes	2.931	n/a	n/a	GoodResponse	0	n/a	n/a	4	42	Blank	Neutral	True
405.917	1.45	Control	0.6047	n/a	Yes	2.931	n/a	5.0	GoodResponse	0	0.011	404.928	4	42	Feedback	Neutral	True
407.367	2.931	Control	0.6047	n/a	Yes	2.931	n/a	n/a	GoodResponse	0	0.0	n/a	4	42	ISIslide	Neutral	True
410.316	0.25	Win2	0.5909	0.0	No	3.184	0.016	n/a	NoResponse	0	n/a	n/a	4	43	Cue	MissedWin	True
410.566	4.0	Win2	0.5909	0.0	No	3.184	0.0	n/a	NoResponse	0	n/a	n/a	4	43	Fixation	MissedWin	True
414.564	0.35	Win2	0.5909	0.002	No	3.184	-0.002	2.0	NoResponse	0	0.395	413.959	4	43	Target	MissedWin	True
414.914	0.35	Win2	0.5909	n/a	No	3.184	n/a	n/a	NoResponse	0	n/a	n/a	4	43	Blank	MissedWin	True
414.959	0.3	Win2	0.5909	0.002	No	3.184	-0.002	2.0	NoResponse	0	0.395	n/a	4	43	ButtonPress	MissedWin	True
415.264	1.45	Win2	0.5909	n/a	No	3.184	n/a	5.0	NoResponse	0	0.03	414.294	4	43	Feedback	MissedWin	True
416.714	3.184	Win2	0.5909	n/a	No	3.184	n/a	n/a	NoResponse	0	0.0	n/a	4	43	ISIslide	MissedWin	True
419.929	0.25	Win2	0.6	0.0	Yes	2.971	0.029	n/a	GoodResponse	1	n/a	n/a	5	44	Cue	Win	True
420.179	4.0	Win2	0.6	0.0	Yes	2.971	0.0	n/a	GoodResponse	1	n/a	n/a	5	44	Fixation	Win	True
424.178	0.36	Win2	0.6	0.001	Yes	2.971	-0.001	2.0	GoodResponse	1	0.195	423.373	5	44	Target	Win	True
424.373	0.3	Win2	0.6	0.001	Yes	2.971	-0.001	2.0	GoodResponse	1	0.195	n/a	5	44	ButtonPress	Win	True
424.544	0.34	Win2	0.6	n/a	Yes	2.971	n/a	n/a	GoodResponse	1	n/a	n/a	5	44	Blank	Win	True
424.877	1.45	Win2	0.6	n/a	Yes	2.971	n/a	5.0	GoodResponse	1	0.027	423.904	5	44	Feedback	Win	True
426.327	2.971	Win2	0.6	n/a	Yes	2.971	n/a	n/a	GoodResponse	1	0.0	n/a	5	44	ISIslide	Win	True
429.326	0.25	Control	0.6087	0.0	Yes	2.874	0.026	n/a	GoodResponse	0	n/a	n/a	5	45	Cue	Neutral	True
429.576	4.1	Control	0.6087	0.0	Yes	2.874	0.0	n/a	GoodResponse	0	n/a	n/a	5	45	Fixation	Neutral	True
433.674	0.37	Control	0.6087	0.002	Yes	2.874	-0.002	2.0	GoodResponse	0	0.249	432.923	5	45	Target	Neutral	True
433.923	0.3	Control	0.6087	0.002	Yes	2.874	-0.002	2.0	GoodResponse	0	0.249	n/a	5	45	ButtonPress	Neutral	True
434.058	0.33	Control	0.6087	n/a	Yes	2.874	n/a	n/a	GoodResponse	0	n/a	n/a	5	45	Blank	Neutral	True
434.374	1.45	Control	0.6087	n/a	Yes	2.874	n/a	5.0	GoodResponse	0	0.041	433.415	5	45	Feedback	Neutral	True
435.824	2.874	Control	0.6087	n/a	Yes	2.874	n/a	n/a	GoodResponse	0	0.0	n/a	5	45	ISIslide	Neutral	True
438.723	0.25	Lose2	0.617	0.0	Yes	3.377	0.023	n/a	GoodResponse	0	n/a	n/a	5	46	Cue	AvoidedLoss	True
438.973	4.0	Lose2	0.617	0.0	Yes	3.377	0.0	n/a	GoodResponse	0	n/a	n/a	5	46	Fixation	AvoidedLoss	True
442.971	0.38	Lose2	0.617	0.002	Yes	3.377	-0.002	2.0	GoodResponse	0	0.207	442.178	5	46	Target	AvoidedLoss	True
443.178	0.3	Lose2	0.617	0.002	Yes	3.377	-0.002	2.0	GoodResponse	0	0.207	n/a	5	46	ButtonPress	AvoidedLoss	True
443.354	0.32	Lose2	0.617	n/a	Yes	3.377	n/a	n/a	GoodResponse	0	n/a	n/a	5	46	Blank	AvoidedLoss	True
443.671	1.45	Lose2	0.617	n/a	Yes	3.377	n/a	5.0	GoodResponse	0	0.012	442.683	5	46	Feedback	AvoidedLoss	True
445.12	3.377	Lose2	0.617	n/a	Yes	3.377	n/a	n/a	GoodResponse	0	0.0	n/a	5	46	ISIslide	AvoidedLoss	True
448.519	0.25	Lose2	0.625	0.0	Yes	2.681	0.019	n/a	GoodResponse	0	n/a	n/a	5	47	Cue	AvoidedLoss	True
448.769	4.0	Lose2	0.625	0.0	Yes	2.681	0.0	n/a	GoodResponse	0	n/a	n/a	5	47	Fixation	AvoidedLoss	True
452.768	0.39	Lose2	0.625	0.001	Yes	2.681	-0.001	2.0	GoodResponse	0	0.234	452.002	5	47	Target	AvoidedLoss	True
453.002	0.3	Lose2	0.625	0.001	Yes	2.681	-0.001	2.0	GoodResponse	0	0.234	n/a	5	47	ButtonPress	AvoidedLoss	True
453.168	0.31	Lose2	0.625	n/a	Yes	2.681	n/a	n/a	GoodResponse	0	n/a	n/a	5	47	Blank	AvoidedLoss	True
453.468	1.45	Lose2	0.625	n/a	Yes	2.681	n/a	5.0	GoodResponse	0	0.02	452.488	5	47	Feedback	AvoidedLoss	True
454.917	2.681	Lose2	0.625	n/a	Yes	2.681	n/a	n/a	GoodResponse	0	0.0	n/a	5	47	ISIslide	AvoidedLoss	True
457.616	0.25	Lose2	0.6327	0.0	Yes	3.034	0.016	n/a	GoodResponse	0	n/a	n/a	5	48	Cue	AvoidedLoss	True
457.866	3.95	Lose2	0.6327	0.0	Yes	3.034	0.0	n/a	GoodResponse	0	n/a	n/a	5	48	Fixation	AvoidedLoss	True
461.815	0.4	Lose2	0.6327	0.001	Yes	3.034	-0.001	2.0	GoodResponse	0	0.199	461.014	5	48	Target	AvoidedLoss	True
462.014	0.3	Lose2	0.6327	0.001	Yes	3.034	-0.001	2.0	GoodResponse	0	0.199	n/a	5	48	ButtonPress	AvoidedLoss	True
462.214	0.3	Lose2	0.6327	n/a	Yes	3.034	n/a	n/a	GoodResponse	0	n/a	n/a	5	48	Blank	AvoidedLoss	True
462.514	1.45	Lose2	0.6327	n/a	Yes	3.034	n/a	5.0	GoodResponse	0	0.048	461.562	5	48	Feedback	AvoidedLoss	True
463.964	3.034	Lose2	0.6327	n/a	Yes	3.034	n/a	n/a	GoodResponse	0	0.0	n/a	5	48	ISIslide	AvoidedLoss	True
467.013	0.25	Control	0.64	0.0	Yes	2.887	0.013	n/a	GoodResponse	0	n/a	n/a	5	49	Cue	Neutral	True
467.263	4.0	Control	0.64	0.0	Yes	2.887	0.0	n/a	GoodResponse	0	n/a	n/a	5	49	Fixation	Neutral	True
471.261	0.41	Control	0.64	0.002	Yes	2.887	-0.002	2.0	GoodResponse	0	0.267	470.528	5	49	Target	Neutral	True
471.528	0.3	Control	0.64	0.002	Yes	2.887	-0.002	2.0	GoodResponse	0	0.267	n/a	5	49	ButtonPress	Neutral	True
471.678	0.29	Control	0.64	n/a	Yes	2.887	n/a	n/a	GoodResponse	0	n/a	n/a	5	49	Blank	Neutral	True
471.961	1.45	Control	0.64	n/a	Yes	2.887	n/a	5.0	GoodResponse	0	0.015	470.976	5	49	Feedback	Neutral	True
473.411	2.887	Control	0.64	n/a	Yes	2.887	n/a	n/a	GoodResponse	0	0.0	n/a	5	49	ISIslide	Neutral	True
476.326	0.25	Control	0.6470999999999999	0.0	Yes	2.774	0.026	n/a	GoodResponse	0	n/a	n/a	5	50	Cue	Neutral	True
476.576	4.0	Control	0.6470999999999999	0.0	Yes	2.774	0.0	n/a	GoodResponse	0	n/a	n/a	5	50	Fixation	Neutral	True
480.575	0.42	Control	0.6470999999999999	0.001	Yes	2.774	-0.001	2.0	GoodResponse	0	0.196	479.771	5	50	Target	Neutral	True
480.771	0.3	Control	0.6470999999999999	0.001	Yes	2.774	-0.001	2.0	GoodResponse	0	0.196	n/a	5	50	ButtonPress	Neutral	True
481.008	0.28	Control	0.6470999999999999	n/a	Yes	2.774	n/a	n/a	GoodResponse	0	n/a	n/a	5	50	Blank	Neutral	True
481.275	1.45	Control	0.6470999999999999	n/a	Yes	2.774	n/a	5.0	GoodResponse	0	0.019	480.294	5	50	Feedback	Neutral	True
482.724	2.774	Control	0.6470999999999999	n/a	Yes	2.774	n/a	n/a	GoodResponse	0	0.0	n/a	5	50	ISIslide	Neutral	True
485.523	0.25	Control	0.6537999999999999	0.0	Yes	2.727	0.023	n/a	GoodResponse	0	n/a	n/a	5	51	Cue	Neutral	True
485.773	3.95	Control	0.6537999999999999	0.0	Yes	2.727	0.0	n/a	GoodResponse	0	n/a	n/a	5	51	Fixation	Neutral	True
489.722	0.43	Control	0.6537999999999999	0.001	Yes	2.727	-0.001	2.0	GoodResponse	0	0.223	488.945	5	51	Target	Neutral	True
489.945	0.3	Control	0.6537999999999999	0.001	Yes	2.727	-0.001	2.0	GoodResponse	0	0.223	n/a	5	51	ButtonPress	Neutral	True
490.155	0.27	Control	0.6537999999999999	n/a	Yes	2.727	n/a	n/a	GoodResponse	0	n/a	n/a	5	51	Blank	Neutral	True
490.421	1.45	Control	0.6537999999999999	n/a	Yes	2.727	n/a	5.0	GoodResponse	0	0.042	489.463	5	51	Feedback	Neutral	True
491.871	2.727	Control	0.6537999999999999	n/a	Yes	2.727	n/a	n/a	GoodResponse	0	0.0	n/a	5	51	ISIslide	Neutral	True
494.62	0.25	Control	0.6604000000000001	0.0	Yes	2.63	0.02	n/a	GoodResponse	0	n/a	n/a	5	52	Cue	Neutral	True
494.87	4.05	Control	0.6604000000000001	0.0	Yes	2.63	0.0	n/a	GoodResponse	0	n/a	n/a	5	52	Fixation	Neutral	True
498.918	0.44	Control	0.6604000000000001	0.002	Yes	2.63	-0.002	2.0	GoodResponse	0	0.208	498.126	5	52	Target	Neutral	True
499.126	0.3	Control	0.6604000000000001	0.002	Yes	2.63	-0.002	2.0	GoodResponse	0	0.208	n/a	5	52	ButtonPress	Neutral	True
499.368	0.26	Control	0.6604000000000001	n/a	Yes	2.63	n/a	n/a	GoodResponse	0	n/a	n/a	5	52	Blank	Neutral	True
499.618	1.45	Control	0.6604000000000001	n/a	Yes	2.63	n/a	5.0	GoodResponse	0	0.016	498.634	5	52	Feedback	Neutral	True
501.068	2.63	Control	0.6604000000000001	n/a	Yes	2.63	n/a	n/a	GoodResponse	0	0.0	n/a	5	52	ISIslide	Neutral	True
503.717	0.25	Win2	0.6667000000000001	0.0	Yes	2.933	0.017	n/a	GoodResponse	1	n/a	n/a	6	53	Cue	Win	True
503.967	4.05	Win2	0.6667000000000001	0.0	Yes	2.933	0.0	n/a	GoodResponse	1	n/a	n/a	6	53	Fixation	Win	True
508.015	0.44	Win2	0.6667000000000001	0.002	Yes	2.933	-0.002	2.0	GoodResponse	1	0.21	507.225	6	53	Target	Win	True
508.225	0.3	Win2	0.6667000000000001	0.002	Yes	2.933	-0.002	2.0	GoodResponse	1	0.21	n/a	6	53	ButtonPress	Win	True
508.465	0.26	Win2	0.6667000000000001	n/a	Yes	2.933	n/a	n/a	GoodResponse	1	n/a	n/a	6	53	Blank	Win	True
508.715	1.45	Win2	0.6667000000000001	n/a	Yes	2.933	n/a	5.0	GoodResponse	1	0.041	507.756	6	53	Feedback	Win	True
510.165	2.933	Win2	0.6667000000000001	n/a	Yes	2.933	n/a	n/a	GoodResponse	1	0.0	n/a	6	53	ISIslide	Win	True
513.114	0.25	Win2	0.6727	0.0	Yes	2.736	0.014	n/a	GoodResponse	1	n/a	n/a	7	54	Cue	Win	True
513.363	3.95	Win2	0.6727	0.001	Yes	2.736	-0.001	n/a	GoodResponse	1	n/a	n/a	7	54	Fixation	Win	True
517.312	0.43	Win2	0.6727	0.002	Yes	2.736	-0.002	2.0	GoodResponse	1	0.24	516.552	7	54	Target	Win	True
517.552	0.3	Win2	0.6727	0.002	Yes	2.736	-0.002	2.0	GoodResponse	1	0.24	n/a	7	54	ButtonPress	Win	True
517.745	0.27	Win2	0.6727	n/a	Yes	2.736	n/a	n/a	GoodResponse	1	n/a	n/a	7	54	Blank	Win	True
518.012	1.45	Win2	0.6727	n/a	Yes	2.736	n/a	5.0	GoodResponse	1	0.013	517.025	7	54	Feedback	Win	True
519.461	2.736	Win2	0.6727	n/a	Yes	2.736	n/a	n/a	GoodResponse	1	0.0	n/a	7	54	ISIslide	Win	True
522.227	0.25	Control	0.6786	0.0	Yes	3.023	0.027	n/a	GoodResponse	0	n/a	n/a	7	55	Cue	Neutral	True
522.477	3.95	Control	0.6786	0.0	Yes	3.023	0.0	n/a	GoodResponse	0	n/a	n/a	7	55	Fixation	Neutral	True
526.426	0.42	Control	0.6786	0.001	Yes	3.023	-0.001	2.0	GoodResponse	0	0.212	525.638	7	55	Target	Neutral	True
526.638	0.3	Control	0.6786	0.001	Yes	3.023	-0.001	2.0	GoodResponse	0	0.212	n/a	7	55	ButtonPress	Neutral	True
526.859	0.28	Control	0.6786	n/a	Yes	3.023	n/a	n/a	GoodResponse	0	n/a	n/a	7	55	Blank	Neutral	True
527.125	1.45	Control	0.6786	n/a	Yes	3.023	n/a	5.0	GoodResponse	0	0.022	526.147	7	55	Feedback	Neutral	True
528.575	3.023	Control	0.6786	n/a	Yes	3.023	n/a	n/a	GoodResponse	0	0.0	n/a	7	55	ISIslide	Neutral	True
531.624	0.25	Control	0.6842	0.0	Yes	2.826	0.024	n/a	GoodResponse	0	n/a	n/a	7	56	Cue	Neutral	True
531.874	3.95	Control	0.6842	0.0	Yes	2.826	0.0	n/a	GoodResponse	0	n/a	n/a	7	56	Fixation	Neutral	True
535.822	0.41	Control	0.6842	0.002	Yes	2.826	-0.002	2.0	GoodResponse	0	0.269	535.091	7	56	Target	Neutral	True
536.091	0.3	Control	0.6842	0.002	Yes	2.826	-0.002	2.0	GoodResponse	0	0.269	n/a	7	56	ButtonPress	Neutral	True
536.239	0.29	Control	0.6842	n/a	Yes	2.826	n/a	n/a	GoodResponse	0	n/a	n/a	7	56	Blank	Neutral	True
536.522	1.45	Control	0.6842	n/a	Yes	2.826	n/a	5.0	GoodResponse	0	0.04	535.562	7	56	Feedback	Neutral	True
537.972	2.826	Control	0.6842	n/a	Yes	2.826	n/a	n/a	GoodResponse	0	0.0	n/a	7	56	ISIslide	Neutral	True
540.821	0.25	Control	0.6897	0.0	Yes	3.479	0.021	n/a	GoodResponse	0	n/a	n/a	7	57	Cue	Neutral	True
541.071	4.0	Control	0.6897	0.0	Yes	3.479	0.0	n/a	GoodResponse	0	n/a	n/a	7	57	Fixation	Neutral	True
545.069	0.4	Control	0.6897	0.002	Yes	3.479	-0.002	2.0	GoodResponse	0	0.229	544.298	7	57	Target	Neutral	True
545.298	0.3	Control	0.6897	0.002	Yes	3.479	-0.002	2.0	GoodResponse	0	0.229	n/a	7	57	ButtonPress	Neutral	True
545.469	0.3	Control	0.6897	n/a	Yes	3.479	n/a	n/a	GoodResponse	0	n/a	n/a	7	57	Blank	Neutral	True
545.769	1.45	Control	0.6897	n/a	Yes	3.479	n/a	5.0	GoodResponse	0	0.012	544.781	7	57	Feedback	Neutral	True
547.218	3.479	Control	0.6897	n/a	Yes	3.479	n/a	n/a	GoodResponse	0	0.0	n/a	7	57	ISIslide	Neutral	True
550.717	0.25	Win2	0.6949	0.0	Yes	2.733	0.017	n/a	GoodResponse	1	n/a	n/a	8	58	Cue	Win	True
550.967	4.05	Win2	0.6949	0.0	Yes	2.733	0.0	n/a	GoodResponse	1	n/a	n/a	8	58	Fixation	Win	True
555.016	0.39	Win2	0.6949	0.001	Yes	2.733	-0.001	2.0	GoodResponse	1	0.218	554.234	8	58	Target	Win	True
555.234	0.3	Win2	0.6949	0.001	Yes	2.733	-0.001	2.0	GoodResponse	1	0.218	n/a	8	58	ButtonPress	Win	True
555.416	0.31	Win2	0.6949	n/a	Yes	2.733	n/a	n/a	GoodResponse	1	n/a	n/a	8	58	Blank	Win	True
555.716	1.45	Win2	0.6949	n/a	Yes	2.733	n/a	5.0	GoodResponse	1	0.016	554.732	8	58	Feedback	Win	True
557.165	2.733	Win2	0.6949	n/a	Yes	2.733	n/a	n/a	GoodResponse	1	0.0	n/a	8	58	ISIslide	Win	True
559.914	0.25	Lose2	0.7	0.0	Yes	2.686	0.014	n/a	GoodResponse	0	n/a	n/a	8	59	Cue	AvoidedLoss	True
560.164	4.0	Lose2	0.7	0.0	Yes	2.686	0.0	n/a	GoodResponse	0	n/a	n/a	8	59	Fixation	AvoidedLoss	True
564.163	0.38	Lose2	0.7	0.001	Yes	2.686	-0.001	2.0	GoodResponse	0	0.208	563.371	8	59	Target	AvoidedLoss	True
564.371	0.3	Lose2	0.7	0.001	Yes	2.686	-0.001	2.0	GoodResponse	0	0.208	n/a	8	59	ButtonPress	AvoidedLoss	True
564.546	0.32	Lose2	0.7	n/a	Yes	2.686	n/a	n/a	GoodResponse	0	n/a	n/a	8	59	Blank	AvoidedLoss	True
564.862	1.45	Lose2	0.7	n/a	Yes	2.686	n/a	5.0	GoodResponse	0	0.04	563.902	8	59	Feedback	AvoidedLoss	True
566.312	2.686	Lose2	0.7	n/a	Yes	2.686	n/a	n/a	GoodResponse	0	0.0	n/a	8	59	ISIslide	AvoidedLoss	True
569.028	0.25	Control	0.7049	0.0	Yes	2.672	0.028	n/a	GoodResponse	0	n/a	n/a	8	60	Cue	Neutral	True
569.277	4.0	Control	0.7049	0.001	Yes	2.672	-0.001	n/a	GoodResponse	0	n/a	n/a	8	60	Fixation	Neutral	True
573.276	0.37	Control	0.7049	0.002	Yes	2.672	-0.002	2.0	GoodResponse	0	0.22	572.496	8	60	Target	Neutral	True
573.496	0.3	Control	0.7049	0.002	Yes	2.672	-0.002	2.0	GoodResponse	0	0.22	n/a	8	60	ButtonPress	Neutral	True
573.659	0.33	Control	0.7049	n/a	Yes	2.672	n/a	n/a	GoodResponse	0	n/a	n/a	8	60	Blank	Neutral	True
573.976	1.45	Control	0.7049	n/a	Yes	2.672	n/a	5.0	GoodResponse	0	0.0	572.976	8	60	Feedback	Neutral	True
575.425	2.672	Control	0.7049	n/a	Yes	2.672	n/a	n/a	GoodResponse	0	0.0	n/a	8	60	ISIslide	Neutral	True
578.124	0.25	Lose2	0.7097	0.001	Yes	2.976	0.024	n/a	GoodResponse	0	n/a	n/a	8	61	Cue	AvoidedLoss	True
578.374	4.0	Lose2	0.7097	0.0	Yes	2.976	0.0	n/a	GoodResponse	0	n/a	n/a	8	61	Fixation	AvoidedLoss	True
582.373	0.36	Lose2	0.7097	0.001	Yes	2.976	-0.001	2.0	GoodResponse	0	0.211	581.584	8	61	Target	AvoidedLoss	True
582.584	0.3	Lose2	0.7097	0.001	Yes	2.976	-0.001	2.0	GoodResponse	0	0.211	n/a	8	61	ButtonPress	AvoidedLoss	True
582.739	0.34	Lose2	0.7097	n/a	Yes	2.976	n/a	n/a	GoodResponse	0	n/a	n/a	8	61	Blank	AvoidedLoss	True
583.073	1.45	Lose2	0.7097	n/a	Yes	2.976	n/a	5.0	GoodResponse	0	0.025	582.098	8	61	Feedback	AvoidedLoss	True
584.522	2.976	Lose2	0.7097	n/a	Yes	2.976	n/a	n/a	GoodResponse	0	0.0	n/a	8	61	ISIslide	AvoidedLoss	True
587.521	0.25	Lose2	0.7143	0.0	Yes	2.879	0.021	n/a	GoodResponse	0	n/a	n/a	8	62	Cue	AvoidedLoss	True
587.771	3.9	Lose2	0.7143	0.0	Yes	2.879	0.0	n/a	GoodResponse	0	n/a	n/a	8	62	Fixation	AvoidedLoss	True
591.67	0.35	Lose2	0.7143	0.001	Yes	2.879	-0.001	2.0	GoodResponse	0	0.265	590.935	8	62	Target	AvoidedLoss	True
591.935	0.3	Lose2	0.7143	0.001	Yes	2.879	-0.001	2.0	GoodResponse	0	0.265	n/a	8	62	ButtonPress	AvoidedLoss	True
592.02	0.35	Lose2	0.7143	n/a	Yes	2.879	n/a	n/a	GoodResponse	0	n/a	n/a	8	62	Blank	AvoidedLoss	True
592.369	1.45	Lose2	0.7143	n/a	Yes	2.879	n/a	5.0	GoodResponse	0	0.046	591.415	8	62	Feedback	AvoidedLoss	True
593.819	2.879	Lose2	0.7143	n/a	Yes	2.879	n/a	n/a	GoodResponse	0	0.0	n/a	8	62	ISIslide	AvoidedLoss	True
596.718	0.25	Lose2	0.7188	0.0	Yes	2.632	0.018	n/a	GoodResponse	0	n/a	n/a	8	63	Cue	AvoidedLoss	True
596.968	4.05	Lose2	0.7188	0.0	Yes	2.632	0.0	n/a	GoodResponse	0	n/a	n/a	8	63	Fixation	AvoidedLoss	True
601.017	0.34	Lose2	0.7188	0.001	Yes	2.632	-0.001	2.0	GoodResponse	0	0.209	600.226	8	63	Target	AvoidedLoss	True
601.226	0.3	Lose2	0.7188	0.001	Yes	2.632	-0.001	2.0	GoodResponse	0	0.209	n/a	8	63	ButtonPress	AvoidedLoss	True
601.366	0.36	Lose2	0.7188	n/a	Yes	2.632	n/a	n/a	GoodResponse	0	n/a	n/a	8	63	Blank	AvoidedLoss	True
601.716	1.45	Lose2	0.7188	n/a	Yes	2.632	n/a	5.0	GoodResponse	0	0.016	600.732	8	63	Feedback	AvoidedLoss	True
603.166	2.632	Lose2	0.7188	n/a	Yes	2.632	n/a	n/a	GoodResponse	0	0.0	n/a	8	63	ISIslide	AvoidedLoss	True
605.815	0.25	Win2	0.7077	0.0	No	3.135	0.015	n/a	NoResponse	0	n/a	n/a	8	64	Cue	MissedWin	True
606.065	4.15	Win2	0.7077	0.0	No	3.135	0.0	n/a	NoResponse	0	n/a	n/a	8	64	Fixation	MissedWin	True
610.213	0.33	Win2	0.7077	0.002	No	3.135	-0.002	2.0	NoResponse	0	0.457	609.67	8	64	Target	MissedWin	True
610.547	0.37	Win2	0.7077	n/a	No	3.135	n/a	n/a	NoResponse	0	n/a	n/a	8	64	Blank	MissedWin	True
610.67	0.3	Win2	0.7077	0.002	No	3.135	-0.002	2.0	NoResponse	0	0.457	n/a	8	64	ButtonPress	MissedWin	True
610.913	1.45	Win2	0.7077	n/a	No	3.135	n/a	5.0	NoResponse	0	0.038	609.951	8	64	Feedback	MissedWin	True
612.363	3.135	Win2	0.7077	n/a	No	3.135	n/a	n/a	NoResponse	0	0.0	n/a	8	64	ISIslide	MissedWin	True
615.528	0.25	Control	0.7121	0.0	Yes	2.772	0.028	n/a	GoodResponse	0	n/a	n/a	8	65	Cue	Neutral	True
615.778	4.0	Control	0.7121	0.0	Yes	2.772	0.0	n/a	GoodResponse	0	n/a	n/a	8	65	Fixation	Neutral	True
619.777	0.32	Control	0.7121	0.001	Yes	2.772	-0.001	2.0	GoodResponse	0	0.241	619.018	8	65	Target	Neutral	True
620.018	0.3	Control	0.7121	0.001	Yes	2.772	-0.001	2.0	GoodResponse	0	0.241	n/a	8	65	ButtonPress	Neutral	True
620.11	0.38	Control	0.7121	n/a	Yes	2.772	n/a	n/a	GoodResponse	0	n/a	n/a	8	65	Blank	Neutral	True
620.476	1.45	Control	0.7121	n/a	Yes	2.772	n/a	5.0	GoodResponse	0	0.036	619.512	8	65	Feedback	Neutral	True
621.926	2.772	Control	0.7121	n/a	Yes	2.772	n/a	n/a	GoodResponse	0	0.0	n/a	8	65	ISIslide	Neutral	True
624.725	0.25	Win2	0.7164	0.0	Yes	2.775	0.025	n/a	GoodResponse	1	n/a	n/a	9	66	Cue	Win	True
624.975	3.9	Win2	0.7164	0.0	Yes	2.775	0.0	n/a	GoodResponse	1	n/a	n/a	9	66	Fixation	Win	True
628.874	0.31	Win2	0.7164	0.001	Yes	2.775	-0.001	2.0	GoodResponse	1	0.203	628.077	9	66	Target	Win	True
629.077	0.3	Win2	0.7164	0.001	Yes	2.775	-0.001	2.0	GoodResponse	1	0.203	n/a	9	66	ButtonPress	Win	True
629.19	0.39	Win2	0.7164	n/a	Yes	2.775	n/a	n/a	GoodResponse	1	n/a	n/a	9	66	Blank	Win	True
629.573	1.45	Win2	0.7164	n/a	Yes	2.775	n/a	5.0	GoodResponse	1	0.012	628.585	9	66	Feedback	Win	True
631.023	2.775	Win2	0.7164	n/a	Yes	2.775	n/a	n/a	GoodResponse	1	0.0	n/a	9	66	ISIslide	Win	True
633.822	0.25	Control	0.7206	0.0	Yes	2.728	0.022	n/a	GoodResponse	0	n/a	n/a	9	67	Cue	Neutral	True
634.072	3.95	Control	0.7206	0.0	Yes	2.728	0.0	n/a	GoodResponse	0	n/a	n/a	9	67	Fixation	Neutral	True
638.02	0.3	Control	0.7206	0.002	Yes	2.728	-0.002	2.0	GoodResponse	0	0.24	637.26	9	67	Target	Neutral	True
638.26	0.3	Control	0.7206	0.002	Yes	2.728	-0.002	2.0	GoodResponse	0	0.24	n/a	9	67	ButtonPress	Neutral	True
638.32	0.4	Control	0.7206	n/a	Yes	2.728	n/a	n/a	GoodResponse	0	n/a	n/a	9	67	Blank	Neutral	True
638.72	1.45	Control	0.7206	n/a	Yes	2.728	n/a	5.0	GoodResponse	0	0.036	637.756	9	67	Feedback	Neutral	True
640.17	2.728	Control	0.7206	n/a	Yes	2.728	n/a	n/a	GoodResponse	0	0.0	n/a	9	67	ISIslide	Neutral	True
642.919	0.25	Win2	0.7245999999999999	0.0	Yes	3.081	0.019	n/a	GoodResponse	1	n/a	n/a	10	68	Cue	Win	True
643.169	4.0	Win2	0.7245999999999999	0.0	Yes	3.081	0.0	n/a	GoodResponse	1	n/a	n/a	10	68	Fixation	Win	True
647.167	0.29	Win2	0.7245999999999999	0.002	Yes	3.081	-0.002	2.0	GoodResponse	1	0.231	646.398	10	68	Target	Win	True
647.398	0.3	Win2	0.7245999999999999	0.002	Yes	3.081	-0.002	2.0	GoodResponse	1	0.231	n/a	10	68	ButtonPress	Win	True
647.467	0.41	Win2	0.7245999999999999	n/a	Yes	3.081	n/a	n/a	GoodResponse	1	n/a	n/a	10	68	Blank	Win	True
647.867	1.45	Win2	0.7245999999999999	n/a	Yes	3.081	n/a	5.0	GoodResponse	1	0.011	646.878	10	68	Feedback	Win	True
649.316	3.081	Win2	0.7245999999999999	n/a	Yes	3.081	n/a	n/a	GoodResponse	1	0.0	n/a	10	68	ISIslide	Win	True
652.415	0.25	Win2	0.7286	0.001	Yes	3.235	0.015	n/a	GoodResponse	1	n/a	n/a	11	69	Cue	Win	True
652.665	3.95	Win2	0.7286	0.0	Yes	3.235	0.0	n/a	GoodResponse	1	n/a	n/a	11	69	Fixation	Win	True
656.614	0.28	Win2	0.7286	0.001	Yes	3.235	-0.001	2.0	GoodResponse	1	0.191	655.805	11	69	Target	Win	True
656.805	0.3	Win2	0.7286	0.001	Yes	3.235	-0.001	2.0	GoodResponse	1	0.191	n/a	11	69	ButtonPress	Win	True
656.897	0.42	Win2	0.7286	n/a	Yes	3.235	n/a	n/a	GoodResponse	1	n/a	n/a	11	69	Blank	Win	True
657.314	1.45	Win2	0.7286	n/a	Yes	3.235	n/a	5.0	GoodResponse	1	0.028	656.342	11	69	Feedback	Win	True
658.763	3.235	Win2	0.7286	n/a	Yes	3.235	n/a	n/a	GoodResponse	1	0.0	n/a	11	69	ISIslide	Win	True
662.029	0.25	Lose2	0.7323999999999999	0.0	Yes	3.021	0.029	n/a	GoodResponse	0	n/a	n/a	11	70	Cue	AvoidedLoss	True
662.279	4.05	Lose2	0.7323999999999999	0.0	Yes	3.021	0.0	n/a	GoodResponse	0	n/a	n/a	11	70	Fixation	AvoidedLoss	True
666.327	0.27	Lose2	0.7323999999999999	0.002	Yes	3.021	-0.002	2.0	GoodResponse	0	0.219	665.546	11	70	Target	AvoidedLoss	True
666.546	0.3	Lose2	0.7323999999999999	0.002	Yes	3.021	-0.002	2.0	GoodResponse	0	0.219	n/a	11	70	ButtonPress	AvoidedLoss	True
666.61	0.43	Lose2	0.7323999999999999	n/a	Yes	3.021	n/a	n/a	GoodResponse	0	n/a	n/a	11	70	Blank	AvoidedLoss	True
667.027	1.45	Lose2	0.7323999999999999	n/a	Yes	3.021	n/a	5.0	GoodResponse	0	0.021	666.048	11	70	Feedback	AvoidedLoss	True
668.477	3.021	Lose2	0.7323999999999999	n/a	Yes	3.021	n/a	n/a	GoodResponse	0	0.0	n/a	11	70	ISIslide	AvoidedLoss	True
671.525	0.25	Win2	0.7361	0.001	Yes	2.725	0.025	n/a	GoodResponse	1	n/a	n/a	12	71	Cue	Win	True
671.775	4.05	Win2	0.7361	0.0	Yes	2.725	0.0	n/a	GoodResponse	1	n/a	n/a	12	71	Fixation	Win	True
675.824	0.26	Win2	0.7361	0.001	Yes	2.725	-0.001	2.0	GoodResponse	1	0.203	675.027	12	71	Target	Win	True
676.027	0.3	Win2	0.7361	0.001	Yes	2.725	-0.001	2.0	GoodResponse	1	0.203	n/a	12	71	ButtonPress	Win	True
676.091	0.44	Win2	0.7361	n/a	Yes	2.725	n/a	n/a	GoodResponse	1	n/a	n/a	12	71	Blank	Win	True
676.524	1.45	Win2	0.7361	n/a	Yes	2.725	n/a	5.0	GoodResponse	1	0.036	675.56	12	71	Feedback	Win	True
677.973	2.725	Win2	0.7361	n/a	Yes	2.725	n/a	n/a	GoodResponse	1	0.0	n/a	12	71	ISIslide	Win	True
680.722	0.25	Win2	0.7397	0.0	Yes	2.778	0.022	n/a	GoodResponse	1	n/a	n/a	13	72	Cue	Win	True
680.972	4.1	Win2	0.7397	0.0	Yes	2.778	0.0	n/a	GoodResponse	1	n/a	n/a	13	72	Fixation	Win	True
685.071	0.25	Win2	0.7397	0.001	Yes	2.778	-0.001	2.0	GoodResponse	1	0.206	684.277	13	72	Target	Win	True
685.277	0.3	Win2	0.7397	0.001	Yes	2.778	-0.001	2.0	GoodResponse	1	0.206	n/a	13	72	ButtonPress	Win	True
685.321	0.45	Win2	0.7397	n/a	Yes	2.778	n/a	n/a	GoodResponse	1	n/a	n/a	13	72	Blank	Win	True
685.771	1.45	Win2	0.7397	n/a	Yes	2.778	n/a	5.0	GoodResponse	1	0.009	684.78	13	72	Feedback	Win	True
687.22	2.778	Win2	0.7397	n/a	Yes	2.778	n/a	n/a	GoodResponse	1	0.0	n/a	13	72	ISIslide	Win	True
690.019	0.25	Win2	0.7432	0.0	Yes	2.681	0.019	n/a	GoodResponse	1	n/a	n/a	14	73	Cue	Win	True
690.269	4.0	Win2	0.7432	0.0	Yes	2.681	0.0	n/a	GoodResponse	1	n/a	n/a	14	73	Fixation	Win	True
694.268	0.24	Win2	0.7432	0.001	Yes	2.681	-0.001	2.0	GoodResponse	1	0.203	693.471	14	73	Target	Win	True
694.471	0.3	Win2	0.7432	0.001	Yes	2.681	-0.001	2.0	GoodResponse	1	0.203	n/a	14	73	ButtonPress	Win	True
694.518	0.46	Win2	0.7432	n/a	Yes	2.681	n/a	n/a	GoodResponse	1	n/a	n/a	14	73	Blank	Win	True
694.967	1.45	Win2	0.7432	n/a	Yes	2.681	n/a	5.0	GoodResponse	1	0.033	694.0	14	73	Feedback	Win	True
696.417	2.681	Win2	0.7432	n/a	Yes	2.681	n/a	n/a	GoodResponse	1	0.0	n/a	14	73	ISIslide	Win	True
699.116	0.25	Lose2	0.7467	0.0	Yes	2.634	0.016	n/a	GoodResponse	0	n/a	n/a	14	74	Cue	AvoidedLoss	True
699.366	4.05	Lose2	0.7467	0.0	Yes	2.634	0.0	n/a	GoodResponse	0	n/a	n/a	14	74	Fixation	AvoidedLoss	True
703.414	0.23	Lose2	0.7467	0.002	Yes	2.634	-0.002	2.0	GoodResponse	0	0.214	702.628	14	74	Target	AvoidedLoss	True
703.628	0.3	Lose2	0.7467	0.002	Yes	2.634	-0.002	2.0	GoodResponse	0	0.214	n/a	14	74	ButtonPress	AvoidedLoss	True
703.648	0.47	Lose2	0.7467	n/a	Yes	2.634	n/a	n/a	GoodResponse	0	n/a	n/a	14	74	Blank	AvoidedLoss	True
704.114	1.45	Lose2	0.7467	n/a	Yes	2.634	n/a	5.0	GoodResponse	0	0.008	703.122	14	74	Feedback	AvoidedLoss	True
705.564	2.634	Lose2	0.7467	n/a	Yes	2.634	n/a	n/a	GoodResponse	0	0.0	n/a	14	74	ISIslide	AvoidedLoss	True
708.229	0.25	Lose2	0.7368000000000001	0.001	No	2.921	0.029	n/a	NoResponse	-1	n/a	n/a	13	75	Cue	Loss	True
708.479	3.95	Lose2	0.7368000000000001	0.0	No	2.921	0.0	n/a	NoResponse	-1	n/a	n/a	13	75	Fixation	Loss	True
712.428	0.22	Lose2	0.7368000000000001	0.001	No	2.921	-0.001	2.0	NoResponse	-1	0.237	711.665	13	75	Target	Loss	True
712.645	0.48	Lose2	0.7368000000000001	n/a	No	2.921	n/a	n/a	NoResponse	-1	n/a	n/a	13	75	Blank	Loss	True
712.665	0.3	Lose2	0.7368000000000001	0.001	No	2.921	-0.001	2.0	NoResponse	-1	0.237	n/a	13	75	ButtonPress	Loss	True
713.128	1.45	Lose2	0.7368000000000001	n/a	No	2.921	n/a	5.0	NoResponse	-1	0.018	712.146	13	75	Feedback	Loss	True
714.577	2.921	Lose2	0.7368000000000001	n/a	No	2.921	n/a	n/a	NoResponse	-1	0.0	n/a	13	75	ISIslide	Loss	True
717.526	0.25	Control	0.7273000000000001	0.0	No	3.224	0.026	n/a	NoResponse	0	n/a	n/a	13	76	Cue	Neutral	True
717.776	4.05	Control	0.7273000000000001	0.0	No	3.224	0.0	n/a	NoResponse	0	n/a	n/a	13	76	Fixation	Neutral	True
721.825	0.21	Control	0.7273000000000001	0.001	No	3.224	-0.001	2.0	NoResponse	0	0.277	721.102	13	76	Target	Neutral	True
722.041	0.49	Control	0.7273000000000001	n/a	No	3.224	n/a	n/a	NoResponse	0	n/a	n/a	13	76	Blank	Neutral	True
722.102	0.3	Control	0.7273000000000001	0.001	No	3.224	-0.001	2.0	NoResponse	0	0.277	n/a	13	76	ButtonPress	Neutral	True
722.524	1.45	Control	0.7273000000000001	n/a	No	3.224	n/a	5.0	NoResponse	0	0.037	721.561	13	76	Feedback	Neutral	True
723.974	3.224	Control	0.7273000000000001	n/a	No	3.224	n/a	n/a	NoResponse	0	0.0	n/a	13	76	ISIslide	Neutral	True
727.223	0.25	Lose2	0.7179000000000001	0.0	No	2.577	0.023	n/a	NoResponse	-1	n/a	n/a	12	77	Cue	Loss	True
727.473	3.95	Lose2	0.7179000000000001	0.0	No	2.577	0.0	n/a	NoResponse	-1	n/a	n/a	12	77	Fixation	Loss	True
731.421	0.2	Lose2	0.7179000000000001	0.002	No	2.577	-0.002	2.0	NoResponse	-1	0.208	730.629	12	77	Target	Loss	True
731.621	0.5	Lose2	0.7179000000000001	n/a	No	2.577	n/a	n/a	NoResponse	-1	n/a	n/a	12	77	Blank	Loss	True
731.629	0.3	Lose2	0.7179000000000001	0.002	No	2.577	-0.002	2.0	NoResponse	-1	0.208	n/a	12	77	ButtonPress	Loss	True
732.121	1.45	Lose2	0.7179000000000001	n/a	No	2.577	n/a	5.0	NoResponse	-1	0.0	731.121	12	77	Feedback	Loss	True
733.571	2.577	Lose2	0.7179000000000001	n/a	No	2.577	n/a	n/a	NoResponse	-1	0.0	n/a	12	77	ISIslide	Loss	True
