onset	duration	cue_type	current_mean_accuracy	duration_error	is_hit	isi_adjusted	onset_delay	response	response_type	reward	rt	rt_time	total_reward	trial_number	trial_phase	trial_type	one_press
11.106	0.25	Control	1.0	0.0	Yes	2.944	0.006	n/a	GoodResponse	0	n/a	n/a	0	0	Cue	Neutral	True
11.356	3.85	Control	1.0	0.0	Yes	2.944	0.0	n/a	GoodResponse	0	n/a	n/a	0	0	Fixation	Neutral	True
15.205	0.4	Control	1.0	0.001	Yes	2.944	-0.001	2.0	GoodResponse	0	0.24	14.445	0	0	Target	Neutral	True
15.445	0.3	Control	1.0	0.001	Yes	2.944	-0.001	2.0	GoodResponse	0	0.24	n/a	0	0	ButtonPress	Neutral	True
15.605	0.3	Control	1.0	n/a	Yes	2.944	n/a	n/a	GoodResponse	0	n/a	n/a	0	0	Blank	Neutral	True
15.905	1.45	Control	1.0	n/a	Yes	2.944	n/a	5.0	GoodResponse	0	0.021	14.926	0	0	Feedback	Neutral	True
17.354	2.944	Control	1.0	n/a	Yes	2.944	n/a	n/a	GoodResponse	0	0.0	n/a	0	0	ISIslide	Neutral	True
20.32	0.25	Lose2	1.0	0.0	Yes	2.78	0.02	n/a	GoodResponse	0	n/a	n/a	0	1	Cue	AvoidedLoss	True
20.57	4.0	Lose2	1.0	0.0	Yes	2.78	0.0	n/a	GoodResponse	0	n/a	n/a	0	1	Fixation	AvoidedLoss	True
24.568	0.39	Lose2	1.0	0.002	Yes	2.78	-0.002	2.0	GoodResponse	0	0.243	23.811	0	1	Target	AvoidedLoss	True
24.811	0.3	Lose2	1.0	0.002	Yes	2.78	-0.002	2.0	GoodResponse	0	0.243	n/a	0	1	ButtonPress	AvoidedLoss	True
24.968	0.31	Lose2	1.0	n/a	Yes	2.78	n/a	n/a	GoodResponse	0	n/a	n/a	0	1	Blank	AvoidedLoss	True
25.268	1.45	Lose2	1.0	n/a	Yes	2.78	n/a	5.0	GoodResponse	0	0.024	24.292	0	1	Feedback	AvoidedLoss	True
26.718	2.78	Lose2	1.0	n/a	Yes	2.78	n/a	n/a	GoodResponse	0	0.0	n/a	0	1	ISIslide	AvoidedLoss	True
29.517	0.25	Control	1.0	0.0	Yes	2.583	0.017	n/a	GoodResponse	0	n/a	n/a	0	2	Cue	Neutral	True
29.766	4.1	Control	1.0	0.001	Yes	2.583	-0.001	n/a	GoodResponse	0	n/a	n/a	0	2	Fixation	Neutral	True
33.865	0.38	Control	1.0	0.002	Yes	2.583	-0.002	2.0	GoodResponse	0	0.284	33.149	0	2	Target	Neutral	True
34.149	0.3	Control	1.0	0.002	Yes	2.583	-0.002	2.0	GoodResponse	0	0.284	n/a	0	2	ButtonPress	Neutral	True
34.248	0.32	Control	1.0	n/a	Yes	2.583	n/a	n/a	GoodResponse	0	n/a	n/a	0	2	Blank	Neutral	True
34.565	1.45	Control	1.0	n/a	Yes	2.583	n/a	5.0	GoodResponse	0	0.044	33.609	0	2	Feedback	Neutral	True
36.014	2.583	Control	1.0	n/a	Yes	2.583	n/a	n/a	GoodResponse	0	0.0	n/a	0	2	ISIslide	Neutral	True
38.613	0.25	Win2	1.0	0.001	Yes	2.837	0.013	n/a	GoodResponse	1	n/a	n/a	1	3	Cue	Win	True
38.863	3.95	Win2	1.0	0.0	Yes	2.837	0.0	n/a	GoodResponse	1	n/a	n/a	1	3	Fixation	Win	True
42.812	0.37	Win2	1.0	0.001	Yes	2.837	-0.001	2.0	GoodResponse	1	0.249	42.061	1	3	Target	Win	True
43.061	0.3	Win2	1.0	0.001	Yes	2.837	-0.001	2.0	GoodResponse	1	0.249	n/a	1	3	ButtonPress	Win	True
43.178	0.33	Win2	1.0	n/a	Yes	2.837	n/a	n/a	GoodResponse	1	n/a	n/a	1	3	Blank	Win	True
43.512	1.45	Win2	1.0	n/a	Yes	2.837	n/a	5.0	GoodResponse	1	0.024	42.536	1	3	Feedback	Win	True
44.961	2.837	Win2	1.0	n/a	Yes	2.837	n/a	n/a	GoodResponse	1	0.0	n/a	1	3	ISIslide	Win	True
47.827	0.25	Win2	1.0	0.0	Yes	3.273	0.027	n/a	GoodResponse	1	n/a	n/a	2	4	Cue	Win	True
48.077	4.0	Win2	1.0	0.0	Yes	3.273	0.0	n/a	GoodResponse	1	n/a	n/a	2	4	Fixation	Win	True
52.075	0.36	Win2	1.0	0.002	Yes	3.273	-0.002	2.0	GoodResponse	1	0.236	51.311	2	4	Target	Win	True
52.311	0.3	Win2	1.0	0.002	Yes	3.273	-0.002	2.0	GoodResponse	1	0.236	n/a	2	4	ButtonPress	Win	True
52.442	0.34	Win2	1.0	n/a	Yes	3.273	n/a	n/a	GoodResponse	1	n/a	n/a	2	4	Blank	Win	True
52.775	1.45	Win2	1.0	n/a	Yes	3.273	n/a	5.0	GoodResponse	1	0.029	51.804	2	4	Feedback	Win	True
54.225	3.273	Win2	1.0	n/a	Yes	3.273	n/a	n/a	GoodResponse	1	0.0	n/a	2	4	ISIslide	Win	True
57.524	0.25	Win2	1.0	0.0	Yes	2.776	0.024	n/a	GoodResponse	1	n/a	n/a	3	5	Cue	Win	True
57.773	4.0	Win2	1.0	0.001	Yes	2.776	-0.001	n/a	GoodResponse	1	n/a	n/a	3	5	Fixation	Win	True
61.772	0.35	Win2	1.0	0.002	Yes	2.776	-0.002	2.0	GoodResponse	1	0.22	60.992	3	5	Target	Win	True
61.992	0.3	Win2	1.0	0.002	Yes	2.776	-0.002	2.0	GoodResponse	1	0.22	n/a	3	5	ButtonPress	Win	True
62.122	0.35	Win2	1.0	n/a	Yes	2.776	n/a	n/a	GoodResponse	1	n/a	n/a	3	5	Blank	Win	True
62.472	1.45	Win2	1.0	n/a	Yes	2.776	n/a	5.0	GoodResponse	1	0.039	61.511	3	5	Feedback	Win	True
63.921	2.776	Win2	1.0	n/a	Yes	2.776	n/a	n/a	GoodResponse	1	0.0	n/a	3	5	ISIslide	Win	True
66.72	0.25	Lose2	1.0	0.0	Yes	2.73	0.02	n/a	GoodResponse	0	n/a	n/a	3	6	Cue	AvoidedLoss	True
66.97	3.95	Lose2	1.0	0.0	Yes	2.73	0.0	n/a	GoodResponse	0	n/a	n/a	3	6	Fixation	AvoidedLoss	True
70.919	0.34	Lose2	1.0	0.001	Yes	2.73	-0.001	2.0	GoodResponse	0	0.26	70.179	3	6	Target	AvoidedLoss	True
71.179	0.3	Lose2	1.0	0.001	Yes	2.73	-0.001	2.0	GoodResponse	0	0.26	n/a	3	6	ButtonPress	AvoidedLoss	True
71.269	0.36	Lose2	1.0	n/a	Yes	2.73	n/a	n/a	GoodResponse	0	n/a	n/a	3	6	Blank	AvoidedLoss	True
71.619	1.45	Lose2	1.0	n/a	Yes	2.73	n/a	5.0	GoodResponse	0	0.014	70.633	3	6	Feedback	AvoidedLoss	True
73.068	2.73	Lose2	1.0	n/a	Yes	2.73	n/a	n/a	GoodResponse	0	0.0	n/a	3	6	ISIslide	AvoidedLoss	True
75.817	0.25	Lose2	1.0	0.0	Yes	4.033	0.017	n/a	GoodResponse	0	n/a	n/a	3	7	Cue	AvoidedLoss	True
76.067	4.05	Lose2	1.0	0.0	Yes	4.033	0.0	n/a	GoodResponse	0	n/a	n/a	3	7	Fixation	AvoidedLoss	True
80.116	0.33	Lose2	1.0	0.001	Yes	4.033	-0.001	2.0	GoodResponse	0	0.229	79.345	3	7	Target	AvoidedLoss	True
80.345	0.3	Lose2	1.0	0.001	Yes	4.033	-0.001	2.0	GoodResponse	0	0.229	n/a	3	7	ButtonPress	AvoidedLoss	True
80.449	0.37	Lose2	1.0	n/a	Yes	4.033	n/a	n/a	GoodResponse	0	n/a	n/a	3	7	Blank	AvoidedLoss	True
80.815	1.45	Lose2	1.0	n/a	Yes	4.033	n/a	5.0	GoodResponse	0	0.037	79.852	3	7	Feedback	AvoidedLoss	True
82.265	4.033	Lose2	1.0	n/a	Yes	4.033	n/a	n/a	GoodResponse	0	0.0	n/a	3	7	ISIslide	AvoidedLoss	True
86.33	0.25	Lose2	1.0	0.0	Yes	3.02	0.03	n/a	GoodResponse	0	n/a	n/a	3	8	Cue	AvoidedLoss	True
86.58	3.95	Lose2	1.0	0.0	Yes	3.02	0.0	n/a	GoodResponse	0	n/a	n/a	3	8	Fixation	AvoidedLoss	True
90.529	0.32	Lose2	1.0	0.001	Yes	3.02	-0.001	2.0	GoodResponse	0	0.287	89.816	3	8	Target	AvoidedLoss	True
90.816	0.3	Lose2	1.0	0.001	Yes	3.02	-0.001	2.0	GoodResponse	0	0.287	n/a	3	8	ButtonPress	AvoidedLoss	True
90.862	0.38	Lose2	1.0	n/a	Yes	3.02	n/a	n/a	GoodResponse	0	n/a	n/a	3	8	Blank	AvoidedLoss	True
91.228	1.45	Lose2	1.0	n/a	Yes	3.02	n/a	5.0	GoodResponse	0	0.015	90.243	3	8	Feedback	AvoidedLoss	True
92.678	3.02	Lose2	1.0	n/a	Yes	3.02	n/a	n/a	GoodResponse	0	0.0	n/a	3	8	ISIslide	AvoidedLoss	True
95.727	0.25	Lose2	1.0	0.0	Yes	3.123	0.027	n/a	GoodResponse	0	n/a	n/a	3	9	Cue	AvoidedLoss	True
95.977	3.95	Lose2	1.0	0.0	Yes	3.123	0.0	n/a	GoodResponse	0	n/a	n/a	3	9	Fixation	AvoidedLoss	True
99.925	0.31	Lose2	1.0	0.002	Yes	3.123	-0.002	2.0	GoodResponse	0	0.266	99.191	3	9	Target	AvoidedLoss	True
100.191	0.3	Lose2	1.0	0.002	Yes	3.123	-0.002	2.0	GoodResponse	0	0.266	n/a	3	9	ButtonPress	AvoidedLoss	True
100.242	0.39	Lose2	1.0	n/a	Yes	3.123	n/a	n/a	GoodResponse	0	n/a	n/a	3	9	Blank	AvoidedLoss	True
100.625	1.45	Lose2	1.0	n/a	Yes	3.123	n/a	5.0	GoodResponse	0	0.032	99.657	3	9	Feedback	AvoidedLoss	True
102.075	3.123	Lose2	1.0	n/a	Yes	3.123	n/a	n/a	GoodResponse	0	0.0	n/a	3	9	ISIslide	AvoidedLoss	True
105.224	0.25	Control	1.0	0.0	Yes	3.276	0.024	n/a	GoodResponse	0	n/a	n/a	3	10	Cue	Neutral	True
105.473	4.0	Control	1.0	0.001	Yes	3.276	-0.001	n/a	GoodResponse	0	n/a	n/a	3	10	Fixation	Neutral	True
109.472	0.3	Control	1.0	0.002	Yes	3.276	-0.002	2.0	GoodResponse	0	0.231	108.703	3	10	Target	Neutral	True
109.703	0.3	Control	1.0	0.002	Yes	3.276	-0.002	2.0	GoodResponse	0	0.231	n/a	3	10	ButtonPress	Neutral	True
109.772	0.4	Control	1.0	n/a	Yes	3.276	n/a	n/a	GoodResponse	0	n/a	n/a	3	10	Blank	Neutral	True
110.172	1.45	Control	1.0	n/a	Yes	3.276	n/a	5.0	GoodResponse	0	0.046	109.218	3	10	Feedback	Neutral	True
111.621	3.276	Control	1.0	n/a	Yes	3.276	n/a	n/a	GoodResponse	0	0.0	n/a	3	10	ISIslide	Neutral	True
114.92	0.25	Lose2	1.0	0.0	Yes	2.73	0.02	n/a	GoodResponse	0	n/a	n/a	3	11	Cue	AvoidedLoss	True
115.17	4.05	Lose2	1.0	0.0	Yes	2.73	0.0	n/a	GoodResponse	0	n/a	n/a	3	11	Fixation	AvoidedLoss	True
119.219	0.29	Lose2	1.0	0.001	Yes	2.73	-0.001	2.0	GoodResponse	0	0.207	118.426	3	11	Target	AvoidedLoss	True
119.426	0.3	Lose2	1.0	0.001	Yes	2.73	-0.001	2.0	GoodResponse	0	0.207	n/a	3	11	ButtonPress	AvoidedLoss	True
119.519	0.41	Lose2	1.0	n/a	Yes	2.73	n/a	n/a	GoodResponse	0	n/a	n/a	3	11	Blank	AvoidedLoss	True
119.918	1.45	Lose2	1.0	n/a	Yes	2.73	n/a	5.0	GoodResponse	0	0.007	118.925	3	11	Feedback	AvoidedLoss	True
121.368	2.73	Lose2	1.0	n/a	Yes	2.73	n/a	n/a	GoodResponse	0	0.0	n/a	3	11	ISIslide	AvoidedLoss	True
124.117	0.25	Control	1.0	0.0	Yes	2.983	0.017	n/a	GoodResponse	0	n/a	n/a	3	12	Cue	Neutral	True
124.367	3.9	Control	1.0	0.0	Yes	2.983	0.0	n/a	GoodResponse	0	n/a	n/a	3	12	Fixation	Neutral	True
128.265	0.28	Control	1.0	0.002	Yes	2.983	-0.002	2.0	GoodResponse	0	0.211	127.476	3	12	Target	Neutral	True
128.476	0.3	Control	1.0	0.002	Yes	2.983	-0.002	2.0	GoodResponse	0	0.211	n/a	3	12	ButtonPress	Neutral	True
128.549	0.42	Control	1.0	n/a	Yes	2.983	n/a	n/a	GoodResponse	0	n/a	n/a	3	12	Blank	Neutral	True
128.965	1.45	Control	1.0	n/a	Yes	2.983	n/a	5.0	GoodResponse	0	0.033	127.998	3	12	Feedback	Neutral	True
130.415	2.983	Control	1.0	n/a	Yes	2.983	n/a	n/a	GoodResponse	0	0.0	n/a	3	12	ISIslide	Neutral	True
133.43	0.25	Control	1.0	0.0	Yes	2.77	0.03	n/a	GoodResponse	0	n/a	n/a	3	13	Cue	Neutral	True
133.68	4.0	Control	1.0	0.0	Yes	2.77	0.0	n/a	GoodResponse	0	n/a	n/a	3	13	Fixation	Neutral	True
137.679	0.27	Control	1.0	0.001	Yes	2.77	-0.001	2.0	GoodResponse	0	0.219	136.898	3	13	Target	Neutral	True
137.898	0.3	Control	1.0	0.001	Yes	2.77	-0.001	2.0	GoodResponse	0	0.219	n/a	3	13	ButtonPress	Neutral	True
137.945	0.43	Control	1.0	n/a	Yes	2.77	n/a	n/a	GoodResponse	0	n/a	n/a	3	13	Blank	Neutral	True
138.379	1.45	Control	1.0	n/a	Yes	2.77	n/a	5.0	GoodResponse	0	0.034	137.413	3	13	Feedback	Neutral	True
139.828	2.77	Control	1.0	n/a	Yes	2.77	n/a	n/a	GoodResponse	0	0.0	n/a	3	13	ISIslide	Neutral	True
142.627	0.25	Win2	1.0	0.0	Yes	2.673	0.027	n/a	GoodResponse	1	n/a	n/a	4	14	Cue	Win	True
142.877	4.1	Win2	1.0	0.0	Yes	2.673	0.0	n/a	GoodResponse	1	n/a	n/a	4	14	Fixation	Win	True
146.976	0.26	Win2	1.0	0.001	Yes	2.673	-0.001	2.0	GoodResponse	1	0.205	146.181	4	14	Target	Win	True
147.181	0.3	Win2	1.0	0.001	Yes	2.673	-0.001	2.0	GoodResponse	1	0.205	n/a	4	14	ButtonPress	Win	True
147.242	0.44	Win2	1.0	n/a	Yes	2.673	n/a	n/a	GoodResponse	1	n/a	n/a	4	14	Blank	Win	True
147.675	1.45	Win2	1.0	n/a	Yes	2.673	n/a	5.0	GoodResponse	1	0.007	146.682	4	14	Feedback	Win	True
149.125	2.673	Win2	1.0	n/a	Yes	2.673	n/a	n/a	GoodResponse	1	0.0	n/a	4	14	ISIslide	Win	True
151.824	0.25	Control	1.0	0.0	Yes	2.976	0.024	n/a	GoodResponse	0	n/a	n/a	4	15	Cue	Neutral	True
152.074	4.0	Control	1.0	0.0	Yes	2.976	0.0	n/a	GoodResponse	0	n/a	n/a	4	15	Fixation	Neutral	True
156.072	0.25	Control	1.0	0.002	Yes	2.976	-0.002	2.0	GoodResponse	0	0.225	155.297	4	15	Target	Neutral	True
156.297	0.3	Control	1.0	0.002	Yes	2.976	-0.002	2.0	GoodResponse	0	0.225	n/a	4	15	ButtonPress	Neutral	True
156.322	0.45	Control	1.0	n/a	Yes	2.976	n/a	n/a	GoodResponse	0	n/a	n/a	4	15	Blank	Neutral	True
156.772	1.45	Control	1.0	n/a	Yes	2.976	n/a	5.0	GoodResponse	0	0.031	155.803	4	15	Feedback	Neutral	True
158.222	2.976	Control	1.0	n/a	Yes	2.976	n/a	n/a	GoodResponse	0	0.0	n/a	4	15	ISIslide	Neutral	True
161.221	0.25	Win2	1.0	0.0	Yes	2.879	0.021	n/a	GoodResponse	1	n/a	n/a	5	16	Cue	Win	True
161.471	4.0	Win2	1.0	0.0	Yes	2.879	0.0	n/a	GoodResponse	1	n/a	n/a	5	16	Fixation	Win	True
165.469	0.24	Win2	1.0	0.002	Yes	2.879	-0.002	2.0	GoodResponse	1	0.222	164.691	5	16	Target	Win	True
165.691	0.3	Win2	1.0	0.002	Yes	2.879	-0.002	2.0	GoodResponse	1	0.222	n/a	5	16	ButtonPress	Win	True
165.719	0.46	Win2	1.0	n/a	Yes	2.879	n/a	n/a	GoodResponse	1	n/a	n/a	5	16	Blank	Win	True
166.169	1.45	Win2	1.0	n/a	Yes	2.879	n/a	5.0	GoodResponse	1	0.048	165.217	5	16	Feedback	Win	True
167.618	2.879	Win2	1.0	n/a	Yes	2.879	n/a	n/a	GoodResponse	1	0.0	n/a	5	16	ISIslide	Win	True
170.517	0.25	Lose2	0.9444	0.001	No	2.733	0.017	n/a	NoResponse	-1	n/a	n/a	4	17	Cue	Loss	True
170.767	3.95	Lose2	0.9444	0.0	No	2.733	0.0	n/a	NoResponse	-1	n/a	n/a	4	17	Fixation	Loss	True
174.716	0.23	Lose2	0.9444	0.001	No	2.733	-0.001	2.0	NoResponse	-1	0.241	173.957	4	17	Target	Loss	True
174.949	0.47	Lose2	0.9444	n/a	No	2.733	n/a	n/a	NoResponse	-1	n/a	n/a	4	17	Blank	Loss	True
174.957	0.3	Lose2	0.9444	0.001	No	2.733	-0.001	2.0	NoResponse	-1	0.241	n/a	4	17	ButtonPress	Loss	True
175.416	1.45	Lose2	0.9444	n/a	No	2.733	n/a	5.0	NoResponse	-1	0.021	174.437	4	17	Feedback	Loss	True
176.865	2.733	Lose2	0.9444	n/a	No	2.733	n/a	n/a	NoResponse	-1	0.0	n/a	4	17	ISIslide	Loss	True
179.614	0.25	Lose2	0.8946999999999999	0.0	No	2.736	0.014	n/a	LatePress	-1	n/a	n/a	3	18	Cue	Loss	True
179.864	4.05	Lose2	0.8946999999999999	0.0	No	2.736	0.0	n/a	LatePress	-1	n/a	n/a	3	18	Fixation	Loss	True
183.913	0.22	Lose2	0.8946999999999999	0.001	No	2.736	-0.001	2.0	LatePress	-1	0.221	183.134	3	18	Target	Loss	True
184.134	0.3	Lose2	0.8946999999999999	0.001	No	2.736	-0.001	2.0	LatePress	-1	0.221	n/a	3	18	ButtonPress	Loss	True
184.146	0.48	Lose2	0.8946999999999999	n/a	No	2.736	n/a	n/a	LatePress	-1	n/a	n/a	3	18	Blank	Loss	True
184.612	1.45	Lose2	0.8946999999999999	n/a	No	2.736	n/a	5.0	LatePress	-1	0.044	183.656	3	18	Feedback	Loss	True
186.062	2.736	Lose2	0.8946999999999999	n/a	No	2.736	n/a	n/a	LatePress	-1	0.0	n/a	3	18	ISIslide	Loss	True
188.828	0.25	Control	0.85	0.0	No	2.922	0.028	n/a	NoResponse	0	n/a	n/a	3	19	Cue	Neutral	True
189.078	3.95	Control	0.85	0.0	No	2.922	0.0	n/a	NoResponse	0	n/a	n/a	3	19	Fixation	Neutral	True
193.026	0.21	Control	0.85	0.002	No	2.922	-0.002	2.0	NoResponse	0	0.242	192.268	3	19	Target	Neutral	True
193.243	0.49	Control	0.85	n/a	No	2.922	n/a	n/a	NoResponse	0	n/a	n/a	3	19	Blank	Neutral	True
193.268	0.3	Control	0.85	0.002	No	2.922	-0.002	2.0	NoResponse	0	0.242	n/a	3	19	ButtonPress	Neutral	True
193.726	1.45	Control	0.85	n/a	No	2.922	n/a	5.0	NoResponse	0	0.007	192.733	3	19	Feedback	Neutral	True
195.175	2.922	Control	0.85	n/a	No	2.922	n/a	n/a	NoResponse	0	0.0	n/a	3	19	ISIslide	Neutral	True
198.124	0.25	Control	0.8095	0.001	No	2.626	0.024	n/a	NoResponse	0	n/a	n/a	3	20	Cue	Neutral	False
198.374	4.05	Control	0.8095	0.0	No	2.626	0.0	n/a	NoResponse	0	n/a	n/a	3	20	Fixation	Neutral	False
202.423	0.2	Control	0.8095	0.001	No	2.626	-0.001	n/a	NoResponse	0	n/a	n/a	3	20	Target	Neutral	False
202.623	0.5	Control	0.8095	n/a	No	2.626	n/a	n/a	NoResponse	0	n/a	n/a	3	20	Blank	Neutral	False
203.123	1.45	Control	0.8095	n/a	No	2.626	n/a	5.0	NoResponse	0	0.022	202.145	3	20	Feedback	Neutral	False
204.572	2.626	Control	0.8095	n/a	No	2.626	n/a	n/a	NoResponse	0	0.0	n/a	3	20	ISIslide	Neutral	False
207.221	0.25	Control	0.7726999999999999	0.0	No	2.779	0.021	n/a	NoResponse	0	n/a	n/a	3	21	Cue	Neutral	True
207.471	4.1	Control	0.7726999999999999	0.0	No	2.779	0.0	n/a	NoResponse	0	n/a	n/a	3	21	Fixation	Neutral	True
211.57	0.19	Control	0.7726999999999999	0.001	No	2.779	-0.001	2.0	NoResponse	0	0.231	210.801	3	21	Target	Neutral	True
211.77	0.51	Control	0.7726999999999999	n/a	No	2.779	n/a	n/a	NoResponse	0	n/a	n/a	3	21	Blank	Neutral	True
211.801	0.3	Control	0.7726999999999999	0.001	No	2.779	-0.001	2.0	NoResponse	0	0.231	n/a	3	21	ButtonPress	Neutral	True
212.269	1.45	Control	0.7726999999999999	n/a	No	2.779	n/a	5.0	NoResponse	0	0.046	211.315	3	21	Feedback	Neutral	True
213.719	2.779	Control	0.7726999999999999	n/a	No	2.779	n/a	n/a	NoResponse	0	0.0	n/a	3	21	ISIslide	Neutral	True
216.518	0.25	Control	0.7391	0.0	No	2.782	0.018	n/a	NoResponse	0	n/a	n/a	3	22	Cue	Neutral	False
216.768	4.0	Control	0.7391	0.0	No	2.782	0.0	n/a	NoResponse	0	n/a	n/a	3	22	Fixation	Neutral	False
220.767	0.18	Control	0.7391	0.001	No	2.782	-0.001	n/a	NoResponse	0	n/a	n/a	3	22	Target	Neutral	False
220.95	0.52	Control	0.7391	n/a	No	2.782	n/a	n/a	NoResponse	0	n/a	n/a	3	22	Blank	Neutral	False
221.466	1.45	Control	0.7391	n/a	No	2.782	n/a	5.0	NoResponse	0	0.019	220.485	3	22	Feedback	Neutral	False
222.916	2.782	Control	0.7391	n/a	No	2.782	n/a	n/a	NoResponse	0	0.0	n/a	3	22	ISIslide	Neutral	False
225.715	0.25	Control	0.7082999999999999	0.0	No	2.785	0.015	n/a	NoResponse	0	n/a	n/a	3	23	Cue	Neutral	True
225.965	3.9	Control	0.7082999999999999	0.0	No	2.785	0.0	n/a	NoResponse	0	n/a	n/a	3	23	Fixation	Neutral	True
229.863	0.17	Control	0.7082999999999999	0.002	No	2.785	-0.002	2.0	NoResponse	0	0.218	229.081	3	23	Target	Neutral	True
230.047	0.53	Control	0.7082999999999999	n/a	No	2.785	n/a	n/a	NoResponse	0	n/a	n/a	3	23	Blank	Neutral	True
230.081	0.3	Control	0.7082999999999999	0.002	No	2.785	-0.002	2.0	NoResponse	0	0.218	n/a	3	23	ButtonPress	Neutral	True
230.563	1.45	Control	0.7082999999999999	n/a	No	2.785	n/a	5.0	NoResponse	0	0.044	229.607	3	23	Feedback	Neutral	True
232.013	2.785	Control	0.7082999999999999	n/a	No	2.785	n/a	n/a	NoResponse	0	0.0	n/a	3	23	ISIslide	Neutral	True
234.828	0.25	Win2	0.68	0.0	No	3.122	0.028	n/a	NoResponse	0	n/a	n/a	3	24	Cue	MissedWin	True
235.078	3.95	Win2	0.68	0.0	No	3.122	0.0	n/a	NoResponse	0	n/a	n/a	3	24	Fixation	MissedWin	True
239.027	0.16	Win2	0.68	0.001	No	3.122	-0.001	2.0	NoResponse	0	0.198	238.225	3	24	Target	MissedWin	True
239.193	0.54	Win2	0.68	n/a	No	3.122	n/a	n/a	NoResponse	0	n/a	n/a	3	24	Blank	MissedWin	True
239.225	0.3	Win2	0.68	0.001	No	3.122	-0.001	2.0	NoResponse	0	0.198	n/a	3	24	ButtonPress	MissedWin	True
239.727	1.45	Win2	0.68	n/a	No	3.122	n/a	5.0	NoResponse	0	0.006	238.733	3	24	Feedback	MissedWin	True
241.176	3.122	Win2	0.68	n/a	No	3.122	n/a	n/a	NoResponse	0	0.0	n/a	3	24	ISIslide	MissedWin	True
244.325	0.25	Win2	0.6537999999999999	0.0	No	3.075	0.025	n/a	NoResponse	0	n/a	n/a	3	25	Cue	MissedWin	True
244.575	4.0	Win2	0.6537999999999999	0.0	No	3.075	0.0	n/a	NoResponse	0	n/a	n/a	3	25	Fixation	MissedWin	True
248.574	0.15	Win2	0.6537999999999999	0.001	No	3.075	-0.001	2.0	NoResponse	0	0.182	247.756	3	25	Target	MissedWin	True
248.723	0.55	Win2	0.6537999999999999	n/a	No	3.075	n/a	n/a	NoResponse	0	n/a	n/a	3	25	Blank	MissedWin	True
248.756	0.3	Win2	0.6537999999999999	0.001	No	3.075	-0.001	2.0	NoResponse	0	0.182	n/a	3	25	ButtonPress	MissedWin	True
249.273	1.45	Win2	0.6537999999999999	n/a	No	3.075	n/a	5.0	NoResponse	0	0.017	248.29	3	25	Feedback	MissedWin	True
250.723	3.075	Win2	0.6537999999999999	n/a	No	3.075	n/a	n/a	NoResponse	0	0.0	n/a	3	25	ISIslide	MissedWin	True
253.822	0.25	Win2	0.6296	0.0	No	2.928	0.022	n/a	NoResponse	0	n/a	n/a	3	26	Cue	MissedWin	True
254.072	3.95	Win2	0.6296	0.0	No	2.928	0.0	n/a	NoResponse	0	n/a	n/a	3	26	Fixation	MissedWin	True
258.02	0.16	Win2	0.6296	0.002	No	2.928	-0.002	2.0	NoResponse	0	0.187	257.207	3	26	Target	MissedWin	True
258.187	0.54	Win2	0.6296	n/a	No	2.928	n/a	n/a	NoResponse	0	n/a	n/a	3	26	Blank	MissedWin	True
258.207	0.3	Win2	0.6296	0.002	No	2.928	-0.002	2.0	NoResponse	0	0.187	n/a	3	26	ButtonPress	MissedWin	True
258.72	1.45	Win2	0.6296	n/a	No	2.928	n/a	5.0	NoResponse	0	0.034	257.754	3	26	Feedback	MissedWin	True
260.169	2.928	Win2	0.6296	n/a	No	2.928	n/a	n/a	NoResponse	0	0.0	n/a	3	26	ISIslide	MissedWin	True
263.118	0.25	Lose2	0.6071	0.001	No	2.832	0.018	n/a	NoResponse	-1	n/a	n/a	2	27	Cue	Loss	True
263.368	4.05	Lose2	0.6071	0.0	No	2.832	0.0	n/a	NoResponse	-1	n/a	n/a	2	27	Fixation	Loss	True
267.417	0.17	Lose2	0.6071	0.001	No	2.832	-0.001	2.0	NoResponse	-1	0.209	266.626	2	27	Target	Loss	True
267.584	0.53	Lose2	0.6071	n/a	No	2.832	n/a	n/a	NoResponse	-1	n/a	n/a	2	27	Blank	Loss	True
267.626	0.3	Lose2	0.6071	0.001	No	2.832	-0.001	2.0	NoResponse	-1	0.209	n/a	2	27	ButtonPress	Loss	True
268.117	1.45	Lose2	0.6071	n/a	No	2.832	n/a	5.0	NoResponse	-1	0.006	267.123	2	27	Feedback	Loss	True
269.566	2.832	Lose2	0.6071	n/a	No	2.832	n/a	n/a	NoResponse	-1	0.0	n/a	2	27	ISIslide	Loss	True
272.415	0.25	Control	0.6207	0.0	Yes	2.835	0.015	n/a	GoodResponse	0	n/a	n/a	2	28	Cue	Neutral	True
272.665	4.05	Control	0.6207	0.0	Yes	2.835	0.0	n/a	GoodResponse	0	n/a	n/a	2	28	Fixation	Neutral	True
276.714	0.18	Control	0.6207	0.001	Yes	2.835	-0.001	2.0	GoodResponse	0	0.172	275.886	2	28	Target	Neutral	True
276.886	0.3	Control	0.6207	0.001	Yes	2.835	-0.001	2.0	GoodResponse	0	0.172	n/a	2	28	ButtonPress	Neutral	True
276.897	0.52	Control	0.6207	n/a	Yes	2.835	n/a	n/a	GoodResponse	0	n/a	n/a	2	28	Blank	Neutral	True
277.413	1.45	Control	0.6207	n/a	Yes	2.835	n/a	5.0	GoodResponse	0	0.023	276.436	2	28	Feedback	Neutral	True
278.863	2.835	Control	0.6207	n/a	Yes	2.835	n/a	n/a	GoodResponse	0	0.0	n/a	2	28	ISIslide	Neutral	True
281.729	0.25	Lose2	0.6333	0.0	Yes	2.821	0.029	n/a	GoodResponse	0	n/a	n/a	2	29	Cue	AvoidedLoss	True
281.979	3.95	Lose2	0.6333	0.0	Yes	2.821	0.0	n/a	GoodResponse	0	n/a	n/a	2	29	Fixation	AvoidedLoss	True
285.927	0.19	Lose2	0.6333	0.002	Yes	2.821	-0.002	2.0	GoodResponse	0	0.183	285.11	2	29	Target	AvoidedLoss	True
286.11	0.3	Lose2	0.6333	0.002	Yes	2.821	-0.002	2.0	GoodResponse	0	0.183	n/a	2	29	ButtonPress	AvoidedLoss	True
286.127	0.51	Lose2	0.6333	n/a	Yes	2.821	n/a	n/a	GoodResponse	0	n/a	n/a	2	29	Blank	AvoidedLoss	True
286.627	1.45	Lose2	0.6333	n/a	Yes	2.821	n/a	5.0	GoodResponse	0	0.029	285.656	2	29	Feedback	AvoidedLoss	True
288.076	2.821	Lose2	0.6333	n/a	Yes	2.821	n/a	n/a	GoodResponse	0	0.0	n/a	2	29	ISIslide	AvoidedLoss	True
290.925	0.25	Win2	0.6452	0.001	Yes	2.775	0.025	n/a	GoodResponse	1	n/a	n/a	3	30	Cue	Win	True
291.175	3.9	Win2	0.6452	0.0	Yes	2.775	0.0	n/a	GoodResponse	1	n/a	n/a	3	30	Fixation	Win	True
295.074	0.2	Win2	0.6452	0.001	Yes	2.775	-0.001	2.0	GoodResponse	1	0.199	294.273	3	30	Target	Win	True
295.273	0.3	Win2	0.6452	0.001	Yes	2.775	-0.001	2.0	GoodResponse	1	0.199	n/a	3	30	ButtonPress	Win	True
295.274	0.5	Win2	0.6452	n/a	Yes	2.775	n/a	n/a	GoodResponse	1	n/a	n/a	3	30	Blank	Win	True
295.774	1.45	Win2	0.6452	n/a	Yes	2.775	n/a	5.0	GoodResponse	1	0.006	294.78	3	30	Feedback	Win	True
297.223	2.775	Win2	0.6452	n/a	Yes	2.775	n/a	n/a	GoodResponse	1	0.0	n/a	3	30	ISIslide	Win	True
300.022	0.25	Lose2	0.625	0.0	No	2.828	0.022	n/a	NoResponse	-1	n/a	n/a	2	31	Cue	Loss	True
300.272	4.05	Lose2	0.625	0.0	No	2.828	0.0	n/a	NoResponse	-1	n/a	n/a	2	31	Fixation	Loss	True
304.321	0.21	Lose2	0.625	0.001	No	2.828	-0.001	2.0	NoResponse	-1	0.229	303.55	2	31	Target	Loss	True
304.537	0.49	Lose2	0.625	n/a	No	2.828	n/a	n/a	NoResponse	-1	n/a	n/a	2	31	Blank	Loss	True
304.55	0.3	Lose2	0.625	0.001	No	2.828	-0.001	2.0	NoResponse	-1	0.229	n/a	2	31	ButtonPress	Loss	True
305.02	1.45	Lose2	0.625	n/a	No	2.828	n/a	5.0	NoResponse	-1	0.026	304.046	2	31	Feedback	Loss	True
306.47	2.828	Lose2	0.625	n/a	No	2.828	n/a	n/a	NoResponse	-1	0.0	n/a	2	31	ISIslide	Loss	True
309.319	0.25	Lose2	0.6364	0.0	Yes	2.631	0.019	n/a	GoodResponse	0	n/a	n/a	2	32	Cue	AvoidedLoss	True
309.569	4.15	Lose2	0.6364	0.0	Yes	2.631	0.0	n/a	GoodResponse	0	n/a	n/a	2	32	Fixation	AvoidedLoss	True
313.717	0.22	Lose2	0.6364	0.002	Yes	2.631	-0.002	2.0	GoodResponse	0	0.213	312.93	2	32	Target	AvoidedLoss	True
313.93	0.3	Lose2	0.6364	0.002	Yes	2.631	-0.002	2.0	GoodResponse	0	0.213	n/a	2	32	ButtonPress	AvoidedLoss	True
313.951	0.48	Lose2	0.6364	n/a	Yes	2.631	n/a	n/a	GoodResponse	0	n/a	n/a	2	32	Blank	AvoidedLoss	True
314.417	1.45	Lose2	0.6364	n/a	Yes	2.631	n/a	5.0	GoodResponse	0	0.043	313.46	2	32	Feedback	AvoidedLoss	True
315.867	2.631	Lose2	0.6364	n/a	Yes	2.631	n/a	n/a	GoodResponse	0	0.0	n/a	2	32	ISIslide	AvoidedLoss	True
318.516	0.25	Win2	0.6175999999999999	0.0	No	2.684	0.016	n/a	NoResponse	0	n/a	n/a	2	33	Cue	MissedWin	True
318.766	4.0	Win2	0.6175999999999999	0.0	No	2.684	0.0	n/a	NoResponse	0	n/a	n/a	2	33	Fixation	MissedWin	True
322.764	0.23	Win2	0.6175999999999999	0.002	No	2.684	-0.002	2.0	NoResponse	0	0.242	322.006	2	33	Target	MissedWin	True
322.998	0.47	Win2	0.6175999999999999	n/a	No	2.684	n/a	n/a	NoResponse	0	n/a	n/a	2	33	Blank	MissedWin	True
323.006	0.3	Win2	0.6175999999999999	0.002	No	2.684	-0.002	2.0	NoResponse	0	0.242	n/a	2	33	ButtonPress	MissedWin	True
323.464	1.45	Win2	0.6175999999999999	n/a	No	2.684	n/a	5.0	NoResponse	0	0.021	322.485	2	33	Feedback	MissedWin	True
324.914	2.684	Win2	0.6175999999999999	n/a	No	2.684	n/a	n/a	NoResponse	0	0.0	n/a	2	33	ISIslide	MissedWin	True
327.629	0.25	Lose2	0.6286	0.0	Yes	2.621	0.029	n/a	GoodResponse	0	n/a	n/a	2	34	Cue	AvoidedLoss	True
327.879	4.05	Lose2	0.6286	0.0	Yes	2.621	0.0	n/a	GoodResponse	0	n/a	n/a	2	34	Fixation	AvoidedLoss	True
331.928	0.24	Lose2	0.6286	0.001	Yes	2.621	-0.001	2.0	GoodResponse	0	0.212	331.14	2	34	Target	AvoidedLoss	True
332.14	0.3	Lose2	0.6286	0.001	Yes	2.621	-0.001	2.0	GoodResponse	0	0.212	n/a	2	34	ButtonPress	AvoidedLoss	True
332.178	0.46	Lose2	0.6286	n/a	Yes	2.621	n/a	n/a	GoodResponse	0	n/a	n/a	2	34	Blank	AvoidedLoss	True
332.628	1.45	Lose2	0.6286	n/a	Yes	2.621	n/a	5.0	GoodResponse	0	0.027	331.655	2	34	Feedback	AvoidedLoss	True
334.077	2.621	Lose2	0.6286	n/a	Yes	2.621	n/a	n/a	GoodResponse	0	0.0	n/a	2	34	ISIslide	AvoidedLoss	True
336.726	0.25	Lose2	0.6389	0.0	Yes	2.674	0.026	n/a	GoodResponse	0	n/a	n/a	2	35	Cue	AvoidedLoss	True
336.976	4.0	Lose2	0.6389	0.0	Yes	2.674	0.0	n/a	GoodResponse	0	n/a	n/a	2	35	Fixation	AvoidedLoss	True
340.975	0.25	Lose2	0.6389	0.001	Yes	2.674	-0.001	2.0	GoodResponse	0	0.202	340.177	2	35	Target	AvoidedLoss	True
341.177	0.3	Lose2	0.6389	0.001	Yes	2.674	-0.001	2.0	GoodResponse	0	0.202	n/a	2	35	ButtonPress	AvoidedLoss	True
341.225	0.45	Lose2	0.6389	n/a	Yes	2.674	n/a	n/a	GoodResponse	0	n/a	n/a	2	35	Blank	AvoidedLoss	True
341.674	1.45	Lose2	0.6389	n/a	Yes	2.674	n/a	5.0	GoodResponse	0	0.007	340.681	2	35	Feedback	AvoidedLoss	True
343.124	2.674	Lose2	0.6389	n/a	Yes	2.674	n/a	n/a	GoodResponse	0	0.0	n/a	2	35	ISIslide	AvoidedLoss	True
345.823	0.25	Control	0.6486	0.0	Yes	2.677	0.023	n/a	GoodResponse	0	n/a	n/a	2	36	Cue	Neutral	True
346.073	4.0	Control	0.6486	0.0	Yes	2.677	0.0	n/a	GoodResponse	0	n/a	n/a	2	36	Fixation	Neutral	True
350.071	0.26	Control	0.6486	0.002	Yes	2.677	-0.002	2.0	GoodResponse	0	0.247	349.318	2	36	Target	Neutral	True
350.318	0.3	Control	0.6486	0.002	Yes	2.677	-0.002	2.0	GoodResponse	0	0.247	n/a	2	36	ButtonPress	Neutral	True
350.338	0.44	Control	0.6486	n/a	Yes	2.677	n/a	n/a	GoodResponse	0	n/a	n/a	2	36	Blank	Neutral	True
350.771	1.45	Control	0.6486	n/a	Yes	2.677	n/a	5.0	GoodResponse	0	0.031	349.802	2	36	Feedback	Neutral	True
352.221	2.677	Control	0.6486	n/a	Yes	2.677	n/a	n/a	GoodResponse	0	0.0	n/a	2	36	ISIslide	Neutral	True
354.92	0.25	Win2	0.6579	0.0	Yes	2.88	0.02	n/a	GoodResponse	1	n/a	n/a	3	37	Cue	Win	True
355.17	4.0	Win2	0.6579	0.0	Yes	2.88	0.0	n/a	GoodResponse	1	n/a	n/a	3	37	Fixation	Win	True
359.168	0.27	Win2	0.6579	0.002	Yes	2.88	-0.002	2.0	GoodResponse	1	0.186	358.354	3	37	Target	Win	True
359.354	0.3	Win2	0.6579	0.002	Yes	2.88	-0.002	2.0	GoodResponse	1	0.186	n/a	3	37	ButtonPress	Win	True
359.451	0.43	Win2	0.6579	n/a	Yes	2.88	n/a	n/a	GoodResponse	1	n/a	n/a	3	37	Blank	Win	True
359.868	1.45	Win2	0.6579	n/a	Yes	2.88	n/a	5.0	GoodResponse	1	0.007	358.875	3	37	Feedback	Win	True
361.318	2.88	Win2	0.6579	n/a	Yes	2.88	n/a	n/a	GoodResponse	1	0.0	n/a	3	37	ISIslide	Win	True
364.216	0.25	Lose2	0.6667000000000001	0.001	Yes	2.834	0.016	n/a	GoodResponse	0	n/a	n/a	3	38	Cue	AvoidedLoss	True
364.466	3.95	Lose2	0.6667000000000001	0.001	Yes	2.834	0.0	n/a	GoodResponse	0	n/a	n/a	3	38	Fixation	AvoidedLoss	True
368.415	0.27	Lose2	0.6667000000000001	0.001	Yes	2.834	-0.001	2.0	GoodResponse	0	0.196	367.611	3	38	Target	AvoidedLoss	True
368.611	0.3	Lose2	0.6667000000000001	0.001	Yes	2.834	-0.001	2.0	GoodResponse	0	0.196	n/a	3	38	ButtonPress	AvoidedLoss	True
368.682	0.43	Lose2	0.6667000000000001	n/a	Yes	2.834	n/a	n/a	GoodResponse	0	n/a	n/a	3	38	Blank	AvoidedLoss	True
369.115	1.45	Lose2	0.6667000000000001	n/a	Yes	2.834	n/a	5.0	GoodResponse	0	0.028	368.143	3	38	Feedback	AvoidedLoss	True
370.564	2.834	Lose2	0.6667000000000001	n/a	Yes	2.834	n/a	n/a	GoodResponse	0	0.0	n/a	3	38	ISIslide	AvoidedLoss	True
373.413	0.25	Win2	0.675	0.0	Yes	2.987	0.013	n/a	GoodResponse	1	n/a	n/a	4	39	Cue	Win	True
373.663	4.1	Win2	0.675	0.0	Yes	2.987	0.0	n/a	GoodResponse	1	n/a	n/a	4	39	Fixation	Win	True
377.762	0.26	Win2	0.675	0.001	Yes	2.987	-0.001	2.0	GoodResponse	1	0.195	376.957	4	39	Target	Win	True
377.957	0.3	Win2	0.675	0.001	Yes	2.987	-0.001	2.0	GoodResponse	1	0.195	n/a	4	39	ButtonPress	Win	True
378.028	0.44	Win2	0.675	n/a	Yes	2.987	n/a	n/a	GoodResponse	1	n/a	n/a	4	39	Blank	Win	True
378.462	1.45	Win2	0.675	n/a	Yes	2.987	n/a	5.0	GoodResponse	1	0.047	377.509	4	39	Feedback	Win	True
379.911	2.987	Win2	0.675	n/a	Yes	2.987	n/a	n/a	GoodResponse	1	0.0	n/a	4	39	ISIslide	Win	True
382.927	0.25	Win2	0.6829000000000001	0.0	Yes	2.723	0.027	n/a	GoodResponse	1	n/a	n/a	5	40	Cue	Win	True
383.177	3.95	Win2	0.6829000000000001	0.0	Yes	2.723	0.0	n/a	GoodResponse	1	n/a	n/a	5	40	Fixation	Win	True
387.125	0.25	Win2	0.6829000000000001	0.002	Yes	2.723	-0.002	2.0	GoodResponse	1	0.206	386.331	5	40	Target	Win	True
387.331	0.3	Win2	0.6829000000000001	0.002	Yes	2.723	-0.002	2.0	GoodResponse	1	0.206	n/a	5	40	ButtonPress	Win	True
387.375	0.45	Win2	0.6829000000000001	n/a	Yes	2.723	n/a	n/a	GoodResponse	1	n/a	n/a	5	40	Blank	Win	True
387.825	1.45	Win2	0.6829000000000001	n/a	Yes	2.723	n/a	5.0	GoodResponse	1	0.001	386.826	5	40	Feedback	Win	True
389.274	2.723	Win2	0.6829000000000001	n/a	Yes	2.723	n/a	n/a	GoodResponse	1	0.0	n/a	5	40	ISIslide	Win	True
392.023	0.25	Win2	0.6667000000000001	0.001	No	2.777	0.023	n/a	NoResponse	0	n/a	n/a	5	41	Cue	MissedWin	True
392.273	3.9	Win2	0.6667000000000001	0.0	No	2.777	0.0	n/a	NoResponse	0	n/a	n/a	5	41	Fixation	MissedWin	True
396.172	0.24	Win2	0.6667000000000001	0.001	No	2.777	-0.001	2.0	NoResponse	0	0.276	395.448	5	41	Target	MissedWin	True
396.422	0.46	Win2	0.6667000000000001	n/a	No	2.777	n/a	n/a	NoResponse	0	n/a	n/a	5	41	Blank	MissedWin	True
396.448	0.3	Win2	0.6667000000000001	0.001	No	2.777	-0.001	2.0	NoResponse	0	0.276	n/a	5	41	ButtonPress	MissedWin	True
396.872	1.45	Win2	0.6667000000000001	n/a	No	2.777	n/a	5.0	NoResponse	0	0.027	395.899	5	41	Feedback	MissedWin	True
398.321	2.777	Win2	0.6667000000000001	n/a	No	2.777	n/a	n/a	NoResponse	0	0.0	n/a	5	41	ISIslide	MissedWin	True
401.12	0.25	Control	0.6512	0.0	No	2.93	0.02	n/a	NoResponse	0	n/a	n/a	5	42	Cue	Neutral	True
401.37	3.85	Control	0.6512	0.0	No	2.93	0.0	n/a	NoResponse	0	n/a	n/a	5	42	Fixation	Neutral	True
405.219	0.23	Control	0.6512	0.001	No	2.93	-0.001	2.0	NoResponse	0	0.316	404.535	5	42	Target	Neutral	True
405.452	0.47	Control	0.6512	n/a	No	2.93	n/a	n/a	NoResponse	0	n/a	n/a	5	42	Blank	Neutral	True
405.535	0.3	Control	0.6512	0.001	No	2.93	-0.001	2.0	NoResponse	0	0.316	n/a	5	42	ButtonPress	Neutral	True
405.919	1.45	Control	0.6512	n/a	No	2.93	n/a	5.0	NoResponse	0	0.006	404.925	5	42	Feedback	Neutral	True
407.368	2.93	Control	0.6512	n/a	No	2.93	n/a	n/a	NoResponse	0	0.0	n/a	5	42	ISIslide	Neutral	True
410.317	0.25	Win2	0.6591	0.0	Yes	3.183	0.017	n/a	GoodResponse	1	n/a	n/a	6	43	Cue	Win	True
410.567	4.0	Win2	0.6591	0.0	Yes	3.183	0.0	n/a	GoodResponse	1	n/a	n/a	6	43	Fixation	Win	True
414.566	0.24	Win2	0.6591	0.001	Yes	3.183	-0.001	2.0	GoodResponse	1	0.198	413.764	6	43	Target	Win	True
414.764	0.3	Win2	0.6591	0.001	Yes	3.183	-0.001	2.0	GoodResponse	1	0.198	n/a	6	43	ButtonPress	Win	True
414.816	0.46	Win2	0.6591	n/a	Yes	3.183	n/a	n/a	GoodResponse	1	n/a	n/a	6	43	Blank	Win	True
415.265	1.45	Win2	0.6591	n/a	Yes	3.183	n/a	5.0	GoodResponse	1	0.024	414.289	6	43	Feedback	Win	True
416.715	3.183	Win2	0.6591	n/a	Yes	3.183	n/a	n/a	GoodResponse	1	0.0	n/a	6	43	ISIslide	Win	True
419.93	0.25	Win2	0.6667000000000001	0.001	Yes	2.97	0.03	n/a	GoodResponse	1	n/a	n/a	7	44	Cue	Win	False
420.18	4.0	Win2	0.6667000000000001	0.0	Yes	2.97	0.0	2.0	GoodResponse	1	0.078	419.258	7	44	Fixation	Win	False
420.258	0.3	Win2	0.6667000000000001	0.0	Yes	2.97	0.0	2.0	GoodResponse	1	0.078	n/a	7	44	ButtonPress	Win	False
424.179	0.24	Win2	0.6667000000000001	0.001	Yes	2.97	-0.001	2.0	GoodResponse	1	0.186	423.365	7	44	Target	Win	False
424.365	0.3	Win2	0.6667000000000001	0.001	Yes	2.97	-0.001	2.0	GoodResponse	1	0.186	n/a	7	44	ButtonPress	Win	False
424.429	0.46	Win2	0.6667000000000001	n/a	Yes	2.97	n/a	n/a	GoodResponse	1	n/a	n/a	7	44	Blank	Win	False
424.879	1.45	Win2	0.6667000000000001	n/a	Yes	2.97	n/a	5.0	GoodResponse	1	0.019	423.898	7	44	Feedback	Win	False
426.328	2.97	Win2	0.6667000000000001	n/a	Yes	2.97	n/a	n/a	GoodResponse	1	0.0	n/a	7	44	ISIslide	Win	False
429.327	0.25	Control	0.6739	0.0	Yes	2.873	0.027	n/a	GoodResponse	0	n/a	n/a	7	45	Cue	Neutral	True
429.577	4.1	Control	0.6739	0.0	Yes	2.873	0.0	n/a	GoodResponse	0	n/a	n/a	7	45	Fixation	Neutral	True
433.676	0.23	Control	0.6739	0.001	Yes	2.873	-0.001	2.0	GoodResponse	0	0.214	432.89	7	45	Target	Neutral	True
433.89	0.3	Control	0.6739	0.001	Yes	2.873	-0.001	2.0	GoodResponse	0	0.214	n/a	7	45	ButtonPress	Neutral	True
433.909	0.47	Control	0.6739	n/a	Yes	2.873	n/a	n/a	GoodResponse	0	n/a	n/a	7	45	Blank	Neutral	True
434.375	1.45	Control	0.6739	n/a	Yes	2.873	n/a	5.0	GoodResponse	0	0.036	433.411	7	45	Feedback	Neutral	True
435.825	2.873	Control	0.6739	n/a	Yes	2.873	n/a	n/a	GoodResponse	0	0.0	n/a	7	45	ISIslide	Neutral	True
438.724	0.25	Lose2	0.6596	0.0	No	3.376	0.024	n/a	LatePress	-1	n/a	n/a	6	46	Cue	Loss	True
438.974	4.0	Lose2	0.6596	0.0	No	3.376	0.0	n/a	LatePress	-1	n/a	n/a	6	46	Fixation	Loss	True
442.972	0.22	Lose2	0.6596	0.002	No	3.376	-0.002	2.0	LatePress	-1	0.233	442.205	6	46	Target	Loss	True
443.205	0.3	Lose2	0.6596	0.002	No	3.376	-0.002	2.0	LatePress	-1	0.233	n/a	6	46	ButtonPress	Loss	True
443.206	0.48	Lose2	0.6596	n/a	No	3.376	n/a	n/a	LatePress	-1	n/a	n/a	6	46	Blank	Loss	True
443.672	1.45	Lose2	0.6596	n/a	No	3.376	n/a	5.0	LatePress	-1	0.007	442.679	6	46	Feedback	Loss	True
445.122	3.376	Lose2	0.6596	n/a	No	3.376	n/a	n/a	LatePress	-1	0.0	n/a	6	46	ISIslide	Loss	True
448.52	0.25	Lose2	0.6457999999999999	0.0	No	2.68	0.02	n/a	NoResponse	-1	n/a	n/a	5	47	Cue	Loss	True
448.77	4.0	Lose2	0.6457999999999999	0.0	No	2.68	0.0	n/a	NoResponse	-1	n/a	n/a	5	47	Fixation	Loss	True
452.769	0.22	Lose2	0.6457999999999999	0.001	No	2.68	-0.001	2.0	NoResponse	-1	0.344	452.113	5	47	Target	Loss	True
452.986	0.48	Lose2	0.6457999999999999	n/a	No	2.68	n/a	n/a	NoResponse	-1	n/a	n/a	5	47	Blank	Loss	True
453.113	0.3	Lose2	0.6457999999999999	0.001	No	2.68	-0.001	2.0	NoResponse	-1	0.344	n/a	5	47	ButtonPress	Loss	True
453.469	1.45	Lose2	0.6457999999999999	n/a	No	2.68	n/a	5.0	NoResponse	-1	0.015	452.484	5	47	Feedback	Loss	True
454.918	2.68	Lose2	0.6457999999999999	n/a	No	2.68	n/a	n/a	NoResponse	-1	0.0	n/a	5	47	ISIslide	Loss	True
457.617	0.25	Lose2	0.6531	0.0	Yes	3.033	0.017	n/a	GoodResponse	0	n/a	n/a	5	48	Cue	AvoidedLoss	True
457.867	3.95	Lose2	0.6531	0.0	Yes	3.033	0.0	n/a	GoodResponse	0	n/a	n/a	5	48	Fixation	AvoidedLoss	True
461.816	0.23	Lose2	0.6531	0.001	Yes	3.033	-0.001	2.0	GoodResponse	0	0.209	461.025	5	48	Target	AvoidedLoss	True
462.025	0.3	Lose2	0.6531	0.001	Yes	3.033	-0.001	2.0	GoodResponse	0	0.209	n/a	5	48	ButtonPress	AvoidedLoss	True
462.049	0.47	Lose2	0.6531	n/a	Yes	3.033	n/a	n/a	GoodResponse	0	n/a	n/a	5	48	Blank	AvoidedLoss	True
462.516	1.45	Lose2	0.6531	n/a	Yes	3.033	n/a	5.0	GoodResponse	0	0.042	461.558	5	48	Feedback	AvoidedLoss	True
463.965	3.033	Lose2	0.6531	n/a	Yes	3.033	n/a	n/a	GoodResponse	0	0.0	n/a	5	48	ISIslide	AvoidedLoss	True
467.014	0.25	Control	0.64	0.0	No	2.886	0.014	n/a	LatePress	0	n/a	n/a	5	49	Cue	Neutral	True
467.264	4.0	Control	0.64	0.0	No	2.886	0.0	n/a	LatePress	0	n/a	n/a	5	49	Fixation	Neutral	True
471.262	0.24	Control	0.64	0.002	No	2.886	-0.002	2.0	LatePress	0	0.246	470.508	5	49	Target	Neutral	True
471.508	0.3	Control	0.64	0.002	No	2.886	-0.002	2.0	LatePress	0	0.246	n/a	5	49	ButtonPress	Neutral	True
471.512	0.46	Control	0.64	n/a	No	2.886	n/a	n/a	LatePress	0	n/a	n/a	5	49	Blank	Neutral	True
471.962	1.45	Control	0.64	n/a	No	2.886	n/a	5.0	LatePress	0	0.009	470.971	5	49	Feedback	Neutral	True
473.412	2.886	Control	0.64	n/a	No	2.886	n/a	n/a	LatePress	0	0.0	n/a	5	49	ISIslide	Neutral	True
476.327	0.25	Control	0.6470999999999999	0.0	Yes	2.773	0.027	n/a	GoodResponse	0	n/a	n/a	5	50	Cue	Neutral	True
476.577	4.0	Control	0.6470999999999999	0.0	Yes	2.773	0.0	n/a	GoodResponse	0	n/a	n/a	5	50	Fixation	Neutral	True
480.576	0.25	Control	0.6470999999999999	0.001	Yes	2.773	-0.001	2.0	GoodResponse	0	0.206	479.782	5	50	Target	Neutral	True
480.782	0.3	Control	0.6470999999999999	0.001	Yes	2.773	-0.001	2.0	GoodResponse	0	0.206	n/a	5	50	ButtonPress	Neutral	True
480.826	0.45	Control	0.6470999999999999	n/a	Yes	2.773	n/a	n/a	GoodResponse	0	n/a	n/a	5	50	Blank	Neutral	True
481.276	1.45	Control	0.6470999999999999	n/a	Yes	2.773	n/a	5.0	GoodResponse	0	0.012	480.288	5	50	Feedback	Neutral	True
482.725	2.773	Control	0.6470999999999999	n/a	Yes	2.773	n/a	n/a	GoodResponse	0	0.0	n/a	5	50	ISIslide	Neutral	True
485.524	0.25	Control	0.6537999999999999	0.0	Yes	2.726	0.024	n/a	GoodResponse	0	n/a	n/a	5	51	Cue	Neutral	True
485.774	3.95	Control	0.6537999999999999	0.0	Yes	2.726	0.0	n/a	GoodResponse	0	n/a	n/a	5	51	Fixation	Neutral	True
489.723	0.26	Control	0.6537999999999999	0.001	Yes	2.726	-0.001	2.0	GoodResponse	0	0.242	488.965	5	51	Target	Neutral	True
489.965	0.3	Control	0.6537999999999999	0.001	Yes	2.726	-0.001	2.0	GoodResponse	0	0.242	n/a	5	51	ButtonPress	Neutral	True
489.989	0.44	Control	0.6537999999999999	n/a	Yes	2.726	n/a	n/a	GoodResponse	0	n/a	n/a	5	51	Blank	Neutral	True
490.422	1.45	Control	0.6537999999999999	n/a	Yes	2.726	n/a	5.0	GoodResponse	0	0.037	489.459	5	51	Feedback	Neutral	True
491.872	2.726	Control	0.6537999999999999	n/a	Yes	2.726	n/a	n/a	GoodResponse	0	0.0	n/a	5	51	ISIslide	Neutral	True
494.621	0.25	Control	0.6604000000000001	0.0	Yes	2.629	0.021	n/a	GoodResponse	0	n/a	n/a	5	52	Cue	Neutral	True
494.871	4.05	Control	0.6604000000000001	0.0	Yes	2.629	0.0	n/a	GoodResponse	0	n/a	n/a	5	52	Fixation	Neutral	True
498.92	0.27	Control	0.6604000000000001	0.001	Yes	2.629	-0.001	2.0	GoodResponse	0	0.195	498.115	5	52	Target	Neutral	True
499.115	0.3	Control	0.6604000000000001	0.001	Yes	2.629	-0.001	2.0	GoodResponse	0	0.195	n/a	5	52	ButtonPress	Neutral	True
499.203	0.43	Control	0.6604000000000001	n/a	Yes	2.629	n/a	n/a	GoodResponse	0	n/a	n/a	5	52	Blank	Neutral	True
499.619	1.45	Control	0.6604000000000001	n/a	Yes	2.629	n/a	5.0	GoodResponse	0	0.011	498.63	5	52	Feedback	Neutral	True
501.069	2.629	Control	0.6604000000000001	n/a	Yes	2.629	n/a	n/a	GoodResponse	0	0.0	n/a	5	52	ISIslide	Neutral	True
503.718	0.25	Win2	0.6667000000000001	0.0	Yes	2.932	0.018	n/a	GoodResponse	1	n/a	n/a	6	53	Cue	Win	True
503.968	4.05	Win2	0.6667000000000001	0.0	Yes	2.932	0.0	n/a	GoodResponse	1	n/a	n/a	6	53	Fixation	Win	True
508.016	0.27	Win2	0.6667000000000001	0.002	Yes	2.932	-0.002	2.0	GoodResponse	1	0.202	507.218	6	53	Target	Win	True
508.218	0.3	Win2	0.6667000000000001	0.002	Yes	2.932	-0.002	2.0	GoodResponse	1	0.202	n/a	6	53	ButtonPress	Win	True
508.3	0.43	Win2	0.6667000000000001	n/a	Yes	2.932	n/a	n/a	GoodResponse	1	n/a	n/a	6	53	Blank	Win	True
508.716	1.45	Win2	0.6667000000000001	n/a	Yes	2.932	n/a	5.0	GoodResponse	1	0.036	507.752	6	53	Feedback	Win	True
510.166	2.932	Win2	0.6667000000000001	n/a	Yes	2.932	n/a	n/a	GoodResponse	1	0.0	n/a	6	53	ISIslide	Win	True
513.115	0.25	Win2	0.6727	0.0	Yes	2.735	0.015	n/a	GoodResponse	1	n/a	n/a	7	54	Cue	Win	True
513.364	3.95	Win2	0.6727	0.001	Yes	2.735	-0.001	n/a	GoodResponse	1	n/a	n/a	7	54	Fixation	Win	True
517.313	0.26	Win2	0.6727	0.002	Yes	2.735	-0.002	2.0	GoodResponse	1	0.209	516.522	7	54	Target	Win	True
517.522	0.3	Win2	0.6727	0.002	Yes	2.735	-0.002	2.0	GoodResponse	1	0.209	n/a	7	54	ButtonPress	Win	True
517.58	0.44	Win2	0.6727	n/a	Yes	2.735	n/a	n/a	GoodResponse	1	n/a	n/a	7	54	Blank	Win	True
518.013	1.45	Win2	0.6727	n/a	Yes	2.735	n/a	5.0	GoodResponse	1	0.007	517.02	7	54	Feedback	Win	True
519.462	2.735	Win2	0.6727	n/a	Yes	2.735	n/a	n/a	GoodResponse	1	0.0	n/a	7	54	ISIslide	Win	True
522.228	0.25	Control	0.6607	0.0	No	3.022	0.028	n/a	NoResponse	0	n/a	n/a	7	55	Cue	Neutral	True
522.478	3.95	Control	0.6607	0.0	No	3.022	0.0	n/a	NoResponse	0	n/a	n/a	7	55	Fixation	Neutral	True
526.427	0.25	Control	0.6607	0.001	No	3.022	-0.001	n/a	NoResponse	0	n/a	n/a	7	55	Target	Neutral	True
526.676	0.45	Control	0.6607	n/a	No	3.022	n/a	n/a	NoResponse	0	n/a	n/a	7	55	Blank	Neutral	True
527.126	1.45	Control	0.6607	n/a	No	3.022	n/a	2.0	NoResponse	0	0.014	526.14	7	55	Feedback	Neutral	True
527.14	0.3	Control	0.6607	n/a	No	3.022	n/a	2.0	NoResponse	0	0.014	n/a	7	55	ButtonPress	Neutral	True
528.576	3.022	Control	0.6607	n/a	No	3.022	n/a	n/a	NoResponse	0	0.0	n/a	7	55	ISIslide	Neutral	True
531.625	0.25	Control	0.6667000000000001	0.0	Yes	2.825	0.025	n/a	GoodResponse	0	n/a	n/a	7	56	Cue	Neutral	True
531.875	3.95	Control	0.6667000000000001	0.0	Yes	2.825	0.0	n/a	GoodResponse	0	n/a	n/a	7	56	Fixation	Neutral	True
535.823	0.25	Control	0.6667000000000001	0.002	Yes	2.825	-0.002	2.0	GoodResponse	0	0.218	535.041	7	56	Target	Neutral	True
536.041	0.3	Control	0.6667000000000001	0.002	Yes	2.825	-0.002	2.0	GoodResponse	0	0.218	n/a	7	56	ButtonPress	Neutral	True
536.073	0.45	Control	0.6667000000000001	n/a	Yes	2.825	n/a	n/a	GoodResponse	0	n/a	n/a	7	56	Blank	Neutral	True
536.523	1.45	Control	0.6667000000000001	n/a	Yes	2.825	n/a	5.0	GoodResponse	0	0.033	535.556	7	56	Feedback	Neutral	True
537.973	2.825	Control	0.6667000000000001	n/a	Yes	2.825	n/a	n/a	GoodResponse	0	0.0	n/a	7	56	ISIslide	Neutral	True
540.822	0.25	Control	0.6724	0.0	Yes	3.478	0.022	n/a	GoodResponse	0	n/a	n/a	7	57	Cue	Neutral	True
541.071	4.0	Control	0.6724	0.001	Yes	3.478	-0.001	n/a	GoodResponse	0	n/a	n/a	7	57	Fixation	Neutral	True
545.07	0.24	Control	0.6724	0.002	Yes	3.478	-0.002	2.0	GoodResponse	0	0.218	544.288	7	57	Target	Neutral	True
545.288	0.3	Control	0.6724	0.002	Yes	3.478	-0.002	2.0	GoodResponse	0	0.218	n/a	7	57	ButtonPress	Neutral	True
545.32	0.46	Control	0.6724	n/a	Yes	3.478	n/a	n/a	GoodResponse	0	n/a	n/a	7	57	Blank	Neutral	True
545.77	1.45	Control	0.6724	n/a	Yes	3.478	n/a	5.0	GoodResponse	0	0.007	544.777	7	57	Feedback	Neutral	True
547.219	3.478	Control	0.6724	n/a	Yes	3.478	n/a	n/a	GoodResponse	0	0.0	n/a	7	57	ISIslide	Neutral	True
550.718	0.25	Win2	0.6779999999999999	0.0	Yes	2.732	0.018	n/a	GoodResponse	1	n/a	n/a	8	58	Cue	Win	True
550.968	4.05	Win2	0.6779999999999999	0.0	Yes	2.732	0.0	n/a	GoodResponse	1	n/a	n/a	8	58	Fixation	Win	True
555.017	0.23	Win2	0.6779999999999999	0.001	Yes	2.732	-0.001	2.0	GoodResponse	1	0.209	554.226	8	58	Target	Win	True
555.226	0.3	Win2	0.6779999999999999	0.001	Yes	2.732	-0.001	2.0	GoodResponse	1	0.209	n/a	8	58	ButtonPress	Win	True
555.25	0.47	Win2	0.6779999999999999	n/a	Yes	2.732	n/a	n/a	GoodResponse	1	n/a	n/a	8	58	Blank	Win	True
555.716	1.45	Win2	0.6779999999999999	n/a	Yes	2.732	n/a	5.0	GoodResponse	1	0.011	554.727	8	58	Feedback	Win	True
557.166	2.732	Win2	0.6779999999999999	n/a	Yes	2.732	n/a	n/a	GoodResponse	1	0.0	n/a	8	58	ISIslide	Win	True
559.915	0.25	Lose2	0.6667000000000001	0.0	No	2.685	0.015	n/a	LatePress	-1	n/a	n/a	7	59	Cue	Loss	True
560.165	4.0	Lose2	0.6667000000000001	0.0	No	2.685	0.0	n/a	LatePress	-1	n/a	n/a	7	59	Fixation	Loss	True
564.163	0.22	Lose2	0.6667000000000001	0.002	No	2.685	-0.002	2.0	LatePress	-1	0.221	563.384	7	59	Target	Loss	True
564.384	0.3	Lose2	0.6667000000000001	0.002	No	2.685	-0.002	2.0	LatePress	-1	0.221	n/a	7	59	ButtonPress	Loss	True
564.397	0.48	Lose2	0.6667000000000001	n/a	No	2.685	n/a	n/a	LatePress	-1	n/a	n/a	7	59	Blank	Loss	True
564.863	1.45	Lose2	0.6667000000000001	n/a	No	2.685	n/a	5.0	LatePress	-1	0.035	563.898	7	59	Feedback	Loss	True
566.313	2.685	Lose2	0.6667000000000001	n/a	No	2.685	n/a	n/a	LatePress	-1	0.0	n/a	7	59	ISIslide	Loss	True
569.028	0.25	Control	0.6720999999999999	0.0	Yes	2.672	0.028	n/a	GoodResponse	0	n/a	n/a	7	60	Cue	Neutral	True
569.278	4.0	Control	0.6720999999999999	0.0	Yes	2.672	0.0	n/a	GoodResponse	0	n/a	n/a	7	60	Fixation	Neutral	True
573.277	0.21	Control	0.6720999999999999	0.001	Yes	2.672	-0.001	2.0	GoodResponse	0	0.199	572.476	7	60	Target	Neutral	True
573.476	0.3	Control	0.6720999999999999	0.001	Yes	2.672	-0.001	2.0	GoodResponse	0	0.199	n/a	7	60	ButtonPress	Neutral	True
573.493	0.49	Control	0.6720999999999999	n/a	Yes	2.672	n/a	n/a	GoodResponse	0	n/a	n/a	7	60	Blank	Neutral	True
573.977	1.45	Control	0.6720999999999999	n/a	Yes	2.672	n/a	5.0	GoodResponse	0	0.042	573.019	7	60	Feedback	Neutral	True
575.426	2.672	Control	0.6720999999999999	n/a	Yes	2.672	n/a	n/a	GoodResponse	0	0.0	n/a	7	60	ISIslide	Neutral	True
578.125	0.25	Lose2	0.6613	0.0	No	2.975	0.025	n/a	NoResponse	-1	n/a	n/a	6	61	Cue	Loss	True
578.375	4.0	Lose2	0.6613	0.0	No	2.975	0.0	n/a	NoResponse	-1	n/a	n/a	6	61	Fixation	Loss	True
582.374	0.2	Lose2	0.6613	0.001	No	2.975	-0.001	2.0	NoResponse	-1	0.208	581.582	6	61	Target	Loss	True
582.574	0.5	Lose2	0.6613	n/a	No	2.975	n/a	n/a	NoResponse	-1	n/a	n/a	6	61	Blank	Loss	True
582.582	0.3	Lose2	0.6613	0.001	No	2.975	-0.001	2.0	NoResponse	-1	0.208	n/a	6	61	ButtonPress	Loss	True
583.073	1.45	Lose2	0.6613	n/a	No	2.975	n/a	5.0	NoResponse	-1	0.02	582.093	6	61	Feedback	Loss	True
584.523	2.975	Lose2	0.6613	n/a	No	2.975	n/a	n/a	NoResponse	-1	0.0	n/a	6	61	ISIslide	Loss	True
587.522	0.25	Lose2	0.6507999999999999	0.0	No	2.878	0.022	n/a	NoResponse	-1	n/a	n/a	5	62	Cue	Loss	True
587.772	3.9	Lose2	0.6507999999999999	0.0	No	2.878	0.0	n/a	NoResponse	-1	n/a	n/a	5	62	Fixation	Loss	True
591.67	0.2	Lose2	0.6507999999999999	0.002	No	2.878	-0.002	2.0	NoResponse	-1	0.223	590.893	5	62	Target	Loss	True
591.87	0.5	Lose2	0.6507999999999999	n/a	No	2.878	n/a	n/a	NoResponse	-1	n/a	n/a	5	62	Blank	Loss	True
591.893	0.3	Lose2	0.6507999999999999	0.002	No	2.878	-0.002	2.0	NoResponse	-1	0.223	n/a	5	62	ButtonPress	Loss	True
592.37	1.45	Lose2	0.6507999999999999	n/a	No	2.878	n/a	5.0	NoResponse	-1	0.04	591.41	5	62	Feedback	Loss	True
593.82	2.878	Lose2	0.6507999999999999	n/a	No	2.878	n/a	n/a	NoResponse	-1	0.0	n/a	5	62	ISIslide	Loss	True
596.719	0.25	Lose2	0.6562	0.0	Yes	2.631	0.019	n/a	GoodResponse	0	n/a	n/a	5	63	Cue	AvoidedLoss	True
596.969	4.05	Lose2	0.6562	0.0	Yes	2.631	0.0	n/a	GoodResponse	0	n/a	n/a	5	63	Fixation	AvoidedLoss	True
601.017	0.21	Lose2	0.6562	0.002	Yes	2.631	-0.002	2.0	GoodResponse	0	0.201	600.218	5	63	Target	AvoidedLoss	True
601.218	0.3	Lose2	0.6562	0.002	Yes	2.631	-0.002	2.0	GoodResponse	0	0.201	n/a	5	63	ButtonPress	AvoidedLoss	True
601.234	0.49	Lose2	0.6562	n/a	Yes	2.631	n/a	n/a	GoodResponse	0	n/a	n/a	5	63	Blank	AvoidedLoss	True
601.717	1.45	Lose2	0.6562	n/a	Yes	2.631	n/a	5.0	GoodResponse	0	0.01	600.727	5	63	Feedback	AvoidedLoss	True
603.166	2.631	Lose2	0.6562	n/a	Yes	2.631	n/a	n/a	GoodResponse	0	0.0	n/a	5	63	ISIslide	AvoidedLoss	True
605.816	0.25	Win2	0.6462	0.0	No	3.134	0.016	n/a	NoResponse	0	n/a	n/a	5	64	Cue	MissedWin	True
606.065	4.15	Win2	0.6462	0.001	No	3.134	-0.001	n/a	NoResponse	0	n/a	n/a	5	64	Fixation	MissedWin	True
610.214	0.21	Win2	0.6462	0.002	No	3.134	-0.002	2.0	NoResponse	0	0.226	609.44	5	64	Target	MissedWin	True
610.431	0.49	Win2	0.6462	n/a	No	3.134	n/a	n/a	NoResponse	0	n/a	n/a	5	64	Blank	MissedWin	True
610.44	0.3	Win2	0.6462	0.002	No	3.134	-0.002	2.0	NoResponse	0	0.226	n/a	5	64	ButtonPress	MissedWin	True
610.914	1.45	Win2	0.6462	n/a	No	3.134	n/a	5.0	NoResponse	0	0.033	609.947	5	64	Feedback	MissedWin	True
612.363	3.134	Win2	0.6462	n/a	No	3.134	n/a	n/a	NoResponse	0	0.0	n/a	5	64	ISIslide	MissedWin	True
615.512	0.25	Control	0.6364	0.0	No	2.788	0.012	n/a	LatePress	0	n/a	n/a	5	65	Cue	Neutral	True
615.762	4.0	Control	0.6364	0.0	No	2.788	0.0	n/a	LatePress	0	n/a	n/a	5	65	Fixation	Neutral	True
619.761	0.22	Control	0.6364	0.001	No	2.788	-0.001	2.0	LatePress	0	0.222	618.983	5	65	Target	Neutral	True
619.983	0.3	Control	0.6364	0.001	No	2.788	-0.001	2.0	LatePress	0	0.222	n/a	5	65	ButtonPress	Neutral	True
619.994	0.48	Control	0.6364	n/a	No	2.788	n/a	n/a	LatePress	0	n/a	n/a	5	65	Blank	Neutral	True
620.46	1.45	Control	0.6364	n/a	No	2.788	n/a	5.0	LatePress	0	0.047	619.507	5	65	Feedback	Neutral	True
621.91	2.788	Control	0.6364	n/a	No	2.788	n/a	n/a	LatePress	0	0.0	n/a	5	65	ISIslide	Neutral	True
624.726	0.25	Win2	0.6418	0.0	Yes	2.774	0.026	n/a	GoodResponse	1	n/a	n/a	6	66	Cue	Win	True
624.976	3.9	Win2	0.6418	0.0	Yes	2.774	0.0	n/a	GoodResponse	1	n/a	n/a	6	66	Fixation	Win	True
628.874	0.23	Win2	0.6418	0.002	Yes	2.774	-0.002	2.0	GoodResponse	1	0.22	628.094	6	66	Target	Win	True
629.094	0.3	Win2	0.6418	0.002	Yes	2.774	-0.002	2.0	GoodResponse	1	0.22	n/a	6	66	ButtonPress	Win	True
629.107	0.47	Win2	0.6418	n/a	Yes	2.774	n/a	n/a	GoodResponse	1	n/a	n/a	6	66	Blank	Win	True
629.574	1.45	Win2	0.6418	n/a	Yes	2.774	n/a	5.0	GoodResponse	1	0.007	628.581	6	66	Feedback	Win	True
631.023	2.774	Win2	0.6418	n/a	Yes	2.774	n/a	n/a	GoodResponse	1	0.0	n/a	6	66	ISIslide	Win	True
633.822	0.25	Control	0.6324000000000001	0.001	No	2.728	0.022	n/a	NoResponse	0	n/a	n/a	6	67	Cue	Neutral	True
634.072	3.95	Control	0.6324000000000001	0.0	No	2.728	0.0	n/a	NoResponse	0	n/a	n/a	6	67	Fixation	Neutral	True
638.021	0.24	Control	0.6324000000000001	0.001	No	2.728	-0.001	2.0	NoResponse	0	0.257	637.278	6	67	Target	Neutral	True
638.271	0.46	Control	0.6324000000000001	n/a	No	2.728	n/a	n/a	NoResponse	0	n/a	n/a	6	67	Blank	Neutral	True
638.278	0.3	Control	0.6324000000000001	0.001	No	2.728	-0.001	2.0	NoResponse	0	0.257	n/a	6	67	ButtonPress	Neutral	True
638.721	1.45	Control	0.6324000000000001	n/a	No	2.728	n/a	5.0	NoResponse	0	0.03	637.751	6	67	Feedback	Neutral	True
640.17	2.728	Control	0.6324000000000001	n/a	No	2.728	n/a	n/a	NoResponse	0	0.0	n/a	6	67	ISIslide	Neutral	True
642.919	0.25	Win2	0.6377	0.0	Yes	3.081	0.019	n/a	GoodResponse	1	n/a	n/a	7	68	Cue	Win	True
643.169	4.0	Win2	0.6377	0.0	Yes	3.081	0.0	n/a	GoodResponse	1	n/a	n/a	7	68	Fixation	Win	True
647.168	0.25	Win2	0.6377	0.001	Yes	3.081	-0.001	2.0	GoodResponse	1	0.217	646.385	7	68	Target	Win	True
647.385	0.3	Win2	0.6377	0.001	Yes	3.081	-0.001	2.0	GoodResponse	1	0.217	n/a	7	68	ButtonPress	Win	True
647.418	0.45	Win2	0.6377	n/a	Yes	3.081	n/a	n/a	GoodResponse	1	n/a	n/a	7	68	Blank	Win	True
647.868	1.45	Win2	0.6377	n/a	Yes	3.081	n/a	5.0	GoodResponse	1	0.006	646.874	7	68	Feedback	Win	True
649.317	3.081	Win2	0.6377	n/a	Yes	3.081	n/a	n/a	GoodResponse	1	0.0	n/a	7	68	ISIslide	Win	True
652.416	0.25	Win2	0.6429	0.0	Yes	3.234	0.016	n/a	GoodResponse	1	n/a	n/a	8	69	Cue	Win	True
652.666	3.95	Win2	0.6429	0.0	Yes	3.234	0.0	n/a	GoodResponse	1	n/a	n/a	8	69	Fixation	Win	True
656.614	0.26	Win2	0.6429	0.002	Yes	3.234	-0.002	2.0	GoodResponse	1	0.239	655.853	8	69	Target	Win	True
656.853	0.3	Win2	0.6429	0.002	Yes	3.234	-0.002	2.0	GoodResponse	1	0.239	n/a	8	69	ButtonPress	Win	True
656.881	0.44	Win2	0.6429	n/a	Yes	3.234	n/a	n/a	GoodResponse	1	n/a	n/a	8	69	Blank	Win	True
657.314	1.45	Win2	0.6429	n/a	Yes	3.234	n/a	5.0	GoodResponse	1	0.023	656.337	8	69	Feedback	Win	True
658.764	3.234	Win2	0.6429	n/a	Yes	3.234	n/a	n/a	GoodResponse	1	0.0	n/a	8	69	ISIslide	Win	True
662.013	0.25	Lose2	0.6479	0.0	Yes	3.037	0.013	n/a	GoodResponse	0	n/a	n/a	8	70	Cue	AvoidedLoss	True
662.263	4.05	Lose2	0.6479	0.0	Yes	3.037	0.0	n/a	GoodResponse	0	n/a	n/a	8	70	Fixation	AvoidedLoss	True
666.311	0.27	Lose2	0.6479	0.002	Yes	3.037	-0.002	2.0	GoodResponse	0	0.213	665.524	8	70	Target	AvoidedLoss	True
666.524	0.3	Lose2	0.6479	0.002	Yes	3.037	-0.002	2.0	GoodResponse	0	0.213	n/a	8	70	ButtonPress	AvoidedLoss	True
666.594	0.43	Lose2	0.6479	n/a	Yes	3.037	n/a	n/a	GoodResponse	0	n/a	n/a	8	70	Blank	AvoidedLoss	True
667.011	1.45	Lose2	0.6479	n/a	Yes	3.037	n/a	5.0	GoodResponse	0	0.032	666.043	8	70	Feedback	AvoidedLoss	True
668.46	3.037	Lose2	0.6479	n/a	Yes	3.037	n/a	n/a	GoodResponse	0	0.0	n/a	8	70	ISIslide	AvoidedLoss	True
671.526	0.25	Win2	0.6528	0.0	Yes	2.724	0.026	n/a	GoodResponse	1	n/a	n/a	9	71	Cue	Win	True
671.776	4.05	Win2	0.6528	0.0	Yes	2.724	0.0	n/a	GoodResponse	1	n/a	n/a	9	71	Fixation	Win	True
675.824	0.28	Win2	0.6528	0.002	Yes	2.724	-0.002	2.0	GoodResponse	1	0.248	675.072	9	71	Target	Win	True
676.072	0.3	Win2	0.6528	0.002	Yes	2.724	-0.002	2.0	GoodResponse	1	0.248	n/a	9	71	ButtonPress	Win	True
676.108	0.42	Win2	0.6528	n/a	Yes	2.724	n/a	n/a	GoodResponse	1	n/a	n/a	9	71	Blank	Win	True
676.524	1.45	Win2	0.6528	n/a	Yes	2.724	n/a	5.0	GoodResponse	1	0.031	675.555	9	71	Feedback	Win	True
677.974	2.724	Win2	0.6528	n/a	Yes	2.724	n/a	n/a	GoodResponse	1	0.0	n/a	9	71	ISIslide	Win	True
680.723	0.25	Win2	0.6575	0.0	Yes	2.777	0.023	n/a	GoodResponse	1	n/a	n/a	10	72	Cue	Win	True
680.973	4.1	Win2	0.6575	0.0	Yes	2.777	0.0	n/a	GoodResponse	1	n/a	n/a	10	72	Fixation	Win	True
685.071	0.29	Win2	0.6575	0.002	Yes	2.777	-0.002	2.0	GoodResponse	1	0.219	684.29	10	72	Target	Win	True
685.29	0.3	Win2	0.6575	0.002	Yes	2.777	-0.002	2.0	GoodResponse	1	0.219	n/a	10	72	ButtonPress	Win	True
685.371	0.41	Win2	0.6575	n/a	Yes	2.777	n/a	n/a	GoodResponse	1	n/a	n/a	10	72	Blank	Win	True
685.771	1.45	Win2	0.6575	n/a	Yes	2.777	n/a	5.0	GoodResponse	1	0.008	684.779	10	72	Feedback	Win	True
687.22	2.777	Win2	0.6575	n/a	Yes	2.777	n/a	n/a	GoodResponse	1	0.0	n/a	10	72	ISIslide	Win	True
690.019	0.25	Win2	0.6622	0.001	Yes	2.681	0.019	n/a	GoodResponse	1	n/a	n/a	11	73	Cue	Win	True
690.269	4.0	Win2	0.6622	0.001	Yes	2.681	0.0	n/a	GoodResponse	1	n/a	n/a	11	73	Fixation	Win	True
694.268	0.29	Win2	0.6622	0.001	Yes	2.681	-0.001	2.0	GoodResponse	1	0.223	693.491	11	73	Target	Win	True
694.491	0.3	Win2	0.6622	0.001	Yes	2.681	-0.001	2.0	GoodResponse	1	0.223	n/a	11	73	ButtonPress	Win	True
694.568	0.41	Win2	0.6622	n/a	Yes	2.681	n/a	n/a	GoodResponse	1	n/a	n/a	11	73	Blank	Win	True
694.968	1.45	Win2	0.6622	n/a	Yes	2.681	n/a	5.0	GoodResponse	1	0.027	693.995	11	73	Feedback	Win	True
696.417	2.681	Win2	0.6622	n/a	Yes	2.681	n/a	n/a	GoodResponse	1	0.0	n/a	11	73	ISIslide	Win	True
699.116	0.25	Lose2	0.6667000000000001	0.0	Yes	2.634	0.016	n/a	GoodResponse	0	n/a	n/a	11	74	Cue	AvoidedLoss	True
699.366	4.05	Lose2	0.6667000000000001	0.0	Yes	2.634	0.0	n/a	GoodResponse	0	n/a	n/a	11	74	Fixation	AvoidedLoss	True
703.415	0.29	Lose2	0.6667000000000001	0.001	Yes	2.634	-0.001	2.0	GoodResponse	0	0.289	702.704	11	74	Target	AvoidedLoss	True
703.704	0.3	Lose2	0.6667000000000001	0.001	Yes	2.634	-0.001	2.0	GoodResponse	0	0.289	n/a	11	74	ButtonPress	AvoidedLoss	True
703.715	0.41	Lose2	0.6667000000000001	n/a	Yes	2.634	n/a	n/a	GoodResponse	0	n/a	n/a	11	74	Blank	AvoidedLoss	True
704.115	1.45	Lose2	0.6667000000000001	n/a	Yes	2.634	n/a	5.0	GoodResponse	0	0.006	703.121	11	74	Feedback	AvoidedLoss	True
705.564	2.634	Lose2	0.6667000000000001	n/a	Yes	2.634	n/a	n/a	GoodResponse	0	0.0	n/a	11	74	ISIslide	AvoidedLoss	True
708.213	0.25	Lose2	0.6711	0.0	Yes	2.937	0.013	n/a	GoodResponse	0	n/a	n/a	11	75	Cue	AvoidedLoss	True
708.463	3.95	Lose2	0.6711	0.0	Yes	2.937	0.0	n/a	GoodResponse	0	n/a	n/a	11	75	Fixation	AvoidedLoss	True
712.412	0.28	Lose2	0.6711	0.001	Yes	2.937	-0.001	2.0	GoodResponse	0	0.219	711.631	11	75	Target	AvoidedLoss	True
712.631	0.3	Lose2	0.6711	0.001	Yes	2.937	-0.001	2.0	GoodResponse	0	0.219	n/a	11	75	ButtonPress	AvoidedLoss	True
712.695	0.42	Lose2	0.6711	n/a	Yes	2.937	n/a	n/a	GoodResponse	0	n/a	n/a	11	75	Blank	AvoidedLoss	True
713.111	1.45	Lose2	0.6711	n/a	Yes	2.937	n/a	5.0	GoodResponse	0	0.03	712.141	11	75	Feedback	AvoidedLoss	True
714.561	2.937	Lose2	0.6711	n/a	Yes	2.937	n/a	n/a	GoodResponse	0	0.0	n/a	11	75	ISIslide	AvoidedLoss	True
717.527	0.25	Control	0.6753	0.0	Yes	3.223	0.027	n/a	GoodResponse	0	n/a	n/a	11	76	Cue	Neutral	True
717.776	4.05	Control	0.6753	0.001	Yes	3.223	-0.001	n/a	GoodResponse	0	n/a	n/a	11	76	Fixation	Neutral	True
721.825	0.27	Control	0.6753	0.002	Yes	3.223	-0.002	2.0	GoodResponse	0	0.227	721.052	11	76	Target	Neutral	True
722.052	0.3	Control	0.6753	0.002	Yes	3.223	-0.002	2.0	GoodResponse	0	0.227	n/a	11	76	ButtonPress	Neutral	True
722.108	0.43	Control	0.6753	n/a	Yes	3.223	n/a	n/a	GoodResponse	0	n/a	n/a	11	76	Blank	Neutral	True
722.525	1.45	Control	0.6753	n/a	Yes	3.223	n/a	5.0	GoodResponse	0	0.03	721.555	11	76	Feedback	Neutral	True
723.974	3.223	Control	0.6753	n/a	Yes	3.223	n/a	n/a	GoodResponse	0	0.0	n/a	11	76	ISIslide	Neutral	True
727.223	0.25	Lose2	0.6795	0.0	Yes	2.577	0.023	n/a	GoodResponse	0	n/a	n/a	11	77	Cue	AvoidedLoss	True
727.473	3.95	Lose2	0.6795	0.0	Yes	2.577	0.0	n/a	GoodResponse	0	n/a	n/a	11	77	Fixation	AvoidedLoss	True
731.422	0.26	Lose2	0.6795	0.001	Yes	2.577	-0.001	2.0	GoodResponse	0	0.224	730.646	11	77	Target	AvoidedLoss	True
731.646	0.3	Lose2	0.6795	0.001	Yes	2.577	-0.001	2.0	GoodResponse	0	0.224	n/a	11	77	ButtonPress	AvoidedLoss	True
731.688	0.44	Lose2	0.6795	n/a	Yes	2.577	n/a	n/a	GoodResponse	0	n/a	n/a	11	77	Blank	AvoidedLoss	True
732.121	1.45	Lose2	0.6795	n/a	Yes	2.577	n/a	5.0	GoodResponse	0	0.044	731.165	11	77	Feedback	AvoidedLoss	True
733.571	2.577	Lose2	0.6795	n/a	Yes	2.577	n/a	n/a	GoodResponse	0	0.0	n/a	11	77	ISIslide	AvoidedLoss	True
