onset	duration	cue_type	current_mean_accuracy	duration_error	is_hit	isi_adjusted	onset_delay	response	response_type	reward	rt	rt_time	total_reward	trial_number	trial_phase	trial_type	one_press
11.111	0.25	Control	1.0	0.0	Yes	2.939	0.011	n/a	GoodResponse	0	n/a	n/a	0	0	Cue	Neutral	True
11.361	3.85	Control	1.0	0.0	Yes	2.939	0.0	n/a	GoodResponse	0	n/a	n/a	0	0	Fixation	Neutral	True
15.223	0.4	Control	1.0	0.0	Yes	2.939	0.012	2.0	GoodResponse	0	0.19	14.413	0	0	Target	Neutral	True
15.413	0.3	Control	1.0	0.0	Yes	2.939	0.012	2.0	GoodResponse	0	0.19	n/a	0	0	ButtonPress	Neutral	True
15.607	0.3	Control	1.0	n/a	Yes	2.939	n/a	n/a	GoodResponse	0	n/a	n/a	0	0	Blank	Neutral	True
15.908	1.45	Control	1.0	n/a	Yes	2.939	n/a	5.0	GoodResponse	0	0.018	14.926	0	0	Feedback	Neutral	True
17.363	2.939	Control	1.0	n/a	Yes	2.939	n/a	n/a	GoodResponse	0	0.0	n/a	0	0	ISIslide	Neutral	True
20.322	0.25	Lose2	1.0	0.0	Yes	2.778	0.022	n/a	GoodResponse	0	n/a	n/a	0	1	Cue	AvoidedLoss	False
20.572	4.0	Lose2	1.0	0.0	Yes	2.778	0.0	2.0	GoodResponse	0	0.263	19.835	0	1	Fixation	AvoidedLoss	False
20.835	0.3	Lose2	1.0	0.0	Yes	2.778	0.0	2.0	GoodResponse	0	0.263	n/a	0	1	ButtonPress	AvoidedLoss	False
24.568	0.39	Lose2	1.0	0.004	Yes	2.778	-0.004	2.0	GoodResponse	0	0.239	23.807	0	1	Target	AvoidedLoss	False
24.807	0.3	Lose2	1.0	0.004	Yes	2.778	-0.004	2.0	GoodResponse	0	0.239	n/a	0	1	ButtonPress	AvoidedLoss	False
24.969	0.31	Lose2	1.0	n/a	Yes	2.778	n/a	n/a	GoodResponse	0	n/a	n/a	0	1	Blank	AvoidedLoss	False
25.27	1.45	Lose2	1.0	n/a	Yes	2.778	n/a	5.0	GoodResponse	0	0.022	24.292	0	1	Feedback	AvoidedLoss	False
26.724	2.778	Lose2	1.0	n/a	Yes	2.778	n/a	n/a	GoodResponse	0	0.0	n/a	0	1	ISIslide	AvoidedLoss	False
29.516	0.25	Control	1.0	0.0	Yes	2.584	0.016	n/a	GoodResponse	0	n/a	n/a	0	2	Cue	Neutral	True
29.766	4.1	Control	1.0	0.001	Yes	2.584	0.0	n/a	GoodResponse	0	n/a	n/a	0	2	Fixation	Neutral	True
33.862	0.38	Control	1.0	0.004	Yes	2.584	-0.004	2.0	GoodResponse	0	0.194	33.056	0	2	Target	Neutral	True
34.056	0.3	Control	1.0	0.004	Yes	2.584	-0.004	2.0	GoodResponse	0	0.194	n/a	0	2	ButtonPress	Neutral	True
34.247	0.32	Control	1.0	n/a	Yes	2.584	n/a	n/a	GoodResponse	0	n/a	n/a	0	2	Blank	Neutral	True
34.564	1.45	Control	1.0	n/a	Yes	2.584	n/a	5.0	GoodResponse	0	0.044	33.608	0	2	Feedback	Neutral	True
36.035	2.584	Control	1.0	n/a	Yes	2.584	n/a	n/a	GoodResponse	0	0.0	n/a	0	2	ISIslide	Neutral	True
38.626	0.25	Win2	1.0	0.0	Yes	2.824	0.026	n/a	GoodResponse	1	n/a	n/a	1	3	Cue	Win	True
38.877	3.95	Win2	1.0	0.0	Yes	2.824	0.001	n/a	GoodResponse	1	n/a	n/a	1	3	Fixation	Win	True
42.822	0.37	Win2	1.0	0.004	Yes	2.824	-0.004	2.0	GoodResponse	1	0.162	41.984	1	3	Target	Win	True
42.984	0.3	Win2	1.0	0.004	Yes	2.824	-0.004	2.0	GoodResponse	1	0.162	n/a	1	3	ButtonPress	Win	True
43.207	0.33	Win2	1.0	n/a	Yes	2.824	n/a	n/a	GoodResponse	1	n/a	n/a	1	3	Blank	Win	True
43.524	1.45	Win2	1.0	n/a	Yes	2.824	n/a	5.0	GoodResponse	1	0.011	42.535	1	3	Feedback	Win	True
44.979	2.824	Win2	1.0	n/a	Yes	2.824	n/a	n/a	GoodResponse	1	0.0	n/a	1	3	ISIslide	Win	True
47.821	0.25	Win2	1.0	0.0	Yes	3.279	0.021	n/a	GoodResponse	1	n/a	n/a	2	4	Cue	Win	True
48.071	4.0	Win2	1.0	0.0	Yes	3.279	0.0	n/a	GoodResponse	1	n/a	n/a	2	4	Fixation	Win	True
52.067	0.36	Win2	1.0	0.004	Yes	3.279	-0.004	2.0	GoodResponse	1	0.203	51.27	2	4	Target	Win	True
52.27	0.3	Win2	1.0	0.004	Yes	3.279	-0.004	2.0	GoodResponse	1	0.203	n/a	2	4	ButtonPress	Win	True
52.434	0.34	Win2	1.0	n/a	Yes	3.279	n/a	n/a	GoodResponse	1	n/a	n/a	2	4	Blank	Win	True
52.769	1.45	Win2	1.0	n/a	Yes	3.279	n/a	5.0	GoodResponse	1	0.035	51.804	2	4	Feedback	Win	True
54.223	3.279	Win2	1.0	n/a	Yes	3.279	n/a	n/a	GoodResponse	1	0.0	n/a	2	4	ISIslide	Win	True
57.516	0.25	Win2	1.0	0.001	Yes	2.784	0.016	n/a	GoodResponse	1	n/a	n/a	3	5	Cue	Win	True
57.767	4.0	Win2	1.0	0.0	Yes	2.784	0.001	n/a	GoodResponse	1	n/a	n/a	3	5	Fixation	Win	True
61.762	0.35	Win2	1.0	0.004	Yes	2.784	-0.004	2.0	GoodResponse	1	0.22	60.982	3	5	Target	Win	True
61.982	0.3	Win2	1.0	0.004	Yes	2.784	-0.004	2.0	GoodResponse	1	0.22	n/a	3	5	ButtonPress	Win	True
62.114	0.35	Win2	1.0	n/a	Yes	2.784	n/a	n/a	GoodResponse	1	n/a	n/a	3	5	Blank	Win	True
62.465	1.45	Win2	1.0	n/a	Yes	2.784	n/a	5.0	GoodResponse	1	0.046	61.511	3	5	Feedback	Win	True
63.919	2.784	Win2	1.0	n/a	Yes	2.784	n/a	n/a	GoodResponse	1	0.0	n/a	3	5	ISIslide	Win	True
66.727	0.25	Lose2	0.8571	0.0	No	2.723	0.027	n/a	NoResponse	-1	n/a	n/a	2	6	Cue	Loss	True
66.978	3.95	Lose2	0.8571	0.0	No	2.723	0.001	2.0	NoResponse	-1	3.834	69.812	2	6	Fixation	Loss	True
70.812	0.3	Lose2	0.8571	0.0	No	2.723	0.001	2.0	NoResponse	-1	3.834	n/a	2	6	ButtonPress	Loss	True
70.923	0.34	Lose2	0.8571	0.004	No	2.723	-0.004	n/a	NoResponse	-1	n/a	n/a	2	6	Target	Loss	True
71.274	0.36	Lose2	0.8571	n/a	No	2.723	n/a	n/a	NoResponse	-1	n/a	n/a	2	6	Blank	Loss	True
71.625	1.45	Lose2	0.8571	n/a	No	2.723	n/a	5.0	NoResponse	-1	0.008	70.633	2	6	Feedback	Loss	True
73.08	2.723	Lose2	0.8571	n/a	No	2.723	n/a	n/a	NoResponse	-1	0.0	n/a	2	6	ISIslide	Loss	True
75.821	0.25	Lose2	0.875	0.0	Yes	4.029	0.021	n/a	GoodResponse	0	n/a	n/a	2	7	Cue	AvoidedLoss	True
76.072	4.05	Lose2	0.875	0.0	Yes	4.029	0.001	n/a	GoodResponse	0	n/a	n/a	2	7	Fixation	AvoidedLoss	True
80.118	0.33	Lose2	0.875	0.003	Yes	4.029	-0.003	2.0	GoodResponse	0	0.191	79.309	2	7	Target	AvoidedLoss	True
80.309	0.3	Lose2	0.875	0.003	Yes	4.029	-0.003	2.0	GoodResponse	0	0.191	n/a	2	7	ButtonPress	AvoidedLoss	True
80.452	0.37	Lose2	0.875	n/a	Yes	4.029	n/a	n/a	GoodResponse	0	n/a	n/a	2	7	Blank	AvoidedLoss	True
80.82	1.45	Lose2	0.875	n/a	Yes	4.029	n/a	5.0	GoodResponse	0	0.033	79.853	2	7	Feedback	AvoidedLoss	True
82.274	4.029	Lose2	0.875	n/a	Yes	4.029	n/a	n/a	GoodResponse	0	0.0	n/a	2	7	ISIslide	AvoidedLoss	True
86.319	0.25	Lose2	0.8889	0.001	Yes	3.031	0.019	n/a	GoodResponse	0	n/a	n/a	2	8	Cue	AvoidedLoss	True
86.57	3.95	Lose2	0.8889	0.0	Yes	3.031	0.001	n/a	GoodResponse	0	n/a	n/a	2	8	Fixation	AvoidedLoss	True
90.515	0.32	Lose2	0.8889	0.004	Yes	3.031	-0.004	2.0	GoodResponse	0	0.213	89.728	2	8	Target	AvoidedLoss	True
90.728	0.3	Lose2	0.8889	0.004	Yes	3.031	-0.004	2.0	GoodResponse	0	0.213	n/a	2	8	ButtonPress	AvoidedLoss	True
90.85	0.38	Lose2	0.8889	n/a	Yes	3.031	n/a	n/a	GoodResponse	0	n/a	n/a	2	8	Blank	AvoidedLoss	True
91.218	1.45	Lose2	0.8889	n/a	Yes	3.031	n/a	5.0	GoodResponse	0	0.025	90.243	2	8	Feedback	AvoidedLoss	True
92.672	3.031	Lose2	0.8889	n/a	Yes	3.031	n/a	n/a	GoodResponse	0	0.0	n/a	2	8	ISIslide	AvoidedLoss	True
95.731	0.25	Lose2	0.9	0.0	Yes	3.119	0.031	n/a	GoodResponse	0	n/a	n/a	2	9	Cue	AvoidedLoss	True
95.982	3.95	Lose2	0.9	0.0	Yes	3.119	0.001	n/a	GoodResponse	0	n/a	n/a	2	9	Fixation	AvoidedLoss	True
99.927	0.31	Lose2	0.9	0.004	Yes	3.119	-0.004	2.0	GoodResponse	0	0.196	99.123	2	9	Target	AvoidedLoss	True
100.123	0.3	Lose2	0.9	0.004	Yes	3.119	-0.004	2.0	GoodResponse	0	0.196	n/a	2	9	ButtonPress	AvoidedLoss	True
100.245	0.39	Lose2	0.9	n/a	Yes	3.119	n/a	n/a	GoodResponse	0	n/a	n/a	2	9	Blank	AvoidedLoss	True
100.629	1.45	Lose2	0.9	n/a	Yes	3.119	n/a	5.0	GoodResponse	0	0.029	99.658	2	9	Feedback	AvoidedLoss	True
102.083	3.119	Lose2	0.9	n/a	Yes	3.119	n/a	n/a	GoodResponse	0	0.0	n/a	2	9	ISIslide	AvoidedLoss	True
105.226	0.25	Control	0.9091	0.0	Yes	3.274	0.026	n/a	GoodResponse	0	n/a	n/a	2	10	Cue	Neutral	True
105.477	4.0	Control	0.9091	0.0	Yes	3.274	0.001	n/a	GoodResponse	0	n/a	n/a	2	10	Fixation	Neutral	True
109.472	0.3	Control	0.9091	0.004	Yes	3.274	-0.004	2.0	GoodResponse	0	0.248	108.72	2	10	Target	Neutral	True
109.72	0.3	Control	0.9091	0.004	Yes	3.274	-0.004	2.0	GoodResponse	0	0.248	n/a	2	10	ButtonPress	Neutral	True
109.773	0.4	Control	0.9091	n/a	Yes	3.274	n/a	n/a	GoodResponse	0	n/a	n/a	2	10	Blank	Neutral	True
110.174	1.45	Control	0.9091	n/a	Yes	3.274	n/a	5.0	GoodResponse	0	0.044	109.218	2	10	Feedback	Neutral	True
111.629	3.274	Control	0.9091	n/a	Yes	3.274	n/a	n/a	GoodResponse	0	0.0	n/a	2	10	ISIslide	Neutral	True
114.922	0.25	Lose2	0.9167000000000001	0.0	Yes	2.728	0.022	n/a	GoodResponse	0	n/a	n/a	2	11	Cue	AvoidedLoss	True
115.173	4.05	Lose2	0.9167000000000001	0.0	Yes	2.728	0.001	n/a	GoodResponse	0	n/a	n/a	2	11	Fixation	AvoidedLoss	True
119.218	0.29	Lose2	0.9167000000000001	0.004	Yes	2.728	-0.004	2.0	GoodResponse	0	0.204	118.422	2	11	Target	AvoidedLoss	True
119.422	0.3	Lose2	0.9167000000000001	0.004	Yes	2.728	-0.004	2.0	GoodResponse	0	0.204	n/a	2	11	ButtonPress	AvoidedLoss	True
119.519	0.41	Lose2	0.9167000000000001	n/a	Yes	2.728	n/a	n/a	GoodResponse	0	n/a	n/a	2	11	Blank	AvoidedLoss	True
119.92	1.45	Lose2	0.9167000000000001	n/a	Yes	2.728	n/a	5.0	GoodResponse	0	0.007	118.927	2	11	Feedback	AvoidedLoss	True
121.375	2.728	Lose2	0.9167000000000001	n/a	Yes	2.728	n/a	n/a	GoodResponse	0	0.0	n/a	2	11	ISIslide	AvoidedLoss	True
124.116	0.25	Control	0.9231	0.0	Yes	2.984	0.016	n/a	GoodResponse	0	n/a	n/a	2	12	Cue	Neutral	True
124.367	3.9	Control	0.9231	0.0	Yes	2.984	0.001	n/a	GoodResponse	0	n/a	n/a	2	12	Fixation	Neutral	True
128.262	0.28	Control	0.9231	0.004	Yes	2.984	-0.004	2.0	GoodResponse	0	0.24	127.502	2	12	Target	Neutral	True
128.502	0.3	Control	0.9231	0.004	Yes	2.984	-0.004	2.0	GoodResponse	0	0.24	n/a	2	12	ButtonPress	Neutral	True
128.546	0.42	Control	0.9231	n/a	Yes	2.984	n/a	n/a	GoodResponse	0	n/a	n/a	2	12	Blank	Neutral	True
128.964	1.45	Control	0.9231	n/a	Yes	2.984	n/a	5.0	GoodResponse	0	0.035	127.999	2	12	Feedback	Neutral	True
130.418	2.984	Control	0.9231	n/a	Yes	2.984	n/a	n/a	GoodResponse	0	0.0	n/a	2	12	ISIslide	Neutral	True
133.427	0.25	Control	0.9286	0.001	Yes	2.773	0.027	n/a	GoodResponse	0	n/a	n/a	2	13	Cue	Neutral	True
133.678	4.0	Control	0.9286	0.0	Yes	2.773	0.001	n/a	GoodResponse	0	n/a	n/a	2	13	Fixation	Neutral	True
137.674	0.27	Control	0.9286	0.003	Yes	2.773	-0.003	2.0	GoodResponse	0	0.182	136.856	2	13	Target	Neutral	True
137.856	0.3	Control	0.9286	0.003	Yes	2.773	-0.003	2.0	GoodResponse	0	0.182	n/a	2	13	ButtonPress	Neutral	True
137.958	0.43	Control	0.9286	n/a	Yes	2.773	n/a	n/a	GoodResponse	0	n/a	n/a	2	13	Blank	Neutral	True
138.376	1.45	Control	0.9286	n/a	Yes	2.773	n/a	5.0	GoodResponse	0	0.037	137.413	2	13	Feedback	Neutral	True
139.83	2.773	Control	0.9286	n/a	Yes	2.773	n/a	n/a	GoodResponse	0	0.0	n/a	2	13	ISIslide	Neutral	True
142.622	0.25	Win2	0.8667	0.0	No	2.678	0.022	n/a	PrematurePress	0	n/a	n/a	2	14	Cue	MissedWin	True
142.872	4.1	Win2	0.8667	0.001	No	2.678	0.0	n/a	PrematurePress	0	n/a	n/a	2	14	Fixation	MissedWin	True
146.968	0.26	Win2	0.8667	0.004	No	2.678	-0.004	2.0	PrematurePress	0	0.038	146.006	2	14	Target	MissedWin	True
147.006	0.3	Win2	0.8667	0.004	No	2.678	-0.004	2.0	PrematurePress	0	0.038	n/a	2	14	ButtonPress	MissedWin	True
147.236	0.44	Win2	0.8667	n/a	No	2.678	n/a	n/a	PrematurePress	0	n/a	n/a	2	14	Blank	MissedWin	True
147.67	1.45	Win2	0.8667	n/a	No	2.678	n/a	5.0	PrematurePress	0	0.012	146.682	2	14	Feedback	MissedWin	True
149.125	2.678	Win2	0.8667	n/a	No	2.678	n/a	n/a	PrematurePress	0	0.0	n/a	2	14	ISIslide	MissedWin	True
151.816	0.25	Control	0.875	0.0	Yes	2.984	0.016	n/a	GoodResponse	0	n/a	n/a	2	15	Cue	Neutral	True
152.067	4.0	Control	0.875	0.0	Yes	2.984	0.001	n/a	GoodResponse	0	n/a	n/a	2	15	Fixation	Neutral	True
156.062	0.25	Control	0.875	0.004	Yes	2.984	-0.004	2.0	GoodResponse	0	0.234	155.296	2	15	Target	Neutral	True
156.296	0.3	Control	0.875	0.004	Yes	2.984	-0.004	2.0	GoodResponse	0	0.234	n/a	2	15	ButtonPress	Neutral	True
156.313	0.45	Control	0.875	n/a	Yes	2.984	n/a	n/a	GoodResponse	0	n/a	n/a	2	15	Blank	Neutral	True
156.764	1.45	Control	0.875	n/a	Yes	2.984	n/a	5.0	GoodResponse	0	0.04	155.804	2	15	Feedback	Neutral	True
158.219	2.984	Control	0.875	n/a	Yes	2.984	n/a	n/a	GoodResponse	0	0.0	n/a	2	15	ISIslide	Neutral	True
161.228	0.25	Win2	0.8824	0.0	Yes	2.872	0.028	n/a	GoodResponse	1	n/a	n/a	3	16	Cue	Win	True
161.478	4.0	Win2	0.8824	0.0	Yes	2.872	0.0	n/a	GoodResponse	1	n/a	n/a	3	16	Fixation	Win	True
165.474	0.24	Win2	0.8824	0.004	Yes	2.872	-0.004	2.0	GoodResponse	1	0.226	164.7	3	16	Target	Win	True
165.7	0.3	Win2	0.8824	0.004	Yes	2.872	-0.004	2.0	GoodResponse	1	0.226	n/a	3	16	ButtonPress	Win	True
165.724	0.46	Win2	0.8824	n/a	Yes	2.872	n/a	n/a	GoodResponse	1	n/a	n/a	3	16	Blank	Win	True
166.176	1.45	Win2	0.8824	n/a	Yes	2.872	n/a	5.0	GoodResponse	1	0.043	165.219	3	16	Feedback	Win	True
167.63	2.872	Win2	0.8824	n/a	Yes	2.872	n/a	n/a	GoodResponse	1	0.0	n/a	3	16	ISIslide	Win	True
170.522	0.25	Lose2	0.8332999999999999	0.0	No	2.728	0.022	n/a	NoResponse	-1	n/a	n/a	2	17	Cue	Loss	True
170.773	3.95	Lose2	0.8332999999999999	0.0	No	2.728	0.001	n/a	NoResponse	-1	n/a	n/a	2	17	Fixation	Loss	True
174.718	0.23	Lose2	0.8332999999999999	0.004	No	2.728	-0.004	2.0	NoResponse	-1	0.311	174.029	2	17	Target	Loss	True
174.952	0.47	Lose2	0.8332999999999999	n/a	No	2.728	n/a	n/a	NoResponse	-1	n/a	n/a	2	17	Blank	Loss	True
175.029	0.3	Lose2	0.8332999999999999	0.004	No	2.728	-0.004	2.0	NoResponse	-1	0.311	n/a	2	17	ButtonPress	Loss	True
175.42	1.45	Lose2	0.8332999999999999	n/a	No	2.728	n/a	5.0	NoResponse	-1	0.018	174.438	2	17	Feedback	Loss	True
176.874	2.728	Lose2	0.8332999999999999	n/a	No	2.728	n/a	n/a	NoResponse	-1	0.0	n/a	2	17	ISIslide	Loss	True
179.616	0.25	Lose2	0.8421	0.0	Yes	2.734	0.016	n/a	GoodResponse	0	n/a	n/a	2	18	Cue	AvoidedLoss	True
179.867	4.05	Lose2	0.8421	0.0	Yes	2.734	0.001	n/a	GoodResponse	0	n/a	n/a	2	18	Fixation	AvoidedLoss	True
183.912	0.22	Lose2	0.8421	0.004	Yes	2.734	-0.004	2.0	GoodResponse	0	0.187	183.099	2	18	Target	AvoidedLoss	True
184.099	0.3	Lose2	0.8421	0.004	Yes	2.734	-0.004	2.0	GoodResponse	0	0.187	n/a	2	18	ButtonPress	AvoidedLoss	True
184.146	0.48	Lose2	0.8421	n/a	Yes	2.734	n/a	n/a	GoodResponse	0	n/a	n/a	2	18	Blank	AvoidedLoss	True
184.614	1.45	Lose2	0.8421	n/a	Yes	2.734	n/a	5.0	GoodResponse	0	0.043	183.657	2	18	Feedback	AvoidedLoss	True
186.069	2.734	Lose2	0.8421	n/a	Yes	2.734	n/a	n/a	GoodResponse	0	0.0	n/a	2	18	ISIslide	AvoidedLoss	True
188.827	0.25	Control	0.8	0.0	No	2.923	0.027	n/a	NoResponse	0	n/a	n/a	2	19	Cue	Neutral	True
189.078	3.95	Control	0.8	0.0	No	2.923	0.001	n/a	NoResponse	0	n/a	n/a	2	19	Fixation	Neutral	True
193.023	0.21	Control	0.8	0.004	No	2.923	-0.004	2.0	NoResponse	0	0.245	192.268	2	19	Target	Neutral	True
193.24	0.49	Control	0.8	n/a	No	2.923	n/a	n/a	NoResponse	0	n/a	n/a	2	19	Blank	Neutral	True
193.268	0.3	Control	0.8	0.004	No	2.923	-0.004	2.0	NoResponse	0	0.245	n/a	2	19	ButtonPress	Neutral	True
193.725	1.45	Control	0.8	n/a	No	2.923	n/a	5.0	NoResponse	0	0.007	192.732	2	19	Feedback	Neutral	True
195.179	2.923	Control	0.8	n/a	No	2.923	n/a	n/a	NoResponse	0	0.0	n/a	2	19	ISIslide	Neutral	True
198.122	0.25	Control	0.7619	0.0	No	2.628	0.022	n/a	NoResponse	0	n/a	n/a	2	20	Cue	Neutral	True
198.372	4.05	Control	0.7619	0.0	No	2.628	0.0	n/a	NoResponse	0	n/a	n/a	2	20	Fixation	Neutral	True
202.418	0.2	Control	0.7619	0.004	No	2.628	-0.004	2.0	NoResponse	0	0.27	201.688	2	20	Target	Neutral	True
202.618	0.5	Control	0.7619	n/a	No	2.628	n/a	n/a	NoResponse	0	n/a	n/a	2	20	Blank	Neutral	True
202.688	0.3	Control	0.7619	0.004	No	2.628	-0.004	2.0	NoResponse	0	0.27	n/a	2	20	ButtonPress	Neutral	True
203.12	1.45	Control	0.7619	n/a	No	2.628	n/a	5.0	NoResponse	0	0.025	202.145	2	20	Feedback	Neutral	True
204.574	2.628	Control	0.7619	n/a	No	2.628	n/a	n/a	NoResponse	0	0.0	n/a	2	20	ISIslide	Neutral	True
207.215	0.25	Control	0.7273000000000001	0.001	No	2.785	0.015	n/a	NoResponse	0	n/a	n/a	2	21	Cue	Neutral	True
207.466	4.1	Control	0.7273000000000001	0.0	No	2.785	0.001	n/a	NoResponse	0	n/a	n/a	2	21	Fixation	Neutral	True
211.562	0.19	Control	0.7273000000000001	0.003	No	2.785	-0.003	2.0	NoResponse	0	0.239	210.801	2	21	Target	Neutral	True
211.762	0.51	Control	0.7273000000000001	n/a	No	2.785	n/a	n/a	NoResponse	0	n/a	n/a	2	21	Blank	Neutral	True
211.801	0.3	Control	0.7273000000000001	0.003	No	2.785	-0.003	2.0	NoResponse	0	0.239	n/a	2	21	ButtonPress	Neutral	True
212.264	1.45	Control	0.7273000000000001	n/a	No	2.785	n/a	5.0	NoResponse	0	0.006	211.27	2	21	Feedback	Neutral	True
213.718	2.785	Control	0.7273000000000001	n/a	No	2.785	n/a	n/a	NoResponse	0	0.0	n/a	2	21	ISIslide	Neutral	True
216.527	0.25	Control	0.6957	0.0	No	2.773	0.027	n/a	LatePress	0	n/a	n/a	2	22	Cue	Neutral	True
216.777	4.0	Control	0.6957	0.001	No	2.773	0.0	n/a	LatePress	0	n/a	n/a	2	22	Fixation	Neutral	True
220.773	0.18	Control	0.6957	0.004	No	2.773	-0.004	2.0	LatePress	0	0.18	219.953	2	22	Target	Neutral	True
220.953	0.3	Control	0.6957	0.004	No	2.773	-0.004	2.0	LatePress	0	0.18	n/a	2	22	ButtonPress	Neutral	True
220.957	0.52	Control	0.6957	n/a	No	2.773	n/a	n/a	LatePress	0	n/a	n/a	2	22	Blank	Neutral	True
221.475	1.45	Control	0.6957	n/a	No	2.773	n/a	5.0	LatePress	0	0.012	220.487	2	22	Feedback	Neutral	True
222.929	2.773	Control	0.6957	n/a	No	2.773	n/a	n/a	LatePress	0	0.0	n/a	2	22	ISIslide	Neutral	True
225.721	0.25	Control	0.6667000000000001	0.0	No	2.779	0.021	n/a	NoResponse	0	n/a	n/a	2	23	Cue	Neutral	True
225.972	3.9	Control	0.6667000000000001	0.0	No	2.779	0.001	2.0	NoResponse	0	3.705	228.677	2	23	Fixation	Neutral	True
229.677	0.3	Control	0.6667000000000001	0.0	No	2.779	0.001	2.0	NoResponse	0	3.705	n/a	2	23	ButtonPress	Neutral	True
229.867	0.17	Control	0.6667000000000001	0.004	No	2.779	-0.004	n/a	NoResponse	0	n/a	n/a	2	23	Target	Neutral	True
230.051	0.53	Control	0.6667000000000001	n/a	No	2.779	n/a	n/a	NoResponse	0	n/a	n/a	2	23	Blank	Neutral	True
230.569	1.45	Control	0.6667000000000001	n/a	No	2.779	n/a	5.0	NoResponse	0	0.04	229.609	2	23	Feedback	Neutral	True
232.023	2.779	Control	0.6667000000000001	n/a	No	2.779	n/a	n/a	NoResponse	0	0.0	n/a	2	23	ISIslide	Neutral	True
234.832	0.25	Win2	0.64	0.0	No	3.118	0.032	n/a	NoResponse	0	n/a	n/a	2	24	Cue	MissedWin	True
235.082	3.95	Win2	0.64	0.0	No	3.118	0.0	n/a	NoResponse	0	n/a	n/a	2	24	Fixation	MissedWin	True
239.028	0.16	Win2	0.64	0.004	No	3.118	-0.004	2.0	NoResponse	0	0.205	238.233	2	24	Target	MissedWin	True
239.195	0.54	Win2	0.64	n/a	No	3.118	n/a	n/a	NoResponse	0	n/a	n/a	2	24	Blank	MissedWin	True
239.233	0.3	Win2	0.64	0.004	No	3.118	-0.004	2.0	NoResponse	0	0.205	n/a	2	24	ButtonPress	MissedWin	True
239.73	1.45	Win2	0.64	n/a	No	3.118	n/a	5.0	NoResponse	0	0.001	238.731	2	24	Feedback	MissedWin	True
241.184	3.118	Win2	0.64	n/a	No	3.118	n/a	n/a	NoResponse	0	0.0	n/a	2	24	ISIslide	MissedWin	True
244.327	0.25	Win2	0.6154	0.0	No	3.073	0.027	n/a	PrematurePress	0	n/a	n/a	2	25	Cue	MissedWin	False
244.578	4.0	Win2	0.6154	0.0	No	3.073	0.001	2.0	PrematurePress	0	3.589	247.167	2	25	Fixation	MissedWin	False
248.167	0.3	Win2	0.6154	0.0	No	3.073	0.001	2.0	PrematurePress	0	3.589	n/a	2	25	ButtonPress	MissedWin	False
248.573	0.17	Win2	0.6154	0.004	No	3.073	-0.004	2.0	PrematurePress	0	0.046	247.619	2	25	Target	MissedWin	False
248.619	0.3	Win2	0.6154	0.004	No	3.073	-0.004	2.0	PrematurePress	0	0.046	n/a	2	25	ButtonPress	MissedWin	False
248.757	0.53	Win2	0.6154	n/a	No	3.073	n/a	n/a	PrematurePress	0	n/a	n/a	2	25	Blank	MissedWin	False
249.275	1.45	Win2	0.6154	n/a	No	3.073	n/a	5.0	PrematurePress	0	0.017	248.292	2	25	Feedback	MissedWin	False
250.729	3.073	Win2	0.6154	n/a	No	3.073	n/a	n/a	PrematurePress	0	0.0	n/a	2	25	ISIslide	MissedWin	False
253.822	0.25	Win2	0.5926	0.0	No	2.928	0.022	n/a	NoResponse	0	n/a	n/a	2	26	Cue	MissedWin	True
254.073	3.95	Win2	0.5926	0.0	No	2.928	0.001	n/a	NoResponse	0	n/a	n/a	2	26	Fixation	MissedWin	True
258.018	0.18	Win2	0.5926	0.004	No	2.928	-0.004	2.0	NoResponse	0	0.191	257.209	2	26	Target	MissedWin	True
258.202	0.52	Win2	0.5926	n/a	No	2.928	n/a	n/a	NoResponse	0	n/a	n/a	2	26	Blank	MissedWin	True
258.209	0.3	Win2	0.5926	0.004	No	2.928	-0.004	2.0	NoResponse	0	0.191	n/a	2	26	ButtonPress	MissedWin	True
258.72	1.45	Win2	0.5926	n/a	No	2.928	n/a	5.0	NoResponse	0	0.034	257.754	2	26	Feedback	MissedWin	True
260.174	2.928	Win2	0.5926	n/a	No	2.928	n/a	n/a	NoResponse	0	0.0	n/a	2	26	ISIslide	MissedWin	True
263.117	0.25	Lose2	0.5714	0.0	No	2.833	0.017	n/a	NoResponse	-1	n/a	n/a	1	27	Cue	Loss	True
263.367	4.05	Lose2	0.5714	0.0	No	2.833	0.0	n/a	NoResponse	-1	n/a	n/a	1	27	Fixation	Loss	True
267.413	0.19	Lose2	0.5714	0.004	No	2.833	-0.004	2.0	NoResponse	-1	0.285	266.698	1	27	Target	Loss	True
267.613	0.51	Lose2	0.5714	n/a	No	2.833	n/a	n/a	NoResponse	-1	n/a	n/a	1	27	Blank	Loss	True
267.698	0.3	Lose2	0.5714	0.004	No	2.833	-0.004	2.0	NoResponse	-1	0.285	n/a	1	27	ButtonPress	Loss	True
268.115	1.45	Lose2	0.5714	n/a	No	2.833	n/a	5.0	NoResponse	-1	0.006	267.121	1	27	Feedback	Loss	True
269.569	2.833	Lose2	0.5714	n/a	No	2.833	n/a	n/a	NoResponse	-1	0.0	n/a	1	27	ISIslide	Loss	True
272.428	0.25	Control	0.5517	0.0	No	2.822	0.028	n/a	NoResponse	0	n/a	n/a	1	28	Cue	Neutral	True
272.679	4.05	Control	0.5517	0.0	No	2.822	0.001	n/a	NoResponse	0	n/a	n/a	1	28	Fixation	Neutral	True
276.724	0.2	Control	0.5517	0.004	No	2.822	-0.004	2.0	NoResponse	0	0.231	275.955	1	28	Target	Neutral	True
276.925	0.5	Control	0.5517	n/a	No	2.822	n/a	n/a	NoResponse	0	n/a	n/a	1	28	Blank	Neutral	True
276.955	0.3	Control	0.5517	0.004	No	2.822	-0.004	2.0	NoResponse	0	0.231	n/a	1	28	ButtonPress	Neutral	True
277.426	1.45	Control	0.5517	n/a	No	2.822	n/a	5.0	NoResponse	0	0.011	276.437	1	28	Feedback	Neutral	True
278.88	2.822	Control	0.5517	n/a	No	2.822	n/a	n/a	NoResponse	0	0.0	n/a	1	28	ISIslide	Neutral	True
281.722	0.25	Lose2	0.5667	0.0	Yes	2.828	0.022	n/a	GoodResponse	0	n/a	n/a	1	29	Cue	AvoidedLoss	False
281.973	3.95	Lose2	0.5667	0.0	Yes	2.828	0.001	2.0	GoodResponse	0	0.117	281.09	1	29	Fixation	AvoidedLoss	False
282.09	0.3	Lose2	0.5667	0.0	Yes	2.828	0.001	2.0	GoodResponse	0	0.117	n/a	1	29	ButtonPress	AvoidedLoss	False
285.918	0.21	Lose2	0.5667	0.004	Yes	2.828	-0.004	2.0	GoodResponse	0	0.191	285.109	1	29	Target	AvoidedLoss	False
286.109	0.3	Lose2	0.5667	0.004	Yes	2.828	-0.004	2.0	GoodResponse	0	0.191	n/a	1	29	ButtonPress	AvoidedLoss	False
286.136	0.49	Lose2	0.5667	n/a	Yes	2.828	n/a	n/a	GoodResponse	0	n/a	n/a	1	29	Blank	AvoidedLoss	False
286.62	1.45	Lose2	0.5667	n/a	Yes	2.828	n/a	5.0	GoodResponse	0	0.037	285.657	1	29	Feedback	AvoidedLoss	False
288.075	2.828	Lose2	0.5667	n/a	Yes	2.828	n/a	n/a	GoodResponse	0	0.0	n/a	1	29	ISIslide	AvoidedLoss	False
290.917	0.25	Win2	0.5806	0.0	Yes	2.783	0.017	n/a	GoodResponse	1	n/a	n/a	2	30	Cue	Win	True
291.167	3.9	Win2	0.5806	0.0	Yes	2.783	0.0	n/a	GoodResponse	1	n/a	n/a	2	30	Fixation	Win	True
295.079	0.22	Win2	0.5806	0.0	Yes	2.783	0.012	2.0	GoodResponse	1	0.185	294.264	2	30	Target	Win	True
295.264	0.3	Win2	0.5806	0.0	Yes	2.783	0.012	2.0	GoodResponse	1	0.185	n/a	2	30	ButtonPress	Win	True
295.296	0.48	Win2	0.5806	n/a	Yes	2.783	n/a	n/a	GoodResponse	1	n/a	n/a	2	30	Blank	Win	True
295.764	1.45	Win2	0.5806	n/a	Yes	2.783	n/a	5.0	GoodResponse	1	0.015	294.779	2	30	Feedback	Win	True
297.219	2.783	Win2	0.5806	n/a	Yes	2.783	n/a	n/a	GoodResponse	1	0.0	n/a	2	30	ISIslide	Win	True
300.027	0.25	Lose2	0.5938	0.0	Yes	2.823	0.027	n/a	GoodResponse	0	n/a	n/a	2	31	Cue	AvoidedLoss	True
300.278	4.05	Lose2	0.5938	0.0	Yes	2.823	0.001	n/a	GoodResponse	0	n/a	n/a	2	31	Fixation	AvoidedLoss	True
304.323	0.23	Lose2	0.5938	0.004	Yes	2.823	-0.004	2.0	GoodResponse	0	0.21	303.533	2	31	Target	AvoidedLoss	True
304.533	0.3	Lose2	0.5938	0.004	Yes	2.823	-0.004	2.0	GoodResponse	0	0.21	n/a	2	31	ButtonPress	AvoidedLoss	True
304.557	0.47	Lose2	0.5938	n/a	Yes	2.823	n/a	n/a	GoodResponse	0	n/a	n/a	2	31	Blank	AvoidedLoss	True
305.026	1.45	Lose2	0.5938	n/a	Yes	2.823	n/a	5.0	GoodResponse	0	0.022	304.048	2	31	Feedback	AvoidedLoss	True
306.48	2.823	Lose2	0.5938	n/a	Yes	2.823	n/a	n/a	GoodResponse	0	0.0	n/a	2	31	ISIslide	AvoidedLoss	True
309.322	0.25	Lose2	0.6061	0.0	Yes	2.628	0.022	n/a	GoodResponse	0	n/a	n/a	2	32	Cue	AvoidedLoss	True
309.573	4.15	Lose2	0.6061	0.0	Yes	2.628	0.001	n/a	GoodResponse	0	n/a	n/a	2	32	Fixation	AvoidedLoss	True
313.718	0.24	Lose2	0.6061	0.004	Yes	2.628	-0.004	2.0	GoodResponse	0	0.195	312.913	2	32	Target	AvoidedLoss	True
313.913	0.3	Lose2	0.6061	0.004	Yes	2.628	-0.004	2.0	GoodResponse	0	0.195	n/a	2	32	ButtonPress	AvoidedLoss	True
313.969	0.46	Lose2	0.6061	n/a	Yes	2.628	n/a	n/a	GoodResponse	0	n/a	n/a	2	32	Blank	AvoidedLoss	True
314.42	1.45	Lose2	0.6061	n/a	Yes	2.628	n/a	5.0	GoodResponse	0	0.042	313.462	2	32	Feedback	AvoidedLoss	True
315.875	2.628	Lose2	0.6061	n/a	Yes	2.628	n/a	n/a	GoodResponse	0	0.0	n/a	2	32	ISIslide	AvoidedLoss	True
318.516	0.25	Win2	0.6175999999999999	0.0	Yes	2.684	0.016	n/a	GoodResponse	1	n/a	n/a	3	33	Cue	Win	True
318.767	4.0	Win2	0.6175999999999999	0.0	Yes	2.684	0.001	n/a	GoodResponse	1	n/a	n/a	3	33	Fixation	Win	True
322.762	0.25	Win2	0.6175999999999999	0.004	Yes	2.684	-0.004	2.0	GoodResponse	1	0.181	321.943	3	33	Target	Win	True
322.943	0.3	Win2	0.6175999999999999	0.004	Yes	2.684	-0.004	2.0	GoodResponse	1	0.181	n/a	3	33	ButtonPress	Win	True
323.013	0.45	Win2	0.6175999999999999	n/a	Yes	2.684	n/a	n/a	GoodResponse	1	n/a	n/a	3	33	Blank	Win	True
323.464	1.45	Win2	0.6175999999999999	n/a	Yes	2.684	n/a	5.0	GoodResponse	1	0.023	322.487	3	33	Feedback	Win	True
324.919	2.684	Win2	0.6175999999999999	n/a	Yes	2.684	n/a	n/a	GoodResponse	1	0.0	n/a	3	33	ISIslide	Win	True
327.627	0.25	Lose2	0.6	0.0	No	2.623	0.027	n/a	PrematurePress	-1	n/a	n/a	2	34	Cue	Loss	True
327.877	4.05	Lose2	0.6	0.001	No	2.623	0.0	n/a	PrematurePress	-1	n/a	n/a	2	34	Fixation	Loss	True
331.923	0.26	Lose2	0.6	0.004	No	2.623	-0.004	2.0	PrematurePress	-1	0.03	330.953	2	34	Target	Loss	True
331.953	0.3	Lose2	0.6	0.004	No	2.623	-0.004	2.0	PrematurePress	-1	0.03	n/a	2	34	ButtonPress	Loss	True
332.19	0.44	Lose2	0.6	n/a	No	2.623	n/a	n/a	PrematurePress	-1	n/a	n/a	2	34	Blank	Loss	True
332.625	1.45	Lose2	0.6	n/a	No	2.623	n/a	5.0	PrematurePress	-1	0.033	331.658	2	34	Feedback	Loss	True
334.079	2.623	Lose2	0.6	n/a	No	2.623	n/a	n/a	PrematurePress	-1	0.0	n/a	2	34	ISIslide	Loss	True
336.721	0.25	Lose2	0.6111	0.0	Yes	2.679	0.021	n/a	GoodResponse	0	n/a	n/a	2	35	Cue	AvoidedLoss	True
336.971	4.0	Lose2	0.6111	0.0	Yes	2.679	0.0	n/a	GoodResponse	0	n/a	n/a	2	35	Fixation	AvoidedLoss	True
340.967	0.27	Lose2	0.6111	0.004	Yes	2.679	-0.004	2.0	GoodResponse	0	0.184	340.151	2	35	Target	AvoidedLoss	True
341.151	0.3	Lose2	0.6111	0.004	Yes	2.679	-0.004	2.0	GoodResponse	0	0.184	n/a	2	35	ButtonPress	AvoidedLoss	True
341.251	0.43	Lose2	0.6111	n/a	Yes	2.679	n/a	n/a	GoodResponse	0	n/a	n/a	2	35	Blank	AvoidedLoss	True
341.669	1.45	Lose2	0.6111	n/a	Yes	2.679	n/a	5.0	GoodResponse	0	0.012	340.681	2	35	Feedback	AvoidedLoss	True
343.123	2.679	Lose2	0.6111	n/a	Yes	2.679	n/a	n/a	GoodResponse	0	0.0	n/a	2	35	ISIslide	AvoidedLoss	True
345.815	0.25	Control	0.6215999999999999	0.0	Yes	2.685	0.015	n/a	GoodResponse	0	n/a	n/a	2	36	Cue	Neutral	True
346.065	4.0	Control	0.6215999999999999	0.0	Yes	2.685	0.0	n/a	GoodResponse	0	n/a	n/a	2	36	Fixation	Neutral	True
350.061	0.28	Control	0.6215999999999999	0.004	Yes	2.685	-0.004	2.0	GoodResponse	0	0.158	349.219	2	36	Target	Neutral	True
350.219	0.3	Control	0.6215999999999999	0.004	Yes	2.685	-0.004	2.0	GoodResponse	0	0.158	n/a	2	36	ButtonPress	Neutral	True
350.345	0.42	Control	0.6215999999999999	n/a	Yes	2.685	n/a	n/a	GoodResponse	0	n/a	n/a	2	36	Blank	Neutral	True
350.763	1.45	Control	0.6215999999999999	n/a	Yes	2.685	n/a	5.0	GoodResponse	0	0.04	349.803	2	36	Feedback	Neutral	True
352.217	2.685	Control	0.6215999999999999	n/a	Yes	2.685	n/a	n/a	GoodResponse	0	0.0	n/a	2	36	ISIslide	Neutral	True
354.925	0.25	Win2	0.6315999999999999	0.0	Yes	2.875	0.025	n/a	GoodResponse	1	n/a	n/a	3	37	Cue	Win	True
355.176	4.0	Win2	0.6315999999999999	0.0	Yes	2.875	0.001	n/a	GoodResponse	1	n/a	n/a	3	37	Fixation	Win	True
359.171	0.29	Win2	0.6315999999999999	0.004	Yes	2.875	-0.004	2.0	GoodResponse	1	0.191	358.362	3	37	Target	Win	True
359.362	0.3	Win2	0.6315999999999999	0.004	Yes	2.875	-0.004	2.0	GoodResponse	1	0.191	n/a	3	37	ButtonPress	Win	True
359.472	0.41	Win2	0.6315999999999999	n/a	Yes	2.875	n/a	n/a	GoodResponse	1	n/a	n/a	3	37	Blank	Win	True
359.873	1.45	Win2	0.6315999999999999	n/a	Yes	2.875	n/a	5.0	GoodResponse	1	0.007	358.88	3	37	Feedback	Win	True
361.328	2.875	Win2	0.6315999999999999	n/a	Yes	2.875	n/a	n/a	GoodResponse	1	0.0	n/a	3	37	ISIslide	Win	True
364.22	0.25	Lose2	0.6409999999999999	0.0	Yes	2.83	0.02	n/a	GoodResponse	0	n/a	n/a	3	38	Cue	AvoidedLoss	True
364.471	3.95	Lose2	0.6409999999999999	0.0	Yes	2.83	0.001	n/a	GoodResponse	0	n/a	n/a	3	38	Fixation	AvoidedLoss	True
368.416	0.3	Lose2	0.6409999999999999	0.004	Yes	2.83	-0.004	2.0	GoodResponse	0	0.259	367.675	3	38	Target	AvoidedLoss	True
368.675	0.3	Lose2	0.6409999999999999	0.004	Yes	2.83	-0.004	2.0	GoodResponse	0	0.259	n/a	3	38	ButtonPress	AvoidedLoss	True
368.717	0.4	Lose2	0.6409999999999999	n/a	Yes	2.83	n/a	n/a	GoodResponse	0	n/a	n/a	3	38	Blank	AvoidedLoss	True
369.118	1.45	Lose2	0.6409999999999999	n/a	Yes	2.83	n/a	5.0	GoodResponse	0	0.027	368.145	3	38	Feedback	AvoidedLoss	True
370.572	2.83	Lose2	0.6409999999999999	n/a	Yes	2.83	n/a	n/a	GoodResponse	0	0.0	n/a	3	38	ISIslide	AvoidedLoss	True
373.431	0.25	Win2	0.65	0.0	Yes	2.969	0.031	n/a	GoodResponse	1	n/a	n/a	4	39	Cue	Win	True
373.682	4.1	Win2	0.65	0.0	Yes	2.969	0.001	n/a	GoodResponse	1	n/a	n/a	4	39	Fixation	Win	True
377.777	0.31	Win2	0.65	0.004	Yes	2.969	-0.004	2.0	GoodResponse	1	0.212	376.989	4	39	Target	Win	True
377.989	0.3	Win2	0.65	0.004	Yes	2.969	-0.004	2.0	GoodResponse	1	0.212	n/a	4	39	ButtonPress	Win	True
378.095	0.39	Win2	0.65	n/a	Yes	2.969	n/a	n/a	GoodResponse	1	n/a	n/a	4	39	Blank	Win	True
378.479	1.45	Win2	0.65	n/a	Yes	2.969	n/a	5.0	GoodResponse	1	0.032	377.511	4	39	Feedback	Win	True
379.934	2.969	Win2	0.65	n/a	Yes	2.969	n/a	n/a	GoodResponse	1	0.0	n/a	4	39	ISIslide	Win	True
382.926	0.25	Win2	0.6585	0.0	Yes	2.724	0.026	n/a	GoodResponse	1	n/a	n/a	5	40	Cue	Win	True
383.177	3.95	Win2	0.6585	0.0	Yes	2.724	0.001	n/a	GoodResponse	1	n/a	n/a	5	40	Fixation	Win	True
387.122	0.32	Win2	0.6585	0.004	Yes	2.724	-0.004	2.0	GoodResponse	1	0.219	386.341	5	40	Target	Win	True
387.341	0.3	Win2	0.6585	0.004	Yes	2.724	-0.004	2.0	GoodResponse	1	0.219	n/a	5	40	ButtonPress	Win	True
387.456	0.38	Win2	0.6585	n/a	Yes	2.724	n/a	n/a	GoodResponse	1	n/a	n/a	5	40	Blank	Win	True
387.824	1.45	Win2	0.6585	n/a	Yes	2.724	n/a	5.0	GoodResponse	1	0.006	386.83	5	40	Feedback	Win	True
389.278	2.724	Win2	0.6585	n/a	Yes	2.724	n/a	n/a	GoodResponse	1	0.0	n/a	5	40	ISIslide	Win	True
392.02	0.25	Win2	0.6667000000000001	0.0	Yes	2.78	0.02	n/a	GoodResponse	1	n/a	n/a	6	41	Cue	Win	True
392.271	3.9	Win2	0.6667000000000001	0.0	Yes	2.78	0.001	n/a	GoodResponse	1	n/a	n/a	6	41	Fixation	Win	True
396.166	0.32	Win2	0.6667000000000001	0.004	Yes	2.78	-0.004	2.0	GoodResponse	1	0.22	395.386	6	41	Target	Win	True
396.386	0.3	Win2	0.6667000000000001	0.004	Yes	2.78	-0.004	2.0	GoodResponse	1	0.22	n/a	6	41	ButtonPress	Win	True
396.5	0.38	Win2	0.6667000000000001	n/a	Yes	2.78	n/a	n/a	GoodResponse	1	n/a	n/a	6	41	Blank	Win	True
396.868	1.45	Win2	0.6667000000000001	n/a	Yes	2.78	n/a	5.0	GoodResponse	1	0.033	395.901	6	41	Feedback	Win	True
398.322	2.78	Win2	0.6667000000000001	n/a	Yes	2.78	n/a	n/a	GoodResponse	1	0.0	n/a	6	41	ISIslide	Win	True
401.131	0.25	Control	0.6512	0.0	No	2.919	0.031	n/a	NoResponse	0	n/a	n/a	6	42	Cue	Neutral	True
401.381	3.85	Control	0.6512	0.0	No	2.919	0.0	n/a	NoResponse	0	n/a	n/a	6	42	Fixation	Neutral	True
405.243	0.31	Control	0.6512	0.0	No	2.919	0.012	2.0	NoResponse	0	0.486	404.729	6	42	Target	Neutral	True
405.544	0.39	Control	0.6512	n/a	No	2.919	n/a	n/a	NoResponse	0	n/a	n/a	6	42	Blank	Neutral	True
405.729	0.3	Control	0.6512	0.0	No	2.919	0.012	2.0	NoResponse	0	0.486	n/a	6	42	ButtonPress	Neutral	True
405.928	1.45	Control	0.6512	n/a	No	2.919	n/a	5.0	NoResponse	0	0.045	404.973	6	42	Feedback	Neutral	True
407.383	2.919	Control	0.6512	n/a	No	2.919	n/a	n/a	NoResponse	0	0.0	n/a	6	42	ISIslide	Neutral	True
410.325	0.25	Win2	0.6591	0.0	Yes	3.175	0.025	n/a	GoodResponse	1	n/a	n/a	7	43	Cue	Win	True
410.576	4.0	Win2	0.6591	0.0	Yes	3.175	0.001	n/a	GoodResponse	1	n/a	n/a	7	43	Fixation	Win	True
414.571	0.32	Win2	0.6591	0.004	Yes	3.175	-0.004	2.0	GoodResponse	1	0.192	413.763	7	43	Target	Win	True
414.763	0.3	Win2	0.6591	0.004	Yes	3.175	-0.004	2.0	GoodResponse	1	0.192	n/a	7	43	ButtonPress	Win	True
414.905	0.38	Win2	0.6591	n/a	Yes	3.175	n/a	n/a	GoodResponse	1	n/a	n/a	7	43	Blank	Win	True
415.273	1.45	Win2	0.6591	n/a	Yes	3.175	n/a	5.0	GoodResponse	1	0.018	414.291	7	43	Feedback	Win	True
416.727	3.175	Win2	0.6591	n/a	Yes	3.175	n/a	n/a	GoodResponse	1	0.0	n/a	7	43	ISIslide	Win	True
419.92	0.25	Win2	0.6667000000000001	0.0	Yes	2.98	0.02	n/a	GoodResponse	1	n/a	n/a	8	44	Cue	Win	True
420.171	4.0	Win2	0.6667000000000001	0.0	Yes	2.98	0.001	n/a	GoodResponse	1	n/a	n/a	8	44	Fixation	Win	True
424.166	0.32	Win2	0.6667000000000001	0.004	Yes	2.98	-0.004	2.0	GoodResponse	1	0.198	423.364	8	44	Target	Win	True
424.364	0.3	Win2	0.6667000000000001	0.004	Yes	2.98	-0.004	2.0	GoodResponse	1	0.198	n/a	8	44	ButtonPress	Win	True
424.501	0.38	Win2	0.6667000000000001	n/a	Yes	2.98	n/a	n/a	GoodResponse	1	n/a	n/a	8	44	Blank	Win	True
424.868	1.45	Win2	0.6667000000000001	n/a	Yes	2.98	n/a	5.0	GoodResponse	1	0.033	423.901	8	44	Feedback	Win	True
426.323	2.98	Win2	0.6667000000000001	n/a	Yes	2.98	n/a	n/a	GoodResponse	1	0.0	n/a	8	44	ISIslide	Win	True
429.315	0.25	Control	0.6739	0.0	Yes	2.885	0.015	n/a	GoodResponse	0	n/a	n/a	8	45	Cue	Neutral	True
429.566	4.1	Control	0.6739	0.0	Yes	2.885	0.001	n/a	GoodResponse	0	n/a	n/a	8	45	Fixation	Neutral	True
433.661	0.31	Control	0.6739	0.004	Yes	2.885	-0.004	2.0	GoodResponse	0	0.256	432.917	8	45	Target	Neutral	True
433.917	0.3	Control	0.6739	0.004	Yes	2.885	-0.004	2.0	GoodResponse	0	0.256	n/a	8	45	ButtonPress	Neutral	True
433.979	0.39	Control	0.6739	n/a	Yes	2.885	n/a	n/a	GoodResponse	0	n/a	n/a	8	45	Blank	Neutral	True
434.364	1.45	Control	0.6739	n/a	Yes	2.885	n/a	5.0	GoodResponse	0	0.0	433.364	8	45	Feedback	Neutral	True
435.818	2.885	Control	0.6739	n/a	Yes	2.885	n/a	n/a	GoodResponse	0	0.0	n/a	8	45	ISIslide	Neutral	True
438.727	0.25	Lose2	0.6596	0.0	No	3.373	0.027	n/a	NoResponse	-1	n/a	n/a	7	46	Cue	Loss	True
438.977	4.0	Lose2	0.6596	0.0	No	3.373	0.0	n/a	NoResponse	-1	n/a	n/a	7	46	Fixation	Loss	True
442.973	0.3	Lose2	0.6596	0.004	No	3.373	-0.004	2.0	NoResponse	-1	0.316	442.289	7	46	Target	Loss	True
443.274	0.4	Lose2	0.6596	n/a	No	3.373	n/a	n/a	NoResponse	-1	n/a	n/a	7	46	Blank	Loss	True
443.289	0.3	Lose2	0.6596	0.004	No	3.373	-0.004	2.0	NoResponse	-1	0.316	n/a	7	46	ButtonPress	Loss	True
443.675	1.45	Lose2	0.6596	n/a	No	3.373	n/a	5.0	NoResponse	-1	0.006	442.681	7	46	Feedback	Loss	True
445.129	3.373	Lose2	0.6596	n/a	No	3.373	n/a	n/a	NoResponse	-1	0.0	n/a	7	46	ISIslide	Loss	True
448.523	0.25	Lose2	0.6457999999999999	0.0	No	2.677	0.023	n/a	NoResponse	-1	n/a	n/a	6	47	Cue	Loss	True
448.773	4.0	Lose2	0.6457999999999999	0.001	No	2.677	0.0	n/a	NoResponse	-1	n/a	n/a	6	47	Fixation	Loss	True
452.769	0.3	Lose2	0.6457999999999999	0.004	No	2.677	-0.004	2.0	NoResponse	-1	0.309	452.078	6	47	Target	Loss	True
453.07	0.4	Lose2	0.6457999999999999	n/a	No	2.677	n/a	n/a	NoResponse	-1	n/a	n/a	6	47	Blank	Loss	True
453.078	0.3	Lose2	0.6457999999999999	0.004	No	2.677	-0.004	2.0	NoResponse	-1	0.309	n/a	6	47	ButtonPress	Loss	True
453.471	1.45	Lose2	0.6457999999999999	n/a	No	2.677	n/a	5.0	NoResponse	-1	0.015	452.486	6	47	Feedback	Loss	True
454.925	2.677	Lose2	0.6457999999999999	n/a	No	2.677	n/a	n/a	NoResponse	-1	0.0	n/a	6	47	ISIslide	Loss	True
457.617	0.25	Lose2	0.6531	0.0	Yes	3.033	0.017	n/a	GoodResponse	0	n/a	n/a	6	48	Cue	AvoidedLoss	True
457.867	3.95	Lose2	0.6531	0.0	Yes	3.033	0.0	n/a	GoodResponse	0	n/a	n/a	6	48	Fixation	AvoidedLoss	True
461.813	0.31	Lose2	0.6531	0.004	Yes	3.033	-0.004	2.0	GoodResponse	0	0.188	461.001	6	48	Target	AvoidedLoss	True
462.001	0.3	Lose2	0.6531	0.004	Yes	3.033	-0.004	2.0	GoodResponse	0	0.188	n/a	6	48	ButtonPress	AvoidedLoss	True
462.13	0.39	Lose2	0.6531	n/a	Yes	3.033	n/a	n/a	GoodResponse	0	n/a	n/a	6	48	Blank	AvoidedLoss	True
462.515	1.45	Lose2	0.6531	n/a	Yes	3.033	n/a	5.0	GoodResponse	0	0.044	461.559	6	48	Feedback	AvoidedLoss	True
463.969	3.033	Lose2	0.6531	n/a	Yes	3.033	n/a	n/a	GoodResponse	0	0.0	n/a	6	48	ISIslide	AvoidedLoss	True
467.028	0.25	Control	0.66	0.0	Yes	2.872	0.028	n/a	GoodResponse	0	n/a	n/a	6	49	Cue	Neutral	True
467.279	4.0	Control	0.66	0.0	Yes	2.872	0.001	n/a	GoodResponse	0	n/a	n/a	6	49	Fixation	Neutral	True
471.274	0.32	Control	0.66	0.004	Yes	2.872	-0.004	2.0	GoodResponse	0	0.205	470.479	6	49	Target	Neutral	True
471.479	0.3	Control	0.66	0.004	Yes	2.872	-0.004	2.0	GoodResponse	0	0.205	n/a	6	49	ButtonPress	Neutral	True
471.609	0.38	Control	0.66	n/a	Yes	2.872	n/a	n/a	GoodResponse	0	n/a	n/a	6	49	Blank	Neutral	True
471.976	1.45	Control	0.66	n/a	Yes	2.872	n/a	5.0	GoodResponse	0	0.047	471.023	6	49	Feedback	Neutral	True
473.431	2.872	Control	0.66	n/a	Yes	2.872	n/a	n/a	GoodResponse	0	0.0	n/a	6	49	ISIslide	Neutral	True
476.323	0.25	Control	0.6470999999999999	0.0	No	2.777	0.023	n/a	NoResponse	0	n/a	n/a	6	50	Cue	Neutral	True
476.573	4.0	Control	0.6470999999999999	0.001	No	2.777	0.0	2.0	NoResponse	0	3.895	479.468	6	50	Fixation	Neutral	True
480.468	0.3	Control	0.6470999999999999	0.001	No	2.777	0.0	2.0	NoResponse	0	3.895	n/a	6	50	ButtonPress	Neutral	True
480.569	0.32	Control	0.6470999999999999	0.004	No	2.777	-0.004	n/a	NoResponse	0	n/a	n/a	6	50	Target	Neutral	True
480.903	0.38	Control	0.6470999999999999	n/a	No	2.777	n/a	n/a	NoResponse	0	n/a	n/a	6	50	Blank	Neutral	True
481.271	1.45	Control	0.6470999999999999	n/a	No	2.777	n/a	5.0	NoResponse	0	0.02	480.291	6	50	Feedback	Neutral	True
482.725	2.777	Control	0.6470999999999999	n/a	No	2.777	n/a	n/a	NoResponse	0	0.0	n/a	6	50	ISIslide	Neutral	True
485.517	0.25	Control	0.6537999999999999	0.0	Yes	2.733	0.017	n/a	GoodResponse	0	n/a	n/a	6	51	Cue	Neutral	True
485.768	3.95	Control	0.6537999999999999	0.0	Yes	2.733	0.001	n/a	GoodResponse	0	n/a	n/a	6	51	Fixation	Neutral	True
489.713	0.33	Control	0.6537999999999999	0.004	Yes	2.733	-0.004	2.0	GoodResponse	0	0.21	488.923	6	51	Target	Neutral	True
489.923	0.3	Control	0.6537999999999999	0.004	Yes	2.733	-0.004	2.0	GoodResponse	0	0.21	n/a	6	51	ButtonPress	Neutral	True
490.047	0.37	Control	0.6537999999999999	n/a	Yes	2.733	n/a	n/a	GoodResponse	0	n/a	n/a	6	51	Blank	Neutral	True
490.415	1.45	Control	0.6537999999999999	n/a	Yes	2.733	n/a	5.0	GoodResponse	0	0.046	489.461	6	51	Feedback	Neutral	True
491.869	2.733	Control	0.6537999999999999	n/a	Yes	2.733	n/a	n/a	GoodResponse	0	0.0	n/a	6	51	ISIslide	Neutral	True
494.628	0.25	Control	0.6604000000000001	0.0	Yes	2.622	0.028	n/a	GoodResponse	0	n/a	n/a	6	52	Cue	Neutral	True
494.878	4.05	Control	0.6604000000000001	0.001	Yes	2.622	0.0	n/a	GoodResponse	0	n/a	n/a	6	52	Fixation	Neutral	True
498.924	0.34	Control	0.6604000000000001	0.004	Yes	2.622	-0.004	2.0	GoodResponse	0	0.279	498.203	6	52	Target	Neutral	True
499.203	0.3	Control	0.6604000000000001	0.004	Yes	2.622	-0.004	2.0	GoodResponse	0	0.279	n/a	6	52	ButtonPress	Neutral	True
499.275	0.36	Control	0.6604000000000001	n/a	Yes	2.622	n/a	n/a	GoodResponse	0	n/a	n/a	6	52	Blank	Neutral	True
499.626	1.45	Control	0.6604000000000001	n/a	Yes	2.622	n/a	5.0	GoodResponse	0	0.006	498.632	6	52	Feedback	Neutral	True
501.08	2.622	Control	0.6604000000000001	n/a	Yes	2.622	n/a	n/a	GoodResponse	0	0.0	n/a	6	52	ISIslide	Neutral	True
503.722	0.25	Win2	0.6667000000000001	0.0	Yes	2.928	0.022	n/a	GoodResponse	1	n/a	n/a	7	53	Cue	Win	True
503.972	4.05	Win2	0.6667000000000001	0.0	Yes	2.928	0.0	n/a	GoodResponse	1	n/a	n/a	7	53	Fixation	Win	True
508.018	0.34	Win2	0.6667000000000001	0.004	Yes	2.928	-0.004	2.0	GoodResponse	1	0.192	507.21	7	53	Target	Win	True
508.21	0.3	Win2	0.6667000000000001	0.004	Yes	2.928	-0.004	2.0	GoodResponse	1	0.192	n/a	7	53	ButtonPress	Win	True
508.369	0.36	Win2	0.6667000000000001	n/a	Yes	2.928	n/a	n/a	GoodResponse	1	n/a	n/a	7	53	Blank	Win	True
508.72	1.45	Win2	0.6667000000000001	n/a	Yes	2.928	n/a	5.0	GoodResponse	1	0.034	507.754	7	53	Feedback	Win	True
510.174	2.928	Win2	0.6667000000000001	n/a	Yes	2.928	n/a	n/a	GoodResponse	1	0.0	n/a	7	53	ISIslide	Win	True
513.116	0.25	Win2	0.6727	0.001	Yes	2.734	0.016	n/a	GoodResponse	1	n/a	n/a	8	54	Cue	Win	False
513.367	3.95	Win2	0.6727	0.0	Yes	2.734	0.001	2.0	GoodResponse	1	0.251	512.618	8	54	Fixation	Win	False
513.618	0.3	Win2	0.6727	0.0	Yes	2.734	0.001	2.0	GoodResponse	1	0.251	n/a	8	54	ButtonPress	Win	False
517.312	0.33	Win2	0.6727	0.004	Yes	2.734	-0.004	2.0	GoodResponse	1	0.165	516.477	8	54	Target	Win	False
517.477	0.3	Win2	0.6727	0.004	Yes	2.734	-0.004	2.0	GoodResponse	1	0.165	n/a	8	54	ButtonPress	Win	False
517.647	0.37	Win2	0.6727	n/a	Yes	2.734	n/a	n/a	GoodResponse	1	n/a	n/a	8	54	Blank	Win	False
518.014	1.45	Win2	0.6727	n/a	Yes	2.734	n/a	5.0	GoodResponse	1	0.009	517.023	8	54	Feedback	Win	False
519.469	2.734	Win2	0.6727	n/a	Yes	2.734	n/a	n/a	GoodResponse	1	0.0	n/a	8	54	ISIslide	Win	False
522.227	0.25	Control	0.6786	0.0	Yes	3.023	0.027	n/a	GoodResponse	0	n/a	n/a	8	55	Cue	Neutral	True
522.478	3.95	Control	0.6786	0.0	Yes	3.023	0.001	n/a	GoodResponse	0	n/a	n/a	8	55	Fixation	Neutral	True
526.423	0.32	Control	0.6786	0.004	Yes	3.023	-0.004	2.0	GoodResponse	0	0.189	525.612	8	55	Target	Neutral	True
526.612	0.3	Control	0.6786	0.004	Yes	3.023	-0.004	2.0	GoodResponse	0	0.189	n/a	8	55	ButtonPress	Neutral	True
526.757	0.38	Control	0.6786	n/a	Yes	3.023	n/a	n/a	GoodResponse	0	n/a	n/a	8	55	Blank	Neutral	True
527.125	1.45	Control	0.6786	n/a	Yes	3.023	n/a	5.0	GoodResponse	0	0.02	526.145	8	55	Feedback	Neutral	True
528.58	3.023	Control	0.6786	n/a	Yes	3.023	n/a	n/a	GoodResponse	0	0.0	n/a	8	55	ISIslide	Neutral	True
531.622	0.25	Control	0.6842	0.0	Yes	2.828	0.022	n/a	GoodResponse	0	n/a	n/a	8	56	Cue	Neutral	True
531.873	3.95	Control	0.6842	0.0	Yes	2.828	0.001	n/a	GoodResponse	0	n/a	n/a	8	56	Fixation	Neutral	True
535.818	0.31	Control	0.6842	0.004	Yes	2.828	-0.004	2.0	GoodResponse	0	0.223	535.041	8	56	Target	Neutral	True
536.041	0.3	Control	0.6842	0.004	Yes	2.828	-0.004	2.0	GoodResponse	0	0.223	n/a	8	56	ButtonPress	Neutral	True
536.136	0.39	Control	0.6842	n/a	Yes	2.828	n/a	n/a	GoodResponse	0	n/a	n/a	8	56	Blank	Neutral	True
536.52	1.45	Control	0.6842	n/a	Yes	2.828	n/a	5.0	GoodResponse	0	0.039	535.559	8	56	Feedback	Neutral	True
537.974	2.828	Control	0.6842	n/a	Yes	2.828	n/a	n/a	GoodResponse	0	0.0	n/a	8	56	ISIslide	Neutral	True
540.816	0.25	Control	0.6897	0.0	Yes	3.484	0.016	n/a	GoodResponse	0	n/a	n/a	8	57	Cue	Neutral	True
541.067	4.0	Control	0.6897	0.0	Yes	3.484	0.001	n/a	GoodResponse	0	n/a	n/a	8	57	Fixation	Neutral	True
545.062	0.3	Control	0.6897	0.004	Yes	3.484	-0.004	2.0	GoodResponse	0	0.233	544.295	8	57	Target	Neutral	True
545.295	0.3	Control	0.6897	0.004	Yes	3.484	-0.004	2.0	GoodResponse	0	0.233	n/a	8	57	ButtonPress	Neutral	True
545.363	0.4	Control	0.6897	n/a	Yes	3.484	n/a	n/a	GoodResponse	0	n/a	n/a	8	57	Blank	Neutral	True
545.764	1.45	Control	0.6897	n/a	Yes	3.484	n/a	5.0	GoodResponse	0	0.015	544.779	8	57	Feedback	Neutral	True
547.219	3.484	Control	0.6897	n/a	Yes	3.484	n/a	n/a	GoodResponse	0	0.0	n/a	8	57	ISIslide	Neutral	True
550.729	0.25	Win2	0.6949	0.0	Yes	2.721	0.029	n/a	GoodResponse	1	n/a	n/a	9	58	Cue	Win	True
550.98	4.05	Win2	0.6949	0.0	Yes	2.721	0.001	n/a	GoodResponse	1	n/a	n/a	9	58	Fixation	Win	True
555.025	0.29	Win2	0.6949	0.004	Yes	2.721	-0.004	2.0	GoodResponse	1	0.193	554.218	9	58	Target	Win	True
555.218	0.3	Win2	0.6949	0.004	Yes	2.721	-0.004	2.0	GoodResponse	1	0.193	n/a	9	58	ButtonPress	Win	True
555.326	0.41	Win2	0.6949	n/a	Yes	2.721	n/a	n/a	GoodResponse	1	n/a	n/a	9	58	Blank	Win	True
555.728	1.45	Win2	0.6949	n/a	Yes	2.721	n/a	5.0	GoodResponse	1	0.003	554.731	9	58	Feedback	Win	True
557.182	2.721	Win2	0.6949	n/a	Yes	2.721	n/a	n/a	GoodResponse	1	0.0	n/a	9	58	ISIslide	Win	True
559.924	0.25	Lose2	0.7	0.0	Yes	2.676	0.024	n/a	GoodResponse	0	n/a	n/a	9	59	Cue	AvoidedLoss	True
560.174	4.0	Lose2	0.7	0.0	Yes	2.676	0.0	n/a	GoodResponse	0	n/a	n/a	9	59	Fixation	AvoidedLoss	True
564.17	0.28	Lose2	0.7	0.004	Yes	2.676	-0.004	2.0	GoodResponse	0	0.232	563.402	9	59	Target	AvoidedLoss	True
564.402	0.3	Lose2	0.7	0.004	Yes	2.676	-0.004	2.0	GoodResponse	0	0.232	n/a	9	59	ButtonPress	AvoidedLoss	True
564.454	0.42	Lose2	0.7	n/a	Yes	2.676	n/a	n/a	GoodResponse	0	n/a	n/a	9	59	Blank	AvoidedLoss	True
564.872	1.45	Lose2	0.7	n/a	Yes	2.676	n/a	5.0	GoodResponse	0	0.028	563.9	9	59	Feedback	AvoidedLoss	True
566.326	2.676	Lose2	0.7	n/a	Yes	2.676	n/a	n/a	GoodResponse	0	0.0	n/a	9	59	ISIslide	AvoidedLoss	True
569.017	0.25	Control	0.7049	0.001	Yes	2.683	0.017	n/a	GoodResponse	0	n/a	n/a	9	60	Cue	Neutral	True
569.268	4.0	Control	0.7049	0.0	Yes	2.683	0.001	n/a	GoodResponse	0	n/a	n/a	9	60	Fixation	Neutral	True
573.264	0.27	Control	0.7049	0.003	Yes	2.683	-0.003	2.0	GoodResponse	0	0.187	572.451	9	60	Target	Neutral	True
573.451	0.3	Control	0.7049	0.003	Yes	2.683	-0.003	2.0	GoodResponse	0	0.187	n/a	9	60	ButtonPress	Neutral	True
573.548	0.43	Control	0.7049	n/a	Yes	2.683	n/a	n/a	GoodResponse	0	n/a	n/a	9	60	Blank	Neutral	True
573.966	1.45	Control	0.7049	n/a	Yes	2.683	n/a	5.0	GoodResponse	0	0.007	572.973	9	60	Feedback	Neutral	True
575.42	2.683	Control	0.7049	n/a	Yes	2.683	n/a	n/a	GoodResponse	0	0.0	n/a	9	60	ISIslide	Neutral	True
578.128	0.25	Lose2	0.7097	0.0	Yes	2.972	0.028	n/a	GoodResponse	0	n/a	n/a	9	61	Cue	AvoidedLoss	True
578.379	4.0	Lose2	0.7097	0.0	Yes	2.972	0.001	n/a	GoodResponse	0	n/a	n/a	9	61	Fixation	AvoidedLoss	True
582.374	0.26	Lose2	0.7097	0.004	Yes	2.972	-0.004	2.0	GoodResponse	0	0.213	581.587	9	61	Target	AvoidedLoss	True
582.587	0.3	Lose2	0.7097	0.004	Yes	2.972	-0.004	2.0	GoodResponse	0	0.213	n/a	9	61	ButtonPress	AvoidedLoss	True
582.642	0.44	Lose2	0.7097	n/a	Yes	2.972	n/a	n/a	GoodResponse	0	n/a	n/a	9	61	Blank	AvoidedLoss	True
583.076	1.45	Lose2	0.7097	n/a	Yes	2.972	n/a	5.0	GoodResponse	0	0.019	582.095	9	61	Feedback	AvoidedLoss	True
584.531	2.972	Lose2	0.7097	n/a	Yes	2.972	n/a	n/a	GoodResponse	0	0.0	n/a	9	61	ISIslide	AvoidedLoss	True
587.523	0.25	Lose2	0.6984	0.0	No	2.877	0.023	n/a	NoResponse	-1	n/a	n/a	8	62	Cue	Loss	True
587.774	3.9	Lose2	0.6984	0.0	No	2.877	0.001	n/a	NoResponse	-1	n/a	n/a	8	62	Fixation	Loss	True
591.669	0.25	Lose2	0.6984	0.004	No	2.877	-0.004	2.0	NoResponse	-1	0.333	591.002	8	62	Target	Loss	True
591.92	0.45	Lose2	0.6984	n/a	No	2.877	n/a	n/a	NoResponse	-1	n/a	n/a	8	62	Blank	Loss	True
592.002	0.3	Lose2	0.6984	0.004	No	2.877	-0.004	2.0	NoResponse	-1	0.333	n/a	8	62	ButtonPress	Loss	True
592.371	1.45	Lose2	0.6984	n/a	No	2.877	n/a	5.0	NoResponse	-1	0.042	591.413	8	62	Feedback	Loss	True
593.825	2.877	Lose2	0.6984	n/a	No	2.877	n/a	n/a	NoResponse	-1	0.0	n/a	8	62	ISIslide	Loss	True
596.717	0.25	Lose2	0.7031000000000001	0.0	Yes	2.633	0.017	n/a	GoodResponse	0	n/a	n/a	8	63	Cue	AvoidedLoss	True
596.968	4.05	Lose2	0.7031000000000001	0.0	Yes	2.633	0.001	n/a	GoodResponse	0	n/a	n/a	8	63	Fixation	AvoidedLoss	True
601.013	0.24	Lose2	0.7031000000000001	0.004	Yes	2.633	-0.004	2.0	GoodResponse	0	0.176	600.189	8	63	Target	AvoidedLoss	True
601.189	0.3	Lose2	0.7031000000000001	0.004	Yes	2.633	-0.004	2.0	GoodResponse	0	0.176	n/a	8	63	ButtonPress	AvoidedLoss	True
601.264	0.46	Lose2	0.7031000000000001	n/a	Yes	2.633	n/a	n/a	GoodResponse	0	n/a	n/a	8	63	Blank	AvoidedLoss	True
601.716	1.45	Lose2	0.7031000000000001	n/a	Yes	2.633	n/a	5.0	GoodResponse	0	0.014	600.73	8	63	Feedback	AvoidedLoss	True
603.17	2.633	Lose2	0.7031000000000001	n/a	Yes	2.633	n/a	n/a	GoodResponse	0	0.0	n/a	8	63	ISIslide	AvoidedLoss	True
605.828	0.25	Win2	0.7077	0.0	Yes	3.122	0.028	n/a	GoodResponse	1	n/a	n/a	9	64	Cue	Win	True
606.079	4.15	Win2	0.7077	0.0	Yes	3.122	0.001	n/a	GoodResponse	1	n/a	n/a	9	64	Fixation	Win	True
610.224	0.23	Win2	0.7077	0.004	Yes	3.122	-0.004	2.0	GoodResponse	1	0.152	609.376	9	64	Target	Win	True
610.376	0.3	Win2	0.7077	0.004	Yes	3.122	-0.004	2.0	GoodResponse	1	0.152	n/a	9	64	ButtonPress	Win	True
610.458	0.47	Win2	0.7077	n/a	Yes	3.122	n/a	n/a	GoodResponse	1	n/a	n/a	9	64	Blank	Win	True
610.927	1.45	Win2	0.7077	n/a	Yes	3.122	n/a	5.0	GoodResponse	1	0.022	609.949	9	64	Feedback	Win	True
612.381	3.122	Win2	0.7077	n/a	Yes	3.122	n/a	n/a	GoodResponse	1	0.0	n/a	9	64	ISIslide	Win	True
615.524	0.25	Control	0.6970000000000001	0.0	No	2.776	0.024	n/a	NoResponse	0	n/a	n/a	9	65	Cue	Neutral	True
615.774	4.0	Control	0.6970000000000001	0.0	No	2.776	0.0	n/a	NoResponse	0	n/a	n/a	9	65	Fixation	Neutral	True
619.77	0.22	Control	0.6970000000000001	0.004	No	2.776	-0.004	2.0	NoResponse	0	0.42	619.19	9	65	Target	Neutral	True
620.004	0.48	Control	0.6970000000000001	n/a	No	2.776	n/a	n/a	NoResponse	0	n/a	n/a	9	65	Blank	Neutral	True
620.19	0.3	Control	0.6970000000000001	0.004	No	2.776	-0.004	2.0	NoResponse	0	0.42	n/a	9	65	ButtonPress	Neutral	True
620.472	1.45	Control	0.6970000000000001	n/a	No	2.776	n/a	5.0	NoResponse	0	0.039	619.511	9	65	Feedback	Neutral	True
621.926	2.776	Control	0.6970000000000001	n/a	No	2.776	n/a	n/a	NoResponse	0	0.0	n/a	9	65	ISIslide	Neutral	True
624.718	0.25	Win2	0.7015	0.0	Yes	2.782	0.018	n/a	GoodResponse	1	n/a	n/a	10	66	Cue	Win	True
624.969	3.9	Win2	0.7015	0.0	Yes	2.782	0.001	n/a	GoodResponse	1	n/a	n/a	10	66	Fixation	Win	True
628.864	0.21	Win2	0.7015	0.004	Yes	2.782	-0.004	2.0	GoodResponse	1	0.186	628.05	10	66	Target	Win	True
629.05	0.3	Win2	0.7015	0.004	Yes	2.782	-0.004	2.0	GoodResponse	1	0.186	n/a	10	66	ButtonPress	Win	True
629.081	0.49	Win2	0.7015	n/a	Yes	2.782	n/a	n/a	GoodResponse	1	n/a	n/a	10	66	Blank	Win	True
629.566	1.45	Win2	0.7015	n/a	Yes	2.782	n/a	5.0	GoodResponse	1	0.018	628.584	10	66	Feedback	Win	True
631.02	2.782	Win2	0.7015	n/a	Yes	2.782	n/a	n/a	GoodResponse	1	0.0	n/a	10	66	ISIslide	Win	True
633.829	0.25	Control	0.6912	0.0	No	2.721	0.029	n/a	NoResponse	0	n/a	n/a	10	67	Cue	Neutral	True
634.079	3.95	Control	0.6912	0.0	No	2.721	0.0	n/a	NoResponse	0	n/a	n/a	10	67	Fixation	Neutral	True
638.041	0.2	Control	0.6912	0.0	No	2.721	0.012	2.0	NoResponse	0	0.364	637.405	10	67	Target	Neutral	True
638.225	0.5	Control	0.6912	n/a	No	2.721	n/a	n/a	NoResponse	0	n/a	n/a	10	67	Blank	Neutral	True
638.405	0.3	Control	0.6912	0.0	No	2.721	0.012	2.0	NoResponse	0	0.364	n/a	10	67	ButtonPress	Neutral	True
638.727	1.45	Control	0.6912	n/a	No	2.721	n/a	5.0	NoResponse	0	0.027	637.754	10	67	Feedback	Neutral	True
640.181	2.721	Control	0.6912	n/a	No	2.721	n/a	n/a	NoResponse	0	0.0	n/a	10	67	ISIslide	Neutral	True
642.923	0.25	Win2	0.6957	0.0	Yes	3.077	0.023	n/a	GoodResponse	1	n/a	n/a	11	68	Cue	Win	False
643.173	4.0	Win2	0.6957	0.0	Yes	3.077	0.0	2.0	GoodResponse	1	0.319	642.492	11	68	Fixation	Win	False
643.492	0.3	Win2	0.6957	0.0	Yes	3.077	0.0	2.0	GoodResponse	1	0.319	n/a	11	68	ButtonPress	Win	False
647.169	0.19	Win2	0.6957	0.004	Yes	3.077	-0.004	2.0	GoodResponse	1	0.129	646.298	11	68	Target	Win	False
647.298	0.3	Win2	0.6957	0.004	Yes	3.077	-0.004	2.0	GoodResponse	1	0.129	n/a	11	68	ButtonPress	Win	False
647.369	0.51	Win2	0.6957	n/a	Yes	3.077	n/a	n/a	GoodResponse	1	n/a	n/a	11	68	Blank	Win	False
647.871	1.45	Win2	0.6957	n/a	Yes	3.077	n/a	5.0	GoodResponse	1	0.005	646.876	11	68	Feedback	Win	False
649.325	3.077	Win2	0.6957	n/a	Yes	3.077	n/a	n/a	GoodResponse	1	0.0	n/a	11	68	ISIslide	Win	False
652.418	0.25	Win2	0.6857	0.0	No	3.232	0.018	n/a	NoResponse	0	n/a	n/a	11	69	Cue	MissedWin	True
652.668	3.95	Win2	0.6857	0.0	No	3.232	0.0	n/a	NoResponse	0	n/a	n/a	11	69	Fixation	MissedWin	True
656.614	0.18	Win2	0.6857	0.004	No	3.232	-0.004	2.0	NoResponse	0	0.201	655.815	11	69	Target	MissedWin	True
656.797	0.52	Win2	0.6857	n/a	No	3.232	n/a	n/a	NoResponse	0	n/a	n/a	11	69	Blank	MissedWin	True
656.815	0.3	Win2	0.6857	0.004	No	3.232	-0.004	2.0	NoResponse	0	0.201	n/a	11	69	ButtonPress	MissedWin	True
657.316	1.45	Win2	0.6857	n/a	No	3.232	n/a	5.0	NoResponse	0	0.023	656.339	11	69	Feedback	MissedWin	True
658.77	3.232	Win2	0.6857	n/a	No	3.232	n/a	n/a	NoResponse	0	0.0	n/a	11	69	ISIslide	MissedWin	True
662.03	0.25	Lose2	0.6761	0.0	No	3.02	0.03	n/a	NoResponse	-1	n/a	n/a	10	70	Cue	Loss	True
662.281	4.05	Lose2	0.6761	0.0	No	3.02	0.001	n/a	NoResponse	-1	n/a	n/a	10	70	Fixation	Loss	True
666.326	0.17	Lose2	0.6761	0.004	No	3.02	-0.004	2.0	NoResponse	-1	0.327	665.653	10	70	Target	Loss	True
666.51	0.53	Lose2	0.6761	n/a	No	3.02	n/a	n/a	NoResponse	-1	n/a	n/a	10	70	Blank	Loss	True
666.653	0.3	Lose2	0.6761	0.004	No	3.02	-0.004	2.0	NoResponse	-1	0.327	n/a	10	70	ButtonPress	Loss	True
667.028	1.45	Lose2	0.6761	n/a	No	3.02	n/a	5.0	NoResponse	-1	0.019	666.047	10	70	Feedback	Loss	True
668.483	3.02	Lose2	0.6761	n/a	No	3.02	n/a	n/a	NoResponse	-1	0.0	n/a	10	70	ISIslide	Loss	True
671.525	0.25	Win2	0.6667000000000001	0.0	No	2.725	0.025	n/a	NoResponse	0	n/a	n/a	10	71	Cue	MissedWin	False
671.776	4.05	Win2	0.6667000000000001	0.0	No	2.725	0.001	2.0	NoResponse	0	0.19	670.966	10	71	Fixation	MissedWin	False
671.966	0.3	Win2	0.6667000000000001	0.0	No	2.725	0.001	2.0	NoResponse	0	0.19	n/a	10	71	ButtonPress	MissedWin	False
675.821	0.16	Win2	0.6667000000000001	0.004	No	2.725	-0.004	2.0	NoResponse	0	0.194	675.015	10	71	Target	MissedWin	False
675.988	0.54	Win2	0.6667000000000001	n/a	No	2.725	n/a	n/a	NoResponse	0	n/a	n/a	10	71	Blank	MissedWin	False
676.015	0.3	Win2	0.6667000000000001	0.004	No	2.725	-0.004	2.0	NoResponse	0	0.194	n/a	10	71	ButtonPress	MissedWin	False
676.523	1.45	Win2	0.6667000000000001	n/a	No	2.725	n/a	5.0	NoResponse	0	0.036	675.559	10	71	Feedback	MissedWin	False
677.978	2.725	Win2	0.6667000000000001	n/a	No	2.725	n/a	n/a	NoResponse	0	0.0	n/a	10	71	ISIslide	MissedWin	False
680.719	0.25	Win2	0.6575	0.0	No	2.781	0.019	n/a	NoResponse	0	n/a	n/a	10	72	Cue	MissedWin	False
680.97	4.1	Win2	0.6575	0.0	No	2.781	0.001	2.0	NoResponse	0	0.142	680.112	10	72	Fixation	MissedWin	False
681.112	0.3	Win2	0.6575	0.0	No	2.781	0.001	2.0	NoResponse	0	0.142	n/a	10	72	ButtonPress	MissedWin	False
685.066	0.15	Win2	0.6575	0.003	No	2.781	-0.003	2.0	NoResponse	0	0.212	684.278	10	72	Target	MissedWin	False
685.216	0.55	Win2	0.6575	n/a	No	2.781	n/a	n/a	NoResponse	0	n/a	n/a	10	72	Blank	MissedWin	False
685.278	0.3	Win2	0.6575	0.003	No	2.781	-0.003	2.0	NoResponse	0	0.212	n/a	10	72	ButtonPress	MissedWin	False
685.768	1.45	Win2	0.6575	n/a	No	2.781	n/a	5.0	NoResponse	0	0.011	684.779	10	72	Feedback	MissedWin	False
687.222	2.781	Win2	0.6575	n/a	No	2.781	n/a	n/a	NoResponse	0	0.0	n/a	10	72	ISIslide	MissedWin	False
690.014	0.25	Win2	0.6486	0.0	No	2.686	0.014	n/a	NoResponse	0	n/a	n/a	10	73	Cue	MissedWin	True
690.265	4.0	Win2	0.6486	0.0	No	2.686	0.001	n/a	NoResponse	0	n/a	n/a	10	73	Fixation	MissedWin	True
694.26	0.15	Win2	0.6486	0.004	No	2.686	-0.004	2.0	NoResponse	0	0.166	693.426	10	73	Target	MissedWin	True
694.41	0.55	Win2	0.6486	n/a	No	2.686	n/a	n/a	NoResponse	0	n/a	n/a	10	73	Blank	MissedWin	True
694.426	0.3	Win2	0.6486	0.004	No	2.686	-0.004	2.0	NoResponse	0	0.166	n/a	10	73	ButtonPress	MissedWin	True
694.962	1.45	Win2	0.6486	n/a	No	2.686	n/a	5.0	NoResponse	0	0.036	693.998	10	73	Feedback	MissedWin	True
696.416	2.686	Win2	0.6486	n/a	No	2.686	n/a	n/a	NoResponse	0	0.0	n/a	10	73	ISIslide	MissedWin	True
699.124	0.25	Lose2	0.64	0.001	No	2.626	0.024	n/a	NoResponse	-1	n/a	n/a	9	74	Cue	Loss	False
699.375	4.05	Lose2	0.64	0.0	No	2.626	0.001	2.0	NoResponse	-1	3.878	702.253	9	74	Fixation	Loss	False
703.253	0.3	Lose2	0.64	0.0	No	2.626	0.001	2.0	NoResponse	-1	3.878	n/a	9	74	ButtonPress	Loss	False
703.421	0.16	Lose2	0.64	0.003	No	2.626	-0.003	2.0	NoResponse	-1	0.223	702.644	9	74	Target	Loss	False
703.588	0.54	Lose2	0.64	n/a	No	2.626	n/a	n/a	NoResponse	-1	n/a	n/a	9	74	Blank	Loss	False
703.644	0.3	Lose2	0.64	0.003	No	2.626	-0.003	2.0	NoResponse	-1	0.223	n/a	9	74	ButtonPress	Loss	False
704.123	1.45	Lose2	0.64	n/a	No	2.626	n/a	5.0	NoResponse	-1	0.046	703.169	9	74	Feedback	Loss	False
705.577	2.626	Lose2	0.64	n/a	No	2.626	n/a	n/a	NoResponse	-1	0.0	n/a	9	74	ISIslide	Loss	False
708.218	0.25	Lose2	0.6315999999999999	0.0	No	2.932	0.018	n/a	NoResponse	-1	n/a	n/a	8	75	Cue	Loss	True
708.469	3.95	Lose2	0.6315999999999999	0.0	No	2.932	0.001	n/a	NoResponse	-1	n/a	n/a	8	75	Fixation	Loss	True
712.414	0.17	Lose2	0.6315999999999999	0.004	No	2.932	-0.004	2.0	NoResponse	-1	0.19	711.604	8	75	Target	Loss	True
712.598	0.53	Lose2	0.6315999999999999	n/a	No	2.932	n/a	n/a	NoResponse	-1	n/a	n/a	8	75	Blank	Loss	True
712.604	0.3	Lose2	0.6315999999999999	0.004	No	2.932	-0.004	2.0	NoResponse	-1	0.19	n/a	8	75	ButtonPress	Loss	True
713.116	1.45	Lose2	0.6315999999999999	n/a	No	2.932	n/a	5.0	NoResponse	-1	0.028	712.144	8	75	Feedback	Loss	True
714.571	2.932	Lose2	0.6315999999999999	n/a	No	2.932	n/a	n/a	NoResponse	-1	0.0	n/a	8	75	ISIslide	Loss	True
717.53	0.25	Control	0.6364	0.0	Yes	3.22	0.03	n/a	GoodResponse	0	n/a	n/a	8	76	Cue	Neutral	True
717.78	4.05	Control	0.6364	0.0	Yes	3.22	0.0	n/a	GoodResponse	0	n/a	n/a	8	76	Fixation	Neutral	True
721.826	0.18	Control	0.6364	0.004	Yes	3.22	-0.004	2.0	GoodResponse	0	0.124	720.95	8	76	Target	Neutral	True
721.95	0.3	Control	0.6364	0.004	Yes	3.22	-0.004	2.0	GoodResponse	0	0.124	n/a	8	76	ButtonPress	Neutral	True
722.01	0.52	Control	0.6364	n/a	Yes	3.22	n/a	n/a	GoodResponse	0	n/a	n/a	8	76	Blank	Neutral	True
722.528	1.45	Control	0.6364	n/a	Yes	3.22	n/a	5.0	GoodResponse	0	0.03	721.558	8	76	Feedback	Neutral	True
723.982	3.22	Control	0.6364	n/a	Yes	3.22	n/a	n/a	GoodResponse	0	0.0	n/a	8	76	ISIslide	Neutral	True
727.225	0.25	Lose2	0.6409999999999999	0.0	Yes	2.575	0.025	n/a	GoodResponse	0	n/a	n/a	8	77	Cue	AvoidedLoss	False
727.476	3.95	Lose2	0.6409999999999999	0.0	Yes	2.575	0.001	2.0	GoodResponse	0	0.328	726.804	8	77	Fixation	AvoidedLoss	False
727.804	0.3	Lose2	0.6409999999999999	0.0	Yes	2.575	0.001	2.0	GoodResponse	0	0.328	n/a	8	77	ButtonPress	AvoidedLoss	False
731.421	0.19	Lose2	0.6409999999999999	0.004	Yes	2.575	-0.004	2.0	GoodResponse	0	0.174	730.595	8	77	Target	AvoidedLoss	False
731.595	0.3	Lose2	0.6409999999999999	0.004	Yes	2.575	-0.004	2.0	GoodResponse	0	0.174	n/a	8	77	ButtonPress	AvoidedLoss	False
731.622	0.51	Lose2	0.6409999999999999	n/a	Yes	2.575	n/a	n/a	GoodResponse	0	n/a	n/a	8	77	Blank	AvoidedLoss	False
732.123	1.45	Lose2	0.6409999999999999	n/a	Yes	2.575	n/a	5.0	GoodResponse	0	0.045	731.168	8	77	Feedback	AvoidedLoss	False
733.578	2.575	Lose2	0.6409999999999999	n/a	Yes	2.575	n/a	n/a	GoodResponse	0	0.0	n/a	8	77	ISIslide	AvoidedLoss	False
