onset	duration	cue_type	current_mean_accuracy	duration_error	is_hit	isi_adjusted	onset_delay	response	response_type	reward	rt	rt_time	total_reward	trial_number	trial_phase	trial_type	one_press
11.112	0.25	Control	1.0	0.0	Yes	2.938	0.012	n/a	GoodResponse	0	n/a	n/a	0	0	Cue	Neutral	True
11.362	3.85	Control	1.0	0.0	Yes	2.938	0.0	n/a	GoodResponse	0	n/a	n/a	0	0	Fixation	Neutral	True
15.211	0.4	Control	1.0	0.001	Yes	2.938	-0.001	3.0	GoodResponse	0	0.313	14.524	0	0	Target	Neutral	True
15.524	0.3	Control	1.0	0.001	Yes	2.938	-0.001	3.0	GoodResponse	0	0.313	n/a	0	0	ButtonPress	Neutral	True
15.61	0.3	Control	1.0	n/a	Yes	2.938	n/a	n/a	GoodResponse	0	n/a	n/a	0	0	Blank	Neutral	True
15.91	1.45	Control	1.0	n/a	Yes	2.938	n/a	5.0	GoodResponse	0	0.017	14.927	0	0	Feedback	Neutral	True
17.36	2.938	Control	1.0	n/a	Yes	2.938	n/a	n/a	GoodResponse	0	0.0	n/a	0	0	ISIslide	Neutral	True
20.325	0.25	Lose2	1.0	0.001	Yes	2.775	0.025	n/a	GoodResponse	0	n/a	n/a	0	1	Cue	AvoidedLoss	True
20.575	4.0	Lose2	1.0	0.0	Yes	2.775	0.0	n/a	GoodResponse	0	n/a	n/a	0	1	Fixation	AvoidedLoss	True
24.574	0.39	Lose2	1.0	0.001	Yes	2.775	-0.001	3.0	GoodResponse	0	0.213	23.787	0	1	Target	AvoidedLoss	True
24.787	0.3	Lose2	1.0	0.001	Yes	2.775	-0.001	3.0	GoodResponse	0	0.213	n/a	0	1	ButtonPress	AvoidedLoss	True
24.974	0.31	Lose2	1.0	n/a	Yes	2.775	n/a	n/a	GoodResponse	0	n/a	n/a	0	1	Blank	AvoidedLoss	True
25.274	1.45	Lose2	1.0	n/a	Yes	2.775	n/a	5.0	GoodResponse	0	0.018	24.292	0	1	Feedback	AvoidedLoss	True
26.723	2.775	Lose2	1.0	n/a	Yes	2.775	n/a	n/a	GoodResponse	0	0.0	n/a	0	1	ISIslide	AvoidedLoss	True
29.522	0.25	Control	1.0	0.0	Yes	2.578	0.022	n/a	GoodResponse	0	n/a	n/a	0	2	Cue	Neutral	True
29.772	4.1	Control	1.0	0.0	Yes	2.578	0.0	n/a	GoodResponse	0	n/a	n/a	0	2	Fixation	Neutral	True
33.871	0.38	Control	1.0	0.001	Yes	2.578	-0.001	3.0	GoodResponse	0	0.232	33.103	0	2	Target	Neutral	True
34.103	0.3	Control	1.0	0.001	Yes	2.578	-0.001	3.0	GoodResponse	0	0.232	n/a	0	2	ButtonPress	Neutral	True
34.254	0.32	Control	1.0	n/a	Yes	2.578	n/a	n/a	GoodResponse	0	n/a	n/a	0	2	Blank	Neutral	True
34.571	1.45	Control	1.0	n/a	Yes	2.578	n/a	5.0	GoodResponse	0	0.038	33.609	0	2	Feedback	Neutral	True
36.02	2.578	Control	1.0	n/a	Yes	2.578	n/a	n/a	GoodResponse	0	0.0	n/a	0	2	ISIslide	Neutral	True
38.619	0.25	Win2	1.0	0.0	Yes	2.831	0.019	n/a	GoodResponse	1	n/a	n/a	1	3	Cue	Win	True
38.869	3.95	Win2	1.0	0.0	Yes	2.831	0.0	n/a	GoodResponse	1	n/a	n/a	1	3	Fixation	Win	True
42.818	0.37	Win2	1.0	0.001	Yes	2.831	-0.001	3.0	GoodResponse	1	0.214	42.032	1	3	Target	Win	True
43.032	0.3	Win2	1.0	0.001	Yes	2.831	-0.001	3.0	GoodResponse	1	0.214	n/a	1	3	ButtonPress	Win	True
43.201	0.33	Win2	1.0	n/a	Yes	2.831	n/a	n/a	GoodResponse	1	n/a	n/a	1	3	Blank	Win	True
43.517	1.45	Win2	1.0	n/a	Yes	2.831	n/a	5.0	GoodResponse	1	0.019	42.536	1	3	Feedback	Win	True
44.967	2.831	Win2	1.0	n/a	Yes	2.831	n/a	n/a	GoodResponse	1	0.0	n/a	1	3	ISIslide	Win	True
47.816	0.25	Win2	1.0	0.0	Yes	3.284	0.016	n/a	GoodResponse	1	n/a	n/a	2	4	Cue	Win	True
48.066	4.0	Win2	1.0	0.0	Yes	3.284	0.0	n/a	GoodResponse	1	n/a	n/a	2	4	Fixation	Win	True
52.064	0.36	Win2	1.0	0.002	Yes	3.284	-0.002	3.0	GoodResponse	1	0.249	51.313	2	4	Target	Win	True
52.313	0.3	Win2	1.0	0.002	Yes	3.284	-0.002	3.0	GoodResponse	1	0.249	n/a	2	4	ButtonPress	Win	True
52.431	0.34	Win2	1.0	n/a	Yes	3.284	n/a	n/a	GoodResponse	1	n/a	n/a	2	4	Blank	Win	True
52.764	1.45	Win2	1.0	n/a	Yes	3.284	n/a	5.0	GoodResponse	1	0.04	51.804	2	4	Feedback	Win	True
54.214	3.284	Win2	1.0	n/a	Yes	3.284	n/a	n/a	GoodResponse	1	0.0	n/a	2	4	ISIslide	Win	True
57.513	0.25	Win2	1.0	0.0	Yes	2.787	0.013	n/a	GoodResponse	1	n/a	n/a	3	5	Cue	Win	True
57.762	4.0	Win2	1.0	0.001	Yes	2.787	-0.001	n/a	GoodResponse	1	n/a	n/a	3	5	Fixation	Win	True
61.761	0.35	Win2	1.0	0.002	Yes	2.787	-0.002	3.0	GoodResponse	1	0.223	60.984	3	5	Target	Win	True
61.984	0.3	Win2	1.0	0.002	Yes	2.787	-0.002	3.0	GoodResponse	1	0.223	n/a	3	5	ButtonPress	Win	True
62.111	0.35	Win2	1.0	n/a	Yes	2.787	n/a	n/a	GoodResponse	1	n/a	n/a	3	5	Blank	Win	True
62.461	1.45	Win2	1.0	n/a	Yes	2.787	n/a	5.0	GoodResponse	1	0.002	61.463	3	5	Feedback	Win	True
63.91	2.787	Win2	1.0	n/a	Yes	2.787	n/a	n/a	GoodResponse	1	0.0	n/a	3	5	ISIslide	Win	True
66.726	0.25	Lose2	1.0	0.0	Yes	2.724	0.026	n/a	GoodResponse	0	n/a	n/a	3	6	Cue	AvoidedLoss	True
66.976	3.95	Lose2	1.0	0.0	Yes	2.724	0.0	n/a	GoodResponse	0	n/a	n/a	3	6	Fixation	AvoidedLoss	True
70.925	0.34	Lose2	1.0	0.001	Yes	2.724	-0.001	3.0	GoodResponse	0	0.231	70.156	3	6	Target	AvoidedLoss	True
71.156	0.3	Lose2	1.0	0.001	Yes	2.724	-0.001	3.0	GoodResponse	0	0.231	n/a	3	6	ButtonPress	AvoidedLoss	True
71.274	0.36	Lose2	1.0	n/a	Yes	2.724	n/a	n/a	GoodResponse	0	n/a	n/a	3	6	Blank	AvoidedLoss	True
71.624	1.45	Lose2	1.0	n/a	Yes	2.724	n/a	5.0	GoodResponse	0	0.01	70.634	3	6	Feedback	AvoidedLoss	True
73.074	2.724	Lose2	1.0	n/a	Yes	2.724	n/a	n/a	GoodResponse	0	0.0	n/a	3	6	ISIslide	AvoidedLoss	True
75.823	0.25	Lose2	1.0	0.0	Yes	4.027	0.023	n/a	GoodResponse	0	n/a	n/a	3	7	Cue	AvoidedLoss	True
76.073	4.05	Lose2	1.0	0.0	Yes	4.027	0.0	n/a	GoodResponse	0	n/a	n/a	3	7	Fixation	AvoidedLoss	True
80.121	0.33	Lose2	1.0	0.002	Yes	4.027	-0.002	3.0	GoodResponse	0	0.218	79.339	3	7	Target	AvoidedLoss	True
80.339	0.3	Lose2	1.0	0.002	Yes	4.027	-0.002	3.0	GoodResponse	0	0.218	n/a	3	7	ButtonPress	AvoidedLoss	True
80.455	0.37	Lose2	1.0	n/a	Yes	4.027	n/a	n/a	GoodResponse	0	n/a	n/a	3	7	Blank	AvoidedLoss	True
80.821	1.45	Lose2	1.0	n/a	Yes	4.027	n/a	5.0	GoodResponse	0	0.031	79.852	3	7	Feedback	AvoidedLoss	True
82.271	4.027	Lose2	1.0	n/a	Yes	4.027	n/a	n/a	GoodResponse	0	0.0	n/a	3	7	ISIslide	AvoidedLoss	True
86.319	0.25	Lose2	1.0	0.0	Yes	3.031	0.019	n/a	GoodResponse	0	n/a	n/a	3	8	Cue	AvoidedLoss	True
86.569	3.95	Lose2	1.0	0.0	Yes	3.031	0.0	n/a	GoodResponse	0	n/a	n/a	3	8	Fixation	AvoidedLoss	True
90.518	0.32	Lose2	1.0	0.001	Yes	3.031	-0.001	3.0	GoodResponse	0	0.213	89.731	3	8	Target	AvoidedLoss	True
90.731	0.3	Lose2	1.0	0.001	Yes	3.031	-0.001	3.0	GoodResponse	0	0.213	n/a	3	8	ButtonPress	AvoidedLoss	True
90.851	0.38	Lose2	1.0	n/a	Yes	3.031	n/a	n/a	GoodResponse	0	n/a	n/a	3	8	Blank	AvoidedLoss	True
91.217	1.45	Lose2	1.0	n/a	Yes	3.031	n/a	5.0	GoodResponse	0	0.026	90.243	3	8	Feedback	AvoidedLoss	True
92.667	3.031	Lose2	1.0	n/a	Yes	3.031	n/a	n/a	GoodResponse	0	0.0	n/a	3	8	ISIslide	AvoidedLoss	True
95.716	0.25	Lose2	1.0	0.0	Yes	3.134	0.016	n/a	GoodResponse	0	n/a	n/a	3	9	Cue	AvoidedLoss	True
95.966	3.95	Lose2	1.0	0.0	Yes	3.134	0.0	n/a	GoodResponse	0	n/a	n/a	3	9	Fixation	AvoidedLoss	True
99.914	0.31	Lose2	1.0	0.002	Yes	3.134	-0.002	3.0	GoodResponse	0	0.217	99.131	3	9	Target	AvoidedLoss	True
100.131	0.3	Lose2	1.0	0.002	Yes	3.134	-0.002	3.0	GoodResponse	0	0.217	n/a	3	9	ButtonPress	AvoidedLoss	True
100.231	0.39	Lose2	1.0	n/a	Yes	3.134	n/a	n/a	GoodResponse	0	n/a	n/a	3	9	Blank	AvoidedLoss	True
100.614	1.45	Lose2	1.0	n/a	Yes	3.134	n/a	5.0	GoodResponse	0	0.043	99.657	3	9	Feedback	AvoidedLoss	True
102.064	3.134	Lose2	1.0	n/a	Yes	3.134	n/a	n/a	GoodResponse	0	0.0	n/a	3	9	ISIslide	AvoidedLoss	True
105.229	0.25	Control	1.0	0.0	Yes	3.271	0.029	n/a	GoodResponse	0	n/a	n/a	3	10	Cue	Neutral	True
105.479	4.0	Control	1.0	0.0	Yes	3.271	0.0	n/a	GoodResponse	0	n/a	n/a	3	10	Fixation	Neutral	True
109.478	0.3	Control	1.0	0.001	Yes	3.271	-0.001	3.0	GoodResponse	0	0.163	108.641	3	10	Target	Neutral	True
109.641	0.3	Control	1.0	0.001	Yes	3.271	-0.001	3.0	GoodResponse	0	0.163	n/a	3	10	ButtonPress	Neutral	True
109.778	0.4	Control	1.0	n/a	Yes	3.271	n/a	n/a	GoodResponse	0	n/a	n/a	3	10	Blank	Neutral	True
110.177	1.45	Control	1.0	n/a	Yes	3.271	n/a	5.0	GoodResponse	0	0.042	109.219	3	10	Feedback	Neutral	True
111.627	3.271	Control	1.0	n/a	Yes	3.271	n/a	n/a	GoodResponse	0	0.0	n/a	3	10	ISIslide	Neutral	True
114.926	0.25	Lose2	0.9167000000000001	0.0	No	2.724	0.026	n/a	NoResponse	-1	n/a	n/a	2	11	Cue	Loss	True
115.176	4.05	Lose2	0.9167000000000001	0.0	No	2.724	0.0	3.0	NoResponse	-1	3.99	118.166	2	11	Fixation	Loss	True
119.166	0.3	Lose2	0.9167000000000001	0.0	No	2.724	0.0	3.0	NoResponse	-1	3.99	n/a	2	11	ButtonPress	Loss	True
119.224	0.29	Lose2	0.9167000000000001	0.002	No	2.724	-0.002	n/a	NoResponse	-1	n/a	n/a	2	11	Target	Loss	True
119.524	0.41	Lose2	0.9167000000000001	n/a	No	2.724	n/a	n/a	NoResponse	-1	n/a	n/a	2	11	Blank	Loss	True
119.924	1.45	Lose2	0.9167000000000001	n/a	No	2.724	n/a	5.0	NoResponse	-1	0.002	118.926	2	11	Feedback	Loss	True
121.374	2.724	Lose2	0.9167000000000001	n/a	No	2.724	n/a	n/a	NoResponse	-1	0.0	n/a	2	11	ISIslide	Loss	True
124.123	0.25	Control	0.8462000000000001	0.0	No	2.977	0.023	n/a	NoResponse	0	n/a	n/a	2	12	Cue	Neutral	True
124.373	3.9	Control	0.8462000000000001	0.0	No	2.977	0.0	n/a	NoResponse	0	n/a	n/a	2	12	Fixation	Neutral	True
128.271	0.28	Control	0.8462000000000001	0.002	No	2.977	-0.002	3.0	NoResponse	0	0.296	127.567	2	12	Target	Neutral	True
128.554	0.42	Control	0.8462000000000001	n/a	No	2.977	n/a	n/a	NoResponse	0	n/a	n/a	2	12	Blank	Neutral	True
128.567	0.3	Control	0.8462000000000001	0.002	No	2.977	-0.002	3.0	NoResponse	0	0.296	n/a	2	12	ButtonPress	Neutral	True
128.971	1.45	Control	0.8462000000000001	n/a	No	2.977	n/a	5.0	NoResponse	0	0.027	127.998	2	12	Feedback	Neutral	True
130.42	2.977	Control	0.8462000000000001	n/a	No	2.977	n/a	n/a	NoResponse	0	0.0	n/a	2	12	ISIslide	Neutral	True
133.419	0.25	Control	0.8571	0.0	Yes	2.781	0.019	n/a	GoodResponse	0	n/a	n/a	2	13	Cue	Neutral	True
133.669	4.0	Control	0.8571	0.0	Yes	2.781	0.0	n/a	GoodResponse	0	n/a	n/a	2	13	Fixation	Neutral	True
137.668	0.27	Control	0.8571	0.001	Yes	2.781	-0.001	3.0	GoodResponse	0	0.221	136.889	2	13	Target	Neutral	True
137.889	0.3	Control	0.8571	0.001	Yes	2.781	-0.001	3.0	GoodResponse	0	0.221	n/a	2	13	ButtonPress	Neutral	True
137.934	0.43	Control	0.8571	n/a	Yes	2.781	n/a	n/a	GoodResponse	0	n/a	n/a	2	13	Blank	Neutral	True
138.368	1.45	Control	0.8571	n/a	Yes	2.781	n/a	5.0	GoodResponse	0	0.045	137.413	2	13	Feedback	Neutral	True
139.817	2.781	Control	0.8571	n/a	Yes	2.781	n/a	n/a	GoodResponse	0	0.0	n/a	2	13	ISIslide	Neutral	True
142.616	0.25	Win2	0.8667	0.0	Yes	2.684	0.016	n/a	GoodResponse	1	n/a	n/a	3	14	Cue	Win	True
142.866	4.1	Win2	0.8667	0.0	Yes	2.684	0.0	n/a	GoodResponse	1	n/a	n/a	3	14	Fixation	Win	True
146.965	0.26	Win2	0.8667	0.001	Yes	2.684	-0.001	3.0	GoodResponse	1	0.21	146.175	3	14	Target	Win	True
147.175	0.3	Win2	0.8667	0.001	Yes	2.684	-0.001	3.0	GoodResponse	1	0.21	n/a	3	14	ButtonPress	Win	True
147.231	0.44	Win2	0.8667	n/a	Yes	2.684	n/a	n/a	GoodResponse	1	n/a	n/a	3	14	Blank	Win	True
147.664	1.45	Win2	0.8667	n/a	Yes	2.684	n/a	5.0	GoodResponse	1	0.017	146.681	3	14	Feedback	Win	True
149.114	2.684	Win2	0.8667	n/a	Yes	2.684	n/a	n/a	GoodResponse	1	0.0	n/a	3	14	ISIslide	Win	True
151.83	0.25	Control	0.875	0.0	Yes	2.97	0.03	n/a	GoodResponse	0	n/a	n/a	3	15	Cue	Neutral	True
152.08	4.0	Control	0.875	0.0	Yes	2.97	0.0	n/a	GoodResponse	0	n/a	n/a	3	15	Fixation	Neutral	True
156.078	0.25	Control	0.875	0.002	Yes	2.97	-0.002	3.0	GoodResponse	0	0.208	155.286	3	15	Target	Neutral	True
156.286	0.3	Control	0.875	0.002	Yes	2.97	-0.002	3.0	GoodResponse	0	0.208	n/a	3	15	ButtonPress	Neutral	True
156.328	0.45	Control	0.875	n/a	Yes	2.97	n/a	n/a	GoodResponse	0	n/a	n/a	3	15	Blank	Neutral	True
156.778	1.45	Control	0.875	n/a	Yes	2.97	n/a	5.0	GoodResponse	0	0.025	155.803	3	15	Feedback	Neutral	True
158.227	2.97	Control	0.875	n/a	Yes	2.97	n/a	n/a	GoodResponse	0	0.0	n/a	3	15	ISIslide	Neutral	True
161.226	0.25	Win2	0.8824	0.0	Yes	2.874	0.026	n/a	GoodResponse	1	n/a	n/a	4	16	Cue	Win	True
161.476	4.0	Win2	0.8824	0.0	Yes	2.874	0.0	n/a	GoodResponse	1	n/a	n/a	4	16	Fixation	Win	True
165.475	0.24	Win2	0.8824	0.001	Yes	2.874	-0.001	3.0	GoodResponse	1	0.205	164.68	4	16	Target	Win	True
165.68	0.3	Win2	0.8824	0.001	Yes	2.874	-0.001	3.0	GoodResponse	1	0.205	n/a	4	16	ButtonPress	Win	True
165.725	0.46	Win2	0.8824	n/a	Yes	2.874	n/a	n/a	GoodResponse	1	n/a	n/a	4	16	Blank	Win	True
166.175	1.45	Win2	0.8824	n/a	Yes	2.874	n/a	5.0	GoodResponse	1	0.043	165.218	4	16	Feedback	Win	True
167.624	2.874	Win2	0.8824	n/a	Yes	2.874	n/a	n/a	GoodResponse	1	0.0	n/a	4	16	ISIslide	Win	True
170.523	0.25	Lose2	0.8332999999999999	0.0	No	2.727	0.023	n/a	NoResponse	-1	n/a	n/a	3	17	Cue	Loss	True
170.773	3.95	Lose2	0.8332999999999999	0.0	No	2.727	0.0	n/a	NoResponse	-1	n/a	n/a	3	17	Fixation	Loss	True
174.722	0.23	Lose2	0.8332999999999999	0.001	No	2.727	-0.001	3.0	NoResponse	-1	0.258	173.98	3	17	Target	Loss	True
174.955	0.47	Lose2	0.8332999999999999	n/a	No	2.727	n/a	n/a	NoResponse	-1	n/a	n/a	3	17	Blank	Loss	True
174.98	0.3	Lose2	0.8332999999999999	0.001	No	2.727	-0.001	3.0	NoResponse	-1	0.258	n/a	3	17	ButtonPress	Loss	True
175.421	1.45	Lose2	0.8332999999999999	n/a	No	2.727	n/a	5.0	NoResponse	-1	0.016	174.437	3	17	Feedback	Loss	True
176.871	2.727	Lose2	0.8332999999999999	n/a	No	2.727	n/a	n/a	NoResponse	-1	0.0	n/a	3	17	ISIslide	Loss	True
179.62	0.25	Lose2	0.8421	0.0	Yes	2.73	0.02	n/a	GoodResponse	0	n/a	n/a	3	18	Cue	AvoidedLoss	True
179.87	4.05	Lose2	0.8421	0.0	Yes	2.73	0.0	n/a	GoodResponse	0	n/a	n/a	3	18	Fixation	AvoidedLoss	True
183.918	0.22	Lose2	0.8421	0.002	Yes	2.73	-0.002	3.0	GoodResponse	0	0.216	183.134	3	18	Target	AvoidedLoss	True
184.134	0.3	Lose2	0.8421	0.002	Yes	2.73	-0.002	3.0	GoodResponse	0	0.216	n/a	3	18	ButtonPress	AvoidedLoss	True
184.152	0.48	Lose2	0.8421	n/a	Yes	2.73	n/a	n/a	GoodResponse	0	n/a	n/a	3	18	Blank	AvoidedLoss	True
184.618	1.45	Lose2	0.8421	n/a	Yes	2.73	n/a	5.0	GoodResponse	0	0.038	183.656	3	18	Feedback	AvoidedLoss	True
186.068	2.73	Lose2	0.8421	n/a	Yes	2.73	n/a	n/a	GoodResponse	0	0.0	n/a	3	18	ISIslide	AvoidedLoss	True
188.817	0.25	Control	0.85	0.0	Yes	2.933	0.017	n/a	GoodResponse	0	n/a	n/a	3	19	Cue	Neutral	True
189.067	3.95	Control	0.85	0.0	Yes	2.933	0.0	n/a	GoodResponse	0	n/a	n/a	3	19	Fixation	Neutral	True
193.015	0.21	Control	0.85	0.002	Yes	2.933	-0.002	3.0	GoodResponse	0	0.207	192.222	3	19	Target	Neutral	True
193.222	0.3	Control	0.85	0.002	Yes	2.933	-0.002	3.0	GoodResponse	0	0.207	n/a	3	19	ButtonPress	Neutral	True
193.232	0.49	Control	0.85	n/a	Yes	2.933	n/a	n/a	GoodResponse	0	n/a	n/a	3	19	Blank	Neutral	True
193.715	1.45	Control	0.85	n/a	Yes	2.933	n/a	5.0	GoodResponse	0	0.015	192.73	3	19	Feedback	Neutral	True
195.165	2.933	Control	0.85	n/a	Yes	2.933	n/a	n/a	GoodResponse	0	0.0	n/a	3	19	ISIslide	Neutral	True
198.113	0.25	Control	0.8095	0.001	No	2.637	0.013	n/a	NoResponse	0	n/a	n/a	3	20	Cue	Neutral	True
198.363	4.05	Control	0.8095	0.0	No	2.637	0.0	n/a	NoResponse	0	n/a	n/a	3	20	Fixation	Neutral	True
202.412	0.2	Control	0.8095	0.001	No	2.637	-0.001	3.0	NoResponse	0	0.208	201.62	3	20	Target	Neutral	True
202.612	0.5	Control	0.8095	n/a	No	2.637	n/a	n/a	NoResponse	0	n/a	n/a	3	20	Blank	Neutral	True
202.62	0.3	Control	0.8095	0.001	No	2.637	-0.001	3.0	NoResponse	0	0.208	n/a	3	20	ButtonPress	Neutral	True
203.112	1.45	Control	0.8095	n/a	No	2.637	n/a	5.0	NoResponse	0	0.033	202.145	3	20	Feedback	Neutral	True
204.561	2.637	Control	0.8095	n/a	No	2.637	n/a	n/a	NoResponse	0	0.0	n/a	3	20	ISIslide	Neutral	True
207.227	0.25	Control	0.7726999999999999	0.0	No	2.773	0.027	n/a	NoResponse	0	n/a	n/a	3	21	Cue	Neutral	True
207.477	4.1	Control	0.7726999999999999	0.0	No	2.773	0.0	n/a	NoResponse	0	n/a	n/a	3	21	Fixation	Neutral	True
211.575	0.19	Control	0.7726999999999999	0.002	No	2.773	-0.002	3.0	NoResponse	0	0.229	210.804	3	21	Target	Neutral	True
211.775	0.51	Control	0.7726999999999999	n/a	No	2.773	n/a	n/a	NoResponse	0	n/a	n/a	3	21	Blank	Neutral	True
211.804	0.3	Control	0.7726999999999999	0.002	No	2.773	-0.002	3.0	NoResponse	0	0.229	n/a	3	21	ButtonPress	Neutral	True
212.275	1.45	Control	0.7726999999999999	n/a	No	2.773	n/a	5.0	NoResponse	0	0.04	211.315	3	21	Feedback	Neutral	True
213.725	2.773	Control	0.7726999999999999	n/a	No	2.773	n/a	n/a	NoResponse	0	0.0	n/a	3	21	ISIslide	Neutral	True
216.524	0.25	Control	0.7391	0.0	No	2.776	0.024	n/a	NoResponse	0	n/a	n/a	3	22	Cue	Neutral	True
216.774	4.0	Control	0.7391	0.0	No	2.776	0.0	n/a	NoResponse	0	n/a	n/a	3	22	Fixation	Neutral	True
220.772	0.18	Control	0.7391	0.002	No	2.776	-0.002	3.0	NoResponse	0	0.223	219.995	3	22	Target	Neutral	True
220.956	0.52	Control	0.7391	n/a	No	2.776	n/a	n/a	NoResponse	0	n/a	n/a	3	22	Blank	Neutral	True
220.995	0.3	Control	0.7391	0.002	No	2.776	-0.002	3.0	NoResponse	0	0.223	n/a	3	22	ButtonPress	Neutral	True
221.472	1.45	Control	0.7391	n/a	No	2.776	n/a	5.0	NoResponse	0	0.014	220.486	3	22	Feedback	Neutral	True
222.921	2.776	Control	0.7391	n/a	No	2.776	n/a	n/a	NoResponse	0	0.0	n/a	3	22	ISIslide	Neutral	True
225.721	0.25	Control	0.7082999999999999	0.0	No	2.779	0.021	n/a	NoResponse	0	n/a	n/a	3	23	Cue	Neutral	True
225.97	3.9	Control	0.7082999999999999	0.001	No	2.779	-0.001	n/a	NoResponse	0	n/a	n/a	3	23	Fixation	Neutral	True
229.869	0.17	Control	0.7082999999999999	0.002	No	2.779	-0.002	3.0	NoResponse	0	0.192	229.061	3	23	Target	Neutral	True
230.052	0.53	Control	0.7082999999999999	n/a	No	2.779	n/a	n/a	NoResponse	0	n/a	n/a	3	23	Blank	Neutral	True
230.061	0.3	Control	0.7082999999999999	0.002	No	2.779	-0.002	3.0	NoResponse	0	0.192	n/a	3	23	ButtonPress	Neutral	True
230.569	1.45	Control	0.7082999999999999	n/a	No	2.779	n/a	5.0	NoResponse	0	0.038	229.607	3	23	Feedback	Neutral	True
232.018	2.779	Control	0.7082999999999999	n/a	No	2.779	n/a	n/a	NoResponse	0	0.0	n/a	3	23	ISIslide	Neutral	True
234.817	0.25	Win2	0.68	0.0	No	3.133	0.017	n/a	NoResponse	0	n/a	n/a	3	24	Cue	MissedWin	True
235.067	3.95	Win2	0.68	0.0	No	3.133	0.0	n/a	NoResponse	0	n/a	n/a	3	24	Fixation	MissedWin	True
239.016	0.16	Win2	0.68	0.001	No	3.133	-0.001	3.0	NoResponse	0	0.219	238.235	3	24	Target	MissedWin	True
239.182	0.54	Win2	0.68	n/a	No	3.133	n/a	n/a	NoResponse	0	n/a	n/a	3	24	Blank	MissedWin	True
239.235	0.3	Win2	0.68	0.001	No	3.133	-0.001	3.0	NoResponse	0	0.219	n/a	3	24	ButtonPress	MissedWin	True
239.716	1.45	Win2	0.68	n/a	No	3.133	n/a	5.0	NoResponse	0	0.013	238.729	3	24	Feedback	MissedWin	True
241.165	3.133	Win2	0.68	n/a	No	3.133	n/a	n/a	NoResponse	0	0.0	n/a	3	24	ISIslide	MissedWin	True
244.314	0.25	Win2	0.6537999999999999	0.0	No	3.086	0.014	n/a	NoResponse	0	n/a	n/a	3	25	Cue	MissedWin	True
244.564	4.0	Win2	0.6537999999999999	0.0	No	3.086	0.0	n/a	NoResponse	0	n/a	n/a	3	25	Fixation	MissedWin	True
248.563	0.15	Win2	0.6537999999999999	0.001	No	3.086	-0.001	3.0	NoResponse	0	0.203	247.766	3	25	Target	MissedWin	True
248.712	0.55	Win2	0.6537999999999999	n/a	No	3.086	n/a	n/a	NoResponse	0	n/a	n/a	3	25	Blank	MissedWin	True
248.766	0.3	Win2	0.6537999999999999	0.001	No	3.086	-0.001	3.0	NoResponse	0	0.203	n/a	3	25	ButtonPress	MissedWin	True
249.262	1.45	Win2	0.6537999999999999	n/a	No	3.086	n/a	5.0	NoResponse	0	0.028	248.29	3	25	Feedback	MissedWin	True
250.712	3.086	Win2	0.6537999999999999	n/a	No	3.086	n/a	n/a	NoResponse	0	0.0	n/a	3	25	ISIslide	MissedWin	True
253.827	0.25	Win2	0.6296	0.0	No	2.923	0.027	n/a	NoResponse	0	n/a	n/a	3	26	Cue	MissedWin	True
254.077	3.95	Win2	0.6296	0.0	No	2.923	0.0	n/a	NoResponse	0	n/a	n/a	3	26	Fixation	MissedWin	True
258.026	0.16	Win2	0.6296	0.001	No	2.923	-0.001	3.0	NoResponse	0	0.21	257.236	3	26	Target	MissedWin	True
258.193	0.54	Win2	0.6296	n/a	No	2.923	n/a	n/a	NoResponse	0	n/a	n/a	3	26	Blank	MissedWin	True
258.236	0.3	Win2	0.6296	0.001	No	2.923	-0.001	3.0	NoResponse	0	0.21	n/a	3	26	ButtonPress	MissedWin	True
258.726	1.45	Win2	0.6296	n/a	No	2.923	n/a	5.0	NoResponse	0	0.028	257.754	3	26	Feedback	MissedWin	True
260.175	2.923	Win2	0.6296	n/a	No	2.923	n/a	n/a	NoResponse	0	0.0	n/a	3	26	ISIslide	MissedWin	True
263.124	0.25	Lose2	0.6429	0.0	Yes	2.826	0.024	n/a	GoodResponse	0	n/a	n/a	3	27	Cue	AvoidedLoss	True
263.374	4.05	Lose2	0.6429	0.0	Yes	2.826	0.0	n/a	GoodResponse	0	n/a	n/a	3	27	Fixation	AvoidedLoss	True
267.423	0.17	Lose2	0.6429	0.001	Yes	2.826	-0.001	3.0	GoodResponse	0	0.165	266.588	3	27	Target	AvoidedLoss	True
267.588	0.3	Lose2	0.6429	0.001	Yes	2.826	-0.001	3.0	GoodResponse	0	0.165	n/a	3	27	ButtonPress	AvoidedLoss	True
267.606	0.53	Lose2	0.6429	n/a	Yes	2.826	n/a	n/a	GoodResponse	0	n/a	n/a	3	27	Blank	AvoidedLoss	True
268.122	1.45	Lose2	0.6429	n/a	Yes	2.826	n/a	5.0	GoodResponse	0	0.047	267.169	3	27	Feedback	AvoidedLoss	True
269.572	2.826	Lose2	0.6429	n/a	Yes	2.826	n/a	n/a	GoodResponse	0	0.0	n/a	3	27	ISIslide	AvoidedLoss	True
272.421	0.25	Control	0.6207	0.0	No	2.829	0.021	n/a	NoResponse	0	n/a	n/a	3	28	Cue	Neutral	True
272.671	4.05	Control	0.6207	0.0	No	2.829	0.0	n/a	NoResponse	0	n/a	n/a	3	28	Fixation	Neutral	True
276.719	0.18	Control	0.6207	0.002	No	2.829	-0.002	3.0	NoResponse	0	0.205	275.924	3	28	Target	Neutral	True
276.903	0.52	Control	0.6207	n/a	No	2.829	n/a	n/a	NoResponse	0	n/a	n/a	3	28	Blank	Neutral	True
276.924	0.3	Control	0.6207	0.002	No	2.829	-0.002	3.0	NoResponse	0	0.205	n/a	3	28	ButtonPress	Neutral	True
277.419	1.45	Control	0.6207	n/a	No	2.829	n/a	5.0	NoResponse	0	0.017	276.436	3	28	Feedback	Neutral	True
278.869	2.829	Control	0.6207	n/a	No	2.829	n/a	n/a	NoResponse	0	0.0	n/a	3	28	ISIslide	Neutral	True
281.718	0.25	Lose2	0.6	0.0	No	2.832	0.018	n/a	NoResponse	-1	n/a	n/a	2	29	Cue	Loss	True
281.968	3.95	Lose2	0.6	0.0	No	2.832	0.0	n/a	NoResponse	-1	n/a	n/a	2	29	Fixation	Loss	True
285.916	0.19	Lose2	0.6	0.002	No	2.832	-0.002	3.0	NoResponse	-1	0.332	285.248	2	29	Target	Loss	True
286.116	0.51	Lose2	0.6	n/a	No	2.832	n/a	n/a	NoResponse	-1	n/a	n/a	2	29	Blank	Loss	True
286.248	0.3	Lose2	0.6	0.002	No	2.832	-0.002	3.0	NoResponse	-1	0.332	n/a	2	29	ButtonPress	Loss	True
286.616	1.45	Lose2	0.6	n/a	No	2.832	n/a	5.0	NoResponse	-1	0.04	285.656	2	29	Feedback	Loss	True
288.065	2.832	Lose2	0.6	n/a	No	2.832	n/a	n/a	NoResponse	-1	0.0	n/a	2	29	ISIslide	Loss	True
290.914	0.25	Win2	0.5806	0.001	No	2.786	0.014	n/a	NoResponse	0	n/a	n/a	2	30	Cue	MissedWin	True
291.164	3.9	Win2	0.5806	0.0	No	2.786	0.0	n/a	NoResponse	0	n/a	n/a	2	30	Fixation	MissedWin	True
295.063	0.2	Win2	0.5806	0.001	No	2.786	-0.001	3.0	NoResponse	0	0.227	294.29	2	30	Target	MissedWin	True
295.263	0.5	Win2	0.5806	n/a	No	2.786	n/a	n/a	NoResponse	0	n/a	n/a	2	30	Blank	MissedWin	True
295.29	0.3	Win2	0.5806	0.001	No	2.786	-0.001	3.0	NoResponse	0	0.227	n/a	2	30	ButtonPress	MissedWin	True
295.763	1.45	Win2	0.5806	n/a	No	2.786	n/a	5.0	NoResponse	0	0.015	294.778	2	30	Feedback	MissedWin	True
297.212	2.786	Win2	0.5806	n/a	No	2.786	n/a	n/a	NoResponse	0	0.0	n/a	2	30	ISIslide	MissedWin	True
300.028	0.25	Lose2	0.5938	0.0	Yes	2.822	0.028	n/a	GoodResponse	0	n/a	n/a	2	31	Cue	AvoidedLoss	True
300.278	4.05	Lose2	0.5938	0.0	Yes	2.822	0.0	n/a	GoodResponse	0	n/a	n/a	2	31	Fixation	AvoidedLoss	True
304.326	0.21	Lose2	0.5938	0.002	Yes	2.822	-0.002	3.0	GoodResponse	0	0.201	303.527	2	31	Target	AvoidedLoss	True
304.527	0.3	Lose2	0.5938	0.002	Yes	2.822	-0.002	3.0	GoodResponse	0	0.201	n/a	2	31	ButtonPress	AvoidedLoss	True
304.543	0.49	Lose2	0.5938	n/a	Yes	2.822	n/a	n/a	GoodResponse	0	n/a	n/a	2	31	Blank	AvoidedLoss	True
305.026	1.45	Lose2	0.5938	n/a	Yes	2.822	n/a	5.0	GoodResponse	0	0.02	304.046	2	31	Feedback	AvoidedLoss	True
306.476	2.822	Lose2	0.5938	n/a	Yes	2.822	n/a	n/a	GoodResponse	0	0.0	n/a	2	31	ISIslide	AvoidedLoss	True
309.325	0.25	Lose2	0.5758	0.0	No	2.625	0.025	n/a	NoResponse	-1	n/a	n/a	1	32	Cue	Loss	True
309.575	4.15	Lose2	0.5758	0.0	No	2.625	0.0	n/a	NoResponse	-1	n/a	n/a	1	32	Fixation	Loss	True
313.723	0.22	Lose2	0.5758	0.002	No	2.625	-0.002	3.0	NoResponse	-1	0.26	312.983	1	32	Target	Loss	True
313.956	0.48	Lose2	0.5758	n/a	No	2.625	n/a	n/a	NoResponse	-1	n/a	n/a	1	32	Blank	Loss	True
313.983	0.3	Lose2	0.5758	0.002	No	2.625	-0.002	3.0	NoResponse	-1	0.26	n/a	1	32	ButtonPress	Loss	True
314.423	1.45	Lose2	0.5758	n/a	No	2.625	n/a	5.0	NoResponse	-1	0.038	313.461	1	32	Feedback	Loss	True
315.872	2.625	Lose2	0.5758	n/a	No	2.625	n/a	n/a	NoResponse	-1	0.0	n/a	1	32	ISIslide	Loss	True
318.521	0.25	Win2	0.5882000000000001	0.001	Yes	2.679	0.021	n/a	GoodResponse	1	n/a	n/a	2	33	Cue	Win	True
318.771	4.0	Win2	0.5882000000000001	0.0	Yes	2.679	0.0	n/a	GoodResponse	1	n/a	n/a	2	33	Fixation	Win	True
322.77	0.23	Win2	0.5882000000000001	0.001	Yes	2.679	-0.001	3.0	GoodResponse	1	0.165	321.935	2	33	Target	Win	True
322.935	0.3	Win2	0.5882000000000001	0.001	Yes	2.679	-0.001	3.0	GoodResponse	1	0.165	n/a	2	33	ButtonPress	Win	True
323.003	0.47	Win2	0.5882000000000001	n/a	Yes	2.679	n/a	n/a	GoodResponse	1	n/a	n/a	2	33	Blank	Win	True
323.47	1.45	Win2	0.5882000000000001	n/a	Yes	2.679	n/a	5.0	GoodResponse	1	0.016	322.486	2	33	Feedback	Win	True
324.919	2.679	Win2	0.5882000000000001	n/a	Yes	2.679	n/a	n/a	GoodResponse	1	0.0	n/a	2	33	ISIslide	Win	True
327.618	0.25	Lose2	0.6	0.0	Yes	2.632	0.018	n/a	GoodResponse	0	n/a	n/a	2	34	Cue	AvoidedLoss	True
327.868	4.05	Lose2	0.6	0.0	Yes	2.632	0.0	n/a	GoodResponse	0	n/a	n/a	2	34	Fixation	AvoidedLoss	True
331.917	0.24	Lose2	0.6	0.001	Yes	2.632	-0.001	3.0	GoodResponse	0	0.232	331.149	2	34	Target	AvoidedLoss	True
332.149	0.3	Lose2	0.6	0.001	Yes	2.632	-0.001	3.0	GoodResponse	0	0.232	n/a	2	34	ButtonPress	AvoidedLoss	True
332.167	0.46	Lose2	0.6	n/a	Yes	2.632	n/a	n/a	GoodResponse	0	n/a	n/a	2	34	Blank	AvoidedLoss	True
332.617	1.45	Lose2	0.6	n/a	Yes	2.632	n/a	5.0	GoodResponse	0	0.038	331.655	2	34	Feedback	AvoidedLoss	True
334.066	2.632	Lose2	0.6	n/a	Yes	2.632	n/a	n/a	GoodResponse	0	0.0	n/a	2	34	ISIslide	AvoidedLoss	True
336.715	0.25	Lose2	0.6111	0.0	Yes	2.685	0.015	n/a	GoodResponse	0	n/a	n/a	2	35	Cue	AvoidedLoss	True
336.965	4.0	Lose2	0.6111	0.0	Yes	2.685	0.0	n/a	GoodResponse	0	n/a	n/a	2	35	Fixation	AvoidedLoss	True
340.964	0.25	Lose2	0.6111	0.001	Yes	2.685	-0.001	3.0	GoodResponse	0	0.214	340.178	2	35	Target	AvoidedLoss	True
341.178	0.3	Lose2	0.6111	0.001	Yes	2.685	-0.001	3.0	GoodResponse	0	0.214	n/a	2	35	ButtonPress	AvoidedLoss	True
341.214	0.45	Lose2	0.6111	n/a	Yes	2.685	n/a	n/a	GoodResponse	0	n/a	n/a	2	35	Blank	AvoidedLoss	True
341.663	1.45	Lose2	0.6111	n/a	Yes	2.685	n/a	5.0	GoodResponse	0	0.017	340.68	2	35	Feedback	AvoidedLoss	True
343.113	2.685	Lose2	0.6111	n/a	Yes	2.685	n/a	n/a	GoodResponse	0	0.0	n/a	2	35	ISIslide	AvoidedLoss	True
345.829	0.25	Control	0.6215999999999999	0.0	Yes	2.671	0.029	n/a	GoodResponse	0	n/a	n/a	2	36	Cue	Neutral	True
346.079	4.0	Control	0.6215999999999999	0.0	Yes	2.671	0.0	n/a	GoodResponse	0	n/a	n/a	2	36	Fixation	Neutral	True
350.077	0.26	Control	0.6215999999999999	0.002	Yes	2.671	-0.002	3.0	GoodResponse	0	0.224	349.301	2	36	Target	Neutral	True
350.301	0.3	Control	0.6215999999999999	0.002	Yes	2.671	-0.002	3.0	GoodResponse	0	0.224	n/a	2	36	ButtonPress	Neutral	True
350.344	0.44	Control	0.6215999999999999	n/a	Yes	2.671	n/a	n/a	GoodResponse	0	n/a	n/a	2	36	Blank	Neutral	True
350.777	1.45	Control	0.6215999999999999	n/a	Yes	2.671	n/a	5.0	GoodResponse	0	0.025	349.802	2	36	Feedback	Neutral	True
352.226	2.671	Control	0.6215999999999999	n/a	Yes	2.671	n/a	n/a	GoodResponse	0	0.0	n/a	2	36	ISIslide	Neutral	True
354.925	0.25	Win2	0.6315999999999999	0.001	Yes	2.875	0.025	n/a	GoodResponse	1	n/a	n/a	3	37	Cue	Win	True
355.175	4.0	Win2	0.6315999999999999	0.0	Yes	2.875	0.0	n/a	GoodResponse	1	n/a	n/a	3	37	Fixation	Win	True
359.174	0.27	Win2	0.6315999999999999	0.001	Yes	2.875	-0.001	3.0	GoodResponse	1	0.17	358.344	3	37	Target	Win	True
359.344	0.3	Win2	0.6315999999999999	0.001	Yes	2.875	-0.001	3.0	GoodResponse	1	0.17	n/a	3	37	ButtonPress	Win	True
359.441	0.43	Win2	0.6315999999999999	n/a	Yes	2.875	n/a	n/a	GoodResponse	1	n/a	n/a	3	37	Blank	Win	True
359.874	1.45	Win2	0.6315999999999999	n/a	Yes	2.875	n/a	5.0	GoodResponse	1	0.001	358.875	3	37	Feedback	Win	True
361.357	2.875	Win2	0.6315999999999999	n/a	Yes	2.875	n/a	n/a	GoodResponse	1	0.0	n/a	3	37	ISIslide	Win	True
364.222	0.25	Lose2	0.6409999999999999	0.0	Yes	2.828	0.022	n/a	GoodResponse	0	n/a	n/a	3	38	Cue	AvoidedLoss	True
364.472	3.95	Lose2	0.6409999999999999	0.0	Yes	2.828	0.0	n/a	GoodResponse	0	n/a	n/a	3	38	Fixation	AvoidedLoss	True
368.421	0.28	Lose2	0.6409999999999999	0.001	Yes	2.828	-0.001	3.0	GoodResponse	0	0.212	367.633	3	38	Target	AvoidedLoss	True
368.633	0.3	Lose2	0.6409999999999999	0.001	Yes	2.828	-0.001	3.0	GoodResponse	0	0.212	n/a	3	38	ButtonPress	AvoidedLoss	True
368.704	0.42	Lose2	0.6409999999999999	n/a	Yes	2.828	n/a	n/a	GoodResponse	0	n/a	n/a	3	38	Blank	AvoidedLoss	True
369.12	1.45	Lose2	0.6409999999999999	n/a	Yes	2.828	n/a	5.0	GoodResponse	0	0.024	368.144	3	38	Feedback	AvoidedLoss	True
370.57	2.828	Lose2	0.6409999999999999	n/a	Yes	2.828	n/a	n/a	GoodResponse	0	0.0	n/a	3	38	ISIslide	AvoidedLoss	True
373.419	0.25	Win2	0.65	0.0	Yes	2.981	0.019	n/a	GoodResponse	1	n/a	n/a	4	39	Cue	Win	True
373.669	4.1	Win2	0.65	0.0	Yes	2.981	0.0	n/a	GoodResponse	1	n/a	n/a	4	39	Fixation	Win	True
377.767	0.29	Win2	0.65	0.002	Yes	2.981	-0.002	3.0	GoodResponse	1	0.217	376.984	4	39	Target	Win	True
377.984	0.3	Win2	0.65	0.002	Yes	2.981	-0.002	3.0	GoodResponse	1	0.217	n/a	4	39	ButtonPress	Win	True
378.067	0.41	Win2	0.65	n/a	Yes	2.981	n/a	n/a	GoodResponse	1	n/a	n/a	4	39	Blank	Win	True
378.467	1.45	Win2	0.65	n/a	Yes	2.981	n/a	5.0	GoodResponse	1	0.042	377.509	4	39	Feedback	Win	True
379.917	2.981	Win2	0.65	n/a	Yes	2.981	n/a	n/a	GoodResponse	1	0.0	n/a	4	39	ISIslide	Win	True
382.916	0.25	Win2	0.6585	0.0	Yes	2.734	0.016	n/a	GoodResponse	1	n/a	n/a	5	40	Cue	Win	True
383.166	3.95	Win2	0.6585	0.0	Yes	2.734	0.0	n/a	GoodResponse	1	n/a	n/a	5	40	Fixation	Win	True
387.114	0.3	Win2	0.6585	0.002	Yes	2.734	-0.002	3.0	GoodResponse	1	0.245	386.359	5	40	Target	Win	True
387.359	0.3	Win2	0.6585	0.002	Yes	2.734	-0.002	3.0	GoodResponse	1	0.245	n/a	5	40	ButtonPress	Win	True
387.414	0.4	Win2	0.6585	n/a	Yes	2.734	n/a	n/a	GoodResponse	1	n/a	n/a	5	40	Blank	Win	True
387.814	1.45	Win2	0.6585	n/a	Yes	2.734	n/a	5.0	GoodResponse	1	0.012	386.826	5	40	Feedback	Win	True
389.263	2.734	Win2	0.6585	n/a	Yes	2.734	n/a	n/a	GoodResponse	1	0.0	n/a	5	40	ISIslide	Win	True
392.029	0.25	Win2	0.6667000000000001	0.0	Yes	2.771	0.029	n/a	GoodResponse	1	n/a	n/a	6	41	Cue	Win	True
392.279	3.9	Win2	0.6667000000000001	0.0	Yes	2.771	0.0	n/a	GoodResponse	1	n/a	n/a	6	41	Fixation	Win	True
396.178	0.3	Win2	0.6667000000000001	0.001	Yes	2.771	-0.001	3.0	GoodResponse	1	0.225	395.403	6	41	Target	Win	True
396.403	0.3	Win2	0.6667000000000001	0.001	Yes	2.771	-0.001	3.0	GoodResponse	1	0.225	n/a	6	41	ButtonPress	Win	True
396.478	0.4	Win2	0.6667000000000001	n/a	Yes	2.771	n/a	n/a	GoodResponse	1	n/a	n/a	6	41	Blank	Win	True
396.877	1.45	Win2	0.6667000000000001	n/a	Yes	2.771	n/a	5.0	GoodResponse	1	0.022	395.899	6	41	Feedback	Win	True
398.327	2.771	Win2	0.6667000000000001	n/a	Yes	2.771	n/a	n/a	GoodResponse	1	0.0	n/a	6	41	ISIslide	Win	True
401.126	0.25	Control	0.6512	0.0	No	2.924	0.026	n/a	PrematurePress	0	n/a	n/a	6	42	Cue	Neutral	True
401.376	3.85	Control	0.6512	0.0	No	2.924	0.0	n/a	PrematurePress	0	n/a	n/a	6	42	Fixation	Neutral	True
405.225	0.29	Control	0.6512	0.001	No	2.924	-0.001	3.0	PrematurePress	0	0.057	404.282	6	42	Target	Neutral	True
405.282	0.3	Control	0.6512	0.001	No	2.924	-0.001	3.0	PrematurePress	0	0.057	n/a	6	42	ButtonPress	Neutral	True
405.524	0.41	Control	0.6512	n/a	No	2.924	n/a	n/a	PrematurePress	0	n/a	n/a	6	42	Blank	Neutral	True
405.924	1.45	Control	0.6512	n/a	No	2.924	n/a	5.0	PrematurePress	0	0.048	404.972	6	42	Feedback	Neutral	True
407.374	2.924	Control	0.6512	n/a	No	2.924	n/a	n/a	PrematurePress	0	0.0	n/a	6	42	ISIslide	Neutral	True
410.323	0.25	Win2	0.6591	0.0	Yes	3.177	0.023	n/a	GoodResponse	1	n/a	n/a	7	43	Cue	Win	True
410.573	4.0	Win2	0.6591	0.0	Yes	3.177	0.0	n/a	GoodResponse	1	n/a	n/a	7	43	Fixation	Win	True
414.571	0.3	Win2	0.6591	0.002	Yes	3.177	-0.002	3.0	GoodResponse	1	0.227	413.798	7	43	Target	Win	True
414.798	0.3	Win2	0.6591	0.002	Yes	3.177	-0.002	3.0	GoodResponse	1	0.227	n/a	7	43	ButtonPress	Win	True
414.871	0.4	Win2	0.6591	n/a	Yes	3.177	n/a	n/a	GoodResponse	1	n/a	n/a	7	43	Blank	Win	True
415.271	1.45	Win2	0.6591	n/a	Yes	3.177	n/a	5.0	GoodResponse	1	0.019	414.29	7	43	Feedback	Win	True
416.721	3.177	Win2	0.6591	n/a	Yes	3.177	n/a	n/a	GoodResponse	1	0.0	n/a	7	43	ISIslide	Win	True
419.919	0.25	Win2	0.6667000000000001	0.0	Yes	2.981	0.019	n/a	GoodResponse	1	n/a	n/a	8	44	Cue	Win	True
420.169	4.0	Win2	0.6667000000000001	0.0	Yes	2.981	0.0	n/a	GoodResponse	1	n/a	n/a	8	44	Fixation	Win	True
424.168	0.3	Win2	0.6667000000000001	0.001	Yes	2.981	-0.001	3.0	GoodResponse	1	0.22	423.388	8	44	Target	Win	True
424.388	0.3	Win2	0.6667000000000001	0.001	Yes	2.981	-0.001	3.0	GoodResponse	1	0.22	n/a	8	44	ButtonPress	Win	True
424.468	0.4	Win2	0.6667000000000001	n/a	Yes	2.981	n/a	n/a	GoodResponse	1	n/a	n/a	8	44	Blank	Win	True
424.868	1.45	Win2	0.6667000000000001	n/a	Yes	2.981	n/a	5.0	GoodResponse	1	0.031	423.899	8	44	Feedback	Win	True
426.317	2.981	Win2	0.6667000000000001	n/a	Yes	2.981	n/a	n/a	GoodResponse	1	0.0	n/a	8	44	ISIslide	Win	True
429.316	0.25	Control	0.6739	0.0	Yes	2.884	0.016	n/a	GoodResponse	0	n/a	n/a	8	45	Cue	Neutral	True
429.566	4.1	Control	0.6739	0.0	Yes	2.884	0.0	n/a	GoodResponse	0	n/a	n/a	8	45	Fixation	Neutral	True
433.665	0.29	Control	0.6739	0.001	Yes	2.884	-0.001	3.0	GoodResponse	0	0.201	432.866	8	45	Target	Neutral	True
433.866	0.3	Control	0.6739	0.001	Yes	2.884	-0.001	3.0	GoodResponse	0	0.201	n/a	8	45	ButtonPress	Neutral	True
433.965	0.41	Control	0.6739	n/a	Yes	2.884	n/a	n/a	GoodResponse	0	n/a	n/a	8	45	Blank	Neutral	True
434.364	1.45	Control	0.6739	n/a	Yes	2.884	n/a	5.0	GoodResponse	0	0.047	433.411	8	45	Feedback	Neutral	True
435.814	2.884	Control	0.6739	n/a	Yes	2.884	n/a	n/a	GoodResponse	0	0.0	n/a	8	45	ISIslide	Neutral	True
438.73	0.25	Lose2	0.6809000000000001	0.0	Yes	3.37	0.03	n/a	GoodResponse	0	n/a	n/a	8	46	Cue	AvoidedLoss	True
438.979	4.0	Lose2	0.6809000000000001	0.001	Yes	3.37	-0.001	n/a	GoodResponse	0	n/a	n/a	8	46	Fixation	AvoidedLoss	True
442.978	0.28	Lose2	0.6809000000000001	0.002	Yes	3.37	-0.002	3.0	GoodResponse	0	0.245	442.223	8	46	Target	AvoidedLoss	True
443.223	0.3	Lose2	0.6809000000000001	0.002	Yes	3.37	-0.002	3.0	GoodResponse	0	0.245	n/a	8	46	ButtonPress	AvoidedLoss	True
443.261	0.42	Lose2	0.6809000000000001	n/a	Yes	3.37	n/a	n/a	GoodResponse	0	n/a	n/a	8	46	Blank	AvoidedLoss	True
443.678	1.45	Lose2	0.6809000000000001	n/a	Yes	3.37	n/a	5.0	GoodResponse	0	0.001	442.679	8	46	Feedback	AvoidedLoss	True
445.127	3.37	Lose2	0.6809000000000001	n/a	Yes	3.37	n/a	n/a	GoodResponse	0	0.0	n/a	8	46	ISIslide	AvoidedLoss	True
448.526	0.25	Lose2	0.6875	0.0	Yes	2.674	0.026	n/a	GoodResponse	0	n/a	n/a	8	47	Cue	AvoidedLoss	True
448.776	4.0	Lose2	0.6875	0.0	Yes	2.674	0.0	n/a	GoodResponse	0	n/a	n/a	8	47	Fixation	AvoidedLoss	True
452.775	0.27	Lose2	0.6875	0.001	Yes	2.674	-0.001	3.0	GoodResponse	0	0.215	451.99	8	47	Target	AvoidedLoss	True
452.99	0.3	Lose2	0.6875	0.001	Yes	2.674	-0.001	3.0	GoodResponse	0	0.215	n/a	8	47	ButtonPress	AvoidedLoss	True
453.058	0.43	Lose2	0.6875	n/a	Yes	2.674	n/a	n/a	GoodResponse	0	n/a	n/a	8	47	Blank	AvoidedLoss	True
453.474	1.45	Lose2	0.6875	n/a	Yes	2.674	n/a	5.0	GoodResponse	0	0.01	452.484	8	47	Feedback	AvoidedLoss	True
454.924	2.674	Lose2	0.6875	n/a	Yes	2.674	n/a	n/a	GoodResponse	0	0.0	n/a	8	47	ISIslide	AvoidedLoss	True
457.623	0.25	Lose2	0.6939	0.0	Yes	3.027	0.023	n/a	GoodResponse	0	n/a	n/a	8	48	Cue	AvoidedLoss	True
457.873	3.95	Lose2	0.6939	0.0	Yes	3.027	0.0	n/a	GoodResponse	0	n/a	n/a	8	48	Fixation	AvoidedLoss	True
461.821	0.26	Lose2	0.6939	0.002	Yes	3.027	-0.002	3.0	GoodResponse	0	0.209	461.03	8	48	Target	AvoidedLoss	True
462.03	0.3	Lose2	0.6939	0.002	Yes	3.027	-0.002	3.0	GoodResponse	0	0.209	n/a	8	48	ButtonPress	AvoidedLoss	True
462.088	0.44	Lose2	0.6939	n/a	Yes	3.027	n/a	n/a	GoodResponse	0	n/a	n/a	8	48	Blank	AvoidedLoss	True
462.521	1.45	Lose2	0.6939	n/a	Yes	3.027	n/a	5.0	GoodResponse	0	0.036	461.557	8	48	Feedback	AvoidedLoss	True
463.971	3.027	Lose2	0.6939	n/a	Yes	3.027	n/a	n/a	GoodResponse	0	0.0	n/a	8	48	ISIslide	AvoidedLoss	True
467.02	0.25	Control	0.7	0.0	Yes	2.88	0.02	n/a	GoodResponse	0	n/a	n/a	8	49	Cue	Neutral	True
467.27	4.0	Control	0.7	0.0	Yes	2.88	0.0	n/a	GoodResponse	0	n/a	n/a	8	49	Fixation	Neutral	True
471.268	0.25	Control	0.7	0.002	Yes	2.88	-0.002	3.0	GoodResponse	0	0.21	470.478	8	49	Target	Neutral	True
471.478	0.3	Control	0.7	0.002	Yes	2.88	-0.002	3.0	GoodResponse	0	0.21	n/a	8	49	ButtonPress	Neutral	True
471.518	0.45	Control	0.7	n/a	Yes	2.88	n/a	n/a	GoodResponse	0	n/a	n/a	8	49	Blank	Neutral	True
471.968	1.45	Control	0.7	n/a	Yes	2.88	n/a	5.0	GoodResponse	0	0.006	470.974	8	49	Feedback	Neutral	True
473.417	2.88	Control	0.7	n/a	Yes	2.88	n/a	n/a	GoodResponse	0	0.0	n/a	8	49	ISIslide	Neutral	True
476.316	0.25	Control	0.7059000000000001	0.001	Yes	2.784	0.016	n/a	GoodResponse	0	n/a	n/a	8	50	Cue	Neutral	True
476.566	4.0	Control	0.7059000000000001	0.0	Yes	2.784	0.0	n/a	GoodResponse	0	n/a	n/a	8	50	Fixation	Neutral	True
480.565	0.24	Control	0.7059000000000001	0.001	Yes	2.784	-0.001	3.0	GoodResponse	0	0.201	479.766	8	50	Target	Neutral	True
480.766	0.3	Control	0.7059000000000001	0.001	Yes	2.784	-0.001	3.0	GoodResponse	0	0.201	n/a	8	50	ButtonPress	Neutral	True
480.815	0.46	Control	0.7059000000000001	n/a	Yes	2.784	n/a	n/a	GoodResponse	0	n/a	n/a	8	50	Blank	Neutral	True
481.265	1.45	Control	0.7059000000000001	n/a	Yes	2.784	n/a	5.0	GoodResponse	0	0.023	480.288	8	50	Feedback	Neutral	True
482.714	2.784	Control	0.7059000000000001	n/a	Yes	2.784	n/a	n/a	GoodResponse	0	0.0	n/a	8	50	ISIslide	Neutral	True
485.513	0.25	Control	0.6923	0.0	No	2.737	0.013	n/a	NoResponse	0	n/a	n/a	8	51	Cue	Neutral	True
485.763	3.95	Control	0.6923	0.0	No	2.737	0.0	n/a	NoResponse	0	n/a	n/a	8	51	Fixation	Neutral	True
489.712	0.23	Control	0.6923	0.001	No	2.737	-0.001	3.0	NoResponse	0	0.24	488.952	8	51	Target	Neutral	True
489.945	0.47	Control	0.6923	n/a	No	2.737	n/a	n/a	NoResponse	0	n/a	n/a	8	51	Blank	Neutral	True
489.952	0.3	Control	0.6923	0.001	No	2.737	-0.001	3.0	NoResponse	0	0.24	n/a	8	51	ButtonPress	Neutral	True
490.412	1.45	Control	0.6923	n/a	No	2.737	n/a	5.0	NoResponse	0	0.047	489.459	8	51	Feedback	Neutral	True
491.861	2.737	Control	0.6923	n/a	No	2.737	n/a	n/a	NoResponse	0	0.0	n/a	8	51	ISIslide	Neutral	True
494.627	0.25	Control	0.6981	0.0	Yes	2.623	0.027	n/a	GoodResponse	0	n/a	n/a	8	52	Cue	Neutral	True
494.877	4.05	Control	0.6981	0.0	Yes	2.623	0.0	n/a	GoodResponse	0	n/a	n/a	8	52	Fixation	Neutral	True
498.925	0.22	Control	0.6981	0.002	Yes	2.623	-0.002	3.0	GoodResponse	0	0.212	498.137	8	52	Target	Neutral	True
499.137	0.3	Control	0.6981	0.002	Yes	2.623	-0.002	3.0	GoodResponse	0	0.212	n/a	8	52	ButtonPress	Neutral	True
499.158	0.48	Control	0.6981	n/a	Yes	2.623	n/a	n/a	GoodResponse	0	n/a	n/a	8	52	Blank	Neutral	True
499.625	1.45	Control	0.6981	n/a	Yes	2.623	n/a	5.0	GoodResponse	0	0.006	498.631	8	52	Feedback	Neutral	True
501.074	2.623	Control	0.6981	n/a	Yes	2.623	n/a	n/a	GoodResponse	0	0.0	n/a	8	52	ISIslide	Neutral	True
503.724	0.25	Win2	0.7037	0.0	Yes	2.926	0.024	n/a	GoodResponse	1	n/a	n/a	9	53	Cue	Win	True
503.973	4.05	Win2	0.7037	0.001	Yes	2.926	-0.001	n/a	GoodResponse	1	n/a	n/a	9	53	Fixation	Win	True
508.022	0.21	Win2	0.7037	0.002	Yes	2.926	-0.002	3.0	GoodResponse	1	0.199	507.221	9	53	Target	Win	True
508.221	0.3	Win2	0.7037	0.002	Yes	2.926	-0.002	3.0	GoodResponse	1	0.199	n/a	9	53	ButtonPress	Win	True
508.239	0.49	Win2	0.7037	n/a	Yes	2.926	n/a	n/a	GoodResponse	1	n/a	n/a	9	53	Blank	Win	True
508.722	1.45	Win2	0.7037	n/a	Yes	2.926	n/a	5.0	GoodResponse	1	0.03	507.752	9	53	Feedback	Win	True
510.171	2.926	Win2	0.7037	n/a	Yes	2.926	n/a	n/a	GoodResponse	1	0.0	n/a	9	53	ISIslide	Win	True
513.12	0.25	Win2	0.6909000000000001	0.0	No	2.73	0.02	n/a	NoResponse	0	n/a	n/a	9	54	Cue	MissedWin	True
513.37	3.95	Win2	0.6909000000000001	0.0	No	2.73	0.0	n/a	NoResponse	0	n/a	n/a	9	54	Fixation	MissedWin	True
517.319	0.2	Win2	0.6909000000000001	0.001	No	2.73	-0.001	3.0	NoResponse	0	0.208	516.527	9	54	Target	MissedWin	True
517.519	0.5	Win2	0.6909000000000001	n/a	No	2.73	n/a	n/a	NoResponse	0	n/a	n/a	9	54	Blank	MissedWin	True
517.527	0.3	Win2	0.6909000000000001	0.001	No	2.73	-0.001	3.0	NoResponse	0	0.208	n/a	9	54	ButtonPress	MissedWin	True
518.019	1.45	Win2	0.6909000000000001	n/a	No	2.73	n/a	5.0	NoResponse	0	0.005	517.024	9	54	Feedback	MissedWin	True
519.468	2.73	Win2	0.6909000000000001	n/a	No	2.73	n/a	n/a	NoResponse	0	0.0	n/a	9	54	ISIslide	MissedWin	True
522.217	0.25	Control	0.6786	0.0	No	3.033	0.017	n/a	LatePress	0	n/a	n/a	9	55	Cue	Neutral	True
522.467	3.95	Control	0.6786	0.0	No	3.033	0.0	n/a	LatePress	0	n/a	n/a	9	55	Fixation	Neutral	True
526.416	0.19	Control	0.6786	0.001	No	3.033	-0.001	3.0	LatePress	0	0.199	525.615	9	55	Target	Neutral	True
526.615	0.3	Control	0.6786	0.001	No	3.033	-0.001	3.0	LatePress	0	0.199	n/a	9	55	ButtonPress	Neutral	True
526.616	0.51	Control	0.6786	n/a	No	3.033	n/a	n/a	LatePress	0	n/a	n/a	9	55	Blank	Neutral	True
527.115	1.45	Control	0.6786	n/a	No	3.033	n/a	5.0	LatePress	0	0.027	526.142	9	55	Feedback	Neutral	True
528.565	3.033	Control	0.6786	n/a	No	3.033	n/a	n/a	LatePress	0	0.0	n/a	9	55	ISIslide	Neutral	True
531.63	0.25	Control	0.6667000000000001	0.001	No	2.82	0.03	n/a	NoResponse	0	n/a	n/a	9	56	Cue	Neutral	True
531.88	3.95	Control	0.6667000000000001	0.0	No	2.82	0.0	n/a	NoResponse	0	n/a	n/a	9	56	Fixation	Neutral	True
535.829	0.18	Control	0.6667000000000001	0.001	No	2.82	-0.001	3.0	NoResponse	0	0.192	535.021	9	56	Target	Neutral	True
536.012	0.52	Control	0.6667000000000001	n/a	No	2.82	n/a	n/a	NoResponse	0	n/a	n/a	9	56	Blank	Neutral	True
536.021	0.3	Control	0.6667000000000001	0.001	No	2.82	-0.001	3.0	NoResponse	0	0.192	n/a	9	56	ButtonPress	Neutral	True
536.529	1.45	Control	0.6667000000000001	n/a	No	2.82	n/a	5.0	NoResponse	0	0.027	535.556	9	56	Feedback	Neutral	True
537.978	2.82	Control	0.6667000000000001	n/a	No	2.82	n/a	n/a	NoResponse	0	0.0	n/a	9	56	ISIslide	Neutral	True
540.827	0.25	Control	0.6552	0.0	No	3.473	0.027	n/a	NoResponse	0	n/a	n/a	9	57	Cue	Neutral	True
541.077	4.0	Control	0.6552	0.0	No	3.473	0.0	n/a	NoResponse	0	n/a	n/a	9	57	Fixation	Neutral	True
545.076	0.17	Control	0.6552	0.001	No	3.473	-0.001	3.0	NoResponse	0	0.225	544.301	9	57	Target	Neutral	True
545.242	0.53	Control	0.6552	n/a	No	3.473	n/a	n/a	NoResponse	0	n/a	n/a	9	57	Blank	Neutral	True
545.301	0.3	Control	0.6552	0.001	No	3.473	-0.001	3.0	NoResponse	0	0.225	n/a	9	57	ButtonPress	Neutral	True
545.776	1.45	Control	0.6552	n/a	No	3.473	n/a	5.0	NoResponse	0	0.0	544.776	9	57	Feedback	Neutral	True
547.225	3.473	Control	0.6552	n/a	No	3.473	n/a	n/a	NoResponse	0	0.0	n/a	9	57	ISIslide	Neutral	True
550.724	0.25	Win2	0.6441	0.0	No	2.726	0.024	n/a	NoResponse	0	n/a	n/a	9	58	Cue	MissedWin	True
550.974	4.05	Win2	0.6441	0.0	No	2.726	0.0	n/a	NoResponse	0	n/a	n/a	9	58	Fixation	MissedWin	True
555.022	0.17	Win2	0.6441	0.002	No	2.726	-0.002	3.0	NoResponse	0	0.248	554.27	9	58	Target	MissedWin	True
555.206	0.53	Win2	0.6441	n/a	No	2.726	n/a	n/a	NoResponse	0	n/a	n/a	9	58	Blank	MissedWin	True
555.27	0.3	Win2	0.6441	0.002	No	2.726	-0.002	3.0	NoResponse	0	0.248	n/a	9	58	ButtonPress	MissedWin	True
555.722	1.45	Win2	0.6441	n/a	No	2.726	n/a	5.0	NoResponse	0	0.006	554.728	9	58	Feedback	MissedWin	True
557.172	2.726	Win2	0.6441	n/a	No	2.726	n/a	n/a	NoResponse	0	0.0	n/a	9	58	ISIslide	MissedWin	True
559.921	0.25	Lose2	0.6333	0.0	No	2.679	0.021	n/a	NoResponse	-1	n/a	n/a	8	59	Cue	Loss	True
560.171	4.0	Lose2	0.6333	0.0	No	2.679	0.0	n/a	NoResponse	-1	n/a	n/a	8	59	Fixation	Loss	True
564.169	0.18	Lose2	0.6333	0.002	No	2.679	-0.002	3.0	NoResponse	-1	0.239	563.408	8	59	Target	Loss	True
564.352	0.52	Lose2	0.6333	n/a	No	2.679	n/a	n/a	NoResponse	-1	n/a	n/a	8	59	Blank	Loss	True
564.408	0.3	Lose2	0.6333	0.002	No	2.679	-0.002	3.0	NoResponse	-1	0.239	n/a	8	59	ButtonPress	Loss	True
564.869	1.45	Lose2	0.6333	n/a	No	2.679	n/a	5.0	NoResponse	-1	0.029	563.898	8	59	Feedback	Loss	True
566.318	2.679	Lose2	0.6333	n/a	No	2.679	n/a	n/a	NoResponse	-1	0.0	n/a	8	59	ISIslide	Loss	True
569.017	0.25	Control	0.623	0.001	No	2.683	0.017	n/a	LatePress	0	n/a	n/a	8	60	Cue	Neutral	True
569.267	4.0	Control	0.623	0.0	No	2.683	0.0	n/a	LatePress	0	n/a	n/a	8	60	Fixation	Neutral	True
573.266	0.19	Control	0.623	0.001	No	2.683	-0.001	3.0	LatePress	0	0.192	572.458	8	60	Target	Neutral	True
573.458	0.3	Control	0.623	0.001	No	2.683	-0.001	3.0	LatePress	0	0.192	n/a	8	60	ButtonPress	Neutral	True
573.466	0.51	Control	0.623	n/a	No	2.683	n/a	n/a	LatePress	0	n/a	n/a	8	60	Blank	Neutral	True
573.966	1.45	Control	0.623	n/a	No	2.683	n/a	5.0	LatePress	0	0.006	572.972	8	60	Feedback	Neutral	True
575.415	2.683	Control	0.623	n/a	No	2.683	n/a	n/a	LatePress	0	0.0	n/a	8	60	ISIslide	Neutral	True
578.114	0.25	Lose2	0.6129	0.0	No	2.986	0.014	n/a	NoResponse	-1	n/a	n/a	7	61	Cue	Loss	True
578.364	4.0	Lose2	0.6129	0.0	No	2.986	0.0	n/a	NoResponse	-1	n/a	n/a	7	61	Fixation	Loss	True
582.363	0.2	Lose2	0.6129	0.001	No	2.986	-0.001	3.0	NoResponse	-1	0.235	581.598	7	61	Target	Loss	True
582.563	0.5	Lose2	0.6129	n/a	No	2.986	n/a	n/a	NoResponse	-1	n/a	n/a	7	61	Blank	Loss	True
582.598	0.3	Lose2	0.6129	0.001	No	2.986	-0.001	3.0	NoResponse	-1	0.235	n/a	7	61	ButtonPress	Loss	True
583.063	1.45	Lose2	0.6129	n/a	No	2.986	n/a	5.0	NoResponse	-1	0.03	582.093	7	61	Feedback	Loss	True
584.512	2.986	Lose2	0.6129	n/a	No	2.986	n/a	n/a	NoResponse	-1	0.0	n/a	7	61	ISIslide	Loss	True
587.528	0.25	Lose2	0.6032	0.0	No	2.872	0.028	n/a	NoResponse	-1	n/a	n/a	6	62	Cue	Loss	True
587.778	3.9	Lose2	0.6032	0.0	No	2.872	0.0	n/a	NoResponse	-1	n/a	n/a	6	62	Fixation	Loss	True
591.676	0.21	Lose2	0.6032	0.002	No	2.872	-0.002	3.0	NoResponse	-1	0.226	590.902	6	62	Target	Loss	True
591.893	0.49	Lose2	0.6032	n/a	No	2.872	n/a	n/a	NoResponse	-1	n/a	n/a	6	62	Blank	Loss	True
591.902	0.3	Lose2	0.6032	0.002	No	2.872	-0.002	3.0	NoResponse	-1	0.226	n/a	6	62	ButtonPress	Loss	True
592.376	1.45	Lose2	0.6032	n/a	No	2.872	n/a	5.0	NoResponse	-1	0.034	591.41	6	62	Feedback	Loss	True
593.825	2.872	Lose2	0.6032	n/a	No	2.872	n/a	n/a	NoResponse	-1	0.0	n/a	6	62	ISIslide	Loss	True
596.724	0.25	Lose2	0.6093999999999999	0.001	Yes	2.626	0.024	n/a	GoodResponse	0	n/a	n/a	6	63	Cue	AvoidedLoss	True
596.974	4.05	Lose2	0.6093999999999999	0.0	Yes	2.626	0.0	n/a	GoodResponse	0	n/a	n/a	6	63	Fixation	AvoidedLoss	True
601.023	0.22	Lose2	0.6093999999999999	0.001	Yes	2.626	-0.001	3.0	GoodResponse	0	0.172	600.195	6	63	Target	AvoidedLoss	True
601.195	0.3	Lose2	0.6093999999999999	0.001	Yes	2.626	-0.001	3.0	GoodResponse	0	0.172	n/a	6	63	ButtonPress	AvoidedLoss	True
601.24	0.48	Lose2	0.6093999999999999	n/a	Yes	2.626	n/a	n/a	GoodResponse	0	n/a	n/a	6	63	Blank	AvoidedLoss	True
601.723	1.45	Lose2	0.6093999999999999	n/a	Yes	2.626	n/a	5.0	GoodResponse	0	0.004	600.727	6	63	Feedback	AvoidedLoss	True
603.172	2.626	Lose2	0.6093999999999999	n/a	Yes	2.626	n/a	n/a	GoodResponse	0	0.0	n/a	6	63	ISIslide	AvoidedLoss	True
605.821	0.25	Win2	0.6	0.0	No	3.129	0.021	n/a	NoResponse	0	n/a	n/a	6	64	Cue	MissedWin	True
606.071	4.15	Win2	0.6	0.0	No	3.129	0.0	3.0	NoResponse	0	3.808	608.879	6	64	Fixation	MissedWin	True
609.879	0.3	Win2	0.6	0.0	No	3.129	0.0	3.0	NoResponse	0	3.808	n/a	6	64	ButtonPress	MissedWin	True
610.22	0.23	Win2	0.6	0.001	No	3.129	-0.001	n/a	NoResponse	0	n/a	n/a	6	64	Target	MissedWin	True
610.453	0.47	Win2	0.6	n/a	No	3.129	n/a	n/a	NoResponse	0	n/a	n/a	6	64	Blank	MissedWin	True
610.919	1.45	Win2	0.6	n/a	No	3.129	n/a	5.0	NoResponse	0	0.028	609.947	6	64	Feedback	MissedWin	True
612.369	3.129	Win2	0.6	n/a	No	3.129	n/a	n/a	NoResponse	0	0.0	n/a	6	64	ISIslide	MissedWin	True
615.518	0.25	Control	0.5909	0.0	No	2.782	0.018	n/a	NoResponse	0	n/a	n/a	6	65	Cue	Neutral	True
615.768	4.0	Control	0.5909	0.0	No	2.782	0.0	n/a	NoResponse	0	n/a	n/a	6	65	Fixation	Neutral	True
619.766	0.24	Control	0.5909	0.002	No	2.782	-0.002	3.0	NoResponse	0	0.275	619.041	6	65	Target	Neutral	True
620.016	0.46	Control	0.5909	n/a	No	2.782	n/a	n/a	NoResponse	0	n/a	n/a	6	65	Blank	Neutral	True
620.041	0.3	Control	0.5909	0.002	No	2.782	-0.002	3.0	NoResponse	0	0.275	n/a	6	65	ButtonPress	Neutral	True
620.466	1.45	Control	0.5909	n/a	No	2.782	n/a	5.0	NoResponse	0	0.042	619.508	6	65	Feedback	Neutral	True
621.916	2.782	Control	0.5909	n/a	No	2.782	n/a	n/a	NoResponse	0	0.0	n/a	6	65	ISIslide	Neutral	True
624.715	0.25	Win2	0.597	0.0	Yes	2.785	0.015	n/a	GoodResponse	1	n/a	n/a	7	66	Cue	Win	True
624.965	3.9	Win2	0.597	0.0	Yes	2.785	0.0	n/a	GoodResponse	1	n/a	n/a	7	66	Fixation	Win	True
628.863	0.25	Win2	0.597	0.002	Yes	2.785	-0.002	3.0	GoodResponse	1	0.221	628.084	7	66	Target	Win	True
629.084	0.3	Win2	0.597	0.002	Yes	2.785	-0.002	3.0	GoodResponse	1	0.221	n/a	7	66	ButtonPress	Win	True
629.113	0.45	Win2	0.597	n/a	Yes	2.785	n/a	n/a	GoodResponse	1	n/a	n/a	7	66	Blank	Win	True
629.563	1.45	Win2	0.597	n/a	Yes	2.785	n/a	5.0	GoodResponse	1	0.018	628.581	7	66	Feedback	Win	True
631.012	2.785	Win2	0.597	n/a	Yes	2.785	n/a	n/a	GoodResponse	1	0.0	n/a	7	66	ISIslide	Win	True
633.828	0.25	Control	0.6029	0.0	Yes	2.722	0.028	n/a	GoodResponse	0	n/a	n/a	7	67	Cue	Neutral	True
634.078	3.95	Control	0.6029	0.0	Yes	2.722	0.0	n/a	GoodResponse	0	n/a	n/a	7	67	Fixation	Neutral	True
638.027	0.26	Control	0.6029	0.001	Yes	2.722	-0.001	3.0	GoodResponse	0	0.208	637.235	7	67	Target	Neutral	True
638.235	0.3	Control	0.6029	0.001	Yes	2.722	-0.001	3.0	GoodResponse	0	0.208	n/a	7	67	ButtonPress	Neutral	True
638.293	0.44	Control	0.6029	n/a	Yes	2.722	n/a	n/a	GoodResponse	0	n/a	n/a	7	67	Blank	Neutral	True
638.726	1.45	Control	0.6029	n/a	Yes	2.722	n/a	5.0	GoodResponse	0	0.025	637.751	7	67	Feedback	Neutral	True
640.176	2.722	Control	0.6029	n/a	Yes	2.722	n/a	n/a	GoodResponse	0	0.0	n/a	7	67	ISIslide	Neutral	True
642.925	0.25	Win2	0.6087	0.0	Yes	3.075	0.025	n/a	GoodResponse	1	n/a	n/a	8	68	Cue	Win	True
643.175	4.0	Win2	0.6087	0.0	Yes	3.075	0.0	n/a	GoodResponse	1	n/a	n/a	8	68	Fixation	Win	True
647.173	0.27	Win2	0.6087	0.002	Yes	3.075	-0.002	3.0	GoodResponse	1	0.221	646.394	8	68	Target	Win	True
647.394	0.3	Win2	0.6087	0.002	Yes	3.075	-0.002	3.0	GoodResponse	1	0.221	n/a	8	68	ButtonPress	Win	True
647.457	0.43	Win2	0.6087	n/a	Yes	3.075	n/a	n/a	GoodResponse	1	n/a	n/a	8	68	Blank	Win	True
647.873	1.45	Win2	0.6087	n/a	Yes	3.075	n/a	5.0	GoodResponse	1	0.049	646.922	8	68	Feedback	Win	True
649.323	3.075	Win2	0.6087	n/a	Yes	3.075	n/a	n/a	GoodResponse	1	0.0	n/a	8	68	ISIslide	Win	True
652.422	0.25	Win2	0.6143	0.0	Yes	3.228	0.022	n/a	GoodResponse	1	n/a	n/a	9	69	Cue	Win	True
652.672	3.95	Win2	0.6143	0.0	Yes	3.228	0.0	n/a	GoodResponse	1	n/a	n/a	9	69	Fixation	Win	True
656.62	0.28	Win2	0.6143	0.002	Yes	3.228	-0.002	3.0	GoodResponse	1	0.193	655.813	9	69	Target	Win	True
656.813	0.3	Win2	0.6143	0.002	Yes	3.228	-0.002	3.0	GoodResponse	1	0.193	n/a	9	69	ButtonPress	Win	True
656.903	0.42	Win2	0.6143	n/a	Yes	3.228	n/a	n/a	GoodResponse	1	n/a	n/a	9	69	Blank	Win	True
657.32	1.45	Win2	0.6143	n/a	Yes	3.228	n/a	5.0	GoodResponse	1	0.016	656.336	9	69	Feedback	Win	True
658.769	3.228	Win2	0.6143	n/a	Yes	3.228	n/a	n/a	GoodResponse	1	0.0	n/a	9	69	ISIslide	Win	True
662.018	0.25	Lose2	0.6197	0.0	Yes	3.032	0.018	n/a	GoodResponse	0	n/a	n/a	9	70	Cue	AvoidedLoss	True
662.268	4.05	Lose2	0.6197	0.0	Yes	3.032	0.0	n/a	GoodResponse	0	n/a	n/a	9	70	Fixation	AvoidedLoss	True
666.317	0.29	Lose2	0.6197	0.001	Yes	3.032	-0.001	3.0	GoodResponse	0	0.216	665.533	9	70	Target	AvoidedLoss	True
666.533	0.3	Lose2	0.6197	0.001	Yes	3.032	-0.001	3.0	GoodResponse	0	0.216	n/a	9	70	ButtonPress	AvoidedLoss	True
666.617	0.41	Lose2	0.6197	n/a	Yes	3.032	n/a	n/a	GoodResponse	0	n/a	n/a	9	70	Blank	AvoidedLoss	True
667.017	1.45	Lose2	0.6197	n/a	Yes	3.032	n/a	5.0	GoodResponse	0	0.027	666.044	9	70	Feedback	AvoidedLoss	True
668.466	3.032	Lose2	0.6197	n/a	Yes	3.032	n/a	n/a	GoodResponse	0	0.0	n/a	9	70	ISIslide	AvoidedLoss	True
671.515	0.25	Win2	0.625	0.0	Yes	2.735	0.015	n/a	GoodResponse	1	n/a	n/a	10	71	Cue	Win	True
671.765	4.05	Win2	0.625	0.0	Yes	2.735	0.0	n/a	GoodResponse	1	n/a	n/a	10	71	Fixation	Win	True
675.813	0.3	Win2	0.625	0.002	Yes	2.735	-0.002	3.0	GoodResponse	1	0.21	675.023	10	71	Target	Win	True
676.023	0.3	Win2	0.625	0.002	Yes	2.735	-0.002	3.0	GoodResponse	1	0.21	n/a	10	71	ButtonPress	Win	True
676.113	0.4	Win2	0.625	n/a	Yes	2.735	n/a	n/a	GoodResponse	1	n/a	n/a	10	71	Blank	Win	True
676.513	1.45	Win2	0.625	n/a	Yes	2.735	n/a	5.0	GoodResponse	1	0.043	675.556	10	71	Feedback	Win	True
677.963	2.735	Win2	0.625	n/a	Yes	2.735	n/a	n/a	GoodResponse	1	0.0	n/a	10	71	ISIslide	Win	True
680.728	0.25	Win2	0.6301	0.001	Yes	2.772	0.028	n/a	GoodResponse	1	n/a	n/a	11	72	Cue	Win	True
680.978	4.1	Win2	0.6301	0.0	Yes	2.772	0.0	n/a	GoodResponse	1	n/a	n/a	11	72	Fixation	Win	True
685.077	0.31	Win2	0.6301	0.001	Yes	2.772	-0.001	3.0	GoodResponse	1	0.218	684.295	11	72	Target	Win	True
685.295	0.3	Win2	0.6301	0.001	Yes	2.772	-0.001	3.0	GoodResponse	1	0.218	n/a	11	72	ButtonPress	Win	True
685.393	0.39	Win2	0.6301	n/a	Yes	2.772	n/a	n/a	GoodResponse	1	n/a	n/a	11	72	Blank	Win	True
685.777	1.45	Win2	0.6301	n/a	Yes	2.772	n/a	5.0	GoodResponse	1	0.047	684.824	11	72	Feedback	Win	True
687.226	2.772	Win2	0.6301	n/a	Yes	2.772	n/a	n/a	GoodResponse	1	0.0	n/a	11	72	ISIslide	Win	True
690.025	0.25	Win2	0.6351	0.0	Yes	2.675	0.025	n/a	GoodResponse	1	n/a	n/a	12	73	Cue	Win	True
690.275	4.0	Win2	0.6351	0.0	Yes	2.675	0.0	n/a	GoodResponse	1	n/a	n/a	12	73	Fixation	Win	True
694.274	0.32	Win2	0.6351	0.001	Yes	2.675	-0.001	3.0	GoodResponse	1	0.215	693.489	12	73	Target	Win	True
694.489	0.3	Win2	0.6351	0.001	Yes	2.675	-0.001	3.0	GoodResponse	1	0.215	n/a	12	73	ButtonPress	Win	True
694.607	0.38	Win2	0.6351	n/a	Yes	2.675	n/a	n/a	GoodResponse	1	n/a	n/a	12	73	Blank	Win	True
694.973	1.45	Win2	0.6351	n/a	Yes	2.675	n/a	5.0	GoodResponse	1	0.021	693.994	12	73	Feedback	Win	True
696.423	2.675	Win2	0.6351	n/a	Yes	2.675	n/a	n/a	GoodResponse	1	0.0	n/a	12	73	ISIslide	Win	True
699.122	0.25	Lose2	0.64	0.0	Yes	2.628	0.022	n/a	GoodResponse	0	n/a	n/a	12	74	Cue	AvoidedLoss	True
699.372	4.05	Lose2	0.64	0.0	Yes	2.628	0.0	n/a	GoodResponse	0	n/a	n/a	12	74	Fixation	AvoidedLoss	True
703.421	0.33	Lose2	0.64	0.001	Yes	2.628	-0.001	3.0	GoodResponse	0	0.3	702.721	12	74	Target	AvoidedLoss	True
703.721	0.3	Lose2	0.64	0.001	Yes	2.628	-0.001	3.0	GoodResponse	0	0.3	n/a	12	74	ButtonPress	AvoidedLoss	True
703.754	0.37	Lose2	0.64	n/a	Yes	2.628	n/a	n/a	GoodResponse	0	n/a	n/a	12	74	Blank	AvoidedLoss	True
704.12	1.45	Lose2	0.64	n/a	Yes	2.628	n/a	5.0	GoodResponse	0	0.045	703.165	12	74	Feedback	AvoidedLoss	True
705.57	2.628	Lose2	0.64	n/a	Yes	2.628	n/a	n/a	GoodResponse	0	0.0	n/a	12	74	ISIslide	AvoidedLoss	True
708.219	0.25	Lose2	0.6446999999999999	0.0	Yes	2.931	0.019	n/a	GoodResponse	0	n/a	n/a	12	75	Cue	AvoidedLoss	True
708.469	3.95	Lose2	0.6446999999999999	0.0	Yes	2.931	0.0	n/a	GoodResponse	0	n/a	n/a	12	75	Fixation	AvoidedLoss	True
712.417	0.34	Lose2	0.6446999999999999	0.002	Yes	2.931	-0.002	3.0	GoodResponse	0	0.212	711.629	12	75	Target	AvoidedLoss	True
712.629	0.3	Lose2	0.6446999999999999	0.002	Yes	2.931	-0.002	3.0	GoodResponse	0	0.212	n/a	12	75	ButtonPress	AvoidedLoss	True
712.767	0.36	Lose2	0.6446999999999999	n/a	Yes	2.931	n/a	n/a	GoodResponse	0	n/a	n/a	12	75	Blank	AvoidedLoss	True
713.117	1.45	Lose2	0.6446999999999999	n/a	Yes	2.931	n/a	5.0	GoodResponse	0	0.024	712.141	12	75	Feedback	AvoidedLoss	True
714.567	2.931	Lose2	0.6446999999999999	n/a	Yes	2.931	n/a	3.0	GoodResponse	0	2.924	n/a	12	75	ISIslide	AvoidedLoss	True
717.516	0.25	Control	0.6494	0.0	Yes	3.234	0.016	n/a	GoodResponse	0	n/a	n/a	12	76	Cue	Neutral	True
717.766	4.05	Control	0.6494	0.0	Yes	3.234	0.0	n/a	GoodResponse	0	n/a	n/a	12	76	Fixation	Neutral	True
721.814	0.35	Control	0.6494	0.002	Yes	3.234	-0.002	3.0	GoodResponse	0	0.224	721.038	12	76	Target	Neutral	True
722.038	0.3	Control	0.6494	0.002	Yes	3.234	-0.002	3.0	GoodResponse	0	0.224	n/a	12	76	ButtonPress	Neutral	True
722.164	0.35	Control	0.6494	n/a	Yes	3.234	n/a	n/a	GoodResponse	0	n/a	n/a	12	76	Blank	Neutral	True
722.514	1.45	Control	0.6494	n/a	Yes	3.234	n/a	5.0	GoodResponse	0	0.042	721.556	12	76	Feedback	Neutral	True
723.963	3.234	Control	0.6494	n/a	Yes	3.234	n/a	n/a	GoodResponse	0	0.0	n/a	12	76	ISIslide	Neutral	True
727.229	0.25	Lose2	0.6537999999999999	0.0	Yes	2.571	0.029	n/a	GoodResponse	0	n/a	n/a	12	77	Cue	AvoidedLoss	True
727.479	3.95	Lose2	0.6537999999999999	0.0	Yes	2.571	0.0	n/a	GoodResponse	0	n/a	n/a	12	77	Fixation	AvoidedLoss	True
731.427	0.36	Lose2	0.6537999999999999	0.002	Yes	2.571	-0.002	3.0	GoodResponse	0	0.214	730.641	12	77	Target	AvoidedLoss	True
731.641	0.3	Lose2	0.6537999999999999	0.002	Yes	2.571	-0.002	3.0	GoodResponse	0	0.214	n/a	12	77	ButtonPress	AvoidedLoss	True
731.794	0.34	Lose2	0.6537999999999999	n/a	Yes	2.571	n/a	n/a	GoodResponse	0	n/a	n/a	12	77	Blank	AvoidedLoss	True
732.127	1.45	Lose2	0.6537999999999999	n/a	Yes	2.571	n/a	5.0	GoodResponse	0	0.038	731.165	12	77	Feedback	AvoidedLoss	True
733.577	2.571	Lose2	0.6537999999999999	n/a	Yes	2.571	n/a	n/a	GoodResponse	0	0.0	n/a	12	77	ISIslide	AvoidedLoss	True
