onset	duration	cue_type	current_mean_accuracy	duration_error	is_hit	isi_adjusted	onset_delay	response	response_type	reward	rt	rt_time	total_reward	trial_number	trial_phase	trial_type	one_press
11.106	0.25	Control	1.0	0.0	Yes	2.944	0.006	n/a	GoodResponse	0	n/a	n/a	0	0	Cue	Neutral	False
11.357	3.85	Control	1.0	0.0	Yes	2.944	0.001	2.0	GoodResponse	0	0.801	11.158	0	0	Fixation	Neutral	False
12.158	0.3	Control	1.0	0.0	Yes	2.944	0.001	2.0	GoodResponse	0	0.801	n/a	0	0	ButtonPress	Neutral	False
15.202	0.4	Control	1.0	0.004	Yes	2.944	-0.004	2.0	GoodResponse	0	0.281	14.483	0	0	Target	Neutral	False
15.483	0.3	Control	1.0	0.004	Yes	2.944	-0.004	2.0	GoodResponse	0	0.281	n/a	0	0	ButtonPress	Neutral	False
15.603	0.3	Control	1.0	n/a	Yes	2.944	n/a	n/a	GoodResponse	0	n/a	n/a	0	0	Blank	Neutral	False
15.904	1.45	Control	1.0	n/a	Yes	2.944	n/a	5.0	GoodResponse	0	0.021	14.925	0	0	Feedback	Neutral	False
17.358	2.944	Control	1.0	n/a	Yes	2.944	n/a	n/a	GoodResponse	0	0.0	n/a	0	0	ISIslide	Neutral	False
20.317	0.25	Lose2	1.0	0.0	Yes	2.783	0.017	n/a	GoodResponse	0	n/a	n/a	0	1	Cue	AvoidedLoss	True
20.568	4.0	Lose2	1.0	0.0	Yes	2.783	0.001	n/a	GoodResponse	0	n/a	n/a	0	1	Fixation	AvoidedLoss	True
24.563	0.39	Lose2	1.0	0.004	Yes	2.783	-0.004	2.0	GoodResponse	0	0.236	23.799	0	1	Target	AvoidedLoss	True
24.799	0.3	Lose2	1.0	0.004	Yes	2.783	-0.004	2.0	GoodResponse	0	0.236	n/a	0	1	ButtonPress	AvoidedLoss	True
24.964	0.31	Lose2	1.0	n/a	Yes	2.783	n/a	n/a	GoodResponse	0	n/a	n/a	0	1	Blank	AvoidedLoss	True
25.265	1.45	Lose2	1.0	n/a	Yes	2.783	n/a	5.0	GoodResponse	0	0.026	24.291	0	1	Feedback	AvoidedLoss	True
26.719	2.783	Lose2	1.0	n/a	Yes	2.783	n/a	n/a	GoodResponse	0	0.0	n/a	0	1	ISIslide	AvoidedLoss	True
29.528	0.25	Control	1.0	0.0	Yes	2.572	0.028	n/a	GoodResponse	0	n/a	n/a	0	2	Cue	Neutral	True
29.778	4.1	Control	1.0	0.0	Yes	2.572	0.0	n/a	GoodResponse	0	n/a	n/a	0	2	Fixation	Neutral	True
33.874	0.38	Control	1.0	0.004	Yes	2.572	-0.004	2.0	GoodResponse	0	0.243	33.117	0	2	Target	Neutral	True
34.117	0.3	Control	1.0	0.004	Yes	2.572	-0.004	2.0	GoodResponse	0	0.243	n/a	0	2	ButtonPress	Neutral	True
34.258	0.32	Control	1.0	n/a	Yes	2.572	n/a	n/a	GoodResponse	0	n/a	n/a	0	2	Blank	Neutral	True
34.576	1.45	Control	1.0	n/a	Yes	2.572	n/a	5.0	GoodResponse	0	0.032	33.608	0	2	Feedback	Neutral	True
36.03	2.572	Control	1.0	n/a	Yes	2.572	n/a	n/a	GoodResponse	0	0.0	n/a	0	2	ISIslide	Neutral	True
38.621	0.25	Win2	1.0	0.001	Yes	2.829	0.021	n/a	GoodResponse	1	n/a	n/a	1	3	Cue	Win	True
38.872	3.95	Win2	1.0	0.0	Yes	2.829	0.001	n/a	GoodResponse	1	n/a	n/a	1	3	Fixation	Win	True
42.817	0.37	Win2	1.0	0.004	Yes	2.829	-0.004	2.0	GoodResponse	1	0.236	42.053	1	3	Target	Win	True
43.053	0.3	Win2	1.0	0.004	Yes	2.829	-0.004	2.0	GoodResponse	1	0.236	n/a	1	3	ButtonPress	Win	True
43.202	0.33	Win2	1.0	n/a	Yes	2.829	n/a	n/a	GoodResponse	1	n/a	n/a	1	3	Blank	Win	True
43.519	1.45	Win2	1.0	n/a	Yes	2.829	n/a	5.0	GoodResponse	1	0.016	42.535	1	3	Feedback	Win	True
44.974	2.829	Win2	1.0	n/a	Yes	2.829	n/a	n/a	GoodResponse	1	0.0	n/a	1	3	ISIslide	Win	True
47.816	0.25	Win2	1.0	0.0	Yes	3.284	0.016	n/a	GoodResponse	1	n/a	n/a	2	4	Cue	Win	True
48.066	4.0	Win2	1.0	0.0	Yes	3.284	0.0	n/a	GoodResponse	1	n/a	n/a	2	4	Fixation	Win	True
52.062	0.36	Win2	1.0	0.004	Yes	3.284	-0.004	2.0	GoodResponse	1	0.203	51.265	2	4	Target	Win	True
52.265	0.3	Win2	1.0	0.004	Yes	3.284	-0.004	2.0	GoodResponse	1	0.203	n/a	2	4	ButtonPress	Win	True
52.429	0.34	Win2	1.0	n/a	Yes	3.284	n/a	n/a	GoodResponse	1	n/a	n/a	2	4	Blank	Win	True
52.764	1.45	Win2	1.0	n/a	Yes	3.284	n/a	5.0	GoodResponse	1	0.039	51.803	2	4	Feedback	Win	True
54.218	3.284	Win2	1.0	n/a	Yes	3.284	n/a	n/a	GoodResponse	1	0.0	n/a	2	4	ISIslide	Win	True
57.528	0.25	Win2	0.8332999999999999	0.0	No	2.772	0.028	n/a	NoResponse	0	n/a	n/a	2	5	Cue	MissedWin	False
57.779	4.0	Win2	0.8332999999999999	0.0	No	2.772	0.001	2.0	NoResponse	0	3.921	60.7	2	5	Fixation	MissedWin	False
61.7	0.3	Win2	0.8332999999999999	0.0	No	2.772	0.001	2.0	NoResponse	0	3.921	n/a	2	5	ButtonPress	MissedWin	False
61.774	0.35	Win2	0.8332999999999999	0.004	No	2.772	-0.004	2.0	NoResponse	0	0.405	61.179	2	5	Target	MissedWin	False
62.125	0.35	Win2	0.8332999999999999	n/a	No	2.772	n/a	n/a	NoResponse	0	n/a	n/a	2	5	Blank	MissedWin	False
62.179	0.3	Win2	0.8332999999999999	0.004	No	2.772	-0.004	2.0	NoResponse	0	0.405	n/a	2	5	ButtonPress	MissedWin	False
62.476	1.45	Win2	0.8332999999999999	n/a	No	2.772	n/a	5.0	NoResponse	0	0.034	61.51	2	5	Feedback	MissedWin	False
63.93	2.772	Win2	0.8332999999999999	n/a	No	2.772	n/a	n/a	NoResponse	0	0.0	n/a	2	5	ISIslide	MissedWin	False
66.722	0.25	Lose2	0.8571	0.0	Yes	2.728	0.022	n/a	GoodResponse	0	n/a	n/a	2	6	Cue	AvoidedLoss	True
66.973	3.95	Lose2	0.8571	0.0	Yes	2.728	0.001	n/a	GoodResponse	0	n/a	n/a	2	6	Fixation	AvoidedLoss	True
70.918	0.34	Lose2	0.8571	0.004	Yes	2.728	-0.004	2.0	GoodResponse	0	0.232	70.15	2	6	Target	AvoidedLoss	True
71.15	0.3	Lose2	0.8571	0.004	Yes	2.728	-0.004	2.0	GoodResponse	0	0.232	n/a	2	6	ButtonPress	AvoidedLoss	True
71.269	0.36	Lose2	0.8571	n/a	Yes	2.728	n/a	n/a	GoodResponse	0	n/a	n/a	2	6	Blank	AvoidedLoss	True
71.62	1.45	Lose2	0.8571	n/a	Yes	2.728	n/a	5.0	GoodResponse	0	0.012	70.632	2	6	Feedback	AvoidedLoss	True
73.074	2.728	Lose2	0.8571	n/a	Yes	2.728	n/a	n/a	GoodResponse	0	0.0	n/a	2	6	ISIslide	AvoidedLoss	True
75.816	0.25	Lose2	0.875	0.0	Yes	4.034	0.016	n/a	GoodResponse	0	n/a	n/a	2	7	Cue	AvoidedLoss	True
76.067	4.05	Lose2	0.875	0.0	Yes	4.034	0.001	n/a	GoodResponse	0	n/a	n/a	2	7	Fixation	AvoidedLoss	True
80.112	0.33	Lose2	0.875	0.004	Yes	4.034	-0.004	2.0	GoodResponse	0	0.246	79.358	2	7	Target	AvoidedLoss	True
80.358	0.3	Lose2	0.875	0.004	Yes	4.034	-0.004	2.0	GoodResponse	0	0.246	n/a	2	7	ButtonPress	AvoidedLoss	True
80.446	0.37	Lose2	0.875	n/a	Yes	4.034	n/a	n/a	GoodResponse	0	n/a	n/a	2	7	Blank	AvoidedLoss	True
80.814	1.45	Lose2	0.875	n/a	Yes	4.034	n/a	5.0	GoodResponse	0	0.037	79.851	2	7	Feedback	AvoidedLoss	True
82.268	4.034	Lose2	0.875	n/a	Yes	4.034	n/a	n/a	GoodResponse	0	0.0	n/a	2	7	ISIslide	AvoidedLoss	True
86.331	0.25	Lose2	0.8889	0.0	Yes	3.019	0.031	n/a	GoodResponse	0	n/a	n/a	2	8	Cue	AvoidedLoss	True
86.581	3.95	Lose2	0.8889	0.0	Yes	3.019	0.0	n/a	GoodResponse	0	n/a	n/a	2	8	Fixation	AvoidedLoss	True
90.526	0.32	Lose2	0.8889	0.005	Yes	3.019	-0.005	2.0	GoodResponse	0	0.272	89.798	2	8	Target	AvoidedLoss	True
90.798	0.3	Lose2	0.8889	0.005	Yes	3.019	-0.005	2.0	GoodResponse	0	0.272	n/a	2	8	ButtonPress	AvoidedLoss	True
90.861	0.38	Lose2	0.8889	n/a	Yes	3.019	n/a	n/a	GoodResponse	0	n/a	n/a	2	8	Blank	AvoidedLoss	True
91.229	1.45	Lose2	0.8889	n/a	Yes	3.019	n/a	5.0	GoodResponse	0	0.012	90.241	2	8	Feedback	AvoidedLoss	True
92.683	3.019	Lose2	0.8889	n/a	Yes	3.019	n/a	n/a	GoodResponse	0	0.0	n/a	2	8	ISIslide	AvoidedLoss	True
95.725	0.25	Lose2	0.9	0.0	Yes	3.125	0.025	n/a	GoodResponse	0	n/a	n/a	2	9	Cue	AvoidedLoss	True
95.976	3.95	Lose2	0.9	0.0	Yes	3.125	0.001	n/a	GoodResponse	0	n/a	n/a	2	9	Fixation	AvoidedLoss	True
99.921	0.31	Lose2	0.9	0.004	Yes	3.125	-0.004	2.0	GoodResponse	0	0.27	99.191	2	9	Target	AvoidedLoss	True
100.191	0.3	Lose2	0.9	0.004	Yes	3.125	-0.004	2.0	GoodResponse	0	0.27	n/a	2	9	ButtonPress	AvoidedLoss	True
100.239	0.39	Lose2	0.9	n/a	Yes	3.125	n/a	n/a	GoodResponse	0	n/a	n/a	2	9	Blank	AvoidedLoss	True
100.623	1.45	Lose2	0.9	n/a	Yes	3.125	n/a	5.0	GoodResponse	0	0.033	99.656	2	9	Feedback	AvoidedLoss	True
102.078	3.125	Lose2	0.9	n/a	Yes	3.125	n/a	n/a	GoodResponse	0	0.0	n/a	2	9	ISIslide	AvoidedLoss	True
105.22	0.25	Control	0.9091	0.0	Yes	3.28	0.02	n/a	GoodResponse	0	n/a	n/a	2	10	Cue	Neutral	True
105.471	4.0	Control	0.9091	0.0	Yes	3.28	0.001	n/a	GoodResponse	0	n/a	n/a	2	10	Fixation	Neutral	True
109.466	0.3	Control	0.9091	0.004	Yes	3.28	-0.004	2.0	GoodResponse	0	0.222	108.688	2	10	Target	Neutral	True
109.688	0.3	Control	0.9091	0.004	Yes	3.28	-0.004	2.0	GoodResponse	0	0.222	n/a	2	10	ButtonPress	Neutral	True
109.767	0.4	Control	0.9091	n/a	Yes	3.28	n/a	n/a	GoodResponse	0	n/a	n/a	2	10	Blank	Neutral	True
110.168	1.45	Control	0.9091	n/a	Yes	3.28	n/a	5.0	GoodResponse	0	0.049	109.217	2	10	Feedback	Neutral	True
111.623	3.28	Control	0.9091	n/a	Yes	3.28	n/a	n/a	GoodResponse	0	0.0	n/a	2	10	ISIslide	Neutral	True
114.916	0.25	Lose2	0.9167000000000001	0.0	Yes	2.734	0.016	n/a	GoodResponse	0	n/a	n/a	2	11	Cue	AvoidedLoss	True
115.167	4.05	Lose2	0.9167000000000001	0.0	Yes	2.734	0.001	n/a	GoodResponse	0	n/a	n/a	2	11	Fixation	AvoidedLoss	True
119.212	0.29	Lose2	0.9167000000000001	0.004	Yes	2.734	-0.004	2.0	GoodResponse	0	0.216	118.428	2	11	Target	AvoidedLoss	True
119.428	0.3	Lose2	0.9167000000000001	0.004	Yes	2.734	-0.004	2.0	GoodResponse	0	0.216	n/a	2	11	ButtonPress	AvoidedLoss	True
119.513	0.41	Lose2	0.9167000000000001	n/a	Yes	2.734	n/a	n/a	GoodResponse	0	n/a	n/a	2	11	Blank	AvoidedLoss	True
119.914	1.45	Lose2	0.9167000000000001	n/a	Yes	2.734	n/a	5.0	GoodResponse	0	0.009	118.923	2	11	Feedback	AvoidedLoss	True
121.369	2.734	Lose2	0.9167000000000001	n/a	Yes	2.734	n/a	n/a	GoodResponse	0	0.0	n/a	2	11	ISIslide	AvoidedLoss	True
124.127	0.25	Control	0.8462000000000001	0.0	No	2.973	0.027	n/a	NoResponse	0	n/a	n/a	2	12	Cue	Neutral	True
124.378	3.9	Control	0.8462000000000001	0.0	No	2.973	0.001	n/a	NoResponse	0	n/a	n/a	2	12	Fixation	Neutral	True
128.273	0.28	Control	0.8462000000000001	0.004	No	2.973	-0.004	2.0	NoResponse	0	0.339	127.612	2	12	Target	Neutral	True
128.557	0.42	Control	0.8462000000000001	n/a	No	2.973	n/a	n/a	NoResponse	0	n/a	n/a	2	12	Blank	Neutral	True
128.612	0.3	Control	0.8462000000000001	0.004	No	2.973	-0.004	2.0	NoResponse	0	0.339	n/a	2	12	ButtonPress	Neutral	True
128.975	1.45	Control	0.8462000000000001	n/a	No	2.973	n/a	5.0	NoResponse	0	0.022	127.997	2	12	Feedback	Neutral	True
130.429	2.973	Control	0.8462000000000001	n/a	No	2.973	n/a	n/a	NoResponse	0	0.0	n/a	2	12	ISIslide	Neutral	True
133.421	0.25	Control	0.8571	0.0	Yes	2.779	0.021	n/a	GoodResponse	0	n/a	n/a	2	13	Cue	Neutral	True
133.672	4.0	Control	0.8571	0.0	Yes	2.779	0.001	n/a	GoodResponse	0	n/a	n/a	2	13	Fixation	Neutral	True
137.667	0.27	Control	0.8571	0.004	Yes	2.779	-0.004	2.0	GoodResponse	0	0.244	136.911	2	13	Target	Neutral	True
137.911	0.3	Control	0.8571	0.004	Yes	2.779	-0.004	2.0	GoodResponse	0	0.244	n/a	2	13	ButtonPress	Neutral	True
137.951	0.43	Control	0.8571	n/a	Yes	2.779	n/a	n/a	GoodResponse	0	n/a	n/a	2	13	Blank	Neutral	True
138.369	1.45	Control	0.8571	n/a	Yes	2.779	n/a	5.0	GoodResponse	0	0.042	137.411	2	13	Feedback	Neutral	True
139.824	2.779	Control	0.8571	n/a	Yes	2.779	n/a	n/a	GoodResponse	0	0.0	n/a	2	13	ISIslide	Neutral	True
142.615	0.25	Win2	0.8	0.0	No	2.685	0.015	n/a	LatePress	0	n/a	n/a	2	14	Cue	MissedWin	True
142.866	4.1	Win2	0.8	0.0	No	2.685	0.001	n/a	LatePress	0	n/a	n/a	2	14	Fixation	MissedWin	True
146.962	0.26	Win2	0.8	0.003	No	2.685	-0.003	2.0	LatePress	0	0.264	146.226	2	14	Target	MissedWin	True
147.226	0.3	Win2	0.8	0.003	No	2.685	-0.003	2.0	LatePress	0	0.264	n/a	2	14	ButtonPress	MissedWin	True
147.229	0.44	Win2	0.8	n/a	No	2.685	n/a	n/a	LatePress	0	n/a	n/a	2	14	Blank	MissedWin	True
147.664	1.45	Win2	0.8	n/a	No	2.685	n/a	5.0	LatePress	0	0.016	146.68	2	14	Feedback	MissedWin	True
149.118	2.685	Win2	0.8	n/a	No	2.685	n/a	n/a	LatePress	0	0.0	n/a	2	14	ISIslide	MissedWin	True
151.826	0.25	Control	0.8125	0.0	Yes	2.974	0.026	n/a	GoodResponse	0	n/a	n/a	2	15	Cue	Neutral	False
152.077	4.0	Control	0.8125	0.0	Yes	2.974	0.001	2.0	GoodResponse	0	3.916	154.993	2	15	Fixation	Neutral	False
155.993	0.3	Control	0.8125	0.0	Yes	2.974	0.001	2.0	GoodResponse	0	3.916	n/a	2	15	ButtonPress	Neutral	False
156.072	0.25	Control	0.8125	0.004	Yes	2.974	-0.004	2.0	GoodResponse	0	0.211	155.283	2	15	Target	Neutral	False
156.283	0.3	Control	0.8125	0.004	Yes	2.974	-0.004	2.0	GoodResponse	0	0.211	n/a	2	15	ButtonPress	Neutral	False
156.323	0.45	Control	0.8125	n/a	Yes	2.974	n/a	n/a	GoodResponse	0	n/a	n/a	2	15	Blank	Neutral	False
156.774	1.45	Control	0.8125	n/a	Yes	2.974	n/a	5.0	GoodResponse	0	0.027	155.801	2	15	Feedback	Neutral	False
158.229	2.974	Control	0.8125	n/a	Yes	2.974	n/a	n/a	GoodResponse	0	0.0	n/a	2	15	ISIslide	Neutral	False
161.221	0.25	Win2	0.7646999999999999	0.0	No	2.879	0.021	n/a	LatePress	0	n/a	n/a	2	16	Cue	MissedWin	True
161.472	4.0	Win2	0.7646999999999999	0.0	No	2.879	0.001	n/a	LatePress	0	n/a	n/a	2	16	Fixation	MissedWin	True
165.467	0.24	Win2	0.7646999999999999	0.004	No	2.879	-0.004	2.0	LatePress	0	0.242	164.709	2	16	Target	MissedWin	True
165.709	0.3	Win2	0.7646999999999999	0.004	No	2.879	-0.004	2.0	LatePress	0	0.242	n/a	2	16	ButtonPress	MissedWin	True
165.718	0.46	Win2	0.7646999999999999	n/a	No	2.879	n/a	n/a	LatePress	0	n/a	n/a	2	16	Blank	MissedWin	True
166.169	1.45	Win2	0.7646999999999999	n/a	No	2.879	n/a	5.0	LatePress	0	0.047	165.216	2	16	Feedback	MissedWin	True
167.623	2.879	Win2	0.7646999999999999	n/a	No	2.879	n/a	n/a	LatePress	0	0.0	n/a	2	16	ISIslide	MissedWin	True
170.515	0.25	Lose2	0.7778	0.0	Yes	2.735	0.015	n/a	GoodResponse	0	n/a	n/a	2	17	Cue	AvoidedLoss	True
170.766	3.95	Lose2	0.7778	0.0	Yes	2.735	0.001	n/a	GoodResponse	0	n/a	n/a	2	17	Fixation	AvoidedLoss	True
174.711	0.23	Lose2	0.7778	0.004	Yes	2.735	-0.004	2.0	GoodResponse	0	0.206	173.917	2	17	Target	AvoidedLoss	True
174.917	0.3	Lose2	0.7778	0.004	Yes	2.735	-0.004	2.0	GoodResponse	0	0.206	n/a	2	17	ButtonPress	AvoidedLoss	True
174.945	0.47	Lose2	0.7778	n/a	Yes	2.735	n/a	n/a	GoodResponse	0	n/a	n/a	2	17	Blank	AvoidedLoss	True
175.413	1.45	Lose2	0.7778	n/a	Yes	2.735	n/a	5.0	GoodResponse	0	0.022	174.435	2	17	Feedback	AvoidedLoss	True
176.868	2.735	Lose2	0.7778	n/a	Yes	2.735	n/a	n/a	GoodResponse	0	0.0	n/a	2	17	ISIslide	AvoidedLoss	True
179.626	0.25	Lose2	0.7895	0.0	Yes	2.724	0.026	n/a	GoodResponse	0	n/a	n/a	2	18	Cue	AvoidedLoss	True
179.877	4.05	Lose2	0.7895	0.0	Yes	2.724	0.001	n/a	GoodResponse	0	n/a	n/a	2	18	Fixation	AvoidedLoss	True
183.922	0.22	Lose2	0.7895	0.004	Yes	2.724	-0.004	2.0	GoodResponse	0	0.215	183.137	2	18	Target	AvoidedLoss	True
184.137	0.3	Lose2	0.7895	0.004	Yes	2.724	-0.004	2.0	GoodResponse	0	0.215	n/a	2	18	ButtonPress	AvoidedLoss	True
184.156	0.48	Lose2	0.7895	n/a	Yes	2.724	n/a	n/a	GoodResponse	0	n/a	n/a	2	18	Blank	AvoidedLoss	True
184.624	1.45	Lose2	0.7895	n/a	Yes	2.724	n/a	5.0	GoodResponse	0	0.031	183.655	2	18	Feedback	AvoidedLoss	True
186.079	2.724	Lose2	0.7895	n/a	Yes	2.724	n/a	n/a	GoodResponse	0	0.0	n/a	2	18	ISIslide	AvoidedLoss	True
188.82	0.25	Control	0.75	0.0	No	2.93	0.02	n/a	NoResponse	0	n/a	n/a	2	19	Cue	Neutral	True
189.071	3.95	Control	0.75	0.0	No	2.93	0.001	n/a	NoResponse	0	n/a	n/a	2	19	Fixation	Neutral	True
193.016	0.21	Control	0.75	0.004	No	2.93	-0.004	2.0	NoResponse	0	0.229	192.245	2	19	Target	Neutral	True
193.233	0.49	Control	0.75	n/a	No	2.93	n/a	n/a	NoResponse	0	n/a	n/a	2	19	Blank	Neutral	True
193.245	0.3	Control	0.75	0.004	No	2.93	-0.004	2.0	NoResponse	0	0.229	n/a	2	19	ButtonPress	Neutral	True
193.718	1.45	Control	0.75	n/a	No	2.93	n/a	5.0	NoResponse	0	0.01	192.728	2	19	Feedback	Neutral	True
195.172	2.93	Control	0.75	n/a	No	2.93	n/a	n/a	NoResponse	0	0.0	n/a	2	19	ISIslide	Neutral	True
198.114	0.25	Control	0.7143	0.001	No	2.636	0.014	n/a	NoResponse	0	n/a	n/a	2	20	Cue	Neutral	True
198.365	4.05	Control	0.7143	0.0	No	2.636	0.001	n/a	NoResponse	0	n/a	n/a	2	20	Fixation	Neutral	True
202.411	0.2	Control	0.7143	0.003	No	2.636	-0.003	2.0	NoResponse	0	0.257	201.668	2	20	Target	Neutral	True
202.611	0.5	Control	0.7143	n/a	No	2.636	n/a	n/a	NoResponse	0	n/a	n/a	2	20	Blank	Neutral	True
202.668	0.3	Control	0.7143	0.003	No	2.636	-0.003	2.0	NoResponse	0	0.257	n/a	2	20	ButtonPress	Neutral	True
203.113	1.45	Control	0.7143	n/a	No	2.636	n/a	5.0	NoResponse	0	0.029	202.142	2	20	Feedback	Neutral	True
204.567	2.636	Control	0.7143	n/a	No	2.636	n/a	n/a	NoResponse	0	0.0	n/a	2	20	ISIslide	Neutral	True
207.225	0.25	Control	0.6818000000000001	0.0	No	2.775	0.025	n/a	NoResponse	0	n/a	n/a	2	21	Cue	Neutral	True
207.476	4.1	Control	0.6818000000000001	0.0	No	2.775	0.001	n/a	NoResponse	0	n/a	n/a	2	21	Fixation	Neutral	True
211.571	0.19	Control	0.6818000000000001	0.004	No	2.775	-0.004	2.0	NoResponse	0	0.291	210.862	2	21	Target	Neutral	True
211.772	0.51	Control	0.6818000000000001	n/a	No	2.775	n/a	n/a	NoResponse	0	n/a	n/a	2	21	Blank	Neutral	True
211.862	0.3	Control	0.6818000000000001	0.004	No	2.775	-0.004	2.0	NoResponse	0	0.291	n/a	2	21	ButtonPress	Neutral	True
212.273	1.45	Control	0.6818000000000001	n/a	No	2.775	n/a	5.0	NoResponse	0	0.04	211.313	2	21	Feedback	Neutral	True
213.728	2.775	Control	0.6818000000000001	n/a	No	2.775	n/a	n/a	NoResponse	0	0.0	n/a	2	21	ISIslide	Neutral	True
216.519	0.25	Control	0.6522	0.0	No	2.781	0.019	n/a	NoResponse	0	n/a	n/a	2	22	Cue	Neutral	True
216.77	4.0	Control	0.6522	0.0	No	2.781	0.001	n/a	NoResponse	0	n/a	n/a	2	22	Fixation	Neutral	True
220.765	0.18	Control	0.6522	0.004	No	2.781	-0.004	2.0	NoResponse	0	0.2	219.965	2	22	Target	Neutral	True
220.949	0.52	Control	0.6522	n/a	No	2.781	n/a	n/a	NoResponse	0	n/a	n/a	2	22	Blank	Neutral	True
220.965	0.3	Control	0.6522	0.004	No	2.781	-0.004	2.0	NoResponse	0	0.2	n/a	2	22	ButtonPress	Neutral	True
221.468	1.45	Control	0.6522	n/a	No	2.781	n/a	5.0	NoResponse	0	0.015	220.483	2	22	Feedback	Neutral	True
222.922	2.781	Control	0.6522	n/a	No	2.781	n/a	n/a	NoResponse	0	0.0	n/a	2	22	ISIslide	Neutral	True
225.73	0.25	Control	0.625	0.0	No	2.77	0.03	n/a	NoResponse	0	n/a	n/a	2	23	Cue	Neutral	True
225.981	3.9	Control	0.625	0.0	No	2.77	0.001	n/a	NoResponse	0	n/a	n/a	2	23	Fixation	Neutral	True
229.876	0.19	Control	0.625	0.004	No	2.77	-0.004	2.0	NoResponse	0	0.254	229.13	2	23	Target	Neutral	True
230.077	0.51	Control	0.625	n/a	No	2.77	n/a	n/a	NoResponse	0	n/a	n/a	2	23	Blank	Neutral	True
230.13	0.3	Control	0.625	0.004	No	2.77	-0.004	2.0	NoResponse	0	0.254	n/a	2	23	ButtonPress	Neutral	True
230.578	1.45	Control	0.625	n/a	No	2.77	n/a	5.0	NoResponse	0	0.028	229.606	2	23	Feedback	Neutral	True
232.032	2.77	Control	0.625	n/a	No	2.77	n/a	n/a	NoResponse	0	0.0	n/a	2	23	ISIslide	Neutral	True
234.824	0.25	Win2	0.6	0.0	No	3.126	0.024	n/a	NoResponse	0	n/a	n/a	2	24	Cue	MissedWin	True
235.075	3.95	Win2	0.6	0.0	No	3.126	0.001	n/a	NoResponse	0	n/a	n/a	2	24	Fixation	MissedWin	True
239.02	0.2	Win2	0.6	0.004	No	3.126	-0.004	2.0	NoResponse	0	0.213	238.233	2	24	Target	MissedWin	True
239.221	0.5	Win2	0.6	n/a	No	3.126	n/a	n/a	NoResponse	0	n/a	n/a	2	24	Blank	MissedWin	True
239.233	0.3	Win2	0.6	0.004	No	3.126	-0.004	2.0	NoResponse	0	0.213	n/a	2	24	ButtonPress	MissedWin	True
239.722	1.45	Win2	0.6	n/a	No	3.126	n/a	5.0	NoResponse	0	0.007	238.729	2	24	Feedback	MissedWin	True
241.176	3.126	Win2	0.6	n/a	No	3.126	n/a	n/a	NoResponse	0	0.0	n/a	2	24	ISIslide	MissedWin	True
244.319	0.25	Win2	0.5769	0.0	No	3.081	0.019	n/a	NoResponse	0	n/a	n/a	2	25	Cue	MissedWin	True
244.57	4.0	Win2	0.5769	0.0	No	3.081	0.001	n/a	NoResponse	0	n/a	n/a	2	25	Fixation	MissedWin	True
248.565	0.21	Win2	0.5769	0.004	No	3.081	-0.004	2.0	NoResponse	0	0.234	247.799	2	25	Target	MissedWin	True
248.782	0.49	Win2	0.5769	n/a	No	3.081	n/a	n/a	NoResponse	0	n/a	n/a	2	25	Blank	MissedWin	True
248.799	0.3	Win2	0.5769	0.004	No	3.081	-0.004	2.0	NoResponse	0	0.234	n/a	2	25	ButtonPress	MissedWin	True
249.267	1.45	Win2	0.5769	n/a	No	3.081	n/a	5.0	NoResponse	0	0.021	248.288	2	25	Feedback	MissedWin	True
250.722	3.081	Win2	0.5769	n/a	No	3.081	n/a	n/a	NoResponse	0	0.0	n/a	2	25	ISIslide	MissedWin	True
253.831	0.25	Win2	0.5926	0.0	Yes	2.919	0.031	n/a	GoodResponse	1	n/a	n/a	3	26	Cue	Win	True
254.082	3.95	Win2	0.5926	0.0	Yes	2.919	0.001	n/a	GoodResponse	1	n/a	n/a	3	26	Fixation	Win	True
258.027	0.22	Win2	0.5926	0.004	Yes	2.919	-0.004	2.0	GoodResponse	1	0.199	257.226	3	26	Target	Win	True
258.226	0.3	Win2	0.5926	0.004	Yes	2.919	-0.004	2.0	GoodResponse	1	0.199	n/a	3	26	ButtonPress	Win	True
258.261	0.48	Win2	0.5926	n/a	Yes	2.919	n/a	n/a	GoodResponse	1	n/a	n/a	3	26	Blank	Win	True
258.729	1.45	Win2	0.5926	n/a	Yes	2.919	n/a	5.0	GoodResponse	1	0.022	257.751	3	26	Feedback	Win	True
260.183	2.919	Win2	0.5926	n/a	Yes	2.919	n/a	n/a	GoodResponse	1	0.0	n/a	3	26	ISIslide	Win	True
263.125	0.25	Lose2	0.6071	0.0	Yes	2.825	0.025	n/a	GoodResponse	0	n/a	n/a	3	27	Cue	AvoidedLoss	True
263.376	4.05	Lose2	0.6071	0.0	Yes	2.825	0.001	n/a	GoodResponse	0	n/a	n/a	3	27	Fixation	AvoidedLoss	True
267.421	0.23	Lose2	0.6071	0.004	Yes	2.825	-0.004	2.0	GoodResponse	0	0.183	266.604	3	27	Target	AvoidedLoss	True
267.604	0.3	Lose2	0.6071	0.004	Yes	2.825	-0.004	2.0	GoodResponse	0	0.183	n/a	3	27	ButtonPress	AvoidedLoss	True
267.655	0.47	Lose2	0.6071	n/a	Yes	2.825	n/a	n/a	GoodResponse	0	n/a	n/a	3	27	Blank	AvoidedLoss	True
268.124	1.45	Lose2	0.6071	n/a	Yes	2.825	n/a	5.0	GoodResponse	0	0.041	267.165	3	27	Feedback	AvoidedLoss	True
269.578	2.825	Lose2	0.6071	n/a	Yes	2.825	n/a	n/a	GoodResponse	0	0.0	n/a	3	27	ISIslide	AvoidedLoss	True
272.42	0.25	Control	0.5861999999999999	0.0	No	2.83	0.02	n/a	NoResponse	0	n/a	n/a	3	28	Cue	Neutral	True
272.67	4.05	Control	0.5861999999999999	0.001	No	2.83	0.0	n/a	NoResponse	0	n/a	n/a	3	28	Fixation	Neutral	True
276.716	0.24	Control	0.5861999999999999	0.004	No	2.83	-0.004	2.0	NoResponse	0	0.498	276.214	3	28	Target	Neutral	True
276.967	0.46	Control	0.5861999999999999	n/a	No	2.83	n/a	n/a	NoResponse	0	n/a	n/a	3	28	Blank	Neutral	True
277.214	0.3	Control	0.5861999999999999	0.004	No	2.83	-0.004	2.0	NoResponse	0	0.498	n/a	3	28	ButtonPress	Neutral	True
277.418	1.45	Control	0.5861999999999999	n/a	No	2.83	n/a	5.0	NoResponse	0	0.015	276.433	3	28	Feedback	Neutral	True
278.872	2.83	Control	0.5861999999999999	n/a	No	2.83	n/a	n/a	NoResponse	0	0.0	n/a	3	28	ISIslide	Neutral	True
281.731	0.25	Lose2	0.6	0.0	Yes	2.819	0.031	n/a	GoodResponse	0	n/a	n/a	3	29	Cue	AvoidedLoss	True
281.982	3.95	Lose2	0.6	0.0	Yes	2.819	0.001	n/a	GoodResponse	0	n/a	n/a	3	29	Fixation	AvoidedLoss	True
285.927	0.25	Lose2	0.6	0.004	Yes	2.819	-0.004	2.0	GoodResponse	0	0.247	285.174	3	29	Target	AvoidedLoss	True
286.174	0.3	Lose2	0.6	0.004	Yes	2.819	-0.004	2.0	GoodResponse	0	0.247	n/a	3	29	ButtonPress	AvoidedLoss	True
286.177	0.45	Lose2	0.6	n/a	Yes	2.819	n/a	n/a	GoodResponse	0	n/a	n/a	3	29	Blank	AvoidedLoss	True
286.629	1.45	Lose2	0.6	n/a	Yes	2.819	n/a	5.0	GoodResponse	0	0.024	285.653	3	29	Feedback	AvoidedLoss	True
288.083	2.819	Lose2	0.6	n/a	Yes	2.819	n/a	n/a	GoodResponse	0	0.0	n/a	3	29	ISIslide	AvoidedLoss	True
290.925	0.25	Win2	0.6129	0.0	Yes	2.775	0.025	n/a	GoodResponse	1	n/a	n/a	4	30	Cue	Win	True
291.176	3.9	Win2	0.6129	0.0	Yes	2.775	0.001	n/a	GoodResponse	1	n/a	n/a	4	30	Fixation	Win	True
295.071	0.26	Win2	0.6129	0.004	Yes	2.775	-0.004	2.0	GoodResponse	1	0.208	294.279	4	30	Target	Win	True
295.279	0.3	Win2	0.6129	0.004	Yes	2.775	-0.004	2.0	GoodResponse	1	0.208	n/a	4	30	ButtonPress	Win	True
295.338	0.44	Win2	0.6129	n/a	Yes	2.775	n/a	n/a	GoodResponse	1	n/a	n/a	4	30	Blank	Win	True
295.773	1.45	Win2	0.6129	n/a	Yes	2.775	n/a	5.0	GoodResponse	1	0.002	294.775	4	30	Feedback	Win	True
297.227	2.775	Win2	0.6129	n/a	Yes	2.775	n/a	n/a	GoodResponse	1	0.0	n/a	4	30	ISIslide	Win	True
300.019	0.25	Lose2	0.625	0.0	Yes	2.831	0.019	n/a	GoodResponse	0	n/a	n/a	4	31	Cue	AvoidedLoss	True
300.27	4.05	Lose2	0.625	0.0	Yes	2.831	0.001	n/a	GoodResponse	0	n/a	n/a	4	31	Fixation	AvoidedLoss	True
304.315	0.27	Lose2	0.625	0.004	Yes	2.831	-0.004	2.0	GoodResponse	0	0.206	303.521	4	31	Target	AvoidedLoss	True
304.521	0.3	Lose2	0.625	0.004	Yes	2.831	-0.004	2.0	GoodResponse	0	0.206	n/a	4	31	ButtonPress	AvoidedLoss	True
304.599	0.43	Lose2	0.625	n/a	Yes	2.831	n/a	n/a	GoodResponse	0	n/a	n/a	4	31	Blank	AvoidedLoss	True
305.017	1.45	Lose2	0.625	n/a	Yes	2.831	n/a	5.0	GoodResponse	0	0.026	304.043	4	31	Feedback	AvoidedLoss	True
306.471	2.831	Lose2	0.625	n/a	Yes	2.831	n/a	n/a	GoodResponse	0	0.0	n/a	4	31	ISIslide	AvoidedLoss	True
309.33	0.25	Lose2	0.6364	0.0	Yes	2.62	0.03	n/a	GoodResponse	0	n/a	n/a	4	32	Cue	AvoidedLoss	True
309.581	4.15	Lose2	0.6364	0.0	Yes	2.62	0.001	n/a	GoodResponse	0	n/a	n/a	4	32	Fixation	AvoidedLoss	True
313.726	0.28	Lose2	0.6364	0.004	Yes	2.62	-0.004	2.0	GoodResponse	0	0.196	312.922	4	32	Target	AvoidedLoss	True
313.922	0.3	Lose2	0.6364	0.004	Yes	2.62	-0.004	2.0	GoodResponse	0	0.196	n/a	4	32	ButtonPress	AvoidedLoss	True
314.011	0.42	Lose2	0.6364	n/a	Yes	2.62	n/a	n/a	GoodResponse	0	n/a	n/a	4	32	Blank	AvoidedLoss	True
314.428	1.45	Lose2	0.6364	n/a	Yes	2.62	n/a	5.0	GoodResponse	0	0.029	313.457	4	32	Feedback	AvoidedLoss	True
315.883	2.62	Lose2	0.6364	n/a	Yes	2.62	n/a	n/a	GoodResponse	0	0.0	n/a	4	32	ISIslide	AvoidedLoss	True
318.524	0.25	Win2	0.6470999999999999	0.0	Yes	2.676	0.024	n/a	GoodResponse	1	n/a	n/a	5	33	Cue	Win	True
318.775	4.0	Win2	0.6470999999999999	0.0	Yes	2.676	0.001	n/a	GoodResponse	1	n/a	n/a	5	33	Fixation	Win	True
322.77	0.29	Win2	0.6470999999999999	0.004	Yes	2.676	-0.004	2.0	GoodResponse	1	0.229	321.999	5	33	Target	Win	True
322.999	0.3	Win2	0.6470999999999999	0.004	Yes	2.676	-0.004	2.0	GoodResponse	1	0.229	n/a	5	33	ButtonPress	Win	True
323.071	0.41	Win2	0.6470999999999999	n/a	Yes	2.676	n/a	n/a	GoodResponse	1	n/a	n/a	5	33	Blank	Win	True
323.472	1.45	Win2	0.6470999999999999	n/a	Yes	2.676	n/a	5.0	GoodResponse	1	0.01	322.482	5	33	Feedback	Win	True
324.927	2.676	Win2	0.6470999999999999	n/a	Yes	2.676	n/a	n/a	GoodResponse	1	0.0	n/a	5	33	ISIslide	Win	True
327.618	0.25	Lose2	0.6286	0.0	No	2.632	0.018	n/a	PrematurePress	-1	n/a	n/a	4	34	Cue	Loss	True
327.869	4.05	Lose2	0.6286	0.0	No	2.632	0.001	n/a	PrematurePress	-1	n/a	n/a	4	34	Fixation	Loss	True
331.914	0.3	Lose2	0.6286	0.004	No	2.632	-0.004	2.0	PrematurePress	-1	0.094	331.008	4	34	Target	Loss	True
332.008	0.3	Lose2	0.6286	0.004	No	2.632	-0.004	2.0	PrematurePress	-1	0.094	n/a	4	34	ButtonPress	Loss	True
332.215	0.4	Lose2	0.6286	n/a	No	2.632	n/a	n/a	PrematurePress	-1	n/a	n/a	4	34	Blank	Loss	True
332.616	1.45	Lose2	0.6286	n/a	No	2.632	n/a	5.0	PrematurePress	-1	0.036	331.652	4	34	Feedback	Loss	True
334.07	2.632	Lose2	0.6286	n/a	No	2.632	n/a	n/a	PrematurePress	-1	0.0	n/a	4	34	ISIslide	Loss	True
336.728	0.25	Lose2	0.6389	0.001	Yes	2.672	0.028	n/a	GoodResponse	0	n/a	n/a	4	35	Cue	AvoidedLoss	True
336.979	4.0	Lose2	0.6389	0.0	Yes	2.672	0.001	n/a	GoodResponse	0	n/a	n/a	4	35	Fixation	AvoidedLoss	True
340.974	0.31	Lose2	0.6389	0.004	Yes	2.672	-0.004	2.0	GoodResponse	0	0.211	340.185	4	35	Target	AvoidedLoss	True
341.185	0.3	Lose2	0.6389	0.004	Yes	2.672	-0.004	2.0	GoodResponse	0	0.211	n/a	4	35	ButtonPress	AvoidedLoss	True
341.292	0.39	Lose2	0.6389	n/a	Yes	2.672	n/a	n/a	GoodResponse	0	n/a	n/a	4	35	Blank	AvoidedLoss	True
341.677	1.45	Lose2	0.6389	n/a	Yes	2.672	n/a	5.0	GoodResponse	0	0.049	340.726	4	35	Feedback	AvoidedLoss	True
343.131	2.672	Lose2	0.6389	n/a	Yes	2.672	n/a	n/a	GoodResponse	0	0.0	n/a	4	35	ISIslide	AvoidedLoss	True
345.822	0.25	Control	0.6486	0.0	Yes	2.678	0.022	n/a	GoodResponse	0	n/a	n/a	4	36	Cue	Neutral	True
346.073	4.0	Control	0.6486	0.0	Yes	2.678	0.001	n/a	GoodResponse	0	n/a	n/a	4	36	Fixation	Neutral	True
350.068	0.32	Control	0.6486	0.004	Yes	2.678	-0.004	2.0	GoodResponse	0	0.249	349.317	4	36	Target	Neutral	True
350.317	0.3	Control	0.6486	0.004	Yes	2.678	-0.004	2.0	GoodResponse	0	0.249	n/a	4	36	ButtonPress	Neutral	True
350.403	0.38	Control	0.6486	n/a	Yes	2.678	n/a	n/a	GoodResponse	0	n/a	n/a	4	36	Blank	Neutral	True
350.77	1.45	Control	0.6486	n/a	Yes	2.678	n/a	5.0	GoodResponse	0	0.028	349.798	4	36	Feedback	Neutral	True
352.225	2.678	Control	0.6486	n/a	Yes	2.678	n/a	n/a	GoodResponse	0	0.0	n/a	4	36	ISIslide	Neutral	True
354.916	0.25	Win2	0.6579	0.0	Yes	2.884	0.016	n/a	GoodResponse	1	n/a	n/a	5	37	Cue	Win	True
355.167	4.0	Win2	0.6579	0.0	Yes	2.884	0.001	n/a	GoodResponse	1	n/a	n/a	5	37	Fixation	Win	True
359.162	0.33	Win2	0.6579	0.004	Yes	2.884	-0.004	2.0	GoodResponse	1	0.211	358.373	5	37	Target	Win	True
359.373	0.3	Win2	0.6579	0.004	Yes	2.884	-0.004	2.0	GoodResponse	1	0.211	n/a	5	37	ButtonPress	Win	True
359.496	0.37	Win2	0.6579	n/a	Yes	2.884	n/a	n/a	GoodResponse	1	n/a	n/a	5	37	Blank	Win	True
359.864	1.45	Win2	0.6579	n/a	Yes	2.884	n/a	5.0	GoodResponse	1	0.007	358.871	5	37	Feedback	Win	True
361.319	2.884	Win2	0.6579	n/a	Yes	2.884	n/a	n/a	GoodResponse	1	0.0	n/a	5	37	ISIslide	Win	True
364.227	0.25	Lose2	0.6667000000000001	0.0	Yes	2.823	0.027	n/a	GoodResponse	0	n/a	n/a	5	38	Cue	AvoidedLoss	True
364.478	3.95	Lose2	0.6667000000000001	0.0	Yes	2.823	0.001	n/a	GoodResponse	0	n/a	n/a	5	38	Fixation	AvoidedLoss	True
368.423	0.33	Lose2	0.6667000000000001	0.004	Yes	2.823	-0.004	2.0	GoodResponse	0	0.26	367.683	5	38	Target	AvoidedLoss	True
368.683	0.3	Lose2	0.6667000000000001	0.004	Yes	2.823	-0.004	2.0	GoodResponse	0	0.26	n/a	5	38	ButtonPress	AvoidedLoss	True
368.757	0.37	Lose2	0.6667000000000001	n/a	Yes	2.823	n/a	n/a	GoodResponse	0	n/a	n/a	5	38	Blank	AvoidedLoss	True
369.125	1.45	Lose2	0.6667000000000001	n/a	Yes	2.823	n/a	5.0	GoodResponse	0	0.015	368.14	5	38	Feedback	AvoidedLoss	True
370.58	2.823	Lose2	0.6667000000000001	n/a	Yes	2.823	n/a	n/a	GoodResponse	0	0.0	n/a	5	38	ISIslide	AvoidedLoss	True
373.421	0.25	Win2	0.675	0.0	Yes	2.979	0.021	n/a	GoodResponse	1	n/a	n/a	6	39	Cue	Win	True
373.672	4.1	Win2	0.675	0.0	Yes	2.979	0.001	n/a	GoodResponse	1	n/a	n/a	6	39	Fixation	Win	True
377.768	0.32	Win2	0.675	0.003	Yes	2.979	-0.003	2.0	GoodResponse	1	0.211	376.979	6	39	Target	Win	True
377.979	0.3	Win2	0.675	0.003	Yes	2.979	-0.003	2.0	GoodResponse	1	0.211	n/a	6	39	ButtonPress	Win	True
378.102	0.38	Win2	0.675	n/a	Yes	2.979	n/a	n/a	GoodResponse	1	n/a	n/a	6	39	Blank	Win	True
378.47	1.45	Win2	0.675	n/a	Yes	2.979	n/a	5.0	GoodResponse	1	0.036	377.506	6	39	Feedback	Win	True
379.924	2.979	Win2	0.675	n/a	Yes	2.979	n/a	n/a	GoodResponse	1	0.0	n/a	6	39	ISIslide	Win	True
382.916	0.25	Win2	0.6829000000000001	0.0	Yes	2.734	0.016	n/a	GoodResponse	1	n/a	n/a	7	40	Cue	Win	True
383.167	3.95	Win2	0.6829000000000001	0.0	Yes	2.734	0.001	n/a	GoodResponse	1	n/a	n/a	7	40	Fixation	Win	True
387.112	0.31	Win2	0.6829000000000001	0.004	Yes	2.734	-0.004	2.0	GoodResponse	1	0.217	386.329	7	40	Target	Win	True
387.329	0.3	Win2	0.6829000000000001	0.004	Yes	2.734	-0.004	2.0	GoodResponse	1	0.217	n/a	7	40	ButtonPress	Win	True
387.43	0.39	Win2	0.6829000000000001	n/a	Yes	2.734	n/a	n/a	GoodResponse	1	n/a	n/a	7	40	Blank	Win	True
387.814	1.45	Win2	0.6829000000000001	n/a	Yes	2.734	n/a	5.0	GoodResponse	1	0.008	386.822	7	40	Feedback	Win	True
389.269	2.734	Win2	0.6829000000000001	n/a	Yes	2.734	n/a	n/a	GoodResponse	1	0.0	n/a	7	40	ISIslide	Win	True
392.027	0.25	Win2	0.6905	0.0	Yes	2.773	0.027	n/a	GoodResponse	1	n/a	n/a	8	41	Cue	Win	True
392.278	3.9	Win2	0.6905	0.0	Yes	2.773	0.001	n/a	GoodResponse	1	n/a	n/a	8	41	Fixation	Win	True
396.173	0.3	Win2	0.6905	0.004	Yes	2.773	-0.004	2.0	GoodResponse	1	0.228	395.401	8	41	Target	Win	True
396.401	0.3	Win2	0.6905	0.004	Yes	2.773	-0.004	2.0	GoodResponse	1	0.228	n/a	8	41	ButtonPress	Win	True
396.474	0.4	Win2	0.6905	n/a	Yes	2.773	n/a	n/a	GoodResponse	1	n/a	n/a	8	41	Blank	Win	True
396.875	1.45	Win2	0.6905	n/a	Yes	2.773	n/a	5.0	GoodResponse	1	0.02	395.895	8	41	Feedback	Win	True
398.329	2.773	Win2	0.6905	n/a	Yes	2.773	n/a	n/a	GoodResponse	1	0.0	n/a	8	41	ISIslide	Win	True
401.121	0.25	Control	0.6977	0.0	Yes	2.929	0.021	n/a	GoodResponse	0	n/a	n/a	8	42	Cue	Neutral	True
401.371	3.85	Control	0.6977	0.001	Yes	2.929	0.0	n/a	GoodResponse	0	n/a	n/a	8	42	Fixation	Neutral	True
405.233	0.29	Control	0.6977	0.0	Yes	2.929	0.012	2.0	GoodResponse	0	0.224	404.457	8	42	Target	Neutral	True
405.457	0.3	Control	0.6977	0.0	Yes	2.929	0.012	2.0	GoodResponse	0	0.224	n/a	8	42	ButtonPress	Neutral	True
405.517	0.41	Control	0.6977	n/a	Yes	2.929	n/a	n/a	GoodResponse	0	n/a	n/a	8	42	Blank	Neutral	True
405.918	1.45	Control	0.6977	n/a	Yes	2.929	n/a	5.0	GoodResponse	0	0.001	404.919	8	42	Feedback	Neutral	True
407.373	2.929	Control	0.6977	n/a	Yes	2.929	n/a	n/a	GoodResponse	0	0.0	n/a	8	42	ISIslide	Neutral	True
410.332	0.25	Win2	0.7045	0.0	Yes	3.168	0.032	n/a	GoodResponse	1	n/a	n/a	9	43	Cue	Win	True
410.582	4.0	Win2	0.7045	0.0	Yes	3.168	0.0	n/a	GoodResponse	1	n/a	n/a	9	43	Fixation	Win	True
414.578	0.28	Win2	0.7045	0.004	Yes	3.168	-0.004	2.0	GoodResponse	1	0.254	413.832	9	43	Target	Win	True
414.832	0.3	Win2	0.7045	0.004	Yes	3.168	-0.004	2.0	GoodResponse	1	0.254	n/a	9	43	ButtonPress	Win	True
414.862	0.42	Win2	0.7045	n/a	Yes	3.168	n/a	n/a	GoodResponse	1	n/a	n/a	9	43	Blank	Win	True
415.28	1.45	Win2	0.7045	n/a	Yes	3.168	n/a	5.0	GoodResponse	1	0.007	414.287	9	43	Feedback	Win	True
416.734	3.168	Win2	0.7045	n/a	Yes	3.168	n/a	n/a	GoodResponse	1	0.0	n/a	9	43	ISIslide	Win	True
419.927	0.25	Win2	0.7111	0.0	Yes	2.973	0.027	n/a	GoodResponse	1	n/a	n/a	10	44	Cue	Win	True
420.178	4.0	Win2	0.7111	0.0	Yes	2.973	0.001	n/a	GoodResponse	1	n/a	n/a	10	44	Fixation	Win	True
424.173	0.27	Win2	0.7111	0.004	Yes	2.973	-0.004	2.0	GoodResponse	1	0.199	423.372	10	44	Target	Win	True
424.372	0.3	Win2	0.7111	0.004	Yes	2.973	-0.004	2.0	GoodResponse	1	0.199	n/a	10	44	ButtonPress	Win	True
424.457	0.43	Win2	0.7111	n/a	Yes	2.973	n/a	n/a	GoodResponse	1	n/a	n/a	10	44	Blank	Win	True
424.875	1.45	Win2	0.7111	n/a	Yes	2.973	n/a	5.0	GoodResponse	1	0.019	423.894	10	44	Feedback	Win	True
426.329	2.973	Win2	0.7111	n/a	Yes	2.973	n/a	n/a	GoodResponse	1	0.0	n/a	10	44	ISIslide	Win	True
429.322	0.25	Control	0.7173999999999999	0.0	Yes	2.878	0.022	n/a	GoodResponse	0	n/a	n/a	10	45	Cue	Neutral	True
429.572	4.1	Control	0.7173999999999999	0.0	Yes	2.878	0.0	n/a	GoodResponse	0	n/a	n/a	10	45	Fixation	Neutral	True
433.668	0.26	Control	0.7173999999999999	0.004	Yes	2.878	-0.004	2.0	GoodResponse	0	0.256	432.924	10	45	Target	Neutral	True
433.924	0.3	Control	0.7173999999999999	0.004	Yes	2.878	-0.004	2.0	GoodResponse	0	0.256	n/a	10	45	ButtonPress	Neutral	True
433.935	0.44	Control	0.7173999999999999	n/a	Yes	2.878	n/a	n/a	GoodResponse	0	n/a	n/a	10	45	Blank	Neutral	True
434.37	1.45	Control	0.7173999999999999	n/a	Yes	2.878	n/a	5.0	GoodResponse	0	0.037	433.407	10	45	Feedback	Neutral	True
435.824	2.878	Control	0.7173999999999999	n/a	Yes	2.878	n/a	n/a	GoodResponse	0	0.0	n/a	10	45	ISIslide	Neutral	True
438.716	0.25	Lose2	0.7234	0.0	Yes	3.384	0.016	n/a	GoodResponse	0	n/a	n/a	10	46	Cue	AvoidedLoss	True
438.967	4.0	Lose2	0.7234	0.0	Yes	3.384	0.001	n/a	GoodResponse	0	n/a	n/a	10	46	Fixation	AvoidedLoss	True
442.962	0.25	Lose2	0.7234	0.004	Yes	3.384	-0.004	2.0	GoodResponse	0	0.241	442.203	10	46	Target	AvoidedLoss	True
443.203	0.3	Lose2	0.7234	0.004	Yes	3.384	-0.004	2.0	GoodResponse	0	0.241	n/a	10	46	ButtonPress	AvoidedLoss	True
443.213	0.45	Lose2	0.7234	n/a	Yes	3.384	n/a	n/a	GoodResponse	0	n/a	n/a	10	46	Blank	AvoidedLoss	True
443.664	1.45	Lose2	0.7234	n/a	Yes	3.384	n/a	5.0	GoodResponse	0	0.011	442.675	10	46	Feedback	AvoidedLoss	True
445.119	3.384	Lose2	0.7234	n/a	Yes	3.384	n/a	n/a	GoodResponse	0	0.0	n/a	10	46	ISIslide	AvoidedLoss	True
448.529	0.25	Lose2	0.7292000000000001	0.0	Yes	2.671	0.029	n/a	GoodResponse	0	n/a	n/a	10	47	Cue	AvoidedLoss	True
448.78	4.0	Lose2	0.7292000000000001	0.0	Yes	2.671	0.001	n/a	GoodResponse	0	n/a	n/a	10	47	Fixation	AvoidedLoss	True
452.775	0.24	Lose2	0.7292000000000001	0.004	Yes	2.671	-0.004	2.0	GoodResponse	0	0.218	451.993	10	47	Target	AvoidedLoss	True
452.993	0.3	Lose2	0.7292000000000001	0.004	Yes	2.671	-0.004	2.0	GoodResponse	0	0.218	n/a	10	47	ButtonPress	AvoidedLoss	True
453.026	0.46	Lose2	0.7292000000000001	n/a	Yes	2.671	n/a	n/a	GoodResponse	0	n/a	n/a	10	47	Blank	AvoidedLoss	True
453.477	1.45	Lose2	0.7292000000000001	n/a	Yes	2.671	n/a	5.0	GoodResponse	0	0.008	452.485	10	47	Feedback	AvoidedLoss	True
454.931	2.671	Lose2	0.7292000000000001	n/a	Yes	2.671	n/a	n/a	GoodResponse	0	0.0	n/a	10	47	ISIslide	AvoidedLoss	True
457.623	0.25	Lose2	0.7143	0.0	No	3.027	0.023	n/a	NoResponse	-1	n/a	n/a	9	48	Cue	Loss	True
457.874	3.95	Lose2	0.7143	0.0	No	3.027	0.001	n/a	NoResponse	-1	n/a	n/a	9	48	Fixation	Loss	True
461.819	0.23	Lose2	0.7143	0.004	No	3.027	-0.004	2.0	NoResponse	-1	0.245	461.064	9	48	Target	Loss	True
462.053	0.47	Lose2	0.7143	n/a	No	3.027	n/a	n/a	NoResponse	-1	n/a	n/a	9	48	Blank	Loss	True
462.064	0.3	Lose2	0.7143	0.004	No	3.027	-0.004	2.0	NoResponse	-1	0.245	n/a	9	48	ButtonPress	Loss	True
462.521	1.45	Lose2	0.7143	n/a	No	3.027	n/a	5.0	NoResponse	-1	0.031	461.552	9	48	Feedback	Loss	True
463.975	3.027	Lose2	0.7143	n/a	No	3.027	n/a	n/a	NoResponse	-1	0.0	n/a	9	48	ISIslide	Loss	True
467.018	0.25	Control	0.7	0.0	No	2.882	0.018	n/a	LatePress	0	n/a	n/a	9	49	Cue	Neutral	True
467.268	4.0	Control	0.7	0.0	No	2.882	0.0	n/a	LatePress	0	n/a	n/a	9	49	Fixation	Neutral	True
471.264	0.22	Control	0.7	0.004	No	2.882	-0.004	2.0	LatePress	0	0.225	470.489	9	49	Target	Neutral	True
471.489	0.3	Control	0.7	0.004	No	2.882	-0.004	2.0	LatePress	0	0.225	n/a	9	49	ButtonPress	Neutral	True
471.498	0.48	Control	0.7	n/a	No	2.882	n/a	n/a	LatePress	0	n/a	n/a	9	49	Blank	Neutral	True
471.966	1.45	Control	0.7	n/a	No	2.882	n/a	5.0	LatePress	0	0.001	470.967	9	49	Feedback	Neutral	True
473.42	2.882	Control	0.7	n/a	No	2.882	n/a	n/a	LatePress	0	0.0	n/a	9	49	ISIslide	Neutral	True
476.329	0.25	Control	0.7059000000000001	0.0	Yes	2.771	0.029	n/a	GoodResponse	0	n/a	n/a	9	50	Cue	Neutral	True
476.579	4.0	Control	0.7059000000000001	0.001	Yes	2.771	0.0	n/a	GoodResponse	0	n/a	n/a	9	50	Fixation	Neutral	True
480.575	0.21	Control	0.7059000000000001	0.004	Yes	2.771	-0.004	2.0	GoodResponse	0	0.2	479.775	9	50	Target	Neutral	True
480.775	0.3	Control	0.7059000000000001	0.004	Yes	2.771	-0.004	2.0	GoodResponse	0	0.2	n/a	9	50	ButtonPress	Neutral	True
480.792	0.49	Control	0.7059000000000001	n/a	Yes	2.771	n/a	n/a	GoodResponse	0	n/a	n/a	9	50	Blank	Neutral	True
481.277	1.45	Control	0.7059000000000001	n/a	Yes	2.771	n/a	5.0	GoodResponse	0	0.008	480.285	9	50	Feedback	Neutral	True
482.731	2.771	Control	0.7059000000000001	n/a	Yes	2.771	n/a	n/a	GoodResponse	0	0.0	n/a	9	50	ISIslide	Neutral	True
485.523	0.25	Control	0.6923	0.0	No	2.727	0.023	n/a	NoResponse	0	n/a	n/a	9	51	Cue	Neutral	False
485.774	3.95	Control	0.6923	0.0	No	2.727	0.001	2.0	NoResponse	0	3.904	488.678	9	51	Fixation	Neutral	False
489.678	0.3	Control	0.6923	0.0	No	2.727	0.001	2.0	NoResponse	0	3.904	n/a	9	51	ButtonPress	Neutral	False
489.719	0.2	Control	0.6923	0.004	No	2.727	-0.004	2.0	NoResponse	0	0.399	489.118	9	51	Target	Neutral	False
489.919	0.5	Control	0.6923	n/a	No	2.727	n/a	n/a	NoResponse	0	n/a	n/a	9	51	Blank	Neutral	False
490.118	0.3	Control	0.6923	0.004	No	2.727	-0.004	2.0	NoResponse	0	0.399	n/a	9	51	ButtonPress	Neutral	False
490.421	1.45	Control	0.6923	n/a	No	2.727	n/a	5.0	NoResponse	0	0.034	489.455	9	51	Feedback	Neutral	False
491.875	2.727	Control	0.6923	n/a	No	2.727	n/a	n/a	NoResponse	0	0.0	n/a	9	51	ISIslide	Neutral	False
494.617	0.25	Control	0.6792	0.0	No	2.633	0.017	n/a	NoResponse	0	n/a	n/a	9	52	Cue	Neutral	True
494.867	4.05	Control	0.6792	0.0	No	2.633	0.0	n/a	NoResponse	0	n/a	n/a	9	52	Fixation	Neutral	True
498.913	0.19	Control	0.6792	0.004	No	2.633	-0.004	2.0	NoResponse	0	0.299	498.212	9	52	Target	Neutral	True
499.113	0.51	Control	0.6792	n/a	No	2.633	n/a	n/a	NoResponse	0	n/a	n/a	9	52	Blank	Neutral	True
499.212	0.3	Control	0.6792	0.004	No	2.633	-0.004	2.0	NoResponse	0	0.299	n/a	9	52	ButtonPress	Neutral	True
499.615	1.45	Control	0.6792	n/a	No	2.633	n/a	5.0	NoResponse	0	0.01	498.625	9	52	Feedback	Neutral	True
501.069	2.633	Control	0.6792	n/a	No	2.633	n/a	n/a	NoResponse	0	0.0	n/a	9	52	ISIslide	Neutral	True
503.727	0.25	Win2	0.6667000000000001	0.0	No	2.923	0.027	n/a	NoResponse	0	n/a	n/a	9	53	Cue	MissedWin	True
503.978	4.05	Win2	0.6667000000000001	0.0	No	2.923	0.001	n/a	NoResponse	0	n/a	n/a	9	53	Fixation	MissedWin	True
508.023	0.18	Win2	0.6667000000000001	0.004	No	2.923	-0.004	2.0	NoResponse	0	0.233	507.256	9	53	Target	MissedWin	True
508.207	0.52	Win2	0.6667000000000001	n/a	No	2.923	n/a	n/a	NoResponse	0	n/a	n/a	9	53	Blank	MissedWin	True
508.256	0.3	Win2	0.6667000000000001	0.004	No	2.923	-0.004	2.0	NoResponse	0	0.233	n/a	9	53	ButtonPress	MissedWin	True
508.725	1.45	Win2	0.6667000000000001	n/a	No	2.923	n/a	5.0	NoResponse	0	0.022	507.747	9	53	Feedback	MissedWin	True
510.18	2.923	Win2	0.6667000000000001	n/a	No	2.923	n/a	n/a	NoResponse	0	0.0	n/a	9	53	ISIslide	MissedWin	True
513.122	0.25	Win2	0.6545000000000001	0.0	No	2.728	0.022	n/a	NoResponse	0	n/a	n/a	9	54	Cue	MissedWin	True
513.373	3.95	Win2	0.6545000000000001	0.0	No	2.728	0.001	n/a	NoResponse	0	n/a	n/a	9	54	Fixation	MissedWin	True
517.318	0.17	Win2	0.6545000000000001	0.004	No	2.728	-0.004	2.0	NoResponse	0	0.221	516.539	9	54	Target	MissedWin	True
517.502	0.53	Win2	0.6545000000000001	n/a	No	2.728	n/a	n/a	NoResponse	0	n/a	n/a	9	54	Blank	MissedWin	True
517.539	0.3	Win2	0.6545000000000001	0.004	No	2.728	-0.004	2.0	NoResponse	0	0.221	n/a	9	54	ButtonPress	MissedWin	True
518.02	1.45	Win2	0.6545000000000001	n/a	No	2.728	n/a	5.0	NoResponse	0	0.044	517.064	9	54	Feedback	MissedWin	True
519.474	2.728	Win2	0.6545000000000001	n/a	No	2.728	n/a	n/a	NoResponse	0	0.0	n/a	9	54	ISIslide	MissedWin	True
522.216	0.25	Control	0.6429	0.0	No	3.034	0.016	n/a	NoResponse	0	n/a	n/a	9	55	Cue	Neutral	True
522.466	3.95	Control	0.6429	0.001	No	3.034	0.0	n/a	NoResponse	0	n/a	n/a	9	55	Fixation	Neutral	True
526.412	0.18	Control	0.6429	0.004	No	3.034	-0.004	2.0	NoResponse	0	0.257	525.669	9	55	Target	Neutral	True
526.595	0.52	Control	0.6429	n/a	No	3.034	n/a	n/a	NoResponse	0	n/a	n/a	9	55	Blank	Neutral	True
526.669	0.3	Control	0.6429	0.004	No	3.034	-0.004	2.0	NoResponse	0	0.257	n/a	9	55	ButtonPress	Neutral	True
527.114	1.45	Control	0.6429	n/a	No	3.034	n/a	5.0	NoResponse	0	0.023	526.137	9	55	Feedback	Neutral	True
528.568	3.034	Control	0.6429	n/a	No	3.034	n/a	n/a	NoResponse	0	0.0	n/a	9	55	ISIslide	Neutral	True
531.627	0.25	Control	0.6315999999999999	0.0	No	2.823	0.027	n/a	NoResponse	0	n/a	n/a	9	56	Cue	Neutral	True
531.878	3.95	Control	0.6315999999999999	0.0	No	2.823	0.001	n/a	NoResponse	0	n/a	n/a	9	56	Fixation	Neutral	True
535.823	0.19	Control	0.6315999999999999	0.004	No	2.823	-0.004	2.0	NoResponse	0	0.249	535.072	9	56	Target	Neutral	True
536.024	0.51	Control	0.6315999999999999	n/a	No	2.823	n/a	n/a	NoResponse	0	n/a	n/a	9	56	Blank	Neutral	True
536.072	0.3	Control	0.6315999999999999	0.004	No	2.823	-0.004	2.0	NoResponse	0	0.249	n/a	9	56	ButtonPress	Neutral	True
536.525	1.45	Control	0.6315999999999999	n/a	No	2.823	n/a	5.0	NoResponse	0	0.026	535.551	9	56	Feedback	Neutral	True
537.979	2.823	Control	0.6315999999999999	n/a	No	2.823	n/a	n/a	NoResponse	0	0.0	n/a	9	56	ISIslide	Neutral	True
540.821	0.25	Control	0.6207	0.0	No	3.479	0.021	n/a	NoResponse	0	n/a	n/a	9	57	Cue	Neutral	True
541.072	4.0	Control	0.6207	0.0	No	3.479	0.001	n/a	NoResponse	0	n/a	n/a	9	57	Fixation	Neutral	True
545.067	0.2	Control	0.6207	0.004	No	3.479	-0.004	2.0	NoResponse	0	0.228	544.295	9	57	Target	Neutral	True
545.268	0.5	Control	0.6207	n/a	No	3.479	n/a	n/a	NoResponse	0	n/a	n/a	9	57	Blank	Neutral	True
545.295	0.3	Control	0.6207	0.004	No	3.479	-0.004	2.0	NoResponse	0	0.228	n/a	9	57	ButtonPress	Neutral	True
545.769	1.45	Control	0.6207	n/a	No	3.479	n/a	5.0	NoResponse	0	0.007	544.776	9	57	Feedback	Neutral	True
547.224	3.479	Control	0.6207	n/a	No	3.479	n/a	n/a	NoResponse	0	0.0	n/a	9	57	ISIslide	Neutral	True
550.718	0.25	Win2	0.6271	0.0	Yes	2.732	0.018	n/a	GoodResponse	1	n/a	n/a	10	58	Cue	Win	True
550.968	4.05	Win2	0.6271	0.0	Yes	2.732	0.0	n/a	GoodResponse	1	n/a	n/a	10	58	Fixation	Win	True
555.014	0.21	Win2	0.6271	0.004	Yes	2.732	-0.004	2.0	GoodResponse	1	0.206	554.22	10	58	Target	Win	True
555.22	0.3	Win2	0.6271	0.004	Yes	2.732	-0.004	2.0	GoodResponse	1	0.206	n/a	10	58	ButtonPress	Win	True
555.231	0.49	Win2	0.6271	n/a	Yes	2.732	n/a	n/a	GoodResponse	1	n/a	n/a	10	58	Blank	Win	True
555.716	1.45	Win2	0.6271	n/a	Yes	2.732	n/a	5.0	GoodResponse	1	0.006	554.722	10	58	Feedback	Win	True
557.17	2.732	Win2	0.6271	n/a	Yes	2.732	n/a	n/a	GoodResponse	1	0.0	n/a	10	58	ISIslide	Win	True
559.928	0.25	Lose2	0.6167	0.0	No	2.672	0.028	n/a	NoResponse	-1	n/a	n/a	9	59	Cue	Loss	True
560.179	4.0	Lose2	0.6167	0.0	No	2.672	0.001	n/a	NoResponse	-1	n/a	n/a	9	59	Fixation	Loss	True
564.174	0.22	Lose2	0.6167	0.004	No	2.672	-0.004	2.0	NoResponse	-1	0.25	563.424	9	59	Target	Loss	True
564.408	0.48	Lose2	0.6167	n/a	No	2.672	n/a	n/a	NoResponse	-1	n/a	n/a	9	59	Blank	Loss	True
564.424	0.3	Lose2	0.6167	0.004	No	2.672	-0.004	2.0	NoResponse	-1	0.25	n/a	9	59	ButtonPress	Loss	True
564.876	1.45	Lose2	0.6167	n/a	No	2.672	n/a	5.0	NoResponse	-1	0.017	563.893	9	59	Feedback	Loss	True
566.331	2.672	Lose2	0.6167	n/a	No	2.672	n/a	n/a	NoResponse	-1	0.0	n/a	9	59	ISIslide	Loss	True
569.022	0.25	Control	0.623	0.0	Yes	2.678	0.022	n/a	GoodResponse	0	n/a	n/a	9	60	Cue	Neutral	True
569.273	4.0	Control	0.623	0.0	Yes	2.678	0.001	n/a	GoodResponse	0	n/a	n/a	9	60	Fixation	Neutral	True
573.268	0.23	Control	0.623	0.004	Yes	2.678	-0.004	2.0	GoodResponse	0	0.209	572.477	9	60	Target	Neutral	True
573.477	0.3	Control	0.623	0.004	Yes	2.678	-0.004	2.0	GoodResponse	0	0.209	n/a	9	60	ButtonPress	Neutral	True
573.502	0.47	Control	0.623	n/a	Yes	2.678	n/a	n/a	GoodResponse	0	n/a	n/a	9	60	Blank	Neutral	True
573.97	1.45	Control	0.623	n/a	Yes	2.678	n/a	5.0	GoodResponse	0	0.044	573.014	9	60	Feedback	Neutral	True
575.425	2.678	Control	0.623	n/a	Yes	2.678	n/a	n/a	GoodResponse	0	0.0	n/a	9	60	ISIslide	Neutral	True
578.116	0.25	Lose2	0.629	0.0	Yes	2.984	0.016	n/a	GoodResponse	0	n/a	n/a	9	61	Cue	AvoidedLoss	True
578.367	4.0	Lose2	0.629	0.0	Yes	2.984	0.001	n/a	GoodResponse	0	n/a	n/a	9	61	Fixation	AvoidedLoss	True
582.362	0.24	Lose2	0.629	0.004	Yes	2.984	-0.004	2.0	GoodResponse	0	0.216	581.578	9	61	Target	AvoidedLoss	True
582.578	0.3	Lose2	0.629	0.004	Yes	2.984	-0.004	2.0	GoodResponse	0	0.216	n/a	9	61	ButtonPress	AvoidedLoss	True
582.613	0.46	Lose2	0.629	n/a	Yes	2.984	n/a	n/a	GoodResponse	0	n/a	n/a	9	61	Blank	AvoidedLoss	True
583.064	1.45	Lose2	0.629	n/a	Yes	2.984	n/a	5.0	GoodResponse	0	0.023	582.087	9	61	Feedback	AvoidedLoss	True
584.518	2.984	Lose2	0.629	n/a	Yes	2.984	n/a	n/a	GoodResponse	0	0.0	n/a	9	61	ISIslide	AvoidedLoss	True
587.527	0.25	Lose2	0.6349	0.001	Yes	2.873	0.027	n/a	GoodResponse	0	n/a	n/a	9	62	Cue	AvoidedLoss	True
587.778	3.9	Lose2	0.6349	0.0	Yes	2.873	0.001	n/a	GoodResponse	0	n/a	n/a	9	62	Fixation	AvoidedLoss	True
591.673	0.25	Lose2	0.6349	0.004	Yes	2.873	-0.004	2.0	GoodResponse	0	0.199	590.872	9	62	Target	AvoidedLoss	True
591.872	0.3	Lose2	0.6349	0.004	Yes	2.873	-0.004	2.0	GoodResponse	0	0.199	n/a	9	62	ButtonPress	AvoidedLoss	True
591.924	0.45	Lose2	0.6349	n/a	Yes	2.873	n/a	n/a	GoodResponse	0	n/a	n/a	9	62	Blank	AvoidedLoss	True
592.375	1.45	Lose2	0.6349	n/a	Yes	2.873	n/a	5.0	GoodResponse	0	0.029	591.404	9	62	Feedback	AvoidedLoss	True
593.83	2.873	Lose2	0.6349	n/a	Yes	2.873	n/a	n/a	GoodResponse	0	0.0	n/a	9	62	ISIslide	AvoidedLoss	True
596.722	0.25	Lose2	0.6406000000000001	0.0	Yes	2.628	0.022	n/a	GoodResponse	0	n/a	n/a	9	63	Cue	AvoidedLoss	True
596.972	4.05	Lose2	0.6406000000000001	0.0	Yes	2.628	0.0	n/a	GoodResponse	0	n/a	n/a	9	63	Fixation	AvoidedLoss	True
601.018	0.26	Lose2	0.6406000000000001	0.004	Yes	2.628	-0.004	2.0	GoodResponse	0	0.221	600.239	9	63	Target	AvoidedLoss	True
601.239	0.3	Lose2	0.6406000000000001	0.004	Yes	2.628	-0.004	2.0	GoodResponse	0	0.221	n/a	9	63	ButtonPress	AvoidedLoss	True
601.285	0.44	Lose2	0.6406000000000001	n/a	Yes	2.628	n/a	n/a	GoodResponse	0	n/a	n/a	9	63	Blank	AvoidedLoss	True
601.72	1.45	Lose2	0.6406000000000001	n/a	Yes	2.628	n/a	5.0	GoodResponse	0	0.002	600.722	9	63	Feedback	AvoidedLoss	True
603.174	2.628	Lose2	0.6406000000000001	n/a	Yes	2.628	n/a	n/a	GoodResponse	0	0.0	n/a	9	63	ISIslide	AvoidedLoss	True
605.815	0.25	Win2	0.6462	0.0	Yes	3.135	0.015	n/a	GoodResponse	1	n/a	n/a	10	64	Cue	Win	True
606.066	4.15	Win2	0.6462	0.0	Yes	3.135	0.001	n/a	GoodResponse	1	n/a	n/a	10	64	Fixation	Win	True
610.212	0.27	Win2	0.6462	0.003	Yes	3.135	-0.003	2.0	GoodResponse	1	0.237	609.449	10	64	Target	Win	True
610.449	0.3	Win2	0.6462	0.003	Yes	3.135	-0.003	2.0	GoodResponse	1	0.237	n/a	10	64	ButtonPress	Win	True
610.496	0.43	Win2	0.6462	n/a	Yes	3.135	n/a	n/a	GoodResponse	1	n/a	n/a	10	64	Blank	Win	True
610.914	1.45	Win2	0.6462	n/a	Yes	3.135	n/a	5.0	GoodResponse	1	0.026	609.94	10	64	Feedback	Win	True
612.368	3.135	Win2	0.6462	n/a	Yes	3.135	n/a	n/a	GoodResponse	1	0.0	n/a	10	64	ISIslide	Win	True
615.528	0.25	Control	0.6364	0.0	No	2.772	0.028	n/a	NoResponse	0	n/a	n/a	10	65	Cue	Neutral	True
615.778	4.0	Control	0.6364	0.001	No	2.772	0.0	n/a	NoResponse	0	n/a	n/a	10	65	Fixation	Neutral	True
619.774	0.28	Control	0.6364	0.004	No	2.772	-0.004	2.0	NoResponse	0	0.446	619.22	10	65	Target	Neutral	True
620.058	0.42	Control	0.6364	n/a	No	2.772	n/a	n/a	NoResponse	0	n/a	n/a	10	65	Blank	Neutral	True
620.22	0.3	Control	0.6364	0.004	No	2.772	-0.004	2.0	NoResponse	0	0.446	n/a	10	65	ButtonPress	Neutral	True
620.476	1.45	Control	0.6364	n/a	No	2.772	n/a	5.0	NoResponse	0	0.025	619.501	10	65	Feedback	Neutral	True
621.93	2.772	Control	0.6364	n/a	No	2.772	n/a	n/a	NoResponse	0	0.0	n/a	10	65	ISIslide	Neutral	True
624.722	0.25	Win2	0.6418	0.0	Yes	2.778	0.022	n/a	GoodResponse	1	n/a	n/a	11	66	Cue	Win	True
624.973	3.9	Win2	0.6418	0.0	Yes	2.778	0.001	n/a	GoodResponse	1	n/a	n/a	11	66	Fixation	Win	True
628.868	0.29	Win2	0.6418	0.004	Yes	2.778	-0.004	2.0	GoodResponse	1	0.218	628.086	11	66	Target	Win	True
629.086	0.3	Win2	0.6418	0.004	Yes	2.778	-0.004	2.0	GoodResponse	1	0.218	n/a	11	66	ButtonPress	Win	True
629.168	0.41	Win2	0.6418	n/a	Yes	2.778	n/a	n/a	GoodResponse	1	n/a	n/a	11	66	Blank	Win	True
629.57	1.45	Win2	0.6418	n/a	Yes	2.778	n/a	5.0	GoodResponse	1	0.007	628.577	11	66	Feedback	Win	True
631.024	2.778	Win2	0.6418	n/a	Yes	2.778	n/a	n/a	GoodResponse	1	0.0	n/a	11	66	ISIslide	Win	True
633.816	0.25	Control	0.6470999999999999	0.0	Yes	2.734	0.016	n/a	GoodResponse	0	n/a	n/a	11	67	Cue	Neutral	True
634.066	3.95	Control	0.6470999999999999	0.001	Yes	2.734	0.0	n/a	GoodResponse	0	n/a	n/a	11	67	Fixation	Neutral	True
638.012	0.3	Control	0.6470999999999999	0.004	Yes	2.734	-0.004	2.0	GoodResponse	0	0.247	637.259	11	67	Target	Neutral	True
638.259	0.3	Control	0.6470999999999999	0.004	Yes	2.734	-0.004	2.0	GoodResponse	0	0.247	n/a	11	67	ButtonPress	Neutral	True
638.312	0.4	Control	0.6470999999999999	n/a	Yes	2.734	n/a	n/a	GoodResponse	0	n/a	n/a	11	67	Blank	Neutral	True
638.714	1.45	Control	0.6470999999999999	n/a	Yes	2.734	n/a	5.0	GoodResponse	0	0.031	637.745	11	67	Feedback	Neutral	True
640.168	2.734	Control	0.6470999999999999	n/a	Yes	2.734	n/a	n/a	GoodResponse	0	0.0	n/a	11	67	ISIslide	Neutral	True
642.926	0.25	Win2	0.6522	0.0	Yes	3.074	0.026	n/a	GoodResponse	1	n/a	n/a	12	68	Cue	Win	True
643.177	4.0	Win2	0.6522	0.0	Yes	3.074	0.001	n/a	GoodResponse	1	n/a	n/a	12	68	Fixation	Win	True
647.172	0.31	Win2	0.6522	0.004	Yes	3.074	-0.004	2.0	GoodResponse	1	0.255	646.427	12	68	Target	Win	True
647.427	0.3	Win2	0.6522	0.004	Yes	3.074	-0.004	2.0	GoodResponse	1	0.255	n/a	12	68	ButtonPress	Win	True
647.49	0.39	Win2	0.6522	n/a	Yes	3.074	n/a	n/a	GoodResponse	1	n/a	n/a	12	68	Blank	Win	True
647.874	1.45	Win2	0.6522	n/a	Yes	3.074	n/a	5.0	GoodResponse	1	0.041	646.915	12	68	Feedback	Win	True
649.329	3.074	Win2	0.6522	n/a	Yes	3.074	n/a	n/a	GoodResponse	1	0.0	n/a	12	68	ISIslide	Win	True
652.421	0.25	Win2	0.6570999999999999	0.0	Yes	3.229	0.021	n/a	GoodResponse	1	n/a	n/a	13	69	Cue	Win	True
652.672	3.95	Win2	0.6570999999999999	0.0	Yes	3.229	0.001	n/a	GoodResponse	1	n/a	n/a	13	69	Fixation	Win	True
656.617	0.32	Win2	0.6570999999999999	0.004	Yes	3.229	-0.004	2.0	GoodResponse	1	0.222	655.839	13	69	Target	Win	True
656.839	0.3	Win2	0.6570999999999999	0.004	Yes	3.229	-0.004	2.0	GoodResponse	1	0.222	n/a	13	69	ButtonPress	Win	True
656.951	0.38	Win2	0.6570999999999999	n/a	Yes	3.229	n/a	n/a	GoodResponse	1	n/a	n/a	13	69	Blank	Win	True
657.319	1.45	Win2	0.6570999999999999	n/a	Yes	3.229	n/a	5.0	GoodResponse	1	0.011	656.33	13	69	Feedback	Win	True
658.774	3.229	Win2	0.6570999999999999	n/a	Yes	3.229	n/a	n/a	GoodResponse	1	0.0	n/a	13	69	ISIslide	Win	True
662.017	0.25	Lose2	0.662	0.0	Yes	3.033	0.017	n/a	GoodResponse	0	n/a	n/a	13	70	Cue	AvoidedLoss	True
662.267	4.05	Lose2	0.662	0.0	Yes	3.033	0.0	n/a	GoodResponse	0	n/a	n/a	13	70	Fixation	AvoidedLoss	True
666.313	0.32	Lose2	0.662	0.004	Yes	3.033	-0.004	2.0	GoodResponse	0	0.273	665.586	13	70	Target	AvoidedLoss	True
666.586	0.3	Lose2	0.662	0.004	Yes	3.033	-0.004	2.0	GoodResponse	0	0.273	n/a	13	70	ButtonPress	AvoidedLoss	True
666.647	0.38	Lose2	0.662	n/a	Yes	3.033	n/a	n/a	GoodResponse	0	n/a	n/a	13	70	Blank	AvoidedLoss	True
667.015	1.45	Lose2	0.662	n/a	Yes	3.033	n/a	5.0	GoodResponse	0	0.022	666.037	13	70	Feedback	AvoidedLoss	True
668.469	3.033	Lose2	0.662	n/a	Yes	3.033	n/a	n/a	GoodResponse	0	0.0	n/a	13	70	ISIslide	AvoidedLoss	True
671.528	0.25	Win2	0.6667000000000001	0.0	Yes	2.722	0.028	n/a	GoodResponse	1	n/a	n/a	14	71	Cue	Win	True
671.779	4.05	Win2	0.6667000000000001	0.0	Yes	2.722	0.001	n/a	GoodResponse	1	n/a	n/a	14	71	Fixation	Win	True
675.824	0.32	Win2	0.6667000000000001	0.004	Yes	2.722	-0.004	2.0	GoodResponse	1	0.299	675.123	14	71	Target	Win	True
676.123	0.3	Win2	0.6667000000000001	0.004	Yes	2.722	-0.004	2.0	GoodResponse	1	0.299	n/a	14	71	ButtonPress	Win	True
676.159	0.38	Win2	0.6667000000000001	n/a	Yes	2.722	n/a	n/a	GoodResponse	1	n/a	n/a	14	71	Blank	Win	True
676.527	1.45	Win2	0.6667000000000001	n/a	Yes	2.722	n/a	5.0	GoodResponse	1	0.023	675.55	14	71	Feedback	Win	True
677.981	2.722	Win2	0.6667000000000001	n/a	Yes	2.722	n/a	n/a	GoodResponse	1	0.0	n/a	14	71	ISIslide	Win	True
680.722	0.25	Win2	0.6712	0.001	Yes	2.778	0.022	n/a	GoodResponse	1	n/a	n/a	15	72	Cue	Win	True
680.973	4.1	Win2	0.6712	0.0	Yes	2.778	0.001	n/a	GoodResponse	1	n/a	n/a	15	72	Fixation	Win	True
685.069	0.31	Win2	0.6712	0.003	Yes	2.778	-0.003	2.0	GoodResponse	1	0.254	684.323	15	72	Target	Win	True
685.323	0.3	Win2	0.6712	0.003	Yes	2.778	-0.003	2.0	GoodResponse	1	0.254	n/a	15	72	ButtonPress	Win	True
685.386	0.39	Win2	0.6712	n/a	Yes	2.778	n/a	n/a	GoodResponse	1	n/a	n/a	15	72	Blank	Win	True
685.771	1.45	Win2	0.6712	n/a	Yes	2.778	n/a	5.0	GoodResponse	1	0.046	684.817	15	72	Feedback	Win	True
687.225	2.778	Win2	0.6712	n/a	Yes	2.778	n/a	n/a	GoodResponse	1	0.0	n/a	15	72	ISIslide	Win	True
690.017	0.25	Win2	0.6757	0.0	Yes	2.683	0.017	n/a	GoodResponse	1	n/a	n/a	16	73	Cue	Win	True
690.268	4.0	Win2	0.6757	0.0	Yes	2.683	0.001	n/a	GoodResponse	1	n/a	n/a	16	73	Fixation	Win	True
694.263	0.3	Win2	0.6757	0.004	Yes	2.683	-0.004	2.0	GoodResponse	1	0.221	693.484	16	73	Target	Win	True
694.484	0.3	Win2	0.6757	0.004	Yes	2.683	-0.004	2.0	GoodResponse	1	0.221	n/a	16	73	ButtonPress	Win	True
694.564	0.4	Win2	0.6757	n/a	Yes	2.683	n/a	n/a	GoodResponse	1	n/a	n/a	16	73	Blank	Win	True
694.965	1.45	Win2	0.6757	n/a	Yes	2.683	n/a	5.0	GoodResponse	1	0.023	693.988	16	73	Feedback	Win	True
696.419	2.683	Win2	0.6757	n/a	Yes	2.683	n/a	n/a	GoodResponse	1	0.0	n/a	16	73	ISIslide	Win	True
699.127	0.25	Lose2	0.68	0.0	Yes	2.623	0.027	n/a	GoodResponse	0	n/a	n/a	16	74	Cue	AvoidedLoss	True
699.378	4.05	Lose2	0.68	0.0	Yes	2.623	0.001	n/a	GoodResponse	0	n/a	n/a	16	74	Fixation	AvoidedLoss	True
703.424	0.29	Lose2	0.68	0.003	Yes	2.623	-0.003	2.0	GoodResponse	0	0.228	702.652	16	74	Target	AvoidedLoss	True
703.652	0.3	Lose2	0.68	0.003	Yes	2.623	-0.003	2.0	GoodResponse	0	0.228	n/a	16	74	ButtonPress	AvoidedLoss	True
703.724	0.41	Lose2	0.68	n/a	Yes	2.623	n/a	n/a	GoodResponse	0	n/a	n/a	16	74	Blank	AvoidedLoss	True
704.126	1.45	Lose2	0.68	n/a	Yes	2.623	n/a	5.0	GoodResponse	0	0.033	703.159	16	74	Feedback	AvoidedLoss	True
705.58	2.623	Lose2	0.68	n/a	Yes	2.623	n/a	n/a	GoodResponse	0	0.0	n/a	16	74	ISIslide	AvoidedLoss	True
708.221	0.25	Lose2	0.6842	0.0	Yes	2.929	0.021	n/a	GoodResponse	0	n/a	n/a	16	75	Cue	AvoidedLoss	True
708.472	3.95	Lose2	0.6842	0.0	Yes	2.929	0.001	n/a	GoodResponse	0	n/a	n/a	16	75	Fixation	AvoidedLoss	True
712.417	0.28	Lose2	0.6842	0.004	Yes	2.929	-0.004	2.0	GoodResponse	0	0.228	711.645	16	75	Target	AvoidedLoss	True
712.645	0.3	Lose2	0.6842	0.004	Yes	2.929	-0.004	2.0	GoodResponse	0	0.228	n/a	16	75	ButtonPress	AvoidedLoss	True
712.701	0.42	Lose2	0.6842	n/a	Yes	2.929	n/a	n/a	GoodResponse	0	n/a	n/a	16	75	Blank	AvoidedLoss	True
713.119	1.45	Lose2	0.6842	n/a	Yes	2.929	n/a	5.0	GoodResponse	0	0.015	712.134	16	75	Feedback	AvoidedLoss	True
714.574	2.929	Lose2	0.6842	n/a	Yes	2.929	n/a	n/a	GoodResponse	0	0.0	n/a	16	75	ISIslide	AvoidedLoss	True
717.516	0.25	Control	0.6883	0.0	Yes	3.234	0.016	n/a	GoodResponse	0	n/a	n/a	16	76	Cue	Neutral	True
717.766	4.05	Control	0.6883	0.0	Yes	3.234	0.0	n/a	GoodResponse	0	n/a	n/a	16	76	Fixation	Neutral	True
721.812	0.27	Control	0.6883	0.004	Yes	3.234	-0.004	2.0	GoodResponse	0	0.191	721.003	16	76	Target	Neutral	True
722.003	0.3	Control	0.6883	0.004	Yes	3.234	-0.004	2.0	GoodResponse	0	0.191	n/a	16	76	ButtonPress	Neutral	True
722.096	0.43	Control	0.6883	n/a	Yes	3.234	n/a	n/a	GoodResponse	0	n/a	n/a	16	76	Blank	Neutral	True
722.514	1.45	Control	0.6883	n/a	Yes	3.234	n/a	5.0	GoodResponse	0	0.034	721.548	16	76	Feedback	Neutral	True
723.968	3.234	Control	0.6883	n/a	Yes	3.234	n/a	n/a	GoodResponse	0	0.0	n/a	16	76	ISIslide	Neutral	True
727.228	0.25	Lose2	0.6923	0.0	Yes	2.572	0.028	n/a	GoodResponse	0	n/a	n/a	16	77	Cue	AvoidedLoss	True
727.479	3.95	Lose2	0.6923	0.0	Yes	2.572	0.001	n/a	GoodResponse	0	n/a	n/a	16	77	Fixation	AvoidedLoss	True
731.424	0.26	Lose2	0.6923	0.004	Yes	2.572	-0.004	2.0	GoodResponse	0	0.236	730.66	16	77	Target	AvoidedLoss	True
731.66	0.3	Lose2	0.6923	0.004	Yes	2.572	-0.004	2.0	GoodResponse	0	0.236	n/a	16	77	ButtonPress	AvoidedLoss	True
731.691	0.44	Lose2	0.6923	n/a	Yes	2.572	n/a	n/a	GoodResponse	0	n/a	n/a	16	77	Blank	AvoidedLoss	True
732.126	1.45	Lose2	0.6923	n/a	Yes	2.572	n/a	5.0	GoodResponse	0	0.032	731.158	16	77	Feedback	AvoidedLoss	True
733.58	2.572	Lose2	0.6923	n/a	Yes	2.572	n/a	n/a	GoodResponse	0	0.0	n/a	16	77	ISIslide	AvoidedLoss	True
