onset	duration	cue_type	current_mean_accuracy	duration_error	is_hit	isi_adjusted	onset_delay	response	response_type	reward	rt	rt_time	total_reward	trial_number	trial_phase	trial_type	one_press
11.108	0.25	Control	1.0	0.0	Yes	2.942	0.008	n/a	GoodResponse	0	n/a	n/a	0	0	Cue	Neutral	False
11.359	3.85	Control	1.0	0.0	Yes	2.942	0.001	4.0	GoodResponse	0	0.488	10.847	0	0	Fixation	Neutral	False
11.847	0.3	Control	1.0	0.0	Yes	2.942	0.001	4.0	GoodResponse	0	0.488	n/a	0	0	ButtonPress	Neutral	False
15.22	0.4	Control	1.0	0.0	Yes	2.942	0.012	4.0	GoodResponse	0	0.344	14.564	0	0	Target	Neutral	False
15.564	0.3	Control	1.0	0.0	Yes	2.942	0.012	4.0	GoodResponse	0	0.344	n/a	0	0	ButtonPress	Neutral	False
15.605	0.3	Control	1.0	n/a	Yes	2.942	n/a	n/a	GoodResponse	0	n/a	n/a	0	0	Blank	Neutral	False
15.906	1.45	Control	1.0	n/a	Yes	2.942	n/a	5.0	GoodResponse	0	0.023	14.929	0	0	Feedback	Neutral	False
17.36	2.942	Control	1.0	n/a	Yes	2.942	n/a	n/a	GoodResponse	0	0.0	n/a	0	0	ISIslide	Neutral	False
20.319	0.25	Lose2	1.0	0.0	Yes	2.781	0.019	n/a	GoodResponse	0	n/a	n/a	0	1	Cue	AvoidedLoss	True
20.57	4.0	Lose2	1.0	0.0	Yes	2.781	0.001	n/a	GoodResponse	0	n/a	n/a	0	1	Fixation	AvoidedLoss	True
24.565	0.39	Lose2	1.0	0.004	Yes	2.781	-0.004	4.0	GoodResponse	0	0.29	23.855	0	1	Target	AvoidedLoss	True
24.855	0.3	Lose2	1.0	0.004	Yes	2.781	-0.004	4.0	GoodResponse	0	0.29	n/a	0	1	ButtonPress	AvoidedLoss	True
24.966	0.31	Lose2	1.0	n/a	Yes	2.781	n/a	n/a	GoodResponse	0	n/a	n/a	0	1	Blank	AvoidedLoss	True
25.267	1.45	Lose2	1.0	n/a	Yes	2.781	n/a	5.0	GoodResponse	0	0.028	24.295	0	1	Feedback	AvoidedLoss	True
26.721	2.781	Lose2	1.0	n/a	Yes	2.781	n/a	n/a	GoodResponse	0	0.0	n/a	0	1	ISIslide	AvoidedLoss	True
29.53	0.25	Control	1.0	0.0	Yes	2.57	0.03	n/a	GoodResponse	0	n/a	n/a	0	2	Cue	Neutral	True
29.78	4.1	Control	1.0	0.001	Yes	2.57	0.0	n/a	GoodResponse	0	n/a	n/a	0	2	Fixation	Neutral	True
33.876	0.38	Control	1.0	0.004	Yes	2.57	-0.004	4.0	GoodResponse	0	0.31	33.186	0	2	Target	Neutral	True
34.186	0.3	Control	1.0	0.004	Yes	2.57	-0.004	4.0	GoodResponse	0	0.31	n/a	0	2	ButtonPress	Neutral	True
34.261	0.32	Control	1.0	n/a	Yes	2.57	n/a	n/a	GoodResponse	0	n/a	n/a	0	2	Blank	Neutral	True
34.578	1.45	Control	1.0	n/a	Yes	2.57	n/a	5.0	GoodResponse	0	0.035	33.613	0	2	Feedback	Neutral	True
36.033	2.57	Control	1.0	n/a	Yes	2.57	n/a	n/a	GoodResponse	0	0.0	n/a	0	2	ISIslide	Neutral	True
38.624	0.25	Win2	1.0	0.0	Yes	2.826	0.024	n/a	GoodResponse	1	n/a	n/a	1	3	Cue	Win	True
38.874	3.95	Win2	1.0	0.0	Yes	2.826	0.0	n/a	GoodResponse	1	n/a	n/a	1	3	Fixation	Win	True
42.82	0.37	Win2	1.0	0.004	Yes	2.826	-0.004	4.0	GoodResponse	1	0.285	42.105	1	3	Target	Win	True
43.105	0.3	Win2	1.0	0.004	Yes	2.826	-0.004	4.0	GoodResponse	1	0.285	n/a	1	3	ButtonPress	Win	True
43.204	0.33	Win2	1.0	n/a	Yes	2.826	n/a	n/a	GoodResponse	1	n/a	n/a	1	3	Blank	Win	True
43.522	1.45	Win2	1.0	n/a	Yes	2.826	n/a	5.0	GoodResponse	1	0.017	42.539	1	3	Feedback	Win	True
44.976	2.826	Win2	1.0	n/a	Yes	2.826	n/a	n/a	GoodResponse	1	0.0	n/a	1	3	ISIslide	Win	True
47.818	0.25	Win2	1.0	0.0	Yes	3.282	0.018	n/a	GoodResponse	1	n/a	n/a	2	4	Cue	Win	True
48.069	4.0	Win2	1.0	0.0	Yes	3.282	0.001	n/a	GoodResponse	1	n/a	n/a	2	4	Fixation	Win	True
52.064	0.36	Win2	1.0	0.004	Yes	3.282	-0.004	4.0	GoodResponse	1	0.269	51.333	2	4	Target	Win	True
52.333	0.3	Win2	1.0	0.004	Yes	3.282	-0.004	4.0	GoodResponse	1	0.269	n/a	2	4	ButtonPress	Win	True
52.432	0.34	Win2	1.0	n/a	Yes	3.282	n/a	n/a	GoodResponse	1	n/a	n/a	2	4	Blank	Win	True
52.766	1.45	Win2	1.0	n/a	Yes	3.282	n/a	5.0	GoodResponse	1	0.041	51.807	2	4	Feedback	Win	True
54.22	3.282	Win2	1.0	n/a	Yes	3.282	n/a	n/a	GoodResponse	1	0.0	n/a	2	4	ISIslide	Win	True
57.53	0.25	Win2	1.0	0.0	Yes	2.77	0.03	n/a	GoodResponse	1	n/a	n/a	3	5	Cue	Win	True
57.781	4.0	Win2	1.0	0.0	Yes	2.77	0.001	n/a	GoodResponse	1	n/a	n/a	3	5	Fixation	Win	True
61.776	0.35	Win2	1.0	0.004	Yes	2.77	-0.004	4.0	GoodResponse	1	0.312	61.088	3	5	Target	Win	True
62.088	0.3	Win2	1.0	0.004	Yes	2.77	-0.004	4.0	GoodResponse	1	0.312	n/a	3	5	ButtonPress	Win	True
62.127	0.35	Win2	1.0	n/a	Yes	2.77	n/a	n/a	GoodResponse	1	n/a	n/a	3	5	Blank	Win	True
62.478	1.45	Win2	1.0	n/a	Yes	2.77	n/a	5.0	GoodResponse	1	0.036	61.514	3	5	Feedback	Win	True
63.933	2.77	Win2	1.0	n/a	Yes	2.77	n/a	n/a	GoodResponse	1	0.0	n/a	3	5	ISIslide	Win	True
66.724	0.25	Lose2	1.0	0.001	Yes	2.726	0.024	n/a	GoodResponse	0	n/a	n/a	3	6	Cue	AvoidedLoss	True
66.975	3.95	Lose2	1.0	0.0	Yes	2.726	0.001	n/a	GoodResponse	0	n/a	n/a	3	6	Fixation	AvoidedLoss	True
70.92	0.34	Lose2	1.0	0.004	Yes	2.726	-0.004	4.0	GoodResponse	0	0.275	70.195	3	6	Target	AvoidedLoss	True
71.195	0.3	Lose2	1.0	0.004	Yes	2.726	-0.004	4.0	GoodResponse	0	0.275	n/a	3	6	ButtonPress	AvoidedLoss	True
71.271	0.36	Lose2	1.0	n/a	Yes	2.726	n/a	n/a	GoodResponse	0	n/a	n/a	3	6	Blank	AvoidedLoss	True
71.623	1.45	Lose2	1.0	n/a	Yes	2.726	n/a	5.0	GoodResponse	0	0.013	70.636	3	6	Feedback	AvoidedLoss	True
73.077	2.726	Lose2	1.0	n/a	Yes	2.726	n/a	n/a	GoodResponse	0	0.0	n/a	3	6	ISIslide	AvoidedLoss	True
75.818	0.25	Lose2	1.0	0.0	Yes	4.032	0.018	n/a	GoodResponse	0	n/a	n/a	3	7	Cue	AvoidedLoss	True
76.069	4.05	Lose2	1.0	0.0	Yes	4.032	0.001	n/a	GoodResponse	0	n/a	n/a	3	7	Fixation	AvoidedLoss	True
80.115	0.33	Lose2	1.0	0.003	Yes	4.032	-0.003	4.0	GoodResponse	0	0.275	79.39	3	7	Target	AvoidedLoss	True
80.39	0.3	Lose2	1.0	0.003	Yes	4.032	-0.003	4.0	GoodResponse	0	0.275	n/a	3	7	ButtonPress	AvoidedLoss	True
80.449	0.37	Lose2	1.0	n/a	Yes	4.032	n/a	n/a	GoodResponse	0	n/a	n/a	3	7	Blank	AvoidedLoss	True
80.817	1.45	Lose2	1.0	n/a	Yes	4.032	n/a	5.0	GoodResponse	0	0.039	79.856	3	7	Feedback	AvoidedLoss	True
82.271	4.032	Lose2	1.0	n/a	Yes	4.032	n/a	n/a	GoodResponse	0	0.0	n/a	3	7	ISIslide	AvoidedLoss	True
86.317	0.25	Lose2	1.0	0.0	Yes	3.033	0.017	n/a	GoodResponse	0	n/a	n/a	3	8	Cue	AvoidedLoss	True
86.567	3.95	Lose2	1.0	0.0	Yes	3.033	0.0	n/a	GoodResponse	0	n/a	n/a	3	8	Fixation	AvoidedLoss	True
90.529	0.32	Lose2	1.0	0.0	Yes	3.033	0.012	4.0	GoodResponse	0	0.308	89.837	3	8	Target	AvoidedLoss	True
90.837	0.3	Lose2	1.0	0.0	Yes	3.033	0.012	4.0	GoodResponse	0	0.308	n/a	3	8	ButtonPress	AvoidedLoss	True
90.847	0.38	Lose2	1.0	n/a	Yes	3.033	n/a	n/a	GoodResponse	0	n/a	n/a	3	8	Blank	AvoidedLoss	True
91.215	1.45	Lose2	1.0	n/a	Yes	3.033	n/a	5.0	GoodResponse	0	0.031	90.246	3	8	Feedback	AvoidedLoss	True
92.669	3.033	Lose2	1.0	n/a	Yes	3.033	n/a	n/a	GoodResponse	0	0.0	n/a	3	8	ISIslide	AvoidedLoss	True
95.728	0.25	Lose2	1.0	0.0	Yes	3.122	0.028	n/a	GoodResponse	0	n/a	n/a	3	9	Cue	AvoidedLoss	True
95.979	3.95	Lose2	1.0	0.0	Yes	3.122	0.001	n/a	GoodResponse	0	n/a	n/a	3	9	Fixation	AvoidedLoss	True
99.924	0.31	Lose2	1.0	0.004	Yes	3.122	-0.004	4.0	GoodResponse	0	0.297	99.221	3	9	Target	AvoidedLoss	True
100.221	0.3	Lose2	1.0	0.004	Yes	3.122	-0.004	4.0	GoodResponse	0	0.297	n/a	3	9	ButtonPress	AvoidedLoss	True
100.242	0.39	Lose2	1.0	n/a	Yes	3.122	n/a	n/a	GoodResponse	0	n/a	n/a	3	9	Blank	AvoidedLoss	True
100.626	1.45	Lose2	1.0	n/a	Yes	3.122	n/a	5.0	GoodResponse	0	0.034	99.66	3	9	Feedback	AvoidedLoss	True
102.08	3.122	Lose2	1.0	n/a	Yes	3.122	n/a	n/a	GoodResponse	0	0.0	n/a	3	9	ISIslide	AvoidedLoss	True
105.223	0.25	Control	0.9091	0.0	No	3.277	0.023	n/a	NoResponse	0	n/a	n/a	3	10	Cue	Neutral	True
105.474	4.0	Control	0.9091	0.0	No	3.277	0.001	n/a	NoResponse	0	n/a	n/a	3	10	Fixation	Neutral	True
109.469	0.3	Control	0.9091	0.004	No	3.277	-0.004	4.0	NoResponse	0	0.311	108.78	3	10	Target	Neutral	True
109.77	0.4	Control	0.9091	n/a	No	3.277	n/a	n/a	NoResponse	0	n/a	n/a	3	10	Blank	Neutral	True
109.78	0.3	Control	0.9091	0.004	No	3.277	-0.004	4.0	NoResponse	0	0.311	n/a	3	10	ButtonPress	Neutral	True
110.171	1.45	Control	0.9091	n/a	No	3.277	n/a	5.0	NoResponse	0	0.007	109.178	3	10	Feedback	Neutral	True
111.626	3.277	Control	0.9091	n/a	No	3.277	n/a	n/a	NoResponse	0	0.0	n/a	3	10	ISIslide	Neutral	True
114.919	0.25	Lose2	0.8332999999999999	0.0	No	2.731	0.019	n/a	LatePress	-1	n/a	n/a	2	11	Cue	Loss	True
115.17	4.05	Lose2	0.8332999999999999	0.0	No	2.731	0.001	n/a	LatePress	-1	n/a	n/a	2	11	Fixation	Loss	True
119.215	0.29	Lose2	0.8332999999999999	0.004	No	2.731	-0.004	4.0	LatePress	-1	0.298	118.513	2	11	Target	Loss	True
119.513	0.3	Lose2	0.8332999999999999	0.004	No	2.731	-0.004	4.0	LatePress	-1	0.298	n/a	2	11	ButtonPress	Loss	True
119.516	0.41	Lose2	0.8332999999999999	n/a	No	2.731	n/a	n/a	LatePress	-1	n/a	n/a	2	11	Blank	Loss	True
119.917	1.45	Lose2	0.8332999999999999	n/a	No	2.731	n/a	5.0	LatePress	-1	0.012	118.929	2	11	Feedback	Loss	True
121.372	2.731	Lose2	0.8332999999999999	n/a	No	2.731	n/a	n/a	LatePress	-1	0.0	n/a	2	11	ISIslide	Loss	True
124.13	0.25	Control	0.7692	0.0	No	2.97	0.03	n/a	NoResponse	0	n/a	n/a	2	12	Cue	Neutral	True
124.381	3.9	Control	0.7692	0.0	No	2.97	0.001	n/a	NoResponse	0	n/a	n/a	2	12	Fixation	Neutral	True
128.276	0.28	Control	0.7692	0.004	No	2.97	-0.004	4.0	NoResponse	0	0.293	127.569	2	12	Target	Neutral	True
128.56	0.42	Control	0.7692	n/a	No	2.97	n/a	n/a	NoResponse	0	n/a	n/a	2	12	Blank	Neutral	True
128.569	0.3	Control	0.7692	0.004	No	2.97	-0.004	4.0	NoResponse	0	0.293	n/a	2	12	ButtonPress	Neutral	True
128.978	1.45	Control	0.7692	n/a	No	2.97	n/a	5.0	NoResponse	0	0.024	128.002	2	12	Feedback	Neutral	True
130.432	2.97	Control	0.7692	n/a	No	2.97	n/a	n/a	NoResponse	0	0.0	n/a	2	12	ISIslide	Neutral	True
133.424	0.25	Control	0.7143	0.0	No	2.776	0.024	n/a	LatePress	0	n/a	n/a	2	13	Cue	Neutral	True
133.675	4.0	Control	0.7143	0.0	No	2.776	0.001	n/a	LatePress	0	n/a	n/a	2	13	Fixation	Neutral	True
137.67	0.27	Control	0.7143	0.004	No	2.776	-0.004	4.0	LatePress	0	0.285	136.955	2	13	Target	Neutral	True
137.955	0.43	Control	0.7143	n/a	No	2.776	n/a	n/a	LatePress	0	n/a	n/a	2	13	Blank	Neutral	True
137.955	0.3	Control	0.7143	0.004	No	2.776	-0.004	4.0	LatePress	0	0.285	n/a	2	13	ButtonPress	Neutral	True
138.373	1.45	Control	0.7143	n/a	No	2.776	n/a	5.0	LatePress	0	0.044	137.417	2	13	Feedback	Neutral	True
139.827	2.776	Control	0.7143	n/a	No	2.776	n/a	n/a	LatePress	0	0.0	n/a	2	13	ISIslide	Neutral	True
142.619	0.25	Win2	0.6667000000000001	0.0	No	2.681	0.019	n/a	NoResponse	0	n/a	n/a	2	14	Cue	MissedWin	True
142.869	4.1	Win2	0.6667000000000001	0.0	No	2.681	0.0	n/a	NoResponse	0	n/a	n/a	2	14	Fixation	MissedWin	True
146.965	0.26	Win2	0.6667000000000001	0.004	No	2.681	-0.004	4.0	NoResponse	0	0.279	146.244	2	14	Target	MissedWin	True
147.232	0.44	Win2	0.6667000000000001	n/a	No	2.681	n/a	n/a	NoResponse	0	n/a	n/a	2	14	Blank	MissedWin	True
147.244	0.3	Win2	0.6667000000000001	0.004	No	2.681	-0.004	4.0	NoResponse	0	0.279	n/a	2	14	ButtonPress	MissedWin	True
147.667	1.45	Win2	0.6667000000000001	n/a	No	2.681	n/a	5.0	NoResponse	0	0.018	146.685	2	14	Feedback	MissedWin	True
149.121	2.681	Win2	0.6667000000000001	n/a	No	2.681	n/a	n/a	NoResponse	0	0.0	n/a	2	14	ISIslide	MissedWin	True
151.83	0.25	Control	0.625	0.0	No	2.97	0.03	n/a	NoResponse	0	n/a	n/a	2	15	Cue	Neutral	True
152.08	4.0	Control	0.625	0.0	No	2.97	0.0	n/a	NoResponse	0	n/a	n/a	2	15	Fixation	Neutral	True
156.076	0.25	Control	0.625	0.004	No	2.97	-0.004	4.0	NoResponse	0	0.289	155.365	2	15	Target	Neutral	True
156.326	0.45	Control	0.625	n/a	No	2.97	n/a	n/a	NoResponse	0	n/a	n/a	2	15	Blank	Neutral	True
156.365	0.3	Control	0.625	0.004	No	2.97	-0.004	4.0	NoResponse	0	0.289	n/a	2	15	ButtonPress	Neutral	True
156.778	1.45	Control	0.625	n/a	No	2.97	n/a	5.0	NoResponse	0	0.029	155.807	2	15	Feedback	Neutral	True
158.232	2.97	Control	0.625	n/a	No	2.97	n/a	n/a	NoResponse	0	0.0	n/a	2	15	ISIslide	Neutral	True
161.224	0.25	Win2	0.6470999999999999	0.0	Yes	2.876	0.024	n/a	GoodResponse	1	n/a	n/a	3	16	Cue	Win	True
161.475	4.0	Win2	0.6470999999999999	0.0	Yes	2.876	0.001	n/a	GoodResponse	1	n/a	n/a	3	16	Fixation	Win	True
165.47	0.26	Win2	0.6470999999999999	0.004	Yes	2.876	-0.004	4.0	GoodResponse	1	0.235	164.705	3	16	Target	Win	True
165.705	0.3	Win2	0.6470999999999999	0.004	Yes	2.876	-0.004	4.0	GoodResponse	1	0.235	n/a	3	16	ButtonPress	Win	True
165.738	0.44	Win2	0.6470999999999999	n/a	Yes	2.876	n/a	n/a	GoodResponse	1	n/a	n/a	3	16	Blank	Win	True
166.172	1.45	Win2	0.6470999999999999	n/a	Yes	2.876	n/a	5.0	GoodResponse	1	0.049	165.221	3	16	Feedback	Win	True
167.627	2.876	Win2	0.6470999999999999	n/a	Yes	2.876	n/a	n/a	GoodResponse	1	0.0	n/a	3	16	ISIslide	Win	True
170.519	0.25	Lose2	0.6667000000000001	0.0	Yes	2.731	0.019	n/a	GoodResponse	0	n/a	n/a	3	17	Cue	AvoidedLoss	True
170.77	3.95	Lose2	0.6667000000000001	0.0	Yes	2.731	0.001	n/a	GoodResponse	0	n/a	n/a	3	17	Fixation	AvoidedLoss	True
174.715	0.27	Lose2	0.6667000000000001	0.004	Yes	2.731	-0.004	4.0	GoodResponse	0	0.269	173.984	3	17	Target	AvoidedLoss	True
174.984	0.3	Lose2	0.6667000000000001	0.004	Yes	2.731	-0.004	4.0	GoodResponse	0	0.269	n/a	3	17	ButtonPress	AvoidedLoss	True
174.999	0.43	Lose2	0.6667000000000001	n/a	Yes	2.731	n/a	n/a	GoodResponse	0	n/a	n/a	3	17	Blank	AvoidedLoss	True
175.417	1.45	Lose2	0.6667000000000001	n/a	Yes	2.731	n/a	5.0	GoodResponse	0	0.024	174.441	3	17	Feedback	AvoidedLoss	True
176.871	2.731	Lose2	0.6667000000000001	n/a	Yes	2.731	n/a	n/a	GoodResponse	0	0.0	n/a	3	17	ISIslide	AvoidedLoss	True
179.629	0.25	Lose2	0.6315999999999999	0.001	No	2.721	0.029	n/a	NoResponse	-1	n/a	n/a	2	18	Cue	Loss	True
179.88	4.05	Lose2	0.6315999999999999	0.0	No	2.721	0.001	n/a	NoResponse	-1	n/a	n/a	2	18	Fixation	Loss	True
183.926	0.26	Lose2	0.6315999999999999	0.003	No	2.721	-0.003	4.0	NoResponse	-1	0.298	183.224	2	18	Target	Loss	True
184.193	0.44	Lose2	0.6315999999999999	n/a	No	2.721	n/a	n/a	NoResponse	-1	n/a	n/a	2	18	Blank	Loss	True
184.224	0.3	Lose2	0.6315999999999999	0.003	No	2.721	-0.003	4.0	NoResponse	-1	0.298	n/a	2	18	ButtonPress	Loss	True
184.628	1.45	Lose2	0.6315999999999999	n/a	No	2.721	n/a	5.0	NoResponse	-1	0.032	183.66	2	18	Feedback	Loss	True
186.082	2.721	Lose2	0.6315999999999999	n/a	No	2.721	n/a	n/a	NoResponse	-1	0.0	n/a	2	18	ISIslide	Loss	True
188.824	0.25	Control	0.6	0.0	No	2.926	0.024	n/a	NoResponse	0	n/a	n/a	2	19	Cue	Neutral	True
189.074	3.95	Control	0.6	0.001	No	2.926	0.0	n/a	NoResponse	0	n/a	n/a	2	19	Fixation	Neutral	True
193.02	0.27	Control	0.6	0.004	No	2.926	-0.004	4.0	NoResponse	0	0.298	192.318	2	19	Target	Neutral	True
193.304	0.43	Control	0.6	n/a	No	2.926	n/a	n/a	NoResponse	0	n/a	n/a	2	19	Blank	Neutral	True
193.318	0.3	Control	0.6	0.004	No	2.926	-0.004	4.0	NoResponse	0	0.298	n/a	2	19	ButtonPress	Neutral	True
193.722	1.45	Control	0.6	n/a	No	2.926	n/a	5.0	NoResponse	0	0.012	192.734	2	19	Feedback	Neutral	True
195.176	2.926	Control	0.6	n/a	No	2.926	n/a	n/a	NoResponse	0	0.0	n/a	2	19	ISIslide	Neutral	True
198.118	0.25	Control	0.619	0.0	Yes	2.632	0.018	n/a	GoodResponse	0	n/a	n/a	2	20	Cue	Neutral	True
198.369	4.05	Control	0.619	0.0	Yes	2.632	0.001	n/a	GoodResponse	0	n/a	n/a	2	20	Fixation	Neutral	True
202.414	0.28	Control	0.619	0.004	Yes	2.632	-0.004	4.0	GoodResponse	0	0.261	201.675	2	20	Target	Neutral	True
202.675	0.3	Control	0.619	0.004	Yes	2.632	-0.004	4.0	GoodResponse	0	0.261	n/a	2	20	ButtonPress	Neutral	True
202.699	0.42	Control	0.619	n/a	Yes	2.632	n/a	n/a	GoodResponse	0	n/a	n/a	2	20	Blank	Neutral	True
203.117	1.45	Control	0.619	n/a	Yes	2.632	n/a	5.0	GoodResponse	0	0.031	202.148	2	20	Feedback	Neutral	True
204.571	2.632	Control	0.619	n/a	Yes	2.632	n/a	n/a	GoodResponse	0	0.0	n/a	2	20	ISIslide	Neutral	True
207.229	0.25	Control	0.5909	0.0	No	2.771	0.029	n/a	NoResponse	0	n/a	n/a	2	21	Cue	Neutral	True
207.48	4.1	Control	0.5909	0.0	No	2.771	0.001	n/a	NoResponse	0	n/a	n/a	2	21	Fixation	Neutral	True
211.575	0.29	Control	0.5909	0.004	No	2.771	-0.004	4.0	NoResponse	0	0.341	210.916	2	21	Target	Neutral	True
211.876	0.41	Control	0.5909	n/a	No	2.771	n/a	n/a	NoResponse	0	n/a	n/a	2	21	Blank	Neutral	True
211.916	0.3	Control	0.5909	0.004	No	2.771	-0.004	4.0	NoResponse	0	0.341	n/a	2	21	ButtonPress	Neutral	True
212.277	1.45	Control	0.5909	n/a	No	2.771	n/a	5.0	NoResponse	0	0.042	211.319	2	21	Feedback	Neutral	True
213.732	2.771	Control	0.5909	n/a	No	2.771	n/a	n/a	NoResponse	0	0.0	n/a	2	21	ISIslide	Neutral	True
216.523	0.25	Control	0.6087	0.0	Yes	2.777	0.023	n/a	GoodResponse	0	n/a	n/a	2	22	Cue	Neutral	True
216.774	4.0	Control	0.6087	0.0	Yes	2.777	0.001	n/a	GoodResponse	0	n/a	n/a	2	22	Fixation	Neutral	True
220.769	0.3	Control	0.6087	0.004	Yes	2.777	-0.004	4.0	GoodResponse	0	0.278	220.047	2	22	Target	Neutral	True
221.047	0.3	Control	0.6087	0.004	Yes	2.777	-0.004	4.0	GoodResponse	0	0.278	n/a	2	22	ButtonPress	Neutral	True
221.07	0.4	Control	0.6087	n/a	Yes	2.777	n/a	n/a	GoodResponse	0	n/a	n/a	2	22	Blank	Neutral	True
221.472	1.45	Control	0.6087	n/a	Yes	2.777	n/a	5.0	GoodResponse	0	0.017	220.489	2	22	Feedback	Neutral	True
222.926	2.777	Control	0.6087	n/a	Yes	2.777	n/a	n/a	GoodResponse	0	0.0	n/a	2	22	ISIslide	Neutral	True
225.718	0.25	Control	0.5832999999999999	0.0	No	2.782	0.018	n/a	NoResponse	0	n/a	n/a	2	23	Cue	Neutral	False
225.968	3.9	Control	0.5832999999999999	0.0	No	2.782	0.0	4.0	NoResponse	0	2.781	227.749	2	23	Fixation	Neutral	False
228.749	0.3	Control	0.5832999999999999	0.0	No	2.782	0.0	4.0	NoResponse	0	2.781	n/a	2	23	ButtonPress	Neutral	False
229.88	0.31	Control	0.5832999999999999	0.0	No	2.782	0.012	4.0	NoResponse	0	0.332	229.212	2	23	Target	Neutral	False
230.181	0.39	Control	0.5832999999999999	n/a	No	2.782	n/a	n/a	NoResponse	0	n/a	n/a	2	23	Blank	Neutral	False
230.212	0.3	Control	0.5832999999999999	0.0	No	2.782	0.012	4.0	NoResponse	0	0.332	n/a	2	23	ButtonPress	Neutral	False
230.565	1.45	Control	0.5832999999999999	n/a	No	2.782	n/a	5.0	NoResponse	0	0.046	229.611	2	23	Feedback	Neutral	False
232.02	2.782	Control	0.5832999999999999	n/a	No	2.782	n/a	n/a	NoResponse	0	0.0	n/a	2	23	ISIslide	Neutral	False
234.828	0.25	Win2	0.6	0.0	Yes	3.122	0.028	n/a	GoodResponse	1	n/a	n/a	3	24	Cue	Win	True
235.079	3.95	Win2	0.6	0.0	Yes	3.122	0.001	n/a	GoodResponse	1	n/a	n/a	3	24	Fixation	Win	True
239.024	0.32	Win2	0.6	0.004	Yes	3.122	-0.004	4.0	GoodResponse	1	0.269	238.293	3	24	Target	Win	True
239.293	0.3	Win2	0.6	0.004	Yes	3.122	-0.004	4.0	GoodResponse	1	0.269	n/a	3	24	ButtonPress	Win	True
239.358	0.38	Win2	0.6	n/a	Yes	3.122	n/a	n/a	GoodResponse	1	n/a	n/a	3	24	Blank	Win	True
239.726	1.45	Win2	0.6	n/a	Yes	3.122	n/a	5.0	GoodResponse	1	0.007	238.733	3	24	Feedback	Win	True
241.181	3.122	Win2	0.6	n/a	Yes	3.122	n/a	n/a	GoodResponse	1	0.0	n/a	3	24	ISIslide	Win	True
244.323	0.25	Win2	0.6154	0.0	Yes	3.077	0.023	n/a	GoodResponse	1	n/a	n/a	4	25	Cue	Win	True
244.574	4.0	Win2	0.6154	0.0	Yes	3.077	0.001	n/a	GoodResponse	1	n/a	n/a	4	25	Fixation	Win	True
248.569	0.33	Win2	0.6154	0.004	Yes	3.077	-0.004	4.0	GoodResponse	1	0.26	247.829	4	25	Target	Win	True
248.829	0.3	Win2	0.6154	0.004	Yes	3.077	-0.004	4.0	GoodResponse	1	0.26	n/a	4	25	ButtonPress	Win	True
248.904	0.37	Win2	0.6154	n/a	Yes	3.077	n/a	n/a	GoodResponse	1	n/a	n/a	4	25	Blank	Win	True
249.271	1.45	Win2	0.6154	n/a	Yes	3.077	n/a	5.0	GoodResponse	1	0.023	248.294	4	25	Feedback	Win	True
250.726	3.077	Win2	0.6154	n/a	Yes	3.077	n/a	n/a	GoodResponse	1	0.0	n/a	4	25	ISIslide	Win	True
253.818	0.25	Win2	0.6296	0.001	Yes	2.932	0.018	n/a	GoodResponse	1	n/a	n/a	5	26	Cue	Win	True
254.069	3.95	Win2	0.6296	0.0	Yes	2.932	0.001	n/a	GoodResponse	1	n/a	n/a	5	26	Fixation	Win	True
258.014	0.34	Win2	0.6296	0.004	Yes	2.932	-0.004	4.0	GoodResponse	1	0.333	257.347	5	26	Target	Win	True
258.347	0.3	Win2	0.6296	0.004	Yes	2.932	-0.004	4.0	GoodResponse	1	0.333	n/a	5	26	ButtonPress	Win	True
258.365	0.36	Win2	0.6296	n/a	Yes	2.932	n/a	n/a	GoodResponse	1	n/a	n/a	5	26	Blank	Win	True
258.716	1.45	Win2	0.6296	n/a	Yes	2.932	n/a	5.0	GoodResponse	1	0.042	257.758	5	26	Feedback	Win	True
260.171	2.932	Win2	0.6296	n/a	Yes	2.932	n/a	n/a	GoodResponse	1	0.0	n/a	5	26	ISIslide	Win	True
263.13	0.25	Lose2	0.6429	0.0	Yes	2.82	0.03	n/a	GoodResponse	0	n/a	n/a	5	27	Cue	AvoidedLoss	True
263.38	4.05	Lose2	0.6429	0.0	Yes	2.82	0.0	n/a	GoodResponse	0	n/a	n/a	5	27	Fixation	AvoidedLoss	True
267.426	0.35	Lose2	0.6429	0.004	Yes	2.82	-0.004	4.0	GoodResponse	0	0.252	266.678	5	27	Target	AvoidedLoss	True
267.678	0.3	Lose2	0.6429	0.004	Yes	2.82	-0.004	4.0	GoodResponse	0	0.252	n/a	5	27	ButtonPress	AvoidedLoss	True
267.777	0.35	Lose2	0.6429	n/a	Yes	2.82	n/a	n/a	GoodResponse	0	n/a	n/a	5	27	Blank	AvoidedLoss	True
268.128	1.45	Lose2	0.6429	n/a	Yes	2.82	n/a	5.0	GoodResponse	0	0.045	267.173	5	27	Feedback	AvoidedLoss	True
269.582	2.82	Lose2	0.6429	n/a	Yes	2.82	n/a	n/a	GoodResponse	0	0.0	n/a	5	27	ISIslide	AvoidedLoss	True
272.424	0.25	Control	0.6552	0.0	Yes	2.826	0.024	n/a	GoodResponse	0	n/a	n/a	5	28	Cue	Neutral	True
272.675	4.05	Control	0.6552	0.0	Yes	2.826	0.001	n/a	GoodResponse	0	n/a	n/a	5	28	Fixation	Neutral	True
276.72	0.36	Control	0.6552	0.004	Yes	2.826	-0.004	4.0	GoodResponse	0	0.336	276.056	5	28	Target	Neutral	True
277.056	0.3	Control	0.6552	0.004	Yes	2.826	-0.004	4.0	GoodResponse	0	0.336	n/a	5	28	ButtonPress	Neutral	True
277.088	0.34	Control	0.6552	n/a	Yes	2.826	n/a	n/a	GoodResponse	0	n/a	n/a	5	28	Blank	Neutral	True
277.422	1.45	Control	0.6552	n/a	Yes	2.826	n/a	5.0	GoodResponse	0	0.018	276.44	5	28	Feedback	Neutral	True
278.877	2.826	Control	0.6552	n/a	Yes	2.826	n/a	n/a	GoodResponse	0	0.0	n/a	5	28	ISIslide	Neutral	True
281.719	0.25	Lose2	0.6667000000000001	0.0	Yes	2.831	0.019	n/a	GoodResponse	0	n/a	n/a	5	29	Cue	AvoidedLoss	True
281.969	3.95	Lose2	0.6667000000000001	0.001	Yes	2.831	0.0	n/a	GoodResponse	0	n/a	n/a	5	29	Fixation	AvoidedLoss	True
285.915	0.36	Lose2	0.6667000000000001	0.004	Yes	2.831	-0.004	4.0	GoodResponse	0	0.255	285.17	5	29	Target	AvoidedLoss	True
286.17	0.3	Lose2	0.6667000000000001	0.004	Yes	2.831	-0.004	4.0	GoodResponse	0	0.255	n/a	5	29	ButtonPress	AvoidedLoss	True
286.282	0.34	Lose2	0.6667000000000001	n/a	Yes	2.831	n/a	n/a	GoodResponse	0	n/a	n/a	5	29	Blank	AvoidedLoss	True
286.617	1.45	Lose2	0.6667000000000001	n/a	Yes	2.831	n/a	5.0	GoodResponse	0	0.043	285.66	5	29	Feedback	AvoidedLoss	True
288.071	2.831	Lose2	0.6667000000000001	n/a	Yes	2.831	n/a	n/a	GoodResponse	0	0.0	n/a	5	29	ISIslide	AvoidedLoss	True
290.93	0.25	Win2	0.6774	0.0	Yes	2.77	0.03	n/a	GoodResponse	1	n/a	n/a	6	30	Cue	Win	True
291.18	3.9	Win2	0.6774	0.0	Yes	2.77	0.0	n/a	GoodResponse	1	n/a	n/a	6	30	Fixation	Win	True
295.092	0.35	Win2	0.6774	0.0	Yes	2.77	0.012	4.0	GoodResponse	1	0.298	294.39	6	30	Target	Win	True
295.39	0.3	Win2	0.6774	0.0	Yes	2.77	0.012	4.0	GoodResponse	1	0.298	n/a	6	30	ButtonPress	Win	True
295.426	0.35	Win2	0.6774	n/a	Yes	2.77	n/a	n/a	GoodResponse	1	n/a	n/a	6	30	Blank	Win	True
295.777	1.45	Win2	0.6774	n/a	Yes	2.77	n/a	5.0	GoodResponse	1	0.008	294.785	6	30	Feedback	Win	True
297.232	2.77	Win2	0.6774	n/a	Yes	2.77	n/a	n/a	GoodResponse	1	0.0	n/a	6	30	ISIslide	Win	True
300.024	0.25	Lose2	0.6875	0.0	Yes	2.826	0.024	n/a	GoodResponse	0	n/a	n/a	6	31	Cue	AvoidedLoss	True
300.274	4.05	Lose2	0.6875	0.0	Yes	2.826	0.0	n/a	GoodResponse	0	n/a	n/a	6	31	Fixation	AvoidedLoss	True
304.32	0.34	Lose2	0.6875	0.004	Yes	2.826	-0.004	4.0	GoodResponse	0	0.235	303.555	6	31	Target	AvoidedLoss	True
304.555	0.3	Lose2	0.6875	0.004	Yes	2.826	-0.004	4.0	GoodResponse	0	0.235	n/a	6	31	ButtonPress	AvoidedLoss	True
304.671	0.36	Lose2	0.6875	n/a	Yes	2.826	n/a	n/a	GoodResponse	0	n/a	n/a	6	31	Blank	AvoidedLoss	True
305.022	1.45	Lose2	0.6875	n/a	Yes	2.826	n/a	5.0	GoodResponse	0	0.028	304.05	6	31	Feedback	AvoidedLoss	True
306.476	2.826	Lose2	0.6875	n/a	Yes	2.826	n/a	n/a	GoodResponse	0	0.0	n/a	6	31	ISIslide	AvoidedLoss	True
309.318	0.25	Lose2	0.6970000000000001	0.0	Yes	2.632	0.018	n/a	GoodResponse	0	n/a	n/a	6	32	Cue	AvoidedLoss	True
309.569	4.15	Lose2	0.6970000000000001	0.0	Yes	2.632	0.001	n/a	GoodResponse	0	n/a	n/a	6	32	Fixation	AvoidedLoss	True
313.715	0.33	Lose2	0.6970000000000001	0.003	Yes	2.632	-0.003	4.0	GoodResponse	0	0.301	313.016	6	32	Target	AvoidedLoss	True
314.016	0.3	Lose2	0.6970000000000001	0.003	Yes	2.632	-0.003	4.0	GoodResponse	0	0.301	n/a	6	32	ButtonPress	AvoidedLoss	True
314.049	0.37	Lose2	0.6970000000000001	n/a	Yes	2.632	n/a	n/a	GoodResponse	0	n/a	n/a	6	32	Blank	AvoidedLoss	True
314.417	1.45	Lose2	0.6970000000000001	n/a	Yes	2.632	n/a	5.0	GoodResponse	0	0.048	313.465	6	32	Feedback	AvoidedLoss	True
315.871	2.632	Lose2	0.6970000000000001	n/a	Yes	2.632	n/a	n/a	GoodResponse	0	0.0	n/a	6	32	ISIslide	AvoidedLoss	True
318.529	0.25	Win2	0.7059000000000001	0.0	Yes	2.671	0.029	n/a	GoodResponse	1	n/a	n/a	7	33	Cue	Win	True
318.78	4.0	Win2	0.7059000000000001	0.0	Yes	2.671	0.001	n/a	GoodResponse	1	n/a	n/a	7	33	Fixation	Win	True
322.775	0.32	Win2	0.7059000000000001	0.004	Yes	2.671	-0.004	4.0	GoodResponse	1	0.243	322.018	7	33	Target	Win	True
323.018	0.3	Win2	0.7059000000000001	0.004	Yes	2.671	-0.004	4.0	GoodResponse	1	0.243	n/a	7	33	ButtonPress	Win	True
323.109	0.38	Win2	0.7059000000000001	n/a	Yes	2.671	n/a	n/a	GoodResponse	1	n/a	n/a	7	33	Blank	Win	True
323.477	1.45	Win2	0.7059000000000001	n/a	Yes	2.671	n/a	5.0	GoodResponse	1	0.012	322.489	7	33	Feedback	Win	True
324.932	2.671	Win2	0.7059000000000001	n/a	Yes	2.671	n/a	n/a	GoodResponse	1	0.0	n/a	7	33	ISIslide	Win	True
327.623	0.25	Lose2	0.7143	0.0	Yes	2.627	0.023	n/a	GoodResponse	0	n/a	n/a	7	34	Cue	AvoidedLoss	True
327.874	4.05	Lose2	0.7143	0.0	Yes	2.627	0.001	n/a	GoodResponse	0	n/a	n/a	7	34	Fixation	AvoidedLoss	True
331.919	0.31	Lose2	0.7143	0.004	Yes	2.627	-0.004	4.0	GoodResponse	0	0.267	331.186	7	34	Target	AvoidedLoss	True
332.186	0.3	Lose2	0.7143	0.004	Yes	2.627	-0.004	4.0	GoodResponse	0	0.267	n/a	7	34	ButtonPress	AvoidedLoss	True
332.237	0.39	Lose2	0.7143	n/a	Yes	2.627	n/a	n/a	GoodResponse	0	n/a	n/a	7	34	Blank	AvoidedLoss	True
332.621	1.45	Lose2	0.7143	n/a	Yes	2.627	n/a	5.0	GoodResponse	0	0.039	331.66	7	34	Feedback	AvoidedLoss	True
334.076	2.627	Lose2	0.7143	n/a	Yes	2.627	n/a	n/a	GoodResponse	0	0.0	n/a	7	34	ISIslide	AvoidedLoss	True
336.717	0.25	Lose2	0.6944	0.0	No	2.683	0.017	n/a	LatePress	-1	n/a	n/a	6	35	Cue	Loss	True
336.968	4.0	Lose2	0.6944	0.0	No	2.683	0.001	n/a	LatePress	-1	n/a	n/a	6	35	Fixation	Loss	True
340.963	0.3	Lose2	0.6944	0.004	No	2.683	-0.004	4.0	LatePress	-1	0.3	340.263	6	35	Target	Loss	True
341.263	0.3	Lose2	0.6944	0.004	No	2.683	-0.004	4.0	LatePress	-1	0.3	n/a	6	35	ButtonPress	Loss	True
341.264	0.4	Lose2	0.6944	n/a	No	2.683	n/a	n/a	LatePress	-1	n/a	n/a	6	35	Blank	Loss	True
341.665	1.45	Lose2	0.6944	n/a	No	2.683	n/a	5.0	LatePress	-1	0.019	340.684	6	35	Feedback	Loss	True
343.119	2.683	Lose2	0.6944	n/a	No	2.683	n/a	n/a	LatePress	-1	0.0	n/a	6	35	ISIslide	Loss	True
345.827	0.25	Control	0.6757	0.001	No	2.673	0.027	n/a	LatePress	0	n/a	n/a	6	36	Cue	Neutral	True
346.078	4.0	Control	0.6757	0.0	No	2.673	0.001	n/a	LatePress	0	n/a	n/a	6	36	Fixation	Neutral	True
350.074	0.29	Control	0.6757	0.003	No	2.673	-0.003	4.0	LatePress	0	0.297	349.371	6	36	Target	Neutral	True
350.371	0.3	Control	0.6757	0.003	No	2.673	-0.003	4.0	LatePress	0	0.297	n/a	6	36	ButtonPress	Neutral	True
350.374	0.41	Control	0.6757	n/a	No	2.673	n/a	n/a	LatePress	0	n/a	n/a	6	36	Blank	Neutral	True
350.776	1.45	Control	0.6757	n/a	No	2.673	n/a	5.0	LatePress	0	0.03	349.806	6	36	Feedback	Neutral	True
352.23	2.673	Control	0.6757	n/a	No	2.673	n/a	n/a	LatePress	0	0.0	n/a	6	36	ISIslide	Neutral	True
354.921	0.25	Win2	0.6842	0.0	Yes	2.879	0.021	n/a	GoodResponse	1	n/a	n/a	7	37	Cue	Win	True
355.172	4.0	Win2	0.6842	0.0	Yes	2.879	0.001	n/a	GoodResponse	1	n/a	n/a	7	37	Fixation	Win	True
359.167	0.28	Win2	0.6842	0.004	Yes	2.879	-0.004	4.0	GoodResponse	1	0.243	358.41	7	37	Target	Win	True
359.41	0.3	Win2	0.6842	0.004	Yes	2.879	-0.004	4.0	GoodResponse	1	0.243	n/a	7	37	ButtonPress	Win	True
359.452	0.42	Win2	0.6842	n/a	Yes	2.879	n/a	n/a	GoodResponse	1	n/a	n/a	7	37	Blank	Win	True
359.87	1.45	Win2	0.6842	n/a	Yes	2.879	n/a	5.0	GoodResponse	1	0.009	358.879	7	37	Feedback	Win	True
361.324	2.879	Win2	0.6842	n/a	Yes	2.879	n/a	n/a	GoodResponse	1	0.0	n/a	7	37	ISIslide	Win	True
364.216	0.25	Lose2	0.6923	0.0	Yes	2.834	0.016	n/a	GoodResponse	0	n/a	n/a	7	38	Cue	AvoidedLoss	True
364.467	3.95	Lose2	0.6923	0.0	Yes	2.834	0.001	n/a	GoodResponse	0	n/a	n/a	7	38	Fixation	AvoidedLoss	True
368.412	0.27	Lose2	0.6923	0.004	Yes	2.834	-0.004	4.0	GoodResponse	0	0.247	367.659	7	38	Target	AvoidedLoss	True
368.659	0.3	Lose2	0.6923	0.004	Yes	2.834	-0.004	4.0	GoodResponse	0	0.247	n/a	7	38	ButtonPress	AvoidedLoss	True
368.696	0.43	Lose2	0.6923	n/a	Yes	2.834	n/a	n/a	GoodResponse	0	n/a	n/a	7	38	Blank	AvoidedLoss	True
369.114	1.45	Lose2	0.6923	n/a	Yes	2.834	n/a	5.0	GoodResponse	0	0.033	368.147	7	38	Feedback	AvoidedLoss	True
370.568	2.834	Lose2	0.6923	n/a	Yes	2.834	n/a	n/a	GoodResponse	0	0.0	n/a	7	38	ISIslide	AvoidedLoss	True
373.427	0.25	Win2	0.675	0.0	No	2.973	0.027	n/a	NoResponse	0	n/a	n/a	7	39	Cue	MissedWin	True
373.678	4.1	Win2	0.675	0.0	No	2.973	0.001	n/a	NoResponse	0	n/a	n/a	7	39	Fixation	MissedWin	True
377.773	0.26	Win2	0.675	0.004	No	2.973	-0.004	4.0	NoResponse	0	0.293	377.066	7	39	Target	MissedWin	True
378.041	0.44	Win2	0.675	n/a	No	2.973	n/a	n/a	NoResponse	0	n/a	n/a	7	39	Blank	MissedWin	True
378.066	0.3	Win2	0.675	0.004	No	2.973	-0.004	4.0	NoResponse	0	0.293	n/a	7	39	ButtonPress	MissedWin	True
378.475	1.45	Win2	0.675	n/a	No	2.973	n/a	5.0	NoResponse	0	0.038	377.513	7	39	Feedback	MissedWin	True
379.93	2.973	Win2	0.675	n/a	No	2.973	n/a	n/a	NoResponse	0	0.0	n/a	7	39	ISIslide	MissedWin	True
382.922	0.25	Win2	0.6829000000000001	0.0	Yes	2.728	0.022	n/a	GoodResponse	1	n/a	n/a	8	40	Cue	Win	True
383.173	3.95	Win2	0.6829000000000001	0.0	Yes	2.728	0.001	n/a	GoodResponse	1	n/a	n/a	8	40	Fixation	Win	True
387.118	0.25	Win2	0.6829000000000001	0.004	Yes	2.728	-0.004	4.0	GoodResponse	1	0.221	386.339	8	40	Target	Win	True
387.339	0.3	Win2	0.6829000000000001	0.004	Yes	2.728	-0.004	4.0	GoodResponse	1	0.221	n/a	8	40	ButtonPress	Win	True
387.369	0.45	Win2	0.6829000000000001	n/a	Yes	2.728	n/a	n/a	GoodResponse	1	n/a	n/a	8	40	Blank	Win	True
387.82	1.45	Win2	0.6829000000000001	n/a	Yes	2.728	n/a	5.0	GoodResponse	1	0.011	386.831	8	40	Feedback	Win	True
389.274	2.728	Win2	0.6829000000000001	n/a	Yes	2.728	n/a	n/a	GoodResponse	1	0.0	n/a	8	40	ISIslide	Win	True
392.016	0.25	Win2	0.6905	0.0	Yes	2.784	0.016	n/a	GoodResponse	1	n/a	n/a	9	41	Cue	Win	True
392.267	3.9	Win2	0.6905	0.0	Yes	2.784	0.001	n/a	GoodResponse	1	n/a	n/a	9	41	Fixation	Win	True
396.162	0.24	Win2	0.6905	0.004	Yes	2.784	-0.004	4.0	GoodResponse	1	0.231	395.393	9	41	Target	Win	True
396.393	0.3	Win2	0.6905	0.004	Yes	2.784	-0.004	4.0	GoodResponse	1	0.231	n/a	9	41	ButtonPress	Win	True
396.412	0.46	Win2	0.6905	n/a	Yes	2.784	n/a	n/a	GoodResponse	1	n/a	n/a	9	41	Blank	Win	True
396.864	1.45	Win2	0.6905	n/a	Yes	2.784	n/a	5.0	GoodResponse	1	0.039	395.903	9	41	Feedback	Win	True
398.318	2.784	Win2	0.6905	n/a	Yes	2.784	n/a	n/a	GoodResponse	1	0.0	n/a	9	41	ISIslide	Win	True
401.126	0.25	Control	0.6744	0.001	No	2.924	0.026	n/a	NoResponse	0	n/a	n/a	9	42	Cue	Neutral	True
401.377	3.85	Control	0.6744	0.0	No	2.924	0.001	n/a	NoResponse	0	n/a	n/a	9	42	Fixation	Neutral	True
405.222	0.23	Control	0.6744	0.004	No	2.924	-0.004	4.0	NoResponse	0	0.284	404.506	9	42	Target	Neutral	True
405.456	0.47	Control	0.6744	n/a	No	2.924	n/a	n/a	NoResponse	0	n/a	n/a	9	42	Blank	Neutral	True
405.506	0.3	Control	0.6744	0.004	No	2.924	-0.004	4.0	NoResponse	0	0.284	n/a	9	42	ButtonPress	Neutral	True
405.924	1.45	Control	0.6744	n/a	No	2.924	n/a	5.0	NoResponse	0	0.006	404.93	9	42	Feedback	Neutral	True
407.379	2.924	Control	0.6744	n/a	No	2.924	n/a	n/a	NoResponse	0	0.0	n/a	9	42	ISIslide	Neutral	True
410.321	0.25	Win2	0.6591	0.0	No	3.179	0.021	n/a	NoResponse	0	n/a	n/a	9	43	Cue	MissedWin	False
410.571	4.0	Win2	0.6591	0.001	No	3.179	0.0	4.0	NoResponse	0	3.7	413.271	9	43	Fixation	MissedWin	False
414.271	0.3	Win2	0.6591	0.001	No	3.179	0.0	4.0	NoResponse	0	3.7	n/a	9	43	ButtonPress	MissedWin	False
414.567	0.22	Win2	0.6591	0.004	No	3.179	-0.004	4.0	NoResponse	0	0.425	413.992	9	43	Target	MissedWin	False
414.801	0.48	Win2	0.6591	n/a	No	3.179	n/a	n/a	NoResponse	0	n/a	n/a	9	43	Blank	MissedWin	False
414.992	0.3	Win2	0.6591	0.004	No	3.179	-0.004	4.0	NoResponse	0	0.425	n/a	9	43	ButtonPress	MissedWin	False
415.269	1.45	Win2	0.6591	n/a	No	3.179	n/a	5.0	NoResponse	0	0.024	414.293	9	43	Feedback	MissedWin	False
416.723	3.179	Win2	0.6591	n/a	No	3.179	n/a	n/a	NoResponse	0	0.0	n/a	9	43	ISIslide	MissedWin	False
419.916	0.25	Win2	0.6444	0.0	No	2.984	0.016	n/a	NoResponse	0	n/a	n/a	9	44	Cue	MissedWin	True
420.167	4.0	Win2	0.6444	0.0	No	2.984	0.001	n/a	NoResponse	0	n/a	n/a	9	44	Fixation	MissedWin	True
424.162	0.22	Win2	0.6444	0.004	No	2.984	-0.004	4.0	NoResponse	0	0.265	423.427	9	44	Target	MissedWin	True
424.396	0.48	Win2	0.6444	n/a	No	2.984	n/a	n/a	NoResponse	0	n/a	n/a	9	44	Blank	MissedWin	True
424.427	0.3	Win2	0.6444	0.004	No	2.984	-0.004	4.0	NoResponse	0	0.265	n/a	9	44	ButtonPress	MissedWin	True
424.864	1.45	Win2	0.6444	n/a	No	2.984	n/a	5.0	NoResponse	0	0.039	423.903	9	44	Feedback	MissedWin	True
426.319	2.984	Win2	0.6444	n/a	No	2.984	n/a	n/a	NoResponse	0	0.0	n/a	9	44	ISIslide	MissedWin	True
429.328	0.25	Control	0.6304	0.0	No	2.872	0.028	n/a	NoResponse	0	n/a	n/a	9	45	Cue	Neutral	True
429.578	4.1	Control	0.6304	0.0	No	2.872	0.0	n/a	NoResponse	0	n/a	n/a	9	45	Fixation	Neutral	True
433.674	0.23	Control	0.6304	0.004	No	2.872	-0.004	4.0	NoResponse	0	0.277	432.951	9	45	Target	Neutral	True
433.908	0.47	Control	0.6304	n/a	No	2.872	n/a	n/a	NoResponse	0	n/a	n/a	9	45	Blank	Neutral	True
433.951	0.3	Control	0.6304	0.004	No	2.872	-0.004	4.0	NoResponse	0	0.277	n/a	9	45	ButtonPress	Neutral	True
434.376	1.45	Control	0.6304	n/a	No	2.872	n/a	5.0	NoResponse	0	0.04	433.416	9	45	Feedback	Neutral	True
435.83	2.872	Control	0.6304	n/a	No	2.872	n/a	n/a	NoResponse	0	0.0	n/a	9	45	ISIslide	Neutral	True
438.722	0.25	Lose2	0.617	0.001	No	3.378	0.022	n/a	NoResponse	-1	n/a	n/a	8	46	Cue	Loss	True
438.973	4.0	Lose2	0.617	0.0	No	3.378	0.001	n/a	NoResponse	-1	n/a	n/a	8	46	Fixation	Loss	True
442.969	0.24	Lose2	0.617	0.003	No	3.378	-0.003	4.0	NoResponse	-1	0.273	442.242	8	46	Target	Loss	True
443.219	0.46	Lose2	0.617	n/a	No	3.378	n/a	n/a	NoResponse	-1	n/a	n/a	8	46	Blank	Loss	True
443.242	0.3	Lose2	0.617	0.003	No	3.378	-0.003	4.0	NoResponse	-1	0.273	n/a	8	46	ButtonPress	Loss	True
443.671	1.45	Lose2	0.617	n/a	No	3.378	n/a	5.0	NoResponse	-1	0.013	442.684	8	46	Feedback	Loss	True
445.125	3.378	Lose2	0.617	n/a	No	3.378	n/a	n/a	NoResponse	-1	0.0	n/a	8	46	ISIslide	Loss	True
448.518	0.25	Lose2	0.6042000000000001	0.001	No	2.682	0.018	n/a	NoResponse	-1	n/a	n/a	7	47	Cue	Loss	True
448.769	4.0	Lose2	0.6042000000000001	0.0	No	2.682	0.001	n/a	NoResponse	-1	n/a	n/a	7	47	Fixation	Loss	True
452.765	0.25	Lose2	0.6042000000000001	0.003	No	2.682	-0.003	4.0	NoResponse	-1	0.314	452.079	7	47	Target	Loss	True
453.015	0.45	Lose2	0.6042000000000001	n/a	No	2.682	n/a	n/a	NoResponse	-1	n/a	n/a	7	47	Blank	Loss	True
453.079	0.3	Lose2	0.6042000000000001	0.003	No	2.682	-0.003	4.0	NoResponse	-1	0.314	n/a	7	47	ButtonPress	Loss	True
453.467	1.45	Lose2	0.6042000000000001	n/a	No	2.682	n/a	5.0	NoResponse	-1	0.022	452.489	7	47	Feedback	Loss	True
454.921	2.682	Lose2	0.6042000000000001	n/a	No	2.682	n/a	n/a	NoResponse	-1	0.0	n/a	7	47	ISIslide	Loss	True
457.629	0.25	Lose2	0.5918	0.0	No	3.021	0.029	n/a	NoResponse	-1	n/a	n/a	6	48	Cue	Loss	True
457.88	3.95	Lose2	0.5918	0.0	No	3.021	0.001	n/a	NoResponse	-1	n/a	n/a	6	48	Fixation	Loss	True
461.825	0.26	Lose2	0.5918	0.004	No	3.021	-0.004	4.0	NoResponse	-1	0.298	461.123	6	48	Target	Loss	True
462.092	0.44	Lose2	0.5918	n/a	No	3.021	n/a	n/a	NoResponse	-1	n/a	n/a	6	48	Blank	Loss	True
462.123	0.3	Lose2	0.5918	0.004	No	3.021	-0.004	4.0	NoResponse	-1	0.298	n/a	6	48	ButtonPress	Loss	True
462.527	1.45	Lose2	0.5918	n/a	No	3.021	n/a	5.0	NoResponse	-1	0.034	461.561	6	48	Feedback	Loss	True
463.981	3.021	Lose2	0.5918	n/a	No	3.021	n/a	n/a	NoResponse	-1	0.0	n/a	6	48	ISIslide	Loss	True
467.024	0.25	Control	0.58	0.0	No	2.876	0.024	n/a	LatePress	0	n/a	n/a	6	49	Cue	Neutral	True
467.275	4.0	Control	0.58	0.0	No	2.876	0.001	n/a	LatePress	0	n/a	n/a	6	49	Fixation	Neutral	True
471.27	0.27	Control	0.58	0.004	No	2.876	-0.004	4.0	LatePress	0	0.278	470.548	6	49	Target	Neutral	True
471.548	0.3	Control	0.58	0.004	No	2.876	-0.004	4.0	LatePress	0	0.278	n/a	6	49	ButtonPress	Neutral	True
471.554	0.43	Control	0.58	n/a	No	2.876	n/a	n/a	LatePress	0	n/a	n/a	6	49	Blank	Neutral	True
471.972	1.45	Control	0.58	n/a	No	2.876	n/a	5.0	LatePress	0	0.005	470.977	6	49	Feedback	Neutral	True
473.426	2.876	Control	0.58	n/a	No	2.876	n/a	n/a	LatePress	0	0.0	n/a	6	49	ISIslide	Neutral	True
476.318	0.25	Control	0.5686	0.001	No	2.782	0.018	n/a	NoResponse	0	n/a	n/a	6	50	Cue	Neutral	True
476.569	4.0	Control	0.5686	0.0	No	2.782	0.001	n/a	NoResponse	0	n/a	n/a	6	50	Fixation	Neutral	True
480.565	0.28	Control	0.5686	0.003	No	2.782	-0.003	4.0	NoResponse	0	0.291	479.856	6	50	Target	Neutral	True
480.849	0.42	Control	0.5686	n/a	No	2.782	n/a	n/a	NoResponse	0	n/a	n/a	6	50	Blank	Neutral	True
480.856	0.3	Control	0.5686	0.003	No	2.782	-0.003	4.0	NoResponse	0	0.291	n/a	6	50	ButtonPress	Neutral	True
481.267	1.45	Control	0.5686	n/a	No	2.782	n/a	5.0	NoResponse	0	0.026	480.293	6	50	Feedback	Neutral	True
482.721	2.782	Control	0.5686	n/a	No	2.782	n/a	n/a	NoResponse	0	0.0	n/a	6	50	ISIslide	Neutral	True
485.529	0.25	Control	0.5577000000000001	0.0	No	2.721	0.029	n/a	NoResponse	0	n/a	n/a	6	51	Cue	Neutral	True
485.78	3.95	Control	0.5577000000000001	0.0	No	2.721	0.001	n/a	NoResponse	0	n/a	n/a	6	51	Fixation	Neutral	True
489.725	0.29	Control	0.5577000000000001	0.004	No	2.721	-0.004	4.0	NoResponse	0	0.338	489.063	6	51	Target	Neutral	True
490.026	0.41	Control	0.5577000000000001	n/a	No	2.721	n/a	n/a	NoResponse	0	n/a	n/a	6	51	Blank	Neutral	True
490.063	0.3	Control	0.5577000000000001	0.004	No	2.721	-0.004	4.0	NoResponse	0	0.338	n/a	6	51	ButtonPress	Neutral	True
490.427	1.45	Control	0.5577000000000001	n/a	No	2.721	n/a	5.0	NoResponse	0	0.037	489.464	6	51	Feedback	Neutral	True
491.882	2.721	Control	0.5577000000000001	n/a	No	2.721	n/a	n/a	NoResponse	0	0.0	n/a	6	51	ISIslide	Neutral	True
494.623	0.25	Control	0.5660000000000001	0.0	Yes	2.627	0.023	n/a	GoodResponse	0	n/a	n/a	6	52	Cue	Neutral	True
494.874	4.05	Control	0.5660000000000001	0.0	Yes	2.627	0.001	n/a	GoodResponse	0	n/a	n/a	6	52	Fixation	Neutral	True
498.92	0.3	Control	0.5660000000000001	0.003	Yes	2.627	-0.003	4.0	GoodResponse	0	0.286	498.206	6	52	Target	Neutral	True
499.206	0.3	Control	0.5660000000000001	0.003	Yes	2.627	-0.003	4.0	GoodResponse	0	0.286	n/a	6	52	ButtonPress	Neutral	True
499.22	0.4	Control	0.5660000000000001	n/a	Yes	2.627	n/a	n/a	GoodResponse	0	n/a	n/a	6	52	Blank	Neutral	True
499.622	1.45	Control	0.5660000000000001	n/a	Yes	2.627	n/a	5.0	GoodResponse	0	0.013	498.635	6	52	Feedback	Neutral	True
501.076	2.627	Control	0.5660000000000001	n/a	Yes	2.627	n/a	n/a	GoodResponse	0	0.0	n/a	6	52	ISIslide	Neutral	True
503.717	0.25	Win2	0.5740999999999999	0.0	Yes	2.933	0.017	n/a	GoodResponse	1	n/a	n/a	7	53	Cue	Win	False
503.968	4.05	Win2	0.5740999999999999	0.0	Yes	2.933	0.001	4.0	GoodResponse	1	0.091	503.059	7	53	Fixation	Win	False
504.059	0.3	Win2	0.5740999999999999	0.0	Yes	2.933	0.001	4.0	GoodResponse	1	0.091	n/a	7	53	ButtonPress	Win	False
508.013	0.31	Win2	0.5740999999999999	0.004	Yes	2.933	-0.004	4.0	GoodResponse	1	0.248	507.261	7	53	Target	Win	False
508.261	0.3	Win2	0.5740999999999999	0.004	Yes	2.933	-0.004	4.0	GoodResponse	1	0.248	n/a	7	53	ButtonPress	Win	False
508.331	0.39	Win2	0.5740999999999999	n/a	Yes	2.933	n/a	n/a	GoodResponse	1	n/a	n/a	7	53	Blank	Win	False
508.716	1.45	Win2	0.5740999999999999	n/a	Yes	2.933	n/a	5.0	GoodResponse	1	0.041	507.757	7	53	Feedback	Win	False
510.17	2.933	Win2	0.5740999999999999	n/a	Yes	2.933	n/a	n/a	GoodResponse	1	0.0	n/a	7	53	ISIslide	Win	False
513.129	0.25	Win2	0.5818	0.0	Yes	2.721	0.029	n/a	GoodResponse	1	n/a	n/a	8	54	Cue	Win	False
513.38	3.95	Win2	0.5818	0.0	Yes	2.721	0.001	4.0	GoodResponse	1	0.312	512.692	8	54	Fixation	Win	False
513.692	0.3	Win2	0.5818	0.0	Yes	2.721	0.001	4.0	GoodResponse	1	0.312	n/a	8	54	ButtonPress	Win	False
517.325	0.32	Win2	0.5818	0.004	Yes	2.721	-0.004	4.0	GoodResponse	1	0.303	516.628	8	54	Target	Win	False
517.628	0.3	Win2	0.5818	0.004	Yes	2.721	-0.004	4.0	GoodResponse	1	0.303	n/a	8	54	ButtonPress	Win	False
517.659	0.38	Win2	0.5818	n/a	Yes	2.721	n/a	n/a	GoodResponse	1	n/a	n/a	8	54	Blank	Win	False
518.027	1.45	Win2	0.5818	n/a	Yes	2.721	n/a	5.0	GoodResponse	1	0.046	517.073	8	54	Feedback	Win	False
519.481	2.721	Win2	0.5818	n/a	Yes	2.721	n/a	n/a	GoodResponse	1	0.0	n/a	8	54	ISIslide	Win	False
522.223	0.25	Control	0.5714	0.0	No	3.027	0.023	n/a	NoResponse	0	n/a	n/a	8	55	Cue	Neutral	True
522.473	3.95	Control	0.5714	0.001	No	3.027	0.0	n/a	NoResponse	0	n/a	n/a	8	55	Fixation	Neutral	True
526.419	0.33	Control	0.5714	0.004	No	3.027	-0.004	4.0	NoResponse	0	0.41	525.829	8	55	Target	Neutral	True
526.753	0.37	Control	0.5714	n/a	No	3.027	n/a	n/a	NoResponse	0	n/a	n/a	8	55	Blank	Neutral	True
526.829	0.3	Control	0.5714	0.004	No	3.027	-0.004	4.0	NoResponse	0	0.41	n/a	8	55	ButtonPress	Neutral	True
527.121	1.45	Control	0.5714	n/a	No	3.027	n/a	5.0	NoResponse	0	0.026	526.147	8	55	Feedback	Neutral	True
528.575	3.027	Control	0.5714	n/a	No	3.027	n/a	n/a	NoResponse	0	0.0	n/a	8	55	ISIslide	Neutral	True
531.617	0.25	Control	0.5789	0.001	Yes	2.833	0.017	n/a	GoodResponse	0	n/a	n/a	8	56	Cue	Neutral	True
531.868	3.95	Control	0.5789	0.0	Yes	2.833	0.001	n/a	GoodResponse	0	n/a	n/a	8	56	Fixation	Neutral	True
535.813	0.34	Control	0.5789	0.004	Yes	2.833	-0.004	4.0	GoodResponse	0	0.312	535.125	8	56	Target	Neutral	True
536.125	0.3	Control	0.5789	0.004	Yes	2.833	-0.004	4.0	GoodResponse	0	0.312	n/a	8	56	ButtonPress	Neutral	True
536.164	0.36	Control	0.5789	n/a	Yes	2.833	n/a	n/a	GoodResponse	0	n/a	n/a	8	56	Blank	Neutral	True
536.516	1.45	Control	0.5789	n/a	Yes	2.833	n/a	5.0	GoodResponse	0	0.045	535.561	8	56	Feedback	Neutral	True
537.97	2.833	Control	0.5789	n/a	Yes	2.833	n/a	n/a	GoodResponse	0	0.0	n/a	8	56	ISIslide	Neutral	True
540.828	0.25	Control	0.569	0.001	No	3.472	0.028	n/a	NoResponse	0	n/a	n/a	8	57	Cue	Neutral	False
541.079	4.0	Control	0.569	0.0	No	3.472	0.001	4.0	NoResponse	0	0.172	540.251	8	57	Fixation	Neutral	False
541.251	0.3	Control	0.569	0.0	No	3.472	0.001	4.0	NoResponse	0	0.172	n/a	8	57	ButtonPress	Neutral	False
545.074	0.35	Control	0.569	0.004	No	3.472	-0.004	4.0	NoResponse	0	0.416	544.49	8	57	Target	Neutral	False
545.426	0.35	Control	0.569	n/a	No	3.472	n/a	n/a	NoResponse	0	n/a	n/a	8	57	Blank	Neutral	False
545.49	0.3	Control	0.569	0.004	No	3.472	-0.004	4.0	NoResponse	0	0.416	n/a	8	57	ButtonPress	Neutral	False
545.777	1.45	Control	0.569	n/a	No	3.472	n/a	5.0	NoResponse	0	0.004	544.781	8	57	Feedback	Neutral	False
547.231	3.472	Control	0.569	n/a	No	3.472	n/a	n/a	NoResponse	0	0.0	n/a	8	57	ISIslide	Neutral	False
550.725	0.25	Win2	0.5763	0.0	Yes	2.725	0.025	n/a	GoodResponse	1	n/a	n/a	9	58	Cue	Win	True
550.975	4.05	Win2	0.5763	0.001	Yes	2.725	0.0	n/a	GoodResponse	1	n/a	n/a	9	58	Fixation	Win	True
555.021	0.36	Win2	0.5763	0.004	Yes	2.725	-0.004	4.0	GoodResponse	1	0.232	554.253	9	58	Target	Win	True
555.253	0.3	Win2	0.5763	0.004	Yes	2.725	-0.004	4.0	GoodResponse	1	0.232	n/a	9	58	ButtonPress	Win	True
555.389	0.34	Win2	0.5763	n/a	Yes	2.725	n/a	n/a	GoodResponse	1	n/a	n/a	9	58	Blank	Win	True
555.723	1.45	Win2	0.5763	n/a	Yes	2.725	n/a	5.0	GoodResponse	1	0.009	554.732	9	58	Feedback	Win	True
557.177	2.725	Win2	0.5763	n/a	Yes	2.725	n/a	n/a	GoodResponse	1	0.0	n/a	9	58	ISIslide	Win	True
559.919	0.25	Lose2	0.5832999999999999	0.0	Yes	2.681	0.019	n/a	GoodResponse	0	n/a	n/a	9	59	Cue	AvoidedLoss	True
560.17	4.0	Lose2	0.5832999999999999	0.0	Yes	2.681	0.001	n/a	GoodResponse	0	n/a	n/a	9	59	Fixation	AvoidedLoss	True
564.165	0.37	Lose2	0.5832999999999999	0.004	Yes	2.681	-0.004	4.0	GoodResponse	0	0.323	563.488	9	59	Target	AvoidedLoss	True
564.488	0.3	Lose2	0.5832999999999999	0.004	Yes	2.681	-0.004	4.0	GoodResponse	0	0.323	n/a	9	59	ButtonPress	AvoidedLoss	True
564.55	0.33	Lose2	0.5832999999999999	n/a	Yes	2.681	n/a	n/a	GoodResponse	0	n/a	n/a	9	59	Blank	AvoidedLoss	True
564.867	1.45	Lose2	0.5832999999999999	n/a	Yes	2.681	n/a	5.0	GoodResponse	0	0.036	563.903	9	59	Feedback	AvoidedLoss	True
566.321	2.681	Lose2	0.5832999999999999	n/a	Yes	2.681	n/a	n/a	GoodResponse	0	0.0	n/a	9	59	ISIslide	AvoidedLoss	True
569.03	0.25	Control	0.5738	0.0	No	2.67	0.03	n/a	NoResponse	0	n/a	n/a	9	60	Cue	Neutral	False
569.28	4.0	Control	0.5738	0.0	No	2.67	0.0	n/a	NoResponse	0	n/a	n/a	9	60	Fixation	Neutral	False
573.276	0.38	Control	0.5738	0.004	No	2.67	-0.004	n/a	NoResponse	0	n/a	n/a	9	60	Target	Neutral	False
573.66	0.32	Control	0.5738	n/a	No	2.67	n/a	n/a	NoResponse	0	n/a	n/a	9	60	Blank	Neutral	False
573.978	1.45	Control	0.5738	n/a	No	2.67	n/a	5.0	NoResponse	0	0.046	573.024	9	60	Feedback	Neutral	False
575.432	2.67	Control	0.5738	n/a	No	2.67	n/a	n/a	NoResponse	0	0.0	n/a	9	60	ISIslide	Neutral	False
578.124	0.25	Lose2	0.5806	0.0	Yes	2.976	0.024	n/a	GoodResponse	0	n/a	n/a	9	61	Cue	AvoidedLoss	True
578.374	4.0	Lose2	0.5806	0.0	Yes	2.976	0.0	n/a	GoodResponse	0	n/a	n/a	9	61	Fixation	AvoidedLoss	True
582.37	0.39	Lose2	0.5806	0.004	Yes	2.976	-0.004	4.0	GoodResponse	0	0.308	581.678	9	61	Target	AvoidedLoss	True
582.678	0.3	Lose2	0.5806	0.004	Yes	2.976	-0.004	4.0	GoodResponse	0	0.308	n/a	9	61	ButtonPress	AvoidedLoss	True
582.771	0.31	Lose2	0.5806	n/a	Yes	2.976	n/a	n/a	GoodResponse	0	n/a	n/a	9	61	Blank	AvoidedLoss	True
583.072	1.45	Lose2	0.5806	n/a	Yes	2.976	n/a	5.0	GoodResponse	0	0.025	582.097	9	61	Feedback	AvoidedLoss	True
584.526	2.976	Lose2	0.5806	n/a	Yes	2.976	n/a	n/a	GoodResponse	0	0.0	n/a	9	61	ISIslide	AvoidedLoss	True
587.518	0.25	Lose2	0.5872999999999999	0.0	Yes	2.882	0.018	n/a	GoodResponse	0	n/a	n/a	9	62	Cue	AvoidedLoss	True
587.769	3.9	Lose2	0.5872999999999999	0.0	Yes	2.882	0.001	n/a	GoodResponse	0	n/a	n/a	9	62	Fixation	AvoidedLoss	True
591.664	0.4	Lose2	0.5872999999999999	0.004	Yes	2.882	-0.004	4.0	GoodResponse	0	0.284	590.948	9	62	Target	AvoidedLoss	True
591.948	0.3	Lose2	0.5872999999999999	0.004	Yes	2.882	-0.004	4.0	GoodResponse	0	0.284	n/a	9	62	ButtonPress	AvoidedLoss	True
592.065	0.3	Lose2	0.5872999999999999	n/a	Yes	2.882	n/a	n/a	GoodResponse	0	n/a	n/a	9	62	Blank	AvoidedLoss	True
592.366	1.45	Lose2	0.5872999999999999	n/a	Yes	2.882	n/a	5.0	GoodResponse	0	0.049	591.415	9	62	Feedback	AvoidedLoss	True
593.821	2.882	Lose2	0.5872999999999999	n/a	Yes	2.882	n/a	n/a	GoodResponse	0	0.0	n/a	9	62	ISIslide	AvoidedLoss	True
596.729	0.25	Lose2	0.5938	0.0	Yes	2.621	0.029	n/a	GoodResponse	0	n/a	n/a	9	63	Cue	AvoidedLoss	True
596.98	4.05	Lose2	0.5938	0.0	Yes	2.621	0.001	n/a	GoodResponse	0	n/a	n/a	9	63	Fixation	AvoidedLoss	True
601.025	0.41	Lose2	0.5938	0.004	Yes	2.621	-0.004	4.0	GoodResponse	0	0.293	600.318	9	63	Target	AvoidedLoss	True
601.318	0.3	Lose2	0.5938	0.004	Yes	2.621	-0.004	4.0	GoodResponse	0	0.293	n/a	9	63	ButtonPress	AvoidedLoss	True
601.443	0.29	Lose2	0.5938	n/a	Yes	2.621	n/a	n/a	GoodResponse	0	n/a	n/a	9	63	Blank	AvoidedLoss	True
601.728	1.45	Lose2	0.5938	n/a	Yes	2.621	n/a	5.0	GoodResponse	0	0.004	600.732	9	63	Feedback	AvoidedLoss	True
603.182	2.621	Lose2	0.5938	n/a	Yes	2.621	n/a	n/a	GoodResponse	0	0.0	n/a	9	63	ISIslide	AvoidedLoss	True
605.823	0.25	Win2	0.6	0.0	Yes	3.127	0.023	n/a	GoodResponse	1	n/a	n/a	10	64	Cue	Win	True
606.074	4.15	Win2	0.6	0.0	Yes	3.127	0.001	n/a	GoodResponse	1	n/a	n/a	10	64	Fixation	Win	True
610.22	0.42	Win2	0.6	0.003	Yes	3.127	-0.003	4.0	GoodResponse	1	0.237	609.457	10	64	Target	Win	True
610.457	0.3	Win2	0.6	0.003	Yes	3.127	-0.003	4.0	GoodResponse	1	0.237	n/a	10	64	ButtonPress	Win	True
610.654	0.28	Win2	0.6	n/a	Yes	3.127	n/a	n/a	GoodResponse	1	n/a	n/a	10	64	Blank	Win	True
610.922	1.45	Win2	0.6	n/a	Yes	3.127	n/a	5.0	GoodResponse	1	0.029	609.951	10	64	Feedback	Win	True
612.376	3.127	Win2	0.6	n/a	Yes	3.127	n/a	n/a	GoodResponse	1	0.0	n/a	10	64	ISIslide	Win	True
615.519	0.25	Control	0.6061	0.0	Yes	2.781	0.019	n/a	GoodResponse	0	n/a	n/a	10	65	Cue	Neutral	True
615.77	4.0	Control	0.6061	0.0	Yes	2.781	0.001	n/a	GoodResponse	0	n/a	n/a	10	65	Fixation	Neutral	True
619.765	0.43	Control	0.6061	0.004	Yes	2.781	-0.004	4.0	GoodResponse	0	0.352	619.117	10	65	Target	Neutral	True
620.117	0.3	Control	0.6061	0.004	Yes	2.781	-0.004	4.0	GoodResponse	0	0.352	n/a	10	65	ButtonPress	Neutral	True
620.2	0.27	Control	0.6061	n/a	Yes	2.781	n/a	n/a	GoodResponse	0	n/a	n/a	10	65	Blank	Neutral	True
620.467	1.45	Control	0.6061	n/a	Yes	2.781	n/a	5.0	GoodResponse	0	0.046	619.513	10	65	Feedback	Neutral	True
621.921	2.781	Control	0.6061	n/a	Yes	2.781	n/a	n/a	GoodResponse	0	0.0	n/a	10	65	ISIslide	Neutral	True
624.73	0.25	Win2	0.6119	0.0	Yes	2.77	0.03	n/a	GoodResponse	1	n/a	n/a	11	66	Cue	Win	True
624.981	3.9	Win2	0.6119	0.0	Yes	2.77	0.001	n/a	GoodResponse	1	n/a	n/a	11	66	Fixation	Win	True
628.876	0.44	Win2	0.6119	0.004	Yes	2.77	-0.004	4.0	GoodResponse	1	0.267	628.143	11	66	Target	Win	True
629.143	0.3	Win2	0.6119	0.004	Yes	2.77	-0.004	4.0	GoodResponse	1	0.267	n/a	11	66	ButtonPress	Win	True
629.327	0.26	Win2	0.6119	n/a	Yes	2.77	n/a	n/a	GoodResponse	1	n/a	n/a	11	66	Blank	Win	True
629.578	1.45	Win2	0.6119	n/a	Yes	2.77	n/a	5.0	GoodResponse	1	0.008	628.586	11	66	Feedback	Win	True
631.032	2.77	Win2	0.6119	n/a	Yes	2.77	n/a	n/a	GoodResponse	1	0.0	n/a	11	66	ISIslide	Win	True
633.824	0.25	Control	0.6175999999999999	0.0	Yes	2.726	0.024	n/a	GoodResponse	0	n/a	n/a	11	67	Cue	Neutral	True
634.074	3.95	Control	0.6175999999999999	0.001	Yes	2.726	0.0	n/a	GoodResponse	0	n/a	n/a	11	67	Fixation	Neutral	True
638.02	0.45	Control	0.6175999999999999	0.004	Yes	2.726	-0.004	4.0	GoodResponse	0	0.393	637.413	11	67	Target	Neutral	True
638.413	0.3	Control	0.6175999999999999	0.004	Yes	2.726	-0.004	4.0	GoodResponse	0	0.393	n/a	11	67	ButtonPress	Neutral	True
638.471	0.25	Control	0.6175999999999999	n/a	Yes	2.726	n/a	n/a	GoodResponse	0	n/a	n/a	11	67	Blank	Neutral	True
638.722	1.45	Control	0.6175999999999999	n/a	Yes	2.726	n/a	5.0	GoodResponse	0	0.034	637.756	11	67	Feedback	Neutral	True
640.176	2.726	Control	0.6175999999999999	n/a	Yes	2.726	n/a	n/a	GoodResponse	0	0.0	n/a	11	67	ISIslide	Neutral	True
642.918	0.25	Win2	0.6232	0.0	Yes	3.082	0.018	n/a	GoodResponse	1	n/a	n/a	12	68	Cue	Win	False
643.168	4.0	Win2	0.6232	0.001	Yes	3.082	0.0	4.0	GoodResponse	1	0.342	642.51	12	68	Fixation	Win	False
643.51	0.3	Win2	0.6232	0.001	Yes	3.082	0.0	4.0	GoodResponse	1	0.342	n/a	12	68	ButtonPress	Win	False
647.164	0.46	Win2	0.6232	0.004	Yes	3.082	-0.004	4.0	GoodResponse	1	0.31	646.474	12	68	Target	Win	False
647.474	0.3	Win2	0.6232	0.004	Yes	3.082	-0.004	4.0	GoodResponse	1	0.31	n/a	12	68	ButtonPress	Win	False
647.632	0.24	Win2	0.6232	n/a	Yes	3.082	n/a	n/a	GoodResponse	1	n/a	n/a	12	68	Blank	Win	False
647.866	1.45	Win2	0.6232	n/a	Yes	3.082	n/a	5.0	GoodResponse	1	0.012	646.878	12	68	Feedback	Win	False
649.32	3.082	Win2	0.6232	n/a	Yes	3.082	n/a	n/a	GoodResponse	1	0.0	n/a	12	68	ISIslide	Win	False
652.429	0.25	Win2	0.6286	0.001	Yes	3.221	0.029	n/a	GoodResponse	1	n/a	n/a	13	69	Cue	Win	True
652.68	3.95	Win2	0.6286	0.0	Yes	3.221	0.001	n/a	GoodResponse	1	n/a	n/a	13	69	Fixation	Win	True
656.625	0.47	Win2	0.6286	0.004	Yes	3.221	-0.004	4.0	GoodResponse	1	0.297	655.922	13	69	Target	Win	True
656.922	0.3	Win2	0.6286	0.004	Yes	3.221	-0.004	4.0	GoodResponse	1	0.297	n/a	13	69	ButtonPress	Win	True
657.11	0.23	Win2	0.6286	n/a	Yes	3.221	n/a	n/a	GoodResponse	1	n/a	n/a	13	69	Blank	Win	True
657.328	1.45	Win2	0.6286	n/a	Yes	3.221	n/a	5.0	GoodResponse	1	0.013	656.341	13	69	Feedback	Win	True
658.782	3.221	Win2	0.6286	n/a	Yes	3.221	n/a	n/a	GoodResponse	1	0.0	n/a	13	69	ISIslide	Win	True
662.025	0.25	Lose2	0.6338	0.0	Yes	3.025	0.025	n/a	GoodResponse	0	n/a	n/a	13	70	Cue	AvoidedLoss	True
662.276	4.05	Lose2	0.6338	0.0	Yes	3.025	0.001	n/a	GoodResponse	0	n/a	n/a	13	70	Fixation	AvoidedLoss	True
666.321	0.48	Lose2	0.6338	0.004	Yes	3.025	-0.004	4.0	GoodResponse	0	0.4	665.721	13	70	Target	AvoidedLoss	True
666.721	0.3	Lose2	0.6338	0.004	Yes	3.025	-0.004	4.0	GoodResponse	0	0.4	n/a	13	70	ButtonPress	AvoidedLoss	True
666.806	0.22	Lose2	0.6338	n/a	Yes	3.025	n/a	n/a	GoodResponse	0	n/a	n/a	13	70	Blank	AvoidedLoss	True
667.023	1.45	Lose2	0.6338	n/a	Yes	3.025	n/a	5.0	GoodResponse	0	0.026	666.049	13	70	Feedback	AvoidedLoss	True
668.478	3.025	Lose2	0.6338	n/a	Yes	3.025	n/a	n/a	GoodResponse	0	0.0	n/a	13	70	ISIslide	AvoidedLoss	True
671.52	0.25	Win2	0.625	0.0	No	2.73	0.02	n/a	NoResponse	0	n/a	n/a	13	71	Cue	MissedWin	True
671.771	4.05	Win2	0.625	0.0	No	2.73	0.001	n/a	NoResponse	0	n/a	n/a	13	71	Fixation	MissedWin	True
675.816	0.49	Win2	0.625	0.004	No	2.73	-0.004	4.0	NoResponse	0	0.669	675.485	13	71	Target	MissedWin	True
676.318	0.21	Win2	0.625	n/a	No	2.73	n/a	n/a	NoResponse	0	n/a	n/a	13	71	Blank	MissedWin	True
676.485	0.3	Win2	0.625	0.004	No	2.73	-0.004	4.0	NoResponse	0	0.669	n/a	13	71	ButtonPress	MissedWin	True
676.518	1.45	Win2	0.625	n/a	No	2.73	n/a	5.0	NoResponse	0	0.043	675.561	13	71	Feedback	MissedWin	True
677.973	2.73	Win2	0.625	n/a	No	2.73	n/a	n/a	NoResponse	0	0.0	n/a	13	71	ISIslide	MissedWin	True
680.714	0.25	Win2	0.6301	0.0	Yes	2.786	0.014	n/a	GoodResponse	1	n/a	n/a	14	72	Cue	Win	True
680.965	4.1	Win2	0.6301	0.0	Yes	2.786	0.001	n/a	GoodResponse	1	n/a	n/a	14	72	Fixation	Win	True
685.061	0.5	Win2	0.6301	0.003	Yes	2.786	-0.003	4.0	GoodResponse	1	0.434	684.495	14	72	Target	Win	True
685.495	0.3	Win2	0.6301	0.003	Yes	2.786	-0.003	4.0	GoodResponse	1	0.434	n/a	14	72	ButtonPress	Win	True
685.562	0.2	Win2	0.6301	n/a	Yes	2.786	n/a	n/a	GoodResponse	1	n/a	n/a	14	72	Blank	Win	True
685.763	1.45	Win2	0.6301	n/a	Yes	2.786	n/a	5.0	GoodResponse	1	0.018	684.781	14	72	Feedback	Win	True
687.217	2.786	Win2	0.6301	n/a	Yes	2.786	n/a	n/a	GoodResponse	1	0.0	n/a	14	72	ISIslide	Win	True
690.025	0.25	Win2	0.6351	0.001	Yes	2.675	0.025	n/a	GoodResponse	1	n/a	n/a	15	73	Cue	Win	True
690.276	4.0	Win2	0.6351	0.0	Yes	2.675	0.001	n/a	GoodResponse	1	n/a	n/a	15	73	Fixation	Win	True
694.272	0.5	Win2	0.6351	0.003	Yes	2.675	-0.003	4.0	GoodResponse	1	0.275	693.547	15	73	Target	Win	True
694.547	0.3	Win2	0.6351	0.003	Yes	2.675	-0.003	4.0	GoodResponse	1	0.275	n/a	15	73	ButtonPress	Win	True
694.773	0.2	Win2	0.6351	n/a	Yes	2.675	n/a	n/a	GoodResponse	1	n/a	n/a	15	73	Blank	Win	True
694.974	1.45	Win2	0.6351	n/a	Yes	2.675	n/a	5.0	GoodResponse	1	0.025	693.999	15	73	Feedback	Win	True
696.428	2.675	Win2	0.6351	n/a	Yes	2.675	n/a	n/a	GoodResponse	1	0.0	n/a	15	73	ISIslide	Win	True
699.119	0.25	Lose2	0.64	0.001	Yes	2.631	0.019	n/a	GoodResponse	0	n/a	n/a	15	74	Cue	AvoidedLoss	True
699.37	4.05	Lose2	0.64	0.0	Yes	2.631	0.001	n/a	GoodResponse	0	n/a	n/a	15	74	Fixation	AvoidedLoss	True
703.416	0.5	Lose2	0.64	0.003	Yes	2.631	-0.003	4.0	GoodResponse	0	0.328	702.744	15	74	Target	AvoidedLoss	True
703.744	0.3	Lose2	0.64	0.003	Yes	2.631	-0.003	4.0	GoodResponse	0	0.328	n/a	15	74	ButtonPress	AvoidedLoss	True
703.917	0.2	Lose2	0.64	n/a	Yes	2.631	n/a	n/a	GoodResponse	0	n/a	n/a	15	74	Blank	AvoidedLoss	True
704.118	1.45	Lose2	0.64	n/a	Yes	2.631	n/a	5.0	GoodResponse	0	0.003	703.121	15	74	Feedback	AvoidedLoss	True
705.572	2.631	Lose2	0.64	n/a	Yes	2.631	n/a	n/a	GoodResponse	0	0.0	n/a	15	74	ISIslide	AvoidedLoss	True
708.213	0.25	Lose2	0.6446999999999999	0.0	Yes	2.937	0.013	n/a	GoodResponse	0	n/a	n/a	15	75	Cue	AvoidedLoss	True
708.464	3.95	Lose2	0.6446999999999999	0.0	Yes	2.937	0.001	n/a	GoodResponse	0	n/a	n/a	15	75	Fixation	AvoidedLoss	True
712.409	0.5	Lose2	0.6446999999999999	0.004	Yes	2.937	-0.004	4.0	GoodResponse	0	0.264	711.673	15	75	Target	AvoidedLoss	True
712.673	0.3	Lose2	0.6446999999999999	0.004	Yes	2.937	-0.004	4.0	GoodResponse	0	0.264	n/a	15	75	ButtonPress	AvoidedLoss	True
712.911	0.2	Lose2	0.6446999999999999	n/a	Yes	2.937	n/a	n/a	GoodResponse	0	n/a	n/a	15	75	Blank	AvoidedLoss	True
713.111	1.45	Lose2	0.6446999999999999	n/a	Yes	2.937	n/a	5.0	GoodResponse	0	0.035	712.146	15	75	Feedback	AvoidedLoss	True
714.566	2.937	Lose2	0.6446999999999999	n/a	Yes	2.937	n/a	n/a	GoodResponse	0	0.0	n/a	15	75	ISIslide	AvoidedLoss	True
717.525	0.25	Control	0.6494	0.0	Yes	3.225	0.025	n/a	GoodResponse	0	n/a	n/a	15	76	Cue	Neutral	True
717.775	4.05	Control	0.6494	0.0	Yes	3.225	0.0	n/a	GoodResponse	0	n/a	n/a	15	76	Fixation	Neutral	True
721.821	0.5	Control	0.6494	0.004	Yes	3.225	-0.004	4.0	GoodResponse	0	0.275	721.096	15	76	Target	Neutral	True
722.096	0.3	Control	0.6494	0.004	Yes	3.225	-0.004	4.0	GoodResponse	0	0.275	n/a	15	76	ButtonPress	Neutral	True
722.322	0.2	Control	0.6494	n/a	Yes	3.225	n/a	n/a	GoodResponse	0	n/a	n/a	15	76	Blank	Neutral	True
722.523	1.45	Control	0.6494	n/a	Yes	3.225	n/a	5.0	GoodResponse	0	0.038	721.561	15	76	Feedback	Neutral	True
723.977	3.225	Control	0.6494	n/a	Yes	3.225	n/a	n/a	GoodResponse	0	0.0	n/a	15	76	ISIslide	Neutral	True
727.22	0.25	Lose2	0.6537999999999999	0.0	Yes	2.58	0.02	n/a	GoodResponse	0	n/a	n/a	15	77	Cue	AvoidedLoss	True
727.471	3.95	Lose2	0.6537999999999999	0.0	Yes	2.58	0.001	n/a	GoodResponse	0	n/a	n/a	15	77	Fixation	AvoidedLoss	True
731.416	0.5	Lose2	0.6537999999999999	0.004	Yes	2.58	-0.004	4.0	GoodResponse	0	0.493	730.909	15	77	Target	AvoidedLoss	True
731.909	0.3	Lose2	0.6537999999999999	0.004	Yes	2.58	-0.004	4.0	GoodResponse	0	0.493	n/a	15	77	ButtonPress	AvoidedLoss	True
731.918	0.2	Lose2	0.6537999999999999	n/a	Yes	2.58	n/a	n/a	GoodResponse	0	n/a	n/a	15	77	Blank	AvoidedLoss	True
732.118	1.45	Lose2	0.6537999999999999	n/a	Yes	2.58	n/a	5.0	GoodResponse	0	0.005	731.123	15	77	Feedback	AvoidedLoss	True
733.573	2.58	Lose2	0.6537999999999999	n/a	Yes	2.58	n/a	n/a	GoodResponse	0	0.0	n/a	15	77	ISIslide	AvoidedLoss	True
