onset	duration	cue_type	current_mean_accuracy	duration_error	is_hit	isi_adjusted	onset_delay	response	response_type	reward	rt	rt_time	total_reward	trial_number	trial_phase	trial_type	one_press
11.098	0.25	Control	1.0	0.0	Yes	2.952	-0.002	n/a	GoodResponse	0	n/a	n/a	0	0	Cue	Neutral	True
11.349	3.85	Control	1.0	0.0	Yes	2.952	0.001	n/a	GoodResponse	0	n/a	n/a	0	0	Fixation	Neutral	True
15.194	0.4	Control	1.0	0.004	Yes	2.952	-0.004	2.0	GoodResponse	0	0.352	14.546	0	0	Target	Neutral	True
15.546	0.3	Control	1.0	0.004	Yes	2.952	-0.004	2.0	GoodResponse	0	0.352	n/a	0	0	ButtonPress	Neutral	True
15.595	0.3	Control	1.0	n/a	Yes	2.952	n/a	n/a	GoodResponse	0	n/a	n/a	0	0	Blank	Neutral	True
15.896	1.45	Control	1.0	n/a	Yes	2.952	n/a	5.0	GoodResponse	0	0.03	14.926	0	0	Feedback	Neutral	True
17.35	2.952	Control	1.0	n/a	Yes	2.952	n/a	n/a	GoodResponse	0	0.0	n/a	0	0	ISIslide	Neutral	True
20.326	0.25	Lose2	1.0	0.0	Yes	2.774	0.026	n/a	GoodResponse	0	n/a	n/a	0	1	Cue	AvoidedLoss	True
20.576	4.0	Lose2	1.0	0.001	Yes	2.774	0.0	n/a	GoodResponse	0	n/a	n/a	0	1	Fixation	AvoidedLoss	True
24.572	0.39	Lose2	1.0	0.004	Yes	2.774	-0.004	2.0	GoodResponse	0	0.266	23.838	0	1	Target	AvoidedLoss	True
24.838	0.3	Lose2	1.0	0.004	Yes	2.774	-0.004	2.0	GoodResponse	0	0.266	n/a	0	1	ButtonPress	AvoidedLoss	True
24.973	0.31	Lose2	1.0	n/a	Yes	2.774	n/a	n/a	GoodResponse	0	n/a	n/a	0	1	Blank	AvoidedLoss	True
25.274	1.45	Lose2	1.0	n/a	Yes	2.774	n/a	5.0	GoodResponse	0	0.018	24.292	0	1	Feedback	AvoidedLoss	True
26.728	2.774	Lose2	1.0	n/a	Yes	2.774	n/a	n/a	GoodResponse	0	0.0	n/a	0	1	ISIslide	AvoidedLoss	True
29.52	0.25	Control	1.0	0.0	Yes	2.58	0.02	n/a	GoodResponse	0	n/a	n/a	0	2	Cue	Neutral	True
29.771	4.1	Control	1.0	0.0	Yes	2.58	0.001	n/a	GoodResponse	0	n/a	n/a	0	2	Fixation	Neutral	True
33.866	0.38	Control	1.0	0.004	Yes	2.58	-0.004	2.0	GoodResponse	0	0.246	33.112	0	2	Target	Neutral	True
34.112	0.3	Control	1.0	0.004	Yes	2.58	-0.004	2.0	GoodResponse	0	0.246	n/a	0	2	ButtonPress	Neutral	True
34.251	0.32	Control	1.0	n/a	Yes	2.58	n/a	n/a	GoodResponse	0	n/a	n/a	0	2	Blank	Neutral	True
34.568	1.45	Control	1.0	n/a	Yes	2.58	n/a	5.0	GoodResponse	0	0.041	33.609	0	2	Feedback	Neutral	True
36.023	2.58	Control	1.0	n/a	Yes	2.58	n/a	n/a	GoodResponse	0	0.0	n/a	0	2	ISIslide	Neutral	True
38.63	0.25	Win2	1.0	0.001	Yes	2.82	0.03	n/a	GoodResponse	1	n/a	n/a	1	3	Cue	Win	True
38.881	3.95	Win2	1.0	0.0	Yes	2.82	0.001	n/a	GoodResponse	1	n/a	n/a	1	3	Fixation	Win	True
42.826	0.37	Win2	1.0	0.004	Yes	2.82	-0.004	2.0	GoodResponse	1	0.249	42.075	1	3	Target	Win	True
43.075	0.3	Win2	1.0	0.004	Yes	2.82	-0.004	2.0	GoodResponse	1	0.249	n/a	1	3	ButtonPress	Win	True
43.211	0.33	Win2	1.0	n/a	Yes	2.82	n/a	n/a	GoodResponse	1	n/a	n/a	1	3	Blank	Win	True
43.528	1.45	Win2	1.0	n/a	Yes	2.82	n/a	5.0	GoodResponse	1	0.008	42.536	1	3	Feedback	Win	True
44.983	2.82	Win2	1.0	n/a	Yes	2.82	n/a	n/a	GoodResponse	1	0.0	n/a	1	3	ISIslide	Win	True
47.825	0.25	Win2	0.8	0.0	No	3.275	0.025	n/a	LatePress	0	n/a	n/a	1	4	Cue	MissedWin	True
48.075	4.0	Win2	0.8	0.0	No	3.275	0.0	n/a	LatePress	0	n/a	n/a	1	4	Fixation	MissedWin	True
52.071	0.36	Win2	0.8	0.004	No	3.275	-0.004	2.0	LatePress	0	0.366	51.437	1	4	Target	MissedWin	True
52.437	0.3	Win2	0.8	0.004	No	3.275	-0.004	2.0	LatePress	0	0.366	n/a	1	4	ButtonPress	MissedWin	True
52.438	0.34	Win2	0.8	n/a	No	3.275	n/a	n/a	LatePress	0	n/a	n/a	1	4	Blank	MissedWin	True
52.773	1.45	Win2	0.8	n/a	No	3.275	n/a	5.0	LatePress	0	0.031	51.804	1	4	Feedback	MissedWin	True
54.227	3.275	Win2	0.8	n/a	No	3.275	n/a	n/a	LatePress	0	0.0	n/a	1	4	ISIslide	MissedWin	True
57.52	0.25	Win2	0.8332999999999999	0.0	Yes	2.78	0.02	n/a	GoodResponse	1	n/a	n/a	2	5	Cue	Win	True
57.771	4.0	Win2	0.8332999999999999	0.0	Yes	2.78	0.001	n/a	GoodResponse	1	n/a	n/a	2	5	Fixation	Win	True
61.766	0.35	Win2	0.8332999999999999	0.004	Yes	2.78	-0.004	2.0	GoodResponse	1	0.216	60.982	2	5	Target	Win	True
61.982	0.3	Win2	0.8332999999999999	0.004	Yes	2.78	-0.004	2.0	GoodResponse	1	0.216	n/a	2	5	ButtonPress	Win	True
62.117	0.35	Win2	0.8332999999999999	n/a	Yes	2.78	n/a	n/a	GoodResponse	1	n/a	n/a	2	5	Blank	Win	True
62.468	1.45	Win2	0.8332999999999999	n/a	Yes	2.78	n/a	5.0	GoodResponse	1	0.043	61.511	2	5	Feedback	Win	True
63.923	2.78	Win2	0.8332999999999999	n/a	Yes	2.78	n/a	n/a	GoodResponse	1	0.0	n/a	2	5	ISIslide	Win	True
66.731	0.25	Lose2	0.8571	0.0	Yes	2.719	0.031	n/a	GoodResponse	0	n/a	n/a	2	6	Cue	AvoidedLoss	True
66.982	3.95	Lose2	0.8571	0.0	Yes	2.719	0.001	n/a	GoodResponse	0	n/a	n/a	2	6	Fixation	AvoidedLoss	True
70.927	0.34	Lose2	0.8571	0.004	Yes	2.719	-0.004	2.0	GoodResponse	0	0.265	70.192	2	6	Target	AvoidedLoss	True
71.192	0.3	Lose2	0.8571	0.004	Yes	2.719	-0.004	2.0	GoodResponse	0	0.265	n/a	2	6	ButtonPress	AvoidedLoss	True
71.278	0.36	Lose2	0.8571	n/a	Yes	2.719	n/a	n/a	GoodResponse	0	n/a	n/a	2	6	Blank	AvoidedLoss	True
71.629	1.45	Lose2	0.8571	n/a	Yes	2.719	n/a	5.0	GoodResponse	0	0.007	70.636	2	6	Feedback	AvoidedLoss	True
73.083	2.719	Lose2	0.8571	n/a	Yes	2.719	n/a	n/a	GoodResponse	0	0.0	n/a	2	6	ISIslide	AvoidedLoss	True
75.825	0.25	Lose2	0.875	0.0	Yes	4.025	0.025	n/a	GoodResponse	0	n/a	n/a	2	7	Cue	AvoidedLoss	True
76.076	4.05	Lose2	0.875	0.0	Yes	4.025	0.001	n/a	GoodResponse	0	n/a	n/a	2	7	Fixation	AvoidedLoss	True
80.121	0.33	Lose2	0.875	0.004	Yes	4.025	-0.004	2.0	GoodResponse	0	0.253	79.374	2	7	Target	AvoidedLoss	True
80.374	0.3	Lose2	0.875	0.004	Yes	4.025	-0.004	2.0	GoodResponse	0	0.253	n/a	2	7	ButtonPress	AvoidedLoss	True
80.455	0.37	Lose2	0.875	n/a	Yes	4.025	n/a	n/a	GoodResponse	0	n/a	n/a	2	7	Blank	AvoidedLoss	True
80.823	1.45	Lose2	0.875	n/a	Yes	4.025	n/a	5.0	GoodResponse	0	0.029	79.852	2	7	Feedback	AvoidedLoss	True
82.278	4.025	Lose2	0.875	n/a	Yes	4.025	n/a	n/a	GoodResponse	0	0.0	n/a	2	7	ISIslide	AvoidedLoss	True
86.323	0.25	Lose2	0.7778	0.0	No	3.027	0.023	n/a	NoResponse	-1	n/a	n/a	1	8	Cue	Loss	True
86.574	3.95	Lose2	0.7778	0.0	No	3.027	0.001	n/a	NoResponse	-1	n/a	n/a	1	8	Fixation	Loss	True
90.519	0.32	Lose2	0.7778	0.004	No	3.027	-0.004	2.0	NoResponse	-1	0.381	89.9	1	8	Target	Loss	True
90.853	0.38	Lose2	0.7778	n/a	No	3.027	n/a	n/a	NoResponse	-1	n/a	n/a	1	8	Blank	Loss	True
90.9	0.3	Lose2	0.7778	0.004	No	3.027	-0.004	2.0	NoResponse	-1	0.381	n/a	1	8	ButtonPress	Loss	True
91.221	1.45	Lose2	0.7778	n/a	No	3.027	n/a	5.0	NoResponse	-1	0.022	90.243	1	8	Feedback	Loss	True
92.675	3.027	Lose2	0.7778	n/a	No	3.027	n/a	n/a	NoResponse	-1	0.0	n/a	1	8	ISIslide	Loss	True
95.718	0.25	Lose2	0.8	0.0	Yes	3.132	0.018	n/a	GoodResponse	0	n/a	n/a	1	9	Cue	AvoidedLoss	True
95.969	3.95	Lose2	0.8	0.0	Yes	3.132	0.001	n/a	GoodResponse	0	n/a	n/a	1	9	Fixation	AvoidedLoss	True
99.914	0.31	Lose2	0.8	0.004	Yes	3.132	-0.004	2.0	GoodResponse	0	0.213	99.127	1	9	Target	AvoidedLoss	True
100.127	0.3	Lose2	0.8	0.004	Yes	3.132	-0.004	2.0	GoodResponse	0	0.213	n/a	1	9	ButtonPress	AvoidedLoss	True
100.231	0.39	Lose2	0.8	n/a	Yes	3.132	n/a	n/a	GoodResponse	0	n/a	n/a	1	9	Blank	AvoidedLoss	True
100.616	1.45	Lose2	0.8	n/a	Yes	3.132	n/a	5.0	GoodResponse	0	0.04	99.656	1	9	Feedback	AvoidedLoss	True
102.07	3.132	Lose2	0.8	n/a	Yes	3.132	n/a	n/a	GoodResponse	0	0.0	n/a	1	9	ISIslide	AvoidedLoss	True
105.23	0.25	Control	0.7273000000000001	0.0	No	3.27	0.03	n/a	LatePress	0	n/a	n/a	1	10	Cue	Neutral	True
105.48	4.0	Control	0.7273000000000001	0.0	No	3.27	0.0	n/a	LatePress	0	n/a	n/a	1	10	Fixation	Neutral	True
109.476	0.3	Control	0.7273000000000001	0.004	No	3.27	-0.004	2.0	LatePress	0	0.301	108.777	1	10	Target	Neutral	True
109.777	0.4	Control	0.7273000000000001	n/a	No	3.27	n/a	n/a	LatePress	0	n/a	n/a	1	10	Blank	Neutral	True
109.777	0.3	Control	0.7273000000000001	0.004	No	3.27	-0.004	2.0	LatePress	0	0.301	n/a	1	10	ButtonPress	Neutral	True
110.178	1.45	Control	0.7273000000000001	n/a	No	3.27	n/a	5.0	LatePress	0	0.039	109.217	1	10	Feedback	Neutral	True
111.632	3.27	Control	0.7273000000000001	n/a	No	3.27	n/a	n/a	LatePress	0	0.0	n/a	1	10	ISIslide	Neutral	True
114.925	0.25	Lose2	0.75	0.0	Yes	2.725	0.025	n/a	GoodResponse	0	n/a	n/a	1	11	Cue	AvoidedLoss	True
115.176	4.05	Lose2	0.75	0.0	Yes	2.725	0.001	n/a	GoodResponse	0	n/a	n/a	1	11	Fixation	AvoidedLoss	True
119.221	0.29	Lose2	0.75	0.004	Yes	2.725	-0.004	2.0	GoodResponse	0	0.222	118.443	1	11	Target	AvoidedLoss	True
119.443	0.3	Lose2	0.75	0.004	Yes	2.725	-0.004	2.0	GoodResponse	0	0.222	n/a	1	11	ButtonPress	AvoidedLoss	True
119.522	0.41	Lose2	0.75	n/a	Yes	2.725	n/a	n/a	GoodResponse	0	n/a	n/a	1	11	Blank	AvoidedLoss	True
119.924	1.45	Lose2	0.75	n/a	Yes	2.725	n/a	5.0	GoodResponse	0	0.001	118.925	1	11	Feedback	AvoidedLoss	True
121.378	2.725	Lose2	0.75	n/a	Yes	2.725	n/a	n/a	GoodResponse	0	0.0	n/a	1	11	ISIslide	AvoidedLoss	True
124.119	0.25	Control	0.7692	0.0	Yes	2.981	0.019	n/a	GoodResponse	0	n/a	n/a	1	12	Cue	Neutral	True
124.37	3.9	Control	0.7692	0.0	Yes	2.981	0.001	n/a	GoodResponse	0	n/a	n/a	1	12	Fixation	Neutral	True
128.265	0.28	Control	0.7692	0.004	Yes	2.981	-0.004	2.0	GoodResponse	0	0.23	127.495	1	12	Target	Neutral	True
128.495	0.3	Control	0.7692	0.004	Yes	2.981	-0.004	2.0	GoodResponse	0	0.23	n/a	1	12	ButtonPress	Neutral	True
128.549	0.42	Control	0.7692	n/a	Yes	2.981	n/a	n/a	GoodResponse	0	n/a	n/a	1	12	Blank	Neutral	True
128.967	1.45	Control	0.7692	n/a	Yes	2.981	n/a	5.0	GoodResponse	0	0.031	127.998	1	12	Feedback	Neutral	True
130.422	2.981	Control	0.7692	n/a	Yes	2.981	n/a	n/a	GoodResponse	0	0.0	n/a	1	12	ISIslide	Neutral	True
133.431	0.25	Control	0.7857	0.0	Yes	2.769	0.031	n/a	GoodResponse	0	n/a	n/a	1	13	Cue	Neutral	True
133.681	4.0	Control	0.7857	0.0	Yes	2.769	0.0	n/a	GoodResponse	0	n/a	n/a	1	13	Fixation	Neutral	True
137.677	0.27	Control	0.7857	0.004	Yes	2.769	-0.004	2.0	GoodResponse	0	0.215	136.892	1	13	Target	Neutral	True
137.892	0.3	Control	0.7857	0.004	Yes	2.769	-0.004	2.0	GoodResponse	0	0.215	n/a	1	13	ButtonPress	Neutral	True
137.961	0.43	Control	0.7857	n/a	Yes	2.769	n/a	n/a	GoodResponse	0	n/a	n/a	1	13	Blank	Neutral	True
138.379	1.45	Control	0.7857	n/a	Yes	2.769	n/a	5.0	GoodResponse	0	0.034	137.413	1	13	Feedback	Neutral	True
139.833	2.769	Control	0.7857	n/a	Yes	2.769	n/a	n/a	GoodResponse	0	0.0	n/a	1	13	ISIslide	Neutral	True
142.625	0.25	Win2	0.8	0.0	Yes	2.675	0.025	n/a	GoodResponse	1	n/a	n/a	2	14	Cue	Win	True
142.875	4.1	Win2	0.8	0.001	Yes	2.675	0.0	n/a	GoodResponse	1	n/a	n/a	2	14	Fixation	Win	True
146.971	0.26	Win2	0.8	0.004	Yes	2.675	-0.004	2.0	GoodResponse	1	0.245	146.216	2	14	Target	Win	True
147.216	0.3	Win2	0.8	0.004	Yes	2.675	-0.004	2.0	GoodResponse	1	0.245	n/a	2	14	ButtonPress	Win	True
147.239	0.44	Win2	0.8	n/a	Yes	2.675	n/a	n/a	GoodResponse	1	n/a	n/a	2	14	Blank	Win	True
147.673	1.45	Win2	0.8	n/a	Yes	2.675	n/a	5.0	GoodResponse	1	0.007	146.68	2	14	Feedback	Win	True
149.128	2.675	Win2	0.8	n/a	Yes	2.675	n/a	n/a	GoodResponse	1	0.0	n/a	2	14	ISIslide	Win	True
151.819	0.25	Control	0.75	0.0	No	2.981	0.019	n/a	NoResponse	0	n/a	n/a	2	15	Cue	Neutral	True
152.07	4.0	Control	0.75	0.0	No	2.981	0.001	n/a	NoResponse	0	n/a	n/a	2	15	Fixation	Neutral	True
156.065	0.25	Control	0.75	0.004	No	2.981	-0.004	2.0	NoResponse	0	0.34	155.405	2	15	Target	Neutral	True
156.316	0.45	Control	0.75	n/a	No	2.981	n/a	n/a	NoResponse	0	n/a	n/a	2	15	Blank	Neutral	True
156.405	0.3	Control	0.75	0.004	No	2.981	-0.004	2.0	NoResponse	0	0.34	n/a	2	15	ButtonPress	Neutral	True
156.767	1.45	Control	0.75	n/a	No	2.981	n/a	5.0	NoResponse	0	0.035	155.802	2	15	Feedback	Neutral	True
158.221	2.981	Control	0.75	n/a	No	2.981	n/a	n/a	NoResponse	0	0.0	n/a	2	15	ISIslide	Neutral	True
161.23	0.25	Win2	0.7059000000000001	0.0	No	2.87	0.03	n/a	NoResponse	0	n/a	n/a	2	16	Cue	MissedWin	True
161.481	4.0	Win2	0.7059000000000001	0.0	No	2.87	0.001	n/a	NoResponse	0	n/a	n/a	2	16	Fixation	MissedWin	True
165.476	0.24	Win2	0.7059000000000001	0.004	No	2.87	-0.004	2.0	NoResponse	0	0.289	164.765	2	16	Target	MissedWin	True
165.727	0.46	Win2	0.7059000000000001	n/a	No	2.87	n/a	n/a	NoResponse	0	n/a	n/a	2	16	Blank	MissedWin	True
165.765	0.3	Win2	0.7059000000000001	0.004	No	2.87	-0.004	2.0	NoResponse	0	0.289	n/a	2	16	ButtonPress	MissedWin	True
166.178	1.45	Win2	0.7059000000000001	n/a	No	2.87	n/a	5.0	NoResponse	0	0.039	165.217	2	16	Feedback	MissedWin	True
167.633	2.87	Win2	0.7059000000000001	n/a	No	2.87	n/a	n/a	NoResponse	0	0.0	n/a	2	16	ISIslide	MissedWin	True
170.525	0.25	Lose2	0.6667000000000001	0.0	No	2.725	0.025	n/a	NoResponse	-1	n/a	n/a	1	17	Cue	Loss	True
170.776	3.95	Lose2	0.6667000000000001	0.0	No	2.725	0.001	n/a	NoResponse	-1	n/a	n/a	1	17	Fixation	Loss	True
174.721	0.23	Lose2	0.6667000000000001	0.004	No	2.725	-0.004	2.0	NoResponse	-1	0.32	174.041	1	17	Target	Loss	True
174.955	0.47	Lose2	0.6667000000000001	n/a	No	2.725	n/a	n/a	NoResponse	-1	n/a	n/a	1	17	Blank	Loss	True
175.041	0.3	Lose2	0.6667000000000001	0.004	No	2.725	-0.004	2.0	NoResponse	-1	0.32	n/a	1	17	ButtonPress	Loss	True
175.423	1.45	Lose2	0.6667000000000001	n/a	No	2.725	n/a	5.0	NoResponse	-1	0.014	174.437	1	17	Feedback	Loss	True
176.877	2.725	Lose2	0.6667000000000001	n/a	No	2.725	n/a	n/a	NoResponse	-1	0.0	n/a	1	17	ISIslide	Loss	True
179.619	0.25	Lose2	0.6315999999999999	0.0	No	2.731	0.019	n/a	NoResponse	-1	n/a	n/a	0	18	Cue	Loss	True
179.869	4.05	Lose2	0.6315999999999999	0.0	No	2.731	0.0	n/a	NoResponse	-1	n/a	n/a	0	18	Fixation	Loss	True
183.915	0.22	Lose2	0.6315999999999999	0.004	No	2.731	-0.004	2.0	NoResponse	-1	0.242	183.157	0	18	Target	Loss	True
184.149	0.48	Lose2	0.6315999999999999	n/a	No	2.731	n/a	n/a	NoResponse	-1	n/a	n/a	0	18	Blank	Loss	True
184.157	0.3	Lose2	0.6315999999999999	0.004	No	2.731	-0.004	2.0	NoResponse	-1	0.242	n/a	0	18	ButtonPress	Loss	True
184.617	1.45	Lose2	0.6315999999999999	n/a	No	2.731	n/a	5.0	NoResponse	-1	0.038	183.655	0	18	Feedback	Loss	True
186.071	2.731	Lose2	0.6315999999999999	n/a	No	2.731	n/a	n/a	NoResponse	-1	0.0	n/a	0	18	ISIslide	Loss	True
188.83	0.25	Control	0.6	0.0	No	2.92	0.03	n/a	NoResponse	0	n/a	n/a	0	19	Cue	Neutral	True
189.08	3.95	Control	0.6	0.0	No	2.92	0.0	n/a	NoResponse	0	n/a	n/a	0	19	Fixation	Neutral	True
193.042	0.23	Control	0.6	0.0	No	2.92	0.012	2.0	NoResponse	0	0.225	192.267	0	19	Target	Neutral	True
193.259	0.47	Control	0.6	n/a	No	2.92	n/a	n/a	NoResponse	0	n/a	n/a	0	19	Blank	Neutral	True
193.267	0.3	Control	0.6	0.0	No	2.92	0.012	2.0	NoResponse	0	0.225	n/a	0	19	ButtonPress	Neutral	True
193.728	1.45	Control	0.6	n/a	No	2.92	n/a	5.0	NoResponse	0	0.001	192.729	0	19	Feedback	Neutral	True
195.182	2.92	Control	0.6	n/a	No	2.92	n/a	n/a	NoResponse	0	0.0	n/a	0	19	ISIslide	Neutral	True
198.124	0.25	Control	0.619	0.0	Yes	2.626	0.024	n/a	GoodResponse	0	n/a	n/a	0	20	Cue	Neutral	True
198.375	4.05	Control	0.619	0.0	Yes	2.626	0.001	n/a	GoodResponse	0	n/a	n/a	0	20	Fixation	Neutral	True
202.42	0.24	Control	0.619	0.004	Yes	2.626	-0.004	2.0	GoodResponse	0	0.225	201.645	0	20	Target	Neutral	True
202.645	0.3	Control	0.619	0.004	Yes	2.626	-0.004	2.0	GoodResponse	0	0.225	n/a	0	20	ButtonPress	Neutral	True
202.671	0.46	Control	0.619	n/a	Yes	2.626	n/a	n/a	GoodResponse	0	n/a	n/a	0	20	Blank	Neutral	True
203.122	1.45	Control	0.619	n/a	Yes	2.626	n/a	5.0	GoodResponse	0	0.021	202.143	0	20	Feedback	Neutral	True
204.577	2.626	Control	0.619	n/a	Yes	2.626	n/a	n/a	GoodResponse	0	0.0	n/a	0	20	ISIslide	Neutral	True
207.218	0.25	Control	0.6364	0.0	Yes	2.782	0.018	n/a	GoodResponse	0	n/a	n/a	0	21	Cue	Neutral	True
207.469	4.1	Control	0.6364	0.0	Yes	2.782	0.001	n/a	GoodResponse	0	n/a	n/a	0	21	Fixation	Neutral	True
211.564	0.25	Control	0.6364	0.004	Yes	2.782	-0.004	2.0	GoodResponse	0	0.206	210.77	0	21	Target	Neutral	True
211.77	0.3	Control	0.6364	0.004	Yes	2.782	-0.004	2.0	GoodResponse	0	0.206	n/a	0	21	ButtonPress	Neutral	True
211.815	0.45	Control	0.6364	n/a	Yes	2.782	n/a	n/a	GoodResponse	0	n/a	n/a	0	21	Blank	Neutral	True
212.266	1.45	Control	0.6364	n/a	Yes	2.782	n/a	5.0	GoodResponse	0	0.048	211.314	0	21	Feedback	Neutral	True
213.721	2.782	Control	0.6364	n/a	Yes	2.782	n/a	n/a	GoodResponse	0	0.0	n/a	0	21	ISIslide	Neutral	True
216.529	0.25	Control	0.6522	0.0	Yes	2.771	0.029	n/a	GoodResponse	0	n/a	n/a	0	22	Cue	Neutral	True
216.78	4.0	Control	0.6522	0.0	Yes	2.771	0.001	n/a	GoodResponse	0	n/a	n/a	0	22	Fixation	Neutral	True
220.775	0.26	Control	0.6522	0.004	Yes	2.771	-0.004	2.0	GoodResponse	0	0.234	220.009	0	22	Target	Neutral	True
221.009	0.3	Control	0.6522	0.004	Yes	2.771	-0.004	2.0	GoodResponse	0	0.234	n/a	0	22	ButtonPress	Neutral	True
221.043	0.44	Control	0.6522	n/a	Yes	2.771	n/a	n/a	GoodResponse	0	n/a	n/a	0	22	Blank	Neutral	True
221.477	1.45	Control	0.6522	n/a	Yes	2.771	n/a	5.0	GoodResponse	0	0.008	220.485	0	22	Feedback	Neutral	True
222.931	2.771	Control	0.6522	n/a	Yes	2.771	n/a	n/a	GoodResponse	0	0.0	n/a	0	22	ISIslide	Neutral	True
225.723	0.25	Control	0.625	0.0	No	2.777	0.023	n/a	NoResponse	0	n/a	n/a	0	23	Cue	Neutral	True
225.974	3.9	Control	0.625	0.0	No	2.777	0.001	n/a	NoResponse	0	n/a	n/a	0	23	Fixation	Neutral	True
229.869	0.27	Control	0.625	0.004	No	2.777	-0.004	2.0	NoResponse	0	0.299	229.168	0	23	Target	Neutral	True
230.153	0.43	Control	0.625	n/a	No	2.777	n/a	n/a	NoResponse	0	n/a	n/a	0	23	Blank	Neutral	True
230.168	0.3	Control	0.625	0.004	No	2.777	-0.004	2.0	NoResponse	0	0.299	n/a	0	23	ButtonPress	Neutral	True
230.571	1.45	Control	0.625	n/a	No	2.777	n/a	5.0	NoResponse	0	0.035	229.606	0	23	Feedback	Neutral	True
232.025	2.777	Control	0.625	n/a	No	2.777	n/a	n/a	NoResponse	0	0.0	n/a	0	23	ISIslide	Neutral	True
234.817	0.25	Win2	0.64	0.0	Yes	3.133	0.017	n/a	GoodResponse	1	n/a	n/a	1	24	Cue	Win	True
235.068	3.95	Win2	0.64	0.0	Yes	3.133	0.001	n/a	GoodResponse	1	n/a	n/a	1	24	Fixation	Win	True
239.013	0.28	Win2	0.64	0.004	Yes	3.133	-0.004	2.0	GoodResponse	1	0.2	238.213	1	24	Target	Win	True
239.213	0.3	Win2	0.64	0.004	Yes	3.133	-0.004	2.0	GoodResponse	1	0.2	n/a	1	24	ButtonPress	Win	True
239.297	0.42	Win2	0.64	n/a	Yes	3.133	n/a	n/a	GoodResponse	1	n/a	n/a	1	24	Blank	Win	True
239.715	1.45	Win2	0.64	n/a	Yes	3.133	n/a	5.0	GoodResponse	1	0.013	238.728	1	24	Feedback	Win	True
241.169	3.133	Win2	0.64	n/a	Yes	3.133	n/a	n/a	GoodResponse	1	0.0	n/a	1	24	ISIslide	Win	True
244.329	0.25	Win2	0.6537999999999999	0.0	Yes	3.071	0.029	n/a	GoodResponse	1	n/a	n/a	2	25	Cue	Win	True
244.58	4.0	Win2	0.6537999999999999	0.0	Yes	3.071	0.001	n/a	GoodResponse	1	n/a	n/a	2	25	Fixation	Win	True
248.575	0.29	Win2	0.6537999999999999	0.004	Yes	3.071	-0.004	2.0	GoodResponse	1	0.227	247.802	2	25	Target	Win	True
248.802	0.3	Win2	0.6537999999999999	0.004	Yes	3.071	-0.004	2.0	GoodResponse	1	0.227	n/a	2	25	ButtonPress	Win	True
248.876	0.41	Win2	0.6537999999999999	n/a	Yes	3.071	n/a	n/a	GoodResponse	1	n/a	n/a	2	25	Blank	Win	True
249.277	1.45	Win2	0.6537999999999999	n/a	Yes	3.071	n/a	5.0	GoodResponse	1	0.012	248.289	2	25	Feedback	Win	True
250.731	3.071	Win2	0.6537999999999999	n/a	Yes	3.071	n/a	n/a	GoodResponse	1	0.0	n/a	2	25	ISIslide	Win	True
253.824	0.25	Win2	0.6667000000000001	0.0	Yes	2.926	0.024	n/a	GoodResponse	1	n/a	n/a	3	26	Cue	Win	True
254.075	3.95	Win2	0.6667000000000001	0.0	Yes	2.926	0.001	n/a	GoodResponse	1	n/a	n/a	3	26	Fixation	Win	True
258.02	0.3	Win2	0.6667000000000001	0.004	Yes	2.926	-0.004	2.0	GoodResponse	1	0.228	257.248	3	26	Target	Win	True
258.248	0.3	Win2	0.6667000000000001	0.004	Yes	2.926	-0.004	2.0	GoodResponse	1	0.228	n/a	3	26	ButtonPress	Win	True
258.321	0.4	Win2	0.6667000000000001	n/a	Yes	2.926	n/a	n/a	GoodResponse	1	n/a	n/a	3	26	Blank	Win	True
258.722	1.45	Win2	0.6667000000000001	n/a	Yes	2.926	n/a	5.0	GoodResponse	1	0.031	257.753	3	26	Feedback	Win	True
260.176	2.926	Win2	0.6667000000000001	n/a	Yes	2.926	n/a	n/a	GoodResponse	1	0.0	n/a	3	26	ISIslide	Win	True
263.118	0.25	Lose2	0.6786	0.0	Yes	2.832	0.018	n/a	GoodResponse	0	n/a	n/a	3	27	Cue	AvoidedLoss	True
263.369	4.05	Lose2	0.6786	0.0	Yes	2.832	0.001	n/a	GoodResponse	0	n/a	n/a	3	27	Fixation	AvoidedLoss	True
267.414	0.29	Lose2	0.6786	0.004	Yes	2.832	-0.004	2.0	GoodResponse	0	0.245	266.659	3	27	Target	AvoidedLoss	True
267.659	0.3	Lose2	0.6786	0.004	Yes	2.832	-0.004	2.0	GoodResponse	0	0.245	n/a	3	27	ButtonPress	AvoidedLoss	True
267.715	0.41	Lose2	0.6786	n/a	Yes	2.832	n/a	n/a	GoodResponse	0	n/a	n/a	3	27	Blank	AvoidedLoss	True
268.117	1.45	Lose2	0.6786	n/a	Yes	2.832	n/a	5.0	GoodResponse	0	0.005	267.122	3	27	Feedback	AvoidedLoss	True
269.571	2.832	Lose2	0.6786	n/a	Yes	2.832	n/a	n/a	GoodResponse	0	0.0	n/a	3	27	ISIslide	AvoidedLoss	True
272.429	0.25	Control	0.6897	0.001	Yes	2.821	0.029	n/a	GoodResponse	0	n/a	n/a	3	28	Cue	Neutral	True
272.68	4.05	Control	0.6897	0.0	Yes	2.821	0.001	n/a	GoodResponse	0	n/a	n/a	3	28	Fixation	Neutral	True
276.726	0.28	Control	0.6897	0.003	Yes	2.821	-0.003	2.0	GoodResponse	0	0.279	276.005	3	28	Target	Neutral	True
277.005	0.3	Control	0.6897	0.003	Yes	2.821	-0.003	2.0	GoodResponse	0	0.279	n/a	3	28	ButtonPress	Neutral	True
277.01	0.42	Control	0.6897	n/a	Yes	2.821	n/a	n/a	GoodResponse	0	n/a	n/a	3	28	Blank	Neutral	True
277.428	1.45	Control	0.6897	n/a	Yes	2.821	n/a	5.0	GoodResponse	0	0.007	276.435	3	28	Feedback	Neutral	True
278.882	2.821	Control	0.6897	n/a	Yes	2.821	n/a	n/a	GoodResponse	0	0.0	n/a	3	28	ISIslide	Neutral	True
281.724	0.25	Lose2	0.7	0.0	Yes	2.826	0.024	n/a	GoodResponse	0	n/a	n/a	3	29	Cue	AvoidedLoss	True
281.975	3.95	Lose2	0.7	0.0	Yes	2.826	0.001	n/a	GoodResponse	0	n/a	n/a	3	29	Fixation	AvoidedLoss	True
285.92	0.27	Lose2	0.7	0.004	Yes	2.826	-0.004	2.0	GoodResponse	0	0.23	285.15	3	29	Target	AvoidedLoss	True
286.15	0.3	Lose2	0.7	0.004	Yes	2.826	-0.004	2.0	GoodResponse	0	0.23	n/a	3	29	ButtonPress	AvoidedLoss	True
286.204	0.43	Lose2	0.7	n/a	Yes	2.826	n/a	n/a	GoodResponse	0	n/a	n/a	3	29	Blank	AvoidedLoss	True
286.622	1.45	Lose2	0.7	n/a	Yes	2.826	n/a	5.0	GoodResponse	0	0.032	285.654	3	29	Feedback	AvoidedLoss	True
288.076	2.826	Lose2	0.7	n/a	Yes	2.826	n/a	n/a	GoodResponse	0	0.0	n/a	3	29	ISIslide	AvoidedLoss	True
290.918	0.25	Win2	0.7097	0.0	Yes	2.782	0.018	n/a	GoodResponse	1	n/a	n/a	4	30	Cue	Win	True
291.169	3.9	Win2	0.7097	0.0	Yes	2.782	0.001	n/a	GoodResponse	1	n/a	n/a	4	30	Fixation	Win	True
295.064	0.26	Win2	0.7097	0.004	Yes	2.782	-0.004	2.0	GoodResponse	1	0.259	294.323	4	30	Target	Win	True
295.323	0.3	Win2	0.7097	0.004	Yes	2.782	-0.004	2.0	GoodResponse	1	0.259	n/a	4	30	ButtonPress	Win	True
295.331	0.44	Win2	0.7097	n/a	Yes	2.782	n/a	n/a	GoodResponse	1	n/a	n/a	4	30	Blank	Win	True
295.766	1.45	Win2	0.7097	n/a	Yes	2.782	n/a	5.0	GoodResponse	1	0.011	294.777	4	30	Feedback	Win	True
297.22	2.782	Win2	0.7097	n/a	Yes	2.782	n/a	n/a	GoodResponse	1	0.0	n/a	4	30	ISIslide	Win	True
300.029	0.25	Lose2	0.7188	0.0	Yes	2.821	0.029	n/a	GoodResponse	0	n/a	n/a	4	31	Cue	AvoidedLoss	True
300.279	4.05	Lose2	0.7188	0.0	Yes	2.821	0.0	n/a	GoodResponse	0	n/a	n/a	4	31	Fixation	AvoidedLoss	True
304.325	0.25	Lose2	0.7188	0.004	Yes	2.821	-0.004	2.0	GoodResponse	0	0.245	303.57	4	31	Target	AvoidedLoss	True
304.57	0.3	Lose2	0.7188	0.004	Yes	2.821	-0.004	2.0	GoodResponse	0	0.245	n/a	4	31	ButtonPress	AvoidedLoss	True
304.576	0.45	Lose2	0.7188	n/a	Yes	2.821	n/a	n/a	GoodResponse	0	n/a	n/a	4	31	Blank	AvoidedLoss	True
305.027	1.45	Lose2	0.7188	n/a	Yes	2.821	n/a	5.0	GoodResponse	0	0.018	304.045	4	31	Feedback	AvoidedLoss	True
306.481	2.821	Lose2	0.7188	n/a	Yes	2.821	n/a	n/a	GoodResponse	0	0.0	n/a	4	31	ISIslide	AvoidedLoss	True
309.323	0.25	Lose2	0.6970000000000001	0.0	No	2.627	0.023	n/a	NoResponse	-1	n/a	n/a	3	32	Cue	Loss	True
309.574	4.15	Lose2	0.6970000000000001	0.0	No	2.627	0.001	n/a	NoResponse	-1	n/a	n/a	3	32	Fixation	Loss	True
313.72	0.24	Lose2	0.6970000000000001	0.003	No	2.627	-0.003	2.0	NoResponse	-1	0.287	313.007	3	32	Target	Loss	True
313.97	0.46	Lose2	0.6970000000000001	n/a	No	2.627	n/a	n/a	NoResponse	-1	n/a	n/a	3	32	Blank	Loss	True
314.007	0.3	Lose2	0.6970000000000001	0.003	No	2.627	-0.003	2.0	NoResponse	-1	0.287	n/a	3	32	ButtonPress	Loss	True
314.422	1.45	Lose2	0.6970000000000001	n/a	No	2.627	n/a	5.0	NoResponse	-1	0.037	313.459	3	32	Feedback	Loss	True
315.876	2.627	Lose2	0.6970000000000001	n/a	No	2.627	n/a	n/a	NoResponse	-1	0.0	n/a	3	32	ISIslide	Loss	True
318.517	0.25	Win2	0.7059000000000001	0.0	Yes	2.683	0.017	n/a	GoodResponse	1	n/a	n/a	4	33	Cue	Win	True
318.768	4.0	Win2	0.7059000000000001	0.0	Yes	2.683	0.001	n/a	GoodResponse	1	n/a	n/a	4	33	Fixation	Win	True
322.763	0.23	Win2	0.7059000000000001	0.004	Yes	2.683	-0.004	2.0	GoodResponse	1	0.187	321.95	4	33	Target	Win	True
322.95	0.3	Win2	0.7059000000000001	0.004	Yes	2.683	-0.004	2.0	GoodResponse	1	0.187	n/a	4	33	ButtonPress	Win	True
322.997	0.47	Win2	0.7059000000000001	n/a	Yes	2.683	n/a	n/a	GoodResponse	1	n/a	n/a	4	33	Blank	Win	True
323.465	1.45	Win2	0.7059000000000001	n/a	Yes	2.683	n/a	5.0	GoodResponse	1	0.018	322.483	4	33	Feedback	Win	True
324.92	2.683	Win2	0.7059000000000001	n/a	Yes	2.683	n/a	n/a	GoodResponse	1	0.0	n/a	4	33	ISIslide	Win	True
327.628	0.25	Lose2	0.7143	0.0	Yes	2.622	0.028	n/a	GoodResponse	0	n/a	n/a	4	34	Cue	AvoidedLoss	True
327.879	4.05	Lose2	0.7143	0.0	Yes	2.622	0.001	n/a	GoodResponse	0	n/a	n/a	4	34	Fixation	AvoidedLoss	True
331.924	0.22	Lose2	0.7143	0.004	Yes	2.622	-0.004	2.0	GoodResponse	0	0.211	331.135	4	34	Target	AvoidedLoss	True
332.135	0.3	Lose2	0.7143	0.004	Yes	2.622	-0.004	2.0	GoodResponse	0	0.211	n/a	4	34	ButtonPress	AvoidedLoss	True
332.158	0.48	Lose2	0.7143	n/a	Yes	2.622	n/a	n/a	GoodResponse	0	n/a	n/a	4	34	Blank	AvoidedLoss	True
332.626	1.45	Lose2	0.7143	n/a	Yes	2.622	n/a	5.0	GoodResponse	0	0.028	331.654	4	34	Feedback	AvoidedLoss	True
334.08	2.622	Lose2	0.7143	n/a	Yes	2.622	n/a	n/a	GoodResponse	0	0.0	n/a	4	34	ISIslide	AvoidedLoss	True
336.722	0.25	Lose2	0.6944	0.0	No	2.678	0.022	n/a	NoResponse	-1	n/a	n/a	3	35	Cue	Loss	True
336.972	4.0	Lose2	0.6944	0.001	No	2.678	0.0	n/a	NoResponse	-1	n/a	n/a	3	35	Fixation	Loss	True
340.968	0.21	Lose2	0.6944	0.004	No	2.678	-0.004	2.0	NoResponse	-1	0.31	340.278	3	35	Target	Loss	True
341.185	0.49	Lose2	0.6944	n/a	No	2.678	n/a	n/a	NoResponse	-1	n/a	n/a	3	35	Blank	Loss	True
341.278	0.3	Lose2	0.6944	0.004	No	2.678	-0.004	2.0	NoResponse	-1	0.31	n/a	3	35	ButtonPress	Loss	True
341.67	1.45	Lose2	0.6944	n/a	No	2.678	n/a	5.0	NoResponse	-1	0.008	340.678	3	35	Feedback	Loss	True
343.124	2.678	Lose2	0.6944	n/a	No	2.678	n/a	n/a	NoResponse	-1	0.0	n/a	3	35	ISIslide	Loss	True
345.816	0.25	Control	0.6757	0.0	No	2.684	0.016	n/a	NoResponse	0	n/a	n/a	3	36	Cue	Neutral	True
346.066	4.0	Control	0.6757	0.0	No	2.684	0.0	n/a	NoResponse	0	n/a	n/a	3	36	Fixation	Neutral	True
350.062	0.2	Control	0.6757	0.004	No	2.684	-0.004	2.0	NoResponse	0	0.348	349.41	3	36	Target	Neutral	True
350.262	0.5	Control	0.6757	n/a	No	2.684	n/a	n/a	NoResponse	0	n/a	n/a	3	36	Blank	Neutral	True
350.41	0.3	Control	0.6757	0.004	No	2.684	-0.004	2.0	NoResponse	0	0.348	n/a	3	36	ButtonPress	Neutral	True
350.764	1.45	Control	0.6757	n/a	No	2.684	n/a	5.0	NoResponse	0	0.037	349.801	3	36	Feedback	Neutral	True
352.218	2.684	Control	0.6757	n/a	No	2.684	n/a	n/a	NoResponse	0	0.0	n/a	3	36	ISIslide	Neutral	True
354.926	0.25	Win2	0.6579	0.0	No	2.874	0.026	n/a	NoResponse	0	n/a	n/a	3	37	Cue	MissedWin	True
355.177	4.0	Win2	0.6579	0.0	No	2.874	0.001	n/a	NoResponse	0	n/a	n/a	3	37	Fixation	MissedWin	True
359.172	0.19	Win2	0.6579	0.004	No	2.874	-0.004	2.0	NoResponse	0	0.435	358.607	3	37	Target	MissedWin	True
359.373	0.51	Win2	0.6579	n/a	No	2.874	n/a	n/a	NoResponse	0	n/a	n/a	3	37	Blank	MissedWin	True
359.607	0.3	Win2	0.6579	0.004	No	2.874	-0.004	2.0	NoResponse	0	0.435	n/a	3	37	ButtonPress	MissedWin	True
359.874	1.45	Win2	0.6579	n/a	No	2.874	n/a	5.0	NoResponse	0	0.048	358.922	3	37	Feedback	MissedWin	True
361.329	2.874	Win2	0.6579	n/a	No	2.874	n/a	n/a	NoResponse	0	0.0	n/a	3	37	ISIslide	MissedWin	True
364.221	0.25	Lose2	0.6409999999999999	0.0	No	2.829	0.021	n/a	NoResponse	-1	n/a	n/a	2	38	Cue	Loss	False
364.471	3.95	Lose2	0.6409999999999999	0.0	No	2.829	0.0	2.0	NoResponse	-1	0.11	363.581	2	38	Fixation	Loss	False
364.581	0.3	Lose2	0.6409999999999999	0.0	No	2.829	0.0	2.0	NoResponse	-1	0.11	n/a	2	38	ButtonPress	Loss	False
368.416	0.19	Lose2	0.6409999999999999	0.005	No	2.829	-0.005	2.0	NoResponse	-1	0.241	367.657	2	38	Target	Loss	False
368.617	0.51	Lose2	0.6409999999999999	n/a	No	2.829	n/a	n/a	NoResponse	-1	n/a	n/a	2	38	Blank	Loss	False
368.657	0.3	Lose2	0.6409999999999999	0.005	No	2.829	-0.005	2.0	NoResponse	-1	0.241	n/a	2	38	ButtonPress	Loss	False
369.119	1.45	Lose2	0.6409999999999999	n/a	No	2.829	n/a	5.0	NoResponse	-1	0.022	368.141	2	38	Feedback	Loss	False
370.573	2.829	Lose2	0.6409999999999999	n/a	No	2.829	n/a	n/a	NoResponse	-1	0.0	n/a	2	38	ISIslide	Loss	False
373.431	0.25	Win2	0.625	0.001	No	2.969	0.031	n/a	NoResponse	0	n/a	n/a	2	39	Cue	MissedWin	True
373.682	4.1	Win2	0.625	0.0	No	2.969	0.001	n/a	NoResponse	0	n/a	n/a	2	39	Fixation	MissedWin	True
377.778	0.2	Win2	0.625	0.003	No	2.969	-0.003	2.0	NoResponse	0	0.242	377.02	2	39	Target	MissedWin	True
377.978	0.5	Win2	0.625	n/a	No	2.969	n/a	n/a	NoResponse	0	n/a	n/a	2	39	Blank	MissedWin	True
378.02	0.3	Win2	0.625	0.003	No	2.969	-0.003	2.0	NoResponse	0	0.242	n/a	2	39	ButtonPress	MissedWin	True
378.48	1.45	Win2	0.625	n/a	No	2.969	n/a	5.0	NoResponse	0	0.027	377.507	2	39	Feedback	MissedWin	True
379.934	2.969	Win2	0.625	n/a	No	2.969	n/a	n/a	NoResponse	0	0.0	n/a	2	39	ISIslide	MissedWin	True
382.927	0.25	Win2	0.6098	0.0	No	2.723	0.027	n/a	NoResponse	0	n/a	n/a	2	40	Cue	MissedWin	True
383.177	3.95	Win2	0.6098	0.0	No	2.723	0.0	n/a	NoResponse	0	n/a	n/a	2	40	Fixation	MissedWin	True
387.139	0.21	Win2	0.6098	0.0	No	2.723	0.012	2.0	NoResponse	0	0.227	386.366	2	40	Target	MissedWin	True
387.34	0.49	Win2	0.6098	n/a	No	2.723	n/a	n/a	NoResponse	0	n/a	n/a	2	40	Blank	MissedWin	True
387.366	0.3	Win2	0.6098	0.0	No	2.723	0.012	2.0	NoResponse	0	0.227	n/a	2	40	ButtonPress	MissedWin	True
387.825	1.45	Win2	0.6098	n/a	No	2.723	n/a	5.0	NoResponse	0	0.048	386.873	2	40	Feedback	MissedWin	True
389.279	2.723	Win2	0.6098	n/a	No	2.723	n/a	n/a	NoResponse	0	0.0	n/a	2	40	ISIslide	MissedWin	True
392.02	0.25	Win2	0.619	0.001	Yes	2.78	0.02	n/a	GoodResponse	1	n/a	n/a	3	41	Cue	Win	True
392.271	3.9	Win2	0.619	0.0	Yes	2.78	0.001	n/a	GoodResponse	1	n/a	n/a	3	41	Fixation	Win	True
396.166	0.22	Win2	0.619	0.004	Yes	2.78	-0.004	2.0	GoodResponse	1	0.199	395.365	3	41	Target	Win	True
396.365	0.3	Win2	0.619	0.004	Yes	2.78	-0.004	2.0	GoodResponse	1	0.199	n/a	3	41	ButtonPress	Win	True
396.4	0.48	Win2	0.619	n/a	Yes	2.78	n/a	n/a	GoodResponse	1	n/a	n/a	3	41	Blank	Win	True
396.868	1.45	Win2	0.619	n/a	Yes	2.78	n/a	5.0	GoodResponse	1	0.03	395.898	3	41	Feedback	Win	True
398.323	2.78	Win2	0.619	n/a	Yes	2.78	n/a	n/a	GoodResponse	1	0.0	n/a	3	41	ISIslide	Win	True
401.114	0.25	Control	0.6047	0.0	No	2.936	0.014	n/a	NoResponse	0	n/a	n/a	3	42	Cue	Neutral	True
401.365	3.85	Control	0.6047	0.0	No	2.936	0.001	n/a	NoResponse	0	n/a	n/a	3	42	Fixation	Neutral	True
405.21	0.23	Control	0.6047	0.004	No	2.936	-0.004	2.0	NoResponse	0	0.301	404.511	3	42	Target	Neutral	True
405.444	0.47	Control	0.6047	n/a	No	2.936	n/a	n/a	NoResponse	0	n/a	n/a	3	42	Blank	Neutral	True
405.511	0.3	Control	0.6047	0.004	No	2.936	-0.004	2.0	NoResponse	0	0.301	n/a	3	42	ButtonPress	Neutral	True
405.912	1.45	Control	0.6047	n/a	No	2.936	n/a	5.0	NoResponse	0	0.009	404.921	3	42	Feedback	Neutral	True
407.366	2.936	Control	0.6047	n/a	No	2.936	n/a	n/a	NoResponse	0	0.0	n/a	3	42	ISIslide	Neutral	True
410.325	0.25	Win2	0.5909	0.0	No	3.175	0.025	n/a	LatePress	0	n/a	n/a	3	43	Cue	MissedWin	True
410.576	4.0	Win2	0.5909	0.0	No	3.175	0.001	n/a	LatePress	0	n/a	n/a	3	43	Fixation	MissedWin	True
414.571	0.24	Win2	0.5909	0.004	No	3.175	-0.004	2.0	LatePress	0	0.25	413.821	3	43	Target	MissedWin	True
414.821	0.3	Win2	0.5909	0.004	No	3.175	-0.004	2.0	LatePress	0	0.25	n/a	3	43	ButtonPress	MissedWin	True
414.822	0.46	Win2	0.5909	n/a	No	3.175	n/a	n/a	LatePress	0	n/a	n/a	3	43	Blank	MissedWin	True
415.273	1.45	Win2	0.5909	n/a	No	3.175	n/a	5.0	LatePress	0	0.014	414.287	3	43	Feedback	MissedWin	True
416.728	3.175	Win2	0.5909	n/a	No	3.175	n/a	n/a	LatePress	0	0.0	n/a	3	43	ISIslide	MissedWin	True
419.92	0.25	Win2	0.5778	0.001	No	2.98	0.02	n/a	NoResponse	0	n/a	n/a	3	44	Cue	MissedWin	True
420.171	4.0	Win2	0.5778	0.0	No	2.98	0.001	n/a	NoResponse	0	n/a	n/a	3	44	Fixation	MissedWin	True
424.167	0.25	Win2	0.5778	0.003	No	2.98	-0.003	2.0	NoResponse	0	0.263	423.43	3	44	Target	MissedWin	True
424.417	0.45	Win2	0.5778	n/a	No	2.98	n/a	n/a	NoResponse	0	n/a	n/a	3	44	Blank	MissedWin	True
424.43	0.3	Win2	0.5778	0.003	No	2.98	-0.003	2.0	NoResponse	0	0.263	n/a	3	44	ButtonPress	MissedWin	True
424.869	1.45	Win2	0.5778	n/a	No	2.98	n/a	5.0	NoResponse	0	0.028	423.897	3	44	Feedback	MissedWin	True
426.323	2.98	Win2	0.5778	n/a	No	2.98	n/a	n/a	NoResponse	0	0.0	n/a	3	44	ISIslide	MissedWin	True
429.315	0.25	Control	0.5870000000000001	0.0	Yes	2.885	0.015	n/a	GoodResponse	0	n/a	n/a	3	45	Cue	Neutral	True
429.566	4.1	Control	0.5870000000000001	0.0	Yes	2.885	0.001	n/a	GoodResponse	0	n/a	n/a	3	45	Fixation	Neutral	True
433.662	0.26	Control	0.5870000000000001	0.003	Yes	2.885	-0.003	2.0	GoodResponse	0	0.259	432.921	3	45	Target	Neutral	True
433.921	0.3	Control	0.5870000000000001	0.003	Yes	2.885	-0.003	2.0	GoodResponse	0	0.259	n/a	3	45	ButtonPress	Neutral	True
433.929	0.44	Control	0.5870000000000001	n/a	Yes	2.885	n/a	n/a	GoodResponse	0	n/a	n/a	3	45	Blank	Neutral	True
434.364	1.45	Control	0.5870000000000001	n/a	Yes	2.885	n/a	5.0	GoodResponse	0	0.045	433.409	3	45	Feedback	Neutral	True
435.818	2.885	Control	0.5870000000000001	n/a	Yes	2.885	n/a	n/a	GoodResponse	0	0.0	n/a	3	45	ISIslide	Neutral	True
438.727	0.25	Lose2	0.5957	0.0	Yes	3.373	0.027	n/a	GoodResponse	0	n/a	n/a	3	46	Cue	AvoidedLoss	True
438.977	4.0	Lose2	0.5957	0.001	Yes	3.373	0.0	n/a	GoodResponse	0	n/a	n/a	3	46	Fixation	AvoidedLoss	True
442.973	0.27	Lose2	0.5957	0.004	Yes	3.373	-0.004	2.0	GoodResponse	0	0.26	442.233	3	46	Target	AvoidedLoss	True
443.233	0.3	Lose2	0.5957	0.004	Yes	3.373	-0.004	2.0	GoodResponse	0	0.26	n/a	3	46	ButtonPress	AvoidedLoss	True
443.257	0.43	Lose2	0.5957	n/a	Yes	3.373	n/a	n/a	GoodResponse	0	n/a	n/a	3	46	Blank	AvoidedLoss	True
443.675	1.45	Lose2	0.5957	n/a	Yes	3.373	n/a	5.0	GoodResponse	0	0.004	442.679	3	46	Feedback	AvoidedLoss	True
445.129	3.373	Lose2	0.5957	n/a	Yes	3.373	n/a	n/a	GoodResponse	0	0.0	n/a	3	46	ISIslide	AvoidedLoss	True
448.523	0.25	Lose2	0.6042000000000001	0.0	Yes	2.677	0.023	n/a	GoodResponse	0	n/a	n/a	3	47	Cue	AvoidedLoss	True
448.773	4.0	Lose2	0.6042000000000001	0.0	Yes	2.677	0.0	n/a	GoodResponse	0	n/a	n/a	3	47	Fixation	AvoidedLoss	True
452.769	0.28	Lose2	0.6042000000000001	0.004	Yes	2.677	-0.004	2.0	GoodResponse	0	0.27	452.039	3	47	Target	AvoidedLoss	True
453.039	0.3	Lose2	0.6042000000000001	0.004	Yes	2.677	-0.004	2.0	GoodResponse	0	0.27	n/a	3	47	ButtonPress	AvoidedLoss	True
453.053	0.42	Lose2	0.6042000000000001	n/a	Yes	2.677	n/a	n/a	GoodResponse	0	n/a	n/a	3	47	Blank	AvoidedLoss	True
453.471	1.45	Lose2	0.6042000000000001	n/a	Yes	2.677	n/a	5.0	GoodResponse	0	0.011	452.482	3	47	Feedback	AvoidedLoss	True
454.925	2.677	Lose2	0.6042000000000001	n/a	Yes	2.677	n/a	n/a	GoodResponse	0	0.0	n/a	3	47	ISIslide	AvoidedLoss	True
457.617	0.25	Lose2	0.5918	0.0	No	3.033	0.017	n/a	NoResponse	-1	n/a	n/a	2	48	Cue	Loss	True
457.867	3.95	Lose2	0.5918	0.0	No	3.033	0.0	n/a	NoResponse	-1	n/a	n/a	2	48	Fixation	Loss	True
461.829	0.29	Lose2	0.5918	0.0	No	3.033	0.012	2.0	NoResponse	-1	0.396	461.225	2	48	Target	Loss	True
462.113	0.41	Lose2	0.5918	n/a	No	3.033	n/a	n/a	NoResponse	-1	n/a	n/a	2	48	Blank	Loss	True
462.225	0.3	Lose2	0.5918	0.0	No	3.033	0.012	2.0	NoResponse	-1	0.396	n/a	2	48	ButtonPress	Loss	True
462.514	1.45	Lose2	0.5918	n/a	No	3.033	n/a	5.0	NoResponse	-1	0.041	461.555	2	48	Feedback	Loss	True
463.969	3.033	Lose2	0.5918	n/a	No	3.033	n/a	n/a	NoResponse	-1	0.0	n/a	2	48	ISIslide	Loss	True
467.028	0.25	Control	0.6	0.0	Yes	2.872	0.028	n/a	GoodResponse	0	n/a	n/a	2	49	Cue	Neutral	True
467.279	4.0	Control	0.6	0.0	Yes	2.872	0.001	n/a	GoodResponse	0	n/a	n/a	2	49	Fixation	Neutral	True
471.274	0.3	Control	0.6	0.004	Yes	2.872	-0.004	2.0	GoodResponse	0	0.268	470.542	2	49	Target	Neutral	True
471.542	0.3	Control	0.6	0.004	Yes	2.872	-0.004	2.0	GoodResponse	0	0.268	n/a	2	49	ButtonPress	Neutral	True
471.575	0.4	Control	0.6	n/a	Yes	2.872	n/a	n/a	GoodResponse	0	n/a	n/a	2	49	Blank	Neutral	True
471.976	1.45	Control	0.6	n/a	Yes	2.872	n/a	5.0	GoodResponse	0	0.042	471.018	2	49	Feedback	Neutral	True
473.43	2.872	Control	0.6	n/a	Yes	2.872	n/a	n/a	GoodResponse	0	0.0	n/a	2	49	ISIslide	Neutral	True
476.322	0.25	Control	0.5882000000000001	0.001	No	2.778	0.022	n/a	NoResponse	0	n/a	n/a	2	50	Cue	Neutral	True
476.573	4.0	Control	0.5882000000000001	0.0	No	2.778	0.001	n/a	NoResponse	0	n/a	n/a	2	50	Fixation	Neutral	True
480.568	0.31	Control	0.5882000000000001	0.004	No	2.778	-0.004	2.0	NoResponse	0	0.361	479.929	2	50	Target	Neutral	True
480.886	0.39	Control	0.5882000000000001	n/a	No	2.778	n/a	n/a	NoResponse	0	n/a	n/a	2	50	Blank	Neutral	True
480.929	0.3	Control	0.5882000000000001	0.004	No	2.778	-0.004	2.0	NoResponse	0	0.361	n/a	2	50	ButtonPress	Neutral	True
481.271	1.45	Control	0.5882000000000001	n/a	No	2.778	n/a	5.0	NoResponse	0	0.016	480.287	2	50	Feedback	Neutral	True
482.725	2.778	Control	0.5882000000000001	n/a	No	2.778	n/a	n/a	NoResponse	0	0.0	n/a	2	50	ISIslide	Neutral	True
485.517	0.25	Control	0.5962	0.0	Yes	2.733	0.017	n/a	GoodResponse	0	n/a	n/a	2	51	Cue	Neutral	True
485.767	3.95	Control	0.5962	0.0	Yes	2.733	0.0	n/a	GoodResponse	0	n/a	n/a	2	51	Fixation	Neutral	True
489.712	0.32	Control	0.5962	0.005	Yes	2.733	-0.005	2.0	GoodResponse	0	0.295	489.007	2	51	Target	Neutral	True
490.007	0.3	Control	0.5962	0.005	Yes	2.733	-0.005	2.0	GoodResponse	0	0.295	n/a	2	51	ButtonPress	Neutral	True
490.047	0.38	Control	0.5962	n/a	Yes	2.733	n/a	n/a	GoodResponse	0	n/a	n/a	2	51	Blank	Neutral	True
490.415	1.45	Control	0.5962	n/a	Yes	2.733	n/a	5.0	GoodResponse	0	0.042	489.457	2	51	Feedback	Neutral	True
491.869	2.733	Control	0.5962	n/a	Yes	2.733	n/a	n/a	GoodResponse	0	0.0	n/a	2	51	ISIslide	Neutral	True
494.627	0.25	Control	0.6038	0.0	Yes	2.623	0.027	n/a	GoodResponse	0	n/a	n/a	2	52	Cue	Neutral	True
494.878	4.05	Control	0.6038	0.0	Yes	2.623	0.001	n/a	GoodResponse	0	n/a	n/a	2	52	Fixation	Neutral	True
498.923	0.33	Control	0.6038	0.004	Yes	2.623	-0.004	2.0	GoodResponse	0	0.245	498.168	2	52	Target	Neutral	True
499.168	0.3	Control	0.6038	0.004	Yes	2.623	-0.004	2.0	GoodResponse	0	0.245	n/a	2	52	ButtonPress	Neutral	True
499.258	0.37	Control	0.6038	n/a	Yes	2.623	n/a	n/a	GoodResponse	0	n/a	n/a	2	52	Blank	Neutral	True
499.625	1.45	Control	0.6038	n/a	Yes	2.623	n/a	5.0	GoodResponse	0	0.002	498.627	2	52	Feedback	Neutral	True
501.08	2.623	Control	0.6038	n/a	Yes	2.623	n/a	n/a	GoodResponse	0	0.0	n/a	2	52	ISIslide	Neutral	True
503.721	0.25	Win2	0.6111	0.0	Yes	2.929	0.021	n/a	GoodResponse	1	n/a	n/a	3	53	Cue	Win	True
503.972	4.05	Win2	0.6111	0.0	Yes	2.929	0.001	n/a	GoodResponse	1	n/a	n/a	3	53	Fixation	Win	True
508.017	0.34	Win2	0.6111	0.004	Yes	2.929	-0.004	2.0	GoodResponse	1	0.243	507.26	3	53	Target	Win	True
508.26	0.3	Win2	0.6111	0.004	Yes	2.929	-0.004	2.0	GoodResponse	1	0.243	n/a	3	53	ButtonPress	Win	True
508.368	0.36	Win2	0.6111	n/a	Yes	2.929	n/a	n/a	GoodResponse	1	n/a	n/a	3	53	Blank	Win	True
508.719	1.45	Win2	0.6111	n/a	Yes	2.929	n/a	5.0	GoodResponse	1	0.03	507.749	3	53	Feedback	Win	True
510.174	2.929	Win2	0.6111	n/a	Yes	2.929	n/a	n/a	GoodResponse	1	0.0	n/a	3	53	ISIslide	Win	True
513.116	0.25	Win2	0.6182	0.0	Yes	2.734	0.016	n/a	GoodResponse	1	n/a	n/a	4	54	Cue	Win	True
513.367	3.95	Win2	0.6182	0.0	Yes	2.734	0.001	n/a	GoodResponse	1	n/a	n/a	4	54	Fixation	Win	True
517.312	0.35	Win2	0.6182	0.004	Yes	2.734	-0.004	2.0	GoodResponse	1	0.241	516.553	4	54	Target	Win	True
517.553	0.3	Win2	0.6182	0.004	Yes	2.734	-0.004	2.0	GoodResponse	1	0.241	n/a	4	54	ButtonPress	Win	True
517.663	0.35	Win2	0.6182	n/a	Yes	2.734	n/a	n/a	GoodResponse	1	n/a	n/a	4	54	Blank	Win	True
518.014	1.45	Win2	0.6182	n/a	Yes	2.734	n/a	5.0	GoodResponse	1	0.004	517.018	4	54	Feedback	Win	True
519.468	2.734	Win2	0.6182	n/a	Yes	2.734	n/a	n/a	GoodResponse	1	0.0	n/a	4	54	ISIslide	Win	True
522.226	0.25	Control	0.625	0.0	Yes	3.024	0.026	n/a	GoodResponse	0	n/a	n/a	4	55	Cue	Neutral	True
522.477	3.95	Control	0.625	0.0	Yes	3.024	0.001	n/a	GoodResponse	0	n/a	n/a	4	55	Fixation	Neutral	True
526.422	0.36	Control	0.625	0.004	Yes	3.024	-0.004	2.0	GoodResponse	0	0.329	525.751	4	55	Target	Neutral	True
526.751	0.3	Control	0.625	0.004	Yes	3.024	-0.004	2.0	GoodResponse	0	0.329	n/a	4	55	ButtonPress	Neutral	True
526.79	0.34	Control	0.625	n/a	Yes	3.024	n/a	n/a	GoodResponse	0	n/a	n/a	4	55	Blank	Neutral	True
527.124	1.45	Control	0.625	n/a	Yes	3.024	n/a	5.0	GoodResponse	0	0.015	526.139	4	55	Feedback	Neutral	True
528.579	3.024	Control	0.625	n/a	Yes	3.024	n/a	n/a	GoodResponse	0	0.0	n/a	4	55	ISIslide	Neutral	True
531.621	0.25	Control	0.6315999999999999	0.0	Yes	2.829	0.021	n/a	GoodResponse	0	n/a	n/a	4	56	Cue	Neutral	True
531.872	3.95	Control	0.6315999999999999	0.0	Yes	2.829	0.001	n/a	GoodResponse	0	n/a	n/a	4	56	Fixation	Neutral	True
535.817	0.37	Control	0.6315999999999999	0.004	Yes	2.829	-0.004	2.0	GoodResponse	0	0.289	535.106	4	56	Target	Neutral	True
536.106	0.3	Control	0.6315999999999999	0.004	Yes	2.829	-0.004	2.0	GoodResponse	0	0.289	n/a	4	56	ButtonPress	Neutral	True
536.201	0.33	Control	0.6315999999999999	n/a	Yes	2.829	n/a	n/a	GoodResponse	0	n/a	n/a	4	56	Blank	Neutral	True
536.519	1.45	Control	0.6315999999999999	n/a	Yes	2.829	n/a	5.0	GoodResponse	0	0.035	535.554	4	56	Feedback	Neutral	True
537.973	2.829	Control	0.6315999999999999	n/a	Yes	2.829	n/a	n/a	GoodResponse	0	0.0	n/a	4	56	ISIslide	Neutral	True
540.815	0.25	Control	0.6379	0.0	Yes	3.485	0.015	n/a	GoodResponse	0	n/a	n/a	4	57	Cue	Neutral	True
541.066	4.0	Control	0.6379	0.0	Yes	3.485	0.001	n/a	GoodResponse	0	n/a	n/a	4	57	Fixation	Neutral	True
545.061	0.38	Control	0.6379	0.004	Yes	3.485	-0.004	2.0	GoodResponse	0	0.249	544.31	4	57	Target	Neutral	True
545.31	0.3	Control	0.6379	0.004	Yes	3.485	-0.004	2.0	GoodResponse	0	0.249	n/a	4	57	ButtonPress	Neutral	True
545.446	0.32	Control	0.6379	n/a	Yes	3.485	n/a	n/a	GoodResponse	0	n/a	n/a	4	57	Blank	Neutral	True
545.763	1.45	Control	0.6379	n/a	Yes	3.485	n/a	5.0	GoodResponse	0	0.01	544.773	4	57	Feedback	Neutral	True
547.218	3.485	Control	0.6379	n/a	Yes	3.485	n/a	n/a	GoodResponse	0	0.0	n/a	4	57	ISIslide	Neutral	True
550.728	0.25	Win2	0.6441	0.0	Yes	2.722	0.028	n/a	GoodResponse	1	n/a	n/a	5	58	Cue	Win	True
550.979	4.05	Win2	0.6441	0.0	Yes	2.722	0.001	n/a	GoodResponse	1	n/a	n/a	5	58	Fixation	Win	True
555.024	0.39	Win2	0.6441	0.004	Yes	2.722	-0.004	2.0	GoodResponse	1	0.206	554.23	5	58	Target	Win	True
555.23	0.3	Win2	0.6441	0.004	Yes	2.722	-0.004	2.0	GoodResponse	1	0.206	n/a	5	58	ButtonPress	Win	True
555.426	0.31	Win2	0.6441	n/a	Yes	2.722	n/a	n/a	GoodResponse	1	n/a	n/a	5	58	Blank	Win	True
555.727	1.45	Win2	0.6441	n/a	Yes	2.722	n/a	5.0	GoodResponse	1	0.046	554.773	5	58	Feedback	Win	True
557.181	2.722	Win2	0.6441	n/a	Yes	2.722	n/a	n/a	GoodResponse	1	0.0	n/a	5	58	ISIslide	Win	True
559.922	0.25	Lose2	0.6333	0.001	No	2.678	0.022	n/a	NoResponse	-1	n/a	n/a	4	59	Cue	Loss	False
560.173	4.0	Lose2	0.6333	0.0	No	2.678	0.001	n/a	NoResponse	-1	n/a	n/a	4	59	Fixation	Loss	False
564.168	0.4	Lose2	0.6333	0.004	No	2.678	-0.004	n/a	NoResponse	-1	n/a	n/a	4	59	Target	Loss	False
564.57	0.3	Lose2	0.6333	n/a	No	2.678	n/a	n/a	NoResponse	-1	n/a	n/a	4	59	Blank	Loss	False
564.871	1.45	Lose2	0.6333	n/a	No	2.678	n/a	5.0	NoResponse	-1	0.024	563.895	4	59	Feedback	Loss	False
566.325	2.678	Lose2	0.6333	n/a	No	2.678	n/a	n/a	NoResponse	-1	0.0	n/a	4	59	ISIslide	Loss	False
569.016	0.25	Control	0.6393	0.0	Yes	2.684	0.016	n/a	GoodResponse	0	n/a	n/a	4	60	Cue	Neutral	True
569.267	4.0	Control	0.6393	0.0	Yes	2.684	0.001	n/a	GoodResponse	0	n/a	n/a	4	60	Fixation	Neutral	True
573.262	0.41	Control	0.6393	0.004	Yes	2.684	-0.004	2.0	GoodResponse	0	0.214	572.476	4	60	Target	Neutral	True
573.476	0.3	Control	0.6393	0.004	Yes	2.684	-0.004	2.0	GoodResponse	0	0.214	n/a	4	60	ButtonPress	Neutral	True
573.68	0.29	Control	0.6393	n/a	Yes	2.684	n/a	n/a	GoodResponse	0	n/a	n/a	4	60	Blank	Neutral	True
573.964	1.45	Control	0.6393	n/a	Yes	2.684	n/a	5.0	GoodResponse	0	0.004	572.968	4	60	Feedback	Neutral	True
575.419	2.684	Control	0.6393	n/a	Yes	2.684	n/a	n/a	GoodResponse	0	0.0	n/a	4	60	ISIslide	Neutral	True
578.127	0.25	Lose2	0.6452	0.0	Yes	2.973	0.027	n/a	GoodResponse	0	n/a	n/a	4	61	Cue	AvoidedLoss	True
578.378	4.0	Lose2	0.6452	0.0	Yes	2.973	0.001	n/a	GoodResponse	0	n/a	n/a	4	61	Fixation	AvoidedLoss	True
582.373	0.42	Lose2	0.6452	0.004	Yes	2.973	-0.004	2.0	GoodResponse	0	0.212	581.585	4	61	Target	AvoidedLoss	True
582.585	0.3	Lose2	0.6452	0.004	Yes	2.973	-0.004	2.0	GoodResponse	0	0.212	n/a	4	61	ButtonPress	AvoidedLoss	True
582.807	0.28	Lose2	0.6452	n/a	Yes	2.973	n/a	n/a	GoodResponse	0	n/a	n/a	4	61	Blank	AvoidedLoss	True
583.075	1.45	Lose2	0.6452	n/a	Yes	2.973	n/a	5.0	GoodResponse	0	0.015	582.09	4	61	Feedback	AvoidedLoss	True
584.529	2.973	Lose2	0.6452	n/a	Yes	2.973	n/a	n/a	GoodResponse	0	0.0	n/a	4	61	ISIslide	AvoidedLoss	True
587.522	0.25	Lose2	0.6507999999999999	0.0	Yes	2.878	0.022	n/a	GoodResponse	0	n/a	n/a	4	62	Cue	AvoidedLoss	True
587.772	3.9	Lose2	0.6507999999999999	0.0	Yes	2.878	0.0	n/a	GoodResponse	0	n/a	n/a	4	62	Fixation	AvoidedLoss	True
591.684	0.43	Lose2	0.6507999999999999	0.0	Yes	2.878	0.012	2.0	GoodResponse	0	0.277	590.961	4	62	Target	AvoidedLoss	True
591.961	0.3	Lose2	0.6507999999999999	0.0	Yes	2.878	0.012	2.0	GoodResponse	0	0.277	n/a	4	62	ButtonPress	AvoidedLoss	True
592.102	0.27	Lose2	0.6507999999999999	n/a	Yes	2.878	n/a	n/a	GoodResponse	0	n/a	n/a	4	62	Blank	AvoidedLoss	True
592.369	1.45	Lose2	0.6507999999999999	n/a	Yes	2.878	n/a	5.0	GoodResponse	0	0.038	591.407	4	62	Feedback	AvoidedLoss	True
593.824	2.878	Lose2	0.6507999999999999	n/a	Yes	2.878	n/a	n/a	GoodResponse	0	0.0	n/a	4	62	ISIslide	AvoidedLoss	True
596.716	0.25	Lose2	0.6562	0.0	Yes	2.634	0.016	n/a	GoodResponse	0	n/a	n/a	4	63	Cue	AvoidedLoss	True
596.966	4.05	Lose2	0.6562	0.001	Yes	2.634	0.0	n/a	GoodResponse	0	n/a	n/a	4	63	Fixation	AvoidedLoss	True
601.012	0.44	Lose2	0.6562	0.004	Yes	2.634	-0.004	2.0	GoodResponse	0	0.234	600.246	4	63	Target	AvoidedLoss	True
601.246	0.3	Lose2	0.6562	0.004	Yes	2.634	-0.004	2.0	GoodResponse	0	0.234	n/a	4	63	ButtonPress	AvoidedLoss	True
601.463	0.26	Lose2	0.6562	n/a	Yes	2.634	n/a	n/a	GoodResponse	0	n/a	n/a	4	63	Blank	AvoidedLoss	True
601.714	1.45	Lose2	0.6562	n/a	Yes	2.634	n/a	5.0	GoodResponse	0	0.01	600.724	4	63	Feedback	AvoidedLoss	True
603.168	2.634	Lose2	0.6562	n/a	Yes	2.634	n/a	n/a	GoodResponse	0	0.0	n/a	4	63	ISIslide	AvoidedLoss	True
605.826	0.25	Win2	0.6615000000000001	0.0	Yes	3.124	0.026	n/a	GoodResponse	1	n/a	n/a	5	64	Cue	Win	True
606.077	4.15	Win2	0.6615000000000001	0.0	Yes	3.124	0.001	n/a	GoodResponse	1	n/a	n/a	5	64	Fixation	Win	True
610.223	0.44	Win2	0.6615000000000001	0.003	Yes	3.124	-0.003	2.0	GoodResponse	1	0.222	609.445	5	64	Target	Win	True
610.445	0.3	Win2	0.6615000000000001	0.003	Yes	3.124	-0.003	2.0	GoodResponse	1	0.222	n/a	5	64	ButtonPress	Win	True
610.674	0.26	Win2	0.6615000000000001	n/a	Yes	3.124	n/a	n/a	GoodResponse	1	n/a	n/a	5	64	Blank	Win	True
610.925	1.45	Win2	0.6615000000000001	n/a	Yes	3.124	n/a	5.0	GoodResponse	1	0.019	609.944	5	64	Feedback	Win	True
612.379	3.124	Win2	0.6615000000000001	n/a	Yes	3.124	n/a	n/a	GoodResponse	1	0.0	n/a	5	64	ISIslide	Win	True
615.522	0.25	Control	0.6667000000000001	0.0	Yes	2.778	0.022	n/a	GoodResponse	0	n/a	n/a	5	65	Cue	Neutral	True
615.773	4.0	Control	0.6667000000000001	0.0	Yes	2.778	0.001	n/a	GoodResponse	0	n/a	n/a	5	65	Fixation	Neutral	True
619.768	0.44	Control	0.6667000000000001	0.004	Yes	2.778	-0.004	2.0	GoodResponse	0	0.333	619.101	5	65	Target	Neutral	True
620.101	0.3	Control	0.6667000000000001	0.004	Yes	2.778	-0.004	2.0	GoodResponse	0	0.333	n/a	5	65	ButtonPress	Neutral	True
620.219	0.26	Control	0.6667000000000001	n/a	Yes	2.778	n/a	n/a	GoodResponse	0	n/a	n/a	5	65	Blank	Neutral	True
620.47	1.45	Control	0.6667000000000001	n/a	Yes	2.778	n/a	5.0	GoodResponse	0	0.034	619.504	5	65	Feedback	Neutral	True
621.924	2.778	Control	0.6667000000000001	n/a	Yes	2.778	n/a	n/a	GoodResponse	0	0.0	n/a	5	65	ISIslide	Neutral	True
624.716	0.25	Win2	0.6716	0.0	Yes	2.784	0.016	n/a	GoodResponse	1	n/a	n/a	6	66	Cue	Win	True
624.967	3.9	Win2	0.6716	0.0	Yes	2.784	0.001	n/a	GoodResponse	1	n/a	n/a	6	66	Fixation	Win	True
628.862	0.43	Win2	0.6716	0.004	Yes	2.784	-0.004	2.0	GoodResponse	1	0.21	628.072	6	66	Target	Win	True
629.072	0.3	Win2	0.6716	0.004	Yes	2.784	-0.004	2.0	GoodResponse	1	0.21	n/a	6	66	ButtonPress	Win	True
629.296	0.27	Win2	0.6716	n/a	Yes	2.784	n/a	n/a	GoodResponse	1	n/a	n/a	6	66	Blank	Win	True
629.564	1.45	Win2	0.6716	n/a	Yes	2.784	n/a	5.0	GoodResponse	1	0.013	628.577	6	66	Feedback	Win	True
631.018	2.784	Win2	0.6716	n/a	Yes	2.784	n/a	n/a	GoodResponse	1	0.0	n/a	6	66	ISIslide	Win	True
633.827	0.25	Control	0.6765000000000001	0.0	Yes	2.723	0.027	n/a	GoodResponse	0	n/a	n/a	6	67	Cue	Neutral	True
634.077	3.95	Control	0.6765000000000001	0.001	Yes	2.723	0.0	n/a	GoodResponse	0	n/a	n/a	6	67	Fixation	Neutral	True
638.023	0.42	Control	0.6765000000000001	0.004	Yes	2.723	-0.004	2.0	GoodResponse	0	0.404	637.427	6	67	Target	Neutral	True
638.427	0.3	Control	0.6765000000000001	0.004	Yes	2.723	-0.004	2.0	GoodResponse	0	0.404	n/a	6	67	ButtonPress	Neutral	True
638.457	0.28	Control	0.6765000000000001	n/a	Yes	2.723	n/a	n/a	GoodResponse	0	n/a	n/a	6	67	Blank	Neutral	True
638.725	1.45	Control	0.6765000000000001	n/a	Yes	2.723	n/a	5.0	GoodResponse	0	0.023	637.748	6	67	Feedback	Neutral	True
640.179	2.723	Control	0.6765000000000001	n/a	Yes	2.723	n/a	n/a	GoodResponse	0	0.0	n/a	6	67	ISIslide	Neutral	True
642.921	0.25	Win2	0.6812	0.0	Yes	3.079	0.021	n/a	GoodResponse	1	n/a	n/a	7	68	Cue	Win	True
643.171	4.0	Win2	0.6812	0.0	Yes	3.079	0.0	n/a	GoodResponse	1	n/a	n/a	7	68	Fixation	Win	True
647.167	0.41	Win2	0.6812	0.004	Yes	3.079	-0.004	2.0	GoodResponse	1	0.244	646.411	7	68	Target	Win	True
647.411	0.3	Win2	0.6812	0.004	Yes	3.079	-0.004	2.0	GoodResponse	1	0.244	n/a	7	68	ButtonPress	Win	True
647.585	0.29	Win2	0.6812	n/a	Yes	3.079	n/a	n/a	GoodResponse	1	n/a	n/a	7	68	Blank	Win	True
647.869	1.45	Win2	0.6812	n/a	Yes	3.079	n/a	5.0	GoodResponse	1	0.001	646.87	7	68	Feedback	Win	True
649.323	3.079	Win2	0.6812	n/a	Yes	3.079	n/a	n/a	GoodResponse	1	0.0	n/a	7	68	ISIslide	Win	True
652.416	0.25	Win2	0.6857	0.0	Yes	3.234	0.016	n/a	GoodResponse	1	n/a	n/a	8	69	Cue	Win	True
652.666	3.95	Win2	0.6857	0.0	Yes	3.234	0.0	n/a	GoodResponse	1	n/a	n/a	8	69	Fixation	Win	True
656.611	0.4	Win2	0.6857	0.005	Yes	3.234	-0.005	2.0	GoodResponse	1	0.227	655.838	8	69	Target	Win	True
656.838	0.3	Win2	0.6857	0.005	Yes	3.234	-0.005	2.0	GoodResponse	1	0.227	n/a	8	69	ButtonPress	Win	True
657.013	0.3	Win2	0.6857	n/a	Yes	3.234	n/a	n/a	GoodResponse	1	n/a	n/a	8	69	Blank	Win	True
657.314	1.45	Win2	0.6857	n/a	Yes	3.234	n/a	5.0	GoodResponse	1	0.018	656.332	8	69	Feedback	Win	True
658.768	3.234	Win2	0.6857	n/a	Yes	3.234	n/a	n/a	GoodResponse	1	0.0	n/a	8	69	ISIslide	Win	True
662.028	0.25	Lose2	0.6901	0.0	Yes	3.022	0.028	n/a	GoodResponse	0	n/a	n/a	8	70	Cue	AvoidedLoss	True
662.278	4.05	Lose2	0.6901	0.001	Yes	3.022	0.0	n/a	GoodResponse	0	n/a	n/a	8	70	Fixation	AvoidedLoss	True
666.324	0.39	Lose2	0.6901	0.004	Yes	3.022	-0.004	2.0	GoodResponse	0	0.343	665.667	8	70	Target	AvoidedLoss	True
666.667	0.3	Lose2	0.6901	0.004	Yes	3.022	-0.004	2.0	GoodResponse	0	0.343	n/a	8	70	ButtonPress	AvoidedLoss	True
666.725	0.31	Lose2	0.6901	n/a	Yes	3.022	n/a	n/a	GoodResponse	0	n/a	n/a	8	70	Blank	AvoidedLoss	True
667.026	1.45	Lose2	0.6901	n/a	Yes	3.022	n/a	5.0	GoodResponse	0	0.014	666.04	8	70	Feedback	AvoidedLoss	True
668.48	3.022	Lose2	0.6901	n/a	Yes	3.022	n/a	n/a	GoodResponse	0	0.0	n/a	8	70	ISIslide	AvoidedLoss	True
671.523	0.25	Win2	0.6944	0.0	Yes	2.727	0.023	n/a	GoodResponse	1	n/a	n/a	9	71	Cue	Win	True
671.773	4.05	Win2	0.6944	0.001	Yes	2.727	0.0	n/a	GoodResponse	1	n/a	n/a	9	71	Fixation	Win	True
675.819	0.38	Win2	0.6944	0.004	Yes	2.727	-0.004	2.0	GoodResponse	1	0.229	675.048	9	71	Target	Win	True
676.048	0.3	Win2	0.6944	0.004	Yes	2.727	-0.004	2.0	GoodResponse	1	0.229	n/a	9	71	ButtonPress	Win	True
676.203	0.32	Win2	0.6944	n/a	Yes	2.727	n/a	n/a	GoodResponse	1	n/a	n/a	9	71	Blank	Win	True
676.521	1.45	Win2	0.6944	n/a	Yes	2.727	n/a	5.0	GoodResponse	1	0.031	675.552	9	71	Feedback	Win	True
677.975	2.727	Win2	0.6944	n/a	Yes	2.727	n/a	n/a	GoodResponse	1	0.0	n/a	9	71	ISIslide	Win	True
680.717	0.25	Win2	0.6986	0.0	Yes	2.783	0.017	n/a	GoodResponse	1	n/a	n/a	10	72	Cue	Win	True
680.968	4.1	Win2	0.6986	0.0	Yes	2.783	0.001	n/a	GoodResponse	1	n/a	n/a	10	72	Fixation	Win	True
685.063	0.37	Win2	0.6986	0.004	Yes	2.783	-0.004	2.0	GoodResponse	1	0.219	684.282	10	72	Target	Win	True
685.282	0.3	Win2	0.6986	0.004	Yes	2.783	-0.004	2.0	GoodResponse	1	0.219	n/a	10	72	ButtonPress	Win	True
685.448	0.33	Win2	0.6986	n/a	Yes	2.783	n/a	n/a	GoodResponse	1	n/a	n/a	10	72	Blank	Win	True
685.765	1.45	Win2	0.6986	n/a	Yes	2.783	n/a	5.0	GoodResponse	1	0.007	684.772	10	72	Feedback	Win	True
687.22	2.783	Win2	0.6986	n/a	Yes	2.783	n/a	n/a	GoodResponse	1	0.0	n/a	10	72	ISIslide	Win	True
690.028	0.25	Win2	0.7027	0.0	Yes	2.672	0.028	n/a	GoodResponse	1	n/a	n/a	11	73	Cue	Win	True
690.279	4.0	Win2	0.7027	0.0	Yes	2.672	0.001	n/a	GoodResponse	1	n/a	n/a	11	73	Fixation	Win	True
694.274	0.36	Win2	0.7027	0.004	Yes	2.672	-0.004	2.0	GoodResponse	1	0.241	693.515	11	73	Target	Win	True
694.515	0.3	Win2	0.7027	0.004	Yes	2.672	-0.004	2.0	GoodResponse	1	0.241	n/a	11	73	ButtonPress	Win	True
694.642	0.34	Win2	0.7027	n/a	Yes	2.672	n/a	n/a	GoodResponse	1	n/a	n/a	11	73	Blank	Win	True
694.976	1.45	Win2	0.7027	n/a	Yes	2.672	n/a	5.0	GoodResponse	1	0.015	693.991	11	73	Feedback	Win	True
696.431	2.672	Win2	0.7027	n/a	Yes	2.672	n/a	n/a	GoodResponse	1	0.0	n/a	11	73	ISIslide	Win	True
699.122	0.25	Lose2	0.7067	0.0	Yes	2.628	0.022	n/a	GoodResponse	0	n/a	n/a	11	74	Cue	AvoidedLoss	True
699.373	4.05	Lose2	0.7067	0.0	Yes	2.628	0.001	n/a	GoodResponse	0	n/a	n/a	11	74	Fixation	AvoidedLoss	True
703.418	0.35	Lose2	0.7067	0.004	Yes	2.628	-0.004	2.0	GoodResponse	0	0.254	702.672	11	74	Target	AvoidedLoss	True
703.672	0.3	Lose2	0.7067	0.004	Yes	2.628	-0.004	2.0	GoodResponse	0	0.254	n/a	11	74	ButtonPress	AvoidedLoss	True
703.769	0.35	Lose2	0.7067	n/a	Yes	2.628	n/a	n/a	GoodResponse	0	n/a	n/a	11	74	Blank	AvoidedLoss	True
704.12	1.45	Lose2	0.7067	n/a	Yes	2.628	n/a	5.0	GoodResponse	0	0.041	703.161	11	74	Feedback	AvoidedLoss	True
705.575	2.628	Lose2	0.7067	n/a	Yes	2.628	n/a	n/a	GoodResponse	0	0.0	n/a	11	74	ISIslide	AvoidedLoss	True
708.216	0.25	Lose2	0.7105	0.0	Yes	2.934	0.016	n/a	GoodResponse	0	n/a	n/a	11	75	Cue	AvoidedLoss	True
708.467	3.95	Lose2	0.7105	0.0	Yes	2.934	0.001	n/a	GoodResponse	0	n/a	n/a	11	75	Fixation	AvoidedLoss	True
712.412	0.34	Lose2	0.7105	0.004	Yes	2.934	-0.004	2.0	GoodResponse	0	0.211	711.623	11	75	Target	AvoidedLoss	True
712.623	0.3	Lose2	0.7105	0.004	Yes	2.934	-0.004	2.0	GoodResponse	0	0.211	n/a	11	75	ButtonPress	AvoidedLoss	True
712.763	0.36	Lose2	0.7105	n/a	Yes	2.934	n/a	n/a	GoodResponse	0	n/a	n/a	11	75	Blank	AvoidedLoss	True
713.114	1.45	Lose2	0.7105	n/a	Yes	2.934	n/a	5.0	GoodResponse	0	0.023	712.137	11	75	Feedback	AvoidedLoss	True
714.568	2.934	Lose2	0.7105	n/a	Yes	2.934	n/a	n/a	GoodResponse	0	0.0	n/a	11	75	ISIslide	AvoidedLoss	True
717.527	0.25	Control	0.7143	0.0	Yes	3.223	0.027	n/a	GoodResponse	0	n/a	n/a	11	76	Cue	Neutral	True
717.778	4.05	Control	0.7143	0.0	Yes	3.223	0.001	n/a	GoodResponse	0	n/a	n/a	11	76	Fixation	Neutral	True
721.823	0.33	Control	0.7143	0.004	Yes	3.223	-0.004	2.0	GoodResponse	0	0.276	721.099	11	76	Target	Neutral	True
722.099	0.3	Control	0.7143	0.004	Yes	3.223	-0.004	2.0	GoodResponse	0	0.276	n/a	11	76	ButtonPress	Neutral	True
722.157	0.37	Control	0.7143	n/a	Yes	3.223	n/a	n/a	GoodResponse	0	n/a	n/a	11	76	Blank	Neutral	True
722.525	1.45	Control	0.7143	n/a	Yes	3.223	n/a	5.0	GoodResponse	0	0.027	721.552	11	76	Feedback	Neutral	True
723.98	3.223	Control	0.7143	n/a	Yes	3.223	n/a	n/a	GoodResponse	0	0.0	n/a	11	76	ISIslide	Neutral	True
727.223	0.25	Lose2	0.7179000000000001	0.0	Yes	2.577	0.023	n/a	GoodResponse	0	n/a	n/a	11	77	Cue	AvoidedLoss	True
727.473	3.95	Lose2	0.7179000000000001	0.0	Yes	2.577	0.0	n/a	GoodResponse	0	n/a	n/a	11	77	Fixation	AvoidedLoss	True
731.418	0.32	Lose2	0.7179000000000001	0.005	Yes	2.577	-0.005	2.0	GoodResponse	0	0.271	730.689	11	77	Target	AvoidedLoss	True
731.689	0.3	Lose2	0.7179000000000001	0.005	Yes	2.577	-0.005	2.0	GoodResponse	0	0.271	n/a	11	77	ButtonPress	AvoidedLoss	True
731.753	0.38	Lose2	0.7179000000000001	n/a	Yes	2.577	n/a	n/a	GoodResponse	0	n/a	n/a	11	77	Blank	AvoidedLoss	True
732.121	1.45	Lose2	0.7179000000000001	n/a	Yes	2.577	n/a	5.0	GoodResponse	0	0.041	731.162	11	77	Feedback	AvoidedLoss	True
733.575	2.577	Lose2	0.7179000000000001	n/a	Yes	2.577	n/a	n/a	GoodResponse	0	0.0	n/a	11	77	ISIslide	AvoidedLoss	True
