onset	duration	cue_type	current_mean_accuracy	duration_error	is_hit	isi_adjusted	onset_delay	response	response_type	reward	rt	rt_time	total_reward	trial_number	trial_phase	trial_type	one_press
11.1	0.25	Control	1.0	0.0	Yes	2.95	0.0	n/a	GoodResponse	0	n/a	n/a	0	0	Cue	Neutral	True
11.35	3.85	Control	1.0	0.0	Yes	2.95	0.0	n/a	GoodResponse	0	n/a	n/a	0	0	Fixation	Neutral	True
15.199	0.4	Control	1.0	0.001	Yes	2.95	-0.001	4.0	GoodResponse	0	0.222	14.421000000000015	0	0	Target	Neutral	True
15.421	0.3	Control	1.0	0.001	Yes	2.95	-0.001	4.0	GoodResponse	0	0.222	n/a	0	0	ButtonPress	Neutral	True
15.599	0.3	Control	1.0	n/a	Yes	2.95	n/a	n/a	GoodResponse	0	n/a	n/a	0	0	Blank	Neutral	True
15.899	1.45	Control	1.0	n/a	Yes	2.95	n/a	5.0	GoodResponse	0	1.104	16.003000000000014	0	0	Feedback	Neutral	True
17.348	2.95	Control	1.0	n/a	Yes	2.95	n/a	n/a	GoodResponse	0	0.0	n/a	0	0	ISIslide	Neutral	True
20.33	0.25	Lose2	1.0	0.001	Yes	2.77	0.03	n/a	GoodResponse	0	n/a	n/a	0	1	Cue	AvoidedLoss	True
20.58	4.0	Lose2	1.0	0.0	Yes	2.77	0.0	n/a	GoodResponse	0	n/a	n/a	0	1	Fixation	AvoidedLoss	True
24.579	0.39	Lose2	1.0	0.001	Yes	2.77	-0.001	4.0	GoodResponse	0	0.226	23.805000000000014	0	1	Target	AvoidedLoss	True
24.805	0.3	Lose2	1.0	0.001	Yes	2.77	-0.001	4.0	GoodResponse	0	0.226	n/a	0	1	ButtonPress	AvoidedLoss	True
24.979	0.31	Lose2	1.0	n/a	Yes	2.77	n/a	n/a	GoodResponse	0	n/a	n/a	0	1	Blank	AvoidedLoss	True
25.279	1.45	Lose2	1.0	n/a	Yes	2.77	n/a	n/a	GoodResponse	0	n/a	n/a	0	1	Feedback	AvoidedLoss	True
26.728	2.77	Lose2	1.0	n/a	Yes	2.77	n/a	n/a	GoodResponse	0	0.0	n/a	0	1	ISIslide	AvoidedLoss	True
29.527	0.25	Control	1.0	0.0	Yes	2.573	0.027	n/a	GoodResponse	0	n/a	n/a	0	2	Cue	Neutral	True
29.777	4.1	Control	1.0	0.0	Yes	2.573	0.0	n/a	GoodResponse	0	n/a	n/a	0	2	Fixation	Neutral	True
33.876	0.38	Control	1.0	0.001	Yes	2.573	-0.001	4.0	GoodResponse	0	0.232	33.10800000000001	0	2	Target	Neutral	True
34.108	0.3	Control	1.0	0.001	Yes	2.573	-0.001	4.0	GoodResponse	0	0.232	n/a	0	2	ButtonPress	Neutral	True
34.259	0.32	Control	1.0	n/a	Yes	2.573	n/a	n/a	GoodResponse	0	n/a	n/a	0	2	Blank	Neutral	True
34.575	1.45	Control	1.0	n/a	Yes	2.573	n/a	5.0	GoodResponse	0	0.428	34.003000000000014	0	2	Feedback	Neutral	True
36.025	2.573	Control	1.0	n/a	Yes	2.573	n/a	n/a	GoodResponse	0	0.0	n/a	0	2	ISIslide	Neutral	True
38.624	0.25	Win2	1.0	0.0	Yes	2.826	0.024	n/a	GoodResponse	1	n/a	n/a	1	3	Cue	Win	True
38.874	3.95	Win2	1.0	0.0	Yes	2.826	0.0	n/a	GoodResponse	1	n/a	n/a	1	3	Fixation	Win	True
42.823	0.37	Win2	1.0	0.001	Yes	2.826	-0.001	4.0	GoodResponse	1	0.207	42.030000000000015	1	3	Target	Win	True
43.03	0.3	Win2	1.0	0.001	Yes	2.826	-0.001	4.0	GoodResponse	1	0.207	n/a	1	3	ButtonPress	Win	True
43.206	0.33	Win2	1.0	n/a	Yes	2.826	n/a	n/a	GoodResponse	1	n/a	n/a	1	3	Blank	Win	True
43.522	1.45	Win2	1.0	n/a	Yes	2.826	n/a	n/a	GoodResponse	1	n/a	n/a	1	3	Feedback	Win	True
44.972	2.826	Win2	1.0	n/a	Yes	2.826	n/a	n/a	GoodResponse	1	0.0	n/a	1	3	ISIslide	Win	True
47.821	0.25	Win2	1.0	0.0	Yes	3.279	0.021	n/a	GoodResponse	1	n/a	n/a	2	4	Cue	Win	True
48.071	4.0	Win2	1.0	0.0	Yes	3.279	0.0	n/a	GoodResponse	1	n/a	n/a	2	4	Fixation	Win	True
52.069	0.36	Win2	1.0	0.002	Yes	3.279	-0.002	4.0	GoodResponse	1	0.342	51.411000000000016	2	4	Target	Win	True
52.411	0.3	Win2	1.0	0.002	Yes	3.279	-0.002	4.0	GoodResponse	1	0.342	n/a	2	4	ButtonPress	Win	True
52.436	0.34	Win2	1.0	n/a	Yes	3.279	n/a	n/a	GoodResponse	1	n/a	n/a	2	4	Blank	Win	True
52.769	1.45	Win2	1.0	n/a	Yes	3.279	n/a	5.0	GoodResponse	1	0.233	52.00200000000002	2	4	Feedback	Win	True
54.219	3.279	Win2	1.0	n/a	Yes	3.279	n/a	n/a	GoodResponse	1	0.0	n/a	2	4	ISIslide	Win	True
57.517	0.25	Win2	1.0	0.0	Yes	2.783	0.017	n/a	GoodResponse	1	n/a	n/a	3	5	Cue	Win	True
57.767	4.0	Win2	1.0	0.0	Yes	2.783	0.0	n/a	GoodResponse	1	n/a	n/a	3	5	Fixation	Win	True
61.766	0.35	Win2	1.0	0.001	Yes	2.783	-0.001	4.0	GoodResponse	1	0.256	61.02200000000001	3	5	Target	Win	True
62.022	0.3	Win2	1.0	0.001	Yes	2.783	-0.001	4.0	GoodResponse	1	0.256	n/a	3	5	ButtonPress	Win	True
62.116	0.35	Win2	1.0	n/a	Yes	2.783	n/a	n/a	GoodResponse	1	n/a	n/a	3	5	Blank	Win	True
62.466	1.45	Win2	1.0	n/a	Yes	2.783	n/a	5.0	GoodResponse	1	0.536	62.00200000000002	3	5	Feedback	Win	True
63.915	2.783	Win2	1.0	n/a	Yes	2.783	n/a	n/a	GoodResponse	1	0.0	n/a	3	5	ISIslide	Win	True
66.714	0.25	Lose2	1.0	0.0	Yes	2.736	0.014	n/a	GoodResponse	0	n/a	n/a	3	6	Cue	AvoidedLoss	True
66.964	3.95	Lose2	1.0	0.0	Yes	2.736	0.0	n/a	GoodResponse	0	n/a	n/a	3	6	Fixation	AvoidedLoss	True
70.913	0.34	Lose2	1.0	0.001	Yes	2.736	-0.001	4.0	GoodResponse	0	0.233	70.14600000000002	3	6	Target	AvoidedLoss	True
71.146	0.3	Lose2	1.0	0.001	Yes	2.736	-0.001	4.0	GoodResponse	0	0.233	n/a	3	6	ButtonPress	AvoidedLoss	True
71.263	0.36	Lose2	1.0	n/a	Yes	2.736	n/a	n/a	GoodResponse	0	n/a	n/a	3	6	Blank	AvoidedLoss	True
71.612	1.45	Lose2	1.0	n/a	Yes	2.736	n/a	5.0	GoodResponse	0	1.391	72.00300000000001	3	6	Feedback	AvoidedLoss	True
73.062	2.736	Lose2	1.0	n/a	Yes	2.736	n/a	n/a	GoodResponse	0	0.0	n/a	3	6	ISIslide	AvoidedLoss	True
75.828	0.25	Lose2	1.0	0.0	Yes	4.022	0.028	n/a	GoodResponse	0	n/a	n/a	3	7	Cue	AvoidedLoss	True
76.078	4.05	Lose2	1.0	0.0	Yes	4.022	0.0	n/a	GoodResponse	0	n/a	n/a	3	7	Fixation	AvoidedLoss	True
80.126	0.33	Lose2	1.0	0.002	Yes	4.022	-0.002	4.0	GoodResponse	0	0.237	79.36300000000001	3	7	Target	AvoidedLoss	True
80.363	0.3	Lose2	1.0	0.002	Yes	4.022	-0.002	4.0	GoodResponse	0	0.237	n/a	3	7	ButtonPress	AvoidedLoss	True
80.459	0.37	Lose2	1.0	n/a	Yes	4.022	n/a	n/a	GoodResponse	0	n/a	n/a	3	7	Blank	AvoidedLoss	True
80.826	1.45	Lose2	1.0	n/a	Yes	4.022	n/a	5.0	GoodResponse	0	0.176	80.00200000000001	3	7	Feedback	AvoidedLoss	True
82.275	4.022	Lose2	1.0	n/a	Yes	4.022	n/a	n/a	GoodResponse	0	0.0	n/a	3	7	ISIslide	AvoidedLoss	True
86.324	0.25	Lose2	1.0	0.0	Yes	3.026	0.024	n/a	GoodResponse	0	n/a	n/a	3	8	Cue	AvoidedLoss	True
86.574	3.95	Lose2	1.0	0.0	Yes	3.026	0.0	n/a	GoodResponse	0	n/a	n/a	3	8	Fixation	AvoidedLoss	True
90.522	0.32	Lose2	1.0	0.002	Yes	3.026	-0.002	4.0	GoodResponse	0	0.2	89.72200000000001	3	8	Target	AvoidedLoss	True
90.722	0.3	Lose2	1.0	0.002	Yes	3.026	-0.002	4.0	GoodResponse	0	0.2	n/a	3	8	ButtonPress	AvoidedLoss	True
90.856	0.38	Lose2	1.0	n/a	Yes	3.026	n/a	n/a	GoodResponse	0	n/a	n/a	3	8	Blank	AvoidedLoss	True
91.222	1.45	Lose2	1.0	n/a	Yes	3.026	n/a	n/a	GoodResponse	0	n/a	n/a	3	8	Feedback	AvoidedLoss	True
92.672	3.026	Lose2	1.0	n/a	Yes	3.026	n/a	n/a	GoodResponse	0	0.0	n/a	3	8	ISIslide	AvoidedLoss	True
95.721	0.25	Lose2	1.0	0.0	Yes	3.129	0.021	n/a	GoodResponse	0	n/a	n/a	3	9	Cue	AvoidedLoss	True
95.971	3.95	Lose2	1.0	0.0	Yes	3.129	0.0	n/a	GoodResponse	0	n/a	n/a	3	9	Fixation	AvoidedLoss	True
99.919	0.31	Lose2	1.0	0.002	Yes	3.129	-0.002	4.0	GoodResponse	0	0.217	99.13600000000001	3	9	Target	AvoidedLoss	True
100.136	0.3	Lose2	1.0	0.002	Yes	3.129	-0.002	4.0	GoodResponse	0	0.217	n/a	3	9	ButtonPress	AvoidedLoss	True
100.236	0.39	Lose2	1.0	n/a	Yes	3.129	n/a	n/a	GoodResponse	0	n/a	n/a	3	9	Blank	AvoidedLoss	True
100.619	1.45	Lose2	1.0	n/a	Yes	3.129	n/a	5.0	GoodResponse	0	0.383	100.00200000000001	3	9	Feedback	AvoidedLoss	True
102.068	3.129	Lose2	1.0	n/a	Yes	3.129	n/a	n/a	GoodResponse	0	0.0	n/a	3	9	ISIslide	AvoidedLoss	True
105.217	0.25	Control	0.9091	0.0	No	3.283	0.017	n/a	NoResponse	0	n/a	n/a	3	10	Cue	Neutral	True
105.467	4.0	Control	0.9091	0.0	No	3.283	0.0	n/a	NoResponse	0	n/a	n/a	3	10	Fixation	Neutral	True
109.466	0.3	Control	0.9091	0.001	No	3.283	-0.001	4.0	NoResponse	0	0.397	108.86300000000001	3	10	Target	Neutral	True
109.766	0.4	Control	0.9091	n/a	No	3.283	n/a	n/a	NoResponse	0	n/a	n/a	3	10	Blank	Neutral	True
109.863	0.3	Control	0.9091	0.001	No	3.283	-0.001	4.0	NoResponse	0	0.397	n/a	3	10	ButtonPress	Neutral	True
110.166	1.45	Control	0.9091	n/a	No	3.283	n/a	5.0	NoResponse	0	0.836	110.00200000000001	3	10	Feedback	Neutral	True
111.615	3.283	Control	0.9091	n/a	No	3.283	n/a	n/a	NoResponse	0	0.0	n/a	3	10	ISIslide	Neutral	True
114.914	0.25	Lose2	0.9167000000000001	0.0	Yes	2.736	0.014	n/a	GoodResponse	0	n/a	n/a	3	11	Cue	AvoidedLoss	True
115.164	4.05	Lose2	0.9167000000000001	0.0	Yes	2.736	0.0	n/a	GoodResponse	0	n/a	n/a	3	11	Fixation	AvoidedLoss	True
119.212	0.29	Lose2	0.9167000000000001	0.002	Yes	2.736	-0.002	4.0	GoodResponse	0	0.219	118.43100000000001	3	11	Target	AvoidedLoss	True
119.431	0.3	Lose2	0.9167000000000001	0.002	Yes	2.736	-0.002	4.0	GoodResponse	0	0.219	n/a	3	11	ButtonPress	AvoidedLoss	True
119.512	0.41	Lose2	0.9167000000000001	n/a	Yes	2.736	n/a	n/a	GoodResponse	0	n/a	n/a	3	11	Blank	AvoidedLoss	True
119.912	1.45	Lose2	0.9167000000000001	n/a	Yes	2.736	n/a	5.0	GoodResponse	0	1.089	120.00100000000002	3	11	Feedback	AvoidedLoss	True
121.362	2.736	Lose2	0.9167000000000001	n/a	Yes	2.736	n/a	n/a	GoodResponse	0	0.0	n/a	3	11	ISIslide	AvoidedLoss	True
124.127	0.25	Control	0.9231	0.0	Yes	2.973	0.027	n/a	GoodResponse	0	n/a	n/a	3	12	Cue	Neutral	True
124.377	3.9	Control	0.9231	0.0	Yes	2.973	0.0	n/a	GoodResponse	0	n/a	n/a	3	12	Fixation	Neutral	True
128.276	0.28	Control	0.9231	0.001	Yes	2.973	-0.001	4.0	GoodResponse	0	0.212	127.48800000000001	3	12	Target	Neutral	True
128.488	0.3	Control	0.9231	0.001	Yes	2.973	-0.001	4.0	GoodResponse	0	0.212	n/a	3	12	ButtonPress	Neutral	True
128.559	0.42	Control	0.9231	n/a	Yes	2.973	n/a	n/a	GoodResponse	0	n/a	n/a	3	12	Blank	Neutral	True
128.976	1.45	Control	0.9231	n/a	Yes	2.973	n/a	5.0	GoodResponse	0	0.025	128.001	3	12	Feedback	Neutral	True
130.425	2.973	Control	0.9231	n/a	Yes	2.973	n/a	n/a	GoodResponse	0	0.0	n/a	3	12	ISIslide	Neutral	True
133.424	0.25	Control	0.9286	0.0	Yes	2.776	0.024	n/a	GoodResponse	0	n/a	n/a	3	13	Cue	Neutral	True
133.674	4.0	Control	0.9286	0.0	Yes	2.776	0.0	n/a	GoodResponse	0	n/a	n/a	3	13	Fixation	Neutral	True
137.672	0.27	Control	0.9286	0.002	Yes	2.776	-0.002	4.0	GoodResponse	0	0.199	136.871	3	13	Target	Neutral	True
137.871	0.3	Control	0.9286	0.002	Yes	2.776	-0.002	4.0	GoodResponse	0	0.199	n/a	3	13	ButtonPress	Neutral	True
137.956	0.43	Control	0.9286	n/a	Yes	2.776	n/a	n/a	GoodResponse	0	n/a	n/a	3	13	Blank	Neutral	True
138.372	1.45	Control	0.9286	n/a	Yes	2.776	n/a	5.0	GoodResponse	0	0.629	138.001	3	13	Feedback	Neutral	True
139.822	2.776	Control	0.9286	n/a	Yes	2.776	n/a	n/a	GoodResponse	0	0.0	n/a	3	13	ISIslide	Neutral	True
142.621	0.25	Win2	0.9333	0.0	Yes	2.679	0.021	n/a	GoodResponse	1	n/a	n/a	4	14	Cue	Win	True
142.871	4.1	Win2	0.9333	0.0	Yes	2.679	0.0	n/a	GoodResponse	1	n/a	n/a	4	14	Fixation	Win	True
146.969	0.26	Win2	0.9333	0.002	Yes	2.679	-0.002	4.0	GoodResponse	1	0.196	146.165	4	14	Target	Win	True
147.165	0.3	Win2	0.9333	0.002	Yes	2.679	-0.002	4.0	GoodResponse	1	0.196	n/a	4	14	ButtonPress	Win	True
147.236	0.44	Win2	0.9333	n/a	Yes	2.679	n/a	n/a	GoodResponse	1	n/a	n/a	4	14	Blank	Win	True
147.669	1.45	Win2	0.9333	n/a	Yes	2.679	n/a	5.0	GoodResponse	1	1.333	148.002	4	14	Feedback	Win	True
149.118	2.679	Win2	0.9333	n/a	Yes	2.679	n/a	n/a	GoodResponse	1	0.0	n/a	4	14	ISIslide	Win	True
151.818	0.25	Control	0.875	0.0	No	2.982	0.018	n/a	NoResponse	0	n/a	n/a	4	15	Cue	Neutral	True
152.067	4.0	Control	0.875	0.001	No	2.982	-0.001	n/a	NoResponse	0	n/a	n/a	4	15	Fixation	Neutral	True
156.066	0.25	Control	0.875	0.002	No	2.982	-0.002	4.0	NoResponse	0	0.28	155.346	4	15	Target	Neutral	True
156.316	0.45	Control	0.875	n/a	No	2.982	n/a	n/a	NoResponse	0	n/a	n/a	4	15	Blank	Neutral	True
156.346	0.3	Control	0.875	0.002	No	2.982	-0.002	4.0	NoResponse	0	0.28	n/a	4	15	ButtonPress	Neutral	True
156.766	1.45	Control	0.875	n/a	No	2.982	n/a	5.0	NoResponse	0	0.236	156.002	4	15	Feedback	Neutral	True
158.215	2.982	Control	0.875	n/a	No	2.982	n/a	n/a	NoResponse	0	0.0	n/a	4	15	ISIslide	Neutral	True
161.231	0.25	Win2	0.8234999999999999	0.0	No	2.869	0.031	n/a	NoResponse	0	n/a	n/a	4	16	Cue	MissedWin	False
161.481	4.0	Win2	0.8234999999999999	0.0	No	2.869	0.0	4.0	NoResponse	0	2.82	163.301	4	16	Fixation	MissedWin	False
164.301	0.3	Win2	0.8234999999999999	0.0	No	2.869	0.0	4.0	NoResponse	0	2.82	n/a	4	16	ButtonPress	MissedWin	False
165.479	0.24	Win2	0.8234999999999999	0.002	No	2.869	-0.002	4.0	NoResponse	0	0.317	164.796	4	16	Target	MissedWin	False
165.729	0.46	Win2	0.8234999999999999	n/a	No	2.869	n/a	n/a	NoResponse	0	n/a	n/a	4	16	Blank	MissedWin	False
165.796	0.3	Win2	0.8234999999999999	0.002	No	2.869	-0.002	4.0	NoResponse	0	0.317	n/a	4	16	ButtonPress	MissedWin	False
166.179	1.45	Win2	0.8234999999999999	n/a	No	2.869	n/a	5.0	NoResponse	0	0.822	166.001	4	16	Feedback	MissedWin	False
167.629	2.869	Win2	0.8234999999999999	n/a	No	2.869	n/a	n/a	NoResponse	0	0.0	n/a	4	16	ISIslide	MissedWin	False
170.528	0.25	Lose2	0.7778	0.0	No	2.722	0.028	n/a	LatePress	-1	n/a	n/a	3	17	Cue	Loss	True
170.777	3.95	Lose2	0.7778	0.001	No	2.722	-0.001	n/a	LatePress	-1	n/a	n/a	3	17	Fixation	Loss	True
174.726	0.23	Lose2	0.7778	0.002	No	2.722	-0.002	4.0	LatePress	-1	0.233	173.959	3	17	Target	Loss	True
174.959	0.47	Lose2	0.7778	n/a	No	2.722	n/a	n/a	LatePress	-1	n/a	n/a	3	17	Blank	Loss	True
174.959	0.3	Lose2	0.7778	0.002	No	2.722	-0.002	4.0	LatePress	-1	0.233	n/a	3	17	ButtonPress	Loss	True
175.426	1.45	Lose2	0.7778	n/a	No	2.722	n/a	n/a	LatePress	-1	n/a	n/a	3	17	Feedback	Loss	True
176.875	2.722	Lose2	0.7778	n/a	No	2.722	n/a	n/a	LatePress	-1	0.0	n/a	3	17	ISIslide	Loss	True
179.624	0.25	Lose2	0.7895	0.0	Yes	2.726	0.024	n/a	GoodResponse	0	n/a	n/a	3	18	Cue	AvoidedLoss	True
179.874	4.05	Lose2	0.7895	0.0	Yes	2.726	0.0	n/a	GoodResponse	0	n/a	n/a	3	18	Fixation	AvoidedLoss	True
183.923	0.22	Lose2	0.7895	0.001	Yes	2.726	-0.001	4.0	GoodResponse	0	0.217	183.14	3	18	Target	AvoidedLoss	True
184.139	0.48	Lose2	0.7895	n/a	Yes	2.726	n/a	n/a	GoodResponse	0	n/a	n/a	3	18	Blank	AvoidedLoss	True
184.14	0.3	Lose2	0.7895	0.001	Yes	2.726	-0.001	4.0	GoodResponse	0	0.217	n/a	3	18	ButtonPress	AvoidedLoss	True
184.623	1.45	Lose2	0.7895	n/a	Yes	2.726	n/a	5.0	GoodResponse	0	0.378	184.001	3	18	Feedback	AvoidedLoss	True
186.072	2.726	Lose2	0.7895	n/a	Yes	2.726	n/a	n/a	GoodResponse	0	0.0	n/a	3	18	ISIslide	AvoidedLoss	True
188.821	0.25	Control	0.8	0.0	Yes	2.929	0.021	n/a	GoodResponse	0	n/a	n/a	3	19	Cue	Neutral	True
189.071	3.95	Control	0.8	0.0	Yes	2.929	0.0	n/a	GoodResponse	0	n/a	n/a	3	19	Fixation	Neutral	True
193.02	0.21	Control	0.8	0.001	Yes	2.929	-0.001	4.0	GoodResponse	0	0.208	192.228	3	19	Target	Neutral	True
193.228	0.3	Control	0.8	0.001	Yes	2.929	-0.001	4.0	GoodResponse	0	0.208	n/a	3	19	ButtonPress	Neutral	True
193.236	0.49	Control	0.8	n/a	Yes	2.929	n/a	n/a	GoodResponse	0	n/a	n/a	3	19	Blank	Neutral	True
193.719	1.45	Control	0.8	n/a	Yes	2.929	n/a	5.0	GoodResponse	0	1.282	194.001	3	19	Feedback	Neutral	True
195.169	2.929	Control	0.8	n/a	Yes	2.929	n/a	n/a	GoodResponse	0	0.0	n/a	3	19	ISIslide	Neutral	True
198.118	0.25	Control	0.7619	0.0	No	2.632	0.018	n/a	NoResponse	0	n/a	n/a	3	20	Cue	Neutral	True
198.368	4.05	Control	0.7619	0.0	No	2.632	0.0	n/a	NoResponse	0	n/a	n/a	3	20	Fixation	Neutral	True
202.416	0.2	Control	0.7619	0.002	No	2.632	-0.002	4.0	NoResponse	0	0.21	201.626	3	20	Target	Neutral	True
202.616	0.5	Control	0.7619	n/a	No	2.632	n/a	n/a	NoResponse	0	n/a	n/a	3	20	Blank	Neutral	True
202.626	0.3	Control	0.7619	0.002	No	2.632	-0.002	4.0	NoResponse	0	0.21	n/a	3	20	ButtonPress	Neutral	True
203.116	1.45	Control	0.7619	n/a	No	2.632	n/a	n/a	NoResponse	0	n/a	n/a	3	20	Feedback	Neutral	True
204.566	2.632	Control	0.7619	n/a	No	2.632	n/a	n/a	NoResponse	0	0.0	n/a	3	20	ISIslide	Neutral	True
207.215	0.25	Control	0.7273000000000001	0.0	No	2.785	0.015	n/a	NoResponse	0	n/a	n/a	3	21	Cue	Neutral	True
207.465	4.1	Control	0.7273000000000001	0.0	No	2.785	0.0	n/a	NoResponse	0	n/a	n/a	3	21	Fixation	Neutral	True
211.563	0.19	Control	0.7273000000000001	0.002	No	2.785	-0.002	4.0	NoResponse	0	0.209	210.772	3	21	Target	Neutral	True
211.763	0.51	Control	0.7273000000000001	n/a	No	2.785	n/a	n/a	NoResponse	0	n/a	n/a	3	21	Blank	Neutral	True
211.772	0.3	Control	0.7273000000000001	0.002	No	2.785	-0.002	4.0	NoResponse	0	0.209	n/a	3	21	ButtonPress	Neutral	True
212.263	1.45	Control	0.7273000000000001	n/a	No	2.785	n/a	5.0	NoResponse	0	0.737	212.0	3	21	Feedback	Neutral	True
213.712	2.785	Control	0.7273000000000001	n/a	No	2.785	n/a	n/a	NoResponse	0	0.0	n/a	3	21	ISIslide	Neutral	True
216.528	0.25	Control	0.6957	0.0	No	2.772	0.028	n/a	NoResponse	0	n/a	n/a	3	22	Cue	Neutral	True
216.778	4.0	Control	0.6957	0.0	No	2.772	0.0	n/a	NoResponse	0	n/a	n/a	3	22	Fixation	Neutral	True
220.777	0.18	Control	0.6957	0.001	No	2.772	-0.001	4.0	NoResponse	0	0.192	219.969	3	22	Target	Neutral	True
220.96	0.52	Control	0.6957	n/a	No	2.772	n/a	n/a	NoResponse	0	n/a	n/a	3	22	Blank	Neutral	True
220.969	0.3	Control	0.6957	0.001	No	2.772	-0.001	4.0	NoResponse	0	0.192	n/a	3	22	ButtonPress	Neutral	True
221.476	1.45	Control	0.6957	n/a	No	2.772	n/a	n/a	NoResponse	0	n/a	n/a	3	22	Feedback	Neutral	True
222.926	2.772	Control	0.6957	n/a	No	2.772	n/a	n/a	NoResponse	0	0.0	n/a	3	22	ISIslide	Neutral	True
225.725	0.25	Control	0.6667000000000001	0.0	No	2.775	0.025	n/a	NoResponse	0	n/a	n/a	3	23	Cue	Neutral	True
225.975	3.9	Control	0.6667000000000001	0.0	No	2.775	0.0	n/a	NoResponse	0	n/a	n/a	3	23	Fixation	Neutral	True
229.873	0.17	Control	0.6667000000000001	0.002	No	2.775	-0.002	4.0	NoResponse	0	0.257	229.13	3	23	Target	Neutral	True
230.057	0.53	Control	0.6667000000000001	n/a	No	2.775	n/a	n/a	NoResponse	0	n/a	n/a	3	23	Blank	Neutral	True
230.13	0.3	Control	0.6667000000000001	0.002	No	2.775	-0.002	4.0	NoResponse	0	0.257	n/a	3	23	ButtonPress	Neutral	True
230.573	1.45	Control	0.6667000000000001	n/a	No	2.775	n/a	5.0	NoResponse	0	0.428	230.001	3	23	Feedback	Neutral	True
232.023	2.775	Control	0.6667000000000001	n/a	No	2.775	n/a	n/a	NoResponse	0	0.0	n/a	3	23	ISIslide	Neutral	True
234.822	0.25	Win2	0.64	0.0	No	3.128	0.022	n/a	NoResponse	0	n/a	n/a	3	24	Cue	MissedWin	True
235.072	3.95	Win2	0.64	0.0	No	3.128	0.0	n/a	NoResponse	0	n/a	n/a	3	24	Fixation	MissedWin	True
239.02	0.16	Win2	0.64	0.002	No	3.128	-0.002	4.0	NoResponse	0	0.223	238.243	3	24	Target	MissedWin	True
239.187	0.54	Win2	0.64	n/a	No	3.128	n/a	n/a	NoResponse	0	n/a	n/a	3	24	Blank	MissedWin	True
239.243	0.3	Win2	0.64	0.002	No	3.128	-0.002	4.0	NoResponse	0	0.223	n/a	3	24	ButtonPress	MissedWin	True
239.72	1.45	Win2	0.64	n/a	No	3.128	n/a	5.0	NoResponse	0	1.281	240.001	3	24	Feedback	MissedWin	True
241.169	3.128	Win2	0.64	n/a	No	3.128	n/a	n/a	NoResponse	0	0.0	n/a	3	24	ISIslide	MissedWin	True
244.318	0.25	Win2	0.6154	0.0	No	3.082	0.018	n/a	NoResponse	0	n/a	n/a	3	25	Cue	MissedWin	False
244.568	4.0	Win2	0.6154	0.0	No	3.082	0.0	4.0	NoResponse	0	0.073	243.641	3	25	Fixation	MissedWin	False
244.641	0.3	Win2	0.6154	0.0	No	3.082	0.0	4.0	NoResponse	0	0.073	n/a	3	25	ButtonPress	MissedWin	False
248.567	0.17	Win2	0.6154	0.001	No	3.082	-0.001	4.0	NoResponse	0	0.215	247.782	3	25	Target	MissedWin	False
248.733	0.53	Win2	0.6154	n/a	No	3.082	n/a	n/a	NoResponse	0	n/a	n/a	3	25	Blank	MissedWin	False
248.782	0.3	Win2	0.6154	0.001	No	3.082	-0.001	4.0	NoResponse	0	0.215	n/a	3	25	ButtonPress	MissedWin	False
249.266	1.45	Win2	0.6154	n/a	No	3.082	n/a	n/a	NoResponse	0	n/a	n/a	3	25	Feedback	MissedWin	False
250.716	3.082	Win2	0.6154	n/a	No	3.082	n/a	n/a	NoResponse	0	0.0	n/a	3	25	ISIslide	MissedWin	False
253.815	0.25	Win2	0.5926	0.0	No	2.935	0.015	n/a	NoResponse	0	n/a	n/a	3	26	Cue	MissedWin	True
254.065	3.95	Win2	0.5926	0.0	No	2.935	0.0	n/a	NoResponse	0	n/a	n/a	3	26	Fixation	MissedWin	True
258.013	0.18	Win2	0.5926	0.002	No	2.935	-0.002	4.0	NoResponse	0	0.217	257.23	3	26	Target	MissedWin	True
258.197	0.52	Win2	0.5926	n/a	No	2.935	n/a	n/a	NoResponse	0	n/a	n/a	3	26	Blank	MissedWin	True
258.23	0.3	Win2	0.5926	0.002	No	2.935	-0.002	4.0	NoResponse	0	0.217	n/a	3	26	ButtonPress	MissedWin	True
258.713	1.45	Win2	0.5926	n/a	No	2.935	n/a	5.0	NoResponse	0	0.287	258.0	3	26	Feedback	MissedWin	True
260.163	2.935	Win2	0.5926	n/a	No	2.935	n/a	n/a	NoResponse	0	0.0	n/a	3	26	ISIslide	MissedWin	True
263.128	0.25	Lose2	0.5714	0.0	No	2.822	0.028	n/a	NoResponse	-1	n/a	n/a	2	27	Cue	Loss	True
263.378	4.05	Lose2	0.5714	0.0	No	2.822	0.0	n/a	NoResponse	-1	n/a	n/a	2	27	Fixation	Loss	True
267.427	0.19	Lose2	0.5714	0.001	No	2.822	-0.001	4.0	NoResponse	-1	0.2	266.627	2	27	Target	Loss	True
267.627	0.51	Lose2	0.5714	n/a	No	2.822	n/a	n/a	NoResponse	-1	n/a	n/a	2	27	Blank	Loss	True
267.627	0.3	Lose2	0.5714	0.001	No	2.822	-0.001	4.0	NoResponse	-1	0.2	n/a	2	27	ButtonPress	Loss	True
268.127	1.45	Lose2	0.5714	n/a	No	2.822	n/a	5.0	NoResponse	-1	0.873	268.0	2	27	Feedback	Loss	True
269.576	2.822	Lose2	0.5714	n/a	No	2.822	n/a	n/a	NoResponse	-1	0.0	n/a	2	27	ISIslide	Loss	True
272.425	0.25	Control	0.5517	0.0	No	2.825	0.025	n/a	NoResponse	0	n/a	n/a	2	28	Cue	Neutral	True
272.675	4.05	Control	0.5517	0.0	No	2.825	0.0	n/a	NoResponse	0	n/a	n/a	2	28	Fixation	Neutral	True
276.724	0.2	Control	0.5517	0.001	No	2.825	-0.001	4.0	NoResponse	0	0.216	275.94	2	28	Target	Neutral	True
276.923	0.5	Control	0.5517	n/a	No	2.825	n/a	n/a	NoResponse	0	n/a	n/a	2	28	Blank	Neutral	True
276.94	0.3	Control	0.5517	0.001	No	2.825	-0.001	4.0	NoResponse	0	0.216	n/a	2	28	ButtonPress	Neutral	True
277.423	1.45	Control	0.5517	n/a	No	2.825	n/a	n/a	NoResponse	0	n/a	n/a	2	28	Feedback	Neutral	True
278.873	2.825	Control	0.5517	n/a	No	2.825	n/a	n/a	NoResponse	0	0.0	n/a	2	28	ISIslide	Neutral	True
281.722	0.25	Lose2	0.5333	0.0	No	2.828	0.022	n/a	NoResponse	-1	n/a	n/a	1	29	Cue	Loss	True
281.972	3.95	Lose2	0.5333	0.0	No	2.828	0.0	n/a	NoResponse	-1	n/a	n/a	1	29	Fixation	Loss	True
285.92	0.21	Lose2	0.5333	0.002	No	2.828	-0.002	4.0	NoResponse	-1	0.278	285.198	1	29	Target	Loss	True
286.137	0.49	Lose2	0.5333	n/a	No	2.828	n/a	n/a	NoResponse	-1	n/a	n/a	1	29	Blank	Loss	True
286.198	0.3	Lose2	0.5333	0.002	No	2.828	-0.002	4.0	NoResponse	-1	0.278	n/a	1	29	ButtonPress	Loss	True
286.62	1.45	Lose2	0.5333	n/a	No	2.828	n/a	5.0	NoResponse	-1	0.38	286.0	1	29	Feedback	Loss	True
288.07	2.828	Lose2	0.5333	n/a	No	2.828	n/a	n/a	NoResponse	-1	0.0	n/a	1	29	ISIslide	Loss	True
290.919	0.25	Win2	0.5484	0.0	Yes	2.781	0.019	n/a	GoodResponse	1	n/a	n/a	2	30	Cue	Win	True
291.168	3.9	Win2	0.5484	0.001	Yes	2.781	-0.001	n/a	GoodResponse	1	n/a	n/a	2	30	Fixation	Win	True
295.067	0.22	Win2	0.5484	0.002	Yes	2.781	-0.002	4.0	GoodResponse	1	0.2	294.267	2	30	Target	Win	True
295.267	0.3	Win2	0.5484	0.002	Yes	2.781	-0.002	4.0	GoodResponse	1	0.2	n/a	2	30	ButtonPress	Win	True
295.3	0.48	Win2	0.5484	n/a	Yes	2.781	n/a	n/a	GoodResponse	1	n/a	n/a	2	30	Blank	Win	True
295.767	1.45	Win2	0.5484	n/a	Yes	2.781	n/a	5.0	GoodResponse	1	1.233	296.0	2	30	Feedback	Win	True
297.216	2.781	Win2	0.5484	n/a	Yes	2.781	n/a	n/a	GoodResponse	1	0.0	n/a	2	30	ISIslide	Win	True
300.015	0.25	Lose2	0.5625	0.0	Yes	2.835	0.015	n/a	GoodResponse	0	n/a	n/a	2	31	Cue	AvoidedLoss	True
300.265	4.05	Lose2	0.5625	0.0	Yes	2.835	0.0	n/a	GoodResponse	0	n/a	n/a	2	31	Fixation	AvoidedLoss	True
304.314	0.23	Lose2	0.5625	0.001	Yes	2.835	-0.001	4.0	GoodResponse	0	0.198	303.512	2	31	Target	AvoidedLoss	True
304.512	0.3	Lose2	0.5625	0.001	Yes	2.835	-0.001	4.0	GoodResponse	0	0.198	n/a	2	31	ButtonPress	AvoidedLoss	True
304.547	0.47	Lose2	0.5625	n/a	Yes	2.835	n/a	n/a	GoodResponse	0	n/a	n/a	2	31	Blank	AvoidedLoss	True
305.014	1.45	Lose2	0.5625	n/a	Yes	2.835	n/a	n/a	GoodResponse	0	n/a	n/a	2	31	Feedback	AvoidedLoss	True
306.463	2.835	Lose2	0.5625	n/a	Yes	2.835	n/a	n/a	GoodResponse	0	0.0	n/a	2	31	ISIslide	AvoidedLoss	True
309.312	0.25	Lose2	0.5758	0.0	Yes	2.638	0.012	n/a	GoodResponse	0	n/a	n/a	2	32	Cue	AvoidedLoss	True
309.562	4.15	Lose2	0.5758	0.0	Yes	2.638	0.0	n/a	GoodResponse	0	n/a	n/a	2	32	Fixation	AvoidedLoss	True
313.71	0.24	Lose2	0.5758	0.002	Yes	2.638	-0.002	4.0	GoodResponse	0	0.2	312.91	2	32	Target	AvoidedLoss	True
313.91	0.3	Lose2	0.5758	0.002	Yes	2.638	-0.002	4.0	GoodResponse	0	0.2	n/a	2	32	ButtonPress	AvoidedLoss	True
313.96	0.46	Lose2	0.5758	n/a	Yes	2.638	n/a	n/a	GoodResponse	0	n/a	n/a	2	32	Blank	AvoidedLoss	True
314.41	1.45	Lose2	0.5758	n/a	Yes	2.638	n/a	5.0	GoodResponse	0	0.59	314.0	2	32	Feedback	AvoidedLoss	True
315.86	2.638	Lose2	0.5758	n/a	Yes	2.638	n/a	n/a	GoodResponse	0	0.0	n/a	2	32	ISIslide	AvoidedLoss	True
318.525	0.25	Win2	0.5882000000000001	0.001	Yes	2.675	0.025	n/a	GoodResponse	1	n/a	n/a	3	33	Cue	Win	True
318.775	4.0	Win2	0.5882000000000001	0.0	Yes	2.675	0.0	n/a	GoodResponse	1	n/a	n/a	3	33	Fixation	Win	True
322.774	0.25	Win2	0.5882000000000001	0.001	Yes	2.675	-0.001	4.0	GoodResponse	1	0.202	321.976	3	33	Target	Win	True
322.976	0.3	Win2	0.5882000000000001	0.001	Yes	2.675	-0.001	4.0	GoodResponse	1	0.202	n/a	3	33	ButtonPress	Win	True
323.024	0.45	Win2	0.5882000000000001	n/a	Yes	2.675	n/a	n/a	GoodResponse	1	n/a	n/a	3	33	Blank	Win	True
323.474	1.45	Win2	0.5882000000000001	n/a	Yes	2.675	n/a	n/a	GoodResponse	1	n/a	n/a	3	33	Feedback	Win	True
324.923	2.675	Win2	0.5882000000000001	n/a	Yes	2.675	n/a	n/a	GoodResponse	1	0.0	n/a	3	33	ISIslide	Win	True
327.622	0.25	Lose2	0.6	0.0	Yes	2.628	0.022	n/a	GoodResponse	0	n/a	n/a	3	34	Cue	AvoidedLoss	True
327.872	4.05	Lose2	0.6	0.0	Yes	2.628	0.0	n/a	GoodResponse	0	n/a	n/a	3	34	Fixation	AvoidedLoss	True
331.921	0.26	Lose2	0.6	0.001	Yes	2.628	-0.001	4.0	GoodResponse	0	0.258	331.179	3	34	Target	AvoidedLoss	True
332.179	0.3	Lose2	0.6	0.001	Yes	2.628	-0.001	4.0	GoodResponse	0	0.258	n/a	3	34	ButtonPress	AvoidedLoss	True
332.187	0.44	Lose2	0.6	n/a	Yes	2.628	n/a	n/a	GoodResponse	0	n/a	n/a	3	34	Blank	AvoidedLoss	True
332.62	1.45	Lose2	0.6	n/a	Yes	2.628	n/a	5.0	GoodResponse	0	0.38	332.0	3	34	Feedback	AvoidedLoss	True
334.07	2.628	Lose2	0.6	n/a	Yes	2.628	n/a	n/a	GoodResponse	0	0.0	n/a	3	34	ISIslide	AvoidedLoss	True
336.719	0.25	Lose2	0.6111	0.0	Yes	2.681	0.019	n/a	GoodResponse	0	n/a	n/a	3	35	Cue	AvoidedLoss	True
336.969	4.0	Lose2	0.6111	0.0	Yes	2.681	0.0	n/a	GoodResponse	0	n/a	n/a	3	35	Fixation	AvoidedLoss	True
340.968	0.27	Lose2	0.6111	0.001	Yes	2.681	-0.001	4.0	GoodResponse	0	0.205	340.173	3	35	Target	AvoidedLoss	True
341.173	0.3	Lose2	0.6111	0.001	Yes	2.681	-0.001	4.0	GoodResponse	0	0.205	n/a	3	35	ButtonPress	AvoidedLoss	True
341.251	0.43	Lose2	0.6111	n/a	Yes	2.681	n/a	n/a	GoodResponse	0	n/a	n/a	3	35	Blank	AvoidedLoss	True
341.667	1.45	Lose2	0.6111	n/a	Yes	2.681	n/a	5.0	GoodResponse	0	1.332	341.999	3	35	Feedback	AvoidedLoss	True
343.117	2.681	Lose2	0.6111	n/a	Yes	2.681	n/a	n/a	GoodResponse	0	0.0	n/a	3	35	ISIslide	AvoidedLoss	True
345.816	0.25	Control	0.6215999999999999	0.0	Yes	2.684	0.016	n/a	GoodResponse	0	n/a	n/a	3	36	Cue	Neutral	True
346.066	4.0	Control	0.6215999999999999	0.0	Yes	2.684	0.0	n/a	GoodResponse	0	n/a	n/a	3	36	Fixation	Neutral	True
350.064	0.28	Control	0.6215999999999999	0.002	Yes	2.684	-0.002	4.0	GoodResponse	0	0.208	349.272	3	36	Target	Neutral	True
350.272	0.3	Control	0.6215999999999999	0.002	Yes	2.684	-0.002	4.0	GoodResponse	0	0.208	n/a	3	36	ButtonPress	Neutral	True
350.348	0.42	Control	0.6215999999999999	n/a	Yes	2.684	n/a	n/a	GoodResponse	0	n/a	n/a	3	36	Blank	Neutral	True
350.764	1.45	Control	0.6215999999999999	n/a	Yes	2.684	n/a	5.0	GoodResponse	0	0.235	349.999	3	36	Feedback	Neutral	True
352.214	2.684	Control	0.6215999999999999	n/a	Yes	2.684	n/a	n/a	GoodResponse	0	0.0	n/a	3	36	ISIslide	Neutral	True
354.913	0.25	Win2	0.6315999999999999	0.0	Yes	2.887	0.013	n/a	GoodResponse	1	n/a	n/a	4	37	Cue	Win	True
355.163	4.0	Win2	0.6315999999999999	0.0	Yes	2.887	0.0	n/a	GoodResponse	1	n/a	n/a	4	37	Fixation	Win	True
359.161	0.29	Win2	0.6315999999999999	0.002	Yes	2.887	-0.002	4.0	GoodResponse	1	0.207	358.368	4	37	Target	Win	True
359.368	0.3	Win2	0.6315999999999999	0.002	Yes	2.887	-0.002	4.0	GoodResponse	1	0.207	n/a	4	37	ButtonPress	Win	True
359.461	0.41	Win2	0.6315999999999999	n/a	Yes	2.887	n/a	n/a	GoodResponse	1	n/a	n/a	4	37	Blank	Win	True
359.861	1.45	Win2	0.6315999999999999	n/a	Yes	2.887	n/a	5.0	GoodResponse	1	1.138	359.999	4	37	Feedback	Win	True
361.31	2.887	Win2	0.6315999999999999	n/a	Yes	2.887	n/a	n/a	GoodResponse	1	0.0	n/a	4	37	ISIslide	Win	True
364.226	0.25	Lose2	0.6409999999999999	0.0	Yes	2.824	0.026	n/a	GoodResponse	0	n/a	n/a	4	38	Cue	AvoidedLoss	True
364.476	3.95	Lose2	0.6409999999999999	0.0	Yes	2.824	0.0	n/a	GoodResponse	0	n/a	n/a	4	38	Fixation	AvoidedLoss	True
368.425	0.3	Lose2	0.6409999999999999	0.001	Yes	2.824	-0.001	4.0	GoodResponse	0	0.226	367.651	4	38	Target	AvoidedLoss	True
368.651	0.3	Lose2	0.6409999999999999	0.001	Yes	2.824	-0.001	4.0	GoodResponse	0	0.226	n/a	4	38	ButtonPress	AvoidedLoss	True
368.724	0.4	Lose2	0.6409999999999999	n/a	Yes	2.824	n/a	n/a	GoodResponse	0	n/a	n/a	4	38	Blank	AvoidedLoss	True
369.124	1.45	Lose2	0.6409999999999999	n/a	Yes	2.824	n/a	n/a	GoodResponse	0	n/a	n/a	4	38	Feedback	AvoidedLoss	True
370.574	2.824	Lose2	0.6409999999999999	n/a	Yes	2.824	n/a	n/a	GoodResponse	0	0.0	n/a	4	38	ISIslide	AvoidedLoss	True
373.423	0.25	Win2	0.65	0.0	Yes	2.977	0.023	n/a	GoodResponse	1	n/a	n/a	5	39	Cue	Win	True
373.673	4.1	Win2	0.65	0.0	Yes	2.977	0.0	n/a	GoodResponse	1	n/a	n/a	5	39	Fixation	Win	True
377.771	0.31	Win2	0.65	0.002	Yes	2.977	-0.002	4.0	GoodResponse	1	0.25	377.021	5	39	Target	Win	True
378.021	0.3	Win2	0.65	0.002	Yes	2.977	-0.002	4.0	GoodResponse	1	0.25	n/a	5	39	ButtonPress	Win	True
378.088	0.39	Win2	0.65	n/a	Yes	2.977	n/a	n/a	GoodResponse	1	n/a	n/a	5	39	Blank	Win	True
378.471	1.45	Win2	0.65	n/a	Yes	2.977	n/a	5.0	GoodResponse	1	0.529	378.0	5	39	Feedback	Win	True
379.92	2.977	Win2	0.65	n/a	Yes	2.977	n/a	n/a	GoodResponse	1	0.0	n/a	5	39	ISIslide	Win	True
382.919	0.25	Win2	0.6585	0.0	Yes	2.731	0.019	n/a	GoodResponse	1	n/a	n/a	6	40	Cue	Win	True
383.169	3.95	Win2	0.6585	0.0	Yes	2.731	0.0	n/a	GoodResponse	1	n/a	n/a	6	40	Fixation	Win	True
387.118	0.32	Win2	0.6585	0.001	Yes	2.731	-0.001	4.0	GoodResponse	1	0.22	386.338	6	40	Target	Win	True
387.338	0.3	Win2	0.6585	0.001	Yes	2.731	-0.001	4.0	GoodResponse	1	0.22	n/a	6	40	ButtonPress	Win	True
387.435	0.38	Win2	0.6585	n/a	Yes	2.731	n/a	n/a	GoodResponse	1	n/a	n/a	6	40	Blank	Win	True
387.818	1.45	Win2	0.6585	n/a	Yes	2.731	n/a	5.0	GoodResponse	1	1.181	387.999	6	40	Feedback	Win	True
389.267	2.731	Win2	0.6585	n/a	Yes	2.731	n/a	n/a	GoodResponse	1	0.0	n/a	6	40	ISIslide	Win	True
392.016	0.25	Win2	0.6667000000000001	0.0	Yes	2.784	0.016	n/a	GoodResponse	1	n/a	n/a	7	41	Cue	Win	True
392.266	3.9	Win2	0.6667000000000001	0.0	Yes	2.784	0.0	n/a	GoodResponse	1	n/a	n/a	7	41	Fixation	Win	True
396.165	0.32	Win2	0.6667000000000001	0.001	Yes	2.784	-0.001	4.0	GoodResponse	1	0.207	395.372	7	41	Target	Win	True
396.372	0.3	Win2	0.6667000000000001	0.001	Yes	2.784	-0.001	4.0	GoodResponse	1	0.207	n/a	7	41	ButtonPress	Win	True
396.498	0.38	Win2	0.6667000000000001	n/a	Yes	2.784	n/a	n/a	GoodResponse	1	n/a	n/a	7	41	Blank	Win	True
396.865	1.45	Win2	0.6667000000000001	n/a	Yes	2.784	n/a	5.0	GoodResponse	1	0.134	395.999	7	41	Feedback	Win	True
398.314	2.784	Win2	0.6667000000000001	n/a	Yes	2.784	n/a	n/a	GoodResponse	1	0.0	n/a	7	41	ISIslide	Win	True
401.113	0.25	Control	0.6744	0.0	Yes	2.937	0.013	n/a	GoodResponse	0	n/a	n/a	7	42	Cue	Neutral	True
401.363	3.85	Control	0.6744	0.0	Yes	2.937	0.0	n/a	GoodResponse	0	n/a	n/a	7	42	Fixation	Neutral	True
405.212	0.31	Control	0.6744	0.001	Yes	2.937	-0.001	4.0	GoodResponse	0	0.22	404.432	7	42	Target	Neutral	True
405.432	0.3	Control	0.6744	0.001	Yes	2.937	-0.001	4.0	GoodResponse	0	0.22	n/a	7	42	ButtonPress	Neutral	True
405.528	0.39	Control	0.6744	n/a	Yes	2.937	n/a	n/a	GoodResponse	0	n/a	n/a	7	42	Blank	Neutral	True
405.911	1.45	Control	0.6744	n/a	Yes	2.937	n/a	5.0	GoodResponse	0	1.088	405.999	7	42	Feedback	Neutral	True
407.361	2.937	Control	0.6744	n/a	Yes	2.937	n/a	n/a	GoodResponse	0	0.0	n/a	7	42	ISIslide	Neutral	True
410.326	0.25	Win2	0.6818000000000001	0.001	Yes	3.174	0.026	n/a	GoodResponse	1	n/a	n/a	8	43	Cue	Win	True
410.576	4.0	Win2	0.6818000000000001	0.0	Yes	3.174	0.0	n/a	GoodResponse	1	n/a	n/a	8	43	Fixation	Win	True
414.575	0.3	Win2	0.6818000000000001	0.001	Yes	3.174	-0.001	4.0	GoodResponse	1	0.195	413.77	8	43	Target	Win	True
414.77	0.3	Win2	0.6818000000000001	0.001	Yes	3.174	-0.001	4.0	GoodResponse	1	0.195	n/a	8	43	ButtonPress	Win	True
414.875	0.4	Win2	0.6818000000000001	n/a	Yes	3.174	n/a	n/a	GoodResponse	1	n/a	n/a	8	43	Blank	Win	True
415.275	1.45	Win2	0.6818000000000001	n/a	Yes	3.174	n/a	n/a	GoodResponse	1	n/a	n/a	8	43	Feedback	Win	True
416.724	3.174	Win2	0.6818000000000001	n/a	Yes	3.174	n/a	n/a	GoodResponse	1	0.0	n/a	8	43	ISIslide	Win	True
419.923	0.25	Win2	0.6889	0.0	Yes	2.977	0.023	n/a	GoodResponse	1	n/a	n/a	9	44	Cue	Win	True
420.173	4.0	Win2	0.6889	0.0	Yes	2.977	0.0	n/a	GoodResponse	1	n/a	n/a	9	44	Fixation	Win	True
424.172	0.29	Win2	0.6889	0.001	Yes	2.977	-0.001	4.0	GoodResponse	1	0.197	423.369	9	44	Target	Win	True
424.369	0.3	Win2	0.6889	0.001	Yes	2.977	-0.001	4.0	GoodResponse	1	0.197	n/a	9	44	ButtonPress	Win	True
424.471	0.41	Win2	0.6889	n/a	Yes	2.977	n/a	n/a	GoodResponse	1	n/a	n/a	9	44	Blank	Win	True
424.871	1.45	Win2	0.6889	n/a	Yes	2.977	n/a	5.0	GoodResponse	1	0.127	423.998	9	44	Feedback	Win	True
426.321	2.977	Win2	0.6889	n/a	Yes	2.977	n/a	n/a	GoodResponse	1	0.0	n/a	9	44	ISIslide	Win	True
429.32	0.25	Control	0.6957	0.0	Yes	2.88	0.02	n/a	GoodResponse	0	n/a	n/a	9	45	Cue	Neutral	True
429.57	4.1	Control	0.6957	0.0	Yes	2.88	0.0	n/a	GoodResponse	0	n/a	n/a	9	45	Fixation	Neutral	True
433.668	0.28	Control	0.6957	0.002	Yes	2.88	-0.002	4.0	GoodResponse	0	0.205	432.873	9	45	Target	Neutral	True
433.873	0.3	Control	0.6957	0.002	Yes	2.88	-0.002	4.0	GoodResponse	0	0.205	n/a	9	45	ButtonPress	Neutral	True
433.951	0.42	Control	0.6957	n/a	Yes	2.88	n/a	n/a	GoodResponse	0	n/a	n/a	9	45	Blank	Neutral	True
434.368	1.45	Control	0.6957	n/a	Yes	2.88	n/a	5.0	GoodResponse	0	0.63	433.998	9	45	Feedback	Neutral	True
435.817	2.88	Control	0.6957	n/a	Yes	2.88	n/a	n/a	GoodResponse	0	0.0	n/a	9	45	ISIslide	Neutral	True
438.716	0.25	Lose2	0.7021	0.001	Yes	3.384	0.016	n/a	GoodResponse	0	n/a	n/a	9	46	Cue	AvoidedLoss	True
438.966	4.0	Lose2	0.7021	0.0	Yes	3.384	0.0	n/a	GoodResponse	0	n/a	n/a	9	46	Fixation	AvoidedLoss	True
442.965	0.27	Lose2	0.7021	0.001	Yes	3.384	-0.001	4.0	GoodResponse	0	0.212	442.177	9	46	Target	AvoidedLoss	True
443.177	0.3	Lose2	0.7021	0.001	Yes	3.384	-0.001	4.0	GoodResponse	0	0.212	n/a	9	46	ButtonPress	AvoidedLoss	True
443.232	0.43	Lose2	0.7021	n/a	Yes	3.384	n/a	n/a	GoodResponse	0	n/a	n/a	9	46	Blank	AvoidedLoss	True
443.665	1.45	Lose2	0.7021	n/a	Yes	3.384	n/a	5.0	GoodResponse	0	1.334	443.999	9	46	Feedback	AvoidedLoss	True
445.114	3.384	Lose2	0.7021	n/a	Yes	3.384	n/a	n/a	GoodResponse	0	0.0	n/a	9	46	ISIslide	AvoidedLoss	True
448.513	0.25	Lose2	0.7082999999999999	0.0	Yes	2.687	0.013	n/a	GoodResponse	0	n/a	n/a	9	47	Cue	AvoidedLoss	True
448.763	4.0	Lose2	0.7082999999999999	0.0	Yes	2.687	0.0	n/a	GoodResponse	0	n/a	n/a	9	47	Fixation	AvoidedLoss	True
452.761	0.26	Lose2	0.7082999999999999	0.002	Yes	2.687	-0.002	4.0	GoodResponse	0	0.208	451.969	9	47	Target	AvoidedLoss	True
452.969	0.3	Lose2	0.7082999999999999	0.002	Yes	2.687	-0.002	4.0	GoodResponse	0	0.208	n/a	9	47	ButtonPress	AvoidedLoss	True
453.028	0.44	Lose2	0.7082999999999999	n/a	Yes	2.687	n/a	n/a	GoodResponse	0	n/a	n/a	9	47	Blank	AvoidedLoss	True
453.461	1.45	Lose2	0.7082999999999999	n/a	Yes	2.687	n/a	n/a	GoodResponse	0	n/a	n/a	9	47	Feedback	AvoidedLoss	True
454.911	2.687	Lose2	0.7082999999999999	n/a	Yes	2.687	n/a	n/a	GoodResponse	0	0.0	n/a	9	47	ISIslide	AvoidedLoss	True
457.626	0.25	Lose2	0.7143	0.001	Yes	3.024	0.026	n/a	GoodResponse	0	n/a	n/a	9	48	Cue	AvoidedLoss	True
457.876	3.95	Lose2	0.7143	0.0	Yes	3.024	0.0	n/a	GoodResponse	0	n/a	n/a	9	48	Fixation	AvoidedLoss	True
461.825	0.25	Lose2	0.7143	0.001	Yes	3.024	-0.001	4.0	GoodResponse	0	0.203	461.028	9	48	Target	AvoidedLoss	True
462.028	0.3	Lose2	0.7143	0.001	Yes	3.024	-0.001	4.0	GoodResponse	0	0.203	n/a	9	48	ButtonPress	AvoidedLoss	True
462.075	0.45	Lose2	0.7143	n/a	Yes	3.024	n/a	n/a	GoodResponse	0	n/a	n/a	9	48	Blank	AvoidedLoss	True
462.525	1.45	Lose2	0.7143	n/a	Yes	3.024	n/a	5.0	GoodResponse	0	0.474	461.999	9	48	Feedback	AvoidedLoss	True
463.974	3.024	Lose2	0.7143	n/a	Yes	3.024	n/a	n/a	GoodResponse	0	0.0	n/a	9	48	ISIslide	AvoidedLoss	True
467.023	0.25	Control	0.72	0.0	Yes	2.877	0.023	n/a	GoodResponse	0	n/a	n/a	9	49	Cue	Neutral	True
467.273	4.0	Control	0.72	0.0	Yes	2.877	0.0	n/a	GoodResponse	0	n/a	n/a	9	49	Fixation	Neutral	True
471.272	0.24	Control	0.72	0.001	Yes	2.877	-0.001	4.0	GoodResponse	0	0.223	470.495	9	49	Target	Neutral	True
471.495	0.3	Control	0.72	0.001	Yes	2.877	-0.001	4.0	GoodResponse	0	0.223	n/a	9	49	ButtonPress	Neutral	True
471.522	0.46	Control	0.72	n/a	Yes	2.877	n/a	n/a	GoodResponse	0	n/a	n/a	9	49	Blank	Neutral	True
471.971	1.45	Control	0.72	n/a	Yes	2.877	n/a	5.0	GoodResponse	0	1.027	471.998	9	49	Feedback	Neutral	True
473.421	2.877	Control	0.72	n/a	Yes	2.877	n/a	n/a	GoodResponse	0	0.0	n/a	9	49	ISIslide	Neutral	True
476.32	0.25	Control	0.7254999999999999	0.0	Yes	2.78	0.02	n/a	GoodResponse	0	n/a	n/a	9	50	Cue	Neutral	True
476.57	4.0	Control	0.7254999999999999	0.0	Yes	2.78	0.0	n/a	GoodResponse	0	n/a	n/a	9	50	Fixation	Neutral	True
480.568	0.23	Control	0.7254999999999999	0.002	Yes	2.78	-0.002	4.0	GoodResponse	0	0.206	479.774	9	50	Target	Neutral	True
480.774	0.3	Control	0.7254999999999999	0.002	Yes	2.78	-0.002	4.0	GoodResponse	0	0.206	n/a	9	50	ButtonPress	Neutral	True
480.802	0.47	Control	0.7254999999999999	n/a	Yes	2.78	n/a	n/a	GoodResponse	0	n/a	n/a	9	50	Blank	Neutral	True
481.268	1.45	Control	0.7254999999999999	n/a	Yes	2.78	n/a	n/a	GoodResponse	0	n/a	n/a	9	50	Feedback	Neutral	True
482.718	2.78	Control	0.7254999999999999	n/a	Yes	2.78	n/a	n/a	GoodResponse	0	0.0	n/a	9	50	ISIslide	Neutral	True
485.517	0.25	Control	0.7308	0.0	Yes	2.733	0.017	n/a	GoodResponse	0	n/a	n/a	9	51	Cue	Neutral	True
485.767	3.95	Control	0.7308	0.0	Yes	2.733	0.0	n/a	GoodResponse	0	n/a	n/a	9	51	Fixation	Neutral	True
489.715	0.22	Control	0.7308	0.002	Yes	2.733	-0.002	4.0	GoodResponse	0	0.189	488.904	9	51	Target	Neutral	True
489.904	0.3	Control	0.7308	0.002	Yes	2.733	-0.002	4.0	GoodResponse	0	0.189	n/a	9	51	ButtonPress	Neutral	True
489.948	0.48	Control	0.7308	n/a	Yes	2.733	n/a	n/a	GoodResponse	0	n/a	n/a	9	51	Blank	Neutral	True
490.415	1.45	Control	0.7308	n/a	Yes	2.733	n/a	5.0	GoodResponse	0	0.583	489.998	9	51	Feedback	Neutral	True
491.864	2.733	Control	0.7308	n/a	Yes	2.733	n/a	n/a	GoodResponse	0	0.0	n/a	9	51	ISIslide	Neutral	True
494.613	0.25	Control	0.7358	0.0	Yes	2.637	0.013	n/a	GoodResponse	0	n/a	n/a	9	52	Cue	Neutral	True
494.863	4.05	Control	0.7358	0.0	Yes	2.637	0.0	n/a	GoodResponse	0	n/a	n/a	9	52	Fixation	Neutral	True
498.912	0.21	Control	0.7358	0.001	Yes	2.637	-0.001	4.0	GoodResponse	0	0.187	498.099	9	52	Target	Neutral	True
499.099	0.3	Control	0.7358	0.001	Yes	2.637	-0.001	4.0	GoodResponse	0	0.187	n/a	9	52	ButtonPress	Neutral	True
499.128	0.49	Control	0.7358	n/a	Yes	2.637	n/a	n/a	GoodResponse	0	n/a	n/a	9	52	Blank	Neutral	True
499.612	1.45	Control	0.7358	n/a	Yes	2.637	n/a	5.0	GoodResponse	0	1.386	499.998	9	52	Feedback	Neutral	True
501.061	2.637	Control	0.7358	n/a	Yes	2.637	n/a	n/a	GoodResponse	0	0.0	n/a	9	52	ISIslide	Neutral	True
503.727	0.25	Win2	0.7222	0.0	No	2.923	0.027	n/a	NoResponse	0	n/a	n/a	9	53	Cue	MissedWin	True
503.977	4.05	Win2	0.7222	0.0	No	2.923	0.0	n/a	NoResponse	0	n/a	n/a	9	53	Fixation	MissedWin	True
508.025	0.2	Win2	0.7222	0.002	No	2.923	-0.002	4.0	NoResponse	0	0.21	507.235	9	53	Target	MissedWin	True
508.225	0.5	Win2	0.7222	n/a	No	2.923	n/a	n/a	NoResponse	0	n/a	n/a	9	53	Blank	MissedWin	True
508.235	0.3	Win2	0.7222	0.002	No	2.923	-0.002	4.0	NoResponse	0	0.21	n/a	9	53	ButtonPress	MissedWin	True
508.725	1.45	Win2	0.7222	n/a	No	2.923	n/a	5.0	NoResponse	0	0.272	507.997	9	53	Feedback	MissedWin	True
510.175	2.923	Win2	0.7222	n/a	No	2.923	n/a	n/a	NoResponse	0	0.0	n/a	9	53	ISIslide	MissedWin	True
513.124	0.25	Win2	0.7091	0.0	No	2.726	0.024	n/a	LatePress	0	n/a	n/a	9	54	Cue	MissedWin	True
513.373	3.95	Win2	0.7091	0.001	No	2.726	-0.001	n/a	LatePress	0	n/a	n/a	9	54	Fixation	MissedWin	True
517.322	0.19	Win2	0.7091	0.002	No	2.726	-0.002	4.0	LatePress	0	0.194	516.516	9	54	Target	MissedWin	True
517.516	0.3	Win2	0.7091	0.002	No	2.726	-0.002	4.0	LatePress	0	0.194	n/a	9	54	ButtonPress	MissedWin	True
517.522	0.51	Win2	0.7091	n/a	No	2.726	n/a	n/a	LatePress	0	n/a	n/a	9	54	Blank	MissedWin	True
518.022	1.45	Win2	0.7091	n/a	No	2.726	n/a	5.0	LatePress	0	0.975	517.997	9	54	Feedback	MissedWin	True
519.471	2.726	Win2	0.7091	n/a	No	2.726	n/a	n/a	LatePress	0	0.0	n/a	9	54	ISIslide	MissedWin	True
522.22	0.25	Control	0.6964	0.0	No	3.03	0.02	n/a	NoResponse	0	n/a	n/a	9	55	Cue	Neutral	True
522.47	3.95	Control	0.6964	0.0	No	3.03	0.0	n/a	NoResponse	0	n/a	n/a	9	55	Fixation	Neutral	True
526.419	0.18	Control	0.6964	0.001	No	3.03	-0.001	4.0	NoResponse	0	0.19	525.609	9	55	Target	Neutral	True
526.602	0.52	Control	0.6964	n/a	No	3.03	n/a	n/a	NoResponse	0	n/a	n/a	9	55	Blank	Neutral	True
526.609	0.3	Control	0.6964	0.001	No	3.03	-0.001	4.0	NoResponse	0	0.19	n/a	9	55	ButtonPress	Neutral	True
527.119	1.45	Control	0.6964	n/a	No	3.03	n/a	n/a	NoResponse	0	n/a	n/a	9	55	Feedback	Neutral	True
528.568	3.03	Control	0.6964	n/a	No	3.03	n/a	n/a	NoResponse	0	0.0	n/a	9	55	ISIslide	Neutral	True
531.617	0.25	Control	0.6842	0.0	No	2.833	0.017	n/a	NoResponse	0	n/a	n/a	9	56	Cue	Neutral	True
531.867	3.95	Control	0.6842	0.0	No	2.833	0.0	n/a	NoResponse	0	n/a	n/a	9	56	Fixation	Neutral	True
535.816	0.17	Control	0.6842	0.001	No	2.833	-0.001	4.0	NoResponse	0	0.205	535.021	9	56	Target	Neutral	True
535.999	0.53	Control	0.6842	n/a	No	2.833	n/a	n/a	NoResponse	0	n/a	n/a	9	56	Blank	Neutral	True
536.021	0.3	Control	0.6842	0.001	No	2.833	-0.001	4.0	NoResponse	0	0.205	n/a	9	56	ButtonPress	Neutral	True
536.515	1.45	Control	0.6842	n/a	No	2.833	n/a	5.0	NoResponse	0	0.483	535.998	9	56	Feedback	Neutral	True
537.965	2.833	Control	0.6842	n/a	No	2.833	n/a	n/a	NoResponse	0	0.0	n/a	9	56	ISIslide	Neutral	True
540.814	0.25	Control	0.6724	0.0	No	3.486	0.014	n/a	NoResponse	0	n/a	n/a	9	57	Cue	Neutral	True
541.064	4.0	Control	0.6724	0.0	No	3.486	0.0	n/a	NoResponse	0	n/a	n/a	9	57	Fixation	Neutral	True
545.062	0.16	Control	0.6724	0.002	No	3.486	-0.002	4.0	NoResponse	0	0.182	544.244	9	57	Target	Neutral	True
545.229	0.54	Control	0.6724	n/a	No	3.486	n/a	n/a	NoResponse	0	n/a	n/a	9	57	Blank	Neutral	True
545.244	0.3	Control	0.6724	0.002	No	3.486	-0.002	4.0	NoResponse	0	0.182	n/a	9	57	ButtonPress	Neutral	True
545.762	1.45	Control	0.6724	n/a	No	3.486	n/a	5.0	NoResponse	0	1.236	545.998	9	57	Feedback	Neutral	True
547.212	3.486	Control	0.6724	n/a	No	3.486	n/a	n/a	NoResponse	0	0.0	n/a	9	57	ISIslide	Neutral	True
550.727	0.25	Win2	0.6609999999999999	0.0	No	2.723	0.027	n/a	NoResponse	0	n/a	n/a	9	58	Cue	MissedWin	True
550.977	4.05	Win2	0.6609999999999999	0.0	No	2.723	0.0	n/a	NoResponse	0	n/a	n/a	9	58	Fixation	MissedWin	True
555.025	0.15	Win2	0.6609999999999999	0.002	No	2.723	-0.002	4.0	NoResponse	0	0.189	554.214	9	58	Target	MissedWin	True
555.175	0.55	Win2	0.6609999999999999	n/a	No	2.723	n/a	n/a	NoResponse	0	n/a	n/a	9	58	Blank	MissedWin	True
555.214	0.3	Win2	0.6609999999999999	0.002	No	2.723	-0.002	4.0	NoResponse	0	0.189	n/a	9	58	ButtonPress	MissedWin	True
555.725	1.45	Win2	0.6609999999999999	n/a	No	2.723	n/a	5.0	NoResponse	0	1.272	555.997	9	58	Feedback	MissedWin	True
557.175	2.723	Win2	0.6609999999999999	n/a	No	2.723	n/a	n/a	NoResponse	0	0.0	n/a	9	58	ISIslide	MissedWin	True
559.924	0.25	Lose2	0.65	0.0	No	2.676	0.024	n/a	NoResponse	-1	n/a	n/a	8	59	Cue	Loss	False
560.174	4.0	Lose2	0.65	0.0	No	2.676	0.0	4.0	NoResponse	-1	2.855	562.029	8	59	Fixation	Loss	False
563.029	0.3	Lose2	0.65	0.0	No	2.676	0.0	4.0	NoResponse	-1	2.855	n/a	8	59	ButtonPress	Loss	False
564.172	0.15	Lose2	0.65	0.002	No	2.676	-0.002	4.0	NoResponse	-1	0.311	563.483	8	59	Target	Loss	False
564.322	0.55	Lose2	0.65	n/a	No	2.676	n/a	n/a	NoResponse	-1	n/a	n/a	8	59	Blank	Loss	False
564.483	0.3	Lose2	0.65	0.002	No	2.676	-0.002	4.0	NoResponse	-1	0.311	n/a	8	59	ButtonPress	Loss	False
564.872	1.45	Lose2	0.65	n/a	No	2.676	n/a	5.0	NoResponse	-1	0.125	563.997	8	59	Feedback	Loss	False
566.321	2.676	Lose2	0.65	n/a	No	2.676	n/a	n/a	NoResponse	-1	0.0	n/a	8	59	ISIslide	Loss	False
569.021	0.25	Control	0.6393	0.0	No	2.679	0.021	n/a	NoResponse	0	n/a	n/a	8	60	Cue	Neutral	True
569.27	4.0	Control	0.6393	0.001	No	2.679	-0.001	n/a	NoResponse	0	n/a	n/a	8	60	Fixation	Neutral	True
573.269	0.16	Control	0.6393	0.002	No	2.679	-0.002	4.0	NoResponse	0	0.28	572.549	8	60	Target	Neutral	True
573.436	0.54	Control	0.6393	n/a	No	2.679	n/a	n/a	NoResponse	0	n/a	n/a	8	60	Blank	Neutral	True
573.549	0.3	Control	0.6393	0.002	No	2.679	-0.002	4.0	NoResponse	0	0.28	n/a	8	60	ButtonPress	Neutral	True
573.969	1.45	Control	0.6393	n/a	No	2.679	n/a	5.0	NoResponse	0	1.028	573.997	8	60	Feedback	Neutral	True
575.418	2.679	Control	0.6393	n/a	No	2.679	n/a	n/a	NoResponse	0	0.0	n/a	8	60	ISIslide	Neutral	True
578.117	0.25	Lose2	0.629	0.0	No	2.983	0.017	n/a	NoResponse	-1	n/a	n/a	7	61	Cue	Loss	True
578.367	4.0	Lose2	0.629	0.0	No	2.983	0.0	n/a	NoResponse	-1	n/a	n/a	7	61	Fixation	Loss	True
582.366	0.17	Lose2	0.629	0.001	No	2.983	-0.001	4.0	NoResponse	-1	0.212	581.578	7	61	Target	Loss	True
582.532	0.53	Lose2	0.629	n/a	No	2.983	n/a	n/a	NoResponse	-1	n/a	n/a	7	61	Blank	Loss	True
582.578	0.3	Lose2	0.629	0.001	No	2.983	-0.001	4.0	NoResponse	-1	0.212	n/a	7	61	ButtonPress	Loss	True
583.066	1.45	Lose2	0.629	n/a	No	2.983	n/a	n/a	NoResponse	-1	n/a	n/a	7	61	Feedback	Loss	True
584.515	2.983	Lose2	0.629	n/a	No	2.983	n/a	n/a	NoResponse	-1	0.0	n/a	7	61	ISIslide	Loss	True
587.514	0.25	Lose2	0.619	0.0	No	2.886	0.014	n/a	NoResponse	-1	n/a	n/a	6	62	Cue	Loss	True
587.764	3.9	Lose2	0.619	0.0	No	2.886	0.0	n/a	NoResponse	-1	n/a	n/a	6	62	Fixation	Loss	True
591.663	0.18	Lose2	0.619	0.001	No	2.886	-0.001	4.0	NoResponse	-1	0.213	590.876	6	62	Target	Loss	True
591.846	0.52	Lose2	0.619	n/a	No	2.886	n/a	n/a	NoResponse	-1	n/a	n/a	6	62	Blank	Loss	True
591.876	0.3	Lose2	0.619	0.001	No	2.886	-0.001	4.0	NoResponse	-1	0.213	n/a	6	62	ButtonPress	Loss	True
592.362	1.45	Lose2	0.619	n/a	No	2.886	n/a	5.0	NoResponse	-1	0.635	591.997	6	62	Feedback	Loss	True
593.812	2.886	Lose2	0.619	n/a	No	2.886	n/a	n/a	NoResponse	-1	0.0	n/a	6	62	ISIslide	Loss	True
596.727	0.25	Lose2	0.6093999999999999	0.001	No	2.623	0.027	n/a	NoResponse	-1	n/a	n/a	5	63	Cue	Loss	True
596.977	4.05	Lose2	0.6093999999999999	0.0	No	2.623	0.0	n/a	NoResponse	-1	n/a	n/a	5	63	Fixation	Loss	True
601.026	0.19	Lose2	0.6093999999999999	0.001	No	2.623	-0.001	4.0	NoResponse	-1	0.206	600.232	5	63	Target	Loss	True
601.226	0.51	Lose2	0.6093999999999999	n/a	No	2.623	n/a	n/a	NoResponse	-1	n/a	n/a	5	63	Blank	Loss	True
601.232	0.3	Lose2	0.6093999999999999	0.001	No	2.623	-0.001	4.0	NoResponse	-1	0.206	n/a	5	63	ButtonPress	Loss	True
601.726	1.45	Lose2	0.6093999999999999	n/a	No	2.623	n/a	5.0	NoResponse	-1	1.271	601.997	5	63	Feedback	Loss	True
603.175	2.623	Lose2	0.6093999999999999	n/a	No	2.623	n/a	n/a	NoResponse	-1	0.0	n/a	5	63	ISIslide	Loss	True
605.824	0.25	Win2	0.6	0.0	No	3.126	0.024	n/a	NoResponse	0	n/a	n/a	5	64	Cue	MissedWin	True
606.074	4.15	Win2	0.6	0.0	No	3.126	0.0	n/a	NoResponse	0	n/a	n/a	5	64	Fixation	MissedWin	True
610.223	0.2	Win2	0.6	0.001	No	3.126	-0.001	4.0	NoResponse	0	0.261	609.484	5	64	Target	MissedWin	True
610.423	0.5	Win2	0.6	n/a	No	3.126	n/a	n/a	NoResponse	0	n/a	n/a	5	64	Blank	MissedWin	True
610.484	0.3	Win2	0.6	0.001	No	3.126	-0.001	4.0	NoResponse	0	0.261	n/a	5	64	ButtonPress	MissedWin	True
610.922	1.45	Win2	0.6	n/a	No	3.126	n/a	5.0	NoResponse	0	0.075	609.997	5	64	Feedback	MissedWin	True
612.372	3.126	Win2	0.6	n/a	No	3.126	n/a	n/a	NoResponse	0	0.0	n/a	5	64	ISIslide	MissedWin	True
615.521	0.25	Control	0.6061	0.0	Yes	2.779	0.021	n/a	GoodResponse	0	n/a	n/a	5	65	Cue	Neutral	True
615.771	4.0	Control	0.6061	0.0	Yes	2.779	0.0	n/a	GoodResponse	0	n/a	n/a	5	65	Fixation	Neutral	True
619.769	0.21	Control	0.6061	0.002	Yes	2.779	-0.002	4.0	GoodResponse	0	0.199	618.968	5	65	Target	Neutral	True
619.968	0.3	Control	0.6061	0.002	Yes	2.779	-0.002	4.0	GoodResponse	0	0.199	n/a	5	65	ButtonPress	Neutral	True
619.986	0.49	Control	0.6061	n/a	Yes	2.779	n/a	n/a	GoodResponse	0	n/a	n/a	5	65	Blank	Neutral	True
620.469	1.45	Control	0.6061	n/a	Yes	2.779	n/a	5.0	GoodResponse	0	0.528	619.997	5	65	Feedback	Neutral	True
621.919	2.779	Control	0.6061	n/a	Yes	2.779	n/a	n/a	GoodResponse	0	0.0	n/a	5	65	ISIslide	Neutral	True
624.718	0.25	Win2	0.6119	0.0	Yes	2.782	0.018	n/a	GoodResponse	1	n/a	n/a	6	66	Cue	Win	True
624.967	3.9	Win2	0.6119	0.001	Yes	2.782	-0.001	n/a	GoodResponse	1	n/a	n/a	6	66	Fixation	Win	True
628.866	0.22	Win2	0.6119	0.002	Yes	2.782	-0.002	4.0	GoodResponse	1	0.21	628.076	6	66	Target	Win	True
629.076	0.3	Win2	0.6119	0.002	Yes	2.782	-0.002	4.0	GoodResponse	1	0.21	n/a	6	66	ButtonPress	Win	True
629.099	0.48	Win2	0.6119	n/a	Yes	2.782	n/a	n/a	GoodResponse	1	n/a	n/a	6	66	Blank	Win	True
629.566	1.45	Win2	0.6119	n/a	Yes	2.782	n/a	5.0	GoodResponse	1	1.431	629.997	6	66	Feedback	Win	True
631.015	2.782	Win2	0.6119	n/a	Yes	2.782	n/a	n/a	GoodResponse	1	0.0	n/a	6	66	ISIslide	Win	True
633.814	0.25	Control	0.6029	0.0	No	2.736	0.014	n/a	NoResponse	0	n/a	n/a	6	67	Cue	Neutral	True
634.064	3.95	Control	0.6029	0.0	No	2.736	0.0	n/a	NoResponse	0	n/a	n/a	6	67	Fixation	Neutral	True
638.013	0.23	Control	0.6029	0.001	No	2.736	-0.001	4.0	NoResponse	0	0.24	637.253	6	67	Target	Neutral	True
638.246	0.47	Control	0.6029	n/a	No	2.736	n/a	n/a	NoResponse	0	n/a	n/a	6	67	Blank	Neutral	True
638.253	0.3	Control	0.6029	0.001	No	2.736	-0.001	4.0	NoResponse	0	0.24	n/a	6	67	ButtonPress	Neutral	True
638.713	1.45	Control	0.6029	n/a	No	2.736	n/a	5.0	NoResponse	0	0.283	637.996	6	67	Feedback	Neutral	True
640.162	2.736	Control	0.6029	n/a	No	2.736	n/a	n/a	NoResponse	0	0.0	n/a	6	67	ISIslide	Neutral	True
642.928	0.25	Win2	0.6087	0.0	Yes	3.072	0.028	n/a	GoodResponse	1	n/a	n/a	7	68	Cue	Win	True
643.178	4.0	Win2	0.6087	0.0	Yes	3.072	0.0	n/a	GoodResponse	1	n/a	n/a	7	68	Fixation	Win	True
647.176	0.24	Win2	0.6087	0.002	Yes	3.072	-0.002	4.0	GoodResponse	1	0.182	646.358	7	68	Target	Win	True
647.358	0.3	Win2	0.6087	0.002	Yes	3.072	-0.002	4.0	GoodResponse	1	0.182	n/a	7	68	ButtonPress	Win	True
647.426	0.46	Win2	0.6087	n/a	Yes	3.072	n/a	n/a	GoodResponse	1	n/a	n/a	7	68	Blank	Win	True
647.876	1.45	Win2	0.6087	n/a	Yes	3.072	n/a	5.0	GoodResponse	1	1.12	647.996	7	68	Feedback	Win	True
649.326	3.072	Win2	0.6087	n/a	Yes	3.072	n/a	n/a	GoodResponse	1	0.0	n/a	7	68	ISIslide	Win	True
652.424	0.25	Win2	0.6	0.001	No	3.226	0.024	n/a	NoResponse	0	n/a	n/a	7	69	Cue	MissedWin	True
652.674	3.95	Win2	0.6	0.0	No	3.226	0.0	n/a	NoResponse	0	n/a	n/a	7	69	Fixation	MissedWin	True
656.623	0.25	Win2	0.6	0.001	No	3.226	-0.001	4.0	NoResponse	0	0.259	655.882	7	69	Target	MissedWin	True
656.873	0.45	Win2	0.6	n/a	No	3.226	n/a	n/a	NoResponse	0	n/a	n/a	7	69	Blank	MissedWin	True
656.882	0.3	Win2	0.6	0.001	No	3.226	-0.001	4.0	NoResponse	0	0.259	n/a	7	69	ButtonPress	MissedWin	True
657.323	1.45	Win2	0.6	n/a	No	3.226	n/a	n/a	NoResponse	0	n/a	n/a	7	69	Feedback	MissedWin	True
658.772	3.226	Win2	0.6	n/a	No	3.226	n/a	n/a	NoResponse	0	0.0	n/a	7	69	ISIslide	MissedWin	True
662.021	0.25	Lose2	0.6056	0.0	Yes	3.029	0.021	n/a	GoodResponse	0	n/a	n/a	7	70	Cue	AvoidedLoss	True
662.271	4.05	Lose2	0.6056	0.0	Yes	3.029	0.0	n/a	GoodResponse	0	n/a	n/a	7	70	Fixation	AvoidedLoss	True
666.32	0.26	Lose2	0.6056	0.001	Yes	3.029	-0.001	4.0	GoodResponse	0	0.198	665.518	7	70	Target	AvoidedLoss	True
666.518	0.3	Lose2	0.6056	0.001	Yes	3.029	-0.001	4.0	GoodResponse	0	0.198	n/a	7	70	ButtonPress	AvoidedLoss	True
666.586	0.44	Lose2	0.6056	n/a	Yes	3.029	n/a	n/a	GoodResponse	0	n/a	n/a	7	70	Blank	AvoidedLoss	True
667.019	1.45	Lose2	0.6056	n/a	Yes	3.029	n/a	n/a	GoodResponse	0	n/a	n/a	7	70	Feedback	AvoidedLoss	True
668.469	3.029	Lose2	0.6056	n/a	Yes	3.029	n/a	n/a	GoodResponse	0	0.0	n/a	7	70	ISIslide	AvoidedLoss	True
671.518	0.25	Win2	0.6111	0.0	Yes	2.732	0.018	n/a	GoodResponse	1	n/a	n/a	8	71	Cue	Win	True
671.768	4.05	Win2	0.6111	0.0	Yes	2.732	0.0	n/a	GoodResponse	1	n/a	n/a	8	71	Fixation	Win	True
675.816	0.27	Win2	0.6111	0.002	Yes	2.732	-0.002	4.0	GoodResponse	1	0.193	675.009	8	71	Target	Win	True
676.009	0.3	Win2	0.6111	0.002	Yes	2.732	-0.002	4.0	GoodResponse	1	0.193	n/a	8	71	ButtonPress	Win	True
676.099	0.43	Win2	0.6111	n/a	Yes	2.732	n/a	n/a	GoodResponse	1	n/a	n/a	8	71	Blank	Win	True
676.516	1.45	Win2	0.6111	n/a	Yes	2.732	n/a	5.0	GoodResponse	1	0.481	675.997	8	71	Feedback	Win	True
677.965	2.732	Win2	0.6111	n/a	Yes	2.732	n/a	n/a	GoodResponse	1	0.0	n/a	8	71	ISIslide	Win	True
680.715	0.25	Win2	0.6027	0.0	No	2.785	0.015	n/a	NoResponse	0	n/a	n/a	8	72	Cue	MissedWin	True
680.964	4.1	Win2	0.6027	0.001	No	2.785	-0.001	n/a	NoResponse	0	n/a	n/a	8	72	Fixation	MissedWin	True
685.063	0.28	Win2	0.6027	0.002	No	2.785	-0.002	4.0	NoResponse	0	0.291	684.354	8	72	Target	MissedWin	True
685.346	0.42	Win2	0.6027	n/a	No	2.785	n/a	n/a	NoResponse	0	n/a	n/a	8	72	Blank	MissedWin	True
685.354	0.3	Win2	0.6027	0.002	No	2.785	-0.002	4.0	NoResponse	0	0.291	n/a	8	72	ButtonPress	MissedWin	True
685.763	1.45	Win2	0.6027	n/a	No	2.785	n/a	5.0	NoResponse	0	1.233	685.996	8	72	Feedback	MissedWin	True
687.212	2.785	Win2	0.6027	n/a	No	2.785	n/a	n/a	NoResponse	0	0.0	n/a	8	72	ISIslide	MissedWin	True
690.028	0.25	Win2	0.6081	0.0	Yes	2.672	0.028	n/a	GoodResponse	1	n/a	n/a	9	73	Cue	Win	True
690.278	4.0	Win2	0.6081	0.0	Yes	2.672	0.0	n/a	GoodResponse	1	n/a	n/a	9	73	Fixation	Win	True
694.276	0.29	Win2	0.6081	0.002	Yes	2.672	-0.002	4.0	GoodResponse	1	0.213	693.489	9	73	Target	Win	True
694.489	0.3	Win2	0.6081	0.002	Yes	2.672	-0.002	4.0	GoodResponse	1	0.213	n/a	9	73	ButtonPress	Win	True
694.576	0.41	Win2	0.6081	n/a	Yes	2.672	n/a	n/a	GoodResponse	1	n/a	n/a	9	73	Blank	Win	True
694.976	1.45	Win2	0.6081	n/a	Yes	2.672	n/a	5.0	GoodResponse	1	0.02	693.996	9	73	Feedback	Win	True
696.426	2.672	Win2	0.6081	n/a	Yes	2.672	n/a	n/a	GoodResponse	1	0.0	n/a	9	73	ISIslide	Win	True
699.125	0.25	Lose2	0.6133	0.0	Yes	2.625	0.025	n/a	GoodResponse	0	n/a	n/a	9	74	Cue	AvoidedLoss	True
699.375	4.05	Lose2	0.6133	0.0	Yes	2.625	0.0	n/a	GoodResponse	0	n/a	n/a	9	74	Fixation	AvoidedLoss	True
703.423	0.3	Lose2	0.6133	0.002	Yes	2.625	-0.002	4.0	GoodResponse	0	0.237	702.66	9	74	Target	AvoidedLoss	True
703.66	0.3	Lose2	0.6133	0.002	Yes	2.625	-0.002	4.0	GoodResponse	0	0.237	n/a	9	74	ButtonPress	AvoidedLoss	True
703.723	0.4	Lose2	0.6133	n/a	Yes	2.625	n/a	n/a	GoodResponse	0	n/a	n/a	9	74	Blank	AvoidedLoss	True
704.123	1.45	Lose2	0.6133	n/a	Yes	2.625	n/a	5.0	GoodResponse	0	0.873	703.996	9	74	Feedback	AvoidedLoss	True
705.572	2.625	Lose2	0.6133	n/a	Yes	2.625	n/a	n/a	GoodResponse	0	0.0	n/a	9	74	ISIslide	AvoidedLoss	True
708.221	0.25	Lose2	0.6184000000000001	0.001	Yes	2.929	0.021	n/a	GoodResponse	0	n/a	n/a	9	75	Cue	AvoidedLoss	True
708.471	3.95	Lose2	0.6184000000000001	0.0	Yes	2.929	0.0	n/a	GoodResponse	0	n/a	n/a	9	75	Fixation	AvoidedLoss	True
712.42	0.31	Lose2	0.6184000000000001	0.001	Yes	2.929	-0.001	4.0	GoodResponse	0	0.24	711.66	9	75	Target	AvoidedLoss	True
712.66	0.3	Lose2	0.6184000000000001	0.001	Yes	2.929	-0.001	4.0	GoodResponse	0	0.24	n/a	9	75	ButtonPress	AvoidedLoss	True
712.737	0.39	Lose2	0.6184000000000001	n/a	Yes	2.929	n/a	n/a	GoodResponse	0	n/a	n/a	9	75	Blank	AvoidedLoss	True
713.12	1.45	Lose2	0.6184000000000001	n/a	Yes	2.929	n/a	n/a	GoodResponse	0	n/a	n/a	9	75	Feedback	AvoidedLoss	True
714.569	2.929	Lose2	0.6184000000000001	n/a	Yes	2.929	n/a	n/a	GoodResponse	0	0.0	n/a	9	75	ISIslide	AvoidedLoss	True
717.518	0.25	Control	0.6234000000000001	0.0	Yes	3.232	0.018	n/a	GoodResponse	0	n/a	n/a	9	76	Cue	Neutral	True
717.768	4.05	Control	0.6234000000000001	0.0	Yes	3.232	0.0	n/a	GoodResponse	0	n/a	n/a	9	76	Fixation	Neutral	True
721.817	0.32	Control	0.6234000000000001	0.001	Yes	3.232	-0.001	4.0	GoodResponse	0	0.204	721.021	9	76	Target	Neutral	True
722.021	0.3	Control	0.6234000000000001	0.001	Yes	3.232	-0.001	4.0	GoodResponse	0	0.204	n/a	9	76	ButtonPress	Neutral	True
722.15	0.38	Control	0.6234000000000001	n/a	Yes	3.232	n/a	n/a	GoodResponse	0	n/a	n/a	9	76	Blank	Neutral	True
722.516	1.45	Control	0.6234000000000001	n/a	Yes	3.232	n/a	5.0	GoodResponse	0	0.48	721.996	9	76	Feedback	Neutral	True
723.966	3.232	Control	0.6234000000000001	n/a	Yes	3.232	n/a	n/a	GoodResponse	0	0.0	n/a	9	76	ISIslide	Neutral	True
727.215	0.25	Lose2	0.6282	0.0	Yes	2.585	0.015	n/a	GoodResponse	0	n/a	n/a	9	77	Cue	AvoidedLoss	True
727.465	3.95	Lose2	0.6282	0.0	Yes	2.585	0.0	n/a	GoodResponse	0	n/a	n/a	9	77	Fixation	AvoidedLoss	True
731.413	0.33	Lose2	0.6282	0.002	Yes	2.585	-0.002	4.0	GoodResponse	0	0.241	730.654	9	77	Target	AvoidedLoss	True
731.654	0.3	Lose2	0.6282	0.002	Yes	2.585	-0.002	4.0	GoodResponse	0	0.241	n/a	9	77	ButtonPress	AvoidedLoss	True
731.747	0.37	Lose2	0.6282	n/a	Yes	2.585	n/a	n/a	GoodResponse	0	n/a	n/a	9	77	Blank	AvoidedLoss	True
732.113	1.45	Lose2	0.6282	n/a	Yes	2.585	n/a	n/a	GoodResponse	0	n/a	n/a	9	77	Feedback	AvoidedLoss	True
733.563	2.585	Lose2	0.6282	n/a	Yes	2.585	n/a	n/a	GoodResponse	0	0.0	n/a	9	77	ISIslide	AvoidedLoss	True
