onset	duration	cue_type	current_mean_accuracy	duration_error	is_hit	isi_adjusted	onset_delay	response	response_type	reward	rt	rt_time	total_reward	trial_number	trial_phase	trial_type	one_press
11.101	0.25	Control	1.0	0.0	Yes	2.949	0.001	n/a	GoodResponse	0	n/a	n/a	0	0	Cue	Neutral	True
11.35	3.85	Control	1.0	0.001	Yes	2.949	-0.001	n/a	GoodResponse	0	n/a	n/a	0	0	Fixation	Neutral	True
15.199	0.4	Control	1.0	0.002	Yes	2.949	-0.002	4.0	GoodResponse	0	0.255	14.454	0	0	Target	Neutral	True
15.454	0.3	Control	1.0	0.002	Yes	2.949	-0.002	4.0	GoodResponse	0	0.255	n/a	0	0	ButtonPress	Neutral	True
15.599	0.3	Control	1.0	n/a	Yes	2.949	n/a	n/a	GoodResponse	0	n/a	n/a	0	0	Blank	Neutral	True
15.899	1.45	Control	1.0	n/a	Yes	2.949	n/a	5.0	GoodResponse	0	0.028	14.927	0	0	Feedback	Neutral	True
17.348	2.949	Control	1.0	n/a	Yes	2.949	n/a	n/a	GoodResponse	0	0.0	n/a	0	0	ISIslide	Neutral	True
20.314	0.25	Lose2	1.0	0.0	Yes	2.786	0.014	n/a	GoodResponse	0	n/a	n/a	0	1	Cue	AvoidedLoss	True
20.564	4.0	Lose2	1.0	0.0	Yes	2.786	0.0	n/a	GoodResponse	0	n/a	n/a	0	1	Fixation	AvoidedLoss	True
24.563	0.39	Lose2	1.0	0.001	Yes	2.786	-0.001	4.0	GoodResponse	0	0.194	23.757	0	1	Target	AvoidedLoss	True
24.757	0.3	Lose2	1.0	0.001	Yes	2.786	-0.001	4.0	GoodResponse	0	0.194	n/a	0	1	ButtonPress	AvoidedLoss	True
24.962	0.31	Lose2	1.0	n/a	Yes	2.786	n/a	n/a	GoodResponse	0	n/a	n/a	0	1	Blank	AvoidedLoss	True
25.262	1.45	Lose2	1.0	n/a	Yes	2.786	n/a	5.0	GoodResponse	0	0.031	24.293	0	1	Feedback	AvoidedLoss	True
26.712	2.786	Lose2	1.0	n/a	Yes	2.786	n/a	n/a	GoodResponse	0	0.0	n/a	0	1	ISIslide	AvoidedLoss	True
29.511	0.25	Control	1.0	0.0	Yes	2.589	0.011	n/a	GoodResponse	0	n/a	n/a	0	2	Cue	Neutral	True
29.761	4.1	Control	1.0	0.0	Yes	2.589	0.0	n/a	GoodResponse	0	n/a	n/a	0	2	Fixation	Neutral	True
33.859	0.38	Control	1.0	0.002	Yes	2.589	-0.002	4.0	GoodResponse	0	0.201	33.06	0	2	Target	Neutral	True
34.06	0.3	Control	1.0	0.002	Yes	2.589	-0.002	4.0	GoodResponse	0	0.201	n/a	0	2	ButtonPress	Neutral	True
34.243	0.32	Control	1.0	n/a	Yes	2.589	n/a	n/a	GoodResponse	0	n/a	n/a	0	2	Blank	Neutral	True
34.559	1.45	Control	1.0	n/a	Yes	2.589	n/a	5.0	GoodResponse	0	0.002	33.561	0	2	Feedback	Neutral	True
36.009	2.589	Control	1.0	n/a	Yes	2.589	n/a	n/a	GoodResponse	0	0.0	n/a	0	2	ISIslide	Neutral	True
38.624	0.25	Win2	1.0	0.001	Yes	2.826	0.024	n/a	GoodResponse	1	n/a	n/a	1	3	Cue	Win	True
38.874	3.95	Win2	1.0	0.0	Yes	2.826	0.0	n/a	GoodResponse	1	n/a	n/a	1	3	Fixation	Win	True
42.823	0.37	Win2	1.0	0.001	Yes	2.826	-0.001	4.0	GoodResponse	1	0.245	42.068	1	3	Target	Win	True
43.068	0.3	Win2	1.0	0.001	Yes	2.826	-0.001	4.0	GoodResponse	1	0.245	n/a	1	3	ButtonPress	Win	True
43.19	0.33	Win2	1.0	n/a	Yes	2.826	n/a	n/a	GoodResponse	1	n/a	n/a	1	3	Blank	Win	True
43.523	1.45	Win2	1.0	n/a	Yes	2.826	n/a	5.0	GoodResponse	1	0.013	42.536	1	3	Feedback	Win	True
44.972	2.826	Win2	1.0	n/a	Yes	2.826	n/a	n/a	GoodResponse	1	0.0	n/a	1	3	ISIslide	Win	True
47.821	0.25	Win2	1.0	0.0	Yes	3.279	0.021	n/a	GoodResponse	1	n/a	n/a	2	4	Cue	Win	False
48.071	4.0	Win2	1.0	0.0	Yes	3.279	0.0	4.0	GoodResponse	1	3.714	50.785	2	4	Fixation	Win	False
51.785	0.3	Win2	1.0	0.0	Yes	3.279	0.0	4.0	GoodResponse	1	3.714	n/a	2	4	ButtonPress	Win	False
52.07	0.36	Win2	1.0	0.001	Yes	3.279	-0.001	4.0	GoodResponse	1	0.166	51.236	2	4	Target	Win	False
52.236	0.3	Win2	1.0	0.001	Yes	3.279	-0.001	4.0	GoodResponse	1	0.166	n/a	2	4	ButtonPress	Win	False
52.436	0.34	Win2	1.0	n/a	Yes	3.279	n/a	n/a	GoodResponse	1	n/a	n/a	2	4	Blank	Win	False
52.77	1.45	Win2	1.0	n/a	Yes	3.279	n/a	5.0	GoodResponse	1	0.034	51.804	2	4	Feedback	Win	False
54.219	3.279	Win2	1.0	n/a	Yes	3.279	n/a	n/a	GoodResponse	1	0.0	n/a	2	4	ISIslide	Win	False
57.518	0.25	Win2	1.0	0.0	Yes	2.782	0.018	n/a	GoodResponse	1	n/a	n/a	3	5	Cue	Win	True
57.768	4.0	Win2	1.0	0.0	Yes	2.782	0.0	n/a	GoodResponse	1	n/a	n/a	3	5	Fixation	Win	True
61.767	0.35	Win2	1.0	0.001	Yes	2.782	-0.001	4.0	GoodResponse	1	0.285	61.052	3	5	Target	Win	True
62.052	0.3	Win2	1.0	0.001	Yes	2.782	-0.001	4.0	GoodResponse	1	0.285	n/a	3	5	ButtonPress	Win	True
62.116	0.35	Win2	1.0	n/a	Yes	2.782	n/a	n/a	GoodResponse	1	n/a	n/a	3	5	Blank	Win	True
62.466	1.45	Win2	1.0	n/a	Yes	2.782	n/a	5.0	GoodResponse	1	0.046	61.512	3	5	Feedback	Win	True
63.916	2.782	Win2	1.0	n/a	Yes	2.782	n/a	n/a	GoodResponse	1	0.0	n/a	3	5	ISIslide	Win	True
66.715	0.25	Lose2	1.0	0.0	Yes	2.735	0.015	n/a	GoodResponse	0	n/a	n/a	3	6	Cue	AvoidedLoss	True
66.965	3.95	Lose2	1.0	0.0	Yes	2.735	0.0	n/a	GoodResponse	0	n/a	n/a	3	6	Fixation	AvoidedLoss	True
70.913	0.34	Lose2	1.0	0.002	Yes	2.735	-0.002	4.0	GoodResponse	0	0.19	70.103	3	6	Target	AvoidedLoss	True
71.103	0.3	Lose2	1.0	0.002	Yes	2.735	-0.002	4.0	GoodResponse	0	0.19	n/a	3	6	ButtonPress	AvoidedLoss	True
71.263	0.36	Lose2	1.0	n/a	Yes	2.735	n/a	n/a	GoodResponse	0	n/a	n/a	3	6	Blank	AvoidedLoss	True
71.613	1.45	Lose2	1.0	n/a	Yes	2.735	n/a	5.0	GoodResponse	0	0.021	70.634	3	6	Feedback	AvoidedLoss	True
73.063	2.735	Lose2	1.0	n/a	Yes	2.735	n/a	n/a	GoodResponse	0	0.0	n/a	3	6	ISIslide	AvoidedLoss	True
75.812	0.25	Lose2	1.0	0.0	Yes	4.038	0.012	n/a	GoodResponse	0	n/a	n/a	3	7	Cue	AvoidedLoss	True
76.062	4.05	Lose2	1.0	0.0	Yes	4.038	0.0	n/a	GoodResponse	0	n/a	n/a	3	7	Fixation	AvoidedLoss	True
80.11	0.33	Lose2	1.0	0.002	Yes	4.038	-0.002	4.0	GoodResponse	0	0.172	79.282	3	7	Target	AvoidedLoss	True
80.282	0.3	Lose2	1.0	0.002	Yes	4.038	-0.002	4.0	GoodResponse	0	0.172	n/a	3	7	ButtonPress	AvoidedLoss	True
80.443	0.37	Lose2	1.0	n/a	Yes	4.038	n/a	n/a	GoodResponse	0	n/a	n/a	3	7	Blank	AvoidedLoss	True
80.81	1.45	Lose2	1.0	n/a	Yes	4.038	n/a	5.0	GoodResponse	0	0.043	79.853	3	7	Feedback	AvoidedLoss	True
82.26	4.038	Lose2	1.0	n/a	Yes	4.038	n/a	n/a	GoodResponse	0	0.0	n/a	3	7	ISIslide	AvoidedLoss	True
86.325	0.25	Lose2	1.0	0.0	Yes	3.025	0.025	n/a	GoodResponse	0	n/a	n/a	3	8	Cue	AvoidedLoss	True
86.575	3.95	Lose2	1.0	0.0	Yes	3.025	0.0	n/a	GoodResponse	0	n/a	n/a	3	8	Fixation	AvoidedLoss	True
90.523	0.32	Lose2	1.0	0.002	Yes	3.025	-0.002	4.0	GoodResponse	0	0.22	89.743	3	8	Target	AvoidedLoss	True
90.743	0.3	Lose2	1.0	0.002	Yes	3.025	-0.002	4.0	GoodResponse	0	0.22	n/a	3	8	ButtonPress	AvoidedLoss	True
90.857	0.38	Lose2	1.0	n/a	Yes	3.025	n/a	n/a	GoodResponse	0	n/a	n/a	3	8	Blank	AvoidedLoss	True
91.223	1.45	Lose2	1.0	n/a	Yes	3.025	n/a	5.0	GoodResponse	0	0.021	90.244	3	8	Feedback	AvoidedLoss	True
92.673	3.025	Lose2	1.0	n/a	Yes	3.025	n/a	n/a	GoodResponse	0	0.0	n/a	3	8	ISIslide	AvoidedLoss	True
95.722	0.25	Lose2	1.0	0.0	Yes	3.128	0.022	n/a	GoodResponse	0	n/a	n/a	3	9	Cue	AvoidedLoss	True
95.972	3.95	Lose2	1.0	0.0	Yes	3.128	0.0	n/a	GoodResponse	0	n/a	n/a	3	9	Fixation	AvoidedLoss	True
99.92	0.31	Lose2	1.0	0.002	Yes	3.128	-0.002	4.0	GoodResponse	0	0.194	99.114	3	9	Target	AvoidedLoss	True
100.114	0.3	Lose2	1.0	0.002	Yes	3.128	-0.002	4.0	GoodResponse	0	0.194	n/a	3	9	ButtonPress	AvoidedLoss	True
100.237	0.39	Lose2	1.0	n/a	Yes	3.128	n/a	n/a	GoodResponse	0	n/a	n/a	3	9	Blank	AvoidedLoss	True
100.62	1.45	Lose2	1.0	n/a	Yes	3.128	n/a	5.0	GoodResponse	0	0.038	99.658	3	9	Feedback	AvoidedLoss	True
102.069	3.128	Lose2	1.0	n/a	Yes	3.128	n/a	n/a	GoodResponse	0	0.0	n/a	3	9	ISIslide	AvoidedLoss	True
105.218	0.25	Control	1.0	0.0	Yes	3.282	0.018	n/a	GoodResponse	0	n/a	n/a	3	10	Cue	Neutral	True
105.468	4.0	Control	1.0	0.0	Yes	3.282	0.0	n/a	GoodResponse	0	n/a	n/a	3	10	Fixation	Neutral	True
109.467	0.3	Control	1.0	0.001	Yes	3.282	-0.001	4.0	GoodResponse	0	0.276	108.743	3	10	Target	Neutral	True
109.743	0.3	Control	1.0	0.001	Yes	3.282	-0.001	4.0	GoodResponse	0	0.276	n/a	3	10	ButtonPress	Neutral	True
109.767	0.4	Control	1.0	n/a	Yes	3.282	n/a	n/a	GoodResponse	0	n/a	n/a	3	10	Blank	Neutral	True
110.167	1.45	Control	1.0	n/a	Yes	3.282	n/a	5.0	GoodResponse	0	0.004	109.171	3	10	Feedback	Neutral	True
111.616	3.282	Control	1.0	n/a	Yes	3.282	n/a	n/a	GoodResponse	0	0.0	n/a	3	10	ISIslide	Neutral	True
114.915	0.25	Lose2	1.0	0.0	Yes	2.735	0.015	n/a	GoodResponse	0	n/a	n/a	3	11	Cue	AvoidedLoss	True
115.165	4.05	Lose2	1.0	0.0	Yes	2.735	0.0	n/a	GoodResponse	0	n/a	n/a	3	11	Fixation	AvoidedLoss	True
119.214	0.29	Lose2	1.0	0.001	Yes	2.735	-0.001	4.0	GoodResponse	0	0.198	118.412	3	11	Target	AvoidedLoss	True
119.412	0.3	Lose2	1.0	0.001	Yes	2.735	-0.001	4.0	GoodResponse	0	0.198	n/a	3	11	ButtonPress	AvoidedLoss	True
119.513	0.41	Lose2	1.0	n/a	Yes	2.735	n/a	n/a	GoodResponse	0	n/a	n/a	3	11	Blank	AvoidedLoss	True
119.913	1.45	Lose2	1.0	n/a	Yes	2.735	n/a	5.0	GoodResponse	0	0.013	118.926	3	11	Feedback	AvoidedLoss	True
121.363	2.735	Lose2	1.0	n/a	Yes	2.735	n/a	n/a	GoodResponse	0	0.0	n/a	3	11	ISIslide	AvoidedLoss	True
124.112	0.25	Control	1.0	0.0	Yes	2.988	0.012	n/a	GoodResponse	0	n/a	n/a	3	12	Cue	Neutral	True
124.362	3.9	Control	1.0	0.0	Yes	2.988	0.0	n/a	GoodResponse	0	n/a	n/a	3	12	Fixation	Neutral	True
128.26	0.28	Control	1.0	0.002	Yes	2.988	-0.002	4.0	GoodResponse	0	0.23	127.49	3	12	Target	Neutral	True
128.49	0.3	Control	1.0	0.002	Yes	2.988	-0.002	4.0	GoodResponse	0	0.23	n/a	3	12	ButtonPress	Neutral	True
128.544	0.42	Control	1.0	n/a	Yes	2.988	n/a	n/a	GoodResponse	0	n/a	n/a	3	12	Blank	Neutral	True
128.96	1.45	Control	1.0	n/a	Yes	2.988	n/a	5.0	GoodResponse	0	0.039	127.999	3	12	Feedback	Neutral	True
130.41	2.988	Control	1.0	n/a	Yes	2.988	n/a	n/a	GoodResponse	0	0.0	n/a	3	12	ISIslide	Neutral	True
133.425	0.25	Control	0.9286	0.0	No	2.775	0.025	n/a	NoResponse	0	n/a	n/a	3	13	Cue	Neutral	True
133.675	4.0	Control	0.9286	0.0	No	2.775	0.0	4.0	NoResponse	0	3.395	136.07	3	13	Fixation	Neutral	True
137.07	0.3	Control	0.9286	0.0	No	2.775	0.0	4.0	NoResponse	0	3.395	n/a	3	13	ButtonPress	Neutral	True
137.674	0.27	Control	0.9286	0.001	No	2.775	-0.001	n/a	NoResponse	0	n/a	n/a	3	13	Target	Neutral	True
137.94	0.43	Control	0.9286	n/a	No	2.775	n/a	n/a	NoResponse	0	n/a	n/a	3	13	Blank	Neutral	True
138.374	1.45	Control	0.9286	n/a	No	2.775	n/a	5.0	NoResponse	0	0.04	137.414	3	13	Feedback	Neutral	True
139.823	2.775	Control	0.9286	n/a	No	2.775	n/a	n/a	NoResponse	0	0.0	n/a	3	13	ISIslide	Neutral	True
142.622	0.25	Win2	0.9333	0.0	Yes	2.678	0.022	n/a	GoodResponse	1	n/a	n/a	4	14	Cue	Win	True
142.872	4.1	Win2	0.9333	0.0	Yes	2.678	0.0	n/a	GoodResponse	1	n/a	n/a	4	14	Fixation	Win	True
146.971	0.26	Win2	0.9333	0.001	Yes	2.678	-0.001	4.0	GoodResponse	1	0.174	146.145	4	14	Target	Win	True
147.145	0.3	Win2	0.9333	0.001	Yes	2.678	-0.001	4.0	GoodResponse	1	0.174	n/a	4	14	ButtonPress	Win	True
147.237	0.44	Win2	0.9333	n/a	Yes	2.678	n/a	n/a	GoodResponse	1	n/a	n/a	4	14	Blank	Win	True
147.67	1.45	Win2	0.9333	n/a	Yes	2.678	n/a	5.0	GoodResponse	1	0.012	146.682	4	14	Feedback	Win	True
149.12	2.678	Win2	0.9333	n/a	Yes	2.678	n/a	n/a	GoodResponse	1	0.0	n/a	4	14	ISIslide	Win	True
151.819	0.25	Control	0.9375	0.0	Yes	2.981	0.019	n/a	GoodResponse	0	n/a	n/a	4	15	Cue	Neutral	True
152.069	4.0	Control	0.9375	0.0	Yes	2.981	0.0	n/a	GoodResponse	0	n/a	n/a	4	15	Fixation	Neutral	True
156.068	0.25	Control	0.9375	0.001	Yes	2.981	-0.001	4.0	GoodResponse	0	0.169	155.237	4	15	Target	Neutral	True
156.237	0.3	Control	0.9375	0.001	Yes	2.981	-0.001	4.0	GoodResponse	0	0.169	n/a	4	15	ButtonPress	Neutral	True
156.318	0.45	Control	0.9375	n/a	Yes	2.981	n/a	n/a	GoodResponse	0	n/a	n/a	4	15	Blank	Neutral	True
156.767	1.45	Control	0.9375	n/a	Yes	2.981	n/a	5.0	GoodResponse	0	0.037	155.804	4	15	Feedback	Neutral	True
158.217	2.981	Control	0.9375	n/a	Yes	2.981	n/a	n/a	GoodResponse	0	0.0	n/a	4	15	ISIslide	Neutral	True
161.216	0.25	Win2	0.8824	0.0	No	2.884	0.016	n/a	NoResponse	0	n/a	n/a	4	16	Cue	MissedWin	True
161.466	4.0	Win2	0.8824	0.0	No	2.884	0.0	n/a	NoResponse	0	n/a	n/a	4	16	Fixation	MissedWin	True
165.464	0.24	Win2	0.8824	0.002	No	2.884	-0.002	4.0	NoResponse	0	0.44	164.904	4	16	Target	MissedWin	True
165.714	0.46	Win2	0.8824	n/a	No	2.884	n/a	n/a	NoResponse	0	n/a	n/a	4	16	Blank	MissedWin	True
165.904	0.3	Win2	0.8824	0.002	No	2.884	-0.002	4.0	NoResponse	0	0.44	n/a	4	16	ButtonPress	MissedWin	True
166.164	1.45	Win2	0.8824	n/a	No	2.884	n/a	5.0	NoResponse	0	0.006	165.17	4	16	Feedback	MissedWin	True
167.614	2.884	Win2	0.8824	n/a	No	2.884	n/a	n/a	NoResponse	0	0.0	n/a	4	16	ISIslide	MissedWin	True
170.513	0.25	Lose2	0.8889	0.0	Yes	2.737	0.013	n/a	GoodResponse	0	n/a	n/a	4	17	Cue	AvoidedLoss	True
170.763	3.95	Lose2	0.8889	0.0	Yes	2.737	0.0	n/a	GoodResponse	0	n/a	n/a	4	17	Fixation	AvoidedLoss	True
174.711	0.23	Lose2	0.8889	0.002	Yes	2.737	-0.002	4.0	GoodResponse	0	0.184	173.895	4	17	Target	AvoidedLoss	True
174.895	0.3	Lose2	0.8889	0.002	Yes	2.737	-0.002	4.0	GoodResponse	0	0.184	n/a	4	17	ButtonPress	AvoidedLoss	True
174.944	0.47	Lose2	0.8889	n/a	Yes	2.737	n/a	n/a	GoodResponse	0	n/a	n/a	4	17	Blank	AvoidedLoss	True
175.411	1.45	Lose2	0.8889	n/a	Yes	2.737	n/a	5.0	GoodResponse	0	0.028	174.439	4	17	Feedback	AvoidedLoss	True
176.86	2.737	Lose2	0.8889	n/a	Yes	2.737	n/a	n/a	GoodResponse	0	0.0	n/a	4	17	ISIslide	AvoidedLoss	True
179.626	0.25	Lose2	0.8946999999999999	0.0	Yes	2.724	0.026	n/a	GoodResponse	0	n/a	n/a	4	18	Cue	AvoidedLoss	True
179.876	4.05	Lose2	0.8946999999999999	0.0	Yes	2.724	0.0	n/a	GoodResponse	0	n/a	n/a	4	18	Fixation	AvoidedLoss	True
183.925	0.22	Lose2	0.8946999999999999	0.001	Yes	2.724	-0.001	4.0	GoodResponse	0	0.176	183.101	4	18	Target	AvoidedLoss	True
184.101	0.3	Lose2	0.8946999999999999	0.001	Yes	2.724	-0.001	4.0	GoodResponse	0	0.176	n/a	4	18	ButtonPress	AvoidedLoss	True
184.158	0.48	Lose2	0.8946999999999999	n/a	Yes	2.724	n/a	n/a	GoodResponse	0	n/a	n/a	4	18	Blank	AvoidedLoss	True
184.624	1.45	Lose2	0.8946999999999999	n/a	Yes	2.724	n/a	5.0	GoodResponse	0	0.034	183.658	4	18	Feedback	AvoidedLoss	True
186.074	2.724	Lose2	0.8946999999999999	n/a	Yes	2.724	n/a	n/a	GoodResponse	0	0.0	n/a	4	18	ISIslide	AvoidedLoss	True
188.823	0.25	Control	0.85	0.0	No	2.927	0.023	n/a	NoResponse	0	n/a	n/a	4	19	Cue	Neutral	True
189.073	3.95	Control	0.85	0.0	No	2.927	0.0	n/a	NoResponse	0	n/a	n/a	4	19	Fixation	Neutral	True
193.022	0.21	Control	0.85	0.001	No	2.927	-0.001	4.0	NoResponse	0	0.221	192.243	4	19	Target	Neutral	True
193.238	0.49	Control	0.85	n/a	No	2.927	n/a	n/a	NoResponse	0	n/a	n/a	4	19	Blank	Neutral	True
193.243	0.3	Control	0.85	0.001	No	2.927	-0.001	4.0	NoResponse	0	0.221	n/a	4	19	ButtonPress	Neutral	True
193.721	1.45	Control	0.85	n/a	No	2.927	n/a	5.0	NoResponse	0	0.01	192.731	4	19	Feedback	Neutral	True
195.171	2.927	Control	0.85	n/a	No	2.927	n/a	n/a	NoResponse	0	0.0	n/a	4	19	ISIslide	Neutral	True
198.12	0.25	Control	0.8095	0.0	No	2.63	0.02	n/a	NoResponse	0	n/a	n/a	4	20	Cue	Neutral	True
198.37	4.05	Control	0.8095	0.0	No	2.63	0.0	n/a	NoResponse	0	n/a	n/a	4	20	Fixation	Neutral	True
202.418	0.2	Control	0.8095	0.002	No	2.63	-0.002	4.0	NoResponse	0	0.245	201.663	4	20	Target	Neutral	True
202.618	0.5	Control	0.8095	n/a	No	2.63	n/a	n/a	NoResponse	0	n/a	n/a	4	20	Blank	Neutral	True
202.663	0.3	Control	0.8095	0.002	No	2.63	-0.002	4.0	NoResponse	0	0.245	n/a	4	20	ButtonPress	Neutral	True
203.118	1.45	Control	0.8095	n/a	No	2.63	n/a	5.0	NoResponse	0	0.028	202.146	4	20	Feedback	Neutral	True
204.568	2.63	Control	0.8095	n/a	No	2.63	n/a	n/a	NoResponse	0	0.0	n/a	4	20	ISIslide	Neutral	True
207.217	0.25	Control	0.7726999999999999	0.0	No	2.783	0.017	n/a	NoResponse	0	n/a	n/a	4	21	Cue	Neutral	True
207.467	4.1	Control	0.7726999999999999	0.0	No	2.783	0.0	n/a	NoResponse	0	n/a	n/a	4	21	Fixation	Neutral	True
211.565	0.19	Control	0.7726999999999999	0.002	No	2.783	-0.002	4.0	NoResponse	0	0.291	210.856	4	21	Target	Neutral	True
211.765	0.51	Control	0.7726999999999999	n/a	No	2.783	n/a	n/a	NoResponse	0	n/a	n/a	4	21	Blank	Neutral	True
211.856	0.3	Control	0.7726999999999999	0.002	No	2.783	-0.002	4.0	NoResponse	0	0.291	n/a	4	21	ButtonPress	Neutral	True
212.265	1.45	Control	0.7726999999999999	n/a	No	2.783	n/a	5.0	NoResponse	0	0.004	211.269	4	21	Feedback	Neutral	True
213.715	2.783	Control	0.7726999999999999	n/a	No	2.783	n/a	n/a	NoResponse	0	0.0	n/a	4	21	ISIslide	Neutral	True
216.514	0.25	Control	0.7391	0.0	No	2.786	0.014	n/a	NoResponse	0	n/a	n/a	4	22	Cue	Neutral	True
216.763	4.0	Control	0.7391	0.001	No	2.786	-0.001	n/a	NoResponse	0	n/a	n/a	4	22	Fixation	Neutral	True
220.762	0.18	Control	0.7391	0.002	No	2.786	-0.002	4.0	NoResponse	0	0.207	219.969	4	22	Target	Neutral	True
220.945	0.52	Control	0.7391	n/a	No	2.786	n/a	n/a	NoResponse	0	n/a	n/a	4	22	Blank	Neutral	True
220.969	0.3	Control	0.7391	0.002	No	2.786	-0.002	4.0	NoResponse	0	0.207	n/a	4	22	ButtonPress	Neutral	True
221.462	1.45	Control	0.7391	n/a	No	2.786	n/a	5.0	NoResponse	0	0.025	220.487	4	22	Feedback	Neutral	True
222.911	2.786	Control	0.7391	n/a	No	2.786	n/a	n/a	NoResponse	0	0.0	n/a	4	22	ISIslide	Neutral	True
225.71	0.25	Control	0.7082999999999999	0.001	No	2.79	0.01	n/a	NoResponse	0	n/a	n/a	4	23	Cue	Neutral	True
225.96	3.9	Control	0.7082999999999999	0.0	No	2.79	0.0	n/a	NoResponse	0	n/a	n/a	4	23	Fixation	Neutral	True
229.859	0.17	Control	0.7082999999999999	0.001	No	2.79	-0.001	4.0	NoResponse	0	0.18	229.039	4	23	Target	Neutral	True
230.026	0.53	Control	0.7082999999999999	n/a	No	2.79	n/a	n/a	NoResponse	0	n/a	n/a	4	23	Blank	Neutral	True
230.039	0.3	Control	0.7082999999999999	0.001	No	2.79	-0.001	4.0	NoResponse	0	0.18	n/a	4	23	ButtonPress	Neutral	True
230.559	1.45	Control	0.7082999999999999	n/a	No	2.79	n/a	5.0	NoResponse	0	0.001	229.56	4	23	Feedback	Neutral	True
232.008	2.79	Control	0.7082999999999999	n/a	No	2.79	n/a	n/a	NoResponse	0	0.0	n/a	4	23	ISIslide	Neutral	True
234.824	0.25	Win2	0.68	0.0	No	3.126	0.024	n/a	NoResponse	0	n/a	n/a	4	24	Cue	MissedWin	True
235.074	3.95	Win2	0.68	0.0	No	3.126	0.0	n/a	NoResponse	0	n/a	n/a	4	24	Fixation	MissedWin	True
239.023	0.16	Win2	0.68	0.001	No	3.126	-0.001	4.0	NoResponse	0	0.19	238.213	4	24	Target	MissedWin	True
239.189	0.54	Win2	0.68	n/a	No	3.126	n/a	n/a	NoResponse	0	n/a	n/a	4	24	Blank	MissedWin	True
239.213	0.3	Win2	0.68	0.001	No	3.126	-0.001	4.0	NoResponse	0	0.19	n/a	4	24	ButtonPress	MissedWin	True
239.722	1.45	Win2	0.68	n/a	No	3.126	n/a	5.0	NoResponse	0	0.009	238.731	4	24	Feedback	MissedWin	True
241.172	3.126	Win2	0.68	n/a	No	3.126	n/a	n/a	NoResponse	0	0.0	n/a	4	24	ISIslide	MissedWin	True
244.321	0.25	Win2	0.6537999999999999	0.0	No	3.079	0.021	n/a	PrematurePress	0	n/a	n/a	4	25	Cue	MissedWin	False
244.571	4.0	Win2	0.6537999999999999	0.0	No	3.079	0.0	4.0	PrematurePress	0	3.495	247.066	4	25	Fixation	MissedWin	False
248.066	0.3	Win2	0.6537999999999999	0.0	No	3.079	0.0	4.0	PrematurePress	0	3.495	n/a	4	25	ButtonPress	MissedWin	False
248.569	0.15	Win2	0.6537999999999999	0.002	No	3.079	-0.002	4.0	PrematurePress	0	0.029	247.598	4	25	Target	MissedWin	False
248.598	0.3	Win2	0.6537999999999999	0.002	No	3.079	-0.002	4.0	PrematurePress	0	0.029	n/a	4	25	ButtonPress	MissedWin	False
248.719	0.55	Win2	0.6537999999999999	n/a	No	3.079	n/a	n/a	PrematurePress	0	n/a	n/a	4	25	Blank	MissedWin	False
249.269	1.45	Win2	0.6537999999999999	n/a	No	3.079	n/a	5.0	PrematurePress	0	0.023	248.292	4	25	Feedback	MissedWin	False
250.719	3.079	Win2	0.6537999999999999	n/a	No	3.079	n/a	n/a	PrematurePress	0	0.0	n/a	4	25	ISIslide	MissedWin	False
253.817	0.25	Win2	0.6296	0.001	No	2.933	0.017	n/a	NoResponse	0	n/a	n/a	4	26	Cue	MissedWin	True
254.067	3.95	Win2	0.6296	0.0	No	2.933	0.0	n/a	NoResponse	0	n/a	n/a	4	26	Fixation	MissedWin	True
258.016	0.16	Win2	0.6296	0.001	No	2.933	-0.001	4.0	NoResponse	0	0.197	257.213	4	26	Target	MissedWin	True
258.183	0.54	Win2	0.6296	n/a	No	2.933	n/a	n/a	NoResponse	0	n/a	n/a	4	26	Blank	MissedWin	True
258.213	0.3	Win2	0.6296	0.001	No	2.933	-0.001	4.0	NoResponse	0	0.197	n/a	4	26	ButtonPress	MissedWin	True
258.716	1.45	Win2	0.6296	n/a	No	2.933	n/a	5.0	NoResponse	0	0.04	257.756	4	26	Feedback	MissedWin	True
260.165	2.933	Win2	0.6296	n/a	No	2.933	n/a	n/a	NoResponse	0	0.0	n/a	4	26	ISIslide	MissedWin	True
263.114	0.25	Lose2	0.6071	0.0	No	2.836	0.014	n/a	PrematurePress	-1	n/a	n/a	3	27	Cue	Loss	False
263.364	4.05	Lose2	0.6071	0.0	No	2.836	0.0	4.0	PrematurePress	-1	3.658	266.022	3	27	Fixation	Loss	False
267.022	0.3	Lose2	0.6071	0.0	No	2.836	0.0	4.0	PrematurePress	-1	3.658	n/a	3	27	ButtonPress	Loss	False
267.413	0.17	Lose2	0.6071	0.001	No	2.836	-0.001	4.0	PrematurePress	-1	0.099	266.512	3	27	Target	Loss	False
267.512	0.3	Lose2	0.6071	0.001	No	2.836	-0.001	4.0	PrematurePress	-1	0.099	n/a	3	27	ButtonPress	Loss	False
267.579	0.53	Lose2	0.6071	n/a	No	2.836	n/a	n/a	PrematurePress	-1	n/a	n/a	3	27	Blank	Loss	False
268.113	1.45	Lose2	0.6071	n/a	No	2.836	n/a	5.0	PrematurePress	-1	0.008	267.121	3	27	Feedback	Loss	False
269.562	2.836	Lose2	0.6071	n/a	No	2.836	n/a	n/a	PrematurePress	-1	0.0	n/a	3	27	ISIslide	Loss	False
272.411	0.25	Control	0.5861999999999999	0.0	No	2.839	0.011	n/a	NoResponse	0	n/a	n/a	3	28	Cue	Neutral	True
272.661	4.05	Control	0.5861999999999999	0.0	No	2.839	0.0	n/a	NoResponse	0	n/a	n/a	3	28	Fixation	Neutral	True
276.71	0.18	Control	0.5861999999999999	0.001	No	2.839	-0.001	4.0	NoResponse	0	0.245	275.955	3	28	Target	Neutral	True
276.893	0.52	Control	0.5861999999999999	n/a	No	2.839	n/a	n/a	NoResponse	0	n/a	n/a	3	28	Blank	Neutral	True
276.955	0.3	Control	0.5861999999999999	0.001	No	2.839	-0.001	4.0	NoResponse	0	0.245	n/a	3	28	ButtonPress	Neutral	True
277.409	1.45	Control	0.5861999999999999	n/a	No	2.839	n/a	5.0	NoResponse	0	0.029	276.438	3	28	Feedback	Neutral	True
278.859	2.839	Control	0.5861999999999999	n/a	No	2.839	n/a	n/a	NoResponse	0	0.0	n/a	3	28	ISIslide	Neutral	True
281.725	0.25	Lose2	0.6	0.0	Yes	2.825	0.025	n/a	GoodResponse	0	n/a	n/a	3	29	Cue	AvoidedLoss	False
281.975	3.95	Lose2	0.6	0.0	Yes	2.825	0.0	4.0	GoodResponse	0	0.227	281.202	3	29	Fixation	AvoidedLoss	False
282.202	0.3	Lose2	0.6	0.0	Yes	2.825	0.0	4.0	GoodResponse	0	0.227	n/a	3	29	ButtonPress	AvoidedLoss	False
285.923	0.19	Lose2	0.6	0.002	Yes	2.825	-0.002	4.0	GoodResponse	0	0.175	285.098	3	29	Target	AvoidedLoss	False
286.098	0.3	Lose2	0.6	0.002	Yes	2.825	-0.002	4.0	GoodResponse	0	0.175	n/a	3	29	ButtonPress	AvoidedLoss	False
286.123	0.51	Lose2	0.6	n/a	Yes	2.825	n/a	n/a	GoodResponse	0	n/a	n/a	3	29	Blank	AvoidedLoss	False
286.623	1.45	Lose2	0.6	n/a	Yes	2.825	n/a	5.0	GoodResponse	0	0.035	285.658	3	29	Feedback	AvoidedLoss	False
288.072	2.825	Lose2	0.6	n/a	Yes	2.825	n/a	n/a	GoodResponse	0	0.0	n/a	3	29	ISIslide	AvoidedLoss	False
290.921	0.25	Win2	0.6129	0.001	Yes	2.779	0.021	n/a	GoodResponse	1	n/a	n/a	4	30	Cue	Win	True
291.171	3.9	Win2	0.6129	0.0	Yes	2.779	0.0	n/a	GoodResponse	1	n/a	n/a	4	30	Fixation	Win	True
295.07	0.2	Win2	0.6129	0.001	Yes	2.779	-0.001	4.0	GoodResponse	1	0.179	294.249	4	30	Target	Win	True
295.249	0.3	Win2	0.6129	0.001	Yes	2.779	-0.001	4.0	GoodResponse	1	0.179	n/a	4	30	ButtonPress	Win	True
295.27	0.5	Win2	0.6129	n/a	Yes	2.779	n/a	n/a	GoodResponse	1	n/a	n/a	4	30	Blank	Win	True
295.77	1.45	Win2	0.6129	n/a	Yes	2.779	n/a	5.0	GoodResponse	1	0.01	294.78	4	30	Feedback	Win	True
297.219	2.779	Win2	0.6129	n/a	Yes	2.779	n/a	n/a	GoodResponse	1	0.0	n/a	4	30	ISIslide	Win	True
300.018	0.25	Lose2	0.625	0.0	Yes	2.832	0.018	n/a	GoodResponse	0	n/a	n/a	4	31	Cue	AvoidedLoss	True
300.268	4.05	Lose2	0.625	0.0	Yes	2.832	0.0	n/a	GoodResponse	0	n/a	n/a	4	31	Fixation	AvoidedLoss	True
304.317	0.21	Lose2	0.625	0.001	Yes	2.832	-0.001	4.0	GoodResponse	0	0.174	303.491	4	31	Target	AvoidedLoss	True
304.491	0.3	Lose2	0.625	0.001	Yes	2.832	-0.001	4.0	GoodResponse	0	0.174	n/a	4	31	ButtonPress	AvoidedLoss	True
304.533	0.49	Lose2	0.625	n/a	Yes	2.832	n/a	n/a	GoodResponse	0	n/a	n/a	4	31	Blank	AvoidedLoss	True
305.017	1.45	Lose2	0.625	n/a	Yes	2.832	n/a	5.0	GoodResponse	0	0.031	304.048	4	31	Feedback	AvoidedLoss	True
306.466	2.832	Lose2	0.625	n/a	Yes	2.832	n/a	n/a	GoodResponse	0	0.0	n/a	4	31	ISIslide	AvoidedLoss	True
309.315	0.25	Lose2	0.6364	0.0	Yes	2.635	0.015	n/a	GoodResponse	0	n/a	n/a	4	32	Cue	AvoidedLoss	True
309.565	4.15	Lose2	0.6364	0.0	Yes	2.635	0.0	n/a	GoodResponse	0	n/a	n/a	4	32	Fixation	AvoidedLoss	True
313.714	0.22	Lose2	0.6364	0.001	Yes	2.635	-0.001	4.0	GoodResponse	0	0.19	312.904	4	32	Target	AvoidedLoss	True
313.904	0.3	Lose2	0.6364	0.001	Yes	2.635	-0.001	4.0	GoodResponse	0	0.19	n/a	4	32	ButtonPress	AvoidedLoss	True
313.947	0.48	Lose2	0.6364	n/a	Yes	2.635	n/a	n/a	GoodResponse	0	n/a	n/a	4	32	Blank	AvoidedLoss	True
314.413	1.45	Lose2	0.6364	n/a	Yes	2.635	n/a	5.0	GoodResponse	0	0.001	313.414	4	32	Feedback	AvoidedLoss	True
315.863	2.635	Lose2	0.6364	n/a	Yes	2.635	n/a	n/a	GoodResponse	0	0.0	n/a	4	32	ISIslide	AvoidedLoss	True
318.512	0.25	Win2	0.6470999999999999	0.0	Yes	2.688	0.012	n/a	GoodResponse	1	n/a	n/a	5	33	Cue	Win	True
318.762	4.0	Win2	0.6470999999999999	0.0	Yes	2.688	0.0	n/a	GoodResponse	1	n/a	n/a	5	33	Fixation	Win	True
322.761	0.23	Win2	0.6470999999999999	0.001	Yes	2.688	-0.001	4.0	GoodResponse	1	0.181	321.942	5	33	Target	Win	True
322.942	0.3	Win2	0.6470999999999999	0.001	Yes	2.688	-0.001	4.0	GoodResponse	1	0.181	n/a	5	33	ButtonPress	Win	True
322.994	0.47	Win2	0.6470999999999999	n/a	Yes	2.688	n/a	n/a	GoodResponse	1	n/a	n/a	5	33	Blank	Win	True
323.46	1.45	Win2	0.6470999999999999	n/a	Yes	2.688	n/a	5.0	GoodResponse	1	0.028	322.488	5	33	Feedback	Win	True
324.91	2.688	Win2	0.6470999999999999	n/a	Yes	2.688	n/a	n/a	GoodResponse	1	0.0	n/a	5	33	ISIslide	Win	True
327.626	0.25	Lose2	0.6570999999999999	0.0	Yes	2.624	0.026	n/a	GoodResponse	0	n/a	n/a	5	34	Cue	AvoidedLoss	True
327.875	4.05	Lose2	0.6570999999999999	0.001	Yes	2.624	-0.001	n/a	GoodResponse	0	n/a	n/a	5	34	Fixation	AvoidedLoss	True
331.924	0.24	Lose2	0.6570999999999999	0.002	Yes	2.624	-0.002	4.0	GoodResponse	0	0.178	331.102	5	34	Target	AvoidedLoss	True
332.102	0.3	Lose2	0.6570999999999999	0.002	Yes	2.624	-0.002	4.0	GoodResponse	0	0.178	n/a	5	34	ButtonPress	AvoidedLoss	True
332.174	0.46	Lose2	0.6570999999999999	n/a	Yes	2.624	n/a	n/a	GoodResponse	0	n/a	n/a	5	34	Blank	AvoidedLoss	True
332.624	1.45	Lose2	0.6570999999999999	n/a	Yes	2.624	n/a	5.0	GoodResponse	0	0.034	331.658	5	34	Feedback	AvoidedLoss	True
334.073	2.624	Lose2	0.6570999999999999	n/a	Yes	2.624	n/a	n/a	GoodResponse	0	0.0	n/a	5	34	ISIslide	AvoidedLoss	True
336.722	0.25	Lose2	0.6667000000000001	0.0	Yes	2.678	0.022	n/a	GoodResponse	0	n/a	n/a	5	35	Cue	AvoidedLoss	True
336.972	4.0	Lose2	0.6667000000000001	0.0	Yes	2.678	0.0	n/a	GoodResponse	0	n/a	n/a	5	35	Fixation	AvoidedLoss	True
340.971	0.24	Lose2	0.6667000000000001	0.001	Yes	2.678	-0.001	4.0	GoodResponse	0	0.164	340.135	5	35	Target	AvoidedLoss	True
341.135	0.3	Lose2	0.6667000000000001	0.001	Yes	2.678	-0.001	4.0	GoodResponse	0	0.164	n/a	5	35	ButtonPress	AvoidedLoss	True
341.221	0.46	Lose2	0.6667000000000001	n/a	Yes	2.678	n/a	n/a	GoodResponse	0	n/a	n/a	5	35	Blank	AvoidedLoss	True
341.671	1.45	Lose2	0.6667000000000001	n/a	Yes	2.678	n/a	5.0	GoodResponse	0	0.011	340.682	5	35	Feedback	AvoidedLoss	True
343.12	2.678	Lose2	0.6667000000000001	n/a	Yes	2.678	n/a	n/a	GoodResponse	0	0.0	n/a	5	35	ISIslide	AvoidedLoss	True
345.819	0.25	Control	0.6757	0.0	Yes	2.681	0.019	n/a	GoodResponse	0	n/a	n/a	5	36	Cue	Neutral	True
346.069	4.0	Control	0.6757	0.0	Yes	2.681	0.0	n/a	GoodResponse	0	n/a	n/a	5	36	Fixation	Neutral	True
350.068	0.23	Control	0.6757	0.001	Yes	2.681	-0.001	4.0	GoodResponse	0	0.2	349.268	5	36	Target	Neutral	True
350.268	0.3	Control	0.6757	0.001	Yes	2.681	-0.001	4.0	GoodResponse	0	0.2	n/a	5	36	ButtonPress	Neutral	True
350.301	0.47	Control	0.6757	n/a	Yes	2.681	n/a	n/a	GoodResponse	0	n/a	n/a	5	36	Blank	Neutral	True
350.768	1.45	Control	0.6757	n/a	Yes	2.681	n/a	5.0	GoodResponse	0	0.036	349.804	5	36	Feedback	Neutral	True
352.217	2.681	Control	0.6757	n/a	Yes	2.681	n/a	n/a	GoodResponse	0	0.0	n/a	5	36	ISIslide	Neutral	True
354.916	0.25	Win2	0.6842	0.0	Yes	2.884	0.016	n/a	GoodResponse	1	n/a	n/a	6	37	Cue	Win	True
355.166	4.0	Win2	0.6842	0.0	Yes	2.884	0.0	n/a	GoodResponse	1	n/a	n/a	6	37	Fixation	Win	True
359.165	0.22	Win2	0.6842	0.001	Yes	2.884	-0.001	4.0	GoodResponse	1	0.201	358.366	6	37	Target	Win	True
359.366	0.3	Win2	0.6842	0.001	Yes	2.884	-0.001	4.0	GoodResponse	1	0.201	n/a	6	37	ButtonPress	Win	True
359.398	0.48	Win2	0.6842	n/a	Yes	2.884	n/a	n/a	GoodResponse	1	n/a	n/a	6	37	Blank	Win	True
359.864	1.45	Win2	0.6842	n/a	Yes	2.884	n/a	5.0	GoodResponse	1	0.013	358.877	6	37	Feedback	Win	True
361.314	2.884	Win2	0.6842	n/a	Yes	2.884	n/a	n/a	GoodResponse	1	0.0	n/a	6	37	ISIslide	Win	True
364.213	0.25	Lose2	0.6923	0.0	Yes	2.837	0.013	n/a	GoodResponse	0	n/a	n/a	6	38	Cue	AvoidedLoss	True
364.463	3.95	Lose2	0.6923	0.0	Yes	2.837	0.0	n/a	GoodResponse	0	n/a	n/a	6	38	Fixation	AvoidedLoss	True
368.412	0.21	Lose2	0.6923	0.001	Yes	2.837	-0.001	4.0	GoodResponse	0	0.203	367.615	6	38	Target	AvoidedLoss	True
368.615	0.3	Lose2	0.6923	0.001	Yes	2.837	-0.001	4.0	GoodResponse	0	0.203	n/a	6	38	ButtonPress	AvoidedLoss	True
368.628	0.49	Lose2	0.6923	n/a	Yes	2.837	n/a	n/a	GoodResponse	0	n/a	n/a	6	38	Blank	AvoidedLoss	True
369.111	1.45	Lose2	0.6923	n/a	Yes	2.837	n/a	5.0	GoodResponse	0	0.035	368.146	6	38	Feedback	AvoidedLoss	True
370.561	2.837	Lose2	0.6923	n/a	Yes	2.837	n/a	n/a	GoodResponse	0	0.0	n/a	6	38	ISIslide	AvoidedLoss	True
373.427	0.25	Win2	0.7	0.0	Yes	2.973	0.027	n/a	GoodResponse	1	n/a	n/a	7	39	Cue	Win	True
373.676	4.1	Win2	0.7	0.001	Yes	2.973	-0.001	n/a	GoodResponse	1	n/a	n/a	7	39	Fixation	Win	True
377.775	0.2	Win2	0.7	0.002	Yes	2.973	-0.002	4.0	GoodResponse	1	0.175	376.95	7	39	Target	Win	True
377.95	0.3	Win2	0.7	0.002	Yes	2.973	-0.002	4.0	GoodResponse	1	0.175	n/a	7	39	ButtonPress	Win	True
377.975	0.5	Win2	0.7	n/a	Yes	2.973	n/a	n/a	GoodResponse	1	n/a	n/a	7	39	Blank	Win	True
378.475	1.45	Win2	0.7	n/a	Yes	2.973	n/a	5.0	GoodResponse	1	0.037	377.512	7	39	Feedback	Win	True
379.924	2.973	Win2	0.7	n/a	Yes	2.973	n/a	n/a	GoodResponse	1	0.0	n/a	7	39	ISIslide	Win	True
382.923	0.25	Win2	0.6829000000000001	0.0	No	2.727	0.023	n/a	LatePress	0	n/a	n/a	7	40	Cue	MissedWin	True
383.173	3.95	Win2	0.6829000000000001	0.0	No	2.727	0.0	n/a	LatePress	0	n/a	n/a	7	40	Fixation	MissedWin	True
387.122	0.19	Win2	0.6829000000000001	0.001	No	2.727	-0.001	4.0	LatePress	0	0.191	386.313	7	40	Target	MissedWin	True
387.313	0.3	Win2	0.6829000000000001	0.001	No	2.727	-0.001	4.0	LatePress	0	0.191	n/a	7	40	ButtonPress	MissedWin	True
387.322	0.51	Win2	0.6829000000000001	n/a	No	2.727	n/a	n/a	LatePress	0	n/a	n/a	7	40	Blank	MissedWin	True
387.822	1.45	Win2	0.6829000000000001	n/a	No	2.727	n/a	5.0	LatePress	0	0.007	386.829	7	40	Feedback	MissedWin	True
389.271	2.727	Win2	0.6829000000000001	n/a	No	2.727	n/a	n/a	LatePress	0	0.0	n/a	7	40	ISIslide	MissedWin	True
392.02	0.25	Win2	0.6905	0.0	Yes	2.78	0.02	n/a	GoodResponse	1	n/a	n/a	8	41	Cue	Win	True
392.27	3.9	Win2	0.6905	0.0	Yes	2.78	0.0	n/a	GoodResponse	1	n/a	n/a	8	41	Fixation	Win	True
396.169	0.18	Win2	0.6905	0.001	Yes	2.78	-0.001	4.0	GoodResponse	1	0.172	395.341	8	41	Target	Win	True
396.341	0.3	Win2	0.6905	0.001	Yes	2.78	-0.001	4.0	GoodResponse	1	0.172	n/a	8	41	ButtonPress	Win	True
396.352	0.52	Win2	0.6905	n/a	Yes	2.78	n/a	n/a	GoodResponse	1	n/a	n/a	8	41	Blank	Win	True
396.868	1.45	Win2	0.6905	n/a	Yes	2.78	n/a	5.0	GoodResponse	1	0.034	395.902	8	41	Feedback	Win	True
398.318	2.78	Win2	0.6905	n/a	Yes	2.78	n/a	n/a	GoodResponse	1	0.0	n/a	8	41	ISIslide	Win	True
401.117	0.25	Control	0.6744	0.0	No	2.933	0.017	n/a	NoResponse	0	n/a	n/a	8	42	Cue	Neutral	True
401.367	3.85	Control	0.6744	0.0	No	2.933	0.0	n/a	NoResponse	0	n/a	n/a	8	42	Fixation	Neutral	True
405.216	0.17	Control	0.6744	0.001	No	2.933	-0.001	4.0	NoResponse	0	0.221	404.437	8	42	Target	Neutral	True
405.399	0.53	Control	0.6744	n/a	No	2.933	n/a	n/a	NoResponse	0	n/a	n/a	8	42	Blank	Neutral	True
405.437	0.3	Control	0.6744	0.001	No	2.933	-0.001	4.0	NoResponse	0	0.221	n/a	8	42	ButtonPress	Neutral	True
405.915	1.45	Control	0.6744	n/a	No	2.933	n/a	5.0	NoResponse	0	0.012	404.927	8	42	Feedback	Neutral	True
407.365	2.933	Control	0.6744	n/a	No	2.933	n/a	n/a	NoResponse	0	0.0	n/a	8	42	ISIslide	Neutral	True
410.314	0.25	Win2	0.6591	0.0	No	3.186	0.014	n/a	NoResponse	0	n/a	n/a	8	43	Cue	MissedWin	False
410.564	4.0	Win2	0.6591	0.0	No	3.186	0.0	4.0	NoResponse	0	3.672	413.236	8	43	Fixation	MissedWin	False
414.236	0.3	Win2	0.6591	0.0	No	3.186	0.0	4.0	NoResponse	0	3.672	n/a	8	43	ButtonPress	MissedWin	False
414.562	0.16	Win2	0.6591	0.002	No	3.186	-0.002	4.0	NoResponse	0	0.188	413.75	8	43	Target	MissedWin	False
414.729	0.54	Win2	0.6591	n/a	No	3.186	n/a	n/a	NoResponse	0	n/a	n/a	8	43	Blank	MissedWin	False
414.75	0.3	Win2	0.6591	0.002	No	3.186	-0.002	4.0	NoResponse	0	0.188	n/a	8	43	ButtonPress	MissedWin	False
415.262	1.45	Win2	0.6591	n/a	No	3.186	n/a	5.0	NoResponse	0	0.031	414.293	8	43	Feedback	MissedWin	False
416.712	3.186	Win2	0.6591	n/a	No	3.186	n/a	n/a	NoResponse	0	0.0	n/a	8	43	ISIslide	MissedWin	False
419.927	0.25	Win2	0.6444	0.0	No	2.973	0.027	n/a	NoResponse	0	n/a	n/a	8	44	Cue	MissedWin	True
420.177	4.0	Win2	0.6444	0.0	No	2.973	0.0	n/a	NoResponse	0	n/a	n/a	8	44	Fixation	MissedWin	True
424.176	0.16	Win2	0.6444	0.001	No	2.973	-0.001	4.0	NoResponse	0	0.188	423.364	8	44	Target	MissedWin	True
424.342	0.54	Win2	0.6444	n/a	No	2.973	n/a	n/a	NoResponse	0	n/a	n/a	8	44	Blank	MissedWin	True
424.364	0.3	Win2	0.6444	0.001	No	2.973	-0.001	4.0	NoResponse	0	0.188	n/a	8	44	ButtonPress	MissedWin	True
424.876	1.45	Win2	0.6444	n/a	No	2.973	n/a	5.0	NoResponse	0	0.025	423.901	8	44	Feedback	MissedWin	True
426.325	2.973	Win2	0.6444	n/a	No	2.973	n/a	n/a	NoResponse	0	0.0	n/a	8	44	ISIslide	MissedWin	True
429.324	0.25	Control	0.6304	0.0	No	2.876	0.024	n/a	LatePress	0	n/a	n/a	8	45	Cue	Neutral	True
429.574	4.1	Control	0.6304	0.0	No	2.876	0.0	n/a	LatePress	0	n/a	n/a	8	45	Fixation	Neutral	True
433.673	0.17	Control	0.6304	0.001	No	2.876	-0.001	4.0	LatePress	0	0.176	432.849	8	45	Target	Neutral	True
433.849	0.3	Control	0.6304	0.001	No	2.876	-0.001	4.0	LatePress	0	0.176	n/a	8	45	ButtonPress	Neutral	True
433.856	0.53	Control	0.6304	n/a	No	2.876	n/a	n/a	LatePress	0	n/a	n/a	8	45	Blank	Neutral	True
434.372	1.45	Control	0.6304	n/a	No	2.876	n/a	5.0	LatePress	0	0.042	433.414	8	45	Feedback	Neutral	True
435.822	2.876	Control	0.6304	n/a	No	2.876	n/a	n/a	LatePress	0	0.0	n/a	8	45	ISIslide	Neutral	True
438.721	0.25	Lose2	0.617	0.0	No	3.379	0.021	n/a	NoResponse	-1	n/a	n/a	7	46	Cue	Loss	True
438.971	4.0	Lose2	0.617	0.0	No	3.379	0.0	n/a	NoResponse	-1	n/a	n/a	7	46	Fixation	Loss	True
442.969	0.18	Lose2	0.617	0.002	No	3.379	-0.002	4.0	NoResponse	-1	0.2	442.169	7	46	Target	Loss	True
443.153	0.52	Lose2	0.617	n/a	No	3.379	n/a	n/a	NoResponse	-1	n/a	n/a	7	46	Blank	Loss	True
443.169	0.3	Lose2	0.617	0.002	No	3.379	-0.002	4.0	NoResponse	-1	0.2	n/a	7	46	ButtonPress	Loss	True
443.669	1.45	Lose2	0.617	n/a	No	3.379	n/a	5.0	NoResponse	-1	0.013	442.682	7	46	Feedback	Loss	True
445.119	3.379	Lose2	0.617	n/a	No	3.379	n/a	n/a	NoResponse	-1	0.0	n/a	7	46	ISIslide	Loss	True
448.517	0.25	Lose2	0.625	0.001	Yes	2.683	0.017	n/a	GoodResponse	0	n/a	n/a	7	47	Cue	AvoidedLoss	True
448.767	4.0	Lose2	0.625	0.0	Yes	2.683	0.0	n/a	GoodResponse	0	n/a	n/a	7	47	Fixation	AvoidedLoss	True
452.766	0.19	Lose2	0.625	0.001	Yes	2.683	-0.001	4.0	GoodResponse	0	0.189	451.955	7	47	Target	AvoidedLoss	True
452.955	0.3	Lose2	0.625	0.001	Yes	2.683	-0.001	4.0	GoodResponse	0	0.189	n/a	7	47	ButtonPress	AvoidedLoss	True
452.966	0.51	Lose2	0.625	n/a	Yes	2.683	n/a	n/a	GoodResponse	0	n/a	n/a	7	47	Blank	AvoidedLoss	True
453.466	1.45	Lose2	0.625	n/a	Yes	2.683	n/a	5.0	GoodResponse	0	0.021	452.487	7	47	Feedback	AvoidedLoss	True
454.915	2.683	Lose2	0.625	n/a	Yes	2.683	n/a	n/a	GoodResponse	0	0.0	n/a	7	47	ISIslide	AvoidedLoss	True
457.614	0.25	Lose2	0.6122	0.0	No	3.036	0.014	n/a	NoResponse	-1	n/a	n/a	6	48	Cue	Loss	True
457.864	3.95	Lose2	0.6122	0.0	No	3.036	0.0	n/a	NoResponse	-1	n/a	n/a	6	48	Fixation	Loss	True
461.813	0.2	Lose2	0.6122	0.001	No	3.036	-0.001	4.0	NoResponse	-1	0.205	461.018	6	48	Target	Loss	True
462.013	0.5	Lose2	0.6122	n/a	No	3.036	n/a	n/a	NoResponse	-1	n/a	n/a	6	48	Blank	Loss	True
462.018	0.3	Lose2	0.6122	0.001	No	3.036	-0.001	4.0	NoResponse	-1	0.205	n/a	6	48	ButtonPress	Loss	True
462.513	1.45	Lose2	0.6122	n/a	No	3.036	n/a	5.0	NoResponse	-1	0.048	461.561	6	48	Feedback	Loss	True
463.962	3.036	Lose2	0.6122	n/a	No	3.036	n/a	n/a	NoResponse	-1	0.0	n/a	6	48	ISIslide	Loss	True
467.011	0.25	Control	0.6	0.0	No	2.889	0.011	n/a	NoResponse	0	n/a	n/a	6	49	Cue	Neutral	True
467.261	4.0	Control	0.6	0.0	No	2.889	0.0	4.0	NoResponse	0	3.87	470.131	6	49	Fixation	Neutral	True
471.131	0.3	Control	0.6	0.0	No	2.889	0.0	4.0	NoResponse	0	3.87	n/a	6	49	ButtonPress	Neutral	True
471.26	0.21	Control	0.6	0.001	No	2.889	-0.001	n/a	NoResponse	0	n/a	n/a	6	49	Target	Neutral	True
471.476	0.49	Control	0.6	n/a	No	2.889	n/a	n/a	NoResponse	0	n/a	n/a	6	49	Blank	Neutral	True
471.959	1.45	Control	0.6	n/a	No	2.889	n/a	5.0	NoResponse	0	0.016	470.975	6	49	Feedback	Neutral	True
473.409	2.889	Control	0.6	n/a	No	2.889	n/a	n/a	NoResponse	0	0.0	n/a	6	49	ISIslide	Neutral	True
476.325	0.25	Control	0.5882000000000001	0.0	No	2.775	0.025	n/a	NoResponse	0	n/a	n/a	6	50	Cue	Neutral	True
476.575	4.0	Control	0.5882000000000001	0.0	No	2.775	0.0	n/a	NoResponse	0	n/a	n/a	6	50	Fixation	Neutral	True
480.573	0.22	Control	0.5882000000000001	0.002	No	2.775	-0.002	4.0	NoResponse	0	0.245	479.818	6	50	Target	Neutral	True
480.806	0.48	Control	0.5882000000000001	n/a	No	2.775	n/a	n/a	NoResponse	0	n/a	n/a	6	50	Blank	Neutral	True
480.818	0.3	Control	0.5882000000000001	0.002	No	2.775	-0.002	4.0	NoResponse	0	0.245	n/a	6	50	ButtonPress	Neutral	True
481.273	1.45	Control	0.5882000000000001	n/a	No	2.775	n/a	5.0	NoResponse	0	0.019	480.292	6	50	Feedback	Neutral	True
482.722	2.775	Control	0.5882000000000001	n/a	No	2.775	n/a	n/a	NoResponse	0	0.0	n/a	6	50	ISIslide	Neutral	True
485.521	0.25	Control	0.5962	0.001	Yes	2.729	0.021	n/a	GoodResponse	0	n/a	n/a	6	51	Cue	Neutral	True
485.771	3.95	Control	0.5962	0.0	Yes	2.729	0.0	n/a	GoodResponse	0	n/a	n/a	6	51	Fixation	Neutral	True
489.72	0.23	Control	0.5962	0.001	Yes	2.729	-0.001	4.0	GoodResponse	0	0.194	488.914	6	51	Target	Neutral	True
489.914	0.3	Control	0.5962	0.001	Yes	2.729	-0.001	4.0	GoodResponse	0	0.194	n/a	6	51	ButtonPress	Neutral	True
489.953	0.47	Control	0.5962	n/a	Yes	2.729	n/a	n/a	GoodResponse	0	n/a	n/a	6	51	Blank	Neutral	True
490.42	1.45	Control	0.5962	n/a	Yes	2.729	n/a	5.0	GoodResponse	0	0.043	489.463	6	51	Feedback	Neutral	True
491.869	2.729	Control	0.5962	n/a	Yes	2.729	n/a	n/a	GoodResponse	0	0.0	n/a	6	51	ISIslide	Neutral	True
494.618	0.25	Control	0.6038	0.0	Yes	2.632	0.018	n/a	GoodResponse	0	n/a	n/a	6	52	Cue	Neutral	True
494.868	4.05	Control	0.6038	0.0	Yes	2.632	0.0	n/a	GoodResponse	0	n/a	n/a	6	52	Fixation	Neutral	True
498.917	0.24	Control	0.6038	0.001	Yes	2.632	-0.001	4.0	GoodResponse	0	0.184	498.101	6	52	Target	Neutral	True
499.101	0.3	Control	0.6038	0.001	Yes	2.632	-0.001	4.0	GoodResponse	0	0.184	n/a	6	52	ButtonPress	Neutral	True
499.167	0.46	Control	0.6038	n/a	Yes	2.632	n/a	n/a	GoodResponse	0	n/a	n/a	6	52	Blank	Neutral	True
499.617	1.45	Control	0.6038	n/a	Yes	2.632	n/a	5.0	GoodResponse	0	0.016	498.633	6	52	Feedback	Neutral	True
501.066	2.632	Control	0.6038	n/a	Yes	2.632	n/a	n/a	GoodResponse	0	0.0	n/a	6	52	ISIslide	Neutral	True
503.715	0.25	Win2	0.6111	0.0	Yes	2.935	0.015	n/a	GoodResponse	1	n/a	n/a	7	53	Cue	Win	False
503.965	4.05	Win2	0.6111	0.0	Yes	2.935	0.0	4.0	GoodResponse	1	3.38	506.345	7	53	Fixation	Win	False
507.345	0.3	Win2	0.6111	0.0	Yes	2.935	0.0	4.0	GoodResponse	1	3.38	n/a	7	53	ButtonPress	Win	False
508.014	0.25	Win2	0.6111	0.001	Yes	2.935	-0.001	4.0	GoodResponse	1	0.172	507.186	7	53	Target	Win	False
508.186	0.3	Win2	0.6111	0.001	Yes	2.935	-0.001	4.0	GoodResponse	1	0.172	n/a	7	53	ButtonPress	Win	False
508.264	0.45	Win2	0.6111	n/a	Yes	2.935	n/a	n/a	GoodResponse	1	n/a	n/a	7	53	Blank	Win	False
508.714	1.45	Win2	0.6111	n/a	Yes	2.935	n/a	5.0	GoodResponse	1	0.041	507.755	7	53	Feedback	Win	False
510.163	2.935	Win2	0.6111	n/a	Yes	2.935	n/a	n/a	GoodResponse	1	0.0	n/a	7	53	ISIslide	Win	False
513.112	0.25	Win2	0.6182	0.0	Yes	2.738	0.012	n/a	GoodResponse	1	n/a	n/a	8	54	Cue	Win	True
513.362	3.95	Win2	0.6182	0.0	Yes	2.738	0.0	n/a	GoodResponse	1	n/a	n/a	8	54	Fixation	Win	True
517.311	0.26	Win2	0.6182	0.001	Yes	2.738	-0.001	4.0	GoodResponse	1	0.212	516.523	8	54	Target	Win	True
517.523	0.3	Win2	0.6182	0.001	Yes	2.738	-0.001	4.0	GoodResponse	1	0.212	n/a	8	54	ButtonPress	Win	True
517.577	0.44	Win2	0.6182	n/a	Yes	2.738	n/a	n/a	GoodResponse	1	n/a	n/a	8	54	Blank	Win	True
518.01	1.45	Win2	0.6182	n/a	Yes	2.738	n/a	5.0	GoodResponse	1	0.014	517.024	8	54	Feedback	Win	True
519.46	2.738	Win2	0.6182	n/a	Yes	2.738	n/a	n/a	GoodResponse	1	0.0	n/a	8	54	ISIslide	Win	True
522.226	0.25	Control	0.625	0.0	Yes	3.024	0.026	n/a	GoodResponse	0	n/a	n/a	8	55	Cue	Neutral	True
522.475	3.95	Control	0.625	0.001	Yes	3.024	-0.001	n/a	GoodResponse	0	n/a	n/a	8	55	Fixation	Neutral	True
526.424	0.27	Control	0.625	0.002	Yes	3.024	-0.002	4.0	GoodResponse	0	0.213	525.637	8	55	Target	Neutral	True
526.637	0.3	Control	0.625	0.002	Yes	3.024	-0.002	4.0	GoodResponse	0	0.213	n/a	8	55	ButtonPress	Neutral	True
526.707	0.43	Control	0.625	n/a	Yes	3.024	n/a	n/a	GoodResponse	0	n/a	n/a	8	55	Blank	Neutral	True
527.124	1.45	Control	0.625	n/a	Yes	3.024	n/a	5.0	GoodResponse	0	0.022	526.146	8	55	Feedback	Neutral	True
528.573	3.024	Control	0.625	n/a	Yes	3.024	n/a	n/a	GoodResponse	0	0.0	n/a	8	55	ISIslide	Neutral	True
531.622	0.25	Control	0.6315999999999999	0.0	Yes	2.828	0.022	n/a	GoodResponse	0	n/a	n/a	8	56	Cue	Neutral	True
531.872	3.95	Control	0.6315999999999999	0.0	Yes	2.828	0.0	n/a	GoodResponse	0	n/a	n/a	8	56	Fixation	Neutral	True
535.821	0.28	Control	0.6315999999999999	0.001	Yes	2.828	-0.001	4.0	GoodResponse	0	0.192	535.013	8	56	Target	Neutral	True
536.013	0.3	Control	0.6315999999999999	0.001	Yes	2.828	-0.001	4.0	GoodResponse	0	0.192	n/a	8	56	ButtonPress	Neutral	True
536.104	0.42	Control	0.6315999999999999	n/a	Yes	2.828	n/a	n/a	GoodResponse	0	n/a	n/a	8	56	Blank	Neutral	True
536.521	1.45	Control	0.6315999999999999	n/a	Yes	2.828	n/a	5.0	GoodResponse	0	0.039	535.56	8	56	Feedback	Neutral	True
537.97	2.828	Control	0.6315999999999999	n/a	Yes	2.828	n/a	n/a	GoodResponse	0	0.0	n/a	8	56	ISIslide	Neutral	True
540.819	0.25	Control	0.6379	0.0	Yes	3.481	0.019	n/a	GoodResponse	0	n/a	n/a	8	57	Cue	Neutral	True
541.069	4.0	Control	0.6379	0.0	Yes	3.481	0.0	n/a	GoodResponse	0	n/a	n/a	8	57	Fixation	Neutral	True
545.068	0.29	Control	0.6379	0.001	Yes	3.481	-0.001	4.0	GoodResponse	0	0.214	544.282	8	57	Target	Neutral	True
545.282	0.3	Control	0.6379	0.001	Yes	3.481	-0.001	4.0	GoodResponse	0	0.214	n/a	8	57	ButtonPress	Neutral	True
545.368	0.41	Control	0.6379	n/a	Yes	3.481	n/a	n/a	GoodResponse	0	n/a	n/a	8	57	Blank	Neutral	True
545.768	1.45	Control	0.6379	n/a	Yes	3.481	n/a	5.0	GoodResponse	0	0.012	544.78	8	57	Feedback	Neutral	True
547.217	3.481	Control	0.6379	n/a	Yes	3.481	n/a	n/a	GoodResponse	0	0.0	n/a	8	57	ISIslide	Neutral	True
550.716	0.25	Win2	0.6441	0.0	Yes	2.734	0.016	n/a	GoodResponse	1	n/a	n/a	9	58	Cue	Win	True
550.966	4.05	Win2	0.6441	0.0	Yes	2.734	0.0	n/a	GoodResponse	1	n/a	n/a	9	58	Fixation	Win	True
555.014	0.3	Win2	0.6441	0.002	Yes	2.734	-0.002	4.0	GoodResponse	1	0.177	554.191	9	58	Target	Win	True
555.191	0.3	Win2	0.6441	0.002	Yes	2.734	-0.002	4.0	GoodResponse	1	0.177	n/a	9	58	ButtonPress	Win	True
555.314	0.4	Win2	0.6441	n/a	Yes	2.734	n/a	n/a	GoodResponse	1	n/a	n/a	9	58	Blank	Win	True
555.714	1.45	Win2	0.6441	n/a	Yes	2.734	n/a	5.0	GoodResponse	1	0.017	554.731	9	58	Feedback	Win	True
557.164	2.734	Win2	0.6441	n/a	Yes	2.734	n/a	n/a	GoodResponse	1	0.0	n/a	9	58	ISIslide	Win	True
559.913	0.25	Lose2	0.65	0.0	Yes	2.687	0.013	n/a	GoodResponse	0	n/a	n/a	9	59	Cue	AvoidedLoss	True
560.163	4.0	Lose2	0.65	0.0	Yes	2.687	0.0	n/a	GoodResponse	0	n/a	n/a	9	59	Fixation	AvoidedLoss	True
564.161	0.31	Lose2	0.65	0.002	Yes	2.687	-0.002	4.0	GoodResponse	0	0.227	563.388	9	59	Target	AvoidedLoss	True
564.388	0.3	Lose2	0.65	0.002	Yes	2.687	-0.002	4.0	GoodResponse	0	0.227	n/a	9	59	ButtonPress	AvoidedLoss	True
564.478	0.39	Lose2	0.65	n/a	Yes	2.687	n/a	n/a	GoodResponse	0	n/a	n/a	9	59	Blank	AvoidedLoss	True
564.861	1.45	Lose2	0.65	n/a	Yes	2.687	n/a	5.0	GoodResponse	0	0.04	563.901	9	59	Feedback	AvoidedLoss	True
566.31	2.687	Lose2	0.65	n/a	Yes	2.687	n/a	n/a	GoodResponse	0	0.0	n/a	9	59	ISIslide	AvoidedLoss	True
569.026	0.25	Control	0.6557	0.0	Yes	2.674	0.026	n/a	GoodResponse	0	n/a	n/a	9	60	Cue	Neutral	True
569.276	4.0	Control	0.6557	0.0	Yes	2.674	0.0	n/a	GoodResponse	0	n/a	n/a	9	60	Fixation	Neutral	True
573.275	0.32	Control	0.6557	0.001	Yes	2.674	-0.001	4.0	GoodResponse	0	0.218	572.493	9	60	Target	Neutral	True
573.493	0.3	Control	0.6557	0.001	Yes	2.674	-0.001	4.0	GoodResponse	0	0.218	n/a	9	60	ButtonPress	Neutral	True
573.591	0.38	Control	0.6557	n/a	Yes	2.674	n/a	n/a	GoodResponse	0	n/a	n/a	9	60	Blank	Neutral	True
573.975	1.45	Control	0.6557	n/a	Yes	2.674	n/a	5.0	GoodResponse	0	0.0	572.975	9	60	Feedback	Neutral	True
575.424	2.674	Control	0.6557	n/a	Yes	2.674	n/a	n/a	GoodResponse	0	0.0	n/a	9	60	ISIslide	Neutral	True
578.123	0.25	Lose2	0.6452	0.0	No	2.977	0.023	n/a	PrematurePress	-1	n/a	n/a	8	61	Cue	Loss	True
578.373	4.0	Lose2	0.6452	0.0	No	2.977	0.0	n/a	PrematurePress	-1	n/a	n/a	8	61	Fixation	Loss	True
582.372	0.32	Lose2	0.6452	0.001	No	2.977	-0.001	4.0	PrematurePress	-1	0.016	581.388	8	61	Target	Loss	True
582.388	0.3	Lose2	0.6452	0.001	No	2.977	-0.001	4.0	PrematurePress	-1	0.016	n/a	8	61	ButtonPress	Loss	True
582.705	0.38	Lose2	0.6452	n/a	No	2.977	n/a	n/a	PrematurePress	-1	n/a	n/a	8	61	Blank	Loss	True
583.071	1.45	Lose2	0.6452	n/a	No	2.977	n/a	5.0	PrematurePress	-1	0.026	582.097	8	61	Feedback	Loss	True
584.521	2.977	Lose2	0.6452	n/a	No	2.977	n/a	n/a	PrematurePress	-1	0.0	n/a	8	61	ISIslide	Loss	True
587.52	0.25	Lose2	0.6507999999999999	0.0	Yes	2.88	0.02	n/a	GoodResponse	0	n/a	n/a	8	62	Cue	AvoidedLoss	True
587.77	3.9	Lose2	0.6507999999999999	0.0	Yes	2.88	0.0	n/a	GoodResponse	0	n/a	n/a	8	62	Fixation	AvoidedLoss	True
591.668	0.33	Lose2	0.6507999999999999	0.002	Yes	2.88	-0.002	4.0	GoodResponse	0	0.198	590.866	8	62	Target	AvoidedLoss	True
591.866	0.3	Lose2	0.6507999999999999	0.002	Yes	2.88	-0.002	4.0	GoodResponse	0	0.198	n/a	8	62	ButtonPress	AvoidedLoss	True
592.002	0.37	Lose2	0.6507999999999999	n/a	Yes	2.88	n/a	n/a	GoodResponse	0	n/a	n/a	8	62	Blank	AvoidedLoss	True
592.368	1.45	Lose2	0.6507999999999999	n/a	Yes	2.88	n/a	5.0	GoodResponse	0	0.046	591.414	8	62	Feedback	AvoidedLoss	True
593.818	2.88	Lose2	0.6507999999999999	n/a	Yes	2.88	n/a	n/a	GoodResponse	0	0.0	n/a	8	62	ISIslide	AvoidedLoss	True
596.717	0.25	Lose2	0.6562	0.0	Yes	2.633	0.017	n/a	GoodResponse	0	n/a	n/a	8	63	Cue	AvoidedLoss	True
596.967	4.05	Lose2	0.6562	0.0	Yes	2.633	0.0	n/a	GoodResponse	0	n/a	n/a	8	63	Fixation	AvoidedLoss	True
601.015	0.34	Lose2	0.6562	0.002	Yes	2.633	-0.002	4.0	GoodResponse	0	0.186	600.201	8	63	Target	AvoidedLoss	True
601.201	0.3	Lose2	0.6562	0.002	Yes	2.633	-0.002	4.0	GoodResponse	0	0.186	n/a	8	63	ButtonPress	AvoidedLoss	True
601.365	0.36	Lose2	0.6562	n/a	Yes	2.633	n/a	n/a	GoodResponse	0	n/a	n/a	8	63	Blank	AvoidedLoss	True
601.715	1.45	Lose2	0.6562	n/a	Yes	2.633	n/a	5.0	GoodResponse	0	0.016	600.731	8	63	Feedback	AvoidedLoss	True
603.165	2.633	Lose2	0.6562	n/a	Yes	2.633	n/a	n/a	GoodResponse	0	0.0	n/a	8	63	ISIslide	AvoidedLoss	True
605.814	0.25	Win2	0.6615000000000001	0.0	Yes	3.136	0.014	n/a	GoodResponse	1	n/a	n/a	9	64	Cue	Win	True
606.064	4.15	Win2	0.6615000000000001	0.0	Yes	3.136	0.0	n/a	GoodResponse	1	n/a	n/a	9	64	Fixation	Win	True
610.212	0.34	Win2	0.6615000000000001	0.002	Yes	3.136	-0.002	4.0	GoodResponse	1	0.213	609.425	9	64	Target	Win	True
610.425	0.3	Win2	0.6615000000000001	0.002	Yes	3.136	-0.002	4.0	GoodResponse	1	0.213	n/a	9	64	ButtonPress	Win	True
610.562	0.36	Win2	0.6615000000000001	n/a	Yes	3.136	n/a	n/a	GoodResponse	1	n/a	n/a	9	64	Blank	Win	True
610.912	1.45	Win2	0.6615000000000001	n/a	Yes	3.136	n/a	5.0	GoodResponse	1	0.039	609.951	9	64	Feedback	Win	True
612.361	3.136	Win2	0.6615000000000001	n/a	Yes	3.136	n/a	n/a	GoodResponse	1	0.0	n/a	9	64	ISIslide	Win	True
615.51	0.25	Control	0.6515000000000001	0.0	No	2.79	0.01	n/a	NoResponse	0	n/a	n/a	9	65	Cue	Neutral	True
615.76	4.0	Control	0.6515000000000001	0.0	No	2.79	0.0	n/a	NoResponse	0	n/a	n/a	9	65	Fixation	Neutral	True
619.759	0.34	Control	0.6515000000000001	0.001	No	2.79	-0.001	4.0	NoResponse	0	0.425	619.184	9	65	Target	Neutral	True
620.109	0.36	Control	0.6515000000000001	n/a	No	2.79	n/a	n/a	NoResponse	0	n/a	n/a	9	65	Blank	Neutral	True
620.184	0.3	Control	0.6515000000000001	0.001	No	2.79	-0.001	4.0	NoResponse	0	0.425	n/a	9	65	ButtonPress	Neutral	True
620.459	1.45	Control	0.6515000000000001	n/a	No	2.79	n/a	5.0	NoResponse	0	0.004	619.463	9	65	Feedback	Neutral	True
621.908	2.79	Control	0.6515000000000001	n/a	No	2.79	n/a	n/a	NoResponse	0	0.0	n/a	9	65	ISIslide	Neutral	True
624.724	0.25	Win2	0.6567000000000001	0.0	Yes	2.776	0.024	n/a	GoodResponse	1	n/a	n/a	10	66	Cue	Win	True
624.974	3.9	Win2	0.6567000000000001	0.0	Yes	2.776	0.0	n/a	GoodResponse	1	n/a	n/a	10	66	Fixation	Win	True
628.872	0.35	Win2	0.6567000000000001	0.002	Yes	2.776	-0.002	4.0	GoodResponse	1	0.242	628.114	10	66	Target	Win	True
629.114	0.3	Win2	0.6567000000000001	0.002	Yes	2.776	-0.002	4.0	GoodResponse	1	0.242	n/a	10	66	ButtonPress	Win	True
629.222	0.35	Win2	0.6567000000000001	n/a	Yes	2.776	n/a	n/a	GoodResponse	1	n/a	n/a	10	66	Blank	Win	True
629.572	1.45	Win2	0.6567000000000001	n/a	Yes	2.776	n/a	5.0	GoodResponse	1	0.013	628.585	10	66	Feedback	Win	True
631.022	2.776	Win2	0.6567000000000001	n/a	Yes	2.776	n/a	n/a	GoodResponse	1	0.0	n/a	10	66	ISIslide	Win	True
633.821	0.25	Control	0.6618	0.0	Yes	2.729	0.021	n/a	GoodResponse	0	n/a	n/a	10	67	Cue	Neutral	True
634.071	3.95	Control	0.6618	0.0	Yes	2.729	0.0	n/a	GoodResponse	0	n/a	n/a	10	67	Fixation	Neutral	True
638.019	0.35	Control	0.6618	0.002	Yes	2.729	-0.002	4.0	GoodResponse	0	0.191	637.21	10	67	Target	Neutral	True
638.21	0.3	Control	0.6618	0.002	Yes	2.729	-0.002	4.0	GoodResponse	0	0.191	n/a	10	67	ButtonPress	Neutral	True
638.369	0.35	Control	0.6618	n/a	Yes	2.729	n/a	n/a	GoodResponse	0	n/a	n/a	10	67	Blank	Neutral	True
638.719	1.45	Control	0.6618	n/a	Yes	2.729	n/a	5.0	GoodResponse	0	0.037	637.756	10	67	Feedback	Neutral	True
640.169	2.729	Control	0.6618	n/a	Yes	2.729	n/a	n/a	GoodResponse	0	0.0	n/a	10	67	ISIslide	Neutral	True
642.918	0.25	Win2	0.6667000000000001	0.0	Yes	3.082	0.018	n/a	GoodResponse	1	n/a	n/a	11	68	Cue	Win	True
643.168	4.0	Win2	0.6667000000000001	0.0	Yes	3.082	0.0	n/a	GoodResponse	1	n/a	n/a	11	68	Fixation	Win	True
647.166	0.35	Win2	0.6667000000000001	0.002	Yes	3.082	-0.002	4.0	GoodResponse	1	0.167	646.333	11	68	Target	Win	True
647.333	0.3	Win2	0.6667000000000001	0.002	Yes	3.082	-0.002	4.0	GoodResponse	1	0.167	n/a	11	68	ButtonPress	Win	True
647.516	0.35	Win2	0.6667000000000001	n/a	Yes	3.082	n/a	n/a	GoodResponse	1	n/a	n/a	11	68	Blank	Win	True
647.866	1.45	Win2	0.6667000000000001	n/a	Yes	3.082	n/a	5.0	GoodResponse	1	0.011	646.877	11	68	Feedback	Win	True
649.315	3.082	Win2	0.6667000000000001	n/a	Yes	3.082	n/a	n/a	GoodResponse	1	0.0	n/a	11	68	ISIslide	Win	True
652.414	0.25	Win2	0.6714	0.0	Yes	3.236	0.014	n/a	GoodResponse	1	n/a	n/a	12	69	Cue	Win	True
652.664	3.95	Win2	0.6714	0.0	Yes	3.236	0.0	n/a	GoodResponse	1	n/a	n/a	12	69	Fixation	Win	True
656.613	0.34	Win2	0.6714	0.001	Yes	3.236	-0.001	4.0	GoodResponse	1	0.188	655.801	12	69	Target	Win	True
656.801	0.3	Win2	0.6714	0.001	Yes	3.236	-0.001	4.0	GoodResponse	1	0.188	n/a	12	69	ButtonPress	Win	True
656.963	0.36	Win2	0.6714	n/a	Yes	3.236	n/a	n/a	GoodResponse	1	n/a	n/a	12	69	Blank	Win	True
657.313	1.45	Win2	0.6714	n/a	Yes	3.236	n/a	5.0	GoodResponse	1	0.027	656.34	12	69	Feedback	Win	True
658.762	3.236	Win2	0.6714	n/a	Yes	3.236	n/a	n/a	GoodResponse	1	0.0	n/a	12	69	ISIslide	Win	True
662.028	0.25	Lose2	0.6761	0.0	Yes	3.022	0.028	n/a	GoodResponse	0	n/a	n/a	12	70	Cue	AvoidedLoss	True
662.278	4.05	Lose2	0.6761	0.0	Yes	3.022	0.0	n/a	GoodResponse	0	n/a	n/a	12	70	Fixation	AvoidedLoss	True
666.326	0.33	Lose2	0.6761	0.002	Yes	3.022	-0.002	4.0	GoodResponse	0	0.183	665.509	12	70	Target	AvoidedLoss	True
666.509	0.3	Lose2	0.6761	0.002	Yes	3.022	-0.002	4.0	GoodResponse	0	0.183	n/a	12	70	ButtonPress	AvoidedLoss	True
666.659	0.37	Lose2	0.6761	n/a	Yes	3.022	n/a	n/a	GoodResponse	0	n/a	n/a	12	70	Blank	AvoidedLoss	True
667.026	1.45	Lose2	0.6761	n/a	Yes	3.022	n/a	5.0	GoodResponse	0	0.022	666.048	12	70	Feedback	AvoidedLoss	True
668.476	3.022	Lose2	0.6761	n/a	Yes	3.022	n/a	n/a	GoodResponse	0	0.0	n/a	12	70	ISIslide	AvoidedLoss	True
671.524	0.25	Win2	0.6806	0.001	Yes	2.726	0.024	n/a	GoodResponse	1	n/a	n/a	13	71	Cue	Win	True
671.774	4.05	Win2	0.6806	0.0	Yes	2.726	0.0	n/a	GoodResponse	1	n/a	n/a	13	71	Fixation	Win	True
675.823	0.32	Win2	0.6806	0.001	Yes	2.726	-0.001	4.0	GoodResponse	1	0.183	675.006	13	71	Target	Win	True
676.006	0.3	Win2	0.6806	0.001	Yes	2.726	-0.001	4.0	GoodResponse	1	0.183	n/a	13	71	ButtonPress	Win	True
676.14	0.38	Win2	0.6806	n/a	Yes	2.726	n/a	n/a	GoodResponse	1	n/a	n/a	13	71	Blank	Win	True
676.523	1.45	Win2	0.6806	n/a	Yes	2.726	n/a	5.0	GoodResponse	1	0.037	675.56	13	71	Feedback	Win	True
677.972	2.726	Win2	0.6806	n/a	Yes	2.726	n/a	n/a	GoodResponse	1	0.0	n/a	13	71	ISIslide	Win	True
680.721	0.25	Win2	0.6849	0.0	Yes	2.779	0.021	n/a	GoodResponse	1	n/a	n/a	14	72	Cue	Win	True
680.971	4.1	Win2	0.6849	0.0	Yes	2.779	0.0	n/a	GoodResponse	1	n/a	n/a	14	72	Fixation	Win	True
685.07	0.31	Win2	0.6849	0.001	Yes	2.779	-0.001	4.0	GoodResponse	1	0.192	684.262	14	72	Target	Win	True
685.262	0.3	Win2	0.6849	0.001	Yes	2.779	-0.001	4.0	GoodResponse	1	0.192	n/a	14	72	ButtonPress	Win	True
685.386	0.39	Win2	0.6849	n/a	Yes	2.779	n/a	n/a	GoodResponse	1	n/a	n/a	14	72	Blank	Win	True
685.77	1.45	Win2	0.6849	n/a	Yes	2.779	n/a	5.0	GoodResponse	1	0.01	684.78	14	72	Feedback	Win	True
687.219	2.779	Win2	0.6849	n/a	Yes	2.779	n/a	n/a	GoodResponse	1	0.0	n/a	14	72	ISIslide	Win	True
690.018	0.25	Win2	0.6892	0.0	Yes	2.682	0.018	n/a	GoodResponse	1	n/a	n/a	15	73	Cue	Win	True
690.268	4.0	Win2	0.6892	0.0	Yes	2.682	0.0	n/a	GoodResponse	1	n/a	n/a	15	73	Fixation	Win	True
694.267	0.3	Win2	0.6892	0.001	Yes	2.682	-0.001	4.0	GoodResponse	1	0.185	693.452	15	73	Target	Win	True
694.452	0.3	Win2	0.6892	0.001	Yes	2.682	-0.001	4.0	GoodResponse	1	0.185	n/a	15	73	ButtonPress	Win	True
694.567	0.4	Win2	0.6892	n/a	Yes	2.682	n/a	n/a	GoodResponse	1	n/a	n/a	15	73	Blank	Win	True
694.966	1.45	Win2	0.6892	n/a	Yes	2.682	n/a	5.0	GoodResponse	1	0.034	694.0	15	73	Feedback	Win	True
696.416	2.682	Win2	0.6892	n/a	Yes	2.682	n/a	n/a	GoodResponse	1	0.0	n/a	15	73	ISIslide	Win	True
699.115	0.25	Lose2	0.6933	0.0	Yes	2.635	0.015	n/a	GoodResponse	0	n/a	n/a	15	74	Cue	AvoidedLoss	True
699.365	4.05	Lose2	0.6933	0.0	Yes	2.635	0.0	n/a	GoodResponse	0	n/a	n/a	15	74	Fixation	AvoidedLoss	True
703.414	0.29	Lose2	0.6933	0.001	Yes	2.635	-0.001	4.0	GoodResponse	0	0.195	702.609	15	74	Target	AvoidedLoss	True
703.609	0.3	Lose2	0.6933	0.001	Yes	2.635	-0.001	4.0	GoodResponse	0	0.195	n/a	15	74	ButtonPress	AvoidedLoss	True
703.713	0.41	Lose2	0.6933	n/a	Yes	2.635	n/a	n/a	GoodResponse	0	n/a	n/a	15	74	Blank	AvoidedLoss	True
704.113	1.45	Lose2	0.6933	n/a	Yes	2.635	n/a	5.0	GoodResponse	0	0.009	703.122	15	74	Feedback	AvoidedLoss	True
705.563	2.635	Lose2	0.6933	n/a	Yes	2.635	n/a	n/a	GoodResponse	0	0.0	n/a	15	74	ISIslide	AvoidedLoss	True
708.229	0.25	Lose2	0.6973999999999999	0.0	Yes	2.921	0.029	n/a	GoodResponse	0	n/a	n/a	15	75	Cue	AvoidedLoss	True
708.478	3.95	Lose2	0.6973999999999999	0.001	Yes	2.921	-0.001	n/a	GoodResponse	0	n/a	n/a	15	75	Fixation	AvoidedLoss	True
712.427	0.28	Lose2	0.6973999999999999	0.002	Yes	2.921	-0.002	4.0	GoodResponse	0	0.126	711.553	15	75	Target	AvoidedLoss	True
712.553	0.3	Lose2	0.6973999999999999	0.002	Yes	2.921	-0.002	4.0	GoodResponse	0	0.126	n/a	15	75	ButtonPress	AvoidedLoss	True
712.71	0.42	Lose2	0.6973999999999999	n/a	Yes	2.921	n/a	n/a	GoodResponse	0	n/a	n/a	15	75	Blank	AvoidedLoss	True
713.127	1.45	Lose2	0.6973999999999999	n/a	Yes	2.921	n/a	5.0	GoodResponse	0	0.019	712.146	15	75	Feedback	AvoidedLoss	True
714.576	2.921	Lose2	0.6973999999999999	n/a	Yes	2.921	n/a	n/a	GoodResponse	0	0.0	n/a	15	75	ISIslide	AvoidedLoss	True
717.525	0.25	Control	0.7012999999999999	0.0	Yes	3.225	0.025	n/a	GoodResponse	0	n/a	n/a	15	76	Cue	Neutral	True
717.775	4.05	Control	0.7012999999999999	0.0	Yes	3.225	0.0	n/a	GoodResponse	0	n/a	n/a	15	76	Fixation	Neutral	True
721.824	0.27	Control	0.7012999999999999	0.001	Yes	3.225	-0.001	4.0	GoodResponse	0	0.222	721.046	15	76	Target	Neutral	True
722.046	0.3	Control	0.7012999999999999	0.001	Yes	3.225	-0.001	4.0	GoodResponse	0	0.222	n/a	15	76	ButtonPress	Neutral	True
722.09	0.43	Control	0.7012999999999999	n/a	Yes	3.225	n/a	n/a	GoodResponse	0	n/a	n/a	15	76	Blank	Neutral	True
722.524	1.45	Control	0.7012999999999999	n/a	Yes	3.225	n/a	5.0	GoodResponse	0	0.036	721.56	15	76	Feedback	Neutral	True
723.973	3.225	Control	0.7012999999999999	n/a	Yes	3.225	n/a	n/a	GoodResponse	0	0.0	n/a	15	76	ISIslide	Neutral	True
727.222	0.25	Lose2	0.7051000000000001	0.0	Yes	2.578	0.022	n/a	GoodResponse	0	n/a	n/a	15	77	Cue	AvoidedLoss	True
727.472	3.95	Lose2	0.7051000000000001	0.0	Yes	2.578	0.0	n/a	GoodResponse	0	n/a	n/a	15	77	Fixation	AvoidedLoss	True
731.421	0.26	Lose2	0.7051000000000001	0.001	Yes	2.578	-0.001	4.0	GoodResponse	0	0.181	730.602	15	77	Target	AvoidedLoss	True
731.602	0.3	Lose2	0.7051000000000001	0.001	Yes	2.578	-0.001	4.0	GoodResponse	0	0.181	n/a	15	77	ButtonPress	AvoidedLoss	True
731.687	0.44	Lose2	0.7051000000000001	n/a	Yes	2.578	n/a	n/a	GoodResponse	0	n/a	n/a	15	77	Blank	AvoidedLoss	True
732.12	1.45	Lose2	0.7051000000000001	n/a	Yes	2.578	n/a	5.0	GoodResponse	0	0.001	731.121	15	77	Feedback	AvoidedLoss	True
733.587	2.578	Lose2	0.7051000000000001	n/a	Yes	2.578	n/a	n/a	GoodResponse	0	0.0	n/a	15	77	ISIslide	AvoidedLoss	True
