onset	duration	cue_type	current_mean_accuracy	duration_error	is_hit	isi_adjusted	onset_delay	response	response_type	reward	rt	rt_time	total_reward	trial_number	trial_phase	trial_type	one_press
11.11	0.25	Control	1.0	0.0	Yes	2.94	0.01	n/a	GoodResponse	0	n/a	n/a	0	0	Cue	Neutral	True
11.36	3.85	Control	1.0	0.0	Yes	2.94	0.0	n/a	GoodResponse	0	n/a	n/a	0	0	Fixation	Neutral	True
15.209	0.4	Control	1.0	0.001	Yes	2.94	-0.001	2.0	GoodResponse	0	0.215	14.424	0	0	Target	Neutral	True
15.424	0.3	Control	1.0	0.001	Yes	2.94	-0.001	2.0	GoodResponse	0	0.215	n/a	0	0	ButtonPress	Neutral	True
15.608	0.3	Control	1.0	n/a	Yes	2.94	n/a	n/a	GoodResponse	0	n/a	n/a	0	0	Blank	Neutral	True
15.908	1.45	Control	1.0	n/a	Yes	2.94	n/a	5.0	GoodResponse	0	0.021	14.929	0	0	Feedback	Neutral	True
17.358	2.94	Control	1.0	n/a	Yes	2.94	n/a	n/a	GoodResponse	0	0.0	n/a	0	0	ISIslide	Neutral	True
20.324	0.25	Lose2	1.0	0.0	Yes	2.776	0.024	n/a	GoodResponse	0	n/a	n/a	0	1	Cue	AvoidedLoss	True
20.573	4.0	Lose2	1.0	0.001	Yes	2.776	-0.001	n/a	GoodResponse	0	n/a	n/a	0	1	Fixation	AvoidedLoss	True
24.572	0.39	Lose2	1.0	0.002	Yes	2.776	-0.002	2.0	GoodResponse	0	0.233	23.805	0	1	Target	AvoidedLoss	True
24.805	0.3	Lose2	1.0	0.002	Yes	2.776	-0.002	2.0	GoodResponse	0	0.233	n/a	0	1	ButtonPress	AvoidedLoss	True
24.972	0.31	Lose2	1.0	n/a	Yes	2.776	n/a	n/a	GoodResponse	0	n/a	n/a	0	1	Blank	AvoidedLoss	True
25.272	1.45	Lose2	1.0	n/a	Yes	2.776	n/a	5.0	GoodResponse	0	0.023	24.295	0	1	Feedback	AvoidedLoss	True
26.721	2.776	Lose2	1.0	n/a	Yes	2.776	n/a	n/a	GoodResponse	0	0.0	n/a	0	1	ISIslide	AvoidedLoss	True
29.52	0.25	Control	1.0	0.0	Yes	2.58	0.02	n/a	GoodResponse	0	n/a	n/a	0	2	Cue	Neutral	True
29.77	4.1	Control	1.0	0.0	Yes	2.58	0.0	n/a	GoodResponse	0	n/a	n/a	0	2	Fixation	Neutral	True
33.869	0.38	Control	1.0	0.001	Yes	2.58	-0.001	2.0	GoodResponse	0	0.216	33.085	0	2	Target	Neutral	True
34.085	0.3	Control	1.0	0.001	Yes	2.58	-0.001	2.0	GoodResponse	0	0.216	n/a	0	2	ButtonPress	Neutral	True
34.252	0.32	Control	1.0	n/a	Yes	2.58	n/a	n/a	GoodResponse	0	n/a	n/a	0	2	Blank	Neutral	True
34.569	1.45	Control	1.0	n/a	Yes	2.58	n/a	5.0	GoodResponse	0	0.043	33.612	0	2	Feedback	Neutral	True
36.018	2.58	Control	1.0	n/a	Yes	2.58	n/a	n/a	GoodResponse	0	0.0	n/a	0	2	ISIslide	Neutral	True
38.617	0.25	Win2	1.0	0.0	Yes	2.833	0.017	n/a	GoodResponse	1	n/a	n/a	1	3	Cue	Win	True
38.867	3.95	Win2	1.0	0.0	Yes	2.833	0.0	n/a	GoodResponse	1	n/a	n/a	1	3	Fixation	Win	True
42.816	0.37	Win2	1.0	0.001	Yes	2.833	-0.001	2.0	GoodResponse	1	0.218	42.034	1	3	Target	Win	True
43.034	0.3	Win2	1.0	0.001	Yes	2.833	-0.001	2.0	GoodResponse	1	0.218	n/a	1	3	ButtonPress	Win	True
43.199	0.33	Win2	1.0	n/a	Yes	2.833	n/a	n/a	GoodResponse	1	n/a	n/a	1	3	Blank	Win	True
43.515	1.45	Win2	1.0	n/a	Yes	2.833	n/a	5.0	GoodResponse	1	0.024	42.539	1	3	Feedback	Win	True
44.965	2.833	Win2	1.0	n/a	Yes	2.833	n/a	n/a	GoodResponse	1	0.0	n/a	1	3	ISIslide	Win	True
47.814	0.25	Win2	1.0	0.0	Yes	3.286	0.014	n/a	GoodResponse	1	n/a	n/a	2	4	Cue	Win	True
48.064	4.0	Win2	1.0	0.0	Yes	3.286	0.0	n/a	GoodResponse	1	n/a	n/a	2	4	Fixation	Win	True
52.062	0.36	Win2	1.0	0.002	Yes	3.286	-0.002	2.0	GoodResponse	1	0.23	51.292	2	4	Target	Win	True
52.292	0.3	Win2	1.0	0.002	Yes	3.286	-0.002	2.0	GoodResponse	1	0.23	n/a	2	4	ButtonPress	Win	True
52.429	0.34	Win2	1.0	n/a	Yes	3.286	n/a	n/a	GoodResponse	1	n/a	n/a	2	4	Blank	Win	True
52.762	1.45	Win2	1.0	n/a	Yes	3.286	n/a	5.0	GoodResponse	1	0.045	51.807	2	4	Feedback	Win	True
54.212	3.286	Win2	1.0	n/a	Yes	3.286	n/a	n/a	GoodResponse	1	0.0	n/a	2	4	ISIslide	Win	True
57.527	0.25	Win2	1.0	0.0	Yes	2.773	0.027	n/a	GoodResponse	1	n/a	n/a	3	5	Cue	Win	True
57.777	4.0	Win2	1.0	0.0	Yes	2.773	0.0	n/a	GoodResponse	1	n/a	n/a	3	5	Fixation	Win	True
61.776	0.35	Win2	1.0	0.001	Yes	2.773	-0.001	2.0	GoodResponse	1	0.226	61.002	3	5	Target	Win	True
62.002	0.3	Win2	1.0	0.001	Yes	2.773	-0.001	2.0	GoodResponse	1	0.226	n/a	3	5	ButtonPress	Win	True
62.126	0.35	Win2	1.0	n/a	Yes	2.773	n/a	n/a	GoodResponse	1	n/a	n/a	3	5	Blank	Win	True
62.475	1.45	Win2	1.0	n/a	Yes	2.773	n/a	5.0	GoodResponse	1	0.04	61.515	3	5	Feedback	Win	True
63.925	2.773	Win2	1.0	n/a	Yes	2.773	n/a	n/a	GoodResponse	1	0.0	n/a	3	5	ISIslide	Win	True
66.724	0.25	Lose2	1.0	0.0	Yes	2.726	0.024	n/a	GoodResponse	0	n/a	n/a	3	6	Cue	AvoidedLoss	True
66.974	3.95	Lose2	1.0	0.0	Yes	2.726	0.0	n/a	GoodResponse	0	n/a	n/a	3	6	Fixation	AvoidedLoss	True
70.923	0.34	Lose2	1.0	0.001	Yes	2.726	-0.001	2.0	GoodResponse	0	0.221	70.144	3	6	Target	AvoidedLoss	True
71.144	0.3	Lose2	1.0	0.001	Yes	2.726	-0.001	2.0	GoodResponse	0	0.221	n/a	3	6	ButtonPress	AvoidedLoss	True
71.272	0.36	Lose2	1.0	n/a	Yes	2.726	n/a	n/a	GoodResponse	0	n/a	n/a	3	6	Blank	AvoidedLoss	True
71.622	1.45	Lose2	1.0	n/a	Yes	2.726	n/a	5.0	GoodResponse	0	0.014	70.636	3	6	Feedback	AvoidedLoss	True
73.072	2.726	Lose2	1.0	n/a	Yes	2.726	n/a	n/a	GoodResponse	0	0.0	n/a	3	6	ISIslide	AvoidedLoss	True
75.821	0.25	Lose2	1.0	0.0	Yes	4.029	0.021	n/a	GoodResponse	0	n/a	n/a	3	7	Cue	AvoidedLoss	True
76.071	4.05	Lose2	1.0	0.0	Yes	4.029	0.0	n/a	GoodResponse	0	n/a	n/a	3	7	Fixation	AvoidedLoss	True
80.119	0.33	Lose2	1.0	0.002	Yes	4.029	-0.002	2.0	GoodResponse	0	0.217	79.336	3	7	Target	AvoidedLoss	True
80.336	0.3	Lose2	1.0	0.002	Yes	4.029	-0.002	2.0	GoodResponse	0	0.217	n/a	3	7	ButtonPress	AvoidedLoss	True
80.453	0.37	Lose2	1.0	n/a	Yes	4.029	n/a	n/a	GoodResponse	0	n/a	n/a	3	7	Blank	AvoidedLoss	True
80.819	1.45	Lose2	1.0	n/a	Yes	4.029	n/a	5.0	GoodResponse	0	0.036	79.855	3	7	Feedback	AvoidedLoss	True
82.269	4.029	Lose2	1.0	n/a	Yes	4.029	n/a	n/a	GoodResponse	0	0.0	n/a	3	7	ISIslide	AvoidedLoss	True
86.317	0.25	Lose2	1.0	0.0	Yes	3.033	0.017	n/a	GoodResponse	0	n/a	n/a	3	8	Cue	AvoidedLoss	False
86.567	3.95	Lose2	1.0	0.0	Yes	3.033	0.0	2.0	GoodResponse	0	0.005	85.572	3	8	Fixation	AvoidedLoss	False
86.572	0.3	Lose2	1.0	0.0	Yes	3.033	0.0	2.0	GoodResponse	0	0.005	n/a	3	8	ButtonPress	AvoidedLoss	False
90.516	0.32	Lose2	1.0	0.001	Yes	3.033	-0.001	2.0	GoodResponse	0	0.234	89.75	3	8	Target	AvoidedLoss	False
90.75	0.3	Lose2	1.0	0.001	Yes	3.033	-0.001	2.0	GoodResponse	0	0.234	n/a	3	8	ButtonPress	AvoidedLoss	False
90.849	0.38	Lose2	1.0	n/a	Yes	3.033	n/a	n/a	GoodResponse	0	n/a	n/a	3	8	Blank	AvoidedLoss	False
91.215	1.45	Lose2	1.0	n/a	Yes	3.033	n/a	5.0	GoodResponse	0	0.031	90.246	3	8	Feedback	AvoidedLoss	False
92.665	3.033	Lose2	1.0	n/a	Yes	3.033	n/a	n/a	GoodResponse	0	0.0	n/a	3	8	ISIslide	AvoidedLoss	False
95.714	0.25	Lose2	1.0	0.0	Yes	3.136	0.014	n/a	GoodResponse	0	n/a	n/a	3	9	Cue	AvoidedLoss	True
95.964	3.95	Lose2	1.0	0.0	Yes	3.136	0.0	n/a	GoodResponse	0	n/a	n/a	3	9	Fixation	AvoidedLoss	True
99.912	0.31	Lose2	1.0	0.002	Yes	3.136	-0.002	2.0	GoodResponse	0	0.234	99.146	3	9	Target	AvoidedLoss	True
100.146	0.3	Lose2	1.0	0.002	Yes	3.136	-0.002	2.0	GoodResponse	0	0.234	n/a	3	9	ButtonPress	AvoidedLoss	True
100.229	0.39	Lose2	1.0	n/a	Yes	3.136	n/a	n/a	GoodResponse	0	n/a	n/a	3	9	Blank	AvoidedLoss	True
100.612	1.45	Lose2	1.0	n/a	Yes	3.136	n/a	5.0	GoodResponse	0	0.048	99.66	3	9	Feedback	AvoidedLoss	True
102.062	3.136	Lose2	1.0	n/a	Yes	3.136	n/a	n/a	GoodResponse	0	0.0	n/a	3	9	ISIslide	AvoidedLoss	True
105.211	0.25	Control	1.0	0.0	Yes	3.289	0.011	n/a	GoodResponse	0	n/a	n/a	3	10	Cue	Neutral	True
105.46	4.0	Control	1.0	0.001	Yes	3.289	-0.001	n/a	GoodResponse	0	n/a	n/a	3	10	Fixation	Neutral	True
109.459	0.3	Control	1.0	0.002	Yes	3.289	-0.002	2.0	GoodResponse	0	0.212	108.671	3	10	Target	Neutral	True
109.671	0.3	Control	1.0	0.002	Yes	3.289	-0.002	2.0	GoodResponse	0	0.212	n/a	3	10	ButtonPress	Neutral	True
109.759	0.4	Control	1.0	n/a	Yes	3.289	n/a	n/a	GoodResponse	0	n/a	n/a	3	10	Blank	Neutral	True
110.159	1.45	Control	1.0	n/a	Yes	3.289	n/a	5.0	GoodResponse	0	0.014	109.173	3	10	Feedback	Neutral	True
111.608	3.289	Control	1.0	n/a	Yes	3.289	n/a	n/a	GoodResponse	0	0.0	n/a	3	10	ISIslide	Neutral	True
114.924	0.25	Lose2	1.0	0.0	Yes	2.726	0.024	n/a	GoodResponse	0	n/a	n/a	3	11	Cue	AvoidedLoss	True
115.174	4.05	Lose2	1.0	0.0	Yes	2.726	0.0	n/a	GoodResponse	0	n/a	n/a	3	11	Fixation	AvoidedLoss	True
119.222	0.29	Lose2	1.0	0.002	Yes	2.726	-0.002	2.0	GoodResponse	0	0.216	118.438	3	11	Target	AvoidedLoss	True
119.438	0.3	Lose2	1.0	0.002	Yes	2.726	-0.002	2.0	GoodResponse	0	0.216	n/a	3	11	ButtonPress	AvoidedLoss	True
119.522	0.41	Lose2	1.0	n/a	Yes	2.726	n/a	n/a	GoodResponse	0	n/a	n/a	3	11	Blank	AvoidedLoss	True
119.922	1.45	Lose2	1.0	n/a	Yes	2.726	n/a	5.0	GoodResponse	0	0.006	118.928	3	11	Feedback	AvoidedLoss	True
121.372	2.726	Lose2	1.0	n/a	Yes	2.726	n/a	n/a	GoodResponse	0	0.0	n/a	3	11	ISIslide	AvoidedLoss	True
124.121	0.25	Control	1.0	0.0	Yes	2.979	0.021	n/a	GoodResponse	0	n/a	n/a	3	12	Cue	Neutral	True
124.371	3.9	Control	1.0	0.0	Yes	2.979	0.0	n/a	GoodResponse	0	n/a	n/a	3	12	Fixation	Neutral	True
128.269	0.28	Control	1.0	0.002	Yes	2.979	-0.002	2.0	GoodResponse	0	0.219	127.488	3	12	Target	Neutral	True
128.488	0.3	Control	1.0	0.002	Yes	2.979	-0.002	2.0	GoodResponse	0	0.219	n/a	3	12	ButtonPress	Neutral	True
128.552	0.42	Control	1.0	n/a	Yes	2.979	n/a	n/a	GoodResponse	0	n/a	n/a	3	12	Blank	Neutral	True
128.969	1.45	Control	1.0	n/a	Yes	2.979	n/a	5.0	GoodResponse	0	0.032	128.001	3	12	Feedback	Neutral	True
130.418	2.979	Control	1.0	n/a	Yes	2.979	n/a	n/a	GoodResponse	0	0.0	n/a	3	12	ISIslide	Neutral	True
133.417	0.25	Control	1.0	0.0	Yes	2.783	0.017	n/a	GoodResponse	0	n/a	n/a	3	13	Cue	Neutral	True
133.667	4.0	Control	1.0	0.0	Yes	2.783	0.0	n/a	GoodResponse	0	n/a	n/a	3	13	Fixation	Neutral	True
137.666	0.27	Control	1.0	0.001	Yes	2.783	-0.001	2.0	GoodResponse	0	0.204	136.87	3	13	Target	Neutral	True
137.87	0.3	Control	1.0	0.001	Yes	2.783	-0.001	2.0	GoodResponse	0	0.204	n/a	3	13	ButtonPress	Neutral	True
137.932	0.43	Control	1.0	n/a	Yes	2.783	n/a	n/a	GoodResponse	0	n/a	n/a	3	13	Blank	Neutral	True
138.366	1.45	Control	1.0	n/a	Yes	2.783	n/a	5.0	GoodResponse	0	0.001	137.367	3	13	Feedback	Neutral	True
139.815	2.783	Control	1.0	n/a	Yes	2.783	n/a	n/a	GoodResponse	0	0.0	n/a	3	13	ISIslide	Neutral	True
142.614	0.25	Win2	1.0	0.0	Yes	2.686	0.014	n/a	GoodResponse	1	n/a	n/a	4	14	Cue	Win	True
142.864	4.1	Win2	1.0	0.0	Yes	2.686	0.0	n/a	GoodResponse	1	n/a	n/a	4	14	Fixation	Win	True
146.963	0.26	Win2	1.0	0.001	Yes	2.686	-0.001	2.0	GoodResponse	1	0.193	146.156	4	14	Target	Win	True
147.156	0.3	Win2	1.0	0.001	Yes	2.686	-0.001	2.0	GoodResponse	1	0.193	n/a	4	14	ButtonPress	Win	True
147.229	0.44	Win2	1.0	n/a	Yes	2.686	n/a	n/a	GoodResponse	1	n/a	n/a	4	14	Blank	Win	True
147.662	1.45	Win2	1.0	n/a	Yes	2.686	n/a	5.0	GoodResponse	1	0.022	146.684	4	14	Feedback	Win	True
149.112	2.686	Win2	1.0	n/a	Yes	2.686	n/a	n/a	GoodResponse	1	0.0	n/a	4	14	ISIslide	Win	True
151.828	0.25	Control	1.0	0.0	Yes	2.972	0.028	n/a	GoodResponse	0	n/a	n/a	4	15	Cue	Neutral	True
152.078	4.0	Control	1.0	0.0	Yes	2.972	0.0	n/a	GoodResponse	0	n/a	n/a	4	15	Fixation	Neutral	True
156.076	0.25	Control	1.0	0.002	Yes	2.972	-0.002	2.0	GoodResponse	0	0.206	155.282	4	15	Target	Neutral	True
156.282	0.3	Control	1.0	0.002	Yes	2.972	-0.002	2.0	GoodResponse	0	0.206	n/a	4	15	ButtonPress	Neutral	True
156.326	0.45	Control	1.0	n/a	Yes	2.972	n/a	n/a	GoodResponse	0	n/a	n/a	4	15	Blank	Neutral	True
156.776	1.45	Control	1.0	n/a	Yes	2.972	n/a	5.0	GoodResponse	0	0.031	155.807	4	15	Feedback	Neutral	True
158.225	2.972	Control	1.0	n/a	Yes	2.972	n/a	n/a	GoodResponse	0	0.0	n/a	4	15	ISIslide	Neutral	True
161.224	0.25	Win2	1.0	0.0	Yes	2.876	0.024	n/a	GoodResponse	1	n/a	n/a	5	16	Cue	Win	True
161.474	4.0	Win2	1.0	0.0	Yes	2.876	0.0	n/a	GoodResponse	1	n/a	n/a	5	16	Fixation	Win	True
165.473	0.24	Win2	1.0	0.001	Yes	2.876	-0.001	2.0	GoodResponse	1	0.224	164.697	5	16	Target	Win	True
165.697	0.3	Win2	1.0	0.001	Yes	2.876	-0.001	2.0	GoodResponse	1	0.224	n/a	5	16	ButtonPress	Win	True
165.723	0.46	Win2	1.0	n/a	Yes	2.876	n/a	n/a	GoodResponse	1	n/a	n/a	5	16	Blank	Win	True
166.173	1.45	Win2	1.0	n/a	Yes	2.876	n/a	5.0	GoodResponse	1	0.047	165.22	5	16	Feedback	Win	True
167.622	2.876	Win2	1.0	n/a	Yes	2.876	n/a	n/a	GoodResponse	1	0.0	n/a	5	16	ISIslide	Win	True
170.521	0.25	Lose2	1.0	0.0	Yes	2.729	0.021	n/a	GoodResponse	0	n/a	n/a	5	17	Cue	AvoidedLoss	True
170.771	3.95	Lose2	1.0	0.0	Yes	2.729	0.0	n/a	GoodResponse	0	n/a	n/a	5	17	Fixation	AvoidedLoss	True
174.72	0.23	Lose2	1.0	0.001	Yes	2.729	-0.001	2.0	GoodResponse	0	0.203	173.923	5	17	Target	AvoidedLoss	True
174.923	0.3	Lose2	1.0	0.001	Yes	2.729	-0.001	2.0	GoodResponse	0	0.203	n/a	5	17	ButtonPress	AvoidedLoss	True
174.953	0.47	Lose2	1.0	n/a	Yes	2.729	n/a	n/a	GoodResponse	0	n/a	n/a	5	17	Blank	AvoidedLoss	True
175.419	1.45	Lose2	1.0	n/a	Yes	2.729	n/a	5.0	GoodResponse	0	0.021	174.44	5	17	Feedback	AvoidedLoss	True
176.869	2.729	Lose2	1.0	n/a	Yes	2.729	n/a	n/a	GoodResponse	0	0.0	n/a	5	17	ISIslide	AvoidedLoss	True
179.618	0.25	Lose2	1.0	0.0	Yes	2.732	0.018	n/a	GoodResponse	0	n/a	n/a	5	18	Cue	AvoidedLoss	True
179.868	4.05	Lose2	1.0	0.0	Yes	2.732	0.0	n/a	GoodResponse	0	n/a	n/a	5	18	Fixation	AvoidedLoss	True
183.916	0.22	Lose2	1.0	0.002	Yes	2.732	-0.002	2.0	GoodResponse	0	0.201	183.117	5	18	Target	AvoidedLoss	True
184.117	0.3	Lose2	1.0	0.002	Yes	2.732	-0.002	2.0	GoodResponse	0	0.201	n/a	5	18	ButtonPress	AvoidedLoss	True
184.15	0.48	Lose2	1.0	n/a	Yes	2.732	n/a	n/a	GoodResponse	0	n/a	n/a	5	18	Blank	AvoidedLoss	True
184.616	1.45	Lose2	1.0	n/a	Yes	2.732	n/a	5.0	GoodResponse	0	0.044	183.66	5	18	Feedback	AvoidedLoss	True
186.066	2.732	Lose2	1.0	n/a	Yes	2.732	n/a	n/a	GoodResponse	0	0.0	n/a	5	18	ISIslide	AvoidedLoss	True
188.815	0.25	Control	1.0	0.0	Yes	2.935	0.015	n/a	GoodResponse	0	n/a	n/a	5	19	Cue	Neutral	True
189.065	3.95	Control	1.0	0.0	Yes	2.935	0.0	n/a	GoodResponse	0	n/a	n/a	5	19	Fixation	Neutral	True
193.013	0.21	Control	1.0	0.002	Yes	2.935	-0.002	2.0	GoodResponse	0	0.209	192.222	5	19	Target	Neutral	True
193.222	0.3	Control	1.0	0.002	Yes	2.935	-0.002	2.0	GoodResponse	0	0.209	n/a	5	19	ButtonPress	Neutral	True
193.23	0.49	Control	1.0	n/a	Yes	2.935	n/a	n/a	GoodResponse	0	n/a	n/a	5	19	Blank	Neutral	True
193.713	1.45	Control	1.0	n/a	Yes	2.935	n/a	5.0	GoodResponse	0	0.02	192.733	5	19	Feedback	Neutral	True
195.163	2.935	Control	1.0	n/a	Yes	2.935	n/a	n/a	GoodResponse	0	0.0	n/a	5	19	ISIslide	Neutral	True
198.128	0.25	Control	0.9523999999999999	0.0	No	2.622	0.028	n/a	NoResponse	0	n/a	n/a	5	20	Cue	Neutral	True
198.378	4.05	Control	0.9523999999999999	0.0	No	2.622	0.0	n/a	NoResponse	0	n/a	n/a	5	20	Fixation	Neutral	True
202.427	0.2	Control	0.9523999999999999	0.001	No	2.622	-0.001	2.0	NoResponse	0	0.206	201.633	5	20	Target	Neutral	True
202.627	0.5	Control	0.9523999999999999	n/a	No	2.622	n/a	n/a	NoResponse	0	n/a	n/a	5	20	Blank	Neutral	True
202.633	0.3	Control	0.9523999999999999	0.001	No	2.622	-0.001	2.0	NoResponse	0	0.206	n/a	5	20	ButtonPress	Neutral	True
203.126	1.45	Control	0.9523999999999999	n/a	No	2.622	n/a	5.0	NoResponse	0	0.022	202.148	5	20	Feedback	Neutral	True
204.576	2.622	Control	0.9523999999999999	n/a	No	2.622	n/a	n/a	NoResponse	0	0.0	n/a	5	20	ISIslide	Neutral	True
207.225	0.25	Control	0.9091	0.0	No	2.775	0.025	n/a	NoResponse	0	n/a	n/a	5	21	Cue	Neutral	True
207.475	4.1	Control	0.9091	0.0	No	2.775	0.0	n/a	NoResponse	0	n/a	n/a	5	21	Fixation	Neutral	True
211.573	0.19	Control	0.9091	0.002	No	2.775	-0.002	2.0	NoResponse	0	0.231	210.804	5	21	Target	Neutral	True
211.773	0.51	Control	0.9091	n/a	No	2.775	n/a	n/a	NoResponse	0	n/a	n/a	5	21	Blank	Neutral	True
211.804	0.3	Control	0.9091	0.002	No	2.775	-0.002	2.0	NoResponse	0	0.231	n/a	5	21	ButtonPress	Neutral	True
212.273	1.45	Control	0.9091	n/a	No	2.775	n/a	5.0	NoResponse	0	0.045	211.318	5	21	Feedback	Neutral	True
213.723	2.775	Control	0.9091	n/a	No	2.775	n/a	n/a	NoResponse	0	0.0	n/a	5	21	ISIslide	Neutral	True
216.522	0.25	Control	0.9129999999999999	0.0	Yes	2.778	0.022	n/a	GoodResponse	0	n/a	n/a	5	22	Cue	Neutral	True
216.772	4.0	Control	0.9129999999999999	0.0	Yes	2.778	0.0	n/a	GoodResponse	0	n/a	n/a	5	22	Fixation	Neutral	True
220.77	0.18	Control	0.9129999999999999	0.002	Yes	2.778	-0.002	2.0	GoodResponse	0	0.178	219.948	5	22	Target	Neutral	True
220.948	0.3	Control	0.9129999999999999	0.002	Yes	2.778	-0.002	2.0	GoodResponse	0	0.178	n/a	5	22	ButtonPress	Neutral	True
220.954	0.52	Control	0.9129999999999999	n/a	Yes	2.778	n/a	n/a	GoodResponse	0	n/a	n/a	5	22	Blank	Neutral	True
221.47	1.45	Control	0.9129999999999999	n/a	Yes	2.778	n/a	5.0	GoodResponse	0	0.018	220.488	5	22	Feedback	Neutral	True
222.919	2.778	Control	0.9129999999999999	n/a	Yes	2.778	n/a	n/a	GoodResponse	0	0.0	n/a	5	22	ISIslide	Neutral	True
225.719	0.25	Control	0.875	0.0	No	2.781	0.019	n/a	NoResponse	0	n/a	n/a	5	23	Cue	Neutral	True
225.968	3.9	Control	0.875	0.001	No	2.781	-0.001	n/a	NoResponse	0	n/a	n/a	5	23	Fixation	Neutral	True
229.867	0.17	Control	0.875	0.002	No	2.781	-0.002	2.0	NoResponse	0	0.201	229.068	5	23	Target	Neutral	True
230.05	0.53	Control	0.875	n/a	No	2.781	n/a	n/a	NoResponse	0	n/a	n/a	5	23	Blank	Neutral	True
230.068	0.3	Control	0.875	0.002	No	2.781	-0.002	2.0	NoResponse	0	0.201	n/a	5	23	ButtonPress	Neutral	True
230.567	1.45	Control	0.875	n/a	No	2.781	n/a	5.0	NoResponse	0	0.043	229.61	5	23	Feedback	Neutral	True
232.016	2.781	Control	0.875	n/a	No	2.781	n/a	n/a	NoResponse	0	0.0	n/a	5	23	ISIslide	Neutral	True
234.815	0.25	Win2	0.84	0.0	No	3.135	0.015	n/a	NoResponse	0	n/a	n/a	5	24	Cue	MissedWin	True
235.065	3.95	Win2	0.84	0.0	No	3.135	0.0	2.0	NoResponse	0	3.789	237.854	5	24	Fixation	MissedWin	True
238.854	0.3	Win2	0.84	0.0	No	3.135	0.0	2.0	NoResponse	0	3.789	n/a	5	24	ButtonPress	MissedWin	True
239.014	0.16	Win2	0.84	0.001	No	3.135	-0.001	n/a	NoResponse	0	n/a	n/a	5	24	Target	MissedWin	True
239.18	0.54	Win2	0.84	n/a	No	3.135	n/a	n/a	NoResponse	0	n/a	n/a	5	24	Blank	MissedWin	True
239.714	1.45	Win2	0.84	n/a	No	3.135	n/a	5.0	NoResponse	0	0.018	238.732	5	24	Feedback	MissedWin	True
241.163	3.135	Win2	0.84	n/a	No	3.135	n/a	n/a	NoResponse	0	0.0	n/a	5	24	ISIslide	MissedWin	True
244.312	0.25	Win2	0.8077	0.0	No	3.088	0.012	n/a	NoResponse	0	n/a	n/a	5	25	Cue	MissedWin	True
244.562	4.0	Win2	0.8077	0.0	No	3.088	0.0	n/a	NoResponse	0	n/a	n/a	5	25	Fixation	MissedWin	True
248.561	0.15	Win2	0.8077	0.001	No	3.088	-0.001	2.0	NoResponse	0	0.199	247.76	5	25	Target	MissedWin	True
248.71	0.55	Win2	0.8077	n/a	No	3.088	n/a	n/a	NoResponse	0	n/a	n/a	5	25	Blank	MissedWin	True
248.76	0.3	Win2	0.8077	0.001	No	3.088	-0.001	2.0	NoResponse	0	0.199	n/a	5	25	ButtonPress	MissedWin	True
249.26	1.45	Win2	0.8077	n/a	No	3.088	n/a	5.0	NoResponse	0	0.034	248.294	5	25	Feedback	MissedWin	True
250.71	3.088	Win2	0.8077	n/a	No	3.088	n/a	n/a	NoResponse	0	0.0	n/a	5	25	ISIslide	MissedWin	True
253.825	0.25	Win2	0.7778	0.0	No	2.925	0.025	n/a	NoResponse	0	n/a	n/a	5	26	Cue	MissedWin	True
254.075	3.95	Win2	0.7778	0.0	No	2.925	0.0	n/a	NoResponse	0	n/a	n/a	5	26	Fixation	MissedWin	True
258.024	0.15	Win2	0.7778	0.001	No	2.925	-0.001	2.0	NoResponse	0	0.203	257.227	5	26	Target	MissedWin	True
258.174	0.55	Win2	0.7778	n/a	No	2.925	n/a	n/a	NoResponse	0	n/a	n/a	5	26	Blank	MissedWin	True
258.227	0.3	Win2	0.7778	0.001	No	2.925	-0.001	2.0	NoResponse	0	0.203	n/a	5	26	ButtonPress	MissedWin	True
258.724	1.45	Win2	0.7778	n/a	No	2.925	n/a	5.0	NoResponse	0	0.033	257.757	5	26	Feedback	MissedWin	True
260.173	2.925	Win2	0.7778	n/a	No	2.925	n/a	n/a	NoResponse	0	0.0	n/a	5	26	ISIslide	MissedWin	True
263.122	0.25	Lose2	0.75	0.0	No	2.828	0.022	n/a	NoResponse	-1	n/a	n/a	4	27	Cue	Loss	True
263.372	4.05	Lose2	0.75	0.0	No	2.828	0.0	n/a	NoResponse	-1	n/a	n/a	4	27	Fixation	Loss	True
267.421	0.15	Lose2	0.75	0.001	No	2.828	-0.001	2.0	NoResponse	-1	0.192	266.613	4	27	Target	Loss	True
267.571	0.55	Lose2	0.75	n/a	No	2.828	n/a	n/a	NoResponse	-1	n/a	n/a	4	27	Blank	Loss	True
267.613	0.3	Lose2	0.75	0.001	No	2.828	-0.001	2.0	NoResponse	-1	0.192	n/a	4	27	ButtonPress	Loss	True
268.12	1.45	Lose2	0.75	n/a	No	2.828	n/a	5.0	NoResponse	-1	0.004	267.124	4	27	Feedback	Loss	True
269.57	2.828	Lose2	0.75	n/a	No	2.828	n/a	n/a	NoResponse	-1	0.0	n/a	4	27	ISIslide	Loss	True
272.419	0.25	Control	0.7241	0.0	No	2.831	0.019	n/a	NoResponse	0	n/a	n/a	4	28	Cue	Neutral	True
272.669	4.05	Control	0.7241	0.0	No	2.831	0.0	n/a	NoResponse	0	n/a	n/a	4	28	Fixation	Neutral	True
276.717	0.15	Control	0.7241	0.002	No	2.831	-0.002	2.0	NoResponse	0	0.217	275.934	4	28	Target	Neutral	True
276.867	0.55	Control	0.7241	n/a	No	2.831	n/a	n/a	NoResponse	0	n/a	n/a	4	28	Blank	Neutral	True
276.934	0.3	Control	0.7241	0.002	No	2.831	-0.002	2.0	NoResponse	0	0.217	n/a	4	28	ButtonPress	Neutral	True
277.417	1.45	Control	0.7241	n/a	No	2.831	n/a	5.0	NoResponse	0	0.022	276.439	4	28	Feedback	Neutral	True
278.867	2.831	Control	0.7241	n/a	No	2.831	n/a	n/a	NoResponse	0	0.0	n/a	4	28	ISIslide	Neutral	True
281.716	0.25	Lose2	0.7	0.0	No	2.834	0.016	n/a	NoResponse	-1	n/a	n/a	3	29	Cue	Loss	True
281.966	3.95	Lose2	0.7	0.0	No	2.834	0.0	n/a	NoResponse	-1	n/a	n/a	3	29	Fixation	Loss	True
285.914	0.15	Lose2	0.7	0.002	No	2.834	-0.002	2.0	NoResponse	-1	0.169	285.083	3	29	Target	Loss	True
286.064	0.55	Lose2	0.7	n/a	No	2.834	n/a	n/a	NoResponse	-1	n/a	n/a	3	29	Blank	Loss	True
286.083	0.3	Lose2	0.7	0.002	No	2.834	-0.002	2.0	NoResponse	-1	0.169	n/a	3	29	ButtonPress	Loss	True
286.614	1.45	Lose2	0.7	n/a	No	2.834	n/a	5.0	NoResponse	-1	0.045	285.659	3	29	Feedback	Loss	True
288.063	2.834	Lose2	0.7	n/a	No	2.834	n/a	n/a	NoResponse	-1	0.0	n/a	3	29	ISIslide	Loss	True
290.912	0.25	Win2	0.6774	0.001	No	2.788	0.012	n/a	NoResponse	0	n/a	n/a	3	30	Cue	MissedWin	True
291.162	3.9	Win2	0.6774	0.0	No	2.788	0.0	n/a	NoResponse	0	n/a	n/a	3	30	Fixation	MissedWin	True
295.061	0.15	Win2	0.6774	0.001	No	2.788	-0.001	2.0	NoResponse	0	0.179	294.24	3	30	Target	MissedWin	True
295.211	0.55	Win2	0.6774	n/a	No	2.788	n/a	n/a	NoResponse	0	n/a	n/a	3	30	Blank	MissedWin	True
295.24	0.3	Win2	0.6774	0.001	No	2.788	-0.001	2.0	NoResponse	0	0.179	n/a	3	30	ButtonPress	MissedWin	True
295.761	1.45	Win2	0.6774	n/a	No	2.788	n/a	5.0	NoResponse	0	0.02	294.781	3	30	Feedback	MissedWin	True
297.21	2.788	Win2	0.6774	n/a	No	2.788	n/a	n/a	NoResponse	0	0.0	n/a	3	30	ISIslide	MissedWin	True
300.026	0.25	Lose2	0.6562	0.0	No	2.824	0.026	n/a	NoResponse	-1	n/a	n/a	2	31	Cue	Loss	True
300.276	4.05	Lose2	0.6562	0.0	No	2.824	0.0	n/a	NoResponse	-1	n/a	n/a	2	31	Fixation	Loss	True
304.324	0.15	Lose2	0.6562	0.002	No	2.824	-0.002	2.0	NoResponse	-1	0.178	303.502	2	31	Target	Loss	True
304.474	0.55	Lose2	0.6562	n/a	No	2.824	n/a	n/a	NoResponse	-1	n/a	n/a	2	31	Blank	Loss	True
304.502	0.3	Lose2	0.6562	0.002	No	2.824	-0.002	2.0	NoResponse	-1	0.178	n/a	2	31	ButtonPress	Loss	True
305.024	1.45	Lose2	0.6562	n/a	No	2.824	n/a	5.0	NoResponse	-1	0.025	304.049	2	31	Feedback	Loss	True
306.474	2.824	Lose2	0.6562	n/a	No	2.824	n/a	n/a	NoResponse	-1	0.0	n/a	2	31	ISIslide	Loss	True
309.323	0.25	Lose2	0.6364	0.0	No	2.627	0.023	n/a	NoResponse	-1	n/a	n/a	1	32	Cue	Loss	True
309.573	4.15	Lose2	0.6364	0.0	No	2.627	0.0	n/a	NoResponse	-1	n/a	n/a	1	32	Fixation	Loss	True
313.721	0.15	Lose2	0.6364	0.002	No	2.627	-0.002	2.0	NoResponse	-1	0.229	312.95	1	32	Target	Loss	True
313.871	0.55	Lose2	0.6364	n/a	No	2.627	n/a	n/a	NoResponse	-1	n/a	n/a	1	32	Blank	Loss	True
313.95	0.3	Lose2	0.6364	0.002	No	2.627	-0.002	2.0	NoResponse	-1	0.229	n/a	1	32	ButtonPress	Loss	True
314.421	1.45	Lose2	0.6364	n/a	No	2.627	n/a	5.0	NoResponse	-1	0.043	313.464	1	32	Feedback	Loss	True
315.87	2.627	Lose2	0.6364	n/a	No	2.627	n/a	n/a	NoResponse	-1	0.0	n/a	1	32	ISIslide	Loss	True
318.519	0.25	Win2	0.6175999999999999	0.001	No	2.681	0.019	n/a	PrematurePress	0	n/a	n/a	1	33	Cue	MissedWin	True
318.769	4.0	Win2	0.6175999999999999	0.0	No	2.681	0.0	n/a	PrematurePress	0	n/a	n/a	1	33	Fixation	MissedWin	True
322.768	0.16	Win2	0.6175999999999999	0.001	No	2.681	-0.001	2.0	PrematurePress	0	0.058	321.826	1	33	Target	MissedWin	True
322.826	0.3	Win2	0.6175999999999999	0.001	No	2.681	-0.001	2.0	PrematurePress	0	0.058	n/a	1	33	ButtonPress	MissedWin	True
322.935	0.54	Win2	0.6175999999999999	n/a	No	2.681	n/a	n/a	PrematurePress	0	n/a	n/a	1	33	Blank	MissedWin	True
323.468	1.45	Win2	0.6175999999999999	n/a	No	2.681	n/a	5.0	PrematurePress	0	0.02	322.488	1	33	Feedback	MissedWin	True
324.917	2.681	Win2	0.6175999999999999	n/a	No	2.681	n/a	n/a	PrematurePress	0	0.0	n/a	1	33	ISIslide	MissedWin	True
327.616	0.25	Lose2	0.6	0.0	No	2.634	0.016	n/a	NoResponse	-1	n/a	n/a	0	34	Cue	Loss	True
327.866	4.05	Lose2	0.6	0.0	No	2.634	0.0	n/a	NoResponse	-1	n/a	n/a	0	34	Fixation	Loss	True
331.915	0.17	Lose2	0.6	0.001	No	2.634	-0.001	2.0	NoResponse	-1	0.184	331.099	0	34	Target	Loss	True
332.081	0.53	Lose2	0.6	n/a	No	2.634	n/a	n/a	NoResponse	-1	n/a	n/a	0	34	Blank	Loss	True
332.099	0.3	Lose2	0.6	0.001	No	2.634	-0.001	2.0	NoResponse	-1	0.184	n/a	0	34	ButtonPress	Loss	True
332.615	1.45	Lose2	0.6	n/a	No	2.634	n/a	5.0	NoResponse	-1	0.043	331.658	0	34	Feedback	Loss	True
334.064	2.634	Lose2	0.6	n/a	No	2.634	n/a	n/a	NoResponse	-1	0.0	n/a	0	34	ISIslide	Loss	True
336.713	0.25	Lose2	0.6111	0.0	Yes	2.687	0.013	n/a	GoodResponse	0	n/a	n/a	0	35	Cue	AvoidedLoss	True
336.963	4.0	Lose2	0.6111	0.0	Yes	2.687	0.0	n/a	GoodResponse	0	n/a	n/a	0	35	Fixation	AvoidedLoss	True
340.962	0.18	Lose2	0.6111	0.001	Yes	2.687	-0.001	2.0	GoodResponse	0	0.175	340.137	0	35	Target	AvoidedLoss	True
341.137	0.3	Lose2	0.6111	0.001	Yes	2.687	-0.001	2.0	GoodResponse	0	0.175	n/a	0	35	ButtonPress	AvoidedLoss	True
341.145	0.52	Lose2	0.6111	n/a	Yes	2.687	n/a	n/a	GoodResponse	0	n/a	n/a	0	35	Blank	AvoidedLoss	True
341.661	1.45	Lose2	0.6111	n/a	Yes	2.687	n/a	5.0	GoodResponse	0	0.022	340.683	0	35	Feedback	AvoidedLoss	True
343.111	2.687	Lose2	0.6111	n/a	Yes	2.687	n/a	n/a	GoodResponse	0	0.0	n/a	0	35	ISIslide	AvoidedLoss	True
345.827	0.25	Control	0.5946	0.0	No	2.673	0.027	n/a	NoResponse	0	n/a	n/a	0	36	Cue	Neutral	True
346.077	4.0	Control	0.5946	0.0	No	2.673	0.0	n/a	NoResponse	0	n/a	n/a	0	36	Fixation	Neutral	True
350.075	0.19	Control	0.5946	0.002	No	2.673	-0.002	2.0	NoResponse	0	0.378	349.453	0	36	Target	Neutral	True
350.275	0.51	Control	0.5946	n/a	No	2.673	n/a	n/a	NoResponse	0	n/a	n/a	0	36	Blank	Neutral	True
350.453	0.3	Control	0.5946	0.002	No	2.673	-0.002	2.0	NoResponse	0	0.378	n/a	0	36	ButtonPress	Neutral	True
350.775	1.45	Control	0.5946	n/a	No	2.673	n/a	5.0	NoResponse	0	0.03	349.805	0	36	Feedback	Neutral	True
352.224	2.673	Control	0.5946	n/a	No	2.673	n/a	n/a	NoResponse	0	0.0	n/a	0	36	ISIslide	Neutral	True
354.923	0.25	Win2	0.5789	0.001	No	2.877	0.023	n/a	NoResponse	0	n/a	n/a	0	37	Cue	MissedWin	False
355.173	4.0	Win2	0.5789	0.0	No	2.877	0.0	2.0	NoResponse	0	3.629	357.802	0	37	Fixation	MissedWin	False
358.802	0.3	Win2	0.5789	0.0	No	2.877	0.0	2.0	NoResponse	0	3.629	n/a	0	37	ButtonPress	MissedWin	False
359.172	0.2	Win2	0.5789	0.001	No	2.877	-0.001	2.0	NoResponse	0	0.254	358.426	0	37	Target	MissedWin	False
359.372	0.5	Win2	0.5789	n/a	No	2.877	n/a	n/a	NoResponse	0	n/a	n/a	0	37	Blank	MissedWin	False
359.426	0.3	Win2	0.5789	0.001	No	2.877	-0.001	2.0	NoResponse	0	0.254	n/a	0	37	ButtonPress	MissedWin	False
359.872	1.45	Win2	0.5789	n/a	No	2.877	n/a	5.0	NoResponse	0	0.006	358.878	0	37	Feedback	MissedWin	False
361.321	2.877	Win2	0.5789	n/a	No	2.877	n/a	n/a	NoResponse	0	0.0	n/a	0	37	ISIslide	MissedWin	False
364.22	0.25	Lose2	0.5897	0.0	Yes	2.83	0.02	n/a	GoodResponse	0	n/a	n/a	0	38	Cue	AvoidedLoss	True
364.47	3.95	Lose2	0.5897	0.0	Yes	2.83	0.0	n/a	GoodResponse	0	n/a	n/a	0	38	Fixation	AvoidedLoss	True
368.419	0.21	Lose2	0.5897	0.001	Yes	2.83	-0.001	2.0	GoodResponse	0	0.186	367.605	0	38	Target	AvoidedLoss	True
368.605	0.3	Lose2	0.5897	0.001	Yes	2.83	-0.001	2.0	GoodResponse	0	0.186	n/a	0	38	ButtonPress	AvoidedLoss	True
368.635	0.49	Lose2	0.5897	n/a	Yes	2.83	n/a	n/a	GoodResponse	0	n/a	n/a	0	38	Blank	AvoidedLoss	True
369.118	1.45	Lose2	0.5897	n/a	Yes	2.83	n/a	5.0	GoodResponse	0	0.028	368.146	0	38	Feedback	AvoidedLoss	True
370.568	2.83	Lose2	0.5897	n/a	Yes	2.83	n/a	n/a	GoodResponse	0	0.0	n/a	0	38	ISIslide	AvoidedLoss	True
373.417	0.25	Win2	0.6	0.0	Yes	2.983	0.017	n/a	GoodResponse	1	n/a	n/a	1	39	Cue	Win	True
373.667	4.1	Win2	0.6	0.0	Yes	2.983	0.0	n/a	GoodResponse	1	n/a	n/a	1	39	Fixation	Win	True
377.765	0.22	Win2	0.6	0.002	Yes	2.983	-0.002	2.0	GoodResponse	1	0.183	376.948	1	39	Target	Win	True
377.948	0.3	Win2	0.6	0.002	Yes	2.983	-0.002	2.0	GoodResponse	1	0.183	n/a	1	39	ButtonPress	Win	True
377.999	0.48	Win2	0.6	n/a	Yes	2.983	n/a	n/a	GoodResponse	1	n/a	n/a	1	39	Blank	Win	True
378.465	1.45	Win2	0.6	n/a	Yes	2.983	n/a	5.0	GoodResponse	1	0.047	377.512	1	39	Feedback	Win	True
379.915	2.983	Win2	0.6	n/a	Yes	2.983	n/a	n/a	GoodResponse	1	0.0	n/a	1	39	ISIslide	Win	True
382.914	0.25	Win2	0.6098	0.0	Yes	2.736	0.014	n/a	GoodResponse	1	n/a	n/a	2	40	Cue	Win	True
383.164	3.95	Win2	0.6098	0.0	Yes	2.736	0.0	n/a	GoodResponse	1	n/a	n/a	2	40	Fixation	Win	True
387.112	0.23	Win2	0.6098	0.002	Yes	2.736	-0.002	2.0	GoodResponse	1	0.183	386.295	2	40	Target	Win	True
387.295	0.3	Win2	0.6098	0.002	Yes	2.736	-0.002	2.0	GoodResponse	1	0.183	n/a	2	40	ButtonPress	Win	True
387.345	0.47	Win2	0.6098	n/a	Yes	2.736	n/a	n/a	GoodResponse	1	n/a	n/a	2	40	Blank	Win	True
387.812	1.45	Win2	0.6098	n/a	Yes	2.736	n/a	5.0	GoodResponse	1	0.017	386.829	2	40	Feedback	Win	True
389.261	2.736	Win2	0.6098	n/a	Yes	2.736	n/a	n/a	GoodResponse	1	0.0	n/a	2	40	ISIslide	Win	True
392.01	0.25	Win2	0.619	0.001	Yes	2.79	0.01	n/a	GoodResponse	1	n/a	n/a	3	41	Cue	Win	True
392.26	3.9	Win2	0.619	0.0	Yes	2.79	0.0	n/a	GoodResponse	1	n/a	n/a	3	41	Fixation	Win	True
396.159	0.24	Win2	0.619	0.001	Yes	2.79	-0.001	2.0	GoodResponse	1	0.208	395.367	3	41	Target	Win	True
396.367	0.3	Win2	0.619	0.001	Yes	2.79	-0.001	2.0	GoodResponse	1	0.208	n/a	3	41	ButtonPress	Win	True
396.409	0.46	Win2	0.619	n/a	Yes	2.79	n/a	n/a	GoodResponse	1	n/a	n/a	3	41	Blank	Win	True
396.859	1.45	Win2	0.619	n/a	Yes	2.79	n/a	5.0	GoodResponse	1	0.043	395.902	3	41	Feedback	Win	True
398.308	2.79	Win2	0.619	n/a	Yes	2.79	n/a	n/a	GoodResponse	1	0.0	n/a	3	41	ISIslide	Win	True
401.124	0.25	Control	0.6279	0.0	Yes	2.926	0.024	n/a	GoodResponse	0	n/a	n/a	3	42	Cue	Neutral	True
401.374	3.85	Control	0.6279	0.0	Yes	2.926	0.0	n/a	GoodResponse	0	n/a	n/a	3	42	Fixation	Neutral	True
405.223	0.25	Control	0.6279	0.001	Yes	2.926	-0.001	2.0	GoodResponse	0	0.188	404.411	3	42	Target	Neutral	True
405.411	0.3	Control	0.6279	0.001	Yes	2.926	-0.001	2.0	GoodResponse	0	0.188	n/a	3	42	ButtonPress	Neutral	True
405.472	0.45	Control	0.6279	n/a	Yes	2.926	n/a	n/a	GoodResponse	0	n/a	n/a	3	42	Blank	Neutral	True
405.922	1.45	Control	0.6279	n/a	Yes	2.926	n/a	5.0	GoodResponse	0	0.005	404.927	3	42	Feedback	Neutral	True
407.372	2.926	Control	0.6279	n/a	Yes	2.926	n/a	n/a	GoodResponse	0	0.0	n/a	3	42	ISIslide	Neutral	True
410.321	0.25	Win2	0.6136	0.0	No	3.179	0.021	n/a	PrematurePress	0	n/a	n/a	3	43	Cue	MissedWin	True
410.571	4.0	Win2	0.6136	0.0	No	3.179	0.0	n/a	PrematurePress	0	n/a	n/a	3	43	Fixation	MissedWin	True
414.569	0.26	Win2	0.6136	0.002	No	3.179	-0.002	2.0	PrematurePress	0	0.009	413.578	3	43	Target	MissedWin	True
414.578	0.3	Win2	0.6136	0.002	No	3.179	-0.002	2.0	PrematurePress	0	0.009	n/a	3	43	ButtonPress	MissedWin	True
414.836	0.44	Win2	0.6136	n/a	No	3.179	n/a	n/a	PrematurePress	0	n/a	n/a	3	43	Blank	MissedWin	True
415.269	1.45	Win2	0.6136	n/a	No	3.179	n/a	5.0	PrematurePress	0	0.024	414.293	3	43	Feedback	MissedWin	True
416.719	3.179	Win2	0.6136	n/a	No	3.179	n/a	n/a	PrematurePress	0	0.0	n/a	3	43	ISIslide	MissedWin	True
419.917	0.25	Win2	0.6222	0.0	Yes	2.983	0.017	n/a	GoodResponse	1	n/a	n/a	4	44	Cue	Win	True
420.167	4.0	Win2	0.6222	0.0	Yes	2.983	0.0	n/a	GoodResponse	1	n/a	n/a	4	44	Fixation	Win	True
424.166	0.27	Win2	0.6222	0.001	Yes	2.983	-0.001	2.0	GoodResponse	1	0.206	423.372	4	44	Target	Win	True
424.372	0.3	Win2	0.6222	0.001	Yes	2.983	-0.001	2.0	GoodResponse	1	0.206	n/a	4	44	ButtonPress	Win	True
424.433	0.43	Win2	0.6222	n/a	Yes	2.983	n/a	n/a	GoodResponse	1	n/a	n/a	4	44	Blank	Win	True
424.866	1.45	Win2	0.6222	n/a	Yes	2.983	n/a	5.0	GoodResponse	1	0.036	423.902	4	44	Feedback	Win	True
426.315	2.983	Win2	0.6222	n/a	Yes	2.983	n/a	n/a	GoodResponse	1	0.0	n/a	4	44	ISIslide	Win	True
429.314	0.25	Control	0.6304	0.0	Yes	2.886	0.014	n/a	GoodResponse	0	n/a	n/a	4	45	Cue	Neutral	True
429.564	4.1	Control	0.6304	0.0	Yes	2.886	0.0	n/a	GoodResponse	0	n/a	n/a	4	45	Fixation	Neutral	True
433.663	0.28	Control	0.6304	0.001	Yes	2.886	-0.001	2.0	GoodResponse	0	0.2	432.863	4	45	Target	Neutral	True
433.863	0.3	Control	0.6304	0.001	Yes	2.886	-0.001	2.0	GoodResponse	0	0.2	n/a	4	45	ButtonPress	Neutral	True
433.946	0.42	Control	0.6304	n/a	Yes	2.886	n/a	n/a	GoodResponse	0	n/a	n/a	4	45	Blank	Neutral	True
434.362	1.45	Control	0.6304	n/a	Yes	2.886	n/a	5.0	GoodResponse	0	0.004	433.366	4	45	Feedback	Neutral	True
435.812	2.886	Control	0.6304	n/a	Yes	2.886	n/a	n/a	GoodResponse	0	0.0	n/a	4	45	ISIslide	Neutral	True
438.728	0.25	Lose2	0.6383	0.0	Yes	3.372	0.028	n/a	GoodResponse	0	n/a	n/a	4	46	Cue	AvoidedLoss	True
438.977	4.0	Lose2	0.6383	0.001	Yes	3.372	-0.001	n/a	GoodResponse	0	n/a	n/a	4	46	Fixation	AvoidedLoss	True
442.976	0.29	Lose2	0.6383	0.002	Yes	3.372	-0.002	2.0	GoodResponse	0	0.162	442.138	4	46	Target	AvoidedLoss	True
443.138	0.3	Lose2	0.6383	0.002	Yes	3.372	-0.002	2.0	GoodResponse	0	0.162	n/a	4	46	ButtonPress	AvoidedLoss	True
443.276	0.41	Lose2	0.6383	n/a	Yes	3.372	n/a	n/a	GoodResponse	0	n/a	n/a	4	46	Blank	AvoidedLoss	True
443.676	1.45	Lose2	0.6383	n/a	Yes	3.372	n/a	5.0	GoodResponse	0	0.006	442.682	4	46	Feedback	AvoidedLoss	True
445.125	3.372	Lose2	0.6383	n/a	Yes	3.372	n/a	n/a	GoodResponse	0	0.0	n/a	4	46	ISIslide	AvoidedLoss	True
448.524	0.25	Lose2	0.6457999999999999	0.0	Yes	2.676	0.024	n/a	GoodResponse	0	n/a	n/a	4	47	Cue	AvoidedLoss	True
448.774	4.0	Lose2	0.6457999999999999	0.0	Yes	2.676	0.0	n/a	GoodResponse	0	n/a	n/a	4	47	Fixation	AvoidedLoss	True
452.773	0.3	Lose2	0.6457999999999999	0.001	Yes	2.676	-0.001	2.0	GoodResponse	0	0.187	451.96	4	47	Target	AvoidedLoss	True
452.96	0.3	Lose2	0.6457999999999999	0.001	Yes	2.676	-0.001	2.0	GoodResponse	0	0.187	n/a	4	47	ButtonPress	AvoidedLoss	True
453.073	0.4	Lose2	0.6457999999999999	n/a	Yes	2.676	n/a	n/a	GoodResponse	0	n/a	n/a	4	47	Blank	AvoidedLoss	True
453.472	1.45	Lose2	0.6457999999999999	n/a	Yes	2.676	n/a	5.0	GoodResponse	0	0.015	452.487	4	47	Feedback	AvoidedLoss	True
454.922	2.676	Lose2	0.6457999999999999	n/a	Yes	2.676	n/a	n/a	GoodResponse	0	0.0	n/a	4	47	ISIslide	AvoidedLoss	True
457.621	0.25	Lose2	0.6531	0.0	Yes	3.029	0.021	n/a	GoodResponse	0	n/a	n/a	4	48	Cue	AvoidedLoss	True
457.871	3.95	Lose2	0.6531	0.0	Yes	3.029	0.0	n/a	GoodResponse	0	n/a	n/a	4	48	Fixation	AvoidedLoss	True
461.819	0.31	Lose2	0.6531	0.002	Yes	3.029	-0.002	2.0	GoodResponse	0	0.193	461.012	4	48	Target	AvoidedLoss	True
462.012	0.3	Lose2	0.6531	0.002	Yes	3.029	-0.002	2.0	GoodResponse	0	0.193	n/a	4	48	ButtonPress	AvoidedLoss	True
462.136	0.39	Lose2	0.6531	n/a	Yes	3.029	n/a	n/a	GoodResponse	0	n/a	n/a	4	48	Blank	AvoidedLoss	True
462.519	1.45	Lose2	0.6531	n/a	Yes	3.029	n/a	5.0	GoodResponse	0	0.042	461.561	4	48	Feedback	AvoidedLoss	True
463.969	3.029	Lose2	0.6531	n/a	Yes	3.029	n/a	n/a	GoodResponse	0	0.0	n/a	4	48	ISIslide	AvoidedLoss	True
467.018	0.25	Control	0.66	0.0	Yes	2.882	0.018	n/a	GoodResponse	0	n/a	n/a	4	49	Cue	Neutral	True
467.268	4.0	Control	0.66	0.0	Yes	2.882	0.0	n/a	GoodResponse	0	n/a	n/a	4	49	Fixation	Neutral	True
471.266	0.32	Control	0.66	0.002	Yes	2.882	-0.002	2.0	GoodResponse	0	0.203	470.469	4	49	Target	Neutral	True
471.469	0.3	Control	0.66	0.002	Yes	2.882	-0.002	2.0	GoodResponse	0	0.203	n/a	4	49	ButtonPress	Neutral	True
471.599	0.38	Control	0.66	n/a	Yes	2.882	n/a	n/a	GoodResponse	0	n/a	n/a	4	49	Blank	Neutral	True
471.966	1.45	Control	0.66	n/a	Yes	2.882	n/a	5.0	GoodResponse	0	0.008	470.974	4	49	Feedback	Neutral	True
473.415	2.882	Control	0.66	n/a	Yes	2.882	n/a	n/a	GoodResponse	0	0.0	n/a	4	49	ISIslide	Neutral	True
476.314	0.25	Control	0.6667000000000001	0.0	Yes	2.786	0.014	n/a	GoodResponse	0	n/a	n/a	4	50	Cue	Neutral	True
476.564	4.0	Control	0.6667000000000001	0.0	Yes	2.786	0.0	n/a	GoodResponse	0	n/a	n/a	4	50	Fixation	Neutral	True
480.563	0.32	Control	0.6667000000000001	0.001	Yes	2.786	-0.001	2.0	GoodResponse	0	0.193	479.756	4	50	Target	Neutral	True
480.756	0.3	Control	0.6667000000000001	0.001	Yes	2.786	-0.001	2.0	GoodResponse	0	0.193	n/a	4	50	ButtonPress	Neutral	True
480.879	0.38	Control	0.6667000000000001	n/a	Yes	2.786	n/a	n/a	GoodResponse	0	n/a	n/a	4	50	Blank	Neutral	True
481.263	1.45	Control	0.6667000000000001	n/a	Yes	2.786	n/a	5.0	GoodResponse	0	0.028	480.291	4	50	Feedback	Neutral	True
482.712	2.786	Control	0.6667000000000001	n/a	Yes	2.786	n/a	n/a	GoodResponse	0	0.0	n/a	4	50	ISIslide	Neutral	True
485.511	0.25	Control	0.6537999999999999	0.0	No	2.739	0.011	n/a	LatePress	0	n/a	n/a	4	51	Cue	Neutral	True
485.761	3.95	Control	0.6537999999999999	0.0	No	2.739	0.0	n/a	LatePress	0	n/a	n/a	4	51	Fixation	Neutral	True
489.71	0.31	Control	0.6537999999999999	0.001	No	2.739	-0.001	2.0	LatePress	0	0.314	489.024	4	51	Target	Neutral	True
490.024	0.3	Control	0.6537999999999999	0.001	No	2.739	-0.001	2.0	LatePress	0	0.314	n/a	4	51	ButtonPress	Neutral	True
490.026	0.39	Control	0.6537999999999999	n/a	No	2.739	n/a	n/a	LatePress	0	n/a	n/a	4	51	Blank	Neutral	True
490.41	1.45	Control	0.6537999999999999	n/a	No	2.739	n/a	5.0	LatePress	0	0.004	489.414	4	51	Feedback	Neutral	True
491.859	2.739	Control	0.6537999999999999	n/a	No	2.739	n/a	n/a	LatePress	0	0.0	n/a	4	51	ISIslide	Neutral	True
494.625	0.25	Control	0.6604000000000001	0.0	Yes	2.625	0.025	n/a	GoodResponse	0	n/a	n/a	4	52	Cue	Neutral	True
494.875	4.05	Control	0.6604000000000001	0.0	Yes	2.625	0.0	n/a	GoodResponse	0	n/a	n/a	4	52	Fixation	Neutral	True
498.923	0.32	Control	0.6604000000000001	0.002	Yes	2.625	-0.002	2.0	GoodResponse	0	0.224	498.147	4	52	Target	Neutral	True
499.147	0.3	Control	0.6604000000000001	0.002	Yes	2.625	-0.002	2.0	GoodResponse	0	0.224	n/a	4	52	ButtonPress	Neutral	True
499.256	0.38	Control	0.6604000000000001	n/a	Yes	2.625	n/a	n/a	GoodResponse	0	n/a	n/a	4	52	Blank	Neutral	True
499.623	1.45	Control	0.6604000000000001	n/a	Yes	2.625	n/a	5.0	GoodResponse	0	0.01	498.633	4	52	Feedback	Neutral	True
501.072	2.625	Control	0.6604000000000001	n/a	Yes	2.625	n/a	n/a	GoodResponse	0	0.0	n/a	4	52	ISIslide	Neutral	True
503.722	0.25	Win2	0.6667000000000001	0.0	Yes	2.928	0.022	n/a	GoodResponse	1	n/a	n/a	5	53	Cue	Win	True
503.971	4.05	Win2	0.6667000000000001	0.001	Yes	2.928	-0.001	n/a	GoodResponse	1	n/a	n/a	5	53	Fixation	Win	True
508.02	0.32	Win2	0.6667000000000001	0.002	Yes	2.928	-0.002	2.0	GoodResponse	1	0.186	507.206	5	53	Target	Win	True
508.206	0.3	Win2	0.6667000000000001	0.002	Yes	2.928	-0.002	2.0	GoodResponse	1	0.186	n/a	5	53	ButtonPress	Win	True
508.353	0.38	Win2	0.6667000000000001	n/a	Yes	2.928	n/a	n/a	GoodResponse	1	n/a	n/a	5	53	Blank	Win	True
508.72	1.45	Win2	0.6667000000000001	n/a	Yes	2.928	n/a	5.0	GoodResponse	1	0.035	507.755	5	53	Feedback	Win	True
510.169	2.928	Win2	0.6667000000000001	n/a	Yes	2.928	n/a	n/a	GoodResponse	1	0.0	n/a	5	53	ISIslide	Win	True
513.118	0.25	Win2	0.6727	0.0	Yes	2.732	0.018	n/a	GoodResponse	1	n/a	n/a	6	54	Cue	Win	True
513.368	3.95	Win2	0.6727	0.0	Yes	2.732	0.0	n/a	GoodResponse	1	n/a	n/a	6	54	Fixation	Win	True
517.317	0.31	Win2	0.6727	0.001	Yes	2.732	-0.001	2.0	GoodResponse	1	0.178	516.495	6	54	Target	Win	True
517.495	0.3	Win2	0.6727	0.001	Yes	2.732	-0.001	2.0	GoodResponse	1	0.178	n/a	6	54	ButtonPress	Win	True
517.633	0.39	Win2	0.6727	n/a	Yes	2.732	n/a	n/a	GoodResponse	1	n/a	n/a	6	54	Blank	Win	True
518.017	1.45	Win2	0.6727	n/a	Yes	2.732	n/a	5.0	GoodResponse	1	0.007	517.024	6	54	Feedback	Win	True
519.466	2.732	Win2	0.6727	n/a	Yes	2.732	n/a	n/a	GoodResponse	1	0.0	n/a	6	54	ISIslide	Win	True
522.215	0.25	Control	0.6786	0.0	Yes	3.035	0.015	n/a	GoodResponse	0	n/a	n/a	6	55	Cue	Neutral	True
522.465	3.95	Control	0.6786	0.0	Yes	3.035	0.0	n/a	GoodResponse	0	n/a	n/a	6	55	Fixation	Neutral	True
526.414	0.3	Control	0.6786	0.001	Yes	3.035	-0.001	2.0	GoodResponse	0	0.179	525.593	6	55	Target	Neutral	True
526.593	0.3	Control	0.6786	0.001	Yes	3.035	-0.001	2.0	GoodResponse	0	0.179	n/a	6	55	ButtonPress	Neutral	True
526.714	0.4	Control	0.6786	n/a	Yes	3.035	n/a	n/a	GoodResponse	0	n/a	n/a	6	55	Blank	Neutral	True
527.113	1.45	Control	0.6786	n/a	Yes	3.035	n/a	5.0	GoodResponse	0	0.032	526.145	6	55	Feedback	Neutral	True
528.563	3.035	Control	0.6786	n/a	Yes	3.035	n/a	n/a	GoodResponse	0	0.0	n/a	6	55	ISIslide	Neutral	True
531.612	0.25	Control	0.6842	0.0	Yes	2.838	0.012	n/a	GoodResponse	0	n/a	n/a	6	56	Cue	Neutral	True
531.862	3.95	Control	0.6842	0.0	Yes	2.838	0.0	n/a	GoodResponse	0	n/a	n/a	6	56	Fixation	Neutral	True
535.81	0.29	Control	0.6842	0.002	Yes	2.838	-0.002	2.0	GoodResponse	0	0.176	534.986	6	56	Target	Neutral	True
535.986	0.3	Control	0.6842	0.002	Yes	2.838	-0.002	2.0	GoodResponse	0	0.176	n/a	6	56	ButtonPress	Neutral	True
536.11	0.41	Control	0.6842	n/a	Yes	2.838	n/a	n/a	GoodResponse	0	n/a	n/a	6	56	Blank	Neutral	True
536.51	1.45	Control	0.6842	n/a	Yes	2.838	n/a	5.0	GoodResponse	0	0.001	535.511	6	56	Feedback	Neutral	True
537.96	2.838	Control	0.6842	n/a	Yes	2.838	n/a	n/a	GoodResponse	0	0.0	n/a	6	56	ISIslide	Neutral	True
540.825	0.25	Control	0.6897	0.0	Yes	3.475	0.025	n/a	GoodResponse	0	n/a	n/a	6	57	Cue	Neutral	True
541.075	4.0	Control	0.6897	0.0	Yes	3.475	0.0	n/a	GoodResponse	0	n/a	n/a	6	57	Fixation	Neutral	True
545.074	0.28	Control	0.6897	0.001	Yes	3.475	-0.001	2.0	GoodResponse	0	0.197	544.271	6	57	Target	Neutral	True
545.271	0.3	Control	0.6897	0.001	Yes	3.475	-0.001	2.0	GoodResponse	0	0.197	n/a	6	57	ButtonPress	Neutral	True
545.357	0.42	Control	0.6897	n/a	Yes	3.475	n/a	n/a	GoodResponse	0	n/a	n/a	6	57	Blank	Neutral	True
545.774	1.45	Control	0.6897	n/a	Yes	3.475	n/a	5.0	GoodResponse	0	0.005	544.779	6	57	Feedback	Neutral	True
547.223	3.475	Control	0.6897	n/a	Yes	3.475	n/a	n/a	GoodResponse	0	0.0	n/a	6	57	ISIslide	Neutral	True
550.722	0.25	Win2	0.6949	0.0	Yes	2.728	0.022	n/a	GoodResponse	1	n/a	n/a	7	58	Cue	Win	True
550.972	4.05	Win2	0.6949	0.0	Yes	2.728	0.0	n/a	GoodResponse	1	n/a	n/a	7	58	Fixation	Win	True
555.02	0.27	Win2	0.6949	0.002	Yes	2.728	-0.002	2.0	GoodResponse	1	0.178	554.198	7	58	Target	Win	True
555.198	0.3	Win2	0.6949	0.002	Yes	2.728	-0.002	2.0	GoodResponse	1	0.178	n/a	7	58	ButtonPress	Win	True
555.304	0.43	Win2	0.6949	n/a	Yes	2.728	n/a	n/a	GoodResponse	1	n/a	n/a	7	58	Blank	Win	True
555.72	1.45	Win2	0.6949	n/a	Yes	2.728	n/a	5.0	GoodResponse	1	0.01	554.73	7	58	Feedback	Win	True
557.17	2.728	Win2	0.6949	n/a	Yes	2.728	n/a	n/a	GoodResponse	1	0.0	n/a	7	58	ISIslide	Win	True
559.919	0.25	Lose2	0.7	0.0	Yes	2.681	0.019	n/a	GoodResponse	0	n/a	n/a	7	59	Cue	AvoidedLoss	True
560.169	4.0	Lose2	0.7	0.0	Yes	2.681	0.0	n/a	GoodResponse	0	n/a	n/a	7	59	Fixation	AvoidedLoss	True
564.167	0.26	Lose2	0.7	0.002	Yes	2.681	-0.002	2.0	GoodResponse	0	0.198	563.365	7	59	Target	AvoidedLoss	True
564.365	0.3	Lose2	0.7	0.002	Yes	2.681	-0.002	2.0	GoodResponse	0	0.198	n/a	7	59	ButtonPress	AvoidedLoss	True
564.434	0.44	Lose2	0.7	n/a	Yes	2.681	n/a	n/a	GoodResponse	0	n/a	n/a	7	59	Blank	AvoidedLoss	True
564.867	1.45	Lose2	0.7	n/a	Yes	2.681	n/a	5.0	GoodResponse	0	0.034	563.901	7	59	Feedback	AvoidedLoss	True
566.316	2.681	Lose2	0.7	n/a	Yes	2.681	n/a	n/a	GoodResponse	0	0.0	n/a	7	59	ISIslide	AvoidedLoss	True
569.015	0.25	Control	0.7049	0.0	Yes	2.685	0.015	n/a	GoodResponse	0	n/a	n/a	7	60	Cue	Neutral	True
569.265	4.0	Control	0.7049	0.0	Yes	2.685	0.0	n/a	GoodResponse	0	n/a	n/a	7	60	Fixation	Neutral	True
573.264	0.25	Control	0.7049	0.001	Yes	2.685	-0.001	2.0	GoodResponse	0	0.179	572.443	7	60	Target	Neutral	True
573.443	0.3	Control	0.7049	0.001	Yes	2.685	-0.001	2.0	GoodResponse	0	0.179	n/a	7	60	ButtonPress	Neutral	True
573.514	0.45	Control	0.7049	n/a	Yes	2.685	n/a	n/a	GoodResponse	0	n/a	n/a	7	60	Blank	Neutral	True
573.964	1.45	Control	0.7049	n/a	Yes	2.685	n/a	5.0	GoodResponse	0	0.01	572.974	7	60	Feedback	Neutral	True
575.413	2.685	Control	0.7049	n/a	Yes	2.685	n/a	n/a	GoodResponse	0	0.0	n/a	7	60	ISIslide	Neutral	True
578.112	0.25	Lose2	0.6934999999999999	0.0	No	2.988	0.012	n/a	PrematurePress	-1	n/a	n/a	6	61	Cue	Loss	False
578.362	4.0	Lose2	0.6934999999999999	0.0	No	2.988	0.0	2.0	PrematurePress	-1	3.369	580.731	6	61	Fixation	Loss	False
581.731	0.3	Lose2	0.6934999999999999	0.0	No	2.988	0.0	2.0	PrematurePress	-1	3.369	n/a	6	61	ButtonPress	Loss	False
582.361	0.24	Lose2	0.6934999999999999	0.001	No	2.988	-0.001	2.0	PrematurePress	-1	0.047	581.408	6	61	Target	Loss	False
582.408	0.3	Lose2	0.6934999999999999	0.001	No	2.988	-0.001	2.0	PrematurePress	-1	0.047	n/a	6	61	ButtonPress	Loss	False
582.611	0.46	Lose2	0.6934999999999999	n/a	No	2.988	n/a	n/a	PrematurePress	-1	n/a	n/a	6	61	Blank	Loss	False
583.061	1.45	Lose2	0.6934999999999999	n/a	No	2.988	n/a	5.0	PrematurePress	-1	0.035	582.096	6	61	Feedback	Loss	False
584.51	2.988	Lose2	0.6934999999999999	n/a	No	2.988	n/a	n/a	PrematurePress	-1	0.0	n/a	6	61	ISIslide	Loss	False
587.526	0.25	Lose2	0.6984	0.0	Yes	2.874	0.026	n/a	GoodResponse	0	n/a	n/a	6	62	Cue	AvoidedLoss	True
587.776	3.9	Lose2	0.6984	0.0	Yes	2.874	0.0	n/a	GoodResponse	0	n/a	n/a	6	62	Fixation	AvoidedLoss	True
591.674	0.23	Lose2	0.6984	0.002	Yes	2.874	-0.002	2.0	GoodResponse	0	0.199	590.873	6	62	Target	AvoidedLoss	True
591.873	0.3	Lose2	0.6984	0.002	Yes	2.874	-0.002	2.0	GoodResponse	0	0.199	n/a	6	62	ButtonPress	AvoidedLoss	True
591.907	0.47	Lose2	0.6984	n/a	Yes	2.874	n/a	n/a	GoodResponse	0	n/a	n/a	6	62	Blank	AvoidedLoss	True
592.374	1.45	Lose2	0.6984	n/a	Yes	2.874	n/a	5.0	GoodResponse	0	0.039	591.413	6	62	Feedback	AvoidedLoss	True
593.823	2.874	Lose2	0.6984	n/a	Yes	2.874	n/a	n/a	GoodResponse	0	0.0	n/a	6	62	ISIslide	AvoidedLoss	True
596.722	0.25	Lose2	0.7031000000000001	0.0	Yes	2.628	0.022	n/a	GoodResponse	0	n/a	n/a	6	63	Cue	AvoidedLoss	True
596.972	4.05	Lose2	0.7031000000000001	0.0	Yes	2.628	0.0	n/a	GoodResponse	0	n/a	n/a	6	63	Fixation	AvoidedLoss	True
601.021	0.22	Lose2	0.7031000000000001	0.001	Yes	2.628	-0.001	2.0	GoodResponse	0	0.185	600.206	6	63	Target	AvoidedLoss	True
601.206	0.3	Lose2	0.7031000000000001	0.001	Yes	2.628	-0.001	2.0	GoodResponse	0	0.185	n/a	6	63	ButtonPress	AvoidedLoss	True
601.238	0.48	Lose2	0.7031000000000001	n/a	Yes	2.628	n/a	n/a	GoodResponse	0	n/a	n/a	6	63	Blank	AvoidedLoss	True
601.721	1.45	Lose2	0.7031000000000001	n/a	Yes	2.628	n/a	5.0	GoodResponse	0	0.009	600.73	6	63	Feedback	AvoidedLoss	True
603.17	2.628	Lose2	0.7031000000000001	n/a	Yes	2.628	n/a	n/a	GoodResponse	0	0.0	n/a	6	63	ISIslide	AvoidedLoss	True
605.819	0.25	Win2	0.7077	0.0	Yes	3.131	0.019	n/a	GoodResponse	1	n/a	n/a	7	64	Cue	Win	True
606.069	4.15	Win2	0.7077	0.0	Yes	3.131	0.0	n/a	GoodResponse	1	n/a	n/a	7	64	Fixation	Win	True
610.218	0.21	Win2	0.7077	0.001	Yes	3.131	-0.001	2.0	GoodResponse	1	0.205	609.423	7	64	Target	Win	True
610.423	0.3	Win2	0.7077	0.001	Yes	3.131	-0.001	2.0	GoodResponse	1	0.205	n/a	7	64	ButtonPress	Win	True
610.434	0.49	Win2	0.7077	n/a	Yes	3.131	n/a	n/a	GoodResponse	1	n/a	n/a	7	64	Blank	Win	True
610.917	1.45	Win2	0.7077	n/a	Yes	3.131	n/a	5.0	GoodResponse	1	0.033	609.95	7	64	Feedback	Win	True
612.367	3.131	Win2	0.7077	n/a	Yes	3.131	n/a	n/a	GoodResponse	1	0.0	n/a	7	64	ISIslide	Win	True
615.516	0.25	Control	0.6970000000000001	0.0	No	2.784	0.016	n/a	NoResponse	0	n/a	n/a	7	65	Cue	Neutral	True
615.766	4.0	Control	0.6970000000000001	0.0	No	2.784	0.0	n/a	NoResponse	0	n/a	n/a	7	65	Fixation	Neutral	True
619.764	0.2	Control	0.6970000000000001	0.002	No	2.784	-0.002	2.0	NoResponse	0	0.279	619.043	7	65	Target	Neutral	True
619.964	0.5	Control	0.6970000000000001	n/a	No	2.784	n/a	n/a	NoResponse	0	n/a	n/a	7	65	Blank	Neutral	True
620.043	0.3	Control	0.6970000000000001	0.002	No	2.784	-0.002	2.0	NoResponse	0	0.279	n/a	7	65	ButtonPress	Neutral	True
620.464	1.45	Control	0.6970000000000001	n/a	No	2.784	n/a	5.0	NoResponse	0	0.046	619.51	7	65	Feedback	Neutral	True
621.914	2.784	Control	0.6970000000000001	n/a	No	2.784	n/a	n/a	NoResponse	0	0.0	n/a	7	65	ISIslide	Neutral	True
624.729	0.25	Win2	0.6866	0.0	No	2.771	0.029	n/a	LatePress	0	n/a	n/a	7	66	Cue	MissedWin	True
624.979	3.9	Win2	0.6866	0.0	No	2.771	0.0	n/a	LatePress	0	n/a	n/a	7	66	Fixation	MissedWin	True
628.878	0.19	Win2	0.6866	0.001	No	2.771	-0.001	2.0	LatePress	0	0.192	628.07	7	66	Target	MissedWin	True
629.07	0.3	Win2	0.6866	0.001	No	2.771	-0.001	2.0	LatePress	0	0.192	n/a	7	66	ButtonPress	MissedWin	True
629.078	0.51	Win2	0.6866	n/a	No	2.771	n/a	n/a	LatePress	0	n/a	n/a	7	66	Blank	MissedWin	True
629.578	1.45	Win2	0.6866	n/a	No	2.771	n/a	5.0	LatePress	0	0.005	628.583	7	66	Feedback	MissedWin	True
631.027	2.771	Win2	0.6866	n/a	No	2.771	n/a	n/a	LatePress	0	0.0	n/a	7	66	ISIslide	MissedWin	True
633.826	0.25	Control	0.6912	0.0	Yes	2.724	0.026	n/a	GoodResponse	0	n/a	n/a	7	67	Cue	Neutral	False
634.076	3.95	Control	0.6912	0.0	Yes	2.724	0.0	2.0	GoodResponse	0	3.652	636.728	7	67	Fixation	Neutral	False
637.728	0.3	Control	0.6912	0.0	Yes	2.724	0.0	2.0	GoodResponse	0	3.652	n/a	7	67	ButtonPress	Neutral	False
638.025	0.18	Control	0.6912	0.001	Yes	2.724	-0.001	2.0	GoodResponse	0	0.114	637.139	7	67	Target	Neutral	False
638.139	0.3	Control	0.6912	0.001	Yes	2.724	-0.001	2.0	GoodResponse	0	0.114	n/a	7	67	ButtonPress	Neutral	False
638.208	0.52	Control	0.6912	n/a	Yes	2.724	n/a	n/a	GoodResponse	0	n/a	n/a	7	67	Blank	Neutral	False
638.724	1.45	Control	0.6912	n/a	Yes	2.724	n/a	5.0	GoodResponse	0	0.03	637.754	7	67	Feedback	Neutral	False
640.174	2.724	Control	0.6912	n/a	Yes	2.724	n/a	n/a	GoodResponse	0	0.0	n/a	7	67	ISIslide	Neutral	False
642.923	0.25	Win2	0.6812	0.0	No	3.077	0.023	n/a	PrematurePress	0	n/a	n/a	7	68	Cue	MissedWin	True
643.173	4.0	Win2	0.6812	0.0	No	3.077	0.0	n/a	PrematurePress	0	n/a	n/a	7	68	Fixation	MissedWin	True
647.171	0.17	Win2	0.6812	0.002	No	3.077	-0.002	2.0	PrematurePress	0	0.013	646.184	7	68	Target	MissedWin	True
647.184	0.3	Win2	0.6812	0.002	No	3.077	-0.002	2.0	PrematurePress	0	0.013	n/a	7	68	ButtonPress	MissedWin	True
647.355	0.53	Win2	0.6812	n/a	No	3.077	n/a	n/a	PrematurePress	0	n/a	n/a	7	68	Blank	MissedWin	True
647.871	1.45	Win2	0.6812	n/a	No	3.077	n/a	5.0	PrematurePress	0	0.005	646.876	7	68	Feedback	MissedWin	True
649.321	3.077	Win2	0.6812	n/a	No	3.077	n/a	n/a	PrematurePress	0	0.0	n/a	7	68	ISIslide	MissedWin	True
652.42	0.25	Win2	0.6714	0.0	No	3.23	0.02	n/a	NoResponse	0	n/a	n/a	7	69	Cue	MissedWin	True
652.67	3.95	Win2	0.6714	0.0	No	3.23	0.0	n/a	NoResponse	0	n/a	n/a	7	69	Fixation	MissedWin	True
656.618	0.16	Win2	0.6714	0.002	No	3.23	-0.002	2.0	NoResponse	0	0.214	655.832	7	69	Target	MissedWin	True
656.785	0.54	Win2	0.6714	n/a	No	3.23	n/a	n/a	NoResponse	0	n/a	n/a	7	69	Blank	MissedWin	True
656.832	0.3	Win2	0.6714	0.002	No	3.23	-0.002	2.0	NoResponse	0	0.214	n/a	7	69	ButtonPress	MissedWin	True
657.318	1.45	Win2	0.6714	n/a	No	3.23	n/a	5.0	NoResponse	0	0.022	656.34	7	69	Feedback	MissedWin	True
658.767	3.23	Win2	0.6714	n/a	No	3.23	n/a	n/a	NoResponse	0	0.0	n/a	7	69	ISIslide	MissedWin	True
662.016	0.25	Lose2	0.662	0.0	No	3.034	0.016	n/a	NoResponse	-1	n/a	n/a	6	70	Cue	Loss	True
662.266	4.05	Lose2	0.662	0.0	No	3.034	0.0	n/a	NoResponse	-1	n/a	n/a	6	70	Fixation	Loss	True
666.315	0.15	Lose2	0.662	0.001	No	3.034	-0.001	2.0	NoResponse	-1	0.165	665.48	6	70	Target	Loss	True
666.465	0.55	Lose2	0.662	n/a	No	3.034	n/a	n/a	NoResponse	-1	n/a	n/a	6	70	Blank	Loss	True
666.48	0.3	Lose2	0.662	0.001	No	3.034	-0.001	2.0	NoResponse	-1	0.165	n/a	6	70	ButtonPress	Loss	True
667.015	1.45	Lose2	0.662	n/a	No	3.034	n/a	5.0	NoResponse	-1	0.032	666.047	6	70	Feedback	Loss	True
668.464	3.034	Lose2	0.662	n/a	No	3.034	n/a	n/a	NoResponse	-1	0.0	n/a	6	70	ISIslide	Loss	True
671.513	0.25	Win2	0.6528	0.0	No	2.737	0.013	n/a	NoResponse	0	n/a	n/a	6	71	Cue	MissedWin	True
671.763	4.05	Win2	0.6528	0.0	No	2.737	0.0	n/a	NoResponse	0	n/a	n/a	6	71	Fixation	MissedWin	True
675.811	0.15	Win2	0.6528	0.002	No	2.737	-0.002	2.0	NoResponse	0	0.185	674.996	6	71	Target	MissedWin	True
675.961	0.55	Win2	0.6528	n/a	No	2.737	n/a	n/a	NoResponse	0	n/a	n/a	6	71	Blank	MissedWin	True
675.996	0.3	Win2	0.6528	0.002	No	2.737	-0.002	2.0	NoResponse	0	0.185	n/a	6	71	ButtonPress	MissedWin	True
676.511	1.45	Win2	0.6528	n/a	No	2.737	n/a	5.0	NoResponse	0	0.047	675.558	6	71	Feedback	MissedWin	True
677.961	2.737	Win2	0.6528	n/a	No	2.737	n/a	n/a	NoResponse	0	0.0	n/a	6	71	ISIslide	MissedWin	True
680.726	0.25	Win2	0.6437999999999999	0.001	No	2.774	0.026	n/a	NoResponse	0	n/a	n/a	6	72	Cue	MissedWin	True
680.976	4.1	Win2	0.6437999999999999	0.0	No	2.774	0.0	n/a	NoResponse	0	n/a	n/a	6	72	Fixation	MissedWin	True
685.075	0.16	Win2	0.6437999999999999	0.001	No	2.774	-0.001	2.0	NoResponse	0	0.2	684.275	6	72	Target	MissedWin	True
685.242	0.54	Win2	0.6437999999999999	n/a	No	2.774	n/a	n/a	NoResponse	0	n/a	n/a	6	72	Blank	MissedWin	True
685.275	0.3	Win2	0.6437999999999999	0.001	No	2.774	-0.001	2.0	NoResponse	0	0.2	n/a	6	72	ButtonPress	MissedWin	True
685.775	1.45	Win2	0.6437999999999999	n/a	No	2.774	n/a	5.0	NoResponse	0	0.003	684.778	6	72	Feedback	MissedWin	True
687.224	2.774	Win2	0.6437999999999999	n/a	No	2.774	n/a	n/a	NoResponse	0	0.0	n/a	6	72	ISIslide	MissedWin	True
690.023	0.25	Win2	0.6351	0.0	No	2.677	0.023	n/a	NoResponse	0	n/a	n/a	6	73	Cue	MissedWin	True
690.273	4.0	Win2	0.6351	0.0	No	2.677	0.0	n/a	NoResponse	0	n/a	n/a	6	73	Fixation	MissedWin	True
694.272	0.17	Win2	0.6351	0.001	No	2.677	-0.001	2.0	NoResponse	0	0.178	693.45	6	73	Target	MissedWin	True
694.438	0.53	Win2	0.6351	n/a	No	2.677	n/a	n/a	NoResponse	0	n/a	n/a	6	73	Blank	MissedWin	True
694.45	0.3	Win2	0.6351	0.001	No	2.677	-0.001	2.0	NoResponse	0	0.178	n/a	6	73	ButtonPress	MissedWin	True
694.971	1.45	Win2	0.6351	n/a	No	2.677	n/a	5.0	NoResponse	0	0.027	693.998	6	73	Feedback	MissedWin	True
696.421	2.677	Win2	0.6351	n/a	No	2.677	n/a	n/a	NoResponse	0	0.0	n/a	6	73	ISIslide	MissedWin	True
699.12	0.25	Lose2	0.6267	0.0	No	2.63	0.02	n/a	NoResponse	-1	n/a	n/a	5	74	Cue	Loss	True
699.37	4.05	Lose2	0.6267	0.0	No	2.63	0.0	n/a	NoResponse	-1	n/a	n/a	5	74	Fixation	Loss	True
703.419	0.18	Lose2	0.6267	0.001	No	2.63	-0.001	2.0	NoResponse	-1	0.214	702.633	5	74	Target	Loss	True
703.602	0.52	Lose2	0.6267	n/a	No	2.63	n/a	n/a	NoResponse	-1	n/a	n/a	5	74	Blank	Loss	True
703.633	0.3	Lose2	0.6267	0.001	No	2.63	-0.001	2.0	NoResponse	-1	0.214	n/a	5	74	ButtonPress	Loss	True
704.118	1.45	Lose2	0.6267	n/a	No	2.63	n/a	5.0	NoResponse	-1	0.002	703.12	5	74	Feedback	Loss	True
705.568	2.63	Lose2	0.6267	n/a	No	2.63	n/a	n/a	NoResponse	-1	0.0	n/a	5	74	ISIslide	Loss	True
708.217	0.25	Lose2	0.6315999999999999	0.0	Yes	2.933	0.017	n/a	GoodResponse	0	n/a	n/a	5	75	Cue	AvoidedLoss	True
708.467	3.95	Lose2	0.6315999999999999	0.0	Yes	2.933	0.0	n/a	GoodResponse	0	n/a	n/a	5	75	Fixation	AvoidedLoss	True
712.415	0.19	Lose2	0.6315999999999999	0.002	Yes	2.933	-0.002	2.0	GoodResponse	0	0.17	711.585	5	75	Target	AvoidedLoss	True
712.585	0.3	Lose2	0.6315999999999999	0.002	Yes	2.933	-0.002	2.0	GoodResponse	0	0.17	n/a	5	75	ButtonPress	AvoidedLoss	True
712.615	0.51	Lose2	0.6315999999999999	n/a	Yes	2.933	n/a	n/a	GoodResponse	0	n/a	n/a	5	75	Blank	AvoidedLoss	True
713.115	1.45	Lose2	0.6315999999999999	n/a	Yes	2.933	n/a	5.0	GoodResponse	0	0.029	712.144	5	75	Feedback	AvoidedLoss	True
714.565	2.933	Lose2	0.6315999999999999	n/a	Yes	2.933	n/a	n/a	GoodResponse	0	0.0	n/a	5	75	ISIslide	AvoidedLoss	True
717.514	0.25	Control	0.6364	0.0	Yes	3.236	0.014	n/a	GoodResponse	0	n/a	n/a	5	76	Cue	Neutral	True
717.764	4.05	Control	0.6364	0.0	Yes	3.236	0.0	n/a	GoodResponse	0	n/a	n/a	5	76	Fixation	Neutral	True
721.812	0.2	Control	0.6364	0.002	Yes	3.236	-0.002	2.0	GoodResponse	0	0.175	720.987	5	76	Target	Neutral	True
721.987	0.3	Control	0.6364	0.002	Yes	3.236	-0.002	2.0	GoodResponse	0	0.175	n/a	5	76	ButtonPress	Neutral	True
722.012	0.5	Control	0.6364	n/a	Yes	3.236	n/a	n/a	GoodResponse	0	n/a	n/a	5	76	Blank	Neutral	True
722.512	1.45	Control	0.6364	n/a	Yes	3.236	n/a	5.0	GoodResponse	0	0.046	721.558	5	76	Feedback	Neutral	True
723.961	3.236	Control	0.6364	n/a	Yes	3.236	n/a	n/a	GoodResponse	0	0.0	n/a	5	76	ISIslide	Neutral	True
727.227	0.25	Lose2	0.6409999999999999	0.0	Yes	2.573	0.027	n/a	GoodResponse	0	n/a	n/a	5	77	Cue	AvoidedLoss	True
727.477	3.95	Lose2	0.6409999999999999	0.0	Yes	2.573	0.0	n/a	GoodResponse	0	n/a	n/a	5	77	Fixation	AvoidedLoss	True
731.425	0.21	Lose2	0.6409999999999999	0.002	Yes	2.573	-0.002	2.0	GoodResponse	0	0.195	730.62	5	77	Target	AvoidedLoss	True
731.62	0.3	Lose2	0.6409999999999999	0.002	Yes	2.573	-0.002	2.0	GoodResponse	0	0.195	n/a	5	77	ButtonPress	AvoidedLoss	True
731.642	0.49	Lose2	0.6409999999999999	n/a	Yes	2.573	n/a	n/a	GoodResponse	0	n/a	n/a	5	77	Blank	AvoidedLoss	True
732.125	1.45	Lose2	0.6409999999999999	n/a	Yes	2.573	n/a	5.0	GoodResponse	0	0.043	731.168	5	77	Feedback	AvoidedLoss	True
733.575	2.573	Lose2	0.6409999999999999	n/a	Yes	2.573	n/a	n/a	GoodResponse	0	0.0	n/a	5	77	ISIslide	AvoidedLoss	True
