onset	duration	cue_type	current_mean_accuracy	duration_error	is_hit	isi_adjusted	onset_delay	response	response_type	reward	rt	rt_time	total_reward	trial_number	trial_phase	trial_type	one_press
11.11	0.25	Control	0.0	0.0	No	2.94	0.01	n/a	NoResponse	0	n/a	n/a	0	0	Cue	Neutral	False
11.36	3.85	Control	0.0	0.001	No	2.94	0.0	2.0	NoResponse	0	0.585	10.945	0	0	Fixation	Neutral	False
11.945	0.3	Control	0.0	0.001	No	2.94	0.0	2.0	NoResponse	0	0.585	n/a	0	0	ButtonPress	Neutral	False
15.222	0.4	Control	0.0	0.0	No	2.94	0.012	2.0	NoResponse	0	0.508	14.73	0	0	Target	Neutral	False
15.607	0.3	Control	0.0	n/a	No	2.94	n/a	n/a	NoResponse	0	n/a	n/a	0	0	Blank	Neutral	False
15.73	0.3	Control	0.0	0.0	No	2.94	0.012	2.0	NoResponse	0	0.508	n/a	0	0	ButtonPress	Neutral	False
15.907	1.45	Control	0.0	n/a	No	2.94	n/a	5.0	NoResponse	0	0.02	14.927	0	0	Feedback	Neutral	False
17.362	2.94	Control	0.0	n/a	No	2.94	n/a	n/a	NoResponse	0	0.0	n/a	0	0	ISIslide	Neutral	False
20.321	0.25	Lose2	0.5	0.0	Yes	2.779	0.021	n/a	GoodResponse	0	n/a	n/a	0	1	Cue	AvoidedLoss	True
20.571	4.0	Lose2	0.5	0.0	Yes	2.779	0.0	n/a	GoodResponse	0	n/a	n/a	0	1	Fixation	AvoidedLoss	True
24.567	0.41	Lose2	0.5	0.004	Yes	2.779	-0.004	2.0	GoodResponse	0	0.207	23.774	0	1	Target	AvoidedLoss	True
24.774	0.3	Lose2	0.5	0.004	Yes	2.779	-0.004	2.0	GoodResponse	0	0.207	n/a	0	1	ButtonPress	AvoidedLoss	True
24.985	0.29	Lose2	0.5	n/a	Yes	2.779	n/a	n/a	GoodResponse	0	n/a	n/a	0	1	Blank	AvoidedLoss	True
25.269	1.45	Lose2	0.5	n/a	Yes	2.779	n/a	5.0	GoodResponse	0	0.023	24.292	0	1	Feedback	AvoidedLoss	True
26.723	2.779	Lose2	0.5	n/a	Yes	2.779	n/a	n/a	GoodResponse	0	0.0	n/a	0	1	ISIslide	AvoidedLoss	True
29.515	0.25	Control	0.6667000000000001	0.0	Yes	2.585	0.015	n/a	GoodResponse	0	n/a	n/a	0	2	Cue	Neutral	True
29.766	4.1	Control	0.6667000000000001	0.0	Yes	2.585	0.001	n/a	GoodResponse	0	n/a	n/a	0	2	Fixation	Neutral	True
33.861	0.42	Control	0.6667000000000001	0.004	Yes	2.585	-0.004	2.0	GoodResponse	0	0.195	33.056	0	2	Target	Neutral	True
34.056	0.3	Control	0.6667000000000001	0.004	Yes	2.585	-0.004	2.0	GoodResponse	0	0.195	n/a	0	2	ButtonPress	Neutral	True
34.296	0.28	Control	0.6667000000000001	n/a	Yes	2.585	n/a	n/a	GoodResponse	0	n/a	n/a	0	2	Blank	Neutral	True
34.563	1.45	Control	0.6667000000000001	n/a	Yes	2.585	n/a	5.0	GoodResponse	0	0.046	33.609	0	2	Feedback	Neutral	True
36.018	2.585	Control	0.6667000000000001	n/a	Yes	2.585	n/a	n/a	GoodResponse	0	0.0	n/a	0	2	ISIslide	Neutral	True
38.625	0.25	Win2	0.75	0.0	Yes	2.825	0.025	n/a	GoodResponse	1	n/a	n/a	1	3	Cue	Win	True
38.876	3.95	Win2	0.75	0.0	Yes	2.825	0.001	n/a	GoodResponse	1	n/a	n/a	1	3	Fixation	Win	True
42.821	0.41	Win2	0.75	0.004	Yes	2.825	-0.004	2.0	GoodResponse	1	0.217	42.038	1	3	Target	Win	True
43.038	0.3	Win2	0.75	0.004	Yes	2.825	-0.004	2.0	GoodResponse	1	0.217	n/a	1	3	ButtonPress	Win	True
43.239	0.29	Win2	0.75	n/a	Yes	2.825	n/a	n/a	GoodResponse	1	n/a	n/a	1	3	Blank	Win	True
43.523	1.45	Win2	0.75	n/a	Yes	2.825	n/a	5.0	GoodResponse	1	0.013	42.536	1	3	Feedback	Win	True
44.978	2.825	Win2	0.75	n/a	Yes	2.825	n/a	n/a	GoodResponse	1	0.0	n/a	1	3	ISIslide	Win	True
47.82	0.25	Win2	0.8	0.0	Yes	3.28	0.02	n/a	GoodResponse	1	n/a	n/a	2	4	Cue	Win	True
48.07	4.0	Win2	0.8	0.0	Yes	3.28	0.0	n/a	GoodResponse	1	n/a	n/a	2	4	Fixation	Win	True
52.066	0.4	Win2	0.8	0.004	Yes	3.28	-0.004	2.0	GoodResponse	1	0.183	51.249	2	4	Target	Win	True
52.249	0.3	Win2	0.8	0.004	Yes	3.28	-0.004	2.0	GoodResponse	1	0.183	n/a	2	4	ButtonPress	Win	True
52.467	0.3	Win2	0.8	n/a	Yes	3.28	n/a	n/a	GoodResponse	1	n/a	n/a	2	4	Blank	Win	True
52.768	1.45	Win2	0.8	n/a	Yes	3.28	n/a	5.0	GoodResponse	1	0.036	51.804	2	4	Feedback	Win	True
54.222	3.28	Win2	0.8	n/a	Yes	3.28	n/a	n/a	GoodResponse	1	0.0	n/a	2	4	ISIslide	Win	True
57.515	0.25	Win2	0.8332999999999999	0.0	Yes	2.785	0.015	n/a	GoodResponse	1	n/a	n/a	3	5	Cue	Win	True
57.766	4.0	Win2	0.8332999999999999	0.0	Yes	2.785	0.001	n/a	GoodResponse	1	n/a	n/a	3	5	Fixation	Win	True
61.761	0.39	Win2	0.8332999999999999	0.004	Yes	2.785	-0.004	2.0	GoodResponse	1	0.2	60.961	3	5	Target	Win	True
61.961	0.3	Win2	0.8332999999999999	0.004	Yes	2.785	-0.004	2.0	GoodResponse	1	0.2	n/a	3	5	ButtonPress	Win	True
62.163	0.31	Win2	0.8332999999999999	n/a	Yes	2.785	n/a	n/a	GoodResponse	1	n/a	n/a	3	5	Blank	Win	True
62.463	1.45	Win2	0.8332999999999999	n/a	Yes	2.785	n/a	5.0	GoodResponse	1	0.048	61.511	3	5	Feedback	Win	True
63.918	2.785	Win2	0.8332999999999999	n/a	Yes	2.785	n/a	n/a	GoodResponse	1	0.0	n/a	3	5	ISIslide	Win	True
66.726	0.25	Lose2	0.8571	0.0	Yes	2.724	0.026	n/a	GoodResponse	0	n/a	n/a	3	6	Cue	AvoidedLoss	True
66.977	3.95	Lose2	0.8571	0.0	Yes	2.724	0.001	n/a	GoodResponse	0	n/a	n/a	3	6	Fixation	AvoidedLoss	True
70.922	0.38	Lose2	0.8571	0.004	Yes	2.724	-0.004	2.0	GoodResponse	0	0.177	70.099	3	6	Target	AvoidedLoss	True
71.099	0.3	Lose2	0.8571	0.004	Yes	2.724	-0.004	2.0	GoodResponse	0	0.177	n/a	3	6	ButtonPress	AvoidedLoss	True
71.307	0.32	Lose2	0.8571	n/a	Yes	2.724	n/a	n/a	GoodResponse	0	n/a	n/a	3	6	Blank	AvoidedLoss	True
71.624	1.45	Lose2	0.8571	n/a	Yes	2.724	n/a	5.0	GoodResponse	0	0.009	70.633	3	6	Feedback	AvoidedLoss	True
73.079	2.724	Lose2	0.8571	n/a	Yes	2.724	n/a	n/a	GoodResponse	0	0.0	n/a	3	6	ISIslide	AvoidedLoss	True
75.82	0.25	Lose2	0.875	0.0	Yes	4.03	0.02	n/a	GoodResponse	0	n/a	n/a	3	7	Cue	AvoidedLoss	True
76.071	4.05	Lose2	0.875	0.0	Yes	4.03	0.001	n/a	GoodResponse	0	n/a	n/a	3	7	Fixation	AvoidedLoss	True
80.116	0.37	Lose2	0.875	0.004	Yes	4.03	-0.004	2.0	GoodResponse	0	0.209	79.325	3	7	Target	AvoidedLoss	True
80.325	0.3	Lose2	0.875	0.004	Yes	4.03	-0.004	2.0	GoodResponse	0	0.209	n/a	3	7	ButtonPress	AvoidedLoss	True
80.501	0.33	Lose2	0.875	n/a	Yes	4.03	n/a	n/a	GoodResponse	0	n/a	n/a	3	7	Blank	AvoidedLoss	True
80.818	1.45	Lose2	0.875	n/a	Yes	4.03	n/a	5.0	GoodResponse	0	0.034	79.852	3	7	Feedback	AvoidedLoss	True
82.273	4.03	Lose2	0.875	n/a	Yes	4.03	n/a	n/a	GoodResponse	0	0.0	n/a	3	7	ISIslide	AvoidedLoss	True
86.318	0.25	Lose2	0.8889	0.0	Yes	3.032	0.018	n/a	GoodResponse	0	n/a	n/a	3	8	Cue	AvoidedLoss	True
86.569	3.95	Lose2	0.8889	0.0	Yes	3.032	0.001	n/a	GoodResponse	0	n/a	n/a	3	8	Fixation	AvoidedLoss	True
90.514	0.36	Lose2	0.8889	0.004	Yes	3.032	-0.004	2.0	GoodResponse	0	0.222	89.736	3	8	Target	AvoidedLoss	True
90.736	0.3	Lose2	0.8889	0.004	Yes	3.032	-0.004	2.0	GoodResponse	0	0.222	n/a	3	8	ButtonPress	AvoidedLoss	True
90.882	0.34	Lose2	0.8889	n/a	Yes	3.032	n/a	n/a	GoodResponse	0	n/a	n/a	3	8	Blank	AvoidedLoss	True
91.216	1.45	Lose2	0.8889	n/a	Yes	3.032	n/a	5.0	GoodResponse	0	0.027	90.243	3	8	Feedback	AvoidedLoss	True
92.671	3.032	Lose2	0.8889	n/a	Yes	3.032	n/a	n/a	GoodResponse	0	0.0	n/a	3	8	ISIslide	AvoidedLoss	True
95.73	0.25	Lose2	0.9	0.0	Yes	3.12	0.03	n/a	GoodResponse	0	n/a	n/a	3	9	Cue	AvoidedLoss	True
95.98	3.95	Lose2	0.9	0.001	Yes	3.12	0.0	n/a	GoodResponse	0	n/a	n/a	3	9	Fixation	AvoidedLoss	True
99.926	0.35	Lose2	0.9	0.004	Yes	3.12	-0.004	2.0	GoodResponse	0	0.318	99.244	3	9	Target	AvoidedLoss	True
100.244	0.3	Lose2	0.9	0.004	Yes	3.12	-0.004	2.0	GoodResponse	0	0.318	n/a	3	9	ButtonPress	AvoidedLoss	True
100.277	0.35	Lose2	0.9	n/a	Yes	3.12	n/a	n/a	GoodResponse	0	n/a	n/a	3	9	Blank	AvoidedLoss	True
100.628	1.45	Lose2	0.9	n/a	Yes	3.12	n/a	5.0	GoodResponse	0	0.029	99.657	3	9	Feedback	AvoidedLoss	True
102.082	3.12	Lose2	0.9	n/a	Yes	3.12	n/a	n/a	GoodResponse	0	0.0	n/a	3	9	ISIslide	AvoidedLoss	True
105.225	0.25	Control	0.9091	0.0	Yes	3.275	0.025	n/a	GoodResponse	0	n/a	n/a	3	10	Cue	Neutral	True
105.476	4.0	Control	0.9091	0.0	Yes	3.275	0.001	n/a	GoodResponse	0	n/a	n/a	3	10	Fixation	Neutral	True
109.471	0.34	Control	0.9091	0.004	Yes	3.275	-0.004	2.0	GoodResponse	0	0.2	108.671	3	10	Target	Neutral	True
109.671	0.3	Control	0.9091	0.004	Yes	3.275	-0.004	2.0	GoodResponse	0	0.2	n/a	3	10	ButtonPress	Neutral	True
109.822	0.36	Control	0.9091	n/a	Yes	3.275	n/a	n/a	GoodResponse	0	n/a	n/a	3	10	Blank	Neutral	True
110.173	1.45	Control	0.9091	n/a	Yes	3.275	n/a	5.0	GoodResponse	0	0.045	109.218	3	10	Feedback	Neutral	True
111.627	3.275	Control	0.9091	n/a	Yes	3.275	n/a	n/a	GoodResponse	0	0.0	n/a	3	10	ISIslide	Neutral	True
114.92	0.25	Lose2	0.9167000000000001	0.001	Yes	2.73	0.02	n/a	GoodResponse	0	n/a	n/a	3	11	Cue	AvoidedLoss	True
115.171	4.05	Lose2	0.9167000000000001	0.0	Yes	2.73	0.001	n/a	GoodResponse	0	n/a	n/a	3	11	Fixation	AvoidedLoss	True
119.217	0.33	Lose2	0.9167000000000001	0.003	Yes	2.73	-0.003	2.0	GoodResponse	0	0.19	118.407	3	11	Target	AvoidedLoss	True
119.407	0.3	Lose2	0.9167000000000001	0.003	Yes	2.73	-0.003	2.0	GoodResponse	0	0.19	n/a	3	11	ButtonPress	AvoidedLoss	True
119.551	0.37	Lose2	0.9167000000000001	n/a	Yes	2.73	n/a	n/a	GoodResponse	0	n/a	n/a	3	11	Blank	AvoidedLoss	True
119.919	1.45	Lose2	0.9167000000000001	n/a	Yes	2.73	n/a	5.0	GoodResponse	0	0.007	118.926	3	11	Feedback	AvoidedLoss	True
121.373	2.73	Lose2	0.9167000000000001	n/a	Yes	2.73	n/a	n/a	GoodResponse	0	0.0	n/a	3	11	ISIslide	AvoidedLoss	True
124.115	0.25	Control	0.9231	0.0	Yes	2.985	0.015	n/a	GoodResponse	0	n/a	n/a	3	12	Cue	Neutral	True
124.365	3.9	Control	0.9231	0.0	Yes	2.985	0.0	n/a	GoodResponse	0	n/a	n/a	3	12	Fixation	Neutral	True
128.277	0.32	Control	0.9231	0.0	Yes	2.985	0.012	2.0	GoodResponse	0	0.211	127.488	3	12	Target	Neutral	True
128.488	0.3	Control	0.9231	0.0	Yes	2.985	0.012	2.0	GoodResponse	0	0.211	n/a	3	12	ButtonPress	Neutral	True
128.595	0.38	Control	0.9231	n/a	Yes	2.985	n/a	n/a	GoodResponse	0	n/a	n/a	3	12	Blank	Neutral	True
128.962	1.45	Control	0.9231	n/a	Yes	2.985	n/a	5.0	GoodResponse	0	0.036	127.998	3	12	Feedback	Neutral	True
130.417	2.985	Control	0.9231	n/a	Yes	2.985	n/a	n/a	GoodResponse	0	0.0	n/a	3	12	ISIslide	Neutral	True
133.426	0.25	Control	0.9286	0.0	Yes	2.774	0.026	n/a	GoodResponse	0	n/a	n/a	3	13	Cue	Neutral	True
133.677	4.0	Control	0.9286	0.0	Yes	2.774	0.001	n/a	GoodResponse	0	n/a	n/a	3	13	Fixation	Neutral	True
137.672	0.31	Control	0.9286	0.004	Yes	2.774	-0.004	2.0	GoodResponse	0	0.227	136.899	3	13	Target	Neutral	True
137.899	0.3	Control	0.9286	0.004	Yes	2.774	-0.004	2.0	GoodResponse	0	0.227	n/a	3	13	ButtonPress	Neutral	True
137.989	0.39	Control	0.9286	n/a	Yes	2.774	n/a	n/a	GoodResponse	0	n/a	n/a	3	13	Blank	Neutral	True
138.374	1.45	Control	0.9286	n/a	Yes	2.774	n/a	5.0	GoodResponse	0	0.039	137.413	3	13	Feedback	Neutral	True
139.828	2.774	Control	0.9286	n/a	Yes	2.774	n/a	n/a	GoodResponse	0	0.0	n/a	3	13	ISIslide	Neutral	True
142.62	0.25	Win2	0.8667	0.0	No	2.68	0.02	n/a	NoResponse	0	n/a	n/a	3	14	Cue	MissedWin	False
142.871	4.1	Win2	0.8667	0.0	No	2.68	0.001	n/a	NoResponse	0	n/a	n/a	3	14	Fixation	MissedWin	False
146.966	0.3	Win2	0.8667	0.004	No	2.68	-0.004	n/a	NoResponse	0	n/a	n/a	3	14	Target	MissedWin	False
147.267	0.4	Win2	0.8667	n/a	No	2.68	n/a	n/a	NoResponse	0	n/a	n/a	3	14	Blank	MissedWin	False
147.668	1.45	Win2	0.8667	n/a	No	2.68	n/a	5.0	NoResponse	0	0.013	146.681	3	14	Feedback	MissedWin	False
149.123	2.68	Win2	0.8667	n/a	No	2.68	n/a	n/a	NoResponse	0	0.0	n/a	3	14	ISIslide	MissedWin	False
151.814	0.25	Control	0.875	0.0	Yes	2.986	0.014	n/a	GoodResponse	0	n/a	n/a	3	15	Cue	Neutral	True
152.065	4.0	Control	0.875	0.0	Yes	2.986	0.001	n/a	GoodResponse	0	n/a	n/a	3	15	Fixation	Neutral	True
156.06	0.29	Control	0.875	0.004	Yes	2.986	-0.004	2.0	GoodResponse	0	0.162	155.222	3	15	Target	Neutral	True
156.222	0.3	Control	0.875	0.004	Yes	2.986	-0.004	2.0	GoodResponse	0	0.162	n/a	3	15	ButtonPress	Neutral	True
156.361	0.41	Control	0.875	n/a	Yes	2.986	n/a	n/a	GoodResponse	0	n/a	n/a	3	15	Blank	Neutral	True
156.762	1.45	Control	0.875	n/a	Yes	2.986	n/a	5.0	GoodResponse	0	0.041	155.803	3	15	Feedback	Neutral	True
158.217	2.986	Control	0.875	n/a	Yes	2.986	n/a	n/a	GoodResponse	0	0.0	n/a	3	15	ISIslide	Neutral	True
161.226	0.25	Win2	0.8824	0.0	Yes	2.874	0.026	n/a	GoodResponse	1	n/a	n/a	4	16	Cue	Win	True
161.476	4.0	Win2	0.8824	0.001	Yes	2.874	0.0	n/a	GoodResponse	1	n/a	n/a	4	16	Fixation	Win	True
165.472	0.28	Win2	0.8824	0.004	Yes	2.874	-0.004	2.0	GoodResponse	1	0.194	164.666	4	16	Target	Win	True
165.666	0.3	Win2	0.8824	0.004	Yes	2.874	-0.004	2.0	GoodResponse	1	0.194	n/a	4	16	ButtonPress	Win	True
165.756	0.42	Win2	0.8824	n/a	Yes	2.874	n/a	n/a	GoodResponse	1	n/a	n/a	4	16	Blank	Win	True
166.174	1.45	Win2	0.8824	n/a	Yes	2.874	n/a	5.0	GoodResponse	1	0.044	165.218	4	16	Feedback	Win	True
167.628	2.874	Win2	0.8824	n/a	Yes	2.874	n/a	n/a	GoodResponse	1	0.0	n/a	4	16	ISIslide	Win	True
170.52	0.25	Lose2	0.8889	0.0	Yes	2.73	0.02	n/a	GoodResponse	0	n/a	n/a	4	17	Cue	AvoidedLoss	True
170.771	3.95	Lose2	0.8889	0.0	Yes	2.73	0.001	n/a	GoodResponse	0	n/a	n/a	4	17	Fixation	AvoidedLoss	True
174.716	0.27	Lose2	0.8889	0.004	Yes	2.73	-0.004	2.0	GoodResponse	0	0.183	173.899	4	17	Target	AvoidedLoss	True
174.899	0.3	Lose2	0.8889	0.004	Yes	2.73	-0.004	2.0	GoodResponse	0	0.183	n/a	4	17	ButtonPress	AvoidedLoss	True
175	0.43	Lose2	0.8889	n/a	Yes	2.73	n/a	n/a	GoodResponse	0	n/a	n/a	4	17	Blank	AvoidedLoss	True
175.418	1.45	Lose2	0.8889	n/a	Yes	2.73	n/a	5.0	GoodResponse	0	0.019	174.437	4	17	Feedback	AvoidedLoss	True
176.873	2.73	Lose2	0.8889	n/a	Yes	2.73	n/a	n/a	GoodResponse	0	0.0	n/a	4	17	ISIslide	AvoidedLoss	True
179.631	0.25	Lose2	0.8946999999999999	0.0	Yes	2.719	0.031	n/a	GoodResponse	0	n/a	n/a	4	18	Cue	AvoidedLoss	True
179.882	4.05	Lose2	0.8946999999999999	0.0	Yes	2.719	0.001	n/a	GoodResponse	0	n/a	n/a	4	18	Fixation	AvoidedLoss	True
183.927	0.26	Lose2	0.8946999999999999	0.004	Yes	2.719	-0.004	2.0	GoodResponse	0	0.196	183.123	4	18	Target	AvoidedLoss	True
184.123	0.3	Lose2	0.8946999999999999	0.004	Yes	2.719	-0.004	2.0	GoodResponse	0	0.196	n/a	4	18	ButtonPress	AvoidedLoss	True
184.194	0.44	Lose2	0.8946999999999999	n/a	Yes	2.719	n/a	n/a	GoodResponse	0	n/a	n/a	4	18	Blank	AvoidedLoss	True
184.629	1.45	Lose2	0.8946999999999999	n/a	Yes	2.719	n/a	5.0	GoodResponse	0	0.027	183.656	4	18	Feedback	AvoidedLoss	True
186.083	2.719	Lose2	0.8946999999999999	n/a	Yes	2.719	n/a	n/a	GoodResponse	0	0.0	n/a	4	18	ISIslide	AvoidedLoss	True
188.825	0.25	Control	0.9	0.0	Yes	2.925	0.025	n/a	GoodResponse	0	n/a	n/a	4	19	Cue	Neutral	True
189.076	3.95	Control	0.9	0.0	Yes	2.925	0.001	n/a	GoodResponse	0	n/a	n/a	4	19	Fixation	Neutral	True
193.021	0.25	Control	0.9	0.004	Yes	2.925	-0.004	2.0	GoodResponse	0	0.199	192.22	4	19	Target	Neutral	True
193.22	0.3	Control	0.9	0.004	Yes	2.925	-0.004	2.0	GoodResponse	0	0.199	n/a	4	19	ButtonPress	Neutral	True
193.272	0.45	Control	0.9	n/a	Yes	2.925	n/a	n/a	GoodResponse	0	n/a	n/a	4	19	Blank	Neutral	True
193.723	1.45	Control	0.9	n/a	Yes	2.925	n/a	5.0	GoodResponse	0	0.006	192.729	4	19	Feedback	Neutral	True
195.177	2.925	Control	0.9	n/a	Yes	2.925	n/a	n/a	GoodResponse	0	0.0	n/a	4	19	ISIslide	Neutral	True
198.119	0.25	Control	0.8571	0.001	No	2.631	0.019	n/a	LatePress	0	n/a	n/a	4	20	Cue	Neutral	True
198.37	4.05	Control	0.8571	0.0	No	2.631	0.001	n/a	LatePress	0	n/a	n/a	4	20	Fixation	Neutral	True
202.416	0.24	Control	0.8571	0.003	No	2.631	-0.003	2.0	LatePress	0	0.246	201.662	4	20	Target	Neutral	True
202.662	0.3	Control	0.8571	0.003	No	2.631	-0.003	2.0	LatePress	0	0.246	n/a	4	20	ButtonPress	Neutral	True
202.666	0.46	Control	0.8571	n/a	No	2.631	n/a	n/a	LatePress	0	n/a	n/a	4	20	Blank	Neutral	True
203.118	1.45	Control	0.8571	n/a	No	2.631	n/a	5.0	LatePress	0	0.026	202.144	4	20	Feedback	Neutral	True
204.572	2.631	Control	0.8571	n/a	No	2.631	n/a	n/a	LatePress	0	0.0	n/a	4	20	ISIslide	Neutral	True
207.23	0.25	Control	0.8636	0.0	Yes	2.77	0.03	n/a	GoodResponse	0	n/a	n/a	4	21	Cue	Neutral	True
207.481	4.1	Control	0.8636	0.0	Yes	2.77	0.001	n/a	GoodResponse	0	n/a	n/a	4	21	Fixation	Neutral	True
211.576	0.23	Control	0.8636	0.004	Yes	2.77	-0.004	2.0	GoodResponse	0	0.22	210.796	4	21	Target	Neutral	True
211.796	0.3	Control	0.8636	0.004	Yes	2.77	-0.004	2.0	GoodResponse	0	0.22	n/a	4	21	ButtonPress	Neutral	True
211.81	0.47	Control	0.8636	n/a	Yes	2.77	n/a	n/a	GoodResponse	0	n/a	n/a	4	21	Blank	Neutral	True
212.279	1.45	Control	0.8636	n/a	Yes	2.77	n/a	5.0	GoodResponse	0	0.036	211.315	4	21	Feedback	Neutral	True
213.733	2.77	Control	0.8636	n/a	Yes	2.77	n/a	n/a	GoodResponse	0	0.0	n/a	4	21	ISIslide	Neutral	True
216.525	0.25	Control	0.8695999999999999	0.0	Yes	2.775	0.025	n/a	GoodResponse	0	n/a	n/a	4	22	Cue	Neutral	True
216.775	4.0	Control	0.8695999999999999	0.0	Yes	2.775	0.0	n/a	GoodResponse	0	n/a	n/a	4	22	Fixation	Neutral	True
220.771	0.22	Control	0.8695999999999999	0.004	Yes	2.775	-0.004	2.0	GoodResponse	0	0.211	219.982	4	22	Target	Neutral	True
220.982	0.3	Control	0.8695999999999999	0.004	Yes	2.775	-0.004	2.0	GoodResponse	0	0.211	n/a	4	22	ButtonPress	Neutral	True
221.005	0.48	Control	0.8695999999999999	n/a	Yes	2.775	n/a	n/a	GoodResponse	0	n/a	n/a	4	22	Blank	Neutral	True
221.473	1.45	Control	0.8695999999999999	n/a	Yes	2.775	n/a	5.0	GoodResponse	0	0.013	220.486	4	22	Feedback	Neutral	True
222.927	2.775	Control	0.8695999999999999	n/a	Yes	2.775	n/a	n/a	GoodResponse	0	0.0	n/a	4	22	ISIslide	Neutral	True
225.719	0.25	Control	0.875	0.0	Yes	2.781	0.019	n/a	GoodResponse	0	n/a	n/a	4	23	Cue	Neutral	True
225.97	3.9	Control	0.875	0.0	Yes	2.781	0.001	n/a	GoodResponse	0	n/a	n/a	4	23	Fixation	Neutral	True
229.865	0.21	Control	0.875	0.004	Yes	2.781	-0.004	2.0	GoodResponse	0	0.204	229.069	4	23	Target	Neutral	True
230.069	0.3	Control	0.875	0.004	Yes	2.781	-0.004	2.0	GoodResponse	0	0.204	n/a	4	23	ButtonPress	Neutral	True
230.082	0.49	Control	0.875	n/a	Yes	2.781	n/a	n/a	GoodResponse	0	n/a	n/a	4	23	Blank	Neutral	True
230.567	1.45	Control	0.875	n/a	Yes	2.781	n/a	5.0	GoodResponse	0	0.04	229.607	4	23	Feedback	Neutral	True
232.021	2.781	Control	0.875	n/a	Yes	2.781	n/a	n/a	GoodResponse	0	0.0	n/a	4	23	ISIslide	Neutral	True
234.829	0.25	Win2	0.88	0.0	Yes	3.121	0.029	n/a	GoodResponse	1	n/a	n/a	5	24	Cue	Win	True
235.08	3.95	Win2	0.88	0.0	Yes	3.121	0.001	n/a	GoodResponse	1	n/a	n/a	5	24	Fixation	Win	True
239.025	0.2	Win2	0.88	0.004	Yes	3.121	-0.004	2.0	GoodResponse	1	0.177	238.202	5	24	Target	Win	True
239.202	0.3	Win2	0.88	0.004	Yes	3.121	-0.004	2.0	GoodResponse	1	0.177	n/a	5	24	ButtonPress	Win	True
239.226	0.5	Win2	0.88	n/a	Yes	3.121	n/a	n/a	GoodResponse	1	n/a	n/a	5	24	Blank	Win	True
239.727	1.45	Win2	0.88	n/a	Yes	3.121	n/a	5.0	GoodResponse	1	0.006	238.733	5	24	Feedback	Win	True
241.182	3.121	Win2	0.88	n/a	Yes	3.121	n/a	n/a	GoodResponse	1	0.0	n/a	5	24	ISIslide	Win	True
244.324	0.25	Win2	0.8462000000000001	0.001	No	3.076	0.024	n/a	NoResponse	0	n/a	n/a	5	25	Cue	MissedWin	True
244.575	4.0	Win2	0.8462000000000001	0.0	No	3.076	0.001	n/a	NoResponse	0	n/a	n/a	5	25	Fixation	MissedWin	True
248.571	0.19	Win2	0.8462000000000001	0.003	No	3.076	-0.003	2.0	NoResponse	0	0.216	247.787	5	25	Target	MissedWin	True
248.771	0.51	Win2	0.8462000000000001	n/a	No	3.076	n/a	n/a	NoResponse	0	n/a	n/a	5	25	Blank	MissedWin	True
248.787	0.3	Win2	0.8462000000000001	0.003	No	3.076	-0.003	2.0	NoResponse	0	0.216	n/a	5	25	ButtonPress	MissedWin	True
249.273	1.45	Win2	0.8462000000000001	n/a	No	3.076	n/a	5.0	NoResponse	0	0.017	248.29	5	25	Feedback	MissedWin	True
250.727	3.076	Win2	0.8462000000000001	n/a	No	3.076	n/a	n/a	NoResponse	0	0.0	n/a	5	25	ISIslide	MissedWin	True
253.82	0.25	Win2	0.8148000000000001	0.0	No	2.93	0.02	n/a	NoResponse	0	n/a	n/a	5	26	Cue	MissedWin	True
254.07	3.95	Win2	0.8148000000000001	0.0	No	2.93	0.0	n/a	NoResponse	0	n/a	n/a	5	26	Fixation	MissedWin	True
258.032	0.18	Win2	0.8148000000000001	0.0	No	2.93	0.012	2.0	NoResponse	0	0.189	257.221	5	26	Target	MissedWin	True
258.199	0.52	Win2	0.8148000000000001	n/a	No	2.93	n/a	n/a	NoResponse	0	n/a	n/a	5	26	Blank	MissedWin	True
258.221	0.3	Win2	0.8148000000000001	0.0	No	2.93	0.012	2.0	NoResponse	0	0.189	n/a	5	26	ButtonPress	MissedWin	True
258.718	1.45	Win2	0.8148000000000001	n/a	No	2.93	n/a	5.0	NoResponse	0	0.036	257.754	5	26	Feedback	MissedWin	True
260.172	2.93	Win2	0.8148000000000001	n/a	No	2.93	n/a	n/a	NoResponse	0	0.0	n/a	5	26	ISIslide	MissedWin	True
263.131	0.25	Lose2	0.7857	0.0	No	2.819	0.031	n/a	NoResponse	-1	n/a	n/a	4	27	Cue	Loss	True
263.382	4.05	Lose2	0.7857	0.0	No	2.819	0.001	n/a	NoResponse	-1	n/a	n/a	4	27	Fixation	Loss	True
267.427	0.17	Lose2	0.7857	0.004	No	2.819	-0.004	2.0	NoResponse	-1	0.192	266.619	4	27	Target	Loss	True
267.611	0.53	Lose2	0.7857	n/a	No	2.819	n/a	n/a	NoResponse	-1	n/a	n/a	4	27	Blank	Loss	True
267.619	0.3	Lose2	0.7857	0.004	No	2.819	-0.004	2.0	NoResponse	-1	0.192	n/a	4	27	ButtonPress	Loss	True
268.129	1.45	Lose2	0.7857	n/a	No	2.819	n/a	5.0	NoResponse	-1	0.039	267.168	4	27	Feedback	Loss	True
269.583	2.819	Lose2	0.7857	n/a	No	2.819	n/a	n/a	NoResponse	-1	0.0	n/a	4	27	ISIslide	Loss	True
272.425	0.25	Control	0.7585999999999999	0.0	No	2.825	0.025	n/a	LatePress	0	n/a	n/a	4	28	Cue	Neutral	True
272.676	4.05	Control	0.7585999999999999	0.0	No	2.825	0.001	n/a	LatePress	0	n/a	n/a	4	28	Fixation	Neutral	True
276.721	0.16	Control	0.7585999999999999	0.004	No	2.825	-0.004	2.0	LatePress	0	0.165	275.886	4	28	Target	Neutral	True
276.886	0.3	Control	0.7585999999999999	0.004	No	2.825	-0.004	2.0	LatePress	0	0.165	n/a	4	28	ButtonPress	Neutral	True
276.889	0.54	Control	0.7585999999999999	n/a	No	2.825	n/a	n/a	LatePress	0	n/a	n/a	4	28	Blank	Neutral	True
277.424	1.45	Control	0.7585999999999999	n/a	No	2.825	n/a	5.0	LatePress	0	0.012	276.436	4	28	Feedback	Neutral	True
278.878	2.825	Control	0.7585999999999999	n/a	No	2.825	n/a	n/a	LatePress	0	0.0	n/a	4	28	ISIslide	Neutral	True
281.72	0.25	Lose2	0.7333	0.0	No	2.83	0.02	n/a	NoResponse	-1	n/a	n/a	3	29	Cue	Loss	True
281.97	3.95	Lose2	0.7333	0.001	No	2.83	0.0	n/a	NoResponse	-1	n/a	n/a	3	29	Fixation	Loss	True
285.916	0.15	Lose2	0.7333	0.004	No	2.83	-0.004	2.0	NoResponse	-1	0.196	285.112	3	29	Target	Loss	True
286.066	0.55	Lose2	0.7333	n/a	No	2.83	n/a	n/a	NoResponse	-1	n/a	n/a	3	29	Blank	Loss	True
286.112	0.3	Lose2	0.7333	0.004	No	2.83	-0.004	2.0	NoResponse	-1	0.196	n/a	3	29	ButtonPress	Loss	True
286.618	1.45	Lose2	0.7333	n/a	No	2.83	n/a	5.0	NoResponse	-1	0.037	285.655	3	29	Feedback	Loss	True
288.072	2.83	Lose2	0.7333	n/a	No	2.83	n/a	n/a	NoResponse	-1	0.0	n/a	3	29	ISIslide	Loss	True
290.931	0.25	Win2	0.7097	0.0	No	2.769	0.031	n/a	NoResponse	0	n/a	n/a	3	30	Cue	MissedWin	True
291.181	3.9	Win2	0.7097	0.0	No	2.769	0.0	n/a	NoResponse	0	n/a	n/a	3	30	Fixation	MissedWin	True
295.093	0.15	Win2	0.7097	0.0	No	2.769	0.012	2.0	NoResponse	0	0.188	294.281	3	30	Target	MissedWin	True
295.227	0.55	Win2	0.7097	n/a	No	2.769	n/a	n/a	NoResponse	0	n/a	n/a	3	30	Blank	MissedWin	True
295.281	0.3	Win2	0.7097	0.0	No	2.769	0.012	2.0	NoResponse	0	0.188	n/a	3	30	ButtonPress	MissedWin	True
295.778	1.45	Win2	0.7097	n/a	No	2.769	n/a	5.0	NoResponse	0	0.048	294.826	3	30	Feedback	MissedWin	True
297.233	2.769	Win2	0.7097	n/a	No	2.769	n/a	n/a	NoResponse	0	0.0	n/a	3	30	ISIslide	MissedWin	True
300.025	0.25	Lose2	0.6875	0.0	No	2.825	0.025	n/a	NoResponse	-1	n/a	n/a	2	31	Cue	Loss	True
300.275	4.05	Lose2	0.6875	0.0	No	2.825	0.0	n/a	NoResponse	-1	n/a	n/a	2	31	Fixation	Loss	True
304.321	0.15	Lose2	0.6875	0.004	No	2.825	-0.004	2.0	NoResponse	-1	0.252	303.573	2	31	Target	Loss	True
304.471	0.55	Lose2	0.6875	n/a	No	2.825	n/a	n/a	NoResponse	-1	n/a	n/a	2	31	Blank	Loss	True
304.573	0.3	Lose2	0.6875	0.004	No	2.825	-0.004	2.0	NoResponse	-1	0.252	n/a	2	31	ButtonPress	Loss	True
305.023	1.45	Lose2	0.6875	n/a	No	2.825	n/a	5.0	NoResponse	-1	0.023	304.046	2	31	Feedback	Loss	True
306.477	2.825	Lose2	0.6875	n/a	No	2.825	n/a	n/a	NoResponse	-1	0.0	n/a	2	31	ISIslide	Loss	True
309.319	0.25	Lose2	0.6667000000000001	0.0	No	2.631	0.019	n/a	NoResponse	-1	n/a	n/a	1	32	Cue	Loss	True
309.57	4.15	Lose2	0.6667000000000001	0.0	No	2.631	0.001	n/a	NoResponse	-1	n/a	n/a	1	32	Fixation	Loss	True
313.716	0.15	Lose2	0.6667000000000001	0.003	No	2.631	-0.003	2.0	NoResponse	-1	0.186	312.902	1	32	Target	Loss	True
313.866	0.55	Lose2	0.6667000000000001	n/a	No	2.631	n/a	n/a	NoResponse	-1	n/a	n/a	1	32	Blank	Loss	True
313.902	0.3	Lose2	0.6667000000000001	0.003	No	2.631	-0.003	2.0	NoResponse	-1	0.186	n/a	1	32	ButtonPress	Loss	True
314.418	1.45	Lose2	0.6667000000000001	n/a	No	2.631	n/a	5.0	NoResponse	-1	0.043	313.461	1	32	Feedback	Loss	True
315.872	2.631	Lose2	0.6667000000000001	n/a	No	2.631	n/a	n/a	NoResponse	-1	0.0	n/a	1	32	ISIslide	Loss	True
318.53	0.25	Win2	0.6470999999999999	0.0	No	2.67	0.03	n/a	NoResponse	0	n/a	n/a	1	33	Cue	MissedWin	True
318.781	4.0	Win2	0.6470999999999999	0.0	No	2.67	0.001	n/a	NoResponse	0	n/a	n/a	1	33	Fixation	MissedWin	True
322.776	0.15	Win2	0.6470999999999999	0.004	No	2.67	-0.004	2.0	NoResponse	0	0.162	321.938	1	33	Target	MissedWin	True
322.926	0.55	Win2	0.6470999999999999	n/a	No	2.67	n/a	n/a	NoResponse	0	n/a	n/a	1	33	Blank	MissedWin	True
322.938	0.3	Win2	0.6470999999999999	0.004	No	2.67	-0.004	2.0	NoResponse	0	0.162	n/a	1	33	ButtonPress	MissedWin	True
323.478	1.45	Win2	0.6470999999999999	n/a	No	2.67	n/a	5.0	NoResponse	0	0.007	322.485	1	33	Feedback	MissedWin	True
324.932	2.67	Win2	0.6470999999999999	n/a	No	2.67	n/a	n/a	NoResponse	0	0.0	n/a	1	33	ISIslide	MissedWin	True
327.624	0.25	Lose2	0.6286	0.0	No	2.626	0.024	n/a	NoResponse	-1	n/a	n/a	0	34	Cue	Loss	True
327.875	4.05	Lose2	0.6286	0.0	No	2.626	0.001	n/a	NoResponse	-1	n/a	n/a	0	34	Fixation	Loss	True
331.92	0.16	Lose2	0.6286	0.004	No	2.626	-0.004	2.0	NoResponse	-1	0.175	331.095	0	34	Target	Loss	True
332.087	0.54	Lose2	0.6286	n/a	No	2.626	n/a	n/a	NoResponse	-1	n/a	n/a	0	34	Blank	Loss	True
332.095	0.3	Lose2	0.6286	0.004	No	2.626	-0.004	2.0	NoResponse	-1	0.175	n/a	0	34	ButtonPress	Loss	True
332.622	1.45	Lose2	0.6286	n/a	No	2.626	n/a	5.0	NoResponse	-1	0.033	331.655	0	34	Feedback	Loss	True
334.076	2.626	Lose2	0.6286	n/a	No	2.626	n/a	n/a	NoResponse	-1	0.0	n/a	0	34	ISIslide	Loss	True
336.718	0.25	Lose2	0.6111	0.0	No	2.682	0.018	n/a	NoResponse	-1	n/a	n/a	-1	35	Cue	Loss	True
336.968	4.0	Lose2	0.6111	0.001	No	2.682	0.0	n/a	NoResponse	-1	n/a	n/a	-1	35	Fixation	Loss	True
340.964	0.17	Lose2	0.6111	0.004	No	2.682	-0.004	2.0	NoResponse	-1	0.203	340.167	-1	35	Target	Loss	True
341.148	0.53	Lose2	0.6111	n/a	No	2.682	n/a	n/a	NoResponse	-1	n/a	n/a	-1	35	Blank	Loss	True
341.167	0.3	Lose2	0.6111	0.004	No	2.682	-0.004	2.0	NoResponse	-1	0.203	n/a	-1	35	ButtonPress	Loss	True
341.666	1.45	Lose2	0.6111	n/a	No	2.682	n/a	5.0	NoResponse	-1	0.013	340.679	-1	35	Feedback	Loss	True
343.12	2.682	Lose2	0.6111	n/a	No	2.682	n/a	n/a	NoResponse	-1	0.0	n/a	-1	35	ISIslide	Loss	True
345.828	0.25	Control	0.5946	0.0	No	2.672	0.028	n/a	NoResponse	0	n/a	n/a	-1	36	Cue	Neutral	True
346.079	4.0	Control	0.5946	0.0	No	2.672	0.001	n/a	NoResponse	0	n/a	n/a	-1	36	Fixation	Neutral	True
350.074	0.18	Control	0.5946	0.004	No	2.672	-0.004	2.0	NoResponse	0	0.304	349.378	-1	36	Target	Neutral	True
350.258	0.52	Control	0.5946	n/a	No	2.672	n/a	n/a	NoResponse	0	n/a	n/a	-1	36	Blank	Neutral	True
350.378	0.3	Control	0.5946	0.004	No	2.672	-0.004	2.0	NoResponse	0	0.304	n/a	-1	36	ButtonPress	Neutral	True
350.776	1.45	Control	0.5946	n/a	No	2.672	n/a	5.0	NoResponse	0	0.025	349.801	-1	36	Feedback	Neutral	True
352.231	2.672	Control	0.5946	n/a	No	2.672	n/a	n/a	NoResponse	0	0.0	n/a	-1	36	ISIslide	Neutral	True
354.922	0.25	Win2	0.6053000000000001	0.0	Yes	2.878	0.022	n/a	GoodResponse	1	n/a	n/a	0	37	Cue	Win	True
355.173	4.0	Win2	0.6053000000000001	0.0	Yes	2.878	0.001	n/a	GoodResponse	1	n/a	n/a	0	37	Fixation	Win	True
359.168	0.19	Win2	0.6053000000000001	0.004	Yes	2.878	-0.004	2.0	GoodResponse	1	0.175	358.343	0	37	Target	Win	True
359.343	0.3	Win2	0.6053000000000001	0.004	Yes	2.878	-0.004	2.0	GoodResponse	1	0.175	n/a	0	37	ButtonPress	Win	True
359.369	0.51	Win2	0.6053000000000001	n/a	Yes	2.878	n/a	n/a	GoodResponse	1	n/a	n/a	0	37	Blank	Win	True
359.87	1.45	Win2	0.6053000000000001	n/a	Yes	2.878	n/a	5.0	GoodResponse	1	0.006	358.876	0	37	Feedback	Win	True
361.325	2.878	Win2	0.6053000000000001	n/a	Yes	2.878	n/a	n/a	GoodResponse	1	0.0	n/a	0	37	ISIslide	Win	True
364.217	0.25	Lose2	0.5897	0.0	No	2.833	0.017	n/a	NoResponse	-1	n/a	n/a	-1	38	Cue	Loss	True
364.467	3.95	Lose2	0.5897	0.001	No	2.833	0.0	n/a	NoResponse	-1	n/a	n/a	-1	38	Fixation	Loss	True
368.413	0.2	Lose2	0.5897	0.004	No	2.833	-0.004	2.0	NoResponse	-1	0.225	367.638	-1	38	Target	Loss	True
368.613	0.5	Lose2	0.5897	n/a	No	2.833	n/a	n/a	NoResponse	-1	n/a	n/a	-1	38	Blank	Loss	True
368.638	0.3	Lose2	0.5897	0.004	No	2.833	-0.004	2.0	NoResponse	-1	0.225	n/a	-1	38	ButtonPress	Loss	True
369.115	1.45	Lose2	0.5897	n/a	No	2.833	n/a	5.0	NoResponse	-1	0.028	368.143	-1	38	Feedback	Loss	True
370.569	2.833	Lose2	0.5897	n/a	No	2.833	n/a	n/a	NoResponse	-1	0.0	n/a	-1	38	ISIslide	Loss	True
373.428	0.25	Win2	0.6	0.0	Yes	2.972	0.028	n/a	GoodResponse	1	n/a	n/a	0	39	Cue	Win	True
373.678	4.1	Win2	0.6	0.0	Yes	2.972	0.0	n/a	GoodResponse	1	n/a	n/a	0	39	Fixation	Win	True
377.774	0.21	Win2	0.6	0.004	Yes	2.972	-0.004	2.0	GoodResponse	1	0.18	376.954	0	39	Target	Win	True
377.954	0.3	Win2	0.6	0.004	Yes	2.972	-0.004	2.0	GoodResponse	1	0.18	n/a	0	39	ButtonPress	Win	True
377.991	0.49	Win2	0.6	n/a	Yes	2.972	n/a	n/a	GoodResponse	1	n/a	n/a	0	39	Blank	Win	True
378.476	1.45	Win2	0.6	n/a	Yes	2.972	n/a	5.0	GoodResponse	1	0.032	377.508	0	39	Feedback	Win	True
379.93	2.972	Win2	0.6	n/a	Yes	2.972	n/a	n/a	GoodResponse	1	0.0	n/a	0	39	ISIslide	Win	True
382.923	0.25	Win2	0.6098	0.0	Yes	2.727	0.023	n/a	GoodResponse	1	n/a	n/a	1	40	Cue	Win	True
383.173	3.95	Win2	0.6098	0.0	Yes	2.727	0.0	n/a	GoodResponse	1	n/a	n/a	1	40	Fixation	Win	True
387.119	0.22	Win2	0.6098	0.004	Yes	2.727	-0.004	2.0	GoodResponse	1	0.187	386.306	1	40	Target	Win	True
387.306	0.3	Win2	0.6098	0.004	Yes	2.727	-0.004	2.0	GoodResponse	1	0.187	n/a	1	40	ButtonPress	Win	True
387.353	0.48	Win2	0.6098	n/a	Yes	2.727	n/a	n/a	GoodResponse	1	n/a	n/a	1	40	Blank	Win	True
387.821	1.45	Win2	0.6098	n/a	Yes	2.727	n/a	5.0	GoodResponse	1	0.007	386.828	1	40	Feedback	Win	True
389.275	2.727	Win2	0.6098	n/a	Yes	2.727	n/a	n/a	GoodResponse	1	0.0	n/a	1	40	ISIslide	Win	True
392.017	0.25	Win2	0.5952000000000001	0.0	No	2.783	0.017	n/a	NoResponse	0	n/a	n/a	1	41	Cue	MissedWin	False
392.267	3.9	Win2	0.5952000000000001	0.0	No	2.783	0.0	n/a	NoResponse	0	n/a	n/a	1	41	Fixation	MissedWin	False
396.179	0.23	Win2	0.5952000000000001	0.0	No	2.783	0.012	n/a	NoResponse	0	n/a	n/a	1	41	Target	MissedWin	False
396.396	0.47	Win2	0.5952000000000001	n/a	No	2.783	n/a	n/a	NoResponse	0	n/a	n/a	1	41	Blank	MissedWin	False
396.864	1.45	Win2	0.5952000000000001	n/a	No	2.783	n/a	5.0	NoResponse	0	0.034	395.898	1	41	Feedback	MissedWin	False
398.319	2.783	Win2	0.5952000000000001	n/a	No	2.783	n/a	n/a	NoResponse	0	0.0	n/a	1	41	ISIslide	MissedWin	False
401.127	0.25	Control	0.6047	0.0	Yes	2.923	0.027	n/a	GoodResponse	0	n/a	n/a	1	42	Cue	Neutral	True
401.378	3.85	Control	0.6047	0.0	Yes	2.923	0.001	n/a	GoodResponse	0	n/a	n/a	1	42	Fixation	Neutral	True
405.223	0.24	Control	0.6047	0.004	Yes	2.923	-0.004	2.0	GoodResponse	0	0.183	404.406	1	42	Target	Neutral	True
405.406	0.3	Control	0.6047	0.004	Yes	2.923	-0.004	2.0	GoodResponse	0	0.183	n/a	1	42	ButtonPress	Neutral	True
405.473	0.46	Control	0.6047	n/a	Yes	2.923	n/a	n/a	GoodResponse	0	n/a	n/a	1	42	Blank	Neutral	True
405.925	1.45	Control	0.6047	n/a	Yes	2.923	n/a	5.0	GoodResponse	0	0.047	404.972	1	42	Feedback	Neutral	True
407.379	2.923	Control	0.6047	n/a	Yes	2.923	n/a	n/a	GoodResponse	0	0.0	n/a	1	42	ISIslide	Neutral	True
410.321	0.25	Win2	0.5909	0.0	No	3.179	0.021	n/a	NoResponse	0	n/a	n/a	1	43	Cue	MissedWin	True
410.572	4.0	Win2	0.5909	0.0	No	3.179	0.001	n/a	NoResponse	0	n/a	n/a	1	43	Fixation	MissedWin	True
414.567	0.25	Win2	0.5909	0.004	No	3.179	-0.004	2.0	NoResponse	0	0.274	413.841	1	43	Target	MissedWin	True
414.818	0.45	Win2	0.5909	n/a	No	3.179	n/a	n/a	NoResponse	0	n/a	n/a	1	43	Blank	MissedWin	True
414.841	0.3	Win2	0.5909	0.004	No	3.179	-0.004	2.0	NoResponse	0	0.274	n/a	1	43	ButtonPress	MissedWin	True
415.269	1.45	Win2	0.5909	n/a	No	3.179	n/a	5.0	NoResponse	0	0.02	414.289	1	43	Feedback	MissedWin	True
416.724	3.179	Win2	0.5909	n/a	No	3.179	n/a	n/a	NoResponse	0	0.0	n/a	1	43	ISIslide	MissedWin	True
419.917	0.25	Win2	0.6	0.0	Yes	2.983	0.017	n/a	GoodResponse	1	n/a	n/a	2	44	Cue	Win	True
420.167	4.0	Win2	0.6	0.001	Yes	2.983	0.0	n/a	GoodResponse	1	n/a	n/a	2	44	Fixation	Win	True
424.163	0.26	Win2	0.6	0.004	Yes	2.983	-0.004	2.0	GoodResponse	1	0.191	423.354	2	44	Target	Win	True
424.354	0.3	Win2	0.6	0.004	Yes	2.983	-0.004	2.0	GoodResponse	1	0.191	n/a	2	44	ButtonPress	Win	True
424.43	0.44	Win2	0.6	n/a	Yes	2.983	n/a	n/a	GoodResponse	1	n/a	n/a	2	44	Blank	Win	True
424.865	1.45	Win2	0.6	n/a	Yes	2.983	n/a	5.0	GoodResponse	1	0.033	423.898	2	44	Feedback	Win	True
426.319	2.983	Win2	0.6	n/a	Yes	2.983	n/a	n/a	GoodResponse	1	0.0	n/a	2	44	ISIslide	Win	True
429.328	0.25	Control	0.6087	0.0	Yes	2.872	0.028	n/a	GoodResponse	0	n/a	n/a	2	45	Cue	Neutral	True
429.579	4.1	Control	0.6087	0.0	Yes	2.872	0.001	n/a	GoodResponse	0	n/a	n/a	2	45	Fixation	Neutral	True
433.675	0.27	Control	0.6087	0.003	Yes	2.872	-0.003	2.0	GoodResponse	0	0.192	432.867	2	45	Target	Neutral	True
433.867	0.3	Control	0.6087	0.003	Yes	2.872	-0.003	2.0	GoodResponse	0	0.192	n/a	2	45	ButtonPress	Neutral	True
433.959	0.43	Control	0.6087	n/a	Yes	2.872	n/a	n/a	GoodResponse	0	n/a	n/a	2	45	Blank	Neutral	True
434.377	1.45	Control	0.6087	n/a	Yes	2.872	n/a	5.0	GoodResponse	0	0.033	433.41	2	45	Feedback	Neutral	True
435.831	2.872	Control	0.6087	n/a	Yes	2.872	n/a	n/a	GoodResponse	0	0.0	n/a	2	45	ISIslide	Neutral	True
438.723	0.25	Lose2	0.617	0.0	Yes	3.377	0.023	n/a	GoodResponse	0	n/a	n/a	2	46	Cue	AvoidedLoss	True
438.974	4.0	Lose2	0.617	0.0	Yes	3.377	0.001	n/a	GoodResponse	0	n/a	n/a	2	46	Fixation	AvoidedLoss	True
442.969	0.28	Lose2	0.617	0.004	Yes	3.377	-0.004	2.0	GoodResponse	0	0.188	442.157	2	46	Target	AvoidedLoss	True
443.157	0.3	Lose2	0.617	0.004	Yes	3.377	-0.004	2.0	GoodResponse	0	0.188	n/a	2	46	ButtonPress	AvoidedLoss	True
443.253	0.42	Lose2	0.617	n/a	Yes	3.377	n/a	n/a	GoodResponse	0	n/a	n/a	2	46	Blank	AvoidedLoss	True
443.671	1.45	Lose2	0.617	n/a	Yes	3.377	n/a	5.0	GoodResponse	0	0.008	442.679	2	46	Feedback	AvoidedLoss	True
445.126	3.377	Lose2	0.617	n/a	Yes	3.377	n/a	n/a	GoodResponse	0	0.0	n/a	2	46	ISIslide	AvoidedLoss	True
448.519	0.25	Lose2	0.6042000000000001	0.0	No	2.681	0.019	n/a	NoResponse	-1	n/a	n/a	1	47	Cue	Loss	True
448.77	4.0	Lose2	0.6042000000000001	0.0	No	2.681	0.001	n/a	NoResponse	-1	n/a	n/a	1	47	Fixation	Loss	True
452.765	0.29	Lose2	0.6042000000000001	0.004	No	2.681	-0.004	2.0	NoResponse	-1	0.312	452.077	1	47	Target	Loss	True
453.066	0.41	Lose2	0.6042000000000001	n/a	No	2.681	n/a	n/a	NoResponse	-1	n/a	n/a	1	47	Blank	Loss	True
453.077	0.3	Lose2	0.6042000000000001	0.004	No	2.681	-0.004	2.0	NoResponse	-1	0.312	n/a	1	47	ButtonPress	Loss	True
453.467	1.45	Lose2	0.6042000000000001	n/a	No	2.681	n/a	5.0	NoResponse	-1	0.017	452.484	1	47	Feedback	Loss	True
454.922	2.681	Lose2	0.6042000000000001	n/a	No	2.681	n/a	n/a	NoResponse	-1	0.0	n/a	1	47	ISIslide	Loss	True
457.63	0.25	Lose2	0.6122	0.0	Yes	3.02	0.03	n/a	GoodResponse	0	n/a	n/a	1	48	Cue	AvoidedLoss	True
457.88	3.95	Lose2	0.6122	0.0	Yes	3.02	0.0	n/a	GoodResponse	0	n/a	n/a	1	48	Fixation	AvoidedLoss	True
461.825	0.3	Lose2	0.6122	0.005	Yes	3.02	-0.005	2.0	GoodResponse	0	0.193	461.018	1	48	Target	AvoidedLoss	True
462.018	0.3	Lose2	0.6122	0.005	Yes	3.02	-0.005	2.0	GoodResponse	0	0.193	n/a	1	48	ButtonPress	AvoidedLoss	True
462.126	0.4	Lose2	0.6122	n/a	Yes	3.02	n/a	n/a	GoodResponse	0	n/a	n/a	1	48	Blank	AvoidedLoss	True
462.528	1.45	Lose2	0.6122	n/a	Yes	3.02	n/a	5.0	GoodResponse	0	0.029	461.557	1	48	Feedback	AvoidedLoss	True
463.982	3.02	Lose2	0.6122	n/a	Yes	3.02	n/a	n/a	GoodResponse	0	0.0	n/a	1	48	ISIslide	AvoidedLoss	True
467.024	0.25	Control	0.62	0.0	Yes	2.876	0.024	n/a	GoodResponse	0	n/a	n/a	1	49	Cue	Neutral	True
467.275	4.0	Control	0.62	0.0	Yes	2.876	0.001	n/a	GoodResponse	0	n/a	n/a	1	49	Fixation	Neutral	True
471.27	0.31	Control	0.62	0.004	Yes	2.876	-0.004	2.0	GoodResponse	0	0.285	470.555	1	49	Target	Neutral	True
471.555	0.3	Control	0.62	0.004	Yes	2.876	-0.004	2.0	GoodResponse	0	0.285	n/a	1	49	ButtonPress	Neutral	True
471.588	0.39	Control	0.62	n/a	Yes	2.876	n/a	n/a	GoodResponse	0	n/a	n/a	1	49	Blank	Neutral	True
471.973	1.45	Control	0.62	n/a	Yes	2.876	n/a	5.0	GoodResponse	0	0.047	471.02	1	49	Feedback	Neutral	True
473.427	2.876	Control	0.62	n/a	Yes	2.876	n/a	n/a	GoodResponse	0	0.0	n/a	1	49	ISIslide	Neutral	True
476.319	0.25	Control	0.6078	0.0	No	2.781	0.019	n/a	NoResponse	0	n/a	n/a	1	50	Cue	Neutral	True
476.57	4.0	Control	0.6078	0.0	No	2.781	0.001	n/a	NoResponse	0	n/a	n/a	1	50	Fixation	Neutral	True
480.565	0.32	Control	0.6078	0.004	No	2.781	-0.004	2.0	NoResponse	0	0.501	480.066	1	50	Target	Neutral	True
480.899	0.38	Control	0.6078	n/a	No	2.781	n/a	n/a	NoResponse	0	n/a	n/a	1	50	Blank	Neutral	True
481.066	0.3	Control	0.6078	0.004	No	2.781	-0.004	2.0	NoResponse	0	0.501	n/a	1	50	ButtonPress	Neutral	True
481.267	1.45	Control	0.6078	n/a	No	2.781	n/a	5.0	NoResponse	0	0.021	480.288	1	50	Feedback	Neutral	True
482.721	2.781	Control	0.6078	n/a	No	2.781	n/a	n/a	NoResponse	0	0.0	n/a	1	50	ISIslide	Neutral	True
485.53	0.25	Control	0.6154	0.0	Yes	2.72	0.03	n/a	GoodResponse	0	n/a	n/a	1	51	Cue	Neutral	True
485.781	3.95	Control	0.6154	0.0	Yes	2.72	0.001	n/a	GoodResponse	0	n/a	n/a	1	51	Fixation	Neutral	True
489.726	0.33	Control	0.6154	0.004	Yes	2.72	-0.004	2.0	GoodResponse	0	0.187	488.913	1	51	Target	Neutral	True
489.913	0.3	Control	0.6154	0.004	Yes	2.72	-0.004	2.0	GoodResponse	0	0.187	n/a	1	51	ButtonPress	Neutral	True
490.06	0.37	Control	0.6154	n/a	Yes	2.72	n/a	n/a	GoodResponse	0	n/a	n/a	1	51	Blank	Neutral	True
490.428	1.45	Control	0.6154	n/a	Yes	2.72	n/a	5.0	GoodResponse	0	0.031	489.459	1	51	Feedback	Neutral	True
491.882	2.72	Control	0.6154	n/a	Yes	2.72	n/a	n/a	GoodResponse	0	0.0	n/a	1	51	ISIslide	Neutral	True
494.624	0.25	Control	0.6225999999999999	0.0	Yes	2.626	0.024	n/a	GoodResponse	0	n/a	n/a	1	52	Cue	Neutral	True
494.874	4.05	Control	0.6225999999999999	0.001	Yes	2.626	0.0	n/a	GoodResponse	0	n/a	n/a	1	52	Fixation	Neutral	True
498.92	0.34	Control	0.6225999999999999	0.004	Yes	2.626	-0.004	2.0	GoodResponse	0	0.18	498.1	1	52	Target	Neutral	True
499.1	0.3	Control	0.6225999999999999	0.004	Yes	2.626	-0.004	2.0	GoodResponse	0	0.18	n/a	1	52	ButtonPress	Neutral	True
499.271	0.36	Control	0.6225999999999999	n/a	Yes	2.626	n/a	n/a	GoodResponse	0	n/a	n/a	1	52	Blank	Neutral	True
499.622	1.45	Control	0.6225999999999999	n/a	Yes	2.626	n/a	5.0	GoodResponse	0	0.007	498.629	1	52	Feedback	Neutral	True
501.076	2.626	Control	0.6225999999999999	n/a	Yes	2.626	n/a	n/a	GoodResponse	0	0.0	n/a	1	52	ISIslide	Neutral	True
503.718	0.25	Win2	0.6296	0.0	Yes	2.932	0.018	n/a	GoodResponse	1	n/a	n/a	2	53	Cue	Win	True
503.968	4.05	Win2	0.6296	0.0	Yes	2.932	0.0	n/a	GoodResponse	1	n/a	n/a	2	53	Fixation	Win	True
508.014	0.35	Win2	0.6296	0.004	Yes	2.932	-0.004	2.0	GoodResponse	1	0.123	507.137	2	53	Target	Win	True
508.137	0.3	Win2	0.6296	0.004	Yes	2.932	-0.004	2.0	GoodResponse	1	0.123	n/a	2	53	ButtonPress	Win	True
508.365	0.35	Win2	0.6296	n/a	Yes	2.932	n/a	n/a	GoodResponse	1	n/a	n/a	2	53	Blank	Win	True
508.716	1.45	Win2	0.6296	n/a	Yes	2.932	n/a	5.0	GoodResponse	1	0.035	507.751	2	53	Feedback	Win	True
510.17	2.932	Win2	0.6296	n/a	Yes	2.932	n/a	n/a	GoodResponse	1	0.0	n/a	2	53	ISIslide	Win	True
513.129	0.25	Win2	0.6364	0.0	Yes	2.721	0.029	n/a	GoodResponse	1	n/a	n/a	3	54	Cue	Win	True
513.38	3.95	Win2	0.6364	0.0	Yes	2.721	0.001	n/a	GoodResponse	1	n/a	n/a	3	54	Fixation	Win	True
517.325	0.36	Win2	0.6364	0.004	Yes	2.721	-0.004	2.0	GoodResponse	1	0.233	516.558	3	54	Target	Win	True
517.558	0.3	Win2	0.6364	0.004	Yes	2.721	-0.004	2.0	GoodResponse	1	0.233	n/a	3	54	ButtonPress	Win	True
517.693	0.34	Win2	0.6364	n/a	Yes	2.721	n/a	n/a	GoodResponse	1	n/a	n/a	3	54	Blank	Win	True
518.027	1.45	Win2	0.6364	n/a	Yes	2.721	n/a	5.0	GoodResponse	1	0.042	517.069	3	54	Feedback	Win	True
519.481	2.721	Win2	0.6364	n/a	Yes	2.721	n/a	n/a	GoodResponse	1	0.0	n/a	3	54	ISIslide	Win	True
522.223	0.25	Control	0.6429	0.0	Yes	3.027	0.023	n/a	GoodResponse	0	n/a	n/a	3	55	Cue	Neutral	True
522.474	3.95	Control	0.6429	0.0	Yes	3.027	0.001	n/a	GoodResponse	0	n/a	n/a	3	55	Fixation	Neutral	True
526.419	0.37	Control	0.6429	0.004	Yes	3.027	-0.004	2.0	GoodResponse	0	0.227	525.646	3	55	Target	Neutral	True
526.646	0.3	Control	0.6429	0.004	Yes	3.027	-0.004	2.0	GoodResponse	0	0.227	n/a	3	55	ButtonPress	Neutral	True
526.803	0.33	Control	0.6429	n/a	Yes	3.027	n/a	n/a	GoodResponse	0	n/a	n/a	3	55	Blank	Neutral	True
527.121	1.45	Control	0.6429	n/a	Yes	3.027	n/a	5.0	GoodResponse	0	0.02	526.141	3	55	Feedback	Neutral	True
528.575	3.027	Control	0.6429	n/a	Yes	3.027	n/a	n/a	GoodResponse	0	0.0	n/a	3	55	ISIslide	Neutral	True
531.618	0.25	Control	0.6491	0.0	Yes	2.832	0.018	n/a	GoodResponse	0	n/a	n/a	3	56	Cue	Neutral	True
531.868	3.95	Control	0.6491	0.001	Yes	2.832	0.0	n/a	GoodResponse	0	n/a	n/a	3	56	Fixation	Neutral	True
535.814	0.38	Control	0.6491	0.004	Yes	2.832	-0.004	2.0	GoodResponse	0	0.191	535.005	3	56	Target	Neutral	True
536.005	0.3	Control	0.6491	0.004	Yes	2.832	-0.004	2.0	GoodResponse	0	0.191	n/a	3	56	ButtonPress	Neutral	True
536.198	0.32	Control	0.6491	n/a	Yes	2.832	n/a	n/a	GoodResponse	0	n/a	n/a	3	56	Blank	Neutral	True
536.516	1.45	Control	0.6491	n/a	Yes	2.832	n/a	5.0	GoodResponse	0	0.04	535.556	3	56	Feedback	Neutral	True
537.97	2.832	Control	0.6491	n/a	Yes	2.832	n/a	n/a	GoodResponse	0	0.0	n/a	3	56	ISIslide	Neutral	True
540.829	0.25	Control	0.6552	0.0	Yes	3.471	0.029	n/a	GoodResponse	0	n/a	n/a	3	57	Cue	Neutral	True
541.079	4.0	Control	0.6552	0.0	Yes	3.471	0.0	n/a	GoodResponse	0	n/a	n/a	3	57	Fixation	Neutral	True
545.075	0.39	Control	0.6552	0.004	Yes	3.471	-0.004	2.0	GoodResponse	0	0.17	544.245	3	57	Target	Neutral	True
545.245	0.3	Control	0.6552	0.004	Yes	3.471	-0.004	2.0	GoodResponse	0	0.17	n/a	3	57	ButtonPress	Neutral	True
545.476	0.31	Control	0.6552	n/a	Yes	3.471	n/a	n/a	GoodResponse	0	n/a	n/a	3	57	Blank	Neutral	True
545.777	1.45	Control	0.6552	n/a	Yes	3.471	n/a	5.0	GoodResponse	0	0.047	544.824	3	57	Feedback	Neutral	True
547.231	3.471	Control	0.6552	n/a	Yes	3.471	n/a	n/a	GoodResponse	0	0.0	n/a	3	57	ISIslide	Neutral	True
550.725	0.25	Win2	0.6609999999999999	0.0	Yes	2.725	0.025	n/a	GoodResponse	1	n/a	n/a	4	58	Cue	Win	True
550.976	4.05	Win2	0.6609999999999999	0.0	Yes	2.725	0.001	n/a	GoodResponse	1	n/a	n/a	4	58	Fixation	Win	True
555.021	0.39	Win2	0.6609999999999999	0.004	Yes	2.725	-0.004	2.0	GoodResponse	1	0.193	554.214	4	58	Target	Win	True
555.214	0.3	Win2	0.6609999999999999	0.004	Yes	2.725	-0.004	2.0	GoodResponse	1	0.193	n/a	4	58	ButtonPress	Win	True
555.422	0.31	Win2	0.6609999999999999	n/a	Yes	2.725	n/a	n/a	GoodResponse	1	n/a	n/a	4	58	Blank	Win	True
555.723	1.45	Win2	0.6609999999999999	n/a	Yes	2.725	n/a	5.0	GoodResponse	1	0.007	554.73	4	58	Feedback	Win	True
557.178	2.725	Win2	0.6609999999999999	n/a	Yes	2.725	n/a	n/a	GoodResponse	1	0.0	n/a	4	58	ISIslide	Win	True
559.919	0.25	Lose2	0.6667000000000001	0.0	Yes	2.681	0.019	n/a	GoodResponse	0	n/a	n/a	4	59	Cue	AvoidedLoss	True
560.17	4.0	Lose2	0.6667000000000001	0.0	Yes	2.681	0.001	n/a	GoodResponse	0	n/a	n/a	4	59	Fixation	AvoidedLoss	True
564.165	0.39	Lose2	0.6667000000000001	0.004	Yes	2.681	-0.004	2.0	GoodResponse	0	0.247	563.412	4	59	Target	AvoidedLoss	True
564.412	0.3	Lose2	0.6667000000000001	0.004	Yes	2.681	-0.004	2.0	GoodResponse	0	0.247	n/a	4	59	ButtonPress	AvoidedLoss	True
564.566	0.31	Lose2	0.6667000000000001	n/a	Yes	2.681	n/a	n/a	GoodResponse	0	n/a	n/a	4	59	Blank	AvoidedLoss	True
564.867	1.45	Lose2	0.6667000000000001	n/a	Yes	2.681	n/a	5.0	GoodResponse	0	0.03	563.897	4	59	Feedback	AvoidedLoss	True
566.322	2.681	Lose2	0.6667000000000001	n/a	Yes	2.681	n/a	n/a	GoodResponse	0	0.0	n/a	4	59	ISIslide	AvoidedLoss	True
569.03	0.25	Control	0.6720999999999999	0.0	Yes	2.67	0.03	n/a	GoodResponse	0	n/a	n/a	4	60	Cue	Neutral	True
569.28	4.0	Control	0.6720999999999999	0.001	Yes	2.67	0.0	n/a	GoodResponse	0	n/a	n/a	4	60	Fixation	Neutral	True
573.276	0.38	Control	0.6720999999999999	0.004	Yes	2.67	-0.004	2.0	GoodResponse	0	0.299	572.575	4	60	Target	Neutral	True
573.575	0.3	Control	0.6720999999999999	0.004	Yes	2.67	-0.004	2.0	GoodResponse	0	0.299	n/a	4	60	ButtonPress	Neutral	True
573.66	0.32	Control	0.6720999999999999	n/a	Yes	2.67	n/a	n/a	GoodResponse	0	n/a	n/a	4	60	Blank	Neutral	True
573.978	1.45	Control	0.6720999999999999	n/a	Yes	2.67	n/a	5.0	GoodResponse	0	0.04	573.018	4	60	Feedback	Neutral	True
575.432	2.67	Control	0.6720999999999999	n/a	Yes	2.67	n/a	n/a	GoodResponse	0	0.0	n/a	4	60	ISIslide	Neutral	True
578.124	0.25	Lose2	0.6774	0.0	Yes	2.976	0.024	n/a	GoodResponse	0	n/a	n/a	4	61	Cue	AvoidedLoss	True
578.374	4.0	Lose2	0.6774	0.0	Yes	2.976	0.0	n/a	GoodResponse	0	n/a	n/a	4	61	Fixation	AvoidedLoss	True
582.37	0.37	Lose2	0.6774	0.004	Yes	2.976	-0.004	2.0	GoodResponse	0	0.34	581.71	4	61	Target	AvoidedLoss	True
582.71	0.3	Lose2	0.6774	0.004	Yes	2.976	-0.004	2.0	GoodResponse	0	0.34	n/a	4	61	ButtonPress	AvoidedLoss	True
582.754	0.33	Lose2	0.6774	n/a	Yes	2.976	n/a	n/a	GoodResponse	0	n/a	n/a	4	61	Blank	AvoidedLoss	True
583.072	1.45	Lose2	0.6774	n/a	Yes	2.976	n/a	5.0	GoodResponse	0	0.02	582.092	4	61	Feedback	AvoidedLoss	True
584.526	2.976	Lose2	0.6774	n/a	Yes	2.976	n/a	n/a	GoodResponse	0	0.0	n/a	4	61	ISIslide	AvoidedLoss	True
587.518	0.25	Lose2	0.6667000000000001	0.0	No	2.882	0.018	n/a	NoResponse	-1	n/a	n/a	3	62	Cue	Loss	True
587.769	3.9	Lose2	0.6667000000000001	0.0	No	2.882	0.001	n/a	NoResponse	-1	n/a	n/a	3	62	Fixation	Loss	True
591.664	0.36	Lose2	0.6667000000000001	0.004	No	2.882	-0.004	2.0	NoResponse	-1	0.428	591.092	3	62	Target	Loss	True
592.032	0.34	Lose2	0.6667000000000001	n/a	No	2.882	n/a	n/a	NoResponse	-1	n/a	n/a	3	62	Blank	Loss	True
592.092	0.3	Lose2	0.6667000000000001	0.004	No	2.882	-0.004	2.0	NoResponse	-1	0.428	n/a	3	62	ButtonPress	Loss	True
592.366	1.45	Lose2	0.6667000000000001	n/a	No	2.882	n/a	5.0	NoResponse	-1	0.043	591.409	3	62	Feedback	Loss	True
593.821	2.882	Lose2	0.6667000000000001	n/a	No	2.882	n/a	n/a	NoResponse	-1	0.0	n/a	3	62	ISIslide	Loss	True
596.729	0.25	Lose2	0.6562	0.0	No	2.621	0.029	n/a	NoResponse	-1	n/a	n/a	2	63	Cue	Loss	True
596.98	4.05	Lose2	0.6562	0.0	No	2.621	0.001	n/a	NoResponse	-1	n/a	n/a	2	63	Fixation	Loss	True
601.026	0.35	Lose2	0.6562	0.003	No	2.621	-0.003	2.0	NoResponse	-1	0.434	600.46	2	63	Target	Loss	True
601.377	0.35	Lose2	0.6562	n/a	No	2.621	n/a	n/a	NoResponse	-1	n/a	n/a	2	63	Blank	Loss	True
601.46	0.3	Lose2	0.6562	0.003	No	2.621	-0.003	2.0	NoResponse	-1	0.434	n/a	2	63	ButtonPress	Loss	True
601.728	1.45	Lose2	0.6562	n/a	No	2.621	n/a	5.0	NoResponse	-1	0.047	600.775	2	63	Feedback	Loss	True
603.182	2.621	Lose2	0.6562	n/a	No	2.621	n/a	n/a	NoResponse	-1	0.0	n/a	2	63	ISIslide	Loss	True
605.823	0.25	Win2	0.6615000000000001	0.0	Yes	3.127	0.023	n/a	GoodResponse	1	n/a	n/a	3	64	Cue	Win	True
606.074	4.15	Win2	0.6615000000000001	0.0	Yes	3.127	0.001	n/a	GoodResponse	1	n/a	n/a	3	64	Fixation	Win	True
610.22	0.35	Win2	0.6615000000000001	0.003	Yes	3.127	-0.003	2.0	GoodResponse	1	0.226	609.446	3	64	Target	Win	True
610.446	0.3	Win2	0.6615000000000001	0.003	Yes	3.127	-0.003	2.0	GoodResponse	1	0.226	n/a	3	64	ButtonPress	Win	True
610.571	0.35	Win2	0.6615000000000001	n/a	Yes	3.127	n/a	n/a	GoodResponse	1	n/a	n/a	3	64	Blank	Win	True
610.922	1.45	Win2	0.6615000000000001	n/a	Yes	3.127	n/a	5.0	GoodResponse	1	0.024	609.946	3	64	Feedback	Win	True
612.376	3.127	Win2	0.6615000000000001	n/a	Yes	3.127	n/a	n/a	GoodResponse	1	0.0	n/a	3	64	ISIslide	Win	True
615.519	0.25	Control	0.6667000000000001	0.0	Yes	2.781	0.019	n/a	GoodResponse	0	n/a	n/a	3	65	Cue	Neutral	True
615.77	4.0	Control	0.6667000000000001	0.0	Yes	2.781	0.001	n/a	GoodResponse	0	n/a	n/a	3	65	Fixation	Neutral	True
619.765	0.35	Control	0.6667000000000001	0.004	Yes	2.781	-0.004	2.0	GoodResponse	0	0.225	618.99	3	65	Target	Neutral	True
619.99	0.3	Control	0.6667000000000001	0.004	Yes	2.781	-0.004	2.0	GoodResponse	0	0.225	n/a	3	65	ButtonPress	Neutral	True
620.116	0.35	Control	0.6667000000000001	n/a	Yes	2.781	n/a	n/a	GoodResponse	0	n/a	n/a	3	65	Blank	Neutral	True
620.467	1.45	Control	0.6667000000000001	n/a	Yes	2.781	n/a	5.0	GoodResponse	0	0.04	619.507	3	65	Feedback	Neutral	True
621.921	2.781	Control	0.6667000000000001	n/a	Yes	2.781	n/a	n/a	GoodResponse	0	0.0	n/a	3	65	ISIslide	Neutral	True
624.73	0.25	Win2	0.6716	0.0	Yes	2.77	0.03	n/a	GoodResponse	1	n/a	n/a	4	66	Cue	Win	True
624.981	3.9	Win2	0.6716	0.0	Yes	2.77	0.001	n/a	GoodResponse	1	n/a	n/a	4	66	Fixation	Win	True
628.876	0.34	Win2	0.6716	0.004	Yes	2.77	-0.004	2.0	GoodResponse	1	0.183	628.059	4	66	Target	Win	True
629.059	0.3	Win2	0.6716	0.004	Yes	2.77	-0.004	2.0	GoodResponse	1	0.183	n/a	4	66	ButtonPress	Win	True
629.227	0.36	Win2	0.6716	n/a	Yes	2.77	n/a	n/a	GoodResponse	1	n/a	n/a	4	66	Blank	Win	True
629.578	1.45	Win2	0.6716	n/a	Yes	2.77	n/a	5.0	GoodResponse	1	0.001	628.579	4	66	Feedback	Win	True
631.032	2.77	Win2	0.6716	n/a	Yes	2.77	n/a	n/a	GoodResponse	1	0.0	n/a	4	66	ISIslide	Win	True
633.824	0.25	Control	0.6618	0.0	No	2.726	0.024	n/a	NoResponse	0	n/a	n/a	4	67	Cue	Neutral	True
634.074	3.95	Control	0.6618	0.001	No	2.726	0.0	n/a	NoResponse	0	n/a	n/a	4	67	Fixation	Neutral	True
638.02	0.33	Control	0.6618	0.004	No	2.726	-0.004	2.0	NoResponse	0	0.417	637.437	4	67	Target	Neutral	True
638.354	0.37	Control	0.6618	n/a	No	2.726	n/a	n/a	NoResponse	0	n/a	n/a	4	67	Blank	Neutral	True
638.437	0.3	Control	0.6618	0.004	No	2.726	-0.004	2.0	NoResponse	0	0.417	n/a	4	67	ButtonPress	Neutral	True
638.722	1.45	Control	0.6618	n/a	No	2.726	n/a	5.0	NoResponse	0	0.028	637.75	4	67	Feedback	Neutral	True
640.176	2.726	Control	0.6618	n/a	No	2.726	n/a	n/a	NoResponse	0	0.0	n/a	4	67	ISIslide	Neutral	True
642.918	0.25	Win2	0.6667000000000001	0.0	Yes	3.082	0.018	n/a	GoodResponse	1	n/a	n/a	5	68	Cue	Win	True
643.168	4.0	Win2	0.6667000000000001	0.0	Yes	3.082	0.0	n/a	GoodResponse	1	n/a	n/a	5	68	Fixation	Win	True
647.164	0.33	Win2	0.6667000000000001	0.004	Yes	3.082	-0.004	2.0	GoodResponse	1	0.162	646.326	5	68	Target	Win	True
647.326	0.3	Win2	0.6667000000000001	0.004	Yes	3.082	-0.004	2.0	GoodResponse	1	0.162	n/a	5	68	ButtonPress	Win	True
647.498	0.37	Win2	0.6667000000000001	n/a	Yes	3.082	n/a	n/a	GoodResponse	1	n/a	n/a	5	68	Blank	Win	True
647.866	1.45	Win2	0.6667000000000001	n/a	Yes	3.082	n/a	5.0	GoodResponse	1	0.007	646.873	5	68	Feedback	Win	True
649.32	3.082	Win2	0.6667000000000001	n/a	Yes	3.082	n/a	n/a	GoodResponse	1	0.0	n/a	5	68	ISIslide	Win	True
652.429	0.25	Win2	0.6714	0.0	Yes	3.221	0.029	n/a	GoodResponse	1	n/a	n/a	6	69	Cue	Win	True
652.68	3.95	Win2	0.6714	0.0	Yes	3.221	0.001	n/a	GoodResponse	1	n/a	n/a	6	69	Fixation	Win	True
656.625	0.32	Win2	0.6714	0.004	Yes	3.221	-0.004	2.0	GoodResponse	1	0.211	655.836	6	69	Target	Win	True
656.836	0.3	Win2	0.6714	0.004	Yes	3.221	-0.004	2.0	GoodResponse	1	0.211	n/a	6	69	ButtonPress	Win	True
656.96	0.38	Win2	0.6714	n/a	Yes	3.221	n/a	n/a	GoodResponse	1	n/a	n/a	6	69	Blank	Win	True
657.327	1.45	Win2	0.6714	n/a	Yes	3.221	n/a	5.0	GoodResponse	1	0.008	656.335	6	69	Feedback	Win	True
658.782	3.221	Win2	0.6714	n/a	Yes	3.221	n/a	n/a	GoodResponse	1	0.0	n/a	6	69	ISIslide	Win	True
662.025	0.25	Lose2	0.6761	0.0	Yes	3.025	0.025	n/a	GoodResponse	0	n/a	n/a	6	70	Cue	AvoidedLoss	True
662.276	4.05	Lose2	0.6761	0.0	Yes	3.025	0.001	n/a	GoodResponse	0	n/a	n/a	6	70	Fixation	AvoidedLoss	True
666.321	0.31	Lose2	0.6761	0.004	Yes	3.025	-0.004	2.0	GoodResponse	0	0.196	665.517	6	70	Target	AvoidedLoss	True
666.517	0.3	Lose2	0.6761	0.004	Yes	3.025	-0.004	2.0	GoodResponse	0	0.196	n/a	6	70	ButtonPress	AvoidedLoss	True
666.639	0.39	Lose2	0.6761	n/a	Yes	3.025	n/a	n/a	GoodResponse	0	n/a	n/a	6	70	Blank	AvoidedLoss	True
667.023	1.45	Lose2	0.6761	n/a	Yes	3.025	n/a	5.0	GoodResponse	0	0.02	666.043	6	70	Feedback	AvoidedLoss	True
668.477	3.025	Lose2	0.6761	n/a	Yes	3.025	n/a	n/a	GoodResponse	0	0.0	n/a	6	70	ISIslide	AvoidedLoss	True
671.52	0.25	Win2	0.6806	0.0	Yes	2.73	0.02	n/a	GoodResponse	1	n/a	n/a	7	71	Cue	Win	True
671.771	4.05	Win2	0.6806	0.0	Yes	2.73	0.001	n/a	GoodResponse	1	n/a	n/a	7	71	Fixation	Win	True
675.816	0.3	Win2	0.6806	0.004	Yes	2.73	-0.004	2.0	GoodResponse	1	0.207	675.023	7	71	Target	Win	True
676.023	0.3	Win2	0.6806	0.004	Yes	2.73	-0.004	2.0	GoodResponse	1	0.207	n/a	7	71	ButtonPress	Win	True
676.117	0.4	Win2	0.6806	n/a	Yes	2.73	n/a	n/a	GoodResponse	1	n/a	n/a	7	71	Blank	Win	True
676.518	1.45	Win2	0.6806	n/a	Yes	2.73	n/a	5.0	GoodResponse	1	0.036	675.554	7	71	Feedback	Win	True
677.972	2.73	Win2	0.6806	n/a	Yes	2.73	n/a	n/a	GoodResponse	1	0.0	n/a	7	71	ISIslide	Win	True
680.731	0.25	Win2	0.6849	0.0	Yes	2.769	0.031	n/a	GoodResponse	1	n/a	n/a	8	72	Cue	Win	True
680.982	4.1	Win2	0.6849	0.0	Yes	2.769	0.001	n/a	GoodResponse	1	n/a	n/a	8	72	Fixation	Win	True
685.077	0.29	Win2	0.6849	0.004	Yes	2.769	-0.004	2.0	GoodResponse	1	0.232	684.309	8	72	Target	Win	True
685.309	0.3	Win2	0.6849	0.004	Yes	2.769	-0.004	2.0	GoodResponse	1	0.232	n/a	8	72	ButtonPress	Win	True
685.378	0.41	Win2	0.6849	n/a	Yes	2.769	n/a	n/a	GoodResponse	1	n/a	n/a	8	72	Blank	Win	True
685.779	1.45	Win2	0.6849	n/a	Yes	2.769	n/a	5.0	GoodResponse	1	0.044	684.823	8	72	Feedback	Win	True
687.234	2.769	Win2	0.6849	n/a	Yes	2.769	n/a	n/a	GoodResponse	1	0.0	n/a	8	72	ISIslide	Win	True
690.025	0.25	Win2	0.6757	0.0	No	2.675	0.025	n/a	NoResponse	0	n/a	n/a	8	73	Cue	MissedWin	True
690.276	4.0	Win2	0.6757	0.0	No	2.675	0.001	n/a	NoResponse	0	n/a	n/a	8	73	Fixation	MissedWin	True
694.271	0.28	Win2	0.6757	0.004	No	2.675	-0.004	2.0	NoResponse	0	0.445	693.716	8	73	Target	MissedWin	True
694.555	0.42	Win2	0.6757	n/a	No	2.675	n/a	n/a	NoResponse	0	n/a	n/a	8	73	Blank	MissedWin	True
694.716	0.3	Win2	0.6757	0.004	No	2.675	-0.004	2.0	NoResponse	0	0.445	n/a	8	73	ButtonPress	MissedWin	True
694.973	1.45	Win2	0.6757	n/a	No	2.675	n/a	5.0	NoResponse	0	0.02	693.993	8	73	Feedback	MissedWin	True
696.428	2.675	Win2	0.6757	n/a	No	2.675	n/a	n/a	NoResponse	0	0.0	n/a	8	73	ISIslide	MissedWin	True
699.119	0.25	Lose2	0.6667000000000001	0.0	No	2.631	0.019	n/a	NoResponse	-1	n/a	n/a	7	74	Cue	Loss	False
699.37	4.05	Lose2	0.6667000000000001	0.0	No	2.631	0.001	n/a	NoResponse	-1	n/a	n/a	7	74	Fixation	Loss	False
703.415	0.27	Lose2	0.6667000000000001	0.004	No	2.631	-0.004	n/a	NoResponse	-1	n/a	n/a	7	74	Target	Loss	False
703.7	0.43	Lose2	0.6667000000000001	n/a	No	2.631	n/a	n/a	NoResponse	-1	n/a	n/a	7	74	Blank	Loss	False
704.117	1.45	Lose2	0.6667000000000001	n/a	No	2.631	n/a	5.0	NoResponse	-1	0.047	703.164	7	74	Feedback	Loss	False
705.572	2.631	Lose2	0.6667000000000001	n/a	No	2.631	n/a	n/a	NoResponse	-1	0.0	n/a	7	74	ISIslide	Loss	False
708.23	0.25	Lose2	0.6711	0.0	Yes	2.92	0.03	n/a	GoodResponse	0	n/a	n/a	7	75	Cue	AvoidedLoss	True
708.48	3.95	Lose2	0.6711	0.001	Yes	2.92	0.0	n/a	GoodResponse	0	n/a	n/a	7	75	Fixation	AvoidedLoss	True
712.426	0.26	Lose2	0.6711	0.004	Yes	2.92	-0.004	2.0	GoodResponse	0	0.223	711.649	7	75	Target	AvoidedLoss	True
712.649	0.3	Lose2	0.6711	0.004	Yes	2.92	-0.004	2.0	GoodResponse	0	0.223	n/a	7	75	ButtonPress	AvoidedLoss	True
712.693	0.44	Lose2	0.6711	n/a	Yes	2.92	n/a	n/a	GoodResponse	0	n/a	n/a	7	75	Blank	AvoidedLoss	True
713.128	1.45	Lose2	0.6711	n/a	Yes	2.92	n/a	5.0	GoodResponse	0	0.012	712.14	7	75	Feedback	AvoidedLoss	True
714.582	2.92	Lose2	0.6711	n/a	Yes	2.92	n/a	n/a	GoodResponse	0	0.0	n/a	7	75	ISIslide	AvoidedLoss	True
717.524	0.25	Control	0.6623	0.0	No	3.226	0.024	n/a	NoResponse	0	n/a	n/a	7	76	Cue	Neutral	False
717.775	4.05	Control	0.6623	0.0	No	3.226	0.001	n/a	NoResponse	0	n/a	n/a	7	76	Fixation	Neutral	False
721.82	0.25	Control	0.6623	0.004	No	3.226	-0.004	n/a	NoResponse	0	n/a	n/a	7	76	Target	Neutral	False
722.071	0.45	Control	0.6623	n/a	No	3.226	n/a	n/a	NoResponse	0	n/a	n/a	7	76	Blank	Neutral	False
722.523	1.45	Control	0.6623	n/a	No	3.226	n/a	5.0	NoResponse	0	0.032	721.555	7	76	Feedback	Neutral	False
723.977	3.226	Control	0.6623	n/a	No	3.226	n/a	2.0	NoResponse	0	0.172	n/a	7	76	ISIslide	Neutral	False
727.203	0.25	Lose2	0.6667000000000001	0.0	Yes	2.597	0.003	n/a	GoodResponse	0	n/a	n/a	7	77	Cue	AvoidedLoss	True
727.454	3.95	Lose2	0.6667000000000001	0.0	Yes	2.597	0.001	n/a	GoodResponse	0	n/a	n/a	7	77	Fixation	AvoidedLoss	True
731.399	0.25	Lose2	0.6667000000000001	0.004	Yes	2.597	-0.004	2.0	GoodResponse	0	0.215	730.614	7	77	Target	AvoidedLoss	True
731.614	0.3	Lose2	0.6667000000000001	0.004	Yes	2.597	-0.004	2.0	GoodResponse	0	0.215	n/a	7	77	ButtonPress	AvoidedLoss	True
731.65	0.45	Lose2	0.6667000000000001	n/a	Yes	2.597	n/a	n/a	GoodResponse	0	n/a	n/a	7	77	Blank	AvoidedLoss	True
732.101	1.45	Lose2	0.6667000000000001	n/a	Yes	2.597	n/a	5.0	GoodResponse	0	0.014	731.115	7	77	Feedback	AvoidedLoss	True
733.556	2.597	Lose2	0.6667000000000001	n/a	Yes	2.597	n/a	n/a	GoodResponse	0	0.0	n/a	7	77	ISIslide	AvoidedLoss	True
