onset	duration	cue_type	current_mean_accuracy	duration_error	is_hit	isi_adjusted	onset_delay	response	response_type	reward	rt	rt_time	total_reward	trial_number	trial_phase	trial_type	one_press
11.104	0.25	Control	0.0	0.0	No	2.946	0.004	n/a	NoResponse	0	n/a	n/a	0	0	Cue	Neutral	False
11.354	3.85	Control	0.0	0.0	No	2.946	0.0	n/a	NoResponse	0	n/a	n/a	0	0	Fixation	Neutral	False
15.202	0.4	Control	0.0	0.002	No	2.946	-0.002	n/a	NoResponse	0	n/a	n/a	0	0	Target	Neutral	False
15.602	0.3	Control	0.0	n/a	No	2.946	n/a	n/a	NoResponse	0	n/a	n/a	0	0	Blank	Neutral	False
15.902	1.45	Control	0.0	n/a	No	2.946	n/a	5.0	NoResponse	0	0.024	14.926	0	0	Feedback	Neutral	False
17.352	2.946	Control	0.0	n/a	No	2.946	n/a	n/a	NoResponse	0	0.0	n/a	0	0	ISIslide	Neutral	False
20.317	0.25	Lose2	0.5	0.0	Yes	2.783	0.017	n/a	GoodResponse	0	n/a	n/a	0	1	Cue	AvoidedLoss	True
20.567	4.0	Lose2	0.5	0.0	Yes	2.783	0.0	n/a	GoodResponse	0	n/a	n/a	0	1	Fixation	AvoidedLoss	True
24.566	0.41	Lose2	0.5	0.001	Yes	2.783	-0.001	4.0	GoodResponse	0	0.213	23.779	0	1	Target	AvoidedLoss	True
24.779	0.3	Lose2	0.5	0.001	Yes	2.783	-0.001	4.0	GoodResponse	0	0.213	n/a	0	1	ButtonPress	AvoidedLoss	True
24.982	0.29	Lose2	0.5	n/a	Yes	2.783	n/a	n/a	GoodResponse	0	n/a	n/a	0	1	Blank	AvoidedLoss	True
25.265	1.45	Lose2	0.5	n/a	Yes	2.783	n/a	5.0	GoodResponse	0	0.027	24.292	0	1	Feedback	AvoidedLoss	True
26.715	2.783	Lose2	0.5	n/a	Yes	2.783	n/a	n/a	GoodResponse	0	0.0	n/a	0	1	ISIslide	AvoidedLoss	True
29.514	0.25	Control	0.6667000000000001	0.0	Yes	2.586	0.014	n/a	GoodResponse	0	n/a	n/a	0	2	Cue	Neutral	True
29.764	4.1	Control	0.6667000000000001	0.0	Yes	2.586	0.0	n/a	GoodResponse	0	n/a	n/a	0	2	Fixation	Neutral	True
33.862	0.42	Control	0.6667000000000001	0.002	Yes	2.586	-0.002	4.0	GoodResponse	0	0.206	33.068	0	2	Target	Neutral	True
34.068	0.3	Control	0.6667000000000001	0.002	Yes	2.586	-0.002	4.0	GoodResponse	0	0.206	n/a	0	2	ButtonPress	Neutral	True
34.296	0.28	Control	0.6667000000000001	n/a	Yes	2.586	n/a	n/a	GoodResponse	0	n/a	n/a	0	2	Blank	Neutral	True
34.562	1.45	Control	0.6667000000000001	n/a	Yes	2.586	n/a	5.0	GoodResponse	0	0.047	33.609	0	2	Feedback	Neutral	True
36.012	2.586	Control	0.6667000000000001	n/a	Yes	2.586	n/a	n/a	GoodResponse	0	0.0	n/a	0	2	ISIslide	Neutral	True
38.627	0.25	Win2	0.75	0.001	Yes	2.823	0.027	n/a	GoodResponse	1	n/a	n/a	1	3	Cue	Win	True
38.877	3.95	Win2	0.75	0.0	Yes	2.823	0.0	n/a	GoodResponse	1	n/a	n/a	1	3	Fixation	Win	True
42.826	0.41	Win2	0.75	0.001	Yes	2.823	-0.001	4.0	GoodResponse	1	0.179	42.005	1	3	Target	Win	True
43.005	0.3	Win2	0.75	0.001	Yes	2.823	-0.001	4.0	GoodResponse	1	0.179	n/a	1	3	ButtonPress	Win	True
43.243	0.29	Win2	0.75	n/a	Yes	2.823	n/a	n/a	GoodResponse	1	n/a	n/a	1	3	Blank	Win	True
43.526	1.45	Win2	0.75	n/a	Yes	2.823	n/a	5.0	GoodResponse	1	0.01	42.536	1	3	Feedback	Win	True
44.975	2.823	Win2	0.75	n/a	Yes	2.823	n/a	n/a	GoodResponse	1	0.0	n/a	1	3	ISIslide	Win	True
47.824	0.25	Win2	0.8	0.0	Yes	3.276	0.024	n/a	GoodResponse	1	n/a	n/a	2	4	Cue	Win	True
48.074	4.0	Win2	0.8	0.0	Yes	3.276	0.0	n/a	GoodResponse	1	n/a	n/a	2	4	Fixation	Win	True
52.073	0.4	Win2	0.8	0.001	Yes	3.276	-0.001	4.0	GoodResponse	1	0.2	51.273	2	4	Target	Win	True
52.273	0.3	Win2	0.8	0.001	Yes	3.276	-0.001	4.0	GoodResponse	1	0.2	n/a	2	4	ButtonPress	Win	True
52.473	0.3	Win2	0.8	n/a	Yes	3.276	n/a	n/a	GoodResponse	1	n/a	n/a	2	4	Blank	Win	True
52.773	1.45	Win2	0.8	n/a	Yes	3.276	n/a	5.0	GoodResponse	1	0.031	51.804	2	4	Feedback	Win	True
54.222	3.276	Win2	0.8	n/a	Yes	3.276	n/a	n/a	GoodResponse	1	0.0	n/a	2	4	ISIslide	Win	True
57.521	0.25	Win2	0.8332999999999999	0.0	Yes	2.779	0.021	n/a	GoodResponse	1	n/a	n/a	3	5	Cue	Win	True
57.771	4.0	Win2	0.8332999999999999	0.0	Yes	2.779	0.0	n/a	GoodResponse	1	n/a	n/a	3	5	Fixation	Win	True
61.769	0.39	Win2	0.8332999999999999	0.002	Yes	2.779	-0.002	4.0	GoodResponse	1	0.183	60.952	3	5	Target	Win	True
61.952	0.3	Win2	0.8332999999999999	0.002	Yes	2.779	-0.002	4.0	GoodResponse	1	0.183	n/a	3	5	ButtonPress	Win	True
62.169	0.31	Win2	0.8332999999999999	n/a	Yes	2.779	n/a	n/a	GoodResponse	1	n/a	n/a	3	5	Blank	Win	True
62.469	1.45	Win2	0.8332999999999999	n/a	Yes	2.779	n/a	5.0	GoodResponse	1	0.042	61.511	3	5	Feedback	Win	True
63.919	2.779	Win2	0.8332999999999999	n/a	Yes	2.779	n/a	n/a	GoodResponse	1	0.0	n/a	3	5	ISIslide	Win	True
66.718	0.25	Lose2	0.8571	0.0	Yes	2.732	0.018	n/a	GoodResponse	0	n/a	n/a	3	6	Cue	AvoidedLoss	True
66.968	3.95	Lose2	0.8571	0.0	Yes	2.732	0.0	n/a	GoodResponse	0	n/a	n/a	3	6	Fixation	AvoidedLoss	True
70.916	0.38	Lose2	0.8571	0.002	Yes	2.732	-0.002	4.0	GoodResponse	0	0.215	70.131	3	6	Target	AvoidedLoss	True
71.131	0.3	Lose2	0.8571	0.002	Yes	2.732	-0.002	4.0	GoodResponse	0	0.215	n/a	3	6	ButtonPress	AvoidedLoss	True
71.299	0.32	Lose2	0.8571	n/a	Yes	2.732	n/a	n/a	GoodResponse	0	n/a	n/a	3	6	Blank	AvoidedLoss	True
71.616	1.45	Lose2	0.8571	n/a	Yes	2.732	n/a	5.0	GoodResponse	0	0.017	70.633	3	6	Feedback	AvoidedLoss	True
73.065	2.732	Lose2	0.8571	n/a	Yes	2.732	n/a	n/a	GoodResponse	0	0.0	n/a	3	6	ISIslide	AvoidedLoss	True
75.814	0.25	Lose2	0.875	0.001	Yes	4.036	0.014	n/a	GoodResponse	0	n/a	n/a	3	7	Cue	AvoidedLoss	True
76.064	4.05	Lose2	0.875	0.0	Yes	4.036	0.0	n/a	GoodResponse	0	n/a	n/a	3	7	Fixation	AvoidedLoss	True
80.113	0.37	Lose2	0.875	0.001	Yes	4.036	-0.001	4.0	GoodResponse	0	0.259	79.372	3	7	Target	AvoidedLoss	True
80.372	0.3	Lose2	0.875	0.001	Yes	4.036	-0.001	4.0	GoodResponse	0	0.259	n/a	3	7	ButtonPress	AvoidedLoss	True
80.48	0.33	Lose2	0.875	n/a	Yes	4.036	n/a	n/a	GoodResponse	0	n/a	n/a	3	7	Blank	AvoidedLoss	True
80.813	1.45	Lose2	0.875	n/a	Yes	4.036	n/a	5.0	GoodResponse	0	0.04	79.853	3	7	Feedback	AvoidedLoss	True
82.262	4.036	Lose2	0.875	n/a	Yes	4.036	n/a	n/a	GoodResponse	0	0.0	n/a	3	7	ISIslide	AvoidedLoss	True
86.327	0.25	Lose2	0.8889	0.001	Yes	3.023	0.027	n/a	GoodResponse	0	n/a	n/a	3	8	Cue	AvoidedLoss	True
86.577	3.95	Lose2	0.8889	0.0	Yes	3.023	0.0	n/a	GoodResponse	0	n/a	n/a	3	8	Fixation	AvoidedLoss	True
90.526	0.36	Lose2	0.8889	0.001	Yes	3.023	-0.001	4.0	GoodResponse	0	0.199	89.725	3	8	Target	AvoidedLoss	True
90.725	0.3	Lose2	0.8889	0.001	Yes	3.023	-0.001	4.0	GoodResponse	0	0.199	n/a	3	8	ButtonPress	AvoidedLoss	True
90.893	0.34	Lose2	0.8889	n/a	Yes	3.023	n/a	n/a	GoodResponse	0	n/a	n/a	3	8	Blank	AvoidedLoss	True
91.226	1.45	Lose2	0.8889	n/a	Yes	3.023	n/a	5.0	GoodResponse	0	0.017	90.243	3	8	Feedback	AvoidedLoss	True
92.675	3.023	Lose2	0.8889	n/a	Yes	3.023	n/a	n/a	GoodResponse	0	0.0	n/a	3	8	ISIslide	AvoidedLoss	True
95.724	0.25	Lose2	0.8	0.0	No	3.126	0.024	n/a	NoResponse	-1	n/a	n/a	2	9	Cue	Loss	True
95.974	3.95	Lose2	0.8	0.0	No	3.126	0.0	4.0	NoResponse	-1	3.509	98.483	2	9	Fixation	Loss	True
99.483	0.3	Lose2	0.8	0.0	No	3.126	0.0	4.0	NoResponse	-1	3.509	n/a	2	9	ButtonPress	Loss	True
99.923	0.35	Lose2	0.8	0.001	No	3.126	-0.001	n/a	NoResponse	-1	n/a	n/a	2	9	Target	Loss	True
100.273	0.35	Lose2	0.8	n/a	No	3.126	n/a	n/a	NoResponse	-1	n/a	n/a	2	9	Blank	Loss	True
100.622	1.45	Lose2	0.8	n/a	No	3.126	n/a	5.0	NoResponse	-1	0.036	99.658	2	9	Feedback	Loss	True
102.072	3.126	Lose2	0.8	n/a	No	3.126	n/a	n/a	NoResponse	-1	0.0	n/a	2	9	ISIslide	Loss	True
105.221	0.25	Control	0.8181999999999999	0.0	Yes	3.279	0.021	n/a	GoodResponse	0	n/a	n/a	2	10	Cue	Neutral	True
105.471	4.0	Control	0.8181999999999999	0.0	Yes	3.279	0.0	n/a	GoodResponse	0	n/a	n/a	2	10	Fixation	Neutral	True
109.469	0.34	Control	0.8181999999999999	0.002	Yes	3.279	-0.002	4.0	GoodResponse	0	0.221	108.69	2	10	Target	Neutral	True
109.69	0.3	Control	0.8181999999999999	0.002	Yes	3.279	-0.002	4.0	GoodResponse	0	0.221	n/a	2	10	ButtonPress	Neutral	True
109.819	0.36	Control	0.8181999999999999	n/a	Yes	3.279	n/a	n/a	GoodResponse	0	n/a	n/a	2	10	Blank	Neutral	True
110.169	1.45	Control	0.8181999999999999	n/a	Yes	3.279	n/a	5.0	GoodResponse	0	0.0	109.169	2	10	Feedback	Neutral	True
111.619	3.279	Control	0.8181999999999999	n/a	Yes	3.279	n/a	n/a	GoodResponse	0	0.0	n/a	2	10	ISIslide	Neutral	True
114.918	0.25	Lose2	0.8332999999999999	0.0	Yes	2.732	0.018	n/a	GoodResponse	0	n/a	n/a	2	11	Cue	AvoidedLoss	True
115.167	4.05	Lose2	0.8332999999999999	0.001	Yes	2.732	-0.001	n/a	GoodResponse	0	n/a	n/a	2	11	Fixation	AvoidedLoss	True
119.216	0.33	Lose2	0.8332999999999999	0.002	Yes	2.732	-0.002	4.0	GoodResponse	0	0.232	118.448	2	11	Target	AvoidedLoss	True
119.448	0.3	Lose2	0.8332999999999999	0.002	Yes	2.732	-0.002	4.0	GoodResponse	0	0.232	n/a	2	11	ButtonPress	AvoidedLoss	True
119.549	0.37	Lose2	0.8332999999999999	n/a	Yes	2.732	n/a	n/a	GoodResponse	0	n/a	n/a	2	11	Blank	AvoidedLoss	True
119.916	1.45	Lose2	0.8332999999999999	n/a	Yes	2.732	n/a	5.0	GoodResponse	0	0.009	118.925	2	11	Feedback	AvoidedLoss	True
121.365	2.732	Lose2	0.8332999999999999	n/a	Yes	2.732	n/a	n/a	GoodResponse	0	0.0	n/a	2	11	ISIslide	AvoidedLoss	True
124.114	0.25	Control	0.8462000000000001	0.0	Yes	2.986	0.014	n/a	GoodResponse	0	n/a	n/a	2	12	Cue	Neutral	True
124.364	3.9	Control	0.8462000000000001	0.0	Yes	2.986	0.0	n/a	GoodResponse	0	n/a	n/a	2	12	Fixation	Neutral	True
128.263	0.32	Control	0.8462000000000001	0.001	Yes	2.986	-0.001	4.0	GoodResponse	0	0.205	127.468	2	12	Target	Neutral	True
128.468	0.3	Control	0.8462000000000001	0.001	Yes	2.986	-0.001	4.0	GoodResponse	0	0.205	n/a	2	12	ButtonPress	Neutral	True
128.579	0.38	Control	0.8462000000000001	n/a	Yes	2.986	n/a	n/a	GoodResponse	0	n/a	n/a	2	12	Blank	Neutral	True
128.963	1.45	Control	0.8462000000000001	n/a	Yes	2.986	n/a	5.0	GoodResponse	0	0.036	127.999	2	12	Feedback	Neutral	True
130.412	2.986	Control	0.8462000000000001	n/a	Yes	2.986	n/a	n/a	GoodResponse	0	0.0	n/a	2	12	ISIslide	Neutral	True
133.428	0.25	Control	0.8571	0.0	Yes	2.772	0.028	n/a	GoodResponse	0	n/a	n/a	2	13	Cue	Neutral	True
133.678	4.0	Control	0.8571	0.0	Yes	2.772	0.0	n/a	GoodResponse	0	n/a	n/a	2	13	Fixation	Neutral	True
137.676	0.31	Control	0.8571	0.002	Yes	2.772	-0.002	4.0	GoodResponse	0	0.198	136.874	2	13	Target	Neutral	True
137.874	0.3	Control	0.8571	0.002	Yes	2.772	-0.002	4.0	GoodResponse	0	0.198	n/a	2	13	ButtonPress	Neutral	True
137.993	0.39	Control	0.8571	n/a	Yes	2.772	n/a	n/a	GoodResponse	0	n/a	n/a	2	13	Blank	Neutral	True
138.376	1.45	Control	0.8571	n/a	Yes	2.772	n/a	5.0	GoodResponse	0	0.037	137.413	2	13	Feedback	Neutral	True
139.825	2.772	Control	0.8571	n/a	Yes	2.772	n/a	n/a	GoodResponse	0	0.0	n/a	2	13	ISIslide	Neutral	True
142.625	0.25	Win2	0.8667	0.0	Yes	2.675	0.025	n/a	GoodResponse	1	n/a	n/a	3	14	Cue	Win	True
142.874	4.1	Win2	0.8667	0.001	Yes	2.675	-0.001	n/a	GoodResponse	1	n/a	n/a	3	14	Fixation	Win	True
146.973	0.3	Win2	0.8667	0.002	Yes	2.675	-0.002	4.0	GoodResponse	1	0.208	146.181	3	14	Target	Win	True
147.181	0.3	Win2	0.8667	0.002	Yes	2.675	-0.002	4.0	GoodResponse	1	0.208	n/a	3	14	ButtonPress	Win	True
147.273	0.4	Win2	0.8667	n/a	Yes	2.675	n/a	n/a	GoodResponse	1	n/a	n/a	3	14	Blank	Win	True
147.673	1.45	Win2	0.8667	n/a	Yes	2.675	n/a	5.0	GoodResponse	1	0.009	146.682	3	14	Feedback	Win	True
149.122	2.675	Win2	0.8667	n/a	Yes	2.675	n/a	n/a	GoodResponse	1	0.0	n/a	3	14	ISIslide	Win	True
151.821	0.25	Control	0.875	0.0	Yes	2.979	0.021	n/a	GoodResponse	0	n/a	n/a	3	15	Cue	Neutral	True
152.071	4.0	Control	0.875	0.0	Yes	2.979	0.0	n/a	GoodResponse	0	n/a	n/a	3	15	Fixation	Neutral	True
156.07	0.29	Control	0.875	0.001	Yes	2.979	-0.001	4.0	GoodResponse	0	0.201	155.271	3	15	Target	Neutral	True
156.271	0.3	Control	0.875	0.001	Yes	2.979	-0.001	4.0	GoodResponse	0	0.201	n/a	3	15	ButtonPress	Neutral	True
156.37	0.41	Control	0.875	n/a	Yes	2.979	n/a	n/a	GoodResponse	0	n/a	n/a	3	15	Blank	Neutral	True
156.77	1.45	Control	0.875	n/a	Yes	2.979	n/a	5.0	GoodResponse	0	0.033	155.803	3	15	Feedback	Neutral	True
158.219	2.979	Control	0.875	n/a	Yes	2.979	n/a	n/a	GoodResponse	0	0.0	n/a	3	15	ISIslide	Neutral	True
161.218	0.25	Win2	0.8824	0.0	Yes	2.882	0.018	n/a	GoodResponse	1	n/a	n/a	4	16	Cue	Win	True
161.468	4.0	Win2	0.8824	0.0	Yes	2.882	0.0	n/a	GoodResponse	1	n/a	n/a	4	16	Fixation	Win	True
165.467	0.28	Win2	0.8824	0.001	Yes	2.882	-0.001	4.0	GoodResponse	1	0.252	164.719	4	16	Target	Win	True
165.719	0.3	Win2	0.8824	0.001	Yes	2.882	-0.001	4.0	GoodResponse	1	0.252	n/a	4	16	ButtonPress	Win	True
165.75	0.42	Win2	0.8824	n/a	Yes	2.882	n/a	n/a	GoodResponse	1	n/a	n/a	4	16	Blank	Win	True
166.166	1.45	Win2	0.8824	n/a	Yes	2.882	n/a	5.0	GoodResponse	1	0.006	165.172	4	16	Feedback	Win	True
167.616	2.882	Win2	0.8824	n/a	Yes	2.882	n/a	n/a	GoodResponse	1	0.0	n/a	4	16	ISIslide	Win	True
170.515	0.25	Lose2	0.8889	0.0	Yes	2.735	0.015	n/a	GoodResponse	0	n/a	n/a	4	17	Cue	AvoidedLoss	True
170.765	3.95	Lose2	0.8889	0.0	Yes	2.735	0.0	n/a	GoodResponse	0	n/a	n/a	4	17	Fixation	AvoidedLoss	True
174.713	0.27	Lose2	0.8889	0.002	Yes	2.735	-0.002	4.0	GoodResponse	0	0.166	173.879	4	17	Target	AvoidedLoss	True
174.879	0.3	Lose2	0.8889	0.002	Yes	2.735	-0.002	4.0	GoodResponse	0	0.166	n/a	4	17	ButtonPress	AvoidedLoss	True
174.997	0.43	Lose2	0.8889	n/a	Yes	2.735	n/a	n/a	GoodResponse	0	n/a	n/a	4	17	Blank	AvoidedLoss	True
175.413	1.45	Lose2	0.8889	n/a	Yes	2.735	n/a	5.0	GoodResponse	0	0.024	174.437	4	17	Feedback	AvoidedLoss	True
176.863	2.735	Lose2	0.8889	n/a	Yes	2.735	n/a	n/a	GoodResponse	0	0.0	n/a	4	17	ISIslide	AvoidedLoss	True
179.628	0.25	Lose2	0.8946999999999999	0.0	Yes	2.722	0.028	n/a	GoodResponse	0	n/a	n/a	4	18	Cue	AvoidedLoss	True
179.878	4.05	Lose2	0.8946999999999999	0.0	Yes	2.722	0.0	n/a	GoodResponse	0	n/a	n/a	4	18	Fixation	AvoidedLoss	True
183.927	0.26	Lose2	0.8946999999999999	0.001	Yes	2.722	-0.001	4.0	GoodResponse	0	0.194	183.121	4	18	Target	AvoidedLoss	True
184.121	0.3	Lose2	0.8946999999999999	0.001	Yes	2.722	-0.001	4.0	GoodResponse	0	0.194	n/a	4	18	ButtonPress	AvoidedLoss	True
184.193	0.44	Lose2	0.8946999999999999	n/a	Yes	2.722	n/a	n/a	GoodResponse	0	n/a	n/a	4	18	Blank	AvoidedLoss	True
184.627	1.45	Lose2	0.8946999999999999	n/a	Yes	2.722	n/a	5.0	GoodResponse	0	0.03	183.657	4	18	Feedback	AvoidedLoss	True
186.076	2.722	Lose2	0.8946999999999999	n/a	Yes	2.722	n/a	n/a	GoodResponse	0	0.0	n/a	4	18	ISIslide	AvoidedLoss	True
188.825	0.25	Control	0.9	0.0	Yes	2.925	0.025	n/a	GoodResponse	0	n/a	n/a	4	19	Cue	Neutral	True
189.075	3.95	Control	0.9	0.0	Yes	2.925	0.0	n/a	GoodResponse	0	n/a	n/a	4	19	Fixation	Neutral	True
193.024	0.25	Control	0.9	0.001	Yes	2.925	-0.001	4.0	GoodResponse	0	0.127	192.151	4	19	Target	Neutral	True
193.151	0.3	Control	0.9	0.001	Yes	2.925	-0.001	4.0	GoodResponse	0	0.127	n/a	4	19	ButtonPress	Neutral	True
193.274	0.45	Control	0.9	n/a	Yes	2.925	n/a	n/a	GoodResponse	0	n/a	n/a	4	19	Blank	Neutral	True
193.723	1.45	Control	0.9	n/a	Yes	2.925	n/a	5.0	GoodResponse	0	0.007	192.73	4	19	Feedback	Neutral	True
195.173	2.925	Control	0.9	n/a	Yes	2.925	n/a	n/a	GoodResponse	0	0.0	n/a	4	19	ISIslide	Neutral	True
198.122	0.25	Control	0.9048	0.0	Yes	2.628	0.022	n/a	GoodResponse	0	n/a	n/a	4	20	Cue	Neutral	True
198.372	4.05	Control	0.9048	0.0	Yes	2.628	0.0	n/a	GoodResponse	0	n/a	n/a	4	20	Fixation	Neutral	True
202.42	0.24	Control	0.9048	0.002	Yes	2.628	-0.002	4.0	GoodResponse	0	0.205	201.625	4	20	Target	Neutral	True
202.625	0.3	Control	0.9048	0.002	Yes	2.628	-0.002	4.0	GoodResponse	0	0.205	n/a	4	20	ButtonPress	Neutral	True
202.67	0.46	Control	0.9048	n/a	Yes	2.628	n/a	n/a	GoodResponse	0	n/a	n/a	4	20	Blank	Neutral	True
203.12	1.45	Control	0.9048	n/a	Yes	2.628	n/a	5.0	GoodResponse	0	0.025	202.145	4	20	Feedback	Neutral	True
204.57	2.628	Control	0.9048	n/a	Yes	2.628	n/a	n/a	GoodResponse	0	0.0	n/a	4	20	ISIslide	Neutral	True
207.219	0.25	Control	0.9091	0.0	Yes	2.781	0.019	n/a	GoodResponse	0	n/a	n/a	4	21	Cue	Neutral	True
207.469	4.1	Control	0.9091	0.0	Yes	2.781	0.0	n/a	GoodResponse	0	n/a	n/a	4	21	Fixation	Neutral	True
211.567	0.23	Control	0.9091	0.002	Yes	2.781	-0.002	4.0	GoodResponse	0	0.194	210.761	4	21	Target	Neutral	True
211.761	0.3	Control	0.9091	0.002	Yes	2.781	-0.002	4.0	GoodResponse	0	0.194	n/a	4	21	ButtonPress	Neutral	True
211.8	0.47	Control	0.9091	n/a	Yes	2.781	n/a	n/a	GoodResponse	0	n/a	n/a	4	21	Blank	Neutral	True
212.267	1.45	Control	0.9091	n/a	Yes	2.781	n/a	5.0	GoodResponse	0	0.048	211.315	4	21	Feedback	Neutral	True
213.716	2.781	Control	0.9091	n/a	Yes	2.781	n/a	n/a	GoodResponse	0	0.0	n/a	4	21	ISIslide	Neutral	True
216.515	0.25	Control	0.9129999999999999	0.001	Yes	2.785	0.015	n/a	GoodResponse	0	n/a	n/a	4	22	Cue	Neutral	True
216.765	4.0	Control	0.9129999999999999	0.0	Yes	2.785	0.0	n/a	GoodResponse	0	n/a	n/a	4	22	Fixation	Neutral	True
220.764	0.22	Control	0.9129999999999999	0.001	Yes	2.785	-0.001	4.0	GoodResponse	0	0.188	219.952	4	22	Target	Neutral	True
220.952	0.3	Control	0.9129999999999999	0.001	Yes	2.785	-0.001	4.0	GoodResponse	0	0.188	n/a	4	22	ButtonPress	Neutral	True
220.98	0.48	Control	0.9129999999999999	n/a	Yes	2.785	n/a	n/a	GoodResponse	0	n/a	n/a	4	22	Blank	Neutral	True
221.464	1.45	Control	0.9129999999999999	n/a	Yes	2.785	n/a	5.0	GoodResponse	0	0.022	220.486	4	22	Feedback	Neutral	True
222.913	2.785	Control	0.9129999999999999	n/a	Yes	2.785	n/a	n/a	GoodResponse	0	0.0	n/a	4	22	ISIslide	Neutral	True
225.729	0.25	Control	0.9167000000000001	0.0	Yes	2.771	0.029	n/a	GoodResponse	0	n/a	n/a	4	23	Cue	Neutral	True
225.979	3.9	Control	0.9167000000000001	0.0	Yes	2.771	0.0	n/a	GoodResponse	0	n/a	n/a	4	23	Fixation	Neutral	True
229.877	0.21	Control	0.9167000000000001	0.002	Yes	2.771	-0.002	4.0	GoodResponse	0	0.202	229.079	4	23	Target	Neutral	True
230.079	0.3	Control	0.9167000000000001	0.002	Yes	2.771	-0.002	4.0	GoodResponse	0	0.202	n/a	4	23	ButtonPress	Neutral	True
230.094	0.49	Control	0.9167000000000001	n/a	Yes	2.771	n/a	n/a	GoodResponse	0	n/a	n/a	4	23	Blank	Neutral	True
230.577	1.45	Control	0.9167000000000001	n/a	Yes	2.771	n/a	5.0	GoodResponse	0	0.031	229.608	4	23	Feedback	Neutral	True
232.027	2.771	Control	0.9167000000000001	n/a	Yes	2.771	n/a	n/a	GoodResponse	0	0.0	n/a	4	23	ISIslide	Neutral	True
234.826	0.25	Win2	0.88	0.0	No	3.124	0.026	n/a	NoResponse	0	n/a	n/a	4	24	Cue	MissedWin	True
235.076	3.95	Win2	0.88	0.0	No	3.124	0.0	n/a	NoResponse	0	n/a	n/a	4	24	Fixation	MissedWin	True
239.024	0.2	Win2	0.88	0.002	No	3.124	-0.002	4.0	NoResponse	0	0.229	238.253	4	24	Target	MissedWin	True
239.224	0.5	Win2	0.88	n/a	No	3.124	n/a	n/a	NoResponse	0	n/a	n/a	4	24	Blank	MissedWin	True
239.253	0.3	Win2	0.88	0.002	No	3.124	-0.002	4.0	NoResponse	0	0.229	n/a	4	24	ButtonPress	MissedWin	True
239.724	1.45	Win2	0.88	n/a	No	3.124	n/a	5.0	NoResponse	0	0.007	238.731	4	24	Feedback	MissedWin	True
241.173	3.124	Win2	0.88	n/a	No	3.124	n/a	n/a	NoResponse	0	0.0	n/a	4	24	ISIslide	MissedWin	True
244.322	0.25	Win2	0.8845999999999999	0.0	Yes	3.078	0.022	n/a	GoodResponse	1	n/a	n/a	5	25	Cue	Win	True
244.572	4.0	Win2	0.8845999999999999	0.0	Yes	3.078	0.0	n/a	GoodResponse	1	n/a	n/a	5	25	Fixation	Win	True
248.571	0.19	Win2	0.8845999999999999	0.001	Yes	3.078	-0.001	4.0	GoodResponse	1	0.176	247.747	5	25	Target	Win	True
248.747	0.3	Win2	0.8845999999999999	0.001	Yes	3.078	-0.001	4.0	GoodResponse	1	0.176	n/a	5	25	ButtonPress	Win	True
248.771	0.51	Win2	0.8845999999999999	n/a	Yes	3.078	n/a	n/a	GoodResponse	1	n/a	n/a	5	25	Blank	Win	True
249.271	1.45	Win2	0.8845999999999999	n/a	Yes	3.078	n/a	5.0	GoodResponse	1	0.02	248.291	5	25	Feedback	Win	True
250.72	3.078	Win2	0.8845999999999999	n/a	Yes	3.078	n/a	n/a	GoodResponse	1	0.0	n/a	5	25	ISIslide	Win	True
253.819	0.25	Win2	0.8519	0.0	No	2.931	0.019	n/a	NoResponse	0	n/a	n/a	5	26	Cue	MissedWin	True
254.069	3.95	Win2	0.8519	0.0	No	2.931	0.0	n/a	NoResponse	0	n/a	n/a	5	26	Fixation	MissedWin	True
258.018	0.18	Win2	0.8519	0.001	No	2.931	-0.001	4.0	NoResponse	0	0.211	257.229	5	26	Target	MissedWin	True
258.201	0.52	Win2	0.8519	n/a	No	2.931	n/a	n/a	NoResponse	0	n/a	n/a	5	26	Blank	MissedWin	True
258.229	0.3	Win2	0.8519	0.001	No	2.931	-0.001	4.0	NoResponse	0	0.211	n/a	5	26	ButtonPress	MissedWin	True
258.717	1.45	Win2	0.8519	n/a	No	2.931	n/a	5.0	NoResponse	0	0.036	257.753	5	26	Feedback	MissedWin	True
260.167	2.931	Win2	0.8519	n/a	No	2.931	n/a	n/a	NoResponse	0	0.0	n/a	5	26	ISIslide	MissedWin	True
263.116	0.25	Lose2	0.8214	0.0	No	2.834	0.016	n/a	NoResponse	-1	n/a	n/a	4	27	Cue	Loss	True
263.366	4.05	Lose2	0.8214	0.0	No	2.834	0.0	n/a	NoResponse	-1	n/a	n/a	4	27	Fixation	Loss	True
267.414	0.17	Lose2	0.8214	0.002	No	2.834	-0.002	4.0	NoResponse	-1	0.216	266.63	4	27	Target	Loss	True
267.598	0.53	Lose2	0.8214	n/a	No	2.834	n/a	n/a	NoResponse	-1	n/a	n/a	4	27	Blank	Loss	True
267.63	0.3	Lose2	0.8214	0.002	No	2.834	-0.002	4.0	NoResponse	-1	0.216	n/a	4	27	ButtonPress	Loss	True
268.114	1.45	Lose2	0.8214	n/a	No	2.834	n/a	5.0	NoResponse	-1	0.007	267.121	4	27	Feedback	Loss	True
269.564	2.834	Lose2	0.8214	n/a	No	2.834	n/a	n/a	NoResponse	-1	0.0	n/a	4	27	ISIslide	Loss	True
272.413	0.25	Control	0.7931	0.0	No	2.837	0.013	n/a	PrematurePress	0	n/a	n/a	4	28	Cue	Neutral	True
272.662	4.05	Control	0.7931	0.001	No	2.837	-0.001	n/a	PrematurePress	0	n/a	n/a	4	28	Fixation	Neutral	True
276.711	0.16	Control	0.7931	0.002	No	2.837	-0.002	4.0	PrematurePress	0	0.05	275.761	4	28	Target	Neutral	True
276.761	0.3	Control	0.7931	0.002	No	2.837	-0.002	4.0	PrematurePress	0	0.05	n/a	4	28	ButtonPress	Neutral	True
276.878	0.54	Control	0.7931	n/a	No	2.837	n/a	n/a	PrematurePress	0	n/a	n/a	4	28	Blank	Neutral	True
277.411	1.45	Control	0.7931	n/a	No	2.837	n/a	5.0	PrematurePress	0	0.026	276.437	4	28	Feedback	Neutral	True
278.86	2.837	Control	0.7931	n/a	No	2.837	n/a	n/a	PrematurePress	0	0.0	n/a	4	28	ISIslide	Neutral	True
281.726	0.25	Lose2	0.7667	0.0	No	2.824	0.026	n/a	NoResponse	-1	n/a	n/a	3	29	Cue	Loss	True
281.976	3.95	Lose2	0.7667	0.0	No	2.824	0.0	n/a	NoResponse	-1	n/a	n/a	3	29	Fixation	Loss	True
285.925	0.15	Lose2	0.7667	0.001	No	2.824	-0.001	4.0	NoResponse	-1	0.271	285.196	3	29	Target	Loss	True
286.074	0.55	Lose2	0.7667	n/a	No	2.824	n/a	n/a	NoResponse	-1	n/a	n/a	3	29	Blank	Loss	True
286.196	0.3	Lose2	0.7667	0.001	No	2.824	-0.001	4.0	NoResponse	-1	0.271	n/a	3	29	ButtonPress	Loss	True
286.624	1.45	Lose2	0.7667	n/a	No	2.824	n/a	5.0	NoResponse	-1	0.032	285.656	3	29	Feedback	Loss	True
288.074	2.824	Lose2	0.7667	n/a	No	2.824	n/a	n/a	NoResponse	-1	0.0	n/a	3	29	ISIslide	Loss	True
290.923	0.25	Win2	0.7419	0.0	No	2.777	0.023	n/a	NoResponse	0	n/a	n/a	3	30	Cue	MissedWin	True
291.173	3.9	Win2	0.7419	0.0	No	2.777	0.0	n/a	NoResponse	0	n/a	n/a	3	30	Fixation	MissedWin	True
295.071	0.15	Win2	0.7419	0.002	No	2.777	-0.002	4.0	NoResponse	0	0.219	294.29	3	30	Target	MissedWin	True
295.221	0.55	Win2	0.7419	n/a	No	2.777	n/a	n/a	NoResponse	0	n/a	n/a	3	30	Blank	MissedWin	True
295.29	0.3	Win2	0.7419	0.002	No	2.777	-0.002	4.0	NoResponse	0	0.219	n/a	3	30	ButtonPress	MissedWin	True
295.771	1.45	Win2	0.7419	n/a	No	2.777	n/a	5.0	NoResponse	0	0.007	294.778	3	30	Feedback	MissedWin	True
297.221	2.777	Win2	0.7419	n/a	No	2.777	n/a	n/a	NoResponse	0	0.0	n/a	3	30	ISIslide	MissedWin	True
300.02	0.25	Lose2	0.7188	0.0	No	2.83	0.02	n/a	NoResponse	-1	n/a	n/a	2	31	Cue	Loss	True
300.27	4.05	Lose2	0.7188	0.0	No	2.83	0.0	n/a	NoResponse	-1	n/a	n/a	2	31	Fixation	Loss	True
304.318	0.15	Lose2	0.7188	0.002	No	2.83	-0.002	4.0	NoResponse	-1	0.195	303.513	2	31	Target	Loss	True
304.468	0.55	Lose2	0.7188	n/a	No	2.83	n/a	n/a	NoResponse	-1	n/a	n/a	2	31	Blank	Loss	True
304.513	0.3	Lose2	0.7188	0.002	No	2.83	-0.002	4.0	NoResponse	-1	0.195	n/a	2	31	ButtonPress	Loss	True
305.018	1.45	Lose2	0.7188	n/a	No	2.83	n/a	5.0	NoResponse	-1	0.029	304.047	2	31	Feedback	Loss	True
306.467	2.83	Lose2	0.7188	n/a	No	2.83	n/a	n/a	NoResponse	-1	0.0	n/a	2	31	ISIslide	Loss	True
309.316	0.25	Lose2	0.6970000000000001	0.001	No	2.634	0.016	n/a	NoResponse	-1	n/a	n/a	1	32	Cue	Loss	True
309.566	4.15	Lose2	0.6970000000000001	0.0	No	2.634	0.0	n/a	NoResponse	-1	n/a	n/a	1	32	Fixation	Loss	True
313.715	0.15	Lose2	0.6970000000000001	0.001	No	2.634	-0.001	4.0	NoResponse	-1	0.206	312.921	1	32	Target	Loss	True
313.865	0.55	Lose2	0.6970000000000001	n/a	No	2.634	n/a	n/a	NoResponse	-1	n/a	n/a	1	32	Blank	Loss	True
313.921	0.3	Lose2	0.6970000000000001	0.001	No	2.634	-0.001	4.0	NoResponse	-1	0.206	n/a	1	32	ButtonPress	Loss	True
314.415	1.45	Lose2	0.6970000000000001	n/a	No	2.634	n/a	5.0	NoResponse	-1	0.045	313.46	1	32	Feedback	Loss	True
315.864	2.634	Lose2	0.6970000000000001	n/a	No	2.634	n/a	n/a	NoResponse	-1	0.0	n/a	1	32	ISIslide	Loss	True
318.53	0.25	Win2	0.6765000000000001	0.0	No	2.67	0.03	n/a	NoResponse	0	n/a	n/a	1	33	Cue	MissedWin	True
318.78	4.0	Win2	0.6765000000000001	0.0	No	2.67	0.0	n/a	NoResponse	0	n/a	n/a	1	33	Fixation	MissedWin	True
322.778	0.15	Win2	0.6765000000000001	0.002	No	2.67	-0.002	4.0	NoResponse	0	0.181	321.959	1	33	Target	MissedWin	True
322.928	0.55	Win2	0.6765000000000001	n/a	No	2.67	n/a	n/a	NoResponse	0	n/a	n/a	1	33	Blank	MissedWin	True
322.959	0.3	Win2	0.6765000000000001	0.002	No	2.67	-0.002	4.0	NoResponse	0	0.181	n/a	1	33	ButtonPress	MissedWin	True
323.478	1.45	Win2	0.6765000000000001	n/a	No	2.67	n/a	5.0	NoResponse	0	0.007	322.485	1	33	Feedback	MissedWin	True
324.928	2.67	Win2	0.6765000000000001	n/a	No	2.67	n/a	n/a	NoResponse	0	0.0	n/a	1	33	ISIslide	MissedWin	True
327.627	0.25	Lose2	0.6570999999999999	0.0	No	2.623	0.027	n/a	NoResponse	-1	n/a	n/a	0	34	Cue	Loss	True
327.877	4.05	Lose2	0.6570999999999999	0.0	No	2.623	0.0	n/a	NoResponse	-1	n/a	n/a	0	34	Fixation	Loss	True
331.925	0.15	Lose2	0.6570999999999999	0.002	No	2.623	-0.002	4.0	NoResponse	-1	0.199	331.124	0	34	Target	Loss	True
332.075	0.55	Lose2	0.6570999999999999	n/a	No	2.623	n/a	n/a	NoResponse	-1	n/a	n/a	0	34	Blank	Loss	True
332.124	0.3	Lose2	0.6570999999999999	0.002	No	2.623	-0.002	4.0	NoResponse	-1	0.199	n/a	0	34	ButtonPress	Loss	True
332.625	1.45	Lose2	0.6570999999999999	n/a	No	2.623	n/a	5.0	NoResponse	-1	0.031	331.656	0	34	Feedback	Loss	True
334.074	2.623	Lose2	0.6570999999999999	n/a	No	2.623	n/a	n/a	NoResponse	-1	0.0	n/a	0	34	ISIslide	Loss	True
336.723	0.25	Lose2	0.6389	0.001	No	2.677	0.023	n/a	LatePress	-1	n/a	n/a	-1	35	Cue	Loss	True
336.973	4.0	Lose2	0.6389	0.0	No	2.677	0.0	n/a	LatePress	-1	n/a	n/a	-1	35	Fixation	Loss	True
340.972	0.15	Lose2	0.6389	0.001	No	2.677	-0.001	4.0	LatePress	-1	0.151	340.123	-1	35	Target	Loss	True
341.122	0.55	Lose2	0.6389	n/a	No	2.677	n/a	n/a	LatePress	-1	n/a	n/a	-1	35	Blank	Loss	True
341.123	0.3	Lose2	0.6389	0.001	No	2.677	-0.001	4.0	LatePress	-1	0.151	n/a	-1	35	ButtonPress	Loss	True
341.672	1.45	Lose2	0.6389	n/a	No	2.677	n/a	5.0	LatePress	-1	0.008	340.68	-1	35	Feedback	Loss	True
343.121	2.677	Lose2	0.6389	n/a	No	2.677	n/a	n/a	LatePress	-1	0.0	n/a	-1	35	ISIslide	Loss	True
345.82	0.25	Control	0.6215999999999999	0.0	No	2.68	0.02	n/a	NoResponse	0	n/a	n/a	-1	36	Cue	Neutral	True
346.07	4.0	Control	0.6215999999999999	0.0	No	2.68	0.0	n/a	NoResponse	0	n/a	n/a	-1	36	Fixation	Neutral	True
350.069	0.16	Control	0.6215999999999999	0.001	No	2.68	-0.001	4.0	NoResponse	0	0.192	349.261	-1	36	Target	Neutral	True
350.235	0.54	Control	0.6215999999999999	n/a	No	2.68	n/a	n/a	NoResponse	0	n/a	n/a	-1	36	Blank	Neutral	True
350.261	0.3	Control	0.6215999999999999	0.001	No	2.68	-0.001	4.0	NoResponse	0	0.192	n/a	-1	36	ButtonPress	Neutral	True
350.769	1.45	Control	0.6215999999999999	n/a	No	2.68	n/a	5.0	NoResponse	0	0.033	349.802	-1	36	Feedback	Neutral	True
352.218	2.68	Control	0.6215999999999999	n/a	No	2.68	n/a	n/a	NoResponse	0	0.0	n/a	-1	36	ISIslide	Neutral	True
354.917	0.25	Win2	0.6053000000000001	0.0	No	2.883	0.017	n/a	LatePress	0	n/a	n/a	-1	37	Cue	MissedWin	True
355.167	4.0	Win2	0.6053000000000001	0.0	No	2.883	0.0	n/a	LatePress	0	n/a	n/a	-1	37	Fixation	MissedWin	True
359.166	0.17	Win2	0.6053000000000001	0.001	No	2.883	-0.001	4.0	LatePress	0	0.171	358.337	-1	37	Target	MissedWin	True
359.337	0.3	Win2	0.6053000000000001	0.001	No	2.883	-0.001	4.0	LatePress	0	0.171	n/a	-1	37	ButtonPress	MissedWin	True
359.349	0.53	Win2	0.6053000000000001	n/a	No	2.883	n/a	n/a	LatePress	0	n/a	n/a	-1	37	Blank	MissedWin	True
359.865	1.45	Win2	0.6053000000000001	n/a	No	2.883	n/a	5.0	LatePress	0	0.01	358.875	-1	37	Feedback	MissedWin	True
361.315	2.883	Win2	0.6053000000000001	n/a	No	2.883	n/a	n/a	LatePress	0	0.0	n/a	-1	37	ISIslide	MissedWin	True
364.231	0.25	Lose2	0.5897	0.0	No	2.819	0.031	n/a	NoResponse	-1	n/a	n/a	-2	38	Cue	Loss	True
364.48	3.95	Lose2	0.5897	0.001	No	2.819	-0.001	n/a	NoResponse	-1	n/a	n/a	-2	38	Fixation	Loss	True
368.429	0.18	Lose2	0.5897	0.002	No	2.819	-0.002	4.0	NoResponse	-1	0.217	367.646	-2	38	Target	Loss	True
368.612	0.52	Lose2	0.5897	n/a	No	2.819	n/a	n/a	NoResponse	-1	n/a	n/a	-2	38	Blank	Loss	True
368.646	0.3	Lose2	0.5897	0.002	No	2.819	-0.002	4.0	NoResponse	-1	0.217	n/a	-2	38	ButtonPress	Loss	True
369.129	1.45	Lose2	0.5897	n/a	No	2.819	n/a	5.0	NoResponse	-1	0.014	368.143	-2	38	Feedback	Loss	True
370.578	2.819	Lose2	0.5897	n/a	No	2.819	n/a	n/a	NoResponse	-1	0.0	n/a	-2	38	ISIslide	Loss	True
373.427	0.25	Win2	0.575	0.0	No	2.973	0.027	n/a	NoResponse	0	n/a	n/a	-2	39	Cue	MissedWin	True
373.677	4.1	Win2	0.575	0.0	No	2.973	0.0	4.0	NoResponse	0	4.02	376.697	-2	39	Fixation	MissedWin	True
377.697	0.3	Win2	0.575	0.0	No	2.973	0.0	4.0	NoResponse	0	4.02	n/a	-2	39	ButtonPress	MissedWin	True
377.776	0.19	Win2	0.575	0.001	No	2.973	-0.001	n/a	NoResponse	0	n/a	n/a	-2	39	Target	MissedWin	True
377.976	0.51	Win2	0.575	n/a	No	2.973	n/a	n/a	NoResponse	0	n/a	n/a	-2	39	Blank	MissedWin	True
378.476	1.45	Win2	0.575	n/a	No	2.973	n/a	5.0	NoResponse	0	0.033	377.509	-2	39	Feedback	MissedWin	True
379.925	2.973	Win2	0.575	n/a	No	2.973	n/a	n/a	NoResponse	0	0.0	n/a	-2	39	ISIslide	MissedWin	True
382.924	0.25	Win2	0.5854	0.0	Yes	2.726	0.024	n/a	GoodResponse	1	n/a	n/a	-1	40	Cue	Win	True
383.174	3.95	Win2	0.5854	0.0	Yes	2.726	0.0	n/a	GoodResponse	1	n/a	n/a	-1	40	Fixation	Win	True
387.123	0.2	Win2	0.5854	0.001	Yes	2.726	-0.001	4.0	GoodResponse	1	0.165	386.288	-1	40	Target	Win	True
387.288	0.3	Win2	0.5854	0.001	Yes	2.726	-0.001	4.0	GoodResponse	1	0.165	n/a	-1	40	ButtonPress	Win	True
387.322	0.5	Win2	0.5854	n/a	Yes	2.726	n/a	n/a	GoodResponse	1	n/a	n/a	-1	40	Blank	Win	True
387.822	1.45	Win2	0.5854	n/a	Yes	2.726	n/a	5.0	GoodResponse	1	0.007	386.829	-1	40	Feedback	Win	True
389.272	2.726	Win2	0.5854	n/a	Yes	2.726	n/a	n/a	GoodResponse	1	0.0	n/a	-1	40	ISIslide	Win	True
392.021	0.25	Win2	0.5952000000000001	0.0	Yes	2.779	0.021	n/a	GoodResponse	1	n/a	n/a	0	41	Cue	Win	True
392.271	3.9	Win2	0.5952000000000001	0.0	Yes	2.779	0.0	n/a	GoodResponse	1	n/a	n/a	0	41	Fixation	Win	True
396.169	0.21	Win2	0.5952000000000001	0.002	Yes	2.779	-0.002	4.0	GoodResponse	1	0.201	395.37	0	41	Target	Win	True
396.37	0.3	Win2	0.5952000000000001	0.002	Yes	2.779	-0.002	4.0	GoodResponse	1	0.201	n/a	0	41	ButtonPress	Win	True
396.386	0.49	Win2	0.5952000000000001	n/a	Yes	2.779	n/a	n/a	GoodResponse	1	n/a	n/a	0	41	Blank	Win	True
396.869	1.45	Win2	0.5952000000000001	n/a	Yes	2.779	n/a	5.0	GoodResponse	1	0.03	395.899	0	41	Feedback	Win	True
398.319	2.779	Win2	0.5952000000000001	n/a	Yes	2.779	n/a	n/a	GoodResponse	1	0.0	n/a	0	41	ISIslide	Win	True
401.118	0.25	Control	0.6047	0.0	Yes	2.932	0.018	n/a	GoodResponse	0	n/a	n/a	0	42	Cue	Neutral	True
401.368	3.85	Control	0.6047	0.0	Yes	2.932	0.0	n/a	GoodResponse	0	n/a	n/a	0	42	Fixation	Neutral	True
405.216	0.22	Control	0.6047	0.002	Yes	2.932	-0.002	4.0	GoodResponse	0	0.219	404.435	0	42	Target	Neutral	True
405.435	0.3	Control	0.6047	0.002	Yes	2.932	-0.002	4.0	GoodResponse	0	0.219	n/a	0	42	ButtonPress	Neutral	True
405.449	0.48	Control	0.6047	n/a	Yes	2.932	n/a	n/a	GoodResponse	0	n/a	n/a	0	42	Blank	Neutral	True
405.916	1.45	Control	0.6047	n/a	Yes	2.932	n/a	5.0	GoodResponse	0	0.008	404.924	0	42	Feedback	Neutral	True
407.365	2.932	Control	0.6047	n/a	Yes	2.932	n/a	n/a	GoodResponse	0	0.0	n/a	0	42	ISIslide	Neutral	True
410.314	0.25	Win2	0.6136	0.001	Yes	3.186	0.014	n/a	GoodResponse	1	n/a	n/a	1	43	Cue	Win	True
410.564	4.0	Win2	0.6136	0.0	Yes	3.186	0.0	n/a	GoodResponse	1	n/a	n/a	1	43	Fixation	Win	True
414.563	0.23	Win2	0.6136	0.001	Yes	3.186	-0.001	4.0	GoodResponse	1	0.107	413.67	1	43	Target	Win	True
414.67	0.3	Win2	0.6136	0.001	Yes	3.186	-0.001	4.0	GoodResponse	1	0.107	n/a	1	43	ButtonPress	Win	True
414.796	0.47	Win2	0.6136	n/a	Yes	3.186	n/a	n/a	GoodResponse	1	n/a	n/a	1	43	Blank	Win	True
415.263	1.45	Win2	0.6136	n/a	Yes	3.186	n/a	5.0	GoodResponse	1	0.026	414.289	1	43	Feedback	Win	True
416.712	3.186	Win2	0.6136	n/a	Yes	3.186	n/a	n/a	GoodResponse	1	0.0	n/a	1	43	ISIslide	Win	True
419.928	0.25	Win2	0.6222	0.0	Yes	2.972	0.028	n/a	GoodResponse	1	n/a	n/a	2	44	Cue	Win	True
420.178	4.0	Win2	0.6222	0.0	Yes	2.972	0.0	n/a	GoodResponse	1	n/a	n/a	2	44	Fixation	Win	True
424.176	0.24	Win2	0.6222	0.002	Yes	2.972	-0.002	4.0	GoodResponse	1	0.207	423.383	2	44	Target	Win	True
424.383	0.3	Win2	0.6222	0.002	Yes	2.972	-0.002	4.0	GoodResponse	1	0.207	n/a	2	44	ButtonPress	Win	True
424.426	0.46	Win2	0.6222	n/a	Yes	2.972	n/a	n/a	GoodResponse	1	n/a	n/a	2	44	Blank	Win	True
424.876	1.45	Win2	0.6222	n/a	Yes	2.972	n/a	5.0	GoodResponse	1	0.023	423.899	2	44	Feedback	Win	True
426.326	2.972	Win2	0.6222	n/a	Yes	2.972	n/a	n/a	GoodResponse	1	0.0	n/a	2	44	ISIslide	Win	True
429.324	0.25	Control	0.6304	0.001	Yes	2.876	0.024	n/a	GoodResponse	0	n/a	n/a	2	45	Cue	Neutral	True
429.574	4.1	Control	0.6304	0.0	Yes	2.876	0.0	n/a	GoodResponse	0	n/a	n/a	2	45	Fixation	Neutral	True
433.673	0.25	Control	0.6304	0.001	Yes	2.876	-0.001	4.0	GoodResponse	0	0.2	432.873	2	45	Target	Neutral	True
433.873	0.3	Control	0.6304	0.001	Yes	2.876	-0.001	4.0	GoodResponse	0	0.2	n/a	2	45	ButtonPress	Neutral	True
433.923	0.45	Control	0.6304	n/a	Yes	2.876	n/a	n/a	GoodResponse	0	n/a	n/a	2	45	Blank	Neutral	True
434.373	1.45	Control	0.6304	n/a	Yes	2.876	n/a	5.0	GoodResponse	0	0.038	433.411	2	45	Feedback	Neutral	True
435.822	2.876	Control	0.6304	n/a	Yes	2.876	n/a	n/a	GoodResponse	0	0.0	n/a	2	45	ISIslide	Neutral	True
438.721	0.25	Lose2	0.6383	0.0	Yes	3.379	0.021	n/a	GoodResponse	0	n/a	n/a	2	46	Cue	AvoidedLoss	True
438.971	4.0	Lose2	0.6383	0.0	Yes	3.379	0.0	n/a	GoodResponse	0	n/a	n/a	2	46	Fixation	AvoidedLoss	True
442.97	0.26	Lose2	0.6383	0.001	Yes	3.379	-0.001	4.0	GoodResponse	0	0.18	442.15	2	46	Target	AvoidedLoss	True
443.15	0.3	Lose2	0.6383	0.001	Yes	3.379	-0.001	4.0	GoodResponse	0	0.18	n/a	2	46	ButtonPress	AvoidedLoss	True
443.236	0.44	Lose2	0.6383	n/a	Yes	3.379	n/a	n/a	GoodResponse	0	n/a	n/a	2	46	Blank	AvoidedLoss	True
443.669	1.45	Lose2	0.6383	n/a	Yes	3.379	n/a	5.0	GoodResponse	0	0.011	442.68	2	46	Feedback	AvoidedLoss	True
445.119	3.379	Lose2	0.6383	n/a	Yes	3.379	n/a	n/a	GoodResponse	0	0.0	n/a	2	46	ISIslide	AvoidedLoss	True
448.518	0.25	Lose2	0.6457999999999999	0.0	Yes	2.682	0.018	n/a	GoodResponse	0	n/a	n/a	2	47	Cue	AvoidedLoss	True
448.768	4.0	Lose2	0.6457999999999999	0.0	Yes	2.682	0.0	n/a	GoodResponse	0	n/a	n/a	2	47	Fixation	AvoidedLoss	True
452.766	0.27	Lose2	0.6457999999999999	0.002	Yes	2.682	-0.002	4.0	GoodResponse	0	0.217	451.983	2	47	Target	AvoidedLoss	True
452.983	0.3	Lose2	0.6457999999999999	0.002	Yes	2.682	-0.002	4.0	GoodResponse	0	0.217	n/a	2	47	ButtonPress	AvoidedLoss	True
453.05	0.43	Lose2	0.6457999999999999	n/a	Yes	2.682	n/a	n/a	GoodResponse	0	n/a	n/a	2	47	Blank	AvoidedLoss	True
453.466	1.45	Lose2	0.6457999999999999	n/a	Yes	2.682	n/a	5.0	GoodResponse	0	0.019	452.485	2	47	Feedback	AvoidedLoss	True
454.916	2.682	Lose2	0.6457999999999999	n/a	Yes	2.682	n/a	n/a	GoodResponse	0	0.0	n/a	2	47	ISIslide	AvoidedLoss	True
457.615	0.25	Lose2	0.6531	0.0	Yes	3.035	0.015	n/a	GoodResponse	0	n/a	n/a	2	48	Cue	AvoidedLoss	True
457.865	3.95	Lose2	0.6531	0.0	Yes	3.035	0.0	n/a	GoodResponse	0	n/a	n/a	2	48	Fixation	AvoidedLoss	True
461.813	0.28	Lose2	0.6531	0.002	Yes	3.035	-0.002	4.0	GoodResponse	0	0.231	461.044	2	48	Target	AvoidedLoss	True
462.044	0.3	Lose2	0.6531	0.002	Yes	3.035	-0.002	4.0	GoodResponse	0	0.231	n/a	2	48	ButtonPress	AvoidedLoss	True
462.096	0.42	Lose2	0.6531	n/a	Yes	3.035	n/a	n/a	GoodResponse	0	n/a	n/a	2	48	Blank	AvoidedLoss	True
462.513	1.45	Lose2	0.6531	n/a	Yes	3.035	n/a	5.0	GoodResponse	0	0.044	461.557	2	48	Feedback	AvoidedLoss	True
463.962	3.035	Lose2	0.6531	n/a	Yes	3.035	n/a	n/a	GoodResponse	0	0.0	n/a	2	48	ISIslide	AvoidedLoss	True
467.028	0.25	Control	0.66	0.0	Yes	2.872	0.028	n/a	GoodResponse	0	n/a	n/a	2	49	Cue	Neutral	True
467.278	4.0	Control	0.66	0.0	Yes	2.872	0.0	n/a	GoodResponse	0	n/a	n/a	2	49	Fixation	Neutral	True
471.277	0.29	Control	0.66	0.001	Yes	2.872	-0.001	4.0	GoodResponse	0	0.187	470.464	2	49	Target	Neutral	True
471.464	0.3	Control	0.66	0.001	Yes	2.872	-0.001	4.0	GoodResponse	0	0.187	n/a	2	49	ButtonPress	Neutral	True
471.576	0.41	Control	0.66	n/a	Yes	2.872	n/a	n/a	GoodResponse	0	n/a	n/a	2	49	Blank	Neutral	True
471.976	1.45	Control	0.66	n/a	Yes	2.872	n/a	5.0	GoodResponse	0	0.044	471.02	2	49	Feedback	Neutral	True
473.426	2.872	Control	0.66	n/a	Yes	2.872	n/a	n/a	GoodResponse	0	0.0	n/a	2	49	ISIslide	Neutral	True
476.325	0.25	Control	0.6667000000000001	0.0	Yes	2.775	0.025	n/a	GoodResponse	0	n/a	n/a	2	50	Cue	Neutral	True
476.575	4.0	Control	0.6667000000000001	0.0	Yes	2.775	0.0	n/a	GoodResponse	0	n/a	n/a	2	50	Fixation	Neutral	True
480.573	0.29	Control	0.6667000000000001	0.002	Yes	2.775	-0.002	4.0	GoodResponse	0	0.196	479.769	2	50	Target	Neutral	True
480.769	0.3	Control	0.6667000000000001	0.002	Yes	2.775	-0.002	4.0	GoodResponse	0	0.196	n/a	2	50	ButtonPress	Neutral	True
480.873	0.41	Control	0.6667000000000001	n/a	Yes	2.775	n/a	n/a	GoodResponse	0	n/a	n/a	2	50	Blank	Neutral	True
481.273	1.45	Control	0.6667000000000001	n/a	Yes	2.775	n/a	5.0	GoodResponse	0	0.016	480.289	2	50	Feedback	Neutral	True
482.723	2.775	Control	0.6667000000000001	n/a	Yes	2.775	n/a	n/a	GoodResponse	0	0.0	n/a	2	50	ISIslide	Neutral	True
485.522	0.25	Control	0.6731	0.0	Yes	2.728	0.022	n/a	GoodResponse	0	n/a	n/a	2	51	Cue	Neutral	True
485.771	3.95	Control	0.6731	0.001	Yes	2.728	-0.001	n/a	GoodResponse	0	n/a	n/a	2	51	Fixation	Neutral	True
489.72	0.28	Control	0.6731	0.002	Yes	2.728	-0.002	4.0	GoodResponse	0	0.202	488.922	2	51	Target	Neutral	True
489.922	0.3	Control	0.6731	0.002	Yes	2.728	-0.002	4.0	GoodResponse	0	0.202	n/a	2	51	ButtonPress	Neutral	True
490.003	0.42	Control	0.6731	n/a	Yes	2.728	n/a	n/a	GoodResponse	0	n/a	n/a	2	51	Blank	Neutral	True
490.42	1.45	Control	0.6731	n/a	Yes	2.728	n/a	5.0	GoodResponse	0	0.04	489.46	2	51	Feedback	Neutral	True
491.869	2.728	Control	0.6731	n/a	Yes	2.728	n/a	n/a	GoodResponse	0	0.0	n/a	2	51	ISIslide	Neutral	True
494.618	0.25	Control	0.6792	0.0	Yes	2.632	0.018	n/a	GoodResponse	0	n/a	n/a	2	52	Cue	Neutral	True
494.868	4.05	Control	0.6792	0.0	Yes	2.632	0.0	n/a	GoodResponse	0	n/a	n/a	2	52	Fixation	Neutral	True
498.917	0.27	Control	0.6792	0.001	Yes	2.632	-0.001	4.0	GoodResponse	0	0.219	498.136	2	52	Target	Neutral	True
499.136	0.3	Control	0.6792	0.001	Yes	2.632	-0.001	4.0	GoodResponse	0	0.219	n/a	2	52	ButtonPress	Neutral	True
499.183	0.43	Control	0.6792	n/a	Yes	2.632	n/a	n/a	GoodResponse	0	n/a	n/a	2	52	Blank	Neutral	True
499.617	1.45	Control	0.6792	n/a	Yes	2.632	n/a	5.0	GoodResponse	0	0.014	498.631	2	52	Feedback	Neutral	True
501.066	2.632	Control	0.6792	n/a	Yes	2.632	n/a	n/a	GoodResponse	0	0.0	n/a	2	52	ISIslide	Neutral	True
503.715	0.25	Win2	0.6851999999999999	0.0	Yes	2.935	0.015	n/a	GoodResponse	1	n/a	n/a	3	53	Cue	Win	True
503.965	4.05	Win2	0.6851999999999999	0.0	Yes	2.935	0.0	n/a	GoodResponse	1	n/a	n/a	3	53	Fixation	Win	True
508.014	0.26	Win2	0.6851999999999999	0.001	Yes	2.935	-0.001	4.0	GoodResponse	1	0.192	507.206	3	53	Target	Win	True
508.206	0.3	Win2	0.6851999999999999	0.001	Yes	2.935	-0.001	4.0	GoodResponse	1	0.192	n/a	3	53	ButtonPress	Win	True
508.28	0.44	Win2	0.6851999999999999	n/a	Yes	2.935	n/a	n/a	GoodResponse	1	n/a	n/a	3	53	Blank	Win	True
508.713	1.45	Win2	0.6851999999999999	n/a	Yes	2.935	n/a	5.0	GoodResponse	1	0.039	507.752	3	53	Feedback	Win	True
510.163	2.935	Win2	0.6851999999999999	n/a	Yes	2.935	n/a	n/a	GoodResponse	1	0.0	n/a	3	53	ISIslide	Win	True
513.129	0.25	Win2	0.6909000000000001	0.0	Yes	2.721	0.029	n/a	GoodResponse	1	n/a	n/a	4	54	Cue	Win	True
513.379	3.95	Win2	0.6909000000000001	0.0	Yes	2.721	0.0	n/a	GoodResponse	1	n/a	n/a	4	54	Fixation	Win	True
517.327	0.25	Win2	0.6909000000000001	0.002	Yes	2.721	-0.002	4.0	GoodResponse	1	0.208	516.535	4	54	Target	Win	True
517.535	0.3	Win2	0.6909000000000001	0.002	Yes	2.721	-0.002	4.0	GoodResponse	1	0.208	n/a	4	54	ButtonPress	Win	True
517.577	0.45	Win2	0.6909000000000001	n/a	Yes	2.721	n/a	n/a	GoodResponse	1	n/a	n/a	4	54	Blank	Win	True
518.027	1.45	Win2	0.6909000000000001	n/a	Yes	2.721	n/a	5.0	GoodResponse	1	0.042	517.069	4	54	Feedback	Win	True
519.476	2.721	Win2	0.6909000000000001	n/a	Yes	2.721	n/a	n/a	GoodResponse	1	0.0	n/a	4	54	ISIslide	Win	True
522.225	0.25	Control	0.6964	0.0	Yes	3.025	0.025	n/a	GoodResponse	0	n/a	n/a	4	55	Cue	Neutral	True
522.475	3.95	Control	0.6964	0.0	Yes	3.025	0.0	n/a	GoodResponse	0	n/a	n/a	4	55	Fixation	Neutral	True
526.424	0.24	Control	0.6964	0.001	Yes	3.025	-0.001	4.0	GoodResponse	0	0.194	525.618	4	55	Target	Neutral	True
526.618	0.3	Control	0.6964	0.001	Yes	3.025	-0.001	4.0	GoodResponse	0	0.194	n/a	4	55	ButtonPress	Neutral	True
526.674	0.46	Control	0.6964	n/a	Yes	3.025	n/a	n/a	GoodResponse	0	n/a	n/a	4	55	Blank	Neutral	True
527.124	1.45	Control	0.6964	n/a	Yes	3.025	n/a	5.0	GoodResponse	0	0.018	526.142	4	55	Feedback	Neutral	True
528.573	3.025	Control	0.6964	n/a	Yes	3.025	n/a	n/a	GoodResponse	0	0.0	n/a	4	55	ISIslide	Neutral	True
531.622	0.25	Control	0.7018000000000001	0.0	Yes	2.828	0.022	n/a	GoodResponse	0	n/a	n/a	4	56	Cue	Neutral	True
531.872	3.95	Control	0.7018000000000001	0.0	Yes	2.828	0.0	n/a	GoodResponse	0	n/a	n/a	4	56	Fixation	Neutral	True
535.821	0.23	Control	0.7018000000000001	0.001	Yes	2.828	-0.001	4.0	GoodResponse	0	0.203	535.024	4	56	Target	Neutral	True
536.024	0.3	Control	0.7018000000000001	0.001	Yes	2.828	-0.001	4.0	GoodResponse	0	0.203	n/a	4	56	ButtonPress	Neutral	True
536.054	0.47	Control	0.7018000000000001	n/a	Yes	2.828	n/a	n/a	GoodResponse	0	n/a	n/a	4	56	Blank	Neutral	True
536.52	1.45	Control	0.7018000000000001	n/a	Yes	2.828	n/a	5.0	GoodResponse	0	0.037	535.557	4	56	Feedback	Neutral	True
537.97	2.828	Control	0.7018000000000001	n/a	Yes	2.828	n/a	n/a	GoodResponse	0	0.0	n/a	4	56	ISIslide	Neutral	True
540.819	0.25	Control	0.6897	0.0	No	3.481	0.019	n/a	NoResponse	0	n/a	n/a	4	57	Cue	Neutral	True
541.069	4.0	Control	0.6897	0.0	No	3.481	0.0	n/a	NoResponse	0	n/a	n/a	4	57	Fixation	Neutral	True
545.067	0.22	Control	0.6897	0.002	No	3.481	-0.002	4.0	NoResponse	0	0.241	544.308	4	57	Target	Neutral	True
545.301	0.48	Control	0.6897	n/a	No	3.481	n/a	n/a	NoResponse	0	n/a	n/a	4	57	Blank	Neutral	True
545.308	0.3	Control	0.6897	0.002	No	3.481	-0.002	4.0	NoResponse	0	0.241	n/a	4	57	ButtonPress	Neutral	True
545.767	1.45	Control	0.6897	n/a	No	3.481	n/a	5.0	NoResponse	0	0.01	544.777	4	57	Feedback	Neutral	True
547.217	3.481	Control	0.6897	n/a	No	3.481	n/a	n/a	NoResponse	0	0.0	n/a	4	57	ISIslide	Neutral	True
550.715	0.25	Win2	0.6779999999999999	0.001	No	2.735	0.015	n/a	NoResponse	0	n/a	n/a	4	58	Cue	MissedWin	True
550.965	4.05	Win2	0.6779999999999999	0.0	No	2.735	0.0	n/a	NoResponse	0	n/a	n/a	4	58	Fixation	MissedWin	True
555.014	0.21	Win2	0.6779999999999999	0.001	No	2.735	-0.001	4.0	NoResponse	0	0.296	554.31	4	58	Target	MissedWin	True
555.231	0.49	Win2	0.6779999999999999	n/a	No	2.735	n/a	n/a	NoResponse	0	n/a	n/a	4	58	Blank	MissedWin	True
555.31	0.3	Win2	0.6779999999999999	0.001	No	2.735	-0.001	4.0	NoResponse	0	0.296	n/a	4	58	ButtonPress	MissedWin	True
555.714	1.45	Win2	0.6779999999999999	n/a	No	2.735	n/a	5.0	NoResponse	0	0.014	554.728	4	58	Feedback	MissedWin	True
557.163	2.735	Win2	0.6779999999999999	n/a	No	2.735	n/a	n/a	NoResponse	0	0.0	n/a	4	58	ISIslide	MissedWin	True
559.929	0.25	Lose2	0.6667000000000001	0.0	No	2.671	0.029	n/a	NoResponse	-1	n/a	n/a	3	59	Cue	Loss	True
560.179	4.0	Lose2	0.6667000000000001	0.0	No	2.671	0.0	n/a	NoResponse	-1	n/a	n/a	3	59	Fixation	Loss	True
564.177	0.2	Lose2	0.6667000000000001	0.002	No	2.671	-0.002	4.0	NoResponse	-1	0.209	563.386	3	59	Target	Loss	True
564.377	0.5	Lose2	0.6667000000000001	n/a	No	2.671	n/a	n/a	NoResponse	-1	n/a	n/a	3	59	Blank	Loss	True
564.386	0.3	Lose2	0.6667000000000001	0.002	No	2.671	-0.002	4.0	NoResponse	-1	0.209	n/a	3	59	ButtonPress	Loss	True
564.877	1.45	Lose2	0.6667000000000001	n/a	No	2.671	n/a	5.0	NoResponse	-1	0.021	563.898	3	59	Feedback	Loss	True
566.327	2.671	Lose2	0.6667000000000001	n/a	No	2.671	n/a	n/a	NoResponse	-1	0.0	n/a	3	59	ISIslide	Loss	True
569.026	0.25	Control	0.6720999999999999	0.0	Yes	2.674	0.026	n/a	GoodResponse	0	n/a	n/a	3	60	Cue	Neutral	True
569.276	4.0	Control	0.6720999999999999	0.0	Yes	2.674	0.0	n/a	GoodResponse	0	n/a	n/a	3	60	Fixation	Neutral	True
573.274	0.19	Control	0.6720999999999999	0.002	Yes	2.674	-0.002	4.0	GoodResponse	0	0.189	572.463	3	60	Target	Neutral	True
573.463	0.3	Control	0.6720999999999999	0.002	Yes	2.674	-0.002	4.0	GoodResponse	0	0.189	n/a	3	60	ButtonPress	Neutral	True
573.474	0.51	Control	0.6720999999999999	n/a	Yes	2.674	n/a	n/a	GoodResponse	0	n/a	n/a	3	60	Blank	Neutral	True
573.974	1.45	Control	0.6720999999999999	n/a	Yes	2.674	n/a	5.0	GoodResponse	0	0.046	573.02	3	60	Feedback	Neutral	True
575.424	2.674	Control	0.6720999999999999	n/a	Yes	2.674	n/a	n/a	GoodResponse	0	0.0	n/a	3	60	ISIslide	Neutral	True
578.123	0.25	Lose2	0.6613	0.0	No	2.977	0.023	n/a	NoResponse	-1	n/a	n/a	2	61	Cue	Loss	True
578.372	4.0	Lose2	0.6613	0.001	No	2.977	-0.001	n/a	NoResponse	-1	n/a	n/a	2	61	Fixation	Loss	True
582.371	0.18	Lose2	0.6613	0.002	No	2.977	-0.002	4.0	NoResponse	-1	0.197	581.568	2	61	Target	Loss	True
582.554	0.52	Lose2	0.6613	n/a	No	2.977	n/a	n/a	NoResponse	-1	n/a	n/a	2	61	Blank	Loss	True
582.568	0.3	Lose2	0.6613	0.002	No	2.977	-0.002	4.0	NoResponse	-1	0.197	n/a	2	61	ButtonPress	Loss	True
583.071	1.45	Lose2	0.6613	n/a	No	2.977	n/a	5.0	NoResponse	-1	0.022	582.093	2	61	Feedback	Loss	True
584.52	2.977	Lose2	0.6613	n/a	No	2.977	n/a	n/a	NoResponse	-1	0.0	n/a	2	61	ISIslide	Loss	True
587.519	0.25	Lose2	0.6507999999999999	0.0	No	2.881	0.019	n/a	NoResponse	-1	n/a	n/a	1	62	Cue	Loss	True
587.769	3.9	Lose2	0.6507999999999999	0.0	No	2.881	0.0	n/a	NoResponse	-1	n/a	n/a	1	62	Fixation	Loss	True
591.668	0.18	Lose2	0.6507999999999999	0.001	No	2.881	-0.001	4.0	NoResponse	-1	0.194	590.862	1	62	Target	Loss	True
591.851	0.52	Lose2	0.6507999999999999	n/a	No	2.881	n/a	n/a	NoResponse	-1	n/a	n/a	1	62	Blank	Loss	True
591.862	0.3	Lose2	0.6507999999999999	0.001	No	2.881	-0.001	4.0	NoResponse	-1	0.194	n/a	1	62	ButtonPress	Loss	True
592.368	1.45	Lose2	0.6507999999999999	n/a	No	2.881	n/a	5.0	NoResponse	-1	0.042	591.41	1	62	Feedback	Loss	True
593.817	2.881	Lose2	0.6507999999999999	n/a	No	2.881	n/a	4.0	NoResponse	-1	2.563	n/a	1	62	ISIslide	Loss	True
596.699	0.25	Lose2	0.6406000000000001	0.001	No	2.651	-0.001	n/a	NoResponse	-1	n/a	n/a	0	63	Cue	Loss	True
596.949	4.05	Lose2	0.6406000000000001	0.0	No	2.651	0.0	n/a	NoResponse	-1	n/a	n/a	0	63	Fixation	Loss	True
600.998	0.19	Lose2	0.6406000000000001	0.001	No	2.651	-0.001	4.0	NoResponse	-1	0.214	600.212	0	63	Target	Loss	True
601.198	0.51	Lose2	0.6406000000000001	n/a	No	2.651	n/a	n/a	NoResponse	-1	n/a	n/a	0	63	Blank	Loss	True
601.212	0.3	Lose2	0.6406000000000001	0.001	No	2.651	-0.001	4.0	NoResponse	-1	0.214	n/a	0	63	ButtonPress	Loss	True
601.698	1.45	Lose2	0.6406000000000001	n/a	No	2.651	n/a	5.0	NoResponse	-1	0.029	600.727	0	63	Feedback	Loss	True
603.147	2.651	Lose2	0.6406000000000001	n/a	No	2.651	n/a	n/a	NoResponse	-1	0.0	n/a	0	63	ISIslide	Loss	True
605.83	0.25	Win2	0.6462	0.0	Yes	3.12	0.03	n/a	GoodResponse	1	n/a	n/a	1	64	Cue	Win	True
606.079	4.15	Win2	0.6462	0.001	Yes	3.12	-0.001	n/a	GoodResponse	1	n/a	n/a	1	64	Fixation	Win	True
610.228	0.2	Win2	0.6462	0.002	Yes	3.12	-0.002	4.0	GoodResponse	1	0.174	609.402	1	64	Target	Win	True
610.402	0.3	Win2	0.6462	0.002	Yes	3.12	-0.002	4.0	GoodResponse	1	0.174	n/a	1	64	ButtonPress	Win	True
610.428	0.5	Win2	0.6462	n/a	Yes	3.12	n/a	n/a	GoodResponse	1	n/a	n/a	1	64	Blank	Win	True
610.928	1.45	Win2	0.6462	n/a	Yes	3.12	n/a	5.0	GoodResponse	1	0.018	609.946	1	64	Feedback	Win	True
612.377	3.12	Win2	0.6462	n/a	Yes	3.12	n/a	n/a	GoodResponse	1	0.0	n/a	1	64	ISIslide	Win	True
615.526	0.25	Control	0.6515000000000001	0.0	Yes	2.774	0.026	n/a	GoodResponse	0	n/a	n/a	1	65	Cue	Neutral	True
615.776	4.0	Control	0.6515000000000001	0.0	Yes	2.774	0.0	n/a	GoodResponse	0	n/a	n/a	1	65	Fixation	Neutral	True
619.775	0.21	Control	0.6515000000000001	0.001	Yes	2.774	-0.001	4.0	GoodResponse	0	0.207	618.982	1	65	Target	Neutral	True
619.982	0.3	Control	0.6515000000000001	0.001	Yes	2.774	-0.001	4.0	GoodResponse	0	0.207	n/a	1	65	ButtonPress	Neutral	True
619.991	0.49	Control	0.6515000000000001	n/a	Yes	2.774	n/a	n/a	GoodResponse	0	n/a	n/a	1	65	Blank	Neutral	True
620.474	1.45	Control	0.6515000000000001	n/a	Yes	2.774	n/a	5.0	GoodResponse	0	0.033	619.507	1	65	Feedback	Neutral	True
621.924	2.774	Control	0.6515000000000001	n/a	Yes	2.774	n/a	n/a	GoodResponse	0	0.0	n/a	1	65	ISIslide	Neutral	True
624.723	0.25	Win2	0.6418	0.0	No	2.777	0.023	n/a	LatePress	0	n/a	n/a	1	66	Cue	MissedWin	True
624.973	3.9	Win2	0.6418	0.0	No	2.777	0.0	n/a	LatePress	0	n/a	n/a	1	66	Fixation	MissedWin	True
628.872	0.22	Win2	0.6418	0.001	No	2.777	-0.001	4.0	LatePress	0	0.22	628.092	1	66	Target	MissedWin	True
629.092	0.3	Win2	0.6418	0.001	No	2.777	-0.001	4.0	LatePress	0	0.22	n/a	1	66	ButtonPress	MissedWin	True
629.105	0.48	Win2	0.6418	n/a	No	2.777	n/a	n/a	LatePress	0	n/a	n/a	1	66	Blank	MissedWin	True
629.571	1.45	Win2	0.6418	n/a	No	2.777	n/a	5.0	LatePress	0	0.009	628.58	1	66	Feedback	MissedWin	True
631.021	2.777	Win2	0.6418	n/a	No	2.777	n/a	n/a	LatePress	0	0.0	n/a	1	66	ISIslide	MissedWin	True
633.82	0.25	Control	0.6470999999999999	0.0	Yes	2.73	0.02	n/a	GoodResponse	0	n/a	n/a	1	67	Cue	Neutral	True
634.07	3.95	Control	0.6470999999999999	0.0	Yes	2.73	0.0	n/a	GoodResponse	0	n/a	n/a	1	67	Fixation	Neutral	True
638.018	0.23	Control	0.6470999999999999	0.002	Yes	2.73	-0.002	4.0	GoodResponse	0	0.194	637.212	1	67	Target	Neutral	True
638.212	0.3	Control	0.6470999999999999	0.002	Yes	2.73	-0.002	4.0	GoodResponse	0	0.194	n/a	1	67	ButtonPress	Neutral	True
638.252	0.47	Control	0.6470999999999999	n/a	Yes	2.73	n/a	n/a	GoodResponse	0	n/a	n/a	1	67	Blank	Neutral	True
638.718	1.45	Control	0.6470999999999999	n/a	Yes	2.73	n/a	5.0	GoodResponse	0	0.033	637.751	1	67	Feedback	Neutral	True
640.168	2.73	Control	0.6470999999999999	n/a	Yes	2.73	n/a	n/a	GoodResponse	0	0.0	n/a	1	67	ISIslide	Neutral	True
642.917	0.25	Win2	0.6522	0.0	Yes	3.083	0.017	n/a	GoodResponse	1	n/a	n/a	2	68	Cue	Win	True
643.167	4.0	Win2	0.6522	0.0	Yes	3.083	0.0	n/a	GoodResponse	1	n/a	n/a	2	68	Fixation	Win	True
647.165	0.24	Win2	0.6522	0.002	Yes	3.083	-0.002	4.0	GoodResponse	1	0.171	646.336	2	68	Target	Win	True
647.336	0.3	Win2	0.6522	0.002	Yes	3.083	-0.002	4.0	GoodResponse	1	0.171	n/a	2	68	ButtonPress	Win	True
647.415	0.46	Win2	0.6522	n/a	Yes	3.083	n/a	n/a	GoodResponse	1	n/a	n/a	2	68	Blank	Win	True
647.865	1.45	Win2	0.6522	n/a	Yes	3.083	n/a	5.0	GoodResponse	1	0.008	646.873	2	68	Feedback	Win	True
649.314	3.083	Win2	0.6522	n/a	Yes	3.083	n/a	n/a	GoodResponse	1	0.0	n/a	2	68	ISIslide	Win	True
652.413	0.25	Win2	0.6570999999999999	0.0	Yes	3.237	0.013	n/a	GoodResponse	1	n/a	n/a	3	69	Cue	Win	True
652.663	3.95	Win2	0.6570999999999999	0.0	Yes	3.237	0.0	n/a	GoodResponse	1	n/a	n/a	3	69	Fixation	Win	True
656.612	0.25	Win2	0.6570999999999999	0.001	Yes	3.237	-0.001	4.0	GoodResponse	1	0.21	655.822	3	69	Target	Win	True
656.822	0.3	Win2	0.6570999999999999	0.001	Yes	3.237	-0.001	4.0	GoodResponse	1	0.21	n/a	3	69	ButtonPress	Win	True
656.862	0.45	Win2	0.6570999999999999	n/a	Yes	3.237	n/a	n/a	GoodResponse	1	n/a	n/a	3	69	Blank	Win	True
657.312	1.45	Win2	0.6570999999999999	n/a	Yes	3.237	n/a	5.0	GoodResponse	1	0.025	656.337	3	69	Feedback	Win	True
658.761	3.237	Win2	0.6570999999999999	n/a	Yes	3.237	n/a	n/a	GoodResponse	1	0.0	n/a	3	69	ISIslide	Win	True
662.027	0.25	Lose2	0.662	0.0	Yes	3.023	0.027	n/a	GoodResponse	0	n/a	n/a	3	70	Cue	AvoidedLoss	True
662.277	4.05	Lose2	0.662	0.0	Yes	3.023	0.0	n/a	GoodResponse	0	n/a	n/a	3	70	Fixation	AvoidedLoss	True
666.325	0.25	Lose2	0.662	0.002	Yes	3.023	-0.002	4.0	GoodResponse	0	0.191	665.516	3	70	Target	AvoidedLoss	True
666.516	0.3	Lose2	0.662	0.002	Yes	3.023	-0.002	4.0	GoodResponse	0	0.191	n/a	3	70	ButtonPress	AvoidedLoss	True
666.575	0.45	Lose2	0.662	n/a	Yes	3.023	n/a	n/a	GoodResponse	0	n/a	n/a	3	70	Blank	AvoidedLoss	True
667.025	1.45	Lose2	0.662	n/a	Yes	3.023	n/a	5.0	GoodResponse	0	0.018	666.043	3	70	Feedback	AvoidedLoss	True
668.474	3.023	Lose2	0.662	n/a	Yes	3.023	n/a	n/a	GoodResponse	0	0.0	n/a	3	70	ISIslide	AvoidedLoss	True
671.523	0.25	Win2	0.6667000000000001	0.0	Yes	2.727	0.023	n/a	GoodResponse	1	n/a	n/a	4	71	Cue	Win	True
671.773	4.05	Win2	0.6667000000000001	0.0	Yes	2.727	0.0	n/a	GoodResponse	1	n/a	n/a	4	71	Fixation	Win	True
675.822	0.25	Win2	0.6667000000000001	0.001	Yes	2.727	-0.001	4.0	GoodResponse	1	0.182	675.004	4	71	Target	Win	True
676.004	0.3	Win2	0.6667000000000001	0.001	Yes	2.727	-0.001	4.0	GoodResponse	1	0.182	n/a	4	71	ButtonPress	Win	True
676.072	0.45	Win2	0.6667000000000001	n/a	Yes	2.727	n/a	n/a	GoodResponse	1	n/a	n/a	4	71	Blank	Win	True
676.522	1.45	Win2	0.6667000000000001	n/a	Yes	2.727	n/a	5.0	GoodResponse	1	0.034	675.556	4	71	Feedback	Win	True
677.971	2.727	Win2	0.6667000000000001	n/a	Yes	2.727	n/a	n/a	GoodResponse	1	0.0	n/a	4	71	ISIslide	Win	True
680.72	0.25	Win2	0.6712	0.0	Yes	2.78	0.02	n/a	GoodResponse	1	n/a	n/a	5	72	Cue	Win	True
680.97	4.1	Win2	0.6712	0.0	Yes	2.78	0.0	n/a	GoodResponse	1	n/a	n/a	5	72	Fixation	Win	True
685.069	0.24	Win2	0.6712	0.001	Yes	2.78	-0.001	4.0	GoodResponse	1	0.2	684.269	5	72	Target	Win	True
685.269	0.3	Win2	0.6712	0.001	Yes	2.78	-0.001	4.0	GoodResponse	1	0.2	n/a	5	72	ButtonPress	Win	True
685.319	0.46	Win2	0.6712	n/a	Yes	2.78	n/a	n/a	GoodResponse	1	n/a	n/a	5	72	Blank	Win	True
685.768	1.45	Win2	0.6712	n/a	Yes	2.78	n/a	5.0	GoodResponse	1	0.007	684.775	5	72	Feedback	Win	True
687.218	2.78	Win2	0.6712	n/a	Yes	2.78	n/a	n/a	GoodResponse	1	0.0	n/a	5	72	ISIslide	Win	True
690.017	0.25	Win2	0.6757	0.0	Yes	2.683	0.017	n/a	GoodResponse	1	n/a	n/a	6	73	Cue	Win	True
690.267	4.0	Win2	0.6757	0.0	Yes	2.683	0.0	n/a	GoodResponse	1	n/a	n/a	6	73	Fixation	Win	True
694.265	0.23	Win2	0.6757	0.002	Yes	2.683	-0.002	4.0	GoodResponse	1	0.186	693.451	6	73	Target	Win	True
694.451	0.3	Win2	0.6757	0.002	Yes	2.683	-0.002	4.0	GoodResponse	1	0.186	n/a	6	73	ButtonPress	Win	True
694.499	0.47	Win2	0.6757	n/a	Yes	2.683	n/a	n/a	GoodResponse	1	n/a	n/a	6	73	Blank	Win	True
694.965	1.45	Win2	0.6757	n/a	Yes	2.683	n/a	5.0	GoodResponse	1	0.03	693.995	6	73	Feedback	Win	True
696.415	2.683	Win2	0.6757	n/a	Yes	2.683	n/a	n/a	GoodResponse	1	0.0	n/a	6	73	ISIslide	Win	True
699.114	0.25	Lose2	0.68	0.0	Yes	2.636	0.014	n/a	GoodResponse	0	n/a	n/a	6	74	Cue	AvoidedLoss	True
699.364	4.05	Lose2	0.68	0.0	Yes	2.636	0.0	n/a	GoodResponse	0	n/a	n/a	6	74	Fixation	AvoidedLoss	True
703.412	0.22	Lose2	0.68	0.002	Yes	2.636	-0.002	4.0	GoodResponse	0	0.212	702.624	6	74	Target	AvoidedLoss	True
703.624	0.3	Lose2	0.68	0.002	Yes	2.636	-0.002	4.0	GoodResponse	0	0.212	n/a	6	74	ButtonPress	AvoidedLoss	True
703.645	0.48	Lose2	0.68	n/a	Yes	2.636	n/a	n/a	GoodResponse	0	n/a	n/a	6	74	Blank	AvoidedLoss	True
704.112	1.45	Lose2	0.68	n/a	Yes	2.636	n/a	5.0	GoodResponse	0	0.007	703.119	6	74	Feedback	AvoidedLoss	True
705.561	2.636	Lose2	0.68	n/a	Yes	2.636	n/a	n/a	GoodResponse	0	0.0	n/a	6	74	ISIslide	AvoidedLoss	True
708.227	0.25	Lose2	0.6842	0.0	Yes	2.923	0.027	n/a	GoodResponse	0	n/a	n/a	6	75	Cue	AvoidedLoss	True
708.477	3.95	Lose2	0.6842	0.0	Yes	2.923	0.0	n/a	GoodResponse	0	n/a	n/a	6	75	Fixation	AvoidedLoss	True
712.426	0.21	Lose2	0.6842	0.001	Yes	2.923	-0.001	4.0	GoodResponse	0	0.207	711.633	6	75	Target	AvoidedLoss	True
712.633	0.3	Lose2	0.6842	0.001	Yes	2.923	-0.001	4.0	GoodResponse	0	0.207	n/a	6	75	ButtonPress	AvoidedLoss	True
712.642	0.49	Lose2	0.6842	n/a	Yes	2.923	n/a	n/a	GoodResponse	0	n/a	n/a	6	75	Blank	AvoidedLoss	True
713.125	1.45	Lose2	0.6842	n/a	Yes	2.923	n/a	5.0	GoodResponse	0	0.016	712.141	6	75	Feedback	AvoidedLoss	True
714.575	2.923	Lose2	0.6842	n/a	Yes	2.923	n/a	n/a	GoodResponse	0	0.0	n/a	6	75	ISIslide	AvoidedLoss	True
717.524	0.25	Control	0.6883	0.0	Yes	3.226	0.024	n/a	GoodResponse	0	n/a	n/a	6	76	Cue	Neutral	True
717.774	4.05	Control	0.6883	0.0	Yes	3.226	0.0	n/a	GoodResponse	0	n/a	n/a	6	76	Fixation	Neutral	True
721.822	0.2	Control	0.6883	0.002	Yes	3.226	-0.002	4.0	GoodResponse	0	0.181	721.003	6	76	Target	Neutral	True
722.003	0.3	Control	0.6883	0.002	Yes	3.226	-0.002	4.0	GoodResponse	0	0.181	n/a	6	76	ButtonPress	Neutral	True
722.022	0.5	Control	0.6883	n/a	Yes	3.226	n/a	n/a	GoodResponse	0	n/a	n/a	6	76	Blank	Neutral	True
722.522	1.45	Control	0.6883	n/a	Yes	3.226	n/a	5.0	GoodResponse	0	0.033	721.555	6	76	Feedback	Neutral	True
723.972	3.226	Control	0.6883	n/a	Yes	3.226	n/a	n/a	GoodResponse	0	0.0	n/a	6	76	ISIslide	Neutral	True
727.221	0.25	Lose2	0.6923	0.0	Yes	2.579	0.021	n/a	GoodResponse	0	n/a	n/a	6	77	Cue	AvoidedLoss	True
727.47	3.95	Lose2	0.6923	0.001	Yes	2.579	-0.001	n/a	GoodResponse	0	n/a	n/a	6	77	Fixation	AvoidedLoss	True
731.419	0.19	Lose2	0.6923	0.002	Yes	2.579	-0.002	4.0	GoodResponse	0	0.182	730.601	6	77	Target	AvoidedLoss	True
731.601	0.3	Lose2	0.6923	0.002	Yes	2.579	-0.002	4.0	GoodResponse	0	0.182	n/a	6	77	ButtonPress	AvoidedLoss	True
731.619	0.51	Lose2	0.6923	n/a	Yes	2.579	n/a	n/a	GoodResponse	0	n/a	n/a	6	77	Blank	AvoidedLoss	True
732.119	1.45	Lose2	0.6923	n/a	Yes	2.579	n/a	5.0	GoodResponse	0	0.046	731.165	6	77	Feedback	AvoidedLoss	True
733.568	2.579	Lose2	0.6923	n/a	Yes	2.579	n/a	n/a	GoodResponse	0	0.0	n/a	6	77	ISIslide	AvoidedLoss	True
