onset	duration	cue_type	current_mean_accuracy	duration_error	is_hit	isi_adjusted	onset_delay	response	response_type	reward	rt	rt_time	total_reward	trial_number	trial_phase	trial_type	one_press
11.109	0.25	Control	1.0	0.0	Yes	2.941	0.009	n/a	GoodResponse	0	n/a	n/a	0	0	Cue	Neutral	True
11.359	3.85	Control	1.0	0.0	Yes	2.941	0.0	n/a	GoodResponse	0	n/a	n/a	0	0	Fixation	Neutral	True
15.207	0.4	Control	1.0	0.002	Yes	2.941	-0.002	4.0	GoodResponse	0	0.247	14.454	0	0	Target	Neutral	True
15.454	0.3	Control	1.0	0.002	Yes	2.941	-0.002	4.0	GoodResponse	0	0.247	n/a	0	0	ButtonPress	Neutral	True
15.607	0.3	Control	1.0	n/a	Yes	2.941	n/a	n/a	GoodResponse	0	n/a	n/a	0	0	Blank	Neutral	True
15.907	1.45	Control	1.0	n/a	Yes	2.941	n/a	5.0	GoodResponse	0	0.018	14.925	0	0	Feedback	Neutral	True
17.357	2.941	Control	1.0	n/a	Yes	2.941	n/a	4.0	GoodResponse	0	0.452	n/a	0	0	ISIslide	Neutral	True
20.306	0.25	Lose2	1.0	0.0	Yes	2.794	0.006	n/a	GoodResponse	0	n/a	n/a	0	1	Cue	AvoidedLoss	True
20.555	4.0	Lose2	1.0	0.001	Yes	2.794	-0.001	n/a	GoodResponse	0	n/a	n/a	0	1	Fixation	AvoidedLoss	True
24.554	0.39	Lose2	1.0	0.002	Yes	2.794	-0.002	4.0	GoodResponse	0	0.213	23.767	0	1	Target	AvoidedLoss	True
24.767	0.3	Lose2	1.0	0.002	Yes	2.794	-0.002	4.0	GoodResponse	0	0.213	n/a	0	1	ButtonPress	AvoidedLoss	True
24.954	0.31	Lose2	1.0	n/a	Yes	2.794	n/a	n/a	GoodResponse	0	n/a	n/a	0	1	Blank	AvoidedLoss	True
25.254	1.45	Lose2	1.0	n/a	Yes	2.794	n/a	5.0	GoodResponse	0	0.037	24.291	0	1	Feedback	AvoidedLoss	True
26.703	2.794	Lose2	1.0	n/a	Yes	2.794	n/a	n/a	GoodResponse	0	0.0	n/a	0	1	ISIslide	AvoidedLoss	True
29.519	0.25	Control	1.0	0.0	Yes	2.581	0.019	n/a	GoodResponse	0	n/a	n/a	0	2	Cue	Neutral	True
29.769	4.1	Control	1.0	0.0	Yes	2.581	0.0	n/a	GoodResponse	0	n/a	n/a	0	2	Fixation	Neutral	True
33.867	0.38	Control	1.0	0.002	Yes	2.581	-0.002	4.0	GoodResponse	0	0.197	33.064	0	2	Target	Neutral	True
34.064	0.3	Control	1.0	0.002	Yes	2.581	-0.002	4.0	GoodResponse	0	0.197	n/a	0	2	ButtonPress	Neutral	True
34.251	0.32	Control	1.0	n/a	Yes	2.581	n/a	n/a	GoodResponse	0	n/a	n/a	0	2	Blank	Neutral	True
34.567	1.45	Control	1.0	n/a	Yes	2.581	n/a	5.0	GoodResponse	0	0.042	33.609	0	2	Feedback	Neutral	True
36.017	2.581	Control	1.0	n/a	Yes	2.581	n/a	n/a	GoodResponse	0	0.0	n/a	0	2	ISIslide	Neutral	True
38.616	0.25	Win2	1.0	0.0	Yes	2.834	0.016	n/a	GoodResponse	1	n/a	n/a	1	3	Cue	Win	True
38.866	3.95	Win2	1.0	0.0	Yes	2.834	0.0	n/a	GoodResponse	1	n/a	n/a	1	3	Fixation	Win	True
42.814	0.37	Win2	1.0	0.002	Yes	2.834	-0.002	4.0	GoodResponse	1	0.227	42.041	1	3	Target	Win	True
43.041	0.3	Win2	1.0	0.002	Yes	2.834	-0.002	4.0	GoodResponse	1	0.227	n/a	1	3	ButtonPress	Win	True
43.198	0.33	Win2	1.0	n/a	Yes	2.834	n/a	n/a	GoodResponse	1	n/a	n/a	1	3	Blank	Win	True
43.514	1.45	Win2	1.0	n/a	Yes	2.834	n/a	5.0	GoodResponse	1	0.022	42.536	1	3	Feedback	Win	True
44.964	2.834	Win2	1.0	n/a	Yes	2.834	n/a	n/a	GoodResponse	1	0.0	n/a	1	3	ISIslide	Win	True
47.829	0.25	Win2	1.0	0.0	Yes	3.271	0.029	n/a	GoodResponse	1	n/a	n/a	2	4	Cue	Win	True
48.079	4.0	Win2	1.0	0.0	Yes	3.271	0.0	n/a	GoodResponse	1	n/a	n/a	2	4	Fixation	Win	True
52.078	0.36	Win2	1.0	0.001	Yes	3.271	-0.001	4.0	GoodResponse	1	0.211	51.289	2	4	Target	Win	True
52.289	0.3	Win2	1.0	0.001	Yes	3.271	-0.001	4.0	GoodResponse	1	0.211	n/a	2	4	ButtonPress	Win	True
52.444	0.34	Win2	1.0	n/a	Yes	3.271	n/a	n/a	GoodResponse	1	n/a	n/a	2	4	Blank	Win	True
52.778	1.45	Win2	1.0	n/a	Yes	3.271	n/a	5.0	GoodResponse	1	0.025	51.803	2	4	Feedback	Win	True
54.227	3.271	Win2	1.0	n/a	Yes	3.271	n/a	n/a	GoodResponse	1	0.0	n/a	2	4	ISIslide	Win	True
57.526	0.25	Win2	1.0	0.0	Yes	2.774	0.026	n/a	GoodResponse	1	n/a	n/a	3	5	Cue	Win	True
57.776	4.0	Win2	1.0	0.0	Yes	2.774	0.0	n/a	GoodResponse	1	n/a	n/a	3	5	Fixation	Win	True
61.774	0.35	Win2	1.0	0.002	Yes	2.774	-0.002	4.0	GoodResponse	1	0.191	60.965	3	5	Target	Win	True
61.965	0.3	Win2	1.0	0.002	Yes	2.774	-0.002	4.0	GoodResponse	1	0.191	n/a	3	5	ButtonPress	Win	True
62.124	0.35	Win2	1.0	n/a	Yes	2.774	n/a	n/a	GoodResponse	1	n/a	n/a	3	5	Blank	Win	True
62.474	1.45	Win2	1.0	n/a	Yes	2.774	n/a	5.0	GoodResponse	1	0.036	61.51	3	5	Feedback	Win	True
63.924	2.774	Win2	1.0	n/a	Yes	2.774	n/a	n/a	GoodResponse	1	0.0	n/a	3	5	ISIslide	Win	True
66.723	0.25	Lose2	1.0	0.0	Yes	2.727	0.023	n/a	GoodResponse	0	n/a	n/a	3	6	Cue	AvoidedLoss	True
66.973	3.95	Lose2	1.0	0.0	Yes	2.727	0.0	n/a	GoodResponse	0	n/a	n/a	3	6	Fixation	AvoidedLoss	True
70.921	0.34	Lose2	1.0	0.002	Yes	2.727	-0.002	4.0	GoodResponse	0	0.215	70.136	3	6	Target	AvoidedLoss	True
71.136	0.3	Lose2	1.0	0.002	Yes	2.727	-0.002	4.0	GoodResponse	0	0.215	n/a	3	6	ButtonPress	AvoidedLoss	True
71.271	0.36	Lose2	1.0	n/a	Yes	2.727	n/a	n/a	GoodResponse	0	n/a	n/a	3	6	Blank	AvoidedLoss	True
71.621	1.45	Lose2	1.0	n/a	Yes	2.727	n/a	5.0	GoodResponse	0	0.011	70.632	3	6	Feedback	AvoidedLoss	True
73.07	2.727	Lose2	1.0	n/a	Yes	2.727	n/a	n/a	GoodResponse	0	0.0	n/a	3	6	ISIslide	AvoidedLoss	True
75.819	0.25	Lose2	1.0	0.001	Yes	4.031	0.019	n/a	GoodResponse	0	n/a	n/a	3	7	Cue	AvoidedLoss	True
76.069	4.05	Lose2	1.0	0.0	Yes	4.031	0.0	n/a	GoodResponse	0	n/a	n/a	3	7	Fixation	AvoidedLoss	True
80.118	0.33	Lose2	1.0	0.001	Yes	4.031	-0.001	4.0	GoodResponse	0	0.191	79.309	3	7	Target	AvoidedLoss	True
80.309	0.3	Lose2	1.0	0.001	Yes	4.031	-0.001	4.0	GoodResponse	0	0.191	n/a	3	7	ButtonPress	AvoidedLoss	True
80.451	0.37	Lose2	1.0	n/a	Yes	4.031	n/a	n/a	GoodResponse	0	n/a	n/a	3	7	Blank	AvoidedLoss	True
80.818	1.45	Lose2	1.0	n/a	Yes	4.031	n/a	5.0	GoodResponse	0	0.034	79.852	3	7	Feedback	AvoidedLoss	True
82.267	4.031	Lose2	1.0	n/a	Yes	4.031	n/a	n/a	GoodResponse	0	0.0	n/a	3	7	ISIslide	AvoidedLoss	True
86.316	0.25	Lose2	1.0	0.0	Yes	3.034	0.016	n/a	GoodResponse	0	n/a	n/a	3	8	Cue	AvoidedLoss	True
86.566	3.95	Lose2	1.0	0.0	Yes	3.034	0.0	n/a	GoodResponse	0	n/a	n/a	3	8	Fixation	AvoidedLoss	True
90.514	0.32	Lose2	1.0	0.002	Yes	3.034	-0.002	4.0	GoodResponse	0	0.244	89.758	3	8	Target	AvoidedLoss	True
90.758	0.3	Lose2	1.0	0.002	Yes	3.034	-0.002	4.0	GoodResponse	0	0.244	n/a	3	8	ButtonPress	AvoidedLoss	True
90.848	0.38	Lose2	1.0	n/a	Yes	3.034	n/a	n/a	GoodResponse	0	n/a	n/a	3	8	Blank	AvoidedLoss	True
91.214	1.45	Lose2	1.0	n/a	Yes	3.034	n/a	5.0	GoodResponse	0	0.029	90.243	3	8	Feedback	AvoidedLoss	True
92.664	3.034	Lose2	1.0	n/a	Yes	3.034	n/a	n/a	GoodResponse	0	0.0	n/a	3	8	ISIslide	AvoidedLoss	True
95.729	0.25	Lose2	1.0	0.0	Yes	3.121	0.029	n/a	GoodResponse	0	n/a	n/a	3	9	Cue	AvoidedLoss	True
95.979	3.95	Lose2	1.0	0.0	Yes	3.121	0.0	n/a	GoodResponse	0	n/a	n/a	3	9	Fixation	AvoidedLoss	True
99.928	0.31	Lose2	1.0	0.001	Yes	3.121	-0.001	4.0	GoodResponse	0	0.179	99.107	3	9	Target	AvoidedLoss	True
100.107	0.3	Lose2	1.0	0.001	Yes	3.121	-0.001	4.0	GoodResponse	0	0.179	n/a	3	9	ButtonPress	AvoidedLoss	True
100.244	0.39	Lose2	1.0	n/a	Yes	3.121	n/a	n/a	GoodResponse	0	n/a	n/a	3	9	Blank	AvoidedLoss	True
100.628	1.45	Lose2	1.0	n/a	Yes	3.121	n/a	5.0	GoodResponse	0	0.028	99.656	3	9	Feedback	AvoidedLoss	True
102.077	3.121	Lose2	1.0	n/a	Yes	3.121	n/a	n/a	GoodResponse	0	0.0	n/a	3	9	ISIslide	AvoidedLoss	True
105.226	0.25	Control	1.0	0.0	Yes	3.274	0.026	n/a	GoodResponse	0	n/a	n/a	3	10	Cue	Neutral	True
105.476	4.0	Control	1.0	0.0	Yes	3.274	0.0	n/a	GoodResponse	0	n/a	n/a	3	10	Fixation	Neutral	True
109.474	0.3	Control	1.0	0.002	Yes	3.274	-0.002	4.0	GoodResponse	0	0.214	108.688	3	10	Target	Neutral	True
109.688	0.3	Control	1.0	0.002	Yes	3.274	-0.002	4.0	GoodResponse	0	0.214	n/a	3	10	ButtonPress	Neutral	True
109.774	0.4	Control	1.0	n/a	Yes	3.274	n/a	n/a	GoodResponse	0	n/a	n/a	3	10	Blank	Neutral	True
110.174	1.45	Control	1.0	n/a	Yes	3.274	n/a	5.0	GoodResponse	0	0.043	109.217	3	10	Feedback	Neutral	True
111.624	3.274	Control	1.0	n/a	Yes	3.274	n/a	n/a	GoodResponse	0	0.0	n/a	3	10	ISIslide	Neutral	True
114.923	0.25	Lose2	1.0	0.0	Yes	2.727	0.023	n/a	GoodResponse	0	n/a	n/a	3	11	Cue	AvoidedLoss	True
115.172	4.05	Lose2	1.0	0.001	Yes	2.727	-0.001	n/a	GoodResponse	0	n/a	n/a	3	11	Fixation	AvoidedLoss	True
119.221	0.29	Lose2	1.0	0.002	Yes	2.727	-0.002	4.0	GoodResponse	0	0.203	118.424	3	11	Target	AvoidedLoss	True
119.424	0.3	Lose2	1.0	0.002	Yes	2.727	-0.002	4.0	GoodResponse	0	0.203	n/a	3	11	ButtonPress	AvoidedLoss	True
119.521	0.41	Lose2	1.0	n/a	Yes	2.727	n/a	n/a	GoodResponse	0	n/a	n/a	3	11	Blank	AvoidedLoss	True
119.921	1.45	Lose2	1.0	n/a	Yes	2.727	n/a	5.0	GoodResponse	0	0.007	118.928	3	11	Feedback	AvoidedLoss	True
121.37	2.727	Lose2	1.0	n/a	Yes	2.727	n/a	n/a	GoodResponse	0	0.0	n/a	3	11	ISIslide	AvoidedLoss	True
124.119	0.25	Control	1.0	0.0	Yes	2.981	0.019	n/a	GoodResponse	0	n/a	n/a	3	12	Cue	Neutral	True
124.369	3.9	Control	1.0	0.0	Yes	2.981	0.0	n/a	GoodResponse	0	n/a	n/a	3	12	Fixation	Neutral	True
128.268	0.28	Control	1.0	0.001	Yes	2.981	-0.001	4.0	GoodResponse	0	0.203	127.471	3	12	Target	Neutral	True
128.471	0.3	Control	1.0	0.001	Yes	2.981	-0.001	4.0	GoodResponse	0	0.203	n/a	3	12	ButtonPress	Neutral	True
128.551	0.42	Control	1.0	n/a	Yes	2.981	n/a	n/a	GoodResponse	0	n/a	n/a	3	12	Blank	Neutral	True
128.968	1.45	Control	1.0	n/a	Yes	2.981	n/a	5.0	GoodResponse	0	0.03	127.998	3	12	Feedback	Neutral	True
130.417	2.981	Control	1.0	n/a	Yes	2.981	n/a	n/a	GoodResponse	0	0.0	n/a	3	12	ISIslide	Neutral	True
133.416	0.25	Control	1.0	0.0	Yes	2.784	0.016	n/a	GoodResponse	0	n/a	n/a	3	13	Cue	Neutral	True
133.666	4.0	Control	1.0	0.0	Yes	2.784	0.0	n/a	GoodResponse	0	n/a	n/a	3	13	Fixation	Neutral	True
137.665	0.27	Control	1.0	0.001	Yes	2.784	-0.001	4.0	GoodResponse	0	0.213	136.878	3	13	Target	Neutral	True
137.878	0.3	Control	1.0	0.001	Yes	2.784	-0.001	4.0	GoodResponse	0	0.213	n/a	3	13	ButtonPress	Neutral	True
137.948	0.43	Control	1.0	n/a	Yes	2.784	n/a	n/a	GoodResponse	0	n/a	n/a	3	13	Blank	Neutral	True
138.364	1.45	Control	1.0	n/a	Yes	2.784	n/a	5.0	GoodResponse	0	0.049	137.413	3	13	Feedback	Neutral	True
139.814	2.784	Control	1.0	n/a	Yes	2.784	n/a	n/a	GoodResponse	0	0.0	n/a	3	13	ISIslide	Neutral	True
142.629	0.25	Win2	0.9333	0.001	No	2.671	0.029	n/a	LatePress	0	n/a	n/a	3	14	Cue	MissedWin	True
142.879	4.1	Win2	0.9333	0.001	No	2.671	0.0	n/a	LatePress	0	n/a	n/a	3	14	Fixation	MissedWin	True
146.978	0.26	Win2	0.9333	0.001	No	2.671	-0.001	4.0	LatePress	0	0.26	146.238	3	14	Target	MissedWin	True
147.238	0.3	Win2	0.9333	0.001	No	2.671	-0.001	4.0	LatePress	0	0.26	n/a	3	14	ButtonPress	MissedWin	True
147.245	0.44	Win2	0.9333	n/a	No	2.671	n/a	n/a	LatePress	0	n/a	n/a	3	14	Blank	MissedWin	True
147.678	1.45	Win2	0.9333	n/a	No	2.671	n/a	5.0	LatePress	0	0.006	146.684	3	14	Feedback	MissedWin	True
149.127	2.671	Win2	0.9333	n/a	No	2.671	n/a	n/a	LatePress	0	0.0	n/a	3	14	ISIslide	MissedWin	True
151.826	0.25	Control	0.9375	0.0	Yes	2.974	0.026	n/a	GoodResponse	0	n/a	n/a	3	15	Cue	Neutral	True
152.076	4.0	Control	0.9375	0.0	Yes	2.974	0.0	n/a	GoodResponse	0	n/a	n/a	3	15	Fixation	Neutral	True
156.075	0.25	Control	0.9375	0.001	Yes	2.974	-0.001	4.0	GoodResponse	0	0.218	155.293	3	15	Target	Neutral	True
156.293	0.3	Control	0.9375	0.001	Yes	2.974	-0.001	4.0	GoodResponse	0	0.218	n/a	3	15	ButtonPress	Neutral	True
156.325	0.45	Control	0.9375	n/a	Yes	2.974	n/a	n/a	GoodResponse	0	n/a	n/a	3	15	Blank	Neutral	True
156.775	1.45	Control	0.9375	n/a	Yes	2.974	n/a	5.0	GoodResponse	0	0.027	155.802	3	15	Feedback	Neutral	True
158.224	2.974	Control	0.9375	n/a	Yes	2.974	n/a	n/a	GoodResponse	0	0.0	n/a	3	15	ISIslide	Neutral	True
161.223	0.25	Win2	0.8824	0.0	No	2.877	0.023	n/a	PrematurePress	0	n/a	n/a	3	16	Cue	MissedWin	True
161.473	4.0	Win2	0.8824	0.0	No	2.877	0.0	n/a	PrematurePress	0	n/a	n/a	3	16	Fixation	MissedWin	True
165.472	0.24	Win2	0.8824	0.001	No	2.877	-0.001	4.0	PrematurePress	0	0.063	164.535	3	16	Target	MissedWin	True
165.535	0.3	Win2	0.8824	0.001	No	2.877	-0.001	4.0	PrematurePress	0	0.063	n/a	3	16	ButtonPress	MissedWin	True
165.721	0.46	Win2	0.8824	n/a	No	2.877	n/a	n/a	PrematurePress	0	n/a	n/a	3	16	Blank	MissedWin	True
166.171	1.45	Win2	0.8824	n/a	No	2.877	n/a	5.0	PrematurePress	0	0.046	165.217	3	16	Feedback	MissedWin	True
167.621	2.877	Win2	0.8824	n/a	No	2.877	n/a	n/a	PrematurePress	0	0.0	n/a	3	16	ISIslide	MissedWin	True
170.52	0.25	Lose2	0.8889	0.0	Yes	2.73	0.02	n/a	GoodResponse	0	n/a	n/a	3	17	Cue	AvoidedLoss	True
170.77	3.95	Lose2	0.8889	0.0	Yes	2.73	0.0	n/a	GoodResponse	0	n/a	n/a	3	17	Fixation	AvoidedLoss	True
174.718	0.23	Lose2	0.8889	0.002	Yes	2.73	-0.002	4.0	GoodResponse	0	0.18	173.898	3	17	Target	AvoidedLoss	True
174.898	0.3	Lose2	0.8889	0.002	Yes	2.73	-0.002	4.0	GoodResponse	0	0.18	n/a	3	17	ButtonPress	AvoidedLoss	True
174.952	0.47	Lose2	0.8889	n/a	Yes	2.73	n/a	n/a	GoodResponse	0	n/a	n/a	3	17	Blank	AvoidedLoss	True
175.418	1.45	Lose2	0.8889	n/a	Yes	2.73	n/a	5.0	GoodResponse	0	0.019	174.437	3	17	Feedback	AvoidedLoss	True
176.868	2.73	Lose2	0.8889	n/a	Yes	2.73	n/a	n/a	GoodResponse	0	0.0	n/a	3	17	ISIslide	AvoidedLoss	True
179.617	0.25	Lose2	0.8946999999999999	0.0	Yes	2.733	0.017	n/a	GoodResponse	0	n/a	n/a	3	18	Cue	AvoidedLoss	True
179.867	4.05	Lose2	0.8946999999999999	0.0	Yes	2.733	0.0	n/a	GoodResponse	0	n/a	n/a	3	18	Fixation	AvoidedLoss	True
183.915	0.22	Lose2	0.8946999999999999	0.002	Yes	2.733	-0.002	4.0	GoodResponse	0	0.203	183.118	3	18	Target	AvoidedLoss	True
184.118	0.3	Lose2	0.8946999999999999	0.002	Yes	2.733	-0.002	4.0	GoodResponse	0	0.203	n/a	3	18	ButtonPress	AvoidedLoss	True
184.148	0.48	Lose2	0.8946999999999999	n/a	Yes	2.733	n/a	n/a	GoodResponse	0	n/a	n/a	3	18	Blank	AvoidedLoss	True
184.615	1.45	Lose2	0.8946999999999999	n/a	Yes	2.733	n/a	5.0	GoodResponse	0	0.041	183.656	3	18	Feedback	AvoidedLoss	True
186.064	2.733	Lose2	0.8946999999999999	n/a	Yes	2.733	n/a	n/a	GoodResponse	0	0.0	n/a	3	18	ISIslide	AvoidedLoss	True
188.813	0.25	Control	0.9	0.001	Yes	2.937	0.013	n/a	GoodResponse	0	n/a	n/a	3	19	Cue	Neutral	True
189.063	3.95	Control	0.9	0.0	Yes	2.937	0.0	n/a	GoodResponse	0	n/a	n/a	3	19	Fixation	Neutral	True
193.012	0.21	Control	0.9	0.001	Yes	2.937	-0.001	4.0	GoodResponse	0	0.192	192.204	3	19	Target	Neutral	True
193.204	0.3	Control	0.9	0.001	Yes	2.937	-0.001	4.0	GoodResponse	0	0.192	n/a	3	19	ButtonPress	Neutral	True
193.229	0.49	Control	0.9	n/a	Yes	2.937	n/a	n/a	GoodResponse	0	n/a	n/a	3	19	Blank	Neutral	True
193.712	1.45	Control	0.9	n/a	Yes	2.937	n/a	5.0	GoodResponse	0	0.018	192.73	3	19	Feedback	Neutral	True
195.161	2.937	Control	0.9	n/a	Yes	2.937	n/a	n/a	GoodResponse	0	0.0	n/a	3	19	ISIslide	Neutral	True
198.127	0.25	Control	0.9048	0.0	Yes	2.623	0.027	n/a	GoodResponse	0	n/a	n/a	3	20	Cue	Neutral	True
198.377	4.05	Control	0.9048	0.0	Yes	2.623	0.0	n/a	GoodResponse	0	n/a	n/a	3	20	Fixation	Neutral	True
202.425	0.2	Control	0.9048	0.002	Yes	2.623	-0.002	4.0	GoodResponse	0	0.187	201.612	3	20	Target	Neutral	True
202.612	0.3	Control	0.9048	0.002	Yes	2.623	-0.002	4.0	GoodResponse	0	0.187	n/a	3	20	ButtonPress	Neutral	True
202.625	0.5	Control	0.9048	n/a	Yes	2.623	n/a	n/a	GoodResponse	0	n/a	n/a	3	20	Blank	Neutral	True
203.125	1.45	Control	0.9048	n/a	Yes	2.623	n/a	5.0	GoodResponse	0	0.018	202.143	3	20	Feedback	Neutral	True
204.575	2.623	Control	0.9048	n/a	Yes	2.623	n/a	n/a	GoodResponse	0	0.0	n/a	3	20	ISIslide	Neutral	True
207.224	0.25	Control	0.9091	0.0	Yes	2.776	0.024	n/a	GoodResponse	0	n/a	n/a	3	21	Cue	Neutral	False
207.474	4.1	Control	0.9091	0.0	Yes	2.776	0.0	4.0	GoodResponse	0	3.988	210.462	3	21	Fixation	Neutral	False
211.462	0.3	Control	0.9091	0.0	Yes	2.776	0.0	4.0	GoodResponse	0	3.988	n/a	3	21	ButtonPress	Neutral	False
211.572	0.19	Control	0.9091	0.002	Yes	2.776	-0.002	4.0	GoodResponse	0	0.178	210.75	3	21	Target	Neutral	False
211.75	0.3	Control	0.9091	0.002	Yes	2.776	-0.002	4.0	GoodResponse	0	0.178	n/a	3	21	ButtonPress	Neutral	False
211.772	0.51	Control	0.9091	n/a	Yes	2.776	n/a	n/a	GoodResponse	0	n/a	n/a	3	21	Blank	Neutral	False
212.272	1.45	Control	0.9091	n/a	Yes	2.776	n/a	5.0	GoodResponse	0	0.042	211.314	3	21	Feedback	Neutral	False
213.721	2.776	Control	0.9091	n/a	Yes	2.776	n/a	n/a	GoodResponse	0	0.0	n/a	3	21	ISIslide	Neutral	False
216.52	0.25	Control	0.8695999999999999	0.0	No	2.78	0.02	n/a	NoResponse	0	n/a	n/a	3	22	Cue	Neutral	True
216.77	4.0	Control	0.8695999999999999	0.0	No	2.78	0.0	n/a	NoResponse	0	n/a	n/a	3	22	Fixation	Neutral	True
220.769	0.18	Control	0.8695999999999999	0.001	No	2.78	-0.001	4.0	NoResponse	0	0.22	219.989	3	22	Target	Neutral	True
220.952	0.52	Control	0.8695999999999999	n/a	No	2.78	n/a	n/a	NoResponse	0	n/a	n/a	3	22	Blank	Neutral	True
220.989	0.3	Control	0.8695999999999999	0.001	No	2.78	-0.001	4.0	NoResponse	0	0.22	n/a	3	22	ButtonPress	Neutral	True
221.469	1.45	Control	0.8695999999999999	n/a	No	2.78	n/a	5.0	NoResponse	0	0.016	220.485	3	22	Feedback	Neutral	True
222.918	2.78	Control	0.8695999999999999	n/a	No	2.78	n/a	n/a	NoResponse	0	0.0	n/a	3	22	ISIslide	Neutral	True
225.717	0.25	Control	0.8332999999999999	0.0	No	2.783	0.017	n/a	NoResponse	0	n/a	n/a	3	23	Cue	Neutral	True
225.967	3.9	Control	0.8332999999999999	0.0	No	2.783	0.0	4.0	NoResponse	0	3.576	228.543	3	23	Fixation	Neutral	True
229.543	0.3	Control	0.8332999999999999	0.0	No	2.783	0.0	4.0	NoResponse	0	3.576	n/a	3	23	ButtonPress	Neutral	True
229.866	0.17	Control	0.8332999999999999	0.001	No	2.783	-0.001	n/a	NoResponse	0	n/a	n/a	3	23	Target	Neutral	True
230.032	0.53	Control	0.8332999999999999	n/a	No	2.783	n/a	n/a	NoResponse	0	n/a	n/a	3	23	Blank	Neutral	True
230.565	1.45	Control	0.8332999999999999	n/a	No	2.783	n/a	5.0	NoResponse	0	0.042	229.607	3	23	Feedback	Neutral	True
232.015	2.783	Control	0.8332999999999999	n/a	No	2.783	n/a	n/a	NoResponse	0	0.0	n/a	3	23	ISIslide	Neutral	True
234.814	0.25	Win2	0.8	0.0	No	3.136	0.014	n/a	NoResponse	0	n/a	n/a	3	24	Cue	MissedWin	True
235.064	3.95	Win2	0.8	0.0	No	3.136	0.0	n/a	NoResponse	0	n/a	n/a	3	24	Fixation	MissedWin	True
239.013	0.16	Win2	0.8	0.001	No	3.136	-0.001	4.0	NoResponse	0	0.215	238.228	3	24	Target	MissedWin	True
239.179	0.54	Win2	0.8	n/a	No	3.136	n/a	n/a	NoResponse	0	n/a	n/a	3	24	Blank	MissedWin	True
239.228	0.3	Win2	0.8	0.001	No	3.136	-0.001	4.0	NoResponse	0	0.215	n/a	3	24	ButtonPress	MissedWin	True
239.712	1.45	Win2	0.8	n/a	No	3.136	n/a	5.0	NoResponse	0	0.017	238.729	3	24	Feedback	MissedWin	True
241.162	3.136	Win2	0.8	n/a	No	3.136	n/a	n/a	NoResponse	0	0.0	n/a	3	24	ISIslide	MissedWin	True
244.327	0.25	Win2	0.7692	0.0	No	3.073	0.027	n/a	NoResponse	0	n/a	n/a	3	25	Cue	MissedWin	True
244.577	4.0	Win2	0.7692	0.0	No	3.073	0.0	n/a	NoResponse	0	n/a	n/a	3	25	Fixation	MissedWin	True
248.576	0.15	Win2	0.7692	0.001	No	3.073	-0.001	4.0	NoResponse	0	0.24	247.816	3	25	Target	MissedWin	True
248.726	0.55	Win2	0.7692	n/a	No	3.073	n/a	n/a	NoResponse	0	n/a	n/a	3	25	Blank	MissedWin	True
248.816	0.3	Win2	0.7692	0.001	No	3.073	-0.001	4.0	NoResponse	0	0.24	n/a	3	25	ButtonPress	MissedWin	True
249.276	1.45	Win2	0.7692	n/a	No	3.073	n/a	5.0	NoResponse	0	0.014	248.29	3	25	Feedback	MissedWin	True
250.725	3.073	Win2	0.7692	n/a	No	3.073	n/a	n/a	NoResponse	0	0.0	n/a	3	25	ISIslide	MissedWin	True
253.824	0.25	Win2	0.7406999999999999	0.0	No	2.926	0.024	n/a	NoResponse	0	n/a	n/a	3	26	Cue	MissedWin	True
254.074	3.95	Win2	0.7406999999999999	0.0	No	2.926	0.0	n/a	NoResponse	0	n/a	n/a	3	26	Fixation	MissedWin	True
258.023	0.15	Win2	0.7406999999999999	0.001	No	2.926	-0.001	4.0	NoResponse	0	0.197	257.22	3	26	Target	MissedWin	True
258.173	0.55	Win2	0.7406999999999999	n/a	No	2.926	n/a	n/a	NoResponse	0	n/a	n/a	3	26	Blank	MissedWin	True
258.22	0.3	Win2	0.7406999999999999	0.001	No	2.926	-0.001	4.0	NoResponse	0	0.197	n/a	3	26	ButtonPress	MissedWin	True
258.722	1.45	Win2	0.7406999999999999	n/a	No	2.926	n/a	5.0	NoResponse	0	0.031	257.753	3	26	Feedback	MissedWin	True
260.172	2.926	Win2	0.7406999999999999	n/a	No	2.926	n/a	n/a	NoResponse	0	0.0	n/a	3	26	ISIslide	MissedWin	True
263.121	0.25	Lose2	0.7143	0.0	No	2.829	0.021	n/a	NoResponse	-1	n/a	n/a	2	27	Cue	Loss	True
263.371	4.05	Lose2	0.7143	0.0	No	2.829	0.0	n/a	NoResponse	-1	n/a	n/a	2	27	Fixation	Loss	True
267.419	0.15	Lose2	0.7143	0.002	No	2.829	-0.002	4.0	NoResponse	-1	0.197	266.616	2	27	Target	Loss	True
267.569	0.55	Lose2	0.7143	n/a	No	2.829	n/a	n/a	NoResponse	-1	n/a	n/a	2	27	Blank	Loss	True
267.616	0.3	Lose2	0.7143	0.002	No	2.829	-0.002	4.0	NoResponse	-1	0.197	n/a	2	27	ButtonPress	Loss	True
268.119	1.45	Lose2	0.7143	n/a	No	2.829	n/a	5.0	NoResponse	-1	0.0	267.119	2	27	Feedback	Loss	True
269.569	2.829	Lose2	0.7143	n/a	No	2.829	n/a	n/a	NoResponse	-1	0.0	n/a	2	27	ISIslide	Loss	True
272.418	0.25	Control	0.6897	0.0	No	2.832	0.018	n/a	NoResponse	0	n/a	n/a	2	28	Cue	Neutral	True
272.667	4.05	Control	0.6897	0.001	No	2.832	-0.001	n/a	NoResponse	0	n/a	n/a	2	28	Fixation	Neutral	True
276.716	0.15	Control	0.6897	0.002	No	2.832	-0.002	4.0	NoResponse	0	0.185	275.901	2	28	Target	Neutral	True
276.866	0.55	Control	0.6897	n/a	No	2.832	n/a	n/a	NoResponse	0	n/a	n/a	2	28	Blank	Neutral	True
276.901	0.3	Control	0.6897	0.002	No	2.832	-0.002	4.0	NoResponse	0	0.185	n/a	2	28	ButtonPress	Neutral	True
277.416	1.45	Control	0.6897	n/a	No	2.832	n/a	5.0	NoResponse	0	0.02	276.436	2	28	Feedback	Neutral	True
278.865	2.832	Control	0.6897	n/a	No	2.832	n/a	n/a	NoResponse	0	0.0	n/a	2	28	ISIslide	Neutral	True
281.714	0.25	Lose2	0.6667000000000001	0.0	No	2.836	0.014	n/a	NoResponse	-1	n/a	n/a	1	29	Cue	Loss	True
281.964	3.95	Lose2	0.6667000000000001	0.0	No	2.836	0.0	n/a	NoResponse	-1	n/a	n/a	1	29	Fixation	Loss	True
285.913	0.15	Lose2	0.6667000000000001	0.001	No	2.836	-0.001	4.0	NoResponse	-1	0.191	285.104	1	29	Target	Loss	True
286.063	0.55	Lose2	0.6667000000000001	n/a	No	2.836	n/a	n/a	NoResponse	-1	n/a	n/a	1	29	Blank	Loss	True
286.104	0.3	Lose2	0.6667000000000001	0.001	No	2.836	-0.001	4.0	NoResponse	-1	0.191	n/a	1	29	ButtonPress	Loss	True
286.613	1.45	Lose2	0.6667000000000001	n/a	No	2.836	n/a	5.0	NoResponse	-1	0.043	285.656	1	29	Feedback	Loss	True
288.062	2.836	Lose2	0.6667000000000001	n/a	No	2.836	n/a	n/a	NoResponse	-1	0.0	n/a	1	29	ISIslide	Loss	True
290.928	0.25	Win2	0.6452	0.0	No	2.772	0.028	n/a	NoResponse	0	n/a	n/a	1	30	Cue	MissedWin	True
291.178	3.9	Win2	0.6452	0.0	No	2.772	0.0	4.0	NoResponse	0	3.743	293.921	1	30	Fixation	MissedWin	True
294.921	0.3	Win2	0.6452	0.0	No	2.772	0.0	4.0	NoResponse	0	3.743	n/a	1	30	ButtonPress	MissedWin	True
295.076	0.15	Win2	0.6452	0.002	No	2.772	-0.002	n/a	NoResponse	0	n/a	n/a	1	30	Target	MissedWin	True
295.226	0.55	Win2	0.6452	n/a	No	2.772	n/a	n/a	NoResponse	0	n/a	n/a	1	30	Blank	MissedWin	True
295.776	1.45	Win2	0.6452	n/a	No	2.772	n/a	5.0	NoResponse	0	0.002	294.778	1	30	Feedback	MissedWin	True
297.226	2.772	Win2	0.6452	n/a	No	2.772	n/a	n/a	NoResponse	0	0.0	n/a	1	30	ISIslide	MissedWin	True
300.025	0.25	Lose2	0.625	0.0	No	2.825	0.025	n/a	NoResponse	-1	n/a	n/a	0	31	Cue	Loss	True
300.275	4.05	Lose2	0.625	0.0	No	2.825	0.0	n/a	NoResponse	-1	n/a	n/a	0	31	Fixation	Loss	True
304.323	0.16	Lose2	0.625	0.002	No	2.825	-0.002	4.0	NoResponse	-1	0.22	303.543	0	31	Target	Loss	True
304.49	0.54	Lose2	0.625	n/a	No	2.825	n/a	n/a	NoResponse	-1	n/a	n/a	0	31	Blank	Loss	True
304.543	0.3	Lose2	0.625	0.002	No	2.825	-0.002	4.0	NoResponse	-1	0.22	n/a	0	31	ButtonPress	Loss	True
305.023	1.45	Lose2	0.625	n/a	No	2.825	n/a	5.0	NoResponse	-1	0.022	304.045	0	31	Feedback	Loss	True
306.472	2.825	Lose2	0.625	n/a	No	2.825	n/a	n/a	NoResponse	-1	0.0	n/a	0	31	ISIslide	Loss	True
309.321	0.25	Lose2	0.6364	0.0	Yes	2.629	0.021	n/a	GoodResponse	0	n/a	n/a	0	32	Cue	AvoidedLoss	True
309.571	4.15	Lose2	0.6364	0.0	Yes	2.629	0.0	n/a	GoodResponse	0	n/a	n/a	0	32	Fixation	AvoidedLoss	True
313.72	0.17	Lose2	0.6364	0.001	Yes	2.629	-0.001	4.0	GoodResponse	0	0.162	312.882	0	32	Target	AvoidedLoss	True
313.882	0.3	Lose2	0.6364	0.001	Yes	2.629	-0.001	4.0	GoodResponse	0	0.162	n/a	0	32	ButtonPress	AvoidedLoss	True
313.886	0.53	Lose2	0.6364	n/a	Yes	2.629	n/a	n/a	GoodResponse	0	n/a	n/a	0	32	Blank	AvoidedLoss	True
314.42	1.45	Lose2	0.6364	n/a	Yes	2.629	n/a	5.0	GoodResponse	0	0.04	313.46	0	32	Feedback	AvoidedLoss	True
315.869	2.629	Lose2	0.6364	n/a	Yes	2.629	n/a	n/a	GoodResponse	0	0.0	n/a	0	32	ISIslide	AvoidedLoss	True
318.518	0.25	Win2	0.6470999999999999	0.0	Yes	2.682	0.018	n/a	GoodResponse	1	n/a	n/a	1	33	Cue	Win	True
318.768	4.0	Win2	0.6470999999999999	0.0	Yes	2.682	0.0	n/a	GoodResponse	1	n/a	n/a	1	33	Fixation	Win	True
322.767	0.18	Win2	0.6470999999999999	0.001	Yes	2.682	-0.001	4.0	GoodResponse	1	0.163	321.93	1	33	Target	Win	True
322.93	0.3	Win2	0.6470999999999999	0.001	Yes	2.682	-0.001	4.0	GoodResponse	1	0.163	n/a	1	33	ButtonPress	Win	True
322.95	0.52	Win2	0.6470999999999999	n/a	Yes	2.682	n/a	n/a	GoodResponse	1	n/a	n/a	1	33	Blank	Win	True
323.466	1.45	Win2	0.6470999999999999	n/a	Yes	2.682	n/a	5.0	GoodResponse	1	0.018	322.484	1	33	Feedback	Win	True
324.916	2.682	Win2	0.6470999999999999	n/a	Yes	2.682	n/a	n/a	GoodResponse	1	0.0	n/a	1	33	ISIslide	Win	True
327.615	0.25	Lose2	0.6286	0.0	No	2.635	0.015	n/a	NoResponse	-1	n/a	n/a	0	34	Cue	Loss	True
327.865	4.05	Lose2	0.6286	0.0	No	2.635	0.0	n/a	NoResponse	-1	n/a	n/a	0	34	Fixation	Loss	True
331.913	0.19	Lose2	0.6286	0.002	No	2.635	-0.002	4.0	NoResponse	-1	0.219	331.132	0	34	Target	Loss	True
332.113	0.51	Lose2	0.6286	n/a	No	2.635	n/a	n/a	NoResponse	-1	n/a	n/a	0	34	Blank	Loss	True
332.132	0.3	Lose2	0.6286	0.002	No	2.635	-0.002	4.0	NoResponse	-1	0.219	n/a	0	34	ButtonPress	Loss	True
332.613	1.45	Lose2	0.6286	n/a	No	2.635	n/a	5.0	NoResponse	-1	0.042	331.655	0	34	Feedback	Loss	True
334.063	2.635	Lose2	0.6286	n/a	No	2.635	n/a	n/a	NoResponse	-1	0.0	n/a	0	34	ISIslide	Loss	True
336.728	0.25	Lose2	0.6111	0.001	No	2.672	0.028	n/a	NoResponse	-1	n/a	n/a	-1	35	Cue	Loss	True
336.978	4.0	Lose2	0.6111	0.0	No	2.672	0.0	4.0	NoResponse	-1	3.72	339.698	-1	35	Fixation	Loss	True
340.698	0.3	Lose2	0.6111	0.0	No	2.672	0.0	4.0	NoResponse	-1	3.72	n/a	-1	35	ButtonPress	Loss	True
340.977	0.2	Lose2	0.6111	0.001	No	2.672	-0.001	n/a	NoResponse	-1	n/a	n/a	-1	35	Target	Loss	True
341.177	0.5	Lose2	0.6111	n/a	No	2.672	n/a	n/a	NoResponse	-1	n/a	n/a	-1	35	Blank	Loss	True
341.677	1.45	Lose2	0.6111	n/a	No	2.672	n/a	5.0	NoResponse	-1	0.006	340.683	-1	35	Feedback	Loss	True
343.126	2.672	Lose2	0.6111	n/a	No	2.672	n/a	n/a	NoResponse	-1	0.0	n/a	-1	35	ISIslide	Loss	True
345.825	0.25	Control	0.6215999999999999	0.0	Yes	2.675	0.025	n/a	GoodResponse	0	n/a	n/a	-1	36	Cue	Neutral	True
346.075	4.0	Control	0.6215999999999999	0.0	Yes	2.675	0.0	n/a	GoodResponse	0	n/a	n/a	-1	36	Fixation	Neutral	True
350.074	0.21	Control	0.6215999999999999	0.001	Yes	2.675	-0.001	4.0	GoodResponse	0	0.154	349.228	-1	36	Target	Neutral	True
350.228	0.3	Control	0.6215999999999999	0.001	Yes	2.675	-0.001	4.0	GoodResponse	0	0.154	n/a	-1	36	ButtonPress	Neutral	True
350.29	0.49	Control	0.6215999999999999	n/a	Yes	2.675	n/a	n/a	GoodResponse	0	n/a	n/a	-1	36	Blank	Neutral	True
350.774	1.45	Control	0.6215999999999999	n/a	Yes	2.675	n/a	5.0	GoodResponse	0	0.028	349.802	-1	36	Feedback	Neutral	True
352.223	2.675	Control	0.6215999999999999	n/a	Yes	2.675	n/a	n/a	GoodResponse	0	0.0	n/a	-1	36	ISIslide	Neutral	True
354.922	0.25	Win2	0.6315999999999999	0.0	Yes	2.878	0.022	n/a	GoodResponse	1	n/a	n/a	0	37	Cue	Win	True
355.172	4.0	Win2	0.6315999999999999	0.0	Yes	2.878	0.0	n/a	GoodResponse	1	n/a	n/a	0	37	Fixation	Win	True
359.171	0.22	Win2	0.6315999999999999	0.001	Yes	2.878	-0.001	4.0	GoodResponse	1	0.192	358.363	0	37	Target	Win	True
359.363	0.3	Win2	0.6315999999999999	0.001	Yes	2.878	-0.001	4.0	GoodResponse	1	0.192	n/a	0	37	ButtonPress	Win	True
359.404	0.48	Win2	0.6315999999999999	n/a	Yes	2.878	n/a	n/a	GoodResponse	1	n/a	n/a	0	37	Blank	Win	True
359.87	1.45	Win2	0.6315999999999999	n/a	Yes	2.878	n/a	5.0	GoodResponse	1	0.006	358.876	0	37	Feedback	Win	True
361.32	2.878	Win2	0.6315999999999999	n/a	Yes	2.878	n/a	n/a	GoodResponse	1	0.0	n/a	0	37	ISIslide	Win	True
364.219	0.25	Lose2	0.6409999999999999	0.0	Yes	2.831	0.019	n/a	GoodResponse	0	n/a	n/a	0	38	Cue	AvoidedLoss	True
364.469	3.95	Lose2	0.6409999999999999	0.0	Yes	2.831	0.0	n/a	GoodResponse	0	n/a	n/a	0	38	Fixation	AvoidedLoss	True
368.417	0.23	Lose2	0.6409999999999999	0.002	Yes	2.831	-0.002	4.0	GoodResponse	0	0.137	367.554	0	38	Target	AvoidedLoss	True
368.554	0.3	Lose2	0.6409999999999999	0.002	Yes	2.831	-0.002	4.0	GoodResponse	0	0.137	n/a	0	38	ButtonPress	AvoidedLoss	True
368.651	0.47	Lose2	0.6409999999999999	n/a	Yes	2.831	n/a	n/a	GoodResponse	0	n/a	n/a	0	38	Blank	AvoidedLoss	True
369.117	1.45	Lose2	0.6409999999999999	n/a	Yes	2.831	n/a	5.0	GoodResponse	0	0.026	368.143	0	38	Feedback	AvoidedLoss	True
370.567	2.831	Lose2	0.6409999999999999	n/a	Yes	2.831	n/a	n/a	GoodResponse	0	0.0	n/a	0	38	ISIslide	AvoidedLoss	True
373.416	0.25	Win2	0.65	0.0	Yes	2.984	0.016	n/a	GoodResponse	1	n/a	n/a	1	39	Cue	Win	True
373.666	4.1	Win2	0.65	0.0	Yes	2.984	0.0	n/a	GoodResponse	1	n/a	n/a	1	39	Fixation	Win	True
377.764	0.24	Win2	0.65	0.002	Yes	2.984	-0.002	4.0	GoodResponse	1	0.195	376.959	1	39	Target	Win	True
377.959	0.3	Win2	0.65	0.002	Yes	2.984	-0.002	4.0	GoodResponse	1	0.195	n/a	1	39	ButtonPress	Win	True
378.014	0.46	Win2	0.65	n/a	Yes	2.984	n/a	n/a	GoodResponse	1	n/a	n/a	1	39	Blank	Win	True
378.464	1.45	Win2	0.65	n/a	Yes	2.984	n/a	5.0	GoodResponse	1	0.045	377.509	1	39	Feedback	Win	True
379.913	2.984	Win2	0.65	n/a	Yes	2.984	n/a	n/a	GoodResponse	1	0.0	n/a	1	39	ISIslide	Win	True
382.929	0.25	Win2	0.6585	0.0	Yes	2.721	0.029	n/a	GoodResponse	1	n/a	n/a	2	40	Cue	Win	True
383.179	3.95	Win2	0.6585	0.0	Yes	2.721	0.0	n/a	GoodResponse	1	n/a	n/a	2	40	Fixation	Win	True
387.128	0.25	Win2	0.6585	0.001	Yes	2.721	-0.001	4.0	GoodResponse	1	0.182	386.31	2	40	Target	Win	True
387.31	0.3	Win2	0.6585	0.001	Yes	2.721	-0.001	4.0	GoodResponse	1	0.182	n/a	2	40	ButtonPress	Win	True
387.377	0.45	Win2	0.6585	n/a	Yes	2.721	n/a	n/a	GoodResponse	1	n/a	n/a	2	40	Blank	Win	True
387.827	1.45	Win2	0.6585	n/a	Yes	2.721	n/a	5.0	GoodResponse	1	0.048	386.875	2	40	Feedback	Win	True
389.277	2.721	Win2	0.6585	n/a	Yes	2.721	n/a	n/a	GoodResponse	1	0.0	n/a	2	40	ISIslide	Win	True
392.026	0.25	Win2	0.6667000000000001	0.0	Yes	2.774	0.026	n/a	GoodResponse	1	n/a	n/a	3	41	Cue	Win	True
392.276	3.9	Win2	0.6667000000000001	0.0	Yes	2.774	0.0	n/a	GoodResponse	1	n/a	n/a	3	41	Fixation	Win	True
396.174	0.25	Win2	0.6667000000000001	0.002	Yes	2.774	-0.002	4.0	GoodResponse	1	0.203	395.377	3	41	Target	Win	True
396.377	0.3	Win2	0.6667000000000001	0.002	Yes	2.774	-0.002	4.0	GoodResponse	1	0.203	n/a	3	41	ButtonPress	Win	True
396.424	0.45	Win2	0.6667000000000001	n/a	Yes	2.774	n/a	n/a	GoodResponse	1	n/a	n/a	3	41	Blank	Win	True
396.874	1.45	Win2	0.6667000000000001	n/a	Yes	2.774	n/a	5.0	GoodResponse	1	0.025	395.899	3	41	Feedback	Win	True
398.324	2.774	Win2	0.6667000000000001	n/a	Yes	2.774	n/a	n/a	GoodResponse	1	0.0	n/a	3	41	ISIslide	Win	True
401.123	0.25	Control	0.6744	0.0	Yes	2.927	0.023	n/a	GoodResponse	0	n/a	n/a	3	42	Cue	Neutral	True
401.373	3.85	Control	0.6744	0.0	Yes	2.927	0.0	n/a	GoodResponse	0	n/a	n/a	3	42	Fixation	Neutral	True
405.221	0.24	Control	0.6744	0.002	Yes	2.927	-0.002	4.0	GoodResponse	0	0.213	404.434	3	42	Target	Neutral	True
405.434	0.3	Control	0.6744	0.002	Yes	2.927	-0.002	4.0	GoodResponse	0	0.213	n/a	3	42	ButtonPress	Neutral	True
405.471	0.46	Control	0.6744	n/a	Yes	2.927	n/a	n/a	GoodResponse	0	n/a	n/a	3	42	Blank	Neutral	True
405.921	1.45	Control	0.6744	n/a	Yes	2.927	n/a	5.0	GoodResponse	0	0.006	404.927	3	42	Feedback	Neutral	True
407.37	2.927	Control	0.6744	n/a	Yes	2.927	n/a	n/a	GoodResponse	0	0.0	n/a	3	42	ISIslide	Neutral	True
410.319	0.25	Win2	0.6591	0.001	No	3.181	0.019	n/a	NoResponse	0	n/a	n/a	3	43	Cue	MissedWin	True
410.569	4.0	Win2	0.6591	0.0	No	3.181	0.0	4.0	NoResponse	0	3.741	413.31	3	43	Fixation	MissedWin	True
414.31	0.3	Win2	0.6591	0.0	No	3.181	0.0	4.0	NoResponse	0	3.741	n/a	3	43	ButtonPress	MissedWin	True
414.568	0.23	Win2	0.6591	0.001	No	3.181	-0.001	n/a	NoResponse	0	n/a	n/a	3	43	Target	MissedWin	True
414.801	0.47	Win2	0.6591	n/a	No	3.181	n/a	n/a	NoResponse	0	n/a	n/a	3	43	Blank	MissedWin	True
415.268	1.45	Win2	0.6591	n/a	No	3.181	n/a	5.0	NoResponse	0	0.021	414.289	3	43	Feedback	MissedWin	True
416.717	3.181	Win2	0.6591	n/a	No	3.181	n/a	n/a	NoResponse	0	0.0	n/a	3	43	ISIslide	MissedWin	True
419.916	0.25	Win2	0.6667000000000001	0.0	Yes	2.984	0.016	n/a	GoodResponse	1	n/a	n/a	4	44	Cue	Win	True
420.166	4.0	Win2	0.6667000000000001	0.0	Yes	2.984	0.0	n/a	GoodResponse	1	n/a	n/a	4	44	Fixation	Win	True
424.165	0.23	Win2	0.6667000000000001	0.001	Yes	2.984	-0.001	4.0	GoodResponse	1	0.189	423.354	4	44	Target	Win	True
424.354	0.3	Win2	0.6667000000000001	0.001	Yes	2.984	-0.001	4.0	GoodResponse	1	0.189	n/a	4	44	ButtonPress	Win	True
424.398	0.47	Win2	0.6667000000000001	n/a	Yes	2.984	n/a	n/a	GoodResponse	1	n/a	n/a	4	44	Blank	Win	True
424.864	1.45	Win2	0.6667000000000001	n/a	Yes	2.984	n/a	5.0	GoodResponse	1	0.034	423.898	4	44	Feedback	Win	True
426.314	2.984	Win2	0.6667000000000001	n/a	Yes	2.984	n/a	n/a	GoodResponse	1	0.0	n/a	4	44	ISIslide	Win	True
429.329	0.25	Control	0.6522	0.001	No	2.871	0.029	n/a	NoResponse	0	n/a	n/a	4	45	Cue	Neutral	True
429.579	4.1	Control	0.6522	0.0	No	2.871	0.0	n/a	NoResponse	0	n/a	n/a	4	45	Fixation	Neutral	True
433.678	0.22	Control	0.6522	0.001	No	2.871	-0.001	4.0	NoResponse	0	0.228	432.906	4	45	Target	Neutral	True
433.895	0.48	Control	0.6522	n/a	No	2.871	n/a	n/a	NoResponse	0	n/a	n/a	4	45	Blank	Neutral	True
433.906	0.3	Control	0.6522	0.001	No	2.871	-0.001	4.0	NoResponse	0	0.228	n/a	4	45	ButtonPress	Neutral	True
434.378	1.45	Control	0.6522	n/a	No	2.871	n/a	5.0	NoResponse	0	0.033	433.411	4	45	Feedback	Neutral	True
435.827	2.871	Control	0.6522	n/a	No	2.871	n/a	n/a	NoResponse	0	0.0	n/a	4	45	ISIslide	Neutral	True
438.726	0.25	Lose2	0.6596	0.0	Yes	3.374	0.026	n/a	GoodResponse	0	n/a	n/a	4	46	Cue	AvoidedLoss	True
438.976	4.0	Lose2	0.6596	0.0	Yes	3.374	0.0	n/a	GoodResponse	0	n/a	n/a	4	46	Fixation	AvoidedLoss	True
442.975	0.23	Lose2	0.6596	0.001	Yes	3.374	-0.001	4.0	GoodResponse	0	0.208	442.183	4	46	Target	AvoidedLoss	True
443.183	0.3	Lose2	0.6596	0.001	Yes	3.374	-0.001	4.0	GoodResponse	0	0.208	n/a	4	46	ButtonPress	AvoidedLoss	True
443.208	0.47	Lose2	0.6596	n/a	Yes	3.374	n/a	n/a	GoodResponse	0	n/a	n/a	4	46	Blank	AvoidedLoss	True
443.674	1.45	Lose2	0.6596	n/a	Yes	3.374	n/a	5.0	GoodResponse	0	0.007	442.681	4	46	Feedback	AvoidedLoss	True
445.124	3.374	Lose2	0.6596	n/a	Yes	3.374	n/a	n/a	GoodResponse	0	0.0	n/a	4	46	ISIslide	AvoidedLoss	True
448.523	0.25	Lose2	0.6457999999999999	0.0	No	2.677	0.023	n/a	NoResponse	-1	n/a	n/a	3	47	Cue	Loss	True
448.773	4.0	Lose2	0.6457999999999999	0.0	No	2.677	0.0	n/a	NoResponse	-1	n/a	n/a	3	47	Fixation	Loss	True
452.771	0.23	Lose2	0.6457999999999999	0.002	No	2.677	-0.002	4.0	NoResponse	-1	0.242	452.013	3	47	Target	Loss	True
453.005	0.47	Lose2	0.6457999999999999	n/a	No	2.677	n/a	n/a	NoResponse	-1	n/a	n/a	3	47	Blank	Loss	True
453.013	0.3	Lose2	0.6457999999999999	0.002	No	2.677	-0.002	4.0	NoResponse	-1	0.242	n/a	3	47	ButtonPress	Loss	True
453.471	1.45	Lose2	0.6457999999999999	n/a	No	2.677	n/a	5.0	NoResponse	-1	0.013	452.484	3	47	Feedback	Loss	True
454.921	2.677	Lose2	0.6457999999999999	n/a	No	2.677	n/a	n/a	NoResponse	-1	0.0	n/a	3	47	ISIslide	Loss	True
457.62	0.25	Lose2	0.6531	0.0	Yes	3.03	0.02	n/a	GoodResponse	0	n/a	n/a	3	48	Cue	AvoidedLoss	True
457.87	3.95	Lose2	0.6531	0.0	Yes	3.03	0.0	n/a	GoodResponse	0	n/a	n/a	3	48	Fixation	AvoidedLoss	True
461.818	0.24	Lose2	0.6531	0.002	Yes	3.03	-0.002	4.0	GoodResponse	0	0.232	461.05	3	48	Target	AvoidedLoss	True
462.05	0.3	Lose2	0.6531	0.002	Yes	3.03	-0.002	4.0	GoodResponse	0	0.232	n/a	3	48	ButtonPress	AvoidedLoss	True
462.068	0.46	Lose2	0.6531	n/a	Yes	3.03	n/a	n/a	GoodResponse	0	n/a	n/a	3	48	Blank	AvoidedLoss	True
462.518	1.45	Lose2	0.6531	n/a	Yes	3.03	n/a	5.0	GoodResponse	0	0.038	461.556	3	48	Feedback	AvoidedLoss	True
463.967	3.03	Lose2	0.6531	n/a	Yes	3.03	n/a	n/a	GoodResponse	0	0.0	n/a	3	48	ISIslide	AvoidedLoss	True
467.016	0.25	Control	0.66	0.0	Yes	2.884	0.016	n/a	GoodResponse	0	n/a	n/a	3	49	Cue	Neutral	True
467.266	4.0	Control	0.66	0.0	Yes	2.884	0.0	n/a	GoodResponse	0	n/a	n/a	3	49	Fixation	Neutral	True
471.265	0.25	Control	0.66	0.001	Yes	2.884	-0.001	4.0	GoodResponse	0	0.185	470.45	3	49	Target	Neutral	True
471.45	0.3	Control	0.66	0.001	Yes	2.884	-0.001	4.0	GoodResponse	0	0.185	n/a	3	49	ButtonPress	Neutral	True
471.515	0.45	Control	0.66	n/a	Yes	2.884	n/a	n/a	GoodResponse	0	n/a	n/a	3	49	Blank	Neutral	True
471.965	1.45	Control	0.66	n/a	Yes	2.884	n/a	5.0	GoodResponse	0	0.006	470.971	3	49	Feedback	Neutral	True
473.414	2.884	Control	0.66	n/a	Yes	2.884	n/a	n/a	GoodResponse	0	0.0	n/a	3	49	ISIslide	Neutral	True
476.313	0.25	Control	0.6667000000000001	0.0	Yes	2.787	0.013	n/a	GoodResponse	0	n/a	n/a	3	50	Cue	Neutral	True
476.563	4.0	Control	0.6667000000000001	0.0	Yes	2.787	0.0	n/a	GoodResponse	0	n/a	n/a	3	50	Fixation	Neutral	True
480.562	0.25	Control	0.6667000000000001	0.001	Yes	2.787	-0.001	4.0	GoodResponse	0	0.208	479.77	3	50	Target	Neutral	True
480.77	0.3	Control	0.6667000000000001	0.001	Yes	2.787	-0.001	4.0	GoodResponse	0	0.208	n/a	3	50	ButtonPress	Neutral	True
480.812	0.45	Control	0.6667000000000001	n/a	Yes	2.787	n/a	n/a	GoodResponse	0	n/a	n/a	3	50	Blank	Neutral	True
481.261	1.45	Control	0.6667000000000001	n/a	Yes	2.787	n/a	5.0	GoodResponse	0	0.027	480.288	3	50	Feedback	Neutral	True
482.711	2.787	Control	0.6667000000000001	n/a	Yes	2.787	n/a	n/a	GoodResponse	0	0.0	n/a	3	50	ISIslide	Neutral	True
485.527	0.25	Control	0.6731	0.0	Yes	2.723	0.027	n/a	GoodResponse	0	n/a	n/a	3	51	Cue	Neutral	True
485.776	3.95	Control	0.6731	0.001	Yes	2.723	-0.001	n/a	GoodResponse	0	n/a	n/a	3	51	Fixation	Neutral	True
489.725	0.24	Control	0.6731	0.002	Yes	2.723	-0.002	4.0	GoodResponse	0	0.195	488.92	3	51	Target	Neutral	True
489.92	0.3	Control	0.6731	0.002	Yes	2.723	-0.002	4.0	GoodResponse	0	0.195	n/a	3	51	ButtonPress	Neutral	True
489.975	0.46	Control	0.6731	n/a	Yes	2.723	n/a	n/a	GoodResponse	0	n/a	n/a	3	51	Blank	Neutral	True
490.425	1.45	Control	0.6731	n/a	Yes	2.723	n/a	5.0	GoodResponse	0	0.034	489.459	3	51	Feedback	Neutral	True
491.874	2.723	Control	0.6731	n/a	Yes	2.723	n/a	n/a	GoodResponse	0	0.0	n/a	3	51	ISIslide	Neutral	True
494.623	0.25	Control	0.6792	0.0	Yes	2.627	0.023	n/a	GoodResponse	0	n/a	n/a	3	52	Cue	Neutral	True
494.873	4.05	Control	0.6792	0.0	Yes	2.627	0.0	n/a	GoodResponse	0	n/a	n/a	3	52	Fixation	Neutral	True
498.922	0.23	Control	0.6792	0.001	Yes	2.627	-0.001	4.0	GoodResponse	0	0.221	498.143	3	52	Target	Neutral	True
499.143	0.3	Control	0.6792	0.001	Yes	2.627	-0.001	4.0	GoodResponse	0	0.221	n/a	3	52	ButtonPress	Neutral	True
499.155	0.47	Control	0.6792	n/a	Yes	2.627	n/a	n/a	GoodResponse	0	n/a	n/a	3	52	Blank	Neutral	True
499.622	1.45	Control	0.6792	n/a	Yes	2.627	n/a	5.0	GoodResponse	0	0.008	498.63	3	52	Feedback	Neutral	True
501.071	2.627	Control	0.6792	n/a	Yes	2.627	n/a	n/a	GoodResponse	0	0.0	n/a	3	52	ISIslide	Neutral	True
503.72	0.25	Win2	0.6667000000000001	0.0	No	2.93	0.02	n/a	LatePress	0	n/a	n/a	3	53	Cue	MissedWin	True
503.97	4.05	Win2	0.6667000000000001	0.0	No	2.93	0.0	n/a	LatePress	0	n/a	n/a	3	53	Fixation	MissedWin	True
508.019	0.22	Win2	0.6667000000000001	0.001	No	2.93	-0.001	4.0	LatePress	0	0.226	507.245	3	53	Target	MissedWin	True
508.245	0.3	Win2	0.6667000000000001	0.001	No	2.93	-0.001	4.0	LatePress	0	0.226	n/a	3	53	ButtonPress	MissedWin	True
508.252	0.48	Win2	0.6667000000000001	n/a	No	2.93	n/a	n/a	LatePress	0	n/a	n/a	3	53	Blank	MissedWin	True
508.718	1.45	Win2	0.6667000000000001	n/a	No	2.93	n/a	5.0	LatePress	0	0.033	507.751	3	53	Feedback	MissedWin	True
510.168	2.93	Win2	0.6667000000000001	n/a	No	2.93	n/a	n/a	LatePress	0	0.0	n/a	3	53	ISIslide	MissedWin	True
513.117	0.25	Win2	0.6545000000000001	0.0	No	2.733	0.017	n/a	NoResponse	0	n/a	n/a	3	54	Cue	MissedWin	True
513.367	3.95	Win2	0.6545000000000001	0.0	No	2.733	0.0	n/a	NoResponse	0	n/a	n/a	3	54	Fixation	MissedWin	True
517.315	0.21	Win2	0.6545000000000001	0.002	No	2.733	-0.002	4.0	NoResponse	0	0.331	516.646	3	54	Target	MissedWin	True
517.532	0.49	Win2	0.6545000000000001	n/a	No	2.733	n/a	n/a	NoResponse	0	n/a	n/a	3	54	Blank	MissedWin	True
517.646	0.3	Win2	0.6545000000000001	0.002	No	2.733	-0.002	4.0	NoResponse	0	0.331	n/a	3	54	ButtonPress	MissedWin	True
518.015	1.45	Win2	0.6545000000000001	n/a	No	2.733	n/a	5.0	NoResponse	0	0.006	517.021	3	54	Feedback	MissedWin	True
519.465	2.733	Win2	0.6545000000000001	n/a	No	2.733	n/a	n/a	NoResponse	0	0.0	n/a	3	54	ISIslide	MissedWin	True
522.214	0.25	Control	0.6607	0.0	Yes	3.036	0.014	n/a	GoodResponse	0	n/a	n/a	3	55	Cue	Neutral	True
522.464	3.95	Control	0.6607	0.0	Yes	3.036	0.0	n/a	GoodResponse	0	n/a	n/a	3	55	Fixation	Neutral	True
526.412	0.22	Control	0.6607	0.002	Yes	3.036	-0.002	4.0	GoodResponse	0	0.213	525.625	3	55	Target	Neutral	True
526.625	0.3	Control	0.6607	0.002	Yes	3.036	-0.002	4.0	GoodResponse	0	0.213	n/a	3	55	ButtonPress	Neutral	True
526.646	0.48	Control	0.6607	n/a	Yes	3.036	n/a	n/a	GoodResponse	0	n/a	n/a	3	55	Blank	Neutral	True
527.112	1.45	Control	0.6607	n/a	Yes	3.036	n/a	5.0	GoodResponse	0	0.03	526.142	3	55	Feedback	Neutral	True
528.562	3.036	Control	0.6607	n/a	Yes	3.036	n/a	n/a	GoodResponse	0	0.0	n/a	3	55	ISIslide	Neutral	True
531.627	0.25	Control	0.6491	0.0	No	2.823	0.027	n/a	NoResponse	0	n/a	n/a	3	56	Cue	Neutral	True
531.877	3.95	Control	0.6491	0.0	No	2.823	0.0	4.0	NoResponse	0	3.928	534.805	3	56	Fixation	Neutral	True
535.805	0.3	Control	0.6491	0.0	No	2.823	0.0	4.0	NoResponse	0	3.928	n/a	3	56	ButtonPress	Neutral	True
535.826	0.22	Control	0.6491	0.001	No	2.823	-0.001	n/a	NoResponse	0	n/a	n/a	3	56	Target	Neutral	True
536.042	0.48	Control	0.6491	n/a	No	2.823	n/a	n/a	NoResponse	0	n/a	n/a	3	56	Blank	Neutral	True
536.525	1.45	Control	0.6491	n/a	No	2.823	n/a	5.0	NoResponse	0	0.031	535.556	3	56	Feedback	Neutral	True
537.975	2.823	Control	0.6491	n/a	No	2.823	n/a	n/a	NoResponse	0	0.0	n/a	3	56	ISIslide	Neutral	True
540.824	0.25	Control	0.6552	0.0	Yes	3.476	0.024	n/a	GoodResponse	0	n/a	n/a	3	57	Cue	Neutral	True
541.074	4.0	Control	0.6552	0.0	Yes	3.476	0.0	n/a	GoodResponse	0	n/a	n/a	3	57	Fixation	Neutral	True
545.072	0.23	Control	0.6552	0.002	Yes	3.476	-0.002	4.0	GoodResponse	0	0.217	544.289	3	57	Target	Neutral	True
545.289	0.3	Control	0.6552	0.002	Yes	3.476	-0.002	4.0	GoodResponse	0	0.217	n/a	3	57	ButtonPress	Neutral	True
545.306	0.47	Control	0.6552	n/a	Yes	3.476	n/a	n/a	GoodResponse	0	n/a	n/a	3	57	Blank	Neutral	True
545.772	1.45	Control	0.6552	n/a	Yes	3.476	n/a	5.0	GoodResponse	0	0.006	544.778	3	57	Feedback	Neutral	True
547.222	3.476	Control	0.6552	n/a	Yes	3.476	n/a	n/a	GoodResponse	0	0.0	n/a	3	57	ISIslide	Neutral	True
550.72	0.25	Win2	0.6609999999999999	0.001	Yes	2.73	0.02	n/a	GoodResponse	1	n/a	n/a	4	58	Cue	Win	True
550.97	4.05	Win2	0.6609999999999999	0.0	Yes	2.73	0.0	n/a	GoodResponse	1	n/a	n/a	4	58	Fixation	Win	True
555.019	0.23	Win2	0.6609999999999999	0.001	Yes	2.73	-0.001	4.0	GoodResponse	1	0.229	554.248	4	58	Target	Win	True
555.248	0.3	Win2	0.6609999999999999	0.001	Yes	2.73	-0.001	4.0	GoodResponse	1	0.229	n/a	4	58	ButtonPress	Win	True
555.252	0.47	Win2	0.6609999999999999	n/a	Yes	2.73	n/a	n/a	GoodResponse	1	n/a	n/a	4	58	Blank	Win	True
555.719	1.45	Win2	0.6609999999999999	n/a	Yes	2.73	n/a	5.0	GoodResponse	1	0.007	554.726	4	58	Feedback	Win	True
557.168	2.73	Win2	0.6609999999999999	n/a	Yes	2.73	n/a	n/a	GoodResponse	1	0.0	n/a	4	58	ISIslide	Win	True
559.917	0.25	Lose2	0.65	0.0	No	2.683	0.017	n/a	LatePress	-1	n/a	n/a	3	59	Cue	Loss	True
560.167	4.0	Lose2	0.65	0.0	No	2.683	0.0	n/a	LatePress	-1	n/a	n/a	3	59	Fixation	Loss	True
564.166	0.23	Lose2	0.65	0.001	No	2.683	-0.001	4.0	LatePress	-1	0.232	563.398	3	59	Target	Loss	True
564.398	0.3	Lose2	0.65	0.001	No	2.683	-0.001	4.0	LatePress	-1	0.232	n/a	3	59	ButtonPress	Loss	True
564.399	0.47	Lose2	0.65	n/a	No	2.683	n/a	n/a	LatePress	-1	n/a	n/a	3	59	Blank	Loss	True
564.866	1.45	Lose2	0.65	n/a	No	2.683	n/a	5.0	LatePress	-1	0.031	563.897	3	59	Feedback	Loss	True
566.315	2.683	Lose2	0.65	n/a	No	2.683	n/a	n/a	LatePress	-1	0.0	n/a	3	59	ISIslide	Loss	True
569.014	0.25	Control	0.6557	0.0	Yes	2.686	0.014	n/a	GoodResponse	0	n/a	n/a	3	60	Cue	Neutral	False
569.264	4.0	Control	0.6557	0.0	Yes	2.686	0.0	4.0	GoodResponse	0	0.786	569.05	3	60	Fixation	Neutral	False
570.05	0.3	Control	0.6557	0.0	Yes	2.686	0.0	4.0	GoodResponse	0	0.786	n/a	3	60	ButtonPress	Neutral	False
573.263	0.24	Control	0.6557	0.001	Yes	2.686	-0.001	4.0	GoodResponse	0	0.178	572.441	3	60	Target	Neutral	False
573.441	0.3	Control	0.6557	0.001	Yes	2.686	-0.001	4.0	GoodResponse	0	0.178	n/a	3	60	ButtonPress	Neutral	False
573.513	0.46	Control	0.6557	n/a	Yes	2.686	n/a	n/a	GoodResponse	0	n/a	n/a	3	60	Blank	Neutral	False
573.962	1.45	Control	0.6557	n/a	Yes	2.686	n/a	5.0	GoodResponse	0	0.009	572.971	3	60	Feedback	Neutral	False
575.412	2.686	Control	0.6557	n/a	Yes	2.686	n/a	n/a	GoodResponse	0	0.0	n/a	3	60	ISIslide	Neutral	False
578.128	0.25	Lose2	0.6613	0.0	Yes	2.972	0.028	n/a	GoodResponse	0	n/a	n/a	3	61	Cue	AvoidedLoss	True
578.377	4.0	Lose2	0.6613	0.001	Yes	2.972	-0.001	n/a	GoodResponse	0	n/a	n/a	3	61	Fixation	AvoidedLoss	True
582.376	0.24	Lose2	0.6613	0.002	Yes	2.972	-0.002	4.0	GoodResponse	0	0.198	581.574	3	61	Target	AvoidedLoss	True
582.574	0.3	Lose2	0.6613	0.002	Yes	2.972	-0.002	4.0	GoodResponse	0	0.198	n/a	3	61	ButtonPress	AvoidedLoss	True
582.626	0.46	Lose2	0.6613	n/a	Yes	2.972	n/a	n/a	GoodResponse	0	n/a	n/a	3	61	Blank	AvoidedLoss	True
583.076	1.45	Lose2	0.6613	n/a	Yes	2.972	n/a	5.0	GoodResponse	0	0.017	582.093	3	61	Feedback	AvoidedLoss	True
584.525	2.972	Lose2	0.6613	n/a	Yes	2.972	n/a	n/a	GoodResponse	0	0.0	n/a	3	61	ISIslide	AvoidedLoss	True
587.524	0.25	Lose2	0.6667000000000001	0.0	Yes	2.876	0.024	n/a	GoodResponse	0	n/a	n/a	3	62	Cue	AvoidedLoss	True
587.774	3.9	Lose2	0.6667000000000001	0.0	Yes	2.876	0.0	n/a	GoodResponse	0	n/a	n/a	3	62	Fixation	AvoidedLoss	True
591.673	0.24	Lose2	0.6667000000000001	0.001	Yes	2.876	-0.001	4.0	GoodResponse	0	0.196	590.869	3	62	Target	AvoidedLoss	True
591.869	0.3	Lose2	0.6667000000000001	0.001	Yes	2.876	-0.001	4.0	GoodResponse	0	0.196	n/a	3	62	ButtonPress	AvoidedLoss	True
591.923	0.46	Lose2	0.6667000000000001	n/a	Yes	2.876	n/a	n/a	GoodResponse	0	n/a	n/a	3	62	Blank	AvoidedLoss	True
592.373	1.45	Lose2	0.6667000000000001	n/a	Yes	2.876	n/a	5.0	GoodResponse	0	0.037	591.41	3	62	Feedback	AvoidedLoss	True
593.822	2.876	Lose2	0.6667000000000001	n/a	Yes	2.876	n/a	n/a	GoodResponse	0	0.0	n/a	3	62	ISIslide	AvoidedLoss	True
596.721	0.25	Lose2	0.6718999999999999	0.0	Yes	2.629	0.021	n/a	GoodResponse	0	n/a	n/a	3	63	Cue	AvoidedLoss	True
596.971	4.05	Lose2	0.6718999999999999	0.0	Yes	2.629	0.0	n/a	GoodResponse	0	n/a	n/a	3	63	Fixation	AvoidedLoss	True
601.02	0.23	Lose2	0.6718999999999999	0.001	Yes	2.629	-0.001	4.0	GoodResponse	0	0.199	600.219	3	63	Target	AvoidedLoss	True
601.219	0.3	Lose2	0.6718999999999999	0.001	Yes	2.629	-0.001	4.0	GoodResponse	0	0.199	n/a	3	63	ButtonPress	AvoidedLoss	True
601.253	0.47	Lose2	0.6718999999999999	n/a	Yes	2.629	n/a	n/a	GoodResponse	0	n/a	n/a	3	63	Blank	AvoidedLoss	True
601.719	1.45	Lose2	0.6718999999999999	n/a	Yes	2.629	n/a	5.0	GoodResponse	0	0.008	600.727	3	63	Feedback	AvoidedLoss	True
603.169	2.629	Lose2	0.6718999999999999	n/a	Yes	2.629	n/a	n/a	GoodResponse	0	0.0	n/a	3	63	ISIslide	AvoidedLoss	True
605.818	0.25	Win2	0.6769	0.0	Yes	3.132	0.018	n/a	GoodResponse	1	n/a	n/a	4	64	Cue	Win	True
606.068	4.15	Win2	0.6769	0.0	Yes	3.132	0.0	n/a	GoodResponse	1	n/a	n/a	4	64	Fixation	Win	True
610.216	0.22	Win2	0.6769	0.002	Yes	3.132	-0.002	4.0	GoodResponse	1	0.211	609.427	4	64	Target	Win	True
610.427	0.3	Win2	0.6769	0.002	Yes	3.132	-0.002	4.0	GoodResponse	1	0.211	n/a	4	64	ButtonPress	Win	True
610.45	0.48	Win2	0.6769	n/a	Yes	3.132	n/a	n/a	GoodResponse	1	n/a	n/a	4	64	Blank	Win	True
610.916	1.45	Win2	0.6769	n/a	Yes	3.132	n/a	5.0	GoodResponse	1	0.03	609.946	4	64	Feedback	Win	True
612.366	3.132	Win2	0.6769	n/a	Yes	3.132	n/a	n/a	GoodResponse	1	0.0	n/a	4	64	ISIslide	Win	True
615.515	0.25	Control	0.6667000000000001	0.0	No	2.785	0.015	n/a	NoResponse	0	n/a	n/a	4	65	Cue	Neutral	True
615.764	4.0	Control	0.6667000000000001	0.001	No	2.785	-0.001	n/a	NoResponse	0	n/a	n/a	4	65	Fixation	Neutral	True
619.763	0.21	Control	0.6667000000000001	0.002	No	2.785	-0.002	4.0	NoResponse	0	0.217	618.98	4	65	Target	Neutral	True
619.98	0.49	Control	0.6667000000000001	n/a	No	2.785	n/a	n/a	NoResponse	0	n/a	n/a	4	65	Blank	Neutral	True
619.98	0.3	Control	0.6667000000000001	0.002	No	2.785	-0.002	4.0	NoResponse	0	0.217	n/a	4	65	ButtonPress	Neutral	True
620.463	1.45	Control	0.6667000000000001	n/a	No	2.785	n/a	5.0	NoResponse	0	0.044	619.507	4	65	Feedback	Neutral	True
621.912	2.785	Control	0.6667000000000001	n/a	No	2.785	n/a	n/a	NoResponse	0	0.0	n/a	4	65	ISIslide	Neutral	True
624.728	0.25	Win2	0.6567000000000001	0.0	No	2.772	0.028	n/a	NoResponse	0	n/a	n/a	4	66	Cue	MissedWin	True
624.978	3.9	Win2	0.6567000000000001	0.0	No	2.772	0.0	n/a	NoResponse	0	n/a	n/a	4	66	Fixation	MissedWin	True
628.877	0.2	Win2	0.6567000000000001	0.001	No	2.772	-0.001	4.0	NoResponse	0	0.206	628.083	4	66	Target	MissedWin	True
629.076	0.5	Win2	0.6567000000000001	n/a	No	2.772	n/a	n/a	NoResponse	0	n/a	n/a	4	66	Blank	MissedWin	True
629.083	0.3	Win2	0.6567000000000001	0.001	No	2.772	-0.001	4.0	NoResponse	0	0.206	n/a	4	66	ButtonPress	MissedWin	True
629.576	1.45	Win2	0.6567000000000001	n/a	No	2.772	n/a	5.0	NoResponse	0	0.004	628.58	4	66	Feedback	MissedWin	True
631.026	2.772	Win2	0.6567000000000001	n/a	No	2.772	n/a	n/a	NoResponse	0	0.0	n/a	4	66	ISIslide	MissedWin	True
633.825	0.25	Control	0.6470999999999999	0.0	No	2.725	0.025	n/a	NoResponse	0	n/a	n/a	4	67	Cue	Neutral	True
634.075	3.95	Control	0.6470999999999999	0.0	No	2.725	0.0	n/a	NoResponse	0	n/a	n/a	4	67	Fixation	Neutral	True
638.023	0.2	Control	0.6470999999999999	0.002	No	2.725	-0.002	4.0	NoResponse	0	0.264	637.287	4	67	Target	Neutral	True
638.223	0.5	Control	0.6470999999999999	n/a	No	2.725	n/a	n/a	NoResponse	0	n/a	n/a	4	67	Blank	Neutral	True
638.287	0.3	Control	0.6470999999999999	0.002	No	2.725	-0.002	4.0	NoResponse	0	0.264	n/a	4	67	ButtonPress	Neutral	True
638.723	1.45	Control	0.6470999999999999	n/a	No	2.725	n/a	5.0	NoResponse	0	0.028	637.751	4	67	Feedback	Neutral	True
640.173	2.725	Control	0.6470999999999999	n/a	No	2.725	n/a	n/a	NoResponse	0	0.0	n/a	4	67	ISIslide	Neutral	True
642.922	0.25	Win2	0.6377	0.0	No	3.078	0.022	n/a	LatePress	0	n/a	n/a	4	68	Cue	MissedWin	True
643.172	4.0	Win2	0.6377	0.0	No	3.078	0.0	n/a	LatePress	0	n/a	n/a	4	68	Fixation	MissedWin	True
647.17	0.21	Win2	0.6377	0.002	No	3.078	-0.002	4.0	LatePress	0	0.21	646.38	4	68	Target	MissedWin	True
647.38	0.3	Win2	0.6377	0.002	No	3.078	-0.002	4.0	LatePress	0	0.21	n/a	4	68	ButtonPress	MissedWin	True
647.387	0.49	Win2	0.6377	n/a	No	3.078	n/a	n/a	LatePress	0	n/a	n/a	4	68	Blank	MissedWin	True
647.87	1.45	Win2	0.6377	n/a	No	3.078	n/a	5.0	LatePress	0	0.004	646.874	4	68	Feedback	MissedWin	True
649.319	3.078	Win2	0.6377	n/a	No	3.078	n/a	n/a	LatePress	0	0.0	n/a	4	68	ISIslide	MissedWin	True
652.418	0.25	Win2	0.6429	0.0	Yes	3.232	0.018	n/a	GoodResponse	1	n/a	n/a	5	69	Cue	Win	True
652.668	3.95	Win2	0.6429	0.0	Yes	3.232	0.0	n/a	GoodResponse	1	n/a	n/a	5	69	Fixation	Win	True
656.617	0.22	Win2	0.6429	0.001	Yes	3.232	-0.001	4.0	GoodResponse	1	0.203	655.82	5	69	Target	Win	True
656.82	0.3	Win2	0.6429	0.001	Yes	3.232	-0.001	4.0	GoodResponse	1	0.203	n/a	5	69	ButtonPress	Win	True
656.833	0.48	Win2	0.6429	n/a	Yes	3.232	n/a	n/a	GoodResponse	1	n/a	n/a	5	69	Blank	Win	True
657.317	1.45	Win2	0.6429	n/a	Yes	3.232	n/a	5.0	GoodResponse	1	0.019	656.336	5	69	Feedback	Win	True
658.766	3.232	Win2	0.6429	n/a	Yes	3.232	n/a	n/a	GoodResponse	1	0.0	n/a	5	69	ISIslide	Win	True
662.015	0.25	Lose2	0.6479	0.0	Yes	3.035	0.015	n/a	GoodResponse	0	n/a	n/a	5	70	Cue	AvoidedLoss	True
662.265	4.05	Lose2	0.6479	0.0	Yes	3.035	0.0	n/a	GoodResponse	0	n/a	n/a	5	70	Fixation	AvoidedLoss	True
666.313	0.23	Lose2	0.6479	0.002	Yes	3.035	-0.002	4.0	GoodResponse	0	0.193	665.506	5	70	Target	AvoidedLoss	True
666.506	0.3	Lose2	0.6479	0.002	Yes	3.035	-0.002	4.0	GoodResponse	0	0.193	n/a	5	70	ButtonPress	AvoidedLoss	True
666.547	0.47	Lose2	0.6479	n/a	Yes	3.035	n/a	n/a	GoodResponse	0	n/a	n/a	5	70	Blank	AvoidedLoss	True
667.013	1.45	Lose2	0.6479	n/a	Yes	3.035	n/a	5.0	GoodResponse	0	0.03	666.043	5	70	Feedback	AvoidedLoss	True
668.463	3.035	Lose2	0.6479	n/a	Yes	3.035	n/a	n/a	GoodResponse	0	0.0	n/a	5	70	ISIslide	AvoidedLoss	True
671.512	0.25	Win2	0.6528	0.0	Yes	2.738	0.012	n/a	GoodResponse	1	n/a	n/a	6	71	Cue	Win	False
671.762	4.05	Win2	0.6528	0.0	Yes	2.738	0.0	4.0	GoodResponse	1	4.047	674.809	6	71	Fixation	Win	False
675.809	0.3	Win2	0.6528	0.0	Yes	2.738	0.0	4.0	GoodResponse	1	4.047	n/a	6	71	ButtonPress	Win	False
675.81	0.24	Win2	0.6528	0.002	Yes	2.738	-0.002	4.0	GoodResponse	1	0.202	675.012	6	71	Target	Win	False
676.012	0.3	Win2	0.6528	0.002	Yes	2.738	-0.002	4.0	GoodResponse	1	0.202	n/a	6	71	ButtonPress	Win	False
676.06	0.46	Win2	0.6528	n/a	Yes	2.738	n/a	n/a	GoodResponse	1	n/a	n/a	6	71	Blank	Win	False
676.51	1.45	Win2	0.6528	n/a	Yes	2.738	n/a	5.0	GoodResponse	1	0.045	675.555	6	71	Feedback	Win	False
677.959	2.738	Win2	0.6528	n/a	Yes	2.738	n/a	n/a	GoodResponse	1	0.0	n/a	6	71	ISIslide	Win	False
680.725	0.25	Win2	0.6575	0.0	Yes	2.775	0.025	n/a	GoodResponse	1	n/a	n/a	7	72	Cue	Win	True
680.975	4.1	Win2	0.6575	0.0	Yes	2.775	0.0	n/a	GoodResponse	1	n/a	n/a	7	72	Fixation	Win	True
685.074	0.25	Win2	0.6575	0.001	Yes	2.775	-0.001	4.0	GoodResponse	1	0.206	684.28	7	72	Target	Win	True
685.28	0.3	Win2	0.6575	0.001	Yes	2.775	-0.001	4.0	GoodResponse	1	0.206	n/a	7	72	ButtonPress	Win	True
685.324	0.45	Win2	0.6575	n/a	Yes	2.775	n/a	n/a	GoodResponse	1	n/a	n/a	7	72	Blank	Win	True
685.773	1.45	Win2	0.6575	n/a	Yes	2.775	n/a	5.0	GoodResponse	1	0.002	684.775	7	72	Feedback	Win	True
687.223	2.775	Win2	0.6575	n/a	Yes	2.775	n/a	n/a	GoodResponse	1	0.0	n/a	7	72	ISIslide	Win	True
690.022	0.25	Win2	0.6622	0.0	Yes	2.678	0.022	n/a	GoodResponse	1	n/a	n/a	8	73	Cue	Win	True
690.272	4.0	Win2	0.6622	0.0	Yes	2.678	0.0	n/a	GoodResponse	1	n/a	n/a	8	73	Fixation	Win	True
694.27	0.25	Win2	0.6622	0.002	Yes	2.678	-0.002	4.0	GoodResponse	1	0.166	693.436	8	73	Target	Win	True
694.436	0.3	Win2	0.6622	0.002	Yes	2.678	-0.002	4.0	GoodResponse	1	0.166	n/a	8	73	ButtonPress	Win	True
694.52	0.45	Win2	0.6622	n/a	Yes	2.678	n/a	n/a	GoodResponse	1	n/a	n/a	8	73	Blank	Win	True
694.97	1.45	Win2	0.6622	n/a	Yes	2.678	n/a	5.0	GoodResponse	1	0.025	693.995	8	73	Feedback	Win	True
696.42	2.678	Win2	0.6622	n/a	Yes	2.678	n/a	n/a	GoodResponse	1	0.0	n/a	8	73	ISIslide	Win	True
699.119	0.25	Lose2	0.6667000000000001	0.0	Yes	2.631	0.019	n/a	GoodResponse	0	n/a	n/a	8	74	Cue	AvoidedLoss	True
699.369	4.05	Lose2	0.6667000000000001	0.0	Yes	2.631	0.0	n/a	GoodResponse	0	n/a	n/a	8	74	Fixation	AvoidedLoss	True
703.417	0.25	Lose2	0.6667000000000001	0.002	Yes	2.631	-0.002	4.0	GoodResponse	0	0.205	702.622	8	74	Target	AvoidedLoss	True
703.622	0.3	Lose2	0.6667000000000001	0.002	Yes	2.631	-0.002	4.0	GoodResponse	0	0.205	n/a	8	74	ButtonPress	AvoidedLoss	True
703.667	0.45	Lose2	0.6667000000000001	n/a	Yes	2.631	n/a	n/a	GoodResponse	0	n/a	n/a	8	74	Blank	AvoidedLoss	True
704.117	1.45	Lose2	0.6667000000000001	n/a	Yes	2.631	n/a	5.0	GoodResponse	0	0.048	703.165	8	74	Feedback	AvoidedLoss	True
705.566	2.631	Lose2	0.6667000000000001	n/a	Yes	2.631	n/a	n/a	GoodResponse	0	0.0	n/a	8	74	ISIslide	AvoidedLoss	True
708.216	0.25	Lose2	0.6579	0.0	No	2.934	0.016	n/a	NoResponse	-1	n/a	n/a	7	75	Cue	Loss	True
708.465	3.95	Lose2	0.6579	0.001	No	2.934	-0.001	n/a	NoResponse	-1	n/a	n/a	7	75	Fixation	Loss	True
712.414	0.24	Lose2	0.6579	0.002	No	2.934	-0.002	4.0	NoResponse	-1	0.257	711.671	7	75	Target	Loss	True
712.664	0.46	Lose2	0.6579	n/a	No	2.934	n/a	n/a	NoResponse	-1	n/a	n/a	7	75	Blank	Loss	True
712.671	0.3	Lose2	0.6579	0.002	No	2.934	-0.002	4.0	NoResponse	-1	0.257	n/a	7	75	ButtonPress	Loss	True
713.114	1.45	Lose2	0.6579	n/a	No	2.934	n/a	5.0	NoResponse	-1	0.026	712.14	7	75	Feedback	Loss	True
714.563	2.934	Lose2	0.6579	n/a	No	2.934	n/a	n/a	NoResponse	-1	0.0	n/a	7	75	ISIslide	Loss	True
717.512	0.25	Control	0.6623	0.0	Yes	3.238	0.012	n/a	GoodResponse	0	n/a	n/a	7	76	Cue	Neutral	True
717.762	4.05	Control	0.6623	0.0	Yes	3.238	0.0	n/a	GoodResponse	0	n/a	n/a	7	76	Fixation	Neutral	True
721.811	0.24	Control	0.6623	0.001	Yes	3.238	-0.001	4.0	GoodResponse	0	0.195	721.006	7	76	Target	Neutral	True
722.006	0.3	Control	0.6623	0.001	Yes	3.238	-0.001	4.0	GoodResponse	0	0.195	n/a	7	76	ButtonPress	Neutral	True
722.061	0.46	Control	0.6623	n/a	Yes	3.238	n/a	n/a	GoodResponse	0	n/a	n/a	7	76	Blank	Neutral	True
722.511	1.45	Control	0.6623	n/a	Yes	3.238	n/a	5.0	GoodResponse	0	0.044	721.555	7	76	Feedback	Neutral	True
723.96	3.238	Control	0.6623	n/a	Yes	3.238	n/a	n/a	GoodResponse	0	0.0	n/a	7	76	ISIslide	Neutral	True
727.226	0.25	Lose2	0.6537999999999999	0.0	No	2.574	0.026	n/a	LatePress	-1	n/a	n/a	6	77	Cue	Loss	True
727.475	3.95	Lose2	0.6537999999999999	0.001	No	2.574	-0.001	n/a	LatePress	-1	n/a	n/a	6	77	Fixation	Loss	True
731.424	0.24	Lose2	0.6537999999999999	0.002	No	2.574	-0.002	4.0	LatePress	-1	0.248	730.672	6	77	Target	Loss	True
731.672	0.3	Lose2	0.6537999999999999	0.002	No	2.574	-0.002	4.0	LatePress	-1	0.248	n/a	6	77	ButtonPress	Loss	True
731.674	0.46	Lose2	0.6537999999999999	n/a	No	2.574	n/a	n/a	LatePress	-1	n/a	n/a	6	77	Blank	Loss	True
732.124	1.45	Lose2	0.6537999999999999	n/a	No	2.574	n/a	5.0	LatePress	-1	0.041	731.165	6	77	Feedback	Loss	True
733.573	2.574	Lose2	0.6537999999999999	n/a	No	2.574	n/a	n/a	LatePress	-1	0.0	n/a	6	77	ISIslide	Loss	True
