onset	duration	cue_type	current_mean_accuracy	duration_error	is_hit	isi_adjusted	onset_delay	response	response_type	reward	rt	rt_time	total_reward	trial_number	trial_phase	trial_type	one_press
11.108	0.25	Control	1.0	0.0	Yes	2.942	0.008	n/a	GoodResponse	0	n/a	n/a	0	0	Cue	Neutral	True
11.359	3.85	Control	1.0	0.0	Yes	2.942	0.001	n/a	GoodResponse	0	n/a	n/a	0	0	Fixation	Neutral	True
15.22	0.4	Control	1.0	0.0	Yes	2.942	0.012	2.0	GoodResponse	0	0.179	14.399	0	0	Target	Neutral	True
15.399	0.3	Control	1.0	0.0	Yes	2.942	0.012	2.0	GoodResponse	0	0.179	n/a	0	0	ButtonPress	Neutral	True
15.605	0.3	Control	1.0	n/a	Yes	2.942	n/a	n/a	GoodResponse	0	n/a	n/a	0	0	Blank	Neutral	True
15.906	1.45	Control	1.0	n/a	Yes	2.942	n/a	5.0	GoodResponse	0	0.021	14.927	0	0	Feedback	Neutral	True
17.36	2.942	Control	1.0	n/a	Yes	2.942	n/a	n/a	GoodResponse	0	0.0	n/a	0	0	ISIslide	Neutral	True
20.319	0.25	Lose2	1.0	0.0	Yes	2.781	0.019	n/a	GoodResponse	0	n/a	n/a	0	1	Cue	AvoidedLoss	True
20.569	4.0	Lose2	1.0	0.001	Yes	2.781	0.0	n/a	GoodResponse	0	n/a	n/a	0	1	Fixation	AvoidedLoss	True
24.565	0.39	Lose2	1.0	0.004	Yes	2.781	-0.004	2.0	GoodResponse	0	0.163	23.728	0	1	Target	AvoidedLoss	True
24.728	0.3	Lose2	1.0	0.004	Yes	2.781	-0.004	2.0	GoodResponse	0	0.163	n/a	0	1	ButtonPress	AvoidedLoss	True
24.966	0.31	Lose2	1.0	n/a	Yes	2.781	n/a	n/a	GoodResponse	0	n/a	n/a	0	1	Blank	AvoidedLoss	True
25.267	1.45	Lose2	1.0	n/a	Yes	2.781	n/a	5.0	GoodResponse	0	0.026	24.293	0	1	Feedback	AvoidedLoss	True
26.721	2.781	Lose2	1.0	n/a	Yes	2.781	n/a	n/a	GoodResponse	0	0.0	n/a	0	1	ISIslide	AvoidedLoss	True
29.53	0.25	Control	1.0	0.0	Yes	2.57	0.03	n/a	GoodResponse	0	n/a	n/a	0	2	Cue	Neutral	True
29.78	4.1	Control	1.0	0.0	Yes	2.57	0.0	n/a	GoodResponse	0	n/a	n/a	0	2	Fixation	Neutral	True
33.876	0.38	Control	1.0	0.004	Yes	2.57	-0.004	2.0	GoodResponse	0	0.183	33.059	0	2	Target	Neutral	True
34.059	0.3	Control	1.0	0.004	Yes	2.57	-0.004	2.0	GoodResponse	0	0.183	n/a	0	2	ButtonPress	Neutral	True
34.26	0.32	Control	1.0	n/a	Yes	2.57	n/a	n/a	GoodResponse	0	n/a	n/a	0	2	Blank	Neutral	True
34.578	1.45	Control	1.0	n/a	Yes	2.57	n/a	5.0	GoodResponse	0	0.032	33.61	0	2	Feedback	Neutral	True
36.032	2.57	Control	1.0	n/a	Yes	2.57	n/a	n/a	GoodResponse	0	0.0	n/a	0	2	ISIslide	Neutral	True
38.624	0.25	Win2	1.0	0.0	Yes	2.826	0.024	n/a	GoodResponse	1	n/a	n/a	1	3	Cue	Win	False
38.874	3.95	Win2	1.0	0.0	Yes	2.826	0.0	2.0	GoodResponse	1	3.619	41.493	1	3	Fixation	Win	False
42.493	0.3	Win2	1.0	0.0	Yes	2.826	0.0	2.0	GoodResponse	1	3.619	n/a	1	3	ButtonPress	Win	False
42.836	0.37	Win2	1.0	0.0	Yes	2.826	0.012	2.0	GoodResponse	1	0.168	42.004	1	3	Target	Win	False
43.004	0.3	Win2	1.0	0.0	Yes	2.826	0.012	2.0	GoodResponse	1	0.168	n/a	1	3	ButtonPress	Win	False
43.204	0.33	Win2	1.0	n/a	Yes	2.826	n/a	n/a	GoodResponse	1	n/a	n/a	1	3	Blank	Win	False
43.522	1.45	Win2	1.0	n/a	Yes	2.826	n/a	5.0	GoodResponse	1	0.014	42.536	1	3	Feedback	Win	False
44.976	2.826	Win2	1.0	n/a	Yes	2.826	n/a	n/a	GoodResponse	1	0.0	n/a	1	3	ISIslide	Win	False
47.818	0.25	Win2	0.8	0.0	No	3.282	0.018	n/a	NoResponse	0	n/a	n/a	1	4	Cue	MissedWin	False
48.068	4.0	Win2	0.8	0.001	No	3.282	0.0	2.0	NoResponse	0	3.943	51.011	1	4	Fixation	MissedWin	False
52.011	0.3	Win2	0.8	0.001	No	3.282	0.0	2.0	NoResponse	0	3.943	n/a	1	4	ButtonPress	MissedWin	False
52.064	0.36	Win2	0.8	0.004	No	3.282	-0.004	2.0	NoResponse	0	0.408	51.472	1	4	Target	MissedWin	False
52.432	0.34	Win2	0.8	n/a	No	3.282	n/a	n/a	NoResponse	0	n/a	n/a	1	4	Blank	MissedWin	False
52.472	0.3	Win2	0.8	0.004	No	3.282	-0.004	2.0	NoResponse	0	0.408	n/a	1	4	ButtonPress	MissedWin	False
52.766	1.45	Win2	0.8	n/a	No	3.282	n/a	5.0	NoResponse	0	0.038	51.804	1	4	Feedback	MissedWin	False
54.22	3.282	Win2	0.8	n/a	No	3.282	n/a	n/a	NoResponse	0	0.0	n/a	1	4	ISIslide	MissedWin	False
57.53	0.25	Win2	0.8332999999999999	0.0	Yes	2.77	0.03	n/a	GoodResponse	1	n/a	n/a	2	5	Cue	Win	True
57.781	4.0	Win2	0.8332999999999999	0.0	Yes	2.77	0.001	n/a	GoodResponse	1	n/a	n/a	2	5	Fixation	Win	True
61.776	0.35	Win2	0.8332999999999999	0.004	Yes	2.77	-0.004	2.0	GoodResponse	1	0.255	61.031	2	5	Target	Win	True
62.031	0.3	Win2	0.8332999999999999	0.004	Yes	2.77	-0.004	2.0	GoodResponse	1	0.255	n/a	2	5	ButtonPress	Win	True
62.127	0.35	Win2	0.8332999999999999	n/a	Yes	2.77	n/a	n/a	GoodResponse	1	n/a	n/a	2	5	Blank	Win	True
62.478	1.45	Win2	0.8332999999999999	n/a	Yes	2.77	n/a	5.0	GoodResponse	1	0.033	61.511	2	5	Feedback	Win	True
63.933	2.77	Win2	0.8332999999999999	n/a	Yes	2.77	n/a	n/a	GoodResponse	1	0.0	n/a	2	5	ISIslide	Win	True
66.724	0.25	Lose2	0.8571	0.0	Yes	2.726	0.024	n/a	GoodResponse	0	n/a	n/a	2	6	Cue	AvoidedLoss	True
66.975	3.95	Lose2	0.8571	0.0	Yes	2.726	0.001	n/a	GoodResponse	0	n/a	n/a	2	6	Fixation	AvoidedLoss	True
70.92	0.34	Lose2	0.8571	0.004	Yes	2.726	-0.004	2.0	GoodResponse	0	0.181	70.101	2	6	Target	AvoidedLoss	True
71.101	0.3	Lose2	0.8571	0.004	Yes	2.726	-0.004	2.0	GoodResponse	0	0.181	n/a	2	6	ButtonPress	AvoidedLoss	True
71.271	0.36	Lose2	0.8571	n/a	Yes	2.726	n/a	n/a	GoodResponse	0	n/a	n/a	2	6	Blank	AvoidedLoss	True
71.622	1.45	Lose2	0.8571	n/a	Yes	2.726	n/a	5.0	GoodResponse	0	0.012	70.634	2	6	Feedback	AvoidedLoss	True
73.077	2.726	Lose2	0.8571	n/a	Yes	2.726	n/a	n/a	GoodResponse	0	0.0	n/a	2	6	ISIslide	AvoidedLoss	True
75.818	0.25	Lose2	0.75	0.0	No	4.032	0.018	n/a	NoResponse	-1	n/a	n/a	1	7	Cue	Loss	True
76.069	4.05	Lose2	0.75	0.0	No	4.032	0.001	n/a	NoResponse	-1	n/a	n/a	1	7	Fixation	Loss	True
80.114	0.33	Lose2	0.75	0.004	No	4.032	-0.004	2.0	NoResponse	-1	0.494	79.608	1	7	Target	Loss	True
80.449	0.37	Lose2	0.75	n/a	No	4.032	n/a	n/a	NoResponse	-1	n/a	n/a	1	7	Blank	Loss	True
80.608	0.3	Lose2	0.75	0.004	No	4.032	-0.004	2.0	NoResponse	-1	0.494	n/a	1	7	ButtonPress	Loss	True
80.816	1.45	Lose2	0.75	n/a	No	4.032	n/a	5.0	NoResponse	-1	0.037	79.853	1	7	Feedback	Loss	True
82.271	4.032	Lose2	0.75	n/a	No	4.032	n/a	n/a	NoResponse	-1	0.0	n/a	1	7	ISIslide	Loss	True
86.316	0.25	Lose2	0.7778	0.0	Yes	3.034	0.016	n/a	GoodResponse	0	n/a	n/a	1	8	Cue	AvoidedLoss	True
86.567	3.95	Lose2	0.7778	0.0	Yes	3.034	0.001	n/a	GoodResponse	0	n/a	n/a	1	8	Fixation	AvoidedLoss	True
90.512	0.32	Lose2	0.7778	0.004	Yes	3.034	-0.004	2.0	GoodResponse	0	0.176	89.688	1	8	Target	AvoidedLoss	True
90.688	0.3	Lose2	0.7778	0.004	Yes	3.034	-0.004	2.0	GoodResponse	0	0.176	n/a	1	8	ButtonPress	AvoidedLoss	True
90.846	0.38	Lose2	0.7778	n/a	Yes	3.034	n/a	n/a	GoodResponse	0	n/a	n/a	1	8	Blank	AvoidedLoss	True
91.214	1.45	Lose2	0.7778	n/a	Yes	3.034	n/a	5.0	GoodResponse	0	0.029	90.243	1	8	Feedback	AvoidedLoss	True
92.669	3.034	Lose2	0.7778	n/a	Yes	3.034	n/a	n/a	GoodResponse	0	0.0	n/a	1	8	ISIslide	AvoidedLoss	True
95.728	0.25	Lose2	0.8	0.0	Yes	3.122	0.028	n/a	GoodResponse	0	n/a	n/a	1	9	Cue	AvoidedLoss	True
95.979	3.95	Lose2	0.8	0.0	Yes	3.122	0.001	n/a	GoodResponse	0	n/a	n/a	1	9	Fixation	AvoidedLoss	True
99.924	0.31	Lose2	0.8	0.004	Yes	3.122	-0.004	2.0	GoodResponse	0	0.224	99.148	1	9	Target	AvoidedLoss	True
100.148	0.3	Lose2	0.8	0.004	Yes	3.122	-0.004	2.0	GoodResponse	0	0.224	n/a	1	9	ButtonPress	AvoidedLoss	True
100.241	0.39	Lose2	0.8	n/a	Yes	3.122	n/a	n/a	GoodResponse	0	n/a	n/a	1	9	Blank	AvoidedLoss	True
100.626	1.45	Lose2	0.8	n/a	Yes	3.122	n/a	5.0	GoodResponse	0	0.031	99.657	1	9	Feedback	AvoidedLoss	True
102.08	3.122	Lose2	0.8	n/a	Yes	3.122	n/a	n/a	GoodResponse	0	0.0	n/a	1	9	ISIslide	AvoidedLoss	True
105.223	0.25	Control	0.8181999999999999	0.0	Yes	3.277	0.023	n/a	GoodResponse	0	n/a	n/a	1	10	Cue	Neutral	True
105.474	4.0	Control	0.8181999999999999	0.0	Yes	3.277	0.001	n/a	GoodResponse	0	n/a	n/a	1	10	Fixation	Neutral	True
109.469	0.3	Control	0.8181999999999999	0.004	Yes	3.277	-0.004	2.0	GoodResponse	0	0.19	108.659	1	10	Target	Neutral	True
109.659	0.3	Control	0.8181999999999999	0.004	Yes	3.277	-0.004	2.0	GoodResponse	0	0.19	n/a	1	10	ButtonPress	Neutral	True
109.77	0.4	Control	0.8181999999999999	n/a	Yes	3.277	n/a	n/a	GoodResponse	0	n/a	n/a	1	10	Blank	Neutral	True
110.171	1.45	Control	0.8181999999999999	n/a	Yes	3.277	n/a	5.0	GoodResponse	0	0.047	109.218	1	10	Feedback	Neutral	True
111.625	3.277	Control	0.8181999999999999	n/a	Yes	3.277	n/a	n/a	GoodResponse	0	0.0	n/a	1	10	ISIslide	Neutral	True
114.919	0.25	Lose2	0.8332999999999999	0.0	Yes	2.731	0.019	n/a	GoodResponse	0	n/a	n/a	1	11	Cue	AvoidedLoss	True
115.169	4.05	Lose2	0.8332999999999999	0.0	Yes	2.731	0.0	n/a	GoodResponse	0	n/a	n/a	1	11	Fixation	AvoidedLoss	True
119.215	0.29	Lose2	0.8332999999999999	0.004	Yes	2.731	-0.004	2.0	GoodResponse	0	0.181	118.396	1	11	Target	AvoidedLoss	True
119.396	0.3	Lose2	0.8332999999999999	0.004	Yes	2.731	-0.004	2.0	GoodResponse	0	0.181	n/a	1	11	ButtonPress	AvoidedLoss	True
119.516	0.41	Lose2	0.8332999999999999	n/a	Yes	2.731	n/a	n/a	GoodResponse	0	n/a	n/a	1	11	Blank	AvoidedLoss	True
119.917	1.45	Lose2	0.8332999999999999	n/a	Yes	2.731	n/a	5.0	GoodResponse	0	0.009	118.926	1	11	Feedback	AvoidedLoss	True
121.371	2.731	Lose2	0.8332999999999999	n/a	Yes	2.731	n/a	n/a	GoodResponse	0	0.0	n/a	1	11	ISIslide	AvoidedLoss	True
124.129	0.25	Control	0.8462000000000001	0.001	Yes	2.971	0.029	n/a	GoodResponse	0	n/a	n/a	1	12	Cue	Neutral	True
124.38	3.9	Control	0.8462000000000001	0.0	Yes	2.971	0.001	n/a	GoodResponse	0	n/a	n/a	1	12	Fixation	Neutral	True
128.275	0.28	Control	0.8462000000000001	0.004	Yes	2.971	-0.004	2.0	GoodResponse	0	0.189	127.464	1	12	Target	Neutral	True
128.464	0.3	Control	0.8462000000000001	0.004	Yes	2.971	-0.004	2.0	GoodResponse	0	0.189	n/a	1	12	ButtonPress	Neutral	True
128.559	0.42	Control	0.8462000000000001	n/a	Yes	2.971	n/a	n/a	GoodResponse	0	n/a	n/a	1	12	Blank	Neutral	True
128.977	1.45	Control	0.8462000000000001	n/a	Yes	2.971	n/a	5.0	GoodResponse	0	0.022	127.999	1	12	Feedback	Neutral	True
130.432	2.971	Control	0.8462000000000001	n/a	Yes	2.971	n/a	n/a	GoodResponse	0	0.0	n/a	1	12	ISIslide	Neutral	True
133.424	0.25	Control	0.8571	0.0	Yes	2.776	0.024	n/a	GoodResponse	0	n/a	n/a	1	13	Cue	Neutral	True
133.675	4.0	Control	0.8571	0.0	Yes	2.776	0.001	n/a	GoodResponse	0	n/a	n/a	1	13	Fixation	Neutral	True
137.67	0.27	Control	0.8571	0.004	Yes	2.776	-0.004	2.0	GoodResponse	0	0.187	136.857	1	13	Target	Neutral	True
137.857	0.3	Control	0.8571	0.004	Yes	2.776	-0.004	2.0	GoodResponse	0	0.187	n/a	1	13	ButtonPress	Neutral	True
137.954	0.43	Control	0.8571	n/a	Yes	2.776	n/a	n/a	GoodResponse	0	n/a	n/a	1	13	Blank	Neutral	True
138.372	1.45	Control	0.8571	n/a	Yes	2.776	n/a	5.0	GoodResponse	0	0.042	137.414	1	13	Feedback	Neutral	True
139.826	2.776	Control	0.8571	n/a	Yes	2.776	n/a	n/a	GoodResponse	0	0.0	n/a	1	13	ISIslide	Neutral	True
142.618	0.25	Win2	0.8667	0.0	Yes	2.682	0.018	n/a	GoodResponse	1	n/a	n/a	2	14	Cue	Win	True
142.869	4.1	Win2	0.8667	0.0	Yes	2.682	0.001	n/a	GoodResponse	1	n/a	n/a	2	14	Fixation	Win	True
146.964	0.26	Win2	0.8667	0.004	Yes	2.682	-0.004	2.0	GoodResponse	1	0.174	146.138	2	14	Target	Win	True
147.138	0.3	Win2	0.8667	0.004	Yes	2.682	-0.004	2.0	GoodResponse	1	0.174	n/a	2	14	ButtonPress	Win	True
147.232	0.44	Win2	0.8667	n/a	Yes	2.682	n/a	n/a	GoodResponse	1	n/a	n/a	2	14	Blank	Win	True
147.667	1.45	Win2	0.8667	n/a	Yes	2.682	n/a	5.0	GoodResponse	1	0.014	146.681	2	14	Feedback	Win	True
149.121	2.682	Win2	0.8667	n/a	Yes	2.682	n/a	n/a	GoodResponse	1	0.0	n/a	2	14	ISIslide	Win	True
151.829	0.25	Control	0.875	0.0	Yes	2.971	0.029	n/a	GoodResponse	0	n/a	n/a	2	15	Cue	Neutral	True
152.08	4.0	Control	0.875	0.0	Yes	2.971	0.001	n/a	GoodResponse	0	n/a	n/a	2	15	Fixation	Neutral	True
156.075	0.25	Control	0.875	0.004	Yes	2.971	-0.004	2.0	GoodResponse	0	0.171	155.246	2	15	Target	Neutral	True
156.246	0.3	Control	0.875	0.004	Yes	2.971	-0.004	2.0	GoodResponse	0	0.171	n/a	2	15	ButtonPress	Neutral	True
156.326	0.45	Control	0.875	n/a	Yes	2.971	n/a	n/a	GoodResponse	0	n/a	n/a	2	15	Blank	Neutral	True
156.777	1.45	Control	0.875	n/a	Yes	2.971	n/a	5.0	GoodResponse	0	0.026	155.803	2	15	Feedback	Neutral	True
158.232	2.971	Control	0.875	n/a	Yes	2.971	n/a	n/a	GoodResponse	0	0.0	n/a	2	15	ISIslide	Neutral	True
161.224	0.25	Win2	0.8824	0.0	Yes	2.876	0.024	n/a	GoodResponse	1	n/a	n/a	3	16	Cue	Win	True
161.475	4.0	Win2	0.8824	0.0	Yes	2.876	0.001	n/a	GoodResponse	1	n/a	n/a	3	16	Fixation	Win	True
165.47	0.24	Win2	0.8824	0.004	Yes	2.876	-0.004	2.0	GoodResponse	1	0.192	164.662	3	16	Target	Win	True
165.662	0.3	Win2	0.8824	0.004	Yes	2.876	-0.004	2.0	GoodResponse	1	0.192	n/a	3	16	ButtonPress	Win	True
165.721	0.46	Win2	0.8824	n/a	Yes	2.876	n/a	n/a	GoodResponse	1	n/a	n/a	3	16	Blank	Win	True
166.172	1.45	Win2	0.8824	n/a	Yes	2.876	n/a	5.0	GoodResponse	1	0.046	165.218	3	16	Feedback	Win	True
167.626	2.876	Win2	0.8824	n/a	Yes	2.876	n/a	n/a	GoodResponse	1	0.0	n/a	3	16	ISIslide	Win	True
170.518	0.25	Lose2	0.8889	0.0	Yes	2.732	0.018	n/a	GoodResponse	0	n/a	n/a	3	17	Cue	AvoidedLoss	True
170.769	3.95	Lose2	0.8889	0.0	Yes	2.732	0.001	n/a	GoodResponse	0	n/a	n/a	3	17	Fixation	AvoidedLoss	True
174.714	0.23	Lose2	0.8889	0.004	Yes	2.732	-0.004	2.0	GoodResponse	0	0.18	173.894	3	17	Target	AvoidedLoss	True
174.894	0.3	Lose2	0.8889	0.004	Yes	2.732	-0.004	2.0	GoodResponse	0	0.18	n/a	3	17	ButtonPress	AvoidedLoss	True
174.948	0.47	Lose2	0.8889	n/a	Yes	2.732	n/a	n/a	GoodResponse	0	n/a	n/a	3	17	Blank	AvoidedLoss	True
175.416	1.45	Lose2	0.8889	n/a	Yes	2.732	n/a	5.0	GoodResponse	0	0.022	174.438	3	17	Feedback	AvoidedLoss	True
176.871	2.732	Lose2	0.8889	n/a	Yes	2.732	n/a	n/a	GoodResponse	0	0.0	n/a	3	17	ISIslide	AvoidedLoss	True
179.629	0.25	Lose2	0.8946999999999999	0.0	Yes	2.721	0.029	n/a	GoodResponse	0	n/a	n/a	3	18	Cue	AvoidedLoss	True
179.88	4.05	Lose2	0.8946999999999999	0.0	Yes	2.721	0.001	n/a	GoodResponse	0	n/a	n/a	3	18	Fixation	AvoidedLoss	True
183.925	0.22	Lose2	0.8946999999999999	0.004	Yes	2.721	-0.004	2.0	GoodResponse	0	0.13	183.055	3	18	Target	AvoidedLoss	True
184.055	0.3	Lose2	0.8946999999999999	0.004	Yes	2.721	-0.004	2.0	GoodResponse	0	0.13	n/a	3	18	ButtonPress	AvoidedLoss	True
184.159	0.48	Lose2	0.8946999999999999	n/a	Yes	2.721	n/a	n/a	GoodResponse	0	n/a	n/a	3	18	Blank	AvoidedLoss	True
184.627	1.45	Lose2	0.8946999999999999	n/a	Yes	2.721	n/a	5.0	GoodResponse	0	0.03	183.657	3	18	Feedback	AvoidedLoss	True
186.082	2.721	Lose2	0.8946999999999999	n/a	Yes	2.721	n/a	n/a	GoodResponse	0	0.0	n/a	3	18	ISIslide	AvoidedLoss	True
188.823	0.25	Control	0.85	0.0	No	2.927	0.023	n/a	NoResponse	0	n/a	n/a	3	19	Cue	Neutral	True
189.074	3.95	Control	0.85	0.0	No	2.927	0.001	n/a	NoResponse	0	n/a	n/a	3	19	Fixation	Neutral	True
193.019	0.21	Control	0.85	0.004	No	2.927	-0.004	2.0	NoResponse	0	0.501	192.52	3	19	Target	Neutral	True
193.236	0.49	Control	0.85	n/a	No	2.927	n/a	n/a	NoResponse	0	n/a	n/a	3	19	Blank	Neutral	True
193.52	0.3	Control	0.85	0.004	No	2.927	-0.004	2.0	NoResponse	0	0.501	n/a	3	19	ButtonPress	Neutral	True
193.721	1.45	Control	0.85	n/a	No	2.927	n/a	5.0	NoResponse	0	0.009	192.73	3	19	Feedback	Neutral	True
195.175	2.927	Control	0.85	n/a	No	2.927	n/a	n/a	NoResponse	0	0.0	n/a	3	19	ISIslide	Neutral	True
198.118	0.25	Control	0.8571	0.0	Yes	2.632	0.018	n/a	GoodResponse	0	n/a	n/a	3	20	Cue	Neutral	True
198.368	4.05	Control	0.8571	0.0	Yes	2.632	0.0	n/a	GoodResponse	0	n/a	n/a	3	20	Fixation	Neutral	True
202.414	0.2	Control	0.8571	0.004	Yes	2.632	-0.004	2.0	GoodResponse	0	0.183	201.597	3	20	Target	Neutral	True
202.597	0.3	Control	0.8571	0.004	Yes	2.632	-0.004	2.0	GoodResponse	0	0.183	n/a	3	20	ButtonPress	Neutral	True
202.614	0.5	Control	0.8571	n/a	Yes	2.632	n/a	n/a	GoodResponse	0	n/a	n/a	3	20	Blank	Neutral	True
203.116	1.45	Control	0.8571	n/a	Yes	2.632	n/a	5.0	GoodResponse	0	0.028	202.144	3	20	Feedback	Neutral	True
204.57	2.632	Control	0.8571	n/a	Yes	2.632	n/a	n/a	GoodResponse	0	0.0	n/a	3	20	ISIslide	Neutral	True
207.228	0.25	Control	0.8181999999999999	0.0	No	2.772	0.028	n/a	NoResponse	0	n/a	n/a	3	21	Cue	Neutral	True
207.479	4.1	Control	0.8181999999999999	0.0	No	2.772	0.001	n/a	NoResponse	0	n/a	n/a	3	21	Fixation	Neutral	True
211.575	0.19	Control	0.8181999999999999	0.003	No	2.772	-0.003	2.0	NoResponse	0	0.207	210.782	3	21	Target	Neutral	True
211.775	0.51	Control	0.8181999999999999	n/a	No	2.772	n/a	n/a	NoResponse	0	n/a	n/a	3	21	Blank	Neutral	True
211.782	0.3	Control	0.8181999999999999	0.003	No	2.772	-0.003	2.0	NoResponse	0	0.207	n/a	3	21	ButtonPress	Neutral	True
212.277	1.45	Control	0.8181999999999999	n/a	No	2.772	n/a	5.0	NoResponse	0	0.038	211.315	3	21	Feedback	Neutral	True
213.731	2.772	Control	0.8181999999999999	n/a	No	2.772	n/a	n/a	NoResponse	0	0.0	n/a	3	21	ISIslide	Neutral	True
216.523	0.25	Control	0.7826000000000001	0.0	No	2.777	0.023	n/a	NoResponse	0	n/a	n/a	3	22	Cue	Neutral	False
216.773	4.0	Control	0.7826000000000001	0.001	No	2.777	0.0	n/a	NoResponse	0	n/a	n/a	3	22	Fixation	Neutral	False
220.769	0.18	Control	0.7826000000000001	0.004	No	2.777	-0.004	n/a	NoResponse	0	n/a	n/a	3	22	Target	Neutral	False
220.953	0.52	Control	0.7826000000000001	n/a	No	2.777	n/a	n/a	NoResponse	0	n/a	n/a	3	22	Blank	Neutral	False
221.471	1.45	Control	0.7826000000000001	n/a	No	2.777	n/a	5.0	NoResponse	0	0.015	220.486	3	22	Feedback	Neutral	False
222.925	2.777	Control	0.7826000000000001	n/a	No	2.777	n/a	n/a	NoResponse	0	0.0	n/a	3	22	ISIslide	Neutral	False
225.717	0.25	Control	0.75	0.0	No	2.783	0.017	n/a	LatePress	0	n/a	n/a	3	23	Cue	Neutral	True
225.968	3.9	Control	0.75	0.0	No	2.783	0.001	n/a	LatePress	0	n/a	n/a	3	23	Fixation	Neutral	True
229.863	0.17	Control	0.75	0.004	No	2.783	-0.004	2.0	LatePress	0	0.174	229.037	3	23	Target	Neutral	True
230.037	0.3	Control	0.75	0.004	No	2.783	-0.004	2.0	LatePress	0	0.174	n/a	3	23	ButtonPress	Neutral	True
230.047	0.53	Control	0.75	n/a	No	2.783	n/a	n/a	LatePress	0	n/a	n/a	3	23	Blank	Neutral	True
230.565	1.45	Control	0.75	n/a	No	2.783	n/a	5.0	LatePress	0	0.043	229.608	3	23	Feedback	Neutral	True
232.019	2.783	Control	0.75	n/a	No	2.783	n/a	n/a	LatePress	0	0.0	n/a	3	23	ISIslide	Neutral	True
234.827	0.25	Win2	0.72	0.001	No	3.123	0.027	n/a	NoResponse	0	n/a	n/a	3	24	Cue	MissedWin	True
235.078	3.95	Win2	0.72	0.0	No	3.123	0.001	n/a	NoResponse	0	n/a	n/a	3	24	Fixation	MissedWin	True
239.023	0.16	Win2	0.72	0.004	No	3.123	-0.004	2.0	NoResponse	0	0.175	238.198	3	24	Target	MissedWin	True
239.191	0.54	Win2	0.72	n/a	No	3.123	n/a	n/a	NoResponse	0	n/a	n/a	3	24	Blank	MissedWin	True
239.198	0.3	Win2	0.72	0.004	No	3.123	-0.004	2.0	NoResponse	0	0.175	n/a	3	24	ButtonPress	MissedWin	True
239.725	1.45	Win2	0.72	n/a	No	3.123	n/a	5.0	NoResponse	0	0.006	238.731	3	24	Feedback	MissedWin	True
241.18	3.123	Win2	0.72	n/a	No	3.123	n/a	n/a	NoResponse	0	0.0	n/a	3	24	ISIslide	MissedWin	True
244.323	0.25	Win2	0.6923	0.0	No	3.077	0.023	n/a	NoResponse	0	n/a	n/a	3	25	Cue	MissedWin	True
244.573	4.0	Win2	0.6923	0.0	No	3.077	0.0	n/a	NoResponse	0	n/a	n/a	3	25	Fixation	MissedWin	True
248.569	0.15	Win2	0.6923	0.004	No	3.077	-0.004	2.0	NoResponse	0	0.161	247.73	3	25	Target	MissedWin	True
248.719	0.55	Win2	0.6923	n/a	No	3.077	n/a	n/a	NoResponse	0	n/a	n/a	3	25	Blank	MissedWin	True
248.73	0.3	Win2	0.6923	0.004	No	3.077	-0.004	2.0	NoResponse	0	0.161	n/a	3	25	ButtonPress	MissedWin	True
249.271	1.45	Win2	0.6923	n/a	No	3.077	n/a	5.0	NoResponse	0	0.019	248.29	3	25	Feedback	MissedWin	True
250.725	3.077	Win2	0.6923	n/a	No	3.077	n/a	n/a	NoResponse	0	0.0	n/a	3	25	ISIslide	MissedWin	True
253.818	0.25	Win2	0.6667000000000001	0.0	No	2.932	0.018	n/a	NoResponse	0	n/a	n/a	3	26	Cue	MissedWin	True
254.068	3.95	Win2	0.6667000000000001	0.0	No	2.932	0.0	2.0	NoResponse	0	3.644	256.712	3	26	Fixation	MissedWin	True
257.712	0.3	Win2	0.6667000000000001	0.0	No	2.932	0.0	2.0	NoResponse	0	3.644	n/a	3	26	ButtonPress	MissedWin	True
258.014	0.15	Win2	0.6667000000000001	0.004	No	2.932	-0.004	n/a	NoResponse	0	n/a	n/a	3	26	Target	MissedWin	True
258.164	0.55	Win2	0.6667000000000001	n/a	No	2.932	n/a	n/a	NoResponse	0	n/a	n/a	3	26	Blank	MissedWin	True
258.716	1.45	Win2	0.6667000000000001	n/a	No	2.932	n/a	5.0	NoResponse	0	0.038	257.754	3	26	Feedback	MissedWin	True
260.17	2.932	Win2	0.6667000000000001	n/a	No	2.932	n/a	n/a	NoResponse	0	0.0	n/a	3	26	ISIslide	MissedWin	True
263.129	0.25	Lose2	0.6429	0.0	No	2.821	0.029	n/a	NoResponse	-1	n/a	n/a	2	27	Cue	Loss	True
263.38	4.05	Lose2	0.6429	0.0	No	2.821	0.001	n/a	NoResponse	-1	n/a	n/a	2	27	Fixation	Loss	True
267.425	0.15	Lose2	0.6429	0.004	No	2.821	-0.004	2.0	NoResponse	-1	0.164	266.589	2	27	Target	Loss	True
267.576	0.55	Lose2	0.6429	n/a	No	2.821	n/a	n/a	NoResponse	-1	n/a	n/a	2	27	Blank	Loss	True
267.589	0.3	Lose2	0.6429	0.004	No	2.821	-0.004	2.0	NoResponse	-1	0.164	n/a	2	27	ButtonPress	Loss	True
268.127	1.45	Lose2	0.6429	n/a	No	2.821	n/a	5.0	NoResponse	-1	0.041	267.168	2	27	Feedback	Loss	True
269.582	2.821	Lose2	0.6429	n/a	No	2.821	n/a	n/a	NoResponse	-1	0.0	n/a	2	27	ISIslide	Loss	True
272.423	0.25	Control	0.6207	0.0	No	2.827	0.023	n/a	NoResponse	0	n/a	n/a	2	28	Cue	Neutral	True
272.674	4.05	Control	0.6207	0.0	No	2.827	0.001	n/a	NoResponse	0	n/a	n/a	2	28	Fixation	Neutral	True
276.72	0.16	Control	0.6207	0.003	No	2.827	-0.003	2.0	NoResponse	0	0.191	275.911	2	28	Target	Neutral	True
276.887	0.54	Control	0.6207	n/a	No	2.827	n/a	n/a	NoResponse	0	n/a	n/a	2	28	Blank	Neutral	True
276.911	0.3	Control	0.6207	0.003	No	2.827	-0.003	2.0	NoResponse	0	0.191	n/a	2	28	ButtonPress	Neutral	True
277.422	1.45	Control	0.6207	n/a	No	2.827	n/a	5.0	NoResponse	0	0.015	276.437	2	28	Feedback	Neutral	True
278.876	2.827	Control	0.6207	n/a	No	2.827	n/a	n/a	NoResponse	0	0.0	n/a	2	28	ISIslide	Neutral	True
281.718	0.25	Lose2	0.6	0.0	No	2.832	0.018	n/a	NoResponse	-1	n/a	n/a	1	29	Cue	Loss	True
281.969	3.95	Lose2	0.6	0.0	No	2.832	0.001	n/a	NoResponse	-1	n/a	n/a	1	29	Fixation	Loss	True
285.914	0.17	Lose2	0.6	0.004	No	2.832	-0.004	2.0	NoResponse	-1	0.205	285.119	1	29	Target	Loss	True
286.098	0.53	Lose2	0.6	n/a	No	2.832	n/a	n/a	NoResponse	-1	n/a	n/a	1	29	Blank	Loss	True
286.119	0.3	Lose2	0.6	0.004	No	2.832	-0.004	2.0	NoResponse	-1	0.205	n/a	1	29	ButtonPress	Loss	True
286.616	1.45	Lose2	0.6	n/a	No	2.832	n/a	5.0	NoResponse	-1	0.04	285.656	1	29	Feedback	Loss	True
288.07	2.832	Lose2	0.6	n/a	No	2.832	n/a	n/a	NoResponse	-1	0.0	n/a	1	29	ISIslide	Loss	True
290.929	0.25	Win2	0.6129	0.0	Yes	2.771	0.029	n/a	GoodResponse	1	n/a	n/a	2	30	Cue	Win	True
291.179	3.9	Win2	0.6129	0.001	Yes	2.771	0.0	n/a	GoodResponse	1	n/a	n/a	2	30	Fixation	Win	True
295.091	0.18	Win2	0.6129	0.0	Yes	2.771	0.012	2.0	GoodResponse	1	0.155	294.246	2	30	Target	Win	True
295.246	0.3	Win2	0.6129	0.0	Yes	2.771	0.012	2.0	GoodResponse	1	0.155	n/a	2	30	ButtonPress	Win	True
295.258	0.52	Win2	0.6129	n/a	Yes	2.771	n/a	n/a	GoodResponse	1	n/a	n/a	2	30	Blank	Win	True
295.777	1.45	Win2	0.6129	n/a	Yes	2.771	n/a	5.0	GoodResponse	1	0.0	294.777	2	30	Feedback	Win	True
297.231	2.771	Win2	0.6129	n/a	Yes	2.771	n/a	n/a	GoodResponse	1	0.0	n/a	2	30	ISIslide	Win	True
300.023	0.25	Lose2	0.5938	0.0	No	2.827	0.023	n/a	NoResponse	-1	n/a	n/a	1	31	Cue	Loss	True
300.273	4.05	Lose2	0.5938	0.0	No	2.827	0.0	n/a	NoResponse	-1	n/a	n/a	1	31	Fixation	Loss	True
304.319	0.19	Lose2	0.5938	0.004	No	2.827	-0.004	2.0	NoResponse	-1	0.207	303.526	1	31	Target	Loss	True
304.519	0.51	Lose2	0.5938	n/a	No	2.827	n/a	n/a	NoResponse	-1	n/a	n/a	1	31	Blank	Loss	True
304.526	0.3	Lose2	0.5938	0.004	No	2.827	-0.004	2.0	NoResponse	-1	0.207	n/a	1	31	ButtonPress	Loss	True
305.021	1.45	Lose2	0.5938	n/a	No	2.827	n/a	5.0	NoResponse	-1	0.025	304.046	1	31	Feedback	Loss	True
306.475	2.827	Lose2	0.5938	n/a	No	2.827	n/a	n/a	NoResponse	-1	0.0	n/a	1	31	ISIslide	Loss	True
309.317	0.25	Lose2	0.6061	0.0	Yes	2.633	0.017	n/a	GoodResponse	0	n/a	n/a	1	32	Cue	AvoidedLoss	True
309.568	4.15	Lose2	0.6061	0.0	Yes	2.633	0.001	n/a	GoodResponse	0	n/a	n/a	1	32	Fixation	AvoidedLoss	True
313.714	0.2	Lose2	0.6061	0.003	Yes	2.633	-0.003	2.0	GoodResponse	0	0.188	312.902	1	32	Target	AvoidedLoss	True
313.902	0.3	Lose2	0.6061	0.003	Yes	2.633	-0.003	2.0	GoodResponse	0	0.188	n/a	1	32	ButtonPress	AvoidedLoss	True
313.914	0.5	Lose2	0.6061	n/a	Yes	2.633	n/a	n/a	GoodResponse	0	n/a	n/a	1	32	Blank	AvoidedLoss	True
314.416	1.45	Lose2	0.6061	n/a	Yes	2.633	n/a	5.0	GoodResponse	0	0.044	313.46	1	32	Feedback	AvoidedLoss	True
315.87	2.633	Lose2	0.6061	n/a	Yes	2.633	n/a	n/a	GoodResponse	0	0.0	n/a	1	32	ISIslide	AvoidedLoss	True
318.528	0.25	Win2	0.6175999999999999	0.0	Yes	2.672	0.028	n/a	GoodResponse	1	n/a	n/a	2	33	Cue	Win	False
318.779	4.0	Win2	0.6175999999999999	0.0	Yes	2.672	0.001	2.0	GoodResponse	1	3.703	321.482	2	33	Fixation	Win	False
322.482	0.3	Win2	0.6175999999999999	0.0	Yes	2.672	0.001	2.0	GoodResponse	1	3.703	n/a	2	33	ButtonPress	Win	False
322.774	0.21	Win2	0.6175999999999999	0.004	Yes	2.672	-0.004	2.0	GoodResponse	1	0.137	321.911	2	33	Target	Win	False
322.911	0.3	Win2	0.6175999999999999	0.004	Yes	2.672	-0.004	2.0	GoodResponse	1	0.137	n/a	2	33	ButtonPress	Win	False
322.991	0.49	Win2	0.6175999999999999	n/a	Yes	2.672	n/a	n/a	GoodResponse	1	n/a	n/a	2	33	Blank	Win	False
323.476	1.45	Win2	0.6175999999999999	n/a	Yes	2.672	n/a	5.0	GoodResponse	1	0.009	322.485	2	33	Feedback	Win	False
324.931	2.672	Win2	0.6175999999999999	n/a	Yes	2.672	n/a	2.0	GoodResponse	1	0.689	n/a	2	33	ISIslide	Win	False
327.605	0.25	Lose2	0.6286	0.0	Yes	2.645	0.005	n/a	GoodResponse	0	n/a	n/a	2	34	Cue	AvoidedLoss	True
327.856	4.05	Lose2	0.6286	0.0	Yes	2.645	0.001	n/a	GoodResponse	0	n/a	n/a	2	34	Fixation	AvoidedLoss	True
331.901	0.22	Lose2	0.6286	0.004	Yes	2.645	-0.004	2.0	GoodResponse	0	0.208	331.109	2	34	Target	AvoidedLoss	True
332.109	0.3	Lose2	0.6286	0.004	Yes	2.645	-0.004	2.0	GoodResponse	0	0.208	n/a	2	34	ButtonPress	AvoidedLoss	True
332.135	0.48	Lose2	0.6286	n/a	Yes	2.645	n/a	n/a	GoodResponse	0	n/a	n/a	2	34	Blank	AvoidedLoss	True
332.603	1.45	Lose2	0.6286	n/a	Yes	2.645	n/a	5.0	GoodResponse	0	0.006	331.609	2	34	Feedback	AvoidedLoss	True
334.058	2.645	Lose2	0.6286	n/a	Yes	2.645	n/a	n/a	GoodResponse	0	0.0	n/a	2	34	ISIslide	AvoidedLoss	True
336.716	0.25	Lose2	0.6389	0.0	Yes	2.684	0.016	n/a	GoodResponse	0	n/a	n/a	2	35	Cue	AvoidedLoss	False
336.967	4.0	Lose2	0.6389	0.0	Yes	2.684	0.001	2.0	GoodResponse	0	0.776	336.743	2	35	Fixation	AvoidedLoss	False
337.743	0.3	Lose2	0.6389	0.0	Yes	2.684	0.001	2.0	GoodResponse	0	0.776	n/a	2	35	ButtonPress	AvoidedLoss	False
340.962	0.23	Lose2	0.6389	0.004	Yes	2.684	-0.004	2.0	GoodResponse	0	0.194	340.156	2	35	Target	AvoidedLoss	False
341.156	0.3	Lose2	0.6389	0.004	Yes	2.684	-0.004	2.0	GoodResponse	0	0.194	n/a	2	35	ButtonPress	AvoidedLoss	False
341.196	0.47	Lose2	0.6389	n/a	Yes	2.684	n/a	n/a	GoodResponse	0	n/a	n/a	2	35	Blank	AvoidedLoss	False
341.664	1.45	Lose2	0.6389	n/a	Yes	2.684	n/a	5.0	GoodResponse	0	0.016	340.68	2	35	Feedback	AvoidedLoss	False
343.118	2.684	Lose2	0.6389	n/a	Yes	2.684	n/a	n/a	GoodResponse	0	0.0	n/a	2	35	ISIslide	AvoidedLoss	False
345.826	0.25	Control	0.6486	0.0	Yes	2.674	0.026	n/a	GoodResponse	0	n/a	n/a	2	36	Cue	Neutral	False
346.077	4.0	Control	0.6486	0.0	Yes	2.674	0.001	2.0	GoodResponse	0	1.697	346.774	2	36	Fixation	Neutral	False
347.774	0.3	Control	0.6486	0.0	Yes	2.674	0.001	2.0	GoodResponse	0	1.697	n/a	2	36	ButtonPress	Neutral	False
350.072	0.24	Control	0.6486	0.004	Yes	2.674	-0.004	2.0	GoodResponse	0	0.147	349.219	2	36	Target	Neutral	False
350.219	0.3	Control	0.6486	0.004	Yes	2.674	-0.004	2.0	GoodResponse	0	0.147	n/a	2	36	ButtonPress	Neutral	False
350.323	0.46	Control	0.6486	n/a	Yes	2.674	n/a	n/a	GoodResponse	0	n/a	n/a	2	36	Blank	Neutral	False
350.775	1.45	Control	0.6486	n/a	Yes	2.674	n/a	5.0	GoodResponse	0	0.026	349.801	2	36	Feedback	Neutral	False
352.229	2.674	Control	0.6486	n/a	Yes	2.674	n/a	2.0	GoodResponse	0	1.758	n/a	2	36	ISIslide	Neutral	False
354.904	0.25	Win2	0.6315999999999999	0.0	No	2.896	0.004	2.0	PrematurePress	0	0.113	354.017	2	37	Cue	MissedWin	False
355.017	0.3	Win2	0.6315999999999999	0.0	No	2.896	0.004	2.0	PrematurePress	0	0.113	n/a	2	37	ButtonPress	MissedWin	False
355.154	4.0	Win2	0.6315999999999999	0.0	No	2.896	0.0	2.0	PrematurePress	0	0.079	354.233	2	37	Fixation	MissedWin	False
355.233	0.3	Win2	0.6315999999999999	0.0	No	2.896	0.0	2.0	PrematurePress	0	0.079	n/a	2	37	ButtonPress	MissedWin	False
359.15	0.25	Win2	0.6315999999999999	0.004	No	2.896	-0.004	2.0	PrematurePress	0	0.068	358.218	2	37	Target	MissedWin	False
359.218	0.3	Win2	0.6315999999999999	0.004	No	2.896	-0.004	2.0	PrematurePress	0	0.068	n/a	2	37	ButtonPress	MissedWin	False
359.4	0.45	Win2	0.6315999999999999	n/a	No	2.896	n/a	n/a	PrematurePress	0	n/a	n/a	2	37	Blank	MissedWin	False
359.852	1.45	Win2	0.6315999999999999	n/a	No	2.896	n/a	5.0	PrematurePress	0	0.023	358.875	2	37	Feedback	MissedWin	False
361.306	2.896	Win2	0.6315999999999999	n/a	No	2.896	n/a	n/a	PrematurePress	0	0.0	n/a	2	37	ISIslide	MissedWin	False
364.215	0.25	Lose2	0.6409999999999999	0.0	Yes	2.835	0.015	n/a	GoodResponse	0	n/a	n/a	2	38	Cue	AvoidedLoss	True
364.466	3.95	Lose2	0.6409999999999999	0.0	Yes	2.835	0.001	n/a	GoodResponse	0	n/a	n/a	2	38	Fixation	AvoidedLoss	True
368.411	0.26	Lose2	0.6409999999999999	0.004	Yes	2.835	-0.004	2.0	GoodResponse	0	0.192	367.603	2	38	Target	AvoidedLoss	True
368.603	0.3	Lose2	0.6409999999999999	0.004	Yes	2.835	-0.004	2.0	GoodResponse	0	0.192	n/a	2	38	ButtonPress	AvoidedLoss	True
368.678	0.44	Lose2	0.6409999999999999	n/a	Yes	2.835	n/a	n/a	GoodResponse	0	n/a	n/a	2	38	Blank	AvoidedLoss	True
369.113	1.45	Lose2	0.6409999999999999	n/a	Yes	2.835	n/a	5.0	GoodResponse	0	0.03	368.143	2	38	Feedback	AvoidedLoss	True
370.567	2.835	Lose2	0.6409999999999999	n/a	Yes	2.835	n/a	n/a	GoodResponse	0	0.0	n/a	2	38	ISIslide	AvoidedLoss	True
373.426	0.25	Win2	0.65	0.0	Yes	2.974	0.026	n/a	GoodResponse	1	n/a	n/a	3	39	Cue	Win	False
373.676	4.1	Win2	0.65	0.001	Yes	2.974	0.0	2.0	GoodResponse	1	3.128	375.804	3	39	Fixation	Win	False
376.804	0.3	Win2	0.65	0.001	Yes	2.974	0.0	2.0	GoodResponse	1	3.128	n/a	3	39	ButtonPress	Win	False
377.772	0.27	Win2	0.65	0.004	Yes	2.974	-0.004	2.0	GoodResponse	1	0.174	376.946	3	39	Target	Win	False
377.946	0.3	Win2	0.65	0.004	Yes	2.974	-0.004	2.0	GoodResponse	1	0.174	n/a	3	39	ButtonPress	Win	False
378.056	0.43	Win2	0.65	n/a	Yes	2.974	n/a	n/a	GoodResponse	1	n/a	n/a	3	39	Blank	Win	False
378.474	1.45	Win2	0.65	n/a	Yes	2.974	n/a	5.0	GoodResponse	1	0.035	377.509	3	39	Feedback	Win	False
379.928	2.974	Win2	0.65	n/a	Yes	2.974	n/a	2.0	GoodResponse	1	2.628	n/a	3	39	ISIslide	Win	False
382.904	0.25	Win2	0.6585	0.0	Yes	2.746	0.004	n/a	GoodResponse	1	n/a	n/a	4	40	Cue	Win	True
383.155	3.95	Win2	0.6585	0.0	Yes	2.746	0.001	n/a	GoodResponse	1	n/a	n/a	4	40	Fixation	Win	True
387.1	0.28	Win2	0.6585	0.004	Yes	2.746	-0.004	2.0	GoodResponse	1	0.183	386.283	4	40	Target	Win	True
387.283	0.3	Win2	0.6585	0.004	Yes	2.746	-0.004	2.0	GoodResponse	1	0.183	n/a	4	40	ButtonPress	Win	True
387.384	0.42	Win2	0.6585	n/a	Yes	2.746	n/a	n/a	GoodResponse	1	n/a	n/a	4	40	Blank	Win	True
387.802	1.45	Win2	0.6585	n/a	Yes	2.746	n/a	5.0	GoodResponse	1	0.024	386.826	4	40	Feedback	Win	True
389.256	2.746	Win2	0.6585	n/a	Yes	2.746	n/a	n/a	GoodResponse	1	0.0	n/a	4	40	ISIslide	Win	True
392.015	0.25	Win2	0.6667000000000001	0.0	Yes	2.785	0.015	n/a	GoodResponse	1	n/a	n/a	5	41	Cue	Win	True
392.265	3.9	Win2	0.6667000000000001	0.001	Yes	2.785	0.0	n/a	GoodResponse	1	n/a	n/a	5	41	Fixation	Win	True
396.177	0.28	Win2	0.6667000000000001	0.0	Yes	2.785	0.012	2.0	GoodResponse	1	0.168	395.345	5	41	Target	Win	True
396.345	0.3	Win2	0.6667000000000001	0.0	Yes	2.785	0.012	2.0	GoodResponse	1	0.168	n/a	5	41	ButtonPress	Win	True
396.445	0.42	Win2	0.6667000000000001	n/a	Yes	2.785	n/a	n/a	GoodResponse	1	n/a	n/a	5	41	Blank	Win	True
396.863	1.45	Win2	0.6667000000000001	n/a	Yes	2.785	n/a	5.0	GoodResponse	1	0.035	395.898	5	41	Feedback	Win	True
398.317	2.785	Win2	0.6667000000000001	n/a	Yes	2.785	n/a	n/a	GoodResponse	1	0.0	n/a	5	41	ISIslide	Win	True
401.125	0.25	Control	0.6744	0.0	Yes	2.925	0.025	n/a	GoodResponse	0	n/a	n/a	5	42	Cue	Neutral	True
401.376	3.85	Control	0.6744	0.0	Yes	2.925	0.001	n/a	GoodResponse	0	n/a	n/a	5	42	Fixation	Neutral	True
405.221	0.27	Control	0.6744	0.004	Yes	2.925	-0.004	2.0	GoodResponse	0	0.225	404.446	5	42	Target	Neutral	True
405.446	0.3	Control	0.6744	0.004	Yes	2.925	-0.004	2.0	GoodResponse	0	0.225	n/a	5	42	ButtonPress	Neutral	True
405.505	0.43	Control	0.6744	n/a	Yes	2.925	n/a	n/a	GoodResponse	0	n/a	n/a	5	42	Blank	Neutral	True
405.923	1.45	Control	0.6744	n/a	Yes	2.925	n/a	5.0	GoodResponse	0	0.0	404.923	5	42	Feedback	Neutral	True
407.377	2.925	Control	0.6744	n/a	Yes	2.925	n/a	n/a	GoodResponse	0	0.0	n/a	5	42	ISIslide	Neutral	True
410.319	0.25	Win2	0.6818000000000001	0.001	Yes	3.181	0.019	n/a	GoodResponse	1	n/a	n/a	6	43	Cue	Win	True
410.57	4.0	Win2	0.6818000000000001	0.0	Yes	3.181	0.001	n/a	GoodResponse	1	n/a	n/a	6	43	Fixation	Win	True
414.566	0.26	Win2	0.6818000000000001	0.003	Yes	3.181	-0.003	2.0	GoodResponse	1	0.155	413.721	6	43	Target	Win	True
414.721	0.3	Win2	0.6818000000000001	0.003	Yes	3.181	-0.003	2.0	GoodResponse	1	0.155	n/a	6	43	ButtonPress	Win	True
414.833	0.44	Win2	0.6818000000000001	n/a	Yes	3.181	n/a	n/a	GoodResponse	1	n/a	n/a	6	43	Blank	Win	True
415.268	1.45	Win2	0.6818000000000001	n/a	Yes	3.181	n/a	5.0	GoodResponse	1	0.021	414.289	6	43	Feedback	Win	True
416.722	3.181	Win2	0.6818000000000001	n/a	Yes	3.181	n/a	n/a	GoodResponse	1	0.0	n/a	6	43	ISIslide	Win	True
419.915	0.25	Win2	0.6889	0.0	Yes	2.985	0.015	n/a	GoodResponse	1	n/a	n/a	7	44	Cue	Win	True
420.166	4.0	Win2	0.6889	0.0	Yes	2.985	0.001	n/a	GoodResponse	1	n/a	n/a	7	44	Fixation	Win	True
424.161	0.25	Win2	0.6889	0.004	Yes	2.985	-0.004	2.0	GoodResponse	1	0.167	423.328	7	44	Target	Win	True
424.328	0.3	Win2	0.6889	0.004	Yes	2.985	-0.004	2.0	GoodResponse	1	0.167	n/a	7	44	ButtonPress	Win	True
424.412	0.45	Win2	0.6889	n/a	Yes	2.985	n/a	n/a	GoodResponse	1	n/a	n/a	7	44	Blank	Win	True
424.863	1.45	Win2	0.6889	n/a	Yes	2.985	n/a	5.0	GoodResponse	1	0.036	423.899	7	44	Feedback	Win	True
426.317	2.985	Win2	0.6889	n/a	Yes	2.985	n/a	n/a	GoodResponse	1	0.0	n/a	7	44	ISIslide	Win	True
429.326	0.25	Control	0.6957	0.0	Yes	2.874	0.026	n/a	GoodResponse	0	n/a	n/a	7	45	Cue	Neutral	True
429.577	4.1	Control	0.6957	0.0	Yes	2.874	0.001	n/a	GoodResponse	0	n/a	n/a	7	45	Fixation	Neutral	True
433.673	0.24	Control	0.6957	0.003	Yes	2.874	-0.003	2.0	GoodResponse	0	0.163	432.836	7	45	Target	Neutral	True
433.836	0.3	Control	0.6957	0.003	Yes	2.874	-0.003	2.0	GoodResponse	0	0.163	n/a	7	45	ButtonPress	Neutral	True
433.923	0.46	Control	0.6957	n/a	Yes	2.874	n/a	n/a	GoodResponse	0	n/a	n/a	7	45	Blank	Neutral	True
434.375	1.45	Control	0.6957	n/a	Yes	2.874	n/a	5.0	GoodResponse	0	0.036	433.411	7	45	Feedback	Neutral	True
435.829	2.874	Control	0.6957	n/a	Yes	2.874	n/a	n/a	GoodResponse	0	0.0	n/a	7	45	ISIslide	Neutral	True
438.721	0.25	Lose2	0.6809000000000001	0.0	No	3.379	0.021	n/a	NoResponse	-1	n/a	n/a	6	46	Cue	Loss	False
438.972	4.0	Lose2	0.6809000000000001	0.0	No	3.379	0.001	n/a	NoResponse	-1	n/a	n/a	6	46	Fixation	Loss	False
442.967	0.23	Lose2	0.6809000000000001	0.004	No	3.379	-0.004	n/a	NoResponse	-1	n/a	n/a	6	46	Target	Loss	False
443.201	0.47	Lose2	0.6809000000000001	n/a	No	3.379	n/a	n/a	NoResponse	-1	n/a	n/a	6	46	Blank	Loss	False
443.669	1.45	Lose2	0.6809000000000001	n/a	No	3.379	n/a	5.0	NoResponse	-1	0.01	442.679	6	46	Feedback	Loss	False
445.124	3.379	Lose2	0.6809000000000001	n/a	No	3.379	n/a	n/a	NoResponse	-1	0.0	n/a	6	46	ISIslide	Loss	False
448.517	0.25	Lose2	0.6875	0.0	Yes	2.683	0.017	n/a	GoodResponse	0	n/a	n/a	6	47	Cue	AvoidedLoss	True
448.768	4.0	Lose2	0.6875	0.0	Yes	2.683	0.001	n/a	GoodResponse	0	n/a	n/a	6	47	Fixation	AvoidedLoss	True
452.763	0.22	Lose2	0.6875	0.004	Yes	2.683	-0.004	2.0	GoodResponse	0	0.177	451.94	6	47	Target	AvoidedLoss	True
452.94	0.3	Lose2	0.6875	0.004	Yes	2.683	-0.004	2.0	GoodResponse	0	0.177	n/a	6	47	ButtonPress	AvoidedLoss	True
452.997	0.48	Lose2	0.6875	n/a	Yes	2.683	n/a	n/a	GoodResponse	0	n/a	n/a	6	47	Blank	AvoidedLoss	True
453.465	1.45	Lose2	0.6875	n/a	Yes	2.683	n/a	5.0	GoodResponse	0	0.018	452.483	6	47	Feedback	AvoidedLoss	True
454.92	2.683	Lose2	0.6875	n/a	Yes	2.683	n/a	n/a	GoodResponse	0	0.0	n/a	6	47	ISIslide	AvoidedLoss	True
457.628	0.25	Lose2	0.6735	0.0	No	3.022	0.028	n/a	NoResponse	-1	n/a	n/a	5	48	Cue	Loss	True
457.878	3.95	Lose2	0.6735	0.001	No	3.022	0.0	n/a	NoResponse	-1	n/a	n/a	5	48	Fixation	Loss	True
461.824	0.21	Lose2	0.6735	0.004	No	3.022	-0.004	2.0	NoResponse	-1	0.232	461.056	5	48	Target	Loss	True
462.041	0.49	Lose2	0.6735	n/a	No	3.022	n/a	n/a	NoResponse	-1	n/a	n/a	5	48	Blank	Loss	True
462.056	0.3	Lose2	0.6735	0.004	No	3.022	-0.004	2.0	NoResponse	-1	0.232	n/a	5	48	ButtonPress	Loss	True
462.526	1.45	Lose2	0.6735	n/a	No	3.022	n/a	5.0	NoResponse	-1	0.031	461.557	5	48	Feedback	Loss	True
463.98	3.022	Lose2	0.6735	n/a	No	3.022	n/a	n/a	NoResponse	-1	0.0	n/a	5	48	ISIslide	Loss	True
467.023	0.25	Control	0.68	0.0	Yes	2.877	0.023	n/a	GoodResponse	0	n/a	n/a	5	49	Cue	Neutral	True
467.273	4.0	Control	0.68	0.0	Yes	2.877	0.0	n/a	GoodResponse	0	n/a	n/a	5	49	Fixation	Neutral	True
471.269	0.2	Control	0.68	0.004	Yes	2.877	-0.004	2.0	GoodResponse	0	0.196	470.465	5	49	Target	Neutral	True
471.465	0.3	Control	0.68	0.004	Yes	2.877	-0.004	2.0	GoodResponse	0	0.196	n/a	5	49	ButtonPress	Neutral	True
471.469	0.5	Control	0.68	n/a	Yes	2.877	n/a	n/a	GoodResponse	0	n/a	n/a	5	49	Blank	Neutral	True
471.971	1.45	Control	0.68	n/a	Yes	2.877	n/a	5.0	GoodResponse	0	0.0	470.971	5	49	Feedback	Neutral	True
473.425	2.877	Control	0.68	n/a	Yes	2.877	n/a	2.0	GoodResponse	0	1.8	n/a	5	49	ISIslide	Neutral	True
476.3	0.25	Control	0.6667000000000001	0.0	No	2.8	0.0	n/a	NoResponse	0	n/a	n/a	5	50	Cue	Neutral	True
476.551	4.0	Control	0.6667000000000001	0.0	No	2.8	0.001	n/a	NoResponse	0	n/a	n/a	5	50	Fixation	Neutral	True
480.546	0.19	Control	0.6667000000000001	0.004	No	2.8	-0.004	2.0	NoResponse	0	0.341	479.887	5	50	Target	Neutral	True
480.747	0.51	Control	0.6667000000000001	n/a	No	2.8	n/a	n/a	NoResponse	0	n/a	n/a	5	50	Blank	Neutral	True
480.887	0.3	Control	0.6667000000000001	0.004	No	2.8	-0.004	2.0	NoResponse	0	0.341	n/a	5	50	ButtonPress	Neutral	True
481.248	1.45	Control	0.6667000000000001	n/a	No	2.8	n/a	5.0	NoResponse	0	0.04	480.288	5	50	Feedback	Neutral	True
482.703	2.8	Control	0.6667000000000001	n/a	No	2.8	n/a	n/a	NoResponse	0	0.0	n/a	5	50	ISIslide	Neutral	True
485.528	0.25	Control	0.6537999999999999	0.0	No	2.722	0.028	n/a	NoResponse	0	n/a	n/a	5	51	Cue	Neutral	False
485.779	3.95	Control	0.6537999999999999	0.0	No	2.722	0.001	2.0	NoResponse	0	1.165	485.944	5	51	Fixation	Neutral	False
486.944	0.3	Control	0.6537999999999999	0.0	No	2.722	0.001	2.0	NoResponse	0	1.165	n/a	5	51	ButtonPress	Neutral	False
489.724	0.18	Control	0.6537999999999999	0.004	No	2.722	-0.004	2.0	NoResponse	0	0.2	488.924	5	51	Target	Neutral	False
489.908	0.52	Control	0.6537999999999999	n/a	No	2.722	n/a	n/a	NoResponse	0	n/a	n/a	5	51	Blank	Neutral	False
489.924	0.3	Control	0.6537999999999999	0.004	No	2.722	-0.004	2.0	NoResponse	0	0.2	n/a	5	51	ButtonPress	Neutral	False
490.426	1.45	Control	0.6537999999999999	n/a	No	2.722	n/a	5.0	NoResponse	0	0.033	489.459	5	51	Feedback	Neutral	False
491.88	2.722	Control	0.6537999999999999	n/a	No	2.722	n/a	n/a	NoResponse	0	0.0	n/a	5	51	ISIslide	Neutral	False
494.622	0.25	Control	0.6604000000000001	0.0	Yes	2.628	0.022	n/a	GoodResponse	0	n/a	n/a	5	52	Cue	Neutral	False
494.873	4.05	Control	0.6604000000000001	0.0	Yes	2.628	0.001	2.0	GoodResponse	0	3.604	497.477	5	52	Fixation	Neutral	False
498.477	0.3	Control	0.6604000000000001	0.0	Yes	2.628	0.001	2.0	GoodResponse	0	3.604	n/a	5	52	ButtonPress	Neutral	False
498.918	0.19	Control	0.6604000000000001	0.004	Yes	2.628	-0.004	2.0	GoodResponse	0	0.185	498.103	5	52	Target	Neutral	False
499.103	0.3	Control	0.6604000000000001	0.004	Yes	2.628	-0.004	2.0	GoodResponse	0	0.185	n/a	5	52	ButtonPress	Neutral	False
499.119	0.51	Control	0.6604000000000001	n/a	Yes	2.628	n/a	n/a	GoodResponse	0	n/a	n/a	5	52	Blank	Neutral	False
499.62	1.45	Control	0.6604000000000001	n/a	Yes	2.628	n/a	5.0	GoodResponse	0	0.009	498.629	5	52	Feedback	Neutral	False
501.074	2.628	Control	0.6604000000000001	n/a	Yes	2.628	n/a	n/a	GoodResponse	0	0.0	n/a	5	52	ISIslide	Neutral	False
503.716	0.25	Win2	0.6667000000000001	0.0	Yes	2.934	0.016	n/a	GoodResponse	1	n/a	n/a	6	53	Cue	Win	True
503.966	4.05	Win2	0.6667000000000001	0.001	Yes	2.934	0.0	n/a	GoodResponse	1	n/a	n/a	6	53	Fixation	Win	True
508.012	0.19	Win2	0.6667000000000001	0.004	Yes	2.934	-0.004	2.0	GoodResponse	1	0.176	507.188	6	53	Target	Win	True
508.188	0.3	Win2	0.6667000000000001	0.004	Yes	2.934	-0.004	2.0	GoodResponse	1	0.176	n/a	6	53	ButtonPress	Win	True
508.212	0.51	Win2	0.6667000000000001	n/a	Yes	2.934	n/a	n/a	GoodResponse	1	n/a	n/a	6	53	Blank	Win	True
508.714	1.45	Win2	0.6667000000000001	n/a	Yes	2.934	n/a	5.0	GoodResponse	1	0.037	507.751	6	53	Feedback	Win	True
510.168	2.934	Win2	0.6667000000000001	n/a	Yes	2.934	n/a	n/a	GoodResponse	1	0.0	n/a	6	53	ISIslide	Win	True
513.127	0.25	Win2	0.6727	0.0	Yes	2.723	0.027	n/a	GoodResponse	1	n/a	n/a	7	54	Cue	Win	True
513.378	3.95	Win2	0.6727	0.0	Yes	2.723	0.001	n/a	GoodResponse	1	n/a	n/a	7	54	Fixation	Win	True
517.323	0.18	Win2	0.6727	0.004	Yes	2.723	-0.004	2.0	GoodResponse	1	0.157	516.48	7	54	Target	Win	True
517.48	0.3	Win2	0.6727	0.004	Yes	2.723	-0.004	2.0	GoodResponse	1	0.157	n/a	7	54	ButtonPress	Win	True
517.507	0.52	Win2	0.6727	n/a	Yes	2.723	n/a	n/a	GoodResponse	1	n/a	n/a	7	54	Blank	Win	True
518.025	1.45	Win2	0.6727	n/a	Yes	2.723	n/a	5.0	GoodResponse	1	0.043	517.068	7	54	Feedback	Win	True
519.48	2.723	Win2	0.6727	n/a	Yes	2.723	n/a	n/a	GoodResponse	1	0.0	n/a	7	54	ISIslide	Win	True
522.221	0.25	Control	0.6607	0.0	No	3.029	0.021	n/a	NoResponse	0	n/a	n/a	7	55	Cue	Neutral	True
522.472	3.95	Control	0.6607	0.0	No	3.029	0.001	n/a	NoResponse	0	n/a	n/a	7	55	Fixation	Neutral	True
526.417	0.17	Control	0.6607	0.004	No	3.029	-0.004	2.0	NoResponse	0	0.198	525.615	7	55	Target	Neutral	True
526.601	0.53	Control	0.6607	n/a	No	3.029	n/a	n/a	NoResponse	0	n/a	n/a	7	55	Blank	Neutral	True
526.615	0.3	Control	0.6607	0.004	No	3.029	-0.004	2.0	NoResponse	0	0.198	n/a	7	55	ButtonPress	Neutral	True
527.119	1.45	Control	0.6607	n/a	No	3.029	n/a	5.0	NoResponse	0	0.023	526.142	7	55	Feedback	Neutral	True
528.573	3.029	Control	0.6607	n/a	No	3.029	n/a	n/a	NoResponse	0	0.0	n/a	7	55	ISIslide	Neutral	True
531.616	0.25	Control	0.6667000000000001	0.0	Yes	2.834	0.016	n/a	GoodResponse	0	n/a	n/a	7	56	Cue	Neutral	False
531.867	3.95	Control	0.6667000000000001	0.0	Yes	2.834	0.001	2.0	GoodResponse	0	3.808	534.675	7	56	Fixation	Neutral	False
535.675	0.3	Control	0.6667000000000001	0.0	Yes	2.834	0.001	2.0	GoodResponse	0	3.808	n/a	7	56	ButtonPress	Neutral	False
535.812	0.17	Control	0.6667000000000001	0.004	Yes	2.834	-0.004	2.0	GoodResponse	0	0.153	534.965	7	56	Target	Neutral	False
535.965	0.3	Control	0.6667000000000001	0.004	Yes	2.834	-0.004	2.0	GoodResponse	0	0.153	n/a	7	56	ButtonPress	Neutral	False
535.996	0.53	Control	0.6667000000000001	n/a	Yes	2.834	n/a	n/a	GoodResponse	0	n/a	n/a	7	56	Blank	Neutral	False
536.514	1.45	Control	0.6667000000000001	n/a	Yes	2.834	n/a	5.0	GoodResponse	0	0.042	535.556	7	56	Feedback	Neutral	False
537.968	2.834	Control	0.6667000000000001	n/a	Yes	2.834	n/a	n/a	GoodResponse	0	0.0	n/a	7	56	ISIslide	Neutral	False
540.827	0.25	Control	0.6552	0.0	No	3.473	0.027	n/a	NoResponse	0	n/a	n/a	7	57	Cue	Neutral	True
541.078	4.0	Control	0.6552	0.0	No	3.473	0.001	n/a	NoResponse	0	n/a	n/a	7	57	Fixation	Neutral	True
545.073	0.16	Control	0.6552	0.004	No	3.473	-0.004	2.0	NoResponse	0	0.173	544.246	7	57	Target	Neutral	True
545.24	0.54	Control	0.6552	n/a	No	3.473	n/a	n/a	NoResponse	0	n/a	n/a	7	57	Blank	Neutral	True
545.246	0.3	Control	0.6552	0.004	No	3.473	-0.004	2.0	NoResponse	0	0.173	n/a	7	57	ButtonPress	Neutral	True
545.775	1.45	Control	0.6552	n/a	No	3.473	n/a	5.0	NoResponse	0	0.0	544.775	7	57	Feedback	Neutral	True
547.229	3.473	Control	0.6552	n/a	No	3.473	n/a	n/a	NoResponse	0	0.0	n/a	7	57	ISIslide	Neutral	True
550.723	0.25	Win2	0.6441	0.0	No	2.727	0.023	n/a	NoResponse	0	n/a	n/a	7	58	Cue	MissedWin	True
550.974	4.05	Win2	0.6441	0.0	No	2.727	0.001	n/a	NoResponse	0	n/a	n/a	7	58	Fixation	MissedWin	True
555.019	0.16	Win2	0.6441	0.004	No	2.727	-0.004	2.0	NoResponse	0	0.175	554.194	7	58	Target	MissedWin	True
555.186	0.54	Win2	0.6441	n/a	No	2.727	n/a	n/a	NoResponse	0	n/a	n/a	7	58	Blank	MissedWin	True
555.194	0.3	Win2	0.6441	0.004	No	2.727	-0.004	2.0	NoResponse	0	0.175	n/a	7	58	ButtonPress	MissedWin	True
555.721	1.45	Win2	0.6441	n/a	No	2.727	n/a	5.0	NoResponse	0	0.006	554.727	7	58	Feedback	MissedWin	True
557.176	2.727	Win2	0.6441	n/a	No	2.727	n/a	n/a	NoResponse	0	0.0	n/a	7	58	ISIslide	MissedWin	True
559.917	0.25	Lose2	0.6333	0.0	No	2.683	0.017	n/a	NoResponse	-1	n/a	n/a	6	59	Cue	Loss	False
560.168	4.0	Lose2	0.6333	0.0	No	2.683	0.001	2.0	NoResponse	-1	3.95	563.118	6	59	Fixation	Loss	False
564.118	0.3	Lose2	0.6333	0.0	No	2.683	0.001	2.0	NoResponse	-1	3.95	n/a	6	59	ButtonPress	Loss	False
564.163	0.17	Lose2	0.6333	0.004	No	2.683	-0.004	2.0	NoResponse	-1	0.223	563.386	6	59	Target	Loss	False
564.347	0.53	Lose2	0.6333	n/a	No	2.683	n/a	n/a	NoResponse	-1	n/a	n/a	6	59	Blank	Loss	False
564.386	0.3	Lose2	0.6333	0.004	No	2.683	-0.004	2.0	NoResponse	-1	0.223	n/a	6	59	ButtonPress	Loss	False
564.865	1.45	Lose2	0.6333	n/a	No	2.683	n/a	5.0	NoResponse	-1	0.032	563.897	6	59	Feedback	Loss	False
566.32	2.683	Lose2	0.6333	n/a	No	2.683	n/a	n/a	NoResponse	-1	0.0	n/a	6	59	ISIslide	Loss	False
569.028	0.25	Control	0.623	0.0	No	2.672	0.028	n/a	NoResponse	0	n/a	n/a	6	60	Cue	Neutral	False
569.279	4.0	Control	0.623	0.0	No	2.672	0.001	n/a	NoResponse	0	n/a	n/a	6	60	Fixation	Neutral	False
573.274	0.18	Control	0.623	0.004	No	2.672	-0.004	n/a	NoResponse	0	n/a	n/a	6	60	Target	Neutral	False
573.458	0.52	Control	0.623	n/a	No	2.672	n/a	n/a	NoResponse	0	n/a	n/a	6	60	Blank	Neutral	False
573.976	1.45	Control	0.623	n/a	No	2.672	n/a	5.0	NoResponse	0	0.043	573.019	6	60	Feedback	Neutral	False
575.43	2.672	Control	0.623	n/a	No	2.672	n/a	n/a	NoResponse	0	0.0	n/a	6	60	ISIslide	Neutral	False
578.122	0.25	Lose2	0.629	0.0	Yes	2.978	0.022	n/a	GoodResponse	0	n/a	n/a	6	61	Cue	AvoidedLoss	True
578.373	4.0	Lose2	0.629	0.0	Yes	2.978	0.001	n/a	GoodResponse	0	n/a	n/a	6	61	Fixation	AvoidedLoss	True
582.368	0.19	Lose2	0.629	0.004	Yes	2.978	-0.004	2.0	GoodResponse	0	0.175	581.543	6	61	Target	AvoidedLoss	True
582.543	0.3	Lose2	0.629	0.004	Yes	2.978	-0.004	2.0	GoodResponse	0	0.175	n/a	6	61	ButtonPress	AvoidedLoss	True
582.568	0.51	Lose2	0.629	n/a	Yes	2.978	n/a	n/a	GoodResponse	0	n/a	n/a	6	61	Blank	AvoidedLoss	True
583.07	1.45	Lose2	0.629	n/a	Yes	2.978	n/a	5.0	GoodResponse	0	0.022	582.092	6	61	Feedback	AvoidedLoss	True
584.524	2.978	Lose2	0.629	n/a	Yes	2.978	n/a	n/a	GoodResponse	0	0.0	n/a	6	61	ISIslide	AvoidedLoss	True
587.517	0.25	Lose2	0.6349	0.0	Yes	2.883	0.017	n/a	GoodResponse	0	n/a	n/a	6	62	Cue	AvoidedLoss	True
587.767	3.9	Lose2	0.6349	0.0	Yes	2.883	0.0	n/a	GoodResponse	0	n/a	n/a	6	62	Fixation	AvoidedLoss	True
591.679	0.2	Lose2	0.6349	0.0	Yes	2.883	0.012	2.0	GoodResponse	0	0.185	590.864	6	62	Target	AvoidedLoss	True
591.863	0.5	Lose2	0.6349	n/a	Yes	2.883	n/a	n/a	GoodResponse	0	n/a	n/a	6	62	Blank	AvoidedLoss	True
591.864	0.3	Lose2	0.6349	0.0	Yes	2.883	0.012	2.0	GoodResponse	0	0.185	n/a	6	62	ButtonPress	AvoidedLoss	True
592.364	1.45	Lose2	0.6349	n/a	Yes	2.883	n/a	5.0	GoodResponse	0	0.046	591.41	6	62	Feedback	AvoidedLoss	True
593.819	2.883	Lose2	0.6349	n/a	Yes	2.883	n/a	n/a	GoodResponse	0	0.0	n/a	6	62	ISIslide	AvoidedLoss	True
596.727	0.25	Lose2	0.6406000000000001	0.001	Yes	2.623	0.027	n/a	GoodResponse	0	n/a	n/a	6	63	Cue	AvoidedLoss	True
596.978	4.05	Lose2	0.6406000000000001	0.0	Yes	2.623	0.001	n/a	GoodResponse	0	n/a	n/a	6	63	Fixation	AvoidedLoss	True
601.024	0.21	Lose2	0.6406000000000001	0.003	Yes	2.623	-0.003	2.0	GoodResponse	0	0.196	600.22	6	63	Target	AvoidedLoss	True
601.22	0.3	Lose2	0.6406000000000001	0.003	Yes	2.623	-0.003	2.0	GoodResponse	0	0.196	n/a	6	63	ButtonPress	AvoidedLoss	True
601.241	0.49	Lose2	0.6406000000000001	n/a	Yes	2.623	n/a	n/a	GoodResponse	0	n/a	n/a	6	63	Blank	AvoidedLoss	True
601.726	1.45	Lose2	0.6406000000000001	n/a	Yes	2.623	n/a	5.0	GoodResponse	0	0.0	600.726	6	63	Feedback	AvoidedLoss	True
603.18	2.623	Lose2	0.6406000000000001	n/a	Yes	2.623	n/a	n/a	GoodResponse	0	0.0	n/a	6	63	ISIslide	AvoidedLoss	True
605.821	0.25	Win2	0.6308	0.0	No	3.129	0.021	n/a	NoResponse	0	n/a	n/a	6	64	Cue	MissedWin	False
606.072	4.15	Win2	0.6308	0.0	No	3.129	0.001	n/a	NoResponse	0	n/a	n/a	6	64	Fixation	MissedWin	False
610.218	0.22	Win2	0.6308	0.003	No	3.129	-0.003	n/a	NoResponse	0	n/a	n/a	6	64	Target	MissedWin	False
610.452	0.48	Win2	0.6308	n/a	No	3.129	n/a	n/a	NoResponse	0	n/a	n/a	6	64	Blank	MissedWin	False
610.92	1.45	Win2	0.6308	n/a	No	3.129	n/a	5.0	NoResponse	0	0.025	609.945	6	64	Feedback	MissedWin	False
612.374	3.129	Win2	0.6308	n/a	No	3.129	n/a	n/a	NoResponse	0	0.0	n/a	6	64	ISIslide	MissedWin	False
615.517	0.25	Control	0.6212	0.0	No	2.783	0.017	n/a	NoResponse	0	n/a	n/a	6	65	Cue	Neutral	False
615.768	4.0	Control	0.6212	0.0	No	2.783	0.001	n/a	NoResponse	0	n/a	n/a	6	65	Fixation	Neutral	False
619.763	0.23	Control	0.6212	0.004	No	2.783	-0.004	n/a	NoResponse	0	n/a	n/a	6	65	Target	Neutral	False
619.997	0.47	Control	0.6212	n/a	No	2.783	n/a	n/a	NoResponse	0	n/a	n/a	6	65	Blank	Neutral	False
620.465	1.45	Control	0.6212	n/a	No	2.783	n/a	5.0	NoResponse	0	0.041	619.506	6	65	Feedback	Neutral	False
621.92	2.783	Control	0.6212	n/a	No	2.783	n/a	n/a	NoResponse	0	0.0	n/a	6	65	ISIslide	Neutral	False
624.728	0.25	Win2	0.6119	0.0	No	2.772	0.028	n/a	NoResponse	0	n/a	n/a	6	66	Cue	MissedWin	False
624.979	3.9	Win2	0.6119	0.0	No	2.772	0.001	n/a	NoResponse	0	n/a	n/a	6	66	Fixation	MissedWin	False
628.874	0.24	Win2	0.6119	0.004	No	2.772	-0.004	n/a	NoResponse	0	n/a	n/a	6	66	Target	MissedWin	False
629.124	0.46	Win2	0.6119	n/a	No	2.772	n/a	n/a	NoResponse	0	n/a	n/a	6	66	Blank	MissedWin	False
629.576	1.45	Win2	0.6119	n/a	No	2.772	n/a	5.0	NoResponse	0	0.007	628.583	6	66	Feedback	MissedWin	False
631.03	2.772	Win2	0.6119	n/a	No	2.772	n/a	n/a	NoResponse	0	0.0	n/a	6	66	ISIslide	MissedWin	False
633.822	0.25	Control	0.6175999999999999	0.0	Yes	2.728	0.022	n/a	GoodResponse	0	n/a	n/a	6	67	Cue	Neutral	True
634.073	3.95	Control	0.6175999999999999	0.0	Yes	2.728	0.001	n/a	GoodResponse	0	n/a	n/a	6	67	Fixation	Neutral	True
638.018	0.25	Control	0.6175999999999999	0.004	Yes	2.728	-0.004	2.0	GoodResponse	0	0.17	637.188	6	67	Target	Neutral	True
638.188	0.3	Control	0.6175999999999999	0.004	Yes	2.728	-0.004	2.0	GoodResponse	0	0.17	n/a	6	67	ButtonPress	Neutral	True
638.268	0.45	Control	0.6175999999999999	n/a	Yes	2.728	n/a	n/a	GoodResponse	0	n/a	n/a	6	67	Blank	Neutral	True
638.72	1.45	Control	0.6175999999999999	n/a	Yes	2.728	n/a	5.0	GoodResponse	0	0.031	637.751	6	67	Feedback	Neutral	True
640.174	2.728	Control	0.6175999999999999	n/a	Yes	2.728	n/a	n/a	GoodResponse	0	0.0	n/a	6	67	ISIslide	Neutral	True
642.916	0.25	Win2	0.6232	0.0	Yes	3.084	0.016	n/a	GoodResponse	1	n/a	n/a	7	68	Cue	Win	True
643.166	4.0	Win2	0.6232	0.001	Yes	3.084	0.0	n/a	GoodResponse	1	n/a	n/a	7	68	Fixation	Win	True
647.162	0.26	Win2	0.6232	0.004	Yes	3.084	-0.004	2.0	GoodResponse	1	0.219	646.381	7	68	Target	Win	True
647.381	0.3	Win2	0.6232	0.004	Yes	3.084	-0.004	2.0	GoodResponse	1	0.219	n/a	7	68	ButtonPress	Win	True
647.429	0.44	Win2	0.6232	n/a	Yes	3.084	n/a	n/a	GoodResponse	1	n/a	n/a	7	68	Blank	Win	True
647.864	1.45	Win2	0.6232	n/a	Yes	3.084	n/a	5.0	GoodResponse	1	0.008	646.872	7	68	Feedback	Win	True
649.318	3.084	Win2	0.6232	n/a	Yes	3.084	n/a	n/a	GoodResponse	1	0.0	n/a	7	68	ISIslide	Win	True
652.427	0.25	Win2	0.6286	0.001	Yes	3.223	0.027	n/a	GoodResponse	1	n/a	n/a	8	69	Cue	Win	True
652.678	3.95	Win2	0.6286	0.0	Yes	3.223	0.001	n/a	GoodResponse	1	n/a	n/a	8	69	Fixation	Win	True
656.623	0.27	Win2	0.6286	0.004	Yes	3.223	-0.004	2.0	GoodResponse	1	0.178	655.801	8	69	Target	Win	True
656.801	0.3	Win2	0.6286	0.004	Yes	3.223	-0.004	2.0	GoodResponse	1	0.178	n/a	8	69	ButtonPress	Win	True
656.908	0.43	Win2	0.6286	n/a	Yes	3.223	n/a	n/a	GoodResponse	1	n/a	n/a	8	69	Blank	Win	True
657.325	1.45	Win2	0.6286	n/a	Yes	3.223	n/a	5.0	GoodResponse	1	0.01	656.335	8	69	Feedback	Win	True
658.78	3.223	Win2	0.6286	n/a	Yes	3.223	n/a	n/a	GoodResponse	1	0.0	n/a	8	69	ISIslide	Win	True
662.023	0.25	Lose2	0.6197	0.0	No	3.027	0.023	n/a	NoResponse	-1	n/a	n/a	7	70	Cue	Loss	False
662.274	4.05	Lose2	0.6197	0.0	No	3.027	0.001	n/a	NoResponse	-1	n/a	n/a	7	70	Fixation	Loss	False
666.319	0.28	Lose2	0.6197	0.004	No	3.027	-0.004	n/a	NoResponse	-1	n/a	n/a	7	70	Target	Loss	False
666.603	0.42	Lose2	0.6197	n/a	No	3.027	n/a	n/a	NoResponse	-1	n/a	n/a	7	70	Blank	Loss	False
667.021	1.45	Lose2	0.6197	n/a	No	3.027	n/a	5.0	NoResponse	-1	0.022	666.043	7	70	Feedback	Loss	False
668.476	3.027	Lose2	0.6197	n/a	No	3.027	n/a	n/a	NoResponse	-1	0.0	n/a	7	70	ISIslide	Loss	False
671.518	0.25	Win2	0.6111	0.0	No	2.732	0.018	n/a	NoResponse	0	n/a	n/a	7	71	Cue	MissedWin	False
671.769	4.05	Win2	0.6111	0.0	No	2.732	0.001	n/a	NoResponse	0	n/a	n/a	7	71	Fixation	MissedWin	False
675.814	0.29	Win2	0.6111	0.004	No	2.732	-0.004	n/a	NoResponse	0	n/a	n/a	7	71	Target	MissedWin	False
676.115	0.41	Win2	0.6111	n/a	No	2.732	n/a	n/a	NoResponse	0	n/a	n/a	7	71	Blank	MissedWin	False
676.516	1.45	Win2	0.6111	n/a	No	2.732	n/a	5.0	NoResponse	0	0.039	675.555	7	71	Feedback	MissedWin	False
677.971	2.732	Win2	0.6111	n/a	No	2.732	n/a	n/a	NoResponse	0	0.0	n/a	7	71	ISIslide	MissedWin	False
680.729	0.25	Win2	0.6027	0.0	No	2.771	0.029	n/a	NoResponse	0	n/a	n/a	7	72	Cue	MissedWin	False
680.98	4.1	Win2	0.6027	0.0	No	2.771	0.001	n/a	NoResponse	0	n/a	n/a	7	72	Fixation	MissedWin	False
685.075	0.3	Win2	0.6027	0.004	No	2.771	-0.004	n/a	NoResponse	0	n/a	n/a	7	72	Target	MissedWin	False
685.376	0.4	Win2	0.6027	n/a	No	2.771	n/a	n/a	NoResponse	0	n/a	n/a	7	72	Blank	MissedWin	False
685.777	1.45	Win2	0.6027	n/a	No	2.771	n/a	5.0	NoResponse	0	0.046	684.823	7	72	Feedback	MissedWin	False
687.232	2.771	Win2	0.6027	n/a	No	2.771	n/a	n/a	NoResponse	0	0.0	n/a	7	72	ISIslide	MissedWin	False
690.023	0.25	Win2	0.5946	0.0	No	2.677	0.023	n/a	NoResponse	0	n/a	n/a	7	73	Cue	MissedWin	False
690.274	4.0	Win2	0.5946	0.0	No	2.677	0.001	n/a	NoResponse	0	n/a	n/a	7	73	Fixation	MissedWin	False
694.269	0.31	Win2	0.5946	0.004	No	2.677	-0.004	n/a	NoResponse	0	n/a	n/a	7	73	Target	MissedWin	False
694.587	0.39	Win2	0.5946	n/a	No	2.677	n/a	n/a	NoResponse	0	n/a	n/a	7	73	Blank	MissedWin	False
694.972	1.45	Win2	0.5946	n/a	No	2.677	n/a	5.0	NoResponse	0	0.022	693.994	7	73	Feedback	MissedWin	False
696.426	2.677	Win2	0.5946	n/a	No	2.677	n/a	n/a	NoResponse	0	0.0	n/a	7	73	ISIslide	MissedWin	False
699.117	0.25	Lose2	0.5867	0.0	No	2.633	0.017	n/a	NoResponse	-1	n/a	n/a	6	74	Cue	Loss	False
699.368	4.05	Lose2	0.5867	0.0	No	2.633	0.001	n/a	NoResponse	-1	n/a	n/a	6	74	Fixation	Loss	False
703.413	0.32	Lose2	0.5867	0.004	No	2.633	-0.004	n/a	NoResponse	-1	n/a	n/a	6	74	Target	Loss	False
703.748	0.38	Lose2	0.5867	n/a	No	2.633	n/a	n/a	NoResponse	-1	n/a	n/a	6	74	Blank	Loss	False
704.116	1.45	Lose2	0.5867	n/a	No	2.633	n/a	5.0	NoResponse	-1	0.048	703.164	6	74	Feedback	Loss	False
705.57	2.633	Lose2	0.5867	n/a	No	2.633	n/a	n/a	NoResponse	-1	0.0	n/a	6	74	ISIslide	Loss	False
708.228	0.25	Lose2	0.5789	0.0	No	2.922	0.028	n/a	NoResponse	-1	n/a	n/a	5	75	Cue	Loss	True
708.479	3.95	Lose2	0.5789	0.0	No	2.922	0.001	n/a	NoResponse	-1	n/a	n/a	5	75	Fixation	Loss	True
712.424	0.33	Lose2	0.5789	0.004	No	2.922	-0.004	2.0	NoResponse	-1	0.374	711.798	5	75	Target	Loss	True
712.758	0.37	Lose2	0.5789	n/a	No	2.922	n/a	n/a	NoResponse	-1	n/a	n/a	5	75	Blank	Loss	True
712.798	0.3	Lose2	0.5789	0.004	No	2.922	-0.004	2.0	NoResponse	-1	0.374	n/a	5	75	ButtonPress	Loss	True
713.126	1.45	Lose2	0.5789	n/a	No	2.922	n/a	5.0	NoResponse	-1	0.014	712.14	5	75	Feedback	Loss	True
714.58	2.922	Lose2	0.5789	n/a	No	2.922	n/a	n/a	NoResponse	-1	0.0	n/a	5	75	ISIslide	Loss	True
717.522	0.25	Control	0.5714	0.0	No	3.228	0.022	n/a	NoResponse	0	n/a	n/a	5	76	Cue	Neutral	False
717.773	4.05	Control	0.5714	0.0	No	3.228	0.001	n/a	NoResponse	0	n/a	n/a	5	76	Fixation	Neutral	False
721.819	0.34	Control	0.5714	0.003	No	3.228	-0.003	n/a	NoResponse	0	n/a	n/a	5	76	Target	Neutral	False
722.17	0.36	Control	0.5714	n/a	No	3.228	n/a	n/a	NoResponse	0	n/a	n/a	5	76	Blank	Neutral	False
722.521	1.45	Control	0.5714	n/a	No	3.228	n/a	5.0	NoResponse	0	0.033	721.554	5	76	Feedback	Neutral	False
723.975	3.228	Control	0.5714	n/a	No	3.228	n/a	n/a	NoResponse	0	0.0	n/a	5	76	ISIslide	Neutral	False
727.218	0.25	Lose2	0.5640999999999999	0.0	No	2.582	0.018	n/a	NoResponse	-1	n/a	n/a	4	77	Cue	Loss	False
727.469	3.95	Lose2	0.5640999999999999	0.0	No	2.582	0.001	n/a	NoResponse	-1	n/a	n/a	4	77	Fixation	Loss	False
731.414	0.35	Lose2	0.5640999999999999	0.004	No	2.582	-0.004	n/a	NoResponse	-1	n/a	n/a	4	77	Target	Loss	False
731.765	0.35	Lose2	0.5640999999999999	n/a	No	2.582	n/a	n/a	NoResponse	-1	n/a	n/a	4	77	Blank	Loss	False
732.116	1.45	Lose2	0.5640999999999999	n/a	No	2.582	n/a	5.0	NoResponse	-1	0.048	731.164	4	77	Feedback	Loss	False
733.57	2.582	Lose2	0.5640999999999999	n/a	No	2.582	n/a	n/a	NoResponse	-1	0.0	n/a	4	77	ISIslide	Loss	False
