onset	duration	cue_type	current_mean_accuracy	duration_error	is_hit	isi_adjusted	onset_delay	response	response_type	reward	rt	rt_time	total_reward	trial_number	trial_phase	trial_type	one_press
11.102	0.25	Control	1.0	0.0	Yes	2.948	0.002	n/a	GoodResponse	0	n/a	n/a	0	0	Cue	Neutral	True
11.352	3.85	Control	1.0	0.0	Yes	2.948	0.0	n/a	GoodResponse	0	n/a	n/a	0	0	Fixation	Neutral	True
15.2	0.4	Control	1.0	0.002	Yes	2.948	-0.002	3.0	GoodResponse	0	0.225	14.425	0	0	Target	Neutral	True
15.425	0.3	Control	1.0	0.002	Yes	2.948	-0.002	3.0	GoodResponse	0	0.225	n/a	0	0	ButtonPress	Neutral	True
15.6	0.3	Control	1.0	n/a	Yes	2.948	n/a	n/a	GoodResponse	0	n/a	n/a	0	0	Blank	Neutral	True
15.9	1.45	Control	1.0	n/a	Yes	2.948	n/a	5.0	GoodResponse	0	0.026	14.926	0	0	Feedback	Neutral	True
17.35	2.948	Control	1.0	n/a	Yes	2.948	n/a	n/a	GoodResponse	0	0.0	n/a	0	0	ISIslide	Neutral	True
20.315	0.25	Lose2	1.0	0.0	Yes	2.785	0.015	n/a	GoodResponse	0	n/a	n/a	0	1	Cue	AvoidedLoss	True
20.565	4.0	Lose2	1.0	0.0	Yes	2.785	0.0	n/a	GoodResponse	0	n/a	n/a	0	1	Fixation	AvoidedLoss	True
24.564	0.39	Lose2	1.0	0.001	Yes	2.785	-0.001	3.0	GoodResponse	0	0.204	23.768	0	1	Target	AvoidedLoss	True
24.768	0.3	Lose2	1.0	0.001	Yes	2.785	-0.001	3.0	GoodResponse	0	0.204	n/a	0	1	ButtonPress	AvoidedLoss	True
24.964	0.31	Lose2	1.0	n/a	Yes	2.785	n/a	n/a	GoodResponse	0	n/a	n/a	0	1	Blank	AvoidedLoss	True
25.264	1.45	Lose2	1.0	n/a	Yes	2.785	n/a	5.0	GoodResponse	0	0.028	24.292	0	1	Feedback	AvoidedLoss	True
26.713	2.785	Lose2	1.0	n/a	Yes	2.785	n/a	n/a	GoodResponse	0	0.0	n/a	0	1	ISIslide	AvoidedLoss	True
29.529	0.25	Control	1.0	0.0	Yes	2.571	0.029	n/a	GoodResponse	0	n/a	n/a	0	2	Cue	Neutral	True
29.779	4.1	Control	1.0	0.0	Yes	2.571	0.0	n/a	GoodResponse	0	n/a	n/a	0	2	Fixation	Neutral	True
33.877	0.38	Control	1.0	0.002	Yes	2.571	-0.002	3.0	GoodResponse	0	0.271	33.148	0	2	Target	Neutral	True
34.148	0.3	Control	1.0	0.002	Yes	2.571	-0.002	3.0	GoodResponse	0	0.271	n/a	0	2	ButtonPress	Neutral	True
34.26	0.32	Control	1.0	n/a	Yes	2.571	n/a	n/a	GoodResponse	0	n/a	n/a	0	2	Blank	Neutral	True
34.577	1.45	Control	1.0	n/a	Yes	2.571	n/a	5.0	GoodResponse	0	0.032	33.609	0	2	Feedback	Neutral	True
36.027	2.571	Control	1.0	n/a	Yes	2.571	n/a	n/a	GoodResponse	0	0.0	n/a	0	2	ISIslide	Neutral	True
38.626	0.25	Win2	1.0	0.0	Yes	2.824	0.026	n/a	GoodResponse	1	n/a	n/a	1	3	Cue	Win	True
38.876	3.95	Win2	1.0	0.0	Yes	2.824	0.0	n/a	GoodResponse	1	n/a	n/a	1	3	Fixation	Win	True
42.824	0.37	Win2	1.0	0.002	Yes	2.824	-0.002	3.0	GoodResponse	1	0.199	42.023	1	3	Target	Win	True
43.023	0.3	Win2	1.0	0.002	Yes	2.824	-0.002	3.0	GoodResponse	1	0.199	n/a	1	3	ButtonPress	Win	True
43.207	0.33	Win2	1.0	n/a	Yes	2.824	n/a	n/a	GoodResponse	1	n/a	n/a	1	3	Blank	Win	True
43.524	1.45	Win2	1.0	n/a	Yes	2.824	n/a	5.0	GoodResponse	1	0.012	42.536	1	3	Feedback	Win	True
44.973	2.824	Win2	1.0	n/a	Yes	2.824	n/a	n/a	GoodResponse	1	0.0	n/a	1	3	ISIslide	Win	True
47.822	0.25	Win2	1.0	0.001	Yes	3.278	0.022	n/a	GoodResponse	1	n/a	n/a	2	4	Cue	Win	True
48.072	4.0	Win2	1.0	0.0	Yes	3.278	0.0	n/a	GoodResponse	1	n/a	n/a	2	4	Fixation	Win	True
52.071	0.36	Win2	1.0	0.001	Yes	3.278	-0.001	3.0	GoodResponse	1	0.243	51.314	2	4	Target	Win	True
52.314	0.3	Win2	1.0	0.001	Yes	3.278	-0.001	3.0	GoodResponse	1	0.243	n/a	2	4	ButtonPress	Win	True
52.438	0.34	Win2	1.0	n/a	Yes	3.278	n/a	n/a	GoodResponse	1	n/a	n/a	2	4	Blank	Win	True
52.771	1.45	Win2	1.0	n/a	Yes	3.278	n/a	5.0	GoodResponse	1	0.033	51.804	2	4	Feedback	Win	True
54.22	3.278	Win2	1.0	n/a	Yes	3.278	n/a	n/a	GoodResponse	1	0.0	n/a	2	4	ISIslide	Win	True
57.519	0.25	Win2	1.0	0.0	Yes	2.781	0.019	n/a	GoodResponse	1	n/a	n/a	3	5	Cue	Win	True
57.769	4.0	Win2	1.0	0.0	Yes	2.781	0.0	n/a	GoodResponse	1	n/a	n/a	3	5	Fixation	Win	True
61.768	0.35	Win2	1.0	0.001	Yes	2.781	-0.001	3.0	GoodResponse	1	0.234	61.002	3	5	Target	Win	True
62.002	0.3	Win2	1.0	0.001	Yes	2.781	-0.001	3.0	GoodResponse	1	0.234	n/a	3	5	ButtonPress	Win	True
62.118	0.35	Win2	1.0	n/a	Yes	2.781	n/a	n/a	GoodResponse	1	n/a	n/a	3	5	Blank	Win	True
62.467	1.45	Win2	1.0	n/a	Yes	2.781	n/a	5.0	GoodResponse	1	0.044	61.511	3	5	Feedback	Win	True
63.917	2.781	Win2	1.0	n/a	Yes	2.781	n/a	n/a	GoodResponse	1	0.0	n/a	3	5	ISIslide	Win	True
66.716	0.25	Lose2	1.0	0.0	Yes	2.734	0.016	n/a	GoodResponse	0	n/a	n/a	3	6	Cue	AvoidedLoss	True
66.966	3.95	Lose2	1.0	0.0	Yes	2.734	0.0	n/a	GoodResponse	0	n/a	n/a	3	6	Fixation	AvoidedLoss	True
70.915	0.34	Lose2	1.0	0.001	Yes	2.734	-0.001	3.0	GoodResponse	0	0.229	70.144	3	6	Target	AvoidedLoss	True
71.144	0.3	Lose2	1.0	0.001	Yes	2.734	-0.001	3.0	GoodResponse	0	0.229	n/a	3	6	ButtonPress	AvoidedLoss	True
71.264	0.36	Lose2	1.0	n/a	Yes	2.734	n/a	n/a	GoodResponse	0	n/a	n/a	3	6	Blank	AvoidedLoss	True
71.614	1.45	Lose2	1.0	n/a	Yes	2.734	n/a	5.0	GoodResponse	0	0.02	70.634	3	6	Feedback	AvoidedLoss	True
73.064	2.734	Lose2	1.0	n/a	Yes	2.734	n/a	n/a	GoodResponse	0	0.0	n/a	3	6	ISIslide	AvoidedLoss	True
75.83	0.25	Lose2	1.0	0.0	Yes	4.02	0.03	n/a	GoodResponse	0	n/a	n/a	3	7	Cue	AvoidedLoss	True
76.079	4.05	Lose2	1.0	0.001	Yes	4.02	-0.001	n/a	GoodResponse	0	n/a	n/a	3	7	Fixation	AvoidedLoss	True
80.128	0.33	Lose2	1.0	0.002	Yes	4.02	-0.002	3.0	GoodResponse	0	0.321	79.449	3	7	Target	AvoidedLoss	True
80.449	0.3	Lose2	1.0	0.002	Yes	4.02	-0.002	3.0	GoodResponse	0	0.321	n/a	3	7	ButtonPress	AvoidedLoss	True
80.461	0.37	Lose2	1.0	n/a	Yes	4.02	n/a	n/a	GoodResponse	0	n/a	n/a	3	7	Blank	AvoidedLoss	True
80.828	1.45	Lose2	1.0	n/a	Yes	4.02	n/a	5.0	GoodResponse	0	0.025	79.853	3	7	Feedback	AvoidedLoss	True
82.277	4.02	Lose2	1.0	n/a	Yes	4.02	n/a	n/a	GoodResponse	0	0.0	n/a	3	7	ISIslide	AvoidedLoss	True
86.326	0.25	Lose2	1.0	0.0	Yes	3.024	0.026	n/a	GoodResponse	0	n/a	n/a	3	8	Cue	AvoidedLoss	True
86.576	3.95	Lose2	1.0	0.0	Yes	3.024	0.0	n/a	GoodResponse	0	n/a	n/a	3	8	Fixation	AvoidedLoss	True
90.525	0.32	Lose2	1.0	0.001	Yes	3.024	-0.001	3.0	GoodResponse	0	0.209	89.734	3	8	Target	AvoidedLoss	True
90.734	0.3	Lose2	1.0	0.001	Yes	3.024	-0.001	3.0	GoodResponse	0	0.209	n/a	3	8	ButtonPress	AvoidedLoss	True
90.858	0.38	Lose2	1.0	n/a	Yes	3.024	n/a	n/a	GoodResponse	0	n/a	n/a	3	8	Blank	AvoidedLoss	True
91.224	1.45	Lose2	1.0	n/a	Yes	3.024	n/a	5.0	GoodResponse	0	0.019	90.243	3	8	Feedback	AvoidedLoss	True
92.674	3.024	Lose2	1.0	n/a	Yes	3.024	n/a	n/a	GoodResponse	0	0.0	n/a	3	8	ISIslide	AvoidedLoss	True
95.723	0.25	Lose2	1.0	0.0	Yes	3.127	0.023	n/a	GoodResponse	0	n/a	n/a	3	9	Cue	AvoidedLoss	True
95.973	3.95	Lose2	1.0	0.0	Yes	3.127	0.0	n/a	GoodResponse	0	n/a	n/a	3	9	Fixation	AvoidedLoss	True
99.921	0.31	Lose2	1.0	0.002	Yes	3.127	-0.002	3.0	GoodResponse	0	0.244	99.165	3	9	Target	AvoidedLoss	True
100.165	0.3	Lose2	1.0	0.002	Yes	3.127	-0.002	3.0	GoodResponse	0	0.244	n/a	3	9	ButtonPress	AvoidedLoss	True
100.238	0.39	Lose2	1.0	n/a	Yes	3.127	n/a	n/a	GoodResponse	0	n/a	n/a	3	9	Blank	AvoidedLoss	True
100.621	1.45	Lose2	1.0	n/a	Yes	3.127	n/a	5.0	GoodResponse	0	0.036	99.657	3	9	Feedback	AvoidedLoss	True
102.071	3.127	Lose2	1.0	n/a	Yes	3.127	n/a	n/a	GoodResponse	0	0.0	n/a	3	9	ISIslide	AvoidedLoss	True
105.22	0.25	Control	1.0	0.0	Yes	3.28	0.02	n/a	GoodResponse	0	n/a	n/a	3	10	Cue	Neutral	True
105.469	4.0	Control	1.0	0.001	Yes	3.28	-0.001	n/a	GoodResponse	0	n/a	n/a	3	10	Fixation	Neutral	True
109.468	0.3	Control	1.0	0.002	Yes	3.28	-0.002	3.0	GoodResponse	0	0.241	108.709	3	10	Target	Neutral	True
109.709	0.3	Control	1.0	0.002	Yes	3.28	-0.002	3.0	GoodResponse	0	0.241	n/a	3	10	ButtonPress	Neutral	True
109.768	0.4	Control	1.0	n/a	Yes	3.28	n/a	n/a	GoodResponse	0	n/a	n/a	3	10	Blank	Neutral	True
110.168	1.45	Control	1.0	n/a	Yes	3.28	n/a	5.0	GoodResponse	0	0.002	109.17	3	10	Feedback	Neutral	True
111.617	3.28	Control	1.0	n/a	Yes	3.28	n/a	n/a	GoodResponse	0	0.0	n/a	3	10	ISIslide	Neutral	True
114.916	0.25	Lose2	0.9167000000000001	0.0	No	2.734	0.016	n/a	NoResponse	-1	n/a	n/a	2	11	Cue	Loss	True
115.166	4.05	Lose2	0.9167000000000001	0.0	No	2.734	0.0	n/a	NoResponse	-1	n/a	n/a	2	11	Fixation	Loss	True
119.215	0.29	Lose2	0.9167000000000001	0.001	No	2.734	-0.001	3.0	NoResponse	-1	0.38	118.595	2	11	Target	Loss	True
119.515	0.41	Lose2	0.9167000000000001	n/a	No	2.734	n/a	n/a	NoResponse	-1	n/a	n/a	2	11	Blank	Loss	True
119.595	0.3	Lose2	0.9167000000000001	0.001	No	2.734	-0.001	3.0	NoResponse	-1	0.38	n/a	2	11	ButtonPress	Loss	True
119.914	1.45	Lose2	0.9167000000000001	n/a	No	2.734	n/a	5.0	NoResponse	-1	0.012	118.926	2	11	Feedback	Loss	True
121.364	2.734	Lose2	0.9167000000000001	n/a	No	2.734	n/a	n/a	NoResponse	-1	0.0	n/a	2	11	ISIslide	Loss	True
124.113	0.25	Control	0.9231	0.0	Yes	2.987	0.013	n/a	GoodResponse	0	n/a	n/a	2	12	Cue	Neutral	True
124.363	3.9	Control	0.9231	0.0	Yes	2.987	0.0	n/a	GoodResponse	0	n/a	n/a	2	12	Fixation	Neutral	True
128.262	0.28	Control	0.9231	0.001	Yes	2.987	-0.001	3.0	GoodResponse	0	0.145	127.407	2	12	Target	Neutral	True
128.407	0.3	Control	0.9231	0.001	Yes	2.987	-0.001	3.0	GoodResponse	0	0.145	n/a	2	12	ButtonPress	Neutral	True
128.545	0.42	Control	0.9231	n/a	Yes	2.987	n/a	n/a	GoodResponse	0	n/a	n/a	2	12	Blank	Neutral	True
128.961	1.45	Control	0.9231	n/a	Yes	2.987	n/a	5.0	GoodResponse	0	0.038	127.999	2	12	Feedback	Neutral	True
130.411	2.987	Control	0.9231	n/a	Yes	2.987	n/a	n/a	GoodResponse	0	0.0	n/a	2	12	ISIslide	Neutral	True
133.427	0.25	Control	0.8571	0.0	No	2.773	0.027	n/a	NoResponse	0	n/a	n/a	2	13	Cue	Neutral	False
133.676	4.0	Control	0.8571	0.001	No	2.773	-0.001	3.0	NoResponse	0	0.288	132.964	2	13	Fixation	Neutral	False
133.964	0.3	Control	0.8571	0.001	No	2.773	-0.001	3.0	NoResponse	0	0.288	n/a	2	13	ButtonPress	Neutral	False
137.675	0.27	Control	0.8571	0.002	No	2.773	-0.002	3.0	NoResponse	0	0.448	137.123	2	13	Target	Neutral	False
137.958	0.43	Control	0.8571	n/a	No	2.773	n/a	n/a	NoResponse	0	n/a	n/a	2	13	Blank	Neutral	False
138.123	0.3	Control	0.8571	0.002	No	2.773	-0.002	3.0	NoResponse	0	0.448	n/a	2	13	ButtonPress	Neutral	False
138.375	1.45	Control	0.8571	n/a	No	2.773	n/a	5.0	NoResponse	0	0.039	137.414	2	13	Feedback	Neutral	False
139.824	2.773	Control	0.8571	n/a	No	2.773	n/a	n/a	NoResponse	0	0.0	n/a	2	13	ISIslide	Neutral	False
142.623	0.25	Win2	0.8667	0.0	Yes	2.677	0.023	n/a	GoodResponse	1	n/a	n/a	3	14	Cue	Win	True
142.873	4.1	Win2	0.8667	0.0	Yes	2.677	0.0	n/a	GoodResponse	1	n/a	n/a	3	14	Fixation	Win	True
146.972	0.26	Win2	0.8667	0.001	Yes	2.677	-0.001	3.0	GoodResponse	1	0.202	146.174	3	14	Target	Win	True
147.174	0.3	Win2	0.8667	0.001	Yes	2.677	-0.001	3.0	GoodResponse	1	0.202	n/a	3	14	ButtonPress	Win	True
147.238	0.44	Win2	0.8667	n/a	Yes	2.677	n/a	n/a	GoodResponse	1	n/a	n/a	3	14	Blank	Win	True
147.672	1.45	Win2	0.8667	n/a	Yes	2.677	n/a	5.0	GoodResponse	1	0.01	146.682	3	14	Feedback	Win	True
149.121	2.677	Win2	0.8667	n/a	Yes	2.677	n/a	n/a	GoodResponse	1	0.0	n/a	3	14	ISIslide	Win	True
151.82	0.25	Control	0.8125	0.0	No	2.98	0.02	n/a	NoResponse	0	n/a	n/a	3	15	Cue	Neutral	False
152.07	4.0	Control	0.8125	0.0	No	2.98	0.0	n/a	NoResponse	0	n/a	n/a	3	15	Fixation	Neutral	False
156.069	0.25	Control	0.8125	0.001	No	2.98	-0.001	n/a	NoResponse	0	n/a	n/a	3	15	Target	Neutral	False
156.319	0.45	Control	0.8125	n/a	No	2.98	n/a	n/a	NoResponse	0	n/a	n/a	3	15	Blank	Neutral	False
156.769	1.45	Control	0.8125	n/a	No	2.98	n/a	5.0	NoResponse	0	0.035	155.804	3	15	Feedback	Neutral	False
158.218	2.98	Control	0.8125	n/a	No	2.98	n/a	n/a	NoResponse	0	0.0	n/a	3	15	ISIslide	Neutral	False
161.217	0.25	Win2	0.8234999999999999	0.0	Yes	2.883	0.017	n/a	GoodResponse	1	n/a	n/a	4	16	Cue	Win	True
161.467	4.0	Win2	0.8234999999999999	0.0	Yes	2.883	0.0	n/a	GoodResponse	1	n/a	n/a	4	16	Fixation	Win	True
165.466	0.24	Win2	0.8234999999999999	0.001	Yes	2.883	-0.001	3.0	GoodResponse	1	0.232	164.698	4	16	Target	Win	True
165.698	0.3	Win2	0.8234999999999999	0.001	Yes	2.883	-0.001	3.0	GoodResponse	1	0.232	n/a	4	16	ButtonPress	Win	True
165.715	0.46	Win2	0.8234999999999999	n/a	Yes	2.883	n/a	n/a	GoodResponse	1	n/a	n/a	4	16	Blank	Win	True
166.165	1.45	Win2	0.8234999999999999	n/a	Yes	2.883	n/a	5.0	GoodResponse	1	0.007	165.172	4	16	Feedback	Win	True
167.615	2.883	Win2	0.8234999999999999	n/a	Yes	2.883	n/a	n/a	GoodResponse	1	0.0	n/a	4	16	ISIslide	Win	True
170.514	0.25	Lose2	0.8332999999999999	0.0	Yes	2.736	0.014	n/a	GoodResponse	0	n/a	n/a	4	17	Cue	AvoidedLoss	True
170.764	3.95	Lose2	0.8332999999999999	0.0	Yes	2.736	0.0	n/a	GoodResponse	0	n/a	n/a	4	17	Fixation	AvoidedLoss	True
174.712	0.23	Lose2	0.8332999999999999	0.002	Yes	2.736	-0.002	3.0	GoodResponse	0	0.21	173.922	4	17	Target	AvoidedLoss	True
174.922	0.3	Lose2	0.8332999999999999	0.002	Yes	2.736	-0.002	3.0	GoodResponse	0	0.21	n/a	4	17	ButtonPress	AvoidedLoss	True
174.946	0.47	Lose2	0.8332999999999999	n/a	Yes	2.736	n/a	n/a	GoodResponse	0	n/a	n/a	4	17	Blank	AvoidedLoss	True
175.412	1.45	Lose2	0.8332999999999999	n/a	Yes	2.736	n/a	5.0	GoodResponse	0	0.026	174.438	4	17	Feedback	AvoidedLoss	True
176.862	2.736	Lose2	0.8332999999999999	n/a	Yes	2.736	n/a	n/a	GoodResponse	0	0.0	n/a	4	17	ISIslide	AvoidedLoss	True
179.627	0.25	Lose2	0.7895	0.0	No	2.723	0.027	n/a	NoResponse	-1	n/a	n/a	3	18	Cue	Loss	True
179.877	4.05	Lose2	0.7895	0.0	No	2.723	0.0	n/a	NoResponse	-1	n/a	n/a	3	18	Fixation	Loss	True
183.926	0.22	Lose2	0.7895	0.001	No	2.723	-0.001	3.0	NoResponse	-1	0.275	183.201	3	18	Target	Loss	True
184.142	0.48	Lose2	0.7895	n/a	No	2.723	n/a	n/a	NoResponse	-1	n/a	n/a	3	18	Blank	Loss	True
184.201	0.3	Lose2	0.7895	0.001	No	2.723	-0.001	3.0	NoResponse	-1	0.275	n/a	3	18	ButtonPress	Loss	True
184.626	1.45	Lose2	0.7895	n/a	No	2.723	n/a	5.0	NoResponse	-1	0.031	183.657	3	18	Feedback	Loss	True
186.075	2.723	Lose2	0.7895	n/a	No	2.723	n/a	n/a	NoResponse	-1	0.0	n/a	3	18	ISIslide	Loss	True
188.824	0.25	Control	0.75	0.0	No	2.926	0.024	n/a	LatePress	0	n/a	n/a	3	19	Cue	Neutral	True
189.074	3.95	Control	0.75	0.0	No	2.926	0.0	n/a	LatePress	0	n/a	n/a	3	19	Fixation	Neutral	True
193.023	0.21	Control	0.75	0.001	No	2.926	-0.001	3.0	LatePress	0	0.214	192.237	3	19	Target	Neutral	True
193.237	0.3	Control	0.75	0.001	No	2.926	-0.001	3.0	LatePress	0	0.214	n/a	3	19	ButtonPress	Neutral	True
193.239	0.49	Control	0.75	n/a	No	2.926	n/a	n/a	LatePress	0	n/a	n/a	3	19	Blank	Neutral	True
193.723	1.45	Control	0.75	n/a	No	2.926	n/a	5.0	LatePress	0	0.008	192.731	3	19	Feedback	Neutral	True
195.172	2.926	Control	0.75	n/a	No	2.926	n/a	n/a	LatePress	0	0.0	n/a	3	19	ISIslide	Neutral	True
198.121	0.25	Control	0.7619	0.0	Yes	2.629	0.021	n/a	GoodResponse	0	n/a	n/a	3	20	Cue	Neutral	False
198.371	4.05	Control	0.7619	0.0	Yes	2.629	0.0	3.0	GoodResponse	0	3.781	201.152	3	20	Fixation	Neutral	False
202.152	0.3	Control	0.7619	0.0	Yes	2.629	0.0	3.0	GoodResponse	0	3.781	n/a	3	20	ButtonPress	Neutral	False
202.42	0.2	Control	0.7619	0.001	Yes	2.629	-0.001	3.0	GoodResponse	0	0.198	201.618	3	20	Target	Neutral	False
202.618	0.3	Control	0.7619	0.001	Yes	2.629	-0.001	3.0	GoodResponse	0	0.198	n/a	3	20	ButtonPress	Neutral	False
202.619	0.5	Control	0.7619	n/a	Yes	2.629	n/a	n/a	GoodResponse	0	n/a	n/a	3	20	Blank	Neutral	False
203.119	1.45	Control	0.7619	n/a	Yes	2.629	n/a	5.0	GoodResponse	0	0.026	202.145	3	20	Feedback	Neutral	False
204.569	2.629	Control	0.7619	n/a	Yes	2.629	n/a	n/a	GoodResponse	0	0.0	n/a	3	20	ISIslide	Neutral	False
207.218	0.25	Control	0.7726999999999999	0.0	Yes	2.782	0.018	n/a	GoodResponse	0	n/a	n/a	3	21	Cue	Neutral	True
207.468	4.1	Control	0.7726999999999999	0.0	Yes	2.782	0.0	n/a	GoodResponse	0	n/a	n/a	3	21	Fixation	Neutral	True
211.566	0.19	Control	0.7726999999999999	0.002	Yes	2.782	-0.002	3.0	GoodResponse	0	0.159	210.725	3	21	Target	Neutral	True
211.725	0.3	Control	0.7726999999999999	0.002	Yes	2.782	-0.002	3.0	GoodResponse	0	0.159	n/a	3	21	ButtonPress	Neutral	True
211.766	0.51	Control	0.7726999999999999	n/a	Yes	2.782	n/a	n/a	GoodResponse	0	n/a	n/a	3	21	Blank	Neutral	True
212.266	1.45	Control	0.7726999999999999	n/a	Yes	2.782	n/a	5.0	GoodResponse	0	0.001	211.267	3	21	Feedback	Neutral	True
213.716	2.782	Control	0.7726999999999999	n/a	Yes	2.782	n/a	n/a	GoodResponse	0	0.0	n/a	3	21	ISIslide	Neutral	True
216.515	0.25	Control	0.7391	0.0	No	2.785	0.015	n/a	NoResponse	0	n/a	n/a	3	22	Cue	Neutral	True
216.765	4.0	Control	0.7391	0.0	No	2.785	0.0	n/a	NoResponse	0	n/a	n/a	3	22	Fixation	Neutral	True
220.763	0.18	Control	0.7391	0.002	No	2.785	-0.002	3.0	NoResponse	0	0.269	220.032	3	22	Target	Neutral	True
220.947	0.52	Control	0.7391	n/a	No	2.785	n/a	n/a	NoResponse	0	n/a	n/a	3	22	Blank	Neutral	True
221.032	0.3	Control	0.7391	0.002	No	2.785	-0.002	3.0	NoResponse	0	0.269	n/a	3	22	ButtonPress	Neutral	True
221.463	1.45	Control	0.7391	n/a	No	2.785	n/a	5.0	NoResponse	0	0.024	220.487	3	22	Feedback	Neutral	True
222.913	2.785	Control	0.7391	n/a	No	2.785	n/a	n/a	NoResponse	0	0.0	n/a	3	22	ISIslide	Neutral	True
225.712	0.25	Control	0.7082999999999999	0.0	No	2.788	0.012	n/a	NoResponse	0	n/a	n/a	3	23	Cue	Neutral	True
225.962	3.9	Control	0.7082999999999999	0.0	No	2.788	0.0	n/a	NoResponse	0	n/a	n/a	3	23	Fixation	Neutral	True
229.86	0.17	Control	0.7082999999999999	0.002	No	2.788	-0.002	3.0	NoResponse	0	0.514	229.374	3	23	Target	Neutral	True
230.043	0.53	Control	0.7082999999999999	n/a	No	2.788	n/a	n/a	NoResponse	0	n/a	n/a	3	23	Blank	Neutral	True
230.374	0.3	Control	0.7082999999999999	0.002	No	2.788	-0.002	3.0	NoResponse	0	0.514	n/a	3	23	ButtonPress	Neutral	True
230.56	1.45	Control	0.7082999999999999	n/a	No	2.788	n/a	5.0	NoResponse	0	0.049	229.609	3	23	Feedback	Neutral	True
232.009	2.788	Control	0.7082999999999999	n/a	No	2.788	n/a	n/a	NoResponse	0	0.0	n/a	3	23	ISIslide	Neutral	True
234.825	0.25	Win2	0.68	0.0	No	3.125	0.025	n/a	NoResponse	0	n/a	n/a	3	24	Cue	MissedWin	True
235.075	3.95	Win2	0.68	0.0	No	3.125	0.0	n/a	NoResponse	0	n/a	n/a	3	24	Fixation	MissedWin	True
239.024	0.16	Win2	0.68	0.001	No	3.125	-0.001	3.0	NoResponse	0	0.271	238.295	3	24	Target	MissedWin	True
239.19	0.54	Win2	0.68	n/a	No	3.125	n/a	n/a	NoResponse	0	n/a	n/a	3	24	Blank	MissedWin	True
239.295	0.3	Win2	0.68	0.001	No	3.125	-0.001	3.0	NoResponse	0	0.271	n/a	3	24	ButtonPress	MissedWin	True
239.723	1.45	Win2	0.68	n/a	No	3.125	n/a	5.0	NoResponse	0	0.007	238.73	3	24	Feedback	MissedWin	True
241.173	3.125	Win2	0.68	n/a	No	3.125	n/a	n/a	NoResponse	0	0.0	n/a	3	24	ISIslide	MissedWin	True
244.322	0.25	Win2	0.6537999999999999	0.0	No	3.078	0.022	n/a	NoResponse	0	n/a	n/a	3	25	Cue	MissedWin	True
244.572	4.0	Win2	0.6537999999999999	0.0	No	3.078	0.0	n/a	NoResponse	0	n/a	n/a	3	25	Fixation	MissedWin	True
248.57	0.15	Win2	0.6537999999999999	0.002	No	3.078	-0.002	3.0	NoResponse	0	0.191	247.761	3	25	Target	MissedWin	True
248.72	0.55	Win2	0.6537999999999999	n/a	No	3.078	n/a	n/a	NoResponse	0	n/a	n/a	3	25	Blank	MissedWin	True
248.761	0.3	Win2	0.6537999999999999	0.002	No	3.078	-0.002	3.0	NoResponse	0	0.191	n/a	3	25	ButtonPress	MissedWin	True
249.27	1.45	Win2	0.6537999999999999	n/a	No	3.078	n/a	5.0	NoResponse	0	0.021	248.291	3	25	Feedback	MissedWin	True
250.72	3.078	Win2	0.6537999999999999	n/a	No	3.078	n/a	n/a	NoResponse	0	0.0	n/a	3	25	ISIslide	MissedWin	True
253.819	0.25	Win2	0.6296	0.0	No	2.931	0.019	n/a	NoResponse	0	n/a	n/a	3	26	Cue	MissedWin	False
254.069	3.95	Win2	0.6296	0.0	No	2.931	0.0	3.0	NoResponse	0	3.409	256.478	3	26	Fixation	MissedWin	False
257.478	0.3	Win2	0.6296	0.0	No	2.931	0.0	3.0	NoResponse	0	3.409	n/a	3	26	ButtonPress	MissedWin	False
258.017	0.16	Win2	0.6296	0.002	No	2.931	-0.002	3.0	NoResponse	0	0.176	257.193	3	26	Target	MissedWin	False
258.184	0.54	Win2	0.6296	n/a	No	2.931	n/a	n/a	NoResponse	0	n/a	n/a	3	26	Blank	MissedWin	False
258.193	0.3	Win2	0.6296	0.002	No	2.931	-0.002	3.0	NoResponse	0	0.176	n/a	3	26	ButtonPress	MissedWin	False
258.717	1.45	Win2	0.6296	n/a	No	2.931	n/a	5.0	NoResponse	0	0.038	257.755	3	26	Feedback	MissedWin	False
260.166	2.931	Win2	0.6296	n/a	No	2.931	n/a	n/a	NoResponse	0	0.0	n/a	3	26	ISIslide	MissedWin	False
263.115	0.25	Lose2	0.6071	0.001	No	2.835	0.015	n/a	NoResponse	-1	n/a	n/a	2	27	Cue	Loss	True
263.365	4.05	Lose2	0.6071	0.0	No	2.835	0.0	n/a	NoResponse	-1	n/a	n/a	2	27	Fixation	Loss	True
267.414	0.17	Lose2	0.6071	0.001	No	2.835	-0.001	3.0	NoResponse	-1	0.242	266.656	2	27	Target	Loss	True
267.581	0.53	Lose2	0.6071	n/a	No	2.835	n/a	n/a	NoResponse	-1	n/a	n/a	2	27	Blank	Loss	True
267.656	0.3	Lose2	0.6071	0.001	No	2.835	-0.001	3.0	NoResponse	-1	0.242	n/a	2	27	ButtonPress	Loss	True
268.114	1.45	Lose2	0.6071	n/a	No	2.835	n/a	5.0	NoResponse	-1	0.007	267.121	2	27	Feedback	Loss	True
269.563	2.835	Lose2	0.6071	n/a	No	2.835	n/a	n/a	NoResponse	-1	0.0	n/a	2	27	ISIslide	Loss	True
272.412	0.25	Control	0.5861999999999999	0.0	No	2.838	0.012	n/a	NoResponse	0	n/a	n/a	2	28	Cue	Neutral	True
272.662	4.05	Control	0.5861999999999999	0.0	No	2.838	0.0	n/a	NoResponse	0	n/a	n/a	2	28	Fixation	Neutral	True
276.711	0.18	Control	0.5861999999999999	0.001	No	2.838	-0.001	3.0	NoResponse	0	0.195	275.906	2	28	Target	Neutral	True
276.894	0.52	Control	0.5861999999999999	n/a	No	2.838	n/a	n/a	NoResponse	0	n/a	n/a	2	28	Blank	Neutral	True
276.906	0.3	Control	0.5861999999999999	0.001	No	2.838	-0.001	3.0	NoResponse	0	0.195	n/a	2	28	ButtonPress	Neutral	True
277.411	1.45	Control	0.5861999999999999	n/a	No	2.838	n/a	5.0	NoResponse	0	0.027	276.438	2	28	Feedback	Neutral	True
278.86	2.838	Control	0.5861999999999999	n/a	No	2.838	n/a	n/a	NoResponse	0	0.0	n/a	2	28	ISIslide	Neutral	True
281.726	0.25	Lose2	0.5667	0.0	No	2.824	0.026	n/a	NoResponse	-1	n/a	n/a	1	29	Cue	Loss	True
281.976	3.95	Lose2	0.5667	0.0	No	2.824	0.0	n/a	NoResponse	-1	n/a	n/a	1	29	Fixation	Loss	True
285.924	0.19	Lose2	0.5667	0.002	No	2.824	-0.002	3.0	NoResponse	-1	0.238	285.162	1	29	Target	Loss	True
286.124	0.51	Lose2	0.5667	n/a	No	2.824	n/a	n/a	NoResponse	-1	n/a	n/a	1	29	Blank	Loss	True
286.162	0.3	Lose2	0.5667	0.002	No	2.824	-0.002	3.0	NoResponse	-1	0.238	n/a	1	29	ButtonPress	Loss	True
286.624	1.45	Lose2	0.5667	n/a	No	2.824	n/a	5.0	NoResponse	-1	0.034	285.658	1	29	Feedback	Loss	True
288.074	2.824	Lose2	0.5667	n/a	No	2.824	n/a	n/a	NoResponse	-1	0.0	n/a	1	29	ISIslide	Loss	True
290.923	0.25	Win2	0.5484	0.0	No	2.777	0.023	n/a	NoResponse	0	n/a	n/a	1	30	Cue	MissedWin	True
291.172	3.9	Win2	0.5484	0.001	No	2.777	-0.001	n/a	NoResponse	0	n/a	n/a	1	30	Fixation	MissedWin	True
295.071	0.2	Win2	0.5484	0.002	No	2.777	-0.002	3.0	NoResponse	0	0.269	294.34	1	30	Target	MissedWin	True
295.271	0.5	Win2	0.5484	n/a	No	2.777	n/a	n/a	NoResponse	0	n/a	n/a	1	30	Blank	MissedWin	True
295.34	0.3	Win2	0.5484	0.002	No	2.777	-0.002	3.0	NoResponse	0	0.269	n/a	1	30	ButtonPress	MissedWin	True
295.771	1.45	Win2	0.5484	n/a	No	2.777	n/a	5.0	NoResponse	0	0.009	294.78	1	30	Feedback	MissedWin	True
297.22	2.777	Win2	0.5484	n/a	No	2.777	n/a	n/a	NoResponse	0	0.0	n/a	1	30	ISIslide	MissedWin	True
300.019	0.25	Lose2	0.5312	0.001	No	2.831	0.019	n/a	NoResponse	-1	n/a	n/a	0	31	Cue	Loss	True
300.269	4.05	Lose2	0.5312	0.0	No	2.831	0.0	n/a	NoResponse	-1	n/a	n/a	0	31	Fixation	Loss	True
304.318	0.21	Lose2	0.5312	0.001	No	2.831	-0.001	3.0	NoResponse	-1	0.369	303.687	0	31	Target	Loss	True
304.535	0.49	Lose2	0.5312	n/a	No	2.831	n/a	n/a	NoResponse	-1	n/a	n/a	0	31	Blank	Loss	True
304.687	0.3	Lose2	0.5312	0.001	No	2.831	-0.001	3.0	NoResponse	-1	0.369	n/a	0	31	ButtonPress	Loss	True
305.018	1.45	Lose2	0.5312	n/a	No	2.831	n/a	5.0	NoResponse	-1	0.03	304.048	0	31	Feedback	Loss	True
306.467	2.831	Lose2	0.5312	n/a	No	2.831	n/a	n/a	NoResponse	-1	0.0	n/a	0	31	ISIslide	Loss	True
309.316	0.25	Lose2	0.5152	0.0	No	2.634	0.016	n/a	NoResponse	-1	n/a	n/a	-1	32	Cue	Loss	True
309.566	4.15	Lose2	0.5152	0.0	No	2.634	0.0	n/a	NoResponse	-1	n/a	n/a	-1	32	Fixation	Loss	True
313.715	0.22	Lose2	0.5152	0.001	No	2.634	-0.001	3.0	NoResponse	-1	0.23	312.945	-1	32	Target	Loss	True
313.931	0.48	Lose2	0.5152	n/a	No	2.634	n/a	n/a	NoResponse	-1	n/a	n/a	-1	32	Blank	Loss	True
313.945	0.3	Lose2	0.5152	0.001	No	2.634	-0.001	3.0	NoResponse	-1	0.23	n/a	-1	32	ButtonPress	Loss	True
314.415	1.45	Lose2	0.5152	n/a	No	2.634	n/a	5.0	NoResponse	-1	0.047	313.462	-1	32	Feedback	Loss	True
315.864	2.634	Lose2	0.5152	n/a	No	2.634	n/a	n/a	NoResponse	-1	0.0	n/a	-1	32	ISIslide	Loss	True
318.513	0.25	Win2	0.5294	0.0	Yes	2.687	0.013	n/a	GoodResponse	1	n/a	n/a	0	33	Cue	Win	True
318.763	4.0	Win2	0.5294	0.0	Yes	2.687	0.0	n/a	GoodResponse	1	n/a	n/a	0	33	Fixation	Win	True
322.762	0.23	Win2	0.5294	0.001	Yes	2.687	-0.001	3.0	GoodResponse	1	0.214	321.976	0	33	Target	Win	True
322.976	0.3	Win2	0.5294	0.001	Yes	2.687	-0.001	3.0	GoodResponse	1	0.214	n/a	0	33	ButtonPress	Win	True
322.995	0.47	Win2	0.5294	n/a	Yes	2.687	n/a	n/a	GoodResponse	1	n/a	n/a	0	33	Blank	Win	True
323.461	1.45	Win2	0.5294	n/a	Yes	2.687	n/a	5.0	GoodResponse	1	0.025	322.486	0	33	Feedback	Win	True
324.911	2.687	Win2	0.5294	n/a	Yes	2.687	n/a	n/a	GoodResponse	1	0.0	n/a	0	33	ISIslide	Win	True
327.627	0.25	Lose2	0.5428999999999999	0.0	Yes	2.623	0.027	n/a	GoodResponse	0	n/a	n/a	0	34	Cue	AvoidedLoss	True
327.877	4.05	Lose2	0.5428999999999999	0.0	Yes	2.623	0.0	n/a	GoodResponse	0	n/a	n/a	0	34	Fixation	AvoidedLoss	True
331.925	0.24	Lose2	0.5428999999999999	0.002	Yes	2.623	-0.002	3.0	GoodResponse	0	0.224	331.149	0	34	Target	AvoidedLoss	True
332.149	0.3	Lose2	0.5428999999999999	0.002	Yes	2.623	-0.002	3.0	GoodResponse	0	0.224	n/a	0	34	ButtonPress	AvoidedLoss	True
332.175	0.46	Lose2	0.5428999999999999	n/a	Yes	2.623	n/a	n/a	GoodResponse	0	n/a	n/a	0	34	Blank	AvoidedLoss	True
332.625	1.45	Lose2	0.5428999999999999	n/a	Yes	2.623	n/a	5.0	GoodResponse	0	0.032	331.657	0	34	Feedback	AvoidedLoss	True
334.074	2.623	Lose2	0.5428999999999999	n/a	Yes	2.623	n/a	n/a	GoodResponse	0	0.0	n/a	0	34	ISIslide	AvoidedLoss	True
336.724	0.25	Lose2	0.5278	0.0	No	2.676	0.024	n/a	NoResponse	-1	n/a	n/a	-1	35	Cue	Loss	True
336.973	4.0	Lose2	0.5278	0.001	No	2.676	-0.001	n/a	NoResponse	-1	n/a	n/a	-1	35	Fixation	Loss	True
340.972	0.25	Lose2	0.5278	0.002	No	2.676	-0.002	3.0	NoResponse	-1	0.288	340.26	-1	35	Target	Loss	True
341.222	0.45	Lose2	0.5278	n/a	No	2.676	n/a	n/a	NoResponse	-1	n/a	n/a	-1	35	Blank	Loss	True
341.26	0.3	Lose2	0.5278	0.002	No	2.676	-0.002	3.0	NoResponse	-1	0.288	n/a	-1	35	ButtonPress	Loss	True
341.672	1.45	Lose2	0.5278	n/a	No	2.676	n/a	5.0	NoResponse	-1	0.01	340.682	-1	35	Feedback	Loss	True
343.121	2.676	Lose2	0.5278	n/a	No	2.676	n/a	n/a	NoResponse	-1	0.0	n/a	-1	35	ISIslide	Loss	True
345.82	0.25	Control	0.5135000000000001	0.001	No	2.68	0.02	n/a	NoResponse	0	n/a	n/a	-1	36	Cue	Neutral	True
346.07	4.0	Control	0.5135000000000001	0.0	No	2.68	0.0	n/a	NoResponse	0	n/a	n/a	-1	36	Fixation	Neutral	True
350.069	0.26	Control	0.5135000000000001	0.001	No	2.68	-0.001	3.0	NoResponse	0	0.359	349.428	-1	36	Target	Neutral	True
350.336	0.44	Control	0.5135000000000001	n/a	No	2.68	n/a	n/a	NoResponse	0	n/a	n/a	-1	36	Blank	Neutral	True
350.428	0.3	Control	0.5135000000000001	0.001	No	2.68	-0.001	3.0	NoResponse	0	0.359	n/a	-1	36	ButtonPress	Neutral	True
350.769	1.45	Control	0.5135000000000001	n/a	No	2.68	n/a	5.0	NoResponse	0	0.035	349.804	-1	36	Feedback	Neutral	True
352.218	2.68	Control	0.5135000000000001	n/a	No	2.68	n/a	n/a	NoResponse	0	0.0	n/a	-1	36	ISIslide	Neutral	True
354.917	0.25	Win2	0.5263	0.0	Yes	2.883	0.017	n/a	GoodResponse	1	n/a	n/a	0	37	Cue	Win	True
355.167	4.0	Win2	0.5263	0.0	Yes	2.883	0.0	n/a	GoodResponse	1	n/a	n/a	0	37	Fixation	Win	True
359.166	0.27	Win2	0.5263	0.001	Yes	2.883	-0.001	3.0	GoodResponse	1	0.21	358.376	0	37	Target	Win	True
359.376	0.3	Win2	0.5263	0.001	Yes	2.883	-0.001	3.0	GoodResponse	1	0.21	n/a	0	37	ButtonPress	Win	True
359.432	0.43	Win2	0.5263	n/a	Yes	2.883	n/a	n/a	GoodResponse	1	n/a	n/a	0	37	Blank	Win	True
359.866	1.45	Win2	0.5263	n/a	Yes	2.883	n/a	5.0	GoodResponse	1	0.011	358.877	0	37	Feedback	Win	True
361.315	2.883	Win2	0.5263	n/a	Yes	2.883	n/a	n/a	GoodResponse	1	0.0	n/a	0	37	ISIslide	Win	True
364.214	0.25	Lose2	0.5385	0.0	Yes	2.836	0.014	n/a	GoodResponse	0	n/a	n/a	0	38	Cue	AvoidedLoss	True
364.464	3.95	Lose2	0.5385	0.0	Yes	2.836	0.0	n/a	GoodResponse	0	n/a	n/a	0	38	Fixation	AvoidedLoss	True
368.413	0.28	Lose2	0.5385	0.001	Yes	2.836	-0.001	3.0	GoodResponse	0	0.174	367.587	0	38	Target	AvoidedLoss	True
368.587	0.3	Lose2	0.5385	0.001	Yes	2.836	-0.001	3.0	GoodResponse	0	0.174	n/a	0	38	ButtonPress	AvoidedLoss	True
368.696	0.42	Lose2	0.5385	n/a	Yes	2.836	n/a	n/a	GoodResponse	0	n/a	n/a	0	38	Blank	AvoidedLoss	True
369.112	1.45	Lose2	0.5385	n/a	Yes	2.836	n/a	5.0	GoodResponse	0	0.034	368.146	0	38	Feedback	AvoidedLoss	True
370.562	2.836	Lose2	0.5385	n/a	Yes	2.836	n/a	n/a	GoodResponse	0	0.0	n/a	0	38	ISIslide	AvoidedLoss	True
373.428	0.25	Win2	0.55	0.0	Yes	2.972	0.028	n/a	GoodResponse	1	n/a	n/a	1	39	Cue	Win	True
373.678	4.1	Win2	0.55	0.0	Yes	2.972	0.0	n/a	GoodResponse	1	n/a	n/a	1	39	Fixation	Win	True
377.776	0.29	Win2	0.55	0.002	Yes	2.972	-0.002	3.0	GoodResponse	1	0.229	377.005	1	39	Target	Win	True
378.005	0.3	Win2	0.55	0.002	Yes	2.972	-0.002	3.0	GoodResponse	1	0.229	n/a	1	39	ButtonPress	Win	True
378.076	0.41	Win2	0.55	n/a	Yes	2.972	n/a	n/a	GoodResponse	1	n/a	n/a	1	39	Blank	Win	True
378.476	1.45	Win2	0.55	n/a	Yes	2.972	n/a	5.0	GoodResponse	1	0.035	377.511	1	39	Feedback	Win	True
379.925	2.972	Win2	0.55	n/a	Yes	2.972	n/a	n/a	GoodResponse	1	0.0	n/a	1	39	ISIslide	Win	True
382.924	0.25	Win2	0.561	0.001	Yes	2.726	0.024	n/a	GoodResponse	1	n/a	n/a	2	40	Cue	Win	False
383.174	3.95	Win2	0.561	0.0	Yes	2.726	0.0	3.0	GoodResponse	1	0.687	382.861	2	40	Fixation	Win	False
383.861	0.3	Win2	0.561	0.0	Yes	2.726	0.0	3.0	GoodResponse	1	0.687	n/a	2	40	ButtonPress	Win	False
387.123	0.3	Win2	0.561	0.001	Yes	2.726	-0.001	3.0	GoodResponse	1	0.2	386.323	2	40	Target	Win	False
387.323	0.3	Win2	0.561	0.001	Yes	2.726	-0.001	3.0	GoodResponse	1	0.2	n/a	2	40	ButtonPress	Win	False
387.423	0.4	Win2	0.561	n/a	Yes	2.726	n/a	n/a	GoodResponse	1	n/a	n/a	2	40	Blank	Win	False
387.823	1.45	Win2	0.561	n/a	Yes	2.726	n/a	5.0	GoodResponse	1	0.005	386.828	2	40	Feedback	Win	False
389.272	2.726	Win2	0.561	n/a	Yes	2.726	n/a	n/a	GoodResponse	1	0.0	n/a	2	40	ISIslide	Win	False
392.021	0.25	Win2	0.5476	0.0	No	2.779	0.021	n/a	NoResponse	0	n/a	n/a	2	41	Cue	MissedWin	False
392.271	3.9	Win2	0.5476	0.0	No	2.779	0.0	n/a	NoResponse	0	n/a	n/a	2	41	Fixation	MissedWin	False
396.17	0.31	Win2	0.5476	0.001	No	2.779	-0.001	n/a	NoResponse	0	n/a	n/a	2	41	Target	MissedWin	False
396.486	0.39	Win2	0.5476	n/a	No	2.779	n/a	n/a	NoResponse	0	n/a	n/a	2	41	Blank	MissedWin	False
396.87	1.45	Win2	0.5476	n/a	No	2.779	n/a	5.0	NoResponse	0	0.031	395.901	2	41	Feedback	MissedWin	False
398.319	2.779	Win2	0.5476	n/a	No	2.779	n/a	n/a	NoResponse	0	0.0	n/a	2	41	ISIslide	MissedWin	False
401.118	0.25	Control	0.5581	0.0	Yes	2.932	0.018	3.0	GoodResponse	0	0.238	400.356	2	42	Cue	Neutral	False
401.356	0.3	Control	0.5581	0.0	Yes	2.932	0.018	3.0	GoodResponse	0	0.238	n/a	2	42	ButtonPress	Neutral	False
401.368	3.85	Control	0.5581	0.0	Yes	2.932	0.0	n/a	GoodResponse	0	n/a	n/a	2	42	Fixation	Neutral	False
405.217	0.32	Control	0.5581	0.001	Yes	2.932	-0.001	3.0	GoodResponse	0	0.279	404.496	2	42	Target	Neutral	False
405.496	0.3	Control	0.5581	0.001	Yes	2.932	-0.001	3.0	GoodResponse	0	0.279	n/a	2	42	ButtonPress	Neutral	False
405.55	0.38	Control	0.5581	n/a	Yes	2.932	n/a	n/a	GoodResponse	0	n/a	n/a	2	42	Blank	Neutral	False
405.917	1.45	Control	0.5581	n/a	Yes	2.932	n/a	5.0	GoodResponse	0	0.008	404.925	2	42	Feedback	Neutral	False
407.366	2.932	Control	0.5581	n/a	Yes	2.932	n/a	n/a	GoodResponse	0	0.0	n/a	2	42	ISIslide	Neutral	False
410.315	0.25	Win2	0.5682	0.0	Yes	3.185	0.015	n/a	GoodResponse	1	n/a	n/a	3	43	Cue	Win	True
410.565	4.0	Win2	0.5682	0.0	Yes	3.185	0.0	n/a	GoodResponse	1	n/a	n/a	3	43	Fixation	Win	True
414.564	0.33	Win2	0.5682	0.001	Yes	3.185	-0.001	3.0	GoodResponse	1	0.205	413.769	3	43	Target	Win	True
414.769	0.3	Win2	0.5682	0.001	Yes	3.185	-0.001	3.0	GoodResponse	1	0.205	n/a	3	43	ButtonPress	Win	True
414.897	0.37	Win2	0.5682	n/a	Yes	3.185	n/a	n/a	GoodResponse	1	n/a	n/a	3	43	Blank	Win	True
415.263	1.45	Win2	0.5682	n/a	Yes	3.185	n/a	5.0	GoodResponse	1	0.028	414.291	3	43	Feedback	Win	True
416.713	3.185	Win2	0.5682	n/a	Yes	3.185	n/a	n/a	GoodResponse	1	0.0	n/a	3	43	ISIslide	Win	True
419.928	0.25	Win2	0.5778	0.001	Yes	2.972	0.028	n/a	GoodResponse	1	n/a	n/a	4	44	Cue	Win	True
420.178	4.0	Win2	0.5778	0.0	Yes	2.972	0.0	n/a	GoodResponse	1	n/a	n/a	4	44	Fixation	Win	True
424.177	0.34	Win2	0.5778	0.001	Yes	2.972	-0.001	3.0	GoodResponse	1	0.213	423.39	4	44	Target	Win	True
424.39	0.3	Win2	0.5778	0.001	Yes	2.972	-0.001	3.0	GoodResponse	1	0.213	n/a	4	44	ButtonPress	Win	True
424.527	0.36	Win2	0.5778	n/a	Yes	2.972	n/a	n/a	GoodResponse	1	n/a	n/a	4	44	Blank	Win	True
424.877	1.45	Win2	0.5778	n/a	Yes	2.972	n/a	5.0	GoodResponse	1	0.024	423.901	4	44	Feedback	Win	True
426.326	2.972	Win2	0.5778	n/a	Yes	2.972	n/a	n/a	GoodResponse	1	0.0	n/a	4	44	ISIslide	Win	True
429.325	0.25	Control	0.5870000000000001	0.0	Yes	2.875	0.025	n/a	GoodResponse	0	n/a	n/a	4	45	Cue	Neutral	True
429.575	4.1	Control	0.5870000000000001	0.0	Yes	2.875	0.0	n/a	GoodResponse	0	n/a	n/a	4	45	Fixation	Neutral	True
433.674	0.35	Control	0.5870000000000001	0.001	Yes	2.875	-0.001	3.0	GoodResponse	0	0.258	432.932	4	45	Target	Neutral	True
433.932	0.3	Control	0.5870000000000001	0.001	Yes	2.875	-0.001	3.0	GoodResponse	0	0.258	n/a	4	45	ButtonPress	Neutral	True
434.024	0.35	Control	0.5870000000000001	n/a	Yes	2.875	n/a	n/a	GoodResponse	0	n/a	n/a	4	45	Blank	Neutral	True
434.373	1.45	Control	0.5870000000000001	n/a	Yes	2.875	n/a	5.0	GoodResponse	0	0.041	433.414	4	45	Feedback	Neutral	True
435.823	2.875	Control	0.5870000000000001	n/a	Yes	2.875	n/a	n/a	GoodResponse	0	0.0	n/a	4	45	ISIslide	Neutral	True
438.722	0.25	Lose2	0.5957	0.0	Yes	3.378	0.022	n/a	GoodResponse	0	n/a	n/a	4	46	Cue	AvoidedLoss	True
438.972	4.0	Lose2	0.5957	0.0	Yes	3.378	0.0	n/a	GoodResponse	0	n/a	n/a	4	46	Fixation	AvoidedLoss	True
442.971	0.36	Lose2	0.5957	0.001	Yes	3.378	-0.001	3.0	GoodResponse	0	0.187	442.158	4	46	Target	AvoidedLoss	True
443.158	0.3	Lose2	0.5957	0.001	Yes	3.378	-0.001	3.0	GoodResponse	0	0.187	n/a	4	46	ButtonPress	AvoidedLoss	True
443.337	0.34	Lose2	0.5957	n/a	Yes	3.378	n/a	n/a	GoodResponse	0	n/a	n/a	4	46	Blank	AvoidedLoss	True
443.67	1.45	Lose2	0.5957	n/a	Yes	3.378	n/a	5.0	GoodResponse	0	0.012	442.682	4	46	Feedback	AvoidedLoss	True
445.12	3.378	Lose2	0.5957	n/a	Yes	3.378	n/a	n/a	GoodResponse	0	0.0	n/a	4	46	ISIslide	AvoidedLoss	True
448.519	0.25	Lose2	0.5832999999999999	0.0	No	2.681	0.019	n/a	NoResponse	-1	n/a	n/a	3	47	Cue	Loss	False
448.769	4.0	Lose2	0.5832999999999999	0.0	No	2.681	0.0	n/a	NoResponse	-1	n/a	n/a	3	47	Fixation	Loss	False
452.767	0.37	Lose2	0.5832999999999999	0.002	No	2.681	-0.002	n/a	NoResponse	-1	n/a	n/a	3	47	Target	Loss	False
453.15	0.33	Lose2	0.5832999999999999	n/a	No	2.681	n/a	n/a	NoResponse	-1	n/a	n/a	3	47	Blank	Loss	False
453.467	1.45	Lose2	0.5832999999999999	n/a	No	2.681	n/a	5.0	NoResponse	-1	0.02	452.487	3	47	Feedback	Loss	False
454.916	2.681	Lose2	0.5832999999999999	n/a	No	2.681	n/a	n/a	NoResponse	-1	0.0	n/a	3	47	ISIslide	Loss	False
457.616	0.25	Lose2	0.5714	0.0	No	3.034	0.016	n/a	NoResponse	-1	n/a	n/a	2	48	Cue	Loss	True
457.865	3.95	Lose2	0.5714	0.001	No	3.034	-0.001	n/a	NoResponse	-1	n/a	n/a	2	48	Fixation	Loss	True
461.814	0.38	Lose2	0.5714	0.002	No	3.034	-0.002	3.0	NoResponse	-1	0.389	461.203	2	48	Target	Loss	True
462.197	0.32	Lose2	0.5714	n/a	No	3.034	n/a	n/a	NoResponse	-1	n/a	n/a	2	48	Blank	Loss	True
462.203	0.3	Lose2	0.5714	0.002	No	3.034	-0.002	3.0	NoResponse	-1	0.389	n/a	2	48	ButtonPress	Loss	True
462.514	1.45	Lose2	0.5714	n/a	No	3.034	n/a	5.0	NoResponse	-1	0.045	461.559	2	48	Feedback	Loss	True
463.963	3.034	Lose2	0.5714	n/a	No	3.034	n/a	n/a	NoResponse	-1	0.0	n/a	2	48	ISIslide	Loss	True
467.012	0.25	Control	0.58	0.0	Yes	2.888	0.012	n/a	GoodResponse	0	n/a	n/a	2	49	Cue	Neutral	True
467.262	4.0	Control	0.58	0.0	Yes	2.888	0.0	n/a	GoodResponse	0	n/a	n/a	2	49	Fixation	Neutral	True
471.261	0.39	Control	0.58	0.001	Yes	2.888	-0.001	3.0	GoodResponse	0	0.279	470.54	2	49	Target	Neutral	True
471.54	0.3	Control	0.58	0.001	Yes	2.888	-0.001	3.0	GoodResponse	0	0.279	n/a	2	49	ButtonPress	Neutral	True
471.661	0.31	Control	0.58	n/a	Yes	2.888	n/a	n/a	GoodResponse	0	n/a	n/a	2	49	Blank	Neutral	True
471.961	1.45	Control	0.58	n/a	Yes	2.888	n/a	5.0	GoodResponse	0	0.013	470.974	2	49	Feedback	Neutral	True
473.41	2.888	Control	0.58	n/a	Yes	2.888	n/a	n/a	GoodResponse	0	0.0	n/a	2	49	ISIslide	Neutral	True
476.326	0.25	Control	0.5882000000000001	0.0	Yes	2.774	0.026	n/a	GoodResponse	0	n/a	n/a	2	50	Cue	Neutral	True
476.576	4.0	Control	0.5882000000000001	0.0	Yes	2.774	0.0	n/a	GoodResponse	0	n/a	n/a	2	50	Fixation	Neutral	True
480.574	0.4	Control	0.5882000000000001	0.002	Yes	2.774	-0.002	3.0	GoodResponse	0	0.23	479.804	2	50	Target	Neutral	True
480.804	0.3	Control	0.5882000000000001	0.002	Yes	2.774	-0.002	3.0	GoodResponse	0	0.23	n/a	2	50	ButtonPress	Neutral	True
480.974	0.3	Control	0.5882000000000001	n/a	Yes	2.774	n/a	n/a	GoodResponse	0	n/a	n/a	2	50	Blank	Neutral	True
481.274	1.45	Control	0.5882000000000001	n/a	Yes	2.774	n/a	5.0	GoodResponse	0	0.017	480.291	2	50	Feedback	Neutral	True
482.724	2.774	Control	0.5882000000000001	n/a	Yes	2.774	n/a	n/a	GoodResponse	0	0.0	n/a	2	50	ISIslide	Neutral	True
485.523	0.25	Control	0.5962	0.0	Yes	2.727	0.023	n/a	GoodResponse	0	n/a	n/a	2	51	Cue	Neutral	True
485.773	3.95	Control	0.5962	0.0	Yes	2.727	0.0	n/a	GoodResponse	0	n/a	n/a	2	51	Fixation	Neutral	True
489.721	0.41	Control	0.5962	0.002	Yes	2.727	-0.002	3.0	GoodResponse	0	0.333	489.054	2	51	Target	Neutral	True
490.054	0.3	Control	0.5962	0.002	Yes	2.727	-0.002	3.0	GoodResponse	0	0.333	n/a	2	51	ButtonPress	Neutral	True
490.138	0.29	Control	0.5962	n/a	Yes	2.727	n/a	n/a	GoodResponse	0	n/a	n/a	2	51	Blank	Neutral	True
490.421	1.45	Control	0.5962	n/a	Yes	2.727	n/a	5.0	GoodResponse	0	0.041	489.462	2	51	Feedback	Neutral	True
491.87	2.727	Control	0.5962	n/a	Yes	2.727	n/a	n/a	GoodResponse	0	0.0	n/a	2	51	ISIslide	Neutral	True
494.62	0.25	Control	0.6038	0.0	Yes	2.63	0.02	n/a	GoodResponse	0	n/a	n/a	2	52	Cue	Neutral	True
494.886	4.05	Control	0.6038	0.0	Yes	2.63	0.016	n/a	GoodResponse	0	n/a	n/a	2	52	Fixation	Neutral	True
498.918	0.42	Control	0.6038	0.002	Yes	2.63	-0.002	3.0	GoodResponse	0	0.227	498.145	2	52	Target	Neutral	True
499.145	0.3	Control	0.6038	0.002	Yes	2.63	-0.002	3.0	GoodResponse	0	0.227	n/a	2	52	ButtonPress	Neutral	True
499.351	0.28	Control	0.6038	n/a	Yes	2.63	n/a	n/a	GoodResponse	0	n/a	n/a	2	52	Blank	Neutral	True
499.618	1.45	Control	0.6038	n/a	Yes	2.63	n/a	5.0	GoodResponse	0	0.015	498.633	2	52	Feedback	Neutral	True
501.067	2.63	Control	0.6038	n/a	Yes	2.63	n/a	n/a	GoodResponse	0	0.0	n/a	2	52	ISIslide	Neutral	True
503.716	0.25	Win2	0.6111	0.0	Yes	2.934	0.016	n/a	GoodResponse	1	n/a	n/a	3	53	Cue	Win	True
503.966	4.05	Win2	0.6111	0.0	Yes	2.934	0.0	n/a	GoodResponse	1	n/a	n/a	3	53	Fixation	Win	True
508.015	0.43	Win2	0.6111	0.001	Yes	2.934	-0.001	3.0	GoodResponse	1	0.201	507.216	3	53	Target	Win	True
508.216	0.3	Win2	0.6111	0.001	Yes	2.934	-0.001	3.0	GoodResponse	1	0.201	n/a	3	53	ButtonPress	Win	True
508.448	0.27	Win2	0.6111	n/a	Yes	2.934	n/a	n/a	GoodResponse	1	n/a	n/a	3	53	Blank	Win	True
508.715	1.45	Win2	0.6111	n/a	Yes	2.934	n/a	5.0	GoodResponse	1	0.04	507.755	3	53	Feedback	Win	True
510.164	2.934	Win2	0.6111	n/a	Yes	2.934	n/a	n/a	GoodResponse	1	0.0	n/a	3	53	ISIslide	Win	True
513.113	0.25	Win2	0.6	0.0	No	2.737	0.013	n/a	NoResponse	0	n/a	n/a	3	54	Cue	MissedWin	False
513.363	3.95	Win2	0.6	0.0	No	2.737	0.0	n/a	NoResponse	0	n/a	n/a	3	54	Fixation	MissedWin	False
517.312	0.44	Win2	0.6	0.001	No	2.737	-0.001	n/a	NoResponse	0	n/a	n/a	3	54	Target	MissedWin	False
517.762	0.26	Win2	0.6	n/a	No	2.737	n/a	n/a	NoResponse	0	n/a	n/a	3	54	Blank	MissedWin	False
518.012	1.45	Win2	0.6	n/a	No	2.737	n/a	5.0	NoResponse	0	0.011	517.023	3	54	Feedback	MissedWin	False
519.461	2.737	Win2	0.6	n/a	No	2.737	n/a	n/a	NoResponse	0	0.0	n/a	3	54	ISIslide	MissedWin	False
522.227	0.25	Control	0.6071	0.0	Yes	3.023	0.027	n/a	GoodResponse	0	n/a	n/a	3	55	Cue	Neutral	True
522.477	3.95	Control	0.6071	0.0	Yes	3.023	0.0	n/a	GoodResponse	0	n/a	n/a	3	55	Fixation	Neutral	True
526.425	0.45	Control	0.6071	0.002	Yes	3.023	-0.002	3.0	GoodResponse	0	0.233	525.658	3	55	Target	Neutral	True
526.658	0.3	Control	0.6071	0.002	Yes	3.023	-0.002	3.0	GoodResponse	0	0.233	n/a	3	55	ButtonPress	Neutral	True
526.875	0.25	Control	0.6071	n/a	Yes	3.023	n/a	n/a	GoodResponse	0	n/a	n/a	3	55	Blank	Neutral	True
527.125	1.45	Control	0.6071	n/a	Yes	3.023	n/a	5.0	GoodResponse	0	0.02	526.145	3	55	Feedback	Neutral	True
528.575	3.023	Control	0.6071	n/a	Yes	3.023	n/a	n/a	GoodResponse	0	0.0	n/a	3	55	ISIslide	Neutral	True
531.624	0.25	Control	0.614	0.0	Yes	2.826	0.024	n/a	GoodResponse	0	n/a	n/a	3	56	Cue	Neutral	True
531.873	3.95	Control	0.614	0.001	Yes	2.826	-0.001	n/a	GoodResponse	0	n/a	n/a	3	56	Fixation	Neutral	True
535.822	0.46	Control	0.614	0.002	Yes	2.826	-0.002	3.0	GoodResponse	0	0.221	535.043	3	56	Target	Neutral	True
536.043	0.3	Control	0.614	0.002	Yes	2.826	-0.002	3.0	GoodResponse	0	0.221	n/a	3	56	ButtonPress	Neutral	True
536.289	0.24	Control	0.614	n/a	Yes	2.826	n/a	n/a	GoodResponse	0	n/a	n/a	3	56	Blank	Neutral	True
536.522	1.45	Control	0.614	n/a	Yes	2.826	n/a	5.0	GoodResponse	0	0.038	535.56	3	56	Feedback	Neutral	True
537.971	2.826	Control	0.614	n/a	Yes	2.826	n/a	n/a	GoodResponse	0	0.0	n/a	3	56	ISIslide	Neutral	True
540.82	0.25	Control	0.6207	0.0	Yes	3.48	0.02	n/a	GoodResponse	0	n/a	n/a	3	57	Cue	Neutral	False
541.07	4.0	Control	0.6207	0.0	Yes	3.48	0.0	3.0	GoodResponse	0	2.53	542.6	3	57	Fixation	Neutral	False
543.6	0.3	Control	0.6207	0.0	Yes	3.48	0.0	3.0	GoodResponse	0	2.53	n/a	3	57	ButtonPress	Neutral	False
545.069	0.47	Control	0.6207	0.001	Yes	3.48	-0.001	3.0	GoodResponse	0	0.233	544.302	3	57	Target	Neutral	False
545.302	0.3	Control	0.6207	0.001	Yes	3.48	-0.001	3.0	GoodResponse	0	0.233	n/a	3	57	ButtonPress	Neutral	False
545.535	0.23	Control	0.6207	n/a	Yes	3.48	n/a	n/a	GoodResponse	0	n/a	n/a	3	57	Blank	Neutral	False
545.769	1.45	Control	0.6207	n/a	Yes	3.48	n/a	5.0	GoodResponse	0	0.01	544.779	3	57	Feedback	Neutral	False
547.218	3.48	Control	0.6207	n/a	Yes	3.48	n/a	n/a	GoodResponse	0	0.0	n/a	3	57	ISIslide	Neutral	False
550.717	0.25	Win2	0.6271	0.0	Yes	2.733	0.017	n/a	GoodResponse	1	n/a	n/a	4	58	Cue	Win	True
550.967	4.05	Win2	0.6271	0.0	Yes	2.733	0.0	n/a	GoodResponse	1	n/a	n/a	4	58	Fixation	Win	True
555.016	0.48	Win2	0.6271	0.001	Yes	2.733	-0.001	3.0	GoodResponse	1	0.217	554.233	4	58	Target	Win	True
555.233	0.3	Win2	0.6271	0.001	Yes	2.733	-0.001	3.0	GoodResponse	1	0.217	n/a	4	58	ButtonPress	Win	True
555.499	0.22	Win2	0.6271	n/a	Yes	2.733	n/a	n/a	GoodResponse	1	n/a	n/a	4	58	Blank	Win	True
555.715	1.45	Win2	0.6271	n/a	Yes	2.733	n/a	5.0	GoodResponse	1	0.015	554.73	4	58	Feedback	Win	True
557.165	2.733	Win2	0.6271	n/a	Yes	2.733	n/a	n/a	GoodResponse	1	0.0	n/a	4	58	ISIslide	Win	True
559.914	0.25	Lose2	0.6333	0.0	Yes	2.686	0.014	n/a	GoodResponse	0	n/a	n/a	4	59	Cue	AvoidedLoss	True
560.164	4.0	Lose2	0.6333	0.0	Yes	2.686	0.0	n/a	GoodResponse	0	n/a	n/a	4	59	Fixation	AvoidedLoss	True
564.162	0.49	Lose2	0.6333	0.002	Yes	2.686	-0.002	3.0	GoodResponse	0	0.252	563.414	4	59	Target	AvoidedLoss	True
564.414	0.3	Lose2	0.6333	0.002	Yes	2.686	-0.002	3.0	GoodResponse	0	0.252	n/a	4	59	ButtonPress	AvoidedLoss	True
564.662	0.21	Lose2	0.6333	n/a	Yes	2.686	n/a	n/a	GoodResponse	0	n/a	n/a	4	59	Blank	AvoidedLoss	True
564.862	1.45	Lose2	0.6333	n/a	Yes	2.686	n/a	5.0	GoodResponse	0	0.039	563.901	4	59	Feedback	AvoidedLoss	True
566.312	2.686	Lose2	0.6333	n/a	Yes	2.686	n/a	n/a	GoodResponse	0	0.0	n/a	4	59	ISIslide	AvoidedLoss	True
569.027	0.25	Control	0.6393	0.001	Yes	2.673	0.027	n/a	GoodResponse	0	n/a	n/a	4	60	Cue	Neutral	True
569.277	4.0	Control	0.6393	0.0	Yes	2.673	0.0	n/a	GoodResponse	0	n/a	n/a	4	60	Fixation	Neutral	True
573.276	0.5	Control	0.6393	0.001	Yes	2.673	-0.001	3.0	GoodResponse	0	0.209	572.485	4	60	Target	Neutral	True
573.485	0.3	Control	0.6393	0.001	Yes	2.673	-0.001	3.0	GoodResponse	0	0.209	n/a	4	60	ButtonPress	Neutral	True
573.776	0.2	Control	0.6393	n/a	Yes	2.673	n/a	n/a	GoodResponse	0	n/a	n/a	4	60	Blank	Neutral	True
573.976	1.45	Control	0.6393	n/a	Yes	2.673	n/a	5.0	GoodResponse	0	0.047	573.023	4	60	Feedback	Neutral	True
575.425	2.673	Control	0.6393	n/a	Yes	2.673	n/a	n/a	GoodResponse	0	0.0	n/a	4	60	ISIslide	Neutral	True
578.124	0.25	Lose2	0.6452	0.0	Yes	2.976	0.024	n/a	GoodResponse	0	n/a	n/a	4	61	Cue	AvoidedLoss	True
578.374	4.0	Lose2	0.6452	0.0	Yes	2.976	0.0	n/a	GoodResponse	0	n/a	n/a	4	61	Fixation	AvoidedLoss	True
582.373	0.5	Lose2	0.6452	0.001	Yes	2.976	-0.001	3.0	GoodResponse	0	0.249	581.622	4	61	Target	AvoidedLoss	True
582.622	0.3	Lose2	0.6452	0.001	Yes	2.976	-0.001	3.0	GoodResponse	0	0.249	n/a	4	61	ButtonPress	AvoidedLoss	True
582.873	0.2	Lose2	0.6452	n/a	Yes	2.976	n/a	n/a	GoodResponse	0	n/a	n/a	4	61	Blank	AvoidedLoss	True
583.073	1.45	Lose2	0.6452	n/a	Yes	2.976	n/a	5.0	GoodResponse	0	0.023	582.096	4	61	Feedback	AvoidedLoss	True
584.522	2.976	Lose2	0.6452	n/a	Yes	2.976	n/a	n/a	GoodResponse	0	0.0	n/a	4	61	ISIslide	AvoidedLoss	True
587.521	0.25	Lose2	0.6349	0.0	No	2.879	0.021	n/a	NoResponse	-1	n/a	n/a	3	62	Cue	Loss	False
587.771	3.9	Lose2	0.6349	0.0	No	2.879	0.0	n/a	NoResponse	-1	n/a	n/a	3	62	Fixation	Loss	False
591.67	0.5	Lose2	0.6349	0.001	No	2.879	-0.001	n/a	NoResponse	-1	n/a	n/a	3	62	Target	Loss	False
592.169	0.2	Lose2	0.6349	n/a	No	2.879	n/a	n/a	NoResponse	-1	n/a	n/a	3	62	Blank	Loss	False
592.369	1.45	Lose2	0.6349	n/a	No	2.879	n/a	5.0	NoResponse	-1	0.045	591.414	3	62	Feedback	Loss	False
593.819	2.879	Lose2	0.6349	n/a	No	2.879	n/a	n/a	NoResponse	-1	0.0	n/a	3	62	ISIslide	Loss	False
596.718	0.25	Lose2	0.6406000000000001	0.0	Yes	2.632	0.018	n/a	GoodResponse	0	n/a	n/a	3	63	Cue	AvoidedLoss	False
596.968	4.05	Lose2	0.6406000000000001	0.0	Yes	2.632	0.0	3.0	GoodResponse	0	0.023	595.991	3	63	Fixation	AvoidedLoss	False
596.991	0.3	Lose2	0.6406000000000001	0.0	Yes	2.632	0.0	3.0	GoodResponse	0	0.023	n/a	3	63	ButtonPress	AvoidedLoss	False
601.016	0.5	Lose2	0.6406000000000001	0.002	Yes	2.632	-0.002	3.0	GoodResponse	0	0.261	600.277	3	63	Target	AvoidedLoss	False
601.277	0.3	Lose2	0.6406000000000001	0.002	Yes	2.632	-0.002	3.0	GoodResponse	0	0.261	n/a	3	63	ButtonPress	AvoidedLoss	False
601.516	0.2	Lose2	0.6406000000000001	n/a	Yes	2.632	n/a	n/a	GoodResponse	0	n/a	n/a	3	63	Blank	AvoidedLoss	False
601.716	1.45	Lose2	0.6406000000000001	n/a	Yes	2.632	n/a	5.0	GoodResponse	0	0.015	600.731	3	63	Feedback	AvoidedLoss	False
603.166	2.632	Lose2	0.6406000000000001	n/a	Yes	2.632	n/a	n/a	GoodResponse	0	0.0	n/a	3	63	ISIslide	AvoidedLoss	False
605.815	0.25	Win2	0.6462	0.0	Yes	3.135	0.015	n/a	GoodResponse	1	n/a	n/a	4	64	Cue	Win	True
606.065	4.15	Win2	0.6462	0.0	Yes	3.135	0.0	n/a	GoodResponse	1	n/a	n/a	4	64	Fixation	Win	True
610.213	0.5	Win2	0.6462	0.002	Yes	3.135	-0.002	3.0	GoodResponse	1	0.247	609.46	4	64	Target	Win	True
610.46	0.3	Win2	0.6462	0.002	Yes	3.135	-0.002	3.0	GoodResponse	1	0.247	n/a	4	64	ButtonPress	Win	True
610.713	0.2	Win2	0.6462	n/a	Yes	3.135	n/a	n/a	GoodResponse	1	n/a	n/a	4	64	Blank	Win	True
610.913	1.45	Win2	0.6462	n/a	Yes	3.135	n/a	5.0	GoodResponse	1	0.037	609.95	4	64	Feedback	Win	True
612.363	3.135	Win2	0.6462	n/a	Yes	3.135	n/a	n/a	GoodResponse	1	0.0	n/a	4	64	ISIslide	Win	True
615.511	0.25	Control	0.6515000000000001	0.001	Yes	2.789	0.011	n/a	GoodResponse	0	n/a	n/a	4	65	Cue	Neutral	True
615.761	4.0	Control	0.6515000000000001	0.0	Yes	2.789	0.0	n/a	GoodResponse	0	n/a	n/a	4	65	Fixation	Neutral	True
619.76	0.5	Control	0.6515000000000001	0.001	Yes	2.789	-0.001	3.0	GoodResponse	0	0.234	618.994	4	65	Target	Neutral	True
619.994	0.3	Control	0.6515000000000001	0.001	Yes	2.789	-0.001	3.0	GoodResponse	0	0.234	n/a	4	65	ButtonPress	Neutral	True
620.26	0.2	Control	0.6515000000000001	n/a	Yes	2.789	n/a	n/a	GoodResponse	0	n/a	n/a	4	65	Blank	Neutral	True
620.46	1.45	Control	0.6515000000000001	n/a	Yes	2.789	n/a	5.0	GoodResponse	0	0.004	619.464	4	65	Feedback	Neutral	True
621.909	2.789	Control	0.6515000000000001	n/a	Yes	2.789	n/a	n/a	GoodResponse	0	0.0	n/a	4	65	ISIslide	Neutral	True
624.725	0.25	Win2	0.6567000000000001	0.0	Yes	2.775	0.025	n/a	GoodResponse	1	n/a	n/a	5	66	Cue	Win	True
624.975	3.9	Win2	0.6567000000000001	0.0	Yes	2.775	0.0	n/a	GoodResponse	1	n/a	n/a	5	66	Fixation	Win	True
628.874	0.5	Win2	0.6567000000000001	0.001	Yes	2.775	-0.001	3.0	GoodResponse	1	0.233	628.107	5	66	Target	Win	True
629.107	0.3	Win2	0.6567000000000001	0.001	Yes	2.775	-0.001	3.0	GoodResponse	1	0.233	n/a	5	66	ButtonPress	Win	True
629.373	0.2	Win2	0.6567000000000001	n/a	Yes	2.775	n/a	n/a	GoodResponse	1	n/a	n/a	5	66	Blank	Win	True
629.573	1.45	Win2	0.6567000000000001	n/a	Yes	2.775	n/a	5.0	GoodResponse	1	0.011	628.584	5	66	Feedback	Win	True
631.023	2.775	Win2	0.6567000000000001	n/a	Yes	2.775	n/a	n/a	GoodResponse	1	0.0	n/a	5	66	ISIslide	Win	True
633.822	0.25	Control	0.6470999999999999	0.0	No	2.728	0.022	n/a	NoResponse	0	n/a	n/a	5	67	Cue	Neutral	True
634.072	3.95	Control	0.6470999999999999	0.0	No	2.728	0.0	n/a	NoResponse	0	n/a	n/a	5	67	Fixation	Neutral	True
638.02	0.5	Control	0.6470999999999999	0.002	No	2.728	-0.002	3.0	NoResponse	0	0.647	637.667	5	67	Target	Neutral	True
638.52	0.2	Control	0.6470999999999999	n/a	No	2.728	n/a	n/a	NoResponse	0	n/a	n/a	5	67	Blank	Neutral	True
638.667	0.3	Control	0.6470999999999999	0.002	No	2.728	-0.002	3.0	NoResponse	0	0.647	n/a	5	67	ButtonPress	Neutral	True
638.72	1.45	Control	0.6470999999999999	n/a	No	2.728	n/a	5.0	NoResponse	0	0.035	637.755	5	67	Feedback	Neutral	True
640.17	2.728	Control	0.6470999999999999	n/a	No	2.728	n/a	n/a	NoResponse	0	0.0	n/a	5	67	ISIslide	Neutral	True
642.919	0.25	Win2	0.6377	0.0	No	3.081	0.019	n/a	NoResponse	0	n/a	n/a	5	68	Cue	MissedWin	False
643.169	4.0	Win2	0.6377	0.0	No	3.081	0.0	n/a	NoResponse	0	n/a	n/a	5	68	Fixation	MissedWin	False
647.167	0.5	Win2	0.6377	0.002	No	3.081	-0.002	n/a	NoResponse	0	n/a	n/a	5	68	Target	MissedWin	False
647.667	0.2	Win2	0.6377	n/a	No	3.081	n/a	n/a	NoResponse	0	n/a	n/a	5	68	Blank	MissedWin	False
647.867	1.45	Win2	0.6377	n/a	No	3.081	n/a	5.0	NoResponse	0	0.01	646.877	5	68	Feedback	MissedWin	False
649.317	3.081	Win2	0.6377	n/a	No	3.081	n/a	n/a	NoResponse	0	0.0	n/a	5	68	ISIslide	MissedWin	False
652.416	0.25	Win2	0.6429	0.0	Yes	3.234	0.016	n/a	GoodResponse	1	n/a	n/a	6	69	Cue	Win	True
652.665	3.95	Win2	0.6429	0.001	Yes	3.234	-0.001	n/a	GoodResponse	1	n/a	n/a	6	69	Fixation	Win	True
656.614	0.5	Win2	0.6429	0.002	Yes	3.234	-0.002	3.0	GoodResponse	1	0.225	655.839	6	69	Target	Win	True
656.839	0.3	Win2	0.6429	0.002	Yes	3.234	-0.002	3.0	GoodResponse	1	0.225	n/a	6	69	ButtonPress	Win	True
657.114	0.2	Win2	0.6429	n/a	Yes	3.234	n/a	n/a	GoodResponse	1	n/a	n/a	6	69	Blank	Win	True
657.314	1.45	Win2	0.6429	n/a	Yes	3.234	n/a	5.0	GoodResponse	1	0.026	656.34	6	69	Feedback	Win	True
658.763	3.234	Win2	0.6429	n/a	Yes	3.234	n/a	n/a	GoodResponse	1	0.0	n/a	6	69	ISIslide	Win	True
662.012	0.25	Lose2	0.6479	0.0	Yes	3.038	0.012	n/a	GoodResponse	0	n/a	n/a	6	70	Cue	AvoidedLoss	True
662.262	4.05	Lose2	0.6479	0.0	Yes	3.038	0.0	n/a	GoodResponse	0	n/a	n/a	6	70	Fixation	AvoidedLoss	True
666.311	0.5	Lose2	0.6479	0.001	Yes	3.038	-0.001	3.0	GoodResponse	0	0.262	665.573	6	70	Target	AvoidedLoss	True
666.573	0.3	Lose2	0.6479	0.001	Yes	3.038	-0.001	3.0	GoodResponse	0	0.262	n/a	6	70	ButtonPress	AvoidedLoss	True
666.811	0.2	Lose2	0.6479	n/a	Yes	3.038	n/a	n/a	GoodResponse	0	n/a	n/a	6	70	Blank	AvoidedLoss	True
667.011	1.45	Lose2	0.6479	n/a	Yes	3.038	n/a	5.0	GoodResponse	0	0.037	666.048	6	70	Feedback	AvoidedLoss	True
668.46	3.038	Lose2	0.6479	n/a	Yes	3.038	n/a	n/a	GoodResponse	0	0.0	n/a	6	70	ISIslide	AvoidedLoss	True
671.526	0.25	Win2	0.6389	0.0	No	2.724	0.026	n/a	NoResponse	0	n/a	n/a	6	71	Cue	MissedWin	False
671.776	4.05	Win2	0.6389	0.0	No	2.724	0.0	n/a	NoResponse	0	n/a	n/a	6	71	Fixation	MissedWin	False
675.824	0.5	Win2	0.6389	0.002	No	2.724	-0.002	n/a	NoResponse	0	n/a	n/a	6	71	Target	MissedWin	False
676.324	0.2	Win2	0.6389	n/a	No	2.724	n/a	n/a	NoResponse	0	n/a	n/a	6	71	Blank	MissedWin	False
676.524	1.45	Win2	0.6389	n/a	No	2.724	n/a	5.0	NoResponse	0	0.036	675.56	6	71	Feedback	MissedWin	False
677.973	2.724	Win2	0.6389	n/a	No	2.724	n/a	n/a	NoResponse	0	0.0	n/a	6	71	ISIslide	MissedWin	False
680.722	0.25	Win2	0.6437999999999999	0.001	Yes	2.778	0.022	n/a	GoodResponse	1	n/a	n/a	7	72	Cue	Win	False
680.972	4.1	Win2	0.6437999999999999	0.0	Yes	2.778	0.0	3.0	GoodResponse	1	0.028	680.0	7	72	Fixation	Win	False
681	0.3	Win2	0.6437999999999999	0.0	Yes	2.778	0.0	3.0	GoodResponse	1	0.028	n/a	7	72	ButtonPress	Win	False
685.071	0.5	Win2	0.6437999999999999	0.001	Yes	2.778	-0.001	3.0	GoodResponse	1	0.242	684.313	7	72	Target	Win	False
685.313	0.3	Win2	0.6437999999999999	0.001	Yes	2.778	-0.001	3.0	GoodResponse	1	0.242	n/a	7	72	ButtonPress	Win	False
685.571	0.2	Win2	0.6437999999999999	n/a	Yes	2.778	n/a	n/a	GoodResponse	1	n/a	n/a	7	72	Blank	Win	False
685.771	1.45	Win2	0.6437999999999999	n/a	Yes	2.778	n/a	5.0	GoodResponse	1	0.009	684.78	7	72	Feedback	Win	False
687.22	2.778	Win2	0.6437999999999999	n/a	Yes	2.778	n/a	n/a	GoodResponse	1	0.0	n/a	7	72	ISIslide	Win	False
690.019	0.25	Win2	0.6486	0.0	Yes	2.681	0.019	n/a	GoodResponse	1	n/a	n/a	8	73	Cue	Win	True
690.269	4.0	Win2	0.6486	0.0	Yes	2.681	0.0	n/a	GoodResponse	1	n/a	n/a	8	73	Fixation	Win	True
694.268	0.5	Win2	0.6486	0.001	Yes	2.681	-0.001	3.0	GoodResponse	1	0.22	693.488	8	73	Target	Win	True
694.488	0.3	Win2	0.6486	0.001	Yes	2.681	-0.001	3.0	GoodResponse	1	0.22	n/a	8	73	ButtonPress	Win	True
694.768	0.2	Win2	0.6486	n/a	Yes	2.681	n/a	n/a	GoodResponse	1	n/a	n/a	8	73	Blank	Win	True
694.968	1.45	Win2	0.6486	n/a	Yes	2.681	n/a	5.0	GoodResponse	1	0.03	693.998	8	73	Feedback	Win	True
696.417	2.681	Win2	0.6486	n/a	Yes	2.681	n/a	n/a	GoodResponse	1	0.0	n/a	8	73	ISIslide	Win	True
699.116	0.25	Lose2	0.6533	0.0	Yes	2.634	0.016	n/a	GoodResponse	0	n/a	n/a	8	74	Cue	AvoidedLoss	True
699.366	4.05	Lose2	0.6533	0.0	Yes	2.634	0.0	n/a	GoodResponse	0	n/a	n/a	8	74	Fixation	AvoidedLoss	True
703.415	0.5	Lose2	0.6533	0.001	Yes	2.634	-0.001	3.0	GoodResponse	0	0.246	702.661	8	74	Target	AvoidedLoss	True
703.661	0.3	Lose2	0.6533	0.001	Yes	2.634	-0.001	3.0	GoodResponse	0	0.246	n/a	8	74	ButtonPress	AvoidedLoss	True
703.915	0.2	Lose2	0.6533	n/a	Yes	2.634	n/a	n/a	GoodResponse	0	n/a	n/a	8	74	Blank	AvoidedLoss	True
704.114	1.45	Lose2	0.6533	n/a	Yes	2.634	n/a	5.0	GoodResponse	0	0.006	703.12	8	74	Feedback	AvoidedLoss	True
705.564	2.634	Lose2	0.6533	n/a	Yes	2.634	n/a	n/a	GoodResponse	0	0.0	n/a	8	74	ISIslide	AvoidedLoss	True
708.213	0.25	Lose2	0.6579	0.0	Yes	2.937	0.013	n/a	GoodResponse	0	n/a	n/a	8	75	Cue	AvoidedLoss	True
708.463	3.95	Lose2	0.6579	0.0	Yes	2.937	0.0	n/a	GoodResponse	0	n/a	n/a	8	75	Fixation	AvoidedLoss	True
712.412	0.5	Lose2	0.6579	0.001	Yes	2.937	-0.001	3.0	GoodResponse	0	0.237	711.649	8	75	Target	AvoidedLoss	True
712.649	0.3	Lose2	0.6579	0.001	Yes	2.937	-0.001	3.0	GoodResponse	0	0.237	n/a	8	75	ButtonPress	AvoidedLoss	True
712.911	0.2	Lose2	0.6579	n/a	Yes	2.937	n/a	n/a	GoodResponse	0	n/a	n/a	8	75	Blank	AvoidedLoss	True
713.111	1.45	Lose2	0.6579	n/a	Yes	2.937	n/a	5.0	GoodResponse	0	0.034	712.145	8	75	Feedback	AvoidedLoss	True
714.561	2.937	Lose2	0.6579	n/a	Yes	2.937	n/a	n/a	GoodResponse	0	0.0	n/a	8	75	ISIslide	AvoidedLoss	True
717.527	0.25	Control	0.6623	0.0	Yes	3.223	0.027	n/a	GoodResponse	0	n/a	n/a	8	76	Cue	Neutral	True
717.776	4.05	Control	0.6623	0.001	Yes	3.223	-0.001	n/a	GoodResponse	0	n/a	n/a	8	76	Fixation	Neutral	True
721.825	0.5	Control	0.6623	0.002	Yes	3.223	-0.002	3.0	GoodResponse	0	0.223	721.048	8	76	Target	Neutral	True
722.048	0.3	Control	0.6623	0.002	Yes	3.223	-0.002	3.0	GoodResponse	0	0.223	n/a	8	76	ButtonPress	Neutral	True
722.325	0.2	Control	0.6623	n/a	Yes	3.223	n/a	n/a	GoodResponse	0	n/a	n/a	8	76	Blank	Neutral	True
722.525	1.45	Control	0.6623	n/a	Yes	3.223	n/a	5.0	GoodResponse	0	0.035	721.56	8	76	Feedback	Neutral	True
723.974	3.223	Control	0.6623	n/a	Yes	3.223	n/a	n/a	GoodResponse	0	0.0	n/a	8	76	ISIslide	Neutral	True
727.223	0.25	Lose2	0.6667000000000001	0.0	Yes	2.577	0.023	n/a	GoodResponse	0	n/a	n/a	8	77	Cue	AvoidedLoss	True
727.473	3.95	Lose2	0.6667000000000001	0.0	Yes	2.577	0.0	n/a	GoodResponse	0	n/a	n/a	8	77	Fixation	AvoidedLoss	True
731.422	0.5	Lose2	0.6667000000000001	0.001	Yes	2.577	-0.001	3.0	GoodResponse	0	0.212	730.634	8	77	Target	AvoidedLoss	True
731.634	0.3	Lose2	0.6667000000000001	0.001	Yes	2.577	-0.001	3.0	GoodResponse	0	0.212	n/a	8	77	ButtonPress	AvoidedLoss	True
731.922	0.2	Lose2	0.6667000000000001	n/a	Yes	2.577	n/a	n/a	GoodResponse	0	n/a	n/a	8	77	Blank	AvoidedLoss	True
732.122	1.45	Lose2	0.6667000000000001	n/a	Yes	2.577	n/a	5.0	GoodResponse	0	0.047	731.169	8	77	Feedback	AvoidedLoss	True
733.571	2.577	Lose2	0.6667000000000001	n/a	Yes	2.577	n/a	n/a	GoodResponse	0	0.0	n/a	8	77	ISIslide	AvoidedLoss	True
