onset	duration	cue_type	current_mean_accuracy	duration_error	is_hit	isi_adjusted	onset_delay	response	response_type	reward	rt	rt_time	total_reward	trial_number	trial_phase	trial_type	one_press
11.097	0.25	Control	1.0	0.0	Yes	2.953	-0.003	n/a	GoodResponse	0	n/a	n/a	0	0	Cue	Neutral	True
11.348	3.85	Control	1.0	0.0	Yes	2.953	0.001	n/a	GoodResponse	0	n/a	n/a	0	0	Fixation	Neutral	True
15.193	0.4	Control	1.0	0.004	Yes	2.953	-0.004	2.0	GoodResponse	0	0.193	14.386	0	0	Target	Neutral	True
15.386	0.3	Control	1.0	0.004	Yes	2.953	-0.004	2.0	GoodResponse	0	0.193	n/a	0	0	ButtonPress	Neutral	True
15.594	0.3	Control	1.0	n/a	Yes	2.953	n/a	n/a	GoodResponse	0	n/a	n/a	0	0	Blank	Neutral	True
15.895	1.45	Control	1.0	n/a	Yes	2.953	n/a	5.0	GoodResponse	0	0.032	14.927	0	0	Feedback	Neutral	True
17.349	2.953	Control	1.0	n/a	Yes	2.953	n/a	n/a	GoodResponse	0	0.0	n/a	0	0	ISIslide	Neutral	True
20.325	0.25	Lose2	1.0	0.0	Yes	2.775	0.025	n/a	GoodResponse	0	n/a	n/a	0	1	Cue	AvoidedLoss	True
20.576	4.0	Lose2	1.0	0.0	Yes	2.775	0.001	n/a	GoodResponse	0	n/a	n/a	0	1	Fixation	AvoidedLoss	True
24.571	0.39	Lose2	1.0	0.004	Yes	2.775	-0.004	2.0	GoodResponse	0	0.189	23.76	0	1	Target	AvoidedLoss	True
24.76	0.3	Lose2	1.0	0.004	Yes	2.775	-0.004	2.0	GoodResponse	0	0.189	n/a	0	1	ButtonPress	AvoidedLoss	True
24.972	0.31	Lose2	1.0	n/a	Yes	2.775	n/a	n/a	GoodResponse	0	n/a	n/a	0	1	Blank	AvoidedLoss	True
25.273	1.45	Lose2	1.0	n/a	Yes	2.775	n/a	5.0	GoodResponse	0	0.019	24.292	0	1	Feedback	AvoidedLoss	True
26.727	2.775	Lose2	1.0	n/a	Yes	2.775	n/a	n/a	GoodResponse	0	0.0	n/a	0	1	ISIslide	AvoidedLoss	True
29.519	0.25	Control	1.0	0.0	Yes	2.581	0.019	n/a	GoodResponse	0	n/a	n/a	0	2	Cue	Neutral	True
29.77	4.1	Control	1.0	0.0	Yes	2.581	0.001	n/a	GoodResponse	0	n/a	n/a	0	2	Fixation	Neutral	True
33.865	0.38	Control	1.0	0.004	Yes	2.581	-0.004	2.0	GoodResponse	0	0.192	33.057	0	2	Target	Neutral	True
34.057	0.3	Control	1.0	0.004	Yes	2.581	-0.004	2.0	GoodResponse	0	0.192	n/a	0	2	ButtonPress	Neutral	True
34.25	0.32	Control	1.0	n/a	Yes	2.581	n/a	n/a	GoodResponse	0	n/a	n/a	0	2	Blank	Neutral	True
34.567	1.45	Control	1.0	n/a	Yes	2.581	n/a	5.0	GoodResponse	0	0.042	33.609	0	2	Feedback	Neutral	True
36.022	2.581	Control	1.0	n/a	Yes	2.581	n/a	n/a	GoodResponse	0	0.0	n/a	0	2	ISIslide	Neutral	True
38.63	0.25	Win2	1.0	0.0	Yes	2.82	0.03	n/a	GoodResponse	1	n/a	n/a	1	3	Cue	Win	True
38.88	3.95	Win2	1.0	0.0	Yes	2.82	0.0	n/a	GoodResponse	1	n/a	n/a	1	3	Fixation	Win	True
42.825	0.37	Win2	1.0	0.005	Yes	2.82	-0.005	2.0	GoodResponse	1	0.202	42.027	1	3	Target	Win	True
43.027	0.3	Win2	1.0	0.005	Yes	2.82	-0.005	2.0	GoodResponse	1	0.202	n/a	1	3	ButtonPress	Win	True
43.21	0.33	Win2	1.0	n/a	Yes	2.82	n/a	n/a	GoodResponse	1	n/a	n/a	1	3	Blank	Win	True
43.528	1.45	Win2	1.0	n/a	Yes	2.82	n/a	5.0	GoodResponse	1	0.008	42.536	1	3	Feedback	Win	True
44.982	2.82	Win2	1.0	n/a	Yes	2.82	n/a	n/a	GoodResponse	1	0.0	n/a	1	3	ISIslide	Win	True
47.824	0.25	Win2	1.0	0.0	Yes	3.276	0.024	n/a	GoodResponse	1	n/a	n/a	2	4	Cue	Win	True
48.074	4.0	Win2	1.0	0.001	Yes	3.276	0.0	n/a	GoodResponse	1	n/a	n/a	2	4	Fixation	Win	True
52.07	0.36	Win2	1.0	0.004	Yes	3.276	-0.004	2.0	GoodResponse	1	0.199	51.269	2	4	Target	Win	True
52.269	0.3	Win2	1.0	0.004	Yes	3.276	-0.004	2.0	GoodResponse	1	0.199	n/a	2	4	ButtonPress	Win	True
52.437	0.34	Win2	1.0	n/a	Yes	3.276	n/a	n/a	GoodResponse	1	n/a	n/a	2	4	Blank	Win	True
52.772	1.45	Win2	1.0	n/a	Yes	3.276	n/a	5.0	GoodResponse	1	0.032	51.804	2	4	Feedback	Win	True
54.226	3.276	Win2	1.0	n/a	Yes	3.276	n/a	n/a	GoodResponse	1	0.0	n/a	2	4	ISIslide	Win	True
57.519	0.25	Win2	1.0	0.0	Yes	2.781	0.019	n/a	GoodResponse	1	n/a	n/a	3	5	Cue	Win	True
57.77	4.0	Win2	1.0	0.0	Yes	2.781	0.001	n/a	GoodResponse	1	n/a	n/a	3	5	Fixation	Win	True
61.765	0.35	Win2	1.0	0.004	Yes	2.781	-0.004	2.0	GoodResponse	1	0.288	61.053	3	5	Target	Win	True
62.053	0.3	Win2	1.0	0.004	Yes	2.781	-0.004	2.0	GoodResponse	1	0.288	n/a	3	5	ButtonPress	Win	True
62.116	0.35	Win2	1.0	n/a	Yes	2.781	n/a	n/a	GoodResponse	1	n/a	n/a	3	5	Blank	Win	True
62.467	1.45	Win2	1.0	n/a	Yes	2.781	n/a	5.0	GoodResponse	1	0.044	61.511	3	5	Feedback	Win	True
63.922	2.781	Win2	1.0	n/a	Yes	2.781	n/a	n/a	GoodResponse	1	0.0	n/a	3	5	ISIslide	Win	True
66.73	0.25	Lose2	1.0	0.0	Yes	2.72	0.03	n/a	GoodResponse	0	n/a	n/a	3	6	Cue	AvoidedLoss	True
66.981	3.95	Lose2	1.0	0.0	Yes	2.72	0.001	n/a	GoodResponse	0	n/a	n/a	3	6	Fixation	AvoidedLoss	True
70.926	0.34	Lose2	1.0	0.004	Yes	2.72	-0.004	2.0	GoodResponse	0	0.178	70.104	3	6	Target	AvoidedLoss	True
71.104	0.3	Lose2	1.0	0.004	Yes	2.72	-0.004	2.0	GoodResponse	0	0.178	n/a	3	6	ButtonPress	AvoidedLoss	True
71.277	0.36	Lose2	1.0	n/a	Yes	2.72	n/a	n/a	GoodResponse	0	n/a	n/a	3	6	Blank	AvoidedLoss	True
71.628	1.45	Lose2	1.0	n/a	Yes	2.72	n/a	5.0	GoodResponse	0	0.007	70.635	3	6	Feedback	AvoidedLoss	True
73.082	2.72	Lose2	1.0	n/a	Yes	2.72	n/a	n/a	GoodResponse	0	0.0	n/a	3	6	ISIslide	AvoidedLoss	True
75.824	0.25	Lose2	1.0	0.0	Yes	4.026	0.024	n/a	GoodResponse	0	n/a	n/a	3	7	Cue	AvoidedLoss	True
76.075	4.05	Lose2	1.0	0.0	Yes	4.026	0.001	n/a	GoodResponse	0	n/a	n/a	3	7	Fixation	AvoidedLoss	True
80.12	0.33	Lose2	1.0	0.004	Yes	4.026	-0.004	2.0	GoodResponse	0	0.181	79.301	3	7	Target	AvoidedLoss	True
80.301	0.3	Lose2	1.0	0.004	Yes	4.026	-0.004	2.0	GoodResponse	0	0.181	n/a	3	7	ButtonPress	AvoidedLoss	True
80.454	0.37	Lose2	1.0	n/a	Yes	4.026	n/a	n/a	GoodResponse	0	n/a	n/a	3	7	Blank	AvoidedLoss	True
80.822	1.45	Lose2	1.0	n/a	Yes	4.026	n/a	5.0	GoodResponse	0	0.03	79.852	3	7	Feedback	AvoidedLoss	True
82.277	4.026	Lose2	1.0	n/a	Yes	4.026	n/a	n/a	GoodResponse	0	0.0	n/a	3	7	ISIslide	AvoidedLoss	True
86.322	0.25	Lose2	1.0	0.0	Yes	3.028	0.022	n/a	GoodResponse	0	n/a	n/a	3	8	Cue	AvoidedLoss	True
86.573	3.95	Lose2	1.0	0.0	Yes	3.028	0.001	n/a	GoodResponse	0	n/a	n/a	3	8	Fixation	AvoidedLoss	True
90.518	0.32	Lose2	1.0	0.004	Yes	3.028	-0.004	2.0	GoodResponse	0	0.236	89.754	3	8	Target	AvoidedLoss	True
90.754	0.3	Lose2	1.0	0.004	Yes	3.028	-0.004	2.0	GoodResponse	0	0.236	n/a	3	8	ButtonPress	AvoidedLoss	True
90.852	0.38	Lose2	1.0	n/a	Yes	3.028	n/a	n/a	GoodResponse	0	n/a	n/a	3	8	Blank	AvoidedLoss	True
91.22	1.45	Lose2	1.0	n/a	Yes	3.028	n/a	5.0	GoodResponse	0	0.023	90.243	3	8	Feedback	AvoidedLoss	True
92.674	3.028	Lose2	1.0	n/a	Yes	3.028	n/a	n/a	GoodResponse	0	0.0	n/a	3	8	ISIslide	AvoidedLoss	True
95.717	0.25	Lose2	1.0	0.0	Yes	3.133	0.017	n/a	GoodResponse	0	n/a	n/a	3	9	Cue	AvoidedLoss	True
95.967	3.95	Lose2	1.0	0.001	Yes	3.133	0.0	n/a	GoodResponse	0	n/a	n/a	3	9	Fixation	AvoidedLoss	True
99.913	0.31	Lose2	1.0	0.004	Yes	3.133	-0.004	2.0	GoodResponse	0	0.177	99.09	3	9	Target	AvoidedLoss	True
100.09	0.3	Lose2	1.0	0.004	Yes	3.133	-0.004	2.0	GoodResponse	0	0.177	n/a	3	9	ButtonPress	AvoidedLoss	True
100.23	0.39	Lose2	1.0	n/a	Yes	3.133	n/a	n/a	GoodResponse	0	n/a	n/a	3	9	Blank	AvoidedLoss	True
100.615	1.45	Lose2	1.0	n/a	Yes	3.133	n/a	5.0	GoodResponse	0	0.041	99.656	3	9	Feedback	AvoidedLoss	True
102.069	3.133	Lose2	1.0	n/a	Yes	3.133	n/a	n/a	GoodResponse	0	0.0	n/a	3	9	ISIslide	AvoidedLoss	True
105.228	0.25	Control	1.0	0.001	Yes	3.272	0.028	n/a	GoodResponse	0	n/a	n/a	3	10	Cue	Neutral	True
105.479	4.0	Control	1.0	0.0	Yes	3.272	0.001	n/a	GoodResponse	0	n/a	n/a	3	10	Fixation	Neutral	True
109.474	0.3	Control	1.0	0.004	Yes	3.272	-0.004	2.0	GoodResponse	0	0.177	108.651	3	10	Target	Neutral	True
109.651	0.3	Control	1.0	0.004	Yes	3.272	-0.004	2.0	GoodResponse	0	0.177	n/a	3	10	ButtonPress	Neutral	True
109.775	0.4	Control	1.0	n/a	Yes	3.272	n/a	n/a	GoodResponse	0	n/a	n/a	3	10	Blank	Neutral	True
110.177	1.45	Control	1.0	n/a	Yes	3.272	n/a	5.0	GoodResponse	0	0.04	109.217	3	10	Feedback	Neutral	True
111.631	3.272	Control	1.0	n/a	Yes	3.272	n/a	n/a	GoodResponse	0	0.0	n/a	3	10	ISIslide	Neutral	True
114.924	0.25	Lose2	1.0	0.0	Yes	2.726	0.024	n/a	GoodResponse	0	n/a	n/a	3	11	Cue	AvoidedLoss	True
115.175	4.05	Lose2	1.0	0.0	Yes	2.726	0.001	n/a	GoodResponse	0	n/a	n/a	3	11	Fixation	AvoidedLoss	True
119.22	0.29	Lose2	1.0	0.004	Yes	2.726	-0.004	2.0	GoodResponse	0	0.166	118.386	3	11	Target	AvoidedLoss	True
119.386	0.3	Lose2	1.0	0.004	Yes	2.726	-0.004	2.0	GoodResponse	0	0.166	n/a	3	11	ButtonPress	AvoidedLoss	True
119.521	0.41	Lose2	1.0	n/a	Yes	2.726	n/a	n/a	GoodResponse	0	n/a	n/a	3	11	Blank	AvoidedLoss	True
119.922	1.45	Lose2	1.0	n/a	Yes	2.726	n/a	5.0	GoodResponse	0	0.005	118.927	3	11	Feedback	AvoidedLoss	True
121.377	2.726	Lose2	1.0	n/a	Yes	2.726	n/a	n/a	GoodResponse	0	0.0	n/a	3	11	ISIslide	AvoidedLoss	True
124.118	0.25	Control	1.0	0.0	Yes	2.982	0.018	n/a	GoodResponse	0	n/a	n/a	3	12	Cue	Neutral	True
124.369	3.9	Control	1.0	0.0	Yes	2.982	0.001	n/a	GoodResponse	0	n/a	n/a	3	12	Fixation	Neutral	True
128.264	0.28	Control	1.0	0.004	Yes	2.982	-0.004	2.0	GoodResponse	0	0.171	127.435	3	12	Target	Neutral	True
128.435	0.3	Control	1.0	0.004	Yes	2.982	-0.004	2.0	GoodResponse	0	0.171	n/a	3	12	ButtonPress	Neutral	True
128.548	0.42	Control	1.0	n/a	Yes	2.982	n/a	n/a	GoodResponse	0	n/a	n/a	3	12	Blank	Neutral	True
128.966	1.45	Control	1.0	n/a	Yes	2.982	n/a	5.0	GoodResponse	0	0.032	127.998	3	12	Feedback	Neutral	True
130.42	2.982	Control	1.0	n/a	Yes	2.982	n/a	n/a	GoodResponse	0	0.0	n/a	3	12	ISIslide	Neutral	True
133.429	0.25	Control	1.0	0.0	Yes	2.771	0.029	n/a	GoodResponse	0	n/a	n/a	3	13	Cue	Neutral	True
133.68	4.0	Control	1.0	0.0	Yes	2.771	0.001	n/a	GoodResponse	0	n/a	n/a	3	13	Fixation	Neutral	True
137.675	0.27	Control	1.0	0.004	Yes	2.771	-0.004	2.0	GoodResponse	0	0.172	136.847	3	13	Target	Neutral	True
137.847	0.3	Control	1.0	0.004	Yes	2.771	-0.004	2.0	GoodResponse	0	0.172	n/a	3	13	ButtonPress	Neutral	True
137.96	0.43	Control	1.0	n/a	Yes	2.771	n/a	n/a	GoodResponse	0	n/a	n/a	3	13	Blank	Neutral	True
138.377	1.45	Control	1.0	n/a	Yes	2.771	n/a	5.0	GoodResponse	0	0.035	137.412	3	13	Feedback	Neutral	True
139.832	2.771	Control	1.0	n/a	Yes	2.771	n/a	n/a	GoodResponse	0	0.0	n/a	3	13	ISIslide	Neutral	True
142.623	0.25	Win2	1.0	0.001	Yes	2.677	0.023	n/a	GoodResponse	1	n/a	n/a	4	14	Cue	Win	True
142.874	4.1	Win2	1.0	0.0	Yes	2.677	0.001	n/a	GoodResponse	1	n/a	n/a	4	14	Fixation	Win	True
146.97	0.26	Win2	1.0	0.003	Yes	2.677	-0.003	2.0	GoodResponse	1	0.166	146.136	4	14	Target	Win	True
147.136	0.3	Win2	1.0	0.003	Yes	2.677	-0.003	2.0	GoodResponse	1	0.166	n/a	4	14	ButtonPress	Win	True
147.237	0.44	Win2	1.0	n/a	Yes	2.677	n/a	n/a	GoodResponse	1	n/a	n/a	4	14	Blank	Win	True
147.672	1.45	Win2	1.0	n/a	Yes	2.677	n/a	5.0	GoodResponse	1	0.008	146.68	4	14	Feedback	Win	True
149.126	2.677	Win2	1.0	n/a	Yes	2.677	n/a	n/a	GoodResponse	1	0.0	n/a	4	14	ISIslide	Win	True
151.818	0.25	Control	1.0	0.0	Yes	2.982	0.018	n/a	GoodResponse	0	n/a	n/a	4	15	Cue	Neutral	False
152.068	4.0	Control	1.0	0.0	Yes	2.982	0.0	2.0	GoodResponse	0	3.687	154.755	4	15	Fixation	Neutral	False
155.755	0.3	Control	1.0	0.0	Yes	2.982	0.0	2.0	GoodResponse	0	3.687	n/a	4	15	ButtonPress	Neutral	False
156.064	0.25	Control	1.0	0.004	Yes	2.982	-0.004	2.0	GoodResponse	0	0.23	155.294	4	15	Target	Neutral	False
156.294	0.3	Control	1.0	0.004	Yes	2.982	-0.004	2.0	GoodResponse	0	0.23	n/a	4	15	ButtonPress	Neutral	False
156.314	0.45	Control	1.0	n/a	Yes	2.982	n/a	n/a	GoodResponse	0	n/a	n/a	4	15	Blank	Neutral	False
156.766	1.45	Control	1.0	n/a	Yes	2.982	n/a	5.0	GoodResponse	0	0.036	155.802	4	15	Feedback	Neutral	False
158.22	2.982	Control	1.0	n/a	Yes	2.982	n/a	n/a	GoodResponse	0	0.0	n/a	4	15	ISIslide	Neutral	False
161.229	0.25	Win2	1.0	0.0	Yes	2.871	0.029	n/a	GoodResponse	1	n/a	n/a	5	16	Cue	Win	True
161.48	4.0	Win2	1.0	0.0	Yes	2.871	0.001	n/a	GoodResponse	1	n/a	n/a	5	16	Fixation	Win	True
165.475	0.24	Win2	1.0	0.004	Yes	2.871	-0.004	2.0	GoodResponse	1	0.184	164.659	5	16	Target	Win	True
165.659	0.3	Win2	1.0	0.004	Yes	2.871	-0.004	2.0	GoodResponse	1	0.184	n/a	5	16	ButtonPress	Win	True
165.726	0.46	Win2	1.0	n/a	Yes	2.871	n/a	n/a	GoodResponse	1	n/a	n/a	5	16	Blank	Win	True
166.177	1.45	Win2	1.0	n/a	Yes	2.871	n/a	5.0	GoodResponse	1	0.04	165.217	5	16	Feedback	Win	True
167.632	2.871	Win2	1.0	n/a	Yes	2.871	n/a	n/a	GoodResponse	1	0.0	n/a	5	16	ISIslide	Win	True
170.523	0.25	Lose2	1.0	0.001	Yes	2.727	0.023	n/a	GoodResponse	0	n/a	n/a	5	17	Cue	AvoidedLoss	True
170.774	3.95	Lose2	1.0	0.0	Yes	2.727	0.001	n/a	GoodResponse	0	n/a	n/a	5	17	Fixation	AvoidedLoss	True
174.719	0.23	Lose2	1.0	0.004	Yes	2.727	-0.004	2.0	GoodResponse	0	0.188	173.907	5	17	Target	AvoidedLoss	True
174.907	0.3	Lose2	1.0	0.004	Yes	2.727	-0.004	2.0	GoodResponse	0	0.188	n/a	5	17	ButtonPress	AvoidedLoss	True
174.953	0.47	Lose2	1.0	n/a	Yes	2.727	n/a	n/a	GoodResponse	0	n/a	n/a	5	17	Blank	AvoidedLoss	True
175.421	1.45	Lose2	1.0	n/a	Yes	2.727	n/a	5.0	GoodResponse	0	0.015	174.436	5	17	Feedback	AvoidedLoss	True
176.876	2.727	Lose2	1.0	n/a	Yes	2.727	n/a	n/a	GoodResponse	0	0.0	n/a	5	17	ISIslide	AvoidedLoss	True
179.617	0.25	Lose2	1.0	0.0	Yes	2.733	0.017	n/a	GoodResponse	0	n/a	n/a	5	18	Cue	AvoidedLoss	True
179.868	4.05	Lose2	1.0	0.0	Yes	2.733	0.001	n/a	GoodResponse	0	n/a	n/a	5	18	Fixation	AvoidedLoss	True
183.913	0.22	Lose2	1.0	0.004	Yes	2.733	-0.004	2.0	GoodResponse	0	0.212	183.125	5	18	Target	AvoidedLoss	True
184.125	0.3	Lose2	1.0	0.004	Yes	2.733	-0.004	2.0	GoodResponse	0	0.212	n/a	5	18	ButtonPress	AvoidedLoss	True
184.147	0.48	Lose2	1.0	n/a	Yes	2.733	n/a	n/a	GoodResponse	0	n/a	n/a	5	18	Blank	AvoidedLoss	True
184.616	1.45	Lose2	1.0	n/a	Yes	2.733	n/a	5.0	GoodResponse	0	0.039	183.655	5	18	Feedback	AvoidedLoss	True
186.07	2.733	Lose2	1.0	n/a	Yes	2.733	n/a	n/a	GoodResponse	0	0.0	n/a	5	18	ISIslide	AvoidedLoss	True
188.828	0.25	Control	0.95	0.0	No	2.922	0.028	n/a	LatePress	0	n/a	n/a	5	19	Cue	Neutral	True
189.079	3.95	Control	0.95	0.0	No	2.922	0.001	n/a	LatePress	0	n/a	n/a	5	19	Fixation	Neutral	True
193.024	0.21	Control	0.95	0.004	No	2.922	-0.004	2.0	LatePress	0	0.216	192.24	5	19	Target	Neutral	True
193.24	0.3	Control	0.95	0.004	No	2.922	-0.004	2.0	LatePress	0	0.216	n/a	5	19	ButtonPress	Neutral	True
193.241	0.49	Control	0.95	n/a	No	2.922	n/a	n/a	LatePress	0	n/a	n/a	5	19	Blank	Neutral	True
193.726	1.45	Control	0.95	n/a	No	2.922	n/a	5.0	LatePress	0	0.002	192.728	5	19	Feedback	Neutral	True
195.18	2.922	Control	0.95	n/a	No	2.922	n/a	n/a	LatePress	0	0.0	n/a	5	19	ISIslide	Neutral	True
198.123	0.25	Control	0.9523999999999999	0.0	Yes	2.627	0.023	n/a	GoodResponse	0	n/a	n/a	5	20	Cue	Neutral	True
198.373	4.05	Control	0.9523999999999999	0.0	Yes	2.627	0.0	n/a	GoodResponse	0	n/a	n/a	5	20	Fixation	Neutral	True
202.419	0.2	Control	0.9523999999999999	0.004	Yes	2.627	-0.004	2.0	GoodResponse	0	0.18	201.599	5	20	Target	Neutral	True
202.599	0.3	Control	0.9523999999999999	0.004	Yes	2.627	-0.004	2.0	GoodResponse	0	0.18	n/a	5	20	ButtonPress	Neutral	True
202.619	0.5	Control	0.9523999999999999	n/a	Yes	2.627	n/a	n/a	GoodResponse	0	n/a	n/a	5	20	Blank	Neutral	True
203.121	1.45	Control	0.9523999999999999	n/a	Yes	2.627	n/a	5.0	GoodResponse	0	0.022	202.143	5	20	Feedback	Neutral	True
204.575	2.627	Control	0.9523999999999999	n/a	Yes	2.627	n/a	n/a	GoodResponse	0	0.0	n/a	5	20	ISIslide	Neutral	True
207.216	0.25	Control	0.9545	0.0	Yes	2.784	0.016	n/a	GoodResponse	0	n/a	n/a	5	21	Cue	Neutral	True
207.467	4.1	Control	0.9545	0.0	Yes	2.784	0.001	n/a	GoodResponse	0	n/a	n/a	5	21	Fixation	Neutral	True
211.563	0.19	Control	0.9545	0.003	Yes	2.784	-0.003	2.0	GoodResponse	0	0.181	210.744	5	21	Target	Neutral	True
211.744	0.3	Control	0.9545	0.003	Yes	2.784	-0.003	2.0	GoodResponse	0	0.181	n/a	5	21	ButtonPress	Neutral	True
211.763	0.51	Control	0.9545	n/a	Yes	2.784	n/a	n/a	GoodResponse	0	n/a	n/a	5	21	Blank	Neutral	True
212.265	1.45	Control	0.9545	n/a	Yes	2.784	n/a	5.0	GoodResponse	0	0.048	211.313	5	21	Feedback	Neutral	True
213.719	2.784	Control	0.9545	n/a	Yes	2.784	n/a	n/a	GoodResponse	0	0.0	n/a	5	21	ISIslide	Neutral	True
216.528	0.25	Control	0.9565	0.0	Yes	2.772	0.028	n/a	GoodResponse	0	n/a	n/a	5	22	Cue	Neutral	True
216.778	4.0	Control	0.9565	0.0	Yes	2.772	0.0	n/a	GoodResponse	0	n/a	n/a	5	22	Fixation	Neutral	True
220.774	0.18	Control	0.9565	0.004	Yes	2.772	-0.004	2.0	GoodResponse	0	0.174	219.948	5	22	Target	Neutral	True
220.948	0.3	Control	0.9565	0.004	Yes	2.772	-0.004	2.0	GoodResponse	0	0.174	n/a	5	22	ButtonPress	Neutral	True
220.957	0.52	Control	0.9565	n/a	Yes	2.772	n/a	n/a	GoodResponse	0	n/a	n/a	5	22	Blank	Neutral	True
221.476	1.45	Control	0.9565	n/a	Yes	2.772	n/a	5.0	GoodResponse	0	0.008	220.484	5	22	Feedback	Neutral	True
222.93	2.772	Control	0.9565	n/a	Yes	2.772	n/a	n/a	GoodResponse	0	0.0	n/a	5	22	ISIslide	Neutral	True
225.722	0.25	Control	0.9167000000000001	0.0	No	2.778	0.022	n/a	NoResponse	0	n/a	n/a	5	23	Cue	Neutral	True
225.972	3.9	Control	0.9167000000000001	0.0	No	2.778	0.0	n/a	NoResponse	0	n/a	n/a	5	23	Fixation	Neutral	True
229.884	0.17	Control	0.9167000000000001	0.0	No	2.778	0.012	2.0	NoResponse	0	0.215	229.099	5	23	Target	Neutral	True
230.051	0.53	Control	0.9167000000000001	n/a	No	2.778	n/a	n/a	NoResponse	0	n/a	n/a	5	23	Blank	Neutral	True
230.099	0.3	Control	0.9167000000000001	0.0	No	2.778	0.012	2.0	NoResponse	0	0.215	n/a	5	23	ButtonPress	Neutral	True
230.569	1.45	Control	0.9167000000000001	n/a	No	2.778	n/a	5.0	NoResponse	0	0.037	229.606	5	23	Feedback	Neutral	True
232.024	2.778	Control	0.9167000000000001	n/a	No	2.778	n/a	n/a	NoResponse	0	0.0	n/a	5	23	ISIslide	Neutral	True
234.815	0.25	Win2	0.88	0.001	No	3.135	0.015	n/a	LatePress	0	n/a	n/a	5	24	Cue	MissedWin	True
235.066	3.95	Win2	0.88	0.0	No	3.135	0.001	n/a	LatePress	0	n/a	n/a	5	24	Fixation	MissedWin	True
239.011	0.16	Win2	0.88	0.004	No	3.135	-0.004	2.0	LatePress	0	0.164	238.175	5	24	Target	MissedWin	True
239.175	0.3	Win2	0.88	0.004	No	3.135	-0.004	2.0	LatePress	0	0.164	n/a	5	24	ButtonPress	MissedWin	True
239.179	0.54	Win2	0.88	n/a	No	3.135	n/a	n/a	LatePress	0	n/a	n/a	5	24	Blank	MissedWin	True
239.713	1.45	Win2	0.88	n/a	No	3.135	n/a	5.0	LatePress	0	0.015	238.728	5	24	Feedback	MissedWin	True
241.168	3.135	Win2	0.88	n/a	No	3.135	n/a	n/a	LatePress	0	0.0	n/a	5	24	ISIslide	MissedWin	True
244.327	0.25	Win2	0.8845999999999999	0.0	Yes	3.073	0.027	n/a	GoodResponse	1	n/a	n/a	6	25	Cue	Win	True
244.578	4.0	Win2	0.8845999999999999	0.0	Yes	3.073	0.001	n/a	GoodResponse	1	n/a	n/a	6	25	Fixation	Win	True
248.573	0.15	Win2	0.8845999999999999	0.004	Yes	3.073	-0.004	2.0	GoodResponse	1	0.141	247.714	6	25	Target	Win	True
248.714	0.3	Win2	0.8845999999999999	0.004	Yes	3.073	-0.004	2.0	GoodResponse	1	0.141	n/a	6	25	ButtonPress	Win	True
248.724	0.55	Win2	0.8845999999999999	n/a	Yes	3.073	n/a	n/a	GoodResponse	1	n/a	n/a	6	25	Blank	Win	True
249.275	1.45	Win2	0.8845999999999999	n/a	Yes	3.073	n/a	5.0	GoodResponse	1	0.013	248.288	6	25	Feedback	Win	True
250.73	3.073	Win2	0.8845999999999999	n/a	Yes	3.073	n/a	n/a	GoodResponse	1	0.0	n/a	6	25	ISIslide	Win	True
253.822	0.25	Win2	0.8519	0.0	No	2.928	0.022	n/a	NoResponse	0	n/a	n/a	6	26	Cue	MissedWin	True
254.073	3.95	Win2	0.8519	0.0	No	2.928	0.001	n/a	NoResponse	0	n/a	n/a	6	26	Fixation	MissedWin	True
258.018	0.15	Win2	0.8519	0.004	No	2.928	-0.004	2.0	NoResponse	0	0.161	257.179	6	26	Target	MissedWin	True
258.169	0.55	Win2	0.8519	n/a	No	2.928	n/a	n/a	NoResponse	0	n/a	n/a	6	26	Blank	MissedWin	True
258.179	0.3	Win2	0.8519	0.004	No	2.928	-0.004	2.0	NoResponse	0	0.161	n/a	6	26	ButtonPress	MissedWin	True
258.72	1.45	Win2	0.8519	n/a	No	2.928	n/a	5.0	NoResponse	0	0.032	257.752	6	26	Feedback	MissedWin	True
260.175	2.928	Win2	0.8519	n/a	No	2.928	n/a	n/a	NoResponse	0	0.0	n/a	6	26	ISIslide	MissedWin	True
263.117	0.25	Lose2	0.8214	0.0	No	2.833	0.017	n/a	NoResponse	-1	n/a	n/a	5	27	Cue	Loss	True
263.367	4.05	Lose2	0.8214	0.0	No	2.833	0.0	n/a	NoResponse	-1	n/a	n/a	5	27	Fixation	Loss	True
267.413	0.15	Lose2	0.8214	0.004	No	2.833	-0.004	2.0	NoResponse	-1	0.197	266.61	5	27	Target	Loss	True
267.563	0.55	Lose2	0.8214	n/a	No	2.833	n/a	n/a	NoResponse	-1	n/a	n/a	5	27	Blank	Loss	True
267.61	0.3	Lose2	0.8214	0.004	No	2.833	-0.004	2.0	NoResponse	-1	0.197	n/a	5	27	ButtonPress	Loss	True
268.115	1.45	Lose2	0.8214	n/a	No	2.833	n/a	5.0	NoResponse	-1	0.002	267.117	5	27	Feedback	Loss	True
269.569	2.833	Lose2	0.8214	n/a	No	2.833	n/a	n/a	NoResponse	-1	0.0	n/a	5	27	ISIslide	Loss	True
272.428	0.25	Control	0.7931	0.0	No	2.822	0.028	n/a	NoResponse	0	n/a	n/a	5	28	Cue	Neutral	True
272.679	4.05	Control	0.7931	0.0	No	2.822	0.001	n/a	NoResponse	0	n/a	n/a	5	28	Fixation	Neutral	True
276.724	0.15	Control	0.7931	0.004	No	2.822	-0.004	2.0	NoResponse	0	0.178	275.902	5	28	Target	Neutral	True
276.874	0.55	Control	0.7931	n/a	No	2.822	n/a	n/a	NoResponse	0	n/a	n/a	5	28	Blank	Neutral	True
276.902	0.3	Control	0.7931	0.004	No	2.822	-0.004	2.0	NoResponse	0	0.178	n/a	5	28	ButtonPress	Neutral	True
277.426	1.45	Control	0.7931	n/a	No	2.822	n/a	5.0	NoResponse	0	0.009	276.435	5	28	Feedback	Neutral	True
278.88	2.822	Control	0.7931	n/a	No	2.822	n/a	n/a	NoResponse	0	0.0	n/a	5	28	ISIslide	Neutral	True
281.722	0.25	Lose2	0.7667	0.0	No	2.828	0.022	n/a	NoResponse	-1	n/a	n/a	4	29	Cue	Loss	True
281.973	3.95	Lose2	0.7667	0.0	No	2.828	0.001	n/a	NoResponse	-1	n/a	n/a	4	29	Fixation	Loss	True
285.918	0.15	Lose2	0.7667	0.004	No	2.828	-0.004	2.0	NoResponse	-1	0.188	285.106	4	29	Target	Loss	True
286.069	0.55	Lose2	0.7667	n/a	No	2.828	n/a	n/a	NoResponse	-1	n/a	n/a	4	29	Blank	Loss	True
286.106	0.3	Lose2	0.7667	0.004	No	2.828	-0.004	2.0	NoResponse	-1	0.188	n/a	4	29	ButtonPress	Loss	True
286.62	1.45	Lose2	0.7667	n/a	No	2.828	n/a	5.0	NoResponse	-1	0.033	285.653	4	29	Feedback	Loss	True
288.075	2.828	Lose2	0.7667	n/a	No	2.828	n/a	n/a	NoResponse	-1	0.0	n/a	4	29	ISIslide	Loss	True
290.916	0.25	Win2	0.7419	0.0	No	2.784	0.016	n/a	NoResponse	0	n/a	n/a	4	30	Cue	MissedWin	False
291.167	3.9	Win2	0.7419	0.0	No	2.784	0.001	2.0	NoResponse	0	3.727	293.894	4	30	Fixation	MissedWin	False
294.894	0.3	Win2	0.7419	0.0	No	2.784	0.001	2.0	NoResponse	0	3.727	n/a	4	30	ButtonPress	MissedWin	False
295.062	0.15	Win2	0.7419	0.004	No	2.784	-0.004	2.0	NoResponse	0	0.175	294.237	4	30	Target	MissedWin	False
295.213	0.55	Win2	0.7419	n/a	No	2.784	n/a	n/a	NoResponse	0	n/a	n/a	4	30	Blank	MissedWin	False
295.237	0.3	Win2	0.7419	0.004	No	2.784	-0.004	2.0	NoResponse	0	0.175	n/a	4	30	ButtonPress	MissedWin	False
295.764	1.45	Win2	0.7419	n/a	No	2.784	n/a	5.0	NoResponse	0	0.011	294.775	4	30	Feedback	MissedWin	False
297.219	2.784	Win2	0.7419	n/a	No	2.784	n/a	n/a	NoResponse	0	0.0	n/a	4	30	ISIslide	MissedWin	False
300.027	0.25	Lose2	0.7188	0.0	No	2.823	0.027	n/a	NoResponse	-1	n/a	n/a	3	31	Cue	Loss	True
300.278	4.05	Lose2	0.7188	0.0	No	2.823	0.001	n/a	NoResponse	-1	n/a	n/a	3	31	Fixation	Loss	True
304.323	0.15	Lose2	0.7188	0.004	No	2.823	-0.004	2.0	NoResponse	-1	0.184	303.507	3	31	Target	Loss	True
304.474	0.55	Lose2	0.7188	n/a	No	2.823	n/a	n/a	NoResponse	-1	n/a	n/a	3	31	Blank	Loss	True
304.507	0.3	Lose2	0.7188	0.004	No	2.823	-0.004	2.0	NoResponse	-1	0.184	n/a	3	31	ButtonPress	Loss	True
305.025	1.45	Lose2	0.7188	n/a	No	2.823	n/a	5.0	NoResponse	-1	0.019	304.044	3	31	Feedback	Loss	True
306.48	2.823	Lose2	0.7188	n/a	No	2.823	n/a	n/a	NoResponse	-1	0.0	n/a	3	31	ISIslide	Loss	True
309.321	0.25	Lose2	0.6970000000000001	0.0	No	2.629	0.021	n/a	NoResponse	-1	n/a	n/a	2	32	Cue	Loss	True
309.572	4.15	Lose2	0.6970000000000001	0.0	No	2.629	0.001	n/a	NoResponse	-1	n/a	n/a	2	32	Fixation	Loss	True
313.718	0.15	Lose2	0.6970000000000001	0.003	No	2.629	-0.003	2.0	NoResponse	-1	0.171	312.889	2	32	Target	Loss	True
313.868	0.55	Lose2	0.6970000000000001	n/a	No	2.629	n/a	n/a	NoResponse	-1	n/a	n/a	2	32	Blank	Loss	True
313.889	0.3	Lose2	0.6970000000000001	0.003	No	2.629	-0.003	2.0	NoResponse	-1	0.171	n/a	2	32	ButtonPress	Loss	True
314.42	1.45	Lose2	0.6970000000000001	n/a	No	2.629	n/a	5.0	NoResponse	-1	0.038	313.458	2	32	Feedback	Loss	True
315.874	2.629	Lose2	0.6970000000000001	n/a	No	2.629	n/a	n/a	NoResponse	-1	0.0	n/a	2	32	ISIslide	Loss	True
318.515	0.25	Win2	0.6765000000000001	0.001	No	2.685	0.015	n/a	NoResponse	0	n/a	n/a	2	33	Cue	MissedWin	True
318.766	4.0	Win2	0.6765000000000001	0.0	No	2.685	0.001	n/a	NoResponse	0	n/a	n/a	2	33	Fixation	MissedWin	True
322.761	0.15	Win2	0.6765000000000001	0.004	No	2.685	-0.004	2.0	NoResponse	0	0.171	321.932	2	33	Target	MissedWin	True
322.912	0.55	Win2	0.6765000000000001	n/a	No	2.685	n/a	n/a	NoResponse	0	n/a	n/a	2	33	Blank	MissedWin	True
322.932	0.3	Win2	0.6765000000000001	0.004	No	2.685	-0.004	2.0	NoResponse	0	0.171	n/a	2	33	ButtonPress	MissedWin	True
323.464	1.45	Win2	0.6765000000000001	n/a	No	2.685	n/a	5.0	NoResponse	0	0.019	322.483	2	33	Feedback	MissedWin	True
324.918	2.685	Win2	0.6765000000000001	n/a	No	2.685	n/a	n/a	NoResponse	0	0.0	n/a	2	33	ISIslide	MissedWin	True
327.626	0.25	Lose2	0.6570999999999999	0.0	No	2.624	0.026	n/a	NoResponse	-1	n/a	n/a	1	34	Cue	Loss	False
327.877	4.05	Lose2	0.6570999999999999	0.0	No	2.624	0.001	2.0	NoResponse	-1	3.745	330.622	1	34	Fixation	Loss	False
331.622	0.3	Lose2	0.6570999999999999	0.0	No	2.624	0.001	2.0	NoResponse	-1	3.745	n/a	1	34	ButtonPress	Loss	False
331.922	0.15	Lose2	0.6570999999999999	0.004	No	2.624	-0.004	2.0	NoResponse	-1	0.192	331.114	1	34	Target	Loss	False
332.073	0.55	Lose2	0.6570999999999999	n/a	No	2.624	n/a	n/a	NoResponse	-1	n/a	n/a	1	34	Blank	Loss	False
332.114	0.3	Lose2	0.6570999999999999	0.004	No	2.624	-0.004	2.0	NoResponse	-1	0.192	n/a	1	34	ButtonPress	Loss	False
332.624	1.45	Lose2	0.6570999999999999	n/a	No	2.624	n/a	5.0	NoResponse	-1	0.029	331.653	1	34	Feedback	Loss	False
334.079	2.624	Lose2	0.6570999999999999	n/a	No	2.624	n/a	n/a	NoResponse	-1	0.0	n/a	1	34	ISIslide	Loss	False
336.72	0.25	Lose2	0.6389	0.0	No	2.68	0.02	n/a	NoResponse	-1	n/a	n/a	0	35	Cue	Loss	True
336.971	4.0	Lose2	0.6389	0.0	No	2.68	0.001	n/a	NoResponse	-1	n/a	n/a	0	35	Fixation	Loss	True
340.966	0.15	Lose2	0.6389	0.004	No	2.68	-0.004	2.0	NoResponse	-1	0.182	340.148	0	35	Target	Loss	True
341.116	0.55	Lose2	0.6389	n/a	No	2.68	n/a	n/a	NoResponse	-1	n/a	n/a	0	35	Blank	Loss	True
341.148	0.3	Lose2	0.6389	0.004	No	2.68	-0.004	2.0	NoResponse	-1	0.182	n/a	0	35	ButtonPress	Loss	True
341.668	1.45	Lose2	0.6389	n/a	No	2.68	n/a	5.0	NoResponse	-1	0.009	340.677	0	35	Feedback	Loss	True
343.122	2.68	Lose2	0.6389	n/a	No	2.68	n/a	n/a	NoResponse	-1	0.0	n/a	0	35	ISIslide	Loss	True
345.814	0.25	Control	0.6215999999999999	0.0	No	2.686	0.014	n/a	NoResponse	0	n/a	n/a	0	36	Cue	Neutral	False
346.064	4.0	Control	0.6215999999999999	0.0	No	2.686	0.0	2.0	NoResponse	0	3.808	348.872	0	36	Fixation	Neutral	False
349.872	0.3	Control	0.6215999999999999	0.0	No	2.686	0.0	2.0	NoResponse	0	3.808	n/a	0	36	ButtonPress	Neutral	False
350.06	0.16	Control	0.6215999999999999	0.004	No	2.686	-0.004	2.0	NoResponse	0	0.29	349.35	0	36	Target	Neutral	False
350.227	0.54	Control	0.6215999999999999	n/a	No	2.686	n/a	n/a	NoResponse	0	n/a	n/a	0	36	Blank	Neutral	False
350.35	0.3	Control	0.6215999999999999	0.004	No	2.686	-0.004	2.0	NoResponse	0	0.29	n/a	0	36	ButtonPress	Neutral	False
350.762	1.45	Control	0.6215999999999999	n/a	No	2.686	n/a	5.0	NoResponse	0	0.037	349.799	0	36	Feedback	Neutral	False
352.216	2.686	Control	0.6215999999999999	n/a	No	2.686	n/a	n/a	NoResponse	0	0.0	n/a	0	36	ISIslide	Neutral	False
354.924	0.25	Win2	0.6053000000000001	0.0	No	2.876	0.024	n/a	LatePress	0	n/a	n/a	0	37	Cue	MissedWin	True
355.175	4.0	Win2	0.6053000000000001	0.0	No	2.876	0.001	n/a	LatePress	0	n/a	n/a	0	37	Fixation	MissedWin	True
359.17	0.17	Win2	0.6053000000000001	0.004	No	2.876	-0.004	2.0	LatePress	0	0.179	358.349	0	37	Target	MissedWin	True
359.349	0.3	Win2	0.6053000000000001	0.004	No	2.876	-0.004	2.0	LatePress	0	0.179	n/a	0	37	ButtonPress	MissedWin	True
359.354	0.53	Win2	0.6053000000000001	n/a	No	2.876	n/a	n/a	LatePress	0	n/a	n/a	0	37	Blank	MissedWin	True
359.872	1.45	Win2	0.6053000000000001	n/a	No	2.876	n/a	5.0	LatePress	0	0.001	358.873	0	37	Feedback	MissedWin	True
361.327	2.876	Win2	0.6053000000000001	n/a	No	2.876	n/a	n/a	LatePress	0	0.0	n/a	0	37	ISIslide	MissedWin	True
364.219	0.25	Lose2	0.6154	0.0	Yes	2.831	0.019	n/a	GoodResponse	0	n/a	n/a	0	38	Cue	AvoidedLoss	True
364.469	3.95	Lose2	0.6154	0.0	Yes	2.831	0.0	n/a	GoodResponse	0	n/a	n/a	0	38	Fixation	AvoidedLoss	True
368.414	0.18	Lose2	0.6154	0.005	Yes	2.831	-0.005	2.0	GoodResponse	0	0.165	367.579	0	38	Target	AvoidedLoss	True
368.579	0.3	Lose2	0.6154	0.005	Yes	2.831	-0.005	2.0	GoodResponse	0	0.165	n/a	0	38	ButtonPress	AvoidedLoss	True
368.598	0.52	Lose2	0.6154	n/a	Yes	2.831	n/a	n/a	GoodResponse	0	n/a	n/a	0	38	Blank	AvoidedLoss	True
369.117	1.45	Lose2	0.6154	n/a	Yes	2.831	n/a	5.0	GoodResponse	0	0.023	368.14	0	38	Feedback	AvoidedLoss	True
370.571	2.831	Lose2	0.6154	n/a	Yes	2.831	n/a	n/a	GoodResponse	0	0.0	n/a	0	38	ISIslide	AvoidedLoss	True
373.429	0.25	Win2	0.625	0.001	Yes	2.971	0.029	n/a	GoodResponse	1	n/a	n/a	1	39	Cue	Win	True
373.68	4.1	Win2	0.625	0.0	Yes	2.971	0.001	n/a	GoodResponse	1	n/a	n/a	1	39	Fixation	Win	True
377.776	0.19	Win2	0.625	0.003	Yes	2.971	-0.003	2.0	GoodResponse	1	0.178	376.954	1	39	Target	Win	True
377.954	0.3	Win2	0.625	0.003	Yes	2.971	-0.003	2.0	GoodResponse	1	0.178	n/a	1	39	ButtonPress	Win	True
377.976	0.51	Win2	0.625	n/a	Yes	2.971	n/a	n/a	GoodResponse	1	n/a	n/a	1	39	Blank	Win	True
378.478	1.45	Win2	0.625	n/a	Yes	2.971	n/a	5.0	GoodResponse	1	0.028	377.506	1	39	Feedback	Win	True
379.932	2.971	Win2	0.625	n/a	Yes	2.971	n/a	n/a	GoodResponse	1	0.0	n/a	1	39	ISIslide	Win	True
382.924	0.25	Win2	0.6341	0.001	Yes	2.726	0.024	n/a	GoodResponse	1	n/a	n/a	2	40	Cue	Win	True
383.175	3.95	Win2	0.6341	0.0	Yes	2.726	0.001	n/a	GoodResponse	1	n/a	n/a	2	40	Fixation	Win	True
387.12	0.2	Win2	0.6341	0.004	Yes	2.726	-0.004	2.0	GoodResponse	1	0.179	386.299	2	40	Target	Win	True
387.299	0.3	Win2	0.6341	0.004	Yes	2.726	-0.004	2.0	GoodResponse	1	0.179	n/a	2	40	ButtonPress	Win	True
387.321	0.5	Win2	0.6341	n/a	Yes	2.726	n/a	n/a	GoodResponse	1	n/a	n/a	2	40	Blank	Win	True
387.822	1.45	Win2	0.6341	n/a	Yes	2.726	n/a	5.0	GoodResponse	1	0.001	386.823	2	40	Feedback	Win	True
389.277	2.726	Win2	0.6341	n/a	Yes	2.726	n/a	n/a	GoodResponse	1	0.0	n/a	2	40	ISIslide	Win	True
392.018	0.25	Win2	0.6429	0.0	Yes	2.782	0.018	n/a	GoodResponse	1	n/a	n/a	3	41	Cue	Win	True
392.269	3.9	Win2	0.6429	0.0	Yes	2.782	0.001	n/a	GoodResponse	1	n/a	n/a	3	41	Fixation	Win	True
396.164	0.21	Win2	0.6429	0.004	Yes	2.782	-0.004	2.0	GoodResponse	1	0.177	395.341	3	41	Target	Win	True
396.341	0.3	Win2	0.6429	0.004	Yes	2.782	-0.004	2.0	GoodResponse	1	0.177	n/a	3	41	ButtonPress	Win	True
396.381	0.49	Win2	0.6429	n/a	Yes	2.782	n/a	n/a	GoodResponse	1	n/a	n/a	3	41	Blank	Win	True
396.866	1.45	Win2	0.6429	n/a	Yes	2.782	n/a	5.0	GoodResponse	1	0.03	395.896	3	41	Feedback	Win	True
398.32	2.782	Win2	0.6429	n/a	Yes	2.782	n/a	n/a	GoodResponse	1	0.0	n/a	3	41	ISIslide	Win	True
401.129	0.25	Control	0.6512	0.0	Yes	2.921	0.029	n/a	GoodResponse	0	n/a	n/a	3	42	Cue	Neutral	True
401.38	3.85	Control	0.6512	0.0	Yes	2.921	0.001	n/a	GoodResponse	0	n/a	n/a	3	42	Fixation	Neutral	True
405.241	0.22	Control	0.6512	0.0	Yes	2.921	0.012	2.0	GoodResponse	0	0.179	404.42	3	42	Target	Neutral	True
405.42	0.3	Control	0.6512	0.0	Yes	2.921	0.012	2.0	GoodResponse	0	0.179	n/a	3	42	ButtonPress	Neutral	True
405.458	0.48	Control	0.6512	n/a	Yes	2.921	n/a	n/a	GoodResponse	0	n/a	n/a	3	42	Blank	Neutral	True
405.927	1.45	Control	0.6512	n/a	Yes	2.921	n/a	5.0	GoodResponse	0	0.042	404.969	3	42	Feedback	Neutral	True
407.381	2.921	Control	0.6512	n/a	Yes	2.921	n/a	n/a	GoodResponse	0	0.0	n/a	3	42	ISIslide	Neutral	True
410.323	0.25	Win2	0.6591	0.0	Yes	3.177	0.023	n/a	GoodResponse	1	n/a	n/a	4	43	Cue	Win	True
410.574	4.0	Win2	0.6591	0.0	Yes	3.177	0.001	n/a	GoodResponse	1	n/a	n/a	4	43	Fixation	Win	True
414.569	0.23	Win2	0.6591	0.004	Yes	3.177	-0.004	2.0	GoodResponse	1	0.186	413.755	4	43	Target	Win	True
414.755	0.3	Win2	0.6591	0.004	Yes	3.177	-0.004	2.0	GoodResponse	1	0.186	n/a	4	43	ButtonPress	Win	True
414.803	0.47	Win2	0.6591	n/a	Yes	3.177	n/a	n/a	GoodResponse	1	n/a	n/a	4	43	Blank	Win	True
415.271	1.45	Win2	0.6591	n/a	Yes	3.177	n/a	5.0	GoodResponse	1	0.015	414.286	4	43	Feedback	Win	True
416.725	3.177	Win2	0.6591	n/a	Yes	3.177	n/a	n/a	GoodResponse	1	0.0	n/a	4	43	ISIslide	Win	True
419.918	0.25	Win2	0.6667000000000001	0.0	Yes	2.982	0.018	n/a	GoodResponse	1	n/a	n/a	5	44	Cue	Win	True
420.169	4.0	Win2	0.6667000000000001	0.0	Yes	2.982	0.001	n/a	GoodResponse	1	n/a	n/a	5	44	Fixation	Win	True
424.164	0.23	Win2	0.6667000000000001	0.004	Yes	2.982	-0.004	2.0	GoodResponse	1	0.169	423.333	5	44	Target	Win	True
424.333	0.3	Win2	0.6667000000000001	0.004	Yes	2.982	-0.004	2.0	GoodResponse	1	0.169	n/a	5	44	ButtonPress	Win	True
424.398	0.47	Win2	0.6667000000000001	n/a	Yes	2.982	n/a	n/a	GoodResponse	1	n/a	n/a	5	44	Blank	Win	True
424.866	1.45	Win2	0.6667000000000001	n/a	Yes	2.982	n/a	5.0	GoodResponse	1	0.03	423.896	5	44	Feedback	Win	True
426.321	2.982	Win2	0.6667000000000001	n/a	Yes	2.982	n/a	n/a	GoodResponse	1	0.0	n/a	5	44	ISIslide	Win	True
429.313	0.25	Control	0.6739	0.0	Yes	2.887	0.013	n/a	GoodResponse	0	n/a	n/a	5	45	Cue	Neutral	True
429.564	4.1	Control	0.6739	0.0	Yes	2.887	0.001	n/a	GoodResponse	0	n/a	n/a	5	45	Fixation	Neutral	True
433.659	0.22	Control	0.6739	0.004	Yes	2.887	-0.004	2.0	GoodResponse	0	0.173	432.832	5	45	Target	Neutral	True
433.832	0.3	Control	0.6739	0.004	Yes	2.887	-0.004	2.0	GoodResponse	0	0.173	n/a	5	45	ButtonPress	Neutral	True
433.893	0.48	Control	0.6739	n/a	Yes	2.887	n/a	n/a	GoodResponse	0	n/a	n/a	5	45	Blank	Neutral	True
434.361	1.45	Control	0.6739	n/a	Yes	2.887	n/a	5.0	GoodResponse	0	0.047	433.408	5	45	Feedback	Neutral	True
435.816	2.887	Control	0.6739	n/a	Yes	2.887	n/a	n/a	GoodResponse	0	0.0	n/a	5	45	ISIslide	Neutral	True
438.724	0.25	Lose2	0.6809000000000001	0.001	Yes	3.376	0.024	n/a	GoodResponse	0	n/a	n/a	5	46	Cue	AvoidedLoss	True
438.975	4.0	Lose2	0.6809000000000001	0.0	Yes	3.376	0.001	n/a	GoodResponse	0	n/a	n/a	5	46	Fixation	AvoidedLoss	True
442.97	0.21	Lose2	0.6809000000000001	0.004	Yes	3.376	-0.004	2.0	GoodResponse	0	0.163	442.133	5	46	Target	AvoidedLoss	True
443.133	0.3	Lose2	0.6809000000000001	0.004	Yes	3.376	-0.004	2.0	GoodResponse	0	0.163	n/a	5	46	ButtonPress	AvoidedLoss	True
443.188	0.49	Lose2	0.6809000000000001	n/a	Yes	3.376	n/a	n/a	GoodResponse	0	n/a	n/a	5	46	Blank	AvoidedLoss	True
443.673	1.45	Lose2	0.6809000000000001	n/a	Yes	3.376	n/a	5.0	GoodResponse	0	0.004	442.677	5	46	Feedback	AvoidedLoss	True
445.127	3.376	Lose2	0.6809000000000001	n/a	Yes	3.376	n/a	n/a	GoodResponse	0	0.0	n/a	5	46	ISIslide	AvoidedLoss	True
448.52	0.25	Lose2	0.6875	0.0	Yes	2.68	0.02	n/a	GoodResponse	0	n/a	n/a	5	47	Cue	AvoidedLoss	True
448.771	4.0	Lose2	0.6875	0.0	Yes	2.68	0.001	n/a	GoodResponse	0	n/a	n/a	5	47	Fixation	AvoidedLoss	True
452.766	0.2	Lose2	0.6875	0.004	Yes	2.68	-0.004	2.0	GoodResponse	0	0.177	451.943	5	47	Target	AvoidedLoss	True
452.943	0.3	Lose2	0.6875	0.004	Yes	2.68	-0.004	2.0	GoodResponse	0	0.177	n/a	5	47	ButtonPress	AvoidedLoss	True
452.967	0.5	Lose2	0.6875	n/a	Yes	2.68	n/a	n/a	GoodResponse	0	n/a	n/a	5	47	Blank	AvoidedLoss	True
453.468	1.45	Lose2	0.6875	n/a	Yes	2.68	n/a	5.0	GoodResponse	0	0.012	452.48	5	47	Feedback	AvoidedLoss	True
454.923	2.68	Lose2	0.6875	n/a	Yes	2.68	n/a	n/a	GoodResponse	0	0.0	n/a	5	47	ISIslide	AvoidedLoss	True
457.614	0.25	Lose2	0.6939	0.0	Yes	3.036	0.014	n/a	GoodResponse	0	n/a	n/a	5	48	Cue	AvoidedLoss	True
457.865	3.95	Lose2	0.6939	0.0	Yes	3.036	0.001	n/a	GoodResponse	0	n/a	n/a	5	48	Fixation	AvoidedLoss	True
461.81	0.19	Lose2	0.6939	0.004	Yes	3.036	-0.004	2.0	GoodResponse	0	0.176	460.986	5	48	Target	AvoidedLoss	True
461.986	0.3	Lose2	0.6939	0.004	Yes	3.036	-0.004	2.0	GoodResponse	0	0.176	n/a	5	48	ButtonPress	AvoidedLoss	True
462.011	0.51	Lose2	0.6939	n/a	Yes	3.036	n/a	n/a	GoodResponse	0	n/a	n/a	5	48	Blank	AvoidedLoss	True
462.512	1.45	Lose2	0.6939	n/a	Yes	3.036	n/a	5.0	GoodResponse	0	0.042	461.554	5	48	Feedback	AvoidedLoss	True
463.967	3.036	Lose2	0.6939	n/a	Yes	3.036	n/a	n/a	GoodResponse	0	0.0	n/a	5	48	ISIslide	AvoidedLoss	True
467.026	0.25	Control	0.68	0.0	No	2.874	0.026	n/a	NoResponse	0	n/a	n/a	5	49	Cue	Neutral	True
467.276	4.0	Control	0.68	0.0	No	2.874	0.0	n/a	NoResponse	0	n/a	n/a	5	49	Fixation	Neutral	True
471.272	0.18	Control	0.68	0.004	No	2.874	-0.004	2.0	NoResponse	0	0.185	470.457	5	49	Target	Neutral	True
471.456	0.52	Control	0.68	n/a	No	2.874	n/a	n/a	NoResponse	0	n/a	n/a	5	49	Blank	Neutral	True
471.457	0.3	Control	0.68	0.004	No	2.874	-0.004	2.0	NoResponse	0	0.185	n/a	5	49	ButtonPress	Neutral	True
471.974	1.45	Control	0.68	n/a	No	2.874	n/a	5.0	NoResponse	0	0.043	471.017	5	49	Feedback	Neutral	True
473.428	2.874	Control	0.68	n/a	No	2.874	n/a	n/a	NoResponse	0	0.0	n/a	5	49	ISIslide	Neutral	True
476.32	0.25	Control	0.6667000000000001	0.0	No	2.78	0.02	n/a	NoResponse	0	n/a	n/a	5	50	Cue	Neutral	True
476.571	4.0	Control	0.6667000000000001	0.0	No	2.78	0.001	n/a	NoResponse	0	n/a	n/a	5	50	Fixation	Neutral	True
480.566	0.17	Control	0.6667000000000001	0.004	No	2.78	-0.004	2.0	NoResponse	0	0.199	479.765	5	50	Target	Neutral	True
480.75	0.53	Control	0.6667000000000001	n/a	No	2.78	n/a	n/a	NoResponse	0	n/a	n/a	5	50	Blank	Neutral	True
480.765	0.3	Control	0.6667000000000001	0.004	No	2.78	-0.004	2.0	NoResponse	0	0.199	n/a	5	50	ButtonPress	Neutral	True
481.268	1.45	Control	0.6667000000000001	n/a	No	2.78	n/a	5.0	NoResponse	0	0.017	480.285	5	50	Feedback	Neutral	True
482.723	2.78	Control	0.6667000000000001	n/a	No	2.78	n/a	n/a	NoResponse	0	0.0	n/a	5	50	ISIslide	Neutral	True
485.514	0.25	Control	0.6537999999999999	0.0	No	2.736	0.014	n/a	NoResponse	0	n/a	n/a	5	51	Cue	Neutral	True
485.765	3.95	Control	0.6537999999999999	0.0	No	2.736	0.001	n/a	NoResponse	0	n/a	n/a	5	51	Fixation	Neutral	True
489.71	0.16	Control	0.6537999999999999	0.004	No	2.736	-0.004	2.0	NoResponse	0	0.173	488.883	5	51	Target	Neutral	True
489.877	0.54	Control	0.6537999999999999	n/a	No	2.736	n/a	n/a	NoResponse	0	n/a	n/a	5	51	Blank	Neutral	True
489.883	0.3	Control	0.6537999999999999	0.004	No	2.736	-0.004	2.0	NoResponse	0	0.173	n/a	5	51	ButtonPress	Neutral	True
490.412	1.45	Control	0.6537999999999999	n/a	No	2.736	n/a	5.0	NoResponse	0	0.043	489.455	5	51	Feedback	Neutral	True
491.866	2.736	Control	0.6537999999999999	n/a	No	2.736	n/a	n/a	NoResponse	0	0.0	n/a	5	51	ISIslide	Neutral	True
494.625	0.25	Control	0.6415000000000001	0.0	No	2.625	0.025	n/a	NoResponse	0	n/a	n/a	5	52	Cue	Neutral	True
494.875	4.05	Control	0.6415000000000001	0.001	No	2.625	0.0	n/a	NoResponse	0	n/a	n/a	5	52	Fixation	Neutral	True
498.921	0.17	Control	0.6415000000000001	0.004	No	2.625	-0.004	2.0	NoResponse	0	0.185	498.106	5	52	Target	Neutral	True
499.105	0.53	Control	0.6415000000000001	n/a	No	2.625	n/a	n/a	NoResponse	0	n/a	n/a	5	52	Blank	Neutral	True
499.106	0.3	Control	0.6415000000000001	0.004	No	2.625	-0.004	2.0	NoResponse	0	0.185	n/a	5	52	ButtonPress	Neutral	True
499.623	1.45	Control	0.6415000000000001	n/a	No	2.625	n/a	5.0	NoResponse	0	0.005	498.628	5	52	Feedback	Neutral	True
501.077	2.625	Control	0.6415000000000001	n/a	No	2.625	n/a	n/a	NoResponse	0	0.0	n/a	5	52	ISIslide	Neutral	True
503.719	0.25	Win2	0.6481	0.0	Yes	2.931	0.019	n/a	GoodResponse	1	n/a	n/a	6	53	Cue	Win	True
503.969	4.05	Win2	0.6481	0.0	Yes	2.931	0.0	n/a	GoodResponse	1	n/a	n/a	6	53	Fixation	Win	True
508.015	0.18	Win2	0.6481	0.004	Yes	2.931	-0.004	2.0	GoodResponse	1	0.161	507.176	6	53	Target	Win	True
508.176	0.3	Win2	0.6481	0.004	Yes	2.931	-0.004	2.0	GoodResponse	1	0.161	n/a	6	53	ButtonPress	Win	True
508.199	0.52	Win2	0.6481	n/a	Yes	2.931	n/a	n/a	GoodResponse	1	n/a	n/a	6	53	Blank	Win	True
508.717	1.45	Win2	0.6481	n/a	Yes	2.931	n/a	5.0	GoodResponse	1	0.031	507.748	6	53	Feedback	Win	True
510.171	2.931	Win2	0.6481	n/a	Yes	2.931	n/a	n/a	GoodResponse	1	0.0	n/a	6	53	ISIslide	Win	True
513.113	0.25	Win2	0.6364	0.0	No	2.737	0.013	n/a	NoResponse	0	n/a	n/a	6	54	Cue	MissedWin	True
513.364	3.95	Win2	0.6364	0.0	No	2.737	0.001	n/a	NoResponse	0	n/a	n/a	6	54	Fixation	MissedWin	True
517.309	0.19	Win2	0.6364	0.004	No	2.737	-0.004	2.0	NoResponse	0	0.206	516.515	6	54	Target	MissedWin	True
517.51	0.51	Win2	0.6364	n/a	No	2.737	n/a	n/a	NoResponse	0	n/a	n/a	6	54	Blank	MissedWin	True
517.515	0.3	Win2	0.6364	0.004	No	2.737	-0.004	2.0	NoResponse	0	0.206	n/a	6	54	ButtonPress	MissedWin	True
518.011	1.45	Win2	0.6364	n/a	No	2.737	n/a	5.0	NoResponse	0	0.005	517.016	6	54	Feedback	MissedWin	True
519.466	2.737	Win2	0.6364	n/a	No	2.737	n/a	n/a	NoResponse	0	0.0	n/a	6	54	ISIslide	MissedWin	True
522.224	0.25	Control	0.625	0.0	No	3.026	0.024	n/a	NoResponse	0	n/a	n/a	6	55	Cue	Neutral	False
522.475	3.95	Control	0.625	0.0	No	3.026	0.001	n/a	NoResponse	0	n/a	n/a	6	55	Fixation	Neutral	False
526.42	0.2	Control	0.625	0.004	No	3.026	-0.004	n/a	NoResponse	0	n/a	n/a	6	55	Target	Neutral	False
526.62	0.5	Control	0.625	n/a	No	3.026	n/a	n/a	NoResponse	0	n/a	n/a	6	55	Blank	Neutral	False
527.122	1.45	Control	0.625	n/a	No	3.026	n/a	5.0	NoResponse	0	0.016	526.138	6	55	Feedback	Neutral	False
528.576	3.026	Control	0.625	n/a	No	3.026	n/a	n/a	NoResponse	0	0.0	n/a	6	55	ISIslide	Neutral	False
531.619	0.25	Control	0.6315999999999999	0.0	Yes	2.831	0.019	n/a	GoodResponse	0	n/a	n/a	6	56	Cue	Neutral	True
531.869	3.95	Control	0.6315999999999999	0.0	Yes	2.831	0.0	n/a	GoodResponse	0	n/a	n/a	6	56	Fixation	Neutral	True
535.831	0.21	Control	0.6315999999999999	0.0	Yes	2.831	0.012	2.0	GoodResponse	0	0.169	535.0	6	56	Target	Neutral	True
536	0.3	Control	0.6315999999999999	0.0	Yes	2.831	0.012	2.0	GoodResponse	0	0.169	n/a	6	56	ButtonPress	Neutral	True
536.032	0.49	Control	0.6315999999999999	n/a	Yes	2.831	n/a	n/a	GoodResponse	0	n/a	n/a	6	56	Blank	Neutral	True
536.517	1.45	Control	0.6315999999999999	n/a	Yes	2.831	n/a	5.0	GoodResponse	0	0.035	535.552	6	56	Feedback	Neutral	True
537.971	2.831	Control	0.6315999999999999	n/a	Yes	2.831	n/a	n/a	GoodResponse	0	0.0	n/a	6	56	ISIslide	Neutral	True
540.813	0.25	Control	0.6379	0.0	Yes	3.487	0.013	n/a	GoodResponse	0	n/a	n/a	6	57	Cue	Neutral	True
541.063	4.0	Control	0.6379	0.001	Yes	3.487	0.0	n/a	GoodResponse	0	n/a	n/a	6	57	Fixation	Neutral	True
545.059	0.22	Control	0.6379	0.004	Yes	3.487	-0.004	2.0	GoodResponse	0	0.181	544.24	6	57	Target	Neutral	True
545.24	0.3	Control	0.6379	0.004	Yes	3.487	-0.004	2.0	GoodResponse	0	0.181	n/a	6	57	ButtonPress	Neutral	True
545.293	0.48	Control	0.6379	n/a	Yes	3.487	n/a	n/a	GoodResponse	0	n/a	n/a	6	57	Blank	Neutral	True
545.761	1.45	Control	0.6379	n/a	Yes	3.487	n/a	5.0	GoodResponse	0	0.011	544.772	6	57	Feedback	Neutral	True
547.215	3.487	Control	0.6379	n/a	Yes	3.487	n/a	n/a	GoodResponse	0	0.0	n/a	6	57	ISIslide	Neutral	True
550.726	0.25	Win2	0.6441	0.0	Yes	2.724	0.026	n/a	GoodResponse	1	n/a	n/a	7	58	Cue	Win	True
550.976	4.05	Win2	0.6441	0.0	Yes	2.724	0.0	n/a	GoodResponse	1	n/a	n/a	7	58	Fixation	Win	True
555.022	0.23	Win2	0.6441	0.004	Yes	2.724	-0.004	2.0	GoodResponse	1	0.182	554.204	7	58	Target	Win	True
555.204	0.3	Win2	0.6441	0.004	Yes	2.724	-0.004	2.0	GoodResponse	1	0.182	n/a	7	58	ButtonPress	Win	True
555.256	0.47	Win2	0.6441	n/a	Yes	2.724	n/a	n/a	GoodResponse	1	n/a	n/a	7	58	Blank	Win	True
555.724	1.45	Win2	0.6441	n/a	Yes	2.724	n/a	5.0	GoodResponse	1	0.047	554.771	7	58	Feedback	Win	True
557.178	2.724	Win2	0.6441	n/a	Yes	2.724	n/a	n/a	GoodResponse	1	0.0	n/a	7	58	ISIslide	Win	True
559.92	0.25	Lose2	0.65	0.0	Yes	2.68	0.02	n/a	GoodResponse	0	n/a	n/a	7	59	Cue	AvoidedLoss	True
560.17	4.0	Lose2	0.65	0.001	Yes	2.68	0.0	n/a	GoodResponse	0	n/a	n/a	7	59	Fixation	AvoidedLoss	True
564.166	0.24	Lose2	0.65	0.004	Yes	2.68	-0.004	2.0	GoodResponse	0	0.172	563.338	7	59	Target	AvoidedLoss	True
564.338	0.3	Lose2	0.65	0.004	Yes	2.68	-0.004	2.0	GoodResponse	0	0.172	n/a	7	59	ButtonPress	AvoidedLoss	True
564.417	0.46	Lose2	0.65	n/a	Yes	2.68	n/a	n/a	GoodResponse	0	n/a	n/a	7	59	Blank	AvoidedLoss	True
564.868	1.45	Lose2	0.65	n/a	Yes	2.68	n/a	5.0	GoodResponse	0	0.025	563.893	7	59	Feedback	AvoidedLoss	True
566.322	2.68	Lose2	0.65	n/a	Yes	2.68	n/a	n/a	GoodResponse	0	0.0	n/a	7	59	ISIslide	AvoidedLoss	True
569.014	0.25	Control	0.6557	0.0	Yes	2.686	0.014	n/a	GoodResponse	0	n/a	n/a	7	60	Cue	Neutral	True
569.264	4.0	Control	0.6557	0.0	Yes	2.686	0.0	n/a	GoodResponse	0	n/a	n/a	7	60	Fixation	Neutral	True
573.26	0.25	Control	0.6557	0.004	Yes	2.686	-0.004	2.0	GoodResponse	0	0.201	572.461	7	60	Target	Neutral	True
573.461	0.3	Control	0.6557	0.004	Yes	2.686	-0.004	2.0	GoodResponse	0	0.201	n/a	7	60	ButtonPress	Neutral	True
573.51	0.45	Control	0.6557	n/a	Yes	2.686	n/a	n/a	GoodResponse	0	n/a	n/a	7	60	Blank	Neutral	True
573.962	1.45	Control	0.6557	n/a	Yes	2.686	n/a	5.0	GoodResponse	0	0.005	572.967	7	60	Feedback	Neutral	True
575.416	2.686	Control	0.6557	n/a	Yes	2.686	n/a	n/a	GoodResponse	0	0.0	n/a	7	60	ISIslide	Neutral	True
578.124	0.25	Lose2	0.6613	0.0	Yes	2.976	0.024	n/a	GoodResponse	0	n/a	n/a	7	61	Cue	AvoidedLoss	True
578.375	4.0	Lose2	0.6613	0.0	Yes	2.976	0.001	n/a	GoodResponse	0	n/a	n/a	7	61	Fixation	AvoidedLoss	True
582.37	0.25	Lose2	0.6613	0.004	Yes	2.976	-0.004	2.0	GoodResponse	0	0.178	581.548	7	61	Target	AvoidedLoss	True
582.548	0.3	Lose2	0.6613	0.004	Yes	2.976	-0.004	2.0	GoodResponse	0	0.178	n/a	7	61	ButtonPress	AvoidedLoss	True
582.621	0.45	Lose2	0.6613	n/a	Yes	2.976	n/a	n/a	GoodResponse	0	n/a	n/a	7	61	Blank	AvoidedLoss	True
583.072	1.45	Lose2	0.6613	n/a	Yes	2.976	n/a	5.0	GoodResponse	0	0.017	582.089	7	61	Feedback	AvoidedLoss	True
584.527	2.976	Lose2	0.6613	n/a	Yes	2.976	n/a	n/a	GoodResponse	0	0.0	n/a	7	61	ISIslide	AvoidedLoss	True
587.519	0.25	Lose2	0.6667000000000001	0.0	Yes	2.881	0.019	n/a	GoodResponse	0	n/a	n/a	7	62	Cue	AvoidedLoss	True
587.77	3.9	Lose2	0.6667000000000001	0.0	Yes	2.881	0.001	n/a	GoodResponse	0	n/a	n/a	7	62	Fixation	AvoidedLoss	True
591.665	0.25	Lose2	0.6667000000000001	0.004	Yes	2.881	-0.004	2.0	GoodResponse	0	0.17	590.835	7	62	Target	AvoidedLoss	True
591.835	0.3	Lose2	0.6667000000000001	0.004	Yes	2.881	-0.004	2.0	GoodResponse	0	0.17	n/a	7	62	ButtonPress	AvoidedLoss	True
591.915	0.45	Lose2	0.6667000000000001	n/a	Yes	2.881	n/a	n/a	GoodResponse	0	n/a	n/a	7	62	Blank	AvoidedLoss	True
592.367	1.45	Lose2	0.6667000000000001	n/a	Yes	2.881	n/a	5.0	GoodResponse	0	0.038	591.405	7	62	Feedback	AvoidedLoss	True
593.821	2.881	Lose2	0.6667000000000001	n/a	Yes	2.881	n/a	n/a	GoodResponse	0	0.0	n/a	7	62	ISIslide	AvoidedLoss	True
596.73	0.25	Lose2	0.6718999999999999	0.0	Yes	2.62	0.03	n/a	GoodResponse	0	n/a	n/a	7	63	Cue	AvoidedLoss	True
596.98	4.05	Lose2	0.6718999999999999	0.0	Yes	2.62	0.0	n/a	GoodResponse	0	n/a	n/a	7	63	Fixation	AvoidedLoss	True
601.026	0.24	Lose2	0.6718999999999999	0.004	Yes	2.62	-0.004	2.0	GoodResponse	0	0.164	600.19	7	63	Target	AvoidedLoss	True
601.19	0.3	Lose2	0.6718999999999999	0.004	Yes	2.62	-0.004	2.0	GoodResponse	0	0.164	n/a	7	63	ButtonPress	AvoidedLoss	True
601.277	0.46	Lose2	0.6718999999999999	n/a	Yes	2.62	n/a	n/a	GoodResponse	0	n/a	n/a	7	63	Blank	AvoidedLoss	True
601.728	1.45	Lose2	0.6718999999999999	n/a	Yes	2.62	n/a	5.0	GoodResponse	0	0.043	600.771	7	63	Feedback	AvoidedLoss	True
603.182	2.62	Lose2	0.6718999999999999	n/a	Yes	2.62	n/a	n/a	GoodResponse	0	0.0	n/a	7	63	ISIslide	AvoidedLoss	True
605.823	0.25	Win2	0.6769	0.001	Yes	3.127	0.023	n/a	GoodResponse	1	n/a	n/a	8	64	Cue	Win	True
606.074	4.15	Win2	0.6769	0.0	Yes	3.127	0.001	n/a	GoodResponse	1	n/a	n/a	8	64	Fixation	Win	True
610.22	0.23	Win2	0.6769	0.003	Yes	3.127	-0.003	2.0	GoodResponse	1	0.181	609.401	8	64	Target	Win	True
610.401	0.3	Win2	0.6769	0.003	Yes	3.127	-0.003	2.0	GoodResponse	1	0.181	n/a	8	64	ButtonPress	Win	True
610.454	0.47	Win2	0.6769	n/a	Yes	3.127	n/a	n/a	GoodResponse	1	n/a	n/a	8	64	Blank	Win	True
610.922	1.45	Win2	0.6769	n/a	Yes	3.127	n/a	5.0	GoodResponse	1	0.02	609.942	8	64	Feedback	Win	True
612.376	3.127	Win2	0.6769	n/a	Yes	3.127	n/a	n/a	GoodResponse	1	0.0	n/a	8	64	ISIslide	Win	True
615.519	0.25	Control	0.6818000000000001	0.0	Yes	2.781	0.019	n/a	GoodResponse	0	n/a	n/a	8	65	Cue	Neutral	True
615.77	4.0	Control	0.6818000000000001	0.0	Yes	2.781	0.001	n/a	GoodResponse	0	n/a	n/a	8	65	Fixation	Neutral	True
619.765	0.22	Control	0.6818000000000001	0.004	Yes	2.781	-0.004	2.0	GoodResponse	0	0.167	618.932	8	65	Target	Neutral	True
619.932	0.3	Control	0.6818000000000001	0.004	Yes	2.781	-0.004	2.0	GoodResponse	0	0.167	n/a	8	65	ButtonPress	Neutral	True
619.999	0.48	Control	0.6818000000000001	n/a	Yes	2.781	n/a	n/a	GoodResponse	0	n/a	n/a	8	65	Blank	Neutral	True
620.467	1.45	Control	0.6818000000000001	n/a	Yes	2.781	n/a	5.0	GoodResponse	0	0.036	619.503	8	65	Feedback	Neutral	True
621.922	2.781	Control	0.6818000000000001	n/a	Yes	2.781	n/a	n/a	GoodResponse	0	0.0	n/a	8	65	ISIslide	Neutral	True
624.713	0.25	Win2	0.6866	0.0	Yes	2.787	0.013	2.0	GoodResponse	1	0.191	623.904	9	66	Cue	Win	False
624.904	0.3	Win2	0.6866	0.0	Yes	2.787	0.013	2.0	GoodResponse	1	0.191	n/a	9	66	ButtonPress	Win	False
624.964	3.9	Win2	0.6866	0.0	Yes	2.787	0.001	n/a	GoodResponse	1	n/a	n/a	9	66	Fixation	Win	False
628.859	0.21	Win2	0.6866	0.004	Yes	2.787	-0.004	2.0	GoodResponse	1	0.17	628.029	9	66	Target	Win	False
629.029	0.3	Win2	0.6866	0.004	Yes	2.787	-0.004	2.0	GoodResponse	1	0.17	n/a	9	66	ButtonPress	Win	False
629.076	0.49	Win2	0.6866	n/a	Yes	2.787	n/a	n/a	GoodResponse	1	n/a	n/a	9	66	Blank	Win	False
629.561	1.45	Win2	0.6866	n/a	Yes	2.787	n/a	5.0	GoodResponse	1	0.014	628.575	9	66	Feedback	Win	False
631.015	2.787	Win2	0.6866	n/a	Yes	2.787	n/a	n/a	GoodResponse	1	0.0	n/a	9	66	ISIslide	Win	False
633.824	0.25	Control	0.6912	0.0	Yes	2.726	0.024	n/a	GoodResponse	0	n/a	n/a	9	67	Cue	Neutral	True
634.075	3.95	Control	0.6912	0.0	Yes	2.726	0.001	n/a	GoodResponse	0	n/a	n/a	9	67	Fixation	Neutral	True
638.02	0.2	Control	0.6912	0.004	Yes	2.726	-0.004	2.0	GoodResponse	0	0.17	637.19	9	67	Target	Neutral	True
638.19	0.3	Control	0.6912	0.004	Yes	2.726	-0.004	2.0	GoodResponse	0	0.17	n/a	9	67	ButtonPress	Neutral	True
638.22	0.5	Control	0.6912	n/a	Yes	2.726	n/a	n/a	GoodResponse	0	n/a	n/a	9	67	Blank	Neutral	True
638.722	1.45	Control	0.6912	n/a	Yes	2.726	n/a	5.0	GoodResponse	0	0.024	637.746	9	67	Feedback	Neutral	True
640.176	2.726	Control	0.6912	n/a	Yes	2.726	n/a	n/a	GoodResponse	0	0.0	n/a	9	67	ISIslide	Neutral	True
642.918	0.25	Win2	0.6957	0.0	Yes	3.082	0.018	n/a	GoodResponse	1	n/a	n/a	10	68	Cue	Win	True
643.168	4.0	Win2	0.6957	0.0	Yes	3.082	0.0	n/a	GoodResponse	1	n/a	n/a	10	68	Fixation	Win	True
647.164	0.19	Win2	0.6957	0.004	Yes	3.082	-0.004	2.0	GoodResponse	1	0.188	646.352	10	68	Target	Win	True
647.352	0.3	Win2	0.6957	0.004	Yes	3.082	-0.004	2.0	GoodResponse	1	0.188	n/a	10	68	ButtonPress	Win	True
647.364	0.51	Win2	0.6957	n/a	Yes	3.082	n/a	n/a	GoodResponse	1	n/a	n/a	10	68	Blank	Win	True
647.866	1.45	Win2	0.6957	n/a	Yes	3.082	n/a	5.0	GoodResponse	1	0.002	646.868	10	68	Feedback	Win	True
649.32	3.082	Win2	0.6957	n/a	Yes	3.082	n/a	n/a	GoodResponse	1	0.0	n/a	10	68	ISIslide	Win	True
652.429	0.25	Win2	0.6857	0.0	No	3.221	0.029	n/a	NoResponse	0	n/a	n/a	10	69	Cue	MissedWin	True
652.68	3.95	Win2	0.6857	0.0	No	3.221	0.001	n/a	NoResponse	0	n/a	n/a	10	69	Fixation	MissedWin	True
656.625	0.18	Win2	0.6857	0.004	No	3.221	-0.004	2.0	NoResponse	0	0.217	655.842	10	69	Target	MissedWin	True
656.809	0.52	Win2	0.6857	n/a	No	3.221	n/a	n/a	NoResponse	0	n/a	n/a	10	69	Blank	MissedWin	True
656.842	0.3	Win2	0.6857	0.004	No	3.221	-0.004	2.0	NoResponse	0	0.217	n/a	10	69	ButtonPress	MissedWin	True
657.327	1.45	Win2	0.6857	n/a	No	3.221	n/a	5.0	NoResponse	0	0.005	656.332	10	69	Feedback	MissedWin	True
658.782	3.221	Win2	0.6857	n/a	No	3.221	n/a	n/a	NoResponse	0	0.0	n/a	10	69	ISIslide	MissedWin	True
662.025	0.25	Lose2	0.6761	0.0	No	3.025	0.025	n/a	LatePress	-1	n/a	n/a	9	70	Cue	Loss	True
662.275	4.05	Lose2	0.6761	0.0	No	3.025	0.0	n/a	LatePress	-1	n/a	n/a	9	70	Fixation	Loss	True
666.321	0.17	Lose2	0.6761	0.004	No	3.025	-0.004	2.0	LatePress	-1	0.182	665.503	9	70	Target	Loss	True
666.503	0.3	Lose2	0.6761	0.004	No	3.025	-0.004	2.0	LatePress	-1	0.182	n/a	9	70	ButtonPress	Loss	True
666.505	0.53	Lose2	0.6761	n/a	No	3.025	n/a	n/a	LatePress	-1	n/a	n/a	9	70	Blank	Loss	True
667.023	1.45	Lose2	0.6761	n/a	No	3.025	n/a	5.0	LatePress	-1	0.015	666.038	9	70	Feedback	Loss	True
668.477	3.025	Lose2	0.6761	n/a	No	3.025	n/a	n/a	LatePress	-1	0.0	n/a	9	70	ISIslide	Loss	True
671.52	0.25	Win2	0.6667000000000001	0.0	No	2.73	0.02	n/a	NoResponse	0	n/a	n/a	9	71	Cue	MissedWin	True
671.77	4.05	Win2	0.6667000000000001	0.001	No	2.73	0.0	n/a	NoResponse	0	n/a	n/a	9	71	Fixation	MissedWin	True
675.816	0.16	Win2	0.6667000000000001	0.004	No	2.73	-0.004	2.0	NoResponse	0	0.168	674.984	9	71	Target	MissedWin	True
675.983	0.54	Win2	0.6667000000000001	n/a	No	2.73	n/a	n/a	NoResponse	0	n/a	n/a	9	71	Blank	MissedWin	True
675.984	0.3	Win2	0.6667000000000001	0.004	No	2.73	-0.004	2.0	NoResponse	0	0.168	n/a	9	71	ButtonPress	MissedWin	True
676.518	1.45	Win2	0.6667000000000001	n/a	No	2.73	n/a	5.0	NoResponse	0	0.032	675.55	9	71	Feedback	MissedWin	True
677.972	2.73	Win2	0.6667000000000001	n/a	No	2.73	n/a	n/a	NoResponse	0	0.0	n/a	9	71	ISIslide	MissedWin	True
680.731	0.25	Win2	0.6575	0.0	No	2.769	0.031	n/a	NoResponse	0	n/a	n/a	9	72	Cue	MissedWin	True
680.981	4.1	Win2	0.6575	0.0	No	2.769	0.0	n/a	NoResponse	0	n/a	n/a	9	72	Fixation	MissedWin	True
685.077	0.15	Win2	0.6575	0.004	No	2.769	-0.004	2.0	NoResponse	0	0.163	684.24	9	72	Target	MissedWin	True
685.227	0.55	Win2	0.6575	n/a	No	2.769	n/a	n/a	NoResponse	0	n/a	n/a	9	72	Blank	MissedWin	True
685.24	0.3	Win2	0.6575	0.004	No	2.769	-0.004	2.0	NoResponse	0	0.163	n/a	9	72	ButtonPress	MissedWin	True
685.779	1.45	Win2	0.6575	n/a	No	2.769	n/a	5.0	NoResponse	0	0.039	684.818	9	72	Feedback	MissedWin	True
687.233	2.769	Win2	0.6575	n/a	No	2.769	n/a	n/a	NoResponse	0	0.0	n/a	9	72	ISIslide	MissedWin	True
690.025	0.25	Win2	0.6486	0.0	No	2.675	0.025	n/a	NoResponse	0	n/a	n/a	9	73	Cue	MissedWin	True
690.276	4.0	Win2	0.6486	0.0	No	2.675	0.001	n/a	NoResponse	0	n/a	n/a	9	73	Fixation	MissedWin	True
694.271	0.15	Win2	0.6486	0.004	No	2.675	-0.004	2.0	NoResponse	0	0.194	693.465	9	73	Target	MissedWin	True
694.421	0.55	Win2	0.6486	n/a	No	2.675	n/a	n/a	NoResponse	0	n/a	n/a	9	73	Blank	MissedWin	True
694.465	0.3	Win2	0.6486	0.004	No	2.675	-0.004	2.0	NoResponse	0	0.194	n/a	9	73	ButtonPress	MissedWin	True
694.973	1.45	Win2	0.6486	n/a	No	2.675	n/a	5.0	NoResponse	0	0.016	693.989	9	73	Feedback	MissedWin	True
696.427	2.675	Win2	0.6486	n/a	No	2.675	n/a	n/a	NoResponse	0	0.0	n/a	9	73	ISIslide	MissedWin	True
699.119	0.25	Lose2	0.64	0.0	No	2.631	0.019	n/a	NoResponse	-1	n/a	n/a	8	74	Cue	Loss	True
699.37	4.05	Lose2	0.64	0.0	No	2.631	0.001	n/a	NoResponse	-1	n/a	n/a	8	74	Fixation	Loss	True
703.415	0.16	Lose2	0.64	0.004	No	2.631	-0.004	2.0	NoResponse	-1	0.172	702.587	8	74	Target	Loss	True
703.582	0.54	Lose2	0.64	n/a	No	2.631	n/a	n/a	NoResponse	-1	n/a	n/a	8	74	Blank	Loss	True
703.587	0.3	Lose2	0.64	0.004	No	2.631	-0.004	2.0	NoResponse	-1	0.172	n/a	8	74	ButtonPress	Loss	True
704.117	1.45	Lose2	0.64	n/a	No	2.631	n/a	5.0	NoResponse	-1	0.042	703.159	8	74	Feedback	Loss	True
705.571	2.631	Lose2	0.64	n/a	No	2.631	n/a	n/a	NoResponse	-1	0.0	n/a	8	74	ISIslide	Loss	True
708.229	0.25	Lose2	0.6446999999999999	0.0	Yes	2.921	0.029	n/a	GoodResponse	0	n/a	n/a	8	75	Cue	AvoidedLoss	False
708.48	3.95	Lose2	0.6446999999999999	0.0	Yes	2.921	0.001	2.0	GoodResponse	0	2.248	709.728	8	75	Fixation	AvoidedLoss	False
710.728	0.3	Lose2	0.6446999999999999	0.0	Yes	2.921	0.001	2.0	GoodResponse	0	2.248	n/a	8	75	ButtonPress	AvoidedLoss	False
712.425	0.17	Lose2	0.6446999999999999	0.004	Yes	2.921	-0.004	2.0	GoodResponse	0	0.16	711.585	8	75	Target	AvoidedLoss	False
712.585	0.3	Lose2	0.6446999999999999	0.004	Yes	2.921	-0.004	2.0	GoodResponse	0	0.16	n/a	8	75	ButtonPress	AvoidedLoss	False
712.609	0.53	Lose2	0.6446999999999999	n/a	Yes	2.921	n/a	n/a	GoodResponse	0	n/a	n/a	8	75	Blank	AvoidedLoss	False
713.127	1.45	Lose2	0.6446999999999999	n/a	Yes	2.921	n/a	5.0	GoodResponse	0	0.008	712.135	8	75	Feedback	AvoidedLoss	False
714.582	2.921	Lose2	0.6446999999999999	n/a	Yes	2.921	n/a	n/a	GoodResponse	0	0.0	n/a	8	75	ISIslide	AvoidedLoss	False
717.524	0.25	Control	0.6494	0.0	Yes	3.226	0.024	n/a	GoodResponse	0	n/a	n/a	8	76	Cue	Neutral	True
717.775	4.05	Control	0.6494	0.0	Yes	3.226	0.001	n/a	GoodResponse	0	n/a	n/a	8	76	Fixation	Neutral	True
721.82	0.18	Control	0.6494	0.004	Yes	3.226	-0.004	2.0	GoodResponse	0	0.164	720.984	8	76	Target	Neutral	True
721.984	0.3	Control	0.6494	0.004	Yes	3.226	-0.004	2.0	GoodResponse	0	0.164	n/a	8	76	ButtonPress	Neutral	True
722.004	0.52	Control	0.6494	n/a	Yes	3.226	n/a	n/a	GoodResponse	0	n/a	n/a	8	76	Blank	Neutral	True
722.522	1.45	Control	0.6494	n/a	Yes	3.226	n/a	5.0	GoodResponse	0	0.027	721.549	8	76	Feedback	Neutral	True
723.976	3.226	Control	0.6494	n/a	Yes	3.226	n/a	n/a	GoodResponse	0	0.0	n/a	8	76	ISIslide	Neutral	True
727.219	0.25	Lose2	0.6537999999999999	0.0	Yes	2.581	0.019	n/a	GoodResponse	0	n/a	n/a	8	77	Cue	AvoidedLoss	True
727.47	3.95	Lose2	0.6537999999999999	0.0	Yes	2.581	0.001	n/a	GoodResponse	0	n/a	n/a	8	77	Fixation	AvoidedLoss	True
731.415	0.19	Lose2	0.6537999999999999	0.004	Yes	2.581	-0.004	2.0	GoodResponse	0	0.167	730.582	8	77	Target	AvoidedLoss	True
731.582	0.3	Lose2	0.6537999999999999	0.004	Yes	2.581	-0.004	2.0	GoodResponse	0	0.167	n/a	8	77	ButtonPress	AvoidedLoss	True
731.616	0.51	Lose2	0.6537999999999999	n/a	Yes	2.581	n/a	n/a	GoodResponse	0	n/a	n/a	8	77	Blank	AvoidedLoss	True
732.117	1.45	Lose2	0.6537999999999999	n/a	Yes	2.581	n/a	5.0	GoodResponse	0	0.042	731.159	8	77	Feedback	AvoidedLoss	True
733.572	2.581	Lose2	0.6537999999999999	n/a	Yes	2.581	n/a	n/a	GoodResponse	0	0.0	n/a	8	77	ISIslide	AvoidedLoss	True
