onset	duration	cue_type	current_mean_accuracy	duration_error	is_hit	isi_adjusted	onset_delay	response	response_type	reward	rt	rt_time	total_reward	trial_number	trial_phase	trial_type	one_press
11.109	0.25	Control	1.0	0.0	Yes	2.941	0.009	n/a	GoodResponse	0	n/a	n/a	0	0	Cue	Neutral	True
11.359	3.85	Control	1.0	0.0	Yes	2.941	0.0	n/a	GoodResponse	0	n/a	n/a	0	0	Fixation	Neutral	True
15.221	0.4	Control	1.0	0.0	Yes	2.941	0.012	2.0	GoodResponse	0	0.245	14.466	0	0	Target	Neutral	True
15.466	0.3	Control	1.0	0.0	Yes	2.941	0.012	2.0	GoodResponse	0	0.245	n/a	0	0	ButtonPress	Neutral	True
15.605	0.3	Control	1.0	n/a	Yes	2.941	n/a	n/a	GoodResponse	0	n/a	n/a	0	0	Blank	Neutral	True
15.906	1.45	Control	1.0	n/a	Yes	2.941	n/a	5.0	GoodResponse	0	0.021	14.927	0	0	Feedback	Neutral	True
17.361	2.941	Control	1.0	n/a	Yes	2.941	n/a	n/a	GoodResponse	0	0.0	n/a	0	0	ISIslide	Neutral	True
20.32	0.25	Lose2	1.0	0.0	Yes	2.78	0.02	n/a	GoodResponse	0	n/a	n/a	0	1	Cue	AvoidedLoss	True
20.57	4.0	Lose2	1.0	0.0	Yes	2.78	0.0	n/a	GoodResponse	0	n/a	n/a	0	1	Fixation	AvoidedLoss	True
24.566	0.39	Lose2	1.0	0.004	Yes	2.78	-0.004	2.0	GoodResponse	0	0.18	23.746	0	1	Target	AvoidedLoss	True
24.746	0.3	Lose2	1.0	0.004	Yes	2.78	-0.004	2.0	GoodResponse	0	0.18	n/a	0	1	ButtonPress	AvoidedLoss	True
24.967	0.31	Lose2	1.0	n/a	Yes	2.78	n/a	n/a	GoodResponse	0	n/a	n/a	0	1	Blank	AvoidedLoss	True
25.268	1.45	Lose2	1.0	n/a	Yes	2.78	n/a	5.0	GoodResponse	0	0.025	24.293	0	1	Feedback	AvoidedLoss	True
26.722	2.78	Lose2	1.0	n/a	Yes	2.78	n/a	n/a	GoodResponse	0	0.0	n/a	0	1	ISIslide	AvoidedLoss	True
29.531	0.25	Control	1.0	0.0	Yes	2.569	0.031	n/a	GoodResponse	0	n/a	n/a	0	2	Cue	Neutral	True
29.781	4.1	Control	1.0	0.0	Yes	2.569	0.0	n/a	GoodResponse	0	n/a	n/a	0	2	Fixation	Neutral	True
33.877	0.38	Control	1.0	0.004	Yes	2.569	-0.004	2.0	GoodResponse	0	0.261	33.138	0	2	Target	Neutral	True
34.138	0.3	Control	1.0	0.004	Yes	2.569	-0.004	2.0	GoodResponse	0	0.261	n/a	0	2	ButtonPress	Neutral	True
34.261	0.32	Control	1.0	n/a	Yes	2.569	n/a	n/a	GoodResponse	0	n/a	n/a	0	2	Blank	Neutral	True
34.579	1.45	Control	1.0	n/a	Yes	2.569	n/a	5.0	GoodResponse	0	0.03	33.609	0	2	Feedback	Neutral	True
36.033	2.569	Control	1.0	n/a	Yes	2.569	n/a	n/a	GoodResponse	0	0.0	n/a	0	2	ISIslide	Neutral	True
38.624	0.25	Win2	1.0	0.001	Yes	2.826	0.024	n/a	GoodResponse	1	n/a	n/a	1	3	Cue	Win	True
38.875	3.95	Win2	1.0	0.0	Yes	2.826	0.001	n/a	GoodResponse	1	n/a	n/a	1	3	Fixation	Win	True
42.82	0.37	Win2	1.0	0.004	Yes	2.826	-0.004	2.0	GoodResponse	1	0.185	42.005	1	3	Target	Win	True
43.005	0.3	Win2	1.0	0.004	Yes	2.826	-0.004	2.0	GoodResponse	1	0.185	n/a	1	3	ButtonPress	Win	True
43.205	0.33	Win2	1.0	n/a	Yes	2.826	n/a	n/a	GoodResponse	1	n/a	n/a	1	3	Blank	Win	True
43.522	1.45	Win2	1.0	n/a	Yes	2.826	n/a	5.0	GoodResponse	1	0.014	42.536	1	3	Feedback	Win	True
44.977	2.826	Win2	1.0	n/a	Yes	2.826	n/a	n/a	GoodResponse	1	0.0	n/a	1	3	ISIslide	Win	True
47.819	0.25	Win2	1.0	0.0	Yes	3.281	0.019	n/a	GoodResponse	1	n/a	n/a	2	4	Cue	Win	True
48.069	4.0	Win2	1.0	0.0	Yes	3.281	0.0	n/a	GoodResponse	1	n/a	n/a	2	4	Fixation	Win	True
52.065	0.36	Win2	1.0	0.004	Yes	3.281	-0.004	2.0	GoodResponse	1	0.232	51.297	2	4	Target	Win	True
52.297	0.3	Win2	1.0	0.004	Yes	3.281	-0.004	2.0	GoodResponse	1	0.232	n/a	2	4	ButtonPress	Win	True
52.432	0.34	Win2	1.0	n/a	Yes	3.281	n/a	n/a	GoodResponse	1	n/a	n/a	2	4	Blank	Win	True
52.767	1.45	Win2	1.0	n/a	Yes	3.281	n/a	5.0	GoodResponse	1	0.037	51.804	2	4	Feedback	Win	True
54.221	3.281	Win2	1.0	n/a	Yes	3.281	n/a	n/a	GoodResponse	1	0.0	n/a	2	4	ISIslide	Win	True
57.531	0.25	Win2	1.0	0.0	Yes	2.769	0.031	n/a	GoodResponse	1	n/a	n/a	3	5	Cue	Win	True
57.782	4.0	Win2	1.0	0.0	Yes	2.769	0.001	n/a	GoodResponse	1	n/a	n/a	3	5	Fixation	Win	True
61.777	0.35	Win2	1.0	0.004	Yes	2.769	-0.004	2.0	GoodResponse	1	0.193	60.97	3	5	Target	Win	True
61.97	0.3	Win2	1.0	0.004	Yes	2.769	-0.004	2.0	GoodResponse	1	0.193	n/a	3	5	ButtonPress	Win	True
62.128	0.35	Win2	1.0	n/a	Yes	2.769	n/a	n/a	GoodResponse	1	n/a	n/a	3	5	Blank	Win	True
62.479	1.45	Win2	1.0	n/a	Yes	2.769	n/a	5.0	GoodResponse	1	0.032	61.511	3	5	Feedback	Win	True
63.934	2.769	Win2	1.0	n/a	Yes	2.769	n/a	n/a	GoodResponse	1	0.0	n/a	3	5	ISIslide	Win	True
66.725	0.25	Lose2	0.8571	0.0	No	2.725	0.025	n/a	PrematurePress	-1	n/a	n/a	2	6	Cue	Loss	False
66.976	3.95	Lose2	0.8571	0.0	No	2.725	0.001	2.0	PrematurePress	-1	3.606	69.582	2	6	Fixation	Loss	False
70.582	0.3	Lose2	0.8571	0.0	No	2.725	0.001	2.0	PrematurePress	-1	3.606	n/a	2	6	ButtonPress	Loss	False
70.921	0.34	Lose2	0.8571	0.004	No	2.725	-0.004	2.0	PrematurePress	-1	0.056	69.977	2	6	Target	Loss	False
70.977	0.3	Lose2	0.8571	0.004	No	2.725	-0.004	2.0	PrematurePress	-1	0.056	n/a	2	6	ButtonPress	Loss	False
71.272	0.36	Lose2	0.8571	n/a	No	2.725	n/a	n/a	PrematurePress	-1	n/a	n/a	2	6	Blank	Loss	False
71.623	1.45	Lose2	0.8571	n/a	No	2.725	n/a	5.0	PrematurePress	-1	0.011	70.634	2	6	Feedback	Loss	False
73.078	2.725	Lose2	0.8571	n/a	No	2.725	n/a	n/a	PrematurePress	-1	0.0	n/a	2	6	ISIslide	Loss	False
75.819	0.25	Lose2	0.875	0.0	Yes	4.031	0.019	n/a	GoodResponse	0	n/a	n/a	2	7	Cue	AvoidedLoss	True
76.07	4.05	Lose2	0.875	0.0	Yes	4.031	0.001	n/a	GoodResponse	0	n/a	n/a	2	7	Fixation	AvoidedLoss	True
80.115	0.33	Lose2	0.875	0.004	Yes	4.031	-0.004	2.0	GoodResponse	0	0.176	79.291	2	7	Target	AvoidedLoss	True
80.291	0.3	Lose2	0.875	0.004	Yes	4.031	-0.004	2.0	GoodResponse	0	0.176	n/a	2	7	ButtonPress	AvoidedLoss	True
80.45	0.37	Lose2	0.875	n/a	Yes	4.031	n/a	n/a	GoodResponse	0	n/a	n/a	2	7	Blank	AvoidedLoss	True
80.818	1.45	Lose2	0.875	n/a	Yes	4.031	n/a	5.0	GoodResponse	0	0.035	79.853	2	7	Feedback	AvoidedLoss	True
82.272	4.031	Lose2	0.875	n/a	Yes	4.031	n/a	n/a	GoodResponse	0	0.0	n/a	2	7	ISIslide	AvoidedLoss	True
86.317	0.25	Lose2	0.8889	0.0	Yes	3.033	0.017	n/a	GoodResponse	0	n/a	n/a	2	8	Cue	AvoidedLoss	True
86.568	3.95	Lose2	0.8889	0.0	Yes	3.033	0.001	n/a	GoodResponse	0	n/a	n/a	2	8	Fixation	AvoidedLoss	True
90.513	0.32	Lose2	0.8889	0.004	Yes	3.033	-0.004	2.0	GoodResponse	0	0.192	89.705	2	8	Target	AvoidedLoss	True
90.705	0.3	Lose2	0.8889	0.004	Yes	3.033	-0.004	2.0	GoodResponse	0	0.192	n/a	2	8	ButtonPress	AvoidedLoss	True
90.848	0.38	Lose2	0.8889	n/a	Yes	3.033	n/a	n/a	GoodResponse	0	n/a	n/a	2	8	Blank	AvoidedLoss	True
91.215	1.45	Lose2	0.8889	n/a	Yes	3.033	n/a	5.0	GoodResponse	0	0.029	90.244	2	8	Feedback	AvoidedLoss	True
92.67	3.033	Lose2	0.8889	n/a	Yes	3.033	n/a	n/a	GoodResponse	0	0.0	n/a	2	8	ISIslide	AvoidedLoss	True
95.729	0.25	Lose2	0.9	0.0	Yes	3.121	0.029	n/a	GoodResponse	0	n/a	n/a	2	9	Cue	AvoidedLoss	True
95.98	3.95	Lose2	0.9	0.0	Yes	3.121	0.001	n/a	GoodResponse	0	n/a	n/a	2	9	Fixation	AvoidedLoss	True
99.925	0.31	Lose2	0.9	0.004	Yes	3.121	-0.004	2.0	GoodResponse	0	0.206	99.131	2	9	Target	AvoidedLoss	True
100.131	0.3	Lose2	0.9	0.004	Yes	3.121	-0.004	2.0	GoodResponse	0	0.206	n/a	2	9	ButtonPress	AvoidedLoss	True
100.242	0.39	Lose2	0.9	n/a	Yes	3.121	n/a	n/a	GoodResponse	0	n/a	n/a	2	9	Blank	AvoidedLoss	True
100.627	1.45	Lose2	0.9	n/a	Yes	3.121	n/a	5.0	GoodResponse	0	0.03	99.657	2	9	Feedback	AvoidedLoss	True
102.081	3.121	Lose2	0.9	n/a	Yes	3.121	n/a	n/a	GoodResponse	0	0.0	n/a	2	9	ISIslide	AvoidedLoss	True
105.224	0.25	Control	0.8181999999999999	0.0	No	3.276	0.024	n/a	NoResponse	0	n/a	n/a	2	10	Cue	Neutral	True
105.475	4.0	Control	0.8181999999999999	0.0	No	3.276	0.001	n/a	NoResponse	0	n/a	n/a	2	10	Fixation	Neutral	True
109.47	0.3	Control	0.8181999999999999	0.004	No	3.276	-0.004	2.0	NoResponse	0	0.586	109.056	2	10	Target	Neutral	True
109.771	0.4	Control	0.8181999999999999	n/a	No	3.276	n/a	n/a	NoResponse	0	n/a	n/a	2	10	Blank	Neutral	True
110.056	0.3	Control	0.8181999999999999	0.004	No	3.276	-0.004	2.0	NoResponse	0	0.586	n/a	2	10	ButtonPress	Neutral	True
110.172	1.45	Control	0.8181999999999999	n/a	No	3.276	n/a	5.0	NoResponse	0	0.046	109.218	2	10	Feedback	Neutral	True
111.627	3.276	Control	0.8181999999999999	n/a	No	3.276	n/a	n/a	NoResponse	0	0.0	n/a	2	10	ISIslide	Neutral	True
114.92	0.25	Lose2	0.8332999999999999	0.0	Yes	2.73	0.02	n/a	GoodResponse	0	n/a	n/a	2	11	Cue	AvoidedLoss	True
115.17	4.05	Lose2	0.8332999999999999	0.001	Yes	2.73	0.0	n/a	GoodResponse	0	n/a	n/a	2	11	Fixation	AvoidedLoss	True
119.216	0.29	Lose2	0.8332999999999999	0.004	Yes	2.73	-0.004	2.0	GoodResponse	0	0.184	118.4	2	11	Target	AvoidedLoss	True
119.4	0.3	Lose2	0.8332999999999999	0.004	Yes	2.73	-0.004	2.0	GoodResponse	0	0.184	n/a	2	11	ButtonPress	AvoidedLoss	True
119.517	0.41	Lose2	0.8332999999999999	n/a	Yes	2.73	n/a	n/a	GoodResponse	0	n/a	n/a	2	11	Blank	AvoidedLoss	True
119.918	1.45	Lose2	0.8332999999999999	n/a	Yes	2.73	n/a	5.0	GoodResponse	0	0.008	118.926	2	11	Feedback	AvoidedLoss	True
121.372	2.73	Lose2	0.8332999999999999	n/a	Yes	2.73	n/a	n/a	GoodResponse	0	0.0	n/a	2	11	ISIslide	AvoidedLoss	True
124.131	0.25	Control	0.7692	0.0	No	2.969	0.031	n/a	NoResponse	0	n/a	n/a	2	12	Cue	Neutral	True
124.381	3.9	Control	0.7692	0.0	No	2.969	0.0	n/a	NoResponse	0	n/a	n/a	2	12	Fixation	Neutral	True
128.293	0.28	Control	0.7692	0.0	No	2.969	0.012	2.0	NoResponse	0	0.398	127.691	2	12	Target	Neutral	True
128.561	0.42	Control	0.7692	n/a	No	2.969	n/a	n/a	NoResponse	0	n/a	n/a	2	12	Blank	Neutral	True
128.691	0.3	Control	0.7692	0.0	No	2.969	0.012	2.0	NoResponse	0	0.398	n/a	2	12	ButtonPress	Neutral	True
128.979	1.45	Control	0.7692	n/a	No	2.969	n/a	5.0	NoResponse	0	0.02	127.999	2	12	Feedback	Neutral	True
130.433	2.969	Control	0.7692	n/a	No	2.969	n/a	n/a	NoResponse	0	0.0	n/a	2	12	ISIslide	Neutral	True
133.425	0.25	Control	0.7857	0.0	Yes	2.775	0.025	n/a	GoodResponse	0	n/a	n/a	2	13	Cue	Neutral	True
133.676	4.0	Control	0.7857	0.0	Yes	2.775	0.001	n/a	GoodResponse	0	n/a	n/a	2	13	Fixation	Neutral	True
137.671	0.27	Control	0.7857	0.004	Yes	2.775	-0.004	2.0	GoodResponse	0	0.189	136.86	2	13	Target	Neutral	True
137.86	0.3	Control	0.7857	0.004	Yes	2.775	-0.004	2.0	GoodResponse	0	0.189	n/a	2	13	ButtonPress	Neutral	True
137.955	0.43	Control	0.7857	n/a	Yes	2.775	n/a	n/a	GoodResponse	0	n/a	n/a	2	13	Blank	Neutral	True
138.373	1.45	Control	0.7857	n/a	Yes	2.775	n/a	5.0	GoodResponse	0	0.041	137.414	2	13	Feedback	Neutral	True
139.828	2.775	Control	0.7857	n/a	Yes	2.775	n/a	n/a	GoodResponse	0	0.0	n/a	2	13	ISIslide	Neutral	True
142.619	0.25	Win2	0.8	0.0	Yes	2.681	0.019	2.0	GoodResponse	1	0.234	141.853	3	14	Cue	Win	False
142.853	0.3	Win2	0.8	0.0	Yes	2.681	0.019	2.0	GoodResponse	1	0.234	n/a	3	14	ButtonPress	Win	False
142.87	4.1	Win2	0.8	0.0	Yes	2.681	0.001	n/a	GoodResponse	1	n/a	n/a	3	14	Fixation	Win	False
146.966	0.26	Win2	0.8	0.003	Yes	2.681	-0.003	2.0	GoodResponse	1	0.156	146.122	3	14	Target	Win	False
147.122	0.3	Win2	0.8	0.003	Yes	2.681	-0.003	2.0	GoodResponse	1	0.156	n/a	3	14	ButtonPress	Win	False
147.233	0.44	Win2	0.8	n/a	Yes	2.681	n/a	n/a	GoodResponse	1	n/a	n/a	3	14	Blank	Win	False
147.668	1.45	Win2	0.8	n/a	Yes	2.681	n/a	5.0	GoodResponse	1	0.014	146.682	3	14	Feedback	Win	False
149.122	2.681	Win2	0.8	n/a	Yes	2.681	n/a	n/a	GoodResponse	1	0.0	n/a	3	14	ISIslide	Win	False
151.83	0.25	Control	0.8125	0.0	Yes	2.97	0.03	n/a	GoodResponse	0	n/a	n/a	3	15	Cue	Neutral	True
152.081	4.0	Control	0.8125	0.0	Yes	2.97	0.001	n/a	GoodResponse	0	n/a	n/a	3	15	Fixation	Neutral	True
156.076	0.25	Control	0.8125	0.004	Yes	2.97	-0.004	2.0	GoodResponse	0	0.18	155.256	3	15	Target	Neutral	True
156.256	0.3	Control	0.8125	0.004	Yes	2.97	-0.004	2.0	GoodResponse	0	0.18	n/a	3	15	ButtonPress	Neutral	True
156.327	0.45	Control	0.8125	n/a	Yes	2.97	n/a	n/a	GoodResponse	0	n/a	n/a	3	15	Blank	Neutral	True
156.778	1.45	Control	0.8125	n/a	Yes	2.97	n/a	5.0	GoodResponse	0	0.026	155.804	3	15	Feedback	Neutral	True
158.233	2.97	Control	0.8125	n/a	Yes	2.97	n/a	n/a	GoodResponse	0	0.0	n/a	3	15	ISIslide	Neutral	True
161.225	0.25	Win2	0.8234999999999999	0.0	Yes	2.875	0.025	n/a	GoodResponse	1	n/a	n/a	4	16	Cue	Win	True
161.476	4.0	Win2	0.8234999999999999	0.0	Yes	2.875	0.001	n/a	GoodResponse	1	n/a	n/a	4	16	Fixation	Win	True
165.471	0.24	Win2	0.8234999999999999	0.004	Yes	2.875	-0.004	2.0	GoodResponse	1	0.183	164.654	4	16	Target	Win	True
165.654	0.3	Win2	0.8234999999999999	0.004	Yes	2.875	-0.004	2.0	GoodResponse	1	0.183	n/a	4	16	ButtonPress	Win	True
165.722	0.46	Win2	0.8234999999999999	n/a	Yes	2.875	n/a	n/a	GoodResponse	1	n/a	n/a	4	16	Blank	Win	True
166.173	1.45	Win2	0.8234999999999999	n/a	Yes	2.875	n/a	5.0	GoodResponse	1	0.045	165.218	4	16	Feedback	Win	True
167.628	2.875	Win2	0.8234999999999999	n/a	Yes	2.875	n/a	n/a	GoodResponse	1	0.0	n/a	4	16	ISIslide	Win	True
170.52	0.25	Lose2	0.8332999999999999	0.0	Yes	2.73	0.02	n/a	GoodResponse	0	n/a	n/a	4	17	Cue	AvoidedLoss	True
170.77	3.95	Lose2	0.8332999999999999	0.0	Yes	2.73	0.0	n/a	GoodResponse	0	n/a	n/a	4	17	Fixation	AvoidedLoss	True
174.716	0.23	Lose2	0.8332999999999999	0.004	Yes	2.73	-0.004	2.0	GoodResponse	0	0.183	173.899	4	17	Target	AvoidedLoss	True
174.899	0.3	Lose2	0.8332999999999999	0.004	Yes	2.73	-0.004	2.0	GoodResponse	0	0.183	n/a	4	17	ButtonPress	AvoidedLoss	True
174.95	0.47	Lose2	0.8332999999999999	n/a	Yes	2.73	n/a	n/a	GoodResponse	0	n/a	n/a	4	17	Blank	AvoidedLoss	True
175.418	1.45	Lose2	0.8332999999999999	n/a	Yes	2.73	n/a	5.0	GoodResponse	0	0.02	174.438	4	17	Feedback	AvoidedLoss	True
176.872	2.73	Lose2	0.8332999999999999	n/a	Yes	2.73	n/a	n/a	GoodResponse	0	0.0	n/a	4	17	ISIslide	AvoidedLoss	True
179.614	0.25	Lose2	0.8421	0.0	Yes	2.736	0.014	n/a	GoodResponse	0	n/a	n/a	4	18	Cue	AvoidedLoss	True
179.864	4.05	Lose2	0.8421	0.0	Yes	2.736	0.0	n/a	GoodResponse	0	n/a	n/a	4	18	Fixation	AvoidedLoss	True
183.91	0.22	Lose2	0.8421	0.004	Yes	2.736	-0.004	2.0	GoodResponse	0	0.209	183.119	4	18	Target	AvoidedLoss	True
184.119	0.3	Lose2	0.8421	0.004	Yes	2.736	-0.004	2.0	GoodResponse	0	0.209	n/a	4	18	ButtonPress	AvoidedLoss	True
184.144	0.48	Lose2	0.8421	n/a	Yes	2.736	n/a	n/a	GoodResponse	0	n/a	n/a	4	18	Blank	AvoidedLoss	True
184.612	1.45	Lose2	0.8421	n/a	Yes	2.736	n/a	5.0	GoodResponse	0	0.045	183.657	4	18	Feedback	AvoidedLoss	True
186.066	2.736	Lose2	0.8421	n/a	Yes	2.736	n/a	n/a	GoodResponse	0	0.0	n/a	4	18	ISIslide	AvoidedLoss	True
188.825	0.25	Control	0.85	0.0	Yes	2.925	0.025	n/a	GoodResponse	0	n/a	n/a	4	19	Cue	Neutral	True
189.075	3.95	Control	0.85	0.0	Yes	2.925	0.0	n/a	GoodResponse	0	n/a	n/a	4	19	Fixation	Neutral	True
193.037	0.21	Control	0.85	0.0	Yes	2.925	0.012	2.0	GoodResponse	0	0.201	192.238	4	19	Target	Neutral	True
193.238	0.49	Control	0.85	n/a	Yes	2.925	n/a	n/a	GoodResponse	0	n/a	n/a	4	19	Blank	Neutral	True
193.238	0.3	Control	0.85	0.0	Yes	2.925	0.012	2.0	GoodResponse	0	0.201	n/a	4	19	ButtonPress	Neutral	True
193.723	1.45	Control	0.85	n/a	Yes	2.925	n/a	5.0	GoodResponse	0	0.007	192.73	4	19	Feedback	Neutral	True
195.177	2.925	Control	0.85	n/a	Yes	2.925	n/a	n/a	GoodResponse	0	0.0	n/a	4	19	ISIslide	Neutral	True
198.119	0.25	Control	0.8571	0.0	Yes	2.631	0.019	n/a	GoodResponse	0	n/a	n/a	4	20	Cue	Neutral	True
198.37	4.05	Control	0.8571	0.0	Yes	2.631	0.001	n/a	GoodResponse	0	n/a	n/a	4	20	Fixation	Neutral	True
202.415	0.2	Control	0.8571	0.004	Yes	2.631	-0.004	2.0	GoodResponse	0	0.174	201.589	4	20	Target	Neutral	True
202.589	0.3	Control	0.8571	0.004	Yes	2.631	-0.004	2.0	GoodResponse	0	0.174	n/a	4	20	ButtonPress	Neutral	True
202.616	0.5	Control	0.8571	n/a	Yes	2.631	n/a	n/a	GoodResponse	0	n/a	n/a	4	20	Blank	Neutral	True
203.117	1.45	Control	0.8571	n/a	Yes	2.631	n/a	5.0	GoodResponse	0	0.028	202.145	4	20	Feedback	Neutral	True
204.572	2.631	Control	0.8571	n/a	Yes	2.631	n/a	n/a	GoodResponse	0	0.0	n/a	4	20	ISIslide	Neutral	True
207.213	0.25	Control	0.8636	0.0	Yes	2.787	0.013	n/a	GoodResponse	0	n/a	n/a	4	21	Cue	Neutral	True
207.464	4.1	Control	0.8636	0.0	Yes	2.787	0.001	n/a	GoodResponse	0	n/a	n/a	4	21	Fixation	Neutral	True
211.559	0.19	Control	0.8636	0.004	Yes	2.787	-0.004	2.0	GoodResponse	0	0.176	210.735	4	21	Target	Neutral	True
211.735	0.3	Control	0.8636	0.004	Yes	2.787	-0.004	2.0	GoodResponse	0	0.176	n/a	4	21	ButtonPress	Neutral	True
211.76	0.51	Control	0.8636	n/a	Yes	2.787	n/a	n/a	GoodResponse	0	n/a	n/a	4	21	Blank	Neutral	True
212.261	1.45	Control	0.8636	n/a	Yes	2.787	n/a	5.0	GoodResponse	0	0.006	211.267	4	21	Feedback	Neutral	True
213.716	2.787	Control	0.8636	n/a	Yes	2.787	n/a	n/a	GoodResponse	0	0.0	n/a	4	21	ISIslide	Neutral	True
216.524	0.25	Control	0.8261	0.0	No	2.776	0.024	n/a	NoResponse	0	n/a	n/a	4	22	Cue	Neutral	True
216.775	4.0	Control	0.8261	0.0	No	2.776	0.001	n/a	NoResponse	0	n/a	n/a	4	22	Fixation	Neutral	True
220.77	0.18	Control	0.8261	0.004	No	2.776	-0.004	2.0	NoResponse	0	0.193	219.963	4	22	Target	Neutral	True
220.954	0.52	Control	0.8261	n/a	No	2.776	n/a	n/a	NoResponse	0	n/a	n/a	4	22	Blank	Neutral	True
220.963	0.3	Control	0.8261	0.004	No	2.776	-0.004	2.0	NoResponse	0	0.193	n/a	4	22	ButtonPress	Neutral	True
221.472	1.45	Control	0.8261	n/a	No	2.776	n/a	5.0	NoResponse	0	0.014	220.486	4	22	Feedback	Neutral	True
222.927	2.776	Control	0.8261	n/a	No	2.776	n/a	n/a	NoResponse	0	0.0	n/a	4	22	ISIslide	Neutral	True
225.718	0.25	Control	0.7917000000000001	0.0	No	2.782	0.018	n/a	NoResponse	0	n/a	n/a	4	23	Cue	Neutral	True
225.969	3.9	Control	0.7917000000000001	0.0	No	2.782	0.001	n/a	NoResponse	0	n/a	n/a	4	23	Fixation	Neutral	True
229.864	0.17	Control	0.7917000000000001	0.004	No	2.782	-0.004	2.0	NoResponse	0	0.25	229.114	4	23	Target	Neutral	True
230.048	0.53	Control	0.7917000000000001	n/a	No	2.782	n/a	n/a	NoResponse	0	n/a	n/a	4	23	Blank	Neutral	True
230.114	0.3	Control	0.7917000000000001	0.004	No	2.782	-0.004	2.0	NoResponse	0	0.25	n/a	4	23	ButtonPress	Neutral	True
230.566	1.45	Control	0.7917000000000001	n/a	No	2.782	n/a	5.0	NoResponse	0	0.042	229.608	4	23	Feedback	Neutral	True
232.021	2.782	Control	0.7917000000000001	n/a	No	2.782	n/a	n/a	NoResponse	0	0.0	n/a	4	23	ISIslide	Neutral	True
234.829	0.25	Win2	0.76	0.0	No	3.121	0.029	n/a	NoResponse	0	n/a	n/a	4	24	Cue	MissedWin	True
235.08	3.95	Win2	0.76	0.0	No	3.121	0.001	n/a	NoResponse	0	n/a	n/a	4	24	Fixation	MissedWin	True
239.025	0.16	Win2	0.76	0.004	No	3.121	-0.004	2.0	NoResponse	0	0.172	238.197	4	24	Target	MissedWin	True
239.192	0.54	Win2	0.76	n/a	No	3.121	n/a	n/a	NoResponse	0	n/a	n/a	4	24	Blank	MissedWin	True
239.197	0.3	Win2	0.76	0.004	No	3.121	-0.004	2.0	NoResponse	0	0.172	n/a	4	24	ButtonPress	MissedWin	True
239.727	1.45	Win2	0.76	n/a	No	3.121	n/a	5.0	NoResponse	0	0.004	238.731	4	24	Feedback	MissedWin	True
241.181	3.121	Win2	0.76	n/a	No	3.121	n/a	n/a	NoResponse	0	0.0	n/a	4	24	ISIslide	MissedWin	True
244.324	0.25	Win2	0.7308	0.0	No	3.076	0.024	n/a	NoResponse	0	n/a	n/a	4	25	Cue	MissedWin	True
244.575	4.0	Win2	0.7308	0.0	No	3.076	0.001	n/a	NoResponse	0	n/a	n/a	4	25	Fixation	MissedWin	True
248.57	0.15	Win2	0.7308	0.004	No	3.076	-0.004	2.0	NoResponse	0	0.172	247.742	4	25	Target	MissedWin	True
248.721	0.55	Win2	0.7308	n/a	No	3.076	n/a	n/a	NoResponse	0	n/a	n/a	4	25	Blank	MissedWin	True
248.742	0.3	Win2	0.7308	0.004	No	3.076	-0.004	2.0	NoResponse	0	0.172	n/a	4	25	ButtonPress	MissedWin	True
249.272	1.45	Win2	0.7308	n/a	No	3.076	n/a	5.0	NoResponse	0	0.019	248.291	4	25	Feedback	MissedWin	True
250.727	3.076	Win2	0.7308	n/a	No	3.076	n/a	n/a	NoResponse	0	0.0	n/a	4	25	ISIslide	MissedWin	True
253.819	0.25	Win2	0.7037	0.0	No	2.931	0.019	n/a	NoResponse	0	n/a	n/a	4	26	Cue	MissedWin	True
254.07	3.95	Win2	0.7037	0.0	No	2.931	0.001	n/a	NoResponse	0	n/a	n/a	4	26	Fixation	MissedWin	True
258.015	0.15	Win2	0.7037	0.004	No	2.931	-0.004	2.0	NoResponse	0	0.162	257.177	4	26	Target	MissedWin	True
258.166	0.55	Win2	0.7037	n/a	No	2.931	n/a	n/a	NoResponse	0	n/a	n/a	4	26	Blank	MissedWin	True
258.177	0.3	Win2	0.7037	0.004	No	2.931	-0.004	2.0	NoResponse	0	0.162	n/a	4	26	ButtonPress	MissedWin	True
258.717	1.45	Win2	0.7037	n/a	No	2.931	n/a	5.0	NoResponse	0	0.038	257.755	4	26	Feedback	MissedWin	True
260.172	2.931	Win2	0.7037	n/a	No	2.931	n/a	n/a	NoResponse	0	0.0	n/a	4	26	ISIslide	MissedWin	True
263.114	0.25	Lose2	0.6786	0.0	No	2.836	0.014	n/a	NoResponse	-1	n/a	n/a	3	27	Cue	Loss	True
263.365	4.05	Lose2	0.6786	0.0	No	2.836	0.001	n/a	NoResponse	-1	n/a	n/a	3	27	Fixation	Loss	True
267.41	0.15	Lose2	0.6786	0.004	No	2.836	-0.004	2.0	NoResponse	-1	0.176	266.586	3	27	Target	Loss	True
267.56	0.55	Lose2	0.6786	n/a	No	2.836	n/a	n/a	NoResponse	-1	n/a	n/a	3	27	Blank	Loss	True
267.586	0.3	Lose2	0.6786	0.004	No	2.836	-0.004	2.0	NoResponse	-1	0.176	n/a	3	27	ButtonPress	Loss	True
268.112	1.45	Lose2	0.6786	n/a	No	2.836	n/a	5.0	NoResponse	-1	0.009	267.121	3	27	Feedback	Loss	True
269.566	2.836	Lose2	0.6786	n/a	No	2.836	n/a	n/a	NoResponse	-1	0.0	n/a	3	27	ISIslide	Loss	True
272.425	0.25	Control	0.6552	0.0	No	2.825	0.025	n/a	NoResponse	0	n/a	n/a	3	28	Cue	Neutral	False
272.676	4.05	Control	0.6552	0.0	No	2.825	0.001	2.0	NoResponse	0	3.821	275.497	3	28	Fixation	Neutral	False
276.497	0.3	Control	0.6552	0.0	No	2.825	0.001	2.0	NoResponse	0	3.821	n/a	3	28	ButtonPress	Neutral	False
276.721	0.15	Control	0.6552	0.004	No	2.825	-0.004	2.0	NoResponse	0	0.161	275.882	3	28	Target	Neutral	False
276.872	0.55	Control	0.6552	n/a	No	2.825	n/a	n/a	NoResponse	0	n/a	n/a	3	28	Blank	Neutral	False
276.882	0.3	Control	0.6552	0.004	No	2.825	-0.004	2.0	NoResponse	0	0.161	n/a	3	28	ButtonPress	Neutral	False
277.423	1.45	Control	0.6552	n/a	No	2.825	n/a	5.0	NoResponse	0	0.014	276.437	3	28	Feedback	Neutral	False
278.878	2.825	Control	0.6552	n/a	No	2.825	n/a	n/a	NoResponse	0	0.0	n/a	3	28	ISIslide	Neutral	False
281.72	0.25	Lose2	0.6333	0.0	No	2.83	0.02	n/a	NoResponse	-1	n/a	n/a	2	29	Cue	Loss	True
281.97	3.95	Lose2	0.6333	0.0	No	2.83	0.0	n/a	NoResponse	-1	n/a	n/a	2	29	Fixation	Loss	True
285.932	0.15	Lose2	0.6333	0.0	No	2.83	0.012	2.0	NoResponse	-1	0.189	285.121	2	29	Target	Loss	True
286.066	0.55	Lose2	0.6333	n/a	No	2.83	n/a	n/a	NoResponse	-1	n/a	n/a	2	29	Blank	Loss	True
286.121	0.3	Lose2	0.6333	0.0	No	2.83	0.012	2.0	NoResponse	-1	0.189	n/a	2	29	ButtonPress	Loss	True
286.618	1.45	Lose2	0.6333	n/a	No	2.83	n/a	5.0	NoResponse	-1	0.038	285.656	2	29	Feedback	Loss	True
288.072	2.83	Lose2	0.6333	n/a	No	2.83	n/a	n/a	NoResponse	-1	0.0	n/a	2	29	ISIslide	Loss	True
290.914	0.25	Win2	0.6129	0.0	No	2.786	0.014	n/a	NoResponse	0	n/a	n/a	2	30	Cue	MissedWin	True
291.164	3.9	Win2	0.6129	0.001	No	2.786	0.0	n/a	NoResponse	0	n/a	n/a	2	30	Fixation	MissedWin	True
295.059	0.16	Win2	0.6129	0.005	No	2.786	-0.005	2.0	NoResponse	0	0.206	294.265	2	30	Target	MissedWin	True
295.227	0.54	Win2	0.6129	n/a	No	2.786	n/a	n/a	NoResponse	0	n/a	n/a	2	30	Blank	MissedWin	True
295.265	0.3	Win2	0.6129	0.005	No	2.786	-0.005	2.0	NoResponse	0	0.206	n/a	2	30	ButtonPress	MissedWin	True
295.762	1.45	Win2	0.6129	n/a	No	2.786	n/a	5.0	NoResponse	0	0.016	294.778	2	30	Feedback	MissedWin	True
297.216	2.786	Win2	0.6129	n/a	No	2.786	n/a	n/a	NoResponse	0	0.0	n/a	2	30	ISIslide	MissedWin	True
300.024	0.25	Lose2	0.5938	0.0	No	2.826	0.024	n/a	PrematurePress	-1	n/a	n/a	1	31	Cue	Loss	False
300.275	4.05	Lose2	0.5938	0.0	No	2.826	0.001	2.0	PrematurePress	-1	3.502	302.777	1	31	Fixation	Loss	False
303.777	0.3	Lose2	0.5938	0.0	No	2.826	0.001	2.0	PrematurePress	-1	3.502	n/a	1	31	ButtonPress	Loss	False
304.321	0.17	Lose2	0.5938	0.003	No	2.826	-0.003	2.0	PrematurePress	-1	0.093	303.414	1	31	Target	Loss	False
304.414	0.3	Lose2	0.5938	0.003	No	2.826	-0.003	2.0	PrematurePress	-1	0.093	n/a	1	31	ButtonPress	Loss	False
304.504	0.53	Lose2	0.5938	n/a	No	2.826	n/a	n/a	PrematurePress	-1	n/a	n/a	1	31	Blank	Loss	False
305.023	1.45	Lose2	0.5938	n/a	No	2.826	n/a	5.0	PrematurePress	-1	0.024	304.047	1	31	Feedback	Loss	False
306.477	2.826	Lose2	0.5938	n/a	No	2.826	n/a	n/a	PrematurePress	-1	0.0	n/a	1	31	ISIslide	Loss	False
309.319	0.25	Lose2	0.6061	0.0	Yes	2.631	0.019	n/a	GoodResponse	0	n/a	n/a	1	32	Cue	AvoidedLoss	True
309.57	4.15	Lose2	0.6061	0.0	Yes	2.631	0.001	n/a	GoodResponse	0	n/a	n/a	1	32	Fixation	AvoidedLoss	True
313.715	0.18	Lose2	0.6061	0.004	Yes	2.631	-0.004	2.0	GoodResponse	0	0.166	312.881	1	32	Target	AvoidedLoss	True
313.881	0.3	Lose2	0.6061	0.004	Yes	2.631	-0.004	2.0	GoodResponse	0	0.166	n/a	1	32	ButtonPress	AvoidedLoss	True
313.899	0.52	Lose2	0.6061	n/a	Yes	2.631	n/a	n/a	GoodResponse	0	n/a	n/a	1	32	Blank	AvoidedLoss	True
314.417	1.45	Lose2	0.6061	n/a	Yes	2.631	n/a	5.0	GoodResponse	0	0.044	313.461	1	32	Feedback	AvoidedLoss	True
315.872	2.631	Lose2	0.6061	n/a	Yes	2.631	n/a	n/a	GoodResponse	0	0.0	n/a	1	32	ISIslide	AvoidedLoss	True
318.53	0.25	Win2	0.6175999999999999	0.0	Yes	2.67	0.03	n/a	GoodResponse	1	n/a	n/a	2	33	Cue	Win	True
318.781	4.0	Win2	0.6175999999999999	0.0	Yes	2.67	0.001	n/a	GoodResponse	1	n/a	n/a	2	33	Fixation	Win	True
322.776	0.19	Win2	0.6175999999999999	0.004	Yes	2.67	-0.004	2.0	GoodResponse	1	0.174	321.95	2	33	Target	Win	True
322.95	0.3	Win2	0.6175999999999999	0.004	Yes	2.67	-0.004	2.0	GoodResponse	1	0.174	n/a	2	33	ButtonPress	Win	True
322.976	0.51	Win2	0.6175999999999999	n/a	Yes	2.67	n/a	n/a	GoodResponse	1	n/a	n/a	2	33	Blank	Win	True
323.478	1.45	Win2	0.6175999999999999	n/a	Yes	2.67	n/a	5.0	GoodResponse	1	0.008	322.486	2	33	Feedback	Win	True
324.932	2.67	Win2	0.6175999999999999	n/a	Yes	2.67	n/a	n/a	GoodResponse	1	0.0	n/a	2	33	ISIslide	Win	True
327.624	0.25	Lose2	0.6286	0.0	Yes	2.626	0.024	n/a	GoodResponse	0	n/a	n/a	2	34	Cue	AvoidedLoss	True
327.874	4.05	Lose2	0.6286	0.001	Yes	2.626	0.0	n/a	GoodResponse	0	n/a	n/a	2	34	Fixation	AvoidedLoss	True
331.92	0.2	Lose2	0.6286	0.004	Yes	2.626	-0.004	2.0	GoodResponse	0	0.192	331.112	2	34	Target	AvoidedLoss	True
332.112	0.3	Lose2	0.6286	0.004	Yes	2.626	-0.004	2.0	GoodResponse	0	0.192	n/a	2	34	ButtonPress	AvoidedLoss	True
332.121	0.5	Lose2	0.6286	n/a	Yes	2.626	n/a	n/a	GoodResponse	0	n/a	n/a	2	34	Blank	AvoidedLoss	True
332.622	1.45	Lose2	0.6286	n/a	Yes	2.626	n/a	5.0	GoodResponse	0	0.034	331.656	2	34	Feedback	AvoidedLoss	True
334.076	2.626	Lose2	0.6286	n/a	Yes	2.626	n/a	n/a	GoodResponse	0	0.0	n/a	2	34	ISIslide	AvoidedLoss	True
336.718	0.25	Lose2	0.6389	0.0	Yes	2.682	0.018	n/a	GoodResponse	0	n/a	n/a	2	35	Cue	AvoidedLoss	True
336.968	4.0	Lose2	0.6389	0.0	Yes	2.682	0.0	n/a	GoodResponse	0	n/a	n/a	2	35	Fixation	AvoidedLoss	True
340.964	0.21	Lose2	0.6389	0.004	Yes	2.682	-0.004	2.0	GoodResponse	0	0.174	340.138	2	35	Target	AvoidedLoss	True
341.138	0.3	Lose2	0.6389	0.004	Yes	2.682	-0.004	2.0	GoodResponse	0	0.174	n/a	2	35	ButtonPress	AvoidedLoss	True
341.181	0.49	Lose2	0.6389	n/a	Yes	2.682	n/a	n/a	GoodResponse	0	n/a	n/a	2	35	Blank	AvoidedLoss	True
341.666	1.45	Lose2	0.6389	n/a	Yes	2.682	n/a	5.0	GoodResponse	0	0.014	340.68	2	35	Feedback	AvoidedLoss	True
343.12	2.682	Lose2	0.6389	n/a	Yes	2.682	n/a	n/a	GoodResponse	0	0.0	n/a	2	35	ISIslide	AvoidedLoss	True
345.828	0.25	Control	0.6215999999999999	0.0	No	2.672	0.028	n/a	NoResponse	0	n/a	n/a	2	36	Cue	Neutral	True
346.079	4.0	Control	0.6215999999999999	0.0	No	2.672	0.001	n/a	NoResponse	0	n/a	n/a	2	36	Fixation	Neutral	True
350.074	0.22	Control	0.6215999999999999	0.004	No	2.672	-0.004	2.0	NoResponse	0	0.383	349.457	2	36	Target	Neutral	True
350.308	0.48	Control	0.6215999999999999	n/a	No	2.672	n/a	n/a	NoResponse	0	n/a	n/a	2	36	Blank	Neutral	True
350.457	0.3	Control	0.6215999999999999	0.004	No	2.672	-0.004	2.0	NoResponse	0	0.383	n/a	2	36	ButtonPress	Neutral	True
350.776	1.45	Control	0.6215999999999999	n/a	No	2.672	n/a	5.0	NoResponse	0	0.026	349.802	2	36	Feedback	Neutral	True
352.231	2.672	Control	0.6215999999999999	n/a	No	2.672	n/a	n/a	NoResponse	0	0.0	n/a	2	36	ISIslide	Neutral	True
354.922	0.25	Win2	0.6315999999999999	0.0	Yes	2.878	0.022	n/a	GoodResponse	1	n/a	n/a	3	37	Cue	Win	True
355.173	4.0	Win2	0.6315999999999999	0.0	Yes	2.878	0.001	n/a	GoodResponse	1	n/a	n/a	3	37	Fixation	Win	True
359.168	0.23	Win2	0.6315999999999999	0.004	Yes	2.878	-0.004	2.0	GoodResponse	1	0.176	358.344	3	37	Target	Win	True
359.344	0.3	Win2	0.6315999999999999	0.004	Yes	2.878	-0.004	2.0	GoodResponse	1	0.176	n/a	3	37	ButtonPress	Win	True
359.402	0.47	Win2	0.6315999999999999	n/a	Yes	2.878	n/a	n/a	GoodResponse	1	n/a	n/a	3	37	Blank	Win	True
359.87	1.45	Win2	0.6315999999999999	n/a	Yes	2.878	n/a	5.0	GoodResponse	1	0.006	358.876	3	37	Feedback	Win	True
361.325	2.878	Win2	0.6315999999999999	n/a	Yes	2.878	n/a	n/a	GoodResponse	1	0.0	n/a	3	37	ISIslide	Win	True
364.217	0.25	Lose2	0.6409999999999999	0.0	Yes	2.833	0.017	n/a	GoodResponse	0	n/a	n/a	3	38	Cue	AvoidedLoss	True
364.467	3.95	Lose2	0.6409999999999999	0.001	Yes	2.833	0.0	n/a	GoodResponse	0	n/a	n/a	3	38	Fixation	AvoidedLoss	True
368.413	0.24	Lose2	0.6409999999999999	0.004	Yes	2.833	-0.004	2.0	GoodResponse	0	0.18	367.593	3	38	Target	AvoidedLoss	True
368.593	0.3	Lose2	0.6409999999999999	0.004	Yes	2.833	-0.004	2.0	GoodResponse	0	0.18	n/a	3	38	ButtonPress	AvoidedLoss	True
368.663	0.46	Lose2	0.6409999999999999	n/a	Yes	2.833	n/a	n/a	GoodResponse	0	n/a	n/a	3	38	Blank	AvoidedLoss	True
369.115	1.45	Lose2	0.6409999999999999	n/a	Yes	2.833	n/a	5.0	GoodResponse	0	0.029	368.144	3	38	Feedback	AvoidedLoss	True
370.569	2.833	Lose2	0.6409999999999999	n/a	Yes	2.833	n/a	n/a	GoodResponse	0	0.0	n/a	3	38	ISIslide	AvoidedLoss	True
373.428	0.25	Win2	0.65	0.0	Yes	2.972	0.028	n/a	GoodResponse	1	n/a	n/a	4	39	Cue	Win	True
373.678	4.1	Win2	0.65	0.0	Yes	2.972	0.0	n/a	GoodResponse	1	n/a	n/a	4	39	Fixation	Win	True
377.774	0.25	Win2	0.65	0.004	Yes	2.972	-0.004	2.0	GoodResponse	1	0.18	376.954	4	39	Target	Win	True
377.954	0.3	Win2	0.65	0.004	Yes	2.972	-0.004	2.0	GoodResponse	1	0.18	n/a	4	39	ButtonPress	Win	True
378.025	0.45	Win2	0.65	n/a	Yes	2.972	n/a	n/a	GoodResponse	1	n/a	n/a	4	39	Blank	Win	True
378.476	1.45	Win2	0.65	n/a	Yes	2.972	n/a	5.0	GoodResponse	1	0.034	377.51	4	39	Feedback	Win	True
379.93	2.972	Win2	0.65	n/a	Yes	2.972	n/a	n/a	GoodResponse	1	0.0	n/a	4	39	ISIslide	Win	True
382.923	0.25	Win2	0.6585	0.0	Yes	2.727	0.023	n/a	GoodResponse	1	n/a	n/a	5	40	Cue	Win	True
383.174	3.95	Win2	0.6585	0.0	Yes	2.727	0.001	n/a	GoodResponse	1	n/a	n/a	5	40	Fixation	Win	True
387.119	0.26	Win2	0.6585	0.004	Yes	2.727	-0.004	2.0	GoodResponse	1	0.161	386.28	5	40	Target	Win	True
387.28	0.3	Win2	0.6585	0.004	Yes	2.727	-0.004	2.0	GoodResponse	1	0.161	n/a	5	40	ButtonPress	Win	True
387.386	0.44	Win2	0.6585	n/a	Yes	2.727	n/a	n/a	GoodResponse	1	n/a	n/a	5	40	Blank	Win	True
387.821	1.45	Win2	0.6585	n/a	Yes	2.727	n/a	5.0	GoodResponse	1	0.006	386.827	5	40	Feedback	Win	True
389.275	2.727	Win2	0.6585	n/a	Yes	2.727	n/a	n/a	GoodResponse	1	0.0	n/a	5	40	ISIslide	Win	True
392.017	0.25	Win2	0.6667000000000001	0.0	Yes	2.783	0.017	n/a	GoodResponse	1	n/a	n/a	6	41	Cue	Win	True
392.267	3.9	Win2	0.6667000000000001	0.001	Yes	2.783	0.0	n/a	GoodResponse	1	n/a	n/a	6	41	Fixation	Win	True
396.179	0.26	Win2	0.6667000000000001	0.0	Yes	2.783	0.012	2.0	GoodResponse	1	0.173	395.352	6	41	Target	Win	True
396.352	0.3	Win2	0.6667000000000001	0.0	Yes	2.783	0.012	2.0	GoodResponse	1	0.173	n/a	6	41	ButtonPress	Win	True
396.43	0.44	Win2	0.6667000000000001	n/a	Yes	2.783	n/a	n/a	GoodResponse	1	n/a	n/a	6	41	Blank	Win	True
396.865	1.45	Win2	0.6667000000000001	n/a	Yes	2.783	n/a	5.0	GoodResponse	1	0.034	395.899	6	41	Feedback	Win	True
398.319	2.783	Win2	0.6667000000000001	n/a	Yes	2.783	n/a	n/a	GoodResponse	1	0.0	n/a	6	41	ISIslide	Win	True
401.127	0.25	Control	0.6744	0.0	Yes	2.923	0.027	n/a	GoodResponse	0	n/a	n/a	6	42	Cue	Neutral	True
401.378	3.85	Control	0.6744	0.0	Yes	2.923	0.001	n/a	GoodResponse	0	n/a	n/a	6	42	Fixation	Neutral	True
405.223	0.25	Control	0.6744	0.004	Yes	2.923	-0.004	2.0	GoodResponse	0	0.19	404.413	6	42	Target	Neutral	True
405.413	0.3	Control	0.6744	0.004	Yes	2.923	-0.004	2.0	GoodResponse	0	0.19	n/a	6	42	ButtonPress	Neutral	True
405.474	0.45	Control	0.6744	n/a	Yes	2.923	n/a	n/a	GoodResponse	0	n/a	n/a	6	42	Blank	Neutral	True
405.925	1.45	Control	0.6744	n/a	Yes	2.923	n/a	5.0	GoodResponse	0	0.048	404.973	6	42	Feedback	Neutral	True
407.379	2.923	Control	0.6744	n/a	Yes	2.923	n/a	n/a	GoodResponse	0	0.0	n/a	6	42	ISIslide	Neutral	True
410.322	0.25	Win2	0.6818000000000001	0.0	Yes	3.178	0.022	n/a	GoodResponse	1	n/a	n/a	7	43	Cue	Win	True
410.572	4.0	Win2	0.6818000000000001	0.0	Yes	3.178	0.0	n/a	GoodResponse	1	n/a	n/a	7	43	Fixation	Win	True
414.568	0.24	Win2	0.6818000000000001	0.004	Yes	3.178	-0.004	2.0	GoodResponse	1	0.202	413.77	7	43	Target	Win	True
414.77	0.3	Win2	0.6818000000000001	0.004	Yes	3.178	-0.004	2.0	GoodResponse	1	0.202	n/a	7	43	ButtonPress	Win	True
414.818	0.46	Win2	0.6818000000000001	n/a	Yes	3.178	n/a	n/a	GoodResponse	1	n/a	n/a	7	43	Blank	Win	True
415.27	1.45	Win2	0.6818000000000001	n/a	Yes	3.178	n/a	5.0	GoodResponse	1	0.02	414.29	7	43	Feedback	Win	True
416.724	3.178	Win2	0.6818000000000001	n/a	Yes	3.178	n/a	n/a	GoodResponse	1	0.0	n/a	7	43	ISIslide	Win	True
419.917	0.25	Win2	0.6889	0.0	Yes	2.983	0.017	n/a	GoodResponse	1	n/a	n/a	8	44	Cue	Win	True
420.168	4.0	Win2	0.6889	0.0	Yes	2.983	0.001	n/a	GoodResponse	1	n/a	n/a	8	44	Fixation	Win	True
424.163	0.23	Win2	0.6889	0.004	Yes	2.983	-0.004	2.0	GoodResponse	1	0.185	423.348	8	44	Target	Win	True
424.348	0.3	Win2	0.6889	0.004	Yes	2.983	-0.004	2.0	GoodResponse	1	0.185	n/a	8	44	ButtonPress	Win	True
424.397	0.47	Win2	0.6889	n/a	Yes	2.983	n/a	n/a	GoodResponse	1	n/a	n/a	8	44	Blank	Win	True
424.865	1.45	Win2	0.6889	n/a	Yes	2.983	n/a	5.0	GoodResponse	1	0.035	423.9	8	44	Feedback	Win	True
426.319	2.983	Win2	0.6889	n/a	Yes	2.983	n/a	n/a	GoodResponse	1	0.0	n/a	8	44	ISIslide	Win	True
429.328	0.25	Control	0.6957	0.001	Yes	2.872	0.028	n/a	GoodResponse	0	n/a	n/a	8	45	Cue	Neutral	True
429.579	4.1	Control	0.6957	0.0	Yes	2.872	0.001	n/a	GoodResponse	0	n/a	n/a	8	45	Fixation	Neutral	True
433.675	0.22	Control	0.6957	0.003	Yes	2.872	-0.003	2.0	GoodResponse	0	0.187	432.862	8	45	Target	Neutral	True
433.862	0.3	Control	0.6957	0.003	Yes	2.872	-0.003	2.0	GoodResponse	0	0.187	n/a	8	45	ButtonPress	Neutral	True
433.909	0.48	Control	0.6957	n/a	Yes	2.872	n/a	n/a	GoodResponse	0	n/a	n/a	8	45	Blank	Neutral	True
434.377	1.45	Control	0.6957	n/a	Yes	2.872	n/a	5.0	GoodResponse	0	0.035	433.412	8	45	Feedback	Neutral	True
435.831	2.872	Control	0.6957	n/a	Yes	2.872	n/a	n/a	GoodResponse	0	0.0	n/a	8	45	ISIslide	Neutral	True
438.723	0.25	Lose2	0.7021	0.0	Yes	3.377	0.023	n/a	GoodResponse	0	n/a	n/a	8	46	Cue	AvoidedLoss	True
438.974	4.0	Lose2	0.7021	0.0	Yes	3.377	0.001	n/a	GoodResponse	0	n/a	n/a	8	46	Fixation	AvoidedLoss	True
442.969	0.21	Lose2	0.7021	0.004	Yes	3.377	-0.004	2.0	GoodResponse	0	0.174	442.143	8	46	Target	AvoidedLoss	True
443.143	0.3	Lose2	0.7021	0.004	Yes	3.377	-0.004	2.0	GoodResponse	0	0.174	n/a	8	46	ButtonPress	AvoidedLoss	True
443.187	0.49	Lose2	0.7021	n/a	Yes	3.377	n/a	n/a	GoodResponse	0	n/a	n/a	8	46	Blank	AvoidedLoss	True
443.671	1.45	Lose2	0.7021	n/a	Yes	3.377	n/a	5.0	GoodResponse	0	0.009	442.68	8	46	Feedback	AvoidedLoss	True
445.126	3.377	Lose2	0.7021	n/a	Yes	3.377	n/a	n/a	GoodResponse	0	0.0	n/a	8	46	ISIslide	AvoidedLoss	True
448.519	0.25	Lose2	0.6875	0.0	No	2.681	0.019	n/a	NoResponse	-1	n/a	n/a	7	47	Cue	Loss	True
448.77	4.0	Lose2	0.6875	0.0	No	2.681	0.001	n/a	NoResponse	-1	n/a	n/a	7	47	Fixation	Loss	True
452.765	0.2	Lose2	0.6875	0.004	No	2.681	-0.004	2.0	NoResponse	-1	0.219	451.984	7	47	Target	Loss	True
452.966	0.5	Lose2	0.6875	n/a	No	2.681	n/a	n/a	NoResponse	-1	n/a	n/a	7	47	Blank	Loss	True
452.984	0.3	Lose2	0.6875	0.004	No	2.681	-0.004	2.0	NoResponse	-1	0.219	n/a	7	47	ButtonPress	Loss	True
453.467	1.45	Lose2	0.6875	n/a	No	2.681	n/a	5.0	NoResponse	-1	0.017	452.484	7	47	Feedback	Loss	True
454.922	2.681	Lose2	0.6875	n/a	No	2.681	n/a	n/a	NoResponse	-1	0.0	n/a	7	47	ISIslide	Loss	True
457.613	0.25	Lose2	0.6939	0.0	Yes	3.037	0.013	n/a	GoodResponse	0	n/a	n/a	7	48	Cue	AvoidedLoss	True
457.864	3.95	Lose2	0.6939	0.0	Yes	3.037	0.001	n/a	GoodResponse	0	n/a	n/a	7	48	Fixation	AvoidedLoss	True
461.809	0.19	Lose2	0.6939	0.004	Yes	3.037	-0.004	2.0	GoodResponse	0	0.181	460.99	7	48	Target	AvoidedLoss	True
461.99	0.3	Lose2	0.6939	0.004	Yes	3.037	-0.004	2.0	GoodResponse	0	0.181	n/a	7	48	ButtonPress	AvoidedLoss	True
462.01	0.51	Lose2	0.6939	n/a	Yes	3.037	n/a	n/a	GoodResponse	0	n/a	n/a	7	48	Blank	AvoidedLoss	True
462.511	1.45	Lose2	0.6939	n/a	Yes	3.037	n/a	5.0	GoodResponse	0	0.047	461.558	7	48	Feedback	AvoidedLoss	True
463.966	3.037	Lose2	0.6939	n/a	Yes	3.037	n/a	n/a	GoodResponse	0	0.0	n/a	7	48	ISIslide	AvoidedLoss	True
467.025	0.25	Control	0.68	0.0	No	2.875	0.025	n/a	NoResponse	0	n/a	n/a	7	49	Cue	Neutral	True
467.276	4.0	Control	0.68	0.0	No	2.875	0.001	n/a	NoResponse	0	n/a	n/a	7	49	Fixation	Neutral	True
471.271	0.18	Control	0.68	0.004	No	2.875	-0.004	2.0	NoResponse	0	0.194	470.465	7	49	Target	Neutral	True
471.455	0.52	Control	0.68	n/a	No	2.875	n/a	n/a	NoResponse	0	n/a	n/a	7	49	Blank	Neutral	True
471.465	0.3	Control	0.68	0.004	No	2.875	-0.004	2.0	NoResponse	0	0.194	n/a	7	49	ButtonPress	Neutral	True
471.973	1.45	Control	0.68	n/a	No	2.875	n/a	5.0	NoResponse	0	0.048	471.021	7	49	Feedback	Neutral	True
473.427	2.875	Control	0.68	n/a	No	2.875	n/a	n/a	NoResponse	0	0.0	n/a	7	49	ISIslide	Neutral	True
476.319	0.25	Control	0.6667000000000001	0.0	No	2.781	0.019	n/a	NoResponse	0	n/a	n/a	7	50	Cue	Neutral	True
476.57	4.0	Control	0.6667000000000001	0.0	No	2.781	0.001	n/a	NoResponse	0	n/a	n/a	7	50	Fixation	Neutral	True
480.565	0.17	Control	0.6667000000000001	0.004	No	2.781	-0.004	2.0	NoResponse	0	0.19	479.755	7	50	Target	Neutral	True
480.749	0.53	Control	0.6667000000000001	n/a	No	2.781	n/a	n/a	NoResponse	0	n/a	n/a	7	50	Blank	Neutral	True
480.755	0.3	Control	0.6667000000000001	0.004	No	2.781	-0.004	2.0	NoResponse	0	0.19	n/a	7	50	ButtonPress	Neutral	True
481.267	1.45	Control	0.6667000000000001	n/a	No	2.781	n/a	5.0	NoResponse	0	0.023	480.29	7	50	Feedback	Neutral	True
482.722	2.781	Control	0.6667000000000001	n/a	No	2.781	n/a	n/a	NoResponse	0	0.0	n/a	7	50	ISIslide	Neutral	True
485.513	0.25	Control	0.6537999999999999	0.001	No	2.737	0.013	n/a	NoResponse	0	n/a	n/a	7	51	Cue	Neutral	True
485.764	3.95	Control	0.6537999999999999	0.0	No	2.737	0.001	n/a	NoResponse	0	n/a	n/a	7	51	Fixation	Neutral	True
489.709	0.16	Control	0.6537999999999999	0.004	No	2.737	-0.004	2.0	NoResponse	0	0.221	488.93	7	51	Target	Neutral	True
489.877	0.54	Control	0.6537999999999999	n/a	No	2.737	n/a	n/a	NoResponse	0	n/a	n/a	7	51	Blank	Neutral	True
489.93	0.3	Control	0.6537999999999999	0.004	No	2.737	-0.004	2.0	NoResponse	0	0.221	n/a	7	51	ButtonPress	Neutral	True
490.412	1.45	Control	0.6537999999999999	n/a	No	2.737	n/a	5.0	NoResponse	0	0.0	489.412	7	51	Feedback	Neutral	True
491.866	2.737	Control	0.6537999999999999	n/a	No	2.737	n/a	n/a	NoResponse	0	0.0	n/a	7	51	ISIslide	Neutral	True
494.624	0.25	Control	0.6415000000000001	0.0	No	2.626	0.024	n/a	NoResponse	0	n/a	n/a	7	52	Cue	Neutral	False
494.875	4.05	Control	0.6415000000000001	0.0	No	2.626	0.001	2.0	NoResponse	0	3.819	497.694	7	52	Fixation	Neutral	False
498.694	0.3	Control	0.6415000000000001	0.0	No	2.626	0.001	2.0	NoResponse	0	3.819	n/a	7	52	ButtonPress	Neutral	False
498.92	0.17	Control	0.6415000000000001	0.004	No	2.626	-0.004	2.0	NoResponse	0	0.19	498.11	7	52	Target	Neutral	False
499.104	0.53	Control	0.6415000000000001	n/a	No	2.626	n/a	n/a	NoResponse	0	n/a	n/a	7	52	Blank	Neutral	False
499.11	0.3	Control	0.6415000000000001	0.004	No	2.626	-0.004	2.0	NoResponse	0	0.19	n/a	7	52	ButtonPress	Neutral	False
499.622	1.45	Control	0.6415000000000001	n/a	No	2.626	n/a	5.0	NoResponse	0	0.009	498.631	7	52	Feedback	Neutral	False
501.077	2.626	Control	0.6415000000000001	n/a	No	2.626	n/a	n/a	NoResponse	0	0.0	n/a	7	52	ISIslide	Neutral	False
503.718	0.25	Win2	0.6296	0.0	No	2.932	0.018	n/a	NoResponse	0	n/a	n/a	7	53	Cue	MissedWin	True
503.969	4.05	Win2	0.6296	0.0	No	2.932	0.001	n/a	NoResponse	0	n/a	n/a	7	53	Fixation	MissedWin	True
508.014	0.18	Win2	0.6296	0.004	No	2.932	-0.004	2.0	NoResponse	0	0.198	507.212	7	53	Target	MissedWin	True
508.198	0.52	Win2	0.6296	n/a	No	2.932	n/a	n/a	NoResponse	0	n/a	n/a	7	53	Blank	MissedWin	True
508.212	0.3	Win2	0.6296	0.004	No	2.932	-0.004	2.0	NoResponse	0	0.198	n/a	7	53	ButtonPress	MissedWin	True
508.716	1.45	Win2	0.6296	n/a	No	2.932	n/a	5.0	NoResponse	0	0.037	507.753	7	53	Feedback	MissedWin	True
510.171	2.932	Win2	0.6296	n/a	No	2.932	n/a	n/a	NoResponse	0	0.0	n/a	7	53	ISIslide	MissedWin	True
513.13	0.25	Win2	0.6364	0.0	Yes	2.72	0.03	n/a	GoodResponse	1	n/a	n/a	8	54	Cue	Win	True
513.38	3.95	Win2	0.6364	0.0	Yes	2.72	0.0	n/a	GoodResponse	1	n/a	n/a	8	54	Fixation	Win	True
517.342	0.19	Win2	0.6364	0.0	Yes	2.72	0.012	2.0	GoodResponse	1	0.18	516.522	8	54	Target	Win	True
517.522	0.3	Win2	0.6364	0.0	Yes	2.72	0.012	2.0	GoodResponse	1	0.18	n/a	8	54	ButtonPress	Win	True
517.526	0.51	Win2	0.6364	n/a	Yes	2.72	n/a	n/a	GoodResponse	1	n/a	n/a	8	54	Blank	Win	True
518.028	1.45	Win2	0.6364	n/a	Yes	2.72	n/a	5.0	GoodResponse	1	0.042	517.07	8	54	Feedback	Win	True
519.482	2.72	Win2	0.6364	n/a	Yes	2.72	n/a	n/a	GoodResponse	1	0.0	n/a	8	54	ISIslide	Win	True
522.223	0.25	Control	0.625	0.001	No	3.027	0.023	n/a	NoResponse	0	n/a	n/a	8	55	Cue	Neutral	True
522.474	3.95	Control	0.625	0.0	No	3.027	0.001	n/a	NoResponse	0	n/a	n/a	8	55	Fixation	Neutral	True
526.419	0.2	Control	0.625	0.004	No	3.027	-0.004	2.0	NoResponse	0	0.286	525.705	8	55	Target	Neutral	True
526.62	0.5	Control	0.625	n/a	No	3.027	n/a	n/a	NoResponse	0	n/a	n/a	8	55	Blank	Neutral	True
526.705	0.3	Control	0.625	0.004	No	3.027	-0.004	2.0	NoResponse	0	0.286	n/a	8	55	ButtonPress	Neutral	True
527.122	1.45	Control	0.625	n/a	No	3.027	n/a	5.0	NoResponse	0	0.021	526.143	8	55	Feedback	Neutral	True
528.576	3.027	Control	0.625	n/a	No	3.027	n/a	n/a	NoResponse	0	0.0	n/a	8	55	ISIslide	Neutral	True
531.618	0.25	Control	0.614	0.0	No	2.832	0.018	n/a	NoResponse	0	n/a	n/a	8	56	Cue	Neutral	True
531.869	3.95	Control	0.614	0.0	No	2.832	0.001	2.0	NoResponse	0	3.867	534.736	8	56	Fixation	Neutral	True
535.736	0.3	Control	0.614	0.0	No	2.832	0.001	2.0	NoResponse	0	3.867	n/a	8	56	ButtonPress	Neutral	True
535.814	0.21	Control	0.614	0.004	No	2.832	-0.004	n/a	NoResponse	0	n/a	n/a	8	56	Target	Neutral	True
536.032	0.49	Control	0.614	n/a	No	2.832	n/a	n/a	NoResponse	0	n/a	n/a	8	56	Blank	Neutral	True
536.516	1.45	Control	0.614	n/a	No	2.832	n/a	5.0	NoResponse	0	0.042	535.558	8	56	Feedback	Neutral	True
537.971	2.832	Control	0.614	n/a	No	2.832	n/a	n/a	NoResponse	0	0.0	n/a	8	56	ISIslide	Neutral	True
540.829	0.25	Control	0.6034	0.0	No	3.471	0.029	n/a	NoResponse	0	n/a	n/a	8	57	Cue	Neutral	True
541.08	4.0	Control	0.6034	0.0	No	3.471	0.001	n/a	NoResponse	0	n/a	n/a	8	57	Fixation	Neutral	True
545.075	0.22	Control	0.6034	0.004	No	3.471	-0.004	2.0	NoResponse	0	0.253	544.328	8	57	Target	Neutral	True
545.309	0.48	Control	0.6034	n/a	No	3.471	n/a	n/a	NoResponse	0	n/a	n/a	8	57	Blank	Neutral	True
545.328	0.3	Control	0.6034	0.004	No	3.471	-0.004	2.0	NoResponse	0	0.253	n/a	8	57	ButtonPress	Neutral	True
545.777	1.45	Control	0.6034	n/a	No	3.471	n/a	5.0	NoResponse	0	0.049	544.826	8	57	Feedback	Neutral	True
547.232	3.471	Control	0.6034	n/a	No	3.471	n/a	n/a	NoResponse	0	0.0	n/a	8	57	ISIslide	Neutral	True
550.726	0.25	Win2	0.6102000000000001	0.0	Yes	2.724	0.026	n/a	GoodResponse	1	n/a	n/a	9	58	Cue	Win	False
550.976	4.05	Win2	0.6102000000000001	0.0	Yes	2.724	0.0	2.0	GoodResponse	1	0.096	550.072	9	58	Fixation	Win	False
551.072	0.3	Win2	0.6102000000000001	0.0	Yes	2.724	0.0	2.0	GoodResponse	1	0.096	n/a	9	58	ButtonPress	Win	False
555.022	0.23	Win2	0.6102000000000001	0.004	Yes	2.724	-0.004	2.0	GoodResponse	1	0.175	554.197	9	58	Target	Win	False
555.197	0.3	Win2	0.6102000000000001	0.004	Yes	2.724	-0.004	2.0	GoodResponse	1	0.175	n/a	9	58	ButtonPress	Win	False
555.256	0.47	Win2	0.6102000000000001	n/a	Yes	2.724	n/a	n/a	GoodResponse	1	n/a	n/a	9	58	Blank	Win	False
555.724	1.45	Win2	0.6102000000000001	n/a	Yes	2.724	n/a	5.0	GoodResponse	1	0.006	554.73	9	58	Feedback	Win	False
557.178	2.724	Win2	0.6102000000000001	n/a	Yes	2.724	n/a	n/a	GoodResponse	1	0.0	n/a	9	58	ISIslide	Win	False
559.92	0.25	Lose2	0.6167	0.0	Yes	2.68	0.02	n/a	GoodResponse	0	n/a	n/a	9	59	Cue	AvoidedLoss	True
560.171	4.0	Lose2	0.6167	0.0	Yes	2.68	0.001	n/a	GoodResponse	0	n/a	n/a	9	59	Fixation	AvoidedLoss	True
564.166	0.24	Lose2	0.6167	0.004	Yes	2.68	-0.004	2.0	GoodResponse	0	0.186	563.352	9	59	Target	AvoidedLoss	True
564.352	0.3	Lose2	0.6167	0.004	Yes	2.68	-0.004	2.0	GoodResponse	0	0.186	n/a	9	59	ButtonPress	AvoidedLoss	True
564.417	0.46	Lose2	0.6167	n/a	Yes	2.68	n/a	n/a	GoodResponse	0	n/a	n/a	9	59	Blank	AvoidedLoss	True
564.868	1.45	Lose2	0.6167	n/a	Yes	2.68	n/a	5.0	GoodResponse	0	0.031	563.899	9	59	Feedback	AvoidedLoss	True
566.322	2.68	Lose2	0.6167	n/a	Yes	2.68	n/a	n/a	GoodResponse	0	0.0	n/a	9	59	ISIslide	AvoidedLoss	True
569.03	0.25	Control	0.6065999999999999	0.0	No	2.67	0.03	n/a	NoResponse	0	n/a	n/a	9	60	Cue	Neutral	False
569.281	4.0	Control	0.6065999999999999	0.0	No	2.67	0.001	n/a	NoResponse	0	n/a	n/a	9	60	Fixation	Neutral	False
573.276	0.25	Control	0.6065999999999999	0.004	No	2.67	-0.004	n/a	NoResponse	0	n/a	n/a	9	60	Target	Neutral	False
573.527	0.45	Control	0.6065999999999999	n/a	No	2.67	n/a	n/a	NoResponse	0	n/a	n/a	9	60	Blank	Neutral	False
573.979	1.45	Control	0.6065999999999999	n/a	No	2.67	n/a	5.0	NoResponse	0	0.041	573.02	9	60	Feedback	Neutral	False
575.433	2.67	Control	0.6065999999999999	n/a	No	2.67	n/a	n/a	NoResponse	0	0.0	n/a	9	60	ISIslide	Neutral	False
578.124	0.25	Lose2	0.6129	0.0	Yes	2.976	0.024	n/a	GoodResponse	0	n/a	n/a	9	61	Cue	AvoidedLoss	True
578.375	4.0	Lose2	0.6129	0.0	Yes	2.976	0.001	n/a	GoodResponse	0	n/a	n/a	9	61	Fixation	AvoidedLoss	True
582.37	0.26	Lose2	0.6129	0.004	Yes	2.976	-0.004	2.0	GoodResponse	0	0.19	581.56	9	61	Target	AvoidedLoss	True
582.56	0.3	Lose2	0.6129	0.004	Yes	2.976	-0.004	2.0	GoodResponse	0	0.19	n/a	9	61	ButtonPress	AvoidedLoss	True
582.638	0.44	Lose2	0.6129	n/a	Yes	2.976	n/a	n/a	GoodResponse	0	n/a	n/a	9	61	Blank	AvoidedLoss	True
583.072	1.45	Lose2	0.6129	n/a	Yes	2.976	n/a	5.0	GoodResponse	0	0.022	582.094	9	61	Feedback	AvoidedLoss	True
584.527	2.976	Lose2	0.6129	n/a	Yes	2.976	n/a	n/a	GoodResponse	0	0.0	n/a	9	61	ISIslide	AvoidedLoss	True
587.519	0.25	Lose2	0.619	0.0	Yes	2.881	0.019	n/a	GoodResponse	0	n/a	n/a	9	62	Cue	AvoidedLoss	True
587.77	3.9	Lose2	0.619	0.0	Yes	2.881	0.001	n/a	GoodResponse	0	n/a	n/a	9	62	Fixation	AvoidedLoss	True
591.665	0.27	Lose2	0.619	0.004	Yes	2.881	-0.004	2.0	GoodResponse	0	0.178	590.843	9	62	Target	AvoidedLoss	True
591.843	0.3	Lose2	0.619	0.004	Yes	2.881	-0.004	2.0	GoodResponse	0	0.178	n/a	9	62	ButtonPress	AvoidedLoss	True
591.949	0.43	Lose2	0.619	n/a	Yes	2.881	n/a	n/a	GoodResponse	0	n/a	n/a	9	62	Blank	AvoidedLoss	True
592.367	1.45	Lose2	0.619	n/a	Yes	2.881	n/a	5.0	GoodResponse	0	0.044	591.411	9	62	Feedback	AvoidedLoss	True
593.821	2.881	Lose2	0.619	n/a	Yes	2.881	n/a	n/a	GoodResponse	0	0.0	n/a	9	62	ISIslide	AvoidedLoss	True
596.73	0.25	Lose2	0.625	0.0	Yes	2.62	0.03	n/a	GoodResponse	0	n/a	n/a	9	63	Cue	AvoidedLoss	False
596.981	4.05	Lose2	0.625	0.0	Yes	2.62	0.001	2.0	GoodResponse	0	3.916	599.897	9	63	Fixation	AvoidedLoss	False
600.897	0.3	Lose2	0.625	0.0	Yes	2.62	0.001	2.0	GoodResponse	0	3.916	n/a	9	63	ButtonPress	AvoidedLoss	False
601.026	0.28	Lose2	0.625	0.004	Yes	2.62	-0.004	2.0	GoodResponse	0	0.229	600.255	9	63	Target	AvoidedLoss	False
601.255	0.3	Lose2	0.625	0.004	Yes	2.62	-0.004	2.0	GoodResponse	0	0.229	n/a	9	63	ButtonPress	AvoidedLoss	False
601.31	0.42	Lose2	0.625	n/a	Yes	2.62	n/a	n/a	GoodResponse	0	n/a	n/a	9	63	Blank	AvoidedLoss	False
601.728	1.45	Lose2	0.625	n/a	Yes	2.62	n/a	5.0	GoodResponse	0	0.049	600.777	9	63	Feedback	AvoidedLoss	False
603.183	2.62	Lose2	0.625	n/a	Yes	2.62	n/a	n/a	GoodResponse	0	0.0	n/a	9	63	ISIslide	AvoidedLoss	False
605.824	0.25	Win2	0.6154	0.0	No	3.126	0.024	n/a	NoResponse	0	n/a	n/a	9	64	Cue	MissedWin	True
606.075	4.15	Win2	0.6154	0.0	No	3.126	0.001	n/a	NoResponse	0	n/a	n/a	9	64	Fixation	MissedWin	True
610.221	0.29	Win2	0.6154	0.003	No	3.126	-0.003	2.0	NoResponse	0	0.385	609.606	9	64	Target	MissedWin	True
610.521	0.41	Win2	0.6154	n/a	No	3.126	n/a	n/a	NoResponse	0	n/a	n/a	9	64	Blank	MissedWin	True
610.606	0.3	Win2	0.6154	0.003	No	3.126	-0.003	2.0	NoResponse	0	0.385	n/a	9	64	ButtonPress	MissedWin	True
610.923	1.45	Win2	0.6154	n/a	No	3.126	n/a	5.0	NoResponse	0	0.025	609.948	9	64	Feedback	MissedWin	True
612.377	3.126	Win2	0.6154	n/a	No	3.126	n/a	n/a	NoResponse	0	0.0	n/a	9	64	ISIslide	MissedWin	True
615.52	0.25	Control	0.6212	0.0	Yes	2.78	0.02	n/a	GoodResponse	0	n/a	n/a	9	65	Cue	Neutral	True
615.77	4.0	Control	0.6212	0.001	Yes	2.78	0.0	n/a	GoodResponse	0	n/a	n/a	9	65	Fixation	Neutral	True
619.766	0.3	Control	0.6212	0.004	Yes	2.78	-0.004	2.0	GoodResponse	0	0.172	618.938	9	65	Target	Neutral	True
619.938	0.3	Control	0.6212	0.004	Yes	2.78	-0.004	2.0	GoodResponse	0	0.172	n/a	9	65	ButtonPress	Neutral	True
620.067	0.4	Control	0.6212	n/a	Yes	2.78	n/a	n/a	GoodResponse	0	n/a	n/a	9	65	Blank	Neutral	True
620.468	1.45	Control	0.6212	n/a	Yes	2.78	n/a	5.0	GoodResponse	0	0.041	619.509	9	65	Feedback	Neutral	True
621.922	2.78	Control	0.6212	n/a	Yes	2.78	n/a	n/a	GoodResponse	0	0.0	n/a	9	65	ISIslide	Neutral	True
624.714	0.25	Win2	0.6119	0.0	No	2.786	0.014	n/a	PrematurePress	0	n/a	n/a	9	66	Cue	MissedWin	False
624.965	3.9	Win2	0.6119	0.0	No	2.786	0.001	2.0	PrematurePress	0	3.579	627.544	9	66	Fixation	MissedWin	False
628.544	0.3	Win2	0.6119	0.0	No	2.786	0.001	2.0	PrematurePress	0	3.579	n/a	9	66	ButtonPress	MissedWin	False
628.86	0.31	Win2	0.6119	0.004	No	2.786	-0.004	2.0	PrematurePress	0	0.056	627.916	9	66	Target	MissedWin	False
628.916	0.3	Win2	0.6119	0.004	No	2.786	-0.004	2.0	PrematurePress	0	0.056	n/a	9	66	ButtonPress	MissedWin	False
629.177	0.39	Win2	0.6119	n/a	No	2.786	n/a	n/a	PrematurePress	0	n/a	n/a	9	66	Blank	MissedWin	False
629.562	1.45	Win2	0.6119	n/a	No	2.786	n/a	5.0	PrematurePress	0	0.02	628.582	9	66	Feedback	MissedWin	False
631.016	2.786	Win2	0.6119	n/a	No	2.786	n/a	n/a	PrematurePress	0	0.0	n/a	9	66	ISIslide	MissedWin	False
633.825	0.25	Control	0.6175999999999999	0.0	Yes	2.725	0.025	n/a	GoodResponse	0	n/a	n/a	9	67	Cue	Neutral	True
634.075	3.95	Control	0.6175999999999999	0.0	Yes	2.725	0.0	n/a	GoodResponse	0	n/a	n/a	9	67	Fixation	Neutral	True
638.037	0.32	Control	0.6175999999999999	0.0	Yes	2.725	0.012	2.0	GoodResponse	0	0.18	637.217	9	67	Target	Neutral	True
638.217	0.3	Control	0.6175999999999999	0.0	Yes	2.725	0.012	2.0	GoodResponse	0	0.18	n/a	9	67	ButtonPress	Neutral	True
638.355	0.38	Control	0.6175999999999999	n/a	Yes	2.725	n/a	n/a	GoodResponse	0	n/a	n/a	9	67	Blank	Neutral	True
638.723	1.45	Control	0.6175999999999999	n/a	Yes	2.725	n/a	5.0	GoodResponse	0	0.029	637.752	9	67	Feedback	Neutral	True
640.177	2.725	Control	0.6175999999999999	n/a	Yes	2.725	n/a	n/a	GoodResponse	0	0.0	n/a	9	67	ISIslide	Neutral	True
642.918	0.25	Win2	0.6232	0.001	Yes	3.082	0.018	n/a	GoodResponse	1	n/a	n/a	10	68	Cue	Win	True
643.169	4.0	Win2	0.6232	0.0	Yes	3.082	0.001	n/a	GoodResponse	1	n/a	n/a	10	68	Fixation	Win	True
647.165	0.33	Win2	0.6232	0.003	Yes	3.082	-0.003	2.0	GoodResponse	1	0.18	646.345	10	68	Target	Win	True
647.345	0.3	Win2	0.6232	0.003	Yes	3.082	-0.003	2.0	GoodResponse	1	0.18	n/a	10	68	ButtonPress	Win	True
647.499	0.37	Win2	0.6232	n/a	Yes	3.082	n/a	n/a	GoodResponse	1	n/a	n/a	10	68	Blank	Win	True
647.867	1.45	Win2	0.6232	n/a	Yes	3.082	n/a	5.0	GoodResponse	1	0.007	646.874	10	68	Feedback	Win	True
649.321	3.082	Win2	0.6232	n/a	Yes	3.082	n/a	n/a	GoodResponse	1	0.0	n/a	10	68	ISIslide	Win	True
652.43	0.25	Win2	0.6286	0.0	Yes	3.22	0.03	n/a	GoodResponse	1	n/a	n/a	11	69	Cue	Win	True
652.681	3.95	Win2	0.6286	0.0	Yes	3.22	0.001	n/a	GoodResponse	1	n/a	n/a	11	69	Fixation	Win	True
656.626	0.34	Win2	0.6286	0.004	Yes	3.22	-0.004	2.0	GoodResponse	1	0.165	655.791	11	69	Target	Win	True
656.791	0.3	Win2	0.6286	0.004	Yes	3.22	-0.004	2.0	GoodResponse	1	0.165	n/a	11	69	ButtonPress	Win	True
656.977	0.36	Win2	0.6286	n/a	Yes	3.22	n/a	n/a	GoodResponse	1	n/a	n/a	11	69	Blank	Win	True
657.328	1.45	Win2	0.6286	n/a	Yes	3.22	n/a	5.0	GoodResponse	1	0.009	656.337	11	69	Feedback	Win	True
658.783	3.22	Win2	0.6286	n/a	Yes	3.22	n/a	n/a	GoodResponse	1	0.0	n/a	11	69	ISIslide	Win	True
662.026	0.25	Lose2	0.6338	0.0	Yes	3.024	0.026	n/a	GoodResponse	0	n/a	n/a	11	70	Cue	AvoidedLoss	True
662.276	4.05	Lose2	0.6338	0.001	Yes	3.024	0.0	n/a	GoodResponse	0	n/a	n/a	11	70	Fixation	AvoidedLoss	True
666.322	0.35	Lose2	0.6338	0.004	Yes	3.024	-0.004	2.0	GoodResponse	0	0.207	665.529	11	70	Target	AvoidedLoss	True
666.529	0.3	Lose2	0.6338	0.004	Yes	3.024	-0.004	2.0	GoodResponse	0	0.207	n/a	11	70	ButtonPress	AvoidedLoss	True
666.673	0.35	Lose2	0.6338	n/a	Yes	3.024	n/a	n/a	GoodResponse	0	n/a	n/a	11	70	Blank	AvoidedLoss	True
667.024	1.45	Lose2	0.6338	n/a	Yes	3.024	n/a	5.0	GoodResponse	0	0.021	666.045	11	70	Feedback	AvoidedLoss	True
668.478	3.024	Lose2	0.6338	n/a	Yes	3.024	n/a	n/a	GoodResponse	0	0.0	n/a	11	70	ISIslide	AvoidedLoss	True
671.521	0.25	Win2	0.6389	0.0	Yes	2.729	0.021	n/a	GoodResponse	1	n/a	n/a	12	71	Cue	Win	True
671.772	4.05	Win2	0.6389	0.0	Yes	2.729	0.001	n/a	GoodResponse	1	n/a	n/a	12	71	Fixation	Win	True
675.817	0.36	Win2	0.6389	0.004	Yes	2.729	-0.004	2.0	GoodResponse	1	0.176	674.993	12	71	Target	Win	True
675.993	0.3	Win2	0.6389	0.004	Yes	2.729	-0.004	2.0	GoodResponse	1	0.176	n/a	12	71	ButtonPress	Win	True
676.185	0.34	Win2	0.6389	n/a	Yes	2.729	n/a	n/a	GoodResponse	1	n/a	n/a	12	71	Blank	Win	True
676.519	1.45	Win2	0.6389	n/a	Yes	2.729	n/a	5.0	GoodResponse	1	0.038	675.557	12	71	Feedback	Win	True
677.974	2.729	Win2	0.6389	n/a	Yes	2.729	n/a	n/a	GoodResponse	1	0.0	n/a	12	71	ISIslide	Win	True
680.732	0.25	Win2	0.6437999999999999	0.0	Yes	2.768	0.032	n/a	GoodResponse	1	n/a	n/a	13	72	Cue	Win	False
680.983	4.1	Win2	0.6437999999999999	0.0	Yes	2.768	0.001	2.0	GoodResponse	1	3.698	683.681	13	72	Fixation	Win	False
684.681	0.3	Win2	0.6437999999999999	0.0	Yes	2.768	0.001	2.0	GoodResponse	1	3.698	n/a	13	72	ButtonPress	Win	False
685.078	0.37	Win2	0.6437999999999999	0.004	Yes	2.768	-0.004	2.0	GoodResponse	1	0.164	684.242	13	72	Target	Win	False
685.242	0.3	Win2	0.6437999999999999	0.004	Yes	2.768	-0.004	2.0	GoodResponse	1	0.164	n/a	13	72	ButtonPress	Win	False
685.463	0.33	Win2	0.6437999999999999	n/a	Yes	2.768	n/a	n/a	GoodResponse	1	n/a	n/a	13	72	Blank	Win	False
685.78	1.45	Win2	0.6437999999999999	n/a	Yes	2.768	n/a	5.0	GoodResponse	1	0.046	684.826	13	72	Feedback	Win	False
687.235	2.768	Win2	0.6437999999999999	n/a	Yes	2.768	n/a	n/a	GoodResponse	1	0.0	n/a	13	72	ISIslide	Win	False
690.026	0.25	Win2	0.6486	0.0	Yes	2.674	0.026	n/a	GoodResponse	1	n/a	n/a	14	73	Cue	Win	True
690.277	4.0	Win2	0.6486	0.0	Yes	2.674	0.001	n/a	GoodResponse	1	n/a	n/a	14	73	Fixation	Win	True
694.272	0.38	Win2	0.6486	0.004	Yes	2.674	-0.004	2.0	GoodResponse	1	0.214	693.486	14	73	Target	Win	True
694.486	0.3	Win2	0.6486	0.004	Yes	2.674	-0.004	2.0	GoodResponse	1	0.214	n/a	14	73	ButtonPress	Win	True
694.657	0.32	Win2	0.6486	n/a	Yes	2.674	n/a	n/a	GoodResponse	1	n/a	n/a	14	73	Blank	Win	True
694.974	1.45	Win2	0.6486	n/a	Yes	2.674	n/a	5.0	GoodResponse	1	0.021	693.995	14	73	Feedback	Win	True
696.429	2.674	Win2	0.6486	n/a	Yes	2.674	n/a	n/a	GoodResponse	1	0.0	n/a	14	73	ISIslide	Win	True
699.12	0.25	Lose2	0.6533	0.0	Yes	2.63	0.02	n/a	GoodResponse	0	n/a	n/a	14	74	Cue	AvoidedLoss	True
699.371	4.05	Lose2	0.6533	0.0	Yes	2.63	0.001	n/a	GoodResponse	0	n/a	n/a	14	74	Fixation	AvoidedLoss	True
703.416	0.39	Lose2	0.6533	0.004	Yes	2.63	-0.004	2.0	GoodResponse	0	0.187	702.603	14	74	Target	AvoidedLoss	True
703.603	0.3	Lose2	0.6533	0.004	Yes	2.63	-0.004	2.0	GoodResponse	0	0.187	n/a	14	74	ButtonPress	AvoidedLoss	True
703.818	0.31	Lose2	0.6533	n/a	Yes	2.63	n/a	n/a	GoodResponse	0	n/a	n/a	14	74	Blank	AvoidedLoss	True
704.119	1.45	Lose2	0.6533	n/a	Yes	2.63	n/a	5.0	GoodResponse	0	0.047	703.166	14	74	Feedback	AvoidedLoss	True
705.573	2.63	Lose2	0.6533	n/a	Yes	2.63	n/a	n/a	GoodResponse	0	0.0	n/a	14	74	ISIslide	AvoidedLoss	True
708.214	0.25	Lose2	0.6579	0.0	Yes	2.936	0.014	n/a	GoodResponse	0	n/a	n/a	14	75	Cue	AvoidedLoss	True
708.465	3.95	Lose2	0.6579	0.0	Yes	2.936	0.001	n/a	GoodResponse	0	n/a	n/a	14	75	Fixation	AvoidedLoss	True
712.41	0.4	Lose2	0.6579	0.004	Yes	2.936	-0.004	2.0	GoodResponse	0	0.216	711.626	14	75	Target	AvoidedLoss	True
712.626	0.3	Lose2	0.6579	0.004	Yes	2.936	-0.004	2.0	GoodResponse	0	0.216	n/a	14	75	ButtonPress	AvoidedLoss	True
712.811	0.3	Lose2	0.6579	n/a	Yes	2.936	n/a	n/a	GoodResponse	0	n/a	n/a	14	75	Blank	AvoidedLoss	True
713.112	1.45	Lose2	0.6579	n/a	Yes	2.936	n/a	5.0	GoodResponse	0	0.03	712.142	14	75	Feedback	AvoidedLoss	True
714.566	2.936	Lose2	0.6579	n/a	Yes	2.936	n/a	n/a	GoodResponse	0	0.0	n/a	14	75	ISIslide	AvoidedLoss	True
717.525	0.25	Control	0.6623	0.0	Yes	3.225	0.025	n/a	GoodResponse	0	n/a	n/a	14	76	Cue	Neutral	True
717.776	4.05	Control	0.6623	0.0	Yes	3.225	0.001	n/a	GoodResponse	0	n/a	n/a	14	76	Fixation	Neutral	True
721.822	0.4	Control	0.6623	0.003	Yes	3.225	-0.003	2.0	GoodResponse	0	0.179	721.001	14	76	Target	Neutral	True
722.001	0.3	Control	0.6623	0.003	Yes	3.225	-0.003	2.0	GoodResponse	0	0.179	n/a	14	76	ButtonPress	Neutral	True
722.223	0.3	Control	0.6623	n/a	Yes	3.225	n/a	n/a	GoodResponse	0	n/a	n/a	14	76	Blank	Neutral	True
722.524	1.45	Control	0.6623	n/a	Yes	3.225	n/a	5.0	GoodResponse	0	0.033	721.557	14	76	Feedback	Neutral	True
723.978	3.225	Control	0.6623	n/a	Yes	3.225	n/a	n/a	GoodResponse	0	0.0	n/a	14	76	ISIslide	Neutral	True
727.221	0.25	Lose2	0.6667000000000001	0.0	Yes	2.579	0.021	n/a	GoodResponse	0	n/a	n/a	14	77	Cue	AvoidedLoss	True
727.472	3.95	Lose2	0.6667000000000001	0.0	Yes	2.579	0.001	n/a	GoodResponse	0	n/a	n/a	14	77	Fixation	AvoidedLoss	True
731.417	0.4	Lose2	0.6667000000000001	0.004	Yes	2.579	-0.004	2.0	GoodResponse	0	0.197	730.614	14	77	Target	AvoidedLoss	True
731.614	0.3	Lose2	0.6667000000000001	0.004	Yes	2.579	-0.004	2.0	GoodResponse	0	0.197	n/a	14	77	ButtonPress	AvoidedLoss	True
731.818	0.3	Lose2	0.6667000000000001	n/a	Yes	2.579	n/a	n/a	GoodResponse	0	n/a	n/a	14	77	Blank	AvoidedLoss	True
732.119	1.45	Lose2	0.6667000000000001	n/a	Yes	2.579	n/a	5.0	GoodResponse	0	0.048	731.167	14	77	Feedback	AvoidedLoss	True
733.573	2.579	Lose2	0.6667000000000001	n/a	Yes	2.579	n/a	n/a	GoodResponse	0	0.0	n/a	14	77	ISIslide	AvoidedLoss	True
