onset	duration	cue_type	current_mean_accuracy	duration_error	is_hit	isi_adjusted	onset_delay	response	response_type	reward	rt	rt_time	total_reward	trial_number	trial_phase	trial_type	one_press
11.097	0.25	Control	1.0	0.0	Yes	2.953	-0.003	n/a	GoodResponse	0	n/a	n/a	0	0	Cue	Neutral	True
11.348	3.85	Control	1.0	0.0	Yes	2.953	0.001	n/a	GoodResponse	0	n/a	n/a	0	0	Fixation	Neutral	True
15.193	0.4	Control	1.0	0.004	Yes	2.953	-0.004	1.0	GoodResponse	0	0.213	14.406	0	0	Target	Neutral	True
15.406	0.3	Control	1.0	0.004	Yes	2.953	-0.004	1.0	GoodResponse	0	0.213	n/a	0	0	ButtonPress	Neutral	True
15.594	0.3	Control	1.0	n/a	Yes	2.953	n/a	n/a	GoodResponse	0	n/a	n/a	0	0	Blank	Neutral	True
15.895	1.45	Control	1.0	n/a	Yes	2.953	n/a	5.0	GoodResponse	0	0.031	14.926	0	0	Feedback	Neutral	True
17.349	2.953	Control	1.0	n/a	Yes	2.953	n/a	n/a	GoodResponse	0	0.0	n/a	0	0	ISIslide	Neutral	True
20.325	0.25	Lose2	1.0	0.0	Yes	2.775	0.025	n/a	GoodResponse	0	n/a	n/a	0	1	Cue	AvoidedLoss	True
20.575	4.0	Lose2	1.0	0.0	Yes	2.775	0.0	n/a	GoodResponse	0	n/a	n/a	0	1	Fixation	AvoidedLoss	True
24.571	0.39	Lose2	1.0	0.004	Yes	2.775	-0.004	1.0	GoodResponse	0	0.241	23.812	0	1	Target	AvoidedLoss	True
24.812	0.3	Lose2	1.0	0.004	Yes	2.775	-0.004	1.0	GoodResponse	0	0.241	n/a	0	1	ButtonPress	AvoidedLoss	True
24.972	0.31	Lose2	1.0	n/a	Yes	2.775	n/a	n/a	GoodResponse	0	n/a	n/a	0	1	Blank	AvoidedLoss	True
25.273	1.45	Lose2	1.0	n/a	Yes	2.775	n/a	5.0	GoodResponse	0	0.019	24.292	0	1	Feedback	AvoidedLoss	True
26.727	2.775	Lose2	1.0	n/a	Yes	2.775	n/a	n/a	GoodResponse	0	0.0	n/a	0	1	ISIslide	AvoidedLoss	True
29.519	0.25	Control	1.0	0.0	Yes	2.581	0.019	n/a	GoodResponse	0	n/a	n/a	0	2	Cue	Neutral	True
29.769	4.1	Control	1.0	0.0	Yes	2.581	0.0	n/a	GoodResponse	0	n/a	n/a	0	2	Fixation	Neutral	True
33.865	0.38	Control	1.0	0.004	Yes	2.581	-0.004	1.0	GoodResponse	0	0.254	33.119	0	2	Target	Neutral	True
34.119	0.3	Control	1.0	0.004	Yes	2.581	-0.004	1.0	GoodResponse	0	0.254	n/a	0	2	ButtonPress	Neutral	True
34.249	0.32	Control	1.0	n/a	Yes	2.581	n/a	n/a	GoodResponse	0	n/a	n/a	0	2	Blank	Neutral	True
34.567	1.45	Control	1.0	n/a	Yes	2.581	n/a	5.0	GoodResponse	0	0.042	33.609	0	2	Feedback	Neutral	True
36.021	2.581	Control	1.0	n/a	Yes	2.581	n/a	n/a	GoodResponse	0	0.0	n/a	0	2	ISIslide	Neutral	True
38.629	0.25	Win2	1.0	0.0	Yes	2.821	0.029	n/a	GoodResponse	1	n/a	n/a	1	3	Cue	Win	True
38.88	3.95	Win2	1.0	0.0	Yes	2.821	0.001	n/a	GoodResponse	1	n/a	n/a	1	3	Fixation	Win	True
42.825	0.37	Win2	1.0	0.004	Yes	2.821	-0.004	1.0	GoodResponse	1	0.237	42.062	1	3	Target	Win	True
43.062	0.3	Win2	1.0	0.004	Yes	2.821	-0.004	1.0	GoodResponse	1	0.237	n/a	1	3	ButtonPress	Win	True
43.209	0.33	Win2	1.0	n/a	Yes	2.821	n/a	n/a	GoodResponse	1	n/a	n/a	1	3	Blank	Win	True
43.527	1.45	Win2	1.0	n/a	Yes	2.821	n/a	5.0	GoodResponse	1	0.008	42.535	1	3	Feedback	Win	True
44.981	2.821	Win2	1.0	n/a	Yes	2.821	n/a	n/a	GoodResponse	1	0.0	n/a	1	3	ISIslide	Win	True
47.823	0.25	Win2	1.0	0.0	Yes	3.277	0.023	n/a	GoodResponse	1	n/a	n/a	2	4	Cue	Win	True
48.074	4.0	Win2	1.0	0.0	Yes	3.277	0.001	n/a	GoodResponse	1	n/a	n/a	2	4	Fixation	Win	True
52.069	0.36	Win2	1.0	0.004	Yes	3.277	-0.004	1.0	GoodResponse	1	0.257	51.326	2	4	Target	Win	True
52.326	0.3	Win2	1.0	0.004	Yes	3.277	-0.004	1.0	GoodResponse	1	0.257	n/a	2	4	ButtonPress	Win	True
52.437	0.34	Win2	1.0	n/a	Yes	3.277	n/a	n/a	GoodResponse	1	n/a	n/a	2	4	Blank	Win	True
52.771	1.45	Win2	1.0	n/a	Yes	3.277	n/a	5.0	GoodResponse	1	0.032	51.803	2	4	Feedback	Win	True
54.226	3.277	Win2	1.0	n/a	Yes	3.277	n/a	n/a	GoodResponse	1	0.0	n/a	2	4	ISIslide	Win	True
57.519	0.25	Win2	1.0	0.0	Yes	2.781	0.019	n/a	GoodResponse	1	n/a	n/a	3	5	Cue	Win	True
57.77	4.0	Win2	1.0	0.0	Yes	2.781	0.001	n/a	GoodResponse	1	n/a	n/a	3	5	Fixation	Win	True
61.765	0.35	Win2	1.0	0.004	Yes	2.781	-0.004	1.0	GoodResponse	1	0.269	61.034	3	5	Target	Win	True
62.034	0.3	Win2	1.0	0.004	Yes	2.781	-0.004	1.0	GoodResponse	1	0.269	n/a	3	5	ButtonPress	Win	True
62.116	0.35	Win2	1.0	n/a	Yes	2.781	n/a	n/a	GoodResponse	1	n/a	n/a	3	5	Blank	Win	True
62.467	1.45	Win2	1.0	n/a	Yes	2.781	n/a	5.0	GoodResponse	1	0.044	61.511	3	5	Feedback	Win	True
63.921	2.781	Win2	1.0	n/a	Yes	2.781	n/a	n/a	GoodResponse	1	0.0	n/a	3	5	ISIslide	Win	True
66.73	0.25	Lose2	1.0	0.0	Yes	2.72	0.03	n/a	GoodResponse	0	n/a	n/a	3	6	Cue	AvoidedLoss	True
66.98	3.95	Lose2	1.0	0.0	Yes	2.72	0.0	n/a	GoodResponse	0	n/a	n/a	3	6	Fixation	AvoidedLoss	True
70.925	0.34	Lose2	1.0	0.005	Yes	2.72	-0.005	1.0	GoodResponse	0	0.241	70.166	3	6	Target	AvoidedLoss	True
71.166	0.3	Lose2	1.0	0.005	Yes	2.72	-0.005	1.0	GoodResponse	0	0.241	n/a	3	6	ButtonPress	AvoidedLoss	True
71.277	0.36	Lose2	1.0	n/a	Yes	2.72	n/a	n/a	GoodResponse	0	n/a	n/a	3	6	Blank	AvoidedLoss	True
71.628	1.45	Lose2	1.0	n/a	Yes	2.72	n/a	5.0	GoodResponse	0	0.006	70.634	3	6	Feedback	AvoidedLoss	True
73.082	2.72	Lose2	1.0	n/a	Yes	2.72	n/a	n/a	GoodResponse	0	0.0	n/a	3	6	ISIslide	AvoidedLoss	True
75.823	0.25	Lose2	1.0	0.001	Yes	4.027	0.023	n/a	GoodResponse	0	n/a	n/a	3	7	Cue	AvoidedLoss	True
76.074	4.05	Lose2	1.0	0.0	Yes	4.027	0.001	n/a	GoodResponse	0	n/a	n/a	3	7	Fixation	AvoidedLoss	True
80.12	0.33	Lose2	1.0	0.003	Yes	4.027	-0.003	1.0	GoodResponse	0	0.232	79.352	3	7	Target	AvoidedLoss	True
80.352	0.3	Lose2	1.0	0.003	Yes	4.027	-0.003	1.0	GoodResponse	0	0.232	n/a	3	7	ButtonPress	AvoidedLoss	True
80.454	0.37	Lose2	1.0	n/a	Yes	4.027	n/a	n/a	GoodResponse	0	n/a	n/a	3	7	Blank	AvoidedLoss	True
80.822	1.45	Lose2	1.0	n/a	Yes	4.027	n/a	5.0	GoodResponse	0	0.03	79.852	3	7	Feedback	AvoidedLoss	True
82.276	4.027	Lose2	1.0	n/a	Yes	4.027	n/a	n/a	GoodResponse	0	0.0	n/a	3	7	ISIslide	AvoidedLoss	True
86.321	0.25	Lose2	1.0	0.001	Yes	3.029	0.021	n/a	GoodResponse	0	n/a	n/a	3	8	Cue	AvoidedLoss	True
86.572	3.95	Lose2	1.0	0.0	Yes	3.029	0.001	n/a	GoodResponse	0	n/a	n/a	3	8	Fixation	AvoidedLoss	True
90.517	0.32	Lose2	1.0	0.004	Yes	3.029	-0.004	1.0	GoodResponse	0	0.27	89.787	3	8	Target	AvoidedLoss	True
90.787	0.3	Lose2	1.0	0.004	Yes	3.029	-0.004	1.0	GoodResponse	0	0.27	n/a	3	8	ButtonPress	AvoidedLoss	True
90.852	0.38	Lose2	1.0	n/a	Yes	3.029	n/a	n/a	GoodResponse	0	n/a	n/a	3	8	Blank	AvoidedLoss	True
91.219	1.45	Lose2	1.0	n/a	Yes	3.029	n/a	5.0	GoodResponse	0	0.023	90.242	3	8	Feedback	AvoidedLoss	True
92.674	3.029	Lose2	1.0	n/a	Yes	3.029	n/a	n/a	GoodResponse	0	0.0	n/a	3	8	ISIslide	AvoidedLoss	True
95.716	0.25	Lose2	1.0	0.0	Yes	3.134	0.016	n/a	GoodResponse	0	n/a	n/a	3	9	Cue	AvoidedLoss	True
95.967	3.95	Lose2	1.0	0.0	Yes	3.134	0.001	n/a	GoodResponse	0	n/a	n/a	3	9	Fixation	AvoidedLoss	True
99.912	0.31	Lose2	1.0	0.004	Yes	3.134	-0.004	1.0	GoodResponse	0	0.239	99.151	3	9	Target	AvoidedLoss	True
100.151	0.3	Lose2	1.0	0.004	Yes	3.134	-0.004	1.0	GoodResponse	0	0.239	n/a	3	9	ButtonPress	AvoidedLoss	True
100.23	0.39	Lose2	1.0	n/a	Yes	3.134	n/a	n/a	GoodResponse	0	n/a	n/a	3	9	Blank	AvoidedLoss	True
100.614	1.45	Lose2	1.0	n/a	Yes	3.134	n/a	5.0	GoodResponse	0	0.043	99.657	3	9	Feedback	AvoidedLoss	True
102.068	3.134	Lose2	1.0	n/a	Yes	3.134	n/a	n/a	GoodResponse	0	0.0	n/a	3	9	ISIslide	AvoidedLoss	True
105.228	0.25	Control	1.0	0.0	Yes	3.272	0.028	n/a	GoodResponse	0	n/a	n/a	3	10	Cue	Neutral	True
105.479	4.0	Control	1.0	0.0	Yes	3.272	0.001	n/a	GoodResponse	0	n/a	n/a	3	10	Fixation	Neutral	True
109.474	0.3	Control	1.0	0.004	Yes	3.272	-0.004	1.0	GoodResponse	0	0.237	108.711	3	10	Target	Neutral	True
109.711	0.3	Control	1.0	0.004	Yes	3.272	-0.004	1.0	GoodResponse	0	0.237	n/a	3	10	ButtonPress	Neutral	True
109.775	0.4	Control	1.0	n/a	Yes	3.272	n/a	n/a	GoodResponse	0	n/a	n/a	3	10	Blank	Neutral	True
110.176	1.45	Control	1.0	n/a	Yes	3.272	n/a	5.0	GoodResponse	0	0.041	109.217	3	10	Feedback	Neutral	True
111.63	3.272	Control	1.0	n/a	Yes	3.272	n/a	n/a	GoodResponse	0	0.0	n/a	3	10	ISIslide	Neutral	True
114.923	0.25	Lose2	1.0	0.001	Yes	2.727	0.023	n/a	GoodResponse	0	n/a	n/a	3	11	Cue	AvoidedLoss	True
115.174	4.05	Lose2	1.0	0.0	Yes	2.727	0.001	n/a	GoodResponse	0	n/a	n/a	3	11	Fixation	AvoidedLoss	True
119.22	0.29	Lose2	1.0	0.003	Yes	2.727	-0.003	1.0	GoodResponse	0	0.275	118.495	3	11	Target	AvoidedLoss	True
119.495	0.3	Lose2	1.0	0.003	Yes	2.727	-0.003	1.0	GoodResponse	0	0.275	n/a	3	11	ButtonPress	AvoidedLoss	True
119.52	0.41	Lose2	1.0	n/a	Yes	2.727	n/a	n/a	GoodResponse	0	n/a	n/a	3	11	Blank	AvoidedLoss	True
119.922	1.45	Lose2	1.0	n/a	Yes	2.727	n/a	5.0	GoodResponse	0	0.007	118.929	3	11	Feedback	AvoidedLoss	True
121.376	2.727	Lose2	1.0	n/a	Yes	2.727	n/a	n/a	GoodResponse	0	0.0	n/a	3	11	ISIslide	AvoidedLoss	True
124.118	0.25	Control	0.9231	0.0	No	2.982	0.018	n/a	NoResponse	0	n/a	n/a	3	12	Cue	Neutral	True
124.368	3.9	Control	0.9231	0.0	No	2.982	0.0	n/a	NoResponse	0	n/a	n/a	3	12	Fixation	Neutral	True
128.28	0.28	Control	0.9231	0.0	No	2.982	0.012	1.0	NoResponse	0	0.368	127.648	3	12	Target	Neutral	True
128.547	0.42	Control	0.9231	n/a	No	2.982	n/a	n/a	NoResponse	0	n/a	n/a	3	12	Blank	Neutral	True
128.648	0.3	Control	0.9231	0.0	No	2.982	0.012	1.0	NoResponse	0	0.368	n/a	3	12	ButtonPress	Neutral	True
128.965	1.45	Control	0.9231	n/a	No	2.982	n/a	5.0	NoResponse	0	0.033	127.998	3	12	Feedback	Neutral	True
130.42	2.982	Control	0.9231	n/a	No	2.982	n/a	n/a	NoResponse	0	0.0	n/a	3	12	ISIslide	Neutral	True
133.429	0.25	Control	0.8571	0.0	No	2.771	0.029	n/a	LatePress	0	n/a	n/a	3	13	Cue	Neutral	True
133.679	4.0	Control	0.8571	0.0	No	2.771	0.0	n/a	LatePress	0	n/a	n/a	3	13	Fixation	Neutral	True
137.675	0.27	Control	0.8571	0.004	No	2.771	-0.004	1.0	LatePress	0	0.277	136.952	3	13	Target	Neutral	True
137.952	0.3	Control	0.8571	0.004	No	2.771	-0.004	1.0	LatePress	0	0.277	n/a	3	13	ButtonPress	Neutral	True
137.959	0.43	Control	0.8571	n/a	No	2.771	n/a	n/a	LatePress	0	n/a	n/a	3	13	Blank	Neutral	True
138.377	1.45	Control	0.8571	n/a	No	2.771	n/a	5.0	LatePress	0	0.034	137.411	3	13	Feedback	Neutral	True
139.831	2.771	Control	0.8571	n/a	No	2.771	n/a	n/a	LatePress	0	0.0	n/a	3	13	ISIslide	Neutral	True
142.623	0.25	Win2	0.8667	0.0	Yes	2.677	0.023	n/a	GoodResponse	1	n/a	n/a	4	14	Cue	Win	True
142.873	4.1	Win2	0.8667	0.001	Yes	2.677	0.0	n/a	GoodResponse	1	n/a	n/a	4	14	Fixation	Win	True
146.969	0.26	Win2	0.8667	0.004	Yes	2.677	-0.004	1.0	GoodResponse	1	0.245	146.214	4	14	Target	Win	True
147.214	0.3	Win2	0.8667	0.004	Yes	2.677	-0.004	1.0	GoodResponse	1	0.245	n/a	4	14	ButtonPress	Win	True
147.236	0.44	Win2	0.8667	n/a	Yes	2.677	n/a	n/a	GoodResponse	1	n/a	n/a	4	14	Blank	Win	True
147.671	1.45	Win2	0.8667	n/a	Yes	2.677	n/a	5.0	GoodResponse	1	0.009	146.68	4	14	Feedback	Win	True
149.125	2.677	Win2	0.8667	n/a	Yes	2.677	n/a	n/a	GoodResponse	1	0.0	n/a	4	14	ISIslide	Win	True
151.817	0.25	Control	0.875	0.0	Yes	2.983	0.017	n/a	GoodResponse	0	n/a	n/a	4	15	Cue	Neutral	True
152.068	4.0	Control	0.875	0.0	Yes	2.983	0.001	n/a	GoodResponse	0	n/a	n/a	4	15	Fixation	Neutral	True
156.063	0.25	Control	0.875	0.004	Yes	2.983	-0.004	1.0	GoodResponse	0	0.23	155.293	4	15	Target	Neutral	True
156.293	0.3	Control	0.875	0.004	Yes	2.983	-0.004	1.0	GoodResponse	0	0.23	n/a	4	15	ButtonPress	Neutral	True
156.314	0.45	Control	0.875	n/a	Yes	2.983	n/a	n/a	GoodResponse	0	n/a	n/a	4	15	Blank	Neutral	True
156.765	1.45	Control	0.875	n/a	Yes	2.983	n/a	5.0	GoodResponse	0	0.037	155.802	4	15	Feedback	Neutral	True
158.219	2.983	Control	0.875	n/a	Yes	2.983	n/a	n/a	GoodResponse	0	0.0	n/a	4	15	ISIslide	Neutral	True
161.228	0.25	Win2	0.8824	0.0	Yes	2.872	0.028	n/a	GoodResponse	1	n/a	n/a	5	16	Cue	Win	True
161.479	4.0	Win2	0.8824	0.0	Yes	2.872	0.001	n/a	GoodResponse	1	n/a	n/a	5	16	Fixation	Win	True
165.474	0.24	Win2	0.8824	0.004	Yes	2.872	-0.004	1.0	GoodResponse	1	0.231	164.705	5	16	Target	Win	True
165.705	0.3	Win2	0.8824	0.004	Yes	2.872	-0.004	1.0	GoodResponse	1	0.231	n/a	5	16	ButtonPress	Win	True
165.725	0.46	Win2	0.8824	n/a	Yes	2.872	n/a	n/a	GoodResponse	1	n/a	n/a	5	16	Blank	Win	True
166.176	1.45	Win2	0.8824	n/a	Yes	2.872	n/a	5.0	GoodResponse	1	0.041	165.217	5	16	Feedback	Win	True
167.631	2.872	Win2	0.8824	n/a	Yes	2.872	n/a	n/a	GoodResponse	1	0.0	n/a	5	16	ISIslide	Win	True
170.523	0.25	Lose2	0.8332999999999999	0.0	No	2.727	0.023	n/a	NoResponse	-1	n/a	n/a	4	17	Cue	Loss	True
170.773	3.95	Lose2	0.8332999999999999	0.0	No	2.727	0.0	n/a	NoResponse	-1	n/a	n/a	4	17	Fixation	Loss	True
174.735	0.23	Lose2	0.8332999999999999	0.0	No	2.727	0.012	1.0	NoResponse	-1	0.345	174.08	4	17	Target	Loss	True
174.952	0.47	Lose2	0.8332999999999999	n/a	No	2.727	n/a	n/a	NoResponse	-1	n/a	n/a	4	17	Blank	Loss	True
175.08	0.3	Lose2	0.8332999999999999	0.0	No	2.727	0.012	1.0	NoResponse	-1	0.345	n/a	4	17	ButtonPress	Loss	True
175.421	1.45	Lose2	0.8332999999999999	n/a	No	2.727	n/a	5.0	NoResponse	-1	0.014	174.435	4	17	Feedback	Loss	True
176.875	2.727	Lose2	0.8332999999999999	n/a	No	2.727	n/a	n/a	NoResponse	-1	0.0	n/a	4	17	ISIslide	Loss	True
179.616	0.25	Lose2	0.7895	0.0	No	2.734	0.016	n/a	LatePress	-1	n/a	n/a	3	18	Cue	Loss	True
179.867	4.05	Lose2	0.7895	0.0	No	2.734	0.001	n/a	LatePress	-1	n/a	n/a	3	18	Fixation	Loss	True
183.913	0.22	Lose2	0.7895	0.003	No	2.734	-0.003	1.0	LatePress	-1	0.233	183.146	3	18	Target	Loss	True
184.146	0.3	Lose2	0.7895	0.003	No	2.734	-0.003	1.0	LatePress	-1	0.233	n/a	3	18	ButtonPress	Loss	True
184.147	0.48	Lose2	0.7895	n/a	No	2.734	n/a	n/a	LatePress	-1	n/a	n/a	3	18	Blank	Loss	True
184.615	1.45	Lose2	0.7895	n/a	No	2.734	n/a	5.0	LatePress	-1	0.04	183.655	3	18	Feedback	Loss	True
186.069	2.734	Lose2	0.7895	n/a	No	2.734	n/a	n/a	LatePress	-1	0.0	n/a	3	18	ISIslide	Loss	True
188.827	0.25	Control	0.75	0.0	No	2.923	0.027	n/a	NoResponse	0	n/a	n/a	3	19	Cue	Neutral	True
189.078	3.95	Control	0.75	0.0	No	2.923	0.001	n/a	NoResponse	0	n/a	n/a	3	19	Fixation	Neutral	True
193.023	0.21	Control	0.75	0.004	No	2.923	-0.004	1.0	NoResponse	0	0.262	192.285	3	19	Target	Neutral	True
193.24	0.49	Control	0.75	n/a	No	2.923	n/a	n/a	NoResponse	0	n/a	n/a	3	19	Blank	Neutral	True
193.285	0.3	Control	0.75	0.004	No	2.923	-0.004	1.0	NoResponse	0	0.262	n/a	3	19	ButtonPress	Neutral	True
193.725	1.45	Control	0.75	n/a	No	2.923	n/a	5.0	NoResponse	0	0.005	192.73	3	19	Feedback	Neutral	True
195.179	2.923	Control	0.75	n/a	No	2.923	n/a	n/a	NoResponse	0	0.0	n/a	3	19	ISIslide	Neutral	True
198.122	0.25	Control	0.7143	0.0	No	2.628	0.022	n/a	NoResponse	0	n/a	n/a	3	20	Cue	Neutral	True
198.372	4.05	Control	0.7143	0.0	No	2.628	0.0	n/a	NoResponse	0	n/a	n/a	3	20	Fixation	Neutral	True
202.418	0.2	Control	0.7143	0.004	No	2.628	-0.004	1.0	NoResponse	0	0.243	201.661	3	20	Target	Neutral	True
202.618	0.5	Control	0.7143	n/a	No	2.628	n/a	n/a	NoResponse	0	n/a	n/a	3	20	Blank	Neutral	True
202.661	0.3	Control	0.7143	0.004	No	2.628	-0.004	1.0	NoResponse	0	0.243	n/a	3	20	ButtonPress	Neutral	True
203.12	1.45	Control	0.7143	n/a	No	2.628	n/a	5.0	NoResponse	0	0.023	202.143	3	20	Feedback	Neutral	True
204.574	2.628	Control	0.7143	n/a	No	2.628	n/a	n/a	NoResponse	0	0.0	n/a	3	20	ISIslide	Neutral	True
207.215	0.25	Control	0.6818000000000001	0.001	No	2.785	0.015	n/a	NoResponse	0	n/a	n/a	3	21	Cue	Neutral	True
207.466	4.1	Control	0.6818000000000001	0.0	No	2.785	0.001	n/a	NoResponse	0	n/a	n/a	3	21	Fixation	Neutral	True
211.562	0.19	Control	0.6818000000000001	0.003	No	2.785	-0.003	1.0	NoResponse	0	0.224	210.786	3	21	Target	Neutral	True
211.762	0.51	Control	0.6818000000000001	n/a	No	2.785	n/a	n/a	NoResponse	0	n/a	n/a	3	21	Blank	Neutral	True
211.786	0.3	Control	0.6818000000000001	0.003	No	2.785	-0.003	1.0	NoResponse	0	0.224	n/a	3	21	ButtonPress	Neutral	True
212.264	1.45	Control	0.6818000000000001	n/a	No	2.785	n/a	5.0	NoResponse	0	0.0	211.264	3	21	Feedback	Neutral	True
213.718	2.785	Control	0.6818000000000001	n/a	No	2.785	n/a	n/a	NoResponse	0	0.0	n/a	3	21	ISIslide	Neutral	True
216.527	0.25	Control	0.6522	0.0	No	2.773	0.027	n/a	NoResponse	0	n/a	n/a	3	22	Cue	Neutral	True
216.777	4.0	Control	0.6522	0.0	No	2.773	0.0	n/a	NoResponse	0	n/a	n/a	3	22	Fixation	Neutral	True
220.772	0.18	Control	0.6522	0.005	No	2.773	-0.005	1.0	NoResponse	0	0.216	219.988	3	22	Target	Neutral	True
220.956	0.52	Control	0.6522	n/a	No	2.773	n/a	n/a	NoResponse	0	n/a	n/a	3	22	Blank	Neutral	True
220.988	0.3	Control	0.6522	0.005	No	2.773	-0.005	1.0	NoResponse	0	0.216	n/a	3	22	ButtonPress	Neutral	True
221.475	1.45	Control	0.6522	n/a	No	2.773	n/a	5.0	NoResponse	0	0.009	220.484	3	22	Feedback	Neutral	True
222.929	2.773	Control	0.6522	n/a	No	2.773	n/a	n/a	NoResponse	0	0.0	n/a	3	22	ISIslide	Neutral	True
225.721	0.25	Control	0.625	0.0	No	2.779	0.021	n/a	NoResponse	0	n/a	n/a	3	23	Cue	Neutral	True
225.971	3.9	Control	0.625	0.0	No	2.779	0.0	n/a	NoResponse	0	n/a	n/a	3	23	Fixation	Neutral	True
229.883	0.19	Control	0.625	0.0	No	2.779	0.012	1.0	NoResponse	0	0.241	229.124	3	23	Target	Neutral	True
230.067	0.51	Control	0.625	n/a	No	2.779	n/a	n/a	NoResponse	0	n/a	n/a	3	23	Blank	Neutral	True
230.124	0.3	Control	0.625	0.0	No	2.779	0.012	1.0	NoResponse	0	0.241	n/a	3	23	ButtonPress	Neutral	True
230.568	1.45	Control	0.625	n/a	No	2.779	n/a	5.0	NoResponse	0	0.038	229.606	3	23	Feedback	Neutral	True
232.023	2.779	Control	0.625	n/a	No	2.779	n/a	n/a	NoResponse	0	0.0	n/a	3	23	ISIslide	Neutral	True
234.831	0.25	Win2	0.6	0.0	No	3.119	0.031	n/a	NoResponse	0	n/a	n/a	3	24	Cue	MissedWin	True
235.082	3.95	Win2	0.6	0.0	No	3.119	0.001	n/a	NoResponse	0	n/a	n/a	3	24	Fixation	MissedWin	True
239.027	0.2	Win2	0.6	0.004	No	3.119	-0.004	1.0	NoResponse	0	0.293	238.32	3	24	Target	MissedWin	True
239.228	0.5	Win2	0.6	n/a	No	3.119	n/a	n/a	NoResponse	0	n/a	n/a	3	24	Blank	MissedWin	True
239.32	0.3	Win2	0.6	0.004	No	3.119	-0.004	1.0	NoResponse	0	0.293	n/a	3	24	ButtonPress	MissedWin	True
239.729	1.45	Win2	0.6	n/a	No	3.119	n/a	5.0	NoResponse	0	0.047	238.776	3	24	Feedback	MissedWin	True
241.183	3.119	Win2	0.6	n/a	No	3.119	n/a	n/a	NoResponse	0	0.0	n/a	3	24	ISIslide	MissedWin	True
244.326	0.25	Win2	0.5769	0.0	No	3.074	0.026	n/a	NoResponse	0	n/a	n/a	3	25	Cue	MissedWin	True
244.577	4.0	Win2	0.5769	0.0	No	3.074	0.001	n/a	NoResponse	0	n/a	n/a	3	25	Fixation	MissedWin	True
248.572	0.21	Win2	0.5769	0.004	No	3.074	-0.004	1.0	NoResponse	0	0.234	247.806	3	25	Target	MissedWin	True
248.789	0.49	Win2	0.5769	n/a	No	3.074	n/a	n/a	NoResponse	0	n/a	n/a	3	25	Blank	MissedWin	True
248.806	0.3	Win2	0.5769	0.004	No	3.074	-0.004	1.0	NoResponse	0	0.234	n/a	3	25	ButtonPress	MissedWin	True
249.274	1.45	Win2	0.5769	n/a	No	3.074	n/a	5.0	NoResponse	0	0.014	248.288	3	25	Feedback	MissedWin	True
250.729	3.074	Win2	0.5769	n/a	No	3.074	n/a	n/a	NoResponse	0	0.0	n/a	3	25	ISIslide	MissedWin	True
253.821	0.25	Win2	0.5556	0.0	No	2.929	0.021	n/a	LatePress	0	n/a	n/a	3	26	Cue	MissedWin	True
254.072	3.95	Win2	0.5556	0.0	No	2.929	0.001	n/a	LatePress	0	n/a	n/a	3	26	Fixation	MissedWin	True
258.017	0.22	Win2	0.5556	0.004	No	2.929	-0.004	1.0	LatePress	0	0.233	257.25	3	26	Target	MissedWin	True
258.25	0.3	Win2	0.5556	0.004	No	2.929	-0.004	1.0	LatePress	0	0.233	n/a	3	26	ButtonPress	MissedWin	True
258.251	0.48	Win2	0.5556	n/a	No	2.929	n/a	n/a	LatePress	0	n/a	n/a	3	26	Blank	MissedWin	True
258.719	1.45	Win2	0.5556	n/a	No	2.929	n/a	5.0	LatePress	0	0.032	257.751	3	26	Feedback	MissedWin	True
260.173	2.929	Win2	0.5556	n/a	No	2.929	n/a	n/a	LatePress	0	0.0	n/a	3	26	ISIslide	MissedWin	True
263.132	0.25	Lose2	0.5714	0.0	Yes	2.818	0.032	n/a	GoodResponse	0	n/a	n/a	3	27	Cue	AvoidedLoss	True
263.383	4.05	Lose2	0.5714	0.0	Yes	2.818	0.001	n/a	GoodResponse	0	n/a	n/a	3	27	Fixation	AvoidedLoss	True
267.428	0.23	Lose2	0.5714	0.004	Yes	2.818	-0.004	1.0	GoodResponse	0	0.218	266.646	3	27	Target	AvoidedLoss	True
267.646	0.3	Lose2	0.5714	0.004	Yes	2.818	-0.004	1.0	GoodResponse	0	0.218	n/a	3	27	ButtonPress	AvoidedLoss	True
267.662	0.47	Lose2	0.5714	n/a	Yes	2.818	n/a	n/a	GoodResponse	0	n/a	n/a	3	27	Blank	AvoidedLoss	True
268.13	1.45	Lose2	0.5714	n/a	Yes	2.818	n/a	5.0	GoodResponse	0	0.036	267.166	3	27	Feedback	AvoidedLoss	True
269.585	2.818	Lose2	0.5714	n/a	Yes	2.818	n/a	n/a	GoodResponse	0	0.0	n/a	3	27	ISIslide	AvoidedLoss	True
272.427	0.25	Control	0.5517	0.0	No	2.823	0.027	n/a	NoResponse	0	n/a	n/a	3	28	Cue	Neutral	True
272.677	4.05	Control	0.5517	0.0	No	2.823	0.0	n/a	NoResponse	0	n/a	n/a	3	28	Fixation	Neutral	True
276.723	0.24	Control	0.5517	0.004	No	2.823	-0.004	1.0	NoResponse	0	0.267	275.99	3	28	Target	Neutral	True
276.973	0.46	Control	0.5517	n/a	No	2.823	n/a	n/a	NoResponse	0	n/a	n/a	3	28	Blank	Neutral	True
276.99	0.3	Control	0.5517	0.004	No	2.823	-0.004	1.0	NoResponse	0	0.267	n/a	3	28	ButtonPress	Neutral	True
277.425	1.45	Control	0.5517	n/a	No	2.823	n/a	5.0	NoResponse	0	0.009	276.434	3	28	Feedback	Neutral	True
278.879	2.823	Control	0.5517	n/a	No	2.823	n/a	n/a	NoResponse	0	0.0	n/a	3	28	ISIslide	Neutral	True
281.721	0.25	Lose2	0.5667	0.0	Yes	2.829	0.021	n/a	GoodResponse	0	n/a	n/a	3	29	Cue	AvoidedLoss	True
281.972	3.95	Lose2	0.5667	0.0	Yes	2.829	0.001	n/a	GoodResponse	0	n/a	n/a	3	29	Fixation	AvoidedLoss	True
285.917	0.25	Lose2	0.5667	0.004	Yes	2.829	-0.004	1.0	GoodResponse	0	0.204	285.121	3	29	Target	AvoidedLoss	True
286.121	0.3	Lose2	0.5667	0.004	Yes	2.829	-0.004	1.0	GoodResponse	0	0.204	n/a	3	29	ButtonPress	AvoidedLoss	True
286.168	0.45	Lose2	0.5667	n/a	Yes	2.829	n/a	n/a	GoodResponse	0	n/a	n/a	3	29	Blank	AvoidedLoss	True
286.619	1.45	Lose2	0.5667	n/a	Yes	2.829	n/a	5.0	GoodResponse	0	0.034	285.653	3	29	Feedback	AvoidedLoss	True
288.073	2.829	Lose2	0.5667	n/a	Yes	2.829	n/a	n/a	GoodResponse	0	0.0	n/a	3	29	ISIslide	AvoidedLoss	True
290.932	0.25	Win2	0.5806	0.0	Yes	2.768	0.032	n/a	GoodResponse	1	n/a	n/a	4	30	Cue	Win	True
291.183	3.9	Win2	0.5806	0.0	Yes	2.768	0.001	n/a	GoodResponse	1	n/a	n/a	4	30	Fixation	Win	True
295.077	0.26	Win2	0.5806	0.005	Yes	2.768	-0.005	1.0	GoodResponse	1	0.23	294.307	4	30	Target	Win	True
295.307	0.3	Win2	0.5806	0.005	Yes	2.768	-0.005	1.0	GoodResponse	1	0.23	n/a	4	30	ButtonPress	Win	True
295.345	0.44	Win2	0.5806	n/a	Yes	2.768	n/a	n/a	GoodResponse	1	n/a	n/a	4	30	Blank	Win	True
295.78	1.45	Win2	0.5806	n/a	Yes	2.768	n/a	5.0	GoodResponse	1	0.044	294.824	4	30	Feedback	Win	True
297.234	2.768	Win2	0.5806	n/a	Yes	2.768	n/a	n/a	GoodResponse	1	0.0	n/a	4	30	ISIslide	Win	True
300.026	0.25	Lose2	0.5938	0.0	Yes	2.824	0.026	n/a	GoodResponse	0	n/a	n/a	4	31	Cue	AvoidedLoss	True
300.276	4.05	Lose2	0.5938	0.0	Yes	2.824	0.0	n/a	GoodResponse	0	n/a	n/a	4	31	Fixation	AvoidedLoss	True
304.322	0.27	Lose2	0.5938	0.004	Yes	2.824	-0.004	1.0	GoodResponse	0	0.227	303.549	4	31	Target	AvoidedLoss	True
304.549	0.3	Lose2	0.5938	0.004	Yes	2.824	-0.004	1.0	GoodResponse	0	0.227	n/a	4	31	ButtonPress	AvoidedLoss	True
304.606	0.43	Lose2	0.5938	n/a	Yes	2.824	n/a	n/a	GoodResponse	0	n/a	n/a	4	31	Blank	AvoidedLoss	True
305.024	1.45	Lose2	0.5938	n/a	Yes	2.824	n/a	5.0	GoodResponse	0	0.019	304.043	4	31	Feedback	AvoidedLoss	True
306.478	2.824	Lose2	0.5938	n/a	Yes	2.824	n/a	n/a	GoodResponse	0	0.0	n/a	4	31	ISIslide	AvoidedLoss	True
309.32	0.25	Lose2	0.6061	0.0	Yes	2.63	0.02	n/a	GoodResponse	0	n/a	n/a	4	32	Cue	AvoidedLoss	True
309.571	4.15	Lose2	0.6061	0.0	Yes	2.63	0.001	n/a	GoodResponse	0	n/a	n/a	4	32	Fixation	AvoidedLoss	True
313.716	0.28	Lose2	0.6061	0.004	Yes	2.63	-0.004	1.0	GoodResponse	0	0.214	312.93	4	32	Target	AvoidedLoss	True
313.93	0.3	Lose2	0.6061	0.004	Yes	2.63	-0.004	1.0	GoodResponse	0	0.214	n/a	4	32	ButtonPress	AvoidedLoss	True
314.001	0.42	Lose2	0.6061	n/a	Yes	2.63	n/a	n/a	GoodResponse	0	n/a	n/a	4	32	Blank	AvoidedLoss	True
314.419	1.45	Lose2	0.6061	n/a	Yes	2.63	n/a	5.0	GoodResponse	0	0.038	313.457	4	32	Feedback	AvoidedLoss	True
315.873	2.63	Lose2	0.6061	n/a	Yes	2.63	n/a	n/a	GoodResponse	0	0.0	n/a	4	32	ISIslide	AvoidedLoss	True
318.531	0.25	Win2	0.6175999999999999	0.0	Yes	2.669	0.031	n/a	GoodResponse	1	n/a	n/a	5	33	Cue	Win	True
318.782	4.0	Win2	0.6175999999999999	0.0	Yes	2.669	0.001	n/a	GoodResponse	1	n/a	n/a	5	33	Fixation	Win	True
322.777	0.29	Win2	0.6175999999999999	0.004	Yes	2.669	-0.004	1.0	GoodResponse	1	0.23	322.007	5	33	Target	Win	True
323.007	0.3	Win2	0.6175999999999999	0.004	Yes	2.669	-0.004	1.0	GoodResponse	1	0.23	n/a	5	33	ButtonPress	Win	True
323.078	0.41	Win2	0.6175999999999999	n/a	Yes	2.669	n/a	n/a	GoodResponse	1	n/a	n/a	5	33	Blank	Win	True
323.479	1.45	Win2	0.6175999999999999	n/a	Yes	2.669	n/a	5.0	GoodResponse	1	0.006	322.485	5	33	Feedback	Win	True
324.933	2.669	Win2	0.6175999999999999	n/a	Yes	2.669	n/a	n/a	GoodResponse	1	0.0	n/a	5	33	ISIslide	Win	True
327.625	0.25	Lose2	0.6286	0.0	Yes	2.625	0.025	n/a	GoodResponse	0	n/a	n/a	5	34	Cue	AvoidedLoss	True
327.875	4.05	Lose2	0.6286	0.0	Yes	2.625	0.0	n/a	GoodResponse	0	n/a	n/a	5	34	Fixation	AvoidedLoss	True
331.921	0.3	Lose2	0.6286	0.004	Yes	2.625	-0.004	1.0	GoodResponse	0	0.222	331.143	5	34	Target	AvoidedLoss	True
332.143	0.3	Lose2	0.6286	0.004	Yes	2.625	-0.004	1.0	GoodResponse	0	0.222	n/a	5	34	ButtonPress	AvoidedLoss	True
332.222	0.4	Lose2	0.6286	n/a	Yes	2.625	n/a	n/a	GoodResponse	0	n/a	n/a	5	34	Blank	AvoidedLoss	True
332.623	1.45	Lose2	0.6286	n/a	Yes	2.625	n/a	5.0	GoodResponse	0	0.03	331.653	5	34	Feedback	AvoidedLoss	True
334.077	2.625	Lose2	0.6286	n/a	Yes	2.625	n/a	n/a	GoodResponse	0	0.0	n/a	5	34	ISIslide	AvoidedLoss	True
336.718	0.25	Lose2	0.6389	0.0	Yes	2.682	0.018	n/a	GoodResponse	0	n/a	n/a	5	35	Cue	AvoidedLoss	True
336.969	4.0	Lose2	0.6389	0.0	Yes	2.682	0.001	n/a	GoodResponse	0	n/a	n/a	5	35	Fixation	AvoidedLoss	True
340.964	0.31	Lose2	0.6389	0.004	Yes	2.682	-0.004	1.0	GoodResponse	0	0.212	340.176	5	35	Target	AvoidedLoss	True
341.176	0.3	Lose2	0.6389	0.004	Yes	2.682	-0.004	1.0	GoodResponse	0	0.212	n/a	5	35	ButtonPress	AvoidedLoss	True
341.282	0.39	Lose2	0.6389	n/a	Yes	2.682	n/a	n/a	GoodResponse	0	n/a	n/a	5	35	Blank	AvoidedLoss	True
341.666	1.45	Lose2	0.6389	n/a	Yes	2.682	n/a	5.0	GoodResponse	0	0.01	340.676	5	35	Feedback	AvoidedLoss	True
343.121	2.682	Lose2	0.6389	n/a	Yes	2.682	n/a	n/a	GoodResponse	0	0.0	n/a	5	35	ISIslide	AvoidedLoss	True
345.829	0.25	Control	0.6486	0.0	Yes	2.671	0.029	n/a	GoodResponse	0	n/a	n/a	5	36	Cue	Neutral	True
346.08	4.0	Control	0.6486	0.0	Yes	2.671	0.001	n/a	GoodResponse	0	n/a	n/a	5	36	Fixation	Neutral	True
350.075	0.32	Control	0.6486	0.004	Yes	2.671	-0.004	1.0	GoodResponse	0	0.221	349.296	5	36	Target	Neutral	True
350.296	0.3	Control	0.6486	0.004	Yes	2.671	-0.004	1.0	GoodResponse	0	0.221	n/a	5	36	ButtonPress	Neutral	True
350.409	0.38	Control	0.6486	n/a	Yes	2.671	n/a	n/a	GoodResponse	0	n/a	n/a	5	36	Blank	Neutral	True
350.777	1.45	Control	0.6486	n/a	Yes	2.671	n/a	5.0	GoodResponse	0	0.021	349.798	5	36	Feedback	Neutral	True
352.231	2.671	Control	0.6486	n/a	Yes	2.671	n/a	n/a	GoodResponse	0	0.0	n/a	5	36	ISIslide	Neutral	True
354.923	0.25	Win2	0.6579	0.0	Yes	2.877	0.023	n/a	GoodResponse	1	n/a	n/a	6	37	Cue	Win	True
355.173	4.0	Win2	0.6579	0.001	Yes	2.877	0.0	n/a	GoodResponse	1	n/a	n/a	6	37	Fixation	Win	True
359.169	0.33	Win2	0.6579	0.004	Yes	2.877	-0.004	1.0	GoodResponse	1	0.226	358.395	6	37	Target	Win	True
359.395	0.3	Win2	0.6579	0.004	Yes	2.877	-0.004	1.0	GoodResponse	1	0.226	n/a	6	37	ButtonPress	Win	True
359.503	0.37	Win2	0.6579	n/a	Yes	2.877	n/a	n/a	GoodResponse	1	n/a	n/a	6	37	Blank	Win	True
359.871	1.45	Win2	0.6579	n/a	Yes	2.877	n/a	5.0	GoodResponse	1	0.001	358.872	6	37	Feedback	Win	True
361.325	2.877	Win2	0.6579	n/a	Yes	2.877	n/a	n/a	GoodResponse	1	0.0	n/a	6	37	ISIslide	Win	True
364.217	0.25	Lose2	0.6667000000000001	0.0	Yes	2.833	0.017	n/a	GoodResponse	0	n/a	n/a	6	38	Cue	AvoidedLoss	True
364.468	3.95	Lose2	0.6667000000000001	0.0	Yes	2.833	0.001	n/a	GoodResponse	0	n/a	n/a	6	38	Fixation	AvoidedLoss	True
368.413	0.33	Lose2	0.6667000000000001	0.004	Yes	2.833	-0.004	1.0	GoodResponse	0	0.254	367.667	6	38	Target	AvoidedLoss	True
368.667	0.3	Lose2	0.6667000000000001	0.004	Yes	2.833	-0.004	1.0	GoodResponse	0	0.254	n/a	6	38	ButtonPress	AvoidedLoss	True
368.747	0.37	Lose2	0.6667000000000001	n/a	Yes	2.833	n/a	n/a	GoodResponse	0	n/a	n/a	6	38	Blank	AvoidedLoss	True
369.115	1.45	Lose2	0.6667000000000001	n/a	Yes	2.833	n/a	5.0	GoodResponse	0	0.025	368.14	6	38	Feedback	AvoidedLoss	True
370.569	2.833	Lose2	0.6667000000000001	n/a	Yes	2.833	n/a	n/a	GoodResponse	0	0.0	n/a	6	38	ISIslide	AvoidedLoss	True
373.428	0.25	Win2	0.675	0.0	Yes	2.972	0.028	n/a	GoodResponse	1	n/a	n/a	7	39	Cue	Win	True
373.679	4.1	Win2	0.675	0.0	Yes	2.972	0.001	n/a	GoodResponse	1	n/a	n/a	7	39	Fixation	Win	True
377.774	0.32	Win2	0.675	0.004	Yes	2.972	-0.004	1.0	GoodResponse	1	0.243	377.017	7	39	Target	Win	True
378.017	0.3	Win2	0.675	0.004	Yes	2.972	-0.004	1.0	GoodResponse	1	0.243	n/a	7	39	ButtonPress	Win	True
378.109	0.38	Win2	0.675	n/a	Yes	2.972	n/a	n/a	GoodResponse	1	n/a	n/a	7	39	Blank	Win	True
378.476	1.45	Win2	0.675	n/a	Yes	2.972	n/a	5.0	GoodResponse	1	0.029	377.505	7	39	Feedback	Win	True
379.931	2.972	Win2	0.675	n/a	Yes	2.972	n/a	n/a	GoodResponse	1	0.0	n/a	7	39	ISIslide	Win	True
382.923	0.25	Win2	0.6829000000000001	0.0	Yes	2.727	0.023	n/a	GoodResponse	1	n/a	n/a	8	40	Cue	Win	True
383.174	3.95	Win2	0.6829000000000001	0.0	Yes	2.727	0.001	n/a	GoodResponse	1	n/a	n/a	8	40	Fixation	Win	True
387.119	0.31	Win2	0.6829000000000001	0.004	Yes	2.727	-0.004	1.0	GoodResponse	1	0.263	386.382	8	40	Target	Win	True
387.382	0.3	Win2	0.6829000000000001	0.004	Yes	2.727	-0.004	1.0	GoodResponse	1	0.263	n/a	8	40	ButtonPress	Win	True
387.436	0.39	Win2	0.6829000000000001	n/a	Yes	2.727	n/a	n/a	GoodResponse	1	n/a	n/a	8	40	Blank	Win	True
387.821	1.45	Win2	0.6829000000000001	n/a	Yes	2.727	n/a	5.0	GoodResponse	1	0.001	386.822	8	40	Feedback	Win	True
389.275	2.727	Win2	0.6829000000000001	n/a	Yes	2.727	n/a	n/a	GoodResponse	1	0.0	n/a	8	40	ISIslide	Win	True
392.017	0.25	Win2	0.6905	0.0	Yes	2.783	0.017	n/a	GoodResponse	1	n/a	n/a	9	41	Cue	Win	False
392.267	3.9	Win2	0.6905	0.001	Yes	2.783	0.0	1.0	GoodResponse	1	3.585	394.852	9	41	Fixation	Win	False
395.852	0.3	Win2	0.6905	0.001	Yes	2.783	0.0	1.0	GoodResponse	1	3.585	n/a	9	41	ButtonPress	Win	False
396.179	0.3	Win2	0.6905	0.0	Yes	2.783	0.012	1.0	GoodResponse	1	0.239	395.418	9	41	Target	Win	False
396.418	0.3	Win2	0.6905	0.0	Yes	2.783	0.012	1.0	GoodResponse	1	0.239	n/a	9	41	ButtonPress	Win	False
396.463	0.4	Win2	0.6905	n/a	Yes	2.783	n/a	n/a	GoodResponse	1	n/a	n/a	9	41	Blank	Win	False
396.864	1.45	Win2	0.6905	n/a	Yes	2.783	n/a	5.0	GoodResponse	1	0.031	395.895	9	41	Feedback	Win	False
398.319	2.783	Win2	0.6905	n/a	Yes	2.783	n/a	n/a	GoodResponse	1	0.0	n/a	9	41	ISIslide	Win	False
401.127	0.25	Control	0.6744	0.0	No	2.923	0.027	n/a	NoResponse	0	n/a	n/a	9	42	Cue	Neutral	True
401.378	3.85	Control	0.6744	0.0	No	2.923	0.001	n/a	NoResponse	0	n/a	n/a	9	42	Fixation	Neutral	True
405.223	0.29	Control	0.6744	0.004	No	2.923	-0.004	1.0	NoResponse	0	0.402	404.625	9	42	Target	Neutral	True
405.524	0.41	Control	0.6744	n/a	No	2.923	n/a	n/a	NoResponse	0	n/a	n/a	9	42	Blank	Neutral	True
405.625	0.3	Control	0.6744	0.004	No	2.923	-0.004	1.0	NoResponse	0	0.402	n/a	9	42	ButtonPress	Neutral	True
405.925	1.45	Control	0.6744	n/a	No	2.923	n/a	5.0	NoResponse	0	0.043	404.968	9	42	Feedback	Neutral	True
407.379	2.923	Control	0.6744	n/a	No	2.923	n/a	n/a	NoResponse	0	0.0	n/a	9	42	ISIslide	Neutral	True
410.321	0.25	Win2	0.6818000000000001	0.0	Yes	3.179	0.021	n/a	GoodResponse	1	n/a	n/a	10	43	Cue	Win	True
410.572	4.0	Win2	0.6818000000000001	0.0	Yes	3.179	0.001	n/a	GoodResponse	1	n/a	n/a	10	43	Fixation	Win	True
414.567	0.28	Win2	0.6818000000000001	0.004	Yes	3.179	-0.004	1.0	GoodResponse	1	0.267	413.834	10	43	Target	Win	True
414.834	0.3	Win2	0.6818000000000001	0.004	Yes	3.179	-0.004	1.0	GoodResponse	1	0.267	n/a	10	43	ButtonPress	Win	True
414.851	0.42	Win2	0.6818000000000001	n/a	Yes	3.179	n/a	n/a	GoodResponse	1	n/a	n/a	10	43	Blank	Win	True
415.269	1.45	Win2	0.6818000000000001	n/a	Yes	3.179	n/a	5.0	GoodResponse	1	0.016	414.285	10	43	Feedback	Win	True
416.724	3.179	Win2	0.6818000000000001	n/a	Yes	3.179	n/a	n/a	GoodResponse	1	0.0	n/a	10	43	ISIslide	Win	True
419.917	0.25	Win2	0.6889	0.0	Yes	2.983	0.017	n/a	GoodResponse	1	n/a	n/a	11	44	Cue	Win	True
420.167	4.0	Win2	0.6889	0.0	Yes	2.983	0.0	n/a	GoodResponse	1	n/a	n/a	11	44	Fixation	Win	True
424.163	0.27	Win2	0.6889	0.004	Yes	2.983	-0.004	1.0	GoodResponse	1	0.254	423.417	11	44	Target	Win	True
424.417	0.3	Win2	0.6889	0.004	Yes	2.983	-0.004	1.0	GoodResponse	1	0.254	n/a	11	44	ButtonPress	Win	True
424.447	0.43	Win2	0.6889	n/a	Yes	2.983	n/a	n/a	GoodResponse	1	n/a	n/a	11	44	Blank	Win	True
424.865	1.45	Win2	0.6889	n/a	Yes	2.983	n/a	5.0	GoodResponse	1	0.03	423.895	11	44	Feedback	Win	True
426.319	2.983	Win2	0.6889	n/a	Yes	2.983	n/a	n/a	GoodResponse	1	0.0	n/a	11	44	ISIslide	Win	True
429.328	0.25	Control	0.6957	0.0	Yes	2.872	0.028	n/a	GoodResponse	0	n/a	n/a	11	45	Cue	Neutral	True
429.579	4.1	Control	0.6957	0.0	Yes	2.872	0.001	n/a	GoodResponse	0	n/a	n/a	11	45	Fixation	Neutral	True
433.674	0.26	Control	0.6957	0.004	Yes	2.872	-0.004	1.0	GoodResponse	0	0.236	432.91	11	45	Target	Neutral	True
433.91	0.3	Control	0.6957	0.004	Yes	2.872	-0.004	1.0	GoodResponse	0	0.236	n/a	11	45	ButtonPress	Neutral	True
433.942	0.44	Control	0.6957	n/a	Yes	2.872	n/a	n/a	GoodResponse	0	n/a	n/a	11	45	Blank	Neutral	True
434.376	1.45	Control	0.6957	n/a	Yes	2.872	n/a	5.0	GoodResponse	0	0.031	433.407	11	45	Feedback	Neutral	True
435.831	2.872	Control	0.6957	n/a	Yes	2.872	n/a	n/a	GoodResponse	0	0.0	n/a	11	45	ISIslide	Neutral	True
438.723	0.25	Lose2	0.7021	0.0	Yes	3.377	0.023	n/a	GoodResponse	0	n/a	n/a	11	46	Cue	AvoidedLoss	True
438.973	4.0	Lose2	0.7021	0.0	Yes	3.377	0.0	n/a	GoodResponse	0	n/a	n/a	11	46	Fixation	AvoidedLoss	True
442.969	0.25	Lose2	0.7021	0.004	Yes	3.377	-0.004	1.0	GoodResponse	0	0.219	442.188	11	46	Target	AvoidedLoss	True
443.188	0.3	Lose2	0.7021	0.004	Yes	3.377	-0.004	1.0	GoodResponse	0	0.219	n/a	11	46	ButtonPress	AvoidedLoss	True
443.219	0.45	Lose2	0.7021	n/a	Yes	3.377	n/a	n/a	GoodResponse	0	n/a	n/a	11	46	Blank	AvoidedLoss	True
443.671	1.45	Lose2	0.7021	n/a	Yes	3.377	n/a	5.0	GoodResponse	0	0.006	442.677	11	46	Feedback	AvoidedLoss	True
445.125	3.377	Lose2	0.7021	n/a	Yes	3.377	n/a	n/a	GoodResponse	0	0.0	n/a	11	46	ISIslide	AvoidedLoss	True
448.519	0.25	Lose2	0.7082999999999999	0.0	Yes	2.681	0.019	n/a	GoodResponse	0	n/a	n/a	11	47	Cue	AvoidedLoss	True
448.769	4.0	Lose2	0.7082999999999999	0.0	Yes	2.681	0.0	n/a	GoodResponse	0	n/a	n/a	11	47	Fixation	AvoidedLoss	True
452.765	0.24	Lose2	0.7082999999999999	0.004	Yes	2.681	-0.004	1.0	GoodResponse	0	0.232	451.997	11	47	Target	AvoidedLoss	True
452.997	0.3	Lose2	0.7082999999999999	0.004	Yes	2.681	-0.004	1.0	GoodResponse	0	0.232	n/a	11	47	ButtonPress	AvoidedLoss	True
453.015	0.46	Lose2	0.7082999999999999	n/a	Yes	2.681	n/a	n/a	GoodResponse	0	n/a	n/a	11	47	Blank	AvoidedLoss	True
453.467	1.45	Lose2	0.7082999999999999	n/a	Yes	2.681	n/a	5.0	GoodResponse	0	0.013	452.48	11	47	Feedback	AvoidedLoss	True
454.921	2.681	Lose2	0.7082999999999999	n/a	Yes	2.681	n/a	n/a	GoodResponse	0	0.0	n/a	11	47	ISIslide	AvoidedLoss	True
457.629	0.25	Lose2	0.6939	0.0	No	3.021	0.029	n/a	NoResponse	-1	n/a	n/a	10	48	Cue	Loss	True
457.88	3.95	Lose2	0.6939	0.0	No	3.021	0.001	n/a	NoResponse	-1	n/a	n/a	10	48	Fixation	Loss	True
461.825	0.23	Lose2	0.6939	0.004	No	3.021	-0.004	1.0	NoResponse	-1	0.247	461.072	10	48	Target	Loss	True
462.059	0.47	Lose2	0.6939	n/a	No	3.021	n/a	n/a	NoResponse	-1	n/a	n/a	10	48	Blank	Loss	True
462.072	0.3	Lose2	0.6939	0.004	No	3.021	-0.004	1.0	NoResponse	-1	0.247	n/a	10	48	ButtonPress	Loss	True
462.527	1.45	Lose2	0.6939	n/a	No	3.021	n/a	5.0	NoResponse	-1	0.026	461.553	10	48	Feedback	Loss	True
463.981	3.021	Lose2	0.6939	n/a	No	3.021	n/a	n/a	NoResponse	-1	0.0	n/a	10	48	ISIslide	Loss	True
467.024	0.25	Control	0.7	0.0	Yes	2.876	0.024	n/a	GoodResponse	0	n/a	n/a	10	49	Cue	Neutral	True
467.274	4.0	Control	0.7	0.001	Yes	2.876	0.0	n/a	GoodResponse	0	n/a	n/a	10	49	Fixation	Neutral	True
471.27	0.22	Control	0.7	0.004	Yes	2.876	-0.004	1.0	GoodResponse	0	0.218	470.488	10	49	Target	Neutral	True
471.488	0.3	Control	0.7	0.004	Yes	2.876	-0.004	1.0	GoodResponse	0	0.218	n/a	10	49	ButtonPress	Neutral	True
471.504	0.48	Control	0.7	n/a	Yes	2.876	n/a	n/a	GoodResponse	0	n/a	n/a	10	49	Blank	Neutral	True
471.972	1.45	Control	0.7	n/a	Yes	2.876	n/a	5.0	GoodResponse	0	0.043	471.015	10	49	Feedback	Neutral	True
473.426	2.876	Control	0.7	n/a	Yes	2.876	n/a	n/a	GoodResponse	0	0.0	n/a	10	49	ISIslide	Neutral	True
476.318	0.25	Control	0.6862999999999999	0.0	No	2.782	0.018	n/a	NoResponse	0	n/a	n/a	10	50	Cue	Neutral	True
476.569	4.0	Control	0.6862999999999999	0.0	No	2.782	0.001	n/a	NoResponse	0	n/a	n/a	10	50	Fixation	Neutral	True
480.564	0.21	Control	0.6862999999999999	0.004	No	2.782	-0.004	1.0	NoResponse	0	0.247	479.811	10	50	Target	Neutral	True
480.781	0.49	Control	0.6862999999999999	n/a	No	2.782	n/a	n/a	NoResponse	0	n/a	n/a	10	50	Blank	Neutral	True
480.811	0.3	Control	0.6862999999999999	0.004	No	2.782	-0.004	1.0	NoResponse	0	0.247	n/a	10	50	ButtonPress	Neutral	True
481.266	1.45	Control	0.6862999999999999	n/a	No	2.782	n/a	5.0	NoResponse	0	0.018	480.284	10	50	Feedback	Neutral	True
482.721	2.782	Control	0.6862999999999999	n/a	No	2.782	n/a	n/a	NoResponse	0	0.0	n/a	10	50	ISIslide	Neutral	True
485.529	0.25	Control	0.6731	0.0	No	2.721	0.029	n/a	NoResponse	0	n/a	n/a	10	51	Cue	Neutral	True
485.78	3.95	Control	0.6731	0.0	No	2.721	0.001	n/a	NoResponse	0	n/a	n/a	10	51	Fixation	Neutral	True
489.725	0.2	Control	0.6731	0.004	No	2.721	-0.004	1.0	NoResponse	0	0.315	489.04	10	51	Target	Neutral	True
489.925	0.5	Control	0.6731	n/a	No	2.721	n/a	n/a	NoResponse	0	n/a	n/a	10	51	Blank	Neutral	True
490.04	0.3	Control	0.6731	0.004	No	2.721	-0.004	1.0	NoResponse	0	0.315	n/a	10	51	ButtonPress	Neutral	True
490.427	1.45	Control	0.6731	n/a	No	2.721	n/a	5.0	NoResponse	0	0.028	489.455	10	51	Feedback	Neutral	True
491.881	2.721	Control	0.6731	n/a	No	2.721	n/a	n/a	NoResponse	0	0.0	n/a	10	51	ISIslide	Neutral	True
494.623	0.25	Control	0.6604000000000001	0.0	No	2.627	0.023	n/a	NoResponse	0	n/a	n/a	10	52	Cue	Neutral	True
494.874	4.05	Control	0.6604000000000001	0.0	No	2.627	0.001	n/a	NoResponse	0	n/a	n/a	10	52	Fixation	Neutral	True
498.919	0.19	Control	0.6604000000000001	0.004	No	2.627	-0.004	1.0	NoResponse	0	0.244	498.163	10	52	Target	Neutral	True
499.119	0.51	Control	0.6604000000000001	n/a	No	2.627	n/a	n/a	NoResponse	0	n/a	n/a	10	52	Blank	Neutral	True
499.163	0.3	Control	0.6604000000000001	0.004	No	2.627	-0.004	1.0	NoResponse	0	0.244	n/a	10	52	ButtonPress	Neutral	True
499.621	1.45	Control	0.6604000000000001	n/a	No	2.627	n/a	5.0	NoResponse	0	0.007	498.628	10	52	Feedback	Neutral	True
501.075	2.627	Control	0.6604000000000001	n/a	No	2.627	n/a	n/a	NoResponse	0	0.0	n/a	10	52	ISIslide	Neutral	True
503.717	0.25	Win2	0.6481	0.0	No	2.933	0.017	n/a	NoResponse	0	n/a	n/a	10	53	Cue	MissedWin	True
503.967	4.05	Win2	0.6481	0.0	No	2.933	0.0	n/a	NoResponse	0	n/a	n/a	10	53	Fixation	MissedWin	True
508.013	0.19	Win2	0.6481	0.004	No	2.933	-0.004	1.0	NoResponse	0	0.23	507.243	10	53	Target	MissedWin	True
508.213	0.51	Win2	0.6481	n/a	No	2.933	n/a	n/a	NoResponse	0	n/a	n/a	10	53	Blank	MissedWin	True
508.243	0.3	Win2	0.6481	0.004	No	2.933	-0.004	1.0	NoResponse	0	0.23	n/a	10	53	ButtonPress	MissedWin	True
508.715	1.45	Win2	0.6481	n/a	No	2.933	n/a	5.0	NoResponse	0	0.032	507.747	10	53	Feedback	MissedWin	True
510.169	2.933	Win2	0.6481	n/a	No	2.933	n/a	n/a	NoResponse	0	0.0	n/a	10	53	ISIslide	MissedWin	True
513.128	0.25	Win2	0.6364	0.0	No	2.722	0.028	n/a	NoResponse	0	n/a	n/a	10	54	Cue	MissedWin	True
513.379	3.95	Win2	0.6364	0.0	No	2.722	0.001	n/a	NoResponse	0	n/a	n/a	10	54	Fixation	MissedWin	True
517.324	0.2	Win2	0.6364	0.004	No	2.722	-0.004	1.0	NoResponse	0	0.229	516.553	10	54	Target	MissedWin	True
517.524	0.5	Win2	0.6364	n/a	No	2.722	n/a	n/a	NoResponse	0	n/a	n/a	10	54	Blank	MissedWin	True
517.553	0.3	Win2	0.6364	0.004	No	2.722	-0.004	1.0	NoResponse	0	0.229	n/a	10	54	ButtonPress	MissedWin	True
518.026	1.45	Win2	0.6364	n/a	No	2.722	n/a	5.0	NoResponse	0	0.038	517.064	10	54	Feedback	MissedWin	True
519.48	2.722	Win2	0.6364	n/a	No	2.722	n/a	n/a	NoResponse	0	0.0	n/a	10	54	ISIslide	MissedWin	True
522.222	0.25	Control	0.625	0.0	No	3.028	0.022	n/a	NoResponse	0	n/a	n/a	10	55	Cue	Neutral	True
522.472	3.95	Control	0.625	0.001	No	3.028	0.0	n/a	NoResponse	0	n/a	n/a	10	55	Fixation	Neutral	True
526.418	0.21	Control	0.625	0.004	No	3.028	-0.004	1.0	NoResponse	0	0.243	525.661	10	55	Target	Neutral	True
526.635	0.49	Control	0.625	n/a	No	3.028	n/a	n/a	NoResponse	0	n/a	n/a	10	55	Blank	Neutral	True
526.661	0.3	Control	0.625	0.004	No	3.028	-0.004	1.0	NoResponse	0	0.243	n/a	10	55	ButtonPress	Neutral	True
527.12	1.45	Control	0.625	n/a	No	3.028	n/a	5.0	NoResponse	0	0.017	526.137	10	55	Feedback	Neutral	True
528.574	3.028	Control	0.625	n/a	No	3.028	n/a	n/a	NoResponse	0	0.0	n/a	10	55	ISIslide	Neutral	True
531.616	0.25	Control	0.614	0.001	No	2.834	0.016	n/a	NoResponse	0	n/a	n/a	10	56	Cue	Neutral	True
531.867	3.95	Control	0.614	0.0	No	2.834	0.001	n/a	NoResponse	0	n/a	n/a	10	56	Fixation	Neutral	True
535.812	0.22	Control	0.614	0.004	No	2.834	-0.004	1.0	NoResponse	0	0.283	535.095	10	56	Target	Neutral	True
536.046	0.48	Control	0.614	n/a	No	2.834	n/a	n/a	NoResponse	0	n/a	n/a	10	56	Blank	Neutral	True
536.095	0.3	Control	0.614	0.004	No	2.834	-0.004	1.0	NoResponse	0	0.283	n/a	10	56	ButtonPress	Neutral	True
536.514	1.45	Control	0.614	n/a	No	2.834	n/a	5.0	NoResponse	0	0.038	535.552	10	56	Feedback	Neutral	True
537.969	2.834	Control	0.614	n/a	No	2.834	n/a	n/a	NoResponse	0	0.0	n/a	10	56	ISIslide	Neutral	True
540.827	0.25	Control	0.6207	0.0	Yes	3.473	0.027	n/a	GoodResponse	0	n/a	n/a	10	57	Cue	Neutral	True
541.078	4.0	Control	0.6207	0.0	Yes	3.473	0.001	n/a	GoodResponse	0	n/a	n/a	10	57	Fixation	Neutral	True
545.073	0.23	Control	0.6207	0.004	Yes	3.473	-0.004	1.0	GoodResponse	0	0.227	544.3	10	57	Target	Neutral	True
545.3	0.3	Control	0.6207	0.004	Yes	3.473	-0.004	1.0	GoodResponse	0	0.227	n/a	10	57	ButtonPress	Neutral	True
545.307	0.47	Control	0.6207	n/a	Yes	3.473	n/a	n/a	GoodResponse	0	n/a	n/a	10	57	Blank	Neutral	True
545.775	1.45	Control	0.6207	n/a	Yes	3.473	n/a	5.0	GoodResponse	0	0.044	544.819	10	57	Feedback	Neutral	True
547.23	3.473	Control	0.6207	n/a	Yes	3.473	n/a	n/a	GoodResponse	0	0.0	n/a	10	57	ISIslide	Neutral	True
550.723	0.25	Win2	0.6271	0.001	Yes	2.727	0.023	n/a	GoodResponse	1	n/a	n/a	11	58	Cue	Win	True
550.974	4.05	Win2	0.6271	0.0	Yes	2.727	0.001	n/a	GoodResponse	1	n/a	n/a	11	58	Fixation	Win	True
555.02	0.24	Win2	0.6271	0.003	Yes	2.727	-0.003	1.0	GoodResponse	1	0.227	554.247	11	58	Target	Win	True
555.247	0.3	Win2	0.6271	0.003	Yes	2.727	-0.003	1.0	GoodResponse	1	0.227	n/a	11	58	ButtonPress	Win	True
555.27	0.46	Win2	0.6271	n/a	Yes	2.727	n/a	n/a	GoodResponse	1	n/a	n/a	11	58	Blank	Win	True
555.722	1.45	Win2	0.6271	n/a	Yes	2.727	n/a	5.0	GoodResponse	1	0.0	554.722	11	58	Feedback	Win	True
557.176	2.727	Win2	0.6271	n/a	Yes	2.727	n/a	n/a	GoodResponse	1	0.0	n/a	11	58	ISIslide	Win	True
559.918	0.25	Lose2	0.6333	0.0	Yes	2.682	0.018	n/a	GoodResponse	0	n/a	n/a	11	59	Cue	AvoidedLoss	True
560.168	4.0	Lose2	0.6333	0.0	Yes	2.682	0.0	n/a	GoodResponse	0	n/a	n/a	11	59	Fixation	AvoidedLoss	True
564.164	0.25	Lose2	0.6333	0.004	Yes	2.682	-0.004	1.0	GoodResponse	0	0.246	563.41	11	59	Target	AvoidedLoss	True
564.41	0.3	Lose2	0.6333	0.004	Yes	2.682	-0.004	1.0	GoodResponse	0	0.246	n/a	11	59	ButtonPress	AvoidedLoss	True
564.414	0.45	Lose2	0.6333	n/a	Yes	2.682	n/a	n/a	GoodResponse	0	n/a	n/a	11	59	Blank	AvoidedLoss	True
564.866	1.45	Lose2	0.6333	n/a	Yes	2.682	n/a	5.0	GoodResponse	0	0.027	563.893	11	59	Feedback	AvoidedLoss	True
566.32	2.682	Lose2	0.6333	n/a	Yes	2.682	n/a	n/a	GoodResponse	0	0.0	n/a	11	59	ISIslide	AvoidedLoss	True
569.028	0.25	Control	0.6393	0.0	Yes	2.672	0.028	n/a	GoodResponse	0	n/a	n/a	11	60	Cue	Neutral	True
569.279	4.0	Control	0.6393	0.0	Yes	2.672	0.001	n/a	GoodResponse	0	n/a	n/a	11	60	Fixation	Neutral	True
573.274	0.26	Control	0.6393	0.004	Yes	2.672	-0.004	1.0	GoodResponse	0	0.239	572.513	11	60	Target	Neutral	True
573.513	0.3	Control	0.6393	0.004	Yes	2.672	-0.004	1.0	GoodResponse	0	0.239	n/a	11	60	ButtonPress	Neutral	True
573.542	0.44	Control	0.6393	n/a	Yes	2.672	n/a	n/a	GoodResponse	0	n/a	n/a	11	60	Blank	Neutral	True
573.976	1.45	Control	0.6393	n/a	Yes	2.672	n/a	5.0	GoodResponse	0	0.038	573.014	11	60	Feedback	Neutral	True
575.43	2.672	Control	0.6393	n/a	Yes	2.672	n/a	n/a	GoodResponse	0	0.0	n/a	11	60	ISIslide	Neutral	True
578.122	0.25	Lose2	0.6452	0.0	Yes	2.978	0.022	n/a	GoodResponse	0	n/a	n/a	11	61	Cue	AvoidedLoss	True
578.373	4.0	Lose2	0.6452	0.0	Yes	2.978	0.001	n/a	GoodResponse	0	n/a	n/a	11	61	Fixation	AvoidedLoss	True
582.368	0.27	Lose2	0.6452	0.004	Yes	2.978	-0.004	1.0	GoodResponse	0	0.23	581.598	11	61	Target	AvoidedLoss	True
582.598	0.3	Lose2	0.6452	0.004	Yes	2.978	-0.004	1.0	GoodResponse	0	0.23	n/a	11	61	ButtonPress	AvoidedLoss	True
582.652	0.43	Lose2	0.6452	n/a	Yes	2.978	n/a	n/a	GoodResponse	0	n/a	n/a	11	61	Blank	AvoidedLoss	True
583.07	1.45	Lose2	0.6452	n/a	Yes	2.978	n/a	5.0	GoodResponse	0	0.017	582.087	11	61	Feedback	AvoidedLoss	True
584.524	2.978	Lose2	0.6452	n/a	Yes	2.978	n/a	n/a	GoodResponse	0	0.0	n/a	11	61	ISIslide	AvoidedLoss	True
587.517	0.25	Lose2	0.6507999999999999	0.0	Yes	2.883	0.017	n/a	GoodResponse	0	n/a	n/a	11	62	Cue	AvoidedLoss	True
587.767	3.9	Lose2	0.6507999999999999	0.0	Yes	2.883	0.0	n/a	GoodResponse	0	n/a	n/a	11	62	Fixation	AvoidedLoss	True
591.679	0.28	Lose2	0.6507999999999999	0.0	Yes	2.883	0.012	1.0	GoodResponse	0	0.234	590.913	11	62	Target	AvoidedLoss	True
591.913	0.3	Lose2	0.6507999999999999	0.0	Yes	2.883	0.012	1.0	GoodResponse	0	0.234	n/a	11	62	ButtonPress	AvoidedLoss	True
591.946	0.42	Lose2	0.6507999999999999	n/a	Yes	2.883	n/a	n/a	GoodResponse	0	n/a	n/a	11	62	Blank	AvoidedLoss	True
592.364	1.45	Lose2	0.6507999999999999	n/a	Yes	2.883	n/a	5.0	GoodResponse	0	0.04	591.404	11	62	Feedback	AvoidedLoss	True
593.819	2.883	Lose2	0.6507999999999999	n/a	Yes	2.883	n/a	n/a	GoodResponse	0	0.0	n/a	11	62	ISIslide	AvoidedLoss	True
596.727	0.25	Lose2	0.6562	0.0	Yes	2.623	0.027	n/a	GoodResponse	0	n/a	n/a	11	63	Cue	AvoidedLoss	True
596.978	4.05	Lose2	0.6562	0.0	Yes	2.623	0.001	n/a	GoodResponse	0	n/a	n/a	11	63	Fixation	AvoidedLoss	True
601.023	0.29	Lose2	0.6562	0.004	Yes	2.623	-0.004	1.0	GoodResponse	0	0.208	600.231	11	63	Target	AvoidedLoss	True
601.231	0.3	Lose2	0.6562	0.004	Yes	2.623	-0.004	1.0	GoodResponse	0	0.208	n/a	11	63	ButtonPress	AvoidedLoss	True
601.324	0.41	Lose2	0.6562	n/a	Yes	2.623	n/a	n/a	GoodResponse	0	n/a	n/a	11	63	Blank	AvoidedLoss	True
601.726	1.45	Lose2	0.6562	n/a	Yes	2.623	n/a	5.0	GoodResponse	0	0.043	600.769	11	63	Feedback	AvoidedLoss	True
603.18	2.623	Lose2	0.6562	n/a	Yes	2.623	n/a	n/a	GoodResponse	0	0.0	n/a	11	63	ISIslide	AvoidedLoss	True
605.821	0.25	Win2	0.6615000000000001	0.0	Yes	3.129	0.021	n/a	GoodResponse	1	n/a	n/a	12	64	Cue	Win	True
606.072	4.15	Win2	0.6615000000000001	0.0	Yes	3.129	0.001	n/a	GoodResponse	1	n/a	n/a	12	64	Fixation	Win	True
610.218	0.29	Win2	0.6615000000000001	0.003	Yes	3.129	-0.003	1.0	GoodResponse	1	0.241	609.459	12	64	Target	Win	True
610.459	0.3	Win2	0.6615000000000001	0.003	Yes	3.129	-0.003	1.0	GoodResponse	1	0.241	n/a	12	64	ButtonPress	Win	True
610.518	0.41	Win2	0.6615000000000001	n/a	Yes	3.129	n/a	n/a	GoodResponse	1	n/a	n/a	12	64	Blank	Win	True
610.92	1.45	Win2	0.6615000000000001	n/a	Yes	3.129	n/a	5.0	GoodResponse	1	0.02	609.94	12	64	Feedback	Win	True
612.374	3.129	Win2	0.6615000000000001	n/a	Yes	3.129	n/a	n/a	GoodResponse	1	0.0	n/a	12	64	ISIslide	Win	True
615.517	0.25	Control	0.6667000000000001	0.0	Yes	2.783	0.017	n/a	GoodResponse	0	n/a	n/a	12	65	Cue	Neutral	True
615.767	4.0	Control	0.6667000000000001	0.001	Yes	2.783	0.0	n/a	GoodResponse	0	n/a	n/a	12	65	Fixation	Neutral	True
619.763	0.29	Control	0.6667000000000001	0.004	Yes	2.783	-0.004	1.0	GoodResponse	0	0.214	618.977	12	65	Target	Neutral	True
619.977	0.3	Control	0.6667000000000001	0.004	Yes	2.783	-0.004	1.0	GoodResponse	0	0.214	n/a	12	65	ButtonPress	Neutral	True
620.064	0.41	Control	0.6667000000000001	n/a	Yes	2.783	n/a	n/a	GoodResponse	0	n/a	n/a	12	65	Blank	Neutral	True
620.465	1.45	Control	0.6667000000000001	n/a	Yes	2.783	n/a	5.0	GoodResponse	0	0.036	619.501	12	65	Feedback	Neutral	True
621.919	2.783	Control	0.6667000000000001	n/a	Yes	2.783	n/a	n/a	GoodResponse	0	0.0	n/a	12	65	ISIslide	Neutral	True
624.728	0.25	Win2	0.6716	0.0	Yes	2.772	0.028	n/a	GoodResponse	1	n/a	n/a	13	66	Cue	Win	True
624.978	3.9	Win2	0.6716	0.0	Yes	2.772	0.0	n/a	GoodResponse	1	n/a	n/a	13	66	Fixation	Win	True
628.89	0.28	Win2	0.6716	0.0	Yes	2.772	0.012	1.0	GoodResponse	1	0.261	628.151	13	66	Target	Win	True
629.151	0.3	Win2	0.6716	0.0	Yes	2.772	0.012	1.0	GoodResponse	1	0.261	n/a	13	66	ButtonPress	Win	True
629.157	0.42	Win2	0.6716	n/a	Yes	2.772	n/a	n/a	GoodResponse	1	n/a	n/a	13	66	Blank	Win	True
629.575	1.45	Win2	0.6716	n/a	Yes	2.772	n/a	5.0	GoodResponse	1	0.048	628.623	13	66	Feedback	Win	True
631.03	2.772	Win2	0.6716	n/a	Yes	2.772	n/a	n/a	GoodResponse	1	0.0	n/a	13	66	ISIslide	Win	True
633.821	0.25	Control	0.6765000000000001	0.0	Yes	2.729	0.021	n/a	GoodResponse	0	n/a	n/a	13	67	Cue	Neutral	True
634.072	3.95	Control	0.6765000000000001	0.0	Yes	2.729	0.001	n/a	GoodResponse	0	n/a	n/a	13	67	Fixation	Neutral	True
638.017	0.27	Control	0.6765000000000001	0.004	Yes	2.729	-0.004	1.0	GoodResponse	0	0.255	637.272	13	67	Target	Neutral	True
638.272	0.3	Control	0.6765000000000001	0.004	Yes	2.729	-0.004	1.0	GoodResponse	0	0.255	n/a	13	67	ButtonPress	Neutral	True
638.301	0.43	Control	0.6765000000000001	n/a	Yes	2.729	n/a	n/a	GoodResponse	0	n/a	n/a	13	67	Blank	Neutral	True
638.719	1.45	Control	0.6765000000000001	n/a	Yes	2.729	n/a	5.0	GoodResponse	0	0.025	637.744	13	67	Feedback	Neutral	True
640.174	2.729	Control	0.6765000000000001	n/a	Yes	2.729	n/a	n/a	GoodResponse	0	0.0	n/a	13	67	ISIslide	Neutral	True
642.932	0.25	Win2	0.6812	0.0	Yes	3.068	0.032	n/a	GoodResponse	1	n/a	n/a	14	68	Cue	Win	True
643.183	4.0	Win2	0.6812	0.0	Yes	3.068	0.001	n/a	GoodResponse	1	n/a	n/a	14	68	Fixation	Win	True
647.178	0.26	Win2	0.6812	0.004	Yes	3.068	-0.004	1.0	GoodResponse	1	0.228	646.406	14	68	Target	Win	True
647.406	0.3	Win2	0.6812	0.004	Yes	3.068	-0.004	1.0	GoodResponse	1	0.228	n/a	14	68	ButtonPress	Win	True
647.445	0.44	Win2	0.6812	n/a	Yes	3.068	n/a	n/a	GoodResponse	1	n/a	n/a	14	68	Blank	Win	True
647.88	1.45	Win2	0.6812	n/a	Yes	3.068	n/a	5.0	GoodResponse	1	0.035	646.915	14	68	Feedback	Win	True
649.334	3.068	Win2	0.6812	n/a	Yes	3.068	n/a	n/a	GoodResponse	1	0.0	n/a	14	68	ISIslide	Win	True
652.427	0.25	Win2	0.6857	0.0	Yes	3.223	0.027	n/a	GoodResponse	1	n/a	n/a	15	69	Cue	Win	True
652.678	3.95	Win2	0.6857	0.0	Yes	3.223	0.001	n/a	GoodResponse	1	n/a	n/a	15	69	Fixation	Win	True
656.623	0.25	Win2	0.6857	0.004	Yes	3.223	-0.004	1.0	GoodResponse	1	0.203	655.826	15	69	Target	Win	True
656.826	0.3	Win2	0.6857	0.004	Yes	3.223	-0.004	1.0	GoodResponse	1	0.203	n/a	15	69	ButtonPress	Win	True
656.873	0.45	Win2	0.6857	n/a	Yes	3.223	n/a	n/a	GoodResponse	1	n/a	n/a	15	69	Blank	Win	True
657.325	1.45	Win2	0.6857	n/a	Yes	3.223	n/a	5.0	GoodResponse	1	0.007	656.332	15	69	Feedback	Win	True
658.779	3.223	Win2	0.6857	n/a	Yes	3.223	n/a	n/a	GoodResponse	1	0.0	n/a	15	69	ISIslide	Win	True
662.022	0.25	Lose2	0.6901	0.0	Yes	3.028	0.022	n/a	GoodResponse	0	n/a	n/a	15	70	Cue	AvoidedLoss	True
662.273	4.05	Lose2	0.6901	0.0	Yes	3.028	0.001	n/a	GoodResponse	0	n/a	n/a	15	70	Fixation	AvoidedLoss	True
666.318	0.24	Lose2	0.6901	0.004	Yes	3.028	-0.004	1.0	GoodResponse	0	0.201	665.519	15	70	Target	AvoidedLoss	True
666.519	0.3	Lose2	0.6901	0.004	Yes	3.028	-0.004	1.0	GoodResponse	0	0.201	n/a	15	70	ButtonPress	AvoidedLoss	True
666.569	0.46	Lose2	0.6901	n/a	Yes	3.028	n/a	n/a	GoodResponse	0	n/a	n/a	15	70	Blank	AvoidedLoss	True
667.02	1.45	Lose2	0.6901	n/a	Yes	3.028	n/a	5.0	GoodResponse	0	0.017	666.037	15	70	Feedback	AvoidedLoss	True
668.475	3.028	Lose2	0.6901	n/a	Yes	3.028	n/a	n/a	GoodResponse	0	0.0	n/a	15	70	ISIslide	AvoidedLoss	True
671.517	0.25	Win2	0.6944	0.0	Yes	2.733	0.017	n/a	GoodResponse	1	n/a	n/a	16	71	Cue	Win	True
671.768	4.05	Win2	0.6944	0.0	Yes	2.733	0.001	n/a	GoodResponse	1	n/a	n/a	16	71	Fixation	Win	True
675.813	0.23	Win2	0.6944	0.004	Yes	2.733	-0.004	1.0	GoodResponse	1	0.221	675.034	16	71	Target	Win	True
676.034	0.3	Win2	0.6944	0.004	Yes	2.733	-0.004	1.0	GoodResponse	1	0.221	n/a	16	71	ButtonPress	Win	True
676.047	0.47	Win2	0.6944	n/a	Yes	2.733	n/a	n/a	GoodResponse	1	n/a	n/a	16	71	Blank	Win	True
676.515	1.45	Win2	0.6944	n/a	Yes	2.733	n/a	5.0	GoodResponse	1	0.034	675.549	16	71	Feedback	Win	True
677.97	2.733	Win2	0.6944	n/a	Yes	2.733	n/a	n/a	GoodResponse	1	0.0	n/a	16	71	ISIslide	Win	True
680.728	0.25	Win2	0.6849	0.0	No	2.772	0.028	n/a	LatePress	0	n/a	n/a	16	72	Cue	MissedWin	True
680.979	4.1	Win2	0.6849	0.0	No	2.772	0.001	n/a	LatePress	0	n/a	n/a	16	72	Fixation	MissedWin	True
685.074	0.22	Win2	0.6849	0.004	No	2.772	-0.004	1.0	LatePress	0	0.221	684.295	16	72	Target	MissedWin	True
685.295	0.3	Win2	0.6849	0.004	No	2.772	-0.004	1.0	LatePress	0	0.221	n/a	16	72	ButtonPress	MissedWin	True
685.308	0.48	Win2	0.6849	n/a	No	2.772	n/a	n/a	LatePress	0	n/a	n/a	16	72	Blank	MissedWin	True
685.776	1.45	Win2	0.6849	n/a	No	2.772	n/a	5.0	LatePress	0	0.041	684.817	16	72	Feedback	MissedWin	True
687.231	2.772	Win2	0.6849	n/a	No	2.772	n/a	n/a	LatePress	0	0.0	n/a	16	72	ISIslide	MissedWin	True
690.022	0.25	Win2	0.6757	0.0	No	2.678	0.022	n/a	NoResponse	0	n/a	n/a	16	73	Cue	MissedWin	True
690.273	4.0	Win2	0.6757	0.0	No	2.678	0.001	n/a	NoResponse	0	n/a	n/a	16	73	Fixation	MissedWin	True
694.268	0.21	Win2	0.6757	0.004	No	2.678	-0.004	1.0	NoResponse	0	0.268	693.536	16	73	Target	MissedWin	True
694.486	0.49	Win2	0.6757	n/a	No	2.678	n/a	n/a	NoResponse	0	n/a	n/a	16	73	Blank	MissedWin	True
694.536	0.3	Win2	0.6757	0.004	No	2.678	-0.004	1.0	NoResponse	0	0.268	n/a	16	73	ButtonPress	MissedWin	True
694.97	1.45	Win2	0.6757	n/a	No	2.678	n/a	5.0	NoResponse	0	0.018	693.988	16	73	Feedback	MissedWin	True
696.425	2.678	Win2	0.6757	n/a	No	2.678	n/a	n/a	NoResponse	0	0.0	n/a	16	73	ISIslide	MissedWin	True
699.116	0.25	Lose2	0.6667000000000001	0.0	No	2.634	0.016	n/a	NoResponse	-1	n/a	n/a	15	74	Cue	Loss	True
699.367	4.05	Lose2	0.6667000000000001	0.0	No	2.634	0.001	n/a	NoResponse	-1	n/a	n/a	15	74	Fixation	Loss	True
703.412	0.2	Lose2	0.6667000000000001	0.004	No	2.634	-0.004	1.0	NoResponse	-1	0.211	702.623	15	74	Target	Loss	True
703.613	0.5	Lose2	0.6667000000000001	n/a	No	2.634	n/a	n/a	NoResponse	-1	n/a	n/a	15	74	Blank	Loss	True
703.623	0.3	Lose2	0.6667000000000001	0.004	No	2.634	-0.004	1.0	NoResponse	-1	0.211	n/a	15	74	ButtonPress	Loss	True
704.114	1.45	Lose2	0.6667000000000001	n/a	No	2.634	n/a	5.0	NoResponse	-1	0.044	703.158	15	74	Feedback	Loss	True
705.569	2.634	Lose2	0.6667000000000001	n/a	No	2.634	n/a	n/a	NoResponse	-1	0.0	n/a	15	74	ISIslide	Loss	True
708.227	0.25	Lose2	0.6579	0.0	No	2.923	0.027	n/a	NoResponse	-1	n/a	n/a	14	75	Cue	Loss	True
708.477	3.95	Lose2	0.6579	0.0	No	2.923	0.0	n/a	NoResponse	-1	n/a	n/a	14	75	Fixation	Loss	True
712.422	0.19	Lose2	0.6579	0.005	No	2.923	-0.005	1.0	NoResponse	-1	0.217	711.639	14	75	Target	Loss	True
712.623	0.51	Lose2	0.6579	n/a	No	2.923	n/a	n/a	NoResponse	-1	n/a	n/a	14	75	Blank	Loss	True
712.639	0.3	Lose2	0.6579	0.005	No	2.923	-0.005	1.0	NoResponse	-1	0.217	n/a	14	75	ButtonPress	Loss	True
713.125	1.45	Lose2	0.6579	n/a	No	2.923	n/a	5.0	NoResponse	-1	0.008	712.133	14	75	Feedback	Loss	True
714.579	2.923	Lose2	0.6579	n/a	No	2.923	n/a	n/a	NoResponse	-1	0.0	n/a	14	75	ISIslide	Loss	True
717.521	0.25	Control	0.6494	0.0	No	3.229	0.021	n/a	NoResponse	0	n/a	n/a	14	76	Cue	Neutral	True
717.772	4.05	Control	0.6494	0.0	No	3.229	0.001	n/a	NoResponse	0	n/a	n/a	14	76	Fixation	Neutral	True
721.817	0.19	Control	0.6494	0.004	No	3.229	-0.004	1.0	NoResponse	0	0.22	721.037	14	76	Target	Neutral	True
722.018	0.51	Control	0.6494	n/a	No	3.229	n/a	n/a	NoResponse	0	n/a	n/a	14	76	Blank	Neutral	True
722.037	0.3	Control	0.6494	0.004	No	3.229	-0.004	1.0	NoResponse	0	0.22	n/a	14	76	ButtonPress	Neutral	True
722.519	1.45	Control	0.6494	n/a	No	3.229	n/a	5.0	NoResponse	0	0.029	721.548	14	76	Feedback	Neutral	True
723.974	3.229	Control	0.6494	n/a	No	3.229	n/a	n/a	NoResponse	0	0.0	n/a	14	76	ISIslide	Neutral	True
727.217	0.25	Lose2	0.6409999999999999	0.0	No	2.583	0.017	n/a	LatePress	-1	n/a	n/a	13	77	Cue	Loss	True
727.467	3.95	Lose2	0.6409999999999999	0.0	No	2.583	0.0	n/a	LatePress	-1	n/a	n/a	13	77	Fixation	Loss	True
731.412	0.2	Lose2	0.6409999999999999	0.005	No	2.583	-0.005	1.0	LatePress	-1	0.2	730.612	13	77	Target	Loss	True
731.612	0.3	Lose2	0.6409999999999999	0.005	No	2.583	-0.005	1.0	LatePress	-1	0.2	n/a	13	77	ButtonPress	Loss	True
731.613	0.5	Lose2	0.6409999999999999	n/a	No	2.583	n/a	n/a	LatePress	-1	n/a	n/a	13	77	Blank	Loss	True
732.115	1.45	Lose2	0.6409999999999999	n/a	No	2.583	n/a	5.0	LatePress	-1	0.043	731.158	13	77	Feedback	Loss	True
733.569	2.583	Lose2	0.6409999999999999	n/a	No	2.583	n/a	n/a	LatePress	-1	0.0	n/a	13	77	ISIslide	Loss	True
