onset	duration	cue_type	current_mean_accuracy	duration_error	is_hit	isi_adjusted	onset_delay	response	response_type	reward	rt	rt_time	total_reward	trial_number	trial_phase	trial_type	one_press
11.097	0.25	Control	1.0	0.0	Yes	2.953	-0.003	n/a	GoodResponse	0	n/a	n/a	0	0	Cue	Neutral	True
11.347	3.85	Control	1.0	0.0	Yes	2.953	0.0	n/a	GoodResponse	0	n/a	n/a	0	0	Fixation	Neutral	True
15.196	0.4	Control	1.0	0.001	Yes	2.953	-0.001	2.0	GoodResponse	0	0.326	14.522	0	0	Target	Neutral	True
15.522	0.3	Control	1.0	0.001	Yes	2.953	-0.001	2.0	GoodResponse	0	0.326	n/a	0	0	ButtonPress	Neutral	True
15.596	0.3	Control	1.0	n/a	Yes	2.953	n/a	n/a	GoodResponse	0	n/a	n/a	0	0	Blank	Neutral	True
15.896	1.45	Control	1.0	n/a	Yes	2.953	n/a	5.0	GoodResponse	0	0.033	14.929	0	0	Feedback	Neutral	True
17.345	2.953	Control	1.0	n/a	Yes	2.953	n/a	n/a	GoodResponse	0	0.0	n/a	0	0	ISIslide	Neutral	True
20.377	0.25	Lose2	1.0	0.001	Yes	2.723	0.077	n/a	GoodResponse	0	n/a	n/a	0	1	Cue	AvoidedLoss	True
20.627	4.0	Lose2	1.0	0.0	Yes	2.723	0.0	n/a	GoodResponse	0	n/a	n/a	0	1	Fixation	AvoidedLoss	True
24.626	0.39	Lose2	1.0	0.001	Yes	2.723	-0.001	2.0	GoodResponse	0	0.278	23.904	0	1	Target	AvoidedLoss	True
24.904	0.3	Lose2	1.0	0.001	Yes	2.723	-0.001	2.0	GoodResponse	0	0.278	n/a	0	1	ButtonPress	AvoidedLoss	True
25.026	0.31	Lose2	1.0	n/a	Yes	2.723	n/a	n/a	GoodResponse	0	n/a	n/a	0	1	Blank	AvoidedLoss	True
25.326	1.45	Lose2	1.0	n/a	Yes	2.723	n/a	5.0	GoodResponse	0	0.018	24.344	0	1	Feedback	AvoidedLoss	True
26.775	2.723	Lose2	1.0	n/a	Yes	2.723	n/a	n/a	GoodResponse	0	0.0	n/a	0	1	ISIslide	AvoidedLoss	True
29.524	0.25	Control	1.0	0.0	Yes	2.576	0.024	n/a	GoodResponse	0	n/a	n/a	0	2	Cue	Neutral	True
29.774	4.1	Control	1.0	0.0	Yes	2.576	0.0	n/a	GoodResponse	0	n/a	n/a	0	2	Fixation	Neutral	True
33.873	0.38	Control	1.0	0.001	Yes	2.576	-0.001	2.0	GoodResponse	0	0.256	33.129	0	2	Target	Neutral	True
34.129	0.3	Control	1.0	0.001	Yes	2.576	-0.001	2.0	GoodResponse	0	0.256	n/a	0	2	ButtonPress	Neutral	True
34.256	0.32	Control	1.0	n/a	Yes	2.576	n/a	n/a	GoodResponse	0	n/a	n/a	0	2	Blank	Neutral	True
34.572	1.45	Control	1.0	n/a	Yes	2.576	n/a	5.0	GoodResponse	0	0.039	33.611	0	2	Feedback	Neutral	True
36.022	2.576	Control	1.0	n/a	Yes	2.576	n/a	n/a	GoodResponse	0	0.0	n/a	0	2	ISIslide	Neutral	True
38.621	0.25	Win2	1.0	0.0	Yes	2.829	0.021	n/a	GoodResponse	1	n/a	n/a	1	3	Cue	Win	True
38.871	3.95	Win2	1.0	0.0	Yes	2.829	0.0	n/a	GoodResponse	1	n/a	n/a	1	3	Fixation	Win	True
42.82	0.37	Win2	1.0	0.001	Yes	2.829	-0.001	2.0	GoodResponse	1	0.239	42.059	1	3	Target	Win	True
43.059	0.3	Win2	1.0	0.001	Yes	2.829	-0.001	2.0	GoodResponse	1	0.239	n/a	1	3	ButtonPress	Win	True
43.203	0.33	Win2	1.0	n/a	Yes	2.829	n/a	n/a	GoodResponse	1	n/a	n/a	1	3	Blank	Win	True
43.519	1.45	Win2	1.0	n/a	Yes	2.829	n/a	5.0	GoodResponse	1	0.019	42.538	1	3	Feedback	Win	True
44.969	2.829	Win2	1.0	n/a	Yes	2.829	n/a	n/a	GoodResponse	1	0.0	n/a	1	3	ISIslide	Win	True
47.818	0.25	Win2	1.0	0.0	Yes	3.282	0.018	n/a	GoodResponse	1	n/a	n/a	2	4	Cue	Win	True
48.068	4.0	Win2	1.0	0.0	Yes	3.282	0.0	n/a	GoodResponse	1	n/a	n/a	2	4	Fixation	Win	True
52.066	0.36	Win2	1.0	0.002	Yes	3.282	-0.002	2.0	GoodResponse	1	0.299	51.365	2	4	Target	Win	True
52.365	0.3	Win2	1.0	0.002	Yes	3.282	-0.002	2.0	GoodResponse	1	0.299	n/a	2	4	ButtonPress	Win	True
52.433	0.34	Win2	1.0	n/a	Yes	3.282	n/a	n/a	GoodResponse	1	n/a	n/a	2	4	Blank	Win	True
52.766	1.45	Win2	1.0	n/a	Yes	3.282	n/a	5.0	GoodResponse	1	0.041	51.807	2	4	Feedback	Win	True
54.216	3.282	Win2	1.0	n/a	Yes	3.282	n/a	n/a	GoodResponse	1	0.0	n/a	2	4	ISIslide	Win	True
57.514	0.25	Win2	1.0	0.001	Yes	2.786	0.014	n/a	GoodResponse	1	n/a	n/a	3	5	Cue	Win	True
57.764	4.0	Win2	1.0	0.0	Yes	2.786	0.0	n/a	GoodResponse	1	n/a	n/a	3	5	Fixation	Win	True
61.763	0.35	Win2	1.0	0.001	Yes	2.786	-0.001	2.0	GoodResponse	1	0.199	60.962	3	5	Target	Win	True
61.962	0.3	Win2	1.0	0.001	Yes	2.786	-0.001	2.0	GoodResponse	1	0.199	n/a	3	5	ButtonPress	Win	True
62.113	0.35	Win2	1.0	n/a	Yes	2.786	n/a	n/a	GoodResponse	1	n/a	n/a	3	5	Blank	Win	True
62.463	1.45	Win2	1.0	n/a	Yes	2.786	n/a	5.0	GoodResponse	1	0.005	61.468	3	5	Feedback	Win	True
63.912	2.786	Win2	1.0	n/a	Yes	2.786	n/a	n/a	GoodResponse	1	0.0	n/a	3	5	ISIslide	Win	True
66.728	0.25	Lose2	1.0	0.0	Yes	2.722	0.028	n/a	GoodResponse	0	n/a	n/a	3	6	Cue	AvoidedLoss	True
66.978	3.95	Lose2	1.0	0.0	Yes	2.722	0.0	n/a	GoodResponse	0	n/a	n/a	3	6	Fixation	AvoidedLoss	True
70.926	0.34	Lose2	1.0	0.002	Yes	2.722	-0.002	2.0	GoodResponse	0	0.245	70.171	3	6	Target	AvoidedLoss	True
71.171	0.3	Lose2	1.0	0.002	Yes	2.722	-0.002	2.0	GoodResponse	0	0.245	n/a	3	6	ButtonPress	AvoidedLoss	True
71.276	0.36	Lose2	1.0	n/a	Yes	2.722	n/a	n/a	GoodResponse	0	n/a	n/a	3	6	Blank	AvoidedLoss	True
71.626	1.45	Lose2	1.0	n/a	Yes	2.722	n/a	5.0	GoodResponse	0	0.01	70.636	3	6	Feedback	AvoidedLoss	True
73.076	2.722	Lose2	1.0	n/a	Yes	2.722	n/a	n/a	GoodResponse	0	0.0	n/a	3	6	ISIslide	AvoidedLoss	True
75.825	0.25	Lose2	1.0	0.0	Yes	4.025	0.025	n/a	GoodResponse	0	n/a	n/a	3	7	Cue	AvoidedLoss	True
76.075	4.05	Lose2	1.0	0.0	Yes	4.025	0.0	n/a	GoodResponse	0	n/a	n/a	3	7	Fixation	AvoidedLoss	True
80.123	0.33	Lose2	1.0	0.002	Yes	4.025	-0.002	2.0	GoodResponse	0	0.28	79.403	3	7	Target	AvoidedLoss	True
80.403	0.3	Lose2	1.0	0.002	Yes	4.025	-0.002	2.0	GoodResponse	0	0.28	n/a	3	7	ButtonPress	AvoidedLoss	True
80.456	0.37	Lose2	1.0	n/a	Yes	4.025	n/a	n/a	GoodResponse	0	n/a	n/a	3	7	Blank	AvoidedLoss	True
80.823	1.45	Lose2	1.0	n/a	Yes	4.025	n/a	5.0	GoodResponse	0	0.033	79.856	3	7	Feedback	AvoidedLoss	True
82.273	4.025	Lose2	1.0	n/a	Yes	4.025	n/a	n/a	GoodResponse	0	0.0	n/a	3	7	ISIslide	AvoidedLoss	True
86.321	0.25	Lose2	1.0	0.0	Yes	3.029	0.021	n/a	GoodResponse	0	n/a	n/a	3	8	Cue	AvoidedLoss	True
86.571	3.95	Lose2	1.0	0.0	Yes	3.029	0.0	n/a	GoodResponse	0	n/a	n/a	3	8	Fixation	AvoidedLoss	True
90.52	0.32	Lose2	1.0	0.001	Yes	3.029	-0.001	2.0	GoodResponse	0	0.29	89.81	3	8	Target	AvoidedLoss	True
90.81	0.3	Lose2	1.0	0.001	Yes	3.029	-0.001	2.0	GoodResponse	0	0.29	n/a	3	8	ButtonPress	AvoidedLoss	True
90.853	0.38	Lose2	1.0	n/a	Yes	3.029	n/a	n/a	GoodResponse	0	n/a	n/a	3	8	Blank	AvoidedLoss	True
91.219	1.45	Lose2	1.0	n/a	Yes	3.029	n/a	5.0	GoodResponse	0	0.026	90.245	3	8	Feedback	AvoidedLoss	True
92.669	3.029	Lose2	1.0	n/a	Yes	3.029	n/a	n/a	GoodResponse	0	0.0	n/a	3	8	ISIslide	AvoidedLoss	True
95.718	0.25	Lose2	1.0	0.0	Yes	3.132	0.018	n/a	GoodResponse	0	n/a	n/a	3	9	Cue	AvoidedLoss	True
95.968	3.95	Lose2	1.0	0.0	Yes	3.132	0.0	n/a	GoodResponse	0	n/a	n/a	3	9	Fixation	AvoidedLoss	True
99.916	0.31	Lose2	1.0	0.002	Yes	3.132	-0.002	2.0	GoodResponse	0	0.303	99.219	3	9	Target	AvoidedLoss	True
100.219	0.3	Lose2	1.0	0.002	Yes	3.132	-0.002	2.0	GoodResponse	0	0.303	n/a	3	9	ButtonPress	AvoidedLoss	True
100.233	0.39	Lose2	1.0	n/a	Yes	3.132	n/a	n/a	GoodResponse	0	n/a	n/a	3	9	Blank	AvoidedLoss	True
100.616	1.45	Lose2	1.0	n/a	Yes	3.132	n/a	5.0	GoodResponse	0	0.044	99.66	3	9	Feedback	AvoidedLoss	True
102.066	3.132	Lose2	1.0	n/a	Yes	3.132	n/a	n/a	GoodResponse	0	0.0	n/a	3	9	ISIslide	AvoidedLoss	True
105.214	0.25	Control	1.0	0.001	Yes	3.286	0.014	n/a	GoodResponse	0	n/a	n/a	3	10	Cue	Neutral	True
105.464	4.0	Control	1.0	0.001	Yes	3.286	0.0	n/a	GoodResponse	0	n/a	n/a	3	10	Fixation	Neutral	True
109.463	0.3	Control	1.0	0.001	Yes	3.286	-0.001	2.0	GoodResponse	0	0.243	108.706	3	10	Target	Neutral	True
109.706	0.3	Control	1.0	0.001	Yes	3.286	-0.001	2.0	GoodResponse	0	0.243	n/a	3	10	ButtonPress	Neutral	True
109.763	0.4	Control	1.0	n/a	Yes	3.286	n/a	n/a	GoodResponse	0	n/a	n/a	3	10	Blank	Neutral	True
110.163	1.45	Control	1.0	n/a	Yes	3.286	n/a	5.0	GoodResponse	0	0.009	109.172	3	10	Feedback	Neutral	True
111.612	3.286	Control	1.0	n/a	Yes	3.286	n/a	n/a	GoodResponse	0	0.0	n/a	3	10	ISIslide	Neutral	True
114.928	0.25	Lose2	0.9167000000000001	0.0	No	2.722	0.028	n/a	NoResponse	-1	n/a	n/a	2	11	Cue	Loss	True
115.178	4.05	Lose2	0.9167000000000001	0.0	No	2.722	0.0	n/a	NoResponse	-1	n/a	n/a	2	11	Fixation	Loss	True
119.226	0.29	Lose2	0.9167000000000001	0.002	No	2.722	-0.002	2.0	NoResponse	-1	0.308	118.534	2	11	Target	Loss	True
119.526	0.41	Lose2	0.9167000000000001	n/a	No	2.722	n/a	n/a	NoResponse	-1	n/a	n/a	2	11	Blank	Loss	True
119.534	0.3	Lose2	0.9167000000000001	0.002	No	2.722	-0.002	2.0	NoResponse	-1	0.308	n/a	2	11	ButtonPress	Loss	True
119.926	1.45	Lose2	0.9167000000000001	n/a	No	2.722	n/a	5.0	NoResponse	-1	0.002	118.928	2	11	Feedback	Loss	True
121.376	2.722	Lose2	0.9167000000000001	n/a	No	2.722	n/a	n/a	NoResponse	-1	0.0	n/a	2	11	ISIslide	Loss	True
124.125	0.25	Control	0.8462000000000001	0.0	No	2.975	0.025	n/a	NoResponse	0	n/a	n/a	2	12	Cue	Neutral	True
124.374	3.9	Control	0.8462000000000001	0.001	No	2.975	-0.001	n/a	NoResponse	0	n/a	n/a	2	12	Fixation	Neutral	True
128.273	0.28	Control	0.8462000000000001	0.002	No	2.975	-0.002	2.0	NoResponse	0	0.462	127.735	2	12	Target	Neutral	True
128.556	0.42	Control	0.8462000000000001	n/a	No	2.975	n/a	n/a	NoResponse	0	n/a	n/a	2	12	Blank	Neutral	True
128.735	0.3	Control	0.8462000000000001	0.002	No	2.975	-0.002	2.0	NoResponse	0	0.462	n/a	2	12	ButtonPress	Neutral	True
128.973	1.45	Control	0.8462000000000001	n/a	No	2.975	n/a	5.0	NoResponse	0	0.029	128.002	2	12	Feedback	Neutral	True
130.422	2.975	Control	0.8462000000000001	n/a	No	2.975	n/a	n/a	NoResponse	0	0.0	n/a	2	12	ISIslide	Neutral	True
133.421	0.25	Control	0.8571	0.0	Yes	2.779	0.021	n/a	GoodResponse	0	n/a	n/a	2	13	Cue	Neutral	True
133.671	4.0	Control	0.8571	0.0	Yes	2.779	0.0	n/a	GoodResponse	0	n/a	n/a	2	13	Fixation	Neutral	True
137.67	0.27	Control	0.8571	0.001	Yes	2.779	-0.001	2.0	GoodResponse	0	0.248	136.918	2	13	Target	Neutral	True
137.918	0.3	Control	0.8571	0.001	Yes	2.779	-0.001	2.0	GoodResponse	0	0.248	n/a	2	13	ButtonPress	Neutral	True
137.936	0.43	Control	0.8571	n/a	Yes	2.779	n/a	n/a	GoodResponse	0	n/a	n/a	2	13	Blank	Neutral	True
138.37	1.45	Control	0.8571	n/a	Yes	2.779	n/a	5.0	GoodResponse	0	0.045	137.415	2	13	Feedback	Neutral	True
139.819	2.779	Control	0.8571	n/a	Yes	2.779	n/a	n/a	GoodResponse	0	0.0	n/a	2	13	ISIslide	Neutral	True
142.618	0.25	Win2	0.8667	0.0	Yes	2.682	0.018	n/a	GoodResponse	1	n/a	n/a	3	14	Cue	Win	True
142.868	4.1	Win2	0.8667	0.0	Yes	2.682	0.0	n/a	GoodResponse	1	n/a	n/a	3	14	Fixation	Win	True
146.967	0.26	Win2	0.8667	0.001	Yes	2.682	-0.001	2.0	GoodResponse	1	0.228	146.195	3	14	Target	Win	True
147.195	0.3	Win2	0.8667	0.001	Yes	2.682	-0.001	2.0	GoodResponse	1	0.228	n/a	3	14	ButtonPress	Win	True
147.233	0.44	Win2	0.8667	n/a	Yes	2.682	n/a	n/a	GoodResponse	1	n/a	n/a	3	14	Blank	Win	True
147.666	1.45	Win2	0.8667	n/a	Yes	2.682	n/a	5.0	GoodResponse	1	0.018	146.684	3	14	Feedback	Win	True
149.116	2.682	Win2	0.8667	n/a	Yes	2.682	n/a	n/a	GoodResponse	1	0.0	n/a	3	14	ISIslide	Win	True
151.815	0.25	Control	0.8125	0.0	No	2.985	0.015	n/a	NoResponse	0	n/a	n/a	3	15	Cue	Neutral	True
152.065	4.0	Control	0.8125	0.0	No	2.985	0.0	n/a	NoResponse	0	n/a	n/a	3	15	Fixation	Neutral	True
156.063	0.25	Control	0.8125	0.002	No	2.985	-0.002	2.0	NoResponse	0	0.427	155.49	3	15	Target	Neutral	True
156.313	0.45	Control	0.8125	n/a	No	2.985	n/a	n/a	NoResponse	0	n/a	n/a	3	15	Blank	Neutral	True
156.49	0.3	Control	0.8125	0.002	No	2.985	-0.002	2.0	NoResponse	0	0.427	n/a	3	15	ButtonPress	Neutral	True
156.763	1.45	Control	0.8125	n/a	No	2.985	n/a	5.0	NoResponse	0	0.043	155.806	3	15	Feedback	Neutral	True
158.213	2.985	Control	0.8125	n/a	No	2.985	n/a	n/a	NoResponse	0	0.0	n/a	3	15	ISIslide	Neutral	True
161.228	0.25	Win2	0.7646999999999999	0.0	No	2.872	0.028	n/a	NoResponse	0	n/a	n/a	3	16	Cue	MissedWin	True
161.478	4.0	Win2	0.7646999999999999	0.0	No	2.872	0.0	n/a	NoResponse	0	n/a	n/a	3	16	Fixation	MissedWin	True
165.477	0.24	Win2	0.7646999999999999	0.001	No	2.872	-0.001	2.0	NoResponse	0	0.308	164.785	3	16	Target	MissedWin	True
165.727	0.46	Win2	0.7646999999999999	n/a	No	2.872	n/a	n/a	NoResponse	0	n/a	n/a	3	16	Blank	MissedWin	True
165.785	0.3	Win2	0.7646999999999999	0.001	No	2.872	-0.001	2.0	NoResponse	0	0.308	n/a	3	16	ButtonPress	MissedWin	True
166.177	1.45	Win2	0.7646999999999999	n/a	No	2.872	n/a	5.0	NoResponse	0	0.044	165.221	3	16	Feedback	MissedWin	True
167.626	2.872	Win2	0.7646999999999999	n/a	No	2.872	n/a	n/a	NoResponse	0	0.0	n/a	3	16	ISIslide	MissedWin	True
170.525	0.25	Lose2	0.7222	0.0	No	2.725	0.025	n/a	NoResponse	-1	n/a	n/a	2	17	Cue	Loss	True
170.775	3.95	Lose2	0.7222	0.0	No	2.725	0.0	n/a	NoResponse	-1	n/a	n/a	2	17	Fixation	Loss	True
174.724	0.23	Lose2	0.7222	0.001	No	2.725	-0.001	2.0	NoResponse	-1	0.268	173.992	2	17	Target	Loss	True
174.957	0.47	Lose2	0.7222	n/a	No	2.725	n/a	n/a	NoResponse	-1	n/a	n/a	2	17	Blank	Loss	True
174.992	0.3	Lose2	0.7222	0.001	No	2.725	-0.001	2.0	NoResponse	-1	0.268	n/a	2	17	ButtonPress	Loss	True
175.423	1.45	Lose2	0.7222	n/a	No	2.725	n/a	5.0	NoResponse	-1	0.017	174.44	2	17	Feedback	Loss	True
176.873	2.725	Lose2	0.7222	n/a	No	2.725	n/a	n/a	NoResponse	-1	0.0	n/a	2	17	ISIslide	Loss	True
179.622	0.25	Lose2	0.6842	0.0	No	2.728	0.022	n/a	NoResponse	-1	n/a	n/a	1	18	Cue	Loss	True
179.872	4.05	Lose2	0.6842	0.0	No	2.728	0.0	n/a	NoResponse	-1	n/a	n/a	1	18	Fixation	Loss	True
183.92	0.22	Lose2	0.6842	0.002	No	2.728	-0.002	2.0	NoResponse	-1	0.257	183.177	1	18	Target	Loss	True
184.154	0.48	Lose2	0.6842	n/a	No	2.728	n/a	n/a	NoResponse	-1	n/a	n/a	1	18	Blank	Loss	True
184.177	0.3	Lose2	0.6842	0.002	No	2.728	-0.002	2.0	NoResponse	-1	0.257	n/a	1	18	ButtonPress	Loss	True
184.62	1.45	Lose2	0.6842	n/a	No	2.728	n/a	5.0	NoResponse	-1	0.039	183.659	1	18	Feedback	Loss	True
186.07	2.728	Lose2	0.6842	n/a	No	2.728	n/a	n/a	NoResponse	-1	0.0	n/a	1	18	ISIslide	Loss	True
188.819	0.25	Control	0.65	0.0	No	2.931	0.019	n/a	NoResponse	0	n/a	n/a	1	19	Cue	Neutral	True
189.069	3.95	Control	0.65	0.0	No	2.931	0.0	n/a	NoResponse	0	n/a	n/a	1	19	Fixation	Neutral	True
193.017	0.21	Control	0.65	0.002	No	2.931	-0.002	2.0	NoResponse	0	0.228	192.245	1	19	Target	Neutral	True
193.234	0.49	Control	0.65	n/a	No	2.931	n/a	n/a	NoResponse	0	n/a	n/a	1	19	Blank	Neutral	True
193.245	0.3	Control	0.65	0.002	No	2.931	-0.002	2.0	NoResponse	0	0.228	n/a	1	19	ButtonPress	Neutral	True
193.717	1.45	Control	0.65	n/a	No	2.931	n/a	5.0	NoResponse	0	0.015	192.732	1	19	Feedback	Neutral	True
195.166	2.931	Control	0.65	n/a	No	2.931	n/a	n/a	NoResponse	0	0.0	n/a	1	19	ISIslide	Neutral	True
198.115	0.25	Control	0.619	0.0	No	2.635	0.015	n/a	NoResponse	0	n/a	n/a	1	20	Cue	Neutral	True
198.365	4.05	Control	0.619	0.0	No	2.635	0.0	2.0	NoResponse	0	4.01	201.375	1	20	Fixation	Neutral	True
202.375	0.3	Control	0.619	0.0	No	2.635	0.0	2.0	NoResponse	0	4.01	n/a	1	20	ButtonPress	Neutral	True
202.414	0.22	Control	0.619	0.001	No	2.635	-0.001	n/a	NoResponse	0	n/a	n/a	1	20	Target	Neutral	True
202.631	0.48	Control	0.619	n/a	No	2.635	n/a	n/a	NoResponse	0	n/a	n/a	1	20	Blank	Neutral	True
203.114	1.45	Control	0.619	n/a	No	2.635	n/a	5.0	NoResponse	0	0.033	202.147	1	20	Feedback	Neutral	True
204.563	2.635	Control	0.619	n/a	No	2.635	n/a	n/a	NoResponse	0	0.0	n/a	1	20	ISIslide	Neutral	True
207.212	0.25	Control	0.6364	0.0	Yes	2.788	0.012	n/a	GoodResponse	0	n/a	n/a	1	21	Cue	Neutral	True
207.462	4.1	Control	0.6364	0.0	Yes	2.788	0.0	n/a	GoodResponse	0	n/a	n/a	1	21	Fixation	Neutral	True
211.561	0.23	Control	0.6364	0.001	Yes	2.788	-0.001	2.0	GoodResponse	0	0.206	210.767	1	21	Target	Neutral	True
211.767	0.3	Control	0.6364	0.001	Yes	2.788	-0.001	2.0	GoodResponse	0	0.206	n/a	1	21	ButtonPress	Neutral	True
211.794	0.47	Control	0.6364	n/a	Yes	2.788	n/a	n/a	GoodResponse	0	n/a	n/a	1	21	Blank	Neutral	True
212.26	1.45	Control	0.6364	n/a	Yes	2.788	n/a	5.0	GoodResponse	0	0.009	211.269	1	21	Feedback	Neutral	True
213.71	2.788	Control	0.6364	n/a	Yes	2.788	n/a	n/a	GoodResponse	0	0.0	n/a	1	21	ISIslide	Neutral	True
216.526	0.25	Control	0.6087	0.0	No	2.774	0.026	n/a	NoResponse	0	n/a	n/a	1	22	Cue	Neutral	True
216.776	4.0	Control	0.6087	0.0	No	2.774	0.0	n/a	NoResponse	0	n/a	n/a	1	22	Fixation	Neutral	True
220.774	0.24	Control	0.6087	0.002	No	2.774	-0.002	2.0	NoResponse	0	0.258	220.032	1	22	Target	Neutral	True
221.024	0.46	Control	0.6087	n/a	No	2.774	n/a	n/a	NoResponse	0	n/a	n/a	1	22	Blank	Neutral	True
221.032	0.3	Control	0.6087	0.002	No	2.774	-0.002	2.0	NoResponse	0	0.258	n/a	1	22	ButtonPress	Neutral	True
221.474	1.45	Control	0.6087	n/a	No	2.774	n/a	5.0	NoResponse	0	0.015	220.489	1	22	Feedback	Neutral	True
222.923	2.774	Control	0.6087	n/a	No	2.774	n/a	n/a	NoResponse	0	0.0	n/a	1	22	ISIslide	Neutral	True
225.722	0.25	Control	0.5832999999999999	0.001	No	2.778	0.022	n/a	NoResponse	0	n/a	n/a	1	23	Cue	Neutral	True
225.972	3.9	Control	0.5832999999999999	0.0	No	2.778	0.0	n/a	NoResponse	0	n/a	n/a	1	23	Fixation	Neutral	True
229.871	0.25	Control	0.5832999999999999	0.001	No	2.778	-0.001	2.0	NoResponse	0	0.271	229.142	1	23	Target	Neutral	True
230.121	0.45	Control	0.5832999999999999	n/a	No	2.778	n/a	n/a	NoResponse	0	n/a	n/a	1	23	Blank	Neutral	True
230.142	0.3	Control	0.5832999999999999	0.001	No	2.778	-0.001	2.0	NoResponse	0	0.271	n/a	1	23	ButtonPress	Neutral	True
230.571	1.45	Control	0.5832999999999999	n/a	No	2.778	n/a	5.0	NoResponse	0	0.04	229.611	1	23	Feedback	Neutral	True
232.02	2.778	Control	0.5832999999999999	n/a	No	2.778	n/a	n/a	NoResponse	0	0.0	n/a	1	23	ISIslide	Neutral	True
234.819	0.25	Win2	0.6	0.0	Yes	3.131	0.019	n/a	GoodResponse	1	n/a	n/a	2	24	Cue	Win	True
235.069	3.95	Win2	0.6	0.0	Yes	3.131	0.0	n/a	GoodResponse	1	n/a	n/a	2	24	Fixation	Win	True
239.018	0.26	Win2	0.6	0.001	Yes	3.131	-0.001	2.0	GoodResponse	1	0.228	238.246	2	24	Target	Win	True
239.246	0.3	Win2	0.6	0.001	Yes	3.131	-0.001	2.0	GoodResponse	1	0.228	n/a	2	24	ButtonPress	Win	True
239.284	0.44	Win2	0.6	n/a	Yes	3.131	n/a	n/a	GoodResponse	1	n/a	n/a	2	24	Blank	Win	True
239.718	1.45	Win2	0.6	n/a	Yes	3.131	n/a	5.0	GoodResponse	1	0.014	238.732	2	24	Feedback	Win	True
241.167	3.131	Win2	0.6	n/a	Yes	3.131	n/a	n/a	GoodResponse	1	0.0	n/a	2	24	ISIslide	Win	True
244.316	0.25	Win2	0.6154	0.0	Yes	3.084	0.016	n/a	GoodResponse	1	n/a	n/a	3	25	Cue	Win	True
244.566	4.0	Win2	0.6154	0.0	Yes	3.084	0.0	n/a	GoodResponse	1	n/a	n/a	3	25	Fixation	Win	True
248.564	0.27	Win2	0.6154	0.002	Yes	3.084	-0.002	2.0	GoodResponse	1	0.233	247.797	3	25	Target	Win	True
248.797	0.3	Win2	0.6154	0.002	Yes	3.084	-0.002	2.0	GoodResponse	1	0.233	n/a	3	25	ButtonPress	Win	True
248.848	0.43	Win2	0.6154	n/a	Yes	3.084	n/a	n/a	GoodResponse	1	n/a	n/a	3	25	Blank	Win	True
249.264	1.45	Win2	0.6154	n/a	Yes	3.084	n/a	5.0	GoodResponse	1	0.029	248.293	3	25	Feedback	Win	True
250.714	3.084	Win2	0.6154	n/a	Yes	3.084	n/a	n/a	GoodResponse	1	0.0	n/a	3	25	ISIslide	Win	True
253.829	0.25	Win2	0.6296	0.0	Yes	2.921	0.029	n/a	GoodResponse	1	n/a	n/a	4	26	Cue	Win	True
254.079	3.95	Win2	0.6296	0.0	Yes	2.921	0.0	n/a	GoodResponse	1	n/a	n/a	4	26	Fixation	Win	True
258.028	0.28	Win2	0.6296	0.001	Yes	2.921	-0.001	2.0	GoodResponse	1	0.244	257.272	4	26	Target	Win	True
258.272	0.3	Win2	0.6296	0.001	Yes	2.921	-0.001	2.0	GoodResponse	1	0.244	n/a	4	26	ButtonPress	Win	True
258.311	0.42	Win2	0.6296	n/a	Yes	2.921	n/a	n/a	GoodResponse	1	n/a	n/a	4	26	Blank	Win	True
258.728	1.45	Win2	0.6296	n/a	Yes	2.921	n/a	5.0	GoodResponse	1	0.028	257.756	4	26	Feedback	Win	True
260.177	2.921	Win2	0.6296	n/a	Yes	2.921	n/a	n/a	GoodResponse	1	0.0	n/a	4	26	ISIslide	Win	True
263.126	0.25	Lose2	0.6429	0.0	Yes	2.824	0.026	n/a	GoodResponse	0	n/a	n/a	4	27	Cue	AvoidedLoss	True
263.376	4.05	Lose2	0.6429	0.0	Yes	2.824	0.0	n/a	GoodResponse	0	n/a	n/a	4	27	Fixation	AvoidedLoss	True
267.425	0.29	Lose2	0.6429	0.001	Yes	2.824	-0.001	2.0	GoodResponse	0	0.276	266.701	4	27	Target	AvoidedLoss	True
267.701	0.3	Lose2	0.6429	0.001	Yes	2.824	-0.001	2.0	GoodResponse	0	0.276	n/a	4	27	ButtonPress	AvoidedLoss	True
267.724	0.41	Lose2	0.6429	n/a	Yes	2.824	n/a	n/a	GoodResponse	0	n/a	n/a	4	27	Blank	AvoidedLoss	True
268.124	1.45	Lose2	0.6429	n/a	Yes	2.824	n/a	5.0	GoodResponse	0	0.047	267.171	4	27	Feedback	AvoidedLoss	True
269.574	2.824	Lose2	0.6429	n/a	Yes	2.824	n/a	n/a	GoodResponse	0	0.0	n/a	4	27	ISIslide	AvoidedLoss	True
272.423	0.25	Control	0.6207	0.0	No	2.827	0.023	n/a	NoResponse	0	n/a	n/a	4	28	Cue	Neutral	True
272.673	4.05	Control	0.6207	0.0	No	2.827	0.0	n/a	NoResponse	0	n/a	n/a	4	28	Fixation	Neutral	True
276.721	0.3	Control	0.6207	0.002	No	2.827	-0.002	2.0	NoResponse	0	0.525	276.246	4	28	Target	Neutral	True
277.021	0.4	Control	0.6207	n/a	No	2.827	n/a	n/a	NoResponse	0	n/a	n/a	4	28	Blank	Neutral	True
277.246	0.3	Control	0.6207	0.002	No	2.827	-0.002	2.0	NoResponse	0	0.525	n/a	4	28	ButtonPress	Neutral	True
277.421	1.45	Control	0.6207	n/a	No	2.827	n/a	5.0	NoResponse	0	0.019	276.44	4	28	Feedback	Neutral	True
278.871	2.827	Control	0.6207	n/a	No	2.827	n/a	n/a	NoResponse	0	0.0	n/a	4	28	ISIslide	Neutral	True
281.72	0.25	Lose2	0.6333	0.0	Yes	2.83	0.02	n/a	GoodResponse	0	n/a	n/a	4	29	Cue	AvoidedLoss	True
281.97	3.95	Lose2	0.6333	0.0	Yes	2.83	0.0	n/a	GoodResponse	0	n/a	n/a	4	29	Fixation	AvoidedLoss	True
285.918	0.31	Lose2	0.6333	0.002	Yes	2.83	-0.002	2.0	GoodResponse	0	0.288	285.206	4	29	Target	AvoidedLoss	True
286.206	0.3	Lose2	0.6333	0.002	Yes	2.83	-0.002	2.0	GoodResponse	0	0.288	n/a	4	29	ButtonPress	AvoidedLoss	True
286.235	0.39	Lose2	0.6333	n/a	Yes	2.83	n/a	n/a	GoodResponse	0	n/a	n/a	4	29	Blank	AvoidedLoss	True
286.618	1.45	Lose2	0.6333	n/a	Yes	2.83	n/a	5.0	GoodResponse	0	0.04	285.658	4	29	Feedback	AvoidedLoss	True
288.067	2.83	Lose2	0.6333	n/a	Yes	2.83	n/a	n/a	GoodResponse	0	0.0	n/a	4	29	ISIslide	AvoidedLoss	True
290.916	0.25	Win2	0.6452	0.0	Yes	2.784	0.016	n/a	GoodResponse	1	n/a	n/a	5	30	Cue	Win	True
291.166	3.9	Win2	0.6452	0.0	Yes	2.784	0.0	n/a	GoodResponse	1	n/a	n/a	5	30	Fixation	Win	True
295.065	0.32	Win2	0.6452	0.001	Yes	2.784	-0.001	2.0	GoodResponse	1	0.221	294.286	5	30	Target	Win	True
295.286	0.3	Win2	0.6452	0.001	Yes	2.784	-0.001	2.0	GoodResponse	1	0.221	n/a	5	30	ButtonPress	Win	True
295.381	0.38	Win2	0.6452	n/a	Yes	2.784	n/a	n/a	GoodResponse	1	n/a	n/a	5	30	Blank	Win	True
295.765	1.45	Win2	0.6452	n/a	Yes	2.784	n/a	5.0	GoodResponse	1	0.015	294.78	5	30	Feedback	Win	True
297.214	2.784	Win2	0.6452	n/a	Yes	2.784	n/a	n/a	GoodResponse	1	0.0	n/a	5	30	ISIslide	Win	True
300.013	0.25	Lose2	0.6562	0.0	Yes	2.837	0.013	n/a	GoodResponse	0	n/a	n/a	5	31	Cue	AvoidedLoss	True
300.263	4.05	Lose2	0.6562	0.0	Yes	2.837	0.0	n/a	GoodResponse	0	n/a	n/a	5	31	Fixation	AvoidedLoss	True
304.312	0.33	Lose2	0.6562	0.001	Yes	2.837	-0.001	2.0	GoodResponse	0	0.273	303.585	5	31	Target	AvoidedLoss	True
304.585	0.3	Lose2	0.6562	0.001	Yes	2.837	-0.001	2.0	GoodResponse	0	0.273	n/a	5	31	ButtonPress	AvoidedLoss	True
304.645	0.37	Lose2	0.6562	n/a	Yes	2.837	n/a	n/a	GoodResponse	0	n/a	n/a	5	31	Blank	AvoidedLoss	True
305.011	1.45	Lose2	0.6562	n/a	Yes	2.837	n/a	5.0	GoodResponse	0	0.038	304.049	5	31	Feedback	AvoidedLoss	True
306.461	2.837	Lose2	0.6562	n/a	Yes	2.837	n/a	n/a	GoodResponse	0	0.0	n/a	5	31	ISIslide	AvoidedLoss	True
309.327	0.25	Lose2	0.6667000000000001	0.0	Yes	2.623	0.027	n/a	GoodResponse	0	n/a	n/a	5	32	Cue	AvoidedLoss	True
309.577	4.15	Lose2	0.6667000000000001	0.0	Yes	2.623	0.0	n/a	GoodResponse	0	n/a	n/a	5	32	Fixation	AvoidedLoss	True
313.725	0.33	Lose2	0.6667000000000001	0.002	Yes	2.623	-0.002	2.0	GoodResponse	0	0.202	312.927	5	32	Target	AvoidedLoss	True
313.927	0.3	Lose2	0.6667000000000001	0.002	Yes	2.623	-0.002	2.0	GoodResponse	0	0.202	n/a	5	32	ButtonPress	AvoidedLoss	True
314.058	0.37	Lose2	0.6667000000000001	n/a	Yes	2.623	n/a	n/a	GoodResponse	0	n/a	n/a	5	32	Blank	AvoidedLoss	True
314.425	1.45	Lose2	0.6667000000000001	n/a	Yes	2.623	n/a	5.0	GoodResponse	0	0.038	313.463	5	32	Feedback	AvoidedLoss	True
315.874	2.623	Lose2	0.6667000000000001	n/a	Yes	2.623	n/a	n/a	GoodResponse	0	0.0	n/a	5	32	ISIslide	AvoidedLoss	True
318.523	0.25	Win2	0.6765000000000001	0.001	Yes	2.677	0.023	n/a	GoodResponse	1	n/a	n/a	6	33	Cue	Win	True
318.773	4.0	Win2	0.6765000000000001	0.0	Yes	2.677	0.0	n/a	GoodResponse	1	n/a	n/a	6	33	Fixation	Win	True
322.772	0.32	Win2	0.6765000000000001	0.001	Yes	2.677	-0.001	2.0	GoodResponse	1	0.248	322.02	6	33	Target	Win	True
323.02	0.3	Win2	0.6765000000000001	0.001	Yes	2.677	-0.001	2.0	GoodResponse	1	0.248	n/a	6	33	ButtonPress	Win	True
323.088	0.38	Win2	0.6765000000000001	n/a	Yes	2.677	n/a	n/a	GoodResponse	1	n/a	n/a	6	33	Blank	Win	True
323.472	1.45	Win2	0.6765000000000001	n/a	Yes	2.677	n/a	5.0	GoodResponse	1	0.016	322.488	6	33	Feedback	Win	True
324.921	2.677	Win2	0.6765000000000001	n/a	Yes	2.677	n/a	n/a	GoodResponse	1	0.0	n/a	6	33	ISIslide	Win	True
327.62	0.25	Lose2	0.6857	0.0	Yes	2.63	0.02	n/a	GoodResponse	0	n/a	n/a	6	34	Cue	AvoidedLoss	True
327.87	4.05	Lose2	0.6857	0.0	Yes	2.63	0.0	n/a	GoodResponse	0	n/a	n/a	6	34	Fixation	AvoidedLoss	True
331.919	0.31	Lose2	0.6857	0.001	Yes	2.63	-0.001	2.0	GoodResponse	0	0.297	331.216	6	34	Target	AvoidedLoss	True
332.216	0.3	Lose2	0.6857	0.001	Yes	2.63	-0.001	2.0	GoodResponse	0	0.297	n/a	6	34	ButtonPress	AvoidedLoss	True
332.235	0.39	Lose2	0.6857	n/a	Yes	2.63	n/a	n/a	GoodResponse	0	n/a	n/a	6	34	Blank	AvoidedLoss	True
332.618	1.45	Lose2	0.6857	n/a	Yes	2.63	n/a	5.0	GoodResponse	0	0.041	331.659	6	34	Feedback	AvoidedLoss	True
334.068	2.63	Lose2	0.6857	n/a	Yes	2.63	n/a	n/a	GoodResponse	0	0.0	n/a	6	34	ISIslide	AvoidedLoss	True
336.717	0.25	Lose2	0.6944	0.0	Yes	2.683	0.017	n/a	GoodResponse	0	n/a	n/a	6	35	Cue	AvoidedLoss	True
336.967	4.0	Lose2	0.6944	0.0	Yes	2.683	0.0	n/a	GoodResponse	0	n/a	n/a	6	35	Fixation	AvoidedLoss	True
340.966	0.3	Lose2	0.6944	0.001	Yes	2.683	-0.001	2.0	GoodResponse	0	0.222	340.188	6	35	Target	AvoidedLoss	True
341.188	0.3	Lose2	0.6944	0.001	Yes	2.683	-0.001	2.0	GoodResponse	0	0.222	n/a	6	35	ButtonPress	AvoidedLoss	True
341.265	0.4	Lose2	0.6944	n/a	Yes	2.683	n/a	n/a	GoodResponse	0	n/a	n/a	6	35	Blank	AvoidedLoss	True
341.665	1.45	Lose2	0.6944	n/a	Yes	2.683	n/a	5.0	GoodResponse	0	0.017	340.682	6	35	Feedback	AvoidedLoss	True
343.115	2.683	Lose2	0.6944	n/a	Yes	2.683	n/a	n/a	GoodResponse	0	0.0	n/a	6	35	ISIslide	AvoidedLoss	True
345.814	0.25	Control	0.7027	0.0	Yes	2.686	0.014	n/a	GoodResponse	0	n/a	n/a	6	36	Cue	Neutral	True
346.064	4.0	Control	0.7027	0.0	Yes	2.686	0.0	n/a	GoodResponse	0	n/a	n/a	6	36	Fixation	Neutral	True
350.062	0.29	Control	0.7027	0.002	Yes	2.686	-0.002	2.0	GoodResponse	0	0.227	349.289	6	36	Target	Neutral	True
350.289	0.3	Control	0.7027	0.002	Yes	2.686	-0.002	2.0	GoodResponse	0	0.227	n/a	6	36	ButtonPress	Neutral	True
350.362	0.41	Control	0.7027	n/a	Yes	2.686	n/a	n/a	GoodResponse	0	n/a	n/a	6	36	Blank	Neutral	True
350.762	1.45	Control	0.7027	n/a	Yes	2.686	n/a	5.0	GoodResponse	0	0.042	349.804	6	36	Feedback	Neutral	True
352.212	2.686	Control	0.7027	n/a	Yes	2.686	n/a	n/a	GoodResponse	0	0.0	n/a	6	36	ISIslide	Neutral	True
354.927	0.25	Win2	0.7105	0.0	Yes	2.873	0.027	n/a	GoodResponse	1	n/a	n/a	7	37	Cue	Win	True
355.177	4.0	Win2	0.7105	0.0	Yes	2.873	0.0	n/a	GoodResponse	1	n/a	n/a	7	37	Fixation	Win	True
359.176	0.28	Win2	0.7105	0.001	Yes	2.873	-0.001	2.0	GoodResponse	1	0.273	358.449	7	37	Target	Win	True
359.449	0.3	Win2	0.7105	0.001	Yes	2.873	-0.001	2.0	GoodResponse	1	0.273	n/a	7	37	ButtonPress	Win	True
359.459	0.42	Win2	0.7105	n/a	Yes	2.873	n/a	n/a	GoodResponse	1	n/a	n/a	7	37	Blank	Win	True
359.876	1.45	Win2	0.7105	n/a	Yes	2.873	n/a	5.0	GoodResponse	1	0.005	358.881	7	37	Feedback	Win	True
361.325	2.873	Win2	0.7105	n/a	Yes	2.873	n/a	n/a	GoodResponse	1	0.0	n/a	7	37	ISIslide	Win	True
364.224	0.25	Lose2	0.6923	0.0	No	2.826	0.024	n/a	NoResponse	-1	n/a	n/a	6	38	Cue	Loss	False
364.474	3.95	Lose2	0.6923	0.0	No	2.826	0.0	n/a	NoResponse	-1	n/a	n/a	6	38	Fixation	Loss	False
368.423	0.27	Lose2	0.6923	0.001	No	2.826	-0.001	n/a	NoResponse	-1	n/a	n/a	6	38	Target	Loss	False
368.706	0.43	Lose2	0.6923	n/a	No	2.826	n/a	n/a	NoResponse	-1	n/a	n/a	6	38	Blank	Loss	False
369.122	1.45	Lose2	0.6923	n/a	No	2.826	n/a	5.0	NoResponse	-1	0.024	368.146	6	38	Feedback	Loss	False
370.572	2.826	Lose2	0.6923	n/a	No	2.826	n/a	n/a	NoResponse	-1	0.0	n/a	6	38	ISIslide	Loss	False
373.421	0.25	Win2	0.675	0.0	No	2.979	0.021	n/a	NoResponse	0	n/a	n/a	6	39	Cue	MissedWin	True
373.671	4.1	Win2	0.675	0.0	No	2.979	0.0	n/a	NoResponse	0	n/a	n/a	6	39	Fixation	MissedWin	True
377.769	0.26	Win2	0.675	0.002	No	2.979	-0.002	2.0	NoResponse	0	0.29	377.059	6	39	Target	MissedWin	True
378.036	0.44	Win2	0.675	n/a	No	2.979	n/a	n/a	NoResponse	0	n/a	n/a	6	39	Blank	MissedWin	True
378.059	0.3	Win2	0.675	0.002	No	2.979	-0.002	2.0	NoResponse	0	0.29	n/a	6	39	ButtonPress	MissedWin	True
378.469	1.45	Win2	0.675	n/a	No	2.979	n/a	5.0	NoResponse	0	0.043	377.512	6	39	Feedback	MissedWin	True
379.919	2.979	Win2	0.675	n/a	No	2.979	n/a	n/a	NoResponse	0	0.0	n/a	6	39	ISIslide	MissedWin	True
382.918	0.25	Win2	0.6829000000000001	0.0	Yes	2.732	0.018	n/a	GoodResponse	1	n/a	n/a	7	40	Cue	Win	True
383.168	3.95	Win2	0.6829000000000001	0.0	Yes	2.732	0.0	n/a	GoodResponse	1	n/a	n/a	7	40	Fixation	Win	True
387.116	0.25	Win2	0.6829000000000001	0.002	Yes	2.732	-0.002	2.0	GoodResponse	1	0.241	386.357	7	40	Target	Win	True
387.357	0.3	Win2	0.6829000000000001	0.002	Yes	2.732	-0.002	2.0	GoodResponse	1	0.241	n/a	7	40	ButtonPress	Win	True
387.366	0.45	Win2	0.6829000000000001	n/a	Yes	2.732	n/a	n/a	GoodResponse	1	n/a	n/a	7	40	Blank	Win	True
387.816	1.45	Win2	0.6829000000000001	n/a	Yes	2.732	n/a	5.0	GoodResponse	1	0.012	386.828	7	40	Feedback	Win	True
389.265	2.732	Win2	0.6829000000000001	n/a	Yes	2.732	n/a	n/a	GoodResponse	1	0.0	n/a	7	40	ISIslide	Win	True
392.014	0.25	Win2	0.6667000000000001	0.001	No	2.786	0.014	n/a	NoResponse	0	n/a	n/a	7	41	Cue	MissedWin	True
392.264	3.9	Win2	0.6667000000000001	0.0	No	2.786	0.0	n/a	NoResponse	0	n/a	n/a	7	41	Fixation	MissedWin	True
396.163	0.24	Win2	0.6667000000000001	0.001	No	2.786	-0.001	2.0	NoResponse	0	0.27	395.433	7	41	Target	MissedWin	True
396.413	0.46	Win2	0.6667000000000001	n/a	No	2.786	n/a	n/a	NoResponse	0	n/a	n/a	7	41	Blank	MissedWin	True
396.433	0.3	Win2	0.6667000000000001	0.001	No	2.786	-0.001	2.0	NoResponse	0	0.27	n/a	7	41	ButtonPress	MissedWin	True
396.863	1.45	Win2	0.6667000000000001	n/a	No	2.786	n/a	5.0	NoResponse	0	0.039	395.902	7	41	Feedback	MissedWin	True
398.312	2.786	Win2	0.6667000000000001	n/a	No	2.786	n/a	n/a	NoResponse	0	0.0	n/a	7	41	ISIslide	MissedWin	True
401.128	0.25	Control	0.6512	0.0	No	2.922	0.028	n/a	NoResponse	0	n/a	n/a	7	42	Cue	Neutral	True
401.378	3.85	Control	0.6512	0.0	No	2.922	0.0	n/a	NoResponse	0	n/a	n/a	7	42	Fixation	Neutral	True
405.227	0.23	Control	0.6512	0.001	No	2.922	-0.001	2.0	NoResponse	0	0.302	404.529	7	42	Target	Neutral	True
405.46	0.47	Control	0.6512	n/a	No	2.922	n/a	n/a	NoResponse	0	n/a	n/a	7	42	Blank	Neutral	True
405.529	0.3	Control	0.6512	0.001	No	2.922	-0.001	2.0	NoResponse	0	0.302	n/a	7	42	ButtonPress	Neutral	True
405.926	1.45	Control	0.6512	n/a	No	2.922	n/a	5.0	NoResponse	0	0.049	404.975	7	42	Feedback	Neutral	True
407.376	2.922	Control	0.6512	n/a	No	2.922	n/a	n/a	NoResponse	0	0.0	n/a	7	42	ISIslide	Neutral	True
410.325	0.25	Win2	0.6364	0.0	No	3.175	0.025	n/a	LatePress	0	n/a	n/a	7	43	Cue	MissedWin	True
410.575	4.0	Win2	0.6364	0.0	No	3.175	0.0	n/a	LatePress	0	n/a	n/a	7	43	Fixation	MissedWin	True
414.573	0.24	Win2	0.6364	0.002	No	3.175	-0.002	2.0	LatePress	0	0.245	413.818	7	43	Target	MissedWin	True
414.818	0.3	Win2	0.6364	0.002	No	3.175	-0.002	2.0	LatePress	0	0.245	n/a	7	43	ButtonPress	MissedWin	True
414.823	0.46	Win2	0.6364	n/a	No	3.175	n/a	n/a	LatePress	0	n/a	n/a	7	43	Blank	MissedWin	True
415.273	1.45	Win2	0.6364	n/a	No	3.175	n/a	5.0	LatePress	0	0.019	414.292	7	43	Feedback	MissedWin	True
416.723	3.175	Win2	0.6364	n/a	No	3.175	n/a	n/a	LatePress	0	0.0	n/a	7	43	ISIslide	MissedWin	True
419.921	0.25	Win2	0.6222	0.0	No	2.979	0.021	n/a	NoResponse	0	n/a	n/a	7	44	Cue	MissedWin	True
420.171	4.0	Win2	0.6222	0.0	No	2.979	0.0	n/a	NoResponse	0	n/a	n/a	7	44	Fixation	MissedWin	True
424.17	0.25	Win2	0.6222	0.001	No	2.979	-0.001	2.0	NoResponse	0	0.348	423.518	7	44	Target	MissedWin	True
424.42	0.45	Win2	0.6222	n/a	No	2.979	n/a	n/a	NoResponse	0	n/a	n/a	7	44	Blank	MissedWin	True
424.518	0.3	Win2	0.6222	0.001	No	2.979	-0.001	2.0	NoResponse	0	0.348	n/a	7	44	ButtonPress	MissedWin	True
424.87	1.45	Win2	0.6222	n/a	No	2.979	n/a	5.0	NoResponse	0	0.032	423.902	7	44	Feedback	MissedWin	True
426.319	2.979	Win2	0.6222	n/a	No	2.979	n/a	n/a	NoResponse	0	0.0	n/a	7	44	ISIslide	MissedWin	True
429.318	0.25	Control	0.6087	0.0	No	2.882	0.018	n/a	NoResponse	0	n/a	n/a	7	45	Cue	Neutral	True
429.568	4.1	Control	0.6087	0.0	No	2.882	0.0	n/a	NoResponse	0	n/a	n/a	7	45	Fixation	Neutral	True
433.667	0.26	Control	0.6087	0.001	No	2.882	-0.001	2.0	NoResponse	0	0.293	432.96	7	45	Target	Neutral	True
433.933	0.44	Control	0.6087	n/a	No	2.882	n/a	n/a	NoResponse	0	n/a	n/a	7	45	Blank	Neutral	True
433.96	0.3	Control	0.6087	0.001	No	2.882	-0.001	2.0	NoResponse	0	0.293	n/a	7	45	ButtonPress	Neutral	True
434.366	1.45	Control	0.6087	n/a	No	2.882	n/a	5.0	NoResponse	0	0.048	433.414	7	45	Feedback	Neutral	True
435.816	2.882	Control	0.6087	n/a	No	2.882	n/a	n/a	NoResponse	0	0.0	n/a	7	45	ISIslide	Neutral	True
438.715	0.25	Lose2	0.617	0.0	Yes	3.385	0.015	n/a	GoodResponse	0	n/a	n/a	7	46	Cue	AvoidedLoss	True
438.965	4.0	Lose2	0.617	0.0	Yes	3.385	0.0	n/a	GoodResponse	0	n/a	n/a	7	46	Fixation	AvoidedLoss	True
442.963	0.27	Lose2	0.617	0.002	Yes	3.385	-0.002	2.0	GoodResponse	0	0.196	442.159	7	46	Target	AvoidedLoss	True
443.159	0.3	Lose2	0.617	0.002	Yes	3.385	-0.002	2.0	GoodResponse	0	0.196	n/a	7	46	ButtonPress	AvoidedLoss	True
443.247	0.43	Lose2	0.617	n/a	Yes	3.385	n/a	n/a	GoodResponse	0	n/a	n/a	7	46	Blank	AvoidedLoss	True
443.663	1.45	Lose2	0.617	n/a	Yes	3.385	n/a	5.0	GoodResponse	0	0.019	442.682	7	46	Feedback	AvoidedLoss	True
445.113	3.385	Lose2	0.617	n/a	Yes	3.385	n/a	n/a	GoodResponse	0	0.0	n/a	7	46	ISIslide	AvoidedLoss	True
448.528	0.25	Lose2	0.625	0.0	Yes	2.672	0.028	n/a	GoodResponse	0	n/a	n/a	7	47	Cue	AvoidedLoss	True
448.778	4.0	Lose2	0.625	0.0	Yes	2.672	0.0	n/a	GoodResponse	0	n/a	n/a	7	47	Fixation	AvoidedLoss	True
452.777	0.28	Lose2	0.625	0.001	Yes	2.672	-0.001	2.0	GoodResponse	0	0.224	452.001	7	47	Target	AvoidedLoss	True
453.001	0.3	Lose2	0.625	0.001	Yes	2.672	-0.001	2.0	GoodResponse	0	0.224	n/a	7	47	ButtonPress	AvoidedLoss	True
453.06	0.42	Lose2	0.625	n/a	Yes	2.672	n/a	n/a	GoodResponse	0	n/a	n/a	7	47	Blank	AvoidedLoss	True
453.476	1.45	Lose2	0.625	n/a	Yes	2.672	n/a	5.0	GoodResponse	0	0.011	452.487	7	47	Feedback	AvoidedLoss	True
454.926	2.672	Lose2	0.625	n/a	Yes	2.672	n/a	n/a	GoodResponse	0	0.0	n/a	7	47	ISIslide	AvoidedLoss	True
457.625	0.25	Lose2	0.6327	0.0	Yes	3.025	0.025	n/a	GoodResponse	0	n/a	n/a	7	48	Cue	AvoidedLoss	True
457.875	3.95	Lose2	0.6327	0.0	Yes	3.025	0.0	n/a	GoodResponse	0	n/a	n/a	7	48	Fixation	AvoidedLoss	True
461.823	0.29	Lose2	0.6327	0.002	Yes	3.025	-0.002	2.0	GoodResponse	0	0.23	461.053	7	48	Target	AvoidedLoss	True
462.053	0.3	Lose2	0.6327	0.002	Yes	3.025	-0.002	2.0	GoodResponse	0	0.23	n/a	7	48	ButtonPress	AvoidedLoss	True
462.123	0.41	Lose2	0.6327	n/a	Yes	3.025	n/a	n/a	GoodResponse	0	n/a	n/a	7	48	Blank	AvoidedLoss	True
462.523	1.45	Lose2	0.6327	n/a	Yes	3.025	n/a	5.0	GoodResponse	0	0.037	461.56	7	48	Feedback	AvoidedLoss	True
463.973	3.025	Lose2	0.6327	n/a	Yes	3.025	n/a	n/a	GoodResponse	0	0.0	n/a	7	48	ISIslide	AvoidedLoss	True
467.022	0.25	Control	0.62	0.0	No	2.878	0.022	n/a	NoResponse	0	n/a	n/a	7	49	Cue	Neutral	False
467.272	4.0	Control	0.62	0.0	No	2.878	0.0	n/a	NoResponse	0	n/a	n/a	7	49	Fixation	Neutral	False
471.27	0.3	Control	0.62	0.002	No	2.878	-0.002	n/a	NoResponse	0	n/a	n/a	7	49	Target	Neutral	False
471.57	0.4	Control	0.62	n/a	No	2.878	n/a	n/a	NoResponse	0	n/a	n/a	7	49	Blank	Neutral	False
471.97	1.45	Control	0.62	n/a	No	2.878	n/a	5.0	NoResponse	0	0.006	470.976	7	49	Feedback	Neutral	False
473.419	2.878	Control	0.62	n/a	No	2.878	n/a	n/a	NoResponse	0	0.0	n/a	7	49	ISIslide	Neutral	False
476.318	0.25	Control	0.6078	0.0	No	2.782	0.018	n/a	NoResponse	0	n/a	n/a	7	50	Cue	Neutral	True
476.568	4.0	Control	0.6078	0.0	No	2.782	0.0	2.0	NoResponse	0	1.06	476.628	7	50	Fixation	Neutral	True
477.628	0.3	Control	0.6078	0.0	No	2.782	0.0	2.0	NoResponse	0	1.06	n/a	7	50	ButtonPress	Neutral	True
480.567	0.31	Control	0.6078	0.001	No	2.782	-0.001	n/a	NoResponse	0	n/a	n/a	7	50	Target	Neutral	True
480.883	0.39	Control	0.6078	n/a	No	2.782	n/a	n/a	NoResponse	0	n/a	n/a	7	50	Blank	Neutral	True
481.267	1.45	Control	0.6078	n/a	No	2.782	n/a	5.0	NoResponse	0	0.025	480.292	7	50	Feedback	Neutral	True
482.716	2.782	Control	0.6078	n/a	No	2.782	n/a	n/a	NoResponse	0	0.0	n/a	7	50	ISIslide	Neutral	True
485.515	0.25	Control	0.6154	0.0	Yes	2.735	0.015	n/a	GoodResponse	0	n/a	n/a	7	51	Cue	Neutral	True
485.765	3.95	Control	0.6154	0.0	Yes	2.735	0.0	n/a	GoodResponse	0	n/a	n/a	7	51	Fixation	Neutral	True
489.714	0.32	Control	0.6154	0.001	Yes	2.735	-0.001	2.0	GoodResponse	0	0.216	488.93	7	51	Target	Neutral	True
489.93	0.3	Control	0.6154	0.001	Yes	2.735	-0.001	2.0	GoodResponse	0	0.216	n/a	7	51	ButtonPress	Neutral	True
490.047	0.38	Control	0.6154	n/a	Yes	2.735	n/a	n/a	GoodResponse	0	n/a	n/a	7	51	Blank	Neutral	True
490.413	1.45	Control	0.6154	n/a	Yes	2.735	n/a	5.0	GoodResponse	0	0.049	489.462	7	51	Feedback	Neutral	True
491.863	2.735	Control	0.6154	n/a	Yes	2.735	n/a	n/a	GoodResponse	0	0.0	n/a	7	51	ISIslide	Neutral	True
494.629	0.25	Control	0.6225999999999999	0.0	Yes	2.621	0.029	n/a	GoodResponse	0	n/a	n/a	7	52	Cue	Neutral	True
494.879	4.05	Control	0.6225999999999999	0.0	Yes	2.621	0.0	n/a	GoodResponse	0	n/a	n/a	7	52	Fixation	Neutral	True
498.927	0.33	Control	0.6225999999999999	0.002	Yes	2.621	-0.002	2.0	GoodResponse	0	0.246	498.173	7	52	Target	Neutral	True
499.173	0.3	Control	0.6225999999999999	0.002	Yes	2.621	-0.002	2.0	GoodResponse	0	0.246	n/a	7	52	ButtonPress	Neutral	True
499.26	0.37	Control	0.6225999999999999	n/a	Yes	2.621	n/a	n/a	GoodResponse	0	n/a	n/a	7	52	Blank	Neutral	True
499.627	1.45	Control	0.6225999999999999	n/a	Yes	2.621	n/a	5.0	GoodResponse	0	0.006	498.633	7	52	Feedback	Neutral	True
501.076	2.621	Control	0.6225999999999999	n/a	Yes	2.621	n/a	n/a	GoodResponse	0	0.0	n/a	7	52	ISIslide	Neutral	True
503.725	0.25	Win2	0.6296	0.001	Yes	2.925	0.025	n/a	GoodResponse	1	n/a	n/a	8	53	Cue	Win	True
503.975	4.05	Win2	0.6296	0.0	Yes	2.925	0.0	n/a	GoodResponse	1	n/a	n/a	8	53	Fixation	Win	True
508.024	0.34	Win2	0.6296	0.001	Yes	2.925	-0.001	2.0	GoodResponse	1	0.199	507.223	8	53	Target	Win	True
508.223	0.3	Win2	0.6296	0.001	Yes	2.925	-0.001	2.0	GoodResponse	1	0.199	n/a	8	53	ButtonPress	Win	True
508.374	0.36	Win2	0.6296	n/a	Yes	2.925	n/a	n/a	GoodResponse	1	n/a	n/a	8	53	Blank	Win	True
508.724	1.45	Win2	0.6296	n/a	Yes	2.925	n/a	5.0	GoodResponse	1	0.031	507.755	8	53	Feedback	Win	True
510.173	2.925	Win2	0.6296	n/a	Yes	2.925	n/a	n/a	GoodResponse	1	0.0	n/a	8	53	ISIslide	Win	True
513.122	0.25	Win2	0.6364	0.0	Yes	2.728	0.022	n/a	GoodResponse	1	n/a	n/a	9	54	Cue	Win	True
513.372	3.95	Win2	0.6364	0.0	Yes	2.728	0.0	n/a	GoodResponse	1	n/a	n/a	9	54	Fixation	Win	True
517.321	0.35	Win2	0.6364	0.001	Yes	2.728	-0.001	2.0	GoodResponse	1	0.203	516.524	9	54	Target	Win	True
517.524	0.3	Win2	0.6364	0.001	Yes	2.728	-0.001	2.0	GoodResponse	1	0.203	n/a	9	54	ButtonPress	Win	True
517.671	0.35	Win2	0.6364	n/a	Yes	2.728	n/a	n/a	GoodResponse	1	n/a	n/a	9	54	Blank	Win	True
518.02	1.45	Win2	0.6364	n/a	Yes	2.728	n/a	5.0	GoodResponse	1	0.007	517.027	9	54	Feedback	Win	True
519.47	2.728	Win2	0.6364	n/a	Yes	2.728	n/a	n/a	GoodResponse	1	0.0	n/a	9	54	ISIslide	Win	True
522.219	0.25	Control	0.6429	0.0	Yes	3.031	0.019	n/a	GoodResponse	0	n/a	n/a	9	55	Cue	Neutral	True
522.469	3.95	Control	0.6429	0.0	Yes	3.031	0.0	n/a	GoodResponse	0	n/a	n/a	9	55	Fixation	Neutral	True
526.418	0.36	Control	0.6429	0.001	Yes	3.031	-0.001	2.0	GoodResponse	0	0.27	525.688	9	55	Target	Neutral	True
526.688	0.3	Control	0.6429	0.001	Yes	3.031	-0.001	2.0	GoodResponse	0	0.27	n/a	9	55	ButtonPress	Neutral	True
526.784	0.34	Control	0.6429	n/a	Yes	3.031	n/a	n/a	GoodResponse	0	n/a	n/a	9	55	Blank	Neutral	True
527.117	1.45	Control	0.6429	n/a	Yes	3.031	n/a	5.0	GoodResponse	0	0.028	526.145	9	55	Feedback	Neutral	True
528.567	3.031	Control	0.6429	n/a	Yes	3.031	n/a	n/a	GoodResponse	0	0.0	n/a	9	55	ISIslide	Neutral	True
531.616	0.25	Control	0.6491	0.0	Yes	2.834	0.016	n/a	GoodResponse	0	n/a	n/a	9	56	Cue	Neutral	True
531.866	3.95	Control	0.6491	0.0	Yes	2.834	0.0	n/a	GoodResponse	0	n/a	n/a	9	56	Fixation	Neutral	True
535.814	0.37	Control	0.6491	0.002	Yes	2.834	-0.002	2.0	GoodResponse	0	0.328	535.142	9	56	Target	Neutral	True
536.142	0.3	Control	0.6491	0.002	Yes	2.834	-0.002	2.0	GoodResponse	0	0.328	n/a	9	56	ButtonPress	Neutral	True
536.197	0.33	Control	0.6491	n/a	Yes	2.834	n/a	n/a	GoodResponse	0	n/a	n/a	9	56	Blank	Neutral	True
536.514	1.45	Control	0.6491	n/a	Yes	2.834	n/a	5.0	GoodResponse	0	0.046	535.56	9	56	Feedback	Neutral	True
537.964	2.834	Control	0.6491	n/a	Yes	2.834	n/a	n/a	GoodResponse	0	0.0	n/a	9	56	ISIslide	Neutral	True
540.829	0.25	Control	0.6552	0.0	Yes	3.471	0.029	n/a	GoodResponse	0	n/a	n/a	9	57	Cue	Neutral	True
541.079	4.0	Control	0.6552	0.0	Yes	3.471	0.0	n/a	GoodResponse	0	n/a	n/a	9	57	Fixation	Neutral	True
545.078	0.38	Control	0.6552	0.001	Yes	3.471	-0.001	2.0	GoodResponse	0	0.191	544.269	9	57	Target	Neutral	True
545.269	0.3	Control	0.6552	0.001	Yes	3.471	-0.001	2.0	GoodResponse	0	0.191	n/a	9	57	ButtonPress	Neutral	True
545.461	0.32	Control	0.6552	n/a	Yes	3.471	n/a	n/a	GoodResponse	0	n/a	n/a	9	57	Blank	Neutral	True
545.777	1.45	Control	0.6552	n/a	Yes	3.471	n/a	5.0	GoodResponse	0	0.006	544.783	9	57	Feedback	Neutral	True
547.227	3.471	Control	0.6552	n/a	Yes	3.471	n/a	n/a	GoodResponse	0	0.0	n/a	9	57	ISIslide	Neutral	True
550.726	0.25	Win2	0.6609999999999999	0.0	Yes	2.724	0.026	n/a	GoodResponse	1	n/a	n/a	10	58	Cue	Win	False
550.976	4.05	Win2	0.6609999999999999	0.0	Yes	2.724	0.0	2.0	GoodResponse	1	0.019	549.995	10	58	Fixation	Win	False
550.995	0.3	Win2	0.6609999999999999	0.0	Yes	2.724	0.0	2.0	GoodResponse	1	0.019	n/a	10	58	ButtonPress	Win	False
555.024	0.38	Win2	0.6609999999999999	0.002	Yes	2.724	-0.002	2.0	GoodResponse	1	0.208	554.232	10	58	Target	Win	False
555.232	0.3	Win2	0.6609999999999999	0.002	Yes	2.724	-0.002	2.0	GoodResponse	1	0.208	n/a	10	58	ButtonPress	Win	False
555.407	0.32	Win2	0.6609999999999999	n/a	Yes	2.724	n/a	n/a	GoodResponse	1	n/a	n/a	10	58	Blank	Win	False
555.724	1.45	Win2	0.6609999999999999	n/a	Yes	2.724	n/a	5.0	GoodResponse	1	0.006	554.73	10	58	Feedback	Win	False
557.173	2.724	Win2	0.6609999999999999	n/a	Yes	2.724	n/a	n/a	GoodResponse	1	0.0	n/a	10	58	ISIslide	Win	False
559.923	0.25	Lose2	0.6667000000000001	0.0	Yes	2.677	0.023	n/a	GoodResponse	0	n/a	n/a	10	59	Cue	AvoidedLoss	True
560.172	4.0	Lose2	0.6667000000000001	0.001	Yes	2.677	-0.001	n/a	GoodResponse	0	n/a	n/a	10	59	Fixation	AvoidedLoss	True
564.171	0.38	Lose2	0.6667000000000001	0.002	Yes	2.677	-0.002	2.0	GoodResponse	0	0.189	563.36	10	59	Target	AvoidedLoss	True
564.36	0.3	Lose2	0.6667000000000001	0.002	Yes	2.677	-0.002	2.0	GoodResponse	0	0.189	n/a	10	59	ButtonPress	AvoidedLoss	True
564.554	0.32	Lose2	0.6667000000000001	n/a	Yes	2.677	n/a	n/a	GoodResponse	0	n/a	n/a	10	59	Blank	AvoidedLoss	True
564.871	1.45	Lose2	0.6667000000000001	n/a	Yes	2.677	n/a	5.0	GoodResponse	0	0.03	563.901	10	59	Feedback	AvoidedLoss	True
566.32	2.677	Lose2	0.6667000000000001	n/a	Yes	2.677	n/a	n/a	GoodResponse	0	0.0	n/a	10	59	ISIslide	AvoidedLoss	True
569.019	0.25	Control	0.6720999999999999	0.0	Yes	2.681	0.019	n/a	GoodResponse	0	n/a	n/a	10	60	Cue	Neutral	True
569.269	4.0	Control	0.6720999999999999	0.0	Yes	2.681	0.0	n/a	GoodResponse	0	n/a	n/a	10	60	Fixation	Neutral	True
573.268	0.37	Control	0.6720999999999999	0.001	Yes	2.681	-0.001	2.0	GoodResponse	0	0.212	572.48	10	60	Target	Neutral	True
573.48	0.3	Control	0.6720999999999999	0.001	Yes	2.681	-0.001	2.0	GoodResponse	0	0.212	n/a	10	60	ButtonPress	Neutral	True
573.634	0.33	Control	0.6720999999999999	n/a	Yes	2.681	n/a	n/a	GoodResponse	0	n/a	n/a	10	60	Blank	Neutral	True
573.968	1.45	Control	0.6720999999999999	n/a	Yes	2.681	n/a	5.0	GoodResponse	0	0.006	572.974	10	60	Feedback	Neutral	True
575.417	2.681	Control	0.6720999999999999	n/a	Yes	2.681	n/a	n/a	GoodResponse	0	0.0	n/a	10	60	ISIslide	Neutral	True
578.116	0.25	Lose2	0.6774	0.0	Yes	2.984	0.016	n/a	GoodResponse	0	n/a	n/a	10	61	Cue	AvoidedLoss	True
578.366	4.0	Lose2	0.6774	0.0	Yes	2.984	0.0	n/a	GoodResponse	0	n/a	n/a	10	61	Fixation	AvoidedLoss	True
582.365	0.36	Lose2	0.6774	0.001	Yes	2.984	-0.001	2.0	GoodResponse	0	0.232	581.597	10	61	Target	AvoidedLoss	True
582.597	0.3	Lose2	0.6774	0.001	Yes	2.984	-0.001	2.0	GoodResponse	0	0.232	n/a	10	61	ButtonPress	AvoidedLoss	True
582.731	0.34	Lose2	0.6774	n/a	Yes	2.984	n/a	n/a	GoodResponse	0	n/a	n/a	10	61	Blank	AvoidedLoss	True
583.064	1.45	Lose2	0.6774	n/a	Yes	2.984	n/a	5.0	GoodResponse	0	0.032	582.096	10	61	Feedback	AvoidedLoss	True
584.514	2.984	Lose2	0.6774	n/a	Yes	2.984	n/a	n/a	GoodResponse	0	0.0	n/a	10	61	ISIslide	AvoidedLoss	True
587.53	0.25	Lose2	0.6825	0.0	Yes	2.87	0.03	n/a	GoodResponse	0	n/a	n/a	10	62	Cue	AvoidedLoss	True
587.779	3.9	Lose2	0.6825	0.001	Yes	2.87	-0.001	n/a	GoodResponse	0	n/a	n/a	10	62	Fixation	AvoidedLoss	True
591.678	0.35	Lose2	0.6825	0.002	Yes	2.87	-0.002	2.0	GoodResponse	0	0.223	590.901	10	62	Target	AvoidedLoss	True
591.901	0.3	Lose2	0.6825	0.002	Yes	2.87	-0.002	2.0	GoodResponse	0	0.223	n/a	10	62	ButtonPress	AvoidedLoss	True
592.028	0.35	Lose2	0.6825	n/a	Yes	2.87	n/a	n/a	GoodResponse	0	n/a	n/a	10	62	Blank	AvoidedLoss	True
592.378	1.45	Lose2	0.6825	n/a	Yes	2.87	n/a	5.0	GoodResponse	0	0.034	591.412	10	62	Feedback	AvoidedLoss	True
593.827	2.87	Lose2	0.6825	n/a	Yes	2.87	n/a	n/a	GoodResponse	0	0.0	n/a	10	62	ISIslide	AvoidedLoss	True
596.726	0.25	Lose2	0.6875	0.0	Yes	2.624	0.026	n/a	GoodResponse	0	n/a	n/a	10	63	Cue	AvoidedLoss	True
596.976	4.05	Lose2	0.6875	0.0	Yes	2.624	0.0	n/a	GoodResponse	0	n/a	n/a	10	63	Fixation	AvoidedLoss	True
601.025	0.34	Lose2	0.6875	0.001	Yes	2.624	-0.001	2.0	GoodResponse	0	0.239	600.264	10	63	Target	AvoidedLoss	True
601.264	0.3	Lose2	0.6875	0.001	Yes	2.624	-0.001	2.0	GoodResponse	0	0.239	n/a	10	63	ButtonPress	AvoidedLoss	True
601.375	0.36	Lose2	0.6875	n/a	Yes	2.624	n/a	n/a	GoodResponse	0	n/a	n/a	10	63	Blank	AvoidedLoss	True
601.725	1.45	Lose2	0.6875	n/a	Yes	2.624	n/a	5.0	GoodResponse	0	0.007	600.732	10	63	Feedback	AvoidedLoss	True
603.174	2.624	Lose2	0.6875	n/a	Yes	2.624	n/a	n/a	GoodResponse	0	0.0	n/a	10	63	ISIslide	AvoidedLoss	True
605.823	0.25	Win2	0.6923	0.0	Yes	3.127	0.023	n/a	GoodResponse	1	n/a	n/a	11	64	Cue	Win	True
606.073	4.15	Win2	0.6923	0.0	Yes	3.127	0.0	n/a	GoodResponse	1	n/a	n/a	11	64	Fixation	Win	True
610.222	0.33	Win2	0.6923	0.001	Yes	3.127	-0.001	2.0	GoodResponse	1	0.242	609.464	11	64	Target	Win	True
610.464	0.3	Win2	0.6923	0.001	Yes	3.127	-0.001	2.0	GoodResponse	1	0.242	n/a	11	64	ButtonPress	Win	True
610.555	0.37	Win2	0.6923	n/a	Yes	3.127	n/a	n/a	GoodResponse	1	n/a	n/a	11	64	Blank	Win	True
610.921	1.45	Win2	0.6923	n/a	Yes	3.127	n/a	5.0	GoodResponse	1	0.028	609.949	11	64	Feedback	Win	True
612.371	3.127	Win2	0.6923	n/a	Yes	3.127	n/a	n/a	GoodResponse	1	0.0	n/a	11	64	ISIslide	Win	True
615.52	0.25	Control	0.6970000000000001	0.0	Yes	2.78	0.02	n/a	GoodResponse	0	n/a	n/a	11	65	Cue	Neutral	True
615.77	4.0	Control	0.6970000000000001	0.0	Yes	2.78	0.0	n/a	GoodResponse	0	n/a	n/a	11	65	Fixation	Neutral	True
619.768	0.32	Control	0.6970000000000001	0.002	Yes	2.78	-0.002	2.0	GoodResponse	0	0.284	619.052	11	65	Target	Neutral	True
620.052	0.3	Control	0.6970000000000001	0.002	Yes	2.78	-0.002	2.0	GoodResponse	0	0.284	n/a	11	65	ButtonPress	Neutral	True
620.102	0.38	Control	0.6970000000000001	n/a	Yes	2.78	n/a	n/a	GoodResponse	0	n/a	n/a	11	65	Blank	Neutral	True
620.468	1.45	Control	0.6970000000000001	n/a	Yes	2.78	n/a	5.0	GoodResponse	0	0.042	619.51	11	65	Feedback	Neutral	True
621.918	2.78	Control	0.6970000000000001	n/a	Yes	2.78	n/a	n/a	GoodResponse	0	0.0	n/a	11	65	ISIslide	Neutral	True
624.717	0.25	Win2	0.7015	0.0	Yes	2.783	0.017	n/a	GoodResponse	1	n/a	n/a	12	66	Cue	Win	True
624.967	3.9	Win2	0.7015	0.0	Yes	2.783	0.0	n/a	GoodResponse	1	n/a	n/a	12	66	Fixation	Win	True
628.865	0.31	Win2	0.7015	0.002	Yes	2.783	-0.002	2.0	GoodResponse	1	0.216	628.081	12	66	Target	Win	True
629.081	0.3	Win2	0.7015	0.002	Yes	2.783	-0.002	2.0	GoodResponse	1	0.216	n/a	12	66	ButtonPress	Win	True
629.182	0.39	Win2	0.7015	n/a	Yes	2.783	n/a	n/a	GoodResponse	1	n/a	n/a	12	66	Blank	Win	True
629.565	1.45	Win2	0.7015	n/a	Yes	2.783	n/a	5.0	GoodResponse	1	0.018	628.583	12	66	Feedback	Win	True
631.014	2.783	Win2	0.7015	n/a	Yes	2.783	n/a	n/a	GoodResponse	1	0.0	n/a	12	66	ISIslide	Win	True
633.813	0.25	Control	0.7059000000000001	0.0	Yes	2.737	0.013	n/a	GoodResponse	0	n/a	n/a	12	67	Cue	Neutral	True
634.063	3.95	Control	0.7059000000000001	0.0	Yes	2.737	0.0	n/a	GoodResponse	0	n/a	n/a	12	67	Fixation	Neutral	True
638.012	0.3	Control	0.7059000000000001	0.001	Yes	2.737	-0.001	2.0	GoodResponse	0	0.21	637.222	12	67	Target	Neutral	True
638.222	0.3	Control	0.7059000000000001	0.001	Yes	2.737	-0.001	2.0	GoodResponse	0	0.21	n/a	12	67	ButtonPress	Neutral	True
638.312	0.4	Control	0.7059000000000001	n/a	Yes	2.737	n/a	n/a	GoodResponse	0	n/a	n/a	12	67	Blank	Neutral	True
638.712	1.45	Control	0.7059000000000001	n/a	Yes	2.737	n/a	5.0	GoodResponse	0	0.041	637.753	12	67	Feedback	Neutral	True
640.161	2.737	Control	0.7059000000000001	n/a	Yes	2.737	n/a	n/a	GoodResponse	0	0.0	n/a	12	67	ISIslide	Neutral	True
642.927	0.25	Win2	0.7101000000000001	0.0	Yes	3.073	0.027	n/a	GoodResponse	1	n/a	n/a	13	68	Cue	Win	True
643.177	4.0	Win2	0.7101000000000001	0.0	Yes	3.073	0.0	n/a	GoodResponse	1	n/a	n/a	13	68	Fixation	Win	True
647.175	0.29	Win2	0.7101000000000001	0.002	Yes	3.073	-0.002	2.0	GoodResponse	1	0.202	646.377	13	68	Target	Win	True
647.377	0.3	Win2	0.7101000000000001	0.002	Yes	3.073	-0.002	2.0	GoodResponse	1	0.202	n/a	13	68	ButtonPress	Win	True
647.475	0.41	Win2	0.7101000000000001	n/a	Yes	3.073	n/a	n/a	GoodResponse	1	n/a	n/a	13	68	Blank	Win	True
647.875	1.45	Win2	0.7101000000000001	n/a	Yes	3.073	n/a	5.0	GoodResponse	1	0.0	646.875	13	68	Feedback	Win	True
649.325	3.073	Win2	0.7101000000000001	n/a	Yes	3.073	n/a	n/a	GoodResponse	1	0.0	n/a	13	68	ISIslide	Win	True
652.424	0.25	Win2	0.7143	0.0	Yes	3.226	0.024	n/a	GoodResponse	1	n/a	n/a	14	69	Cue	Win	True
652.674	3.95	Win2	0.7143	0.0	Yes	3.226	0.0	n/a	GoodResponse	1	n/a	n/a	14	69	Fixation	Win	True
656.622	0.28	Win2	0.7143	0.002	Yes	3.226	-0.002	2.0	GoodResponse	1	0.187	655.809	14	69	Target	Win	True
656.809	0.3	Win2	0.7143	0.002	Yes	3.226	-0.002	2.0	GoodResponse	1	0.187	n/a	14	69	ButtonPress	Win	True
656.905	0.42	Win2	0.7143	n/a	Yes	3.226	n/a	n/a	GoodResponse	1	n/a	n/a	14	69	Blank	Win	True
657.322	1.45	Win2	0.7143	n/a	Yes	3.226	n/a	5.0	GoodResponse	1	0.017	656.339	14	69	Feedback	Win	True
658.771	3.226	Win2	0.7143	n/a	Yes	3.226	n/a	n/a	GoodResponse	1	0.0	n/a	14	69	ISIslide	Win	True
662.02	0.25	Lose2	0.7042	0.0	No	3.03	0.02	n/a	NoResponse	-1	n/a	n/a	13	70	Cue	Loss	True
662.27	4.05	Lose2	0.7042	0.0	No	3.03	0.0	n/a	NoResponse	-1	n/a	n/a	13	70	Fixation	Loss	True
666.319	0.27	Lose2	0.7042	0.001	No	3.03	-0.001	2.0	NoResponse	-1	0.371	665.69	13	70	Target	Loss	True
666.602	0.43	Lose2	0.7042	n/a	No	3.03	n/a	n/a	NoResponse	-1	n/a	n/a	13	70	Blank	Loss	True
666.69	0.3	Lose2	0.7042	0.001	No	3.03	-0.001	2.0	NoResponse	-1	0.371	n/a	13	70	ButtonPress	Loss	True
667.019	1.45	Lose2	0.7042	n/a	No	3.03	n/a	5.0	NoResponse	-1	0.027	666.046	13	70	Feedback	Loss	True
668.468	3.03	Lose2	0.7042	n/a	No	3.03	n/a	n/a	NoResponse	-1	0.0	n/a	13	70	ISIslide	Loss	True
671.517	0.25	Win2	0.7082999999999999	0.0	Yes	2.733	0.017	n/a	GoodResponse	1	n/a	n/a	14	71	Cue	Win	True
671.767	4.05	Win2	0.7082999999999999	0.0	Yes	2.733	0.0	n/a	GoodResponse	1	n/a	n/a	14	71	Fixation	Win	True
675.815	0.26	Win2	0.7082999999999999	0.002	Yes	2.733	-0.002	2.0	GoodResponse	1	0.215	675.03	14	71	Target	Win	True
676.03	0.3	Win2	0.7082999999999999	0.002	Yes	2.733	-0.002	2.0	GoodResponse	1	0.215	n/a	14	71	ButtonPress	Win	True
676.082	0.44	Win2	0.7082999999999999	n/a	Yes	2.733	n/a	n/a	GoodResponse	1	n/a	n/a	14	71	Blank	Win	True
676.515	1.45	Win2	0.7082999999999999	n/a	Yes	2.733	n/a	5.0	GoodResponse	1	0.044	675.559	14	71	Feedback	Win	True
677.965	2.733	Win2	0.7082999999999999	n/a	Yes	2.733	n/a	n/a	GoodResponse	1	0.0	n/a	14	71	ISIslide	Win	True
680.714	0.25	Win2	0.7123	0.0	Yes	2.786	0.014	n/a	GoodResponse	1	n/a	n/a	15	72	Cue	Win	True
680.964	4.1	Win2	0.7123	0.0	Yes	2.786	0.0	n/a	GoodResponse	1	n/a	n/a	15	72	Fixation	Win	True
685.062	0.25	Win2	0.7123	0.002	Yes	2.786	-0.002	2.0	GoodResponse	1	0.202	684.264	15	72	Target	Win	True
685.264	0.3	Win2	0.7123	0.002	Yes	2.786	-0.002	2.0	GoodResponse	1	0.202	n/a	15	72	ButtonPress	Win	True
685.312	0.45	Win2	0.7123	n/a	Yes	2.786	n/a	n/a	GoodResponse	1	n/a	n/a	15	72	Blank	Win	True
685.762	1.45	Win2	0.7123	n/a	Yes	2.786	n/a	5.0	GoodResponse	1	0.016	684.778	15	72	Feedback	Win	True
687.211	2.786	Win2	0.7123	n/a	Yes	2.786	n/a	n/a	GoodResponse	1	0.0	n/a	15	72	ISIslide	Win	True
690.027	0.25	Win2	0.7027	0.0	No	2.673	0.027	n/a	NoResponse	0	n/a	n/a	15	73	Cue	MissedWin	True
690.277	4.0	Win2	0.7027	0.0	No	2.673	0.0	n/a	NoResponse	0	n/a	n/a	15	73	Fixation	MissedWin	True
694.276	0.24	Win2	0.7027	0.001	No	2.673	-0.001	2.0	NoResponse	0	0.303	693.579	15	73	Target	MissedWin	True
694.526	0.46	Win2	0.7027	n/a	No	2.673	n/a	n/a	NoResponse	0	n/a	n/a	15	73	Blank	MissedWin	True
694.579	0.3	Win2	0.7027	0.001	No	2.673	-0.001	2.0	NoResponse	0	0.303	n/a	15	73	ButtonPress	MissedWin	True
694.975	1.45	Win2	0.7027	n/a	No	2.673	n/a	5.0	NoResponse	0	0.022	693.997	15	73	Feedback	MissedWin	True
696.425	2.673	Win2	0.7027	n/a	No	2.673	n/a	n/a	NoResponse	0	0.0	n/a	15	73	ISIslide	MissedWin	True
699.124	0.25	Lose2	0.7067	0.0	Yes	2.626	0.024	n/a	GoodResponse	0	n/a	n/a	15	74	Cue	AvoidedLoss	True
699.374	4.05	Lose2	0.7067	0.0	Yes	2.626	0.0	n/a	GoodResponse	0	n/a	n/a	15	74	Fixation	AvoidedLoss	True
703.422	0.23	Lose2	0.7067	0.002	Yes	2.626	-0.002	2.0	GoodResponse	0	0.219	702.641	15	74	Target	AvoidedLoss	True
703.641	0.3	Lose2	0.7067	0.002	Yes	2.626	-0.002	2.0	GoodResponse	0	0.219	n/a	15	74	ButtonPress	AvoidedLoss	True
703.656	0.47	Lose2	0.7067	n/a	Yes	2.626	n/a	n/a	GoodResponse	0	n/a	n/a	15	74	Blank	AvoidedLoss	True
704.122	1.45	Lose2	0.7067	n/a	Yes	2.626	n/a	5.0	GoodResponse	0	0.046	703.168	15	74	Feedback	AvoidedLoss	True
705.572	2.626	Lose2	0.7067	n/a	Yes	2.626	n/a	n/a	GoodResponse	0	0.0	n/a	15	74	ISIslide	AvoidedLoss	True
708.221	0.25	Lose2	0.6973999999999999	0.0	No	2.929	0.021	n/a	LatePress	-1	n/a	n/a	14	75	Cue	Loss	True
708.471	3.95	Lose2	0.6973999999999999	0.0	No	2.929	0.0	n/a	LatePress	-1	n/a	n/a	14	75	Fixation	Loss	True
712.419	0.22	Lose2	0.6973999999999999	0.002	No	2.929	-0.002	2.0	LatePress	-1	0.223	711.642	14	75	Target	Loss	True
712.642	0.3	Lose2	0.6973999999999999	0.002	No	2.929	-0.002	2.0	LatePress	-1	0.223	n/a	14	75	ButtonPress	Loss	True
712.653	0.48	Lose2	0.6973999999999999	n/a	No	2.929	n/a	n/a	LatePress	-1	n/a	n/a	14	75	Blank	Loss	True
713.119	1.45	Lose2	0.6973999999999999	n/a	No	2.929	n/a	5.0	LatePress	-1	0.025	712.144	14	75	Feedback	Loss	True
714.569	2.929	Lose2	0.6973999999999999	n/a	No	2.929	n/a	n/a	LatePress	-1	0.0	n/a	14	75	ISIslide	Loss	True
717.518	0.25	Control	0.6883	0.0	No	3.232	0.018	n/a	NoResponse	0	n/a	n/a	14	76	Cue	Neutral	True
717.767	4.05	Control	0.6883	0.001	No	3.232	-0.001	n/a	NoResponse	0	n/a	n/a	14	76	Fixation	Neutral	True
721.816	0.21	Control	0.6883	0.002	No	3.232	-0.002	2.0	NoResponse	0	0.251	721.067	14	76	Target	Neutral	True
722.033	0.49	Control	0.6883	n/a	No	3.232	n/a	n/a	NoResponse	0	n/a	n/a	14	76	Blank	Neutral	True
722.067	0.3	Control	0.6883	0.002	No	3.232	-0.002	2.0	NoResponse	0	0.251	n/a	14	76	ButtonPress	Neutral	True
722.516	1.45	Control	0.6883	n/a	No	3.232	n/a	5.0	NoResponse	0	0.042	721.558	14	76	Feedback	Neutral	True
723.965	3.232	Control	0.6883	n/a	No	3.232	n/a	n/a	NoResponse	0	0.0	n/a	14	76	ISIslide	Neutral	True
727.214	0.25	Lose2	0.6795	0.0	No	2.586	0.014	n/a	NoResponse	-1	n/a	n/a	13	77	Cue	Loss	True
727.464	3.95	Lose2	0.6795	0.0	No	2.586	0.0	n/a	NoResponse	-1	n/a	n/a	13	77	Fixation	Loss	True
731.413	0.2	Lose2	0.6795	0.001	No	2.586	-0.001	2.0	NoResponse	-1	0.235	730.648	13	77	Target	Loss	True
731.613	0.5	Lose2	0.6795	n/a	No	2.586	n/a	n/a	NoResponse	-1	n/a	n/a	13	77	Blank	Loss	True
731.648	0.3	Lose2	0.6795	0.001	No	2.586	-0.001	2.0	NoResponse	-1	0.235	n/a	13	77	ButtonPress	Loss	True
732.112	1.45	Lose2	0.6795	n/a	No	2.586	n/a	5.0	NoResponse	-1	0.007	731.119	13	77	Feedback	Loss	True
733.562	2.586	Lose2	0.6795	n/a	No	2.586	n/a	n/a	NoResponse	-1	0.0	n/a	13	77	ISIslide	Loss	True
