onset	duration	cue_type	current_mean_accuracy	duration_error	is_hit	isi_adjusted	onset_delay	response	response_type	reward	rt	rt_time	total_reward	trial_number	trial_phase	trial_type	one_press
11.102	0.25	Control	1.0	0.0	Yes	2.948	0.002	n/a	GoodResponse	0	n/a	n/a	0	0	Cue	Neutral	True
11.353	3.85	Control	1.0	0.0	Yes	2.948	0.001	n/a	GoodResponse	0	n/a	n/a	0	0	Fixation	Neutral	True
15.198	0.4	Control	1.0	0.004	Yes	2.948	-0.004	2.0	GoodResponse	0	0.184	14.382	0	0	Target	Neutral	True
15.382	0.3	Control	1.0	0.004	Yes	2.948	-0.004	2.0	GoodResponse	0	0.184	n/a	0	0	ButtonPress	Neutral	True
15.599	0.3	Control	1.0	n/a	Yes	2.948	n/a	n/a	GoodResponse	0	n/a	n/a	0	0	Blank	Neutral	True
15.9	1.45	Control	1.0	n/a	Yes	2.948	n/a	5.0	GoodResponse	0	0.027	14.927	0	0	Feedback	Neutral	True
17.354	2.948	Control	1.0	n/a	Yes	2.948	n/a	n/a	GoodResponse	0	0.0	n/a	0	0	ISIslide	Neutral	True
20.313	0.25	Lose2	1.0	0.0	Yes	2.787	0.013	n/a	GoodResponse	0	n/a	n/a	0	1	Cue	AvoidedLoss	True
20.564	4.0	Lose2	1.0	0.0	Yes	2.787	0.001	n/a	GoodResponse	0	n/a	n/a	0	1	Fixation	AvoidedLoss	True
24.559	0.39	Lose2	1.0	0.004	Yes	2.787	-0.004	2.0	GoodResponse	0	0.185	23.744	0	1	Target	AvoidedLoss	True
24.744	0.3	Lose2	1.0	0.004	Yes	2.787	-0.004	2.0	GoodResponse	0	0.185	n/a	0	1	ButtonPress	AvoidedLoss	True
24.96	0.31	Lose2	1.0	n/a	Yes	2.787	n/a	n/a	GoodResponse	0	n/a	n/a	0	1	Blank	AvoidedLoss	True
25.261	1.45	Lose2	1.0	n/a	Yes	2.787	n/a	5.0	GoodResponse	0	0.032	24.293	0	1	Feedback	AvoidedLoss	True
26.715	2.787	Lose2	1.0	n/a	Yes	2.787	n/a	n/a	GoodResponse	0	0.0	n/a	0	1	ISIslide	AvoidedLoss	True
29.524	0.25	Control	1.0	0.0	Yes	2.576	0.024	n/a	GoodResponse	0	n/a	n/a	0	2	Cue	Neutral	False
29.775	4.1	Control	1.0	0.0	Yes	2.576	0.001	2.0	GoodResponse	0	3.468	32.243	0	2	Fixation	Neutral	False
33.243	0.3	Control	1.0	0.0	Yes	2.576	0.001	2.0	GoodResponse	0	3.468	n/a	0	2	ButtonPress	Neutral	False
33.87	0.38	Control	1.0	0.004	Yes	2.576	-0.004	2.0	GoodResponse	0	0.237	33.107	0	2	Target	Neutral	False
34.107	0.3	Control	1.0	0.004	Yes	2.576	-0.004	2.0	GoodResponse	0	0.237	n/a	0	2	ButtonPress	Neutral	False
34.255	0.32	Control	1.0	n/a	Yes	2.576	n/a	n/a	GoodResponse	0	n/a	n/a	0	2	Blank	Neutral	False
34.572	1.45	Control	1.0	n/a	Yes	2.576	n/a	5.0	GoodResponse	0	0.038	33.61	0	2	Feedback	Neutral	False
36.027	2.576	Control	1.0	n/a	Yes	2.576	n/a	n/a	GoodResponse	0	0.0	n/a	0	2	ISIslide	Neutral	False
38.618	0.25	Win2	1.0	0.0	Yes	2.832	0.018	n/a	GoodResponse	1	n/a	n/a	1	3	Cue	Win	True
38.869	3.95	Win2	1.0	0.0	Yes	2.832	0.001	n/a	GoodResponse	1	n/a	n/a	1	3	Fixation	Win	True
42.814	0.37	Win2	1.0	0.004	Yes	2.832	-0.004	2.0	GoodResponse	1	0.173	41.987	1	3	Target	Win	True
42.987	0.3	Win2	1.0	0.004	Yes	2.832	-0.004	2.0	GoodResponse	1	0.173	n/a	1	3	ButtonPress	Win	True
43.198	0.33	Win2	1.0	n/a	Yes	2.832	n/a	n/a	GoodResponse	1	n/a	n/a	1	3	Blank	Win	True
43.516	1.45	Win2	1.0	n/a	Yes	2.832	n/a	5.0	GoodResponse	1	0.02	42.536	1	3	Feedback	Win	True
44.97	2.832	Win2	1.0	n/a	Yes	2.832	n/a	n/a	GoodResponse	1	0.0	n/a	1	3	ISIslide	Win	True
47.829	0.25	Win2	1.0	0.0	Yes	3.271	0.029	n/a	GoodResponse	1	n/a	n/a	2	4	Cue	Win	True
48.079	4.0	Win2	1.0	0.001	Yes	3.271	0.0	n/a	GoodResponse	1	n/a	n/a	2	4	Fixation	Win	True
52.075	0.36	Win2	1.0	0.004	Yes	3.271	-0.004	2.0	GoodResponse	1	0.188	51.263	2	4	Target	Win	True
52.263	0.3	Win2	1.0	0.004	Yes	3.271	-0.004	2.0	GoodResponse	1	0.188	n/a	2	4	ButtonPress	Win	True
52.443	0.34	Win2	1.0	n/a	Yes	3.271	n/a	n/a	GoodResponse	1	n/a	n/a	2	4	Blank	Win	True
52.777	1.45	Win2	1.0	n/a	Yes	3.271	n/a	5.0	GoodResponse	1	0.027	51.804	2	4	Feedback	Win	True
54.231	3.271	Win2	1.0	n/a	Yes	3.271	n/a	n/a	GoodResponse	1	0.0	n/a	2	4	ISIslide	Win	True
57.524	0.25	Win2	1.0	0.0	Yes	2.776	0.024	n/a	GoodResponse	1	n/a	n/a	3	5	Cue	Win	True
57.775	4.0	Win2	1.0	0.0	Yes	2.776	0.001	n/a	GoodResponse	1	n/a	n/a	3	5	Fixation	Win	True
61.77	0.35	Win2	1.0	0.004	Yes	2.776	-0.004	2.0	GoodResponse	1	0.202	60.972	3	5	Target	Win	True
61.972	0.3	Win2	1.0	0.004	Yes	2.776	-0.004	2.0	GoodResponse	1	0.202	n/a	3	5	ButtonPress	Win	True
62.122	0.35	Win2	1.0	n/a	Yes	2.776	n/a	n/a	GoodResponse	1	n/a	n/a	3	5	Blank	Win	True
62.473	1.45	Win2	1.0	n/a	Yes	2.776	n/a	5.0	GoodResponse	1	0.038	61.511	3	5	Feedback	Win	True
63.927	2.776	Win2	1.0	n/a	Yes	2.776	n/a	n/a	GoodResponse	1	0.0	n/a	3	5	ISIslide	Win	True
66.719	0.25	Lose2	1.0	0.0	Yes	2.731	0.019	n/a	GoodResponse	0	n/a	n/a	3	6	Cue	AvoidedLoss	True
66.969	3.95	Lose2	1.0	0.0	Yes	2.731	0.0	n/a	GoodResponse	0	n/a	n/a	3	6	Fixation	AvoidedLoss	True
70.915	0.34	Lose2	1.0	0.004	Yes	2.731	-0.004	2.0	GoodResponse	0	0.208	70.123	3	6	Target	AvoidedLoss	True
71.123	0.3	Lose2	1.0	0.004	Yes	2.731	-0.004	2.0	GoodResponse	0	0.208	n/a	3	6	ButtonPress	AvoidedLoss	True
71.266	0.36	Lose2	1.0	n/a	Yes	2.731	n/a	n/a	GoodResponse	0	n/a	n/a	3	6	Blank	AvoidedLoss	True
71.617	1.45	Lose2	1.0	n/a	Yes	2.731	n/a	5.0	GoodResponse	0	0.016	70.633	3	6	Feedback	AvoidedLoss	True
73.071	2.731	Lose2	1.0	n/a	Yes	2.731	n/a	n/a	GoodResponse	0	0.0	n/a	3	6	ISIslide	AvoidedLoss	True
75.829	0.25	Lose2	1.0	0.0	Yes	4.021	0.029	n/a	GoodResponse	0	n/a	n/a	3	7	Cue	AvoidedLoss	True
76.08	4.05	Lose2	1.0	0.0	Yes	4.021	0.001	n/a	GoodResponse	0	n/a	n/a	3	7	Fixation	AvoidedLoss	True
80.125	0.33	Lose2	1.0	0.004	Yes	4.021	-0.004	2.0	GoodResponse	0	0.205	79.33	3	7	Target	AvoidedLoss	True
80.33	0.3	Lose2	1.0	0.004	Yes	4.021	-0.004	2.0	GoodResponse	0	0.205	n/a	3	7	ButtonPress	AvoidedLoss	True
80.46	0.37	Lose2	1.0	n/a	Yes	4.021	n/a	n/a	GoodResponse	0	n/a	n/a	3	7	Blank	AvoidedLoss	True
80.828	1.45	Lose2	1.0	n/a	Yes	4.021	n/a	5.0	GoodResponse	0	0.025	79.853	3	7	Feedback	AvoidedLoss	True
82.282	4.021	Lose2	1.0	n/a	Yes	4.021	n/a	n/a	GoodResponse	0	0.0	n/a	3	7	ISIslide	AvoidedLoss	True
86.327	0.25	Lose2	1.0	0.0	Yes	3.023	0.027	n/a	GoodResponse	0	n/a	n/a	3	8	Cue	AvoidedLoss	True
86.578	3.95	Lose2	1.0	0.0	Yes	3.023	0.001	n/a	GoodResponse	0	n/a	n/a	3	8	Fixation	AvoidedLoss	True
90.523	0.32	Lose2	1.0	0.004	Yes	3.023	-0.004	2.0	GoodResponse	0	0.198	89.721	3	8	Target	AvoidedLoss	True
90.721	0.3	Lose2	1.0	0.004	Yes	3.023	-0.004	2.0	GoodResponse	0	0.198	n/a	3	8	ButtonPress	AvoidedLoss	True
90.858	0.38	Lose2	1.0	n/a	Yes	3.023	n/a	n/a	GoodResponse	0	n/a	n/a	3	8	Blank	AvoidedLoss	True
91.225	1.45	Lose2	1.0	n/a	Yes	3.023	n/a	5.0	GoodResponse	0	0.018	90.243	3	8	Feedback	AvoidedLoss	True
92.68	3.023	Lose2	1.0	n/a	Yes	3.023	n/a	n/a	GoodResponse	0	0.0	n/a	3	8	ISIslide	AvoidedLoss	True
95.722	0.25	Lose2	1.0	0.0	Yes	3.128	0.022	n/a	GoodResponse	0	n/a	n/a	3	9	Cue	AvoidedLoss	True
95.973	3.95	Lose2	1.0	0.0	Yes	3.128	0.001	n/a	GoodResponse	0	n/a	n/a	3	9	Fixation	AvoidedLoss	True
99.918	0.31	Lose2	1.0	0.004	Yes	3.128	-0.004	2.0	GoodResponse	0	0.224	99.142	3	9	Target	AvoidedLoss	True
100.142	0.3	Lose2	1.0	0.004	Yes	3.128	-0.004	2.0	GoodResponse	0	0.224	n/a	3	9	ButtonPress	AvoidedLoss	True
100.236	0.39	Lose2	1.0	n/a	Yes	3.128	n/a	n/a	GoodResponse	0	n/a	n/a	3	9	Blank	AvoidedLoss	True
100.62	1.45	Lose2	1.0	n/a	Yes	3.128	n/a	5.0	GoodResponse	0	0.037	99.657	3	9	Feedback	AvoidedLoss	True
102.075	3.128	Lose2	1.0	n/a	Yes	3.128	n/a	n/a	GoodResponse	0	0.0	n/a	3	9	ISIslide	AvoidedLoss	True
105.217	0.25	Control	1.0	0.0	Yes	3.283	0.017	n/a	GoodResponse	0	n/a	n/a	3	10	Cue	Neutral	True
105.468	4.0	Control	1.0	0.0	Yes	3.283	0.001	n/a	GoodResponse	0	n/a	n/a	3	10	Fixation	Neutral	True
109.463	0.3	Control	1.0	0.004	Yes	3.283	-0.004	2.0	GoodResponse	0	0.211	108.674	3	10	Target	Neutral	True
109.674	0.3	Control	1.0	0.004	Yes	3.283	-0.004	2.0	GoodResponse	0	0.211	n/a	3	10	ButtonPress	Neutral	True
109.764	0.4	Control	1.0	n/a	Yes	3.283	n/a	n/a	GoodResponse	0	n/a	n/a	3	10	Blank	Neutral	True
110.165	1.45	Control	1.0	n/a	Yes	3.283	n/a	5.0	GoodResponse	0	0.004	109.169	3	10	Feedback	Neutral	True
111.62	3.283	Control	1.0	n/a	Yes	3.283	n/a	n/a	GoodResponse	0	0.0	n/a	3	10	ISIslide	Neutral	True
114.913	0.25	Lose2	1.0	0.0	Yes	2.737	0.013	n/a	GoodResponse	0	n/a	n/a	3	11	Cue	AvoidedLoss	True
115.164	4.05	Lose2	1.0	0.0	Yes	2.737	0.001	n/a	GoodResponse	0	n/a	n/a	3	11	Fixation	AvoidedLoss	True
119.209	0.29	Lose2	1.0	0.004	Yes	2.737	-0.004	2.0	GoodResponse	0	0.221	118.43	3	11	Target	AvoidedLoss	True
119.43	0.3	Lose2	1.0	0.004	Yes	2.737	-0.004	2.0	GoodResponse	0	0.221	n/a	3	11	ButtonPress	AvoidedLoss	True
119.51	0.41	Lose2	1.0	n/a	Yes	2.737	n/a	n/a	GoodResponse	0	n/a	n/a	3	11	Blank	AvoidedLoss	True
119.911	1.45	Lose2	1.0	n/a	Yes	2.737	n/a	5.0	GoodResponse	0	0.015	118.926	3	11	Feedback	AvoidedLoss	True
121.366	2.737	Lose2	1.0	n/a	Yes	2.737	n/a	n/a	GoodResponse	0	0.0	n/a	3	11	ISIslide	AvoidedLoss	True
124.124	0.25	Control	1.0	0.0	Yes	2.976	0.024	n/a	GoodResponse	0	n/a	n/a	3	12	Cue	Neutral	True
124.375	3.9	Control	1.0	0.0	Yes	2.976	0.001	n/a	GoodResponse	0	n/a	n/a	3	12	Fixation	Neutral	True
128.27	0.28	Control	1.0	0.004	Yes	2.976	-0.004	2.0	GoodResponse	0	0.209	127.479	3	12	Target	Neutral	True
128.479	0.3	Control	1.0	0.004	Yes	2.976	-0.004	2.0	GoodResponse	0	0.209	n/a	3	12	ButtonPress	Neutral	True
128.554	0.42	Control	1.0	n/a	Yes	2.976	n/a	n/a	GoodResponse	0	n/a	n/a	3	12	Blank	Neutral	True
128.972	1.45	Control	1.0	n/a	Yes	2.976	n/a	5.0	GoodResponse	0	0.027	127.999	3	12	Feedback	Neutral	True
130.426	2.976	Control	1.0	n/a	Yes	2.976	n/a	n/a	GoodResponse	0	0.0	n/a	3	12	ISIslide	Neutral	True
133.418	0.25	Control	1.0	0.001	Yes	2.782	0.018	n/a	GoodResponse	0	n/a	n/a	3	13	Cue	Neutral	True
133.669	4.0	Control	1.0	0.0	Yes	2.782	0.001	n/a	GoodResponse	0	n/a	n/a	3	13	Fixation	Neutral	True
137.665	0.27	Control	1.0	0.003	Yes	2.782	-0.003	2.0	GoodResponse	0	0.206	136.871	3	13	Target	Neutral	True
137.871	0.3	Control	1.0	0.003	Yes	2.782	-0.003	2.0	GoodResponse	0	0.206	n/a	3	13	ButtonPress	Neutral	True
137.949	0.43	Control	1.0	n/a	Yes	2.782	n/a	n/a	GoodResponse	0	n/a	n/a	3	13	Blank	Neutral	True
138.367	1.45	Control	1.0	n/a	Yes	2.782	n/a	5.0	GoodResponse	0	0.047	137.414	3	13	Feedback	Neutral	True
139.821	2.782	Control	1.0	n/a	Yes	2.782	n/a	n/a	GoodResponse	0	0.0	n/a	3	13	ISIslide	Neutral	True
142.629	0.25	Win2	1.0	0.0	Yes	2.671	0.029	n/a	GoodResponse	1	n/a	n/a	4	14	Cue	Win	True
142.88	4.1	Win2	1.0	0.0	Yes	2.671	0.001	n/a	GoodResponse	1	n/a	n/a	4	14	Fixation	Win	True
146.976	0.26	Win2	1.0	0.003	Yes	2.671	-0.003	2.0	GoodResponse	1	0.208	146.184	4	14	Target	Win	True
147.184	0.3	Win2	1.0	0.003	Yes	2.671	-0.003	2.0	GoodResponse	1	0.208	n/a	4	14	ButtonPress	Win	True
147.243	0.44	Win2	1.0	n/a	Yes	2.671	n/a	n/a	GoodResponse	1	n/a	n/a	4	14	Blank	Win	True
147.678	1.45	Win2	1.0	n/a	Yes	2.671	n/a	5.0	GoodResponse	1	0.004	146.682	4	14	Feedback	Win	True
149.132	2.671	Win2	1.0	n/a	Yes	2.671	n/a	n/a	GoodResponse	1	0.0	n/a	4	14	ISIslide	Win	True
151.824	0.25	Control	1.0	0.0	Yes	2.976	0.024	n/a	GoodResponse	0	n/a	n/a	4	15	Cue	Neutral	True
152.074	4.0	Control	1.0	0.0	Yes	2.976	0.0	n/a	GoodResponse	0	n/a	n/a	4	15	Fixation	Neutral	True
156.07	0.25	Control	1.0	0.004	Yes	2.976	-0.004	2.0	GoodResponse	0	0.24	155.31	4	15	Target	Neutral	True
156.31	0.3	Control	1.0	0.004	Yes	2.976	-0.004	2.0	GoodResponse	0	0.24	n/a	4	15	ButtonPress	Neutral	True
156.32	0.45	Control	1.0	n/a	Yes	2.976	n/a	n/a	GoodResponse	0	n/a	n/a	4	15	Blank	Neutral	True
156.772	1.45	Control	1.0	n/a	Yes	2.976	n/a	5.0	GoodResponse	0	0.031	155.803	4	15	Feedback	Neutral	True
158.226	2.976	Control	1.0	n/a	Yes	2.976	n/a	n/a	GoodResponse	0	0.0	n/a	4	15	ISIslide	Neutral	True
161.218	0.25	Win2	1.0	0.001	Yes	2.882	0.018	n/a	GoodResponse	1	n/a	n/a	5	16	Cue	Win	True
161.469	4.0	Win2	1.0	0.0	Yes	2.882	0.001	n/a	GoodResponse	1	n/a	n/a	5	16	Fixation	Win	True
165.465	0.24	Win2	1.0	0.003	Yes	2.882	-0.003	2.0	GoodResponse	1	0.194	164.659	5	16	Target	Win	True
165.659	0.3	Win2	1.0	0.003	Yes	2.882	-0.003	2.0	GoodResponse	1	0.194	n/a	5	16	ButtonPress	Win	True
165.715	0.46	Win2	1.0	n/a	Yes	2.882	n/a	n/a	GoodResponse	1	n/a	n/a	5	16	Blank	Win	True
166.167	1.45	Win2	1.0	n/a	Yes	2.882	n/a	5.0	GoodResponse	1	0.003	165.17	5	16	Feedback	Win	True
167.621	2.882	Win2	1.0	n/a	Yes	2.882	n/a	n/a	GoodResponse	1	0.0	n/a	5	16	ISIslide	Win	True
170.513	0.25	Lose2	1.0	0.0	Yes	2.737	0.013	n/a	GoodResponse	0	n/a	n/a	5	17	Cue	AvoidedLoss	True
170.764	3.95	Lose2	1.0	0.0	Yes	2.737	0.001	n/a	GoodResponse	0	n/a	n/a	5	17	Fixation	AvoidedLoss	True
174.709	0.23	Lose2	1.0	0.004	Yes	2.737	-0.004	2.0	GoodResponse	0	0.213	173.922	5	17	Target	AvoidedLoss	True
174.922	0.3	Lose2	1.0	0.004	Yes	2.737	-0.004	2.0	GoodResponse	0	0.213	n/a	5	17	ButtonPress	AvoidedLoss	True
174.943	0.47	Lose2	1.0	n/a	Yes	2.737	n/a	n/a	GoodResponse	0	n/a	n/a	5	17	Blank	AvoidedLoss	True
175.411	1.45	Lose2	1.0	n/a	Yes	2.737	n/a	5.0	GoodResponse	0	0.026	174.437	5	17	Feedback	AvoidedLoss	True
176.865	2.737	Lose2	1.0	n/a	Yes	2.737	n/a	n/a	GoodResponse	0	0.0	n/a	5	17	ISIslide	AvoidedLoss	True
179.624	0.25	Lose2	1.0	0.0	Yes	2.726	0.024	n/a	GoodResponse	0	n/a	n/a	5	18	Cue	AvoidedLoss	True
179.874	4.05	Lose2	1.0	0.0	Yes	2.726	0.0	n/a	GoodResponse	0	n/a	n/a	5	18	Fixation	AvoidedLoss	True
183.92	0.22	Lose2	1.0	0.004	Yes	2.726	-0.004	2.0	GoodResponse	0	0.207	183.127	5	18	Target	AvoidedLoss	True
184.127	0.3	Lose2	1.0	0.004	Yes	2.726	-0.004	2.0	GoodResponse	0	0.207	n/a	5	18	ButtonPress	AvoidedLoss	True
184.154	0.48	Lose2	1.0	n/a	Yes	2.726	n/a	n/a	GoodResponse	0	n/a	n/a	5	18	Blank	AvoidedLoss	True
184.622	1.45	Lose2	1.0	n/a	Yes	2.726	n/a	5.0	GoodResponse	0	0.035	183.657	5	18	Feedback	AvoidedLoss	True
186.076	2.726	Lose2	1.0	n/a	Yes	2.726	n/a	n/a	GoodResponse	0	0.0	n/a	5	18	ISIslide	AvoidedLoss	True
188.818	0.25	Control	0.95	0.0	No	2.932	0.018	n/a	NoResponse	0	n/a	n/a	5	19	Cue	Neutral	True
189.069	3.95	Control	0.95	0.0	No	2.932	0.001	n/a	NoResponse	0	n/a	n/a	5	19	Fixation	Neutral	True
193.014	0.21	Control	0.95	0.004	No	2.932	-0.004	2.0	NoResponse	0	0.228	192.242	5	19	Target	Neutral	True
193.231	0.49	Control	0.95	n/a	No	2.932	n/a	n/a	NoResponse	0	n/a	n/a	5	19	Blank	Neutral	True
193.242	0.3	Control	0.95	0.004	No	2.932	-0.004	2.0	NoResponse	0	0.228	n/a	5	19	ButtonPress	Neutral	True
193.716	1.45	Control	0.95	n/a	No	2.932	n/a	5.0	NoResponse	0	0.014	192.73	5	19	Feedback	Neutral	True
195.17	2.932	Control	0.95	n/a	No	2.932	n/a	n/a	NoResponse	0	0.0	n/a	5	19	ISIslide	Neutral	True
198.112	0.25	Control	0.9048	0.0	No	2.638	0.012	n/a	NoResponse	0	n/a	n/a	5	20	Cue	Neutral	True
198.363	4.05	Control	0.9048	0.0	No	2.638	0.001	n/a	NoResponse	0	n/a	n/a	5	20	Fixation	Neutral	True
202.409	0.2	Control	0.9048	0.003	No	2.638	-0.003	2.0	NoResponse	0	0.215	201.624	5	20	Target	Neutral	True
202.609	0.5	Control	0.9048	n/a	No	2.638	n/a	n/a	NoResponse	0	n/a	n/a	5	20	Blank	Neutral	True
202.624	0.3	Control	0.9048	0.003	No	2.638	-0.003	2.0	NoResponse	0	0.215	n/a	5	20	ButtonPress	Neutral	True
203.111	1.45	Control	0.9048	n/a	No	2.638	n/a	5.0	NoResponse	0	0.034	202.145	5	20	Feedback	Neutral	True
204.565	2.638	Control	0.9048	n/a	No	2.638	n/a	n/a	NoResponse	0	0.0	n/a	5	20	ISIslide	Neutral	True
207.223	0.25	Control	0.8636	0.0	No	2.777	0.023	n/a	NoResponse	0	n/a	n/a	5	21	Cue	Neutral	True
207.474	4.1	Control	0.8636	0.0	No	2.777	0.001	n/a	NoResponse	0	n/a	n/a	5	21	Fixation	Neutral	True
211.569	0.19	Control	0.8636	0.004	No	2.777	-0.004	2.0	NoResponse	0	0.213	210.782	5	21	Target	Neutral	True
211.77	0.51	Control	0.8636	n/a	No	2.777	n/a	n/a	NoResponse	0	n/a	n/a	5	21	Blank	Neutral	True
211.782	0.3	Control	0.8636	0.004	No	2.777	-0.004	2.0	NoResponse	0	0.213	n/a	5	21	ButtonPress	Neutral	True
212.271	1.45	Control	0.8636	n/a	No	2.777	n/a	5.0	NoResponse	0	0.045	211.316	5	21	Feedback	Neutral	True
213.726	2.777	Control	0.8636	n/a	No	2.777	n/a	n/a	NoResponse	0	0.0	n/a	5	21	ISIslide	Neutral	True
216.517	0.25	Control	0.8261	0.001	No	2.783	0.017	n/a	LatePress	0	n/a	n/a	5	22	Cue	Neutral	True
216.768	4.0	Control	0.8261	0.0	No	2.783	0.001	n/a	LatePress	0	n/a	n/a	5	22	Fixation	Neutral	True
220.764	0.18	Control	0.8261	0.003	No	2.783	-0.003	2.0	LatePress	0	0.181	219.945	5	22	Target	Neutral	True
220.945	0.3	Control	0.8261	0.003	No	2.783	-0.003	2.0	LatePress	0	0.181	n/a	5	22	ButtonPress	Neutral	True
220.947	0.52	Control	0.8261	n/a	No	2.783	n/a	n/a	LatePress	0	n/a	n/a	5	22	Blank	Neutral	True
221.466	1.45	Control	0.8261	n/a	No	2.783	n/a	5.0	LatePress	0	0.02	220.486	5	22	Feedback	Neutral	True
222.92	2.783	Control	0.8261	n/a	No	2.783	n/a	n/a	LatePress	0	0.0	n/a	5	22	ISIslide	Neutral	True
225.728	0.25	Control	0.7917000000000001	0.0	No	2.772	0.028	n/a	NoResponse	0	n/a	n/a	5	23	Cue	Neutral	False
225.979	3.9	Control	0.7917000000000001	0.0	No	2.772	0.001	2.0	NoResponse	0	2.097	227.076	5	23	Fixation	Neutral	False
228.076	0.3	Control	0.7917000000000001	0.0	No	2.772	0.001	2.0	NoResponse	0	2.097	n/a	5	23	ButtonPress	Neutral	False
229.874	0.17	Control	0.7917000000000001	0.004	No	2.772	-0.004	2.0	NoResponse	0	0.193	229.067	5	23	Target	Neutral	False
230.058	0.53	Control	0.7917000000000001	n/a	No	2.772	n/a	n/a	NoResponse	0	n/a	n/a	5	23	Blank	Neutral	False
230.067	0.3	Control	0.7917000000000001	0.004	No	2.772	-0.004	2.0	NoResponse	0	0.193	n/a	5	23	ButtonPress	Neutral	False
230.576	1.45	Control	0.7917000000000001	n/a	No	2.772	n/a	5.0	NoResponse	0	0.032	229.608	5	23	Feedback	Neutral	False
232.031	2.772	Control	0.7917000000000001	n/a	No	2.772	n/a	n/a	NoResponse	0	0.0	n/a	5	23	ISIslide	Neutral	False
234.822	0.25	Win2	0.76	0.0	No	3.128	0.022	n/a	NoResponse	0	n/a	n/a	5	24	Cue	MissedWin	False
235.073	3.95	Win2	0.76	0.0	No	3.128	0.001	2.0	NoResponse	0	2.955	237.028	5	24	Fixation	MissedWin	False
238.028	0.3	Win2	0.76	0.0	No	3.128	0.001	2.0	NoResponse	0	2.955	n/a	5	24	ButtonPress	MissedWin	False
239.018	0.16	Win2	0.76	0.004	No	3.128	-0.004	2.0	NoResponse	0	0.18	238.198	5	24	Target	MissedWin	False
239.185	0.54	Win2	0.76	n/a	No	3.128	n/a	n/a	NoResponse	0	n/a	n/a	5	24	Blank	MissedWin	False
239.198	0.3	Win2	0.76	0.004	No	3.128	-0.004	2.0	NoResponse	0	0.18	n/a	5	24	ButtonPress	MissedWin	False
239.72	1.45	Win2	0.76	n/a	No	3.128	n/a	5.0	NoResponse	0	0.01	238.73	5	24	Feedback	MissedWin	False
241.175	3.128	Win2	0.76	n/a	No	3.128	n/a	n/a	NoResponse	0	0.0	n/a	5	24	ISIslide	MissedWin	False
244.317	0.25	Win2	0.7308	0.001	No	3.083	0.017	n/a	NoResponse	0	n/a	n/a	5	25	Cue	MissedWin	False
244.568	4.0	Win2	0.7308	0.0	No	3.083	0.001	2.0	NoResponse	0	3.373	246.941	5	25	Fixation	MissedWin	False
247.941	0.3	Win2	0.7308	0.0	No	3.083	0.001	2.0	NoResponse	0	3.373	n/a	5	25	ButtonPress	MissedWin	False
248.563	0.15	Win2	0.7308	0.004	No	3.083	-0.004	2.0	NoResponse	0	0.179	247.742	5	25	Target	MissedWin	False
248.714	0.55	Win2	0.7308	n/a	No	3.083	n/a	n/a	NoResponse	0	n/a	n/a	5	25	Blank	MissedWin	False
248.742	0.3	Win2	0.7308	0.004	No	3.083	-0.004	2.0	NoResponse	0	0.179	n/a	5	25	ButtonPress	MissedWin	False
249.266	1.45	Win2	0.7308	n/a	No	3.083	n/a	5.0	NoResponse	0	0.025	248.291	5	25	Feedback	MissedWin	False
250.72	3.083	Win2	0.7308	n/a	No	3.083	n/a	n/a	NoResponse	0	0.0	n/a	5	25	ISIslide	MissedWin	False
253.829	0.25	Win2	0.7037	0.0	No	2.921	0.029	n/a	NoResponse	0	n/a	n/a	5	26	Cue	MissedWin	True
254.08	3.95	Win2	0.7037	0.0	No	2.921	0.001	n/a	NoResponse	0	n/a	n/a	5	26	Fixation	MissedWin	True
258.025	0.15	Win2	0.7037	0.004	No	2.921	-0.004	2.0	NoResponse	0	0.185	257.21	5	26	Target	MissedWin	True
258.176	0.55	Win2	0.7037	n/a	No	2.921	n/a	n/a	NoResponse	0	n/a	n/a	5	26	Blank	MissedWin	True
258.21	0.3	Win2	0.7037	0.004	No	2.921	-0.004	2.0	NoResponse	0	0.185	n/a	5	26	ButtonPress	MissedWin	True
258.727	1.45	Win2	0.7037	n/a	No	2.921	n/a	5.0	NoResponse	0	0.027	257.754	5	26	Feedback	MissedWin	True
260.182	2.921	Win2	0.7037	n/a	No	2.921	n/a	n/a	NoResponse	0	0.0	n/a	5	26	ISIslide	MissedWin	True
263.124	0.25	Lose2	0.6786	0.0	No	2.826	0.024	n/a	NoResponse	-1	n/a	n/a	4	27	Cue	Loss	True
263.375	4.05	Lose2	0.6786	0.0	No	2.826	0.001	n/a	NoResponse	-1	n/a	n/a	4	27	Fixation	Loss	True
267.42	0.15	Lose2	0.6786	0.004	No	2.826	-0.004	2.0	NoResponse	-1	0.178	266.598	4	27	Target	Loss	True
267.57	0.55	Lose2	0.6786	n/a	No	2.826	n/a	n/a	NoResponse	-1	n/a	n/a	4	27	Blank	Loss	True
267.598	0.3	Lose2	0.6786	0.004	No	2.826	-0.004	2.0	NoResponse	-1	0.178	n/a	4	27	ButtonPress	Loss	True
268.122	1.45	Lose2	0.6786	n/a	No	2.826	n/a	5.0	NoResponse	-1	0.047	267.169	4	27	Feedback	Loss	True
269.576	2.826	Lose2	0.6786	n/a	No	2.826	n/a	n/a	NoResponse	-1	0.0	n/a	4	27	ISIslide	Loss	True
272.418	0.25	Control	0.6552	0.0	No	2.832	0.018	n/a	NoResponse	0	n/a	n/a	4	28	Cue	Neutral	True
272.669	4.05	Control	0.6552	0.0	No	2.832	0.001	n/a	NoResponse	0	n/a	n/a	4	28	Fixation	Neutral	True
276.715	0.15	Control	0.6552	0.003	No	2.832	-0.003	2.0	NoResponse	0	0.228	275.943	4	28	Target	Neutral	True
276.865	0.55	Control	0.6552	n/a	No	2.832	n/a	n/a	NoResponse	0	n/a	n/a	4	28	Blank	Neutral	True
276.943	0.3	Control	0.6552	0.003	No	2.832	-0.003	2.0	NoResponse	0	0.228	n/a	4	28	ButtonPress	Neutral	True
277.417	1.45	Control	0.6552	n/a	No	2.832	n/a	5.0	NoResponse	0	0.02	276.437	4	28	Feedback	Neutral	True
278.871	2.832	Control	0.6552	n/a	No	2.832	n/a	n/a	NoResponse	0	0.0	n/a	4	28	ISIslide	Neutral	True
281.73	0.25	Lose2	0.6333	0.0	No	2.82	0.03	n/a	NoResponse	-1	n/a	n/a	3	29	Cue	Loss	True
281.98	3.95	Lose2	0.6333	0.0	No	2.82	0.0	2.0	NoResponse	-1	3.843	284.823	3	29	Fixation	Loss	True
285.823	0.3	Lose2	0.6333	0.0	No	2.82	0.0	2.0	NoResponse	-1	3.843	n/a	3	29	ButtonPress	Loss	True
285.925	0.15	Lose2	0.6333	0.005	No	2.82	-0.005	n/a	NoResponse	-1	n/a	n/a	3	29	Target	Loss	True
286.076	0.55	Lose2	0.6333	n/a	No	2.82	n/a	n/a	NoResponse	-1	n/a	n/a	3	29	Blank	Loss	True
286.628	1.45	Lose2	0.6333	n/a	No	2.82	n/a	5.0	NoResponse	-1	0.028	285.656	3	29	Feedback	Loss	True
288.082	2.82	Lose2	0.6333	n/a	No	2.82	n/a	n/a	NoResponse	-1	0.0	n/a	3	29	ISIslide	Loss	True
290.924	0.25	Win2	0.6129	0.0	No	2.776	0.024	n/a	NoResponse	0	n/a	n/a	3	30	Cue	MissedWin	True
291.175	3.9	Win2	0.6129	0.0	No	2.776	0.001	n/a	NoResponse	0	n/a	n/a	3	30	Fixation	MissedWin	True
295.07	0.16	Win2	0.6129	0.004	No	2.776	-0.004	2.0	NoResponse	0	0.183	294.253	3	30	Target	MissedWin	True
295.237	0.54	Win2	0.6129	n/a	No	2.776	n/a	n/a	NoResponse	0	n/a	n/a	3	30	Blank	MissedWin	True
295.253	0.3	Win2	0.6129	0.004	No	2.776	-0.004	2.0	NoResponse	0	0.183	n/a	3	30	ButtonPress	MissedWin	True
295.772	1.45	Win2	0.6129	n/a	No	2.776	n/a	5.0	NoResponse	0	0.006	294.778	3	30	Feedback	MissedWin	True
297.226	2.776	Win2	0.6129	n/a	No	2.776	n/a	n/a	NoResponse	0	0.0	n/a	3	30	ISIslide	MissedWin	True
300.018	0.25	Lose2	0.5938	0.0	No	2.832	0.018	n/a	NoResponse	-1	n/a	n/a	2	31	Cue	Loss	True
300.268	4.05	Lose2	0.5938	0.001	No	2.832	0.0	n/a	NoResponse	-1	n/a	n/a	2	31	Fixation	Loss	True
304.314	0.17	Lose2	0.5938	0.004	No	2.832	-0.004	2.0	NoResponse	-1	0.207	303.521	2	31	Target	Loss	True
304.498	0.53	Lose2	0.5938	n/a	No	2.832	n/a	n/a	NoResponse	-1	n/a	n/a	2	31	Blank	Loss	True
304.521	0.3	Lose2	0.5938	0.004	No	2.832	-0.004	2.0	NoResponse	-1	0.207	n/a	2	31	ButtonPress	Loss	True
305.016	1.45	Lose2	0.5938	n/a	No	2.832	n/a	5.0	NoResponse	-1	0.031	304.047	2	31	Feedback	Loss	True
306.47	2.832	Lose2	0.5938	n/a	No	2.832	n/a	n/a	NoResponse	-1	0.0	n/a	2	31	ISIslide	Loss	True
309.329	0.25	Lose2	0.5758	0.0	No	2.621	0.029	n/a	NoResponse	-1	n/a	n/a	1	32	Cue	Loss	True
309.58	4.15	Lose2	0.5758	0.0	No	2.621	0.001	n/a	NoResponse	-1	n/a	n/a	1	32	Fixation	Loss	True
313.725	0.18	Lose2	0.5758	0.004	No	2.621	-0.004	2.0	NoResponse	-1	0.193	312.918	1	32	Target	Loss	True
313.909	0.52	Lose2	0.5758	n/a	No	2.621	n/a	n/a	NoResponse	-1	n/a	n/a	1	32	Blank	Loss	True
313.918	0.3	Lose2	0.5758	0.004	No	2.621	-0.004	2.0	NoResponse	-1	0.193	n/a	1	32	ButtonPress	Loss	True
314.428	1.45	Lose2	0.5758	n/a	No	2.621	n/a	5.0	NoResponse	-1	0.033	313.461	1	32	Feedback	Loss	True
315.882	2.621	Lose2	0.5758	n/a	No	2.621	n/a	n/a	NoResponse	-1	0.0	n/a	1	32	ISIslide	Loss	True
318.523	0.25	Win2	0.5882000000000001	0.0	Yes	2.677	0.023	n/a	GoodResponse	1	n/a	n/a	2	33	Cue	Win	False
318.774	4.0	Win2	0.5882000000000001	0.0	Yes	2.677	0.001	2.0	GoodResponse	1	3.098	320.872	2	33	Fixation	Win	False
321.872	0.3	Win2	0.5882000000000001	0.0	Yes	2.677	0.001	2.0	GoodResponse	1	3.098	n/a	2	33	ButtonPress	Win	False
322.769	0.19	Win2	0.5882000000000001	0.004	Yes	2.677	-0.004	2.0	GoodResponse	1	0.169	321.938	2	33	Target	Win	False
322.938	0.3	Win2	0.5882000000000001	0.004	Yes	2.677	-0.004	2.0	GoodResponse	1	0.169	n/a	2	33	ButtonPress	Win	False
322.97	0.51	Win2	0.5882000000000001	n/a	Yes	2.677	n/a	n/a	GoodResponse	1	n/a	n/a	2	33	Blank	Win	False
323.471	1.45	Win2	0.5882000000000001	n/a	Yes	2.677	n/a	5.0	GoodResponse	1	0.015	322.486	2	33	Feedback	Win	False
324.926	2.677	Win2	0.5882000000000001	n/a	Yes	2.677	n/a	n/a	GoodResponse	1	0.0	n/a	2	33	ISIslide	Win	False
327.617	0.25	Lose2	0.6	0.0	Yes	2.633	0.017	n/a	GoodResponse	0	n/a	n/a	2	34	Cue	AvoidedLoss	True
327.868	4.05	Lose2	0.6	0.0	Yes	2.633	0.001	n/a	GoodResponse	0	n/a	n/a	2	34	Fixation	AvoidedLoss	True
331.913	0.2	Lose2	0.6	0.004	Yes	2.633	-0.004	2.0	GoodResponse	0	0.184	331.097	2	34	Target	AvoidedLoss	True
332.097	0.3	Lose2	0.6	0.004	Yes	2.633	-0.004	2.0	GoodResponse	0	0.184	n/a	2	34	ButtonPress	AvoidedLoss	True
332.114	0.5	Lose2	0.6	n/a	Yes	2.633	n/a	n/a	GoodResponse	0	n/a	n/a	2	34	Blank	AvoidedLoss	True
332.615	1.45	Lose2	0.6	n/a	Yes	2.633	n/a	5.0	GoodResponse	0	0.042	331.657	2	34	Feedback	AvoidedLoss	True
334.07	2.633	Lose2	0.6	n/a	Yes	2.633	n/a	n/a	GoodResponse	0	0.0	n/a	2	34	ISIslide	AvoidedLoss	True
336.728	0.25	Lose2	0.5832999999999999	0.0	No	2.672	0.028	n/a	LatePress	-1	n/a	n/a	1	35	Cue	Loss	True
336.978	4.0	Lose2	0.5832999999999999	0.0	No	2.672	0.0	n/a	LatePress	-1	n/a	n/a	1	35	Fixation	Loss	True
340.974	0.21	Lose2	0.5832999999999999	0.004	No	2.672	-0.004	2.0	LatePress	-1	0.215	340.189	1	35	Target	Loss	True
341.189	0.3	Lose2	0.5832999999999999	0.004	No	2.672	-0.004	2.0	LatePress	-1	0.215	n/a	1	35	ButtonPress	Loss	True
341.191	0.49	Lose2	0.5832999999999999	n/a	No	2.672	n/a	n/a	LatePress	-1	n/a	n/a	1	35	Blank	Loss	True
341.676	1.45	Lose2	0.5832999999999999	n/a	No	2.672	n/a	5.0	LatePress	-1	0.004	340.68	1	35	Feedback	Loss	True
343.13	2.672	Lose2	0.5832999999999999	n/a	No	2.672	n/a	n/a	LatePress	-1	0.0	n/a	1	35	ISIslide	Loss	True
345.822	0.25	Control	0.5946	0.0	Yes	2.678	0.022	n/a	GoodResponse	0	n/a	n/a	1	36	Cue	Neutral	True
346.072	4.0	Control	0.5946	0.0	Yes	2.678	0.0	n/a	GoodResponse	0	n/a	n/a	1	36	Fixation	Neutral	True
350.068	0.22	Control	0.5946	0.004	Yes	2.678	-0.004	2.0	GoodResponse	0	0.202	349.27	1	36	Target	Neutral	True
350.27	0.3	Control	0.5946	0.004	Yes	2.678	-0.004	2.0	GoodResponse	0	0.202	n/a	1	36	ButtonPress	Neutral	True
350.302	0.48	Control	0.5946	n/a	Yes	2.678	n/a	n/a	GoodResponse	0	n/a	n/a	1	36	Blank	Neutral	True
350.77	1.45	Control	0.5946	n/a	Yes	2.678	n/a	5.0	GoodResponse	0	0.032	349.802	1	36	Feedback	Neutral	True
352.224	2.678	Control	0.5946	n/a	Yes	2.678	n/a	n/a	GoodResponse	0	0.0	n/a	1	36	ISIslide	Neutral	True
354.916	0.25	Win2	0.6053000000000001	0.0	Yes	2.884	0.016	n/a	GoodResponse	1	n/a	n/a	2	37	Cue	Win	True
355.166	4.0	Win2	0.6053000000000001	0.0	Yes	2.884	0.0	n/a	GoodResponse	1	n/a	n/a	2	37	Fixation	Win	True
359.162	0.23	Win2	0.6053000000000001	0.004	Yes	2.884	-0.004	2.0	GoodResponse	1	0.159	358.321	2	37	Target	Win	True
359.321	0.3	Win2	0.6053000000000001	0.004	Yes	2.884	-0.004	2.0	GoodResponse	1	0.159	n/a	2	37	ButtonPress	Win	True
359.396	0.47	Win2	0.6053000000000001	n/a	Yes	2.884	n/a	n/a	GoodResponse	1	n/a	n/a	2	37	Blank	Win	True
359.864	1.45	Win2	0.6053000000000001	n/a	Yes	2.884	n/a	5.0	GoodResponse	1	0.011	358.875	2	37	Feedback	Win	True
361.318	2.884	Win2	0.6053000000000001	n/a	Yes	2.884	n/a	n/a	GoodResponse	1	0.0	n/a	2	37	ISIslide	Win	True
364.227	0.25	Lose2	0.6154	0.0	Yes	2.823	0.027	n/a	GoodResponse	0	n/a	n/a	2	38	Cue	AvoidedLoss	True
364.477	3.95	Lose2	0.6154	0.001	Yes	2.823	0.0	n/a	GoodResponse	0	n/a	n/a	2	38	Fixation	AvoidedLoss	True
368.423	0.24	Lose2	0.6154	0.004	Yes	2.823	-0.004	2.0	GoodResponse	0	0.193	367.616	2	38	Target	AvoidedLoss	True
368.616	0.3	Lose2	0.6154	0.004	Yes	2.823	-0.004	2.0	GoodResponse	0	0.193	n/a	2	38	ButtonPress	AvoidedLoss	True
368.673	0.46	Lose2	0.6154	n/a	Yes	2.823	n/a	n/a	GoodResponse	0	n/a	n/a	2	38	Blank	AvoidedLoss	True
369.125	1.45	Lose2	0.6154	n/a	Yes	2.823	n/a	5.0	GoodResponse	0	0.019	368.144	2	38	Feedback	AvoidedLoss	True
370.579	2.823	Lose2	0.6154	n/a	Yes	2.823	n/a	n/a	GoodResponse	0	0.0	n/a	2	38	ISIslide	AvoidedLoss	True
373.421	0.25	Win2	0.625	0.0	Yes	2.979	0.021	n/a	GoodResponse	1	n/a	n/a	3	39	Cue	Win	True
373.672	4.1	Win2	0.625	0.0	Yes	2.979	0.001	n/a	GoodResponse	1	n/a	n/a	3	39	Fixation	Win	True
377.767	0.25	Win2	0.625	0.004	Yes	2.979	-0.004	2.0	GoodResponse	1	0.186	376.953	3	39	Target	Win	True
377.953	0.3	Win2	0.625	0.004	Yes	2.979	-0.004	2.0	GoodResponse	1	0.186	n/a	3	39	ButtonPress	Win	True
378.018	0.45	Win2	0.625	n/a	Yes	2.979	n/a	n/a	GoodResponse	1	n/a	n/a	3	39	Blank	Win	True
378.469	1.45	Win2	0.625	n/a	Yes	2.979	n/a	5.0	GoodResponse	1	0.041	377.51	3	39	Feedback	Win	True
379.924	2.979	Win2	0.625	n/a	Yes	2.979	n/a	n/a	GoodResponse	1	0.0	n/a	3	39	ISIslide	Win	True
382.916	0.25	Win2	0.6341	0.0	Yes	2.734	0.016	n/a	GoodResponse	1	n/a	n/a	4	40	Cue	Win	True
383.167	3.95	Win2	0.6341	0.0	Yes	2.734	0.001	n/a	GoodResponse	1	n/a	n/a	4	40	Fixation	Win	True
387.112	0.26	Win2	0.6341	0.004	Yes	2.734	-0.004	2.0	GoodResponse	1	0.188	386.3	4	40	Target	Win	True
387.3	0.3	Win2	0.6341	0.004	Yes	2.734	-0.004	2.0	GoodResponse	1	0.188	n/a	4	40	ButtonPress	Win	True
387.379	0.44	Win2	0.6341	n/a	Yes	2.734	n/a	n/a	GoodResponse	1	n/a	n/a	4	40	Blank	Win	True
387.814	1.45	Win2	0.6341	n/a	Yes	2.734	n/a	5.0	GoodResponse	1	0.013	386.827	4	40	Feedback	Win	True
389.268	2.734	Win2	0.6341	n/a	Yes	2.734	n/a	n/a	GoodResponse	1	0.0	n/a	4	40	ISIslide	Win	True
392.027	0.25	Win2	0.6429	0.0	Yes	2.773	0.027	n/a	GoodResponse	1	n/a	n/a	5	41	Cue	Win	True
392.277	3.9	Win2	0.6429	0.001	Yes	2.773	0.0	n/a	GoodResponse	1	n/a	n/a	5	41	Fixation	Win	True
396.189	0.27	Win2	0.6429	0.0	Yes	2.773	0.012	2.0	GoodResponse	1	0.2	395.389	5	41	Target	Win	True
396.389	0.3	Win2	0.6429	0.0	Yes	2.773	0.012	2.0	GoodResponse	1	0.2	n/a	5	41	ButtonPress	Win	True
396.457	0.43	Win2	0.6429	n/a	Yes	2.773	n/a	n/a	GoodResponse	1	n/a	n/a	5	41	Blank	Win	True
396.875	1.45	Win2	0.6429	n/a	Yes	2.773	n/a	5.0	GoodResponse	1	0.024	395.899	5	41	Feedback	Win	True
398.329	2.773	Win2	0.6429	n/a	Yes	2.773	n/a	n/a	GoodResponse	1	0.0	n/a	5	41	ISIslide	Win	True
401.121	0.25	Control	0.6512	0.0	Yes	2.929	0.021	n/a	GoodResponse	0	n/a	n/a	5	42	Cue	Neutral	True
401.371	3.85	Control	0.6512	0.0	Yes	2.929	0.0	n/a	GoodResponse	0	n/a	n/a	5	42	Fixation	Neutral	True
405.233	0.28	Control	0.6512	0.0	Yes	2.929	0.012	2.0	GoodResponse	0	0.233	404.466	5	42	Target	Neutral	True
405.466	0.3	Control	0.6512	0.0	Yes	2.929	0.012	2.0	GoodResponse	0	0.233	n/a	5	42	ButtonPress	Neutral	True
405.5	0.42	Control	0.6512	n/a	Yes	2.929	n/a	n/a	GoodResponse	0	n/a	n/a	5	42	Blank	Neutral	True
405.918	1.45	Control	0.6512	n/a	Yes	2.929	n/a	5.0	GoodResponse	0	0.006	404.924	5	42	Feedback	Neutral	True
407.373	2.929	Control	0.6512	n/a	Yes	2.929	n/a	n/a	GoodResponse	0	0.0	n/a	5	42	ISIslide	Neutral	True
410.315	0.25	Win2	0.6591	0.0	Yes	3.185	0.015	n/a	GoodResponse	1	n/a	n/a	6	43	Cue	Win	True
410.566	4.0	Win2	0.6591	0.0	Yes	3.185	0.001	n/a	GoodResponse	1	n/a	n/a	6	43	Fixation	Win	True
414.561	0.29	Win2	0.6591	0.004	Yes	3.185	-0.004	2.0	GoodResponse	1	0.193	413.754	6	43	Target	Win	True
414.754	0.3	Win2	0.6591	0.004	Yes	3.185	-0.004	2.0	GoodResponse	1	0.193	n/a	6	43	ButtonPress	Win	True
414.862	0.41	Win2	0.6591	n/a	Yes	3.185	n/a	n/a	GoodResponse	1	n/a	n/a	6	43	Blank	Win	True
415.263	1.45	Win2	0.6591	n/a	Yes	3.185	n/a	5.0	GoodResponse	1	0.027	414.29	6	43	Feedback	Win	True
416.717	3.185	Win2	0.6591	n/a	Yes	3.185	n/a	n/a	GoodResponse	1	0.0	n/a	6	43	ISIslide	Win	True
419.927	0.25	Win2	0.6667000000000001	0.0	Yes	2.973	0.027	n/a	GoodResponse	1	n/a	n/a	7	44	Cue	Win	True
420.178	4.0	Win2	0.6667000000000001	0.0	Yes	2.973	0.001	n/a	GoodResponse	1	n/a	n/a	7	44	Fixation	Win	True
424.173	0.29	Win2	0.6667000000000001	0.004	Yes	2.973	-0.004	2.0	GoodResponse	1	0.179	423.352	7	44	Target	Win	True
424.352	0.3	Win2	0.6667000000000001	0.004	Yes	2.973	-0.004	2.0	GoodResponse	1	0.179	n/a	7	44	ButtonPress	Win	True
424.474	0.41	Win2	0.6667000000000001	n/a	Yes	2.973	n/a	n/a	GoodResponse	1	n/a	n/a	7	44	Blank	Win	True
424.875	1.45	Win2	0.6667000000000001	n/a	Yes	2.973	n/a	5.0	GoodResponse	1	0.024	423.899	7	44	Feedback	Win	True
426.329	2.973	Win2	0.6667000000000001	n/a	Yes	2.973	n/a	n/a	GoodResponse	1	0.0	n/a	7	44	ISIslide	Win	True
429.322	0.25	Control	0.6739	0.0	Yes	2.878	0.022	n/a	GoodResponse	0	n/a	n/a	7	45	Cue	Neutral	True
429.573	4.1	Control	0.6739	0.0	Yes	2.878	0.001	n/a	GoodResponse	0	n/a	n/a	7	45	Fixation	Neutral	True
433.668	0.28	Control	0.6739	0.004	Yes	2.878	-0.004	2.0	GoodResponse	0	0.209	432.877	7	45	Target	Neutral	True
433.877	0.3	Control	0.6739	0.004	Yes	2.878	-0.004	2.0	GoodResponse	0	0.209	n/a	7	45	ButtonPress	Neutral	True
433.952	0.42	Control	0.6739	n/a	Yes	2.878	n/a	n/a	GoodResponse	0	n/a	n/a	7	45	Blank	Neutral	True
434.37	1.45	Control	0.6739	n/a	Yes	2.878	n/a	5.0	GoodResponse	0	0.042	433.412	7	45	Feedback	Neutral	True
435.825	2.878	Control	0.6739	n/a	Yes	2.878	n/a	n/a	GoodResponse	0	0.0	n/a	7	45	ISIslide	Neutral	True
438.717	0.25	Lose2	0.6809000000000001	0.0	Yes	3.383	0.017	n/a	GoodResponse	0	n/a	n/a	7	46	Cue	AvoidedLoss	True
438.967	4.0	Lose2	0.6809000000000001	0.0	Yes	3.383	0.0	n/a	GoodResponse	0	n/a	n/a	7	46	Fixation	AvoidedLoss	True
442.963	0.27	Lose2	0.6809000000000001	0.004	Yes	3.383	-0.004	2.0	GoodResponse	0	0.209	442.172	7	46	Target	AvoidedLoss	True
443.172	0.3	Lose2	0.6809000000000001	0.004	Yes	3.383	-0.004	2.0	GoodResponse	0	0.209	n/a	7	46	ButtonPress	AvoidedLoss	True
443.247	0.43	Lose2	0.6809000000000001	n/a	Yes	3.383	n/a	n/a	GoodResponse	0	n/a	n/a	7	46	Blank	AvoidedLoss	True
443.665	1.45	Lose2	0.6809000000000001	n/a	Yes	3.383	n/a	5.0	GoodResponse	0	0.015	442.68	7	46	Feedback	AvoidedLoss	True
445.119	3.383	Lose2	0.6809000000000001	n/a	Yes	3.383	n/a	n/a	GoodResponse	0	0.0	n/a	7	46	ISIslide	AvoidedLoss	True
448.529	0.25	Lose2	0.6875	0.0	Yes	2.671	0.029	n/a	GoodResponse	0	n/a	n/a	7	47	Cue	AvoidedLoss	True
448.78	4.0	Lose2	0.6875	0.0	Yes	2.671	0.001	n/a	GoodResponse	0	n/a	n/a	7	47	Fixation	AvoidedLoss	True
452.775	0.26	Lose2	0.6875	0.004	Yes	2.671	-0.004	2.0	GoodResponse	0	0.198	451.973	7	47	Target	AvoidedLoss	True
452.973	0.3	Lose2	0.6875	0.004	Yes	2.671	-0.004	2.0	GoodResponse	0	0.198	n/a	7	47	ButtonPress	AvoidedLoss	True
453.043	0.44	Lose2	0.6875	n/a	Yes	2.671	n/a	n/a	GoodResponse	0	n/a	n/a	7	47	Blank	AvoidedLoss	True
453.478	1.45	Lose2	0.6875	n/a	Yes	2.671	n/a	5.0	GoodResponse	0	0.007	452.485	7	47	Feedback	AvoidedLoss	True
454.932	2.671	Lose2	0.6875	n/a	Yes	2.671	n/a	n/a	GoodResponse	0	0.0	n/a	7	47	ISIslide	AvoidedLoss	True
457.623	0.25	Lose2	0.6735	0.0	No	3.027	0.023	n/a	NoResponse	-1	n/a	n/a	6	48	Cue	Loss	True
457.874	3.95	Lose2	0.6735	0.0	No	3.027	0.001	n/a	NoResponse	-1	n/a	n/a	6	48	Fixation	Loss	True
461.819	0.25	Lose2	0.6735	0.004	No	3.027	-0.004	2.0	NoResponse	-1	0.261	461.08	6	48	Target	Loss	True
462.07	0.45	Lose2	0.6735	n/a	No	3.027	n/a	n/a	NoResponse	-1	n/a	n/a	6	48	Blank	Loss	True
462.08	0.3	Lose2	0.6735	0.004	No	3.027	-0.004	2.0	NoResponse	-1	0.261	n/a	6	48	ButtonPress	Loss	True
462.521	1.45	Lose2	0.6735	n/a	No	3.027	n/a	5.0	NoResponse	-1	0.036	461.557	6	48	Feedback	Loss	True
463.976	3.027	Lose2	0.6735	n/a	No	3.027	n/a	n/a	NoResponse	-1	0.0	n/a	6	48	ISIslide	Loss	True
467.018	0.25	Control	0.68	0.0	Yes	2.882	0.018	n/a	GoodResponse	0	n/a	n/a	6	49	Cue	Neutral	True
467.269	4.0	Control	0.68	0.0	Yes	2.882	0.001	n/a	GoodResponse	0	n/a	n/a	6	49	Fixation	Neutral	True
471.264	0.24	Control	0.68	0.004	Yes	2.882	-0.004	2.0	GoodResponse	0	0.222	470.486	6	49	Target	Neutral	True
471.486	0.3	Control	0.68	0.004	Yes	2.882	-0.004	2.0	GoodResponse	0	0.222	n/a	6	49	ButtonPress	Neutral	True
471.515	0.46	Control	0.68	n/a	Yes	2.882	n/a	n/a	GoodResponse	0	n/a	n/a	6	49	Blank	Neutral	True
471.966	1.45	Control	0.68	n/a	Yes	2.882	n/a	5.0	GoodResponse	0	0.006	470.972	6	49	Feedback	Neutral	True
473.421	2.882	Control	0.68	n/a	Yes	2.882	n/a	n/a	GoodResponse	0	0.0	n/a	6	49	ISIslide	Neutral	True
476.329	0.25	Control	0.6862999999999999	0.0	Yes	2.771	0.029	n/a	GoodResponse	0	n/a	n/a	6	50	Cue	Neutral	False
476.58	4.0	Control	0.6862999999999999	0.0	Yes	2.771	0.001	2.0	GoodResponse	0	3.619	479.199	6	50	Fixation	Neutral	False
480.199	0.3	Control	0.6862999999999999	0.0	Yes	2.771	0.001	2.0	GoodResponse	0	3.619	n/a	6	50	ButtonPress	Neutral	False
480.575	0.23	Control	0.6862999999999999	0.004	Yes	2.771	-0.004	2.0	GoodResponse	0	0.201	479.776	6	50	Target	Neutral	False
480.776	0.3	Control	0.6862999999999999	0.004	Yes	2.771	-0.004	2.0	GoodResponse	0	0.201	n/a	6	50	ButtonPress	Neutral	False
480.809	0.47	Control	0.6862999999999999	n/a	Yes	2.771	n/a	n/a	GoodResponse	0	n/a	n/a	6	50	Blank	Neutral	False
481.277	1.45	Control	0.6862999999999999	n/a	Yes	2.771	n/a	5.0	GoodResponse	0	0.012	480.289	6	50	Feedback	Neutral	False
482.732	2.771	Control	0.6862999999999999	n/a	Yes	2.771	n/a	n/a	GoodResponse	0	0.0	n/a	6	50	ISIslide	Neutral	False
485.524	0.25	Control	0.6923	0.0	Yes	2.726	0.024	n/a	GoodResponse	0	n/a	n/a	6	51	Cue	Neutral	True
485.774	3.95	Control	0.6923	0.0	Yes	2.726	0.0	n/a	GoodResponse	0	n/a	n/a	6	51	Fixation	Neutral	True
489.736	0.22	Control	0.6923	0.0	Yes	2.726	0.012	2.0	GoodResponse	0	0.192	488.928	6	51	Target	Neutral	True
489.928	0.3	Control	0.6923	0.0	Yes	2.726	0.012	2.0	GoodResponse	0	0.192	n/a	6	51	ButtonPress	Neutral	True
489.953	0.48	Control	0.6923	n/a	Yes	2.726	n/a	n/a	GoodResponse	0	n/a	n/a	6	51	Blank	Neutral	True
490.422	1.45	Control	0.6923	n/a	Yes	2.726	n/a	5.0	GoodResponse	0	0.038	489.46	6	51	Feedback	Neutral	True
491.876	2.726	Control	0.6923	n/a	Yes	2.726	n/a	n/a	GoodResponse	0	0.0	n/a	6	51	ISIslide	Neutral	True
494.617	0.25	Control	0.6981	0.001	Yes	2.633	0.017	n/a	GoodResponse	0	n/a	n/a	6	52	Cue	Neutral	True
494.868	4.05	Control	0.6981	0.0	Yes	2.633	0.001	n/a	GoodResponse	0	n/a	n/a	6	52	Fixation	Neutral	True
498.914	0.21	Control	0.6981	0.003	Yes	2.633	-0.003	2.0	GoodResponse	0	0.189	498.103	6	52	Target	Neutral	True
499.103	0.3	Control	0.6981	0.003	Yes	2.633	-0.003	2.0	GoodResponse	0	0.189	n/a	6	52	ButtonPress	Neutral	True
499.131	0.49	Control	0.6981	n/a	Yes	2.633	n/a	n/a	GoodResponse	0	n/a	n/a	6	52	Blank	Neutral	True
499.616	1.45	Control	0.6981	n/a	Yes	2.633	n/a	5.0	GoodResponse	0	0.015	498.631	6	52	Feedback	Neutral	True
501.07	2.633	Control	0.6981	n/a	Yes	2.633	n/a	n/a	GoodResponse	0	0.0	n/a	6	52	ISIslide	Neutral	True
503.728	0.25	Win2	0.7037	0.0	Yes	2.922	0.028	n/a	GoodResponse	1	n/a	n/a	7	53	Cue	Win	True
503.979	4.05	Win2	0.7037	0.0	Yes	2.922	0.001	n/a	GoodResponse	1	n/a	n/a	7	53	Fixation	Win	True
508.024	0.2	Win2	0.7037	0.004	Yes	2.922	-0.004	2.0	GoodResponse	1	0.184	507.208	7	53	Target	Win	True
508.208	0.3	Win2	0.7037	0.004	Yes	2.922	-0.004	2.0	GoodResponse	1	0.184	n/a	7	53	ButtonPress	Win	True
508.225	0.5	Win2	0.7037	n/a	Yes	2.922	n/a	n/a	GoodResponse	1	n/a	n/a	7	53	Blank	Win	True
508.726	1.45	Win2	0.7037	n/a	Yes	2.922	n/a	5.0	GoodResponse	1	0.027	507.753	7	53	Feedback	Win	True
510.181	2.922	Win2	0.7037	n/a	Yes	2.922	n/a	n/a	GoodResponse	1	0.0	n/a	7	53	ISIslide	Win	True
513.123	0.25	Win2	0.7091	0.0	Yes	2.727	0.023	n/a	GoodResponse	1	n/a	n/a	8	54	Cue	Win	True
513.374	3.95	Win2	0.7091	0.0	Yes	2.727	0.001	n/a	GoodResponse	1	n/a	n/a	8	54	Fixation	Win	True
517.319	0.19	Win2	0.7091	0.004	Yes	2.727	-0.004	2.0	GoodResponse	1	0.186	516.505	8	54	Target	Win	True
517.505	0.3	Win2	0.7091	0.004	Yes	2.727	-0.004	2.0	GoodResponse	1	0.186	n/a	8	54	ButtonPress	Win	True
517.519	0.51	Win2	0.7091	n/a	Yes	2.727	n/a	n/a	GoodResponse	1	n/a	n/a	8	54	Blank	Win	True
518.021	1.45	Win2	0.7091	n/a	Yes	2.727	n/a	5.0	GoodResponse	1	0.048	517.069	8	54	Feedback	Win	True
519.475	2.727	Win2	0.7091	n/a	Yes	2.727	n/a	n/a	GoodResponse	1	0.0	n/a	8	54	ISIslide	Win	True
522.217	0.25	Control	0.6964	0.0	No	3.033	0.017	n/a	NoResponse	0	n/a	n/a	8	55	Cue	Neutral	True
522.468	3.95	Control	0.6964	0.0	No	3.033	0.001	n/a	NoResponse	0	n/a	n/a	8	55	Fixation	Neutral	True
526.413	0.18	Control	0.6964	0.004	No	3.033	-0.004	2.0	NoResponse	0	0.197	525.61	8	55	Target	Neutral	True
526.597	0.52	Control	0.6964	n/a	No	3.033	n/a	n/a	NoResponse	0	n/a	n/a	8	55	Blank	Neutral	True
526.61	0.3	Control	0.6964	0.004	No	3.033	-0.004	2.0	NoResponse	0	0.197	n/a	8	55	ButtonPress	Neutral	True
527.115	1.45	Control	0.6964	n/a	No	3.033	n/a	5.0	NoResponse	0	0.027	526.142	8	55	Feedback	Neutral	True
528.569	3.033	Control	0.6964	n/a	No	3.033	n/a	n/a	NoResponse	0	0.0	n/a	8	55	ISIslide	Neutral	True
531.628	0.25	Control	0.6842	0.0	No	2.822	0.028	n/a	NoResponse	0	n/a	n/a	8	56	Cue	Neutral	True
531.879	3.95	Control	0.6842	0.0	No	2.822	0.001	n/a	NoResponse	0	n/a	n/a	8	56	Fixation	Neutral	True
535.824	0.17	Control	0.6842	0.004	No	2.822	-0.004	2.0	NoResponse	0	0.199	535.023	8	56	Target	Neutral	True
536.008	0.53	Control	0.6842	n/a	No	2.822	n/a	n/a	NoResponse	0	n/a	n/a	8	56	Blank	Neutral	True
536.023	0.3	Control	0.6842	0.004	No	2.822	-0.004	2.0	NoResponse	0	0.199	n/a	8	56	ButtonPress	Neutral	True
536.526	1.45	Control	0.6842	n/a	No	2.822	n/a	5.0	NoResponse	0	0.031	535.557	8	56	Feedback	Neutral	True
537.981	2.822	Control	0.6842	n/a	No	2.822	n/a	n/a	NoResponse	0	0.0	n/a	8	56	ISIslide	Neutral	True
540.823	0.25	Control	0.6724	0.0	No	3.477	0.023	n/a	NoResponse	0	n/a	n/a	8	57	Cue	Neutral	True
541.073	4.0	Control	0.6724	0.0	No	3.477	0.0	n/a	NoResponse	0	n/a	n/a	8	57	Fixation	Neutral	True
545.069	0.16	Control	0.6724	0.004	No	3.477	-0.004	2.0	NoResponse	0	0.193	544.262	8	57	Target	Neutral	True
545.236	0.54	Control	0.6724	n/a	No	3.477	n/a	n/a	NoResponse	0	n/a	n/a	8	57	Blank	Neutral	True
545.262	0.3	Control	0.6724	0.004	No	3.477	-0.004	2.0	NoResponse	0	0.193	n/a	8	57	ButtonPress	Neutral	True
545.771	1.45	Control	0.6724	n/a	No	3.477	n/a	5.0	NoResponse	0	0.006	544.777	8	57	Feedback	Neutral	True
547.225	3.477	Control	0.6724	n/a	No	3.477	n/a	n/a	NoResponse	0	0.0	n/a	8	57	ISIslide	Neutral	True
550.719	0.25	Win2	0.6609999999999999	0.0	No	2.731	0.019	n/a	NoResponse	0	n/a	n/a	8	58	Cue	MissedWin	True
550.97	4.05	Win2	0.6609999999999999	0.0	No	2.731	0.001	n/a	NoResponse	0	n/a	n/a	8	58	Fixation	MissedWin	True
555.015	0.15	Win2	0.6609999999999999	0.004	No	2.731	-0.004	2.0	NoResponse	0	0.202	554.217	8	58	Target	MissedWin	True
555.166	0.55	Win2	0.6609999999999999	n/a	No	2.731	n/a	n/a	NoResponse	0	n/a	n/a	8	58	Blank	MissedWin	True
555.217	0.3	Win2	0.6609999999999999	0.004	No	2.731	-0.004	2.0	NoResponse	0	0.202	n/a	8	58	ButtonPress	MissedWin	True
555.717	1.45	Win2	0.6609999999999999	n/a	No	2.731	n/a	5.0	NoResponse	0	0.011	554.728	8	58	Feedback	MissedWin	True
557.172	2.731	Win2	0.6609999999999999	n/a	No	2.731	n/a	n/a	NoResponse	0	0.0	n/a	8	58	ISIslide	MissedWin	True
559.913	0.25	Lose2	0.65	0.0	No	2.687	0.013	n/a	NoResponse	-1	n/a	n/a	7	59	Cue	Loss	True
560.164	4.0	Lose2	0.65	0.0	No	2.687	0.001	n/a	NoResponse	-1	n/a	n/a	7	59	Fixation	Loss	True
564.159	0.15	Lose2	0.65	0.004	No	2.687	-0.004	2.0	NoResponse	-1	0.159	563.318	7	59	Target	Loss	True
564.31	0.55	Lose2	0.65	n/a	No	2.687	n/a	n/a	NoResponse	-1	n/a	n/a	7	59	Blank	Loss	True
564.318	0.3	Lose2	0.65	0.004	No	2.687	-0.004	2.0	NoResponse	-1	0.159	n/a	7	59	ButtonPress	Loss	True
564.861	1.45	Lose2	0.65	n/a	No	2.687	n/a	5.0	NoResponse	-1	0.038	563.899	7	59	Feedback	Loss	True
566.316	2.687	Lose2	0.65	n/a	No	2.687	n/a	n/a	NoResponse	-1	0.0	n/a	7	59	ISIslide	Loss	True
569.024	0.25	Control	0.6393	0.0	No	2.676	0.024	n/a	NoResponse	0	n/a	n/a	7	60	Cue	Neutral	False
569.274	4.0	Control	0.6393	0.001	No	2.676	0.0	2.0	NoResponse	0	0.75	569.024	7	60	Fixation	Neutral	False
570.024	0.3	Control	0.6393	0.001	No	2.676	0.0	2.0	NoResponse	0	0.75	n/a	7	60	ButtonPress	Neutral	False
573.27	0.16	Control	0.6393	0.004	No	2.676	-0.004	2.0	NoResponse	0	0.205	572.475	7	60	Target	Neutral	False
573.437	0.54	Control	0.6393	n/a	No	2.676	n/a	n/a	NoResponse	0	n/a	n/a	7	60	Blank	Neutral	False
573.475	0.3	Control	0.6393	0.004	No	2.676	-0.004	2.0	NoResponse	0	0.205	n/a	7	60	ButtonPress	Neutral	False
573.972	1.45	Control	0.6393	n/a	No	2.676	n/a	5.0	NoResponse	0	0.048	573.02	7	60	Feedback	Neutral	False
575.426	2.676	Control	0.6393	n/a	No	2.676	n/a	n/a	NoResponse	0	0.0	n/a	7	60	ISIslide	Neutral	False
578.118	0.25	Lose2	0.629	0.0	No	2.982	0.018	n/a	NoResponse	-1	n/a	n/a	6	61	Cue	Loss	True
578.368	4.0	Lose2	0.629	0.0	No	2.982	0.0	n/a	NoResponse	-1	n/a	n/a	6	61	Fixation	Loss	True
582.364	0.17	Lose2	0.629	0.004	No	2.982	-0.004	2.0	NoResponse	-1	0.208	581.572	6	61	Target	Loss	True
582.548	0.53	Lose2	0.629	n/a	No	2.982	n/a	n/a	NoResponse	-1	n/a	n/a	6	61	Blank	Loss	True
582.572	0.3	Lose2	0.629	0.004	No	2.982	-0.004	2.0	NoResponse	-1	0.208	n/a	6	61	ButtonPress	Loss	True
583.066	1.45	Lose2	0.629	n/a	No	2.982	n/a	5.0	NoResponse	-1	0.027	582.093	6	61	Feedback	Loss	True
584.52	2.982	Lose2	0.629	n/a	No	2.982	n/a	n/a	NoResponse	-1	0.0	n/a	6	61	ISIslide	Loss	True
587.529	0.25	Lose2	0.6349	0.0	Yes	2.871	0.029	n/a	GoodResponse	0	n/a	n/a	6	62	Cue	AvoidedLoss	True
587.78	3.9	Lose2	0.6349	0.0	Yes	2.871	0.001	n/a	GoodResponse	0	n/a	n/a	6	62	Fixation	AvoidedLoss	True
591.675	0.18	Lose2	0.6349	0.004	Yes	2.871	-0.004	2.0	GoodResponse	0	0.156	590.831	6	62	Target	AvoidedLoss	True
591.831	0.3	Lose2	0.6349	0.004	Yes	2.871	-0.004	2.0	GoodResponse	0	0.156	n/a	6	62	ButtonPress	AvoidedLoss	True
591.859	0.52	Lose2	0.6349	n/a	Yes	2.871	n/a	n/a	GoodResponse	0	n/a	n/a	6	62	Blank	AvoidedLoss	True
592.377	1.45	Lose2	0.6349	n/a	Yes	2.871	n/a	5.0	GoodResponse	0	0.033	591.41	6	62	Feedback	AvoidedLoss	True
593.831	2.871	Lose2	0.6349	n/a	Yes	2.871	n/a	n/a	GoodResponse	0	0.0	n/a	6	62	ISIslide	AvoidedLoss	True
596.723	0.25	Lose2	0.6406000000000001	0.0	Yes	2.627	0.023	n/a	GoodResponse	0	n/a	n/a	6	63	Cue	AvoidedLoss	True
596.974	4.05	Lose2	0.6406000000000001	0.0	Yes	2.627	0.001	n/a	GoodResponse	0	n/a	n/a	6	63	Fixation	AvoidedLoss	True
601.02	0.19	Lose2	0.6406000000000001	0.003	Yes	2.627	-0.003	2.0	GoodResponse	0	0.165	600.185	6	63	Target	AvoidedLoss	True
601.185	0.3	Lose2	0.6406000000000001	0.003	Yes	2.627	-0.003	2.0	GoodResponse	0	0.165	n/a	6	63	ButtonPress	AvoidedLoss	True
601.22	0.51	Lose2	0.6406000000000001	n/a	Yes	2.627	n/a	n/a	GoodResponse	0	n/a	n/a	6	63	Blank	AvoidedLoss	True
601.722	1.45	Lose2	0.6406000000000001	n/a	Yes	2.627	n/a	5.0	GoodResponse	0	0.006	600.728	6	63	Feedback	AvoidedLoss	True
603.176	2.627	Lose2	0.6406000000000001	n/a	Yes	2.627	n/a	n/a	GoodResponse	0	0.0	n/a	6	63	ISIslide	AvoidedLoss	True
605.817	0.25	Win2	0.6462	0.0	Yes	3.133	0.017	n/a	GoodResponse	1	n/a	n/a	7	64	Cue	Win	True
606.068	4.15	Win2	0.6462	0.0	Yes	3.133	0.001	n/a	GoodResponse	1	n/a	n/a	7	64	Fixation	Win	True
610.214	0.2	Win2	0.6462	0.003	Yes	3.133	-0.003	2.0	GoodResponse	1	0.174	609.388	7	64	Target	Win	True
610.388	0.3	Win2	0.6462	0.003	Yes	3.133	-0.003	2.0	GoodResponse	1	0.174	n/a	7	64	ButtonPress	Win	True
610.414	0.5	Win2	0.6462	n/a	Yes	3.133	n/a	n/a	GoodResponse	1	n/a	n/a	7	64	Blank	Win	True
610.916	1.45	Win2	0.6462	n/a	Yes	3.133	n/a	5.0	GoodResponse	1	0.031	609.947	7	64	Feedback	Win	True
612.37	3.133	Win2	0.6462	n/a	Yes	3.133	n/a	n/a	GoodResponse	1	0.0	n/a	7	64	ISIslide	Win	True
615.53	0.25	Control	0.6515000000000001	0.0	Yes	2.77	0.03	n/a	GoodResponse	0	n/a	n/a	7	65	Cue	Neutral	True
615.78	4.0	Control	0.6515000000000001	0.001	Yes	2.77	0.0	n/a	GoodResponse	0	n/a	n/a	7	65	Fixation	Neutral	True
619.776	0.21	Control	0.6515000000000001	0.004	Yes	2.77	-0.004	2.0	GoodResponse	0	0.168	618.944	7	65	Target	Neutral	True
619.944	0.3	Control	0.6515000000000001	0.004	Yes	2.77	-0.004	2.0	GoodResponse	0	0.168	n/a	7	65	ButtonPress	Neutral	True
619.993	0.49	Control	0.6515000000000001	n/a	Yes	2.77	n/a	n/a	GoodResponse	0	n/a	n/a	7	65	Blank	Neutral	True
620.478	1.45	Control	0.6515000000000001	n/a	Yes	2.77	n/a	5.0	GoodResponse	0	0.03	619.508	7	65	Feedback	Neutral	True
621.932	2.77	Control	0.6515000000000001	n/a	Yes	2.77	n/a	2.0	GoodResponse	0	2.69	n/a	7	65	ISIslide	Neutral	True
624.707	0.25	Win2	0.6567000000000001	0.0	Yes	2.793	0.007	n/a	GoodResponse	1	n/a	n/a	8	66	Cue	Win	True
624.958	3.9	Win2	0.6567000000000001	0.0	Yes	2.793	0.001	n/a	GoodResponse	1	n/a	n/a	8	66	Fixation	Win	True
628.853	0.22	Win2	0.6567000000000001	0.004	Yes	2.793	-0.004	2.0	GoodResponse	1	0.181	628.034	8	66	Target	Win	True
629.034	0.3	Win2	0.6567000000000001	0.004	Yes	2.793	-0.004	2.0	GoodResponse	1	0.181	n/a	8	66	ButtonPress	Win	True
629.087	0.48	Win2	0.6567000000000001	n/a	Yes	2.793	n/a	n/a	GoodResponse	1	n/a	n/a	8	66	Blank	Win	True
629.555	1.45	Win2	0.6567000000000001	n/a	Yes	2.793	n/a	5.0	GoodResponse	1	0.027	628.582	8	66	Feedback	Win	True
631.009	2.793	Win2	0.6567000000000001	n/a	Yes	2.793	n/a	2.0	GoodResponse	1	1.118	n/a	8	66	ISIslide	Win	True
633.801	0.25	Control	0.6618	0.0	Yes	2.749	0.001	n/a	GoodResponse	0	n/a	n/a	8	67	Cue	Neutral	True
634.052	3.95	Control	0.6618	0.0	Yes	2.749	0.001	n/a	GoodResponse	0	n/a	n/a	8	67	Fixation	Neutral	True
637.997	0.22	Control	0.6618	0.004	Yes	2.749	-0.004	2.0	GoodResponse	0	0.201	637.198	8	67	Target	Neutral	True
638.198	0.3	Control	0.6618	0.004	Yes	2.749	-0.004	2.0	GoodResponse	0	0.201	n/a	8	67	ButtonPress	Neutral	True
638.231	0.48	Control	0.6618	n/a	Yes	2.749	n/a	n/a	GoodResponse	0	n/a	n/a	8	67	Blank	Neutral	True
638.699	1.45	Control	0.6618	n/a	Yes	2.749	n/a	5.0	GoodResponse	0	0.008	637.707	8	67	Feedback	Neutral	True
640.154	2.749	Control	0.6618	n/a	Yes	2.749	n/a	n/a	GoodResponse	0	0.0	n/a	8	67	ISIslide	Neutral	True
642.928	0.25	Win2	0.6667000000000001	0.001	Yes	3.072	0.028	n/a	GoodResponse	1	n/a	n/a	9	68	Cue	Win	True
643.179	4.0	Win2	0.6667000000000001	0.0	Yes	3.072	0.001	n/a	GoodResponse	1	n/a	n/a	9	68	Fixation	Win	True
647.175	0.22	Win2	0.6667000000000001	0.003	Yes	3.072	-0.003	2.0	GoodResponse	1	0.186	646.361	9	68	Target	Win	True
647.361	0.3	Win2	0.6667000000000001	0.003	Yes	3.072	-0.003	2.0	GoodResponse	1	0.186	n/a	9	68	ButtonPress	Win	True
647.409	0.48	Win2	0.6667000000000001	n/a	Yes	3.072	n/a	n/a	GoodResponse	1	n/a	n/a	9	68	Blank	Win	True
647.877	1.45	Win2	0.6667000000000001	n/a	Yes	3.072	n/a	5.0	GoodResponse	1	0.045	646.922	9	68	Feedback	Win	True
649.331	3.072	Win2	0.6667000000000001	n/a	Yes	3.072	n/a	n/a	GoodResponse	1	0.0	n/a	9	68	ISIslide	Win	True
652.424	0.25	Win2	0.6714	0.0	Yes	3.226	0.024	n/a	GoodResponse	1	n/a	n/a	10	69	Cue	Win	True
652.674	3.95	Win2	0.6714	0.0	Yes	3.226	0.0	n/a	GoodResponse	1	n/a	n/a	10	69	Fixation	Win	True
656.62	0.21	Win2	0.6714	0.004	Yes	3.226	-0.004	2.0	GoodResponse	1	0.202	655.822	10	69	Target	Win	True
656.822	0.3	Win2	0.6714	0.004	Yes	3.226	-0.004	2.0	GoodResponse	1	0.202	n/a	10	69	ButtonPress	Win	True
656.837	0.49	Win2	0.6714	n/a	Yes	3.226	n/a	n/a	GoodResponse	1	n/a	n/a	10	69	Blank	Win	True
657.322	1.45	Win2	0.6714	n/a	Yes	3.226	n/a	5.0	GoodResponse	1	0.015	656.337	10	69	Feedback	Win	True
658.776	3.226	Win2	0.6714	n/a	Yes	3.226	n/a	n/a	GoodResponse	1	0.0	n/a	10	69	ISIslide	Win	True
662.019	0.25	Lose2	0.6761	0.0	Yes	3.031	0.019	n/a	GoodResponse	0	n/a	n/a	10	70	Cue	AvoidedLoss	True
662.27	4.05	Lose2	0.6761	0.0	Yes	3.031	0.001	n/a	GoodResponse	0	n/a	n/a	10	70	Fixation	AvoidedLoss	True
666.315	0.2	Lose2	0.6761	0.004	Yes	3.031	-0.004	2.0	GoodResponse	0	0.165	665.48	10	70	Target	AvoidedLoss	True
666.48	0.3	Lose2	0.6761	0.004	Yes	3.031	-0.004	2.0	GoodResponse	0	0.165	n/a	10	70	ButtonPress	AvoidedLoss	True
666.516	0.5	Lose2	0.6761	n/a	Yes	3.031	n/a	n/a	GoodResponse	0	n/a	n/a	10	70	Blank	AvoidedLoss	True
667.017	1.45	Lose2	0.6761	n/a	Yes	3.031	n/a	5.0	GoodResponse	0	0.027	666.044	10	70	Feedback	AvoidedLoss	True
668.472	3.031	Lose2	0.6761	n/a	Yes	3.031	n/a	n/a	GoodResponse	0	0.0	n/a	10	70	ISIslide	AvoidedLoss	True
671.531	0.25	Win2	0.6667000000000001	0.0	No	2.719	0.031	n/a	LatePress	0	n/a	n/a	10	71	Cue	MissedWin	True
671.782	4.05	Win2	0.6667000000000001	0.0	No	2.719	0.001	n/a	LatePress	0	n/a	n/a	10	71	Fixation	MissedWin	True
675.827	0.19	Win2	0.6667000000000001	0.004	No	2.719	-0.004	2.0	LatePress	0	0.197	675.024	10	71	Target	MissedWin	True
676.024	0.3	Win2	0.6667000000000001	0.004	No	2.719	-0.004	2.0	LatePress	0	0.197	n/a	10	71	ButtonPress	MissedWin	True
676.028	0.51	Win2	0.6667000000000001	n/a	No	2.719	n/a	n/a	LatePress	0	n/a	n/a	10	71	Blank	MissedWin	True
676.529	1.45	Win2	0.6667000000000001	n/a	No	2.719	n/a	5.0	LatePress	0	0.028	675.557	10	71	Feedback	MissedWin	True
677.984	2.719	Win2	0.6667000000000001	n/a	No	2.719	n/a	n/a	LatePress	0	0.0	n/a	10	71	ISIslide	MissedWin	True
680.725	0.25	Win2	0.6575	0.0	No	2.775	0.025	n/a	NoResponse	0	n/a	n/a	10	72	Cue	MissedWin	True
680.976	4.1	Win2	0.6575	0.0	No	2.775	0.001	2.0	NoResponse	0	4.087	684.063	10	72	Fixation	MissedWin	True
685.063	0.3	Win2	0.6575	0.0	No	2.775	0.001	2.0	NoResponse	0	4.087	n/a	10	72	ButtonPress	MissedWin	True
685.071	0.18	Win2	0.6575	0.004	No	2.775	-0.004	n/a	NoResponse	0	n/a	n/a	10	72	Target	MissedWin	True
685.255	0.52	Win2	0.6575	n/a	No	2.775	n/a	n/a	NoResponse	0	n/a	n/a	10	72	Blank	MissedWin	True
685.774	1.45	Win2	0.6575	n/a	No	2.775	n/a	5.0	NoResponse	0	0.007	684.781	10	72	Feedback	MissedWin	True
687.228	2.775	Win2	0.6575	n/a	No	2.775	n/a	n/a	NoResponse	0	0.0	n/a	10	72	ISIslide	MissedWin	True
690.02	0.25	Win2	0.6486	0.0	No	2.68	0.02	n/a	NoResponse	0	n/a	n/a	10	73	Cue	MissedWin	True
690.27	4.0	Win2	0.6486	0.0	No	2.68	0.0	n/a	NoResponse	0	n/a	n/a	10	73	Fixation	MissedWin	True
694.266	0.18	Win2	0.6486	0.004	No	2.68	-0.004	2.0	NoResponse	0	0.191	693.457	10	73	Target	MissedWin	True
694.45	0.52	Win2	0.6486	n/a	No	2.68	n/a	n/a	NoResponse	0	n/a	n/a	10	73	Blank	MissedWin	True
694.457	0.3	Win2	0.6486	0.004	No	2.68	-0.004	2.0	NoResponse	0	0.191	n/a	10	73	ButtonPress	MissedWin	True
694.968	1.45	Win2	0.6486	n/a	No	2.68	n/a	5.0	NoResponse	0	0.027	693.995	10	73	Feedback	MissedWin	True
696.422	2.68	Win2	0.6486	n/a	No	2.68	n/a	n/a	NoResponse	0	0.0	n/a	10	73	ISIslide	MissedWin	True
699.13	0.25	Lose2	0.6533	0.0	Yes	2.62	0.03	n/a	GoodResponse	0	n/a	n/a	10	74	Cue	AvoidedLoss	False
699.381	4.05	Lose2	0.6533	0.0	Yes	2.62	0.001	2.0	GoodResponse	0	0.089	698.47	10	74	Fixation	AvoidedLoss	False
699.47	0.3	Lose2	0.6533	0.0	Yes	2.62	0.001	2.0	GoodResponse	0	0.089	n/a	10	74	ButtonPress	AvoidedLoss	False
703.426	0.19	Lose2	0.6533	0.004	Yes	2.62	-0.004	2.0	GoodResponse	0	0.169	702.595	10	74	Target	AvoidedLoss	False
703.595	0.3	Lose2	0.6533	0.004	Yes	2.62	-0.004	2.0	GoodResponse	0	0.169	n/a	10	74	ButtonPress	AvoidedLoss	False
703.627	0.51	Lose2	0.6533	n/a	Yes	2.62	n/a	n/a	GoodResponse	0	n/a	n/a	10	74	Blank	AvoidedLoss	False
704.129	1.45	Lose2	0.6533	n/a	Yes	2.62	n/a	5.0	GoodResponse	0	0.037	703.166	10	74	Feedback	AvoidedLoss	False
705.583	2.62	Lose2	0.6533	n/a	Yes	2.62	n/a	n/a	GoodResponse	0	0.0	n/a	10	74	ISIslide	AvoidedLoss	False
708.224	0.25	Lose2	0.6579	0.0	Yes	2.926	0.024	n/a	GoodResponse	0	n/a	n/a	10	75	Cue	AvoidedLoss	True
708.475	3.95	Lose2	0.6579	0.0	Yes	2.926	0.001	n/a	GoodResponse	0	n/a	n/a	10	75	Fixation	AvoidedLoss	True
712.42	0.2	Lose2	0.6579	0.004	Yes	2.926	-0.004	2.0	GoodResponse	0	0.167	711.587	10	75	Target	AvoidedLoss	True
712.587	0.3	Lose2	0.6579	0.004	Yes	2.926	-0.004	2.0	GoodResponse	0	0.167	n/a	10	75	ButtonPress	AvoidedLoss	True
712.621	0.5	Lose2	0.6579	n/a	Yes	2.926	n/a	n/a	GoodResponse	0	n/a	n/a	10	75	Blank	AvoidedLoss	True
713.122	1.45	Lose2	0.6579	n/a	Yes	2.926	n/a	5.0	GoodResponse	0	0.019	712.141	10	75	Feedback	AvoidedLoss	True
714.577	2.926	Lose2	0.6579	n/a	Yes	2.926	n/a	n/a	GoodResponse	0	0.0	n/a	10	75	ISIslide	AvoidedLoss	True
717.519	0.25	Control	0.6623	0.0	Yes	3.231	0.019	n/a	GoodResponse	0	n/a	n/a	10	76	Cue	Neutral	True
717.769	4.05	Control	0.6623	0.0	Yes	3.231	0.0	n/a	GoodResponse	0	n/a	n/a	10	76	Fixation	Neutral	True
721.815	0.2	Control	0.6623	0.004	Yes	3.231	-0.004	2.0	GoodResponse	0	0.181	720.996	10	76	Target	Neutral	True
721.996	0.3	Control	0.6623	0.004	Yes	3.231	-0.004	2.0	GoodResponse	0	0.181	n/a	10	76	ButtonPress	Neutral	True
722.015	0.5	Control	0.6623	n/a	Yes	3.231	n/a	n/a	GoodResponse	0	n/a	n/a	10	76	Blank	Neutral	True
722.517	1.45	Control	0.6623	n/a	Yes	3.231	n/a	5.0	GoodResponse	0	0.039	721.556	10	76	Feedback	Neutral	True
723.971	3.231	Control	0.6623	n/a	Yes	3.231	n/a	n/a	GoodResponse	0	0.0	n/a	10	76	ISIslide	Neutral	True
727.231	0.25	Lose2	0.6667000000000001	0.0	Yes	2.569	0.031	n/a	GoodResponse	0	n/a	n/a	10	77	Cue	AvoidedLoss	True
727.482	3.95	Lose2	0.6667000000000001	0.0	Yes	2.569	0.001	n/a	GoodResponse	0	n/a	n/a	10	77	Fixation	AvoidedLoss	True
731.427	0.2	Lose2	0.6667000000000001	0.004	Yes	2.569	-0.004	2.0	GoodResponse	0	0.184	730.611	10	77	Target	AvoidedLoss	True
731.611	0.3	Lose2	0.6667000000000001	0.004	Yes	2.569	-0.004	2.0	GoodResponse	0	0.184	n/a	10	77	ButtonPress	AvoidedLoss	True
731.628	0.5	Lose2	0.6667000000000001	n/a	Yes	2.569	n/a	n/a	GoodResponse	0	n/a	n/a	10	77	Blank	AvoidedLoss	True
732.129	1.45	Lose2	0.6667000000000001	n/a	Yes	2.569	n/a	5.0	GoodResponse	0	0.037	731.166	10	77	Feedback	AvoidedLoss	True
733.583	2.569	Lose2	0.6667000000000001	n/a	Yes	2.569	n/a	n/a	GoodResponse	0	0.0	n/a	10	77	ISIslide	AvoidedLoss	True
