onset	duration	cue_type	current_mean_accuracy	duration_error	is_hit	isi_adjusted	onset_delay	response	response_type	reward	rt	rt_time	total_reward	trial_number	trial_phase	trial_type	one_press
11.099	0.25	Control	1.0	0.0	Yes	2.951	-0.001	n/a	GoodResponse	0	n/a	n/a	0	0	Cue	Neutral	True
11.349	3.85	Control	1.0	0.0	Yes	2.951	0.0	n/a	GoodResponse	0	n/a	n/a	0	0	Fixation	Neutral	True
15.197	0.4	Control	1.0	0.002	Yes	2.951	-0.002	2.0	GoodResponse	0	0.211	14.408	0	0	Target	Neutral	True
15.408	0.3	Control	1.0	0.002	Yes	2.951	-0.002	2.0	GoodResponse	0	0.211	n/a	0	0	ButtonPress	Neutral	True
15.597	0.3	Control	1.0	n/a	Yes	2.951	n/a	n/a	GoodResponse	0	n/a	n/a	0	0	Blank	Neutral	True
15.897	1.45	Control	1.0	n/a	Yes	2.951	n/a	5.0	GoodResponse	0	0.032	14.929	0	0	Feedback	Neutral	True
17.347	2.951	Control	1.0	n/a	Yes	2.951	n/a	n/a	GoodResponse	0	0.0	n/a	0	0	ISIslide	Neutral	True
20.312	0.25	Lose2	1.0	0.0	Yes	2.788	0.012	n/a	GoodResponse	0	n/a	n/a	0	1	Cue	AvoidedLoss	True
20.562	4.0	Lose2	1.0	0.0	Yes	2.788	0.0	n/a	GoodResponse	0	n/a	n/a	0	1	Fixation	AvoidedLoss	True
24.561	0.39	Lose2	1.0	0.001	Yes	2.788	-0.001	2.0	GoodResponse	0	0.171	23.732	0	1	Target	AvoidedLoss	True
24.732	0.3	Lose2	1.0	0.001	Yes	2.788	-0.001	2.0	GoodResponse	0	0.171	n/a	0	1	ButtonPress	AvoidedLoss	True
24.961	0.31	Lose2	1.0	n/a	Yes	2.788	n/a	n/a	GoodResponse	0	n/a	n/a	0	1	Blank	AvoidedLoss	True
25.261	1.45	Lose2	1.0	n/a	Yes	2.788	n/a	5.0	GoodResponse	0	0.034	24.295	0	1	Feedback	AvoidedLoss	True
26.71	2.788	Lose2	1.0	n/a	Yes	2.788	n/a	n/a	GoodResponse	0	0.0	n/a	0	1	ISIslide	AvoidedLoss	True
29.526	0.25	Control	1.0	0.0	Yes	2.574	0.026	n/a	GoodResponse	0	n/a	n/a	0	2	Cue	Neutral	True
29.776	4.1	Control	1.0	0.0	Yes	2.574	0.0	n/a	GoodResponse	0	n/a	n/a	0	2	Fixation	Neutral	True
33.874	0.38	Control	1.0	0.002	Yes	2.574	-0.002	2.0	GoodResponse	0	0.21	33.084	0	2	Target	Neutral	True
34.084	0.3	Control	1.0	0.002	Yes	2.574	-0.002	2.0	GoodResponse	0	0.21	n/a	0	2	ButtonPress	Neutral	True
34.257	0.32	Control	1.0	n/a	Yes	2.574	n/a	n/a	GoodResponse	0	n/a	n/a	0	2	Blank	Neutral	True
34.574	1.45	Control	1.0	n/a	Yes	2.574	n/a	5.0	GoodResponse	0	0.037	33.611	0	2	Feedback	Neutral	True
36.024	2.574	Control	1.0	n/a	Yes	2.574	n/a	n/a	GoodResponse	0	0.0	n/a	0	2	ISIslide	Neutral	True
38.623	0.25	Win2	1.0	0.0	Yes	2.827	0.023	n/a	GoodResponse	1	n/a	n/a	1	3	Cue	Win	True
38.873	3.95	Win2	1.0	0.0	Yes	2.827	0.0	n/a	GoodResponse	1	n/a	n/a	1	3	Fixation	Win	True
42.821	0.37	Win2	1.0	0.002	Yes	2.827	-0.002	2.0	GoodResponse	1	0.191	42.012	1	3	Target	Win	True
43.012	0.3	Win2	1.0	0.002	Yes	2.827	-0.002	2.0	GoodResponse	1	0.191	n/a	1	3	ButtonPress	Win	True
43.204	0.33	Win2	1.0	n/a	Yes	2.827	n/a	n/a	GoodResponse	1	n/a	n/a	1	3	Blank	Win	True
43.521	1.45	Win2	1.0	n/a	Yes	2.827	n/a	5.0	GoodResponse	1	0.017	42.538	1	3	Feedback	Win	True
44.97	2.827	Win2	1.0	n/a	Yes	2.827	n/a	n/a	GoodResponse	1	0.0	n/a	1	3	ISIslide	Win	True
47.819	0.25	Win2	1.0	0.001	Yes	3.281	0.019	n/a	GoodResponse	1	n/a	n/a	2	4	Cue	Win	False
48.069	4.0	Win2	1.0	0.0	Yes	3.281	0.0	2.0	GoodResponse	1	3.807	50.876	2	4	Fixation	Win	False
51.876	0.3	Win2	1.0	0.0	Yes	3.281	0.0	2.0	GoodResponse	1	3.807	n/a	2	4	ButtonPress	Win	False
52.068	0.36	Win2	1.0	0.001	Yes	3.281	-0.001	2.0	GoodResponse	1	0.26	51.328	2	4	Target	Win	False
52.328	0.3	Win2	1.0	0.001	Yes	3.281	-0.001	2.0	GoodResponse	1	0.26	n/a	2	4	ButtonPress	Win	False
52.435	0.34	Win2	1.0	n/a	Yes	3.281	n/a	n/a	GoodResponse	1	n/a	n/a	2	4	Blank	Win	False
52.768	1.45	Win2	1.0	n/a	Yes	3.281	n/a	5.0	GoodResponse	1	0.039	51.807	2	4	Feedback	Win	False
54.217	3.281	Win2	1.0	n/a	Yes	3.281	n/a	n/a	GoodResponse	1	0.0	n/a	2	4	ISIslide	Win	False
57.516	0.25	Win2	1.0	0.0	Yes	2.784	0.016	n/a	GoodResponse	1	n/a	n/a	3	5	Cue	Win	True
57.766	4.0	Win2	1.0	0.0	Yes	2.784	0.0	n/a	GoodResponse	1	n/a	n/a	3	5	Fixation	Win	True
61.765	0.35	Win2	1.0	0.001	Yes	2.784	-0.001	2.0	GoodResponse	1	0.208	60.973	3	5	Target	Win	True
61.973	0.3	Win2	1.0	0.001	Yes	2.784	-0.001	2.0	GoodResponse	1	0.208	n/a	3	5	ButtonPress	Win	True
62.115	0.35	Win2	1.0	n/a	Yes	2.784	n/a	n/a	GoodResponse	1	n/a	n/a	3	5	Blank	Win	True
62.464	1.45	Win2	1.0	n/a	Yes	2.784	n/a	5.0	GoodResponse	1	0.001	61.465	3	5	Feedback	Win	True
63.914	2.784	Win2	1.0	n/a	Yes	2.784	n/a	n/a	GoodResponse	1	0.0	n/a	3	5	ISIslide	Win	True
66.713	0.25	Lose2	1.0	0.0	Yes	2.737	0.013	n/a	GoodResponse	0	n/a	n/a	3	6	Cue	AvoidedLoss	True
66.963	3.95	Lose2	1.0	0.0	Yes	2.737	0.0	n/a	GoodResponse	0	n/a	n/a	3	6	Fixation	AvoidedLoss	True
70.911	0.34	Lose2	1.0	0.002	Yes	2.737	-0.002	2.0	GoodResponse	0	0.161	70.072	3	6	Target	AvoidedLoss	True
71.072	0.3	Lose2	1.0	0.002	Yes	2.737	-0.002	2.0	GoodResponse	0	0.161	n/a	3	6	ButtonPress	AvoidedLoss	True
71.261	0.36	Lose2	1.0	n/a	Yes	2.737	n/a	n/a	GoodResponse	0	n/a	n/a	3	6	Blank	AvoidedLoss	True
71.611	1.45	Lose2	1.0	n/a	Yes	2.737	n/a	5.0	GoodResponse	0	0.025	70.636	3	6	Feedback	AvoidedLoss	True
73.061	2.737	Lose2	1.0	n/a	Yes	2.737	n/a	n/a	GoodResponse	0	0.0	n/a	3	6	ISIslide	AvoidedLoss	True
75.826	0.25	Lose2	1.0	0.001	Yes	4.024	0.026	n/a	GoodResponse	0	n/a	n/a	3	7	Cue	AvoidedLoss	True
76.076	4.05	Lose2	1.0	0.001	Yes	4.024	0.0	n/a	GoodResponse	0	n/a	n/a	3	7	Fixation	AvoidedLoss	True
80.125	0.33	Lose2	1.0	0.001	Yes	4.024	-0.001	2.0	GoodResponse	0	0.187	79.312	3	7	Target	AvoidedLoss	True
80.312	0.3	Lose2	1.0	0.001	Yes	4.024	-0.001	2.0	GoodResponse	0	0.187	n/a	3	7	ButtonPress	AvoidedLoss	True
80.458	0.37	Lose2	1.0	n/a	Yes	4.024	n/a	n/a	GoodResponse	0	n/a	n/a	3	7	Blank	AvoidedLoss	True
80.825	1.45	Lose2	1.0	n/a	Yes	4.024	n/a	5.0	GoodResponse	0	0.031	79.856	3	7	Feedback	AvoidedLoss	True
82.274	4.024	Lose2	1.0	n/a	Yes	4.024	n/a	n/a	GoodResponse	0	0.0	n/a	3	7	ISIslide	AvoidedLoss	True
86.323	0.25	Lose2	1.0	0.0	Yes	3.027	0.023	n/a	GoodResponse	0	n/a	n/a	3	8	Cue	AvoidedLoss	True
86.573	3.95	Lose2	1.0	0.0	Yes	3.027	0.0	n/a	GoodResponse	0	n/a	n/a	3	8	Fixation	AvoidedLoss	True
90.521	0.32	Lose2	1.0	0.002	Yes	3.027	-0.002	2.0	GoodResponse	0	0.176	89.697	3	8	Target	AvoidedLoss	True
90.697	0.3	Lose2	1.0	0.002	Yes	3.027	-0.002	2.0	GoodResponse	0	0.176	n/a	3	8	ButtonPress	AvoidedLoss	True
90.855	0.38	Lose2	1.0	n/a	Yes	3.027	n/a	n/a	GoodResponse	0	n/a	n/a	3	8	Blank	AvoidedLoss	True
91.221	1.45	Lose2	1.0	n/a	Yes	3.027	n/a	5.0	GoodResponse	0	0.024	90.245	3	8	Feedback	AvoidedLoss	True
92.671	3.027	Lose2	1.0	n/a	Yes	3.027	n/a	n/a	GoodResponse	0	0.0	n/a	3	8	ISIslide	AvoidedLoss	True
95.72	0.25	Lose2	1.0	0.0	Yes	3.13	0.02	n/a	GoodResponse	0	n/a	n/a	3	9	Cue	AvoidedLoss	True
95.969	3.95	Lose2	1.0	0.001	Yes	3.13	-0.001	n/a	GoodResponse	0	n/a	n/a	3	9	Fixation	AvoidedLoss	True
99.918	0.31	Lose2	1.0	0.002	Yes	3.13	-0.002	2.0	GoodResponse	0	0.181	99.099	3	9	Target	AvoidedLoss	True
100.099	0.3	Lose2	1.0	0.002	Yes	3.13	-0.002	2.0	GoodResponse	0	0.181	n/a	3	9	ButtonPress	AvoidedLoss	True
100.235	0.39	Lose2	1.0	n/a	Yes	3.13	n/a	n/a	GoodResponse	0	n/a	n/a	3	9	Blank	AvoidedLoss	True
100.618	1.45	Lose2	1.0	n/a	Yes	3.13	n/a	5.0	GoodResponse	0	0.042	99.66	3	9	Feedback	AvoidedLoss	True
102.067	3.13	Lose2	1.0	n/a	Yes	3.13	n/a	n/a	GoodResponse	0	0.0	n/a	3	9	ISIslide	AvoidedLoss	True
105.216	0.25	Control	1.0	0.0	Yes	3.284	0.016	n/a	GoodResponse	0	n/a	n/a	3	10	Cue	Neutral	True
105.466	4.0	Control	1.0	0.0	Yes	3.284	0.0	n/a	GoodResponse	0	n/a	n/a	3	10	Fixation	Neutral	True
109.465	0.3	Control	1.0	0.001	Yes	3.284	-0.001	2.0	GoodResponse	0	0.196	108.661	3	10	Target	Neutral	True
109.661	0.3	Control	1.0	0.001	Yes	3.284	-0.001	2.0	GoodResponse	0	0.196	n/a	3	10	ButtonPress	Neutral	True
109.765	0.4	Control	1.0	n/a	Yes	3.284	n/a	n/a	GoodResponse	0	n/a	n/a	3	10	Blank	Neutral	True
110.165	1.45	Control	1.0	n/a	Yes	3.284	n/a	5.0	GoodResponse	0	0.007	109.172	3	10	Feedback	Neutral	True
111.614	3.284	Control	1.0	n/a	Yes	3.284	n/a	n/a	GoodResponse	0	0.0	n/a	3	10	ISIslide	Neutral	True
114.913	0.25	Lose2	1.0	0.0	Yes	2.737	0.013	n/a	GoodResponse	0	n/a	n/a	3	11	Cue	AvoidedLoss	False
115.163	4.05	Lose2	1.0	0.0	Yes	2.737	0.0	2.0	GoodResponse	0	3.703	117.866	3	11	Fixation	AvoidedLoss	False
118.866	0.3	Lose2	1.0	0.0	Yes	2.737	0.0	2.0	GoodResponse	0	3.703	n/a	3	11	ButtonPress	AvoidedLoss	False
119.211	0.29	Lose2	1.0	0.002	Yes	2.737	-0.002	2.0	GoodResponse	0	0.185	118.396	3	11	Target	AvoidedLoss	False
119.396	0.3	Lose2	1.0	0.002	Yes	2.737	-0.002	2.0	GoodResponse	0	0.185	n/a	3	11	ButtonPress	AvoidedLoss	False
119.511	0.41	Lose2	1.0	n/a	Yes	2.737	n/a	n/a	GoodResponse	0	n/a	n/a	3	11	Blank	AvoidedLoss	False
119.911	1.45	Lose2	1.0	n/a	Yes	2.737	n/a	5.0	GoodResponse	0	0.017	118.928	3	11	Feedback	AvoidedLoss	False
121.361	2.737	Lose2	1.0	n/a	Yes	2.737	n/a	n/a	GoodResponse	0	0.0	n/a	3	11	ISIslide	AvoidedLoss	False
124.126	0.25	Control	1.0	0.001	Yes	2.974	0.026	n/a	GoodResponse	0	n/a	n/a	3	12	Cue	Neutral	True
124.376	3.9	Control	1.0	0.0	Yes	2.974	0.0	n/a	GoodResponse	0	n/a	n/a	3	12	Fixation	Neutral	True
128.275	0.28	Control	1.0	0.001	Yes	2.974	-0.001	2.0	GoodResponse	0	0.243	127.518	3	12	Target	Neutral	True
128.518	0.3	Control	1.0	0.001	Yes	2.974	-0.001	2.0	GoodResponse	0	0.243	n/a	3	12	ButtonPress	Neutral	True
128.558	0.42	Control	1.0	n/a	Yes	2.974	n/a	n/a	GoodResponse	0	n/a	n/a	3	12	Blank	Neutral	True
128.975	1.45	Control	1.0	n/a	Yes	2.974	n/a	5.0	GoodResponse	0	0.027	128.002	3	12	Feedback	Neutral	True
130.424	2.974	Control	1.0	n/a	Yes	2.974	n/a	n/a	GoodResponse	0	0.0	n/a	3	12	ISIslide	Neutral	True
133.423	0.25	Control	1.0	0.0	Yes	2.777	0.023	n/a	GoodResponse	0	n/a	n/a	3	13	Cue	Neutral	True
133.673	4.0	Control	1.0	0.0	Yes	2.777	0.0	n/a	GoodResponse	0	n/a	n/a	3	13	Fixation	Neutral	True
137.672	0.27	Control	1.0	0.001	Yes	2.777	-0.001	2.0	GoodResponse	0	0.242	136.914	3	13	Target	Neutral	True
137.914	0.3	Control	1.0	0.001	Yes	2.777	-0.001	2.0	GoodResponse	0	0.242	n/a	3	13	ButtonPress	Neutral	True
137.955	0.43	Control	1.0	n/a	Yes	2.777	n/a	n/a	GoodResponse	0	n/a	n/a	3	13	Blank	Neutral	True
138.371	1.45	Control	1.0	n/a	Yes	2.777	n/a	5.0	GoodResponse	0	0.046	137.417	3	13	Feedback	Neutral	True
139.821	2.777	Control	1.0	n/a	Yes	2.777	n/a	n/a	GoodResponse	0	0.0	n/a	3	13	ISIslide	Neutral	True
142.62	0.25	Win2	1.0	0.0	Yes	2.68	0.02	n/a	GoodResponse	1	n/a	n/a	4	14	Cue	Win	True
142.87	4.1	Win2	1.0	0.0	Yes	2.68	0.0	n/a	GoodResponse	1	n/a	n/a	4	14	Fixation	Win	True
146.969	0.26	Win2	1.0	0.001	Yes	2.68	-0.001	2.0	GoodResponse	1	0.195	146.164	4	14	Target	Win	True
147.164	0.3	Win2	1.0	0.001	Yes	2.68	-0.001	2.0	GoodResponse	1	0.195	n/a	4	14	ButtonPress	Win	True
147.235	0.44	Win2	1.0	n/a	Yes	2.68	n/a	n/a	GoodResponse	1	n/a	n/a	4	14	Blank	Win	True
147.668	1.45	Win2	1.0	n/a	Yes	2.68	n/a	5.0	GoodResponse	1	0.016	146.684	4	14	Feedback	Win	True
149.118	2.68	Win2	1.0	n/a	Yes	2.68	n/a	n/a	GoodResponse	1	0.0	n/a	4	14	ISIslide	Win	True
151.817	0.25	Control	1.0	0.0	Yes	2.983	0.017	n/a	GoodResponse	0	n/a	n/a	4	15	Cue	Neutral	True
152.067	4.0	Control	1.0	0.0	Yes	2.983	0.0	n/a	GoodResponse	0	n/a	n/a	4	15	Fixation	Neutral	True
156.065	0.25	Control	1.0	0.002	Yes	2.983	-0.002	2.0	GoodResponse	0	0.206	155.271	4	15	Target	Neutral	True
156.271	0.3	Control	1.0	0.002	Yes	2.983	-0.002	2.0	GoodResponse	0	0.206	n/a	4	15	ButtonPress	Neutral	True
156.315	0.45	Control	1.0	n/a	Yes	2.983	n/a	n/a	GoodResponse	0	n/a	n/a	4	15	Blank	Neutral	True
156.765	1.45	Control	1.0	n/a	Yes	2.983	n/a	5.0	GoodResponse	0	0.041	155.806	4	15	Feedback	Neutral	True
158.215	2.983	Control	1.0	n/a	Yes	2.983	n/a	n/a	GoodResponse	0	0.0	n/a	4	15	ISIslide	Neutral	True
161.214	0.25	Win2	1.0	0.0	Yes	2.886	0.014	n/a	GoodResponse	1	n/a	n/a	5	16	Cue	Win	True
161.464	4.0	Win2	1.0	0.0	Yes	2.886	0.0	n/a	GoodResponse	1	n/a	n/a	5	16	Fixation	Win	True
165.462	0.24	Win2	1.0	0.002	Yes	2.886	-0.002	2.0	GoodResponse	1	0.22	164.682	5	16	Target	Win	True
165.682	0.3	Win2	1.0	0.002	Yes	2.886	-0.002	2.0	GoodResponse	1	0.22	n/a	5	16	ButtonPress	Win	True
165.712	0.46	Win2	1.0	n/a	Yes	2.886	n/a	n/a	GoodResponse	1	n/a	n/a	5	16	Blank	Win	True
166.162	1.45	Win2	1.0	n/a	Yes	2.886	n/a	5.0	GoodResponse	1	0.01	165.172	5	16	Feedback	Win	True
167.611	2.886	Win2	1.0	n/a	Yes	2.886	n/a	n/a	GoodResponse	1	0.0	n/a	5	16	ISIslide	Win	True
170.527	0.25	Lose2	1.0	0.0	Yes	2.723	0.027	n/a	GoodResponse	0	n/a	n/a	5	17	Cue	AvoidedLoss	True
170.777	3.95	Lose2	1.0	0.0	Yes	2.723	0.0	n/a	GoodResponse	0	n/a	n/a	5	17	Fixation	AvoidedLoss	True
174.726	0.23	Lose2	1.0	0.001	Yes	2.723	-0.001	2.0	GoodResponse	0	0.187	173.913	5	17	Target	AvoidedLoss	True
174.913	0.3	Lose2	1.0	0.001	Yes	2.723	-0.001	2.0	GoodResponse	0	0.187	n/a	5	17	ButtonPress	AvoidedLoss	True
174.959	0.47	Lose2	1.0	n/a	Yes	2.723	n/a	n/a	GoodResponse	0	n/a	n/a	5	17	Blank	AvoidedLoss	True
175.425	1.45	Lose2	1.0	n/a	Yes	2.723	n/a	5.0	GoodResponse	0	0.015	174.44	5	17	Feedback	AvoidedLoss	True
176.875	2.723	Lose2	1.0	n/a	Yes	2.723	n/a	n/a	GoodResponse	0	0.0	n/a	5	17	ISIslide	AvoidedLoss	True
179.624	0.25	Lose2	1.0	0.0	Yes	2.726	0.024	n/a	GoodResponse	0	n/a	n/a	5	18	Cue	AvoidedLoss	True
179.874	4.05	Lose2	1.0	0.0	Yes	2.726	0.0	n/a	GoodResponse	0	n/a	n/a	5	18	Fixation	AvoidedLoss	True
183.922	0.22	Lose2	1.0	0.002	Yes	2.726	-0.002	2.0	GoodResponse	0	0.18	183.102	5	18	Target	AvoidedLoss	True
184.102	0.3	Lose2	1.0	0.002	Yes	2.726	-0.002	2.0	GoodResponse	0	0.18	n/a	5	18	ButtonPress	AvoidedLoss	True
184.156	0.48	Lose2	1.0	n/a	Yes	2.726	n/a	n/a	GoodResponse	0	n/a	n/a	5	18	Blank	AvoidedLoss	True
184.622	1.45	Lose2	1.0	n/a	Yes	2.726	n/a	5.0	GoodResponse	0	0.038	183.66	5	18	Feedback	AvoidedLoss	True
186.072	2.726	Lose2	1.0	n/a	Yes	2.726	n/a	n/a	GoodResponse	0	0.0	n/a	5	18	ISIslide	AvoidedLoss	True
188.821	0.25	Control	0.95	0.0	No	2.929	0.021	n/a	NoResponse	0	n/a	n/a	5	19	Cue	Neutral	True
189.071	3.95	Control	0.95	0.0	No	2.929	0.0	n/a	NoResponse	0	n/a	n/a	5	19	Fixation	Neutral	True
193.019	0.21	Control	0.95	0.002	No	2.929	-0.002	2.0	NoResponse	0	0.26	192.279	5	19	Target	Neutral	True
193.236	0.49	Control	0.95	n/a	No	2.929	n/a	n/a	NoResponse	0	n/a	n/a	5	19	Blank	Neutral	True
193.279	0.3	Control	0.95	0.002	No	2.929	-0.002	2.0	NoResponse	0	0.26	n/a	5	19	ButtonPress	Neutral	True
193.719	1.45	Control	0.95	n/a	No	2.929	n/a	5.0	NoResponse	0	0.014	192.733	5	19	Feedback	Neutral	True
195.169	2.929	Control	0.95	n/a	No	2.929	n/a	n/a	NoResponse	0	0.0	n/a	5	19	ISIslide	Neutral	True
198.117	0.25	Control	0.9523999999999999	0.001	Yes	2.633	0.017	n/a	GoodResponse	0	n/a	n/a	5	20	Cue	Neutral	True
198.367	4.05	Control	0.9523999999999999	0.0	Yes	2.633	0.0	n/a	GoodResponse	0	n/a	n/a	5	20	Fixation	Neutral	True
202.416	0.2	Control	0.9523999999999999	0.001	Yes	2.633	-0.001	2.0	GoodResponse	0	0.186	201.602	5	20	Target	Neutral	True
202.602	0.3	Control	0.9523999999999999	0.001	Yes	2.633	-0.001	2.0	GoodResponse	0	0.186	n/a	5	20	ButtonPress	Neutral	True
202.616	0.5	Control	0.9523999999999999	n/a	Yes	2.633	n/a	n/a	GoodResponse	0	n/a	n/a	5	20	Blank	Neutral	True
203.116	1.45	Control	0.9523999999999999	n/a	Yes	2.633	n/a	5.0	GoodResponse	0	0.032	202.148	5	20	Feedback	Neutral	True
204.565	2.633	Control	0.9523999999999999	n/a	Yes	2.633	n/a	n/a	GoodResponse	0	0.0	n/a	5	20	ISIslide	Neutral	True
207.214	0.25	Control	0.9545	0.0	Yes	2.786	0.014	n/a	GoodResponse	0	n/a	n/a	5	21	Cue	Neutral	True
207.464	4.1	Control	0.9545	0.0	Yes	2.786	0.0	n/a	GoodResponse	0	n/a	n/a	5	21	Fixation	Neutral	True
211.563	0.19	Control	0.9545	0.001	Yes	2.786	-0.001	2.0	GoodResponse	0	0.185	210.748	5	21	Target	Neutral	True
211.748	0.3	Control	0.9545	0.001	Yes	2.786	-0.001	2.0	GoodResponse	0	0.185	n/a	5	21	ButtonPress	Neutral	True
211.763	0.51	Control	0.9545	n/a	Yes	2.786	n/a	n/a	GoodResponse	0	n/a	n/a	5	21	Blank	Neutral	True
212.263	1.45	Control	0.9545	n/a	Yes	2.786	n/a	5.0	GoodResponse	0	0.006	211.269	5	21	Feedback	Neutral	True
213.712	2.786	Control	0.9545	n/a	Yes	2.786	n/a	n/a	GoodResponse	0	0.0	n/a	5	21	ISIslide	Neutral	True
216.511	0.25	Control	0.9129999999999999	0.0	No	2.789	0.011	n/a	NoResponse	0	n/a	n/a	5	22	Cue	Neutral	True
216.761	4.0	Control	0.9129999999999999	0.0	No	2.789	0.0	n/a	NoResponse	0	n/a	n/a	5	22	Fixation	Neutral	True
220.76	0.18	Control	0.9129999999999999	0.001	No	2.789	-0.001	2.0	NoResponse	0	0.188	219.948	5	22	Target	Neutral	True
220.943	0.52	Control	0.9129999999999999	n/a	No	2.789	n/a	n/a	NoResponse	0	n/a	n/a	5	22	Blank	Neutral	True
220.948	0.3	Control	0.9129999999999999	0.001	No	2.789	-0.001	2.0	NoResponse	0	0.188	n/a	5	22	ButtonPress	Neutral	True
221.459	1.45	Control	0.9129999999999999	n/a	No	2.789	n/a	5.0	NoResponse	0	0.03	220.489	5	22	Feedback	Neutral	True
222.909	2.789	Control	0.9129999999999999	n/a	No	2.789	n/a	n/a	NoResponse	0	0.0	n/a	5	22	ISIslide	Neutral	True
225.725	0.25	Control	0.875	0.0	No	2.775	0.025	n/a	NoResponse	0	n/a	n/a	5	23	Cue	Neutral	True
225.975	3.9	Control	0.875	0.0	No	2.775	0.0	n/a	NoResponse	0	n/a	n/a	5	23	Fixation	Neutral	True
229.873	0.17	Control	0.875	0.002	No	2.775	-0.002	2.0	NoResponse	0	0.213	229.086	5	23	Target	Neutral	True
230.056	0.53	Control	0.875	n/a	No	2.775	n/a	n/a	NoResponse	0	n/a	n/a	5	23	Blank	Neutral	True
230.086	0.3	Control	0.875	0.002	No	2.775	-0.002	2.0	NoResponse	0	0.213	n/a	5	23	ButtonPress	Neutral	True
230.573	1.45	Control	0.875	n/a	No	2.775	n/a	5.0	NoResponse	0	0.038	229.611	5	23	Feedback	Neutral	True
232.022	2.775	Control	0.875	n/a	No	2.775	n/a	n/a	NoResponse	0	0.0	n/a	5	23	ISIslide	Neutral	True
234.821	0.25	Win2	0.84	0.001	No	3.129	0.021	n/a	LatePress	0	n/a	n/a	5	24	Cue	MissedWin	True
235.071	3.95	Win2	0.84	0.0	No	3.129	0.0	n/a	LatePress	0	n/a	n/a	5	24	Fixation	MissedWin	True
239.02	0.16	Win2	0.84	0.001	No	3.129	-0.001	2.0	LatePress	0	0.163	238.183	5	24	Target	MissedWin	True
239.183	0.3	Win2	0.84	0.001	No	3.129	-0.001	2.0	LatePress	0	0.163	n/a	5	24	ButtonPress	MissedWin	True
239.187	0.54	Win2	0.84	n/a	No	3.129	n/a	n/a	LatePress	0	n/a	n/a	5	24	Blank	MissedWin	True
239.72	1.45	Win2	0.84	n/a	No	3.129	n/a	5.0	LatePress	0	0.013	238.733	5	24	Feedback	MissedWin	True
241.169	3.129	Win2	0.84	n/a	No	3.129	n/a	n/a	LatePress	0	0.0	n/a	5	24	ISIslide	MissedWin	True
244.318	0.25	Win2	0.8077	0.0	No	3.082	0.018	n/a	NoResponse	0	n/a	n/a	5	25	Cue	MissedWin	True
244.568	4.0	Win2	0.8077	0.0	No	3.082	0.0	n/a	NoResponse	0	n/a	n/a	5	25	Fixation	MissedWin	True
248.567	0.15	Win2	0.8077	0.001	No	3.082	-0.001	2.0	NoResponse	0	0.16	247.727	5	25	Target	MissedWin	True
248.717	0.55	Win2	0.8077	n/a	No	3.082	n/a	n/a	NoResponse	0	n/a	n/a	5	25	Blank	MissedWin	True
248.727	0.3	Win2	0.8077	0.001	No	3.082	-0.001	2.0	NoResponse	0	0.16	n/a	5	25	ButtonPress	MissedWin	True
249.266	1.45	Win2	0.8077	n/a	No	3.082	n/a	5.0	NoResponse	0	0.028	248.294	5	25	Feedback	MissedWin	True
250.716	3.082	Win2	0.8077	n/a	No	3.082	n/a	n/a	NoResponse	0	0.0	n/a	5	25	ISIslide	MissedWin	True
253.815	0.25	Win2	0.7778	0.0	No	2.935	0.015	n/a	NoResponse	0	n/a	n/a	5	26	Cue	MissedWin	False
254.065	3.95	Win2	0.7778	0.0	No	2.935	0.0	2.0	NoResponse	0	0.022	253.087	5	26	Fixation	MissedWin	False
254.087	0.3	Win2	0.7778	0.0	No	2.935	0.0	2.0	NoResponse	0	0.022	n/a	5	26	ButtonPress	MissedWin	False
258.013	0.15	Win2	0.7778	0.002	No	2.935	-0.002	2.0	NoResponse	0	0.173	257.186	5	26	Target	MissedWin	False
258.163	0.55	Win2	0.7778	n/a	No	2.935	n/a	n/a	NoResponse	0	n/a	n/a	5	26	Blank	MissedWin	False
258.186	0.3	Win2	0.7778	0.002	No	2.935	-0.002	2.0	NoResponse	0	0.173	n/a	5	26	ButtonPress	MissedWin	False
258.713	1.45	Win2	0.7778	n/a	No	2.935	n/a	5.0	NoResponse	0	0.045	257.758	5	26	Feedback	MissedWin	False
260.163	2.935	Win2	0.7778	n/a	No	2.935	n/a	n/a	NoResponse	0	0.0	n/a	5	26	ISIslide	MissedWin	False
263.128	0.25	Lose2	0.75	0.0	No	2.822	0.028	n/a	NoResponse	-1	n/a	n/a	4	27	Cue	Loss	True
263.378	4.05	Lose2	0.75	0.0	No	2.822	0.0	n/a	NoResponse	-1	n/a	n/a	4	27	Fixation	Loss	True
267.427	0.15	Lose2	0.75	0.001	No	2.822	-0.001	2.0	NoResponse	-1	0.195	266.622	4	27	Target	Loss	True
267.577	0.55	Lose2	0.75	n/a	No	2.822	n/a	n/a	NoResponse	-1	n/a	n/a	4	27	Blank	Loss	True
267.622	0.3	Lose2	0.75	0.001	No	2.822	-0.001	2.0	NoResponse	-1	0.195	n/a	4	27	ButtonPress	Loss	True
268.127	1.45	Lose2	0.75	n/a	No	2.822	n/a	5.0	NoResponse	-1	0.044	267.171	4	27	Feedback	Loss	True
269.576	2.822	Lose2	0.75	n/a	No	2.822	n/a	n/a	NoResponse	-1	0.0	n/a	4	27	ISIslide	Loss	True
272.425	0.25	Control	0.7241	0.0	No	2.825	0.025	n/a	NoResponse	0	n/a	n/a	4	28	Cue	Neutral	True
272.675	4.05	Control	0.7241	0.0	No	2.825	0.0	n/a	NoResponse	0	n/a	n/a	4	28	Fixation	Neutral	True
276.724	0.15	Control	0.7241	0.001	No	2.825	-0.001	2.0	NoResponse	0	0.303	276.027	4	28	Target	Neutral	True
276.874	0.55	Control	0.7241	n/a	No	2.825	n/a	n/a	NoResponse	0	n/a	n/a	4	28	Blank	Neutral	True
277.027	0.3	Control	0.7241	0.001	No	2.825	-0.001	2.0	NoResponse	0	0.303	n/a	4	28	ButtonPress	Neutral	True
277.423	1.45	Control	0.7241	n/a	No	2.825	n/a	5.0	NoResponse	0	0.017	276.44	4	28	Feedback	Neutral	True
278.873	2.825	Control	0.7241	n/a	No	2.825	n/a	n/a	NoResponse	0	0.0	n/a	4	28	ISIslide	Neutral	True
281.722	0.25	Lose2	0.7	0.0	No	2.828	0.022	n/a	NoResponse	-1	n/a	n/a	3	29	Cue	Loss	True
281.972	3.95	Lose2	0.7	0.0	No	2.828	0.0	n/a	NoResponse	-1	n/a	n/a	3	29	Fixation	Loss	True
285.92	0.15	Lose2	0.7	0.002	No	2.828	-0.002	2.0	NoResponse	-1	0.168	285.088	3	29	Target	Loss	True
286.07	0.55	Lose2	0.7	n/a	No	2.828	n/a	n/a	NoResponse	-1	n/a	n/a	3	29	Blank	Loss	True
286.088	0.3	Lose2	0.7	0.002	No	2.828	-0.002	2.0	NoResponse	-1	0.168	n/a	3	29	ButtonPress	Loss	True
286.62	1.45	Lose2	0.7	n/a	No	2.828	n/a	5.0	NoResponse	-1	0.039	285.659	3	29	Feedback	Loss	True
288.07	2.828	Lose2	0.7	n/a	No	2.828	n/a	n/a	NoResponse	-1	0.0	n/a	3	29	ISIslide	Loss	True
290.919	0.25	Win2	0.6774	0.0	No	2.781	0.019	n/a	NoResponse	0	n/a	n/a	3	30	Cue	MissedWin	True
291.169	3.9	Win2	0.6774	0.0	No	2.781	0.0	n/a	NoResponse	0	n/a	n/a	3	30	Fixation	MissedWin	True
295.067	0.15	Win2	0.6774	0.002	No	2.781	-0.002	2.0	NoResponse	0	0.175	294.242	3	30	Target	MissedWin	True
295.217	0.55	Win2	0.6774	n/a	No	2.781	n/a	n/a	NoResponse	0	n/a	n/a	3	30	Blank	MissedWin	True
295.242	0.3	Win2	0.6774	0.002	No	2.781	-0.002	2.0	NoResponse	0	0.175	n/a	3	30	ButtonPress	MissedWin	True
295.767	1.45	Win2	0.6774	n/a	No	2.781	n/a	5.0	NoResponse	0	0.014	294.781	3	30	Feedback	MissedWin	True
297.217	2.781	Win2	0.6774	n/a	No	2.781	n/a	n/a	NoResponse	0	0.0	n/a	3	30	ISIslide	MissedWin	True
300.016	0.25	Lose2	0.6562	0.0	No	2.834	0.016	n/a	NoResponse	-1	n/a	n/a	2	31	Cue	Loss	True
300.266	4.05	Lose2	0.6562	0.0	No	2.834	0.0	n/a	NoResponse	-1	n/a	n/a	2	31	Fixation	Loss	True
304.314	0.15	Lose2	0.6562	0.002	No	2.834	-0.002	2.0	NoResponse	-1	0.193	303.507	2	31	Target	Loss	True
304.464	0.55	Lose2	0.6562	n/a	No	2.834	n/a	n/a	NoResponse	-1	n/a	n/a	2	31	Blank	Loss	True
304.507	0.3	Lose2	0.6562	0.002	No	2.834	-0.002	2.0	NoResponse	-1	0.193	n/a	2	31	ButtonPress	Loss	True
305.014	1.45	Lose2	0.6562	n/a	No	2.834	n/a	5.0	NoResponse	-1	0.036	304.05	2	31	Feedback	Loss	True
306.463	2.834	Lose2	0.6562	n/a	No	2.834	n/a	n/a	NoResponse	-1	0.0	n/a	2	31	ISIslide	Loss	True
309.312	0.25	Lose2	0.6364	0.0	No	2.638	0.012	n/a	NoResponse	-1	n/a	n/a	1	32	Cue	Loss	True
309.562	4.15	Lose2	0.6364	0.0	No	2.638	0.0	n/a	NoResponse	-1	n/a	n/a	1	32	Fixation	Loss	True
313.711	0.15	Lose2	0.6364	0.001	No	2.638	-0.001	2.0	NoResponse	-1	0.207	312.918	1	32	Target	Loss	True
313.861	0.55	Lose2	0.6364	n/a	No	2.638	n/a	n/a	NoResponse	-1	n/a	n/a	1	32	Blank	Loss	True
313.918	0.3	Lose2	0.6364	0.001	No	2.638	-0.001	2.0	NoResponse	-1	0.207	n/a	1	32	ButtonPress	Loss	True
314.411	1.45	Lose2	0.6364	n/a	No	2.638	n/a	5.0	NoResponse	-1	0.005	313.416	1	32	Feedback	Loss	True
315.86	2.638	Lose2	0.6364	n/a	No	2.638	n/a	n/a	NoResponse	-1	0.0	n/a	1	32	ISIslide	Loss	True
318.526	0.25	Win2	0.6175999999999999	0.0	No	2.674	0.026	n/a	NoResponse	0	n/a	n/a	1	33	Cue	MissedWin	True
318.776	4.0	Win2	0.6175999999999999	0.0	No	2.674	0.0	n/a	NoResponse	0	n/a	n/a	1	33	Fixation	MissedWin	True
322.774	0.16	Win2	0.6175999999999999	0.002	No	2.674	-0.002	2.0	NoResponse	0	0.188	321.962	1	33	Target	MissedWin	True
322.941	0.54	Win2	0.6175999999999999	n/a	No	2.674	n/a	n/a	NoResponse	0	n/a	n/a	1	33	Blank	MissedWin	True
322.962	0.3	Win2	0.6175999999999999	0.002	No	2.674	-0.002	2.0	NoResponse	0	0.188	n/a	1	33	ButtonPress	MissedWin	True
323.474	1.45	Win2	0.6175999999999999	n/a	No	2.674	n/a	5.0	NoResponse	0	0.015	322.489	1	33	Feedback	MissedWin	True
324.924	2.674	Win2	0.6175999999999999	n/a	No	2.674	n/a	n/a	NoResponse	0	0.0	n/a	1	33	ISIslide	MissedWin	True
327.623	0.25	Lose2	0.6	0.0	No	2.627	0.023	n/a	LatePress	-1	n/a	n/a	0	34	Cue	Loss	True
327.873	4.05	Lose2	0.6	0.0	No	2.627	0.0	n/a	LatePress	-1	n/a	n/a	0	34	Fixation	Loss	True
331.921	0.17	Lose2	0.6	0.002	No	2.627	-0.002	2.0	LatePress	-1	0.181	331.102	0	34	Target	Loss	True
332.102	0.3	Lose2	0.6	0.002	No	2.627	-0.002	2.0	LatePress	-1	0.181	n/a	0	34	ButtonPress	Loss	True
332.104	0.53	Lose2	0.6	n/a	No	2.627	n/a	n/a	LatePress	-1	n/a	n/a	0	34	Blank	Loss	True
332.621	1.45	Lose2	0.6	n/a	No	2.627	n/a	5.0	LatePress	-1	0.038	331.659	0	34	Feedback	Loss	True
334.07	2.627	Lose2	0.6	n/a	No	2.627	n/a	n/a	LatePress	-1	0.0	n/a	0	34	ISIslide	Loss	True
336.72	0.25	Lose2	0.6111	0.0	Yes	2.68	0.02	n/a	GoodResponse	0	n/a	n/a	0	35	Cue	AvoidedLoss	False
336.969	4.0	Lose2	0.6111	0.001	Yes	2.68	-0.001	2.0	GoodResponse	0	3.43	339.399	0	35	Fixation	AvoidedLoss	False
340.399	0.3	Lose2	0.6111	0.001	Yes	2.68	-0.001	2.0	GoodResponse	0	3.43	n/a	0	35	ButtonPress	AvoidedLoss	False
340.968	0.18	Lose2	0.6111	0.002	Yes	2.68	-0.002	2.0	GoodResponse	0	0.176	340.144	0	35	Target	AvoidedLoss	False
341.144	0.3	Lose2	0.6111	0.002	Yes	2.68	-0.002	2.0	GoodResponse	0	0.176	n/a	0	35	ButtonPress	AvoidedLoss	False
341.151	0.52	Lose2	0.6111	n/a	Yes	2.68	n/a	n/a	GoodResponse	0	n/a	n/a	0	35	Blank	AvoidedLoss	False
341.668	1.45	Lose2	0.6111	n/a	Yes	2.68	n/a	5.0	GoodResponse	0	0.015	340.683	0	35	Feedback	AvoidedLoss	False
343.117	2.68	Lose2	0.6111	n/a	Yes	2.68	n/a	n/a	GoodResponse	0	0.0	n/a	0	35	ISIslide	AvoidedLoss	False
345.816	0.25	Control	0.5946	0.001	No	2.684	0.016	n/a	NoResponse	0	n/a	n/a	0	36	Cue	Neutral	True
346.066	4.0	Control	0.5946	0.0	No	2.684	0.0	n/a	NoResponse	0	n/a	n/a	0	36	Fixation	Neutral	True
350.065	0.19	Control	0.5946	0.001	No	2.684	-0.001	2.0	NoResponse	0	0.221	349.286	0	36	Target	Neutral	True
350.265	0.51	Control	0.5946	n/a	No	2.684	n/a	n/a	NoResponse	0	n/a	n/a	0	36	Blank	Neutral	True
350.286	0.3	Control	0.5946	0.001	No	2.684	-0.001	2.0	NoResponse	0	0.221	n/a	0	36	ButtonPress	Neutral	True
350.765	1.45	Control	0.5946	n/a	No	2.684	n/a	5.0	NoResponse	0	0.04	349.805	0	36	Feedback	Neutral	True
352.214	2.684	Control	0.5946	n/a	No	2.684	n/a	n/a	NoResponse	0	0.0	n/a	0	36	ISIslide	Neutral	True
354.913	0.25	Win2	0.5789	0.0	No	2.887	0.013	n/a	NoResponse	0	n/a	n/a	0	37	Cue	MissedWin	False
355.163	4.0	Win2	0.5789	0.0	No	2.887	0.0	2.0	NoResponse	0	1.618	355.781	0	37	Fixation	MissedWin	False
356.781	0.3	Win2	0.5789	0.0	No	2.887	0.0	2.0	NoResponse	0	1.618	n/a	0	37	ButtonPress	MissedWin	False
359.162	0.2	Win2	0.5789	0.001	No	2.887	-0.001	2.0	NoResponse	0	0.218	358.38	0	37	Target	MissedWin	False
359.362	0.5	Win2	0.5789	n/a	No	2.887	n/a	n/a	NoResponse	0	n/a	n/a	0	37	Blank	MissedWin	False
359.38	0.3	Win2	0.5789	0.001	No	2.887	-0.001	2.0	NoResponse	0	0.218	n/a	0	37	ButtonPress	MissedWin	False
359.862	1.45	Win2	0.5789	n/a	No	2.887	n/a	5.0	NoResponse	0	0.017	358.879	0	37	Feedback	MissedWin	False
361.311	2.887	Win2	0.5789	n/a	No	2.887	n/a	n/a	NoResponse	0	0.0	n/a	0	37	ISIslide	MissedWin	False
364.227	0.25	Lose2	0.5897	0.0	Yes	2.823	0.027	n/a	GoodResponse	0	n/a	n/a	0	38	Cue	AvoidedLoss	True
364.477	3.95	Lose2	0.5897	0.0	Yes	2.823	0.0	n/a	GoodResponse	0	n/a	n/a	0	38	Fixation	AvoidedLoss	True
368.425	0.21	Lose2	0.5897	0.002	Yes	2.823	-0.002	2.0	GoodResponse	0	0.15	367.575	0	38	Target	AvoidedLoss	True
368.575	0.3	Lose2	0.5897	0.002	Yes	2.823	-0.002	2.0	GoodResponse	0	0.15	n/a	0	38	ButtonPress	AvoidedLoss	True
368.642	0.49	Lose2	0.5897	n/a	Yes	2.823	n/a	n/a	GoodResponse	0	n/a	n/a	0	38	Blank	AvoidedLoss	True
369.125	1.45	Lose2	0.5897	n/a	Yes	2.823	n/a	5.0	GoodResponse	0	0.022	368.147	0	38	Feedback	AvoidedLoss	True
370.575	2.823	Lose2	0.5897	n/a	Yes	2.823	n/a	n/a	GoodResponse	0	0.0	n/a	0	38	ISIslide	AvoidedLoss	True
373.424	0.25	Win2	0.6	0.0	Yes	2.976	0.024	n/a	GoodResponse	1	n/a	n/a	1	39	Cue	Win	True
373.673	4.1	Win2	0.6	0.001	Yes	2.976	-0.001	n/a	GoodResponse	1	n/a	n/a	1	39	Fixation	Win	True
377.772	0.22	Win2	0.6	0.002	Yes	2.976	-0.002	2.0	GoodResponse	1	0.194	376.966	1	39	Target	Win	True
377.966	0.3	Win2	0.6	0.002	Yes	2.976	-0.002	2.0	GoodResponse	1	0.194	n/a	1	39	ButtonPress	Win	True
378.005	0.48	Win2	0.6	n/a	Yes	2.976	n/a	n/a	GoodResponse	1	n/a	n/a	1	39	Blank	Win	True
378.472	1.45	Win2	0.6	n/a	Yes	2.976	n/a	5.0	GoodResponse	1	0.041	377.513	1	39	Feedback	Win	True
379.921	2.976	Win2	0.6	n/a	Yes	2.976	n/a	n/a	GoodResponse	1	0.0	n/a	1	39	ISIslide	Win	True
382.92	0.25	Win2	0.6098	0.0	Yes	2.73	0.02	n/a	GoodResponse	1	n/a	n/a	2	40	Cue	Win	False
383.17	3.95	Win2	0.6098	0.0	Yes	2.73	0.0	2.0	GoodResponse	1	3.859	386.029	2	40	Fixation	Win	False
387.029	0.3	Win2	0.6098	0.0	Yes	2.73	0.0	2.0	GoodResponse	1	3.859	n/a	2	40	ButtonPress	Win	False
387.119	0.23	Win2	0.6098	0.001	Yes	2.73	-0.001	2.0	GoodResponse	1	0.201	386.32	2	40	Target	Win	False
387.32	0.3	Win2	0.6098	0.001	Yes	2.73	-0.001	2.0	GoodResponse	1	0.201	n/a	2	40	ButtonPress	Win	False
387.352	0.47	Win2	0.6098	n/a	Yes	2.73	n/a	n/a	GoodResponse	1	n/a	n/a	2	40	Blank	Win	False
387.819	1.45	Win2	0.6098	n/a	Yes	2.73	n/a	5.0	GoodResponse	1	0.01	386.829	2	40	Feedback	Win	False
389.268	2.73	Win2	0.6098	n/a	Yes	2.73	n/a	n/a	GoodResponse	1	0.0	n/a	2	40	ISIslide	Win	False
392.017	0.25	Win2	0.619	0.0	Yes	2.783	0.017	n/a	GoodResponse	1	n/a	n/a	3	41	Cue	Win	False
392.267	3.9	Win2	0.619	0.0	Yes	2.783	0.0	2.0	GoodResponse	1	3.501	394.768	3	41	Fixation	Win	False
395.768	0.3	Win2	0.619	0.0	Yes	2.783	0.0	2.0	GoodResponse	1	3.501	n/a	3	41	ButtonPress	Win	False
396.166	0.24	Win2	0.619	0.001	Yes	2.783	-0.001	2.0	GoodResponse	1	0.159	395.325	3	41	Target	Win	False
396.325	0.3	Win2	0.619	0.001	Yes	2.783	-0.001	2.0	GoodResponse	1	0.159	n/a	3	41	ButtonPress	Win	False
396.416	0.46	Win2	0.619	n/a	Yes	2.783	n/a	n/a	GoodResponse	1	n/a	n/a	3	41	Blank	Win	False
396.865	1.45	Win2	0.619	n/a	Yes	2.783	n/a	5.0	GoodResponse	1	0.038	395.903	3	41	Feedback	Win	False
398.315	2.783	Win2	0.619	n/a	Yes	2.783	n/a	n/a	GoodResponse	1	0.0	n/a	3	41	ISIslide	Win	False
401.114	0.25	Control	0.6279	0.0	Yes	2.936	0.014	n/a	GoodResponse	0	n/a	n/a	3	42	Cue	Neutral	True
401.364	3.85	Control	0.6279	0.0	Yes	2.936	0.0	n/a	GoodResponse	0	n/a	n/a	3	42	Fixation	Neutral	True
405.213	0.25	Control	0.6279	0.001	Yes	2.936	-0.001	2.0	GoodResponse	0	0.207	404.42	3	42	Target	Neutral	True
405.42	0.3	Control	0.6279	0.001	Yes	2.936	-0.001	2.0	GoodResponse	0	0.207	n/a	3	42	ButtonPress	Neutral	True
405.462	0.45	Control	0.6279	n/a	Yes	2.936	n/a	n/a	GoodResponse	0	n/a	n/a	3	42	Blank	Neutral	True
405.912	1.45	Control	0.6279	n/a	Yes	2.936	n/a	5.0	GoodResponse	0	0.015	404.927	3	42	Feedback	Neutral	True
407.362	2.936	Control	0.6279	n/a	Yes	2.936	n/a	n/a	GoodResponse	0	0.0	n/a	3	42	ISIslide	Neutral	True
410.327	0.25	Win2	0.6364	0.001	Yes	3.173	0.027	n/a	GoodResponse	1	n/a	n/a	4	43	Cue	Win	True
410.577	4.0	Win2	0.6364	0.0	Yes	3.173	0.0	n/a	GoodResponse	1	n/a	n/a	4	43	Fixation	Win	True
414.576	0.26	Win2	0.6364	0.001	Yes	3.173	-0.001	2.0	GoodResponse	1	0.179	413.755	4	43	Target	Win	True
414.755	0.3	Win2	0.6364	0.001	Yes	3.173	-0.001	2.0	GoodResponse	1	0.179	n/a	4	43	ButtonPress	Win	True
414.843	0.44	Win2	0.6364	n/a	Yes	3.173	n/a	n/a	GoodResponse	1	n/a	n/a	4	43	Blank	Win	True
415.276	1.45	Win2	0.6364	n/a	Yes	3.173	n/a	5.0	GoodResponse	1	0.017	414.293	4	43	Feedback	Win	True
416.725	3.173	Win2	0.6364	n/a	Yes	3.173	n/a	n/a	GoodResponse	1	0.0	n/a	4	43	ISIslide	Win	True
419.924	0.25	Win2	0.6444	0.0	Yes	2.976	0.024	n/a	GoodResponse	1	n/a	n/a	5	44	Cue	Win	True
420.174	4.0	Win2	0.6444	0.0	Yes	2.976	0.0	n/a	GoodResponse	1	n/a	n/a	5	44	Fixation	Win	True
424.173	0.27	Win2	0.6444	0.001	Yes	2.976	-0.001	2.0	GoodResponse	1	0.179	423.352	5	44	Target	Win	True
424.352	0.3	Win2	0.6444	0.001	Yes	2.976	-0.001	2.0	GoodResponse	1	0.179	n/a	5	44	ButtonPress	Win	True
424.456	0.43	Win2	0.6444	n/a	Yes	2.976	n/a	n/a	GoodResponse	1	n/a	n/a	5	44	Blank	Win	True
424.872	1.45	Win2	0.6444	n/a	Yes	2.976	n/a	5.0	GoodResponse	1	0.031	423.903	5	44	Feedback	Win	True
426.322	2.976	Win2	0.6444	n/a	Yes	2.976	n/a	n/a	GoodResponse	1	0.0	n/a	5	44	ISIslide	Win	True
429.321	0.25	Control	0.6522	0.0	Yes	2.879	0.021	n/a	GoodResponse	0	n/a	n/a	5	45	Cue	Neutral	True
429.571	4.1	Control	0.6522	0.0	Yes	2.879	0.0	n/a	GoodResponse	0	n/a	n/a	5	45	Fixation	Neutral	True
433.669	0.28	Control	0.6522	0.002	Yes	2.879	-0.002	2.0	GoodResponse	0	0.172	432.841	5	45	Target	Neutral	True
433.841	0.3	Control	0.6522	0.002	Yes	2.879	-0.002	2.0	GoodResponse	0	0.172	n/a	5	45	ButtonPress	Neutral	True
433.953	0.42	Control	0.6522	n/a	Yes	2.879	n/a	n/a	GoodResponse	0	n/a	n/a	5	45	Blank	Neutral	True
434.369	1.45	Control	0.6522	n/a	Yes	2.879	n/a	5.0	GoodResponse	0	0.046	433.415	5	45	Feedback	Neutral	True
435.819	2.879	Control	0.6522	n/a	Yes	2.879	n/a	n/a	GoodResponse	0	0.0	n/a	5	45	ISIslide	Neutral	True
438.718	0.25	Lose2	0.6596	0.0	Yes	3.382	0.018	n/a	GoodResponse	0	n/a	n/a	5	46	Cue	AvoidedLoss	False
438.968	4.0	Lose2	0.6596	0.0	Yes	3.382	0.0	2.0	GoodResponse	0	0.004	437.972	5	46	Fixation	AvoidedLoss	False
438.972	0.3	Lose2	0.6596	0.0	Yes	3.382	0.0	2.0	GoodResponse	0	0.004	n/a	5	46	ButtonPress	AvoidedLoss	False
442.966	0.29	Lose2	0.6596	0.002	Yes	3.382	-0.002	2.0	GoodResponse	0	0.181	442.147	5	46	Target	AvoidedLoss	False
443.147	0.3	Lose2	0.6596	0.002	Yes	3.382	-0.002	2.0	GoodResponse	0	0.181	n/a	5	46	ButtonPress	AvoidedLoss	False
443.266	0.41	Lose2	0.6596	n/a	Yes	3.382	n/a	n/a	GoodResponse	0	n/a	n/a	5	46	Blank	AvoidedLoss	False
443.666	1.45	Lose2	0.6596	n/a	Yes	3.382	n/a	5.0	GoodResponse	0	0.018	442.684	5	46	Feedback	AvoidedLoss	False
445.115	3.382	Lose2	0.6596	n/a	Yes	3.382	n/a	n/a	GoodResponse	0	0.0	n/a	5	46	ISIslide	AvoidedLoss	False
448.514	0.25	Lose2	0.6667000000000001	0.0	Yes	2.686	0.014	n/a	GoodResponse	0	n/a	n/a	5	47	Cue	AvoidedLoss	True
448.764	4.0	Lose2	0.6667000000000001	0.0	Yes	2.686	0.0	n/a	GoodResponse	0	n/a	n/a	5	47	Fixation	AvoidedLoss	True
452.763	0.29	Lose2	0.6667000000000001	0.001	Yes	2.686	-0.001	2.0	GoodResponse	0	0.183	451.946	5	47	Target	AvoidedLoss	True
452.946	0.3	Lose2	0.6667000000000001	0.001	Yes	2.686	-0.001	2.0	GoodResponse	0	0.183	n/a	5	47	ButtonPress	AvoidedLoss	True
453.063	0.41	Lose2	0.6667000000000001	n/a	Yes	2.686	n/a	n/a	GoodResponse	0	n/a	n/a	5	47	Blank	AvoidedLoss	True
453.463	1.45	Lose2	0.6667000000000001	n/a	Yes	2.686	n/a	5.0	GoodResponse	0	0.025	452.488	5	47	Feedback	AvoidedLoss	True
454.912	2.686	Lose2	0.6667000000000001	n/a	Yes	2.686	n/a	n/a	GoodResponse	0	0.0	n/a	5	47	ISIslide	AvoidedLoss	True
457.611	0.25	Lose2	0.6735	0.0	Yes	3.039	0.011	n/a	GoodResponse	0	n/a	n/a	5	48	Cue	AvoidedLoss	True
457.861	3.95	Lose2	0.6735	0.0	Yes	3.039	0.0	n/a	GoodResponse	0	n/a	n/a	5	48	Fixation	AvoidedLoss	True
461.81	0.28	Lose2	0.6735	0.001	Yes	3.039	-0.001	2.0	GoodResponse	0	0.17	460.98	5	48	Target	AvoidedLoss	True
461.98	0.3	Lose2	0.6735	0.001	Yes	3.039	-0.001	2.0	GoodResponse	0	0.17	n/a	5	48	ButtonPress	AvoidedLoss	True
462.093	0.42	Lose2	0.6735	n/a	Yes	3.039	n/a	n/a	GoodResponse	0	n/a	n/a	5	48	Blank	AvoidedLoss	True
462.509	1.45	Lose2	0.6735	n/a	Yes	3.039	n/a	5.0	GoodResponse	0	0.004	461.513	5	48	Feedback	AvoidedLoss	True
463.959	3.039	Lose2	0.6735	n/a	Yes	3.039	n/a	n/a	GoodResponse	0	0.0	n/a	5	48	ISIslide	AvoidedLoss	True
467.025	0.25	Control	0.68	0.0	Yes	2.875	0.025	n/a	GoodResponse	0	n/a	n/a	5	49	Cue	Neutral	True
467.274	4.0	Control	0.68	0.001	Yes	2.875	-0.001	n/a	GoodResponse	0	n/a	n/a	5	49	Fixation	Neutral	True
471.273	0.27	Control	0.68	0.002	Yes	2.875	-0.002	2.0	GoodResponse	0	0.218	470.491	5	49	Target	Neutral	True
471.491	0.3	Control	0.68	0.002	Yes	2.875	-0.002	2.0	GoodResponse	0	0.218	n/a	5	49	ButtonPress	Neutral	True
471.556	0.43	Control	0.68	n/a	Yes	2.875	n/a	n/a	GoodResponse	0	n/a	n/a	5	49	Blank	Neutral	True
471.973	1.45	Control	0.68	n/a	Yes	2.875	n/a	5.0	GoodResponse	0	0.004	470.977	5	49	Feedback	Neutral	True
473.422	2.875	Control	0.68	n/a	Yes	2.875	n/a	n/a	GoodResponse	0	0.0	n/a	5	49	ISIslide	Neutral	True
476.321	0.25	Control	0.6862999999999999	0.0	Yes	2.779	0.021	n/a	GoodResponse	0	n/a	n/a	5	50	Cue	Neutral	False
476.571	4.0	Control	0.6862999999999999	0.0	Yes	2.779	0.0	2.0	GoodResponse	0	3.185	478.756	5	50	Fixation	Neutral	False
479.756	0.3	Control	0.6862999999999999	0.0	Yes	2.779	0.0	2.0	GoodResponse	0	3.185	n/a	5	50	ButtonPress	Neutral	False
480.57	0.26	Control	0.6862999999999999	0.001	Yes	2.779	-0.001	2.0	GoodResponse	0	0.107	479.677	5	50	Target	Neutral	False
480.677	0.3	Control	0.6862999999999999	0.001	Yes	2.779	-0.001	2.0	GoodResponse	0	0.107	n/a	5	50	ButtonPress	Neutral	False
480.836	0.44	Control	0.6862999999999999	n/a	Yes	2.779	n/a	n/a	GoodResponse	0	n/a	n/a	5	50	Blank	Neutral	False
481.27	1.45	Control	0.6862999999999999	n/a	Yes	2.779	n/a	5.0	GoodResponse	0	0.023	480.293	5	50	Feedback	Neutral	False
482.719	2.779	Control	0.6862999999999999	n/a	Yes	2.779	n/a	n/a	GoodResponse	0	0.0	n/a	5	50	ISIslide	Neutral	False
485.518	0.25	Control	0.6923	0.0	Yes	2.732	0.018	n/a	GoodResponse	0	n/a	n/a	5	51	Cue	Neutral	True
485.768	3.95	Control	0.6923	0.0	Yes	2.732	0.0	n/a	GoodResponse	0	n/a	n/a	5	51	Fixation	Neutral	True
489.717	0.25	Control	0.6923	0.001	Yes	2.732	-0.001	2.0	GoodResponse	0	0.18	488.897	5	51	Target	Neutral	True
489.897	0.3	Control	0.6923	0.001	Yes	2.732	-0.001	2.0	GoodResponse	0	0.18	n/a	5	51	ButtonPress	Neutral	True
489.967	0.45	Control	0.6923	n/a	Yes	2.732	n/a	n/a	GoodResponse	0	n/a	n/a	5	51	Blank	Neutral	True
490.416	1.45	Control	0.6923	n/a	Yes	2.732	n/a	5.0	GoodResponse	0	0.048	489.464	5	51	Feedback	Neutral	True
491.866	2.732	Control	0.6923	n/a	Yes	2.732	n/a	n/a	GoodResponse	0	0.0	n/a	5	51	ISIslide	Neutral	True
494.615	0.25	Control	0.6792	0.0	No	2.635	0.015	n/a	NoResponse	0	n/a	n/a	5	52	Cue	Neutral	True
494.865	4.05	Control	0.6792	0.0	No	2.635	0.0	n/a	NoResponse	0	n/a	n/a	5	52	Fixation	Neutral	True
498.913	0.24	Control	0.6792	0.002	No	2.635	-0.002	2.0	NoResponse	0	0.256	498.169	5	52	Target	Neutral	True
499.163	0.46	Control	0.6792	n/a	No	2.635	n/a	n/a	NoResponse	0	n/a	n/a	5	52	Blank	Neutral	True
499.169	0.3	Control	0.6792	0.002	No	2.635	-0.002	2.0	NoResponse	0	0.256	n/a	5	52	ButtonPress	Neutral	True
499.613	1.45	Control	0.6792	n/a	No	2.635	n/a	5.0	NoResponse	0	0.022	498.635	5	52	Feedback	Neutral	True
501.063	2.635	Control	0.6792	n/a	No	2.635	n/a	n/a	NoResponse	0	0.0	n/a	5	52	ISIslide	Neutral	True
503.712	0.25	Win2	0.6851999999999999	0.0	Yes	2.938	0.012	n/a	GoodResponse	1	n/a	n/a	6	53	Cue	Win	True
503.962	4.05	Win2	0.6851999999999999	0.0	Yes	2.938	0.0	n/a	GoodResponse	1	n/a	n/a	6	53	Fixation	Win	True
508.01	0.23	Win2	0.6851999999999999	0.002	Yes	2.938	-0.002	2.0	GoodResponse	1	0.158	507.168	6	53	Target	Win	True
508.168	0.3	Win2	0.6851999999999999	0.002	Yes	2.938	-0.002	2.0	GoodResponse	1	0.158	n/a	6	53	ButtonPress	Win	True
508.244	0.47	Win2	0.6851999999999999	n/a	Yes	2.938	n/a	n/a	GoodResponse	1	n/a	n/a	6	53	Blank	Win	True
508.71	1.45	Win2	0.6851999999999999	n/a	Yes	2.938	n/a	5.0	GoodResponse	1	0.046	507.756	6	53	Feedback	Win	True
510.16	2.938	Win2	0.6851999999999999	n/a	Yes	2.938	n/a	n/a	GoodResponse	1	0.0	n/a	6	53	ISIslide	Win	True
513.125	0.25	Win2	0.6909000000000001	0.0	Yes	2.725	0.025	n/a	GoodResponse	1	n/a	n/a	7	54	Cue	Win	False
513.375	3.95	Win2	0.6909000000000001	0.0	Yes	2.725	0.0	2.0	GoodResponse	1	3.681	516.056	7	54	Fixation	Win	False
517.056	0.3	Win2	0.6909000000000001	0.0	Yes	2.725	0.0	2.0	GoodResponse	1	3.681	n/a	7	54	ButtonPress	Win	False
517.324	0.22	Win2	0.6909000000000001	0.001	Yes	2.725	-0.001	2.0	GoodResponse	1	0.175	516.499	7	54	Target	Win	False
517.499	0.3	Win2	0.6909000000000001	0.001	Yes	2.725	-0.001	2.0	GoodResponse	1	0.175	n/a	7	54	ButtonPress	Win	False
517.54	0.48	Win2	0.6909000000000001	n/a	Yes	2.725	n/a	n/a	GoodResponse	1	n/a	n/a	7	54	Blank	Win	False
518.024	1.45	Win2	0.6909000000000001	n/a	Yes	2.725	n/a	5.0	GoodResponse	1	0.0	517.024	7	54	Feedback	Win	False
519.473	2.725	Win2	0.6909000000000001	n/a	Yes	2.725	n/a	n/a	GoodResponse	1	0.0	n/a	7	54	ISIslide	Win	False
522.222	0.25	Control	0.6786	0.0	No	3.028	0.022	n/a	NoResponse	0	n/a	n/a	7	55	Cue	Neutral	True
522.472	3.95	Control	0.6786	0.0	No	3.028	0.0	n/a	NoResponse	0	n/a	n/a	7	55	Fixation	Neutral	True
526.421	0.21	Control	0.6786	0.001	No	3.028	-0.001	2.0	NoResponse	0	0.222	525.643	7	55	Target	Neutral	True
526.637	0.49	Control	0.6786	n/a	No	3.028	n/a	n/a	NoResponse	0	n/a	n/a	7	55	Blank	Neutral	True
526.643	0.3	Control	0.6786	0.001	No	3.028	-0.001	2.0	NoResponse	0	0.222	n/a	7	55	ButtonPress	Neutral	True
527.12	1.45	Control	0.6786	n/a	No	3.028	n/a	5.0	NoResponse	0	0.026	526.146	7	55	Feedback	Neutral	True
528.57	3.028	Control	0.6786	n/a	No	3.028	n/a	n/a	NoResponse	0	0.0	n/a	7	55	ISIslide	Neutral	True
531.619	0.25	Control	0.6667000000000001	0.0	No	2.831	0.019	n/a	NoResponse	0	n/a	n/a	7	56	Cue	Neutral	True
531.869	3.95	Control	0.6667000000000001	0.0	No	2.831	0.0	n/a	NoResponse	0	n/a	n/a	7	56	Fixation	Neutral	True
535.817	0.2	Control	0.6667000000000001	0.002	No	2.831	-0.002	2.0	NoResponse	0	0.202	535.019	7	56	Target	Neutral	True
536.017	0.5	Control	0.6667000000000001	n/a	No	2.831	n/a	n/a	NoResponse	0	n/a	n/a	7	56	Blank	Neutral	True
536.019	0.3	Control	0.6667000000000001	0.002	No	2.831	-0.002	2.0	NoResponse	0	0.202	n/a	7	56	ButtonPress	Neutral	True
536.517	1.45	Control	0.6667000000000001	n/a	No	2.831	n/a	5.0	NoResponse	0	0.044	535.561	7	56	Feedback	Neutral	True
537.967	2.831	Control	0.6667000000000001	n/a	No	2.831	n/a	n/a	NoResponse	0	0.0	n/a	7	56	ISIslide	Neutral	True
540.816	0.25	Control	0.6552	0.0	No	3.484	0.016	n/a	NoResponse	0	n/a	n/a	7	57	Cue	Neutral	True
541.066	4.0	Control	0.6552	0.0	No	3.484	0.0	n/a	NoResponse	0	n/a	n/a	7	57	Fixation	Neutral	True
545.064	0.19	Control	0.6552	0.002	No	3.484	-0.002	2.0	NoResponse	0	0.201	544.265	7	57	Target	Neutral	True
545.264	0.51	Control	0.6552	n/a	No	3.484	n/a	n/a	NoResponse	0	n/a	n/a	7	57	Blank	Neutral	True
545.265	0.3	Control	0.6552	0.002	No	3.484	-0.002	2.0	NoResponse	0	0.201	n/a	7	57	ButtonPress	Neutral	True
545.764	1.45	Control	0.6552	n/a	No	3.484	n/a	5.0	NoResponse	0	0.017	544.781	7	57	Feedback	Neutral	True
547.213	3.484	Control	0.6552	n/a	No	3.484	n/a	n/a	NoResponse	0	0.0	n/a	7	57	ISIslide	Neutral	True
550.712	0.25	Win2	0.6609999999999999	0.0	Yes	2.738	0.012	n/a	GoodResponse	1	n/a	n/a	8	58	Cue	Win	True
550.962	4.05	Win2	0.6609999999999999	0.0	Yes	2.738	0.0	n/a	GoodResponse	1	n/a	n/a	8	58	Fixation	Win	True
555.011	0.19	Win2	0.6609999999999999	0.001	Yes	2.738	-0.001	2.0	GoodResponse	1	0.175	554.186	8	58	Target	Win	True
555.186	0.3	Win2	0.6609999999999999	0.001	Yes	2.738	-0.001	2.0	GoodResponse	1	0.175	n/a	8	58	ButtonPress	Win	True
555.211	0.51	Win2	0.6609999999999999	n/a	Yes	2.738	n/a	n/a	GoodResponse	1	n/a	n/a	8	58	Blank	Win	True
555.711	1.45	Win2	0.6609999999999999	n/a	Yes	2.738	n/a	5.0	GoodResponse	1	0.021	554.732	8	58	Feedback	Win	True
557.16	2.738	Win2	0.6609999999999999	n/a	Yes	2.738	n/a	n/a	GoodResponse	1	0.0	n/a	8	58	ISIslide	Win	True
559.926	0.25	Lose2	0.6667000000000001	0.0	Yes	2.674	0.026	n/a	GoodResponse	0	n/a	n/a	8	59	Cue	AvoidedLoss	True
560.176	4.0	Lose2	0.6667000000000001	0.0	Yes	2.674	0.0	n/a	GoodResponse	0	n/a	n/a	8	59	Fixation	AvoidedLoss	True
564.174	0.19	Lose2	0.6667000000000001	0.002	Yes	2.674	-0.002	2.0	GoodResponse	0	0.188	563.362	8	59	Target	AvoidedLoss	True
564.362	0.3	Lose2	0.6667000000000001	0.002	Yes	2.674	-0.002	2.0	GoodResponse	0	0.188	n/a	8	59	ButtonPress	AvoidedLoss	True
564.374	0.51	Lose2	0.6667000000000001	n/a	Yes	2.674	n/a	n/a	GoodResponse	0	n/a	n/a	8	59	Blank	AvoidedLoss	True
564.874	1.45	Lose2	0.6667000000000001	n/a	Yes	2.674	n/a	5.0	GoodResponse	0	0.028	563.902	8	59	Feedback	AvoidedLoss	True
566.324	2.674	Lose2	0.6667000000000001	n/a	Yes	2.674	n/a	n/a	GoodResponse	0	0.0	n/a	8	59	ISIslide	AvoidedLoss	True
569.023	0.25	Control	0.6557	0.0	No	2.677	0.023	n/a	NoResponse	0	n/a	n/a	8	60	Cue	Neutral	True
569.272	4.0	Control	0.6557	0.001	No	2.677	-0.001	n/a	NoResponse	0	n/a	n/a	8	60	Fixation	Neutral	True
573.271	0.18	Control	0.6557	0.002	No	2.677	-0.002	2.0	NoResponse	0	0.193	572.464	8	60	Target	Neutral	True
573.454	0.52	Control	0.6557	n/a	No	2.677	n/a	n/a	NoResponse	0	n/a	n/a	8	60	Blank	Neutral	True
573.464	0.3	Control	0.6557	0.002	No	2.677	-0.002	2.0	NoResponse	0	0.193	n/a	8	60	ButtonPress	Neutral	True
573.971	1.45	Control	0.6557	n/a	No	2.677	n/a	5.0	NoResponse	0	0.005	572.976	8	60	Feedback	Neutral	True
575.42	2.677	Control	0.6557	n/a	No	2.677	n/a	n/a	NoResponse	0	0.0	n/a	8	60	ISIslide	Neutral	True
578.119	0.25	Lose2	0.6613	0.001	Yes	2.981	0.019	n/a	GoodResponse	0	n/a	n/a	8	61	Cue	AvoidedLoss	True
578.369	4.0	Lose2	0.6613	0.0	Yes	2.981	0.0	n/a	GoodResponse	0	n/a	n/a	8	61	Fixation	AvoidedLoss	True
582.368	0.18	Lose2	0.6613	0.001	Yes	2.981	-0.001	2.0	GoodResponse	0	0.179	581.547	8	61	Target	AvoidedLoss	True
582.547	0.3	Lose2	0.6613	0.001	Yes	2.981	-0.001	2.0	GoodResponse	0	0.179	n/a	8	61	ButtonPress	AvoidedLoss	True
582.551	0.52	Lose2	0.6613	n/a	Yes	2.981	n/a	n/a	GoodResponse	0	n/a	n/a	8	61	Blank	AvoidedLoss	True
583.068	1.45	Lose2	0.6613	n/a	Yes	2.981	n/a	5.0	GoodResponse	0	0.029	582.097	8	61	Feedback	AvoidedLoss	True
584.517	2.981	Lose2	0.6613	n/a	Yes	2.981	n/a	n/a	GoodResponse	0	0.0	n/a	8	61	ISIslide	AvoidedLoss	True
587.516	0.25	Lose2	0.6507999999999999	0.0	No	2.884	0.016	n/a	NoResponse	-1	n/a	n/a	7	62	Cue	Loss	True
587.766	3.9	Lose2	0.6507999999999999	0.0	No	2.884	0.0	n/a	NoResponse	-1	n/a	n/a	7	62	Fixation	Loss	True
591.665	0.18	Lose2	0.6507999999999999	0.001	No	2.884	-0.001	2.0	NoResponse	-1	0.189	590.854	7	62	Target	Loss	True
591.848	0.52	Lose2	0.6507999999999999	n/a	No	2.884	n/a	n/a	NoResponse	-1	n/a	n/a	7	62	Blank	Loss	True
591.854	0.3	Lose2	0.6507999999999999	0.001	No	2.884	-0.001	2.0	NoResponse	-1	0.189	n/a	7	62	ButtonPress	Loss	True
592.365	1.45	Lose2	0.6507999999999999	n/a	No	2.884	n/a	5.0	NoResponse	-1	0.001	591.366	7	62	Feedback	Loss	True
593.814	2.884	Lose2	0.6507999999999999	n/a	No	2.884	n/a	n/a	NoResponse	-1	0.0	n/a	7	62	ISIslide	Loss	True
596.713	0.25	Lose2	0.6406000000000001	0.0	No	2.637	0.013	n/a	LatePress	-1	n/a	n/a	6	63	Cue	Loss	True
596.963	4.05	Lose2	0.6406000000000001	0.0	No	2.637	0.0	n/a	LatePress	-1	n/a	n/a	6	63	Fixation	Loss	True
601.012	0.19	Lose2	0.6406000000000001	0.001	No	2.637	-0.001	2.0	LatePress	-1	0.196	600.208	6	63	Target	Loss	True
601.208	0.3	Lose2	0.6406000000000001	0.001	No	2.637	-0.001	2.0	LatePress	-1	0.196	n/a	6	63	ButtonPress	Loss	True
601.211	0.51	Lose2	0.6406000000000001	n/a	No	2.637	n/a	n/a	LatePress	-1	n/a	n/a	6	63	Blank	Loss	True
601.711	1.45	Lose2	0.6406000000000001	n/a	No	2.637	n/a	5.0	LatePress	-1	0.021	600.732	6	63	Feedback	Loss	True
603.161	2.637	Lose2	0.6406000000000001	n/a	No	2.637	n/a	n/a	LatePress	-1	0.0	n/a	6	63	ISIslide	Loss	True
605.827	0.25	Win2	0.6462	0.0	Yes	3.123	0.027	n/a	GoodResponse	1	n/a	n/a	7	64	Cue	Win	False
606.076	4.15	Win2	0.6462	0.001	Yes	3.123	-0.001	2.0	GoodResponse	1	0.038	605.114	7	64	Fixation	Win	False
606.114	0.3	Win2	0.6462	0.001	Yes	3.123	-0.001	2.0	GoodResponse	1	0.038	n/a	7	64	ButtonPress	Win	False
610.225	0.2	Win2	0.6462	0.002	Yes	3.123	-0.002	2.0	GoodResponse	1	0.185	609.41	7	64	Target	Win	False
610.41	0.3	Win2	0.6462	0.002	Yes	3.123	-0.002	2.0	GoodResponse	1	0.185	n/a	7	64	ButtonPress	Win	False
610.425	0.5	Win2	0.6462	n/a	Yes	3.123	n/a	n/a	GoodResponse	1	n/a	n/a	7	64	Blank	Win	False
610.925	1.45	Win2	0.6462	n/a	Yes	3.123	n/a	5.0	GoodResponse	1	0.026	609.951	7	64	Feedback	Win	False
612.374	3.123	Win2	0.6462	n/a	Yes	3.123	n/a	n/a	GoodResponse	1	0.0	n/a	7	64	ISIslide	Win	False
615.523	0.25	Control	0.6515000000000001	0.0	Yes	2.777	0.023	n/a	GoodResponse	0	n/a	n/a	7	65	Cue	Neutral	True
615.773	4.0	Control	0.6515000000000001	0.0	Yes	2.777	0.0	n/a	GoodResponse	0	n/a	n/a	7	65	Fixation	Neutral	True
619.772	0.21	Control	0.6515000000000001	0.001	Yes	2.777	-0.001	2.0	GoodResponse	0	0.202	618.974	7	65	Target	Neutral	True
619.974	0.3	Control	0.6515000000000001	0.001	Yes	2.777	-0.001	2.0	GoodResponse	0	0.202	n/a	7	65	ButtonPress	Neutral	True
619.988	0.49	Control	0.6515000000000001	n/a	Yes	2.777	n/a	n/a	GoodResponse	0	n/a	n/a	7	65	Blank	Neutral	True
620.471	1.45	Control	0.6515000000000001	n/a	Yes	2.777	n/a	5.0	GoodResponse	0	0.041	619.512	7	65	Feedback	Neutral	True
621.921	2.777	Control	0.6515000000000001	n/a	Yes	2.777	n/a	n/a	GoodResponse	0	0.0	n/a	7	65	ISIslide	Neutral	True
624.72	0.25	Win2	0.6567000000000001	0.0	Yes	2.78	0.02	n/a	GoodResponse	1	n/a	n/a	8	66	Cue	Win	True
624.97	3.9	Win2	0.6567000000000001	0.0	Yes	2.78	0.0	n/a	GoodResponse	1	n/a	n/a	8	66	Fixation	Win	True
628.869	0.22	Win2	0.6567000000000001	0.001	Yes	2.78	-0.001	2.0	GoodResponse	1	0.181	628.05	8	66	Target	Win	True
629.05	0.3	Win2	0.6567000000000001	0.001	Yes	2.78	-0.001	2.0	GoodResponse	1	0.181	n/a	8	66	ButtonPress	Win	True
629.102	0.48	Win2	0.6567000000000001	n/a	Yes	2.78	n/a	n/a	GoodResponse	1	n/a	n/a	8	66	Blank	Win	True
629.568	1.45	Win2	0.6567000000000001	n/a	Yes	2.78	n/a	5.0	GoodResponse	1	0.017	628.585	8	66	Feedback	Win	True
631.018	2.78	Win2	0.6567000000000001	n/a	Yes	2.78	n/a	n/a	GoodResponse	1	0.0	n/a	8	66	ISIslide	Win	True
633.817	0.25	Control	0.6618	0.0	Yes	2.733	0.017	n/a	GoodResponse	0	n/a	n/a	8	67	Cue	Neutral	True
634.067	3.95	Control	0.6618	0.0	Yes	2.733	0.0	n/a	GoodResponse	0	n/a	n/a	8	67	Fixation	Neutral	True
638.015	0.22	Control	0.6618	0.002	Yes	2.733	-0.002	2.0	GoodResponse	0	0.181	637.196	8	67	Target	Neutral	True
638.196	0.3	Control	0.6618	0.002	Yes	2.733	-0.002	2.0	GoodResponse	0	0.181	n/a	8	67	ButtonPress	Neutral	True
638.249	0.48	Control	0.6618	n/a	Yes	2.733	n/a	n/a	GoodResponse	0	n/a	n/a	8	67	Blank	Neutral	True
638.715	1.45	Control	0.6618	n/a	Yes	2.733	n/a	5.0	GoodResponse	0	0.04	637.755	8	67	Feedback	Neutral	True
640.165	2.733	Control	0.6618	n/a	Yes	2.733	n/a	n/a	GoodResponse	0	0.0	n/a	8	67	ISIslide	Neutral	True
642.914	0.25	Win2	0.6667000000000001	0.0	Yes	3.086	0.014	n/a	GoodResponse	1	n/a	n/a	9	68	Cue	Win	True
643.164	4.0	Win2	0.6667000000000001	0.0	Yes	3.086	0.0	n/a	GoodResponse	1	n/a	n/a	9	68	Fixation	Win	True
647.162	0.22	Win2	0.6667000000000001	0.002	Yes	3.086	-0.002	2.0	GoodResponse	1	0.194	646.356	9	68	Target	Win	True
647.356	0.3	Win2	0.6667000000000001	0.002	Yes	3.086	-0.002	2.0	GoodResponse	1	0.194	n/a	9	68	ButtonPress	Win	True
647.395	0.48	Win2	0.6667000000000001	n/a	Yes	3.086	n/a	n/a	GoodResponse	1	n/a	n/a	9	68	Blank	Win	True
647.862	1.45	Win2	0.6667000000000001	n/a	Yes	3.086	n/a	5.0	GoodResponse	1	0.015	646.877	9	68	Feedback	Win	True
649.311	3.086	Win2	0.6667000000000001	n/a	Yes	3.086	n/a	n/a	GoodResponse	1	0.0	n/a	9	68	ISIslide	Win	True
652.427	0.25	Win2	0.6714	0.0	Yes	3.223	0.027	n/a	GoodResponse	1	n/a	n/a	10	69	Cue	Win	True
652.677	3.95	Win2	0.6714	0.0	Yes	3.223	0.0	n/a	GoodResponse	1	n/a	n/a	10	69	Fixation	Win	True
656.626	0.21	Win2	0.6714	0.001	Yes	3.223	-0.001	2.0	GoodResponse	1	0.154	655.78	10	69	Target	Win	True
656.78	0.3	Win2	0.6714	0.001	Yes	3.223	-0.001	2.0	GoodResponse	1	0.154	n/a	10	69	ButtonPress	Win	True
656.842	0.49	Win2	0.6714	n/a	Yes	3.223	n/a	n/a	GoodResponse	1	n/a	n/a	10	69	Blank	Win	True
657.325	1.45	Win2	0.6714	n/a	Yes	3.223	n/a	5.0	GoodResponse	1	0.016	656.341	10	69	Feedback	Win	True
658.775	3.223	Win2	0.6714	n/a	Yes	3.223	n/a	n/a	GoodResponse	1	0.0	n/a	10	69	ISIslide	Win	True
662.024	0.25	Lose2	0.6761	0.0	Yes	3.026	0.024	n/a	GoodResponse	0	n/a	n/a	10	70	Cue	AvoidedLoss	False
662.274	4.05	Lose2	0.6761	0.0	Yes	3.026	0.0	2.0	GoodResponse	0	3.735	665.009	10	70	Fixation	AvoidedLoss	False
666.009	0.3	Lose2	0.6761	0.0	Yes	3.026	0.0	2.0	GoodResponse	0	3.735	n/a	10	70	ButtonPress	AvoidedLoss	False
666.322	0.2	Lose2	0.6761	0.002	Yes	3.026	-0.002	2.0	GoodResponse	0	0.152	665.474	10	70	Target	AvoidedLoss	False
666.474	0.3	Lose2	0.6761	0.002	Yes	3.026	-0.002	2.0	GoodResponse	0	0.152	n/a	10	70	ButtonPress	AvoidedLoss	False
666.522	0.5	Lose2	0.6761	n/a	Yes	3.026	n/a	n/a	GoodResponse	0	n/a	n/a	10	70	Blank	AvoidedLoss	False
667.022	1.45	Lose2	0.6761	n/a	Yes	3.026	n/a	5.0	GoodResponse	0	0.026	666.048	10	70	Feedback	AvoidedLoss	False
668.472	3.026	Lose2	0.6761	n/a	Yes	3.026	n/a	n/a	GoodResponse	0	0.0	n/a	10	70	ISIslide	AvoidedLoss	False
671.52	0.25	Win2	0.6806	0.001	Yes	2.73	0.02	n/a	GoodResponse	1	n/a	n/a	11	71	Cue	Win	True
671.77	4.05	Win2	0.6806	0.0	Yes	2.73	0.0	n/a	GoodResponse	1	n/a	n/a	11	71	Fixation	Win	True
675.819	0.19	Win2	0.6806	0.001	Yes	2.73	-0.001	2.0	GoodResponse	1	0.182	675.001	11	71	Target	Win	True
676.001	0.3	Win2	0.6806	0.001	Yes	2.73	-0.001	2.0	GoodResponse	1	0.182	n/a	11	71	ButtonPress	Win	True
676.019	0.51	Win2	0.6806	n/a	Yes	2.73	n/a	n/a	GoodResponse	1	n/a	n/a	11	71	Blank	Win	True
676.519	1.45	Win2	0.6806	n/a	Yes	2.73	n/a	5.0	GoodResponse	1	0.042	675.561	11	71	Feedback	Win	True
677.968	2.73	Win2	0.6806	n/a	Yes	2.73	n/a	n/a	GoodResponse	1	0.0	n/a	11	71	ISIslide	Win	True
680.717	0.25	Win2	0.6712	0.0	No	2.783	0.017	n/a	NoResponse	0	n/a	n/a	11	72	Cue	MissedWin	True
680.967	4.1	Win2	0.6712	0.0	No	2.783	0.0	n/a	NoResponse	0	n/a	n/a	11	72	Fixation	MissedWin	True
685.066	0.18	Win2	0.6712	0.001	No	2.783	-0.001	2.0	NoResponse	0	0.204	684.27	11	72	Target	MissedWin	True
685.249	0.52	Win2	0.6712	n/a	No	2.783	n/a	n/a	NoResponse	0	n/a	n/a	11	72	Blank	MissedWin	True
685.27	0.3	Win2	0.6712	0.001	No	2.783	-0.001	2.0	NoResponse	0	0.204	n/a	11	72	ButtonPress	MissedWin	True
685.766	1.45	Win2	0.6712	n/a	No	2.783	n/a	5.0	NoResponse	0	0.013	684.779	11	72	Feedback	MissedWin	True
687.215	2.783	Win2	0.6712	n/a	No	2.783	n/a	n/a	NoResponse	0	0.0	n/a	11	72	ISIslide	MissedWin	True
690.014	0.25	Win2	0.6622	0.0	No	2.686	0.014	n/a	NoResponse	0	n/a	n/a	11	73	Cue	MissedWin	True
690.264	4.0	Win2	0.6622	0.0	No	2.686	0.0	n/a	NoResponse	0	n/a	n/a	11	73	Fixation	MissedWin	True
694.263	0.17	Win2	0.6622	0.001	No	2.686	-0.001	2.0	NoResponse	0	0.307	693.57	11	73	Target	MissedWin	True
694.446	0.53	Win2	0.6622	n/a	No	2.686	n/a	n/a	NoResponse	0	n/a	n/a	11	73	Blank	MissedWin	True
694.57	0.3	Win2	0.6622	0.001	No	2.686	-0.001	2.0	NoResponse	0	0.307	n/a	11	73	ButtonPress	MissedWin	True
694.962	1.45	Win2	0.6622	n/a	No	2.686	n/a	5.0	NoResponse	0	0.037	693.999	11	73	Feedback	MissedWin	True
696.412	2.686	Win2	0.6622	n/a	No	2.686	n/a	n/a	NoResponse	0	0.0	n/a	11	73	ISIslide	MissedWin	True
699.128	0.25	Lose2	0.6533	0.0	No	2.622	0.028	n/a	LatePress	-1	n/a	n/a	10	74	Cue	Loss	True
699.378	4.05	Lose2	0.6533	0.0	No	2.622	0.0	n/a	LatePress	-1	n/a	n/a	10	74	Fixation	Loss	True
703.426	0.17	Lose2	0.6533	0.002	No	2.622	-0.002	2.0	LatePress	-1	0.176	702.602	10	74	Target	Loss	True
703.602	0.3	Lose2	0.6533	0.002	No	2.622	-0.002	2.0	LatePress	-1	0.176	n/a	10	74	ButtonPress	Loss	True
703.609	0.53	Lose2	0.6533	n/a	No	2.622	n/a	n/a	LatePress	-1	n/a	n/a	10	74	Blank	Loss	True
704.126	1.45	Lose2	0.6533	n/a	No	2.622	n/a	5.0	LatePress	-1	0.044	703.17	10	74	Feedback	Loss	True
705.575	2.622	Lose2	0.6533	n/a	No	2.622	n/a	n/a	LatePress	-1	0.0	n/a	10	74	ISIslide	Loss	True
708.224	0.25	Lose2	0.6579	0.001	Yes	2.926	0.024	n/a	GoodResponse	0	n/a	n/a	10	75	Cue	AvoidedLoss	True
708.474	3.95	Lose2	0.6579	0.0	Yes	2.926	0.0	n/a	GoodResponse	0	n/a	n/a	10	75	Fixation	AvoidedLoss	True
712.423	0.18	Lose2	0.6579	0.001	Yes	2.926	-0.001	2.0	GoodResponse	0	0.162	711.585	10	75	Target	AvoidedLoss	True
712.585	0.3	Lose2	0.6579	0.001	Yes	2.926	-0.001	2.0	GoodResponse	0	0.162	n/a	10	75	ButtonPress	AvoidedLoss	True
712.606	0.52	Lose2	0.6579	n/a	Yes	2.926	n/a	n/a	GoodResponse	0	n/a	n/a	10	75	Blank	AvoidedLoss	True
713.123	1.45	Lose2	0.6579	n/a	Yes	2.926	n/a	5.0	GoodResponse	0	0.023	712.146	10	75	Feedback	AvoidedLoss	True
714.572	2.926	Lose2	0.6579	n/a	Yes	2.926	n/a	n/a	GoodResponse	0	0.0	n/a	10	75	ISIslide	AvoidedLoss	True
717.521	0.25	Control	0.6494	0.0	No	3.229	0.021	n/a	NoResponse	0	n/a	n/a	10	76	Cue	Neutral	True
717.771	4.05	Control	0.6494	0.0	No	3.229	0.0	n/a	NoResponse	0	n/a	n/a	10	76	Fixation	Neutral	True
721.82	0.18	Control	0.6494	0.001	No	3.229	-0.001	2.0	NoResponse	0	0.207	721.027	10	76	Target	Neutral	True
722.003	0.52	Control	0.6494	n/a	No	3.229	n/a	n/a	NoResponse	0	n/a	n/a	10	76	Blank	Neutral	True
722.027	0.3	Control	0.6494	0.001	No	3.229	-0.001	2.0	NoResponse	0	0.207	n/a	10	76	ButtonPress	Neutral	True
722.52	1.45	Control	0.6494	n/a	No	3.229	n/a	5.0	NoResponse	0	0.04	721.56	10	76	Feedback	Neutral	True
723.969	3.229	Control	0.6494	n/a	No	3.229	n/a	n/a	NoResponse	0	0.0	n/a	10	76	ISIslide	Neutral	True
727.218	0.25	Lose2	0.6537999999999999	0.0	Yes	2.582	0.018	n/a	GoodResponse	0	n/a	n/a	10	77	Cue	AvoidedLoss	True
727.468	3.95	Lose2	0.6537999999999999	0.0	Yes	2.582	0.0	n/a	GoodResponse	0	n/a	n/a	10	77	Fixation	AvoidedLoss	True
731.416	0.19	Lose2	0.6537999999999999	0.002	Yes	2.582	-0.002	2.0	GoodResponse	0	0.164	730.58	10	77	Target	AvoidedLoss	True
731.58	0.3	Lose2	0.6537999999999999	0.002	Yes	2.582	-0.002	2.0	GoodResponse	0	0.164	n/a	10	77	ButtonPress	AvoidedLoss	True
731.616	0.51	Lose2	0.6537999999999999	n/a	Yes	2.582	n/a	n/a	GoodResponse	0	n/a	n/a	10	77	Blank	AvoidedLoss	True
732.116	1.45	Lose2	0.6537999999999999	n/a	Yes	2.582	n/a	5.0	GoodResponse	0	0.005	731.121	10	77	Feedback	AvoidedLoss	True
733.566	2.582	Lose2	0.6537999999999999	n/a	Yes	2.582	n/a	n/a	GoodResponse	0	0.0	n/a	10	77	ISIslide	AvoidedLoss	True
