onset	duration	cue_type	current_mean_accuracy	duration_error	is_hit	isi_adjusted	onset_delay	response	response_type	reward	rt	rt_time	total_reward	trial_number	trial_phase	trial_type	one_press
11.104	0.25	Control	1.0	0.0	Yes	2.946	0.004	n/a	GoodResponse	0	n/a	n/a	0	0	Cue	Neutral	True
11.354	3.85	Control	1.0	0.0	Yes	2.946	0.0	n/a	GoodResponse	0	n/a	n/a	0	0	Fixation	Neutral	True
15.202	0.4	Control	1.0	0.002	Yes	2.946	-0.002	2.0	GoodResponse	0	0.256	14.458	0	0	Target	Neutral	True
15.458	0.3	Control	1.0	0.002	Yes	2.946	-0.002	2.0	GoodResponse	0	0.256	n/a	0	0	ButtonPress	Neutral	True
15.602	0.3	Control	1.0	n/a	Yes	2.946	n/a	n/a	GoodResponse	0	n/a	n/a	0	0	Blank	Neutral	True
15.902	1.45	Control	1.0	n/a	Yes	2.946	n/a	5.0	GoodResponse	0	0.025	14.927	0	0	Feedback	Neutral	True
17.352	2.946	Control	1.0	n/a	Yes	2.946	n/a	n/a	GoodResponse	0	0.0	n/a	0	0	ISIslide	Neutral	True
20.317	0.25	Lose2	1.0	0.0	Yes	2.783	0.017	n/a	GoodResponse	0	n/a	n/a	0	1	Cue	AvoidedLoss	True
20.567	4.0	Lose2	1.0	0.0	Yes	2.783	0.0	n/a	GoodResponse	0	n/a	n/a	0	1	Fixation	AvoidedLoss	True
24.566	0.39	Lose2	1.0	0.001	Yes	2.783	-0.001	2.0	GoodResponse	0	0.215	23.781	0	1	Target	AvoidedLoss	True
24.781	0.3	Lose2	1.0	0.001	Yes	2.783	-0.001	2.0	GoodResponse	0	0.215	n/a	0	1	ButtonPress	AvoidedLoss	True
24.966	0.31	Lose2	1.0	n/a	Yes	2.783	n/a	n/a	GoodResponse	0	n/a	n/a	0	1	Blank	AvoidedLoss	True
25.265	1.45	Lose2	1.0	n/a	Yes	2.783	n/a	5.0	GoodResponse	0	0.027	24.292	0	1	Feedback	AvoidedLoss	True
26.715	2.783	Lose2	1.0	n/a	Yes	2.783	n/a	n/a	GoodResponse	0	0.0	n/a	0	1	ISIslide	AvoidedLoss	True
29.514	0.25	Control	1.0	0.0	Yes	2.586	0.014	n/a	GoodResponse	0	n/a	n/a	0	2	Cue	Neutral	True
29.764	4.1	Control	1.0	0.0	Yes	2.586	0.0	n/a	GoodResponse	0	n/a	n/a	0	2	Fixation	Neutral	True
33.863	0.38	Control	1.0	0.001	Yes	2.586	-0.001	2.0	GoodResponse	0	0.244	33.107	0	2	Target	Neutral	True
34.107	0.3	Control	1.0	0.001	Yes	2.586	-0.001	2.0	GoodResponse	0	0.244	n/a	0	2	ButtonPress	Neutral	True
34.246	0.32	Control	1.0	n/a	Yes	2.586	n/a	n/a	GoodResponse	0	n/a	n/a	0	2	Blank	Neutral	True
34.562	1.45	Control	1.0	n/a	Yes	2.586	n/a	5.0	GoodResponse	0	0.047	33.609	0	2	Feedback	Neutral	True
36.012	2.586	Control	1.0	n/a	Yes	2.586	n/a	n/a	GoodResponse	0	0.0	n/a	0	2	ISIslide	Neutral	True
38.628	0.25	Win2	1.0	0.0	Yes	2.822	0.028	n/a	GoodResponse	1	n/a	n/a	1	3	Cue	Win	True
38.877	3.95	Win2	1.0	0.001	Yes	2.822	-0.001	n/a	GoodResponse	1	n/a	n/a	1	3	Fixation	Win	True
42.826	0.37	Win2	1.0	0.002	Yes	2.822	-0.002	2.0	GoodResponse	1	0.239	42.065	1	3	Target	Win	True
43.065	0.3	Win2	1.0	0.002	Yes	2.822	-0.002	2.0	GoodResponse	1	0.239	n/a	1	3	ButtonPress	Win	True
43.209	0.33	Win2	1.0	n/a	Yes	2.822	n/a	n/a	GoodResponse	1	n/a	n/a	1	3	Blank	Win	True
43.526	1.45	Win2	1.0	n/a	Yes	2.822	n/a	5.0	GoodResponse	1	0.01	42.536	1	3	Feedback	Win	True
44.975	2.822	Win2	1.0	n/a	Yes	2.822	n/a	n/a	GoodResponse	1	0.0	n/a	1	3	ISIslide	Win	True
47.824	0.25	Win2	1.0	0.0	Yes	3.276	0.024	n/a	GoodResponse	1	n/a	n/a	2	4	Cue	Win	True
48.074	4.0	Win2	1.0	0.0	Yes	3.276	0.0	n/a	GoodResponse	1	n/a	n/a	2	4	Fixation	Win	True
52.073	0.36	Win2	1.0	0.001	Yes	3.276	-0.001	2.0	GoodResponse	1	0.245	51.318	2	4	Target	Win	True
52.318	0.3	Win2	1.0	0.001	Yes	3.276	-0.001	2.0	GoodResponse	1	0.245	n/a	2	4	ButtonPress	Win	True
52.439	0.34	Win2	1.0	n/a	Yes	3.276	n/a	n/a	GoodResponse	1	n/a	n/a	2	4	Blank	Win	True
52.773	1.45	Win2	1.0	n/a	Yes	3.276	n/a	5.0	GoodResponse	1	0.031	51.804	2	4	Feedback	Win	True
54.222	3.276	Win2	1.0	n/a	Yes	3.276	n/a	n/a	GoodResponse	1	0.0	n/a	2	4	ISIslide	Win	True
57.521	0.25	Win2	1.0	0.0	Yes	2.779	0.021	n/a	GoodResponse	1	n/a	n/a	3	5	Cue	Win	True
57.771	4.0	Win2	1.0	0.0	Yes	2.779	0.0	n/a	GoodResponse	1	n/a	n/a	3	5	Fixation	Win	True
61.77	0.35	Win2	1.0	0.001	Yes	2.779	-0.001	2.0	GoodResponse	1	0.253	61.023	3	5	Target	Win	True
62.023	0.3	Win2	1.0	0.001	Yes	2.779	-0.001	2.0	GoodResponse	1	0.253	n/a	3	5	ButtonPress	Win	True
62.119	0.35	Win2	1.0	n/a	Yes	2.779	n/a	n/a	GoodResponse	1	n/a	n/a	3	5	Blank	Win	True
62.469	1.45	Win2	1.0	n/a	Yes	2.779	n/a	5.0	GoodResponse	1	0.042	61.511	3	5	Feedback	Win	True
63.919	2.779	Win2	1.0	n/a	Yes	2.779	n/a	n/a	GoodResponse	1	0.0	n/a	3	5	ISIslide	Win	True
66.718	0.25	Lose2	1.0	0.0	Yes	2.732	0.018	n/a	GoodResponse	0	n/a	n/a	3	6	Cue	AvoidedLoss	True
66.968	3.95	Lose2	1.0	0.0	Yes	2.732	0.0	n/a	GoodResponse	0	n/a	n/a	3	6	Fixation	AvoidedLoss	True
70.916	0.34	Lose2	1.0	0.002	Yes	2.732	-0.002	2.0	GoodResponse	0	0.227	70.143	3	6	Target	AvoidedLoss	True
71.143	0.3	Lose2	1.0	0.002	Yes	2.732	-0.002	2.0	GoodResponse	0	0.227	n/a	3	6	ButtonPress	AvoidedLoss	True
71.266	0.36	Lose2	1.0	n/a	Yes	2.732	n/a	n/a	GoodResponse	0	n/a	n/a	3	6	Blank	AvoidedLoss	True
71.616	1.45	Lose2	1.0	n/a	Yes	2.732	n/a	5.0	GoodResponse	0	0.018	70.634	3	6	Feedback	AvoidedLoss	True
73.066	2.732	Lose2	1.0	n/a	Yes	2.732	n/a	n/a	GoodResponse	0	0.0	n/a	3	6	ISIslide	AvoidedLoss	True
75.815	0.25	Lose2	1.0	0.0	Yes	4.035	0.015	n/a	GoodResponse	0	n/a	n/a	3	7	Cue	AvoidedLoss	True
76.065	4.05	Lose2	1.0	0.0	Yes	4.035	0.0	n/a	GoodResponse	0	n/a	n/a	3	7	Fixation	AvoidedLoss	True
80.113	0.33	Lose2	1.0	0.002	Yes	4.035	-0.002	2.0	GoodResponse	0	0.215	79.328	3	7	Target	AvoidedLoss	True
80.328	0.3	Lose2	1.0	0.002	Yes	4.035	-0.002	2.0	GoodResponse	0	0.215	n/a	3	7	ButtonPress	AvoidedLoss	True
80.446	0.37	Lose2	1.0	n/a	Yes	4.035	n/a	n/a	GoodResponse	0	n/a	n/a	3	7	Blank	AvoidedLoss	True
80.813	1.45	Lose2	1.0	n/a	Yes	4.035	n/a	5.0	GoodResponse	0	0.039	79.852	3	7	Feedback	AvoidedLoss	True
82.262	4.035	Lose2	1.0	n/a	Yes	4.035	n/a	n/a	GoodResponse	0	0.0	n/a	3	7	ISIslide	AvoidedLoss	True
86.311	0.25	Lose2	1.0	0.0	Yes	3.039	0.011	n/a	GoodResponse	0	n/a	n/a	3	8	Cue	AvoidedLoss	True
86.561	3.95	Lose2	1.0	0.0	Yes	3.039	0.0	n/a	GoodResponse	0	n/a	n/a	3	8	Fixation	AvoidedLoss	True
90.51	0.32	Lose2	1.0	0.001	Yes	3.039	-0.001	2.0	GoodResponse	0	0.201	89.711	3	8	Target	AvoidedLoss	True
90.711	0.3	Lose2	1.0	0.001	Yes	3.039	-0.001	2.0	GoodResponse	0	0.201	n/a	3	8	ButtonPress	AvoidedLoss	True
90.843	0.38	Lose2	1.0	n/a	Yes	3.039	n/a	n/a	GoodResponse	0	n/a	n/a	3	8	Blank	AvoidedLoss	True
91.209	1.45	Lose2	1.0	n/a	Yes	3.039	n/a	5.0	GoodResponse	0	0.034	90.243	3	8	Feedback	AvoidedLoss	True
92.659	3.039	Lose2	1.0	n/a	Yes	3.039	n/a	n/a	GoodResponse	0	0.0	n/a	3	8	ISIslide	AvoidedLoss	True
95.724	0.25	Lose2	1.0	0.001	Yes	3.126	0.024	n/a	GoodResponse	0	n/a	n/a	3	9	Cue	AvoidedLoss	True
95.974	3.95	Lose2	1.0	0.0	Yes	3.126	0.0	n/a	GoodResponse	0	n/a	n/a	3	9	Fixation	AvoidedLoss	True
99.923	0.31	Lose2	1.0	0.001	Yes	3.126	-0.001	2.0	GoodResponse	0	0.187	99.11	3	9	Target	AvoidedLoss	True
100.11	0.3	Lose2	1.0	0.001	Yes	3.126	-0.001	2.0	GoodResponse	0	0.187	n/a	3	9	ButtonPress	AvoidedLoss	True
100.24	0.39	Lose2	1.0	n/a	Yes	3.126	n/a	n/a	GoodResponse	0	n/a	n/a	3	9	Blank	AvoidedLoss	True
100.623	1.45	Lose2	1.0	n/a	Yes	3.126	n/a	5.0	GoodResponse	0	0.034	99.657	3	9	Feedback	AvoidedLoss	True
102.072	3.126	Lose2	1.0	n/a	Yes	3.126	n/a	n/a	GoodResponse	0	0.0	n/a	3	9	ISIslide	AvoidedLoss	True
105.221	0.25	Control	1.0	0.0	Yes	3.279	0.021	n/a	GoodResponse	0	n/a	n/a	3	10	Cue	Neutral	True
105.471	4.0	Control	1.0	0.0	Yes	3.279	0.0	n/a	GoodResponse	0	n/a	n/a	3	10	Fixation	Neutral	True
109.47	0.3	Control	1.0	0.001	Yes	3.279	-0.001	2.0	GoodResponse	0	0.202	108.672	3	10	Target	Neutral	True
109.672	0.3	Control	1.0	0.001	Yes	3.279	-0.001	2.0	GoodResponse	0	0.202	n/a	3	10	ButtonPress	Neutral	True
109.77	0.4	Control	1.0	n/a	Yes	3.279	n/a	n/a	GoodResponse	0	n/a	n/a	3	10	Blank	Neutral	True
110.169	1.45	Control	1.0	n/a	Yes	3.279	n/a	5.0	GoodResponse	0	0.001	109.17	3	10	Feedback	Neutral	True
111.619	3.279	Control	1.0	n/a	Yes	3.279	n/a	n/a	GoodResponse	0	0.0	n/a	3	10	ISIslide	Neutral	True
114.918	0.25	Lose2	1.0	0.0	Yes	2.732	0.018	n/a	GoodResponse	0	n/a	n/a	3	11	Cue	AvoidedLoss	True
115.168	4.05	Lose2	1.0	0.0	Yes	2.732	0.0	n/a	GoodResponse	0	n/a	n/a	3	11	Fixation	AvoidedLoss	True
119.216	0.29	Lose2	1.0	0.002	Yes	2.732	-0.002	2.0	GoodResponse	0	0.19	118.406	3	11	Target	AvoidedLoss	True
119.406	0.3	Lose2	1.0	0.002	Yes	2.732	-0.002	2.0	GoodResponse	0	0.19	n/a	3	11	ButtonPress	AvoidedLoss	True
119.516	0.41	Lose2	1.0	n/a	Yes	2.732	n/a	n/a	GoodResponse	0	n/a	n/a	3	11	Blank	AvoidedLoss	True
119.916	1.45	Lose2	1.0	n/a	Yes	2.732	n/a	5.0	GoodResponse	0	0.01	118.926	3	11	Feedback	AvoidedLoss	True
121.366	2.732	Lose2	1.0	n/a	Yes	2.732	n/a	n/a	GoodResponse	0	0.0	n/a	3	11	ISIslide	AvoidedLoss	True
124.115	0.25	Control	1.0	0.0	Yes	2.985	0.015	n/a	GoodResponse	0	n/a	n/a	3	12	Cue	Neutral	True
124.365	3.9	Control	1.0	0.0	Yes	2.985	0.0	n/a	GoodResponse	0	n/a	n/a	3	12	Fixation	Neutral	True
128.263	0.28	Control	1.0	0.002	Yes	2.985	-0.002	2.0	GoodResponse	0	0.242	127.505	3	12	Target	Neutral	True
128.505	0.3	Control	1.0	0.002	Yes	2.985	-0.002	2.0	GoodResponse	0	0.242	n/a	3	12	ButtonPress	Neutral	True
128.546	0.42	Control	1.0	n/a	Yes	2.985	n/a	n/a	GoodResponse	0	n/a	n/a	3	12	Blank	Neutral	True
128.963	1.45	Control	1.0	n/a	Yes	2.985	n/a	5.0	GoodResponse	0	0.036	127.999	3	12	Feedback	Neutral	True
130.412	2.985	Control	1.0	n/a	Yes	2.985	n/a	n/a	GoodResponse	0	0.0	n/a	3	12	ISIslide	Neutral	True
133.411	0.25	Control	0.9286	0.001	No	2.789	0.011	n/a	NoResponse	0	n/a	n/a	3	13	Cue	Neutral	True
133.661	4.0	Control	0.9286	0.0	No	2.789	0.0	n/a	NoResponse	0	n/a	n/a	3	13	Fixation	Neutral	True
137.66	0.27	Control	0.9286	0.001	No	2.789	-0.001	2.0	NoResponse	0	0.283	136.943	3	13	Target	Neutral	True
137.927	0.43	Control	0.9286	n/a	No	2.789	n/a	n/a	NoResponse	0	n/a	n/a	3	13	Blank	Neutral	True
137.943	0.3	Control	0.9286	0.001	No	2.789	-0.001	2.0	NoResponse	0	0.283	n/a	3	13	ButtonPress	Neutral	True
138.36	1.45	Control	0.9286	n/a	No	2.789	n/a	5.0	NoResponse	0	0.005	137.365	3	13	Feedback	Neutral	True
139.809	2.789	Control	0.9286	n/a	No	2.789	n/a	n/a	NoResponse	0	0.0	n/a	3	13	ISIslide	Neutral	True
142.625	0.25	Win2	0.9333	0.0	Yes	2.675	0.025	n/a	GoodResponse	1	n/a	n/a	4	14	Cue	Win	True
142.875	4.1	Win2	0.9333	0.0	Yes	2.675	0.0	n/a	GoodResponse	1	n/a	n/a	4	14	Fixation	Win	True
146.973	0.26	Win2	0.9333	0.002	Yes	2.675	-0.002	2.0	GoodResponse	1	0.179	146.152	4	14	Target	Win	True
147.152	0.3	Win2	0.9333	0.002	Yes	2.675	-0.002	2.0	GoodResponse	1	0.179	n/a	4	14	ButtonPress	Win	True
147.24	0.44	Win2	0.9333	n/a	Yes	2.675	n/a	n/a	GoodResponse	1	n/a	n/a	4	14	Blank	Win	True
147.673	1.45	Win2	0.9333	n/a	Yes	2.675	n/a	5.0	GoodResponse	1	0.008	146.681	4	14	Feedback	Win	True
149.123	2.675	Win2	0.9333	n/a	Yes	2.675	n/a	n/a	GoodResponse	1	0.0	n/a	4	14	ISIslide	Win	True
151.822	0.25	Control	0.875	0.0	No	2.978	0.022	n/a	NoResponse	0	n/a	n/a	4	15	Cue	Neutral	True
152.072	4.0	Control	0.875	0.0	No	2.978	0.0	n/a	NoResponse	0	n/a	n/a	4	15	Fixation	Neutral	True
156.07	0.25	Control	0.875	0.002	No	2.978	-0.002	2.0	NoResponse	0	0.262	155.332	4	15	Target	Neutral	True
156.32	0.45	Control	0.875	n/a	No	2.978	n/a	n/a	NoResponse	0	n/a	n/a	4	15	Blank	Neutral	True
156.332	0.3	Control	0.875	0.002	No	2.978	-0.002	2.0	NoResponse	0	0.262	n/a	4	15	ButtonPress	Neutral	True
156.77	1.45	Control	0.875	n/a	No	2.978	n/a	5.0	NoResponse	0	0.033	155.803	4	15	Feedback	Neutral	True
158.22	2.978	Control	0.875	n/a	No	2.978	n/a	n/a	NoResponse	0	0.0	n/a	4	15	ISIslide	Neutral	True
161.219	0.25	Win2	0.8824	0.0	Yes	2.881	0.019	n/a	GoodResponse	1	n/a	n/a	5	16	Cue	Win	True
161.468	4.0	Win2	0.8824	0.001	Yes	2.881	-0.001	n/a	GoodResponse	1	n/a	n/a	5	16	Fixation	Win	True
165.467	0.24	Win2	0.8824	0.002	Yes	2.881	-0.002	2.0	GoodResponse	1	0.221	164.688	5	16	Target	Win	True
165.688	0.3	Win2	0.8824	0.002	Yes	2.881	-0.002	2.0	GoodResponse	1	0.221	n/a	5	16	ButtonPress	Win	True
165.717	0.46	Win2	0.8824	n/a	Yes	2.881	n/a	n/a	GoodResponse	1	n/a	n/a	5	16	Blank	Win	True
166.167	1.45	Win2	0.8824	n/a	Yes	2.881	n/a	5.0	GoodResponse	1	0.002	165.169	5	16	Feedback	Win	True
167.616	2.881	Win2	0.8824	n/a	Yes	2.881	n/a	n/a	GoodResponse	1	0.0	n/a	5	16	ISIslide	Win	True
170.515	0.25	Lose2	0.8889	0.0	Yes	2.735	0.015	n/a	GoodResponse	0	n/a	n/a	5	17	Cue	AvoidedLoss	True
170.765	3.95	Lose2	0.8889	0.0	Yes	2.735	0.0	n/a	GoodResponse	0	n/a	n/a	5	17	Fixation	AvoidedLoss	True
174.714	0.23	Lose2	0.8889	0.001	Yes	2.735	-0.001	2.0	GoodResponse	0	0.195	173.909	5	17	Target	AvoidedLoss	True
174.909	0.3	Lose2	0.8889	0.001	Yes	2.735	-0.001	2.0	GoodResponse	0	0.195	n/a	5	17	ButtonPress	AvoidedLoss	True
174.947	0.47	Lose2	0.8889	n/a	Yes	2.735	n/a	n/a	GoodResponse	0	n/a	n/a	5	17	Blank	AvoidedLoss	True
175.414	1.45	Lose2	0.8889	n/a	Yes	2.735	n/a	5.0	GoodResponse	0	0.024	174.438	5	17	Feedback	AvoidedLoss	True
176.863	2.735	Lose2	0.8889	n/a	Yes	2.735	n/a	n/a	GoodResponse	0	0.0	n/a	5	17	ISIslide	AvoidedLoss	True
179.612	0.25	Lose2	0.8946999999999999	0.0	Yes	2.738	0.012	n/a	GoodResponse	0	n/a	n/a	5	18	Cue	AvoidedLoss	True
179.862	4.05	Lose2	0.8946999999999999	0.0	Yes	2.738	0.0	n/a	GoodResponse	0	n/a	n/a	5	18	Fixation	AvoidedLoss	True
183.911	0.22	Lose2	0.8946999999999999	0.001	Yes	2.738	-0.001	2.0	GoodResponse	0	0.205	183.116	5	18	Target	AvoidedLoss	True
184.116	0.3	Lose2	0.8946999999999999	0.001	Yes	2.738	-0.001	2.0	GoodResponse	0	0.205	n/a	5	18	ButtonPress	AvoidedLoss	True
184.144	0.48	Lose2	0.8946999999999999	n/a	Yes	2.738	n/a	n/a	GoodResponse	0	n/a	n/a	5	18	Blank	AvoidedLoss	True
184.61	1.45	Lose2	0.8946999999999999	n/a	Yes	2.738	n/a	5.0	GoodResponse	0	0.047	183.657	5	18	Feedback	AvoidedLoss	True
186.06	2.738	Lose2	0.8946999999999999	n/a	Yes	2.738	n/a	n/a	GoodResponse	0	0.0	n/a	5	18	ISIslide	AvoidedLoss	True
188.826	0.25	Control	0.85	0.0	No	2.924	0.026	n/a	NoResponse	0	n/a	n/a	5	19	Cue	Neutral	True
189.076	3.95	Control	0.85	0.0	No	2.924	0.0	n/a	NoResponse	0	n/a	n/a	5	19	Fixation	Neutral	True
193.024	0.21	Control	0.85	0.002	No	2.924	-0.002	2.0	NoResponse	0	0.226	192.25	5	19	Target	Neutral	True
193.241	0.49	Control	0.85	n/a	No	2.924	n/a	n/a	NoResponse	0	n/a	n/a	5	19	Blank	Neutral	True
193.25	0.3	Control	0.85	0.002	No	2.924	-0.002	2.0	NoResponse	0	0.226	n/a	5	19	ButtonPress	Neutral	True
193.724	1.45	Control	0.85	n/a	No	2.924	n/a	5.0	NoResponse	0	0.007	192.731	5	19	Feedback	Neutral	True
195.173	2.924	Control	0.85	n/a	No	2.924	n/a	n/a	NoResponse	0	0.0	n/a	5	19	ISIslide	Neutral	True
198.122	0.25	Control	0.8095	0.001	No	2.628	0.022	n/a	NoResponse	0	n/a	n/a	5	20	Cue	Neutral	True
198.372	4.05	Control	0.8095	0.0	No	2.628	0.0	n/a	NoResponse	0	n/a	n/a	5	20	Fixation	Neutral	True
202.421	0.2	Control	0.8095	0.001	No	2.628	-0.001	2.0	NoResponse	0	0.224	201.645	5	20	Target	Neutral	True
202.621	0.5	Control	0.8095	n/a	No	2.628	n/a	n/a	NoResponse	0	n/a	n/a	5	20	Blank	Neutral	True
202.645	0.3	Control	0.8095	0.001	No	2.628	-0.001	2.0	NoResponse	0	0.224	n/a	5	20	ButtonPress	Neutral	True
203.121	1.45	Control	0.8095	n/a	No	2.628	n/a	5.0	NoResponse	0	0.023	202.144	5	20	Feedback	Neutral	True
204.57	2.628	Control	0.8095	n/a	No	2.628	n/a	n/a	NoResponse	0	0.0	n/a	5	20	ISIslide	Neutral	True
207.219	0.25	Control	0.7726999999999999	0.0	No	2.781	0.019	n/a	NoResponse	0	n/a	n/a	5	21	Cue	Neutral	False
207.469	4.1	Control	0.7726999999999999	0.0	No	2.781	0.0	2.0	NoResponse	0	3.162	209.631	5	21	Fixation	Neutral	False
210.631	0.3	Control	0.7726999999999999	0.0	No	2.781	0.0	2.0	NoResponse	0	3.162	n/a	5	21	ButtonPress	Neutral	False
211.568	0.19	Control	0.7726999999999999	0.001	No	2.781	-0.001	2.0	NoResponse	0	0.232	210.8	5	21	Target	Neutral	False
211.768	0.51	Control	0.7726999999999999	n/a	No	2.781	n/a	n/a	NoResponse	0	n/a	n/a	5	21	Blank	Neutral	False
211.8	0.3	Control	0.7726999999999999	0.001	No	2.781	-0.001	2.0	NoResponse	0	0.232	n/a	5	21	ButtonPress	Neutral	False
212.268	1.45	Control	0.7726999999999999	n/a	No	2.781	n/a	5.0	NoResponse	0	0.047	211.315	5	21	Feedback	Neutral	False
213.717	2.781	Control	0.7726999999999999	n/a	No	2.781	n/a	n/a	NoResponse	0	0.0	n/a	5	21	ISIslide	Neutral	False
216.516	0.25	Control	0.7391	0.0	No	2.784	0.016	n/a	NoResponse	0	n/a	n/a	5	22	Cue	Neutral	False
216.766	4.0	Control	0.7391	0.0	No	2.784	0.0	n/a	NoResponse	0	n/a	n/a	5	22	Fixation	Neutral	False
220.765	0.18	Control	0.7391	0.001	No	2.784	-0.001	n/a	NoResponse	0	n/a	n/a	5	22	Target	Neutral	False
220.948	0.52	Control	0.7391	n/a	No	2.784	n/a	n/a	NoResponse	0	n/a	n/a	5	22	Blank	Neutral	False
221.464	1.45	Control	0.7391	n/a	No	2.784	n/a	5.0	NoResponse	0	0.022	220.486	5	22	Feedback	Neutral	False
222.914	2.784	Control	0.7391	n/a	No	2.784	n/a	n/a	NoResponse	0	0.0	n/a	5	22	ISIslide	Neutral	False
225.73	0.25	Control	0.7082999999999999	0.0	No	2.77	0.03	n/a	NoResponse	0	n/a	n/a	5	23	Cue	Neutral	True
225.979	3.9	Control	0.7082999999999999	0.001	No	2.77	-0.001	n/a	NoResponse	0	n/a	n/a	5	23	Fixation	Neutral	True
229.878	0.17	Control	0.7082999999999999	0.002	No	2.77	-0.002	2.0	NoResponse	0	0.25	229.128	5	23	Target	Neutral	True
230.061	0.53	Control	0.7082999999999999	n/a	No	2.77	n/a	n/a	NoResponse	0	n/a	n/a	5	23	Blank	Neutral	True
230.128	0.3	Control	0.7082999999999999	0.002	No	2.77	-0.002	2.0	NoResponse	0	0.25	n/a	5	23	ButtonPress	Neutral	True
230.578	1.45	Control	0.7082999999999999	n/a	No	2.77	n/a	5.0	NoResponse	0	0.03	229.608	5	23	Feedback	Neutral	True
232.027	2.77	Control	0.7082999999999999	n/a	No	2.77	n/a	n/a	NoResponse	0	0.0	n/a	5	23	ISIslide	Neutral	True
234.826	0.25	Win2	0.68	0.0	No	3.124	0.026	n/a	NoResponse	0	n/a	n/a	5	24	Cue	MissedWin	True
235.076	3.95	Win2	0.68	0.0	No	3.124	0.0	n/a	NoResponse	0	n/a	n/a	5	24	Fixation	MissedWin	True
239.025	0.16	Win2	0.68	0.001	No	3.124	-0.001	2.0	NoResponse	0	0.191	238.216	5	24	Target	MissedWin	True
239.192	0.54	Win2	0.68	n/a	No	3.124	n/a	n/a	NoResponse	0	n/a	n/a	5	24	Blank	MissedWin	True
239.216	0.3	Win2	0.68	0.001	No	3.124	-0.001	2.0	NoResponse	0	0.191	n/a	5	24	ButtonPress	MissedWin	True
239.725	1.45	Win2	0.68	n/a	No	3.124	n/a	5.0	NoResponse	0	0.007	238.732	5	24	Feedback	MissedWin	True
241.174	3.124	Win2	0.68	n/a	No	3.124	n/a	n/a	NoResponse	0	0.0	n/a	5	24	ISIslide	MissedWin	True
244.323	0.25	Win2	0.6537999999999999	0.0	No	3.077	0.023	n/a	NoResponse	0	n/a	n/a	5	25	Cue	MissedWin	True
244.573	4.0	Win2	0.6537999999999999	0.0	No	3.077	0.0	n/a	NoResponse	0	n/a	n/a	5	25	Fixation	MissedWin	True
248.572	0.15	Win2	0.6537999999999999	0.001	No	3.077	-0.001	2.0	NoResponse	0	0.214	247.786	5	25	Target	MissedWin	True
248.722	0.55	Win2	0.6537999999999999	n/a	No	3.077	n/a	n/a	NoResponse	0	n/a	n/a	5	25	Blank	MissedWin	True
248.786	0.3	Win2	0.6537999999999999	0.001	No	3.077	-0.001	2.0	NoResponse	0	0.214	n/a	5	25	ButtonPress	MissedWin	True
249.271	1.45	Win2	0.6537999999999999	n/a	No	3.077	n/a	5.0	NoResponse	0	0.02	248.291	5	25	Feedback	MissedWin	True
250.721	3.077	Win2	0.6537999999999999	n/a	No	3.077	n/a	n/a	NoResponse	0	0.0	n/a	5	25	ISIslide	MissedWin	True
253.82	0.25	Win2	0.6296	0.0	No	2.93	0.02	n/a	NoResponse	0	n/a	n/a	5	26	Cue	MissedWin	True
254.07	3.95	Win2	0.6296	0.0	No	2.93	0.0	n/a	NoResponse	0	n/a	n/a	5	26	Fixation	MissedWin	True
258.018	0.16	Win2	0.6296	0.002	No	2.93	-0.002	2.0	NoResponse	0	0.208	257.226	5	26	Target	MissedWin	True
258.185	0.54	Win2	0.6296	n/a	No	2.93	n/a	n/a	NoResponse	0	n/a	n/a	5	26	Blank	MissedWin	True
258.226	0.3	Win2	0.6296	0.002	No	2.93	-0.002	2.0	NoResponse	0	0.208	n/a	5	26	ButtonPress	MissedWin	True
258.718	1.45	Win2	0.6296	n/a	No	2.93	n/a	5.0	NoResponse	0	0.037	257.755	5	26	Feedback	MissedWin	True
260.168	2.93	Win2	0.6296	n/a	No	2.93	n/a	n/a	NoResponse	0	0.0	n/a	5	26	ISIslide	MissedWin	True
263.117	0.25	Lose2	0.6071	0.0	No	2.833	0.017	n/a	NoResponse	-1	n/a	n/a	4	27	Cue	Loss	True
263.367	4.05	Lose2	0.6071	0.0	No	2.833	0.0	n/a	NoResponse	-1	n/a	n/a	4	27	Fixation	Loss	True
267.415	0.17	Lose2	0.6071	0.002	No	2.833	-0.002	2.0	NoResponse	-1	0.249	266.664	4	27	Target	Loss	True
267.598	0.53	Lose2	0.6071	n/a	No	2.833	n/a	n/a	NoResponse	-1	n/a	n/a	4	27	Blank	Loss	True
267.664	0.3	Lose2	0.6071	0.002	No	2.833	-0.002	2.0	NoResponse	-1	0.249	n/a	4	27	ButtonPress	Loss	True
268.115	1.45	Lose2	0.6071	n/a	No	2.833	n/a	5.0	NoResponse	-1	0.008	267.123	4	27	Feedback	Loss	True
269.564	2.833	Lose2	0.6071	n/a	No	2.833	n/a	n/a	NoResponse	-1	0.0	n/a	4	27	ISIslide	Loss	True
272.43	0.25	Control	0.5861999999999999	0.0	No	2.82	0.03	n/a	NoResponse	0	n/a	n/a	4	28	Cue	Neutral	True
272.68	4.05	Control	0.5861999999999999	0.0	No	2.82	0.0	n/a	NoResponse	0	n/a	n/a	4	28	Fixation	Neutral	True
276.729	0.18	Control	0.5861999999999999	0.001	No	2.82	-0.001	2.0	NoResponse	0	0.218	275.947	4	28	Target	Neutral	True
276.912	0.52	Control	0.5861999999999999	n/a	No	2.82	n/a	n/a	NoResponse	0	n/a	n/a	4	28	Blank	Neutral	True
276.947	0.3	Control	0.5861999999999999	0.001	No	2.82	-0.001	2.0	NoResponse	0	0.218	n/a	4	28	ButtonPress	Neutral	True
277.428	1.45	Control	0.5861999999999999	n/a	No	2.82	n/a	5.0	NoResponse	0	0.009	276.437	4	28	Feedback	Neutral	True
278.878	2.82	Control	0.5861999999999999	n/a	No	2.82	n/a	n/a	NoResponse	0	0.0	n/a	4	28	ISIslide	Neutral	True
281.727	0.25	Lose2	0.6	0.0	Yes	2.823	0.027	n/a	GoodResponse	0	n/a	n/a	4	29	Cue	AvoidedLoss	True
281.977	3.95	Lose2	0.6	0.0	Yes	2.823	0.0	n/a	GoodResponse	0	n/a	n/a	4	29	Fixation	AvoidedLoss	True
285.925	0.19	Lose2	0.6	0.002	Yes	2.823	-0.002	2.0	GoodResponse	0	0.188	285.113	4	29	Target	AvoidedLoss	True
286.113	0.3	Lose2	0.6	0.002	Yes	2.823	-0.002	2.0	GoodResponse	0	0.188	n/a	4	29	ButtonPress	AvoidedLoss	True
286.125	0.51	Lose2	0.6	n/a	Yes	2.823	n/a	n/a	GoodResponse	0	n/a	n/a	4	29	Blank	AvoidedLoss	True
286.625	1.45	Lose2	0.6	n/a	Yes	2.823	n/a	5.0	GoodResponse	0	0.032	285.657	4	29	Feedback	AvoidedLoss	True
288.075	2.823	Lose2	0.6	n/a	Yes	2.823	n/a	n/a	GoodResponse	0	0.0	n/a	4	29	ISIslide	AvoidedLoss	True
290.924	0.25	Win2	0.5806	0.0	No	2.776	0.024	n/a	NoResponse	0	n/a	n/a	4	30	Cue	MissedWin	True
291.174	3.9	Win2	0.5806	0.0	No	2.776	0.0	n/a	NoResponse	0	n/a	n/a	4	30	Fixation	MissedWin	True
295.072	0.2	Win2	0.5806	0.002	No	2.776	-0.002	2.0	NoResponse	0	0.215	294.287	4	30	Target	MissedWin	True
295.272	0.5	Win2	0.5806	n/a	No	2.776	n/a	n/a	NoResponse	0	n/a	n/a	4	30	Blank	MissedWin	True
295.287	0.3	Win2	0.5806	0.002	No	2.776	-0.002	2.0	NoResponse	0	0.215	n/a	4	30	ButtonPress	MissedWin	True
295.772	1.45	Win2	0.5806	n/a	No	2.776	n/a	5.0	NoResponse	0	0.007	294.779	4	30	Feedback	MissedWin	True
297.221	2.776	Win2	0.5806	n/a	No	2.776	n/a	n/a	NoResponse	0	0.0	n/a	4	30	ISIslide	MissedWin	True
300.021	0.25	Lose2	0.5938	0.0	Yes	2.829	0.021	n/a	GoodResponse	0	n/a	n/a	4	31	Cue	AvoidedLoss	True
300.27	4.05	Lose2	0.5938	0.001	Yes	2.829	-0.001	n/a	GoodResponse	0	n/a	n/a	4	31	Fixation	AvoidedLoss	True
304.319	0.21	Lose2	0.5938	0.002	Yes	2.829	-0.002	2.0	GoodResponse	0	0.178	303.497	4	31	Target	AvoidedLoss	True
304.497	0.3	Lose2	0.5938	0.002	Yes	2.829	-0.002	2.0	GoodResponse	0	0.178	n/a	4	31	ButtonPress	AvoidedLoss	True
304.536	0.49	Lose2	0.5938	n/a	Yes	2.829	n/a	n/a	GoodResponse	0	n/a	n/a	4	31	Blank	AvoidedLoss	True
305.019	1.45	Lose2	0.5938	n/a	Yes	2.829	n/a	5.0	GoodResponse	0	0.028	304.047	4	31	Feedback	AvoidedLoss	True
306.468	2.829	Lose2	0.5938	n/a	Yes	2.829	n/a	n/a	GoodResponse	0	0.0	n/a	4	31	ISIslide	AvoidedLoss	True
309.317	0.25	Lose2	0.5758	0.0	No	2.633	0.017	n/a	NoResponse	-1	n/a	n/a	3	32	Cue	Loss	True
309.567	4.15	Lose2	0.5758	0.0	No	2.633	0.0	n/a	NoResponse	-1	n/a	n/a	3	32	Fixation	Loss	True
313.716	0.22	Lose2	0.5758	0.001	No	2.633	-0.001	2.0	NoResponse	-1	0.228	312.944	3	32	Target	Loss	True
313.932	0.48	Lose2	0.5758	n/a	No	2.633	n/a	n/a	NoResponse	-1	n/a	n/a	3	32	Blank	Loss	True
313.944	0.3	Lose2	0.5758	0.001	No	2.633	-0.001	2.0	NoResponse	-1	0.228	n/a	3	32	ButtonPress	Loss	True
314.416	1.45	Lose2	0.5758	n/a	No	2.633	n/a	5.0	NoResponse	-1	0.046	313.462	3	32	Feedback	Loss	True
315.865	2.633	Lose2	0.5758	n/a	No	2.633	n/a	n/a	NoResponse	-1	0.0	n/a	3	32	ISIslide	Loss	True
318.514	0.25	Win2	0.5882000000000001	0.0	Yes	2.686	0.014	n/a	GoodResponse	1	n/a	n/a	4	33	Cue	Win	True
318.764	4.0	Win2	0.5882000000000001	0.0	Yes	2.686	0.0	n/a	GoodResponse	1	n/a	n/a	4	33	Fixation	Win	True
322.763	0.23	Win2	0.5882000000000001	0.001	Yes	2.686	-0.001	2.0	GoodResponse	1	0.207	321.97	4	33	Target	Win	True
322.97	0.3	Win2	0.5882000000000001	0.001	Yes	2.686	-0.001	2.0	GoodResponse	1	0.207	n/a	4	33	ButtonPress	Win	True
322.996	0.47	Win2	0.5882000000000001	n/a	Yes	2.686	n/a	n/a	GoodResponse	1	n/a	n/a	4	33	Blank	Win	True
323.462	1.45	Win2	0.5882000000000001	n/a	Yes	2.686	n/a	5.0	GoodResponse	1	0.023	322.485	4	33	Feedback	Win	True
324.912	2.686	Win2	0.5882000000000001	n/a	Yes	2.686	n/a	n/a	GoodResponse	1	0.0	n/a	4	33	ISIslide	Win	True
327.628	0.25	Lose2	0.6	0.0	Yes	2.622	0.028	n/a	GoodResponse	0	n/a	n/a	4	34	Cue	AvoidedLoss	True
327.878	4.05	Lose2	0.6	0.0	Yes	2.622	0.0	n/a	GoodResponse	0	n/a	n/a	4	34	Fixation	AvoidedLoss	True
331.926	0.24	Lose2	0.6	0.002	Yes	2.622	-0.002	2.0	GoodResponse	0	0.205	331.131	4	34	Target	AvoidedLoss	True
332.131	0.3	Lose2	0.6	0.002	Yes	2.622	-0.002	2.0	GoodResponse	0	0.205	n/a	4	34	ButtonPress	AvoidedLoss	True
332.176	0.46	Lose2	0.6	n/a	Yes	2.622	n/a	n/a	GoodResponse	0	n/a	n/a	4	34	Blank	AvoidedLoss	True
332.626	1.45	Lose2	0.6	n/a	Yes	2.622	n/a	5.0	GoodResponse	0	0.03	331.656	4	34	Feedback	AvoidedLoss	True
334.075	2.622	Lose2	0.6	n/a	Yes	2.622	n/a	n/a	GoodResponse	0	0.0	n/a	4	34	ISIslide	AvoidedLoss	True
336.724	0.25	Lose2	0.6111	0.001	Yes	2.676	0.024	n/a	GoodResponse	0	n/a	n/a	4	35	Cue	AvoidedLoss	True
336.974	4.0	Lose2	0.6111	0.0	Yes	2.676	0.0	n/a	GoodResponse	0	n/a	n/a	4	35	Fixation	AvoidedLoss	True
340.973	0.25	Lose2	0.6111	0.001	Yes	2.676	-0.001	2.0	GoodResponse	0	0.198	340.171	4	35	Target	AvoidedLoss	True
341.171	0.3	Lose2	0.6111	0.001	Yes	2.676	-0.001	2.0	GoodResponse	0	0.198	n/a	4	35	ButtonPress	AvoidedLoss	True
341.223	0.45	Lose2	0.6111	n/a	Yes	2.676	n/a	n/a	GoodResponse	0	n/a	n/a	4	35	Blank	AvoidedLoss	True
341.673	1.45	Lose2	0.6111	n/a	Yes	2.676	n/a	5.0	GoodResponse	0	0.008	340.681	4	35	Feedback	AvoidedLoss	True
343.122	2.676	Lose2	0.6111	n/a	Yes	2.676	n/a	n/a	GoodResponse	0	0.0	n/a	4	35	ISIslide	AvoidedLoss	True
345.821	0.25	Control	0.5946	0.0	No	2.679	0.021	n/a	NoResponse	0	n/a	n/a	4	36	Cue	Neutral	True
346.071	4.0	Control	0.5946	0.0	No	2.679	0.0	n/a	NoResponse	0	n/a	n/a	4	36	Fixation	Neutral	True
350.07	0.26	Control	0.5946	0.001	No	2.679	-0.001	2.0	NoResponse	0	0.273	349.343	4	36	Target	Neutral	True
350.336	0.44	Control	0.5946	n/a	No	2.679	n/a	n/a	NoResponse	0	n/a	n/a	4	36	Blank	Neutral	True
350.343	0.3	Control	0.5946	0.001	No	2.679	-0.001	2.0	NoResponse	0	0.273	n/a	4	36	ButtonPress	Neutral	True
350.77	1.45	Control	0.5946	n/a	No	2.679	n/a	5.0	NoResponse	0	0.033	349.803	4	36	Feedback	Neutral	True
352.219	2.679	Control	0.5946	n/a	No	2.679	n/a	n/a	NoResponse	0	0.0	n/a	4	36	ISIslide	Neutral	True
354.918	0.25	Win2	0.6053000000000001	0.0	Yes	2.882	0.018	n/a	GoodResponse	1	n/a	n/a	5	37	Cue	Win	True
355.168	4.0	Win2	0.6053000000000001	0.0	Yes	2.882	0.0	n/a	GoodResponse	1	n/a	n/a	5	37	Fixation	Win	True
359.167	0.27	Win2	0.6053000000000001	0.001	Yes	2.882	-0.001	2.0	GoodResponse	1	0.209	358.376	5	37	Target	Win	True
359.376	0.3	Win2	0.6053000000000001	0.001	Yes	2.882	-0.001	2.0	GoodResponse	1	0.209	n/a	5	37	ButtonPress	Win	True
359.45	0.43	Win2	0.6053000000000001	n/a	Yes	2.882	n/a	n/a	GoodResponse	1	n/a	n/a	5	37	Blank	Win	True
359.866	1.45	Win2	0.6053000000000001	n/a	Yes	2.882	n/a	5.0	GoodResponse	1	0.01	358.876	5	37	Feedback	Win	True
361.316	2.882	Win2	0.6053000000000001	n/a	Yes	2.882	n/a	n/a	GoodResponse	1	0.0	n/a	5	37	ISIslide	Win	True
364.215	0.25	Lose2	0.6154	0.0	Yes	2.835	0.015	n/a	GoodResponse	0	n/a	n/a	5	38	Cue	AvoidedLoss	True
364.465	3.95	Lose2	0.6154	0.0	Yes	2.835	0.0	n/a	GoodResponse	0	n/a	n/a	5	38	Fixation	AvoidedLoss	True
368.414	0.28	Lose2	0.6154	0.001	Yes	2.835	-0.001	2.0	GoodResponse	0	0.177	367.591	5	38	Target	AvoidedLoss	True
368.591	0.3	Lose2	0.6154	0.001	Yes	2.835	-0.001	2.0	GoodResponse	0	0.177	n/a	5	38	ButtonPress	AvoidedLoss	True
368.697	0.42	Lose2	0.6154	n/a	Yes	2.835	n/a	n/a	GoodResponse	0	n/a	n/a	5	38	Blank	AvoidedLoss	True
369.113	1.45	Lose2	0.6154	n/a	Yes	2.835	n/a	5.0	GoodResponse	0	0.032	368.145	5	38	Feedback	AvoidedLoss	True
370.563	2.835	Lose2	0.6154	n/a	Yes	2.835	n/a	n/a	GoodResponse	0	0.0	n/a	5	38	ISIslide	AvoidedLoss	True
373.428	0.25	Win2	0.625	0.001	Yes	2.972	0.028	n/a	GoodResponse	1	n/a	n/a	6	39	Cue	Win	True
373.678	4.1	Win2	0.625	0.0	Yes	2.972	0.0	n/a	GoodResponse	1	n/a	n/a	6	39	Fixation	Win	True
377.777	0.29	Win2	0.625	0.001	Yes	2.972	-0.001	2.0	GoodResponse	1	0.205	376.982	6	39	Target	Win	True
377.982	0.3	Win2	0.625	0.001	Yes	2.972	-0.001	2.0	GoodResponse	1	0.205	n/a	6	39	ButtonPress	Win	True
378.077	0.41	Win2	0.625	n/a	Yes	2.972	n/a	n/a	GoodResponse	1	n/a	n/a	6	39	Blank	Win	True
378.477	1.45	Win2	0.625	n/a	Yes	2.972	n/a	5.0	GoodResponse	1	0.034	377.511	6	39	Feedback	Win	True
379.926	2.972	Win2	0.625	n/a	Yes	2.972	n/a	n/a	GoodResponse	1	0.0	n/a	6	39	ISIslide	Win	True
382.925	0.25	Win2	0.6098	0.0	No	2.725	0.025	n/a	NoResponse	0	n/a	n/a	6	40	Cue	MissedWin	True
383.175	3.95	Win2	0.6098	0.0	No	2.725	0.0	n/a	NoResponse	0	n/a	n/a	6	40	Fixation	MissedWin	True
387.124	0.3	Win2	0.6098	0.001	No	2.725	-0.001	2.0	NoResponse	0	0.329	386.453	6	40	Target	MissedWin	True
387.424	0.4	Win2	0.6098	n/a	No	2.725	n/a	n/a	NoResponse	0	n/a	n/a	6	40	Blank	MissedWin	True
387.453	0.3	Win2	0.6098	0.001	No	2.725	-0.001	2.0	NoResponse	0	0.329	n/a	6	40	ButtonPress	MissedWin	True
387.823	1.45	Win2	0.6098	n/a	No	2.725	n/a	5.0	NoResponse	0	0.008	386.831	6	40	Feedback	MissedWin	True
389.273	2.725	Win2	0.6098	n/a	No	2.725	n/a	n/a	NoResponse	0	0.0	n/a	6	40	ISIslide	MissedWin	True
392.022	0.25	Win2	0.619	0.0	Yes	2.778	0.022	n/a	GoodResponse	1	n/a	n/a	7	41	Cue	Win	True
392.272	3.9	Win2	0.619	0.0	Yes	2.778	0.0	n/a	GoodResponse	1	n/a	n/a	7	41	Fixation	Win	True
396.171	0.31	Win2	0.619	0.001	Yes	2.778	-0.001	2.0	GoodResponse	1	0.203	395.374	7	41	Target	Win	True
396.374	0.3	Win2	0.619	0.001	Yes	2.778	-0.001	2.0	GoodResponse	1	0.203	n/a	7	41	ButtonPress	Win	True
396.487	0.39	Win2	0.619	n/a	Yes	2.778	n/a	n/a	GoodResponse	1	n/a	n/a	7	41	Blank	Win	True
396.87	1.45	Win2	0.619	n/a	Yes	2.778	n/a	5.0	GoodResponse	1	0.03	395.9	7	41	Feedback	Win	True
398.32	2.778	Win2	0.619	n/a	Yes	2.778	n/a	n/a	GoodResponse	1	0.0	n/a	7	41	ISIslide	Win	True
401.119	0.25	Control	0.6279	0.0	Yes	2.931	0.019	n/a	GoodResponse	0	n/a	n/a	7	42	Cue	Neutral	True
401.369	3.85	Control	0.6279	0.0	Yes	2.931	0.0	n/a	GoodResponse	0	n/a	n/a	7	42	Fixation	Neutral	True
405.217	0.32	Control	0.6279	0.002	Yes	2.931	-0.002	2.0	GoodResponse	0	0.292	404.509	7	42	Target	Neutral	True
405.509	0.3	Control	0.6279	0.002	Yes	2.931	-0.002	2.0	GoodResponse	0	0.292	n/a	7	42	ButtonPress	Neutral	True
405.551	0.38	Control	0.6279	n/a	Yes	2.931	n/a	n/a	GoodResponse	0	n/a	n/a	7	42	Blank	Neutral	True
405.917	1.45	Control	0.6279	n/a	Yes	2.931	n/a	5.0	GoodResponse	0	0.008	404.925	7	42	Feedback	Neutral	True
407.367	2.931	Control	0.6279	n/a	Yes	2.931	n/a	n/a	GoodResponse	0	0.0	n/a	7	42	ISIslide	Neutral	True
410.316	0.25	Win2	0.6364	0.0	Yes	3.184	0.016	n/a	GoodResponse	1	n/a	n/a	8	43	Cue	Win	True
410.566	4.0	Win2	0.6364	0.0	Yes	3.184	0.0	n/a	GoodResponse	1	n/a	n/a	8	43	Fixation	Win	True
414.564	0.33	Win2	0.6364	0.002	Yes	3.184	-0.002	2.0	GoodResponse	1	0.196	413.76	8	43	Target	Win	True
414.76	0.3	Win2	0.6364	0.002	Yes	3.184	-0.002	2.0	GoodResponse	1	0.196	n/a	8	43	ButtonPress	Win	True
414.897	0.37	Win2	0.6364	n/a	Yes	3.184	n/a	n/a	GoodResponse	1	n/a	n/a	8	43	Blank	Win	True
415.264	1.45	Win2	0.6364	n/a	Yes	3.184	n/a	5.0	GoodResponse	1	0.026	414.29	8	43	Feedback	Win	True
416.713	3.184	Win2	0.6364	n/a	Yes	3.184	n/a	n/a	GoodResponse	1	0.0	n/a	8	43	ISIslide	Win	True
419.929	0.25	Win2	0.6444	0.0	Yes	2.971	0.029	n/a	GoodResponse	1	n/a	n/a	9	44	Cue	Win	True
420.179	4.0	Win2	0.6444	0.0	Yes	2.971	0.0	n/a	GoodResponse	1	n/a	n/a	9	44	Fixation	Win	True
424.178	0.34	Win2	0.6444	0.001	Yes	2.971	-0.001	2.0	GoodResponse	1	0.266	423.444	9	44	Target	Win	True
424.444	0.3	Win2	0.6444	0.001	Yes	2.971	-0.001	2.0	GoodResponse	1	0.266	n/a	9	44	ButtonPress	Win	True
424.527	0.36	Win2	0.6444	n/a	Yes	2.971	n/a	n/a	GoodResponse	1	n/a	n/a	9	44	Blank	Win	True
424.877	1.45	Win2	0.6444	n/a	Yes	2.971	n/a	5.0	GoodResponse	1	0.023	423.9	9	44	Feedback	Win	True
426.327	2.971	Win2	0.6444	n/a	Yes	2.971	n/a	n/a	GoodResponse	1	0.0	n/a	9	44	ISIslide	Win	True
429.326	0.25	Control	0.6522	0.0	Yes	2.874	0.026	n/a	GoodResponse	0	n/a	n/a	9	45	Cue	Neutral	False
429.576	4.1	Control	0.6522	0.0	Yes	2.874	0.0	2.0	GoodResponse	0	3.967	432.543	9	45	Fixation	Neutral	False
433.543	0.3	Control	0.6522	0.0	Yes	2.874	0.0	2.0	GoodResponse	0	3.967	n/a	9	45	ButtonPress	Neutral	False
433.674	0.35	Control	0.6522	0.002	Yes	2.874	-0.002	2.0	GoodResponse	0	0.252	432.926	9	45	Target	Neutral	False
433.926	0.3	Control	0.6522	0.002	Yes	2.874	-0.002	2.0	GoodResponse	0	0.252	n/a	9	45	ButtonPress	Neutral	False
434.024	0.35	Control	0.6522	n/a	Yes	2.874	n/a	n/a	GoodResponse	0	n/a	n/a	9	45	Blank	Neutral	False
434.374	1.45	Control	0.6522	n/a	Yes	2.874	n/a	5.0	GoodResponse	0	0.039	433.413	9	45	Feedback	Neutral	False
435.824	2.874	Control	0.6522	n/a	Yes	2.874	n/a	n/a	GoodResponse	0	0.0	n/a	9	45	ISIslide	Neutral	False
438.723	0.25	Lose2	0.6596	0.0	Yes	3.377	0.023	n/a	GoodResponse	0	n/a	n/a	9	46	Cue	AvoidedLoss	True
438.972	4.0	Lose2	0.6596	0.001	Yes	3.377	-0.001	n/a	GoodResponse	0	n/a	n/a	9	46	Fixation	AvoidedLoss	True
442.971	0.36	Lose2	0.6596	0.002	Yes	3.377	-0.002	2.0	GoodResponse	0	0.225	442.196	9	46	Target	AvoidedLoss	True
443.196	0.3	Lose2	0.6596	0.002	Yes	3.377	-0.002	2.0	GoodResponse	0	0.225	n/a	9	46	ButtonPress	AvoidedLoss	True
443.338	0.34	Lose2	0.6596	n/a	Yes	3.377	n/a	n/a	GoodResponse	0	n/a	n/a	9	46	Blank	AvoidedLoss	True
443.671	1.45	Lose2	0.6596	n/a	Yes	3.377	n/a	5.0	GoodResponse	0	0.009	442.68	9	46	Feedback	AvoidedLoss	True
445.12	3.377	Lose2	0.6596	n/a	Yes	3.377	n/a	n/a	GoodResponse	0	0.0	n/a	9	46	ISIslide	AvoidedLoss	True
448.519	0.25	Lose2	0.6667000000000001	0.0	Yes	2.681	0.019	n/a	GoodResponse	0	n/a	n/a	9	47	Cue	AvoidedLoss	True
448.769	4.0	Lose2	0.6667000000000001	0.0	Yes	2.681	0.0	n/a	GoodResponse	0	n/a	n/a	9	47	Fixation	AvoidedLoss	True
452.768	0.36	Lose2	0.6667000000000001	0.001	Yes	2.681	-0.001	2.0	GoodResponse	0	0.325	452.093	9	47	Target	AvoidedLoss	True
453.093	0.3	Lose2	0.6667000000000001	0.001	Yes	2.681	-0.001	2.0	GoodResponse	0	0.325	n/a	9	47	ButtonPress	AvoidedLoss	True
453.134	0.34	Lose2	0.6667000000000001	n/a	Yes	2.681	n/a	n/a	GoodResponse	0	n/a	n/a	9	47	Blank	AvoidedLoss	True
453.468	1.45	Lose2	0.6667000000000001	n/a	Yes	2.681	n/a	5.0	GoodResponse	0	0.017	452.485	9	47	Feedback	AvoidedLoss	True
454.917	2.681	Lose2	0.6667000000000001	n/a	Yes	2.681	n/a	n/a	GoodResponse	0	0.0	n/a	9	47	ISIslide	AvoidedLoss	True
457.616	0.25	Lose2	0.6735	0.0	Yes	3.034	0.016	n/a	GoodResponse	0	n/a	n/a	9	48	Cue	AvoidedLoss	True
457.866	3.95	Lose2	0.6735	0.0	Yes	3.034	0.0	n/a	GoodResponse	0	n/a	n/a	9	48	Fixation	AvoidedLoss	True
461.815	0.35	Lose2	0.6735	0.001	Yes	3.034	-0.001	2.0	GoodResponse	0	0.254	461.069	9	48	Target	AvoidedLoss	True
462.069	0.3	Lose2	0.6735	0.001	Yes	3.034	-0.001	2.0	GoodResponse	0	0.254	n/a	9	48	ButtonPress	AvoidedLoss	True
462.164	0.35	Lose2	0.6735	n/a	Yes	3.034	n/a	n/a	GoodResponse	0	n/a	n/a	9	48	Blank	AvoidedLoss	True
462.514	1.45	Lose2	0.6735	n/a	Yes	3.034	n/a	5.0	GoodResponse	0	0.044	461.558	9	48	Feedback	AvoidedLoss	True
463.964	3.034	Lose2	0.6735	n/a	Yes	3.034	n/a	n/a	GoodResponse	0	0.0	n/a	9	48	ISIslide	AvoidedLoss	True
467.029	0.25	Control	0.66	0.0	No	2.871	0.029	n/a	NoResponse	0	n/a	n/a	9	49	Cue	Neutral	True
467.279	4.0	Control	0.66	0.0	No	2.871	0.0	n/a	NoResponse	0	n/a	n/a	9	49	Fixation	Neutral	True
471.278	0.34	Control	0.66	0.001	No	2.871	-0.001	2.0	NoResponse	0	0.437	470.715	9	49	Target	Neutral	True
471.628	0.36	Control	0.66	n/a	No	2.871	n/a	n/a	NoResponse	0	n/a	n/a	9	49	Blank	Neutral	True
471.715	0.3	Control	0.66	0.001	No	2.871	-0.001	2.0	NoResponse	0	0.437	n/a	9	49	ButtonPress	Neutral	True
471.978	1.45	Control	0.66	n/a	No	2.871	n/a	5.0	NoResponse	0	0.044	471.022	9	49	Feedback	Neutral	True
473.427	2.871	Control	0.66	n/a	No	2.871	n/a	n/a	NoResponse	0	0.0	n/a	9	49	ISIslide	Neutral	True
476.326	0.25	Control	0.6667000000000001	0.0	Yes	2.774	0.026	n/a	GoodResponse	0	n/a	n/a	9	50	Cue	Neutral	True
476.576	4.0	Control	0.6667000000000001	0.0	Yes	2.774	0.0	n/a	GoodResponse	0	n/a	n/a	9	50	Fixation	Neutral	True
480.575	0.34	Control	0.6667000000000001	0.001	Yes	2.774	-0.001	2.0	GoodResponse	0	0.214	479.789	9	50	Target	Neutral	True
480.789	0.3	Control	0.6667000000000001	0.001	Yes	2.774	-0.001	2.0	GoodResponse	0	0.214	n/a	9	50	ButtonPress	Neutral	True
480.925	0.36	Control	0.6667000000000001	n/a	Yes	2.774	n/a	n/a	GoodResponse	0	n/a	n/a	9	50	Blank	Neutral	True
481.274	1.45	Control	0.6667000000000001	n/a	Yes	2.774	n/a	5.0	GoodResponse	0	0.016	480.29	9	50	Feedback	Neutral	True
482.724	2.774	Control	0.6667000000000001	n/a	Yes	2.774	n/a	n/a	GoodResponse	0	0.0	n/a	9	50	ISIslide	Neutral	True
485.523	0.25	Control	0.6731	0.0	Yes	2.727	0.023	n/a	GoodResponse	0	n/a	n/a	9	51	Cue	Neutral	True
485.773	3.95	Control	0.6731	0.0	Yes	2.727	0.0	n/a	GoodResponse	0	n/a	n/a	9	51	Fixation	Neutral	True
489.722	0.33	Control	0.6731	0.001	Yes	2.727	-0.001	2.0	GoodResponse	0	0.269	488.991	9	51	Target	Neutral	True
489.991	0.3	Control	0.6731	0.001	Yes	2.727	-0.001	2.0	GoodResponse	0	0.269	n/a	9	51	ButtonPress	Neutral	True
490.055	0.37	Control	0.6731	n/a	Yes	2.727	n/a	n/a	GoodResponse	0	n/a	n/a	9	51	Blank	Neutral	True
490.421	1.45	Control	0.6731	n/a	Yes	2.727	n/a	5.0	GoodResponse	0	0.04	489.461	9	51	Feedback	Neutral	True
491.871	2.727	Control	0.6731	n/a	Yes	2.727	n/a	n/a	GoodResponse	0	0.0	n/a	9	51	ISIslide	Neutral	True
494.62	0.25	Control	0.6792	0.0	Yes	2.63	0.02	n/a	GoodResponse	0	n/a	n/a	9	52	Cue	Neutral	True
494.87	4.05	Control	0.6792	0.0	Yes	2.63	0.0	n/a	GoodResponse	0	n/a	n/a	9	52	Fixation	Neutral	True
498.918	0.32	Control	0.6792	0.002	Yes	2.63	-0.002	2.0	GoodResponse	0	0.238	498.156	9	52	Target	Neutral	True
499.156	0.3	Control	0.6792	0.002	Yes	2.63	-0.002	2.0	GoodResponse	0	0.238	n/a	9	52	ButtonPress	Neutral	True
499.252	0.38	Control	0.6792	n/a	Yes	2.63	n/a	n/a	GoodResponse	0	n/a	n/a	9	52	Blank	Neutral	True
499.618	1.45	Control	0.6792	n/a	Yes	2.63	n/a	5.0	GoodResponse	0	0.014	498.632	9	52	Feedback	Neutral	True
501.068	2.63	Control	0.6792	n/a	Yes	2.63	n/a	n/a	GoodResponse	0	0.0	n/a	9	52	ISIslide	Neutral	True
503.717	0.25	Win2	0.6851999999999999	0.0	Yes	2.933	0.017	n/a	GoodResponse	1	n/a	n/a	10	53	Cue	Win	True
503.967	4.05	Win2	0.6851999999999999	0.0	Yes	2.933	0.0	n/a	GoodResponse	1	n/a	n/a	10	53	Fixation	Win	True
508.015	0.31	Win2	0.6851999999999999	0.002	Yes	2.933	-0.002	2.0	GoodResponse	1	0.211	507.226	10	53	Target	Win	True
508.226	0.3	Win2	0.6851999999999999	0.002	Yes	2.933	-0.002	2.0	GoodResponse	1	0.211	n/a	10	53	ButtonPress	Win	True
508.332	0.39	Win2	0.6851999999999999	n/a	Yes	2.933	n/a	n/a	GoodResponse	1	n/a	n/a	10	53	Blank	Win	True
508.715	1.45	Win2	0.6851999999999999	n/a	Yes	2.933	n/a	5.0	GoodResponse	1	0.038	507.753	10	53	Feedback	Win	True
510.165	2.933	Win2	0.6851999999999999	n/a	Yes	2.933	n/a	n/a	GoodResponse	1	0.0	n/a	10	53	ISIslide	Win	True
513.13	0.25	Win2	0.6909000000000001	0.0	Yes	2.72	0.03	n/a	GoodResponse	1	n/a	n/a	11	54	Cue	Win	True
513.38	3.95	Win2	0.6909000000000001	0.0	Yes	2.72	0.0	n/a	GoodResponse	1	n/a	n/a	11	54	Fixation	Win	True
517.329	0.3	Win2	0.6909000000000001	0.001	Yes	2.72	-0.001	2.0	GoodResponse	1	0.194	516.523	11	54	Target	Win	True
517.523	0.3	Win2	0.6909000000000001	0.001	Yes	2.72	-0.001	2.0	GoodResponse	1	0.194	n/a	11	54	ButtonPress	Win	True
517.629	0.4	Win2	0.6909000000000001	n/a	Yes	2.72	n/a	n/a	GoodResponse	1	n/a	n/a	11	54	Blank	Win	True
518.028	1.45	Win2	0.6909000000000001	n/a	Yes	2.72	n/a	5.0	GoodResponse	1	0.042	517.07	11	54	Feedback	Win	True
519.478	2.72	Win2	0.6909000000000001	n/a	Yes	2.72	n/a	n/a	GoodResponse	1	0.0	n/a	11	54	ISIslide	Win	True
522.227	0.25	Control	0.6964	0.0	Yes	3.023	0.027	n/a	GoodResponse	0	n/a	n/a	11	55	Cue	Neutral	True
522.477	3.95	Control	0.6964	0.0	Yes	3.023	0.0	n/a	GoodResponse	0	n/a	n/a	11	55	Fixation	Neutral	True
526.426	0.29	Control	0.6964	0.001	Yes	3.023	-0.001	2.0	GoodResponse	0	0.232	525.658	11	55	Target	Neutral	True
526.658	0.3	Control	0.6964	0.001	Yes	3.023	-0.001	2.0	GoodResponse	0	0.232	n/a	11	55	ButtonPress	Neutral	True
526.725	0.41	Control	0.6964	n/a	Yes	3.023	n/a	n/a	GoodResponse	0	n/a	n/a	11	55	Blank	Neutral	True
527.125	1.45	Control	0.6964	n/a	Yes	3.023	n/a	5.0	GoodResponse	0	0.019	526.144	11	55	Feedback	Neutral	True
528.575	3.023	Control	0.6964	n/a	Yes	3.023	n/a	n/a	GoodResponse	0	0.0	n/a	11	55	ISIslide	Neutral	True
531.624	0.25	Control	0.6842	0.0	No	2.826	0.024	n/a	NoResponse	0	n/a	n/a	11	56	Cue	Neutral	True
531.874	3.95	Control	0.6842	0.0	No	2.826	0.0	n/a	NoResponse	0	n/a	n/a	11	56	Fixation	Neutral	True
535.822	0.28	Control	0.6842	0.002	No	2.826	-0.002	2.0	NoResponse	0	0.292	535.114	11	56	Target	Neutral	True
536.106	0.42	Control	0.6842	n/a	No	2.826	n/a	n/a	NoResponse	0	n/a	n/a	11	56	Blank	Neutral	True
536.114	0.3	Control	0.6842	0.002	No	2.826	-0.002	2.0	NoResponse	0	0.292	n/a	11	56	ButtonPress	Neutral	True
536.522	1.45	Control	0.6842	n/a	No	2.826	n/a	5.0	NoResponse	0	0.036	535.558	11	56	Feedback	Neutral	True
537.972	2.826	Control	0.6842	n/a	No	2.826	n/a	n/a	NoResponse	0	0.0	n/a	11	56	ISIslide	Neutral	True
540.821	0.25	Control	0.6897	0.0	Yes	3.479	0.021	n/a	GoodResponse	0	n/a	n/a	11	57	Cue	Neutral	False
541.07	4.0	Control	0.6897	0.001	Yes	3.479	-0.001	2.0	GoodResponse	0	0.236	540.306	11	57	Fixation	Neutral	False
541.306	0.3	Control	0.6897	0.001	Yes	3.479	-0.001	2.0	GoodResponse	0	0.236	n/a	11	57	ButtonPress	Neutral	False
545.069	0.27	Control	0.6897	0.002	Yes	3.479	-0.002	2.0	GoodResponse	0	0.235	544.304	11	57	Target	Neutral	False
545.304	0.3	Control	0.6897	0.002	Yes	3.479	-0.002	2.0	GoodResponse	0	0.235	n/a	11	57	ButtonPress	Neutral	False
545.352	0.43	Control	0.6897	n/a	Yes	3.479	n/a	n/a	GoodResponse	0	n/a	n/a	11	57	Blank	Neutral	False
545.769	1.45	Control	0.6897	n/a	Yes	3.479	n/a	5.0	GoodResponse	0	0.009	544.778	11	57	Feedback	Neutral	False
547.218	3.479	Control	0.6897	n/a	Yes	3.479	n/a	n/a	GoodResponse	0	0.0	n/a	11	57	ISIslide	Neutral	False
550.717	0.25	Win2	0.6949	0.0	Yes	2.733	0.017	n/a	GoodResponse	1	n/a	n/a	12	58	Cue	Win	True
550.967	4.05	Win2	0.6949	0.0	Yes	2.733	0.0	n/a	GoodResponse	1	n/a	n/a	12	58	Fixation	Win	True
555.016	0.26	Win2	0.6949	0.001	Yes	2.733	-0.001	2.0	GoodResponse	1	0.201	554.217	12	58	Target	Win	True
555.217	0.3	Win2	0.6949	0.001	Yes	2.733	-0.001	2.0	GoodResponse	1	0.201	n/a	12	58	ButtonPress	Win	True
555.282	0.44	Win2	0.6949	n/a	Yes	2.733	n/a	n/a	GoodResponse	1	n/a	n/a	12	58	Blank	Win	True
555.715	1.45	Win2	0.6949	n/a	Yes	2.733	n/a	5.0	GoodResponse	1	0.014	554.729	12	58	Feedback	Win	True
557.165	2.733	Win2	0.6949	n/a	Yes	2.733	n/a	n/a	GoodResponse	1	0.0	n/a	12	58	ISIslide	Win	True
559.914	0.25	Lose2	0.6833	0.0	No	2.686	0.014	n/a	NoResponse	-1	n/a	n/a	11	59	Cue	Loss	True
560.164	4.0	Lose2	0.6833	0.0	No	2.686	0.0	n/a	NoResponse	-1	n/a	n/a	11	59	Fixation	Loss	True
564.163	0.25	Lose2	0.6833	0.001	No	2.686	-0.001	2.0	NoResponse	-1	0.299	563.462	11	59	Target	Loss	True
564.412	0.45	Lose2	0.6833	n/a	No	2.686	n/a	n/a	NoResponse	-1	n/a	n/a	11	59	Blank	Loss	True
564.462	0.3	Lose2	0.6833	0.001	No	2.686	-0.001	2.0	NoResponse	-1	0.299	n/a	11	59	ButtonPress	Loss	True
564.862	1.45	Lose2	0.6833	n/a	No	2.686	n/a	5.0	NoResponse	-1	0.037	563.899	11	59	Feedback	Loss	True
566.312	2.686	Lose2	0.6833	n/a	No	2.686	n/a	n/a	NoResponse	-1	0.0	n/a	11	59	ISIslide	Loss	True
569.027	0.25	Control	0.6720999999999999	0.001	No	2.673	0.027	n/a	NoResponse	0	n/a	n/a	11	60	Cue	Neutral	True
569.277	4.0	Control	0.6720999999999999	0.0	No	2.673	0.0	n/a	NoResponse	0	n/a	n/a	11	60	Fixation	Neutral	True
573.276	0.24	Control	0.6720999999999999	0.001	No	2.673	-0.001	2.0	NoResponse	0	0.29	572.566	11	60	Target	Neutral	True
573.526	0.46	Control	0.6720999999999999	n/a	No	2.673	n/a	n/a	NoResponse	0	n/a	n/a	11	60	Blank	Neutral	True
573.566	0.3	Control	0.6720999999999999	0.001	No	2.673	-0.001	2.0	NoResponse	0	0.29	n/a	11	60	ButtonPress	Neutral	True
573.976	1.45	Control	0.6720999999999999	n/a	No	2.673	n/a	5.0	NoResponse	0	0.045	573.021	11	60	Feedback	Neutral	True
575.425	2.673	Control	0.6720999999999999	n/a	No	2.673	n/a	n/a	NoResponse	0	0.0	n/a	11	60	ISIslide	Neutral	True
578.124	0.25	Lose2	0.6774	0.0	Yes	2.976	0.024	n/a	GoodResponse	0	n/a	n/a	11	61	Cue	AvoidedLoss	True
578.374	4.0	Lose2	0.6774	0.0	Yes	2.976	0.0	n/a	GoodResponse	0	n/a	n/a	11	61	Fixation	AvoidedLoss	True
582.373	0.23	Lose2	0.6774	0.001	Yes	2.976	-0.001	2.0	GoodResponse	0	0.21	581.583	11	61	Target	AvoidedLoss	True
582.583	0.3	Lose2	0.6774	0.001	Yes	2.976	-0.001	2.0	GoodResponse	0	0.21	n/a	11	61	ButtonPress	AvoidedLoss	True
582.606	0.47	Lose2	0.6774	n/a	Yes	2.976	n/a	n/a	GoodResponse	0	n/a	n/a	11	61	Blank	AvoidedLoss	True
583.073	1.45	Lose2	0.6774	n/a	Yes	2.976	n/a	5.0	GoodResponse	0	0.021	582.094	11	61	Feedback	AvoidedLoss	True
584.522	2.976	Lose2	0.6774	n/a	Yes	2.976	n/a	n/a	GoodResponse	0	0.0	n/a	11	61	ISIslide	AvoidedLoss	True
587.521	0.25	Lose2	0.6825	0.0	Yes	2.879	0.021	n/a	GoodResponse	0	n/a	n/a	11	62	Cue	AvoidedLoss	True
587.771	3.9	Lose2	0.6825	0.0	Yes	2.879	0.0	n/a	GoodResponse	0	n/a	n/a	11	62	Fixation	AvoidedLoss	True
591.67	0.22	Lose2	0.6825	0.001	Yes	2.879	-0.001	2.0	GoodResponse	0	0.217	590.887	11	62	Target	AvoidedLoss	True
591.887	0.3	Lose2	0.6825	0.001	Yes	2.879	-0.001	2.0	GoodResponse	0	0.217	n/a	11	62	ButtonPress	AvoidedLoss	True
591.903	0.48	Lose2	0.6825	n/a	Yes	2.879	n/a	n/a	GoodResponse	0	n/a	n/a	11	62	Blank	AvoidedLoss	True
592.369	1.45	Lose2	0.6825	n/a	Yes	2.879	n/a	5.0	GoodResponse	0	0.043	591.412	11	62	Feedback	AvoidedLoss	True
593.819	2.879	Lose2	0.6825	n/a	Yes	2.879	n/a	n/a	GoodResponse	0	0.0	n/a	11	62	ISIslide	AvoidedLoss	True
596.718	0.25	Lose2	0.6875	0.0	Yes	2.632	0.018	n/a	GoodResponse	0	n/a	n/a	11	63	Cue	AvoidedLoss	True
596.968	4.05	Lose2	0.6875	0.0	Yes	2.632	0.0	n/a	GoodResponse	0	n/a	n/a	11	63	Fixation	AvoidedLoss	True
601.016	0.21	Lose2	0.6875	0.002	Yes	2.632	-0.002	2.0	GoodResponse	0	0.209	600.225	11	63	Target	AvoidedLoss	True
601.225	0.3	Lose2	0.6875	0.002	Yes	2.632	-0.002	2.0	GoodResponse	0	0.209	n/a	11	63	ButtonPress	AvoidedLoss	True
601.233	0.49	Lose2	0.6875	n/a	Yes	2.632	n/a	n/a	GoodResponse	0	n/a	n/a	11	63	Blank	AvoidedLoss	True
601.716	1.45	Lose2	0.6875	n/a	Yes	2.632	n/a	5.0	GoodResponse	0	0.013	600.729	11	63	Feedback	AvoidedLoss	True
603.166	2.632	Lose2	0.6875	n/a	Yes	2.632	n/a	n/a	GoodResponse	0	0.0	n/a	11	63	ISIslide	AvoidedLoss	True
605.815	0.25	Win2	0.6923	0.0	Yes	3.135	0.015	n/a	GoodResponse	1	n/a	n/a	12	64	Cue	Win	True
606.065	4.15	Win2	0.6923	0.0	Yes	3.135	0.0	n/a	GoodResponse	1	n/a	n/a	12	64	Fixation	Win	True
610.213	0.2	Win2	0.6923	0.002	Yes	3.135	-0.002	2.0	GoodResponse	1	0.195	609.408	12	64	Target	Win	True
610.408	0.3	Win2	0.6923	0.002	Yes	3.135	-0.002	2.0	GoodResponse	1	0.195	n/a	12	64	ButtonPress	Win	True
610.413	0.5	Win2	0.6923	n/a	Yes	3.135	n/a	n/a	GoodResponse	1	n/a	n/a	12	64	Blank	Win	True
610.913	1.45	Win2	0.6923	n/a	Yes	3.135	n/a	5.0	GoodResponse	1	0.036	609.949	12	64	Feedback	Win	True
612.363	3.135	Win2	0.6923	n/a	Yes	3.135	n/a	n/a	GoodResponse	1	0.0	n/a	12	64	ISIslide	Win	True
615.528	0.25	Control	0.6818000000000001	0.0	No	2.772	0.028	n/a	NoResponse	0	n/a	n/a	12	65	Cue	Neutral	True
615.778	4.0	Control	0.6818000000000001	0.0	No	2.772	0.0	n/a	NoResponse	0	n/a	n/a	12	65	Fixation	Neutral	True
619.777	0.19	Control	0.6818000000000001	0.001	No	2.772	-0.001	2.0	NoResponse	0	0.231	619.008	12	65	Target	Neutral	True
619.977	0.51	Control	0.6818000000000001	n/a	No	2.772	n/a	n/a	NoResponse	0	n/a	n/a	12	65	Blank	Neutral	True
620.008	0.3	Control	0.6818000000000001	0.001	No	2.772	-0.001	2.0	NoResponse	0	0.231	n/a	12	65	ButtonPress	Neutral	True
620.476	1.45	Control	0.6818000000000001	n/a	No	2.772	n/a	5.0	NoResponse	0	0.033	619.509	12	65	Feedback	Neutral	True
621.926	2.772	Control	0.6818000000000001	n/a	No	2.772	n/a	n/a	NoResponse	0	0.0	n/a	12	65	ISIslide	Neutral	True
624.725	0.25	Win2	0.6716	0.0	No	2.775	0.025	n/a	NoResponse	0	n/a	n/a	12	66	Cue	MissedWin	True
624.975	3.9	Win2	0.6716	0.0	No	2.775	0.0	n/a	NoResponse	0	n/a	n/a	12	66	Fixation	MissedWin	True
628.873	0.18	Win2	0.6716	0.002	No	2.775	-0.002	2.0	NoResponse	0	0.219	628.092	12	66	Target	MissedWin	True
629.057	0.52	Win2	0.6716	n/a	No	2.775	n/a	n/a	NoResponse	0	n/a	n/a	12	66	Blank	MissedWin	True
629.092	0.3	Win2	0.6716	0.002	No	2.775	-0.002	2.0	NoResponse	0	0.219	n/a	12	66	ButtonPress	MissedWin	True
629.573	1.45	Win2	0.6716	n/a	No	2.775	n/a	5.0	NoResponse	0	0.009	628.582	12	66	Feedback	MissedWin	True
631.023	2.775	Win2	0.6716	n/a	No	2.775	n/a	n/a	NoResponse	0	0.0	n/a	12	66	ISIslide	MissedWin	True
633.822	0.25	Control	0.6618	0.0	No	2.728	0.022	n/a	NoResponse	0	n/a	n/a	12	67	Cue	Neutral	True
634.072	3.95	Control	0.6618	0.0	No	2.728	0.0	n/a	NoResponse	0	n/a	n/a	12	67	Fixation	Neutral	True
638.02	0.17	Control	0.6618	0.002	No	2.728	-0.002	2.0	NoResponse	0	0.267	637.287	12	67	Target	Neutral	True
638.204	0.53	Control	0.6618	n/a	No	2.728	n/a	n/a	NoResponse	0	n/a	n/a	12	67	Blank	Neutral	True
638.287	0.3	Control	0.6618	0.002	No	2.728	-0.002	2.0	NoResponse	0	0.267	n/a	12	67	ButtonPress	Neutral	True
638.72	1.45	Control	0.6618	n/a	No	2.728	n/a	5.0	NoResponse	0	0.033	637.753	12	67	Feedback	Neutral	True
640.17	2.728	Control	0.6618	n/a	No	2.728	n/a	n/a	NoResponse	0	0.0	n/a	12	67	ISIslide	Neutral	True
642.919	0.25	Win2	0.6522	0.0	No	3.081	0.019	n/a	NoResponse	0	n/a	n/a	12	68	Cue	MissedWin	True
643.169	4.0	Win2	0.6522	0.0	No	3.081	0.0	n/a	NoResponse	0	n/a	n/a	12	68	Fixation	MissedWin	True
647.167	0.17	Win2	0.6522	0.002	No	3.081	-0.002	2.0	NoResponse	0	0.194	646.361	12	68	Target	MissedWin	True
647.35	0.53	Win2	0.6522	n/a	No	3.081	n/a	n/a	NoResponse	0	n/a	n/a	12	68	Blank	MissedWin	True
647.361	0.3	Win2	0.6522	0.002	No	3.081	-0.002	2.0	NoResponse	0	0.194	n/a	12	68	ButtonPress	MissedWin	True
647.867	1.45	Win2	0.6522	n/a	No	3.081	n/a	5.0	NoResponse	0	0.008	646.875	12	68	Feedback	MissedWin	True
649.316	3.081	Win2	0.6522	n/a	No	3.081	n/a	n/a	NoResponse	0	0.0	n/a	12	68	ISIslide	MissedWin	True
652.415	0.25	Win2	0.6570999999999999	0.0	Yes	3.235	0.015	n/a	GoodResponse	1	n/a	n/a	13	69	Cue	Win	True
652.665	3.95	Win2	0.6570999999999999	0.0	Yes	3.235	0.0	n/a	GoodResponse	1	n/a	n/a	13	69	Fixation	Win	True
656.614	0.18	Win2	0.6570999999999999	0.001	Yes	3.235	-0.001	2.0	GoodResponse	1	0.166	655.78	13	69	Target	Win	True
656.78	0.3	Win2	0.6570999999999999	0.001	Yes	3.235	-0.001	2.0	GoodResponse	1	0.166	n/a	13	69	ButtonPress	Win	True
656.797	0.52	Win2	0.6570999999999999	n/a	Yes	3.235	n/a	n/a	GoodResponse	1	n/a	n/a	13	69	Blank	Win	True
657.314	1.45	Win2	0.6570999999999999	n/a	Yes	3.235	n/a	5.0	GoodResponse	1	0.024	656.338	13	69	Feedback	Win	True
658.763	3.235	Win2	0.6570999999999999	n/a	Yes	3.235	n/a	n/a	GoodResponse	1	0.0	n/a	13	69	ISIslide	Win	True
662.012	0.25	Lose2	0.6479	0.0	No	3.038	0.012	n/a	NoResponse	-1	n/a	n/a	12	70	Cue	Loss	True
662.262	4.05	Lose2	0.6479	0.0	No	3.038	0.0	n/a	NoResponse	-1	n/a	n/a	12	70	Fixation	Loss	True
666.311	0.18	Lose2	0.6479	0.001	No	3.038	-0.001	2.0	NoResponse	-1	0.188	665.499	12	70	Target	Loss	True
666.494	0.52	Lose2	0.6479	n/a	No	3.038	n/a	n/a	NoResponse	-1	n/a	n/a	12	70	Blank	Loss	True
666.499	0.3	Lose2	0.6479	0.001	No	3.038	-0.001	2.0	NoResponse	-1	0.188	n/a	12	70	ButtonPress	Loss	True
667.01	1.45	Lose2	0.6479	n/a	No	3.038	n/a	5.0	NoResponse	-1	0.036	666.046	12	70	Feedback	Loss	True
668.46	3.038	Lose2	0.6479	n/a	No	3.038	n/a	n/a	NoResponse	-1	0.0	n/a	12	70	ISIslide	Loss	True
671.525	0.25	Win2	0.6389	0.0	No	2.725	0.025	n/a	NoResponse	0	n/a	n/a	12	71	Cue	MissedWin	False
671.775	4.05	Win2	0.6389	0.0	No	2.725	0.0	2.0	NoResponse	0	3.834	674.609	12	71	Fixation	MissedWin	False
675.609	0.3	Win2	0.6389	0.0	No	2.725	0.0	2.0	NoResponse	0	3.834	n/a	12	71	ButtonPress	MissedWin	False
675.824	0.19	Win2	0.6389	0.001	No	2.725	-0.001	2.0	NoResponse	0	0.216	675.04	12	71	Target	MissedWin	False
676.024	0.51	Win2	0.6389	n/a	No	2.725	n/a	n/a	NoResponse	0	n/a	n/a	12	71	Blank	MissedWin	False
676.04	0.3	Win2	0.6389	0.001	No	2.725	-0.001	2.0	NoResponse	0	0.216	n/a	12	71	ButtonPress	MissedWin	False
676.524	1.45	Win2	0.6389	n/a	No	2.725	n/a	5.0	NoResponse	0	0.034	675.558	12	71	Feedback	MissedWin	False
677.973	2.725	Win2	0.6389	n/a	No	2.725	n/a	n/a	NoResponse	0	0.0	n/a	12	71	ISIslide	MissedWin	False
680.722	0.25	Win2	0.6437999999999999	0.0	Yes	2.778	0.022	n/a	GoodResponse	1	n/a	n/a	13	72	Cue	Win	True
680.972	4.1	Win2	0.6437999999999999	0.0	Yes	2.778	0.0	n/a	GoodResponse	1	n/a	n/a	13	72	Fixation	Win	True
685.071	0.2	Win2	0.6437999999999999	0.001	Yes	2.778	-0.001	2.0	GoodResponse	1	0.192	684.263	13	72	Target	Win	True
685.263	0.3	Win2	0.6437999999999999	0.001	Yes	2.778	-0.001	2.0	GoodResponse	1	0.192	n/a	13	72	ButtonPress	Win	True
685.271	0.5	Win2	0.6437999999999999	n/a	Yes	2.778	n/a	n/a	GoodResponse	1	n/a	n/a	13	72	Blank	Win	True
685.77	1.45	Win2	0.6437999999999999	n/a	Yes	2.778	n/a	5.0	GoodResponse	1	0.007	684.777	13	72	Feedback	Win	True
687.22	2.778	Win2	0.6437999999999999	n/a	Yes	2.778	n/a	n/a	GoodResponse	1	0.0	n/a	13	72	ISIslide	Win	True
690.019	0.25	Win2	0.6486	0.0	Yes	2.681	0.019	n/a	GoodResponse	1	n/a	n/a	14	73	Cue	Win	True
690.269	4.0	Win2	0.6486	0.0	Yes	2.681	0.0	n/a	GoodResponse	1	n/a	n/a	14	73	Fixation	Win	True
694.268	0.21	Win2	0.6486	0.001	Yes	2.681	-0.001	2.0	GoodResponse	1	0.189	693.457	14	73	Target	Win	True
694.457	0.3	Win2	0.6486	0.001	Yes	2.681	-0.001	2.0	GoodResponse	1	0.189	n/a	14	73	ButtonPress	Win	True
694.484	0.49	Win2	0.6486	n/a	Yes	2.681	n/a	n/a	GoodResponse	1	n/a	n/a	14	73	Blank	Win	True
694.967	1.45	Win2	0.6486	n/a	Yes	2.681	n/a	5.0	GoodResponse	1	0.029	693.996	14	73	Feedback	Win	True
696.417	2.681	Win2	0.6486	n/a	Yes	2.681	n/a	n/a	GoodResponse	1	0.0	n/a	14	73	ISIslide	Win	True
699.116	0.25	Lose2	0.6533	0.0	Yes	2.634	0.016	n/a	GoodResponse	0	n/a	n/a	14	74	Cue	AvoidedLoss	True
699.366	4.05	Lose2	0.6533	0.0	Yes	2.634	0.0	n/a	GoodResponse	0	n/a	n/a	14	74	Fixation	AvoidedLoss	True
703.414	0.22	Lose2	0.6533	0.002	Yes	2.634	-0.002	2.0	GoodResponse	0	0.193	702.607	14	74	Target	AvoidedLoss	True
703.607	0.3	Lose2	0.6533	0.002	Yes	2.634	-0.002	2.0	GoodResponse	0	0.193	n/a	14	74	ButtonPress	AvoidedLoss	True
703.648	0.48	Lose2	0.6533	n/a	Yes	2.634	n/a	n/a	GoodResponse	0	n/a	n/a	14	74	Blank	AvoidedLoss	True
704.114	1.45	Lose2	0.6533	n/a	Yes	2.634	n/a	5.0	GoodResponse	0	0.005	703.119	14	74	Feedback	AvoidedLoss	True
705.564	2.634	Lose2	0.6533	n/a	Yes	2.634	n/a	n/a	GoodResponse	0	0.0	n/a	14	74	ISIslide	AvoidedLoss	True
708.229	0.25	Lose2	0.6579	0.0	Yes	2.921	0.029	n/a	GoodResponse	0	n/a	n/a	14	75	Cue	AvoidedLoss	True
708.479	3.95	Lose2	0.6579	0.0	Yes	2.921	0.0	n/a	GoodResponse	0	n/a	n/a	14	75	Fixation	AvoidedLoss	True
712.428	0.23	Lose2	0.6579	0.001	Yes	2.921	-0.001	2.0	GoodResponse	0	0.17	711.598	14	75	Target	AvoidedLoss	True
712.598	0.3	Lose2	0.6579	0.001	Yes	2.921	-0.001	2.0	GoodResponse	0	0.17	n/a	14	75	ButtonPress	AvoidedLoss	True
712.661	0.47	Lose2	0.6579	n/a	Yes	2.921	n/a	n/a	GoodResponse	0	n/a	n/a	14	75	Blank	AvoidedLoss	True
713.128	1.45	Lose2	0.6579	n/a	Yes	2.921	n/a	5.0	GoodResponse	0	0.015	712.143	14	75	Feedback	AvoidedLoss	True
714.577	2.921	Lose2	0.6579	n/a	Yes	2.921	n/a	n/a	GoodResponse	0	0.0	n/a	14	75	ISIslide	AvoidedLoss	True
717.526	0.25	Control	0.6494	0.0	No	3.224	0.026	n/a	PrematurePress	0	n/a	n/a	14	76	Cue	Neutral	True
717.776	4.05	Control	0.6494	0.0	No	3.224	0.0	n/a	PrematurePress	0	n/a	n/a	14	76	Fixation	Neutral	True
721.825	0.23	Control	0.6494	0.001	No	3.224	-0.001	2.0	PrematurePress	0	0.055	720.88	14	76	Target	Neutral	True
721.88	0.3	Control	0.6494	0.001	No	3.224	-0.001	2.0	PrematurePress	0	0.055	n/a	14	76	ButtonPress	Neutral	True
722.058	0.47	Control	0.6494	n/a	No	3.224	n/a	n/a	PrematurePress	0	n/a	n/a	14	76	Blank	Neutral	True
722.524	1.45	Control	0.6494	n/a	No	3.224	n/a	5.0	PrematurePress	0	0.034	721.558	14	76	Feedback	Neutral	True
723.974	3.224	Control	0.6494	n/a	No	3.224	n/a	n/a	PrematurePress	0	0.0	n/a	14	76	ISIslide	Neutral	True
727.223	0.25	Lose2	0.6537999999999999	0.0	Yes	2.577	0.023	n/a	GoodResponse	0	n/a	n/a	14	77	Cue	AvoidedLoss	True
727.473	3.95	Lose2	0.6537999999999999	0.0	Yes	2.577	0.0	n/a	GoodResponse	0	n/a	n/a	14	77	Fixation	AvoidedLoss	True
731.421	0.24	Lose2	0.6537999999999999	0.002	Yes	2.577	-0.002	2.0	GoodResponse	0	0.182	730.603	14	77	Target	AvoidedLoss	True
731.603	0.3	Lose2	0.6537999999999999	0.002	Yes	2.577	-0.002	2.0	GoodResponse	0	0.182	n/a	14	77	ButtonPress	AvoidedLoss	True
731.671	0.46	Lose2	0.6537999999999999	n/a	Yes	2.577	n/a	n/a	GoodResponse	0	n/a	n/a	14	77	Blank	AvoidedLoss	True
732.121	1.45	Lose2	0.6537999999999999	n/a	Yes	2.577	n/a	5.0	GoodResponse	0	0.047	731.168	14	77	Feedback	AvoidedLoss	True
733.571	2.577	Lose2	0.6537999999999999	n/a	Yes	2.577	n/a	n/a	GoodResponse	0	0.0	n/a	14	77	ISIslide	AvoidedLoss	True
