onset	duration	cue_type	current_mean_accuracy	duration_error	is_hit	isi_adjusted	onset_delay	response	response_type	reward	rt	rt_time	total_reward	trial_number	trial_phase	trial_type	one_press
11.106	0.25	Control	1.0	0.0	Yes	2.944	0.006	n/a	GoodResponse	0	n/a	n/a	0	0	Cue	Neutral	True
11.357	3.85	Control	1.0	0.0	Yes	2.944	0.001	n/a	GoodResponse	0	n/a	n/a	0	0	Fixation	Neutral	True
15.202	0.4	Control	1.0	0.004	Yes	2.944	-0.004	4.0	GoodResponse	0	0.23	14.432	0	0	Target	Neutral	True
15.432	0.3	Control	1.0	0.004	Yes	2.944	-0.004	4.0	GoodResponse	0	0.23	n/a	0	0	ButtonPress	Neutral	True
15.603	0.3	Control	1.0	n/a	Yes	2.944	n/a	n/a	GoodResponse	0	n/a	n/a	0	0	Blank	Neutral	True
15.904	1.45	Control	1.0	n/a	Yes	2.944	n/a	5.0	GoodResponse	0	0.022	14.926	0	0	Feedback	Neutral	True
17.358	2.944	Control	1.0	n/a	Yes	2.944	n/a	n/a	GoodResponse	0	0.0	n/a	0	0	ISIslide	Neutral	True
20.317	0.25	Lose2	1.0	0.0	Yes	2.783	0.017	n/a	GoodResponse	0	n/a	n/a	0	1	Cue	AvoidedLoss	True
20.568	4.0	Lose2	1.0	0.0	Yes	2.783	0.001	n/a	GoodResponse	0	n/a	n/a	0	1	Fixation	AvoidedLoss	True
24.563	0.39	Lose2	1.0	0.004	Yes	2.783	-0.004	4.0	GoodResponse	0	0.236	23.799	0	1	Target	AvoidedLoss	True
24.799	0.3	Lose2	1.0	0.004	Yes	2.783	-0.004	4.0	GoodResponse	0	0.236	n/a	0	1	ButtonPress	AvoidedLoss	True
24.964	0.31	Lose2	1.0	n/a	Yes	2.783	n/a	n/a	GoodResponse	0	n/a	n/a	0	1	Blank	AvoidedLoss	True
25.265	1.45	Lose2	1.0	n/a	Yes	2.783	n/a	5.0	GoodResponse	0	0.026	24.291	0	1	Feedback	AvoidedLoss	True
26.72	2.783	Lose2	1.0	n/a	Yes	2.783	n/a	n/a	GoodResponse	0	0.0	n/a	0	1	ISIslide	AvoidedLoss	True
29.528	0.25	Control	1.0	0.0	Yes	2.572	0.028	n/a	GoodResponse	0	n/a	n/a	0	2	Cue	Neutral	True
29.779	4.1	Control	1.0	0.0	Yes	2.572	0.001	n/a	GoodResponse	0	n/a	n/a	0	2	Fixation	Neutral	True
33.874	0.38	Control	1.0	0.004	Yes	2.572	-0.004	4.0	GoodResponse	0	0.248	33.122	0	2	Target	Neutral	True
34.122	0.3	Control	1.0	0.004	Yes	2.572	-0.004	4.0	GoodResponse	0	0.248	n/a	0	2	ButtonPress	Neutral	True
34.259	0.32	Control	1.0	n/a	Yes	2.572	n/a	n/a	GoodResponse	0	n/a	n/a	0	2	Blank	Neutral	True
34.576	1.45	Control	1.0	n/a	Yes	2.572	n/a	5.0	GoodResponse	0	0.033	33.609	0	2	Feedback	Neutral	True
36.031	2.572	Control	1.0	n/a	Yes	2.572	n/a	n/a	GoodResponse	0	0.0	n/a	0	2	ISIslide	Neutral	True
38.622	0.25	Win2	1.0	0.0	Yes	2.828	0.022	n/a	GoodResponse	1	n/a	n/a	1	3	Cue	Win	True
38.873	3.95	Win2	1.0	0.0	Yes	2.828	0.001	n/a	GoodResponse	1	n/a	n/a	1	3	Fixation	Win	True
42.818	0.37	Win2	1.0	0.004	Yes	2.828	-0.004	4.0	GoodResponse	1	0.234	42.052	1	3	Target	Win	True
43.052	0.3	Win2	1.0	0.004	Yes	2.828	-0.004	4.0	GoodResponse	1	0.234	n/a	1	3	ButtonPress	Win	True
43.202	0.33	Win2	1.0	n/a	Yes	2.828	n/a	n/a	GoodResponse	1	n/a	n/a	1	3	Blank	Win	True
43.52	1.45	Win2	1.0	n/a	Yes	2.828	n/a	5.0	GoodResponse	1	0.016	42.536	1	3	Feedback	Win	True
44.974	2.828	Win2	1.0	n/a	Yes	2.828	n/a	n/a	GoodResponse	1	0.0	n/a	1	3	ISIslide	Win	True
47.816	0.25	Win2	1.0	0.0	Yes	3.284	0.016	n/a	GoodResponse	1	n/a	n/a	2	4	Cue	Win	True
48.067	4.0	Win2	1.0	0.0	Yes	3.284	0.001	n/a	GoodResponse	1	n/a	n/a	2	4	Fixation	Win	True
52.062	0.36	Win2	1.0	0.004	Yes	3.284	-0.004	4.0	GoodResponse	1	0.218	51.28	2	4	Target	Win	True
52.28	0.3	Win2	1.0	0.004	Yes	3.284	-0.004	4.0	GoodResponse	1	0.218	n/a	2	4	ButtonPress	Win	True
52.43	0.34	Win2	1.0	n/a	Yes	3.284	n/a	n/a	GoodResponse	1	n/a	n/a	2	4	Blank	Win	True
52.764	1.45	Win2	1.0	n/a	Yes	3.284	n/a	5.0	GoodResponse	1	0.04	51.804	2	4	Feedback	Win	True
54.219	3.284	Win2	1.0	n/a	Yes	3.284	n/a	n/a	GoodResponse	1	0.0	n/a	2	4	ISIslide	Win	True
57.529	0.25	Win2	1.0	0.0	Yes	2.771	0.029	n/a	GoodResponse	1	n/a	n/a	3	5	Cue	Win	True
57.779	4.0	Win2	1.0	0.0	Yes	2.771	0.0	n/a	GoodResponse	1	n/a	n/a	3	5	Fixation	Win	True
61.775	0.35	Win2	1.0	0.004	Yes	2.771	-0.004	4.0	GoodResponse	1	0.196	60.971	3	5	Target	Win	True
61.971	0.3	Win2	1.0	0.004	Yes	2.771	-0.004	4.0	GoodResponse	1	0.196	n/a	3	5	ButtonPress	Win	True
62.126	0.35	Win2	1.0	n/a	Yes	2.771	n/a	n/a	GoodResponse	1	n/a	n/a	3	5	Blank	Win	True
62.477	1.45	Win2	1.0	n/a	Yes	2.771	n/a	5.0	GoodResponse	1	0.033	61.51	3	5	Feedback	Win	True
63.931	2.771	Win2	1.0	n/a	Yes	2.771	n/a	n/a	GoodResponse	1	0.0	n/a	3	5	ISIslide	Win	True
66.723	0.25	Lose2	1.0	0.0	Yes	2.727	0.023	n/a	GoodResponse	0	n/a	n/a	3	6	Cue	AvoidedLoss	True
66.974	3.95	Lose2	1.0	0.0	Yes	2.727	0.001	n/a	GoodResponse	0	n/a	n/a	3	6	Fixation	AvoidedLoss	True
70.919	0.34	Lose2	1.0	0.004	Yes	2.727	-0.004	4.0	GoodResponse	0	0.219	70.138	3	6	Target	AvoidedLoss	True
71.138	0.3	Lose2	1.0	0.004	Yes	2.727	-0.004	4.0	GoodResponse	0	0.219	n/a	3	6	ButtonPress	AvoidedLoss	True
71.27	0.36	Lose2	1.0	n/a	Yes	2.727	n/a	n/a	GoodResponse	0	n/a	n/a	3	6	Blank	AvoidedLoss	True
71.621	1.45	Lose2	1.0	n/a	Yes	2.727	n/a	5.0	GoodResponse	0	0.011	70.632	3	6	Feedback	AvoidedLoss	True
73.075	2.727	Lose2	1.0	n/a	Yes	2.727	n/a	n/a	GoodResponse	0	0.0	n/a	3	6	ISIslide	AvoidedLoss	True
75.817	0.25	Lose2	1.0	0.0	Yes	4.033	0.017	n/a	GoodResponse	0	n/a	n/a	3	7	Cue	AvoidedLoss	False
76.067	4.05	Lose2	1.0	0.001	Yes	4.033	0.0	4.0	GoodResponse	0	0.294	75.361	3	7	Fixation	AvoidedLoss	False
76.361	0.3	Lose2	1.0	0.001	Yes	4.033	0.0	4.0	GoodResponse	0	0.294	n/a	3	7	ButtonPress	AvoidedLoss	False
80.113	0.33	Lose2	1.0	0.004	Yes	4.033	-0.004	4.0	GoodResponse	0	0.279	79.392	3	7	Target	AvoidedLoss	False
80.392	0.3	Lose2	1.0	0.004	Yes	4.033	-0.004	4.0	GoodResponse	0	0.279	n/a	3	7	ButtonPress	AvoidedLoss	False
80.447	0.37	Lose2	1.0	n/a	Yes	4.033	n/a	n/a	GoodResponse	0	n/a	n/a	3	7	Blank	AvoidedLoss	False
80.815	1.45	Lose2	1.0	n/a	Yes	4.033	n/a	5.0	GoodResponse	0	0.037	79.852	3	7	Feedback	AvoidedLoss	False
82.269	4.033	Lose2	1.0	n/a	Yes	4.033	n/a	n/a	GoodResponse	0	0.0	n/a	3	7	ISIslide	AvoidedLoss	False
86.315	0.25	Lose2	1.0	0.0	Yes	3.035	0.015	n/a	GoodResponse	0	n/a	n/a	3	8	Cue	AvoidedLoss	True
86.566	3.95	Lose2	1.0	0.0	Yes	3.035	0.001	n/a	GoodResponse	0	n/a	n/a	3	8	Fixation	AvoidedLoss	True
90.511	0.32	Lose2	1.0	0.004	Yes	3.035	-0.004	4.0	GoodResponse	0	0.248	89.759	3	8	Target	AvoidedLoss	True
90.759	0.3	Lose2	1.0	0.004	Yes	3.035	-0.004	4.0	GoodResponse	0	0.248	n/a	3	8	ButtonPress	AvoidedLoss	True
90.845	0.38	Lose2	1.0	n/a	Yes	3.035	n/a	n/a	GoodResponse	0	n/a	n/a	3	8	Blank	AvoidedLoss	True
91.213	1.45	Lose2	1.0	n/a	Yes	3.035	n/a	5.0	GoodResponse	0	0.029	90.242	3	8	Feedback	AvoidedLoss	True
92.667	3.035	Lose2	1.0	n/a	Yes	3.035	n/a	n/a	GoodResponse	0	0.0	n/a	3	8	ISIslide	AvoidedLoss	True
95.726	0.25	Lose2	1.0	0.0	Yes	3.124	0.026	n/a	GoodResponse	0	n/a	n/a	3	9	Cue	AvoidedLoss	True
95.977	3.95	Lose2	1.0	0.0	Yes	3.124	0.001	n/a	GoodResponse	0	n/a	n/a	3	9	Fixation	AvoidedLoss	True
99.922	0.31	Lose2	1.0	0.004	Yes	3.124	-0.004	4.0	GoodResponse	0	0.268	99.19	3	9	Target	AvoidedLoss	True
100.19	0.3	Lose2	1.0	0.004	Yes	3.124	-0.004	4.0	GoodResponse	0	0.268	n/a	3	9	ButtonPress	AvoidedLoss	True
100.24	0.39	Lose2	1.0	n/a	Yes	3.124	n/a	n/a	GoodResponse	0	n/a	n/a	3	9	Blank	AvoidedLoss	True
100.624	1.45	Lose2	1.0	n/a	Yes	3.124	n/a	5.0	GoodResponse	0	0.033	99.657	3	9	Feedback	AvoidedLoss	True
102.079	3.124	Lose2	1.0	n/a	Yes	3.124	n/a	n/a	GoodResponse	0	0.0	n/a	3	9	ISIslide	AvoidedLoss	True
105.221	0.25	Control	1.0	0.001	Yes	3.279	0.021	n/a	GoodResponse	0	n/a	n/a	3	10	Cue	Neutral	True
105.472	4.0	Control	1.0	0.0	Yes	3.279	0.001	n/a	GoodResponse	0	n/a	n/a	3	10	Fixation	Neutral	True
109.468	0.3	Control	1.0	0.003	Yes	3.279	-0.003	4.0	GoodResponse	0	0.219	108.687	3	10	Target	Neutral	True
109.687	0.3	Control	1.0	0.003	Yes	3.279	-0.003	4.0	GoodResponse	0	0.219	n/a	3	10	ButtonPress	Neutral	True
109.768	0.4	Control	1.0	n/a	Yes	3.279	n/a	n/a	GoodResponse	0	n/a	n/a	3	10	Blank	Neutral	True
110.17	1.45	Control	1.0	n/a	Yes	3.279	n/a	5.0	GoodResponse	0	0.048	109.218	3	10	Feedback	Neutral	True
111.624	3.279	Control	1.0	n/a	Yes	3.279	n/a	n/a	GoodResponse	0	0.0	n/a	3	10	ISIslide	Neutral	True
114.917	0.25	Lose2	1.0	0.0	Yes	2.733	0.017	n/a	GoodResponse	0	n/a	n/a	3	11	Cue	AvoidedLoss	True
115.168	4.05	Lose2	1.0	0.0	Yes	2.733	0.001	n/a	GoodResponse	0	n/a	n/a	3	11	Fixation	AvoidedLoss	True
119.213	0.29	Lose2	1.0	0.004	Yes	2.733	-0.004	4.0	GoodResponse	0	0.231	118.444	3	11	Target	AvoidedLoss	True
119.444	0.3	Lose2	1.0	0.004	Yes	2.733	-0.004	4.0	GoodResponse	0	0.231	n/a	3	11	ButtonPress	AvoidedLoss	True
119.514	0.41	Lose2	1.0	n/a	Yes	2.733	n/a	n/a	GoodResponse	0	n/a	n/a	3	11	Blank	AvoidedLoss	True
119.916	1.45	Lose2	1.0	n/a	Yes	2.733	n/a	5.0	GoodResponse	0	0.01	118.926	3	11	Feedback	AvoidedLoss	True
121.37	2.733	Lose2	1.0	n/a	Yes	2.733	n/a	n/a	GoodResponse	0	0.0	n/a	3	11	ISIslide	AvoidedLoss	True
124.128	0.25	Control	1.0	0.0	Yes	2.972	0.028	n/a	GoodResponse	0	n/a	n/a	3	12	Cue	Neutral	True
124.379	3.9	Control	1.0	0.0	Yes	2.972	0.001	n/a	GoodResponse	0	n/a	n/a	3	12	Fixation	Neutral	True
128.274	0.28	Control	1.0	0.004	Yes	2.972	-0.004	4.0	GoodResponse	0	0.23	127.504	3	12	Target	Neutral	True
128.504	0.3	Control	1.0	0.004	Yes	2.972	-0.004	4.0	GoodResponse	0	0.23	n/a	3	12	ButtonPress	Neutral	True
128.558	0.42	Control	1.0	n/a	Yes	2.972	n/a	n/a	GoodResponse	0	n/a	n/a	3	12	Blank	Neutral	True
128.976	1.45	Control	1.0	n/a	Yes	2.972	n/a	5.0	GoodResponse	0	0.022	127.998	3	12	Feedback	Neutral	True
130.43	2.972	Control	1.0	n/a	Yes	2.972	n/a	n/a	GoodResponse	0	0.0	n/a	3	12	ISIslide	Neutral	True
133.423	0.25	Control	0.9286	0.0	No	2.777	0.023	n/a	NoResponse	0	n/a	n/a	3	13	Cue	Neutral	True
133.673	4.0	Control	0.9286	0.0	No	2.777	0.0	n/a	NoResponse	0	n/a	n/a	3	13	Fixation	Neutral	True
137.669	0.27	Control	0.9286	0.004	No	2.777	-0.004	4.0	NoResponse	0	0.293	136.962	3	13	Target	Neutral	True
137.953	0.43	Control	0.9286	n/a	No	2.777	n/a	n/a	NoResponse	0	n/a	n/a	3	13	Blank	Neutral	True
137.962	0.3	Control	0.9286	0.004	No	2.777	-0.004	4.0	NoResponse	0	0.293	n/a	3	13	ButtonPress	Neutral	True
138.371	1.45	Control	0.9286	n/a	No	2.777	n/a	5.0	NoResponse	0	0.042	137.413	3	13	Feedback	Neutral	True
139.825	2.777	Control	0.9286	n/a	No	2.777	n/a	n/a	NoResponse	0	0.0	n/a	3	13	ISIslide	Neutral	True
142.617	0.25	Win2	0.9333	0.0	Yes	2.683	0.017	n/a	GoodResponse	1	n/a	n/a	4	14	Cue	Win	True
142.868	4.1	Win2	0.9333	0.0	Yes	2.683	0.001	n/a	GoodResponse	1	n/a	n/a	4	14	Fixation	Win	True
146.963	0.26	Win2	0.9333	0.004	Yes	2.683	-0.004	4.0	GoodResponse	1	0.242	146.205	4	14	Target	Win	True
147.205	0.3	Win2	0.9333	0.004	Yes	2.683	-0.004	4.0	GoodResponse	1	0.242	n/a	4	14	ButtonPress	Win	True
147.231	0.44	Win2	0.9333	n/a	Yes	2.683	n/a	n/a	GoodResponse	1	n/a	n/a	4	14	Blank	Win	True
147.665	1.45	Win2	0.9333	n/a	Yes	2.683	n/a	5.0	GoodResponse	1	0.016	146.681	4	14	Feedback	Win	True
149.12	2.683	Win2	0.9333	n/a	Yes	2.683	n/a	n/a	GoodResponse	1	0.0	n/a	4	14	ISIslide	Win	True
151.828	0.25	Control	0.9375	0.0	Yes	2.972	0.028	n/a	GoodResponse	0	n/a	n/a	4	15	Cue	Neutral	True
152.079	4.0	Control	0.9375	0.0	Yes	2.972	0.001	n/a	GoodResponse	0	n/a	n/a	4	15	Fixation	Neutral	True
156.074	0.25	Control	0.9375	0.004	Yes	2.972	-0.004	4.0	GoodResponse	0	0.235	155.309	4	15	Target	Neutral	True
156.309	0.3	Control	0.9375	0.004	Yes	2.972	-0.004	4.0	GoodResponse	0	0.235	n/a	4	15	ButtonPress	Neutral	True
156.325	0.45	Control	0.9375	n/a	Yes	2.972	n/a	n/a	GoodResponse	0	n/a	n/a	4	15	Blank	Neutral	True
156.776	1.45	Control	0.9375	n/a	Yes	2.972	n/a	5.0	GoodResponse	0	0.027	155.803	4	15	Feedback	Neutral	True
158.23	2.972	Control	0.9375	n/a	Yes	2.972	n/a	n/a	GoodResponse	0	0.0	n/a	4	15	ISIslide	Neutral	True
161.223	0.25	Win2	0.9412	0.0	Yes	2.877	0.023	n/a	GoodResponse	1	n/a	n/a	5	16	Cue	Win	True
161.473	4.0	Win2	0.9412	0.0	Yes	2.877	0.0	n/a	GoodResponse	1	n/a	n/a	5	16	Fixation	Win	True
165.469	0.24	Win2	0.9412	0.004	Yes	2.877	-0.004	4.0	GoodResponse	1	0.219	164.688	5	16	Target	Win	True
165.688	0.3	Win2	0.9412	0.004	Yes	2.877	-0.004	4.0	GoodResponse	1	0.219	n/a	5	16	ButtonPress	Win	True
165.719	0.46	Win2	0.9412	n/a	Yes	2.877	n/a	n/a	GoodResponse	1	n/a	n/a	5	16	Blank	Win	True
166.171	1.45	Win2	0.9412	n/a	Yes	2.877	n/a	5.0	GoodResponse	1	0.047	165.218	5	16	Feedback	Win	True
167.625	2.877	Win2	0.9412	n/a	Yes	2.877	n/a	n/a	GoodResponse	1	0.0	n/a	5	16	ISIslide	Win	True
170.517	0.25	Lose2	0.9444	0.0	Yes	2.733	0.017	n/a	GoodResponse	0	n/a	n/a	5	17	Cue	AvoidedLoss	True
170.768	3.95	Lose2	0.9444	0.0	Yes	2.733	0.001	n/a	GoodResponse	0	n/a	n/a	5	17	Fixation	AvoidedLoss	True
174.713	0.23	Lose2	0.9444	0.004	Yes	2.733	-0.004	4.0	GoodResponse	0	0.211	173.924	5	17	Target	AvoidedLoss	True
174.924	0.3	Lose2	0.9444	0.004	Yes	2.733	-0.004	4.0	GoodResponse	0	0.211	n/a	5	17	ButtonPress	AvoidedLoss	True
174.947	0.47	Lose2	0.9444	n/a	Yes	2.733	n/a	n/a	GoodResponse	0	n/a	n/a	5	17	Blank	AvoidedLoss	True
175.415	1.45	Lose2	0.9444	n/a	Yes	2.733	n/a	5.0	GoodResponse	0	0.022	174.437	5	17	Feedback	AvoidedLoss	True
176.869	2.733	Lose2	0.9444	n/a	Yes	2.733	n/a	n/a	GoodResponse	0	0.0	n/a	5	17	ISIslide	AvoidedLoss	True
179.628	0.25	Lose2	0.8946999999999999	0.0	No	2.722	0.028	n/a	NoResponse	-1	n/a	n/a	4	18	Cue	Loss	True
179.878	4.05	Lose2	0.8946999999999999	0.001	No	2.722	0.0	n/a	NoResponse	-1	n/a	n/a	4	18	Fixation	Loss	True
183.924	0.22	Lose2	0.8946999999999999	0.004	No	2.722	-0.004	4.0	NoResponse	-1	0.288	183.212	4	18	Target	Loss	True
184.158	0.48	Lose2	0.8946999999999999	n/a	No	2.722	n/a	n/a	NoResponse	-1	n/a	n/a	4	18	Blank	Loss	True
184.212	0.3	Lose2	0.8946999999999999	0.004	No	2.722	-0.004	4.0	NoResponse	-1	0.288	n/a	4	18	ButtonPress	Loss	True
184.626	1.45	Lose2	0.8946999999999999	n/a	No	2.722	n/a	5.0	NoResponse	-1	0.03	183.656	4	18	Feedback	Loss	True
186.08	2.722	Lose2	0.8946999999999999	n/a	No	2.722	n/a	n/a	NoResponse	-1	0.0	n/a	4	18	ISIslide	Loss	True
188.822	0.25	Control	0.9	0.0	Yes	2.928	0.022	n/a	GoodResponse	0	n/a	n/a	4	19	Cue	Neutral	True
189.073	3.95	Control	0.9	0.0	Yes	2.928	0.001	n/a	GoodResponse	0	n/a	n/a	4	19	Fixation	Neutral	True
193.018	0.21	Control	0.9	0.004	Yes	2.928	-0.004	4.0	GoodResponse	0	0.188	192.206	4	19	Target	Neutral	True
193.206	0.3	Control	0.9	0.004	Yes	2.928	-0.004	4.0	GoodResponse	0	0.188	n/a	4	19	ButtonPress	Neutral	True
193.235	0.49	Control	0.9	n/a	Yes	2.928	n/a	n/a	GoodResponse	0	n/a	n/a	4	19	Blank	Neutral	True
193.72	1.45	Control	0.9	n/a	Yes	2.928	n/a	5.0	GoodResponse	0	0.009	192.729	4	19	Feedback	Neutral	True
195.174	2.928	Control	0.9	n/a	Yes	2.928	n/a	n/a	GoodResponse	0	0.0	n/a	4	19	ISIslide	Neutral	True
198.116	0.25	Control	0.8571	0.001	No	2.634	0.016	n/a	NoResponse	0	n/a	n/a	4	20	Cue	Neutral	True
198.367	4.05	Control	0.8571	0.0	No	2.634	0.001	n/a	NoResponse	0	n/a	n/a	4	20	Fixation	Neutral	True
202.413	0.2	Control	0.8571	0.003	No	2.634	-0.003	4.0	NoResponse	0	0.248	201.661	4	20	Target	Neutral	True
202.613	0.5	Control	0.8571	n/a	No	2.634	n/a	n/a	NoResponse	0	n/a	n/a	4	20	Blank	Neutral	True
202.661	0.3	Control	0.8571	0.003	No	2.634	-0.003	4.0	NoResponse	0	0.248	n/a	4	20	ButtonPress	Neutral	True
203.115	1.45	Control	0.8571	n/a	No	2.634	n/a	5.0	NoResponse	0	0.029	202.144	4	20	Feedback	Neutral	True
204.569	2.634	Control	0.8571	n/a	No	2.634	n/a	n/a	NoResponse	0	0.0	n/a	4	20	ISIslide	Neutral	True
207.227	0.25	Control	0.8181999999999999	0.0	No	2.773	0.027	n/a	NoResponse	0	n/a	n/a	4	21	Cue	Neutral	False
207.478	4.1	Control	0.8181999999999999	0.0	No	2.773	0.001	4.0	NoResponse	0	3.88	210.358	4	21	Fixation	Neutral	False
211.358	0.3	Control	0.8181999999999999	0.0	No	2.773	0.001	4.0	NoResponse	0	3.88	n/a	4	21	ButtonPress	Neutral	False
211.573	0.19	Control	0.8181999999999999	0.004	No	2.773	-0.004	4.0	NoResponse	0	0.337	210.91	4	21	Target	Neutral	False
211.774	0.51	Control	0.8181999999999999	n/a	No	2.773	n/a	n/a	NoResponse	0	n/a	n/a	4	21	Blank	Neutral	False
211.91	0.3	Control	0.8181999999999999	0.004	No	2.773	-0.004	4.0	NoResponse	0	0.337	n/a	4	21	ButtonPress	Neutral	False
212.276	1.45	Control	0.8181999999999999	n/a	No	2.773	n/a	5.0	NoResponse	0	0.039	211.315	4	21	Feedback	Neutral	False
213.73	2.773	Control	0.8181999999999999	n/a	No	2.773	n/a	n/a	NoResponse	0	0.0	n/a	4	21	ISIslide	Neutral	False
216.522	0.25	Control	0.7826000000000001	0.0	No	2.778	0.022	n/a	NoResponse	0	n/a	n/a	4	22	Cue	Neutral	True
216.772	4.0	Control	0.7826000000000001	0.0	No	2.778	0.0	n/a	NoResponse	0	n/a	n/a	4	22	Fixation	Neutral	True
220.768	0.18	Control	0.7826000000000001	0.004	No	2.778	-0.004	4.0	NoResponse	0	0.228	219.996	4	22	Target	Neutral	True
220.952	0.52	Control	0.7826000000000001	n/a	No	2.778	n/a	n/a	NoResponse	0	n/a	n/a	4	22	Blank	Neutral	True
220.996	0.3	Control	0.7826000000000001	0.004	No	2.778	-0.004	4.0	NoResponse	0	0.228	n/a	4	22	ButtonPress	Neutral	True
221.47	1.45	Control	0.7826000000000001	n/a	No	2.778	n/a	5.0	NoResponse	0	0.016	220.486	4	22	Feedback	Neutral	True
222.924	2.778	Control	0.7826000000000001	n/a	No	2.778	n/a	n/a	NoResponse	0	0.0	n/a	4	22	ISIslide	Neutral	True
225.716	0.25	Control	0.75	0.0	No	2.784	0.016	n/a	NoResponse	0	n/a	n/a	4	23	Cue	Neutral	True
225.967	3.9	Control	0.75	0.0	No	2.784	0.001	n/a	NoResponse	0	n/a	n/a	4	23	Fixation	Neutral	True
229.862	0.17	Control	0.75	0.004	No	2.784	-0.004	4.0	NoResponse	0	0.256	229.118	4	23	Target	Neutral	True
230.045	0.53	Control	0.75	n/a	No	2.784	n/a	n/a	NoResponse	0	n/a	n/a	4	23	Blank	Neutral	True
230.118	0.3	Control	0.75	0.004	No	2.784	-0.004	4.0	NoResponse	0	0.256	n/a	4	23	ButtonPress	Neutral	True
230.564	1.45	Control	0.75	n/a	No	2.784	n/a	5.0	NoResponse	0	0.044	229.608	4	23	Feedback	Neutral	True
232.018	2.784	Control	0.75	n/a	No	2.784	n/a	n/a	NoResponse	0	0.0	n/a	4	23	ISIslide	Neutral	True
234.826	0.25	Win2	0.72	0.001	No	3.124	0.026	n/a	NoResponse	0	n/a	n/a	4	24	Cue	MissedWin	True
235.077	3.95	Win2	0.72	0.0	No	3.124	0.001	n/a	NoResponse	0	n/a	n/a	4	24	Fixation	MissedWin	True
239.022	0.16	Win2	0.72	0.004	No	3.124	-0.004	4.0	NoResponse	0	0.205	238.227	4	24	Target	MissedWin	True
239.19	0.54	Win2	0.72	n/a	No	3.124	n/a	n/a	NoResponse	0	n/a	n/a	4	24	Blank	MissedWin	True
239.227	0.3	Win2	0.72	0.004	No	3.124	-0.004	4.0	NoResponse	0	0.205	n/a	4	24	ButtonPress	MissedWin	True
239.724	1.45	Win2	0.72	n/a	No	3.124	n/a	5.0	NoResponse	0	0.008	238.732	4	24	Feedback	MissedWin	True
241.179	3.124	Win2	0.72	n/a	No	3.124	n/a	n/a	NoResponse	0	0.0	n/a	4	24	ISIslide	MissedWin	True
244.322	0.25	Win2	0.6923	0.0	No	3.078	0.022	n/a	NoResponse	0	n/a	n/a	4	25	Cue	MissedWin	True
244.572	4.0	Win2	0.6923	0.0	No	3.078	0.0	n/a	NoResponse	0	n/a	n/a	4	25	Fixation	MissedWin	True
248.568	0.15	Win2	0.6923	0.004	No	3.078	-0.004	4.0	NoResponse	0	0.206	247.774	4	25	Target	MissedWin	True
248.718	0.55	Win2	0.6923	n/a	No	3.078	n/a	n/a	NoResponse	0	n/a	n/a	4	25	Blank	MissedWin	True
248.774	0.3	Win2	0.6923	0.004	No	3.078	-0.004	4.0	NoResponse	0	0.206	n/a	4	25	ButtonPress	MissedWin	True
249.27	1.45	Win2	0.6923	n/a	No	3.078	n/a	5.0	NoResponse	0	0.02	248.29	4	25	Feedback	MissedWin	True
250.724	3.078	Win2	0.6923	n/a	No	3.078	n/a	n/a	NoResponse	0	0.0	n/a	4	25	ISIslide	MissedWin	True
253.817	0.25	Win2	0.6667000000000001	0.0	No	2.933	0.017	n/a	NoResponse	0	n/a	n/a	4	26	Cue	MissedWin	True
254.067	3.95	Win2	0.6667000000000001	0.001	No	2.933	0.0	n/a	NoResponse	0	n/a	n/a	4	26	Fixation	MissedWin	True
258.013	0.15	Win2	0.6667000000000001	0.004	No	2.933	-0.004	4.0	NoResponse	0	0.207	257.22	4	26	Target	MissedWin	True
258.163	0.55	Win2	0.6667000000000001	n/a	No	2.933	n/a	n/a	NoResponse	0	n/a	n/a	4	26	Blank	MissedWin	True
258.22	0.3	Win2	0.6667000000000001	0.004	No	2.933	-0.004	4.0	NoResponse	0	0.207	n/a	4	26	ButtonPress	MissedWin	True
258.715	1.45	Win2	0.6667000000000001	n/a	No	2.933	n/a	5.0	NoResponse	0	0.038	257.753	4	26	Feedback	MissedWin	True
260.169	2.933	Win2	0.6667000000000001	n/a	No	2.933	n/a	n/a	NoResponse	0	0.0	n/a	4	26	ISIslide	MissedWin	True
263.128	0.25	Lose2	0.6429	0.0	No	2.822	0.028	n/a	NoResponse	-1	n/a	n/a	3	27	Cue	Loss	True
263.379	4.05	Lose2	0.6429	0.0	No	2.822	0.001	n/a	NoResponse	-1	n/a	n/a	3	27	Fixation	Loss	True
267.424	0.15	Lose2	0.6429	0.004	No	2.822	-0.004	4.0	NoResponse	-1	0.197	266.621	3	27	Target	Loss	True
267.575	0.55	Lose2	0.6429	n/a	No	2.822	n/a	n/a	NoResponse	-1	n/a	n/a	3	27	Blank	Loss	True
267.621	0.3	Lose2	0.6429	0.004	No	2.822	-0.004	4.0	NoResponse	-1	0.197	n/a	3	27	ButtonPress	Loss	True
268.126	1.45	Lose2	0.6429	n/a	No	2.822	n/a	5.0	NoResponse	-1	0.042	267.168	3	27	Feedback	Loss	True
269.581	2.822	Lose2	0.6429	n/a	No	2.822	n/a	n/a	NoResponse	-1	0.0	n/a	3	27	ISIslide	Loss	True
272.422	0.25	Control	0.6207	0.001	No	2.828	0.022	n/a	NoResponse	0	n/a	n/a	3	28	Cue	Neutral	True
272.673	4.05	Control	0.6207	0.0	No	2.828	0.001	n/a	NoResponse	0	n/a	n/a	3	28	Fixation	Neutral	True
276.719	0.16	Control	0.6207	0.003	No	2.828	-0.003	4.0	NoResponse	0	0.219	275.938	3	28	Target	Neutral	True
276.886	0.54	Control	0.6207	n/a	No	2.828	n/a	n/a	NoResponse	0	n/a	n/a	3	28	Blank	Neutral	True
276.938	0.3	Control	0.6207	0.003	No	2.828	-0.003	4.0	NoResponse	0	0.219	n/a	3	28	ButtonPress	Neutral	True
277.421	1.45	Control	0.6207	n/a	No	2.828	n/a	5.0	NoResponse	0	0.015	276.436	3	28	Feedback	Neutral	True
278.875	2.828	Control	0.6207	n/a	No	2.828	n/a	n/a	NoResponse	0	0.0	n/a	3	28	ISIslide	Neutral	True
281.717	0.25	Lose2	0.6	0.0	No	2.833	0.017	n/a	NoResponse	-1	n/a	n/a	2	29	Cue	Loss	True
281.968	3.95	Lose2	0.6	0.0	No	2.833	0.001	n/a	NoResponse	-1	n/a	n/a	2	29	Fixation	Loss	True
285.913	0.17	Lose2	0.6	0.004	No	2.833	-0.004	4.0	NoResponse	-1	0.23	285.143	2	29	Target	Loss	True
286.097	0.53	Lose2	0.6	n/a	No	2.833	n/a	n/a	NoResponse	-1	n/a	n/a	2	29	Blank	Loss	True
286.143	0.3	Lose2	0.6	0.004	No	2.833	-0.004	4.0	NoResponse	-1	0.23	n/a	2	29	ButtonPress	Loss	True
286.615	1.45	Lose2	0.6	n/a	No	2.833	n/a	5.0	NoResponse	-1	0.041	285.656	2	29	Feedback	Loss	True
288.069	2.833	Lose2	0.6	n/a	No	2.833	n/a	n/a	NoResponse	-1	0.0	n/a	2	29	ISIslide	Loss	True
290.928	0.25	Win2	0.5806	0.0	No	2.772	0.028	n/a	NoResponse	0	n/a	n/a	2	30	Cue	MissedWin	True
291.179	3.9	Win2	0.5806	0.0	No	2.772	0.001	n/a	NoResponse	0	n/a	n/a	2	30	Fixation	MissedWin	True
295.074	0.18	Win2	0.5806	0.004	No	2.772	-0.004	4.0	NoResponse	0	0.192	294.266	2	30	Target	MissedWin	True
295.258	0.52	Win2	0.5806	n/a	No	2.772	n/a	n/a	NoResponse	0	n/a	n/a	2	30	Blank	MissedWin	True
295.266	0.3	Win2	0.5806	0.004	No	2.772	-0.004	4.0	NoResponse	0	0.192	n/a	2	30	ButtonPress	MissedWin	True
295.776	1.45	Win2	0.5806	n/a	No	2.772	n/a	5.0	NoResponse	0	0.002	294.778	2	30	Feedback	MissedWin	True
297.23	2.772	Win2	0.5806	n/a	No	2.772	n/a	n/a	NoResponse	0	0.0	n/a	2	30	ISIslide	MissedWin	True
300.022	0.25	Lose2	0.5625	0.0	No	2.828	0.022	n/a	NoResponse	-1	n/a	n/a	1	31	Cue	Loss	False
300.273	4.05	Lose2	0.5625	0.0	No	2.828	0.001	4.0	NoResponse	-1	3.77	303.043	1	31	Fixation	Loss	False
304.043	0.3	Lose2	0.5625	0.0	No	2.828	0.001	4.0	NoResponse	-1	3.77	n/a	1	31	ButtonPress	Loss	False
304.318	0.19	Lose2	0.5625	0.004	No	2.828	-0.004	4.0	NoResponse	-1	0.209	303.527	1	31	Target	Loss	False
304.519	0.51	Lose2	0.5625	n/a	No	2.828	n/a	n/a	NoResponse	-1	n/a	n/a	1	31	Blank	Loss	False
304.527	0.3	Lose2	0.5625	0.004	No	2.828	-0.004	4.0	NoResponse	-1	0.209	n/a	1	31	ButtonPress	Loss	False
305.02	1.45	Lose2	0.5625	n/a	No	2.828	n/a	5.0	NoResponse	-1	0.025	304.045	1	31	Feedback	Loss	False
306.475	2.828	Lose2	0.5625	n/a	No	2.828	n/a	n/a	NoResponse	-1	0.0	n/a	1	31	ISIslide	Loss	False
309.316	0.25	Lose2	0.5455	0.0	No	2.634	0.016	n/a	NoResponse	-1	n/a	n/a	0	32	Cue	Loss	True
309.567	4.15	Lose2	0.5455	0.0	No	2.634	0.001	n/a	NoResponse	-1	n/a	n/a	0	32	Fixation	Loss	True
313.713	0.2	Lose2	0.5455	0.003	No	2.634	-0.003	4.0	NoResponse	-1	0.21	312.923	0	32	Target	Loss	True
313.913	0.5	Lose2	0.5455	n/a	No	2.634	n/a	n/a	NoResponse	-1	n/a	n/a	0	32	Blank	Loss	True
313.923	0.3	Lose2	0.5455	0.003	No	2.634	-0.003	4.0	NoResponse	-1	0.21	n/a	0	32	ButtonPress	Loss	True
314.415	1.45	Lose2	0.5455	n/a	No	2.634	n/a	5.0	NoResponse	-1	0.045	313.46	0	32	Feedback	Loss	True
315.869	2.634	Lose2	0.5455	n/a	No	2.634	n/a	n/a	NoResponse	-1	0.0	n/a	0	32	ISIslide	Loss	True
318.527	0.25	Win2	0.5294	0.0	No	2.673	0.027	n/a	PrematurePress	0	n/a	n/a	0	33	Cue	MissedWin	True
318.778	4.0	Win2	0.5294	0.0	No	2.673	0.001	n/a	PrematurePress	0	n/a	n/a	0	33	Fixation	MissedWin	True
322.773	0.21	Win2	0.5294	0.004	No	2.673	-0.004	4.0	PrematurePress	0	0.057	321.83	0	33	Target	MissedWin	True
322.83	0.3	Win2	0.5294	0.004	No	2.673	-0.004	4.0	PrematurePress	0	0.057	n/a	0	33	ButtonPress	MissedWin	True
322.991	0.49	Win2	0.5294	n/a	No	2.673	n/a	n/a	PrematurePress	0	n/a	n/a	0	33	Blank	MissedWin	True
323.475	1.45	Win2	0.5294	n/a	No	2.673	n/a	5.0	PrematurePress	0	0.01	322.485	0	33	Feedback	MissedWin	True
324.93	2.673	Win2	0.5294	n/a	No	2.673	n/a	n/a	PrematurePress	0	0.0	n/a	0	33	ISIslide	MissedWin	True
327.621	0.25	Lose2	0.5428999999999999	0.0	Yes	2.629	0.021	n/a	GoodResponse	0	n/a	n/a	0	34	Cue	AvoidedLoss	False
327.872	4.05	Lose2	0.5428999999999999	0.0	Yes	2.629	0.001	4.0	GoodResponse	0	3.706	330.578	0	34	Fixation	AvoidedLoss	False
331.578	0.3	Lose2	0.5428999999999999	0.0	Yes	2.629	0.001	4.0	GoodResponse	0	3.706	n/a	0	34	ButtonPress	AvoidedLoss	False
331.917	0.22	Lose2	0.5428999999999999	0.004	Yes	2.629	-0.004	4.0	GoodResponse	0	0.106	331.023	0	34	Target	AvoidedLoss	False
332.023	0.3	Lose2	0.5428999999999999	0.004	Yes	2.629	-0.004	4.0	GoodResponse	0	0.106	n/a	0	34	ButtonPress	AvoidedLoss	False
332.151	0.48	Lose2	0.5428999999999999	n/a	Yes	2.629	n/a	n/a	GoodResponse	0	n/a	n/a	0	34	Blank	AvoidedLoss	False
332.62	1.45	Lose2	0.5428999999999999	n/a	Yes	2.629	n/a	5.0	GoodResponse	0	0.035	331.655	0	34	Feedback	AvoidedLoss	False
334.074	2.629	Lose2	0.5428999999999999	n/a	Yes	2.629	n/a	n/a	GoodResponse	0	0.0	n/a	0	34	ISIslide	AvoidedLoss	False
336.715	0.25	Lose2	0.5556	0.0	Yes	2.685	0.015	n/a	GoodResponse	0	n/a	n/a	0	35	Cue	AvoidedLoss	True
336.966	4.0	Lose2	0.5556	0.0	Yes	2.685	0.001	n/a	GoodResponse	0	n/a	n/a	0	35	Fixation	AvoidedLoss	True
340.961	0.23	Lose2	0.5556	0.004	Yes	2.685	-0.004	4.0	GoodResponse	0	0.229	340.19	0	35	Target	AvoidedLoss	True
341.19	0.3	Lose2	0.5556	0.004	Yes	2.685	-0.004	4.0	GoodResponse	0	0.229	n/a	0	35	ButtonPress	AvoidedLoss	True
341.195	0.47	Lose2	0.5556	n/a	Yes	2.685	n/a	n/a	GoodResponse	0	n/a	n/a	0	35	Blank	AvoidedLoss	True
341.663	1.45	Lose2	0.5556	n/a	Yes	2.685	n/a	5.0	GoodResponse	0	0.017	340.68	0	35	Feedback	AvoidedLoss	True
343.118	2.685	Lose2	0.5556	n/a	Yes	2.685	n/a	n/a	GoodResponse	0	0.0	n/a	0	35	ISIslide	AvoidedLoss	True
345.826	0.25	Control	0.5676	0.0	Yes	2.674	0.026	n/a	GoodResponse	0	n/a	n/a	0	36	Cue	Neutral	True
346.077	4.0	Control	0.5676	0.0	Yes	2.674	0.001	n/a	GoodResponse	0	n/a	n/a	0	36	Fixation	Neutral	True
350.072	0.24	Control	0.5676	0.004	Yes	2.674	-0.004	4.0	GoodResponse	0	0.181	349.253	0	36	Target	Neutral	True
350.253	0.3	Control	0.5676	0.004	Yes	2.674	-0.004	4.0	GoodResponse	0	0.181	n/a	0	36	ButtonPress	Neutral	True
350.323	0.46	Control	0.5676	n/a	Yes	2.674	n/a	n/a	GoodResponse	0	n/a	n/a	0	36	Blank	Neutral	True
350.774	1.45	Control	0.5676	n/a	Yes	2.674	n/a	5.0	GoodResponse	0	0.028	349.802	0	36	Feedback	Neutral	True
352.228	2.674	Control	0.5676	n/a	Yes	2.674	n/a	n/a	GoodResponse	0	0.0	n/a	0	36	ISIslide	Neutral	True
354.92	0.25	Win2	0.5526	0.0	No	2.88	0.02	n/a	NoResponse	0	n/a	n/a	0	37	Cue	MissedWin	False
355.17	4.0	Win2	0.5526	0.001	No	2.88	0.0	4.0	NoResponse	0	3.866	358.036	0	37	Fixation	MissedWin	False
359.036	0.3	Win2	0.5526	0.001	No	2.88	0.0	4.0	NoResponse	0	3.866	n/a	0	37	ButtonPress	MissedWin	False
359.166	0.25	Win2	0.5526	0.004	No	2.88	-0.004	4.0	NoResponse	0	0.342	358.508	0	37	Target	MissedWin	False
359.416	0.45	Win2	0.5526	n/a	No	2.88	n/a	n/a	NoResponse	0	n/a	n/a	0	37	Blank	MissedWin	False
359.508	0.3	Win2	0.5526	0.004	No	2.88	-0.004	4.0	NoResponse	0	0.342	n/a	0	37	ButtonPress	MissedWin	False
359.868	1.45	Win2	0.5526	n/a	No	2.88	n/a	5.0	NoResponse	0	0.007	358.875	0	37	Feedback	MissedWin	False
361.322	2.88	Win2	0.5526	n/a	No	2.88	n/a	n/a	NoResponse	0	0.0	n/a	0	37	ISIslide	MissedWin	False
364.231	0.25	Lose2	0.5640999999999999	0.0	Yes	2.819	0.031	n/a	GoodResponse	0	n/a	n/a	0	38	Cue	AvoidedLoss	True
364.482	3.95	Lose2	0.5640999999999999	0.0	Yes	2.819	0.001	n/a	GoodResponse	0	n/a	n/a	0	38	Fixation	AvoidedLoss	True
368.427	0.26	Lose2	0.5640999999999999	0.004	Yes	2.819	-0.004	4.0	GoodResponse	0	0.249	367.676	0	38	Target	AvoidedLoss	True
368.676	0.3	Lose2	0.5640999999999999	0.004	Yes	2.819	-0.004	4.0	GoodResponse	0	0.249	n/a	0	38	ButtonPress	AvoidedLoss	True
368.694	0.44	Lose2	0.5640999999999999	n/a	Yes	2.819	n/a	n/a	GoodResponse	0	n/a	n/a	0	38	Blank	AvoidedLoss	True
369.129	1.45	Lose2	0.5640999999999999	n/a	Yes	2.819	n/a	5.0	GoodResponse	0	0.014	368.143	0	38	Feedback	AvoidedLoss	True
370.583	2.819	Lose2	0.5640999999999999	n/a	Yes	2.819	n/a	n/a	GoodResponse	0	0.0	n/a	0	38	ISIslide	AvoidedLoss	True
373.425	0.25	Win2	0.575	0.0	Yes	2.975	0.025	n/a	GoodResponse	1	n/a	n/a	1	39	Cue	Win	False
373.676	4.1	Win2	0.575	0.0	Yes	2.975	0.001	4.0	GoodResponse	1	3.66	376.336	1	39	Fixation	Win	False
377.336	0.3	Win2	0.575	0.0	Yes	2.975	0.001	4.0	GoodResponse	1	3.66	n/a	1	39	ButtonPress	Win	False
377.771	0.27	Win2	0.575	0.004	Yes	2.975	-0.004	4.0	GoodResponse	1	0.104	376.875	1	39	Target	Win	False
377.875	0.3	Win2	0.575	0.004	Yes	2.975	-0.004	4.0	GoodResponse	1	0.104	n/a	1	39	ButtonPress	Win	False
378.056	0.43	Win2	0.575	n/a	Yes	2.975	n/a	n/a	GoodResponse	1	n/a	n/a	1	39	Blank	Win	False
378.474	1.45	Win2	0.575	n/a	Yes	2.975	n/a	5.0	GoodResponse	1	0.035	377.509	1	39	Feedback	Win	False
379.928	2.975	Win2	0.575	n/a	Yes	2.975	n/a	n/a	GoodResponse	1	0.0	n/a	1	39	ISIslide	Win	False
382.92	0.25	Win2	0.5854	0.0	Yes	2.73	0.02	n/a	GoodResponse	1	n/a	n/a	2	40	Cue	Win	True
383.171	3.95	Win2	0.5854	0.0	Yes	2.73	0.001	n/a	GoodResponse	1	n/a	n/a	2	40	Fixation	Win	True
387.116	0.28	Win2	0.5854	0.004	Yes	2.73	-0.004	4.0	GoodResponse	1	0.179	386.295	2	40	Target	Win	True
387.295	0.3	Win2	0.5854	0.004	Yes	2.73	-0.004	4.0	GoodResponse	1	0.179	n/a	2	40	ButtonPress	Win	True
387.4	0.42	Win2	0.5854	n/a	Yes	2.73	n/a	n/a	GoodResponse	1	n/a	n/a	2	40	Blank	Win	True
387.818	1.45	Win2	0.5854	n/a	Yes	2.73	n/a	5.0	GoodResponse	1	0.008	386.826	2	40	Feedback	Win	True
389.273	2.73	Win2	0.5854	n/a	Yes	2.73	n/a	n/a	GoodResponse	1	0.0	n/a	2	40	ISIslide	Win	True
392.031	0.25	Win2	0.5952000000000001	0.0	Yes	2.769	0.031	n/a	GoodResponse	1	n/a	n/a	3	41	Cue	Win	False
392.282	3.9	Win2	0.5952000000000001	0.0	Yes	2.769	0.001	4.0	GoodResponse	1	3.882	395.164	3	41	Fixation	Win	False
396.164	0.3	Win2	0.5952000000000001	0.0	Yes	2.769	0.001	4.0	GoodResponse	1	3.882	n/a	3	41	ButtonPress	Win	False
396.177	0.29	Win2	0.5952000000000001	0.004	Yes	2.769	-0.004	4.0	GoodResponse	1	0.249	395.426	3	41	Target	Win	False
396.426	0.3	Win2	0.5952000000000001	0.004	Yes	2.769	-0.004	4.0	GoodResponse	1	0.249	n/a	3	41	ButtonPress	Win	False
396.478	0.41	Win2	0.5952000000000001	n/a	Yes	2.769	n/a	n/a	GoodResponse	1	n/a	n/a	3	41	Blank	Win	False
396.879	1.45	Win2	0.5952000000000001	n/a	Yes	2.769	n/a	5.0	GoodResponse	1	0.02	395.899	3	41	Feedback	Win	False
398.333	2.769	Win2	0.5952000000000001	n/a	Yes	2.769	n/a	n/a	GoodResponse	1	0.0	n/a	3	41	ISIslide	Win	False
401.125	0.25	Control	0.6047	0.0	Yes	2.925	0.025	n/a	GoodResponse	0	n/a	n/a	3	42	Cue	Neutral	True
401.376	3.85	Control	0.6047	0.0	Yes	2.925	0.001	n/a	GoodResponse	0	n/a	n/a	3	42	Fixation	Neutral	True
405.237	0.3	Control	0.6047	0.0	Yes	2.925	0.012	4.0	GoodResponse	0	0.215	404.452	3	42	Target	Neutral	True
405.452	0.3	Control	0.6047	0.0	Yes	2.925	0.012	4.0	GoodResponse	0	0.215	n/a	3	42	ButtonPress	Neutral	True
405.521	0.4	Control	0.6047	n/a	Yes	2.925	n/a	n/a	GoodResponse	0	n/a	n/a	3	42	Blank	Neutral	True
405.922	1.45	Control	0.6047	n/a	Yes	2.925	n/a	5.0	GoodResponse	0	0.002	404.924	3	42	Feedback	Neutral	True
407.377	2.925	Control	0.6047	n/a	Yes	2.925	n/a	n/a	GoodResponse	0	0.0	n/a	3	42	ISIslide	Neutral	True
410.319	0.25	Win2	0.6136	0.0	Yes	3.181	0.019	n/a	GoodResponse	1	n/a	n/a	4	43	Cue	Win	False
410.57	4.0	Win2	0.6136	0.0	Yes	3.181	0.001	4.0	GoodResponse	1	3.852	413.422	4	43	Fixation	Win	False
414.422	0.3	Win2	0.6136	0.0	Yes	3.181	0.001	4.0	GoodResponse	1	3.852	n/a	4	43	ButtonPress	Win	False
414.565	0.31	Win2	0.6136	0.004	Yes	3.181	-0.004	4.0	GoodResponse	1	0.183	413.748	4	43	Target	Win	False
414.748	0.3	Win2	0.6136	0.004	Yes	3.181	-0.004	4.0	GoodResponse	1	0.183	n/a	4	43	ButtonPress	Win	False
414.883	0.39	Win2	0.6136	n/a	Yes	3.181	n/a	n/a	GoodResponse	1	n/a	n/a	4	43	Blank	Win	False
415.267	1.45	Win2	0.6136	n/a	Yes	3.181	n/a	5.0	GoodResponse	1	0.022	414.289	4	43	Feedback	Win	False
416.722	3.181	Win2	0.6136	n/a	Yes	3.181	n/a	n/a	GoodResponse	1	0.0	n/a	4	43	ISIslide	Win	False
419.914	0.25	Win2	0.6	0.0	No	2.986	0.014	n/a	PrematurePress	0	n/a	n/a	4	44	Cue	MissedWin	True
420.165	4.0	Win2	0.6	0.0	No	2.986	0.001	n/a	PrematurePress	0	n/a	n/a	4	44	Fixation	MissedWin	True
424.16	0.32	Win2	0.6	0.004	No	2.986	-0.004	4.0	PrematurePress	0	0.023	423.183	4	44	Target	MissedWin	True
424.183	0.3	Win2	0.6	0.004	No	2.986	-0.004	4.0	PrematurePress	0	0.023	n/a	4	44	ButtonPress	MissedWin	True
424.495	0.38	Win2	0.6	n/a	No	2.986	n/a	n/a	PrematurePress	0	n/a	n/a	4	44	Blank	MissedWin	True
424.863	1.45	Win2	0.6	n/a	No	2.986	n/a	5.0	PrematurePress	0	0.035	423.898	4	44	Feedback	MissedWin	True
426.317	2.986	Win2	0.6	n/a	No	2.986	n/a	n/a	PrematurePress	0	0.0	n/a	4	44	ISIslide	MissedWin	True
429.326	0.25	Control	0.5870000000000001	0.0	No	2.874	0.026	n/a	NoResponse	0	n/a	n/a	4	45	Cue	Neutral	True
429.577	4.1	Control	0.5870000000000001	0.0	No	2.874	0.001	4.0	NoResponse	0	4.069	432.646	4	45	Fixation	Neutral	True
433.646	0.3	Control	0.5870000000000001	0.0	No	2.874	0.001	4.0	NoResponse	0	4.069	n/a	4	45	ButtonPress	Neutral	True
433.672	0.33	Control	0.5870000000000001	0.004	No	2.874	-0.004	n/a	NoResponse	0	n/a	n/a	4	45	Target	Neutral	True
434.007	0.37	Control	0.5870000000000001	n/a	No	2.874	n/a	n/a	NoResponse	0	n/a	n/a	4	45	Blank	Neutral	True
434.374	1.45	Control	0.5870000000000001	n/a	No	2.874	n/a	5.0	NoResponse	0	0.037	433.411	4	45	Feedback	Neutral	True
435.829	2.874	Control	0.5870000000000001	n/a	No	2.874	n/a	n/a	NoResponse	0	0.0	n/a	4	45	ISIslide	Neutral	True
438.721	0.25	Lose2	0.5957	0.0	Yes	3.379	0.021	n/a	GoodResponse	0	n/a	n/a	4	46	Cue	AvoidedLoss	True
438.972	4.0	Lose2	0.5957	0.0	Yes	3.379	0.001	n/a	GoodResponse	0	n/a	n/a	4	46	Fixation	AvoidedLoss	True
442.967	0.34	Lose2	0.5957	0.004	Yes	3.379	-0.004	4.0	GoodResponse	0	0.173	442.14	4	46	Target	AvoidedLoss	True
443.14	0.3	Lose2	0.5957	0.004	Yes	3.379	-0.004	4.0	GoodResponse	0	0.173	n/a	4	46	ButtonPress	AvoidedLoss	True
443.318	0.36	Lose2	0.5957	n/a	Yes	3.379	n/a	n/a	GoodResponse	0	n/a	n/a	4	46	Blank	AvoidedLoss	True
443.669	1.45	Lose2	0.5957	n/a	Yes	3.379	n/a	5.0	GoodResponse	0	0.01	442.679	4	46	Feedback	AvoidedLoss	True
445.123	3.379	Lose2	0.5957	n/a	Yes	3.379	n/a	n/a	GoodResponse	0	0.0	n/a	4	46	ISIslide	AvoidedLoss	True
448.517	0.25	Lose2	0.6042000000000001	0.0	Yes	2.683	0.017	n/a	GoodResponse	0	n/a	n/a	4	47	Cue	AvoidedLoss	True
448.768	4.0	Lose2	0.6042000000000001	0.0	Yes	2.683	0.001	n/a	GoodResponse	0	n/a	n/a	4	47	Fixation	AvoidedLoss	True
452.763	0.35	Lose2	0.6042000000000001	0.004	Yes	2.683	-0.004	4.0	GoodResponse	0	0.22	451.983	4	47	Target	AvoidedLoss	True
452.983	0.3	Lose2	0.6042000000000001	0.004	Yes	2.683	-0.004	4.0	GoodResponse	0	0.22	n/a	4	47	ButtonPress	AvoidedLoss	True
453.114	0.35	Lose2	0.6042000000000001	n/a	Yes	2.683	n/a	n/a	GoodResponse	0	n/a	n/a	4	47	Blank	AvoidedLoss	True
453.465	1.45	Lose2	0.6042000000000001	n/a	Yes	2.683	n/a	5.0	GoodResponse	0	0.019	452.484	4	47	Feedback	AvoidedLoss	True
454.919	2.683	Lose2	0.6042000000000001	n/a	Yes	2.683	n/a	n/a	GoodResponse	0	0.0	n/a	4	47	ISIslide	AvoidedLoss	True
457.627	0.25	Lose2	0.6122	0.0	Yes	3.023	0.027	n/a	GoodResponse	0	n/a	n/a	4	48	Cue	AvoidedLoss	True
457.878	3.95	Lose2	0.6122	0.0	Yes	3.023	0.001	n/a	GoodResponse	0	n/a	n/a	4	48	Fixation	AvoidedLoss	True
461.823	0.36	Lose2	0.6122	0.004	Yes	3.023	-0.004	4.0	GoodResponse	0	0.237	461.06	4	48	Target	AvoidedLoss	True
462.06	0.3	Lose2	0.6122	0.004	Yes	3.023	-0.004	4.0	GoodResponse	0	0.237	n/a	4	48	ButtonPress	AvoidedLoss	True
462.191	0.34	Lose2	0.6122	n/a	Yes	3.023	n/a	n/a	GoodResponse	0	n/a	n/a	4	48	Blank	AvoidedLoss	True
462.525	1.45	Lose2	0.6122	n/a	Yes	3.023	n/a	5.0	GoodResponse	0	0.032	461.557	4	48	Feedback	AvoidedLoss	True
463.98	3.023	Lose2	0.6122	n/a	Yes	3.023	n/a	n/a	GoodResponse	0	0.0	n/a	4	48	ISIslide	AvoidedLoss	True
467.022	0.25	Control	0.62	0.0	Yes	2.878	0.022	n/a	GoodResponse	0	n/a	n/a	4	49	Cue	Neutral	True
467.273	4.0	Control	0.62	0.0	Yes	2.878	0.001	n/a	GoodResponse	0	n/a	n/a	4	49	Fixation	Neutral	True
471.268	0.37	Control	0.62	0.004	Yes	2.878	-0.004	4.0	GoodResponse	0	0.245	470.513	4	49	Target	Neutral	True
471.513	0.3	Control	0.62	0.004	Yes	2.878	-0.004	4.0	GoodResponse	0	0.245	n/a	4	49	ButtonPress	Neutral	True
471.653	0.33	Control	0.62	n/a	Yes	2.878	n/a	n/a	GoodResponse	0	n/a	n/a	4	49	Blank	Neutral	True
471.97	1.45	Control	0.62	n/a	Yes	2.878	n/a	5.0	GoodResponse	0	0.002	470.972	4	49	Feedback	Neutral	True
473.425	2.878	Control	0.62	n/a	Yes	2.878	n/a	n/a	GoodResponse	0	0.0	n/a	4	49	ISIslide	Neutral	True
476.317	0.25	Control	0.6275	0.0	Yes	2.783	0.017	n/a	GoodResponse	0	n/a	n/a	4	50	Cue	Neutral	True
476.568	4.0	Control	0.6275	0.0	Yes	2.783	0.001	n/a	GoodResponse	0	n/a	n/a	4	50	Fixation	Neutral	True
480.563	0.38	Control	0.6275	0.004	Yes	2.783	-0.004	4.0	GoodResponse	0	0.193	479.756	4	50	Target	Neutral	True
480.756	0.3	Control	0.6275	0.004	Yes	2.783	-0.004	4.0	GoodResponse	0	0.193	n/a	4	50	ButtonPress	Neutral	True
480.947	0.32	Control	0.6275	n/a	Yes	2.783	n/a	n/a	GoodResponse	0	n/a	n/a	4	50	Blank	Neutral	True
481.265	1.45	Control	0.6275	n/a	Yes	2.783	n/a	5.0	GoodResponse	0	0.023	480.288	4	50	Feedback	Neutral	True
482.719	2.783	Control	0.6275	n/a	Yes	2.783	n/a	n/a	GoodResponse	0	0.0	n/a	4	50	ISIslide	Neutral	True
485.528	0.25	Control	0.6346	0.0	Yes	2.722	0.028	n/a	GoodResponse	0	n/a	n/a	4	51	Cue	Neutral	True
485.778	3.95	Control	0.6346	0.001	Yes	2.722	0.0	n/a	GoodResponse	0	n/a	n/a	4	51	Fixation	Neutral	True
489.724	0.39	Control	0.6346	0.004	Yes	2.722	-0.004	4.0	GoodResponse	0	0.179	488.903	4	51	Target	Neutral	True
489.903	0.3	Control	0.6346	0.004	Yes	2.722	-0.004	4.0	GoodResponse	0	0.179	n/a	4	51	ButtonPress	Neutral	True
490.125	0.31	Control	0.6346	n/a	Yes	2.722	n/a	n/a	GoodResponse	0	n/a	n/a	4	51	Blank	Neutral	True
490.426	1.45	Control	0.6346	n/a	Yes	2.722	n/a	5.0	GoodResponse	0	0.033	489.459	4	51	Feedback	Neutral	True
491.88	2.722	Control	0.6346	n/a	Yes	2.722	n/a	n/a	GoodResponse	0	0.0	n/a	4	51	ISIslide	Neutral	True
494.622	0.25	Control	0.6415000000000001	0.0	Yes	2.628	0.022	n/a	GoodResponse	0	n/a	n/a	4	52	Cue	Neutral	True
494.872	4.05	Control	0.6415000000000001	0.0	Yes	2.628	0.0	n/a	GoodResponse	0	n/a	n/a	4	52	Fixation	Neutral	True
498.918	0.4	Control	0.6415000000000001	0.004	Yes	2.628	-0.004	4.0	GoodResponse	0	0.205	498.123	4	52	Target	Neutral	True
499.123	0.3	Control	0.6415000000000001	0.004	Yes	2.628	-0.004	4.0	GoodResponse	0	0.205	n/a	4	52	ButtonPress	Neutral	True
499.319	0.3	Control	0.6415000000000001	n/a	Yes	2.628	n/a	n/a	GoodResponse	0	n/a	n/a	4	52	Blank	Neutral	True
499.62	1.45	Control	0.6415000000000001	n/a	Yes	2.628	n/a	5.0	GoodResponse	0	0.01	498.63	4	52	Feedback	Neutral	True
501.074	2.628	Control	0.6415000000000001	n/a	Yes	2.628	n/a	n/a	GoodResponse	0	0.0	n/a	4	52	ISIslide	Neutral	True
503.716	0.25	Win2	0.6481	0.0	Yes	2.934	0.016	n/a	GoodResponse	1	n/a	n/a	5	53	Cue	Win	True
503.966	4.05	Win2	0.6481	0.0	Yes	2.934	0.0	n/a	GoodResponse	1	n/a	n/a	5	53	Fixation	Win	True
508.012	0.41	Win2	0.6481	0.004	Yes	2.934	-0.004	4.0	GoodResponse	1	0.199	507.211	5	53	Target	Win	True
508.211	0.3	Win2	0.6481	0.004	Yes	2.934	-0.004	4.0	GoodResponse	1	0.199	n/a	5	53	ButtonPress	Win	True
508.43	0.29	Win2	0.6481	n/a	Yes	2.934	n/a	n/a	GoodResponse	1	n/a	n/a	5	53	Blank	Win	True
508.714	1.45	Win2	0.6481	n/a	Yes	2.934	n/a	5.0	GoodResponse	1	0.038	507.752	5	53	Feedback	Win	True
510.168	2.934	Win2	0.6481	n/a	Yes	2.934	n/a	n/a	GoodResponse	1	0.0	n/a	5	53	ISIslide	Win	True
513.127	0.25	Win2	0.6545000000000001	0.0	Yes	2.723	0.027	n/a	GoodResponse	1	n/a	n/a	6	54	Cue	Win	True
513.378	3.95	Win2	0.6545000000000001	0.0	Yes	2.723	0.001	n/a	GoodResponse	1	n/a	n/a	6	54	Fixation	Win	True
517.323	0.42	Win2	0.6545000000000001	0.004	Yes	2.723	-0.004	4.0	GoodResponse	1	0.104	516.427	6	54	Target	Win	True
517.427	0.3	Win2	0.6545000000000001	0.004	Yes	2.723	-0.004	4.0	GoodResponse	1	0.104	n/a	6	54	ButtonPress	Win	True
517.758	0.28	Win2	0.6545000000000001	n/a	Yes	2.723	n/a	n/a	GoodResponse	1	n/a	n/a	6	54	Blank	Win	True
518.025	1.45	Win2	0.6545000000000001	n/a	Yes	2.723	n/a	5.0	GoodResponse	1	0.044	517.069	6	54	Feedback	Win	True
519.479	2.723	Win2	0.6545000000000001	n/a	Yes	2.723	n/a	n/a	GoodResponse	1	0.0	n/a	6	54	ISIslide	Win	True
522.221	0.25	Control	0.6607	0.0	Yes	3.029	0.021	n/a	GoodResponse	0	n/a	n/a	6	55	Cue	Neutral	True
522.472	3.95	Control	0.6607	0.0	Yes	3.029	0.001	n/a	GoodResponse	0	n/a	n/a	6	55	Fixation	Neutral	True
526.417	0.43	Control	0.6607	0.004	Yes	3.029	-0.004	4.0	GoodResponse	0	0.168	525.585	6	55	Target	Neutral	True
526.585	0.3	Control	0.6607	0.004	Yes	3.029	-0.004	4.0	GoodResponse	0	0.168	n/a	6	55	ButtonPress	Neutral	True
526.852	0.27	Control	0.6607	n/a	Yes	3.029	n/a	n/a	GoodResponse	0	n/a	n/a	6	55	Blank	Neutral	True
527.119	1.45	Control	0.6607	n/a	Yes	3.029	n/a	5.0	GoodResponse	0	0.023	526.142	6	55	Feedback	Neutral	True
528.573	3.029	Control	0.6607	n/a	Yes	3.029	n/a	n/a	GoodResponse	0	0.0	n/a	6	55	ISIslide	Neutral	True
531.616	0.25	Control	0.6667000000000001	0.0	Yes	2.834	0.016	n/a	GoodResponse	0	n/a	n/a	6	56	Cue	Neutral	True
531.867	3.95	Control	0.6667000000000001	0.0	Yes	2.834	0.001	n/a	GoodResponse	0	n/a	n/a	6	56	Fixation	Neutral	True
535.812	0.43	Control	0.6667000000000001	0.004	Yes	2.834	-0.004	4.0	GoodResponse	0	0.167	534.979	6	56	Target	Neutral	True
535.979	0.3	Control	0.6667000000000001	0.004	Yes	2.834	-0.004	4.0	GoodResponse	0	0.167	n/a	6	56	ButtonPress	Neutral	True
536.246	0.27	Control	0.6667000000000001	n/a	Yes	2.834	n/a	n/a	GoodResponse	0	n/a	n/a	6	56	Blank	Neutral	True
536.514	1.45	Control	0.6667000000000001	n/a	Yes	2.834	n/a	5.0	GoodResponse	0	0.042	535.556	6	56	Feedback	Neutral	True
537.968	2.834	Control	0.6667000000000001	n/a	Yes	2.834	n/a	n/a	GoodResponse	0	0.0	n/a	6	56	ISIslide	Neutral	True
540.827	0.25	Control	0.6724	0.0	Yes	3.473	0.027	n/a	GoodResponse	0	n/a	n/a	6	57	Cue	Neutral	False
541.077	4.0	Control	0.6724	0.001	Yes	3.473	0.0	4.0	GoodResponse	0	3.856	543.933	6	57	Fixation	Neutral	False
544.933	0.3	Control	0.6724	0.001	Yes	3.473	0.0	4.0	GoodResponse	0	3.856	n/a	6	57	ButtonPress	Neutral	False
545.073	0.42	Control	0.6724	0.004	Yes	3.473	-0.004	4.0	GoodResponse	0	0.333	544.406	6	57	Target	Neutral	False
545.406	0.3	Control	0.6724	0.004	Yes	3.473	-0.004	4.0	GoodResponse	0	0.333	n/a	6	57	ButtonPress	Neutral	False
545.507	0.28	Control	0.6724	n/a	Yes	3.473	n/a	n/a	GoodResponse	0	n/a	n/a	6	57	Blank	Neutral	False
545.775	1.45	Control	0.6724	n/a	Yes	3.473	n/a	5.0	GoodResponse	0	0.001	544.776	6	57	Feedback	Neutral	False
547.229	3.473	Control	0.6724	n/a	Yes	3.473	n/a	n/a	GoodResponse	0	0.0	n/a	6	57	ISIslide	Neutral	False
550.723	0.25	Win2	0.6609999999999999	0.0	No	2.727	0.023	n/a	PrematurePress	0	n/a	n/a	6	58	Cue	MissedWin	True
550.974	4.05	Win2	0.6609999999999999	0.0	No	2.727	0.001	n/a	PrematurePress	0	n/a	n/a	6	58	Fixation	MissedWin	True
555.019	0.41	Win2	0.6609999999999999	0.004	No	2.727	-0.004	4.0	PrematurePress	0	0.086	554.105	6	58	Target	MissedWin	True
555.105	0.3	Win2	0.6609999999999999	0.004	No	2.727	-0.004	4.0	PrematurePress	0	0.086	n/a	6	58	ButtonPress	MissedWin	True
555.437	0.29	Win2	0.6609999999999999	n/a	No	2.727	n/a	n/a	PrematurePress	0	n/a	n/a	6	58	Blank	MissedWin	True
555.721	1.45	Win2	0.6609999999999999	n/a	No	2.727	n/a	5.0	PrematurePress	0	0.007	554.728	6	58	Feedback	MissedWin	True
557.176	2.727	Win2	0.6609999999999999	n/a	No	2.727	n/a	n/a	PrematurePress	0	0.0	n/a	6	58	ISIslide	MissedWin	True
559.917	0.25	Lose2	0.6667000000000001	0.0	Yes	2.683	0.017	n/a	GoodResponse	0	n/a	n/a	6	59	Cue	AvoidedLoss	False
560.168	4.0	Lose2	0.6667000000000001	0.0	Yes	2.683	0.001	4.0	GoodResponse	0	3.967	563.135	6	59	Fixation	AvoidedLoss	False
564.135	0.3	Lose2	0.6667000000000001	0.0	Yes	2.683	0.001	4.0	GoodResponse	0	3.967	n/a	6	59	ButtonPress	AvoidedLoss	False
564.163	0.41	Lose2	0.6667000000000001	0.004	Yes	2.683	-0.004	4.0	GoodResponse	0	0.231	563.394	6	59	Target	AvoidedLoss	False
564.394	0.3	Lose2	0.6667000000000001	0.004	Yes	2.683	-0.004	4.0	GoodResponse	0	0.231	n/a	6	59	ButtonPress	AvoidedLoss	False
564.581	0.29	Lose2	0.6667000000000001	n/a	Yes	2.683	n/a	n/a	GoodResponse	0	n/a	n/a	6	59	Blank	AvoidedLoss	False
564.865	1.45	Lose2	0.6667000000000001	n/a	Yes	2.683	n/a	5.0	GoodResponse	0	0.033	563.898	6	59	Feedback	AvoidedLoss	False
566.32	2.683	Lose2	0.6667000000000001	n/a	Yes	2.683	n/a	n/a	GoodResponse	0	0.0	n/a	6	59	ISIslide	AvoidedLoss	False
569.028	0.25	Control	0.6720999999999999	0.0	Yes	2.672	0.028	n/a	GoodResponse	0	n/a	n/a	6	60	Cue	Neutral	True
569.279	4.0	Control	0.6720999999999999	0.0	Yes	2.672	0.001	n/a	GoodResponse	0	n/a	n/a	6	60	Fixation	Neutral	True
573.274	0.4	Control	0.6720999999999999	0.004	Yes	2.672	-0.004	4.0	GoodResponse	0	0.182	572.456	6	60	Target	Neutral	True
573.456	0.3	Control	0.6720999999999999	0.004	Yes	2.672	-0.004	4.0	GoodResponse	0	0.182	n/a	6	60	ButtonPress	Neutral	True
573.675	0.3	Control	0.6720999999999999	n/a	Yes	2.672	n/a	n/a	GoodResponse	0	n/a	n/a	6	60	Blank	Neutral	True
573.976	1.45	Control	0.6720999999999999	n/a	Yes	2.672	n/a	5.0	GoodResponse	0	0.044	573.02	6	60	Feedback	Neutral	True
575.43	2.672	Control	0.6720999999999999	n/a	Yes	2.672	n/a	n/a	GoodResponse	0	0.0	n/a	6	60	ISIslide	Neutral	True
578.122	0.25	Lose2	0.6613	0.0	No	2.978	0.022	n/a	NoResponse	-1	n/a	n/a	5	61	Cue	Loss	False
578.373	4.0	Lose2	0.6613	0.0	No	2.978	0.001	4.0	NoResponse	-1	3.542	580.915	5	61	Fixation	Loss	False
581.915	0.3	Lose2	0.6613	0.0	No	2.978	0.001	4.0	NoResponse	-1	3.542	n/a	5	61	ButtonPress	Loss	False
582.368	0.39	Lose2	0.6613	0.004	No	2.978	-0.004	4.0	NoResponse	-1	0.411	581.779	5	61	Target	Loss	False
582.769	0.31	Lose2	0.6613	n/a	No	2.978	n/a	n/a	NoResponse	-1	n/a	n/a	5	61	Blank	Loss	False
582.779	0.3	Lose2	0.6613	0.004	No	2.978	-0.004	4.0	NoResponse	-1	0.411	n/a	5	61	ButtonPress	Loss	False
583.07	1.45	Lose2	0.6613	n/a	No	2.978	n/a	5.0	NoResponse	-1	0.023	582.093	5	61	Feedback	Loss	False
584.524	2.978	Lose2	0.6613	n/a	No	2.978	n/a	n/a	NoResponse	-1	0.0	n/a	5	61	ISIslide	Loss	False
587.517	0.25	Lose2	0.6667000000000001	0.0	Yes	2.883	0.017	n/a	GoodResponse	0	n/a	n/a	5	62	Cue	AvoidedLoss	True
587.767	3.9	Lose2	0.6667000000000001	0.0	Yes	2.883	0.0	n/a	GoodResponse	0	n/a	n/a	5	62	Fixation	AvoidedLoss	True
591.679	0.39	Lose2	0.6667000000000001	0.0	Yes	2.883	0.012	4.0	GoodResponse	0	0.192	590.871	5	62	Target	AvoidedLoss	True
591.871	0.3	Lose2	0.6667000000000001	0.0	Yes	2.883	0.012	4.0	GoodResponse	0	0.192	n/a	5	62	ButtonPress	AvoidedLoss	True
592.064	0.31	Lose2	0.6667000000000001	n/a	Yes	2.883	n/a	n/a	GoodResponse	0	n/a	n/a	5	62	Blank	AvoidedLoss	True
592.364	1.45	Lose2	0.6667000000000001	n/a	Yes	2.883	n/a	5.0	GoodResponse	0	0.046	591.41	5	62	Feedback	AvoidedLoss	True
593.819	2.883	Lose2	0.6667000000000001	n/a	Yes	2.883	n/a	n/a	GoodResponse	0	0.0	n/a	5	62	ISIslide	AvoidedLoss	True
596.728	0.25	Lose2	0.6718999999999999	0.0	Yes	2.622	0.028	n/a	GoodResponse	0	n/a	n/a	5	63	Cue	AvoidedLoss	True
596.978	4.05	Lose2	0.6718999999999999	0.0	Yes	2.622	0.0	n/a	GoodResponse	0	n/a	n/a	5	63	Fixation	AvoidedLoss	True
601.024	0.38	Lose2	0.6718999999999999	0.004	Yes	2.622	-0.004	4.0	GoodResponse	0	0.169	600.193	5	63	Target	AvoidedLoss	True
601.193	0.3	Lose2	0.6718999999999999	0.004	Yes	2.622	-0.004	4.0	GoodResponse	0	0.169	n/a	5	63	ButtonPress	AvoidedLoss	True
601.408	0.32	Lose2	0.6718999999999999	n/a	Yes	2.622	n/a	n/a	GoodResponse	0	n/a	n/a	5	63	Blank	AvoidedLoss	True
601.726	1.45	Lose2	0.6718999999999999	n/a	Yes	2.622	n/a	5.0	GoodResponse	0	0.0	600.726	5	63	Feedback	AvoidedLoss	True
603.18	2.622	Lose2	0.6718999999999999	n/a	Yes	2.622	n/a	n/a	GoodResponse	0	0.0	n/a	5	63	ISIslide	AvoidedLoss	True
605.821	0.25	Win2	0.6769	0.001	Yes	3.129	0.021	n/a	GoodResponse	1	n/a	n/a	6	64	Cue	Win	True
606.072	4.15	Win2	0.6769	0.0	Yes	3.129	0.001	n/a	GoodResponse	1	n/a	n/a	6	64	Fixation	Win	True
610.218	0.37	Win2	0.6769	0.003	Yes	3.129	-0.003	4.0	GoodResponse	1	0.195	609.413	6	64	Target	Win	True
610.413	0.3	Win2	0.6769	0.003	Yes	3.129	-0.003	4.0	GoodResponse	1	0.195	n/a	6	64	ButtonPress	Win	True
610.602	0.33	Win2	0.6769	n/a	Yes	3.129	n/a	n/a	GoodResponse	1	n/a	n/a	6	64	Blank	Win	True
610.92	1.45	Win2	0.6769	n/a	Yes	3.129	n/a	5.0	GoodResponse	1	0.026	609.946	6	64	Feedback	Win	True
612.374	3.129	Win2	0.6769	n/a	Yes	3.129	n/a	n/a	GoodResponse	1	0.0	n/a	6	64	ISIslide	Win	True
615.517	0.25	Control	0.6818000000000001	0.0	Yes	2.783	0.017	n/a	GoodResponse	0	n/a	n/a	6	65	Cue	Neutral	True
615.768	4.0	Control	0.6818000000000001	0.0	Yes	2.783	0.001	n/a	GoodResponse	0	n/a	n/a	6	65	Fixation	Neutral	True
619.763	0.36	Control	0.6818000000000001	0.004	Yes	2.783	-0.004	4.0	GoodResponse	0	0.251	619.014	6	65	Target	Neutral	True
620.014	0.3	Control	0.6818000000000001	0.004	Yes	2.783	-0.004	4.0	GoodResponse	0	0.251	n/a	6	65	ButtonPress	Neutral	True
620.131	0.34	Control	0.6818000000000001	n/a	Yes	2.783	n/a	n/a	GoodResponse	0	n/a	n/a	6	65	Blank	Neutral	True
620.465	1.45	Control	0.6818000000000001	n/a	Yes	2.783	n/a	5.0	GoodResponse	0	0.042	619.507	6	65	Feedback	Neutral	True
621.92	2.783	Control	0.6818000000000001	n/a	Yes	2.783	n/a	n/a	GoodResponse	0	0.0	n/a	6	65	ISIslide	Neutral	True
624.728	0.25	Win2	0.6716	0.0	No	2.772	0.028	n/a	PrematurePress	0	n/a	n/a	6	66	Cue	MissedWin	True
624.979	3.9	Win2	0.6716	0.0	No	2.772	0.001	n/a	PrematurePress	0	n/a	n/a	6	66	Fixation	MissedWin	True
628.874	0.35	Win2	0.6716	0.004	No	2.772	-0.004	4.0	PrematurePress	0	0.081	627.955	6	66	Target	MissedWin	True
628.955	0.3	Win2	0.6716	0.004	No	2.772	-0.004	4.0	PrematurePress	0	0.081	n/a	6	66	ButtonPress	MissedWin	True
629.225	0.35	Win2	0.6716	n/a	No	2.772	n/a	n/a	PrematurePress	0	n/a	n/a	6	66	Blank	MissedWin	True
629.576	1.45	Win2	0.6716	n/a	No	2.772	n/a	5.0	PrematurePress	0	0.007	628.583	6	66	Feedback	MissedWin	True
631.03	2.772	Win2	0.6716	n/a	No	2.772	n/a	n/a	PrematurePress	0	0.0	n/a	6	66	ISIslide	MissedWin	True
633.822	0.25	Control	0.6765000000000001	0.0	Yes	2.728	0.022	n/a	GoodResponse	0	n/a	n/a	6	67	Cue	Neutral	False
634.073	3.95	Control	0.6765000000000001	0.0	Yes	2.728	0.001	4.0	GoodResponse	0	3.828	636.901	6	67	Fixation	Neutral	False
637.901	0.3	Control	0.6765000000000001	0.0	Yes	2.728	0.001	4.0	GoodResponse	0	3.828	n/a	6	67	ButtonPress	Neutral	False
638.018	0.34	Control	0.6765000000000001	0.004	Yes	2.728	-0.004	4.0	GoodResponse	0	0.318	637.336	6	67	Target	Neutral	False
638.336	0.3	Control	0.6765000000000001	0.004	Yes	2.728	-0.004	4.0	GoodResponse	0	0.318	n/a	6	67	ButtonPress	Neutral	False
638.369	0.36	Control	0.6765000000000001	n/a	Yes	2.728	n/a	n/a	GoodResponse	0	n/a	n/a	6	67	Blank	Neutral	False
638.72	1.45	Control	0.6765000000000001	n/a	Yes	2.728	n/a	5.0	GoodResponse	0	0.031	637.751	6	67	Feedback	Neutral	False
640.174	2.728	Control	0.6765000000000001	n/a	Yes	2.728	n/a	n/a	GoodResponse	0	0.0	n/a	6	67	ISIslide	Neutral	False
642.916	0.25	Win2	0.6667000000000001	0.0	No	3.084	0.016	n/a	PrematurePress	0	n/a	n/a	6	68	Cue	MissedWin	True
643.167	4.0	Win2	0.6667000000000001	0.0	No	3.084	0.001	n/a	PrematurePress	0	n/a	n/a	6	68	Fixation	MissedWin	True
647.162	0.33	Win2	0.6667000000000001	0.004	No	3.084	-0.004	4.0	PrematurePress	0	0.082	646.244	6	68	Target	MissedWin	True
647.244	0.3	Win2	0.6667000000000001	0.004	No	3.084	-0.004	4.0	PrematurePress	0	0.082	n/a	6	68	ButtonPress	MissedWin	True
647.496	0.37	Win2	0.6667000000000001	n/a	No	3.084	n/a	n/a	PrematurePress	0	n/a	n/a	6	68	Blank	MissedWin	True
647.864	1.45	Win2	0.6667000000000001	n/a	No	3.084	n/a	5.0	PrematurePress	0	0.009	646.873	6	68	Feedback	MissedWin	True
649.318	3.084	Win2	0.6667000000000001	n/a	No	3.084	n/a	n/a	PrematurePress	0	0.0	n/a	6	68	ISIslide	MissedWin	True
652.428	0.25	Win2	0.6714	0.0	Yes	3.222	0.028	n/a	GoodResponse	1	n/a	n/a	7	69	Cue	Win	True
652.679	3.95	Win2	0.6714	0.0	Yes	3.222	0.001	n/a	GoodResponse	1	n/a	n/a	7	69	Fixation	Win	True
656.624	0.32	Win2	0.6714	0.004	Yes	3.222	-0.004	4.0	GoodResponse	1	0.238	655.862	7	69	Target	Win	True
656.862	0.3	Win2	0.6714	0.004	Yes	3.222	-0.004	4.0	GoodResponse	1	0.238	n/a	7	69	ButtonPress	Win	True
656.958	0.38	Win2	0.6714	n/a	Yes	3.222	n/a	n/a	GoodResponse	1	n/a	n/a	7	69	Blank	Win	True
657.326	1.45	Win2	0.6714	n/a	Yes	3.222	n/a	5.0	GoodResponse	1	0.01	656.336	7	69	Feedback	Win	True
658.78	3.222	Win2	0.6714	n/a	Yes	3.222	n/a	n/a	GoodResponse	1	0.0	n/a	7	69	ISIslide	Win	True
662.023	0.25	Lose2	0.6761	0.0	Yes	3.027	0.023	n/a	GoodResponse	0	n/a	n/a	7	70	Cue	AvoidedLoss	False
662.274	4.05	Lose2	0.6761	0.0	Yes	3.027	0.001	4.0	GoodResponse	0	3.875	665.149	7	70	Fixation	AvoidedLoss	False
666.149	0.3	Lose2	0.6761	0.0	Yes	3.027	0.001	4.0	GoodResponse	0	3.875	n/a	7	70	ButtonPress	AvoidedLoss	False
666.319	0.31	Lose2	0.6761	0.004	Yes	3.027	-0.004	4.0	GoodResponse	0	0.162	665.481	7	70	Target	AvoidedLoss	False
666.481	0.3	Lose2	0.6761	0.004	Yes	3.027	-0.004	4.0	GoodResponse	0	0.162	n/a	7	70	ButtonPress	AvoidedLoss	False
666.637	0.39	Lose2	0.6761	n/a	Yes	3.027	n/a	n/a	GoodResponse	0	n/a	n/a	7	70	Blank	AvoidedLoss	False
667.022	1.45	Lose2	0.6761	n/a	Yes	3.027	n/a	5.0	GoodResponse	0	0.021	666.043	7	70	Feedback	AvoidedLoss	False
668.476	3.027	Lose2	0.6761	n/a	Yes	3.027	n/a	n/a	GoodResponse	0	0.0	n/a	7	70	ISIslide	AvoidedLoss	False
671.518	0.25	Win2	0.6806	0.0	Yes	2.732	0.018	n/a	GoodResponse	1	n/a	n/a	8	71	Cue	Win	True
671.769	4.05	Win2	0.6806	0.0	Yes	2.732	0.001	n/a	GoodResponse	1	n/a	n/a	8	71	Fixation	Win	True
675.815	0.3	Win2	0.6806	0.003	Yes	2.732	-0.003	4.0	GoodResponse	1	0.146	674.961	8	71	Target	Win	True
675.961	0.3	Win2	0.6806	0.003	Yes	2.732	-0.003	4.0	GoodResponse	1	0.146	n/a	8	71	ButtonPress	Win	True
676.115	0.4	Win2	0.6806	n/a	Yes	2.732	n/a	n/a	GoodResponse	1	n/a	n/a	8	71	Blank	Win	True
676.517	1.45	Win2	0.6806	n/a	Yes	2.732	n/a	5.0	GoodResponse	1	0.038	675.555	8	71	Feedback	Win	True
677.971	2.732	Win2	0.6806	n/a	Yes	2.732	n/a	n/a	GoodResponse	1	0.0	n/a	8	71	ISIslide	Win	True
680.729	0.25	Win2	0.6849	0.0	Yes	2.771	0.029	n/a	GoodResponse	1	n/a	n/a	9	72	Cue	Win	True
680.98	4.1	Win2	0.6849	0.0	Yes	2.771	0.001	n/a	GoodResponse	1	n/a	n/a	9	72	Fixation	Win	True
685.076	0.29	Win2	0.6849	0.003	Yes	2.771	-0.003	4.0	GoodResponse	1	0.112	684.188	9	72	Target	Win	True
685.188	0.3	Win2	0.6849	0.003	Yes	2.771	-0.003	4.0	GoodResponse	1	0.112	n/a	9	72	ButtonPress	Win	True
685.377	0.41	Win2	0.6849	n/a	Yes	2.771	n/a	n/a	GoodResponse	1	n/a	n/a	9	72	Blank	Win	True
685.778	1.45	Win2	0.6849	n/a	Yes	2.771	n/a	5.0	GoodResponse	1	0.046	684.824	9	72	Feedback	Win	True
687.232	2.771	Win2	0.6849	n/a	Yes	2.771	n/a	n/a	GoodResponse	1	0.0	n/a	9	72	ISIslide	Win	True
690.024	0.25	Win2	0.6892	0.0	Yes	2.676	0.024	n/a	GoodResponse	1	n/a	n/a	10	73	Cue	Win	True
690.275	4.0	Win2	0.6892	0.0	Yes	2.676	0.001	n/a	GoodResponse	1	n/a	n/a	10	73	Fixation	Win	True
694.27	0.28	Win2	0.6892	0.004	Yes	2.676	-0.004	4.0	GoodResponse	1	0.156	693.426	10	73	Target	Win	True
694.426	0.3	Win2	0.6892	0.004	Yes	2.676	-0.004	4.0	GoodResponse	1	0.156	n/a	10	73	ButtonPress	Win	True
694.554	0.42	Win2	0.6892	n/a	Yes	2.676	n/a	n/a	GoodResponse	1	n/a	n/a	10	73	Blank	Win	True
694.972	1.45	Win2	0.6892	n/a	Yes	2.676	n/a	5.0	GoodResponse	1	0.023	693.995	10	73	Feedback	Win	True
696.426	2.676	Win2	0.6892	n/a	Yes	2.676	n/a	n/a	GoodResponse	1	0.0	n/a	10	73	ISIslide	Win	True
699.118	0.25	Lose2	0.6933	0.0	Yes	2.632	0.018	n/a	GoodResponse	0	n/a	n/a	10	74	Cue	AvoidedLoss	False
699.368	4.05	Lose2	0.6933	0.001	Yes	2.632	0.0	4.0	GoodResponse	0	3.869	702.237	10	74	Fixation	AvoidedLoss	False
703.237	0.3	Lose2	0.6933	0.001	Yes	2.632	0.0	4.0	GoodResponse	0	3.869	n/a	10	74	ButtonPress	AvoidedLoss	False
703.414	0.27	Lose2	0.6933	0.004	Yes	2.632	-0.004	4.0	GoodResponse	0	0.22	702.634	10	74	Target	AvoidedLoss	False
703.634	0.3	Lose2	0.6933	0.004	Yes	2.632	-0.004	4.0	GoodResponse	0	0.22	n/a	10	74	ButtonPress	AvoidedLoss	False
703.698	0.43	Lose2	0.6933	n/a	Yes	2.632	n/a	n/a	GoodResponse	0	n/a	n/a	10	74	Blank	AvoidedLoss	False
704.116	1.45	Lose2	0.6933	n/a	Yes	2.632	n/a	5.0	GoodResponse	0	0.001	703.117	10	74	Feedback	AvoidedLoss	False
705.57	2.632	Lose2	0.6933	n/a	Yes	2.632	n/a	n/a	GoodResponse	0	0.0	n/a	10	74	ISIslide	AvoidedLoss	False
708.228	0.25	Lose2	0.6973999999999999	0.0	Yes	2.922	0.028	n/a	GoodResponse	0	n/a	n/a	10	75	Cue	AvoidedLoss	True
708.479	3.95	Lose2	0.6973999999999999	0.0	Yes	2.922	0.001	n/a	GoodResponse	0	n/a	n/a	10	75	Fixation	AvoidedLoss	True
712.424	0.26	Lose2	0.6973999999999999	0.004	Yes	2.922	-0.004	4.0	GoodResponse	0	0.161	711.585	10	75	Target	AvoidedLoss	True
712.585	0.3	Lose2	0.6973999999999999	0.004	Yes	2.922	-0.004	4.0	GoodResponse	0	0.161	n/a	10	75	ButtonPress	AvoidedLoss	True
712.692	0.44	Lose2	0.6973999999999999	n/a	Yes	2.922	n/a	n/a	GoodResponse	0	n/a	n/a	10	75	Blank	AvoidedLoss	True
713.126	1.45	Lose2	0.6973999999999999	n/a	Yes	2.922	n/a	5.0	GoodResponse	0	0.015	712.141	10	75	Feedback	AvoidedLoss	True
714.581	2.922	Lose2	0.6973999999999999	n/a	Yes	2.922	n/a	n/a	GoodResponse	0	0.0	n/a	10	75	ISIslide	AvoidedLoss	True
717.523	0.25	Control	0.7012999999999999	0.0	Yes	3.227	0.023	n/a	GoodResponse	0	n/a	n/a	10	76	Cue	Neutral	True
717.774	4.05	Control	0.7012999999999999	0.0	Yes	3.227	0.001	n/a	GoodResponse	0	n/a	n/a	10	76	Fixation	Neutral	True
721.819	0.25	Control	0.7012999999999999	0.004	Yes	3.227	-0.004	4.0	GoodResponse	0	0.168	720.987	10	76	Target	Neutral	True
721.987	0.3	Control	0.7012999999999999	0.004	Yes	3.227	-0.004	4.0	GoodResponse	0	0.168	n/a	10	76	ButtonPress	Neutral	True
722.07	0.45	Control	0.7012999999999999	n/a	Yes	3.227	n/a	n/a	GoodResponse	0	n/a	n/a	10	76	Blank	Neutral	True
722.521	1.45	Control	0.7012999999999999	n/a	Yes	3.227	n/a	5.0	GoodResponse	0	0.034	721.555	10	76	Feedback	Neutral	True
723.975	3.227	Control	0.7012999999999999	n/a	Yes	3.227	n/a	n/a	GoodResponse	0	0.0	n/a	10	76	ISIslide	Neutral	True
727.219	0.25	Lose2	0.6923	0.0	No	2.581	0.019	n/a	PrematurePress	-1	n/a	n/a	9	77	Cue	Loss	True
727.469	3.95	Lose2	0.6923	0.0	No	2.581	0.0	n/a	PrematurePress	-1	n/a	n/a	9	77	Fixation	Loss	True
731.431	0.24	Lose2	0.6923	0.0	No	2.581	0.012	4.0	PrematurePress	-1	0.069	730.5	9	77	Target	Loss	True
731.5	0.3	Lose2	0.6923	0.0	No	2.581	0.012	4.0	PrematurePress	-1	0.069	n/a	9	77	ButtonPress	Loss	True
731.665	0.46	Lose2	0.6923	n/a	No	2.581	n/a	n/a	PrematurePress	-1	n/a	n/a	9	77	Blank	Loss	True
732.117	1.45	Lose2	0.6923	n/a	No	2.581	n/a	5.0	PrematurePress	-1	0.048	731.165	9	77	Feedback	Loss	True
733.571	2.581	Lose2	0.6923	n/a	No	2.581	n/a	n/a	PrematurePress	-1	0.0	n/a	9	77	ISIslide	Loss	True
