onset	duration	cue_type	current_mean_accuracy	duration_error	is_hit	isi_adjusted	onset_delay	response	response_type	reward	rt	rt_time	total_reward	trial_number	trial_phase	trial_type	one_press
11.106	0.25	Control	1.0	0.0	Yes	2.944	0.006	n/a	GoodResponse	0	n/a	n/a	0	0	Cue	Neutral	False
11.356	3.85	Control	1.0	0.0	Yes	2.944	0.0	4.0	GoodResponse	0	0.18	10.536	0	0	Fixation	Neutral	False
11.536	0.3	Control	1.0	0.0	Yes	2.944	0.0	4.0	GoodResponse	0	0.18	n/a	0	0	ButtonPress	Neutral	False
15.204	0.4	Control	1.0	0.002	Yes	2.944	-0.002	4.0	GoodResponse	0	0.243	14.447	0	0	Target	Neutral	False
15.447	0.3	Control	1.0	0.002	Yes	2.944	-0.002	4.0	GoodResponse	0	0.243	n/a	0	0	ButtonPress	Neutral	False
15.604	0.3	Control	1.0	n/a	Yes	2.944	n/a	n/a	GoodResponse	0	n/a	n/a	0	0	Blank	Neutral	False
15.904	1.45	Control	1.0	n/a	Yes	2.944	n/a	5.0	GoodResponse	0	0.024	14.928	0	0	Feedback	Neutral	False
17.354	2.944	Control	1.0	n/a	Yes	2.944	n/a	n/a	GoodResponse	0	0.0	n/a	0	0	ISIslide	Neutral	False
20.319	0.25	Lose2	1.0	0.0	Yes	2.781	0.019	n/a	GoodResponse	0	n/a	n/a	0	1	Cue	AvoidedLoss	True
20.569	4.0	Lose2	1.0	0.0	Yes	2.781	0.0	n/a	GoodResponse	0	n/a	n/a	0	1	Fixation	AvoidedLoss	True
24.568	0.39	Lose2	1.0	0.001	Yes	2.781	-0.001	4.0	GoodResponse	0	0.232	23.8	0	1	Target	AvoidedLoss	True
24.8	0.3	Lose2	1.0	0.001	Yes	2.781	-0.001	4.0	GoodResponse	0	0.232	n/a	0	1	ButtonPress	AvoidedLoss	True
24.968	0.31	Lose2	1.0	n/a	Yes	2.781	n/a	n/a	GoodResponse	0	n/a	n/a	0	1	Blank	AvoidedLoss	True
25.268	1.45	Lose2	1.0	n/a	Yes	2.781	n/a	5.0	GoodResponse	0	0.026	24.294	0	1	Feedback	AvoidedLoss	True
26.717	2.781	Lose2	1.0	n/a	Yes	2.781	n/a	n/a	GoodResponse	0	0.0	n/a	0	1	ISIslide	AvoidedLoss	True
29.516	0.25	Control	0.6667000000000001	0.0	No	2.584	0.016	n/a	NoResponse	0	n/a	n/a	0	2	Cue	Neutral	True
29.766	4.1	Control	0.6667000000000001	0.0	No	2.584	0.0	4.0	NoResponse	0	3.434	32.2	0	2	Fixation	Neutral	True
33.2	0.3	Control	0.6667000000000001	0.0	No	2.584	0.0	4.0	NoResponse	0	3.434	n/a	0	2	ButtonPress	Neutral	True
33.865	0.38	Control	0.6667000000000001	0.001	No	2.584	-0.001	n/a	NoResponse	0	n/a	n/a	0	2	Target	Neutral	True
34.248	0.32	Control	0.6667000000000001	n/a	No	2.584	n/a	n/a	NoResponse	0	n/a	n/a	0	2	Blank	Neutral	True
34.564	1.45	Control	0.6667000000000001	n/a	No	2.584	n/a	5.0	NoResponse	0	0.047	33.611	0	2	Feedback	Neutral	True
36.014	2.584	Control	0.6667000000000001	n/a	No	2.584	n/a	n/a	NoResponse	0	0.0	n/a	0	2	ISIslide	Neutral	True
38.613	0.25	Win2	0.75	0.0	Yes	2.837	0.013	n/a	GoodResponse	1	n/a	n/a	1	3	Cue	Win	True
38.863	3.95	Win2	0.75	0.0	Yes	2.837	0.0	n/a	GoodResponse	1	n/a	n/a	1	3	Fixation	Win	True
42.811	0.37	Win2	0.75	0.002	Yes	2.837	-0.002	4.0	GoodResponse	1	0.197	42.008	1	3	Target	Win	True
43.008	0.3	Win2	0.75	0.002	Yes	2.837	-0.002	4.0	GoodResponse	1	0.197	n/a	1	3	ButtonPress	Win	True
43.195	0.33	Win2	0.75	n/a	Yes	2.837	n/a	n/a	GoodResponse	1	n/a	n/a	1	3	Blank	Win	True
43.511	1.45	Win2	0.75	n/a	Yes	2.837	n/a	5.0	GoodResponse	1	0.027	42.538	1	3	Feedback	Win	True
44.961	2.837	Win2	0.75	n/a	Yes	2.837	n/a	n/a	GoodResponse	1	0.0	n/a	1	3	ISIslide	Win	True
47.826	0.25	Win2	0.6	0.0	No	3.274	0.026	n/a	PrematurePress	0	n/a	n/a	1	4	Cue	MissedWin	True
48.076	4.0	Win2	0.6	0.0	No	3.274	0.0	n/a	PrematurePress	0	n/a	n/a	1	4	Fixation	MissedWin	True
52.075	0.36	Win2	0.6	0.001	No	3.274	-0.001	4.0	PrematurePress	0	0.064	51.139	1	4	Target	MissedWin	True
52.139	0.3	Win2	0.6	0.001	No	3.274	-0.001	4.0	PrematurePress	0	0.064	n/a	1	4	ButtonPress	MissedWin	True
52.441	0.34	Win2	0.6	n/a	No	3.274	n/a	n/a	PrematurePress	0	n/a	n/a	1	4	Blank	MissedWin	True
52.775	1.45	Win2	0.6	n/a	No	3.274	n/a	5.0	PrematurePress	0	0.031	51.806	1	4	Feedback	MissedWin	True
54.224	3.274	Win2	0.6	n/a	No	3.274	n/a	n/a	PrematurePress	0	0.0	n/a	1	4	ISIslide	MissedWin	True
57.523	0.25	Win2	0.6667000000000001	0.0	Yes	2.777	0.023	n/a	GoodResponse	1	n/a	n/a	2	5	Cue	Win	True
57.773	4.0	Win2	0.6667000000000001	0.0	Yes	2.777	0.0	n/a	GoodResponse	1	n/a	n/a	2	5	Fixation	Win	True
61.771	0.37	Win2	0.6667000000000001	0.002	Yes	2.777	-0.002	4.0	GoodResponse	1	0.304	61.075	2	5	Target	Win	True
62.075	0.3	Win2	0.6667000000000001	0.002	Yes	2.777	-0.002	4.0	GoodResponse	1	0.304	n/a	2	5	ButtonPress	Win	True
62.155	0.33	Win2	0.6667000000000001	n/a	Yes	2.777	n/a	n/a	GoodResponse	1	n/a	n/a	2	5	Blank	Win	True
62.471	1.45	Win2	0.6667000000000001	n/a	Yes	2.777	n/a	5.0	GoodResponse	1	0.042	61.513	2	5	Feedback	Win	True
63.921	2.777	Win2	0.6667000000000001	n/a	Yes	2.777	n/a	n/a	GoodResponse	1	0.0	n/a	2	5	ISIslide	Win	True
66.72	0.25	Lose2	0.7143	0.0	Yes	2.73	0.02	n/a	GoodResponse	0	n/a	n/a	2	6	Cue	AvoidedLoss	True
66.97	3.95	Lose2	0.7143	0.0	Yes	2.73	0.0	n/a	GoodResponse	0	n/a	n/a	2	6	Fixation	AvoidedLoss	True
70.918	0.36	Lose2	0.7143	0.002	Yes	2.73	-0.002	4.0	GoodResponse	0	0.226	70.144	2	6	Target	AvoidedLoss	True
71.144	0.3	Lose2	0.7143	0.002	Yes	2.73	-0.002	4.0	GoodResponse	0	0.226	n/a	2	6	ButtonPress	AvoidedLoss	True
71.285	0.34	Lose2	0.7143	n/a	Yes	2.73	n/a	n/a	GoodResponse	0	n/a	n/a	2	6	Blank	AvoidedLoss	True
71.618	1.45	Lose2	0.7143	n/a	Yes	2.73	n/a	5.0	GoodResponse	0	0.017	70.635	2	6	Feedback	AvoidedLoss	True
73.067	2.73	Lose2	0.7143	n/a	Yes	2.73	n/a	n/a	GoodResponse	0	0.0	n/a	2	6	ISIslide	AvoidedLoss	True
75.816	0.25	Lose2	0.625	0.0	No	4.034	0.016	n/a	NoResponse	-1	n/a	n/a	1	7	Cue	Loss	True
76.066	4.05	Lose2	0.625	0.0	No	4.034	0.0	n/a	NoResponse	-1	n/a	n/a	1	7	Fixation	Loss	True
80.115	0.35	Lose2	0.625	0.001	No	4.034	-0.001	4.0	NoResponse	-1	0.482	79.597	1	7	Target	Loss	True
80.465	0.35	Lose2	0.625	n/a	No	4.034	n/a	n/a	NoResponse	-1	n/a	n/a	1	7	Blank	Loss	True
80.597	0.3	Lose2	0.625	0.001	No	4.034	-0.001	4.0	NoResponse	-1	0.482	n/a	1	7	ButtonPress	Loss	True
80.815	1.45	Lose2	0.625	n/a	No	4.034	n/a	5.0	NoResponse	-1	0.04	79.855	1	7	Feedback	Loss	True
82.264	4.034	Lose2	0.625	n/a	No	4.034	n/a	n/a	NoResponse	-1	0.0	n/a	1	7	ISIslide	Loss	True
86.329	0.25	Lose2	0.6667000000000001	0.0	Yes	3.021	0.029	n/a	GoodResponse	0	n/a	n/a	1	8	Cue	AvoidedLoss	True
86.579	3.95	Lose2	0.6667000000000001	0.0	Yes	3.021	0.0	n/a	GoodResponse	0	n/a	n/a	1	8	Fixation	AvoidedLoss	True
90.528	0.36	Lose2	0.6667000000000001	0.001	Yes	3.021	-0.001	4.0	GoodResponse	0	0.217	89.745	1	8	Target	AvoidedLoss	True
90.745	0.3	Lose2	0.6667000000000001	0.001	Yes	3.021	-0.001	4.0	GoodResponse	0	0.217	n/a	1	8	ButtonPress	AvoidedLoss	True
90.894	0.34	Lose2	0.6667000000000001	n/a	Yes	3.021	n/a	n/a	GoodResponse	0	n/a	n/a	1	8	Blank	AvoidedLoss	True
91.228	1.45	Lose2	0.6667000000000001	n/a	Yes	3.021	n/a	5.0	GoodResponse	0	0.017	90.245	1	8	Feedback	AvoidedLoss	True
92.677	3.021	Lose2	0.6667000000000001	n/a	Yes	3.021	n/a	n/a	GoodResponse	0	0.0	n/a	1	8	ISIslide	AvoidedLoss	True
95.726	0.25	Lose2	0.6	0.0	No	3.124	0.026	n/a	NoResponse	-1	n/a	n/a	0	9	Cue	Loss	False
95.976	3.95	Lose2	0.6	0.0	No	3.124	0.0	n/a	NoResponse	-1	n/a	n/a	0	9	Fixation	Loss	False
99.925	0.35	Lose2	0.6	0.001	No	3.124	-0.001	n/a	NoResponse	-1	n/a	n/a	0	9	Target	Loss	False
100.274	0.35	Lose2	0.6	n/a	No	3.124	n/a	n/a	NoResponse	-1	n/a	n/a	0	9	Blank	Loss	False
100.624	1.45	Lose2	0.6	n/a	No	3.124	n/a	5.0	NoResponse	-1	0.035	99.659	0	9	Feedback	Loss	False
102.074	3.124	Lose2	0.6	n/a	No	3.124	n/a	n/a	NoResponse	-1	0.0	n/a	0	9	ISIslide	Loss	False
105.223	0.25	Control	0.6364	0.0	Yes	3.277	0.023	n/a	GoodResponse	0	n/a	n/a	0	10	Cue	Neutral	True
105.473	4.0	Control	0.6364	0.0	Yes	3.277	0.0	n/a	GoodResponse	0	n/a	n/a	0	10	Fixation	Neutral	True
109.471	0.36	Control	0.6364	0.002	Yes	3.277	-0.002	4.0	GoodResponse	0	0.166	108.637	0	10	Target	Neutral	True
109.637	0.3	Control	0.6364	0.002	Yes	3.277	-0.002	4.0	GoodResponse	0	0.166	n/a	0	10	ButtonPress	Neutral	True
109.838	0.34	Control	0.6364	n/a	Yes	3.277	n/a	n/a	GoodResponse	0	n/a	n/a	0	10	Blank	Neutral	True
110.171	1.45	Control	0.6364	n/a	Yes	3.277	n/a	5.0	GoodResponse	0	0.0	109.171	0	10	Feedback	Neutral	True
111.62	3.277	Control	0.6364	n/a	Yes	3.277	n/a	n/a	GoodResponse	0	0.0	n/a	0	10	ISIslide	Neutral	True
114.919	0.25	Lose2	0.6667000000000001	0.0	Yes	2.731	0.019	n/a	GoodResponse	0	n/a	n/a	0	11	Cue	AvoidedLoss	True
115.169	4.05	Lose2	0.6667000000000001	0.0	Yes	2.731	0.0	n/a	GoodResponse	0	n/a	n/a	0	11	Fixation	AvoidedLoss	True
119.218	0.37	Lose2	0.6667000000000001	0.001	Yes	2.731	-0.001	4.0	GoodResponse	0	0.219	118.437	0	11	Target	AvoidedLoss	True
119.437	0.3	Lose2	0.6667000000000001	0.001	Yes	2.731	-0.001	4.0	GoodResponse	0	0.219	n/a	0	11	ButtonPress	AvoidedLoss	True
119.601	0.33	Lose2	0.6667000000000001	n/a	Yes	2.731	n/a	n/a	GoodResponse	0	n/a	n/a	0	11	Blank	AvoidedLoss	True
119.918	1.45	Lose2	0.6667000000000001	n/a	Yes	2.731	n/a	5.0	GoodResponse	0	0.01	118.928	0	11	Feedback	AvoidedLoss	True
121.367	2.731	Lose2	0.6667000000000001	n/a	Yes	2.731	n/a	n/a	GoodResponse	0	0.0	n/a	0	11	ISIslide	AvoidedLoss	True
124.116	0.25	Control	0.6154	0.0	No	2.984	0.016	n/a	NoResponse	0	n/a	n/a	0	12	Cue	Neutral	False
124.366	3.9	Control	0.6154	0.0	No	2.984	0.0	n/a	NoResponse	0	n/a	n/a	0	12	Fixation	Neutral	False
128.265	0.36	Control	0.6154	0.001	No	2.984	-0.001	n/a	NoResponse	0	n/a	n/a	0	12	Target	Neutral	False
128.631	0.34	Control	0.6154	n/a	No	2.984	n/a	n/a	NoResponse	0	n/a	n/a	0	12	Blank	Neutral	False
128.964	1.45	Control	0.6154	n/a	No	2.984	n/a	5.0	NoResponse	0	0.037	128.001	0	12	Feedback	Neutral	False
130.414	2.984	Control	0.6154	n/a	No	2.984	n/a	n/a	NoResponse	0	0.0	n/a	0	12	ISIslide	Neutral	False
133.413	0.25	Control	0.5714	0.0	No	2.787	0.013	n/a	PrematurePress	0	n/a	n/a	0	13	Cue	Neutral	True
133.663	4.0	Control	0.5714	0.0	No	2.787	0.0	n/a	PrematurePress	0	n/a	n/a	0	13	Fixation	Neutral	True
137.661	0.37	Control	0.5714	0.002	No	2.787	-0.002	4.0	PrematurePress	0	0.026	136.687	0	13	Target	Neutral	True
137.687	0.3	Control	0.5714	0.002	No	2.787	-0.002	4.0	PrematurePress	0	0.026	n/a	0	13	ButtonPress	Neutral	True
138.044	0.33	Control	0.5714	n/a	No	2.787	n/a	n/a	PrematurePress	0	n/a	n/a	0	13	Blank	Neutral	True
138.361	1.45	Control	0.5714	n/a	No	2.787	n/a	5.0	PrematurePress	0	0.005	137.366	0	13	Feedback	Neutral	True
139.811	2.787	Control	0.5714	n/a	No	2.787	n/a	n/a	PrematurePress	0	0.0	n/a	0	13	ISIslide	Neutral	True
142.626	0.25	Win2	0.6	0.0	Yes	2.674	0.026	n/a	GoodResponse	1	n/a	n/a	1	14	Cue	Win	True
142.876	4.1	Win2	0.6	0.0	Yes	2.674	0.0	n/a	GoodResponse	1	n/a	n/a	1	14	Fixation	Win	True
146.975	0.38	Win2	0.6	0.001	Yes	2.674	-0.001	4.0	GoodResponse	1	0.239	146.214	1	14	Target	Win	True
147.214	0.3	Win2	0.6	0.001	Yes	2.674	-0.001	4.0	GoodResponse	1	0.239	n/a	1	14	ButtonPress	Win	True
147.358	0.32	Win2	0.6	n/a	Yes	2.674	n/a	n/a	GoodResponse	1	n/a	n/a	1	14	Blank	Win	True
147.674	1.45	Win2	0.6	n/a	Yes	2.674	n/a	5.0	GoodResponse	1	0.009	146.683	1	14	Feedback	Win	True
149.124	2.674	Win2	0.6	n/a	Yes	2.674	n/a	n/a	GoodResponse	1	0.0	n/a	1	14	ISIslide	Win	True
151.823	0.25	Control	0.625	0.0	Yes	2.977	0.023	n/a	GoodResponse	0	n/a	n/a	1	15	Cue	Neutral	True
152.073	4.0	Control	0.625	0.0	Yes	2.977	0.0	n/a	GoodResponse	0	n/a	n/a	1	15	Fixation	Neutral	True
156.071	0.39	Control	0.625	0.002	Yes	2.977	-0.002	4.0	GoodResponse	0	0.225	155.296	1	15	Target	Neutral	True
156.296	0.3	Control	0.625	0.002	Yes	2.977	-0.002	4.0	GoodResponse	0	0.225	n/a	1	15	ButtonPress	Neutral	True
156.471	0.31	Control	0.625	n/a	Yes	2.977	n/a	n/a	GoodResponse	0	n/a	n/a	1	15	Blank	Neutral	True
156.771	1.45	Control	0.625	n/a	Yes	2.977	n/a	5.0	GoodResponse	0	0.034	155.805	1	15	Feedback	Neutral	True
158.221	2.977	Control	0.625	n/a	Yes	2.977	n/a	n/a	GoodResponse	0	0.0	n/a	1	15	ISIslide	Neutral	True
161.22	0.25	Win2	0.5882000000000001	0.0	No	2.88	0.02	n/a	NoResponse	0	n/a	n/a	1	16	Cue	MissedWin	False
161.47	4.0	Win2	0.5882000000000001	0.0	No	2.88	0.0	n/a	NoResponse	0	n/a	n/a	1	16	Fixation	MissedWin	False
165.468	0.4	Win2	0.5882000000000001	0.002	No	2.88	-0.002	n/a	NoResponse	0	n/a	n/a	1	16	Target	MissedWin	False
165.868	0.3	Win2	0.5882000000000001	n/a	No	2.88	n/a	n/a	NoResponse	0	n/a	n/a	1	16	Blank	MissedWin	False
166.168	1.45	Win2	0.5882000000000001	n/a	No	2.88	n/a	5.0	NoResponse	0	0.006	165.174	1	16	Feedback	MissedWin	False
167.617	2.88	Win2	0.5882000000000001	n/a	No	2.88	n/a	n/a	NoResponse	0	0.0	n/a	1	16	ISIslide	MissedWin	False
170.516	0.25	Lose2	0.6111	0.0	Yes	2.734	0.016	n/a	GoodResponse	0	n/a	n/a	1	17	Cue	AvoidedLoss	True
170.766	3.95	Lose2	0.6111	0.0	Yes	2.734	0.0	n/a	GoodResponse	0	n/a	n/a	1	17	Fixation	AvoidedLoss	True
174.715	0.41	Lose2	0.6111	0.001	Yes	2.734	-0.001	4.0	GoodResponse	0	0.248	173.963	1	17	Target	AvoidedLoss	True
174.963	0.3	Lose2	0.6111	0.001	Yes	2.734	-0.001	4.0	GoodResponse	0	0.248	n/a	1	17	ButtonPress	AvoidedLoss	True
175.131	0.29	Lose2	0.6111	n/a	Yes	2.734	n/a	n/a	GoodResponse	0	n/a	n/a	1	17	Blank	AvoidedLoss	True
175.415	1.45	Lose2	0.6111	n/a	Yes	2.734	n/a	5.0	GoodResponse	0	0.025	174.44	1	17	Feedback	AvoidedLoss	True
176.864	2.734	Lose2	0.6111	n/a	Yes	2.734	n/a	n/a	GoodResponse	0	0.0	n/a	1	17	ISIslide	AvoidedLoss	True
179.613	0.25	Lose2	0.6315999999999999	0.0	Yes	2.737	0.013	n/a	GoodResponse	0	n/a	n/a	1	18	Cue	AvoidedLoss	True
179.863	4.05	Lose2	0.6315999999999999	0.0	Yes	2.737	0.0	n/a	GoodResponse	0	n/a	n/a	1	18	Fixation	AvoidedLoss	True
183.912	0.42	Lose2	0.6315999999999999	0.001	Yes	2.737	-0.001	4.0	GoodResponse	0	0.183	183.095	1	18	Target	AvoidedLoss	True
184.095	0.3	Lose2	0.6315999999999999	0.001	Yes	2.737	-0.001	4.0	GoodResponse	0	0.183	n/a	1	18	ButtonPress	AvoidedLoss	True
184.345	0.28	Lose2	0.6315999999999999	n/a	Yes	2.737	n/a	n/a	GoodResponse	0	n/a	n/a	1	18	Blank	AvoidedLoss	True
184.611	1.45	Lose2	0.6315999999999999	n/a	Yes	2.737	n/a	5.0	GoodResponse	0	0.047	183.658	1	18	Feedback	AvoidedLoss	True
186.061	2.737	Lose2	0.6315999999999999	n/a	Yes	2.737	n/a	n/a	GoodResponse	0	0.0	n/a	1	18	ISIslide	AvoidedLoss	True
188.827	0.25	Control	0.65	0.0	Yes	2.923	0.027	n/a	GoodResponse	0	n/a	n/a	1	19	Cue	Neutral	True
189.076	3.95	Control	0.65	0.001	Yes	2.923	-0.001	n/a	GoodResponse	0	n/a	n/a	1	19	Fixation	Neutral	True
193.025	0.43	Control	0.65	0.002	Yes	2.923	-0.002	4.0	GoodResponse	0	0.228	192.253	1	19	Target	Neutral	True
193.253	0.3	Control	0.65	0.002	Yes	2.923	-0.002	4.0	GoodResponse	0	0.228	n/a	1	19	ButtonPress	Neutral	True
193.458	0.27	Control	0.65	n/a	Yes	2.923	n/a	n/a	GoodResponse	0	n/a	n/a	1	19	Blank	Neutral	True
193.725	1.45	Control	0.65	n/a	Yes	2.923	n/a	5.0	GoodResponse	0	0.006	192.731	1	19	Feedback	Neutral	True
195.174	2.923	Control	0.65	n/a	Yes	2.923	n/a	n/a	GoodResponse	0	0.0	n/a	1	19	ISIslide	Neutral	True
198.123	0.25	Control	0.6667000000000001	0.0	Yes	2.627	0.023	n/a	GoodResponse	0	n/a	n/a	1	20	Cue	Neutral	True
198.373	4.05	Control	0.6667000000000001	0.0	Yes	2.627	0.0	n/a	GoodResponse	0	n/a	n/a	1	20	Fixation	Neutral	True
202.422	0.44	Control	0.6667000000000001	0.001	Yes	2.627	-0.001	4.0	GoodResponse	0	0.22	201.642	1	20	Target	Neutral	True
202.642	0.3	Control	0.6667000000000001	0.001	Yes	2.627	-0.001	4.0	GoodResponse	0	0.22	n/a	1	20	ButtonPress	Neutral	True
202.872	0.26	Control	0.6667000000000001	n/a	Yes	2.627	n/a	n/a	GoodResponse	0	n/a	n/a	1	20	Blank	Neutral	True
203.122	1.45	Control	0.6667000000000001	n/a	Yes	2.627	n/a	5.0	GoodResponse	0	0.024	202.146	1	20	Feedback	Neutral	True
204.571	2.627	Control	0.6667000000000001	n/a	Yes	2.627	n/a	n/a	GoodResponse	0	0.0	n/a	1	20	ISIslide	Neutral	True
207.22	0.25	Control	0.6818000000000001	0.0	Yes	2.78	0.02	n/a	GoodResponse	0	n/a	n/a	1	21	Cue	Neutral	True
207.47	4.1	Control	0.6818000000000001	0.0	Yes	2.78	0.0	n/a	GoodResponse	0	n/a	n/a	1	21	Fixation	Neutral	True
211.569	0.43	Control	0.6818000000000001	0.001	Yes	2.78	-0.001	4.0	GoodResponse	0	0.199	210.768	1	21	Target	Neutral	True
211.768	0.3	Control	0.6818000000000001	0.001	Yes	2.78	-0.001	4.0	GoodResponse	0	0.199	n/a	1	21	ButtonPress	Neutral	True
212.002	0.27	Control	0.6818000000000001	n/a	Yes	2.78	n/a	n/a	GoodResponse	0	n/a	n/a	1	21	Blank	Neutral	True
212.268	1.45	Control	0.6818000000000001	n/a	Yes	2.78	n/a	5.0	GoodResponse	0	0.049	211.317	1	21	Feedback	Neutral	True
213.718	2.78	Control	0.6818000000000001	n/a	Yes	2.78	n/a	n/a	GoodResponse	0	0.0	n/a	1	21	ISIslide	Neutral	True
216.517	0.25	Control	0.6957	0.0	Yes	2.783	0.017	n/a	GoodResponse	0	n/a	n/a	1	22	Cue	Neutral	True
216.767	4.0	Control	0.6957	0.0	Yes	2.783	0.0	n/a	GoodResponse	0	n/a	n/a	1	22	Fixation	Neutral	True
220.765	0.42	Control	0.6957	0.002	Yes	2.783	-0.002	4.0	GoodResponse	0	0.237	220.002	1	22	Target	Neutral	True
221.002	0.3	Control	0.6957	0.002	Yes	2.783	-0.002	4.0	GoodResponse	0	0.237	n/a	1	22	ButtonPress	Neutral	True
221.199	0.28	Control	0.6957	n/a	Yes	2.783	n/a	n/a	GoodResponse	0	n/a	n/a	1	22	Blank	Neutral	True
221.465	1.45	Control	0.6957	n/a	Yes	2.783	n/a	5.0	GoodResponse	0	0.023	220.488	1	22	Feedback	Neutral	True
222.915	2.783	Control	0.6957	n/a	Yes	2.783	n/a	n/a	GoodResponse	0	0.0	n/a	1	22	ISIslide	Neutral	True
225.714	0.25	Control	0.6667000000000001	0.0	No	2.786	0.014	n/a	NoResponse	0	n/a	n/a	1	23	Cue	Neutral	False
225.964	3.9	Control	0.6667000000000001	0.0	No	2.786	0.0	n/a	NoResponse	0	n/a	n/a	1	23	Fixation	Neutral	False
229.862	0.41	Control	0.6667000000000001	0.002	No	2.786	-0.002	n/a	NoResponse	0	n/a	n/a	1	23	Target	Neutral	False
230.279	0.29	Control	0.6667000000000001	n/a	No	2.786	n/a	n/a	NoResponse	0	n/a	n/a	1	23	Blank	Neutral	False
230.562	1.45	Control	0.6667000000000001	n/a	No	2.786	n/a	5.0	NoResponse	0	0.047	229.609	1	23	Feedback	Neutral	False
232.011	2.786	Control	0.6667000000000001	n/a	No	2.786	n/a	n/a	NoResponse	0	0.0	n/a	1	23	ISIslide	Neutral	False
234.827	0.25	Win2	0.68	0.0	Yes	3.123	0.027	n/a	GoodResponse	1	n/a	n/a	2	24	Cue	Win	False
235.077	3.95	Win2	0.68	0.0	Yes	3.123	0.0	4.0	GoodResponse	1	0.075	234.152	2	24	Fixation	Win	False
235.152	0.3	Win2	0.68	0.0	Yes	3.123	0.0	4.0	GoodResponse	1	0.075	n/a	2	24	ButtonPress	Win	False
239.026	0.4	Win2	0.68	0.001	Yes	3.123	-0.001	4.0	GoodResponse	1	0.193	238.219	2	24	Target	Win	False
239.219	0.3	Win2	0.68	0.001	Yes	3.123	-0.001	4.0	GoodResponse	1	0.193	n/a	2	24	ButtonPress	Win	False
239.425	0.3	Win2	0.68	n/a	Yes	3.123	n/a	n/a	GoodResponse	1	n/a	n/a	2	24	Blank	Win	False
239.725	1.45	Win2	0.68	n/a	Yes	3.123	n/a	5.0	GoodResponse	1	0.006	238.731	2	24	Feedback	Win	False
241.175	3.123	Win2	0.68	n/a	Yes	3.123	n/a	n/a	GoodResponse	1	0.0	n/a	2	24	ISIslide	Win	False
244.324	0.25	Win2	0.6923	0.0	Yes	3.076	0.024	n/a	GoodResponse	1	n/a	n/a	3	25	Cue	Win	True
244.574	4.0	Win2	0.6923	0.0	Yes	3.076	0.0	n/a	GoodResponse	1	n/a	n/a	3	25	Fixation	Win	True
248.572	0.39	Win2	0.6923	0.002	Yes	3.076	-0.002	4.0	GoodResponse	1	0.214	247.786	3	25	Target	Win	True
248.786	0.3	Win2	0.6923	0.002	Yes	3.076	-0.002	4.0	GoodResponse	1	0.214	n/a	3	25	ButtonPress	Win	True
248.972	0.31	Win2	0.6923	n/a	Yes	3.076	n/a	n/a	GoodResponse	1	n/a	n/a	3	25	Blank	Win	True
249.272	1.45	Win2	0.6923	n/a	Yes	3.076	n/a	5.0	GoodResponse	1	0.02	248.292	3	25	Feedback	Win	True
250.721	3.076	Win2	0.6923	n/a	Yes	3.076	n/a	n/a	GoodResponse	1	0.0	n/a	3	25	ISIslide	Win	True
253.82	0.25	Win2	0.7037	0.0	Yes	2.93	0.02	n/a	GoodResponse	1	n/a	n/a	4	26	Cue	Win	True
254.07	3.95	Win2	0.7037	0.0	Yes	2.93	0.0	n/a	GoodResponse	1	n/a	n/a	4	26	Fixation	Win	True
258.019	0.38	Win2	0.7037	0.001	Yes	2.93	-0.001	4.0	GoodResponse	1	0.172	257.191	4	26	Target	Win	True
258.191	0.3	Win2	0.7037	0.001	Yes	2.93	-0.001	4.0	GoodResponse	1	0.172	n/a	4	26	ButtonPress	Win	True
258.402	0.32	Win2	0.7037	n/a	Yes	2.93	n/a	n/a	GoodResponse	1	n/a	n/a	4	26	Blank	Win	True
258.719	1.45	Win2	0.7037	n/a	Yes	2.93	n/a	5.0	GoodResponse	1	0.037	257.756	4	26	Feedback	Win	True
260.168	2.93	Win2	0.7037	n/a	Yes	2.93	n/a	n/a	GoodResponse	1	0.0	n/a	4	26	ISIslide	Win	True
263.117	0.25	Lose2	0.7143	0.0	Yes	2.833	0.017	n/a	GoodResponse	0	n/a	n/a	4	27	Cue	AvoidedLoss	True
263.367	4.05	Lose2	0.7143	0.0	Yes	2.833	0.0	n/a	GoodResponse	0	n/a	n/a	4	27	Fixation	AvoidedLoss	True
267.416	0.37	Lose2	0.7143	0.001	Yes	2.833	-0.001	4.0	GoodResponse	0	0.24	266.656	4	27	Target	AvoidedLoss	True
267.656	0.3	Lose2	0.7143	0.001	Yes	2.833	-0.001	4.0	GoodResponse	0	0.24	n/a	4	27	ButtonPress	AvoidedLoss	True
267.799	0.33	Lose2	0.7143	n/a	Yes	2.833	n/a	n/a	GoodResponse	0	n/a	n/a	4	27	Blank	AvoidedLoss	True
268.115	1.45	Lose2	0.7143	n/a	Yes	2.833	n/a	5.0	GoodResponse	0	0.006	267.121	4	27	Feedback	AvoidedLoss	True
269.565	2.833	Lose2	0.7143	n/a	Yes	2.833	n/a	n/a	GoodResponse	0	0.0	n/a	4	27	ISIslide	AvoidedLoss	True
272.414	0.25	Control	0.7241	0.0	Yes	2.836	0.014	n/a	GoodResponse	0	n/a	n/a	4	28	Cue	Neutral	True
272.664	4.05	Control	0.7241	0.0	Yes	2.836	0.0	n/a	GoodResponse	0	n/a	n/a	4	28	Fixation	Neutral	True
276.712	0.36	Control	0.7241	0.002	Yes	2.836	-0.002	4.0	GoodResponse	0	0.209	275.921	4	28	Target	Neutral	True
276.921	0.3	Control	0.7241	0.002	Yes	2.836	-0.002	4.0	GoodResponse	0	0.209	n/a	4	28	ButtonPress	Neutral	True
277.079	0.34	Control	0.7241	n/a	Yes	2.836	n/a	n/a	GoodResponse	0	n/a	n/a	4	28	Blank	Neutral	True
277.412	1.45	Control	0.7241	n/a	Yes	2.836	n/a	5.0	GoodResponse	0	0.026	276.438	4	28	Feedback	Neutral	True
278.862	2.836	Control	0.7241	n/a	Yes	2.836	n/a	n/a	GoodResponse	0	0.0	n/a	4	28	ISIslide	Neutral	True
281.727	0.25	Lose2	0.7333	0.0	Yes	2.823	0.027	n/a	GoodResponse	0	n/a	n/a	4	29	Cue	AvoidedLoss	True
281.977	3.95	Lose2	0.7333	0.0	Yes	2.823	0.0	n/a	GoodResponse	0	n/a	n/a	4	29	Fixation	AvoidedLoss	True
285.926	0.35	Lose2	0.7333	0.001	Yes	2.823	-0.001	4.0	GoodResponse	0	0.32	285.246	4	29	Target	AvoidedLoss	True
286.246	0.3	Lose2	0.7333	0.001	Yes	2.823	-0.001	4.0	GoodResponse	0	0.32	n/a	4	29	ButtonPress	AvoidedLoss	True
286.276	0.35	Lose2	0.7333	n/a	Yes	2.823	n/a	n/a	GoodResponse	0	n/a	n/a	4	29	Blank	AvoidedLoss	True
286.625	1.45	Lose2	0.7333	n/a	Yes	2.823	n/a	5.0	GoodResponse	0	0.032	285.657	4	29	Feedback	AvoidedLoss	True
288.075	2.823	Lose2	0.7333	n/a	Yes	2.823	n/a	n/a	GoodResponse	0	0.0	n/a	4	29	ISIslide	AvoidedLoss	True
290.924	0.25	Win2	0.7419	0.0	Yes	2.776	0.024	n/a	GoodResponse	1	n/a	n/a	5	30	Cue	Win	True
291.174	3.9	Win2	0.7419	0.0	Yes	2.776	0.0	n/a	GoodResponse	1	n/a	n/a	5	30	Fixation	Win	True
295.072	0.34	Win2	0.7419	0.002	Yes	2.776	-0.002	4.0	GoodResponse	1	0.18	294.252	5	30	Target	Win	True
295.252	0.3	Win2	0.7419	0.002	Yes	2.776	-0.002	4.0	GoodResponse	1	0.18	n/a	5	30	ButtonPress	Win	True
295.422	0.36	Win2	0.7419	n/a	Yes	2.776	n/a	n/a	GoodResponse	1	n/a	n/a	5	30	Blank	Win	True
295.772	1.45	Win2	0.7419	n/a	Yes	2.776	n/a	5.0	GoodResponse	1	0.008	294.78	5	30	Feedback	Win	True
297.222	2.776	Win2	0.7419	n/a	Yes	2.776	n/a	n/a	GoodResponse	1	0.0	n/a	5	30	ISIslide	Win	True
300.021	0.25	Lose2	0.75	0.0	Yes	2.829	0.021	n/a	GoodResponse	0	n/a	n/a	5	31	Cue	AvoidedLoss	True
300.271	4.05	Lose2	0.75	0.0	Yes	2.829	0.0	n/a	GoodResponse	0	n/a	n/a	5	31	Fixation	AvoidedLoss	True
304.319	0.33	Lose2	0.75	0.002	Yes	2.829	-0.002	4.0	GoodResponse	0	0.239	303.558	5	31	Target	AvoidedLoss	True
304.558	0.3	Lose2	0.75	0.002	Yes	2.829	-0.002	4.0	GoodResponse	0	0.239	n/a	5	31	ButtonPress	AvoidedLoss	True
304.652	0.37	Lose2	0.75	n/a	Yes	2.829	n/a	n/a	GoodResponse	0	n/a	n/a	5	31	Blank	AvoidedLoss	True
305.019	1.45	Lose2	0.75	n/a	Yes	2.829	n/a	5.0	GoodResponse	0	0.029	304.048	5	31	Feedback	AvoidedLoss	True
306.468	2.829	Lose2	0.75	n/a	Yes	2.829	n/a	n/a	GoodResponse	0	0.0	n/a	5	31	ISIslide	AvoidedLoss	True
309.317	0.25	Lose2	0.7576	0.001	Yes	2.633	0.017	n/a	GoodResponse	0	n/a	n/a	5	32	Cue	AvoidedLoss	True
309.567	4.15	Lose2	0.7576	0.0	Yes	2.633	0.0	n/a	GoodResponse	0	n/a	n/a	5	32	Fixation	AvoidedLoss	True
313.716	0.32	Lose2	0.7576	0.001	Yes	2.633	-0.001	4.0	GoodResponse	0	0.246	312.962	5	32	Target	AvoidedLoss	True
313.962	0.3	Lose2	0.7576	0.001	Yes	2.633	-0.001	4.0	GoodResponse	0	0.246	n/a	5	32	ButtonPress	AvoidedLoss	True
314.032	0.38	Lose2	0.7576	n/a	Yes	2.633	n/a	n/a	GoodResponse	0	n/a	n/a	5	32	Blank	AvoidedLoss	True
314.416	1.45	Lose2	0.7576	n/a	Yes	2.633	n/a	5.0	GoodResponse	0	0.046	313.462	5	32	Feedback	AvoidedLoss	True
315.865	2.633	Lose2	0.7576	n/a	Yes	2.633	n/a	n/a	GoodResponse	0	0.0	n/a	5	32	ISIslide	AvoidedLoss	True
318.514	0.25	Win2	0.7646999999999999	0.0	Yes	2.686	0.014	n/a	GoodResponse	1	n/a	n/a	6	33	Cue	Win	True
318.764	4.0	Win2	0.7646999999999999	0.0	Yes	2.686	0.0	n/a	GoodResponse	1	n/a	n/a	6	33	Fixation	Win	True
322.763	0.31	Win2	0.7646999999999999	0.001	Yes	2.686	-0.001	4.0	GoodResponse	1	0.293	322.056	6	33	Target	Win	True
323.056	0.3	Win2	0.7646999999999999	0.001	Yes	2.686	-0.001	4.0	GoodResponse	1	0.293	n/a	6	33	ButtonPress	Win	True
323.079	0.39	Win2	0.7646999999999999	n/a	Yes	2.686	n/a	n/a	GoodResponse	1	n/a	n/a	6	33	Blank	Win	True
323.462	1.45	Win2	0.7646999999999999	n/a	Yes	2.686	n/a	5.0	GoodResponse	1	0.024	322.486	6	33	Feedback	Win	True
324.912	2.686	Win2	0.7646999999999999	n/a	Yes	2.686	n/a	n/a	GoodResponse	1	0.0	n/a	6	33	ISIslide	Win	True
327.628	0.25	Lose2	0.7714	0.0	Yes	2.622	0.028	n/a	GoodResponse	0	n/a	n/a	6	34	Cue	AvoidedLoss	True
327.878	4.05	Lose2	0.7714	0.0	Yes	2.622	0.0	n/a	GoodResponse	0	n/a	n/a	6	34	Fixation	AvoidedLoss	True
331.926	0.3	Lose2	0.7714	0.002	Yes	2.622	-0.002	4.0	GoodResponse	0	0.174	331.1	6	34	Target	AvoidedLoss	True
332.1	0.3	Lose2	0.7714	0.002	Yes	2.622	-0.002	4.0	GoodResponse	0	0.174	n/a	6	34	ButtonPress	AvoidedLoss	True
332.226	0.4	Lose2	0.7714	n/a	Yes	2.622	n/a	n/a	GoodResponse	0	n/a	n/a	6	34	Blank	AvoidedLoss	True
332.626	1.45	Lose2	0.7714	n/a	Yes	2.622	n/a	5.0	GoodResponse	0	0.031	331.657	6	34	Feedback	AvoidedLoss	True
334.075	2.622	Lose2	0.7714	n/a	Yes	2.622	n/a	n/a	GoodResponse	0	0.0	n/a	6	34	ISIslide	AvoidedLoss	True
336.724	0.25	Lose2	0.7778	0.001	Yes	2.676	0.024	n/a	GoodResponse	0	n/a	n/a	6	35	Cue	AvoidedLoss	True
336.974	4.0	Lose2	0.7778	0.0	Yes	2.676	0.0	n/a	GoodResponse	0	n/a	n/a	6	35	Fixation	AvoidedLoss	True
340.973	0.29	Lose2	0.7778	0.001	Yes	2.676	-0.001	4.0	GoodResponse	0	0.242	340.215	6	35	Target	AvoidedLoss	True
341.215	0.3	Lose2	0.7778	0.001	Yes	2.676	-0.001	4.0	GoodResponse	0	0.242	n/a	6	35	ButtonPress	AvoidedLoss	True
341.273	0.41	Lose2	0.7778	n/a	Yes	2.676	n/a	n/a	GoodResponse	0	n/a	n/a	6	35	Blank	AvoidedLoss	True
341.673	1.45	Lose2	0.7778	n/a	Yes	2.676	n/a	5.0	GoodResponse	0	0.009	340.682	6	35	Feedback	AvoidedLoss	True
343.122	2.676	Lose2	0.7778	n/a	Yes	2.676	n/a	n/a	GoodResponse	0	0.0	n/a	6	35	ISIslide	AvoidedLoss	True
345.821	0.25	Control	0.7837999999999999	0.0	Yes	2.679	0.021	n/a	GoodResponse	0	n/a	n/a	6	36	Cue	Neutral	True
346.071	4.0	Control	0.7837999999999999	0.0	Yes	2.679	0.0	n/a	GoodResponse	0	n/a	n/a	6	36	Fixation	Neutral	True
350.07	0.28	Control	0.7837999999999999	0.001	Yes	2.679	-0.001	4.0	GoodResponse	0	0.232	349.302	6	36	Target	Neutral	True
350.302	0.3	Control	0.7837999999999999	0.001	Yes	2.679	-0.001	4.0	GoodResponse	0	0.232	n/a	6	36	ButtonPress	Neutral	True
350.353	0.42	Control	0.7837999999999999	n/a	Yes	2.679	n/a	n/a	GoodResponse	0	n/a	n/a	6	36	Blank	Neutral	True
350.77	1.45	Control	0.7837999999999999	n/a	Yes	2.679	n/a	5.0	GoodResponse	0	0.033	349.803	6	36	Feedback	Neutral	True
352.219	2.679	Control	0.7837999999999999	n/a	Yes	2.679	n/a	n/a	GoodResponse	0	0.0	n/a	6	36	ISIslide	Neutral	True
354.918	0.25	Win2	0.7895	0.0	Yes	2.882	0.018	n/a	GoodResponse	1	n/a	n/a	7	37	Cue	Win	True
355.168	4.0	Win2	0.7895	0.0	Yes	2.882	0.0	n/a	GoodResponse	1	n/a	n/a	7	37	Fixation	Win	True
359.167	0.27	Win2	0.7895	0.001	Yes	2.882	-0.001	4.0	GoodResponse	1	0.208	358.375	7	37	Target	Win	True
359.375	0.3	Win2	0.7895	0.001	Yes	2.882	-0.001	4.0	GoodResponse	1	0.208	n/a	7	37	ButtonPress	Win	True
359.45	0.43	Win2	0.7895	n/a	Yes	2.882	n/a	n/a	GoodResponse	1	n/a	n/a	7	37	Blank	Win	True
359.866	1.45	Win2	0.7895	n/a	Yes	2.882	n/a	5.0	GoodResponse	1	0.01	358.876	7	37	Feedback	Win	True
361.316	2.882	Win2	0.7895	n/a	Yes	2.882	n/a	n/a	GoodResponse	1	0.0	n/a	7	37	ISIslide	Win	True
364.215	0.25	Lose2	0.7948999999999999	0.0	Yes	2.835	0.015	n/a	GoodResponse	0	n/a	n/a	7	38	Cue	AvoidedLoss	True
364.465	3.95	Lose2	0.7948999999999999	0.0	Yes	2.835	0.0	n/a	GoodResponse	0	n/a	n/a	7	38	Fixation	AvoidedLoss	True
368.413	0.26	Lose2	0.7948999999999999	0.002	Yes	2.835	-0.002	4.0	GoodResponse	0	0.222	367.635	7	38	Target	AvoidedLoss	True
368.635	0.3	Lose2	0.7948999999999999	0.002	Yes	2.835	-0.002	4.0	GoodResponse	0	0.222	n/a	7	38	ButtonPress	AvoidedLoss	True
368.68	0.44	Lose2	0.7948999999999999	n/a	Yes	2.835	n/a	n/a	GoodResponse	0	n/a	n/a	7	38	Blank	AvoidedLoss	True
369.113	1.45	Lose2	0.7948999999999999	n/a	Yes	2.835	n/a	5.0	GoodResponse	0	0.031	368.144	7	38	Feedback	AvoidedLoss	True
370.563	2.835	Lose2	0.7948999999999999	n/a	Yes	2.835	n/a	n/a	GoodResponse	0	0.0	n/a	7	38	ISIslide	AvoidedLoss	True
373.428	0.25	Win2	0.775	0.0	No	2.972	0.028	n/a	NoResponse	0	n/a	n/a	7	39	Cue	MissedWin	True
373.678	4.1	Win2	0.775	0.0	No	2.972	0.0	n/a	NoResponse	0	n/a	n/a	7	39	Fixation	MissedWin	True
377.777	0.25	Win2	0.775	0.001	No	2.972	-0.001	4.0	NoResponse	0	0.292	377.069	7	39	Target	MissedWin	True
378.027	0.45	Win2	0.775	n/a	No	2.972	n/a	n/a	NoResponse	0	n/a	n/a	7	39	Blank	MissedWin	True
378.069	0.3	Win2	0.775	0.001	No	2.972	-0.001	4.0	NoResponse	0	0.292	n/a	7	39	ButtonPress	MissedWin	True
378.476	1.45	Win2	0.775	n/a	No	2.972	n/a	5.0	NoResponse	0	0.034	377.51	7	39	Feedback	MissedWin	True
379.926	2.972	Win2	0.775	n/a	No	2.972	n/a	n/a	NoResponse	0	0.0	n/a	7	39	ISIslide	MissedWin	True
382.925	0.25	Win2	0.7561	0.0	No	2.725	0.025	n/a	NoResponse	0	n/a	n/a	7	40	Cue	MissedWin	True
383.175	3.95	Win2	0.7561	0.0	No	2.725	0.0	n/a	NoResponse	0	n/a	n/a	7	40	Fixation	MissedWin	True
387.123	0.24	Win2	0.7561	0.002	No	2.725	-0.002	4.0	NoResponse	0	0.269	386.392	7	40	Target	MissedWin	True
387.373	0.46	Win2	0.7561	n/a	No	2.725	n/a	n/a	NoResponse	0	n/a	n/a	7	40	Blank	MissedWin	True
387.392	0.3	Win2	0.7561	0.002	No	2.725	-0.002	4.0	NoResponse	0	0.269	n/a	7	40	ButtonPress	MissedWin	True
387.823	1.45	Win2	0.7561	n/a	No	2.725	n/a	5.0	NoResponse	0	0.006	386.829	7	40	Feedback	MissedWin	True
389.273	2.725	Win2	0.7561	n/a	No	2.725	n/a	n/a	NoResponse	0	0.0	n/a	7	40	ISIslide	MissedWin	True
392.022	0.25	Win2	0.7619	0.0	Yes	2.778	0.022	n/a	GoodResponse	1	n/a	n/a	8	41	Cue	Win	True
392.272	3.9	Win2	0.7619	0.0	Yes	2.778	0.0	n/a	GoodResponse	1	n/a	n/a	8	41	Fixation	Win	True
396.17	0.23	Win2	0.7619	0.002	Yes	2.778	-0.002	4.0	GoodResponse	1	0.165	395.335	8	41	Target	Win	True
396.335	0.3	Win2	0.7619	0.002	Yes	2.778	-0.002	4.0	GoodResponse	1	0.165	n/a	8	41	ButtonPress	Win	True
396.403	0.47	Win2	0.7619	n/a	Yes	2.778	n/a	n/a	GoodResponse	1	n/a	n/a	8	41	Blank	Win	True
396.87	1.45	Win2	0.7619	n/a	Yes	2.778	n/a	5.0	GoodResponse	1	0.03	395.9	8	41	Feedback	Win	True
398.319	2.778	Win2	0.7619	n/a	Yes	2.778	n/a	n/a	GoodResponse	1	0.0	n/a	8	41	ISIslide	Win	True
401.118	0.25	Control	0.7442	0.001	No	2.932	0.018	n/a	NoResponse	0	n/a	n/a	8	42	Cue	Neutral	False
401.368	3.85	Control	0.7442	0.0	No	2.932	0.0	n/a	NoResponse	0	n/a	n/a	8	42	Fixation	Neutral	False
405.217	0.22	Control	0.7442	0.001	No	2.932	-0.001	n/a	NoResponse	0	n/a	n/a	8	42	Target	Neutral	False
405.434	0.48	Control	0.7442	n/a	No	2.932	n/a	n/a	NoResponse	0	n/a	n/a	8	42	Blank	Neutral	False
405.917	1.45	Control	0.7442	n/a	No	2.932	n/a	5.0	NoResponse	0	0.007	404.924	8	42	Feedback	Neutral	False
407.366	2.932	Control	0.7442	n/a	No	2.932	n/a	n/a	NoResponse	0	0.0	n/a	8	42	ISIslide	Neutral	False
410.315	0.25	Win2	0.7273000000000001	0.0	No	3.185	0.015	n/a	NoResponse	0	n/a	n/a	8	43	Cue	MissedWin	True
410.565	4.0	Win2	0.7273000000000001	0.0	No	3.185	0.0	n/a	NoResponse	0	n/a	n/a	8	43	Fixation	MissedWin	True
414.564	0.21	Win2	0.7273000000000001	0.001	No	3.185	-0.001	4.0	NoResponse	0	0.277	413.841	8	43	Target	MissedWin	True
414.78	0.49	Win2	0.7273000000000001	n/a	No	3.185	n/a	n/a	NoResponse	0	n/a	n/a	8	43	Blank	MissedWin	True
414.841	0.3	Win2	0.7273000000000001	0.001	No	3.185	-0.001	4.0	NoResponse	0	0.277	n/a	8	43	ButtonPress	MissedWin	True
415.263	1.45	Win2	0.7273000000000001	n/a	No	3.185	n/a	5.0	NoResponse	0	0.027	414.29	8	43	Feedback	MissedWin	True
416.713	3.185	Win2	0.7273000000000001	n/a	No	3.185	n/a	n/a	NoResponse	0	0.0	n/a	8	43	ISIslide	MissedWin	True
419.929	0.25	Win2	0.7333	0.0	Yes	2.971	0.029	n/a	GoodResponse	1	n/a	n/a	9	44	Cue	Win	True
420.178	4.0	Win2	0.7333	0.001	Yes	2.971	-0.001	n/a	GoodResponse	1	n/a	n/a	9	44	Fixation	Win	True
424.177	0.2	Win2	0.7333	0.002	Yes	2.971	-0.002	4.0	GoodResponse	1	0.198	423.375	9	44	Target	Win	True
424.375	0.3	Win2	0.7333	0.002	Yes	2.971	-0.002	4.0	GoodResponse	1	0.198	n/a	9	44	ButtonPress	Win	True
424.377	0.5	Win2	0.7333	n/a	Yes	2.971	n/a	n/a	GoodResponse	1	n/a	n/a	9	44	Blank	Win	True
424.877	1.45	Win2	0.7333	n/a	Yes	2.971	n/a	5.0	GoodResponse	1	0.023	423.9	9	44	Feedback	Win	True
426.326	2.971	Win2	0.7333	n/a	Yes	2.971	n/a	n/a	GoodResponse	1	0.0	n/a	9	44	ISIslide	Win	True
429.325	0.25	Control	0.7391	0.0	Yes	2.875	0.025	n/a	GoodResponse	0	n/a	n/a	9	45	Cue	Neutral	True
429.575	4.1	Control	0.7391	0.0	Yes	2.875	0.0	n/a	GoodResponse	0	n/a	n/a	9	45	Fixation	Neutral	True
433.674	0.19	Control	0.7391	0.001	Yes	2.875	-0.001	4.0	GoodResponse	0	0.189	432.863	9	45	Target	Neutral	True
433.863	0.3	Control	0.7391	0.001	Yes	2.875	-0.001	4.0	GoodResponse	0	0.189	n/a	9	45	ButtonPress	Neutral	True
433.874	0.51	Control	0.7391	n/a	Yes	2.875	n/a	n/a	GoodResponse	0	n/a	n/a	9	45	Blank	Neutral	True
434.373	1.45	Control	0.7391	n/a	Yes	2.875	n/a	5.0	GoodResponse	0	0.039	433.412	9	45	Feedback	Neutral	True
435.823	2.875	Control	0.7391	n/a	Yes	2.875	n/a	n/a	GoodResponse	0	0.0	n/a	9	45	ISIslide	Neutral	True
438.722	0.25	Lose2	0.7234	0.0	No	3.378	0.022	n/a	NoResponse	-1	n/a	n/a	8	46	Cue	Loss	True
438.972	4.0	Lose2	0.7234	0.0	No	3.378	0.0	4.0	NoResponse	-1	3.907	441.879	8	46	Fixation	Loss	True
442.879	0.3	Lose2	0.7234	0.0	No	3.378	0.0	4.0	NoResponse	-1	3.907	n/a	8	46	ButtonPress	Loss	True
442.97	0.18	Lose2	0.7234	0.002	No	3.378	-0.002	n/a	NoResponse	-1	n/a	n/a	8	46	Target	Loss	True
443.154	0.52	Lose2	0.7234	n/a	No	3.378	n/a	n/a	NoResponse	-1	n/a	n/a	8	46	Blank	Loss	True
443.67	1.45	Lose2	0.7234	n/a	No	3.378	n/a	5.0	NoResponse	-1	0.01	442.68	8	46	Feedback	Loss	True
445.12	3.378	Lose2	0.7234	n/a	No	3.378	n/a	n/a	NoResponse	-1	0.0	n/a	8	46	ISIslide	Loss	True
448.518	0.25	Lose2	0.7082999999999999	0.0	No	2.682	0.018	n/a	NoResponse	-1	n/a	n/a	7	47	Cue	Loss	True
448.768	4.0	Lose2	0.7082999999999999	0.0	No	2.682	0.0	n/a	NoResponse	-1	n/a	n/a	7	47	Fixation	Loss	True
452.767	0.17	Lose2	0.7082999999999999	0.001	No	2.682	-0.001	4.0	NoResponse	-1	0.248	452.015	7	47	Target	Loss	True
452.934	0.53	Lose2	0.7082999999999999	n/a	No	2.682	n/a	n/a	NoResponse	-1	n/a	n/a	7	47	Blank	Loss	True
453.015	0.3	Lose2	0.7082999999999999	0.001	No	2.682	-0.001	4.0	NoResponse	-1	0.248	n/a	7	47	ButtonPress	Loss	True
453.467	1.45	Lose2	0.7082999999999999	n/a	No	2.682	n/a	5.0	NoResponse	-1	0.018	452.485	7	47	Feedback	Loss	True
454.916	2.682	Lose2	0.7082999999999999	n/a	No	2.682	n/a	n/a	NoResponse	-1	0.0	n/a	7	47	ISIslide	Loss	True
457.615	0.25	Lose2	0.7143	0.0	Yes	3.035	0.015	n/a	GoodResponse	0	n/a	n/a	7	48	Cue	AvoidedLoss	False
457.865	3.95	Lose2	0.7143	0.0	Yes	3.035	0.0	4.0	GoodResponse	0	3.182	460.047	7	48	Fixation	AvoidedLoss	False
461.047	0.3	Lose2	0.7143	0.0	Yes	3.035	0.0	4.0	GoodResponse	0	3.182	n/a	7	48	ButtonPress	AvoidedLoss	False
461.814	0.16	Lose2	0.7143	0.001	Yes	3.035	-0.001	4.0	GoodResponse	0	0.105	460.919	7	48	Target	AvoidedLoss	False
461.919	0.3	Lose2	0.7143	0.001	Yes	3.035	-0.001	4.0	GoodResponse	0	0.105	n/a	7	48	ButtonPress	AvoidedLoss	False
461.98	0.54	Lose2	0.7143	n/a	Yes	3.035	n/a	n/a	GoodResponse	0	n/a	n/a	7	48	Blank	AvoidedLoss	False
462.514	1.45	Lose2	0.7143	n/a	Yes	3.035	n/a	5.0	GoodResponse	0	0.044	461.558	7	48	Feedback	AvoidedLoss	False
463.963	3.035	Lose2	0.7143	n/a	Yes	3.035	n/a	n/a	GoodResponse	0	0.0	n/a	7	48	ISIslide	AvoidedLoss	False
467.029	0.25	Control	0.7	0.0	No	2.871	0.029	n/a	NoResponse	0	n/a	n/a	7	49	Cue	Neutral	False
467.278	4.0	Control	0.7	0.001	No	2.871	-0.001	n/a	NoResponse	0	n/a	n/a	7	49	Fixation	Neutral	False
471.277	0.15	Control	0.7	0.002	No	2.871	-0.002	n/a	NoResponse	0	n/a	n/a	7	49	Target	Neutral	False
471.427	0.55	Control	0.7	n/a	No	2.871	n/a	n/a	NoResponse	0	n/a	n/a	7	49	Blank	Neutral	False
471.977	1.45	Control	0.7	n/a	No	2.871	n/a	5.0	NoResponse	0	0.045	471.022	7	49	Feedback	Neutral	False
473.426	2.871	Control	0.7	n/a	No	2.871	n/a	n/a	NoResponse	0	0.0	n/a	7	49	ISIslide	Neutral	False
476.325	0.25	Control	0.6862999999999999	0.0	No	2.775	0.025	n/a	NoResponse	0	n/a	n/a	7	50	Cue	Neutral	True
476.575	4.0	Control	0.6862999999999999	0.0	No	2.775	0.0	n/a	NoResponse	0	n/a	n/a	7	50	Fixation	Neutral	True
480.574	0.15	Control	0.6862999999999999	0.001	No	2.775	-0.001	4.0	NoResponse	0	0.302	479.876	7	50	Target	Neutral	True
480.724	0.55	Control	0.6862999999999999	n/a	No	2.775	n/a	n/a	NoResponse	0	n/a	n/a	7	50	Blank	Neutral	True
480.876	0.3	Control	0.6862999999999999	0.001	No	2.775	-0.001	4.0	NoResponse	0	0.302	n/a	7	50	ButtonPress	Neutral	True
481.274	1.45	Control	0.6862999999999999	n/a	No	2.775	n/a	5.0	NoResponse	0	0.016	480.29	7	50	Feedback	Neutral	True
482.723	2.775	Control	0.6862999999999999	n/a	No	2.775	n/a	n/a	NoResponse	0	0.0	n/a	7	50	ISIslide	Neutral	True
485.522	0.25	Control	0.6731	0.0	No	2.728	0.022	n/a	NoResponse	0	n/a	n/a	7	51	Cue	Neutral	True
485.772	3.95	Control	0.6731	0.0	No	2.728	0.0	n/a	NoResponse	0	n/a	n/a	7	51	Fixation	Neutral	True
489.721	0.15	Control	0.6731	0.001	No	2.728	-0.001	4.0	NoResponse	0	0.235	488.956	7	51	Target	Neutral	True
489.871	0.55	Control	0.6731	n/a	No	2.728	n/a	n/a	NoResponse	0	n/a	n/a	7	51	Blank	Neutral	True
489.956	0.3	Control	0.6731	0.001	No	2.728	-0.001	4.0	NoResponse	0	0.235	n/a	7	51	ButtonPress	Neutral	True
490.42	1.45	Control	0.6731	n/a	No	2.728	n/a	5.0	NoResponse	0	0.04	489.46	7	51	Feedback	Neutral	True
491.87	2.728	Control	0.6731	n/a	No	2.728	n/a	n/a	NoResponse	0	0.0	n/a	7	51	ISIslide	Neutral	True
494.619	0.25	Control	0.6604000000000001	0.0	No	2.631	0.019	n/a	NoResponse	0	n/a	n/a	7	52	Cue	Neutral	True
494.869	4.05	Control	0.6604000000000001	0.0	No	2.631	0.0	n/a	NoResponse	0	n/a	n/a	7	52	Fixation	Neutral	True
498.917	0.15	Control	0.6604000000000001	0.002	No	2.631	-0.002	4.0	NoResponse	0	0.254	498.171	7	52	Target	Neutral	True
499.067	0.55	Control	0.6604000000000001	n/a	No	2.631	n/a	n/a	NoResponse	0	n/a	n/a	7	52	Blank	Neutral	True
499.171	0.3	Control	0.6604000000000001	0.002	No	2.631	-0.002	4.0	NoResponse	0	0.254	n/a	7	52	ButtonPress	Neutral	True
499.617	1.45	Control	0.6604000000000001	n/a	No	2.631	n/a	5.0	NoResponse	0	0.014	498.631	7	52	Feedback	Neutral	True
501.067	2.631	Control	0.6604000000000001	n/a	No	2.631	n/a	n/a	NoResponse	0	0.0	n/a	7	52	ISIslide	Neutral	True
503.716	0.25	Win2	0.6481	0.0	No	2.934	0.016	n/a	NoResponse	0	n/a	n/a	7	53	Cue	MissedWin	True
503.966	4.05	Win2	0.6481	0.0	No	2.934	0.0	n/a	NoResponse	0	n/a	n/a	7	53	Fixation	MissedWin	True
508.014	0.15	Win2	0.6481	0.002	No	2.934	-0.002	4.0	NoResponse	0	0.194	507.208	7	53	Target	MissedWin	True
508.164	0.55	Win2	0.6481	n/a	No	2.934	n/a	n/a	NoResponse	0	n/a	n/a	7	53	Blank	MissedWin	True
508.208	0.3	Win2	0.6481	0.002	No	2.934	-0.002	4.0	NoResponse	0	0.194	n/a	7	53	ButtonPress	MissedWin	True
508.714	1.45	Win2	0.6481	n/a	No	2.934	n/a	5.0	NoResponse	0	0.039	507.753	7	53	Feedback	MissedWin	True
510.163	2.934	Win2	0.6481	n/a	No	2.934	n/a	n/a	NoResponse	0	0.0	n/a	7	53	ISIslide	MissedWin	True
513.112	0.25	Win2	0.6364	0.0	No	2.738	0.012	n/a	NoResponse	0	n/a	n/a	7	54	Cue	MissedWin	True
513.362	3.95	Win2	0.6364	0.0	No	2.738	0.0	n/a	NoResponse	0	n/a	n/a	7	54	Fixation	MissedWin	True
517.311	0.16	Win2	0.6364	0.001	No	2.738	-0.001	4.0	NoResponse	0	0.277	516.588	7	54	Target	MissedWin	True
517.477	0.54	Win2	0.6364	n/a	No	2.738	n/a	n/a	NoResponse	0	n/a	n/a	7	54	Blank	MissedWin	True
517.588	0.3	Win2	0.6364	0.001	No	2.738	-0.001	4.0	NoResponse	0	0.277	n/a	7	54	ButtonPress	MissedWin	True
518.011	1.45	Win2	0.6364	n/a	No	2.738	n/a	5.0	NoResponse	0	0.01	517.021	7	54	Feedback	MissedWin	True
519.46	2.738	Win2	0.6364	n/a	No	2.738	n/a	n/a	NoResponse	0	0.0	n/a	7	54	ISIslide	MissedWin	True
522.226	0.25	Control	0.625	0.0	No	3.024	0.026	n/a	NoResponse	0	n/a	n/a	7	55	Cue	Neutral	True
522.476	3.95	Control	0.625	0.0	No	3.024	0.0	n/a	NoResponse	0	n/a	n/a	7	55	Fixation	Neutral	True
526.424	0.17	Control	0.625	0.002	No	3.024	-0.002	4.0	NoResponse	0	0.472	525.896	7	55	Target	Neutral	True
526.608	0.53	Control	0.625	n/a	No	3.024	n/a	n/a	NoResponse	0	n/a	n/a	7	55	Blank	Neutral	True
526.896	0.3	Control	0.625	0.002	No	3.024	-0.002	4.0	NoResponse	0	0.472	n/a	7	55	ButtonPress	Neutral	True
527.124	1.45	Control	0.625	n/a	No	3.024	n/a	5.0	NoResponse	0	0.018	526.142	7	55	Feedback	Neutral	True
528.574	3.024	Control	0.625	n/a	No	3.024	n/a	n/a	NoResponse	0	0.0	n/a	7	55	ISIslide	Neutral	True
531.622	0.25	Control	0.614	0.001	No	2.828	0.022	n/a	NoResponse	0	n/a	n/a	7	56	Cue	Neutral	False
531.872	3.95	Control	0.614	0.0	No	2.828	0.0	n/a	NoResponse	0	n/a	n/a	7	56	Fixation	Neutral	False
535.821	0.18	Control	0.614	0.001	No	2.828	-0.001	n/a	NoResponse	0	n/a	n/a	7	56	Target	Neutral	False
536.004	0.52	Control	0.614	n/a	No	2.828	n/a	n/a	NoResponse	0	n/a	n/a	7	56	Blank	Neutral	False
536.521	1.45	Control	0.614	n/a	No	2.828	n/a	5.0	NoResponse	0	0.036	535.557	7	56	Feedback	Neutral	False
537.97	2.828	Control	0.614	n/a	No	2.828	n/a	n/a	NoResponse	0	0.0	n/a	7	56	ISIslide	Neutral	False
540.819	0.25	Control	0.6034	0.0	No	3.481	0.019	n/a	NoResponse	0	n/a	n/a	7	57	Cue	Neutral	False
541.069	4.0	Control	0.6034	0.0	No	3.481	0.0	n/a	NoResponse	0	n/a	n/a	7	57	Fixation	Neutral	False
545.068	0.19	Control	0.6034	0.001	No	3.481	-0.001	n/a	NoResponse	0	n/a	n/a	7	57	Target	Neutral	False
545.268	0.51	Control	0.6034	n/a	No	3.481	n/a	n/a	NoResponse	0	n/a	n/a	7	57	Blank	Neutral	False
545.768	1.45	Control	0.6034	n/a	No	3.481	n/a	5.0	NoResponse	0	0.009	544.777	7	57	Feedback	Neutral	False
547.217	3.481	Control	0.6034	n/a	No	3.481	n/a	n/a	NoResponse	0	0.0	n/a	7	57	ISIslide	Neutral	False
550.716	0.25	Win2	0.6102000000000001	0.0	Yes	2.734	0.016	n/a	GoodResponse	1	n/a	n/a	8	58	Cue	Win	True
550.966	4.05	Win2	0.6102000000000001	0.0	Yes	2.734	0.0	n/a	GoodResponse	1	n/a	n/a	8	58	Fixation	Win	True
555.014	0.2	Win2	0.6102000000000001	0.002	Yes	2.734	-0.002	4.0	GoodResponse	1	0.197	554.211	8	58	Target	Win	True
555.211	0.3	Win2	0.6102000000000001	0.002	Yes	2.734	-0.002	4.0	GoodResponse	1	0.197	n/a	8	58	ButtonPress	Win	True
555.214	0.5	Win2	0.6102000000000001	n/a	Yes	2.734	n/a	n/a	GoodResponse	1	n/a	n/a	8	58	Blank	Win	True
555.714	1.45	Win2	0.6102000000000001	n/a	Yes	2.734	n/a	5.0	GoodResponse	1	0.014	554.728	8	58	Feedback	Win	True
557.163	2.734	Win2	0.6102000000000001	n/a	Yes	2.734	n/a	n/a	GoodResponse	1	0.0	n/a	8	58	ISIslide	Win	True
559.929	0.25	Lose2	0.6	0.0	No	2.671	0.029	n/a	NoResponse	-1	n/a	n/a	7	59	Cue	Loss	False
560.179	4.0	Lose2	0.6	0.0	No	2.671	0.0	n/a	NoResponse	-1	n/a	n/a	7	59	Fixation	Loss	False
564.178	0.21	Lose2	0.6	0.001	No	2.671	-0.001	n/a	NoResponse	-1	n/a	n/a	7	59	Target	Loss	False
564.394	0.49	Lose2	0.6	n/a	No	2.671	n/a	n/a	NoResponse	-1	n/a	n/a	7	59	Blank	Loss	False
564.877	1.45	Lose2	0.6	n/a	No	2.671	n/a	5.0	NoResponse	-1	0.022	563.899	7	59	Feedback	Loss	False
566.327	2.671	Lose2	0.6	n/a	No	2.671	n/a	n/a	NoResponse	-1	0.0	n/a	7	59	ISIslide	Loss	False
569.026	0.25	Control	0.5902000000000001	0.0	No	2.674	0.026	n/a	NoResponse	0	n/a	n/a	7	60	Cue	Neutral	True
569.276	4.0	Control	0.5902000000000001	0.0	No	2.674	0.0	n/a	NoResponse	0	n/a	n/a	7	60	Fixation	Neutral	True
573.274	0.22	Control	0.5902000000000001	0.002	No	2.674	-0.002	4.0	NoResponse	0	0.234	572.508	7	60	Target	Neutral	True
573.508	0.48	Control	0.5902000000000001	n/a	No	2.674	n/a	n/a	NoResponse	0	n/a	n/a	7	60	Blank	Neutral	True
573.508	0.3	Control	0.5902000000000001	0.002	No	2.674	-0.002	4.0	NoResponse	0	0.234	n/a	7	60	ButtonPress	Neutral	True
573.974	1.45	Control	0.5902000000000001	n/a	No	2.674	n/a	5.0	NoResponse	0	0.046	573.02	7	60	Feedback	Neutral	True
575.424	2.674	Control	0.5902000000000001	n/a	No	2.674	n/a	n/a	NoResponse	0	0.0	n/a	7	60	ISIslide	Neutral	True
578.123	0.25	Lose2	0.5968	0.0	Yes	2.977	0.023	n/a	GoodResponse	0	n/a	n/a	7	61	Cue	AvoidedLoss	True
578.373	4.0	Lose2	0.5968	0.0	Yes	2.977	0.0	n/a	GoodResponse	0	n/a	n/a	7	61	Fixation	AvoidedLoss	True
582.371	0.23	Lose2	0.5968	0.002	Yes	2.977	-0.002	4.0	GoodResponse	0	0.169	581.54	7	61	Target	AvoidedLoss	True
582.54	0.3	Lose2	0.5968	0.002	Yes	2.977	-0.002	4.0	GoodResponse	0	0.169	n/a	7	61	ButtonPress	AvoidedLoss	True
582.605	0.47	Lose2	0.5968	n/a	Yes	2.977	n/a	n/a	GoodResponse	0	n/a	n/a	7	61	Blank	AvoidedLoss	True
583.071	1.45	Lose2	0.5968	n/a	Yes	2.977	n/a	5.0	GoodResponse	0	0.022	582.093	7	61	Feedback	AvoidedLoss	True
584.521	2.977	Lose2	0.5968	n/a	Yes	2.977	n/a	n/a	GoodResponse	0	0.0	n/a	7	61	ISIslide	AvoidedLoss	True
587.519	0.25	Lose2	0.5872999999999999	0.001	No	2.881	0.019	n/a	NoResponse	-1	n/a	n/a	6	62	Cue	Loss	True
587.769	3.9	Lose2	0.5872999999999999	0.0	No	2.881	0.0	n/a	NoResponse	-1	n/a	n/a	6	62	Fixation	Loss	True
591.668	0.24	Lose2	0.5872999999999999	0.001	No	2.881	-0.001	4.0	NoResponse	-1	0.307	590.975	6	62	Target	Loss	True
591.918	0.46	Lose2	0.5872999999999999	n/a	No	2.881	n/a	n/a	NoResponse	-1	n/a	n/a	6	62	Blank	Loss	True
591.975	0.3	Lose2	0.5872999999999999	0.001	No	2.881	-0.001	4.0	NoResponse	-1	0.307	n/a	6	62	ButtonPress	Loss	True
592.368	1.45	Lose2	0.5872999999999999	n/a	No	2.881	n/a	5.0	NoResponse	-1	0.042	591.41	6	62	Feedback	Loss	True
593.817	2.881	Lose2	0.5872999999999999	n/a	No	2.881	n/a	n/a	NoResponse	-1	0.0	n/a	6	62	ISIslide	Loss	True
596.716	0.25	Lose2	0.5938	0.0	Yes	2.634	0.016	n/a	GoodResponse	0	n/a	n/a	6	63	Cue	AvoidedLoss	True
596.966	4.05	Lose2	0.5938	0.0	Yes	2.634	0.0	n/a	GoodResponse	0	n/a	n/a	6	63	Fixation	AvoidedLoss	True
601.015	0.25	Lose2	0.5938	0.001	Yes	2.634	-0.001	4.0	GoodResponse	0	0.212	600.227	6	63	Target	AvoidedLoss	True
601.227	0.3	Lose2	0.5938	0.001	Yes	2.634	-0.001	4.0	GoodResponse	0	0.212	n/a	6	63	ButtonPress	AvoidedLoss	True
601.265	0.45	Lose2	0.5938	n/a	Yes	2.634	n/a	n/a	GoodResponse	0	n/a	n/a	6	63	Blank	AvoidedLoss	True
601.714	1.45	Lose2	0.5938	n/a	Yes	2.634	n/a	5.0	GoodResponse	0	0.014	600.728	6	63	Feedback	AvoidedLoss	True
603.164	2.634	Lose2	0.5938	n/a	Yes	2.634	n/a	n/a	GoodResponse	0	0.0	n/a	6	63	ISIslide	AvoidedLoss	True
605.83	0.25	Win2	0.5846	0.0	No	3.12	0.03	n/a	NoResponse	0	n/a	n/a	6	64	Cue	MissedWin	True
606.08	4.15	Win2	0.5846	0.0	No	3.12	0.0	n/a	NoResponse	0	n/a	n/a	6	64	Fixation	MissedWin	True
610.228	0.26	Win2	0.5846	0.002	No	3.12	-0.002	4.0	NoResponse	0	0.324	609.552	6	64	Target	MissedWin	True
610.495	0.44	Win2	0.5846	n/a	No	3.12	n/a	n/a	NoResponse	0	n/a	n/a	6	64	Blank	MissedWin	True
610.552	0.3	Win2	0.5846	0.002	No	3.12	-0.002	4.0	NoResponse	0	0.324	n/a	6	64	ButtonPress	MissedWin	True
610.928	1.45	Win2	0.5846	n/a	No	3.12	n/a	5.0	NoResponse	0	0.018	609.946	6	64	Feedback	MissedWin	True
612.377	3.12	Win2	0.5846	n/a	No	3.12	n/a	n/a	NoResponse	0	0.0	n/a	6	64	ISIslide	MissedWin	True
615.526	0.25	Control	0.5758	0.0	No	2.774	0.026	n/a	NoResponse	0	n/a	n/a	6	65	Cue	Neutral	True
615.776	4.0	Control	0.5758	0.0	No	2.774	0.0	4.0	NoResponse	0	3.559	618.335	6	65	Fixation	Neutral	True
619.335	0.3	Control	0.5758	0.0	No	2.774	0.0	4.0	NoResponse	0	3.559	n/a	6	65	ButtonPress	Neutral	True
619.775	0.27	Control	0.5758	0.001	No	2.774	-0.001	n/a	NoResponse	0	n/a	n/a	6	65	Target	Neutral	True
620.058	0.43	Control	0.5758	n/a	No	2.774	n/a	n/a	NoResponse	0	n/a	n/a	6	65	Blank	Neutral	True
620.475	1.45	Control	0.5758	n/a	No	2.774	n/a	5.0	NoResponse	0	0.032	619.507	6	65	Feedback	Neutral	True
621.924	2.774	Control	0.5758	n/a	No	2.774	n/a	n/a	NoResponse	0	0.0	n/a	6	65	ISIslide	Neutral	True
624.723	0.25	Win2	0.5821000000000001	0.0	Yes	2.777	0.023	n/a	GoodResponse	1	n/a	n/a	7	66	Cue	Win	False
624.973	3.9	Win2	0.5821000000000001	0.0	Yes	2.777	0.0	4.0	GoodResponse	1	3.524	627.497	7	66	Fixation	Win	False
628.497	0.3	Win2	0.5821000000000001	0.0	Yes	2.777	0.0	4.0	GoodResponse	1	3.524	n/a	7	66	ButtonPress	Win	False
628.872	0.28	Win2	0.5821000000000001	0.001	Yes	2.777	-0.001	4.0	GoodResponse	1	0.126	627.998	7	66	Target	Win	False
628.998	0.3	Win2	0.5821000000000001	0.001	Yes	2.777	-0.001	4.0	GoodResponse	1	0.126	n/a	7	66	ButtonPress	Win	False
629.155	0.42	Win2	0.5821000000000001	n/a	Yes	2.777	n/a	n/a	GoodResponse	1	n/a	n/a	7	66	Blank	Win	False
629.571	1.45	Win2	0.5821000000000001	n/a	Yes	2.777	n/a	5.0	GoodResponse	1	0.01	628.581	7	66	Feedback	Win	False
631.021	2.777	Win2	0.5821000000000001	n/a	Yes	2.777	n/a	n/a	GoodResponse	1	0.0	n/a	7	66	ISIslide	Win	False
633.82	0.25	Control	0.5882000000000001	0.0	Yes	2.73	0.02	n/a	GoodResponse	0	n/a	n/a	7	67	Cue	Neutral	True
634.07	3.95	Control	0.5882000000000001	0.0	Yes	2.73	0.0	n/a	GoodResponse	0	n/a	n/a	7	67	Fixation	Neutral	True
638.018	0.29	Control	0.5882000000000001	0.002	Yes	2.73	-0.002	4.0	GoodResponse	0	0.225	637.243	7	67	Target	Neutral	True
638.243	0.3	Control	0.5882000000000001	0.002	Yes	2.73	-0.002	4.0	GoodResponse	0	0.225	n/a	7	67	ButtonPress	Neutral	True
638.318	0.41	Control	0.5882000000000001	n/a	Yes	2.73	n/a	n/a	GoodResponse	0	n/a	n/a	7	67	Blank	Neutral	True
638.718	1.45	Control	0.5882000000000001	n/a	Yes	2.73	n/a	5.0	GoodResponse	0	0.033	637.751	7	67	Feedback	Neutral	True
640.168	2.73	Control	0.5882000000000001	n/a	Yes	2.73	n/a	n/a	GoodResponse	0	0.0	n/a	7	67	ISIslide	Neutral	True
642.917	0.25	Win2	0.5797	0.0	No	3.083	0.017	n/a	NoResponse	0	n/a	n/a	7	68	Cue	MissedWin	True
643.167	4.0	Win2	0.5797	0.0	No	3.083	0.0	n/a	NoResponse	0	n/a	n/a	7	68	Fixation	MissedWin	True
647.165	0.3	Win2	0.5797	0.002	No	3.083	-0.002	4.0	NoResponse	0	0.312	646.477	7	68	Target	MissedWin	True
647.465	0.4	Win2	0.5797	n/a	No	3.083	n/a	n/a	NoResponse	0	n/a	n/a	7	68	Blank	MissedWin	True
647.477	0.3	Win2	0.5797	0.002	No	3.083	-0.002	4.0	NoResponse	0	0.312	n/a	7	68	ButtonPress	MissedWin	True
647.865	1.45	Win2	0.5797	n/a	No	3.083	n/a	5.0	NoResponse	0	0.009	646.874	7	68	Feedback	MissedWin	True
649.314	3.083	Win2	0.5797	n/a	No	3.083	n/a	n/a	NoResponse	0	0.0	n/a	7	68	ISIslide	MissedWin	True
652.413	0.25	Win2	0.5714	0.0	No	3.237	0.013	n/a	NoResponse	0	n/a	n/a	7	69	Cue	MissedWin	True
652.663	3.95	Win2	0.5714	0.0	No	3.237	0.0	n/a	NoResponse	0	n/a	n/a	7	69	Fixation	MissedWin	True
656.612	0.31	Win2	0.5714	0.001	No	3.237	-0.001	4.0	NoResponse	0	0.413	656.025	7	69	Target	MissedWin	True
656.928	0.39	Win2	0.5714	n/a	No	3.237	n/a	n/a	NoResponse	0	n/a	n/a	7	69	Blank	MissedWin	True
657.025	0.3	Win2	0.5714	0.001	No	3.237	-0.001	4.0	NoResponse	0	0.413	n/a	7	69	ButtonPress	MissedWin	True
657.312	1.45	Win2	0.5714	n/a	No	3.237	n/a	5.0	NoResponse	0	0.024	656.336	7	69	Feedback	MissedWin	True
658.761	3.237	Win2	0.5714	n/a	No	3.237	n/a	n/a	NoResponse	0	0.0	n/a	7	69	ISIslide	MissedWin	True
662.027	0.25	Lose2	0.5634	0.0	No	3.023	0.027	n/a	NoResponse	-1	n/a	n/a	6	70	Cue	Loss	True
662.276	4.05	Lose2	0.5634	0.001	No	3.023	-0.001	4.0	NoResponse	-1	3.874	665.15	6	70	Fixation	Loss	True
666.15	0.3	Lose2	0.5634	0.001	No	3.023	-0.001	4.0	NoResponse	-1	3.874	n/a	6	70	ButtonPress	Loss	True
666.325	0.32	Lose2	0.5634	0.002	No	3.023	-0.002	n/a	NoResponse	-1	n/a	n/a	6	70	Target	Loss	True
666.658	0.38	Lose2	0.5634	n/a	No	3.023	n/a	n/a	NoResponse	-1	n/a	n/a	6	70	Blank	Loss	True
667.025	1.45	Lose2	0.5634	n/a	No	3.023	n/a	5.0	NoResponse	-1	0.019	666.044	6	70	Feedback	Loss	True
668.474	3.023	Lose2	0.5634	n/a	No	3.023	n/a	n/a	NoResponse	-1	0.0	n/a	6	70	ISIslide	Loss	True
671.523	0.25	Win2	0.5694	0.0	Yes	2.727	0.023	n/a	GoodResponse	1	n/a	n/a	7	71	Cue	Win	True
671.773	4.05	Win2	0.5694	0.0	Yes	2.727	0.0	n/a	GoodResponse	1	n/a	n/a	7	71	Fixation	Win	True
675.822	0.33	Win2	0.5694	0.001	Yes	2.727	-0.001	4.0	GoodResponse	1	0.255	675.077	7	71	Target	Win	True
676.077	0.3	Win2	0.5694	0.001	Yes	2.727	-0.001	4.0	GoodResponse	1	0.255	n/a	7	71	ButtonPress	Win	True
676.155	0.37	Win2	0.5694	n/a	Yes	2.727	n/a	n/a	GoodResponse	1	n/a	n/a	7	71	Blank	Win	True
676.521	1.45	Win2	0.5694	n/a	Yes	2.727	n/a	5.0	GoodResponse	1	0.035	675.556	7	71	Feedback	Win	True
677.971	2.727	Win2	0.5694	n/a	Yes	2.727	n/a	n/a	GoodResponse	1	0.0	n/a	7	71	ISIslide	Win	True
680.72	0.25	Win2	0.5753	0.0	Yes	2.78	0.02	n/a	GoodResponse	1	n/a	n/a	8	72	Cue	Win	True
680.97	4.1	Win2	0.5753	0.0	Yes	2.78	0.0	n/a	GoodResponse	1	n/a	n/a	8	72	Fixation	Win	True
685.068	0.34	Win2	0.5753	0.002	Yes	2.78	-0.002	4.0	GoodResponse	1	0.209	684.277	8	72	Target	Win	True
685.277	0.3	Win2	0.5753	0.002	Yes	2.78	-0.002	4.0	GoodResponse	1	0.209	n/a	8	72	ButtonPress	Win	True
685.418	0.36	Win2	0.5753	n/a	Yes	2.78	n/a	n/a	GoodResponse	1	n/a	n/a	8	72	Blank	Win	True
685.768	1.45	Win2	0.5753	n/a	Yes	2.78	n/a	5.0	GoodResponse	1	0.008	684.776	8	72	Feedback	Win	True
687.218	2.78	Win2	0.5753	n/a	Yes	2.78	n/a	n/a	GoodResponse	1	0.0	n/a	8	72	ISIslide	Win	True
690.017	0.25	Win2	0.5676	0.0	No	2.683	0.017	n/a	NoResponse	0	n/a	n/a	8	73	Cue	MissedWin	False
690.267	4.0	Win2	0.5676	0.0	No	2.683	0.0	n/a	NoResponse	0	n/a	n/a	8	73	Fixation	MissedWin	False
694.265	0.35	Win2	0.5676	0.002	No	2.683	-0.002	n/a	NoResponse	0	n/a	n/a	8	73	Target	MissedWin	False
694.615	0.35	Win2	0.5676	n/a	No	2.683	n/a	n/a	NoResponse	0	n/a	n/a	8	73	Blank	MissedWin	False
694.965	1.45	Win2	0.5676	n/a	No	2.683	n/a	5.0	NoResponse	0	0.03	693.995	8	73	Feedback	MissedWin	False
696.414	2.683	Win2	0.5676	n/a	No	2.683	n/a	n/a	NoResponse	0	0.0	n/a	8	73	ISIslide	MissedWin	False
699.113	0.25	Lose2	0.5733	0.001	Yes	2.637	0.013	n/a	GoodResponse	0	n/a	n/a	8	74	Cue	AvoidedLoss	True
699.363	4.05	Lose2	0.5733	0.0	Yes	2.637	0.0	n/a	GoodResponse	0	n/a	n/a	8	74	Fixation	AvoidedLoss	True
703.412	0.36	Lose2	0.5733	0.001	Yes	2.637	-0.001	4.0	GoodResponse	0	0.218	702.63	8	74	Target	AvoidedLoss	True
703.63	0.3	Lose2	0.5733	0.001	Yes	2.637	-0.001	4.0	GoodResponse	0	0.218	n/a	8	74	ButtonPress	AvoidedLoss	True
703.778	0.34	Lose2	0.5733	n/a	Yes	2.637	n/a	n/a	GoodResponse	0	n/a	n/a	8	74	Blank	AvoidedLoss	True
704.112	1.45	Lose2	0.5733	n/a	Yes	2.637	n/a	5.0	GoodResponse	0	0.005	703.117	8	74	Feedback	AvoidedLoss	True
705.561	2.637	Lose2	0.5733	n/a	Yes	2.637	n/a	n/a	GoodResponse	0	0.0	n/a	8	74	ISIslide	AvoidedLoss	True
708.227	0.25	Lose2	0.5658	0.0	No	2.923	0.027	n/a	NoResponse	-1	n/a	n/a	7	75	Cue	Loss	False
708.477	3.95	Lose2	0.5658	0.0	No	2.923	0.0	n/a	NoResponse	-1	n/a	n/a	7	75	Fixation	Loss	False
712.425	0.37	Lose2	0.5658	0.002	No	2.923	-0.002	n/a	NoResponse	-1	n/a	n/a	7	75	Target	Loss	False
712.809	0.33	Lose2	0.5658	n/a	No	2.923	n/a	n/a	NoResponse	-1	n/a	n/a	7	75	Blank	Loss	False
713.125	1.45	Lose2	0.5658	n/a	No	2.923	n/a	5.0	NoResponse	-1	0.016	712.141	7	75	Feedback	Loss	False
714.575	2.923	Lose2	0.5658	n/a	No	2.923	n/a	n/a	NoResponse	-1	0.0	n/a	7	75	ISIslide	Loss	False
717.524	0.25	Control	0.5714	0.0	Yes	3.226	0.024	n/a	GoodResponse	0	n/a	n/a	7	76	Cue	Neutral	False
717.774	4.05	Control	0.5714	0.0	Yes	3.226	0.0	4.0	GoodResponse	0	3.863	720.637	7	76	Fixation	Neutral	False
721.637	0.3	Control	0.5714	0.0	Yes	3.226	0.0	4.0	GoodResponse	0	3.863	n/a	7	76	ButtonPress	Neutral	False
721.822	0.38	Control	0.5714	0.002	Yes	3.226	-0.002	4.0	GoodResponse	0	0.196	721.018	7	76	Target	Neutral	False
722.018	0.3	Control	0.5714	0.002	Yes	3.226	-0.002	4.0	GoodResponse	0	0.196	n/a	7	76	ButtonPress	Neutral	False
722.205	0.32	Control	0.5714	n/a	Yes	3.226	n/a	n/a	GoodResponse	0	n/a	n/a	7	76	Blank	Neutral	False
722.522	1.45	Control	0.5714	n/a	Yes	3.226	n/a	5.0	GoodResponse	0	0.033	721.555	7	76	Feedback	Neutral	False
723.971	3.226	Control	0.5714	n/a	Yes	3.226	n/a	n/a	GoodResponse	0	0.0	n/a	7	76	ISIslide	Neutral	False
727.22	0.25	Lose2	0.5769	0.0	Yes	2.58	0.02	n/a	GoodResponse	0	n/a	n/a	7	77	Cue	AvoidedLoss	True
727.47	3.95	Lose2	0.5769	0.0	Yes	2.58	0.0	n/a	GoodResponse	0	n/a	n/a	7	77	Fixation	AvoidedLoss	True
731.419	0.39	Lose2	0.5769	0.001	Yes	2.58	-0.001	4.0	GoodResponse	0	0.229	730.648	7	77	Target	AvoidedLoss	True
731.648	0.3	Lose2	0.5769	0.001	Yes	2.58	-0.001	4.0	GoodResponse	0	0.229	n/a	7	77	ButtonPress	AvoidedLoss	True
731.819	0.31	Lose2	0.5769	n/a	Yes	2.58	n/a	n/a	GoodResponse	0	n/a	n/a	7	77	Blank	AvoidedLoss	True
732.119	1.45	Lose2	0.5769	n/a	Yes	2.58	n/a	5.0	GoodResponse	0	0.046	731.165	7	77	Feedback	AvoidedLoss	True
733.568	2.58	Lose2	0.5769	n/a	Yes	2.58	n/a	n/a	GoodResponse	0	0.0	n/a	7	77	ISIslide	AvoidedLoss	True
