onset	duration	cue_type	current_mean_accuracy	duration_error	is_hit	isi_adjusted	onset_delay	response	response_type	reward	rt	rt_time	total_reward	trial_number	trial_phase	trial_type	one_press
11.111	0.25	Control	1.0	0.0	Yes	2.939	0.011	n/a	GoodResponse	0	n/a	n/a	0	0	Cue	Neutral	True
11.362	3.85	Control	1.0	0.0	Yes	2.939	0.001	n/a	GoodResponse	0	n/a	n/a	0	0	Fixation	Neutral	True
15.207	0.4	Control	1.0	0.004	Yes	2.939	-0.004	4.0	GoodResponse	0	0.236	14.443	0	0	Target	Neutral	True
15.443	0.3	Control	1.0	0.004	Yes	2.939	-0.004	4.0	GoodResponse	0	0.236	n/a	0	0	ButtonPress	Neutral	True
15.608	0.3	Control	1.0	n/a	Yes	2.939	n/a	n/a	GoodResponse	0	n/a	n/a	0	0	Blank	Neutral	True
15.909	1.45	Control	1.0	n/a	Yes	2.939	n/a	5.0	GoodResponse	0	0.018	14.927	0	0	Feedback	Neutral	True
17.363	2.939	Control	1.0	n/a	Yes	2.939	n/a	n/a	GoodResponse	0	0.0	n/a	0	0	ISIslide	Neutral	True
20.322	0.25	Lose2	1.0	0.0	Yes	2.778	0.022	n/a	GoodResponse	0	n/a	n/a	0	1	Cue	AvoidedLoss	True
20.573	4.0	Lose2	1.0	0.0	Yes	2.778	0.001	n/a	GoodResponse	0	n/a	n/a	0	1	Fixation	AvoidedLoss	True
24.568	0.39	Lose2	1.0	0.004	Yes	2.778	-0.004	4.0	GoodResponse	0	0.255	23.823	0	1	Target	AvoidedLoss	True
24.823	0.3	Lose2	1.0	0.004	Yes	2.778	-0.004	4.0	GoodResponse	0	0.255	n/a	0	1	ButtonPress	AvoidedLoss	True
24.969	0.31	Lose2	1.0	n/a	Yes	2.778	n/a	n/a	GoodResponse	0	n/a	n/a	0	1	Blank	AvoidedLoss	True
25.27	1.45	Lose2	1.0	n/a	Yes	2.778	n/a	5.0	GoodResponse	0	0.023	24.293	0	1	Feedback	AvoidedLoss	True
26.725	2.778	Lose2	1.0	n/a	Yes	2.778	n/a	n/a	GoodResponse	0	0.0	n/a	0	1	ISIslide	AvoidedLoss	True
29.516	0.25	Control	1.0	0.0	Yes	2.584	0.016	n/a	GoodResponse	0	n/a	n/a	0	2	Cue	Neutral	True
29.767	4.1	Control	1.0	0.0	Yes	2.584	0.001	n/a	GoodResponse	0	n/a	n/a	0	2	Fixation	Neutral	True
33.863	0.38	Control	1.0	0.003	Yes	2.584	-0.003	4.0	GoodResponse	0	0.268	33.131	0	2	Target	Neutral	True
34.131	0.3	Control	1.0	0.003	Yes	2.584	-0.003	4.0	GoodResponse	0	0.268	n/a	0	2	ButtonPress	Neutral	True
34.247	0.32	Control	1.0	n/a	Yes	2.584	n/a	n/a	GoodResponse	0	n/a	n/a	0	2	Blank	Neutral	True
34.565	1.45	Control	1.0	n/a	Yes	2.584	n/a	5.0	GoodResponse	0	0.045	33.61	0	2	Feedback	Neutral	True
36.019	2.584	Control	1.0	n/a	Yes	2.584	n/a	n/a	GoodResponse	0	0.0	n/a	0	2	ISIslide	Neutral	True
38.627	0.25	Win2	1.0	0.0	Yes	2.823	0.027	n/a	GoodResponse	1	n/a	n/a	1	3	Cue	Win	True
38.878	3.95	Win2	1.0	0.0	Yes	2.823	0.001	n/a	GoodResponse	1	n/a	n/a	1	3	Fixation	Win	True
42.823	0.37	Win2	1.0	0.004	Yes	2.823	-0.004	4.0	GoodResponse	1	0.249	42.072	1	3	Target	Win	True
43.072	0.3	Win2	1.0	0.004	Yes	2.823	-0.004	4.0	GoodResponse	1	0.249	n/a	1	3	ButtonPress	Win	True
43.207	0.33	Win2	1.0	n/a	Yes	2.823	n/a	n/a	GoodResponse	1	n/a	n/a	1	3	Blank	Win	True
43.525	1.45	Win2	1.0	n/a	Yes	2.823	n/a	5.0	GoodResponse	1	0.011	42.536	1	3	Feedback	Win	True
44.979	2.823	Win2	1.0	n/a	Yes	2.823	n/a	n/a	GoodResponse	1	0.0	n/a	1	3	ISIslide	Win	True
47.821	0.25	Win2	1.0	0.0	Yes	3.279	0.021	n/a	GoodResponse	1	n/a	n/a	2	4	Cue	Win	True
48.072	4.0	Win2	1.0	0.0	Yes	3.279	0.001	n/a	GoodResponse	1	n/a	n/a	2	4	Fixation	Win	True
52.067	0.36	Win2	1.0	0.004	Yes	3.279	-0.004	4.0	GoodResponse	1	0.237	51.304	2	4	Target	Win	True
52.304	0.3	Win2	1.0	0.004	Yes	3.279	-0.004	4.0	GoodResponse	1	0.237	n/a	2	4	ButtonPress	Win	True
52.435	0.34	Win2	1.0	n/a	Yes	3.279	n/a	n/a	GoodResponse	1	n/a	n/a	2	4	Blank	Win	True
52.769	1.45	Win2	1.0	n/a	Yes	3.279	n/a	5.0	GoodResponse	1	0.035	51.804	2	4	Feedback	Win	True
54.223	3.279	Win2	1.0	n/a	Yes	3.279	n/a	n/a	GoodResponse	1	0.0	n/a	2	4	ISIslide	Win	True
57.517	0.25	Win2	1.0	0.0	Yes	2.783	0.017	n/a	GoodResponse	1	n/a	n/a	3	5	Cue	Win	True
57.767	4.0	Win2	1.0	0.0	Yes	2.783	0.0	n/a	GoodResponse	1	n/a	n/a	3	5	Fixation	Win	True
61.763	0.35	Win2	1.0	0.004	Yes	2.783	-0.004	4.0	GoodResponse	1	0.216	60.979	3	5	Target	Win	True
61.979	0.3	Win2	1.0	0.004	Yes	2.783	-0.004	4.0	GoodResponse	1	0.216	n/a	3	5	ButtonPress	Win	True
62.114	0.35	Win2	1.0	n/a	Yes	2.783	n/a	n/a	GoodResponse	1	n/a	n/a	3	5	Blank	Win	True
62.465	1.45	Win2	1.0	n/a	Yes	2.783	n/a	5.0	GoodResponse	1	0.047	61.512	3	5	Feedback	Win	True
63.919	2.783	Win2	1.0	n/a	Yes	2.783	n/a	n/a	GoodResponse	1	0.0	n/a	3	5	ISIslide	Win	True
66.727	0.25	Lose2	1.0	0.001	Yes	2.723	0.027	n/a	GoodResponse	0	n/a	n/a	3	6	Cue	AvoidedLoss	True
66.978	3.95	Lose2	1.0	0.0	Yes	2.723	0.001	n/a	GoodResponse	0	n/a	n/a	3	6	Fixation	AvoidedLoss	True
70.923	0.34	Lose2	1.0	0.004	Yes	2.723	-0.004	4.0	GoodResponse	0	0.244	70.167	3	6	Target	AvoidedLoss	True
71.167	0.3	Lose2	1.0	0.004	Yes	2.723	-0.004	4.0	GoodResponse	0	0.244	n/a	3	6	ButtonPress	AvoidedLoss	True
71.274	0.36	Lose2	1.0	n/a	Yes	2.723	n/a	n/a	GoodResponse	0	n/a	n/a	3	6	Blank	AvoidedLoss	True
71.625	1.45	Lose2	1.0	n/a	Yes	2.723	n/a	5.0	GoodResponse	0	0.009	70.634	3	6	Feedback	AvoidedLoss	True
73.08	2.723	Lose2	1.0	n/a	Yes	2.723	n/a	n/a	GoodResponse	0	0.0	n/a	3	6	ISIslide	AvoidedLoss	True
75.821	0.25	Lose2	1.0	0.0	Yes	4.029	0.021	n/a	GoodResponse	0	n/a	n/a	3	7	Cue	AvoidedLoss	True
76.072	4.05	Lose2	1.0	0.0	Yes	4.029	0.001	n/a	GoodResponse	0	n/a	n/a	3	7	Fixation	AvoidedLoss	True
80.117	0.33	Lose2	1.0	0.004	Yes	4.029	-0.004	4.0	GoodResponse	0	0.224	79.341	3	7	Target	AvoidedLoss	True
80.341	0.3	Lose2	1.0	0.004	Yes	4.029	-0.004	4.0	GoodResponse	0	0.224	n/a	3	7	ButtonPress	AvoidedLoss	True
80.452	0.37	Lose2	1.0	n/a	Yes	4.029	n/a	n/a	GoodResponse	0	n/a	n/a	3	7	Blank	AvoidedLoss	True
80.82	1.45	Lose2	1.0	n/a	Yes	4.029	n/a	5.0	GoodResponse	0	0.033	79.853	3	7	Feedback	AvoidedLoss	True
82.274	4.029	Lose2	1.0	n/a	Yes	4.029	n/a	n/a	GoodResponse	0	0.0	n/a	3	7	ISIslide	AvoidedLoss	True
86.319	0.25	Lose2	1.0	0.0	Yes	3.031	0.019	n/a	GoodResponse	0	n/a	n/a	3	8	Cue	AvoidedLoss	True
86.57	3.95	Lose2	1.0	0.0	Yes	3.031	0.001	n/a	GoodResponse	0	n/a	n/a	3	8	Fixation	AvoidedLoss	True
90.515	0.32	Lose2	1.0	0.004	Yes	3.031	-0.004	4.0	GoodResponse	0	0.231	89.746	3	8	Target	AvoidedLoss	True
90.746	0.3	Lose2	1.0	0.004	Yes	3.031	-0.004	4.0	GoodResponse	0	0.231	n/a	3	8	ButtonPress	AvoidedLoss	True
90.85	0.38	Lose2	1.0	n/a	Yes	3.031	n/a	n/a	GoodResponse	0	n/a	n/a	3	8	Blank	AvoidedLoss	True
91.217	1.45	Lose2	1.0	n/a	Yes	3.031	n/a	5.0	GoodResponse	0	0.026	90.243	3	8	Feedback	AvoidedLoss	True
92.672	3.031	Lose2	1.0	n/a	Yes	3.031	n/a	n/a	GoodResponse	0	0.0	n/a	3	8	ISIslide	AvoidedLoss	True
95.731	0.25	Lose2	1.0	0.0	Yes	3.119	0.031	n/a	GoodResponse	0	n/a	n/a	3	9	Cue	AvoidedLoss	True
95.982	3.95	Lose2	1.0	0.0	Yes	3.119	0.001	n/a	GoodResponse	0	n/a	n/a	3	9	Fixation	AvoidedLoss	True
99.927	0.31	Lose2	1.0	0.004	Yes	3.119	-0.004	4.0	GoodResponse	0	0.252	99.179	3	9	Target	AvoidedLoss	True
100.179	0.3	Lose2	1.0	0.004	Yes	3.119	-0.004	4.0	GoodResponse	0	0.252	n/a	3	9	ButtonPress	AvoidedLoss	True
100.244	0.39	Lose2	1.0	n/a	Yes	3.119	n/a	n/a	GoodResponse	0	n/a	n/a	3	9	Blank	AvoidedLoss	True
100.629	1.45	Lose2	1.0	n/a	Yes	3.119	n/a	5.0	GoodResponse	0	0.028	99.657	3	9	Feedback	AvoidedLoss	True
102.083	3.119	Lose2	1.0	n/a	Yes	3.119	n/a	n/a	GoodResponse	0	0.0	n/a	3	9	ISIslide	AvoidedLoss	True
105.226	0.25	Control	1.0	0.0	Yes	3.274	0.026	n/a	GoodResponse	0	n/a	n/a	3	10	Cue	Neutral	True
105.477	4.0	Control	1.0	0.0	Yes	3.274	0.001	n/a	GoodResponse	0	n/a	n/a	3	10	Fixation	Neutral	True
109.472	0.3	Control	1.0	0.004	Yes	3.274	-0.004	4.0	GoodResponse	0	0.258	108.73	3	10	Target	Neutral	True
109.73	0.3	Control	1.0	0.004	Yes	3.274	-0.004	4.0	GoodResponse	0	0.258	n/a	3	10	ButtonPress	Neutral	True
109.773	0.4	Control	1.0	n/a	Yes	3.274	n/a	n/a	GoodResponse	0	n/a	n/a	3	10	Blank	Neutral	True
110.174	1.45	Control	1.0	n/a	Yes	3.274	n/a	5.0	GoodResponse	0	0.044	109.218	3	10	Feedback	Neutral	True
111.628	3.274	Control	1.0	n/a	Yes	3.274	n/a	n/a	GoodResponse	0	0.0	n/a	3	10	ISIslide	Neutral	True
114.922	0.25	Lose2	1.0	0.0	Yes	2.728	0.022	n/a	GoodResponse	0	n/a	n/a	3	11	Cue	AvoidedLoss	True
115.172	4.05	Lose2	1.0	0.0	Yes	2.728	0.0	n/a	GoodResponse	0	n/a	n/a	3	11	Fixation	AvoidedLoss	True
119.218	0.29	Lose2	1.0	0.004	Yes	2.728	-0.004	4.0	GoodResponse	0	0.24	118.458	3	11	Target	AvoidedLoss	True
119.458	0.3	Lose2	1.0	0.004	Yes	2.728	-0.004	4.0	GoodResponse	0	0.24	n/a	3	11	ButtonPress	AvoidedLoss	True
119.519	0.41	Lose2	1.0	n/a	Yes	2.728	n/a	n/a	GoodResponse	0	n/a	n/a	3	11	Blank	AvoidedLoss	True
119.92	1.45	Lose2	1.0	n/a	Yes	2.728	n/a	5.0	GoodResponse	0	0.007	118.927	3	11	Feedback	AvoidedLoss	True
121.374	2.728	Lose2	1.0	n/a	Yes	2.728	n/a	n/a	GoodResponse	0	0.0	n/a	3	11	ISIslide	AvoidedLoss	True
124.116	0.25	Control	0.9231	0.0	No	2.984	0.016	n/a	NoResponse	0	n/a	n/a	3	12	Cue	Neutral	True
124.366	3.9	Control	0.9231	0.001	No	2.984	0.0	n/a	NoResponse	0	n/a	n/a	3	12	Fixation	Neutral	True
128.278	0.28	Control	0.9231	0.0	No	2.984	0.012	4.0	NoResponse	0	0.42	127.698	3	12	Target	Neutral	True
128.546	0.42	Control	0.9231	n/a	No	2.984	n/a	n/a	NoResponse	0	n/a	n/a	3	12	Blank	Neutral	True
128.698	0.3	Control	0.9231	0.0	No	2.984	0.012	4.0	NoResponse	0	0.42	n/a	3	12	ButtonPress	Neutral	True
128.964	1.45	Control	0.9231	n/a	No	2.984	n/a	5.0	NoResponse	0	0.034	127.998	3	12	Feedback	Neutral	True
130.418	2.984	Control	0.9231	n/a	No	2.984	n/a	n/a	NoResponse	0	0.0	n/a	3	12	ISIslide	Neutral	True
133.427	0.25	Control	0.9286	0.0	Yes	2.773	0.027	n/a	GoodResponse	0	n/a	n/a	3	13	Cue	Neutral	True
133.678	4.0	Control	0.9286	0.0	Yes	2.773	0.001	n/a	GoodResponse	0	n/a	n/a	3	13	Fixation	Neutral	True
137.673	0.27	Control	0.9286	0.004	Yes	2.773	-0.004	4.0	GoodResponse	0	0.2	136.873	3	13	Target	Neutral	True
137.873	0.3	Control	0.9286	0.004	Yes	2.773	-0.004	4.0	GoodResponse	0	0.2	n/a	3	13	ButtonPress	Neutral	True
137.957	0.43	Control	0.9286	n/a	Yes	2.773	n/a	n/a	GoodResponse	0	n/a	n/a	3	13	Blank	Neutral	True
138.375	1.45	Control	0.9286	n/a	Yes	2.773	n/a	5.0	GoodResponse	0	0.038	137.413	3	13	Feedback	Neutral	True
139.829	2.773	Control	0.9286	n/a	Yes	2.773	n/a	n/a	GoodResponse	0	0.0	n/a	3	13	ISIslide	Neutral	True
142.621	0.25	Win2	0.8667	0.0	No	2.679	0.021	n/a	NoResponse	0	n/a	n/a	3	14	Cue	MissedWin	True
142.872	4.1	Win2	0.8667	0.0	No	2.679	0.001	n/a	NoResponse	0	n/a	n/a	3	14	Fixation	MissedWin	True
146.967	0.26	Win2	0.8667	0.004	No	2.679	-0.004	4.0	NoResponse	0	0.299	146.266	3	14	Target	MissedWin	True
147.235	0.44	Win2	0.8667	n/a	No	2.679	n/a	n/a	NoResponse	0	n/a	n/a	3	14	Blank	MissedWin	True
147.266	0.3	Win2	0.8667	0.004	No	2.679	-0.004	4.0	NoResponse	0	0.299	n/a	3	14	ButtonPress	MissedWin	True
147.669	1.45	Win2	0.8667	n/a	No	2.679	n/a	5.0	NoResponse	0	0.012	146.681	3	14	Feedback	MissedWin	True
149.124	2.679	Win2	0.8667	n/a	No	2.679	n/a	n/a	NoResponse	0	0.0	n/a	3	14	ISIslide	MissedWin	True
151.815	0.25	Control	0.875	0.0	Yes	2.985	0.015	n/a	GoodResponse	0	n/a	n/a	3	15	Cue	Neutral	True
152.066	4.0	Control	0.875	0.0	Yes	2.985	0.001	n/a	GoodResponse	0	n/a	n/a	3	15	Fixation	Neutral	True
156.061	0.25	Control	0.875	0.004	Yes	2.985	-0.004	4.0	GoodResponse	0	0.23	155.291	3	15	Target	Neutral	True
156.291	0.3	Control	0.875	0.004	Yes	2.985	-0.004	4.0	GoodResponse	0	0.23	n/a	3	15	ButtonPress	Neutral	True
156.312	0.45	Control	0.875	n/a	Yes	2.985	n/a	n/a	GoodResponse	0	n/a	n/a	3	15	Blank	Neutral	True
156.763	1.45	Control	0.875	n/a	Yes	2.985	n/a	5.0	GoodResponse	0	0.04	155.803	3	15	Feedback	Neutral	True
158.218	2.985	Control	0.875	n/a	Yes	2.985	n/a	n/a	GoodResponse	0	0.0	n/a	3	15	ISIslide	Neutral	True
161.227	0.25	Win2	0.8824	0.0	Yes	2.873	0.027	n/a	GoodResponse	1	n/a	n/a	4	16	Cue	Win	True
161.477	4.0	Win2	0.8824	0.0	Yes	2.873	0.0	n/a	GoodResponse	1	n/a	n/a	4	16	Fixation	Win	True
165.473	0.24	Win2	0.8824	0.004	Yes	2.873	-0.004	4.0	GoodResponse	1	0.214	164.687	4	16	Target	Win	True
165.687	0.3	Win2	0.8824	0.004	Yes	2.873	-0.004	4.0	GoodResponse	1	0.214	n/a	4	16	ButtonPress	Win	True
165.723	0.46	Win2	0.8824	n/a	Yes	2.873	n/a	n/a	GoodResponse	1	n/a	n/a	4	16	Blank	Win	True
166.175	1.45	Win2	0.8824	n/a	Yes	2.873	n/a	5.0	GoodResponse	1	0.043	165.218	4	16	Feedback	Win	True
167.629	2.873	Win2	0.8824	n/a	Yes	2.873	n/a	n/a	GoodResponse	1	0.0	n/a	4	16	ISIslide	Win	True
170.521	0.25	Lose2	0.8332999999999999	0.0	No	2.729	0.021	n/a	NoResponse	-1	n/a	n/a	3	17	Cue	Loss	True
170.772	3.95	Lose2	0.8332999999999999	0.0	No	2.729	0.001	n/a	NoResponse	-1	n/a	n/a	3	17	Fixation	Loss	True
174.717	0.23	Lose2	0.8332999999999999	0.004	No	2.729	-0.004	4.0	NoResponse	-1	0.242	173.959	3	17	Target	Loss	True
174.951	0.47	Lose2	0.8332999999999999	n/a	No	2.729	n/a	n/a	NoResponse	-1	n/a	n/a	3	17	Blank	Loss	True
174.959	0.3	Lose2	0.8332999999999999	0.004	No	2.729	-0.004	4.0	NoResponse	-1	0.242	n/a	3	17	ButtonPress	Loss	True
175.419	1.45	Lose2	0.8332999999999999	n/a	No	2.729	n/a	5.0	NoResponse	-1	0.018	174.437	3	17	Feedback	Loss	True
176.873	2.729	Lose2	0.8332999999999999	n/a	No	2.729	n/a	n/a	NoResponse	-1	0.0	n/a	3	17	ISIslide	Loss	True
179.615	0.25	Lose2	0.8421	0.0	Yes	2.735	0.015	n/a	GoodResponse	0	n/a	n/a	3	18	Cue	AvoidedLoss	True
179.866	4.05	Lose2	0.8421	0.0	Yes	2.735	0.001	n/a	GoodResponse	0	n/a	n/a	3	18	Fixation	AvoidedLoss	True
183.911	0.22	Lose2	0.8421	0.004	Yes	2.735	-0.004	4.0	GoodResponse	0	0.214	183.125	3	18	Target	AvoidedLoss	True
184.125	0.3	Lose2	0.8421	0.004	Yes	2.735	-0.004	4.0	GoodResponse	0	0.214	n/a	3	18	ButtonPress	AvoidedLoss	True
184.145	0.48	Lose2	0.8421	n/a	Yes	2.735	n/a	n/a	GoodResponse	0	n/a	n/a	3	18	Blank	AvoidedLoss	True
184.613	1.45	Lose2	0.8421	n/a	Yes	2.735	n/a	5.0	GoodResponse	0	0.043	183.656	3	18	Feedback	AvoidedLoss	True
186.068	2.735	Lose2	0.8421	n/a	Yes	2.735	n/a	n/a	GoodResponse	0	0.0	n/a	3	18	ISIslide	AvoidedLoss	True
188.826	0.25	Control	0.8	0.0	No	2.924	0.026	n/a	NoResponse	0	n/a	n/a	3	19	Cue	Neutral	True
189.077	3.95	Control	0.8	0.0	No	2.924	0.001	n/a	NoResponse	0	n/a	n/a	3	19	Fixation	Neutral	True
193.022	0.21	Control	0.8	0.004	No	2.924	-0.004	4.0	NoResponse	0	0.228	192.25	3	19	Target	Neutral	True
193.239	0.49	Control	0.8	n/a	No	2.924	n/a	n/a	NoResponse	0	n/a	n/a	3	19	Blank	Neutral	True
193.25	0.3	Control	0.8	0.004	No	2.924	-0.004	4.0	NoResponse	0	0.228	n/a	3	19	ButtonPress	Neutral	True
193.724	1.45	Control	0.8	n/a	No	2.924	n/a	5.0	NoResponse	0	0.008	192.732	3	19	Feedback	Neutral	True
195.178	2.924	Control	0.8	n/a	No	2.924	n/a	n/a	NoResponse	0	0.0	n/a	3	19	ISIslide	Neutral	True
198.12	0.25	Control	0.8095	0.0	Yes	2.63	0.02	n/a	GoodResponse	0	n/a	n/a	3	20	Cue	Neutral	True
198.371	4.05	Control	0.8095	0.0	Yes	2.63	0.001	n/a	GoodResponse	0	n/a	n/a	3	20	Fixation	Neutral	True
202.416	0.2	Control	0.8095	0.004	Yes	2.63	-0.004	4.0	GoodResponse	0	0.199	201.615	3	20	Target	Neutral	True
202.615	0.3	Control	0.8095	0.004	Yes	2.63	-0.004	4.0	GoodResponse	0	0.199	n/a	3	20	ButtonPress	Neutral	True
202.617	0.5	Control	0.8095	n/a	Yes	2.63	n/a	n/a	GoodResponse	0	n/a	n/a	3	20	Blank	Neutral	True
203.119	1.45	Control	0.8095	n/a	Yes	2.63	n/a	5.0	GoodResponse	0	0.025	202.144	3	20	Feedback	Neutral	True
204.573	2.63	Control	0.8095	n/a	Yes	2.63	n/a	n/a	GoodResponse	0	0.0	n/a	3	20	ISIslide	Neutral	True
207.214	0.25	Control	0.7726999999999999	0.0	No	2.786	0.014	n/a	NoResponse	0	n/a	n/a	3	21	Cue	Neutral	True
207.465	4.1	Control	0.7726999999999999	0.0	No	2.786	0.001	n/a	NoResponse	0	n/a	n/a	3	21	Fixation	Neutral	True
211.56	0.19	Control	0.7726999999999999	0.004	No	2.786	-0.004	4.0	NoResponse	0	0.216	210.776	3	21	Target	Neutral	True
211.761	0.51	Control	0.7726999999999999	n/a	No	2.786	n/a	n/a	NoResponse	0	n/a	n/a	3	21	Blank	Neutral	True
211.776	0.3	Control	0.7726999999999999	0.004	No	2.786	-0.004	4.0	NoResponse	0	0.216	n/a	3	21	ButtonPress	Neutral	True
212.263	1.45	Control	0.7726999999999999	n/a	No	2.786	n/a	5.0	NoResponse	0	0.007	211.27	3	21	Feedback	Neutral	True
213.717	2.786	Control	0.7726999999999999	n/a	No	2.786	n/a	n/a	NoResponse	0	0.0	n/a	3	21	ISIslide	Neutral	True
216.525	0.25	Control	0.7391	0.0	No	2.775	0.025	n/a	PrematurePress	0	n/a	n/a	3	22	Cue	Neutral	True
216.776	4.0	Control	0.7391	0.0	No	2.775	0.001	n/a	PrematurePress	0	n/a	n/a	3	22	Fixation	Neutral	True
220.771	0.18	Control	0.7391	0.004	No	2.775	-0.004	4.0	PrematurePress	0	0.02	219.791	3	22	Target	Neutral	True
220.791	0.3	Control	0.7391	0.004	No	2.775	-0.004	4.0	PrematurePress	0	0.02	n/a	3	22	ButtonPress	Neutral	True
220.955	0.52	Control	0.7391	n/a	No	2.775	n/a	n/a	PrematurePress	0	n/a	n/a	3	22	Blank	Neutral	True
221.473	1.45	Control	0.7391	n/a	No	2.775	n/a	5.0	PrematurePress	0	0.012	220.485	3	22	Feedback	Neutral	True
222.928	2.775	Control	0.7391	n/a	No	2.775	n/a	n/a	PrematurePress	0	0.0	n/a	3	22	ISIslide	Neutral	True
225.719	0.25	Control	0.7082999999999999	0.001	No	2.781	0.019	n/a	NoResponse	0	n/a	n/a	3	23	Cue	Neutral	True
225.97	3.9	Control	0.7082999999999999	0.0	No	2.781	0.001	n/a	NoResponse	0	n/a	n/a	3	23	Fixation	Neutral	True
229.865	0.17	Control	0.7082999999999999	0.004	No	2.781	-0.004	4.0	NoResponse	0	0.218	229.083	3	23	Target	Neutral	True
230.049	0.53	Control	0.7082999999999999	n/a	No	2.781	n/a	n/a	NoResponse	0	n/a	n/a	3	23	Blank	Neutral	True
230.083	0.3	Control	0.7082999999999999	0.004	No	2.781	-0.004	4.0	NoResponse	0	0.218	n/a	3	23	ButtonPress	Neutral	True
230.567	1.45	Control	0.7082999999999999	n/a	No	2.781	n/a	5.0	NoResponse	0	0.04	229.607	3	23	Feedback	Neutral	True
232.022	2.781	Control	0.7082999999999999	n/a	No	2.781	n/a	n/a	NoResponse	0	0.0	n/a	3	23	ISIslide	Neutral	True
234.83	0.25	Win2	0.68	0.0	No	3.12	0.03	n/a	NoResponse	0	n/a	n/a	3	24	Cue	MissedWin	True
235.081	3.95	Win2	0.68	0.0	No	3.12	0.001	n/a	NoResponse	0	n/a	n/a	3	24	Fixation	MissedWin	True
239.026	0.16	Win2	0.68	0.004	No	3.12	-0.004	4.0	NoResponse	0	0.256	238.282	3	24	Target	MissedWin	True
239.193	0.54	Win2	0.68	n/a	No	3.12	n/a	n/a	NoResponse	0	n/a	n/a	3	24	Blank	MissedWin	True
239.282	0.3	Win2	0.68	0.004	No	3.12	-0.004	4.0	NoResponse	0	0.256	n/a	3	24	ButtonPress	MissedWin	True
239.728	1.45	Win2	0.68	n/a	No	3.12	n/a	5.0	NoResponse	0	0.001	238.729	3	24	Feedback	MissedWin	True
241.182	3.12	Win2	0.68	n/a	No	3.12	n/a	n/a	NoResponse	0	0.0	n/a	3	24	ISIslide	MissedWin	True
244.325	0.25	Win2	0.6537999999999999	0.0	No	3.075	0.025	n/a	NoResponse	0	n/a	n/a	3	25	Cue	MissedWin	True
244.576	4.0	Win2	0.6537999999999999	0.0	No	3.075	0.001	n/a	NoResponse	0	n/a	n/a	3	25	Fixation	MissedWin	True
248.571	0.15	Win2	0.6537999999999999	0.004	No	3.075	-0.004	4.0	NoResponse	0	0.21	247.781	3	25	Target	MissedWin	True
248.722	0.55	Win2	0.6537999999999999	n/a	No	3.075	n/a	n/a	NoResponse	0	n/a	n/a	3	25	Blank	MissedWin	True
248.781	0.3	Win2	0.6537999999999999	0.004	No	3.075	-0.004	4.0	NoResponse	0	0.21	n/a	3	25	ButtonPress	MissedWin	True
249.273	1.45	Win2	0.6537999999999999	n/a	No	3.075	n/a	5.0	NoResponse	0	0.017	248.29	3	25	Feedback	MissedWin	True
250.728	3.075	Win2	0.6537999999999999	n/a	No	3.075	n/a	n/a	NoResponse	0	0.0	n/a	3	25	ISIslide	MissedWin	True
253.82	0.25	Win2	0.6296	0.0	No	2.93	0.02	n/a	NoResponse	0	n/a	n/a	3	26	Cue	MissedWin	True
254.071	3.95	Win2	0.6296	0.0	No	2.93	0.001	n/a	NoResponse	0	n/a	n/a	3	26	Fixation	MissedWin	True
258.016	0.16	Win2	0.6296	0.004	No	2.93	-0.004	4.0	NoResponse	0	0.207	257.223	3	26	Target	MissedWin	True
258.183	0.54	Win2	0.6296	n/a	No	2.93	n/a	n/a	NoResponse	0	n/a	n/a	3	26	Blank	MissedWin	True
258.223	0.3	Win2	0.6296	0.004	No	2.93	-0.004	4.0	NoResponse	0	0.207	n/a	3	26	ButtonPress	MissedWin	True
258.718	1.45	Win2	0.6296	n/a	No	2.93	n/a	5.0	NoResponse	0	0.035	257.753	3	26	Feedback	MissedWin	True
260.173	2.93	Win2	0.6296	n/a	No	2.93	n/a	n/a	NoResponse	0	0.0	n/a	3	26	ISIslide	MissedWin	True
263.131	0.25	Lose2	0.6071	0.0	No	2.819	0.031	n/a	NoResponse	-1	n/a	n/a	2	27	Cue	Loss	True
263.382	4.05	Lose2	0.6071	0.0	No	2.819	0.001	n/a	NoResponse	-1	n/a	n/a	2	27	Fixation	Loss	True
267.428	0.17	Lose2	0.6071	0.003	No	2.819	-0.003	4.0	NoResponse	-1	0.194	266.622	2	27	Target	Loss	True
267.611	0.53	Lose2	0.6071	n/a	No	2.819	n/a	n/a	NoResponse	-1	n/a	n/a	2	27	Blank	Loss	True
267.622	0.3	Lose2	0.6071	0.003	No	2.819	-0.003	4.0	NoResponse	-1	0.194	n/a	2	27	ButtonPress	Loss	True
268.13	1.45	Lose2	0.6071	n/a	No	2.819	n/a	5.0	NoResponse	-1	0.037	267.167	2	27	Feedback	Loss	True
269.584	2.819	Lose2	0.6071	n/a	No	2.819	n/a	n/a	NoResponse	-1	0.0	n/a	2	27	ISIslide	Loss	True
272.426	0.25	Control	0.5861999999999999	0.0	No	2.824	0.026	n/a	NoResponse	0	n/a	n/a	2	28	Cue	Neutral	True
272.677	4.05	Control	0.5861999999999999	0.0	No	2.824	0.001	n/a	NoResponse	0	n/a	n/a	2	28	Fixation	Neutral	True
276.722	0.18	Control	0.5861999999999999	0.004	No	2.824	-0.004	4.0	NoResponse	0	0.23	275.952	2	28	Target	Neutral	True
276.906	0.52	Control	0.5861999999999999	n/a	No	2.824	n/a	n/a	NoResponse	0	n/a	n/a	2	28	Blank	Neutral	True
276.952	0.3	Control	0.5861999999999999	0.004	No	2.824	-0.004	4.0	NoResponse	0	0.23	n/a	2	28	ButtonPress	Neutral	True
277.424	1.45	Control	0.5861999999999999	n/a	No	2.824	n/a	5.0	NoResponse	0	0.012	276.436	2	28	Feedback	Neutral	True
278.878	2.824	Control	0.5861999999999999	n/a	No	2.824	n/a	n/a	NoResponse	0	0.0	n/a	2	28	ISIslide	Neutral	True
281.72	0.25	Lose2	0.5667	0.0	No	2.83	0.02	n/a	NoResponse	-1	n/a	n/a	1	29	Cue	Loss	False
281.971	3.95	Lose2	0.5667	0.0	No	2.83	0.001	2.0	NoResponse	-1	2.908	283.879	1	29	Fixation	Loss	False
284.879	0.3	Lose2	0.5667	0.0	No	2.83	0.001	2.0	NoResponse	-1	2.908	n/a	1	29	ButtonPress	Loss	False
285.916	0.19	Lose2	0.5667	0.004	No	2.83	-0.004	2.0	NoResponse	-1	0.212	285.128	1	29	Target	Loss	False
286.117	0.51	Lose2	0.5667	n/a	No	2.83	n/a	n/a	NoResponse	-1	n/a	n/a	1	29	Blank	Loss	False
286.128	0.3	Lose2	0.5667	0.004	No	2.83	-0.004	2.0	NoResponse	-1	0.212	n/a	1	29	ButtonPress	Loss	False
286.618	1.45	Lose2	0.5667	n/a	No	2.83	n/a	5.0	NoResponse	-1	0.037	285.655	1	29	Feedback	Loss	False
288.073	2.83	Lose2	0.5667	n/a	No	2.83	n/a	n/a	NoResponse	-1	0.0	n/a	1	29	ISIslide	Loss	False
290.931	0.25	Win2	0.5484	0.0	No	2.769	0.031	n/a	PrematurePress	0	n/a	n/a	1	30	Cue	MissedWin	False
291.182	3.9	Win2	0.5484	0.0	No	2.769	0.001	1.0	PrematurePress	0	3.012	293.194	1	30	Fixation	MissedWin	False
294.194	0.3	Win2	0.5484	0.0	No	2.769	0.001	1.0	PrematurePress	0	3.012	n/a	1	30	ButtonPress	MissedWin	False
295.077	0.2	Win2	0.5484	0.004	No	2.769	-0.004	1.0	PrematurePress	0	0.085	294.162	1	30	Target	MissedWin	False
295.162	0.3	Win2	0.5484	0.004	No	2.769	-0.004	1.0	PrematurePress	0	0.085	n/a	1	30	ButtonPress	MissedWin	False
295.277	0.5	Win2	0.5484	n/a	No	2.769	n/a	n/a	PrematurePress	0	n/a	n/a	1	30	Blank	MissedWin	False
295.779	1.45	Win2	0.5484	n/a	No	2.769	n/a	5.0	PrematurePress	0	0.047	294.826	1	30	Feedback	MissedWin	False
297.233	2.769	Win2	0.5484	n/a	No	2.769	n/a	n/a	PrematurePress	0	0.0	n/a	1	30	ISIslide	MissedWin	False
300.025	0.25	Lose2	0.5312	0.0	No	2.825	0.025	n/a	NoResponse	-1	n/a	n/a	0	31	Cue	Loss	False
300.276	4.05	Lose2	0.5312	0.0	No	2.825	0.001	1.0	NoResponse	-1	3.699	302.975	0	31	Fixation	Loss	False
303.975	0.3	Lose2	0.5312	0.0	No	2.825	0.001	1.0	NoResponse	-1	3.699	n/a	0	31	ButtonPress	Loss	False
304.321	0.21	Lose2	0.5312	0.004	No	2.825	-0.004	1.0	NoResponse	-1	0.363	303.684	0	31	Target	Loss	False
304.538	0.49	Lose2	0.5312	n/a	No	2.825	n/a	n/a	NoResponse	-1	n/a	n/a	0	31	Blank	Loss	False
304.684	0.3	Lose2	0.5312	0.004	No	2.825	-0.004	1.0	NoResponse	-1	0.363	n/a	0	31	ButtonPress	Loss	False
305.023	1.45	Lose2	0.5312	n/a	No	2.825	n/a	5.0	NoResponse	-1	0.022	304.045	0	31	Feedback	Loss	False
306.478	2.825	Lose2	0.5312	n/a	No	2.825	n/a	n/a	NoResponse	-1	0.0	n/a	0	31	ISIslide	Loss	False
309.319	0.25	Lose2	0.5455	0.001	Yes	2.631	0.019	n/a	GoodResponse	0	n/a	n/a	0	32	Cue	AvoidedLoss	True
309.57	4.15	Lose2	0.5455	0.0	Yes	2.631	0.001	n/a	GoodResponse	0	n/a	n/a	0	32	Fixation	AvoidedLoss	True
313.716	0.22	Lose2	0.5455	0.003	Yes	2.631	-0.003	1.0	GoodResponse	0	0.159	312.875	0	32	Target	AvoidedLoss	True
313.875	0.3	Lose2	0.5455	0.003	Yes	2.631	-0.003	1.0	GoodResponse	0	0.159	n/a	0	32	ButtonPress	AvoidedLoss	True
313.95	0.48	Lose2	0.5455	n/a	Yes	2.631	n/a	n/a	GoodResponse	0	n/a	n/a	0	32	Blank	AvoidedLoss	True
314.418	1.45	Lose2	0.5455	n/a	Yes	2.631	n/a	5.0	GoodResponse	0	0.042	313.46	0	32	Feedback	AvoidedLoss	True
315.872	2.631	Lose2	0.5455	n/a	Yes	2.631	n/a	n/a	GoodResponse	0	0.0	n/a	0	32	ISIslide	AvoidedLoss	True
318.53	0.25	Win2	0.5588000000000001	0.0	Yes	2.67	0.03	n/a	GoodResponse	1	n/a	n/a	1	33	Cue	Win	True
318.781	4.0	Win2	0.5588000000000001	0.0	Yes	2.67	0.001	n/a	GoodResponse	1	n/a	n/a	1	33	Fixation	Win	True
322.776	0.23	Win2	0.5588000000000001	0.004	Yes	2.67	-0.004	1.0	GoodResponse	1	0.184	321.96	1	33	Target	Win	True
322.96	0.3	Win2	0.5588000000000001	0.004	Yes	2.67	-0.004	1.0	GoodResponse	1	0.184	n/a	1	33	ButtonPress	Win	True
323.01	0.47	Win2	0.5588000000000001	n/a	Yes	2.67	n/a	n/a	GoodResponse	1	n/a	n/a	1	33	Blank	Win	True
323.478	1.45	Win2	0.5588000000000001	n/a	Yes	2.67	n/a	5.0	GoodResponse	1	0.008	322.486	1	33	Feedback	Win	True
324.933	2.67	Win2	0.5588000000000001	n/a	Yes	2.67	n/a	n/a	GoodResponse	1	0.0	n/a	1	33	ISIslide	Win	True
327.624	0.25	Lose2	0.5714	0.0	Yes	2.626	0.024	n/a	GoodResponse	0	n/a	n/a	1	34	Cue	AvoidedLoss	True
327.875	4.05	Lose2	0.5714	0.0	Yes	2.626	0.001	n/a	GoodResponse	0	n/a	n/a	1	34	Fixation	AvoidedLoss	True
331.92	0.24	Lose2	0.5714	0.004	Yes	2.626	-0.004	1.0	GoodResponse	0	0.178	331.098	1	34	Target	AvoidedLoss	True
332.098	0.3	Lose2	0.5714	0.004	Yes	2.626	-0.004	1.0	GoodResponse	0	0.178	n/a	1	34	ButtonPress	AvoidedLoss	True
332.171	0.46	Lose2	0.5714	n/a	Yes	2.626	n/a	n/a	GoodResponse	0	n/a	n/a	1	34	Blank	AvoidedLoss	True
332.622	1.45	Lose2	0.5714	n/a	Yes	2.626	n/a	5.0	GoodResponse	0	0.033	331.655	1	34	Feedback	AvoidedLoss	True
334.077	2.626	Lose2	0.5714	n/a	Yes	2.626	n/a	n/a	GoodResponse	0	0.0	n/a	1	34	ISIslide	AvoidedLoss	True
336.718	0.25	Lose2	0.5832999999999999	0.0	Yes	2.682	0.018	n/a	GoodResponse	0	n/a	n/a	1	35	Cue	AvoidedLoss	True
336.969	4.0	Lose2	0.5832999999999999	0.0	Yes	2.682	0.001	n/a	GoodResponse	0	n/a	n/a	1	35	Fixation	AvoidedLoss	True
340.964	0.25	Lose2	0.5832999999999999	0.004	Yes	2.682	-0.004	1.0	GoodResponse	0	0.199	340.163	1	35	Target	AvoidedLoss	True
341.163	0.3	Lose2	0.5832999999999999	0.004	Yes	2.682	-0.004	1.0	GoodResponse	0	0.199	n/a	1	35	ButtonPress	AvoidedLoss	True
341.215	0.45	Lose2	0.5832999999999999	n/a	Yes	2.682	n/a	n/a	GoodResponse	0	n/a	n/a	1	35	Blank	AvoidedLoss	True
341.666	1.45	Lose2	0.5832999999999999	n/a	Yes	2.682	n/a	5.0	GoodResponse	0	0.012	340.678	1	35	Feedback	AvoidedLoss	True
343.121	2.682	Lose2	0.5832999999999999	n/a	Yes	2.682	n/a	n/a	GoodResponse	0	0.0	n/a	1	35	ISIslide	AvoidedLoss	True
345.829	0.25	Control	0.5676	0.0	No	2.671	0.029	n/a	NoResponse	0	n/a	n/a	1	36	Cue	Neutral	True
346.079	4.0	Control	0.5676	0.0	No	2.671	0.0	n/a	NoResponse	0	n/a	n/a	1	36	Fixation	Neutral	True
350.075	0.26	Control	0.5676	0.004	No	2.671	-0.004	1.0	NoResponse	0	0.316	349.391	1	36	Target	Neutral	True
350.342	0.44	Control	0.5676	n/a	No	2.671	n/a	n/a	NoResponse	0	n/a	n/a	1	36	Blank	Neutral	True
350.391	0.3	Control	0.5676	0.004	No	2.671	-0.004	1.0	NoResponse	0	0.316	n/a	1	36	ButtonPress	Neutral	True
350.777	1.45	Control	0.5676	n/a	No	2.671	n/a	5.0	NoResponse	0	0.023	349.8	1	36	Feedback	Neutral	True
352.231	2.671	Control	0.5676	n/a	No	2.671	n/a	n/a	NoResponse	0	0.0	n/a	1	36	ISIslide	Neutral	True
354.922	0.25	Win2	0.5789	0.001	Yes	2.878	0.022	n/a	GoodResponse	1	n/a	n/a	2	37	Cue	Win	True
355.173	4.0	Win2	0.5789	0.0	Yes	2.878	0.001	n/a	GoodResponse	1	n/a	n/a	2	37	Fixation	Win	True
359.168	0.27	Win2	0.5789	0.004	Yes	2.878	-0.004	1.0	GoodResponse	1	0.204	358.372	2	37	Target	Win	True
359.372	0.3	Win2	0.5789	0.004	Yes	2.878	-0.004	1.0	GoodResponse	1	0.204	n/a	2	37	ButtonPress	Win	True
359.453	0.43	Win2	0.5789	n/a	Yes	2.878	n/a	n/a	GoodResponse	1	n/a	n/a	2	37	Blank	Win	True
359.871	1.45	Win2	0.5789	n/a	Yes	2.878	n/a	5.0	GoodResponse	1	0.005	358.876	2	37	Feedback	Win	True
361.325	2.878	Win2	0.5789	n/a	Yes	2.878	n/a	n/a	GoodResponse	1	0.0	n/a	2	37	ISIslide	Win	True
364.217	0.25	Lose2	0.5897	0.0	Yes	2.833	0.017	n/a	GoodResponse	0	n/a	n/a	2	38	Cue	AvoidedLoss	True
364.468	3.95	Lose2	0.5897	0.0	Yes	2.833	0.001	n/a	GoodResponse	0	n/a	n/a	2	38	Fixation	AvoidedLoss	True
368.413	0.28	Lose2	0.5897	0.004	Yes	2.833	-0.004	1.0	GoodResponse	0	0.19	367.603	2	38	Target	AvoidedLoss	True
368.603	0.3	Lose2	0.5897	0.004	Yes	2.833	-0.004	1.0	GoodResponse	0	0.19	n/a	2	38	ButtonPress	AvoidedLoss	True
368.697	0.42	Lose2	0.5897	n/a	Yes	2.833	n/a	n/a	GoodResponse	0	n/a	n/a	2	38	Blank	AvoidedLoss	True
369.115	1.45	Lose2	0.5897	n/a	Yes	2.833	n/a	5.0	GoodResponse	0	0.027	368.142	2	38	Feedback	AvoidedLoss	True
370.569	2.833	Lose2	0.5897	n/a	Yes	2.833	n/a	n/a	GoodResponse	0	0.0	n/a	2	38	ISIslide	AvoidedLoss	True
373.428	0.25	Win2	0.6	0.0	Yes	2.972	0.028	n/a	GoodResponse	1	n/a	n/a	3	39	Cue	Win	True
373.679	4.1	Win2	0.6	0.0	Yes	2.972	0.001	n/a	GoodResponse	1	n/a	n/a	3	39	Fixation	Win	True
377.774	0.29	Win2	0.6	0.004	Yes	2.972	-0.004	1.0	GoodResponse	1	0.202	376.976	3	39	Target	Win	True
377.976	0.3	Win2	0.6	0.004	Yes	2.972	-0.004	1.0	GoodResponse	1	0.202	n/a	3	39	ButtonPress	Win	True
378.075	0.41	Win2	0.6	n/a	Yes	2.972	n/a	n/a	GoodResponse	1	n/a	n/a	3	39	Blank	Win	True
378.476	1.45	Win2	0.6	n/a	Yes	2.972	n/a	5.0	GoodResponse	1	0.032	377.508	3	39	Feedback	Win	True
379.931	2.972	Win2	0.6	n/a	Yes	2.972	n/a	n/a	GoodResponse	1	0.0	n/a	3	39	ISIslide	Win	True
382.923	0.25	Win2	0.6098	0.0	Yes	2.727	0.023	n/a	GoodResponse	1	n/a	n/a	4	40	Cue	Win	True
383.174	3.95	Win2	0.6098	0.0	Yes	2.727	0.001	n/a	GoodResponse	1	n/a	n/a	4	40	Fixation	Win	True
387.119	0.3	Win2	0.6098	0.004	Yes	2.727	-0.004	1.0	GoodResponse	1	0.209	386.328	4	40	Target	Win	True
387.328	0.3	Win2	0.6098	0.004	Yes	2.727	-0.004	1.0	GoodResponse	1	0.209	n/a	4	40	ButtonPress	Win	True
387.42	0.4	Win2	0.6098	n/a	Yes	2.727	n/a	n/a	GoodResponse	1	n/a	n/a	4	40	Blank	Win	True
387.821	1.45	Win2	0.6098	n/a	Yes	2.727	n/a	5.0	GoodResponse	1	0.007	386.828	4	40	Feedback	Win	True
389.275	2.727	Win2	0.6098	n/a	Yes	2.727	n/a	n/a	GoodResponse	1	0.0	n/a	4	40	ISIslide	Win	True
392.017	0.25	Win2	0.619	0.0	Yes	2.783	0.017	n/a	GoodResponse	1	n/a	n/a	5	41	Cue	Win	True
392.267	3.9	Win2	0.619	0.001	Yes	2.783	0.0	n/a	GoodResponse	1	n/a	n/a	5	41	Fixation	Win	True
396.162	0.31	Win2	0.619	0.005	Yes	2.783	-0.005	1.0	GoodResponse	1	0.229	395.391	5	41	Target	Win	True
396.391	0.3	Win2	0.619	0.005	Yes	2.783	-0.005	1.0	GoodResponse	1	0.229	n/a	5	41	ButtonPress	Win	True
396.48	0.39	Win2	0.619	n/a	Yes	2.783	n/a	n/a	GoodResponse	1	n/a	n/a	5	41	Blank	Win	True
396.865	1.45	Win2	0.619	n/a	Yes	2.783	n/a	5.0	GoodResponse	1	0.032	395.897	5	41	Feedback	Win	True
398.319	2.783	Win2	0.619	n/a	Yes	2.783	n/a	n/a	GoodResponse	1	0.0	n/a	5	41	ISIslide	Win	True
401.127	0.25	Control	0.6279	0.0	Yes	2.923	0.027	n/a	GoodResponse	0	n/a	n/a	5	42	Cue	Neutral	True
401.378	3.85	Control	0.6279	0.0	Yes	2.923	0.001	n/a	GoodResponse	0	n/a	n/a	5	42	Fixation	Neutral	True
405.223	0.32	Control	0.6279	0.004	Yes	2.923	-0.004	1.0	GoodResponse	0	0.148	404.371	5	42	Target	Neutral	True
405.371	0.3	Control	0.6279	0.004	Yes	2.923	-0.004	1.0	GoodResponse	0	0.148	n/a	5	42	ButtonPress	Neutral	True
405.557	0.38	Control	0.6279	n/a	Yes	2.923	n/a	n/a	GoodResponse	0	n/a	n/a	5	42	Blank	Neutral	True
405.925	1.45	Control	0.6279	n/a	Yes	2.923	n/a	5.0	GoodResponse	0	0.046	404.971	5	42	Feedback	Neutral	True
407.379	2.923	Control	0.6279	n/a	Yes	2.923	n/a	n/a	GoodResponse	0	0.0	n/a	5	42	ISIslide	Neutral	True
410.321	0.25	Win2	0.6364	0.001	Yes	3.179	0.021	n/a	GoodResponse	1	n/a	n/a	6	43	Cue	Win	True
410.572	4.0	Win2	0.6364	0.0	Yes	3.179	0.001	n/a	GoodResponse	1	n/a	n/a	6	43	Fixation	Win	True
414.567	0.33	Win2	0.6364	0.004	Yes	3.179	-0.004	1.0	GoodResponse	1	0.201	413.768	6	43	Target	Win	True
414.768	0.3	Win2	0.6364	0.004	Yes	3.179	-0.004	1.0	GoodResponse	1	0.201	n/a	6	43	ButtonPress	Win	True
414.902	0.37	Win2	0.6364	n/a	Yes	3.179	n/a	n/a	GoodResponse	1	n/a	n/a	6	43	Blank	Win	True
415.27	1.45	Win2	0.6364	n/a	Yes	3.179	n/a	5.0	GoodResponse	1	0.018	414.288	6	43	Feedback	Win	True
416.724	3.179	Win2	0.6364	n/a	Yes	3.179	n/a	n/a	GoodResponse	1	0.0	n/a	6	43	ISIslide	Win	True
419.917	0.25	Win2	0.6444	0.0	Yes	2.983	0.017	n/a	GoodResponse	1	n/a	n/a	7	44	Cue	Win	True
420.168	4.0	Win2	0.6444	0.0	Yes	2.983	0.001	n/a	GoodResponse	1	n/a	n/a	7	44	Fixation	Win	True
424.163	0.34	Win2	0.6444	0.004	Yes	2.983	-0.004	1.0	GoodResponse	1	0.21	423.373	7	44	Target	Win	True
424.373	0.3	Win2	0.6444	0.004	Yes	2.983	-0.004	1.0	GoodResponse	1	0.21	n/a	7	44	ButtonPress	Win	True
424.514	0.36	Win2	0.6444	n/a	Yes	2.983	n/a	n/a	GoodResponse	1	n/a	n/a	7	44	Blank	Win	True
424.865	1.45	Win2	0.6444	n/a	Yes	2.983	n/a	5.0	GoodResponse	1	0.033	423.898	7	44	Feedback	Win	True
426.319	2.983	Win2	0.6444	n/a	Yes	2.983	n/a	n/a	GoodResponse	1	0.0	n/a	7	44	ISIslide	Win	True
429.328	0.25	Control	0.6522	0.0	Yes	2.872	0.028	n/a	GoodResponse	0	n/a	n/a	7	45	Cue	Neutral	True
429.579	4.1	Control	0.6522	0.0	Yes	2.872	0.001	n/a	GoodResponse	0	n/a	n/a	7	45	Fixation	Neutral	True
433.675	0.35	Control	0.6522	0.003	Yes	2.872	-0.003	1.0	GoodResponse	0	0.227	432.902	7	45	Target	Neutral	True
433.902	0.3	Control	0.6522	0.003	Yes	2.872	-0.003	1.0	GoodResponse	0	0.227	n/a	7	45	ButtonPress	Neutral	True
434.026	0.35	Control	0.6522	n/a	Yes	2.872	n/a	n/a	GoodResponse	0	n/a	n/a	7	45	Blank	Neutral	True
434.377	1.45	Control	0.6522	n/a	Yes	2.872	n/a	5.0	GoodResponse	0	0.032	433.409	7	45	Feedback	Neutral	True
435.831	2.872	Control	0.6522	n/a	Yes	2.872	n/a	n/a	GoodResponse	0	0.0	n/a	7	45	ISIslide	Neutral	True
438.723	0.25	Lose2	0.6596	0.0	Yes	3.377	0.023	n/a	GoodResponse	0	n/a	n/a	7	46	Cue	AvoidedLoss	True
438.974	4.0	Lose2	0.6596	0.0	Yes	3.377	0.001	n/a	GoodResponse	0	n/a	n/a	7	46	Fixation	AvoidedLoss	True
442.969	0.36	Lose2	0.6596	0.004	Yes	3.377	-0.004	1.0	GoodResponse	0	0.212	442.181	7	46	Target	AvoidedLoss	True
443.181	0.3	Lose2	0.6596	0.004	Yes	3.377	-0.004	1.0	GoodResponse	0	0.212	n/a	7	46	ButtonPress	AvoidedLoss	True
443.337	0.34	Lose2	0.6596	n/a	Yes	3.377	n/a	n/a	GoodResponse	0	n/a	n/a	7	46	Blank	AvoidedLoss	True
443.671	1.45	Lose2	0.6596	n/a	Yes	3.377	n/a	5.0	GoodResponse	0	0.007	442.678	7	46	Feedback	AvoidedLoss	True
445.125	3.377	Lose2	0.6596	n/a	Yes	3.377	n/a	n/a	GoodResponse	0	0.0	n/a	7	46	ISIslide	AvoidedLoss	True
448.519	0.25	Lose2	0.6667000000000001	0.0	Yes	2.681	0.019	n/a	GoodResponse	0	n/a	n/a	7	47	Cue	AvoidedLoss	True
448.77	4.0	Lose2	0.6667000000000001	0.0	Yes	2.681	0.001	n/a	GoodResponse	0	n/a	n/a	7	47	Fixation	AvoidedLoss	True
452.765	0.36	Lose2	0.6667000000000001	0.004	Yes	2.681	-0.004	1.0	GoodResponse	0	0.223	451.988	7	47	Target	AvoidedLoss	True
452.988	0.3	Lose2	0.6667000000000001	0.004	Yes	2.681	-0.004	1.0	GoodResponse	0	0.223	n/a	7	47	ButtonPress	AvoidedLoss	True
453.133	0.34	Lose2	0.6667000000000001	n/a	Yes	2.681	n/a	n/a	GoodResponse	0	n/a	n/a	7	47	Blank	AvoidedLoss	True
453.467	1.45	Lose2	0.6667000000000001	n/a	Yes	2.681	n/a	5.0	GoodResponse	0	0.015	452.482	7	47	Feedback	AvoidedLoss	True
454.921	2.681	Lose2	0.6667000000000001	n/a	Yes	2.681	n/a	n/a	GoodResponse	0	0.0	n/a	7	47	ISIslide	AvoidedLoss	True
457.63	0.25	Lose2	0.6735	0.0	Yes	3.02	0.03	n/a	GoodResponse	0	n/a	n/a	7	48	Cue	AvoidedLoss	True
457.88	3.95	Lose2	0.6735	0.0	Yes	3.02	0.0	n/a	GoodResponse	0	n/a	n/a	7	48	Fixation	AvoidedLoss	True
461.842	0.35	Lose2	0.6735	0.0	Yes	3.02	0.012	1.0	GoodResponse	0	0.23	461.072	7	48	Target	AvoidedLoss	True
462.072	0.3	Lose2	0.6735	0.0	Yes	3.02	0.012	1.0	GoodResponse	0	0.23	n/a	7	48	ButtonPress	AvoidedLoss	True
462.176	0.35	Lose2	0.6735	n/a	Yes	3.02	n/a	n/a	GoodResponse	0	n/a	n/a	7	48	Blank	AvoidedLoss	True
462.528	1.45	Lose2	0.6735	n/a	Yes	3.02	n/a	5.0	GoodResponse	0	0.028	461.556	7	48	Feedback	AvoidedLoss	True
463.982	3.02	Lose2	0.6735	n/a	Yes	3.02	n/a	n/a	GoodResponse	0	0.0	n/a	7	48	ISIslide	AvoidedLoss	True
467.024	0.25	Control	0.68	0.0	Yes	2.876	0.024	n/a	GoodResponse	0	n/a	n/a	7	49	Cue	Neutral	True
467.275	4.0	Control	0.68	0.0	Yes	2.876	0.001	n/a	GoodResponse	0	n/a	n/a	7	49	Fixation	Neutral	True
471.27	0.34	Control	0.68	0.004	Yes	2.876	-0.004	1.0	GoodResponse	0	0.257	470.527	7	49	Target	Neutral	True
471.527	0.3	Control	0.68	0.004	Yes	2.876	-0.004	1.0	GoodResponse	0	0.257	n/a	7	49	ButtonPress	Neutral	True
471.621	0.36	Control	0.68	n/a	Yes	2.876	n/a	n/a	GoodResponse	0	n/a	n/a	7	49	Blank	Neutral	True
471.972	1.45	Control	0.68	n/a	Yes	2.876	n/a	5.0	GoodResponse	0	0.046	471.018	7	49	Feedback	Neutral	True
473.427	2.876	Control	0.68	n/a	Yes	2.876	n/a	n/a	GoodResponse	0	0.0	n/a	7	49	ISIslide	Neutral	True
476.319	0.25	Control	0.6862999999999999	0.0	Yes	2.781	0.019	n/a	GoodResponse	0	n/a	n/a	7	50	Cue	Neutral	True
476.57	4.0	Control	0.6862999999999999	0.0	Yes	2.781	0.001	n/a	GoodResponse	0	n/a	n/a	7	50	Fixation	Neutral	True
480.565	0.33	Control	0.6862999999999999	0.004	Yes	2.781	-0.004	1.0	GoodResponse	0	0.247	479.812	7	50	Target	Neutral	True
480.812	0.3	Control	0.6862999999999999	0.004	Yes	2.781	-0.004	1.0	GoodResponse	0	0.247	n/a	7	50	ButtonPress	Neutral	True
480.899	0.37	Control	0.6862999999999999	n/a	Yes	2.781	n/a	n/a	GoodResponse	0	n/a	n/a	7	50	Blank	Neutral	True
481.267	1.45	Control	0.6862999999999999	n/a	Yes	2.781	n/a	5.0	GoodResponse	0	0.02	480.287	7	50	Feedback	Neutral	True
482.721	2.781	Control	0.6862999999999999	n/a	Yes	2.781	n/a	n/a	GoodResponse	0	0.0	n/a	7	50	ISIslide	Neutral	True
485.53	0.25	Control	0.6923	0.0	Yes	2.72	0.03	n/a	GoodResponse	0	n/a	n/a	7	51	Cue	Neutral	True
485.78	3.95	Control	0.6923	0.0	Yes	2.72	0.0	n/a	GoodResponse	0	n/a	n/a	7	51	Fixation	Neutral	True
489.726	0.32	Control	0.6923	0.004	Yes	2.72	-0.004	1.0	GoodResponse	0	0.231	488.957	7	51	Target	Neutral	True
489.957	0.3	Control	0.6923	0.004	Yes	2.72	-0.004	1.0	GoodResponse	0	0.231	n/a	7	51	ButtonPress	Neutral	True
490.06	0.38	Control	0.6923	n/a	Yes	2.72	n/a	n/a	GoodResponse	0	n/a	n/a	7	51	Blank	Neutral	True
490.428	1.45	Control	0.6923	n/a	Yes	2.72	n/a	5.0	GoodResponse	0	0.029	489.457	7	51	Feedback	Neutral	True
491.882	2.72	Control	0.6923	n/a	Yes	2.72	n/a	n/a	GoodResponse	0	0.0	n/a	7	51	ISIslide	Neutral	True
494.623	0.25	Control	0.6981	0.001	Yes	2.627	0.023	n/a	GoodResponse	0	n/a	n/a	7	52	Cue	Neutral	True
494.874	4.05	Control	0.6981	0.0	Yes	2.627	0.001	n/a	GoodResponse	0	n/a	n/a	7	52	Fixation	Neutral	True
498.92	0.31	Control	0.6981	0.003	Yes	2.627	-0.003	1.0	GoodResponse	0	0.244	498.164	7	52	Target	Neutral	True
499.164	0.3	Control	0.6981	0.003	Yes	2.627	-0.003	1.0	GoodResponse	0	0.244	n/a	7	52	ButtonPress	Neutral	True
499.237	0.39	Control	0.6981	n/a	Yes	2.627	n/a	n/a	GoodResponse	0	n/a	n/a	7	52	Blank	Neutral	True
499.622	1.45	Control	0.6981	n/a	Yes	2.627	n/a	5.0	GoodResponse	0	0.007	498.629	7	52	Feedback	Neutral	True
501.076	2.627	Control	0.6981	n/a	Yes	2.627	n/a	n/a	GoodResponse	0	0.0	n/a	7	52	ISIslide	Neutral	True
503.717	0.25	Win2	0.7037	0.0	Yes	2.933	0.017	n/a	GoodResponse	1	n/a	n/a	8	53	Cue	Win	True
503.968	4.05	Win2	0.7037	0.0	Yes	2.933	0.001	n/a	GoodResponse	1	n/a	n/a	8	53	Fixation	Win	True
508.014	0.3	Win2	0.7037	0.003	Yes	2.933	-0.003	1.0	GoodResponse	1	0.189	507.203	8	53	Target	Win	True
508.203	0.3	Win2	0.7037	0.003	Yes	2.933	-0.003	1.0	GoodResponse	1	0.189	n/a	8	53	ButtonPress	Win	True
508.314	0.4	Win2	0.7037	n/a	Yes	2.933	n/a	n/a	GoodResponse	1	n/a	n/a	8	53	Blank	Win	True
508.716	1.45	Win2	0.7037	n/a	Yes	2.933	n/a	5.0	GoodResponse	1	0.034	507.75	8	53	Feedback	Win	True
510.17	2.933	Win2	0.7037	n/a	Yes	2.933	n/a	n/a	GoodResponse	1	0.0	n/a	8	53	ISIslide	Win	True
513.129	0.25	Win2	0.7091	0.0	Yes	2.721	0.029	n/a	GoodResponse	1	n/a	n/a	9	54	Cue	Win	True
513.38	3.95	Win2	0.7091	0.0	Yes	2.721	0.001	n/a	GoodResponse	1	n/a	n/a	9	54	Fixation	Win	True
517.325	0.29	Win2	0.7091	0.004	Yes	2.721	-0.004	1.0	GoodResponse	1	0.249	516.574	9	54	Target	Win	True
517.574	0.3	Win2	0.7091	0.004	Yes	2.721	-0.004	1.0	GoodResponse	1	0.249	n/a	9	54	ButtonPress	Win	True
517.626	0.41	Win2	0.7091	n/a	Yes	2.721	n/a	n/a	GoodResponse	1	n/a	n/a	9	54	Blank	Win	True
518.027	1.45	Win2	0.7091	n/a	Yes	2.721	n/a	5.0	GoodResponse	1	0.039	517.066	9	54	Feedback	Win	True
519.481	2.721	Win2	0.7091	n/a	Yes	2.721	n/a	n/a	GoodResponse	1	0.0	n/a	9	54	ISIslide	Win	True
522.223	0.25	Control	0.7143	0.0	Yes	3.027	0.023	n/a	GoodResponse	0	n/a	n/a	9	55	Cue	Neutral	True
522.473	3.95	Control	0.7143	0.0	Yes	3.027	0.0	n/a	GoodResponse	0	n/a	n/a	9	55	Fixation	Neutral	True
526.419	0.28	Control	0.7143	0.004	Yes	3.027	-0.004	1.0	GoodResponse	0	0.202	525.621	9	55	Target	Neutral	True
526.621	0.3	Control	0.7143	0.004	Yes	3.027	-0.004	1.0	GoodResponse	0	0.202	n/a	9	55	ButtonPress	Neutral	True
526.703	0.42	Control	0.7143	n/a	Yes	3.027	n/a	n/a	GoodResponse	0	n/a	n/a	9	55	Blank	Neutral	True
527.121	1.45	Control	0.7143	n/a	Yes	3.027	n/a	5.0	GoodResponse	0	0.019	526.14	9	55	Feedback	Neutral	True
528.575	3.027	Control	0.7143	n/a	Yes	3.027	n/a	n/a	GoodResponse	0	0.0	n/a	9	55	ISIslide	Neutral	True
531.617	0.25	Control	0.7193	0.0	Yes	2.833	0.017	n/a	GoodResponse	0	n/a	n/a	9	56	Cue	Neutral	True
531.868	3.95	Control	0.7193	0.0	Yes	2.833	0.001	n/a	GoodResponse	0	n/a	n/a	9	56	Fixation	Neutral	True
535.813	0.27	Control	0.7193	0.004	Yes	2.833	-0.004	1.0	GoodResponse	0	0.235	535.048	9	56	Target	Neutral	True
536.048	0.3	Control	0.7193	0.004	Yes	2.833	-0.004	1.0	GoodResponse	0	0.235	n/a	9	56	ButtonPress	Neutral	True
536.097	0.43	Control	0.7193	n/a	Yes	2.833	n/a	n/a	GoodResponse	0	n/a	n/a	9	56	Blank	Neutral	True
536.515	1.45	Control	0.7193	n/a	Yes	2.833	n/a	5.0	GoodResponse	0	0.039	535.554	9	56	Feedback	Neutral	True
537.97	2.833	Control	0.7193	n/a	Yes	2.833	n/a	n/a	GoodResponse	0	0.0	n/a	9	56	ISIslide	Neutral	True
540.828	0.25	Control	0.7241	0.0	Yes	3.472	0.028	n/a	GoodResponse	0	n/a	n/a	9	57	Cue	Neutral	True
541.079	4.0	Control	0.7241	0.0	Yes	3.472	0.001	n/a	GoodResponse	0	n/a	n/a	9	57	Fixation	Neutral	True
545.074	0.26	Control	0.7241	0.004	Yes	3.472	-0.004	1.0	GoodResponse	0	0.168	544.242	9	57	Target	Neutral	True
545.242	0.3	Control	0.7241	0.004	Yes	3.472	-0.004	1.0	GoodResponse	0	0.168	n/a	9	57	ButtonPress	Neutral	True
545.342	0.44	Control	0.7241	n/a	Yes	3.472	n/a	n/a	GoodResponse	0	n/a	n/a	9	57	Blank	Neutral	True
545.776	1.45	Control	0.7241	n/a	Yes	3.472	n/a	5.0	GoodResponse	0	0.047	544.823	9	57	Feedback	Neutral	True
547.231	3.472	Control	0.7241	n/a	Yes	3.472	n/a	n/a	GoodResponse	0	0.0	n/a	9	57	ISIslide	Neutral	True
550.725	0.25	Win2	0.7288	0.0	Yes	2.725	0.025	n/a	GoodResponse	1	n/a	n/a	10	58	Cue	Win	True
550.975	4.05	Win2	0.7288	0.0	Yes	2.725	0.0	n/a	GoodResponse	1	n/a	n/a	10	58	Fixation	Win	True
555.021	0.25	Win2	0.7288	0.004	Yes	2.725	-0.004	1.0	GoodResponse	1	0.225	554.246	10	58	Target	Win	True
555.246	0.3	Win2	0.7288	0.004	Yes	2.725	-0.004	1.0	GoodResponse	1	0.225	n/a	10	58	ButtonPress	Win	True
555.271	0.45	Win2	0.7288	n/a	Yes	2.725	n/a	n/a	GoodResponse	1	n/a	n/a	10	58	Blank	Win	True
555.723	1.45	Win2	0.7288	n/a	Yes	2.725	n/a	5.0	GoodResponse	1	0.001	554.724	10	58	Feedback	Win	True
557.177	2.725	Win2	0.7288	n/a	Yes	2.725	n/a	n/a	GoodResponse	1	0.0	n/a	10	58	ISIslide	Win	True
559.919	0.25	Lose2	0.7333	0.0	Yes	2.681	0.019	n/a	GoodResponse	0	n/a	n/a	10	59	Cue	AvoidedLoss	True
560.169	4.0	Lose2	0.7333	0.001	Yes	2.681	0.0	n/a	GoodResponse	0	n/a	n/a	10	59	Fixation	AvoidedLoss	True
564.165	0.24	Lose2	0.7333	0.004	Yes	2.681	-0.004	1.0	GoodResponse	0	0.204	563.369	10	59	Target	AvoidedLoss	True
564.369	0.3	Lose2	0.7333	0.004	Yes	2.681	-0.004	1.0	GoodResponse	0	0.204	n/a	10	59	ButtonPress	AvoidedLoss	True
564.415	0.46	Lose2	0.7333	n/a	Yes	2.681	n/a	n/a	GoodResponse	0	n/a	n/a	10	59	Blank	AvoidedLoss	True
564.867	1.45	Lose2	0.7333	n/a	Yes	2.681	n/a	5.0	GoodResponse	0	0.028	563.895	10	59	Feedback	AvoidedLoss	True
566.321	2.681	Lose2	0.7333	n/a	Yes	2.681	n/a	n/a	GoodResponse	0	0.0	n/a	10	59	ISIslide	AvoidedLoss	True
569.013	0.25	Control	0.7376999999999999	0.0	Yes	2.687	0.013	n/a	GoodResponse	0	n/a	n/a	10	60	Cue	Neutral	True
569.263	4.0	Control	0.7376999999999999	0.0	Yes	2.687	0.0	n/a	GoodResponse	0	n/a	n/a	10	60	Fixation	Neutral	True
573.259	0.23	Control	0.7376999999999999	0.004	Yes	2.687	-0.004	1.0	GoodResponse	0	0.224	572.483	10	60	Target	Neutral	True
573.483	0.3	Control	0.7376999999999999	0.004	Yes	2.687	-0.004	1.0	GoodResponse	0	0.224	n/a	10	60	ButtonPress	Neutral	True
573.493	0.47	Control	0.7376999999999999	n/a	Yes	2.687	n/a	n/a	GoodResponse	0	n/a	n/a	10	60	Blank	Neutral	True
573.961	1.45	Control	0.7376999999999999	n/a	Yes	2.687	n/a	5.0	GoodResponse	0	0.008	572.969	10	60	Feedback	Neutral	True
575.415	2.687	Control	0.7376999999999999	n/a	Yes	2.687	n/a	n/a	GoodResponse	0	0.0	n/a	10	60	ISIslide	Neutral	True
578.123	0.25	Lose2	0.7419	0.0	Yes	2.977	0.023	n/a	GoodResponse	0	n/a	n/a	10	61	Cue	AvoidedLoss	True
578.374	4.0	Lose2	0.7419	0.0	Yes	2.977	0.001	n/a	GoodResponse	0	n/a	n/a	10	61	Fixation	AvoidedLoss	True
582.369	0.22	Lose2	0.7419	0.004	Yes	2.977	-0.004	1.0	GoodResponse	0	0.197	581.566	10	61	Target	AvoidedLoss	True
582.566	0.3	Lose2	0.7419	0.004	Yes	2.977	-0.004	1.0	GoodResponse	0	0.197	n/a	10	61	ButtonPress	AvoidedLoss	True
582.603	0.48	Lose2	0.7419	n/a	Yes	2.977	n/a	n/a	GoodResponse	0	n/a	n/a	10	61	Blank	AvoidedLoss	True
583.071	1.45	Lose2	0.7419	n/a	Yes	2.977	n/a	5.0	GoodResponse	0	0.02	582.091	10	61	Feedback	AvoidedLoss	True
584.526	2.977	Lose2	0.7419	n/a	Yes	2.977	n/a	n/a	GoodResponse	0	0.0	n/a	10	61	ISIslide	AvoidedLoss	True
587.518	0.25	Lose2	0.7302	0.0	No	2.882	0.018	n/a	NoResponse	-1	n/a	n/a	9	62	Cue	Loss	True
587.769	3.9	Lose2	0.7302	0.0	No	2.882	0.001	n/a	NoResponse	-1	n/a	n/a	9	62	Fixation	Loss	True
591.664	0.21	Lose2	0.7302	0.004	No	2.882	-0.004	1.0	NoResponse	-1	0.228	590.892	9	62	Target	Loss	True
591.881	0.49	Lose2	0.7302	n/a	No	2.882	n/a	n/a	NoResponse	-1	n/a	n/a	9	62	Blank	Loss	True
591.892	0.3	Lose2	0.7302	0.004	No	2.882	-0.004	1.0	NoResponse	-1	0.228	n/a	9	62	ButtonPress	Loss	True
592.366	1.45	Lose2	0.7302	n/a	No	2.882	n/a	5.0	NoResponse	-1	0.042	591.408	9	62	Feedback	Loss	True
593.82	2.882	Lose2	0.7302	n/a	No	2.882	n/a	n/a	NoResponse	-1	0.0	n/a	9	62	ISIslide	Loss	True
596.729	0.25	Lose2	0.7343999999999999	0.0	Yes	2.621	0.029	n/a	GoodResponse	0	n/a	n/a	9	63	Cue	AvoidedLoss	True
596.98	4.05	Lose2	0.7343999999999999	0.0	Yes	2.621	0.001	n/a	GoodResponse	0	n/a	n/a	9	63	Fixation	AvoidedLoss	True
601.025	0.2	Lose2	0.7343999999999999	0.004	Yes	2.621	-0.004	1.0	GoodResponse	0	0.188	600.213	9	63	Target	AvoidedLoss	True
601.213	0.3	Lose2	0.7343999999999999	0.004	Yes	2.621	-0.004	1.0	GoodResponse	0	0.188	n/a	9	63	ButtonPress	AvoidedLoss	True
601.226	0.5	Lose2	0.7343999999999999	n/a	Yes	2.621	n/a	n/a	GoodResponse	0	n/a	n/a	9	63	Blank	AvoidedLoss	True
601.727	1.45	Lose2	0.7343999999999999	n/a	Yes	2.621	n/a	5.0	GoodResponse	0	0.046	600.773	9	63	Feedback	AvoidedLoss	True
603.181	2.621	Lose2	0.7343999999999999	n/a	Yes	2.621	n/a	n/a	GoodResponse	0	0.0	n/a	9	63	ISIslide	AvoidedLoss	True
605.823	0.25	Win2	0.7231000000000001	0.0	No	3.127	0.023	n/a	NoResponse	0	n/a	n/a	9	64	Cue	MissedWin	True
606.073	4.15	Win2	0.7231000000000001	0.0	No	3.127	0.0	n/a	NoResponse	0	n/a	n/a	9	64	Fixation	MissedWin	True
610.219	0.19	Win2	0.7231000000000001	0.004	No	3.127	-0.004	1.0	NoResponse	0	0.207	609.426	9	64	Target	MissedWin	True
610.42	0.51	Win2	0.7231000000000001	n/a	No	3.127	n/a	n/a	NoResponse	0	n/a	n/a	9	64	Blank	MissedWin	True
610.426	0.3	Win2	0.7231000000000001	0.004	No	3.127	-0.004	1.0	NoResponse	0	0.207	n/a	9	64	ButtonPress	MissedWin	True
610.921	1.45	Win2	0.7231000000000001	n/a	No	3.127	n/a	5.0	NoResponse	0	0.023	609.944	9	64	Feedback	MissedWin	True
612.376	3.127	Win2	0.7231000000000001	n/a	No	3.127	n/a	n/a	NoResponse	0	0.0	n/a	9	64	ISIslide	MissedWin	True
615.518	0.25	Control	0.7121	0.0	No	2.782	0.018	n/a	NoResponse	0	n/a	n/a	9	65	Cue	Neutral	True
615.769	4.0	Control	0.7121	0.0	No	2.782	0.001	n/a	NoResponse	0	n/a	n/a	9	65	Fixation	Neutral	True
619.764	0.18	Control	0.7121	0.004	No	2.782	-0.004	1.0	NoResponse	0	0.225	618.989	9	65	Target	Neutral	True
619.948	0.52	Control	0.7121	n/a	No	2.782	n/a	n/a	NoResponse	0	n/a	n/a	9	65	Blank	Neutral	True
619.989	0.3	Control	0.7121	0.004	No	2.782	-0.004	1.0	NoResponse	0	0.225	n/a	9	65	ButtonPress	Neutral	True
620.466	1.45	Control	0.7121	n/a	No	2.782	n/a	5.0	NoResponse	0	0.039	619.505	9	65	Feedback	Neutral	True
621.921	2.782	Control	0.7121	n/a	No	2.782	n/a	n/a	NoResponse	0	0.0	n/a	9	65	ISIslide	Neutral	True
624.729	0.25	Win2	0.7015	0.0	No	2.771	0.029	n/a	NoResponse	0	n/a	n/a	9	66	Cue	MissedWin	True
624.98	3.9	Win2	0.7015	0.0	No	2.771	0.001	1.0	NoResponse	0	3.706	627.686	9	66	Fixation	MissedWin	True
628.686	0.3	Win2	0.7015	0.0	No	2.771	0.001	1.0	NoResponse	0	3.706	n/a	9	66	ButtonPress	MissedWin	True
628.875	0.17	Win2	0.7015	0.004	No	2.771	-0.004	n/a	NoResponse	0	n/a	n/a	9	66	Target	MissedWin	True
629.059	0.53	Win2	0.7015	n/a	No	2.771	n/a	n/a	NoResponse	0	n/a	n/a	9	66	Blank	MissedWin	True
629.577	1.45	Win2	0.7015	n/a	No	2.771	n/a	5.0	NoResponse	0	0.001	628.578	9	66	Feedback	MissedWin	True
631.031	2.771	Win2	0.7015	n/a	No	2.771	n/a	n/a	NoResponse	0	0.0	n/a	9	66	ISIslide	MissedWin	True
633.823	0.25	Control	0.6912	0.0	No	2.727	0.023	n/a	NoResponse	0	n/a	n/a	9	67	Cue	Neutral	True
634.074	3.95	Control	0.6912	0.0	No	2.727	0.001	n/a	NoResponse	0	n/a	n/a	9	67	Fixation	Neutral	True
638.019	0.16	Control	0.6912	0.004	No	2.727	-0.004	1.0	NoResponse	0	0.192	637.211	9	67	Target	Neutral	True
638.186	0.54	Control	0.6912	n/a	No	2.727	n/a	n/a	NoResponse	0	n/a	n/a	9	67	Blank	Neutral	True
638.211	0.3	Control	0.6912	0.004	No	2.727	-0.004	1.0	NoResponse	0	0.192	n/a	9	67	ButtonPress	Neutral	True
638.721	1.45	Control	0.6912	n/a	No	2.727	n/a	5.0	NoResponse	0	0.028	637.749	9	67	Feedback	Neutral	True
640.175	2.727	Control	0.6912	n/a	No	2.727	n/a	n/a	NoResponse	0	0.0	n/a	9	67	ISIslide	Neutral	True
642.917	0.25	Win2	0.6812	0.0	No	3.083	0.017	n/a	NoResponse	0	n/a	n/a	9	68	Cue	MissedWin	True
643.168	4.0	Win2	0.6812	0.0	No	3.083	0.001	n/a	NoResponse	0	n/a	n/a	9	68	Fixation	MissedWin	True
647.163	0.15	Win2	0.6812	0.004	No	3.083	-0.004	1.0	NoResponse	0	0.234	646.397	9	68	Target	MissedWin	True
647.313	0.55	Win2	0.6812	n/a	No	3.083	n/a	n/a	NoResponse	0	n/a	n/a	9	68	Blank	MissedWin	True
647.397	0.3	Win2	0.6812	0.004	No	3.083	-0.004	1.0	NoResponse	0	0.234	n/a	9	68	ButtonPress	MissedWin	True
647.865	1.45	Win2	0.6812	n/a	No	3.083	n/a	5.0	NoResponse	0	0.005	646.87	9	68	Feedback	MissedWin	True
649.319	3.083	Win2	0.6812	n/a	No	3.083	n/a	n/a	NoResponse	0	0.0	n/a	9	68	ISIslide	MissedWin	True
652.429	0.25	Win2	0.6714	0.0	No	3.221	0.029	n/a	NoResponse	0	n/a	n/a	9	69	Cue	MissedWin	True
652.679	3.95	Win2	0.6714	0.0	No	3.221	0.0	n/a	NoResponse	0	n/a	n/a	9	69	Fixation	MissedWin	True
656.625	0.15	Win2	0.6714	0.004	No	3.221	-0.004	1.0	NoResponse	0	0.219	655.844	9	69	Target	MissedWin	True
656.775	0.55	Win2	0.6714	n/a	No	3.221	n/a	n/a	NoResponse	0	n/a	n/a	9	69	Blank	MissedWin	True
656.844	0.3	Win2	0.6714	0.004	No	3.221	-0.004	1.0	NoResponse	0	0.219	n/a	9	69	ButtonPress	MissedWin	True
657.327	1.45	Win2	0.6714	n/a	No	3.221	n/a	5.0	NoResponse	0	0.006	656.333	9	69	Feedback	MissedWin	True
658.781	3.221	Win2	0.6714	n/a	No	3.221	n/a	n/a	NoResponse	0	0.0	n/a	9	69	ISIslide	MissedWin	True
662.024	0.25	Lose2	0.662	0.0	No	3.026	0.024	n/a	NoResponse	-1	n/a	n/a	8	70	Cue	Loss	True
662.275	4.05	Lose2	0.662	0.0	No	3.026	0.001	1.0	NoResponse	-1	3.529	664.804	8	70	Fixation	Loss	True
665.804	0.3	Lose2	0.662	0.0	No	3.026	0.001	1.0	NoResponse	-1	3.529	n/a	8	70	ButtonPress	Loss	True
666.32	0.15	Lose2	0.662	0.004	No	3.026	-0.004	n/a	NoResponse	-1	n/a	n/a	8	70	Target	Loss	True
666.471	0.55	Lose2	0.662	n/a	No	3.026	n/a	n/a	NoResponse	-1	n/a	n/a	8	70	Blank	Loss	True
667.022	1.45	Lose2	0.662	n/a	No	3.026	n/a	5.0	NoResponse	-1	0.019	666.041	8	70	Feedback	Loss	True
668.477	3.026	Lose2	0.662	n/a	No	3.026	n/a	n/a	NoResponse	-1	0.0	n/a	8	70	ISIslide	Loss	True
671.519	0.25	Win2	0.6528	0.0	No	2.731	0.019	n/a	NoResponse	0	n/a	n/a	8	71	Cue	MissedWin	True
671.77	4.05	Win2	0.6528	0.0	No	2.731	0.001	n/a	NoResponse	0	n/a	n/a	8	71	Fixation	MissedWin	True
675.815	0.15	Win2	0.6528	0.004	No	2.731	-0.004	1.0	NoResponse	0	0.199	675.014	8	71	Target	MissedWin	True
675.966	0.55	Win2	0.6528	n/a	No	2.731	n/a	n/a	NoResponse	0	n/a	n/a	8	71	Blank	MissedWin	True
676.014	0.3	Win2	0.6528	0.004	No	2.731	-0.004	1.0	NoResponse	0	0.199	n/a	8	71	ButtonPress	MissedWin	True
676.517	1.45	Win2	0.6528	n/a	No	2.731	n/a	5.0	NoResponse	0	0.036	675.553	8	71	Feedback	MissedWin	True
677.972	2.731	Win2	0.6528	n/a	No	2.731	n/a	n/a	NoResponse	0	0.0	n/a	8	71	ISIslide	MissedWin	True
680.713	0.25	Win2	0.6437999999999999	0.0	No	2.787	0.013	n/a	NoResponse	0	n/a	n/a	8	72	Cue	MissedWin	True
680.964	4.1	Win2	0.6437999999999999	0.0	No	2.787	0.001	n/a	NoResponse	0	n/a	n/a	8	72	Fixation	MissedWin	True
685.06	0.16	Win2	0.6437999999999999	0.003	No	2.787	-0.003	1.0	NoResponse	0	0.189	684.249	8	72	Target	MissedWin	True
685.227	0.54	Win2	0.6437999999999999	n/a	No	2.787	n/a	n/a	NoResponse	0	n/a	n/a	8	72	Blank	MissedWin	True
685.249	0.3	Win2	0.6437999999999999	0.003	No	2.787	-0.003	1.0	NoResponse	0	0.189	n/a	8	72	ButtonPress	MissedWin	True
685.762	1.45	Win2	0.6437999999999999	n/a	No	2.787	n/a	5.0	NoResponse	0	0.01	684.772	8	72	Feedback	MissedWin	True
687.216	2.787	Win2	0.6437999999999999	n/a	No	2.787	n/a	n/a	NoResponse	0	0.0	n/a	8	72	ISIslide	MissedWin	True
690.024	0.25	Win2	0.6486	0.0	Yes	2.676	0.024	n/a	GoodResponse	1	n/a	n/a	9	73	Cue	Win	True
690.275	4.0	Win2	0.6486	0.0	Yes	2.676	0.001	n/a	GoodResponse	1	n/a	n/a	9	73	Fixation	Win	True
694.27	0.17	Win2	0.6486	0.004	Yes	2.676	-0.004	1.0	GoodResponse	1	0.154	693.424	9	73	Target	Win	True
694.424	0.3	Win2	0.6486	0.004	Yes	2.676	-0.004	1.0	GoodResponse	1	0.154	n/a	9	73	ButtonPress	Win	True
694.454	0.53	Win2	0.6486	n/a	Yes	2.676	n/a	n/a	GoodResponse	1	n/a	n/a	9	73	Blank	Win	True
694.973	1.45	Win2	0.6486	n/a	Yes	2.676	n/a	5.0	GoodResponse	1	0.018	693.991	9	73	Feedback	Win	True
696.427	2.676	Win2	0.6486	n/a	Yes	2.676	n/a	n/a	GoodResponse	1	0.0	n/a	9	73	ISIslide	Win	True
699.118	0.25	Lose2	0.6533	0.0	Yes	2.632	0.018	n/a	GoodResponse	0	n/a	n/a	9	74	Cue	AvoidedLoss	True
699.369	4.05	Lose2	0.6533	0.0	Yes	2.632	0.001	n/a	GoodResponse	0	n/a	n/a	9	74	Fixation	AvoidedLoss	True
703.414	0.18	Lose2	0.6533	0.004	Yes	2.632	-0.004	1.0	GoodResponse	0	0.176	702.59	9	74	Target	AvoidedLoss	True
703.59	0.3	Lose2	0.6533	0.004	Yes	2.632	-0.004	1.0	GoodResponse	0	0.176	n/a	9	74	ButtonPress	AvoidedLoss	True
703.598	0.52	Lose2	0.6533	n/a	Yes	2.632	n/a	n/a	GoodResponse	0	n/a	n/a	9	74	Blank	AvoidedLoss	True
704.117	1.45	Lose2	0.6533	n/a	Yes	2.632	n/a	5.0	GoodResponse	0	0.045	703.162	9	74	Feedback	AvoidedLoss	True
705.571	2.632	Lose2	0.6533	n/a	Yes	2.632	n/a	n/a	GoodResponse	0	0.0	n/a	9	74	ISIslide	AvoidedLoss	True
708.229	0.25	Lose2	0.6579	0.0	Yes	2.921	0.029	n/a	GoodResponse	0	n/a	n/a	9	75	Cue	AvoidedLoss	True
708.48	3.95	Lose2	0.6579	0.0	Yes	2.921	0.001	n/a	GoodResponse	0	n/a	n/a	9	75	Fixation	AvoidedLoss	True
712.425	0.19	Lose2	0.6579	0.004	Yes	2.921	-0.004	1.0	GoodResponse	0	0.175	711.6	9	75	Target	AvoidedLoss	True
712.6	0.3	Lose2	0.6579	0.004	Yes	2.921	-0.004	1.0	GoodResponse	0	0.175	n/a	9	75	ButtonPress	AvoidedLoss	True
712.625	0.51	Lose2	0.6579	n/a	Yes	2.921	n/a	n/a	GoodResponse	0	n/a	n/a	9	75	Blank	AvoidedLoss	True
713.127	1.45	Lose2	0.6579	n/a	Yes	2.921	n/a	5.0	GoodResponse	0	0.011	712.138	9	75	Feedback	AvoidedLoss	True
714.581	2.921	Lose2	0.6579	n/a	Yes	2.921	n/a	n/a	GoodResponse	0	0.0	n/a	9	75	ISIslide	AvoidedLoss	True
717.523	0.25	Control	0.6494	0.0	No	3.227	0.023	n/a	NoResponse	0	n/a	n/a	9	76	Cue	Neutral	True
717.774	4.05	Control	0.6494	0.0	No	3.227	0.001	n/a	NoResponse	0	n/a	n/a	9	76	Fixation	Neutral	True
721.819	0.19	Control	0.6494	0.004	No	3.227	-0.004	1.0	NoResponse	0	0.22	721.039	9	76	Target	Neutral	True
722.02	0.51	Control	0.6494	n/a	No	3.227	n/a	n/a	NoResponse	0	n/a	n/a	9	76	Blank	Neutral	True
722.039	0.3	Control	0.6494	0.004	No	3.227	-0.004	1.0	NoResponse	0	0.22	n/a	9	76	ButtonPress	Neutral	True
722.522	1.45	Control	0.6494	n/a	No	3.227	n/a	5.0	NoResponse	0	0.03	721.552	9	76	Feedback	Neutral	True
723.976	3.227	Control	0.6494	n/a	No	3.227	n/a	n/a	NoResponse	0	0.0	n/a	9	76	ISIslide	Neutral	True
727.219	0.25	Lose2	0.6409999999999999	0.0	No	2.581	0.019	n/a	NoResponse	-1	n/a	n/a	8	77	Cue	Loss	True
727.47	3.95	Lose2	0.6409999999999999	0.0	No	2.581	0.001	n/a	NoResponse	-1	n/a	n/a	8	77	Fixation	Loss	True
731.415	0.2	Lose2	0.6409999999999999	0.004	No	2.581	-0.004	1.0	NoResponse	-1	0.209	730.624	8	77	Target	Loss	True
731.615	0.5	Lose2	0.6409999999999999	n/a	No	2.581	n/a	n/a	NoResponse	-1	n/a	n/a	8	77	Blank	Loss	True
731.624	0.3	Lose2	0.6409999999999999	0.004	No	2.581	-0.004	1.0	NoResponse	-1	0.209	n/a	8	77	ButtonPress	Loss	True
732.117	1.45	Lose2	0.6409999999999999	n/a	No	2.581	n/a	5.0	NoResponse	-1	0.044	731.161	8	77	Feedback	Loss	True
733.571	2.581	Lose2	0.6409999999999999	n/a	No	2.581	n/a	n/a	NoResponse	-1	0.0	n/a	8	77	ISIslide	Loss	True
