onset	duration	cue_type	current_mean_accuracy	duration_error	is_hit	isi_adjusted	onset_delay	response	response_type	reward	rt	rt_time	total_reward	trial_number	trial_phase	trial_type	one_press
11.097	0.25	Control	1.0	0.0	Yes	2.953	-0.003	n/a	GoodResponse	0	n/a	n/a	0	0	Cue	Neutral	True
11.348	3.85	Control	1.0	0.0	Yes	2.953	0.001	n/a	GoodResponse	0	n/a	n/a	0	0	Fixation	Neutral	True
15.192	0.4	Control	1.0	0.005	Yes	2.953	-0.005	4.0	GoodResponse	0	0.262	14.454	0	0	Target	Neutral	True
15.454	0.3	Control	1.0	0.005	Yes	2.953	-0.005	4.0	GoodResponse	0	0.262	n/a	0	0	ButtonPress	Neutral	True
15.594	0.3	Control	1.0	n/a	Yes	2.953	n/a	n/a	GoodResponse	0	n/a	n/a	0	0	Blank	Neutral	True
15.895	1.45	Control	1.0	n/a	Yes	2.953	n/a	5.0	GoodResponse	0	0.031	14.926	0	0	Feedback	Neutral	True
17.349	2.953	Control	1.0	n/a	Yes	2.953	n/a	n/a	GoodResponse	0	0.0	n/a	0	0	ISIslide	Neutral	True
20.324	0.25	Lose2	1.0	0.001	Yes	2.776	0.024	n/a	GoodResponse	0	n/a	n/a	0	1	Cue	AvoidedLoss	True
20.575	4.0	Lose2	1.0	0.0	Yes	2.776	0.001	n/a	GoodResponse	0	n/a	n/a	0	1	Fixation	AvoidedLoss	True
24.57	0.39	Lose2	1.0	0.004	Yes	2.776	-0.004	4.0	GoodResponse	0	0.267	23.837	0	1	Target	AvoidedLoss	True
24.837	0.3	Lose2	1.0	0.004	Yes	2.776	-0.004	4.0	GoodResponse	0	0.267	n/a	0	1	ButtonPress	AvoidedLoss	True
24.972	0.31	Lose2	1.0	n/a	Yes	2.776	n/a	n/a	GoodResponse	0	n/a	n/a	0	1	Blank	AvoidedLoss	True
25.273	1.45	Lose2	1.0	n/a	Yes	2.776	n/a	5.0	GoodResponse	0	0.019	24.292	0	1	Feedback	AvoidedLoss	True
26.727	2.776	Lose2	1.0	n/a	Yes	2.776	n/a	n/a	GoodResponse	0	0.0	n/a	0	1	ISIslide	AvoidedLoss	True
29.519	0.25	Control	1.0	0.0	Yes	2.581	0.019	n/a	GoodResponse	0	n/a	n/a	0	2	Cue	Neutral	True
29.769	4.1	Control	1.0	0.0	Yes	2.581	0.0	n/a	GoodResponse	0	n/a	n/a	0	2	Fixation	Neutral	True
33.865	0.38	Control	1.0	0.004	Yes	2.581	-0.004	4.0	GoodResponse	0	0.247	33.112	0	2	Target	Neutral	True
34.112	0.3	Control	1.0	0.004	Yes	2.581	-0.004	4.0	GoodResponse	0	0.247	n/a	0	2	ButtonPress	Neutral	True
34.249	0.32	Control	1.0	n/a	Yes	2.581	n/a	n/a	GoodResponse	0	n/a	n/a	0	2	Blank	Neutral	True
34.567	1.45	Control	1.0	n/a	Yes	2.581	n/a	5.0	GoodResponse	0	0.041	33.608	0	2	Feedback	Neutral	True
36.021	2.581	Control	1.0	n/a	Yes	2.581	n/a	n/a	GoodResponse	0	0.0	n/a	0	2	ISIslide	Neutral	True
38.629	0.25	Win2	1.0	0.0	Yes	2.821	0.029	n/a	GoodResponse	1	n/a	n/a	1	3	Cue	Win	True
38.88	3.95	Win2	1.0	0.0	Yes	2.821	0.001	n/a	GoodResponse	1	n/a	n/a	1	3	Fixation	Win	True
42.825	0.37	Win2	1.0	0.004	Yes	2.821	-0.004	4.0	GoodResponse	1	0.282	42.107	1	3	Target	Win	True
43.107	0.3	Win2	1.0	0.004	Yes	2.821	-0.004	4.0	GoodResponse	1	0.282	n/a	1	3	ButtonPress	Win	True
43.21	0.33	Win2	1.0	n/a	Yes	2.821	n/a	n/a	GoodResponse	1	n/a	n/a	1	3	Blank	Win	True
43.527	1.45	Win2	1.0	n/a	Yes	2.821	n/a	5.0	GoodResponse	1	0.008	42.535	1	3	Feedback	Win	True
44.982	2.821	Win2	1.0	n/a	Yes	2.821	n/a	n/a	GoodResponse	1	0.0	n/a	1	3	ISIslide	Win	True
47.823	0.25	Win2	1.0	0.0	Yes	3.277	0.023	n/a	GoodResponse	1	n/a	n/a	2	4	Cue	Win	True
48.074	4.0	Win2	1.0	0.0	Yes	3.277	0.001	n/a	GoodResponse	1	n/a	n/a	2	4	Fixation	Win	True
52.069	0.36	Win2	1.0	0.004	Yes	3.277	-0.004	4.0	GoodResponse	1	0.254	51.323	2	4	Target	Win	True
52.323	0.3	Win2	1.0	0.004	Yes	3.277	-0.004	4.0	GoodResponse	1	0.254	n/a	2	4	ButtonPress	Win	True
52.437	0.34	Win2	1.0	n/a	Yes	3.277	n/a	n/a	GoodResponse	1	n/a	n/a	2	4	Blank	Win	True
52.771	1.45	Win2	1.0	n/a	Yes	3.277	n/a	5.0	GoodResponse	1	0.033	51.804	2	4	Feedback	Win	True
54.226	3.277	Win2	1.0	n/a	Yes	3.277	n/a	n/a	GoodResponse	1	0.0	n/a	2	4	ISIslide	Win	True
57.519	0.25	Win2	1.0	0.0	Yes	2.781	0.019	n/a	GoodResponse	1	n/a	n/a	3	5	Cue	Win	True
57.77	4.0	Win2	1.0	0.0	Yes	2.781	0.001	n/a	GoodResponse	1	n/a	n/a	3	5	Fixation	Win	True
61.765	0.35	Win2	1.0	0.004	Yes	2.781	-0.004	4.0	GoodResponse	1	0.244	61.009	3	5	Target	Win	True
62.009	0.3	Win2	1.0	0.004	Yes	2.781	-0.004	4.0	GoodResponse	1	0.244	n/a	3	5	ButtonPress	Win	True
62.116	0.35	Win2	1.0	n/a	Yes	2.781	n/a	n/a	GoodResponse	1	n/a	n/a	3	5	Blank	Win	True
62.467	1.45	Win2	1.0	n/a	Yes	2.781	n/a	5.0	GoodResponse	1	0.044	61.511	3	5	Feedback	Win	True
63.921	2.781	Win2	1.0	n/a	Yes	2.781	n/a	n/a	GoodResponse	1	0.0	n/a	3	5	ISIslide	Win	True
66.73	0.25	Lose2	1.0	0.0	Yes	2.72	0.03	n/a	GoodResponse	0	n/a	n/a	3	6	Cue	AvoidedLoss	True
66.981	3.95	Lose2	1.0	0.0	Yes	2.72	0.001	n/a	GoodResponse	0	n/a	n/a	3	6	Fixation	AvoidedLoss	True
70.926	0.34	Lose2	1.0	0.004	Yes	2.72	-0.004	4.0	GoodResponse	0	0.331	70.257	3	6	Target	AvoidedLoss	True
71.257	0.3	Lose2	1.0	0.004	Yes	2.72	-0.004	4.0	GoodResponse	0	0.331	n/a	3	6	ButtonPress	AvoidedLoss	True
71.277	0.36	Lose2	1.0	n/a	Yes	2.72	n/a	n/a	GoodResponse	0	n/a	n/a	3	6	Blank	AvoidedLoss	True
71.628	1.45	Lose2	1.0	n/a	Yes	2.72	n/a	5.0	GoodResponse	0	0.008	70.636	3	6	Feedback	AvoidedLoss	True
73.082	2.72	Lose2	1.0	n/a	Yes	2.72	n/a	n/a	GoodResponse	0	0.0	n/a	3	6	ISIslide	AvoidedLoss	True
75.824	0.25	Lose2	1.0	0.0	Yes	4.026	0.024	n/a	GoodResponse	0	n/a	n/a	3	7	Cue	AvoidedLoss	True
76.074	4.05	Lose2	1.0	0.001	Yes	4.026	0.0	n/a	GoodResponse	0	n/a	n/a	3	7	Fixation	AvoidedLoss	True
80.12	0.33	Lose2	1.0	0.004	Yes	4.026	-0.004	4.0	GoodResponse	0	0.302	79.422	3	7	Target	AvoidedLoss	True
80.422	0.3	Lose2	1.0	0.004	Yes	4.026	-0.004	4.0	GoodResponse	0	0.302	n/a	3	7	ButtonPress	AvoidedLoss	True
80.454	0.37	Lose2	1.0	n/a	Yes	4.026	n/a	n/a	GoodResponse	0	n/a	n/a	3	7	Blank	AvoidedLoss	True
80.822	1.45	Lose2	1.0	n/a	Yes	4.026	n/a	5.0	GoodResponse	0	0.03	79.852	3	7	Feedback	AvoidedLoss	True
82.276	4.026	Lose2	1.0	n/a	Yes	4.026	n/a	n/a	GoodResponse	0	0.0	n/a	3	7	ISIslide	AvoidedLoss	True
86.322	0.25	Lose2	1.0	0.0	Yes	3.028	0.022	n/a	GoodResponse	0	n/a	n/a	3	8	Cue	AvoidedLoss	True
86.573	3.95	Lose2	1.0	0.0	Yes	3.028	0.001	n/a	GoodResponse	0	n/a	n/a	3	8	Fixation	AvoidedLoss	True
90.518	0.32	Lose2	1.0	0.004	Yes	3.028	-0.004	4.0	GoodResponse	0	0.246	89.764	3	8	Target	AvoidedLoss	True
90.764	0.3	Lose2	1.0	0.004	Yes	3.028	-0.004	4.0	GoodResponse	0	0.246	n/a	3	8	ButtonPress	AvoidedLoss	True
90.852	0.38	Lose2	1.0	n/a	Yes	3.028	n/a	n/a	GoodResponse	0	n/a	n/a	3	8	Blank	AvoidedLoss	True
91.22	1.45	Lose2	1.0	n/a	Yes	3.028	n/a	5.0	GoodResponse	0	0.022	90.242	3	8	Feedback	AvoidedLoss	True
92.674	3.028	Lose2	1.0	n/a	Yes	3.028	n/a	n/a	GoodResponse	0	0.0	n/a	3	8	ISIslide	AvoidedLoss	True
95.717	0.25	Lose2	1.0	0.0	Yes	3.133	0.017	n/a	GoodResponse	0	n/a	n/a	3	9	Cue	AvoidedLoss	True
95.967	3.95	Lose2	1.0	0.0	Yes	3.133	0.0	n/a	GoodResponse	0	n/a	n/a	3	9	Fixation	AvoidedLoss	True
99.929	0.31	Lose2	1.0	0.0	Yes	3.133	0.012	4.0	GoodResponse	0	0.269	99.198	3	9	Target	AvoidedLoss	True
100.198	0.3	Lose2	1.0	0.0	Yes	3.133	0.012	4.0	GoodResponse	0	0.269	n/a	3	9	ButtonPress	AvoidedLoss	True
100.23	0.39	Lose2	1.0	n/a	Yes	3.133	n/a	n/a	GoodResponse	0	n/a	n/a	3	9	Blank	AvoidedLoss	True
100.615	1.45	Lose2	1.0	n/a	Yes	3.133	n/a	5.0	GoodResponse	0	0.042	99.657	3	9	Feedback	AvoidedLoss	True
102.069	3.133	Lose2	1.0	n/a	Yes	3.133	n/a	n/a	GoodResponse	0	0.0	n/a	3	9	ISIslide	AvoidedLoss	True
105.228	0.25	Control	0.9091	0.0	No	3.272	0.028	n/a	NoResponse	0	n/a	n/a	3	10	Cue	Neutral	False
105.479	4.0	Control	0.9091	0.0	No	3.272	0.001	n/a	NoResponse	0	n/a	n/a	3	10	Fixation	Neutral	False
109.474	0.3	Control	0.9091	0.004	No	3.272	-0.004	n/a	NoResponse	0	n/a	n/a	3	10	Target	Neutral	False
109.775	0.4	Control	0.9091	n/a	No	3.272	n/a	n/a	NoResponse	0	n/a	n/a	3	10	Blank	Neutral	False
110.176	1.45	Control	0.9091	n/a	No	3.272	n/a	5.0	NoResponse	0	0.042	109.218	3	10	Feedback	Neutral	False
111.631	3.272	Control	0.9091	n/a	No	3.272	n/a	n/a	NoResponse	0	0.0	n/a	3	10	ISIslide	Neutral	False
114.924	0.25	Lose2	0.9167000000000001	0.0	Yes	2.726	0.024	n/a	GoodResponse	0	n/a	n/a	3	11	Cue	AvoidedLoss	True
115.175	4.05	Lose2	0.9167000000000001	0.0	Yes	2.726	0.001	n/a	GoodResponse	0	n/a	n/a	3	11	Fixation	AvoidedLoss	True
119.22	0.29	Lose2	0.9167000000000001	0.004	Yes	2.726	-0.004	4.0	GoodResponse	0	0.255	118.475	3	11	Target	AvoidedLoss	True
119.475	0.3	Lose2	0.9167000000000001	0.004	Yes	2.726	-0.004	4.0	GoodResponse	0	0.255	n/a	3	11	ButtonPress	AvoidedLoss	True
119.521	0.41	Lose2	0.9167000000000001	n/a	Yes	2.726	n/a	n/a	GoodResponse	0	n/a	n/a	3	11	Blank	AvoidedLoss	True
119.922	1.45	Lose2	0.9167000000000001	n/a	Yes	2.726	n/a	5.0	GoodResponse	0	0.008	118.93	3	11	Feedback	AvoidedLoss	True
121.377	2.726	Lose2	0.9167000000000001	n/a	Yes	2.726	n/a	n/a	GoodResponse	0	0.0	n/a	3	11	ISIslide	AvoidedLoss	True
124.118	0.25	Control	0.9231	0.0	Yes	2.982	0.018	n/a	GoodResponse	0	n/a	n/a	3	12	Cue	Neutral	True
124.369	3.9	Control	0.9231	0.0	Yes	2.982	0.001	n/a	GoodResponse	0	n/a	n/a	3	12	Fixation	Neutral	True
128.264	0.28	Control	0.9231	0.004	Yes	2.982	-0.004	4.0	GoodResponse	0	0.267	127.531	3	12	Target	Neutral	True
128.531	0.3	Control	0.9231	0.004	Yes	2.982	-0.004	4.0	GoodResponse	0	0.267	n/a	3	12	ButtonPress	Neutral	True
128.548	0.42	Control	0.9231	n/a	Yes	2.982	n/a	n/a	GoodResponse	0	n/a	n/a	3	12	Blank	Neutral	True
128.966	1.45	Control	0.9231	n/a	Yes	2.982	n/a	5.0	GoodResponse	0	0.032	127.998	3	12	Feedback	Neutral	True
130.42	2.982	Control	0.9231	n/a	Yes	2.982	n/a	n/a	GoodResponse	0	0.0	n/a	3	12	ISIslide	Neutral	True
133.429	0.25	Control	0.8571	0.0	No	2.771	0.029	n/a	LatePress	0	n/a	n/a	3	13	Cue	Neutral	True
133.68	4.0	Control	0.8571	0.0	No	2.771	0.001	n/a	LatePress	0	n/a	n/a	3	13	Fixation	Neutral	True
137.675	0.27	Control	0.8571	0.004	No	2.771	-0.004	4.0	LatePress	0	0.28	136.955	3	13	Target	Neutral	True
137.955	0.3	Control	0.8571	0.004	No	2.771	-0.004	4.0	LatePress	0	0.28	n/a	3	13	ButtonPress	Neutral	True
137.96	0.43	Control	0.8571	n/a	No	2.771	n/a	n/a	LatePress	0	n/a	n/a	3	13	Blank	Neutral	True
138.377	1.45	Control	0.8571	n/a	No	2.771	n/a	5.0	LatePress	0	0.035	137.412	3	13	Feedback	Neutral	True
139.832	2.771	Control	0.8571	n/a	No	2.771	n/a	n/a	LatePress	0	0.0	n/a	3	13	ISIslide	Neutral	True
142.623	0.25	Win2	0.8667	0.001	Yes	2.677	0.023	n/a	GoodResponse	1	n/a	n/a	4	14	Cue	Win	True
142.874	4.1	Win2	0.8667	0.0	Yes	2.677	0.001	n/a	GoodResponse	1	n/a	n/a	4	14	Fixation	Win	True
146.97	0.26	Win2	0.8667	0.003	Yes	2.677	-0.003	4.0	GoodResponse	1	0.255	146.225	4	14	Target	Win	True
147.225	0.3	Win2	0.8667	0.003	Yes	2.677	-0.003	4.0	GoodResponse	1	0.255	n/a	4	14	ButtonPress	Win	True
147.237	0.44	Win2	0.8667	n/a	Yes	2.677	n/a	n/a	GoodResponse	1	n/a	n/a	4	14	Blank	Win	True
147.672	1.45	Win2	0.8667	n/a	Yes	2.677	n/a	5.0	GoodResponse	1	0.009	146.681	4	14	Feedback	Win	True
149.126	2.677	Win2	0.8667	n/a	Yes	2.677	n/a	n/a	GoodResponse	1	0.0	n/a	4	14	ISIslide	Win	True
151.818	0.25	Control	0.8125	0.0	No	2.982	0.018	n/a	NoResponse	0	n/a	n/a	4	15	Cue	Neutral	True
152.068	4.0	Control	0.8125	0.0	No	2.982	0.0	n/a	NoResponse	0	n/a	n/a	4	15	Fixation	Neutral	True
156.064	0.25	Control	0.8125	0.004	No	2.982	-0.004	4.0	NoResponse	0	0.511	155.575	4	15	Target	Neutral	True
156.314	0.45	Control	0.8125	n/a	No	2.982	n/a	n/a	NoResponse	0	n/a	n/a	4	15	Blank	Neutral	True
156.575	0.3	Control	0.8125	0.004	No	2.982	-0.004	4.0	NoResponse	0	0.511	n/a	4	15	ButtonPress	Neutral	True
156.766	1.45	Control	0.8125	n/a	No	2.982	n/a	5.0	NoResponse	0	0.037	155.803	4	15	Feedback	Neutral	True
158.22	2.982	Control	0.8125	n/a	No	2.982	n/a	n/a	NoResponse	0	0.0	n/a	4	15	ISIslide	Neutral	True
161.229	0.25	Win2	0.8234999999999999	0.0	Yes	2.871	0.029	n/a	GoodResponse	1	n/a	n/a	5	16	Cue	Win	True
161.48	4.0	Win2	0.8234999999999999	0.0	Yes	2.871	0.001	n/a	GoodResponse	1	n/a	n/a	5	16	Fixation	Win	True
165.475	0.24	Win2	0.8234999999999999	0.004	Yes	2.871	-0.004	4.0	GoodResponse	1	0.224	164.699	5	16	Target	Win	True
165.699	0.3	Win2	0.8234999999999999	0.004	Yes	2.871	-0.004	4.0	GoodResponse	1	0.224	n/a	5	16	ButtonPress	Win	True
165.726	0.46	Win2	0.8234999999999999	n/a	Yes	2.871	n/a	n/a	GoodResponse	1	n/a	n/a	5	16	Blank	Win	True
166.177	1.45	Win2	0.8234999999999999	n/a	Yes	2.871	n/a	5.0	GoodResponse	1	0.04	165.217	5	16	Feedback	Win	True
167.632	2.871	Win2	0.8234999999999999	n/a	Yes	2.871	n/a	n/a	GoodResponse	1	0.0	n/a	5	16	ISIslide	Win	True
170.524	0.25	Lose2	0.7778	0.0	No	2.726	0.024	n/a	NoResponse	-1	n/a	n/a	4	17	Cue	Loss	True
170.774	3.95	Lose2	0.7778	0.0	No	2.726	0.0	n/a	NoResponse	-1	n/a	n/a	4	17	Fixation	Loss	True
174.736	0.23	Lose2	0.7778	0.0	No	2.726	0.012	4.0	NoResponse	-1	0.232	173.968	4	17	Target	Loss	True
174.953	0.47	Lose2	0.7778	n/a	No	2.726	n/a	n/a	NoResponse	-1	n/a	n/a	4	17	Blank	Loss	True
174.968	0.3	Lose2	0.7778	0.0	No	2.726	0.012	4.0	NoResponse	-1	0.232	n/a	4	17	ButtonPress	Loss	True
175.422	1.45	Lose2	0.7778	n/a	No	2.726	n/a	5.0	NoResponse	-1	0.014	174.436	4	17	Feedback	Loss	True
176.876	2.726	Lose2	0.7778	n/a	No	2.726	n/a	n/a	NoResponse	-1	0.0	n/a	4	17	ISIslide	Loss	True
179.617	0.25	Lose2	0.7368000000000001	0.0	No	2.733	0.017	n/a	NoResponse	-1	n/a	n/a	3	18	Cue	Loss	True
179.868	4.05	Lose2	0.7368000000000001	0.0	No	2.733	0.001	n/a	NoResponse	-1	n/a	n/a	3	18	Fixation	Loss	True
183.914	0.22	Lose2	0.7368000000000001	0.003	No	2.733	-0.003	4.0	NoResponse	-1	0.244	183.158	3	18	Target	Loss	True
184.148	0.48	Lose2	0.7368000000000001	n/a	No	2.733	n/a	n/a	NoResponse	-1	n/a	n/a	3	18	Blank	Loss	True
184.158	0.3	Lose2	0.7368000000000001	0.003	No	2.733	-0.003	4.0	NoResponse	-1	0.244	n/a	3	18	ButtonPress	Loss	True
184.616	1.45	Lose2	0.7368000000000001	n/a	No	2.733	n/a	5.0	NoResponse	-1	0.04	183.656	3	18	Feedback	Loss	True
186.07	2.733	Lose2	0.7368000000000001	n/a	No	2.733	n/a	n/a	NoResponse	-1	0.0	n/a	3	18	ISIslide	Loss	True
188.828	0.25	Control	0.7	0.0	No	2.922	0.028	n/a	NoResponse	0	n/a	n/a	3	19	Cue	Neutral	True
189.079	3.95	Control	0.7	0.0	No	2.922	0.001	n/a	NoResponse	0	n/a	n/a	3	19	Fixation	Neutral	True
193.024	0.21	Control	0.7	0.004	No	2.922	-0.004	4.0	NoResponse	0	0.267	192.291	3	19	Target	Neutral	True
193.241	0.49	Control	0.7	n/a	No	2.922	n/a	n/a	NoResponse	0	n/a	n/a	3	19	Blank	Neutral	True
193.291	0.3	Control	0.7	0.004	No	2.922	-0.004	4.0	NoResponse	0	0.267	n/a	3	19	ButtonPress	Neutral	True
193.726	1.45	Control	0.7	n/a	No	2.922	n/a	5.0	NoResponse	0	0.008	192.734	3	19	Feedback	Neutral	True
195.181	2.922	Control	0.7	n/a	No	2.922	n/a	n/a	NoResponse	0	0.0	n/a	3	19	ISIslide	Neutral	True
198.123	0.25	Control	0.6667000000000001	0.0	No	2.627	0.023	n/a	NoResponse	0	n/a	n/a	3	20	Cue	Neutral	True
198.373	4.05	Control	0.6667000000000001	0.001	No	2.627	0.0	n/a	NoResponse	0	n/a	n/a	3	20	Fixation	Neutral	True
202.419	0.2	Control	0.6667000000000001	0.004	No	2.627	-0.004	4.0	NoResponse	0	0.258	201.677	3	20	Target	Neutral	True
202.619	0.5	Control	0.6667000000000001	n/a	No	2.627	n/a	n/a	NoResponse	0	n/a	n/a	3	20	Blank	Neutral	True
202.677	0.3	Control	0.6667000000000001	0.004	No	2.627	-0.004	4.0	NoResponse	0	0.258	n/a	3	20	ButtonPress	Neutral	True
203.121	1.45	Control	0.6667000000000001	n/a	No	2.627	n/a	5.0	NoResponse	0	0.022	202.143	3	20	Feedback	Neutral	True
204.575	2.627	Control	0.6667000000000001	n/a	No	2.627	n/a	n/a	NoResponse	0	0.0	n/a	3	20	ISIslide	Neutral	True
207.217	0.25	Control	0.6364	0.0	No	2.783	0.017	n/a	NoResponse	0	n/a	n/a	3	21	Cue	Neutral	True
207.467	4.1	Control	0.6364	0.0	No	2.783	0.0	n/a	NoResponse	0	n/a	n/a	3	21	Fixation	Neutral	True
211.563	0.19	Control	0.6364	0.004	No	2.783	-0.004	4.0	NoResponse	0	0.275	210.838	3	21	Target	Neutral	True
211.763	0.51	Control	0.6364	n/a	No	2.783	n/a	n/a	NoResponse	0	n/a	n/a	3	21	Blank	Neutral	True
211.838	0.3	Control	0.6364	0.004	No	2.783	-0.004	4.0	NoResponse	0	0.275	n/a	3	21	ButtonPress	Neutral	True
212.265	1.45	Control	0.6364	n/a	No	2.783	n/a	5.0	NoResponse	0	0.0	211.265	3	21	Feedback	Neutral	True
213.719	2.783	Control	0.6364	n/a	No	2.783	n/a	n/a	NoResponse	0	0.0	n/a	3	21	ISIslide	Neutral	True
216.528	0.25	Control	0.6087	0.0	No	2.772	0.028	n/a	NoResponse	0	n/a	n/a	3	22	Cue	Neutral	True
216.778	4.0	Control	0.6087	0.001	No	2.772	0.0	n/a	NoResponse	0	n/a	n/a	3	22	Fixation	Neutral	True
220.774	0.2	Control	0.6087	0.004	No	2.772	-0.004	4.0	NoResponse	0	0.458	220.232	3	22	Target	Neutral	True
220.974	0.5	Control	0.6087	n/a	No	2.772	n/a	n/a	NoResponse	0	n/a	n/a	3	22	Blank	Neutral	True
221.232	0.3	Control	0.6087	0.004	No	2.772	-0.004	4.0	NoResponse	0	0.458	n/a	3	22	ButtonPress	Neutral	True
221.476	1.45	Control	0.6087	n/a	No	2.772	n/a	5.0	NoResponse	0	0.008	220.484	3	22	Feedback	Neutral	True
222.93	2.772	Control	0.6087	n/a	No	2.772	n/a	n/a	NoResponse	0	0.0	n/a	3	22	ISIslide	Neutral	True
225.722	0.25	Control	0.625	0.0	Yes	2.778	0.022	n/a	GoodResponse	0	n/a	n/a	3	23	Cue	Neutral	True
225.973	3.9	Control	0.625	0.0	Yes	2.778	0.001	n/a	GoodResponse	0	n/a	n/a	3	23	Fixation	Neutral	True
229.868	0.21	Control	0.625	0.004	Yes	2.778	-0.004	4.0	GoodResponse	0	0.203	229.071	3	23	Target	Neutral	True
230.071	0.3	Control	0.625	0.004	Yes	2.778	-0.004	4.0	GoodResponse	0	0.203	n/a	3	23	ButtonPress	Neutral	True
230.085	0.49	Control	0.625	n/a	Yes	2.778	n/a	n/a	GoodResponse	0	n/a	n/a	3	23	Blank	Neutral	True
230.57	1.45	Control	0.625	n/a	Yes	2.778	n/a	5.0	GoodResponse	0	0.036	229.606	3	23	Feedback	Neutral	True
232.024	2.778	Control	0.625	n/a	Yes	2.778	n/a	n/a	GoodResponse	0	0.0	n/a	3	23	ISIslide	Neutral	True
234.816	0.25	Win2	0.64	0.0	Yes	3.134	0.016	n/a	GoodResponse	1	n/a	n/a	4	24	Cue	Win	True
235.067	3.95	Win2	0.64	0.0	Yes	3.134	0.001	n/a	GoodResponse	1	n/a	n/a	4	24	Fixation	Win	True
239.012	0.22	Win2	0.64	0.004	Yes	3.134	-0.004	4.0	GoodResponse	1	0.199	238.211	4	24	Target	Win	True
239.211	0.3	Win2	0.64	0.004	Yes	3.134	-0.004	4.0	GoodResponse	1	0.199	n/a	4	24	ButtonPress	Win	True
239.246	0.48	Win2	0.64	n/a	Yes	3.134	n/a	n/a	GoodResponse	1	n/a	n/a	4	24	Blank	Win	True
239.714	1.45	Win2	0.64	n/a	Yes	3.134	n/a	5.0	GoodResponse	1	0.015	238.729	4	24	Feedback	Win	True
241.168	3.134	Win2	0.64	n/a	Yes	3.134	n/a	n/a	GoodResponse	1	0.0	n/a	4	24	ISIslide	Win	True
244.328	0.25	Win2	0.6537999999999999	0.0	Yes	3.072	0.028	n/a	GoodResponse	1	n/a	n/a	5	25	Cue	Win	True
244.578	4.0	Win2	0.6537999999999999	0.0	Yes	3.072	0.0	n/a	GoodResponse	1	n/a	n/a	5	25	Fixation	Win	True
248.574	0.23	Win2	0.6537999999999999	0.004	Yes	3.072	-0.004	4.0	GoodResponse	1	0.196	247.77	5	25	Target	Win	True
248.77	0.3	Win2	0.6537999999999999	0.004	Yes	3.072	-0.004	4.0	GoodResponse	1	0.196	n/a	5	25	ButtonPress	Win	True
248.808	0.47	Win2	0.6537999999999999	n/a	Yes	3.072	n/a	n/a	GoodResponse	1	n/a	n/a	5	25	Blank	Win	True
249.276	1.45	Win2	0.6537999999999999	n/a	Yes	3.072	n/a	5.0	GoodResponse	1	0.013	248.289	5	25	Feedback	Win	True
250.73	3.072	Win2	0.6537999999999999	n/a	Yes	3.072	n/a	n/a	GoodResponse	1	0.0	n/a	5	25	ISIslide	Win	True
253.823	0.25	Win2	0.6296	0.0	No	2.927	0.023	n/a	NoResponse	0	n/a	n/a	5	26	Cue	MissedWin	True
254.073	3.95	Win2	0.6296	0.0	No	2.927	0.0	n/a	NoResponse	0	n/a	n/a	5	26	Fixation	MissedWin	True
258.018	0.24	Win2	0.6296	0.005	No	2.927	-0.005	4.0	NoResponse	0	0.26	257.278	5	26	Target	MissedWin	True
258.269	0.46	Win2	0.6296	n/a	No	2.927	n/a	n/a	NoResponse	0	n/a	n/a	5	26	Blank	MissedWin	True
258.278	0.3	Win2	0.6296	0.005	No	2.927	-0.005	4.0	NoResponse	0	0.26	n/a	5	26	ButtonPress	MissedWin	True
258.721	1.45	Win2	0.6296	n/a	No	2.927	n/a	5.0	NoResponse	0	0.031	257.752	5	26	Feedback	MissedWin	True
260.175	2.927	Win2	0.6296	n/a	No	2.927	n/a	n/a	NoResponse	0	0.0	n/a	5	26	ISIslide	MissedWin	True
263.117	0.25	Lose2	0.6071	0.0	No	2.833	0.017	n/a	NoResponse	-1	n/a	n/a	4	27	Cue	Loss	True
263.368	4.05	Lose2	0.6071	0.0	No	2.833	0.001	n/a	NoResponse	-1	n/a	n/a	4	27	Fixation	Loss	True
267.413	0.25	Lose2	0.6071	0.004	No	2.833	-0.004	4.0	NoResponse	-1	0.263	266.676	4	27	Target	Loss	True
267.664	0.45	Lose2	0.6071	n/a	No	2.833	n/a	n/a	NoResponse	-1	n/a	n/a	4	27	Blank	Loss	True
267.676	0.3	Lose2	0.6071	0.004	No	2.833	-0.004	4.0	NoResponse	-1	0.263	n/a	4	27	ButtonPress	Loss	True
268.115	1.45	Lose2	0.6071	n/a	No	2.833	n/a	5.0	NoResponse	-1	0.008	267.123	4	27	Feedback	Loss	True
269.57	2.833	Lose2	0.6071	n/a	No	2.833	n/a	n/a	NoResponse	-1	0.0	n/a	4	27	ISIslide	Loss	True
272.428	0.25	Control	0.5861999999999999	0.0	No	2.822	0.028	n/a	NoResponse	0	n/a	n/a	4	28	Cue	Neutral	True
272.679	4.05	Control	0.5861999999999999	0.0	No	2.822	0.001	n/a	NoResponse	0	n/a	n/a	4	28	Fixation	Neutral	True
276.724	0.26	Control	0.5861999999999999	0.004	No	2.822	-0.004	4.0	NoResponse	0	0.318	276.042	4	28	Target	Neutral	True
276.992	0.44	Control	0.5861999999999999	n/a	No	2.822	n/a	n/a	NoResponse	0	n/a	n/a	4	28	Blank	Neutral	True
277.042	0.3	Control	0.5861999999999999	0.004	No	2.822	-0.004	4.0	NoResponse	0	0.318	n/a	4	28	ButtonPress	Neutral	True
277.426	1.45	Control	0.5861999999999999	n/a	No	2.822	n/a	5.0	NoResponse	0	0.009	276.435	4	28	Feedback	Neutral	True
278.881	2.822	Control	0.5861999999999999	n/a	No	2.822	n/a	n/a	NoResponse	0	0.0	n/a	4	28	ISIslide	Neutral	True
281.723	0.25	Lose2	0.5667	0.0	No	2.827	0.023	n/a	NoResponse	-1	n/a	n/a	3	29	Cue	Loss	False
281.973	3.95	Lose2	0.5667	0.001	No	2.827	0.0	4.0	NoResponse	-1	3.077	284.05	3	29	Fixation	Loss	False
285.05	0.3	Lose2	0.5667	0.001	No	2.827	0.0	4.0	NoResponse	-1	3.077	n/a	3	29	ButtonPress	Loss	False
285.919	0.27	Lose2	0.5667	0.004	No	2.827	-0.004	4.0	NoResponse	-1	0.465	285.384	3	29	Target	Loss	False
286.203	0.43	Lose2	0.5667	n/a	No	2.827	n/a	n/a	NoResponse	-1	n/a	n/a	3	29	Blank	Loss	False
286.384	0.3	Lose2	0.5667	0.004	No	2.827	-0.004	4.0	NoResponse	-1	0.465	n/a	3	29	ButtonPress	Loss	False
286.621	1.45	Lose2	0.5667	n/a	No	2.827	n/a	5.0	NoResponse	-1	0.034	285.655	3	29	Feedback	Loss	False
288.075	2.827	Lose2	0.5667	n/a	No	2.827	n/a	n/a	NoResponse	-1	0.0	n/a	3	29	ISIslide	Loss	False
290.917	0.25	Win2	0.5484	0.0	No	2.783	0.017	n/a	LatePress	0	n/a	n/a	3	30	Cue	MissedWin	True
291.168	3.9	Win2	0.5484	0.0	No	2.783	0.001	n/a	LatePress	0	n/a	n/a	3	30	Fixation	MissedWin	True
295.063	0.28	Win2	0.5484	0.004	No	2.783	-0.004	4.0	LatePress	0	0.28	294.343	3	30	Target	MissedWin	True
295.343	0.3	Win2	0.5484	0.004	No	2.783	-0.004	4.0	LatePress	0	0.28	n/a	3	30	ButtonPress	MissedWin	True
295.347	0.42	Win2	0.5484	n/a	No	2.783	n/a	n/a	LatePress	0	n/a	n/a	3	30	Blank	MissedWin	True
295.765	1.45	Win2	0.5484	n/a	No	2.783	n/a	5.0	LatePress	0	0.011	294.776	3	30	Feedback	MissedWin	True
297.219	2.783	Win2	0.5484	n/a	No	2.783	n/a	n/a	LatePress	0	0.0	n/a	3	30	ISIslide	MissedWin	True
300.027	0.25	Lose2	0.5625	0.001	Yes	2.823	0.027	n/a	GoodResponse	0	n/a	n/a	3	31	Cue	AvoidedLoss	True
300.278	4.05	Lose2	0.5625	0.0	Yes	2.823	0.001	n/a	GoodResponse	0	n/a	n/a	3	31	Fixation	AvoidedLoss	True
304.324	0.29	Lose2	0.5625	0.003	Yes	2.823	-0.003	4.0	GoodResponse	0	0.276	303.6	3	31	Target	AvoidedLoss	True
304.6	0.3	Lose2	0.5625	0.003	Yes	2.823	-0.003	4.0	GoodResponse	0	0.276	n/a	3	31	ButtonPress	AvoidedLoss	True
304.624	0.41	Lose2	0.5625	n/a	Yes	2.823	n/a	n/a	GoodResponse	0	n/a	n/a	3	31	Blank	AvoidedLoss	True
305.026	1.45	Lose2	0.5625	n/a	Yes	2.823	n/a	5.0	GoodResponse	0	0.018	304.044	3	31	Feedback	AvoidedLoss	True
306.48	2.823	Lose2	0.5625	n/a	Yes	2.823	n/a	n/a	GoodResponse	0	0.0	n/a	3	31	ISIslide	AvoidedLoss	True
309.322	0.25	Lose2	0.5455	0.0	No	2.628	0.022	n/a	NoResponse	-1	n/a	n/a	2	32	Cue	Loss	True
309.573	4.15	Lose2	0.5455	0.0	No	2.628	0.001	n/a	NoResponse	-1	n/a	n/a	2	32	Fixation	Loss	True
313.718	0.3	Lose2	0.5455	0.004	No	2.628	-0.004	4.0	NoResponse	-1	0.312	313.03	2	32	Target	Loss	True
314.019	0.4	Lose2	0.5455	n/a	No	2.628	n/a	n/a	NoResponse	-1	n/a	n/a	2	32	Blank	Loss	True
314.03	0.3	Lose2	0.5455	0.004	No	2.628	-0.004	4.0	NoResponse	-1	0.312	n/a	2	32	ButtonPress	Loss	True
314.42	1.45	Lose2	0.5455	n/a	No	2.628	n/a	5.0	NoResponse	-1	0.039	313.459	2	32	Feedback	Loss	True
315.875	2.628	Lose2	0.5455	n/a	No	2.628	n/a	n/a	NoResponse	-1	0.0	n/a	2	32	ISIslide	Loss	True
318.516	0.25	Win2	0.5294	0.0	No	2.684	0.016	n/a	NoResponse	0	n/a	n/a	2	33	Cue	MissedWin	True
318.767	4.0	Win2	0.5294	0.0	No	2.684	0.001	n/a	NoResponse	0	n/a	n/a	2	33	Fixation	MissedWin	True
322.762	0.31	Win2	0.5294	0.004	No	2.684	-0.004	4.0	NoResponse	0	0.391	322.153	2	33	Target	MissedWin	True
323.08	0.39	Win2	0.5294	n/a	No	2.684	n/a	n/a	NoResponse	0	n/a	n/a	2	33	Blank	MissedWin	True
323.153	0.3	Win2	0.5294	0.004	No	2.684	-0.004	4.0	NoResponse	0	0.391	n/a	2	33	ButtonPress	MissedWin	True
323.464	1.45	Win2	0.5294	n/a	No	2.684	n/a	5.0	NoResponse	0	0.02	322.484	2	33	Feedback	MissedWin	True
324.918	2.684	Win2	0.5294	n/a	No	2.684	n/a	n/a	NoResponse	0	0.0	n/a	2	33	ISIslide	MissedWin	True
327.627	0.25	Lose2	0.5428999999999999	0.0	Yes	2.623	0.027	n/a	GoodResponse	0	n/a	n/a	2	34	Cue	AvoidedLoss	True
327.877	4.05	Lose2	0.5428999999999999	0.0	Yes	2.623	0.0	n/a	GoodResponse	0	n/a	n/a	2	34	Fixation	AvoidedLoss	True
331.923	0.32	Lose2	0.5428999999999999	0.004	Yes	2.623	-0.004	4.0	GoodResponse	0	0.212	331.135	2	34	Target	AvoidedLoss	True
332.135	0.3	Lose2	0.5428999999999999	0.004	Yes	2.623	-0.004	4.0	GoodResponse	0	0.212	n/a	2	34	ButtonPress	AvoidedLoss	True
332.257	0.38	Lose2	0.5428999999999999	n/a	Yes	2.623	n/a	n/a	GoodResponse	0	n/a	n/a	2	34	Blank	AvoidedLoss	True
332.625	1.45	Lose2	0.5428999999999999	n/a	Yes	2.623	n/a	5.0	GoodResponse	0	0.028	331.653	2	34	Feedback	AvoidedLoss	True
334.079	2.623	Lose2	0.5428999999999999	n/a	Yes	2.623	n/a	n/a	GoodResponse	0	0.0	n/a	2	34	ISIslide	AvoidedLoss	True
336.72	0.25	Lose2	0.5556	0.001	Yes	2.68	0.02	n/a	GoodResponse	0	n/a	n/a	2	35	Cue	AvoidedLoss	True
336.971	4.0	Lose2	0.5556	0.0	Yes	2.68	0.001	n/a	GoodResponse	0	n/a	n/a	2	35	Fixation	AvoidedLoss	True
340.966	0.33	Lose2	0.5556	0.004	Yes	2.68	-0.004	4.0	GoodResponse	0	0.228	340.194	2	35	Target	AvoidedLoss	True
341.194	0.3	Lose2	0.5556	0.004	Yes	2.68	-0.004	4.0	GoodResponse	0	0.228	n/a	2	35	ButtonPress	AvoidedLoss	True
341.301	0.37	Lose2	0.5556	n/a	Yes	2.68	n/a	n/a	GoodResponse	0	n/a	n/a	2	35	Blank	AvoidedLoss	True
341.669	1.45	Lose2	0.5556	n/a	Yes	2.68	n/a	5.0	GoodResponse	0	0.009	340.678	2	35	Feedback	AvoidedLoss	True
343.123	2.68	Lose2	0.5556	n/a	Yes	2.68	n/a	n/a	GoodResponse	0	0.0	n/a	2	35	ISIslide	AvoidedLoss	True
345.814	0.25	Control	0.5405	0.0	No	2.686	0.014	n/a	NoResponse	0	n/a	n/a	2	36	Cue	Neutral	False
346.065	4.0	Control	0.5405	0.0	No	2.686	0.001	n/a	NoResponse	0	n/a	n/a	2	36	Fixation	Neutral	False
350.06	0.34	Control	0.5405	0.004	No	2.686	-0.004	n/a	NoResponse	0	n/a	n/a	2	36	Target	Neutral	False
350.411	0.36	Control	0.5405	n/a	No	2.686	n/a	n/a	NoResponse	0	n/a	n/a	2	36	Blank	Neutral	False
350.762	1.45	Control	0.5405	n/a	No	2.686	n/a	5.0	NoResponse	0	0.038	349.8	2	36	Feedback	Neutral	False
352.217	2.686	Control	0.5405	n/a	No	2.686	n/a	n/a	NoResponse	0	0.0	n/a	2	36	ISIslide	Neutral	False
354.925	0.25	Win2	0.5526	0.0	Yes	2.875	0.025	n/a	GoodResponse	1	n/a	n/a	3	37	Cue	Win	True
355.176	4.0	Win2	0.5526	0.0	Yes	2.875	0.001	n/a	GoodResponse	1	n/a	n/a	3	37	Fixation	Win	True
359.171	0.35	Win2	0.5526	0.004	Yes	2.875	-0.004	4.0	GoodResponse	1	0.25	358.421	3	37	Target	Win	True
359.421	0.3	Win2	0.5526	0.004	Yes	2.875	-0.004	4.0	GoodResponse	1	0.25	n/a	3	37	ButtonPress	Win	True
359.522	0.35	Win2	0.5526	n/a	Yes	2.875	n/a	n/a	GoodResponse	1	n/a	n/a	3	37	Blank	Win	True
359.873	1.45	Win2	0.5526	n/a	Yes	2.875	n/a	5.0	GoodResponse	1	0.049	358.922	3	37	Feedback	Win	True
361.327	2.875	Win2	0.5526	n/a	Yes	2.875	n/a	n/a	GoodResponse	1	0.0	n/a	3	37	ISIslide	Win	True
364.219	0.25	Lose2	0.5640999999999999	0.0	Yes	2.831	0.019	n/a	GoodResponse	0	n/a	n/a	3	38	Cue	AvoidedLoss	True
364.47	3.95	Lose2	0.5640999999999999	0.0	Yes	2.831	0.001	n/a	GoodResponse	0	n/a	n/a	3	38	Fixation	AvoidedLoss	True
368.415	0.36	Lose2	0.5640999999999999	0.004	Yes	2.831	-0.004	4.0	GoodResponse	0	0.244	367.659	3	38	Target	AvoidedLoss	True
368.659	0.3	Lose2	0.5640999999999999	0.004	Yes	2.831	-0.004	4.0	GoodResponse	0	0.244	n/a	3	38	ButtonPress	AvoidedLoss	True
368.783	0.34	Lose2	0.5640999999999999	n/a	Yes	2.831	n/a	n/a	GoodResponse	0	n/a	n/a	3	38	Blank	AvoidedLoss	True
369.117	1.45	Lose2	0.5640999999999999	n/a	Yes	2.831	n/a	5.0	GoodResponse	0	0.025	368.142	3	38	Feedback	AvoidedLoss	True
370.572	2.831	Lose2	0.5640999999999999	n/a	Yes	2.831	n/a	n/a	GoodResponse	0	0.0	n/a	3	38	ISIslide	AvoidedLoss	True
373.43	0.25	Win2	0.55	0.0	No	2.97	0.03	n/a	NoResponse	0	n/a	n/a	3	39	Cue	MissedWin	False
373.681	4.1	Win2	0.55	0.0	No	2.97	0.001	n/a	NoResponse	0	n/a	n/a	3	39	Fixation	MissedWin	False
377.777	0.37	Win2	0.55	0.003	No	2.97	-0.003	n/a	NoResponse	0	n/a	n/a	3	39	Target	MissedWin	False
378.161	0.33	Win2	0.55	n/a	No	2.97	n/a	n/a	NoResponse	0	n/a	n/a	3	39	Blank	MissedWin	False
378.479	1.45	Win2	0.55	n/a	No	2.97	n/a	5.0	NoResponse	0	0.027	377.506	3	39	Feedback	MissedWin	False
379.933	2.97	Win2	0.55	n/a	No	2.97	n/a	n/a	NoResponse	0	0.0	n/a	3	39	ISIslide	MissedWin	False
382.925	0.25	Win2	0.5366	0.0	No	2.725	0.025	n/a	NoResponse	0	n/a	n/a	3	40	Cue	MissedWin	True
383.176	3.95	Win2	0.5366	0.0	No	2.725	0.001	4.0	NoResponse	0	2.968	385.144	3	40	Fixation	MissedWin	True
386.144	0.3	Win2	0.5366	0.0	No	2.725	0.001	4.0	NoResponse	0	2.968	n/a	3	40	ButtonPress	MissedWin	True
387.121	0.38	Win2	0.5366	0.004	No	2.725	-0.004	n/a	NoResponse	0	n/a	n/a	3	40	Target	MissedWin	True
387.506	0.32	Win2	0.5366	n/a	No	2.725	n/a	n/a	NoResponse	0	n/a	n/a	3	40	Blank	MissedWin	True
387.823	1.45	Win2	0.5366	n/a	No	2.725	n/a	5.0	NoResponse	0	0.001	386.824	3	40	Feedback	MissedWin	True
389.278	2.725	Win2	0.5366	n/a	No	2.725	n/a	n/a	NoResponse	0	0.0	n/a	3	40	ISIslide	MissedWin	True
392.019	0.25	Win2	0.5238	0.0	No	2.781	0.019	n/a	NoResponse	0	n/a	n/a	3	41	Cue	MissedWin	True
392.27	3.9	Win2	0.5238	0.0	No	2.781	0.001	n/a	NoResponse	0	n/a	n/a	3	41	Fixation	MissedWin	True
396.165	0.39	Win2	0.5238	0.004	No	2.781	-0.004	4.0	NoResponse	0	0.487	395.652	3	41	Target	MissedWin	True
396.566	0.31	Win2	0.5238	n/a	No	2.781	n/a	n/a	NoResponse	0	n/a	n/a	3	41	Blank	MissedWin	True
396.652	0.3	Win2	0.5238	0.004	No	2.781	-0.004	4.0	NoResponse	0	0.487	n/a	3	41	ButtonPress	MissedWin	True
396.867	1.45	Win2	0.5238	n/a	No	2.781	n/a	5.0	NoResponse	0	0.03	395.897	3	41	Feedback	MissedWin	True
398.321	2.781	Win2	0.5238	n/a	No	2.781	n/a	n/a	NoResponse	0	0.0	n/a	3	41	ISIslide	MissedWin	True
401.13	0.25	Control	0.5115999999999999	0.0	No	2.92	0.03	n/a	NoResponse	0	n/a	n/a	3	42	Cue	Neutral	False
401.38	3.85	Control	0.5115999999999999	0.001	No	2.92	0.0	n/a	NoResponse	0	n/a	n/a	3	42	Fixation	Neutral	False
405.242	0.4	Control	0.5115999999999999	0.0	No	2.92	0.012	n/a	NoResponse	0	n/a	n/a	3	42	Target	Neutral	False
405.626	0.3	Control	0.5115999999999999	n/a	No	2.92	n/a	n/a	NoResponse	0	n/a	n/a	3	42	Blank	Neutral	False
405.927	1.45	Control	0.5115999999999999	n/a	No	2.92	n/a	5.0	NoResponse	0	0.043	404.97	3	42	Feedback	Neutral	False
407.382	2.92	Control	0.5115999999999999	n/a	No	2.92	n/a	n/a	NoResponse	0	0.0	n/a	3	42	ISIslide	Neutral	False
410.324	0.25	Win2	0.5227	0.0	Yes	3.176	0.024	n/a	GoodResponse	1	n/a	n/a	4	43	Cue	Win	True
410.575	4.0	Win2	0.5227	0.0	Yes	3.176	0.001	n/a	GoodResponse	1	n/a	n/a	4	43	Fixation	Win	True
414.57	0.41	Win2	0.5227	0.004	Yes	3.176	-0.004	4.0	GoodResponse	1	0.225	413.795	4	43	Target	Win	True
414.795	0.3	Win2	0.5227	0.004	Yes	3.176	-0.004	4.0	GoodResponse	1	0.225	n/a	4	43	ButtonPress	Win	True
414.988	0.29	Win2	0.5227	n/a	Yes	3.176	n/a	n/a	GoodResponse	1	n/a	n/a	4	43	Blank	Win	True
415.272	1.45	Win2	0.5227	n/a	Yes	3.176	n/a	5.0	GoodResponse	1	0.015	414.287	4	43	Feedback	Win	True
416.726	3.176	Win2	0.5227	n/a	Yes	3.176	n/a	n/a	GoodResponse	1	0.0	n/a	4	43	ISIslide	Win	True
419.919	0.25	Win2	0.5333	0.0	Yes	2.981	0.019	n/a	GoodResponse	1	n/a	n/a	5	44	Cue	Win	True
420.17	4.0	Win2	0.5333	0.0	Yes	2.981	0.001	n/a	GoodResponse	1	n/a	n/a	5	44	Fixation	Win	True
424.165	0.42	Win2	0.5333	0.004	Yes	2.981	-0.004	4.0	GoodResponse	1	0.412	423.577	5	44	Target	Win	True
424.577	0.3	Win2	0.5333	0.004	Yes	2.981	-0.004	4.0	GoodResponse	1	0.412	n/a	5	44	ButtonPress	Win	True
424.6	0.28	Win2	0.5333	n/a	Yes	2.981	n/a	n/a	GoodResponse	1	n/a	n/a	5	44	Blank	Win	True
424.867	1.45	Win2	0.5333	n/a	Yes	2.981	n/a	5.0	GoodResponse	1	0.029	423.896	5	44	Feedback	Win	True
426.322	2.981	Win2	0.5333	n/a	Yes	2.981	n/a	n/a	GoodResponse	1	0.0	n/a	5	44	ISIslide	Win	True
429.331	0.25	Control	0.5217	0.0	No	2.869	0.031	n/a	NoResponse	0	n/a	n/a	5	45	Cue	Neutral	False
429.581	4.1	Control	0.5217	0.001	No	2.869	0.0	n/a	NoResponse	0	n/a	n/a	5	45	Fixation	Neutral	False
433.677	0.43	Control	0.5217	0.004	No	2.869	-0.004	n/a	NoResponse	0	n/a	n/a	5	45	Target	Neutral	False
434.112	0.27	Control	0.5217	n/a	No	2.869	n/a	n/a	NoResponse	0	n/a	n/a	5	45	Blank	Neutral	False
434.379	1.45	Control	0.5217	n/a	No	2.869	n/a	5.0	NoResponse	0	0.03	433.409	5	45	Feedback	Neutral	False
435.833	2.869	Control	0.5217	n/a	No	2.869	n/a	n/a	NoResponse	0	0.0	n/a	5	45	ISIslide	Neutral	False
438.725	0.25	Lose2	0.5318999999999999	0.001	Yes	3.375	0.025	n/a	GoodResponse	0	n/a	n/a	5	46	Cue	AvoidedLoss	True
438.976	4.0	Lose2	0.5318999999999999	0.0	Yes	3.375	0.001	n/a	GoodResponse	0	n/a	n/a	5	46	Fixation	AvoidedLoss	True
442.971	0.44	Lose2	0.5318999999999999	0.004	Yes	3.375	-0.004	4.0	GoodResponse	0	0.261	442.232	5	46	Target	AvoidedLoss	True
443.232	0.3	Lose2	0.5318999999999999	0.004	Yes	3.375	-0.004	4.0	GoodResponse	0	0.261	n/a	5	46	ButtonPress	AvoidedLoss	True
443.423	0.26	Lose2	0.5318999999999999	n/a	Yes	3.375	n/a	n/a	GoodResponse	0	n/a	n/a	5	46	Blank	AvoidedLoss	True
443.674	1.45	Lose2	0.5318999999999999	n/a	Yes	3.375	n/a	5.0	GoodResponse	0	0.007	442.681	5	46	Feedback	AvoidedLoss	True
445.128	3.375	Lose2	0.5318999999999999	n/a	Yes	3.375	n/a	n/a	GoodResponse	0	0.0	n/a	5	46	ISIslide	AvoidedLoss	True
448.521	0.25	Lose2	0.5207999999999999	0.0	No	2.679	0.021	n/a	NoResponse	-1	n/a	n/a	4	47	Cue	Loss	False
448.772	4.0	Lose2	0.5207999999999999	0.0	No	2.679	0.001	n/a	NoResponse	-1	n/a	n/a	4	47	Fixation	Loss	False
452.767	0.45	Lose2	0.5207999999999999	0.004	No	2.679	-0.004	n/a	NoResponse	-1	n/a	n/a	4	47	Target	Loss	False
453.219	0.25	Lose2	0.5207999999999999	n/a	No	2.679	n/a	n/a	NoResponse	-1	n/a	n/a	4	47	Blank	Loss	False
453.47	1.45	Lose2	0.5207999999999999	n/a	No	2.679	n/a	5.0	NoResponse	-1	0.012	452.482	4	47	Feedback	Loss	False
454.924	2.679	Lose2	0.5207999999999999	n/a	No	2.679	n/a	n/a	NoResponse	-1	0.0	n/a	4	47	ISIslide	Loss	False
457.615	0.25	Lose2	0.5306000000000001	0.0	Yes	3.035	0.015	n/a	GoodResponse	0	n/a	n/a	4	48	Cue	AvoidedLoss	True
457.866	3.95	Lose2	0.5306000000000001	0.0	Yes	3.035	0.001	n/a	GoodResponse	0	n/a	n/a	4	48	Fixation	AvoidedLoss	True
461.811	0.46	Lose2	0.5306000000000001	0.004	Yes	3.035	-0.004	4.0	GoodResponse	0	0.218	461.029	4	48	Target	AvoidedLoss	True
462.029	0.3	Lose2	0.5306000000000001	0.004	Yes	3.035	-0.004	4.0	GoodResponse	0	0.218	n/a	4	48	ButtonPress	AvoidedLoss	True
462.279	0.24	Lose2	0.5306000000000001	n/a	Yes	3.035	n/a	n/a	GoodResponse	0	n/a	n/a	4	48	Blank	AvoidedLoss	True
462.513	1.45	Lose2	0.5306000000000001	n/a	Yes	3.035	n/a	5.0	GoodResponse	0	0.041	461.554	4	48	Feedback	AvoidedLoss	True
463.968	3.035	Lose2	0.5306000000000001	n/a	Yes	3.035	n/a	n/a	GoodResponse	0	0.0	n/a	4	48	ISIslide	AvoidedLoss	True
467.027	0.25	Control	0.52	0.0	No	2.873	0.027	n/a	NoResponse	0	n/a	n/a	4	49	Cue	Neutral	True
467.277	4.0	Control	0.52	0.001	No	2.873	0.0	n/a	NoResponse	0	n/a	n/a	4	49	Fixation	Neutral	True
471.273	0.47	Control	0.52	0.004	No	2.873	-0.004	4.0	NoResponse	0	0.493	470.766	4	49	Target	Neutral	True
471.758	0.23	Control	0.52	n/a	No	2.873	n/a	n/a	NoResponse	0	n/a	n/a	4	49	Blank	Neutral	True
471.766	0.3	Control	0.52	0.004	No	2.873	-0.004	4.0	NoResponse	0	0.493	n/a	4	49	ButtonPress	Neutral	True
471.975	1.45	Control	0.52	n/a	No	2.873	n/a	5.0	NoResponse	0	0.043	471.018	4	49	Feedback	Neutral	True
473.429	2.873	Control	0.52	n/a	No	2.873	n/a	n/a	NoResponse	0	0.0	n/a	4	49	ISIslide	Neutral	True
476.321	0.25	Control	0.5097999999999999	0.0	No	2.779	0.021	n/a	NoResponse	0	n/a	n/a	4	50	Cue	Neutral	False
476.572	4.0	Control	0.5097999999999999	0.0	No	2.779	0.001	n/a	NoResponse	0	n/a	n/a	4	50	Fixation	Neutral	False
480.567	0.48	Control	0.5097999999999999	0.004	No	2.779	-0.004	n/a	NoResponse	0	n/a	n/a	4	50	Target	Neutral	False
481.052	0.22	Control	0.5097999999999999	n/a	No	2.779	n/a	n/a	NoResponse	0	n/a	n/a	4	50	Blank	Neutral	False
481.269	1.45	Control	0.5097999999999999	n/a	No	2.779	n/a	5.0	NoResponse	0	0.017	480.286	4	50	Feedback	Neutral	False
482.724	2.779	Control	0.5097999999999999	n/a	No	2.779	n/a	n/a	NoResponse	0	0.0	n/a	4	50	ISIslide	Neutral	False
485.515	0.25	Control	0.5192	0.0	Yes	2.735	0.015	n/a	GoodResponse	0	n/a	n/a	4	51	Cue	Neutral	True
485.766	3.95	Control	0.5192	0.0	Yes	2.735	0.001	n/a	GoodResponse	0	n/a	n/a	4	51	Fixation	Neutral	True
489.711	0.49	Control	0.5192	0.004	Yes	2.735	-0.004	4.0	GoodResponse	0	0.275	488.986	4	51	Target	Neutral	True
489.986	0.3	Control	0.5192	0.004	Yes	2.735	-0.004	4.0	GoodResponse	0	0.275	n/a	4	51	ButtonPress	Neutral	True
490.213	0.21	Control	0.5192	n/a	Yes	2.735	n/a	n/a	GoodResponse	0	n/a	n/a	4	51	Blank	Neutral	True
490.413	1.45	Control	0.5192	n/a	Yes	2.735	n/a	5.0	GoodResponse	0	0.044	489.457	4	51	Feedback	Neutral	True
491.868	2.735	Control	0.5192	n/a	Yes	2.735	n/a	n/a	GoodResponse	0	0.0	n/a	4	51	ISIslide	Neutral	True
494.626	0.25	Control	0.5094	0.0	No	2.624	0.026	n/a	NoResponse	0	n/a	n/a	4	52	Cue	Neutral	False
494.877	4.05	Control	0.5094	0.0	No	2.624	0.001	n/a	NoResponse	0	n/a	n/a	4	52	Fixation	Neutral	False
498.922	0.5	Control	0.5094	0.004	No	2.624	-0.004	n/a	NoResponse	0	n/a	n/a	4	52	Target	Neutral	False
499.424	0.2	Control	0.5094	n/a	No	2.624	n/a	n/a	NoResponse	0	n/a	n/a	4	52	Blank	Neutral	False
499.624	1.45	Control	0.5094	n/a	No	2.624	n/a	5.0	NoResponse	0	0.008	498.632	4	52	Feedback	Neutral	False
501.079	2.624	Control	0.5094	n/a	No	2.624	n/a	n/a	NoResponse	0	0.0	n/a	4	52	ISIslide	Neutral	False
503.72	0.25	Win2	0.5185	0.0	Yes	2.93	0.02	n/a	GoodResponse	1	n/a	n/a	5	53	Cue	Win	True
503.971	4.05	Win2	0.5185	0.0	Yes	2.93	0.001	n/a	GoodResponse	1	n/a	n/a	5	53	Fixation	Win	True
508.016	0.5	Win2	0.5185	0.004	Yes	2.93	-0.004	4.0	GoodResponse	1	0.324	507.34	5	53	Target	Win	True
508.34	0.3	Win2	0.5185	0.004	Yes	2.93	-0.004	4.0	GoodResponse	1	0.324	n/a	5	53	ButtonPress	Win	True
508.517	0.2	Win2	0.5185	n/a	Yes	2.93	n/a	n/a	GoodResponse	1	n/a	n/a	5	53	Blank	Win	True
508.718	1.45	Win2	0.5185	n/a	Yes	2.93	n/a	5.0	GoodResponse	1	0.031	507.749	5	53	Feedback	Win	True
510.172	2.93	Win2	0.5185	n/a	Yes	2.93	n/a	n/a	GoodResponse	1	0.0	n/a	5	53	ISIslide	Win	True
513.131	0.25	Win2	0.5091	0.0	No	2.719	0.031	n/a	NoResponse	0	n/a	n/a	5	54	Cue	MissedWin	False
513.382	3.95	Win2	0.5091	0.0	No	2.719	0.001	n/a	NoResponse	0	n/a	n/a	5	54	Fixation	MissedWin	False
517.327	0.5	Win2	0.5091	0.004	No	2.719	-0.004	n/a	NoResponse	0	n/a	n/a	5	54	Target	MissedWin	False
517.829	0.2	Win2	0.5091	n/a	No	2.719	n/a	n/a	NoResponse	0	n/a	n/a	5	54	Blank	MissedWin	False
518.029	1.45	Win2	0.5091	n/a	No	2.719	n/a	5.0	NoResponse	0	0.037	517.066	5	54	Feedback	MissedWin	False
519.484	2.719	Win2	0.5091	n/a	No	2.719	n/a	n/a	NoResponse	0	0.0	n/a	5	54	ISIslide	MissedWin	False
522.225	0.25	Control	0.5179	0.0	Yes	3.025	0.025	n/a	GoodResponse	0	n/a	n/a	5	55	Cue	Neutral	True
522.476	3.95	Control	0.5179	0.0	Yes	3.025	0.001	n/a	GoodResponse	0	n/a	n/a	5	55	Fixation	Neutral	True
526.421	0.5	Control	0.5179	0.004	Yes	3.025	-0.004	4.0	GoodResponse	0	0.251	525.672	5	55	Target	Neutral	True
526.672	0.3	Control	0.5179	0.004	Yes	3.025	-0.004	4.0	GoodResponse	0	0.251	n/a	5	55	ButtonPress	Neutral	True
526.922	0.2	Control	0.5179	n/a	Yes	3.025	n/a	n/a	GoodResponse	0	n/a	n/a	5	55	Blank	Neutral	True
527.123	1.45	Control	0.5179	n/a	Yes	3.025	n/a	5.0	GoodResponse	0	0.016	526.139	5	55	Feedback	Neutral	True
528.577	3.025	Control	0.5179	n/a	Yes	3.025	n/a	n/a	GoodResponse	0	0.0	n/a	5	55	ISIslide	Neutral	True
531.62	0.25	Control	0.5088	0.0	No	2.83	0.02	n/a	NoResponse	0	n/a	n/a	5	56	Cue	Neutral	False
531.871	3.95	Control	0.5088	0.0	No	2.83	0.001	n/a	NoResponse	0	n/a	n/a	5	56	Fixation	Neutral	False
535.816	0.5	Control	0.5088	0.004	No	2.83	-0.004	n/a	NoResponse	0	n/a	n/a	5	56	Target	Neutral	False
536.317	0.2	Control	0.5088	n/a	No	2.83	n/a	n/a	NoResponse	0	n/a	n/a	5	56	Blank	Neutral	False
536.518	1.45	Control	0.5088	n/a	No	2.83	n/a	5.0	NoResponse	0	0.036	535.554	5	56	Feedback	Neutral	False
537.972	2.83	Control	0.5088	n/a	No	2.83	n/a	n/a	NoResponse	0	0.0	n/a	5	56	ISIslide	Neutral	False
540.831	0.25	Control	0.5	0.0	No	3.469	0.031	n/a	NoResponse	0	n/a	n/a	5	57	Cue	Neutral	True
541.081	4.0	Control	0.5	0.001	No	3.469	0.0	n/a	NoResponse	0	n/a	n/a	5	57	Fixation	Neutral	True
545.077	0.5	Control	0.5	0.004	No	3.469	-0.004	4.0	NoResponse	0	0.649	544.726	5	57	Target	Neutral	True
545.578	0.2	Control	0.5	n/a	No	3.469	n/a	n/a	NoResponse	0	n/a	n/a	5	57	Blank	Neutral	True
545.726	0.3	Control	0.5	0.004	No	3.469	-0.004	4.0	NoResponse	0	0.649	n/a	5	57	ButtonPress	Neutral	True
545.779	1.45	Control	0.5	n/a	No	3.469	n/a	5.0	NoResponse	0	0.042	544.821	5	57	Feedback	Neutral	True
547.233	3.469	Control	0.5	n/a	No	3.469	n/a	n/a	NoResponse	0	0.0	n/a	5	57	ISIslide	Neutral	True
550.727	0.25	Win2	0.4915	0.0	No	2.723	0.027	n/a	NoResponse	0	n/a	n/a	5	58	Cue	MissedWin	False
550.978	4.05	Win2	0.4915	0.0	No	2.723	0.001	n/a	NoResponse	0	n/a	n/a	5	58	Fixation	MissedWin	False
555.023	0.5	Win2	0.4915	0.004	No	2.723	-0.004	n/a	NoResponse	0	n/a	n/a	5	58	Target	MissedWin	False
555.525	0.2	Win2	0.4915	n/a	No	2.723	n/a	n/a	NoResponse	0	n/a	n/a	5	58	Blank	MissedWin	False
555.725	1.45	Win2	0.4915	n/a	No	2.723	n/a	5.0	NoResponse	0	0.048	554.773	5	58	Feedback	MissedWin	False
557.18	2.723	Win2	0.4915	n/a	No	2.723	n/a	n/a	NoResponse	0	0.0	n/a	5	58	ISIslide	MissedWin	False
559.921	0.25	Lose2	0.4833	0.0	No	2.679	0.021	n/a	NoResponse	-1	n/a	n/a	4	59	Cue	Loss	False
560.172	4.0	Lose2	0.4833	0.0	No	2.679	0.001	n/a	NoResponse	-1	n/a	n/a	4	59	Fixation	Loss	False
564.167	0.5	Lose2	0.4833	0.004	No	2.679	-0.004	n/a	NoResponse	-1	n/a	n/a	4	59	Target	Loss	False
564.669	0.2	Lose2	0.4833	n/a	No	2.679	n/a	n/a	NoResponse	-1	n/a	n/a	4	59	Blank	Loss	False
564.869	1.45	Lose2	0.4833	n/a	No	2.679	n/a	5.0	NoResponse	-1	0.026	563.895	4	59	Feedback	Loss	False
566.324	2.679	Lose2	0.4833	n/a	No	2.679	n/a	n/a	NoResponse	-1	0.0	n/a	4	59	ISIslide	Loss	False
569.015	0.25	Control	0.4754	0.0	No	2.685	0.015	n/a	NoResponse	0	n/a	n/a	4	60	Cue	Neutral	False
569.266	4.0	Control	0.4754	0.0	No	2.685	0.001	n/a	NoResponse	0	n/a	n/a	4	60	Fixation	Neutral	False
573.261	0.5	Control	0.4754	0.004	No	2.685	-0.004	n/a	NoResponse	0	n/a	n/a	4	60	Target	Neutral	False
573.763	0.2	Control	0.4754	n/a	No	2.685	n/a	n/a	NoResponse	0	n/a	n/a	4	60	Blank	Neutral	False
573.963	1.45	Control	0.4754	n/a	No	2.685	n/a	5.0	NoResponse	0	0.008	572.971	4	60	Feedback	Neutral	False
575.417	2.685	Control	0.4754	n/a	No	2.685	n/a	n/a	NoResponse	0	0.0	n/a	4	60	ISIslide	Neutral	False
578.126	0.25	Lose2	0.4839	0.0	Yes	2.974	0.026	n/a	GoodResponse	0	n/a	n/a	4	61	Cue	AvoidedLoss	True
578.376	4.0	Lose2	0.4839	0.0	Yes	2.974	0.0	n/a	GoodResponse	0	n/a	n/a	4	61	Fixation	AvoidedLoss	True
582.372	0.5	Lose2	0.4839	0.004	Yes	2.974	-0.004	4.0	GoodResponse	0	0.299	581.671	4	61	Target	AvoidedLoss	True
582.671	0.3	Lose2	0.4839	0.004	Yes	2.974	-0.004	4.0	GoodResponse	0	0.299	n/a	4	61	ButtonPress	AvoidedLoss	True
582.873	0.2	Lose2	0.4839	n/a	Yes	2.974	n/a	n/a	GoodResponse	0	n/a	n/a	4	61	Blank	AvoidedLoss	True
583.074	1.45	Lose2	0.4839	n/a	Yes	2.974	n/a	5.0	GoodResponse	0	0.016	582.09	4	61	Feedback	AvoidedLoss	True
584.528	2.974	Lose2	0.4839	n/a	Yes	2.974	n/a	n/a	GoodResponse	0	0.0	n/a	4	61	ISIslide	AvoidedLoss	True
587.52	0.25	Lose2	0.47619999999999996	0.0	No	2.88	0.02	n/a	NoResponse	-1	n/a	n/a	3	62	Cue	Loss	False
587.771	3.9	Lose2	0.47619999999999996	0.0	No	2.88	0.001	n/a	NoResponse	-1	n/a	n/a	3	62	Fixation	Loss	False
591.666	0.5	Lose2	0.47619999999999996	0.004	No	2.88	-0.004	n/a	NoResponse	-1	n/a	n/a	3	62	Target	Loss	False
592.168	0.2	Lose2	0.47619999999999996	n/a	No	2.88	n/a	n/a	NoResponse	-1	n/a	n/a	3	62	Blank	Loss	False
592.368	1.45	Lose2	0.47619999999999996	n/a	No	2.88	n/a	5.0	NoResponse	-1	0.038	591.406	3	62	Feedback	Loss	False
593.822	2.88	Lose2	0.47619999999999996	n/a	No	2.88	n/a	n/a	NoResponse	-1	0.0	n/a	3	62	ISIslide	Loss	False
596.731	0.25	Lose2	0.46880000000000005	0.0	No	2.619	0.031	n/a	NoResponse	-1	n/a	n/a	2	63	Cue	Loss	False
596.982	4.05	Lose2	0.46880000000000005	0.0	No	2.619	0.001	n/a	NoResponse	-1	n/a	n/a	2	63	Fixation	Loss	False
601.027	0.5	Lose2	0.46880000000000005	0.004	No	2.619	-0.004	n/a	NoResponse	-1	n/a	n/a	2	63	Target	Loss	False
601.529	0.2	Lose2	0.46880000000000005	n/a	No	2.619	n/a	n/a	NoResponse	-1	n/a	n/a	2	63	Blank	Loss	False
601.729	1.45	Lose2	0.46880000000000005	n/a	No	2.619	n/a	5.0	NoResponse	-1	0.043	600.772	2	63	Feedback	Loss	False
603.184	2.619	Lose2	0.46880000000000005	n/a	No	2.619	n/a	n/a	NoResponse	-1	0.0	n/a	2	63	ISIslide	Loss	False
605.825	0.25	Win2	0.4769	0.0	Yes	3.125	0.025	n/a	GoodResponse	1	n/a	n/a	3	64	Cue	Win	True
606.076	4.15	Win2	0.4769	0.0	Yes	3.125	0.001	n/a	GoodResponse	1	n/a	n/a	3	64	Fixation	Win	True
610.222	0.5	Win2	0.4769	0.003	Yes	3.125	-0.003	4.0	GoodResponse	1	0.283	609.505	3	64	Target	Win	True
610.505	0.3	Win2	0.4769	0.003	Yes	3.125	-0.003	4.0	GoodResponse	1	0.283	n/a	3	64	ButtonPress	Win	True
610.723	0.2	Win2	0.4769	n/a	Yes	3.125	n/a	n/a	GoodResponse	1	n/a	n/a	3	64	Blank	Win	True
610.924	1.45	Win2	0.4769	n/a	Yes	3.125	n/a	5.0	GoodResponse	1	0.019	609.943	3	64	Feedback	Win	True
612.378	3.125	Win2	0.4769	n/a	Yes	3.125	n/a	n/a	GoodResponse	1	0.0	n/a	3	64	ISIslide	Win	True
615.521	0.25	Control	0.4697	0.0	No	2.779	0.021	n/a	NoResponse	0	n/a	n/a	3	65	Cue	Neutral	False
615.771	4.0	Control	0.4697	0.001	No	2.779	0.0	n/a	NoResponse	0	n/a	n/a	3	65	Fixation	Neutral	False
619.767	0.5	Control	0.4697	0.004	No	2.779	-0.004	n/a	NoResponse	0	n/a	n/a	3	65	Target	Neutral	False
620.268	0.2	Control	0.4697	n/a	No	2.779	n/a	n/a	NoResponse	0	n/a	n/a	3	65	Blank	Neutral	False
620.469	1.45	Control	0.4697	n/a	No	2.779	n/a	5.0	NoResponse	0	0.035	619.504	3	65	Feedback	Neutral	False
621.923	2.779	Control	0.4697	n/a	No	2.779	n/a	n/a	NoResponse	0	0.0	n/a	3	65	ISIslide	Neutral	False
624.715	0.25	Win2	0.47759999999999997	0.0	Yes	2.785	0.015	n/a	GoodResponse	1	n/a	n/a	4	66	Cue	Win	True
624.966	3.9	Win2	0.47759999999999997	0.0	Yes	2.785	0.001	n/a	GoodResponse	1	n/a	n/a	4	66	Fixation	Win	True
628.861	0.5	Win2	0.47759999999999997	0.004	Yes	2.785	-0.004	4.0	GoodResponse	1	0.214	628.075	4	66	Target	Win	True
629.075	0.3	Win2	0.47759999999999997	0.004	Yes	2.785	-0.004	4.0	GoodResponse	1	0.214	n/a	4	66	ButtonPress	Win	True
629.362	0.2	Win2	0.47759999999999997	n/a	Yes	2.785	n/a	n/a	GoodResponse	1	n/a	n/a	4	66	Blank	Win	True
629.563	1.45	Win2	0.47759999999999997	n/a	Yes	2.785	n/a	5.0	GoodResponse	1	0.014	628.577	4	66	Feedback	Win	True
631.017	2.785	Win2	0.47759999999999997	n/a	Yes	2.785	n/a	n/a	GoodResponse	1	0.0	n/a	4	66	ISIslide	Win	True
633.825	0.25	Control	0.4706	0.001	No	2.725	0.025	n/a	NoResponse	0	n/a	n/a	4	67	Cue	Neutral	False
634.076	3.95	Control	0.4706	0.0	No	2.725	0.001	n/a	NoResponse	0	n/a	n/a	4	67	Fixation	Neutral	False
638.021	0.5	Control	0.4706	0.004	No	2.725	-0.004	n/a	NoResponse	0	n/a	n/a	4	67	Target	Neutral	False
638.523	0.2	Control	0.4706	n/a	No	2.725	n/a	n/a	NoResponse	0	n/a	n/a	4	67	Blank	Neutral	False
638.723	1.45	Control	0.4706	n/a	No	2.725	n/a	5.0	NoResponse	0	0.024	637.747	4	67	Feedback	Neutral	False
640.178	2.725	Control	0.4706	n/a	No	2.725	n/a	n/a	NoResponse	0	0.0	n/a	4	67	ISIslide	Neutral	False
642.919	0.25	Win2	0.46380000000000005	0.0	No	3.081	0.019	n/a	NoResponse	0	n/a	n/a	4	68	Cue	MissedWin	False
643.17	4.0	Win2	0.46380000000000005	0.0	No	3.081	0.001	n/a	NoResponse	0	n/a	n/a	4	68	Fixation	MissedWin	False
647.165	0.5	Win2	0.46380000000000005	0.004	No	3.081	-0.004	n/a	NoResponse	0	n/a	n/a	4	68	Target	MissedWin	False
647.667	0.2	Win2	0.46380000000000005	n/a	No	3.081	n/a	n/a	NoResponse	0	n/a	n/a	4	68	Blank	MissedWin	False
647.867	1.45	Win2	0.46380000000000005	n/a	No	3.081	n/a	5.0	NoResponse	0	0.002	646.869	4	68	Feedback	MissedWin	False
649.322	3.081	Win2	0.46380000000000005	n/a	No	3.081	n/a	n/a	NoResponse	0	0.0	n/a	4	68	ISIslide	MissedWin	False
652.431	0.25	Win2	0.4571	0.0	No	3.219	0.031	n/a	NoResponse	0	n/a	n/a	4	69	Cue	MissedWin	False
652.682	3.95	Win2	0.4571	0.0	No	3.219	0.001	n/a	NoResponse	0	n/a	n/a	4	69	Fixation	MissedWin	False
656.627	0.5	Win2	0.4571	0.004	No	3.219	-0.004	n/a	NoResponse	0	n/a	n/a	4	69	Target	MissedWin	False
657.128	0.2	Win2	0.4571	n/a	No	3.219	n/a	n/a	NoResponse	0	n/a	n/a	4	69	Blank	MissedWin	False
657.329	1.45	Win2	0.4571	n/a	No	3.219	n/a	5.0	NoResponse	0	0.008	656.337	4	69	Feedback	MissedWin	False
658.783	3.219	Win2	0.4571	n/a	No	3.219	n/a	n/a	NoResponse	0	0.0	n/a	4	69	ISIslide	MissedWin	False
662.026	0.25	Lose2	0.4507	0.0	No	3.024	0.026	n/a	NoResponse	-1	n/a	n/a	3	70	Cue	Loss	False
662.277	4.05	Lose2	0.4507	0.0	No	3.024	0.001	n/a	NoResponse	-1	n/a	n/a	3	70	Fixation	Loss	False
666.323	0.5	Lose2	0.4507	0.003	No	3.024	-0.003	n/a	NoResponse	-1	n/a	n/a	3	70	Target	Loss	False
666.824	0.2	Lose2	0.4507	n/a	No	3.024	n/a	n/a	NoResponse	-1	n/a	n/a	3	70	Blank	Loss	False
667.025	1.45	Lose2	0.4507	n/a	No	3.024	n/a	5.0	NoResponse	-1	0.015	666.04	3	70	Feedback	Loss	False
668.479	3.024	Lose2	0.4507	n/a	No	3.024	n/a	n/a	NoResponse	-1	0.0	n/a	3	70	ISIslide	Loss	False
671.521	0.25	Win2	0.4583	0.001	Yes	2.729	0.021	n/a	GoodResponse	1	n/a	n/a	4	71	Cue	Win	False
671.772	4.05	Win2	0.4583	0.0	Yes	2.729	0.001	4.0	GoodResponse	1	2.304	673.076	4	71	Fixation	Win	False
674.076	0.3	Win2	0.4583	0.0	Yes	2.729	0.001	4.0	GoodResponse	1	2.304	n/a	4	71	ButtonPress	Win	False
675.818	0.5	Win2	0.4583	0.003	Yes	2.729	-0.003	4.0	GoodResponse	1	0.276	675.094	4	71	Target	Win	False
676.094	0.3	Win2	0.4583	0.003	Yes	2.729	-0.003	4.0	GoodResponse	1	0.276	n/a	4	71	ButtonPress	Win	False
676.319	0.2	Win2	0.4583	n/a	Yes	2.729	n/a	n/a	GoodResponse	1	n/a	n/a	4	71	Blank	Win	False
676.52	1.45	Win2	0.4583	n/a	Yes	2.729	n/a	5.0	GoodResponse	1	0.031	675.551	4	71	Feedback	Win	False
677.974	2.729	Win2	0.4583	n/a	Yes	2.729	n/a	n/a	GoodResponse	1	0.0	n/a	4	71	ISIslide	Win	False
680.716	0.25	Win2	0.4521	0.0	No	2.784	0.016	n/a	NoResponse	0	n/a	n/a	4	72	Cue	MissedWin	False
680.966	4.1	Win2	0.4521	0.0	No	2.784	0.0	n/a	NoResponse	0	n/a	n/a	4	72	Fixation	MissedWin	False
685.062	0.5	Win2	0.4521	0.004	No	2.784	-0.004	n/a	NoResponse	0	n/a	n/a	4	72	Target	MissedWin	False
685.563	0.2	Win2	0.4521	n/a	No	2.784	n/a	n/a	NoResponse	0	n/a	n/a	4	72	Blank	MissedWin	False
685.764	1.45	Win2	0.4521	n/a	No	2.784	n/a	5.0	NoResponse	0	0.008	684.772	4	72	Feedback	MissedWin	False
687.218	2.784	Win2	0.4521	n/a	No	2.784	n/a	n/a	NoResponse	0	0.0	n/a	4	72	ISIslide	MissedWin	False
690.027	0.25	Win2	0.4459	0.0	No	2.673	0.027	n/a	NoResponse	0	n/a	n/a	4	73	Cue	MissedWin	False
690.278	4.0	Win2	0.4459	0.0	No	2.673	0.001	n/a	NoResponse	0	n/a	n/a	4	73	Fixation	MissedWin	False
694.273	0.5	Win2	0.4459	0.004	No	2.673	-0.004	n/a	NoResponse	0	n/a	n/a	4	73	Target	MissedWin	False
694.774	0.2	Win2	0.4459	n/a	No	2.673	n/a	n/a	NoResponse	0	n/a	n/a	4	73	Blank	MissedWin	False
694.975	1.45	Win2	0.4459	n/a	No	2.673	n/a	5.0	NoResponse	0	0.016	693.991	4	73	Feedback	MissedWin	False
696.429	2.673	Win2	0.4459	n/a	No	2.673	n/a	n/a	NoResponse	0	0.0	n/a	4	73	ISIslide	MissedWin	False
699.121	0.25	Lose2	0.44	0.0	No	2.629	0.021	n/a	NoResponse	-1	n/a	n/a	3	74	Cue	Loss	False
699.371	4.05	Lose2	0.44	0.0	No	2.629	0.0	n/a	NoResponse	-1	n/a	n/a	3	74	Fixation	Loss	False
703.417	0.5	Lose2	0.44	0.004	No	2.629	-0.004	n/a	NoResponse	-1	n/a	n/a	3	74	Target	Loss	False
703.918	0.2	Lose2	0.44	n/a	No	2.629	n/a	n/a	NoResponse	-1	n/a	n/a	3	74	Blank	Loss	False
704.119	1.45	Lose2	0.44	n/a	No	2.629	n/a	5.0	NoResponse	-1	0.043	703.162	3	74	Feedback	Loss	False
705.573	2.629	Lose2	0.44	n/a	No	2.629	n/a	n/a	NoResponse	-1	0.0	n/a	3	74	ISIslide	Loss	False
708.231	0.25	Lose2	0.4474	0.0	Yes	2.919	0.031	n/a	GoodResponse	0	n/a	n/a	3	75	Cue	AvoidedLoss	True
708.482	3.95	Lose2	0.4474	0.0	Yes	2.919	0.001	n/a	GoodResponse	0	n/a	n/a	3	75	Fixation	AvoidedLoss	True
712.427	0.5	Lose2	0.4474	0.004	Yes	2.919	-0.004	4.0	GoodResponse	0	0.253	711.68	3	75	Target	AvoidedLoss	True
712.68	0.3	Lose2	0.4474	0.004	Yes	2.919	-0.004	4.0	GoodResponse	0	0.253	n/a	3	75	ButtonPress	AvoidedLoss	True
712.929	0.2	Lose2	0.4474	n/a	Yes	2.919	n/a	n/a	GoodResponse	0	n/a	n/a	3	75	Blank	AvoidedLoss	True
713.129	1.45	Lose2	0.4474	n/a	Yes	2.919	n/a	5.0	GoodResponse	0	0.008	712.137	3	75	Feedback	AvoidedLoss	True
714.584	2.919	Lose2	0.4474	n/a	Yes	2.919	n/a	n/a	GoodResponse	0	0.0	n/a	3	75	ISIslide	AvoidedLoss	True
717.526	0.25	Control	0.4416	0.0	No	3.224	0.026	n/a	NoResponse	0	n/a	n/a	3	76	Cue	Neutral	False
717.776	4.05	Control	0.4416	0.001	No	3.224	0.0	n/a	NoResponse	0	n/a	n/a	3	76	Fixation	Neutral	False
721.822	0.5	Control	0.4416	0.004	No	3.224	-0.004	n/a	NoResponse	0	n/a	n/a	3	76	Target	Neutral	False
722.323	0.2	Control	0.4416	n/a	No	3.224	n/a	n/a	NoResponse	0	n/a	n/a	3	76	Blank	Neutral	False
722.524	1.45	Control	0.4416	n/a	No	3.224	n/a	5.0	NoResponse	0	0.027	721.551	3	76	Feedback	Neutral	False
723.978	3.224	Control	0.4416	n/a	No	3.224	n/a	n/a	NoResponse	0	0.0	n/a	3	76	ISIslide	Neutral	False
727.221	0.25	Lose2	0.4359	0.0	No	2.579	0.021	n/a	NoResponse	-1	n/a	n/a	2	77	Cue	Loss	False
727.472	3.95	Lose2	0.4359	0.0	No	2.579	0.001	n/a	NoResponse	-1	n/a	n/a	2	77	Fixation	Loss	False
731.417	0.5	Lose2	0.4359	0.004	No	2.579	-0.004	n/a	NoResponse	-1	n/a	n/a	2	77	Target	Loss	False
731.919	0.2	Lose2	0.4359	n/a	No	2.579	n/a	n/a	NoResponse	-1	n/a	n/a	2	77	Blank	Loss	False
732.119	1.45	Lose2	0.4359	n/a	No	2.579	n/a	5.0	NoResponse	-1	0.042	731.161	2	77	Feedback	Loss	False
733.574	2.579	Lose2	0.4359	n/a	No	2.579	n/a	n/a	NoResponse	-1	0.0	n/a	2	77	ISIslide	Loss	False
