onset	duration	cue_type	current_mean_accuracy	duration_error	is_hit	isi_adjusted	onset_delay	response	response_type	reward	rt	rt_time	total_reward	trial_number	trial_phase	trial_type	one_press
11.101	0.25	Control	1.0	0.0	Yes	2.949	0.001	n/a	GoodResponse	0	n/a	n/a	0	0	Cue	Neutral	True
11.352	3.85	Control	1.0	0.0	Yes	2.949	0.001	n/a	GoodResponse	0	n/a	n/a	0	0	Fixation	Neutral	True
15.197	0.4	Control	1.0	0.004	Yes	2.949	-0.004	1.0	GoodResponse	0	0.38	14.577	0	0	Target	Neutral	True
15.577	0.3	Control	1.0	0.004	Yes	2.949	-0.004	1.0	GoodResponse	0	0.38	n/a	0	0	ButtonPress	Neutral	True
15.598	0.3	Control	1.0	n/a	Yes	2.949	n/a	n/a	GoodResponse	0	n/a	n/a	0	0	Blank	Neutral	True
15.899	1.45	Control	1.0	n/a	Yes	2.949	n/a	5.0	GoodResponse	0	0.028	14.927	0	0	Feedback	Neutral	True
17.353	2.949	Control	1.0	n/a	Yes	2.949	n/a	n/a	GoodResponse	0	0.0	n/a	0	0	ISIslide	Neutral	True
20.329	0.25	Lose2	1.0	0.0	Yes	2.771	0.029	n/a	GoodResponse	0	n/a	n/a	0	1	Cue	AvoidedLoss	True
20.58	4.0	Lose2	1.0	0.0	Yes	2.771	0.001	n/a	GoodResponse	0	n/a	n/a	0	1	Fixation	AvoidedLoss	True
24.575	0.39	Lose2	1.0	0.004	Yes	2.771	-0.004	1.0	GoodResponse	0	0.256	23.831	0	1	Target	AvoidedLoss	True
24.831	0.3	Lose2	1.0	0.004	Yes	2.771	-0.004	1.0	GoodResponse	0	0.256	n/a	0	1	ButtonPress	AvoidedLoss	True
24.976	0.31	Lose2	1.0	n/a	Yes	2.771	n/a	n/a	GoodResponse	0	n/a	n/a	0	1	Blank	AvoidedLoss	True
25.277	1.45	Lose2	1.0	n/a	Yes	2.771	n/a	5.0	GoodResponse	0	0.016	24.293	0	1	Feedback	AvoidedLoss	True
26.731	2.771	Lose2	1.0	n/a	Yes	2.771	n/a	n/a	GoodResponse	0	0.0	n/a	0	1	ISIslide	AvoidedLoss	True
29.523	0.25	Control	1.0	0.0	Yes	2.577	0.023	n/a	GoodResponse	0	n/a	n/a	0	2	Cue	Neutral	True
29.774	4.1	Control	1.0	0.0	Yes	2.577	0.001	n/a	GoodResponse	0	n/a	n/a	0	2	Fixation	Neutral	True
33.869	0.38	Control	1.0	0.004	Yes	2.577	-0.004	1.0	GoodResponse	0	0.296	33.165	0	2	Target	Neutral	True
34.165	0.3	Control	1.0	0.004	Yes	2.577	-0.004	1.0	GoodResponse	0	0.296	n/a	0	2	ButtonPress	Neutral	True
34.254	0.32	Control	1.0	n/a	Yes	2.577	n/a	n/a	GoodResponse	0	n/a	n/a	0	2	Blank	Neutral	True
34.571	1.45	Control	1.0	n/a	Yes	2.577	n/a	5.0	GoodResponse	0	0.038	33.609	0	2	Feedback	Neutral	True
36.026	2.577	Control	1.0	n/a	Yes	2.577	n/a	n/a	GoodResponse	0	0.0	n/a	0	2	ISIslide	Neutral	True
38.617	0.25	Win2	1.0	0.0	Yes	2.833	0.017	n/a	GoodResponse	1	n/a	n/a	1	3	Cue	Win	True
38.868	3.95	Win2	1.0	0.0	Yes	2.833	0.001	n/a	GoodResponse	1	n/a	n/a	1	3	Fixation	Win	True
42.813	0.37	Win2	1.0	0.004	Yes	2.833	-0.004	1.0	GoodResponse	1	0.26	42.073	1	3	Target	Win	True
43.073	0.3	Win2	1.0	0.004	Yes	2.833	-0.004	1.0	GoodResponse	1	0.26	n/a	1	3	ButtonPress	Win	True
43.197	0.33	Win2	1.0	n/a	Yes	2.833	n/a	n/a	GoodResponse	1	n/a	n/a	1	3	Blank	Win	True
43.515	1.45	Win2	1.0	n/a	Yes	2.833	n/a	5.0	GoodResponse	1	0.021	42.536	1	3	Feedback	Win	True
44.969	2.833	Win2	1.0	n/a	Yes	2.833	n/a	n/a	GoodResponse	1	0.0	n/a	1	3	ISIslide	Win	True
47.828	0.25	Win2	1.0	0.0	Yes	3.272	0.028	n/a	GoodResponse	1	n/a	n/a	2	4	Cue	Win	True
48.079	4.0	Win2	1.0	0.0	Yes	3.272	0.001	n/a	GoodResponse	1	n/a	n/a	2	4	Fixation	Win	True
52.074	0.36	Win2	1.0	0.004	Yes	3.272	-0.004	1.0	GoodResponse	1	0.256	51.33	2	4	Target	Win	True
52.33	0.3	Win2	1.0	0.004	Yes	3.272	-0.004	1.0	GoodResponse	1	0.256	n/a	2	4	ButtonPress	Win	True
52.442	0.34	Win2	1.0	n/a	Yes	3.272	n/a	n/a	GoodResponse	1	n/a	n/a	2	4	Blank	Win	True
52.776	1.45	Win2	1.0	n/a	Yes	3.272	n/a	5.0	GoodResponse	1	0.028	51.804	2	4	Feedback	Win	True
54.23	3.272	Win2	1.0	n/a	Yes	3.272	n/a	n/a	GoodResponse	1	0.0	n/a	2	4	ISIslide	Win	True
57.524	0.25	Win2	1.0	0.0	Yes	2.776	0.024	n/a	GoodResponse	1	n/a	n/a	3	5	Cue	Win	False
57.774	4.0	Win2	1.0	0.0	Yes	2.776	0.0	1.0	GoodResponse	1	0.19	56.964	3	5	Fixation	Win	False
57.964	0.3	Win2	1.0	0.0	Yes	2.776	0.0	1.0	GoodResponse	1	0.19	n/a	3	5	ButtonPress	Win	False
61.77	0.35	Win2	1.0	0.004	Yes	2.776	-0.004	1.0	GoodResponse	1	0.244	61.014	3	5	Target	Win	False
62.014	0.3	Win2	1.0	0.004	Yes	2.776	-0.004	1.0	GoodResponse	1	0.244	n/a	3	5	ButtonPress	Win	False
62.121	0.35	Win2	1.0	n/a	Yes	2.776	n/a	n/a	GoodResponse	1	n/a	n/a	3	5	Blank	Win	False
62.472	1.45	Win2	1.0	n/a	Yes	2.776	n/a	5.0	GoodResponse	1	0.04	61.512	3	5	Feedback	Win	False
63.926	2.776	Win2	1.0	n/a	Yes	2.776	n/a	n/a	GoodResponse	1	0.0	n/a	3	5	ISIslide	Win	False
66.718	0.25	Lose2	1.0	0.0	Yes	2.732	0.018	n/a	GoodResponse	0	n/a	n/a	3	6	Cue	AvoidedLoss	True
66.968	3.95	Lose2	1.0	0.001	Yes	2.732	0.0	n/a	GoodResponse	0	n/a	n/a	3	6	Fixation	AvoidedLoss	True
70.914	0.34	Lose2	1.0	0.004	Yes	2.732	-0.004	1.0	GoodResponse	0	0.211	70.125	3	6	Target	AvoidedLoss	True
71.125	0.3	Lose2	1.0	0.004	Yes	2.732	-0.004	1.0	GoodResponse	0	0.211	n/a	3	6	ButtonPress	AvoidedLoss	True
71.265	0.36	Lose2	1.0	n/a	Yes	2.732	n/a	n/a	GoodResponse	0	n/a	n/a	3	6	Blank	AvoidedLoss	True
71.616	1.45	Lose2	1.0	n/a	Yes	2.732	n/a	5.0	GoodResponse	0	0.018	70.634	3	6	Feedback	AvoidedLoss	True
73.07	2.732	Lose2	1.0	n/a	Yes	2.732	n/a	n/a	GoodResponse	0	0.0	n/a	3	6	ISIslide	AvoidedLoss	True
75.828	0.25	Lose2	0.875	0.0	No	4.022	0.028	n/a	NoResponse	-1	n/a	n/a	2	7	Cue	Loss	True
76.079	4.05	Lose2	0.875	0.0	No	4.022	0.001	n/a	NoResponse	-1	n/a	n/a	2	7	Fixation	Loss	True
80.125	0.33	Lose2	0.875	0.003	No	4.022	-0.003	1.0	NoResponse	-1	0.364	79.489	2	7	Target	Loss	True
80.459	0.37	Lose2	0.875	n/a	No	4.022	n/a	n/a	NoResponse	-1	n/a	n/a	2	7	Blank	Loss	True
80.489	0.3	Lose2	0.875	0.003	No	4.022	-0.003	1.0	NoResponse	-1	0.364	n/a	2	7	ButtonPress	Loss	True
80.827	1.45	Lose2	0.875	n/a	No	4.022	n/a	5.0	NoResponse	-1	0.026	79.853	2	7	Feedback	Loss	True
82.281	4.022	Lose2	0.875	n/a	No	4.022	n/a	n/a	NoResponse	-1	0.0	n/a	2	7	ISIslide	Loss	True
86.326	0.25	Lose2	0.8889	0.0	Yes	3.024	0.026	n/a	GoodResponse	0	n/a	n/a	2	8	Cue	AvoidedLoss	True
86.577	3.95	Lose2	0.8889	0.0	Yes	3.024	0.001	n/a	GoodResponse	0	n/a	n/a	2	8	Fixation	AvoidedLoss	True
90.522	0.32	Lose2	0.8889	0.004	Yes	3.024	-0.004	1.0	GoodResponse	0	0.238	89.76	2	8	Target	AvoidedLoss	True
90.76	0.3	Lose2	0.8889	0.004	Yes	3.024	-0.004	1.0	GoodResponse	0	0.238	n/a	2	8	ButtonPress	AvoidedLoss	True
90.857	0.38	Lose2	0.8889	n/a	Yes	3.024	n/a	n/a	GoodResponse	0	n/a	n/a	2	8	Blank	AvoidedLoss	True
91.224	1.45	Lose2	0.8889	n/a	Yes	3.024	n/a	5.0	GoodResponse	0	0.019	90.243	2	8	Feedback	AvoidedLoss	True
92.679	3.024	Lose2	0.8889	n/a	Yes	3.024	n/a	n/a	GoodResponse	0	0.0	n/a	2	8	ISIslide	AvoidedLoss	True
95.721	0.25	Lose2	0.9	0.0	Yes	3.129	0.021	n/a	GoodResponse	0	n/a	n/a	2	9	Cue	AvoidedLoss	True
95.972	3.95	Lose2	0.9	0.0	Yes	3.129	0.001	n/a	GoodResponse	0	n/a	n/a	2	9	Fixation	AvoidedLoss	True
99.917	0.31	Lose2	0.9	0.004	Yes	3.129	-0.004	1.0	GoodResponse	0	0.216	99.133	2	9	Target	AvoidedLoss	True
100.133	0.3	Lose2	0.9	0.004	Yes	3.129	-0.004	1.0	GoodResponse	0	0.216	n/a	2	9	ButtonPress	AvoidedLoss	True
100.235	0.39	Lose2	0.9	n/a	Yes	3.129	n/a	n/a	GoodResponse	0	n/a	n/a	2	9	Blank	AvoidedLoss	True
100.619	1.45	Lose2	0.9	n/a	Yes	3.129	n/a	5.0	GoodResponse	0	0.039	99.658	2	9	Feedback	AvoidedLoss	True
102.074	3.129	Lose2	0.9	n/a	Yes	3.129	n/a	n/a	GoodResponse	0	0.0	n/a	2	9	ISIslide	AvoidedLoss	True
105.216	0.25	Control	0.8181999999999999	0.0	No	3.284	0.016	n/a	NoResponse	0	n/a	n/a	2	10	Cue	Neutral	True
105.467	4.0	Control	0.8181999999999999	0.0	No	3.284	0.001	1.0	NoResponse	0	3.976	108.443	2	10	Fixation	Neutral	True
109.443	0.3	Control	0.8181999999999999	0.0	No	3.284	0.001	1.0	NoResponse	0	3.976	n/a	2	10	ButtonPress	Neutral	True
109.462	0.3	Control	0.8181999999999999	0.004	No	3.284	-0.004	n/a	NoResponse	0	n/a	n/a	2	10	Target	Neutral	True
109.763	0.4	Control	0.8181999999999999	n/a	No	3.284	n/a	n/a	NoResponse	0	n/a	n/a	2	10	Blank	Neutral	True
110.164	1.45	Control	0.8181999999999999	n/a	No	3.284	n/a	5.0	NoResponse	0	0.007	109.171	2	10	Feedback	Neutral	True
111.619	3.284	Control	0.8181999999999999	n/a	No	3.284	n/a	n/a	NoResponse	0	0.0	n/a	2	10	ISIslide	Neutral	True
114.929	0.25	Lose2	0.8332999999999999	0.0	Yes	2.721	0.029	n/a	GoodResponse	0	n/a	n/a	2	11	Cue	AvoidedLoss	True
115.179	4.05	Lose2	0.8332999999999999	0.001	Yes	2.721	0.0	n/a	GoodResponse	0	n/a	n/a	2	11	Fixation	AvoidedLoss	True
119.225	0.29	Lose2	0.8332999999999999	0.004	Yes	2.721	-0.004	1.0	GoodResponse	0	0.217	118.442	2	11	Target	AvoidedLoss	True
119.442	0.3	Lose2	0.8332999999999999	0.004	Yes	2.721	-0.004	1.0	GoodResponse	0	0.217	n/a	2	11	ButtonPress	AvoidedLoss	True
119.526	0.41	Lose2	0.8332999999999999	n/a	Yes	2.721	n/a	n/a	GoodResponse	0	n/a	n/a	2	11	Blank	AvoidedLoss	True
119.927	1.45	Lose2	0.8332999999999999	n/a	Yes	2.721	n/a	5.0	GoodResponse	0	0.048	118.975	2	11	Feedback	AvoidedLoss	True
121.381	2.721	Lose2	0.8332999999999999	n/a	Yes	2.721	n/a	n/a	GoodResponse	0	0.0	n/a	2	11	ISIslide	AvoidedLoss	True
124.123	0.25	Control	0.7692	0.0	No	2.977	0.023	n/a	NoResponse	0	n/a	n/a	2	12	Cue	Neutral	True
124.374	3.9	Control	0.7692	0.0	No	2.977	0.001	n/a	NoResponse	0	n/a	n/a	2	12	Fixation	Neutral	True
128.269	0.28	Control	0.7692	0.004	No	2.977	-0.004	1.0	NoResponse	0	0.291	127.56	2	12	Target	Neutral	True
128.553	0.42	Control	0.7692	n/a	No	2.977	n/a	n/a	NoResponse	0	n/a	n/a	2	12	Blank	Neutral	True
128.56	0.3	Control	0.7692	0.004	No	2.977	-0.004	1.0	NoResponse	0	0.291	n/a	2	12	ButtonPress	Neutral	True
128.971	1.45	Control	0.7692	n/a	No	2.977	n/a	5.0	NoResponse	0	0.028	127.999	2	12	Feedback	Neutral	True
130.425	2.977	Control	0.7692	n/a	No	2.977	n/a	n/a	NoResponse	0	0.0	n/a	2	12	ISIslide	Neutral	True
133.417	0.25	Control	0.7857	0.0	Yes	2.783	0.017	n/a	GoodResponse	0	n/a	n/a	2	13	Cue	Neutral	True
133.668	4.0	Control	0.7857	0.0	Yes	2.783	0.001	n/a	GoodResponse	0	n/a	n/a	2	13	Fixation	Neutral	True
137.663	0.27	Control	0.7857	0.004	Yes	2.783	-0.004	1.0	GoodResponse	0	0.222	136.885	2	13	Target	Neutral	True
137.885	0.3	Control	0.7857	0.004	Yes	2.783	-0.004	1.0	GoodResponse	0	0.222	n/a	2	13	ButtonPress	Neutral	True
137.948	0.43	Control	0.7857	n/a	Yes	2.783	n/a	n/a	GoodResponse	0	n/a	n/a	2	13	Blank	Neutral	True
138.366	1.45	Control	0.7857	n/a	Yes	2.783	n/a	5.0	GoodResponse	0	0.047	137.413	2	13	Feedback	Neutral	True
139.82	2.783	Control	0.7857	n/a	Yes	2.783	n/a	n/a	GoodResponse	0	0.0	n/a	2	13	ISIslide	Neutral	True
142.628	0.25	Win2	0.8	0.0	Yes	2.672	0.028	n/a	GoodResponse	1	n/a	n/a	3	14	Cue	Win	True
142.879	4.1	Win2	0.8	0.0	Yes	2.672	0.001	n/a	GoodResponse	1	n/a	n/a	3	14	Fixation	Win	True
146.975	0.26	Win2	0.8	0.003	Yes	2.672	-0.003	1.0	GoodResponse	1	0.218	146.193	3	14	Target	Win	True
147.193	0.3	Win2	0.8	0.003	Yes	2.672	-0.003	1.0	GoodResponse	1	0.218	n/a	3	14	ButtonPress	Win	True
147.242	0.44	Win2	0.8	n/a	Yes	2.672	n/a	n/a	GoodResponse	1	n/a	n/a	3	14	Blank	Win	True
147.677	1.45	Win2	0.8	n/a	Yes	2.672	n/a	5.0	GoodResponse	1	0.005	146.682	3	14	Feedback	Win	True
149.131	2.672	Win2	0.8	n/a	Yes	2.672	n/a	n/a	GoodResponse	1	0.0	n/a	3	14	ISIslide	Win	True
151.822	0.25	Control	0.75	0.001	No	2.978	0.022	n/a	NoResponse	0	n/a	n/a	3	15	Cue	Neutral	False
152.073	4.0	Control	0.75	0.0	No	2.978	0.001	n/a	NoResponse	0	n/a	n/a	3	15	Fixation	Neutral	False
156.068	0.25	Control	0.75	0.004	No	2.978	-0.004	n/a	NoResponse	0	n/a	n/a	3	15	Target	Neutral	False
156.319	0.45	Control	0.75	n/a	No	2.978	n/a	n/a	NoResponse	0	n/a	n/a	3	15	Blank	Neutral	False
156.771	1.45	Control	0.75	n/a	No	2.978	n/a	5.0	NoResponse	0	0.033	155.804	3	15	Feedback	Neutral	False
158.225	2.978	Control	0.75	n/a	No	2.978	n/a	n/a	NoResponse	0	0.0	n/a	3	15	ISIslide	Neutral	False
161.217	0.25	Win2	0.7646999999999999	0.0	Yes	2.883	0.017	n/a	GoodResponse	1	n/a	n/a	4	16	Cue	Win	True
161.468	4.0	Win2	0.7646999999999999	0.0	Yes	2.883	0.001	n/a	GoodResponse	1	n/a	n/a	4	16	Fixation	Win	True
165.463	0.24	Win2	0.7646999999999999	0.004	Yes	2.883	-0.004	1.0	GoodResponse	1	0.225	164.688	4	16	Target	Win	True
165.688	0.3	Win2	0.7646999999999999	0.004	Yes	2.883	-0.004	1.0	GoodResponse	1	0.225	n/a	4	16	ButtonPress	Win	True
165.714	0.46	Win2	0.7646999999999999	n/a	Yes	2.883	n/a	n/a	GoodResponse	1	n/a	n/a	4	16	Blank	Win	True
166.165	1.45	Win2	0.7646999999999999	n/a	Yes	2.883	n/a	5.0	GoodResponse	1	0.006	165.171	4	16	Feedback	Win	True
167.62	2.883	Win2	0.7646999999999999	n/a	Yes	2.883	n/a	n/a	GoodResponse	1	0.0	n/a	4	16	ISIslide	Win	True
170.528	0.25	Lose2	0.7778	0.001	Yes	2.722	0.028	n/a	GoodResponse	0	n/a	n/a	4	17	Cue	AvoidedLoss	True
170.779	3.95	Lose2	0.7778	0.0	Yes	2.722	0.001	n/a	GoodResponse	0	n/a	n/a	4	17	Fixation	AvoidedLoss	True
174.724	0.23	Lose2	0.7778	0.004	Yes	2.722	-0.004	1.0	GoodResponse	0	0.185	173.909	4	17	Target	AvoidedLoss	True
174.909	0.3	Lose2	0.7778	0.004	Yes	2.722	-0.004	1.0	GoodResponse	0	0.185	n/a	4	17	ButtonPress	AvoidedLoss	True
174.958	0.47	Lose2	0.7778	n/a	Yes	2.722	n/a	n/a	GoodResponse	0	n/a	n/a	4	17	Blank	AvoidedLoss	True
175.426	1.45	Lose2	0.7778	n/a	Yes	2.722	n/a	5.0	GoodResponse	0	0.012	174.438	4	17	Feedback	AvoidedLoss	True
176.881	2.722	Lose2	0.7778	n/a	Yes	2.722	n/a	n/a	GoodResponse	0	0.0	n/a	4	17	ISIslide	AvoidedLoss	True
179.622	0.25	Lose2	0.7895	0.0	Yes	2.728	0.022	n/a	GoodResponse	0	n/a	n/a	4	18	Cue	AvoidedLoss	True
179.873	4.05	Lose2	0.7895	0.0	Yes	2.728	0.001	n/a	GoodResponse	0	n/a	n/a	4	18	Fixation	AvoidedLoss	True
183.919	0.22	Lose2	0.7895	0.003	Yes	2.728	-0.003	1.0	GoodResponse	0	0.207	183.126	4	18	Target	AvoidedLoss	True
184.126	0.3	Lose2	0.7895	0.003	Yes	2.728	-0.003	1.0	GoodResponse	0	0.207	n/a	4	18	ButtonPress	AvoidedLoss	True
184.153	0.48	Lose2	0.7895	n/a	Yes	2.728	n/a	n/a	GoodResponse	0	n/a	n/a	4	18	Blank	AvoidedLoss	True
184.621	1.45	Lose2	0.7895	n/a	Yes	2.728	n/a	5.0	GoodResponse	0	0.036	183.657	4	18	Feedback	AvoidedLoss	True
186.075	2.728	Lose2	0.7895	n/a	Yes	2.728	n/a	n/a	GoodResponse	0	0.0	n/a	4	18	ISIslide	AvoidedLoss	True
188.817	0.25	Control	0.75	0.0	No	2.933	0.017	n/a	NoResponse	0	n/a	n/a	4	19	Cue	Neutral	True
189.067	3.95	Control	0.75	0.0	No	2.933	0.0	n/a	NoResponse	0	n/a	n/a	4	19	Fixation	Neutral	True
193.029	0.21	Control	0.75	0.0	No	2.933	0.012	1.0	NoResponse	0	0.239	192.268	4	19	Target	Neutral	True
193.23	0.49	Control	0.75	n/a	No	2.933	n/a	n/a	NoResponse	0	n/a	n/a	4	19	Blank	Neutral	True
193.268	0.3	Control	0.75	0.0	No	2.933	0.012	1.0	NoResponse	0	0.239	n/a	4	19	ButtonPress	Neutral	True
193.715	1.45	Control	0.75	n/a	No	2.933	n/a	5.0	NoResponse	0	0.015	192.73	4	19	Feedback	Neutral	True
195.169	2.933	Control	0.75	n/a	No	2.933	n/a	n/a	NoResponse	0	0.0	n/a	4	19	ISIslide	Neutral	True
198.128	0.25	Control	0.7143	0.0	No	2.622	0.028	n/a	NoResponse	0	n/a	n/a	4	20	Cue	Neutral	False
198.378	4.05	Control	0.7143	0.001	No	2.622	0.0	1.0	NoResponse	0	4.046	201.424	4	20	Fixation	Neutral	False
202.424	0.2	Control	0.7143	0.004	No	2.622	-0.004	1.0	NoResponse	0	0.0	201.424	4	20	Target	Neutral	False
202.424	0.3	Control	0.7143	0.001	No	2.622	0.0	1.0	NoResponse	0	4.046	n/a	4	20	ButtonPress	Neutral	False
202.424	0.3	Control	0.7143	0.004	No	2.622	-0.004	1.0	NoResponse	0	0.0	n/a	4	20	ButtonPress	Neutral	False
202.625	0.5	Control	0.7143	n/a	No	2.622	n/a	n/a	NoResponse	0	n/a	n/a	4	20	Blank	Neutral	False
203.126	1.45	Control	0.7143	n/a	No	2.622	n/a	5.0	NoResponse	0	0.019	202.145	4	20	Feedback	Neutral	False
204.58	2.622	Control	0.7143	n/a	No	2.622	n/a	n/a	NoResponse	0	0.0	n/a	4	20	ISIslide	Neutral	False
207.222	0.25	Control	0.6818000000000001	0.0	No	2.778	0.022	n/a	NoResponse	0	n/a	n/a	4	21	Cue	Neutral	True
207.472	4.1	Control	0.6818000000000001	0.0	No	2.778	0.0	n/a	NoResponse	0	n/a	n/a	4	21	Fixation	Neutral	True
211.568	0.19	Control	0.6818000000000001	0.004	No	2.778	-0.004	1.0	NoResponse	0	0.265	210.833	4	21	Target	Neutral	True
211.769	0.51	Control	0.6818000000000001	n/a	No	2.778	n/a	n/a	NoResponse	0	n/a	n/a	4	21	Blank	Neutral	True
211.833	0.3	Control	0.6818000000000001	0.004	No	2.778	-0.004	1.0	NoResponse	0	0.265	n/a	4	21	ButtonPress	Neutral	True
212.27	1.45	Control	0.6818000000000001	n/a	No	2.778	n/a	5.0	NoResponse	0	0.045	211.315	4	21	Feedback	Neutral	True
213.724	2.778	Control	0.6818000000000001	n/a	No	2.778	n/a	n/a	NoResponse	0	0.0	n/a	4	21	ISIslide	Neutral	True
216.516	0.25	Control	0.6957	0.0	Yes	2.784	0.016	n/a	GoodResponse	0	n/a	n/a	4	22	Cue	Neutral	True
216.767	4.0	Control	0.6957	0.0	Yes	2.784	0.001	n/a	GoodResponse	0	n/a	n/a	4	22	Fixation	Neutral	True
220.762	0.18	Control	0.6957	0.004	Yes	2.784	-0.004	1.0	GoodResponse	0	0.178	219.94	4	22	Target	Neutral	True
220.94	0.3	Control	0.6957	0.004	Yes	2.784	-0.004	1.0	GoodResponse	0	0.178	n/a	4	22	ButtonPress	Neutral	True
220.946	0.52	Control	0.6957	n/a	Yes	2.784	n/a	n/a	GoodResponse	0	n/a	n/a	4	22	Blank	Neutral	True
221.464	1.45	Control	0.6957	n/a	Yes	2.784	n/a	5.0	GoodResponse	0	0.022	220.486	4	22	Feedback	Neutral	True
222.919	2.784	Control	0.6957	n/a	Yes	2.784	n/a	n/a	GoodResponse	0	0.0	n/a	4	22	ISIslide	Neutral	True
225.727	0.25	Control	0.6667000000000001	0.0	No	2.773	0.027	n/a	NoResponse	0	n/a	n/a	4	23	Cue	Neutral	True
225.978	3.9	Control	0.6667000000000001	0.0	No	2.773	0.001	n/a	NoResponse	0	n/a	n/a	4	23	Fixation	Neutral	True
229.873	0.17	Control	0.6667000000000001	0.004	No	2.773	-0.004	1.0	NoResponse	0	0.227	229.1	4	23	Target	Neutral	True
230.057	0.53	Control	0.6667000000000001	n/a	No	2.773	n/a	n/a	NoResponse	0	n/a	n/a	4	23	Blank	Neutral	True
230.1	0.3	Control	0.6667000000000001	0.004	No	2.773	-0.004	1.0	NoResponse	0	0.227	n/a	4	23	ButtonPress	Neutral	True
230.575	1.45	Control	0.6667000000000001	n/a	No	2.773	n/a	5.0	NoResponse	0	0.033	229.608	4	23	Feedback	Neutral	True
232.029	2.773	Control	0.6667000000000001	n/a	No	2.773	n/a	n/a	NoResponse	0	0.0	n/a	4	23	ISIslide	Neutral	True
234.821	0.25	Win2	0.64	0.0	No	3.129	0.021	n/a	NoResponse	0	n/a	n/a	4	24	Cue	MissedWin	True
235.072	3.95	Win2	0.64	0.0	No	3.129	0.001	n/a	NoResponse	0	n/a	n/a	4	24	Fixation	MissedWin	True
239.017	0.16	Win2	0.64	0.004	No	3.129	-0.004	1.0	NoResponse	0	0.298	238.315	4	24	Target	MissedWin	True
239.184	0.54	Win2	0.64	n/a	No	3.129	n/a	n/a	NoResponse	0	n/a	n/a	4	24	Blank	MissedWin	True
239.315	0.3	Win2	0.64	0.004	No	3.129	-0.004	1.0	NoResponse	0	0.298	n/a	4	24	ButtonPress	MissedWin	True
239.719	1.45	Win2	0.64	n/a	No	3.129	n/a	5.0	NoResponse	0	0.01	238.729	4	24	Feedback	MissedWin	True
241.173	3.129	Win2	0.64	n/a	No	3.129	n/a	n/a	NoResponse	0	0.0	n/a	4	24	ISIslide	MissedWin	True
244.316	0.25	Win2	0.6154	0.0	No	3.084	0.016	n/a	NoResponse	0	n/a	n/a	4	25	Cue	MissedWin	True
244.567	4.0	Win2	0.6154	0.0	No	3.084	0.001	n/a	NoResponse	0	n/a	n/a	4	25	Fixation	MissedWin	True
248.562	0.17	Win2	0.6154	0.004	No	3.084	-0.004	1.0	NoResponse	0	0.195	247.757	4	25	Target	MissedWin	True
248.746	0.53	Win2	0.6154	n/a	No	3.084	n/a	n/a	NoResponse	0	n/a	n/a	4	25	Blank	MissedWin	True
248.757	0.3	Win2	0.6154	0.004	No	3.084	-0.004	1.0	NoResponse	0	0.195	n/a	4	25	ButtonPress	MissedWin	True
249.264	1.45	Win2	0.6154	n/a	No	3.084	n/a	5.0	NoResponse	0	0.026	248.29	4	25	Feedback	MissedWin	True
250.718	3.084	Win2	0.6154	n/a	No	3.084	n/a	n/a	NoResponse	0	0.0	n/a	4	25	ISIslide	MissedWin	True
253.828	0.25	Win2	0.5926	0.0	No	2.922	0.028	n/a	NoResponse	0	n/a	n/a	4	26	Cue	MissedWin	True
254.079	3.95	Win2	0.5926	0.0	No	2.922	0.001	n/a	NoResponse	0	n/a	n/a	4	26	Fixation	MissedWin	True
258.024	0.18	Win2	0.5926	0.004	No	2.922	-0.004	1.0	NoResponse	0	0.192	257.216	4	26	Target	MissedWin	True
258.208	0.52	Win2	0.5926	n/a	No	2.922	n/a	n/a	NoResponse	0	n/a	n/a	4	26	Blank	MissedWin	True
258.216	0.3	Win2	0.5926	0.004	No	2.922	-0.004	1.0	NoResponse	0	0.192	n/a	4	26	ButtonPress	MissedWin	True
258.726	1.45	Win2	0.5926	n/a	No	2.922	n/a	5.0	NoResponse	0	0.028	257.754	4	26	Feedback	MissedWin	True
260.18	2.922	Win2	0.5926	n/a	No	2.922	n/a	n/a	NoResponse	0	0.0	n/a	4	26	ISIslide	MissedWin	True
263.122	0.25	Lose2	0.5714	0.0	No	2.828	0.022	n/a	NoResponse	-1	n/a	n/a	3	27	Cue	Loss	True
263.373	4.05	Lose2	0.5714	0.0	No	2.828	0.001	1.0	NoResponse	-1	3.89	266.263	3	27	Fixation	Loss	True
267.263	0.3	Lose2	0.5714	0.0	No	2.828	0.001	1.0	NoResponse	-1	3.89	n/a	3	27	ButtonPress	Loss	True
267.418	0.19	Lose2	0.5714	0.004	No	2.828	-0.004	n/a	NoResponse	-1	n/a	n/a	3	27	Target	Loss	True
267.619	0.51	Lose2	0.5714	n/a	No	2.828	n/a	n/a	NoResponse	-1	n/a	n/a	3	27	Blank	Loss	True
268.121	1.45	Lose2	0.5714	n/a	No	2.828	n/a	5.0	NoResponse	-1	0.048	267.169	3	27	Feedback	Loss	True
269.575	2.828	Lose2	0.5714	n/a	No	2.828	n/a	n/a	NoResponse	-1	0.0	n/a	3	27	ISIslide	Loss	True
272.417	0.25	Control	0.5861999999999999	0.0	Yes	2.833	0.017	n/a	GoodResponse	0	n/a	n/a	3	28	Cue	Neutral	True
272.668	4.05	Control	0.5861999999999999	0.0	Yes	2.833	0.001	n/a	GoodResponse	0	n/a	n/a	3	28	Fixation	Neutral	True
276.713	0.2	Control	0.5861999999999999	0.004	Yes	2.833	-0.004	1.0	GoodResponse	0	0.168	275.881	3	28	Target	Neutral	True
276.881	0.3	Control	0.5861999999999999	0.004	Yes	2.833	-0.004	1.0	GoodResponse	0	0.168	n/a	3	28	ButtonPress	Neutral	True
276.914	0.5	Control	0.5861999999999999	n/a	Yes	2.833	n/a	n/a	GoodResponse	0	n/a	n/a	3	28	Blank	Neutral	True
277.415	1.45	Control	0.5861999999999999	n/a	Yes	2.833	n/a	5.0	GoodResponse	0	0.022	276.437	3	28	Feedback	Neutral	True
278.869	2.833	Control	0.5861999999999999	n/a	Yes	2.833	n/a	n/a	GoodResponse	0	0.0	n/a	3	28	ISIslide	Neutral	True
281.728	0.25	Lose2	0.6	0.0	Yes	2.822	0.028	n/a	GoodResponse	0	n/a	n/a	3	29	Cue	AvoidedLoss	True
281.979	3.95	Lose2	0.6	0.0	Yes	2.822	0.001	n/a	GoodResponse	0	n/a	n/a	3	29	Fixation	AvoidedLoss	True
285.924	0.21	Lose2	0.6	0.004	Yes	2.822	-0.004	1.0	GoodResponse	0	0.192	285.116	3	29	Target	AvoidedLoss	True
286.116	0.3	Lose2	0.6	0.004	Yes	2.822	-0.004	1.0	GoodResponse	0	0.192	n/a	3	29	ButtonPress	AvoidedLoss	True
286.141	0.49	Lose2	0.6	n/a	Yes	2.822	n/a	n/a	GoodResponse	0	n/a	n/a	3	29	Blank	AvoidedLoss	True
286.626	1.45	Lose2	0.6	n/a	Yes	2.822	n/a	5.0	GoodResponse	0	0.03	285.656	3	29	Feedback	AvoidedLoss	True
288.08	2.822	Lose2	0.6	n/a	Yes	2.822	n/a	n/a	GoodResponse	0	0.0	n/a	3	29	ISIslide	AvoidedLoss	True
290.922	0.25	Win2	0.6129	0.0	Yes	2.778	0.022	n/a	GoodResponse	1	n/a	n/a	4	30	Cue	Win	True
291.173	3.9	Win2	0.6129	0.0	Yes	2.778	0.001	n/a	GoodResponse	1	n/a	n/a	4	30	Fixation	Win	True
295.068	0.22	Win2	0.6129	0.004	Yes	2.778	-0.004	1.0	GoodResponse	1	0.195	294.263	4	30	Target	Win	True
295.263	0.3	Win2	0.6129	0.004	Yes	2.778	-0.004	1.0	GoodResponse	1	0.195	n/a	4	30	ButtonPress	Win	True
295.302	0.48	Win2	0.6129	n/a	Yes	2.778	n/a	n/a	GoodResponse	1	n/a	n/a	4	30	Blank	Win	True
295.77	1.45	Win2	0.6129	n/a	Yes	2.778	n/a	5.0	GoodResponse	1	0.008	294.778	4	30	Feedback	Win	True
297.224	2.778	Win2	0.6129	n/a	Yes	2.778	n/a	n/a	GoodResponse	1	0.0	n/a	4	30	ISIslide	Win	True
300.016	0.25	Lose2	0.5938	0.0	No	2.834	0.016	n/a	NoResponse	-1	n/a	n/a	3	31	Cue	Loss	True
300.267	4.05	Lose2	0.5938	0.0	No	2.834	0.001	n/a	NoResponse	-1	n/a	n/a	3	31	Fixation	Loss	True
304.312	0.23	Lose2	0.5938	0.004	No	2.834	-0.004	1.0	NoResponse	-1	0.283	303.595	3	31	Target	Loss	True
304.546	0.47	Lose2	0.5938	n/a	No	2.834	n/a	n/a	NoResponse	-1	n/a	n/a	3	31	Blank	Loss	True
304.595	0.3	Lose2	0.5938	0.004	No	2.834	-0.004	1.0	NoResponse	-1	0.283	n/a	3	31	ButtonPress	Loss	True
305.014	1.45	Lose2	0.5938	n/a	No	2.834	n/a	5.0	NoResponse	-1	0.032	304.046	3	31	Feedback	Loss	True
306.469	2.834	Lose2	0.5938	n/a	No	2.834	n/a	n/a	NoResponse	-1	0.0	n/a	3	31	ISIslide	Loss	True
309.327	0.25	Lose2	0.6061	0.0	Yes	2.623	0.027	n/a	GoodResponse	0	n/a	n/a	3	32	Cue	AvoidedLoss	True
309.578	4.15	Lose2	0.6061	0.0	Yes	2.623	0.001	n/a	GoodResponse	0	n/a	n/a	3	32	Fixation	AvoidedLoss	True
313.724	0.24	Lose2	0.6061	0.003	Yes	2.623	-0.003	1.0	GoodResponse	0	0.174	312.898	3	32	Target	AvoidedLoss	True
313.898	0.3	Lose2	0.6061	0.003	Yes	2.623	-0.003	1.0	GoodResponse	0	0.174	n/a	3	32	ButtonPress	AvoidedLoss	True
313.974	0.46	Lose2	0.6061	n/a	Yes	2.623	n/a	n/a	GoodResponse	0	n/a	n/a	3	32	Blank	AvoidedLoss	True
314.426	1.45	Lose2	0.6061	n/a	Yes	2.623	n/a	5.0	GoodResponse	0	0.035	313.461	3	32	Feedback	AvoidedLoss	True
315.88	2.623	Lose2	0.6061	n/a	Yes	2.623	n/a	n/a	GoodResponse	0	0.0	n/a	3	32	ISIslide	AvoidedLoss	True
318.521	0.25	Win2	0.6175999999999999	0.001	Yes	2.679	0.021	n/a	GoodResponse	1	n/a	n/a	4	33	Cue	Win	True
318.772	4.0	Win2	0.6175999999999999	0.0	Yes	2.679	0.001	n/a	GoodResponse	1	n/a	n/a	4	33	Fixation	Win	True
322.767	0.25	Win2	0.6175999999999999	0.004	Yes	2.679	-0.004	1.0	GoodResponse	1	0.162	321.929	4	33	Target	Win	True
322.929	0.3	Win2	0.6175999999999999	0.004	Yes	2.679	-0.004	1.0	GoodResponse	1	0.162	n/a	4	33	ButtonPress	Win	True
323.018	0.45	Win2	0.6175999999999999	n/a	Yes	2.679	n/a	n/a	GoodResponse	1	n/a	n/a	4	33	Blank	Win	True
323.47	1.45	Win2	0.6175999999999999	n/a	Yes	2.679	n/a	5.0	GoodResponse	1	0.015	322.485	4	33	Feedback	Win	True
324.924	2.679	Win2	0.6175999999999999	n/a	Yes	2.679	n/a	n/a	GoodResponse	1	0.0	n/a	4	33	ISIslide	Win	True
327.615	0.25	Lose2	0.6286	0.0	Yes	2.635	0.015	n/a	GoodResponse	0	n/a	n/a	4	34	Cue	AvoidedLoss	True
327.866	4.05	Lose2	0.6286	0.0	Yes	2.635	0.001	n/a	GoodResponse	0	n/a	n/a	4	34	Fixation	AvoidedLoss	True
331.912	0.26	Lose2	0.6286	0.003	Yes	2.635	-0.003	1.0	GoodResponse	0	0.182	331.094	4	34	Target	AvoidedLoss	True
332.094	0.3	Lose2	0.6286	0.003	Yes	2.635	-0.003	1.0	GoodResponse	0	0.182	n/a	4	34	ButtonPress	AvoidedLoss	True
332.179	0.44	Lose2	0.6286	n/a	Yes	2.635	n/a	n/a	GoodResponse	0	n/a	n/a	4	34	Blank	AvoidedLoss	True
332.614	1.45	Lose2	0.6286	n/a	Yes	2.635	n/a	5.0	GoodResponse	0	0.042	331.656	4	34	Feedback	AvoidedLoss	True
334.068	2.635	Lose2	0.6286	n/a	Yes	2.635	n/a	n/a	GoodResponse	0	0.0	n/a	4	34	ISIslide	AvoidedLoss	True
336.726	0.25	Lose2	0.6111	0.0	No	2.674	0.026	n/a	NoResponse	-1	n/a	n/a	3	35	Cue	Loss	False
336.977	4.0	Lose2	0.6111	0.0	No	2.674	0.001	1.0	NoResponse	-1	3.895	339.872	3	35	Fixation	Loss	False
340.872	0.3	Lose2	0.6111	0.0	No	2.674	0.001	1.0	NoResponse	-1	3.895	n/a	3	35	ButtonPress	Loss	False
340.972	0.27	Lose2	0.6111	0.004	No	2.674	-0.004	1.0	NoResponse	-1	0.484	340.456	3	35	Target	Loss	False
341.256	0.43	Lose2	0.6111	n/a	No	2.674	n/a	n/a	NoResponse	-1	n/a	n/a	3	35	Blank	Loss	False
341.456	0.3	Lose2	0.6111	0.004	No	2.674	-0.004	1.0	NoResponse	-1	0.484	n/a	3	35	ButtonPress	Loss	False
341.674	1.45	Lose2	0.6111	n/a	No	2.674	n/a	5.0	NoResponse	-1	0.007	340.681	3	35	Feedback	Loss	False
343.128	2.674	Lose2	0.6111	n/a	No	2.674	n/a	n/a	NoResponse	-1	0.0	n/a	3	35	ISIslide	Loss	False
345.82	0.25	Control	0.5946	0.0	No	2.68	0.02	n/a	NoResponse	0	n/a	n/a	3	36	Cue	Neutral	True
346.071	4.0	Control	0.5946	0.0	No	2.68	0.001	n/a	NoResponse	0	n/a	n/a	3	36	Fixation	Neutral	True
350.066	0.28	Control	0.5946	0.004	No	2.68	-0.004	1.0	NoResponse	0	0.292	349.358	3	36	Target	Neutral	True
350.35	0.42	Control	0.5946	n/a	No	2.68	n/a	n/a	NoResponse	0	n/a	n/a	3	36	Blank	Neutral	True
350.358	0.3	Control	0.5946	0.004	No	2.68	-0.004	1.0	NoResponse	0	0.292	n/a	3	36	ButtonPress	Neutral	True
350.768	1.45	Control	0.5946	n/a	No	2.68	n/a	5.0	NoResponse	0	0.034	349.802	3	36	Feedback	Neutral	True
352.222	2.68	Control	0.5946	n/a	No	2.68	n/a	n/a	NoResponse	0	0.0	n/a	3	36	ISIslide	Neutral	True
354.93	0.25	Win2	0.6053000000000001	0.0	Yes	2.87	0.03	n/a	GoodResponse	1	n/a	n/a	4	37	Cue	Win	True
355.181	4.0	Win2	0.6053000000000001	0.0	Yes	2.87	0.001	n/a	GoodResponse	1	n/a	n/a	4	37	Fixation	Win	True
359.176	0.29	Win2	0.6053000000000001	0.004	Yes	2.87	-0.004	1.0	GoodResponse	1	0.207	358.383	4	37	Target	Win	True
359.383	0.3	Win2	0.6053000000000001	0.004	Yes	2.87	-0.004	1.0	GoodResponse	1	0.207	n/a	4	37	ButtonPress	Win	True
359.477	0.41	Win2	0.6053000000000001	n/a	Yes	2.87	n/a	n/a	GoodResponse	1	n/a	n/a	4	37	Blank	Win	True
359.879	1.45	Win2	0.6053000000000001	n/a	Yes	2.87	n/a	5.0	GoodResponse	1	0.045	358.924	4	37	Feedback	Win	True
361.333	2.87	Win2	0.6053000000000001	n/a	Yes	2.87	n/a	n/a	GoodResponse	1	0.0	n/a	4	37	ISIslide	Win	True
364.225	0.25	Lose2	0.6154	0.0	Yes	2.825	0.025	n/a	GoodResponse	0	n/a	n/a	4	38	Cue	AvoidedLoss	True
364.476	3.95	Lose2	0.6154	0.0	Yes	2.825	0.001	n/a	GoodResponse	0	n/a	n/a	4	38	Fixation	AvoidedLoss	True
368.421	0.3	Lose2	0.6154	0.004	Yes	2.825	-0.004	1.0	GoodResponse	0	0.158	367.579	4	38	Target	AvoidedLoss	True
368.579	0.3	Lose2	0.6154	0.004	Yes	2.825	-0.004	1.0	GoodResponse	0	0.158	n/a	4	38	ButtonPress	AvoidedLoss	True
368.722	0.4	Lose2	0.6154	n/a	Yes	2.825	n/a	n/a	GoodResponse	0	n/a	n/a	4	38	Blank	AvoidedLoss	True
369.123	1.45	Lose2	0.6154	n/a	Yes	2.825	n/a	5.0	GoodResponse	0	0.02	368.143	4	38	Feedback	AvoidedLoss	True
370.577	2.825	Lose2	0.6154	n/a	Yes	2.825	n/a	n/a	GoodResponse	0	0.0	n/a	4	38	ISIslide	AvoidedLoss	True
373.419	0.25	Win2	0.625	0.0	Yes	2.981	0.019	n/a	GoodResponse	1	n/a	n/a	5	39	Cue	Win	True
373.67	4.1	Win2	0.625	0.0	Yes	2.981	0.001	n/a	GoodResponse	1	n/a	n/a	5	39	Fixation	Win	True
377.765	0.31	Win2	0.625	0.004	Yes	2.981	-0.004	1.0	GoodResponse	1	0.135	376.9	5	39	Target	Win	True
377.9	0.3	Win2	0.625	0.004	Yes	2.981	-0.004	1.0	GoodResponse	1	0.135	n/a	5	39	ButtonPress	Win	True
378.083	0.39	Win2	0.625	n/a	Yes	2.981	n/a	n/a	GoodResponse	1	n/a	n/a	5	39	Blank	Win	True
378.468	1.45	Win2	0.625	n/a	Yes	2.981	n/a	5.0	GoodResponse	1	0.041	377.509	5	39	Feedback	Win	True
379.922	2.981	Win2	0.625	n/a	Yes	2.981	n/a	n/a	GoodResponse	1	0.0	n/a	5	39	ISIslide	Win	True
382.931	0.25	Win2	0.6098	0.0	No	2.719	0.031	n/a	LatePress	0	n/a	n/a	5	40	Cue	MissedWin	True
383.182	3.95	Win2	0.6098	0.0	No	2.719	0.001	n/a	LatePress	0	n/a	n/a	5	40	Fixation	MissedWin	True
387.127	0.32	Win2	0.6098	0.004	No	2.719	-0.004	1.0	LatePress	0	0.33	386.457	5	40	Target	MissedWin	True
387.457	0.3	Win2	0.6098	0.004	No	2.719	-0.004	1.0	LatePress	0	0.33	n/a	5	40	ButtonPress	MissedWin	True
387.461	0.38	Win2	0.6098	n/a	No	2.719	n/a	n/a	LatePress	0	n/a	n/a	5	40	Blank	MissedWin	True
387.829	1.45	Win2	0.6098	n/a	No	2.719	n/a	5.0	LatePress	0	0.045	386.874	5	40	Feedback	MissedWin	True
389.283	2.719	Win2	0.6098	n/a	No	2.719	n/a	n/a	LatePress	0	0.0	n/a	5	40	ISIslide	MissedWin	True
392.025	0.25	Win2	0.619	0.0	Yes	2.775	0.025	n/a	GoodResponse	1	n/a	n/a	6	41	Cue	Win	True
392.276	3.9	Win2	0.619	0.0	Yes	2.775	0.001	n/a	GoodResponse	1	n/a	n/a	6	41	Fixation	Win	True
396.171	0.33	Win2	0.619	0.004	Yes	2.775	-0.004	1.0	GoodResponse	1	0.201	395.372	6	41	Target	Win	True
396.372	0.3	Win2	0.619	0.004	Yes	2.775	-0.004	1.0	GoodResponse	1	0.201	n/a	6	41	ButtonPress	Win	True
396.505	0.37	Win2	0.619	n/a	Yes	2.775	n/a	n/a	GoodResponse	1	n/a	n/a	6	41	Blank	Win	True
396.873	1.45	Win2	0.619	n/a	Yes	2.775	n/a	5.0	GoodResponse	1	0.026	395.899	6	41	Feedback	Win	True
398.327	2.775	Win2	0.619	n/a	Yes	2.775	n/a	n/a	GoodResponse	1	0.0	n/a	6	41	ISIslide	Win	True
401.119	0.25	Control	0.6047	0.0	No	2.931	0.019	n/a	PrematurePress	0	n/a	n/a	6	42	Cue	Neutral	True
401.369	3.85	Control	0.6047	0.001	No	2.931	0.0	n/a	PrematurePress	0	n/a	n/a	6	42	Fixation	Neutral	True
405.231	0.34	Control	0.6047	0.0	No	2.931	0.012	1.0	PrematurePress	0	0.063	404.294	6	42	Target	Neutral	True
405.294	0.3	Control	0.6047	0.0	No	2.931	0.012	1.0	PrematurePress	0	0.063	n/a	6	42	ButtonPress	Neutral	True
405.565	0.36	Control	0.6047	n/a	No	2.931	n/a	n/a	PrematurePress	0	n/a	n/a	6	42	Blank	Neutral	True
405.916	1.45	Control	0.6047	n/a	No	2.931	n/a	5.0	PrematurePress	0	0.007	404.923	6	42	Feedback	Neutral	True
407.371	2.931	Control	0.6047	n/a	No	2.931	n/a	n/a	PrematurePress	0	0.0	n/a	6	42	ISIslide	Neutral	True
410.33	0.25	Win2	0.6136	0.0	Yes	3.17	0.03	n/a	GoodResponse	1	n/a	n/a	7	43	Cue	Win	True
410.58	4.0	Win2	0.6136	0.0	Yes	3.17	0.0	n/a	GoodResponse	1	n/a	n/a	7	43	Fixation	Win	True
414.576	0.35	Win2	0.6136	0.004	Yes	3.17	-0.004	1.0	GoodResponse	1	0.204	413.78	7	43	Target	Win	True
414.78	0.3	Win2	0.6136	0.004	Yes	3.17	-0.004	1.0	GoodResponse	1	0.204	n/a	7	43	ButtonPress	Win	True
414.927	0.35	Win2	0.6136	n/a	Yes	3.17	n/a	n/a	GoodResponse	1	n/a	n/a	7	43	Blank	Win	True
415.278	1.45	Win2	0.6136	n/a	Yes	3.17	n/a	5.0	GoodResponse	1	0.011	414.289	7	43	Feedback	Win	True
416.732	3.17	Win2	0.6136	n/a	Yes	3.17	n/a	n/a	GoodResponse	1	0.0	n/a	7	43	ISIslide	Win	True
419.925	0.25	Win2	0.6222	0.0	Yes	2.975	0.025	n/a	GoodResponse	1	n/a	n/a	8	44	Cue	Win	True
420.176	4.0	Win2	0.6222	0.0	Yes	2.975	0.001	n/a	GoodResponse	1	n/a	n/a	8	44	Fixation	Win	True
424.171	0.36	Win2	0.6222	0.004	Yes	2.975	-0.004	1.0	GoodResponse	1	0.282	423.453	8	44	Target	Win	True
424.453	0.3	Win2	0.6222	0.004	Yes	2.975	-0.004	1.0	GoodResponse	1	0.282	n/a	8	44	ButtonPress	Win	True
424.539	0.34	Win2	0.6222	n/a	Yes	2.975	n/a	n/a	GoodResponse	1	n/a	n/a	8	44	Blank	Win	True
424.873	1.45	Win2	0.6222	n/a	Yes	2.975	n/a	5.0	GoodResponse	1	0.026	423.899	8	44	Feedback	Win	True
426.327	2.975	Win2	0.6222	n/a	Yes	2.975	n/a	n/a	GoodResponse	1	0.0	n/a	8	44	ISIslide	Win	True
429.32	0.25	Control	0.6304	0.0	Yes	2.88	0.02	n/a	GoodResponse	0	n/a	n/a	8	45	Cue	Neutral	True
429.571	4.1	Control	0.6304	0.0	Yes	2.88	0.001	n/a	GoodResponse	0	n/a	n/a	8	45	Fixation	Neutral	True
433.666	0.37	Control	0.6304	0.004	Yes	2.88	-0.004	1.0	GoodResponse	0	0.359	433.025	8	45	Target	Neutral	True
434.025	0.3	Control	0.6304	0.004	Yes	2.88	-0.004	1.0	GoodResponse	0	0.359	n/a	8	45	ButtonPress	Neutral	True
434.051	0.33	Control	0.6304	n/a	Yes	2.88	n/a	n/a	GoodResponse	0	n/a	n/a	8	45	Blank	Neutral	True
434.368	1.45	Control	0.6304	n/a	Yes	2.88	n/a	5.0	GoodResponse	0	0.042	433.41	8	45	Feedback	Neutral	True
435.823	2.88	Control	0.6304	n/a	Yes	2.88	n/a	n/a	GoodResponse	0	0.0	n/a	8	45	ISIslide	Neutral	True
438.731	0.25	Lose2	0.617	0.0	No	3.369	0.031	n/a	NoResponse	-1	n/a	n/a	7	46	Cue	Loss	False
438.982	4.0	Lose2	0.617	0.0	No	3.369	0.001	1.0	NoResponse	-1	3.993	441.975	7	46	Fixation	Loss	False
442.975	0.3	Lose2	0.617	0.0	No	3.369	0.001	1.0	NoResponse	-1	3.993	n/a	7	46	ButtonPress	Loss	False
442.977	0.38	Lose2	0.617	0.004	No	3.369	-0.004	1.0	NoResponse	-1	0.426	442.403	7	46	Target	Loss	False
443.362	0.32	Lose2	0.617	n/a	No	3.369	n/a	n/a	NoResponse	-1	n/a	n/a	7	46	Blank	Loss	False
443.403	0.3	Lose2	0.617	0.004	No	3.369	-0.004	1.0	NoResponse	-1	0.426	n/a	7	46	ButtonPress	Loss	False
443.679	1.45	Lose2	0.617	n/a	No	3.369	n/a	5.0	NoResponse	-1	0.049	442.728	7	46	Feedback	Loss	False
445.134	3.369	Lose2	0.617	n/a	No	3.369	n/a	n/a	NoResponse	-1	0.0	n/a	7	46	ISIslide	Loss	False
448.527	0.25	Lose2	0.625	0.0	Yes	2.673	0.027	n/a	GoodResponse	0	n/a	n/a	7	47	Cue	AvoidedLoss	True
448.778	4.0	Lose2	0.625	0.0	Yes	2.673	0.001	n/a	GoodResponse	0	n/a	n/a	7	47	Fixation	AvoidedLoss	True
452.773	0.39	Lose2	0.625	0.004	Yes	2.673	-0.004	1.0	GoodResponse	0	0.154	451.927	7	47	Target	AvoidedLoss	True
452.927	0.3	Lose2	0.625	0.004	Yes	2.673	-0.004	1.0	GoodResponse	0	0.154	n/a	7	47	ButtonPress	AvoidedLoss	True
453.174	0.31	Lose2	0.625	n/a	Yes	2.673	n/a	n/a	GoodResponse	0	n/a	n/a	7	47	Blank	AvoidedLoss	True
453.475	1.45	Lose2	0.625	n/a	Yes	2.673	n/a	5.0	GoodResponse	0	0.009	452.484	7	47	Feedback	AvoidedLoss	True
454.93	2.673	Lose2	0.625	n/a	Yes	2.673	n/a	n/a	GoodResponse	0	0.0	n/a	7	47	ISIslide	AvoidedLoss	True
457.621	0.25	Lose2	0.6327	0.0	Yes	3.029	0.021	n/a	GoodResponse	0	n/a	n/a	7	48	Cue	AvoidedLoss	True
457.872	3.95	Lose2	0.6327	0.0	Yes	3.029	0.001	n/a	GoodResponse	0	n/a	n/a	7	48	Fixation	AvoidedLoss	True
461.817	0.4	Lose2	0.6327	0.004	Yes	3.029	-0.004	1.0	GoodResponse	0	0.262	461.079	7	48	Target	AvoidedLoss	True
462.079	0.3	Lose2	0.6327	0.004	Yes	3.029	-0.004	1.0	GoodResponse	0	0.262	n/a	7	48	ButtonPress	AvoidedLoss	True
462.218	0.3	Lose2	0.6327	n/a	Yes	3.029	n/a	n/a	GoodResponse	0	n/a	n/a	7	48	Blank	AvoidedLoss	True
462.519	1.45	Lose2	0.6327	n/a	Yes	3.029	n/a	5.0	GoodResponse	0	0.038	461.557	7	48	Feedback	AvoidedLoss	True
463.973	3.029	Lose2	0.6327	n/a	Yes	3.029	n/a	n/a	GoodResponse	0	0.0	n/a	7	48	ISIslide	AvoidedLoss	True
467.016	0.25	Control	0.64	0.0	Yes	2.884	0.016	n/a	GoodResponse	0	n/a	n/a	7	49	Cue	Neutral	False
467.267	4.0	Control	0.64	0.0	Yes	2.884	0.001	1.0	GoodResponse	0	3.543	469.81	7	49	Fixation	Neutral	False
470.81	0.3	Control	0.64	0.0	Yes	2.884	0.001	1.0	GoodResponse	0	3.543	n/a	7	49	ButtonPress	Neutral	False
471.262	0.41	Control	0.64	0.004	Yes	2.884	-0.004	1.0	GoodResponse	0	0.305	470.567	7	49	Target	Neutral	False
471.567	0.3	Control	0.64	0.004	Yes	2.884	-0.004	1.0	GoodResponse	0	0.305	n/a	7	49	ButtonPress	Neutral	False
471.68	0.29	Control	0.64	n/a	Yes	2.884	n/a	n/a	GoodResponse	0	n/a	n/a	7	49	Blank	Neutral	False
471.964	1.45	Control	0.64	n/a	Yes	2.884	n/a	5.0	GoodResponse	0	0.008	470.972	7	49	Feedback	Neutral	False
473.418	2.884	Control	0.64	n/a	Yes	2.884	n/a	n/a	GoodResponse	0	0.0	n/a	7	49	ISIslide	Neutral	False
476.327	0.25	Control	0.6470999999999999	0.0	Yes	2.773	0.027	n/a	GoodResponse	0	n/a	n/a	7	50	Cue	Neutral	True
476.578	4.0	Control	0.6470999999999999	0.0	Yes	2.773	0.001	n/a	GoodResponse	0	n/a	n/a	7	50	Fixation	Neutral	True
480.573	0.42	Control	0.6470999999999999	0.004	Yes	2.773	-0.004	1.0	GoodResponse	0	0.245	479.818	7	50	Target	Neutral	True
480.818	0.3	Control	0.6470999999999999	0.004	Yes	2.773	-0.004	1.0	GoodResponse	0	0.245	n/a	7	50	ButtonPress	Neutral	True
481.008	0.28	Control	0.6470999999999999	n/a	Yes	2.773	n/a	n/a	GoodResponse	0	n/a	n/a	7	50	Blank	Neutral	True
481.275	1.45	Control	0.6470999999999999	n/a	Yes	2.773	n/a	5.0	GoodResponse	0	0.014	480.289	7	50	Feedback	Neutral	True
482.73	2.773	Control	0.6470999999999999	n/a	Yes	2.773	n/a	n/a	GoodResponse	0	0.0	n/a	7	50	ISIslide	Neutral	True
485.521	0.25	Control	0.6537999999999999	0.0	Yes	2.729	0.021	n/a	GoodResponse	0	n/a	n/a	7	51	Cue	Neutral	True
485.772	3.95	Control	0.6537999999999999	0.0	Yes	2.729	0.001	n/a	GoodResponse	0	n/a	n/a	7	51	Fixation	Neutral	True
489.717	0.43	Control	0.6537999999999999	0.004	Yes	2.729	-0.004	1.0	GoodResponse	0	0.26	488.977	7	51	Target	Neutral	True
489.977	0.3	Control	0.6537999999999999	0.004	Yes	2.729	-0.004	1.0	GoodResponse	0	0.26	n/a	7	51	ButtonPress	Neutral	True
490.152	0.27	Control	0.6537999999999999	n/a	Yes	2.729	n/a	n/a	GoodResponse	0	n/a	n/a	7	51	Blank	Neutral	True
490.419	1.45	Control	0.6537999999999999	n/a	Yes	2.729	n/a	5.0	GoodResponse	0	0.04	489.459	7	51	Feedback	Neutral	True
491.874	2.729	Control	0.6537999999999999	n/a	Yes	2.729	n/a	n/a	GoodResponse	0	0.0	n/a	7	51	ISIslide	Neutral	True
494.615	0.25	Control	0.6604000000000001	0.0	Yes	2.635	0.015	n/a	GoodResponse	0	n/a	n/a	7	52	Cue	Neutral	True
494.866	4.05	Control	0.6604000000000001	0.0	Yes	2.635	0.001	n/a	GoodResponse	0	n/a	n/a	7	52	Fixation	Neutral	True
498.911	0.44	Control	0.6604000000000001	0.004	Yes	2.635	-0.004	1.0	GoodResponse	0	0.378	498.289	7	52	Target	Neutral	True
499.289	0.3	Control	0.6604000000000001	0.004	Yes	2.635	-0.004	1.0	GoodResponse	0	0.378	n/a	7	52	ButtonPress	Neutral	True
499.363	0.26	Control	0.6604000000000001	n/a	Yes	2.635	n/a	n/a	GoodResponse	0	n/a	n/a	7	52	Blank	Neutral	True
499.614	1.45	Control	0.6604000000000001	n/a	Yes	2.635	n/a	5.0	GoodResponse	0	0.016	498.63	7	52	Feedback	Neutral	True
501.068	2.635	Control	0.6604000000000001	n/a	Yes	2.635	n/a	n/a	GoodResponse	0	0.0	n/a	7	52	ISIslide	Neutral	True
503.726	0.25	Win2	0.6667000000000001	0.0	Yes	2.924	0.026	n/a	GoodResponse	1	n/a	n/a	8	53	Cue	Win	True
503.977	4.05	Win2	0.6667000000000001	0.0	Yes	2.924	0.001	n/a	GoodResponse	1	n/a	n/a	8	53	Fixation	Win	True
508.022	0.44	Win2	0.6667000000000001	0.004	Yes	2.924	-0.004	1.0	GoodResponse	1	0.251	507.273	8	53	Target	Win	True
508.273	0.3	Win2	0.6667000000000001	0.004	Yes	2.924	-0.004	1.0	GoodResponse	1	0.251	n/a	8	53	ButtonPress	Win	True
508.473	0.26	Win2	0.6667000000000001	n/a	Yes	2.924	n/a	n/a	GoodResponse	1	n/a	n/a	8	53	Blank	Win	True
508.724	1.45	Win2	0.6667000000000001	n/a	Yes	2.924	n/a	5.0	GoodResponse	1	0.028	507.752	8	53	Feedback	Win	True
510.178	2.924	Win2	0.6667000000000001	n/a	Yes	2.924	n/a	n/a	GoodResponse	1	0.0	n/a	8	53	ISIslide	Win	True
513.121	0.25	Win2	0.6727	0.0	Yes	2.729	0.021	n/a	GoodResponse	1	n/a	n/a	9	54	Cue	Win	True
513.371	3.95	Win2	0.6727	0.0	Yes	2.729	0.0	n/a	GoodResponse	1	n/a	n/a	9	54	Fixation	Win	True
517.316	0.43	Win2	0.6727	0.005	Yes	2.729	-0.005	1.0	GoodResponse	1	0.217	516.533	9	54	Target	Win	True
517.533	0.3	Win2	0.6727	0.005	Yes	2.729	-0.005	1.0	GoodResponse	1	0.217	n/a	9	54	ButtonPress	Win	True
517.751	0.27	Win2	0.6727	n/a	Yes	2.729	n/a	n/a	GoodResponse	1	n/a	n/a	9	54	Blank	Win	True
518.019	1.45	Win2	0.6727	n/a	Yes	2.729	n/a	5.0	GoodResponse	1	0.001	517.02	9	54	Feedback	Win	True
519.473	2.729	Win2	0.6727	n/a	Yes	2.729	n/a	n/a	GoodResponse	1	0.0	n/a	9	54	ISIslide	Win	True
522.214	0.25	Control	0.6786	0.001	Yes	3.036	0.014	n/a	GoodResponse	0	n/a	n/a	9	55	Cue	Neutral	True
522.465	3.95	Control	0.6786	0.0	Yes	3.036	0.001	n/a	GoodResponse	0	n/a	n/a	9	55	Fixation	Neutral	True
526.41	0.42	Control	0.6786	0.004	Yes	3.036	-0.004	1.0	GoodResponse	0	0.203	525.613	9	55	Target	Neutral	True
526.613	0.3	Control	0.6786	0.004	Yes	3.036	-0.004	1.0	GoodResponse	0	0.203	n/a	9	55	ButtonPress	Neutral	True
526.845	0.28	Control	0.6786	n/a	Yes	3.036	n/a	n/a	GoodResponse	0	n/a	n/a	9	55	Blank	Neutral	True
527.112	1.45	Control	0.6786	n/a	Yes	3.036	n/a	5.0	GoodResponse	0	0.03	526.142	9	55	Feedback	Neutral	True
528.567	3.036	Control	0.6786	n/a	Yes	3.036	n/a	n/a	GoodResponse	0	0.0	n/a	9	55	ISIslide	Neutral	True
531.626	0.25	Control	0.6842	0.0	Yes	2.824	0.026	n/a	GoodResponse	0	n/a	n/a	9	56	Cue	Neutral	True
531.877	3.95	Control	0.6842	0.0	Yes	2.824	0.001	n/a	GoodResponse	0	n/a	n/a	9	56	Fixation	Neutral	True
535.822	0.41	Control	0.6842	0.004	Yes	2.824	-0.004	1.0	GoodResponse	0	0.2	535.022	9	56	Target	Neutral	True
536.022	0.3	Control	0.6842	0.004	Yes	2.824	-0.004	1.0	GoodResponse	0	0.2	n/a	9	56	ButtonPress	Neutral	True
536.24	0.29	Control	0.6842	n/a	Yes	2.824	n/a	n/a	GoodResponse	0	n/a	n/a	9	56	Blank	Neutral	True
536.524	1.45	Control	0.6842	n/a	Yes	2.824	n/a	5.0	GoodResponse	0	0.032	535.556	9	56	Feedback	Neutral	True
537.978	2.824	Control	0.6842	n/a	Yes	2.824	n/a	n/a	GoodResponse	0	0.0	n/a	9	56	ISIslide	Neutral	True
540.82	0.25	Control	0.6897	0.0	Yes	3.48	0.02	n/a	GoodResponse	0	n/a	n/a	9	57	Cue	Neutral	True
541.071	4.0	Control	0.6897	0.0	Yes	3.48	0.001	n/a	GoodResponse	0	n/a	n/a	9	57	Fixation	Neutral	True
545.066	0.4	Control	0.6897	0.004	Yes	3.48	-0.004	1.0	GoodResponse	0	0.318	544.384	9	57	Target	Neutral	True
545.384	0.3	Control	0.6897	0.004	Yes	3.48	-0.004	1.0	GoodResponse	0	0.318	n/a	9	57	ButtonPress	Neutral	True
545.467	0.3	Control	0.6897	n/a	Yes	3.48	n/a	n/a	GoodResponse	0	n/a	n/a	9	57	Blank	Neutral	True
545.768	1.45	Control	0.6897	n/a	Yes	3.48	n/a	5.0	GoodResponse	0	0.008	544.776	9	57	Feedback	Neutral	True
547.223	3.48	Control	0.6897	n/a	Yes	3.48	n/a	n/a	GoodResponse	0	0.0	n/a	9	57	ISIslide	Neutral	True
550.716	0.25	Win2	0.6949	0.001	Yes	2.734	0.016	n/a	GoodResponse	1	n/a	n/a	10	58	Cue	Win	True
550.967	4.05	Win2	0.6949	0.0	Yes	2.734	0.001	n/a	GoodResponse	1	n/a	n/a	10	58	Fixation	Win	True
555.013	0.39	Win2	0.6949	0.003	Yes	2.734	-0.003	1.0	GoodResponse	1	0.251	554.264	10	58	Target	Win	True
555.264	0.3	Win2	0.6949	0.003	Yes	2.734	-0.003	1.0	GoodResponse	1	0.251	n/a	10	58	ButtonPress	Win	True
555.414	0.31	Win2	0.6949	n/a	Yes	2.734	n/a	n/a	GoodResponse	1	n/a	n/a	10	58	Blank	Win	True
555.715	1.45	Win2	0.6949	n/a	Yes	2.734	n/a	5.0	GoodResponse	1	0.012	554.727	10	58	Feedback	Win	True
557.169	2.734	Win2	0.6949	n/a	Yes	2.734	n/a	n/a	GoodResponse	1	0.0	n/a	10	58	ISIslide	Win	True
559.927	0.25	Lose2	0.7	0.0	Yes	2.673	0.027	n/a	GoodResponse	0	n/a	n/a	10	59	Cue	AvoidedLoss	True
560.178	4.0	Lose2	0.7	0.0	Yes	2.673	0.001	n/a	GoodResponse	0	n/a	n/a	10	59	Fixation	AvoidedLoss	True
564.173	0.38	Lose2	0.7	0.004	Yes	2.673	-0.004	1.0	GoodResponse	0	0.293	563.466	10	59	Target	AvoidedLoss	True
564.466	0.3	Lose2	0.7	0.004	Yes	2.673	-0.004	1.0	GoodResponse	0	0.293	n/a	10	59	ButtonPress	AvoidedLoss	True
564.558	0.32	Lose2	0.7	n/a	Yes	2.673	n/a	n/a	GoodResponse	0	n/a	n/a	10	59	Blank	AvoidedLoss	True
564.876	1.45	Lose2	0.7	n/a	Yes	2.673	n/a	5.0	GoodResponse	0	0.022	563.898	10	59	Feedback	AvoidedLoss	True
566.33	2.673	Lose2	0.7	n/a	Yes	2.673	n/a	n/a	GoodResponse	0	0.0	n/a	10	59	ISIslide	AvoidedLoss	True
569.021	0.25	Control	0.7049	0.0	Yes	2.679	0.021	n/a	GoodResponse	0	n/a	n/a	10	60	Cue	Neutral	True
569.272	4.0	Control	0.7049	0.0	Yes	2.679	0.001	n/a	GoodResponse	0	n/a	n/a	10	60	Fixation	Neutral	True
573.267	0.37	Control	0.7049	0.004	Yes	2.679	-0.004	1.0	GoodResponse	0	0.19	572.457	10	60	Target	Neutral	True
573.457	0.3	Control	0.7049	0.004	Yes	2.679	-0.004	1.0	GoodResponse	0	0.19	n/a	10	60	ButtonPress	Neutral	True
573.652	0.33	Control	0.7049	n/a	Yes	2.679	n/a	n/a	GoodResponse	0	n/a	n/a	10	60	Blank	Neutral	True
573.969	1.45	Control	0.7049	n/a	Yes	2.679	n/a	5.0	GoodResponse	0	0.002	572.971	10	60	Feedback	Neutral	True
575.424	2.679	Control	0.7049	n/a	Yes	2.679	n/a	n/a	GoodResponse	0	0.0	n/a	10	60	ISIslide	Neutral	True
578.115	0.25	Lose2	0.7097	0.0	Yes	2.985	0.015	n/a	GoodResponse	0	n/a	n/a	10	61	Cue	AvoidedLoss	True
578.366	4.0	Lose2	0.7097	0.0	Yes	2.985	0.001	n/a	GoodResponse	0	n/a	n/a	10	61	Fixation	AvoidedLoss	True
582.361	0.36	Lose2	0.7097	0.004	Yes	2.985	-0.004	1.0	GoodResponse	0	0.287	581.648	10	61	Target	AvoidedLoss	True
582.648	0.3	Lose2	0.7097	0.004	Yes	2.985	-0.004	1.0	GoodResponse	0	0.287	n/a	10	61	ButtonPress	AvoidedLoss	True
582.729	0.34	Lose2	0.7097	n/a	Yes	2.985	n/a	n/a	GoodResponse	0	n/a	n/a	10	61	Blank	AvoidedLoss	True
583.063	1.45	Lose2	0.7097	n/a	Yes	2.985	n/a	5.0	GoodResponse	0	0.03	582.093	10	61	Feedback	AvoidedLoss	True
584.518	2.985	Lose2	0.7097	n/a	Yes	2.985	n/a	n/a	GoodResponse	0	0.0	n/a	10	61	ISIslide	AvoidedLoss	True
587.527	0.25	Lose2	0.7143	0.0	Yes	2.873	0.027	n/a	GoodResponse	0	n/a	n/a	10	62	Cue	AvoidedLoss	True
587.777	3.9	Lose2	0.7143	0.0	Yes	2.873	0.0	n/a	GoodResponse	0	n/a	n/a	10	62	Fixation	AvoidedLoss	True
591.689	0.35	Lose2	0.7143	0.0	Yes	2.873	0.012	1.0	GoodResponse	0	0.298	590.987	10	62	Target	AvoidedLoss	True
591.987	0.3	Lose2	0.7143	0.0	Yes	2.873	0.012	1.0	GoodResponse	0	0.298	n/a	10	62	ButtonPress	AvoidedLoss	True
592.023	0.35	Lose2	0.7143	n/a	Yes	2.873	n/a	n/a	GoodResponse	0	n/a	n/a	10	62	Blank	AvoidedLoss	True
592.375	1.45	Lose2	0.7143	n/a	Yes	2.873	n/a	5.0	GoodResponse	0	0.034	591.409	10	62	Feedback	AvoidedLoss	True
593.829	2.873	Lose2	0.7143	n/a	Yes	2.873	n/a	n/a	GoodResponse	0	0.0	n/a	10	62	ISIslide	AvoidedLoss	True
596.721	0.25	Lose2	0.7188	0.0	Yes	2.629	0.021	n/a	GoodResponse	0	n/a	n/a	10	63	Cue	AvoidedLoss	True
596.972	4.05	Lose2	0.7188	0.0	Yes	2.629	0.001	n/a	GoodResponse	0	n/a	n/a	10	63	Fixation	AvoidedLoss	True
601.017	0.34	Lose2	0.7188	0.004	Yes	2.629	-0.004	1.0	GoodResponse	0	0.213	600.23	10	63	Target	AvoidedLoss	True
601.23	0.3	Lose2	0.7188	0.004	Yes	2.629	-0.004	1.0	GoodResponse	0	0.213	n/a	10	63	ButtonPress	AvoidedLoss	True
601.368	0.36	Lose2	0.7188	n/a	Yes	2.629	n/a	n/a	GoodResponse	0	n/a	n/a	10	63	Blank	AvoidedLoss	True
601.719	1.45	Lose2	0.7188	n/a	Yes	2.629	n/a	5.0	GoodResponse	0	0.007	600.726	10	63	Feedback	AvoidedLoss	True
603.173	2.629	Lose2	0.7188	n/a	Yes	2.629	n/a	n/a	GoodResponse	0	0.0	n/a	10	63	ISIslide	AvoidedLoss	True
605.831	0.25	Win2	0.7231000000000001	0.001	Yes	3.119	0.031	n/a	GoodResponse	1	n/a	n/a	11	64	Cue	Win	True
606.082	4.15	Win2	0.7231000000000001	0.0	Yes	3.119	0.001	n/a	GoodResponse	1	n/a	n/a	11	64	Fixation	Win	True
610.228	0.33	Win2	0.7231000000000001	0.003	Yes	3.119	-0.003	1.0	GoodResponse	1	0.271	609.499	11	64	Target	Win	True
610.499	0.3	Win2	0.7231000000000001	0.003	Yes	3.119	-0.003	1.0	GoodResponse	1	0.271	n/a	11	64	ButtonPress	Win	True
610.562	0.37	Win2	0.7231000000000001	n/a	Yes	3.119	n/a	n/a	GoodResponse	1	n/a	n/a	11	64	Blank	Win	True
610.93	1.45	Win2	0.7231000000000001	n/a	Yes	3.119	n/a	5.0	GoodResponse	1	0.016	609.946	11	64	Feedback	Win	True
612.384	3.119	Win2	0.7231000000000001	n/a	Yes	3.119	n/a	n/a	GoodResponse	1	0.0	n/a	11	64	ISIslide	Win	True
615.527	0.25	Control	0.7273000000000001	0.0	Yes	2.773	0.027	n/a	GoodResponse	0	n/a	n/a	11	65	Cue	Neutral	True
615.778	4.0	Control	0.7273000000000001	0.0	Yes	2.773	0.001	n/a	GoodResponse	0	n/a	n/a	11	65	Fixation	Neutral	True
619.773	0.32	Control	0.7273000000000001	0.004	Yes	2.773	-0.004	1.0	GoodResponse	0	0.233	619.006	11	65	Target	Neutral	True
620.006	0.3	Control	0.7273000000000001	0.004	Yes	2.773	-0.004	1.0	GoodResponse	0	0.233	n/a	11	65	ButtonPress	Neutral	True
620.108	0.38	Control	0.7273000000000001	n/a	Yes	2.773	n/a	n/a	GoodResponse	0	n/a	n/a	11	65	Blank	Neutral	True
620.475	1.45	Control	0.7273000000000001	n/a	Yes	2.773	n/a	5.0	GoodResponse	0	0.032	619.507	11	65	Feedback	Neutral	True
621.93	2.773	Control	0.7273000000000001	n/a	Yes	2.773	n/a	n/a	GoodResponse	0	0.0	n/a	11	65	ISIslide	Neutral	True
624.721	0.25	Win2	0.7164	0.0	No	2.779	0.021	n/a	LatePress	0	n/a	n/a	11	66	Cue	MissedWin	True
624.972	3.9	Win2	0.7164	0.0	No	2.779	0.001	n/a	LatePress	0	n/a	n/a	11	66	Fixation	MissedWin	True
628.867	0.31	Win2	0.7164	0.004	No	2.779	-0.004	1.0	LatePress	0	0.312	628.179	11	66	Target	MissedWin	True
629.179	0.3	Win2	0.7164	0.004	No	2.779	-0.004	1.0	LatePress	0	0.312	n/a	11	66	ButtonPress	MissedWin	True
629.185	0.39	Win2	0.7164	n/a	No	2.779	n/a	n/a	LatePress	0	n/a	n/a	11	66	Blank	MissedWin	True
629.569	1.45	Win2	0.7164	n/a	No	2.779	n/a	5.0	LatePress	0	0.011	628.58	11	66	Feedback	MissedWin	True
631.024	2.779	Win2	0.7164	n/a	No	2.779	n/a	n/a	LatePress	0	0.0	n/a	11	66	ISIslide	MissedWin	True
633.815	0.25	Control	0.7206	0.0	Yes	2.735	0.015	n/a	GoodResponse	0	n/a	n/a	11	67	Cue	Neutral	True
634.066	3.95	Control	0.7206	0.0	Yes	2.735	0.001	n/a	GoodResponse	0	n/a	n/a	11	67	Fixation	Neutral	True
638.011	0.3	Control	0.7206	0.004	Yes	2.735	-0.004	1.0	GoodResponse	0	0.244	637.255	11	67	Target	Neutral	True
638.255	0.3	Control	0.7206	0.004	Yes	2.735	-0.004	1.0	GoodResponse	0	0.244	n/a	11	67	ButtonPress	Neutral	True
638.312	0.4	Control	0.7206	n/a	Yes	2.735	n/a	n/a	GoodResponse	0	n/a	n/a	11	67	Blank	Neutral	True
638.713	1.45	Control	0.7206	n/a	Yes	2.735	n/a	5.0	GoodResponse	0	0.037	637.75	11	67	Feedback	Neutral	True
640.168	2.735	Control	0.7206	n/a	Yes	2.735	n/a	n/a	GoodResponse	0	0.0	n/a	11	67	ISIslide	Neutral	True
642.926	0.25	Win2	0.7245999999999999	0.0	Yes	3.074	0.026	n/a	GoodResponse	1	n/a	n/a	12	68	Cue	Win	True
643.177	4.0	Win2	0.7245999999999999	0.0	Yes	3.074	0.001	n/a	GoodResponse	1	n/a	n/a	12	68	Fixation	Win	True
647.172	0.29	Win2	0.7245999999999999	0.004	Yes	3.074	-0.004	1.0	GoodResponse	1	0.249	646.421	12	68	Target	Win	True
647.421	0.3	Win2	0.7245999999999999	0.004	Yes	3.074	-0.004	1.0	GoodResponse	1	0.249	n/a	12	68	ButtonPress	Win	True
647.473	0.41	Win2	0.7245999999999999	n/a	Yes	3.074	n/a	n/a	GoodResponse	1	n/a	n/a	12	68	Blank	Win	True
647.874	1.45	Win2	0.7245999999999999	n/a	Yes	3.074	n/a	5.0	GoodResponse	1	0.047	646.921	12	68	Feedback	Win	True
649.328	3.074	Win2	0.7245999999999999	n/a	Yes	3.074	n/a	n/a	GoodResponse	1	0.0	n/a	12	68	ISIslide	Win	True
652.421	0.25	Win2	0.7143	0.0	No	3.229	0.021	n/a	NoResponse	0	n/a	n/a	12	69	Cue	MissedWin	True
652.672	3.95	Win2	0.7143	0.0	No	3.229	0.001	n/a	NoResponse	0	n/a	n/a	12	69	Fixation	MissedWin	True
656.617	0.28	Win2	0.7143	0.004	No	3.229	-0.004	1.0	NoResponse	0	0.294	655.911	12	69	Target	MissedWin	True
656.901	0.42	Win2	0.7143	n/a	No	3.229	n/a	n/a	NoResponse	0	n/a	n/a	12	69	Blank	MissedWin	True
656.911	0.3	Win2	0.7143	0.004	No	3.229	-0.004	1.0	NoResponse	0	0.294	n/a	12	69	ButtonPress	MissedWin	True
657.319	1.45	Win2	0.7143	n/a	No	3.229	n/a	5.0	NoResponse	0	0.017	656.336	12	69	Feedback	MissedWin	True
658.773	3.229	Win2	0.7143	n/a	No	3.229	n/a	n/a	NoResponse	0	0.0	n/a	12	69	ISIslide	MissedWin	True
662.016	0.25	Lose2	0.7182999999999999	0.0	Yes	3.034	0.016	n/a	GoodResponse	0	n/a	n/a	12	70	Cue	AvoidedLoss	True
662.267	4.05	Lose2	0.7182999999999999	0.0	Yes	3.034	0.001	n/a	GoodResponse	0	n/a	n/a	12	70	Fixation	AvoidedLoss	True
666.312	0.27	Lose2	0.7182999999999999	0.004	Yes	3.034	-0.004	1.0	GoodResponse	0	0.255	665.567	12	70	Target	AvoidedLoss	True
666.567	0.3	Lose2	0.7182999999999999	0.004	Yes	3.034	-0.004	1.0	GoodResponse	0	0.255	n/a	12	70	ButtonPress	AvoidedLoss	True
666.597	0.43	Lose2	0.7182999999999999	n/a	Yes	3.034	n/a	n/a	GoodResponse	0	n/a	n/a	12	70	Blank	AvoidedLoss	True
667.015	1.45	Lose2	0.7182999999999999	n/a	Yes	3.034	n/a	5.0	GoodResponse	0	0.028	666.043	12	70	Feedback	AvoidedLoss	True
668.469	3.034	Lose2	0.7182999999999999	n/a	Yes	3.034	n/a	n/a	GoodResponse	0	0.0	n/a	12	70	ISIslide	AvoidedLoss	True
671.528	0.25	Win2	0.7222	0.0	Yes	2.722	0.028	n/a	GoodResponse	1	n/a	n/a	13	71	Cue	Win	True
671.779	4.05	Win2	0.7222	0.0	Yes	2.722	0.001	n/a	GoodResponse	1	n/a	n/a	13	71	Fixation	Win	True
675.824	0.26	Win2	0.7222	0.004	Yes	2.722	-0.004	1.0	GoodResponse	1	0.221	675.045	13	71	Target	Win	True
676.045	0.3	Win2	0.7222	0.004	Yes	2.722	-0.004	1.0	GoodResponse	1	0.221	n/a	13	71	ButtonPress	Win	True
676.092	0.44	Win2	0.7222	n/a	Yes	2.722	n/a	n/a	GoodResponse	1	n/a	n/a	13	71	Blank	Win	True
676.526	1.45	Win2	0.7222	n/a	Yes	2.722	n/a	5.0	GoodResponse	1	0.029	675.555	13	71	Feedback	Win	True
677.981	2.722	Win2	0.7222	n/a	Yes	2.722	n/a	n/a	GoodResponse	1	0.0	n/a	13	71	ISIslide	Win	True
680.722	0.25	Win2	0.726	0.0	Yes	2.778	0.022	n/a	GoodResponse	1	n/a	n/a	14	72	Cue	Win	True
680.973	4.1	Win2	0.726	0.0	Yes	2.778	0.001	n/a	GoodResponse	1	n/a	n/a	14	72	Fixation	Win	True
685.069	0.25	Win2	0.726	0.003	Yes	2.778	-0.003	1.0	GoodResponse	1	0.248	684.317	14	72	Target	Win	True
685.317	0.3	Win2	0.726	0.003	Yes	2.778	-0.003	1.0	GoodResponse	1	0.248	n/a	14	72	ButtonPress	Win	True
685.319	0.45	Win2	0.726	n/a	Yes	2.778	n/a	n/a	GoodResponse	1	n/a	n/a	14	72	Blank	Win	True
685.771	1.45	Win2	0.726	n/a	Yes	2.778	n/a	5.0	GoodResponse	1	0.006	684.777	14	72	Feedback	Win	True
687.225	2.778	Win2	0.726	n/a	Yes	2.778	n/a	n/a	GoodResponse	1	0.0	n/a	14	72	ISIslide	Win	True
690.017	0.25	Win2	0.7162000000000001	0.0	No	2.683	0.017	n/a	LatePress	0	n/a	n/a	14	73	Cue	MissedWin	True
690.268	4.0	Win2	0.7162000000000001	0.0	No	2.683	0.001	n/a	LatePress	0	n/a	n/a	14	73	Fixation	MissedWin	True
694.263	0.24	Win2	0.7162000000000001	0.004	No	2.683	-0.004	1.0	LatePress	0	0.245	693.508	14	73	Target	MissedWin	True
694.508	0.3	Win2	0.7162000000000001	0.004	No	2.683	-0.004	1.0	LatePress	0	0.245	n/a	14	73	ButtonPress	MissedWin	True
694.514	0.46	Win2	0.7162000000000001	n/a	No	2.683	n/a	n/a	LatePress	0	n/a	n/a	14	73	Blank	MissedWin	True
694.965	1.45	Win2	0.7162000000000001	n/a	No	2.683	n/a	5.0	LatePress	0	0.029	693.994	14	73	Feedback	MissedWin	True
696.419	2.683	Win2	0.7162000000000001	n/a	No	2.683	n/a	n/a	LatePress	0	0.0	n/a	14	73	ISIslide	MissedWin	True
699.127	0.25	Lose2	0.7067	0.0	No	2.623	0.027	n/a	PrematurePress	-1	n/a	n/a	13	74	Cue	Loss	False
699.378	4.05	Lose2	0.7067	0.0	No	2.623	0.001	1.0	PrematurePress	-1	4.047	702.425	13	74	Fixation	Loss	False
703.424	0.23	Lose2	0.7067	0.003	No	2.623	-0.003	1.0	PrematurePress	-1	0.001	702.425	13	74	Target	Loss	False
703.425	0.3	Lose2	0.7067	0.0	No	2.623	0.001	1.0	PrematurePress	-1	4.047	n/a	13	74	ButtonPress	Loss	False
703.425	0.3	Lose2	0.7067	0.003	No	2.623	-0.003	1.0	PrematurePress	-1	0.001	n/a	13	74	ButtonPress	Loss	False
703.658	0.47	Lose2	0.7067	n/a	No	2.623	n/a	n/a	PrematurePress	-1	n/a	n/a	13	74	Blank	Loss	False
704.126	1.45	Lose2	0.7067	n/a	No	2.623	n/a	5.0	PrematurePress	-1	0.039	703.165	13	74	Feedback	Loss	False
705.58	2.623	Lose2	0.7067	n/a	No	2.623	n/a	n/a	PrematurePress	-1	0.0	n/a	13	74	ISIslide	Loss	False
708.221	0.25	Lose2	0.6973999999999999	0.0	No	2.929	0.021	n/a	NoResponse	-1	n/a	n/a	12	75	Cue	Loss	True
708.472	3.95	Lose2	0.6973999999999999	0.0	No	2.929	0.001	n/a	NoResponse	-1	n/a	n/a	12	75	Fixation	Loss	True
712.417	0.22	Lose2	0.6973999999999999	0.004	No	2.929	-0.004	1.0	NoResponse	-1	0.25	711.667	12	75	Target	Loss	True
712.651	0.48	Lose2	0.6973999999999999	n/a	No	2.929	n/a	n/a	NoResponse	-1	n/a	n/a	12	75	Blank	Loss	True
712.667	0.3	Lose2	0.6973999999999999	0.004	No	2.929	-0.004	1.0	NoResponse	-1	0.25	n/a	12	75	ButtonPress	Loss	True
713.119	1.45	Lose2	0.6973999999999999	n/a	No	2.929	n/a	5.0	NoResponse	-1	0.021	712.14	12	75	Feedback	Loss	True
714.574	2.929	Lose2	0.6973999999999999	n/a	No	2.929	n/a	n/a	NoResponse	-1	0.0	n/a	12	75	ISIslide	Loss	True
717.516	0.25	Control	0.6883	0.0	No	3.234	0.016	n/a	NoResponse	0	n/a	n/a	12	76	Cue	Neutral	True
717.767	4.05	Control	0.6883	0.0	No	3.234	0.001	n/a	NoResponse	0	n/a	n/a	12	76	Fixation	Neutral	True
721.812	0.21	Control	0.6883	0.004	No	3.234	-0.004	1.0	NoResponse	0	0.239	721.051	12	76	Target	Neutral	True
722.029	0.49	Control	0.6883	n/a	No	3.234	n/a	n/a	NoResponse	0	n/a	n/a	12	76	Blank	Neutral	True
722.051	0.3	Control	0.6883	0.004	No	3.234	-0.004	1.0	NoResponse	0	0.239	n/a	12	76	ButtonPress	Neutral	True
722.514	1.45	Control	0.6883	n/a	No	3.234	n/a	5.0	NoResponse	0	0.041	721.555	12	76	Feedback	Neutral	True
723.968	3.234	Control	0.6883	n/a	No	3.234	n/a	n/a	NoResponse	0	0.0	n/a	12	76	ISIslide	Neutral	True
727.228	0.25	Lose2	0.6795	0.0	No	2.572	0.028	n/a	NoResponse	-1	n/a	n/a	11	77	Cue	Loss	True
727.479	3.95	Lose2	0.6795	0.0	No	2.572	0.001	n/a	NoResponse	-1	n/a	n/a	11	77	Fixation	Loss	True
731.424	0.2	Lose2	0.6795	0.004	No	2.572	-0.004	1.0	NoResponse	-1	0.272	730.696	11	77	Target	Loss	True
731.625	0.5	Lose2	0.6795	n/a	No	2.572	n/a	n/a	NoResponse	-1	n/a	n/a	11	77	Blank	Loss	True
731.696	0.3	Lose2	0.6795	0.004	No	2.572	-0.004	1.0	NoResponse	-1	0.272	n/a	11	77	ButtonPress	Loss	True
732.126	1.45	Lose2	0.6795	n/a	No	2.572	n/a	5.0	NoResponse	-1	0.039	731.165	11	77	Feedback	Loss	True
733.581	2.572	Lose2	0.6795	n/a	No	2.572	n/a	n/a	NoResponse	-1	0.0	n/a	11	77	ISIslide	Loss	True
