onset	duration	cue_type	current_mean_accuracy	duration_error	is_hit	isi_adjusted	onset_delay	response	response_type	reward	rt	rt_time	total_reward	trial_number	trial_phase	trial_type	one_press
11.108	0.25	Control	0.0	0.0	No	2.942	0.008	n/a	NoResponse	0	n/a	n/a	0	0	Cue	Neutral	False
11.359	3.85	Control	0.0	0.0	No	2.942	0.001	4.0	NoResponse	0	0.491	10.85	0	0	Fixation	Neutral	False
11.85	0.3	Control	0.0	0.0	No	2.942	0.001	4.0	NoResponse	0	0.491	n/a	0	0	ButtonPress	Neutral	False
15.204	0.4	Control	0.0	0.004	No	2.942	-0.004	4.0	NoResponse	0	0.48	14.684	0	0	Target	Neutral	False
15.605	0.3	Control	0.0	n/a	No	2.942	n/a	n/a	NoResponse	0	n/a	n/a	0	0	Blank	Neutral	False
15.684	0.3	Control	0.0	0.004	No	2.942	-0.004	4.0	NoResponse	0	0.48	n/a	0	0	ButtonPress	Neutral	False
15.906	1.45	Control	0.0	n/a	No	2.942	n/a	5.0	NoResponse	0	0.02	14.926	0	0	Feedback	Neutral	False
17.36	2.942	Control	0.0	n/a	No	2.942	n/a	n/a	NoResponse	0	0.0	n/a	0	0	ISIslide	Neutral	False
20.386	0.25	Lose2	0.5	0.0	Yes	2.714	0.086	n/a	GoodResponse	0	n/a	n/a	0	1	Cue	AvoidedLoss	True
20.637	4.0	Lose2	0.5	0.0	Yes	2.714	0.001	n/a	GoodResponse	0	n/a	n/a	0	1	Fixation	AvoidedLoss	True
24.632	0.41	Lose2	0.5	0.004	Yes	2.714	-0.004	4.0	GoodResponse	0	0.398	24.03	0	1	Target	AvoidedLoss	True
25.03	0.3	Lose2	0.5	0.004	Yes	2.714	-0.004	4.0	GoodResponse	0	0.398	n/a	0	1	ButtonPress	AvoidedLoss	True
25.05	0.29	Lose2	0.5	n/a	Yes	2.714	n/a	n/a	GoodResponse	0	n/a	n/a	0	1	Blank	AvoidedLoss	True
25.334	1.45	Lose2	0.5	n/a	Yes	2.714	n/a	5.0	GoodResponse	0	0.007	24.341	0	1	Feedback	AvoidedLoss	True
26.789	2.714	Lose2	0.5	n/a	Yes	2.714	n/a	n/a	GoodResponse	0	0.0	n/a	0	1	ISIslide	AvoidedLoss	True
29.53	0.25	Control	0.6667000000000001	0.0	Yes	2.57	0.03	n/a	GoodResponse	0	n/a	n/a	0	2	Cue	Neutral	True
29.781	4.1	Control	0.6667000000000001	0.0	Yes	2.57	0.001	n/a	GoodResponse	0	n/a	n/a	0	2	Fixation	Neutral	True
33.876	0.42	Control	0.6667000000000001	0.004	Yes	2.57	-0.004	4.0	GoodResponse	0	0.315	33.191	0	2	Target	Neutral	True
34.191	0.3	Control	0.6667000000000001	0.004	Yes	2.57	-0.004	4.0	GoodResponse	0	0.315	n/a	0	2	ButtonPress	Neutral	True
34.311	0.28	Control	0.6667000000000001	n/a	Yes	2.57	n/a	n/a	GoodResponse	0	n/a	n/a	0	2	Blank	Neutral	True
34.579	1.45	Control	0.6667000000000001	n/a	Yes	2.57	n/a	5.0	GoodResponse	0	0.029	33.608	0	2	Feedback	Neutral	True
36.033	2.57	Control	0.6667000000000001	n/a	Yes	2.57	n/a	n/a	GoodResponse	0	0.0	n/a	0	2	ISIslide	Neutral	True
38.657	0.25	Win2	0.75	0.0	Yes	2.793	0.057	n/a	GoodResponse	1	n/a	n/a	1	3	Cue	Win	True
38.908	3.95	Win2	0.75	0.0	Yes	2.793	0.001	n/a	GoodResponse	1	n/a	n/a	1	3	Fixation	Win	True
42.853	0.41	Win2	0.75	0.004	Yes	2.793	-0.004	4.0	GoodResponse	1	0.365	42.218	1	3	Target	Win	True
43.218	0.3	Win2	0.75	0.004	Yes	2.793	-0.004	4.0	GoodResponse	1	0.365	n/a	1	3	ButtonPress	Win	True
43.271	0.29	Win2	0.75	n/a	Yes	2.793	n/a	n/a	GoodResponse	1	n/a	n/a	1	3	Blank	Win	True
43.555	1.45	Win2	0.75	n/a	Yes	2.793	n/a	5.0	GoodResponse	1	0.029	42.584	1	3	Feedback	Win	True
45.01	2.793	Win2	0.75	n/a	Yes	2.793	n/a	n/a	GoodResponse	1	0.0	n/a	1	3	ISIslide	Win	True
47.818	0.25	Win2	0.8	0.0	Yes	3.282	0.018	n/a	GoodResponse	1	n/a	n/a	2	4	Cue	Win	True
48.069	4.0	Win2	0.8	0.0	Yes	3.282	0.001	n/a	GoodResponse	1	n/a	n/a	2	4	Fixation	Win	True
52.064	0.4	Win2	0.8	0.004	Yes	3.282	-0.004	4.0	GoodResponse	1	0.273	51.337	2	4	Target	Win	True
52.337	0.3	Win2	0.8	0.004	Yes	3.282	-0.004	4.0	GoodResponse	1	0.273	n/a	2	4	ButtonPress	Win	True
52.465	0.3	Win2	0.8	n/a	Yes	3.282	n/a	n/a	GoodResponse	1	n/a	n/a	2	4	Blank	Win	True
52.766	1.45	Win2	0.8	n/a	Yes	3.282	n/a	5.0	GoodResponse	1	0.038	51.804	2	4	Feedback	Win	True
54.221	3.282	Win2	0.8	n/a	Yes	3.282	n/a	n/a	GoodResponse	1	0.0	n/a	2	4	ISIslide	Win	True
57.531	0.25	Win2	0.8332999999999999	0.0	Yes	2.769	0.031	n/a	GoodResponse	1	n/a	n/a	3	5	Cue	Win	True
57.781	4.0	Win2	0.8332999999999999	0.0	Yes	2.769	0.0	n/a	GoodResponse	1	n/a	n/a	3	5	Fixation	Win	True
61.777	0.39	Win2	0.8332999999999999	0.004	Yes	2.769	-0.004	4.0	GoodResponse	1	0.37	61.147	3	5	Target	Win	True
62.147	0.3	Win2	0.8332999999999999	0.004	Yes	2.769	-0.004	4.0	GoodResponse	1	0.37	n/a	3	5	ButtonPress	Win	True
62.178	0.31	Win2	0.8332999999999999	n/a	Yes	2.769	n/a	n/a	GoodResponse	1	n/a	n/a	3	5	Blank	Win	True
62.479	1.45	Win2	0.8332999999999999	n/a	Yes	2.769	n/a	5.0	GoodResponse	1	0.032	61.511	3	5	Feedback	Win	True
63.933	2.769	Win2	0.8332999999999999	n/a	Yes	2.769	n/a	n/a	GoodResponse	1	0.0	n/a	3	5	ISIslide	Win	True
66.725	0.25	Lose2	0.8571	0.0	Yes	2.725	0.025	n/a	GoodResponse	0	n/a	n/a	3	6	Cue	AvoidedLoss	True
66.975	3.95	Lose2	0.8571	0.001	Yes	2.725	0.0	n/a	GoodResponse	0	n/a	n/a	3	6	Fixation	AvoidedLoss	True
70.921	0.38	Lose2	0.8571	0.004	Yes	2.725	-0.004	4.0	GoodResponse	0	0.332	70.253	3	6	Target	AvoidedLoss	True
71.253	0.3	Lose2	0.8571	0.004	Yes	2.725	-0.004	4.0	GoodResponse	0	0.332	n/a	3	6	ButtonPress	AvoidedLoss	True
71.305	0.32	Lose2	0.8571	n/a	Yes	2.725	n/a	n/a	GoodResponse	0	n/a	n/a	3	6	Blank	AvoidedLoss	True
71.623	1.45	Lose2	0.8571	n/a	Yes	2.725	n/a	5.0	GoodResponse	0	0.01	70.633	3	6	Feedback	AvoidedLoss	True
73.077	2.725	Lose2	0.8571	n/a	Yes	2.725	n/a	n/a	GoodResponse	0	0.0	n/a	3	6	ISIslide	AvoidedLoss	True
75.819	0.25	Lose2	0.875	0.0	Yes	4.031	0.019	n/a	GoodResponse	0	n/a	n/a	3	7	Cue	AvoidedLoss	True
76.069	4.05	Lose2	0.875	0.0	Yes	4.031	0.0	n/a	GoodResponse	0	n/a	n/a	3	7	Fixation	AvoidedLoss	True
80.115	0.37	Lose2	0.875	0.004	Yes	4.031	-0.004	4.0	GoodResponse	0	0.334	79.449	3	7	Target	AvoidedLoss	True
80.449	0.3	Lose2	0.875	0.004	Yes	4.031	-0.004	4.0	GoodResponse	0	0.334	n/a	3	7	ButtonPress	AvoidedLoss	True
80.499	0.33	Lose2	0.875	n/a	Yes	4.031	n/a	n/a	GoodResponse	0	n/a	n/a	3	7	Blank	AvoidedLoss	True
80.817	1.45	Lose2	0.875	n/a	Yes	4.031	n/a	5.0	GoodResponse	0	0.035	79.852	3	7	Feedback	AvoidedLoss	True
82.271	4.031	Lose2	0.875	n/a	Yes	4.031	n/a	n/a	GoodResponse	0	0.0	n/a	3	7	ISIslide	AvoidedLoss	True
86.317	0.25	Lose2	0.8889	0.0	Yes	3.033	0.017	n/a	GoodResponse	0	n/a	n/a	3	8	Cue	AvoidedLoss	True
86.567	3.95	Lose2	0.8889	0.001	Yes	3.033	0.0	n/a	GoodResponse	0	n/a	n/a	3	8	Fixation	AvoidedLoss	True
90.513	0.36	Lose2	0.8889	0.004	Yes	3.033	-0.004	4.0	GoodResponse	0	0.321	89.834	3	8	Target	AvoidedLoss	True
90.834	0.3	Lose2	0.8889	0.004	Yes	3.033	-0.004	4.0	GoodResponse	0	0.321	n/a	3	8	ButtonPress	AvoidedLoss	True
90.88	0.34	Lose2	0.8889	n/a	Yes	3.033	n/a	n/a	GoodResponse	0	n/a	n/a	3	8	Blank	AvoidedLoss	True
91.215	1.45	Lose2	0.8889	n/a	Yes	3.033	n/a	5.0	GoodResponse	0	0.027	90.242	3	8	Feedback	AvoidedLoss	True
92.669	3.033	Lose2	0.8889	n/a	Yes	3.033	n/a	n/a	GoodResponse	0	0.0	n/a	3	8	ISIslide	AvoidedLoss	True
95.728	0.25	Lose2	0.9	0.0	Yes	3.122	0.028	n/a	GoodResponse	0	n/a	n/a	3	9	Cue	AvoidedLoss	True
95.979	3.95	Lose2	0.9	0.0	Yes	3.122	0.001	n/a	GoodResponse	0	n/a	n/a	3	9	Fixation	AvoidedLoss	True
99.924	0.35	Lose2	0.9	0.004	Yes	3.122	-0.004	4.0	GoodResponse	0	0.247	99.171	3	9	Target	AvoidedLoss	True
100.171	0.3	Lose2	0.9	0.004	Yes	3.122	-0.004	4.0	GoodResponse	0	0.247	n/a	3	9	ButtonPress	AvoidedLoss	True
100.275	0.35	Lose2	0.9	n/a	Yes	3.122	n/a	n/a	GoodResponse	0	n/a	n/a	3	9	Blank	AvoidedLoss	True
100.626	1.45	Lose2	0.9	n/a	Yes	3.122	n/a	5.0	GoodResponse	0	0.031	99.657	3	9	Feedback	AvoidedLoss	True
102.081	3.122	Lose2	0.9	n/a	Yes	3.122	n/a	n/a	GoodResponse	0	0.0	n/a	3	9	ISIslide	AvoidedLoss	True
105.223	0.25	Control	0.9091	0.0	Yes	3.277	0.023	n/a	GoodResponse	0	n/a	n/a	3	10	Cue	Neutral	True
105.474	4.0	Control	0.9091	0.0	Yes	3.277	0.001	n/a	GoodResponse	0	n/a	n/a	3	10	Fixation	Neutral	True
109.469	0.34	Control	0.9091	0.004	Yes	3.277	-0.004	4.0	GoodResponse	0	0.334	108.803	3	10	Target	Neutral	True
109.803	0.3	Control	0.9091	0.004	Yes	3.277	-0.004	4.0	GoodResponse	0	0.334	n/a	3	10	ButtonPress	Neutral	True
109.82	0.36	Control	0.9091	n/a	Yes	3.277	n/a	n/a	GoodResponse	0	n/a	n/a	3	10	Blank	Neutral	True
110.171	1.45	Control	0.9091	n/a	Yes	3.277	n/a	5.0	GoodResponse	0	0.047	109.218	3	10	Feedback	Neutral	True
111.626	3.277	Control	0.9091	n/a	Yes	3.277	n/a	n/a	GoodResponse	0	0.0	n/a	3	10	ISIslide	Neutral	True
114.919	0.25	Lose2	0.9167000000000001	0.0	Yes	2.731	0.019	n/a	GoodResponse	0	n/a	n/a	3	11	Cue	AvoidedLoss	True
115.17	4.05	Lose2	0.9167000000000001	0.0	Yes	2.731	0.001	n/a	GoodResponse	0	n/a	n/a	3	11	Fixation	AvoidedLoss	True
119.215	0.33	Lose2	0.9167000000000001	0.004	Yes	2.731	-0.004	4.0	GoodResponse	0	0.288	118.503	3	11	Target	AvoidedLoss	True
119.503	0.3	Lose2	0.9167000000000001	0.004	Yes	2.731	-0.004	4.0	GoodResponse	0	0.288	n/a	3	11	ButtonPress	AvoidedLoss	True
119.55	0.37	Lose2	0.9167000000000001	n/a	Yes	2.731	n/a	n/a	GoodResponse	0	n/a	n/a	3	11	Blank	AvoidedLoss	True
119.917	1.45	Lose2	0.9167000000000001	n/a	Yes	2.731	n/a	5.0	GoodResponse	0	0.008	118.925	3	11	Feedback	AvoidedLoss	True
121.372	2.731	Lose2	0.9167000000000001	n/a	Yes	2.731	n/a	n/a	GoodResponse	0	0.0	n/a	3	11	ISIslide	AvoidedLoss	True
124.113	0.25	Control	0.8462000000000001	0.0	No	2.987	0.013	n/a	NoResponse	0	n/a	n/a	3	12	Cue	Neutral	True
124.364	3.9	Control	0.8462000000000001	0.0	No	2.987	0.001	n/a	NoResponse	0	n/a	n/a	3	12	Fixation	Neutral	True
128.259	0.32	Control	0.8462000000000001	0.004	No	2.987	-0.004	4.0	NoResponse	0	0.343	127.602	3	12	Target	Neutral	True
128.593	0.38	Control	0.8462000000000001	n/a	No	2.987	n/a	n/a	NoResponse	0	n/a	n/a	3	12	Blank	Neutral	True
128.602	0.3	Control	0.8462000000000001	0.004	No	2.987	-0.004	4.0	NoResponse	0	0.343	n/a	3	12	ButtonPress	Neutral	True
128.961	1.45	Control	0.8462000000000001	n/a	No	2.987	n/a	5.0	NoResponse	0	0.037	127.998	3	12	Feedback	Neutral	True
130.415	2.987	Control	0.8462000000000001	n/a	No	2.987	n/a	n/a	NoResponse	0	0.0	n/a	3	12	ISIslide	Neutral	True
133.424	0.25	Control	0.8571	0.0	Yes	2.776	0.024	n/a	GoodResponse	0	n/a	n/a	3	13	Cue	Neutral	True
133.675	4.0	Control	0.8571	0.0	Yes	2.776	0.001	n/a	GoodResponse	0	n/a	n/a	3	13	Fixation	Neutral	True
137.67	0.31	Control	0.8571	0.004	Yes	2.776	-0.004	4.0	GoodResponse	0	0.261	136.931	3	13	Target	Neutral	True
137.931	0.3	Control	0.8571	0.004	Yes	2.776	-0.004	4.0	GoodResponse	0	0.261	n/a	3	13	ButtonPress	Neutral	True
137.988	0.39	Control	0.8571	n/a	Yes	2.776	n/a	n/a	GoodResponse	0	n/a	n/a	3	13	Blank	Neutral	True
138.373	1.45	Control	0.8571	n/a	Yes	2.776	n/a	5.0	GoodResponse	0	0.04	137.413	3	13	Feedback	Neutral	True
139.827	2.776	Control	0.8571	n/a	Yes	2.776	n/a	n/a	GoodResponse	0	0.0	n/a	3	13	ISIslide	Neutral	True
142.619	0.25	Win2	0.8	0.0	No	2.681	0.019	n/a	NoResponse	0	n/a	n/a	3	14	Cue	MissedWin	True
142.869	4.1	Win2	0.8	0.0	No	2.681	0.0	n/a	NoResponse	0	n/a	n/a	3	14	Fixation	MissedWin	True
146.965	0.3	Win2	0.8	0.004	No	2.681	-0.004	4.0	NoResponse	0	0.322	146.287	3	14	Target	MissedWin	True
147.266	0.4	Win2	0.8	n/a	No	2.681	n/a	n/a	NoResponse	0	n/a	n/a	3	14	Blank	MissedWin	True
147.287	0.3	Win2	0.8	0.004	No	2.681	-0.004	4.0	NoResponse	0	0.322	n/a	3	14	ButtonPress	MissedWin	True
147.667	1.45	Win2	0.8	n/a	No	2.681	n/a	5.0	NoResponse	0	0.014	146.681	3	14	Feedback	MissedWin	True
149.121	2.681	Win2	0.8	n/a	No	2.681	n/a	n/a	NoResponse	0	0.0	n/a	3	14	ISIslide	MissedWin	True
151.829	0.25	Control	0.75	0.001	No	2.971	0.029	n/a	NoResponse	0	n/a	n/a	3	15	Cue	Neutral	True
152.08	4.0	Control	0.75	0.0	No	2.971	0.001	n/a	NoResponse	0	n/a	n/a	3	15	Fixation	Neutral	True
156.076	0.29	Control	0.75	0.003	No	2.971	-0.003	4.0	NoResponse	0	0.34	155.416	3	15	Target	Neutral	True
156.376	0.41	Control	0.75	n/a	No	2.971	n/a	n/a	NoResponse	0	n/a	n/a	3	15	Blank	Neutral	True
156.416	0.3	Control	0.75	0.003	No	2.971	-0.003	4.0	NoResponse	0	0.34	n/a	3	15	ButtonPress	Neutral	True
156.778	1.45	Control	0.75	n/a	No	2.971	n/a	5.0	NoResponse	0	0.025	155.803	3	15	Feedback	Neutral	True
158.232	2.971	Control	0.75	n/a	No	2.971	n/a	n/a	NoResponse	0	0.0	n/a	3	15	ISIslide	Neutral	True
161.224	0.25	Win2	0.7646999999999999	0.0	Yes	2.876	0.024	n/a	GoodResponse	1	n/a	n/a	4	16	Cue	Win	True
161.475	4.0	Win2	0.7646999999999999	0.0	Yes	2.876	0.001	n/a	GoodResponse	1	n/a	n/a	4	16	Fixation	Win	True
165.47	0.28	Win2	0.7646999999999999	0.004	Yes	2.876	-0.004	4.0	GoodResponse	1	0.24	164.71	4	16	Target	Win	True
165.71	0.3	Win2	0.7646999999999999	0.004	Yes	2.876	-0.004	4.0	GoodResponse	1	0.24	n/a	4	16	ButtonPress	Win	True
165.754	0.42	Win2	0.7646999999999999	n/a	Yes	2.876	n/a	n/a	GoodResponse	1	n/a	n/a	4	16	Blank	Win	True
166.172	1.45	Win2	0.7646999999999999	n/a	Yes	2.876	n/a	5.0	GoodResponse	1	0.045	165.217	4	16	Feedback	Win	True
167.627	2.876	Win2	0.7646999999999999	n/a	Yes	2.876	n/a	n/a	GoodResponse	1	0.0	n/a	4	16	ISIslide	Win	True
170.519	0.25	Lose2	0.7222	0.0	No	2.731	0.019	n/a	NoResponse	-1	n/a	n/a	3	17	Cue	Loss	True
170.769	3.95	Lose2	0.7222	0.001	No	2.731	0.0	n/a	NoResponse	-1	n/a	n/a	3	17	Fixation	Loss	True
174.715	0.27	Lose2	0.7222	0.004	No	2.731	-0.004	4.0	NoResponse	-1	0.291	174.006	3	17	Target	Loss	True
174.999	0.43	Lose2	0.7222	n/a	No	2.731	n/a	n/a	NoResponse	-1	n/a	n/a	3	17	Blank	Loss	True
175.006	0.3	Lose2	0.7222	0.004	No	2.731	-0.004	4.0	NoResponse	-1	0.291	n/a	3	17	ButtonPress	Loss	True
175.417	1.45	Lose2	0.7222	n/a	No	2.731	n/a	5.0	NoResponse	-1	0.02	174.437	3	17	Feedback	Loss	True
176.871	2.731	Lose2	0.7222	n/a	No	2.731	n/a	n/a	NoResponse	-1	0.0	n/a	3	17	ISIslide	Loss	True
179.629	0.25	Lose2	0.6842	0.0	No	2.721	0.029	n/a	NoResponse	-1	n/a	n/a	2	18	Cue	Loss	True
179.88	4.05	Lose2	0.6842	0.0	No	2.721	0.001	n/a	NoResponse	-1	n/a	n/a	2	18	Fixation	Loss	True
183.926	0.26	Lose2	0.6842	0.003	No	2.721	-0.003	4.0	NoResponse	-1	0.321	183.247	2	18	Target	Loss	True
184.193	0.44	Lose2	0.6842	n/a	No	2.721	n/a	n/a	NoResponse	-1	n/a	n/a	2	18	Blank	Loss	True
184.247	0.3	Lose2	0.6842	0.003	No	2.721	-0.003	4.0	NoResponse	-1	0.321	n/a	2	18	ButtonPress	Loss	True
184.628	1.45	Lose2	0.6842	n/a	No	2.721	n/a	5.0	NoResponse	-1	0.027	183.655	2	18	Feedback	Loss	True
186.082	2.721	Lose2	0.6842	n/a	No	2.721	n/a	n/a	NoResponse	-1	0.0	n/a	2	18	ISIslide	Loss	True
188.824	0.25	Control	0.65	0.0	No	2.926	0.024	n/a	NoResponse	0	n/a	n/a	2	19	Cue	Neutral	True
189.074	3.95	Control	0.65	0.0	No	2.926	0.0	n/a	NoResponse	0	n/a	n/a	2	19	Fixation	Neutral	True
193.036	0.25	Control	0.65	0.0	No	2.926	0.012	4.0	NoResponse	0	0.251	192.287	2	19	Target	Neutral	True
193.27	0.45	Control	0.65	n/a	No	2.926	n/a	n/a	NoResponse	0	n/a	n/a	2	19	Blank	Neutral	True
193.287	0.3	Control	0.65	0.0	No	2.926	0.012	4.0	NoResponse	0	0.251	n/a	2	19	ButtonPress	Neutral	True
193.722	1.45	Control	0.65	n/a	No	2.926	n/a	5.0	NoResponse	0	0.007	192.729	2	19	Feedback	Neutral	True
195.176	2.926	Control	0.65	n/a	No	2.926	n/a	n/a	NoResponse	0	0.0	n/a	2	19	ISIslide	Neutral	True
198.118	0.25	Control	0.619	0.0	No	2.632	0.018	n/a	NoResponse	0	n/a	n/a	2	20	Cue	Neutral	True
198.369	4.05	Control	0.619	0.0	No	2.632	0.001	n/a	NoResponse	0	n/a	n/a	2	20	Fixation	Neutral	True
202.414	0.26	Control	0.619	0.004	No	2.632	-0.004	4.0	NoResponse	0	0.268	201.682	2	20	Target	Neutral	True
202.682	0.44	Control	0.619	n/a	No	2.632	n/a	n/a	NoResponse	0	n/a	n/a	2	20	Blank	Neutral	True
202.682	0.3	Control	0.619	0.004	No	2.632	-0.004	4.0	NoResponse	0	0.268	n/a	2	20	ButtonPress	Neutral	True
203.116	1.45	Control	0.619	n/a	No	2.632	n/a	5.0	NoResponse	0	0.027	202.143	2	20	Feedback	Neutral	True
204.571	2.632	Control	0.619	n/a	No	2.632	n/a	n/a	NoResponse	0	0.0	n/a	2	20	ISIslide	Neutral	True
207.229	0.25	Control	0.6364	0.0	Yes	2.771	0.029	n/a	GoodResponse	0	n/a	n/a	2	21	Cue	Neutral	True
207.479	4.1	Control	0.6364	0.0	Yes	2.771	0.0	n/a	GoodResponse	0	n/a	n/a	2	21	Fixation	Neutral	True
211.575	0.27	Control	0.6364	0.004	Yes	2.771	-0.004	4.0	GoodResponse	0	0.259	210.834	2	21	Target	Neutral	True
211.834	0.3	Control	0.6364	0.004	Yes	2.771	-0.004	4.0	GoodResponse	0	0.259	n/a	2	21	ButtonPress	Neutral	True
211.859	0.43	Control	0.6364	n/a	Yes	2.771	n/a	n/a	GoodResponse	0	n/a	n/a	2	21	Blank	Neutral	True
212.277	1.45	Control	0.6364	n/a	Yes	2.771	n/a	5.0	GoodResponse	0	0.037	211.314	2	21	Feedback	Neutral	True
213.731	2.771	Control	0.6364	n/a	Yes	2.771	n/a	n/a	GoodResponse	0	0.0	n/a	2	21	ISIslide	Neutral	True
216.523	0.25	Control	0.6522	0.0	Yes	2.777	0.023	n/a	GoodResponse	0	n/a	n/a	2	22	Cue	Neutral	True
216.774	4.0	Control	0.6522	0.0	Yes	2.777	0.001	n/a	GoodResponse	0	n/a	n/a	2	22	Fixation	Neutral	True
220.769	0.28	Control	0.6522	0.004	Yes	2.777	-0.004	4.0	GoodResponse	0	0.219	219.988	2	22	Target	Neutral	True
220.988	0.3	Control	0.6522	0.004	Yes	2.777	-0.004	4.0	GoodResponse	0	0.219	n/a	2	22	ButtonPress	Neutral	True
221.053	0.42	Control	0.6522	n/a	Yes	2.777	n/a	n/a	GoodResponse	0	n/a	n/a	2	22	Blank	Neutral	True
221.471	1.45	Control	0.6522	n/a	Yes	2.777	n/a	5.0	GoodResponse	0	0.014	220.485	2	22	Feedback	Neutral	True
222.926	2.777	Control	0.6522	n/a	Yes	2.777	n/a	n/a	GoodResponse	0	0.0	n/a	2	22	ISIslide	Neutral	True
225.717	0.25	Control	0.625	0.0	No	2.783	0.017	n/a	NoResponse	0	n/a	n/a	2	23	Cue	Neutral	True
225.968	3.9	Control	0.625	0.0	No	2.783	0.001	n/a	NoResponse	0	n/a	n/a	2	23	Fixation	Neutral	True
229.863	0.29	Control	0.625	0.004	No	2.783	-0.004	4.0	NoResponse	0	0.356	229.219	2	23	Target	Neutral	True
230.164	0.41	Control	0.625	n/a	No	2.783	n/a	n/a	NoResponse	0	n/a	n/a	2	23	Blank	Neutral	True
230.219	0.3	Control	0.625	0.004	No	2.783	-0.004	4.0	NoResponse	0	0.356	n/a	2	23	ButtonPress	Neutral	True
230.565	1.45	Control	0.625	n/a	No	2.783	n/a	5.0	NoResponse	0	0.041	229.606	2	23	Feedback	Neutral	True
232.02	2.783	Control	0.625	n/a	No	2.783	n/a	n/a	NoResponse	0	0.0	n/a	2	23	ISIslide	Neutral	True
234.828	0.25	Win2	0.64	0.0	Yes	3.122	0.028	n/a	GoodResponse	1	n/a	n/a	3	24	Cue	Win	False
235.079	3.95	Win2	0.64	0.0	Yes	3.122	0.001	4.0	GoodResponse	1	0.229	234.308	3	24	Fixation	Win	False
235.308	0.3	Win2	0.64	0.0	Yes	3.122	0.001	4.0	GoodResponse	1	0.229	n/a	3	24	ButtonPress	Win	False
239.024	0.3	Win2	0.64	0.004	Yes	3.122	-0.004	4.0	GoodResponse	1	0.255	238.279	3	24	Target	Win	False
239.279	0.3	Win2	0.64	0.004	Yes	3.122	-0.004	4.0	GoodResponse	1	0.255	n/a	3	24	ButtonPress	Win	False
239.325	0.4	Win2	0.64	n/a	Yes	3.122	n/a	n/a	GoodResponse	1	n/a	n/a	3	24	Blank	Win	False
239.726	1.45	Win2	0.64	n/a	Yes	3.122	n/a	5.0	GoodResponse	1	0.007	238.733	3	24	Feedback	Win	False
241.18	3.122	Win2	0.64	n/a	Yes	3.122	n/a	n/a	GoodResponse	1	0.0	n/a	3	24	ISIslide	Win	False
244.323	0.25	Win2	0.6537999999999999	0.0	Yes	3.077	0.023	n/a	GoodResponse	1	n/a	n/a	4	25	Cue	Win	True
244.574	4.0	Win2	0.6537999999999999	0.0	Yes	3.077	0.001	n/a	GoodResponse	1	n/a	n/a	4	25	Fixation	Win	True
248.569	0.31	Win2	0.6537999999999999	0.004	Yes	3.077	-0.004	4.0	GoodResponse	1	0.231	247.8	4	25	Target	Win	True
248.8	0.3	Win2	0.6537999999999999	0.004	Yes	3.077	-0.004	4.0	GoodResponse	1	0.231	n/a	4	25	ButtonPress	Win	True
248.887	0.39	Win2	0.6537999999999999	n/a	Yes	3.077	n/a	n/a	GoodResponse	1	n/a	n/a	4	25	Blank	Win	True
249.271	1.45	Win2	0.6537999999999999	n/a	Yes	3.077	n/a	5.0	GoodResponse	1	0.018	248.289	4	25	Feedback	Win	True
250.726	3.077	Win2	0.6537999999999999	n/a	Yes	3.077	n/a	n/a	GoodResponse	1	0.0	n/a	4	25	ISIslide	Win	True
253.818	0.25	Win2	0.6296	0.0	No	2.932	0.018	n/a	NoResponse	0	n/a	n/a	4	26	Cue	MissedWin	True
254.069	3.95	Win2	0.6296	0.0	No	2.932	0.001	n/a	NoResponse	0	n/a	n/a	4	26	Fixation	MissedWin	True
258.014	0.32	Win2	0.6296	0.004	No	2.932	-0.004	4.0	NoResponse	0	0.353	257.367	4	26	Target	MissedWin	True
258.348	0.38	Win2	0.6296	n/a	No	2.932	n/a	n/a	NoResponse	0	n/a	n/a	4	26	Blank	MissedWin	True
258.367	0.3	Win2	0.6296	0.004	No	2.932	-0.004	4.0	NoResponse	0	0.353	n/a	4	26	ButtonPress	MissedWin	True
258.716	1.45	Win2	0.6296	n/a	No	2.932	n/a	5.0	NoResponse	0	0.037	257.753	4	26	Feedback	MissedWin	True
260.17	2.932	Win2	0.6296	n/a	No	2.932	n/a	n/a	NoResponse	0	0.0	n/a	4	26	ISIslide	MissedWin	True
263.129	0.25	Lose2	0.6429	0.0	Yes	2.821	0.029	n/a	GoodResponse	0	n/a	n/a	4	27	Cue	AvoidedLoss	True
263.38	4.05	Lose2	0.6429	0.0	Yes	2.821	0.001	n/a	GoodResponse	0	n/a	n/a	4	27	Fixation	AvoidedLoss	True
267.425	0.33	Lose2	0.6429	0.004	Yes	2.821	-0.004	4.0	GoodResponse	0	0.272	266.697	4	27	Target	AvoidedLoss	True
267.697	0.3	Lose2	0.6429	0.004	Yes	2.821	-0.004	4.0	GoodResponse	0	0.272	n/a	4	27	ButtonPress	AvoidedLoss	True
267.76	0.37	Lose2	0.6429	n/a	Yes	2.821	n/a	n/a	GoodResponse	0	n/a	n/a	4	27	Blank	AvoidedLoss	True
268.128	1.45	Lose2	0.6429	n/a	Yes	2.821	n/a	5.0	GoodResponse	0	0.039	267.167	4	27	Feedback	AvoidedLoss	True
269.582	2.821	Lose2	0.6429	n/a	Yes	2.821	n/a	n/a	GoodResponse	0	0.0	n/a	4	27	ISIslide	AvoidedLoss	True
272.424	0.25	Control	0.6552	0.0	Yes	2.826	0.024	n/a	GoodResponse	0	n/a	n/a	4	28	Cue	Neutral	True
272.675	4.05	Control	0.6552	0.0	Yes	2.826	0.001	n/a	GoodResponse	0	n/a	n/a	4	28	Fixation	Neutral	True
276.72	0.34	Control	0.6552	0.004	Yes	2.826	-0.004	4.0	GoodResponse	0	0.28	276.0	4	28	Target	Neutral	True
277	0.3	Control	0.6552	0.004	Yes	2.826	-0.004	4.0	GoodResponse	0	0.28	n/a	4	28	ButtonPress	Neutral	True
277.071	0.36	Control	0.6552	n/a	Yes	2.826	n/a	n/a	GoodResponse	0	n/a	n/a	4	28	Blank	Neutral	True
277.422	1.45	Control	0.6552	n/a	Yes	2.826	n/a	5.0	GoodResponse	0	0.014	276.436	4	28	Feedback	Neutral	True
278.876	2.826	Control	0.6552	n/a	Yes	2.826	n/a	n/a	GoodResponse	0	0.0	n/a	4	28	ISIslide	Neutral	True
281.718	0.25	Lose2	0.6667000000000001	0.0	Yes	2.832	0.018	n/a	GoodResponse	0	n/a	n/a	4	29	Cue	AvoidedLoss	True
281.969	3.95	Lose2	0.6667000000000001	0.0	Yes	2.832	0.001	n/a	GoodResponse	0	n/a	n/a	4	29	Fixation	AvoidedLoss	True
285.914	0.34	Lose2	0.6667000000000001	0.004	Yes	2.832	-0.004	4.0	GoodResponse	0	0.267	285.181	4	29	Target	AvoidedLoss	True
286.181	0.3	Lose2	0.6667000000000001	0.004	Yes	2.832	-0.004	4.0	GoodResponse	0	0.267	n/a	4	29	ButtonPress	AvoidedLoss	True
286.265	0.36	Lose2	0.6667000000000001	n/a	Yes	2.832	n/a	n/a	GoodResponse	0	n/a	n/a	4	29	Blank	AvoidedLoss	True
286.616	1.45	Lose2	0.6667000000000001	n/a	Yes	2.832	n/a	5.0	GoodResponse	0	0.038	285.654	4	29	Feedback	AvoidedLoss	True
288.071	2.832	Lose2	0.6667000000000001	n/a	Yes	2.832	n/a	n/a	GoodResponse	0	0.0	n/a	4	29	ISIslide	AvoidedLoss	True
290.929	0.25	Win2	0.6774	0.0	Yes	2.771	0.029	n/a	GoodResponse	1	n/a	n/a	5	30	Cue	Win	True
291.18	3.9	Win2	0.6774	0.0	Yes	2.771	0.001	n/a	GoodResponse	1	n/a	n/a	5	30	Fixation	Win	True
295.075	0.33	Win2	0.6774	0.004	Yes	2.771	-0.004	4.0	GoodResponse	1	0.283	294.358	5	30	Target	Win	True
295.358	0.3	Win2	0.6774	0.004	Yes	2.771	-0.004	4.0	GoodResponse	1	0.283	n/a	5	30	ButtonPress	Win	True
295.409	0.37	Win2	0.6774	n/a	Yes	2.771	n/a	n/a	GoodResponse	1	n/a	n/a	5	30	Blank	Win	True
295.777	1.45	Win2	0.6774	n/a	Yes	2.771	n/a	5.0	GoodResponse	1	0.048	294.825	5	30	Feedback	Win	True
297.231	2.771	Win2	0.6774	n/a	Yes	2.771	n/a	n/a	GoodResponse	1	0.0	n/a	5	30	ISIslide	Win	True
300.023	0.25	Lose2	0.6875	0.0	Yes	2.827	0.023	n/a	GoodResponse	0	n/a	n/a	5	31	Cue	AvoidedLoss	True
300.274	4.05	Lose2	0.6875	0.0	Yes	2.827	0.001	n/a	GoodResponse	0	n/a	n/a	5	31	Fixation	AvoidedLoss	True
304.319	0.32	Lose2	0.6875	0.004	Yes	2.827	-0.004	4.0	GoodResponse	0	0.298	303.617	5	31	Target	AvoidedLoss	True
304.617	0.3	Lose2	0.6875	0.004	Yes	2.827	-0.004	4.0	GoodResponse	0	0.298	n/a	5	31	ButtonPress	AvoidedLoss	True
304.654	0.38	Lose2	0.6875	n/a	Yes	2.827	n/a	n/a	GoodResponse	0	n/a	n/a	5	31	Blank	AvoidedLoss	True
305.021	1.45	Lose2	0.6875	n/a	Yes	2.827	n/a	5.0	GoodResponse	0	0.024	304.045	5	31	Feedback	AvoidedLoss	True
306.476	2.827	Lose2	0.6875	n/a	Yes	2.827	n/a	n/a	GoodResponse	0	0.0	n/a	5	31	ISIslide	AvoidedLoss	True
309.318	0.25	Lose2	0.6970000000000001	0.0	Yes	2.632	0.018	n/a	GoodResponse	0	n/a	n/a	5	32	Cue	AvoidedLoss	True
309.568	4.15	Lose2	0.6970000000000001	0.0	Yes	2.632	0.0	n/a	GoodResponse	0	n/a	n/a	5	32	Fixation	AvoidedLoss	True
313.714	0.31	Lose2	0.6970000000000001	0.004	Yes	2.632	-0.004	4.0	GoodResponse	0	0.246	312.96	5	32	Target	AvoidedLoss	True
313.96	0.3	Lose2	0.6970000000000001	0.004	Yes	2.632	-0.004	4.0	GoodResponse	0	0.246	n/a	5	32	ButtonPress	AvoidedLoss	True
314.032	0.39	Lose2	0.6970000000000001	n/a	Yes	2.632	n/a	n/a	GoodResponse	0	n/a	n/a	5	32	Blank	AvoidedLoss	True
314.416	1.45	Lose2	0.6970000000000001	n/a	Yes	2.632	n/a	5.0	GoodResponse	0	0.043	313.459	5	32	Feedback	AvoidedLoss	True
315.87	2.632	Lose2	0.6970000000000001	n/a	Yes	2.632	n/a	n/a	GoodResponse	0	0.0	n/a	5	32	ISIslide	AvoidedLoss	True
318.528	0.25	Win2	0.7059000000000001	0.001	Yes	2.672	0.028	n/a	GoodResponse	1	n/a	n/a	6	33	Cue	Win	True
318.779	4.0	Win2	0.7059000000000001	0.0	Yes	2.672	0.001	n/a	GoodResponse	1	n/a	n/a	6	33	Fixation	Win	True
322.775	0.3	Win2	0.7059000000000001	0.003	Yes	2.672	-0.003	4.0	GoodResponse	1	0.248	322.023	6	33	Target	Win	True
323.023	0.3	Win2	0.7059000000000001	0.003	Yes	2.672	-0.003	4.0	GoodResponse	1	0.248	n/a	6	33	ButtonPress	Win	True
323.075	0.4	Win2	0.7059000000000001	n/a	Yes	2.672	n/a	n/a	GoodResponse	1	n/a	n/a	6	33	Blank	Win	True
323.477	1.45	Win2	0.7059000000000001	n/a	Yes	2.672	n/a	5.0	GoodResponse	1	0.007	322.484	6	33	Feedback	Win	True
324.931	2.672	Win2	0.7059000000000001	n/a	Yes	2.672	n/a	n/a	GoodResponse	1	0.0	n/a	6	33	ISIslide	Win	True
327.622	0.25	Lose2	0.7143	0.0	Yes	2.628	0.022	n/a	GoodResponse	0	n/a	n/a	6	34	Cue	AvoidedLoss	True
327.873	4.05	Lose2	0.7143	0.0	Yes	2.628	0.001	n/a	GoodResponse	0	n/a	n/a	6	34	Fixation	AvoidedLoss	True
331.919	0.29	Lose2	0.7143	0.003	Yes	2.628	-0.003	4.0	GoodResponse	0	0.278	331.197	6	34	Target	AvoidedLoss	True
332.197	0.3	Lose2	0.7143	0.003	Yes	2.628	-0.003	4.0	GoodResponse	0	0.278	n/a	6	34	ButtonPress	AvoidedLoss	True
332.219	0.41	Lose2	0.7143	n/a	Yes	2.628	n/a	n/a	GoodResponse	0	n/a	n/a	6	34	Blank	AvoidedLoss	True
332.621	1.45	Lose2	0.7143	n/a	Yes	2.628	n/a	5.0	GoodResponse	0	0.033	331.654	6	34	Feedback	AvoidedLoss	True
334.075	2.628	Lose2	0.7143	n/a	Yes	2.628	n/a	n/a	GoodResponse	0	0.0	n/a	6	34	ISIslide	AvoidedLoss	True
336.716	0.25	Lose2	0.7222	0.0	Yes	2.684	0.016	n/a	GoodResponse	0	n/a	n/a	6	35	Cue	AvoidedLoss	True
336.967	4.0	Lose2	0.7222	0.0	Yes	2.684	0.001	n/a	GoodResponse	0	n/a	n/a	6	35	Fixation	AvoidedLoss	True
340.962	0.28	Lose2	0.7222	0.004	Yes	2.684	-0.004	4.0	GoodResponse	0	0.265	340.227	6	35	Target	AvoidedLoss	True
341.227	0.3	Lose2	0.7222	0.004	Yes	2.684	-0.004	4.0	GoodResponse	0	0.265	n/a	6	35	ButtonPress	AvoidedLoss	True
341.246	0.42	Lose2	0.7222	n/a	Yes	2.684	n/a	n/a	GoodResponse	0	n/a	n/a	6	35	Blank	AvoidedLoss	True
341.664	1.45	Lose2	0.7222	n/a	Yes	2.684	n/a	5.0	GoodResponse	0	0.014	340.678	6	35	Feedback	AvoidedLoss	True
343.119	2.684	Lose2	0.7222	n/a	Yes	2.684	n/a	n/a	GoodResponse	0	0.0	n/a	6	35	ISIslide	AvoidedLoss	True
345.827	0.25	Control	0.7027	0.0	No	2.673	0.027	n/a	NoResponse	0	n/a	n/a	6	36	Cue	Neutral	True
346.078	4.0	Control	0.7027	0.0	No	2.673	0.001	n/a	NoResponse	0	n/a	n/a	6	36	Fixation	Neutral	True
350.073	0.27	Control	0.7027	0.004	No	2.673	-0.004	4.0	NoResponse	0	0.292	349.365	6	36	Target	Neutral	True
350.357	0.43	Control	0.7027	n/a	No	2.673	n/a	n/a	NoResponse	0	n/a	n/a	6	36	Blank	Neutral	True
350.365	0.3	Control	0.7027	0.004	No	2.673	-0.004	4.0	NoResponse	0	0.292	n/a	6	36	ButtonPress	Neutral	True
350.775	1.45	Control	0.7027	n/a	No	2.673	n/a	5.0	NoResponse	0	0.025	349.8	6	36	Feedback	Neutral	True
352.229	2.673	Control	0.7027	n/a	No	2.673	n/a	n/a	NoResponse	0	0.0	n/a	6	36	ISIslide	Neutral	True
354.921	0.25	Win2	0.7105	0.0	Yes	2.879	0.021	n/a	GoodResponse	1	n/a	n/a	7	37	Cue	Win	True
355.171	4.0	Win2	0.7105	0.001	Yes	2.879	0.0	n/a	GoodResponse	1	n/a	n/a	7	37	Fixation	Win	True
359.167	0.26	Win2	0.7105	0.004	Yes	2.879	-0.004	4.0	GoodResponse	1	0.237	358.404	7	37	Target	Win	True
359.404	0.3	Win2	0.7105	0.004	Yes	2.879	-0.004	4.0	GoodResponse	1	0.237	n/a	7	37	ButtonPress	Win	True
359.434	0.44	Win2	0.7105	n/a	Yes	2.879	n/a	n/a	GoodResponse	1	n/a	n/a	7	37	Blank	Win	True
359.869	1.45	Win2	0.7105	n/a	Yes	2.879	n/a	5.0	GoodResponse	1	0.006	358.875	7	37	Feedback	Win	True
361.323	2.879	Win2	0.7105	n/a	Yes	2.879	n/a	n/a	GoodResponse	1	0.0	n/a	7	37	ISIslide	Win	True
364.215	0.25	Lose2	0.6923	0.0	No	2.835	0.015	n/a	LatePress	-1	n/a	n/a	6	38	Cue	Loss	True
364.466	3.95	Lose2	0.6923	0.0	No	2.835	0.001	n/a	LatePress	-1	n/a	n/a	6	38	Fixation	Loss	True
368.411	0.25	Lose2	0.6923	0.004	No	2.835	-0.004	4.0	LatePress	-1	0.25	367.661	6	38	Target	Loss	True
368.661	0.3	Lose2	0.6923	0.004	No	2.835	-0.004	4.0	LatePress	-1	0.25	n/a	6	38	ButtonPress	Loss	True
368.662	0.45	Lose2	0.6923	n/a	No	2.835	n/a	n/a	LatePress	-1	n/a	n/a	6	38	Blank	Loss	True
369.113	1.45	Lose2	0.6923	n/a	No	2.835	n/a	5.0	LatePress	-1	0.029	368.142	6	38	Feedback	Loss	True
370.568	2.835	Lose2	0.6923	n/a	No	2.835	n/a	n/a	LatePress	-1	0.0	n/a	6	38	ISIslide	Loss	True
373.426	0.25	Win2	0.675	0.0	No	2.974	0.026	n/a	NoResponse	0	n/a	n/a	6	39	Cue	MissedWin	True
373.677	4.1	Win2	0.675	0.0	No	2.974	0.001	n/a	NoResponse	0	n/a	n/a	6	39	Fixation	MissedWin	True
377.772	0.24	Win2	0.675	0.004	No	2.974	-0.004	4.0	NoResponse	0	0.266	377.038	6	39	Target	MissedWin	True
378.023	0.46	Win2	0.675	n/a	No	2.974	n/a	n/a	NoResponse	0	n/a	n/a	6	39	Blank	MissedWin	True
378.038	0.3	Win2	0.675	0.004	No	2.974	-0.004	4.0	NoResponse	0	0.266	n/a	6	39	ButtonPress	MissedWin	True
378.475	1.45	Win2	0.675	n/a	No	2.974	n/a	5.0	NoResponse	0	0.033	377.508	6	39	Feedback	MissedWin	True
379.929	2.974	Win2	0.675	n/a	No	2.974	n/a	n/a	NoResponse	0	0.0	n/a	6	39	ISIslide	MissedWin	True
382.921	0.25	Win2	0.6585	0.0	No	2.729	0.021	n/a	NoResponse	0	n/a	n/a	6	40	Cue	MissedWin	True
383.172	3.95	Win2	0.6585	0.0	No	2.729	0.001	n/a	NoResponse	0	n/a	n/a	6	40	Fixation	MissedWin	True
387.117	0.23	Win2	0.6585	0.004	No	2.729	-0.004	4.0	NoResponse	0	0.265	386.382	6	40	Target	MissedWin	True
387.351	0.47	Win2	0.6585	n/a	No	2.729	n/a	n/a	NoResponse	0	n/a	n/a	6	40	Blank	MissedWin	True
387.382	0.3	Win2	0.6585	0.004	No	2.729	-0.004	4.0	NoResponse	0	0.265	n/a	6	40	ButtonPress	MissedWin	True
387.819	1.45	Win2	0.6585	n/a	No	2.729	n/a	5.0	NoResponse	0	0.007	386.826	6	40	Feedback	MissedWin	True
389.274	2.729	Win2	0.6585	n/a	No	2.729	n/a	n/a	NoResponse	0	0.0	n/a	6	40	ISIslide	MissedWin	True
392.015	0.25	Win2	0.6667000000000001	0.0	Yes	2.785	0.015	n/a	GoodResponse	1	n/a	n/a	7	41	Cue	Win	True
392.266	3.9	Win2	0.6667000000000001	0.0	Yes	2.785	0.001	n/a	GoodResponse	1	n/a	n/a	7	41	Fixation	Win	True
396.161	0.23	Win2	0.6667000000000001	0.004	Yes	2.785	-0.004	4.0	GoodResponse	1	0.218	395.379	7	41	Target	Win	True
396.379	0.3	Win2	0.6667000000000001	0.004	Yes	2.785	-0.004	4.0	GoodResponse	1	0.218	n/a	7	41	ButtonPress	Win	True
396.395	0.47	Win2	0.6667000000000001	n/a	Yes	2.785	n/a	n/a	GoodResponse	1	n/a	n/a	7	41	Blank	Win	True
396.863	1.45	Win2	0.6667000000000001	n/a	Yes	2.785	n/a	5.0	GoodResponse	1	0.034	395.897	7	41	Feedback	Win	True
398.317	2.785	Win2	0.6667000000000001	n/a	Yes	2.785	n/a	n/a	GoodResponse	1	0.0	n/a	7	41	ISIslide	Win	True
401.126	0.25	Control	0.6512	0.0	No	2.924	0.026	n/a	NoResponse	0	n/a	n/a	7	42	Cue	Neutral	True
401.376	3.85	Control	0.6512	0.001	No	2.924	0.0	n/a	NoResponse	0	n/a	n/a	7	42	Fixation	Neutral	True
405.238	0.22	Control	0.6512	0.0	No	2.924	0.012	4.0	NoResponse	0	0.292	404.53	7	42	Target	Neutral	True
405.455	0.48	Control	0.6512	n/a	No	2.924	n/a	n/a	NoResponse	0	n/a	n/a	7	42	Blank	Neutral	True
405.53	0.3	Control	0.6512	0.0	No	2.924	0.012	4.0	NoResponse	0	0.292	n/a	7	42	ButtonPress	Neutral	True
405.923	1.45	Control	0.6512	n/a	No	2.924	n/a	5.0	NoResponse	0	0.001	404.924	7	42	Feedback	Neutral	True
407.378	2.924	Control	0.6512	n/a	No	2.924	n/a	n/a	NoResponse	0	0.0	n/a	7	42	ISIslide	Neutral	True
410.32	0.25	Win2	0.6591	0.0	Yes	3.18	0.02	n/a	GoodResponse	1	n/a	n/a	8	43	Cue	Win	True
410.571	4.0	Win2	0.6591	0.0	Yes	3.18	0.001	n/a	GoodResponse	1	n/a	n/a	8	43	Fixation	Win	True
414.566	0.23	Win2	0.6591	0.004	Yes	3.18	-0.004	4.0	GoodResponse	1	0.19	413.756	8	43	Target	Win	True
414.756	0.3	Win2	0.6591	0.004	Yes	3.18	-0.004	4.0	GoodResponse	1	0.19	n/a	8	43	ButtonPress	Win	True
414.8	0.47	Win2	0.6591	n/a	Yes	3.18	n/a	n/a	GoodResponse	1	n/a	n/a	8	43	Blank	Win	True
415.268	1.45	Win2	0.6591	n/a	Yes	3.18	n/a	5.0	GoodResponse	1	0.019	414.287	8	43	Feedback	Win	True
416.722	3.18	Win2	0.6591	n/a	Yes	3.18	n/a	n/a	GoodResponse	1	0.0	n/a	8	43	ISIslide	Win	True
419.915	0.25	Win2	0.6444	0.0	No	2.985	0.015	n/a	NoResponse	0	n/a	n/a	8	44	Cue	MissedWin	True
420.166	4.0	Win2	0.6444	0.0	No	2.985	0.001	n/a	NoResponse	0	n/a	n/a	8	44	Fixation	MissedWin	True
424.161	0.23	Win2	0.6444	0.004	No	2.985	-0.004	4.0	NoResponse	0	0.317	423.478	8	44	Target	MissedWin	True
424.395	0.47	Win2	0.6444	n/a	No	2.985	n/a	n/a	NoResponse	0	n/a	n/a	8	44	Blank	MissedWin	True
424.478	0.3	Win2	0.6444	0.004	No	2.985	-0.004	4.0	NoResponse	0	0.317	n/a	8	44	ButtonPress	MissedWin	True
424.863	1.45	Win2	0.6444	n/a	No	2.985	n/a	5.0	NoResponse	0	0.034	423.897	8	44	Feedback	MissedWin	True
426.318	2.985	Win2	0.6444	n/a	No	2.985	n/a	n/a	NoResponse	0	0.0	n/a	8	44	ISIslide	MissedWin	True
429.327	0.25	Control	0.6304	0.0	No	2.873	0.027	n/a	NoResponse	0	n/a	n/a	8	45	Cue	Neutral	True
429.578	4.1	Control	0.6304	0.0	No	2.873	0.001	n/a	NoResponse	0	n/a	n/a	8	45	Fixation	Neutral	True
433.673	0.24	Control	0.6304	0.004	No	2.873	-0.004	4.0	NoResponse	0	0.259	432.932	8	45	Target	Neutral	True
433.924	0.46	Control	0.6304	n/a	No	2.873	n/a	n/a	NoResponse	0	n/a	n/a	8	45	Blank	Neutral	True
433.932	0.3	Control	0.6304	0.004	No	2.873	-0.004	4.0	NoResponse	0	0.259	n/a	8	45	ButtonPress	Neutral	True
434.375	1.45	Control	0.6304	n/a	No	2.873	n/a	5.0	NoResponse	0	0.033	433.408	8	45	Feedback	Neutral	True
435.83	2.873	Control	0.6304	n/a	No	2.873	n/a	n/a	NoResponse	0	0.0	n/a	8	45	ISIslide	Neutral	True
438.722	0.25	Lose2	0.6383	0.0	Yes	3.378	0.022	n/a	GoodResponse	0	n/a	n/a	8	46	Cue	AvoidedLoss	True
438.972	4.0	Lose2	0.6383	0.0	Yes	3.378	0.0	n/a	GoodResponse	0	n/a	n/a	8	46	Fixation	AvoidedLoss	True
442.968	0.25	Lose2	0.6383	0.004	Yes	3.378	-0.004	4.0	GoodResponse	0	0.248	442.216	8	46	Target	AvoidedLoss	True
443.216	0.3	Lose2	0.6383	0.004	Yes	3.378	-0.004	4.0	GoodResponse	0	0.248	n/a	8	46	ButtonPress	AvoidedLoss	True
443.218	0.45	Lose2	0.6383	n/a	Yes	3.378	n/a	n/a	GoodResponse	0	n/a	n/a	8	46	Blank	AvoidedLoss	True
443.67	1.45	Lose2	0.6383	n/a	Yes	3.378	n/a	5.0	GoodResponse	0	0.007	442.677	8	46	Feedback	AvoidedLoss	True
445.124	3.378	Lose2	0.6383	n/a	Yes	3.378	n/a	n/a	GoodResponse	0	0.0	n/a	8	46	ISIslide	AvoidedLoss	True
448.518	0.25	Lose2	0.625	0.0	No	2.682	0.018	n/a	NoResponse	-1	n/a	n/a	7	47	Cue	Loss	True
448.768	4.0	Lose2	0.625	0.0	No	2.682	0.0	n/a	NoResponse	-1	n/a	n/a	7	47	Fixation	Loss	True
452.764	0.26	Lose2	0.625	0.004	No	2.682	-0.004	4.0	NoResponse	-1	0.304	452.068	7	47	Target	Loss	True
453.031	0.44	Lose2	0.625	n/a	No	2.682	n/a	n/a	NoResponse	-1	n/a	n/a	7	47	Blank	Loss	True
453.068	0.3	Lose2	0.625	0.004	No	2.682	-0.004	4.0	NoResponse	-1	0.304	n/a	7	47	ButtonPress	Loss	True
453.466	1.45	Lose2	0.625	n/a	No	2.682	n/a	5.0	NoResponse	-1	0.016	452.482	7	47	Feedback	Loss	True
454.92	2.682	Lose2	0.625	n/a	No	2.682	n/a	4.0	NoResponse	-1	2.06	n/a	7	47	ISIslide	Loss	True
457.611	0.25	Lose2	0.6327	0.001	Yes	3.039	0.011	n/a	GoodResponse	0	n/a	n/a	7	48	Cue	AvoidedLoss	True
457.862	3.95	Lose2	0.6327	0.0	Yes	3.039	0.001	n/a	GoodResponse	0	n/a	n/a	7	48	Fixation	AvoidedLoss	True
461.807	0.27	Lose2	0.6327	0.004	Yes	3.039	-0.004	4.0	GoodResponse	0	0.225	461.032	7	48	Target	AvoidedLoss	True
462.032	0.3	Lose2	0.6327	0.004	Yes	3.039	-0.004	4.0	GoodResponse	0	0.225	n/a	7	48	ButtonPress	AvoidedLoss	True
462.092	0.43	Lose2	0.6327	n/a	Yes	3.039	n/a	n/a	GoodResponse	0	n/a	n/a	7	48	Blank	AvoidedLoss	True
462.509	1.45	Lose2	0.6327	n/a	Yes	3.039	n/a	5.0	GoodResponse	0	0.046	461.555	7	48	Feedback	AvoidedLoss	True
463.964	3.039	Lose2	0.6327	n/a	Yes	3.039	n/a	n/a	GoodResponse	0	0.0	n/a	7	48	ISIslide	AvoidedLoss	True
467.023	0.25	Control	0.64	0.0	Yes	2.877	0.023	n/a	GoodResponse	0	n/a	n/a	7	49	Cue	Neutral	True
467.274	4.0	Control	0.64	0.0	Yes	2.877	0.001	n/a	GoodResponse	0	n/a	n/a	7	49	Fixation	Neutral	True
471.269	0.28	Control	0.64	0.004	Yes	2.877	-0.004	4.0	GoodResponse	0	0.259	470.528	7	49	Target	Neutral	True
471.528	0.3	Control	0.64	0.004	Yes	2.877	-0.004	4.0	GoodResponse	0	0.259	n/a	7	49	ButtonPress	Neutral	True
471.553	0.42	Control	0.64	n/a	Yes	2.877	n/a	n/a	GoodResponse	0	n/a	n/a	7	49	Blank	Neutral	True
471.971	1.45	Control	0.64	n/a	Yes	2.877	n/a	5.0	GoodResponse	0	0.048	471.019	7	49	Feedback	Neutral	True
473.425	2.877	Control	0.64	n/a	Yes	2.877	n/a	n/a	GoodResponse	0	0.0	n/a	7	49	ISIslide	Neutral	True
476.317	0.25	Control	0.6275	0.001	No	2.783	0.017	n/a	NoResponse	0	n/a	n/a	7	50	Cue	Neutral	True
476.568	4.0	Control	0.6275	0.0	No	2.783	0.001	n/a	NoResponse	0	n/a	n/a	7	50	Fixation	Neutral	True
480.563	0.29	Control	0.6275	0.004	No	2.783	-0.004	4.0	NoResponse	0	0.331	479.894	7	50	Target	Neutral	True
480.864	0.41	Control	0.6275	n/a	No	2.783	n/a	n/a	NoResponse	0	n/a	n/a	7	50	Blank	Neutral	True
480.894	0.3	Control	0.6275	0.004	No	2.783	-0.004	4.0	NoResponse	0	0.331	n/a	7	50	ButtonPress	Neutral	True
481.266	1.45	Control	0.6275	n/a	No	2.783	n/a	5.0	NoResponse	0	0.021	480.287	7	50	Feedback	Neutral	True
482.72	2.783	Control	0.6275	n/a	No	2.783	n/a	n/a	NoResponse	0	0.0	n/a	7	50	ISIslide	Neutral	True
485.528	0.25	Control	0.6346	0.0	Yes	2.722	0.028	n/a	GoodResponse	0	n/a	n/a	7	51	Cue	Neutral	True
485.779	3.95	Control	0.6346	0.0	Yes	2.722	0.001	n/a	GoodResponse	0	n/a	n/a	7	51	Fixation	Neutral	True
489.724	0.3	Control	0.6346	0.004	Yes	2.722	-0.004	4.0	GoodResponse	0	0.253	488.977	7	51	Target	Neutral	True
489.977	0.3	Control	0.6346	0.004	Yes	2.722	-0.004	4.0	GoodResponse	0	0.253	n/a	7	51	ButtonPress	Neutral	True
490.025	0.4	Control	0.6346	n/a	Yes	2.722	n/a	n/a	GoodResponse	0	n/a	n/a	7	51	Blank	Neutral	True
490.426	1.45	Control	0.6346	n/a	Yes	2.722	n/a	5.0	GoodResponse	0	0.031	489.457	7	51	Feedback	Neutral	True
491.881	2.722	Control	0.6346	n/a	Yes	2.722	n/a	n/a	GoodResponse	0	0.0	n/a	7	51	ISIslide	Neutral	True
494.622	0.25	Control	0.6225999999999999	0.0	No	2.628	0.022	n/a	NoResponse	0	n/a	n/a	7	52	Cue	Neutral	True
494.873	4.05	Control	0.6225999999999999	0.0	No	2.628	0.001	n/a	NoResponse	0	n/a	n/a	7	52	Fixation	Neutral	True
498.918	0.31	Control	0.6225999999999999	0.004	No	2.628	-0.004	4.0	NoResponse	0	0.326	498.244	7	52	Target	Neutral	True
499.236	0.39	Control	0.6225999999999999	n/a	No	2.628	n/a	n/a	NoResponse	0	n/a	n/a	7	52	Blank	Neutral	True
499.244	0.3	Control	0.6225999999999999	0.004	No	2.628	-0.004	4.0	NoResponse	0	0.326	n/a	7	52	ButtonPress	Neutral	True
499.621	1.45	Control	0.6225999999999999	n/a	No	2.628	n/a	5.0	NoResponse	0	0.006	498.627	7	52	Feedback	Neutral	True
501.075	2.628	Control	0.6225999999999999	n/a	No	2.628	n/a	n/a	NoResponse	0	0.0	n/a	7	52	ISIslide	Neutral	True
503.716	0.25	Win2	0.6296	0.0	Yes	2.934	0.016	n/a	GoodResponse	1	n/a	n/a	8	53	Cue	Win	True
503.967	4.05	Win2	0.6296	0.0	Yes	2.934	0.001	n/a	GoodResponse	1	n/a	n/a	8	53	Fixation	Win	True
508.012	0.32	Win2	0.6296	0.004	Yes	2.934	-0.004	4.0	GoodResponse	1	0.212	507.224	8	53	Target	Win	True
508.224	0.3	Win2	0.6296	0.004	Yes	2.934	-0.004	4.0	GoodResponse	1	0.212	n/a	8	53	ButtonPress	Win	True
508.347	0.38	Win2	0.6296	n/a	Yes	2.934	n/a	n/a	GoodResponse	1	n/a	n/a	8	53	Blank	Win	True
508.714	1.45	Win2	0.6296	n/a	Yes	2.934	n/a	5.0	GoodResponse	1	0.036	507.75	8	53	Feedback	Win	True
510.169	2.934	Win2	0.6296	n/a	Yes	2.934	n/a	n/a	GoodResponse	1	0.0	n/a	8	53	ISIslide	Win	True
513.128	0.25	Win2	0.6364	0.0	Yes	2.722	0.028	n/a	GoodResponse	1	n/a	n/a	9	54	Cue	Win	True
513.378	3.95	Win2	0.6364	0.0	Yes	2.722	0.0	n/a	GoodResponse	1	n/a	n/a	9	54	Fixation	Win	True
517.324	0.33	Win2	0.6364	0.004	Yes	2.722	-0.004	4.0	GoodResponse	1	0.246	516.57	9	54	Target	Win	True
517.57	0.3	Win2	0.6364	0.004	Yes	2.722	-0.004	4.0	GoodResponse	1	0.246	n/a	9	54	ButtonPress	Win	True
517.658	0.37	Win2	0.6364	n/a	Yes	2.722	n/a	n/a	GoodResponse	1	n/a	n/a	9	54	Blank	Win	True
518.026	1.45	Win2	0.6364	n/a	Yes	2.722	n/a	5.0	GoodResponse	1	0.041	517.067	9	54	Feedback	Win	True
519.48	2.722	Win2	0.6364	n/a	Yes	2.722	n/a	n/a	GoodResponse	1	0.0	n/a	9	54	ISIslide	Win	True
522.222	0.25	Control	0.6429	0.0	Yes	3.028	0.022	n/a	GoodResponse	0	n/a	n/a	9	55	Cue	Neutral	True
522.472	3.95	Control	0.6429	0.0	Yes	3.028	0.0	n/a	GoodResponse	0	n/a	n/a	9	55	Fixation	Neutral	True
526.434	0.34	Control	0.6429	0.0	Yes	3.028	0.012	4.0	GoodResponse	0	0.324	525.758	9	55	Target	Neutral	True
526.758	0.3	Control	0.6429	0.0	Yes	3.028	0.012	4.0	GoodResponse	0	0.324	n/a	9	55	ButtonPress	Neutral	True
526.768	0.36	Control	0.6429	n/a	Yes	3.028	n/a	n/a	GoodResponse	0	n/a	n/a	9	55	Blank	Neutral	True
527.12	1.45	Control	0.6429	n/a	Yes	3.028	n/a	5.0	GoodResponse	0	0.02	526.14	9	55	Feedback	Neutral	True
528.574	3.028	Control	0.6429	n/a	Yes	3.028	n/a	n/a	GoodResponse	0	0.0	n/a	9	55	ISIslide	Neutral	True
531.616	0.25	Control	0.6491	0.0	Yes	2.834	0.016	n/a	GoodResponse	0	n/a	n/a	9	56	Cue	Neutral	True
531.867	3.95	Control	0.6491	0.0	Yes	2.834	0.001	n/a	GoodResponse	0	n/a	n/a	9	56	Fixation	Neutral	True
535.812	0.35	Control	0.6491	0.004	Yes	2.834	-0.004	4.0	GoodResponse	0	0.26	535.072	9	56	Target	Neutral	True
536.072	0.3	Control	0.6491	0.004	Yes	2.834	-0.004	4.0	GoodResponse	0	0.26	n/a	9	56	ButtonPress	Neutral	True
536.163	0.35	Control	0.6491	n/a	Yes	2.834	n/a	n/a	GoodResponse	0	n/a	n/a	9	56	Blank	Neutral	True
536.514	1.45	Control	0.6491	n/a	Yes	2.834	n/a	5.0	GoodResponse	0	0.04	535.554	9	56	Feedback	Neutral	True
537.969	2.834	Control	0.6491	n/a	Yes	2.834	n/a	n/a	GoodResponse	0	0.0	n/a	9	56	ISIslide	Neutral	True
540.827	0.25	Control	0.6552	0.0	Yes	3.473	0.027	n/a	GoodResponse	0	n/a	n/a	9	57	Cue	Neutral	True
541.078	4.0	Control	0.6552	0.0	Yes	3.473	0.001	n/a	GoodResponse	0	n/a	n/a	9	57	Fixation	Neutral	True
545.073	0.36	Control	0.6552	0.004	Yes	3.473	-0.004	4.0	GoodResponse	0	0.296	544.369	9	57	Target	Neutral	True
545.369	0.3	Control	0.6552	0.004	Yes	3.473	-0.004	4.0	GoodResponse	0	0.296	n/a	9	57	ButtonPress	Neutral	True
545.441	0.34	Control	0.6552	n/a	Yes	3.473	n/a	n/a	GoodResponse	0	n/a	n/a	9	57	Blank	Neutral	True
545.775	1.45	Control	0.6552	n/a	Yes	3.473	n/a	5.0	GoodResponse	0	0.047	544.822	9	57	Feedback	Neutral	True
547.23	3.473	Control	0.6552	n/a	Yes	3.473	n/a	n/a	GoodResponse	0	0.0	n/a	9	57	ISIslide	Neutral	True
550.723	0.25	Win2	0.6609999999999999	0.001	Yes	2.727	0.023	n/a	GoodResponse	1	n/a	n/a	10	58	Cue	Win	True
550.974	4.05	Win2	0.6609999999999999	0.0	Yes	2.727	0.001	n/a	GoodResponse	1	n/a	n/a	10	58	Fixation	Win	True
555.02	0.36	Win2	0.6609999999999999	0.003	Yes	2.727	-0.003	4.0	GoodResponse	1	0.244	554.264	10	58	Target	Win	True
555.264	0.3	Win2	0.6609999999999999	0.003	Yes	2.727	-0.003	4.0	GoodResponse	1	0.244	n/a	10	58	ButtonPress	Win	True
555.387	0.34	Win2	0.6609999999999999	n/a	Yes	2.727	n/a	n/a	GoodResponse	1	n/a	n/a	10	58	Blank	Win	True
555.722	1.45	Win2	0.6609999999999999	n/a	Yes	2.727	n/a	5.0	GoodResponse	1	0.006	554.728	10	58	Feedback	Win	True
557.176	2.727	Win2	0.6609999999999999	n/a	Yes	2.727	n/a	n/a	GoodResponse	1	0.0	n/a	10	58	ISIslide	Win	True
559.918	0.25	Lose2	0.6667000000000001	0.0	Yes	2.682	0.018	n/a	GoodResponse	0	n/a	n/a	10	59	Cue	AvoidedLoss	True
560.168	4.0	Lose2	0.6667000000000001	0.001	Yes	2.682	0.0	n/a	GoodResponse	0	n/a	n/a	10	59	Fixation	AvoidedLoss	True
564.164	0.36	Lose2	0.6667000000000001	0.004	Yes	2.682	-0.004	4.0	GoodResponse	0	0.223	563.387	10	59	Target	AvoidedLoss	True
564.387	0.3	Lose2	0.6667000000000001	0.004	Yes	2.682	-0.004	4.0	GoodResponse	0	0.223	n/a	10	59	ButtonPress	AvoidedLoss	True
564.531	0.34	Lose2	0.6667000000000001	n/a	Yes	2.682	n/a	n/a	GoodResponse	0	n/a	n/a	10	59	Blank	AvoidedLoss	True
564.866	1.45	Lose2	0.6667000000000001	n/a	Yes	2.682	n/a	5.0	GoodResponse	0	0.029	563.895	10	59	Feedback	AvoidedLoss	True
566.32	2.682	Lose2	0.6667000000000001	n/a	Yes	2.682	n/a	n/a	GoodResponse	0	0.0	n/a	10	59	ISIslide	AvoidedLoss	True
569.028	0.25	Control	0.6720999999999999	0.0	Yes	2.672	0.028	n/a	GoodResponse	0	n/a	n/a	10	60	Cue	Neutral	False
569.279	4.0	Control	0.6720999999999999	0.0	Yes	2.672	0.001	4.0	GoodResponse	0	3.173	571.452	10	60	Fixation	Neutral	False
572.452	0.3	Control	0.6720999999999999	0.0	Yes	2.672	0.001	4.0	GoodResponse	0	3.173	n/a	10	60	ButtonPress	Neutral	False
573.274	0.35	Control	0.6720999999999999	0.004	Yes	2.672	-0.004	4.0	GoodResponse	0	0.249	572.523	10	60	Target	Neutral	False
573.523	0.3	Control	0.6720999999999999	0.004	Yes	2.672	-0.004	4.0	GoodResponse	0	0.249	n/a	10	60	ButtonPress	Neutral	False
573.625	0.35	Control	0.6720999999999999	n/a	Yes	2.672	n/a	n/a	GoodResponse	0	n/a	n/a	10	60	Blank	Neutral	False
573.976	1.45	Control	0.6720999999999999	n/a	Yes	2.672	n/a	5.0	GoodResponse	0	0.041	573.017	10	60	Feedback	Neutral	False
575.431	2.672	Control	0.6720999999999999	n/a	Yes	2.672	n/a	n/a	GoodResponse	0	0.0	n/a	10	60	ISIslide	Neutral	False
578.122	0.25	Lose2	0.6774	0.0	Yes	2.978	0.022	n/a	GoodResponse	0	n/a	n/a	10	61	Cue	AvoidedLoss	True
578.373	4.0	Lose2	0.6774	0.0	Yes	2.978	0.001	n/a	GoodResponse	0	n/a	n/a	10	61	Fixation	AvoidedLoss	True
582.368	0.34	Lose2	0.6774	0.004	Yes	2.978	-0.004	4.0	GoodResponse	0	0.273	581.641	10	61	Target	AvoidedLoss	True
582.641	0.3	Lose2	0.6774	0.004	Yes	2.978	-0.004	4.0	GoodResponse	0	0.273	n/a	10	61	ButtonPress	AvoidedLoss	True
582.719	0.36	Lose2	0.6774	n/a	Yes	2.978	n/a	n/a	GoodResponse	0	n/a	n/a	10	61	Blank	AvoidedLoss	True
583.07	1.45	Lose2	0.6774	n/a	Yes	2.978	n/a	5.0	GoodResponse	0	0.021	582.091	10	61	Feedback	AvoidedLoss	True
584.525	2.978	Lose2	0.6774	n/a	Yes	2.978	n/a	n/a	GoodResponse	0	0.0	n/a	10	61	ISIslide	AvoidedLoss	True
587.517	0.25	Lose2	0.6667000000000001	0.0	No	2.883	0.017	n/a	LatePress	-1	n/a	n/a	9	62	Cue	Loss	True
587.768	3.9	Lose2	0.6667000000000001	0.0	No	2.883	0.001	n/a	LatePress	-1	n/a	n/a	9	62	Fixation	Loss	True
591.663	0.33	Lose2	0.6667000000000001	0.004	No	2.883	-0.004	4.0	LatePress	-1	0.331	590.994	9	62	Target	Loss	True
591.994	0.3	Lose2	0.6667000000000001	0.004	No	2.883	-0.004	4.0	LatePress	-1	0.331	n/a	9	62	ButtonPress	Loss	True
591.997	0.37	Lose2	0.6667000000000001	n/a	No	2.883	n/a	n/a	LatePress	-1	n/a	n/a	9	62	Blank	Loss	True
592.365	1.45	Lose2	0.6667000000000001	n/a	No	2.883	n/a	5.0	LatePress	-1	0.042	591.407	9	62	Feedback	Loss	True
593.819	2.883	Lose2	0.6667000000000001	n/a	No	2.883	n/a	n/a	LatePress	-1	0.0	n/a	9	62	ISIslide	Loss	True
596.728	0.25	Lose2	0.6718999999999999	0.0	Yes	2.622	0.028	n/a	GoodResponse	0	n/a	n/a	9	63	Cue	AvoidedLoss	True
596.979	4.05	Lose2	0.6718999999999999	0.0	Yes	2.622	0.001	n/a	GoodResponse	0	n/a	n/a	9	63	Fixation	AvoidedLoss	True
601.024	0.32	Lose2	0.6718999999999999	0.004	Yes	2.622	-0.004	4.0	GoodResponse	0	0.243	600.267	9	63	Target	AvoidedLoss	True
601.267	0.3	Lose2	0.6718999999999999	0.004	Yes	2.622	-0.004	4.0	GoodResponse	0	0.243	n/a	9	63	ButtonPress	AvoidedLoss	True
601.358	0.38	Lose2	0.6718999999999999	n/a	Yes	2.622	n/a	n/a	GoodResponse	0	n/a	n/a	9	63	Blank	AvoidedLoss	True
601.726	1.45	Lose2	0.6718999999999999	n/a	Yes	2.622	n/a	5.0	GoodResponse	0	0.001	600.727	9	63	Feedback	AvoidedLoss	True
603.181	2.622	Lose2	0.6718999999999999	n/a	Yes	2.622	n/a	n/a	GoodResponse	0	0.0	n/a	9	63	ISIslide	AvoidedLoss	True
605.822	0.25	Win2	0.6769	0.0	Yes	3.128	0.022	n/a	GoodResponse	1	n/a	n/a	10	64	Cue	Win	True
606.073	4.15	Win2	0.6769	0.0	Yes	3.128	0.001	n/a	GoodResponse	1	n/a	n/a	10	64	Fixation	Win	True
610.218	0.31	Win2	0.6769	0.004	Yes	3.128	-0.004	4.0	GoodResponse	1	0.207	609.425	10	64	Target	Win	True
610.425	0.3	Win2	0.6769	0.004	Yes	3.128	-0.004	4.0	GoodResponse	1	0.207	n/a	10	64	ButtonPress	Win	True
610.536	0.39	Win2	0.6769	n/a	Yes	3.128	n/a	n/a	GoodResponse	1	n/a	n/a	10	64	Blank	Win	True
610.92	1.45	Win2	0.6769	n/a	Yes	3.128	n/a	5.0	GoodResponse	1	0.023	609.943	10	64	Feedback	Win	True
612.375	3.128	Win2	0.6769	n/a	Yes	3.128	n/a	n/a	GoodResponse	1	0.0	n/a	10	64	ISIslide	Win	True
615.517	0.25	Control	0.6818000000000001	0.001	Yes	2.783	0.017	n/a	GoodResponse	0	n/a	n/a	10	65	Cue	Neutral	True
615.768	4.0	Control	0.6818000000000001	0.0	Yes	2.783	0.001	n/a	GoodResponse	0	n/a	n/a	10	65	Fixation	Neutral	True
619.763	0.3	Control	0.6818000000000001	0.004	Yes	2.783	-0.004	4.0	GoodResponse	0	0.28	619.043	10	65	Target	Neutral	True
620.043	0.3	Control	0.6818000000000001	0.004	Yes	2.783	-0.004	4.0	GoodResponse	0	0.28	n/a	10	65	ButtonPress	Neutral	True
620.064	0.4	Control	0.6818000000000001	n/a	Yes	2.783	n/a	n/a	GoodResponse	0	n/a	n/a	10	65	Blank	Neutral	True
620.466	1.45	Control	0.6818000000000001	n/a	Yes	2.783	n/a	5.0	GoodResponse	0	0.038	619.504	10	65	Feedback	Neutral	True
621.92	2.783	Control	0.6818000000000001	n/a	Yes	2.783	n/a	n/a	GoodResponse	0	0.0	n/a	10	65	ISIslide	Neutral	True
624.728	0.25	Win2	0.6866	0.0	Yes	2.772	0.028	n/a	GoodResponse	1	n/a	n/a	11	66	Cue	Win	True
624.979	3.9	Win2	0.6866	0.0	Yes	2.772	0.001	n/a	GoodResponse	1	n/a	n/a	11	66	Fixation	Win	True
628.874	0.29	Win2	0.6866	0.004	Yes	2.772	-0.004	4.0	GoodResponse	1	0.282	628.156	11	66	Target	Win	True
629.156	0.3	Win2	0.6866	0.004	Yes	2.772	-0.004	4.0	GoodResponse	1	0.282	n/a	11	66	ButtonPress	Win	True
629.175	0.41	Win2	0.6866	n/a	Yes	2.772	n/a	n/a	GoodResponse	1	n/a	n/a	11	66	Blank	Win	True
629.576	1.45	Win2	0.6866	n/a	Yes	2.772	n/a	5.0	GoodResponse	1	0.002	628.578	11	66	Feedback	Win	True
631.031	2.772	Win2	0.6866	n/a	Yes	2.772	n/a	n/a	GoodResponse	1	0.0	n/a	11	66	ISIslide	Win	True
633.822	0.25	Control	0.6765000000000001	0.0	No	2.728	0.022	n/a	NoResponse	0	n/a	n/a	11	67	Cue	Neutral	False
634.073	3.95	Control	0.6765000000000001	0.0	No	2.728	0.001	4.0	NoResponse	0	2.453	635.526	11	67	Fixation	Neutral	False
636.526	0.3	Control	0.6765000000000001	0.0	No	2.728	0.001	4.0	NoResponse	0	2.453	n/a	11	67	ButtonPress	Neutral	False
638.018	0.28	Control	0.6765000000000001	0.004	No	2.728	-0.004	4.0	NoResponse	0	0.297	637.315	11	67	Target	Neutral	False
638.302	0.42	Control	0.6765000000000001	n/a	No	2.728	n/a	n/a	NoResponse	0	n/a	n/a	11	67	Blank	Neutral	False
638.315	0.3	Control	0.6765000000000001	0.004	No	2.728	-0.004	4.0	NoResponse	0	0.297	n/a	11	67	ButtonPress	Neutral	False
638.72	1.45	Control	0.6765000000000001	n/a	No	2.728	n/a	5.0	NoResponse	0	0.028	637.748	11	67	Feedback	Neutral	False
640.175	2.728	Control	0.6765000000000001	n/a	No	2.728	n/a	n/a	NoResponse	0	0.0	n/a	11	67	ISIslide	Neutral	False
642.916	0.25	Win2	0.6667000000000001	0.0	No	3.084	0.016	n/a	NoResponse	0	n/a	n/a	11	68	Cue	MissedWin	True
643.167	4.0	Win2	0.6667000000000001	0.0	No	3.084	0.001	n/a	NoResponse	0	n/a	n/a	11	68	Fixation	MissedWin	True
647.162	0.27	Win2	0.6667000000000001	0.004	No	3.084	-0.004	4.0	NoResponse	0	0.294	646.456	11	68	Target	MissedWin	True
647.446	0.43	Win2	0.6667000000000001	n/a	No	3.084	n/a	n/a	NoResponse	0	n/a	n/a	11	68	Blank	MissedWin	True
647.456	0.3	Win2	0.6667000000000001	0.004	No	3.084	-0.004	4.0	NoResponse	0	0.294	n/a	11	68	ButtonPress	MissedWin	True
647.864	1.45	Win2	0.6667000000000001	n/a	No	3.084	n/a	5.0	NoResponse	0	0.007	646.871	11	68	Feedback	MissedWin	True
649.319	3.084	Win2	0.6667000000000001	n/a	No	3.084	n/a	n/a	NoResponse	0	0.0	n/a	11	68	ISIslide	MissedWin	True
652.428	0.25	Win2	0.6570999999999999	0.0	No	3.222	0.028	n/a	NoResponse	0	n/a	n/a	11	69	Cue	MissedWin	True
652.679	3.95	Win2	0.6570999999999999	0.0	No	3.222	0.001	n/a	NoResponse	0	n/a	n/a	11	69	Fixation	MissedWin	True
656.624	0.26	Win2	0.6570999999999999	0.004	No	3.222	-0.004	4.0	NoResponse	0	0.298	655.922	11	69	Target	MissedWin	True
656.891	0.44	Win2	0.6570999999999999	n/a	No	3.222	n/a	n/a	NoResponse	0	n/a	n/a	11	69	Blank	MissedWin	True
656.922	0.3	Win2	0.6570999999999999	0.004	No	3.222	-0.004	4.0	NoResponse	0	0.298	n/a	11	69	ButtonPress	MissedWin	True
657.326	1.45	Win2	0.6570999999999999	n/a	No	3.222	n/a	5.0	NoResponse	0	0.007	656.333	11	69	Feedback	MissedWin	True
658.78	3.222	Win2	0.6570999999999999	n/a	No	3.222	n/a	n/a	NoResponse	0	0.0	n/a	11	69	ISIslide	MissedWin	True
662.023	0.25	Lose2	0.662	0.0	Yes	3.027	0.023	n/a	GoodResponse	0	n/a	n/a	11	70	Cue	AvoidedLoss	True
662.274	4.05	Lose2	0.662	0.0	Yes	3.027	0.001	n/a	GoodResponse	0	n/a	n/a	11	70	Fixation	AvoidedLoss	True
666.319	0.26	Lose2	0.662	0.004	Yes	3.027	-0.004	4.0	GoodResponse	0	0.229	665.548	11	70	Target	AvoidedLoss	True
666.548	0.3	Lose2	0.662	0.004	Yes	3.027	-0.004	4.0	GoodResponse	0	0.229	n/a	11	70	ButtonPress	AvoidedLoss	True
666.587	0.44	Lose2	0.662	n/a	Yes	3.027	n/a	n/a	GoodResponse	0	n/a	n/a	11	70	Blank	AvoidedLoss	True
667.022	1.45	Lose2	0.662	n/a	Yes	3.027	n/a	5.0	GoodResponse	0	0.018	666.04	11	70	Feedback	AvoidedLoss	True
668.476	3.027	Lose2	0.662	n/a	Yes	3.027	n/a	n/a	GoodResponse	0	0.0	n/a	11	70	ISIslide	AvoidedLoss	True
671.518	0.25	Win2	0.6528	0.0	No	2.732	0.018	n/a	NoResponse	0	n/a	n/a	11	71	Cue	MissedWin	True
671.769	4.05	Win2	0.6528	0.0	No	2.732	0.001	n/a	NoResponse	0	n/a	n/a	11	71	Fixation	MissedWin	True
675.815	0.26	Win2	0.6528	0.003	No	2.732	-0.003	4.0	NoResponse	0	0.317	675.132	11	71	Target	MissedWin	True
676.082	0.44	Win2	0.6528	n/a	No	2.732	n/a	n/a	NoResponse	0	n/a	n/a	11	71	Blank	MissedWin	True
676.132	0.3	Win2	0.6528	0.003	No	2.732	-0.003	4.0	NoResponse	0	0.317	n/a	11	71	ButtonPress	MissedWin	True
676.517	1.45	Win2	0.6528	n/a	No	2.732	n/a	5.0	NoResponse	0	0.036	675.553	11	71	Feedback	MissedWin	True
677.971	2.732	Win2	0.6528	n/a	No	2.732	n/a	n/a	NoResponse	0	0.0	n/a	11	71	ISIslide	MissedWin	True
680.729	0.25	Win2	0.6575	0.0	Yes	2.771	0.029	n/a	GoodResponse	1	n/a	n/a	12	72	Cue	Win	True
680.98	4.1	Win2	0.6575	0.0	Yes	2.771	0.001	n/a	GoodResponse	1	n/a	n/a	12	72	Fixation	Win	True
685.076	0.27	Win2	0.6575	0.003	Yes	2.771	-0.003	4.0	GoodResponse	1	0.242	684.318	12	72	Target	Win	True
685.318	0.3	Win2	0.6575	0.003	Yes	2.771	-0.003	4.0	GoodResponse	1	0.242	n/a	12	72	ButtonPress	Win	True
685.36	0.43	Win2	0.6575	n/a	Yes	2.771	n/a	n/a	GoodResponse	1	n/a	n/a	12	72	Blank	Win	True
685.778	1.45	Win2	0.6575	n/a	Yes	2.771	n/a	5.0	GoodResponse	1	0.042	684.82	12	72	Feedback	Win	True
687.232	2.771	Win2	0.6575	n/a	Yes	2.771	n/a	n/a	GoodResponse	1	0.0	n/a	12	72	ISIslide	Win	True
690.024	0.25	Win2	0.6486	0.0	No	2.676	0.024	n/a	NoResponse	0	n/a	n/a	12	73	Cue	MissedWin	True
690.275	4.0	Win2	0.6486	0.0	No	2.676	0.001	n/a	NoResponse	0	n/a	n/a	12	73	Fixation	MissedWin	True
694.27	0.27	Win2	0.6486	0.004	No	2.676	-0.004	4.0	NoResponse	0	0.296	693.566	12	73	Target	MissedWin	True
694.554	0.43	Win2	0.6486	n/a	No	2.676	n/a	n/a	NoResponse	0	n/a	n/a	12	73	Blank	MissedWin	True
694.566	0.3	Win2	0.6486	0.004	No	2.676	-0.004	4.0	NoResponse	0	0.296	n/a	12	73	ButtonPress	MissedWin	True
694.972	1.45	Win2	0.6486	n/a	No	2.676	n/a	5.0	NoResponse	0	0.019	693.991	12	73	Feedback	MissedWin	True
696.426	2.676	Win2	0.6486	n/a	No	2.676	n/a	n/a	NoResponse	0	0.0	n/a	12	73	ISIslide	MissedWin	True
699.118	0.25	Lose2	0.6533	0.0	Yes	2.632	0.018	n/a	GoodResponse	0	n/a	n/a	12	74	Cue	AvoidedLoss	True
699.368	4.05	Lose2	0.6533	0.001	Yes	2.632	0.0	n/a	GoodResponse	0	n/a	n/a	12	74	Fixation	AvoidedLoss	True
703.414	0.28	Lose2	0.6533	0.004	Yes	2.632	-0.004	4.0	GoodResponse	0	0.208	702.622	12	74	Target	AvoidedLoss	True
703.622	0.3	Lose2	0.6533	0.004	Yes	2.632	-0.004	4.0	GoodResponse	0	0.208	n/a	12	74	ButtonPress	AvoidedLoss	True
703.698	0.42	Lose2	0.6533	n/a	Yes	2.632	n/a	n/a	GoodResponse	0	n/a	n/a	12	74	Blank	AvoidedLoss	True
704.116	1.45	Lose2	0.6533	n/a	Yes	2.632	n/a	5.0	GoodResponse	0	0.046	703.162	12	74	Feedback	AvoidedLoss	True
705.57	2.632	Lose2	0.6533	n/a	Yes	2.632	n/a	n/a	GoodResponse	0	0.0	n/a	12	74	ISIslide	AvoidedLoss	True
708.228	0.25	Lose2	0.6579	0.0	Yes	2.922	0.028	n/a	GoodResponse	0	n/a	n/a	12	75	Cue	AvoidedLoss	True
708.479	3.95	Lose2	0.6579	0.0	Yes	2.922	0.001	n/a	GoodResponse	0	n/a	n/a	12	75	Fixation	AvoidedLoss	True
712.424	0.29	Lose2	0.6579	0.004	Yes	2.922	-0.004	4.0	GoodResponse	0	0.253	711.677	12	75	Target	AvoidedLoss	True
712.677	0.3	Lose2	0.6579	0.004	Yes	2.922	-0.004	4.0	GoodResponse	0	0.253	n/a	12	75	ButtonPress	AvoidedLoss	True
712.725	0.41	Lose2	0.6579	n/a	Yes	2.922	n/a	n/a	GoodResponse	0	n/a	n/a	12	75	Blank	AvoidedLoss	True
713.126	1.45	Lose2	0.6579	n/a	Yes	2.922	n/a	5.0	GoodResponse	0	0.011	712.137	12	75	Feedback	AvoidedLoss	True
714.581	2.922	Lose2	0.6579	n/a	Yes	2.922	n/a	n/a	GoodResponse	0	0.0	n/a	12	75	ISIslide	AvoidedLoss	True
717.523	0.25	Control	0.6494	0.0	No	3.227	0.023	n/a	NoResponse	0	n/a	n/a	12	76	Cue	Neutral	True
717.774	4.05	Control	0.6494	0.0	No	3.227	0.001	n/a	NoResponse	0	n/a	n/a	12	76	Fixation	Neutral	True
721.819	0.29	Control	0.6494	0.004	No	3.227	-0.004	4.0	NoResponse	0	0.387	721.206	12	76	Target	Neutral	True
722.12	0.41	Control	0.6494	n/a	No	3.227	n/a	n/a	NoResponse	0	n/a	n/a	12	76	Blank	Neutral	True
722.206	0.3	Control	0.6494	0.004	No	3.227	-0.004	4.0	NoResponse	0	0.387	n/a	12	76	ButtonPress	Neutral	True
722.521	1.45	Control	0.6494	n/a	No	3.227	n/a	5.0	NoResponse	0	0.031	721.552	12	76	Feedback	Neutral	True
723.975	3.227	Control	0.6494	n/a	No	3.227	n/a	n/a	NoResponse	0	0.0	n/a	12	76	ISIslide	Neutral	True
727.218	0.25	Lose2	0.6409999999999999	0.001	No	2.582	0.018	n/a	NoResponse	-1	n/a	n/a	11	77	Cue	Loss	True
727.469	3.95	Lose2	0.6409999999999999	0.0	No	2.582	0.001	n/a	NoResponse	-1	n/a	n/a	11	77	Fixation	Loss	True
731.414	0.3	Lose2	0.6409999999999999	0.004	No	2.582	-0.004	4.0	NoResponse	-1	0.314	730.728	11	77	Target	Loss	True
731.715	0.4	Lose2	0.6409999999999999	n/a	No	2.582	n/a	n/a	NoResponse	-1	n/a	n/a	11	77	Blank	Loss	True
731.728	0.3	Lose2	0.6409999999999999	0.004	No	2.582	-0.004	4.0	NoResponse	-1	0.314	n/a	11	77	ButtonPress	Loss	True
732.116	1.45	Lose2	0.6409999999999999	n/a	No	2.582	n/a	5.0	NoResponse	-1	0.046	731.162	11	77	Feedback	Loss	True
733.571	2.582	Lose2	0.6409999999999999	n/a	No	2.582	n/a	n/a	NoResponse	-1	0.0	n/a	11	77	ISIslide	Loss	True
