onset	duration	cue_type	current_mean_accuracy	duration_error	is_hit	isi_adjusted	onset_delay	response	response_type	reward	rt	rt_time	total_reward	trial_number	trial_phase	trial_type	one_press
11.107	0.25	Control	1.0	0.0	Yes	2.943	0.007	n/a	GoodResponse	0	n/a	n/a	0	0	Cue	Neutral	True
11.358	3.85	Control	1.0	0.0	Yes	2.943	0.001	n/a	GoodResponse	0	n/a	n/a	0	0	Fixation	Neutral	True
15.203	0.4	Control	1.0	0.004	Yes	2.943	-0.004	2.0	GoodResponse	0	0.222	14.425	0	0	Target	Neutral	True
15.425	0.3	Control	1.0	0.004	Yes	2.943	-0.004	2.0	GoodResponse	0	0.222	n/a	0	0	ButtonPress	Neutral	True
15.604	0.3	Control	1.0	n/a	Yes	2.943	n/a	n/a	GoodResponse	0	n/a	n/a	0	0	Blank	Neutral	True
15.905	1.45	Control	1.0	n/a	Yes	2.943	n/a	5.0	GoodResponse	0	0.021	14.926	0	0	Feedback	Neutral	True
17.359	2.943	Control	1.0	n/a	Yes	2.943	n/a	n/a	GoodResponse	0	0.0	n/a	0	0	ISIslide	Neutral	True
20.318	0.25	Lose2	1.0	0.0	Yes	2.782	0.018	n/a	GoodResponse	0	n/a	n/a	0	1	Cue	AvoidedLoss	True
20.569	4.0	Lose2	1.0	0.0	Yes	2.782	0.001	n/a	GoodResponse	0	n/a	n/a	0	1	Fixation	AvoidedLoss	True
24.564	0.39	Lose2	1.0	0.004	Yes	2.782	-0.004	2.0	GoodResponse	0	0.23	23.794	0	1	Target	AvoidedLoss	True
24.794	0.3	Lose2	1.0	0.004	Yes	2.782	-0.004	2.0	GoodResponse	0	0.23	n/a	0	1	ButtonPress	AvoidedLoss	True
24.965	0.31	Lose2	1.0	n/a	Yes	2.782	n/a	n/a	GoodResponse	0	n/a	n/a	0	1	Blank	AvoidedLoss	True
25.266	1.45	Lose2	1.0	n/a	Yes	2.782	n/a	5.0	GoodResponse	0	0.026	24.292	0	1	Feedback	AvoidedLoss	True
26.72	2.782	Lose2	1.0	n/a	Yes	2.782	n/a	n/a	GoodResponse	0	0.0	n/a	0	1	ISIslide	AvoidedLoss	True
29.529	0.25	Control	1.0	0.0	Yes	2.571	0.029	n/a	GoodResponse	0	n/a	n/a	0	2	Cue	Neutral	True
29.779	4.1	Control	1.0	0.001	Yes	2.571	0.0	n/a	GoodResponse	0	n/a	n/a	0	2	Fixation	Neutral	True
33.875	0.38	Control	1.0	0.004	Yes	2.571	-0.004	2.0	GoodResponse	0	0.247	33.122	0	2	Target	Neutral	True
34.122	0.3	Control	1.0	0.004	Yes	2.571	-0.004	2.0	GoodResponse	0	0.247	n/a	0	2	ButtonPress	Neutral	True
34.26	0.32	Control	1.0	n/a	Yes	2.571	n/a	n/a	GoodResponse	0	n/a	n/a	0	2	Blank	Neutral	True
34.577	1.45	Control	1.0	n/a	Yes	2.571	n/a	5.0	GoodResponse	0	0.032	33.609	0	2	Feedback	Neutral	True
36.031	2.571	Control	1.0	n/a	Yes	2.571	n/a	n/a	GoodResponse	0	0.0	n/a	0	2	ISIslide	Neutral	True
38.623	0.25	Win2	1.0	0.0	Yes	2.827	0.023	n/a	GoodResponse	1	n/a	n/a	1	3	Cue	Win	True
38.873	3.95	Win2	1.0	0.0	Yes	2.827	0.0	n/a	GoodResponse	1	n/a	n/a	1	3	Fixation	Win	True
42.835	0.37	Win2	1.0	0.0	Yes	2.827	0.012	2.0	GoodResponse	1	0.222	42.057	1	3	Target	Win	True
43.057	0.3	Win2	1.0	0.0	Yes	2.827	0.012	2.0	GoodResponse	1	0.222	n/a	1	3	ButtonPress	Win	True
43.203	0.33	Win2	1.0	n/a	Yes	2.827	n/a	n/a	GoodResponse	1	n/a	n/a	1	3	Blank	Win	True
43.521	1.45	Win2	1.0	n/a	Yes	2.827	n/a	5.0	GoodResponse	1	0.015	42.536	1	3	Feedback	Win	True
44.975	2.827	Win2	1.0	n/a	Yes	2.827	n/a	n/a	GoodResponse	1	0.0	n/a	1	3	ISIslide	Win	True
47.817	0.25	Win2	1.0	0.0	Yes	3.283	0.017	n/a	GoodResponse	1	n/a	n/a	2	4	Cue	Win	True
48.067	4.0	Win2	1.0	0.0	Yes	3.283	0.0	n/a	GoodResponse	1	n/a	n/a	2	4	Fixation	Win	True
52.063	0.36	Win2	1.0	0.004	Yes	3.283	-0.004	2.0	GoodResponse	1	0.245	51.308	2	4	Target	Win	True
52.308	0.3	Win2	1.0	0.004	Yes	3.283	-0.004	2.0	GoodResponse	1	0.245	n/a	2	4	ButtonPress	Win	True
52.43	0.34	Win2	1.0	n/a	Yes	3.283	n/a	n/a	GoodResponse	1	n/a	n/a	2	4	Blank	Win	True
52.765	1.45	Win2	1.0	n/a	Yes	3.283	n/a	5.0	GoodResponse	1	0.038	51.803	2	4	Feedback	Win	True
54.219	3.283	Win2	1.0	n/a	Yes	3.283	n/a	n/a	GoodResponse	1	0.0	n/a	2	4	ISIslide	Win	True
57.529	0.25	Win2	1.0	0.0	Yes	2.771	0.029	n/a	GoodResponse	1	n/a	n/a	3	5	Cue	Win	True
57.78	4.0	Win2	1.0	0.0	Yes	2.771	0.001	n/a	GoodResponse	1	n/a	n/a	3	5	Fixation	Win	True
61.775	0.35	Win2	1.0	0.004	Yes	2.771	-0.004	2.0	GoodResponse	1	0.211	60.986	3	5	Target	Win	True
61.986	0.3	Win2	1.0	0.004	Yes	2.771	-0.004	2.0	GoodResponse	1	0.211	n/a	3	5	ButtonPress	Win	True
62.126	0.35	Win2	1.0	n/a	Yes	2.771	n/a	n/a	GoodResponse	1	n/a	n/a	3	5	Blank	Win	True
62.477	1.45	Win2	1.0	n/a	Yes	2.771	n/a	5.0	GoodResponse	1	0.033	61.51	3	5	Feedback	Win	True
63.931	2.771	Win2	1.0	n/a	Yes	2.771	n/a	n/a	GoodResponse	1	0.0	n/a	3	5	ISIslide	Win	True
66.723	0.25	Lose2	1.0	0.0	Yes	2.727	0.023	n/a	GoodResponse	0	n/a	n/a	3	6	Cue	AvoidedLoss	True
66.974	3.95	Lose2	1.0	0.0	Yes	2.727	0.001	n/a	GoodResponse	0	n/a	n/a	3	6	Fixation	AvoidedLoss	True
70.919	0.34	Lose2	1.0	0.004	Yes	2.727	-0.004	2.0	GoodResponse	0	0.185	70.104	3	6	Target	AvoidedLoss	True
71.104	0.3	Lose2	1.0	0.004	Yes	2.727	-0.004	2.0	GoodResponse	0	0.185	n/a	3	6	ButtonPress	AvoidedLoss	True
71.27	0.36	Lose2	1.0	n/a	Yes	2.727	n/a	n/a	GoodResponse	0	n/a	n/a	3	6	Blank	AvoidedLoss	True
71.621	1.45	Lose2	1.0	n/a	Yes	2.727	n/a	5.0	GoodResponse	0	0.011	70.632	3	6	Feedback	AvoidedLoss	True
73.075	2.727	Lose2	1.0	n/a	Yes	2.727	n/a	n/a	GoodResponse	0	0.0	n/a	3	6	ISIslide	AvoidedLoss	True
75.817	0.25	Lose2	1.0	0.0	Yes	4.033	0.017	n/a	GoodResponse	0	n/a	n/a	3	7	Cue	AvoidedLoss	True
76.068	4.05	Lose2	1.0	0.0	Yes	4.033	0.001	n/a	GoodResponse	0	n/a	n/a	3	7	Fixation	AvoidedLoss	True
80.113	0.33	Lose2	1.0	0.004	Yes	4.033	-0.004	2.0	GoodResponse	0	0.209	79.322	3	7	Target	AvoidedLoss	True
80.322	0.3	Lose2	1.0	0.004	Yes	4.033	-0.004	2.0	GoodResponse	0	0.209	n/a	3	7	ButtonPress	AvoidedLoss	True
80.447	0.37	Lose2	1.0	n/a	Yes	4.033	n/a	n/a	GoodResponse	0	n/a	n/a	3	7	Blank	AvoidedLoss	True
80.815	1.45	Lose2	1.0	n/a	Yes	4.033	n/a	5.0	GoodResponse	0	0.037	79.852	3	7	Feedback	AvoidedLoss	True
82.27	4.033	Lose2	1.0	n/a	Yes	4.033	n/a	n/a	GoodResponse	0	0.0	n/a	3	7	ISIslide	AvoidedLoss	True
86.315	0.25	Lose2	1.0	0.0	Yes	3.035	0.015	n/a	GoodResponse	0	n/a	n/a	3	8	Cue	AvoidedLoss	True
86.566	3.95	Lose2	1.0	0.0	Yes	3.035	0.001	n/a	GoodResponse	0	n/a	n/a	3	8	Fixation	AvoidedLoss	True
90.511	0.32	Lose2	1.0	0.004	Yes	3.035	-0.004	2.0	GoodResponse	0	0.215	89.726	3	8	Target	AvoidedLoss	True
90.726	0.3	Lose2	1.0	0.004	Yes	3.035	-0.004	2.0	GoodResponse	0	0.215	n/a	3	8	ButtonPress	AvoidedLoss	True
90.845	0.38	Lose2	1.0	n/a	Yes	3.035	n/a	n/a	GoodResponse	0	n/a	n/a	3	8	Blank	AvoidedLoss	True
91.213	1.45	Lose2	1.0	n/a	Yes	3.035	n/a	5.0	GoodResponse	0	0.028	90.241	3	8	Feedback	AvoidedLoss	True
92.667	3.035	Lose2	1.0	n/a	Yes	3.035	n/a	n/a	GoodResponse	0	0.0	n/a	3	8	ISIslide	AvoidedLoss	True
95.726	0.25	Lose2	1.0	0.0	Yes	3.124	0.026	n/a	GoodResponse	0	n/a	n/a	3	9	Cue	AvoidedLoss	True
95.977	3.95	Lose2	1.0	0.0	Yes	3.124	0.001	n/a	GoodResponse	0	n/a	n/a	3	9	Fixation	AvoidedLoss	True
99.922	0.31	Lose2	1.0	0.004	Yes	3.124	-0.004	2.0	GoodResponse	0	0.195	99.117	3	9	Target	AvoidedLoss	True
100.117	0.3	Lose2	1.0	0.004	Yes	3.124	-0.004	2.0	GoodResponse	0	0.195	n/a	3	9	ButtonPress	AvoidedLoss	True
100.24	0.39	Lose2	1.0	n/a	Yes	3.124	n/a	n/a	GoodResponse	0	n/a	n/a	3	9	Blank	AvoidedLoss	True
100.624	1.45	Lose2	1.0	n/a	Yes	3.124	n/a	5.0	GoodResponse	0	0.032	99.656	3	9	Feedback	AvoidedLoss	True
102.079	3.124	Lose2	1.0	n/a	Yes	3.124	n/a	n/a	GoodResponse	0	0.0	n/a	3	9	ISIslide	AvoidedLoss	True
105.221	0.25	Control	1.0	0.001	Yes	3.279	0.021	n/a	GoodResponse	0	n/a	n/a	3	10	Cue	Neutral	True
105.472	4.0	Control	1.0	0.0	Yes	3.279	0.001	n/a	GoodResponse	0	n/a	n/a	3	10	Fixation	Neutral	True
109.467	0.3	Control	1.0	0.004	Yes	3.279	-0.004	2.0	GoodResponse	0	0.224	108.691	3	10	Target	Neutral	True
109.691	0.3	Control	1.0	0.004	Yes	3.279	-0.004	2.0	GoodResponse	0	0.224	n/a	3	10	ButtonPress	Neutral	True
109.768	0.4	Control	1.0	n/a	Yes	3.279	n/a	n/a	GoodResponse	0	n/a	n/a	3	10	Blank	Neutral	True
110.17	1.45	Control	1.0	n/a	Yes	3.279	n/a	5.0	GoodResponse	0	0.047	109.217	3	10	Feedback	Neutral	True
111.624	3.279	Control	1.0	n/a	Yes	3.279	n/a	n/a	GoodResponse	0	0.0	n/a	3	10	ISIslide	Neutral	True
114.917	0.25	Lose2	1.0	0.0	Yes	2.733	0.017	n/a	GoodResponse	0	n/a	n/a	3	11	Cue	AvoidedLoss	True
115.168	4.05	Lose2	1.0	0.0	Yes	2.733	0.001	n/a	GoodResponse	0	n/a	n/a	3	11	Fixation	AvoidedLoss	True
119.213	0.29	Lose2	1.0	0.004	Yes	2.733	-0.004	2.0	GoodResponse	0	0.266	118.479	3	11	Target	AvoidedLoss	True
119.479	0.3	Lose2	1.0	0.004	Yes	2.733	-0.004	2.0	GoodResponse	0	0.266	n/a	3	11	ButtonPress	AvoidedLoss	True
119.514	0.41	Lose2	1.0	n/a	Yes	2.733	n/a	n/a	GoodResponse	0	n/a	n/a	3	11	Blank	AvoidedLoss	True
119.915	1.45	Lose2	1.0	n/a	Yes	2.733	n/a	5.0	GoodResponse	0	0.01	118.925	3	11	Feedback	AvoidedLoss	True
121.37	2.733	Lose2	1.0	n/a	Yes	2.733	n/a	n/a	GoodResponse	0	0.0	n/a	3	11	ISIslide	AvoidedLoss	True
124.128	0.25	Control	0.9231	0.0	No	2.972	0.028	n/a	NoResponse	0	n/a	n/a	3	12	Cue	Neutral	True
124.379	3.9	Control	0.9231	0.0	No	2.972	0.001	n/a	NoResponse	0	n/a	n/a	3	12	Fixation	Neutral	True
128.274	0.28	Control	0.9231	0.004	No	2.972	-0.004	2.0	NoResponse	0	0.292	127.566	3	12	Target	Neutral	True
128.558	0.42	Control	0.9231	n/a	No	2.972	n/a	n/a	NoResponse	0	n/a	n/a	3	12	Blank	Neutral	True
128.566	0.3	Control	0.9231	0.004	No	2.972	-0.004	2.0	NoResponse	0	0.292	n/a	3	12	ButtonPress	Neutral	True
128.976	1.45	Control	0.9231	n/a	No	2.972	n/a	5.0	NoResponse	0	0.021	127.997	3	12	Feedback	Neutral	True
130.43	2.972	Control	0.9231	n/a	No	2.972	n/a	n/a	NoResponse	0	0.0	n/a	3	12	ISIslide	Neutral	True
133.422	0.25	Control	0.9286	0.0	Yes	2.778	0.022	n/a	GoodResponse	0	n/a	n/a	3	13	Cue	Neutral	True
133.673	4.0	Control	0.9286	0.0	Yes	2.778	0.001	n/a	GoodResponse	0	n/a	n/a	3	13	Fixation	Neutral	True
137.668	0.27	Control	0.9286	0.004	Yes	2.778	-0.004	2.0	GoodResponse	0	0.23	136.898	3	13	Target	Neutral	True
137.898	0.3	Control	0.9286	0.004	Yes	2.778	-0.004	2.0	GoodResponse	0	0.23	n/a	3	13	ButtonPress	Neutral	True
137.953	0.43	Control	0.9286	n/a	Yes	2.778	n/a	n/a	GoodResponse	0	n/a	n/a	3	13	Blank	Neutral	True
138.37	1.45	Control	0.9286	n/a	Yes	2.778	n/a	5.0	GoodResponse	0	0.042	137.412	3	13	Feedback	Neutral	True
139.825	2.778	Control	0.9286	n/a	Yes	2.778	n/a	n/a	GoodResponse	0	0.0	n/a	3	13	ISIslide	Neutral	True
142.616	0.25	Win2	0.9333	0.001	Yes	2.684	0.016	n/a	GoodResponse	1	n/a	n/a	4	14	Cue	Win	True
142.867	4.1	Win2	0.9333	0.0	Yes	2.684	0.001	n/a	GoodResponse	1	n/a	n/a	4	14	Fixation	Win	True
146.963	0.26	Win2	0.9333	0.003	Yes	2.684	-0.003	2.0	GoodResponse	1	0.193	146.156	4	14	Target	Win	True
147.156	0.3	Win2	0.9333	0.003	Yes	2.684	-0.003	2.0	GoodResponse	1	0.193	n/a	4	14	ButtonPress	Win	True
147.23	0.44	Win2	0.9333	n/a	Yes	2.684	n/a	n/a	GoodResponse	1	n/a	n/a	4	14	Blank	Win	True
147.665	1.45	Win2	0.9333	n/a	Yes	2.684	n/a	5.0	GoodResponse	1	0.015	146.68	4	14	Feedback	Win	True
149.119	2.684	Win2	0.9333	n/a	Yes	2.684	n/a	n/a	GoodResponse	1	0.0	n/a	4	14	ISIslide	Win	True
151.827	0.25	Control	0.9375	0.0	Yes	2.973	0.027	n/a	GoodResponse	0	n/a	n/a	4	15	Cue	Neutral	True
152.078	4.0	Control	0.9375	0.0	Yes	2.973	0.001	n/a	GoodResponse	0	n/a	n/a	4	15	Fixation	Neutral	True
156.073	0.25	Control	0.9375	0.004	Yes	2.973	-0.004	2.0	GoodResponse	0	0.235	155.308	4	15	Target	Neutral	True
156.308	0.3	Control	0.9375	0.004	Yes	2.973	-0.004	2.0	GoodResponse	0	0.235	n/a	4	15	ButtonPress	Neutral	True
156.324	0.45	Control	0.9375	n/a	Yes	2.973	n/a	n/a	GoodResponse	0	n/a	n/a	4	15	Blank	Neutral	True
156.775	1.45	Control	0.9375	n/a	Yes	2.973	n/a	5.0	GoodResponse	0	0.027	155.802	4	15	Feedback	Neutral	True
158.23	2.973	Control	0.9375	n/a	Yes	2.973	n/a	n/a	GoodResponse	0	0.0	n/a	4	15	ISIslide	Neutral	True
161.222	0.25	Win2	0.9412	0.0	Yes	2.878	0.022	n/a	GoodResponse	1	n/a	n/a	5	16	Cue	Win	True
161.473	4.0	Win2	0.9412	0.0	Yes	2.878	0.001	n/a	GoodResponse	1	n/a	n/a	5	16	Fixation	Win	True
165.468	0.24	Win2	0.9412	0.004	Yes	2.878	-0.004	2.0	GoodResponse	1	0.202	164.67	5	16	Target	Win	True
165.67	0.3	Win2	0.9412	0.004	Yes	2.878	-0.004	2.0	GoodResponse	1	0.202	n/a	5	16	ButtonPress	Win	True
165.719	0.46	Win2	0.9412	n/a	Yes	2.878	n/a	n/a	GoodResponse	1	n/a	n/a	5	16	Blank	Win	True
166.17	1.45	Win2	0.9412	n/a	Yes	2.878	n/a	5.0	GoodResponse	1	0.046	165.216	5	16	Feedback	Win	True
167.624	2.878	Win2	0.9412	n/a	Yes	2.878	n/a	n/a	GoodResponse	1	0.0	n/a	5	16	ISIslide	Win	True
170.516	0.25	Lose2	0.9444	0.001	Yes	2.734	0.016	n/a	GoodResponse	0	n/a	n/a	5	17	Cue	AvoidedLoss	True
170.767	3.95	Lose2	0.9444	0.0	Yes	2.734	0.001	n/a	GoodResponse	0	n/a	n/a	5	17	Fixation	AvoidedLoss	True
174.712	0.23	Lose2	0.9444	0.004	Yes	2.734	-0.004	2.0	GoodResponse	0	0.186	173.898	5	17	Target	AvoidedLoss	True
174.898	0.3	Lose2	0.9444	0.004	Yes	2.734	-0.004	2.0	GoodResponse	0	0.186	n/a	5	17	ButtonPress	AvoidedLoss	True
174.946	0.47	Lose2	0.9444	n/a	Yes	2.734	n/a	n/a	GoodResponse	0	n/a	n/a	5	17	Blank	AvoidedLoss	True
175.414	1.45	Lose2	0.9444	n/a	Yes	2.734	n/a	5.0	GoodResponse	0	0.021	174.435	5	17	Feedback	AvoidedLoss	True
176.869	2.734	Lose2	0.9444	n/a	Yes	2.734	n/a	n/a	GoodResponse	0	0.0	n/a	5	17	ISIslide	AvoidedLoss	True
179.627	0.25	Lose2	0.9473999999999999	0.0	Yes	2.723	0.027	n/a	GoodResponse	0	n/a	n/a	5	18	Cue	AvoidedLoss	True
179.878	4.05	Lose2	0.9473999999999999	0.0	Yes	2.723	0.001	n/a	GoodResponse	0	n/a	n/a	5	18	Fixation	AvoidedLoss	True
183.923	0.22	Lose2	0.9473999999999999	0.004	Yes	2.723	-0.004	2.0	GoodResponse	0	0.199	183.122	5	18	Target	AvoidedLoss	True
184.122	0.3	Lose2	0.9473999999999999	0.004	Yes	2.723	-0.004	2.0	GoodResponse	0	0.199	n/a	5	18	ButtonPress	AvoidedLoss	True
184.157	0.48	Lose2	0.9473999999999999	n/a	Yes	2.723	n/a	n/a	GoodResponse	0	n/a	n/a	5	18	Blank	AvoidedLoss	True
184.625	1.45	Lose2	0.9473999999999999	n/a	Yes	2.723	n/a	5.0	GoodResponse	0	0.03	183.655	5	18	Feedback	AvoidedLoss	True
186.08	2.723	Lose2	0.9473999999999999	n/a	Yes	2.723	n/a	n/a	GoodResponse	0	0.0	n/a	5	18	ISIslide	AvoidedLoss	True
188.821	0.25	Control	0.9	0.0	No	2.929	0.021	n/a	NoResponse	0	n/a	n/a	5	19	Cue	Neutral	True
189.072	3.95	Control	0.9	0.0	No	2.929	0.001	n/a	NoResponse	0	n/a	n/a	5	19	Fixation	Neutral	True
193.017	0.21	Control	0.9	0.004	No	2.929	-0.004	2.0	NoResponse	0	0.226	192.243	5	19	Target	Neutral	True
193.234	0.49	Control	0.9	n/a	No	2.929	n/a	n/a	NoResponse	0	n/a	n/a	5	19	Blank	Neutral	True
193.243	0.3	Control	0.9	0.004	No	2.929	-0.004	2.0	NoResponse	0	0.226	n/a	5	19	ButtonPress	Neutral	True
193.719	1.45	Control	0.9	n/a	No	2.929	n/a	5.0	NoResponse	0	0.009	192.728	5	19	Feedback	Neutral	True
195.173	2.929	Control	0.9	n/a	No	2.929	n/a	n/a	NoResponse	0	0.0	n/a	5	19	ISIslide	Neutral	True
198.116	0.25	Control	0.8571	0.0	No	2.634	0.016	n/a	NoResponse	0	n/a	n/a	5	20	Cue	Neutral	True
198.366	4.05	Control	0.8571	0.0	No	2.634	0.0	2.0	NoResponse	0	3.766	201.132	5	20	Fixation	Neutral	True
202.132	0.3	Control	0.8571	0.0	No	2.634	0.0	2.0	NoResponse	0	3.766	n/a	5	20	ButtonPress	Neutral	True
202.412	0.2	Control	0.8571	0.004	No	2.634	-0.004	n/a	NoResponse	0	n/a	n/a	5	20	Target	Neutral	True
202.612	0.5	Control	0.8571	n/a	No	2.634	n/a	n/a	NoResponse	0	n/a	n/a	5	20	Blank	Neutral	True
203.114	1.45	Control	0.8571	n/a	No	2.634	n/a	5.0	NoResponse	0	0.028	202.142	5	20	Feedback	Neutral	True
204.568	2.634	Control	0.8571	n/a	No	2.634	n/a	n/a	NoResponse	0	0.0	n/a	5	20	ISIslide	Neutral	True
207.226	0.25	Control	0.8181999999999999	0.0	No	2.774	0.026	n/a	NoResponse	0	n/a	n/a	5	21	Cue	Neutral	True
207.477	4.1	Control	0.8181999999999999	0.0	No	2.774	0.001	n/a	NoResponse	0	n/a	n/a	5	21	Fixation	Neutral	True
211.572	0.19	Control	0.8181999999999999	0.004	No	2.774	-0.004	2.0	NoResponse	0	0.211	210.783	5	21	Target	Neutral	True
211.773	0.51	Control	0.8181999999999999	n/a	No	2.774	n/a	n/a	NoResponse	0	n/a	n/a	5	21	Blank	Neutral	True
211.783	0.3	Control	0.8181999999999999	0.004	No	2.774	-0.004	2.0	NoResponse	0	0.211	n/a	5	21	ButtonPress	Neutral	True
212.274	1.45	Control	0.8181999999999999	n/a	No	2.774	n/a	5.0	NoResponse	0	0.039	211.313	5	21	Feedback	Neutral	True
213.729	2.774	Control	0.8181999999999999	n/a	No	2.774	n/a	n/a	NoResponse	0	0.0	n/a	5	21	ISIslide	Neutral	True
216.52	0.25	Control	0.8261	0.001	Yes	2.78	0.02	n/a	GoodResponse	0	n/a	n/a	5	22	Cue	Neutral	True
216.771	4.0	Control	0.8261	0.0	Yes	2.78	0.001	n/a	GoodResponse	0	n/a	n/a	5	22	Fixation	Neutral	True
220.767	0.18	Control	0.8261	0.003	Yes	2.78	-0.003	2.0	GoodResponse	0	0.14	219.907	5	22	Target	Neutral	True
220.907	0.3	Control	0.8261	0.003	Yes	2.78	-0.003	2.0	GoodResponse	0	0.14	n/a	5	22	ButtonPress	Neutral	True
220.95	0.52	Control	0.8261	n/a	Yes	2.78	n/a	n/a	GoodResponse	0	n/a	n/a	5	22	Blank	Neutral	True
221.469	1.45	Control	0.8261	n/a	Yes	2.78	n/a	5.0	GoodResponse	0	0.015	220.484	5	22	Feedback	Neutral	True
222.923	2.78	Control	0.8261	n/a	Yes	2.78	n/a	n/a	GoodResponse	0	0.0	n/a	5	22	ISIslide	Neutral	True
225.715	0.25	Control	0.7917000000000001	0.0	No	2.785	0.015	n/a	NoResponse	0	n/a	n/a	5	23	Cue	Neutral	True
225.965	3.9	Control	0.7917000000000001	0.0	No	2.785	0.0	n/a	NoResponse	0	n/a	n/a	5	23	Fixation	Neutral	True
229.877	0.17	Control	0.7917000000000001	0.0	No	2.785	0.012	2.0	NoResponse	0	0.26	229.137	5	23	Target	Neutral	True
230.044	0.53	Control	0.7917000000000001	n/a	No	2.785	n/a	n/a	NoResponse	0	n/a	n/a	5	23	Blank	Neutral	True
230.137	0.3	Control	0.7917000000000001	0.0	No	2.785	0.012	2.0	NoResponse	0	0.26	n/a	5	23	ButtonPress	Neutral	True
230.562	1.45	Control	0.7917000000000001	n/a	No	2.785	n/a	5.0	NoResponse	0	0.044	229.606	5	23	Feedback	Neutral	True
232.017	2.785	Control	0.7917000000000001	n/a	No	2.785	n/a	n/a	NoResponse	0	0.0	n/a	5	23	ISIslide	Neutral	True
234.825	0.25	Win2	0.76	0.0	No	3.125	0.025	n/a	NoResponse	0	n/a	n/a	5	24	Cue	MissedWin	True
235.076	3.95	Win2	0.76	0.0	No	3.125	0.001	n/a	NoResponse	0	n/a	n/a	5	24	Fixation	MissedWin	True
239.021	0.16	Win2	0.76	0.004	No	3.125	-0.004	2.0	NoResponse	0	0.184	238.205	5	24	Target	MissedWin	True
239.188	0.54	Win2	0.76	n/a	No	3.125	n/a	n/a	NoResponse	0	n/a	n/a	5	24	Blank	MissedWin	True
239.205	0.3	Win2	0.76	0.004	No	3.125	-0.004	2.0	NoResponse	0	0.184	n/a	5	24	ButtonPress	MissedWin	True
239.723	1.45	Win2	0.76	n/a	No	3.125	n/a	5.0	NoResponse	0	0.007	238.73	5	24	Feedback	MissedWin	True
241.177	3.125	Win2	0.76	n/a	No	3.125	n/a	n/a	NoResponse	0	0.0	n/a	5	24	ISIslide	MissedWin	True
244.32	0.25	Win2	0.7692	0.0	Yes	3.08	0.02	n/a	GoodResponse	1	n/a	n/a	6	25	Cue	Win	True
244.571	4.0	Win2	0.7692	0.0	Yes	3.08	0.001	n/a	GoodResponse	1	n/a	n/a	6	25	Fixation	Win	True
248.566	0.15	Win2	0.7692	0.004	Yes	3.08	-0.004	2.0	GoodResponse	1	0.121	247.687	6	25	Target	Win	True
248.687	0.3	Win2	0.7692	0.004	Yes	3.08	-0.004	2.0	GoodResponse	1	0.121	n/a	6	25	ButtonPress	Win	True
248.717	0.55	Win2	0.7692	n/a	Yes	3.08	n/a	n/a	GoodResponse	1	n/a	n/a	6	25	Blank	Win	True
249.268	1.45	Win2	0.7692	n/a	Yes	3.08	n/a	5.0	GoodResponse	1	0.02	248.288	6	25	Feedback	Win	True
250.723	3.08	Win2	0.7692	n/a	Yes	3.08	n/a	n/a	GoodResponse	1	0.0	n/a	6	25	ISIslide	Win	True
253.815	0.25	Win2	0.7406999999999999	0.0	No	2.935	0.015	n/a	NoResponse	0	n/a	n/a	6	26	Cue	MissedWin	True
254.066	3.95	Win2	0.7406999999999999	0.0	No	2.935	0.001	n/a	NoResponse	0	n/a	n/a	6	26	Fixation	MissedWin	True
258.011	0.15	Win2	0.7406999999999999	0.004	No	2.935	-0.004	2.0	NoResponse	0	0.199	257.21	6	26	Target	MissedWin	True
258.162	0.55	Win2	0.7406999999999999	n/a	No	2.935	n/a	n/a	NoResponse	0	n/a	n/a	6	26	Blank	MissedWin	True
258.21	0.3	Win2	0.7406999999999999	0.004	No	2.935	-0.004	2.0	NoResponse	0	0.199	n/a	6	26	ButtonPress	MissedWin	True
258.713	1.45	Win2	0.7406999999999999	n/a	No	2.935	n/a	5.0	NoResponse	0	0.038	257.751	6	26	Feedback	MissedWin	True
260.168	2.935	Win2	0.7406999999999999	n/a	No	2.935	n/a	n/a	NoResponse	0	0.0	n/a	6	26	ISIslide	MissedWin	True
263.126	0.25	Lose2	0.7143	0.0	No	2.824	0.026	n/a	NoResponse	-1	n/a	n/a	5	27	Cue	Loss	True
263.377	4.05	Lose2	0.7143	0.0	No	2.824	0.001	n/a	NoResponse	-1	n/a	n/a	5	27	Fixation	Loss	True
267.423	0.15	Lose2	0.7143	0.003	No	2.824	-0.003	2.0	NoResponse	-1	0.195	266.618	5	27	Target	Loss	True
267.573	0.55	Lose2	0.7143	n/a	No	2.824	n/a	n/a	NoResponse	-1	n/a	n/a	5	27	Blank	Loss	True
267.618	0.3	Lose2	0.7143	0.003	No	2.824	-0.003	2.0	NoResponse	-1	0.195	n/a	5	27	ButtonPress	Loss	True
268.125	1.45	Lose2	0.7143	n/a	No	2.824	n/a	5.0	NoResponse	-1	0.041	267.166	5	27	Feedback	Loss	True
269.579	2.824	Lose2	0.7143	n/a	No	2.824	n/a	n/a	NoResponse	-1	0.0	n/a	5	27	ISIslide	Loss	True
272.421	0.25	Control	0.6897	0.0	No	2.829	0.021	n/a	NoResponse	0	n/a	n/a	5	28	Cue	Neutral	False
272.672	4.05	Control	0.6897	0.0	No	2.829	0.001	n/a	NoResponse	0	n/a	n/a	5	28	Fixation	Neutral	False
276.717	0.15	Control	0.6897	0.004	No	2.829	-0.004	n/a	NoResponse	0	n/a	n/a	5	28	Target	Neutral	False
276.867	0.55	Control	0.6897	n/a	No	2.829	n/a	n/a	NoResponse	0	n/a	n/a	5	28	Blank	Neutral	False
277.419	1.45	Control	0.6897	n/a	No	2.829	n/a	5.0	NoResponse	0	0.014	276.433	5	28	Feedback	Neutral	False
278.873	2.829	Control	0.6897	n/a	No	2.829	n/a	n/a	NoResponse	0	0.0	n/a	5	28	ISIslide	Neutral	False
281.715	0.25	Lose2	0.6667000000000001	0.0	No	2.835	0.015	n/a	NoResponse	-1	n/a	n/a	4	29	Cue	Loss	True
281.966	3.95	Lose2	0.6667000000000001	0.0	No	2.835	0.001	n/a	NoResponse	-1	n/a	n/a	4	29	Fixation	Loss	True
285.911	0.15	Lose2	0.6667000000000001	0.004	No	2.835	-0.004	2.0	NoResponse	-1	0.19	285.101	4	29	Target	Loss	True
286.062	0.55	Lose2	0.6667000000000001	n/a	No	2.835	n/a	n/a	NoResponse	-1	n/a	n/a	4	29	Blank	Loss	True
286.101	0.3	Lose2	0.6667000000000001	0.004	No	2.835	-0.004	2.0	NoResponse	-1	0.19	n/a	4	29	ButtonPress	Loss	True
286.613	1.45	Lose2	0.6667000000000001	n/a	No	2.835	n/a	5.0	NoResponse	-1	0.04	285.653	4	29	Feedback	Loss	True
288.067	2.835	Lose2	0.6667000000000001	n/a	No	2.835	n/a	n/a	NoResponse	-1	0.0	n/a	4	29	ISIslide	Loss	True
290.926	0.25	Win2	0.6452	0.0	No	2.774	0.026	n/a	NoResponse	0	n/a	n/a	4	30	Cue	MissedWin	True
291.177	3.9	Win2	0.6452	0.0	No	2.774	0.001	n/a	NoResponse	0	n/a	n/a	4	30	Fixation	MissedWin	True
295.072	0.15	Win2	0.6452	0.004	No	2.774	-0.004	2.0	NoResponse	0	0.162	294.234	4	30	Target	MissedWin	True
295.222	0.55	Win2	0.6452	n/a	No	2.774	n/a	n/a	NoResponse	0	n/a	n/a	4	30	Blank	MissedWin	True
295.234	0.3	Win2	0.6452	0.004	No	2.774	-0.004	2.0	NoResponse	0	0.162	n/a	4	30	ButtonPress	MissedWin	True
295.774	1.45	Win2	0.6452	n/a	No	2.774	n/a	5.0	NoResponse	0	0.001	294.775	4	30	Feedback	MissedWin	True
297.228	2.774	Win2	0.6452	n/a	No	2.774	n/a	n/a	NoResponse	0	0.0	n/a	4	30	ISIslide	MissedWin	True
300.02	0.25	Lose2	0.625	0.0	No	2.83	0.02	n/a	NoResponse	-1	n/a	n/a	3	31	Cue	Loss	True
300.271	4.05	Lose2	0.625	0.0	No	2.83	0.001	2.0	NoResponse	-1	3.653	302.924	3	31	Fixation	Loss	True
303.924	0.3	Lose2	0.625	0.0	No	2.83	0.001	2.0	NoResponse	-1	3.653	n/a	3	31	ButtonPress	Loss	True
304.316	0.16	Lose2	0.625	0.004	No	2.83	-0.004	n/a	NoResponse	-1	n/a	n/a	3	31	Target	Loss	True
304.483	0.54	Lose2	0.625	n/a	No	2.83	n/a	n/a	NoResponse	-1	n/a	n/a	3	31	Blank	Loss	True
305.018	1.45	Lose2	0.625	n/a	No	2.83	n/a	5.0	NoResponse	-1	0.025	304.043	3	31	Feedback	Loss	True
306.472	2.83	Lose2	0.625	n/a	No	2.83	n/a	n/a	NoResponse	-1	0.0	n/a	3	31	ISIslide	Loss	True
309.331	0.25	Lose2	0.6061	0.0	No	2.619	0.031	n/a	LatePress	-1	n/a	n/a	2	32	Cue	Loss	True
309.582	4.15	Lose2	0.6061	0.0	No	2.619	0.001	n/a	LatePress	-1	n/a	n/a	2	32	Fixation	Loss	True
313.727	0.17	Lose2	0.6061	0.004	No	2.619	-0.004	2.0	LatePress	-1	0.178	312.905	2	32	Target	Loss	True
313.905	0.3	Lose2	0.6061	0.004	No	2.619	-0.004	2.0	LatePress	-1	0.178	n/a	2	32	ButtonPress	Loss	True
313.911	0.53	Lose2	0.6061	n/a	No	2.619	n/a	n/a	LatePress	-1	n/a	n/a	2	32	Blank	Loss	True
314.43	1.45	Lose2	0.6061	n/a	No	2.619	n/a	5.0	LatePress	-1	0.027	313.457	2	32	Feedback	Loss	True
315.884	2.619	Lose2	0.6061	n/a	No	2.619	n/a	n/a	LatePress	-1	0.0	n/a	2	32	ISIslide	Loss	True
318.525	0.25	Win2	0.5882000000000001	0.0	No	2.675	0.025	n/a	NoResponse	0	n/a	n/a	2	33	Cue	MissedWin	True
318.776	4.0	Win2	0.5882000000000001	0.0	No	2.675	0.001	n/a	NoResponse	0	n/a	n/a	2	33	Fixation	MissedWin	True
322.771	0.18	Win2	0.5882000000000001	0.004	No	2.675	-0.004	2.0	NoResponse	0	0.219	321.99	2	33	Target	MissedWin	True
322.955	0.52	Win2	0.5882000000000001	n/a	No	2.675	n/a	n/a	NoResponse	0	n/a	n/a	2	33	Blank	MissedWin	True
322.99	0.3	Win2	0.5882000000000001	0.004	No	2.675	-0.004	2.0	NoResponse	0	0.219	n/a	2	33	ButtonPress	MissedWin	True
323.473	1.45	Win2	0.5882000000000001	n/a	No	2.675	n/a	5.0	NoResponse	0	0.009	322.482	2	33	Feedback	MissedWin	True
324.928	2.675	Win2	0.5882000000000001	n/a	No	2.675	n/a	n/a	NoResponse	0	0.0	n/a	2	33	ISIslide	MissedWin	True
327.619	0.25	Lose2	0.6	0.0	Yes	2.631	0.019	n/a	GoodResponse	0	n/a	n/a	2	34	Cue	AvoidedLoss	True
327.87	4.05	Lose2	0.6	0.0	Yes	2.631	0.001	n/a	GoodResponse	0	n/a	n/a	2	34	Fixation	AvoidedLoss	True
331.915	0.19	Lose2	0.6	0.004	Yes	2.631	-0.004	2.0	GoodResponse	0	0.188	331.103	2	34	Target	AvoidedLoss	True
332.103	0.3	Lose2	0.6	0.004	Yes	2.631	-0.004	2.0	GoodResponse	0	0.188	n/a	2	34	ButtonPress	AvoidedLoss	True
332.116	0.51	Lose2	0.6	n/a	Yes	2.631	n/a	n/a	GoodResponse	0	n/a	n/a	2	34	Blank	AvoidedLoss	True
332.617	1.45	Lose2	0.6	n/a	Yes	2.631	n/a	5.0	GoodResponse	0	0.036	331.653	2	34	Feedback	AvoidedLoss	True
334.072	2.631	Lose2	0.6	n/a	Yes	2.631	n/a	n/a	GoodResponse	0	0.0	n/a	2	34	ISIslide	AvoidedLoss	True
336.73	0.25	Lose2	0.5832999999999999	0.0	No	2.67	0.03	n/a	LatePress	-1	n/a	n/a	1	35	Cue	Loss	True
336.98	4.0	Lose2	0.5832999999999999	0.0	No	2.67	0.0	n/a	LatePress	-1	n/a	n/a	1	35	Fixation	Loss	True
340.976	0.2	Lose2	0.5832999999999999	0.004	No	2.67	-0.004	2.0	LatePress	-1	0.201	340.177	1	35	Target	Loss	True
341.176	0.5	Lose2	0.5832999999999999	n/a	No	2.67	n/a	n/a	LatePress	-1	n/a	n/a	1	35	Blank	Loss	True
341.177	0.3	Lose2	0.5832999999999999	0.004	No	2.67	-0.004	2.0	LatePress	-1	0.201	n/a	1	35	ButtonPress	Loss	True
341.678	1.45	Lose2	0.5832999999999999	n/a	No	2.67	n/a	5.0	LatePress	-1	0.048	340.726	1	35	Feedback	Loss	True
343.132	2.67	Lose2	0.5832999999999999	n/a	No	2.67	n/a	n/a	LatePress	-1	0.0	n/a	1	35	ISIslide	Loss	True
345.823	0.25	Control	0.5676	0.0	No	2.677	0.023	n/a	NoResponse	0	n/a	n/a	1	36	Cue	Neutral	True
346.074	4.0	Control	0.5676	0.0	No	2.677	0.001	n/a	NoResponse	0	n/a	n/a	1	36	Fixation	Neutral	True
350.069	0.21	Control	0.5676	0.004	No	2.677	-0.004	2.0	NoResponse	0	0.233	349.302	1	36	Target	Neutral	True
350.287	0.49	Control	0.5676	n/a	No	2.677	n/a	n/a	NoResponse	0	n/a	n/a	1	36	Blank	Neutral	True
350.302	0.3	Control	0.5676	0.004	No	2.677	-0.004	2.0	NoResponse	0	0.233	n/a	1	36	ButtonPress	Neutral	True
350.771	1.45	Control	0.5676	n/a	No	2.677	n/a	5.0	NoResponse	0	0.028	349.799	1	36	Feedback	Neutral	True
352.226	2.677	Control	0.5676	n/a	No	2.677	n/a	n/a	NoResponse	0	0.0	n/a	1	36	ISIslide	Neutral	True
354.917	0.25	Win2	0.5526	0.0	No	2.883	0.017	n/a	NoResponse	0	n/a	n/a	1	37	Cue	MissedWin	True
355.168	4.0	Win2	0.5526	0.0	No	2.883	0.001	2.0	NoResponse	0	3.525	357.693	1	37	Fixation	MissedWin	True
358.693	0.3	Win2	0.5526	0.0	No	2.883	0.001	2.0	NoResponse	0	3.525	n/a	1	37	ButtonPress	MissedWin	True
359.163	0.22	Win2	0.5526	0.004	No	2.883	-0.004	n/a	NoResponse	0	n/a	n/a	1	37	Target	MissedWin	True
359.397	0.48	Win2	0.5526	n/a	No	2.883	n/a	n/a	NoResponse	0	n/a	n/a	1	37	Blank	MissedWin	True
359.865	1.45	Win2	0.5526	n/a	No	2.883	n/a	5.0	NoResponse	0	0.007	358.872	1	37	Feedback	MissedWin	True
361.32	2.883	Win2	0.5526	n/a	No	2.883	n/a	n/a	NoResponse	0	0.0	n/a	1	37	ISIslide	MissedWin	True
364.228	0.25	Lose2	0.5640999999999999	0.0	Yes	2.822	0.028	n/a	GoodResponse	0	n/a	n/a	1	38	Cue	AvoidedLoss	True
364.479	3.95	Lose2	0.5640999999999999	0.0	Yes	2.822	0.001	n/a	GoodResponse	0	n/a	n/a	1	38	Fixation	AvoidedLoss	True
368.424	0.23	Lose2	0.5640999999999999	0.004	Yes	2.822	-0.004	2.0	GoodResponse	0	0.169	367.593	1	38	Target	AvoidedLoss	True
368.593	0.3	Lose2	0.5640999999999999	0.004	Yes	2.822	-0.004	2.0	GoodResponse	0	0.169	n/a	1	38	ButtonPress	AvoidedLoss	True
368.658	0.47	Lose2	0.5640999999999999	n/a	Yes	2.822	n/a	n/a	GoodResponse	0	n/a	n/a	1	38	Blank	AvoidedLoss	True
369.126	1.45	Lose2	0.5640999999999999	n/a	Yes	2.822	n/a	5.0	GoodResponse	0	0.014	368.14	1	38	Feedback	AvoidedLoss	True
370.581	2.822	Lose2	0.5640999999999999	n/a	Yes	2.822	n/a	n/a	GoodResponse	0	0.0	n/a	1	38	ISIslide	AvoidedLoss	True
373.422	0.25	Win2	0.55	0.0	No	2.978	0.022	n/a	PrematurePress	0	n/a	n/a	1	39	Cue	MissedWin	True
373.673	4.1	Win2	0.55	0.0	No	2.978	0.001	n/a	PrematurePress	0	n/a	n/a	1	39	Fixation	MissedWin	True
377.769	0.24	Win2	0.55	0.003	No	2.978	-0.003	2.0	PrematurePress	0	0.079	376.848	1	39	Target	MissedWin	True
377.848	0.3	Win2	0.55	0.003	No	2.978	-0.003	2.0	PrematurePress	0	0.079	n/a	1	39	ButtonPress	MissedWin	True
378.019	0.46	Win2	0.55	n/a	No	2.978	n/a	n/a	PrematurePress	0	n/a	n/a	1	39	Blank	MissedWin	True
378.471	1.45	Win2	0.55	n/a	No	2.978	n/a	5.0	PrematurePress	0	0.035	377.506	1	39	Feedback	MissedWin	True
379.925	2.978	Win2	0.55	n/a	No	2.978	n/a	n/a	PrematurePress	0	0.0	n/a	1	39	ISIslide	MissedWin	True
382.917	0.25	Win2	0.561	0.001	Yes	2.733	0.017	n/a	GoodResponse	1	n/a	n/a	2	40	Cue	Win	True
383.168	3.95	Win2	0.561	0.0	Yes	2.733	0.001	n/a	GoodResponse	1	n/a	n/a	2	40	Fixation	Win	True
387.113	0.25	Win2	0.561	0.004	Yes	2.733	-0.004	2.0	GoodResponse	1	0.2	386.313	2	40	Target	Win	True
387.313	0.3	Win2	0.561	0.004	Yes	2.733	-0.004	2.0	GoodResponse	1	0.2	n/a	2	40	ButtonPress	Win	True
387.364	0.45	Win2	0.561	n/a	Yes	2.733	n/a	n/a	GoodResponse	1	n/a	n/a	2	40	Blank	Win	True
387.815	1.45	Win2	0.561	n/a	Yes	2.733	n/a	5.0	GoodResponse	1	0.008	386.823	2	40	Feedback	Win	True
389.27	2.733	Win2	0.561	n/a	Yes	2.733	n/a	n/a	GoodResponse	1	0.0	n/a	2	40	ISIslide	Win	True
392.028	0.25	Win2	0.5714	0.0	Yes	2.772	0.028	n/a	GoodResponse	1	n/a	n/a	3	41	Cue	Win	True
392.279	3.9	Win2	0.5714	0.0	Yes	2.772	0.001	n/a	GoodResponse	1	n/a	n/a	3	41	Fixation	Win	True
396.174	0.26	Win2	0.5714	0.004	Yes	2.772	-0.004	2.0	GoodResponse	1	0.222	395.396	3	41	Target	Win	True
396.396	0.3	Win2	0.5714	0.004	Yes	2.772	-0.004	2.0	GoodResponse	1	0.222	n/a	3	41	ButtonPress	Win	True
396.441	0.44	Win2	0.5714	n/a	Yes	2.772	n/a	n/a	GoodResponse	1	n/a	n/a	3	41	Blank	Win	True
396.876	1.45	Win2	0.5714	n/a	Yes	2.772	n/a	5.0	GoodResponse	1	0.019	395.895	3	41	Feedback	Win	True
398.33	2.772	Win2	0.5714	n/a	Yes	2.772	n/a	n/a	GoodResponse	1	0.0	n/a	3	41	ISIslide	Win	True
401.122	0.25	Control	0.5581	0.0	No	2.928	0.022	n/a	NoResponse	0	n/a	n/a	3	42	Cue	Neutral	True
401.373	3.85	Control	0.5581	0.0	No	2.928	0.001	n/a	NoResponse	0	n/a	n/a	3	42	Fixation	Neutral	True
405.234	0.27	Control	0.5581	0.0	No	2.928	0.012	2.0	NoResponse	0	0.287	404.521	3	42	Target	Neutral	True
405.502	0.43	Control	0.5581	n/a	No	2.928	n/a	n/a	NoResponse	0	n/a	n/a	3	42	Blank	Neutral	True
405.521	0.3	Control	0.5581	0.0	No	2.928	0.012	2.0	NoResponse	0	0.287	n/a	3	42	ButtonPress	Neutral	True
405.919	1.45	Control	0.5581	n/a	No	2.928	n/a	5.0	NoResponse	0	0.001	404.92	3	42	Feedback	Neutral	True
407.374	2.928	Control	0.5581	n/a	No	2.928	n/a	n/a	NoResponse	0	0.0	n/a	3	42	ISIslide	Neutral	True
410.316	0.25	Win2	0.5682	0.0	Yes	3.184	0.016	n/a	GoodResponse	1	n/a	n/a	4	43	Cue	Win	True
410.567	4.0	Win2	0.5682	0.0	Yes	3.184	0.001	n/a	GoodResponse	1	n/a	n/a	4	43	Fixation	Win	True
414.562	0.28	Win2	0.5682	0.004	Yes	3.184	-0.004	2.0	GoodResponse	1	0.185	413.747	4	43	Target	Win	True
414.747	0.3	Win2	0.5682	0.004	Yes	3.184	-0.004	2.0	GoodResponse	1	0.185	n/a	4	43	ButtonPress	Win	True
414.846	0.42	Win2	0.5682	n/a	Yes	3.184	n/a	n/a	GoodResponse	1	n/a	n/a	4	43	Blank	Win	True
415.264	1.45	Win2	0.5682	n/a	Yes	3.184	n/a	5.0	GoodResponse	1	0.022	414.286	4	43	Feedback	Win	True
416.718	3.184	Win2	0.5682	n/a	Yes	3.184	n/a	n/a	GoodResponse	1	0.0	n/a	4	43	ISIslide	Win	True
419.928	0.25	Win2	0.5778	0.0	Yes	2.972	0.028	n/a	GoodResponse	1	n/a	n/a	5	44	Cue	Win	True
420.179	4.0	Win2	0.5778	0.0	Yes	2.972	0.001	n/a	GoodResponse	1	n/a	n/a	5	44	Fixation	Win	True
424.174	0.29	Win2	0.5778	0.004	Yes	2.972	-0.004	2.0	GoodResponse	1	0.191	423.365	5	44	Target	Win	True
424.365	0.3	Win2	0.5778	0.004	Yes	2.972	-0.004	2.0	GoodResponse	1	0.191	n/a	5	44	ButtonPress	Win	True
424.475	0.41	Win2	0.5778	n/a	Yes	2.972	n/a	n/a	GoodResponse	1	n/a	n/a	5	44	Blank	Win	True
424.876	1.45	Win2	0.5778	n/a	Yes	2.972	n/a	5.0	GoodResponse	1	0.019	423.895	5	44	Feedback	Win	True
426.33	2.972	Win2	0.5778	n/a	Yes	2.972	n/a	n/a	GoodResponse	1	0.0	n/a	5	44	ISIslide	Win	True
429.323	0.25	Control	0.5652	0.0	No	2.877	0.023	n/a	NoResponse	0	n/a	n/a	5	45	Cue	Neutral	False
429.573	4.1	Control	0.5652	0.001	No	2.877	0.0	n/a	NoResponse	0	n/a	n/a	5	45	Fixation	Neutral	False
433.669	0.3	Control	0.5652	0.004	No	2.877	-0.004	n/a	NoResponse	0	n/a	n/a	5	45	Target	Neutral	False
433.97	0.4	Control	0.5652	n/a	No	2.877	n/a	n/a	NoResponse	0	n/a	n/a	5	45	Blank	Neutral	False
434.371	1.45	Control	0.5652	n/a	No	2.877	n/a	5.0	NoResponse	0	0.036	433.407	5	45	Feedback	Neutral	False
435.825	2.877	Control	0.5652	n/a	No	2.877	n/a	n/a	NoResponse	0	0.0	n/a	5	45	ISIslide	Neutral	False
438.717	0.25	Lose2	0.5745	0.0	Yes	3.383	0.017	n/a	GoodResponse	0	n/a	n/a	5	46	Cue	AvoidedLoss	True
438.968	4.0	Lose2	0.5745	0.0	Yes	3.383	0.001	n/a	GoodResponse	0	n/a	n/a	5	46	Fixation	AvoidedLoss	True
442.963	0.31	Lose2	0.5745	0.004	Yes	3.383	-0.004	2.0	GoodResponse	0	0.221	442.184	5	46	Target	AvoidedLoss	True
443.184	0.3	Lose2	0.5745	0.004	Yes	3.383	-0.004	2.0	GoodResponse	0	0.221	n/a	5	46	ButtonPress	AvoidedLoss	True
443.281	0.39	Lose2	0.5745	n/a	Yes	3.383	n/a	n/a	GoodResponse	0	n/a	n/a	5	46	Blank	AvoidedLoss	True
443.666	1.45	Lose2	0.5745	n/a	Yes	3.383	n/a	5.0	GoodResponse	0	0.009	442.675	5	46	Feedback	AvoidedLoss	True
445.12	3.383	Lose2	0.5745	n/a	Yes	3.383	n/a	n/a	GoodResponse	0	0.0	n/a	5	46	ISIslide	AvoidedLoss	True
448.53	0.25	Lose2	0.5832999999999999	0.0	Yes	2.67	0.03	n/a	GoodResponse	0	n/a	n/a	5	47	Cue	AvoidedLoss	True
448.781	4.0	Lose2	0.5832999999999999	0.0	Yes	2.67	0.001	n/a	GoodResponse	0	n/a	n/a	5	47	Fixation	AvoidedLoss	True
452.776	0.32	Lose2	0.5832999999999999	0.004	Yes	2.67	-0.004	2.0	GoodResponse	0	0.208	451.984	5	47	Target	AvoidedLoss	True
452.984	0.3	Lose2	0.5832999999999999	0.004	Yes	2.67	-0.004	2.0	GoodResponse	0	0.208	n/a	5	47	ButtonPress	AvoidedLoss	True
453.11	0.38	Lose2	0.5832999999999999	n/a	Yes	2.67	n/a	n/a	GoodResponse	0	n/a	n/a	5	47	Blank	AvoidedLoss	True
453.478	1.45	Lose2	0.5832999999999999	n/a	Yes	2.67	n/a	5.0	GoodResponse	0	0.002	452.48	5	47	Feedback	AvoidedLoss	True
454.933	2.67	Lose2	0.5832999999999999	n/a	Yes	2.67	n/a	n/a	GoodResponse	0	0.0	n/a	5	47	ISIslide	AvoidedLoss	True
457.624	0.25	Lose2	0.5918	0.0	Yes	3.026	0.024	n/a	GoodResponse	0	n/a	n/a	5	48	Cue	AvoidedLoss	True
457.875	3.95	Lose2	0.5918	0.0	Yes	3.026	0.001	n/a	GoodResponse	0	n/a	n/a	5	48	Fixation	AvoidedLoss	True
461.82	0.33	Lose2	0.5918	0.004	Yes	3.026	-0.004	2.0	GoodResponse	0	0.198	461.018	5	48	Target	AvoidedLoss	True
462.018	0.3	Lose2	0.5918	0.004	Yes	3.026	-0.004	2.0	GoodResponse	0	0.198	n/a	5	48	ButtonPress	AvoidedLoss	True
462.154	0.37	Lose2	0.5918	n/a	Yes	3.026	n/a	n/a	GoodResponse	0	n/a	n/a	5	48	Blank	AvoidedLoss	True
462.522	1.45	Lose2	0.5918	n/a	Yes	3.026	n/a	5.0	GoodResponse	0	0.031	461.553	5	48	Feedback	AvoidedLoss	True
463.976	3.026	Lose2	0.5918	n/a	Yes	3.026	n/a	n/a	GoodResponse	0	0.0	n/a	5	48	ISIslide	AvoidedLoss	True
467.019	0.25	Control	0.58	0.0	No	2.881	0.019	n/a	NoResponse	0	n/a	n/a	5	49	Cue	Neutral	True
467.269	4.0	Control	0.58	0.0	No	2.881	0.0	n/a	NoResponse	0	n/a	n/a	5	49	Fixation	Neutral	True
471.265	0.34	Control	0.58	0.004	No	2.881	-0.004	2.0	NoResponse	0	0.372	470.637	5	49	Target	Neutral	True
471.616	0.36	Control	0.58	n/a	No	2.881	n/a	n/a	NoResponse	0	n/a	n/a	5	49	Blank	Neutral	True
471.637	0.3	Control	0.58	0.004	No	2.881	-0.004	2.0	NoResponse	0	0.372	n/a	5	49	ButtonPress	Neutral	True
471.967	1.45	Control	0.58	n/a	No	2.881	n/a	5.0	NoResponse	0	0.0	470.967	5	49	Feedback	Neutral	True
473.421	2.881	Control	0.58	n/a	No	2.881	n/a	n/a	NoResponse	0	0.0	n/a	5	49	ISIslide	Neutral	True
476.33	0.25	Control	0.5686	0.0	No	2.77	0.03	n/a	NoResponse	0	n/a	n/a	5	50	Cue	Neutral	False
476.58	4.0	Control	0.5686	0.001	No	2.77	0.0	n/a	NoResponse	0	n/a	n/a	5	50	Fixation	Neutral	False
480.576	0.35	Control	0.5686	0.004	No	2.77	-0.004	n/a	NoResponse	0	n/a	n/a	5	50	Target	Neutral	False
480.927	0.35	Control	0.5686	n/a	No	2.77	n/a	n/a	NoResponse	0	n/a	n/a	5	50	Blank	Neutral	False
481.278	1.45	Control	0.5686	n/a	No	2.77	n/a	5.0	NoResponse	0	0.007	480.285	5	50	Feedback	Neutral	False
482.732	2.77	Control	0.5686	n/a	No	2.77	n/a	n/a	NoResponse	0	0.0	n/a	5	50	ISIslide	Neutral	False
485.524	0.25	Control	0.5577000000000001	0.0	No	2.726	0.024	n/a	NoResponse	0	n/a	n/a	5	51	Cue	Neutral	False
485.775	3.95	Control	0.5577000000000001	0.0	No	2.726	0.001	n/a	NoResponse	0	n/a	n/a	5	51	Fixation	Neutral	False
489.72	0.36	Control	0.5577000000000001	0.004	No	2.726	-0.004	n/a	NoResponse	0	n/a	n/a	5	51	Target	Neutral	False
490.087	0.34	Control	0.5577000000000001	n/a	No	2.726	n/a	n/a	NoResponse	0	n/a	n/a	5	51	Blank	Neutral	False
490.422	1.45	Control	0.5577000000000001	n/a	No	2.726	n/a	5.0	NoResponse	0	0.033	489.455	5	51	Feedback	Neutral	False
491.876	2.726	Control	0.5577000000000001	n/a	No	2.726	n/a	n/a	NoResponse	0	0.0	n/a	5	51	ISIslide	Neutral	False
494.618	0.25	Control	0.5472	0.0	No	2.632	0.018	n/a	NoResponse	0	n/a	n/a	5	52	Cue	Neutral	False
494.868	4.05	Control	0.5472	0.001	No	2.632	0.0	n/a	NoResponse	0	n/a	n/a	5	52	Fixation	Neutral	False
498.914	0.37	Control	0.5472	0.004	No	2.632	-0.004	n/a	NoResponse	0	n/a	n/a	5	52	Target	Neutral	False
499.298	0.33	Control	0.5472	n/a	No	2.632	n/a	n/a	NoResponse	0	n/a	n/a	5	52	Blank	Neutral	False
499.616	1.45	Control	0.5472	n/a	No	2.632	n/a	5.0	NoResponse	0	0.01	498.626	5	52	Feedback	Neutral	False
501.07	2.632	Control	0.5472	n/a	No	2.632	n/a	n/a	NoResponse	0	0.0	n/a	5	52	ISIslide	Neutral	False
503.728	0.25	Win2	0.537	0.0	No	2.922	0.028	n/a	NoResponse	0	n/a	n/a	5	53	Cue	MissedWin	True
503.979	4.05	Win2	0.537	0.0	No	2.922	0.001	2.0	NoResponse	0	4.001	506.98	5	53	Fixation	MissedWin	True
507.98	0.3	Win2	0.537	0.0	No	2.922	0.001	2.0	NoResponse	0	4.001	n/a	5	53	ButtonPress	MissedWin	True
508.024	0.38	Win2	0.537	0.004	No	2.922	-0.004	n/a	NoResponse	0	n/a	n/a	5	53	Target	MissedWin	True
508.409	0.32	Win2	0.537	n/a	No	2.922	n/a	n/a	NoResponse	0	n/a	n/a	5	53	Blank	MissedWin	True
508.726	1.45	Win2	0.537	n/a	No	2.922	n/a	5.0	NoResponse	0	0.021	507.747	5	53	Feedback	MissedWin	True
510.181	2.922	Win2	0.537	n/a	No	2.922	n/a	n/a	NoResponse	0	0.0	n/a	5	53	ISIslide	MissedWin	True
513.123	0.25	Win2	0.5455	0.0	Yes	2.727	0.023	n/a	GoodResponse	1	n/a	n/a	6	54	Cue	Win	True
513.374	3.95	Win2	0.5455	0.0	Yes	2.727	0.001	n/a	GoodResponse	1	n/a	n/a	6	54	Fixation	Win	True
517.319	0.39	Win2	0.5455	0.004	Yes	2.727	-0.004	2.0	GoodResponse	1	0.187	516.506	6	54	Target	Win	True
517.506	0.3	Win2	0.5455	0.004	Yes	2.727	-0.004	2.0	GoodResponse	1	0.187	n/a	6	54	ButtonPress	Win	True
517.72	0.31	Win2	0.5455	n/a	Yes	2.727	n/a	n/a	GoodResponse	1	n/a	n/a	6	54	Blank	Win	True
518.021	1.45	Win2	0.5455	n/a	Yes	2.727	n/a	5.0	GoodResponse	1	0.043	517.064	6	54	Feedback	Win	True
519.475	2.727	Win2	0.5455	n/a	Yes	2.727	n/a	n/a	GoodResponse	1	0.0	n/a	6	54	ISIslide	Win	True
522.217	0.25	Control	0.5357	0.0	No	3.033	0.017	n/a	NoResponse	0	n/a	n/a	6	55	Cue	Neutral	True
522.468	3.95	Control	0.5357	0.0	No	3.033	0.001	n/a	NoResponse	0	n/a	n/a	6	55	Fixation	Neutral	True
526.413	0.4	Control	0.5357	0.004	No	3.033	-0.004	2.0	NoResponse	0	0.425	525.838	6	55	Target	Neutral	True
526.814	0.3	Control	0.5357	n/a	No	3.033	n/a	n/a	NoResponse	0	n/a	n/a	6	55	Blank	Neutral	True
526.838	0.3	Control	0.5357	0.004	No	3.033	-0.004	2.0	NoResponse	0	0.425	n/a	6	55	ButtonPress	Neutral	True
527.115	1.45	Control	0.5357	n/a	No	3.033	n/a	5.0	NoResponse	0	0.022	526.137	6	55	Feedback	Neutral	True
528.569	3.033	Control	0.5357	n/a	No	3.033	n/a	n/a	NoResponse	0	0.0	n/a	6	55	ISIslide	Neutral	True
531.628	0.25	Control	0.5439	0.0	Yes	2.822	0.028	n/a	GoodResponse	0	n/a	n/a	6	56	Cue	Neutral	True
531.879	3.95	Control	0.5439	0.0	Yes	2.822	0.001	n/a	GoodResponse	0	n/a	n/a	6	56	Fixation	Neutral	True
535.824	0.41	Control	0.5439	0.004	Yes	2.822	-0.004	2.0	GoodResponse	0	0.197	535.021	6	56	Target	Neutral	True
536.021	0.3	Control	0.5439	0.004	Yes	2.822	-0.004	2.0	GoodResponse	0	0.197	n/a	6	56	ButtonPress	Neutral	True
536.242	0.29	Control	0.5439	n/a	Yes	2.822	n/a	n/a	GoodResponse	0	n/a	n/a	6	56	Blank	Neutral	True
536.526	1.45	Control	0.5439	n/a	Yes	2.822	n/a	5.0	GoodResponse	0	0.026	535.552	6	56	Feedback	Neutral	True
537.981	2.822	Control	0.5439	n/a	Yes	2.822	n/a	n/a	GoodResponse	0	0.0	n/a	6	56	ISIslide	Neutral	True
540.822	0.25	Control	0.5345	0.0	No	3.478	0.022	n/a	NoResponse	0	n/a	n/a	6	57	Cue	Neutral	False
541.073	4.0	Control	0.5345	0.0	No	3.478	0.001	n/a	NoResponse	0	n/a	n/a	6	57	Fixation	Neutral	False
545.068	0.42	Control	0.5345	0.004	No	3.478	-0.004	n/a	NoResponse	0	n/a	n/a	6	57	Target	Neutral	False
545.503	0.28	Control	0.5345	n/a	No	3.478	n/a	n/a	NoResponse	0	n/a	n/a	6	57	Blank	Neutral	False
545.77	1.45	Control	0.5345	n/a	No	3.478	n/a	5.0	NoResponse	0	0.001	544.771	6	57	Feedback	Neutral	False
547.225	3.478	Control	0.5345	n/a	No	3.478	n/a	n/a	NoResponse	0	0.0	n/a	6	57	ISIslide	Neutral	False
550.719	0.25	Win2	0.5424	0.0	Yes	2.731	0.019	n/a	GoodResponse	1	n/a	n/a	7	58	Cue	Win	True
550.969	4.05	Win2	0.5424	0.0	Yes	2.731	0.0	n/a	GoodResponse	1	n/a	n/a	7	58	Fixation	Win	True
555.015	0.43	Win2	0.5424	0.004	Yes	2.731	-0.004	2.0	GoodResponse	1	0.195	554.21	7	58	Target	Win	True
555.21	0.3	Win2	0.5424	0.004	Yes	2.731	-0.004	2.0	GoodResponse	1	0.195	n/a	7	58	ButtonPress	Win	True
555.449	0.27	Win2	0.5424	n/a	Yes	2.731	n/a	n/a	GoodResponse	1	n/a	n/a	7	58	Blank	Win	True
555.717	1.45	Win2	0.5424	n/a	Yes	2.731	n/a	5.0	GoodResponse	1	0.007	554.724	7	58	Feedback	Win	True
557.171	2.731	Win2	0.5424	n/a	Yes	2.731	n/a	n/a	GoodResponse	1	0.0	n/a	7	58	ISIslide	Win	True
559.929	0.25	Lose2	0.55	0.0	Yes	2.671	0.029	n/a	GoodResponse	0	n/a	n/a	7	59	Cue	AvoidedLoss	True
560.18	4.0	Lose2	0.55	0.0	Yes	2.671	0.001	n/a	GoodResponse	0	n/a	n/a	7	59	Fixation	AvoidedLoss	True
564.175	0.44	Lose2	0.55	0.004	Yes	2.671	-0.004	2.0	GoodResponse	0	0.182	563.357	7	59	Target	AvoidedLoss	True
564.357	0.3	Lose2	0.55	0.004	Yes	2.671	-0.004	2.0	GoodResponse	0	0.182	n/a	7	59	ButtonPress	AvoidedLoss	True
564.627	0.26	Lose2	0.55	n/a	Yes	2.671	n/a	n/a	GoodResponse	0	n/a	n/a	7	59	Blank	AvoidedLoss	True
564.878	1.45	Lose2	0.55	n/a	Yes	2.671	n/a	5.0	GoodResponse	0	0.015	563.893	7	59	Feedback	AvoidedLoss	True
566.332	2.671	Lose2	0.55	n/a	Yes	2.671	n/a	n/a	GoodResponse	0	0.0	n/a	7	59	ISIslide	AvoidedLoss	True
569.023	0.25	Control	0.541	0.0	No	2.677	0.023	n/a	NoResponse	0	n/a	n/a	7	60	Cue	Neutral	False
569.274	4.0	Control	0.541	0.0	No	2.677	0.001	n/a	NoResponse	0	n/a	n/a	7	60	Fixation	Neutral	False
573.269	0.45	Control	0.541	0.004	No	2.677	-0.004	n/a	NoResponse	0	n/a	n/a	7	60	Target	Neutral	False
573.721	0.25	Control	0.541	n/a	No	2.677	n/a	n/a	NoResponse	0	n/a	n/a	7	60	Blank	Neutral	False
573.971	1.45	Control	0.541	n/a	No	2.677	n/a	5.0	NoResponse	0	0.044	573.015	7	60	Feedback	Neutral	False
575.426	2.677	Control	0.541	n/a	No	2.677	n/a	n/a	NoResponse	0	0.0	n/a	7	60	ISIslide	Neutral	False
578.117	0.25	Lose2	0.5484	0.0	Yes	2.983	0.017	n/a	GoodResponse	0	n/a	n/a	7	61	Cue	AvoidedLoss	True
578.368	4.0	Lose2	0.5484	0.0	Yes	2.983	0.001	n/a	GoodResponse	0	n/a	n/a	7	61	Fixation	AvoidedLoss	True
582.363	0.46	Lose2	0.5484	0.004	Yes	2.983	-0.004	2.0	GoodResponse	0	0.226	581.589	7	61	Target	AvoidedLoss	True
582.589	0.3	Lose2	0.5484	0.004	Yes	2.983	-0.004	2.0	GoodResponse	0	0.226	n/a	7	61	ButtonPress	AvoidedLoss	True
582.831	0.24	Lose2	0.5484	n/a	Yes	2.983	n/a	n/a	GoodResponse	0	n/a	n/a	7	61	Blank	AvoidedLoss	True
583.065	1.45	Lose2	0.5484	n/a	Yes	2.983	n/a	5.0	GoodResponse	0	0.022	582.087	7	61	Feedback	AvoidedLoss	True
584.52	2.983	Lose2	0.5484	n/a	Yes	2.983	n/a	n/a	GoodResponse	0	0.0	n/a	7	61	ISIslide	AvoidedLoss	True
587.529	0.25	Lose2	0.5556	0.0	Yes	2.871	0.029	n/a	GoodResponse	0	n/a	n/a	7	62	Cue	AvoidedLoss	True
587.779	3.9	Lose2	0.5556	0.0	Yes	2.871	0.0	n/a	GoodResponse	0	n/a	n/a	7	62	Fixation	AvoidedLoss	True
591.691	0.47	Lose2	0.5556	0.0	Yes	2.871	0.012	2.0	GoodResponse	0	0.211	590.902	7	62	Target	AvoidedLoss	True
591.902	0.3	Lose2	0.5556	0.0	Yes	2.871	0.012	2.0	GoodResponse	0	0.211	n/a	7	62	ButtonPress	AvoidedLoss	True
592.159	0.23	Lose2	0.5556	n/a	Yes	2.871	n/a	n/a	GoodResponse	0	n/a	n/a	7	62	Blank	AvoidedLoss	True
592.376	1.45	Lose2	0.5556	n/a	Yes	2.871	n/a	5.0	GoodResponse	0	0.028	591.404	7	62	Feedback	AvoidedLoss	True
593.831	2.871	Lose2	0.5556	n/a	Yes	2.871	n/a	n/a	GoodResponse	0	0.0	n/a	7	62	ISIslide	AvoidedLoss	True
596.723	0.25	Lose2	0.5625	0.0	Yes	2.627	0.023	n/a	GoodResponse	0	n/a	n/a	7	63	Cue	AvoidedLoss	True
596.973	4.05	Lose2	0.5625	0.0	Yes	2.627	0.0	n/a	GoodResponse	0	n/a	n/a	7	63	Fixation	AvoidedLoss	True
601.019	0.48	Lose2	0.5625	0.004	Yes	2.627	-0.004	2.0	GoodResponse	0	0.21	600.229	7	63	Target	AvoidedLoss	True
601.229	0.3	Lose2	0.5625	0.004	Yes	2.627	-0.004	2.0	GoodResponse	0	0.21	n/a	7	63	ButtonPress	AvoidedLoss	True
601.504	0.22	Lose2	0.5625	n/a	Yes	2.627	n/a	n/a	GoodResponse	0	n/a	n/a	7	63	Blank	AvoidedLoss	True
601.721	1.45	Lose2	0.5625	n/a	Yes	2.627	n/a	5.0	GoodResponse	0	0.001	600.722	7	63	Feedback	AvoidedLoss	True
603.175	2.627	Lose2	0.5625	n/a	Yes	2.627	n/a	n/a	GoodResponse	0	0.0	n/a	7	63	ISIslide	AvoidedLoss	True
605.816	0.25	Win2	0.5692	0.001	Yes	3.134	0.016	n/a	GoodResponse	1	n/a	n/a	8	64	Cue	Win	True
606.067	4.15	Win2	0.5692	0.0	Yes	3.134	0.001	n/a	GoodResponse	1	n/a	n/a	8	64	Fixation	Win	True
610.213	0.49	Win2	0.5692	0.003	Yes	3.134	-0.003	2.0	GoodResponse	1	0.214	609.427	8	64	Target	Win	True
610.427	0.3	Win2	0.5692	0.003	Yes	3.134	-0.003	2.0	GoodResponse	1	0.214	n/a	8	64	ButtonPress	Win	True
610.714	0.21	Win2	0.5692	n/a	Yes	3.134	n/a	n/a	GoodResponse	1	n/a	n/a	8	64	Blank	Win	True
610.915	1.45	Win2	0.5692	n/a	Yes	3.134	n/a	5.0	GoodResponse	1	0.026	609.941	8	64	Feedback	Win	True
612.369	3.134	Win2	0.5692	n/a	Yes	3.134	n/a	n/a	GoodResponse	1	0.0	n/a	8	64	ISIslide	Win	True
615.529	0.25	Control	0.5758	0.0	Yes	2.771	0.029	n/a	GoodResponse	0	n/a	n/a	8	65	Cue	Neutral	True
615.78	4.0	Control	0.5758	0.0	Yes	2.771	0.001	n/a	GoodResponse	0	n/a	n/a	8	65	Fixation	Neutral	True
619.775	0.5	Control	0.5758	0.004	Yes	2.771	-0.004	2.0	GoodResponse	0	0.254	619.029	8	65	Target	Neutral	True
620.029	0.3	Control	0.5758	0.004	Yes	2.771	-0.004	2.0	GoodResponse	0	0.254	n/a	8	65	ButtonPress	Neutral	True
620.276	0.2	Control	0.5758	n/a	Yes	2.771	n/a	n/a	GoodResponse	0	n/a	n/a	8	65	Blank	Neutral	True
620.477	1.45	Control	0.5758	n/a	Yes	2.771	n/a	5.0	GoodResponse	0	0.024	619.501	8	65	Feedback	Neutral	True
621.931	2.771	Control	0.5758	n/a	Yes	2.771	n/a	n/a	GoodResponse	0	0.0	n/a	8	65	ISIslide	Neutral	True
624.723	0.25	Win2	0.5821000000000001	0.0	Yes	2.777	0.023	n/a	GoodResponse	1	n/a	n/a	9	66	Cue	Win	True
624.974	3.9	Win2	0.5821000000000001	0.0	Yes	2.777	0.001	n/a	GoodResponse	1	n/a	n/a	9	66	Fixation	Win	True
628.869	0.5	Win2	0.5821000000000001	0.004	Yes	2.777	-0.004	2.0	GoodResponse	1	0.199	628.068	9	66	Target	Win	True
629.068	0.3	Win2	0.5821000000000001	0.004	Yes	2.777	-0.004	2.0	GoodResponse	1	0.199	n/a	9	66	ButtonPress	Win	True
629.37	0.2	Win2	0.5821000000000001	n/a	Yes	2.777	n/a	n/a	GoodResponse	1	n/a	n/a	9	66	Blank	Win	True
629.571	1.45	Win2	0.5821000000000001	n/a	Yes	2.777	n/a	5.0	GoodResponse	1	0.006	628.577	9	66	Feedback	Win	True
631.025	2.777	Win2	0.5821000000000001	n/a	Yes	2.777	n/a	n/a	GoodResponse	1	0.0	n/a	9	66	ISIslide	Win	True
633.817	0.25	Control	0.5882000000000001	0.0	Yes	2.733	0.017	n/a	GoodResponse	0	n/a	n/a	9	67	Cue	Neutral	True
634.067	3.95	Control	0.5882000000000001	0.001	Yes	2.733	0.0	n/a	GoodResponse	0	n/a	n/a	9	67	Fixation	Neutral	True
638.013	0.5	Control	0.5882000000000001	0.004	Yes	2.733	-0.004	2.0	GoodResponse	0	0.354	637.367	9	67	Target	Neutral	True
638.367	0.3	Control	0.5882000000000001	0.004	Yes	2.733	-0.004	2.0	GoodResponse	0	0.354	n/a	9	67	ButtonPress	Neutral	True
638.514	0.2	Control	0.5882000000000001	n/a	Yes	2.733	n/a	n/a	GoodResponse	0	n/a	n/a	9	67	Blank	Neutral	True
638.715	1.45	Control	0.5882000000000001	n/a	Yes	2.733	n/a	5.0	GoodResponse	0	0.03	637.745	9	67	Feedback	Neutral	True
640.169	2.733	Control	0.5882000000000001	n/a	Yes	2.733	n/a	n/a	GoodResponse	0	0.0	n/a	9	67	ISIslide	Neutral	True
642.927	0.25	Win2	0.5942000000000001	0.0	Yes	3.073	0.027	n/a	GoodResponse	1	n/a	n/a	10	68	Cue	Win	True
643.178	4.0	Win2	0.5942000000000001	0.0	Yes	3.073	0.001	n/a	GoodResponse	1	n/a	n/a	10	68	Fixation	Win	True
647.173	0.5	Win2	0.5942000000000001	0.004	Yes	3.073	-0.004	2.0	GoodResponse	1	0.208	646.381	10	68	Target	Win	True
647.381	0.3	Win2	0.5942000000000001	0.004	Yes	3.073	-0.004	2.0	GoodResponse	1	0.208	n/a	10	68	ButtonPress	Win	True
647.675	0.2	Win2	0.5942000000000001	n/a	Yes	3.073	n/a	n/a	GoodResponse	1	n/a	n/a	10	68	Blank	Win	True
647.875	1.45	Win2	0.5942000000000001	n/a	Yes	3.073	n/a	5.0	GoodResponse	1	0.041	646.916	10	68	Feedback	Win	True
649.33	3.073	Win2	0.5942000000000001	n/a	Yes	3.073	n/a	n/a	GoodResponse	1	0.0	n/a	10	68	ISIslide	Win	True
652.422	0.25	Win2	0.6	0.0	Yes	3.228	0.022	n/a	GoodResponse	1	n/a	n/a	11	69	Cue	Win	True
652.673	3.95	Win2	0.6	0.0	Yes	3.228	0.001	n/a	GoodResponse	1	n/a	n/a	11	69	Fixation	Win	True
656.618	0.5	Win2	0.6	0.004	Yes	3.228	-0.004	2.0	GoodResponse	1	0.193	655.811	11	69	Target	Win	True
656.811	0.3	Win2	0.6	0.004	Yes	3.228	-0.004	2.0	GoodResponse	1	0.193	n/a	11	69	ButtonPress	Win	True
657.12	0.2	Win2	0.6	n/a	Yes	3.228	n/a	n/a	GoodResponse	1	n/a	n/a	11	69	Blank	Win	True
657.32	1.45	Win2	0.6	n/a	Yes	3.228	n/a	5.0	GoodResponse	1	0.01	656.33	11	69	Feedback	Win	True
658.775	3.228	Win2	0.6	n/a	Yes	3.228	n/a	n/a	GoodResponse	1	0.0	n/a	11	69	ISIslide	Win	True
662.018	0.25	Lose2	0.6056	0.0	Yes	3.032	0.018	n/a	GoodResponse	0	n/a	n/a	11	70	Cue	AvoidedLoss	True
662.268	4.05	Lose2	0.6056	0.0	Yes	3.032	0.0	n/a	GoodResponse	0	n/a	n/a	11	70	Fixation	AvoidedLoss	True
666.314	0.5	Lose2	0.6056	0.004	Yes	3.032	-0.004	2.0	GoodResponse	0	0.208	665.522	11	70	Target	AvoidedLoss	True
666.522	0.3	Lose2	0.6056	0.004	Yes	3.032	-0.004	2.0	GoodResponse	0	0.208	n/a	11	70	ButtonPress	AvoidedLoss	True
666.815	0.2	Lose2	0.6056	n/a	Yes	3.032	n/a	n/a	GoodResponse	0	n/a	n/a	11	70	Blank	AvoidedLoss	True
667.016	1.45	Lose2	0.6056	n/a	Yes	3.032	n/a	5.0	GoodResponse	0	0.021	666.037	11	70	Feedback	AvoidedLoss	True
668.47	3.032	Lose2	0.6056	n/a	Yes	3.032	n/a	n/a	GoodResponse	0	0.0	n/a	11	70	ISIslide	AvoidedLoss	True
671.529	0.25	Win2	0.6111	0.0	Yes	2.721	0.029	n/a	GoodResponse	1	n/a	n/a	12	71	Cue	Win	True
671.78	4.05	Win2	0.6111	0.0	Yes	2.721	0.001	n/a	GoodResponse	1	n/a	n/a	12	71	Fixation	Win	True
675.826	0.5	Win2	0.6111	0.003	Yes	2.721	-0.003	2.0	GoodResponse	1	0.199	675.025	12	71	Target	Win	True
676.025	0.3	Win2	0.6111	0.003	Yes	2.721	-0.003	2.0	GoodResponse	1	0.199	n/a	12	71	ButtonPress	Win	True
676.327	0.2	Win2	0.6111	n/a	Yes	2.721	n/a	n/a	GoodResponse	1	n/a	n/a	12	71	Blank	Win	True
676.528	1.45	Win2	0.6111	n/a	Yes	2.721	n/a	5.0	GoodResponse	1	0.022	675.55	12	71	Feedback	Win	True
677.982	2.721	Win2	0.6111	n/a	Yes	2.721	n/a	n/a	GoodResponse	1	0.0	n/a	12	71	ISIslide	Win	True
680.724	0.25	Win2	0.6164000000000001	0.0	Yes	2.776	0.024	n/a	GoodResponse	1	n/a	n/a	13	72	Cue	Win	True
680.974	4.1	Win2	0.6164000000000001	0.0	Yes	2.776	0.0	n/a	GoodResponse	1	n/a	n/a	13	72	Fixation	Win	True
685.07	0.5	Win2	0.6164000000000001	0.004	Yes	2.776	-0.004	2.0	GoodResponse	1	0.207	684.277	13	72	Target	Win	True
685.277	0.3	Win2	0.6164000000000001	0.004	Yes	2.776	-0.004	2.0	GoodResponse	1	0.207	n/a	13	72	ButtonPress	Win	True
685.571	0.2	Win2	0.6164000000000001	n/a	Yes	2.776	n/a	n/a	GoodResponse	1	n/a	n/a	13	72	Blank	Win	True
685.772	1.45	Win2	0.6164000000000001	n/a	Yes	2.776	n/a	5.0	GoodResponse	1	0.046	684.818	13	72	Feedback	Win	True
687.226	2.776	Win2	0.6164000000000001	n/a	Yes	2.776	n/a	n/a	GoodResponse	1	0.0	n/a	13	72	ISIslide	Win	True
690.018	0.25	Win2	0.6215999999999999	0.0	Yes	2.682	0.018	n/a	GoodResponse	1	n/a	n/a	14	73	Cue	Win	True
690.269	4.0	Win2	0.6215999999999999	0.0	Yes	2.682	0.001	n/a	GoodResponse	1	n/a	n/a	14	73	Fixation	Win	True
694.264	0.5	Win2	0.6215999999999999	0.004	Yes	2.682	-0.004	2.0	GoodResponse	1	0.223	693.487	14	73	Target	Win	True
694.487	0.3	Win2	0.6215999999999999	0.004	Yes	2.682	-0.004	2.0	GoodResponse	1	0.223	n/a	14	73	ButtonPress	Win	True
694.765	0.2	Win2	0.6215999999999999	n/a	Yes	2.682	n/a	n/a	GoodResponse	1	n/a	n/a	14	73	Blank	Win	True
694.966	1.45	Win2	0.6215999999999999	n/a	Yes	2.682	n/a	5.0	GoodResponse	1	0.022	693.988	14	73	Feedback	Win	True
696.42	2.682	Win2	0.6215999999999999	n/a	Yes	2.682	n/a	n/a	GoodResponse	1	0.0	n/a	14	73	ISIslide	Win	True
699.128	0.25	Lose2	0.6267	0.001	Yes	2.622	0.028	n/a	GoodResponse	0	n/a	n/a	14	74	Cue	AvoidedLoss	True
699.379	4.05	Lose2	0.6267	0.0	Yes	2.622	0.001	n/a	GoodResponse	0	n/a	n/a	14	74	Fixation	AvoidedLoss	True
703.425	0.5	Lose2	0.6267	0.003	Yes	2.622	-0.003	2.0	GoodResponse	0	0.213	702.638	14	74	Target	AvoidedLoss	True
703.638	0.3	Lose2	0.6267	0.003	Yes	2.622	-0.003	2.0	GoodResponse	0	0.213	n/a	14	74	ButtonPress	AvoidedLoss	True
703.926	0.2	Lose2	0.6267	n/a	Yes	2.622	n/a	n/a	GoodResponse	0	n/a	n/a	14	74	Blank	AvoidedLoss	True
704.127	1.45	Lose2	0.6267	n/a	Yes	2.622	n/a	5.0	GoodResponse	0	0.032	703.159	14	74	Feedback	AvoidedLoss	True
705.581	2.622	Lose2	0.6267	n/a	Yes	2.622	n/a	n/a	GoodResponse	0	0.0	n/a	14	74	ISIslide	AvoidedLoss	True
708.222	0.25	Lose2	0.6315999999999999	0.0	Yes	2.928	0.022	n/a	GoodResponse	0	n/a	n/a	14	75	Cue	AvoidedLoss	True
708.473	3.95	Lose2	0.6315999999999999	0.0	Yes	2.928	0.001	n/a	GoodResponse	0	n/a	n/a	14	75	Fixation	AvoidedLoss	True
712.418	0.5	Lose2	0.6315999999999999	0.004	Yes	2.928	-0.004	2.0	GoodResponse	0	0.23	711.648	14	75	Target	AvoidedLoss	True
712.648	0.3	Lose2	0.6315999999999999	0.004	Yes	2.928	-0.004	2.0	GoodResponse	0	0.23	n/a	14	75	ButtonPress	AvoidedLoss	True
712.92	0.2	Lose2	0.6315999999999999	n/a	Yes	2.928	n/a	n/a	GoodResponse	0	n/a	n/a	14	75	Blank	AvoidedLoss	True
713.12	1.45	Lose2	0.6315999999999999	n/a	Yes	2.928	n/a	5.0	GoodResponse	0	0.014	712.134	14	75	Feedback	AvoidedLoss	True
714.575	2.928	Lose2	0.6315999999999999	n/a	Yes	2.928	n/a	n/a	GoodResponse	0	0.0	n/a	14	75	ISIslide	AvoidedLoss	True
717.517	0.25	Control	0.6234000000000001	0.0	No	3.233	0.017	n/a	NoResponse	0	n/a	n/a	14	76	Cue	Neutral	False
717.767	4.05	Control	0.6234000000000001	0.001	No	3.233	0.0	n/a	NoResponse	0	n/a	n/a	14	76	Fixation	Neutral	False
721.813	0.5	Control	0.6234000000000001	0.004	No	3.233	-0.004	n/a	NoResponse	0	n/a	n/a	14	76	Target	Neutral	False
722.314	0.2	Control	0.6234000000000001	n/a	No	3.233	n/a	n/a	NoResponse	0	n/a	n/a	14	76	Blank	Neutral	False
722.515	1.45	Control	0.6234000000000001	n/a	No	3.233	n/a	5.0	NoResponse	0	0.034	721.549	14	76	Feedback	Neutral	False
723.969	3.233	Control	0.6234000000000001	n/a	No	3.233	n/a	n/a	NoResponse	0	0.0	n/a	14	76	ISIslide	Neutral	False
727.229	0.25	Lose2	0.6282	0.0	Yes	2.571	0.029	n/a	GoodResponse	0	n/a	n/a	14	77	Cue	AvoidedLoss	True
727.48	3.95	Lose2	0.6282	0.0	Yes	2.571	0.001	n/a	GoodResponse	0	n/a	n/a	14	77	Fixation	AvoidedLoss	True
731.425	0.5	Lose2	0.6282	0.004	Yes	2.571	-0.004	2.0	GoodResponse	0	0.191	730.616	14	77	Target	AvoidedLoss	True
731.616	0.3	Lose2	0.6282	0.004	Yes	2.571	-0.004	2.0	GoodResponse	0	0.191	n/a	14	77	ButtonPress	AvoidedLoss	True
731.926	0.2	Lose2	0.6282	n/a	Yes	2.571	n/a	n/a	GoodResponse	0	n/a	n/a	14	77	Blank	AvoidedLoss	True
732.127	1.45	Lose2	0.6282	n/a	Yes	2.571	n/a	5.0	GoodResponse	0	0.031	731.158	14	77	Feedback	AvoidedLoss	True
733.581	2.571	Lose2	0.6282	n/a	Yes	2.571	n/a	n/a	GoodResponse	0	0.0	n/a	14	77	ISIslide	AvoidedLoss	True
