onset	duration	cue_type	current_mean_accuracy	duration_error	is_hit	isi_adjusted	onset_delay	response	response_type	reward	rt	rt_time	total_reward	trial_number	trial_phase	trial_type	one_press
11.096	0.25	Control	1.0	0.0	Yes	2.954	-0.004	n/a	GoodResponse	0	n/a	n/a	0	0	Cue	Neutral	True
11.346	3.85	Control	1.0	0.0	Yes	2.954	0.0	n/a	GoodResponse	0	n/a	n/a	0	0	Fixation	Neutral	True
15.195	0.4	Control	1.0	0.001	Yes	2.954	-0.001	2.0	GoodResponse	0	0.273	14.468	0	0	Target	Neutral	True
15.468	0.3	Control	1.0	0.001	Yes	2.954	-0.001	2.0	GoodResponse	0	0.273	n/a	0	0	ButtonPress	Neutral	True
15.594	0.3	Control	1.0	n/a	Yes	2.954	n/a	n/a	GoodResponse	0	n/a	n/a	0	0	Blank	Neutral	True
15.894	1.45	Control	1.0	n/a	Yes	2.954	n/a	5.0	GoodResponse	0	1.109	16.003	0	0	Feedback	Neutral	True
17.344	2.954	Control	1.0	n/a	Yes	2.954	n/a	n/a	GoodResponse	0	0.0	n/a	0	0	ISIslide	Neutral	True
20.326	0.25	Lose2	1.0	0.0	Yes	2.774	0.026	n/a	GoodResponse	0	n/a	n/a	0	1	Cue	AvoidedLoss	True
20.576	4.0	Lose2	1.0	0.0	Yes	2.774	0.0	n/a	GoodResponse	0	n/a	n/a	0	1	Fixation	AvoidedLoss	True
24.575	0.39	Lose2	1.0	0.001	Yes	2.774	-0.001	2.0	GoodResponse	0	0.198	23.773	0	1	Target	AvoidedLoss	True
24.773	0.3	Lose2	1.0	0.001	Yes	2.774	-0.001	2.0	GoodResponse	0	0.198	n/a	0	1	ButtonPress	AvoidedLoss	True
24.975	0.31	Lose2	1.0	n/a	Yes	2.774	n/a	n/a	GoodResponse	0	n/a	n/a	0	1	Blank	AvoidedLoss	True
25.274	1.45	Lose2	1.0	n/a	Yes	2.774	n/a	n/a	GoodResponse	0	n/a	n/a	0	1	Feedback	AvoidedLoss	True
26.724	2.774	Lose2	1.0	n/a	Yes	2.774	n/a	n/a	GoodResponse	0	0.0	n/a	0	1	ISIslide	AvoidedLoss	True
29.523	0.25	Control	1.0	0.0	Yes	2.577	0.023	n/a	GoodResponse	0	n/a	n/a	0	2	Cue	Neutral	True
29.773	4.1	Control	1.0	0.0	Yes	2.577	0.0	n/a	GoodResponse	0	n/a	n/a	0	2	Fixation	Neutral	True
33.871	0.38	Control	1.0	0.002	Yes	2.577	-0.002	2.0	GoodResponse	0	0.26	33.131	0	2	Target	Neutral	True
34.131	0.3	Control	1.0	0.002	Yes	2.577	-0.002	2.0	GoodResponse	0	0.26	n/a	0	2	ButtonPress	Neutral	True
34.255	0.32	Control	1.0	n/a	Yes	2.577	n/a	n/a	GoodResponse	0	n/a	n/a	0	2	Blank	Neutral	True
34.571	1.45	Control	1.0	n/a	Yes	2.577	n/a	5.0	GoodResponse	0	0.432	34.003	0	2	Feedback	Neutral	True
36.021	2.577	Control	1.0	n/a	Yes	2.577	n/a	n/a	GoodResponse	0	0.0	n/a	0	2	ISIslide	Neutral	True
38.62	0.25	Win2	1.0	0.0	Yes	2.83	0.02	n/a	GoodResponse	1	n/a	n/a	1	3	Cue	Win	True
38.87	3.95	Win2	1.0	0.0	Yes	2.83	0.0	n/a	GoodResponse	1	n/a	n/a	1	3	Fixation	Win	True
42.818	0.37	Win2	1.0	0.002	Yes	2.83	-0.002	2.0	GoodResponse	1	0.254	42.072	1	3	Target	Win	True
43.072	0.3	Win2	1.0	0.002	Yes	2.83	-0.002	2.0	GoodResponse	1	0.254	n/a	1	3	ButtonPress	Win	True
43.201	0.33	Win2	1.0	n/a	Yes	2.83	n/a	n/a	GoodResponse	1	n/a	n/a	1	3	Blank	Win	True
43.518	1.45	Win2	1.0	n/a	Yes	2.83	n/a	n/a	GoodResponse	1	n/a	n/a	1	3	Feedback	Win	True
44.968	2.83	Win2	1.0	n/a	Yes	2.83	n/a	n/a	GoodResponse	1	0.0	n/a	1	3	ISIslide	Win	True
47.817	0.25	Win2	1.0	0.0	Yes	3.283	0.017	n/a	GoodResponse	1	n/a	n/a	2	4	Cue	Win	False
48.066	4.0	Win2	1.0	0.001	Yes	3.283	-0.001	2.0	GoodResponse	1	0.842	47.908	2	4	Fixation	Win	False
48.908	0.3	Win2	1.0	0.001	Yes	3.283	-0.001	2.0	GoodResponse	1	0.842	n/a	2	4	ButtonPress	Win	False
52.065	0.36	Win2	1.0	0.002	Yes	3.283	-0.002	2.0	GoodResponse	1	0.221	51.286	2	4	Target	Win	False
52.286	0.3	Win2	1.0	0.002	Yes	3.283	-0.002	2.0	GoodResponse	1	0.221	n/a	2	4	ButtonPress	Win	False
52.432	0.34	Win2	1.0	n/a	Yes	3.283	n/a	n/a	GoodResponse	1	n/a	n/a	2	4	Blank	Win	False
52.765	1.45	Win2	1.0	n/a	Yes	3.283	n/a	5.0	GoodResponse	1	0.237	52.002	2	4	Feedback	Win	False
54.214	3.283	Win2	1.0	n/a	Yes	3.283	n/a	n/a	GoodResponse	1	0.0	n/a	2	4	ISIslide	Win	False
57.513	0.25	Win2	1.0	0.0	Yes	2.787	0.013	n/a	GoodResponse	1	n/a	n/a	3	5	Cue	Win	True
57.763	4.0	Win2	1.0	0.0	Yes	2.787	0.0	n/a	GoodResponse	1	n/a	n/a	3	5	Fixation	Win	True
61.762	0.35	Win2	1.0	0.001	Yes	2.787	-0.001	2.0	GoodResponse	1	0.268	61.03	3	5	Target	Win	True
62.03	0.3	Win2	1.0	0.001	Yes	2.787	-0.001	2.0	GoodResponse	1	0.268	n/a	3	5	ButtonPress	Win	True
62.112	0.35	Win2	1.0	n/a	Yes	2.787	n/a	n/a	GoodResponse	1	n/a	n/a	3	5	Blank	Win	True
62.461	1.45	Win2	1.0	n/a	Yes	2.787	n/a	5.0	GoodResponse	1	0.541	62.002	3	5	Feedback	Win	True
63.911	2.787	Win2	1.0	n/a	Yes	2.787	n/a	n/a	GoodResponse	1	0.0	n/a	3	5	ISIslide	Win	True
66.727	0.25	Lose2	1.0	0.0	Yes	2.723	0.027	n/a	GoodResponse	0	n/a	n/a	3	6	Cue	AvoidedLoss	True
66.977	3.95	Lose2	1.0	0.0	Yes	2.723	0.0	n/a	GoodResponse	0	n/a	n/a	3	6	Fixation	AvoidedLoss	True
70.925	0.34	Lose2	1.0	0.002	Yes	2.723	-0.002	2.0	GoodResponse	0	0.264	70.189	3	6	Target	AvoidedLoss	True
71.189	0.3	Lose2	1.0	0.002	Yes	2.723	-0.002	2.0	GoodResponse	0	0.264	n/a	3	6	ButtonPress	AvoidedLoss	True
71.275	0.36	Lose2	1.0	n/a	Yes	2.723	n/a	n/a	GoodResponse	0	n/a	n/a	3	6	Blank	AvoidedLoss	True
71.625	1.45	Lose2	1.0	n/a	Yes	2.723	n/a	5.0	GoodResponse	0	1.377	72.002	3	6	Feedback	AvoidedLoss	True
73.074	2.723	Lose2	1.0	n/a	Yes	2.723	n/a	n/a	GoodResponse	0	0.0	n/a	3	6	ISIslide	AvoidedLoss	True
75.823	0.25	Lose2	1.0	0.001	Yes	4.027	0.023	n/a	GoodResponse	0	n/a	n/a	3	7	Cue	AvoidedLoss	True
76.073	4.05	Lose2	1.0	0.0	Yes	4.027	0.0	n/a	GoodResponse	0	n/a	n/a	3	7	Fixation	AvoidedLoss	True
80.122	0.33	Lose2	1.0	0.001	Yes	4.027	-0.001	2.0	GoodResponse	0	0.208	79.33	3	7	Target	AvoidedLoss	True
80.33	0.3	Lose2	1.0	0.001	Yes	4.027	-0.001	2.0	GoodResponse	0	0.208	n/a	3	7	ButtonPress	AvoidedLoss	True
80.455	0.37	Lose2	1.0	n/a	Yes	4.027	n/a	n/a	GoodResponse	0	n/a	n/a	3	7	Blank	AvoidedLoss	True
80.822	1.45	Lose2	1.0	n/a	Yes	4.027	n/a	5.0	GoodResponse	0	0.18	80.002	3	7	Feedback	AvoidedLoss	True
82.271	4.027	Lose2	1.0	n/a	Yes	4.027	n/a	n/a	GoodResponse	0	0.0	n/a	3	7	ISIslide	AvoidedLoss	True
86.32	0.25	Lose2	1.0	0.0	Yes	3.03	0.02	n/a	GoodResponse	0	n/a	n/a	3	8	Cue	AvoidedLoss	False
86.57	3.95	Lose2	1.0	0.0	Yes	3.03	0.0	2.0	GoodResponse	0	1.594	87.164	3	8	Fixation	AvoidedLoss	False
88.164	0.3	Lose2	1.0	0.0	Yes	3.03	0.0	2.0	GoodResponse	0	1.594	n/a	3	8	ButtonPress	AvoidedLoss	False
90.518	0.32	Lose2	1.0	0.002	Yes	3.03	-0.002	2.0	GoodResponse	0	0.311	89.829	3	8	Target	AvoidedLoss	False
90.829	0.3	Lose2	1.0	0.002	Yes	3.03	-0.002	2.0	GoodResponse	0	0.311	n/a	3	8	ButtonPress	AvoidedLoss	False
90.852	0.38	Lose2	1.0	n/a	Yes	3.03	n/a	n/a	GoodResponse	0	n/a	n/a	3	8	Blank	AvoidedLoss	False
91.218	1.45	Lose2	1.0	n/a	Yes	3.03	n/a	n/a	GoodResponse	0	n/a	n/a	3	8	Feedback	AvoidedLoss	False
92.668	3.03	Lose2	1.0	n/a	Yes	3.03	n/a	n/a	GoodResponse	0	0.0	n/a	3	8	ISIslide	AvoidedLoss	False
95.717	0.25	Lose2	1.0	0.0	Yes	3.133	0.017	n/a	GoodResponse	0	n/a	n/a	3	9	Cue	AvoidedLoss	True
95.966	3.95	Lose2	1.0	0.001	Yes	3.133	-0.001	n/a	GoodResponse	0	n/a	n/a	3	9	Fixation	AvoidedLoss	True
99.915	0.31	Lose2	1.0	0.002	Yes	3.133	-0.002	4.0	GoodResponse	0	0.234	99.149	3	9	Target	AvoidedLoss	True
100.149	0.3	Lose2	1.0	0.002	Yes	3.133	-0.002	4.0	GoodResponse	0	0.234	n/a	3	9	ButtonPress	AvoidedLoss	True
100.232	0.39	Lose2	1.0	n/a	Yes	3.133	n/a	n/a	GoodResponse	0	n/a	n/a	3	9	Blank	AvoidedLoss	True
100.615	1.45	Lose2	1.0	n/a	Yes	3.133	n/a	5.0	GoodResponse	0	0.387	100.002	3	9	Feedback	AvoidedLoss	True
102.064	3.133	Lose2	1.0	n/a	Yes	3.133	n/a	n/a	GoodResponse	0	0.0	n/a	3	9	ISIslide	AvoidedLoss	True
105.213	0.25	Control	1.0	0.0	Yes	3.287	0.013	n/a	GoodResponse	0	n/a	n/a	3	10	Cue	Neutral	True
105.463	4.0	Control	1.0	0.0	Yes	3.287	0.0	n/a	GoodResponse	0	n/a	n/a	3	10	Fixation	Neutral	True
109.462	0.3	Control	1.0	0.001	Yes	3.287	-0.001	1.0	GoodResponse	0	0.217	108.679	3	10	Target	Neutral	True
109.679	0.3	Control	1.0	0.001	Yes	3.287	-0.001	1.0	GoodResponse	0	0.217	n/a	3	10	ButtonPress	Neutral	True
109.762	0.4	Control	1.0	n/a	Yes	3.287	n/a	n/a	GoodResponse	0	n/a	n/a	3	10	Blank	Neutral	True
110.161	1.45	Control	1.0	n/a	Yes	3.287	n/a	5.0	GoodResponse	0	0.841	110.002	3	10	Feedback	Neutral	True
111.611	3.287	Control	1.0	n/a	Yes	3.287	n/a	n/a	GoodResponse	0	0.0	n/a	3	10	ISIslide	Neutral	True
114.926	0.25	Lose2	1.0	0.001	Yes	2.724	0.026	n/a	GoodResponse	0	n/a	n/a	3	11	Cue	AvoidedLoss	True
115.176	4.05	Lose2	1.0	0.0	Yes	2.724	0.0	n/a	GoodResponse	0	n/a	n/a	3	11	Fixation	AvoidedLoss	True
119.225	0.29	Lose2	1.0	0.001	Yes	2.724	-0.001	2.0	GoodResponse	0	0.222	118.447	3	11	Target	AvoidedLoss	True
119.447	0.3	Lose2	1.0	0.001	Yes	2.724	-0.001	2.0	GoodResponse	0	0.222	n/a	3	11	ButtonPress	AvoidedLoss	True
119.525	0.41	Lose2	1.0	n/a	Yes	2.724	n/a	n/a	GoodResponse	0	n/a	n/a	3	11	Blank	AvoidedLoss	True
119.925	1.45	Lose2	1.0	n/a	Yes	2.724	n/a	5.0	GoodResponse	0	1.077	120.002	3	11	Feedback	AvoidedLoss	True
121.374	2.724	Lose2	1.0	n/a	Yes	2.724	n/a	n/a	GoodResponse	0	0.0	n/a	3	11	ISIslide	AvoidedLoss	True
124.123	0.25	Control	1.0	0.0	Yes	2.977	0.023	n/a	GoodResponse	0	n/a	n/a	3	12	Cue	Neutral	True
124.373	3.9	Control	1.0	0.0	Yes	2.977	0.0	n/a	GoodResponse	0	n/a	n/a	3	12	Fixation	Neutral	True
128.272	0.28	Control	1.0	0.001	Yes	2.977	-0.001	2.0	GoodResponse	0	0.212	127.484	3	12	Target	Neutral	True
128.484	0.3	Control	1.0	0.001	Yes	2.977	-0.001	2.0	GoodResponse	0	0.212	n/a	3	12	ButtonPress	Neutral	True
128.555	0.42	Control	1.0	n/a	Yes	2.977	n/a	n/a	GoodResponse	0	n/a	n/a	3	12	Blank	Neutral	True
128.972	1.45	Control	1.0	n/a	Yes	2.977	n/a	5.0	GoodResponse	0	0.03	128.002	3	12	Feedback	Neutral	True
130.421	2.977	Control	1.0	n/a	Yes	2.977	n/a	n/a	GoodResponse	0	0.0	n/a	3	12	ISIslide	Neutral	True
133.42	0.25	Control	0.9286	0.0	No	2.78	0.02	n/a	NoResponse	0	n/a	n/a	3	13	Cue	Neutral	True
133.67	4.0	Control	0.9286	0.0	No	2.78	0.0	n/a	NoResponse	0	n/a	n/a	3	13	Fixation	Neutral	True
137.669	0.27	Control	0.9286	0.001	No	2.78	-0.001	2.0	NoResponse	0	0.313	136.982	3	13	Target	Neutral	True
137.952	0.43	Control	0.9286	n/a	No	2.78	n/a	n/a	NoResponse	0	n/a	n/a	3	13	Blank	Neutral	True
137.982	0.3	Control	0.9286	0.001	No	2.78	-0.001	2.0	NoResponse	0	0.313	n/a	3	13	ButtonPress	Neutral	True
138.368	1.45	Control	0.9286	n/a	No	2.78	n/a	5.0	NoResponse	0	0.633	138.001	3	13	Feedback	Neutral	True
139.818	2.78	Control	0.9286	n/a	No	2.78	n/a	n/a	NoResponse	0	0.0	n/a	3	13	ISIslide	Neutral	True
142.617	0.25	Win2	0.9333	0.0	Yes	2.683	0.017	n/a	GoodResponse	1	n/a	n/a	4	14	Cue	Win	True
142.867	4.1	Win2	0.9333	0.0	Yes	2.683	0.0	n/a	GoodResponse	1	n/a	n/a	4	14	Fixation	Win	True
146.965	0.26	Win2	0.9333	0.002	Yes	2.683	-0.002	2.0	GoodResponse	1	0.239	146.204	4	14	Target	Win	True
147.204	0.3	Win2	0.9333	0.002	Yes	2.683	-0.002	2.0	GoodResponse	1	0.239	n/a	4	14	ButtonPress	Win	True
147.232	0.44	Win2	0.9333	n/a	Yes	2.683	n/a	n/a	GoodResponse	1	n/a	n/a	4	14	Blank	Win	True
147.665	1.45	Win2	0.9333	n/a	Yes	2.683	n/a	5.0	GoodResponse	1	1.336	148.001	4	14	Feedback	Win	True
149.115	2.683	Win2	0.9333	n/a	Yes	2.683	n/a	n/a	GoodResponse	1	0.0	n/a	4	14	ISIslide	Win	True
151.814	0.25	Control	0.9375	0.0	Yes	2.986	0.014	n/a	GoodResponse	0	n/a	n/a	4	15	Cue	Neutral	True
152.064	4.0	Control	0.9375	0.0	Yes	2.986	0.0	n/a	GoodResponse	0	n/a	n/a	4	15	Fixation	Neutral	True
156.062	0.25	Control	0.9375	0.002	Yes	2.986	-0.002	2.0	GoodResponse	0	0.203	155.265	4	15	Target	Neutral	True
156.265	0.3	Control	0.9375	0.002	Yes	2.986	-0.002	2.0	GoodResponse	0	0.203	n/a	4	15	ButtonPress	Neutral	True
156.312	0.45	Control	0.9375	n/a	Yes	2.986	n/a	n/a	GoodResponse	0	n/a	n/a	4	15	Blank	Neutral	True
156.762	1.45	Control	0.9375	n/a	Yes	2.986	n/a	5.0	GoodResponse	0	0.239	156.001	4	15	Feedback	Neutral	True
158.211	2.986	Control	0.9375	n/a	Yes	2.986	n/a	n/a	GoodResponse	0	0.0	n/a	4	15	ISIslide	Neutral	True
161.227	0.25	Win2	0.9412	0.0	Yes	2.873	0.027	n/a	GoodResponse	1	n/a	n/a	5	16	Cue	Win	True
161.477	4.0	Win2	0.9412	0.0	Yes	2.873	0.0	n/a	GoodResponse	1	n/a	n/a	5	16	Fixation	Win	True
165.476	0.24	Win2	0.9412	0.001	Yes	2.873	-0.001	2.0	GoodResponse	1	0.228	164.704	5	16	Target	Win	True
165.704	0.3	Win2	0.9412	0.001	Yes	2.873	-0.001	2.0	GoodResponse	1	0.228	n/a	5	16	ButtonPress	Win	True
165.725	0.46	Win2	0.9412	n/a	Yes	2.873	n/a	n/a	GoodResponse	1	n/a	n/a	5	16	Blank	Win	True
166.175	1.45	Win2	0.9412	n/a	Yes	2.873	n/a	5.0	GoodResponse	1	0.826	166.001	5	16	Feedback	Win	True
167.625	2.873	Win2	0.9412	n/a	Yes	2.873	n/a	n/a	GoodResponse	1	0.0	n/a	5	16	ISIslide	Win	True
170.524	0.25	Lose2	0.9444	0.0	Yes	2.726	0.024	n/a	GoodResponse	0	n/a	n/a	5	17	Cue	AvoidedLoss	True
170.774	3.95	Lose2	0.9444	0.0	Yes	2.726	0.0	n/a	GoodResponse	0	n/a	n/a	5	17	Fixation	AvoidedLoss	True
174.722	0.23	Lose2	0.9444	0.002	Yes	2.726	-0.002	2.0	GoodResponse	0	0.223	173.945	5	17	Target	AvoidedLoss	True
174.945	0.3	Lose2	0.9444	0.002	Yes	2.726	-0.002	2.0	GoodResponse	0	0.223	n/a	5	17	ButtonPress	AvoidedLoss	True
174.956	0.47	Lose2	0.9444	n/a	Yes	2.726	n/a	n/a	GoodResponse	0	n/a	n/a	5	17	Blank	AvoidedLoss	True
175.422	1.45	Lose2	0.9444	n/a	Yes	2.726	n/a	n/a	GoodResponse	0	n/a	n/a	5	17	Feedback	AvoidedLoss	True
176.872	2.726	Lose2	0.9444	n/a	Yes	2.726	n/a	n/a	GoodResponse	0	0.0	n/a	5	17	ISIslide	AvoidedLoss	True
179.621	0.25	Lose2	0.8946999999999999	0.0	No	2.729	0.021	n/a	LatePress	-1	n/a	n/a	4	18	Cue	Loss	True
179.87	4.05	Lose2	0.8946999999999999	0.001	No	2.729	-0.001	n/a	LatePress	-1	n/a	n/a	4	18	Fixation	Loss	True
183.919	0.22	Lose2	0.8946999999999999	0.002	No	2.729	-0.002	2.0	LatePress	-1	0.225	183.144	4	18	Target	Loss	True
184.144	0.3	Lose2	0.8946999999999999	0.002	No	2.729	-0.002	2.0	LatePress	-1	0.225	n/a	4	18	ButtonPress	Loss	True
184.152	0.48	Lose2	0.8946999999999999	n/a	No	2.729	n/a	n/a	LatePress	-1	n/a	n/a	4	18	Blank	Loss	True
184.619	1.45	Lose2	0.8946999999999999	n/a	No	2.729	n/a	5.0	LatePress	-1	0.383	184.002	4	18	Feedback	Loss	True
186.068	2.729	Lose2	0.8946999999999999	n/a	No	2.729	n/a	n/a	LatePress	-1	0.0	n/a	4	18	ISIslide	Loss	True
188.817	0.25	Control	0.85	0.0	No	2.933	0.017	n/a	NoResponse	0	n/a	n/a	4	19	Cue	Neutral	True
189.067	3.95	Control	0.85	0.0	No	2.933	0.0	n/a	NoResponse	0	n/a	n/a	4	19	Fixation	Neutral	True
193.016	0.21	Control	0.85	0.001	No	2.933	-0.001	2.0	NoResponse	0	0.218	192.234	4	19	Target	Neutral	True
193.232	0.49	Control	0.85	n/a	No	2.933	n/a	n/a	NoResponse	0	n/a	n/a	4	19	Blank	Neutral	True
193.234	0.3	Control	0.85	0.001	No	2.933	-0.001	2.0	NoResponse	0	0.218	n/a	4	19	ButtonPress	Neutral	True
193.716	1.45	Control	0.85	n/a	No	2.933	n/a	5.0	NoResponse	0	1.285	194.001	4	19	Feedback	Neutral	True
195.165	2.933	Control	0.85	n/a	No	2.933	n/a	n/a	NoResponse	0	0.0	n/a	4	19	ISIslide	Neutral	True
198.114	0.25	Control	0.8095	0.0	No	2.636	0.014	n/a	NoResponse	0	n/a	n/a	4	20	Cue	Neutral	True
198.364	4.05	Control	0.8095	0.0	No	2.636	0.0	n/a	NoResponse	0	n/a	n/a	4	20	Fixation	Neutral	True
202.413	0.2	Control	0.8095	0.001	No	2.636	-0.001	2.0	NoResponse	0	0.325	201.738	4	20	Target	Neutral	True
202.613	0.5	Control	0.8095	n/a	No	2.636	n/a	n/a	NoResponse	0	n/a	n/a	4	20	Blank	Neutral	True
202.738	0.3	Control	0.8095	0.001	No	2.636	-0.001	2.0	NoResponse	0	0.325	n/a	4	20	ButtonPress	Neutral	True
203.112	1.45	Control	0.8095	n/a	No	2.636	n/a	n/a	NoResponse	0	n/a	n/a	4	20	Feedback	Neutral	True
204.562	2.636	Control	0.8095	n/a	No	2.636	n/a	n/a	NoResponse	0	0.0	n/a	4	20	ISIslide	Neutral	True
207.211	0.25	Control	0.8181999999999999	0.0	Yes	2.789	0.011	n/a	GoodResponse	0	n/a	n/a	4	21	Cue	Neutral	True
207.461	4.1	Control	0.8181999999999999	0.0	Yes	2.789	0.0	n/a	GoodResponse	0	n/a	n/a	4	21	Fixation	Neutral	True
211.559	0.19	Control	0.8181999999999999	0.002	Yes	2.789	-0.002	2.0	GoodResponse	0	0.12	210.679	4	21	Target	Neutral	True
211.679	0.3	Control	0.8181999999999999	0.002	Yes	2.789	-0.002	2.0	GoodResponse	0	0.12	n/a	4	21	ButtonPress	Neutral	True
211.759	0.51	Control	0.8181999999999999	n/a	Yes	2.789	n/a	n/a	GoodResponse	0	n/a	n/a	4	21	Blank	Neutral	True
212.259	1.45	Control	0.8181999999999999	n/a	Yes	2.789	n/a	5.0	GoodResponse	0	0.742	212.001	4	21	Feedback	Neutral	True
213.709	2.789	Control	0.8181999999999999	n/a	Yes	2.789	n/a	n/a	GoodResponse	0	0.0	n/a	4	21	ISIslide	Neutral	True
216.524	0.25	Control	0.8261	0.0	Yes	2.776	0.024	n/a	GoodResponse	0	n/a	n/a	4	22	Cue	Neutral	True
216.774	4.0	Control	0.8261	0.0	Yes	2.776	0.0	n/a	GoodResponse	0	n/a	n/a	4	22	Fixation	Neutral	True
220.773	0.18	Control	0.8261	0.001	Yes	2.776	-0.001	2.0	GoodResponse	0	0.179	219.952	4	22	Target	Neutral	True
220.952	0.3	Control	0.8261	0.001	Yes	2.776	-0.001	2.0	GoodResponse	0	0.179	n/a	4	22	ButtonPress	Neutral	True
220.956	0.52	Control	0.8261	n/a	Yes	2.776	n/a	n/a	GoodResponse	0	n/a	n/a	4	22	Blank	Neutral	True
221.473	1.45	Control	0.8261	n/a	Yes	2.776	n/a	n/a	GoodResponse	0	n/a	n/a	4	22	Feedback	Neutral	True
222.922	2.776	Control	0.8261	n/a	Yes	2.776	n/a	n/a	GoodResponse	0	0.0	n/a	4	22	ISIslide	Neutral	True
225.721	0.25	Control	0.7917000000000001	0.0	No	2.779	0.021	n/a	NoResponse	0	n/a	n/a	4	23	Cue	Neutral	True
225.971	3.9	Control	0.7917000000000001	0.0	No	2.779	0.0	n/a	NoResponse	0	n/a	n/a	4	23	Fixation	Neutral	True
229.87	0.17	Control	0.7917000000000001	0.001	No	2.779	-0.001	2.0	NoResponse	0	0.185	229.055	4	23	Target	Neutral	True
230.036	0.53	Control	0.7917000000000001	n/a	No	2.779	n/a	n/a	NoResponse	0	n/a	n/a	4	23	Blank	Neutral	True
230.055	0.3	Control	0.7917000000000001	0.001	No	2.779	-0.001	2.0	NoResponse	0	0.185	n/a	4	23	ButtonPress	Neutral	True
230.569	1.45	Control	0.7917000000000001	n/a	No	2.779	n/a	5.0	NoResponse	0	0.432	230.001	4	23	Feedback	Neutral	True
232.019	2.779	Control	0.7917000000000001	n/a	No	2.779	n/a	n/a	NoResponse	0	0.0	n/a	4	23	ISIslide	Neutral	True
234.818	0.25	Win2	0.76	0.0	No	3.132	0.018	n/a	NoResponse	0	n/a	n/a	4	24	Cue	MissedWin	True
235.068	3.95	Win2	0.76	0.0	No	3.132	0.0	n/a	NoResponse	0	n/a	n/a	4	24	Fixation	MissedWin	True
239.017	0.16	Win2	0.76	0.001	No	3.132	-0.001	2.0	NoResponse	0	0.189	238.206	4	24	Target	MissedWin	True
239.183	0.54	Win2	0.76	n/a	No	3.132	n/a	n/a	NoResponse	0	n/a	n/a	4	24	Blank	MissedWin	True
239.206	0.3	Win2	0.76	0.001	No	3.132	-0.001	2.0	NoResponse	0	0.189	n/a	4	24	ButtonPress	MissedWin	True
239.716	1.45	Win2	0.76	n/a	No	3.132	n/a	5.0	NoResponse	0	1.284	240.0	4	24	Feedback	MissedWin	True
241.166	3.132	Win2	0.76	n/a	No	3.132	n/a	n/a	NoResponse	0	0.0	n/a	4	24	ISIslide	MissedWin	True
244.315	0.25	Win2	0.7308	0.0	No	3.085	0.015	n/a	NoResponse	0	n/a	n/a	4	25	Cue	MissedWin	True
244.565	4.0	Win2	0.7308	0.0	No	3.085	0.0	n/a	NoResponse	0	n/a	n/a	4	25	Fixation	MissedWin	True
248.563	0.15	Win2	0.7308	0.002	No	3.085	-0.002	2.0	NoResponse	0	0.197	247.76	4	25	Target	MissedWin	True
248.713	0.55	Win2	0.7308	n/a	No	3.085	n/a	n/a	NoResponse	0	n/a	n/a	4	25	Blank	MissedWin	True
248.76	0.3	Win2	0.7308	0.002	No	3.085	-0.002	2.0	NoResponse	0	0.197	n/a	4	25	ButtonPress	MissedWin	True
249.263	1.45	Win2	0.7308	n/a	No	3.085	n/a	n/a	NoResponse	0	n/a	n/a	4	25	Feedback	MissedWin	True
250.712	3.085	Win2	0.7308	n/a	No	3.085	n/a	n/a	NoResponse	0	0.0	n/a	4	25	ISIslide	MissedWin	True
253.828	0.25	Win2	0.7037	0.0	No	2.922	0.028	n/a	NoResponse	0	n/a	n/a	4	26	Cue	MissedWin	True
254.078	3.95	Win2	0.7037	0.0	No	2.922	0.0	n/a	NoResponse	0	n/a	n/a	4	26	Fixation	MissedWin	True
258.027	0.15	Win2	0.7037	0.001	No	2.922	-0.001	2.0	NoResponse	0	0.196	257.223	4	26	Target	MissedWin	True
258.176	0.55	Win2	0.7037	n/a	No	2.922	n/a	n/a	NoResponse	0	n/a	n/a	4	26	Blank	MissedWin	True
258.223	0.3	Win2	0.7037	0.001	No	2.922	-0.001	2.0	NoResponse	0	0.196	n/a	4	26	ButtonPress	MissedWin	True
258.726	1.45	Win2	0.7037	n/a	No	2.922	n/a	5.0	NoResponse	0	0.275	258.001	4	26	Feedback	MissedWin	True
260.176	2.922	Win2	0.7037	n/a	No	2.922	n/a	n/a	NoResponse	0	0.0	n/a	4	26	ISIslide	MissedWin	True
263.125	0.25	Lose2	0.6786	0.0	No	2.825	0.025	n/a	NoResponse	-1	n/a	n/a	3	27	Cue	Loss	True
263.375	4.05	Lose2	0.6786	0.0	No	2.825	0.0	n/a	NoResponse	-1	n/a	n/a	3	27	Fixation	Loss	True
267.423	0.15	Lose2	0.6786	0.002	No	2.825	-0.002	2.0	NoResponse	-1	0.206	266.629	3	27	Target	Loss	True
267.573	0.55	Lose2	0.6786	n/a	No	2.825	n/a	n/a	NoResponse	-1	n/a	n/a	3	27	Blank	Loss	True
267.629	0.3	Lose2	0.6786	0.002	No	2.825	-0.002	2.0	NoResponse	-1	0.206	n/a	3	27	ButtonPress	Loss	True
268.123	1.45	Lose2	0.6786	n/a	No	2.825	n/a	5.0	NoResponse	-1	0.878	268.001	3	27	Feedback	Loss	True
269.573	2.825	Lose2	0.6786	n/a	No	2.825	n/a	n/a	NoResponse	-1	0.0	n/a	3	27	ISIslide	Loss	True
272.422	0.25	Control	0.6552	0.0	No	2.828	0.022	n/a	NoResponse	0	n/a	n/a	3	28	Cue	Neutral	True
272.671	4.05	Control	0.6552	0.001	No	2.828	-0.001	n/a	NoResponse	0	n/a	n/a	3	28	Fixation	Neutral	True
276.72	0.15	Control	0.6552	0.002	No	2.828	-0.002	2.0	NoResponse	0	0.464	276.184	3	28	Target	Neutral	True
276.87	0.55	Control	0.6552	n/a	No	2.828	n/a	n/a	NoResponse	0	n/a	n/a	3	28	Blank	Neutral	True
277.184	0.3	Control	0.6552	0.002	No	2.828	-0.002	2.0	NoResponse	0	0.464	n/a	3	28	ButtonPress	Neutral	True
277.42	1.45	Control	0.6552	n/a	No	2.828	n/a	n/a	NoResponse	0	n/a	n/a	3	28	Feedback	Neutral	True
278.869	2.828	Control	0.6552	n/a	No	2.828	n/a	n/a	NoResponse	0	0.0	n/a	3	28	ISIslide	Neutral	True
281.718	0.25	Lose2	0.6333	0.0	No	2.832	0.018	n/a	NoResponse	-1	n/a	n/a	2	29	Cue	Loss	True
281.968	3.95	Lose2	0.6333	0.0	No	2.832	0.0	n/a	NoResponse	-1	n/a	n/a	2	29	Fixation	Loss	True
285.917	0.15	Lose2	0.6333	0.001	No	2.832	-0.001	2.0	NoResponse	-1	0.181	285.098	2	29	Target	Loss	True
286.067	0.55	Lose2	0.6333	n/a	No	2.832	n/a	n/a	NoResponse	-1	n/a	n/a	2	29	Blank	Loss	True
286.098	0.3	Lose2	0.6333	0.001	No	2.832	-0.001	2.0	NoResponse	-1	0.181	n/a	2	29	ButtonPress	Loss	True
286.617	1.45	Lose2	0.6333	n/a	No	2.832	n/a	5.0	NoResponse	-1	0.384	286.001	2	29	Feedback	Loss	True
288.066	2.832	Lose2	0.6333	n/a	No	2.832	n/a	n/a	NoResponse	-1	0.0	n/a	2	29	ISIslide	Loss	True
290.915	0.25	Win2	0.6129	0.0	No	2.785	0.015	n/a	NoResponse	0	n/a	n/a	2	30	Cue	MissedWin	False
291.165	3.9	Win2	0.6129	0.0	No	2.785	0.0	2.0	NoResponse	0	2.477	292.642	2	30	Fixation	MissedWin	False
293.642	0.3	Win2	0.6129	0.0	No	2.785	0.0	2.0	NoResponse	0	2.477	n/a	2	30	ButtonPress	MissedWin	False
295.064	0.16	Win2	0.6129	0.001	No	2.785	-0.001	2.0	NoResponse	0	0.195	294.259	2	30	Target	MissedWin	False
295.23	0.54	Win2	0.6129	n/a	No	2.785	n/a	n/a	NoResponse	0	n/a	n/a	2	30	Blank	MissedWin	False
295.259	0.3	Win2	0.6129	0.001	No	2.785	-0.001	2.0	NoResponse	0	0.195	n/a	2	30	ButtonPress	MissedWin	False
295.763	1.45	Win2	0.6129	n/a	No	2.785	n/a	5.0	NoResponse	0	1.237	296.0	2	30	Feedback	MissedWin	False
297.213	2.785	Win2	0.6129	n/a	No	2.785	n/a	4.0	NoResponse	0	1.474	n/a	2	30	ISIslide	MissedWin	False
300.012	0.25	Lose2	0.5938	0.0	No	2.838	0.012	n/a	LatePress	-1	n/a	n/a	1	31	Cue	Loss	True
300.262	4.05	Lose2	0.5938	0.0	No	2.838	0.0	n/a	LatePress	-1	n/a	n/a	1	31	Fixation	Loss	True
304.31	0.17	Lose2	0.5938	0.002	No	2.838	-0.002	4.0	LatePress	-1	0.173	303.483	1	31	Target	Loss	True
304.483	0.3	Lose2	0.5938	0.002	No	2.838	-0.002	4.0	LatePress	-1	0.173	n/a	1	31	ButtonPress	Loss	True
304.494	0.53	Lose2	0.5938	n/a	No	2.838	n/a	n/a	LatePress	-1	n/a	n/a	1	31	Blank	Loss	True
305.01	1.45	Lose2	0.5938	n/a	No	2.838	n/a	n/a	LatePress	-1	n/a	n/a	1	31	Feedback	Loss	True
306.46	2.838	Lose2	0.5938	n/a	No	2.838	n/a	n/a	LatePress	-1	0.0	n/a	1	31	ISIslide	Loss	True
309.325	0.25	Lose2	0.5758	0.0	No	2.625	0.025	n/a	NoResponse	-1	n/a	n/a	0	32	Cue	Loss	True
309.575	4.15	Lose2	0.5758	0.0	No	2.625	0.0	n/a	NoResponse	-1	n/a	n/a	0	32	Fixation	Loss	True
313.724	0.18	Lose2	0.5758	0.001	No	2.625	-0.001	2.0	NoResponse	-1	0.191	312.915	0	32	Target	Loss	True
313.907	0.52	Lose2	0.5758	n/a	No	2.625	n/a	n/a	NoResponse	-1	n/a	n/a	0	32	Blank	Loss	True
313.915	0.3	Lose2	0.5758	0.001	No	2.625	-0.001	2.0	NoResponse	-1	0.191	n/a	0	32	ButtonPress	Loss	True
314.424	1.45	Lose2	0.5758	n/a	No	2.625	n/a	5.0	NoResponse	-1	0.576	314.0	0	32	Feedback	Loss	True
315.873	2.625	Lose2	0.5758	n/a	No	2.625	n/a	n/a	NoResponse	-1	0.0	n/a	0	32	ISIslide	Loss	True
318.522	0.25	Win2	0.5882000000000001	0.0	Yes	2.678	0.022	n/a	GoodResponse	1	n/a	n/a	1	33	Cue	Win	True
318.772	4.0	Win2	0.5882000000000001	0.0	Yes	2.678	0.0	n/a	GoodResponse	1	n/a	n/a	1	33	Fixation	Win	True
322.771	0.19	Win2	0.5882000000000001	0.001	Yes	2.678	-0.001	2.0	GoodResponse	1	0.184	321.955	1	33	Target	Win	True
322.955	0.3	Win2	0.5882000000000001	0.001	Yes	2.678	-0.001	2.0	GoodResponse	1	0.184	n/a	1	33	ButtonPress	Win	True
322.971	0.51	Win2	0.5882000000000001	n/a	Yes	2.678	n/a	n/a	GoodResponse	1	n/a	n/a	1	33	Blank	Win	True
323.47	1.45	Win2	0.5882000000000001	n/a	Yes	2.678	n/a	n/a	GoodResponse	1	n/a	n/a	1	33	Feedback	Win	True
324.92	2.678	Win2	0.5882000000000001	n/a	Yes	2.678	n/a	n/a	GoodResponse	1	0.0	n/a	1	33	ISIslide	Win	True
327.619	0.25	Lose2	0.6	0.0	Yes	2.631	0.019	n/a	GoodResponse	0	n/a	n/a	1	34	Cue	AvoidedLoss	True
327.869	4.05	Lose2	0.6	0.0	Yes	2.631	0.0	n/a	GoodResponse	0	n/a	n/a	1	34	Fixation	AvoidedLoss	True
331.917	0.2	Lose2	0.6	0.002	Yes	2.631	-0.002	2.0	GoodResponse	0	0.188	331.105	1	34	Target	AvoidedLoss	True
332.105	0.3	Lose2	0.6	0.002	Yes	2.631	-0.002	2.0	GoodResponse	0	0.188	n/a	1	34	ButtonPress	AvoidedLoss	True
332.117	0.5	Lose2	0.6	n/a	Yes	2.631	n/a	n/a	GoodResponse	0	n/a	n/a	1	34	Blank	AvoidedLoss	True
332.617	1.45	Lose2	0.6	n/a	Yes	2.631	n/a	5.0	GoodResponse	0	0.384	332.001	1	34	Feedback	AvoidedLoss	True
334.067	2.631	Lose2	0.6	n/a	Yes	2.631	n/a	n/a	GoodResponse	0	0.0	n/a	1	34	ISIslide	AvoidedLoss	True
336.716	0.25	Lose2	0.6111	0.0	Yes	2.684	0.016	n/a	GoodResponse	0	n/a	n/a	1	35	Cue	AvoidedLoss	True
336.966	4.0	Lose2	0.6111	0.0	Yes	2.684	0.0	n/a	GoodResponse	0	n/a	n/a	1	35	Fixation	AvoidedLoss	True
340.964	0.21	Lose2	0.6111	0.002	Yes	2.684	-0.002	2.0	GoodResponse	0	0.192	340.156	1	35	Target	AvoidedLoss	True
341.156	0.3	Lose2	0.6111	0.002	Yes	2.684	-0.002	2.0	GoodResponse	0	0.192	n/a	1	35	ButtonPress	AvoidedLoss	True
341.181	0.49	Lose2	0.6111	n/a	Yes	2.684	n/a	n/a	GoodResponse	0	n/a	n/a	1	35	Blank	AvoidedLoss	True
341.664	1.45	Lose2	0.6111	n/a	Yes	2.684	n/a	5.0	GoodResponse	0	1.336	342.0	1	35	Feedback	AvoidedLoss	True
343.114	2.684	Lose2	0.6111	n/a	Yes	2.684	n/a	n/a	GoodResponse	0	0.0	n/a	1	35	ISIslide	AvoidedLoss	True
345.813	0.25	Control	0.5946	0.0	No	2.687	0.013	n/a	LatePress	0	n/a	n/a	1	36	Cue	Neutral	True
346.063	4.0	Control	0.5946	0.0	No	2.687	0.0	n/a	LatePress	0	n/a	n/a	1	36	Fixation	Neutral	True
350.061	0.22	Control	0.5946	0.002	No	2.687	-0.002	2.0	LatePress	0	0.227	349.288	1	36	Target	Neutral	True
350.288	0.3	Control	0.5946	0.002	No	2.687	-0.002	2.0	LatePress	0	0.227	n/a	1	36	ButtonPress	Neutral	True
350.294	0.48	Control	0.5946	n/a	No	2.687	n/a	n/a	LatePress	0	n/a	n/a	1	36	Blank	Neutral	True
350.761	1.45	Control	0.5946	n/a	No	2.687	n/a	5.0	LatePress	0	0.239	350.0	1	36	Feedback	Neutral	True
352.21	2.687	Control	0.5946	n/a	No	2.687	n/a	n/a	LatePress	0	0.0	n/a	1	36	ISIslide	Neutral	True
354.926	0.25	Win2	0.6053000000000001	0.0	Yes	2.874	0.026	n/a	GoodResponse	1	n/a	n/a	2	37	Cue	Win	True
355.176	4.0	Win2	0.6053000000000001	0.0	Yes	2.874	0.0	n/a	GoodResponse	1	n/a	n/a	2	37	Fixation	Win	True
359.175	0.23	Win2	0.6053000000000001	0.001	Yes	2.874	-0.001	2.0	GoodResponse	1	0.21	358.385	2	37	Target	Win	True
359.385	0.3	Win2	0.6053000000000001	0.001	Yes	2.874	-0.001	2.0	GoodResponse	1	0.21	n/a	2	37	ButtonPress	Win	True
359.408	0.47	Win2	0.6053000000000001	n/a	Yes	2.874	n/a	n/a	GoodResponse	1	n/a	n/a	2	37	Blank	Win	True
359.874	1.45	Win2	0.6053000000000001	n/a	Yes	2.874	n/a	5.0	GoodResponse	1	1.126	360.0	2	37	Feedback	Win	True
361.324	2.874	Win2	0.6053000000000001	n/a	Yes	2.874	n/a	n/a	GoodResponse	1	0.0	n/a	2	37	ISIslide	Win	True
364.223	0.25	Lose2	0.5897	0.0	No	2.827	0.023	n/a	NoResponse	-1	n/a	n/a	1	38	Cue	Loss	True
364.473	3.95	Lose2	0.5897	0.0	No	2.827	0.0	n/a	NoResponse	-1	n/a	n/a	1	38	Fixation	Loss	True
368.421	0.24	Lose2	0.5897	0.002	No	2.827	-0.002	2.0	NoResponse	-1	0.316	367.737	1	38	Target	Loss	True
368.671	0.46	Lose2	0.5897	n/a	No	2.827	n/a	n/a	NoResponse	-1	n/a	n/a	1	38	Blank	Loss	True
368.737	0.3	Lose2	0.5897	0.002	No	2.827	-0.002	2.0	NoResponse	-1	0.316	n/a	1	38	ButtonPress	Loss	True
369.121	1.45	Lose2	0.5897	n/a	No	2.827	n/a	n/a	NoResponse	-1	n/a	n/a	1	38	Feedback	Loss	True
370.571	2.827	Lose2	0.5897	n/a	No	2.827	n/a	n/a	NoResponse	-1	0.0	n/a	1	38	ISIslide	Loss	True
373.42	0.25	Win2	0.6	0.0	Yes	2.98	0.02	n/a	GoodResponse	1	n/a	n/a	2	39	Cue	Win	True
373.67	4.1	Win2	0.6	0.0	Yes	2.98	0.0	n/a	GoodResponse	1	n/a	n/a	2	39	Fixation	Win	True
377.768	0.25	Win2	0.6	0.002	Yes	2.98	-0.002	2.0	GoodResponse	1	0.184	376.952	2	39	Target	Win	True
377.952	0.3	Win2	0.6	0.002	Yes	2.98	-0.002	2.0	GoodResponse	1	0.184	n/a	2	39	ButtonPress	Win	True
378.018	0.45	Win2	0.6	n/a	Yes	2.98	n/a	n/a	GoodResponse	1	n/a	n/a	2	39	Blank	Win	True
378.468	1.45	Win2	0.6	n/a	Yes	2.98	n/a	5.0	GoodResponse	1	0.532	378.0	2	39	Feedback	Win	True
379.917	2.98	Win2	0.6	n/a	Yes	2.98	n/a	n/a	GoodResponse	1	0.0	n/a	2	39	ISIslide	Win	True
382.916	0.25	Win2	0.6098	0.0	Yes	2.734	0.016	n/a	GoodResponse	1	n/a	n/a	3	40	Cue	Win	True
383.166	3.95	Win2	0.6098	0.0	Yes	2.734	0.0	n/a	GoodResponse	1	n/a	n/a	3	40	Fixation	Win	True
387.115	0.26	Win2	0.6098	0.001	Yes	2.734	-0.001	2.0	GoodResponse	1	0.22	386.335	3	40	Target	Win	True
387.335	0.3	Win2	0.6098	0.001	Yes	2.734	-0.001	2.0	GoodResponse	1	0.22	n/a	3	40	ButtonPress	Win	True
387.381	0.44	Win2	0.6098	n/a	Yes	2.734	n/a	n/a	GoodResponse	1	n/a	n/a	3	40	Blank	Win	True
387.815	1.45	Win2	0.6098	n/a	Yes	2.734	n/a	5.0	GoodResponse	1	1.184	387.999	3	40	Feedback	Win	True
389.264	2.734	Win2	0.6098	n/a	Yes	2.734	n/a	n/a	GoodResponse	1	0.0	n/a	3	40	ISIslide	Win	True
392.03	0.25	Win2	0.619	0.0	Yes	2.77	0.03	n/a	GoodResponse	1	n/a	n/a	4	41	Cue	Win	True
392.28	3.9	Win2	0.619	0.0	Yes	2.77	0.0	n/a	GoodResponse	1	n/a	n/a	4	41	Fixation	Win	True
396.178	0.27	Win2	0.619	0.002	Yes	2.77	-0.002	2.0	GoodResponse	1	0.186	395.364	4	41	Target	Win	True
396.364	0.3	Win2	0.619	0.002	Yes	2.77	-0.002	2.0	GoodResponse	1	0.186	n/a	4	41	ButtonPress	Win	True
396.462	0.43	Win2	0.619	n/a	Yes	2.77	n/a	n/a	GoodResponse	1	n/a	n/a	4	41	Blank	Win	True
396.878	1.45	Win2	0.619	n/a	Yes	2.77	n/a	5.0	GoodResponse	1	0.121	395.999	4	41	Feedback	Win	True
398.328	2.77	Win2	0.619	n/a	Yes	2.77	n/a	n/a	GoodResponse	1	0.0	n/a	4	41	ISIslide	Win	True
401.127	0.25	Control	0.6279	0.0	Yes	2.923	0.027	n/a	GoodResponse	0	n/a	n/a	4	42	Cue	Neutral	True
401.377	3.85	Control	0.6279	0.0	Yes	2.923	0.0	n/a	GoodResponse	0	n/a	n/a	4	42	Fixation	Neutral	True
405.225	0.28	Control	0.6279	0.002	Yes	2.923	-0.002	2.0	GoodResponse	0	0.229	404.454	4	42	Target	Neutral	True
405.454	0.3	Control	0.6279	0.002	Yes	2.923	-0.002	2.0	GoodResponse	0	0.229	n/a	4	42	ButtonPress	Neutral	True
405.508	0.42	Control	0.6279	n/a	Yes	2.923	n/a	n/a	GoodResponse	0	n/a	n/a	4	42	Blank	Neutral	True
405.925	1.45	Control	0.6279	n/a	Yes	2.923	n/a	5.0	GoodResponse	0	1.075	406.0	4	42	Feedback	Neutral	True
407.374	2.923	Control	0.6279	n/a	Yes	2.923	n/a	n/a	GoodResponse	0	0.0	n/a	4	42	ISIslide	Neutral	True
410.323	0.25	Win2	0.6364	0.0	Yes	3.177	0.023	n/a	GoodResponse	1	n/a	n/a	5	43	Cue	Win	True
410.573	4.0	Win2	0.6364	0.0	Yes	3.177	0.0	n/a	GoodResponse	1	n/a	n/a	5	43	Fixation	Win	True
414.572	0.29	Win2	0.6364	0.001	Yes	3.177	-0.001	2.0	GoodResponse	1	0.181	413.753	5	43	Target	Win	True
414.753	0.3	Win2	0.6364	0.001	Yes	3.177	-0.001	2.0	GoodResponse	1	0.181	n/a	5	43	ButtonPress	Win	True
414.872	0.41	Win2	0.6364	n/a	Yes	3.177	n/a	n/a	GoodResponse	1	n/a	n/a	5	43	Blank	Win	True
415.272	1.45	Win2	0.6364	n/a	Yes	3.177	n/a	n/a	GoodResponse	1	n/a	n/a	5	43	Feedback	Win	True
416.721	3.177	Win2	0.6364	n/a	Yes	3.177	n/a	n/a	GoodResponse	1	0.0	n/a	5	43	ISIslide	Win	True
419.92	0.25	Win2	0.6444	0.0	Yes	2.98	0.02	n/a	GoodResponse	1	n/a	n/a	6	44	Cue	Win	True
420.17	4.0	Win2	0.6444	0.0	Yes	2.98	0.0	n/a	GoodResponse	1	n/a	n/a	6	44	Fixation	Win	True
424.169	0.3	Win2	0.6444	0.001	Yes	2.98	-0.001	2.0	GoodResponse	1	0.196	423.365	6	44	Target	Win	True
424.365	0.3	Win2	0.6444	0.001	Yes	2.98	-0.001	2.0	GoodResponse	1	0.196	n/a	6	44	ButtonPress	Win	True
424.468	0.4	Win2	0.6444	n/a	Yes	2.98	n/a	n/a	GoodResponse	1	n/a	n/a	6	44	Blank	Win	True
424.868	1.45	Win2	0.6444	n/a	Yes	2.98	n/a	5.0	GoodResponse	1	0.132	424.0	6	44	Feedback	Win	True
426.318	2.98	Win2	0.6444	n/a	Yes	2.98	n/a	n/a	GoodResponse	1	0.0	n/a	6	44	ISIslide	Win	True
429.317	0.25	Control	0.6522	0.0	Yes	2.883	0.017	n/a	GoodResponse	0	n/a	n/a	6	45	Cue	Neutral	True
429.567	4.1	Control	0.6522	0.0	Yes	2.883	0.0	n/a	GoodResponse	0	n/a	n/a	6	45	Fixation	Neutral	True
433.665	0.31	Control	0.6522	0.002	Yes	2.883	-0.002	2.0	GoodResponse	0	0.243	432.908	6	45	Target	Neutral	True
433.908	0.3	Control	0.6522	0.002	Yes	2.883	-0.002	2.0	GoodResponse	0	0.243	n/a	6	45	ButtonPress	Neutral	True
433.982	0.39	Control	0.6522	n/a	Yes	2.883	n/a	n/a	GoodResponse	0	n/a	n/a	6	45	Blank	Neutral	True
434.365	1.45	Control	0.6522	n/a	Yes	2.883	n/a	5.0	GoodResponse	0	0.635	434.0	6	45	Feedback	Neutral	True
435.815	2.883	Control	0.6522	n/a	Yes	2.883	n/a	n/a	GoodResponse	0	0.0	n/a	6	45	ISIslide	Neutral	True
438.73	0.25	Lose2	0.6596	0.0	Yes	3.37	0.03	n/a	GoodResponse	0	n/a	n/a	6	46	Cue	AvoidedLoss	True
438.98	4.0	Lose2	0.6596	0.0	Yes	3.37	0.0	n/a	GoodResponse	0	n/a	n/a	6	46	Fixation	AvoidedLoss	True
442.979	0.32	Lose2	0.6596	0.001	Yes	3.37	-0.001	2.0	GoodResponse	0	0.221	442.2	6	46	Target	AvoidedLoss	True
443.2	0.3	Lose2	0.6596	0.001	Yes	3.37	-0.001	2.0	GoodResponse	0	0.221	n/a	6	46	ButtonPress	AvoidedLoss	True
443.312	0.38	Lose2	0.6596	n/a	Yes	3.37	n/a	n/a	GoodResponse	0	n/a	n/a	6	46	Blank	AvoidedLoss	True
443.678	1.45	Lose2	0.6596	n/a	Yes	3.37	n/a	5.0	GoodResponse	0	1.321	443.999	6	46	Feedback	AvoidedLoss	True
445.128	3.37	Lose2	0.6596	n/a	Yes	3.37	n/a	n/a	GoodResponse	0	0.0	n/a	6	46	ISIslide	AvoidedLoss	True
448.527	0.25	Lose2	0.6667000000000001	0.0	Yes	2.673	0.027	n/a	GoodResponse	0	n/a	n/a	6	47	Cue	AvoidedLoss	True
448.777	4.0	Lose2	0.6667000000000001	0.0	Yes	2.673	0.0	n/a	GoodResponse	0	n/a	n/a	6	47	Fixation	AvoidedLoss	True
452.775	0.32	Lose2	0.6667000000000001	0.002	Yes	2.673	-0.002	2.0	GoodResponse	0	0.225	452.0	6	47	Target	AvoidedLoss	True
453	0.3	Lose2	0.6667000000000001	0.002	Yes	2.673	-0.002	2.0	GoodResponse	0	0.225	n/a	6	47	ButtonPress	AvoidedLoss	True
453.108	0.38	Lose2	0.6667000000000001	n/a	Yes	2.673	n/a	n/a	GoodResponse	0	n/a	n/a	6	47	Blank	AvoidedLoss	True
453.475	1.45	Lose2	0.6667000000000001	n/a	Yes	2.673	n/a	n/a	GoodResponse	0	n/a	n/a	6	47	Feedback	AvoidedLoss	True
454.925	2.673	Lose2	0.6667000000000001	n/a	Yes	2.673	n/a	n/a	GoodResponse	0	0.0	n/a	6	47	ISIslide	AvoidedLoss	True
457.624	0.25	Lose2	0.6735	0.0	Yes	3.026	0.024	n/a	GoodResponse	0	n/a	n/a	6	48	Cue	AvoidedLoss	True
457.873	3.95	Lose2	0.6735	0.001	Yes	3.026	-0.001	n/a	GoodResponse	0	n/a	n/a	6	48	Fixation	AvoidedLoss	True
461.822	0.31	Lose2	0.6735	0.002	Yes	3.026	-0.002	2.0	GoodResponse	0	0.222	461.044	6	48	Target	AvoidedLoss	True
462.044	0.3	Lose2	0.6735	0.002	Yes	3.026	-0.002	2.0	GoodResponse	0	0.222	n/a	6	48	ButtonPress	AvoidedLoss	True
462.139	0.39	Lose2	0.6735	n/a	Yes	3.026	n/a	n/a	GoodResponse	0	n/a	n/a	6	48	Blank	AvoidedLoss	True
462.522	1.45	Lose2	0.6735	n/a	Yes	3.026	n/a	5.0	GoodResponse	0	0.477	461.999	6	48	Feedback	AvoidedLoss	True
463.971	3.026	Lose2	0.6735	n/a	Yes	3.026	n/a	n/a	GoodResponse	0	0.0	n/a	6	48	ISIslide	AvoidedLoss	True
467.02	0.25	Control	0.68	0.0	Yes	2.88	0.02	n/a	GoodResponse	0	n/a	n/a	6	49	Cue	Neutral	True
467.27	4.0	Control	0.68	0.0	Yes	2.88	0.0	n/a	GoodResponse	0	n/a	n/a	6	49	Fixation	Neutral	True
471.269	0.3	Control	0.68	0.001	Yes	2.88	-0.001	2.0	GoodResponse	0	0.24	470.509	6	49	Target	Neutral	True
471.509	0.3	Control	0.68	0.001	Yes	2.88	-0.001	2.0	GoodResponse	0	0.24	n/a	6	49	ButtonPress	Neutral	True
471.569	0.4	Control	0.68	n/a	Yes	2.88	n/a	n/a	GoodResponse	0	n/a	n/a	6	49	Blank	Neutral	True
471.969	1.45	Control	0.68	n/a	Yes	2.88	n/a	5.0	GoodResponse	0	1.03	471.999	6	49	Feedback	Neutral	True
473.418	2.88	Control	0.68	n/a	Yes	2.88	n/a	n/a	GoodResponse	0	0.0	n/a	6	49	ISIslide	Neutral	True
476.317	0.25	Control	0.6667000000000001	0.0	No	2.783	0.017	n/a	NoResponse	0	n/a	n/a	6	50	Cue	Neutral	False
476.567	4.0	Control	0.6667000000000001	0.0	No	2.783	0.0	n/a	NoResponse	0	n/a	n/a	6	50	Fixation	Neutral	False
480.566	0.29	Control	0.6667000000000001	0.001	No	2.783	-0.001	n/a	NoResponse	0	n/a	n/a	6	50	Target	Neutral	False
480.865	0.41	Control	0.6667000000000001	n/a	No	2.783	n/a	n/a	NoResponse	0	n/a	n/a	6	50	Blank	Neutral	False
481.265	1.45	Control	0.6667000000000001	n/a	No	2.783	n/a	n/a	NoResponse	0	n/a	n/a	6	50	Feedback	Neutral	False
482.715	2.783	Control	0.6667000000000001	n/a	No	2.783	n/a	n/a	NoResponse	0	0.0	n/a	6	50	ISIslide	Neutral	False
485.514	0.25	Control	0.6731	0.0	Yes	2.736	0.014	n/a	GoodResponse	0	n/a	n/a	6	51	Cue	Neutral	True
485.764	3.95	Control	0.6731	0.0	Yes	2.736	0.0	n/a	GoodResponse	0	n/a	n/a	6	51	Fixation	Neutral	True
489.712	0.28	Control	0.6731	0.002	Yes	2.736	-0.002	2.0	GoodResponse	0	0.184	488.896	6	51	Target	Neutral	True
489.896	0.3	Control	0.6731	0.002	Yes	2.736	-0.002	2.0	GoodResponse	0	0.184	n/a	6	51	ButtonPress	Neutral	True
489.996	0.42	Control	0.6731	n/a	Yes	2.736	n/a	n/a	GoodResponse	0	n/a	n/a	6	51	Blank	Neutral	True
490.412	1.45	Control	0.6731	n/a	Yes	2.736	n/a	5.0	GoodResponse	0	0.587	489.999	6	51	Feedback	Neutral	True
491.862	2.736	Control	0.6731	n/a	Yes	2.736	n/a	n/a	GoodResponse	0	0.0	n/a	6	51	ISIslide	Neutral	True
494.627	0.25	Control	0.6792	0.0	Yes	2.623	0.027	n/a	GoodResponse	0	n/a	n/a	6	52	Cue	Neutral	True
494.877	4.05	Control	0.6792	0.0	Yes	2.623	0.0	n/a	GoodResponse	0	n/a	n/a	6	52	Fixation	Neutral	True
498.926	0.27	Control	0.6792	0.001	Yes	2.623	-0.001	2.0	GoodResponse	0	0.235	498.161	6	52	Target	Neutral	True
499.161	0.3	Control	0.6792	0.001	Yes	2.623	-0.001	2.0	GoodResponse	0	0.235	n/a	6	52	ButtonPress	Neutral	True
499.192	0.43	Control	0.6792	n/a	Yes	2.623	n/a	n/a	GoodResponse	0	n/a	n/a	6	52	Blank	Neutral	True
499.626	1.45	Control	0.6792	n/a	Yes	2.623	n/a	5.0	GoodResponse	0	1.373	499.999	6	52	Feedback	Neutral	True
501.075	2.623	Control	0.6792	n/a	Yes	2.623	n/a	n/a	GoodResponse	0	0.0	n/a	6	52	ISIslide	Neutral	True
503.724	0.25	Win2	0.6851999999999999	0.0	Yes	2.926	0.024	n/a	GoodResponse	1	n/a	n/a	7	53	Cue	Win	True
503.974	4.05	Win2	0.6851999999999999	0.0	Yes	2.926	0.0	n/a	GoodResponse	1	n/a	n/a	7	53	Fixation	Win	True
508.023	0.26	Win2	0.6851999999999999	0.001	Yes	2.926	-0.001	2.0	GoodResponse	1	0.254	507.277	7	53	Target	Win	True
508.277	0.3	Win2	0.6851999999999999	0.001	Yes	2.926	-0.001	2.0	GoodResponse	1	0.254	n/a	7	53	ButtonPress	Win	True
508.289	0.44	Win2	0.6851999999999999	n/a	Yes	2.926	n/a	n/a	GoodResponse	1	n/a	n/a	7	53	Blank	Win	True
508.722	1.45	Win2	0.6851999999999999	n/a	Yes	2.926	n/a	5.0	GoodResponse	1	0.277	507.999	7	53	Feedback	Win	True
510.172	2.926	Win2	0.6851999999999999	n/a	Yes	2.926	n/a	n/a	GoodResponse	1	0.0	n/a	7	53	ISIslide	Win	True
513.121	0.25	Win2	0.6909000000000001	0.0	Yes	2.729	0.021	n/a	GoodResponse	1	n/a	n/a	8	54	Cue	Win	True
513.371	3.95	Win2	0.6909000000000001	0.0	Yes	2.729	0.0	n/a	GoodResponse	1	n/a	n/a	8	54	Fixation	Win	True
517.319	0.25	Win2	0.6909000000000001	0.002	Yes	2.729	-0.002	2.0	GoodResponse	1	0.201	516.52	8	54	Target	Win	True
517.52	0.3	Win2	0.6909000000000001	0.002	Yes	2.729	-0.002	2.0	GoodResponse	1	0.201	n/a	8	54	ButtonPress	Win	True
517.569	0.45	Win2	0.6909000000000001	n/a	Yes	2.729	n/a	n/a	GoodResponse	1	n/a	n/a	8	54	Blank	Win	True
518.019	1.45	Win2	0.6909000000000001	n/a	Yes	2.729	n/a	5.0	GoodResponse	1	0.98	517.999	8	54	Feedback	Win	True
519.469	2.729	Win2	0.6909000000000001	n/a	Yes	2.729	n/a	n/a	GoodResponse	1	0.0	n/a	8	54	ISIslide	Win	True
522.218	0.25	Control	0.6964	0.0	Yes	3.032	0.018	n/a	GoodResponse	0	n/a	n/a	8	55	Cue	Neutral	True
522.468	3.95	Control	0.6964	0.0	Yes	3.032	0.0	n/a	GoodResponse	0	n/a	n/a	8	55	Fixation	Neutral	True
526.416	0.24	Control	0.6964	0.002	Yes	3.032	-0.002	2.0	GoodResponse	0	0.236	525.652	8	55	Target	Neutral	True
526.652	0.3	Control	0.6964	0.002	Yes	3.032	-0.002	2.0	GoodResponse	0	0.236	n/a	8	55	ButtonPress	Neutral	True
526.666	0.46	Control	0.6964	n/a	Yes	3.032	n/a	n/a	GoodResponse	0	n/a	n/a	8	55	Blank	Neutral	True
527.116	1.45	Control	0.6964	n/a	Yes	3.032	n/a	n/a	GoodResponse	0	n/a	n/a	8	55	Feedback	Neutral	True
528.566	3.032	Control	0.6964	n/a	Yes	3.032	n/a	n/a	GoodResponse	0	0.0	n/a	8	55	ISIslide	Neutral	True
531.614	0.25	Control	0.6842	0.001	No	2.836	0.014	n/a	NoResponse	0	n/a	n/a	8	56	Cue	Neutral	True
531.864	3.95	Control	0.6842	0.0	No	2.836	0.0	n/a	NoResponse	0	n/a	n/a	8	56	Fixation	Neutral	True
535.813	0.23	Control	0.6842	0.001	No	2.836	-0.001	2.0	NoResponse	0	0.242	535.055	8	56	Target	Neutral	True
536.046	0.47	Control	0.6842	n/a	No	2.836	n/a	n/a	NoResponse	0	n/a	n/a	8	56	Blank	Neutral	True
536.055	0.3	Control	0.6842	0.001	No	2.836	-0.001	2.0	NoResponse	0	0.242	n/a	8	56	ButtonPress	Neutral	True
536.513	1.45	Control	0.6842	n/a	No	2.836	n/a	5.0	NoResponse	0	0.486	535.999	8	56	Feedback	Neutral	True
537.962	2.836	Control	0.6842	n/a	No	2.836	n/a	n/a	NoResponse	0	0.0	n/a	8	56	ISIslide	Neutral	True
540.828	0.25	Control	0.6724	0.0	No	3.472	0.028	n/a	NoResponse	0	n/a	n/a	8	57	Cue	Neutral	True
541.078	4.0	Control	0.6724	0.0	No	3.472	0.0	n/a	NoResponse	0	n/a	n/a	8	57	Fixation	Neutral	True
545.076	0.22	Control	0.6724	0.002	No	3.472	-0.002	2.0	NoResponse	0	0.235	544.311	8	57	Target	Neutral	True
545.31	0.48	Control	0.6724	n/a	No	3.472	n/a	n/a	NoResponse	0	n/a	n/a	8	57	Blank	Neutral	True
545.311	0.3	Control	0.6724	0.002	No	3.472	-0.002	2.0	NoResponse	0	0.235	n/a	8	57	ButtonPress	Neutral	True
545.776	1.45	Control	0.6724	n/a	No	3.472	n/a	5.0	NoResponse	0	1.222	545.998	8	57	Feedback	Neutral	True
547.226	3.472	Control	0.6724	n/a	No	3.472	n/a	n/a	NoResponse	0	0.0	n/a	8	57	ISIslide	Neutral	True
550.724	0.25	Win2	0.6609999999999999	0.001	No	2.726	0.024	n/a	NoResponse	0	n/a	n/a	8	58	Cue	MissedWin	True
550.974	4.05	Win2	0.6609999999999999	0.0	No	2.726	0.0	n/a	NoResponse	0	n/a	n/a	8	58	Fixation	MissedWin	True
555.023	0.21	Win2	0.6609999999999999	0.001	No	2.726	-0.001	2.0	NoResponse	0	0.258	554.281	8	58	Target	MissedWin	True
555.24	0.49	Win2	0.6609999999999999	n/a	No	2.726	n/a	n/a	NoResponse	0	n/a	n/a	8	58	Blank	MissedWin	True
555.281	0.3	Win2	0.6609999999999999	0.001	No	2.726	-0.001	2.0	NoResponse	0	0.258	n/a	8	58	ButtonPress	MissedWin	True
555.723	1.45	Win2	0.6609999999999999	n/a	No	2.726	n/a	5.0	NoResponse	0	1.276	555.999	8	58	Feedback	MissedWin	True
557.172	2.726	Win2	0.6609999999999999	n/a	No	2.726	n/a	n/a	NoResponse	0	0.0	n/a	8	58	ISIslide	MissedWin	True
559.921	0.25	Lose2	0.6667000000000001	0.0	Yes	2.679	0.021	n/a	GoodResponse	0	n/a	n/a	8	59	Cue	AvoidedLoss	True
560.171	4.0	Lose2	0.6667000000000001	0.0	Yes	2.679	0.0	n/a	GoodResponse	0	n/a	n/a	8	59	Fixation	AvoidedLoss	True
564.17	0.21	Lose2	0.6667000000000001	0.001	Yes	2.679	-0.001	2.0	GoodResponse	0	0.206	563.376	8	59	Target	AvoidedLoss	True
564.376	0.3	Lose2	0.6667000000000001	0.001	Yes	2.679	-0.001	2.0	GoodResponse	0	0.206	n/a	8	59	ButtonPress	AvoidedLoss	True
564.386	0.49	Lose2	0.6667000000000001	n/a	Yes	2.679	n/a	n/a	GoodResponse	0	n/a	n/a	8	59	Blank	AvoidedLoss	True
564.869	1.45	Lose2	0.6667000000000001	n/a	Yes	2.679	n/a	5.0	GoodResponse	0	0.13	563.999	8	59	Feedback	AvoidedLoss	True
566.319	2.679	Lose2	0.6667000000000001	n/a	Yes	2.679	n/a	n/a	GoodResponse	0	0.0	n/a	8	59	ISIslide	AvoidedLoss	True
569.018	0.25	Control	0.6557	0.0	No	2.682	0.018	n/a	NoResponse	0	n/a	n/a	8	60	Cue	Neutral	True
569.268	4.0	Control	0.6557	0.0	No	2.682	0.0	n/a	NoResponse	0	n/a	n/a	8	60	Fixation	Neutral	True
573.267	0.2	Control	0.6557	0.001	No	2.682	-0.001	2.0	NoResponse	0	0.225	572.492	8	60	Target	Neutral	True
573.466	0.5	Control	0.6557	n/a	No	2.682	n/a	n/a	NoResponse	0	n/a	n/a	8	60	Blank	Neutral	True
573.492	0.3	Control	0.6557	0.001	No	2.682	-0.001	2.0	NoResponse	0	0.225	n/a	8	60	ButtonPress	Neutral	True
573.966	1.45	Control	0.6557	n/a	No	2.682	n/a	5.0	NoResponse	0	1.033	573.999	8	60	Feedback	Neutral	True
575.416	2.682	Control	0.6557	n/a	No	2.682	n/a	n/a	NoResponse	0	0.0	n/a	8	60	ISIslide	Neutral	True
578.115	0.25	Lose2	0.6452	0.0	No	2.985	0.015	n/a	NoResponse	-1	n/a	n/a	7	61	Cue	Loss	False
578.365	4.0	Lose2	0.6452	0.0	No	2.985	0.0	n/a	NoResponse	-1	n/a	n/a	7	61	Fixation	Loss	False
582.363	0.2	Lose2	0.6452	0.002	No	2.985	-0.002	n/a	NoResponse	-1	n/a	n/a	7	61	Target	Loss	False
582.563	0.5	Lose2	0.6452	n/a	No	2.985	n/a	n/a	NoResponse	-1	n/a	n/a	7	61	Blank	Loss	False
583.063	1.45	Lose2	0.6452	n/a	No	2.985	n/a	n/a	NoResponse	-1	n/a	n/a	7	61	Feedback	Loss	False
584.513	2.985	Lose2	0.6452	n/a	No	2.985	n/a	n/a	NoResponse	-1	0.0	n/a	7	61	ISIslide	Loss	False
587.528	0.25	Lose2	0.6349	0.0	No	2.872	0.028	n/a	LatePress	-1	n/a	n/a	6	62	Cue	Loss	True
587.778	3.9	Lose2	0.6349	0.0	No	2.872	0.0	n/a	LatePress	-1	n/a	n/a	6	62	Fixation	Loss	True
591.677	0.21	Lose2	0.6349	0.001	No	2.872	-0.001	2.0	LatePress	-1	0.214	590.891	6	62	Target	Loss	True
591.891	0.3	Lose2	0.6349	0.001	No	2.872	-0.001	2.0	LatePress	-1	0.214	n/a	6	62	ButtonPress	Loss	True
591.893	0.49	Lose2	0.6349	n/a	No	2.872	n/a	n/a	LatePress	-1	n/a	n/a	6	62	Blank	Loss	True
592.377	1.45	Lose2	0.6349	n/a	No	2.872	n/a	5.0	LatePress	-1	0.621	591.998	6	62	Feedback	Loss	True
593.826	2.872	Lose2	0.6349	n/a	No	2.872	n/a	n/a	LatePress	-1	0.0	n/a	6	62	ISIslide	Loss	True
596.725	0.25	Lose2	0.6406000000000001	0.0	Yes	2.625	0.025	n/a	GoodResponse	0	n/a	n/a	6	63	Cue	AvoidedLoss	True
596.975	4.05	Lose2	0.6406000000000001	0.0	Yes	2.625	0.0	n/a	GoodResponse	0	n/a	n/a	6	63	Fixation	AvoidedLoss	True
601.024	0.22	Lose2	0.6406000000000001	0.001	Yes	2.625	-0.001	2.0	GoodResponse	0	0.197	600.221	6	63	Target	AvoidedLoss	True
601.221	0.3	Lose2	0.6406000000000001	0.001	Yes	2.625	-0.001	2.0	GoodResponse	0	0.197	n/a	6	63	ButtonPress	AvoidedLoss	True
601.257	0.48	Lose2	0.6406000000000001	n/a	Yes	2.625	n/a	n/a	GoodResponse	0	n/a	n/a	6	63	Blank	AvoidedLoss	True
601.723	1.45	Lose2	0.6406000000000001	n/a	Yes	2.625	n/a	5.0	GoodResponse	0	1.275	601.998	6	63	Feedback	AvoidedLoss	True
603.173	2.625	Lose2	0.6406000000000001	n/a	Yes	2.625	n/a	n/a	GoodResponse	0	0.0	n/a	6	63	ISIslide	AvoidedLoss	True
605.822	0.25	Win2	0.6308	0.0	No	3.128	0.022	n/a	NoResponse	0	n/a	n/a	6	64	Cue	MissedWin	True
606.072	4.15	Win2	0.6308	0.0	No	3.128	0.0	n/a	NoResponse	0	n/a	n/a	6	64	Fixation	MissedWin	True
610.22	0.23	Win2	0.6308	0.002	No	3.128	-0.002	2.0	NoResponse	0	0.241	609.461	6	64	Target	MissedWin	True
610.454	0.47	Win2	0.6308	n/a	No	3.128	n/a	n/a	NoResponse	0	n/a	n/a	6	64	Blank	MissedWin	True
610.461	0.3	Win2	0.6308	0.002	No	3.128	-0.002	2.0	NoResponse	0	0.241	n/a	6	64	ButtonPress	MissedWin	True
610.92	1.45	Win2	0.6308	n/a	No	3.128	n/a	5.0	NoResponse	0	0.078	609.998	6	64	Feedback	MissedWin	True
612.37	3.128	Win2	0.6308	n/a	No	3.128	n/a	n/a	NoResponse	0	0.0	n/a	6	64	ISIslide	MissedWin	True
615.518	0.25	Control	0.6212	0.001	No	2.782	0.018	n/a	NoResponse	0	n/a	n/a	6	65	Cue	Neutral	True
615.768	4.0	Control	0.6212	0.0	No	2.782	0.0	n/a	NoResponse	0	n/a	n/a	6	65	Fixation	Neutral	True
619.767	0.24	Control	0.6212	0.001	No	2.782	-0.001	2.0	NoResponse	0	0.258	619.025	6	65	Target	Neutral	True
620.017	0.46	Control	0.6212	n/a	No	2.782	n/a	n/a	NoResponse	0	n/a	n/a	6	65	Blank	Neutral	True
620.025	0.3	Control	0.6212	0.001	No	2.782	-0.001	2.0	NoResponse	0	0.258	n/a	6	65	ButtonPress	Neutral	True
620.467	1.45	Control	0.6212	n/a	No	2.782	n/a	5.0	NoResponse	0	0.531	619.998	6	65	Feedback	Neutral	True
621.916	2.782	Control	0.6212	n/a	No	2.782	n/a	n/a	NoResponse	0	0.0	n/a	6	65	ISIslide	Neutral	True
624.715	0.25	Win2	0.6269	0.0	Yes	2.785	0.015	n/a	GoodResponse	1	n/a	n/a	7	66	Cue	Win	True
624.965	3.9	Win2	0.6269	0.0	Yes	2.785	0.0	n/a	GoodResponse	1	n/a	n/a	7	66	Fixation	Win	True
628.864	0.25	Win2	0.6269	0.001	Yes	2.785	-0.001	2.0	GoodResponse	1	0.21	628.074	7	66	Target	Win	True
629.074	0.3	Win2	0.6269	0.001	Yes	2.785	-0.001	2.0	GoodResponse	1	0.21	n/a	7	66	ButtonPress	Win	True
629.114	0.45	Win2	0.6269	n/a	Yes	2.785	n/a	n/a	GoodResponse	1	n/a	n/a	7	66	Blank	Win	True
629.564	1.45	Win2	0.6269	n/a	Yes	2.785	n/a	5.0	GoodResponse	1	1.434	629.998	7	66	Feedback	Win	True
631.013	2.785	Win2	0.6269	n/a	Yes	2.785	n/a	n/a	GoodResponse	1	0.0	n/a	7	66	ISIslide	Win	True
633.812	0.25	Control	0.6175999999999999	0.0	No	2.738	0.012	n/a	NoResponse	0	n/a	n/a	7	67	Cue	Neutral	False
634.062	3.95	Control	0.6175999999999999	0.0	No	2.738	0.0	2.0	NoResponse	0	3.031	636.093	7	67	Fixation	Neutral	False
637.093	0.3	Control	0.6175999999999999	0.0	No	2.738	0.0	2.0	NoResponse	0	3.031	n/a	7	67	ButtonPress	Neutral	False
638.011	0.26	Control	0.6175999999999999	0.001	No	2.738	-0.001	2.0	NoResponse	0	0.504	637.515	7	67	Target	Neutral	False
638.277	0.44	Control	0.6175999999999999	n/a	No	2.738	n/a	n/a	NoResponse	0	n/a	n/a	7	67	Blank	Neutral	False
638.515	0.3	Control	0.6175999999999999	0.001	No	2.738	-0.001	2.0	NoResponse	0	0.504	n/a	7	67	ButtonPress	Neutral	False
638.71	1.45	Control	0.6175999999999999	n/a	No	2.738	n/a	5.0	NoResponse	0	0.289	637.999	7	67	Feedback	Neutral	False
640.16	2.738	Control	0.6175999999999999	n/a	No	2.738	n/a	n/a	NoResponse	0	0.0	n/a	7	67	ISIslide	Neutral	False
642.926	0.25	Win2	0.6232	0.0	Yes	3.074	0.026	n/a	GoodResponse	1	n/a	n/a	8	68	Cue	Win	True
643.176	4.0	Win2	0.6232	0.0	Yes	3.074	0.0	n/a	GoodResponse	1	n/a	n/a	8	68	Fixation	Win	True
647.174	0.27	Win2	0.6232	0.002	Yes	3.074	-0.002	2.0	GoodResponse	1	0.17	646.344	8	68	Target	Win	True
647.344	0.3	Win2	0.6232	0.002	Yes	3.074	-0.002	2.0	GoodResponse	1	0.17	n/a	8	68	ButtonPress	Win	True
647.457	0.43	Win2	0.6232	n/a	Yes	3.074	n/a	n/a	GoodResponse	1	n/a	n/a	8	68	Blank	Win	True
647.874	1.45	Win2	0.6232	n/a	Yes	3.074	n/a	5.0	GoodResponse	1	1.124	647.998	8	68	Feedback	Win	True
649.323	3.074	Win2	0.6232	n/a	Yes	3.074	n/a	n/a	GoodResponse	1	0.0	n/a	8	68	ISIslide	Win	True
652.422	0.25	Win2	0.6286	0.0	Yes	3.228	0.022	n/a	GoodResponse	1	n/a	n/a	9	69	Cue	Win	True
652.672	3.95	Win2	0.6286	0.0	Yes	3.228	0.0	n/a	GoodResponse	1	n/a	n/a	9	69	Fixation	Win	True
656.621	0.28	Win2	0.6286	0.001	Yes	3.228	-0.001	2.0	GoodResponse	1	0.277	655.898	9	69	Target	Win	True
656.898	0.3	Win2	0.6286	0.001	Yes	3.228	-0.001	2.0	GoodResponse	1	0.277	n/a	9	69	ButtonPress	Win	True
656.904	0.42	Win2	0.6286	n/a	Yes	3.228	n/a	n/a	GoodResponse	1	n/a	n/a	9	69	Blank	Win	True
657.321	1.45	Win2	0.6286	n/a	Yes	3.228	n/a	n/a	GoodResponse	1	n/a	n/a	9	69	Feedback	Win	True
658.77	3.228	Win2	0.6286	n/a	Yes	3.228	n/a	n/a	GoodResponse	1	0.0	n/a	9	69	ISIslide	Win	True
662.019	0.25	Lose2	0.6338	0.0	Yes	3.031	0.019	n/a	GoodResponse	0	n/a	n/a	9	70	Cue	AvoidedLoss	True
662.269	4.05	Lose2	0.6338	0.0	Yes	3.031	0.0	n/a	GoodResponse	0	n/a	n/a	9	70	Fixation	AvoidedLoss	True
666.317	0.29	Lose2	0.6338	0.002	Yes	3.031	-0.002	2.0	GoodResponse	0	0.194	665.511	9	70	Target	AvoidedLoss	True
666.511	0.3	Lose2	0.6338	0.002	Yes	3.031	-0.002	2.0	GoodResponse	0	0.194	n/a	9	70	ButtonPress	AvoidedLoss	True
666.617	0.41	Lose2	0.6338	n/a	Yes	3.031	n/a	n/a	GoodResponse	0	n/a	n/a	9	70	Blank	AvoidedLoss	True
667.017	1.45	Lose2	0.6338	n/a	Yes	3.031	n/a	n/a	GoodResponse	0	n/a	n/a	9	70	Feedback	AvoidedLoss	True
668.467	3.031	Lose2	0.6338	n/a	Yes	3.031	n/a	n/a	GoodResponse	0	0.0	n/a	9	70	ISIslide	AvoidedLoss	True
671.516	0.25	Win2	0.625	0.0	No	2.734	0.016	n/a	NoResponse	0	n/a	n/a	9	71	Cue	MissedWin	True
671.766	4.05	Win2	0.625	0.0	No	2.734	0.0	n/a	NoResponse	0	n/a	n/a	9	71	Fixation	MissedWin	True
675.814	0.3	Win2	0.625	0.002	No	2.734	-0.002	2.0	NoResponse	0	0.318	675.132	9	71	Target	MissedWin	True
676.114	0.4	Win2	0.625	n/a	No	2.734	n/a	n/a	NoResponse	0	n/a	n/a	9	71	Blank	MissedWin	True
676.132	0.3	Win2	0.625	0.002	No	2.734	-0.002	2.0	NoResponse	0	0.318	n/a	9	71	ButtonPress	MissedWin	True
676.514	1.45	Win2	0.625	n/a	No	2.734	n/a	5.0	NoResponse	0	0.484	675.998	9	71	Feedback	MissedWin	True
677.963	2.734	Win2	0.625	n/a	No	2.734	n/a	n/a	NoResponse	0	0.0	n/a	9	71	ISIslide	MissedWin	True
680.729	0.25	Win2	0.6301	0.0	Yes	2.771	0.029	n/a	GoodResponse	1	n/a	n/a	10	72	Cue	Win	True
680.979	4.1	Win2	0.6301	0.0	Yes	2.771	0.0	n/a	GoodResponse	1	n/a	n/a	10	72	Fixation	Win	True
685.078	0.31	Win2	0.6301	0.001	Yes	2.771	-0.001	2.0	GoodResponse	1	0.22	684.298	10	72	Target	Win	True
685.298	0.3	Win2	0.6301	0.001	Yes	2.771	-0.001	2.0	GoodResponse	1	0.22	n/a	10	72	ButtonPress	Win	True
685.394	0.39	Win2	0.6301	n/a	Yes	2.771	n/a	n/a	GoodResponse	1	n/a	n/a	10	72	Blank	Win	True
685.777	1.45	Win2	0.6301	n/a	Yes	2.771	n/a	5.0	GoodResponse	1	1.221	685.998	10	72	Feedback	Win	True
687.227	2.771	Win2	0.6301	n/a	Yes	2.771	n/a	n/a	GoodResponse	1	0.0	n/a	10	72	ISIslide	Win	True
690.026	0.25	Win2	0.6351	0.0	Yes	2.674	0.026	n/a	GoodResponse	1	n/a	n/a	11	73	Cue	Win	True
690.276	4.0	Win2	0.6351	0.0	Yes	2.674	0.0	n/a	GoodResponse	1	n/a	n/a	11	73	Fixation	Win	True
694.274	0.32	Win2	0.6351	0.002	Yes	2.674	-0.002	2.0	GoodResponse	1	0.245	693.519	11	73	Target	Win	True
694.519	0.3	Win2	0.6351	0.002	Yes	2.674	-0.002	2.0	GoodResponse	1	0.245	n/a	11	73	ButtonPress	Win	True
694.608	0.38	Win2	0.6351	n/a	Yes	2.674	n/a	n/a	GoodResponse	1	n/a	n/a	11	73	Blank	Win	True
694.974	1.45	Win2	0.6351	n/a	Yes	2.674	n/a	5.0	GoodResponse	1	0.023	693.997	11	73	Feedback	Win	True
696.424	2.674	Win2	0.6351	n/a	Yes	2.674	n/a	n/a	GoodResponse	1	0.0	n/a	11	73	ISIslide	Win	True
699.123	0.25	Lose2	0.64	0.0	Yes	2.627	0.023	n/a	GoodResponse	0	n/a	n/a	11	74	Cue	AvoidedLoss	True
699.373	4.05	Lose2	0.64	0.0	Yes	2.627	0.0	n/a	GoodResponse	0	n/a	n/a	11	74	Fixation	AvoidedLoss	True
703.421	0.33	Lose2	0.64	0.002	Yes	2.627	-0.002	2.0	GoodResponse	0	0.195	702.616	11	74	Target	AvoidedLoss	True
703.616	0.3	Lose2	0.64	0.002	Yes	2.627	-0.002	2.0	GoodResponse	0	0.195	n/a	11	74	ButtonPress	AvoidedLoss	True
703.754	0.37	Lose2	0.64	n/a	Yes	2.627	n/a	n/a	GoodResponse	0	n/a	n/a	11	74	Blank	AvoidedLoss	True
704.121	1.45	Lose2	0.64	n/a	Yes	2.627	n/a	5.0	GoodResponse	0	0.876	703.997	11	74	Feedback	AvoidedLoss	True
705.57	2.627	Lose2	0.64	n/a	Yes	2.627	n/a	n/a	GoodResponse	0	0.0	n/a	11	74	ISIslide	AvoidedLoss	True
708.219	0.25	Lose2	0.6446999999999999	0.001	Yes	2.931	0.019	n/a	GoodResponse	0	n/a	n/a	11	75	Cue	AvoidedLoss	True
708.469	3.95	Lose2	0.6446999999999999	0.0	Yes	2.931	0.0	n/a	GoodResponse	0	n/a	n/a	11	75	Fixation	AvoidedLoss	True
712.418	0.34	Lose2	0.6446999999999999	0.001	Yes	2.931	-0.001	2.0	GoodResponse	0	0.287	711.705	11	75	Target	AvoidedLoss	True
712.705	0.3	Lose2	0.6446999999999999	0.001	Yes	2.931	-0.001	2.0	GoodResponse	0	0.287	n/a	11	75	ButtonPress	AvoidedLoss	True
712.768	0.36	Lose2	0.6446999999999999	n/a	Yes	2.931	n/a	n/a	GoodResponse	0	n/a	n/a	11	75	Blank	AvoidedLoss	True
713.118	1.45	Lose2	0.6446999999999999	n/a	Yes	2.931	n/a	n/a	GoodResponse	0	n/a	n/a	11	75	Feedback	AvoidedLoss	True
714.567	2.931	Lose2	0.6446999999999999	n/a	Yes	2.931	n/a	n/a	GoodResponse	0	0.0	n/a	11	75	ISIslide	AvoidedLoss	True
717.516	0.25	Control	0.6494	0.0	Yes	3.234	0.016	n/a	GoodResponse	0	n/a	n/a	11	76	Cue	Neutral	True
717.766	4.05	Control	0.6494	0.0	Yes	3.234	0.0	n/a	GoodResponse	0	n/a	n/a	11	76	Fixation	Neutral	True
721.815	0.35	Control	0.6494	0.001	Yes	3.234	-0.001	2.0	GoodResponse	0	0.227	721.042	11	76	Target	Neutral	True
722.042	0.3	Control	0.6494	0.001	Yes	3.234	-0.001	2.0	GoodResponse	0	0.227	n/a	11	76	ButtonPress	Neutral	True
722.165	0.35	Control	0.6494	n/a	Yes	3.234	n/a	n/a	GoodResponse	0	n/a	n/a	11	76	Blank	Neutral	True
722.515	1.45	Control	0.6494	n/a	Yes	3.234	n/a	5.0	GoodResponse	0	0.483	721.998	11	76	Feedback	Neutral	True
723.964	3.234	Control	0.6494	n/a	Yes	3.234	n/a	n/a	GoodResponse	0	0.0	n/a	11	76	ISIslide	Neutral	True
727.213	0.25	Lose2	0.6537999999999999	0.0	Yes	2.587	0.013	n/a	GoodResponse	0	n/a	n/a	11	77	Cue	AvoidedLoss	True
727.463	3.95	Lose2	0.6537999999999999	0.0	Yes	2.587	0.0	n/a	GoodResponse	0	n/a	n/a	11	77	Fixation	AvoidedLoss	True
731.411	0.36	Lose2	0.6537999999999999	0.002	Yes	2.587	-0.002	2.0	GoodResponse	0	0.248	730.659	11	77	Target	AvoidedLoss	True
731.659	0.3	Lose2	0.6537999999999999	0.002	Yes	2.587	-0.002	2.0	GoodResponse	0	0.248	n/a	11	77	ButtonPress	AvoidedLoss	True
731.778	0.34	Lose2	0.6537999999999999	n/a	Yes	2.587	n/a	n/a	GoodResponse	0	n/a	n/a	11	77	Blank	AvoidedLoss	True
732.111	1.45	Lose2	0.6537999999999999	n/a	Yes	2.587	n/a	n/a	GoodResponse	0	n/a	n/a	11	77	Feedback	AvoidedLoss	True
733.561	2.587	Lose2	0.6537999999999999	n/a	Yes	2.587	n/a	n/a	GoodResponse	0	0.0	n/a	11	77	ISIslide	AvoidedLoss	True
