onset	duration	cue_type	current_mean_accuracy	duration_error	is_hit	isi_adjusted	onset_delay	response	response_type	reward	rt	rt_time	total_reward	trial_number	trial_phase	trial_type	one_press
11.11	0.25	Control	1.0	0.0	Yes	2.94	0.01	n/a	GoodResponse	0	n/a	n/a	0	0	Cue	Neutral	True
11.361	3.85	Control	1.0	0.0	Yes	2.94	0.001	n/a	GoodResponse	0	n/a	n/a	0	0	Fixation	Neutral	True
15.206	0.4	Control	1.0	0.004	Yes	2.94	-0.004	2.0	GoodResponse	0	0.198	14.404	0	0	Target	Neutral	True
15.404	0.3	Control	1.0	0.004	Yes	2.94	-0.004	2.0	GoodResponse	0	0.198	n/a	0	0	ButtonPress	Neutral	True
15.607	0.3	Control	1.0	n/a	Yes	2.94	n/a	n/a	GoodResponse	0	n/a	n/a	0	0	Blank	Neutral	True
15.908	1.45	Control	1.0	n/a	Yes	2.94	n/a	5.0	GoodResponse	0	0.019	14.927	0	0	Feedback	Neutral	True
17.362	2.94	Control	1.0	n/a	Yes	2.94	n/a	n/a	GoodResponse	0	0.0	n/a	0	0	ISIslide	Neutral	True
20.321	0.25	Lose2	1.0	0.0	Yes	2.779	0.021	n/a	GoodResponse	0	n/a	n/a	0	1	Cue	AvoidedLoss	True
20.572	4.0	Lose2	1.0	0.0	Yes	2.779	0.001	n/a	GoodResponse	0	n/a	n/a	0	1	Fixation	AvoidedLoss	True
24.567	0.39	Lose2	1.0	0.004	Yes	2.779	-0.004	2.0	GoodResponse	0	0.239	23.806	0	1	Target	AvoidedLoss	True
24.806	0.3	Lose2	1.0	0.004	Yes	2.779	-0.004	2.0	GoodResponse	0	0.239	n/a	0	1	ButtonPress	AvoidedLoss	True
24.968	0.31	Lose2	1.0	n/a	Yes	2.779	n/a	n/a	GoodResponse	0	n/a	n/a	0	1	Blank	AvoidedLoss	True
25.269	1.45	Lose2	1.0	n/a	Yes	2.779	n/a	5.0	GoodResponse	0	0.024	24.293	0	1	Feedback	AvoidedLoss	True
26.723	2.779	Lose2	1.0	n/a	Yes	2.779	n/a	n/a	GoodResponse	0	0.0	n/a	0	1	ISIslide	AvoidedLoss	True
29.515	0.25	Control	1.0	0.0	Yes	2.585	0.015	n/a	GoodResponse	0	n/a	n/a	0	2	Cue	Neutral	True
29.766	4.1	Control	1.0	0.0	Yes	2.585	0.001	n/a	GoodResponse	0	n/a	n/a	0	2	Fixation	Neutral	True
33.861	0.38	Control	1.0	0.004	Yes	2.585	-0.004	2.0	GoodResponse	0	0.166	33.027	0	2	Target	Neutral	True
34.027	0.3	Control	1.0	0.004	Yes	2.585	-0.004	2.0	GoodResponse	0	0.166	n/a	0	2	ButtonPress	Neutral	True
34.246	0.32	Control	1.0	n/a	Yes	2.585	n/a	n/a	GoodResponse	0	n/a	n/a	0	2	Blank	Neutral	True
34.563	1.45	Control	1.0	n/a	Yes	2.585	n/a	5.0	GoodResponse	0	0.046	33.609	0	2	Feedback	Neutral	True
36.018	2.585	Control	1.0	n/a	Yes	2.585	n/a	n/a	GoodResponse	0	0.0	n/a	0	2	ISIslide	Neutral	True
38.625	0.25	Win2	1.0	0.0	Yes	2.825	0.025	n/a	GoodResponse	1	n/a	n/a	1	3	Cue	Win	True
38.876	3.95	Win2	1.0	0.0	Yes	2.825	0.001	n/a	GoodResponse	1	n/a	n/a	1	3	Fixation	Win	True
42.821	0.37	Win2	1.0	0.004	Yes	2.825	-0.004	2.0	GoodResponse	1	0.21	42.031	1	3	Target	Win	True
43.031	0.3	Win2	1.0	0.004	Yes	2.825	-0.004	2.0	GoodResponse	1	0.21	n/a	1	3	ButtonPress	Win	True
43.206	0.33	Win2	1.0	n/a	Yes	2.825	n/a	n/a	GoodResponse	1	n/a	n/a	1	3	Blank	Win	True
43.523	1.45	Win2	1.0	n/a	Yes	2.825	n/a	5.0	GoodResponse	1	0.013	42.536	1	3	Feedback	Win	True
44.978	2.825	Win2	1.0	n/a	Yes	2.825	n/a	n/a	GoodResponse	1	0.0	n/a	1	3	ISIslide	Win	True
47.819	0.25	Win2	1.0	0.001	Yes	3.281	0.019	n/a	GoodResponse	1	n/a	n/a	2	4	Cue	Win	True
48.07	4.0	Win2	1.0	0.0	Yes	3.281	0.001	n/a	GoodResponse	1	n/a	n/a	2	4	Fixation	Win	True
52.065	0.36	Win2	1.0	0.004	Yes	3.281	-0.004	2.0	GoodResponse	1	0.229	51.294	2	4	Target	Win	True
52.294	0.3	Win2	1.0	0.004	Yes	3.281	-0.004	2.0	GoodResponse	1	0.229	n/a	2	4	ButtonPress	Win	True
52.433	0.34	Win2	1.0	n/a	Yes	3.281	n/a	n/a	GoodResponse	1	n/a	n/a	2	4	Blank	Win	True
52.768	1.45	Win2	1.0	n/a	Yes	3.281	n/a	5.0	GoodResponse	1	0.036	51.804	2	4	Feedback	Win	True
54.222	3.281	Win2	1.0	n/a	Yes	3.281	n/a	n/a	GoodResponse	1	0.0	n/a	2	4	ISIslide	Win	True
57.515	0.25	Win2	1.0	0.0	Yes	2.785	0.015	n/a	GoodResponse	1	n/a	n/a	3	5	Cue	Win	True
57.766	4.0	Win2	1.0	0.0	Yes	2.785	0.001	n/a	GoodResponse	1	n/a	n/a	3	5	Fixation	Win	True
61.761	0.35	Win2	1.0	0.004	Yes	2.785	-0.004	2.0	GoodResponse	1	0.195	60.956	3	5	Target	Win	True
61.956	0.3	Win2	1.0	0.004	Yes	2.785	-0.004	2.0	GoodResponse	1	0.195	n/a	3	5	ButtonPress	Win	True
62.112	0.35	Win2	1.0	n/a	Yes	2.785	n/a	n/a	GoodResponse	1	n/a	n/a	3	5	Blank	Win	True
62.463	1.45	Win2	1.0	n/a	Yes	2.785	n/a	5.0	GoodResponse	1	0.048	61.511	3	5	Feedback	Win	True
63.918	2.785	Win2	1.0	n/a	Yes	2.785	n/a	n/a	GoodResponse	1	0.0	n/a	3	5	ISIslide	Win	True
66.726	0.25	Lose2	0.8571	0.0	No	2.724	0.026	n/a	NoResponse	-1	n/a	n/a	2	6	Cue	Loss	True
66.977	3.95	Lose2	0.8571	0.0	No	2.724	0.001	n/a	NoResponse	-1	n/a	n/a	2	6	Fixation	Loss	True
70.922	0.34	Lose2	0.8571	0.004	No	2.724	-0.004	2.0	NoResponse	-1	0.374	70.296	2	6	Target	Loss	True
71.273	0.36	Lose2	0.8571	n/a	No	2.724	n/a	n/a	NoResponse	-1	n/a	n/a	2	6	Blank	Loss	True
71.296	0.3	Lose2	0.8571	0.004	No	2.724	-0.004	2.0	NoResponse	-1	0.374	n/a	2	6	ButtonPress	Loss	True
71.624	1.45	Lose2	0.8571	n/a	No	2.724	n/a	5.0	NoResponse	-1	0.008	70.632	2	6	Feedback	Loss	True
73.078	2.724	Lose2	0.8571	n/a	No	2.724	n/a	n/a	NoResponse	-1	0.0	n/a	2	6	ISIslide	Loss	True
75.82	0.25	Lose2	0.875	0.0	Yes	4.03	0.02	n/a	GoodResponse	0	n/a	n/a	2	7	Cue	AvoidedLoss	True
76.07	4.05	Lose2	0.875	0.001	Yes	4.03	0.0	n/a	GoodResponse	0	n/a	n/a	2	7	Fixation	AvoidedLoss	True
80.116	0.33	Lose2	0.875	0.004	Yes	4.03	-0.004	2.0	GoodResponse	0	0.188	79.304	2	7	Target	AvoidedLoss	True
80.304	0.3	Lose2	0.875	0.004	Yes	4.03	-0.004	2.0	GoodResponse	0	0.188	n/a	2	7	ButtonPress	AvoidedLoss	True
80.45	0.37	Lose2	0.875	n/a	Yes	4.03	n/a	n/a	GoodResponse	0	n/a	n/a	2	7	Blank	AvoidedLoss	True
80.818	1.45	Lose2	0.875	n/a	Yes	4.03	n/a	5.0	GoodResponse	0	0.034	79.852	2	7	Feedback	AvoidedLoss	True
82.272	4.03	Lose2	0.875	n/a	Yes	4.03	n/a	n/a	GoodResponse	0	0.0	n/a	2	7	ISIslide	AvoidedLoss	True
86.318	0.25	Lose2	0.8889	0.0	Yes	3.032	0.018	n/a	GoodResponse	0	n/a	n/a	2	8	Cue	AvoidedLoss	True
86.568	3.95	Lose2	0.8889	0.0	Yes	3.032	0.0	n/a	GoodResponse	0	n/a	n/a	2	8	Fixation	AvoidedLoss	True
90.514	0.32	Lose2	0.8889	0.004	Yes	3.032	-0.004	2.0	GoodResponse	0	0.216	89.73	2	8	Target	AvoidedLoss	True
90.73	0.3	Lose2	0.8889	0.004	Yes	3.032	-0.004	2.0	GoodResponse	0	0.216	n/a	2	8	ButtonPress	AvoidedLoss	True
90.848	0.38	Lose2	0.8889	n/a	Yes	3.032	n/a	n/a	GoodResponse	0	n/a	n/a	2	8	Blank	AvoidedLoss	True
91.216	1.45	Lose2	0.8889	n/a	Yes	3.032	n/a	5.0	GoodResponse	0	0.026	90.242	2	8	Feedback	AvoidedLoss	True
92.67	3.032	Lose2	0.8889	n/a	Yes	3.032	n/a	n/a	GoodResponse	0	0.0	n/a	2	8	ISIslide	AvoidedLoss	True
95.729	0.25	Lose2	0.9	0.0	Yes	3.121	0.029	n/a	GoodResponse	0	n/a	n/a	2	9	Cue	AvoidedLoss	True
95.98	3.95	Lose2	0.9	0.0	Yes	3.121	0.001	n/a	GoodResponse	0	n/a	n/a	2	9	Fixation	AvoidedLoss	True
99.925	0.31	Lose2	0.9	0.004	Yes	3.121	-0.004	2.0	GoodResponse	0	0.182	99.107	2	9	Target	AvoidedLoss	True
100.107	0.3	Lose2	0.9	0.004	Yes	3.121	-0.004	2.0	GoodResponse	0	0.182	n/a	2	9	ButtonPress	AvoidedLoss	True
100.243	0.39	Lose2	0.9	n/a	Yes	3.121	n/a	n/a	GoodResponse	0	n/a	n/a	2	9	Blank	AvoidedLoss	True
100.627	1.45	Lose2	0.9	n/a	Yes	3.121	n/a	5.0	GoodResponse	0	0.029	99.656	2	9	Feedback	AvoidedLoss	True
102.081	3.121	Lose2	0.9	n/a	Yes	3.121	n/a	n/a	GoodResponse	0	0.0	n/a	2	9	ISIslide	AvoidedLoss	True
105.224	0.25	Control	0.9091	0.0	Yes	3.276	0.024	n/a	GoodResponse	0	n/a	n/a	2	10	Cue	Neutral	True
105.475	4.0	Control	0.9091	0.0	Yes	3.276	0.001	n/a	GoodResponse	0	n/a	n/a	2	10	Fixation	Neutral	True
109.47	0.3	Control	0.9091	0.004	Yes	3.276	-0.004	2.0	GoodResponse	0	0.248	108.718	2	10	Target	Neutral	True
109.718	0.3	Control	0.9091	0.004	Yes	3.276	-0.004	2.0	GoodResponse	0	0.248	n/a	2	10	ButtonPress	Neutral	True
109.771	0.4	Control	0.9091	n/a	Yes	3.276	n/a	n/a	GoodResponse	0	n/a	n/a	2	10	Blank	Neutral	True
110.172	1.45	Control	0.9091	n/a	Yes	3.276	n/a	5.0	GoodResponse	0	0.045	109.217	2	10	Feedback	Neutral	True
111.626	3.276	Control	0.9091	n/a	Yes	3.276	n/a	n/a	GoodResponse	0	0.0	n/a	2	10	ISIslide	Neutral	True
114.92	0.25	Lose2	0.9167000000000001	0.0	Yes	2.73	0.02	n/a	GoodResponse	0	n/a	n/a	2	11	Cue	AvoidedLoss	True
115.17	4.05	Lose2	0.9167000000000001	0.0	Yes	2.73	0.0	n/a	GoodResponse	0	n/a	n/a	2	11	Fixation	AvoidedLoss	True
119.216	0.29	Lose2	0.9167000000000001	0.004	Yes	2.73	-0.004	2.0	GoodResponse	0	0.218	118.434	2	11	Target	AvoidedLoss	True
119.434	0.3	Lose2	0.9167000000000001	0.004	Yes	2.73	-0.004	2.0	GoodResponse	0	0.218	n/a	2	11	ButtonPress	AvoidedLoss	True
119.517	0.41	Lose2	0.9167000000000001	n/a	Yes	2.73	n/a	n/a	GoodResponse	0	n/a	n/a	2	11	Blank	AvoidedLoss	True
119.918	1.45	Lose2	0.9167000000000001	n/a	Yes	2.73	n/a	5.0	GoodResponse	0	0.007	118.925	2	11	Feedback	AvoidedLoss	True
121.372	2.73	Lose2	0.9167000000000001	n/a	Yes	2.73	n/a	n/a	GoodResponse	0	0.0	n/a	2	11	ISIslide	AvoidedLoss	True
124.114	0.25	Control	0.9231	0.0	Yes	2.986	0.014	n/a	GoodResponse	0	n/a	n/a	2	12	Cue	Neutral	True
124.364	3.9	Control	0.9231	0.001	Yes	2.986	0.0	n/a	GoodResponse	0	n/a	n/a	2	12	Fixation	Neutral	True
128.276	0.28	Control	0.9231	0.0	Yes	2.986	0.012	2.0	GoodResponse	0	0.255	127.531	2	12	Target	Neutral	True
128.531	0.3	Control	0.9231	0.0	Yes	2.986	0.012	2.0	GoodResponse	0	0.255	n/a	2	12	ButtonPress	Neutral	True
128.544	0.42	Control	0.9231	n/a	Yes	2.986	n/a	n/a	GoodResponse	0	n/a	n/a	2	12	Blank	Neutral	True
128.962	1.45	Control	0.9231	n/a	Yes	2.986	n/a	5.0	GoodResponse	0	0.036	127.998	2	12	Feedback	Neutral	True
130.416	2.986	Control	0.9231	n/a	Yes	2.986	n/a	n/a	GoodResponse	0	0.0	n/a	2	12	ISIslide	Neutral	True
133.425	0.25	Control	0.9286	0.0	Yes	2.775	0.025	n/a	GoodResponse	0	n/a	n/a	2	13	Cue	Neutral	True
133.676	4.0	Control	0.9286	0.0	Yes	2.775	0.001	n/a	GoodResponse	0	n/a	n/a	2	13	Fixation	Neutral	True
137.671	0.27	Control	0.9286	0.004	Yes	2.775	-0.004	2.0	GoodResponse	0	0.182	136.853	2	13	Target	Neutral	True
137.853	0.3	Control	0.9286	0.004	Yes	2.775	-0.004	2.0	GoodResponse	0	0.182	n/a	2	13	ButtonPress	Neutral	True
137.955	0.43	Control	0.9286	n/a	Yes	2.775	n/a	n/a	GoodResponse	0	n/a	n/a	2	13	Blank	Neutral	True
138.373	1.45	Control	0.9286	n/a	Yes	2.775	n/a	5.0	GoodResponse	0	0.039	137.412	2	13	Feedback	Neutral	True
139.827	2.775	Control	0.9286	n/a	Yes	2.775	n/a	n/a	GoodResponse	0	0.0	n/a	2	13	ISIslide	Neutral	True
142.619	0.25	Win2	0.9333	0.0	Yes	2.681	0.019	n/a	GoodResponse	1	n/a	n/a	3	14	Cue	Win	True
142.87	4.1	Win2	0.9333	0.0	Yes	2.681	0.001	n/a	GoodResponse	1	n/a	n/a	3	14	Fixation	Win	True
146.965	0.26	Win2	0.9333	0.004	Yes	2.681	-0.004	2.0	GoodResponse	1	0.201	146.166	3	14	Target	Win	True
147.166	0.3	Win2	0.9333	0.004	Yes	2.681	-0.004	2.0	GoodResponse	1	0.201	n/a	3	14	ButtonPress	Win	True
147.233	0.44	Win2	0.9333	n/a	Yes	2.681	n/a	n/a	GoodResponse	1	n/a	n/a	3	14	Blank	Win	True
147.667	1.45	Win2	0.9333	n/a	Yes	2.681	n/a	5.0	GoodResponse	1	0.013	146.68	3	14	Feedback	Win	True
149.122	2.681	Win2	0.9333	n/a	Yes	2.681	n/a	n/a	GoodResponse	1	0.0	n/a	3	14	ISIslide	Win	True
151.813	0.25	Control	0.9375	0.0	Yes	2.987	0.013	n/a	GoodResponse	0	n/a	n/a	3	15	Cue	Neutral	True
152.064	4.0	Control	0.9375	0.0	Yes	2.987	0.001	n/a	GoodResponse	0	n/a	n/a	3	15	Fixation	Neutral	True
156.059	0.25	Control	0.9375	0.004	Yes	2.987	-0.004	2.0	GoodResponse	0	0.197	155.256	3	15	Target	Neutral	True
156.256	0.3	Control	0.9375	0.004	Yes	2.987	-0.004	2.0	GoodResponse	0	0.197	n/a	3	15	ButtonPress	Neutral	True
156.31	0.45	Control	0.9375	n/a	Yes	2.987	n/a	n/a	GoodResponse	0	n/a	n/a	3	15	Blank	Neutral	True
156.761	1.45	Control	0.9375	n/a	Yes	2.987	n/a	5.0	GoodResponse	0	0.041	155.802	3	15	Feedback	Neutral	True
158.215	2.987	Control	0.9375	n/a	Yes	2.987	n/a	n/a	GoodResponse	0	0.0	n/a	3	15	ISIslide	Neutral	True
161.224	0.25	Win2	0.9412	0.001	Yes	2.876	0.024	n/a	GoodResponse	1	n/a	n/a	4	16	Cue	Win	True
161.475	4.0	Win2	0.9412	0.0	Yes	2.876	0.001	n/a	GoodResponse	1	n/a	n/a	4	16	Fixation	Win	True
165.47	0.24	Win2	0.9412	0.004	Yes	2.876	-0.004	2.0	GoodResponse	1	0.182	164.652	4	16	Target	Win	True
165.652	0.3	Win2	0.9412	0.004	Yes	2.876	-0.004	2.0	GoodResponse	1	0.182	n/a	4	16	ButtonPress	Win	True
165.721	0.46	Win2	0.9412	n/a	Yes	2.876	n/a	n/a	GoodResponse	1	n/a	n/a	4	16	Blank	Win	True
166.173	1.45	Win2	0.9412	n/a	Yes	2.876	n/a	5.0	GoodResponse	1	0.043	165.216	4	16	Feedback	Win	True
167.627	2.876	Win2	0.9412	n/a	Yes	2.876	n/a	n/a	GoodResponse	1	0.0	n/a	4	16	ISIslide	Win	True
170.519	0.25	Lose2	0.9444	0.0	Yes	2.731	0.019	n/a	GoodResponse	0	n/a	n/a	4	17	Cue	AvoidedLoss	True
170.77	3.95	Lose2	0.9444	0.0	Yes	2.731	0.001	n/a	GoodResponse	0	n/a	n/a	4	17	Fixation	AvoidedLoss	True
174.715	0.23	Lose2	0.9444	0.004	Yes	2.731	-0.004	2.0	GoodResponse	0	0.221	173.936	4	17	Target	AvoidedLoss	True
174.936	0.3	Lose2	0.9444	0.004	Yes	2.731	-0.004	2.0	GoodResponse	0	0.221	n/a	4	17	ButtonPress	AvoidedLoss	True
174.949	0.47	Lose2	0.9444	n/a	Yes	2.731	n/a	n/a	GoodResponse	0	n/a	n/a	4	17	Blank	AvoidedLoss	True
175.417	1.45	Lose2	0.9444	n/a	Yes	2.731	n/a	5.0	GoodResponse	0	0.018	174.435	4	17	Feedback	AvoidedLoss	True
176.871	2.731	Lose2	0.9444	n/a	Yes	2.731	n/a	n/a	GoodResponse	0	0.0	n/a	4	17	ISIslide	AvoidedLoss	True
179.629	0.25	Lose2	0.8946999999999999	0.0	No	2.721	0.029	n/a	LatePress	-1	n/a	n/a	3	18	Cue	Loss	True
179.88	4.05	Lose2	0.8946999999999999	0.0	No	2.721	0.001	n/a	LatePress	-1	n/a	n/a	3	18	Fixation	Loss	True
183.925	0.22	Lose2	0.8946999999999999	0.004	No	2.721	-0.004	2.0	LatePress	-1	0.22	183.145	3	18	Target	Loss	True
184.145	0.3	Lose2	0.8946999999999999	0.004	No	2.721	-0.004	2.0	LatePress	-1	0.22	n/a	3	18	ButtonPress	Loss	True
184.16	0.48	Lose2	0.8946999999999999	n/a	No	2.721	n/a	n/a	LatePress	-1	n/a	n/a	3	18	Blank	Loss	True
184.628	1.45	Lose2	0.8946999999999999	n/a	No	2.721	n/a	5.0	LatePress	-1	0.027	183.655	3	18	Feedback	Loss	True
186.082	2.721	Lose2	0.8946999999999999	n/a	No	2.721	n/a	n/a	LatePress	-1	0.0	n/a	3	18	ISIslide	Loss	True
188.823	0.25	Control	0.9	0.001	Yes	2.927	0.023	n/a	GoodResponse	0	n/a	n/a	3	19	Cue	Neutral	True
189.074	3.95	Control	0.9	0.0	Yes	2.927	0.001	n/a	GoodResponse	0	n/a	n/a	3	19	Fixation	Neutral	True
193.019	0.21	Control	0.9	0.004	Yes	2.927	-0.004	2.0	GoodResponse	0	0.194	192.213	3	19	Target	Neutral	True
193.213	0.3	Control	0.9	0.004	Yes	2.927	-0.004	2.0	GoodResponse	0	0.194	n/a	3	19	ButtonPress	Neutral	True
193.237	0.49	Control	0.9	n/a	Yes	2.927	n/a	n/a	GoodResponse	0	n/a	n/a	3	19	Blank	Neutral	True
193.721	1.45	Control	0.9	n/a	Yes	2.927	n/a	5.0	GoodResponse	0	0.007	192.728	3	19	Feedback	Neutral	True
195.176	2.927	Control	0.9	n/a	Yes	2.927	n/a	n/a	GoodResponse	0	0.0	n/a	3	19	ISIslide	Neutral	True
198.118	0.25	Control	0.8571	0.0	No	2.632	0.018	n/a	NoResponse	0	n/a	n/a	3	20	Cue	Neutral	True
198.369	4.05	Control	0.8571	0.0	No	2.632	0.001	n/a	NoResponse	0	n/a	n/a	3	20	Fixation	Neutral	True
202.414	0.2	Control	0.8571	0.004	No	2.632	-0.004	2.0	NoResponse	0	0.269	201.683	3	20	Target	Neutral	True
202.615	0.5	Control	0.8571	n/a	No	2.632	n/a	n/a	NoResponse	0	n/a	n/a	3	20	Blank	Neutral	True
202.683	0.3	Control	0.8571	0.004	No	2.632	-0.004	2.0	NoResponse	0	0.269	n/a	3	20	ButtonPress	Neutral	True
203.116	1.45	Control	0.8571	n/a	No	2.632	n/a	5.0	NoResponse	0	0.026	202.142	3	20	Feedback	Neutral	True
204.57	2.632	Control	0.8571	n/a	No	2.632	n/a	n/a	NoResponse	0	0.0	n/a	3	20	ISIslide	Neutral	True
207.228	0.25	Control	0.8636	0.0	Yes	2.772	0.028	n/a	GoodResponse	0	n/a	n/a	3	21	Cue	Neutral	True
207.479	4.1	Control	0.8636	0.0	Yes	2.772	0.001	n/a	GoodResponse	0	n/a	n/a	3	21	Fixation	Neutral	True
211.575	0.19	Control	0.8636	0.003	Yes	2.772	-0.003	2.0	GoodResponse	0	0.189	210.764	3	21	Target	Neutral	True
211.764	0.3	Control	0.8636	0.003	Yes	2.772	-0.003	2.0	GoodResponse	0	0.189	n/a	3	21	ButtonPress	Neutral	True
211.775	0.51	Control	0.8636	n/a	Yes	2.772	n/a	n/a	GoodResponse	0	n/a	n/a	3	21	Blank	Neutral	True
212.277	1.45	Control	0.8636	n/a	Yes	2.772	n/a	5.0	GoodResponse	0	0.036	211.313	3	21	Feedback	Neutral	True
213.731	2.772	Control	0.8636	n/a	Yes	2.772	n/a	n/a	GoodResponse	0	0.0	n/a	3	21	ISIslide	Neutral	True
216.523	0.25	Control	0.8261	0.0	No	2.777	0.023	n/a	NoResponse	0	n/a	n/a	3	22	Cue	Neutral	True
216.773	4.0	Control	0.8261	0.001	No	2.777	0.0	n/a	NoResponse	0	n/a	n/a	3	22	Fixation	Neutral	True
220.769	0.18	Control	0.8261	0.004	No	2.777	-0.004	2.0	NoResponse	0	0.193	219.962	3	22	Target	Neutral	True
220.953	0.52	Control	0.8261	n/a	No	2.777	n/a	n/a	NoResponse	0	n/a	n/a	3	22	Blank	Neutral	True
220.962	0.3	Control	0.8261	0.004	No	2.777	-0.004	2.0	NoResponse	0	0.193	n/a	3	22	ButtonPress	Neutral	True
221.471	1.45	Control	0.8261	n/a	No	2.777	n/a	5.0	NoResponse	0	0.013	220.484	3	22	Feedback	Neutral	True
222.925	2.777	Control	0.8261	n/a	No	2.777	n/a	n/a	NoResponse	0	0.0	n/a	3	22	ISIslide	Neutral	True
225.717	0.25	Control	0.7917000000000001	0.0	No	2.783	0.017	n/a	NoResponse	0	n/a	n/a	3	23	Cue	Neutral	True
225.968	3.9	Control	0.7917000000000001	0.0	No	2.783	0.001	n/a	NoResponse	0	n/a	n/a	3	23	Fixation	Neutral	True
229.863	0.17	Control	0.7917000000000001	0.004	No	2.783	-0.004	2.0	NoResponse	0	0.194	229.057	3	23	Target	Neutral	True
230.046	0.53	Control	0.7917000000000001	n/a	No	2.783	n/a	n/a	NoResponse	0	n/a	n/a	3	23	Blank	Neutral	True
230.057	0.3	Control	0.7917000000000001	0.004	No	2.783	-0.004	2.0	NoResponse	0	0.194	n/a	3	23	ButtonPress	Neutral	True
230.565	1.45	Control	0.7917000000000001	n/a	No	2.783	n/a	5.0	NoResponse	0	0.041	229.606	3	23	Feedback	Neutral	True
232.019	2.783	Control	0.7917000000000001	n/a	No	2.783	n/a	n/a	NoResponse	0	0.0	n/a	3	23	ISIslide	Neutral	True
234.827	0.25	Win2	0.76	0.0	No	3.123	0.027	n/a	NoResponse	0	n/a	n/a	3	24	Cue	MissedWin	True
235.078	3.95	Win2	0.76	0.0	No	3.123	0.001	2.0	NoResponse	0	3.382	237.46	3	24	Fixation	MissedWin	True
238.46	0.3	Win2	0.76	0.0	No	3.123	0.001	2.0	NoResponse	0	3.382	n/a	3	24	ButtonPress	MissedWin	True
239.023	0.16	Win2	0.76	0.004	No	3.123	-0.004	n/a	NoResponse	0	n/a	n/a	3	24	Target	MissedWin	True
239.19	0.54	Win2	0.76	n/a	No	3.123	n/a	n/a	NoResponse	0	n/a	n/a	3	24	Blank	MissedWin	True
239.725	1.45	Win2	0.76	n/a	No	3.123	n/a	5.0	NoResponse	0	0.006	238.731	3	24	Feedback	MissedWin	True
241.18	3.123	Win2	0.76	n/a	No	3.123	n/a	n/a	NoResponse	0	0.0	n/a	3	24	ISIslide	MissedWin	True
244.322	0.25	Win2	0.7308	0.0	No	3.078	0.022	n/a	NoResponse	0	n/a	n/a	3	25	Cue	MissedWin	True
244.573	4.0	Win2	0.7308	0.0	No	3.078	0.001	n/a	NoResponse	0	n/a	n/a	3	25	Fixation	MissedWin	True
248.568	0.15	Win2	0.7308	0.004	No	3.078	-0.004	2.0	NoResponse	0	0.192	247.76	3	25	Target	MissedWin	True
248.719	0.55	Win2	0.7308	n/a	No	3.078	n/a	n/a	NoResponse	0	n/a	n/a	3	25	Blank	MissedWin	True
248.76	0.3	Win2	0.7308	0.004	No	3.078	-0.004	2.0	NoResponse	0	0.192	n/a	3	25	ButtonPress	MissedWin	True
249.27	1.45	Win2	0.7308	n/a	No	3.078	n/a	5.0	NoResponse	0	0.018	248.288	3	25	Feedback	MissedWin	True
250.725	3.078	Win2	0.7308	n/a	No	3.078	n/a	n/a	NoResponse	0	0.0	n/a	3	25	ISIslide	MissedWin	True
253.817	0.25	Win2	0.7037	0.0	No	2.933	0.017	n/a	NoResponse	0	n/a	n/a	3	26	Cue	MissedWin	True
254.068	3.95	Win2	0.7037	0.0	No	2.933	0.001	n/a	NoResponse	0	n/a	n/a	3	26	Fixation	MissedWin	True
258.013	0.15	Win2	0.7037	0.004	No	2.933	-0.004	2.0	NoResponse	0	0.214	257.227	3	26	Target	MissedWin	True
258.164	0.55	Win2	0.7037	n/a	No	2.933	n/a	n/a	NoResponse	0	n/a	n/a	3	26	Blank	MissedWin	True
258.227	0.3	Win2	0.7037	0.004	No	2.933	-0.004	2.0	NoResponse	0	0.214	n/a	3	26	ButtonPress	MissedWin	True
258.715	1.45	Win2	0.7037	n/a	No	2.933	n/a	5.0	NoResponse	0	0.036	257.751	3	26	Feedback	MissedWin	True
260.17	2.933	Win2	0.7037	n/a	No	2.933	n/a	n/a	NoResponse	0	0.0	n/a	3	26	ISIslide	MissedWin	True
263.128	0.25	Lose2	0.6786	0.001	No	2.822	0.028	n/a	NoResponse	-1	n/a	n/a	2	27	Cue	Loss	True
263.379	4.05	Lose2	0.6786	0.0	No	2.822	0.001	n/a	NoResponse	-1	n/a	n/a	2	27	Fixation	Loss	True
267.425	0.15	Lose2	0.6786	0.003	No	2.822	-0.003	2.0	NoResponse	-1	0.176	266.601	2	27	Target	Loss	True
267.575	0.55	Lose2	0.6786	n/a	No	2.822	n/a	n/a	NoResponse	-1	n/a	n/a	2	27	Blank	Loss	True
267.601	0.3	Lose2	0.6786	0.003	No	2.822	-0.003	2.0	NoResponse	-1	0.176	n/a	2	27	ButtonPress	Loss	True
268.127	1.45	Lose2	0.6786	n/a	No	2.822	n/a	5.0	NoResponse	-1	0.038	267.165	2	27	Feedback	Loss	True
269.581	2.822	Lose2	0.6786	n/a	No	2.822	n/a	n/a	NoResponse	-1	0.0	n/a	2	27	ISIslide	Loss	True
272.423	0.25	Control	0.6552	0.0	No	2.827	0.023	n/a	NoResponse	0	n/a	n/a	2	28	Cue	Neutral	True
272.674	4.05	Control	0.6552	0.0	No	2.827	0.001	n/a	NoResponse	0	n/a	n/a	2	28	Fixation	Neutral	True
276.719	0.15	Control	0.6552	0.004	No	2.827	-0.004	2.0	NoResponse	0	0.213	275.932	2	28	Target	Neutral	True
276.869	0.55	Control	0.6552	n/a	No	2.827	n/a	n/a	NoResponse	0	n/a	n/a	2	28	Blank	Neutral	True
276.932	0.3	Control	0.6552	0.004	No	2.827	-0.004	2.0	NoResponse	0	0.213	n/a	2	28	ButtonPress	Neutral	True
277.421	1.45	Control	0.6552	n/a	No	2.827	n/a	5.0	NoResponse	0	0.013	276.434	2	28	Feedback	Neutral	True
278.875	2.827	Control	0.6552	n/a	No	2.827	n/a	n/a	NoResponse	0	0.0	n/a	2	28	ISIslide	Neutral	True
281.717	0.25	Lose2	0.6333	0.0	No	2.833	0.017	n/a	NoResponse	-1	n/a	n/a	1	29	Cue	Loss	True
281.968	3.95	Lose2	0.6333	0.0	No	2.833	0.001	n/a	NoResponse	-1	n/a	n/a	1	29	Fixation	Loss	True
285.913	0.15	Lose2	0.6333	0.004	No	2.833	-0.004	2.0	NoResponse	-1	0.202	285.115	1	29	Target	Loss	True
286.064	0.55	Lose2	0.6333	n/a	No	2.833	n/a	n/a	NoResponse	-1	n/a	n/a	1	29	Blank	Loss	True
286.115	0.3	Lose2	0.6333	0.004	No	2.833	-0.004	2.0	NoResponse	-1	0.202	n/a	1	29	ButtonPress	Loss	True
286.615	1.45	Lose2	0.6333	n/a	No	2.833	n/a	5.0	NoResponse	-1	0.038	285.653	1	29	Feedback	Loss	True
288.069	2.833	Lose2	0.6333	n/a	No	2.833	n/a	n/a	NoResponse	-1	0.0	n/a	1	29	ISIslide	Loss	True
290.928	0.25	Win2	0.6129	0.0	No	2.772	0.028	n/a	NoResponse	0	n/a	n/a	1	30	Cue	MissedWin	True
291.179	3.9	Win2	0.6129	0.0	No	2.772	0.001	n/a	NoResponse	0	n/a	n/a	1	30	Fixation	MissedWin	True
295.074	0.16	Win2	0.6129	0.004	No	2.772	-0.004	2.0	NoResponse	0	0.173	294.247	1	30	Target	MissedWin	True
295.241	0.54	Win2	0.6129	n/a	No	2.772	n/a	n/a	NoResponse	0	n/a	n/a	1	30	Blank	MissedWin	True
295.247	0.3	Win2	0.6129	0.004	No	2.772	-0.004	2.0	NoResponse	0	0.173	n/a	1	30	ButtonPress	MissedWin	True
295.776	1.45	Win2	0.6129	n/a	No	2.772	n/a	5.0	NoResponse	0	0.048	294.824	1	30	Feedback	MissedWin	True
297.23	2.772	Win2	0.6129	n/a	No	2.772	n/a	n/a	NoResponse	0	0.0	n/a	1	30	ISIslide	MissedWin	True
300.022	0.25	Lose2	0.5938	0.0	No	2.828	0.022	n/a	NoResponse	-1	n/a	n/a	0	31	Cue	Loss	True
300.273	4.05	Lose2	0.5938	0.0	No	2.828	0.001	2.0	NoResponse	-1	4.032	303.305	0	31	Fixation	Loss	True
304.305	0.3	Lose2	0.5938	0.0	No	2.828	0.001	2.0	NoResponse	-1	4.032	n/a	0	31	ButtonPress	Loss	True
304.318	0.17	Lose2	0.5938	0.004	No	2.828	-0.004	n/a	NoResponse	-1	n/a	n/a	0	31	Target	Loss	True
304.502	0.53	Lose2	0.5938	n/a	No	2.828	n/a	n/a	NoResponse	-1	n/a	n/a	0	31	Blank	Loss	True
305.02	1.45	Lose2	0.5938	n/a	No	2.828	n/a	5.0	NoResponse	-1	0.023	304.043	0	31	Feedback	Loss	True
306.474	2.828	Lose2	0.5938	n/a	No	2.828	n/a	n/a	NoResponse	-1	0.0	n/a	0	31	ISIslide	Loss	True
309.316	0.25	Lose2	0.5758	0.0	No	2.634	0.016	n/a	PrematurePress	-1	n/a	n/a	-1	32	Cue	Loss	True
309.567	4.15	Lose2	0.5758	0.0	No	2.634	0.001	n/a	PrematurePress	-1	n/a	n/a	-1	32	Fixation	Loss	True
313.713	0.18	Lose2	0.5758	0.003	No	2.634	-0.003	2.0	PrematurePress	-1	0.054	312.767	-1	32	Target	Loss	True
313.767	0.3	Lose2	0.5758	0.003	No	2.634	-0.003	2.0	PrematurePress	-1	0.054	n/a	-1	32	ButtonPress	Loss	True
313.897	0.52	Lose2	0.5758	n/a	No	2.634	n/a	n/a	PrematurePress	-1	n/a	n/a	-1	32	Blank	Loss	True
314.415	1.45	Lose2	0.5758	n/a	No	2.634	n/a	5.0	PrematurePress	-1	0.042	313.457	-1	32	Feedback	Loss	True
315.869	2.634	Lose2	0.5758	n/a	No	2.634	n/a	n/a	PrematurePress	-1	0.0	n/a	-1	32	ISIslide	Loss	True
318.527	0.25	Win2	0.5588000000000001	0.0	No	2.673	0.027	n/a	NoResponse	0	n/a	n/a	-1	33	Cue	MissedWin	True
318.778	4.0	Win2	0.5588000000000001	0.0	No	2.673	0.001	n/a	NoResponse	0	n/a	n/a	-1	33	Fixation	MissedWin	True
322.773	0.19	Win2	0.5588000000000001	0.004	No	2.673	-0.004	2.0	NoResponse	0	0.218	321.991	-1	33	Target	MissedWin	True
322.974	0.51	Win2	0.5588000000000001	n/a	No	2.673	n/a	n/a	NoResponse	0	n/a	n/a	-1	33	Blank	MissedWin	True
322.991	0.3	Win2	0.5588000000000001	0.004	No	2.673	-0.004	2.0	NoResponse	0	0.218	n/a	-1	33	ButtonPress	MissedWin	True
323.475	1.45	Win2	0.5588000000000001	n/a	No	2.673	n/a	5.0	NoResponse	0	0.007	322.482	-1	33	Feedback	MissedWin	True
324.929	2.673	Win2	0.5588000000000001	n/a	No	2.673	n/a	n/a	NoResponse	0	0.0	n/a	-1	33	ISIslide	MissedWin	True
327.621	0.25	Lose2	0.5428999999999999	0.0	No	2.629	0.021	n/a	PrematurePress	-1	n/a	n/a	-2	34	Cue	Loss	True
327.872	4.05	Lose2	0.5428999999999999	0.0	No	2.629	0.001	n/a	PrematurePress	-1	n/a	n/a	-2	34	Fixation	Loss	True
331.917	0.2	Lose2	0.5428999999999999	0.004	No	2.629	-0.004	2.0	PrematurePress	-1	0.04	330.957	-2	34	Target	Loss	True
331.957	0.3	Lose2	0.5428999999999999	0.004	No	2.629	-0.004	2.0	PrematurePress	-1	0.04	n/a	-2	34	ButtonPress	Loss	True
332.118	0.5	Lose2	0.5428999999999999	n/a	No	2.629	n/a	n/a	PrematurePress	-1	n/a	n/a	-2	34	Blank	Loss	True
332.619	1.45	Lose2	0.5428999999999999	n/a	No	2.629	n/a	5.0	PrematurePress	-1	0.033	331.652	-2	34	Feedback	Loss	True
334.073	2.629	Lose2	0.5428999999999999	n/a	No	2.629	n/a	n/a	PrematurePress	-1	0.0	n/a	-2	34	ISIslide	Loss	True
336.715	0.25	Lose2	0.5556	0.0	Yes	2.685	0.015	n/a	GoodResponse	0	n/a	n/a	-2	35	Cue	AvoidedLoss	True
336.965	4.0	Lose2	0.5556	0.0	Yes	2.685	0.0	n/a	GoodResponse	0	n/a	n/a	-2	35	Fixation	AvoidedLoss	True
340.961	0.21	Lose2	0.5556	0.004	Yes	2.685	-0.004	2.0	GoodResponse	0	0.198	340.159	-2	35	Target	AvoidedLoss	True
341.159	0.3	Lose2	0.5556	0.004	Yes	2.685	-0.004	2.0	GoodResponse	0	0.198	n/a	-2	35	ButtonPress	AvoidedLoss	True
341.178	0.49	Lose2	0.5556	n/a	Yes	2.685	n/a	n/a	GoodResponse	0	n/a	n/a	-2	35	Blank	AvoidedLoss	True
341.663	1.45	Lose2	0.5556	n/a	Yes	2.685	n/a	5.0	GoodResponse	0	0.013	340.676	-2	35	Feedback	AvoidedLoss	True
343.117	2.685	Lose2	0.5556	n/a	Yes	2.685	n/a	n/a	GoodResponse	0	0.0	n/a	-2	35	ISIslide	AvoidedLoss	True
345.825	0.25	Control	0.5676	0.0	Yes	2.675	0.025	n/a	GoodResponse	0	n/a	n/a	-2	36	Cue	Neutral	True
346.076	4.0	Control	0.5676	0.0	Yes	2.675	0.001	n/a	GoodResponse	0	n/a	n/a	-2	36	Fixation	Neutral	True
350.071	0.22	Control	0.5676	0.004	Yes	2.675	-0.004	2.0	GoodResponse	0	0.192	349.263	-2	36	Target	Neutral	True
350.263	0.3	Control	0.5676	0.004	Yes	2.675	-0.004	2.0	GoodResponse	0	0.192	n/a	-2	36	ButtonPress	Neutral	True
350.305	0.48	Control	0.5676	n/a	Yes	2.675	n/a	n/a	GoodResponse	0	n/a	n/a	-2	36	Blank	Neutral	True
350.773	1.45	Control	0.5676	n/a	Yes	2.675	n/a	5.0	GoodResponse	0	0.025	349.798	-2	36	Feedback	Neutral	True
352.228	2.675	Control	0.5676	n/a	Yes	2.675	n/a	n/a	GoodResponse	0	0.0	n/a	-2	36	ISIslide	Neutral	True
354.919	0.25	Win2	0.5789	0.0	Yes	2.881	0.019	n/a	GoodResponse	1	n/a	n/a	-1	37	Cue	Win	True
355.17	4.0	Win2	0.5789	0.0	Yes	2.881	0.001	n/a	GoodResponse	1	n/a	n/a	-1	37	Fixation	Win	True
359.165	0.23	Win2	0.5789	0.004	Yes	2.881	-0.004	2.0	GoodResponse	1	0.195	358.36	-1	37	Target	Win	True
359.36	0.3	Win2	0.5789	0.004	Yes	2.881	-0.004	2.0	GoodResponse	1	0.195	n/a	-1	37	ButtonPress	Win	True
359.399	0.47	Win2	0.5789	n/a	Yes	2.881	n/a	n/a	GoodResponse	1	n/a	n/a	-1	37	Blank	Win	True
359.867	1.45	Win2	0.5789	n/a	Yes	2.881	n/a	5.0	GoodResponse	1	0.006	358.873	-1	37	Feedback	Win	True
361.321	2.881	Win2	0.5789	n/a	Yes	2.881	n/a	n/a	GoodResponse	1	0.0	n/a	-1	37	ISIslide	Win	True
364.23	0.25	Lose2	0.5897	0.0	Yes	2.82	0.03	n/a	GoodResponse	0	n/a	n/a	-1	38	Cue	AvoidedLoss	True
364.481	3.95	Lose2	0.5897	0.0	Yes	2.82	0.001	n/a	GoodResponse	0	n/a	n/a	-1	38	Fixation	AvoidedLoss	True
368.426	0.24	Lose2	0.5897	0.004	Yes	2.82	-0.004	2.0	GoodResponse	0	0.232	367.658	-1	38	Target	AvoidedLoss	True
368.658	0.3	Lose2	0.5897	0.004	Yes	2.82	-0.004	2.0	GoodResponse	0	0.232	n/a	-1	38	ButtonPress	AvoidedLoss	True
368.677	0.46	Lose2	0.5897	n/a	Yes	2.82	n/a	n/a	GoodResponse	0	n/a	n/a	-1	38	Blank	AvoidedLoss	True
369.128	1.45	Lose2	0.5897	n/a	Yes	2.82	n/a	5.0	GoodResponse	0	0.011	368.139	-1	38	Feedback	AvoidedLoss	True
370.582	2.82	Lose2	0.5897	n/a	Yes	2.82	n/a	n/a	GoodResponse	0	0.0	n/a	-1	38	ISIslide	AvoidedLoss	True
373.424	0.25	Win2	0.6	0.0	Yes	2.976	0.024	n/a	GoodResponse	1	n/a	n/a	0	39	Cue	Win	True
373.675	4.1	Win2	0.6	0.0	Yes	2.976	0.001	n/a	GoodResponse	1	n/a	n/a	0	39	Fixation	Win	True
377.77	0.25	Win2	0.6	0.004	Yes	2.976	-0.004	2.0	GoodResponse	1	0.221	376.991	0	39	Target	Win	True
377.991	0.3	Win2	0.6	0.004	Yes	2.976	-0.004	2.0	GoodResponse	1	0.221	n/a	0	39	ButtonPress	Win	True
378.021	0.45	Win2	0.6	n/a	Yes	2.976	n/a	n/a	GoodResponse	1	n/a	n/a	0	39	Blank	Win	True
378.473	1.45	Win2	0.6	n/a	Yes	2.976	n/a	5.0	GoodResponse	1	0.032	377.505	0	39	Feedback	Win	True
379.927	2.976	Win2	0.6	n/a	Yes	2.976	n/a	n/a	GoodResponse	1	0.0	n/a	0	39	ISIslide	Win	True
382.919	0.25	Win2	0.6098	0.0	Yes	2.731	0.019	n/a	GoodResponse	1	n/a	n/a	1	40	Cue	Win	True
383.17	3.95	Win2	0.6098	0.0	Yes	2.731	0.001	n/a	GoodResponse	1	n/a	n/a	1	40	Fixation	Win	True
387.115	0.26	Win2	0.6098	0.004	Yes	2.731	-0.004	2.0	GoodResponse	1	0.24	386.355	1	40	Target	Win	True
387.355	0.3	Win2	0.6098	0.004	Yes	2.731	-0.004	2.0	GoodResponse	1	0.24	n/a	1	40	ButtonPress	Win	True
387.382	0.44	Win2	0.6098	n/a	Yes	2.731	n/a	n/a	GoodResponse	1	n/a	n/a	1	40	Blank	Win	True
387.817	1.45	Win2	0.6098	n/a	Yes	2.731	n/a	5.0	GoodResponse	1	0.006	386.823	1	40	Feedback	Win	True
389.271	2.731	Win2	0.6098	n/a	Yes	2.731	n/a	n/a	GoodResponse	1	0.0	n/a	1	40	ISIslide	Win	True
392.03	0.25	Win2	0.619	0.0	Yes	2.77	0.03	n/a	GoodResponse	1	n/a	n/a	2	41	Cue	Win	True
392.28	3.9	Win2	0.619	0.0	Yes	2.77	0.0	n/a	GoodResponse	1	n/a	n/a	2	41	Fixation	Win	True
396.192	0.27	Win2	0.619	0.0	Yes	2.77	0.012	2.0	GoodResponse	1	0.223	395.415	2	41	Target	Win	True
396.415	0.3	Win2	0.619	0.0	Yes	2.77	0.012	2.0	GoodResponse	1	0.223	n/a	2	41	ButtonPress	Win	True
396.46	0.43	Win2	0.619	n/a	Yes	2.77	n/a	n/a	GoodResponse	1	n/a	n/a	2	41	Blank	Win	True
396.877	1.45	Win2	0.619	n/a	Yes	2.77	n/a	5.0	GoodResponse	1	0.018	395.895	2	41	Feedback	Win	True
398.332	2.77	Win2	0.619	n/a	Yes	2.77	n/a	n/a	GoodResponse	1	0.0	n/a	2	41	ISIslide	Win	True
401.123	0.25	Control	0.6279	0.0	Yes	2.927	0.023	n/a	GoodResponse	0	n/a	n/a	2	42	Cue	Neutral	True
401.374	3.85	Control	0.6279	0.0	Yes	2.927	0.001	n/a	GoodResponse	0	n/a	n/a	2	42	Fixation	Neutral	True
405.219	0.28	Control	0.6279	0.004	Yes	2.927	-0.004	2.0	GoodResponse	0	0.203	404.422	2	42	Target	Neutral	True
405.422	0.3	Control	0.6279	0.004	Yes	2.927	-0.004	2.0	GoodResponse	0	0.203	n/a	2	42	ButtonPress	Neutral	True
405.503	0.42	Control	0.6279	n/a	Yes	2.927	n/a	n/a	GoodResponse	0	n/a	n/a	2	42	Blank	Neutral	True
405.921	1.45	Control	0.6279	n/a	Yes	2.927	n/a	5.0	GoodResponse	0	0.047	404.968	2	42	Feedback	Neutral	True
407.375	2.927	Control	0.6279	n/a	Yes	2.927	n/a	n/a	GoodResponse	0	0.0	n/a	2	42	ISIslide	Neutral	True
410.318	0.25	Win2	0.6364	0.0	Yes	3.182	0.018	n/a	GoodResponse	1	n/a	n/a	3	43	Cue	Win	False
410.568	4.0	Win2	0.6364	0.0	Yes	3.182	0.0	2.0	GoodResponse	1	2.658	412.226	3	43	Fixation	Win	False
413.226	0.3	Win2	0.6364	0.0	Yes	3.182	0.0	2.0	GoodResponse	1	2.658	n/a	3	43	ButtonPress	Win	False
414.564	0.29	Win2	0.6364	0.004	Yes	3.182	-0.004	2.0	GoodResponse	1	0.267	413.831	3	43	Target	Win	False
414.831	0.3	Win2	0.6364	0.004	Yes	3.182	-0.004	2.0	GoodResponse	1	0.267	n/a	3	43	ButtonPress	Win	False
414.864	0.41	Win2	0.6364	n/a	Yes	3.182	n/a	n/a	GoodResponse	1	n/a	n/a	3	43	Blank	Win	False
415.266	1.45	Win2	0.6364	n/a	Yes	3.182	n/a	5.0	GoodResponse	1	0.019	414.285	3	43	Feedback	Win	False
416.72	3.182	Win2	0.6364	n/a	Yes	3.182	n/a	n/a	GoodResponse	1	0.0	n/a	3	43	ISIslide	Win	False
419.93	0.25	Win2	0.6444	0.0	Yes	2.97	0.03	n/a	GoodResponse	1	n/a	n/a	4	44	Cue	Win	True
420.18	4.0	Win2	0.6444	0.0	Yes	2.97	0.0	n/a	GoodResponse	1	n/a	n/a	4	44	Fixation	Win	True
424.176	0.3	Win2	0.6444	0.004	Yes	2.97	-0.004	2.0	GoodResponse	1	0.212	423.388	4	44	Target	Win	True
424.388	0.3	Win2	0.6444	0.004	Yes	2.97	-0.004	2.0	GoodResponse	1	0.212	n/a	4	44	ButtonPress	Win	True
424.476	0.4	Win2	0.6444	n/a	Yes	2.97	n/a	n/a	GoodResponse	1	n/a	n/a	4	44	Blank	Win	True
424.878	1.45	Win2	0.6444	n/a	Yes	2.97	n/a	5.0	GoodResponse	1	0.017	423.895	4	44	Feedback	Win	True
426.332	2.97	Win2	0.6444	n/a	Yes	2.97	n/a	n/a	GoodResponse	1	0.0	n/a	4	44	ISIslide	Win	True
429.324	0.25	Control	0.6522	0.0	Yes	2.876	0.024	n/a	GoodResponse	0	n/a	n/a	4	45	Cue	Neutral	True
429.575	4.1	Control	0.6522	0.0	Yes	2.876	0.001	n/a	GoodResponse	0	n/a	n/a	4	45	Fixation	Neutral	True
433.671	0.31	Control	0.6522	0.003	Yes	2.876	-0.003	2.0	GoodResponse	0	0.202	432.873	4	45	Target	Neutral	True
433.873	0.3	Control	0.6522	0.003	Yes	2.876	-0.003	2.0	GoodResponse	0	0.202	n/a	4	45	ButtonPress	Neutral	True
433.988	0.39	Control	0.6522	n/a	Yes	2.876	n/a	n/a	GoodResponse	0	n/a	n/a	4	45	Blank	Neutral	True
434.373	1.45	Control	0.6522	n/a	Yes	2.876	n/a	5.0	GoodResponse	0	0.033	433.406	4	45	Feedback	Neutral	True
435.827	2.876	Control	0.6522	n/a	Yes	2.876	n/a	n/a	GoodResponse	0	0.0	n/a	4	45	ISIslide	Neutral	True
438.719	0.25	Lose2	0.6596	0.0	Yes	3.381	0.019	n/a	GoodResponse	0	n/a	n/a	4	46	Cue	AvoidedLoss	True
438.97	4.0	Lose2	0.6596	0.0	Yes	3.381	0.001	n/a	GoodResponse	0	n/a	n/a	4	46	Fixation	AvoidedLoss	True
442.965	0.32	Lose2	0.6596	0.004	Yes	3.381	-0.004	2.0	GoodResponse	0	0.231	442.196	4	46	Target	AvoidedLoss	True
443.196	0.3	Lose2	0.6596	0.004	Yes	3.381	-0.004	2.0	GoodResponse	0	0.231	n/a	4	46	ButtonPress	AvoidedLoss	True
443.299	0.38	Lose2	0.6596	n/a	Yes	3.381	n/a	n/a	GoodResponse	0	n/a	n/a	4	46	Blank	AvoidedLoss	True
443.667	1.45	Lose2	0.6596	n/a	Yes	3.381	n/a	5.0	GoodResponse	0	0.007	442.674	4	46	Feedback	AvoidedLoss	True
445.121	3.381	Lose2	0.6596	n/a	Yes	3.381	n/a	n/a	GoodResponse	0	0.0	n/a	4	46	ISIslide	AvoidedLoss	True
448.515	0.25	Lose2	0.6667000000000001	0.0	Yes	2.685	0.015	n/a	GoodResponse	0	n/a	n/a	4	47	Cue	AvoidedLoss	True
448.766	4.0	Lose2	0.6667000000000001	0.0	Yes	2.685	0.001	n/a	GoodResponse	0	n/a	n/a	4	47	Fixation	AvoidedLoss	True
452.761	0.32	Lose2	0.6667000000000001	0.004	Yes	2.685	-0.004	2.0	GoodResponse	0	0.252	452.013	4	47	Target	AvoidedLoss	True
453.013	0.3	Lose2	0.6667000000000001	0.004	Yes	2.685	-0.004	2.0	GoodResponse	0	0.252	n/a	4	47	ButtonPress	AvoidedLoss	True
453.095	0.38	Lose2	0.6667000000000001	n/a	Yes	2.685	n/a	n/a	GoodResponse	0	n/a	n/a	4	47	Blank	AvoidedLoss	True
453.463	1.45	Lose2	0.6667000000000001	n/a	Yes	2.685	n/a	5.0	GoodResponse	0	0.016	452.479	4	47	Feedback	AvoidedLoss	True
454.917	2.685	Lose2	0.6667000000000001	n/a	Yes	2.685	n/a	n/a	GoodResponse	0	0.0	n/a	4	47	ISIslide	AvoidedLoss	True
457.625	0.25	Lose2	0.6735	0.0	Yes	3.025	0.025	n/a	GoodResponse	0	n/a	n/a	4	48	Cue	AvoidedLoss	True
457.876	3.95	Lose2	0.6735	0.0	Yes	3.025	0.001	n/a	GoodResponse	0	n/a	n/a	4	48	Fixation	AvoidedLoss	True
461.821	0.31	Lose2	0.6735	0.004	Yes	3.025	-0.004	2.0	GoodResponse	0	0.197	461.018	4	48	Target	AvoidedLoss	True
462.018	0.3	Lose2	0.6735	0.004	Yes	3.025	-0.004	2.0	GoodResponse	0	0.197	n/a	4	48	ButtonPress	AvoidedLoss	True
462.139	0.39	Lose2	0.6735	n/a	Yes	3.025	n/a	n/a	GoodResponse	0	n/a	n/a	4	48	Blank	AvoidedLoss	True
462.523	1.45	Lose2	0.6735	n/a	Yes	3.025	n/a	5.0	GoodResponse	0	0.03	461.553	4	48	Feedback	AvoidedLoss	True
463.978	3.025	Lose2	0.6735	n/a	Yes	3.025	n/a	n/a	GoodResponse	0	0.0	n/a	4	48	ISIslide	AvoidedLoss	True
467.02	0.25	Control	0.68	0.0	Yes	2.88	0.02	n/a	GoodResponse	0	n/a	n/a	4	49	Cue	Neutral	True
467.271	4.0	Control	0.68	0.0	Yes	2.88	0.001	n/a	GoodResponse	0	n/a	n/a	4	49	Fixation	Neutral	True
471.266	0.3	Control	0.68	0.004	Yes	2.88	-0.004	2.0	GoodResponse	0	0.257	470.523	4	49	Target	Neutral	True
471.523	0.3	Control	0.68	0.004	Yes	2.88	-0.004	2.0	GoodResponse	0	0.257	n/a	4	49	ButtonPress	Neutral	True
471.567	0.4	Control	0.68	n/a	Yes	2.88	n/a	n/a	GoodResponse	0	n/a	n/a	4	49	Blank	Neutral	True
471.968	1.45	Control	0.68	n/a	Yes	2.88	n/a	5.0	GoodResponse	0	0.047	471.015	4	49	Feedback	Neutral	True
473.422	2.88	Control	0.68	n/a	Yes	2.88	n/a	n/a	GoodResponse	0	0.0	n/a	4	49	ISIslide	Neutral	True
476.314	0.25	Control	0.6862999999999999	0.0	Yes	2.786	0.014	n/a	GoodResponse	0	n/a	n/a	4	50	Cue	Neutral	True
476.565	4.0	Control	0.6862999999999999	0.0	Yes	2.786	0.001	n/a	GoodResponse	0	n/a	n/a	4	50	Fixation	Neutral	True
480.56	0.29	Control	0.6862999999999999	0.004	Yes	2.786	-0.004	2.0	GoodResponse	0	0.247	479.807	4	50	Target	Neutral	True
480.807	0.3	Control	0.6862999999999999	0.004	Yes	2.786	-0.004	2.0	GoodResponse	0	0.247	n/a	4	50	ButtonPress	Neutral	True
480.861	0.41	Control	0.6862999999999999	n/a	Yes	2.786	n/a	n/a	GoodResponse	0	n/a	n/a	4	50	Blank	Neutral	True
481.262	1.45	Control	0.6862999999999999	n/a	Yes	2.786	n/a	5.0	GoodResponse	0	0.021	480.283	4	50	Feedback	Neutral	True
482.717	2.786	Control	0.6862999999999999	n/a	Yes	2.786	n/a	n/a	GoodResponse	0	0.0	n/a	4	50	ISIslide	Neutral	True
485.525	0.25	Control	0.6923	0.0	Yes	2.725	0.025	n/a	GoodResponse	0	n/a	n/a	4	51	Cue	Neutral	True
485.776	3.95	Control	0.6923	0.0	Yes	2.725	0.001	n/a	GoodResponse	0	n/a	n/a	4	51	Fixation	Neutral	True
489.721	0.28	Control	0.6923	0.004	Yes	2.725	-0.004	2.0	GoodResponse	0	0.225	488.946	4	51	Target	Neutral	True
489.946	0.3	Control	0.6923	0.004	Yes	2.725	-0.004	2.0	GoodResponse	0	0.225	n/a	4	51	ButtonPress	Neutral	True
490.005	0.42	Control	0.6923	n/a	Yes	2.725	n/a	n/a	GoodResponse	0	n/a	n/a	4	51	Blank	Neutral	True
490.423	1.45	Control	0.6923	n/a	Yes	2.725	n/a	5.0	GoodResponse	0	0.031	489.454	4	51	Feedback	Neutral	True
491.877	2.725	Control	0.6923	n/a	Yes	2.725	n/a	n/a	GoodResponse	0	0.0	n/a	4	51	ISIslide	Neutral	True
494.619	0.25	Control	0.6981	0.0	Yes	2.631	0.019	n/a	GoodResponse	0	n/a	n/a	4	52	Cue	Neutral	True
494.87	4.05	Control	0.6981	0.0	Yes	2.631	0.001	n/a	GoodResponse	0	n/a	n/a	4	52	Fixation	Neutral	True
498.915	0.27	Control	0.6981	0.004	Yes	2.631	-0.004	2.0	GoodResponse	0	0.222	498.137	4	52	Target	Neutral	True
499.137	0.3	Control	0.6981	0.004	Yes	2.631	-0.004	2.0	GoodResponse	0	0.222	n/a	4	52	ButtonPress	Neutral	True
499.199	0.43	Control	0.6981	n/a	Yes	2.631	n/a	n/a	GoodResponse	0	n/a	n/a	4	52	Blank	Neutral	True
499.617	1.45	Control	0.6981	n/a	Yes	2.631	n/a	5.0	GoodResponse	0	0.007	498.624	4	52	Feedback	Neutral	True
501.072	2.631	Control	0.6981	n/a	Yes	2.631	n/a	n/a	GoodResponse	0	0.0	n/a	4	52	ISIslide	Neutral	True
503.729	0.25	Win2	0.7037	0.001	Yes	2.921	0.029	n/a	GoodResponse	1	n/a	n/a	5	53	Cue	Win	True
503.98	4.05	Win2	0.7037	0.0	Yes	2.921	0.001	n/a	GoodResponse	1	n/a	n/a	5	53	Fixation	Win	True
508.026	0.26	Win2	0.7037	0.003	Yes	2.921	-0.003	2.0	GoodResponse	1	0.199	507.225	5	53	Target	Win	True
508.225	0.3	Win2	0.7037	0.003	Yes	2.921	-0.003	2.0	GoodResponse	1	0.199	n/a	5	53	ButtonPress	Win	True
508.293	0.44	Win2	0.7037	n/a	Yes	2.921	n/a	n/a	GoodResponse	1	n/a	n/a	5	53	Blank	Win	True
508.728	1.45	Win2	0.7037	n/a	Yes	2.921	n/a	5.0	GoodResponse	1	0.018	507.746	5	53	Feedback	Win	True
510.182	2.921	Win2	0.7037	n/a	Yes	2.921	n/a	n/a	GoodResponse	1	0.0	n/a	5	53	ISIslide	Win	True
513.124	0.25	Win2	0.7091	0.0	Yes	2.726	0.024	n/a	GoodResponse	1	n/a	n/a	6	54	Cue	Win	True
513.375	3.95	Win2	0.7091	0.0	Yes	2.726	0.001	n/a	GoodResponse	1	n/a	n/a	6	54	Fixation	Win	True
517.32	0.25	Win2	0.7091	0.004	Yes	2.726	-0.004	2.0	GoodResponse	1	0.192	516.512	6	54	Target	Win	True
517.512	0.3	Win2	0.7091	0.004	Yes	2.726	-0.004	2.0	GoodResponse	1	0.192	n/a	6	54	ButtonPress	Win	True
517.571	0.45	Win2	0.7091	n/a	Yes	2.726	n/a	n/a	GoodResponse	1	n/a	n/a	6	54	Blank	Win	True
518.022	1.45	Win2	0.7091	n/a	Yes	2.726	n/a	5.0	GoodResponse	1	0.041	517.063	6	54	Feedback	Win	True
519.476	2.726	Win2	0.7091	n/a	Yes	2.726	n/a	n/a	GoodResponse	1	0.0	n/a	6	54	ISIslide	Win	True
522.218	0.25	Control	0.6964	0.0	No	3.032	0.018	n/a	LatePress	0	n/a	n/a	6	55	Cue	Neutral	True
522.469	3.95	Control	0.6964	0.0	No	3.032	0.001	n/a	LatePress	0	n/a	n/a	6	55	Fixation	Neutral	True
526.414	0.24	Control	0.6964	0.004	No	3.032	-0.004	2.0	LatePress	0	0.24	525.654	6	55	Target	Neutral	True
526.654	0.3	Control	0.6964	0.004	No	3.032	-0.004	2.0	LatePress	0	0.24	n/a	6	55	ButtonPress	Neutral	True
526.665	0.46	Control	0.6964	n/a	No	3.032	n/a	n/a	LatePress	0	n/a	n/a	6	55	Blank	Neutral	True
527.116	1.45	Control	0.6964	n/a	No	3.032	n/a	5.0	LatePress	0	0.021	526.137	6	55	Feedback	Neutral	True
528.57	3.032	Control	0.6964	n/a	No	3.032	n/a	n/a	LatePress	0	0.0	n/a	6	55	ISIslide	Neutral	True
531.629	0.25	Control	0.7018000000000001	0.0	Yes	2.821	0.029	n/a	GoodResponse	0	n/a	n/a	6	56	Cue	Neutral	True
531.88	3.95	Control	0.7018000000000001	0.0	Yes	2.821	0.001	n/a	GoodResponse	0	n/a	n/a	6	56	Fixation	Neutral	True
535.825	0.23	Control	0.7018000000000001	0.004	Yes	2.821	-0.004	2.0	GoodResponse	0	0.218	535.043	6	56	Target	Neutral	True
536.043	0.3	Control	0.7018000000000001	0.004	Yes	2.821	-0.004	2.0	GoodResponse	0	0.218	n/a	6	56	ButtonPress	Neutral	True
536.059	0.47	Control	0.7018000000000001	n/a	Yes	2.821	n/a	n/a	GoodResponse	0	n/a	n/a	6	56	Blank	Neutral	True
536.527	1.45	Control	0.7018000000000001	n/a	Yes	2.821	n/a	5.0	GoodResponse	0	0.023	535.55	6	56	Feedback	Neutral	True
537.982	2.821	Control	0.7018000000000001	n/a	Yes	2.821	n/a	n/a	GoodResponse	0	0.0	n/a	6	56	ISIslide	Neutral	True
540.823	0.25	Control	0.6897	0.001	No	3.477	0.023	n/a	NoResponse	0	n/a	n/a	6	57	Cue	Neutral	True
541.074	4.0	Control	0.6897	0.0	No	3.477	0.001	n/a	NoResponse	0	n/a	n/a	6	57	Fixation	Neutral	True
545.069	0.22	Control	0.6897	0.004	No	3.477	-0.004	2.0	NoResponse	0	0.278	544.347	6	57	Target	Neutral	True
545.304	0.48	Control	0.6897	n/a	No	3.477	n/a	n/a	NoResponse	0	n/a	n/a	6	57	Blank	Neutral	True
545.347	0.3	Control	0.6897	0.004	No	3.477	-0.004	2.0	NoResponse	0	0.278	n/a	6	57	ButtonPress	Neutral	True
545.772	1.45	Control	0.6897	n/a	No	3.477	n/a	5.0	NoResponse	0	0.047	544.819	6	57	Feedback	Neutral	True
547.226	3.477	Control	0.6897	n/a	No	3.477	n/a	n/a	NoResponse	0	0.0	n/a	6	57	ISIslide	Neutral	True
550.72	0.25	Win2	0.6779999999999999	0.0	No	2.73	0.02	n/a	NoResponse	0	n/a	n/a	6	58	Cue	MissedWin	True
550.97	4.05	Win2	0.6779999999999999	0.0	No	2.73	0.0	n/a	NoResponse	0	n/a	n/a	6	58	Fixation	MissedWin	True
555.016	0.21	Win2	0.6779999999999999	0.004	No	2.73	-0.004	2.0	NoResponse	0	0.259	554.275	6	58	Target	MissedWin	True
555.233	0.49	Win2	0.6779999999999999	n/a	No	2.73	n/a	n/a	NoResponse	0	n/a	n/a	6	58	Blank	MissedWin	True
555.275	0.3	Win2	0.6779999999999999	0.004	No	2.73	-0.004	2.0	NoResponse	0	0.259	n/a	6	58	ButtonPress	MissedWin	True
555.718	1.45	Win2	0.6779999999999999	n/a	No	2.73	n/a	5.0	NoResponse	0	0.006	554.724	6	58	Feedback	MissedWin	True
557.172	2.73	Win2	0.6779999999999999	n/a	No	2.73	n/a	n/a	NoResponse	0	0.0	n/a	6	58	ISIslide	MissedWin	True
559.914	0.25	Lose2	0.6833	0.0	Yes	2.686	0.014	n/a	GoodResponse	0	n/a	n/a	6	59	Cue	AvoidedLoss	True
560.165	4.0	Lose2	0.6833	0.0	Yes	2.686	0.001	n/a	GoodResponse	0	n/a	n/a	6	59	Fixation	AvoidedLoss	True
564.16	0.2	Lose2	0.6833	0.004	Yes	2.686	-0.004	2.0	GoodResponse	0	0.188	563.348	6	59	Target	AvoidedLoss	True
564.348	0.3	Lose2	0.6833	0.004	Yes	2.686	-0.004	2.0	GoodResponse	0	0.188	n/a	6	59	ButtonPress	AvoidedLoss	True
564.36	0.5	Lose2	0.6833	n/a	Yes	2.686	n/a	n/a	GoodResponse	0	n/a	n/a	6	59	Blank	AvoidedLoss	True
564.862	1.45	Lose2	0.6833	n/a	Yes	2.686	n/a	5.0	GoodResponse	0	0.03	563.892	6	59	Feedback	AvoidedLoss	True
566.316	2.686	Lose2	0.6833	n/a	Yes	2.686	n/a	n/a	GoodResponse	0	0.0	n/a	6	59	ISIslide	AvoidedLoss	True
569.024	0.25	Control	0.6720999999999999	0.0	No	2.676	0.024	n/a	NoResponse	0	n/a	n/a	6	60	Cue	Neutral	True
569.275	4.0	Control	0.6720999999999999	0.0	No	2.676	0.001	n/a	NoResponse	0	n/a	n/a	6	60	Fixation	Neutral	True
573.27	0.19	Control	0.6720999999999999	0.004	No	2.676	-0.004	2.0	NoResponse	0	0.241	572.511	6	60	Target	Neutral	True
573.471	0.51	Control	0.6720999999999999	n/a	No	2.676	n/a	n/a	NoResponse	0	n/a	n/a	6	60	Blank	Neutral	True
573.511	0.3	Control	0.6720999999999999	0.004	No	2.676	-0.004	2.0	NoResponse	0	0.241	n/a	6	60	ButtonPress	Neutral	True
573.972	1.45	Control	0.6720999999999999	n/a	No	2.676	n/a	5.0	NoResponse	0	0.041	573.013	6	60	Feedback	Neutral	True
575.427	2.676	Control	0.6720999999999999	n/a	No	2.676	n/a	n/a	NoResponse	0	0.0	n/a	6	60	ISIslide	Neutral	True
578.118	0.25	Lose2	0.6613	0.0	No	2.982	0.018	n/a	NoResponse	-1	n/a	n/a	5	61	Cue	Loss	True
578.369	4.0	Lose2	0.6613	0.0	No	2.982	0.001	n/a	NoResponse	-1	n/a	n/a	5	61	Fixation	Loss	True
582.364	0.18	Lose2	0.6613	0.004	No	2.982	-0.004	2.0	NoResponse	-1	0.215	581.579	5	61	Target	Loss	True
582.548	0.52	Lose2	0.6613	n/a	No	2.982	n/a	n/a	NoResponse	-1	n/a	n/a	5	61	Blank	Loss	True
582.579	0.3	Lose2	0.6613	0.004	No	2.982	-0.004	2.0	NoResponse	-1	0.215	n/a	5	61	ButtonPress	Loss	True
583.066	1.45	Lose2	0.6613	n/a	No	2.982	n/a	5.0	NoResponse	-1	0.02	582.086	5	61	Feedback	Loss	True
584.521	2.982	Lose2	0.6613	n/a	No	2.982	n/a	n/a	NoResponse	-1	0.0	n/a	5	61	ISIslide	Loss	True
587.529	0.25	Lose2	0.6667000000000001	0.001	Yes	2.871	0.029	n/a	GoodResponse	0	n/a	n/a	5	62	Cue	AvoidedLoss	True
587.78	3.9	Lose2	0.6667000000000001	0.0	Yes	2.871	0.001	n/a	GoodResponse	0	n/a	n/a	5	62	Fixation	AvoidedLoss	True
591.675	0.18	Lose2	0.6667000000000001	0.004	Yes	2.871	-0.004	2.0	GoodResponse	0	0.173	590.848	5	62	Target	AvoidedLoss	True
591.848	0.3	Lose2	0.6667000000000001	0.004	Yes	2.871	-0.004	2.0	GoodResponse	0	0.173	n/a	5	62	ButtonPress	AvoidedLoss	True
591.859	0.52	Lose2	0.6667000000000001	n/a	Yes	2.871	n/a	n/a	GoodResponse	0	n/a	n/a	5	62	Blank	AvoidedLoss	True
592.377	1.45	Lose2	0.6667000000000001	n/a	Yes	2.871	n/a	5.0	GoodResponse	0	0.027	591.404	5	62	Feedback	AvoidedLoss	True
593.832	2.871	Lose2	0.6667000000000001	n/a	Yes	2.871	n/a	n/a	GoodResponse	0	0.0	n/a	5	62	ISIslide	AvoidedLoss	True
596.724	0.25	Lose2	0.6562	0.0	No	2.626	0.024	n/a	NoResponse	-1	n/a	n/a	4	63	Cue	Loss	True
596.974	4.05	Lose2	0.6562	0.0	No	2.626	0.0	n/a	NoResponse	-1	n/a	n/a	4	63	Fixation	Loss	True
601.02	0.17	Lose2	0.6562	0.004	No	2.626	-0.004	2.0	NoResponse	-1	0.372	600.392	4	63	Target	Loss	True
601.204	0.53	Lose2	0.6562	n/a	No	2.626	n/a	n/a	NoResponse	-1	n/a	n/a	4	63	Blank	Loss	True
601.392	0.3	Lose2	0.6562	0.004	No	2.626	-0.004	2.0	NoResponse	-1	0.372	n/a	4	63	ButtonPress	Loss	True
601.722	1.45	Lose2	0.6562	n/a	No	2.626	n/a	5.0	NoResponse	-1	0.047	600.769	4	63	Feedback	Loss	True
603.176	2.626	Lose2	0.6562	n/a	No	2.626	n/a	n/a	NoResponse	-1	0.0	n/a	4	63	ISIslide	Loss	True
605.817	0.25	Win2	0.6462	0.0	No	3.133	0.017	n/a	NoResponse	0	n/a	n/a	4	64	Cue	MissedWin	True
606.068	4.15	Win2	0.6462	0.0	No	3.133	0.001	n/a	NoResponse	0	n/a	n/a	4	64	Fixation	MissedWin	True
610.214	0.17	Win2	0.6462	0.003	No	3.133	-0.003	2.0	NoResponse	0	0.193	609.407	4	64	Target	MissedWin	True
610.398	0.53	Win2	0.6462	n/a	No	3.133	n/a	n/a	NoResponse	0	n/a	n/a	4	64	Blank	MissedWin	True
610.407	0.3	Win2	0.6462	0.003	No	3.133	-0.003	2.0	NoResponse	0	0.193	n/a	4	64	ButtonPress	MissedWin	True
610.916	1.45	Win2	0.6462	n/a	No	3.133	n/a	5.0	NoResponse	0	0.023	609.939	4	64	Feedback	MissedWin	True
612.37	3.133	Win2	0.6462	n/a	No	3.133	n/a	n/a	NoResponse	0	0.0	n/a	4	64	ISIslide	MissedWin	True
615.513	0.25	Control	0.6364	0.0	No	2.787	0.013	n/a	LatePress	0	n/a	n/a	4	65	Cue	Neutral	True
615.764	4.0	Control	0.6364	0.0	No	2.787	0.001	n/a	LatePress	0	n/a	n/a	4	65	Fixation	Neutral	True
619.759	0.18	Control	0.6364	0.004	No	2.787	-0.004	2.0	LatePress	0	0.184	618.943	4	65	Target	Neutral	True
619.943	0.52	Control	0.6364	n/a	No	2.787	n/a	n/a	LatePress	0	n/a	n/a	4	65	Blank	Neutral	True
619.943	0.3	Control	0.6364	0.004	No	2.787	-0.004	2.0	LatePress	0	0.184	n/a	4	65	ButtonPress	Neutral	True
620.461	1.45	Control	0.6364	n/a	No	2.787	n/a	5.0	LatePress	0	0.039	619.5	4	65	Feedback	Neutral	True
621.915	2.787	Control	0.6364	n/a	No	2.787	n/a	n/a	LatePress	0	0.0	n/a	4	65	ISIslide	Neutral	True
624.724	0.25	Win2	0.6418	0.0	Yes	2.776	0.024	n/a	GoodResponse	1	n/a	n/a	5	66	Cue	Win	True
624.975	3.9	Win2	0.6418	0.0	Yes	2.776	0.001	n/a	GoodResponse	1	n/a	n/a	5	66	Fixation	Win	True
628.869	0.19	Win2	0.6418	0.005	Yes	2.776	-0.005	2.0	GoodResponse	1	0.151	628.02	5	66	Target	Win	True
629.02	0.3	Win2	0.6418	0.005	Yes	2.776	-0.005	2.0	GoodResponse	1	0.151	n/a	5	66	ButtonPress	Win	True
629.07	0.51	Win2	0.6418	n/a	Yes	2.776	n/a	n/a	GoodResponse	1	n/a	n/a	5	66	Blank	Win	True
629.572	1.45	Win2	0.6418	n/a	Yes	2.776	n/a	5.0	GoodResponse	1	0.001	628.573	5	66	Feedback	Win	True
631.026	2.776	Win2	0.6418	n/a	Yes	2.776	n/a	n/a	GoodResponse	1	0.0	n/a	5	66	ISIslide	Win	True
633.818	0.25	Control	0.6324000000000001	0.0	No	2.732	0.018	n/a	NoResponse	0	n/a	n/a	5	67	Cue	Neutral	True
634.068	3.95	Control	0.6324000000000001	0.0	No	2.732	0.0	n/a	NoResponse	0	n/a	n/a	5	67	Fixation	Neutral	True
638.03	0.2	Control	0.6324000000000001	0.0	No	2.732	0.012	2.0	NoResponse	0	0.402	637.432	5	67	Target	Neutral	True
638.214	0.5	Control	0.6324000000000001	n/a	No	2.732	n/a	n/a	NoResponse	0	n/a	n/a	5	67	Blank	Neutral	True
638.432	0.3	Control	0.6324000000000001	0.0	No	2.732	0.012	2.0	NoResponse	0	0.402	n/a	5	67	ButtonPress	Neutral	True
638.716	1.45	Control	0.6324000000000001	n/a	No	2.732	n/a	5.0	NoResponse	0	0.028	637.744	5	67	Feedback	Neutral	True
640.17	2.732	Control	0.6324000000000001	n/a	No	2.732	n/a	n/a	NoResponse	0	0.0	n/a	5	67	ISIslide	Neutral	True
642.928	0.25	Win2	0.6377	0.0	Yes	3.072	0.028	n/a	GoodResponse	1	n/a	n/a	6	68	Cue	Win	True
643.179	4.0	Win2	0.6377	0.0	Yes	3.072	0.001	n/a	GoodResponse	1	n/a	n/a	6	68	Fixation	Win	True
647.174	0.21	Win2	0.6377	0.004	Yes	3.072	-0.004	2.0	GoodResponse	1	0.206	646.38	6	68	Target	Win	True
647.38	0.3	Win2	0.6377	0.004	Yes	3.072	-0.004	2.0	GoodResponse	1	0.206	n/a	6	68	ButtonPress	Win	True
647.391	0.49	Win2	0.6377	n/a	Yes	3.072	n/a	n/a	GoodResponse	1	n/a	n/a	6	68	Blank	Win	True
647.876	1.45	Win2	0.6377	n/a	Yes	3.072	n/a	5.0	GoodResponse	1	0.038	646.914	6	68	Feedback	Win	True
649.331	3.072	Win2	0.6377	n/a	Yes	3.072	n/a	n/a	GoodResponse	1	0.0	n/a	6	68	ISIslide	Win	True
652.423	0.25	Win2	0.6286	0.0	No	3.227	0.023	n/a	NoResponse	0	n/a	n/a	6	69	Cue	MissedWin	False
652.674	3.95	Win2	0.6286	0.0	No	3.227	0.001	2.0	NoResponse	0	3.581	655.255	6	69	Fixation	MissedWin	False
656.255	0.3	Win2	0.6286	0.0	No	3.227	0.001	2.0	NoResponse	0	3.581	n/a	6	69	ButtonPress	MissedWin	False
656.619	0.22	Win2	0.6286	0.004	No	3.227	-0.004	2.0	NoResponse	0	0.267	655.886	6	69	Target	MissedWin	False
656.853	0.48	Win2	0.6286	n/a	No	3.227	n/a	n/a	NoResponse	0	n/a	n/a	6	69	Blank	MissedWin	False
656.886	0.3	Win2	0.6286	0.004	No	3.227	-0.004	2.0	NoResponse	0	0.267	n/a	6	69	ButtonPress	MissedWin	False
657.321	1.45	Win2	0.6286	n/a	No	3.227	n/a	5.0	NoResponse	0	0.008	656.329	6	69	Feedback	MissedWin	False
658.775	3.227	Win2	0.6286	n/a	No	3.227	n/a	n/a	NoResponse	0	0.0	n/a	6	69	ISIslide	MissedWin	False
662.018	0.25	Lose2	0.6338	0.0	Yes	3.032	0.018	n/a	GoodResponse	0	n/a	n/a	6	70	Cue	AvoidedLoss	True
662.269	4.05	Lose2	0.6338	0.0	Yes	3.032	0.001	n/a	GoodResponse	0	n/a	n/a	6	70	Fixation	AvoidedLoss	True
666.315	0.23	Lose2	0.6338	0.003	Yes	3.032	-0.003	2.0	GoodResponse	0	0.205	665.52	6	70	Target	AvoidedLoss	True
666.52	0.3	Lose2	0.6338	0.003	Yes	3.032	-0.003	2.0	GoodResponse	0	0.205	n/a	6	70	ButtonPress	AvoidedLoss	True
666.549	0.47	Lose2	0.6338	n/a	Yes	3.032	n/a	n/a	GoodResponse	0	n/a	n/a	6	70	Blank	AvoidedLoss	True
667.017	1.45	Lose2	0.6338	n/a	Yes	3.032	n/a	5.0	GoodResponse	0	0.019	666.036	6	70	Feedback	AvoidedLoss	True
668.471	3.032	Lose2	0.6338	n/a	Yes	3.032	n/a	n/a	GoodResponse	0	0.0	n/a	6	70	ISIslide	AvoidedLoss	True
671.53	0.25	Win2	0.625	0.0	No	2.72	0.03	n/a	LatePress	0	n/a	n/a	6	71	Cue	MissedWin	True
671.781	4.05	Win2	0.625	0.0	No	2.72	0.001	n/a	LatePress	0	n/a	n/a	6	71	Fixation	MissedWin	True
675.826	0.24	Win2	0.625	0.004	No	2.72	-0.004	2.0	LatePress	0	0.246	675.072	6	71	Target	MissedWin	True
676.072	0.3	Win2	0.625	0.004	No	2.72	-0.004	2.0	LatePress	0	0.246	n/a	6	71	ButtonPress	MissedWin	True
676.077	0.46	Win2	0.625	n/a	No	2.72	n/a	n/a	LatePress	0	n/a	n/a	6	71	Blank	MissedWin	True
676.528	1.45	Win2	0.625	n/a	No	2.72	n/a	5.0	LatePress	0	0.02	675.548	6	71	Feedback	MissedWin	True
677.983	2.72	Win2	0.625	n/a	No	2.72	n/a	n/a	LatePress	0	0.0	n/a	6	71	ISIslide	MissedWin	True
680.724	0.25	Win2	0.6301	0.0	Yes	2.776	0.024	n/a	GoodResponse	1	n/a	n/a	7	72	Cue	Win	True
680.975	4.1	Win2	0.6301	0.0	Yes	2.776	0.001	n/a	GoodResponse	1	n/a	n/a	7	72	Fixation	Win	True
685.07	0.25	Win2	0.6301	0.004	Yes	2.776	-0.004	2.0	GoodResponse	1	0.197	684.267	7	72	Target	Win	True
685.267	0.3	Win2	0.6301	0.004	Yes	2.776	-0.004	2.0	GoodResponse	1	0.197	n/a	7	72	ButtonPress	Win	True
685.321	0.45	Win2	0.6301	n/a	Yes	2.776	n/a	n/a	GoodResponse	1	n/a	n/a	7	72	Blank	Win	True
685.773	1.45	Win2	0.6301	n/a	Yes	2.776	n/a	5.0	GoodResponse	1	0.043	684.816	7	72	Feedback	Win	True
687.227	2.776	Win2	0.6301	n/a	Yes	2.776	n/a	n/a	GoodResponse	1	0.0	n/a	7	72	ISIslide	Win	True
690.019	0.25	Win2	0.6351	0.0	Yes	2.681	0.019	n/a	GoodResponse	1	n/a	n/a	8	73	Cue	Win	True
690.269	4.0	Win2	0.6351	0.0	Yes	2.681	0.0	n/a	GoodResponse	1	n/a	n/a	8	73	Fixation	Win	True
694.265	0.26	Win2	0.6351	0.004	Yes	2.681	-0.004	2.0	GoodResponse	1	0.167	693.432	8	73	Target	Win	True
694.432	0.3	Win2	0.6351	0.004	Yes	2.681	-0.004	2.0	GoodResponse	1	0.167	n/a	8	73	ButtonPress	Win	True
694.532	0.44	Win2	0.6351	n/a	Yes	2.681	n/a	n/a	GoodResponse	1	n/a	n/a	8	73	Blank	Win	True
694.967	1.45	Win2	0.6351	n/a	Yes	2.681	n/a	5.0	GoodResponse	1	0.02	693.987	8	73	Feedback	Win	True
696.421	2.681	Win2	0.6351	n/a	Yes	2.681	n/a	n/a	GoodResponse	1	0.0	n/a	8	73	ISIslide	Win	True
699.129	0.25	Lose2	0.64	0.0	Yes	2.621	0.029	n/a	GoodResponse	0	n/a	n/a	8	74	Cue	AvoidedLoss	True
699.38	4.05	Lose2	0.64	0.0	Yes	2.621	0.001	n/a	GoodResponse	0	n/a	n/a	8	74	Fixation	AvoidedLoss	True
703.425	0.27	Lose2	0.64	0.004	Yes	2.621	-0.004	2.0	GoodResponse	0	0.217	702.642	8	74	Target	AvoidedLoss	True
703.642	0.3	Lose2	0.64	0.004	Yes	2.621	-0.004	2.0	GoodResponse	0	0.217	n/a	8	74	ButtonPress	AvoidedLoss	True
703.709	0.43	Lose2	0.64	n/a	Yes	2.621	n/a	n/a	GoodResponse	0	n/a	n/a	8	74	Blank	AvoidedLoss	True
704.127	1.45	Lose2	0.64	n/a	Yes	2.621	n/a	5.0	GoodResponse	0	0.03	703.157	8	74	Feedback	AvoidedLoss	True
705.582	2.621	Lose2	0.64	n/a	Yes	2.621	n/a	n/a	GoodResponse	0	0.0	n/a	8	74	ISIslide	AvoidedLoss	True
708.223	0.25	Lose2	0.6446999999999999	0.0	Yes	2.927	0.023	n/a	GoodResponse	0	n/a	n/a	8	75	Cue	AvoidedLoss	True
708.474	3.95	Lose2	0.6446999999999999	0.0	Yes	2.927	0.001	n/a	GoodResponse	0	n/a	n/a	8	75	Fixation	AvoidedLoss	True
712.419	0.28	Lose2	0.6446999999999999	0.004	Yes	2.927	-0.004	2.0	GoodResponse	0	0.172	711.591	8	75	Target	AvoidedLoss	True
712.591	0.3	Lose2	0.6446999999999999	0.004	Yes	2.927	-0.004	2.0	GoodResponse	0	0.172	n/a	8	75	ButtonPress	AvoidedLoss	True
712.703	0.42	Lose2	0.6446999999999999	n/a	Yes	2.927	n/a	n/a	GoodResponse	0	n/a	n/a	8	75	Blank	AvoidedLoss	True
713.121	1.45	Lose2	0.6446999999999999	n/a	Yes	2.927	n/a	5.0	GoodResponse	0	0.012	712.133	8	75	Feedback	AvoidedLoss	True
714.575	2.927	Lose2	0.6446999999999999	n/a	Yes	2.927	n/a	n/a	GoodResponse	0	0.0	n/a	8	75	ISIslide	AvoidedLoss	True
717.517	0.25	Control	0.6364	0.0	No	3.233	0.017	n/a	NoResponse	0	n/a	n/a	8	76	Cue	Neutral	True
717.768	4.05	Control	0.6364	0.0	No	3.233	0.001	n/a	NoResponse	0	n/a	n/a	8	76	Fixation	Neutral	True
721.813	0.29	Control	0.6364	0.004	No	3.233	-0.004	2.0	NoResponse	0	0.53	721.343	8	76	Target	Neutral	True
722.114	0.41	Control	0.6364	n/a	No	3.233	n/a	n/a	NoResponse	0	n/a	n/a	8	76	Blank	Neutral	True
722.343	0.3	Control	0.6364	0.004	No	3.233	-0.004	2.0	NoResponse	0	0.53	n/a	8	76	ButtonPress	Neutral	True
722.515	1.45	Control	0.6364	n/a	No	3.233	n/a	5.0	NoResponse	0	0.032	721.547	8	76	Feedback	Neutral	True
723.97	3.233	Control	0.6364	n/a	No	3.233	n/a	n/a	NoResponse	0	0.0	n/a	8	76	ISIslide	Neutral	True
727.23	0.25	Lose2	0.6409999999999999	0.0	Yes	2.57	0.03	n/a	GoodResponse	0	n/a	n/a	8	77	Cue	AvoidedLoss	True
727.48	3.95	Lose2	0.6409999999999999	0.0	Yes	2.57	0.0	n/a	GoodResponse	0	n/a	n/a	8	77	Fixation	AvoidedLoss	True
731.442	0.3	Lose2	0.6409999999999999	0.0	Yes	2.57	0.012	2.0	GoodResponse	0	0.19	730.632	8	77	Target	AvoidedLoss	True
731.632	0.3	Lose2	0.6409999999999999	0.0	Yes	2.57	0.012	2.0	GoodResponse	0	0.19	n/a	8	77	ButtonPress	AvoidedLoss	True
731.726	0.4	Lose2	0.6409999999999999	n/a	Yes	2.57	n/a	n/a	GoodResponse	0	n/a	n/a	8	77	Blank	AvoidedLoss	True
732.127	1.45	Lose2	0.6409999999999999	n/a	Yes	2.57	n/a	5.0	GoodResponse	0	0.029	731.156	8	77	Feedback	AvoidedLoss	True
733.582	2.57	Lose2	0.6409999999999999	n/a	Yes	2.57	n/a	n/a	GoodResponse	0	0.0	n/a	8	77	ISIslide	AvoidedLoss	True
