onset	duration	cue_type	current_mean_accuracy	duration_error	is_hit	isi_adjusted	onset_delay	response	response_type	reward	rt	rt_time	total_reward	trial_number	trial_phase	trial_type	one_press
11.107	0.25	Control	1.0	0.001	Yes	2.943	0.007	n/a	GoodResponse	0	n/a	n/a	0	0	Cue	Neutral	True
11.357	3.85	Control	1.0	0.0	Yes	2.943	0.0	n/a	GoodResponse	0	n/a	n/a	0	0	Fixation	Neutral	True
15.206	0.4	Control	1.0	0.001	Yes	2.943	-0.001	3.0	GoodResponse	0	0.236	14.442	0	0	Target	Neutral	True
15.442	0.3	Control	1.0	0.001	Yes	2.943	-0.001	3.0	GoodResponse	0	0.236	n/a	0	0	ButtonPress	Neutral	True
15.606	0.3	Control	1.0	n/a	Yes	2.943	n/a	n/a	GoodResponse	0	n/a	n/a	0	0	Blank	Neutral	True
15.906	1.45	Control	1.0	n/a	Yes	2.943	n/a	5.0	GoodResponse	0	0.02	14.926	0	0	Feedback	Neutral	True
17.355	2.943	Control	1.0	n/a	Yes	2.943	n/a	n/a	GoodResponse	0	0.0	n/a	0	0	ISIslide	Neutral	True
20.321	0.25	Lose2	1.0	0.0	Yes	2.779	0.021	n/a	GoodResponse	0	n/a	n/a	0	1	Cue	AvoidedLoss	True
20.571	4.0	Lose2	1.0	0.0	Yes	2.779	0.0	n/a	GoodResponse	0	n/a	n/a	0	1	Fixation	AvoidedLoss	True
24.569	0.39	Lose2	1.0	0.002	Yes	2.779	-0.002	3.0	GoodResponse	0	0.217	23.786	0	1	Target	AvoidedLoss	True
24.786	0.3	Lose2	1.0	0.002	Yes	2.779	-0.002	3.0	GoodResponse	0	0.217	n/a	0	1	ButtonPress	AvoidedLoss	True
24.969	0.31	Lose2	1.0	n/a	Yes	2.779	n/a	n/a	GoodResponse	0	n/a	n/a	0	1	Blank	AvoidedLoss	True
25.269	1.45	Lose2	1.0	n/a	Yes	2.779	n/a	5.0	GoodResponse	0	0.023	24.292	0	1	Feedback	AvoidedLoss	True
26.719	2.779	Lose2	1.0	n/a	Yes	2.779	n/a	n/a	GoodResponse	0	0.0	n/a	0	1	ISIslide	AvoidedLoss	True
29.518	0.25	Control	1.0	0.0	Yes	2.582	0.018	n/a	GoodResponse	0	n/a	n/a	0	2	Cue	Neutral	True
29.768	4.1	Control	1.0	0.0	Yes	2.582	0.0	n/a	GoodResponse	0	n/a	n/a	0	2	Fixation	Neutral	True
33.866	0.38	Control	1.0	0.002	Yes	2.582	-0.002	3.0	GoodResponse	0	0.217	33.083	0	2	Target	Neutral	True
34.083	0.3	Control	1.0	0.002	Yes	2.582	-0.002	3.0	GoodResponse	0	0.217	n/a	0	2	ButtonPress	Neutral	True
34.249	0.32	Control	1.0	n/a	Yes	2.582	n/a	n/a	GoodResponse	0	n/a	n/a	0	2	Blank	Neutral	True
34.566	1.45	Control	1.0	n/a	Yes	2.582	n/a	5.0	GoodResponse	0	0.043	33.609	0	2	Feedback	Neutral	True
36.015	2.582	Control	1.0	n/a	Yes	2.582	n/a	n/a	GoodResponse	0	0.0	n/a	0	2	ISIslide	Neutral	True
38.615	0.25	Win2	1.0	0.0	Yes	2.835	0.015	n/a	GoodResponse	1	n/a	n/a	1	3	Cue	Win	True
38.864	3.95	Win2	1.0	0.001	Yes	2.835	-0.001	n/a	GoodResponse	1	n/a	n/a	1	3	Fixation	Win	True
42.813	0.37	Win2	1.0	0.002	Yes	2.835	-0.002	3.0	GoodResponse	1	0.223	42.036	1	3	Target	Win	True
43.036	0.3	Win2	1.0	0.002	Yes	2.835	-0.002	3.0	GoodResponse	1	0.223	n/a	1	3	ButtonPress	Win	True
43.196	0.33	Win2	1.0	n/a	Yes	2.835	n/a	n/a	GoodResponse	1	n/a	n/a	1	3	Blank	Win	True
43.513	1.45	Win2	1.0	n/a	Yes	2.835	n/a	5.0	GoodResponse	1	0.023	42.536	1	3	Feedback	Win	True
44.962	2.835	Win2	1.0	n/a	Yes	2.835	n/a	n/a	GoodResponse	1	0.0	n/a	1	3	ISIslide	Win	True
47.828	0.25	Win2	1.0	0.0	Yes	3.272	0.028	n/a	GoodResponse	1	n/a	n/a	2	4	Cue	Win	True
48.078	4.0	Win2	1.0	0.0	Yes	3.272	0.0	n/a	GoodResponse	1	n/a	n/a	2	4	Fixation	Win	True
52.076	0.36	Win2	1.0	0.002	Yes	3.272	-0.002	3.0	GoodResponse	1	0.233	51.309	2	4	Target	Win	True
52.309	0.3	Win2	1.0	0.002	Yes	3.272	-0.002	3.0	GoodResponse	1	0.233	n/a	2	4	ButtonPress	Win	True
52.443	0.34	Win2	1.0	n/a	Yes	3.272	n/a	n/a	GoodResponse	1	n/a	n/a	2	4	Blank	Win	True
52.776	1.45	Win2	1.0	n/a	Yes	3.272	n/a	5.0	GoodResponse	1	0.028	51.804	2	4	Feedback	Win	True
54.226	3.272	Win2	1.0	n/a	Yes	3.272	n/a	n/a	GoodResponse	1	0.0	n/a	2	4	ISIslide	Win	True
57.525	0.25	Win2	1.0	0.0	Yes	2.775	0.025	n/a	GoodResponse	1	n/a	n/a	3	5	Cue	Win	True
57.775	4.0	Win2	1.0	0.0	Yes	2.775	0.0	n/a	GoodResponse	1	n/a	n/a	3	5	Fixation	Win	True
61.773	0.35	Win2	1.0	0.002	Yes	2.775	-0.002	3.0	GoodResponse	1	0.23	61.003	3	5	Target	Win	True
62.003	0.3	Win2	1.0	0.002	Yes	2.775	-0.002	3.0	GoodResponse	1	0.23	n/a	3	5	ButtonPress	Win	True
62.123	0.35	Win2	1.0	n/a	Yes	2.775	n/a	n/a	GoodResponse	1	n/a	n/a	3	5	Blank	Win	True
62.473	1.45	Win2	1.0	n/a	Yes	2.775	n/a	5.0	GoodResponse	1	0.038	61.511	3	5	Feedback	Win	True
63.922	2.775	Win2	1.0	n/a	Yes	2.775	n/a	n/a	GoodResponse	1	0.0	n/a	3	5	ISIslide	Win	True
66.721	0.25	Lose2	1.0	0.0	Yes	2.729	0.021	n/a	GoodResponse	0	n/a	n/a	3	6	Cue	AvoidedLoss	True
66.971	3.95	Lose2	1.0	0.0	Yes	2.729	0.0	n/a	GoodResponse	0	n/a	n/a	3	6	Fixation	AvoidedLoss	True
70.92	0.34	Lose2	1.0	0.001	Yes	2.729	-0.001	3.0	GoodResponse	0	0.232	70.152	3	6	Target	AvoidedLoss	True
71.152	0.3	Lose2	1.0	0.001	Yes	2.729	-0.001	3.0	GoodResponse	0	0.232	n/a	3	6	ButtonPress	AvoidedLoss	True
71.27	0.36	Lose2	1.0	n/a	Yes	2.729	n/a	n/a	GoodResponse	0	n/a	n/a	3	6	Blank	AvoidedLoss	True
71.62	1.45	Lose2	1.0	n/a	Yes	2.729	n/a	5.0	GoodResponse	0	0.013	70.633	3	6	Feedback	AvoidedLoss	True
73.069	2.729	Lose2	1.0	n/a	Yes	2.729	n/a	n/a	GoodResponse	0	0.0	n/a	3	6	ISIslide	AvoidedLoss	True
75.818	0.25	Lose2	1.0	0.0	Yes	4.032	0.018	n/a	GoodResponse	0	n/a	n/a	3	7	Cue	AvoidedLoss	True
76.068	4.05	Lose2	1.0	0.0	Yes	4.032	0.0	n/a	GoodResponse	0	n/a	n/a	3	7	Fixation	AvoidedLoss	True
80.117	0.33	Lose2	1.0	0.001	Yes	4.032	-0.001	3.0	GoodResponse	0	0.225	79.342	3	7	Target	AvoidedLoss	True
80.342	0.3	Lose2	1.0	0.001	Yes	4.032	-0.001	3.0	GoodResponse	0	0.225	n/a	3	7	ButtonPress	AvoidedLoss	True
80.45	0.37	Lose2	1.0	n/a	Yes	4.032	n/a	n/a	GoodResponse	0	n/a	n/a	3	7	Blank	AvoidedLoss	True
80.816	1.45	Lose2	1.0	n/a	Yes	4.032	n/a	5.0	GoodResponse	0	0.037	79.853	3	7	Feedback	AvoidedLoss	True
82.266	4.032	Lose2	1.0	n/a	Yes	4.032	n/a	n/a	GoodResponse	0	0.0	n/a	3	7	ISIslide	AvoidedLoss	True
86.331	0.25	Lose2	1.0	0.0	Yes	3.019	0.031	n/a	GoodResponse	0	n/a	n/a	3	8	Cue	AvoidedLoss	True
86.581	3.95	Lose2	1.0	0.0	Yes	3.019	0.0	n/a	GoodResponse	0	n/a	n/a	3	8	Fixation	AvoidedLoss	True
90.53	0.32	Lose2	1.0	0.001	Yes	3.019	-0.001	3.0	GoodResponse	0	0.222	89.752	3	8	Target	AvoidedLoss	True
90.752	0.3	Lose2	1.0	0.001	Yes	3.019	-0.001	3.0	GoodResponse	0	0.222	n/a	3	8	ButtonPress	AvoidedLoss	True
90.863	0.38	Lose2	1.0	n/a	Yes	3.019	n/a	n/a	GoodResponse	0	n/a	n/a	3	8	Blank	AvoidedLoss	True
91.23	1.45	Lose2	1.0	n/a	Yes	3.019	n/a	5.0	GoodResponse	0	0.012	90.242	3	8	Feedback	AvoidedLoss	True
92.679	3.019	Lose2	1.0	n/a	Yes	3.019	n/a	n/a	GoodResponse	0	0.0	n/a	3	8	ISIslide	AvoidedLoss	True
95.728	0.25	Lose2	1.0	0.0	Yes	3.122	0.028	n/a	GoodResponse	0	n/a	n/a	3	9	Cue	AvoidedLoss	True
95.978	3.95	Lose2	1.0	0.0	Yes	3.122	0.0	n/a	GoodResponse	0	n/a	n/a	3	9	Fixation	AvoidedLoss	True
99.926	0.31	Lose2	1.0	0.002	Yes	3.122	-0.002	3.0	GoodResponse	0	0.199	99.125	3	9	Target	AvoidedLoss	True
100.125	0.3	Lose2	1.0	0.002	Yes	3.122	-0.002	3.0	GoodResponse	0	0.199	n/a	3	9	ButtonPress	AvoidedLoss	True
100.243	0.39	Lose2	1.0	n/a	Yes	3.122	n/a	n/a	GoodResponse	0	n/a	n/a	3	9	Blank	AvoidedLoss	True
100.626	1.45	Lose2	1.0	n/a	Yes	3.122	n/a	5.0	GoodResponse	0	0.031	99.657	3	9	Feedback	AvoidedLoss	True
102.076	3.122	Lose2	1.0	n/a	Yes	3.122	n/a	n/a	GoodResponse	0	0.0	n/a	3	9	ISIslide	AvoidedLoss	True
105.225	0.25	Control	1.0	0.0	Yes	3.275	0.025	n/a	GoodResponse	0	n/a	n/a	3	10	Cue	Neutral	True
105.475	4.0	Control	1.0	0.0	Yes	3.275	0.0	n/a	GoodResponse	0	n/a	n/a	3	10	Fixation	Neutral	True
109.473	0.3	Control	1.0	0.002	Yes	3.275	-0.002	3.0	GoodResponse	0	0.234	108.707	3	10	Target	Neutral	True
109.707	0.3	Control	1.0	0.002	Yes	3.275	-0.002	3.0	GoodResponse	0	0.234	n/a	3	10	ButtonPress	Neutral	True
109.773	0.4	Control	1.0	n/a	Yes	3.275	n/a	n/a	GoodResponse	0	n/a	n/a	3	10	Blank	Neutral	True
110.173	1.45	Control	1.0	n/a	Yes	3.275	n/a	5.0	GoodResponse	0	0.045	109.218	3	10	Feedback	Neutral	True
111.622	3.275	Control	1.0	n/a	Yes	3.275	n/a	n/a	GoodResponse	0	0.0	n/a	3	10	ISIslide	Neutral	True
114.921	0.25	Lose2	1.0	0.0	Yes	2.729	0.021	n/a	GoodResponse	0	n/a	n/a	3	11	Cue	AvoidedLoss	True
115.171	4.05	Lose2	1.0	0.0	Yes	2.729	0.0	n/a	GoodResponse	0	n/a	n/a	3	11	Fixation	AvoidedLoss	True
119.22	0.29	Lose2	1.0	0.001	Yes	2.729	-0.001	3.0	GoodResponse	0	0.219	118.439	3	11	Target	AvoidedLoss	True
119.439	0.3	Lose2	1.0	0.001	Yes	2.729	-0.001	3.0	GoodResponse	0	0.219	n/a	3	11	ButtonPress	AvoidedLoss	True
119.52	0.41	Lose2	1.0	n/a	Yes	2.729	n/a	n/a	GoodResponse	0	n/a	n/a	3	11	Blank	AvoidedLoss	True
119.919	1.45	Lose2	1.0	n/a	Yes	2.729	n/a	5.0	GoodResponse	0	0.007	118.926	3	11	Feedback	AvoidedLoss	True
121.369	2.729	Lose2	1.0	n/a	Yes	2.729	n/a	n/a	GoodResponse	0	0.0	n/a	3	11	ISIslide	AvoidedLoss	True
124.118	0.25	Control	1.0	0.0	Yes	2.982	0.018	n/a	GoodResponse	0	n/a	n/a	3	12	Cue	Neutral	True
124.368	3.9	Control	1.0	0.0	Yes	2.982	0.0	n/a	GoodResponse	0	n/a	n/a	3	12	Fixation	Neutral	True
128.267	0.28	Control	1.0	0.001	Yes	2.982	-0.001	3.0	GoodResponse	0	0.249	127.516	3	12	Target	Neutral	True
128.516	0.3	Control	1.0	0.001	Yes	2.982	-0.001	3.0	GoodResponse	0	0.249	n/a	3	12	ButtonPress	Neutral	True
128.55	0.42	Control	1.0	n/a	Yes	2.982	n/a	n/a	GoodResponse	0	n/a	n/a	3	12	Blank	Neutral	True
128.966	1.45	Control	1.0	n/a	Yes	2.982	n/a	5.0	GoodResponse	0	0.033	127.999	3	12	Feedback	Neutral	True
130.416	2.982	Control	1.0	n/a	Yes	2.982	n/a	n/a	GoodResponse	0	0.0	n/a	3	12	ISIslide	Neutral	True
133.415	0.25	Control	1.0	0.0	Yes	2.785	0.015	n/a	GoodResponse	0	n/a	n/a	3	13	Cue	Neutral	True
133.665	4.0	Control	1.0	0.0	Yes	2.785	0.0	n/a	GoodResponse	0	n/a	n/a	3	13	Fixation	Neutral	True
137.663	0.27	Control	1.0	0.002	Yes	2.785	-0.002	3.0	GoodResponse	0	0.229	136.892	3	13	Target	Neutral	True
137.892	0.3	Control	1.0	0.002	Yes	2.785	-0.002	3.0	GoodResponse	0	0.229	n/a	3	13	ButtonPress	Neutral	True
137.947	0.43	Control	1.0	n/a	Yes	2.785	n/a	n/a	GoodResponse	0	n/a	n/a	3	13	Blank	Neutral	True
138.363	1.45	Control	1.0	n/a	Yes	2.785	n/a	5.0	GoodResponse	0	0.001	137.364	3	13	Feedback	Neutral	True
139.813	2.785	Control	1.0	n/a	Yes	2.785	n/a	n/a	GoodResponse	0	0.0	n/a	3	13	ISIslide	Neutral	True
142.628	0.25	Win2	1.0	0.0	Yes	2.672	0.028	n/a	GoodResponse	1	n/a	n/a	4	14	Cue	Win	True
142.878	4.1	Win2	1.0	0.0	Yes	2.672	0.0	n/a	GoodResponse	1	n/a	n/a	4	14	Fixation	Win	True
146.977	0.26	Win2	1.0	0.001	Yes	2.672	-0.001	3.0	GoodResponse	1	0.204	146.181	4	14	Target	Win	True
147.181	0.3	Win2	1.0	0.001	Yes	2.672	-0.001	3.0	GoodResponse	1	0.204	n/a	4	14	ButtonPress	Win	True
147.243	0.44	Win2	1.0	n/a	Yes	2.672	n/a	n/a	GoodResponse	1	n/a	n/a	4	14	Blank	Win	True
147.676	1.45	Win2	1.0	n/a	Yes	2.672	n/a	5.0	GoodResponse	1	0.007	146.683	4	14	Feedback	Win	True
149.126	2.672	Win2	1.0	n/a	Yes	2.672	n/a	n/a	GoodResponse	1	0.0	n/a	4	14	ISIslide	Win	True
151.825	0.25	Control	1.0	0.0	Yes	2.975	0.025	n/a	GoodResponse	0	n/a	n/a	4	15	Cue	Neutral	True
152.075	4.0	Control	1.0	0.0	Yes	2.975	0.0	n/a	GoodResponse	0	n/a	n/a	4	15	Fixation	Neutral	True
156.074	0.25	Control	1.0	0.001	Yes	2.975	-0.001	3.0	GoodResponse	0	0.233	155.307	4	15	Target	Neutral	True
156.307	0.3	Control	1.0	0.001	Yes	2.975	-0.001	3.0	GoodResponse	0	0.233	n/a	4	15	ButtonPress	Neutral	True
156.323	0.45	Control	1.0	n/a	Yes	2.975	n/a	n/a	GoodResponse	0	n/a	n/a	4	15	Blank	Neutral	True
156.773	1.45	Control	1.0	n/a	Yes	2.975	n/a	5.0	GoodResponse	0	0.03	155.803	4	15	Feedback	Neutral	True
158.223	2.975	Control	1.0	n/a	Yes	2.975	n/a	n/a	GoodResponse	0	0.0	n/a	4	15	ISIslide	Neutral	True
161.222	0.25	Win2	1.0	0.0	Yes	2.878	0.022	n/a	GoodResponse	1	n/a	n/a	5	16	Cue	Win	True
161.472	4.0	Win2	1.0	0.0	Yes	2.878	0.0	n/a	GoodResponse	1	n/a	n/a	5	16	Fixation	Win	True
165.47	0.24	Win2	1.0	0.002	Yes	2.878	-0.002	3.0	GoodResponse	1	0.213	164.683	5	16	Target	Win	True
165.683	0.3	Win2	1.0	0.002	Yes	2.878	-0.002	3.0	GoodResponse	1	0.213	n/a	5	16	ButtonPress	Win	True
165.72	0.46	Win2	1.0	n/a	Yes	2.878	n/a	n/a	GoodResponse	1	n/a	n/a	5	16	Blank	Win	True
166.17	1.45	Win2	1.0	n/a	Yes	2.878	n/a	5.0	GoodResponse	1	0.048	165.218	5	16	Feedback	Win	True
167.62	2.878	Win2	1.0	n/a	Yes	2.878	n/a	n/a	GoodResponse	1	0.0	n/a	5	16	ISIslide	Win	True
170.519	0.25	Lose2	0.9444	0.0	No	2.731	0.019	n/a	NoResponse	-1	n/a	n/a	4	17	Cue	Loss	True
170.768	3.95	Lose2	0.9444	0.001	No	2.731	-0.001	n/a	NoResponse	-1	n/a	n/a	4	17	Fixation	Loss	True
174.717	0.23	Lose2	0.9444	0.002	No	2.731	-0.002	3.0	NoResponse	-1	0.243	173.96	4	17	Target	Loss	True
174.95	0.47	Lose2	0.9444	n/a	No	2.731	n/a	n/a	NoResponse	-1	n/a	n/a	4	17	Blank	Loss	True
174.96	0.3	Lose2	0.9444	0.002	No	2.731	-0.002	3.0	NoResponse	-1	0.243	n/a	4	17	ButtonPress	Loss	True
175.417	1.45	Lose2	0.9444	n/a	No	2.731	n/a	5.0	NoResponse	-1	0.021	174.438	4	17	Feedback	Loss	True
176.866	2.731	Lose2	0.9444	n/a	No	2.731	n/a	n/a	NoResponse	-1	0.0	n/a	4	17	ISIslide	Loss	True
179.615	0.25	Lose2	0.9473999999999999	0.0	Yes	2.735	0.015	n/a	GoodResponse	0	n/a	n/a	4	18	Cue	AvoidedLoss	True
179.865	4.05	Lose2	0.9473999999999999	0.0	Yes	2.735	0.0	n/a	GoodResponse	0	n/a	n/a	4	18	Fixation	AvoidedLoss	True
183.914	0.22	Lose2	0.9473999999999999	0.001	Yes	2.735	-0.001	3.0	GoodResponse	0	0.191	183.105	4	18	Target	AvoidedLoss	True
184.105	0.3	Lose2	0.9473999999999999	0.001	Yes	2.735	-0.001	3.0	GoodResponse	0	0.191	n/a	4	18	ButtonPress	AvoidedLoss	True
184.13	0.48	Lose2	0.9473999999999999	n/a	Yes	2.735	n/a	n/a	GoodResponse	0	n/a	n/a	4	18	Blank	AvoidedLoss	True
184.614	1.45	Lose2	0.9473999999999999	n/a	Yes	2.735	n/a	5.0	GoodResponse	0	0.043	183.657	4	18	Feedback	AvoidedLoss	True
186.063	2.735	Lose2	0.9473999999999999	n/a	Yes	2.735	n/a	n/a	GoodResponse	0	0.0	n/a	4	18	ISIslide	AvoidedLoss	True
188.829	0.25	Control	0.9	0.0	No	2.921	0.029	n/a	NoResponse	0	n/a	n/a	4	19	Cue	Neutral	True
189.079	3.95	Control	0.9	0.0	No	2.921	0.0	n/a	NoResponse	0	n/a	n/a	4	19	Fixation	Neutral	True
193.027	0.21	Control	0.9	0.002	No	2.921	-0.002	3.0	NoResponse	0	0.281	192.308	4	19	Target	Neutral	True
193.244	0.49	Control	0.9	n/a	No	2.921	n/a	n/a	NoResponse	0	n/a	n/a	4	19	Blank	Neutral	True
193.308	0.3	Control	0.9	0.002	No	2.921	-0.002	3.0	NoResponse	0	0.281	n/a	4	19	ButtonPress	Neutral	True
193.727	1.45	Control	0.9	n/a	No	2.921	n/a	5.0	NoResponse	0	0.007	192.734	4	19	Feedback	Neutral	True
195.177	2.921	Control	0.9	n/a	No	2.921	n/a	n/a	NoResponse	0	0.0	n/a	4	19	ISIslide	Neutral	True
198.126	0.25	Control	0.8571	0.0	No	2.624	0.026	n/a	NoResponse	0	n/a	n/a	4	20	Cue	Neutral	True
198.375	4.05	Control	0.8571	0.001	No	2.624	-0.001	n/a	NoResponse	0	n/a	n/a	4	20	Fixation	Neutral	True
202.424	0.2	Control	0.8571	0.002	No	2.624	-0.002	3.0	NoResponse	0	0.236	201.66	4	20	Target	Neutral	True
202.624	0.5	Control	0.8571	n/a	No	2.624	n/a	n/a	NoResponse	0	n/a	n/a	4	20	Blank	Neutral	True
202.66	0.3	Control	0.8571	0.002	No	2.624	-0.002	3.0	NoResponse	0	0.236	n/a	4	20	ButtonPress	Neutral	True
203.124	1.45	Control	0.8571	n/a	No	2.624	n/a	5.0	NoResponse	0	0.02	202.144	4	20	Feedback	Neutral	True
204.573	2.624	Control	0.8571	n/a	No	2.624	n/a	n/a	NoResponse	0	0.0	n/a	4	20	ISIslide	Neutral	True
207.222	0.25	Control	0.8181999999999999	0.0	No	2.778	0.022	n/a	NoResponse	0	n/a	n/a	4	21	Cue	Neutral	True
207.472	4.1	Control	0.8181999999999999	0.0	No	2.778	0.0	n/a	NoResponse	0	n/a	n/a	4	21	Fixation	Neutral	True
211.571	0.19	Control	0.8181999999999999	0.001	No	2.778	-0.001	3.0	NoResponse	0	0.217	210.788	4	21	Target	Neutral	True
211.771	0.51	Control	0.8181999999999999	n/a	No	2.778	n/a	n/a	NoResponse	0	n/a	n/a	4	21	Blank	Neutral	True
211.788	0.3	Control	0.8181999999999999	0.001	No	2.778	-0.001	3.0	NoResponse	0	0.217	n/a	4	21	ButtonPress	Neutral	True
212.271	1.45	Control	0.8181999999999999	n/a	No	2.778	n/a	5.0	NoResponse	0	0.044	211.315	4	21	Feedback	Neutral	True
213.72	2.778	Control	0.8181999999999999	n/a	No	2.778	n/a	n/a	NoResponse	0	0.0	n/a	4	21	ISIslide	Neutral	True
216.519	0.25	Control	0.7826000000000001	0.0	No	2.781	0.019	n/a	NoResponse	0	n/a	n/a	4	22	Cue	Neutral	True
216.769	4.0	Control	0.7826000000000001	0.0	No	2.781	0.0	n/a	NoResponse	0	n/a	n/a	4	22	Fixation	Neutral	True
220.768	0.18	Control	0.7826000000000001	0.001	No	2.781	-0.001	3.0	NoResponse	0	0.217	219.985	4	22	Target	Neutral	True
220.951	0.52	Control	0.7826000000000001	n/a	No	2.781	n/a	n/a	NoResponse	0	n/a	n/a	4	22	Blank	Neutral	True
220.985	0.3	Control	0.7826000000000001	0.001	No	2.781	-0.001	3.0	NoResponse	0	0.217	n/a	4	22	ButtonPress	Neutral	True
221.467	1.45	Control	0.7826000000000001	n/a	No	2.781	n/a	5.0	NoResponse	0	0.019	220.486	4	22	Feedback	Neutral	True
222.917	2.781	Control	0.7826000000000001	n/a	No	2.781	n/a	n/a	NoResponse	0	0.0	n/a	4	22	ISIslide	Neutral	True
225.716	0.25	Control	0.75	0.0	No	2.784	0.016	n/a	NoResponse	0	n/a	n/a	4	23	Cue	Neutral	True
225.966	3.9	Control	0.75	0.0	No	2.784	0.0	n/a	NoResponse	0	n/a	n/a	4	23	Fixation	Neutral	True
229.864	0.17	Control	0.75	0.002	No	2.784	-0.002	3.0	NoResponse	0	0.203	229.067	4	23	Target	Neutral	True
230.048	0.53	Control	0.75	n/a	No	2.784	n/a	n/a	NoResponse	0	n/a	n/a	4	23	Blank	Neutral	True
230.067	0.3	Control	0.75	0.002	No	2.784	-0.002	3.0	NoResponse	0	0.203	n/a	4	23	ButtonPress	Neutral	True
230.564	1.45	Control	0.75	n/a	No	2.784	n/a	5.0	NoResponse	0	0.044	229.608	4	23	Feedback	Neutral	True
232.014	2.784	Control	0.75	n/a	No	2.784	n/a	n/a	NoResponse	0	0.0	n/a	4	23	ISIslide	Neutral	True
234.829	0.25	Win2	0.72	0.001	No	3.121	0.029	n/a	NoResponse	0	n/a	n/a	4	24	Cue	MissedWin	True
235.079	3.95	Win2	0.72	0.0	No	3.121	0.0	n/a	NoResponse	0	n/a	n/a	4	24	Fixation	MissedWin	True
239.028	0.16	Win2	0.72	0.001	No	3.121	-0.001	3.0	NoResponse	0	0.203	238.231	4	24	Target	MissedWin	True
239.195	0.54	Win2	0.72	n/a	No	3.121	n/a	n/a	NoResponse	0	n/a	n/a	4	24	Blank	MissedWin	True
239.231	0.3	Win2	0.72	0.001	No	3.121	-0.001	3.0	NoResponse	0	0.203	n/a	4	24	ButtonPress	MissedWin	True
239.728	1.45	Win2	0.72	n/a	No	3.121	n/a	5.0	NoResponse	0	0.005	238.733	4	24	Feedback	MissedWin	True
241.177	3.121	Win2	0.72	n/a	No	3.121	n/a	n/a	NoResponse	0	0.0	n/a	4	24	ISIslide	MissedWin	True
244.326	0.25	Win2	0.6923	0.0	No	3.074	0.026	n/a	NoResponse	0	n/a	n/a	4	25	Cue	MissedWin	True
244.576	4.0	Win2	0.6923	0.0	No	3.074	0.0	n/a	NoResponse	0	n/a	n/a	4	25	Fixation	MissedWin	True
248.575	0.15	Win2	0.6923	0.001	No	3.074	-0.001	3.0	NoResponse	0	0.182	247.757	4	25	Target	MissedWin	True
248.725	0.55	Win2	0.6923	n/a	No	3.074	n/a	n/a	NoResponse	0	n/a	n/a	4	25	Blank	MissedWin	True
248.757	0.3	Win2	0.6923	0.001	No	3.074	-0.001	3.0	NoResponse	0	0.182	n/a	4	25	ButtonPress	MissedWin	True
249.274	1.45	Win2	0.6923	n/a	No	3.074	n/a	5.0	NoResponse	0	0.016	248.29	4	25	Feedback	MissedWin	True
250.724	3.074	Win2	0.6923	n/a	No	3.074	n/a	n/a	NoResponse	0	0.0	n/a	4	25	ISIslide	MissedWin	True
253.823	0.25	Win2	0.6667000000000001	0.0	No	2.927	0.023	n/a	NoResponse	0	n/a	n/a	4	26	Cue	MissedWin	True
254.073	3.95	Win2	0.6667000000000001	0.0	No	2.927	0.0	n/a	NoResponse	0	n/a	n/a	4	26	Fixation	MissedWin	True
258.021	0.15	Win2	0.6667000000000001	0.002	No	2.927	-0.002	3.0	NoResponse	0	0.213	257.234	4	26	Target	MissedWin	True
258.171	0.55	Win2	0.6667000000000001	n/a	No	2.927	n/a	n/a	NoResponse	0	n/a	n/a	4	26	Blank	MissedWin	True
258.234	0.3	Win2	0.6667000000000001	0.002	No	2.927	-0.002	3.0	NoResponse	0	0.213	n/a	4	26	ButtonPress	MissedWin	True
258.721	1.45	Win2	0.6667000000000001	n/a	No	2.927	n/a	5.0	NoResponse	0	0.033	257.754	4	26	Feedback	MissedWin	True
260.171	2.927	Win2	0.6667000000000001	n/a	No	2.927	n/a	n/a	NoResponse	0	0.0	n/a	4	26	ISIslide	MissedWin	True
263.12	0.25	Lose2	0.6429	0.0	No	2.83	0.02	n/a	NoResponse	-1	n/a	n/a	3	27	Cue	Loss	False
263.369	4.05	Lose2	0.6429	0.001	No	2.83	-0.001	3.0	NoResponse	-1	3.188	265.557	3	27	Fixation	Loss	False
266.557	0.3	Lose2	0.6429	0.001	No	2.83	-0.001	3.0	NoResponse	-1	3.188	n/a	3	27	ButtonPress	Loss	False
267.418	0.15	Lose2	0.6429	0.002	No	2.83	-0.002	3.0	NoResponse	-1	0.241	266.659	3	27	Target	Loss	False
267.568	0.55	Lose2	0.6429	n/a	No	2.83	n/a	n/a	NoResponse	-1	n/a	n/a	3	27	Blank	Loss	False
267.659	0.3	Lose2	0.6429	0.002	No	2.83	-0.002	3.0	NoResponse	-1	0.241	n/a	3	27	ButtonPress	Loss	False
268.118	1.45	Lose2	0.6429	n/a	No	2.83	n/a	5.0	NoResponse	-1	0.002	267.12	3	27	Feedback	Loss	False
269.567	2.83	Lose2	0.6429	n/a	No	2.83	n/a	n/a	NoResponse	-1	0.0	n/a	3	27	ISIslide	Loss	False
272.416	0.25	Control	0.6207	0.0	No	2.834	0.016	n/a	NoResponse	0	n/a	n/a	3	28	Cue	Neutral	True
272.666	4.05	Control	0.6207	0.0	No	2.834	0.0	n/a	NoResponse	0	n/a	n/a	3	28	Fixation	Neutral	True
276.715	0.16	Control	0.6207	0.001	No	2.834	-0.001	3.0	NoResponse	0	0.246	275.961	3	28	Target	Neutral	True
276.881	0.54	Control	0.6207	n/a	No	2.834	n/a	n/a	NoResponse	0	n/a	n/a	3	28	Blank	Neutral	True
276.961	0.3	Control	0.6207	0.001	No	2.834	-0.001	3.0	NoResponse	0	0.246	n/a	3	28	ButtonPress	Neutral	True
277.415	1.45	Control	0.6207	n/a	No	2.834	n/a	5.0	NoResponse	0	0.022	276.437	3	28	Feedback	Neutral	True
278.864	2.834	Control	0.6207	n/a	No	2.834	n/a	n/a	NoResponse	0	0.0	n/a	3	28	ISIslide	Neutral	True
281.73	0.25	Lose2	0.6	0.0	No	2.82	0.03	n/a	NoResponse	-1	n/a	n/a	2	29	Cue	Loss	True
281.98	3.95	Lose2	0.6	0.0	No	2.82	0.0	n/a	NoResponse	-1	n/a	n/a	2	29	Fixation	Loss	True
285.928	0.17	Lose2	0.6	0.002	No	2.82	-0.002	3.0	NoResponse	-1	0.2	285.128	2	29	Target	Loss	True
286.112	0.53	Lose2	0.6	n/a	No	2.82	n/a	n/a	NoResponse	-1	n/a	n/a	2	29	Blank	Loss	True
286.128	0.3	Lose2	0.6	0.002	No	2.82	-0.002	3.0	NoResponse	-1	0.2	n/a	2	29	ButtonPress	Loss	True
286.628	1.45	Lose2	0.6	n/a	No	2.82	n/a	5.0	NoResponse	-1	0.029	285.657	2	29	Feedback	Loss	True
288.077	2.82	Lose2	0.6	n/a	No	2.82	n/a	n/a	NoResponse	-1	0.0	n/a	2	29	ISIslide	Loss	True
290.927	0.25	Win2	0.5806	0.0	No	2.773	0.027	n/a	NoResponse	0	n/a	n/a	2	30	Cue	MissedWin	True
291.176	3.9	Win2	0.5806	0.001	No	2.773	-0.001	n/a	NoResponse	0	n/a	n/a	2	30	Fixation	MissedWin	True
295.075	0.18	Win2	0.5806	0.002	No	2.773	-0.002	3.0	NoResponse	0	0.222	294.297	2	30	Target	MissedWin	True
295.258	0.52	Win2	0.5806	n/a	No	2.773	n/a	n/a	NoResponse	0	n/a	n/a	2	30	Blank	MissedWin	True
295.297	0.3	Win2	0.5806	0.002	No	2.773	-0.002	3.0	NoResponse	0	0.222	n/a	2	30	ButtonPress	MissedWin	True
295.775	1.45	Win2	0.5806	n/a	No	2.773	n/a	5.0	NoResponse	0	0.007	294.782	2	30	Feedback	MissedWin	True
297.224	2.773	Win2	0.5806	n/a	No	2.773	n/a	n/a	NoResponse	0	0.0	n/a	2	30	ISIslide	MissedWin	True
300.023	0.25	Lose2	0.5625	0.0	No	2.827	0.023	n/a	NoResponse	-1	n/a	n/a	1	31	Cue	Loss	True
300.273	4.05	Lose2	0.5625	0.0	No	2.827	0.0	n/a	NoResponse	-1	n/a	n/a	1	31	Fixation	Loss	True
304.322	0.19	Lose2	0.5625	0.001	No	2.827	-0.001	3.0	NoResponse	-1	0.213	303.535	1	31	Target	Loss	True
304.522	0.51	Lose2	0.5625	n/a	No	2.827	n/a	n/a	NoResponse	-1	n/a	n/a	1	31	Blank	Loss	True
304.535	0.3	Lose2	0.5625	0.001	No	2.827	-0.001	3.0	NoResponse	-1	0.213	n/a	1	31	ButtonPress	Loss	True
305.022	1.45	Lose2	0.5625	n/a	No	2.827	n/a	5.0	NoResponse	-1	0.024	304.046	1	31	Feedback	Loss	True
306.471	2.827	Lose2	0.5625	n/a	No	2.827	n/a	n/a	NoResponse	-1	0.0	n/a	1	31	ISIslide	Loss	True
309.32	0.25	Lose2	0.5455	0.0	No	2.63	0.02	n/a	NoResponse	-1	n/a	n/a	0	32	Cue	Loss	True
309.57	4.15	Lose2	0.5455	0.0	No	2.63	0.0	n/a	NoResponse	-1	n/a	n/a	0	32	Fixation	Loss	True
313.719	0.2	Lose2	0.5455	0.001	No	2.63	-0.001	3.0	NoResponse	-1	0.241	312.96	0	32	Target	Loss	True
313.918	0.5	Lose2	0.5455	n/a	No	2.63	n/a	n/a	NoResponse	-1	n/a	n/a	0	32	Blank	Loss	True
313.96	0.3	Lose2	0.5455	0.001	No	2.63	-0.001	3.0	NoResponse	-1	0.241	n/a	0	32	ButtonPress	Loss	True
314.418	1.45	Lose2	0.5455	n/a	No	2.63	n/a	5.0	NoResponse	-1	0.043	313.461	0	32	Feedback	Loss	True
315.868	2.63	Lose2	0.5455	n/a	No	2.63	n/a	n/a	NoResponse	-1	0.0	n/a	0	32	ISIslide	Loss	True
318.517	0.25	Win2	0.5294	0.0	No	2.683	0.017	n/a	LatePress	0	n/a	n/a	0	33	Cue	MissedWin	False
318.767	4.0	Win2	0.5294	0.0	No	2.683	0.0	3.0	LatePress	0	3.464	321.231	0	33	Fixation	MissedWin	False
322.231	0.3	Win2	0.5294	0.0	No	2.683	0.0	3.0	LatePress	0	3.464	n/a	0	33	ButtonPress	MissedWin	False
322.765	0.21	Win2	0.5294	0.002	No	2.683	-0.002	3.0	LatePress	0	0.216	321.981	0	33	Target	MissedWin	False
322.981	0.3	Win2	0.5294	0.002	No	2.683	-0.002	3.0	LatePress	0	0.216	n/a	0	33	ButtonPress	MissedWin	False
322.982	0.49	Win2	0.5294	n/a	No	2.683	n/a	n/a	LatePress	0	n/a	n/a	0	33	Blank	MissedWin	False
323.465	1.45	Win2	0.5294	n/a	No	2.683	n/a	5.0	LatePress	0	0.02	322.485	0	33	Feedback	MissedWin	False
324.915	2.683	Win2	0.5294	n/a	No	2.683	n/a	n/a	LatePress	0	0.0	n/a	0	33	ISIslide	MissedWin	False
327.614	0.25	Lose2	0.5428999999999999	0.0	Yes	2.636	0.014	n/a	GoodResponse	0	n/a	n/a	0	34	Cue	AvoidedLoss	True
327.864	4.05	Lose2	0.5428999999999999	0.0	Yes	2.636	0.0	n/a	GoodResponse	0	n/a	n/a	0	34	Fixation	AvoidedLoss	True
331.912	0.22	Lose2	0.5428999999999999	0.002	Yes	2.636	-0.002	3.0	GoodResponse	0	0.198	331.11	0	34	Target	AvoidedLoss	True
332.11	0.3	Lose2	0.5428999999999999	0.002	Yes	2.636	-0.002	3.0	GoodResponse	0	0.198	n/a	0	34	ButtonPress	AvoidedLoss	True
332.145	0.48	Lose2	0.5428999999999999	n/a	Yes	2.636	n/a	n/a	GoodResponse	0	n/a	n/a	0	34	Blank	AvoidedLoss	True
332.612	1.45	Lose2	0.5428999999999999	n/a	Yes	2.636	n/a	5.0	GoodResponse	0	0.044	331.656	0	34	Feedback	AvoidedLoss	True
334.061	2.636	Lose2	0.5428999999999999	n/a	Yes	2.636	n/a	n/a	GoodResponse	0	0.0	n/a	0	34	ISIslide	AvoidedLoss	True
336.727	0.25	Lose2	0.5556	0.0	Yes	2.673	0.027	n/a	GoodResponse	0	n/a	n/a	0	35	Cue	AvoidedLoss	True
336.977	4.0	Lose2	0.5556	0.0	Yes	2.673	0.0	n/a	GoodResponse	0	n/a	n/a	0	35	Fixation	AvoidedLoss	True
340.976	0.23	Lose2	0.5556	0.001	Yes	2.673	-0.001	3.0	GoodResponse	0	0.219	340.195	0	35	Target	AvoidedLoss	True
341.195	0.3	Lose2	0.5556	0.001	Yes	2.673	-0.001	3.0	GoodResponse	0	0.219	n/a	0	35	ButtonPress	AvoidedLoss	True
341.209	0.47	Lose2	0.5556	n/a	Yes	2.673	n/a	n/a	GoodResponse	0	n/a	n/a	0	35	Blank	AvoidedLoss	True
341.675	1.45	Lose2	0.5556	n/a	Yes	2.673	n/a	5.0	GoodResponse	0	0.006	340.681	0	35	Feedback	AvoidedLoss	True
343.125	2.673	Lose2	0.5556	n/a	Yes	2.673	n/a	n/a	GoodResponse	0	0.0	n/a	0	35	ISIslide	AvoidedLoss	True
345.824	0.25	Control	0.5405	0.0	No	2.676	0.024	n/a	NoResponse	0	n/a	n/a	0	36	Cue	Neutral	True
346.074	4.0	Control	0.5405	0.0	No	2.676	0.0	n/a	NoResponse	0	n/a	n/a	0	36	Fixation	Neutral	True
350.073	0.24	Control	0.5405	0.001	No	2.676	-0.001	3.0	NoResponse	0	0.257	349.33	0	36	Target	Neutral	True
350.322	0.46	Control	0.5405	n/a	No	2.676	n/a	n/a	NoResponse	0	n/a	n/a	0	36	Blank	Neutral	True
350.33	0.3	Control	0.5405	0.001	No	2.676	-0.001	3.0	NoResponse	0	0.257	n/a	0	36	ButtonPress	Neutral	True
350.772	1.45	Control	0.5405	n/a	No	2.676	n/a	5.0	NoResponse	0	0.03	349.802	0	36	Feedback	Neutral	True
352.222	2.676	Control	0.5405	n/a	No	2.676	n/a	n/a	NoResponse	0	0.0	n/a	0	36	ISIslide	Neutral	True
354.921	0.25	Win2	0.5526	0.0	Yes	2.879	0.021	n/a	GoodResponse	1	n/a	n/a	1	37	Cue	Win	True
355.171	4.0	Win2	0.5526	0.0	Yes	2.879	0.0	n/a	GoodResponse	1	n/a	n/a	1	37	Fixation	Win	True
359.169	0.25	Win2	0.5526	0.002	Yes	2.879	-0.002	3.0	GoodResponse	1	0.227	358.396	1	37	Target	Win	True
359.396	0.3	Win2	0.5526	0.002	Yes	2.879	-0.002	3.0	GoodResponse	1	0.227	n/a	1	37	ButtonPress	Win	True
359.419	0.45	Win2	0.5526	n/a	Yes	2.879	n/a	n/a	GoodResponse	1	n/a	n/a	1	37	Blank	Win	True
359.869	1.45	Win2	0.5526	n/a	Yes	2.879	n/a	5.0	GoodResponse	1	0.006	358.875	1	37	Feedback	Win	True
361.319	2.879	Win2	0.5526	n/a	Yes	2.879	n/a	n/a	GoodResponse	1	0.0	n/a	1	37	ISIslide	Win	True
364.218	0.25	Lose2	0.5640999999999999	0.0	Yes	2.832	0.018	n/a	GoodResponse	0	n/a	n/a	1	38	Cue	AvoidedLoss	True
364.468	3.95	Lose2	0.5640999999999999	0.0	Yes	2.832	0.0	n/a	GoodResponse	0	n/a	n/a	1	38	Fixation	AvoidedLoss	True
368.416	0.26	Lose2	0.5640999999999999	0.002	Yes	2.832	-0.002	3.0	GoodResponse	0	0.236	367.652	1	38	Target	AvoidedLoss	True
368.652	0.3	Lose2	0.5640999999999999	0.002	Yes	2.832	-0.002	3.0	GoodResponse	0	0.236	n/a	1	38	ButtonPress	AvoidedLoss	True
368.683	0.44	Lose2	0.5640999999999999	n/a	Yes	2.832	n/a	n/a	GoodResponse	0	n/a	n/a	1	38	Blank	AvoidedLoss	True
369.116	1.45	Lose2	0.5640999999999999	n/a	Yes	2.832	n/a	5.0	GoodResponse	0	0.028	368.144	1	38	Feedback	AvoidedLoss	True
370.565	2.832	Lose2	0.5640999999999999	n/a	Yes	2.832	n/a	n/a	GoodResponse	0	0.0	n/a	1	38	ISIslide	AvoidedLoss	True
373.414	0.25	Win2	0.575	0.001	Yes	2.986	0.014	n/a	GoodResponse	1	n/a	n/a	2	39	Cue	Win	True
373.664	4.1	Win2	0.575	0.0	Yes	2.986	0.0	n/a	GoodResponse	1	n/a	n/a	2	39	Fixation	Win	True
377.763	0.27	Win2	0.575	0.001	Yes	2.986	-0.001	3.0	GoodResponse	1	0.233	376.996	2	39	Target	Win	True
377.996	0.3	Win2	0.575	0.001	Yes	2.986	-0.001	3.0	GoodResponse	1	0.233	n/a	2	39	ButtonPress	Win	True
378.029	0.43	Win2	0.575	n/a	Yes	2.986	n/a	n/a	GoodResponse	1	n/a	n/a	2	39	Blank	Win	True
378.463	1.45	Win2	0.575	n/a	Yes	2.986	n/a	5.0	GoodResponse	1	0.046	377.509	2	39	Feedback	Win	True
379.912	2.986	Win2	0.575	n/a	Yes	2.986	n/a	n/a	GoodResponse	1	0.0	n/a	2	39	ISIslide	Win	True
382.928	0.25	Win2	0.5854	0.0	Yes	2.722	0.028	n/a	GoodResponse	1	n/a	n/a	3	40	Cue	Win	True
383.178	3.95	Win2	0.5854	0.0	Yes	2.722	0.0	n/a	GoodResponse	1	n/a	n/a	3	40	Fixation	Win	True
387.126	0.28	Win2	0.5854	0.002	Yes	2.722	-0.002	3.0	GoodResponse	1	0.24	386.366	3	40	Target	Win	True
387.366	0.3	Win2	0.5854	0.002	Yes	2.722	-0.002	3.0	GoodResponse	1	0.24	n/a	3	40	ButtonPress	Win	True
387.41	0.42	Win2	0.5854	n/a	Yes	2.722	n/a	n/a	GoodResponse	1	n/a	n/a	3	40	Blank	Win	True
387.826	1.45	Win2	0.5854	n/a	Yes	2.722	n/a	5.0	GoodResponse	1	0.0	386.826	3	40	Feedback	Win	True
389.276	2.722	Win2	0.5854	n/a	Yes	2.722	n/a	n/a	GoodResponse	1	0.0	n/a	3	40	ISIslide	Win	True
392.025	0.25	Win2	0.5952000000000001	0.0	Yes	2.775	0.025	n/a	GoodResponse	1	n/a	n/a	4	41	Cue	Win	True
392.274	3.9	Win2	0.5952000000000001	0.001	Yes	2.775	-0.001	n/a	GoodResponse	1	n/a	n/a	4	41	Fixation	Win	True
396.173	0.29	Win2	0.5952000000000001	0.002	Yes	2.775	-0.002	3.0	GoodResponse	1	0.209	395.382	4	41	Target	Win	True
396.382	0.3	Win2	0.5952000000000001	0.002	Yes	2.775	-0.002	3.0	GoodResponse	1	0.209	n/a	4	41	ButtonPress	Win	True
396.473	0.41	Win2	0.5952000000000001	n/a	Yes	2.775	n/a	n/a	GoodResponse	1	n/a	n/a	4	41	Blank	Win	True
396.873	1.45	Win2	0.5952000000000001	n/a	Yes	2.775	n/a	5.0	GoodResponse	1	0.026	395.899	4	41	Feedback	Win	True
398.322	2.775	Win2	0.5952000000000001	n/a	Yes	2.775	n/a	n/a	GoodResponse	1	0.0	n/a	4	41	ISIslide	Win	True
401.121	0.25	Control	0.5814	0.001	No	2.929	0.021	n/a	NoResponse	0	n/a	n/a	4	42	Cue	Neutral	True
401.371	3.85	Control	0.5814	0.0	No	2.929	0.0	n/a	NoResponse	0	n/a	n/a	4	42	Fixation	Neutral	True
405.22	0.3	Control	0.5814	0.001	No	2.929	-0.001	3.0	NoResponse	0	0.331	404.551	4	42	Target	Neutral	True
405.52	0.4	Control	0.5814	n/a	No	2.929	n/a	n/a	NoResponse	0	n/a	n/a	4	42	Blank	Neutral	True
405.551	0.3	Control	0.5814	0.001	No	2.929	-0.001	3.0	NoResponse	0	0.331	n/a	4	42	ButtonPress	Neutral	True
405.92	1.45	Control	0.5814	n/a	No	2.929	n/a	5.0	NoResponse	0	0.006	404.926	4	42	Feedback	Neutral	True
407.369	2.929	Control	0.5814	n/a	No	2.929	n/a	n/a	NoResponse	0	0.0	n/a	4	42	ISIslide	Neutral	True
410.318	0.25	Win2	0.5909	0.0	Yes	3.182	0.018	n/a	GoodResponse	1	n/a	n/a	5	43	Cue	Win	True
410.568	4.0	Win2	0.5909	0.0	Yes	3.182	0.0	n/a	GoodResponse	1	n/a	n/a	5	43	Fixation	Win	True
414.567	0.31	Win2	0.5909	0.001	Yes	3.182	-0.001	3.0	GoodResponse	1	0.222	413.789	5	43	Target	Win	True
414.789	0.3	Win2	0.5909	0.001	Yes	3.182	-0.001	3.0	GoodResponse	1	0.222	n/a	5	43	ButtonPress	Win	True
414.883	0.39	Win2	0.5909	n/a	Yes	3.182	n/a	n/a	GoodResponse	1	n/a	n/a	5	43	Blank	Win	True
415.266	1.45	Win2	0.5909	n/a	Yes	3.182	n/a	5.0	GoodResponse	1	0.023	414.289	5	43	Feedback	Win	True
416.716	3.182	Win2	0.5909	n/a	Yes	3.182	n/a	n/a	GoodResponse	1	0.0	n/a	5	43	ISIslide	Win	True
419.932	0.25	Win2	0.6	0.0	Yes	2.968	0.032	n/a	GoodResponse	1	n/a	n/a	6	44	Cue	Win	True
420.181	4.0	Win2	0.6	0.001	Yes	2.968	-0.001	n/a	GoodResponse	1	n/a	n/a	6	44	Fixation	Win	True
424.18	0.32	Win2	0.6	0.002	Yes	2.968	-0.002	3.0	GoodResponse	1	0.238	423.418	6	44	Target	Win	True
424.418	0.3	Win2	0.6	0.002	Yes	2.968	-0.002	3.0	GoodResponse	1	0.238	n/a	6	44	ButtonPress	Win	True
424.513	0.38	Win2	0.6	n/a	Yes	2.968	n/a	n/a	GoodResponse	1	n/a	n/a	6	44	Blank	Win	True
424.88	1.45	Win2	0.6	n/a	Yes	2.968	n/a	5.0	GoodResponse	1	0.019	423.899	6	44	Feedback	Win	True
426.329	2.968	Win2	0.6	n/a	Yes	2.968	n/a	n/a	GoodResponse	1	0.0	n/a	6	44	ISIslide	Win	True
429.312	0.25	Control	0.6087	0.0	Yes	2.888	0.012	n/a	GoodResponse	0	n/a	n/a	6	45	Cue	Neutral	True
429.561	4.1	Control	0.6087	0.001	Yes	2.888	-0.001	n/a	GoodResponse	0	n/a	n/a	6	45	Fixation	Neutral	True
433.66	0.33	Control	0.6087	0.002	Yes	2.888	-0.002	3.0	GoodResponse	0	0.319	432.979	6	45	Target	Neutral	True
433.979	0.3	Control	0.6087	0.002	Yes	2.888	-0.002	3.0	GoodResponse	0	0.319	n/a	6	45	ButtonPress	Neutral	True
433.993	0.37	Control	0.6087	n/a	Yes	2.888	n/a	n/a	GoodResponse	0	n/a	n/a	6	45	Blank	Neutral	True
434.36	1.45	Control	0.6087	n/a	Yes	2.888	n/a	5.0	GoodResponse	0	0.006	433.366	6	45	Feedback	Neutral	True
435.809	2.888	Control	0.6087	n/a	Yes	2.888	n/a	n/a	GoodResponse	0	0.0	n/a	6	45	ISIslide	Neutral	True
438.725	0.25	Lose2	0.617	0.0	Yes	3.375	0.025	n/a	GoodResponse	0	n/a	n/a	6	46	Cue	AvoidedLoss	True
438.975	4.0	Lose2	0.617	0.0	Yes	3.375	0.0	n/a	GoodResponse	0	n/a	n/a	6	46	Fixation	AvoidedLoss	True
442.973	0.34	Lose2	0.617	0.002	Yes	3.375	-0.002	3.0	GoodResponse	0	0.217	442.19	6	46	Target	AvoidedLoss	True
443.19	0.3	Lose2	0.617	0.002	Yes	3.375	-0.002	3.0	GoodResponse	0	0.217	n/a	6	46	ButtonPress	AvoidedLoss	True
443.323	0.36	Lose2	0.617	n/a	Yes	3.375	n/a	n/a	GoodResponse	0	n/a	n/a	6	46	Blank	AvoidedLoss	True
443.673	1.45	Lose2	0.617	n/a	Yes	3.375	n/a	5.0	GoodResponse	0	0.006	442.679	6	46	Feedback	AvoidedLoss	True
445.123	3.375	Lose2	0.617	n/a	Yes	3.375	n/a	n/a	GoodResponse	0	0.0	n/a	6	46	ISIslide	AvoidedLoss	True
448.522	0.25	Lose2	0.625	0.0	Yes	2.678	0.022	n/a	GoodResponse	0	n/a	n/a	6	47	Cue	AvoidedLoss	True
448.771	4.0	Lose2	0.625	0.001	Yes	2.678	-0.001	n/a	GoodResponse	0	n/a	n/a	6	47	Fixation	AvoidedLoss	True
452.77	0.35	Lose2	0.625	0.002	Yes	2.678	-0.002	3.0	GoodResponse	0	0.209	451.979	6	47	Target	AvoidedLoss	True
452.979	0.3	Lose2	0.625	0.002	Yes	2.678	-0.002	3.0	GoodResponse	0	0.209	n/a	6	47	ButtonPress	AvoidedLoss	True
453.12	0.35	Lose2	0.625	n/a	Yes	2.678	n/a	n/a	GoodResponse	0	n/a	n/a	6	47	Blank	AvoidedLoss	True
453.47	1.45	Lose2	0.625	n/a	Yes	2.678	n/a	5.0	GoodResponse	0	0.014	452.484	6	47	Feedback	AvoidedLoss	True
454.919	2.678	Lose2	0.625	n/a	Yes	2.678	n/a	n/a	GoodResponse	0	0.0	n/a	6	47	ISIslide	AvoidedLoss	True
457.618	0.25	Lose2	0.6327	0.0	Yes	3.032	0.018	n/a	GoodResponse	0	n/a	n/a	6	48	Cue	AvoidedLoss	True
457.868	3.95	Lose2	0.6327	0.0	Yes	3.032	0.0	n/a	GoodResponse	0	n/a	n/a	6	48	Fixation	AvoidedLoss	True
461.817	0.36	Lose2	0.6327	0.001	Yes	3.032	-0.001	3.0	GoodResponse	0	0.222	461.039	6	48	Target	AvoidedLoss	True
462.039	0.3	Lose2	0.6327	0.001	Yes	3.032	-0.001	3.0	GoodResponse	0	0.222	n/a	6	48	ButtonPress	AvoidedLoss	True
462.183	0.34	Lose2	0.6327	n/a	Yes	3.032	n/a	n/a	GoodResponse	0	n/a	n/a	6	48	Blank	AvoidedLoss	True
462.517	1.45	Lose2	0.6327	n/a	Yes	3.032	n/a	5.0	GoodResponse	0	0.04	461.557	6	48	Feedback	AvoidedLoss	True
463.966	3.032	Lose2	0.6327	n/a	Yes	3.032	n/a	n/a	GoodResponse	0	0.0	n/a	6	48	ISIslide	AvoidedLoss	True
467.015	0.25	Control	0.64	0.0	Yes	2.885	0.015	n/a	GoodResponse	0	n/a	n/a	6	49	Cue	Neutral	True
467.265	4.0	Control	0.64	0.0	Yes	2.885	0.0	n/a	GoodResponse	0	n/a	n/a	6	49	Fixation	Neutral	True
471.264	0.37	Control	0.64	0.001	Yes	2.885	-0.001	3.0	GoodResponse	0	0.256	470.52	6	49	Target	Neutral	True
471.52	0.3	Control	0.64	0.001	Yes	2.885	-0.001	3.0	GoodResponse	0	0.256	n/a	6	49	ButtonPress	Neutral	True
471.647	0.33	Control	0.64	n/a	Yes	2.885	n/a	n/a	GoodResponse	0	n/a	n/a	6	49	Blank	Neutral	True
471.963	1.45	Control	0.64	n/a	Yes	2.885	n/a	5.0	GoodResponse	0	0.009	470.972	6	49	Feedback	Neutral	True
473.413	2.885	Control	0.64	n/a	Yes	2.885	n/a	n/a	GoodResponse	0	0.0	n/a	6	49	ISIslide	Neutral	True
476.312	0.25	Control	0.6470999999999999	0.0	Yes	2.788	0.012	n/a	GoodResponse	0	n/a	n/a	6	50	Cue	Neutral	True
476.562	4.0	Control	0.6470999999999999	0.0	Yes	2.788	0.0	n/a	GoodResponse	0	n/a	n/a	6	50	Fixation	Neutral	True
480.56	0.38	Control	0.6470999999999999	0.002	Yes	2.788	-0.002	3.0	GoodResponse	0	0.26	479.82	6	50	Target	Neutral	True
480.82	0.3	Control	0.6470999999999999	0.002	Yes	2.788	-0.002	3.0	GoodResponse	0	0.26	n/a	6	50	ButtonPress	Neutral	True
480.944	0.32	Control	0.6470999999999999	n/a	Yes	2.788	n/a	n/a	GoodResponse	0	n/a	n/a	6	50	Blank	Neutral	True
481.26	1.45	Control	0.6470999999999999	n/a	Yes	2.788	n/a	5.0	GoodResponse	0	0.029	480.289	6	50	Feedback	Neutral	True
482.71	2.788	Control	0.6470999999999999	n/a	Yes	2.788	n/a	n/a	GoodResponse	0	0.0	n/a	6	50	ISIslide	Neutral	True
485.525	0.25	Control	0.6537999999999999	0.0	Yes	2.725	0.025	n/a	GoodResponse	0	n/a	n/a	6	51	Cue	Neutral	True
485.775	3.95	Control	0.6537999999999999	0.0	Yes	2.725	0.0	n/a	GoodResponse	0	n/a	n/a	6	51	Fixation	Neutral	True
489.724	0.39	Control	0.6537999999999999	0.001	Yes	2.725	-0.001	3.0	GoodResponse	0	0.299	489.023	6	51	Target	Neutral	True
490.023	0.3	Control	0.6537999999999999	0.001	Yes	2.725	-0.001	3.0	GoodResponse	0	0.299	n/a	6	51	ButtonPress	Neutral	True
490.124	0.31	Control	0.6537999999999999	n/a	Yes	2.725	n/a	n/a	GoodResponse	0	n/a	n/a	6	51	Blank	Neutral	True
490.424	1.45	Control	0.6537999999999999	n/a	Yes	2.725	n/a	5.0	GoodResponse	0	0.035	489.459	6	51	Feedback	Neutral	True
491.873	2.725	Control	0.6537999999999999	n/a	Yes	2.725	n/a	n/a	GoodResponse	0	0.0	n/a	6	51	ISIslide	Neutral	True
494.622	0.25	Control	0.6604000000000001	0.0	Yes	2.628	0.022	n/a	GoodResponse	0	n/a	n/a	6	52	Cue	Neutral	True
494.872	4.05	Control	0.6604000000000001	0.0	Yes	2.628	0.0	n/a	GoodResponse	0	n/a	n/a	6	52	Fixation	Neutral	True
498.921	0.4	Control	0.6604000000000001	0.001	Yes	2.628	-0.001	3.0	GoodResponse	0	0.21	498.131	6	52	Target	Neutral	True
499.131	0.3	Control	0.6604000000000001	0.001	Yes	2.628	-0.001	3.0	GoodResponse	0	0.21	n/a	6	52	ButtonPress	Neutral	True
499.32	0.3	Control	0.6604000000000001	n/a	Yes	2.628	n/a	n/a	GoodResponse	0	n/a	n/a	6	52	Blank	Neutral	True
499.62	1.45	Control	0.6604000000000001	n/a	Yes	2.628	n/a	5.0	GoodResponse	0	0.01	498.63	6	52	Feedback	Neutral	True
501.07	2.628	Control	0.6604000000000001	n/a	Yes	2.628	n/a	n/a	GoodResponse	0	0.0	n/a	6	52	ISIslide	Neutral	True
503.719	0.25	Win2	0.6667000000000001	0.0	Yes	2.931	0.019	n/a	GoodResponse	1	n/a	n/a	7	53	Cue	Win	True
503.969	4.05	Win2	0.6667000000000001	0.0	Yes	2.931	0.0	n/a	GoodResponse	1	n/a	n/a	7	53	Fixation	Win	True
508.017	0.4	Win2	0.6667000000000001	0.002	Yes	2.931	-0.002	3.0	GoodResponse	1	0.224	507.241	7	53	Target	Win	True
508.241	0.3	Win2	0.6667000000000001	0.002	Yes	2.931	-0.002	3.0	GoodResponse	1	0.224	n/a	7	53	ButtonPress	Win	True
508.417	0.3	Win2	0.6667000000000001	n/a	Yes	2.931	n/a	n/a	GoodResponse	1	n/a	n/a	7	53	Blank	Win	True
508.717	1.45	Win2	0.6667000000000001	n/a	Yes	2.931	n/a	5.0	GoodResponse	1	0.035	507.752	7	53	Feedback	Win	True
510.167	2.931	Win2	0.6667000000000001	n/a	Yes	2.931	n/a	n/a	GoodResponse	1	0.0	n/a	7	53	ISIslide	Win	True
513.116	0.25	Win2	0.6727	0.0	Yes	2.734	0.016	n/a	GoodResponse	1	n/a	n/a	8	54	Cue	Win	True
513.366	3.95	Win2	0.6727	0.0	Yes	2.734	0.0	n/a	GoodResponse	1	n/a	n/a	8	54	Fixation	Win	True
517.314	0.39	Win2	0.6727	0.002	Yes	2.734	-0.002	3.0	GoodResponse	1	0.261	516.575	8	54	Target	Win	True
517.575	0.3	Win2	0.6727	0.002	Yes	2.734	-0.002	3.0	GoodResponse	1	0.261	n/a	8	54	ButtonPress	Win	True
517.714	0.31	Win2	0.6727	n/a	Yes	2.734	n/a	n/a	GoodResponse	1	n/a	n/a	8	54	Blank	Win	True
518.014	1.45	Win2	0.6727	n/a	Yes	2.734	n/a	5.0	GoodResponse	1	0.006	517.02	8	54	Feedback	Win	True
519.463	2.734	Win2	0.6727	n/a	Yes	2.734	n/a	n/a	GoodResponse	1	0.0	n/a	8	54	ISIslide	Win	True
522.212	0.25	Control	0.6786	0.001	Yes	3.038	0.012	n/a	GoodResponse	0	n/a	n/a	8	55	Cue	Neutral	True
522.462	3.95	Control	0.6786	0.001	Yes	3.038	0.0	n/a	GoodResponse	0	n/a	n/a	8	55	Fixation	Neutral	True
526.411	0.38	Control	0.6786	0.001	Yes	3.038	-0.001	3.0	GoodResponse	0	0.22	525.631	8	55	Target	Neutral	True
526.631	0.3	Control	0.6786	0.001	Yes	3.038	-0.001	3.0	GoodResponse	0	0.22	n/a	8	55	ButtonPress	Neutral	True
526.794	0.32	Control	0.6786	n/a	Yes	3.038	n/a	n/a	GoodResponse	0	n/a	n/a	8	55	Blank	Neutral	True
527.111	1.45	Control	0.6786	n/a	Yes	3.038	n/a	5.0	GoodResponse	0	0.032	526.143	8	55	Feedback	Neutral	True
528.56	3.038	Control	0.6786	n/a	Yes	3.038	n/a	n/a	GoodResponse	0	0.0	n/a	8	55	ISIslide	Neutral	True
531.626	0.25	Control	0.6842	0.0	Yes	2.824	0.026	n/a	GoodResponse	0	n/a	n/a	8	56	Cue	Neutral	True
531.876	3.95	Control	0.6842	0.0	Yes	2.824	0.0	n/a	GoodResponse	0	n/a	n/a	8	56	Fixation	Neutral	True
535.824	0.37	Control	0.6842	0.002	Yes	2.824	-0.002	3.0	GoodResponse	0	0.24	535.064	8	56	Target	Neutral	True
536.064	0.3	Control	0.6842	0.002	Yes	2.824	-0.002	3.0	GoodResponse	0	0.24	n/a	8	56	ButtonPress	Neutral	True
536.208	0.33	Control	0.6842	n/a	Yes	2.824	n/a	n/a	GoodResponse	0	n/a	n/a	8	56	Blank	Neutral	True
536.524	1.45	Control	0.6842	n/a	Yes	2.824	n/a	5.0	GoodResponse	0	0.033	535.557	8	56	Feedback	Neutral	True
537.974	2.824	Control	0.6842	n/a	Yes	2.824	n/a	n/a	GoodResponse	0	0.0	n/a	8	56	ISIslide	Neutral	True
540.823	0.25	Control	0.6897	0.0	Yes	3.477	0.023	n/a	GoodResponse	0	n/a	n/a	8	57	Cue	Neutral	True
541.073	4.0	Control	0.6897	0.0	Yes	3.477	0.0	n/a	GoodResponse	0	n/a	n/a	8	57	Fixation	Neutral	True
545.071	0.36	Control	0.6897	0.002	Yes	3.477	-0.002	3.0	GoodResponse	0	0.248	544.319	8	57	Target	Neutral	True
545.319	0.3	Control	0.6897	0.002	Yes	3.477	-0.002	3.0	GoodResponse	0	0.248	n/a	8	57	ButtonPress	Neutral	True
545.438	0.34	Control	0.6897	n/a	Yes	3.477	n/a	n/a	GoodResponse	0	n/a	n/a	8	57	Blank	Neutral	True
545.771	1.45	Control	0.6897	n/a	Yes	3.477	n/a	5.0	GoodResponse	0	0.005	544.776	8	57	Feedback	Neutral	True
547.22	3.477	Control	0.6897	n/a	Yes	3.477	n/a	n/a	GoodResponse	0	0.0	n/a	8	57	ISIslide	Neutral	True
550.719	0.25	Win2	0.6949	0.0	Yes	2.731	0.019	n/a	GoodResponse	1	n/a	n/a	9	58	Cue	Win	True
550.969	4.05	Win2	0.6949	0.0	Yes	2.731	0.0	n/a	GoodResponse	1	n/a	n/a	9	58	Fixation	Win	True
555.018	0.35	Win2	0.6949	0.001	Yes	2.731	-0.001	3.0	GoodResponse	1	0.232	554.25	9	58	Target	Win	True
555.25	0.3	Win2	0.6949	0.001	Yes	2.731	-0.001	3.0	GoodResponse	1	0.232	n/a	9	58	ButtonPress	Win	True
555.368	0.35	Win2	0.6949	n/a	Yes	2.731	n/a	n/a	GoodResponse	1	n/a	n/a	9	58	Blank	Win	True
555.717	1.45	Win2	0.6949	n/a	Yes	2.731	n/a	5.0	GoodResponse	1	0.01	554.727	9	58	Feedback	Win	True
557.167	2.731	Win2	0.6949	n/a	Yes	2.731	n/a	n/a	GoodResponse	1	0.0	n/a	9	58	ISIslide	Win	True
559.916	0.25	Lose2	0.7	0.0	Yes	2.684	0.016	n/a	GoodResponse	0	n/a	n/a	9	59	Cue	AvoidedLoss	True
560.166	4.0	Lose2	0.7	0.0	Yes	2.684	0.0	n/a	GoodResponse	0	n/a	n/a	9	59	Fixation	AvoidedLoss	True
564.165	0.34	Lose2	0.7	0.001	Yes	2.684	-0.001	3.0	GoodResponse	0	0.262	563.427	9	59	Target	AvoidedLoss	True
564.427	0.3	Lose2	0.7	0.001	Yes	2.684	-0.001	3.0	GoodResponse	0	0.262	n/a	9	59	ButtonPress	AvoidedLoss	True
564.514	0.36	Lose2	0.7	n/a	Yes	2.684	n/a	n/a	GoodResponse	0	n/a	n/a	9	59	Blank	AvoidedLoss	True
564.864	1.45	Lose2	0.7	n/a	Yes	2.684	n/a	5.0	GoodResponse	0	0.034	563.898	9	59	Feedback	AvoidedLoss	True
566.314	2.684	Lose2	0.7	n/a	Yes	2.684	n/a	n/a	GoodResponse	0	0.0	n/a	9	59	ISIslide	AvoidedLoss	True
569.013	0.25	Control	0.7049	0.0	Yes	2.687	0.013	n/a	GoodResponse	0	n/a	n/a	9	60	Cue	Neutral	True
569.263	4.0	Control	0.7049	0.0	Yes	2.687	0.0	n/a	GoodResponse	0	n/a	n/a	9	60	Fixation	Neutral	True
573.261	0.33	Control	0.7049	0.002	Yes	2.687	-0.002	3.0	GoodResponse	0	0.253	572.514	9	60	Target	Neutral	True
573.514	0.3	Control	0.7049	0.002	Yes	2.687	-0.002	3.0	GoodResponse	0	0.253	n/a	9	60	ButtonPress	Neutral	True
573.595	0.37	Control	0.7049	n/a	Yes	2.687	n/a	n/a	GoodResponse	0	n/a	n/a	9	60	Blank	Neutral	True
573.961	1.45	Control	0.7049	n/a	Yes	2.687	n/a	5.0	GoodResponse	0	0.01	572.971	9	60	Feedback	Neutral	True
575.411	2.687	Control	0.7049	n/a	Yes	2.687	n/a	n/a	GoodResponse	0	0.0	n/a	9	60	ISIslide	Neutral	True
578.126	0.25	Lose2	0.7097	0.0	Yes	2.974	0.026	n/a	GoodResponse	0	n/a	n/a	9	61	Cue	AvoidedLoss	True
578.376	4.0	Lose2	0.7097	0.0	Yes	2.974	0.0	n/a	GoodResponse	0	n/a	n/a	9	61	Fixation	AvoidedLoss	True
582.375	0.32	Lose2	0.7097	0.001	Yes	2.974	-0.001	3.0	GoodResponse	0	0.232	581.607	9	61	Target	AvoidedLoss	True
582.607	0.3	Lose2	0.7097	0.001	Yes	2.974	-0.001	3.0	GoodResponse	0	0.232	n/a	9	61	ButtonPress	AvoidedLoss	True
582.691	0.38	Lose2	0.7097	n/a	Yes	2.974	n/a	n/a	GoodResponse	0	n/a	n/a	9	61	Blank	AvoidedLoss	True
583.075	1.45	Lose2	0.7097	n/a	Yes	2.974	n/a	5.0	GoodResponse	0	0.018	582.093	9	61	Feedback	AvoidedLoss	True
584.524	2.974	Lose2	0.7097	n/a	Yes	2.974	n/a	n/a	GoodResponse	0	0.0	n/a	9	61	ISIslide	AvoidedLoss	True
587.523	0.25	Lose2	0.7143	0.0	Yes	2.877	0.023	n/a	GoodResponse	0	n/a	n/a	9	62	Cue	AvoidedLoss	True
587.773	3.9	Lose2	0.7143	0.0	Yes	2.877	0.0	n/a	GoodResponse	0	n/a	n/a	9	62	Fixation	AvoidedLoss	True
591.672	0.31	Lose2	0.7143	0.001	Yes	2.877	-0.001	3.0	GoodResponse	0	0.254	590.926	9	62	Target	AvoidedLoss	True
591.926	0.3	Lose2	0.7143	0.001	Yes	2.877	-0.001	3.0	GoodResponse	0	0.254	n/a	9	62	ButtonPress	AvoidedLoss	True
591.988	0.39	Lose2	0.7143	n/a	Yes	2.877	n/a	n/a	GoodResponse	0	n/a	n/a	9	62	Blank	AvoidedLoss	True
592.371	1.45	Lose2	0.7143	n/a	Yes	2.877	n/a	5.0	GoodResponse	0	0.039	591.41	9	62	Feedback	AvoidedLoss	True
593.821	2.877	Lose2	0.7143	n/a	Yes	2.877	n/a	n/a	GoodResponse	0	0.0	n/a	9	62	ISIslide	AvoidedLoss	True
596.72	0.25	Lose2	0.7188	0.0	Yes	2.63	0.02	n/a	GoodResponse	0	n/a	n/a	9	63	Cue	AvoidedLoss	True
596.97	4.05	Lose2	0.7188	0.0	Yes	2.63	0.0	n/a	GoodResponse	0	n/a	n/a	9	63	Fixation	AvoidedLoss	True
601.018	0.3	Lose2	0.7188	0.002	Yes	2.63	-0.002	3.0	GoodResponse	0	0.217	600.235	9	63	Target	AvoidedLoss	True
601.235	0.3	Lose2	0.7188	0.002	Yes	2.63	-0.002	3.0	GoodResponse	0	0.217	n/a	9	63	ButtonPress	AvoidedLoss	True
601.318	0.4	Lose2	0.7188	n/a	Yes	2.63	n/a	n/a	GoodResponse	0	n/a	n/a	9	63	Blank	AvoidedLoss	True
601.718	1.45	Lose2	0.7188	n/a	Yes	2.63	n/a	5.0	GoodResponse	0	0.009	600.727	9	63	Feedback	AvoidedLoss	True
603.168	2.63	Lose2	0.7188	n/a	Yes	2.63	n/a	n/a	GoodResponse	0	0.0	n/a	9	63	ISIslide	AvoidedLoss	True
605.817	0.25	Win2	0.7231000000000001	0.0	Yes	3.133	0.017	n/a	GoodResponse	1	n/a	n/a	10	64	Cue	Win	True
606.067	4.15	Win2	0.7231000000000001	0.0	Yes	3.133	0.0	n/a	GoodResponse	1	n/a	n/a	10	64	Fixation	Win	True
610.215	0.29	Win2	0.7231000000000001	0.002	Yes	3.133	-0.002	3.0	GoodResponse	1	0.227	609.442	10	64	Target	Win	True
610.442	0.3	Win2	0.7231000000000001	0.002	Yes	3.133	-0.002	3.0	GoodResponse	1	0.227	n/a	10	64	ButtonPress	Win	True
610.515	0.41	Win2	0.7231000000000001	n/a	Yes	3.133	n/a	n/a	GoodResponse	1	n/a	n/a	10	64	Blank	Win	True
610.915	1.45	Win2	0.7231000000000001	n/a	Yes	3.133	n/a	5.0	GoodResponse	1	0.031	609.946	10	64	Feedback	Win	True
612.364	3.133	Win2	0.7231000000000001	n/a	Yes	3.133	n/a	n/a	GoodResponse	1	0.0	n/a	10	64	ISIslide	Win	True
615.513	0.25	Control	0.7121	0.0	No	2.787	0.013	n/a	NoResponse	0	n/a	n/a	10	65	Cue	Neutral	True
615.763	4.0	Control	0.7121	0.0	No	2.787	0.0	n/a	NoResponse	0	n/a	n/a	10	65	Fixation	Neutral	True
619.762	0.28	Control	0.7121	0.001	No	2.787	-0.001	3.0	NoResponse	0	0.289	619.051	10	65	Target	Neutral	True
620.045	0.42	Control	0.7121	n/a	No	2.787	n/a	n/a	NoResponse	0	n/a	n/a	10	65	Blank	Neutral	True
620.051	0.3	Control	0.7121	0.001	No	2.787	-0.001	3.0	NoResponse	0	0.289	n/a	10	65	ButtonPress	Neutral	True
620.462	1.45	Control	0.7121	n/a	No	2.787	n/a	5.0	NoResponse	0	0.046	619.508	10	65	Feedback	Neutral	True
621.911	2.787	Control	0.7121	n/a	No	2.787	n/a	n/a	NoResponse	0	0.0	n/a	10	65	ISIslide	Neutral	True
624.727	0.25	Win2	0.7164	0.0	Yes	2.773	0.027	n/a	GoodResponse	1	n/a	n/a	11	66	Cue	Win	True
624.977	3.9	Win2	0.7164	0.0	Yes	2.773	0.0	n/a	GoodResponse	1	n/a	n/a	11	66	Fixation	Win	True
628.875	0.27	Win2	0.7164	0.002	Yes	2.773	-0.002	3.0	GoodResponse	1	0.226	628.101	11	66	Target	Win	True
629.101	0.3	Win2	0.7164	0.002	Yes	2.773	-0.002	3.0	GoodResponse	1	0.226	n/a	11	66	ButtonPress	Win	True
629.159	0.43	Win2	0.7164	n/a	Yes	2.773	n/a	n/a	GoodResponse	1	n/a	n/a	11	66	Blank	Win	True
629.575	1.45	Win2	0.7164	n/a	Yes	2.773	n/a	5.0	GoodResponse	1	0.006	628.581	11	66	Feedback	Win	True
631.025	2.773	Win2	0.7164	n/a	Yes	2.773	n/a	n/a	GoodResponse	1	0.0	n/a	11	66	ISIslide	Win	True
633.824	0.25	Control	0.7206	0.0	Yes	2.726	0.024	n/a	GoodResponse	0	n/a	n/a	11	67	Cue	Neutral	True
634.073	3.95	Control	0.7206	0.001	Yes	2.726	-0.001	n/a	GoodResponse	0	n/a	n/a	11	67	Fixation	Neutral	True
638.022	0.26	Control	0.7206	0.002	Yes	2.726	-0.002	3.0	GoodResponse	0	0.204	637.226	11	67	Target	Neutral	True
638.226	0.3	Control	0.7206	0.002	Yes	2.726	-0.002	3.0	GoodResponse	0	0.204	n/a	11	67	ButtonPress	Neutral	True
638.289	0.44	Control	0.7206	n/a	Yes	2.726	n/a	n/a	GoodResponse	0	n/a	n/a	11	67	Blank	Neutral	True
638.722	1.45	Control	0.7206	n/a	Yes	2.726	n/a	5.0	GoodResponse	0	0.03	637.752	11	67	Feedback	Neutral	True
640.171	2.726	Control	0.7206	n/a	Yes	2.726	n/a	n/a	GoodResponse	0	0.0	n/a	11	67	ISIslide	Neutral	True
642.92	0.25	Win2	0.7245999999999999	0.0	Yes	3.08	0.02	n/a	GoodResponse	1	n/a	n/a	12	68	Cue	Win	True
643.17	4.0	Win2	0.7245999999999999	0.0	Yes	3.08	0.0	n/a	GoodResponse	1	n/a	n/a	12	68	Fixation	Win	True
647.169	0.25	Win2	0.7245999999999999	0.001	Yes	3.08	-0.001	3.0	GoodResponse	1	0.2	646.369	12	68	Target	Win	True
647.369	0.3	Win2	0.7245999999999999	0.001	Yes	3.08	-0.001	3.0	GoodResponse	1	0.2	n/a	12	68	ButtonPress	Win	True
647.419	0.45	Win2	0.7245999999999999	n/a	Yes	3.08	n/a	n/a	GoodResponse	1	n/a	n/a	12	68	Blank	Win	True
647.869	1.45	Win2	0.7245999999999999	n/a	Yes	3.08	n/a	5.0	GoodResponse	1	0.004	646.873	12	68	Feedback	Win	True
649.318	3.08	Win2	0.7245999999999999	n/a	Yes	3.08	n/a	n/a	GoodResponse	1	0.0	n/a	12	68	ISIslide	Win	True
652.417	0.25	Win2	0.7143	0.0	No	3.233	0.017	n/a	NoResponse	0	n/a	n/a	12	69	Cue	MissedWin	False
652.667	3.95	Win2	0.7143	0.0	No	3.233	0.0	n/a	NoResponse	0	n/a	n/a	12	69	Fixation	MissedWin	False
656.616	0.24	Win2	0.7143	0.001	No	3.233	-0.001	n/a	NoResponse	0	n/a	n/a	12	69	Target	MissedWin	False
656.866	0.46	Win2	0.7143	n/a	No	3.233	n/a	n/a	NoResponse	0	n/a	n/a	12	69	Blank	MissedWin	False
657.315	1.45	Win2	0.7143	n/a	No	3.233	n/a	5.0	NoResponse	0	0.021	656.336	12	69	Feedback	MissedWin	False
658.765	3.233	Win2	0.7143	n/a	No	3.233	n/a	n/a	NoResponse	0	0.0	n/a	12	69	ISIslide	MissedWin	False
662.014	0.25	Lose2	0.7182999999999999	0.0	Yes	3.036	0.014	n/a	GoodResponse	0	n/a	n/a	12	70	Cue	AvoidedLoss	True
662.264	4.05	Lose2	0.7182999999999999	0.0	Yes	3.036	0.0	n/a	GoodResponse	0	n/a	n/a	12	70	Fixation	AvoidedLoss	True
666.312	0.23	Lose2	0.7182999999999999	0.002	Yes	3.036	-0.002	3.0	GoodResponse	0	0.218	665.53	12	70	Target	AvoidedLoss	True
666.53	0.3	Lose2	0.7182999999999999	0.002	Yes	3.036	-0.002	3.0	GoodResponse	0	0.218	n/a	12	70	ButtonPress	AvoidedLoss	True
666.545	0.47	Lose2	0.7182999999999999	n/a	Yes	3.036	n/a	n/a	GoodResponse	0	n/a	n/a	12	70	Blank	AvoidedLoss	True
667.012	1.45	Lose2	0.7182999999999999	n/a	Yes	3.036	n/a	5.0	GoodResponse	0	0.032	666.044	12	70	Feedback	AvoidedLoss	True
668.461	3.036	Lose2	0.7182999999999999	n/a	Yes	3.036	n/a	n/a	GoodResponse	0	0.0	n/a	12	70	ISIslide	AvoidedLoss	True
671.527	0.25	Win2	0.7082999999999999	0.0	No	2.723	0.027	n/a	LatePress	0	n/a	n/a	12	71	Cue	MissedWin	True
671.777	4.05	Win2	0.7082999999999999	0.0	No	2.723	0.0	n/a	LatePress	0	n/a	n/a	12	71	Fixation	MissedWin	True
675.826	0.22	Win2	0.7082999999999999	0.001	No	2.723	-0.001	3.0	LatePress	0	0.226	675.052	12	71	Target	MissedWin	True
676.052	0.3	Win2	0.7082999999999999	0.001	No	2.723	-0.001	3.0	LatePress	0	0.226	n/a	12	71	ButtonPress	MissedWin	True
676.059	0.48	Win2	0.7082999999999999	n/a	No	2.723	n/a	n/a	LatePress	0	n/a	n/a	12	71	Blank	MissedWin	True
676.525	1.45	Win2	0.7082999999999999	n/a	No	2.723	n/a	5.0	LatePress	0	0.031	675.556	12	71	Feedback	MissedWin	True
677.975	2.723	Win2	0.7082999999999999	n/a	No	2.723	n/a	n/a	LatePress	0	0.0	n/a	12	71	ISIslide	MissedWin	True
680.724	0.25	Win2	0.6986	0.0	No	2.776	0.024	n/a	LatePress	0	n/a	n/a	12	72	Cue	MissedWin	True
680.974	4.1	Win2	0.6986	0.0	No	2.776	0.0	n/a	LatePress	0	n/a	n/a	12	72	Fixation	MissedWin	True
685.072	0.21	Win2	0.6986	0.002	No	2.776	-0.002	3.0	LatePress	0	0.215	684.287	12	72	Target	MissedWin	True
685.287	0.3	Win2	0.6986	0.002	No	2.776	-0.002	3.0	LatePress	0	0.215	n/a	12	72	ButtonPress	MissedWin	True
685.289	0.49	Win2	0.6986	n/a	No	2.776	n/a	n/a	LatePress	0	n/a	n/a	12	72	Blank	MissedWin	True
685.772	1.45	Win2	0.6986	n/a	No	2.776	n/a	5.0	LatePress	0	0.004	684.776	12	72	Feedback	MissedWin	True
687.222	2.776	Win2	0.6986	n/a	No	2.776	n/a	n/a	LatePress	0	0.0	n/a	12	72	ISIslide	MissedWin	True
690.021	0.25	Win2	0.7027	0.0	Yes	2.679	0.021	n/a	GoodResponse	1	n/a	n/a	13	73	Cue	Win	True
690.271	4.0	Win2	0.7027	0.0	Yes	2.679	0.0	n/a	GoodResponse	1	n/a	n/a	13	73	Fixation	Win	True
694.269	0.2	Win2	0.7027	0.002	Yes	2.679	-0.002	3.0	GoodResponse	1	0.187	693.456	13	73	Target	Win	True
694.456	0.3	Win2	0.7027	0.002	Yes	2.679	-0.002	3.0	GoodResponse	1	0.187	n/a	13	73	ButtonPress	Win	True
694.469	0.5	Win2	0.7027	n/a	Yes	2.679	n/a	n/a	GoodResponse	1	n/a	n/a	13	73	Blank	Win	True
694.969	1.45	Win2	0.7027	n/a	Yes	2.679	n/a	5.0	GoodResponse	1	0.025	693.994	13	73	Feedback	Win	True
696.418	2.679	Win2	0.7027	n/a	Yes	2.679	n/a	n/a	GoodResponse	1	0.0	n/a	13	73	ISIslide	Win	True
699.117	0.25	Lose2	0.6933	0.001	No	2.633	0.017	n/a	LatePress	-1	n/a	n/a	12	74	Cue	Loss	True
699.367	4.05	Lose2	0.6933	0.0	No	2.633	0.0	n/a	LatePress	-1	n/a	n/a	12	74	Fixation	Loss	True
703.416	0.19	Lose2	0.6933	0.001	No	2.633	-0.001	3.0	LatePress	-1	0.195	702.611	12	74	Target	Loss	True
703.611	0.3	Lose2	0.6933	0.001	No	2.633	-0.001	3.0	LatePress	-1	0.195	n/a	12	74	ButtonPress	Loss	True
703.616	0.51	Lose2	0.6933	n/a	No	2.633	n/a	n/a	LatePress	-1	n/a	n/a	12	74	Blank	Loss	True
704.116	1.45	Lose2	0.6933	n/a	No	2.633	n/a	5.0	LatePress	-1	0.0	703.116	12	74	Feedback	Loss	True
705.565	2.633	Lose2	0.6933	n/a	No	2.633	n/a	n/a	LatePress	-1	0.0	n/a	12	74	ISIslide	Loss	True
708.214	0.25	Lose2	0.6842	0.0	No	2.936	0.014	n/a	NoResponse	-1	n/a	n/a	11	75	Cue	Loss	True
708.464	3.95	Lose2	0.6842	0.0	No	2.936	0.0	n/a	NoResponse	-1	n/a	n/a	11	75	Fixation	Loss	True
712.413	0.18	Lose2	0.6842	0.001	No	2.936	-0.001	3.0	NoResponse	-1	0.209	711.622	11	75	Target	Loss	True
712.596	0.52	Lose2	0.6842	n/a	No	2.936	n/a	n/a	NoResponse	-1	n/a	n/a	11	75	Blank	Loss	True
712.622	0.3	Lose2	0.6842	0.001	No	2.936	-0.001	3.0	NoResponse	-1	0.209	n/a	11	75	ButtonPress	Loss	True
713.113	1.45	Lose2	0.6842	n/a	No	2.936	n/a	5.0	NoResponse	-1	0.028	712.141	11	75	Feedback	Loss	True
714.562	2.936	Lose2	0.6842	n/a	No	2.936	n/a	n/a	NoResponse	-1	0.0	n/a	11	75	ISIslide	Loss	True
717.511	0.25	Control	0.6753	0.0	No	3.239	0.011	n/a	NoResponse	0	n/a	n/a	11	76	Cue	Neutral	True
717.761	4.05	Control	0.6753	0.0	No	3.239	0.0	n/a	NoResponse	0	n/a	n/a	11	76	Fixation	Neutral	True
721.81	0.17	Control	0.6753	0.001	No	3.239	-0.001	3.0	NoResponse	0	0.258	721.068	11	76	Target	Neutral	True
721.993	0.53	Control	0.6753	n/a	No	3.239	n/a	n/a	NoResponse	0	n/a	n/a	11	76	Blank	Neutral	True
722.068	0.3	Control	0.6753	0.001	No	3.239	-0.001	3.0	NoResponse	0	0.258	n/a	11	76	ButtonPress	Neutral	True
722.509	1.45	Control	0.6753	n/a	No	3.239	n/a	5.0	NoResponse	0	0.047	721.556	11	76	Feedback	Neutral	True
723.959	3.239	Control	0.6753	n/a	No	3.239	n/a	n/a	NoResponse	0	0.0	n/a	11	76	ISIslide	Neutral	True
727.224	0.25	Lose2	0.6667000000000001	0.0	No	2.576	0.024	n/a	NoResponse	-1	n/a	n/a	10	77	Cue	Loss	True
727.474	3.95	Lose2	0.6667000000000001	0.0	No	2.576	0.0	n/a	NoResponse	-1	n/a	n/a	10	77	Fixation	Loss	True
731.423	0.16	Lose2	0.6667000000000001	0.001	No	2.576	-0.001	3.0	NoResponse	-1	0.194	730.617	10	77	Target	Loss	True
731.589	0.54	Lose2	0.6667000000000001	n/a	No	2.576	n/a	n/a	NoResponse	-1	n/a	n/a	10	77	Blank	Loss	True
731.617	0.3	Lose2	0.6667000000000001	0.001	No	2.576	-0.001	3.0	NoResponse	-1	0.194	n/a	10	77	ButtonPress	Loss	True
732.123	1.45	Lose2	0.6667000000000001	n/a	No	2.576	n/a	5.0	NoResponse	-1	0.043	731.166	10	77	Feedback	Loss	True
733.572	2.576	Lose2	0.6667000000000001	n/a	No	2.576	n/a	n/a	NoResponse	-1	0.0	n/a	10	77	ISIslide	Loss	True
