onset	duration	cue_type	current_mean_accuracy	duration_error	is_hit	isi_adjusted	onset_delay	response	response_type	reward	rt	rt_time	total_reward	trial_number	trial_phase	trial_type	one_press
11.106	0.25	Control	1.0	0.0	Yes	2.944	0.006	n/a	GoodResponse	0	n/a	n/a	0	0	Cue	Neutral	True
11.356	3.85	Control	1.0	0.0	Yes	2.944	0.0	n/a	GoodResponse	0	n/a	n/a	0	0	Fixation	Neutral	True
15.205	0.4	Control	1.0	0.001	Yes	2.944	-0.001	4.0	GoodResponse	0	0.262	14.467	0	0	Target	Neutral	True
15.467	0.3	Control	1.0	0.001	Yes	2.944	-0.001	4.0	GoodResponse	0	0.262	n/a	0	0	ButtonPress	Neutral	True
15.605	0.3	Control	1.0	n/a	Yes	2.944	n/a	n/a	GoodResponse	0	n/a	n/a	0	0	Blank	Neutral	True
15.905	1.45	Control	1.0	n/a	Yes	2.944	n/a	5.0	GoodResponse	0	0.021	14.926	0	0	Feedback	Neutral	True
17.354	2.944	Control	1.0	n/a	Yes	2.944	n/a	n/a	GoodResponse	0	0.0	n/a	0	0	ISIslide	Neutral	True
20.336	0.25	Lose2	1.0	0.0	Yes	2.764	0.036	n/a	GoodResponse	0	n/a	n/a	0	1	Cue	AvoidedLoss	True
20.586	4.0	Lose2	1.0	0.0	Yes	2.764	0.0	n/a	GoodResponse	0	n/a	n/a	0	1	Fixation	AvoidedLoss	True
24.585	0.39	Lose2	1.0	0.001	Yes	2.764	-0.001	4.0	GoodResponse	0	0.174	23.759	0	1	Target	AvoidedLoss	True
24.759	0.3	Lose2	1.0	0.001	Yes	2.764	-0.001	4.0	GoodResponse	0	0.174	n/a	0	1	ButtonPress	AvoidedLoss	True
24.985	0.31	Lose2	1.0	n/a	Yes	2.764	n/a	n/a	GoodResponse	0	n/a	n/a	0	1	Blank	AvoidedLoss	True
25.285	1.45	Lose2	1.0	n/a	Yes	2.764	n/a	5.0	GoodResponse	0	0.007	24.292	0	1	Feedback	AvoidedLoss	True
26.734	2.764	Lose2	1.0	n/a	Yes	2.764	n/a	n/a	GoodResponse	0	0.0	n/a	0	1	ISIslide	AvoidedLoss	True
29.516	0.25	Control	0.6667000000000001	0.001	No	2.584	0.016	n/a	NoResponse	0	n/a	n/a	0	2	Cue	Neutral	True
29.766	4.1	Control	0.6667000000000001	0.0	No	2.584	0.0	4.0	NoResponse	0	3.912	32.678	0	2	Fixation	Neutral	True
33.678	0.3	Control	0.6667000000000001	0.0	No	2.584	0.0	4.0	NoResponse	0	3.912	n/a	0	2	ButtonPress	Neutral	True
33.865	0.38	Control	0.6667000000000001	0.001	No	2.584	-0.001	n/a	NoResponse	0	n/a	n/a	0	2	Target	Neutral	True
34.248	0.32	Control	0.6667000000000001	n/a	No	2.584	n/a	n/a	NoResponse	0	n/a	n/a	0	2	Blank	Neutral	True
34.565	1.45	Control	0.6667000000000001	n/a	No	2.584	n/a	5.0	NoResponse	0	0.044	33.609	0	2	Feedback	Neutral	True
36.014	2.584	Control	0.6667000000000001	n/a	No	2.584	n/a	n/a	NoResponse	0	0.0	n/a	0	2	ISIslide	Neutral	True
38.73	0.25	Win2	0.75	0.0	Yes	2.72	0.13	n/a	GoodResponse	1	n/a	n/a	1	3	Cue	Win	True
38.98	3.95	Win2	0.75	0.0	Yes	2.72	0.0	n/a	GoodResponse	1	n/a	n/a	1	3	Fixation	Win	True
42.928	0.37	Win2	0.75	0.002	Yes	2.72	-0.002	4.0	GoodResponse	1	0.27	42.198	1	3	Target	Win	True
43.198	0.3	Win2	0.75	0.002	Yes	2.72	-0.002	4.0	GoodResponse	1	0.27	n/a	1	3	ButtonPress	Win	True
43.312	0.33	Win2	0.75	n/a	Yes	2.72	n/a	n/a	GoodResponse	1	n/a	n/a	1	3	Blank	Win	True
43.628	1.45	Win2	0.75	n/a	Yes	2.72	n/a	5.0	GoodResponse	1	0.006	42.634	1	3	Feedback	Win	True
45.078	2.72	Win2	0.75	n/a	Yes	2.72	n/a	n/a	GoodResponse	1	0.0	n/a	1	3	ISIslide	Win	True
47.827	0.25	Win2	0.8	0.0	Yes	3.273	0.027	n/a	GoodResponse	1	n/a	n/a	2	4	Cue	Win	False
48.077	4.0	Win2	0.8	0.0	Yes	3.273	0.0	4.0	GoodResponse	1	3.925	51.002	2	4	Fixation	Win	False
52.002	0.3	Win2	0.8	0.0	Yes	3.273	0.0	4.0	GoodResponse	1	3.925	n/a	2	4	ButtonPress	Win	False
52.075	0.36	Win2	0.8	0.002	Yes	3.273	-0.002	4.0	GoodResponse	1	0.296	51.371	2	4	Target	Win	False
52.371	0.3	Win2	0.8	0.002	Yes	3.273	-0.002	4.0	GoodResponse	1	0.296	n/a	2	4	ButtonPress	Win	False
52.442	0.34	Win2	0.8	n/a	Yes	3.273	n/a	n/a	GoodResponse	1	n/a	n/a	2	4	Blank	Win	False
52.775	1.45	Win2	0.8	n/a	Yes	3.273	n/a	5.0	GoodResponse	1	0.029	51.804	2	4	Feedback	Win	False
54.225	3.273	Win2	0.8	n/a	Yes	3.273	n/a	n/a	GoodResponse	1	0.0	n/a	2	4	ISIslide	Win	False
57.523	0.25	Win2	0.6667000000000001	0.0	No	2.777	0.023	n/a	PrematurePress	0	n/a	n/a	2	5	Cue	MissedWin	True
57.773	4.0	Win2	0.6667000000000001	0.0	No	2.777	0.0	n/a	PrematurePress	0	n/a	n/a	2	5	Fixation	MissedWin	True
61.772	0.35	Win2	0.6667000000000001	0.001	No	2.777	-0.001	4.0	PrematurePress	0	0.089	60.861	2	5	Target	MissedWin	True
61.861	0.3	Win2	0.6667000000000001	0.001	No	2.777	-0.001	4.0	PrematurePress	0	0.089	n/a	2	5	ButtonPress	MissedWin	True
62.122	0.35	Win2	0.6667000000000001	n/a	No	2.777	n/a	n/a	PrematurePress	0	n/a	n/a	2	5	Blank	MissedWin	True
62.472	1.45	Win2	0.6667000000000001	n/a	No	2.777	n/a	5.0	PrematurePress	0	0.039	61.511	2	5	Feedback	MissedWin	True
63.921	2.777	Win2	0.6667000000000001	n/a	No	2.777	n/a	n/a	PrematurePress	0	0.0	n/a	2	5	ISIslide	MissedWin	True
66.72	0.25	Lose2	0.7143	0.0	Yes	2.73	0.02	n/a	GoodResponse	0	n/a	n/a	2	6	Cue	AvoidedLoss	False
66.97	3.95	Lose2	0.7143	0.0	Yes	2.73	0.0	4.0	GoodResponse	0	3.902	69.872	2	6	Fixation	AvoidedLoss	False
70.872	0.3	Lose2	0.7143	0.0	Yes	2.73	0.0	4.0	GoodResponse	0	3.902	n/a	2	6	ButtonPress	AvoidedLoss	False
70.919	0.34	Lose2	0.7143	0.001	Yes	2.73	-0.001	4.0	GoodResponse	0	0.26	70.179	2	6	Target	AvoidedLoss	False
71.179	0.3	Lose2	0.7143	0.001	Yes	2.73	-0.001	4.0	GoodResponse	0	0.26	n/a	2	6	ButtonPress	AvoidedLoss	False
71.269	0.36	Lose2	0.7143	n/a	Yes	2.73	n/a	n/a	GoodResponse	0	n/a	n/a	2	6	Blank	AvoidedLoss	False
71.618	1.45	Lose2	0.7143	n/a	Yes	2.73	n/a	5.0	GoodResponse	0	0.015	70.633	2	6	Feedback	AvoidedLoss	False
73.068	2.73	Lose2	0.7143	n/a	Yes	2.73	n/a	n/a	GoodResponse	0	0.0	n/a	2	6	ISIslide	AvoidedLoss	False
75.817	0.25	Lose2	0.75	0.0	Yes	4.033	0.017	n/a	GoodResponse	0	n/a	n/a	2	7	Cue	AvoidedLoss	True
76.067	4.05	Lose2	0.75	0.0	Yes	4.033	0.0	n/a	GoodResponse	0	n/a	n/a	2	7	Fixation	AvoidedLoss	True
80.115	0.33	Lose2	0.75	0.002	Yes	4.033	-0.002	4.0	GoodResponse	0	0.212	79.327	2	7	Target	AvoidedLoss	True
80.327	0.3	Lose2	0.75	0.002	Yes	4.033	-0.002	4.0	GoodResponse	0	0.212	n/a	2	7	ButtonPress	AvoidedLoss	True
80.449	0.37	Lose2	0.75	n/a	Yes	4.033	n/a	n/a	GoodResponse	0	n/a	n/a	2	7	Blank	AvoidedLoss	True
80.815	1.45	Lose2	0.75	n/a	Yes	4.033	n/a	5.0	GoodResponse	0	0.038	79.853	2	7	Feedback	AvoidedLoss	True
82.265	4.033	Lose2	0.75	n/a	Yes	4.033	n/a	n/a	GoodResponse	0	0.0	n/a	2	7	ISIslide	AvoidedLoss	True
86.313	0.25	Lose2	0.7778	0.0	Yes	3.037	0.013	n/a	GoodResponse	0	n/a	n/a	2	8	Cue	AvoidedLoss	True
86.563	3.95	Lose2	0.7778	0.0	Yes	3.037	0.0	n/a	GoodResponse	0	n/a	n/a	2	8	Fixation	AvoidedLoss	True
90.512	0.32	Lose2	0.7778	0.001	Yes	3.037	-0.001	4.0	GoodResponse	0	0.215	89.727	2	8	Target	AvoidedLoss	True
90.727	0.3	Lose2	0.7778	0.001	Yes	3.037	-0.001	4.0	GoodResponse	0	0.215	n/a	2	8	ButtonPress	AvoidedLoss	True
90.828	0.38	Lose2	0.7778	n/a	Yes	3.037	n/a	n/a	GoodResponse	0	n/a	n/a	2	8	Blank	AvoidedLoss	True
91.212	1.45	Lose2	0.7778	n/a	Yes	3.037	n/a	5.0	GoodResponse	0	0.03	90.242	2	8	Feedback	AvoidedLoss	True
92.661	3.037	Lose2	0.7778	n/a	Yes	3.037	n/a	n/a	GoodResponse	0	0.0	n/a	2	8	ISIslide	AvoidedLoss	True
95.727	0.25	Lose2	0.7	0.0	No	3.123	0.027	n/a	NoResponse	-1	n/a	n/a	1	9	Cue	Loss	True
95.977	3.95	Lose2	0.7	0.0	No	3.123	0.0	n/a	NoResponse	-1	n/a	n/a	1	9	Fixation	Loss	True
99.925	0.31	Lose2	0.7	0.002	No	3.123	-0.002	4.0	NoResponse	-1	0.664	99.589	1	9	Target	Loss	True
100.242	0.39	Lose2	0.7	n/a	No	3.123	n/a	n/a	NoResponse	-1	n/a	n/a	1	9	Blank	Loss	True
100.589	0.3	Lose2	0.7	0.002	No	3.123	-0.002	4.0	NoResponse	-1	0.664	n/a	1	9	ButtonPress	Loss	True
100.625	1.45	Lose2	0.7	n/a	No	3.123	n/a	5.0	NoResponse	-1	0.032	99.657	1	9	Feedback	Loss	True
102.074	3.123	Lose2	0.7	n/a	No	3.123	n/a	n/a	NoResponse	-1	0.0	n/a	1	9	ISIslide	Loss	True
105.223	0.25	Control	0.7273000000000001	0.0	Yes	3.277	0.023	n/a	GoodResponse	0	n/a	n/a	1	10	Cue	Neutral	True
105.473	4.0	Control	0.7273000000000001	0.0	Yes	3.277	0.0	n/a	GoodResponse	0	n/a	n/a	1	10	Fixation	Neutral	True
109.472	0.3	Control	0.7273000000000001	0.001	Yes	3.277	-0.001	4.0	GoodResponse	0	0.243	108.715	1	10	Target	Neutral	True
109.715	0.3	Control	0.7273000000000001	0.001	Yes	3.277	-0.001	4.0	GoodResponse	0	0.243	n/a	1	10	ButtonPress	Neutral	True
109.772	0.4	Control	0.7273000000000001	n/a	Yes	3.277	n/a	n/a	GoodResponse	0	n/a	n/a	1	10	Blank	Neutral	True
110.172	1.45	Control	0.7273000000000001	n/a	Yes	3.277	n/a	5.0	GoodResponse	0	0.046	109.218	1	10	Feedback	Neutral	True
111.621	3.277	Control	0.7273000000000001	n/a	Yes	3.277	n/a	n/a	GoodResponse	0	0.0	n/a	1	10	ISIslide	Neutral	True
114.92	0.25	Lose2	0.75	0.0	Yes	2.73	0.02	n/a	GoodResponse	0	n/a	n/a	1	11	Cue	AvoidedLoss	True
115.17	4.05	Lose2	0.75	0.0	Yes	2.73	0.0	n/a	GoodResponse	0	n/a	n/a	1	11	Fixation	AvoidedLoss	True
119.219	0.29	Lose2	0.75	0.001	Yes	2.73	-0.001	4.0	GoodResponse	0	0.205	118.424	1	11	Target	AvoidedLoss	True
119.424	0.3	Lose2	0.75	0.001	Yes	2.73	-0.001	4.0	GoodResponse	0	0.205	n/a	1	11	ButtonPress	AvoidedLoss	True
119.518	0.41	Lose2	0.75	n/a	Yes	2.73	n/a	n/a	GoodResponse	0	n/a	n/a	1	11	Blank	AvoidedLoss	True
119.918	1.45	Lose2	0.75	n/a	Yes	2.73	n/a	5.0	GoodResponse	0	0.008	118.926	1	11	Feedback	AvoidedLoss	True
121.368	2.73	Lose2	0.75	n/a	Yes	2.73	n/a	n/a	GoodResponse	0	0.0	n/a	1	11	ISIslide	AvoidedLoss	True
124.117	0.25	Control	0.7692	0.0	Yes	2.983	0.017	n/a	GoodResponse	0	n/a	n/a	1	12	Cue	Neutral	True
124.367	3.9	Control	0.7692	0.0	Yes	2.983	0.0	n/a	GoodResponse	0	n/a	n/a	1	12	Fixation	Neutral	True
128.265	0.28	Control	0.7692	0.002	Yes	2.983	-0.002	4.0	GoodResponse	0	0.246	127.511	1	12	Target	Neutral	True
128.511	0.3	Control	0.7692	0.002	Yes	2.983	-0.002	4.0	GoodResponse	0	0.246	n/a	1	12	ButtonPress	Neutral	True
128.549	0.42	Control	0.7692	n/a	Yes	2.983	n/a	n/a	GoodResponse	0	n/a	n/a	1	12	Blank	Neutral	True
128.965	1.45	Control	0.7692	n/a	Yes	2.983	n/a	5.0	GoodResponse	0	0.034	127.999	1	12	Feedback	Neutral	True
130.415	2.983	Control	0.7692	n/a	Yes	2.983	n/a	n/a	GoodResponse	0	0.0	n/a	1	12	ISIslide	Neutral	True
133.414	0.25	Control	0.7857	0.0	Yes	2.786	0.014	n/a	GoodResponse	0	n/a	n/a	1	13	Cue	Neutral	False
133.663	4.0	Control	0.7857	0.001	Yes	2.786	-0.001	4.0	GoodResponse	0	3.241	135.904	1	13	Fixation	Neutral	False
136.904	0.3	Control	0.7857	0.001	Yes	2.786	-0.001	4.0	GoodResponse	0	3.241	n/a	1	13	ButtonPress	Neutral	False
137.662	0.27	Control	0.7857	0.002	Yes	2.786	-0.002	4.0	GoodResponse	0	0.18	136.842	1	13	Target	Neutral	False
137.842	0.3	Control	0.7857	0.002	Yes	2.786	-0.002	4.0	GoodResponse	0	0.18	n/a	1	13	ButtonPress	Neutral	False
137.945	0.43	Control	0.7857	n/a	Yes	2.786	n/a	n/a	GoodResponse	0	n/a	n/a	1	13	Blank	Neutral	False
138.362	1.45	Control	0.7857	n/a	Yes	2.786	n/a	5.0	GoodResponse	0	0.004	137.366	1	13	Feedback	Neutral	False
139.811	2.786	Control	0.7857	n/a	Yes	2.786	n/a	n/a	GoodResponse	0	0.0	n/a	1	13	ISIslide	Neutral	False
142.627	0.25	Win2	0.7333	0.0	No	2.673	0.027	n/a	NoResponse	0	n/a	n/a	1	14	Cue	MissedWin	True
142.877	4.1	Win2	0.7333	0.0	No	2.673	0.0	4.0	NoResponse	0	4.088	145.965	1	14	Fixation	MissedWin	True
146.965	0.3	Win2	0.7333	0.0	No	2.673	0.0	4.0	NoResponse	0	4.088	n/a	1	14	ButtonPress	MissedWin	True
146.975	0.26	Win2	0.7333	0.002	No	2.673	-0.002	n/a	NoResponse	0	n/a	n/a	1	14	Target	MissedWin	True
147.242	0.44	Win2	0.7333	n/a	No	2.673	n/a	n/a	NoResponse	0	n/a	n/a	1	14	Blank	MissedWin	True
147.675	1.45	Win2	0.7333	n/a	No	2.673	n/a	5.0	NoResponse	0	0.006	146.681	1	14	Feedback	MissedWin	True
149.125	2.673	Win2	0.7333	n/a	No	2.673	n/a	n/a	NoResponse	0	0.0	n/a	1	14	ISIslide	MissedWin	True
151.824	0.25	Control	0.6875	0.0	No	2.976	0.024	n/a	NoResponse	0	n/a	n/a	1	15	Cue	Neutral	True
152.074	4.0	Control	0.6875	0.0	No	2.976	0.0	n/a	NoResponse	0	n/a	n/a	1	15	Fixation	Neutral	True
156.072	0.25	Control	0.6875	0.002	No	2.976	-0.002	4.0	NoResponse	0	0.252	155.324	1	15	Target	Neutral	True
156.322	0.45	Control	0.6875	n/a	No	2.976	n/a	n/a	NoResponse	0	n/a	n/a	1	15	Blank	Neutral	True
156.324	0.3	Control	0.6875	0.002	No	2.976	-0.002	4.0	NoResponse	0	0.252	n/a	1	15	ButtonPress	Neutral	True
156.772	1.45	Control	0.6875	n/a	No	2.976	n/a	5.0	NoResponse	0	0.031	155.803	1	15	Feedback	Neutral	True
158.222	2.976	Control	0.6875	n/a	No	2.976	n/a	n/a	NoResponse	0	0.0	n/a	1	15	ISIslide	Neutral	True
161.221	0.25	Win2	0.7059000000000001	0.0	Yes	2.879	0.021	n/a	GoodResponse	1	n/a	n/a	2	16	Cue	Win	True
161.47	4.0	Win2	0.7059000000000001	0.001	Yes	2.879	-0.001	n/a	GoodResponse	1	n/a	n/a	2	16	Fixation	Win	True
165.469	0.24	Win2	0.7059000000000001	0.002	Yes	2.879	-0.002	4.0	GoodResponse	1	0.185	164.654	2	16	Target	Win	True
165.654	0.3	Win2	0.7059000000000001	0.002	Yes	2.879	-0.002	4.0	GoodResponse	1	0.185	n/a	2	16	ButtonPress	Win	True
165.719	0.46	Win2	0.7059000000000001	n/a	Yes	2.879	n/a	n/a	GoodResponse	1	n/a	n/a	2	16	Blank	Win	True
166.169	1.45	Win2	0.7059000000000001	n/a	Yes	2.879	n/a	5.0	GoodResponse	1	0.0	165.169	2	16	Feedback	Win	True
167.618	2.879	Win2	0.7059000000000001	n/a	Yes	2.879	n/a	n/a	GoodResponse	1	0.0	n/a	2	16	ISIslide	Win	True
170.517	0.25	Lose2	0.7222	0.0	Yes	2.733	0.017	n/a	GoodResponse	0	n/a	n/a	2	17	Cue	AvoidedLoss	True
170.767	3.95	Lose2	0.7222	0.0	Yes	2.733	0.0	n/a	GoodResponse	0	n/a	n/a	2	17	Fixation	AvoidedLoss	True
174.716	0.23	Lose2	0.7222	0.001	Yes	2.733	-0.001	4.0	GoodResponse	0	0.195	173.911	2	17	Target	AvoidedLoss	True
174.911	0.3	Lose2	0.7222	0.001	Yes	2.733	-0.001	4.0	GoodResponse	0	0.195	n/a	2	17	ButtonPress	AvoidedLoss	True
174.949	0.47	Lose2	0.7222	n/a	Yes	2.733	n/a	n/a	GoodResponse	0	n/a	n/a	2	17	Blank	AvoidedLoss	True
175.416	1.45	Lose2	0.7222	n/a	Yes	2.733	n/a	5.0	GoodResponse	0	0.022	174.438	2	17	Feedback	AvoidedLoss	True
176.865	2.733	Lose2	0.7222	n/a	Yes	2.733	n/a	n/a	GoodResponse	0	0.0	n/a	2	17	ISIslide	AvoidedLoss	True
179.614	0.25	Lose2	0.7368000000000001	0.0	Yes	2.736	0.014	n/a	GoodResponse	0	n/a	n/a	2	18	Cue	AvoidedLoss	True
179.864	4.05	Lose2	0.7368000000000001	0.0	Yes	2.736	0.0	n/a	GoodResponse	0	n/a	n/a	2	18	Fixation	AvoidedLoss	True
183.913	0.22	Lose2	0.7368000000000001	0.001	Yes	2.736	-0.001	4.0	GoodResponse	0	0.18	183.093	2	18	Target	AvoidedLoss	True
184.093	0.3	Lose2	0.7368000000000001	0.001	Yes	2.736	-0.001	4.0	GoodResponse	0	0.18	n/a	2	18	ButtonPress	AvoidedLoss	True
184.146	0.48	Lose2	0.7368000000000001	n/a	Yes	2.736	n/a	n/a	GoodResponse	0	n/a	n/a	2	18	Blank	AvoidedLoss	True
184.612	1.45	Lose2	0.7368000000000001	n/a	Yes	2.736	n/a	5.0	GoodResponse	0	0.045	183.657	2	18	Feedback	AvoidedLoss	True
186.062	2.736	Lose2	0.7368000000000001	n/a	Yes	2.736	n/a	n/a	GoodResponse	0	0.0	n/a	2	18	ISIslide	AvoidedLoss	True
188.828	0.25	Control	0.7	0.0	No	2.922	0.028	n/a	NoResponse	0	n/a	n/a	2	19	Cue	Neutral	True
189.077	3.95	Control	0.7	0.001	No	2.922	-0.001	n/a	NoResponse	0	n/a	n/a	2	19	Fixation	Neutral	True
193.026	0.21	Control	0.7	0.002	No	2.922	-0.002	4.0	NoResponse	0	0.217	192.243	2	19	Target	Neutral	True
193.243	0.49	Control	0.7	n/a	No	2.922	n/a	n/a	NoResponse	0	n/a	n/a	2	19	Blank	Neutral	True
193.243	0.3	Control	0.7	0.002	No	2.922	-0.002	4.0	NoResponse	0	0.217	n/a	2	19	ButtonPress	Neutral	True
193.726	1.45	Control	0.7	n/a	No	2.922	n/a	5.0	NoResponse	0	0.004	192.73	2	19	Feedback	Neutral	True
195.175	2.922	Control	0.7	n/a	No	2.922	n/a	n/a	NoResponse	0	0.0	n/a	2	19	ISIslide	Neutral	True
198.124	0.25	Control	0.6667000000000001	0.0	No	2.626	0.024	n/a	NoResponse	0	n/a	n/a	2	20	Cue	Neutral	True
198.374	4.05	Control	0.6667000000000001	0.0	No	2.626	0.0	n/a	NoResponse	0	n/a	n/a	2	20	Fixation	Neutral	True
202.423	0.2	Control	0.6667000000000001	0.001	No	2.626	-0.001	4.0	NoResponse	0	0.228	201.651	2	20	Target	Neutral	True
202.623	0.5	Control	0.6667000000000001	n/a	No	2.626	n/a	n/a	NoResponse	0	n/a	n/a	2	20	Blank	Neutral	True
202.651	0.3	Control	0.6667000000000001	0.001	No	2.626	-0.001	4.0	NoResponse	0	0.228	n/a	2	20	ButtonPress	Neutral	True
203.123	1.45	Control	0.6667000000000001	n/a	No	2.626	n/a	5.0	NoResponse	0	0.021	202.144	2	20	Feedback	Neutral	True
204.572	2.626	Control	0.6667000000000001	n/a	No	2.626	n/a	n/a	NoResponse	0	0.0	n/a	2	20	ISIslide	Neutral	True
207.221	0.25	Control	0.6818000000000001	0.0	Yes	2.779	0.021	n/a	GoodResponse	0	n/a	n/a	2	21	Cue	Neutral	False
207.471	4.1	Control	0.6818000000000001	0.0	Yes	2.779	0.0	4.0	GoodResponse	0	2.923	209.394	2	21	Fixation	Neutral	False
210.394	0.3	Control	0.6818000000000001	0.0	Yes	2.779	0.0	4.0	GoodResponse	0	2.923	n/a	2	21	ButtonPress	Neutral	False
211.57	0.19	Control	0.6818000000000001	0.001	Yes	2.779	-0.001	4.0	GoodResponse	0	0.174	210.744	2	21	Target	Neutral	False
211.744	0.3	Control	0.6818000000000001	0.001	Yes	2.779	-0.001	4.0	GoodResponse	0	0.174	n/a	2	21	ButtonPress	Neutral	False
211.77	0.51	Control	0.6818000000000001	n/a	Yes	2.779	n/a	n/a	GoodResponse	0	n/a	n/a	2	21	Blank	Neutral	False
212.269	1.45	Control	0.6818000000000001	n/a	Yes	2.779	n/a	5.0	GoodResponse	0	0.046	211.315	2	21	Feedback	Neutral	False
213.719	2.779	Control	0.6818000000000001	n/a	Yes	2.779	n/a	n/a	GoodResponse	0	0.0	n/a	2	21	ISIslide	Neutral	False
216.518	0.25	Control	0.6522	0.0	No	2.782	0.018	n/a	NoResponse	0	n/a	n/a	2	22	Cue	Neutral	True
216.768	4.0	Control	0.6522	0.0	No	2.782	0.0	n/a	NoResponse	0	n/a	n/a	2	22	Fixation	Neutral	True
220.766	0.18	Control	0.6522	0.002	No	2.782	-0.002	4.0	NoResponse	0	0.26	220.026	2	22	Target	Neutral	True
220.95	0.52	Control	0.6522	n/a	No	2.782	n/a	n/a	NoResponse	0	n/a	n/a	2	22	Blank	Neutral	True
221.026	0.3	Control	0.6522	0.002	No	2.782	-0.002	4.0	NoResponse	0	0.26	n/a	2	22	ButtonPress	Neutral	True
221.466	1.45	Control	0.6522	n/a	No	2.782	n/a	5.0	NoResponse	0	0.02	220.486	2	22	Feedback	Neutral	True
222.916	2.782	Control	0.6522	n/a	No	2.782	n/a	n/a	NoResponse	0	0.0	n/a	2	22	ISIslide	Neutral	True
225.715	0.25	Control	0.625	0.0	No	2.785	0.015	n/a	NoResponse	0	n/a	n/a	2	23	Cue	Neutral	False
225.965	3.9	Control	0.625	0.0	No	2.785	0.0	n/a	NoResponse	0	n/a	n/a	2	23	Fixation	Neutral	False
229.863	0.19	Control	0.625	0.002	No	2.785	-0.002	n/a	NoResponse	0	n/a	n/a	2	23	Target	Neutral	False
230.063	0.51	Control	0.625	n/a	No	2.785	n/a	n/a	NoResponse	0	n/a	n/a	2	23	Blank	Neutral	False
230.563	1.45	Control	0.625	n/a	No	2.785	n/a	5.0	NoResponse	0	0.045	229.608	2	23	Feedback	Neutral	False
232.012	2.785	Control	0.625	n/a	No	2.785	n/a	n/a	NoResponse	0	0.0	n/a	2	23	ISIslide	Neutral	False
234.812	0.25	Win2	0.6	0.0	No	3.138	0.012	n/a	PrematurePress	0	n/a	n/a	2	24	Cue	MissedWin	True
235.061	3.95	Win2	0.6	0.001	No	3.138	-0.001	n/a	PrematurePress	0	n/a	n/a	2	24	Fixation	MissedWin	True
239.01	0.2	Win2	0.6	0.002	No	3.138	-0.002	4.0	PrematurePress	0	0.067	238.077	2	24	Target	MissedWin	True
239.077	0.3	Win2	0.6	0.002	No	3.138	-0.002	4.0	PrematurePress	0	0.067	n/a	2	24	ButtonPress	MissedWin	True
239.21	0.5	Win2	0.6	n/a	No	3.138	n/a	n/a	PrematurePress	0	n/a	n/a	2	24	Blank	MissedWin	True
239.71	1.45	Win2	0.6	n/a	No	3.138	n/a	5.0	PrematurePress	0	0.019	238.729	2	24	Feedback	MissedWin	True
241.159	3.138	Win2	0.6	n/a	No	3.138	n/a	n/a	PrematurePress	0	0.0	n/a	2	24	ISIslide	MissedWin	True
244.325	0.25	Win2	0.6154	0.0	Yes	3.075	0.025	n/a	GoodResponse	1	n/a	n/a	3	25	Cue	Win	True
244.575	4.0	Win2	0.6154	0.0	Yes	3.075	0.0	n/a	GoodResponse	1	n/a	n/a	3	25	Fixation	Win	True
248.573	0.21	Win2	0.6154	0.002	Yes	3.075	-0.002	4.0	GoodResponse	1	0.166	247.739	3	25	Target	Win	True
248.739	0.3	Win2	0.6154	0.002	Yes	3.075	-0.002	4.0	GoodResponse	1	0.166	n/a	3	25	ButtonPress	Win	True
248.79	0.49	Win2	0.6154	n/a	Yes	3.075	n/a	n/a	GoodResponse	1	n/a	n/a	3	25	Blank	Win	True
249.273	1.45	Win2	0.6154	n/a	Yes	3.075	n/a	5.0	GoodResponse	1	0.017	248.29	3	25	Feedback	Win	True
250.723	3.075	Win2	0.6154	n/a	Yes	3.075	n/a	n/a	GoodResponse	1	0.0	n/a	3	25	ISIslide	Win	True
253.822	0.25	Win2	0.6296	0.0	Yes	2.928	0.022	n/a	GoodResponse	1	n/a	n/a	4	26	Cue	Win	True
254.071	3.95	Win2	0.6296	0.001	Yes	2.928	-0.001	n/a	GoodResponse	1	n/a	n/a	4	26	Fixation	Win	True
258.02	0.22	Win2	0.6296	0.002	Yes	2.928	-0.002	4.0	GoodResponse	1	0.194	257.214	4	26	Target	Win	True
258.214	0.3	Win2	0.6296	0.002	Yes	2.928	-0.002	4.0	GoodResponse	1	0.194	n/a	4	26	ButtonPress	Win	True
258.253	0.48	Win2	0.6296	n/a	Yes	2.928	n/a	n/a	GoodResponse	1	n/a	n/a	4	26	Blank	Win	True
258.72	1.45	Win2	0.6296	n/a	Yes	2.928	n/a	5.0	GoodResponse	1	0.034	257.754	4	26	Feedback	Win	True
260.169	2.928	Win2	0.6296	n/a	Yes	2.928	n/a	n/a	GoodResponse	1	0.0	n/a	4	26	ISIslide	Win	True
263.118	0.25	Lose2	0.6429	0.0	Yes	2.832	0.018	n/a	GoodResponse	0	n/a	n/a	4	27	Cue	AvoidedLoss	True
263.368	4.05	Lose2	0.6429	0.0	Yes	2.832	0.0	n/a	GoodResponse	0	n/a	n/a	4	27	Fixation	AvoidedLoss	True
267.417	0.23	Lose2	0.6429	0.001	Yes	2.832	-0.001	4.0	GoodResponse	0	0.183	266.6	4	27	Target	AvoidedLoss	True
267.6	0.3	Lose2	0.6429	0.001	Yes	2.832	-0.001	4.0	GoodResponse	0	0.183	n/a	4	27	ButtonPress	AvoidedLoss	True
267.65	0.47	Lose2	0.6429	n/a	Yes	2.832	n/a	n/a	GoodResponse	0	n/a	n/a	4	27	Blank	AvoidedLoss	True
268.117	1.45	Lose2	0.6429	n/a	Yes	2.832	n/a	5.0	GoodResponse	0	0.003	267.12	4	27	Feedback	AvoidedLoss	True
269.566	2.832	Lose2	0.6429	n/a	Yes	2.832	n/a	n/a	GoodResponse	0	0.0	n/a	4	27	ISIslide	AvoidedLoss	True
272.415	0.25	Control	0.6552	0.0	Yes	2.835	0.015	n/a	GoodResponse	0	n/a	n/a	4	28	Cue	Neutral	True
272.665	4.05	Control	0.6552	0.0	Yes	2.835	0.0	n/a	GoodResponse	0	n/a	n/a	4	28	Fixation	Neutral	True
276.714	0.24	Control	0.6552	0.001	Yes	2.835	-0.001	4.0	GoodResponse	0	0.173	275.887	4	28	Target	Neutral	True
276.887	0.3	Control	0.6552	0.001	Yes	2.835	-0.001	4.0	GoodResponse	0	0.173	n/a	4	28	ButtonPress	Neutral	True
276.963	0.46	Control	0.6552	n/a	Yes	2.835	n/a	n/a	GoodResponse	0	n/a	n/a	4	28	Blank	Neutral	True
277.413	1.45	Control	0.6552	n/a	Yes	2.835	n/a	5.0	GoodResponse	0	0.024	276.437	4	28	Feedback	Neutral	True
278.863	2.835	Control	0.6552	n/a	Yes	2.835	n/a	n/a	GoodResponse	0	0.0	n/a	4	28	ISIslide	Neutral	True
281.712	0.25	Lose2	0.6667000000000001	0.0	Yes	2.838	0.012	n/a	GoodResponse	0	n/a	n/a	4	29	Cue	AvoidedLoss	True
281.962	3.95	Lose2	0.6667000000000001	0.0	Yes	2.838	0.0	n/a	GoodResponse	0	n/a	n/a	4	29	Fixation	AvoidedLoss	True
285.91	0.24	Lose2	0.6667000000000001	0.002	Yes	2.838	-0.002	4.0	GoodResponse	0	0.181	285.091	4	29	Target	AvoidedLoss	True
286.091	0.3	Lose2	0.6667000000000001	0.002	Yes	2.838	-0.002	4.0	GoodResponse	0	0.181	n/a	4	29	ButtonPress	AvoidedLoss	True
286.16	0.46	Lose2	0.6667000000000001	n/a	Yes	2.838	n/a	n/a	GoodResponse	0	n/a	n/a	4	29	Blank	AvoidedLoss	True
286.61	1.45	Lose2	0.6667000000000001	n/a	Yes	2.838	n/a	5.0	GoodResponse	0	0.046	285.656	4	29	Feedback	AvoidedLoss	True
288.06	2.838	Lose2	0.6667000000000001	n/a	Yes	2.838	n/a	n/a	GoodResponse	0	0.0	n/a	4	29	ISIslide	AvoidedLoss	True
290.925	0.25	Win2	0.6774	0.0	Yes	2.775	0.025	n/a	GoodResponse	1	n/a	n/a	5	30	Cue	Win	True
291.175	3.9	Win2	0.6774	0.0	Yes	2.775	0.0	n/a	GoodResponse	1	n/a	n/a	5	30	Fixation	Win	True
295.074	0.23	Win2	0.6774	0.001	Yes	2.775	-0.001	4.0	GoodResponse	1	0.182	294.256	5	30	Target	Win	True
295.256	0.3	Win2	0.6774	0.001	Yes	2.775	-0.001	4.0	GoodResponse	1	0.182	n/a	5	30	ButtonPress	Win	True
295.307	0.47	Win2	0.6774	n/a	Yes	2.775	n/a	n/a	GoodResponse	1	n/a	n/a	5	30	Blank	Win	True
295.774	1.45	Win2	0.6774	n/a	Yes	2.775	n/a	5.0	GoodResponse	1	0.004	294.778	5	30	Feedback	Win	True
297.223	2.775	Win2	0.6774	n/a	Yes	2.775	n/a	n/a	GoodResponse	1	0.0	n/a	5	30	ISIslide	Win	True
300.022	0.25	Lose2	0.6562	0.0	No	2.828	0.022	n/a	LatePress	-1	n/a	n/a	4	31	Cue	Loss	False
300.272	4.05	Lose2	0.6562	0.0	No	2.828	0.0	4.0	LatePress	-1	3.23	302.502	4	31	Fixation	Loss	False
303.502	0.3	Lose2	0.6562	0.0	No	2.828	0.0	4.0	LatePress	-1	3.23	n/a	4	31	ButtonPress	Loss	False
304.321	0.22	Lose2	0.6562	0.001	No	2.828	-0.001	4.0	LatePress	-1	0.221	303.542	4	31	Target	Loss	False
304.542	0.3	Lose2	0.6562	0.001	No	2.828	-0.001	4.0	LatePress	-1	0.221	n/a	4	31	ButtonPress	Loss	False
304.554	0.48	Lose2	0.6562	n/a	No	2.828	n/a	n/a	LatePress	-1	n/a	n/a	4	31	Blank	Loss	False
305.02	1.45	Lose2	0.6562	n/a	No	2.828	n/a	5.0	LatePress	-1	0.026	304.046	4	31	Feedback	Loss	False
306.47	2.828	Lose2	0.6562	n/a	No	2.828	n/a	n/a	LatePress	-1	0.0	n/a	4	31	ISIslide	Loss	False
309.319	0.25	Lose2	0.6667000000000001	0.0	Yes	2.631	0.019	n/a	GoodResponse	0	n/a	n/a	4	32	Cue	AvoidedLoss	True
309.569	4.15	Lose2	0.6667000000000001	0.0	Yes	2.631	0.0	n/a	GoodResponse	0	n/a	n/a	4	32	Fixation	AvoidedLoss	True
313.717	0.22	Lose2	0.6667000000000001	0.002	Yes	2.631	-0.002	4.0	GoodResponse	0	0.184	312.901	4	32	Target	AvoidedLoss	True
313.901	0.3	Lose2	0.6667000000000001	0.002	Yes	2.631	-0.002	4.0	GoodResponse	0	0.184	n/a	4	32	ButtonPress	AvoidedLoss	True
313.951	0.48	Lose2	0.6667000000000001	n/a	Yes	2.631	n/a	n/a	GoodResponse	0	n/a	n/a	4	32	Blank	AvoidedLoss	True
314.417	1.45	Lose2	0.6667000000000001	n/a	Yes	2.631	n/a	5.0	GoodResponse	0	0.044	313.461	4	32	Feedback	AvoidedLoss	True
315.867	2.631	Lose2	0.6667000000000001	n/a	Yes	2.631	n/a	n/a	GoodResponse	0	0.0	n/a	4	32	ISIslide	AvoidedLoss	True
318.516	0.25	Win2	0.6470999999999999	0.0	No	2.684	0.016	n/a	NoResponse	0	n/a	n/a	4	33	Cue	MissedWin	True
318.766	4.0	Win2	0.6470999999999999	0.0	No	2.684	0.0	n/a	NoResponse	0	n/a	n/a	4	33	Fixation	MissedWin	True
322.764	0.21	Win2	0.6470999999999999	0.002	No	2.684	-0.002	4.0	NoResponse	0	0.239	322.003	4	33	Target	MissedWin	True
322.981	0.49	Win2	0.6470999999999999	n/a	No	2.684	n/a	n/a	NoResponse	0	n/a	n/a	4	33	Blank	MissedWin	True
323.003	0.3	Win2	0.6470999999999999	0.002	No	2.684	-0.002	4.0	NoResponse	0	0.239	n/a	4	33	ButtonPress	MissedWin	True
323.464	1.45	Win2	0.6470999999999999	n/a	No	2.684	n/a	5.0	NoResponse	0	0.021	322.485	4	33	Feedback	MissedWin	True
324.913	2.684	Win2	0.6470999999999999	n/a	No	2.684	n/a	n/a	NoResponse	0	0.0	n/a	4	33	ISIslide	MissedWin	True
327.612	0.25	Lose2	0.6570999999999999	0.001	Yes	2.638	0.012	n/a	GoodResponse	0	n/a	n/a	4	34	Cue	AvoidedLoss	True
327.862	4.05	Lose2	0.6570999999999999	0.0	Yes	2.638	0.0	n/a	GoodResponse	0	n/a	n/a	4	34	Fixation	AvoidedLoss	True
331.911	0.22	Lose2	0.6570999999999999	0.001	Yes	2.638	-0.001	4.0	GoodResponse	0	0.171	331.082	4	34	Target	AvoidedLoss	True
332.082	0.3	Lose2	0.6570999999999999	0.001	Yes	2.638	-0.001	4.0	GoodResponse	0	0.171	n/a	4	34	ButtonPress	AvoidedLoss	True
332.128	0.48	Lose2	0.6570999999999999	n/a	Yes	2.638	n/a	n/a	GoodResponse	0	n/a	n/a	4	34	Blank	AvoidedLoss	True
332.611	1.45	Lose2	0.6570999999999999	n/a	Yes	2.638	n/a	5.0	GoodResponse	0	0.045	331.656	4	34	Feedback	AvoidedLoss	True
334.06	2.638	Lose2	0.6570999999999999	n/a	Yes	2.638	n/a	n/a	GoodResponse	0	0.0	n/a	4	34	ISIslide	AvoidedLoss	True
336.726	0.25	Lose2	0.6667000000000001	0.0	Yes	2.674	0.026	n/a	GoodResponse	0	n/a	n/a	4	35	Cue	AvoidedLoss	True
336.976	4.0	Lose2	0.6667000000000001	0.0	Yes	2.674	0.0	n/a	GoodResponse	0	n/a	n/a	4	35	Fixation	AvoidedLoss	True
340.974	0.22	Lose2	0.6667000000000001	0.002	Yes	2.674	-0.002	4.0	GoodResponse	0	0.186	340.16	4	35	Target	AvoidedLoss	True
341.16	0.3	Lose2	0.6667000000000001	0.002	Yes	2.674	-0.002	4.0	GoodResponse	0	0.186	n/a	4	35	ButtonPress	AvoidedLoss	True
341.208	0.48	Lose2	0.6667000000000001	n/a	Yes	2.674	n/a	n/a	GoodResponse	0	n/a	n/a	4	35	Blank	AvoidedLoss	True
341.674	1.45	Lose2	0.6667000000000001	n/a	Yes	2.674	n/a	5.0	GoodResponse	0	0.006	340.68	4	35	Feedback	AvoidedLoss	True
343.124	2.674	Lose2	0.6667000000000001	n/a	Yes	2.674	n/a	n/a	GoodResponse	0	0.0	n/a	4	35	ISIslide	AvoidedLoss	True
345.823	0.25	Control	0.6486	0.0	No	2.677	0.023	n/a	LatePress	0	n/a	n/a	4	36	Cue	Neutral	True
346.073	4.0	Control	0.6486	0.0	No	2.677	0.0	n/a	LatePress	0	n/a	n/a	4	36	Fixation	Neutral	True
350.071	0.21	Control	0.6486	0.002	No	2.677	-0.002	4.0	LatePress	0	0.215	349.286	4	36	Target	Neutral	True
350.286	0.3	Control	0.6486	0.002	No	2.677	-0.002	4.0	LatePress	0	0.215	n/a	4	36	ButtonPress	Neutral	True
350.288	0.49	Control	0.6486	n/a	No	2.677	n/a	n/a	LatePress	0	n/a	n/a	4	36	Blank	Neutral	True
350.771	1.45	Control	0.6486	n/a	No	2.677	n/a	5.0	LatePress	0	0.031	349.802	4	36	Feedback	Neutral	True
352.221	2.677	Control	0.6486	n/a	No	2.677	n/a	n/a	LatePress	0	0.0	n/a	4	36	ISIslide	Neutral	True
354.92	0.25	Win2	0.6579	0.0	Yes	2.88	0.02	n/a	GoodResponse	1	n/a	n/a	5	37	Cue	Win	True
355.17	4.0	Win2	0.6579	0.0	Yes	2.88	0.0	n/a	GoodResponse	1	n/a	n/a	5	37	Fixation	Win	True
359.168	0.22	Win2	0.6579	0.002	Yes	2.88	-0.002	4.0	GoodResponse	1	0.172	358.34	5	37	Target	Win	True
359.34	0.3	Win2	0.6579	0.002	Yes	2.88	-0.002	4.0	GoodResponse	1	0.172	n/a	5	37	ButtonPress	Win	True
359.401	0.48	Win2	0.6579	n/a	Yes	2.88	n/a	n/a	GoodResponse	1	n/a	n/a	5	37	Blank	Win	True
359.868	1.45	Win2	0.6579	n/a	Yes	2.88	n/a	5.0	GoodResponse	1	0.007	358.875	5	37	Feedback	Win	True
361.317	2.88	Win2	0.6579	n/a	Yes	2.88	n/a	n/a	GoodResponse	1	0.0	n/a	5	37	ISIslide	Win	True
364.216	0.25	Lose2	0.6667000000000001	0.0	Yes	2.834	0.016	n/a	GoodResponse	0	n/a	n/a	5	38	Cue	AvoidedLoss	True
364.466	3.95	Lose2	0.6667000000000001	0.0	Yes	2.834	0.0	n/a	GoodResponse	0	n/a	n/a	5	38	Fixation	AvoidedLoss	True
368.415	0.22	Lose2	0.6667000000000001	0.001	Yes	2.834	-0.001	4.0	GoodResponse	0	0.197	367.612	5	38	Target	AvoidedLoss	True
368.612	0.3	Lose2	0.6667000000000001	0.001	Yes	2.834	-0.001	4.0	GoodResponse	0	0.197	n/a	5	38	ButtonPress	AvoidedLoss	True
368.631	0.48	Lose2	0.6667000000000001	n/a	Yes	2.834	n/a	n/a	GoodResponse	0	n/a	n/a	5	38	Blank	AvoidedLoss	True
369.115	1.45	Lose2	0.6667000000000001	n/a	Yes	2.834	n/a	5.0	GoodResponse	0	0.028	368.143	5	38	Feedback	AvoidedLoss	True
370.564	2.834	Lose2	0.6667000000000001	n/a	Yes	2.834	n/a	n/a	GoodResponse	0	0.0	n/a	5	38	ISIslide	AvoidedLoss	True
373.413	0.25	Win2	0.675	0.0	Yes	2.987	0.013	n/a	GoodResponse	1	n/a	n/a	6	39	Cue	Win	True
373.663	4.1	Win2	0.675	0.0	Yes	2.987	0.0	n/a	GoodResponse	1	n/a	n/a	6	39	Fixation	Win	True
377.762	0.21	Win2	0.675	0.001	Yes	2.987	-0.001	4.0	GoodResponse	1	0.16	376.922	6	39	Target	Win	True
377.922	0.3	Win2	0.675	0.001	Yes	2.987	-0.001	4.0	GoodResponse	1	0.16	n/a	6	39	ButtonPress	Win	True
377.978	0.49	Win2	0.675	n/a	Yes	2.987	n/a	n/a	GoodResponse	1	n/a	n/a	6	39	Blank	Win	True
378.461	1.45	Win2	0.675	n/a	Yes	2.987	n/a	5.0	GoodResponse	1	0.048	377.509	6	39	Feedback	Win	True
379.911	2.987	Win2	0.675	n/a	Yes	2.987	n/a	n/a	GoodResponse	1	0.0	n/a	6	39	ISIslide	Win	True
382.927	0.25	Win2	0.6585	0.0	No	2.723	0.027	n/a	NoResponse	0	n/a	n/a	6	40	Cue	MissedWin	True
383.176	3.95	Win2	0.6585	0.001	No	2.723	-0.001	n/a	NoResponse	0	n/a	n/a	6	40	Fixation	MissedWin	True
387.125	0.2	Win2	0.6585	0.002	No	2.723	-0.002	4.0	NoResponse	0	0.24	386.365	6	40	Target	MissedWin	True
387.325	0.5	Win2	0.6585	n/a	No	2.723	n/a	n/a	NoResponse	0	n/a	n/a	6	40	Blank	MissedWin	True
387.365	0.3	Win2	0.6585	0.002	No	2.723	-0.002	4.0	NoResponse	0	0.24	n/a	6	40	ButtonPress	MissedWin	True
387.825	1.45	Win2	0.6585	n/a	No	2.723	n/a	5.0	NoResponse	0	0.001	386.826	6	40	Feedback	MissedWin	True
389.274	2.723	Win2	0.6585	n/a	No	2.723	n/a	n/a	NoResponse	0	0.0	n/a	6	40	ISIslide	MissedWin	True
392.023	0.25	Win2	0.6667000000000001	0.0	Yes	2.777	0.023	n/a	GoodResponse	1	n/a	n/a	7	41	Cue	Win	True
392.273	3.9	Win2	0.6667000000000001	0.0	Yes	2.777	0.0	n/a	GoodResponse	1	n/a	n/a	7	41	Fixation	Win	True
396.172	0.2	Win2	0.6667000000000001	0.001	Yes	2.777	-0.001	4.0	GoodResponse	1	0.184	395.356	7	41	Target	Win	True
396.356	0.3	Win2	0.6667000000000001	0.001	Yes	2.777	-0.001	4.0	GoodResponse	1	0.184	n/a	7	41	ButtonPress	Win	True
396.372	0.5	Win2	0.6667000000000001	n/a	Yes	2.777	n/a	n/a	GoodResponse	1	n/a	n/a	7	41	Blank	Win	True
396.872	1.45	Win2	0.6667000000000001	n/a	Yes	2.777	n/a	5.0	GoodResponse	1	0.027	395.899	7	41	Feedback	Win	True
398.321	2.777	Win2	0.6667000000000001	n/a	Yes	2.777	n/a	n/a	GoodResponse	1	0.0	n/a	7	41	ISIslide	Win	True
401.12	0.25	Control	0.6512	0.0	No	2.93	0.02	n/a	LatePress	0	n/a	n/a	7	42	Cue	Neutral	True
401.37	3.85	Control	0.6512	0.0	No	2.93	0.0	n/a	LatePress	0	n/a	n/a	7	42	Fixation	Neutral	True
405.219	0.19	Control	0.6512	0.001	No	2.93	-0.001	4.0	LatePress	0	0.199	404.418	7	42	Target	Neutral	True
405.418	0.3	Control	0.6512	0.001	No	2.93	-0.001	4.0	LatePress	0	0.199	n/a	7	42	ButtonPress	Neutral	True
405.419	0.51	Control	0.6512	n/a	No	2.93	n/a	n/a	LatePress	0	n/a	n/a	7	42	Blank	Neutral	True
405.918	1.45	Control	0.6512	n/a	No	2.93	n/a	5.0	LatePress	0	0.005	404.923	7	42	Feedback	Neutral	True
407.368	2.93	Control	0.6512	n/a	No	2.93	n/a	n/a	LatePress	0	0.0	n/a	7	42	ISIslide	Neutral	True
410.317	0.25	Win2	0.6591	0.0	Yes	3.183	0.017	n/a	GoodResponse	1	n/a	n/a	8	43	Cue	Win	True
410.567	4.0	Win2	0.6591	0.0	Yes	3.183	0.0	n/a	GoodResponse	1	n/a	n/a	8	43	Fixation	Win	True
414.565	0.2	Win2	0.6591	0.002	Yes	3.183	-0.002	4.0	GoodResponse	1	0.185	413.75	8	43	Target	Win	True
414.75	0.3	Win2	0.6591	0.002	Yes	3.183	-0.002	4.0	GoodResponse	1	0.185	n/a	8	43	ButtonPress	Win	True
414.765	0.5	Win2	0.6591	n/a	Yes	3.183	n/a	n/a	GoodResponse	1	n/a	n/a	8	43	Blank	Win	True
415.265	1.45	Win2	0.6591	n/a	Yes	3.183	n/a	5.0	GoodResponse	1	0.024	414.289	8	43	Feedback	Win	True
416.715	3.183	Win2	0.6591	n/a	Yes	3.183	n/a	n/a	GoodResponse	1	0.0	n/a	8	43	ISIslide	Win	True
419.914	0.25	Win2	0.6667000000000001	0.0	Yes	2.986	0.014	n/a	GoodResponse	1	n/a	n/a	9	44	Cue	Win	True
420.164	4.0	Win2	0.6667000000000001	0.0	Yes	2.986	0.0	n/a	GoodResponse	1	n/a	n/a	9	44	Fixation	Win	True
424.162	0.2	Win2	0.6667000000000001	0.002	Yes	2.986	-0.002	4.0	GoodResponse	1	0.185	423.347	9	44	Target	Win	True
424.347	0.3	Win2	0.6667000000000001	0.002	Yes	2.986	-0.002	4.0	GoodResponse	1	0.185	n/a	9	44	ButtonPress	Win	True
424.362	0.5	Win2	0.6667000000000001	n/a	Yes	2.986	n/a	n/a	GoodResponse	1	n/a	n/a	9	44	Blank	Win	True
424.862	1.45	Win2	0.6667000000000001	n/a	Yes	2.986	n/a	5.0	GoodResponse	1	0.037	423.899	9	44	Feedback	Win	True
426.311	2.986	Win2	0.6667000000000001	n/a	Yes	2.986	n/a	n/a	GoodResponse	1	0.0	n/a	9	44	ISIslide	Win	True
429.31	0.25	Control	0.6522	0.0	No	2.89	0.01	n/a	NoResponse	0	n/a	n/a	9	45	Cue	Neutral	False
429.56	4.1	Control	0.6522	0.0	No	2.89	0.0	n/a	NoResponse	0	n/a	n/a	9	45	Fixation	Neutral	False
433.659	0.19	Control	0.6522	0.001	No	2.89	-0.001	n/a	NoResponse	0	n/a	n/a	9	45	Target	Neutral	False
433.859	0.51	Control	0.6522	n/a	No	2.89	n/a	n/a	NoResponse	0	n/a	n/a	9	45	Blank	Neutral	False
434.359	1.45	Control	0.6522	n/a	No	2.89	n/a	5.0	NoResponse	0	0.004	433.363	9	45	Feedback	Neutral	False
435.808	2.89	Control	0.6522	n/a	No	2.89	n/a	n/a	NoResponse	0	0.0	n/a	9	45	ISIslide	Neutral	False
438.724	0.25	Lose2	0.6596	0.0	Yes	3.376	0.024	n/a	GoodResponse	0	n/a	n/a	9	46	Cue	AvoidedLoss	True
438.974	4.0	Lose2	0.6596	0.0	Yes	3.376	0.0	n/a	GoodResponse	0	n/a	n/a	9	46	Fixation	AvoidedLoss	True
442.972	0.2	Lose2	0.6596	0.002	Yes	3.376	-0.002	4.0	GoodResponse	0	0.191	442.163	9	46	Target	AvoidedLoss	True
443.163	0.3	Lose2	0.6596	0.002	Yes	3.376	-0.002	4.0	GoodResponse	0	0.191	n/a	9	46	ButtonPress	AvoidedLoss	True
443.172	0.5	Lose2	0.6596	n/a	Yes	3.376	n/a	n/a	GoodResponse	0	n/a	n/a	9	46	Blank	AvoidedLoss	True
443.672	1.45	Lose2	0.6596	n/a	Yes	3.376	n/a	5.0	GoodResponse	0	0.007	442.679	9	46	Feedback	AvoidedLoss	True
445.121	3.376	Lose2	0.6596	n/a	Yes	3.376	n/a	n/a	GoodResponse	0	0.0	n/a	9	46	ISIslide	AvoidedLoss	True
448.52	0.25	Lose2	0.6667000000000001	0.0	Yes	2.68	0.02	n/a	GoodResponse	0	n/a	n/a	9	47	Cue	AvoidedLoss	True
448.77	4.0	Lose2	0.6667000000000001	0.0	Yes	2.68	0.0	n/a	GoodResponse	0	n/a	n/a	9	47	Fixation	AvoidedLoss	True
452.769	0.2	Lose2	0.6667000000000001	0.001	Yes	2.68	-0.001	4.0	GoodResponse	0	0.193	451.962	9	47	Target	AvoidedLoss	True
452.962	0.3	Lose2	0.6667000000000001	0.001	Yes	2.68	-0.001	4.0	GoodResponse	0	0.193	n/a	9	47	ButtonPress	AvoidedLoss	True
452.969	0.5	Lose2	0.6667000000000001	n/a	Yes	2.68	n/a	n/a	GoodResponse	0	n/a	n/a	9	47	Blank	AvoidedLoss	True
453.469	1.45	Lose2	0.6667000000000001	n/a	Yes	2.68	n/a	5.0	GoodResponse	0	0.015	452.484	9	47	Feedback	AvoidedLoss	True
454.918	2.68	Lose2	0.6667000000000001	n/a	Yes	2.68	n/a	n/a	GoodResponse	0	0.0	n/a	9	47	ISIslide	AvoidedLoss	True
457.617	0.25	Lose2	0.6531	0.0	No	3.033	0.017	n/a	NoResponse	-1	n/a	n/a	8	48	Cue	Loss	True
457.867	3.95	Lose2	0.6531	0.0	No	3.033	0.0	n/a	NoResponse	-1	n/a	n/a	8	48	Fixation	Loss	True
461.816	0.19	Lose2	0.6531	0.001	No	3.033	-0.001	4.0	NoResponse	-1	0.214	461.03	8	48	Target	Loss	True
462.016	0.51	Lose2	0.6531	n/a	No	3.033	n/a	n/a	NoResponse	-1	n/a	n/a	8	48	Blank	Loss	True
462.03	0.3	Lose2	0.6531	0.001	No	3.033	-0.001	4.0	NoResponse	-1	0.214	n/a	8	48	ButtonPress	Loss	True
462.515	1.45	Lose2	0.6531	n/a	No	3.033	n/a	5.0	NoResponse	-1	0.042	461.557	8	48	Feedback	Loss	True
463.965	3.033	Lose2	0.6531	n/a	No	3.033	n/a	n/a	NoResponse	-1	0.0	n/a	8	48	ISIslide	Loss	True
467.014	0.25	Control	0.64	0.0	No	2.886	0.014	n/a	NoResponse	0	n/a	n/a	8	49	Cue	Neutral	False
467.264	4.0	Control	0.64	0.0	No	2.886	0.0	4.0	NoResponse	0	3.193	469.457	8	49	Fixation	Neutral	False
470.457	0.3	Control	0.64	0.0	No	2.886	0.0	4.0	NoResponse	0	3.193	n/a	8	49	ButtonPress	Neutral	False
471.262	0.2	Control	0.64	0.002	No	2.886	-0.002	4.0	NoResponse	0	0.212	470.474	8	49	Target	Neutral	False
471.462	0.5	Control	0.64	n/a	No	2.886	n/a	n/a	NoResponse	0	n/a	n/a	8	49	Blank	Neutral	False
471.474	0.3	Control	0.64	0.002	No	2.886	-0.002	4.0	NoResponse	0	0.212	n/a	8	49	ButtonPress	Neutral	False
471.962	1.45	Control	0.64	n/a	No	2.886	n/a	5.0	NoResponse	0	0.01	470.972	8	49	Feedback	Neutral	False
473.412	2.886	Control	0.64	n/a	No	2.886	n/a	n/a	NoResponse	0	0.0	n/a	8	49	ISIslide	Neutral	False
476.311	0.25	Control	0.6275	0.0	No	2.789	0.011	n/a	NoResponse	0	n/a	n/a	8	50	Cue	Neutral	True
476.56	4.0	Control	0.6275	0.001	No	2.789	-0.001	n/a	NoResponse	0	n/a	n/a	8	50	Fixation	Neutral	True
480.559	0.21	Control	0.6275	0.002	No	2.789	-0.002	4.0	NoResponse	0	0.223	479.782	8	50	Target	Neutral	True
480.776	0.49	Control	0.6275	n/a	No	2.789	n/a	n/a	NoResponse	0	n/a	n/a	8	50	Blank	Neutral	True
480.782	0.3	Control	0.6275	0.002	No	2.789	-0.002	4.0	NoResponse	0	0.223	n/a	8	50	ButtonPress	Neutral	True
481.259	1.45	Control	0.6275	n/a	No	2.789	n/a	5.0	NoResponse	0	0.03	480.289	8	50	Feedback	Neutral	True
482.708	2.789	Control	0.6275	n/a	No	2.789	n/a	n/a	NoResponse	0	0.0	n/a	8	50	ISIslide	Neutral	True
485.524	0.25	Control	0.6154	0.0	No	2.726	0.024	n/a	NoResponse	0	n/a	n/a	8	51	Cue	Neutral	True
485.774	3.95	Control	0.6154	0.0	No	2.726	0.0	4.0	NoResponse	0	3.915	488.689	8	51	Fixation	Neutral	True
489.689	0.3	Control	0.6154	0.0	No	2.726	0.0	4.0	NoResponse	0	3.915	n/a	8	51	ButtonPress	Neutral	True
489.723	0.22	Control	0.6154	0.001	No	2.726	-0.001	n/a	NoResponse	0	n/a	n/a	8	51	Target	Neutral	True
489.956	0.48	Control	0.6154	n/a	No	2.726	n/a	n/a	NoResponse	0	n/a	n/a	8	51	Blank	Neutral	True
490.422	1.45	Control	0.6154	n/a	No	2.726	n/a	5.0	NoResponse	0	0.037	489.459	8	51	Feedback	Neutral	True
491.872	2.726	Control	0.6154	n/a	No	2.726	n/a	n/a	NoResponse	0	0.0	n/a	8	51	ISIslide	Neutral	True
494.621	0.25	Control	0.6038	0.0	No	2.629	0.021	n/a	NoResponse	0	n/a	n/a	8	52	Cue	Neutral	False
494.871	4.05	Control	0.6038	0.0	No	2.629	0.0	n/a	NoResponse	0	n/a	n/a	8	52	Fixation	Neutral	False
498.919	0.23	Control	0.6038	0.002	No	2.629	-0.002	n/a	NoResponse	0	n/a	n/a	8	52	Target	Neutral	False
499.153	0.47	Control	0.6038	n/a	No	2.629	n/a	n/a	NoResponse	0	n/a	n/a	8	52	Blank	Neutral	False
499.619	1.45	Control	0.6038	n/a	No	2.629	n/a	5.0	NoResponse	0	0.011	498.63	8	52	Feedback	Neutral	False
501.069	2.629	Control	0.6038	n/a	No	2.629	n/a	n/a	NoResponse	0	0.0	n/a	8	52	ISIslide	Neutral	False
503.718	0.25	Win2	0.6111	0.0	Yes	2.932	0.018	n/a	GoodResponse	1	n/a	n/a	9	53	Cue	Win	True
503.968	4.05	Win2	0.6111	0.0	Yes	2.932	0.0	n/a	GoodResponse	1	n/a	n/a	9	53	Fixation	Win	True
508.016	0.24	Win2	0.6111	0.002	Yes	2.932	-0.002	4.0	GoodResponse	1	0.187	507.203	9	53	Target	Win	True
508.203	0.3	Win2	0.6111	0.002	Yes	2.932	-0.002	4.0	GoodResponse	1	0.187	n/a	9	53	ButtonPress	Win	True
508.266	0.46	Win2	0.6111	n/a	Yes	2.932	n/a	n/a	GoodResponse	1	n/a	n/a	9	53	Blank	Win	True
508.716	1.45	Win2	0.6111	n/a	Yes	2.932	n/a	5.0	GoodResponse	1	0.036	507.752	9	53	Feedback	Win	True
510.165	2.932	Win2	0.6111	n/a	Yes	2.932	n/a	n/a	GoodResponse	1	0.0	n/a	9	53	ISIslide	Win	True
513.114	0.25	Win2	0.6182	0.001	Yes	2.736	0.014	n/a	GoodResponse	1	n/a	n/a	10	54	Cue	Win	True
513.364	3.95	Win2	0.6182	0.0	Yes	2.736	0.0	n/a	GoodResponse	1	n/a	n/a	10	54	Fixation	Win	True
517.313	0.25	Win2	0.6182	0.001	Yes	2.736	-0.001	4.0	GoodResponse	1	0.216	516.529	10	54	Target	Win	True
517.529	0.3	Win2	0.6182	0.001	Yes	2.736	-0.001	4.0	GoodResponse	1	0.216	n/a	10	54	ButtonPress	Win	True
517.563	0.45	Win2	0.6182	n/a	Yes	2.736	n/a	n/a	GoodResponse	1	n/a	n/a	10	54	Blank	Win	True
518.013	1.45	Win2	0.6182	n/a	Yes	2.736	n/a	5.0	GoodResponse	1	0.007	517.02	10	54	Feedback	Win	True
519.462	2.736	Win2	0.6182	n/a	Yes	2.736	n/a	n/a	GoodResponse	1	0.0	n/a	10	54	ISIslide	Win	True
522.211	0.25	Control	0.625	0.0	Yes	3.039	0.011	n/a	GoodResponse	0	n/a	n/a	10	55	Cue	Neutral	True
522.461	3.95	Control	0.625	0.0	Yes	3.039	0.0	n/a	GoodResponse	0	n/a	n/a	10	55	Fixation	Neutral	True
526.41	0.26	Control	0.625	0.001	Yes	3.039	-0.001	4.0	GoodResponse	0	0.199	525.609	10	55	Target	Neutral	True
526.609	0.3	Control	0.625	0.001	Yes	3.039	-0.001	4.0	GoodResponse	0	0.199	n/a	10	55	ButtonPress	Neutral	True
526.676	0.44	Control	0.625	n/a	Yes	3.039	n/a	n/a	GoodResponse	0	n/a	n/a	10	55	Blank	Neutral	True
527.11	1.45	Control	0.625	n/a	Yes	3.039	n/a	5.0	GoodResponse	0	0.032	526.142	10	55	Feedback	Neutral	True
528.559	3.039	Control	0.625	n/a	Yes	3.039	n/a	n/a	GoodResponse	0	0.0	n/a	10	55	ISIslide	Neutral	True
531.625	0.25	Control	0.6315999999999999	0.0	Yes	2.825	0.025	n/a	GoodResponse	0	n/a	n/a	10	56	Cue	Neutral	True
531.875	3.95	Control	0.6315999999999999	0.0	Yes	2.825	0.0	n/a	GoodResponse	0	n/a	n/a	10	56	Fixation	Neutral	True
535.823	0.27	Control	0.6315999999999999	0.002	Yes	2.825	-0.002	4.0	GoodResponse	0	0.191	535.014	10	56	Target	Neutral	True
536.014	0.3	Control	0.6315999999999999	0.002	Yes	2.825	-0.002	4.0	GoodResponse	0	0.191	n/a	10	56	ButtonPress	Neutral	True
536.106	0.43	Control	0.6315999999999999	n/a	Yes	2.825	n/a	n/a	GoodResponse	0	n/a	n/a	10	56	Blank	Neutral	True
536.523	1.45	Control	0.6315999999999999	n/a	Yes	2.825	n/a	5.0	GoodResponse	0	0.034	535.557	10	56	Feedback	Neutral	True
537.972	2.825	Control	0.6315999999999999	n/a	Yes	2.825	n/a	n/a	GoodResponse	0	0.0	n/a	10	56	ISIslide	Neutral	True
540.821	0.25	Control	0.6379	0.001	Yes	3.479	0.021	n/a	GoodResponse	0	n/a	n/a	10	57	Cue	Neutral	True
541.071	4.0	Control	0.6379	0.0	Yes	3.479	0.0	n/a	GoodResponse	0	n/a	n/a	10	57	Fixation	Neutral	True
545.07	0.28	Control	0.6379	0.001	Yes	3.479	-0.001	4.0	GoodResponse	0	0.154	544.224	10	57	Target	Neutral	True
545.224	0.3	Control	0.6379	0.001	Yes	3.479	-0.001	4.0	GoodResponse	0	0.154	n/a	10	57	ButtonPress	Neutral	True
545.353	0.42	Control	0.6379	n/a	Yes	3.479	n/a	n/a	GoodResponse	0	n/a	n/a	10	57	Blank	Neutral	True
545.77	1.45	Control	0.6379	n/a	Yes	3.479	n/a	5.0	GoodResponse	0	0.006	544.776	10	57	Feedback	Neutral	True
547.219	3.479	Control	0.6379	n/a	Yes	3.479	n/a	n/a	GoodResponse	0	0.0	n/a	10	57	ISIslide	Neutral	True
550.718	0.25	Win2	0.6441	0.0	Yes	2.732	0.018	n/a	GoodResponse	1	n/a	n/a	11	58	Cue	Win	True
550.968	4.05	Win2	0.6441	0.0	Yes	2.732	0.0	n/a	GoodResponse	1	n/a	n/a	11	58	Fixation	Win	True
555.016	0.29	Win2	0.6441	0.002	Yes	2.732	-0.002	4.0	GoodResponse	1	0.213	554.229	11	58	Target	Win	True
555.229	0.3	Win2	0.6441	0.002	Yes	2.732	-0.002	4.0	GoodResponse	1	0.213	n/a	11	58	ButtonPress	Win	True
555.316	0.41	Win2	0.6441	n/a	Yes	2.732	n/a	n/a	GoodResponse	1	n/a	n/a	11	58	Blank	Win	True
555.716	1.45	Win2	0.6441	n/a	Yes	2.732	n/a	5.0	GoodResponse	1	0.011	554.727	11	58	Feedback	Win	True
557.166	2.732	Win2	0.6441	n/a	Yes	2.732	n/a	n/a	GoodResponse	1	0.0	n/a	11	58	ISIslide	Win	True
559.915	0.25	Lose2	0.65	0.0	Yes	2.685	0.015	n/a	GoodResponse	0	n/a	n/a	11	59	Cue	AvoidedLoss	True
560.165	4.0	Lose2	0.65	0.0	Yes	2.685	0.0	n/a	GoodResponse	0	n/a	n/a	11	59	Fixation	AvoidedLoss	True
564.163	0.3	Lose2	0.65	0.002	Yes	2.685	-0.002	4.0	GoodResponse	0	0.176	563.339	11	59	Target	AvoidedLoss	True
564.339	0.3	Lose2	0.65	0.002	Yes	2.685	-0.002	4.0	GoodResponse	0	0.176	n/a	11	59	ButtonPress	AvoidedLoss	True
564.463	0.4	Lose2	0.65	n/a	Yes	2.685	n/a	n/a	GoodResponse	0	n/a	n/a	11	59	Blank	AvoidedLoss	True
564.863	1.45	Lose2	0.65	n/a	Yes	2.685	n/a	5.0	GoodResponse	0	0.035	563.898	11	59	Feedback	AvoidedLoss	True
566.313	2.685	Lose2	0.65	n/a	Yes	2.685	n/a	n/a	GoodResponse	0	0.0	n/a	11	59	ISIslide	AvoidedLoss	True
569.012	0.25	Control	0.6557	0.0	Yes	2.688	0.012	n/a	GoodResponse	0	n/a	n/a	11	60	Cue	Neutral	True
569.261	4.0	Control	0.6557	0.001	Yes	2.688	-0.001	n/a	GoodResponse	0	n/a	n/a	11	60	Fixation	Neutral	True
573.26	0.31	Control	0.6557	0.002	Yes	2.688	-0.002	4.0	GoodResponse	0	0.197	572.457	11	60	Target	Neutral	True
573.457	0.3	Control	0.6557	0.002	Yes	2.688	-0.002	4.0	GoodResponse	0	0.197	n/a	11	60	ButtonPress	Neutral	True
573.577	0.39	Control	0.6557	n/a	Yes	2.688	n/a	n/a	GoodResponse	0	n/a	n/a	11	60	Blank	Neutral	True
573.96	1.45	Control	0.6557	n/a	Yes	2.688	n/a	5.0	GoodResponse	0	0.011	572.971	11	60	Feedback	Neutral	True
575.409	2.688	Control	0.6557	n/a	Yes	2.688	n/a	n/a	GoodResponse	0	0.0	n/a	11	60	ISIslide	Neutral	True
578.125	0.25	Lose2	0.6613	0.0	Yes	2.975	0.025	n/a	GoodResponse	0	n/a	n/a	11	61	Cue	AvoidedLoss	True
578.375	4.0	Lose2	0.6613	0.0	Yes	2.975	0.0	n/a	GoodResponse	0	n/a	n/a	11	61	Fixation	AvoidedLoss	True
582.374	0.31	Lose2	0.6613	0.001	Yes	2.975	-0.001	4.0	GoodResponse	0	0.173	581.547	11	61	Target	AvoidedLoss	True
582.547	0.3	Lose2	0.6613	0.001	Yes	2.975	-0.001	4.0	GoodResponse	0	0.173	n/a	11	61	ButtonPress	AvoidedLoss	True
582.69	0.39	Lose2	0.6613	n/a	Yes	2.975	n/a	n/a	GoodResponse	0	n/a	n/a	11	61	Blank	AvoidedLoss	True
583.073	1.45	Lose2	0.6613	n/a	Yes	2.975	n/a	5.0	GoodResponse	0	0.02	582.093	11	61	Feedback	AvoidedLoss	True
584.523	2.975	Lose2	0.6613	n/a	Yes	2.975	n/a	n/a	GoodResponse	0	0.0	n/a	11	61	ISIslide	AvoidedLoss	True
587.522	0.25	Lose2	0.6667000000000001	0.0	Yes	2.878	0.022	n/a	GoodResponse	0	n/a	n/a	11	62	Cue	AvoidedLoss	True
587.772	3.9	Lose2	0.6667000000000001	0.0	Yes	2.878	0.0	n/a	GoodResponse	0	n/a	n/a	11	62	Fixation	AvoidedLoss	True
591.67	0.31	Lose2	0.6667000000000001	0.002	Yes	2.878	-0.002	4.0	GoodResponse	0	0.169	590.839	11	62	Target	AvoidedLoss	True
591.839	0.3	Lose2	0.6667000000000001	0.002	Yes	2.878	-0.002	4.0	GoodResponse	0	0.169	n/a	11	62	ButtonPress	AvoidedLoss	True
591.987	0.39	Lose2	0.6667000000000001	n/a	Yes	2.878	n/a	n/a	GoodResponse	0	n/a	n/a	11	62	Blank	AvoidedLoss	True
592.37	1.45	Lose2	0.6667000000000001	n/a	Yes	2.878	n/a	5.0	GoodResponse	0	0.04	591.41	11	62	Feedback	AvoidedLoss	True
593.82	2.878	Lose2	0.6667000000000001	n/a	Yes	2.878	n/a	n/a	GoodResponse	0	0.0	n/a	11	62	ISIslide	AvoidedLoss	True
596.719	0.25	Lose2	0.6718999999999999	0.0	Yes	2.631	0.019	n/a	GoodResponse	0	n/a	n/a	11	63	Cue	AvoidedLoss	True
596.969	4.05	Lose2	0.6718999999999999	0.0	Yes	2.631	0.0	n/a	GoodResponse	0	n/a	n/a	11	63	Fixation	AvoidedLoss	True
601.017	0.3	Lose2	0.6718999999999999	0.002	Yes	2.631	-0.002	4.0	GoodResponse	0	0.241	600.258	11	63	Target	AvoidedLoss	True
601.258	0.3	Lose2	0.6718999999999999	0.002	Yes	2.631	-0.002	4.0	GoodResponse	0	0.241	n/a	11	63	ButtonPress	AvoidedLoss	True
601.317	0.4	Lose2	0.6718999999999999	n/a	Yes	2.631	n/a	n/a	GoodResponse	0	n/a	n/a	11	63	Blank	AvoidedLoss	True
601.717	1.45	Lose2	0.6718999999999999	n/a	Yes	2.631	n/a	5.0	GoodResponse	0	0.01	600.727	11	63	Feedback	AvoidedLoss	True
603.166	2.631	Lose2	0.6718999999999999	n/a	Yes	2.631	n/a	n/a	GoodResponse	0	0.0	n/a	11	63	ISIslide	AvoidedLoss	True
605.815	0.25	Win2	0.6769	0.0	Yes	3.135	0.015	n/a	GoodResponse	1	n/a	n/a	12	64	Cue	Win	False
606.065	4.15	Win2	0.6769	0.0	Yes	3.135	0.0	4.0	GoodResponse	1	3.707	608.772	12	64	Fixation	Win	False
609.772	0.3	Win2	0.6769	0.0	Yes	3.135	0.0	4.0	GoodResponse	1	3.707	n/a	12	64	ButtonPress	Win	False
610.214	0.29	Win2	0.6769	0.001	Yes	3.135	-0.001	4.0	GoodResponse	1	0.225	609.439	12	64	Target	Win	False
610.439	0.3	Win2	0.6769	0.001	Yes	3.135	-0.001	4.0	GoodResponse	1	0.225	n/a	12	64	ButtonPress	Win	False
610.514	0.41	Win2	0.6769	n/a	Yes	3.135	n/a	n/a	GoodResponse	1	n/a	n/a	12	64	Blank	Win	False
610.914	1.45	Win2	0.6769	n/a	Yes	3.135	n/a	5.0	GoodResponse	1	0.032	609.946	12	64	Feedback	Win	False
612.363	3.135	Win2	0.6769	n/a	Yes	3.135	n/a	n/a	GoodResponse	1	0.0	n/a	12	64	ISIslide	Win	False
615.512	0.25	Control	0.6818000000000001	0.0	Yes	2.788	0.012	n/a	GoodResponse	0	n/a	n/a	12	65	Cue	Neutral	True
615.762	4.0	Control	0.6818000000000001	0.0	Yes	2.788	0.0	n/a	GoodResponse	0	n/a	n/a	12	65	Fixation	Neutral	True
619.761	0.28	Control	0.6818000000000001	0.001	Yes	2.788	-0.001	4.0	GoodResponse	0	0.21	618.971	12	65	Target	Neutral	True
619.971	0.3	Control	0.6818000000000001	0.001	Yes	2.788	-0.001	4.0	GoodResponse	0	0.21	n/a	12	65	ButtonPress	Neutral	True
620.044	0.42	Control	0.6818000000000001	n/a	Yes	2.788	n/a	n/a	GoodResponse	0	n/a	n/a	12	65	Blank	Neutral	True
620.46	1.45	Control	0.6818000000000001	n/a	Yes	2.788	n/a	5.0	GoodResponse	0	0.047	619.507	12	65	Feedback	Neutral	True
621.91	2.788	Control	0.6818000000000001	n/a	Yes	2.788	n/a	n/a	GoodResponse	0	0.0	n/a	12	65	ISIslide	Neutral	True
624.725	0.25	Win2	0.6866	0.001	Yes	2.775	0.025	n/a	GoodResponse	1	n/a	n/a	13	66	Cue	Win	True
624.975	3.9	Win2	0.6866	0.0	Yes	2.775	0.0	n/a	GoodResponse	1	n/a	n/a	13	66	Fixation	Win	True
628.874	0.27	Win2	0.6866	0.001	Yes	2.775	-0.001	4.0	GoodResponse	1	0.187	628.061	13	66	Target	Win	True
629.061	0.3	Win2	0.6866	0.001	Yes	2.775	-0.001	4.0	GoodResponse	1	0.187	n/a	13	66	ButtonPress	Win	True
629.141	0.43	Win2	0.6866	n/a	Yes	2.775	n/a	n/a	GoodResponse	1	n/a	n/a	13	66	Blank	Win	True
629.574	1.45	Win2	0.6866	n/a	Yes	2.775	n/a	5.0	GoodResponse	1	0.007	628.581	13	66	Feedback	Win	True
631.023	2.775	Win2	0.6866	n/a	Yes	2.775	n/a	n/a	GoodResponse	1	0.0	n/a	13	66	ISIslide	Win	True
633.822	0.25	Control	0.6912	0.0	Yes	2.728	0.022	n/a	GoodResponse	0	n/a	n/a	13	67	Cue	Neutral	True
634.072	3.95	Control	0.6912	0.0	Yes	2.728	0.0	n/a	GoodResponse	0	n/a	n/a	13	67	Fixation	Neutral	True
638.021	0.26	Control	0.6912	0.001	Yes	2.728	-0.001	4.0	GoodResponse	0	0.192	637.213	13	67	Target	Neutral	True
638.213	0.3	Control	0.6912	0.001	Yes	2.728	-0.001	4.0	GoodResponse	0	0.192	n/a	13	67	ButtonPress	Neutral	True
638.287	0.44	Control	0.6912	n/a	Yes	2.728	n/a	n/a	GoodResponse	0	n/a	n/a	13	67	Blank	Neutral	True
638.721	1.45	Control	0.6912	n/a	Yes	2.728	n/a	5.0	GoodResponse	0	0.03	637.751	13	67	Feedback	Neutral	True
640.17	2.728	Control	0.6912	n/a	Yes	2.728	n/a	n/a	GoodResponse	0	0.0	n/a	13	67	ISIslide	Neutral	True
642.919	0.25	Win2	0.6957	0.0	Yes	3.081	0.019	n/a	GoodResponse	1	n/a	n/a	14	68	Cue	Win	False
643.169	4.0	Win2	0.6957	0.0	Yes	3.081	0.0	4.0	GoodResponse	1	0.117	642.286	14	68	Fixation	Win	False
643.286	0.3	Win2	0.6957	0.0	Yes	3.081	0.0	4.0	GoodResponse	1	0.117	n/a	14	68	ButtonPress	Win	False
647.168	0.25	Win2	0.6957	0.001	Yes	3.081	-0.001	4.0	GoodResponse	1	0.192	646.36	14	68	Target	Win	False
647.36	0.3	Win2	0.6957	0.001	Yes	3.081	-0.001	4.0	GoodResponse	1	0.192	n/a	14	68	ButtonPress	Win	False
647.418	0.45	Win2	0.6957	n/a	Yes	3.081	n/a	n/a	GoodResponse	1	n/a	n/a	14	68	Blank	Win	False
647.867	1.45	Win2	0.6957	n/a	Yes	3.081	n/a	5.0	GoodResponse	1	0.007	646.874	14	68	Feedback	Win	False
649.317	3.081	Win2	0.6957	n/a	Yes	3.081	n/a	n/a	GoodResponse	1	0.0	n/a	14	68	ISIslide	Win	False
652.416	0.25	Win2	0.6857	0.0	No	3.234	0.016	n/a	NoResponse	0	n/a	n/a	14	69	Cue	MissedWin	True
652.666	3.95	Win2	0.6857	0.0	No	3.234	0.0	n/a	NoResponse	0	n/a	n/a	14	69	Fixation	MissedWin	True
656.614	0.24	Win2	0.6857	0.002	No	3.234	-0.002	4.0	NoResponse	0	0.314	655.928	14	69	Target	MissedWin	True
656.864	0.46	Win2	0.6857	n/a	No	3.234	n/a	n/a	NoResponse	0	n/a	n/a	14	69	Blank	MissedWin	True
656.928	0.3	Win2	0.6857	0.002	No	3.234	-0.002	4.0	NoResponse	0	0.314	n/a	14	69	ButtonPress	MissedWin	True
657.314	1.45	Win2	0.6857	n/a	No	3.234	n/a	5.0	NoResponse	0	0.022	656.336	14	69	Feedback	MissedWin	True
658.764	3.234	Win2	0.6857	n/a	No	3.234	n/a	n/a	NoResponse	0	0.0	n/a	14	69	ISIslide	MissedWin	True
662.029	0.25	Lose2	0.6901	0.0	Yes	3.021	0.029	n/a	GoodResponse	0	n/a	n/a	14	70	Cue	AvoidedLoss	True
662.279	4.05	Lose2	0.6901	0.0	Yes	3.021	0.0	n/a	GoodResponse	0	n/a	n/a	14	70	Fixation	AvoidedLoss	True
666.328	0.23	Lose2	0.6901	0.001	Yes	3.021	-0.001	4.0	GoodResponse	0	0.184	665.512	14	70	Target	AvoidedLoss	True
666.512	0.3	Lose2	0.6901	0.001	Yes	3.021	-0.001	4.0	GoodResponse	0	0.184	n/a	14	70	ButtonPress	AvoidedLoss	True
666.561	0.47	Lose2	0.6901	n/a	Yes	3.021	n/a	n/a	GoodResponse	0	n/a	n/a	14	70	Blank	AvoidedLoss	True
667.027	1.45	Lose2	0.6901	n/a	Yes	3.021	n/a	5.0	GoodResponse	0	0.017	666.044	14	70	Feedback	AvoidedLoss	True
668.477	3.021	Lose2	0.6901	n/a	Yes	3.021	n/a	n/a	GoodResponse	0	0.0	n/a	14	70	ISIslide	AvoidedLoss	True
671.526	0.25	Win2	0.6944	0.0	Yes	2.724	0.026	n/a	GoodResponse	1	n/a	n/a	15	71	Cue	Win	True
671.776	4.05	Win2	0.6944	0.0	Yes	2.724	0.0	n/a	GoodResponse	1	n/a	n/a	15	71	Fixation	Win	True
675.824	0.22	Win2	0.6944	0.002	Yes	2.724	-0.002	4.0	GoodResponse	1	0.193	675.017	15	71	Target	Win	True
676.017	0.3	Win2	0.6944	0.002	Yes	2.724	-0.002	4.0	GoodResponse	1	0.193	n/a	15	71	ButtonPress	Win	True
676.058	0.48	Win2	0.6944	n/a	Yes	2.724	n/a	n/a	GoodResponse	1	n/a	n/a	15	71	Blank	Win	True
676.524	1.45	Win2	0.6944	n/a	Yes	2.724	n/a	5.0	GoodResponse	1	0.032	675.556	15	71	Feedback	Win	True
677.974	2.724	Win2	0.6944	n/a	Yes	2.724	n/a	n/a	GoodResponse	1	0.0	n/a	15	71	ISIslide	Win	True
680.723	0.25	Win2	0.6986	0.0	Yes	2.777	0.023	n/a	GoodResponse	1	n/a	n/a	16	72	Cue	Win	True
680.973	4.1	Win2	0.6986	0.0	Yes	2.777	0.0	n/a	GoodResponse	1	n/a	n/a	16	72	Fixation	Win	True
685.071	0.21	Win2	0.6986	0.002	Yes	2.777	-0.002	4.0	GoodResponse	1	0.191	684.262	16	72	Target	Win	True
685.262	0.3	Win2	0.6986	0.002	Yes	2.777	-0.002	4.0	GoodResponse	1	0.191	n/a	16	72	ButtonPress	Win	True
685.288	0.49	Win2	0.6986	n/a	Yes	2.777	n/a	n/a	GoodResponse	1	n/a	n/a	16	72	Blank	Win	True
685.771	1.45	Win2	0.6986	n/a	Yes	2.777	n/a	5.0	GoodResponse	1	0.007	684.778	16	72	Feedback	Win	True
687.22	2.777	Win2	0.6986	n/a	Yes	2.777	n/a	n/a	GoodResponse	1	0.0	n/a	16	72	ISIslide	Win	True
690.019	0.25	Win2	0.7027	0.001	Yes	2.681	0.019	n/a	GoodResponse	1	n/a	n/a	17	73	Cue	Win	True
690.269	4.0	Win2	0.7027	0.0	Yes	2.681	0.0	n/a	GoodResponse	1	n/a	n/a	17	73	Fixation	Win	True
694.268	0.2	Win2	0.7027	0.001	Yes	2.681	-0.001	4.0	GoodResponse	1	0.192	693.46	17	73	Target	Win	True
694.46	0.3	Win2	0.7027	0.001	Yes	2.681	-0.001	4.0	GoodResponse	1	0.192	n/a	17	73	ButtonPress	Win	True
694.468	0.5	Win2	0.7027	n/a	Yes	2.681	n/a	n/a	GoodResponse	1	n/a	n/a	17	73	Blank	Win	True
694.968	1.45	Win2	0.7027	n/a	Yes	2.681	n/a	5.0	GoodResponse	1	0.026	693.994	17	73	Feedback	Win	True
696.417	2.681	Win2	0.7027	n/a	Yes	2.681	n/a	n/a	GoodResponse	1	0.0	n/a	17	73	ISIslide	Win	True
699.116	0.25	Lose2	0.7067	0.0	Yes	2.634	0.016	n/a	GoodResponse	0	n/a	n/a	17	74	Cue	AvoidedLoss	True
699.366	4.05	Lose2	0.7067	0.0	Yes	2.634	0.0	n/a	GoodResponse	0	n/a	n/a	17	74	Fixation	AvoidedLoss	True
703.415	0.19	Lose2	0.7067	0.001	Yes	2.634	-0.001	4.0	GoodResponse	0	0.182	702.597	17	74	Target	AvoidedLoss	True
703.597	0.3	Lose2	0.7067	0.001	Yes	2.634	-0.001	4.0	GoodResponse	0	0.182	n/a	17	74	ButtonPress	AvoidedLoss	True
703.615	0.51	Lose2	0.7067	n/a	Yes	2.634	n/a	n/a	GoodResponse	0	n/a	n/a	17	74	Blank	AvoidedLoss	True
704.114	1.45	Lose2	0.7067	n/a	Yes	2.634	n/a	5.0	GoodResponse	0	0.002	703.116	17	74	Feedback	AvoidedLoss	True
705.564	2.634	Lose2	0.7067	n/a	Yes	2.634	n/a	n/a	GoodResponse	0	0.0	n/a	17	74	ISIslide	AvoidedLoss	True
708.213	0.25	Lose2	0.7105	0.0	Yes	2.937	0.013	n/a	GoodResponse	0	n/a	n/a	17	75	Cue	AvoidedLoss	True
708.463	3.95	Lose2	0.7105	0.0	Yes	2.937	0.0	n/a	GoodResponse	0	n/a	n/a	17	75	Fixation	AvoidedLoss	True
712.412	0.18	Lose2	0.7105	0.001	Yes	2.937	-0.001	4.0	GoodResponse	0	0.167	711.579	17	75	Target	AvoidedLoss	True
712.579	0.3	Lose2	0.7105	0.001	Yes	2.937	-0.001	4.0	GoodResponse	0	0.167	n/a	17	75	ButtonPress	AvoidedLoss	True
712.595	0.52	Lose2	0.7105	n/a	Yes	2.937	n/a	n/a	GoodResponse	0	n/a	n/a	17	75	Blank	AvoidedLoss	True
713.111	1.45	Lose2	0.7105	n/a	Yes	2.937	n/a	5.0	GoodResponse	0	0.03	712.141	17	75	Feedback	AvoidedLoss	True
714.561	2.937	Lose2	0.7105	n/a	Yes	2.937	n/a	n/a	GoodResponse	0	0.0	n/a	17	75	ISIslide	AvoidedLoss	True
717.526	0.25	Control	0.7012999999999999	0.001	No	3.224	0.026	n/a	NoResponse	0	n/a	n/a	17	76	Cue	Neutral	True
717.776	4.05	Control	0.7012999999999999	0.0	No	3.224	0.0	n/a	NoResponse	0	n/a	n/a	17	76	Fixation	Neutral	True
721.825	0.17	Control	0.7012999999999999	0.001	No	3.224	-0.001	4.0	NoResponse	0	0.205	721.03	17	76	Target	Neutral	True
721.992	0.53	Control	0.7012999999999999	n/a	No	3.224	n/a	n/a	NoResponse	0	n/a	n/a	17	76	Blank	Neutral	True
722.03	0.3	Control	0.7012999999999999	0.001	No	3.224	-0.001	4.0	NoResponse	0	0.205	n/a	17	76	ButtonPress	Neutral	True
722.525	1.45	Control	0.7012999999999999	n/a	No	3.224	n/a	5.0	NoResponse	0	0.031	721.556	17	76	Feedback	Neutral	True
723.974	3.224	Control	0.7012999999999999	n/a	No	3.224	n/a	n/a	NoResponse	0	0.0	n/a	17	76	ISIslide	Neutral	True
727.223	0.25	Lose2	0.6923	0.0	No	2.577	0.023	n/a	NoResponse	-1	n/a	n/a	16	77	Cue	Loss	True
727.473	3.95	Lose2	0.6923	0.0	No	2.577	0.0	n/a	NoResponse	-1	n/a	n/a	16	77	Fixation	Loss	True
731.422	0.16	Lose2	0.6923	0.001	No	2.577	-0.001	4.0	NoResponse	-1	0.175	730.597	16	77	Target	Loss	True
731.588	0.54	Lose2	0.6923	n/a	No	2.577	n/a	n/a	NoResponse	-1	n/a	n/a	16	77	Blank	Loss	True
731.597	0.3	Lose2	0.6923	0.001	No	2.577	-0.001	4.0	NoResponse	-1	0.175	n/a	16	77	ButtonPress	Loss	True
732.121	1.45	Lose2	0.6923	n/a	No	2.577	n/a	5.0	NoResponse	-1	0.044	731.165	16	77	Feedback	Loss	True
733.571	2.577	Lose2	0.6923	n/a	No	2.577	n/a	n/a	NoResponse	-1	0.0	n/a	16	77	ISIslide	Loss	True
