onset	duration	cue_type	current_mean_accuracy	duration_error	is_hit	isi_adjusted	onset_delay	response	response_type	reward	rt	rt_time	total_reward	trial_number	trial_phase	trial_type	one_press
11.102	0.25	Control	1.0	0.0	Yes	2.948	0.002	n/a	GoodResponse	0	n/a	n/a	0	0	Cue	Neutral	True
11.353	3.85	Control	1.0	0.0	Yes	2.948	0.001	n/a	GoodResponse	0	n/a	n/a	0	0	Fixation	Neutral	True
15.198	0.4	Control	1.0	0.004	Yes	2.948	-0.004	2.0	GoodResponse	0	0.323	14.521	0	0	Target	Neutral	True
15.521	0.3	Control	1.0	0.004	Yes	2.948	-0.004	2.0	GoodResponse	0	0.323	n/a	0	0	ButtonPress	Neutral	True
15.599	0.3	Control	1.0	n/a	Yes	2.948	n/a	n/a	GoodResponse	0	n/a	n/a	0	0	Blank	Neutral	True
15.9	1.45	Control	1.0	n/a	Yes	2.948	n/a	5.0	GoodResponse	0	0.027	14.927	0	0	Feedback	Neutral	True
17.354	2.948	Control	1.0	n/a	Yes	2.948	n/a	n/a	GoodResponse	0	0.0	n/a	0	0	ISIslide	Neutral	True
20.33	0.25	Lose2	1.0	0.0	Yes	2.77	0.03	n/a	GoodResponse	0	n/a	n/a	0	1	Cue	AvoidedLoss	True
20.58	4.0	Lose2	1.0	0.0	Yes	2.77	0.0	n/a	GoodResponse	0	n/a	n/a	0	1	Fixation	AvoidedLoss	True
24.576	0.39	Lose2	1.0	0.004	Yes	2.77	-0.004	2.0	GoodResponse	0	0.219	23.795	0	1	Target	AvoidedLoss	True
24.795	0.3	Lose2	1.0	0.004	Yes	2.77	-0.004	2.0	GoodResponse	0	0.219	n/a	0	1	ButtonPress	AvoidedLoss	True
24.977	0.31	Lose2	1.0	n/a	Yes	2.77	n/a	n/a	GoodResponse	0	n/a	n/a	0	1	Blank	AvoidedLoss	True
25.278	1.45	Lose2	1.0	n/a	Yes	2.77	n/a	5.0	GoodResponse	0	0.014	24.292	0	1	Feedback	AvoidedLoss	True
26.732	2.77	Lose2	1.0	n/a	Yes	2.77	n/a	n/a	GoodResponse	0	0.0	n/a	0	1	ISIslide	AvoidedLoss	True
29.524	0.25	Control	1.0	0.0	Yes	2.576	0.024	n/a	GoodResponse	0	n/a	n/a	0	2	Cue	Neutral	True
29.774	4.1	Control	1.0	0.001	Yes	2.576	0.0	n/a	GoodResponse	0	n/a	n/a	0	2	Fixation	Neutral	True
33.87	0.38	Control	1.0	0.004	Yes	2.576	-0.004	2.0	GoodResponse	0	0.2	33.07	0	2	Target	Neutral	True
34.07	0.3	Control	1.0	0.004	Yes	2.576	-0.004	2.0	GoodResponse	0	0.2	n/a	0	2	ButtonPress	Neutral	True
34.255	0.32	Control	1.0	n/a	Yes	2.576	n/a	n/a	GoodResponse	0	n/a	n/a	0	2	Blank	Neutral	True
34.572	1.45	Control	1.0	n/a	Yes	2.576	n/a	5.0	GoodResponse	0	0.037	33.609	0	2	Feedback	Neutral	True
36.026	2.576	Control	1.0	n/a	Yes	2.576	n/a	n/a	GoodResponse	0	0.0	n/a	0	2	ISIslide	Neutral	True
38.618	0.25	Win2	1.0	0.0	Yes	2.832	0.018	n/a	GoodResponse	1	n/a	n/a	1	3	Cue	Win	True
38.868	3.95	Win2	1.0	0.0	Yes	2.832	0.0	n/a	GoodResponse	1	n/a	n/a	1	3	Fixation	Win	True
42.83	0.37	Win2	1.0	0.0	Yes	2.832	0.012	2.0	GoodResponse	1	0.217	42.047	1	3	Target	Win	True
43.047	0.3	Win2	1.0	0.0	Yes	2.832	0.012	2.0	GoodResponse	1	0.217	n/a	1	3	ButtonPress	Win	True
43.198	0.33	Win2	1.0	n/a	Yes	2.832	n/a	n/a	GoodResponse	1	n/a	n/a	1	3	Blank	Win	True
43.515	1.45	Win2	1.0	n/a	Yes	2.832	n/a	5.0	GoodResponse	1	0.021	42.536	1	3	Feedback	Win	True
44.97	2.832	Win2	1.0	n/a	Yes	2.832	n/a	n/a	GoodResponse	1	0.0	n/a	1	3	ISIslide	Win	True
47.828	0.25	Win2	1.0	0.0	Yes	3.272	0.028	n/a	GoodResponse	1	n/a	n/a	2	4	Cue	Win	True
48.079	4.0	Win2	1.0	0.0	Yes	3.272	0.001	n/a	GoodResponse	1	n/a	n/a	2	4	Fixation	Win	True
52.074	0.36	Win2	1.0	0.004	Yes	3.272	-0.004	2.0	GoodResponse	1	0.283	51.357	2	4	Target	Win	True
52.357	0.3	Win2	1.0	0.004	Yes	3.272	-0.004	2.0	GoodResponse	1	0.283	n/a	2	4	ButtonPress	Win	True
52.442	0.34	Win2	1.0	n/a	Yes	3.272	n/a	n/a	GoodResponse	1	n/a	n/a	2	4	Blank	Win	True
52.776	1.45	Win2	1.0	n/a	Yes	3.272	n/a	5.0	GoodResponse	1	0.028	51.804	2	4	Feedback	Win	True
54.231	3.272	Win2	1.0	n/a	Yes	3.272	n/a	n/a	GoodResponse	1	0.0	n/a	2	4	ISIslide	Win	True
57.524	0.25	Win2	0.8332999999999999	0.0	No	2.776	0.024	n/a	NoResponse	0	n/a	n/a	2	5	Cue	MissedWin	False
57.775	4.0	Win2	0.8332999999999999	0.0	No	2.776	0.001	n/a	NoResponse	0	n/a	n/a	2	5	Fixation	MissedWin	False
61.77	0.35	Win2	0.8332999999999999	0.004	No	2.776	-0.004	n/a	NoResponse	0	n/a	n/a	2	5	Target	MissedWin	False
62.121	0.35	Win2	0.8332999999999999	n/a	No	2.776	n/a	n/a	NoResponse	0	n/a	n/a	2	5	Blank	MissedWin	False
62.472	1.45	Win2	0.8332999999999999	n/a	No	2.776	n/a	5.0	NoResponse	0	0.039	61.511	2	5	Feedback	MissedWin	False
63.926	2.776	Win2	0.8332999999999999	n/a	No	2.776	n/a	n/a	NoResponse	0	0.0	n/a	2	5	ISIslide	MissedWin	False
66.718	0.25	Lose2	0.8571	0.0	Yes	2.732	0.018	n/a	GoodResponse	0	n/a	n/a	2	6	Cue	AvoidedLoss	True
66.969	3.95	Lose2	0.8571	0.0	Yes	2.732	0.001	n/a	GoodResponse	0	n/a	n/a	2	6	Fixation	AvoidedLoss	True
70.914	0.34	Lose2	0.8571	0.004	Yes	2.732	-0.004	2.0	GoodResponse	0	0.226	70.14	2	6	Target	AvoidedLoss	True
71.14	0.3	Lose2	0.8571	0.004	Yes	2.732	-0.004	2.0	GoodResponse	0	0.226	n/a	2	6	ButtonPress	AvoidedLoss	True
71.265	0.36	Lose2	0.8571	n/a	Yes	2.732	n/a	n/a	GoodResponse	0	n/a	n/a	2	6	Blank	AvoidedLoss	True
71.616	1.45	Lose2	0.8571	n/a	Yes	2.732	n/a	5.0	GoodResponse	0	0.017	70.633	2	6	Feedback	AvoidedLoss	True
73.07	2.732	Lose2	0.8571	n/a	Yes	2.732	n/a	n/a	GoodResponse	0	0.0	n/a	2	6	ISIslide	AvoidedLoss	True
75.829	0.25	Lose2	0.75	0.0	No	4.021	0.029	n/a	PrematurePress	-1	n/a	n/a	1	7	Cue	Loss	True
76.079	4.05	Lose2	0.75	0.001	No	4.021	0.0	n/a	PrematurePress	-1	n/a	n/a	1	7	Fixation	Loss	True
80.125	0.33	Lose2	0.75	0.004	No	4.021	-0.004	2.0	PrematurePress	-1	0.094	79.219	1	7	Target	Loss	True
80.219	0.3	Lose2	0.75	0.004	No	4.021	-0.004	2.0	PrematurePress	-1	0.094	n/a	1	7	ButtonPress	Loss	True
80.459	0.37	Lose2	0.75	n/a	No	4.021	n/a	n/a	PrematurePress	-1	n/a	n/a	1	7	Blank	Loss	True
80.827	1.45	Lose2	0.75	n/a	No	4.021	n/a	5.0	PrematurePress	-1	0.025	79.852	1	7	Feedback	Loss	True
82.281	4.021	Lose2	0.75	n/a	No	4.021	n/a	n/a	PrematurePress	-1	0.0	n/a	1	7	ISIslide	Loss	True
86.327	0.25	Lose2	0.7778	0.0	Yes	3.023	0.027	n/a	GoodResponse	0	n/a	n/a	1	8	Cue	AvoidedLoss	True
86.577	3.95	Lose2	0.7778	0.001	Yes	3.023	0.0	n/a	GoodResponse	0	n/a	n/a	1	8	Fixation	AvoidedLoss	True
90.523	0.32	Lose2	0.7778	0.004	Yes	3.023	-0.004	2.0	GoodResponse	0	0.273	89.796	1	8	Target	AvoidedLoss	True
90.796	0.3	Lose2	0.7778	0.004	Yes	3.023	-0.004	2.0	GoodResponse	0	0.273	n/a	1	8	ButtonPress	AvoidedLoss	True
90.857	0.38	Lose2	0.7778	n/a	Yes	3.023	n/a	n/a	GoodResponse	0	n/a	n/a	1	8	Blank	AvoidedLoss	True
91.225	1.45	Lose2	0.7778	n/a	Yes	3.023	n/a	5.0	GoodResponse	0	0.018	90.243	1	8	Feedback	AvoidedLoss	True
92.679	3.023	Lose2	0.7778	n/a	Yes	3.023	n/a	n/a	GoodResponse	0	0.0	n/a	1	8	ISIslide	AvoidedLoss	True
95.721	0.25	Lose2	0.8	0.001	Yes	3.129	0.021	n/a	GoodResponse	0	n/a	n/a	1	9	Cue	AvoidedLoss	True
95.972	3.95	Lose2	0.8	0.0	Yes	3.129	0.001	n/a	GoodResponse	0	n/a	n/a	1	9	Fixation	AvoidedLoss	True
99.917	0.31	Lose2	0.8	0.004	Yes	3.129	-0.004	2.0	GoodResponse	0	0.251	99.168	1	9	Target	AvoidedLoss	True
100.168	0.3	Lose2	0.8	0.004	Yes	3.129	-0.004	2.0	GoodResponse	0	0.251	n/a	1	9	ButtonPress	AvoidedLoss	True
100.235	0.39	Lose2	0.8	n/a	Yes	3.129	n/a	n/a	GoodResponse	0	n/a	n/a	1	9	Blank	AvoidedLoss	True
100.619	1.45	Lose2	0.8	n/a	Yes	3.129	n/a	5.0	GoodResponse	0	0.038	99.657	1	9	Feedback	AvoidedLoss	True
102.074	3.129	Lose2	0.8	n/a	Yes	3.129	n/a	n/a	GoodResponse	0	0.0	n/a	1	9	ISIslide	AvoidedLoss	True
105.216	0.25	Control	0.8181999999999999	0.001	Yes	3.284	0.016	n/a	GoodResponse	0	n/a	n/a	1	10	Cue	Neutral	True
105.467	4.0	Control	0.8181999999999999	0.0	Yes	3.284	0.001	n/a	GoodResponse	0	n/a	n/a	1	10	Fixation	Neutral	True
109.462	0.3	Control	0.8181999999999999	0.004	Yes	3.284	-0.004	2.0	GoodResponse	0	0.239	108.701	1	10	Target	Neutral	True
109.701	0.3	Control	0.8181999999999999	0.004	Yes	3.284	-0.004	2.0	GoodResponse	0	0.239	n/a	1	10	ButtonPress	Neutral	True
109.763	0.4	Control	0.8181999999999999	n/a	Yes	3.284	n/a	n/a	GoodResponse	0	n/a	n/a	1	10	Blank	Neutral	True
110.165	1.45	Control	0.8181999999999999	n/a	Yes	3.284	n/a	5.0	GoodResponse	0	0.007	109.172	1	10	Feedback	Neutral	True
111.619	3.284	Control	0.8181999999999999	n/a	Yes	3.284	n/a	n/a	GoodResponse	0	0.0	n/a	1	10	ISIslide	Neutral	True
114.929	0.25	Lose2	0.8332999999999999	0.0	Yes	2.721	0.029	n/a	GoodResponse	0	n/a	n/a	1	11	Cue	AvoidedLoss	True
115.18	4.05	Lose2	0.8332999999999999	0.0	Yes	2.721	0.001	n/a	GoodResponse	0	n/a	n/a	1	11	Fixation	AvoidedLoss	True
119.225	0.29	Lose2	0.8332999999999999	0.004	Yes	2.721	-0.004	2.0	GoodResponse	0	0.224	118.449	1	11	Target	AvoidedLoss	True
119.449	0.3	Lose2	0.8332999999999999	0.004	Yes	2.721	-0.004	2.0	GoodResponse	0	0.224	n/a	1	11	ButtonPress	AvoidedLoss	True
119.526	0.41	Lose2	0.8332999999999999	n/a	Yes	2.721	n/a	n/a	GoodResponse	0	n/a	n/a	1	11	Blank	AvoidedLoss	True
119.927	1.45	Lose2	0.8332999999999999	n/a	Yes	2.721	n/a	5.0	GoodResponse	0	0.047	118.974	1	11	Feedback	AvoidedLoss	True
121.381	2.721	Lose2	0.8332999999999999	n/a	Yes	2.721	n/a	n/a	GoodResponse	0	0.0	n/a	1	11	ISIslide	AvoidedLoss	True
124.123	0.25	Control	0.8462000000000001	0.0	Yes	2.977	0.023	2.0	GoodResponse	0	0.236	123.359	1	12	Cue	Neutral	False
124.359	0.3	Control	0.8462000000000001	0.0	Yes	2.977	0.023	2.0	GoodResponse	0	0.236	n/a	1	12	ButtonPress	Neutral	False
124.374	3.9	Control	0.8462000000000001	0.0	Yes	2.977	0.001	n/a	GoodResponse	0	n/a	n/a	1	12	Fixation	Neutral	False
128.269	0.28	Control	0.8462000000000001	0.004	Yes	2.977	-0.004	2.0	GoodResponse	0	0.203	127.472	1	12	Target	Neutral	False
128.472	0.3	Control	0.8462000000000001	0.004	Yes	2.977	-0.004	2.0	GoodResponse	0	0.203	n/a	1	12	ButtonPress	Neutral	False
128.553	0.42	Control	0.8462000000000001	n/a	Yes	2.977	n/a	n/a	GoodResponse	0	n/a	n/a	1	12	Blank	Neutral	False
128.971	1.45	Control	0.8462000000000001	n/a	Yes	2.977	n/a	5.0	GoodResponse	0	0.026	127.997	1	12	Feedback	Neutral	False
130.425	2.977	Control	0.8462000000000001	n/a	Yes	2.977	n/a	n/a	GoodResponse	0	0.0	n/a	1	12	ISIslide	Neutral	False
133.417	0.25	Control	0.7857	0.0	No	2.783	0.017	n/a	NoResponse	0	n/a	n/a	1	13	Cue	Neutral	True
133.668	4.0	Control	0.7857	0.0	No	2.783	0.001	n/a	NoResponse	0	n/a	n/a	1	13	Fixation	Neutral	True
137.663	0.27	Control	0.7857	0.004	No	2.783	-0.004	2.0	NoResponse	0	0.311	136.974	1	13	Target	Neutral	True
137.948	0.43	Control	0.7857	n/a	No	2.783	n/a	n/a	NoResponse	0	n/a	n/a	1	13	Blank	Neutral	True
137.974	0.3	Control	0.7857	0.004	No	2.783	-0.004	2.0	NoResponse	0	0.311	n/a	1	13	ButtonPress	Neutral	True
138.365	1.45	Control	0.7857	n/a	No	2.783	n/a	5.0	NoResponse	0	0.047	137.412	1	13	Feedback	Neutral	True
139.82	2.783	Control	0.7857	n/a	No	2.783	n/a	n/a	NoResponse	0	0.0	n/a	1	13	ISIslide	Neutral	True
142.628	0.25	Win2	0.8	0.0	Yes	2.672	0.028	n/a	GoodResponse	1	n/a	n/a	2	14	Cue	Win	True
142.879	4.1	Win2	0.8	0.0	Yes	2.672	0.001	n/a	GoodResponse	1	n/a	n/a	2	14	Fixation	Win	True
146.974	0.26	Win2	0.8	0.004	Yes	2.672	-0.004	2.0	GoodResponse	1	0.255	146.229	2	14	Target	Win	True
147.229	0.3	Win2	0.8	0.004	Yes	2.672	-0.004	2.0	GoodResponse	1	0.255	n/a	2	14	ButtonPress	Win	True
147.242	0.44	Win2	0.8	n/a	Yes	2.672	n/a	n/a	GoodResponse	1	n/a	n/a	2	14	Blank	Win	True
147.677	1.45	Win2	0.8	n/a	Yes	2.672	n/a	5.0	GoodResponse	1	0.006	146.683	2	14	Feedback	Win	True
149.131	2.672	Win2	0.8	n/a	Yes	2.672	n/a	n/a	GoodResponse	1	0.0	n/a	2	14	ISIslide	Win	True
151.822	0.25	Control	0.8125	0.0	Yes	2.978	0.022	n/a	GoodResponse	0	n/a	n/a	2	15	Cue	Neutral	True
152.073	4.0	Control	0.8125	0.0	Yes	2.978	0.001	n/a	GoodResponse	0	n/a	n/a	2	15	Fixation	Neutral	True
156.068	0.25	Control	0.8125	0.004	Yes	2.978	-0.004	2.0	GoodResponse	0	0.193	155.261	2	15	Target	Neutral	True
156.261	0.3	Control	0.8125	0.004	Yes	2.978	-0.004	2.0	GoodResponse	0	0.193	n/a	2	15	ButtonPress	Neutral	True
156.319	0.45	Control	0.8125	n/a	Yes	2.978	n/a	n/a	GoodResponse	0	n/a	n/a	2	15	Blank	Neutral	True
156.77	1.45	Control	0.8125	n/a	Yes	2.978	n/a	5.0	GoodResponse	0	0.032	155.802	2	15	Feedback	Neutral	True
158.225	2.978	Control	0.8125	n/a	Yes	2.978	n/a	n/a	GoodResponse	0	0.0	n/a	2	15	ISIslide	Neutral	True
161.217	0.25	Win2	0.7646999999999999	0.0	No	2.883	0.017	n/a	NoResponse	0	n/a	n/a	2	16	Cue	MissedWin	False
161.468	4.0	Win2	0.7646999999999999	0.0	No	2.883	0.001	n/a	NoResponse	0	n/a	n/a	2	16	Fixation	MissedWin	False
165.463	0.24	Win2	0.7646999999999999	0.004	No	2.883	-0.004	n/a	NoResponse	0	n/a	n/a	2	16	Target	MissedWin	False
165.714	0.46	Win2	0.7646999999999999	n/a	No	2.883	n/a	n/a	NoResponse	0	n/a	n/a	2	16	Blank	MissedWin	False
166.165	1.45	Win2	0.7646999999999999	n/a	No	2.883	n/a	5.0	NoResponse	0	0.008	165.173	2	16	Feedback	MissedWin	False
167.619	2.883	Win2	0.7646999999999999	n/a	No	2.883	n/a	n/a	NoResponse	0	0.0	n/a	2	16	ISIslide	MissedWin	False
170.528	0.25	Lose2	0.7222	0.0	No	2.722	0.028	n/a	NoResponse	-1	n/a	n/a	1	17	Cue	Loss	False
170.779	3.95	Lose2	0.7222	0.0	No	2.722	0.001	n/a	NoResponse	-1	n/a	n/a	1	17	Fixation	Loss	False
174.724	0.23	Lose2	0.7222	0.004	No	2.722	-0.004	n/a	NoResponse	-1	n/a	n/a	1	17	Target	Loss	False
174.958	0.47	Lose2	0.7222	n/a	No	2.722	n/a	n/a	NoResponse	-1	n/a	n/a	1	17	Blank	Loss	False
175.426	1.45	Lose2	0.7222	n/a	No	2.722	n/a	5.0	NoResponse	-1	0.01	174.436	1	17	Feedback	Loss	False
176.88	2.722	Lose2	0.7222	n/a	No	2.722	n/a	n/a	NoResponse	-1	0.0	n/a	1	17	ISIslide	Loss	False
179.622	0.25	Lose2	0.6842	0.0	No	2.728	0.022	n/a	NoResponse	-1	n/a	n/a	0	18	Cue	Loss	True
179.873	4.05	Lose2	0.6842	0.0	No	2.728	0.001	n/a	NoResponse	-1	n/a	n/a	0	18	Fixation	Loss	True
183.918	0.22	Lose2	0.6842	0.004	No	2.728	-0.004	2.0	NoResponse	-1	0.235	183.153	0	18	Target	Loss	True
184.152	0.48	Lose2	0.6842	n/a	No	2.728	n/a	n/a	NoResponse	-1	n/a	n/a	0	18	Blank	Loss	True
184.153	0.3	Lose2	0.6842	0.004	No	2.728	-0.004	2.0	NoResponse	-1	0.235	n/a	0	18	ButtonPress	Loss	True
184.62	1.45	Lose2	0.6842	n/a	No	2.728	n/a	5.0	NoResponse	-1	0.035	183.655	0	18	Feedback	Loss	True
186.075	2.728	Lose2	0.6842	n/a	No	2.728	n/a	n/a	NoResponse	-1	0.0	n/a	0	18	ISIslide	Loss	True
188.816	0.25	Control	0.65	0.0	No	2.934	0.016	n/a	LatePress	0	n/a	n/a	0	19	Cue	Neutral	True
189.067	3.95	Control	0.65	0.0	No	2.934	0.001	n/a	LatePress	0	n/a	n/a	0	19	Fixation	Neutral	True
193.012	0.21	Control	0.65	0.004	No	2.934	-0.004	2.0	LatePress	0	0.212	192.224	0	19	Target	Neutral	True
193.224	0.3	Control	0.65	0.004	No	2.934	-0.004	2.0	LatePress	0	0.212	n/a	0	19	ButtonPress	Neutral	True
193.229	0.49	Control	0.65	n/a	No	2.934	n/a	n/a	LatePress	0	n/a	n/a	0	19	Blank	Neutral	True
193.714	1.45	Control	0.65	n/a	No	2.934	n/a	5.0	LatePress	0	0.015	192.729	0	19	Feedback	Neutral	True
195.168	2.934	Control	0.65	n/a	No	2.934	n/a	n/a	LatePress	0	0.0	n/a	0	19	ISIslide	Neutral	True
198.127	0.25	Control	0.619	0.0	No	2.623	0.027	n/a	NoResponse	0	n/a	n/a	0	20	Cue	Neutral	True
198.378	4.05	Control	0.619	0.0	No	2.623	0.001	n/a	NoResponse	0	n/a	n/a	0	20	Fixation	Neutral	True
202.423	0.22	Control	0.619	0.004	No	2.623	-0.004	2.0	NoResponse	0	0.299	201.722	0	20	Target	Neutral	True
202.657	0.48	Control	0.619	n/a	No	2.623	n/a	n/a	NoResponse	0	n/a	n/a	0	20	Blank	Neutral	True
202.722	0.3	Control	0.619	0.004	No	2.623	-0.004	2.0	NoResponse	0	0.299	n/a	0	20	ButtonPress	Neutral	True
203.125	1.45	Control	0.619	n/a	No	2.623	n/a	5.0	NoResponse	0	0.018	202.143	0	20	Feedback	Neutral	True
204.58	2.623	Control	0.619	n/a	No	2.623	n/a	n/a	NoResponse	0	0.0	n/a	0	20	ISIslide	Neutral	True
207.221	0.25	Control	0.5909	0.0	No	2.779	0.021	n/a	NoResponse	0	n/a	n/a	0	21	Cue	Neutral	False
207.472	4.1	Control	0.5909	0.0	No	2.779	0.001	n/a	NoResponse	0	n/a	n/a	0	21	Fixation	Neutral	False
211.567	0.23	Control	0.5909	0.004	No	2.779	-0.004	n/a	NoResponse	0	n/a	n/a	0	21	Target	Neutral	False
211.801	0.47	Control	0.5909	n/a	No	2.779	n/a	n/a	NoResponse	0	n/a	n/a	0	21	Blank	Neutral	False
212.269	1.45	Control	0.5909	n/a	No	2.779	n/a	5.0	NoResponse	0	0.044	211.313	0	21	Feedback	Neutral	False
213.724	2.779	Control	0.5909	n/a	No	2.779	n/a	n/a	NoResponse	0	0.0	n/a	0	21	ISIslide	Neutral	False
216.515	0.25	Control	0.5652	0.001	No	2.785	0.015	n/a	LatePress	0	n/a	n/a	0	22	Cue	Neutral	True
216.766	4.0	Control	0.5652	0.0	No	2.785	0.001	n/a	LatePress	0	n/a	n/a	0	22	Fixation	Neutral	True
220.762	0.24	Control	0.5652	0.003	No	2.785	-0.003	2.0	LatePress	0	0.241	220.003	0	22	Target	Neutral	True
221.003	0.3	Control	0.5652	0.003	No	2.785	-0.003	2.0	LatePress	0	0.241	n/a	0	22	ButtonPress	Neutral	True
221.012	0.46	Control	0.5652	n/a	No	2.785	n/a	n/a	LatePress	0	n/a	n/a	0	22	Blank	Neutral	True
221.464	1.45	Control	0.5652	n/a	No	2.785	n/a	5.0	LatePress	0	0.02	220.484	0	22	Feedback	Neutral	True
222.918	2.785	Control	0.5652	n/a	No	2.785	n/a	n/a	LatePress	0	0.0	n/a	0	22	ISIslide	Neutral	True
225.726	0.25	Control	0.5417000000000001	0.0	No	2.774	0.026	n/a	NoResponse	0	n/a	n/a	0	23	Cue	Neutral	True
225.977	3.9	Control	0.5417000000000001	0.0	No	2.774	0.001	n/a	NoResponse	0	n/a	n/a	0	23	Fixation	Neutral	True
229.872	0.25	Control	0.5417000000000001	0.004	No	2.774	-0.004	2.0	NoResponse	0	0.321	229.193	0	23	Target	Neutral	True
230.123	0.45	Control	0.5417000000000001	n/a	No	2.774	n/a	n/a	NoResponse	0	n/a	n/a	0	23	Blank	Neutral	True
230.193	0.3	Control	0.5417000000000001	0.004	No	2.774	-0.004	2.0	NoResponse	0	0.321	n/a	0	23	ButtonPress	Neutral	True
230.574	1.45	Control	0.5417000000000001	n/a	No	2.774	n/a	5.0	NoResponse	0	0.032	229.606	0	23	Feedback	Neutral	True
232.028	2.774	Control	0.5417000000000001	n/a	No	2.774	n/a	n/a	NoResponse	0	0.0	n/a	0	23	ISIslide	Neutral	True
234.82	0.25	Win2	0.56	0.0	Yes	3.13	0.02	n/a	GoodResponse	1	n/a	n/a	1	24	Cue	Win	True
235.071	3.95	Win2	0.56	0.0	Yes	3.13	0.001	n/a	GoodResponse	1	n/a	n/a	1	24	Fixation	Win	True
239.016	0.26	Win2	0.56	0.004	Yes	3.13	-0.004	2.0	GoodResponse	1	0.208	238.224	1	24	Target	Win	True
239.224	0.3	Win2	0.56	0.004	Yes	3.13	-0.004	2.0	GoodResponse	1	0.208	n/a	1	24	ButtonPress	Win	True
239.283	0.44	Win2	0.56	n/a	Yes	3.13	n/a	n/a	GoodResponse	1	n/a	n/a	1	24	Blank	Win	True
239.718	1.45	Win2	0.56	n/a	Yes	3.13	n/a	5.0	GoodResponse	1	0.01	238.728	1	24	Feedback	Win	True
241.172	3.13	Win2	0.56	n/a	Yes	3.13	n/a	n/a	GoodResponse	1	0.0	n/a	1	24	ISIslide	Win	True
244.315	0.25	Win2	0.5385	0.0	No	3.085	0.015	n/a	NoResponse	0	n/a	n/a	1	25	Cue	MissedWin	False
244.566	4.0	Win2	0.5385	0.0	No	3.085	0.001	n/a	NoResponse	0	n/a	n/a	1	25	Fixation	MissedWin	False
248.561	0.27	Win2	0.5385	0.004	No	3.085	-0.004	n/a	NoResponse	0	n/a	n/a	1	25	Target	MissedWin	False
248.845	0.43	Win2	0.5385	n/a	No	3.085	n/a	n/a	NoResponse	0	n/a	n/a	1	25	Blank	MissedWin	False
249.263	1.45	Win2	0.5385	n/a	No	3.085	n/a	5.0	NoResponse	0	0.025	248.288	1	25	Feedback	MissedWin	False
250.718	3.085	Win2	0.5385	n/a	No	3.085	n/a	n/a	NoResponse	0	0.0	n/a	1	25	ISIslide	MissedWin	False
253.827	0.25	Win2	0.5556	0.0	Yes	2.923	0.027	n/a	GoodResponse	1	n/a	n/a	2	26	Cue	Win	True
254.078	3.95	Win2	0.5556	0.0	Yes	2.923	0.001	n/a	GoodResponse	1	n/a	n/a	2	26	Fixation	Win	True
258.023	0.28	Win2	0.5556	0.004	Yes	2.923	-0.004	2.0	GoodResponse	1	0.258	257.281	2	26	Target	Win	True
258.281	0.3	Win2	0.5556	0.004	Yes	2.923	-0.004	2.0	GoodResponse	1	0.258	n/a	2	26	ButtonPress	Win	True
258.307	0.42	Win2	0.5556	n/a	Yes	2.923	n/a	n/a	GoodResponse	1	n/a	n/a	2	26	Blank	Win	True
258.725	1.45	Win2	0.5556	n/a	Yes	2.923	n/a	5.0	GoodResponse	1	0.027	257.752	2	26	Feedback	Win	True
260.179	2.923	Win2	0.5556	n/a	Yes	2.923	n/a	n/a	GoodResponse	1	0.0	n/a	2	26	ISIslide	Win	True
263.121	0.25	Lose2	0.5357	0.0	No	2.829	0.021	n/a	NoResponse	-1	n/a	n/a	1	27	Cue	Loss	False
263.372	4.05	Lose2	0.5357	0.0	No	2.829	0.001	n/a	NoResponse	-1	n/a	n/a	1	27	Fixation	Loss	False
267.418	0.29	Lose2	0.5357	0.003	No	2.829	-0.003	n/a	NoResponse	-1	n/a	n/a	1	27	Target	Loss	False
267.718	0.41	Lose2	0.5357	n/a	No	2.829	n/a	n/a	NoResponse	-1	n/a	n/a	1	27	Blank	Loss	False
268.12	1.45	Lose2	0.5357	n/a	No	2.829	n/a	5.0	NoResponse	-1	0.046	267.166	1	27	Feedback	Loss	False
269.574	2.829	Lose2	0.5357	n/a	No	2.829	n/a	n/a	NoResponse	-1	0.0	n/a	1	27	ISIslide	Loss	False
272.416	0.25	Control	0.5517	0.0	Yes	2.834	0.016	n/a	GoodResponse	0	n/a	n/a	1	28	Cue	Neutral	False
272.667	4.05	Control	0.5517	0.0	Yes	2.834	0.001	2.0	GoodResponse	0	0.179	271.846	1	28	Fixation	Neutral	False
272.846	0.3	Control	0.5517	0.0	Yes	2.834	0.001	2.0	GoodResponse	0	0.179	n/a	1	28	ButtonPress	Neutral	False
276.712	0.3	Control	0.5517	0.004	Yes	2.834	-0.004	2.0	GoodResponse	0	0.222	275.934	1	28	Target	Neutral	False
276.934	0.3	Control	0.5517	0.004	Yes	2.834	-0.004	2.0	GoodResponse	0	0.222	n/a	1	28	ButtonPress	Neutral	False
277.013	0.4	Control	0.5517	n/a	Yes	2.834	n/a	n/a	GoodResponse	0	n/a	n/a	1	28	Blank	Neutral	False
277.414	1.45	Control	0.5517	n/a	Yes	2.834	n/a	5.0	GoodResponse	0	0.021	276.435	1	28	Feedback	Neutral	False
278.868	2.834	Control	0.5517	n/a	Yes	2.834	n/a	n/a	GoodResponse	0	0.0	n/a	1	28	ISIslide	Neutral	False
281.727	0.25	Lose2	0.5667	0.0	Yes	2.823	0.027	n/a	GoodResponse	0	n/a	n/a	1	29	Cue	AvoidedLoss	True
281.978	3.95	Lose2	0.5667	0.0	Yes	2.823	0.001	n/a	GoodResponse	0	n/a	n/a	1	29	Fixation	AvoidedLoss	True
285.923	0.31	Lose2	0.5667	0.004	Yes	2.823	-0.004	2.0	GoodResponse	0	0.23	285.153	1	29	Target	AvoidedLoss	True
286.153	0.3	Lose2	0.5667	0.004	Yes	2.823	-0.004	2.0	GoodResponse	0	0.23	n/a	1	29	ButtonPress	AvoidedLoss	True
286.24	0.39	Lose2	0.5667	n/a	Yes	2.823	n/a	n/a	GoodResponse	0	n/a	n/a	1	29	Blank	AvoidedLoss	True
286.625	1.45	Lose2	0.5667	n/a	Yes	2.823	n/a	5.0	GoodResponse	0	0.028	285.653	1	29	Feedback	AvoidedLoss	True
288.079	2.823	Lose2	0.5667	n/a	Yes	2.823	n/a	n/a	GoodResponse	0	0.0	n/a	1	29	ISIslide	AvoidedLoss	True
290.921	0.25	Win2	0.5484	0.0	No	2.779	0.021	n/a	NoResponse	0	n/a	n/a	1	30	Cue	MissedWin	False
291.172	3.9	Win2	0.5484	0.0	No	2.779	0.001	n/a	NoResponse	0	n/a	n/a	1	30	Fixation	MissedWin	False
295.067	0.32	Win2	0.5484	0.004	No	2.779	-0.004	n/a	NoResponse	0	n/a	n/a	1	30	Target	MissedWin	False
295.401	0.38	Win2	0.5484	n/a	No	2.779	n/a	n/a	NoResponse	0	n/a	n/a	1	30	Blank	MissedWin	False
295.769	1.45	Win2	0.5484	n/a	No	2.779	n/a	5.0	NoResponse	0	0.008	294.777	1	30	Feedback	MissedWin	False
297.223	2.779	Win2	0.5484	n/a	No	2.779	n/a	n/a	NoResponse	0	0.0	n/a	1	30	ISIslide	MissedWin	False
300.015	0.25	Lose2	0.5312	0.0	No	2.835	0.015	n/a	NoResponse	-1	n/a	n/a	0	31	Cue	Loss	True
300.266	4.05	Lose2	0.5312	0.0	No	2.835	0.001	2.0	NoResponse	-1	3.065	302.331	0	31	Fixation	Loss	True
303.331	0.3	Lose2	0.5312	0.0	No	2.835	0.001	2.0	NoResponse	-1	3.065	n/a	0	31	ButtonPress	Loss	True
304.311	0.33	Lose2	0.5312	0.004	No	2.835	-0.004	n/a	NoResponse	-1	n/a	n/a	0	31	Target	Loss	True
304.645	0.37	Lose2	0.5312	n/a	No	2.835	n/a	n/a	NoResponse	-1	n/a	n/a	0	31	Blank	Loss	True
305.013	1.45	Lose2	0.5312	n/a	No	2.835	n/a	5.0	NoResponse	-1	0.031	304.044	0	31	Feedback	Loss	True
306.467	2.835	Lose2	0.5312	n/a	No	2.835	n/a	n/a	NoResponse	-1	0.0	n/a	0	31	ISIslide	Loss	True
309.326	0.25	Lose2	0.5152	0.0	No	2.624	0.026	n/a	NoResponse	-1	n/a	n/a	-1	32	Cue	Loss	False
309.577	4.15	Lose2	0.5152	0.0	No	2.624	0.001	n/a	NoResponse	-1	n/a	n/a	-1	32	Fixation	Loss	False
313.722	0.34	Lose2	0.5152	0.004	No	2.624	-0.004	n/a	NoResponse	-1	n/a	n/a	-1	32	Target	Loss	False
314.074	0.36	Lose2	0.5152	n/a	No	2.624	n/a	n/a	NoResponse	-1	n/a	n/a	-1	32	Blank	Loss	False
314.425	1.45	Lose2	0.5152	n/a	No	2.624	n/a	5.0	NoResponse	-1	0.034	313.459	-1	32	Feedback	Loss	False
315.879	2.624	Lose2	0.5152	n/a	No	2.624	n/a	n/a	NoResponse	-1	0.0	n/a	-1	32	ISIslide	Loss	False
318.52	0.25	Win2	0.5294	0.0	Yes	2.68	0.02	n/a	GoodResponse	1	n/a	n/a	0	33	Cue	Win	True
318.771	4.0	Win2	0.5294	0.0	Yes	2.68	0.001	n/a	GoodResponse	1	n/a	n/a	0	33	Fixation	Win	True
322.766	0.35	Win2	0.5294	0.004	Yes	2.68	-0.004	2.0	GoodResponse	1	0.296	322.062	0	33	Target	Win	True
323.062	0.3	Win2	0.5294	0.004	Yes	2.68	-0.004	2.0	GoodResponse	1	0.296	n/a	0	33	ButtonPress	Win	True
323.117	0.35	Win2	0.5294	n/a	Yes	2.68	n/a	n/a	GoodResponse	1	n/a	n/a	0	33	Blank	Win	True
323.468	1.45	Win2	0.5294	n/a	Yes	2.68	n/a	5.0	GoodResponse	1	0.014	322.482	0	33	Feedback	Win	True
324.923	2.68	Win2	0.5294	n/a	Yes	2.68	n/a	n/a	GoodResponse	1	0.0	n/a	0	33	ISIslide	Win	True
327.631	0.25	Lose2	0.5143	0.0	No	2.619	0.031	n/a	NoResponse	-1	n/a	n/a	-1	34	Cue	Loss	False
327.881	4.05	Lose2	0.5143	0.0	No	2.619	0.0	n/a	NoResponse	-1	n/a	n/a	-1	34	Fixation	Loss	False
331.927	0.36	Lose2	0.5143	0.004	No	2.619	-0.004	n/a	NoResponse	-1	n/a	n/a	-1	34	Target	Loss	False
332.295	0.34	Lose2	0.5143	n/a	No	2.619	n/a	n/a	NoResponse	-1	n/a	n/a	-1	34	Blank	Loss	False
332.629	1.45	Lose2	0.5143	n/a	No	2.619	n/a	5.0	NoResponse	-1	0.024	331.653	-1	34	Feedback	Loss	False
334.083	2.619	Lose2	0.5143	n/a	No	2.619	n/a	n/a	NoResponse	-1	0.0	n/a	-1	34	ISIslide	Loss	False
336.724	0.25	Lose2	0.5278	0.001	Yes	2.676	0.024	n/a	GoodResponse	0	n/a	n/a	-1	35	Cue	AvoidedLoss	True
336.975	4.0	Lose2	0.5278	0.0	Yes	2.676	0.001	n/a	GoodResponse	0	n/a	n/a	-1	35	Fixation	AvoidedLoss	True
340.971	0.37	Lose2	0.5278	0.003	Yes	2.676	-0.003	2.0	GoodResponse	0	0.256	340.227	-1	35	Target	AvoidedLoss	True
341.227	0.3	Lose2	0.5278	0.003	Yes	2.676	-0.003	2.0	GoodResponse	0	0.256	n/a	-1	35	ButtonPress	AvoidedLoss	True
341.355	0.33	Lose2	0.5278	n/a	Yes	2.676	n/a	n/a	GoodResponse	0	n/a	n/a	-1	35	Blank	AvoidedLoss	True
341.673	1.45	Lose2	0.5278	n/a	Yes	2.676	n/a	5.0	GoodResponse	0	0.006	340.679	-1	35	Feedback	AvoidedLoss	True
343.127	2.676	Lose2	0.5278	n/a	Yes	2.676	n/a	n/a	GoodResponse	0	0.0	n/a	-1	35	ISIslide	AvoidedLoss	True
345.818	0.25	Control	0.5405	0.0	Yes	2.682	0.018	n/a	GoodResponse	0	n/a	n/a	-1	36	Cue	Neutral	True
346.069	4.0	Control	0.5405	0.0	Yes	2.682	0.001	n/a	GoodResponse	0	n/a	n/a	-1	36	Fixation	Neutral	True
350.064	0.38	Control	0.5405	0.004	Yes	2.682	-0.004	2.0	GoodResponse	0	0.304	349.368	-1	36	Target	Neutral	True
350.368	0.3	Control	0.5405	0.004	Yes	2.682	-0.004	2.0	GoodResponse	0	0.304	n/a	-1	36	ButtonPress	Neutral	True
350.449	0.32	Control	0.5405	n/a	Yes	2.682	n/a	n/a	GoodResponse	0	n/a	n/a	-1	36	Blank	Neutral	True
350.766	1.45	Control	0.5405	n/a	Yes	2.682	n/a	5.0	GoodResponse	0	0.033	349.799	-1	36	Feedback	Neutral	True
352.221	2.682	Control	0.5405	n/a	Yes	2.682	n/a	n/a	GoodResponse	0	0.0	n/a	-1	36	ISIslide	Neutral	True
354.929	0.25	Win2	0.5526	0.0	Yes	2.871	0.029	n/a	GoodResponse	1	n/a	n/a	0	37	Cue	Win	True
355.18	4.0	Win2	0.5526	0.0	Yes	2.871	0.001	n/a	GoodResponse	1	n/a	n/a	0	37	Fixation	Win	True
359.175	0.39	Win2	0.5526	0.004	Yes	2.871	-0.004	2.0	GoodResponse	1	0.298	358.473	0	37	Target	Win	True
359.473	0.3	Win2	0.5526	0.004	Yes	2.871	-0.004	2.0	GoodResponse	1	0.298	n/a	0	37	ButtonPress	Win	True
359.576	0.31	Win2	0.5526	n/a	Yes	2.871	n/a	n/a	GoodResponse	1	n/a	n/a	0	37	Blank	Win	True
359.877	1.45	Win2	0.5526	n/a	Yes	2.871	n/a	5.0	GoodResponse	1	0.043	358.92	0	37	Feedback	Win	True
361.331	2.871	Win2	0.5526	n/a	Yes	2.871	n/a	n/a	GoodResponse	1	0.0	n/a	0	37	ISIslide	Win	True
364.223	0.25	Lose2	0.5640999999999999	0.0	Yes	2.827	0.023	n/a	GoodResponse	0	n/a	n/a	0	38	Cue	AvoidedLoss	True
364.474	3.95	Lose2	0.5640999999999999	0.0	Yes	2.827	0.001	n/a	GoodResponse	0	n/a	n/a	0	38	Fixation	AvoidedLoss	True
368.419	0.4	Lose2	0.5640999999999999	0.004	Yes	2.827	-0.004	2.0	GoodResponse	0	0.394	367.813	0	38	Target	AvoidedLoss	True
368.813	0.3	Lose2	0.5640999999999999	0.004	Yes	2.827	-0.004	2.0	GoodResponse	0	0.394	n/a	0	38	ButtonPress	AvoidedLoss	True
368.82	0.3	Lose2	0.5640999999999999	n/a	Yes	2.827	n/a	n/a	GoodResponse	0	n/a	n/a	0	38	Blank	AvoidedLoss	True
369.121	1.45	Lose2	0.5640999999999999	n/a	Yes	2.827	n/a	5.0	GoodResponse	0	0.019	368.14	0	38	Feedback	AvoidedLoss	True
370.576	2.827	Lose2	0.5640999999999999	n/a	Yes	2.827	n/a	n/a	GoodResponse	0	0.0	n/a	0	38	ISIslide	AvoidedLoss	True
373.417	0.25	Win2	0.575	0.0	Yes	2.983	0.017	n/a	GoodResponse	1	n/a	n/a	1	39	Cue	Win	True
373.668	4.1	Win2	0.575	0.0	Yes	2.983	0.001	n/a	GoodResponse	1	n/a	n/a	1	39	Fixation	Win	True
377.764	0.41	Win2	0.575	0.003	Yes	2.983	-0.003	2.0	GoodResponse	1	0.408	377.172	1	39	Target	Win	True
378.172	0.3	Win2	0.575	0.003	Yes	2.983	-0.003	2.0	GoodResponse	1	0.408	n/a	1	39	ButtonPress	Win	True
378.182	0.29	Win2	0.575	n/a	Yes	2.983	n/a	n/a	GoodResponse	1	n/a	n/a	1	39	Blank	Win	True
378.466	1.45	Win2	0.575	n/a	Yes	2.983	n/a	5.0	GoodResponse	1	0.04	377.506	1	39	Feedback	Win	True
379.92	2.983	Win2	0.575	n/a	Yes	2.983	n/a	n/a	GoodResponse	1	0.0	n/a	1	39	ISIslide	Win	True
382.929	0.25	Win2	0.5854	0.0	Yes	2.721	0.029	n/a	GoodResponse	1	n/a	n/a	2	40	Cue	Win	True
383.18	3.95	Win2	0.5854	0.0	Yes	2.721	0.001	n/a	GoodResponse	1	n/a	n/a	2	40	Fixation	Win	True
387.125	0.42	Win2	0.5854	0.004	Yes	2.721	-0.004	2.0	GoodResponse	1	0.379	386.504	2	40	Target	Win	True
387.504	0.3	Win2	0.5854	0.004	Yes	2.721	-0.004	2.0	GoodResponse	1	0.379	n/a	2	40	ButtonPress	Win	True
387.56	0.28	Win2	0.5854	n/a	Yes	2.721	n/a	n/a	GoodResponse	1	n/a	n/a	2	40	Blank	Win	True
387.827	1.45	Win2	0.5854	n/a	Yes	2.721	n/a	5.0	GoodResponse	1	0.045	386.872	2	40	Feedback	Win	True
389.281	2.721	Win2	0.5854	n/a	Yes	2.721	n/a	n/a	GoodResponse	1	0.0	n/a	2	40	ISIslide	Win	True
392.023	0.25	Win2	0.5714	0.0	No	2.777	0.023	n/a	NoResponse	0	n/a	n/a	2	41	Cue	MissedWin	False
392.274	3.9	Win2	0.5714	0.0	No	2.777	0.001	n/a	NoResponse	0	n/a	n/a	2	41	Fixation	MissedWin	False
396.169	0.43	Win2	0.5714	0.004	No	2.777	-0.004	n/a	NoResponse	0	n/a	n/a	2	41	Target	MissedWin	False
396.603	0.27	Win2	0.5714	n/a	No	2.777	n/a	n/a	NoResponse	0	n/a	n/a	2	41	Blank	MissedWin	False
396.871	1.45	Win2	0.5714	n/a	No	2.777	n/a	5.0	NoResponse	0	0.024	395.895	2	41	Feedback	MissedWin	False
398.325	2.777	Win2	0.5714	n/a	No	2.777	n/a	n/a	NoResponse	0	0.0	n/a	2	41	ISIslide	MissedWin	False
401.117	0.25	Control	0.5814	0.0	Yes	2.933	0.017	n/a	GoodResponse	0	n/a	n/a	2	42	Cue	Neutral	False
401.368	3.85	Control	0.5814	0.0	Yes	2.933	0.001	2.0	GoodResponse	0	0.053	400.421	2	42	Fixation	Neutral	False
401.421	0.3	Control	0.5814	0.0	Yes	2.933	0.001	2.0	GoodResponse	0	0.053	n/a	2	42	ButtonPress	Neutral	False
405.229	0.44	Control	0.5814	0.0	Yes	2.933	0.012	2.0	GoodResponse	0	0.361	404.59	2	42	Target	Neutral	False
405.59	0.3	Control	0.5814	0.0	Yes	2.933	0.012	2.0	GoodResponse	0	0.361	n/a	2	42	ButtonPress	Neutral	False
405.664	0.26	Control	0.5814	n/a	Yes	2.933	n/a	n/a	GoodResponse	0	n/a	n/a	2	42	Blank	Neutral	False
405.914	1.45	Control	0.5814	n/a	Yes	2.933	n/a	5.0	GoodResponse	0	0.008	404.922	2	42	Feedback	Neutral	False
407.369	2.933	Control	0.5814	n/a	Yes	2.933	n/a	n/a	GoodResponse	0	0.0	n/a	2	42	ISIslide	Neutral	False
410.328	0.25	Win2	0.5682	0.0	No	3.172	0.028	n/a	NoResponse	0	n/a	n/a	2	43	Cue	MissedWin	False
410.578	4.0	Win2	0.5682	0.0	No	3.172	0.0	n/a	NoResponse	0	n/a	n/a	2	43	Fixation	MissedWin	False
414.574	0.45	Win2	0.5682	0.004	No	3.172	-0.004	n/a	NoResponse	0	n/a	n/a	2	43	Target	MissedWin	False
415.025	0.25	Win2	0.5682	n/a	No	3.172	n/a	n/a	NoResponse	0	n/a	n/a	2	43	Blank	MissedWin	False
415.276	1.45	Win2	0.5682	n/a	No	3.172	n/a	5.0	NoResponse	0	0.01	414.286	2	43	Feedback	MissedWin	False
416.73	3.172	Win2	0.5682	n/a	No	3.172	n/a	n/a	NoResponse	0	0.0	n/a	2	43	ISIslide	MissedWin	False
419.923	0.25	Win2	0.5556	0.0	No	2.977	0.023	n/a	NoResponse	0	n/a	n/a	2	44	Cue	MissedWin	False
420.174	4.0	Win2	0.5556	0.0	No	2.977	0.001	n/a	NoResponse	0	n/a	n/a	2	44	Fixation	MissedWin	False
424.169	0.46	Win2	0.5556	0.004	No	2.977	-0.004	n/a	NoResponse	0	n/a	n/a	2	44	Target	MissedWin	False
424.637	0.24	Win2	0.5556	n/a	No	2.977	n/a	n/a	NoResponse	0	n/a	n/a	2	44	Blank	MissedWin	False
424.871	1.45	Win2	0.5556	n/a	No	2.977	n/a	5.0	NoResponse	0	0.025	423.896	2	44	Feedback	MissedWin	False
426.325	2.977	Win2	0.5556	n/a	No	2.977	n/a	n/a	NoResponse	0	0.0	n/a	2	44	ISIslide	MissedWin	False
429.318	0.25	Control	0.5435	0.0	No	2.882	0.018	n/a	NoResponse	0	n/a	n/a	2	45	Cue	Neutral	False
429.568	4.1	Control	0.5435	0.001	No	2.882	0.0	n/a	NoResponse	0	n/a	n/a	2	45	Fixation	Neutral	False
433.664	0.47	Control	0.5435	0.004	No	2.882	-0.004	n/a	NoResponse	0	n/a	n/a	2	45	Target	Neutral	False
434.149	0.23	Control	0.5435	n/a	No	2.882	n/a	n/a	NoResponse	0	n/a	n/a	2	45	Blank	Neutral	False
434.366	1.45	Control	0.5435	n/a	No	2.882	n/a	5.0	NoResponse	0	0.041	433.407	2	45	Feedback	Neutral	False
435.82	2.882	Control	0.5435	n/a	No	2.882	n/a	n/a	NoResponse	0	0.0	n/a	2	45	ISIslide	Neutral	False
438.729	0.25	Lose2	0.5532	0.0	Yes	3.371	0.029	n/a	GoodResponse	0	n/a	n/a	2	46	Cue	AvoidedLoss	True
438.98	4.0	Lose2	0.5532	0.0	Yes	3.371	0.001	n/a	GoodResponse	0	n/a	n/a	2	46	Fixation	AvoidedLoss	True
442.975	0.48	Lose2	0.5532	0.004	Yes	3.371	-0.004	2.0	GoodResponse	0	0.271	442.246	2	46	Target	AvoidedLoss	True
443.246	0.3	Lose2	0.5532	0.004	Yes	3.371	-0.004	2.0	GoodResponse	0	0.271	n/a	2	46	ButtonPress	AvoidedLoss	True
443.46	0.22	Lose2	0.5532	n/a	Yes	3.371	n/a	n/a	GoodResponse	0	n/a	n/a	2	46	Blank	AvoidedLoss	True
443.677	1.45	Lose2	0.5532	n/a	Yes	3.371	n/a	5.0	GoodResponse	0	0.047	442.724	2	46	Feedback	AvoidedLoss	True
445.132	3.371	Lose2	0.5532	n/a	Yes	3.371	n/a	n/a	GoodResponse	0	0.0	n/a	2	46	ISIslide	AvoidedLoss	True
448.525	0.25	Lose2	0.5625	0.0	Yes	2.675	0.025	n/a	GoodResponse	0	n/a	n/a	2	47	Cue	AvoidedLoss	True
448.776	4.0	Lose2	0.5625	0.0	Yes	2.675	0.001	n/a	GoodResponse	0	n/a	n/a	2	47	Fixation	AvoidedLoss	True
452.771	0.49	Lose2	0.5625	0.004	Yes	2.675	-0.004	2.0	GoodResponse	0	0.383	452.154	2	47	Target	AvoidedLoss	True
453.154	0.3	Lose2	0.5625	0.004	Yes	2.675	-0.004	2.0	GoodResponse	0	0.383	n/a	2	47	ButtonPress	AvoidedLoss	True
453.273	0.21	Lose2	0.5625	n/a	Yes	2.675	n/a	n/a	GoodResponse	0	n/a	n/a	2	47	Blank	AvoidedLoss	True
453.473	1.45	Lose2	0.5625	n/a	Yes	2.675	n/a	5.0	GoodResponse	0	0.007	452.48	2	47	Feedback	AvoidedLoss	True
454.928	2.675	Lose2	0.5625	n/a	Yes	2.675	n/a	n/a	GoodResponse	0	0.0	n/a	2	47	ISIslide	AvoidedLoss	True
457.619	0.25	Lose2	0.5714	0.0	Yes	3.031	0.019	n/a	GoodResponse	0	n/a	n/a	2	48	Cue	AvoidedLoss	True
457.87	3.95	Lose2	0.5714	0.0	Yes	3.031	0.001	n/a	GoodResponse	0	n/a	n/a	2	48	Fixation	AvoidedLoss	True
461.815	0.5	Lose2	0.5714	0.004	Yes	3.031	-0.004	2.0	GoodResponse	0	0.245	461.06	2	48	Target	AvoidedLoss	True
462.06	0.3	Lose2	0.5714	0.004	Yes	3.031	-0.004	2.0	GoodResponse	0	0.245	n/a	2	48	ButtonPress	AvoidedLoss	True
462.316	0.2	Lose2	0.5714	n/a	Yes	3.031	n/a	n/a	GoodResponse	0	n/a	n/a	2	48	Blank	AvoidedLoss	True
462.517	1.45	Lose2	0.5714	n/a	Yes	3.031	n/a	5.0	GoodResponse	0	0.037	461.554	2	48	Feedback	AvoidedLoss	True
463.971	3.031	Lose2	0.5714	n/a	Yes	3.031	n/a	n/a	GoodResponse	0	0.0	n/a	2	48	ISIslide	AvoidedLoss	True
467.03	0.25	Control	0.56	0.0	No	2.87	0.03	n/a	NoResponse	0	n/a	n/a	2	49	Cue	Neutral	False
467.281	4.0	Control	0.56	0.0	No	2.87	0.001	n/a	NoResponse	0	n/a	n/a	2	49	Fixation	Neutral	False
471.276	0.5	Control	0.56	0.004	No	2.87	-0.004	n/a	NoResponse	0	n/a	n/a	2	49	Target	Neutral	False
471.778	0.2	Control	0.56	n/a	No	2.87	n/a	n/a	NoResponse	0	n/a	n/a	2	49	Blank	Neutral	False
471.978	1.45	Control	0.56	n/a	No	2.87	n/a	5.0	NoResponse	0	0.038	471.016	2	49	Feedback	Neutral	False
473.433	2.87	Control	0.56	n/a	No	2.87	n/a	n/a	NoResponse	0	0.0	n/a	2	49	ISIslide	Neutral	False
476.325	0.25	Control	0.5686	0.0	Yes	2.775	0.025	n/a	GoodResponse	0	n/a	n/a	2	50	Cue	Neutral	True
476.575	4.0	Control	0.5686	0.001	Yes	2.775	0.0	n/a	GoodResponse	0	n/a	n/a	2	50	Fixation	Neutral	True
480.571	0.5	Control	0.5686	0.004	Yes	2.775	-0.004	2.0	GoodResponse	0	0.377	479.948	2	50	Target	Neutral	True
480.948	0.3	Control	0.5686	0.004	Yes	2.775	-0.004	2.0	GoodResponse	0	0.377	n/a	2	50	ButtonPress	Neutral	True
481.072	0.2	Control	0.5686	n/a	Yes	2.775	n/a	n/a	GoodResponse	0	n/a	n/a	2	50	Blank	Neutral	True
481.273	1.45	Control	0.5686	n/a	Yes	2.775	n/a	5.0	GoodResponse	0	0.012	480.285	2	50	Feedback	Neutral	True
482.727	2.775	Control	0.5686	n/a	Yes	2.775	n/a	n/a	GoodResponse	0	0.0	n/a	2	50	ISIslide	Neutral	True
485.519	0.25	Control	0.5769	0.0	Yes	2.731	0.019	n/a	GoodResponse	0	n/a	n/a	2	51	Cue	Neutral	True
485.77	3.95	Control	0.5769	0.0	Yes	2.731	0.001	n/a	GoodResponse	0	n/a	n/a	2	51	Fixation	Neutral	True
489.715	0.5	Control	0.5769	0.004	Yes	2.731	-0.004	2.0	GoodResponse	0	0.23	488.945	2	51	Target	Neutral	True
489.945	0.3	Control	0.5769	0.004	Yes	2.731	-0.004	2.0	GoodResponse	0	0.23	n/a	2	51	ButtonPress	Neutral	True
490.216	0.2	Control	0.5769	n/a	Yes	2.731	n/a	n/a	GoodResponse	0	n/a	n/a	2	51	Blank	Neutral	True
490.417	1.45	Control	0.5769	n/a	Yes	2.731	n/a	5.0	GoodResponse	0	0.038	489.455	2	51	Feedback	Neutral	True
491.871	2.731	Control	0.5769	n/a	Yes	2.731	n/a	n/a	GoodResponse	0	0.0	n/a	2	51	ISIslide	Neutral	True
494.629	0.25	Control	0.5660000000000001	0.001	No	2.621	0.029	n/a	NoResponse	0	n/a	n/a	2	52	Cue	Neutral	False
494.88	4.05	Control	0.5660000000000001	0.0	No	2.621	0.001	n/a	NoResponse	0	n/a	n/a	2	52	Fixation	Neutral	False
498.926	0.5	Control	0.5660000000000001	0.003	No	2.621	-0.003	n/a	NoResponse	0	n/a	n/a	2	52	Target	Neutral	False
499.427	0.2	Control	0.5660000000000001	n/a	No	2.621	n/a	n/a	NoResponse	0	n/a	n/a	2	52	Blank	Neutral	False
499.628	1.45	Control	0.5660000000000001	n/a	No	2.621	n/a	5.0	NoResponse	0	0.047	498.675	2	52	Feedback	Neutral	False
501.082	2.621	Control	0.5660000000000001	n/a	No	2.621	n/a	n/a	NoResponse	0	0.0	n/a	2	52	ISIslide	Neutral	False
503.723	0.25	Win2	0.5556	0.0	No	2.927	0.023	n/a	NoResponse	0	n/a	n/a	2	53	Cue	MissedWin	False
503.974	4.05	Win2	0.5556	0.0	No	2.927	0.001	n/a	NoResponse	0	n/a	n/a	2	53	Fixation	MissedWin	False
508.019	0.5	Win2	0.5556	0.004	No	2.927	-0.004	n/a	NoResponse	0	n/a	n/a	2	53	Target	MissedWin	False
508.521	0.2	Win2	0.5556	n/a	No	2.927	n/a	n/a	NoResponse	0	n/a	n/a	2	53	Blank	MissedWin	False
508.722	1.45	Win2	0.5556	n/a	No	2.927	n/a	5.0	NoResponse	0	0.025	507.747	2	53	Feedback	MissedWin	False
510.176	2.927	Win2	0.5556	n/a	No	2.927	n/a	n/a	NoResponse	0	0.0	n/a	2	53	ISIslide	MissedWin	False
513.118	0.25	Win2	0.5636	0.0	Yes	2.732	0.018	n/a	GoodResponse	1	n/a	n/a	3	54	Cue	Win	True
513.369	3.95	Win2	0.5636	0.0	Yes	2.732	0.001	n/a	GoodResponse	1	n/a	n/a	3	54	Fixation	Win	True
517.314	0.5	Win2	0.5636	0.004	Yes	2.732	-0.004	2.0	GoodResponse	1	0.398	516.712	3	54	Target	Win	True
517.712	0.3	Win2	0.5636	0.004	Yes	2.732	-0.004	2.0	GoodResponse	1	0.398	n/a	3	54	ButtonPress	Win	True
517.815	0.2	Win2	0.5636	n/a	Yes	2.732	n/a	n/a	GoodResponse	1	n/a	n/a	3	54	Blank	Win	True
518.016	1.45	Win2	0.5636	n/a	Yes	2.732	n/a	5.0	GoodResponse	1	0.0	517.016	3	54	Feedback	Win	True
519.47	2.732	Win2	0.5636	n/a	Yes	2.732	n/a	n/a	GoodResponse	1	0.0	n/a	3	54	ISIslide	Win	True
522.229	0.25	Control	0.5536	0.0	No	3.021	0.029	n/a	NoResponse	0	n/a	n/a	3	55	Cue	Neutral	False
522.479	3.95	Control	0.5536	0.0	No	3.021	0.0	n/a	NoResponse	0	n/a	n/a	3	55	Fixation	Neutral	False
526.441	0.5	Control	0.5536	0.0	No	3.021	0.012	n/a	NoResponse	0	n/a	n/a	3	55	Target	Neutral	False
526.926	0.2	Control	0.5536	n/a	No	3.021	n/a	n/a	NoResponse	0	n/a	n/a	3	55	Blank	Neutral	False
527.126	1.45	Control	0.5536	n/a	No	3.021	n/a	5.0	NoResponse	0	0.012	526.138	3	55	Feedback	Neutral	False
528.581	3.021	Control	0.5536	n/a	No	3.021	n/a	n/a	NoResponse	0	0.0	n/a	3	55	ISIslide	Neutral	False
531.623	0.25	Control	0.5439	0.0	No	2.827	0.023	n/a	NoResponse	0	n/a	n/a	3	56	Cue	Neutral	False
531.874	3.95	Control	0.5439	0.0	No	2.827	0.001	n/a	NoResponse	0	n/a	n/a	3	56	Fixation	Neutral	False
535.819	0.5	Control	0.5439	0.004	No	2.827	-0.004	n/a	NoResponse	0	n/a	n/a	3	56	Target	Neutral	False
536.321	0.2	Control	0.5439	n/a	No	2.827	n/a	n/a	NoResponse	0	n/a	n/a	3	56	Blank	Neutral	False
536.521	1.45	Control	0.5439	n/a	No	2.827	n/a	5.0	NoResponse	0	0.032	535.553	3	56	Feedback	Neutral	False
537.976	2.827	Control	0.5439	n/a	No	2.827	n/a	n/a	NoResponse	0	0.0	n/a	3	56	ISIslide	Neutral	False
540.817	0.25	Control	0.5345	0.0	No	3.483	0.017	n/a	NoResponse	0	n/a	n/a	3	57	Cue	Neutral	True
541.068	4.0	Control	0.5345	0.0	No	3.483	0.001	n/a	NoResponse	0	n/a	n/a	3	57	Fixation	Neutral	True
545.063	0.5	Control	0.5345	0.004	No	3.483	-0.004	2.0	NoResponse	0	0.542	544.605	3	57	Target	Neutral	True
545.565	0.2	Control	0.5345	n/a	No	3.483	n/a	n/a	NoResponse	0	n/a	n/a	3	57	Blank	Neutral	True
545.605	0.3	Control	0.5345	0.004	No	3.483	-0.004	2.0	NoResponse	0	0.542	n/a	3	57	ButtonPress	Neutral	True
545.765	1.45	Control	0.5345	n/a	No	3.483	n/a	5.0	NoResponse	0	0.007	544.772	3	57	Feedback	Neutral	True
547.22	3.483	Control	0.5345	n/a	No	3.483	n/a	n/a	NoResponse	0	0.0	n/a	3	57	ISIslide	Neutral	True
550.73	0.25	Win2	0.5254	0.0	No	2.72	0.03	n/a	NoResponse	0	n/a	n/a	3	58	Cue	MissedWin	False
550.981	4.05	Win2	0.5254	0.0	No	2.72	0.001	n/a	NoResponse	0	n/a	n/a	3	58	Fixation	MissedWin	False
555.026	0.5	Win2	0.5254	0.004	No	2.72	-0.004	n/a	NoResponse	0	n/a	n/a	3	58	Target	MissedWin	False
555.528	0.2	Win2	0.5254	n/a	No	2.72	n/a	n/a	NoResponse	0	n/a	n/a	3	58	Blank	MissedWin	False
555.729	1.45	Win2	0.5254	n/a	No	2.72	n/a	5.0	NoResponse	0	0.042	554.771	3	58	Feedback	MissedWin	False
557.183	2.72	Win2	0.5254	n/a	No	2.72	n/a	n/a	NoResponse	0	0.0	n/a	3	58	ISIslide	MissedWin	False
559.924	0.25	Lose2	0.5333	0.001	Yes	2.676	0.024	n/a	GoodResponse	0	n/a	n/a	3	59	Cue	AvoidedLoss	False
560.175	4.0	Lose2	0.5333	0.0	Yes	2.676	0.001	2.0	GoodResponse	0	3.527	562.702	3	59	Fixation	AvoidedLoss	False
563.702	0.3	Lose2	0.5333	0.0	Yes	2.676	0.001	2.0	GoodResponse	0	3.527	n/a	3	59	ButtonPress	AvoidedLoss	False
564.17	0.5	Lose2	0.5333	0.004	Yes	2.676	-0.004	2.0	GoodResponse	0	0.389	563.559	3	59	Target	AvoidedLoss	False
564.559	0.3	Lose2	0.5333	0.004	Yes	2.676	-0.004	2.0	GoodResponse	0	0.389	n/a	3	59	ButtonPress	AvoidedLoss	False
564.672	0.2	Lose2	0.5333	n/a	Yes	2.676	n/a	n/a	GoodResponse	0	n/a	n/a	3	59	Blank	AvoidedLoss	False
564.873	1.45	Lose2	0.5333	n/a	Yes	2.676	n/a	5.0	GoodResponse	0	0.02	563.893	3	59	Feedback	AvoidedLoss	False
566.327	2.676	Lose2	0.5333	n/a	Yes	2.676	n/a	n/a	GoodResponse	0	0.0	n/a	3	59	ISIslide	AvoidedLoss	False
569.018	0.25	Control	0.5246	0.0	No	2.682	0.018	n/a	NoResponse	0	n/a	n/a	3	60	Cue	Neutral	False
569.269	4.0	Control	0.5246	0.0	No	2.682	0.001	n/a	NoResponse	0	n/a	n/a	3	60	Fixation	Neutral	False
573.264	0.5	Control	0.5246	0.004	No	2.682	-0.004	n/a	NoResponse	0	n/a	n/a	3	60	Target	Neutral	False
573.766	0.2	Control	0.5246	n/a	No	2.682	n/a	n/a	NoResponse	0	n/a	n/a	3	60	Blank	Neutral	False
573.966	1.45	Control	0.5246	n/a	No	2.682	n/a	5.0	NoResponse	0	0.001	572.967	3	60	Feedback	Neutral	False
575.421	2.682	Control	0.5246	n/a	No	2.682	n/a	n/a	NoResponse	0	0.0	n/a	3	60	ISIslide	Neutral	False
578.129	0.25	Lose2	0.5323	0.0	Yes	2.971	0.029	n/a	GoodResponse	0	n/a	n/a	3	61	Cue	AvoidedLoss	True
578.38	4.0	Lose2	0.5323	0.0	Yes	2.971	0.001	n/a	GoodResponse	0	n/a	n/a	3	61	Fixation	AvoidedLoss	True
582.375	0.5	Lose2	0.5323	0.004	Yes	2.971	-0.004	2.0	GoodResponse	0	0.246	581.621	3	61	Target	AvoidedLoss	True
582.621	0.3	Lose2	0.5323	0.004	Yes	2.971	-0.004	2.0	GoodResponse	0	0.246	n/a	3	61	ButtonPress	AvoidedLoss	True
582.876	0.2	Lose2	0.5323	n/a	Yes	2.971	n/a	n/a	GoodResponse	0	n/a	n/a	3	61	Blank	AvoidedLoss	True
583.077	1.45	Lose2	0.5323	n/a	Yes	2.971	n/a	5.0	GoodResponse	0	0.011	582.088	3	61	Feedback	AvoidedLoss	True
584.531	2.971	Lose2	0.5323	n/a	Yes	2.971	n/a	n/a	GoodResponse	0	0.0	n/a	3	61	ISIslide	AvoidedLoss	True
587.524	0.25	Lose2	0.5397	0.0	Yes	2.876	0.024	n/a	GoodResponse	0	n/a	n/a	3	62	Cue	AvoidedLoss	True
587.774	3.9	Lose2	0.5397	0.0	Yes	2.876	0.0	n/a	GoodResponse	0	n/a	n/a	3	62	Fixation	AvoidedLoss	True
591.686	0.5	Lose2	0.5397	0.0	Yes	2.876	0.012	2.0	GoodResponse	0	0.225	590.911	3	62	Target	AvoidedLoss	True
591.911	0.3	Lose2	0.5397	0.0	Yes	2.876	0.012	2.0	GoodResponse	0	0.225	n/a	3	62	ButtonPress	AvoidedLoss	True
592.171	0.2	Lose2	0.5397	n/a	Yes	2.876	n/a	n/a	GoodResponse	0	n/a	n/a	3	62	Blank	AvoidedLoss	True
592.371	1.45	Lose2	0.5397	n/a	Yes	2.876	n/a	5.0	GoodResponse	0	0.034	591.405	3	62	Feedback	AvoidedLoss	True
593.826	2.876	Lose2	0.5397	n/a	Yes	2.876	n/a	n/a	GoodResponse	0	0.0	n/a	3	62	ISIslide	AvoidedLoss	True
596.718	0.25	Lose2	0.5468999999999999	0.0	Yes	2.632	0.018	n/a	GoodResponse	0	n/a	n/a	3	63	Cue	AvoidedLoss	True
596.968	4.05	Lose2	0.5468999999999999	0.0	Yes	2.632	0.0	n/a	GoodResponse	0	n/a	n/a	3	63	Fixation	AvoidedLoss	True
601.014	0.5	Lose2	0.5468999999999999	0.004	Yes	2.632	-0.004	2.0	GoodResponse	0	0.27	600.284	3	63	Target	AvoidedLoss	True
601.284	0.3	Lose2	0.5468999999999999	0.004	Yes	2.632	-0.004	2.0	GoodResponse	0	0.27	n/a	3	63	ButtonPress	AvoidedLoss	True
601.515	0.2	Lose2	0.5468999999999999	n/a	Yes	2.632	n/a	n/a	GoodResponse	0	n/a	n/a	3	63	Blank	AvoidedLoss	True
601.716	1.45	Lose2	0.5468999999999999	n/a	Yes	2.632	n/a	5.0	GoodResponse	0	0.008	600.724	3	63	Feedback	AvoidedLoss	True
603.17	2.632	Lose2	0.5468999999999999	n/a	Yes	2.632	n/a	n/a	GoodResponse	0	0.0	n/a	3	63	ISIslide	AvoidedLoss	True
605.828	0.25	Win2	0.5385	0.0	No	3.122	0.028	n/a	NoResponse	0	n/a	n/a	3	64	Cue	MissedWin	True
606.079	4.15	Win2	0.5385	0.0	No	3.122	0.001	2.0	NoResponse	0	3.816	608.895	3	64	Fixation	MissedWin	True
609.895	0.3	Win2	0.5385	0.0	No	3.122	0.001	2.0	NoResponse	0	3.816	n/a	3	64	ButtonPress	MissedWin	True
610.225	0.5	Win2	0.5385	0.003	No	3.122	-0.003	n/a	NoResponse	0	n/a	n/a	3	64	Target	MissedWin	True
610.726	0.2	Win2	0.5385	n/a	No	3.122	n/a	n/a	NoResponse	0	n/a	n/a	3	64	Blank	MissedWin	True
610.927	1.45	Win2	0.5385	n/a	No	3.122	n/a	5.0	NoResponse	0	0.015	609.942	3	64	Feedback	MissedWin	True
612.381	3.122	Win2	0.5385	n/a	No	3.122	n/a	n/a	NoResponse	0	0.0	n/a	3	64	ISIslide	MissedWin	True
615.524	0.25	Control	0.5303	0.0	No	2.776	0.024	n/a	NoResponse	0	n/a	n/a	3	65	Cue	Neutral	False
615.775	4.0	Control	0.5303	0.0	No	2.776	0.001	n/a	NoResponse	0	n/a	n/a	3	65	Fixation	Neutral	False
619.77	0.5	Control	0.5303	0.004	No	2.776	-0.004	n/a	NoResponse	0	n/a	n/a	3	65	Target	Neutral	False
620.271	0.2	Control	0.5303	n/a	No	2.776	n/a	n/a	NoResponse	0	n/a	n/a	3	65	Blank	Neutral	False
620.472	1.45	Control	0.5303	n/a	No	2.776	n/a	5.0	NoResponse	0	0.03	619.502	3	65	Feedback	Neutral	False
621.926	2.776	Control	0.5303	n/a	No	2.776	n/a	n/a	NoResponse	0	0.0	n/a	3	65	ISIslide	Neutral	False
624.718	0.25	Win2	0.5373	0.0	Yes	2.782	0.018	2.0	GoodResponse	1	0.211	623.929	4	66	Cue	Win	False
624.929	0.3	Win2	0.5373	0.0	Yes	2.782	0.018	2.0	GoodResponse	1	0.211	n/a	4	66	ButtonPress	Win	False
624.969	3.9	Win2	0.5373	0.0	Yes	2.782	0.001	n/a	GoodResponse	1	n/a	n/a	4	66	Fixation	Win	False
628.864	0.5	Win2	0.5373	0.004	Yes	2.782	-0.004	2.0	GoodResponse	1	0.205	628.069	4	66	Target	Win	False
629.069	0.3	Win2	0.5373	0.004	Yes	2.782	-0.004	2.0	GoodResponse	1	0.205	n/a	4	66	ButtonPress	Win	False
629.365	0.2	Win2	0.5373	n/a	Yes	2.782	n/a	n/a	GoodResponse	1	n/a	n/a	4	66	Blank	Win	False
629.566	1.45	Win2	0.5373	n/a	Yes	2.782	n/a	5.0	GoodResponse	1	0.009	628.575	4	66	Feedback	Win	False
631.02	2.782	Win2	0.5373	n/a	Yes	2.782	n/a	n/a	GoodResponse	1	0.0	n/a	4	66	ISIslide	Win	False
633.828	0.25	Control	0.5440999999999999	0.001	Yes	2.722	0.028	n/a	GoodResponse	0	n/a	n/a	4	67	Cue	Neutral	True
634.079	3.95	Control	0.5440999999999999	0.0	Yes	2.722	0.001	n/a	GoodResponse	0	n/a	n/a	4	67	Fixation	Neutral	True
638.024	0.5	Control	0.5440999999999999	0.004	Yes	2.722	-0.004	2.0	GoodResponse	0	0.489	637.513	4	67	Target	Neutral	True
638.513	0.3	Control	0.5440999999999999	0.004	Yes	2.722	-0.004	2.0	GoodResponse	0	0.489	n/a	4	67	ButtonPress	Neutral	True
638.526	0.2	Control	0.5440999999999999	n/a	Yes	2.722	n/a	n/a	GoodResponse	0	n/a	n/a	4	67	Blank	Neutral	True
638.726	1.45	Control	0.5440999999999999	n/a	Yes	2.722	n/a	5.0	GoodResponse	0	0.02	637.746	4	67	Feedback	Neutral	True
640.181	2.722	Control	0.5440999999999999	n/a	Yes	2.722	n/a	n/a	GoodResponse	0	0.0	n/a	4	67	ISIslide	Neutral	True
642.922	0.25	Win2	0.5362	0.0	No	3.078	0.022	n/a	NoResponse	0	n/a	n/a	4	68	Cue	MissedWin	False
643.173	4.0	Win2	0.5362	0.0	No	3.078	0.001	n/a	NoResponse	0	n/a	n/a	4	68	Fixation	MissedWin	False
647.168	0.5	Win2	0.5362	0.004	No	3.078	-0.004	n/a	NoResponse	0	n/a	n/a	4	68	Target	MissedWin	False
647.67	0.2	Win2	0.5362	n/a	No	3.078	n/a	n/a	NoResponse	0	n/a	n/a	4	68	Blank	MissedWin	False
647.87	1.45	Win2	0.5362	n/a	No	3.078	n/a	5.0	NoResponse	0	0.046	646.916	4	68	Feedback	MissedWin	False
649.325	3.078	Win2	0.5362	n/a	No	3.078	n/a	n/a	NoResponse	0	0.0	n/a	4	68	ISIslide	MissedWin	False
652.417	0.25	Win2	0.5286	0.0	No	3.233	0.017	n/a	NoResponse	0	n/a	n/a	4	69	Cue	MissedWin	False
652.668	3.95	Win2	0.5286	0.0	No	3.233	0.001	n/a	NoResponse	0	n/a	n/a	4	69	Fixation	MissedWin	False
656.613	0.5	Win2	0.5286	0.004	No	3.233	-0.004	n/a	NoResponse	0	n/a	n/a	4	69	Target	MissedWin	False
657.115	0.2	Win2	0.5286	n/a	No	3.233	n/a	n/a	NoResponse	0	n/a	n/a	4	69	Blank	MissedWin	False
657.315	1.45	Win2	0.5286	n/a	No	3.233	n/a	5.0	NoResponse	0	0.015	656.33	4	69	Feedback	MissedWin	False
658.77	3.233	Win2	0.5286	n/a	No	3.233	n/a	n/a	NoResponse	0	0.0	n/a	4	69	ISIslide	MissedWin	False
662.029	0.25	Lose2	0.5211	0.0	No	3.021	0.029	n/a	NoResponse	-1	n/a	n/a	3	70	Cue	Loss	False
662.28	4.05	Lose2	0.5211	0.0	No	3.021	0.001	n/a	NoResponse	-1	n/a	n/a	3	70	Fixation	Loss	False
666.326	0.5	Lose2	0.5211	0.003	No	3.021	-0.003	n/a	NoResponse	-1	n/a	n/a	3	70	Target	Loss	False
666.827	0.2	Lose2	0.5211	n/a	No	3.021	n/a	n/a	NoResponse	-1	n/a	n/a	3	70	Blank	Loss	False
667.028	1.45	Lose2	0.5211	n/a	No	3.021	n/a	5.0	NoResponse	-1	0.01	666.038	3	70	Feedback	Loss	False
668.482	3.021	Lose2	0.5211	n/a	No	3.021	n/a	n/a	NoResponse	-1	0.0	n/a	3	70	ISIslide	Loss	False
671.524	0.25	Win2	0.5278	0.0	Yes	2.726	0.024	n/a	GoodResponse	1	n/a	n/a	4	71	Cue	Win	True
671.775	4.05	Win2	0.5278	0.0	Yes	2.726	0.001	n/a	GoodResponse	1	n/a	n/a	4	71	Fixation	Win	True
675.821	0.5	Win2	0.5278	0.003	Yes	2.726	-0.003	2.0	GoodResponse	1	0.259	675.08	4	71	Target	Win	True
676.08	0.3	Win2	0.5278	0.003	Yes	2.726	-0.003	2.0	GoodResponse	1	0.259	n/a	4	71	ButtonPress	Win	True
676.322	0.2	Win2	0.5278	n/a	Yes	2.726	n/a	n/a	GoodResponse	1	n/a	n/a	4	71	Blank	Win	True
676.523	1.45	Win2	0.5278	n/a	Yes	2.726	n/a	5.0	GoodResponse	1	0.027	675.55	4	71	Feedback	Win	True
677.977	2.726	Win2	0.5278	n/a	Yes	2.726	n/a	n/a	GoodResponse	1	0.0	n/a	4	71	ISIslide	Win	True
680.719	0.25	Win2	0.5205	0.0	No	2.781	0.019	n/a	NoResponse	0	n/a	n/a	4	72	Cue	MissedWin	False
680.969	4.1	Win2	0.5205	0.0	No	2.781	0.0	n/a	NoResponse	0	n/a	n/a	4	72	Fixation	MissedWin	False
685.065	0.5	Win2	0.5205	0.004	No	2.781	-0.004	n/a	NoResponse	0	n/a	n/a	4	72	Target	MissedWin	False
685.566	0.2	Win2	0.5205	n/a	No	2.781	n/a	n/a	NoResponse	0	n/a	n/a	4	72	Blank	MissedWin	False
685.767	1.45	Win2	0.5205	n/a	No	2.781	n/a	5.0	NoResponse	0	0.008	684.775	4	72	Feedback	MissedWin	False
687.221	2.781	Win2	0.5205	n/a	No	2.781	n/a	n/a	NoResponse	0	0.0	n/a	4	72	ISIslide	MissedWin	False
690.03	0.25	Win2	0.5135000000000001	0.0	No	2.67	0.03	n/a	PrematurePress	0	n/a	n/a	4	73	Cue	MissedWin	False
690.28	4.0	Win2	0.5135000000000001	0.0	No	2.67	0.0	2.0	PrematurePress	0	0.063	689.343	4	73	Fixation	MissedWin	False
690.343	0.3	Win2	0.5135000000000001	0.0	No	2.67	0.0	2.0	PrematurePress	0	0.063	n/a	4	73	ButtonPress	MissedWin	False
694.276	0.5	Win2	0.5135000000000001	0.004	No	2.67	-0.004	2.0	PrematurePress	0	0.092	693.368	4	73	Target	MissedWin	False
694.368	0.3	Win2	0.5135000000000001	0.004	No	2.67	-0.004	2.0	PrematurePress	0	0.092	n/a	4	73	ButtonPress	MissedWin	False
694.777	0.2	Win2	0.5135000000000001	n/a	No	2.67	n/a	n/a	PrematurePress	0	n/a	n/a	4	73	Blank	MissedWin	False
694.978	1.45	Win2	0.5135000000000001	n/a	No	2.67	n/a	5.0	PrematurePress	0	0.01	693.988	4	73	Feedback	MissedWin	False
696.432	2.67	Win2	0.5135000000000001	n/a	No	2.67	n/a	2.0	PrematurePress	0	0.228	n/a	4	73	ISIslide	MissedWin	False
699.107	0.25	Lose2	0.5067	0.0	No	2.643	0.007	n/a	NoResponse	-1	n/a	n/a	3	74	Cue	Loss	True
699.358	4.05	Lose2	0.5067	0.0	No	2.643	0.001	2.0	NoResponse	-1	1.017	699.375	3	74	Fixation	Loss	True
700.375	0.3	Lose2	0.5067	0.0	No	2.643	0.001	2.0	NoResponse	-1	1.017	n/a	3	74	ButtonPress	Loss	True
703.403	0.5	Lose2	0.5067	0.004	No	2.643	-0.004	n/a	NoResponse	-1	n/a	n/a	3	74	Target	Loss	True
703.904	0.2	Lose2	0.5067	n/a	No	2.643	n/a	n/a	NoResponse	-1	n/a	n/a	3	74	Blank	Loss	True
704.105	1.45	Lose2	0.5067	n/a	No	2.643	n/a	5.0	NoResponse	-1	0.008	703.113	3	74	Feedback	Loss	True
705.559	2.643	Lose2	0.5067	n/a	No	2.643	n/a	n/a	NoResponse	-1	0.0	n/a	3	74	ISIslide	Loss	True
708.217	0.25	Lose2	0.5132	0.0	Yes	2.933	0.017	n/a	GoodResponse	0	n/a	n/a	3	75	Cue	AvoidedLoss	True
708.468	3.95	Lose2	0.5132	0.0	Yes	2.933	0.001	n/a	GoodResponse	0	n/a	n/a	3	75	Fixation	AvoidedLoss	True
712.413	0.5	Lose2	0.5132	0.004	Yes	2.933	-0.004	2.0	GoodResponse	0	0.334	711.747	3	75	Target	AvoidedLoss	True
712.747	0.3	Lose2	0.5132	0.004	Yes	2.933	-0.004	2.0	GoodResponse	0	0.334	n/a	3	75	ButtonPress	AvoidedLoss	True
712.915	0.2	Lose2	0.5132	n/a	Yes	2.933	n/a	n/a	GoodResponse	0	n/a	n/a	3	75	Blank	AvoidedLoss	True
713.115	1.45	Lose2	0.5132	n/a	Yes	2.933	n/a	5.0	GoodResponse	0	0.02	712.135	3	75	Feedback	AvoidedLoss	True
714.57	2.933	Lose2	0.5132	n/a	Yes	2.933	n/a	n/a	GoodResponse	0	0.0	n/a	3	75	ISIslide	AvoidedLoss	True
717.528	0.25	Control	0.5065	0.001	No	3.222	0.028	n/a	NoResponse	0	n/a	n/a	3	76	Cue	Neutral	False
717.779	4.05	Control	0.5065	0.0	No	3.222	0.001	n/a	NoResponse	0	n/a	n/a	3	76	Fixation	Neutral	False
721.825	0.5	Control	0.5065	0.003	No	3.222	-0.003	n/a	NoResponse	0	n/a	n/a	3	76	Target	Neutral	False
722.326	0.2	Control	0.5065	n/a	No	3.222	n/a	n/a	NoResponse	0	n/a	n/a	3	76	Blank	Neutral	False
722.527	1.45	Control	0.5065	n/a	No	3.222	n/a	5.0	NoResponse	0	0.022	721.549	3	76	Feedback	Neutral	False
723.981	3.222	Control	0.5065	n/a	No	3.222	n/a	n/a	NoResponse	0	0.0	n/a	3	76	ISIslide	Neutral	False
727.224	0.25	Lose2	0.5	0.0	No	2.576	0.024	n/a	NoResponse	-1	n/a	n/a	2	77	Cue	Loss	False
727.475	3.95	Lose2	0.5	0.0	No	2.576	0.001	n/a	NoResponse	-1	n/a	n/a	2	77	Fixation	Loss	False
731.42	0.5	Lose2	0.5	0.004	No	2.576	-0.004	n/a	NoResponse	-1	n/a	n/a	2	77	Target	Loss	False
731.921	0.2	Lose2	0.5	n/a	No	2.576	n/a	n/a	NoResponse	-1	n/a	n/a	2	77	Blank	Loss	False
732.122	1.45	Lose2	0.5	n/a	No	2.576	n/a	5.0	NoResponse	-1	0.036	731.158	2	77	Feedback	Loss	False
733.576	2.576	Lose2	0.5	n/a	No	2.576	n/a	n/a	NoResponse	-1	0.0	n/a	2	77	ISIslide	Loss	False
