onset	duration	cue_type	current_mean_accuracy	duration_error	is_hit	isi_adjusted	onset_delay	response	response_type	reward	rt	rt_time	total_reward	trial_number	trial_phase	trial_type	one_press
11.105	0.25	Control	1.0	0.0	Yes	2.945	0.005	n/a	GoodResponse	0	n/a	n/a	0	0	Cue	Neutral	True
11.356	3.85	Control	1.0	0.0	Yes	2.945	0.001	n/a	GoodResponse	0	n/a	n/a	0	0	Fixation	Neutral	True
15.201	0.4	Control	1.0	0.004	Yes	2.945	-0.004	4.0	GoodResponse	0	0.232	14.433	0	0	Target	Neutral	True
15.433	0.3	Control	1.0	0.004	Yes	2.945	-0.004	4.0	GoodResponse	0	0.232	n/a	0	0	ButtonPress	Neutral	True
15.602	0.3	Control	1.0	n/a	Yes	2.945	n/a	n/a	GoodResponse	0	n/a	n/a	0	0	Blank	Neutral	True
15.903	1.45	Control	1.0	n/a	Yes	2.945	n/a	5.0	GoodResponse	0	0.023	14.926	0	0	Feedback	Neutral	True
17.357	2.945	Control	1.0	n/a	Yes	2.945	n/a	n/a	GoodResponse	0	0.0	n/a	0	0	ISIslide	Neutral	True
20.316	0.25	Lose2	1.0	0.0	Yes	2.784	0.016	n/a	GoodResponse	0	n/a	n/a	0	1	Cue	AvoidedLoss	True
20.567	4.0	Lose2	1.0	0.0	Yes	2.784	0.001	n/a	GoodResponse	0	n/a	n/a	0	1	Fixation	AvoidedLoss	True
24.562	0.39	Lose2	1.0	0.004	Yes	2.784	-0.004	4.0	GoodResponse	0	0.187	23.749	0	1	Target	AvoidedLoss	True
24.749	0.3	Lose2	1.0	0.004	Yes	2.784	-0.004	4.0	GoodResponse	0	0.187	n/a	0	1	ButtonPress	AvoidedLoss	True
24.963	0.31	Lose2	1.0	n/a	Yes	2.784	n/a	n/a	GoodResponse	0	n/a	n/a	0	1	Blank	AvoidedLoss	True
25.264	1.45	Lose2	1.0	n/a	Yes	2.784	n/a	5.0	GoodResponse	0	0.028	24.292	0	1	Feedback	AvoidedLoss	True
26.719	2.784	Lose2	1.0	n/a	Yes	2.784	n/a	n/a	GoodResponse	0	0.0	n/a	0	1	ISIslide	AvoidedLoss	True
29.527	0.25	Control	1.0	0.0	Yes	2.573	0.027	n/a	GoodResponse	0	n/a	n/a	0	2	Cue	Neutral	True
29.778	4.1	Control	1.0	0.0	Yes	2.573	0.001	n/a	GoodResponse	0	n/a	n/a	0	2	Fixation	Neutral	True
33.873	0.38	Control	1.0	0.004	Yes	2.573	-0.004	4.0	GoodResponse	0	0.23	33.103	0	2	Target	Neutral	True
34.103	0.3	Control	1.0	0.004	Yes	2.573	-0.004	4.0	GoodResponse	0	0.23	n/a	0	2	ButtonPress	Neutral	True
34.258	0.32	Control	1.0	n/a	Yes	2.573	n/a	n/a	GoodResponse	0	n/a	n/a	0	2	Blank	Neutral	True
34.576	1.45	Control	1.0	n/a	Yes	2.573	n/a	5.0	GoodResponse	0	0.032	33.608	0	2	Feedback	Neutral	True
36.03	2.573	Control	1.0	n/a	Yes	2.573	n/a	n/a	GoodResponse	0	0.0	n/a	0	2	ISIslide	Neutral	True
38.621	0.25	Win2	1.0	0.0	Yes	2.829	0.021	n/a	GoodResponse	1	n/a	n/a	1	3	Cue	Win	False
38.872	3.95	Win2	1.0	0.0	Yes	2.829	0.001	4.0	GoodResponse	1	0.29	38.162	1	3	Fixation	Win	False
39.162	0.3	Win2	1.0	0.0	Yes	2.829	0.001	4.0	GoodResponse	1	0.29	n/a	1	3	ButtonPress	Win	False
42.817	0.37	Win2	1.0	0.004	Yes	2.829	-0.004	4.0	GoodResponse	1	0.217	42.034	1	3	Target	Win	False
43.034	0.3	Win2	1.0	0.004	Yes	2.829	-0.004	4.0	GoodResponse	1	0.217	n/a	1	3	ButtonPress	Win	False
43.201	0.33	Win2	1.0	n/a	Yes	2.829	n/a	n/a	GoodResponse	1	n/a	n/a	1	3	Blank	Win	False
43.519	1.45	Win2	1.0	n/a	Yes	2.829	n/a	5.0	GoodResponse	1	0.016	42.535	1	3	Feedback	Win	False
44.973	2.829	Win2	1.0	n/a	Yes	2.829	n/a	n/a	GoodResponse	1	0.0	n/a	1	3	ISIslide	Win	False
47.815	0.25	Win2	1.0	0.0	Yes	3.285	0.015	n/a	GoodResponse	1	n/a	n/a	2	4	Cue	Win	True
48.066	4.0	Win2	1.0	0.0	Yes	3.285	0.001	n/a	GoodResponse	1	n/a	n/a	2	4	Fixation	Win	True
52.061	0.36	Win2	1.0	0.004	Yes	3.285	-0.004	4.0	GoodResponse	1	0.25	51.311	2	4	Target	Win	True
52.311	0.3	Win2	1.0	0.004	Yes	3.285	-0.004	4.0	GoodResponse	1	0.25	n/a	2	4	ButtonPress	Win	True
52.429	0.34	Win2	1.0	n/a	Yes	3.285	n/a	n/a	GoodResponse	1	n/a	n/a	2	4	Blank	Win	True
52.763	1.45	Win2	1.0	n/a	Yes	3.285	n/a	5.0	GoodResponse	1	0.041	51.804	2	4	Feedback	Win	True
54.218	3.285	Win2	1.0	n/a	Yes	3.285	n/a	n/a	GoodResponse	1	0.0	n/a	2	4	ISIslide	Win	True
57.527	0.25	Win2	1.0	0.001	Yes	2.773	0.027	n/a	GoodResponse	1	n/a	n/a	3	5	Cue	Win	True
57.778	4.0	Win2	1.0	0.0	Yes	2.773	0.001	n/a	GoodResponse	1	n/a	n/a	3	5	Fixation	Win	True
61.773	0.35	Win2	1.0	0.004	Yes	2.773	-0.004	4.0	GoodResponse	1	0.205	60.978	3	5	Target	Win	True
61.978	0.3	Win2	1.0	0.004	Yes	2.773	-0.004	4.0	GoodResponse	1	0.205	n/a	3	5	ButtonPress	Win	True
62.125	0.35	Win2	1.0	n/a	Yes	2.773	n/a	n/a	GoodResponse	1	n/a	n/a	3	5	Blank	Win	True
62.476	1.45	Win2	1.0	n/a	Yes	2.773	n/a	5.0	GoodResponse	1	0.035	61.511	3	5	Feedback	Win	True
63.93	2.773	Win2	1.0	n/a	Yes	2.773	n/a	n/a	GoodResponse	1	0.0	n/a	3	5	ISIslide	Win	True
66.722	0.25	Lose2	0.8571	0.0	No	2.728	0.022	n/a	LatePress	-1	n/a	n/a	2	6	Cue	Loss	True
66.972	3.95	Lose2	0.8571	0.0	No	2.728	0.0	n/a	LatePress	-1	n/a	n/a	2	6	Fixation	Loss	True
70.917	0.34	Lose2	0.8571	0.005	No	2.728	-0.005	4.0	LatePress	-1	0.347	70.264	2	6	Target	Loss	True
71.264	0.3	Lose2	0.8571	0.005	No	2.728	-0.005	4.0	LatePress	-1	0.347	n/a	2	6	ButtonPress	Loss	True
71.269	0.36	Lose2	0.8571	n/a	No	2.728	n/a	n/a	LatePress	-1	n/a	n/a	2	6	Blank	Loss	True
71.62	1.45	Lose2	0.8571	n/a	No	2.728	n/a	5.0	LatePress	-1	0.012	70.632	2	6	Feedback	Loss	True
73.074	2.728	Lose2	0.8571	n/a	No	2.728	n/a	n/a	LatePress	-1	0.0	n/a	2	6	ISIslide	Loss	True
75.815	0.25	Lose2	0.875	0.001	Yes	4.035	0.015	n/a	GoodResponse	0	n/a	n/a	2	7	Cue	AvoidedLoss	True
76.066	4.05	Lose2	0.875	0.0	Yes	4.035	0.001	n/a	GoodResponse	0	n/a	n/a	2	7	Fixation	AvoidedLoss	True
80.112	0.33	Lose2	0.875	0.003	Yes	4.035	-0.003	4.0	GoodResponse	0	0.217	79.329	2	7	Target	AvoidedLoss	True
80.329	0.3	Lose2	0.875	0.003	Yes	4.035	-0.003	4.0	GoodResponse	0	0.217	n/a	2	7	ButtonPress	AvoidedLoss	True
80.446	0.37	Lose2	0.875	n/a	Yes	4.035	n/a	n/a	GoodResponse	0	n/a	n/a	2	7	Blank	AvoidedLoss	True
80.814	1.45	Lose2	0.875	n/a	Yes	4.035	n/a	5.0	GoodResponse	0	0.038	79.852	2	7	Feedback	AvoidedLoss	True
82.268	4.035	Lose2	0.875	n/a	Yes	4.035	n/a	n/a	GoodResponse	0	0.0	n/a	2	7	ISIslide	AvoidedLoss	True
86.33	0.25	Lose2	0.8889	0.0	Yes	3.02	0.03	n/a	GoodResponse	0	n/a	n/a	2	8	Cue	AvoidedLoss	True
86.581	3.95	Lose2	0.8889	0.0	Yes	3.02	0.001	n/a	GoodResponse	0	n/a	n/a	2	8	Fixation	AvoidedLoss	True
90.526	0.32	Lose2	0.8889	0.004	Yes	3.02	-0.004	4.0	GoodResponse	0	0.184	89.71	2	8	Target	AvoidedLoss	True
90.71	0.3	Lose2	0.8889	0.004	Yes	3.02	-0.004	4.0	GoodResponse	0	0.184	n/a	2	8	ButtonPress	AvoidedLoss	True
90.86	0.38	Lose2	0.8889	n/a	Yes	3.02	n/a	n/a	GoodResponse	0	n/a	n/a	2	8	Blank	AvoidedLoss	True
91.228	1.45	Lose2	0.8889	n/a	Yes	3.02	n/a	5.0	GoodResponse	0	0.014	90.242	2	8	Feedback	AvoidedLoss	True
92.683	3.02	Lose2	0.8889	n/a	Yes	3.02	n/a	n/a	GoodResponse	0	0.0	n/a	2	8	ISIslide	AvoidedLoss	True
95.725	0.25	Lose2	0.9	0.0	Yes	3.125	0.025	n/a	GoodResponse	0	n/a	n/a	2	9	Cue	AvoidedLoss	True
95.976	3.95	Lose2	0.9	0.0	Yes	3.125	0.001	n/a	GoodResponse	0	n/a	n/a	2	9	Fixation	AvoidedLoss	True
99.921	0.31	Lose2	0.9	0.004	Yes	3.125	-0.004	4.0	GoodResponse	0	0.175	99.096	2	9	Target	AvoidedLoss	True
100.096	0.3	Lose2	0.9	0.004	Yes	3.125	-0.004	4.0	GoodResponse	0	0.175	n/a	2	9	ButtonPress	AvoidedLoss	True
100.238	0.39	Lose2	0.9	n/a	Yes	3.125	n/a	n/a	GoodResponse	0	n/a	n/a	2	9	Blank	AvoidedLoss	True
100.623	1.45	Lose2	0.9	n/a	Yes	3.125	n/a	5.0	GoodResponse	0	0.034	99.657	2	9	Feedback	AvoidedLoss	True
102.077	3.125	Lose2	0.9	n/a	Yes	3.125	n/a	n/a	GoodResponse	0	0.0	n/a	2	9	ISIslide	AvoidedLoss	True
105.22	0.25	Control	0.9091	0.0	Yes	3.28	0.02	n/a	GoodResponse	0	n/a	n/a	2	10	Cue	Neutral	True
105.471	4.0	Control	0.9091	0.0	Yes	3.28	0.001	n/a	GoodResponse	0	n/a	n/a	2	10	Fixation	Neutral	True
109.466	0.3	Control	0.9091	0.004	Yes	3.28	-0.004	4.0	GoodResponse	0	0.217	108.683	2	10	Target	Neutral	True
109.683	0.3	Control	0.9091	0.004	Yes	3.28	-0.004	4.0	GoodResponse	0	0.217	n/a	2	10	ButtonPress	Neutral	True
109.767	0.4	Control	0.9091	n/a	Yes	3.28	n/a	n/a	GoodResponse	0	n/a	n/a	2	10	Blank	Neutral	True
110.168	1.45	Control	0.9091	n/a	Yes	3.28	n/a	5.0	GoodResponse	0	0.001	109.169	2	10	Feedback	Neutral	True
111.623	3.28	Control	0.9091	n/a	Yes	3.28	n/a	n/a	GoodResponse	0	0.0	n/a	2	10	ISIslide	Neutral	True
114.916	0.25	Lose2	0.9167000000000001	0.0	Yes	2.734	0.016	n/a	GoodResponse	0	n/a	n/a	2	11	Cue	AvoidedLoss	True
115.166	4.05	Lose2	0.9167000000000001	0.001	Yes	2.734	0.0	n/a	GoodResponse	0	n/a	n/a	2	11	Fixation	AvoidedLoss	True
119.212	0.29	Lose2	0.9167000000000001	0.004	Yes	2.734	-0.004	4.0	GoodResponse	0	0.188	118.4	2	11	Target	AvoidedLoss	True
119.4	0.3	Lose2	0.9167000000000001	0.004	Yes	2.734	-0.004	4.0	GoodResponse	0	0.188	n/a	2	11	ButtonPress	AvoidedLoss	True
119.513	0.41	Lose2	0.9167000000000001	n/a	Yes	2.734	n/a	n/a	GoodResponse	0	n/a	n/a	2	11	Blank	AvoidedLoss	True
119.914	1.45	Lose2	0.9167000000000001	n/a	Yes	2.734	n/a	5.0	GoodResponse	0	0.01	118.924	2	11	Feedback	AvoidedLoss	True
121.368	2.734	Lose2	0.9167000000000001	n/a	Yes	2.734	n/a	n/a	GoodResponse	0	0.0	n/a	2	11	ISIslide	AvoidedLoss	True
124.127	0.25	Control	0.9231	0.0	Yes	2.973	0.027	n/a	GoodResponse	0	n/a	n/a	2	12	Cue	Neutral	True
124.377	3.9	Control	0.9231	0.0	Yes	2.973	0.0	n/a	GoodResponse	0	n/a	n/a	2	12	Fixation	Neutral	True
128.289	0.28	Control	0.9231	0.0	Yes	2.973	0.012	4.0	GoodResponse	0	0.222	127.511	2	12	Target	Neutral	True
128.511	0.3	Control	0.9231	0.0	Yes	2.973	0.012	4.0	GoodResponse	0	0.222	n/a	2	12	ButtonPress	Neutral	True
128.556	0.42	Control	0.9231	n/a	Yes	2.973	n/a	n/a	GoodResponse	0	n/a	n/a	2	12	Blank	Neutral	True
128.974	1.45	Control	0.9231	n/a	Yes	2.973	n/a	5.0	GoodResponse	0	0.024	127.998	2	12	Feedback	Neutral	True
130.429	2.973	Control	0.9231	n/a	Yes	2.973	n/a	n/a	GoodResponse	0	0.0	n/a	2	12	ISIslide	Neutral	True
133.421	0.25	Control	0.9286	0.0	Yes	2.779	0.021	n/a	GoodResponse	0	n/a	n/a	2	13	Cue	Neutral	True
133.672	4.0	Control	0.9286	0.0	Yes	2.779	0.001	n/a	GoodResponse	0	n/a	n/a	2	13	Fixation	Neutral	True
137.667	0.27	Control	0.9286	0.004	Yes	2.779	-0.004	4.0	GoodResponse	0	0.222	136.889	2	13	Target	Neutral	True
137.889	0.3	Control	0.9286	0.004	Yes	2.779	-0.004	4.0	GoodResponse	0	0.222	n/a	2	13	ButtonPress	Neutral	True
137.951	0.43	Control	0.9286	n/a	Yes	2.779	n/a	n/a	GoodResponse	0	n/a	n/a	2	13	Blank	Neutral	True
138.369	1.45	Control	0.9286	n/a	Yes	2.779	n/a	5.0	GoodResponse	0	0.043	137.412	2	13	Feedback	Neutral	True
139.824	2.779	Control	0.9286	n/a	Yes	2.779	n/a	n/a	GoodResponse	0	0.0	n/a	2	13	ISIslide	Neutral	True
142.615	0.25	Win2	0.9333	0.0	Yes	2.685	0.015	n/a	GoodResponse	1	n/a	n/a	3	14	Cue	Win	False
142.866	4.1	Win2	0.9333	0.0	Yes	2.685	0.001	4.0	GoodResponse	1	3.51	145.376	3	14	Fixation	Win	False
146.376	0.3	Win2	0.9333	0.0	Yes	2.685	0.001	4.0	GoodResponse	1	3.51	n/a	3	14	ButtonPress	Win	False
146.962	0.26	Win2	0.9333	0.003	Yes	2.685	-0.003	4.0	GoodResponse	1	0.123	146.085	3	14	Target	Win	False
147.085	0.3	Win2	0.9333	0.003	Yes	2.685	-0.003	4.0	GoodResponse	1	0.123	n/a	3	14	ButtonPress	Win	False
147.229	0.44	Win2	0.9333	n/a	Yes	2.685	n/a	n/a	GoodResponse	1	n/a	n/a	3	14	Blank	Win	False
147.664	1.45	Win2	0.9333	n/a	Yes	2.685	n/a	5.0	GoodResponse	1	0.017	146.681	3	14	Feedback	Win	False
149.118	2.685	Win2	0.9333	n/a	Yes	2.685	n/a	n/a	GoodResponse	1	0.0	n/a	3	14	ISIslide	Win	False
151.826	0.25	Control	0.875	0.0	No	2.974	0.026	n/a	NoResponse	0	n/a	n/a	3	15	Cue	Neutral	True
152.077	4.0	Control	0.875	0.0	No	2.974	0.001	n/a	NoResponse	0	n/a	n/a	3	15	Fixation	Neutral	True
156.072	0.25	Control	0.875	0.004	No	2.974	-0.004	4.0	NoResponse	0	0.45	155.522	3	15	Target	Neutral	True
156.323	0.45	Control	0.875	n/a	No	2.974	n/a	n/a	NoResponse	0	n/a	n/a	3	15	Blank	Neutral	True
156.522	0.3	Control	0.875	0.004	No	2.974	-0.004	4.0	NoResponse	0	0.45	n/a	3	15	ButtonPress	Neutral	True
156.774	1.45	Control	0.875	n/a	No	2.974	n/a	5.0	NoResponse	0	0.028	155.802	3	15	Feedback	Neutral	True
158.229	2.974	Control	0.875	n/a	No	2.974	n/a	n/a	NoResponse	0	0.0	n/a	3	15	ISIslide	Neutral	True
161.221	0.25	Win2	0.8824	0.0	Yes	2.879	0.021	n/a	GoodResponse	1	n/a	n/a	4	16	Cue	Win	True
161.472	4.0	Win2	0.8824	0.0	Yes	2.879	0.001	n/a	GoodResponse	1	n/a	n/a	4	16	Fixation	Win	True
165.467	0.24	Win2	0.8824	0.004	Yes	2.879	-0.004	4.0	GoodResponse	1	0.208	164.675	4	16	Target	Win	True
165.675	0.3	Win2	0.8824	0.004	Yes	2.879	-0.004	4.0	GoodResponse	1	0.208	n/a	4	16	ButtonPress	Win	True
165.718	0.46	Win2	0.8824	n/a	Yes	2.879	n/a	n/a	GoodResponse	1	n/a	n/a	4	16	Blank	Win	True
166.169	1.45	Win2	0.8824	n/a	Yes	2.879	n/a	5.0	GoodResponse	1	0.048	165.217	4	16	Feedback	Win	True
167.623	2.879	Win2	0.8824	n/a	Yes	2.879	n/a	n/a	GoodResponse	1	0.0	n/a	4	16	ISIslide	Win	True
170.515	0.25	Lose2	0.8889	0.0	Yes	2.735	0.015	n/a	GoodResponse	0	n/a	n/a	4	17	Cue	AvoidedLoss	True
170.766	3.95	Lose2	0.8889	0.0	Yes	2.735	0.001	n/a	GoodResponse	0	n/a	n/a	4	17	Fixation	AvoidedLoss	True
174.711	0.23	Lose2	0.8889	0.004	Yes	2.735	-0.004	4.0	GoodResponse	0	0.196	173.907	4	17	Target	AvoidedLoss	True
174.907	0.3	Lose2	0.8889	0.004	Yes	2.735	-0.004	4.0	GoodResponse	0	0.196	n/a	4	17	ButtonPress	AvoidedLoss	True
174.945	0.47	Lose2	0.8889	n/a	Yes	2.735	n/a	n/a	GoodResponse	0	n/a	n/a	4	17	Blank	AvoidedLoss	True
175.413	1.45	Lose2	0.8889	n/a	Yes	2.735	n/a	5.0	GoodResponse	0	0.023	174.436	4	17	Feedback	AvoidedLoss	True
176.868	2.735	Lose2	0.8889	n/a	Yes	2.735	n/a	n/a	GoodResponse	0	0.0	n/a	4	17	ISIslide	AvoidedLoss	True
179.626	0.25	Lose2	0.8946999999999999	0.0	Yes	2.724	0.026	n/a	GoodResponse	0	n/a	n/a	4	18	Cue	AvoidedLoss	True
179.877	4.05	Lose2	0.8946999999999999	0.0	Yes	2.724	0.001	n/a	GoodResponse	0	n/a	n/a	4	18	Fixation	AvoidedLoss	True
183.922	0.22	Lose2	0.8946999999999999	0.004	Yes	2.724	-0.004	4.0	GoodResponse	0	0.213	183.135	4	18	Target	AvoidedLoss	True
184.135	0.3	Lose2	0.8946999999999999	0.004	Yes	2.724	-0.004	4.0	GoodResponse	0	0.213	n/a	4	18	ButtonPress	AvoidedLoss	True
184.156	0.48	Lose2	0.8946999999999999	n/a	Yes	2.724	n/a	n/a	GoodResponse	0	n/a	n/a	4	18	Blank	AvoidedLoss	True
184.624	1.45	Lose2	0.8946999999999999	n/a	Yes	2.724	n/a	5.0	GoodResponse	0	0.032	183.656	4	18	Feedback	AvoidedLoss	True
186.078	2.724	Lose2	0.8946999999999999	n/a	Yes	2.724	n/a	n/a	GoodResponse	0	0.0	n/a	4	18	ISIslide	AvoidedLoss	True
188.82	0.25	Control	0.9	0.0	Yes	2.93	0.02	n/a	GoodResponse	0	n/a	n/a	4	19	Cue	Neutral	False
189.071	3.95	Control	0.9	0.0	Yes	2.93	0.001	4.0	GoodResponse	0	3.75	191.821	4	19	Fixation	Neutral	False
192.821	0.3	Control	0.9	0.0	Yes	2.93	0.001	4.0	GoodResponse	0	3.75	n/a	4	19	ButtonPress	Neutral	False
193.016	0.21	Control	0.9	0.004	Yes	2.93	-0.004	4.0	GoodResponse	0	0.196	192.212	4	19	Target	Neutral	False
193.212	0.3	Control	0.9	0.004	Yes	2.93	-0.004	4.0	GoodResponse	0	0.196	n/a	4	19	ButtonPress	Neutral	False
193.233	0.49	Control	0.9	n/a	Yes	2.93	n/a	n/a	GoodResponse	0	n/a	n/a	4	19	Blank	Neutral	False
193.718	1.45	Control	0.9	n/a	Yes	2.93	n/a	5.0	GoodResponse	0	0.011	192.729	4	19	Feedback	Neutral	False
195.172	2.93	Control	0.9	n/a	Yes	2.93	n/a	n/a	GoodResponse	0	0.0	n/a	4	19	ISIslide	Neutral	False
198.114	0.25	Control	0.8571	0.001	No	2.636	0.014	n/a	NoResponse	0	n/a	n/a	4	20	Cue	Neutral	True
198.365	4.05	Control	0.8571	0.0	No	2.636	0.001	n/a	NoResponse	0	n/a	n/a	4	20	Fixation	Neutral	True
202.411	0.2	Control	0.8571	0.003	No	2.636	-0.003	4.0	NoResponse	0	0.209	201.62	4	20	Target	Neutral	True
202.611	0.5	Control	0.8571	n/a	No	2.636	n/a	n/a	NoResponse	0	n/a	n/a	4	20	Blank	Neutral	True
202.62	0.3	Control	0.8571	0.003	No	2.636	-0.003	4.0	NoResponse	0	0.209	n/a	4	20	ButtonPress	Neutral	True
203.113	1.45	Control	0.8571	n/a	No	2.636	n/a	5.0	NoResponse	0	0.03	202.143	4	20	Feedback	Neutral	True
204.567	2.636	Control	0.8571	n/a	No	2.636	n/a	n/a	NoResponse	0	0.0	n/a	4	20	ISIslide	Neutral	True
207.225	0.25	Control	0.8181999999999999	0.0	No	2.775	0.025	n/a	NoResponse	0	n/a	n/a	4	21	Cue	Neutral	True
207.476	4.1	Control	0.8181999999999999	0.0	No	2.775	0.001	n/a	NoResponse	0	n/a	n/a	4	21	Fixation	Neutral	True
211.571	0.19	Control	0.8181999999999999	0.004	No	2.775	-0.004	4.0	NoResponse	0	0.215	210.786	4	21	Target	Neutral	True
211.772	0.51	Control	0.8181999999999999	n/a	No	2.775	n/a	n/a	NoResponse	0	n/a	n/a	4	21	Blank	Neutral	True
211.786	0.3	Control	0.8181999999999999	0.004	No	2.775	-0.004	4.0	NoResponse	0	0.215	n/a	4	21	ButtonPress	Neutral	True
212.273	1.45	Control	0.8181999999999999	n/a	No	2.775	n/a	5.0	NoResponse	0	0.041	211.314	4	21	Feedback	Neutral	True
213.728	2.775	Control	0.8181999999999999	n/a	No	2.775	n/a	n/a	NoResponse	0	0.0	n/a	4	21	ISIslide	Neutral	True
216.52	0.25	Control	0.8261	0.0	Yes	2.78	0.02	n/a	GoodResponse	0	n/a	n/a	4	22	Cue	Neutral	True
216.77	4.0	Control	0.8261	0.0	Yes	2.78	0.0	n/a	GoodResponse	0	n/a	n/a	4	22	Fixation	Neutral	True
220.766	0.18	Control	0.8261	0.004	Yes	2.78	-0.004	4.0	GoodResponse	0	0.128	219.894	4	22	Target	Neutral	True
220.894	0.3	Control	0.8261	0.004	Yes	2.78	-0.004	4.0	GoodResponse	0	0.128	n/a	4	22	ButtonPress	Neutral	True
220.949	0.52	Control	0.8261	n/a	Yes	2.78	n/a	n/a	GoodResponse	0	n/a	n/a	4	22	Blank	Neutral	True
221.468	1.45	Control	0.8261	n/a	Yes	2.78	n/a	5.0	GoodResponse	0	0.017	220.485	4	22	Feedback	Neutral	True
222.922	2.78	Control	0.8261	n/a	Yes	2.78	n/a	n/a	GoodResponse	0	0.0	n/a	4	22	ISIslide	Neutral	True
225.73	0.25	Control	0.7917000000000001	0.0	No	2.77	0.03	n/a	NoResponse	0	n/a	n/a	4	23	Cue	Neutral	True
225.981	3.9	Control	0.7917000000000001	0.0	No	2.77	0.001	n/a	NoResponse	0	n/a	n/a	4	23	Fixation	Neutral	True
229.876	0.17	Control	0.7917000000000001	0.004	No	2.77	-0.004	4.0	NoResponse	0	0.336	229.212	4	23	Target	Neutral	True
230.06	0.53	Control	0.7917000000000001	n/a	No	2.77	n/a	n/a	NoResponse	0	n/a	n/a	4	23	Blank	Neutral	True
230.212	0.3	Control	0.7917000000000001	0.004	No	2.77	-0.004	4.0	NoResponse	0	0.336	n/a	4	23	ButtonPress	Neutral	True
230.578	1.45	Control	0.7917000000000001	n/a	No	2.77	n/a	5.0	NoResponse	0	0.029	229.607	4	23	Feedback	Neutral	True
232.033	2.77	Control	0.7917000000000001	n/a	No	2.77	n/a	n/a	NoResponse	0	0.0	n/a	4	23	ISIslide	Neutral	True
234.824	0.25	Win2	0.76	0.0	No	3.126	0.024	n/a	NoResponse	0	n/a	n/a	4	24	Cue	MissedWin	True
235.075	3.95	Win2	0.76	0.0	No	3.126	0.001	n/a	NoResponse	0	n/a	n/a	4	24	Fixation	MissedWin	True
239.02	0.16	Win2	0.76	0.004	No	3.126	-0.004	4.0	NoResponse	0	0.199	238.219	4	24	Target	MissedWin	True
239.187	0.54	Win2	0.76	n/a	No	3.126	n/a	n/a	NoResponse	0	n/a	n/a	4	24	Blank	MissedWin	True
239.219	0.3	Win2	0.76	0.004	No	3.126	-0.004	4.0	NoResponse	0	0.199	n/a	4	24	ButtonPress	MissedWin	True
239.722	1.45	Win2	0.76	n/a	No	3.126	n/a	5.0	NoResponse	0	0.007	238.729	4	24	Feedback	MissedWin	True
241.177	3.126	Win2	0.76	n/a	No	3.126	n/a	n/a	NoResponse	0	0.0	n/a	4	24	ISIslide	MissedWin	True
244.319	0.25	Win2	0.7308	0.0	No	3.081	0.019	n/a	NoResponse	0	n/a	n/a	4	25	Cue	MissedWin	True
244.57	4.0	Win2	0.7308	0.0	No	3.081	0.001	n/a	NoResponse	0	n/a	n/a	4	25	Fixation	MissedWin	True
248.565	0.15	Win2	0.7308	0.004	No	3.081	-0.004	4.0	NoResponse	0	0.161	247.726	4	25	Target	MissedWin	True
248.716	0.55	Win2	0.7308	n/a	No	3.081	n/a	n/a	NoResponse	0	n/a	n/a	4	25	Blank	MissedWin	True
248.726	0.3	Win2	0.7308	0.004	No	3.081	-0.004	4.0	NoResponse	0	0.161	n/a	4	25	ButtonPress	MissedWin	True
249.267	1.45	Win2	0.7308	n/a	No	3.081	n/a	5.0	NoResponse	0	0.022	248.289	4	25	Feedback	MissedWin	True
250.722	3.081	Win2	0.7308	n/a	No	3.081	n/a	n/a	NoResponse	0	0.0	n/a	4	25	ISIslide	MissedWin	True
253.814	0.25	Win2	0.7037	0.0	No	2.936	0.014	n/a	NoResponse	0	n/a	n/a	4	26	Cue	MissedWin	True
254.065	3.95	Win2	0.7037	0.0	No	2.936	0.001	n/a	NoResponse	0	n/a	n/a	4	26	Fixation	MissedWin	True
258.01	0.15	Win2	0.7037	0.004	No	2.936	-0.004	4.0	NoResponse	0	0.192	257.202	4	26	Target	MissedWin	True
258.161	0.55	Win2	0.7037	n/a	No	2.936	n/a	n/a	NoResponse	0	n/a	n/a	4	26	Blank	MissedWin	True
258.202	0.3	Win2	0.7037	0.004	No	2.936	-0.004	4.0	NoResponse	0	0.192	n/a	4	26	ButtonPress	MissedWin	True
258.712	1.45	Win2	0.7037	n/a	No	2.936	n/a	5.0	NoResponse	0	0.04	257.752	4	26	Feedback	MissedWin	True
260.167	2.936	Win2	0.7037	n/a	No	2.936	n/a	n/a	NoResponse	0	0.0	n/a	4	26	ISIslide	MissedWin	True
263.126	0.25	Lose2	0.6786	0.0	No	2.824	0.026	n/a	NoResponse	-1	n/a	n/a	3	27	Cue	Loss	False
263.376	4.05	Lose2	0.6786	0.0	No	2.824	0.0	4.0	NoResponse	-1	3.991	266.367	3	27	Fixation	Loss	False
267.367	0.3	Lose2	0.6786	0.0	No	2.824	0.0	4.0	NoResponse	-1	3.991	n/a	3	27	ButtonPress	Loss	False
267.422	0.15	Lose2	0.6786	0.004	No	2.824	-0.004	4.0	NoResponse	-1	0.301	266.723	3	27	Target	Loss	False
267.572	0.55	Lose2	0.6786	n/a	No	2.824	n/a	n/a	NoResponse	-1	n/a	n/a	3	27	Blank	Loss	False
267.723	0.3	Lose2	0.6786	0.004	No	2.824	-0.004	4.0	NoResponse	-1	0.301	n/a	3	27	ButtonPress	Loss	False
268.124	1.45	Lose2	0.6786	n/a	No	2.824	n/a	5.0	NoResponse	-1	0.043	267.167	3	27	Feedback	Loss	False
269.578	2.824	Lose2	0.6786	n/a	No	2.824	n/a	n/a	NoResponse	-1	0.0	n/a	3	27	ISIslide	Loss	False
272.42	0.25	Control	0.6552	0.0	No	2.83	0.02	n/a	NoResponse	0	n/a	n/a	3	28	Cue	Neutral	True
272.671	4.05	Control	0.6552	0.0	No	2.83	0.001	n/a	NoResponse	0	n/a	n/a	3	28	Fixation	Neutral	True
276.716	0.15	Control	0.6552	0.004	No	2.83	-0.004	4.0	NoResponse	0	0.205	275.921	3	28	Target	Neutral	True
276.867	0.55	Control	0.6552	n/a	No	2.83	n/a	n/a	NoResponse	0	n/a	n/a	3	28	Blank	Neutral	True
276.921	0.3	Control	0.6552	0.004	No	2.83	-0.004	4.0	NoResponse	0	0.205	n/a	3	28	ButtonPress	Neutral	True
277.418	1.45	Control	0.6552	n/a	No	2.83	n/a	5.0	NoResponse	0	0.017	276.435	3	28	Feedback	Neutral	True
278.873	2.83	Control	0.6552	n/a	No	2.83	n/a	n/a	NoResponse	0	0.0	n/a	3	28	ISIslide	Neutral	True
281.714	0.25	Lose2	0.6333	0.0	No	2.836	0.014	n/a	NoResponse	-1	n/a	n/a	2	29	Cue	Loss	True
281.965	3.95	Lose2	0.6333	0.0	No	2.836	0.001	n/a	NoResponse	-1	n/a	n/a	2	29	Fixation	Loss	True
285.91	0.15	Lose2	0.6333	0.004	No	2.836	-0.004	4.0	NoResponse	-1	0.192	285.102	2	29	Target	Loss	True
286.061	0.55	Lose2	0.6333	n/a	No	2.836	n/a	n/a	NoResponse	-1	n/a	n/a	2	29	Blank	Loss	True
286.102	0.3	Lose2	0.6333	0.004	No	2.836	-0.004	4.0	NoResponse	-1	0.192	n/a	2	29	ButtonPress	Loss	True
286.612	1.45	Lose2	0.6333	n/a	No	2.836	n/a	5.0	NoResponse	-1	0.042	285.654	2	29	Feedback	Loss	True
288.067	2.836	Lose2	0.6333	n/a	No	2.836	n/a	n/a	NoResponse	-1	0.0	n/a	2	29	ISIslide	Loss	True
290.925	0.25	Win2	0.6129	0.0	No	2.775	0.025	n/a	NoResponse	0	n/a	n/a	2	30	Cue	MissedWin	True
291.176	3.9	Win2	0.6129	0.0	No	2.775	0.001	n/a	NoResponse	0	n/a	n/a	2	30	Fixation	MissedWin	True
295.071	0.16	Win2	0.6129	0.004	No	2.775	-0.004	4.0	NoResponse	0	0.182	294.253	2	30	Target	MissedWin	True
295.238	0.54	Win2	0.6129	n/a	No	2.775	n/a	n/a	NoResponse	0	n/a	n/a	2	30	Blank	MissedWin	True
295.253	0.3	Win2	0.6129	0.004	No	2.775	-0.004	4.0	NoResponse	0	0.182	n/a	2	30	ButtonPress	MissedWin	True
295.773	1.45	Win2	0.6129	n/a	No	2.775	n/a	5.0	NoResponse	0	0.006	294.779	2	30	Feedback	MissedWin	True
297.227	2.775	Win2	0.6129	n/a	No	2.775	n/a	n/a	NoResponse	0	0.0	n/a	2	30	ISIslide	MissedWin	True
300.019	0.25	Lose2	0.5938	0.0	No	2.831	0.019	n/a	NoResponse	-1	n/a	n/a	1	31	Cue	Loss	True
300.27	4.05	Lose2	0.5938	0.0	No	2.831	0.001	n/a	NoResponse	-1	n/a	n/a	1	31	Fixation	Loss	True
304.315	0.17	Lose2	0.5938	0.004	No	2.831	-0.004	4.0	NoResponse	-1	0.191	303.506	1	31	Target	Loss	True
304.499	0.53	Lose2	0.5938	n/a	No	2.831	n/a	n/a	NoResponse	-1	n/a	n/a	1	31	Blank	Loss	True
304.506	0.3	Lose2	0.5938	0.004	No	2.831	-0.004	4.0	NoResponse	-1	0.191	n/a	1	31	ButtonPress	Loss	True
305.017	1.45	Lose2	0.5938	n/a	No	2.831	n/a	5.0	NoResponse	-1	0.027	304.044	1	31	Feedback	Loss	True
306.472	2.831	Lose2	0.5938	n/a	No	2.831	n/a	n/a	NoResponse	-1	0.0	n/a	1	31	ISIslide	Loss	True
309.314	0.25	Lose2	0.6061	0.0	Yes	2.636	0.014	n/a	GoodResponse	0	n/a	n/a	1	32	Cue	AvoidedLoss	True
309.564	4.15	Lose2	0.6061	0.0	Yes	2.636	0.0	n/a	GoodResponse	0	n/a	n/a	1	32	Fixation	AvoidedLoss	True
313.71	0.18	Lose2	0.6061	0.004	Yes	2.636	-0.004	4.0	GoodResponse	0	0.139	312.849	1	32	Target	AvoidedLoss	True
313.849	0.3	Lose2	0.6061	0.004	Yes	2.636	-0.004	4.0	GoodResponse	0	0.139	n/a	1	32	ButtonPress	AvoidedLoss	True
313.894	0.52	Lose2	0.6061	n/a	Yes	2.636	n/a	n/a	GoodResponse	0	n/a	n/a	1	32	Blank	AvoidedLoss	True
314.412	1.45	Lose2	0.6061	n/a	Yes	2.636	n/a	5.0	GoodResponse	0	0.047	313.459	1	32	Feedback	AvoidedLoss	True
315.867	2.636	Lose2	0.6061	n/a	Yes	2.636	n/a	n/a	GoodResponse	0	0.0	n/a	1	32	ISIslide	AvoidedLoss	True
318.524	0.25	Win2	0.6175999999999999	0.001	Yes	2.676	0.024	n/a	GoodResponse	1	n/a	n/a	2	33	Cue	Win	True
318.775	4.0	Win2	0.6175999999999999	0.0	Yes	2.676	0.001	n/a	GoodResponse	1	n/a	n/a	2	33	Fixation	Win	True
322.771	0.19	Win2	0.6175999999999999	0.003	Yes	2.676	-0.003	4.0	GoodResponse	1	0.166	321.937	2	33	Target	Win	True
322.937	0.3	Win2	0.6175999999999999	0.003	Yes	2.676	-0.003	4.0	GoodResponse	1	0.166	n/a	2	33	ButtonPress	Win	True
322.971	0.51	Win2	0.6175999999999999	n/a	Yes	2.676	n/a	n/a	GoodResponse	1	n/a	n/a	2	33	Blank	Win	True
323.473	1.45	Win2	0.6175999999999999	n/a	Yes	2.676	n/a	5.0	GoodResponse	1	0.011	322.484	2	33	Feedback	Win	True
324.927	2.676	Win2	0.6175999999999999	n/a	Yes	2.676	n/a	n/a	GoodResponse	1	0.0	n/a	2	33	ISIslide	Win	True
327.618	0.25	Lose2	0.6286	0.0	Yes	2.632	0.018	n/a	GoodResponse	0	n/a	n/a	2	34	Cue	AvoidedLoss	True
327.869	4.05	Lose2	0.6286	0.0	Yes	2.632	0.001	n/a	GoodResponse	0	n/a	n/a	2	34	Fixation	AvoidedLoss	True
331.915	0.2	Lose2	0.6286	0.003	Yes	2.632	-0.003	4.0	GoodResponse	0	0.164	331.079	2	34	Target	AvoidedLoss	True
332.079	0.3	Lose2	0.6286	0.003	Yes	2.632	-0.003	4.0	GoodResponse	0	0.164	n/a	2	34	ButtonPress	AvoidedLoss	True
332.115	0.5	Lose2	0.6286	n/a	Yes	2.632	n/a	n/a	GoodResponse	0	n/a	n/a	2	34	Blank	AvoidedLoss	True
332.617	1.45	Lose2	0.6286	n/a	Yes	2.632	n/a	5.0	GoodResponse	0	0.037	331.654	2	34	Feedback	AvoidedLoss	True
334.071	2.632	Lose2	0.6286	n/a	Yes	2.632	n/a	n/a	GoodResponse	0	0.0	n/a	2	34	ISIslide	AvoidedLoss	True
336.729	0.25	Lose2	0.6389	0.0	Yes	2.671	0.029	n/a	GoodResponse	0	n/a	n/a	2	35	Cue	AvoidedLoss	True
336.98	4.0	Lose2	0.6389	0.0	Yes	2.671	0.001	n/a	GoodResponse	0	n/a	n/a	2	35	Fixation	AvoidedLoss	True
340.975	0.21	Lose2	0.6389	0.004	Yes	2.671	-0.004	4.0	GoodResponse	0	0.186	340.161	2	35	Target	AvoidedLoss	True
341.161	0.3	Lose2	0.6389	0.004	Yes	2.671	-0.004	4.0	GoodResponse	0	0.186	n/a	2	35	ButtonPress	AvoidedLoss	True
341.192	0.49	Lose2	0.6389	n/a	Yes	2.671	n/a	n/a	GoodResponse	0	n/a	n/a	2	35	Blank	AvoidedLoss	True
341.677	1.45	Lose2	0.6389	n/a	Yes	2.671	n/a	5.0	GoodResponse	0	0.001	340.678	2	35	Feedback	AvoidedLoss	True
343.131	2.671	Lose2	0.6389	n/a	Yes	2.671	n/a	n/a	GoodResponse	0	0.0	n/a	2	35	ISIslide	AvoidedLoss	True
345.823	0.25	Control	0.6215999999999999	0.0	No	2.677	0.023	n/a	NoResponse	0	n/a	n/a	2	36	Cue	Neutral	True
346.074	4.0	Control	0.6215999999999999	0.0	No	2.677	0.001	4.0	NoResponse	0	3.035	348.109	2	36	Fixation	Neutral	True
349.109	0.3	Control	0.6215999999999999	0.0	No	2.677	0.001	4.0	NoResponse	0	3.035	n/a	2	36	ButtonPress	Neutral	True
350.069	0.22	Control	0.6215999999999999	0.004	No	2.677	-0.004	n/a	NoResponse	0	n/a	n/a	2	36	Target	Neutral	True
350.303	0.48	Control	0.6215999999999999	n/a	No	2.677	n/a	n/a	NoResponse	0	n/a	n/a	2	36	Blank	Neutral	True
350.771	1.45	Control	0.6215999999999999	n/a	No	2.677	n/a	5.0	NoResponse	0	0.029	349.8	2	36	Feedback	Neutral	True
352.225	2.677	Control	0.6215999999999999	n/a	No	2.677	n/a	n/a	NoResponse	0	0.0	n/a	2	36	ISIslide	Neutral	True
354.917	0.25	Win2	0.6315999999999999	0.0	Yes	2.883	0.017	n/a	GoodResponse	1	n/a	n/a	3	37	Cue	Win	True
355.167	4.0	Win2	0.6315999999999999	0.0	Yes	2.883	0.0	n/a	GoodResponse	1	n/a	n/a	3	37	Fixation	Win	True
359.163	0.23	Win2	0.6315999999999999	0.004	Yes	2.883	-0.004	4.0	GoodResponse	1	0.205	358.368	3	37	Target	Win	True
359.368	0.3	Win2	0.6315999999999999	0.004	Yes	2.883	-0.004	4.0	GoodResponse	1	0.205	n/a	3	37	ButtonPress	Win	True
359.397	0.47	Win2	0.6315999999999999	n/a	Yes	2.883	n/a	n/a	GoodResponse	1	n/a	n/a	3	37	Blank	Win	True
359.865	1.45	Win2	0.6315999999999999	n/a	Yes	2.883	n/a	5.0	GoodResponse	1	0.008	358.873	3	37	Feedback	Win	True
361.319	2.883	Win2	0.6315999999999999	n/a	Yes	2.883	n/a	n/a	GoodResponse	1	0.0	n/a	3	37	ISIslide	Win	True
364.228	0.25	Lose2	0.6154	0.0	No	2.822	0.028	n/a	NoResponse	-1	n/a	n/a	2	38	Cue	Loss	True
364.479	3.95	Lose2	0.6154	0.0	No	2.822	0.001	n/a	NoResponse	-1	n/a	n/a	2	38	Fixation	Loss	True
368.424	0.24	Lose2	0.6154	0.004	No	2.822	-0.004	4.0	NoResponse	-1	0.257	367.681	2	38	Target	Loss	True
368.674	0.46	Lose2	0.6154	n/a	No	2.822	n/a	n/a	NoResponse	-1	n/a	n/a	2	38	Blank	Loss	True
368.681	0.3	Lose2	0.6154	0.004	No	2.822	-0.004	4.0	NoResponse	-1	0.257	n/a	2	38	ButtonPress	Loss	True
369.126	1.45	Lose2	0.6154	n/a	No	2.822	n/a	5.0	NoResponse	-1	0.016	368.142	2	38	Feedback	Loss	True
370.58	2.822	Lose2	0.6154	n/a	No	2.822	n/a	n/a	NoResponse	-1	0.0	n/a	2	38	ISIslide	Loss	True
373.422	0.25	Win2	0.6	0.0	No	2.978	0.022	n/a	NoResponse	0	n/a	n/a	2	39	Cue	MissedWin	False
373.673	4.1	Win2	0.6	0.0	No	2.978	0.001	4.0	NoResponse	0	0.14	372.813	2	39	Fixation	MissedWin	False
373.813	0.3	Win2	0.6	0.0	No	2.978	0.001	4.0	NoResponse	0	0.14	n/a	2	39	ButtonPress	MissedWin	False
377.768	0.25	Win2	0.6	0.004	No	2.978	-0.004	4.0	NoResponse	0	0.267	377.035	2	39	Target	MissedWin	False
378.019	0.45	Win2	0.6	n/a	No	2.978	n/a	n/a	NoResponse	0	n/a	n/a	2	39	Blank	MissedWin	False
378.035	0.3	Win2	0.6	0.004	No	2.978	-0.004	4.0	NoResponse	0	0.267	n/a	2	39	ButtonPress	MissedWin	False
378.47	1.45	Win2	0.6	n/a	No	2.978	n/a	5.0	NoResponse	0	0.037	377.507	2	39	Feedback	MissedWin	False
379.925	2.978	Win2	0.6	n/a	No	2.978	n/a	n/a	NoResponse	0	0.0	n/a	2	39	ISIslide	MissedWin	False
382.917	0.25	Win2	0.6098	0.0	Yes	2.733	0.017	n/a	GoodResponse	1	n/a	n/a	3	40	Cue	Win	True
383.168	3.95	Win2	0.6098	0.0	Yes	2.733	0.001	n/a	GoodResponse	1	n/a	n/a	3	40	Fixation	Win	True
387.113	0.26	Win2	0.6098	0.004	Yes	2.733	-0.004	4.0	GoodResponse	1	0.225	386.338	3	40	Target	Win	True
387.338	0.3	Win2	0.6098	0.004	Yes	2.733	-0.004	4.0	GoodResponse	1	0.225	n/a	3	40	ButtonPress	Win	True
387.38	0.44	Win2	0.6098	n/a	Yes	2.733	n/a	n/a	GoodResponse	1	n/a	n/a	3	40	Blank	Win	True
387.815	1.45	Win2	0.6098	n/a	Yes	2.733	n/a	5.0	GoodResponse	1	0.009	386.824	3	40	Feedback	Win	True
389.269	2.733	Win2	0.6098	n/a	Yes	2.733	n/a	n/a	GoodResponse	1	0.0	n/a	3	40	ISIslide	Win	True
392.028	0.25	Win2	0.619	0.0	Yes	2.772	0.028	n/a	GoodResponse	1	n/a	n/a	4	41	Cue	Win	True
392.278	3.9	Win2	0.619	0.0	Yes	2.772	0.0	n/a	GoodResponse	1	n/a	n/a	4	41	Fixation	Win	True
396.19	0.27	Win2	0.619	0.0	Yes	2.772	0.012	4.0	GoodResponse	1	0.247	395.437	4	41	Target	Win	True
396.437	0.3	Win2	0.619	0.0	Yes	2.772	0.012	4.0	GoodResponse	1	0.247	n/a	4	41	ButtonPress	Win	True
396.458	0.43	Win2	0.619	n/a	Yes	2.772	n/a	n/a	GoodResponse	1	n/a	n/a	4	41	Blank	Win	True
396.875	1.45	Win2	0.619	n/a	Yes	2.772	n/a	5.0	GoodResponse	1	0.022	395.897	4	41	Feedback	Win	True
398.33	2.772	Win2	0.619	n/a	Yes	2.772	n/a	n/a	GoodResponse	1	0.0	n/a	4	41	ISIslide	Win	True
401.121	0.25	Control	0.6279	0.001	Yes	2.929	0.021	n/a	GoodResponse	0	n/a	n/a	4	42	Cue	Neutral	True
401.372	3.85	Control	0.6279	0.0	Yes	2.929	0.001	n/a	GoodResponse	0	n/a	n/a	4	42	Fixation	Neutral	True
405.217	0.28	Control	0.6279	0.004	Yes	2.929	-0.004	4.0	GoodResponse	0	0.207	404.424	4	42	Target	Neutral	True
405.424	0.3	Control	0.6279	0.004	Yes	2.929	-0.004	4.0	GoodResponse	0	0.207	n/a	4	42	ButtonPress	Neutral	True
405.501	0.42	Control	0.6279	n/a	Yes	2.929	n/a	n/a	GoodResponse	0	n/a	n/a	4	42	Blank	Neutral	True
405.919	1.45	Control	0.6279	n/a	Yes	2.929	n/a	5.0	GoodResponse	0	0.005	404.924	4	42	Feedback	Neutral	True
407.373	2.929	Control	0.6279	n/a	Yes	2.929	n/a	4.0	GoodResponse	0	2.317	n/a	4	42	ISIslide	Neutral	True
410.299	0.25	Win2	0.6364	0.0	Yes	3.201	-0.001	n/a	GoodResponse	1	n/a	n/a	5	43	Cue	Win	True
410.55	4.0	Win2	0.6364	0.0	Yes	3.201	0.001	n/a	GoodResponse	1	n/a	n/a	5	43	Fixation	Win	True
414.545	0.29	Win2	0.6364	0.004	Yes	3.201	-0.004	4.0	GoodResponse	1	0.227	413.772	5	43	Target	Win	True
414.772	0.3	Win2	0.6364	0.004	Yes	3.201	-0.004	4.0	GoodResponse	1	0.227	n/a	5	43	ButtonPress	Win	True
414.846	0.41	Win2	0.6364	n/a	Yes	3.201	n/a	n/a	GoodResponse	1	n/a	n/a	5	43	Blank	Win	True
415.247	1.45	Win2	0.6364	n/a	Yes	3.201	n/a	5.0	GoodResponse	1	0.04	414.287	5	43	Feedback	Win	True
416.701	3.201	Win2	0.6364	n/a	Yes	3.201	n/a	n/a	GoodResponse	1	0.0	n/a	5	43	ISIslide	Win	True
419.928	0.25	Win2	0.6444	0.0	Yes	2.972	0.028	n/a	GoodResponse	1	n/a	n/a	6	44	Cue	Win	True
420.178	4.0	Win2	0.6444	0.0	Yes	2.972	0.0	n/a	GoodResponse	1	n/a	n/a	6	44	Fixation	Win	True
424.174	0.3	Win2	0.6444	0.004	Yes	2.972	-0.004	4.0	GoodResponse	1	0.173	423.347	6	44	Target	Win	True
424.347	0.3	Win2	0.6444	0.004	Yes	2.972	-0.004	4.0	GoodResponse	1	0.173	n/a	6	44	ButtonPress	Win	True
424.475	0.4	Win2	0.6444	n/a	Yes	2.972	n/a	n/a	GoodResponse	1	n/a	n/a	6	44	Blank	Win	True
424.876	1.45	Win2	0.6444	n/a	Yes	2.972	n/a	5.0	GoodResponse	1	0.02	423.896	6	44	Feedback	Win	True
426.33	2.972	Win2	0.6444	n/a	Yes	2.972	n/a	n/a	GoodResponse	1	0.0	n/a	6	44	ISIslide	Win	True
429.322	0.25	Control	0.6522	0.001	Yes	2.878	0.022	n/a	GoodResponse	0	n/a	n/a	6	45	Cue	Neutral	True
429.573	4.1	Control	0.6522	0.0	Yes	2.878	0.001	n/a	GoodResponse	0	n/a	n/a	6	45	Fixation	Neutral	True
433.669	0.31	Control	0.6522	0.003	Yes	2.878	-0.003	4.0	GoodResponse	0	0.211	432.88	6	45	Target	Neutral	True
433.88	0.3	Control	0.6522	0.003	Yes	2.878	-0.003	4.0	GoodResponse	0	0.211	n/a	6	45	ButtonPress	Neutral	True
433.986	0.39	Control	0.6522	n/a	Yes	2.878	n/a	n/a	GoodResponse	0	n/a	n/a	6	45	Blank	Neutral	True
434.371	1.45	Control	0.6522	n/a	Yes	2.878	n/a	5.0	GoodResponse	0	0.038	433.409	6	45	Feedback	Neutral	True
435.825	2.878	Control	0.6522	n/a	Yes	2.878	n/a	n/a	GoodResponse	0	0.0	n/a	6	45	ISIslide	Neutral	True
438.717	0.25	Lose2	0.6596	0.0	Yes	3.383	0.017	n/a	GoodResponse	0	n/a	n/a	6	46	Cue	AvoidedLoss	True
438.968	4.0	Lose2	0.6596	0.0	Yes	3.383	0.001	n/a	GoodResponse	0	n/a	n/a	6	46	Fixation	AvoidedLoss	True
442.963	0.32	Lose2	0.6596	0.004	Yes	3.383	-0.004	4.0	GoodResponse	0	0.212	442.175	6	46	Target	AvoidedLoss	True
443.175	0.3	Lose2	0.6596	0.004	Yes	3.383	-0.004	4.0	GoodResponse	0	0.212	n/a	6	46	ButtonPress	AvoidedLoss	True
443.298	0.38	Lose2	0.6596	n/a	Yes	3.383	n/a	n/a	GoodResponse	0	n/a	n/a	6	46	Blank	AvoidedLoss	True
443.665	1.45	Lose2	0.6596	n/a	Yes	3.383	n/a	5.0	GoodResponse	0	0.012	442.677	6	46	Feedback	AvoidedLoss	True
445.12	3.383	Lose2	0.6596	n/a	Yes	3.383	n/a	n/a	GoodResponse	0	0.0	n/a	6	46	ISIslide	AvoidedLoss	True
448.53	0.25	Lose2	0.6667000000000001	0.0	Yes	2.67	0.03	n/a	GoodResponse	0	n/a	n/a	6	47	Cue	AvoidedLoss	True
448.781	4.0	Lose2	0.6667000000000001	0.0	Yes	2.67	0.001	n/a	GoodResponse	0	n/a	n/a	6	47	Fixation	AvoidedLoss	True
452.776	0.32	Lose2	0.6667000000000001	0.004	Yes	2.67	-0.004	4.0	GoodResponse	0	0.184	451.96	6	47	Target	AvoidedLoss	True
452.96	0.3	Lose2	0.6667000000000001	0.004	Yes	2.67	-0.004	4.0	GoodResponse	0	0.184	n/a	6	47	ButtonPress	AvoidedLoss	True
453.11	0.38	Lose2	0.6667000000000001	n/a	Yes	2.67	n/a	n/a	GoodResponse	0	n/a	n/a	6	47	Blank	AvoidedLoss	True
453.478	1.45	Lose2	0.6667000000000001	n/a	Yes	2.67	n/a	5.0	GoodResponse	0	0.005	452.483	6	47	Feedback	AvoidedLoss	True
454.932	2.67	Lose2	0.6667000000000001	n/a	Yes	2.67	n/a	n/a	GoodResponse	0	0.0	n/a	6	47	ISIslide	AvoidedLoss	True
457.624	0.25	Lose2	0.6735	0.0	Yes	3.026	0.024	n/a	GoodResponse	0	n/a	n/a	6	48	Cue	AvoidedLoss	True
457.874	3.95	Lose2	0.6735	0.001	Yes	3.026	0.0	n/a	GoodResponse	0	n/a	n/a	6	48	Fixation	AvoidedLoss	True
461.82	0.31	Lose2	0.6735	0.004	Yes	3.026	-0.004	4.0	GoodResponse	0	0.164	460.984	6	48	Target	AvoidedLoss	True
461.984	0.3	Lose2	0.6735	0.004	Yes	3.026	-0.004	4.0	GoodResponse	0	0.164	n/a	6	48	ButtonPress	AvoidedLoss	True
462.137	0.39	Lose2	0.6735	n/a	Yes	3.026	n/a	n/a	GoodResponse	0	n/a	n/a	6	48	Blank	AvoidedLoss	True
462.522	1.45	Lose2	0.6735	n/a	Yes	3.026	n/a	5.0	GoodResponse	0	0.032	461.554	6	48	Feedback	AvoidedLoss	True
463.976	3.026	Lose2	0.6735	n/a	Yes	3.026	n/a	n/a	GoodResponse	0	0.0	n/a	6	48	ISIslide	AvoidedLoss	True
467.018	0.25	Control	0.66	0.001	No	2.882	0.018	n/a	LatePress	0	n/a	n/a	6	49	Cue	Neutral	True
467.269	4.0	Control	0.66	0.0	No	2.882	0.001	n/a	LatePress	0	n/a	n/a	6	49	Fixation	Neutral	True
471.264	0.3	Control	0.66	0.004	No	2.882	-0.004	4.0	LatePress	0	0.302	470.566	6	49	Target	Neutral	True
471.565	0.4	Control	0.66	n/a	No	2.882	n/a	n/a	LatePress	0	n/a	n/a	6	49	Blank	Neutral	True
471.566	0.3	Control	0.66	0.004	No	2.882	-0.004	4.0	LatePress	0	0.302	n/a	6	49	ButtonPress	Neutral	True
471.967	1.45	Control	0.66	n/a	No	2.882	n/a	5.0	LatePress	0	0.005	470.972	6	49	Feedback	Neutral	True
473.421	2.882	Control	0.66	n/a	No	2.882	n/a	4.0	LatePress	0	0.782	n/a	6	49	ISIslide	Neutral	True
476.296	0.25	Control	0.6667000000000001	0.0	Yes	2.804	-0.004	n/a	GoodResponse	0	n/a	n/a	6	50	Cue	Neutral	True
476.547	4.0	Control	0.6667000000000001	0.0	Yes	2.804	0.001	n/a	GoodResponse	0	n/a	n/a	6	50	Fixation	Neutral	True
480.542	0.3	Control	0.6667000000000001	0.004	Yes	2.804	-0.004	4.0	GoodResponse	0	0.274	479.816	6	50	Target	Neutral	True
480.816	0.3	Control	0.6667000000000001	0.004	Yes	2.804	-0.004	4.0	GoodResponse	0	0.274	n/a	6	50	ButtonPress	Neutral	True
480.843	0.4	Control	0.6667000000000001	n/a	Yes	2.804	n/a	n/a	GoodResponse	0	n/a	n/a	6	50	Blank	Neutral	True
481.244	1.45	Control	0.6667000000000001	n/a	Yes	2.804	n/a	5.0	GoodResponse	0	0.042	480.286	6	50	Feedback	Neutral	True
482.699	2.804	Control	0.6667000000000001	n/a	Yes	2.804	n/a	n/a	GoodResponse	0	0.0	n/a	6	50	ISIslide	Neutral	True
485.524	0.25	Control	0.6731	0.0	Yes	2.726	0.024	n/a	GoodResponse	0	n/a	n/a	6	51	Cue	Neutral	True
485.775	3.95	Control	0.6731	0.0	Yes	2.726	0.001	n/a	GoodResponse	0	n/a	n/a	6	51	Fixation	Neutral	True
489.72	0.29	Control	0.6731	0.004	Yes	2.726	-0.004	4.0	GoodResponse	0	0.214	488.934	6	51	Target	Neutral	True
489.934	0.3	Control	0.6731	0.004	Yes	2.726	-0.004	4.0	GoodResponse	0	0.214	n/a	6	51	ButtonPress	Neutral	True
490.021	0.41	Control	0.6731	n/a	Yes	2.726	n/a	n/a	GoodResponse	0	n/a	n/a	6	51	Blank	Neutral	True
490.422	1.45	Control	0.6731	n/a	Yes	2.726	n/a	5.0	GoodResponse	0	0.035	489.457	6	51	Feedback	Neutral	True
491.876	2.726	Control	0.6731	n/a	Yes	2.726	n/a	n/a	GoodResponse	0	0.0	n/a	6	51	ISIslide	Neutral	True
494.618	0.25	Control	0.6792	0.0	Yes	2.632	0.018	n/a	GoodResponse	0	n/a	n/a	6	52	Cue	Neutral	True
494.868	4.05	Control	0.6792	0.0	Yes	2.632	0.0	n/a	GoodResponse	0	n/a	n/a	6	52	Fixation	Neutral	True
498.914	0.28	Control	0.6792	0.004	Yes	2.632	-0.004	4.0	GoodResponse	0	0.163	498.077	6	52	Target	Neutral	True
499.077	0.3	Control	0.6792	0.004	Yes	2.632	-0.004	4.0	GoodResponse	0	0.163	n/a	6	52	ButtonPress	Neutral	True
499.198	0.42	Control	0.6792	n/a	Yes	2.632	n/a	n/a	GoodResponse	0	n/a	n/a	6	52	Blank	Neutral	True
499.616	1.45	Control	0.6792	n/a	Yes	2.632	n/a	5.0	GoodResponse	0	0.011	498.627	6	52	Feedback	Neutral	True
501.07	2.632	Control	0.6792	n/a	Yes	2.632	n/a	n/a	GoodResponse	0	0.0	n/a	6	52	ISIslide	Neutral	True
503.728	0.25	Win2	0.6851999999999999	0.0	Yes	2.922	0.028	n/a	GoodResponse	1	n/a	n/a	7	53	Cue	Win	True
503.979	4.05	Win2	0.6851999999999999	0.0	Yes	2.922	0.001	n/a	GoodResponse	1	n/a	n/a	7	53	Fixation	Win	True
508.024	0.27	Win2	0.6851999999999999	0.004	Yes	2.922	-0.004	4.0	GoodResponse	1	0.191	507.215	7	53	Target	Win	True
508.215	0.3	Win2	0.6851999999999999	0.004	Yes	2.922	-0.004	4.0	GoodResponse	1	0.191	n/a	7	53	ButtonPress	Win	True
508.309	0.43	Win2	0.6851999999999999	n/a	Yes	2.922	n/a	n/a	GoodResponse	1	n/a	n/a	7	53	Blank	Win	True
508.727	1.45	Win2	0.6851999999999999	n/a	Yes	2.922	n/a	5.0	GoodResponse	1	0.022	507.749	7	53	Feedback	Win	True
510.181	2.922	Win2	0.6851999999999999	n/a	Yes	2.922	n/a	n/a	GoodResponse	1	0.0	n/a	7	53	ISIslide	Win	True
513.123	0.25	Win2	0.6909000000000001	0.0	Yes	2.727	0.023	n/a	GoodResponse	1	n/a	n/a	8	54	Cue	Win	True
513.374	3.95	Win2	0.6909000000000001	0.0	Yes	2.727	0.001	n/a	GoodResponse	1	n/a	n/a	8	54	Fixation	Win	True
517.319	0.26	Win2	0.6909000000000001	0.004	Yes	2.727	-0.004	4.0	GoodResponse	1	0.198	516.517	8	54	Target	Win	True
517.517	0.3	Win2	0.6909000000000001	0.004	Yes	2.727	-0.004	4.0	GoodResponse	1	0.198	n/a	8	54	ButtonPress	Win	True
517.586	0.44	Win2	0.6909000000000001	n/a	Yes	2.727	n/a	n/a	GoodResponse	1	n/a	n/a	8	54	Blank	Win	True
518.021	1.45	Win2	0.6909000000000001	n/a	Yes	2.727	n/a	5.0	GoodResponse	1	0.045	517.066	8	54	Feedback	Win	True
519.475	2.727	Win2	0.6909000000000001	n/a	Yes	2.727	n/a	n/a	GoodResponse	1	0.0	n/a	8	54	ISIslide	Win	True
522.217	0.25	Control	0.6964	0.0	Yes	3.033	0.017	n/a	GoodResponse	0	n/a	n/a	8	55	Cue	Neutral	True
522.468	3.95	Control	0.6964	0.0	Yes	3.033	0.001	n/a	GoodResponse	0	n/a	n/a	8	55	Fixation	Neutral	True
526.413	0.25	Control	0.6964	0.004	Yes	3.033	-0.004	4.0	GoodResponse	0	0.195	525.608	8	55	Target	Neutral	True
526.608	0.3	Control	0.6964	0.004	Yes	3.033	-0.004	4.0	GoodResponse	0	0.195	n/a	8	55	ButtonPress	Neutral	True
526.663	0.45	Control	0.6964	n/a	Yes	3.033	n/a	n/a	GoodResponse	0	n/a	n/a	8	55	Blank	Neutral	True
527.115	1.45	Control	0.6964	n/a	Yes	3.033	n/a	5.0	GoodResponse	0	0.024	526.139	8	55	Feedback	Neutral	True
528.569	3.033	Control	0.6964	n/a	Yes	3.033	n/a	n/a	GoodResponse	0	0.0	n/a	8	55	ISIslide	Neutral	True
531.628	0.25	Control	0.6842	0.0	No	2.822	0.028	n/a	NoResponse	0	n/a	n/a	8	56	Cue	Neutral	True
531.879	3.95	Control	0.6842	0.0	No	2.822	0.001	n/a	NoResponse	0	n/a	n/a	8	56	Fixation	Neutral	True
535.824	0.24	Control	0.6842	0.004	No	2.822	-0.004	4.0	NoResponse	0	0.354	535.178	8	56	Target	Neutral	True
536.075	0.46	Control	0.6842	n/a	No	2.822	n/a	n/a	NoResponse	0	n/a	n/a	8	56	Blank	Neutral	True
536.178	0.3	Control	0.6842	0.004	No	2.822	-0.004	4.0	NoResponse	0	0.354	n/a	8	56	ButtonPress	Neutral	True
536.526	1.45	Control	0.6842	n/a	No	2.822	n/a	5.0	NoResponse	0	0.028	535.554	8	56	Feedback	Neutral	True
537.981	2.822	Control	0.6842	n/a	No	2.822	n/a	n/a	NoResponse	0	0.0	n/a	8	56	ISIslide	Neutral	True
540.822	0.25	Control	0.6897	0.001	Yes	3.478	0.022	n/a	GoodResponse	0	n/a	n/a	8	57	Cue	Neutral	True
541.073	4.0	Control	0.6897	0.0	Yes	3.478	0.001	n/a	GoodResponse	0	n/a	n/a	8	57	Fixation	Neutral	True
545.068	0.23	Control	0.6897	0.004	Yes	3.478	-0.004	4.0	GoodResponse	0	0.163	544.231	8	57	Target	Neutral	True
545.231	0.3	Control	0.6897	0.004	Yes	3.478	-0.004	4.0	GoodResponse	0	0.163	n/a	8	57	ButtonPress	Neutral	True
545.303	0.47	Control	0.6897	n/a	Yes	3.478	n/a	n/a	GoodResponse	0	n/a	n/a	8	57	Blank	Neutral	True
545.771	1.45	Control	0.6897	n/a	Yes	3.478	n/a	5.0	GoodResponse	0	0.005	544.776	8	57	Feedback	Neutral	True
547.225	3.478	Control	0.6897	n/a	Yes	3.478	n/a	n/a	GoodResponse	0	0.0	n/a	8	57	ISIslide	Neutral	True
550.719	0.25	Win2	0.6949	0.0	Yes	2.731	0.019	n/a	GoodResponse	1	n/a	n/a	9	58	Cue	Win	True
550.969	4.05	Win2	0.6949	0.001	Yes	2.731	0.0	n/a	GoodResponse	1	n/a	n/a	9	58	Fixation	Win	True
555.015	0.22	Win2	0.6949	0.004	Yes	2.731	-0.004	4.0	GoodResponse	1	0.19	554.205	9	58	Target	Win	True
555.205	0.3	Win2	0.6949	0.004	Yes	2.731	-0.004	4.0	GoodResponse	1	0.19	n/a	9	58	ButtonPress	Win	True
555.249	0.48	Win2	0.6949	n/a	Yes	2.731	n/a	n/a	GoodResponse	1	n/a	n/a	9	58	Blank	Win	True
555.717	1.45	Win2	0.6949	n/a	Yes	2.731	n/a	5.0	GoodResponse	1	0.007	554.724	9	58	Feedback	Win	True
557.171	2.731	Win2	0.6949	n/a	Yes	2.731	n/a	n/a	GoodResponse	1	0.0	n/a	9	58	ISIslide	Win	True
559.93	0.25	Lose2	0.7	0.0	Yes	2.67	0.03	n/a	GoodResponse	0	n/a	n/a	9	59	Cue	AvoidedLoss	True
560.18	4.0	Lose2	0.7	0.0	Yes	2.67	0.0	n/a	GoodResponse	0	n/a	n/a	9	59	Fixation	AvoidedLoss	True
564.176	0.21	Lose2	0.7	0.004	Yes	2.67	-0.004	4.0	GoodResponse	0	0.189	563.365	9	59	Target	AvoidedLoss	True
564.365	0.3	Lose2	0.7	0.004	Yes	2.67	-0.004	4.0	GoodResponse	0	0.189	n/a	9	59	ButtonPress	AvoidedLoss	True
564.393	0.49	Lose2	0.7	n/a	Yes	2.67	n/a	n/a	GoodResponse	0	n/a	n/a	9	59	Blank	AvoidedLoss	True
564.878	1.45	Lose2	0.7	n/a	Yes	2.67	n/a	5.0	GoodResponse	0	0.017	563.895	9	59	Feedback	AvoidedLoss	True
566.332	2.67	Lose2	0.7	n/a	Yes	2.67	n/a	n/a	GoodResponse	0	0.0	n/a	9	59	ISIslide	AvoidedLoss	True
569.023	0.25	Control	0.6884999999999999	0.001	No	2.677	0.023	n/a	NoResponse	0	n/a	n/a	9	60	Cue	Neutral	True
569.274	4.0	Control	0.6884999999999999	0.0	No	2.677	0.001	n/a	NoResponse	0	n/a	n/a	9	60	Fixation	Neutral	True
573.269	0.2	Control	0.6884999999999999	0.004	No	2.677	-0.004	4.0	NoResponse	0	0.21	572.479	9	60	Target	Neutral	True
573.47	0.5	Control	0.6884999999999999	n/a	No	2.677	n/a	n/a	NoResponse	0	n/a	n/a	9	60	Blank	Neutral	True
573.479	0.3	Control	0.6884999999999999	0.004	No	2.677	-0.004	4.0	NoResponse	0	0.21	n/a	9	60	ButtonPress	Neutral	True
573.972	1.45	Control	0.6884999999999999	n/a	No	2.677	n/a	5.0	NoResponse	0	0.045	573.017	9	60	Feedback	Neutral	True
575.426	2.677	Control	0.6884999999999999	n/a	No	2.677	n/a	n/a	NoResponse	0	0.0	n/a	9	60	ISIslide	Neutral	True
578.117	0.25	Lose2	0.6774	0.0	No	2.983	0.017	n/a	NoResponse	-1	n/a	n/a	8	61	Cue	Loss	True
578.368	4.0	Lose2	0.6774	0.0	No	2.983	0.001	n/a	NoResponse	-1	n/a	n/a	8	61	Fixation	Loss	True
582.363	0.19	Lose2	0.6774	0.004	No	2.983	-0.004	4.0	NoResponse	-1	0.269	581.632	8	61	Target	Loss	True
582.564	0.51	Lose2	0.6774	n/a	No	2.983	n/a	n/a	NoResponse	-1	n/a	n/a	8	61	Blank	Loss	True
582.632	0.3	Lose2	0.6774	0.004	No	2.983	-0.004	4.0	NoResponse	-1	0.269	n/a	8	61	ButtonPress	Loss	True
583.065	1.45	Lose2	0.6774	n/a	No	2.983	n/a	5.0	NoResponse	-1	0.025	582.09	8	61	Feedback	Loss	True
584.52	2.983	Lose2	0.6774	n/a	No	2.983	n/a	n/a	NoResponse	-1	0.0	n/a	8	61	ISIslide	Loss	True
587.529	0.25	Lose2	0.6667000000000001	0.0	No	2.871	0.029	n/a	NoResponse	-1	n/a	n/a	7	62	Cue	Loss	True
587.78	3.9	Lose2	0.6667000000000001	0.0	No	2.871	0.001	n/a	NoResponse	-1	n/a	n/a	7	62	Fixation	Loss	True
591.675	0.18	Lose2	0.6667000000000001	0.004	No	2.871	-0.004	4.0	NoResponse	-1	0.226	590.901	7	62	Target	Loss	True
591.858	0.52	Lose2	0.6667000000000001	n/a	No	2.871	n/a	n/a	NoResponse	-1	n/a	n/a	7	62	Blank	Loss	True
591.901	0.3	Lose2	0.6667000000000001	0.004	No	2.871	-0.004	4.0	NoResponse	-1	0.226	n/a	7	62	ButtonPress	Loss	True
592.377	1.45	Lose2	0.6667000000000001	n/a	No	2.871	n/a	5.0	NoResponse	-1	0.03	591.407	7	62	Feedback	Loss	True
593.831	2.871	Lose2	0.6667000000000001	n/a	No	2.871	n/a	n/a	NoResponse	-1	0.0	n/a	7	62	ISIslide	Loss	True
596.723	0.25	Lose2	0.6562	0.0	No	2.627	0.023	n/a	NoResponse	-1	n/a	n/a	6	63	Cue	Loss	True
596.974	4.05	Lose2	0.6562	0.0	No	2.627	0.001	n/a	NoResponse	-1	n/a	n/a	6	63	Fixation	Loss	True
601.019	0.17	Lose2	0.6562	0.004	No	2.627	-0.004	4.0	NoResponse	-1	0.203	600.222	6	63	Target	Loss	True
601.203	0.53	Lose2	0.6562	n/a	No	2.627	n/a	n/a	NoResponse	-1	n/a	n/a	6	63	Blank	Loss	True
601.222	0.3	Lose2	0.6562	0.004	No	2.627	-0.004	4.0	NoResponse	-1	0.203	n/a	6	63	ButtonPress	Loss	True
601.721	1.45	Lose2	0.6562	n/a	No	2.627	n/a	5.0	NoResponse	-1	0.006	600.727	6	63	Feedback	Loss	True
603.176	2.627	Lose2	0.6562	n/a	No	2.627	n/a	n/a	NoResponse	-1	0.0	n/a	6	63	ISIslide	Loss	True
605.817	0.25	Win2	0.6462	0.0	No	3.133	0.017	n/a	NoResponse	0	n/a	n/a	6	64	Cue	MissedWin	True
606.068	4.15	Win2	0.6462	0.0	No	3.133	0.001	n/a	NoResponse	0	n/a	n/a	6	64	Fixation	MissedWin	True
610.213	0.17	Win2	0.6462	0.004	No	3.133	-0.004	4.0	NoResponse	0	0.19	609.403	6	64	Target	MissedWin	True
610.397	0.53	Win2	0.6462	n/a	No	3.133	n/a	n/a	NoResponse	0	n/a	n/a	6	64	Blank	MissedWin	True
610.403	0.3	Win2	0.6462	0.004	No	3.133	-0.004	4.0	NoResponse	0	0.19	n/a	6	64	ButtonPress	MissedWin	True
610.915	1.45	Win2	0.6462	n/a	No	3.133	n/a	5.0	NoResponse	0	0.028	609.943	6	64	Feedback	MissedWin	True
612.37	3.133	Win2	0.6462	n/a	No	3.133	n/a	n/a	NoResponse	0	0.0	n/a	6	64	ISIslide	MissedWin	True
615.529	0.25	Control	0.6364	0.0	No	2.771	0.029	n/a	NoResponse	0	n/a	n/a	6	65	Cue	Neutral	True
615.78	4.0	Control	0.6364	0.0	No	2.771	0.001	n/a	NoResponse	0	n/a	n/a	6	65	Fixation	Neutral	True
619.775	0.18	Control	0.6364	0.004	No	2.771	-0.004	4.0	NoResponse	0	0.216	618.991	6	65	Target	Neutral	True
619.959	0.52	Control	0.6364	n/a	No	2.771	n/a	n/a	NoResponse	0	n/a	n/a	6	65	Blank	Neutral	True
619.991	0.3	Control	0.6364	0.004	No	2.771	-0.004	4.0	NoResponse	0	0.216	n/a	6	65	ButtonPress	Neutral	True
620.477	1.45	Control	0.6364	n/a	No	2.771	n/a	5.0	NoResponse	0	0.027	619.504	6	65	Feedback	Neutral	True
621.932	2.771	Control	0.6364	n/a	No	2.771	n/a	n/a	NoResponse	0	0.0	n/a	6	65	ISIslide	Neutral	True
624.723	0.25	Win2	0.6418	0.0	Yes	2.777	0.023	n/a	GoodResponse	1	n/a	n/a	7	66	Cue	Win	True
624.974	3.9	Win2	0.6418	0.0	Yes	2.777	0.001	n/a	GoodResponse	1	n/a	n/a	7	66	Fixation	Win	True
628.869	0.19	Win2	0.6418	0.004	Yes	2.777	-0.004	4.0	GoodResponse	1	0.187	628.056	7	66	Target	Win	True
629.056	0.3	Win2	0.6418	0.004	Yes	2.777	-0.004	4.0	GoodResponse	1	0.187	n/a	7	66	ButtonPress	Win	True
629.07	0.51	Win2	0.6418	n/a	Yes	2.777	n/a	n/a	GoodResponse	1	n/a	n/a	7	66	Blank	Win	True
629.571	1.45	Win2	0.6418	n/a	Yes	2.777	n/a	5.0	GoodResponse	1	0.007	628.578	7	66	Feedback	Win	True
631.026	2.777	Win2	0.6418	n/a	Yes	2.777	n/a	n/a	GoodResponse	1	0.0	n/a	7	66	ISIslide	Win	True
633.817	0.25	Control	0.6470999999999999	0.0	Yes	2.733	0.017	n/a	GoodResponse	0	n/a	n/a	7	67	Cue	Neutral	True
634.068	3.95	Control	0.6470999999999999	0.0	Yes	2.733	0.001	n/a	GoodResponse	0	n/a	n/a	7	67	Fixation	Neutral	True
638.013	0.2	Control	0.6470999999999999	0.004	Yes	2.733	-0.004	4.0	GoodResponse	0	0.188	637.201	7	67	Target	Neutral	True
638.201	0.3	Control	0.6470999999999999	0.004	Yes	2.733	-0.004	4.0	GoodResponse	0	0.188	n/a	7	67	ButtonPress	Neutral	True
638.214	0.5	Control	0.6470999999999999	n/a	Yes	2.733	n/a	n/a	GoodResponse	0	n/a	n/a	7	67	Blank	Neutral	True
638.715	1.45	Control	0.6470999999999999	n/a	Yes	2.733	n/a	5.0	GoodResponse	0	0.032	637.747	7	67	Feedback	Neutral	True
640.17	2.733	Control	0.6470999999999999	n/a	Yes	2.733	n/a	n/a	GoodResponse	0	0.0	n/a	7	67	ISIslide	Neutral	True
642.928	0.25	Win2	0.6522	0.0	Yes	3.072	0.028	n/a	GoodResponse	1	n/a	n/a	8	68	Cue	Win	True
643.179	4.0	Win2	0.6522	0.0	Yes	3.072	0.001	n/a	GoodResponse	1	n/a	n/a	8	68	Fixation	Win	True
647.174	0.21	Win2	0.6522	0.004	Yes	3.072	-0.004	4.0	GoodResponse	1	0.182	646.356	8	68	Target	Win	True
647.356	0.3	Win2	0.6522	0.004	Yes	3.072	-0.004	4.0	GoodResponse	1	0.182	n/a	8	68	ButtonPress	Win	True
647.391	0.49	Win2	0.6522	n/a	Yes	3.072	n/a	n/a	GoodResponse	1	n/a	n/a	8	68	Blank	Win	True
647.876	1.45	Win2	0.6522	n/a	Yes	3.072	n/a	5.0	GoodResponse	1	0.042	646.918	8	68	Feedback	Win	True
649.33	3.072	Win2	0.6522	n/a	Yes	3.072	n/a	n/a	GoodResponse	1	0.0	n/a	8	68	ISIslide	Win	True
652.423	0.25	Win2	0.6570999999999999	0.0	Yes	3.227	0.023	n/a	GoodResponse	1	n/a	n/a	9	69	Cue	Win	True
652.674	3.95	Win2	0.6570999999999999	0.0	Yes	3.227	0.001	n/a	GoodResponse	1	n/a	n/a	9	69	Fixation	Win	True
656.619	0.22	Win2	0.6570999999999999	0.004	Yes	3.227	-0.004	4.0	GoodResponse	1	0.195	655.814	9	69	Target	Win	True
656.814	0.3	Win2	0.6570999999999999	0.004	Yes	3.227	-0.004	4.0	GoodResponse	1	0.195	n/a	9	69	ButtonPress	Win	True
656.853	0.48	Win2	0.6570999999999999	n/a	Yes	3.227	n/a	n/a	GoodResponse	1	n/a	n/a	9	69	Blank	Win	True
657.321	1.45	Win2	0.6570999999999999	n/a	Yes	3.227	n/a	5.0	GoodResponse	1	0.012	656.333	9	69	Feedback	Win	True
658.775	3.227	Win2	0.6570999999999999	n/a	Yes	3.227	n/a	n/a	GoodResponse	1	0.0	n/a	9	69	ISIslide	Win	True
662.018	0.25	Lose2	0.662	0.0	Yes	3.032	0.018	n/a	GoodResponse	0	n/a	n/a	9	70	Cue	AvoidedLoss	True
662.269	4.05	Lose2	0.662	0.0	Yes	3.032	0.001	n/a	GoodResponse	0	n/a	n/a	9	70	Fixation	AvoidedLoss	True
666.314	0.22	Lose2	0.662	0.004	Yes	3.032	-0.004	4.0	GoodResponse	0	0.157	665.471	9	70	Target	AvoidedLoss	True
666.471	0.3	Lose2	0.662	0.004	Yes	3.032	-0.004	4.0	GoodResponse	0	0.157	n/a	9	70	ButtonPress	AvoidedLoss	True
666.548	0.48	Lose2	0.662	n/a	Yes	3.032	n/a	n/a	GoodResponse	0	n/a	n/a	9	70	Blank	AvoidedLoss	True
667.016	1.45	Lose2	0.662	n/a	Yes	3.032	n/a	5.0	GoodResponse	0	0.024	666.04	9	70	Feedback	AvoidedLoss	True
668.471	3.032	Lose2	0.662	n/a	Yes	3.032	n/a	n/a	GoodResponse	0	0.0	n/a	9	70	ISIslide	AvoidedLoss	True
671.53	0.25	Win2	0.6528	0.0	No	2.72	0.03	n/a	NoResponse	0	n/a	n/a	9	71	Cue	MissedWin	False
671.781	4.05	Win2	0.6528	0.0	No	2.72	0.001	n/a	NoResponse	0	n/a	n/a	9	71	Fixation	MissedWin	False
675.826	0.22	Win2	0.6528	0.004	No	2.72	-0.004	n/a	NoResponse	0	n/a	n/a	9	71	Target	MissedWin	False
676.06	0.48	Win2	0.6528	n/a	No	2.72	n/a	n/a	NoResponse	0	n/a	n/a	9	71	Blank	MissedWin	False
676.528	1.45	Win2	0.6528	n/a	No	2.72	n/a	5.0	NoResponse	0	0.024	675.552	9	71	Feedback	MissedWin	False
677.983	2.72	Win2	0.6528	n/a	No	2.72	n/a	n/a	NoResponse	0	0.0	n/a	9	71	ISIslide	MissedWin	False
680.724	0.25	Win2	0.6575	0.0	Yes	2.776	0.024	n/a	GoodResponse	1	n/a	n/a	10	72	Cue	Win	True
680.975	4.1	Win2	0.6575	0.0	Yes	2.776	0.001	n/a	GoodResponse	1	n/a	n/a	10	72	Fixation	Win	True
685.07	0.23	Win2	0.6575	0.004	Yes	2.776	-0.004	4.0	GoodResponse	1	0.175	684.245	10	72	Target	Win	True
685.245	0.3	Win2	0.6575	0.004	Yes	2.776	-0.004	4.0	GoodResponse	1	0.175	n/a	10	72	ButtonPress	Win	True
685.304	0.47	Win2	0.6575	n/a	Yes	2.776	n/a	n/a	GoodResponse	1	n/a	n/a	10	72	Blank	Win	True
685.773	1.45	Win2	0.6575	n/a	Yes	2.776	n/a	5.0	GoodResponse	1	0.047	684.82	10	72	Feedback	Win	True
687.227	2.776	Win2	0.6575	n/a	Yes	2.776	n/a	n/a	GoodResponse	1	0.0	n/a	10	72	ISIslide	Win	True
690.019	0.25	Win2	0.6622	0.0	Yes	2.681	0.019	n/a	GoodResponse	1	n/a	n/a	11	73	Cue	Win	True
690.269	4.0	Win2	0.6622	0.0	Yes	2.681	0.0	n/a	GoodResponse	1	n/a	n/a	11	73	Fixation	Win	True
694.265	0.23	Win2	0.6622	0.004	Yes	2.681	-0.004	4.0	GoodResponse	1	0.185	693.45	11	73	Target	Win	True
694.45	0.3	Win2	0.6622	0.004	Yes	2.681	-0.004	4.0	GoodResponse	1	0.185	n/a	11	73	ButtonPress	Win	True
694.499	0.47	Win2	0.6622	n/a	Yes	2.681	n/a	n/a	GoodResponse	1	n/a	n/a	11	73	Blank	Win	True
694.967	1.45	Win2	0.6622	n/a	Yes	2.681	n/a	5.0	GoodResponse	1	0.024	693.991	11	73	Feedback	Win	True
696.421	2.681	Win2	0.6622	n/a	Yes	2.681	n/a	n/a	GoodResponse	1	0.0	n/a	11	73	ISIslide	Win	True
699.129	0.25	Lose2	0.6667000000000001	0.0	Yes	2.621	0.029	n/a	GoodResponse	0	n/a	n/a	11	74	Cue	AvoidedLoss	True
699.38	4.05	Lose2	0.6667000000000001	0.0	Yes	2.621	0.001	n/a	GoodResponse	0	n/a	n/a	11	74	Fixation	AvoidedLoss	True
703.425	0.23	Lose2	0.6667000000000001	0.004	Yes	2.621	-0.004	4.0	GoodResponse	0	0.179	702.604	11	74	Target	AvoidedLoss	True
703.604	0.3	Lose2	0.6667000000000001	0.004	Yes	2.621	-0.004	4.0	GoodResponse	0	0.179	n/a	11	74	ButtonPress	AvoidedLoss	True
703.659	0.47	Lose2	0.6667000000000001	n/a	Yes	2.621	n/a	n/a	GoodResponse	0	n/a	n/a	11	74	Blank	AvoidedLoss	True
704.127	1.45	Lose2	0.6667000000000001	n/a	Yes	2.621	n/a	5.0	GoodResponse	0	0.035	703.162	11	74	Feedback	AvoidedLoss	True
705.582	2.621	Lose2	0.6667000000000001	n/a	Yes	2.621	n/a	n/a	GoodResponse	0	0.0	n/a	11	74	ISIslide	AvoidedLoss	True
708.223	0.25	Lose2	0.6711	0.0	Yes	2.927	0.023	n/a	GoodResponse	0	n/a	n/a	11	75	Cue	AvoidedLoss	True
708.474	3.95	Lose2	0.6711	0.0	Yes	2.927	0.001	n/a	GoodResponse	0	n/a	n/a	11	75	Fixation	AvoidedLoss	True
712.419	0.22	Lose2	0.6711	0.004	Yes	2.927	-0.004	4.0	GoodResponse	0	0.181	711.6	11	75	Target	AvoidedLoss	True
712.6	0.3	Lose2	0.6711	0.004	Yes	2.927	-0.004	4.0	GoodResponse	0	0.181	n/a	11	75	ButtonPress	AvoidedLoss	True
712.653	0.48	Lose2	0.6711	n/a	Yes	2.927	n/a	n/a	GoodResponse	0	n/a	n/a	11	75	Blank	AvoidedLoss	True
713.121	1.45	Lose2	0.6711	n/a	Yes	2.927	n/a	5.0	GoodResponse	0	0.016	712.137	11	75	Feedback	AvoidedLoss	True
714.575	2.927	Lose2	0.6711	n/a	Yes	2.927	n/a	n/a	GoodResponse	0	0.0	n/a	11	75	ISIslide	AvoidedLoss	True
717.517	0.25	Control	0.6753	0.001	Yes	3.233	0.017	n/a	GoodResponse	0	n/a	n/a	11	76	Cue	Neutral	True
717.768	4.05	Control	0.6753	0.0	Yes	3.233	0.001	n/a	GoodResponse	0	n/a	n/a	11	76	Fixation	Neutral	True
721.814	0.21	Control	0.6753	0.003	Yes	3.233	-0.003	4.0	GoodResponse	0	0.157	720.971	11	76	Target	Neutral	True
721.971	0.3	Control	0.6753	0.003	Yes	3.233	-0.003	4.0	GoodResponse	0	0.157	n/a	11	76	ButtonPress	Neutral	True
722.031	0.49	Control	0.6753	n/a	Yes	3.233	n/a	n/a	GoodResponse	0	n/a	n/a	11	76	Blank	Neutral	True
722.516	1.45	Control	0.6753	n/a	Yes	3.233	n/a	5.0	GoodResponse	0	0.035	721.551	11	76	Feedback	Neutral	True
723.97	3.233	Control	0.6753	n/a	Yes	3.233	n/a	n/a	GoodResponse	0	0.0	n/a	11	76	ISIslide	Neutral	True
727.23	0.25	Lose2	0.6795	0.0	Yes	2.57	0.03	n/a	GoodResponse	0	n/a	n/a	11	77	Cue	AvoidedLoss	True
727.481	3.95	Lose2	0.6795	0.0	Yes	2.57	0.001	n/a	GoodResponse	0	n/a	n/a	11	77	Fixation	AvoidedLoss	True
731.426	0.2	Lose2	0.6795	0.004	Yes	2.57	-0.004	4.0	GoodResponse	0	0.184	730.61	11	77	Target	AvoidedLoss	True
731.61	0.3	Lose2	0.6795	0.004	Yes	2.57	-0.004	4.0	GoodResponse	0	0.184	n/a	11	77	ButtonPress	AvoidedLoss	True
731.626	0.5	Lose2	0.6795	n/a	Yes	2.57	n/a	n/a	GoodResponse	0	n/a	n/a	11	77	Blank	AvoidedLoss	True
732.128	1.45	Lose2	0.6795	n/a	Yes	2.57	n/a	5.0	GoodResponse	0	0.033	731.161	11	77	Feedback	AvoidedLoss	True
733.582	2.57	Lose2	0.6795	n/a	Yes	2.57	n/a	n/a	GoodResponse	0	0.0	n/a	11	77	ISIslide	AvoidedLoss	True
