onset	duration	cue_type	current_mean_accuracy	duration_error	is_hit	isi_adjusted	onset_delay	response	response_type	reward	rt	rt_time	total_reward	trial_number	trial_phase	trial_type	one_press
11.105	0.25	Control	1.0	0.0	Yes	2.945	0.005	n/a	GoodResponse	0	n/a	n/a	0	0	Cue	Neutral	True
11.355	3.85	Control	1.0	0.0	Yes	2.945	0.0	n/a	GoodResponse	0	n/a	n/a	0	0	Fixation	Neutral	True
15.217	0.4	Control	1.0	0.0	Yes	2.945	0.012	4.0	GoodResponse	0	0.207	14.424	0	0	Target	Neutral	True
15.424	0.3	Control	1.0	0.0	Yes	2.945	0.012	4.0	GoodResponse	0	0.207	n/a	0	0	ButtonPress	Neutral	True
15.601	0.3	Control	1.0	n/a	Yes	2.945	n/a	n/a	GoodResponse	0	n/a	n/a	0	0	Blank	Neutral	True
15.902	1.45	Control	1.0	n/a	Yes	2.945	n/a	5.0	GoodResponse	0	0.024	14.926	0	0	Feedback	Neutral	True
17.357	2.945	Control	1.0	n/a	Yes	2.945	n/a	n/a	GoodResponse	0	0.0	n/a	0	0	ISIslide	Neutral	True
20.316	0.25	Lose2	1.0	0.0	Yes	2.784	0.016	n/a	GoodResponse	0	n/a	n/a	0	1	Cue	AvoidedLoss	True
20.566	4.0	Lose2	1.0	0.0	Yes	2.784	0.0	n/a	GoodResponse	0	n/a	n/a	0	1	Fixation	AvoidedLoss	True
24.562	0.39	Lose2	1.0	0.004	Yes	2.784	-0.004	4.0	GoodResponse	0	0.213	23.775	0	1	Target	AvoidedLoss	True
24.775	0.3	Lose2	1.0	0.004	Yes	2.784	-0.004	4.0	GoodResponse	0	0.213	n/a	0	1	ButtonPress	AvoidedLoss	True
24.963	0.31	Lose2	1.0	n/a	Yes	2.784	n/a	n/a	GoodResponse	0	n/a	n/a	0	1	Blank	AvoidedLoss	True
25.264	1.45	Lose2	1.0	n/a	Yes	2.784	n/a	5.0	GoodResponse	0	0.028	24.292	0	1	Feedback	AvoidedLoss	True
26.718	2.784	Lose2	1.0	n/a	Yes	2.784	n/a	n/a	GoodResponse	0	0.0	n/a	0	1	ISIslide	AvoidedLoss	True
29.526	0.25	Control	1.0	0.001	Yes	2.574	0.026	n/a	GoodResponse	0	n/a	n/a	0	2	Cue	Neutral	True
29.777	4.1	Control	1.0	0.0	Yes	2.574	0.001	n/a	GoodResponse	0	n/a	n/a	0	2	Fixation	Neutral	True
33.873	0.38	Control	1.0	0.003	Yes	2.574	-0.003	4.0	GoodResponse	0	0.187	33.06	0	2	Target	Neutral	True
34.06	0.3	Control	1.0	0.003	Yes	2.574	-0.003	4.0	GoodResponse	0	0.187	n/a	0	2	ButtonPress	Neutral	True
34.257	0.32	Control	1.0	n/a	Yes	2.574	n/a	n/a	GoodResponse	0	n/a	n/a	0	2	Blank	Neutral	True
34.575	1.45	Control	1.0	n/a	Yes	2.574	n/a	5.0	GoodResponse	0	0.034	33.609	0	2	Feedback	Neutral	True
36.029	2.574	Control	1.0	n/a	Yes	2.574	n/a	n/a	GoodResponse	0	0.0	n/a	0	2	ISIslide	Neutral	True
38.62	0.25	Win2	1.0	0.001	Yes	2.83	0.02	n/a	GoodResponse	1	n/a	n/a	1	3	Cue	Win	True
38.871	3.95	Win2	1.0	0.0	Yes	2.83	0.001	n/a	GoodResponse	1	n/a	n/a	1	3	Fixation	Win	True
42.816	0.37	Win2	1.0	0.004	Yes	2.83	-0.004	1.0	GoodResponse	1	0.207	42.023	1	3	Target	Win	True
43.023	0.3	Win2	1.0	0.004	Yes	2.83	-0.004	1.0	GoodResponse	1	0.207	n/a	1	3	ButtonPress	Win	True
43.201	0.33	Win2	1.0	n/a	Yes	2.83	n/a	n/a	GoodResponse	1	n/a	n/a	1	3	Blank	Win	True
43.518	1.45	Win2	1.0	n/a	Yes	2.83	n/a	5.0	GoodResponse	1	0.018	42.536	1	3	Feedback	Win	True
44.973	2.83	Win2	1.0	n/a	Yes	2.83	n/a	n/a	GoodResponse	1	0.0	n/a	1	3	ISIslide	Win	True
47.831	0.25	Win2	1.0	0.001	Yes	3.269	0.031	n/a	GoodResponse	1	n/a	n/a	2	4	Cue	Win	True
48.082	4.0	Win2	1.0	0.0	Yes	3.269	0.001	n/a	GoodResponse	1	n/a	n/a	2	4	Fixation	Win	True
52.077	0.36	Win2	1.0	0.004	Yes	3.269	-0.004	1.0	GoodResponse	1	0.208	51.285	2	4	Target	Win	True
52.285	0.3	Win2	1.0	0.004	Yes	3.269	-0.004	1.0	GoodResponse	1	0.208	n/a	2	4	ButtonPress	Win	True
52.445	0.34	Win2	1.0	n/a	Yes	3.269	n/a	n/a	GoodResponse	1	n/a	n/a	2	4	Blank	Win	True
52.78	1.45	Win2	1.0	n/a	Yes	3.269	n/a	5.0	GoodResponse	1	0.025	51.805	2	4	Feedback	Win	True
54.234	3.269	Win2	1.0	n/a	Yes	3.269	n/a	n/a	GoodResponse	1	0.0	n/a	2	4	ISIslide	Win	True
57.527	0.25	Win2	1.0	0.0	Yes	2.773	0.027	n/a	GoodResponse	1	n/a	n/a	3	5	Cue	Win	True
57.778	4.0	Win2	1.0	0.0	Yes	2.773	0.001	n/a	GoodResponse	1	n/a	n/a	3	5	Fixation	Win	True
61.773	0.35	Win2	1.0	0.004	Yes	2.773	-0.004	1.0	GoodResponse	1	0.242	61.015	3	5	Target	Win	True
62.015	0.3	Win2	1.0	0.004	Yes	2.773	-0.004	1.0	GoodResponse	1	0.242	n/a	3	5	ButtonPress	Win	True
62.124	0.35	Win2	1.0	n/a	Yes	2.773	n/a	n/a	GoodResponse	1	n/a	n/a	3	5	Blank	Win	True
62.475	1.45	Win2	1.0	n/a	Yes	2.773	n/a	5.0	GoodResponse	1	0.036	61.511	3	5	Feedback	Win	True
63.93	2.773	Win2	1.0	n/a	Yes	2.773	n/a	n/a	GoodResponse	1	0.0	n/a	3	5	ISIslide	Win	True
66.721	0.25	Lose2	1.0	0.0	Yes	2.729	0.021	n/a	GoodResponse	0	n/a	n/a	3	6	Cue	AvoidedLoss	True
66.972	3.95	Lose2	1.0	0.0	Yes	2.729	0.001	n/a	GoodResponse	0	n/a	n/a	3	6	Fixation	AvoidedLoss	True
70.917	0.34	Lose2	1.0	0.004	Yes	2.729	-0.004	1.0	GoodResponse	0	0.225	70.142	3	6	Target	AvoidedLoss	True
71.142	0.3	Lose2	1.0	0.004	Yes	2.729	-0.004	1.0	GoodResponse	0	0.225	n/a	3	6	ButtonPress	AvoidedLoss	True
71.268	0.36	Lose2	1.0	n/a	Yes	2.729	n/a	n/a	GoodResponse	0	n/a	n/a	3	6	Blank	AvoidedLoss	True
71.619	1.45	Lose2	1.0	n/a	Yes	2.729	n/a	5.0	GoodResponse	0	0.014	70.633	3	6	Feedback	AvoidedLoss	True
73.074	2.729	Lose2	1.0	n/a	Yes	2.729	n/a	n/a	GoodResponse	0	0.0	n/a	3	6	ISIslide	AvoidedLoss	True
75.815	0.25	Lose2	1.0	0.0	Yes	4.035	0.015	n/a	GoodResponse	0	n/a	n/a	3	7	Cue	AvoidedLoss	True
76.066	4.05	Lose2	1.0	0.0	Yes	4.035	0.001	n/a	GoodResponse	0	n/a	n/a	3	7	Fixation	AvoidedLoss	True
80.112	0.33	Lose2	1.0	0.003	Yes	4.035	-0.003	1.0	GoodResponse	0	0.226	79.338	3	7	Target	AvoidedLoss	True
80.338	0.3	Lose2	1.0	0.003	Yes	4.035	-0.003	1.0	GoodResponse	0	0.226	n/a	3	7	ButtonPress	AvoidedLoss	True
80.446	0.37	Lose2	1.0	n/a	Yes	4.035	n/a	n/a	GoodResponse	0	n/a	n/a	3	7	Blank	AvoidedLoss	True
80.814	1.45	Lose2	1.0	n/a	Yes	4.035	n/a	5.0	GoodResponse	0	0.039	79.853	3	7	Feedback	AvoidedLoss	True
82.268	4.035	Lose2	1.0	n/a	Yes	4.035	n/a	n/a	GoodResponse	0	0.0	n/a	3	7	ISIslide	AvoidedLoss	True
86.33	0.25	Lose2	1.0	0.0	Yes	3.02	0.03	n/a	GoodResponse	0	n/a	n/a	3	8	Cue	AvoidedLoss	True
86.581	3.95	Lose2	1.0	0.0	Yes	3.02	0.001	n/a	GoodResponse	0	n/a	n/a	3	8	Fixation	AvoidedLoss	True
90.526	0.32	Lose2	1.0	0.004	Yes	3.02	-0.004	1.0	GoodResponse	0	0.198	89.724	3	8	Target	AvoidedLoss	True
90.724	0.3	Lose2	1.0	0.004	Yes	3.02	-0.004	1.0	GoodResponse	0	0.198	n/a	3	8	ButtonPress	AvoidedLoss	True
90.86	0.38	Lose2	1.0	n/a	Yes	3.02	n/a	n/a	GoodResponse	0	n/a	n/a	3	8	Blank	AvoidedLoss	True
91.228	1.45	Lose2	1.0	n/a	Yes	3.02	n/a	5.0	GoodResponse	0	0.015	90.243	3	8	Feedback	AvoidedLoss	True
92.683	3.02	Lose2	1.0	n/a	Yes	3.02	n/a	n/a	GoodResponse	0	0.0	n/a	3	8	ISIslide	AvoidedLoss	True
95.725	0.25	Lose2	1.0	0.0	Yes	3.125	0.025	n/a	GoodResponse	0	n/a	n/a	3	9	Cue	AvoidedLoss	True
95.976	3.95	Lose2	1.0	0.0	Yes	3.125	0.001	n/a	GoodResponse	0	n/a	n/a	3	9	Fixation	AvoidedLoss	True
99.921	0.31	Lose2	1.0	0.004	Yes	3.125	-0.004	1.0	GoodResponse	0	0.206	99.127	3	9	Target	AvoidedLoss	True
100.127	0.3	Lose2	1.0	0.004	Yes	3.125	-0.004	1.0	GoodResponse	0	0.206	n/a	3	9	ButtonPress	AvoidedLoss	True
100.239	0.39	Lose2	1.0	n/a	Yes	3.125	n/a	n/a	GoodResponse	0	n/a	n/a	3	9	Blank	AvoidedLoss	True
100.623	1.45	Lose2	1.0	n/a	Yes	3.125	n/a	5.0	GoodResponse	0	0.035	99.658	3	9	Feedback	AvoidedLoss	True
102.077	3.125	Lose2	1.0	n/a	Yes	3.125	n/a	n/a	GoodResponse	0	0.0	n/a	3	9	ISIslide	AvoidedLoss	True
105.22	0.25	Control	1.0	0.0	Yes	3.28	0.02	n/a	GoodResponse	0	n/a	n/a	3	10	Cue	Neutral	True
105.471	4.0	Control	1.0	0.0	Yes	3.28	0.001	n/a	GoodResponse	0	n/a	n/a	3	10	Fixation	Neutral	True
109.466	0.3	Control	1.0	0.004	Yes	3.28	-0.004	1.0	GoodResponse	0	0.274	108.74	3	10	Target	Neutral	True
109.74	0.3	Control	1.0	0.004	Yes	3.28	-0.004	1.0	GoodResponse	0	0.274	n/a	3	10	ButtonPress	Neutral	True
109.767	0.4	Control	1.0	n/a	Yes	3.28	n/a	n/a	GoodResponse	0	n/a	n/a	3	10	Blank	Neutral	True
110.168	1.45	Control	1.0	n/a	Yes	3.28	n/a	5.0	GoodResponse	0	0.002	109.17	3	10	Feedback	Neutral	True
111.623	3.28	Control	1.0	n/a	Yes	3.28	n/a	n/a	GoodResponse	0	0.0	n/a	3	10	ISIslide	Neutral	True
114.916	0.25	Lose2	1.0	0.0	Yes	2.734	0.016	n/a	GoodResponse	0	n/a	n/a	3	11	Cue	AvoidedLoss	True
115.167	4.05	Lose2	1.0	0.0	Yes	2.734	0.001	n/a	GoodResponse	0	n/a	n/a	3	11	Fixation	AvoidedLoss	True
119.212	0.29	Lose2	1.0	0.004	Yes	2.734	-0.004	1.0	GoodResponse	0	0.262	118.474	3	11	Target	AvoidedLoss	True
119.474	0.3	Lose2	1.0	0.004	Yes	2.734	-0.004	1.0	GoodResponse	0	0.262	n/a	3	11	ButtonPress	AvoidedLoss	True
119.513	0.41	Lose2	1.0	n/a	Yes	2.734	n/a	n/a	GoodResponse	0	n/a	n/a	3	11	Blank	AvoidedLoss	True
119.914	1.45	Lose2	1.0	n/a	Yes	2.734	n/a	5.0	GoodResponse	0	0.012	118.926	3	11	Feedback	AvoidedLoss	True
121.369	2.734	Lose2	1.0	n/a	Yes	2.734	n/a	n/a	GoodResponse	0	0.0	n/a	3	11	ISIslide	AvoidedLoss	True
124.127	0.25	Control	1.0	0.0	Yes	2.973	0.027	n/a	GoodResponse	0	n/a	n/a	3	12	Cue	Neutral	True
124.378	3.9	Control	1.0	0.0	Yes	2.973	0.001	n/a	GoodResponse	0	n/a	n/a	3	12	Fixation	Neutral	True
128.273	0.28	Control	1.0	0.004	Yes	2.973	-0.004	1.0	GoodResponse	0	0.209	127.482	3	12	Target	Neutral	True
128.482	0.3	Control	1.0	0.004	Yes	2.973	-0.004	1.0	GoodResponse	0	0.209	n/a	3	12	ButtonPress	Neutral	True
128.557	0.42	Control	1.0	n/a	Yes	2.973	n/a	n/a	GoodResponse	0	n/a	n/a	3	12	Blank	Neutral	True
128.975	1.45	Control	1.0	n/a	Yes	2.973	n/a	5.0	GoodResponse	0	0.025	128.0	3	12	Feedback	Neutral	True
130.429	2.973	Control	1.0	n/a	Yes	2.973	n/a	n/a	GoodResponse	0	0.0	n/a	3	12	ISIslide	Neutral	True
133.421	0.25	Control	1.0	0.001	Yes	2.779	0.021	n/a	GoodResponse	0	n/a	n/a	3	13	Cue	Neutral	True
133.672	4.0	Control	1.0	0.0	Yes	2.779	0.001	n/a	GoodResponse	0	n/a	n/a	3	13	Fixation	Neutral	True
137.668	0.27	Control	1.0	0.003	Yes	2.779	-0.003	1.0	GoodResponse	0	0.251	136.919	3	13	Target	Neutral	True
137.919	0.3	Control	1.0	0.003	Yes	2.779	-0.003	1.0	GoodResponse	0	0.251	n/a	3	13	ButtonPress	Neutral	True
137.952	0.43	Control	1.0	n/a	Yes	2.779	n/a	n/a	GoodResponse	0	n/a	n/a	3	13	Blank	Neutral	True
138.37	1.45	Control	1.0	n/a	Yes	2.779	n/a	5.0	GoodResponse	0	0.043	137.413	3	13	Feedback	Neutral	True
139.824	2.779	Control	1.0	n/a	Yes	2.779	n/a	n/a	GoodResponse	0	0.0	n/a	3	13	ISIslide	Neutral	True
142.616	0.25	Win2	1.0	0.0	Yes	2.684	0.016	n/a	GoodResponse	1	n/a	n/a	4	14	Cue	Win	True
142.866	4.1	Win2	1.0	0.001	Yes	2.684	0.0	n/a	GoodResponse	1	n/a	n/a	4	14	Fixation	Win	True
146.962	0.26	Win2	1.0	0.004	Yes	2.684	-0.004	1.0	GoodResponse	1	0.219	146.181	4	14	Target	Win	True
147.181	0.3	Win2	1.0	0.004	Yes	2.684	-0.004	1.0	GoodResponse	1	0.219	n/a	4	14	ButtonPress	Win	True
147.23	0.44	Win2	1.0	n/a	Yes	2.684	n/a	n/a	GoodResponse	1	n/a	n/a	4	14	Blank	Win	True
147.664	1.45	Win2	1.0	n/a	Yes	2.684	n/a	5.0	GoodResponse	1	0.018	146.682	4	14	Feedback	Win	True
149.119	2.684	Win2	1.0	n/a	Yes	2.684	n/a	n/a	GoodResponse	1	0.0	n/a	4	14	ISIslide	Win	True
151.827	0.25	Control	1.0	0.0	Yes	2.973	0.027	n/a	GoodResponse	0	n/a	n/a	4	15	Cue	Neutral	True
152.077	4.0	Control	1.0	0.001	Yes	2.973	0.0	n/a	GoodResponse	0	n/a	n/a	4	15	Fixation	Neutral	True
156.073	0.25	Control	1.0	0.004	Yes	2.973	-0.004	1.0	GoodResponse	0	0.2	155.273	4	15	Target	Neutral	True
156.273	0.3	Control	1.0	0.004	Yes	2.973	-0.004	1.0	GoodResponse	0	0.2	n/a	4	15	ButtonPress	Neutral	True
156.324	0.45	Control	1.0	n/a	Yes	2.973	n/a	n/a	GoodResponse	0	n/a	n/a	4	15	Blank	Neutral	True
156.775	1.45	Control	1.0	n/a	Yes	2.973	n/a	5.0	GoodResponse	0	0.029	155.804	4	15	Feedback	Neutral	True
158.229	2.973	Control	1.0	n/a	Yes	2.973	n/a	n/a	GoodResponse	0	0.0	n/a	4	15	ISIslide	Neutral	True
161.222	0.25	Win2	1.0	0.0	Yes	2.878	0.022	n/a	GoodResponse	1	n/a	n/a	5	16	Cue	Win	True
161.472	4.0	Win2	1.0	0.0	Yes	2.878	0.0	n/a	GoodResponse	1	n/a	n/a	5	16	Fixation	Win	True
165.468	0.24	Win2	1.0	0.004	Yes	2.878	-0.004	1.0	GoodResponse	1	0.187	164.655	5	16	Target	Win	True
165.655	0.3	Win2	1.0	0.004	Yes	2.878	-0.004	1.0	GoodResponse	1	0.187	n/a	5	16	ButtonPress	Win	True
165.718	0.46	Win2	1.0	n/a	Yes	2.878	n/a	n/a	GoodResponse	1	n/a	n/a	5	16	Blank	Win	True
166.17	1.45	Win2	1.0	n/a	Yes	2.878	n/a	5.0	GoodResponse	1	0.0	165.17	5	16	Feedback	Win	True
167.624	2.878	Win2	1.0	n/a	Yes	2.878	n/a	n/a	GoodResponse	1	0.0	n/a	5	16	ISIslide	Win	True
170.516	0.25	Lose2	1.0	0.0	Yes	2.734	0.016	n/a	GoodResponse	0	n/a	n/a	5	17	Cue	AvoidedLoss	True
170.767	3.95	Lose2	1.0	0.0	Yes	2.734	0.001	n/a	GoodResponse	0	n/a	n/a	5	17	Fixation	AvoidedLoss	True
174.712	0.23	Lose2	1.0	0.004	Yes	2.734	-0.004	1.0	GoodResponse	0	0.22	173.932	5	17	Target	AvoidedLoss	True
174.932	0.3	Lose2	1.0	0.004	Yes	2.734	-0.004	1.0	GoodResponse	0	0.22	n/a	5	17	ButtonPress	AvoidedLoss	True
174.946	0.47	Lose2	1.0	n/a	Yes	2.734	n/a	n/a	GoodResponse	0	n/a	n/a	5	17	Blank	AvoidedLoss	True
175.414	1.45	Lose2	1.0	n/a	Yes	2.734	n/a	5.0	GoodResponse	0	0.024	174.438	5	17	Feedback	AvoidedLoss	True
176.868	2.734	Lose2	1.0	n/a	Yes	2.734	n/a	n/a	GoodResponse	0	0.0	n/a	5	17	ISIslide	AvoidedLoss	True
179.627	0.25	Lose2	1.0	0.0	Yes	2.723	0.027	n/a	GoodResponse	0	n/a	n/a	5	18	Cue	AvoidedLoss	True
179.878	4.05	Lose2	1.0	0.0	Yes	2.723	0.001	n/a	GoodResponse	0	n/a	n/a	5	18	Fixation	AvoidedLoss	True
183.923	0.22	Lose2	1.0	0.004	Yes	2.723	-0.004	1.0	GoodResponse	0	0.199	183.122	5	18	Target	AvoidedLoss	True
184.122	0.3	Lose2	1.0	0.004	Yes	2.723	-0.004	1.0	GoodResponse	0	0.199	n/a	5	18	ButtonPress	AvoidedLoss	True
184.157	0.48	Lose2	1.0	n/a	Yes	2.723	n/a	n/a	GoodResponse	0	n/a	n/a	5	18	Blank	AvoidedLoss	True
184.625	1.45	Lose2	1.0	n/a	Yes	2.723	n/a	5.0	GoodResponse	0	0.033	183.658	5	18	Feedback	AvoidedLoss	True
186.079	2.723	Lose2	1.0	n/a	Yes	2.723	n/a	n/a	GoodResponse	0	0.0	n/a	5	18	ISIslide	AvoidedLoss	True
188.821	0.25	Control	1.0	0.0	Yes	2.929	0.021	n/a	GoodResponse	0	n/a	n/a	5	19	Cue	Neutral	True
189.072	3.95	Control	1.0	0.0	Yes	2.929	0.001	n/a	GoodResponse	0	n/a	n/a	5	19	Fixation	Neutral	True
193.017	0.21	Control	1.0	0.004	Yes	2.929	-0.004	1.0	GoodResponse	0	0.201	192.218	5	19	Target	Neutral	True
193.218	0.3	Control	1.0	0.004	Yes	2.929	-0.004	1.0	GoodResponse	0	0.201	n/a	5	19	ButtonPress	Neutral	True
193.234	0.49	Control	1.0	n/a	Yes	2.929	n/a	n/a	GoodResponse	0	n/a	n/a	5	19	Blank	Neutral	True
193.719	1.45	Control	1.0	n/a	Yes	2.929	n/a	5.0	GoodResponse	0	0.012	192.731	5	19	Feedback	Neutral	True
195.173	2.929	Control	1.0	n/a	Yes	2.929	n/a	n/a	GoodResponse	0	0.0	n/a	5	19	ISIslide	Neutral	True
198.116	0.25	Control	1.0	0.0	Yes	2.634	0.016	n/a	GoodResponse	0	n/a	n/a	5	20	Cue	Neutral	True
198.366	4.05	Control	1.0	0.0	Yes	2.634	0.0	n/a	GoodResponse	0	n/a	n/a	5	20	Fixation	Neutral	True
202.412	0.2	Control	1.0	0.004	Yes	2.634	-0.004	1.0	GoodResponse	0	0.194	201.606	5	20	Target	Neutral	True
202.606	0.3	Control	1.0	0.004	Yes	2.634	-0.004	1.0	GoodResponse	0	0.194	n/a	5	20	ButtonPress	Neutral	True
202.612	0.5	Control	1.0	n/a	Yes	2.634	n/a	n/a	GoodResponse	0	n/a	n/a	5	20	Blank	Neutral	True
203.114	1.45	Control	1.0	n/a	Yes	2.634	n/a	5.0	GoodResponse	0	0.032	202.146	5	20	Feedback	Neutral	True
204.568	2.634	Control	1.0	n/a	Yes	2.634	n/a	n/a	GoodResponse	0	0.0	n/a	5	20	ISIslide	Neutral	True
207.226	0.25	Control	0.9545	0.0	No	2.774	0.026	n/a	NoResponse	0	n/a	n/a	5	21	Cue	Neutral	True
207.477	4.1	Control	0.9545	0.0	No	2.774	0.001	n/a	NoResponse	0	n/a	n/a	5	21	Fixation	Neutral	True
211.573	0.19	Control	0.9545	0.003	No	2.774	-0.003	1.0	NoResponse	0	0.215	210.788	5	21	Target	Neutral	True
211.773	0.51	Control	0.9545	n/a	No	2.774	n/a	n/a	NoResponse	0	n/a	n/a	5	21	Blank	Neutral	True
211.788	0.3	Control	0.9545	0.003	No	2.774	-0.003	1.0	NoResponse	0	0.215	n/a	5	21	ButtonPress	Neutral	True
212.275	1.45	Control	0.9545	n/a	No	2.774	n/a	5.0	NoResponse	0	0.041	211.316	5	21	Feedback	Neutral	True
213.729	2.774	Control	0.9545	n/a	No	2.774	n/a	n/a	NoResponse	0	0.0	n/a	5	21	ISIslide	Neutral	True
216.521	0.25	Control	0.9129999999999999	0.0	No	2.779	0.021	n/a	NoResponse	0	n/a	n/a	5	22	Cue	Neutral	True
216.772	4.0	Control	0.9129999999999999	0.0	No	2.779	0.001	n/a	NoResponse	0	n/a	n/a	5	22	Fixation	Neutral	True
220.767	0.18	Control	0.9129999999999999	0.004	No	2.779	-0.004	1.0	NoResponse	0	0.334	220.101	5	22	Target	Neutral	True
220.951	0.52	Control	0.9129999999999999	n/a	No	2.779	n/a	n/a	NoResponse	0	n/a	n/a	5	22	Blank	Neutral	True
221.101	0.3	Control	0.9129999999999999	0.004	No	2.779	-0.004	1.0	NoResponse	0	0.334	n/a	5	22	ButtonPress	Neutral	True
221.469	1.45	Control	0.9129999999999999	n/a	No	2.779	n/a	5.0	NoResponse	0	0.017	220.486	5	22	Feedback	Neutral	True
222.923	2.779	Control	0.9129999999999999	n/a	No	2.779	n/a	n/a	NoResponse	0	0.0	n/a	5	22	ISIslide	Neutral	True
225.715	0.25	Control	0.875	0.0	No	2.785	0.015	n/a	NoResponse	0	n/a	n/a	5	23	Cue	Neutral	True
225.966	3.9	Control	0.875	0.0	No	2.785	0.001	n/a	NoResponse	0	n/a	n/a	5	23	Fixation	Neutral	True
229.861	0.17	Control	0.875	0.004	No	2.785	-0.004	1.0	NoResponse	0	0.191	229.052	5	23	Target	Neutral	True
230.045	0.53	Control	0.875	n/a	No	2.785	n/a	n/a	NoResponse	0	n/a	n/a	5	23	Blank	Neutral	True
230.052	0.3	Control	0.875	0.004	No	2.785	-0.004	1.0	NoResponse	0	0.191	n/a	5	23	ButtonPress	Neutral	True
230.563	1.45	Control	0.875	n/a	No	2.785	n/a	5.0	NoResponse	0	0.046	229.609	5	23	Feedback	Neutral	True
232.017	2.785	Control	0.875	n/a	No	2.785	n/a	n/a	NoResponse	0	0.0	n/a	5	23	ISIslide	Neutral	True
234.826	0.25	Win2	0.84	0.0	No	3.124	0.026	n/a	NoResponse	0	n/a	n/a	5	24	Cue	MissedWin	True
235.076	3.95	Win2	0.84	0.001	No	3.124	0.0	n/a	NoResponse	0	n/a	n/a	5	24	Fixation	MissedWin	True
239.022	0.16	Win2	0.84	0.004	No	3.124	-0.004	1.0	NoResponse	0	0.197	238.219	5	24	Target	MissedWin	True
239.189	0.54	Win2	0.84	n/a	No	3.124	n/a	n/a	NoResponse	0	n/a	n/a	5	24	Blank	MissedWin	True
239.219	0.3	Win2	0.84	0.004	No	3.124	-0.004	1.0	NoResponse	0	0.197	n/a	5	24	ButtonPress	MissedWin	True
239.724	1.45	Win2	0.84	n/a	No	3.124	n/a	5.0	NoResponse	0	0.008	238.732	5	24	Feedback	MissedWin	True
241.178	3.124	Win2	0.84	n/a	No	3.124	n/a	n/a	NoResponse	0	0.0	n/a	5	24	ISIslide	MissedWin	True
244.321	0.25	Win2	0.8077	0.0	No	3.079	0.021	n/a	NoResponse	0	n/a	n/a	5	25	Cue	MissedWin	True
244.572	4.0	Win2	0.8077	0.0	No	3.079	0.001	n/a	NoResponse	0	n/a	n/a	5	25	Fixation	MissedWin	True
248.567	0.15	Win2	0.8077	0.004	No	3.079	-0.004	1.0	NoResponse	0	0.198	247.765	5	25	Target	MissedWin	True
248.717	0.55	Win2	0.8077	n/a	No	3.079	n/a	n/a	NoResponse	0	n/a	n/a	5	25	Blank	MissedWin	True
248.765	0.3	Win2	0.8077	0.004	No	3.079	-0.004	1.0	NoResponse	0	0.198	n/a	5	25	ButtonPress	MissedWin	True
249.269	1.45	Win2	0.8077	n/a	No	3.079	n/a	5.0	NoResponse	0	0.023	248.292	5	25	Feedback	MissedWin	True
250.723	3.079	Win2	0.8077	n/a	No	3.079	n/a	n/a	NoResponse	0	0.0	n/a	5	25	ISIslide	MissedWin	True
253.816	0.25	Win2	0.7778	0.0	No	2.934	0.016	n/a	NoResponse	0	n/a	n/a	5	26	Cue	MissedWin	False
254.067	3.95	Win2	0.7778	0.0	No	2.934	0.001	1.0	NoResponse	0	3.486	256.553	5	26	Fixation	MissedWin	False
257.553	0.3	Win2	0.7778	0.0	No	2.934	0.001	1.0	NoResponse	0	3.486	n/a	5	26	ButtonPress	MissedWin	False
258.012	0.15	Win2	0.7778	0.004	No	2.934	-0.004	1.0	NoResponse	0	0.214	257.226	5	26	Target	MissedWin	False
258.162	0.55	Win2	0.7778	n/a	No	2.934	n/a	n/a	NoResponse	0	n/a	n/a	5	26	Blank	MissedWin	False
258.226	0.3	Win2	0.7778	0.004	No	2.934	-0.004	1.0	NoResponse	0	0.214	n/a	5	26	ButtonPress	MissedWin	False
258.714	1.45	Win2	0.7778	n/a	No	2.934	n/a	5.0	NoResponse	0	0.041	257.755	5	26	Feedback	MissedWin	False
260.168	2.934	Win2	0.7778	n/a	No	2.934	n/a	n/a	NoResponse	0	0.0	n/a	5	26	ISIslide	MissedWin	False
263.127	0.25	Lose2	0.75	0.0	No	2.823	0.027	n/a	NoResponse	-1	n/a	n/a	4	27	Cue	Loss	True
263.378	4.05	Lose2	0.75	0.0	No	2.823	0.001	n/a	NoResponse	-1	n/a	n/a	4	27	Fixation	Loss	True
267.423	0.15	Lose2	0.75	0.004	No	2.823	-0.004	1.0	NoResponse	-1	0.211	266.634	4	27	Target	Loss	True
267.574	0.55	Lose2	0.75	n/a	No	2.823	n/a	n/a	NoResponse	-1	n/a	n/a	4	27	Blank	Loss	True
267.634	0.3	Lose2	0.75	0.004	No	2.823	-0.004	1.0	NoResponse	-1	0.211	n/a	4	27	ButtonPress	Loss	True
268.126	1.45	Lose2	0.75	n/a	No	2.823	n/a	5.0	NoResponse	-1	0.044	267.17	4	27	Feedback	Loss	True
269.58	2.823	Lose2	0.75	n/a	No	2.823	n/a	n/a	NoResponse	-1	0.0	n/a	4	27	ISIslide	Loss	True
272.422	0.25	Control	0.7241	0.0	No	2.828	0.022	n/a	NoResponse	0	n/a	n/a	4	28	Cue	Neutral	True
272.673	4.05	Control	0.7241	0.0	No	2.828	0.001	n/a	NoResponse	0	n/a	n/a	4	28	Fixation	Neutral	True
276.718	0.15	Control	0.7241	0.004	No	2.828	-0.004	1.0	NoResponse	0	0.202	275.92	4	28	Target	Neutral	True
276.868	0.55	Control	0.7241	n/a	No	2.828	n/a	n/a	NoResponse	0	n/a	n/a	4	28	Blank	Neutral	True
276.92	0.3	Control	0.7241	0.004	No	2.828	-0.004	1.0	NoResponse	0	0.202	n/a	4	28	ButtonPress	Neutral	True
277.42	1.45	Control	0.7241	n/a	No	2.828	n/a	5.0	NoResponse	0	0.018	276.438	4	28	Feedback	Neutral	True
278.874	2.828	Control	0.7241	n/a	No	2.828	n/a	n/a	NoResponse	0	0.0	n/a	4	28	ISIslide	Neutral	True
281.716	0.25	Lose2	0.7	0.0	No	2.834	0.016	n/a	NoResponse	-1	n/a	n/a	3	29	Cue	Loss	True
281.967	3.95	Lose2	0.7	0.0	No	2.834	0.001	n/a	NoResponse	-1	n/a	n/a	3	29	Fixation	Loss	True
285.912	0.15	Lose2	0.7	0.004	No	2.834	-0.004	1.0	NoResponse	-1	0.197	285.109	3	29	Target	Loss	True
286.063	0.55	Lose2	0.7	n/a	No	2.834	n/a	n/a	NoResponse	-1	n/a	n/a	3	29	Blank	Loss	True
286.109	0.3	Lose2	0.7	0.004	No	2.834	-0.004	1.0	NoResponse	-1	0.197	n/a	3	29	ButtonPress	Loss	True
286.614	1.45	Lose2	0.7	n/a	No	2.834	n/a	5.0	NoResponse	-1	0.043	285.657	3	29	Feedback	Loss	True
288.069	2.834	Lose2	0.7	n/a	No	2.834	n/a	n/a	NoResponse	-1	0.0	n/a	3	29	ISIslide	Loss	True
290.927	0.25	Win2	0.6774	0.0	No	2.773	0.027	n/a	NoResponse	0	n/a	n/a	3	30	Cue	MissedWin	True
291.178	3.9	Win2	0.6774	0.0	No	2.773	0.001	n/a	NoResponse	0	n/a	n/a	3	30	Fixation	MissedWin	True
295.073	0.15	Win2	0.6774	0.004	No	2.773	-0.004	1.0	NoResponse	0	0.235	294.308	3	30	Target	MissedWin	True
295.224	0.55	Win2	0.6774	n/a	No	2.773	n/a	n/a	NoResponse	0	n/a	n/a	3	30	Blank	MissedWin	True
295.308	0.3	Win2	0.6774	0.004	No	2.773	-0.004	1.0	NoResponse	0	0.235	n/a	3	30	ButtonPress	MissedWin	True
295.775	1.45	Win2	0.6774	n/a	No	2.773	n/a	5.0	NoResponse	0	0.008	294.783	3	30	Feedback	MissedWin	True
297.23	2.773	Win2	0.6774	n/a	No	2.773	n/a	n/a	NoResponse	0	0.0	n/a	3	30	ISIslide	MissedWin	True
300.021	0.25	Lose2	0.6562	0.0	No	2.829	0.021	n/a	NoResponse	-1	n/a	n/a	2	31	Cue	Loss	True
300.272	4.05	Lose2	0.6562	0.0	No	2.829	0.001	n/a	NoResponse	-1	n/a	n/a	2	31	Fixation	Loss	True
304.317	0.15	Lose2	0.6562	0.004	No	2.829	-0.004	1.0	NoResponse	-1	0.216	303.533	2	31	Target	Loss	True
304.468	0.55	Lose2	0.6562	n/a	No	2.829	n/a	n/a	NoResponse	-1	n/a	n/a	2	31	Blank	Loss	True
304.533	0.3	Lose2	0.6562	0.004	No	2.829	-0.004	1.0	NoResponse	-1	0.216	n/a	2	31	ButtonPress	Loss	True
305.02	1.45	Lose2	0.6562	n/a	No	2.829	n/a	5.0	NoResponse	-1	0.027	304.047	2	31	Feedback	Loss	True
306.474	2.829	Lose2	0.6562	n/a	No	2.829	n/a	n/a	NoResponse	-1	0.0	n/a	2	31	ISIslide	Loss	True
309.316	0.25	Lose2	0.6364	0.0	No	2.634	0.016	n/a	NoResponse	-1	n/a	n/a	1	32	Cue	Loss	True
309.567	4.15	Lose2	0.6364	0.0	No	2.634	0.001	n/a	NoResponse	-1	n/a	n/a	1	32	Fixation	Loss	True
313.712	0.15	Lose2	0.6364	0.004	No	2.634	-0.004	1.0	NoResponse	-1	0.217	312.929	1	32	Target	Loss	True
313.863	0.55	Lose2	0.6364	n/a	No	2.634	n/a	n/a	NoResponse	-1	n/a	n/a	1	32	Blank	Loss	True
313.929	0.3	Lose2	0.6364	0.004	No	2.634	-0.004	1.0	NoResponse	-1	0.217	n/a	1	32	ButtonPress	Loss	True
314.414	1.45	Lose2	0.6364	n/a	No	2.634	n/a	5.0	NoResponse	-1	0.048	313.462	1	32	Feedback	Loss	True
315.869	2.634	Lose2	0.6364	n/a	No	2.634	n/a	n/a	NoResponse	-1	0.0	n/a	1	32	ISIslide	Loss	True
318.527	0.25	Win2	0.6175999999999999	0.0	No	2.673	0.027	n/a	NoResponse	0	n/a	n/a	1	33	Cue	MissedWin	True
318.778	4.0	Win2	0.6175999999999999	0.0	No	2.673	0.001	n/a	NoResponse	0	n/a	n/a	1	33	Fixation	MissedWin	True
322.773	0.16	Win2	0.6175999999999999	0.004	No	2.673	-0.004	1.0	NoResponse	0	0.233	322.006	1	33	Target	MissedWin	True
322.94	0.54	Win2	0.6175999999999999	n/a	No	2.673	n/a	n/a	NoResponse	0	n/a	n/a	1	33	Blank	MissedWin	True
323.006	0.3	Win2	0.6175999999999999	0.004	No	2.673	-0.004	1.0	NoResponse	0	0.233	n/a	1	33	ButtonPress	MissedWin	True
323.475	1.45	Win2	0.6175999999999999	n/a	No	2.673	n/a	5.0	NoResponse	0	0.012	322.487	1	33	Feedback	MissedWin	True
324.929	2.673	Win2	0.6175999999999999	n/a	No	2.673	n/a	n/a	NoResponse	0	0.0	n/a	1	33	ISIslide	MissedWin	True
327.621	0.25	Lose2	0.6	0.0	No	2.629	0.021	n/a	NoResponse	-1	n/a	n/a	0	34	Cue	Loss	True
327.871	4.05	Lose2	0.6	0.001	No	2.629	0.0	n/a	NoResponse	-1	n/a	n/a	0	34	Fixation	Loss	True
331.917	0.17	Lose2	0.6	0.004	No	2.629	-0.004	1.0	NoResponse	-1	0.292	331.209	0	34	Target	Loss	True
332.101	0.53	Lose2	0.6	n/a	No	2.629	n/a	n/a	NoResponse	-1	n/a	n/a	0	34	Blank	Loss	True
332.209	0.3	Lose2	0.6	0.004	No	2.629	-0.004	1.0	NoResponse	-1	0.292	n/a	0	34	ButtonPress	Loss	True
332.619	1.45	Lose2	0.6	n/a	No	2.629	n/a	5.0	NoResponse	-1	0.038	331.657	0	34	Feedback	Loss	True
334.073	2.629	Lose2	0.6	n/a	No	2.629	n/a	n/a	NoResponse	-1	0.0	n/a	0	34	ISIslide	Loss	True
336.731	0.25	Lose2	0.6111	0.0	Yes	2.669	0.031	n/a	GoodResponse	0	n/a	n/a	0	35	Cue	AvoidedLoss	True
336.982	4.0	Lose2	0.6111	0.0	Yes	2.669	0.001	n/a	GoodResponse	0	n/a	n/a	0	35	Fixation	AvoidedLoss	True
340.977	0.18	Lose2	0.6111	0.004	Yes	2.669	-0.004	1.0	GoodResponse	0	0.17	340.147	0	35	Target	AvoidedLoss	True
341.147	0.3	Lose2	0.6111	0.004	Yes	2.669	-0.004	1.0	GoodResponse	0	0.17	n/a	0	35	ButtonPress	AvoidedLoss	True
341.161	0.52	Lose2	0.6111	n/a	Yes	2.669	n/a	n/a	GoodResponse	0	n/a	n/a	0	35	Blank	AvoidedLoss	True
341.68	1.45	Lose2	0.6111	n/a	Yes	2.669	n/a	5.0	GoodResponse	0	0.006	340.686	0	35	Feedback	AvoidedLoss	True
343.134	2.669	Lose2	0.6111	n/a	Yes	2.669	n/a	n/a	GoodResponse	0	0.0	n/a	0	35	ISIslide	AvoidedLoss	True
345.825	0.25	Control	0.5946	0.0	No	2.675	0.025	n/a	LatePress	0	n/a	n/a	0	36	Cue	Neutral	True
346.076	4.0	Control	0.5946	0.0	No	2.675	0.001	n/a	LatePress	0	n/a	n/a	0	36	Fixation	Neutral	True
350.071	0.19	Control	0.5946	0.004	No	2.675	-0.004	1.0	LatePress	0	0.197	349.268	0	36	Target	Neutral	True
350.268	0.3	Control	0.5946	0.004	No	2.675	-0.004	1.0	LatePress	0	0.197	n/a	0	36	ButtonPress	Neutral	True
350.272	0.51	Control	0.5946	n/a	No	2.675	n/a	n/a	LatePress	0	n/a	n/a	0	36	Blank	Neutral	True
350.774	1.45	Control	0.5946	n/a	No	2.675	n/a	5.0	LatePress	0	0.03	349.804	0	36	Feedback	Neutral	True
352.228	2.675	Control	0.5946	n/a	No	2.675	n/a	n/a	LatePress	0	0.0	n/a	0	36	ISIslide	Neutral	True
354.919	0.25	Win2	0.6053000000000001	0.0	Yes	2.881	0.019	n/a	GoodResponse	1	n/a	n/a	1	37	Cue	Win	True
355.17	4.0	Win2	0.6053000000000001	0.0	Yes	2.881	0.001	n/a	GoodResponse	1	n/a	n/a	1	37	Fixation	Win	True
359.165	0.2	Win2	0.6053000000000001	0.004	Yes	2.881	-0.004	1.0	GoodResponse	1	0.172	358.337	1	37	Target	Win	True
359.337	0.3	Win2	0.6053000000000001	0.004	Yes	2.881	-0.004	1.0	GoodResponse	1	0.172	n/a	1	37	ButtonPress	Win	True
359.366	0.5	Win2	0.6053000000000001	n/a	Yes	2.881	n/a	n/a	GoodResponse	1	n/a	n/a	1	37	Blank	Win	True
359.867	1.45	Win2	0.6053000000000001	n/a	Yes	2.881	n/a	5.0	GoodResponse	1	0.009	358.876	1	37	Feedback	Win	True
361.322	2.881	Win2	0.6053000000000001	n/a	Yes	2.881	n/a	n/a	GoodResponse	1	0.0	n/a	1	37	ISIslide	Win	True
364.231	0.25	Lose2	0.6154	0.0	Yes	2.819	0.031	n/a	GoodResponse	0	n/a	n/a	1	38	Cue	AvoidedLoss	True
364.481	3.95	Lose2	0.6154	0.0	Yes	2.819	0.0	n/a	GoodResponse	0	n/a	n/a	1	38	Fixation	AvoidedLoss	True
368.443	0.21	Lose2	0.6154	0.0	Yes	2.819	0.012	1.0	GoodResponse	0	0.188	367.631	1	38	Target	AvoidedLoss	True
368.631	0.3	Lose2	0.6154	0.0	Yes	2.819	0.012	1.0	GoodResponse	0	0.188	n/a	1	38	ButtonPress	AvoidedLoss	True
368.644	0.49	Lose2	0.6154	n/a	Yes	2.819	n/a	n/a	GoodResponse	0	n/a	n/a	1	38	Blank	AvoidedLoss	True
369.129	1.45	Lose2	0.6154	n/a	Yes	2.819	n/a	5.0	GoodResponse	0	0.016	368.145	1	38	Feedback	AvoidedLoss	True
370.583	2.819	Lose2	0.6154	n/a	Yes	2.819	n/a	n/a	GoodResponse	0	0.0	n/a	1	38	ISIslide	AvoidedLoss	True
373.425	0.25	Win2	0.625	0.0	Yes	2.975	0.025	n/a	GoodResponse	1	n/a	n/a	2	39	Cue	Win	True
373.676	4.1	Win2	0.625	0.0	Yes	2.975	0.001	n/a	GoodResponse	1	n/a	n/a	2	39	Fixation	Win	True
377.771	0.22	Win2	0.625	0.004	Yes	2.975	-0.004	1.0	GoodResponse	1	0.205	376.976	2	39	Target	Win	True
377.976	0.3	Win2	0.625	0.004	Yes	2.975	-0.004	1.0	GoodResponse	1	0.205	n/a	2	39	ButtonPress	Win	True
378.005	0.48	Win2	0.625	n/a	Yes	2.975	n/a	n/a	GoodResponse	1	n/a	n/a	2	39	Blank	Win	True
378.473	1.45	Win2	0.625	n/a	Yes	2.975	n/a	5.0	GoodResponse	1	0.038	377.511	2	39	Feedback	Win	True
379.928	2.975	Win2	0.625	n/a	Yes	2.975	n/a	n/a	GoodResponse	1	0.0	n/a	2	39	ISIslide	Win	True
382.92	0.25	Win2	0.6341	0.0	Yes	2.73	0.02	n/a	GoodResponse	1	n/a	n/a	3	40	Cue	Win	True
383.171	3.95	Win2	0.6341	0.0	Yes	2.73	0.001	n/a	GoodResponse	1	n/a	n/a	3	40	Fixation	Win	True
387.116	0.23	Win2	0.6341	0.004	Yes	2.73	-0.004	1.0	GoodResponse	1	0.203	386.319	3	40	Target	Win	True
387.319	0.3	Win2	0.6341	0.004	Yes	2.73	-0.004	1.0	GoodResponse	1	0.203	n/a	3	40	ButtonPress	Win	True
387.35	0.47	Win2	0.6341	n/a	Yes	2.73	n/a	n/a	GoodResponse	1	n/a	n/a	3	40	Blank	Win	True
387.818	1.45	Win2	0.6341	n/a	Yes	2.73	n/a	5.0	GoodResponse	1	0.01	386.828	3	40	Feedback	Win	True
389.272	2.73	Win2	0.6341	n/a	Yes	2.73	n/a	n/a	GoodResponse	1	0.0	n/a	3	40	ISIslide	Win	True
392.031	0.25	Win2	0.6429	0.0	Yes	2.769	0.031	n/a	GoodResponse	1	n/a	n/a	4	41	Cue	Win	True
392.281	3.9	Win2	0.6429	0.0	Yes	2.769	0.0	n/a	GoodResponse	1	n/a	n/a	4	41	Fixation	Win	True
396.193	0.24	Win2	0.6429	0.0	Yes	2.769	0.012	1.0	GoodResponse	1	0.219	395.412	4	41	Target	Win	True
396.412	0.3	Win2	0.6429	0.0	Yes	2.769	0.012	1.0	GoodResponse	1	0.219	n/a	4	41	ButtonPress	Win	True
396.427	0.46	Win2	0.6429	n/a	Yes	2.769	n/a	n/a	GoodResponse	1	n/a	n/a	4	41	Blank	Win	True
396.878	1.45	Win2	0.6429	n/a	Yes	2.769	n/a	5.0	GoodResponse	1	0.023	395.901	4	41	Feedback	Win	True
398.333	2.769	Win2	0.6429	n/a	Yes	2.769	n/a	n/a	GoodResponse	1	0.0	n/a	4	41	ISIslide	Win	True
401.125	0.25	Control	0.6279	0.0	No	2.925	0.025	n/a	NoResponse	0	n/a	n/a	4	42	Cue	Neutral	True
401.375	3.85	Control	0.6279	0.0	No	2.925	0.0	n/a	NoResponse	0	n/a	n/a	4	42	Fixation	Neutral	True
405.237	0.25	Control	0.6279	0.0	No	2.925	0.012	1.0	NoResponse	0	0.321	404.558	4	42	Target	Neutral	True
405.471	0.45	Control	0.6279	n/a	No	2.925	n/a	n/a	NoResponse	0	n/a	n/a	4	42	Blank	Neutral	True
405.558	0.3	Control	0.6279	0.0	No	2.925	0.012	1.0	NoResponse	0	0.321	n/a	4	42	ButtonPress	Neutral	True
405.922	1.45	Control	0.6279	n/a	No	2.925	n/a	5.0	NoResponse	0	0.003	404.925	4	42	Feedback	Neutral	True
407.377	2.925	Control	0.6279	n/a	No	2.925	n/a	n/a	NoResponse	0	0.0	n/a	4	42	ISIslide	Neutral	True
410.319	0.25	Win2	0.6364	0.0	Yes	3.181	0.019	n/a	GoodResponse	1	n/a	n/a	5	43	Cue	Win	True
410.57	4.0	Win2	0.6364	0.0	Yes	3.181	0.001	n/a	GoodResponse	1	n/a	n/a	5	43	Fixation	Win	True
414.565	0.26	Win2	0.6364	0.004	Yes	3.181	-0.004	1.0	GoodResponse	1	0.22	413.785	5	43	Target	Win	True
414.785	0.3	Win2	0.6364	0.004	Yes	3.181	-0.004	1.0	GoodResponse	1	0.22	n/a	5	43	ButtonPress	Win	True
414.832	0.44	Win2	0.6364	n/a	Yes	3.181	n/a	n/a	GoodResponse	1	n/a	n/a	5	43	Blank	Win	True
415.267	1.45	Win2	0.6364	n/a	Yes	3.181	n/a	5.0	GoodResponse	1	0.024	414.291	5	43	Feedback	Win	True
416.721	3.181	Win2	0.6364	n/a	Yes	3.181	n/a	n/a	GoodResponse	1	0.0	n/a	5	43	ISIslide	Win	True
419.914	0.25	Win2	0.6444	0.0	Yes	2.986	0.014	n/a	GoodResponse	1	n/a	n/a	6	44	Cue	Win	True
420.165	4.0	Win2	0.6444	0.0	Yes	2.986	0.001	n/a	GoodResponse	1	n/a	n/a	6	44	Fixation	Win	True
424.16	0.27	Win2	0.6444	0.004	Yes	2.986	-0.004	1.0	GoodResponse	1	0.209	423.369	6	44	Target	Win	True
424.369	0.3	Win2	0.6444	0.004	Yes	2.986	-0.004	1.0	GoodResponse	1	0.209	n/a	6	44	ButtonPress	Win	True
424.444	0.43	Win2	0.6444	n/a	Yes	2.986	n/a	n/a	GoodResponse	1	n/a	n/a	6	44	Blank	Win	True
424.862	1.45	Win2	0.6444	n/a	Yes	2.986	n/a	5.0	GoodResponse	1	0.039	423.901	6	44	Feedback	Win	True
426.317	2.986	Win2	0.6444	n/a	Yes	2.986	n/a	n/a	GoodResponse	1	0.0	n/a	6	44	ISIslide	Win	True
429.326	0.25	Control	0.6522	0.0	Yes	2.874	0.026	n/a	GoodResponse	0	n/a	n/a	6	45	Cue	Neutral	False
429.577	4.1	Control	0.6522	0.0	Yes	2.874	0.001	1.0	GoodResponse	0	3.906	432.483	6	45	Fixation	Neutral	False
433.483	0.3	Control	0.6522	0.0	Yes	2.874	0.001	1.0	GoodResponse	0	3.906	n/a	6	45	ButtonPress	Neutral	False
433.672	0.28	Control	0.6522	0.004	Yes	2.874	-0.004	1.0	GoodResponse	0	0.154	432.826	6	45	Target	Neutral	False
433.826	0.3	Control	0.6522	0.004	Yes	2.874	-0.004	1.0	GoodResponse	0	0.154	n/a	6	45	ButtonPress	Neutral	False
433.956	0.42	Control	0.6522	n/a	Yes	2.874	n/a	n/a	GoodResponse	0	n/a	n/a	6	45	Blank	Neutral	False
434.374	1.45	Control	0.6522	n/a	Yes	2.874	n/a	5.0	GoodResponse	0	0.039	433.413	6	45	Feedback	Neutral	False
435.829	2.874	Control	0.6522	n/a	Yes	2.874	n/a	n/a	GoodResponse	0	0.0	n/a	6	45	ISIslide	Neutral	False
438.721	0.25	Lose2	0.6596	0.0	Yes	3.379	0.021	n/a	GoodResponse	0	n/a	n/a	6	46	Cue	AvoidedLoss	True
438.971	4.0	Lose2	0.6596	0.0	Yes	3.379	0.0	n/a	GoodResponse	0	n/a	n/a	6	46	Fixation	AvoidedLoss	True
442.967	0.29	Lose2	0.6596	0.004	Yes	3.379	-0.004	1.0	GoodResponse	0	0.194	442.161	6	46	Target	AvoidedLoss	True
443.161	0.3	Lose2	0.6596	0.004	Yes	3.379	-0.004	1.0	GoodResponse	0	0.194	n/a	6	46	ButtonPress	AvoidedLoss	True
443.268	0.41	Lose2	0.6596	n/a	Yes	3.379	n/a	n/a	GoodResponse	0	n/a	n/a	6	46	Blank	AvoidedLoss	True
443.669	1.45	Lose2	0.6596	n/a	Yes	3.379	n/a	5.0	GoodResponse	0	0.012	442.681	6	46	Feedback	AvoidedLoss	True
445.123	3.379	Lose2	0.6596	n/a	Yes	3.379	n/a	n/a	GoodResponse	0	0.0	n/a	6	46	ISIslide	AvoidedLoss	True
448.517	0.25	Lose2	0.6667000000000001	0.0	Yes	2.683	0.017	n/a	GoodResponse	0	n/a	n/a	6	47	Cue	AvoidedLoss	True
448.767	4.0	Lose2	0.6667000000000001	0.001	Yes	2.683	0.0	n/a	GoodResponse	0	n/a	n/a	6	47	Fixation	AvoidedLoss	True
452.763	0.29	Lose2	0.6667000000000001	0.004	Yes	2.683	-0.004	1.0	GoodResponse	0	0.209	451.972	6	47	Target	AvoidedLoss	True
452.972	0.3	Lose2	0.6667000000000001	0.004	Yes	2.683	-0.004	1.0	GoodResponse	0	0.209	n/a	6	47	ButtonPress	AvoidedLoss	True
453.064	0.41	Lose2	0.6667000000000001	n/a	Yes	2.683	n/a	n/a	GoodResponse	0	n/a	n/a	6	47	Blank	AvoidedLoss	True
453.465	1.45	Lose2	0.6667000000000001	n/a	Yes	2.683	n/a	5.0	GoodResponse	0	0.021	452.486	6	47	Feedback	AvoidedLoss	True
454.919	2.683	Lose2	0.6667000000000001	n/a	Yes	2.683	n/a	n/a	GoodResponse	0	0.0	n/a	6	47	ISIslide	AvoidedLoss	True
457.627	0.25	Lose2	0.6735	0.0	Yes	3.023	0.027	n/a	GoodResponse	0	n/a	n/a	6	48	Cue	AvoidedLoss	True
457.878	3.95	Lose2	0.6735	0.0	Yes	3.023	0.001	n/a	GoodResponse	0	n/a	n/a	6	48	Fixation	AvoidedLoss	True
461.823	0.28	Lose2	0.6735	0.004	Yes	3.023	-0.004	1.0	GoodResponse	0	0.209	461.032	6	48	Target	AvoidedLoss	True
462.032	0.3	Lose2	0.6735	0.004	Yes	3.023	-0.004	1.0	GoodResponse	0	0.209	n/a	6	48	ButtonPress	AvoidedLoss	True
462.107	0.42	Lose2	0.6735	n/a	Yes	3.023	n/a	n/a	GoodResponse	0	n/a	n/a	6	48	Blank	AvoidedLoss	True
462.525	1.45	Lose2	0.6735	n/a	Yes	3.023	n/a	5.0	GoodResponse	0	0.034	461.559	6	48	Feedback	AvoidedLoss	True
463.98	3.023	Lose2	0.6735	n/a	Yes	3.023	n/a	n/a	GoodResponse	0	0.0	n/a	6	48	ISIslide	AvoidedLoss	True
467.022	0.25	Control	0.68	0.0	Yes	2.878	0.022	n/a	GoodResponse	0	n/a	n/a	6	49	Cue	Neutral	True
467.273	4.0	Control	0.68	0.0	Yes	2.878	0.001	n/a	GoodResponse	0	n/a	n/a	6	49	Fixation	Neutral	True
471.268	0.27	Control	0.68	0.004	Yes	2.878	-0.004	1.0	GoodResponse	0	0.213	470.481	6	49	Target	Neutral	True
471.481	0.3	Control	0.68	0.004	Yes	2.878	-0.004	1.0	GoodResponse	0	0.213	n/a	6	49	ButtonPress	Neutral	True
471.552	0.43	Control	0.68	n/a	Yes	2.878	n/a	n/a	GoodResponse	0	n/a	n/a	6	49	Blank	Neutral	True
471.97	1.45	Control	0.68	n/a	Yes	2.878	n/a	5.0	GoodResponse	0	0.008	470.978	6	49	Feedback	Neutral	True
473.425	2.878	Control	0.68	n/a	Yes	2.878	n/a	n/a	GoodResponse	0	0.0	n/a	6	49	ISIslide	Neutral	True
476.317	0.25	Control	0.6667000000000001	0.0	No	2.783	0.017	n/a	NoResponse	0	n/a	n/a	6	50	Cue	Neutral	True
476.568	4.0	Control	0.6667000000000001	0.0	No	2.783	0.001	n/a	NoResponse	0	n/a	n/a	6	50	Fixation	Neutral	True
480.563	0.26	Control	0.6667000000000001	0.004	No	2.783	-0.004	1.0	NoResponse	0	0.29	479.853	6	50	Target	Neutral	True
480.83	0.44	Control	0.6667000000000001	n/a	No	2.783	n/a	n/a	NoResponse	0	n/a	n/a	6	50	Blank	Neutral	True
480.853	0.3	Control	0.6667000000000001	0.004	No	2.783	-0.004	1.0	NoResponse	0	0.29	n/a	6	50	ButtonPress	Neutral	True
481.265	1.45	Control	0.6667000000000001	n/a	No	2.783	n/a	5.0	NoResponse	0	0.026	480.291	6	50	Feedback	Neutral	True
482.719	2.783	Control	0.6667000000000001	n/a	No	2.783	n/a	n/a	NoResponse	0	0.0	n/a	6	50	ISIslide	Neutral	True
485.528	0.25	Control	0.6731	0.0	Yes	2.722	0.028	n/a	GoodResponse	0	n/a	n/a	6	51	Cue	Neutral	True
485.778	3.95	Control	0.6731	0.001	Yes	2.722	0.0	n/a	GoodResponse	0	n/a	n/a	6	51	Fixation	Neutral	True
489.724	0.25	Control	0.6731	0.004	Yes	2.722	-0.004	1.0	GoodResponse	0	0.232	488.956	6	51	Target	Neutral	True
489.956	0.3	Control	0.6731	0.004	Yes	2.722	-0.004	1.0	GoodResponse	0	0.232	n/a	6	51	ButtonPress	Neutral	True
489.974	0.45	Control	0.6731	n/a	Yes	2.722	n/a	n/a	GoodResponse	0	n/a	n/a	6	51	Blank	Neutral	True
490.426	1.45	Control	0.6731	n/a	Yes	2.722	n/a	5.0	GoodResponse	0	0.036	489.462	6	51	Feedback	Neutral	True
491.88	2.722	Control	0.6731	n/a	Yes	2.722	n/a	n/a	GoodResponse	0	0.0	n/a	6	51	ISIslide	Neutral	True
494.622	0.25	Control	0.6604000000000001	0.0	No	2.628	0.022	n/a	NoResponse	0	n/a	n/a	6	52	Cue	Neutral	True
494.872	4.05	Control	0.6604000000000001	0.001	No	2.628	0.0	n/a	NoResponse	0	n/a	n/a	6	52	Fixation	Neutral	True
498.918	0.24	Control	0.6604000000000001	0.004	No	2.628	-0.004	1.0	NoResponse	0	0.305	498.223	6	52	Target	Neutral	True
499.169	0.46	Control	0.6604000000000001	n/a	No	2.628	n/a	n/a	NoResponse	0	n/a	n/a	6	52	Blank	Neutral	True
499.223	0.3	Control	0.6604000000000001	0.004	No	2.628	-0.004	1.0	NoResponse	0	0.305	n/a	6	52	ButtonPress	Neutral	True
499.62	1.45	Control	0.6604000000000001	n/a	No	2.628	n/a	5.0	NoResponse	0	0.013	498.633	6	52	Feedback	Neutral	True
501.074	2.628	Control	0.6604000000000001	n/a	No	2.628	n/a	n/a	NoResponse	0	0.0	n/a	6	52	ISIslide	Neutral	True
503.716	0.25	Win2	0.6667000000000001	0.0	Yes	2.934	0.016	n/a	GoodResponse	1	n/a	n/a	7	53	Cue	Win	True
503.966	4.05	Win2	0.6667000000000001	0.0	Yes	2.934	0.0	n/a	GoodResponse	1	n/a	n/a	7	53	Fixation	Win	True
508.012	0.24	Win2	0.6667000000000001	0.004	Yes	2.934	-0.004	1.0	GoodResponse	1	0.201	507.213	7	53	Target	Win	True
508.213	0.3	Win2	0.6667000000000001	0.004	Yes	2.934	-0.004	1.0	GoodResponse	1	0.201	n/a	7	53	ButtonPress	Win	True
508.263	0.46	Win2	0.6667000000000001	n/a	Yes	2.934	n/a	n/a	GoodResponse	1	n/a	n/a	7	53	Blank	Win	True
508.714	1.45	Win2	0.6667000000000001	n/a	Yes	2.934	n/a	5.0	GoodResponse	1	0.04	507.754	7	53	Feedback	Win	True
510.168	2.934	Win2	0.6667000000000001	n/a	Yes	2.934	n/a	n/a	GoodResponse	1	0.0	n/a	7	53	ISIslide	Win	True
513.127	0.25	Win2	0.6727	0.0	Yes	2.723	0.027	n/a	GoodResponse	1	n/a	n/a	8	54	Cue	Win	True
513.378	3.95	Win2	0.6727	0.0	Yes	2.723	0.001	n/a	GoodResponse	1	n/a	n/a	8	54	Fixation	Win	True
517.323	0.23	Win2	0.6727	0.004	Yes	2.723	-0.004	1.0	GoodResponse	1	0.196	516.519	8	54	Target	Win	True
517.519	0.3	Win2	0.6727	0.004	Yes	2.723	-0.004	1.0	GoodResponse	1	0.196	n/a	8	54	ButtonPress	Win	True
517.557	0.47	Win2	0.6727	n/a	Yes	2.723	n/a	n/a	GoodResponse	1	n/a	n/a	8	54	Blank	Win	True
518.025	1.45	Win2	0.6727	n/a	Yes	2.723	n/a	5.0	GoodResponse	1	0.046	517.071	8	54	Feedback	Win	True
519.48	2.723	Win2	0.6727	n/a	Yes	2.723	n/a	n/a	GoodResponse	1	0.0	n/a	8	54	ISIslide	Win	True
522.221	0.25	Control	0.6786	0.0	Yes	3.029	0.021	n/a	GoodResponse	0	n/a	n/a	8	55	Cue	Neutral	True
522.472	3.95	Control	0.6786	0.0	Yes	3.029	0.001	n/a	GoodResponse	0	n/a	n/a	8	55	Fixation	Neutral	True
526.417	0.22	Control	0.6786	0.004	Yes	3.029	-0.004	1.0	GoodResponse	0	0.203	525.62	8	55	Target	Neutral	True
526.62	0.3	Control	0.6786	0.004	Yes	3.029	-0.004	1.0	GoodResponse	0	0.203	n/a	8	55	ButtonPress	Neutral	True
526.651	0.48	Control	0.6786	n/a	Yes	3.029	n/a	n/a	GoodResponse	0	n/a	n/a	8	55	Blank	Neutral	True
527.119	1.45	Control	0.6786	n/a	Yes	3.029	n/a	5.0	GoodResponse	0	0.025	526.144	8	55	Feedback	Neutral	True
528.574	3.029	Control	0.6786	n/a	Yes	3.029	n/a	n/a	GoodResponse	0	0.0	n/a	8	55	ISIslide	Neutral	True
531.616	0.25	Control	0.6667000000000001	0.0	No	2.834	0.016	n/a	NoResponse	0	n/a	n/a	8	56	Cue	Neutral	True
531.867	3.95	Control	0.6667000000000001	0.0	No	2.834	0.001	n/a	NoResponse	0	n/a	n/a	8	56	Fixation	Neutral	True
535.812	0.21	Control	0.6667000000000001	0.004	No	2.834	-0.004	1.0	NoResponse	0	0.262	535.074	8	56	Target	Neutral	True
536.029	0.49	Control	0.6667000000000001	n/a	No	2.834	n/a	n/a	NoResponse	0	n/a	n/a	8	56	Blank	Neutral	True
536.074	0.3	Control	0.6667000000000001	0.004	No	2.834	-0.004	1.0	NoResponse	0	0.262	n/a	8	56	ButtonPress	Neutral	True
536.514	1.45	Control	0.6667000000000001	n/a	No	2.834	n/a	5.0	NoResponse	0	0.045	535.559	8	56	Feedback	Neutral	True
537.968	2.834	Control	0.6667000000000001	n/a	No	2.834	n/a	n/a	NoResponse	0	0.0	n/a	8	56	ISIslide	Neutral	True
540.827	0.25	Control	0.6552	0.0	No	3.473	0.027	n/a	NoResponse	0	n/a	n/a	8	57	Cue	Neutral	True
541.078	4.0	Control	0.6552	0.0	No	3.473	0.001	n/a	NoResponse	0	n/a	n/a	8	57	Fixation	Neutral	True
545.073	0.2	Control	0.6552	0.004	No	3.473	-0.004	1.0	NoResponse	0	0.323	544.396	8	57	Target	Neutral	True
545.274	0.5	Control	0.6552	n/a	No	3.473	n/a	n/a	NoResponse	0	n/a	n/a	8	57	Blank	Neutral	True
545.396	0.3	Control	0.6552	0.004	No	3.473	-0.004	1.0	NoResponse	0	0.323	n/a	8	57	ButtonPress	Neutral	True
545.775	1.45	Control	0.6552	n/a	No	3.473	n/a	5.0	NoResponse	0	0.008	544.783	8	57	Feedback	Neutral	True
547.229	3.473	Control	0.6552	n/a	No	3.473	n/a	n/a	NoResponse	0	0.0	n/a	8	57	ISIslide	Neutral	True
550.723	0.25	Win2	0.6441	0.0	No	2.727	0.023	n/a	LatePress	0	n/a	n/a	8	58	Cue	MissedWin	True
550.974	4.05	Win2	0.6441	0.0	No	2.727	0.001	n/a	LatePress	0	n/a	n/a	8	58	Fixation	MissedWin	True
555.02	0.2	Win2	0.6441	0.003	No	2.727	-0.003	1.0	LatePress	0	0.202	554.222	8	58	Target	MissedWin	True
555.22	0.5	Win2	0.6441	n/a	No	2.727	n/a	n/a	LatePress	0	n/a	n/a	8	58	Blank	MissedWin	True
555.222	0.3	Win2	0.6441	0.003	No	2.727	-0.003	1.0	LatePress	0	0.202	n/a	8	58	ButtonPress	MissedWin	True
555.722	1.45	Win2	0.6441	n/a	No	2.727	n/a	5.0	LatePress	0	0.008	554.73	8	58	Feedback	MissedWin	True
557.176	2.727	Win2	0.6441	n/a	No	2.727	n/a	n/a	LatePress	0	0.0	n/a	8	58	ISIslide	MissedWin	True
559.918	0.25	Lose2	0.6333	0.0	No	2.682	0.018	n/a	NoResponse	-1	n/a	n/a	7	59	Cue	Loss	True
560.168	4.0	Lose2	0.6333	0.0	No	2.682	0.0	n/a	NoResponse	-1	n/a	n/a	7	59	Fixation	Loss	True
564.164	0.21	Lose2	0.6333	0.004	No	2.682	-0.004	1.0	NoResponse	-1	0.227	563.391	7	59	Target	Loss	True
564.381	0.49	Lose2	0.6333	n/a	No	2.682	n/a	n/a	NoResponse	-1	n/a	n/a	7	59	Blank	Loss	True
564.391	0.3	Lose2	0.6333	0.004	No	2.682	-0.004	1.0	NoResponse	-1	0.227	n/a	7	59	ButtonPress	Loss	True
564.866	1.45	Lose2	0.6333	n/a	No	2.682	n/a	5.0	NoResponse	-1	0.035	563.901	7	59	Feedback	Loss	True
566.32	2.682	Lose2	0.6333	n/a	No	2.682	n/a	n/a	NoResponse	-1	0.0	n/a	7	59	ISIslide	Loss	True
569.028	0.25	Control	0.623	0.0	No	2.672	0.028	n/a	NoResponse	0	n/a	n/a	7	60	Cue	Neutral	True
569.279	4.0	Control	0.623	0.0	No	2.672	0.001	n/a	NoResponse	0	n/a	n/a	7	60	Fixation	Neutral	True
573.274	0.22	Control	0.623	0.004	No	2.672	-0.004	1.0	NoResponse	0	0.317	572.591	7	60	Target	Neutral	True
573.508	0.48	Control	0.623	n/a	No	2.672	n/a	n/a	NoResponse	0	n/a	n/a	7	60	Blank	Neutral	True
573.591	0.3	Control	0.623	0.004	No	2.672	-0.004	1.0	NoResponse	0	0.317	n/a	7	60	ButtonPress	Neutral	True
573.976	1.45	Control	0.623	n/a	No	2.672	n/a	5.0	NoResponse	0	0.047	573.023	7	60	Feedback	Neutral	True
575.431	2.672	Control	0.623	n/a	No	2.672	n/a	n/a	NoResponse	0	0.0	n/a	7	60	ISIslide	Neutral	True
578.122	0.25	Lose2	0.629	0.0	Yes	2.978	0.022	n/a	GoodResponse	0	n/a	n/a	7	61	Cue	AvoidedLoss	True
578.373	4.0	Lose2	0.629	0.0	Yes	2.978	0.001	n/a	GoodResponse	0	n/a	n/a	7	61	Fixation	AvoidedLoss	True
582.368	0.23	Lose2	0.629	0.004	Yes	2.978	-0.004	1.0	GoodResponse	0	0.204	581.572	7	61	Target	AvoidedLoss	True
582.572	0.3	Lose2	0.629	0.004	Yes	2.978	-0.004	1.0	GoodResponse	0	0.204	n/a	7	61	ButtonPress	AvoidedLoss	True
582.602	0.47	Lose2	0.629	n/a	Yes	2.978	n/a	n/a	GoodResponse	0	n/a	n/a	7	61	Blank	AvoidedLoss	True
583.07	1.45	Lose2	0.629	n/a	Yes	2.978	n/a	5.0	GoodResponse	0	0.025	582.095	7	61	Feedback	AvoidedLoss	True
584.525	2.978	Lose2	0.629	n/a	Yes	2.978	n/a	n/a	GoodResponse	0	0.0	n/a	7	61	ISIslide	AvoidedLoss	True
587.517	0.25	Lose2	0.6349	0.0	Yes	2.883	0.017	n/a	GoodResponse	0	n/a	n/a	7	62	Cue	AvoidedLoss	True
587.768	3.9	Lose2	0.6349	0.0	Yes	2.883	0.001	n/a	GoodResponse	0	n/a	n/a	7	62	Fixation	AvoidedLoss	True
591.663	0.24	Lose2	0.6349	0.004	Yes	2.883	-0.004	1.0	GoodResponse	0	0.189	590.852	7	62	Target	AvoidedLoss	True
591.852	0.3	Lose2	0.6349	0.004	Yes	2.883	-0.004	1.0	GoodResponse	0	0.189	n/a	7	62	ButtonPress	AvoidedLoss	True
591.914	0.46	Lose2	0.6349	n/a	Yes	2.883	n/a	n/a	GoodResponse	0	n/a	n/a	7	62	Blank	AvoidedLoss	True
592.365	1.45	Lose2	0.6349	n/a	Yes	2.883	n/a	5.0	GoodResponse	0	0.047	591.412	7	62	Feedback	AvoidedLoss	True
593.819	2.883	Lose2	0.6349	n/a	Yes	2.883	n/a	n/a	GoodResponse	0	0.0	n/a	7	62	ISIslide	AvoidedLoss	True
596.728	0.25	Lose2	0.6406000000000001	0.0	Yes	2.622	0.028	n/a	GoodResponse	0	n/a	n/a	7	63	Cue	AvoidedLoss	True
596.979	4.05	Lose2	0.6406000000000001	0.0	Yes	2.622	0.001	n/a	GoodResponse	0	n/a	n/a	7	63	Fixation	AvoidedLoss	True
601.024	0.25	Lose2	0.6406000000000001	0.004	Yes	2.622	-0.004	1.0	GoodResponse	0	0.201	600.225	7	63	Target	AvoidedLoss	True
601.225	0.3	Lose2	0.6406000000000001	0.004	Yes	2.622	-0.004	1.0	GoodResponse	0	0.201	n/a	7	63	ButtonPress	AvoidedLoss	True
601.275	0.45	Lose2	0.6406000000000001	n/a	Yes	2.622	n/a	n/a	GoodResponse	0	n/a	n/a	7	63	Blank	AvoidedLoss	True
601.726	1.45	Lose2	0.6406000000000001	n/a	Yes	2.622	n/a	5.0	GoodResponse	0	0.008	600.734	7	63	Feedback	AvoidedLoss	True
603.181	2.622	Lose2	0.6406000000000001	n/a	Yes	2.622	n/a	n/a	GoodResponse	0	0.0	n/a	7	63	ISIslide	AvoidedLoss	True
605.822	0.25	Win2	0.6462	0.0	Yes	3.128	0.022	n/a	GoodResponse	1	n/a	n/a	8	64	Cue	Win	True
606.073	4.15	Win2	0.6462	0.0	Yes	3.128	0.001	n/a	GoodResponse	1	n/a	n/a	8	64	Fixation	Win	True
610.218	0.26	Win2	0.6462	0.004	Yes	3.128	-0.004	1.0	GoodResponse	1	0.247	609.465	8	64	Target	Win	True
610.465	0.3	Win2	0.6462	0.004	Yes	3.128	-0.004	1.0	GoodResponse	1	0.247	n/a	8	64	ButtonPress	Win	True
610.486	0.44	Win2	0.6462	n/a	Yes	3.128	n/a	n/a	GoodResponse	1	n/a	n/a	8	64	Blank	Win	True
610.921	1.45	Win2	0.6462	n/a	Yes	3.128	n/a	5.0	GoodResponse	1	0.028	609.949	8	64	Feedback	Win	True
612.375	3.128	Win2	0.6462	n/a	Yes	3.128	n/a	n/a	GoodResponse	1	0.0	n/a	8	64	ISIslide	Win	True
615.518	0.25	Control	0.6515000000000001	0.0	Yes	2.782	0.018	n/a	GoodResponse	0	n/a	n/a	8	65	Cue	Neutral	True
615.768	4.0	Control	0.6515000000000001	0.001	Yes	2.782	0.0	n/a	GoodResponse	0	n/a	n/a	8	65	Fixation	Neutral	True
619.764	0.27	Control	0.6515000000000001	0.004	Yes	2.782	-0.004	1.0	GoodResponse	0	0.223	618.987	8	65	Target	Neutral	True
619.987	0.3	Control	0.6515000000000001	0.004	Yes	2.782	-0.004	1.0	GoodResponse	0	0.223	n/a	8	65	ButtonPress	Neutral	True
620.048	0.43	Control	0.6515000000000001	n/a	Yes	2.782	n/a	n/a	GoodResponse	0	n/a	n/a	8	65	Blank	Neutral	True
620.466	1.45	Control	0.6515000000000001	n/a	Yes	2.782	n/a	5.0	GoodResponse	0	0.044	619.51	8	65	Feedback	Neutral	True
621.92	2.782	Control	0.6515000000000001	n/a	Yes	2.782	n/a	n/a	GoodResponse	0	0.0	n/a	8	65	ISIslide	Neutral	True
624.729	0.25	Win2	0.6567000000000001	0.0	Yes	2.771	0.029	n/a	GoodResponse	1	n/a	n/a	9	66	Cue	Win	True
624.979	3.9	Win2	0.6567000000000001	0.0	Yes	2.771	0.0	n/a	GoodResponse	1	n/a	n/a	9	66	Fixation	Win	True
628.891	0.28	Win2	0.6567000000000001	0.0	Yes	2.771	0.012	1.0	GoodResponse	1	0.203	628.094	9	66	Target	Win	True
629.094	0.3	Win2	0.6567000000000001	0.0	Yes	2.771	0.012	1.0	GoodResponse	1	0.203	n/a	9	66	ButtonPress	Win	True
629.159	0.42	Win2	0.6567000000000001	n/a	Yes	2.771	n/a	n/a	GoodResponse	1	n/a	n/a	9	66	Blank	Win	True
629.577	1.45	Win2	0.6567000000000001	n/a	Yes	2.771	n/a	5.0	GoodResponse	1	0.008	628.585	9	66	Feedback	Win	True
631.031	2.771	Win2	0.6567000000000001	n/a	Yes	2.771	n/a	n/a	GoodResponse	1	0.0	n/a	9	66	ISIslide	Win	True
633.823	0.25	Control	0.6618	0.0	Yes	2.727	0.023	n/a	GoodResponse	0	n/a	n/a	9	67	Cue	Neutral	True
634.073	3.95	Control	0.6618	0.0	Yes	2.727	0.0	n/a	GoodResponse	0	n/a	n/a	9	67	Fixation	Neutral	True
638.035	0.28	Control	0.6618	0.0	Yes	2.727	0.012	1.0	GoodResponse	0	0.212	637.247	9	67	Target	Neutral	True
638.247	0.3	Control	0.6618	0.0	Yes	2.727	0.012	1.0	GoodResponse	0	0.212	n/a	9	67	ButtonPress	Neutral	True
638.303	0.42	Control	0.6618	n/a	Yes	2.727	n/a	n/a	GoodResponse	0	n/a	n/a	9	67	Blank	Neutral	True
638.721	1.45	Control	0.6618	n/a	Yes	2.727	n/a	5.0	GoodResponse	0	0.033	637.754	9	67	Feedback	Neutral	True
640.175	2.727	Control	0.6618	n/a	Yes	2.727	n/a	n/a	GoodResponse	0	0.0	n/a	9	67	ISIslide	Neutral	True
642.917	0.25	Win2	0.6667000000000001	0.0	Yes	3.083	0.017	n/a	GoodResponse	1	n/a	n/a	10	68	Cue	Win	True
643.167	4.0	Win2	0.6667000000000001	0.0	Yes	3.083	0.0	n/a	GoodResponse	1	n/a	n/a	10	68	Fixation	Win	True
647.163	0.28	Win2	0.6667000000000001	0.004	Yes	3.083	-0.004	1.0	GoodResponse	1	0.205	646.368	10	68	Target	Win	True
647.368	0.3	Win2	0.6667000000000001	0.004	Yes	3.083	-0.004	1.0	GoodResponse	1	0.205	n/a	10	68	ButtonPress	Win	True
647.447	0.42	Win2	0.6667000000000001	n/a	Yes	3.083	n/a	n/a	GoodResponse	1	n/a	n/a	10	68	Blank	Win	True
647.865	1.45	Win2	0.6667000000000001	n/a	Yes	3.083	n/a	5.0	GoodResponse	1	0.011	646.876	10	68	Feedback	Win	True
649.319	3.083	Win2	0.6667000000000001	n/a	Yes	3.083	n/a	n/a	GoodResponse	1	0.0	n/a	10	68	ISIslide	Win	True
652.428	0.25	Win2	0.6714	0.0	Yes	3.222	0.028	n/a	GoodResponse	1	n/a	n/a	11	69	Cue	Win	True
652.679	3.95	Win2	0.6714	0.0	Yes	3.222	0.001	n/a	GoodResponse	1	n/a	n/a	11	69	Fixation	Win	True
656.624	0.27	Win2	0.6714	0.004	Yes	3.222	-0.004	1.0	GoodResponse	1	0.226	655.85	11	69	Target	Win	True
656.85	0.3	Win2	0.6714	0.004	Yes	3.222	-0.004	1.0	GoodResponse	1	0.226	n/a	11	69	ButtonPress	Win	True
656.909	0.43	Win2	0.6714	n/a	Yes	3.222	n/a	n/a	GoodResponse	1	n/a	n/a	11	69	Blank	Win	True
657.326	1.45	Win2	0.6714	n/a	Yes	3.222	n/a	5.0	GoodResponse	1	0.013	656.339	11	69	Feedback	Win	True
658.781	3.222	Win2	0.6714	n/a	Yes	3.222	n/a	n/a	GoodResponse	1	0.0	n/a	11	69	ISIslide	Win	True
662.024	0.25	Lose2	0.6761	0.0	Yes	3.026	0.024	n/a	GoodResponse	0	n/a	n/a	11	70	Cue	AvoidedLoss	True
662.275	4.05	Lose2	0.6761	0.0	Yes	3.026	0.001	n/a	GoodResponse	0	n/a	n/a	11	70	Fixation	AvoidedLoss	True
666.32	0.26	Lose2	0.6761	0.004	Yes	3.026	-0.004	1.0	GoodResponse	0	0.211	665.531	11	70	Target	AvoidedLoss	True
666.531	0.3	Lose2	0.6761	0.004	Yes	3.026	-0.004	1.0	GoodResponse	0	0.211	n/a	11	70	ButtonPress	AvoidedLoss	True
666.588	0.44	Lose2	0.6761	n/a	Yes	3.026	n/a	n/a	GoodResponse	0	n/a	n/a	11	70	Blank	AvoidedLoss	True
667.022	1.45	Lose2	0.6761	n/a	Yes	3.026	n/a	5.0	GoodResponse	0	0.024	666.046	11	70	Feedback	AvoidedLoss	True
668.477	3.026	Lose2	0.6761	n/a	Yes	3.026	n/a	n/a	GoodResponse	0	0.0	n/a	11	70	ISIslide	AvoidedLoss	True
671.519	0.25	Win2	0.6806	0.0	Yes	2.731	0.019	n/a	GoodResponse	1	n/a	n/a	12	71	Cue	Win	True
671.77	4.05	Win2	0.6806	0.0	Yes	2.731	0.001	n/a	GoodResponse	1	n/a	n/a	12	71	Fixation	Win	True
675.815	0.25	Win2	0.6806	0.004	Yes	2.731	-0.004	1.0	GoodResponse	1	0.211	675.026	12	71	Target	Win	True
676.026	0.3	Win2	0.6806	0.004	Yes	2.731	-0.004	1.0	GoodResponse	1	0.211	n/a	12	71	ButtonPress	Win	True
676.066	0.45	Win2	0.6806	n/a	Yes	2.731	n/a	n/a	GoodResponse	1	n/a	n/a	12	71	Blank	Win	True
676.517	1.45	Win2	0.6806	n/a	Yes	2.731	n/a	5.0	GoodResponse	1	0.041	675.558	12	71	Feedback	Win	True
677.972	2.731	Win2	0.6806	n/a	Yes	2.731	n/a	n/a	GoodResponse	1	0.0	n/a	12	71	ISIslide	Win	True
680.73	0.25	Win2	0.6849	0.0	Yes	2.77	0.03	n/a	GoodResponse	1	n/a	n/a	13	72	Cue	Win	True
680.981	4.1	Win2	0.6849	0.0	Yes	2.77	0.001	n/a	GoodResponse	1	n/a	n/a	13	72	Fixation	Win	True
685.076	0.24	Win2	0.6849	0.004	Yes	2.77	-0.004	1.0	GoodResponse	1	0.214	684.29	13	72	Target	Win	True
685.29	0.3	Win2	0.6849	0.004	Yes	2.77	-0.004	1.0	GoodResponse	1	0.214	n/a	13	72	ButtonPress	Win	True
685.327	0.46	Win2	0.6849	n/a	Yes	2.77	n/a	n/a	GoodResponse	1	n/a	n/a	13	72	Blank	Win	True
685.778	1.45	Win2	0.6849	n/a	Yes	2.77	n/a	5.0	GoodResponse	1	0.049	684.827	13	72	Feedback	Win	True
687.233	2.77	Win2	0.6849	n/a	Yes	2.77	n/a	n/a	GoodResponse	1	0.0	n/a	13	72	ISIslide	Win	True
690.025	0.25	Win2	0.6892	0.0	Yes	2.675	0.025	n/a	GoodResponse	1	n/a	n/a	14	73	Cue	Win	True
690.275	4.0	Win2	0.6892	0.0	Yes	2.675	0.0	n/a	GoodResponse	1	n/a	n/a	14	73	Fixation	Win	True
694.271	0.23	Win2	0.6892	0.004	Yes	2.675	-0.004	1.0	GoodResponse	1	0.195	693.466	14	73	Target	Win	True
694.466	0.3	Win2	0.6892	0.004	Yes	2.675	-0.004	1.0	GoodResponse	1	0.195	n/a	14	73	ButtonPress	Win	True
694.505	0.47	Win2	0.6892	n/a	Yes	2.675	n/a	n/a	GoodResponse	1	n/a	n/a	14	73	Blank	Win	True
694.973	1.45	Win2	0.6892	n/a	Yes	2.675	n/a	5.0	GoodResponse	1	0.025	693.998	14	73	Feedback	Win	True
696.427	2.675	Win2	0.6892	n/a	Yes	2.675	n/a	n/a	GoodResponse	1	0.0	n/a	14	73	ISIslide	Win	True
699.118	0.25	Lose2	0.6933	0.001	Yes	2.632	0.018	n/a	GoodResponse	0	n/a	n/a	14	74	Cue	AvoidedLoss	True
699.369	4.05	Lose2	0.6933	0.0	Yes	2.632	0.001	n/a	GoodResponse	0	n/a	n/a	14	74	Fixation	AvoidedLoss	True
703.415	0.22	Lose2	0.6933	0.003	Yes	2.632	-0.003	1.0	GoodResponse	0	0.2	702.615	14	74	Target	AvoidedLoss	True
703.615	0.3	Lose2	0.6933	0.003	Yes	2.632	-0.003	1.0	GoodResponse	0	0.2	n/a	14	74	ButtonPress	AvoidedLoss	True
703.649	0.48	Lose2	0.6933	n/a	Yes	2.632	n/a	n/a	GoodResponse	0	n/a	n/a	14	74	Blank	AvoidedLoss	True
704.117	1.45	Lose2	0.6933	n/a	Yes	2.632	n/a	5.0	GoodResponse	0	0.006	703.123	14	74	Feedback	AvoidedLoss	True
705.571	2.632	Lose2	0.6933	n/a	Yes	2.632	n/a	n/a	GoodResponse	0	0.0	n/a	14	74	ISIslide	AvoidedLoss	True
708.229	0.25	Lose2	0.6842	0.0	No	2.921	0.029	n/a	NoResponse	-1	n/a	n/a	13	75	Cue	Loss	True
708.48	3.95	Lose2	0.6842	0.0	No	2.921	0.001	n/a	NoResponse	-1	n/a	n/a	13	75	Fixation	Loss	True
712.425	0.21	Lose2	0.6842	0.004	No	2.921	-0.004	1.0	NoResponse	-1	0.232	711.657	13	75	Target	Loss	True
712.642	0.49	Lose2	0.6842	n/a	No	2.921	n/a	n/a	NoResponse	-1	n/a	n/a	13	75	Blank	Loss	True
712.657	0.3	Lose2	0.6842	0.004	No	2.921	-0.004	1.0	NoResponse	-1	0.232	n/a	13	75	ButtonPress	Loss	True
713.127	1.45	Lose2	0.6842	n/a	No	2.921	n/a	5.0	NoResponse	-1	0.017	712.144	13	75	Feedback	Loss	True
714.582	2.921	Lose2	0.6842	n/a	No	2.921	n/a	n/a	NoResponse	-1	0.0	n/a	13	75	ISIslide	Loss	True
717.524	0.25	Control	0.6753	0.0	No	3.226	0.024	n/a	NoResponse	0	n/a	n/a	13	76	Cue	Neutral	True
717.774	4.05	Control	0.6753	0.001	No	3.226	0.0	n/a	NoResponse	0	n/a	n/a	13	76	Fixation	Neutral	True
721.82	0.2	Control	0.6753	0.004	No	3.226	-0.004	1.0	NoResponse	0	0.228	721.048	13	76	Target	Neutral	True
722.02	0.5	Control	0.6753	n/a	No	3.226	n/a	n/a	NoResponse	0	n/a	n/a	13	76	Blank	Neutral	True
722.048	0.3	Control	0.6753	0.004	No	3.226	-0.004	1.0	NoResponse	0	0.228	n/a	13	76	ButtonPress	Neutral	True
722.522	1.45	Control	0.6753	n/a	No	3.226	n/a	5.0	NoResponse	0	0.037	721.559	13	76	Feedback	Neutral	True
723.976	3.226	Control	0.6753	n/a	No	3.226	n/a	n/a	NoResponse	0	0.0	n/a	13	76	ISIslide	Neutral	True
727.219	0.25	Lose2	0.6795	0.001	Yes	2.581	0.019	n/a	GoodResponse	0	n/a	n/a	13	77	Cue	AvoidedLoss	True
727.47	3.95	Lose2	0.6795	0.0	Yes	2.581	0.001	n/a	GoodResponse	0	n/a	n/a	13	77	Fixation	AvoidedLoss	True
731.415	0.19	Lose2	0.6795	0.004	Yes	2.581	-0.004	1.0	GoodResponse	0	0.186	730.601	13	77	Target	AvoidedLoss	True
731.601	0.3	Lose2	0.6795	0.004	Yes	2.581	-0.004	1.0	GoodResponse	0	0.186	n/a	13	77	ButtonPress	AvoidedLoss	True
731.616	0.51	Lose2	0.6795	n/a	Yes	2.581	n/a	n/a	GoodResponse	0	n/a	n/a	13	77	Blank	AvoidedLoss	True
732.117	1.45	Lose2	0.6795	n/a	Yes	2.581	n/a	5.0	GoodResponse	0	0.007	731.124	13	77	Feedback	AvoidedLoss	True
733.572	2.581	Lose2	0.6795	n/a	Yes	2.581	n/a	n/a	GoodResponse	0	0.0	n/a	13	77	ISIslide	AvoidedLoss	True
