onset	duration	cue_type	current_mean_accuracy	duration_error	is_hit	isi_adjusted	onset_delay	response	response_type	reward	rt	rt_time	total_reward	trial_number	trial_phase	trial_type	one_press
11.097	0.25	Control	1.0	0.0	Yes	2.953	-0.003	n/a	GoodResponse	0	n/a	n/a	0	0	Cue	Neutral	True
11.347	3.85	Control	1.0	0.0	Yes	2.953	0.0	n/a	GoodResponse	0	n/a	n/a	0	0	Fixation	Neutral	True
15.195	0.4	Control	1.0	0.002	Yes	2.953	-0.002	4.0	GoodResponse	0	0.202	14.397	0	0	Target	Neutral	True
15.397	0.3	Control	1.0	0.002	Yes	2.953	-0.002	4.0	GoodResponse	0	0.202	n/a	0	0	ButtonPress	Neutral	True
15.595	0.3	Control	1.0	n/a	Yes	2.953	n/a	n/a	GoodResponse	0	n/a	n/a	0	0	Blank	Neutral	True
15.895	1.45	Control	1.0	n/a	Yes	2.953	n/a	5.0	GoodResponse	0	0.034	14.929	0	0	Feedback	Neutral	True
17.344	2.953	Control	1.0	n/a	Yes	2.953	n/a	n/a	GoodResponse	0	0.0	n/a	0	0	ISIslide	Neutral	True
20.327	0.25	Lose2	1.0	0.0	Yes	2.773	0.027	n/a	GoodResponse	0	n/a	n/a	0	1	Cue	AvoidedLoss	True
20.577	4.0	Lose2	1.0	0.0	Yes	2.773	0.0	n/a	GoodResponse	0	n/a	n/a	0	1	Fixation	AvoidedLoss	True
24.575	0.39	Lose2	1.0	0.002	Yes	2.773	-0.002	4.0	GoodResponse	0	0.254	23.829	0	1	Target	AvoidedLoss	True
24.829	0.3	Lose2	1.0	0.002	Yes	2.773	-0.002	4.0	GoodResponse	0	0.254	n/a	0	1	ButtonPress	AvoidedLoss	True
24.975	0.31	Lose2	1.0	n/a	Yes	2.773	n/a	n/a	GoodResponse	0	n/a	n/a	0	1	Blank	AvoidedLoss	True
25.275	1.45	Lose2	1.0	n/a	Yes	2.773	n/a	5.0	GoodResponse	0	0.02	24.295	0	1	Feedback	AvoidedLoss	True
26.725	2.773	Lose2	1.0	n/a	Yes	2.773	n/a	n/a	GoodResponse	0	0.0	n/a	0	1	ISIslide	AvoidedLoss	True
29.524	0.25	Control	0.6667000000000001	0.0	No	2.576	0.024	n/a	NoResponse	0	n/a	n/a	0	2	Cue	Neutral	True
29.773	4.1	Control	0.6667000000000001	0.001	No	2.576	-0.001	n/a	NoResponse	0	n/a	n/a	0	2	Fixation	Neutral	True
33.872	0.38	Control	0.6667000000000001	0.002	No	2.576	-0.002	4.0	NoResponse	0	0.444	33.316	0	2	Target	Neutral	True
34.255	0.32	Control	0.6667000000000001	n/a	No	2.576	n/a	n/a	NoResponse	0	n/a	n/a	0	2	Blank	Neutral	True
34.316	0.3	Control	0.6667000000000001	0.002	No	2.576	-0.002	4.0	NoResponse	0	0.444	n/a	0	2	ButtonPress	Neutral	True
34.572	1.45	Control	0.6667000000000001	n/a	No	2.576	n/a	5.0	NoResponse	0	0.04	33.612	0	2	Feedback	Neutral	True
36.021	2.576	Control	0.6667000000000001	n/a	No	2.576	n/a	n/a	NoResponse	0	0.0	n/a	0	2	ISIslide	Neutral	True
38.62	0.25	Win2	0.75	0.0	Yes	2.83	0.02	n/a	GoodResponse	1	n/a	n/a	1	3	Cue	Win	True
38.87	3.95	Win2	0.75	0.0	Yes	2.83	0.0	n/a	GoodResponse	1	n/a	n/a	1	3	Fixation	Win	True
42.819	0.37	Win2	0.75	0.001	Yes	2.83	-0.001	4.0	GoodResponse	1	0.285	42.104	1	3	Target	Win	True
43.104	0.3	Win2	0.75	0.001	Yes	2.83	-0.001	4.0	GoodResponse	1	0.285	n/a	1	3	ButtonPress	Win	True
43.185	0.33	Win2	0.75	n/a	Yes	2.83	n/a	n/a	GoodResponse	1	n/a	n/a	1	3	Blank	Win	True
43.519	1.45	Win2	0.75	n/a	Yes	2.83	n/a	5.0	GoodResponse	1	0.02	42.539	1	3	Feedback	Win	True
44.968	2.83	Win2	0.75	n/a	Yes	2.83	n/a	n/a	GoodResponse	1	0.0	n/a	1	3	ISIslide	Win	True
47.817	0.25	Win2	0.8	0.0	Yes	3.283	0.017	n/a	GoodResponse	1	n/a	n/a	2	4	Cue	Win	True
48.067	4.0	Win2	0.8	0.0	Yes	3.283	0.0	n/a	GoodResponse	1	n/a	n/a	2	4	Fixation	Win	True
52.066	0.36	Win2	0.8	0.001	Yes	3.283	-0.001	4.0	GoodResponse	1	0.195	51.261	2	4	Target	Win	True
52.261	0.3	Win2	0.8	0.001	Yes	3.283	-0.001	4.0	GoodResponse	1	0.195	n/a	2	4	ButtonPress	Win	True
52.432	0.34	Win2	0.8	n/a	Yes	3.283	n/a	n/a	GoodResponse	1	n/a	n/a	2	4	Blank	Win	True
52.765	1.45	Win2	0.8	n/a	Yes	3.283	n/a	5.0	GoodResponse	1	0.041	51.806	2	4	Feedback	Win	True
54.215	3.283	Win2	0.8	n/a	Yes	3.283	n/a	n/a	GoodResponse	1	0.0	n/a	2	4	ISIslide	Win	True
57.514	0.25	Win2	0.8332999999999999	0.0	Yes	2.786	0.014	n/a	GoodResponse	1	n/a	n/a	3	5	Cue	Win	True
57.764	4.0	Win2	0.8332999999999999	0.0	Yes	2.786	0.0	n/a	GoodResponse	1	n/a	n/a	3	5	Fixation	Win	True
61.762	0.35	Win2	0.8332999999999999	0.002	Yes	2.786	-0.002	4.0	GoodResponse	1	0.24	61.002	3	5	Target	Win	True
62.002	0.3	Win2	0.8332999999999999	0.002	Yes	2.786	-0.002	4.0	GoodResponse	1	0.24	n/a	3	5	ButtonPress	Win	True
62.112	0.35	Win2	0.8332999999999999	n/a	Yes	2.786	n/a	n/a	GoodResponse	1	n/a	n/a	3	5	Blank	Win	True
62.462	1.45	Win2	0.8332999999999999	n/a	Yes	2.786	n/a	5.0	GoodResponse	1	0.007	61.469	3	5	Feedback	Win	True
63.912	2.786	Win2	0.8332999999999999	n/a	Yes	2.786	n/a	n/a	GoodResponse	1	0.0	n/a	3	5	ISIslide	Win	True
66.727	0.25	Lose2	0.7143	0.0	No	2.723	0.027	n/a	NoResponse	-1	n/a	n/a	2	6	Cue	Loss	False
66.977	3.95	Lose2	0.7143	0.0	No	2.723	0.0	n/a	NoResponse	-1	n/a	n/a	2	6	Fixation	Loss	False
70.926	0.34	Lose2	0.7143	0.001	No	2.723	-0.001	n/a	NoResponse	-1	n/a	n/a	2	6	Target	Loss	False
71.276	0.36	Lose2	0.7143	n/a	No	2.723	n/a	n/a	NoResponse	-1	n/a	n/a	2	6	Blank	Loss	False
71.626	1.45	Lose2	0.7143	n/a	No	2.723	n/a	5.0	NoResponse	-1	0.01	70.636	2	6	Feedback	Loss	False
73.075	2.723	Lose2	0.7143	n/a	No	2.723	n/a	n/a	NoResponse	-1	0.0	n/a	2	6	ISIslide	Loss	False
75.824	0.25	Lose2	0.75	0.0	Yes	4.026	0.024	n/a	GoodResponse	0	n/a	n/a	2	7	Cue	AvoidedLoss	True
76.074	4.05	Lose2	0.75	0.0	Yes	4.026	0.0	n/a	GoodResponse	0	n/a	n/a	2	7	Fixation	AvoidedLoss	True
80.123	0.33	Lose2	0.75	0.001	Yes	4.026	-0.001	4.0	GoodResponse	0	0.302	79.425	2	7	Target	AvoidedLoss	True
80.425	0.3	Lose2	0.75	0.001	Yes	4.026	-0.001	4.0	GoodResponse	0	0.302	n/a	2	7	ButtonPress	AvoidedLoss	True
80.456	0.37	Lose2	0.75	n/a	Yes	4.026	n/a	n/a	GoodResponse	0	n/a	n/a	2	7	Blank	AvoidedLoss	True
80.822	1.45	Lose2	0.75	n/a	Yes	4.026	n/a	5.0	GoodResponse	0	0.033	79.855	2	7	Feedback	AvoidedLoss	True
82.272	4.026	Lose2	0.75	n/a	Yes	4.026	n/a	n/a	GoodResponse	0	0.0	n/a	2	7	ISIslide	AvoidedLoss	True
86.32	0.25	Lose2	0.7778	0.001	Yes	3.03	0.02	n/a	GoodResponse	0	n/a	n/a	2	8	Cue	AvoidedLoss	True
86.57	3.95	Lose2	0.7778	0.0	Yes	3.03	0.0	n/a	GoodResponse	0	n/a	n/a	2	8	Fixation	AvoidedLoss	True
90.519	0.32	Lose2	0.7778	0.001	Yes	3.03	-0.001	4.0	GoodResponse	0	0.187	89.706	2	8	Target	AvoidedLoss	True
90.706	0.3	Lose2	0.7778	0.001	Yes	3.03	-0.001	4.0	GoodResponse	0	0.187	n/a	2	8	ButtonPress	AvoidedLoss	True
90.836	0.38	Lose2	0.7778	n/a	Yes	3.03	n/a	n/a	GoodResponse	0	n/a	n/a	2	8	Blank	AvoidedLoss	True
91.219	1.45	Lose2	0.7778	n/a	Yes	3.03	n/a	5.0	GoodResponse	0	0.027	90.246	2	8	Feedback	AvoidedLoss	True
92.668	3.03	Lose2	0.7778	n/a	Yes	3.03	n/a	n/a	GoodResponse	0	0.0	n/a	2	8	ISIslide	AvoidedLoss	True
95.717	0.25	Lose2	0.8	0.0	Yes	3.133	0.017	n/a	GoodResponse	0	n/a	n/a	2	9	Cue	AvoidedLoss	True
95.967	3.95	Lose2	0.8	0.0	Yes	3.133	0.0	n/a	GoodResponse	0	n/a	n/a	2	9	Fixation	AvoidedLoss	True
99.916	0.31	Lose2	0.8	0.001	Yes	3.133	-0.001	4.0	GoodResponse	0	0.21	99.126	2	9	Target	AvoidedLoss	True
100.126	0.3	Lose2	0.8	0.001	Yes	3.133	-0.001	4.0	GoodResponse	0	0.21	n/a	2	9	ButtonPress	AvoidedLoss	True
100.232	0.39	Lose2	0.8	n/a	Yes	3.133	n/a	n/a	GoodResponse	0	n/a	n/a	2	9	Blank	AvoidedLoss	True
100.615	1.45	Lose2	0.8	n/a	Yes	3.133	n/a	5.0	GoodResponse	0	0.045	99.66	2	9	Feedback	AvoidedLoss	True
102.065	3.133	Lose2	0.8	n/a	Yes	3.133	n/a	n/a	GoodResponse	0	0.0	n/a	2	9	ISIslide	AvoidedLoss	True
105.214	0.25	Control	0.7273000000000001	0.0	No	3.286	0.014	n/a	NoResponse	0	n/a	n/a	2	10	Cue	Neutral	True
105.464	4.0	Control	0.7273000000000001	0.0	No	3.286	0.0	n/a	NoResponse	0	n/a	n/a	2	10	Fixation	Neutral	True
109.462	0.3	Control	0.7273000000000001	0.002	No	3.286	-0.002	4.0	NoResponse	0	0.523	108.985	2	10	Target	Neutral	True
109.762	0.4	Control	0.7273000000000001	n/a	No	3.286	n/a	n/a	NoResponse	0	n/a	n/a	2	10	Blank	Neutral	True
109.985	0.3	Control	0.7273000000000001	0.002	No	3.286	-0.002	4.0	NoResponse	0	0.523	n/a	2	10	ButtonPress	Neutral	True
110.162	1.45	Control	0.7273000000000001	n/a	No	3.286	n/a	5.0	NoResponse	0	0.01	109.172	2	10	Feedback	Neutral	True
111.612	3.286	Control	0.7273000000000001	n/a	No	3.286	n/a	n/a	NoResponse	0	0.0	n/a	2	10	ISIslide	Neutral	True
114.927	0.25	Lose2	0.6667000000000001	0.0	No	2.723	0.027	n/a	NoResponse	-1	n/a	n/a	1	11	Cue	Loss	True
115.177	4.05	Lose2	0.6667000000000001	0.0	No	2.723	0.0	n/a	NoResponse	-1	n/a	n/a	1	11	Fixation	Loss	True
119.226	0.29	Lose2	0.6667000000000001	0.001	No	2.723	-0.001	4.0	NoResponse	-1	0.319	118.545	1	11	Target	Loss	True
119.526	0.41	Lose2	0.6667000000000001	n/a	No	2.723	n/a	n/a	NoResponse	-1	n/a	n/a	1	11	Blank	Loss	True
119.545	0.3	Lose2	0.6667000000000001	0.001	No	2.723	-0.001	4.0	NoResponse	-1	0.319	n/a	1	11	ButtonPress	Loss	True
119.925	1.45	Lose2	0.6667000000000001	n/a	No	2.723	n/a	5.0	NoResponse	-1	0.006	118.931	1	11	Feedback	Loss	True
121.375	2.723	Lose2	0.6667000000000001	n/a	No	2.723	n/a	n/a	NoResponse	-1	0.0	n/a	1	11	ISIslide	Loss	True
124.124	0.25	Control	0.6923	0.0	Yes	2.976	0.024	n/a	GoodResponse	0	n/a	n/a	1	12	Cue	Neutral	True
124.374	3.9	Control	0.6923	0.0	Yes	2.976	0.0	n/a	GoodResponse	0	n/a	n/a	1	12	Fixation	Neutral	True
128.272	0.28	Control	0.6923	0.002	Yes	2.976	-0.002	4.0	GoodResponse	0	0.185	127.457	1	12	Target	Neutral	True
128.457	0.3	Control	0.6923	0.002	Yes	2.976	-0.002	4.0	GoodResponse	0	0.185	n/a	1	12	ButtonPress	Neutral	True
128.556	0.42	Control	0.6923	n/a	Yes	2.976	n/a	n/a	GoodResponse	0	n/a	n/a	1	12	Blank	Neutral	True
128.972	1.45	Control	0.6923	n/a	Yes	2.976	n/a	5.0	GoodResponse	0	0.029	128.001	1	12	Feedback	Neutral	True
130.422	2.976	Control	0.6923	n/a	Yes	2.976	n/a	n/a	GoodResponse	0	0.0	n/a	1	12	ISIslide	Neutral	True
133.421	0.25	Control	0.7143	0.0	Yes	2.779	0.021	n/a	GoodResponse	0	n/a	n/a	1	13	Cue	Neutral	True
133.671	4.0	Control	0.7143	0.0	Yes	2.779	0.0	n/a	GoodResponse	0	n/a	n/a	1	13	Fixation	Neutral	True
137.669	0.27	Control	0.7143	0.002	Yes	2.779	-0.002	4.0	GoodResponse	0	0.126	136.795	1	13	Target	Neutral	True
137.795	0.3	Control	0.7143	0.002	Yes	2.779	-0.002	4.0	GoodResponse	0	0.126	n/a	1	13	ButtonPress	Neutral	True
137.952	0.43	Control	0.7143	n/a	Yes	2.779	n/a	n/a	GoodResponse	0	n/a	n/a	1	13	Blank	Neutral	True
138.369	1.45	Control	0.7143	n/a	Yes	2.779	n/a	5.0	GoodResponse	0	0.047	137.416	1	13	Feedback	Neutral	True
139.818	2.779	Control	0.7143	n/a	Yes	2.779	n/a	n/a	GoodResponse	0	0.0	n/a	1	13	ISIslide	Neutral	True
142.617	0.25	Win2	0.7333	0.001	Yes	2.683	0.017	n/a	GoodResponse	1	n/a	n/a	2	14	Cue	Win	True
142.867	4.1	Win2	0.7333	0.0	Yes	2.683	0.0	n/a	GoodResponse	1	n/a	n/a	2	14	Fixation	Win	True
146.966	0.26	Win2	0.7333	0.001	Yes	2.683	-0.001	4.0	GoodResponse	1	0.259	146.225	2	14	Target	Win	True
147.225	0.3	Win2	0.7333	0.001	Yes	2.683	-0.001	4.0	GoodResponse	1	0.259	n/a	2	14	ButtonPress	Win	True
147.233	0.44	Win2	0.7333	n/a	Yes	2.683	n/a	n/a	GoodResponse	1	n/a	n/a	2	14	Blank	Win	True
147.666	1.45	Win2	0.7333	n/a	Yes	2.683	n/a	5.0	GoodResponse	1	0.019	146.685	2	14	Feedback	Win	True
149.115	2.683	Win2	0.7333	n/a	Yes	2.683	n/a	n/a	GoodResponse	1	0.0	n/a	2	14	ISIslide	Win	True
151.814	0.25	Control	0.75	0.0	Yes	2.986	0.014	n/a	GoodResponse	0	n/a	n/a	2	15	Cue	Neutral	True
152.064	4.0	Control	0.75	0.0	Yes	2.986	0.0	n/a	GoodResponse	0	n/a	n/a	2	15	Fixation	Neutral	True
156.063	0.25	Control	0.75	0.001	Yes	2.986	-0.001	4.0	GoodResponse	0	0.216	155.279	2	15	Target	Neutral	True
156.279	0.3	Control	0.75	0.001	Yes	2.986	-0.001	4.0	GoodResponse	0	0.216	n/a	2	15	ButtonPress	Neutral	True
156.313	0.45	Control	0.75	n/a	Yes	2.986	n/a	n/a	GoodResponse	0	n/a	n/a	2	15	Blank	Neutral	True
156.763	1.45	Control	0.75	n/a	Yes	2.986	n/a	5.0	GoodResponse	0	0.043	155.806	2	15	Feedback	Neutral	True
158.212	2.986	Control	0.75	n/a	Yes	2.986	n/a	n/a	GoodResponse	0	0.0	n/a	2	15	ISIslide	Neutral	True
161.228	0.25	Win2	0.7059000000000001	0.0	No	2.872	0.028	n/a	NoResponse	0	n/a	n/a	2	16	Cue	MissedWin	False
161.478	4.0	Win2	0.7059000000000001	0.0	No	2.872	0.0	n/a	NoResponse	0	n/a	n/a	2	16	Fixation	MissedWin	False
165.476	0.24	Win2	0.7059000000000001	0.002	No	2.872	-0.002	n/a	NoResponse	0	n/a	n/a	2	16	Target	MissedWin	False
165.726	0.46	Win2	0.7059000000000001	n/a	No	2.872	n/a	n/a	NoResponse	0	n/a	n/a	2	16	Blank	MissedWin	False
166.176	1.45	Win2	0.7059000000000001	n/a	No	2.872	n/a	5.0	NoResponse	0	0.044	165.22	2	16	Feedback	MissedWin	False
167.625	2.872	Win2	0.7059000000000001	n/a	No	2.872	n/a	n/a	NoResponse	0	0.0	n/a	2	16	ISIslide	MissedWin	False
170.524	0.25	Lose2	0.7222	0.0	Yes	2.726	0.024	n/a	GoodResponse	0	n/a	n/a	2	17	Cue	AvoidedLoss	True
170.774	3.95	Lose2	0.7222	0.0	Yes	2.726	0.0	n/a	GoodResponse	0	n/a	n/a	2	17	Fixation	AvoidedLoss	True
174.723	0.23	Lose2	0.7222	0.001	Yes	2.726	-0.001	4.0	GoodResponse	0	0.217	173.94	2	17	Target	AvoidedLoss	True
174.94	0.3	Lose2	0.7222	0.001	Yes	2.726	-0.001	4.0	GoodResponse	0	0.217	n/a	2	17	ButtonPress	AvoidedLoss	True
174.956	0.47	Lose2	0.7222	n/a	Yes	2.726	n/a	n/a	GoodResponse	0	n/a	n/a	2	17	Blank	AvoidedLoss	True
175.423	1.45	Lose2	0.7222	n/a	Yes	2.726	n/a	5.0	GoodResponse	0	0.017	174.44	2	17	Feedback	AvoidedLoss	True
176.872	2.726	Lose2	0.7222	n/a	Yes	2.726	n/a	n/a	GoodResponse	0	0.0	n/a	2	17	ISIslide	AvoidedLoss	True
179.621	0.25	Lose2	0.7368000000000001	0.0	Yes	2.729	0.021	n/a	GoodResponse	0	n/a	n/a	2	18	Cue	AvoidedLoss	True
179.871	4.05	Lose2	0.7368000000000001	0.0	Yes	2.729	0.0	n/a	GoodResponse	0	n/a	n/a	2	18	Fixation	AvoidedLoss	True
183.92	0.22	Lose2	0.7368000000000001	0.001	Yes	2.729	-0.001	4.0	GoodResponse	0	0.197	183.117	2	18	Target	AvoidedLoss	True
184.117	0.3	Lose2	0.7368000000000001	0.001	Yes	2.729	-0.001	4.0	GoodResponse	0	0.197	n/a	2	18	ButtonPress	AvoidedLoss	True
184.153	0.48	Lose2	0.7368000000000001	n/a	Yes	2.729	n/a	n/a	GoodResponse	0	n/a	n/a	2	18	Blank	AvoidedLoss	True
184.619	1.45	Lose2	0.7368000000000001	n/a	Yes	2.729	n/a	5.0	GoodResponse	0	0.041	183.66	2	18	Feedback	AvoidedLoss	True
186.069	2.729	Lose2	0.7368000000000001	n/a	Yes	2.729	n/a	n/a	GoodResponse	0	0.0	n/a	2	18	ISIslide	AvoidedLoss	True
188.818	0.25	Control	0.75	0.0	Yes	2.932	0.018	n/a	GoodResponse	0	n/a	n/a	2	19	Cue	Neutral	True
189.068	3.95	Control	0.75	0.0	Yes	2.932	0.0	n/a	GoodResponse	0	n/a	n/a	2	19	Fixation	Neutral	True
193.017	0.21	Control	0.75	0.001	Yes	2.932	-0.001	4.0	GoodResponse	0	0.192	192.209	2	19	Target	Neutral	True
193.209	0.3	Control	0.75	0.001	Yes	2.932	-0.001	4.0	GoodResponse	0	0.192	n/a	2	19	ButtonPress	Neutral	True
193.233	0.49	Control	0.75	n/a	Yes	2.932	n/a	n/a	GoodResponse	0	n/a	n/a	2	19	Blank	Neutral	True
193.716	1.45	Control	0.75	n/a	Yes	2.932	n/a	5.0	GoodResponse	0	0.017	192.733	2	19	Feedback	Neutral	True
195.166	2.932	Control	0.75	n/a	Yes	2.932	n/a	n/a	GoodResponse	0	0.0	n/a	2	19	ISIslide	Neutral	True
198.115	0.25	Control	0.7619	0.0	Yes	2.635	0.015	n/a	GoodResponse	0	n/a	n/a	2	20	Cue	Neutral	True
198.365	4.05	Control	0.7619	0.0	Yes	2.635	0.0	n/a	GoodResponse	0	n/a	n/a	2	20	Fixation	Neutral	True
202.413	0.2	Control	0.7619	0.002	Yes	2.635	-0.002	4.0	GoodResponse	0	0.19	201.603	2	20	Target	Neutral	True
202.603	0.3	Control	0.7619	0.002	Yes	2.635	-0.002	4.0	GoodResponse	0	0.19	n/a	2	20	ButtonPress	Neutral	True
202.613	0.5	Control	0.7619	n/a	Yes	2.635	n/a	n/a	GoodResponse	0	n/a	n/a	2	20	Blank	Neutral	True
203.113	1.45	Control	0.7619	n/a	Yes	2.635	n/a	5.0	GoodResponse	0	0.034	202.147	2	20	Feedback	Neutral	True
204.563	2.635	Control	0.7619	n/a	Yes	2.635	n/a	n/a	GoodResponse	0	0.0	n/a	2	20	ISIslide	Neutral	True
207.228	0.25	Control	0.7273000000000001	0.0	No	2.772	0.028	n/a	NoResponse	0	n/a	n/a	2	21	Cue	Neutral	False
207.478	4.1	Control	0.7273000000000001	0.0	No	2.772	0.0	n/a	NoResponse	0	n/a	n/a	2	21	Fixation	Neutral	False
211.577	0.19	Control	0.7273000000000001	0.001	No	2.772	-0.001	n/a	NoResponse	0	n/a	n/a	2	21	Target	Neutral	False
211.777	0.51	Control	0.7273000000000001	n/a	No	2.772	n/a	n/a	NoResponse	0	n/a	n/a	2	21	Blank	Neutral	False
212.276	1.45	Control	0.7273000000000001	n/a	No	2.772	n/a	5.0	NoResponse	0	0.042	211.318	2	21	Feedback	Neutral	False
213.726	2.772	Control	0.7273000000000001	n/a	No	2.772	n/a	n/a	NoResponse	0	0.0	n/a	2	21	ISIslide	Neutral	False
216.525	0.25	Control	0.6957	0.0	No	2.775	0.025	n/a	NoResponse	0	n/a	n/a	2	22	Cue	Neutral	True
216.775	4.0	Control	0.6957	0.0	No	2.775	0.0	n/a	NoResponse	0	n/a	n/a	2	22	Fixation	Neutral	True
220.774	0.18	Control	0.6957	0.001	No	2.775	-0.001	4.0	NoResponse	0	0.223	219.997	2	22	Target	Neutral	True
220.957	0.52	Control	0.6957	n/a	No	2.775	n/a	n/a	NoResponse	0	n/a	n/a	2	22	Blank	Neutral	True
220.997	0.3	Control	0.6957	0.001	No	2.775	-0.001	4.0	NoResponse	0	0.223	n/a	2	22	ButtonPress	Neutral	True
221.473	1.45	Control	0.6957	n/a	No	2.775	n/a	5.0	NoResponse	0	0.015	220.488	2	22	Feedback	Neutral	True
222.923	2.775	Control	0.6957	n/a	No	2.775	n/a	n/a	NoResponse	0	0.0	n/a	2	22	ISIslide	Neutral	True
225.722	0.25	Control	0.6667000000000001	0.0	No	2.778	0.022	n/a	NoResponse	0	n/a	n/a	2	23	Cue	Neutral	True
225.972	3.9	Control	0.6667000000000001	0.0	No	2.778	0.0	n/a	NoResponse	0	n/a	n/a	2	23	Fixation	Neutral	True
229.87	0.17	Control	0.6667000000000001	0.002	No	2.778	-0.002	4.0	NoResponse	0	0.192	229.062	2	23	Target	Neutral	True
230.054	0.53	Control	0.6667000000000001	n/a	No	2.778	n/a	n/a	NoResponse	0	n/a	n/a	2	23	Blank	Neutral	True
230.062	0.3	Control	0.6667000000000001	0.002	No	2.778	-0.002	4.0	NoResponse	0	0.192	n/a	2	23	ButtonPress	Neutral	True
230.57	1.45	Control	0.6667000000000001	n/a	No	2.778	n/a	5.0	NoResponse	0	0.04	229.61	2	23	Feedback	Neutral	True
232.02	2.778	Control	0.6667000000000001	n/a	No	2.778	n/a	n/a	NoResponse	0	0.0	n/a	2	23	ISIslide	Neutral	True
234.819	0.25	Win2	0.64	0.0	No	3.131	0.019	n/a	NoResponse	0	n/a	n/a	2	24	Cue	MissedWin	True
235.069	3.95	Win2	0.64	0.0	No	3.131	0.0	n/a	NoResponse	0	n/a	n/a	2	24	Fixation	MissedWin	True
239.017	0.16	Win2	0.64	0.002	No	3.131	-0.002	4.0	NoResponse	0	0.226	238.243	2	24	Target	MissedWin	True
239.184	0.54	Win2	0.64	n/a	No	3.131	n/a	n/a	NoResponse	0	n/a	n/a	2	24	Blank	MissedWin	True
239.243	0.3	Win2	0.64	0.002	No	3.131	-0.002	4.0	NoResponse	0	0.226	n/a	2	24	ButtonPress	MissedWin	True
239.717	1.45	Win2	0.64	n/a	No	3.131	n/a	5.0	NoResponse	0	0.016	238.733	2	24	Feedback	MissedWin	True
241.166	3.131	Win2	0.64	n/a	No	3.131	n/a	n/a	NoResponse	0	0.0	n/a	2	24	ISIslide	MissedWin	True
244.315	0.25	Win2	0.6154	0.0	No	3.085	0.015	n/a	NoResponse	0	n/a	n/a	2	25	Cue	MissedWin	True
244.565	4.0	Win2	0.6154	0.0	No	3.085	0.0	n/a	NoResponse	0	n/a	n/a	2	25	Fixation	MissedWin	True
248.564	0.17	Win2	0.6154	0.001	No	3.085	-0.001	4.0	NoResponse	0	0.227	247.791	2	25	Target	MissedWin	True
248.73	0.53	Win2	0.6154	n/a	No	3.085	n/a	n/a	NoResponse	0	n/a	n/a	2	25	Blank	MissedWin	True
248.791	0.3	Win2	0.6154	0.001	No	3.085	-0.001	4.0	NoResponse	0	0.227	n/a	2	25	ButtonPress	MissedWin	True
249.264	1.45	Win2	0.6154	n/a	No	3.085	n/a	5.0	NoResponse	0	0.029	248.293	2	25	Feedback	MissedWin	True
250.713	3.085	Win2	0.6154	n/a	No	3.085	n/a	n/a	NoResponse	0	0.0	n/a	2	25	ISIslide	MissedWin	True
253.829	0.25	Win2	0.5926	0.0	No	2.921	0.029	n/a	NoResponse	0	n/a	n/a	2	26	Cue	MissedWin	True
254.079	3.95	Win2	0.5926	0.0	No	2.921	0.0	n/a	NoResponse	0	n/a	n/a	2	26	Fixation	MissedWin	True
258.027	0.18	Win2	0.5926	0.002	No	2.921	-0.002	4.0	NoResponse	0	0.219	257.246	2	26	Target	MissedWin	True
258.21	0.52	Win2	0.5926	n/a	No	2.921	n/a	n/a	NoResponse	0	n/a	n/a	2	26	Blank	MissedWin	True
258.246	0.3	Win2	0.5926	0.002	No	2.921	-0.002	4.0	NoResponse	0	0.219	n/a	2	26	ButtonPress	MissedWin	True
258.727	1.45	Win2	0.5926	n/a	No	2.921	n/a	5.0	NoResponse	0	0.029	257.756	2	26	Feedback	MissedWin	True
260.176	2.921	Win2	0.5926	n/a	No	2.921	n/a	n/a	NoResponse	0	0.0	n/a	2	26	ISIslide	MissedWin	True
263.125	0.25	Lose2	0.5714	0.001	No	2.825	0.025	n/a	NoResponse	-1	n/a	n/a	1	27	Cue	Loss	True
263.375	4.05	Lose2	0.5714	0.0	No	2.825	0.0	n/a	NoResponse	-1	n/a	n/a	1	27	Fixation	Loss	True
267.424	0.19	Lose2	0.5714	0.001	No	2.825	-0.001	4.0	NoResponse	-1	0.226	266.65	1	27	Target	Loss	True
267.624	0.51	Lose2	0.5714	n/a	No	2.825	n/a	n/a	NoResponse	-1	n/a	n/a	1	27	Blank	Loss	True
267.65	0.3	Lose2	0.5714	0.001	No	2.825	-0.001	4.0	NoResponse	-1	0.226	n/a	1	27	ButtonPress	Loss	True
268.124	1.45	Lose2	0.5714	n/a	No	2.825	n/a	5.0	NoResponse	-1	0.047	267.171	1	27	Feedback	Loss	True
269.573	2.825	Lose2	0.5714	n/a	No	2.825	n/a	n/a	NoResponse	-1	0.0	n/a	1	27	ISIslide	Loss	True
272.422	0.25	Control	0.5517	0.0	No	2.828	0.022	n/a	NoResponse	0	n/a	n/a	1	28	Cue	Neutral	True
272.672	4.05	Control	0.5517	0.0	No	2.828	0.0	n/a	NoResponse	0	n/a	n/a	1	28	Fixation	Neutral	True
276.721	0.2	Control	0.5517	0.001	No	2.828	-0.001	4.0	NoResponse	0	0.369	276.09	1	28	Target	Neutral	True
276.921	0.5	Control	0.5517	n/a	No	2.828	n/a	n/a	NoResponse	0	n/a	n/a	1	28	Blank	Neutral	True
277.09	0.3	Control	0.5517	0.001	No	2.828	-0.001	4.0	NoResponse	0	0.369	n/a	1	28	ButtonPress	Neutral	True
277.42	1.45	Control	0.5517	n/a	No	2.828	n/a	5.0	NoResponse	0	0.019	276.439	1	28	Feedback	Neutral	True
278.87	2.828	Control	0.5517	n/a	No	2.828	n/a	n/a	NoResponse	0	0.0	n/a	1	28	ISIslide	Neutral	True
281.719	0.25	Lose2	0.5667	0.0	Yes	2.831	0.019	n/a	GoodResponse	0	n/a	n/a	1	29	Cue	AvoidedLoss	True
281.969	3.95	Lose2	0.5667	0.0	Yes	2.831	0.0	n/a	GoodResponse	0	n/a	n/a	1	29	Fixation	AvoidedLoss	True
285.917	0.21	Lose2	0.5667	0.002	Yes	2.831	-0.002	4.0	GoodResponse	0	0.185	285.102	1	29	Target	AvoidedLoss	True
286.102	0.3	Lose2	0.5667	0.002	Yes	2.831	-0.002	4.0	GoodResponse	0	0.185	n/a	1	29	ButtonPress	AvoidedLoss	True
286.134	0.49	Lose2	0.5667	n/a	Yes	2.831	n/a	n/a	GoodResponse	0	n/a	n/a	1	29	Blank	AvoidedLoss	True
286.617	1.45	Lose2	0.5667	n/a	Yes	2.831	n/a	5.0	GoodResponse	0	0.042	285.659	1	29	Feedback	AvoidedLoss	True
288.067	2.831	Lose2	0.5667	n/a	Yes	2.831	n/a	n/a	GoodResponse	0	0.0	n/a	1	29	ISIslide	AvoidedLoss	True
290.916	0.25	Win2	0.5484	0.0	No	2.784	0.016	n/a	NoResponse	0	n/a	n/a	1	30	Cue	MissedWin	True
291.166	3.9	Win2	0.5484	0.0	No	2.784	0.0	n/a	NoResponse	0	n/a	n/a	1	30	Fixation	MissedWin	True
295.064	0.22	Win2	0.5484	0.002	No	2.784	-0.002	4.0	NoResponse	0	0.246	294.31	1	30	Target	MissedWin	True
295.298	0.48	Win2	0.5484	n/a	No	2.784	n/a	n/a	NoResponse	0	n/a	n/a	1	30	Blank	MissedWin	True
295.31	0.3	Win2	0.5484	0.002	No	2.784	-0.002	4.0	NoResponse	0	0.246	n/a	1	30	ButtonPress	MissedWin	True
295.764	1.45	Win2	0.5484	n/a	No	2.784	n/a	5.0	NoResponse	0	0.017	294.781	1	30	Feedback	MissedWin	True
297.214	2.784	Win2	0.5484	n/a	No	2.784	n/a	n/a	NoResponse	0	0.0	n/a	1	30	ISIslide	MissedWin	True
300.029	0.25	Lose2	0.5625	0.0	Yes	2.821	0.029	n/a	GoodResponse	0	n/a	n/a	1	31	Cue	AvoidedLoss	True
300.279	4.05	Lose2	0.5625	0.0	Yes	2.821	0.0	n/a	GoodResponse	0	n/a	n/a	1	31	Fixation	AvoidedLoss	True
304.328	0.23	Lose2	0.5625	0.001	Yes	2.821	-0.001	4.0	GoodResponse	0	0.192	303.52	1	31	Target	AvoidedLoss	True
304.52	0.3	Lose2	0.5625	0.001	Yes	2.821	-0.001	4.0	GoodResponse	0	0.192	n/a	1	31	ButtonPress	AvoidedLoss	True
304.561	0.47	Lose2	0.5625	n/a	Yes	2.821	n/a	n/a	GoodResponse	0	n/a	n/a	1	31	Blank	AvoidedLoss	True
305.027	1.45	Lose2	0.5625	n/a	Yes	2.821	n/a	5.0	GoodResponse	0	0.021	304.048	1	31	Feedback	AvoidedLoss	True
306.477	2.821	Lose2	0.5625	n/a	Yes	2.821	n/a	n/a	GoodResponse	0	0.0	n/a	1	31	ISIslide	AvoidedLoss	True
309.326	0.25	Lose2	0.5758	0.0	Yes	2.624	0.026	n/a	GoodResponse	0	n/a	n/a	1	32	Cue	AvoidedLoss	True
309.576	4.15	Lose2	0.5758	0.0	Yes	2.624	0.0	n/a	GoodResponse	0	n/a	n/a	1	32	Fixation	AvoidedLoss	True
313.724	0.24	Lose2	0.5758	0.002	Yes	2.624	-0.002	4.0	GoodResponse	0	0.173	312.897	1	32	Target	AvoidedLoss	True
313.897	0.3	Lose2	0.5758	0.002	Yes	2.624	-0.002	4.0	GoodResponse	0	0.173	n/a	1	32	ButtonPress	AvoidedLoss	True
313.974	0.46	Lose2	0.5758	n/a	Yes	2.624	n/a	n/a	GoodResponse	0	n/a	n/a	1	32	Blank	AvoidedLoss	True
314.424	1.45	Lose2	0.5758	n/a	Yes	2.624	n/a	5.0	GoodResponse	0	0.039	313.463	1	32	Feedback	AvoidedLoss	True
315.874	2.624	Lose2	0.5758	n/a	Yes	2.624	n/a	n/a	GoodResponse	0	0.0	n/a	1	32	ISIslide	AvoidedLoss	True
318.523	0.25	Win2	0.5882000000000001	0.0	Yes	2.677	0.023	n/a	GoodResponse	1	n/a	n/a	2	33	Cue	Win	True
318.773	4.0	Win2	0.5882000000000001	0.0	Yes	2.677	0.0	n/a	GoodResponse	1	n/a	n/a	2	33	Fixation	Win	True
322.771	0.25	Win2	0.5882000000000001	0.002	Yes	2.677	-0.002	4.0	GoodResponse	1	0.207	321.978	2	33	Target	Win	True
322.978	0.3	Win2	0.5882000000000001	0.002	Yes	2.677	-0.002	4.0	GoodResponse	1	0.207	n/a	2	33	ButtonPress	Win	True
323.021	0.45	Win2	0.5882000000000001	n/a	Yes	2.677	n/a	n/a	GoodResponse	1	n/a	n/a	2	33	Blank	Win	True
323.471	1.45	Win2	0.5882000000000001	n/a	Yes	2.677	n/a	5.0	GoodResponse	1	0.017	322.488	2	33	Feedback	Win	True
324.921	2.677	Win2	0.5882000000000001	n/a	Yes	2.677	n/a	n/a	GoodResponse	1	0.0	n/a	2	33	ISIslide	Win	True
327.62	0.25	Lose2	0.6	0.0	Yes	2.63	0.02	n/a	GoodResponse	0	n/a	n/a	2	34	Cue	AvoidedLoss	True
327.869	4.05	Lose2	0.6	0.001	Yes	2.63	-0.001	n/a	GoodResponse	0	n/a	n/a	2	34	Fixation	AvoidedLoss	True
331.918	0.26	Lose2	0.6	0.002	Yes	2.63	-0.002	4.0	GoodResponse	0	0.202	331.12	2	34	Target	AvoidedLoss	True
332.12	0.3	Lose2	0.6	0.002	Yes	2.63	-0.002	4.0	GoodResponse	0	0.202	n/a	2	34	ButtonPress	AvoidedLoss	True
332.185	0.44	Lose2	0.6	n/a	Yes	2.63	n/a	n/a	GoodResponse	0	n/a	n/a	2	34	Blank	AvoidedLoss	True
332.618	1.45	Lose2	0.6	n/a	Yes	2.63	n/a	5.0	GoodResponse	0	0.041	331.659	2	34	Feedback	AvoidedLoss	True
334.067	2.63	Lose2	0.6	n/a	Yes	2.63	n/a	n/a	GoodResponse	0	0.0	n/a	2	34	ISIslide	AvoidedLoss	True
336.716	0.25	Lose2	0.5832999999999999	0.0	No	2.684	0.016	n/a	NoResponse	-1	n/a	n/a	1	35	Cue	Loss	False
336.966	4.0	Lose2	0.5832999999999999	0.0	No	2.684	0.0	n/a	NoResponse	-1	n/a	n/a	1	35	Fixation	Loss	False
340.965	0.27	Lose2	0.5832999999999999	0.001	No	2.684	-0.001	n/a	NoResponse	-1	n/a	n/a	1	35	Target	Loss	False
341.231	0.43	Lose2	0.5832999999999999	n/a	No	2.684	n/a	n/a	NoResponse	-1	n/a	n/a	1	35	Blank	Loss	False
341.665	1.45	Lose2	0.5832999999999999	n/a	No	2.684	n/a	5.0	NoResponse	-1	0.018	340.683	1	35	Feedback	Loss	False
343.114	2.684	Lose2	0.5832999999999999	n/a	No	2.684	n/a	n/a	NoResponse	-1	0.0	n/a	1	35	ISIslide	Loss	False
345.813	0.25	Control	0.5676	0.0	No	2.687	0.013	n/a	NoResponse	0	n/a	n/a	1	36	Cue	Neutral	True
346.063	4.0	Control	0.5676	0.0	No	2.687	0.0	n/a	NoResponse	0	n/a	n/a	1	36	Fixation	Neutral	True
350.062	0.28	Control	0.5676	0.001	No	2.687	-0.001	4.0	NoResponse	0	0.333	349.395	1	36	Target	Neutral	True
350.345	0.42	Control	0.5676	n/a	No	2.687	n/a	n/a	NoResponse	0	n/a	n/a	1	36	Blank	Neutral	True
350.395	0.3	Control	0.5676	0.001	No	2.687	-0.001	4.0	NoResponse	0	0.333	n/a	1	36	ButtonPress	Neutral	True
350.762	1.45	Control	0.5676	n/a	No	2.687	n/a	5.0	NoResponse	0	0.042	349.804	1	36	Feedback	Neutral	True
352.211	2.687	Control	0.5676	n/a	No	2.687	n/a	n/a	NoResponse	0	0.0	n/a	1	36	ISIslide	Neutral	True
354.927	0.25	Win2	0.5526	0.0	No	2.873	0.027	n/a	NoResponse	0	n/a	n/a	1	37	Cue	MissedWin	True
355.177	4.0	Win2	0.5526	0.0	No	2.873	0.0	n/a	NoResponse	0	n/a	n/a	1	37	Fixation	MissedWin	True
359.175	0.29	Win2	0.5526	0.002	No	2.873	-0.002	4.0	NoResponse	0	0.328	358.503	1	37	Target	MissedWin	True
359.475	0.41	Win2	0.5526	n/a	No	2.873	n/a	n/a	NoResponse	0	n/a	n/a	1	37	Blank	MissedWin	True
359.503	0.3	Win2	0.5526	0.002	No	2.873	-0.002	4.0	NoResponse	0	0.328	n/a	1	37	ButtonPress	MissedWin	True
359.875	1.45	Win2	0.5526	n/a	No	2.873	n/a	5.0	NoResponse	0	0.006	358.881	1	37	Feedback	MissedWin	True
361.324	2.873	Win2	0.5526	n/a	No	2.873	n/a	n/a	NoResponse	0	0.0	n/a	1	37	ISIslide	MissedWin	True
364.223	0.25	Lose2	0.5640999999999999	0.001	Yes	2.827	0.023	n/a	GoodResponse	0	n/a	n/a	1	38	Cue	AvoidedLoss	True
364.473	3.95	Lose2	0.5640999999999999	0.0	Yes	2.827	0.0	n/a	GoodResponse	0	n/a	n/a	1	38	Fixation	AvoidedLoss	True
368.422	0.3	Lose2	0.5640999999999999	0.001	Yes	2.827	-0.001	4.0	GoodResponse	0	0.199	367.621	1	38	Target	AvoidedLoss	True
368.621	0.3	Lose2	0.5640999999999999	0.001	Yes	2.827	-0.001	4.0	GoodResponse	0	0.199	n/a	1	38	ButtonPress	AvoidedLoss	True
368.722	0.4	Lose2	0.5640999999999999	n/a	Yes	2.827	n/a	n/a	GoodResponse	0	n/a	n/a	1	38	Blank	AvoidedLoss	True
369.122	1.45	Lose2	0.5640999999999999	n/a	Yes	2.827	n/a	5.0	GoodResponse	0	0.024	368.146	1	38	Feedback	AvoidedLoss	True
370.571	2.827	Lose2	0.5640999999999999	n/a	Yes	2.827	n/a	n/a	GoodResponse	0	0.0	n/a	1	38	ISIslide	AvoidedLoss	True
373.42	0.25	Win2	0.575	0.0	Yes	2.98	0.02	n/a	GoodResponse	1	n/a	n/a	2	39	Cue	Win	True
373.67	4.1	Win2	0.575	0.0	Yes	2.98	0.0	n/a	GoodResponse	1	n/a	n/a	2	39	Fixation	Win	True
377.769	0.31	Win2	0.575	0.001	Yes	2.98	-0.001	4.0	GoodResponse	1	0.223	376.992	2	39	Target	Win	True
377.992	0.3	Win2	0.575	0.001	Yes	2.98	-0.001	4.0	GoodResponse	1	0.223	n/a	2	39	ButtonPress	Win	True
378.085	0.39	Win2	0.575	n/a	Yes	2.98	n/a	n/a	GoodResponse	1	n/a	n/a	2	39	Blank	Win	True
378.469	1.45	Win2	0.575	n/a	Yes	2.98	n/a	5.0	GoodResponse	1	0.043	377.512	2	39	Feedback	Win	True
379.918	2.98	Win2	0.575	n/a	Yes	2.98	n/a	n/a	GoodResponse	1	0.0	n/a	2	39	ISIslide	Win	True
382.917	0.25	Win2	0.561	0.0	No	2.733	0.017	n/a	NoResponse	0	n/a	n/a	2	40	Cue	MissedWin	False
383.167	3.95	Win2	0.561	0.0	No	2.733	0.0	n/a	NoResponse	0	n/a	n/a	2	40	Fixation	MissedWin	False
387.115	0.32	Win2	0.561	0.002	No	2.733	-0.002	n/a	NoResponse	0	n/a	n/a	2	40	Target	MissedWin	False
387.449	0.38	Win2	0.561	n/a	No	2.733	n/a	n/a	NoResponse	0	n/a	n/a	2	40	Blank	MissedWin	False
387.815	1.45	Win2	0.561	n/a	No	2.733	n/a	5.0	NoResponse	0	0.014	386.829	2	40	Feedback	MissedWin	False
389.265	2.733	Win2	0.561	n/a	No	2.733	n/a	n/a	NoResponse	0	0.0	n/a	2	40	ISIslide	MissedWin	False
392.014	0.25	Win2	0.5714	0.0	Yes	2.786	0.014	n/a	GoodResponse	1	n/a	n/a	3	41	Cue	Win	True
392.264	3.9	Win2	0.5714	0.0	Yes	2.786	0.0	n/a	GoodResponse	1	n/a	n/a	3	41	Fixation	Win	True
396.162	0.33	Win2	0.5714	0.002	Yes	2.786	-0.002	4.0	GoodResponse	1	0.205	395.367	3	41	Target	Win	True
396.367	0.3	Win2	0.5714	0.002	Yes	2.786	-0.002	4.0	GoodResponse	1	0.205	n/a	3	41	ButtonPress	Win	True
396.496	0.37	Win2	0.5714	n/a	Yes	2.786	n/a	n/a	GoodResponse	1	n/a	n/a	3	41	Blank	Win	True
396.862	1.45	Win2	0.5714	n/a	Yes	2.786	n/a	5.0	GoodResponse	1	0.04	395.902	3	41	Feedback	Win	True
398.312	2.786	Win2	0.5714	n/a	Yes	2.786	n/a	n/a	GoodResponse	1	0.0	n/a	3	41	ISIslide	Win	True
401.127	0.25	Control	0.5814	0.0	Yes	2.923	0.027	n/a	GoodResponse	0	n/a	n/a	3	42	Cue	Neutral	True
401.377	3.85	Control	0.5814	0.0	Yes	2.923	0.0	n/a	GoodResponse	0	n/a	n/a	3	42	Fixation	Neutral	True
405.226	0.34	Control	0.5814	0.001	Yes	2.923	-0.001	4.0	GoodResponse	0	0.225	404.451	3	42	Target	Neutral	True
405.451	0.3	Control	0.5814	0.001	Yes	2.923	-0.001	4.0	GoodResponse	0	0.225	n/a	3	42	ButtonPress	Neutral	True
405.576	0.36	Control	0.5814	n/a	Yes	2.923	n/a	n/a	GoodResponse	0	n/a	n/a	3	42	Blank	Neutral	True
405.926	1.45	Control	0.5814	n/a	Yes	2.923	n/a	5.0	GoodResponse	0	0.0	404.926	3	42	Feedback	Neutral	True
407.375	2.923	Control	0.5814	n/a	Yes	2.923	n/a	n/a	GoodResponse	0	0.0	n/a	3	42	ISIslide	Neutral	True
410.324	0.25	Win2	0.5682	0.0	No	3.176	0.024	n/a	LatePress	0	n/a	n/a	3	43	Cue	MissedWin	True
410.574	4.0	Win2	0.5682	0.0	No	3.176	0.0	n/a	LatePress	0	n/a	n/a	3	43	Fixation	MissedWin	True
414.573	0.35	Win2	0.5682	0.001	No	3.176	-0.001	4.0	LatePress	0	0.35	413.923	3	43	Target	MissedWin	True
414.922	0.35	Win2	0.5682	n/a	No	3.176	n/a	n/a	LatePress	0	n/a	n/a	3	43	Blank	MissedWin	True
414.923	0.3	Win2	0.5682	0.001	No	3.176	-0.001	4.0	LatePress	0	0.35	n/a	3	43	ButtonPress	MissedWin	True
415.272	1.45	Win2	0.5682	n/a	No	3.176	n/a	5.0	LatePress	0	0.02	414.292	3	43	Feedback	MissedWin	True
416.722	3.176	Win2	0.5682	n/a	No	3.176	n/a	n/a	LatePress	0	0.0	n/a	3	43	ISIslide	MissedWin	True
419.921	0.25	Win2	0.5778	0.0	Yes	2.979	0.021	n/a	GoodResponse	1	n/a	n/a	4	44	Cue	Win	True
420.171	4.0	Win2	0.5778	0.0	Yes	2.979	0.0	n/a	GoodResponse	1	n/a	n/a	4	44	Fixation	Win	True
424.169	0.36	Win2	0.5778	0.002	Yes	2.979	-0.002	4.0	GoodResponse	1	0.351	423.52	4	44	Target	Win	True
424.52	0.3	Win2	0.5778	0.002	Yes	2.979	-0.002	4.0	GoodResponse	1	0.351	n/a	4	44	ButtonPress	Win	True
424.536	0.34	Win2	0.5778	n/a	Yes	2.979	n/a	n/a	GoodResponse	1	n/a	n/a	4	44	Blank	Win	True
424.869	1.45	Win2	0.5778	n/a	Yes	2.979	n/a	5.0	GoodResponse	1	0.033	423.902	4	44	Feedback	Win	True
426.318	2.979	Win2	0.5778	n/a	Yes	2.979	n/a	n/a	GoodResponse	1	0.0	n/a	4	44	ISIslide	Win	True
429.317	0.25	Control	0.5870000000000001	0.001	Yes	2.883	0.017	n/a	GoodResponse	0	n/a	n/a	4	45	Cue	Neutral	True
429.567	4.1	Control	0.5870000000000001	0.0	Yes	2.883	0.0	n/a	GoodResponse	0	n/a	n/a	4	45	Fixation	Neutral	True
433.666	0.37	Control	0.5870000000000001	0.001	Yes	2.883	-0.001	4.0	GoodResponse	0	0.256	432.922	4	45	Target	Neutral	True
433.922	0.3	Control	0.5870000000000001	0.001	Yes	2.883	-0.001	4.0	GoodResponse	0	0.256	n/a	4	45	ButtonPress	Neutral	True
434.032	0.33	Control	0.5870000000000001	n/a	Yes	2.883	n/a	n/a	GoodResponse	0	n/a	n/a	4	45	Blank	Neutral	True
434.366	1.45	Control	0.5870000000000001	n/a	Yes	2.883	n/a	5.0	GoodResponse	0	0.048	433.414	4	45	Feedback	Neutral	True
435.815	2.883	Control	0.5870000000000001	n/a	Yes	2.883	n/a	n/a	GoodResponse	0	0.0	n/a	4	45	ISIslide	Neutral	True
438.714	0.25	Lose2	0.5957	0.0	Yes	3.386	0.014	n/a	GoodResponse	0	n/a	n/a	4	46	Cue	AvoidedLoss	True
438.964	4.0	Lose2	0.5957	0.0	Yes	3.386	0.0	n/a	GoodResponse	0	n/a	n/a	4	46	Fixation	AvoidedLoss	True
442.963	0.38	Lose2	0.5957	0.001	Yes	3.386	-0.001	4.0	GoodResponse	0	0.228	442.191	4	46	Target	AvoidedLoss	True
443.191	0.3	Lose2	0.5957	0.001	Yes	3.386	-0.001	4.0	GoodResponse	0	0.228	n/a	4	46	ButtonPress	AvoidedLoss	True
443.346	0.32	Lose2	0.5957	n/a	Yes	3.386	n/a	n/a	GoodResponse	0	n/a	n/a	4	46	Blank	AvoidedLoss	True
443.662	1.45	Lose2	0.5957	n/a	Yes	3.386	n/a	5.0	GoodResponse	0	0.02	442.682	4	46	Feedback	AvoidedLoss	True
445.112	3.386	Lose2	0.5957	n/a	Yes	3.386	n/a	n/a	GoodResponse	0	0.0	n/a	4	46	ISIslide	AvoidedLoss	True
448.527	0.25	Lose2	0.5832999999999999	0.0	No	2.673	0.027	n/a	NoResponse	-1	n/a	n/a	3	47	Cue	Loss	False
448.777	4.0	Lose2	0.5832999999999999	0.0	No	2.673	0.0	n/a	NoResponse	-1	n/a	n/a	3	47	Fixation	Loss	False
452.776	0.39	Lose2	0.5832999999999999	0.001	No	2.673	-0.001	n/a	NoResponse	-1	n/a	n/a	3	47	Target	Loss	False
453.176	0.31	Lose2	0.5832999999999999	n/a	No	2.673	n/a	n/a	NoResponse	-1	n/a	n/a	3	47	Blank	Loss	False
453.476	1.45	Lose2	0.5832999999999999	n/a	No	2.673	n/a	5.0	NoResponse	-1	0.01	452.486	3	47	Feedback	Loss	False
454.925	2.673	Lose2	0.5832999999999999	n/a	No	2.673	n/a	n/a	NoResponse	-1	0.0	n/a	3	47	ISIslide	Loss	False
457.624	0.25	Lose2	0.5714	0.0	No	3.026	0.024	n/a	NoResponse	-1	n/a	n/a	2	48	Cue	Loss	False
457.874	3.95	Lose2	0.5714	0.0	No	3.026	0.0	n/a	NoResponse	-1	n/a	n/a	2	48	Fixation	Loss	False
461.823	0.4	Lose2	0.5714	0.001	No	3.026	-0.001	n/a	NoResponse	-1	n/a	n/a	2	48	Target	Loss	False
462.223	0.3	Lose2	0.5714	n/a	No	3.026	n/a	n/a	NoResponse	-1	n/a	n/a	2	48	Blank	Loss	False
462.523	1.45	Lose2	0.5714	n/a	No	3.026	n/a	5.0	NoResponse	-1	0.037	461.56	2	48	Feedback	Loss	False
463.972	3.026	Lose2	0.5714	n/a	No	3.026	n/a	n/a	NoResponse	-1	0.0	n/a	2	48	ISIslide	Loss	False
467.021	0.25	Control	0.58	0.0	Yes	2.879	0.021	n/a	GoodResponse	0	n/a	n/a	2	49	Cue	Neutral	True
467.271	4.0	Control	0.58	0.0	Yes	2.879	0.0	n/a	GoodResponse	0	n/a	n/a	2	49	Fixation	Neutral	True
471.269	0.41	Control	0.58	0.002	Yes	2.879	-0.002	4.0	GoodResponse	0	0.211	470.48	2	49	Target	Neutral	True
471.48	0.3	Control	0.58	0.002	Yes	2.879	-0.002	4.0	GoodResponse	0	0.211	n/a	2	49	ButtonPress	Neutral	True
471.686	0.29	Control	0.58	n/a	Yes	2.879	n/a	n/a	GoodResponse	0	n/a	n/a	2	49	Blank	Neutral	True
471.969	1.45	Control	0.58	n/a	Yes	2.879	n/a	5.0	GoodResponse	0	0.007	470.976	2	49	Feedback	Neutral	True
473.419	2.879	Control	0.58	n/a	Yes	2.879	n/a	n/a	GoodResponse	0	0.0	n/a	2	49	ISIslide	Neutral	True
476.318	0.25	Control	0.5882000000000001	0.0	Yes	2.782	0.018	n/a	GoodResponse	0	n/a	n/a	2	50	Cue	Neutral	True
476.568	4.0	Control	0.5882000000000001	0.0	Yes	2.782	0.0	n/a	GoodResponse	0	n/a	n/a	2	50	Fixation	Neutral	True
480.566	0.42	Control	0.5882000000000001	0.002	Yes	2.782	-0.002	4.0	GoodResponse	0	0.2	479.766	2	50	Target	Neutral	True
480.766	0.3	Control	0.5882000000000001	0.002	Yes	2.782	-0.002	4.0	GoodResponse	0	0.2	n/a	2	50	ButtonPress	Neutral	True
480.999	0.28	Control	0.5882000000000001	n/a	Yes	2.782	n/a	n/a	GoodResponse	0	n/a	n/a	2	50	Blank	Neutral	True
481.266	1.45	Control	0.5882000000000001	n/a	Yes	2.782	n/a	5.0	GoodResponse	0	0.026	480.292	2	50	Feedback	Neutral	True
482.715	2.782	Control	0.5882000000000001	n/a	Yes	2.782	n/a	n/a	GoodResponse	0	0.0	n/a	2	50	ISIslide	Neutral	True
485.515	0.25	Control	0.5962	0.0	Yes	2.735	0.015	n/a	GoodResponse	0	n/a	n/a	2	51	Cue	Neutral	True
485.764	3.95	Control	0.5962	0.001	Yes	2.735	-0.001	n/a	GoodResponse	0	n/a	n/a	2	51	Fixation	Neutral	True
489.713	0.43	Control	0.5962	0.002	Yes	2.735	-0.002	4.0	GoodResponse	0	0.194	488.907	2	51	Target	Neutral	True
489.907	0.3	Control	0.5962	0.002	Yes	2.735	-0.002	4.0	GoodResponse	0	0.194	n/a	2	51	ButtonPress	Neutral	True
490.146	0.27	Control	0.5962	n/a	Yes	2.735	n/a	n/a	GoodResponse	0	n/a	n/a	2	51	Blank	Neutral	True
490.413	1.45	Control	0.5962	n/a	Yes	2.735	n/a	5.0	GoodResponse	0	0.001	489.414	2	51	Feedback	Neutral	True
491.862	2.735	Control	0.5962	n/a	Yes	2.735	n/a	n/a	GoodResponse	0	0.0	n/a	2	51	ISIslide	Neutral	True
494.611	0.25	Control	0.5849	0.0	No	2.639	0.011	n/a	PrematurePress	0	n/a	n/a	2	52	Cue	Neutral	True
494.861	4.05	Control	0.5849	0.0	No	2.639	0.0	n/a	PrematurePress	0	n/a	n/a	2	52	Fixation	Neutral	True
498.91	0.44	Control	0.5849	0.001	No	2.639	-0.001	4.0	PrematurePress	0	0.036	497.946	2	52	Target	Neutral	True
498.946	0.3	Control	0.5849	0.001	No	2.639	-0.001	4.0	PrematurePress	0	0.036	n/a	2	52	ButtonPress	Neutral	True
499.36	0.26	Control	0.5849	n/a	No	2.639	n/a	n/a	PrematurePress	0	n/a	n/a	2	52	Blank	Neutral	True
499.61	1.45	Control	0.5849	n/a	No	2.639	n/a	5.0	PrematurePress	0	0.023	498.633	2	52	Feedback	Neutral	True
501.059	2.639	Control	0.5849	n/a	No	2.639	n/a	n/a	PrematurePress	0	0.0	n/a	2	52	ISIslide	Neutral	True
503.725	0.25	Win2	0.5926	0.0	Yes	2.925	0.025	n/a	GoodResponse	1	n/a	n/a	3	53	Cue	Win	True
503.975	4.05	Win2	0.5926	0.0	Yes	2.925	0.0	n/a	GoodResponse	1	n/a	n/a	3	53	Fixation	Win	True
508.023	0.45	Win2	0.5926	0.002	Yes	2.925	-0.002	4.0	GoodResponse	1	0.217	507.24	3	53	Target	Win	True
508.24	0.3	Win2	0.5926	0.002	Yes	2.925	-0.002	4.0	GoodResponse	1	0.217	n/a	3	53	ButtonPress	Win	True
508.473	0.25	Win2	0.5926	n/a	Yes	2.925	n/a	n/a	GoodResponse	1	n/a	n/a	3	53	Blank	Win	True
508.723	1.45	Win2	0.5926	n/a	Yes	2.925	n/a	5.0	GoodResponse	1	0.032	507.755	3	53	Feedback	Win	True
510.173	2.925	Win2	0.5926	n/a	Yes	2.925	n/a	n/a	GoodResponse	1	0.0	n/a	3	53	ISIslide	Win	True
513.122	0.25	Win2	0.6	0.0	Yes	2.728	0.022	n/a	GoodResponse	1	n/a	n/a	4	54	Cue	Win	True
513.371	3.95	Win2	0.6	0.001	Yes	2.728	-0.001	n/a	GoodResponse	1	n/a	n/a	4	54	Fixation	Win	True
517.32	0.46	Win2	0.6	0.002	Yes	2.728	-0.002	4.0	GoodResponse	1	0.41	516.73	4	54	Target	Win	True
517.73	0.3	Win2	0.6	0.002	Yes	2.728	-0.002	4.0	GoodResponse	1	0.41	n/a	4	54	ButtonPress	Win	True
517.787	0.24	Win2	0.6	n/a	Yes	2.728	n/a	n/a	GoodResponse	1	n/a	n/a	4	54	Blank	Win	True
518.02	1.45	Win2	0.6	n/a	Yes	2.728	n/a	5.0	GoodResponse	1	0.005	517.025	4	54	Feedback	Win	True
519.469	2.728	Win2	0.6	n/a	Yes	2.728	n/a	n/a	GoodResponse	1	0.0	n/a	4	54	ISIslide	Win	True
522.218	0.25	Control	0.5893	0.0	No	3.032	0.018	n/a	NoResponse	0	n/a	n/a	4	55	Cue	Neutral	False
522.468	3.95	Control	0.5893	0.0	No	3.032	0.0	n/a	NoResponse	0	n/a	n/a	4	55	Fixation	Neutral	False
526.417	0.47	Control	0.5893	0.001	No	3.032	-0.001	n/a	NoResponse	0	n/a	n/a	4	55	Target	Neutral	False
526.883	0.23	Control	0.5893	n/a	No	3.032	n/a	n/a	NoResponse	0	n/a	n/a	4	55	Blank	Neutral	False
527.117	1.45	Control	0.5893	n/a	No	3.032	n/a	5.0	NoResponse	0	0.028	526.145	4	55	Feedback	Neutral	False
528.566	3.032	Control	0.5893	n/a	No	3.032	n/a	n/a	NoResponse	0	0.0	n/a	4	55	ISIslide	Neutral	False
531.615	0.25	Control	0.5965	0.0	Yes	2.835	0.015	n/a	GoodResponse	0	n/a	n/a	4	56	Cue	Neutral	True
531.865	3.95	Control	0.5965	0.0	Yes	2.835	0.0	n/a	GoodResponse	0	n/a	n/a	4	56	Fixation	Neutral	True
535.814	0.48	Control	0.5965	0.001	Yes	2.835	-0.001	4.0	GoodResponse	0	0.198	535.012	4	56	Target	Neutral	True
536.012	0.3	Control	0.5965	0.001	Yes	2.835	-0.001	4.0	GoodResponse	0	0.198	n/a	4	56	ButtonPress	Neutral	True
536.297	0.22	Control	0.5965	n/a	Yes	2.835	n/a	n/a	GoodResponse	0	n/a	n/a	4	56	Blank	Neutral	True
536.513	1.45	Control	0.5965	n/a	Yes	2.835	n/a	5.0	GoodResponse	0	0.047	535.56	4	56	Feedback	Neutral	True
537.963	2.835	Control	0.5965	n/a	Yes	2.835	n/a	n/a	GoodResponse	0	0.0	n/a	4	56	ISIslide	Neutral	True
540.812	0.25	Control	0.6034	0.0	Yes	3.488	0.012	n/a	GoodResponse	0	n/a	n/a	4	57	Cue	Neutral	True
541.062	4.0	Control	0.6034	0.0	Yes	3.488	0.0	n/a	GoodResponse	0	n/a	n/a	4	57	Fixation	Neutral	True
545.06	0.49	Control	0.6034	0.002	Yes	3.488	-0.002	4.0	GoodResponse	0	0.237	544.297	4	57	Target	Neutral	True
545.297	0.3	Control	0.6034	0.002	Yes	3.488	-0.002	4.0	GoodResponse	0	0.237	n/a	4	57	ButtonPress	Neutral	True
545.56	0.21	Control	0.6034	n/a	Yes	3.488	n/a	n/a	GoodResponse	0	n/a	n/a	4	57	Blank	Neutral	True
545.76	1.45	Control	0.6034	n/a	Yes	3.488	n/a	5.0	GoodResponse	0	0.019	544.779	4	57	Feedback	Neutral	True
547.21	3.488	Control	0.6034	n/a	Yes	3.488	n/a	n/a	GoodResponse	0	0.0	n/a	4	57	ISIslide	Neutral	True
550.725	0.25	Win2	0.5932	0.0	No	2.725	0.025	n/a	NoResponse	0	n/a	n/a	4	58	Cue	MissedWin	True
550.975	4.05	Win2	0.5932	0.0	No	2.725	0.0	n/a	NoResponse	0	n/a	n/a	4	58	Fixation	MissedWin	True
555.024	0.5	Win2	0.5932	0.001	No	2.725	-0.001	4.0	NoResponse	0	0.556	554.58	4	58	Target	MissedWin	True
555.523	0.2	Win2	0.5932	n/a	No	2.725	n/a	n/a	NoResponse	0	n/a	n/a	4	58	Blank	MissedWin	True
555.58	0.3	Win2	0.5932	0.001	No	2.725	-0.001	4.0	NoResponse	0	0.556	n/a	4	58	ButtonPress	MissedWin	True
555.723	1.45	Win2	0.5932	n/a	No	2.725	n/a	5.0	NoResponse	0	0.007	554.73	4	58	Feedback	MissedWin	True
557.173	2.725	Win2	0.5932	n/a	No	2.725	n/a	n/a	NoResponse	0	0.0	n/a	4	58	ISIslide	MissedWin	True
559.922	0.25	Lose2	0.6	0.0	Yes	2.678	0.022	n/a	GoodResponse	0	n/a	n/a	4	59	Cue	AvoidedLoss	True
560.172	4.0	Lose2	0.6	0.0	Yes	2.678	0.0	n/a	GoodResponse	0	n/a	n/a	4	59	Fixation	AvoidedLoss	True
564.17	0.5	Lose2	0.6	0.002	Yes	2.678	-0.002	4.0	GoodResponse	0	0.264	563.434	4	59	Target	AvoidedLoss	True
564.434	0.3	Lose2	0.6	0.002	Yes	2.678	-0.002	4.0	GoodResponse	0	0.264	n/a	4	59	ButtonPress	AvoidedLoss	True
564.67	0.2	Lose2	0.6	n/a	Yes	2.678	n/a	n/a	GoodResponse	0	n/a	n/a	4	59	Blank	AvoidedLoss	True
564.87	1.45	Lose2	0.6	n/a	Yes	2.678	n/a	5.0	GoodResponse	0	0.031	563.901	4	59	Feedback	AvoidedLoss	True
566.32	2.678	Lose2	0.6	n/a	Yes	2.678	n/a	n/a	GoodResponse	0	0.0	n/a	4	59	ISIslide	AvoidedLoss	True
569.019	0.25	Control	0.6065999999999999	0.0	Yes	2.681	0.019	n/a	GoodResponse	0	n/a	n/a	4	60	Cue	Neutral	True
569.269	4.0	Control	0.6065999999999999	0.0	Yes	2.681	0.0	n/a	GoodResponse	0	n/a	n/a	4	60	Fixation	Neutral	True
573.267	0.5	Control	0.6065999999999999	0.002	Yes	2.681	-0.002	4.0	GoodResponse	0	0.233	572.5	4	60	Target	Neutral	True
573.5	0.3	Control	0.6065999999999999	0.002	Yes	2.681	-0.002	4.0	GoodResponse	0	0.233	n/a	4	60	ButtonPress	Neutral	True
573.767	0.2	Control	0.6065999999999999	n/a	Yes	2.681	n/a	n/a	GoodResponse	0	n/a	n/a	4	60	Blank	Neutral	True
573.967	1.45	Control	0.6065999999999999	n/a	Yes	2.681	n/a	5.0	GoodResponse	0	0.007	572.974	4	60	Feedback	Neutral	True
575.416	2.681	Control	0.6065999999999999	n/a	Yes	2.681	n/a	n/a	GoodResponse	0	0.0	n/a	4	60	ISIslide	Neutral	True
578.116	0.25	Lose2	0.6129	0.0	Yes	2.984	0.016	n/a	GoodResponse	0	n/a	n/a	4	61	Cue	AvoidedLoss	True
578.365	4.0	Lose2	0.6129	0.001	Yes	2.984	-0.001	n/a	GoodResponse	0	n/a	n/a	4	61	Fixation	AvoidedLoss	True
582.364	0.5	Lose2	0.6129	0.002	Yes	2.984	-0.002	4.0	GoodResponse	0	0.194	581.558	4	61	Target	AvoidedLoss	True
582.558	0.3	Lose2	0.6129	0.002	Yes	2.984	-0.002	4.0	GoodResponse	0	0.194	n/a	4	61	ButtonPress	AvoidedLoss	True
582.864	0.2	Lose2	0.6129	n/a	Yes	2.984	n/a	n/a	GoodResponse	0	n/a	n/a	4	61	Blank	AvoidedLoss	True
583.064	1.45	Lose2	0.6129	n/a	Yes	2.984	n/a	5.0	GoodResponse	0	0.032	582.096	4	61	Feedback	AvoidedLoss	True
584.513	2.984	Lose2	0.6129	n/a	Yes	2.984	n/a	n/a	GoodResponse	0	0.0	n/a	4	61	ISIslide	AvoidedLoss	True
587.512	0.25	Lose2	0.619	0.0	Yes	2.888	0.012	n/a	GoodResponse	0	n/a	n/a	4	62	Cue	AvoidedLoss	True
587.762	3.9	Lose2	0.619	0.0	Yes	2.888	0.0	n/a	GoodResponse	0	n/a	n/a	4	62	Fixation	AvoidedLoss	True
591.661	0.5	Lose2	0.619	0.001	Yes	2.888	-0.001	4.0	GoodResponse	0	0.207	590.868	4	62	Target	AvoidedLoss	True
591.868	0.3	Lose2	0.619	0.001	Yes	2.888	-0.001	4.0	GoodResponse	0	0.207	n/a	4	62	ButtonPress	AvoidedLoss	True
592.161	0.2	Lose2	0.619	n/a	Yes	2.888	n/a	n/a	GoodResponse	0	n/a	n/a	4	62	Blank	AvoidedLoss	True
592.361	1.45	Lose2	0.619	n/a	Yes	2.888	n/a	5.0	GoodResponse	0	0.004	591.365	4	62	Feedback	AvoidedLoss	True
593.81	2.888	Lose2	0.619	n/a	Yes	2.888	n/a	n/a	GoodResponse	0	0.0	n/a	4	62	ISIslide	AvoidedLoss	True
596.726	0.25	Lose2	0.625	0.0	Yes	2.624	0.026	n/a	GoodResponse	0	n/a	n/a	4	63	Cue	AvoidedLoss	True
596.976	4.05	Lose2	0.625	0.0	Yes	2.624	0.0	n/a	GoodResponse	0	n/a	n/a	4	63	Fixation	AvoidedLoss	True
601.024	0.5	Lose2	0.625	0.002	Yes	2.624	-0.002	4.0	GoodResponse	0	0.336	600.36	4	63	Target	AvoidedLoss	True
601.36	0.3	Lose2	0.625	0.002	Yes	2.624	-0.002	4.0	GoodResponse	0	0.336	n/a	4	63	ButtonPress	AvoidedLoss	True
601.524	0.2	Lose2	0.625	n/a	Yes	2.624	n/a	n/a	GoodResponse	0	n/a	n/a	4	63	Blank	AvoidedLoss	True
601.724	1.45	Lose2	0.625	n/a	Yes	2.624	n/a	5.0	GoodResponse	0	0.006	600.73	4	63	Feedback	AvoidedLoss	True
603.173	2.624	Lose2	0.625	n/a	Yes	2.624	n/a	n/a	GoodResponse	0	0.0	n/a	4	63	ISIslide	AvoidedLoss	True
605.823	0.25	Win2	0.6154	0.0	No	3.127	0.023	n/a	NoResponse	0	n/a	n/a	4	64	Cue	MissedWin	False
606.072	4.15	Win2	0.6154	0.001	No	3.127	-0.001	n/a	NoResponse	0	n/a	n/a	4	64	Fixation	MissedWin	False
610.221	0.5	Win2	0.6154	0.002	No	3.127	-0.002	n/a	NoResponse	0	n/a	n/a	4	64	Target	MissedWin	False
610.721	0.2	Win2	0.6154	n/a	No	3.127	n/a	n/a	NoResponse	0	n/a	n/a	4	64	Blank	MissedWin	False
610.921	1.45	Win2	0.6154	n/a	No	3.127	n/a	5.0	NoResponse	0	0.028	609.949	4	64	Feedback	MissedWin	False
612.37	3.127	Win2	0.6154	n/a	No	3.127	n/a	n/a	NoResponse	0	0.0	n/a	4	64	ISIslide	MissedWin	False
615.519	0.25	Control	0.6212	0.0	Yes	2.781	0.019	n/a	GoodResponse	0	n/a	n/a	4	65	Cue	Neutral	True
615.769	4.0	Control	0.6212	0.0	Yes	2.781	0.0	n/a	GoodResponse	0	n/a	n/a	4	65	Fixation	Neutral	True
619.768	0.5	Control	0.6212	0.001	Yes	2.781	-0.001	4.0	GoodResponse	0	0.184	618.952	4	65	Target	Neutral	True
619.952	0.3	Control	0.6212	0.001	Yes	2.781	-0.001	4.0	GoodResponse	0	0.184	n/a	4	65	ButtonPress	Neutral	True
620.267	0.2	Control	0.6212	n/a	Yes	2.781	n/a	n/a	GoodResponse	0	n/a	n/a	4	65	Blank	Neutral	True
620.467	1.45	Control	0.6212	n/a	Yes	2.781	n/a	5.0	GoodResponse	0	0.043	619.51	4	65	Feedback	Neutral	True
621.917	2.781	Control	0.6212	n/a	Yes	2.781	n/a	n/a	GoodResponse	0	0.0	n/a	4	65	ISIslide	Neutral	True
624.716	0.25	Win2	0.6269	0.0	Yes	2.784	0.016	n/a	GoodResponse	1	n/a	n/a	5	66	Cue	Win	True
624.966	3.9	Win2	0.6269	0.0	Yes	2.784	0.0	n/a	GoodResponse	1	n/a	n/a	5	66	Fixation	Win	True
628.864	0.5	Win2	0.6269	0.002	Yes	2.784	-0.002	4.0	GoodResponse	1	0.409	628.273	5	66	Target	Win	True
629.273	0.3	Win2	0.6269	0.002	Yes	2.784	-0.002	4.0	GoodResponse	1	0.409	n/a	5	66	ButtonPress	Win	True
629.364	0.2	Win2	0.6269	n/a	Yes	2.784	n/a	n/a	GoodResponse	1	n/a	n/a	5	66	Blank	Win	True
629.564	1.45	Win2	0.6269	n/a	Yes	2.784	n/a	5.0	GoodResponse	1	0.019	628.583	5	66	Feedback	Win	True
631.014	2.784	Win2	0.6269	n/a	Yes	2.784	n/a	n/a	GoodResponse	1	0.0	n/a	5	66	ISIslide	Win	True
633.813	0.25	Control	0.6324000000000001	0.0	Yes	2.737	0.013	n/a	GoodResponse	0	n/a	n/a	5	67	Cue	Neutral	True
634.063	3.95	Control	0.6324000000000001	0.0	Yes	2.737	0.0	n/a	GoodResponse	0	n/a	n/a	5	67	Fixation	Neutral	True
638.011	0.5	Control	0.6324000000000001	0.002	Yes	2.737	-0.002	4.0	GoodResponse	0	0.206	637.217	5	67	Target	Neutral	True
638.217	0.3	Control	0.6324000000000001	0.002	Yes	2.737	-0.002	4.0	GoodResponse	0	0.206	n/a	5	67	ButtonPress	Neutral	True
638.511	0.2	Control	0.6324000000000001	n/a	Yes	2.737	n/a	n/a	GoodResponse	0	n/a	n/a	5	67	Blank	Neutral	True
638.711	1.45	Control	0.6324000000000001	n/a	Yes	2.737	n/a	5.0	GoodResponse	0	0.043	637.754	5	67	Feedback	Neutral	True
640.161	2.737	Control	0.6324000000000001	n/a	Yes	2.737	n/a	n/a	GoodResponse	0	0.0	n/a	5	67	ISIslide	Neutral	True
642.926	0.25	Win2	0.6377	0.0	Yes	3.074	0.026	n/a	GoodResponse	1	n/a	n/a	6	68	Cue	Win	True
643.176	4.0	Win2	0.6377	0.0	Yes	3.074	0.0	n/a	GoodResponse	1	n/a	n/a	6	68	Fixation	Win	True
647.175	0.5	Win2	0.6377	0.001	Yes	3.074	-0.001	4.0	GoodResponse	1	0.289	646.464	6	68	Target	Win	True
647.464	0.3	Win2	0.6377	0.001	Yes	3.074	-0.001	4.0	GoodResponse	1	0.289	n/a	6	68	ButtonPress	Win	True
647.675	0.2	Win2	0.6377	n/a	Yes	3.074	n/a	n/a	GoodResponse	1	n/a	n/a	6	68	Blank	Win	True
647.875	1.45	Win2	0.6377	n/a	Yes	3.074	n/a	5.0	GoodResponse	1	0.001	646.876	6	68	Feedback	Win	True
649.324	3.074	Win2	0.6377	n/a	Yes	3.074	n/a	n/a	GoodResponse	1	0.0	n/a	6	68	ISIslide	Win	True
652.423	0.25	Win2	0.6429	0.0	Yes	3.227	0.023	n/a	GoodResponse	1	n/a	n/a	7	69	Cue	Win	True
652.673	3.95	Win2	0.6429	0.0	Yes	3.227	0.0	n/a	GoodResponse	1	n/a	n/a	7	69	Fixation	Win	True
656.621	0.5	Win2	0.6429	0.002	Yes	3.227	-0.002	4.0	GoodResponse	1	0.236	655.857	7	69	Target	Win	True
656.857	0.3	Win2	0.6429	0.002	Yes	3.227	-0.002	4.0	GoodResponse	1	0.236	n/a	7	69	ButtonPress	Win	True
657.121	0.2	Win2	0.6429	n/a	Yes	3.227	n/a	n/a	GoodResponse	1	n/a	n/a	7	69	Blank	Win	True
657.321	1.45	Win2	0.6429	n/a	Yes	3.227	n/a	5.0	GoodResponse	1	0.018	656.339	7	69	Feedback	Win	True
658.771	3.227	Win2	0.6429	n/a	Yes	3.227	n/a	n/a	GoodResponse	1	0.0	n/a	7	69	ISIslide	Win	True
662.02	0.25	Lose2	0.6338	0.0	No	3.03	0.02	n/a	NoResponse	-1	n/a	n/a	6	70	Cue	Loss	False
662.27	4.05	Lose2	0.6338	0.0	No	3.03	0.0	n/a	NoResponse	-1	n/a	n/a	6	70	Fixation	Loss	False
666.318	0.5	Lose2	0.6338	0.002	No	3.03	-0.002	n/a	NoResponse	-1	n/a	n/a	6	70	Target	Loss	False
666.818	0.2	Lose2	0.6338	n/a	No	3.03	n/a	n/a	NoResponse	-1	n/a	n/a	6	70	Blank	Loss	False
667.018	1.45	Lose2	0.6338	n/a	No	3.03	n/a	5.0	NoResponse	-1	0.028	666.046	6	70	Feedback	Loss	False
668.467	3.03	Lose2	0.6338	n/a	No	3.03	n/a	n/a	NoResponse	-1	0.0	n/a	6	70	ISIslide	Loss	False
671.516	0.25	Win2	0.6389	0.0	Yes	2.734	0.016	n/a	GoodResponse	1	n/a	n/a	7	71	Cue	Win	True
671.766	4.05	Win2	0.6389	0.0	Yes	2.734	0.0	n/a	GoodResponse	1	n/a	n/a	7	71	Fixation	Win	True
675.815	0.5	Win2	0.6389	0.001	Yes	2.734	-0.001	4.0	GoodResponse	1	0.229	675.044	7	71	Target	Win	True
676.044	0.3	Win2	0.6389	0.001	Yes	2.734	-0.001	4.0	GoodResponse	1	0.229	n/a	7	71	ButtonPress	Win	True
676.315	0.2	Win2	0.6389	n/a	Yes	2.734	n/a	n/a	GoodResponse	1	n/a	n/a	7	71	Blank	Win	True
676.515	1.45	Win2	0.6389	n/a	Yes	2.734	n/a	5.0	GoodResponse	1	0.044	675.559	7	71	Feedback	Win	True
677.964	2.734	Win2	0.6389	n/a	Yes	2.734	n/a	n/a	GoodResponse	1	0.0	n/a	7	71	ISIslide	Win	True
680.713	0.25	Win2	0.6301	0.0	No	2.787	0.013	n/a	NoResponse	0	n/a	n/a	7	72	Cue	MissedWin	False
680.963	4.1	Win2	0.6301	0.0	No	2.787	0.0	n/a	NoResponse	0	n/a	n/a	7	72	Fixation	MissedWin	False
685.062	0.5	Win2	0.6301	0.001	No	2.787	-0.001	n/a	NoResponse	0	n/a	n/a	7	72	Target	MissedWin	False
685.561	0.2	Win2	0.6301	n/a	No	2.787	n/a	n/a	NoResponse	0	n/a	n/a	7	72	Blank	MissedWin	False
685.761	1.45	Win2	0.6301	n/a	No	2.787	n/a	5.0	NoResponse	0	0.017	684.778	7	72	Feedback	MissedWin	False
687.211	2.787	Win2	0.6301	n/a	No	2.787	n/a	n/a	NoResponse	0	0.0	n/a	7	72	ISIslide	MissedWin	False
690.026	0.25	Win2	0.6215999999999999	0.001	No	2.674	0.026	n/a	NoResponse	0	n/a	n/a	7	73	Cue	MissedWin	False
690.276	4.0	Win2	0.6215999999999999	0.0	No	2.674	0.0	n/a	NoResponse	0	n/a	n/a	7	73	Fixation	MissedWin	False
694.275	0.5	Win2	0.6215999999999999	0.001	No	2.674	-0.001	n/a	NoResponse	0	n/a	n/a	7	73	Target	MissedWin	False
694.775	0.2	Win2	0.6215999999999999	n/a	No	2.674	n/a	n/a	NoResponse	0	n/a	n/a	7	73	Blank	MissedWin	False
694.975	1.45	Win2	0.6215999999999999	n/a	No	2.674	n/a	5.0	NoResponse	0	0.023	693.998	7	73	Feedback	MissedWin	False
696.424	2.674	Win2	0.6215999999999999	n/a	No	2.674	n/a	n/a	NoResponse	0	0.0	n/a	7	73	ISIslide	MissedWin	False
699.123	0.25	Lose2	0.6133	0.0	No	2.627	0.023	n/a	NoResponse	-1	n/a	n/a	6	74	Cue	Loss	False
699.373	4.05	Lose2	0.6133	0.0	No	2.627	0.0	n/a	NoResponse	-1	n/a	n/a	6	74	Fixation	Loss	False
703.422	0.5	Lose2	0.6133	0.001	No	2.627	-0.001	n/a	NoResponse	-1	n/a	n/a	6	74	Target	Loss	False
703.922	0.2	Lose2	0.6133	n/a	No	2.627	n/a	n/a	NoResponse	-1	n/a	n/a	6	74	Blank	Loss	False
704.122	1.45	Lose2	0.6133	n/a	No	2.627	n/a	5.0	NoResponse	-1	0.046	703.168	6	74	Feedback	Loss	False
705.571	2.627	Lose2	0.6133	n/a	No	2.627	n/a	n/a	NoResponse	-1	0.0	n/a	6	74	ISIslide	Loss	False
708.22	0.25	Lose2	0.6053000000000001	0.0	No	2.93	0.02	n/a	NoResponse	-1	n/a	n/a	5	75	Cue	Loss	False
708.47	3.95	Lose2	0.6053000000000001	0.0	No	2.93	0.0	n/a	NoResponse	-1	n/a	n/a	5	75	Fixation	Loss	False
712.419	0.5	Lose2	0.6053000000000001	0.001	No	2.93	-0.001	n/a	NoResponse	-1	n/a	n/a	5	75	Target	Loss	False
712.919	0.2	Lose2	0.6053000000000001	n/a	No	2.93	n/a	n/a	NoResponse	-1	n/a	n/a	5	75	Blank	Loss	False
713.118	1.45	Lose2	0.6053000000000001	n/a	No	2.93	n/a	5.0	NoResponse	-1	0.025	712.143	5	75	Feedback	Loss	False
714.568	2.93	Lose2	0.6053000000000001	n/a	No	2.93	n/a	n/a	NoResponse	-1	0.0	n/a	5	75	ISIslide	Loss	False
717.517	0.25	Control	0.5974	0.0	No	3.233	0.017	n/a	NoResponse	0	n/a	n/a	5	76	Cue	Neutral	False
717.767	4.05	Control	0.5974	0.0	No	3.233	0.0	n/a	NoResponse	0	n/a	n/a	5	76	Fixation	Neutral	False
721.815	0.5	Control	0.5974	0.002	No	3.233	-0.002	n/a	NoResponse	0	n/a	n/a	5	76	Target	Neutral	False
722.315	0.2	Control	0.5974	n/a	No	3.233	n/a	n/a	NoResponse	0	n/a	n/a	5	76	Blank	Neutral	False
722.515	1.45	Control	0.5974	n/a	No	3.233	n/a	5.0	NoResponse	0	0.043	721.558	5	76	Feedback	Neutral	False
723.965	3.233	Control	0.5974	n/a	No	3.233	n/a	n/a	NoResponse	0	0.0	n/a	5	76	ISIslide	Neutral	False
727.214	0.25	Lose2	0.5897	0.0	No	2.586	0.014	n/a	NoResponse	-1	n/a	n/a	4	77	Cue	Loss	False
727.463	3.95	Lose2	0.5897	0.001	No	2.586	-0.001	n/a	NoResponse	-1	n/a	n/a	4	77	Fixation	Loss	False
731.412	0.5	Lose2	0.5897	0.002	No	2.586	-0.002	n/a	NoResponse	-1	n/a	n/a	4	77	Target	Loss	False
731.912	0.2	Lose2	0.5897	n/a	No	2.586	n/a	n/a	NoResponse	-1	n/a	n/a	4	77	Blank	Loss	False
732.112	1.45	Lose2	0.5897	n/a	No	2.586	n/a	5.0	NoResponse	-1	0.007	731.119	4	77	Feedback	Loss	False
733.561	2.586	Lose2	0.5897	n/a	No	2.586	n/a	n/a	NoResponse	-1	0.0	n/a	4	77	ISIslide	Loss	False
