onset	duration	cue_type	current_mean_accuracy	duration_error	is_hit	isi_adjusted	onset_delay	response	response_type	reward	rt	rt_time	total_reward	trial_number	trial_phase	trial_type	one_press
11.101	0.25	Control	1.0	0.0	Yes	2.949	0.001	n/a	GoodResponse	0	n/a	n/a	0	0	Cue	Neutral	True
11.352	3.85	Control	1.0	0.0	Yes	2.949	0.001	n/a	GoodResponse	0	n/a	n/a	0	0	Fixation	Neutral	True
15.197	0.4	Control	1.0	0.004	Yes	2.949	-0.004	4.0	GoodResponse	0	0.279	14.476	0	0	Target	Neutral	True
15.476	0.3	Control	1.0	0.004	Yes	2.949	-0.004	4.0	GoodResponse	0	0.279	n/a	0	0	ButtonPress	Neutral	True
15.598	0.3	Control	1.0	n/a	Yes	2.949	n/a	n/a	GoodResponse	0	n/a	n/a	0	0	Blank	Neutral	True
15.899	1.45	Control	1.0	n/a	Yes	2.949	n/a	5.0	GoodResponse	0	0.028	14.927	0	0	Feedback	Neutral	True
17.353	2.949	Control	1.0	n/a	Yes	2.949	n/a	n/a	GoodResponse	0	0.0	n/a	0	0	ISIslide	Neutral	True
20.329	0.25	Lose2	1.0	0.0	Yes	2.771	0.029	n/a	GoodResponse	0	n/a	n/a	0	1	Cue	AvoidedLoss	True
20.58	4.0	Lose2	1.0	0.0	Yes	2.771	0.001	n/a	GoodResponse	0	n/a	n/a	0	1	Fixation	AvoidedLoss	True
24.575	0.39	Lose2	1.0	0.004	Yes	2.771	-0.004	4.0	GoodResponse	0	0.244	23.819	0	1	Target	AvoidedLoss	True
24.819	0.3	Lose2	1.0	0.004	Yes	2.771	-0.004	4.0	GoodResponse	0	0.244	n/a	0	1	ButtonPress	AvoidedLoss	True
24.976	0.31	Lose2	1.0	n/a	Yes	2.771	n/a	n/a	GoodResponse	0	n/a	n/a	0	1	Blank	AvoidedLoss	True
25.277	1.45	Lose2	1.0	n/a	Yes	2.771	n/a	5.0	GoodResponse	0	0.016	24.293	0	1	Feedback	AvoidedLoss	True
26.731	2.771	Lose2	1.0	n/a	Yes	2.771	n/a	n/a	GoodResponse	0	0.0	n/a	0	1	ISIslide	AvoidedLoss	True
29.523	0.25	Control	1.0	0.0	Yes	2.577	0.023	n/a	GoodResponse	0	n/a	n/a	0	2	Cue	Neutral	True
29.774	4.1	Control	1.0	0.0	Yes	2.577	0.001	n/a	GoodResponse	0	n/a	n/a	0	2	Fixation	Neutral	True
33.87	0.38	Control	1.0	0.003	Yes	2.577	-0.003	4.0	GoodResponse	0	0.259	33.129	0	2	Target	Neutral	True
34.129	0.3	Control	1.0	0.003	Yes	2.577	-0.003	4.0	GoodResponse	0	0.259	n/a	0	2	ButtonPress	Neutral	True
34.254	0.32	Control	1.0	n/a	Yes	2.577	n/a	n/a	GoodResponse	0	n/a	n/a	0	2	Blank	Neutral	True
34.572	1.45	Control	1.0	n/a	Yes	2.577	n/a	5.0	GoodResponse	0	0.038	33.61	0	2	Feedback	Neutral	True
36.026	2.577	Control	1.0	n/a	Yes	2.577	n/a	n/a	GoodResponse	0	0.0	n/a	0	2	ISIslide	Neutral	True
38.617	0.25	Win2	1.0	0.0	Yes	2.833	0.017	n/a	GoodResponse	1	n/a	n/a	1	3	Cue	Win	True
38.868	3.95	Win2	1.0	0.0	Yes	2.833	0.001	n/a	GoodResponse	1	n/a	n/a	1	3	Fixation	Win	True
42.813	0.37	Win2	1.0	0.004	Yes	2.833	-0.004	4.0	GoodResponse	1	0.27	42.083	1	3	Target	Win	True
43.083	0.3	Win2	1.0	0.004	Yes	2.833	-0.004	4.0	GoodResponse	1	0.27	n/a	1	3	ButtonPress	Win	True
43.198	0.33	Win2	1.0	n/a	Yes	2.833	n/a	n/a	GoodResponse	1	n/a	n/a	1	3	Blank	Win	True
43.515	1.45	Win2	1.0	n/a	Yes	2.833	n/a	5.0	GoodResponse	1	0.022	42.537	1	3	Feedback	Win	True
44.97	2.833	Win2	1.0	n/a	Yes	2.833	n/a	n/a	GoodResponse	1	0.0	n/a	1	3	ISIslide	Win	True
47.828	0.25	Win2	1.0	0.0	Yes	3.272	0.028	n/a	GoodResponse	1	n/a	n/a	2	4	Cue	Win	True
48.079	4.0	Win2	1.0	0.0	Yes	3.272	0.001	n/a	GoodResponse	1	n/a	n/a	2	4	Fixation	Win	True
52.074	0.36	Win2	1.0	0.004	Yes	3.272	-0.004	4.0	GoodResponse	1	0.245	51.319	2	4	Target	Win	True
52.319	0.3	Win2	1.0	0.004	Yes	3.272	-0.004	4.0	GoodResponse	1	0.245	n/a	2	4	ButtonPress	Win	True
52.442	0.34	Win2	1.0	n/a	Yes	3.272	n/a	n/a	GoodResponse	1	n/a	n/a	2	4	Blank	Win	True
52.776	1.45	Win2	1.0	n/a	Yes	3.272	n/a	5.0	GoodResponse	1	0.028	51.804	2	4	Feedback	Win	True
54.231	3.272	Win2	1.0	n/a	Yes	3.272	n/a	n/a	GoodResponse	1	0.0	n/a	2	4	ISIslide	Win	True
57.524	0.25	Win2	1.0	0.0	Yes	2.776	0.024	n/a	GoodResponse	1	n/a	n/a	3	5	Cue	Win	True
57.775	4.0	Win2	1.0	0.0	Yes	2.776	0.001	n/a	GoodResponse	1	n/a	n/a	3	5	Fixation	Win	True
61.77	0.35	Win2	1.0	0.004	Yes	2.776	-0.004	4.0	GoodResponse	1	0.261	61.031	3	5	Target	Win	True
62.031	0.3	Win2	1.0	0.004	Yes	2.776	-0.004	4.0	GoodResponse	1	0.261	n/a	3	5	ButtonPress	Win	True
62.121	0.35	Win2	1.0	n/a	Yes	2.776	n/a	n/a	GoodResponse	1	n/a	n/a	3	5	Blank	Win	True
62.472	1.45	Win2	1.0	n/a	Yes	2.776	n/a	5.0	GoodResponse	1	0.04	61.512	3	5	Feedback	Win	True
63.926	2.776	Win2	1.0	n/a	Yes	2.776	n/a	n/a	GoodResponse	1	0.0	n/a	3	5	ISIslide	Win	True
66.718	0.25	Lose2	1.0	0.0	Yes	2.732	0.018	n/a	GoodResponse	0	n/a	n/a	3	6	Cue	AvoidedLoss	True
66.969	3.95	Lose2	1.0	0.0	Yes	2.732	0.001	n/a	GoodResponse	0	n/a	n/a	3	6	Fixation	AvoidedLoss	True
70.914	0.34	Lose2	1.0	0.004	Yes	2.732	-0.004	4.0	GoodResponse	0	0.229	70.143	3	6	Target	AvoidedLoss	True
71.143	0.3	Lose2	1.0	0.004	Yes	2.732	-0.004	4.0	GoodResponse	0	0.229	n/a	3	6	ButtonPress	AvoidedLoss	True
71.265	0.36	Lose2	1.0	n/a	Yes	2.732	n/a	n/a	GoodResponse	0	n/a	n/a	3	6	Blank	AvoidedLoss	True
71.616	1.45	Lose2	1.0	n/a	Yes	2.732	n/a	5.0	GoodResponse	0	0.018	70.634	3	6	Feedback	AvoidedLoss	True
73.07	2.732	Lose2	1.0	n/a	Yes	2.732	n/a	n/a	GoodResponse	0	0.0	n/a	3	6	ISIslide	AvoidedLoss	True
75.829	0.25	Lose2	1.0	0.0	Yes	4.021	0.029	n/a	GoodResponse	0	n/a	n/a	3	7	Cue	AvoidedLoss	True
76.08	4.05	Lose2	1.0	0.0	Yes	4.021	0.001	n/a	GoodResponse	0	n/a	n/a	3	7	Fixation	AvoidedLoss	True
80.125	0.33	Lose2	1.0	0.004	Yes	4.021	-0.004	4.0	GoodResponse	0	0.2	79.325	3	7	Target	AvoidedLoss	True
80.325	0.3	Lose2	1.0	0.004	Yes	4.021	-0.004	4.0	GoodResponse	0	0.2	n/a	3	7	ButtonPress	AvoidedLoss	True
80.459	0.37	Lose2	1.0	n/a	Yes	4.021	n/a	n/a	GoodResponse	0	n/a	n/a	3	7	Blank	AvoidedLoss	True
80.827	1.45	Lose2	1.0	n/a	Yes	4.021	n/a	5.0	GoodResponse	0	0.026	79.853	3	7	Feedback	AvoidedLoss	True
82.281	4.021	Lose2	1.0	n/a	Yes	4.021	n/a	n/a	GoodResponse	0	0.0	n/a	3	7	ISIslide	AvoidedLoss	True
86.327	0.25	Lose2	1.0	0.0	Yes	3.023	0.027	n/a	GoodResponse	0	n/a	n/a	3	8	Cue	AvoidedLoss	True
86.578	3.95	Lose2	1.0	0.0	Yes	3.023	0.001	n/a	GoodResponse	0	n/a	n/a	3	8	Fixation	AvoidedLoss	True
90.523	0.32	Lose2	1.0	0.004	Yes	3.023	-0.004	4.0	GoodResponse	0	0.272	89.795	3	8	Target	AvoidedLoss	True
90.795	0.3	Lose2	1.0	0.004	Yes	3.023	-0.004	4.0	GoodResponse	0	0.272	n/a	3	8	ButtonPress	AvoidedLoss	True
90.857	0.38	Lose2	1.0	n/a	Yes	3.023	n/a	n/a	GoodResponse	0	n/a	n/a	3	8	Blank	AvoidedLoss	True
91.225	1.45	Lose2	1.0	n/a	Yes	3.023	n/a	5.0	GoodResponse	0	0.019	90.244	3	8	Feedback	AvoidedLoss	True
92.679	3.023	Lose2	1.0	n/a	Yes	3.023	n/a	n/a	GoodResponse	0	0.0	n/a	3	8	ISIslide	AvoidedLoss	True
95.722	0.25	Lose2	1.0	0.0	Yes	3.128	0.022	n/a	GoodResponse	0	n/a	n/a	3	9	Cue	AvoidedLoss	True
95.973	3.95	Lose2	1.0	0.0	Yes	3.128	0.001	n/a	GoodResponse	0	n/a	n/a	3	9	Fixation	AvoidedLoss	True
99.918	0.31	Lose2	1.0	0.004	Yes	3.128	-0.004	4.0	GoodResponse	0	0.2	99.118	3	9	Target	AvoidedLoss	True
100.118	0.3	Lose2	1.0	0.004	Yes	3.128	-0.004	4.0	GoodResponse	0	0.2	n/a	3	9	ButtonPress	AvoidedLoss	True
100.235	0.39	Lose2	1.0	n/a	Yes	3.128	n/a	n/a	GoodResponse	0	n/a	n/a	3	9	Blank	AvoidedLoss	True
100.62	1.45	Lose2	1.0	n/a	Yes	3.128	n/a	5.0	GoodResponse	0	0.038	99.658	3	9	Feedback	AvoidedLoss	True
102.074	3.128	Lose2	1.0	n/a	Yes	3.128	n/a	n/a	GoodResponse	0	0.0	n/a	3	9	ISIslide	AvoidedLoss	True
105.217	0.25	Control	1.0	0.0	Yes	3.283	0.017	n/a	GoodResponse	0	n/a	n/a	3	10	Cue	Neutral	True
105.468	4.0	Control	1.0	0.0	Yes	3.283	0.001	n/a	GoodResponse	0	n/a	n/a	3	10	Fixation	Neutral	True
109.463	0.3	Control	1.0	0.004	Yes	3.283	-0.004	4.0	GoodResponse	0	0.223	108.686	3	10	Target	Neutral	True
109.686	0.3	Control	1.0	0.004	Yes	3.283	-0.004	4.0	GoodResponse	0	0.223	n/a	3	10	ButtonPress	Neutral	True
109.764	0.4	Control	1.0	n/a	Yes	3.283	n/a	n/a	GoodResponse	0	n/a	n/a	3	10	Blank	Neutral	True
110.165	1.45	Control	1.0	n/a	Yes	3.283	n/a	5.0	GoodResponse	0	0.007	109.172	3	10	Feedback	Neutral	True
111.619	3.283	Control	1.0	n/a	Yes	3.283	n/a	n/a	GoodResponse	0	0.0	n/a	3	10	ISIslide	Neutral	True
114.929	0.25	Lose2	1.0	0.001	Yes	2.721	0.029	n/a	GoodResponse	0	n/a	n/a	3	11	Cue	AvoidedLoss	True
115.18	4.05	Lose2	1.0	0.0	Yes	2.721	0.001	n/a	GoodResponse	0	n/a	n/a	3	11	Fixation	AvoidedLoss	True
119.226	0.29	Lose2	1.0	0.003	Yes	2.721	-0.003	4.0	GoodResponse	0	0.235	118.461	3	11	Target	AvoidedLoss	True
119.461	0.3	Lose2	1.0	0.003	Yes	2.721	-0.003	4.0	GoodResponse	0	0.235	n/a	3	11	ButtonPress	AvoidedLoss	True
119.527	0.41	Lose2	1.0	n/a	Yes	2.721	n/a	n/a	GoodResponse	0	n/a	n/a	3	11	Blank	AvoidedLoss	True
119.928	1.45	Lose2	1.0	n/a	Yes	2.721	n/a	5.0	GoodResponse	0	0.048	118.976	3	11	Feedback	AvoidedLoss	True
121.382	2.721	Lose2	1.0	n/a	Yes	2.721	n/a	n/a	GoodResponse	0	0.0	n/a	3	11	ISIslide	AvoidedLoss	True
124.124	0.25	Control	1.0	0.0	Yes	2.976	0.024	n/a	GoodResponse	0	n/a	n/a	3	12	Cue	Neutral	True
124.374	3.9	Control	1.0	0.0	Yes	2.976	0.0	n/a	GoodResponse	0	n/a	n/a	3	12	Fixation	Neutral	True
128.286	0.28	Control	1.0	0.0	Yes	2.976	0.012	4.0	GoodResponse	0	0.195	127.481	3	12	Target	Neutral	True
128.481	0.3	Control	1.0	0.0	Yes	2.976	0.012	4.0	GoodResponse	0	0.195	n/a	3	12	ButtonPress	Neutral	True
128.554	0.42	Control	1.0	n/a	Yes	2.976	n/a	n/a	GoodResponse	0	n/a	n/a	3	12	Blank	Neutral	True
128.972	1.45	Control	1.0	n/a	Yes	2.976	n/a	5.0	GoodResponse	0	0.027	127.999	3	12	Feedback	Neutral	True
130.426	2.976	Control	1.0	n/a	Yes	2.976	n/a	n/a	GoodResponse	0	0.0	n/a	3	12	ISIslide	Neutral	True
133.418	0.25	Control	1.0	0.0	Yes	2.782	0.018	n/a	GoodResponse	0	n/a	n/a	3	13	Cue	Neutral	True
133.669	4.0	Control	1.0	0.0	Yes	2.782	0.001	n/a	GoodResponse	0	n/a	n/a	3	13	Fixation	Neutral	True
137.664	0.27	Control	1.0	0.004	Yes	2.782	-0.004	4.0	GoodResponse	0	0.18	136.844	3	13	Target	Neutral	True
137.844	0.3	Control	1.0	0.004	Yes	2.782	-0.004	4.0	GoodResponse	0	0.18	n/a	3	13	ButtonPress	Neutral	True
137.948	0.43	Control	1.0	n/a	Yes	2.782	n/a	n/a	GoodResponse	0	n/a	n/a	3	13	Blank	Neutral	True
138.366	1.45	Control	1.0	n/a	Yes	2.782	n/a	5.0	GoodResponse	0	0.048	137.414	3	13	Feedback	Neutral	True
139.821	2.782	Control	1.0	n/a	Yes	2.782	n/a	n/a	GoodResponse	0	0.0	n/a	3	13	ISIslide	Neutral	True
142.629	0.25	Win2	1.0	0.0	Yes	2.671	0.029	n/a	GoodResponse	1	n/a	n/a	4	14	Cue	Win	True
142.88	4.1	Win2	1.0	0.0	Yes	2.671	0.001	n/a	GoodResponse	1	n/a	n/a	4	14	Fixation	Win	True
146.976	0.26	Win2	1.0	0.003	Yes	2.671	-0.003	4.0	GoodResponse	1	0.228	146.204	4	14	Target	Win	True
147.204	0.3	Win2	1.0	0.003	Yes	2.671	-0.003	4.0	GoodResponse	1	0.228	n/a	4	14	ButtonPress	Win	True
147.243	0.44	Win2	1.0	n/a	Yes	2.671	n/a	n/a	GoodResponse	1	n/a	n/a	4	14	Blank	Win	True
147.678	1.45	Win2	1.0	n/a	Yes	2.671	n/a	5.0	GoodResponse	1	0.006	146.684	4	14	Feedback	Win	True
149.132	2.671	Win2	1.0	n/a	Yes	2.671	n/a	n/a	GoodResponse	1	0.0	n/a	4	14	ISIslide	Win	True
151.823	0.25	Control	1.0	0.0	Yes	2.977	0.023	n/a	GoodResponse	0	n/a	n/a	4	15	Cue	Neutral	True
152.074	4.0	Control	1.0	0.0	Yes	2.977	0.001	n/a	GoodResponse	0	n/a	n/a	4	15	Fixation	Neutral	True
156.069	0.25	Control	1.0	0.004	Yes	2.977	-0.004	4.0	GoodResponse	0	0.212	155.281	4	15	Target	Neutral	True
156.281	0.3	Control	1.0	0.004	Yes	2.977	-0.004	4.0	GoodResponse	0	0.212	n/a	4	15	ButtonPress	Neutral	True
156.32	0.45	Control	1.0	n/a	Yes	2.977	n/a	n/a	GoodResponse	0	n/a	n/a	4	15	Blank	Neutral	True
156.772	1.45	Control	1.0	n/a	Yes	2.977	n/a	5.0	GoodResponse	0	0.032	155.804	4	15	Feedback	Neutral	True
158.226	2.977	Control	1.0	n/a	Yes	2.977	n/a	n/a	GoodResponse	0	0.0	n/a	4	15	ISIslide	Neutral	True
161.218	0.25	Win2	1.0	0.0	Yes	2.882	0.018	n/a	GoodResponse	1	n/a	n/a	5	16	Cue	Win	True
161.469	4.0	Win2	1.0	0.0	Yes	2.882	0.001	n/a	GoodResponse	1	n/a	n/a	5	16	Fixation	Win	True
165.464	0.24	Win2	1.0	0.004	Yes	2.882	-0.004	4.0	GoodResponse	1	0.237	164.701	5	16	Target	Win	True
165.701	0.3	Win2	1.0	0.004	Yes	2.882	-0.004	4.0	GoodResponse	1	0.237	n/a	5	16	ButtonPress	Win	True
165.715	0.46	Win2	1.0	n/a	Yes	2.882	n/a	n/a	GoodResponse	1	n/a	n/a	5	16	Blank	Win	True
166.166	1.45	Win2	1.0	n/a	Yes	2.882	n/a	5.0	GoodResponse	1	0.007	165.173	5	16	Feedback	Win	True
167.621	2.882	Win2	1.0	n/a	Yes	2.882	n/a	n/a	GoodResponse	1	0.0	n/a	5	16	ISIslide	Win	True
170.53	0.25	Lose2	0.9444	0.0	No	2.72	0.03	n/a	NoResponse	-1	n/a	n/a	4	17	Cue	Loss	True
170.78	3.95	Lose2	0.9444	0.0	No	2.72	0.0	n/a	NoResponse	-1	n/a	n/a	4	17	Fixation	Loss	True
174.725	0.23	Lose2	0.9444	0.005	No	2.72	-0.005	4.0	NoResponse	-1	0.248	173.973	4	17	Target	Loss	True
174.959	0.47	Lose2	0.9444	n/a	No	2.72	n/a	n/a	NoResponse	-1	n/a	n/a	4	17	Blank	Loss	True
174.973	0.3	Lose2	0.9444	0.005	No	2.72	-0.005	4.0	NoResponse	-1	0.248	n/a	4	17	ButtonPress	Loss	True
175.428	1.45	Lose2	0.9444	n/a	No	2.72	n/a	5.0	NoResponse	-1	0.011	174.439	4	17	Feedback	Loss	True
176.882	2.72	Lose2	0.9444	n/a	No	2.72	n/a	n/a	NoResponse	-1	0.0	n/a	4	17	ISIslide	Loss	True
179.623	0.25	Lose2	0.9473999999999999	0.001	Yes	2.727	0.023	n/a	GoodResponse	0	n/a	n/a	4	18	Cue	AvoidedLoss	True
179.874	4.05	Lose2	0.9473999999999999	0.0	Yes	2.727	0.001	n/a	GoodResponse	0	n/a	n/a	4	18	Fixation	AvoidedLoss	True
183.92	0.22	Lose2	0.9473999999999999	0.003	Yes	2.727	-0.003	4.0	GoodResponse	0	0.213	183.133	4	18	Target	AvoidedLoss	True
184.133	0.3	Lose2	0.9473999999999999	0.003	Yes	2.727	-0.003	4.0	GoodResponse	0	0.213	n/a	4	18	ButtonPress	AvoidedLoss	True
184.154	0.48	Lose2	0.9473999999999999	n/a	Yes	2.727	n/a	n/a	GoodResponse	0	n/a	n/a	4	18	Blank	AvoidedLoss	True
184.622	1.45	Lose2	0.9473999999999999	n/a	Yes	2.727	n/a	5.0	GoodResponse	0	0.036	183.658	4	18	Feedback	AvoidedLoss	True
186.076	2.727	Lose2	0.9473999999999999	n/a	Yes	2.727	n/a	n/a	GoodResponse	0	0.0	n/a	4	18	ISIslide	AvoidedLoss	True
188.818	0.25	Control	0.95	0.0	Yes	2.932	0.018	n/a	GoodResponse	0	n/a	n/a	4	19	Cue	Neutral	True
189.068	3.95	Control	0.95	0.001	Yes	2.932	0.0	n/a	GoodResponse	0	n/a	n/a	4	19	Fixation	Neutral	True
193.014	0.21	Control	0.95	0.004	Yes	2.932	-0.004	4.0	GoodResponse	0	0.163	192.177	4	19	Target	Neutral	True
193.177	0.3	Control	0.95	0.004	Yes	2.932	-0.004	4.0	GoodResponse	0	0.163	n/a	4	19	ButtonPress	Neutral	True
193.231	0.49	Control	0.95	n/a	Yes	2.932	n/a	n/a	GoodResponse	0	n/a	n/a	4	19	Blank	Neutral	True
193.716	1.45	Control	0.95	n/a	Yes	2.932	n/a	5.0	GoodResponse	0	0.016	192.732	4	19	Feedback	Neutral	True
195.17	2.932	Control	0.95	n/a	Yes	2.932	n/a	n/a	GoodResponse	0	0.0	n/a	4	19	ISIslide	Neutral	True
198.129	0.25	Control	0.9048	0.0	No	2.621	0.029	n/a	NoResponse	0	n/a	n/a	4	20	Cue	Neutral	True
198.38	4.05	Control	0.9048	0.0	No	2.621	0.001	n/a	NoResponse	0	n/a	n/a	4	20	Fixation	Neutral	True
202.425	0.2	Control	0.9048	0.004	No	2.621	-0.004	4.0	NoResponse	0	0.241	201.666	4	20	Target	Neutral	True
202.626	0.5	Control	0.9048	n/a	No	2.621	n/a	n/a	NoResponse	0	n/a	n/a	4	20	Blank	Neutral	True
202.666	0.3	Control	0.9048	0.004	No	2.621	-0.004	4.0	NoResponse	0	0.241	n/a	4	20	ButtonPress	Neutral	True
203.127	1.45	Control	0.9048	n/a	No	2.621	n/a	5.0	NoResponse	0	0.018	202.145	4	20	Feedback	Neutral	True
204.582	2.621	Control	0.9048	n/a	No	2.621	n/a	n/a	NoResponse	0	0.0	n/a	4	20	ISIslide	Neutral	True
207.223	0.25	Control	0.8636	0.0	No	2.777	0.023	n/a	NoResponse	0	n/a	n/a	4	21	Cue	Neutral	True
207.474	4.1	Control	0.8636	0.0	No	2.777	0.001	n/a	NoResponse	0	n/a	n/a	4	21	Fixation	Neutral	True
211.569	0.19	Control	0.8636	0.004	No	2.777	-0.004	4.0	NoResponse	0	0.21	210.779	4	21	Target	Neutral	True
211.77	0.51	Control	0.8636	n/a	No	2.777	n/a	n/a	NoResponse	0	n/a	n/a	4	21	Blank	Neutral	True
211.779	0.3	Control	0.8636	0.004	No	2.777	-0.004	4.0	NoResponse	0	0.21	n/a	4	21	ButtonPress	Neutral	True
212.271	1.45	Control	0.8636	n/a	No	2.777	n/a	5.0	NoResponse	0	0.045	211.316	4	21	Feedback	Neutral	True
213.726	2.777	Control	0.8636	n/a	No	2.777	n/a	n/a	NoResponse	0	0.0	n/a	4	21	ISIslide	Neutral	True
216.517	0.25	Control	0.8261	0.001	No	2.783	0.017	n/a	NoResponse	0	n/a	n/a	4	22	Cue	Neutral	True
216.768	4.0	Control	0.8261	0.0	No	2.783	0.001	n/a	NoResponse	0	n/a	n/a	4	22	Fixation	Neutral	True
220.764	0.18	Control	0.8261	0.003	No	2.783	-0.003	4.0	NoResponse	0	0.258	220.022	4	22	Target	Neutral	True
220.947	0.52	Control	0.8261	n/a	No	2.783	n/a	n/a	NoResponse	0	n/a	n/a	4	22	Blank	Neutral	True
221.022	0.3	Control	0.8261	0.003	No	2.783	-0.003	4.0	NoResponse	0	0.258	n/a	4	22	ButtonPress	Neutral	True
221.466	1.45	Control	0.8261	n/a	No	2.783	n/a	5.0	NoResponse	0	0.021	220.487	4	22	Feedback	Neutral	True
222.92	2.783	Control	0.8261	n/a	No	2.783	n/a	n/a	NoResponse	0	0.0	n/a	4	22	ISIslide	Neutral	True
225.728	0.25	Control	0.7917000000000001	0.001	No	2.772	0.028	n/a	PrematurePress	0	n/a	n/a	4	23	Cue	Neutral	False
225.979	3.9	Control	0.7917000000000001	0.0	No	2.772	0.001	4.0	PrematurePress	0	3.295	228.274	4	23	Fixation	Neutral	False
229.274	0.3	Control	0.7917000000000001	0.0	No	2.772	0.001	4.0	PrematurePress	0	3.295	n/a	4	23	ButtonPress	Neutral	False
229.874	0.17	Control	0.7917000000000001	0.004	No	2.772	-0.004	4.0	PrematurePress	0	0.041	228.915	4	23	Target	Neutral	False
229.915	0.3	Control	0.7917000000000001	0.004	No	2.772	-0.004	4.0	PrematurePress	0	0.041	n/a	4	23	ButtonPress	Neutral	False
230.058	0.53	Control	0.7917000000000001	n/a	No	2.772	n/a	n/a	PrematurePress	0	n/a	n/a	4	23	Blank	Neutral	False
230.576	1.45	Control	0.7917000000000001	n/a	No	2.772	n/a	5.0	PrematurePress	0	0.033	229.609	4	23	Feedback	Neutral	False
232.031	2.772	Control	0.7917000000000001	n/a	No	2.772	n/a	n/a	PrematurePress	0	0.0	n/a	4	23	ISIslide	Neutral	False
234.822	0.25	Win2	0.76	0.0	No	3.128	0.022	n/a	NoResponse	0	n/a	n/a	4	24	Cue	MissedWin	True
235.073	3.95	Win2	0.76	0.0	No	3.128	0.001	n/a	NoResponse	0	n/a	n/a	4	24	Fixation	MissedWin	True
239.018	0.16	Win2	0.76	0.004	No	3.128	-0.004	4.0	NoResponse	0	0.217	238.235	4	24	Target	MissedWin	True
239.185	0.54	Win2	0.76	n/a	No	3.128	n/a	n/a	NoResponse	0	n/a	n/a	4	24	Blank	MissedWin	True
239.235	0.3	Win2	0.76	0.004	No	3.128	-0.004	4.0	NoResponse	0	0.217	n/a	4	24	ButtonPress	MissedWin	True
239.72	1.45	Win2	0.76	n/a	No	3.128	n/a	5.0	NoResponse	0	0.011	238.731	4	24	Feedback	MissedWin	True
241.175	3.128	Win2	0.76	n/a	No	3.128	n/a	n/a	NoResponse	0	0.0	n/a	4	24	ISIslide	MissedWin	True
244.318	0.25	Win2	0.7308	0.0	No	3.082	0.018	n/a	NoResponse	0	n/a	n/a	4	25	Cue	MissedWin	True
244.568	4.0	Win2	0.7308	0.0	No	3.082	0.0	n/a	NoResponse	0	n/a	n/a	4	25	Fixation	MissedWin	True
248.564	0.15	Win2	0.7308	0.004	No	3.082	-0.004	4.0	NoResponse	0	0.207	247.771	4	25	Target	MissedWin	True
248.714	0.55	Win2	0.7308	n/a	No	3.082	n/a	n/a	NoResponse	0	n/a	n/a	4	25	Blank	MissedWin	True
248.771	0.3	Win2	0.7308	0.004	No	3.082	-0.004	4.0	NoResponse	0	0.207	n/a	4	25	ButtonPress	MissedWin	True
249.266	1.45	Win2	0.7308	n/a	No	3.082	n/a	5.0	NoResponse	0	0.026	248.292	4	25	Feedback	MissedWin	True
250.72	3.082	Win2	0.7308	n/a	No	3.082	n/a	n/a	NoResponse	0	0.0	n/a	4	25	ISIslide	MissedWin	True
253.829	0.25	Win2	0.7037	0.0	No	2.921	0.029	n/a	NoResponse	0	n/a	n/a	4	26	Cue	MissedWin	True
254.08	3.95	Win2	0.7037	0.0	No	2.921	0.001	n/a	NoResponse	0	n/a	n/a	4	26	Fixation	MissedWin	True
258.025	0.15	Win2	0.7037	0.004	No	2.921	-0.004	4.0	NoResponse	0	0.201	257.226	4	26	Target	MissedWin	True
258.176	0.55	Win2	0.7037	n/a	No	2.921	n/a	n/a	NoResponse	0	n/a	n/a	4	26	Blank	MissedWin	True
258.226	0.3	Win2	0.7037	0.004	No	2.921	-0.004	4.0	NoResponse	0	0.201	n/a	4	26	ButtonPress	MissedWin	True
258.727	1.45	Win2	0.7037	n/a	No	2.921	n/a	5.0	NoResponse	0	0.029	257.756	4	26	Feedback	MissedWin	True
260.182	2.921	Win2	0.7037	n/a	No	2.921	n/a	n/a	NoResponse	0	0.0	n/a	4	26	ISIslide	MissedWin	True
263.124	0.25	Lose2	0.6786	0.0	No	2.826	0.024	n/a	NoResponse	-1	n/a	n/a	3	27	Cue	Loss	True
263.375	4.05	Lose2	0.6786	0.0	No	2.826	0.001	n/a	NoResponse	-1	n/a	n/a	3	27	Fixation	Loss	True
267.42	0.15	Lose2	0.6786	0.004	No	2.826	-0.004	4.0	NoResponse	-1	0.248	266.668	3	27	Target	Loss	True
267.571	0.55	Lose2	0.6786	n/a	No	2.826	n/a	n/a	NoResponse	-1	n/a	n/a	3	27	Blank	Loss	True
267.668	0.3	Lose2	0.6786	0.004	No	2.826	-0.004	4.0	NoResponse	-1	0.248	n/a	3	27	ButtonPress	Loss	True
268.122	1.45	Lose2	0.6786	n/a	No	2.826	n/a	5.0	NoResponse	-1	0.048	267.17	3	27	Feedback	Loss	True
269.577	2.826	Lose2	0.6786	n/a	No	2.826	n/a	n/a	NoResponse	-1	0.0	n/a	3	27	ISIslide	Loss	True
272.418	0.25	Control	0.6552	0.001	No	2.832	0.018	n/a	NoResponse	0	n/a	n/a	3	28	Cue	Neutral	True
272.669	4.05	Control	0.6552	0.0	No	2.832	0.001	n/a	NoResponse	0	n/a	n/a	3	28	Fixation	Neutral	True
276.715	0.15	Control	0.6552	0.003	No	2.832	-0.003	4.0	NoResponse	0	0.246	275.961	3	28	Target	Neutral	True
276.865	0.55	Control	0.6552	n/a	No	2.832	n/a	n/a	NoResponse	0	n/a	n/a	3	28	Blank	Neutral	True
276.961	0.3	Control	0.6552	0.003	No	2.832	-0.003	4.0	NoResponse	0	0.246	n/a	3	28	ButtonPress	Neutral	True
277.417	1.45	Control	0.6552	n/a	No	2.832	n/a	5.0	NoResponse	0	0.021	276.438	3	28	Feedback	Neutral	True
278.871	2.832	Control	0.6552	n/a	No	2.832	n/a	n/a	NoResponse	0	0.0	n/a	3	28	ISIslide	Neutral	True
281.73	0.25	Lose2	0.6333	0.0	No	2.82	0.03	n/a	NoResponse	-1	n/a	n/a	2	29	Cue	Loss	True
281.981	3.95	Lose2	0.6333	0.0	No	2.82	0.001	n/a	NoResponse	-1	n/a	n/a	2	29	Fixation	Loss	True
285.926	0.15	Lose2	0.6333	0.004	No	2.82	-0.004	4.0	NoResponse	-1	0.193	285.119	2	29	Target	Loss	True
286.076	0.55	Lose2	0.6333	n/a	No	2.82	n/a	n/a	NoResponse	-1	n/a	n/a	2	29	Blank	Loss	True
286.119	0.3	Lose2	0.6333	0.004	No	2.82	-0.004	4.0	NoResponse	-1	0.193	n/a	2	29	ButtonPress	Loss	True
286.628	1.45	Lose2	0.6333	n/a	No	2.82	n/a	5.0	NoResponse	-1	0.029	285.657	2	29	Feedback	Loss	True
288.082	2.82	Lose2	0.6333	n/a	No	2.82	n/a	n/a	NoResponse	-1	0.0	n/a	2	29	ISIslide	Loss	True
290.924	0.25	Win2	0.6129	0.0	No	2.776	0.024	n/a	NoResponse	0	n/a	n/a	2	30	Cue	MissedWin	True
291.175	3.9	Win2	0.6129	0.0	No	2.776	0.001	n/a	NoResponse	0	n/a	n/a	2	30	Fixation	MissedWin	True
295.07	0.16	Win2	0.6129	0.004	No	2.776	-0.004	4.0	NoResponse	0	0.392	294.462	2	30	Target	MissedWin	True
295.237	0.54	Win2	0.6129	n/a	No	2.776	n/a	n/a	NoResponse	0	n/a	n/a	2	30	Blank	MissedWin	True
295.462	0.3	Win2	0.6129	0.004	No	2.776	-0.004	4.0	NoResponse	0	0.392	n/a	2	30	ButtonPress	MissedWin	True
295.772	1.45	Win2	0.6129	n/a	No	2.776	n/a	5.0	NoResponse	0	0.008	294.78	2	30	Feedback	MissedWin	True
297.226	2.776	Win2	0.6129	n/a	No	2.776	n/a	n/a	NoResponse	0	0.0	n/a	2	30	ISIslide	MissedWin	True
300.018	0.25	Lose2	0.5938	0.0	No	2.832	0.018	n/a	PrematurePress	-1	n/a	n/a	1	31	Cue	Loss	False
300.269	4.05	Lose2	0.5938	0.0	No	2.832	0.001	4.0	PrematurePress	-1	3.633	302.902	1	31	Fixation	Loss	False
303.902	0.3	Lose2	0.5938	0.0	No	2.832	0.001	4.0	PrematurePress	-1	3.633	n/a	1	31	ButtonPress	Loss	False
304.314	0.17	Lose2	0.5938	0.004	No	2.832	-0.004	4.0	PrematurePress	-1	0.092	303.406	1	31	Target	Loss	False
304.406	0.3	Lose2	0.5938	0.004	No	2.832	-0.004	4.0	PrematurePress	-1	0.092	n/a	1	31	ButtonPress	Loss	False
304.498	0.53	Lose2	0.5938	n/a	No	2.832	n/a	n/a	PrematurePress	-1	n/a	n/a	1	31	Blank	Loss	False
305.016	1.45	Lose2	0.5938	n/a	No	2.832	n/a	5.0	PrematurePress	-1	0.032	304.048	1	31	Feedback	Loss	False
306.471	2.832	Lose2	0.5938	n/a	No	2.832	n/a	n/a	PrematurePress	-1	0.0	n/a	1	31	ISIslide	Loss	False
309.329	0.25	Lose2	0.5758	0.0	No	2.621	0.029	n/a	NoResponse	-1	n/a	n/a	0	32	Cue	Loss	True
309.58	4.15	Lose2	0.5758	0.0	No	2.621	0.001	n/a	NoResponse	-1	n/a	n/a	0	32	Fixation	Loss	True
313.726	0.18	Lose2	0.5758	0.003	No	2.621	-0.003	4.0	NoResponse	-1	0.227	312.953	0	32	Target	Loss	True
313.91	0.52	Lose2	0.5758	n/a	No	2.621	n/a	n/a	NoResponse	-1	n/a	n/a	0	32	Blank	Loss	True
313.953	0.3	Lose2	0.5758	0.003	No	2.621	-0.003	4.0	NoResponse	-1	0.227	n/a	0	32	ButtonPress	Loss	True
314.428	1.45	Lose2	0.5758	n/a	No	2.621	n/a	5.0	NoResponse	-1	0.035	313.463	0	32	Feedback	Loss	True
315.882	2.621	Lose2	0.5758	n/a	No	2.621	n/a	n/a	NoResponse	-1	0.0	n/a	0	32	ISIslide	Loss	True
318.523	0.25	Win2	0.5588000000000001	0.001	No	2.677	0.023	n/a	NoResponse	0	n/a	n/a	0	33	Cue	MissedWin	True
318.774	4.0	Win2	0.5588000000000001	0.0	No	2.677	0.001	n/a	NoResponse	0	n/a	n/a	0	33	Fixation	MissedWin	True
322.77	0.19	Win2	0.5588000000000001	0.003	No	2.677	-0.003	4.0	NoResponse	0	0.225	321.995	0	33	Target	MissedWin	True
322.97	0.51	Win2	0.5588000000000001	n/a	No	2.677	n/a	n/a	NoResponse	0	n/a	n/a	0	33	Blank	MissedWin	True
322.995	0.3	Win2	0.5588000000000001	0.003	No	2.677	-0.003	4.0	NoResponse	0	0.225	n/a	0	33	ButtonPress	MissedWin	True
323.472	1.45	Win2	0.5588000000000001	n/a	No	2.677	n/a	5.0	NoResponse	0	0.015	322.487	0	33	Feedback	MissedWin	True
324.926	2.677	Win2	0.5588000000000001	n/a	No	2.677	n/a	n/a	NoResponse	0	0.0	n/a	0	33	ISIslide	MissedWin	True
327.617	0.25	Lose2	0.5428999999999999	0.0	No	2.633	0.017	n/a	NoResponse	-1	n/a	n/a	-1	34	Cue	Loss	True
327.868	4.05	Lose2	0.5428999999999999	0.0	No	2.633	0.001	n/a	NoResponse	-1	n/a	n/a	-1	34	Fixation	Loss	True
331.914	0.2	Lose2	0.5428999999999999	0.003	No	2.633	-0.003	4.0	NoResponse	-1	0.342	331.256	-1	34	Target	Loss	True
332.114	0.5	Lose2	0.5428999999999999	n/a	No	2.633	n/a	n/a	NoResponse	-1	n/a	n/a	-1	34	Blank	Loss	True
332.256	0.3	Lose2	0.5428999999999999	0.003	No	2.633	-0.003	4.0	NoResponse	-1	0.342	n/a	-1	34	ButtonPress	Loss	True
332.616	1.45	Lose2	0.5428999999999999	n/a	No	2.633	n/a	5.0	NoResponse	-1	0.042	331.658	-1	34	Feedback	Loss	True
334.07	2.633	Lose2	0.5428999999999999	n/a	No	2.633	n/a	n/a	NoResponse	-1	0.0	n/a	-1	34	ISIslide	Loss	True
336.728	0.25	Lose2	0.5278	0.0	No	2.672	0.028	n/a	LatePress	-1	n/a	n/a	-2	35	Cue	Loss	True
336.979	4.0	Lose2	0.5278	0.0	No	2.672	0.001	n/a	LatePress	-1	n/a	n/a	-2	35	Fixation	Loss	True
340.974	0.21	Lose2	0.5278	0.004	No	2.672	-0.004	4.0	LatePress	-1	0.213	340.187	-2	35	Target	Loss	True
341.187	0.3	Lose2	0.5278	0.004	No	2.672	-0.004	4.0	LatePress	-1	0.213	n/a	-2	35	ButtonPress	Loss	True
341.191	0.49	Lose2	0.5278	n/a	No	2.672	n/a	n/a	LatePress	-1	n/a	n/a	-2	35	Blank	Loss	True
341.676	1.45	Lose2	0.5278	n/a	No	2.672	n/a	5.0	LatePress	-1	0.007	340.683	-2	35	Feedback	Loss	True
343.131	2.672	Lose2	0.5278	n/a	No	2.672	n/a	n/a	LatePress	-1	0.0	n/a	-2	35	ISIslide	Loss	True
345.822	0.25	Control	0.5405	0.0	Yes	2.678	0.022	n/a	GoodResponse	0	n/a	n/a	-2	36	Cue	Neutral	True
346.073	4.0	Control	0.5405	0.0	Yes	2.678	0.001	n/a	GoodResponse	0	n/a	n/a	-2	36	Fixation	Neutral	True
350.068	0.22	Control	0.5405	0.004	Yes	2.678	-0.004	4.0	GoodResponse	0	0.207	349.275	-2	36	Target	Neutral	True
350.275	0.3	Control	0.5405	0.004	Yes	2.678	-0.004	4.0	GoodResponse	0	0.207	n/a	-2	36	ButtonPress	Neutral	True
350.302	0.48	Control	0.5405	n/a	Yes	2.678	n/a	n/a	GoodResponse	0	n/a	n/a	-2	36	Blank	Neutral	True
350.77	1.45	Control	0.5405	n/a	Yes	2.678	n/a	5.0	GoodResponse	0	0.034	349.804	-2	36	Feedback	Neutral	True
352.225	2.678	Control	0.5405	n/a	Yes	2.678	n/a	n/a	GoodResponse	0	0.0	n/a	-2	36	ISIslide	Neutral	True
354.916	0.25	Win2	0.5526	0.0	Yes	2.884	0.016	n/a	GoodResponse	1	n/a	n/a	-1	37	Cue	Win	True
355.167	4.0	Win2	0.5526	0.0	Yes	2.884	0.001	n/a	GoodResponse	1	n/a	n/a	-1	37	Fixation	Win	True
359.162	0.23	Win2	0.5526	0.004	Yes	2.884	-0.004	4.0	GoodResponse	1	0.222	358.384	-1	37	Target	Win	True
359.384	0.3	Win2	0.5526	0.004	Yes	2.884	-0.004	4.0	GoodResponse	1	0.222	n/a	-1	37	ButtonPress	Win	True
359.396	0.47	Win2	0.5526	n/a	Yes	2.884	n/a	n/a	GoodResponse	1	n/a	n/a	-1	37	Blank	Win	True
359.864	1.45	Win2	0.5526	n/a	Yes	2.884	n/a	5.0	GoodResponse	1	0.013	358.877	-1	37	Feedback	Win	True
361.319	2.884	Win2	0.5526	n/a	Yes	2.884	n/a	n/a	GoodResponse	1	0.0	n/a	-1	37	ISIslide	Win	True
364.227	0.25	Lose2	0.5385	0.0	No	2.823	0.027	n/a	NoResponse	-1	n/a	n/a	-2	38	Cue	Loss	True
364.478	3.95	Lose2	0.5385	0.0	No	2.823	0.001	n/a	NoResponse	-1	n/a	n/a	-2	38	Fixation	Loss	True
368.423	0.24	Lose2	0.5385	0.004	No	2.823	-0.004	4.0	NoResponse	-1	0.456	367.879	-2	38	Target	Loss	True
368.674	0.46	Lose2	0.5385	n/a	No	2.823	n/a	n/a	NoResponse	-1	n/a	n/a	-2	38	Blank	Loss	True
368.879	0.3	Lose2	0.5385	0.004	No	2.823	-0.004	4.0	NoResponse	-1	0.456	n/a	-2	38	ButtonPress	Loss	True
369.125	1.45	Lose2	0.5385	n/a	No	2.823	n/a	5.0	NoResponse	-1	0.02	368.145	-2	38	Feedback	Loss	True
370.58	2.823	Lose2	0.5385	n/a	No	2.823	n/a	n/a	NoResponse	-1	0.0	n/a	-2	38	ISIslide	Loss	True
373.421	0.25	Win2	0.55	0.001	Yes	2.979	0.021	n/a	GoodResponse	1	n/a	n/a	-1	39	Cue	Win	False
373.672	4.1	Win2	0.55	0.0	Yes	2.979	0.001	4.0	GoodResponse	1	3.61	376.282	-1	39	Fixation	Win	False
377.282	0.3	Win2	0.55	0.0	Yes	2.979	0.001	4.0	GoodResponse	1	3.61	n/a	-1	39	ButtonPress	Win	False
377.768	0.25	Win2	0.55	0.003	Yes	2.979	-0.003	4.0	GoodResponse	1	0.116	376.884	-1	39	Target	Win	False
377.884	0.3	Win2	0.55	0.003	Yes	2.979	-0.003	4.0	GoodResponse	1	0.116	n/a	-1	39	ButtonPress	Win	False
378.019	0.45	Win2	0.55	n/a	Yes	2.979	n/a	n/a	GoodResponse	1	n/a	n/a	-1	39	Blank	Win	False
378.47	1.45	Win2	0.55	n/a	Yes	2.979	n/a	5.0	GoodResponse	1	0.041	377.511	-1	39	Feedback	Win	False
379.924	2.979	Win2	0.55	n/a	Yes	2.979	n/a	n/a	GoodResponse	1	0.0	n/a	-1	39	ISIslide	Win	False
382.917	0.25	Win2	0.561	0.0	Yes	2.733	0.017	n/a	GoodResponse	1	n/a	n/a	0	40	Cue	Win	True
383.167	3.95	Win2	0.561	0.0	Yes	2.733	0.0	n/a	GoodResponse	1	n/a	n/a	0	40	Fixation	Win	True
387.113	0.26	Win2	0.561	0.004	Yes	2.733	-0.004	4.0	GoodResponse	1	0.217	386.33	0	40	Target	Win	True
387.33	0.3	Win2	0.561	0.004	Yes	2.733	-0.004	4.0	GoodResponse	1	0.217	n/a	0	40	ButtonPress	Win	True
387.38	0.44	Win2	0.561	n/a	Yes	2.733	n/a	n/a	GoodResponse	1	n/a	n/a	0	40	Blank	Win	True
387.815	1.45	Win2	0.561	n/a	Yes	2.733	n/a	5.0	GoodResponse	1	0.013	386.828	0	40	Feedback	Win	True
389.269	2.733	Win2	0.561	n/a	Yes	2.733	n/a	n/a	GoodResponse	1	0.0	n/a	0	40	ISIslide	Win	True
392.027	0.25	Win2	0.5714	0.0	Yes	2.773	0.027	n/a	GoodResponse	1	n/a	n/a	1	41	Cue	Win	True
392.278	3.9	Win2	0.5714	0.0	Yes	2.773	0.001	n/a	GoodResponse	1	n/a	n/a	1	41	Fixation	Win	True
396.173	0.27	Win2	0.5714	0.004	Yes	2.773	-0.004	4.0	GoodResponse	1	0.213	395.386	1	41	Target	Win	True
396.386	0.3	Win2	0.5714	0.004	Yes	2.773	-0.004	4.0	GoodResponse	1	0.213	n/a	1	41	ButtonPress	Win	True
396.457	0.43	Win2	0.5714	n/a	Yes	2.773	n/a	n/a	GoodResponse	1	n/a	n/a	1	41	Blank	Win	True
396.875	1.45	Win2	0.5714	n/a	Yes	2.773	n/a	5.0	GoodResponse	1	0.027	395.902	1	41	Feedback	Win	True
398.33	2.773	Win2	0.5714	n/a	Yes	2.773	n/a	n/a	GoodResponse	1	0.0	n/a	1	41	ISIslide	Win	True
401.121	0.25	Control	0.5814	0.0	Yes	2.929	0.021	n/a	GoodResponse	0	n/a	n/a	1	42	Cue	Neutral	True
401.372	3.85	Control	0.5814	0.0	Yes	2.929	0.001	n/a	GoodResponse	0	n/a	n/a	1	42	Fixation	Neutral	True
405.217	0.28	Control	0.5814	0.004	Yes	2.929	-0.004	4.0	GoodResponse	0	0.212	404.429	1	42	Target	Neutral	True
405.429	0.3	Control	0.5814	0.004	Yes	2.929	-0.004	4.0	GoodResponse	0	0.212	n/a	1	42	ButtonPress	Neutral	True
405.501	0.42	Control	0.5814	n/a	Yes	2.929	n/a	n/a	GoodResponse	0	n/a	n/a	1	42	Blank	Neutral	True
405.919	1.45	Control	0.5814	n/a	Yes	2.929	n/a	5.0	GoodResponse	0	0.007	404.926	1	42	Feedback	Neutral	True
407.373	2.929	Control	0.5814	n/a	Yes	2.929	n/a	n/a	GoodResponse	0	0.0	n/a	1	42	ISIslide	Neutral	True
410.315	0.25	Win2	0.5909	0.001	Yes	3.185	0.015	n/a	GoodResponse	1	n/a	n/a	2	43	Cue	Win	True
410.566	4.0	Win2	0.5909	0.0	Yes	3.185	0.001	n/a	GoodResponse	1	n/a	n/a	2	43	Fixation	Win	True
414.562	0.29	Win2	0.5909	0.003	Yes	3.185	-0.003	4.0	GoodResponse	1	0.197	413.759	2	43	Target	Win	True
414.759	0.3	Win2	0.5909	0.003	Yes	3.185	-0.003	4.0	GoodResponse	1	0.197	n/a	2	43	ButtonPress	Win	True
414.862	0.41	Win2	0.5909	n/a	Yes	3.185	n/a	n/a	GoodResponse	1	n/a	n/a	2	43	Blank	Win	True
415.264	1.45	Win2	0.5909	n/a	Yes	3.185	n/a	5.0	GoodResponse	1	0.028	414.292	2	43	Feedback	Win	True
416.718	3.185	Win2	0.5909	n/a	Yes	3.185	n/a	n/a	GoodResponse	1	0.0	n/a	2	43	ISIslide	Win	True
419.928	0.25	Win2	0.6	0.0	Yes	2.972	0.028	n/a	GoodResponse	1	n/a	n/a	3	44	Cue	Win	True
420.178	4.0	Win2	0.6	0.0	Yes	2.972	0.0	n/a	GoodResponse	1	n/a	n/a	3	44	Fixation	Win	True
424.174	0.3	Win2	0.6	0.004	Yes	2.972	-0.004	4.0	GoodResponse	1	0.174	423.348	3	44	Target	Win	True
424.348	0.3	Win2	0.6	0.004	Yes	2.972	-0.004	4.0	GoodResponse	1	0.174	n/a	3	44	ButtonPress	Win	True
424.475	0.4	Win2	0.6	n/a	Yes	2.972	n/a	n/a	GoodResponse	1	n/a	n/a	3	44	Blank	Win	True
424.876	1.45	Win2	0.6	n/a	Yes	2.972	n/a	5.0	GoodResponse	1	0.026	423.902	3	44	Feedback	Win	True
426.33	2.972	Win2	0.6	n/a	Yes	2.972	n/a	n/a	GoodResponse	1	0.0	n/a	3	44	ISIslide	Win	True
429.323	0.25	Control	0.5870000000000001	0.0	No	2.877	0.023	n/a	NoResponse	0	n/a	n/a	3	45	Cue	Neutral	False
429.573	4.1	Control	0.5870000000000001	0.0	No	2.877	0.0	4.0	NoResponse	0	3.928	432.501	3	45	Fixation	Neutral	False
433.501	0.3	Control	0.5870000000000001	0.0	No	2.877	0.0	4.0	NoResponse	0	3.928	n/a	3	45	ButtonPress	Neutral	False
433.669	0.31	Control	0.5870000000000001	0.004	No	2.877	-0.004	4.0	NoResponse	0	0.443	433.112	3	45	Target	Neutral	False
433.986	0.39	Control	0.5870000000000001	n/a	No	2.877	n/a	n/a	NoResponse	0	n/a	n/a	3	45	Blank	Neutral	False
434.112	0.3	Control	0.5870000000000001	0.004	No	2.877	-0.004	4.0	NoResponse	0	0.443	n/a	3	45	ButtonPress	Neutral	False
434.371	1.45	Control	0.5870000000000001	n/a	No	2.877	n/a	5.0	NoResponse	0	0.042	433.413	3	45	Feedback	Neutral	False
435.825	2.877	Control	0.5870000000000001	n/a	No	2.877	n/a	n/a	NoResponse	0	0.0	n/a	3	45	ISIslide	Neutral	False
438.717	0.25	Lose2	0.5957	0.0	Yes	3.383	0.017	n/a	GoodResponse	0	n/a	n/a	3	46	Cue	AvoidedLoss	True
438.968	4.0	Lose2	0.5957	0.0	Yes	3.383	0.001	n/a	GoodResponse	0	n/a	n/a	3	46	Fixation	AvoidedLoss	True
442.963	0.32	Lose2	0.5957	0.004	Yes	3.383	-0.004	4.0	GoodResponse	0	0.197	442.16	3	46	Target	AvoidedLoss	True
443.16	0.3	Lose2	0.5957	0.004	Yes	3.383	-0.004	4.0	GoodResponse	0	0.197	n/a	3	46	ButtonPress	AvoidedLoss	True
443.298	0.38	Lose2	0.5957	n/a	Yes	3.383	n/a	n/a	GoodResponse	0	n/a	n/a	3	46	Blank	AvoidedLoss	True
443.666	1.45	Lose2	0.5957	n/a	Yes	3.383	n/a	5.0	GoodResponse	0	0.016	442.682	3	46	Feedback	AvoidedLoss	True
445.12	3.383	Lose2	0.5957	n/a	Yes	3.383	n/a	n/a	GoodResponse	0	0.0	n/a	3	46	ISIslide	AvoidedLoss	True
448.53	0.25	Lose2	0.6042000000000001	0.0	Yes	2.67	0.03	n/a	GoodResponse	0	n/a	n/a	3	47	Cue	AvoidedLoss	True
448.781	4.0	Lose2	0.6042000000000001	0.0	Yes	2.67	0.001	n/a	GoodResponse	0	n/a	n/a	3	47	Fixation	AvoidedLoss	True
452.776	0.33	Lose2	0.6042000000000001	0.004	Yes	2.67	-0.004	4.0	GoodResponse	0	0.242	452.018	3	47	Target	AvoidedLoss	True
453.018	0.3	Lose2	0.6042000000000001	0.004	Yes	2.67	-0.004	4.0	GoodResponse	0	0.242	n/a	3	47	ButtonPress	AvoidedLoss	True
453.111	0.37	Lose2	0.6042000000000001	n/a	Yes	2.67	n/a	n/a	GoodResponse	0	n/a	n/a	3	47	Blank	AvoidedLoss	True
453.478	1.45	Lose2	0.6042000000000001	n/a	Yes	2.67	n/a	5.0	GoodResponse	0	0.009	452.487	3	47	Feedback	AvoidedLoss	True
454.933	2.67	Lose2	0.6042000000000001	n/a	Yes	2.67	n/a	n/a	GoodResponse	0	0.0	n/a	3	47	ISIslide	AvoidedLoss	True
457.624	0.25	Lose2	0.6122	0.0	Yes	3.026	0.024	n/a	GoodResponse	0	n/a	n/a	3	48	Cue	AvoidedLoss	True
457.875	3.95	Lose2	0.6122	0.0	Yes	3.026	0.001	n/a	GoodResponse	0	n/a	n/a	3	48	Fixation	AvoidedLoss	True
461.82	0.34	Lose2	0.6122	0.004	Yes	3.026	-0.004	4.0	GoodResponse	0	0.227	461.047	3	48	Target	AvoidedLoss	True
462.047	0.3	Lose2	0.6122	0.004	Yes	3.026	-0.004	4.0	GoodResponse	0	0.227	n/a	3	48	ButtonPress	AvoidedLoss	True
462.171	0.36	Lose2	0.6122	n/a	Yes	3.026	n/a	n/a	GoodResponse	0	n/a	n/a	3	48	Blank	AvoidedLoss	True
462.522	1.45	Lose2	0.6122	n/a	Yes	3.026	n/a	5.0	GoodResponse	0	0.038	461.56	3	48	Feedback	AvoidedLoss	True
463.976	3.026	Lose2	0.6122	n/a	Yes	3.026	n/a	n/a	GoodResponse	0	0.0	n/a	3	48	ISIslide	AvoidedLoss	True
467.019	0.25	Control	0.62	0.0	Yes	2.881	0.019	n/a	GoodResponse	0	n/a	n/a	3	49	Cue	Neutral	True
467.27	4.0	Control	0.62	0.0	Yes	2.881	0.001	n/a	GoodResponse	0	n/a	n/a	3	49	Fixation	Neutral	True
471.265	0.35	Control	0.62	0.004	Yes	2.881	-0.004	4.0	GoodResponse	0	0.327	470.592	3	49	Target	Neutral	True
471.592	0.3	Control	0.62	0.004	Yes	2.881	-0.004	4.0	GoodResponse	0	0.327	n/a	3	49	ButtonPress	Neutral	True
471.616	0.35	Control	0.62	n/a	Yes	2.881	n/a	n/a	GoodResponse	0	n/a	n/a	3	49	Blank	Neutral	True
471.967	1.45	Control	0.62	n/a	Yes	2.881	n/a	5.0	GoodResponse	0	0.008	470.975	3	49	Feedback	Neutral	True
473.421	2.881	Control	0.62	n/a	Yes	2.881	n/a	n/a	GoodResponse	0	0.0	n/a	3	49	ISIslide	Neutral	True
476.313	0.25	Control	0.6078	0.001	No	2.787	0.013	n/a	NoResponse	0	n/a	n/a	3	50	Cue	Neutral	False
476.564	4.0	Control	0.6078	0.0	No	2.787	0.001	n/a	NoResponse	0	n/a	n/a	3	50	Fixation	Neutral	False
480.56	0.36	Control	0.6078	0.003	No	2.787	-0.003	n/a	NoResponse	0	n/a	n/a	3	50	Target	Neutral	False
480.927	0.34	Control	0.6078	n/a	No	2.787	n/a	n/a	NoResponse	0	n/a	n/a	3	50	Blank	Neutral	False
481.262	1.45	Control	0.6078	n/a	No	2.787	n/a	5.0	NoResponse	0	0.03	480.292	3	50	Feedback	Neutral	False
482.716	2.787	Control	0.6078	n/a	No	2.787	n/a	n/a	NoResponse	0	0.0	n/a	3	50	ISIslide	Neutral	False
485.524	0.25	Control	0.5962	0.001	No	2.726	0.024	n/a	NoResponse	0	n/a	n/a	3	51	Cue	Neutral	False
485.775	3.95	Control	0.5962	0.0	No	2.726	0.001	n/a	NoResponse	0	n/a	n/a	3	51	Fixation	Neutral	False
489.72	0.37	Control	0.5962	0.004	No	2.726	-0.004	n/a	NoResponse	0	n/a	n/a	3	51	Target	Neutral	False
490.105	0.33	Control	0.5962	n/a	No	2.726	n/a	n/a	NoResponse	0	n/a	n/a	3	51	Blank	Neutral	False
490.422	1.45	Control	0.5962	n/a	No	2.726	n/a	5.0	NoResponse	0	0.041	489.463	3	51	Feedback	Neutral	False
491.877	2.726	Control	0.5962	n/a	No	2.726	n/a	n/a	NoResponse	0	0.0	n/a	3	51	ISIslide	Neutral	False
494.618	0.25	Control	0.5849	0.0	No	2.632	0.018	n/a	NoResponse	0	n/a	n/a	3	52	Cue	Neutral	False
494.869	4.05	Control	0.5849	0.0	No	2.632	0.001	n/a	NoResponse	0	n/a	n/a	3	52	Fixation	Neutral	False
498.915	0.38	Control	0.5849	0.003	No	2.632	-0.003	n/a	NoResponse	0	n/a	n/a	3	52	Target	Neutral	False
499.299	0.32	Control	0.5849	n/a	No	2.632	n/a	n/a	NoResponse	0	n/a	n/a	3	52	Blank	Neutral	False
499.617	1.45	Control	0.5849	n/a	No	2.632	n/a	5.0	NoResponse	0	0.016	498.633	3	52	Feedback	Neutral	False
501.071	2.632	Control	0.5849	n/a	No	2.632	n/a	n/a	NoResponse	0	0.0	n/a	3	52	ISIslide	Neutral	False
503.729	0.25	Win2	0.5926	0.0	Yes	2.921	0.029	n/a	GoodResponse	1	n/a	n/a	4	53	Cue	Win	True
503.98	4.05	Win2	0.5926	0.0	Yes	2.921	0.001	n/a	GoodResponse	1	n/a	n/a	4	53	Fixation	Win	True
508.025	0.39	Win2	0.5926	0.004	Yes	2.921	-0.004	4.0	GoodResponse	1	0.212	507.237	4	53	Target	Win	True
508.237	0.3	Win2	0.5926	0.004	Yes	2.921	-0.004	4.0	GoodResponse	1	0.212	n/a	4	53	ButtonPress	Win	True
508.426	0.31	Win2	0.5926	n/a	Yes	2.921	n/a	n/a	GoodResponse	1	n/a	n/a	4	53	Blank	Win	True
508.727	1.45	Win2	0.5926	n/a	Yes	2.921	n/a	5.0	GoodResponse	1	0.027	507.754	4	53	Feedback	Win	True
510.182	2.921	Win2	0.5926	n/a	Yes	2.921	n/a	n/a	GoodResponse	1	0.0	n/a	4	53	ISIslide	Win	True
513.124	0.25	Win2	0.6	0.0	Yes	2.726	0.024	n/a	GoodResponse	1	n/a	n/a	5	54	Cue	Win	True
513.375	3.95	Win2	0.6	0.0	Yes	2.726	0.001	n/a	GoodResponse	1	n/a	n/a	5	54	Fixation	Win	True
517.32	0.4	Win2	0.6	0.004	Yes	2.726	-0.004	4.0	GoodResponse	1	0.232	516.552	5	54	Target	Win	True
517.552	0.3	Win2	0.6	0.004	Yes	2.726	-0.004	4.0	GoodResponse	1	0.232	n/a	5	54	ButtonPress	Win	True
517.721	0.3	Win2	0.6	n/a	Yes	2.726	n/a	n/a	GoodResponse	1	n/a	n/a	5	54	Blank	Win	True
518.022	1.45	Win2	0.6	n/a	Yes	2.726	n/a	5.0	GoodResponse	1	0.001	517.023	5	54	Feedback	Win	True
519.476	2.726	Win2	0.6	n/a	Yes	2.726	n/a	n/a	GoodResponse	1	0.0	n/a	5	54	ISIslide	Win	True
522.218	0.25	Control	0.5893	0.0	No	3.032	0.018	n/a	NoResponse	0	n/a	n/a	5	55	Cue	Neutral	False
522.469	3.95	Control	0.5893	0.0	No	3.032	0.001	n/a	NoResponse	0	n/a	n/a	5	55	Fixation	Neutral	False
526.414	0.41	Control	0.5893	0.004	No	3.032	-0.004	n/a	NoResponse	0	n/a	n/a	5	55	Target	Neutral	False
526.832	0.29	Control	0.5893	n/a	No	3.032	n/a	n/a	NoResponse	0	n/a	n/a	5	55	Blank	Neutral	False
527.116	1.45	Control	0.5893	n/a	No	3.032	n/a	5.0	NoResponse	0	0.029	526.145	5	55	Feedback	Neutral	False
528.57	3.032	Control	0.5893	n/a	No	3.032	n/a	n/a	NoResponse	0	0.0	n/a	5	55	ISIslide	Neutral	False
531.613	0.25	Control	0.5789	0.0	No	2.837	0.013	n/a	NoResponse	0	n/a	n/a	5	56	Cue	Neutral	False
531.863	3.95	Control	0.5789	0.001	No	2.837	0.0	n/a	NoResponse	0	n/a	n/a	5	56	Fixation	Neutral	False
535.809	0.42	Control	0.5789	0.004	No	2.837	-0.004	n/a	NoResponse	0	n/a	n/a	5	56	Target	Neutral	False
536.243	0.28	Control	0.5789	n/a	No	2.837	n/a	n/a	NoResponse	0	n/a	n/a	5	56	Blank	Neutral	False
536.511	1.45	Control	0.5789	n/a	No	2.837	n/a	5.0	NoResponse	0	0.0	535.511	5	56	Feedback	Neutral	False
537.965	2.837	Control	0.5789	n/a	No	2.837	n/a	n/a	NoResponse	0	0.0	n/a	5	56	ISIslide	Neutral	False
540.824	0.25	Control	0.569	0.0	No	3.476	0.024	n/a	NoResponse	0	n/a	n/a	5	57	Cue	Neutral	False
541.074	4.0	Control	0.569	0.0	No	3.476	0.0	n/a	NoResponse	0	n/a	n/a	5	57	Fixation	Neutral	False
545.07	0.43	Control	0.569	0.004	No	3.476	-0.004	n/a	NoResponse	0	n/a	n/a	5	57	Target	Neutral	False
545.504	0.27	Control	0.569	n/a	No	3.476	n/a	n/a	NoResponse	0	n/a	n/a	5	57	Blank	Neutral	False
545.772	1.45	Control	0.569	n/a	No	3.476	n/a	5.0	NoResponse	0	0.007	544.779	5	57	Feedback	Neutral	False
547.226	3.476	Control	0.569	n/a	No	3.476	n/a	n/a	NoResponse	0	0.0	n/a	5	57	ISIslide	Neutral	False
550.72	0.25	Win2	0.5763	0.0	Yes	2.73	0.02	n/a	GoodResponse	1	n/a	n/a	6	58	Cue	Win	True
550.971	4.05	Win2	0.5763	0.0	Yes	2.73	0.001	n/a	GoodResponse	1	n/a	n/a	6	58	Fixation	Win	True
555.016	0.44	Win2	0.5763	0.004	Yes	2.73	-0.004	4.0	GoodResponse	1	0.258	554.274	6	58	Target	Win	True
555.274	0.3	Win2	0.5763	0.004	Yes	2.73	-0.004	4.0	GoodResponse	1	0.258	n/a	6	58	ButtonPress	Win	True
555.468	0.26	Win2	0.5763	n/a	Yes	2.73	n/a	n/a	GoodResponse	1	n/a	n/a	6	58	Blank	Win	True
555.718	1.45	Win2	0.5763	n/a	Yes	2.73	n/a	5.0	GoodResponse	1	0.013	554.731	6	58	Feedback	Win	True
557.173	2.73	Win2	0.5763	n/a	Yes	2.73	n/a	n/a	GoodResponse	1	0.0	n/a	6	58	ISIslide	Win	True
559.914	0.25	Lose2	0.5832999999999999	0.0	Yes	2.686	0.014	n/a	GoodResponse	0	n/a	n/a	6	59	Cue	AvoidedLoss	True
560.165	4.0	Lose2	0.5832999999999999	0.0	Yes	2.686	0.001	n/a	GoodResponse	0	n/a	n/a	6	59	Fixation	AvoidedLoss	True
564.16	0.45	Lose2	0.5832999999999999	0.004	Yes	2.686	-0.004	4.0	GoodResponse	0	0.242	563.402	6	59	Target	AvoidedLoss	True
564.402	0.3	Lose2	0.5832999999999999	0.004	Yes	2.686	-0.004	4.0	GoodResponse	0	0.242	n/a	6	59	ButtonPress	AvoidedLoss	True
564.612	0.25	Lose2	0.5832999999999999	n/a	Yes	2.686	n/a	n/a	GoodResponse	0	n/a	n/a	6	59	Blank	AvoidedLoss	True
564.862	1.45	Lose2	0.5832999999999999	n/a	Yes	2.686	n/a	5.0	GoodResponse	0	0.039	563.901	6	59	Feedback	AvoidedLoss	True
566.317	2.686	Lose2	0.5832999999999999	n/a	Yes	2.686	n/a	n/a	GoodResponse	0	0.0	n/a	6	59	ISIslide	AvoidedLoss	True
569.025	0.25	Control	0.5902000000000001	0.0	Yes	2.675	0.025	n/a	GoodResponse	0	n/a	n/a	6	60	Cue	Neutral	True
569.276	4.0	Control	0.5902000000000001	0.0	Yes	2.675	0.001	n/a	GoodResponse	0	n/a	n/a	6	60	Fixation	Neutral	True
573.271	0.46	Control	0.5902000000000001	0.004	Yes	2.675	-0.004	4.0	GoodResponse	0	0.208	572.479	6	60	Target	Neutral	True
573.479	0.3	Control	0.5902000000000001	0.004	Yes	2.675	-0.004	4.0	GoodResponse	0	0.208	n/a	6	60	ButtonPress	Neutral	True
573.739	0.24	Control	0.5902000000000001	n/a	Yes	2.675	n/a	n/a	GoodResponse	0	n/a	n/a	6	60	Blank	Neutral	True
573.973	1.45	Control	0.5902000000000001	n/a	Yes	2.675	n/a	5.0	GoodResponse	0	0.001	572.974	6	60	Feedback	Neutral	True
575.427	2.675	Control	0.5902000000000001	n/a	Yes	2.675	n/a	n/a	GoodResponse	0	0.0	n/a	6	60	ISIslide	Neutral	True
578.119	0.25	Lose2	0.5806	0.0	No	2.981	0.019	n/a	PrematurePress	-1	n/a	n/a	5	61	Cue	Loss	True
578.37	4.0	Lose2	0.5806	0.0	No	2.981	0.001	n/a	PrematurePress	-1	n/a	n/a	5	61	Fixation	Loss	True
582.365	0.47	Lose2	0.5806	0.004	No	2.981	-0.004	4.0	PrematurePress	-1	0.009	581.374	5	61	Target	Loss	True
582.374	0.3	Lose2	0.5806	0.004	No	2.981	-0.004	4.0	PrematurePress	-1	0.009	n/a	5	61	ButtonPress	Loss	True
582.85	0.23	Lose2	0.5806	n/a	No	2.981	n/a	n/a	PrematurePress	-1	n/a	n/a	5	61	Blank	Loss	True
583.067	1.45	Lose2	0.5806	n/a	No	2.981	n/a	5.0	PrematurePress	-1	0.029	582.096	5	61	Feedback	Loss	True
584.521	2.981	Lose2	0.5806	n/a	No	2.981	n/a	n/a	PrematurePress	-1	0.0	n/a	5	61	ISIslide	Loss	True
587.514	0.25	Lose2	0.5872999999999999	0.0	Yes	2.886	0.014	n/a	GoodResponse	0	n/a	n/a	5	62	Cue	AvoidedLoss	True
587.764	3.9	Lose2	0.5872999999999999	0.001	Yes	2.886	0.0	n/a	GoodResponse	0	n/a	n/a	5	62	Fixation	AvoidedLoss	True
591.659	0.48	Lose2	0.5872999999999999	0.005	Yes	2.886	-0.005	4.0	GoodResponse	0	0.213	590.872	5	62	Target	AvoidedLoss	True
591.872	0.3	Lose2	0.5872999999999999	0.005	Yes	2.886	-0.005	4.0	GoodResponse	0	0.213	n/a	5	62	ButtonPress	AvoidedLoss	True
592.144	0.22	Lose2	0.5872999999999999	n/a	Yes	2.886	n/a	n/a	GoodResponse	0	n/a	n/a	5	62	Blank	AvoidedLoss	True
592.362	1.45	Lose2	0.5872999999999999	n/a	Yes	2.886	n/a	5.0	GoodResponse	0	0.004	591.366	5	62	Feedback	AvoidedLoss	True
593.816	2.886	Lose2	0.5872999999999999	n/a	Yes	2.886	n/a	n/a	GoodResponse	0	0.0	n/a	5	62	ISIslide	AvoidedLoss	True
596.725	0.25	Lose2	0.5938	0.0	Yes	2.625	0.025	n/a	GoodResponse	0	n/a	n/a	5	63	Cue	AvoidedLoss	True
596.975	4.05	Lose2	0.5938	0.001	Yes	2.625	0.0	n/a	GoodResponse	0	n/a	n/a	5	63	Fixation	AvoidedLoss	True
601.021	0.49	Lose2	0.5938	0.004	Yes	2.625	-0.004	4.0	GoodResponse	0	0.243	600.264	5	63	Target	AvoidedLoss	True
601.264	0.3	Lose2	0.5938	0.004	Yes	2.625	-0.004	4.0	GoodResponse	0	0.243	n/a	5	63	ButtonPress	AvoidedLoss	True
601.522	0.21	Lose2	0.5938	n/a	Yes	2.625	n/a	n/a	GoodResponse	0	n/a	n/a	5	63	Blank	AvoidedLoss	True
601.723	1.45	Lose2	0.5938	n/a	Yes	2.625	n/a	5.0	GoodResponse	0	0.007	600.73	5	63	Feedback	AvoidedLoss	True
603.177	2.625	Lose2	0.5938	n/a	Yes	2.625	n/a	n/a	GoodResponse	0	0.0	n/a	5	63	ISIslide	AvoidedLoss	True
605.819	0.25	Win2	0.6	0.0	Yes	3.131	0.019	n/a	GoodResponse	1	n/a	n/a	6	64	Cue	Win	True
606.069	4.15	Win2	0.6	0.0	Yes	3.131	0.0	n/a	GoodResponse	1	n/a	n/a	6	64	Fixation	Win	True
610.215	0.5	Win2	0.6	0.004	Yes	3.131	-0.004	4.0	GoodResponse	1	0.211	609.426	6	64	Target	Win	True
610.426	0.3	Win2	0.6	0.004	Yes	3.131	-0.004	4.0	GoodResponse	1	0.211	n/a	6	64	ButtonPress	Win	True
610.717	0.2	Win2	0.6	n/a	Yes	3.131	n/a	n/a	GoodResponse	1	n/a	n/a	6	64	Blank	Win	True
610.917	1.45	Win2	0.6	n/a	Yes	3.131	n/a	5.0	GoodResponse	1	0.033	609.95	6	64	Feedback	Win	True
612.372	3.131	Win2	0.6	n/a	Yes	3.131	n/a	n/a	GoodResponse	1	0.0	n/a	6	64	ISIslide	Win	True
615.514	0.25	Control	0.6061	0.0	Yes	2.786	0.014	n/a	GoodResponse	0	n/a	n/a	6	65	Cue	Neutral	True
615.765	4.0	Control	0.6061	0.0	Yes	2.786	0.001	n/a	GoodResponse	0	n/a	n/a	6	65	Fixation	Neutral	True
619.76	0.5	Control	0.6061	0.004	Yes	2.786	-0.004	4.0	GoodResponse	0	0.225	618.985	6	65	Target	Neutral	True
619.985	0.3	Control	0.6061	0.004	Yes	2.786	-0.004	4.0	GoodResponse	0	0.225	n/a	6	65	ButtonPress	Neutral	True
620.262	0.2	Control	0.6061	n/a	Yes	2.786	n/a	n/a	GoodResponse	0	n/a	n/a	6	65	Blank	Neutral	True
620.463	1.45	Control	0.6061	n/a	Yes	2.786	n/a	5.0	GoodResponse	0	0.048	619.511	6	65	Feedback	Neutral	True
621.917	2.786	Control	0.6061	n/a	Yes	2.786	n/a	n/a	GoodResponse	0	0.0	n/a	6	65	ISIslide	Neutral	True
624.725	0.25	Win2	0.6119	0.0	Yes	2.775	0.025	n/a	GoodResponse	1	n/a	n/a	7	66	Cue	Win	True
624.976	3.9	Win2	0.6119	0.0	Yes	2.775	0.001	n/a	GoodResponse	1	n/a	n/a	7	66	Fixation	Win	True
628.871	0.5	Win2	0.6119	0.004	Yes	2.775	-0.004	4.0	GoodResponse	1	0.238	628.109	7	66	Target	Win	True
629.109	0.3	Win2	0.6119	0.004	Yes	2.775	-0.004	4.0	GoodResponse	1	0.238	n/a	7	66	ButtonPress	Win	True
629.373	0.2	Win2	0.6119	n/a	Yes	2.775	n/a	n/a	GoodResponse	1	n/a	n/a	7	66	Blank	Win	True
629.573	1.45	Win2	0.6119	n/a	Yes	2.775	n/a	5.0	GoodResponse	1	0.011	628.584	7	66	Feedback	Win	True
631.028	2.775	Win2	0.6119	n/a	Yes	2.775	n/a	n/a	GoodResponse	1	0.0	n/a	7	66	ISIslide	Win	True
633.819	0.25	Control	0.6029	0.0	No	2.731	0.019	n/a	NoResponse	0	n/a	n/a	7	67	Cue	Neutral	False
634.07	3.95	Control	0.6029	0.0	No	2.731	0.001	n/a	NoResponse	0	n/a	n/a	7	67	Fixation	Neutral	False
638.015	0.5	Control	0.6029	0.004	No	2.731	-0.004	n/a	NoResponse	0	n/a	n/a	7	67	Target	Neutral	False
638.517	0.2	Control	0.6029	n/a	No	2.731	n/a	n/a	NoResponse	0	n/a	n/a	7	67	Blank	Neutral	False
638.717	1.45	Control	0.6029	n/a	No	2.731	n/a	5.0	NoResponse	0	0.038	637.755	7	67	Feedback	Neutral	False
640.172	2.731	Control	0.6029	n/a	No	2.731	n/a	n/a	NoResponse	0	0.0	n/a	7	67	ISIslide	Neutral	False
642.913	0.25	Win2	0.6087	0.0	Yes	3.087	0.013	n/a	GoodResponse	1	n/a	n/a	8	68	Cue	Win	True
643.164	4.0	Win2	0.6087	0.0	Yes	3.087	0.001	n/a	GoodResponse	1	n/a	n/a	8	68	Fixation	Win	True
647.159	0.5	Win2	0.6087	0.004	Yes	3.087	-0.004	4.0	GoodResponse	1	0.227	646.386	8	68	Target	Win	True
647.386	0.3	Win2	0.6087	0.004	Yes	3.087	-0.004	4.0	GoodResponse	1	0.227	n/a	8	68	ButtonPress	Win	True
647.661	0.2	Win2	0.6087	n/a	Yes	3.087	n/a	n/a	GoodResponse	1	n/a	n/a	8	68	Blank	Win	True
647.861	1.45	Win2	0.6087	n/a	Yes	3.087	n/a	5.0	GoodResponse	1	0.016	646.877	8	68	Feedback	Win	True
649.316	3.087	Win2	0.6087	n/a	Yes	3.087	n/a	n/a	GoodResponse	1	0.0	n/a	8	68	ISIslide	Win	True
652.425	0.25	Win2	0.6143	0.0	Yes	3.225	0.025	n/a	GoodResponse	1	n/a	n/a	9	69	Cue	Win	True
652.676	3.95	Win2	0.6143	0.0	Yes	3.225	0.001	n/a	GoodResponse	1	n/a	n/a	9	69	Fixation	Win	True
656.621	0.5	Win2	0.6143	0.004	Yes	3.225	-0.004	4.0	GoodResponse	1	0.226	655.847	9	69	Target	Win	True
656.847	0.3	Win2	0.6143	0.004	Yes	3.225	-0.004	4.0	GoodResponse	1	0.226	n/a	9	69	ButtonPress	Win	True
657.123	0.2	Win2	0.6143	n/a	Yes	3.225	n/a	n/a	GoodResponse	1	n/a	n/a	9	69	Blank	Win	True
657.323	1.45	Win2	0.6143	n/a	Yes	3.225	n/a	5.0	GoodResponse	1	0.016	656.339	9	69	Feedback	Win	True
658.777	3.225	Win2	0.6143	n/a	Yes	3.225	n/a	n/a	GoodResponse	1	0.0	n/a	9	69	ISIslide	Win	True
662.021	0.25	Lose2	0.6197	0.0	Yes	3.029	0.021	n/a	GoodResponse	0	n/a	n/a	9	70	Cue	AvoidedLoss	True
662.271	4.05	Lose2	0.6197	0.0	Yes	3.029	0.0	n/a	GoodResponse	0	n/a	n/a	9	70	Fixation	AvoidedLoss	True
666.317	0.5	Lose2	0.6197	0.004	Yes	3.029	-0.004	4.0	GoodResponse	0	0.206	665.523	9	70	Target	AvoidedLoss	True
666.523	0.3	Lose2	0.6197	0.004	Yes	3.029	-0.004	4.0	GoodResponse	0	0.206	n/a	9	70	ButtonPress	AvoidedLoss	True
666.818	0.2	Lose2	0.6197	n/a	Yes	3.029	n/a	n/a	GoodResponse	0	n/a	n/a	9	70	Blank	AvoidedLoss	True
667.019	1.45	Lose2	0.6197	n/a	Yes	3.029	n/a	5.0	GoodResponse	0	0.028	666.047	9	70	Feedback	AvoidedLoss	True
668.473	3.029	Lose2	0.6197	n/a	Yes	3.029	n/a	n/a	GoodResponse	0	0.0	n/a	9	70	ISIslide	AvoidedLoss	True
671.516	0.25	Win2	0.625	0.0	Yes	2.734	0.016	n/a	GoodResponse	1	n/a	n/a	10	71	Cue	Win	True
671.766	4.05	Win2	0.625	0.001	Yes	2.734	0.0	n/a	GoodResponse	1	n/a	n/a	10	71	Fixation	Win	True
675.812	0.5	Win2	0.625	0.004	Yes	2.734	-0.004	4.0	GoodResponse	1	0.245	675.057	10	71	Target	Win	True
676.057	0.3	Win2	0.625	0.004	Yes	2.734	-0.004	4.0	GoodResponse	1	0.245	n/a	10	71	ButtonPress	Win	True
676.313	0.2	Win2	0.625	n/a	Yes	2.734	n/a	n/a	GoodResponse	1	n/a	n/a	10	71	Blank	Win	True
676.514	1.45	Win2	0.625	n/a	Yes	2.734	n/a	5.0	GoodResponse	1	0.045	675.559	10	71	Feedback	Win	True
677.968	2.734	Win2	0.625	n/a	Yes	2.734	n/a	n/a	GoodResponse	1	0.0	n/a	10	71	ISIslide	Win	True
680.727	0.25	Win2	0.6301	0.0	Yes	2.773	0.027	n/a	GoodResponse	1	n/a	n/a	11	72	Cue	Win	True
680.977	4.1	Win2	0.6301	0.001	Yes	2.773	0.0	n/a	GoodResponse	1	n/a	n/a	11	72	Fixation	Win	True
685.073	0.5	Win2	0.6301	0.004	Yes	2.773	-0.004	4.0	GoodResponse	1	0.195	684.268	11	72	Target	Win	True
685.268	0.3	Win2	0.6301	0.004	Yes	2.773	-0.004	4.0	GoodResponse	1	0.195	n/a	11	72	ButtonPress	Win	True
685.575	0.2	Win2	0.6301	n/a	Yes	2.773	n/a	n/a	GoodResponse	1	n/a	n/a	11	72	Blank	Win	True
685.775	1.45	Win2	0.6301	n/a	Yes	2.773	n/a	5.0	GoodResponse	1	0.005	684.78	11	72	Feedback	Win	True
687.229	2.773	Win2	0.6301	n/a	Yes	2.773	n/a	n/a	GoodResponse	1	0.0	n/a	11	72	ISIslide	Win	True
690.021	0.25	Win2	0.6351	0.0	Yes	2.679	0.021	n/a	GoodResponse	1	n/a	n/a	12	73	Cue	Win	True
690.272	4.0	Win2	0.6351	0.0	Yes	2.679	0.001	n/a	GoodResponse	1	n/a	n/a	12	73	Fixation	Win	True
694.267	0.5	Win2	0.6351	0.004	Yes	2.679	-0.004	4.0	GoodResponse	1	0.271	693.538	12	73	Target	Win	True
694.538	0.3	Win2	0.6351	0.004	Yes	2.679	-0.004	4.0	GoodResponse	1	0.271	n/a	12	73	ButtonPress	Win	True
694.769	0.2	Win2	0.6351	n/a	Yes	2.679	n/a	n/a	GoodResponse	1	n/a	n/a	12	73	Blank	Win	True
694.969	1.45	Win2	0.6351	n/a	Yes	2.679	n/a	5.0	GoodResponse	1	0.029	693.998	12	73	Feedback	Win	True
696.424	2.679	Win2	0.6351	n/a	Yes	2.679	n/a	n/a	GoodResponse	1	0.0	n/a	12	73	ISIslide	Win	True
699.115	0.25	Lose2	0.64	0.0	Yes	2.635	0.015	n/a	GoodResponse	0	n/a	n/a	12	74	Cue	AvoidedLoss	True
699.366	4.05	Lose2	0.64	0.0	Yes	2.635	0.001	n/a	GoodResponse	0	n/a	n/a	12	74	Fixation	AvoidedLoss	True
703.411	0.5	Lose2	0.64	0.004	Yes	2.635	-0.004	4.0	GoodResponse	0	0.264	702.675	12	74	Target	AvoidedLoss	True
703.675	0.3	Lose2	0.64	0.004	Yes	2.635	-0.004	4.0	GoodResponse	0	0.264	n/a	12	74	ButtonPress	AvoidedLoss	True
703.913	0.2	Lose2	0.64	n/a	Yes	2.635	n/a	n/a	GoodResponse	0	n/a	n/a	12	74	Blank	AvoidedLoss	True
704.113	1.45	Lose2	0.64	n/a	Yes	2.635	n/a	5.0	GoodResponse	0	0.007	703.12	12	74	Feedback	AvoidedLoss	True
705.568	2.635	Lose2	0.64	n/a	Yes	2.635	n/a	n/a	GoodResponse	0	0.0	n/a	12	74	ISIslide	AvoidedLoss	True
708.226	0.25	Lose2	0.6446999999999999	0.0	Yes	2.924	0.026	n/a	GoodResponse	0	n/a	n/a	12	75	Cue	AvoidedLoss	True
708.477	3.95	Lose2	0.6446999999999999	0.0	Yes	2.924	0.001	n/a	GoodResponse	0	n/a	n/a	12	75	Fixation	AvoidedLoss	True
712.422	0.5	Lose2	0.6446999999999999	0.004	Yes	2.924	-0.004	4.0	GoodResponse	0	0.267	711.689	12	75	Target	AvoidedLoss	True
712.689	0.3	Lose2	0.6446999999999999	0.004	Yes	2.924	-0.004	4.0	GoodResponse	0	0.267	n/a	12	75	ButtonPress	AvoidedLoss	True
712.923	0.2	Lose2	0.6446999999999999	n/a	Yes	2.924	n/a	n/a	GoodResponse	0	n/a	n/a	12	75	Blank	AvoidedLoss	True
713.124	1.45	Lose2	0.6446999999999999	n/a	Yes	2.924	n/a	5.0	GoodResponse	0	0.021	712.145	12	75	Feedback	AvoidedLoss	True
714.578	2.924	Lose2	0.6446999999999999	n/a	Yes	2.924	n/a	n/a	GoodResponse	0	0.0	n/a	12	75	ISIslide	AvoidedLoss	True
717.52	0.25	Control	0.6364	0.0	No	3.23	0.02	n/a	NoResponse	0	n/a	n/a	12	76	Cue	Neutral	False
717.771	4.05	Control	0.6364	0.0	No	3.23	0.001	n/a	NoResponse	0	n/a	n/a	12	76	Fixation	Neutral	False
721.817	0.5	Control	0.6364	0.003	No	3.23	-0.003	n/a	NoResponse	0	n/a	n/a	12	76	Target	Neutral	False
722.318	0.2	Control	0.6364	n/a	No	3.23	n/a	n/a	NoResponse	0	n/a	n/a	12	76	Blank	Neutral	False
722.519	1.45	Control	0.6364	n/a	No	3.23	n/a	5.0	NoResponse	0	0.041	721.56	12	76	Feedback	Neutral	False
723.973	3.23	Control	0.6364	n/a	No	3.23	n/a	n/a	NoResponse	0	0.0	n/a	12	76	ISIslide	Neutral	False
727.216	0.25	Lose2	0.6409999999999999	0.0	Yes	2.584	0.016	n/a	GoodResponse	0	n/a	n/a	12	77	Cue	AvoidedLoss	True
727.467	3.95	Lose2	0.6409999999999999	0.0	Yes	2.584	0.001	n/a	GoodResponse	0	n/a	n/a	12	77	Fixation	AvoidedLoss	True
731.412	0.5	Lose2	0.6409999999999999	0.004	Yes	2.584	-0.004	4.0	GoodResponse	0	0.235	730.647	12	77	Target	AvoidedLoss	True
731.647	0.3	Lose2	0.6409999999999999	0.004	Yes	2.584	-0.004	4.0	GoodResponse	0	0.235	n/a	12	77	ButtonPress	AvoidedLoss	True
731.914	0.2	Lose2	0.6409999999999999	n/a	Yes	2.584	n/a	n/a	GoodResponse	0	n/a	n/a	12	77	Blank	AvoidedLoss	True
732.114	1.45	Lose2	0.6409999999999999	n/a	Yes	2.584	n/a	5.0	GoodResponse	0	0.006	731.12	12	77	Feedback	AvoidedLoss	True
733.569	2.584	Lose2	0.6409999999999999	n/a	Yes	2.584	n/a	n/a	GoodResponse	0	0.0	n/a	12	77	ISIslide	AvoidedLoss	True
