onset	duration	cue_type	current_mean_accuracy	duration_error	is_hit	isi_adjusted	onset_delay	response	response_type	reward	rt	rt_time	total_reward	trial_number	trial_phase	trial_type	one_press
11.111	0.25	Control	1.0	0.0	Yes	2.939	0.011	n/a	GoodResponse	0	n/a	n/a	0	0	Cue	Neutral	False
11.362	3.85	Control	1.0	0.0	Yes	2.939	0.001	4.0	GoodResponse	0	0.365	10.727	0	0	Fixation	Neutral	False
11.727	0.3	Control	1.0	0.0	Yes	2.939	0.001	4.0	GoodResponse	0	0.365	n/a	0	0	ButtonPress	Neutral	False
15.207	0.4	Control	1.0	0.004	Yes	2.939	-0.004	4.0	GoodResponse	0	0.258	14.465	0	0	Target	Neutral	False
15.465	0.3	Control	1.0	0.004	Yes	2.939	-0.004	4.0	GoodResponse	0	0.258	n/a	0	0	ButtonPress	Neutral	False
15.608	0.3	Control	1.0	n/a	Yes	2.939	n/a	n/a	GoodResponse	0	n/a	n/a	0	0	Blank	Neutral	False
15.909	1.45	Control	1.0	n/a	Yes	2.939	n/a	5.0	GoodResponse	0	0.018	14.927	0	0	Feedback	Neutral	False
17.363	2.939	Control	1.0	n/a	Yes	2.939	n/a	n/a	GoodResponse	0	0.0	n/a	0	0	ISIslide	Neutral	False
20.322	0.25	Lose2	1.0	0.0	Yes	2.778	0.022	n/a	GoodResponse	0	n/a	n/a	0	1	Cue	AvoidedLoss	True
20.573	4.0	Lose2	1.0	0.0	Yes	2.778	0.001	n/a	GoodResponse	0	n/a	n/a	0	1	Fixation	AvoidedLoss	True
24.568	0.39	Lose2	1.0	0.004	Yes	2.778	-0.004	4.0	GoodResponse	0	0.216	23.784	0	1	Target	AvoidedLoss	True
24.784	0.3	Lose2	1.0	0.004	Yes	2.778	-0.004	4.0	GoodResponse	0	0.216	n/a	0	1	ButtonPress	AvoidedLoss	True
24.969	0.31	Lose2	1.0	n/a	Yes	2.778	n/a	n/a	GoodResponse	0	n/a	n/a	0	1	Blank	AvoidedLoss	True
25.27	1.45	Lose2	1.0	n/a	Yes	2.778	n/a	5.0	GoodResponse	0	0.022	24.292	0	1	Feedback	AvoidedLoss	True
26.724	2.778	Lose2	1.0	n/a	Yes	2.778	n/a	n/a	GoodResponse	0	0.0	n/a	0	1	ISIslide	AvoidedLoss	True
29.516	0.25	Control	1.0	0.0	Yes	2.584	0.016	n/a	GoodResponse	0	n/a	n/a	0	2	Cue	Neutral	True
29.767	4.1	Control	1.0	0.0	Yes	2.584	0.001	n/a	GoodResponse	0	n/a	n/a	0	2	Fixation	Neutral	True
33.862	0.38	Control	1.0	0.004	Yes	2.584	-0.004	4.0	GoodResponse	0	0.19	33.052	0	2	Target	Neutral	True
34.052	0.3	Control	1.0	0.004	Yes	2.584	-0.004	4.0	GoodResponse	0	0.19	n/a	0	2	ButtonPress	Neutral	True
34.247	0.32	Control	1.0	n/a	Yes	2.584	n/a	n/a	GoodResponse	0	n/a	n/a	0	2	Blank	Neutral	True
34.565	1.45	Control	1.0	n/a	Yes	2.584	n/a	5.0	GoodResponse	0	0.044	33.609	0	2	Feedback	Neutral	True
36.019	2.584	Control	1.0	n/a	Yes	2.584	n/a	n/a	GoodResponse	0	0.0	n/a	0	2	ISIslide	Neutral	True
38.627	0.25	Win2	1.0	0.0	Yes	2.823	0.027	n/a	GoodResponse	1	n/a	n/a	1	3	Cue	Win	True
38.877	3.95	Win2	1.0	0.001	Yes	2.823	0.0	n/a	GoodResponse	1	n/a	n/a	1	3	Fixation	Win	True
42.823	0.37	Win2	1.0	0.004	Yes	2.823	-0.004	4.0	GoodResponse	1	0.187	42.01	1	3	Target	Win	True
43.01	0.3	Win2	1.0	0.004	Yes	2.823	-0.004	4.0	GoodResponse	1	0.187	n/a	1	3	ButtonPress	Win	True
43.207	0.33	Win2	1.0	n/a	Yes	2.823	n/a	n/a	GoodResponse	1	n/a	n/a	1	3	Blank	Win	True
43.525	1.45	Win2	1.0	n/a	Yes	2.823	n/a	5.0	GoodResponse	1	0.011	42.536	1	3	Feedback	Win	True
44.979	2.823	Win2	1.0	n/a	Yes	2.823	n/a	n/a	GoodResponse	1	0.0	n/a	1	3	ISIslide	Win	True
47.821	0.25	Win2	1.0	0.0	Yes	3.279	0.021	n/a	GoodResponse	1	n/a	n/a	2	4	Cue	Win	True
48.072	4.0	Win2	1.0	0.0	Yes	3.279	0.001	n/a	GoodResponse	1	n/a	n/a	2	4	Fixation	Win	True
52.067	0.36	Win2	1.0	0.004	Yes	3.279	-0.004	4.0	GoodResponse	1	0.187	51.254	2	4	Target	Win	True
52.254	0.3	Win2	1.0	0.004	Yes	3.279	-0.004	4.0	GoodResponse	1	0.187	n/a	2	4	ButtonPress	Win	True
52.435	0.34	Win2	1.0	n/a	Yes	3.279	n/a	n/a	GoodResponse	1	n/a	n/a	2	4	Blank	Win	True
52.769	1.45	Win2	1.0	n/a	Yes	3.279	n/a	5.0	GoodResponse	1	0.035	51.804	2	4	Feedback	Win	True
54.223	3.279	Win2	1.0	n/a	Yes	3.279	n/a	n/a	GoodResponse	1	0.0	n/a	2	4	ISIslide	Win	True
57.516	0.25	Win2	1.0	0.001	Yes	2.784	0.016	n/a	GoodResponse	1	n/a	n/a	3	5	Cue	Win	True
57.767	4.0	Win2	1.0	0.0	Yes	2.784	0.001	n/a	GoodResponse	1	n/a	n/a	3	5	Fixation	Win	True
61.762	0.35	Win2	1.0	0.004	Yes	2.784	-0.004	4.0	GoodResponse	1	0.197	60.959	3	5	Target	Win	True
61.959	0.3	Win2	1.0	0.004	Yes	2.784	-0.004	4.0	GoodResponse	1	0.197	n/a	3	5	ButtonPress	Win	True
62.114	0.35	Win2	1.0	n/a	Yes	2.784	n/a	n/a	GoodResponse	1	n/a	n/a	3	5	Blank	Win	True
62.465	1.45	Win2	1.0	n/a	Yes	2.784	n/a	5.0	GoodResponse	1	0.047	61.512	3	5	Feedback	Win	True
63.919	2.784	Win2	1.0	n/a	Yes	2.784	n/a	n/a	GoodResponse	1	0.0	n/a	3	5	ISIslide	Win	True
66.727	0.25	Lose2	1.0	0.0	Yes	2.723	0.027	n/a	GoodResponse	0	n/a	n/a	3	6	Cue	AvoidedLoss	True
66.978	3.95	Lose2	1.0	0.0	Yes	2.723	0.001	n/a	GoodResponse	0	n/a	n/a	3	6	Fixation	AvoidedLoss	True
70.923	0.34	Lose2	1.0	0.004	Yes	2.723	-0.004	4.0	GoodResponse	0	0.184	70.107	3	6	Target	AvoidedLoss	True
71.107	0.3	Lose2	1.0	0.004	Yes	2.723	-0.004	4.0	GoodResponse	0	0.184	n/a	3	6	ButtonPress	AvoidedLoss	True
71.274	0.36	Lose2	1.0	n/a	Yes	2.723	n/a	n/a	GoodResponse	0	n/a	n/a	3	6	Blank	AvoidedLoss	True
71.625	1.45	Lose2	1.0	n/a	Yes	2.723	n/a	5.0	GoodResponse	0	0.008	70.633	3	6	Feedback	AvoidedLoss	True
73.08	2.723	Lose2	1.0	n/a	Yes	2.723	n/a	n/a	GoodResponse	0	0.0	n/a	3	6	ISIslide	AvoidedLoss	True
75.821	0.25	Lose2	1.0	0.0	Yes	4.029	0.021	n/a	GoodResponse	0	n/a	n/a	3	7	Cue	AvoidedLoss	True
76.072	4.05	Lose2	1.0	0.0	Yes	4.029	0.001	n/a	GoodResponse	0	n/a	n/a	3	7	Fixation	AvoidedLoss	True
80.117	0.33	Lose2	1.0	0.004	Yes	4.029	-0.004	4.0	GoodResponse	0	0.168	79.285	3	7	Target	AvoidedLoss	True
80.285	0.3	Lose2	1.0	0.004	Yes	4.029	-0.004	4.0	GoodResponse	0	0.168	n/a	3	7	ButtonPress	AvoidedLoss	True
80.452	0.37	Lose2	1.0	n/a	Yes	4.029	n/a	n/a	GoodResponse	0	n/a	n/a	3	7	Blank	AvoidedLoss	True
80.819	1.45	Lose2	1.0	n/a	Yes	4.029	n/a	5.0	GoodResponse	0	0.034	79.853	3	7	Feedback	AvoidedLoss	True
82.274	4.029	Lose2	1.0	n/a	Yes	4.029	n/a	n/a	GoodResponse	0	0.0	n/a	3	7	ISIslide	AvoidedLoss	True
86.319	0.25	Lose2	1.0	0.0	Yes	3.031	0.019	n/a	GoodResponse	0	n/a	n/a	3	8	Cue	AvoidedLoss	True
86.57	3.95	Lose2	1.0	0.0	Yes	3.031	0.001	n/a	GoodResponse	0	n/a	n/a	3	8	Fixation	AvoidedLoss	True
90.515	0.32	Lose2	1.0	0.004	Yes	3.031	-0.004	4.0	GoodResponse	0	0.198	89.713	3	8	Target	AvoidedLoss	True
90.713	0.3	Lose2	1.0	0.004	Yes	3.031	-0.004	4.0	GoodResponse	0	0.198	n/a	3	8	ButtonPress	AvoidedLoss	True
90.849	0.38	Lose2	1.0	n/a	Yes	3.031	n/a	n/a	GoodResponse	0	n/a	n/a	3	8	Blank	AvoidedLoss	True
91.217	1.45	Lose2	1.0	n/a	Yes	3.031	n/a	5.0	GoodResponse	0	0.026	90.243	3	8	Feedback	AvoidedLoss	True
92.672	3.031	Lose2	1.0	n/a	Yes	3.031	n/a	n/a	GoodResponse	0	0.0	n/a	3	8	ISIslide	AvoidedLoss	True
95.731	0.25	Lose2	1.0	0.0	Yes	3.119	0.031	n/a	GoodResponse	0	n/a	n/a	3	9	Cue	AvoidedLoss	True
95.981	3.95	Lose2	1.0	0.001	Yes	3.119	0.0	n/a	GoodResponse	0	n/a	n/a	3	9	Fixation	AvoidedLoss	True
99.927	0.31	Lose2	1.0	0.004	Yes	3.119	-0.004	4.0	GoodResponse	0	0.178	99.105	3	9	Target	AvoidedLoss	True
100.105	0.3	Lose2	1.0	0.004	Yes	3.119	-0.004	4.0	GoodResponse	0	0.178	n/a	3	9	ButtonPress	AvoidedLoss	True
100.244	0.39	Lose2	1.0	n/a	Yes	3.119	n/a	n/a	GoodResponse	0	n/a	n/a	3	9	Blank	AvoidedLoss	True
100.629	1.45	Lose2	1.0	n/a	Yes	3.119	n/a	5.0	GoodResponse	0	0.029	99.658	3	9	Feedback	AvoidedLoss	True
102.083	3.119	Lose2	1.0	n/a	Yes	3.119	n/a	n/a	GoodResponse	0	0.0	n/a	3	9	ISIslide	AvoidedLoss	True
105.226	0.25	Control	1.0	0.0	Yes	3.274	0.026	n/a	GoodResponse	0	n/a	n/a	3	10	Cue	Neutral	True
105.477	4.0	Control	1.0	0.0	Yes	3.274	0.001	n/a	GoodResponse	0	n/a	n/a	3	10	Fixation	Neutral	True
109.472	0.3	Control	1.0	0.004	Yes	3.274	-0.004	4.0	GoodResponse	0	0.159	108.631	3	10	Target	Neutral	True
109.631	0.3	Control	1.0	0.004	Yes	3.274	-0.004	4.0	GoodResponse	0	0.159	n/a	3	10	ButtonPress	Neutral	True
109.773	0.4	Control	1.0	n/a	Yes	3.274	n/a	n/a	GoodResponse	0	n/a	n/a	3	10	Blank	Neutral	True
110.174	1.45	Control	1.0	n/a	Yes	3.274	n/a	5.0	GoodResponse	0	0.044	109.218	3	10	Feedback	Neutral	True
111.628	3.274	Control	1.0	n/a	Yes	3.274	n/a	n/a	GoodResponse	0	0.0	n/a	3	10	ISIslide	Neutral	True
114.921	0.25	Lose2	0.9167000000000001	0.001	No	2.729	0.021	n/a	NoResponse	-1	n/a	n/a	2	11	Cue	Loss	False
115.172	4.05	Lose2	0.9167000000000001	0.0	No	2.729	0.001	4.0	NoResponse	-1	3.96	118.132	2	11	Fixation	Loss	False
119.132	0.3	Lose2	0.9167000000000001	0.0	No	2.729	0.001	4.0	NoResponse	-1	3.96	n/a	2	11	ButtonPress	Loss	False
119.218	0.29	Lose2	0.9167000000000001	0.003	No	2.729	-0.003	4.0	NoResponse	-1	0.633	118.851	2	11	Target	Loss	False
119.519	0.41	Lose2	0.9167000000000001	n/a	No	2.729	n/a	n/a	NoResponse	-1	n/a	n/a	2	11	Blank	Loss	False
119.851	0.3	Lose2	0.9167000000000001	0.003	No	2.729	-0.003	4.0	NoResponse	-1	0.633	n/a	2	11	ButtonPress	Loss	False
119.92	1.45	Lose2	0.9167000000000001	n/a	No	2.729	n/a	5.0	NoResponse	-1	0.007	118.927	2	11	Feedback	Loss	False
121.374	2.729	Lose2	0.9167000000000001	n/a	No	2.729	n/a	n/a	NoResponse	-1	0.0	n/a	2	11	ISIslide	Loss	False
124.116	0.25	Control	0.9231	0.0	Yes	2.984	0.016	n/a	GoodResponse	0	n/a	n/a	2	12	Cue	Neutral	True
124.366	3.9	Control	0.9231	0.0	Yes	2.984	0.0	n/a	GoodResponse	0	n/a	n/a	2	12	Fixation	Neutral	True
128.278	0.28	Control	0.9231	0.0	Yes	2.984	0.012	4.0	GoodResponse	0	0.208	127.486	2	12	Target	Neutral	True
128.486	0.3	Control	0.9231	0.0	Yes	2.984	0.012	4.0	GoodResponse	0	0.208	n/a	2	12	ButtonPress	Neutral	True
128.546	0.42	Control	0.9231	n/a	Yes	2.984	n/a	n/a	GoodResponse	0	n/a	n/a	2	12	Blank	Neutral	True
128.963	1.45	Control	0.9231	n/a	Yes	2.984	n/a	5.0	GoodResponse	0	0.035	127.998	2	12	Feedback	Neutral	True
130.418	2.984	Control	0.9231	n/a	Yes	2.984	n/a	n/a	GoodResponse	0	0.0	n/a	2	12	ISIslide	Neutral	True
133.427	0.25	Control	0.9286	0.0	Yes	2.773	0.027	n/a	GoodResponse	0	n/a	n/a	2	13	Cue	Neutral	True
133.678	4.0	Control	0.9286	0.0	Yes	2.773	0.001	n/a	GoodResponse	0	n/a	n/a	2	13	Fixation	Neutral	True
137.673	0.27	Control	0.9286	0.004	Yes	2.773	-0.004	4.0	GoodResponse	0	0.223	136.896	2	13	Target	Neutral	True
137.896	0.3	Control	0.9286	0.004	Yes	2.773	-0.004	4.0	GoodResponse	0	0.223	n/a	2	13	ButtonPress	Neutral	True
137.957	0.43	Control	0.9286	n/a	Yes	2.773	n/a	n/a	GoodResponse	0	n/a	n/a	2	13	Blank	Neutral	True
138.375	1.45	Control	0.9286	n/a	Yes	2.773	n/a	5.0	GoodResponse	0	0.038	137.413	2	13	Feedback	Neutral	True
139.829	2.773	Control	0.9286	n/a	Yes	2.773	n/a	n/a	GoodResponse	0	0.0	n/a	2	13	ISIslide	Neutral	True
142.621	0.25	Win2	0.9333	0.0	Yes	2.679	0.021	n/a	GoodResponse	1	n/a	n/a	3	14	Cue	Win	True
142.872	4.1	Win2	0.9333	0.0	Yes	2.679	0.001	n/a	GoodResponse	1	n/a	n/a	3	14	Fixation	Win	True
146.967	0.26	Win2	0.9333	0.004	Yes	2.679	-0.004	4.0	GoodResponse	1	0.18	146.147	3	14	Target	Win	True
147.147	0.3	Win2	0.9333	0.004	Yes	2.679	-0.004	4.0	GoodResponse	1	0.18	n/a	3	14	ButtonPress	Win	True
147.235	0.44	Win2	0.9333	n/a	Yes	2.679	n/a	n/a	GoodResponse	1	n/a	n/a	3	14	Blank	Win	True
147.669	1.45	Win2	0.9333	n/a	Yes	2.679	n/a	5.0	GoodResponse	1	0.013	146.682	3	14	Feedback	Win	True
149.124	2.679	Win2	0.9333	n/a	Yes	2.679	n/a	n/a	GoodResponse	1	0.0	n/a	3	14	ISIslide	Win	True
151.815	0.25	Control	0.9375	0.0	Yes	2.985	0.015	n/a	GoodResponse	0	n/a	n/a	3	15	Cue	Neutral	True
152.066	4.0	Control	0.9375	0.0	Yes	2.985	0.001	n/a	GoodResponse	0	n/a	n/a	3	15	Fixation	Neutral	True
156.061	0.25	Control	0.9375	0.004	Yes	2.985	-0.004	4.0	GoodResponse	0	0.213	155.274	3	15	Target	Neutral	True
156.274	0.3	Control	0.9375	0.004	Yes	2.985	-0.004	4.0	GoodResponse	0	0.213	n/a	3	15	ButtonPress	Neutral	True
156.312	0.45	Control	0.9375	n/a	Yes	2.985	n/a	n/a	GoodResponse	0	n/a	n/a	3	15	Blank	Neutral	True
156.763	1.45	Control	0.9375	n/a	Yes	2.985	n/a	5.0	GoodResponse	0	0.04	155.803	3	15	Feedback	Neutral	True
158.218	2.985	Control	0.9375	n/a	Yes	2.985	n/a	n/a	GoodResponse	0	0.0	n/a	3	15	ISIslide	Neutral	True
161.227	0.25	Win2	0.9412	0.0	Yes	2.873	0.027	n/a	GoodResponse	1	n/a	n/a	4	16	Cue	Win	True
161.477	4.0	Win2	0.9412	0.0	Yes	2.873	0.0	n/a	GoodResponse	1	n/a	n/a	4	16	Fixation	Win	True
165.473	0.24	Win2	0.9412	0.004	Yes	2.873	-0.004	4.0	GoodResponse	1	0.183	164.656	4	16	Target	Win	True
165.656	0.3	Win2	0.9412	0.004	Yes	2.873	-0.004	4.0	GoodResponse	1	0.183	n/a	4	16	ButtonPress	Win	True
165.723	0.46	Win2	0.9412	n/a	Yes	2.873	n/a	n/a	GoodResponse	1	n/a	n/a	4	16	Blank	Win	True
166.175	1.45	Win2	0.9412	n/a	Yes	2.873	n/a	5.0	GoodResponse	1	0.042	165.217	4	16	Feedback	Win	True
167.629	2.873	Win2	0.9412	n/a	Yes	2.873	n/a	n/a	GoodResponse	1	0.0	n/a	4	16	ISIslide	Win	True
170.521	0.25	Lose2	0.9444	0.0	Yes	2.729	0.021	n/a	GoodResponse	0	n/a	n/a	4	17	Cue	AvoidedLoss	True
170.772	3.95	Lose2	0.9444	0.0	Yes	2.729	0.001	n/a	GoodResponse	0	n/a	n/a	4	17	Fixation	AvoidedLoss	True
174.717	0.23	Lose2	0.9444	0.004	Yes	2.729	-0.004	4.0	GoodResponse	0	0.18	173.897	4	17	Target	AvoidedLoss	True
174.897	0.3	Lose2	0.9444	0.004	Yes	2.729	-0.004	4.0	GoodResponse	0	0.18	n/a	4	17	ButtonPress	AvoidedLoss	True
174.951	0.47	Lose2	0.9444	n/a	Yes	2.729	n/a	n/a	GoodResponse	0	n/a	n/a	4	17	Blank	AvoidedLoss	True
175.419	1.45	Lose2	0.9444	n/a	Yes	2.729	n/a	5.0	GoodResponse	0	0.018	174.437	4	17	Feedback	AvoidedLoss	True
176.873	2.729	Lose2	0.9444	n/a	Yes	2.729	n/a	n/a	GoodResponse	0	0.0	n/a	4	17	ISIslide	AvoidedLoss	True
179.615	0.25	Lose2	0.9473999999999999	0.0	Yes	2.735	0.015	n/a	GoodResponse	0	n/a	n/a	4	18	Cue	AvoidedLoss	True
179.866	4.05	Lose2	0.9473999999999999	0.0	Yes	2.735	0.001	n/a	GoodResponse	0	n/a	n/a	4	18	Fixation	AvoidedLoss	True
183.911	0.22	Lose2	0.9473999999999999	0.004	Yes	2.735	-0.004	4.0	GoodResponse	0	0.186	183.097	4	18	Target	AvoidedLoss	True
184.097	0.3	Lose2	0.9473999999999999	0.004	Yes	2.735	-0.004	4.0	GoodResponse	0	0.186	n/a	4	18	ButtonPress	AvoidedLoss	True
184.145	0.48	Lose2	0.9473999999999999	n/a	Yes	2.735	n/a	n/a	GoodResponse	0	n/a	n/a	4	18	Blank	AvoidedLoss	True
184.613	1.45	Lose2	0.9473999999999999	n/a	Yes	2.735	n/a	5.0	GoodResponse	0	0.044	183.657	4	18	Feedback	AvoidedLoss	True
186.067	2.735	Lose2	0.9473999999999999	n/a	Yes	2.735	n/a	n/a	GoodResponse	0	0.0	n/a	4	18	ISIslide	AvoidedLoss	True
188.826	0.25	Control	0.9	0.0	No	2.924	0.026	n/a	NoResponse	0	n/a	n/a	4	19	Cue	Neutral	True
189.076	3.95	Control	0.9	0.001	No	2.924	0.0	n/a	NoResponse	0	n/a	n/a	4	19	Fixation	Neutral	True
193.022	0.21	Control	0.9	0.004	No	2.924	-0.004	4.0	NoResponse	0	0.225	192.247	4	19	Target	Neutral	True
193.239	0.49	Control	0.9	n/a	No	2.924	n/a	n/a	NoResponse	0	n/a	n/a	4	19	Blank	Neutral	True
193.247	0.3	Control	0.9	0.004	No	2.924	-0.004	4.0	NoResponse	0	0.225	n/a	4	19	ButtonPress	Neutral	True
193.724	1.45	Control	0.9	n/a	No	2.924	n/a	5.0	NoResponse	0	0.007	192.731	4	19	Feedback	Neutral	True
195.178	2.924	Control	0.9	n/a	No	2.924	n/a	n/a	NoResponse	0	0.0	n/a	4	19	ISIslide	Neutral	True
198.12	0.25	Control	0.9048	0.0	Yes	2.63	0.02	n/a	GoodResponse	0	n/a	n/a	4	20	Cue	Neutral	True
198.371	4.05	Control	0.9048	0.0	Yes	2.63	0.001	n/a	GoodResponse	0	n/a	n/a	4	20	Fixation	Neutral	True
202.416	0.2	Control	0.9048	0.004	Yes	2.63	-0.004	4.0	GoodResponse	0	0.183	201.599	4	20	Target	Neutral	True
202.599	0.3	Control	0.9048	0.004	Yes	2.63	-0.004	4.0	GoodResponse	0	0.183	n/a	4	20	ButtonPress	Neutral	True
202.617	0.5	Control	0.9048	n/a	Yes	2.63	n/a	n/a	GoodResponse	0	n/a	n/a	4	20	Blank	Neutral	True
203.118	1.45	Control	0.9048	n/a	Yes	2.63	n/a	5.0	GoodResponse	0	0.026	202.144	4	20	Feedback	Neutral	True
204.573	2.63	Control	0.9048	n/a	Yes	2.63	n/a	n/a	GoodResponse	0	0.0	n/a	4	20	ISIslide	Neutral	True
207.214	0.25	Control	0.9091	0.0	Yes	2.786	0.014	n/a	GoodResponse	0	n/a	n/a	4	21	Cue	Neutral	True
207.465	4.1	Control	0.9091	0.0	Yes	2.786	0.001	n/a	GoodResponse	0	n/a	n/a	4	21	Fixation	Neutral	True
211.56	0.19	Control	0.9091	0.004	Yes	2.786	-0.004	4.0	GoodResponse	0	0.164	210.724	4	21	Target	Neutral	True
211.724	0.3	Control	0.9091	0.004	Yes	2.786	-0.004	4.0	GoodResponse	0	0.164	n/a	4	21	ButtonPress	Neutral	True
211.761	0.51	Control	0.9091	n/a	Yes	2.786	n/a	n/a	GoodResponse	0	n/a	n/a	4	21	Blank	Neutral	True
212.262	1.45	Control	0.9091	n/a	Yes	2.786	n/a	5.0	GoodResponse	0	0.008	211.27	4	21	Feedback	Neutral	True
213.717	2.786	Control	0.9091	n/a	Yes	2.786	n/a	n/a	GoodResponse	0	0.0	n/a	4	21	ISIslide	Neutral	True
216.525	0.25	Control	0.8695999999999999	0.0	No	2.775	0.025	n/a	LatePress	0	n/a	n/a	4	22	Cue	Neutral	True
216.776	4.0	Control	0.8695999999999999	0.0	No	2.775	0.001	n/a	LatePress	0	n/a	n/a	4	22	Fixation	Neutral	True
220.771	0.18	Control	0.8695999999999999	0.004	No	2.775	-0.004	4.0	LatePress	0	0.181	219.952	4	22	Target	Neutral	True
220.952	0.3	Control	0.8695999999999999	0.004	No	2.775	-0.004	4.0	LatePress	0	0.181	n/a	4	22	ButtonPress	Neutral	True
220.955	0.52	Control	0.8695999999999999	n/a	No	2.775	n/a	n/a	LatePress	0	n/a	n/a	4	22	Blank	Neutral	True
221.473	1.45	Control	0.8695999999999999	n/a	No	2.775	n/a	5.0	LatePress	0	0.012	220.485	4	22	Feedback	Neutral	True
222.928	2.775	Control	0.8695999999999999	n/a	No	2.775	n/a	n/a	LatePress	0	0.0	n/a	4	22	ISIslide	Neutral	True
225.719	0.25	Control	0.8332999999999999	0.0	No	2.781	0.019	n/a	LatePress	0	n/a	n/a	4	23	Cue	Neutral	True
225.97	3.9	Control	0.8332999999999999	0.0	No	2.781	0.001	n/a	LatePress	0	n/a	n/a	4	23	Fixation	Neutral	True
229.865	0.17	Control	0.8332999999999999	0.004	No	2.781	-0.004	4.0	LatePress	0	0.176	229.041	4	23	Target	Neutral	True
230.041	0.3	Control	0.8332999999999999	0.004	No	2.781	-0.004	4.0	LatePress	0	0.176	n/a	4	23	ButtonPress	Neutral	True
230.049	0.53	Control	0.8332999999999999	n/a	No	2.781	n/a	n/a	LatePress	0	n/a	n/a	4	23	Blank	Neutral	True
230.567	1.45	Control	0.8332999999999999	n/a	No	2.781	n/a	5.0	LatePress	0	0.04	229.607	4	23	Feedback	Neutral	True
232.022	2.781	Control	0.8332999999999999	n/a	No	2.781	n/a	n/a	LatePress	0	0.0	n/a	4	23	ISIslide	Neutral	True
234.83	0.25	Win2	0.8	0.0	No	3.12	0.03	n/a	NoResponse	0	n/a	n/a	4	24	Cue	MissedWin	True
235.081	3.95	Win2	0.8	0.0	No	3.12	0.001	n/a	NoResponse	0	n/a	n/a	4	24	Fixation	MissedWin	True
239.026	0.16	Win2	0.8	0.004	No	3.12	-0.004	4.0	NoResponse	0	0.175	238.201	4	24	Target	MissedWin	True
239.193	0.54	Win2	0.8	n/a	No	3.12	n/a	n/a	NoResponse	0	n/a	n/a	4	24	Blank	MissedWin	True
239.201	0.3	Win2	0.8	0.004	No	3.12	-0.004	4.0	NoResponse	0	0.175	n/a	4	24	ButtonPress	MissedWin	True
239.728	1.45	Win2	0.8	n/a	No	3.12	n/a	5.0	NoResponse	0	0.0	238.728	4	24	Feedback	MissedWin	True
241.182	3.12	Win2	0.8	n/a	No	3.12	n/a	n/a	NoResponse	0	0.0	n/a	4	24	ISIslide	MissedWin	True
244.325	0.25	Win2	0.7692	0.0	No	3.075	0.025	n/a	NoResponse	0	n/a	n/a	4	25	Cue	MissedWin	True
244.576	4.0	Win2	0.7692	0.0	No	3.075	0.001	n/a	NoResponse	0	n/a	n/a	4	25	Fixation	MissedWin	True
248.571	0.15	Win2	0.7692	0.004	No	3.075	-0.004	4.0	NoResponse	0	0.169	247.74	4	25	Target	MissedWin	True
248.721	0.55	Win2	0.7692	n/a	No	3.075	n/a	n/a	NoResponse	0	n/a	n/a	4	25	Blank	MissedWin	True
248.74	0.3	Win2	0.7692	0.004	No	3.075	-0.004	4.0	NoResponse	0	0.169	n/a	4	25	ButtonPress	MissedWin	True
249.273	1.45	Win2	0.7692	n/a	No	3.075	n/a	5.0	NoResponse	0	0.016	248.289	4	25	Feedback	MissedWin	True
250.727	3.075	Win2	0.7692	n/a	No	3.075	n/a	n/a	NoResponse	0	0.0	n/a	4	25	ISIslide	MissedWin	True
253.82	0.25	Win2	0.7406999999999999	0.0	No	2.93	0.02	n/a	NoResponse	0	n/a	n/a	4	26	Cue	MissedWin	True
254.071	3.95	Win2	0.7406999999999999	0.0	No	2.93	0.001	n/a	NoResponse	0	n/a	n/a	4	26	Fixation	MissedWin	True
258.016	0.15	Win2	0.7406999999999999	0.004	No	2.93	-0.004	4.0	NoResponse	0	0.162	257.178	4	26	Target	MissedWin	True
258.166	0.55	Win2	0.7406999999999999	n/a	No	2.93	n/a	n/a	NoResponse	0	n/a	n/a	4	26	Blank	MissedWin	True
258.178	0.3	Win2	0.7406999999999999	0.004	No	2.93	-0.004	4.0	NoResponse	0	0.162	n/a	4	26	ButtonPress	MissedWin	True
258.718	1.45	Win2	0.7406999999999999	n/a	No	2.93	n/a	5.0	NoResponse	0	0.035	257.753	4	26	Feedback	MissedWin	True
260.172	2.93	Win2	0.7406999999999999	n/a	No	2.93	n/a	n/a	NoResponse	0	0.0	n/a	4	26	ISIslide	MissedWin	True
263.131	0.25	Lose2	0.7143	0.0	No	2.819	0.031	n/a	LatePress	-1	n/a	n/a	3	27	Cue	Loss	True
263.382	4.05	Lose2	0.7143	0.0	No	2.819	0.001	n/a	LatePress	-1	n/a	n/a	3	27	Fixation	Loss	True
267.427	0.15	Lose2	0.7143	0.004	No	2.819	-0.004	4.0	LatePress	-1	0.151	266.578	3	27	Target	Loss	True
267.578	0.55	Lose2	0.7143	n/a	No	2.819	n/a	n/a	LatePress	-1	n/a	n/a	3	27	Blank	Loss	True
267.578	0.3	Lose2	0.7143	0.004	No	2.819	-0.004	4.0	LatePress	-1	0.151	n/a	3	27	ButtonPress	Loss	True
268.13	1.45	Lose2	0.7143	n/a	No	2.819	n/a	5.0	LatePress	-1	0.038	267.168	3	27	Feedback	Loss	True
269.584	2.819	Lose2	0.7143	n/a	No	2.819	n/a	n/a	LatePress	-1	0.0	n/a	3	27	ISIslide	Loss	True
272.426	0.25	Control	0.6897	0.0	No	2.824	0.026	n/a	NoResponse	0	n/a	n/a	3	28	Cue	Neutral	True
272.676	4.05	Control	0.6897	0.001	No	2.824	0.0	n/a	NoResponse	0	n/a	n/a	3	28	Fixation	Neutral	True
276.722	0.15	Control	0.6897	0.004	No	2.824	-0.004	4.0	NoResponse	0	0.192	275.914	3	28	Target	Neutral	True
276.872	0.55	Control	0.6897	n/a	No	2.824	n/a	n/a	NoResponse	0	n/a	n/a	3	28	Blank	Neutral	True
276.914	0.3	Control	0.6897	0.004	No	2.824	-0.004	4.0	NoResponse	0	0.192	n/a	3	28	ButtonPress	Neutral	True
277.424	1.45	Control	0.6897	n/a	No	2.824	n/a	5.0	NoResponse	0	0.012	276.436	3	28	Feedback	Neutral	True
278.878	2.824	Control	0.6897	n/a	No	2.824	n/a	n/a	NoResponse	0	0.0	n/a	3	28	ISIslide	Neutral	True
281.72	0.25	Lose2	0.6667000000000001	0.0	No	2.83	0.02	n/a	NoResponse	-1	n/a	n/a	2	29	Cue	Loss	True
281.971	3.95	Lose2	0.6667000000000001	0.0	No	2.83	0.001	n/a	NoResponse	-1	n/a	n/a	2	29	Fixation	Loss	True
285.916	0.15	Lose2	0.6667000000000001	0.004	No	2.83	-0.004	4.0	NoResponse	-1	0.162	285.078	2	29	Target	Loss	True
286.066	0.55	Lose2	0.6667000000000001	n/a	No	2.83	n/a	n/a	NoResponse	-1	n/a	n/a	2	29	Blank	Loss	True
286.078	0.3	Lose2	0.6667000000000001	0.004	No	2.83	-0.004	4.0	NoResponse	-1	0.162	n/a	2	29	ButtonPress	Loss	True
286.618	1.45	Lose2	0.6667000000000001	n/a	No	2.83	n/a	5.0	NoResponse	-1	0.037	285.655	2	29	Feedback	Loss	True
288.072	2.83	Lose2	0.6667000000000001	n/a	No	2.83	n/a	n/a	NoResponse	-1	0.0	n/a	2	29	ISIslide	Loss	True
290.931	0.25	Win2	0.6452	0.0	No	2.769	0.031	n/a	NoResponse	0	n/a	n/a	2	30	Cue	MissedWin	True
291.182	3.9	Win2	0.6452	0.0	No	2.769	0.001	n/a	NoResponse	0	n/a	n/a	2	30	Fixation	MissedWin	True
295.077	0.15	Win2	0.6452	0.004	No	2.769	-0.004	4.0	NoResponse	0	0.176	294.253	2	30	Target	MissedWin	True
295.227	0.55	Win2	0.6452	n/a	No	2.769	n/a	n/a	NoResponse	0	n/a	n/a	2	30	Blank	MissedWin	True
295.253	0.3	Win2	0.6452	0.004	No	2.769	-0.004	4.0	NoResponse	0	0.176	n/a	2	30	ButtonPress	MissedWin	True
295.779	1.45	Win2	0.6452	n/a	No	2.769	n/a	5.0	NoResponse	0	0.047	294.826	2	30	Feedback	MissedWin	True
297.233	2.769	Win2	0.6452	n/a	No	2.769	n/a	n/a	NoResponse	0	0.0	n/a	2	30	ISIslide	MissedWin	True
300.025	0.25	Lose2	0.625	0.0	No	2.825	0.025	n/a	NoResponse	-1	n/a	n/a	1	31	Cue	Loss	True
300.276	4.05	Lose2	0.625	0.0	No	2.825	0.001	n/a	NoResponse	-1	n/a	n/a	1	31	Fixation	Loss	True
304.321	0.16	Lose2	0.625	0.004	No	2.825	-0.004	4.0	NoResponse	-1	0.219	303.54	1	31	Target	Loss	True
304.488	0.54	Lose2	0.625	n/a	No	2.825	n/a	n/a	NoResponse	-1	n/a	n/a	1	31	Blank	Loss	True
304.54	0.3	Lose2	0.625	0.004	No	2.825	-0.004	4.0	NoResponse	-1	0.219	n/a	1	31	ButtonPress	Loss	True
305.023	1.45	Lose2	0.625	n/a	No	2.825	n/a	5.0	NoResponse	-1	0.022	304.045	1	31	Feedback	Loss	True
306.478	2.825	Lose2	0.625	n/a	No	2.825	n/a	n/a	NoResponse	-1	0.0	n/a	1	31	ISIslide	Loss	True
309.319	0.25	Lose2	0.6061	0.0	No	2.631	0.019	n/a	NoResponse	-1	n/a	n/a	0	32	Cue	Loss	False
309.57	4.15	Lose2	0.6061	0.0	No	2.631	0.001	4.0	NoResponse	-1	3.818	312.388	0	32	Fixation	Loss	False
313.388	0.3	Lose2	0.6061	0.0	No	2.631	0.001	4.0	NoResponse	-1	3.818	n/a	0	32	ButtonPress	Loss	False
313.716	0.17	Lose2	0.6061	0.003	No	2.631	-0.003	4.0	NoResponse	-1	0.311	313.027	0	32	Target	Loss	False
313.9	0.53	Lose2	0.6061	n/a	No	2.631	n/a	n/a	NoResponse	-1	n/a	n/a	0	32	Blank	Loss	False
314.027	0.3	Lose2	0.6061	0.003	No	2.631	-0.003	4.0	NoResponse	-1	0.311	n/a	0	32	ButtonPress	Loss	False
314.418	1.45	Lose2	0.6061	n/a	No	2.631	n/a	5.0	NoResponse	-1	0.042	313.46	0	32	Feedback	Loss	False
315.872	2.631	Lose2	0.6061	n/a	No	2.631	n/a	n/a	NoResponse	-1	0.0	n/a	0	32	ISIslide	Loss	False
318.513	0.25	Win2	0.6175999999999999	0.001	Yes	2.687	0.013	n/a	GoodResponse	1	n/a	n/a	1	33	Cue	Win	True
318.764	4.0	Win2	0.6175999999999999	0.0	Yes	2.687	0.001	n/a	GoodResponse	1	n/a	n/a	1	33	Fixation	Win	True
322.76	0.18	Win2	0.6175999999999999	0.003	Yes	2.687	-0.003	4.0	GoodResponse	1	0.173	321.933	1	33	Target	Win	True
322.933	0.3	Win2	0.6175999999999999	0.003	Yes	2.687	-0.003	4.0	GoodResponse	1	0.173	n/a	1	33	ButtonPress	Win	True
322.943	0.52	Win2	0.6175999999999999	n/a	Yes	2.687	n/a	n/a	GoodResponse	1	n/a	n/a	1	33	Blank	Win	True
323.462	1.45	Win2	0.6175999999999999	n/a	Yes	2.687	n/a	5.0	GoodResponse	1	0.022	322.484	1	33	Feedback	Win	True
324.916	2.687	Win2	0.6175999999999999	n/a	Yes	2.687	n/a	n/a	GoodResponse	1	0.0	n/a	1	33	ISIslide	Win	True
327.624	0.25	Lose2	0.6	0.0	No	2.626	0.024	n/a	NoResponse	-1	n/a	n/a	0	34	Cue	Loss	True
327.875	4.05	Lose2	0.6	0.0	No	2.626	0.001	n/a	NoResponse	-1	n/a	n/a	0	34	Fixation	Loss	True
331.92	0.19	Lose2	0.6	0.004	No	2.626	-0.004	4.0	NoResponse	-1	0.213	331.133	0	34	Target	Loss	True
332.121	0.51	Lose2	0.6	n/a	No	2.626	n/a	n/a	NoResponse	-1	n/a	n/a	0	34	Blank	Loss	True
332.133	0.3	Lose2	0.6	0.004	No	2.626	-0.004	4.0	NoResponse	-1	0.213	n/a	0	34	ButtonPress	Loss	True
332.622	1.45	Lose2	0.6	n/a	No	2.626	n/a	5.0	NoResponse	-1	0.032	331.654	0	34	Feedback	Loss	True
334.077	2.626	Lose2	0.6	n/a	No	2.626	n/a	n/a	NoResponse	-1	0.0	n/a	0	34	ISIslide	Loss	True
336.718	0.25	Lose2	0.6111	0.0	Yes	2.682	0.018	n/a	GoodResponse	0	n/a	n/a	0	35	Cue	AvoidedLoss	True
336.969	4.0	Lose2	0.6111	0.0	Yes	2.682	0.001	n/a	GoodResponse	0	n/a	n/a	0	35	Fixation	AvoidedLoss	True
340.964	0.2	Lose2	0.6111	0.004	Yes	2.682	-0.004	4.0	GoodResponse	0	0.173	340.137	0	35	Target	AvoidedLoss	True
341.137	0.3	Lose2	0.6111	0.004	Yes	2.682	-0.004	4.0	GoodResponse	0	0.173	n/a	0	35	ButtonPress	AvoidedLoss	True
341.165	0.5	Lose2	0.6111	n/a	Yes	2.682	n/a	n/a	GoodResponse	0	n/a	n/a	0	35	Blank	AvoidedLoss	True
341.666	1.45	Lose2	0.6111	n/a	Yes	2.682	n/a	5.0	GoodResponse	0	0.013	340.679	0	35	Feedback	AvoidedLoss	True
343.12	2.682	Lose2	0.6111	n/a	Yes	2.682	n/a	n/a	GoodResponse	0	0.0	n/a	0	35	ISIslide	AvoidedLoss	True
345.828	0.25	Control	0.6215999999999999	0.001	Yes	2.672	0.028	n/a	GoodResponse	0	n/a	n/a	0	36	Cue	Neutral	True
346.079	4.0	Control	0.6215999999999999	0.0	Yes	2.672	0.001	n/a	GoodResponse	0	n/a	n/a	0	36	Fixation	Neutral	True
350.075	0.21	Control	0.6215999999999999	0.003	Yes	2.672	-0.003	4.0	GoodResponse	0	0.148	349.223	0	36	Target	Neutral	True
350.223	0.3	Control	0.6215999999999999	0.003	Yes	2.672	-0.003	4.0	GoodResponse	0	0.148	n/a	0	36	ButtonPress	Neutral	True
350.292	0.49	Control	0.6215999999999999	n/a	Yes	2.672	n/a	n/a	GoodResponse	0	n/a	n/a	0	36	Blank	Neutral	True
350.777	1.45	Control	0.6215999999999999	n/a	Yes	2.672	n/a	5.0	GoodResponse	0	0.024	349.801	0	36	Feedback	Neutral	True
352.231	2.672	Control	0.6215999999999999	n/a	Yes	2.672	n/a	n/a	GoodResponse	0	0.0	n/a	0	36	ISIslide	Neutral	True
354.922	0.25	Win2	0.6315999999999999	0.0	Yes	2.878	0.022	4.0	GoodResponse	1	0.248	354.17	1	37	Cue	Win	False
355.17	0.3	Win2	0.6315999999999999	0.0	Yes	2.878	0.022	4.0	GoodResponse	1	0.248	n/a	1	37	ButtonPress	Win	False
355.173	4.0	Win2	0.6315999999999999	0.0	Yes	2.878	0.001	n/a	GoodResponse	1	n/a	n/a	1	37	Fixation	Win	False
359.168	0.22	Win2	0.6315999999999999	0.004	Yes	2.878	-0.004	4.0	GoodResponse	1	0.188	358.356	1	37	Target	Win	False
359.356	0.3	Win2	0.6315999999999999	0.004	Yes	2.878	-0.004	4.0	GoodResponse	1	0.188	n/a	1	37	ButtonPress	Win	False
359.402	0.48	Win2	0.6315999999999999	n/a	Yes	2.878	n/a	n/a	GoodResponse	1	n/a	n/a	1	37	Blank	Win	False
359.87	1.45	Win2	0.6315999999999999	n/a	Yes	2.878	n/a	5.0	GoodResponse	1	0.005	358.875	1	37	Feedback	Win	False
361.325	2.878	Win2	0.6315999999999999	n/a	Yes	2.878	n/a	n/a	GoodResponse	1	0.0	n/a	1	37	ISIslide	Win	False
364.217	0.25	Lose2	0.6154	0.0	No	2.833	0.017	n/a	NoResponse	-1	n/a	n/a	0	38	Cue	Loss	True
364.468	3.95	Lose2	0.6154	0.0	No	2.833	0.001	n/a	NoResponse	-1	n/a	n/a	0	38	Fixation	Loss	True
368.413	0.23	Lose2	0.6154	0.004	No	2.833	-0.004	4.0	NoResponse	-1	0.245	367.658	0	38	Target	Loss	True
368.647	0.47	Lose2	0.6154	n/a	No	2.833	n/a	n/a	NoResponse	-1	n/a	n/a	0	38	Blank	Loss	True
368.658	0.3	Lose2	0.6154	0.004	No	2.833	-0.004	4.0	NoResponse	-1	0.245	n/a	0	38	ButtonPress	Loss	True
369.115	1.45	Lose2	0.6154	n/a	No	2.833	n/a	5.0	NoResponse	-1	0.026	368.141	0	38	Feedback	Loss	True
370.569	2.833	Lose2	0.6154	n/a	No	2.833	n/a	n/a	NoResponse	-1	0.0	n/a	0	38	ISIslide	Loss	True
373.428	0.25	Win2	0.625	0.0	Yes	2.972	0.028	n/a	GoodResponse	1	n/a	n/a	1	39	Cue	Win	True
373.678	4.1	Win2	0.625	0.001	Yes	2.972	0.0	n/a	GoodResponse	1	n/a	n/a	1	39	Fixation	Win	True
377.774	0.24	Win2	0.625	0.004	Yes	2.972	-0.004	4.0	GoodResponse	1	0.181	376.955	1	39	Target	Win	True
377.955	0.3	Win2	0.625	0.004	Yes	2.972	-0.004	4.0	GoodResponse	1	0.181	n/a	1	39	ButtonPress	Win	True
378.025	0.46	Win2	0.625	n/a	Yes	2.972	n/a	n/a	GoodResponse	1	n/a	n/a	1	39	Blank	Win	True
378.476	1.45	Win2	0.625	n/a	Yes	2.972	n/a	5.0	GoodResponse	1	0.031	377.507	1	39	Feedback	Win	True
379.93	2.972	Win2	0.625	n/a	Yes	2.972	n/a	n/a	GoodResponse	1	0.0	n/a	1	39	ISIslide	Win	True
382.923	0.25	Win2	0.6341	0.0	Yes	2.727	0.023	n/a	GoodResponse	1	n/a	n/a	2	40	Cue	Win	True
383.173	3.95	Win2	0.6341	0.001	Yes	2.727	0.0	n/a	GoodResponse	1	n/a	n/a	2	40	Fixation	Win	True
387.119	0.25	Win2	0.6341	0.004	Yes	2.727	-0.004	4.0	GoodResponse	1	0.2	386.319	2	40	Target	Win	True
387.319	0.3	Win2	0.6341	0.004	Yes	2.727	-0.004	4.0	GoodResponse	1	0.2	n/a	2	40	ButtonPress	Win	True
387.369	0.45	Win2	0.6341	n/a	Yes	2.727	n/a	n/a	GoodResponse	1	n/a	n/a	2	40	Blank	Win	True
387.821	1.45	Win2	0.6341	n/a	Yes	2.727	n/a	5.0	GoodResponse	1	0.005	386.826	2	40	Feedback	Win	True
389.275	2.727	Win2	0.6341	n/a	Yes	2.727	n/a	n/a	GoodResponse	1	0.0	n/a	2	40	ISIslide	Win	True
392.017	0.25	Win2	0.619	0.0	No	2.783	0.017	n/a	NoResponse	0	n/a	n/a	2	41	Cue	MissedWin	True
392.267	3.9	Win2	0.619	0.0	No	2.783	0.0	n/a	NoResponse	0	n/a	n/a	2	41	Fixation	MissedWin	True
396.179	0.26	Win2	0.619	0.0	No	2.783	0.012	4.0	NoResponse	0	0.263	395.442	2	41	Target	MissedWin	True
396.43	0.44	Win2	0.619	n/a	No	2.783	n/a	n/a	NoResponse	0	n/a	n/a	2	41	Blank	MissedWin	True
396.442	0.3	Win2	0.619	0.0	No	2.783	0.012	4.0	NoResponse	0	0.263	n/a	2	41	ButtonPress	MissedWin	True
396.864	1.45	Win2	0.619	n/a	No	2.783	n/a	5.0	NoResponse	0	0.034	395.898	2	41	Feedback	MissedWin	True
398.319	2.783	Win2	0.619	n/a	No	2.783	n/a	n/a	NoResponse	0	0.0	n/a	2	41	ISIslide	MissedWin	True
401.127	0.25	Control	0.6279	0.0	Yes	2.923	0.027	n/a	GoodResponse	0	n/a	n/a	2	42	Cue	Neutral	True
401.378	3.85	Control	0.6279	0.0	Yes	2.923	0.001	n/a	GoodResponse	0	n/a	n/a	2	42	Fixation	Neutral	True
405.223	0.27	Control	0.6279	0.004	Yes	2.923	-0.004	4.0	GoodResponse	0	0.26	404.483	2	42	Target	Neutral	True
405.483	0.3	Control	0.6279	0.004	Yes	2.923	-0.004	4.0	GoodResponse	0	0.26	n/a	2	42	ButtonPress	Neutral	True
405.507	0.43	Control	0.6279	n/a	Yes	2.923	n/a	n/a	GoodResponse	0	n/a	n/a	2	42	Blank	Neutral	True
405.925	1.45	Control	0.6279	n/a	Yes	2.923	n/a	5.0	GoodResponse	0	0.046	404.971	2	42	Feedback	Neutral	True
407.379	2.923	Control	0.6279	n/a	Yes	2.923	n/a	n/a	GoodResponse	0	0.0	n/a	2	42	ISIslide	Neutral	True
410.321	0.25	Win2	0.6364	0.0	Yes	3.179	0.021	n/a	GoodResponse	1	n/a	n/a	3	43	Cue	Win	False
410.572	4.0	Win2	0.6364	0.0	Yes	3.179	0.001	4.0	GoodResponse	1	0.222	409.794	3	43	Fixation	Win	False
410.794	0.3	Win2	0.6364	0.0	Yes	3.179	0.001	4.0	GoodResponse	1	0.222	n/a	3	43	ButtonPress	Win	False
414.567	0.28	Win2	0.6364	0.004	Yes	3.179	-0.004	4.0	GoodResponse	1	0.185	413.752	3	43	Target	Win	False
414.752	0.3	Win2	0.6364	0.004	Yes	3.179	-0.004	4.0	GoodResponse	1	0.185	n/a	3	43	ButtonPress	Win	False
414.852	0.42	Win2	0.6364	n/a	Yes	3.179	n/a	n/a	GoodResponse	1	n/a	n/a	3	43	Blank	Win	False
415.269	1.45	Win2	0.6364	n/a	Yes	3.179	n/a	5.0	GoodResponse	1	0.018	414.287	3	43	Feedback	Win	False
416.724	3.179	Win2	0.6364	n/a	Yes	3.179	n/a	n/a	GoodResponse	1	0.0	n/a	3	43	ISIslide	Win	False
419.917	0.25	Win2	0.6444	0.0	Yes	2.983	0.017	n/a	GoodResponse	1	n/a	n/a	4	44	Cue	Win	True
420.167	4.0	Win2	0.6444	0.001	Yes	2.983	0.0	n/a	GoodResponse	1	n/a	n/a	4	44	Fixation	Win	True
424.163	0.29	Win2	0.6444	0.004	Yes	2.983	-0.004	4.0	GoodResponse	1	0.167	423.33	4	44	Target	Win	True
424.33	0.3	Win2	0.6444	0.004	Yes	2.983	-0.004	4.0	GoodResponse	1	0.167	n/a	4	44	ButtonPress	Win	True
424.464	0.41	Win2	0.6444	n/a	Yes	2.983	n/a	n/a	GoodResponse	1	n/a	n/a	4	44	Blank	Win	True
424.865	1.45	Win2	0.6444	n/a	Yes	2.983	n/a	5.0	GoodResponse	1	0.032	423.897	4	44	Feedback	Win	True
426.319	2.983	Win2	0.6444	n/a	Yes	2.983	n/a	n/a	GoodResponse	1	0.0	n/a	4	44	ISIslide	Win	True
429.328	0.25	Control	0.6522	0.0	Yes	2.872	0.028	n/a	GoodResponse	0	n/a	n/a	4	45	Cue	Neutral	True
429.579	4.1	Control	0.6522	0.0	Yes	2.872	0.001	n/a	GoodResponse	0	n/a	n/a	4	45	Fixation	Neutral	True
433.674	0.3	Control	0.6522	0.004	Yes	2.872	-0.004	4.0	GoodResponse	0	0.22	432.894	4	45	Target	Neutral	True
433.894	0.3	Control	0.6522	0.004	Yes	2.872	-0.004	4.0	GoodResponse	0	0.22	n/a	4	45	ButtonPress	Neutral	True
433.975	0.4	Control	0.6522	n/a	Yes	2.872	n/a	n/a	GoodResponse	0	n/a	n/a	4	45	Blank	Neutral	True
434.377	1.45	Control	0.6522	n/a	Yes	2.872	n/a	5.0	GoodResponse	0	0.032	433.409	4	45	Feedback	Neutral	True
435.831	2.872	Control	0.6522	n/a	Yes	2.872	n/a	n/a	GoodResponse	0	0.0	n/a	4	45	ISIslide	Neutral	True
438.723	0.25	Lose2	0.6596	0.0	Yes	3.377	0.023	n/a	GoodResponse	0	n/a	n/a	4	46	Cue	AvoidedLoss	True
438.974	4.0	Lose2	0.6596	0.0	Yes	3.377	0.001	n/a	GoodResponse	0	n/a	n/a	4	46	Fixation	AvoidedLoss	True
442.969	0.31	Lose2	0.6596	0.004	Yes	3.377	-0.004	4.0	GoodResponse	0	0.179	442.148	4	46	Target	AvoidedLoss	True
443.148	0.3	Lose2	0.6596	0.004	Yes	3.377	-0.004	4.0	GoodResponse	0	0.179	n/a	4	46	ButtonPress	AvoidedLoss	True
443.287	0.39	Lose2	0.6596	n/a	Yes	3.377	n/a	n/a	GoodResponse	0	n/a	n/a	4	46	Blank	AvoidedLoss	True
443.671	1.45	Lose2	0.6596	n/a	Yes	3.377	n/a	5.0	GoodResponse	0	0.007	442.678	4	46	Feedback	AvoidedLoss	True
445.125	3.377	Lose2	0.6596	n/a	Yes	3.377	n/a	n/a	GoodResponse	0	0.0	n/a	4	46	ISIslide	AvoidedLoss	True
448.519	0.25	Lose2	0.6667000000000001	0.0	Yes	2.681	0.019	n/a	GoodResponse	0	n/a	n/a	4	47	Cue	AvoidedLoss	True
448.77	4.0	Lose2	0.6667000000000001	0.0	Yes	2.681	0.001	n/a	GoodResponse	0	n/a	n/a	4	47	Fixation	AvoidedLoss	True
452.765	0.31	Lose2	0.6667000000000001	0.004	Yes	2.681	-0.004	4.0	GoodResponse	0	0.227	451.992	4	47	Target	AvoidedLoss	True
452.992	0.3	Lose2	0.6667000000000001	0.004	Yes	2.681	-0.004	4.0	GoodResponse	0	0.227	n/a	4	47	ButtonPress	AvoidedLoss	True
453.083	0.39	Lose2	0.6667000000000001	n/a	Yes	2.681	n/a	n/a	GoodResponse	0	n/a	n/a	4	47	Blank	AvoidedLoss	True
453.467	1.45	Lose2	0.6667000000000001	n/a	Yes	2.681	n/a	5.0	GoodResponse	0	0.015	452.482	4	47	Feedback	AvoidedLoss	True
454.921	2.681	Lose2	0.6667000000000001	n/a	Yes	2.681	n/a	n/a	GoodResponse	0	0.0	n/a	4	47	ISIslide	AvoidedLoss	True
457.629	0.25	Lose2	0.6735	0.001	Yes	3.021	0.029	n/a	GoodResponse	0	n/a	n/a	4	48	Cue	AvoidedLoss	True
457.88	3.95	Lose2	0.6735	0.0	Yes	3.021	0.001	n/a	GoodResponse	0	n/a	n/a	4	48	Fixation	AvoidedLoss	True
461.825	0.3	Lose2	0.6735	0.004	Yes	3.021	-0.004	4.0	GoodResponse	0	0.192	461.017	4	48	Target	AvoidedLoss	True
462.017	0.3	Lose2	0.6735	0.004	Yes	3.021	-0.004	4.0	GoodResponse	0	0.192	n/a	4	48	ButtonPress	AvoidedLoss	True
462.126	0.4	Lose2	0.6735	n/a	Yes	3.021	n/a	n/a	GoodResponse	0	n/a	n/a	4	48	Blank	AvoidedLoss	True
462.527	1.45	Lose2	0.6735	n/a	Yes	3.021	n/a	5.0	GoodResponse	0	0.028	461.555	4	48	Feedback	AvoidedLoss	True
463.982	3.021	Lose2	0.6735	n/a	Yes	3.021	n/a	n/a	GoodResponse	0	0.0	n/a	4	48	ISIslide	AvoidedLoss	True
467.024	0.25	Control	0.68	0.0	Yes	2.876	0.024	n/a	GoodResponse	0	n/a	n/a	4	49	Cue	Neutral	True
467.275	4.0	Control	0.68	0.0	Yes	2.876	0.001	n/a	GoodResponse	0	n/a	n/a	4	49	Fixation	Neutral	True
471.27	0.29	Control	0.68	0.004	Yes	2.876	-0.004	4.0	GoodResponse	0	0.205	470.475	4	49	Target	Neutral	True
471.475	0.3	Control	0.68	0.004	Yes	2.876	-0.004	4.0	GoodResponse	0	0.205	n/a	4	49	ButtonPress	Neutral	True
471.571	0.41	Control	0.68	n/a	Yes	2.876	n/a	n/a	GoodResponse	0	n/a	n/a	4	49	Blank	Neutral	True
471.972	1.45	Control	0.68	n/a	Yes	2.876	n/a	5.0	GoodResponse	0	0.047	471.019	4	49	Feedback	Neutral	True
473.427	2.876	Control	0.68	n/a	Yes	2.876	n/a	n/a	GoodResponse	0	0.0	n/a	4	49	ISIslide	Neutral	True
476.319	0.25	Control	0.6667000000000001	0.0	No	2.781	0.019	n/a	NoResponse	0	n/a	n/a	4	50	Cue	Neutral	True
476.569	4.0	Control	0.6667000000000001	0.0	No	2.781	0.0	n/a	NoResponse	0	n/a	n/a	4	50	Fixation	Neutral	True
480.565	0.28	Control	0.6667000000000001	0.004	No	2.781	-0.004	4.0	NoResponse	0	0.334	479.899	4	50	Target	Neutral	True
480.849	0.42	Control	0.6667000000000001	n/a	No	2.781	n/a	n/a	NoResponse	0	n/a	n/a	4	50	Blank	Neutral	True
480.899	0.3	Control	0.6667000000000001	0.004	No	2.781	-0.004	4.0	NoResponse	0	0.334	n/a	4	50	ButtonPress	Neutral	True
481.267	1.45	Control	0.6667000000000001	n/a	No	2.781	n/a	5.0	NoResponse	0	0.02	480.287	4	50	Feedback	Neutral	True
482.721	2.781	Control	0.6667000000000001	n/a	No	2.781	n/a	n/a	NoResponse	0	0.0	n/a	4	50	ISIslide	Neutral	True
485.513	0.25	Control	0.6731	0.0	Yes	2.737	0.013	n/a	GoodResponse	0	n/a	n/a	4	51	Cue	Neutral	True
485.764	3.95	Control	0.6731	0.0	Yes	2.737	0.001	n/a	GoodResponse	0	n/a	n/a	4	51	Fixation	Neutral	True
489.709	0.27	Control	0.6731	0.004	Yes	2.737	-0.004	4.0	GoodResponse	0	0.197	488.906	4	51	Target	Neutral	True
489.906	0.3	Control	0.6731	0.004	Yes	2.737	-0.004	4.0	GoodResponse	0	0.197	n/a	4	51	ButtonPress	Neutral	True
489.993	0.43	Control	0.6731	n/a	Yes	2.737	n/a	n/a	GoodResponse	0	n/a	n/a	4	51	Blank	Neutral	True
490.411	1.45	Control	0.6731	n/a	Yes	2.737	n/a	5.0	GoodResponse	0	0.047	489.458	4	51	Feedback	Neutral	True
491.865	2.737	Control	0.6731	n/a	Yes	2.737	n/a	n/a	GoodResponse	0	0.0	n/a	4	51	ISIslide	Neutral	True
494.623	0.25	Control	0.6792	0.0	Yes	2.627	0.023	n/a	GoodResponse	0	n/a	n/a	4	52	Cue	Neutral	True
494.874	4.05	Control	0.6792	0.0	Yes	2.627	0.001	n/a	GoodResponse	0	n/a	n/a	4	52	Fixation	Neutral	True
498.92	0.26	Control	0.6792	0.003	Yes	2.627	-0.003	4.0	GoodResponse	0	0.223	498.143	4	52	Target	Neutral	True
499.143	0.3	Control	0.6792	0.003	Yes	2.627	-0.003	4.0	GoodResponse	0	0.223	n/a	4	52	ButtonPress	Neutral	True
499.187	0.44	Control	0.6792	n/a	Yes	2.627	n/a	n/a	GoodResponse	0	n/a	n/a	4	52	Blank	Neutral	True
499.622	1.45	Control	0.6792	n/a	Yes	2.627	n/a	5.0	GoodResponse	0	0.006	498.628	4	52	Feedback	Neutral	True
501.076	2.627	Control	0.6792	n/a	Yes	2.627	n/a	n/a	GoodResponse	0	0.0	n/a	4	52	ISIslide	Neutral	True
503.717	0.25	Win2	0.6851999999999999	0.0	Yes	2.933	0.017	n/a	GoodResponse	1	n/a	n/a	5	53	Cue	Win	True
503.968	4.05	Win2	0.6851999999999999	0.0	Yes	2.933	0.001	n/a	GoodResponse	1	n/a	n/a	5	53	Fixation	Win	True
508.013	0.25	Win2	0.6851999999999999	0.004	Yes	2.933	-0.004	4.0	GoodResponse	1	0.186	507.199	5	53	Target	Win	True
508.199	0.3	Win2	0.6851999999999999	0.004	Yes	2.933	-0.004	4.0	GoodResponse	1	0.186	n/a	5	53	ButtonPress	Win	True
508.264	0.45	Win2	0.6851999999999999	n/a	Yes	2.933	n/a	n/a	GoodResponse	1	n/a	n/a	5	53	Blank	Win	True
508.716	1.45	Win2	0.6851999999999999	n/a	Yes	2.933	n/a	5.0	GoodResponse	1	0.034	507.75	5	53	Feedback	Win	True
510.17	2.933	Win2	0.6851999999999999	n/a	Yes	2.933	n/a	n/a	GoodResponse	1	0.0	n/a	5	53	ISIslide	Win	True
513.129	0.25	Win2	0.6909000000000001	0.0	Yes	2.721	0.029	n/a	GoodResponse	1	n/a	n/a	6	54	Cue	Win	True
513.379	3.95	Win2	0.6909000000000001	0.001	Yes	2.721	0.0	n/a	GoodResponse	1	n/a	n/a	6	54	Fixation	Win	True
517.325	0.24	Win2	0.6909000000000001	0.004	Yes	2.721	-0.004	4.0	GoodResponse	1	0.181	516.506	6	54	Target	Win	True
517.506	0.3	Win2	0.6909000000000001	0.004	Yes	2.721	-0.004	4.0	GoodResponse	1	0.181	n/a	6	54	ButtonPress	Win	True
517.575	0.46	Win2	0.6909000000000001	n/a	Yes	2.721	n/a	n/a	GoodResponse	1	n/a	n/a	6	54	Blank	Win	True
518.027	1.45	Win2	0.6909000000000001	n/a	Yes	2.721	n/a	5.0	GoodResponse	1	0.04	517.067	6	54	Feedback	Win	True
519.481	2.721	Win2	0.6909000000000001	n/a	Yes	2.721	n/a	n/a	GoodResponse	1	0.0	n/a	6	54	ISIslide	Win	True
522.223	0.25	Control	0.6786	0.0	No	3.027	0.023	n/a	NoResponse	0	n/a	n/a	6	55	Cue	Neutral	False
522.473	3.95	Control	0.6786	0.0	No	3.027	0.0	n/a	NoResponse	0	n/a	n/a	6	55	Fixation	Neutral	False
526.435	0.23	Control	0.6786	0.0	No	3.027	0.012	n/a	NoResponse	0	n/a	n/a	6	55	Target	Neutral	False
526.652	0.47	Control	0.6786	n/a	No	3.027	n/a	n/a	NoResponse	0	n/a	n/a	6	55	Blank	Neutral	False
527.121	1.45	Control	0.6786	n/a	No	3.027	n/a	5.0	NoResponse	0	0.019	526.14	6	55	Feedback	Neutral	False
528.575	3.027	Control	0.6786	n/a	No	3.027	n/a	n/a	NoResponse	0	0.0	n/a	6	55	ISIslide	Neutral	False
531.617	0.25	Control	0.6842	0.0	Yes	2.833	0.017	n/a	GoodResponse	0	n/a	n/a	6	56	Cue	Neutral	True
531.868	3.95	Control	0.6842	0.0	Yes	2.833	0.001	n/a	GoodResponse	0	n/a	n/a	6	56	Fixation	Neutral	True
535.813	0.22	Control	0.6842	0.004	Yes	2.833	-0.004	4.0	GoodResponse	0	0.158	534.971	6	56	Target	Neutral	True
535.971	0.3	Control	0.6842	0.004	Yes	2.833	-0.004	4.0	GoodResponse	0	0.158	n/a	6	56	ButtonPress	Neutral	True
536.047	0.48	Control	0.6842	n/a	Yes	2.833	n/a	n/a	GoodResponse	0	n/a	n/a	6	56	Blank	Neutral	True
536.515	1.45	Control	0.6842	n/a	Yes	2.833	n/a	5.0	GoodResponse	0	0.04	535.555	6	56	Feedback	Neutral	True
537.97	2.833	Control	0.6842	n/a	Yes	2.833	n/a	n/a	GoodResponse	0	0.0	n/a	6	56	ISIslide	Neutral	True
540.828	0.25	Control	0.6897	0.0	Yes	3.472	0.028	n/a	GoodResponse	0	n/a	n/a	6	57	Cue	Neutral	True
541.079	4.0	Control	0.6897	0.0	Yes	3.472	0.001	n/a	GoodResponse	0	n/a	n/a	6	57	Fixation	Neutral	True
545.074	0.21	Control	0.6897	0.004	Yes	3.472	-0.004	4.0	GoodResponse	0	0.176	544.25	6	57	Target	Neutral	True
545.25	0.3	Control	0.6897	0.004	Yes	3.472	-0.004	4.0	GoodResponse	0	0.176	n/a	6	57	ButtonPress	Neutral	True
545.292	0.49	Control	0.6897	n/a	Yes	3.472	n/a	n/a	GoodResponse	0	n/a	n/a	6	57	Blank	Neutral	True
545.776	1.45	Control	0.6897	n/a	Yes	3.472	n/a	5.0	GoodResponse	0	0.046	544.822	6	57	Feedback	Neutral	True
547.231	3.472	Control	0.6897	n/a	Yes	3.472	n/a	n/a	GoodResponse	0	0.0	n/a	6	57	ISIslide	Neutral	True
550.724	0.25	Win2	0.6949	0.001	Yes	2.726	0.024	n/a	GoodResponse	1	n/a	n/a	7	58	Cue	Win	True
550.975	4.05	Win2	0.6949	0.0	Yes	2.726	0.001	n/a	GoodResponse	1	n/a	n/a	7	58	Fixation	Win	True
555.021	0.2	Win2	0.6949	0.003	Yes	2.726	-0.003	4.0	GoodResponse	1	0.174	554.195	7	58	Target	Win	True
555.195	0.3	Win2	0.6949	0.003	Yes	2.726	-0.003	4.0	GoodResponse	1	0.174	n/a	7	58	ButtonPress	Win	True
555.221	0.5	Win2	0.6949	n/a	Yes	2.726	n/a	n/a	GoodResponse	1	n/a	n/a	7	58	Blank	Win	True
555.723	1.45	Win2	0.6949	n/a	Yes	2.726	n/a	5.0	GoodResponse	1	0.004	554.727	7	58	Feedback	Win	True
557.177	2.726	Win2	0.6949	n/a	Yes	2.726	n/a	n/a	GoodResponse	1	0.0	n/a	7	58	ISIslide	Win	True
559.919	0.25	Lose2	0.7	0.0	Yes	2.681	0.019	n/a	GoodResponse	0	n/a	n/a	7	59	Cue	AvoidedLoss	True
560.169	4.0	Lose2	0.7	0.0	Yes	2.681	0.0	n/a	GoodResponse	0	n/a	n/a	7	59	Fixation	AvoidedLoss	True
564.165	0.19	Lose2	0.7	0.004	Yes	2.681	-0.004	4.0	GoodResponse	0	0.186	563.351	7	59	Target	AvoidedLoss	True
564.351	0.3	Lose2	0.7	0.004	Yes	2.681	-0.004	4.0	GoodResponse	0	0.186	n/a	7	59	ButtonPress	AvoidedLoss	True
564.365	0.51	Lose2	0.7	n/a	Yes	2.681	n/a	n/a	GoodResponse	0	n/a	n/a	7	59	Blank	AvoidedLoss	True
564.867	1.45	Lose2	0.7	n/a	Yes	2.681	n/a	5.0	GoodResponse	0	0.029	563.896	7	59	Feedback	AvoidedLoss	True
566.321	2.681	Lose2	0.7	n/a	Yes	2.681	n/a	n/a	GoodResponse	0	0.0	n/a	7	59	ISIslide	AvoidedLoss	True
569.012	0.25	Control	0.6884999999999999	0.001	No	2.688	0.012	n/a	NoResponse	0	n/a	n/a	7	60	Cue	Neutral	True
569.263	4.0	Control	0.6884999999999999	0.0	No	2.688	0.001	n/a	NoResponse	0	n/a	n/a	7	60	Fixation	Neutral	True
573.258	0.18	Control	0.6884999999999999	0.004	No	2.688	-0.004	4.0	NoResponse	0	0.219	572.477	7	60	Target	Neutral	True
573.442	0.52	Control	0.6884999999999999	n/a	No	2.688	n/a	n/a	NoResponse	0	n/a	n/a	7	60	Blank	Neutral	True
573.477	0.3	Control	0.6884999999999999	0.004	No	2.688	-0.004	4.0	NoResponse	0	0.219	n/a	7	60	ButtonPress	Neutral	True
573.961	1.45	Control	0.6884999999999999	n/a	No	2.688	n/a	5.0	NoResponse	0	0.008	572.969	7	60	Feedback	Neutral	True
575.415	2.688	Control	0.6884999999999999	n/a	No	2.688	n/a	n/a	NoResponse	0	0.0	n/a	7	60	ISIslide	Neutral	True
578.123	0.25	Lose2	0.6774	0.0	No	2.977	0.023	n/a	NoResponse	-1	n/a	n/a	6	61	Cue	Loss	True
578.374	4.0	Lose2	0.6774	0.0	No	2.977	0.001	n/a	NoResponse	-1	n/a	n/a	6	61	Fixation	Loss	True
582.369	0.17	Lose2	0.6774	0.004	No	2.977	-0.004	4.0	NoResponse	-1	0.205	581.574	6	61	Target	Loss	True
582.553	0.53	Lose2	0.6774	n/a	No	2.977	n/a	n/a	NoResponse	-1	n/a	n/a	6	61	Blank	Loss	True
582.574	0.3	Lose2	0.6774	0.004	No	2.977	-0.004	4.0	NoResponse	-1	0.205	n/a	6	61	ButtonPress	Loss	True
583.071	1.45	Lose2	0.6774	n/a	No	2.977	n/a	5.0	NoResponse	-1	0.019	582.09	6	61	Feedback	Loss	True
584.526	2.977	Lose2	0.6774	n/a	No	2.977	n/a	n/a	NoResponse	-1	0.0	n/a	6	61	ISIslide	Loss	True
587.518	0.25	Lose2	0.6667000000000001	0.0	No	2.882	0.018	n/a	NoResponse	-1	n/a	n/a	5	62	Cue	Loss	True
587.769	3.9	Lose2	0.6667000000000001	0.0	No	2.882	0.001	n/a	NoResponse	-1	n/a	n/a	5	62	Fixation	Loss	True
591.664	0.16	Lose2	0.6667000000000001	0.004	No	2.882	-0.004	4.0	NoResponse	-1	0.176	590.84	5	62	Target	Loss	True
591.831	0.54	Lose2	0.6667000000000001	n/a	No	2.882	n/a	n/a	NoResponse	-1	n/a	n/a	5	62	Blank	Loss	True
591.84	0.3	Lose2	0.6667000000000001	0.004	No	2.882	-0.004	4.0	NoResponse	-1	0.176	n/a	5	62	ButtonPress	Loss	True
592.366	1.45	Lose2	0.6667000000000001	n/a	No	2.882	n/a	5.0	NoResponse	-1	0.041	591.407	5	62	Feedback	Loss	True
593.82	2.882	Lose2	0.6667000000000001	n/a	No	2.882	n/a	n/a	NoResponse	-1	0.0	n/a	5	62	ISIslide	Loss	True
596.729	0.25	Lose2	0.6562	0.0	No	2.621	0.029	n/a	NoResponse	-1	n/a	n/a	4	63	Cue	Loss	True
596.979	4.05	Lose2	0.6562	0.0	No	2.621	0.0	n/a	NoResponse	-1	n/a	n/a	4	63	Fixation	Loss	True
601.025	0.15	Lose2	0.6562	0.004	No	2.621	-0.004	4.0	NoResponse	-1	0.171	600.196	4	63	Target	Loss	True
601.175	0.55	Lose2	0.6562	n/a	No	2.621	n/a	n/a	NoResponse	-1	n/a	n/a	4	63	Blank	Loss	True
601.196	0.3	Lose2	0.6562	0.004	No	2.621	-0.004	4.0	NoResponse	-1	0.171	n/a	4	63	ButtonPress	Loss	True
601.727	1.45	Lose2	0.6562	n/a	No	2.621	n/a	5.0	NoResponse	-1	0.046	600.773	4	63	Feedback	Loss	True
603.181	2.621	Lose2	0.6562	n/a	No	2.621	n/a	n/a	NoResponse	-1	0.0	n/a	4	63	ISIslide	Loss	True
605.823	0.25	Win2	0.6462	0.0	No	3.127	0.023	n/a	NoResponse	0	n/a	n/a	4	64	Cue	MissedWin	False
606.073	4.15	Win2	0.6462	0.0	No	3.127	0.0	4.0	NoResponse	0	4.005	609.078	4	64	Fixation	MissedWin	False
610.078	0.3	Win2	0.6462	0.0	No	3.127	0.0	4.0	NoResponse	0	4.005	n/a	4	64	ButtonPress	MissedWin	False
610.219	0.15	Win2	0.6462	0.004	No	3.127	-0.004	4.0	NoResponse	0	0.257	609.476	4	64	Target	MissedWin	False
610.369	0.55	Win2	0.6462	n/a	No	3.127	n/a	n/a	NoResponse	0	n/a	n/a	4	64	Blank	MissedWin	False
610.476	0.3	Win2	0.6462	0.004	No	3.127	-0.004	4.0	NoResponse	0	0.257	n/a	4	64	ButtonPress	MissedWin	False
610.921	1.45	Win2	0.6462	n/a	No	3.127	n/a	5.0	NoResponse	0	0.023	609.944	4	64	Feedback	MissedWin	False
612.375	3.127	Win2	0.6462	n/a	No	3.127	n/a	n/a	NoResponse	0	0.0	n/a	4	64	ISIslide	MissedWin	False
615.518	0.25	Control	0.6364	0.0	No	2.782	0.018	n/a	NoResponse	0	n/a	n/a	4	65	Cue	Neutral	True
615.769	4.0	Control	0.6364	0.0	No	2.782	0.001	n/a	NoResponse	0	n/a	n/a	4	65	Fixation	Neutral	True
619.764	0.16	Control	0.6364	0.004	No	2.782	-0.004	4.0	NoResponse	0	0.205	618.969	4	65	Target	Neutral	True
619.931	0.54	Control	0.6364	n/a	No	2.782	n/a	n/a	NoResponse	0	n/a	n/a	4	65	Blank	Neutral	True
619.969	0.3	Control	0.6364	0.004	No	2.782	-0.004	4.0	NoResponse	0	0.205	n/a	4	65	ButtonPress	Neutral	True
620.466	1.45	Control	0.6364	n/a	No	2.782	n/a	5.0	NoResponse	0	0.039	619.505	4	65	Feedback	Neutral	True
621.921	2.782	Control	0.6364	n/a	No	2.782	n/a	n/a	NoResponse	0	0.0	n/a	4	65	ISIslide	Neutral	True
624.729	0.25	Win2	0.6418	0.0	Yes	2.771	0.029	n/a	GoodResponse	1	n/a	n/a	5	66	Cue	Win	True
624.98	3.9	Win2	0.6418	0.0	Yes	2.771	0.001	n/a	GoodResponse	1	n/a	n/a	5	66	Fixation	Win	True
628.875	0.17	Win2	0.6418	0.004	Yes	2.771	-0.004	4.0	GoodResponse	1	0.168	628.043	5	66	Target	Win	True
629.043	0.3	Win2	0.6418	0.004	Yes	2.771	-0.004	4.0	GoodResponse	1	0.168	n/a	5	66	ButtonPress	Win	True
629.059	0.53	Win2	0.6418	n/a	Yes	2.771	n/a	n/a	GoodResponse	1	n/a	n/a	5	66	Blank	Win	True
629.577	1.45	Win2	0.6418	n/a	Yes	2.771	n/a	5.0	GoodResponse	1	0.0	628.577	5	66	Feedback	Win	True
631.031	2.771	Win2	0.6418	n/a	Yes	2.771	n/a	n/a	GoodResponse	1	0.0	n/a	5	66	ISIslide	Win	True
633.823	0.25	Control	0.6470999999999999	0.0	Yes	2.727	0.023	n/a	GoodResponse	0	n/a	n/a	5	67	Cue	Neutral	True
634.074	3.95	Control	0.6470999999999999	0.0	Yes	2.727	0.001	n/a	GoodResponse	0	n/a	n/a	5	67	Fixation	Neutral	True
638.019	0.18	Control	0.6470999999999999	0.004	Yes	2.727	-0.004	4.0	GoodResponse	0	0.172	637.191	5	67	Target	Neutral	True
638.191	0.3	Control	0.6470999999999999	0.004	Yes	2.727	-0.004	4.0	GoodResponse	0	0.172	n/a	5	67	ButtonPress	Neutral	True
638.203	0.52	Control	0.6470999999999999	n/a	Yes	2.727	n/a	n/a	GoodResponse	0	n/a	n/a	5	67	Blank	Neutral	True
638.721	1.45	Control	0.6470999999999999	n/a	Yes	2.727	n/a	5.0	GoodResponse	0	0.027	637.748	5	67	Feedback	Neutral	True
640.175	2.727	Control	0.6470999999999999	n/a	Yes	2.727	n/a	n/a	GoodResponse	0	0.0	n/a	5	67	ISIslide	Neutral	True
642.917	0.25	Win2	0.6377	0.0	No	3.083	0.017	n/a	NoResponse	0	n/a	n/a	5	68	Cue	MissedWin	True
643.168	4.0	Win2	0.6377	0.0	No	3.083	0.001	4.0	NoResponse	0	3.669	645.837	5	68	Fixation	MissedWin	True
646.837	0.3	Win2	0.6377	0.0	No	3.083	0.001	4.0	NoResponse	0	3.669	n/a	5	68	ButtonPress	MissedWin	True
647.163	0.19	Win2	0.6377	0.004	No	3.083	-0.004	n/a	NoResponse	0	n/a	n/a	5	68	Target	MissedWin	True
647.363	0.51	Win2	0.6377	n/a	No	3.083	n/a	n/a	NoResponse	0	n/a	n/a	5	68	Blank	MissedWin	True
647.865	1.45	Win2	0.6377	n/a	No	3.083	n/a	5.0	NoResponse	0	0.005	646.87	5	68	Feedback	MissedWin	True
649.319	3.083	Win2	0.6377	n/a	No	3.083	n/a	n/a	NoResponse	0	0.0	n/a	5	68	ISIslide	MissedWin	True
652.429	0.25	Win2	0.6429	0.0	Yes	3.221	0.029	n/a	GoodResponse	1	n/a	n/a	6	69	Cue	Win	True
652.679	3.95	Win2	0.6429	0.0	Yes	3.221	0.0	n/a	GoodResponse	1	n/a	n/a	6	69	Fixation	Win	True
656.641	0.2	Win2	0.6429	0.0	Yes	3.221	0.012	4.0	GoodResponse	1	0.184	655.825	6	69	Target	Win	True
656.825	0.5	Win2	0.6429	n/a	Yes	3.221	n/a	n/a	GoodResponse	1	n/a	n/a	6	69	Blank	Win	True
656.825	0.3	Win2	0.6429	0.0	Yes	3.221	0.012	4.0	GoodResponse	1	0.184	n/a	6	69	ButtonPress	Win	True
657.327	1.45	Win2	0.6429	n/a	Yes	3.221	n/a	5.0	GoodResponse	1	0.007	656.334	6	69	Feedback	Win	True
658.781	3.221	Win2	0.6429	n/a	Yes	3.221	n/a	n/a	GoodResponse	1	0.0	n/a	6	69	ISIslide	Win	True
662.024	0.25	Lose2	0.6479	0.0	Yes	3.026	0.024	n/a	GoodResponse	0	n/a	n/a	6	70	Cue	AvoidedLoss	True
662.275	4.05	Lose2	0.6479	0.0	Yes	3.026	0.001	n/a	GoodResponse	0	n/a	n/a	6	70	Fixation	AvoidedLoss	True
666.32	0.21	Lose2	0.6479	0.004	Yes	3.026	-0.004	4.0	GoodResponse	0	0.187	665.507	6	70	Target	AvoidedLoss	True
666.507	0.3	Lose2	0.6479	0.004	Yes	3.026	-0.004	4.0	GoodResponse	0	0.187	n/a	6	70	ButtonPress	AvoidedLoss	True
666.537	0.49	Lose2	0.6479	n/a	Yes	3.026	n/a	n/a	GoodResponse	0	n/a	n/a	6	70	Blank	AvoidedLoss	True
667.022	1.45	Lose2	0.6479	n/a	Yes	3.026	n/a	5.0	GoodResponse	0	0.019	666.041	6	70	Feedback	AvoidedLoss	True
668.477	3.026	Lose2	0.6479	n/a	Yes	3.026	n/a	n/a	GoodResponse	0	0.0	n/a	6	70	ISIslide	AvoidedLoss	True
671.519	0.25	Win2	0.6528	0.0	Yes	2.731	0.019	n/a	GoodResponse	1	n/a	n/a	7	71	Cue	Win	True
671.77	4.05	Win2	0.6528	0.0	Yes	2.731	0.001	n/a	GoodResponse	1	n/a	n/a	7	71	Fixation	Win	True
675.815	0.22	Win2	0.6528	0.004	Yes	2.731	-0.004	4.0	GoodResponse	1	0.17	674.985	7	71	Target	Win	True
675.985	0.3	Win2	0.6528	0.004	Yes	2.731	-0.004	4.0	GoodResponse	1	0.17	n/a	7	71	ButtonPress	Win	True
676.049	0.48	Win2	0.6528	n/a	Yes	2.731	n/a	n/a	GoodResponse	1	n/a	n/a	7	71	Blank	Win	True
676.517	1.45	Win2	0.6528	n/a	Yes	2.731	n/a	5.0	GoodResponse	1	0.035	675.552	7	71	Feedback	Win	True
677.972	2.731	Win2	0.6528	n/a	Yes	2.731	n/a	n/a	GoodResponse	1	0.0	n/a	7	71	ISIslide	Win	True
680.713	0.25	Win2	0.6437999999999999	0.0	No	2.787	0.013	n/a	NoResponse	0	n/a	n/a	7	72	Cue	MissedWin	False
680.964	4.1	Win2	0.6437999999999999	0.0	No	2.787	0.001	4.0	NoResponse	0	3.781	683.745	7	72	Fixation	MissedWin	False
684.745	0.3	Win2	0.6437999999999999	0.0	No	2.787	0.001	4.0	NoResponse	0	3.781	n/a	7	72	ButtonPress	MissedWin	False
685.059	0.23	Win2	0.6437999999999999	0.004	No	2.787	-0.004	4.0	NoResponse	0	0.246	684.305	7	72	Target	MissedWin	False
685.293	0.47	Win2	0.6437999999999999	n/a	No	2.787	n/a	n/a	NoResponse	0	n/a	n/a	7	72	Blank	MissedWin	False
685.305	0.3	Win2	0.6437999999999999	0.004	No	2.787	-0.004	4.0	NoResponse	0	0.246	n/a	7	72	ButtonPress	MissedWin	False
685.762	1.45	Win2	0.6437999999999999	n/a	No	2.787	n/a	5.0	NoResponse	0	0.01	684.772	7	72	Feedback	MissedWin	False
687.216	2.787	Win2	0.6437999999999999	n/a	No	2.787	n/a	n/a	NoResponse	0	0.0	n/a	7	72	ISIslide	MissedWin	False
690.024	0.25	Win2	0.6486	0.0	Yes	2.676	0.024	n/a	GoodResponse	1	n/a	n/a	8	73	Cue	Win	True
690.275	4.0	Win2	0.6486	0.0	Yes	2.676	0.001	n/a	GoodResponse	1	n/a	n/a	8	73	Fixation	Win	True
694.27	0.24	Win2	0.6486	0.004	Yes	2.676	-0.004	4.0	GoodResponse	1	0.18	693.45	8	73	Target	Win	True
694.45	0.3	Win2	0.6486	0.004	Yes	2.676	-0.004	4.0	GoodResponse	1	0.18	n/a	8	73	ButtonPress	Win	True
694.521	0.46	Win2	0.6486	n/a	Yes	2.676	n/a	n/a	GoodResponse	1	n/a	n/a	8	73	Blank	Win	True
694.972	1.45	Win2	0.6486	n/a	Yes	2.676	n/a	5.0	GoodResponse	1	0.02	693.992	8	73	Feedback	Win	True
696.427	2.676	Win2	0.6486	n/a	Yes	2.676	n/a	n/a	GoodResponse	1	0.0	n/a	8	73	ISIslide	Win	True
699.118	0.25	Lose2	0.6533	0.0	Yes	2.632	0.018	n/a	GoodResponse	0	n/a	n/a	8	74	Cue	AvoidedLoss	True
699.369	4.05	Lose2	0.6533	0.0	Yes	2.632	0.001	n/a	GoodResponse	0	n/a	n/a	8	74	Fixation	AvoidedLoss	True
703.414	0.25	Lose2	0.6533	0.004	Yes	2.632	-0.004	4.0	GoodResponse	0	0.221	702.635	8	74	Target	AvoidedLoss	True
703.635	0.3	Lose2	0.6533	0.004	Yes	2.632	-0.004	4.0	GoodResponse	0	0.221	n/a	8	74	ButtonPress	AvoidedLoss	True
703.665	0.45	Lose2	0.6533	n/a	Yes	2.632	n/a	n/a	GoodResponse	0	n/a	n/a	8	74	Blank	AvoidedLoss	True
704.116	1.45	Lose2	0.6533	n/a	Yes	2.632	n/a	5.0	GoodResponse	0	0.047	703.163	8	74	Feedback	AvoidedLoss	True
705.571	2.632	Lose2	0.6533	n/a	Yes	2.632	n/a	n/a	GoodResponse	0	0.0	n/a	8	74	ISIslide	AvoidedLoss	True
708.229	0.25	Lose2	0.6579	0.0	Yes	2.921	0.029	n/a	GoodResponse	0	n/a	n/a	8	75	Cue	AvoidedLoss	True
708.479	3.95	Lose2	0.6579	0.001	Yes	2.921	0.0	n/a	GoodResponse	0	n/a	n/a	8	75	Fixation	AvoidedLoss	True
712.425	0.26	Lose2	0.6579	0.004	Yes	2.921	-0.004	4.0	GoodResponse	0	0.218	711.643	8	75	Target	AvoidedLoss	True
712.643	0.3	Lose2	0.6579	0.004	Yes	2.921	-0.004	4.0	GoodResponse	0	0.218	n/a	8	75	ButtonPress	AvoidedLoss	True
712.692	0.44	Lose2	0.6579	n/a	Yes	2.921	n/a	n/a	GoodResponse	0	n/a	n/a	8	75	Blank	AvoidedLoss	True
713.127	1.45	Lose2	0.6579	n/a	Yes	2.921	n/a	5.0	GoodResponse	0	0.01	712.137	8	75	Feedback	AvoidedLoss	True
714.581	2.921	Lose2	0.6579	n/a	Yes	2.921	n/a	n/a	GoodResponse	0	0.0	n/a	8	75	ISIslide	AvoidedLoss	True
717.523	0.25	Control	0.6623	0.0	Yes	3.227	0.023	n/a	GoodResponse	0	n/a	n/a	8	76	Cue	Neutral	True
717.774	4.05	Control	0.6623	0.0	Yes	3.227	0.001	n/a	GoodResponse	0	n/a	n/a	8	76	Fixation	Neutral	True
721.819	0.26	Control	0.6623	0.004	Yes	3.227	-0.004	4.0	GoodResponse	0	0.18	720.999	8	76	Target	Neutral	True
721.999	0.3	Control	0.6623	0.004	Yes	3.227	-0.004	4.0	GoodResponse	0	0.18	n/a	8	76	ButtonPress	Neutral	True
722.087	0.44	Control	0.6623	n/a	Yes	3.227	n/a	n/a	GoodResponse	0	n/a	n/a	8	76	Blank	Neutral	True
722.521	1.45	Control	0.6623	n/a	Yes	3.227	n/a	5.0	GoodResponse	0	0.031	721.552	8	76	Feedback	Neutral	True
723.976	3.227	Control	0.6623	n/a	Yes	3.227	n/a	n/a	GoodResponse	0	0.0	n/a	8	76	ISIslide	Neutral	True
727.219	0.25	Lose2	0.6667000000000001	0.0	Yes	2.581	0.019	n/a	GoodResponse	0	n/a	n/a	8	77	Cue	AvoidedLoss	True
727.47	3.95	Lose2	0.6667000000000001	0.0	Yes	2.581	0.001	n/a	GoodResponse	0	n/a	n/a	8	77	Fixation	AvoidedLoss	True
731.415	0.26	Lose2	0.6667000000000001	0.004	Yes	2.581	-0.004	4.0	GoodResponse	0	0.174	730.589	8	77	Target	AvoidedLoss	True
731.589	0.3	Lose2	0.6667000000000001	0.004	Yes	2.581	-0.004	4.0	GoodResponse	0	0.174	n/a	8	77	ButtonPress	AvoidedLoss	True
731.682	0.44	Lose2	0.6667000000000001	n/a	Yes	2.581	n/a	n/a	GoodResponse	0	n/a	n/a	8	77	Blank	AvoidedLoss	True
732.117	1.45	Lose2	0.6667000000000001	n/a	Yes	2.581	n/a	5.0	GoodResponse	0	0.045	731.162	8	77	Feedback	AvoidedLoss	True
733.571	2.581	Lose2	0.6667000000000001	n/a	Yes	2.581	n/a	n/a	GoodResponse	0	0.0	n/a	8	77	ISIslide	AvoidedLoss	True
