onset	duration	cue_type	current_mean_accuracy	duration_error	is_hit	isi_adjusted	onset_delay	response	response_type	reward	rt	rt_time	total_reward	trial_number	trial_phase	trial_type	one_press
11.098	0.25	Control	1.0	0.0	Yes	2.952	-0.002	n/a	GoodResponse	0	n/a	n/a	0	0	Cue	Neutral	False
11.348	3.85	Control	1.0	0.001	Yes	2.952	0.0	4.0	GoodResponse	0	0.665	11.013	0	0	Fixation	Neutral	False
12.013	0.3	Control	1.0	0.001	Yes	2.952	0.0	4.0	GoodResponse	0	0.665	n/a	0	0	ButtonPress	Neutral	False
15.21	0.4	Control	1.0	0.0	Yes	2.952	0.012	4.0	GoodResponse	0	0.209	14.419	0	0	Target	Neutral	False
15.419	0.3	Control	1.0	0.0	Yes	2.952	0.012	4.0	GoodResponse	0	0.209	n/a	0	0	ButtonPress	Neutral	False
15.594	0.3	Control	1.0	n/a	Yes	2.952	n/a	n/a	GoodResponse	0	n/a	n/a	0	0	Blank	Neutral	False
15.895	1.45	Control	1.0	n/a	Yes	2.952	n/a	5.0	GoodResponse	0	0.032	14.927	0	0	Feedback	Neutral	False
17.35	2.952	Control	1.0	n/a	Yes	2.952	n/a	n/a	GoodResponse	0	0.0	n/a	0	0	ISIslide	Neutral	False
20.325	0.25	Lose2	1.0	0.0	Yes	2.775	0.025	n/a	GoodResponse	0	n/a	n/a	0	1	Cue	AvoidedLoss	True
20.576	4.0	Lose2	1.0	0.0	Yes	2.775	0.001	n/a	GoodResponse	0	n/a	n/a	0	1	Fixation	AvoidedLoss	True
24.571	0.39	Lose2	1.0	0.004	Yes	2.775	-0.004	4.0	GoodResponse	0	0.21	23.781	0	1	Target	AvoidedLoss	True
24.781	0.3	Lose2	1.0	0.004	Yes	2.775	-0.004	4.0	GoodResponse	0	0.21	n/a	0	1	ButtonPress	AvoidedLoss	True
24.973	0.31	Lose2	1.0	n/a	Yes	2.775	n/a	n/a	GoodResponse	0	n/a	n/a	0	1	Blank	AvoidedLoss	True
25.273	1.45	Lose2	1.0	n/a	Yes	2.775	n/a	5.0	GoodResponse	0	0.019	24.292	0	1	Feedback	AvoidedLoss	True
26.728	2.775	Lose2	1.0	n/a	Yes	2.775	n/a	n/a	GoodResponse	0	0.0	n/a	0	1	ISIslide	AvoidedLoss	True
29.52	0.25	Control	1.0	0.0	Yes	2.58	0.02	n/a	GoodResponse	0	n/a	n/a	0	2	Cue	Neutral	True
29.77	4.1	Control	1.0	0.0	Yes	2.58	0.0	n/a	GoodResponse	0	n/a	n/a	0	2	Fixation	Neutral	True
33.866	0.38	Control	1.0	0.004	Yes	2.58	-0.004	4.0	GoodResponse	0	0.242	33.108	0	2	Target	Neutral	True
34.108	0.3	Control	1.0	0.004	Yes	2.58	-0.004	4.0	GoodResponse	0	0.242	n/a	0	2	ButtonPress	Neutral	True
34.25	0.32	Control	1.0	n/a	Yes	2.58	n/a	n/a	GoodResponse	0	n/a	n/a	0	2	Blank	Neutral	True
34.568	1.45	Control	1.0	n/a	Yes	2.58	n/a	5.0	GoodResponse	0	0.042	33.61	0	2	Feedback	Neutral	True
36.022	2.58	Control	1.0	n/a	Yes	2.58	n/a	n/a	GoodResponse	0	0.0	n/a	0	2	ISIslide	Neutral	True
38.63	0.25	Win2	1.0	0.0	Yes	2.82	0.03	n/a	GoodResponse	1	n/a	n/a	1	3	Cue	Win	True
38.881	3.95	Win2	1.0	0.0	Yes	2.82	0.001	n/a	GoodResponse	1	n/a	n/a	1	3	Fixation	Win	True
42.826	0.37	Win2	1.0	0.004	Yes	2.82	-0.004	4.0	GoodResponse	1	0.287	42.113	1	3	Target	Win	True
43.113	0.3	Win2	1.0	0.004	Yes	2.82	-0.004	4.0	GoodResponse	1	0.287	n/a	1	3	ButtonPress	Win	True
43.211	0.33	Win2	1.0	n/a	Yes	2.82	n/a	n/a	GoodResponse	1	n/a	n/a	1	3	Blank	Win	True
43.528	1.45	Win2	1.0	n/a	Yes	2.82	n/a	5.0	GoodResponse	1	0.009	42.537	1	3	Feedback	Win	True
44.983	2.82	Win2	1.0	n/a	Yes	2.82	n/a	n/a	GoodResponse	1	0.0	n/a	1	3	ISIslide	Win	True
47.824	0.25	Win2	1.0	0.0	Yes	3.276	0.024	n/a	GoodResponse	1	n/a	n/a	2	4	Cue	Win	True
48.075	4.0	Win2	1.0	0.0	Yes	3.276	0.001	n/a	GoodResponse	1	n/a	n/a	2	4	Fixation	Win	True
52.07	0.36	Win2	1.0	0.004	Yes	3.276	-0.004	4.0	GoodResponse	1	0.262	51.332	2	4	Target	Win	True
52.332	0.3	Win2	1.0	0.004	Yes	3.276	-0.004	4.0	GoodResponse	1	0.262	n/a	2	4	ButtonPress	Win	True
52.438	0.34	Win2	1.0	n/a	Yes	3.276	n/a	n/a	GoodResponse	1	n/a	n/a	2	4	Blank	Win	True
52.773	1.45	Win2	1.0	n/a	Yes	3.276	n/a	5.0	GoodResponse	1	0.032	51.805	2	4	Feedback	Win	True
54.227	3.276	Win2	1.0	n/a	Yes	3.276	n/a	n/a	GoodResponse	1	0.0	n/a	2	4	ISIslide	Win	True
57.52	0.25	Win2	1.0	0.0	Yes	2.78	0.02	n/a	GoodResponse	1	n/a	n/a	3	5	Cue	Win	True
57.771	4.0	Win2	1.0	0.0	Yes	2.78	0.001	n/a	GoodResponse	1	n/a	n/a	3	5	Fixation	Win	True
61.766	0.35	Win2	1.0	0.004	Yes	2.78	-0.004	4.0	GoodResponse	1	0.235	61.001	3	5	Target	Win	True
62.001	0.3	Win2	1.0	0.004	Yes	2.78	-0.004	4.0	GoodResponse	1	0.235	n/a	3	5	ButtonPress	Win	True
62.117	0.35	Win2	1.0	n/a	Yes	2.78	n/a	n/a	GoodResponse	1	n/a	n/a	3	5	Blank	Win	True
62.468	1.45	Win2	1.0	n/a	Yes	2.78	n/a	5.0	GoodResponse	1	0.043	61.511	3	5	Feedback	Win	True
63.923	2.78	Win2	1.0	n/a	Yes	2.78	n/a	n/a	GoodResponse	1	0.0	n/a	3	5	ISIslide	Win	True
66.731	0.25	Lose2	0.8571	0.0	No	2.719	0.031	n/a	NoResponse	-1	n/a	n/a	2	6	Cue	Loss	True
66.982	3.95	Lose2	0.8571	0.0	No	2.719	0.001	n/a	NoResponse	-1	n/a	n/a	2	6	Fixation	Loss	True
70.927	0.34	Lose2	0.8571	0.004	No	2.719	-0.004	4.0	NoResponse	-1	0.359	70.286	2	6	Target	Loss	True
71.278	0.36	Lose2	0.8571	n/a	No	2.719	n/a	n/a	NoResponse	-1	n/a	n/a	2	6	Blank	Loss	True
71.286	0.3	Lose2	0.8571	0.004	No	2.719	-0.004	4.0	NoResponse	-1	0.359	n/a	2	6	ButtonPress	Loss	True
71.629	1.45	Lose2	0.8571	n/a	No	2.719	n/a	5.0	NoResponse	-1	0.008	70.637	2	6	Feedback	Loss	True
73.083	2.719	Lose2	0.8571	n/a	No	2.719	n/a	n/a	NoResponse	-1	0.0	n/a	2	6	ISIslide	Loss	True
75.825	0.25	Lose2	0.875	0.0	Yes	4.025	0.025	n/a	GoodResponse	0	n/a	n/a	2	7	Cue	AvoidedLoss	True
76.076	4.05	Lose2	0.875	0.0	Yes	4.025	0.001	n/a	GoodResponse	0	n/a	n/a	2	7	Fixation	AvoidedLoss	True
80.121	0.33	Lose2	0.875	0.004	Yes	4.025	-0.004	4.0	GoodResponse	0	0.251	79.372	2	7	Target	AvoidedLoss	True
80.372	0.3	Lose2	0.875	0.004	Yes	4.025	-0.004	4.0	GoodResponse	0	0.251	n/a	2	7	ButtonPress	AvoidedLoss	True
80.456	0.37	Lose2	0.875	n/a	Yes	4.025	n/a	n/a	GoodResponse	0	n/a	n/a	2	7	Blank	AvoidedLoss	True
80.823	1.45	Lose2	0.875	n/a	Yes	4.025	n/a	5.0	GoodResponse	0	0.03	79.853	2	7	Feedback	AvoidedLoss	True
82.278	4.025	Lose2	0.875	n/a	Yes	4.025	n/a	n/a	GoodResponse	0	0.0	n/a	2	7	ISIslide	AvoidedLoss	True
86.323	0.25	Lose2	0.8889	0.0	Yes	3.027	0.023	n/a	GoodResponse	0	n/a	n/a	2	8	Cue	AvoidedLoss	True
86.574	3.95	Lose2	0.8889	0.0	Yes	3.027	0.001	n/a	GoodResponse	0	n/a	n/a	2	8	Fixation	AvoidedLoss	True
90.519	0.32	Lose2	0.8889	0.004	Yes	3.027	-0.004	4.0	GoodResponse	0	0.242	89.761	2	8	Target	AvoidedLoss	True
90.761	0.3	Lose2	0.8889	0.004	Yes	3.027	-0.004	4.0	GoodResponse	0	0.242	n/a	2	8	ButtonPress	AvoidedLoss	True
90.853	0.38	Lose2	0.8889	n/a	Yes	3.027	n/a	n/a	GoodResponse	0	n/a	n/a	2	8	Blank	AvoidedLoss	True
91.221	1.45	Lose2	0.8889	n/a	Yes	3.027	n/a	5.0	GoodResponse	0	0.022	90.243	2	8	Feedback	AvoidedLoss	True
92.675	3.027	Lose2	0.8889	n/a	Yes	3.027	n/a	n/a	GoodResponse	0	0.0	n/a	2	8	ISIslide	AvoidedLoss	True
95.718	0.25	Lose2	0.9	0.0	Yes	3.132	0.018	n/a	GoodResponse	0	n/a	n/a	2	9	Cue	AvoidedLoss	True
95.969	3.95	Lose2	0.9	0.0	Yes	3.132	0.001	n/a	GoodResponse	0	n/a	n/a	2	9	Fixation	AvoidedLoss	True
99.914	0.31	Lose2	0.9	0.004	Yes	3.132	-0.004	4.0	GoodResponse	0	0.23	99.144	2	9	Target	AvoidedLoss	True
100.144	0.3	Lose2	0.9	0.004	Yes	3.132	-0.004	4.0	GoodResponse	0	0.23	n/a	2	9	ButtonPress	AvoidedLoss	True
100.231	0.39	Lose2	0.9	n/a	Yes	3.132	n/a	n/a	GoodResponse	0	n/a	n/a	2	9	Blank	AvoidedLoss	True
100.616	1.45	Lose2	0.9	n/a	Yes	3.132	n/a	5.0	GoodResponse	0	0.042	99.658	2	9	Feedback	AvoidedLoss	True
102.07	3.132	Lose2	0.9	n/a	Yes	3.132	n/a	n/a	GoodResponse	0	0.0	n/a	2	9	ISIslide	AvoidedLoss	True
105.213	0.25	Control	0.9091	0.0	Yes	3.287	0.013	n/a	GoodResponse	0	n/a	n/a	2	10	Cue	Neutral	True
105.464	4.0	Control	0.9091	0.0	Yes	3.287	0.001	n/a	GoodResponse	0	n/a	n/a	2	10	Fixation	Neutral	True
109.459	0.3	Control	0.9091	0.004	Yes	3.287	-0.004	4.0	GoodResponse	0	0.225	108.684	2	10	Target	Neutral	True
109.684	0.3	Control	0.9091	0.004	Yes	3.287	-0.004	4.0	GoodResponse	0	0.225	n/a	2	10	ButtonPress	Neutral	True
109.76	0.4	Control	0.9091	n/a	Yes	3.287	n/a	n/a	GoodResponse	0	n/a	n/a	2	10	Blank	Neutral	True
110.161	1.45	Control	0.9091	n/a	Yes	3.287	n/a	5.0	GoodResponse	0	0.009	109.17	2	10	Feedback	Neutral	True
111.616	3.287	Control	0.9091	n/a	Yes	3.287	n/a	n/a	GoodResponse	0	0.0	n/a	2	10	ISIslide	Neutral	True
114.925	0.25	Lose2	0.9167000000000001	0.001	Yes	2.725	0.025	n/a	GoodResponse	0	n/a	n/a	2	11	Cue	AvoidedLoss	True
115.176	4.05	Lose2	0.9167000000000001	0.0	Yes	2.725	0.001	n/a	GoodResponse	0	n/a	n/a	2	11	Fixation	AvoidedLoss	True
119.222	0.29	Lose2	0.9167000000000001	0.003	Yes	2.725	-0.003	4.0	GoodResponse	0	0.251	118.473	2	11	Target	AvoidedLoss	True
119.473	0.3	Lose2	0.9167000000000001	0.003	Yes	2.725	-0.003	4.0	GoodResponse	0	0.251	n/a	2	11	ButtonPress	AvoidedLoss	True
119.523	0.41	Lose2	0.9167000000000001	n/a	Yes	2.725	n/a	n/a	GoodResponse	0	n/a	n/a	2	11	Blank	AvoidedLoss	True
119.924	1.45	Lose2	0.9167000000000001	n/a	Yes	2.725	n/a	5.0	GoodResponse	0	0.004	118.928	2	11	Feedback	AvoidedLoss	True
121.378	2.725	Lose2	0.9167000000000001	n/a	Yes	2.725	n/a	n/a	GoodResponse	0	0.0	n/a	2	11	ISIslide	AvoidedLoss	True
124.12	0.25	Control	0.9231	0.0	Yes	2.98	0.02	n/a	GoodResponse	0	n/a	n/a	2	12	Cue	Neutral	True
124.37	3.9	Control	0.9231	0.001	Yes	2.98	0.0	n/a	GoodResponse	0	n/a	n/a	2	12	Fixation	Neutral	True
128.282	0.28	Control	0.9231	0.0	Yes	2.98	0.012	4.0	GoodResponse	0	0.267	127.549	2	12	Target	Neutral	True
128.549	0.3	Control	0.9231	0.0	Yes	2.98	0.012	4.0	GoodResponse	0	0.267	n/a	2	12	ButtonPress	Neutral	True
128.55	0.42	Control	0.9231	n/a	Yes	2.98	n/a	n/a	GoodResponse	0	n/a	n/a	2	12	Blank	Neutral	True
128.968	1.45	Control	0.9231	n/a	Yes	2.98	n/a	5.0	GoodResponse	0	0.031	127.999	2	12	Feedback	Neutral	True
130.422	2.98	Control	0.9231	n/a	Yes	2.98	n/a	n/a	GoodResponse	0	0.0	n/a	2	12	ISIslide	Neutral	True
133.414	0.25	Control	0.8571	0.0	No	2.786	0.014	n/a	NoResponse	0	n/a	n/a	2	13	Cue	Neutral	True
133.665	4.0	Control	0.8571	0.0	No	2.786	0.001	n/a	NoResponse	0	n/a	n/a	2	13	Fixation	Neutral	True
137.66	0.27	Control	0.8571	0.004	No	2.786	-0.004	4.0	NoResponse	0	0.362	137.022	2	13	Target	Neutral	True
137.944	0.43	Control	0.8571	n/a	No	2.786	n/a	n/a	NoResponse	0	n/a	n/a	2	13	Blank	Neutral	True
138.022	0.3	Control	0.8571	0.004	No	2.786	-0.004	4.0	NoResponse	0	0.362	n/a	2	13	ButtonPress	Neutral	True
138.362	1.45	Control	0.8571	n/a	No	2.786	n/a	5.0	NoResponse	0	0.005	137.367	2	13	Feedback	Neutral	True
139.817	2.786	Control	0.8571	n/a	No	2.786	n/a	n/a	NoResponse	0	0.0	n/a	2	13	ISIslide	Neutral	True
142.625	0.25	Win2	0.8667	0.0	Yes	2.675	0.025	n/a	GoodResponse	1	n/a	n/a	3	14	Cue	Win	True
142.876	4.1	Win2	0.8667	0.0	Yes	2.675	0.001	n/a	GoodResponse	1	n/a	n/a	3	14	Fixation	Win	True
146.971	0.26	Win2	0.8667	0.004	Yes	2.675	-0.004	4.0	GoodResponse	1	0.214	146.185	3	14	Target	Win	True
147.185	0.3	Win2	0.8667	0.004	Yes	2.675	-0.004	4.0	GoodResponse	1	0.214	n/a	3	14	ButtonPress	Win	True
147.239	0.44	Win2	0.8667	n/a	Yes	2.675	n/a	n/a	GoodResponse	1	n/a	n/a	3	14	Blank	Win	True
147.674	1.45	Win2	0.8667	n/a	Yes	2.675	n/a	5.0	GoodResponse	1	0.008	146.682	3	14	Feedback	Win	True
149.128	2.675	Win2	0.8667	n/a	Yes	2.675	n/a	n/a	GoodResponse	1	0.0	n/a	3	14	ISIslide	Win	True
151.819	0.25	Control	0.8125	0.0	No	2.981	0.019	n/a	NoResponse	0	n/a	n/a	3	15	Cue	Neutral	True
152.07	4.0	Control	0.8125	0.0	No	2.981	0.001	n/a	NoResponse	0	n/a	n/a	3	15	Fixation	Neutral	True
156.065	0.25	Control	0.8125	0.004	No	2.981	-0.004	4.0	NoResponse	0	0.296	155.361	3	15	Target	Neutral	True
156.316	0.45	Control	0.8125	n/a	No	2.981	n/a	n/a	NoResponse	0	n/a	n/a	3	15	Blank	Neutral	True
156.361	0.3	Control	0.8125	0.004	No	2.981	-0.004	4.0	NoResponse	0	0.296	n/a	3	15	ButtonPress	Neutral	True
156.768	1.45	Control	0.8125	n/a	No	2.981	n/a	5.0	NoResponse	0	0.036	155.804	3	15	Feedback	Neutral	True
158.222	2.981	Control	0.8125	n/a	No	2.981	n/a	n/a	NoResponse	0	0.0	n/a	3	15	ISIslide	Neutral	True
161.214	0.25	Win2	0.8234999999999999	0.0	Yes	2.886	0.014	n/a	GoodResponse	1	n/a	n/a	4	16	Cue	Win	True
161.465	4.0	Win2	0.8234999999999999	0.0	Yes	2.886	0.001	n/a	GoodResponse	1	n/a	n/a	4	16	Fixation	Win	True
165.46	0.24	Win2	0.8234999999999999	0.004	Yes	2.886	-0.004	4.0	GoodResponse	1	0.216	164.676	4	16	Target	Win	True
165.676	0.3	Win2	0.8234999999999999	0.004	Yes	2.886	-0.004	4.0	GoodResponse	1	0.216	n/a	4	16	ButtonPress	Win	True
165.711	0.46	Win2	0.8234999999999999	n/a	Yes	2.886	n/a	n/a	GoodResponse	1	n/a	n/a	4	16	Blank	Win	True
166.162	1.45	Win2	0.8234999999999999	n/a	Yes	2.886	n/a	5.0	GoodResponse	1	0.008	165.17	4	16	Feedback	Win	True
167.617	2.886	Win2	0.8234999999999999	n/a	Yes	2.886	n/a	n/a	GoodResponse	1	0.0	n/a	4	16	ISIslide	Win	True
170.525	0.25	Lose2	0.8332999999999999	0.0	Yes	2.725	0.025	n/a	GoodResponse	0	n/a	n/a	4	17	Cue	AvoidedLoss	True
170.776	3.95	Lose2	0.8332999999999999	0.0	Yes	2.725	0.001	n/a	GoodResponse	0	n/a	n/a	4	17	Fixation	AvoidedLoss	True
174.721	0.23	Lose2	0.8332999999999999	0.004	Yes	2.725	-0.004	4.0	GoodResponse	0	0.218	173.939	4	17	Target	AvoidedLoss	True
174.939	0.3	Lose2	0.8332999999999999	0.004	Yes	2.725	-0.004	4.0	GoodResponse	0	0.218	n/a	4	17	ButtonPress	AvoidedLoss	True
174.955	0.47	Lose2	0.8332999999999999	n/a	Yes	2.725	n/a	n/a	GoodResponse	0	n/a	n/a	4	17	Blank	AvoidedLoss	True
175.423	1.45	Lose2	0.8332999999999999	n/a	Yes	2.725	n/a	5.0	GoodResponse	0	0.014	174.437	4	17	Feedback	AvoidedLoss	True
176.878	2.725	Lose2	0.8332999999999999	n/a	Yes	2.725	n/a	n/a	GoodResponse	0	0.0	n/a	4	17	ISIslide	AvoidedLoss	True
179.619	0.25	Lose2	0.7895	0.0	No	2.731	0.019	n/a	NoResponse	-1	n/a	n/a	3	18	Cue	Loss	True
179.87	4.05	Lose2	0.7895	0.0	No	2.731	0.001	n/a	NoResponse	-1	n/a	n/a	3	18	Fixation	Loss	True
183.916	0.22	Lose2	0.7895	0.003	No	2.731	-0.003	4.0	NoResponse	-1	0.292	183.208	3	18	Target	Loss	True
184.15	0.48	Lose2	0.7895	n/a	No	2.731	n/a	n/a	NoResponse	-1	n/a	n/a	3	18	Blank	Loss	True
184.208	0.3	Lose2	0.7895	0.003	No	2.731	-0.003	4.0	NoResponse	-1	0.292	n/a	3	18	ButtonPress	Loss	True
184.618	1.45	Lose2	0.7895	n/a	No	2.731	n/a	5.0	NoResponse	-1	0.039	183.657	3	18	Feedback	Loss	True
186.072	2.731	Lose2	0.7895	n/a	No	2.731	n/a	n/a	NoResponse	-1	0.0	n/a	3	18	ISIslide	Loss	True
188.814	0.25	Control	0.75	0.0	No	2.936	0.014	n/a	NoResponse	0	n/a	n/a	3	19	Cue	Neutral	True
189.064	3.95	Control	0.75	0.0	No	2.936	0.0	n/a	NoResponse	0	n/a	n/a	3	19	Fixation	Neutral	True
193.026	0.21	Control	0.75	0.0	No	2.936	0.012	4.0	NoResponse	0	0.223	192.249	3	19	Target	Neutral	True
193.227	0.49	Control	0.75	n/a	No	2.936	n/a	n/a	NoResponse	0	n/a	n/a	3	19	Blank	Neutral	True
193.249	0.3	Control	0.75	0.0	No	2.936	0.012	4.0	NoResponse	0	0.223	n/a	3	19	ButtonPress	Neutral	True
193.712	1.45	Control	0.75	n/a	No	2.936	n/a	5.0	NoResponse	0	0.018	192.73	3	19	Feedback	Neutral	True
195.166	2.936	Control	0.75	n/a	No	2.936	n/a	n/a	NoResponse	0	0.0	n/a	3	19	ISIslide	Neutral	True
198.125	0.25	Control	0.7143	0.0	No	2.625	0.025	n/a	LatePress	0	n/a	n/a	3	20	Cue	Neutral	True
198.376	4.05	Control	0.7143	0.0	No	2.625	0.001	n/a	LatePress	0	n/a	n/a	3	20	Fixation	Neutral	True
202.421	0.2	Control	0.7143	0.004	No	2.625	-0.004	4.0	LatePress	0	0.202	201.623	3	20	Target	Neutral	True
202.622	0.5	Control	0.7143	n/a	No	2.625	n/a	n/a	LatePress	0	n/a	n/a	3	20	Blank	Neutral	True
202.623	0.3	Control	0.7143	0.004	No	2.625	-0.004	4.0	LatePress	0	0.202	n/a	3	20	ButtonPress	Neutral	True
203.123	1.45	Control	0.7143	n/a	No	2.625	n/a	5.0	LatePress	0	0.022	202.145	3	20	Feedback	Neutral	True
204.577	2.625	Control	0.7143	n/a	No	2.625	n/a	n/a	LatePress	0	0.0	n/a	3	20	ISIslide	Neutral	True
207.219	0.25	Control	0.6818000000000001	0.0	No	2.781	0.019	n/a	NoResponse	0	n/a	n/a	3	21	Cue	Neutral	True
207.469	4.1	Control	0.6818000000000001	0.001	No	2.781	0.0	n/a	NoResponse	0	n/a	n/a	3	21	Fixation	Neutral	True
211.565	0.19	Control	0.6818000000000001	0.004	No	2.781	-0.004	4.0	NoResponse	0	0.245	210.81	3	21	Target	Neutral	True
211.766	0.51	Control	0.6818000000000001	n/a	No	2.781	n/a	n/a	NoResponse	0	n/a	n/a	3	21	Blank	Neutral	True
211.81	0.3	Control	0.6818000000000001	0.004	No	2.781	-0.004	4.0	NoResponse	0	0.245	n/a	3	21	ButtonPress	Neutral	True
212.267	1.45	Control	0.6818000000000001	n/a	No	2.781	n/a	5.0	NoResponse	0	0.049	211.316	3	21	Feedback	Neutral	True
213.721	2.781	Control	0.6818000000000001	n/a	No	2.781	n/a	n/a	NoResponse	0	0.0	n/a	3	21	ISIslide	Neutral	True
216.513	0.25	Control	0.6522	0.0	No	2.787	0.013	n/a	NoResponse	0	n/a	n/a	3	22	Cue	Neutral	True
216.764	4.0	Control	0.6522	0.0	No	2.787	0.001	n/a	NoResponse	0	n/a	n/a	3	22	Fixation	Neutral	True
220.759	0.18	Control	0.6522	0.004	No	2.787	-0.004	4.0	NoResponse	0	0.262	220.021	3	22	Target	Neutral	True
220.943	0.52	Control	0.6522	n/a	No	2.787	n/a	n/a	NoResponse	0	n/a	n/a	3	22	Blank	Neutral	True
221.021	0.3	Control	0.6522	0.004	No	2.787	-0.004	4.0	NoResponse	0	0.262	n/a	3	22	ButtonPress	Neutral	True
221.461	1.45	Control	0.6522	n/a	No	2.787	n/a	5.0	NoResponse	0	0.026	220.487	3	22	Feedback	Neutral	True
222.916	2.787	Control	0.6522	n/a	No	2.787	n/a	n/a	NoResponse	0	0.0	n/a	3	22	ISIslide	Neutral	True
225.724	0.25	Control	0.625	0.0	No	2.776	0.024	n/a	NoResponse	0	n/a	n/a	3	23	Cue	Neutral	True
225.975	3.9	Control	0.625	0.0	No	2.776	0.001	n/a	NoResponse	0	n/a	n/a	3	23	Fixation	Neutral	True
229.87	0.19	Control	0.625	0.004	No	2.776	-0.004	4.0	NoResponse	0	0.282	229.152	3	23	Target	Neutral	True
230.07	0.51	Control	0.625	n/a	No	2.776	n/a	n/a	NoResponse	0	n/a	n/a	3	23	Blank	Neutral	True
230.152	0.3	Control	0.625	0.004	No	2.776	-0.004	4.0	NoResponse	0	0.282	n/a	3	23	ButtonPress	Neutral	True
230.572	1.45	Control	0.625	n/a	No	2.776	n/a	5.0	NoResponse	0	0.037	229.609	3	23	Feedback	Neutral	True
232.026	2.776	Control	0.625	n/a	No	2.776	n/a	n/a	NoResponse	0	0.0	n/a	3	23	ISIslide	Neutral	True
234.818	0.25	Win2	0.6	0.0	No	3.132	0.018	n/a	NoResponse	0	n/a	n/a	3	24	Cue	MissedWin	False
235.069	3.95	Win2	0.6	0.0	No	3.132	0.001	4.0	NoResponse	0	3.313	237.382	3	24	Fixation	MissedWin	False
238.382	0.3	Win2	0.6	0.0	No	3.132	0.001	4.0	NoResponse	0	3.313	n/a	3	24	ButtonPress	MissedWin	False
239.014	0.2	Win2	0.6	0.004	No	3.132	-0.004	4.0	NoResponse	0	0.225	238.239	3	24	Target	MissedWin	False
239.215	0.5	Win2	0.6	n/a	No	3.132	n/a	n/a	NoResponse	0	n/a	n/a	3	24	Blank	MissedWin	False
239.239	0.3	Win2	0.6	0.004	No	3.132	-0.004	4.0	NoResponse	0	0.225	n/a	3	24	ButtonPress	MissedWin	False
239.716	1.45	Win2	0.6	n/a	No	3.132	n/a	5.0	NoResponse	0	0.014	238.73	3	24	Feedback	MissedWin	False
241.17	3.132	Win2	0.6	n/a	No	3.132	n/a	n/a	NoResponse	0	0.0	n/a	3	24	ISIslide	MissedWin	False
244.33	0.25	Win2	0.5769	0.0	No	3.07	0.03	n/a	NoResponse	0	n/a	n/a	3	25	Cue	MissedWin	True
244.581	4.0	Win2	0.5769	0.0	No	3.07	0.001	n/a	NoResponse	0	n/a	n/a	3	25	Fixation	MissedWin	True
248.576	0.21	Win2	0.5769	0.004	No	3.07	-0.004	4.0	NoResponse	0	0.24	247.816	3	25	Target	MissedWin	True
248.793	0.49	Win2	0.5769	n/a	No	3.07	n/a	n/a	NoResponse	0	n/a	n/a	3	25	Blank	MissedWin	True
248.816	0.3	Win2	0.5769	0.004	No	3.07	-0.004	4.0	NoResponse	0	0.24	n/a	3	25	ButtonPress	MissedWin	True
249.278	1.45	Win2	0.5769	n/a	No	3.07	n/a	5.0	NoResponse	0	0.013	248.291	3	25	Feedback	MissedWin	True
250.732	3.07	Win2	0.5769	n/a	No	3.07	n/a	n/a	NoResponse	0	0.0	n/a	3	25	ISIslide	MissedWin	True
253.825	0.25	Win2	0.5556	0.0	No	2.925	0.025	n/a	NoResponse	0	n/a	n/a	3	26	Cue	MissedWin	True
254.076	3.95	Win2	0.5556	0.0	No	2.925	0.001	n/a	NoResponse	0	n/a	n/a	3	26	Fixation	MissedWin	True
258.021	0.22	Win2	0.5556	0.004	No	2.925	-0.004	4.0	NoResponse	0	0.249	257.27	3	26	Target	MissedWin	True
258.255	0.48	Win2	0.5556	n/a	No	2.925	n/a	n/a	NoResponse	0	n/a	n/a	3	26	Blank	MissedWin	True
258.27	0.3	Win2	0.5556	0.004	No	2.925	-0.004	4.0	NoResponse	0	0.249	n/a	3	26	ButtonPress	MissedWin	True
258.723	1.45	Win2	0.5556	n/a	No	2.925	n/a	5.0	NoResponse	0	0.031	257.754	3	26	Feedback	MissedWin	True
260.177	2.925	Win2	0.5556	n/a	No	2.925	n/a	n/a	NoResponse	0	0.0	n/a	3	26	ISIslide	MissedWin	True
263.12	0.25	Lose2	0.5357	0.0	No	2.83	0.02	n/a	NoResponse	-1	n/a	n/a	2	27	Cue	Loss	True
263.37	4.05	Lose2	0.5357	0.0	No	2.83	0.0	n/a	NoResponse	-1	n/a	n/a	2	27	Fixation	Loss	True
267.416	0.23	Lose2	0.5357	0.004	No	2.83	-0.004	4.0	NoResponse	-1	0.24	266.656	2	27	Target	Loss	True
267.65	0.47	Lose2	0.5357	n/a	No	2.83	n/a	n/a	NoResponse	-1	n/a	n/a	2	27	Blank	Loss	True
267.656	0.3	Lose2	0.5357	0.004	No	2.83	-0.004	4.0	NoResponse	-1	0.24	n/a	2	27	ButtonPress	Loss	True
268.118	1.45	Lose2	0.5357	n/a	No	2.83	n/a	5.0	NoResponse	-1	0.002	267.12	2	27	Feedback	Loss	True
269.572	2.83	Lose2	0.5357	n/a	No	2.83	n/a	n/a	NoResponse	-1	0.0	n/a	2	27	ISIslide	Loss	True
272.414	0.25	Control	0.5172	0.0	No	2.836	0.014	n/a	NoResponse	0	n/a	n/a	2	28	Cue	Neutral	True
272.665	4.05	Control	0.5172	0.0	No	2.836	0.001	n/a	NoResponse	0	n/a	n/a	2	28	Fixation	Neutral	True
276.71	0.24	Control	0.5172	0.004	No	2.836	-0.004	4.0	NoResponse	0	0.285	275.995	2	28	Target	Neutral	True
276.961	0.46	Control	0.5172	n/a	No	2.836	n/a	n/a	NoResponse	0	n/a	n/a	2	28	Blank	Neutral	True
276.995	0.3	Control	0.5172	0.004	No	2.836	-0.004	4.0	NoResponse	0	0.285	n/a	2	28	ButtonPress	Neutral	True
277.412	1.45	Control	0.5172	n/a	No	2.836	n/a	5.0	NoResponse	0	0.026	276.438	2	28	Feedback	Neutral	True
278.867	2.836	Control	0.5172	n/a	No	2.836	n/a	n/a	NoResponse	0	0.0	n/a	2	28	ISIslide	Neutral	True
281.725	0.25	Lose2	0.5	0.0	No	2.825	0.025	n/a	NoResponse	-1	n/a	n/a	1	29	Cue	Loss	True
281.976	3.95	Lose2	0.5	0.0	No	2.825	0.001	n/a	NoResponse	-1	n/a	n/a	1	29	Fixation	Loss	True
285.921	0.25	Lose2	0.5	0.004	No	2.825	-0.004	4.0	NoResponse	-1	0.271	285.192	1	29	Target	Loss	True
286.172	0.45	Lose2	0.5	n/a	No	2.825	n/a	n/a	NoResponse	-1	n/a	n/a	1	29	Blank	Loss	True
286.192	0.3	Lose2	0.5	0.004	No	2.825	-0.004	4.0	NoResponse	-1	0.271	n/a	1	29	ButtonPress	Loss	True
286.623	1.45	Lose2	0.5	n/a	No	2.825	n/a	5.0	NoResponse	-1	0.034	285.657	1	29	Feedback	Loss	True
288.078	2.825	Lose2	0.5	n/a	No	2.825	n/a	n/a	NoResponse	-1	0.0	n/a	1	29	ISIslide	Loss	True
290.919	0.25	Win2	0.4839	0.001	No	2.781	0.019	n/a	NoResponse	0	n/a	n/a	1	30	Cue	MissedWin	False
291.17	3.9	Win2	0.4839	0.0	No	2.781	0.001	4.0	NoResponse	0	3.841	294.011	1	30	Fixation	MissedWin	False
295.011	0.3	Win2	0.4839	0.0	No	2.781	0.001	4.0	NoResponse	0	3.841	n/a	1	30	ButtonPress	MissedWin	False
295.065	0.26	Win2	0.4839	0.004	No	2.781	-0.004	4.0	NoResponse	0	0.273	294.338	1	30	Target	MissedWin	False
295.333	0.44	Win2	0.4839	n/a	No	2.781	n/a	n/a	NoResponse	0	n/a	n/a	1	30	Blank	MissedWin	False
295.338	0.3	Win2	0.4839	0.004	No	2.781	-0.004	4.0	NoResponse	0	0.273	n/a	1	30	ButtonPress	MissedWin	False
295.767	1.45	Win2	0.4839	n/a	No	2.781	n/a	5.0	NoResponse	0	0.011	294.778	1	30	Feedback	MissedWin	False
297.222	2.781	Win2	0.4839	n/a	No	2.781	n/a	n/a	NoResponse	0	0.0	n/a	1	30	ISIslide	MissedWin	False
300.013	0.25	Lose2	0.46880000000000005	0.0	No	2.837	0.013	n/a	LatePress	-1	n/a	n/a	0	31	Cue	Loss	True
300.264	4.05	Lose2	0.46880000000000005	0.0	No	2.837	0.001	n/a	LatePress	-1	n/a	n/a	0	31	Fixation	Loss	True
304.31	0.27	Lose2	0.46880000000000005	0.003	No	2.837	-0.003	4.0	LatePress	-1	0.27	303.58	0	31	Target	Loss	True
304.58	0.3	Lose2	0.46880000000000005	0.003	No	2.837	-0.003	4.0	LatePress	-1	0.27	n/a	0	31	ButtonPress	Loss	True
304.594	0.43	Lose2	0.46880000000000005	n/a	No	2.837	n/a	n/a	LatePress	-1	n/a	n/a	0	31	Blank	Loss	True
305.012	1.45	Lose2	0.46880000000000005	n/a	No	2.837	n/a	5.0	LatePress	-1	0.035	304.047	0	31	Feedback	Loss	True
306.466	2.837	Lose2	0.46880000000000005	n/a	No	2.837	n/a	n/a	LatePress	-1	0.0	n/a	0	31	ISIslide	Loss	True
309.325	0.25	Lose2	0.4545	0.0	No	2.625	0.025	n/a	NoResponse	-1	n/a	n/a	-1	32	Cue	Loss	True
309.575	4.15	Lose2	0.4545	0.0	No	2.625	0.0	n/a	NoResponse	-1	n/a	n/a	-1	32	Fixation	Loss	True
313.721	0.28	Lose2	0.4545	0.004	No	2.625	-0.004	4.0	NoResponse	-1	0.29	313.011	-1	32	Target	Loss	True
314.005	0.42	Lose2	0.4545	n/a	No	2.625	n/a	n/a	NoResponse	-1	n/a	n/a	-1	32	Blank	Loss	True
314.011	0.3	Lose2	0.4545	0.004	No	2.625	-0.004	4.0	NoResponse	-1	0.29	n/a	-1	32	ButtonPress	Loss	True
314.423	1.45	Lose2	0.4545	n/a	No	2.625	n/a	5.0	NoResponse	-1	0.038	313.461	-1	32	Feedback	Loss	True
315.878	2.625	Lose2	0.4545	n/a	No	2.625	n/a	n/a	NoResponse	-1	0.0	n/a	-1	32	ISIslide	Loss	True
318.519	0.25	Win2	0.4706	0.0	Yes	2.681	0.019	n/a	GoodResponse	1	n/a	n/a	0	33	Cue	Win	True
318.77	4.0	Win2	0.4706	0.0	Yes	2.681	0.001	n/a	GoodResponse	1	n/a	n/a	0	33	Fixation	Win	True
322.765	0.29	Win2	0.4706	0.004	Yes	2.681	-0.004	4.0	GoodResponse	1	0.287	322.052	0	33	Target	Win	True
323.052	0.3	Win2	0.4706	0.004	Yes	2.681	-0.004	4.0	GoodResponse	1	0.287	n/a	0	33	ButtonPress	Win	True
323.066	0.41	Win2	0.4706	n/a	Yes	2.681	n/a	n/a	GoodResponse	1	n/a	n/a	0	33	Blank	Win	True
323.467	1.45	Win2	0.4706	n/a	Yes	2.681	n/a	5.0	GoodResponse	1	0.019	322.486	0	33	Feedback	Win	True
324.921	2.681	Win2	0.4706	n/a	Yes	2.681	n/a	n/a	GoodResponse	1	0.0	n/a	0	33	ISIslide	Win	True
327.629	0.25	Lose2	0.4571	0.001	No	2.621	0.029	n/a	NoResponse	-1	n/a	n/a	-1	34	Cue	Loss	True
327.88	4.05	Lose2	0.4571	0.0	No	2.621	0.001	n/a	NoResponse	-1	n/a	n/a	-1	34	Fixation	Loss	True
331.926	0.3	Lose2	0.4571	0.003	No	2.621	-0.003	4.0	NoResponse	-1	0.351	331.277	-1	34	Target	Loss	True
332.227	0.4	Lose2	0.4571	n/a	No	2.621	n/a	n/a	NoResponse	-1	n/a	n/a	-1	34	Blank	Loss	True
332.277	0.3	Lose2	0.4571	0.003	No	2.621	-0.003	4.0	NoResponse	-1	0.351	n/a	-1	34	ButtonPress	Loss	True
332.628	1.45	Lose2	0.4571	n/a	No	2.621	n/a	5.0	NoResponse	-1	0.029	331.657	-1	34	Feedback	Loss	True
334.082	2.621	Lose2	0.4571	n/a	No	2.621	n/a	n/a	NoResponse	-1	0.0	n/a	-1	34	ISIslide	Loss	True
336.723	0.25	Lose2	0.4722	0.0	Yes	2.677	0.023	n/a	GoodResponse	0	n/a	n/a	-1	35	Cue	AvoidedLoss	True
336.974	4.0	Lose2	0.4722	0.0	Yes	2.677	0.001	n/a	GoodResponse	0	n/a	n/a	-1	35	Fixation	AvoidedLoss	True
340.969	0.31	Lose2	0.4722	0.004	Yes	2.677	-0.004	4.0	GoodResponse	0	0.288	340.257	-1	35	Target	AvoidedLoss	True
341.257	0.3	Lose2	0.4722	0.004	Yes	2.677	-0.004	4.0	GoodResponse	0	0.288	n/a	-1	35	ButtonPress	AvoidedLoss	True
341.287	0.39	Lose2	0.4722	n/a	Yes	2.677	n/a	n/a	GoodResponse	0	n/a	n/a	-1	35	Blank	AvoidedLoss	True
341.672	1.45	Lose2	0.4722	n/a	Yes	2.677	n/a	5.0	GoodResponse	0	0.009	340.681	-1	35	Feedback	AvoidedLoss	True
343.126	2.677	Lose2	0.4722	n/a	Yes	2.677	n/a	n/a	GoodResponse	0	0.0	n/a	-1	35	ISIslide	AvoidedLoss	True
345.817	0.25	Control	0.4865	0.0	Yes	2.683	0.017	n/a	GoodResponse	0	n/a	n/a	-1	36	Cue	Neutral	True
346.068	4.0	Control	0.4865	0.0	Yes	2.683	0.001	n/a	GoodResponse	0	n/a	n/a	-1	36	Fixation	Neutral	True
350.063	0.32	Control	0.4865	0.004	Yes	2.683	-0.004	4.0	GoodResponse	0	0.254	349.317	-1	36	Target	Neutral	True
350.317	0.3	Control	0.4865	0.004	Yes	2.683	-0.004	4.0	GoodResponse	0	0.254	n/a	-1	36	ButtonPress	Neutral	True
350.398	0.38	Control	0.4865	n/a	Yes	2.683	n/a	n/a	GoodResponse	0	n/a	n/a	-1	36	Blank	Neutral	True
350.765	1.45	Control	0.4865	n/a	Yes	2.683	n/a	5.0	GoodResponse	0	0.038	349.803	-1	36	Feedback	Neutral	True
352.22	2.683	Control	0.4865	n/a	Yes	2.683	n/a	n/a	GoodResponse	0	0.0	n/a	-1	36	ISIslide	Neutral	True
354.928	0.25	Win2	0.5	0.0	Yes	2.872	0.028	n/a	GoodResponse	1	n/a	n/a	0	37	Cue	Win	True
355.179	4.0	Win2	0.5	0.0	Yes	2.872	0.001	n/a	GoodResponse	1	n/a	n/a	0	37	Fixation	Win	True
359.174	0.33	Win2	0.5	0.004	Yes	2.872	-0.004	4.0	GoodResponse	1	0.298	358.472	0	37	Target	Win	True
359.472	0.3	Win2	0.5	0.004	Yes	2.872	-0.004	4.0	GoodResponse	1	0.298	n/a	0	37	ButtonPress	Win	True
359.508	0.37	Win2	0.5	n/a	Yes	2.872	n/a	n/a	GoodResponse	1	n/a	n/a	0	37	Blank	Win	True
359.876	1.45	Win2	0.5	n/a	Yes	2.872	n/a	5.0	GoodResponse	1	0.048	358.924	0	37	Feedback	Win	True
361.33	2.872	Win2	0.5	n/a	Yes	2.872	n/a	n/a	GoodResponse	1	0.0	n/a	0	37	ISIslide	Win	True
364.222	0.25	Lose2	0.5128	0.001	Yes	2.828	0.022	n/a	GoodResponse	0	n/a	n/a	0	38	Cue	AvoidedLoss	True
364.473	3.95	Lose2	0.5128	0.0	Yes	2.828	0.001	n/a	GoodResponse	0	n/a	n/a	0	38	Fixation	AvoidedLoss	True
368.418	0.34	Lose2	0.5128	0.004	Yes	2.828	-0.004	4.0	GoodResponse	0	0.291	367.709	0	38	Target	AvoidedLoss	True
368.709	0.3	Lose2	0.5128	0.004	Yes	2.828	-0.004	4.0	GoodResponse	0	0.291	n/a	0	38	ButtonPress	AvoidedLoss	True
368.769	0.36	Lose2	0.5128	n/a	Yes	2.828	n/a	n/a	GoodResponse	0	n/a	n/a	0	38	Blank	AvoidedLoss	True
369.12	1.45	Lose2	0.5128	n/a	Yes	2.828	n/a	5.0	GoodResponse	0	0.024	368.144	0	38	Feedback	AvoidedLoss	True
370.575	2.828	Lose2	0.5128	n/a	Yes	2.828	n/a	n/a	GoodResponse	0	0.0	n/a	0	38	ISIslide	AvoidedLoss	True
373.417	0.25	Win2	0.5	0.0	No	2.983	0.017	n/a	NoResponse	0	n/a	n/a	0	39	Cue	MissedWin	True
373.667	4.1	Win2	0.5	0.0	No	2.983	0.0	n/a	NoResponse	0	n/a	n/a	0	39	Fixation	MissedWin	True
377.763	0.35	Win2	0.5	0.004	No	2.983	-0.004	4.0	NoResponse	0	0.391	377.154	0	39	Target	MissedWin	True
378.114	0.35	Win2	0.5	n/a	No	2.983	n/a	n/a	NoResponse	0	n/a	n/a	0	39	Blank	MissedWin	True
378.154	0.3	Win2	0.5	0.004	No	2.983	-0.004	4.0	NoResponse	0	0.391	n/a	0	39	ButtonPress	MissedWin	True
378.465	1.45	Win2	0.5	n/a	No	2.983	n/a	5.0	NoResponse	0	0.045	377.51	0	39	Feedback	MissedWin	True
379.919	2.983	Win2	0.5	n/a	No	2.983	n/a	n/a	NoResponse	0	0.0	n/a	0	39	ISIslide	MissedWin	True
382.929	0.25	Win2	0.5122	0.0	Yes	2.721	0.029	n/a	GoodResponse	1	n/a	n/a	1	40	Cue	Win	True
383.179	3.95	Win2	0.5122	0.0	Yes	2.721	0.0	n/a	GoodResponse	1	n/a	n/a	1	40	Fixation	Win	True
387.141	0.36	Win2	0.5122	0.0	Yes	2.721	0.012	4.0	GoodResponse	1	0.253	386.394	1	40	Target	Win	True
387.394	0.3	Win2	0.5122	0.0	Yes	2.721	0.012	4.0	GoodResponse	1	0.253	n/a	1	40	ButtonPress	Win	True
387.492	0.34	Win2	0.5122	n/a	Yes	2.721	n/a	n/a	GoodResponse	1	n/a	n/a	1	40	Blank	Win	True
387.827	1.45	Win2	0.5122	n/a	Yes	2.721	n/a	5.0	GoodResponse	1	0.0	386.827	1	40	Feedback	Win	True
389.281	2.721	Win2	0.5122	n/a	Yes	2.721	n/a	n/a	GoodResponse	1	0.0	n/a	1	40	ISIslide	Win	True
392.022	0.25	Win2	0.5238	0.001	Yes	2.778	0.022	n/a	GoodResponse	1	n/a	n/a	2	41	Cue	Win	True
392.273	3.9	Win2	0.5238	0.0	Yes	2.778	0.001	n/a	GoodResponse	1	n/a	n/a	2	41	Fixation	Win	True
396.168	0.37	Win2	0.5238	0.004	Yes	2.778	-0.004	4.0	GoodResponse	1	0.233	395.401	2	41	Target	Win	True
396.401	0.3	Win2	0.5238	0.004	Yes	2.778	-0.004	4.0	GoodResponse	1	0.233	n/a	2	41	ButtonPress	Win	True
396.553	0.33	Win2	0.5238	n/a	Yes	2.778	n/a	n/a	GoodResponse	1	n/a	n/a	2	41	Blank	Win	True
396.87	1.45	Win2	0.5238	n/a	Yes	2.778	n/a	5.0	GoodResponse	1	0.03	395.9	2	41	Feedback	Win	True
398.325	2.778	Win2	0.5238	n/a	Yes	2.778	n/a	n/a	GoodResponse	1	0.0	n/a	2	41	ISIslide	Win	True
401.116	0.25	Control	0.5349	0.0	Yes	2.934	0.016	n/a	GoodResponse	0	n/a	n/a	2	42	Cue	Neutral	True
401.367	3.85	Control	0.5349	0.0	Yes	2.934	0.001	n/a	GoodResponse	0	n/a	n/a	2	42	Fixation	Neutral	True
405.212	0.38	Control	0.5349	0.004	Yes	2.934	-0.004	4.0	GoodResponse	0	0.249	404.461	2	42	Target	Neutral	True
405.461	0.3	Control	0.5349	0.004	Yes	2.934	-0.004	4.0	GoodResponse	0	0.249	n/a	2	42	ButtonPress	Neutral	True
405.596	0.32	Control	0.5349	n/a	Yes	2.934	n/a	n/a	GoodResponse	0	n/a	n/a	2	42	Blank	Neutral	True
405.914	1.45	Control	0.5349	n/a	Yes	2.934	n/a	5.0	GoodResponse	0	0.011	404.925	2	42	Feedback	Neutral	True
407.368	2.934	Control	0.5349	n/a	Yes	2.934	n/a	n/a	GoodResponse	0	0.0	n/a	2	42	ISIslide	Neutral	True
410.327	0.25	Win2	0.5455	0.0	Yes	3.173	0.027	n/a	GoodResponse	1	n/a	n/a	3	43	Cue	Win	True
410.578	4.0	Win2	0.5455	0.0	Yes	3.173	0.001	n/a	GoodResponse	1	n/a	n/a	3	43	Fixation	Win	True
414.573	0.39	Win2	0.5455	0.004	Yes	3.173	-0.004	4.0	GoodResponse	1	0.287	413.86	3	43	Target	Win	True
414.86	0.3	Win2	0.5455	0.004	Yes	3.173	-0.004	4.0	GoodResponse	1	0.287	n/a	3	43	ButtonPress	Win	True
414.975	0.31	Win2	0.5455	n/a	Yes	3.173	n/a	n/a	GoodResponse	1	n/a	n/a	3	43	Blank	Win	True
415.275	1.45	Win2	0.5455	n/a	Yes	3.173	n/a	5.0	GoodResponse	1	0.015	414.29	3	43	Feedback	Win	True
416.73	3.173	Win2	0.5455	n/a	Yes	3.173	n/a	n/a	GoodResponse	1	0.0	n/a	3	43	ISIslide	Win	True
419.923	0.25	Win2	0.5556	0.0	Yes	2.977	0.023	n/a	GoodResponse	1	n/a	n/a	4	44	Cue	Win	True
420.173	4.0	Win2	0.5556	0.001	Yes	2.977	0.0	n/a	GoodResponse	1	n/a	n/a	4	44	Fixation	Win	True
424.169	0.4	Win2	0.5556	0.004	Yes	2.977	-0.004	4.0	GoodResponse	1	0.292	423.461	4	44	Target	Win	True
424.461	0.3	Win2	0.5556	0.004	Yes	2.977	-0.004	4.0	GoodResponse	1	0.292	n/a	4	44	ButtonPress	Win	True
424.57	0.3	Win2	0.5556	n/a	Yes	2.977	n/a	n/a	GoodResponse	1	n/a	n/a	4	44	Blank	Win	True
424.871	1.45	Win2	0.5556	n/a	Yes	2.977	n/a	5.0	GoodResponse	1	0.028	423.899	4	44	Feedback	Win	True
426.325	2.977	Win2	0.5556	n/a	Yes	2.977	n/a	n/a	GoodResponse	1	0.0	n/a	4	44	ISIslide	Win	True
429.318	0.25	Control	0.5435	0.0	No	2.882	0.018	n/a	NoResponse	0	n/a	n/a	4	45	Cue	Neutral	False
429.568	4.1	Control	0.5435	0.0	No	2.882	0.0	n/a	NoResponse	0	n/a	n/a	4	45	Fixation	Neutral	False
433.664	0.41	Control	0.5435	0.004	No	2.882	-0.004	n/a	NoResponse	0	n/a	n/a	4	45	Target	Neutral	False
434.082	0.29	Control	0.5435	n/a	No	2.882	n/a	n/a	NoResponse	0	n/a	n/a	4	45	Blank	Neutral	False
434.366	1.45	Control	0.5435	n/a	No	2.882	n/a	5.0	NoResponse	0	0.046	433.412	4	45	Feedback	Neutral	False
435.82	2.882	Control	0.5435	n/a	No	2.882	n/a	n/a	NoResponse	0	0.0	n/a	4	45	ISIslide	Neutral	False
438.729	0.25	Lose2	0.5532	0.0	Yes	3.371	0.029	n/a	GoodResponse	0	n/a	n/a	4	46	Cue	AvoidedLoss	True
438.98	4.0	Lose2	0.5532	0.0	Yes	3.371	0.001	n/a	GoodResponse	0	n/a	n/a	4	46	Fixation	AvoidedLoss	True
442.975	0.42	Lose2	0.5532	0.004	Yes	3.371	-0.004	4.0	GoodResponse	0	0.231	442.206	4	46	Target	AvoidedLoss	True
443.206	0.3	Lose2	0.5532	0.004	Yes	3.371	-0.004	4.0	GoodResponse	0	0.231	n/a	4	46	ButtonPress	AvoidedLoss	True
443.41	0.28	Lose2	0.5532	n/a	Yes	3.371	n/a	n/a	GoodResponse	0	n/a	n/a	4	46	Blank	AvoidedLoss	True
443.677	1.45	Lose2	0.5532	n/a	Yes	3.371	n/a	5.0	GoodResponse	0	0.005	442.682	4	46	Feedback	AvoidedLoss	True
445.132	3.371	Lose2	0.5532	n/a	Yes	3.371	n/a	n/a	GoodResponse	0	0.0	n/a	4	46	ISIslide	AvoidedLoss	True
448.525	0.25	Lose2	0.5625	0.0	Yes	2.675	0.025	n/a	GoodResponse	0	n/a	n/a	4	47	Cue	AvoidedLoss	True
448.776	4.0	Lose2	0.5625	0.0	Yes	2.675	0.001	n/a	GoodResponse	0	n/a	n/a	4	47	Fixation	AvoidedLoss	True
452.771	0.43	Lose2	0.5625	0.004	Yes	2.675	-0.004	4.0	GoodResponse	0	0.251	452.022	4	47	Target	AvoidedLoss	True
453.022	0.3	Lose2	0.5625	0.004	Yes	2.675	-0.004	4.0	GoodResponse	0	0.251	n/a	4	47	ButtonPress	AvoidedLoss	True
453.206	0.27	Lose2	0.5625	n/a	Yes	2.675	n/a	n/a	GoodResponse	0	n/a	n/a	4	47	Blank	AvoidedLoss	True
453.473	1.45	Lose2	0.5625	n/a	Yes	2.675	n/a	5.0	GoodResponse	0	0.012	452.485	4	47	Feedback	AvoidedLoss	True
454.928	2.675	Lose2	0.5625	n/a	Yes	2.675	n/a	n/a	GoodResponse	0	0.0	n/a	4	47	ISIslide	AvoidedLoss	True
457.619	0.25	Lose2	0.5714	0.0	Yes	3.031	0.019	n/a	GoodResponse	0	n/a	n/a	4	48	Cue	AvoidedLoss	True
457.87	3.95	Lose2	0.5714	0.0	Yes	3.031	0.001	n/a	GoodResponse	0	n/a	n/a	4	48	Fixation	AvoidedLoss	True
461.815	0.44	Lose2	0.5714	0.004	Yes	3.031	-0.004	4.0	GoodResponse	0	0.273	461.088	4	48	Target	AvoidedLoss	True
462.088	0.3	Lose2	0.5714	0.004	Yes	3.031	-0.004	4.0	GoodResponse	0	0.273	n/a	4	48	ButtonPress	AvoidedLoss	True
462.266	0.26	Lose2	0.5714	n/a	Yes	3.031	n/a	n/a	GoodResponse	0	n/a	n/a	4	48	Blank	AvoidedLoss	True
462.517	1.45	Lose2	0.5714	n/a	Yes	3.031	n/a	5.0	GoodResponse	0	0.041	461.558	4	48	Feedback	AvoidedLoss	True
463.971	3.031	Lose2	0.5714	n/a	Yes	3.031	n/a	n/a	GoodResponse	0	0.0	n/a	4	48	ISIslide	AvoidedLoss	True
467.014	0.25	Control	0.58	0.0	Yes	2.886	0.014	n/a	GoodResponse	0	n/a	n/a	4	49	Cue	Neutral	True
467.265	4.0	Control	0.58	0.0	Yes	2.886	0.001	n/a	GoodResponse	0	n/a	n/a	4	49	Fixation	Neutral	True
471.26	0.45	Control	0.58	0.004	Yes	2.886	-0.004	4.0	GoodResponse	0	0.271	470.531	4	49	Target	Neutral	True
471.531	0.3	Control	0.58	0.004	Yes	2.886	-0.004	4.0	GoodResponse	0	0.271	n/a	4	49	ButtonPress	Neutral	True
471.711	0.25	Control	0.58	n/a	Yes	2.886	n/a	n/a	GoodResponse	0	n/a	n/a	4	49	Blank	Neutral	True
471.962	1.45	Control	0.58	n/a	Yes	2.886	n/a	5.0	GoodResponse	0	0.01	470.972	4	49	Feedback	Neutral	True
473.416	2.886	Control	0.58	n/a	Yes	2.886	n/a	n/a	GoodResponse	0	0.0	n/a	4	49	ISIslide	Neutral	True
476.325	0.25	Control	0.5882000000000001	0.0	Yes	2.775	0.025	n/a	GoodResponse	0	n/a	n/a	4	50	Cue	Neutral	True
476.576	4.0	Control	0.5882000000000001	0.0	Yes	2.775	0.001	n/a	GoodResponse	0	n/a	n/a	4	50	Fixation	Neutral	True
480.571	0.46	Control	0.5882000000000001	0.004	Yes	2.775	-0.004	4.0	GoodResponse	0	0.273	479.844	4	50	Target	Neutral	True
480.844	0.3	Control	0.5882000000000001	0.004	Yes	2.775	-0.004	4.0	GoodResponse	0	0.273	n/a	4	50	ButtonPress	Neutral	True
481.039	0.24	Control	0.5882000000000001	n/a	Yes	2.775	n/a	n/a	GoodResponse	0	n/a	n/a	4	50	Blank	Neutral	True
481.273	1.45	Control	0.5882000000000001	n/a	Yes	2.775	n/a	5.0	GoodResponse	0	0.016	480.289	4	50	Feedback	Neutral	True
482.728	2.775	Control	0.5882000000000001	n/a	Yes	2.775	n/a	n/a	GoodResponse	0	0.0	n/a	4	50	ISIslide	Neutral	True
485.519	0.25	Control	0.5962	0.0	Yes	2.731	0.019	n/a	GoodResponse	0	n/a	n/a	4	51	Cue	Neutral	True
485.77	3.95	Control	0.5962	0.0	Yes	2.731	0.001	n/a	GoodResponse	0	n/a	n/a	4	51	Fixation	Neutral	True
489.715	0.47	Control	0.5962	0.004	Yes	2.731	-0.004	4.0	GoodResponse	0	0.285	489.0	4	51	Target	Neutral	True
490	0.3	Control	0.5962	0.004	Yes	2.731	-0.004	4.0	GoodResponse	0	0.285	n/a	4	51	ButtonPress	Neutral	True
490.2	0.23	Control	0.5962	n/a	Yes	2.731	n/a	n/a	GoodResponse	0	n/a	n/a	4	51	Blank	Neutral	True
490.417	1.45	Control	0.5962	n/a	Yes	2.731	n/a	5.0	GoodResponse	0	0.043	489.46	4	51	Feedback	Neutral	True
491.872	2.731	Control	0.5962	n/a	Yes	2.731	n/a	n/a	GoodResponse	0	0.0	n/a	4	51	ISIslide	Neutral	True
494.613	0.25	Control	0.6038	0.0	Yes	2.637	0.013	n/a	GoodResponse	0	n/a	n/a	4	52	Cue	Neutral	True
494.864	4.05	Control	0.6038	0.0	Yes	2.637	0.001	n/a	GoodResponse	0	n/a	n/a	4	52	Fixation	Neutral	True
498.909	0.48	Control	0.6038	0.004	Yes	2.637	-0.004	4.0	GoodResponse	0	0.319	498.228	4	52	Target	Neutral	True
499.228	0.3	Control	0.6038	0.004	Yes	2.637	-0.004	4.0	GoodResponse	0	0.319	n/a	4	52	ButtonPress	Neutral	True
499.394	0.22	Control	0.6038	n/a	Yes	2.637	n/a	n/a	GoodResponse	0	n/a	n/a	4	52	Blank	Neutral	True
499.611	1.45	Control	0.6038	n/a	Yes	2.637	n/a	5.0	GoodResponse	0	0.02	498.631	4	52	Feedback	Neutral	True
501.066	2.637	Control	0.6038	n/a	Yes	2.637	n/a	n/a	GoodResponse	0	0.0	n/a	4	52	ISIslide	Neutral	True
503.724	0.25	Win2	0.6111	0.0	Yes	2.926	0.024	n/a	GoodResponse	1	n/a	n/a	5	53	Cue	Win	True
503.975	4.05	Win2	0.6111	0.0	Yes	2.926	0.001	n/a	GoodResponse	1	n/a	n/a	5	53	Fixation	Win	True
508.02	0.49	Win2	0.6111	0.004	Yes	2.926	-0.004	4.0	GoodResponse	1	0.313	507.333	5	53	Target	Win	True
508.333	0.3	Win2	0.6111	0.004	Yes	2.926	-0.004	4.0	GoodResponse	1	0.313	n/a	5	53	ButtonPress	Win	True
508.522	0.21	Win2	0.6111	n/a	Yes	2.926	n/a	n/a	GoodResponse	1	n/a	n/a	5	53	Blank	Win	True
508.722	1.45	Win2	0.6111	n/a	Yes	2.926	n/a	5.0	GoodResponse	1	0.031	507.753	5	53	Feedback	Win	True
510.176	2.926	Win2	0.6111	n/a	Yes	2.926	n/a	n/a	GoodResponse	1	0.0	n/a	5	53	ISIslide	Win	True
513.119	0.25	Win2	0.6182	0.0	Yes	2.731	0.019	n/a	GoodResponse	1	n/a	n/a	6	54	Cue	Win	True
513.369	3.95	Win2	0.6182	0.0	Yes	2.731	0.0	n/a	GoodResponse	1	n/a	n/a	6	54	Fixation	Win	True
517.315	0.5	Win2	0.6182	0.004	Yes	2.731	-0.004	4.0	GoodResponse	1	0.265	516.58	6	54	Target	Win	True
517.58	0.3	Win2	0.6182	0.004	Yes	2.731	-0.004	4.0	GoodResponse	1	0.265	n/a	6	54	ButtonPress	Win	True
517.816	0.2	Win2	0.6182	n/a	Yes	2.731	n/a	n/a	GoodResponse	1	n/a	n/a	6	54	Blank	Win	True
518.017	1.45	Win2	0.6182	n/a	Yes	2.731	n/a	5.0	GoodResponse	1	0.005	517.022	6	54	Feedback	Win	True
519.471	2.731	Win2	0.6182	n/a	Yes	2.731	n/a	n/a	GoodResponse	1	0.0	n/a	6	54	ISIslide	Win	True
522.213	0.25	Control	0.625	0.0	Yes	3.037	0.013	n/a	GoodResponse	0	n/a	n/a	6	55	Cue	Neutral	True
522.463	3.95	Control	0.625	0.0	Yes	3.037	0.0	n/a	GoodResponse	0	n/a	n/a	6	55	Fixation	Neutral	True
526.425	0.5	Control	0.625	0.0	Yes	3.037	0.012	4.0	GoodResponse	0	0.383	525.808	6	55	Target	Neutral	True
526.808	0.3	Control	0.625	0.0	Yes	3.037	0.012	4.0	GoodResponse	0	0.383	n/a	6	55	ButtonPress	Neutral	True
526.91	0.2	Control	0.625	n/a	Yes	3.037	n/a	n/a	GoodResponse	0	n/a	n/a	6	55	Blank	Neutral	True
527.111	1.45	Control	0.625	n/a	Yes	3.037	n/a	5.0	GoodResponse	0	0.032	526.143	6	55	Feedback	Neutral	True
528.565	3.037	Control	0.625	n/a	Yes	3.037	n/a	n/a	GoodResponse	0	0.0	n/a	6	55	ISIslide	Neutral	True
531.624	0.25	Control	0.6315999999999999	0.0	Yes	2.826	0.024	n/a	GoodResponse	0	n/a	n/a	6	56	Cue	Neutral	True
531.875	3.95	Control	0.6315999999999999	0.0	Yes	2.826	0.001	n/a	GoodResponse	0	n/a	n/a	6	56	Fixation	Neutral	True
535.82	0.5	Control	0.6315999999999999	0.004	Yes	2.826	-0.004	4.0	GoodResponse	0	0.368	535.188	6	56	Target	Neutral	True
536.188	0.3	Control	0.6315999999999999	0.004	Yes	2.826	-0.004	4.0	GoodResponse	0	0.368	n/a	6	56	ButtonPress	Neutral	True
536.321	0.2	Control	0.6315999999999999	n/a	Yes	2.826	n/a	n/a	GoodResponse	0	n/a	n/a	6	56	Blank	Neutral	True
536.522	1.45	Control	0.6315999999999999	n/a	Yes	2.826	n/a	5.0	GoodResponse	0	0.035	535.557	6	56	Feedback	Neutral	True
537.976	2.826	Control	0.6315999999999999	n/a	Yes	2.826	n/a	n/a	GoodResponse	0	0.0	n/a	6	56	ISIslide	Neutral	True
540.818	0.25	Control	0.6379	0.0	Yes	3.482	0.018	n/a	GoodResponse	0	n/a	n/a	6	57	Cue	Neutral	True
541.069	4.0	Control	0.6379	0.0	Yes	3.482	0.001	n/a	GoodResponse	0	n/a	n/a	6	57	Fixation	Neutral	True
545.064	0.5	Control	0.6379	0.004	Yes	3.482	-0.004	4.0	GoodResponse	0	0.275	544.339	6	57	Target	Neutral	True
545.339	0.3	Control	0.6379	0.004	Yes	3.482	-0.004	4.0	GoodResponse	0	0.275	n/a	6	57	ButtonPress	Neutral	True
545.566	0.2	Control	0.6379	n/a	Yes	3.482	n/a	n/a	GoodResponse	0	n/a	n/a	6	57	Blank	Neutral	True
545.766	1.45	Control	0.6379	n/a	Yes	3.482	n/a	5.0	GoodResponse	0	0.011	544.777	6	57	Feedback	Neutral	True
547.221	3.482	Control	0.6379	n/a	Yes	3.482	n/a	n/a	GoodResponse	0	0.0	n/a	6	57	ISIslide	Neutral	True
550.715	0.25	Win2	0.6441	0.0	Yes	2.735	0.015	n/a	GoodResponse	1	n/a	n/a	7	58	Cue	Win	True
550.965	4.05	Win2	0.6441	0.0	Yes	2.735	0.0	n/a	GoodResponse	1	n/a	n/a	7	58	Fixation	Win	True
555.011	0.5	Win2	0.6441	0.004	Yes	2.735	-0.004	4.0	GoodResponse	1	0.259	554.27	7	58	Target	Win	True
555.27	0.3	Win2	0.6441	0.004	Yes	2.735	-0.004	4.0	GoodResponse	1	0.259	n/a	7	58	ButtonPress	Win	True
555.512	0.2	Win2	0.6441	n/a	Yes	2.735	n/a	n/a	GoodResponse	1	n/a	n/a	7	58	Blank	Win	True
555.713	1.45	Win2	0.6441	n/a	Yes	2.735	n/a	5.0	GoodResponse	1	0.015	554.728	7	58	Feedback	Win	True
557.167	2.735	Win2	0.6441	n/a	Yes	2.735	n/a	n/a	GoodResponse	1	0.0	n/a	7	58	ISIslide	Win	True
559.926	0.25	Lose2	0.65	0.0	Yes	2.674	0.026	n/a	GoodResponse	0	n/a	n/a	7	59	Cue	AvoidedLoss	True
560.176	4.0	Lose2	0.65	0.0	Yes	2.674	0.0	n/a	GoodResponse	0	n/a	n/a	7	59	Fixation	AvoidedLoss	True
564.172	0.5	Lose2	0.65	0.004	Yes	2.674	-0.004	4.0	GoodResponse	0	0.257	563.429	7	59	Target	AvoidedLoss	True
564.429	0.3	Lose2	0.65	0.004	Yes	2.674	-0.004	4.0	GoodResponse	0	0.257	n/a	7	59	ButtonPress	AvoidedLoss	True
564.673	0.2	Lose2	0.65	n/a	Yes	2.674	n/a	n/a	GoodResponse	0	n/a	n/a	7	59	Blank	AvoidedLoss	True
564.874	1.45	Lose2	0.65	n/a	Yes	2.674	n/a	5.0	GoodResponse	0	0.025	563.899	7	59	Feedback	AvoidedLoss	True
566.328	2.674	Lose2	0.65	n/a	Yes	2.674	n/a	n/a	GoodResponse	0	0.0	n/a	7	59	ISIslide	AvoidedLoss	True
569.019	0.25	Control	0.6557	0.001	Yes	2.681	0.019	n/a	GoodResponse	0	n/a	n/a	7	60	Cue	Neutral	True
569.27	4.0	Control	0.6557	0.0	Yes	2.681	0.001	n/a	GoodResponse	0	n/a	n/a	7	60	Fixation	Neutral	True
573.265	0.5	Control	0.6557	0.004	Yes	2.681	-0.004	4.0	GoodResponse	0	0.417	572.682	7	60	Target	Neutral	True
573.682	0.3	Control	0.6557	0.004	Yes	2.681	-0.004	4.0	GoodResponse	0	0.417	n/a	7	60	ButtonPress	Neutral	True
573.767	0.2	Control	0.6557	n/a	Yes	2.681	n/a	n/a	GoodResponse	0	n/a	n/a	7	60	Blank	Neutral	True
573.968	1.45	Control	0.6557	n/a	Yes	2.681	n/a	5.0	GoodResponse	0	0.004	572.972	7	60	Feedback	Neutral	True
575.422	2.681	Control	0.6557	n/a	Yes	2.681	n/a	n/a	GoodResponse	0	0.0	n/a	7	60	ISIslide	Neutral	True
578.113	0.25	Lose2	0.6613	0.0	Yes	2.987	0.013	n/a	GoodResponse	0	n/a	n/a	7	61	Cue	AvoidedLoss	True
578.364	4.0	Lose2	0.6613	0.0	Yes	2.987	0.001	n/a	GoodResponse	0	n/a	n/a	7	61	Fixation	AvoidedLoss	True
582.359	0.5	Lose2	0.6613	0.004	Yes	2.987	-0.004	4.0	GoodResponse	0	0.225	581.584	7	61	Target	AvoidedLoss	True
582.584	0.3	Lose2	0.6613	0.004	Yes	2.987	-0.004	4.0	GoodResponse	0	0.225	n/a	7	61	ButtonPress	AvoidedLoss	True
582.861	0.2	Lose2	0.6613	n/a	Yes	2.987	n/a	n/a	GoodResponse	0	n/a	n/a	7	61	Blank	AvoidedLoss	True
583.062	1.45	Lose2	0.6613	n/a	Yes	2.987	n/a	5.0	GoodResponse	0	0.032	582.094	7	61	Feedback	AvoidedLoss	True
584.516	2.987	Lose2	0.6613	n/a	Yes	2.987	n/a	n/a	GoodResponse	0	0.0	n/a	7	61	ISIslide	AvoidedLoss	True
587.525	0.25	Lose2	0.6667000000000001	0.0	Yes	2.875	0.025	n/a	GoodResponse	0	n/a	n/a	7	62	Cue	AvoidedLoss	True
587.776	3.9	Lose2	0.6667000000000001	0.0	Yes	2.875	0.001	n/a	GoodResponse	0	n/a	n/a	7	62	Fixation	AvoidedLoss	True
591.671	0.5	Lose2	0.6667000000000001	0.004	Yes	2.875	-0.004	4.0	GoodResponse	0	0.261	590.932	7	62	Target	AvoidedLoss	True
591.932	0.3	Lose2	0.6667000000000001	0.004	Yes	2.875	-0.004	4.0	GoodResponse	0	0.261	n/a	7	62	ButtonPress	AvoidedLoss	True
592.172	0.2	Lose2	0.6667000000000001	n/a	Yes	2.875	n/a	n/a	GoodResponse	0	n/a	n/a	7	62	Blank	AvoidedLoss	True
592.373	1.45	Lose2	0.6667000000000001	n/a	Yes	2.875	n/a	5.0	GoodResponse	0	0.037	591.41	7	62	Feedback	AvoidedLoss	True
593.827	2.875	Lose2	0.6667000000000001	n/a	Yes	2.875	n/a	n/a	GoodResponse	0	0.0	n/a	7	62	ISIslide	AvoidedLoss	True
596.719	0.25	Lose2	0.6718999999999999	0.0	Yes	2.631	0.019	n/a	GoodResponse	0	n/a	n/a	7	63	Cue	AvoidedLoss	True
596.97	4.05	Lose2	0.6718999999999999	0.0	Yes	2.631	0.001	n/a	GoodResponse	0	n/a	n/a	7	63	Fixation	AvoidedLoss	True
601.015	0.49	Lose2	0.6718999999999999	0.004	Yes	2.631	-0.004	4.0	GoodResponse	0	0.234	600.249	7	63	Target	AvoidedLoss	True
601.249	0.3	Lose2	0.6718999999999999	0.004	Yes	2.631	-0.004	4.0	GoodResponse	0	0.234	n/a	7	63	ButtonPress	AvoidedLoss	True
601.517	0.21	Lose2	0.6718999999999999	n/a	Yes	2.631	n/a	n/a	GoodResponse	0	n/a	n/a	7	63	Blank	AvoidedLoss	True
601.717	1.45	Lose2	0.6718999999999999	n/a	Yes	2.631	n/a	5.0	GoodResponse	0	0.011	600.728	7	63	Feedback	AvoidedLoss	True
603.172	2.631	Lose2	0.6718999999999999	n/a	Yes	2.631	n/a	n/a	GoodResponse	0	0.0	n/a	7	63	ISIslide	AvoidedLoss	True
605.83	0.25	Win2	0.6769	0.0	Yes	3.12	0.03	n/a	GoodResponse	1	n/a	n/a	8	64	Cue	Win	True
606.08	4.15	Win2	0.6769	0.001	Yes	3.12	0.0	n/a	GoodResponse	1	n/a	n/a	8	64	Fixation	Win	True
610.226	0.48	Win2	0.6769	0.004	Yes	3.12	-0.004	4.0	GoodResponse	1	0.258	609.484	8	64	Target	Win	True
610.484	0.3	Win2	0.6769	0.004	Yes	3.12	-0.004	4.0	GoodResponse	1	0.258	n/a	8	64	ButtonPress	Win	True
610.711	0.22	Win2	0.6769	n/a	Yes	3.12	n/a	n/a	GoodResponse	1	n/a	n/a	8	64	Blank	Win	True
610.928	1.45	Win2	0.6769	n/a	Yes	3.12	n/a	5.0	GoodResponse	1	0.019	609.947	8	64	Feedback	Win	True
612.383	3.12	Win2	0.6769	n/a	Yes	3.12	n/a	n/a	GoodResponse	1	0.0	n/a	8	64	ISIslide	Win	True
615.525	0.25	Control	0.6818000000000001	0.001	Yes	2.775	0.025	n/a	GoodResponse	0	n/a	n/a	8	65	Cue	Neutral	True
615.776	4.0	Control	0.6818000000000001	0.0	Yes	2.775	0.001	n/a	GoodResponse	0	n/a	n/a	8	65	Fixation	Neutral	True
619.772	0.47	Control	0.6818000000000001	0.003	Yes	2.775	-0.003	4.0	GoodResponse	0	0.318	619.09	8	65	Target	Neutral	True
620.09	0.3	Control	0.6818000000000001	0.003	Yes	2.775	-0.003	4.0	GoodResponse	0	0.318	n/a	8	65	ButtonPress	Neutral	True
620.256	0.23	Control	0.6818000000000001	n/a	Yes	2.775	n/a	n/a	GoodResponse	0	n/a	n/a	8	65	Blank	Neutral	True
620.474	1.45	Control	0.6818000000000001	n/a	Yes	2.775	n/a	5.0	GoodResponse	0	0.034	619.508	8	65	Feedback	Neutral	True
621.928	2.775	Control	0.6818000000000001	n/a	Yes	2.775	n/a	n/a	GoodResponse	0	0.0	n/a	8	65	ISIslide	Neutral	True
624.72	0.25	Win2	0.6866	0.0	Yes	2.78	0.02	n/a	GoodResponse	1	n/a	n/a	9	66	Cue	Win	True
624.97	3.9	Win2	0.6866	0.001	Yes	2.78	0.0	n/a	GoodResponse	1	n/a	n/a	9	66	Fixation	Win	True
628.882	0.46	Win2	0.6866	0.0	Yes	2.78	0.012	4.0	GoodResponse	1	0.312	628.194	9	66	Target	Win	True
629.194	0.3	Win2	0.6866	0.0	Yes	2.78	0.012	4.0	GoodResponse	1	0.312	n/a	9	66	ButtonPress	Win	True
629.334	0.24	Win2	0.6866	n/a	Yes	2.78	n/a	n/a	GoodResponse	1	n/a	n/a	9	66	Blank	Win	True
629.568	1.45	Win2	0.6866	n/a	Yes	2.78	n/a	5.0	GoodResponse	1	0.014	628.582	9	66	Feedback	Win	True
631.022	2.78	Win2	0.6866	n/a	Yes	2.78	n/a	n/a	GoodResponse	1	0.0	n/a	9	66	ISIslide	Win	True
633.814	0.25	Control	0.6912	0.0	Yes	2.736	0.014	n/a	GoodResponse	0	n/a	n/a	9	67	Cue	Neutral	True
634.064	3.95	Control	0.6912	0.0	Yes	2.736	0.0	n/a	GoodResponse	0	n/a	n/a	9	67	Fixation	Neutral	True
638.009	0.45	Control	0.6912	0.005	Yes	2.736	-0.005	4.0	GoodResponse	0	0.301	637.31	9	67	Target	Neutral	True
638.31	0.3	Control	0.6912	0.005	Yes	2.736	-0.005	4.0	GoodResponse	0	0.301	n/a	9	67	ButtonPress	Neutral	True
638.461	0.25	Control	0.6912	n/a	Yes	2.736	n/a	n/a	GoodResponse	0	n/a	n/a	9	67	Blank	Neutral	True
638.712	1.45	Control	0.6912	n/a	Yes	2.736	n/a	5.0	GoodResponse	0	0.04	637.752	9	67	Feedback	Neutral	True
640.166	2.736	Control	0.6912	n/a	Yes	2.736	n/a	n/a	GoodResponse	0	0.0	n/a	9	67	ISIslide	Neutral	True
642.924	0.25	Win2	0.6957	0.0	Yes	3.076	0.024	n/a	GoodResponse	1	n/a	n/a	10	68	Cue	Win	True
643.175	4.0	Win2	0.6957	0.0	Yes	3.076	0.001	n/a	GoodResponse	1	n/a	n/a	10	68	Fixation	Win	True
647.17	0.44	Win2	0.6957	0.004	Yes	3.076	-0.004	4.0	GoodResponse	1	0.359	646.529	10	68	Target	Win	True
647.529	0.3	Win2	0.6957	0.004	Yes	3.076	-0.004	4.0	GoodResponse	1	0.359	n/a	10	68	ButtonPress	Win	True
647.622	0.26	Win2	0.6957	n/a	Yes	3.076	n/a	n/a	GoodResponse	1	n/a	n/a	10	68	Blank	Win	True
647.872	1.45	Win2	0.6957	n/a	Yes	3.076	n/a	5.0	GoodResponse	1	0.002	646.874	10	68	Feedback	Win	True
649.327	3.076	Win2	0.6957	n/a	Yes	3.076	n/a	n/a	GoodResponse	1	0.0	n/a	10	68	ISIslide	Win	True
652.419	0.25	Win2	0.7	0.0	Yes	3.231	0.019	n/a	GoodResponse	1	n/a	n/a	11	69	Cue	Win	True
652.67	3.95	Win2	0.7	0.0	Yes	3.231	0.001	n/a	GoodResponse	1	n/a	n/a	11	69	Fixation	Win	True
656.615	0.43	Win2	0.7	0.004	Yes	3.231	-0.004	4.0	GoodResponse	1	0.294	655.909	11	69	Target	Win	True
656.909	0.3	Win2	0.7	0.004	Yes	3.231	-0.004	4.0	GoodResponse	1	0.294	n/a	11	69	ButtonPress	Win	True
657.05	0.27	Win2	0.7	n/a	Yes	3.231	n/a	n/a	GoodResponse	1	n/a	n/a	11	69	Blank	Win	True
657.317	1.45	Win2	0.7	n/a	Yes	3.231	n/a	5.0	GoodResponse	1	0.02	656.337	11	69	Feedback	Win	True
658.772	3.231	Win2	0.7	n/a	Yes	3.231	n/a	n/a	GoodResponse	1	0.0	n/a	11	69	ISIslide	Win	True
662.015	0.25	Lose2	0.7042	0.0	Yes	3.035	0.015	n/a	GoodResponse	0	n/a	n/a	11	70	Cue	AvoidedLoss	True
662.266	4.05	Lose2	0.7042	0.0	Yes	3.035	0.001	n/a	GoodResponse	0	n/a	n/a	11	70	Fixation	AvoidedLoss	True
666.311	0.42	Lose2	0.7042	0.004	Yes	3.035	-0.004	4.0	GoodResponse	0	0.23	665.541	11	70	Target	AvoidedLoss	True
666.541	0.3	Lose2	0.7042	0.004	Yes	3.035	-0.004	4.0	GoodResponse	0	0.23	n/a	11	70	ButtonPress	AvoidedLoss	True
666.746	0.28	Lose2	0.7042	n/a	Yes	3.035	n/a	n/a	GoodResponse	0	n/a	n/a	11	70	Blank	AvoidedLoss	True
667.013	1.45	Lose2	0.7042	n/a	Yes	3.035	n/a	5.0	GoodResponse	0	0.031	666.044	11	70	Feedback	AvoidedLoss	True
668.467	3.035	Lose2	0.7042	n/a	Yes	3.035	n/a	n/a	GoodResponse	0	0.0	n/a	11	70	ISIslide	AvoidedLoss	True
671.527	0.25	Win2	0.7082999999999999	0.0	Yes	2.723	0.027	n/a	GoodResponse	1	n/a	n/a	12	71	Cue	Win	True
671.777	4.05	Win2	0.7082999999999999	0.0	Yes	2.723	0.0	n/a	GoodResponse	1	n/a	n/a	12	71	Fixation	Win	True
675.823	0.41	Win2	0.7082999999999999	0.004	Yes	2.723	-0.004	4.0	GoodResponse	1	0.245	675.068	12	71	Target	Win	True
676.068	0.3	Win2	0.7082999999999999	0.004	Yes	2.723	-0.004	4.0	GoodResponse	1	0.245	n/a	12	71	ButtonPress	Win	True
676.241	0.29	Win2	0.7082999999999999	n/a	Yes	2.723	n/a	n/a	GoodResponse	1	n/a	n/a	12	71	Blank	Win	True
676.525	1.45	Win2	0.7082999999999999	n/a	Yes	2.723	n/a	5.0	GoodResponse	1	0.032	675.557	12	71	Feedback	Win	True
677.979	2.723	Win2	0.7082999999999999	n/a	Yes	2.723	n/a	n/a	GoodResponse	1	0.0	n/a	12	71	ISIslide	Win	True
680.721	0.25	Win2	0.7123	0.0	Yes	2.779	0.021	n/a	GoodResponse	1	n/a	n/a	13	72	Cue	Win	True
680.972	4.1	Win2	0.7123	0.0	Yes	2.779	0.001	n/a	GoodResponse	1	n/a	n/a	13	72	Fixation	Win	True
685.067	0.4	Win2	0.7123	0.004	Yes	2.779	-0.004	4.0	GoodResponse	1	0.281	684.348	13	72	Target	Win	True
685.348	0.3	Win2	0.7123	0.004	Yes	2.779	-0.004	4.0	GoodResponse	1	0.281	n/a	13	72	ButtonPress	Win	True
685.468	0.3	Win2	0.7123	n/a	Yes	2.779	n/a	n/a	GoodResponse	1	n/a	n/a	13	72	Blank	Win	True
685.769	1.45	Win2	0.7123	n/a	Yes	2.779	n/a	5.0	GoodResponse	1	0.007	684.776	13	72	Feedback	Win	True
687.224	2.779	Win2	0.7123	n/a	Yes	2.779	n/a	n/a	GoodResponse	1	0.0	n/a	13	72	ISIslide	Win	True
690.015	0.25	Win2	0.7162000000000001	0.0	Yes	2.685	0.015	n/a	GoodResponse	1	n/a	n/a	14	73	Cue	Win	True
690.266	4.0	Win2	0.7162000000000001	0.0	Yes	2.685	0.001	n/a	GoodResponse	1	n/a	n/a	14	73	Fixation	Win	True
694.261	0.39	Win2	0.7162000000000001	0.004	Yes	2.685	-0.004	4.0	GoodResponse	1	0.269	693.53	14	73	Target	Win	True
694.53	0.3	Win2	0.7162000000000001	0.004	Yes	2.685	-0.004	4.0	GoodResponse	1	0.269	n/a	14	73	ButtonPress	Win	True
694.663	0.31	Win2	0.7162000000000001	n/a	Yes	2.685	n/a	n/a	GoodResponse	1	n/a	n/a	14	73	Blank	Win	True
694.963	1.45	Win2	0.7162000000000001	n/a	Yes	2.685	n/a	5.0	GoodResponse	1	0.033	693.996	14	73	Feedback	Win	True
696.418	2.685	Win2	0.7162000000000001	n/a	Yes	2.685	n/a	n/a	GoodResponse	1	0.0	n/a	14	73	ISIslide	Win	True
699.126	0.25	Lose2	0.72	0.0	Yes	2.624	0.026	n/a	GoodResponse	0	n/a	n/a	14	74	Cue	AvoidedLoss	True
699.377	4.05	Lose2	0.72	0.0	Yes	2.624	0.001	n/a	GoodResponse	0	n/a	n/a	14	74	Fixation	AvoidedLoss	True
703.422	0.38	Lose2	0.72	0.004	Yes	2.624	-0.004	4.0	GoodResponse	0	0.276	702.698	14	74	Target	AvoidedLoss	True
703.698	0.3	Lose2	0.72	0.004	Yes	2.624	-0.004	4.0	GoodResponse	0	0.276	n/a	14	74	ButtonPress	AvoidedLoss	True
703.807	0.32	Lose2	0.72	n/a	Yes	2.624	n/a	n/a	GoodResponse	0	n/a	n/a	14	74	Blank	AvoidedLoss	True
704.124	1.45	Lose2	0.72	n/a	Yes	2.624	n/a	5.0	GoodResponse	0	0.043	703.167	14	74	Feedback	AvoidedLoss	True
705.579	2.624	Lose2	0.72	n/a	Yes	2.624	n/a	n/a	GoodResponse	0	0.0	n/a	14	74	ISIslide	AvoidedLoss	True
708.22	0.25	Lose2	0.7237	0.0	Yes	2.93	0.02	n/a	GoodResponse	0	n/a	n/a	14	75	Cue	AvoidedLoss	True
708.471	3.95	Lose2	0.7237	0.0	Yes	2.93	0.001	n/a	GoodResponse	0	n/a	n/a	14	75	Fixation	AvoidedLoss	True
712.416	0.37	Lose2	0.7237	0.004	Yes	2.93	-0.004	4.0	GoodResponse	0	0.312	711.728	14	75	Target	AvoidedLoss	True
712.728	0.3	Lose2	0.7237	0.004	Yes	2.93	-0.004	4.0	GoodResponse	0	0.312	n/a	14	75	ButtonPress	AvoidedLoss	True
712.8	0.33	Lose2	0.7237	n/a	Yes	2.93	n/a	n/a	GoodResponse	0	n/a	n/a	14	75	Blank	AvoidedLoss	True
713.118	1.45	Lose2	0.7237	n/a	Yes	2.93	n/a	5.0	GoodResponse	0	0.023	712.141	14	75	Feedback	AvoidedLoss	True
714.572	2.93	Lose2	0.7237	n/a	Yes	2.93	n/a	n/a	GoodResponse	0	0.0	n/a	14	75	ISIslide	AvoidedLoss	True
717.514	0.25	Control	0.7273000000000001	0.0	Yes	3.236	0.014	n/a	GoodResponse	0	n/a	n/a	14	76	Cue	Neutral	True
717.765	4.05	Control	0.7273000000000001	0.0	Yes	3.236	0.001	n/a	GoodResponse	0	n/a	n/a	14	76	Fixation	Neutral	True
721.811	0.36	Control	0.7273000000000001	0.003	Yes	3.236	-0.003	4.0	GoodResponse	0	0.29	721.101	14	76	Target	Neutral	True
722.101	0.3	Control	0.7273000000000001	0.003	Yes	3.236	-0.003	4.0	GoodResponse	0	0.29	n/a	14	76	ButtonPress	Neutral	True
722.178	0.34	Control	0.7273000000000001	n/a	Yes	3.236	n/a	n/a	GoodResponse	0	n/a	n/a	14	76	Blank	Neutral	True
722.513	1.45	Control	0.7273000000000001	n/a	Yes	3.236	n/a	5.0	GoodResponse	0	0.043	721.556	14	76	Feedback	Neutral	True
723.967	3.236	Control	0.7273000000000001	n/a	Yes	3.236	n/a	n/a	GoodResponse	0	0.0	n/a	14	76	ISIslide	Neutral	True
727.227	0.25	Lose2	0.7308	0.0	Yes	2.573	0.027	n/a	GoodResponse	0	n/a	n/a	14	77	Cue	AvoidedLoss	True
727.478	3.95	Lose2	0.7308	0.0	Yes	2.573	0.001	n/a	GoodResponse	0	n/a	n/a	14	77	Fixation	AvoidedLoss	True
731.423	0.35	Lose2	0.7308	0.004	Yes	2.573	-0.004	4.0	GoodResponse	0	0.286	730.709	14	77	Target	AvoidedLoss	True
731.709	0.3	Lose2	0.7308	0.004	Yes	2.573	-0.004	4.0	GoodResponse	0	0.286	n/a	14	77	ButtonPress	AvoidedLoss	True
731.774	0.35	Lose2	0.7308	n/a	Yes	2.573	n/a	n/a	GoodResponse	0	n/a	n/a	14	77	Blank	AvoidedLoss	True
732.125	1.45	Lose2	0.7308	n/a	Yes	2.573	n/a	5.0	GoodResponse	0	0.041	731.166	14	77	Feedback	AvoidedLoss	True
733.579	2.573	Lose2	0.7308	n/a	Yes	2.573	n/a	n/a	GoodResponse	0	0.0	n/a	14	77	ISIslide	AvoidedLoss	True
