onset	duration	cue_type	current_mean_accuracy	duration_error	is_hit	isi_adjusted	onset_delay	response	response_type	reward	rt	rt_time	total_reward	trial_number	trial_phase	trial_type	one_press
11.098	0.25	Control	1.0	0.0	Yes	2.952	-0.002	n/a	GoodResponse	0	n/a	n/a	0	0	Cue	Neutral	True
11.349	3.85	Control	1.0	0.0	Yes	2.952	0.001	n/a	GoodResponse	0	n/a	n/a	0	0	Fixation	Neutral	True
15.193	0.4	Control	1.0	0.005	Yes	2.952	-0.005	2.0	GoodResponse	0	0.202	14.395	0	0	Target	Neutral	True
15.395	0.3	Control	1.0	0.005	Yes	2.952	-0.005	2.0	GoodResponse	0	0.202	n/a	0	0	ButtonPress	Neutral	True
15.595	0.3	Control	1.0	n/a	Yes	2.952	n/a	n/a	GoodResponse	0	n/a	n/a	0	0	Blank	Neutral	True
15.896	1.45	Control	1.0	n/a	Yes	2.952	n/a	5.0	GoodResponse	0	0.033	14.929	0	0	Feedback	Neutral	True
17.35	2.952	Control	1.0	n/a	Yes	2.952	n/a	n/a	GoodResponse	0	0.0	n/a	0	0	ISIslide	Neutral	True
20.376	0.25	Lose2	1.0	0.0	Yes	2.724	0.076	n/a	GoodResponse	0	n/a	n/a	0	1	Cue	AvoidedLoss	True
20.626	4.0	Lose2	1.0	0.0	Yes	2.724	0.0	n/a	GoodResponse	0	n/a	n/a	0	1	Fixation	AvoidedLoss	True
24.622	0.39	Lose2	1.0	0.004	Yes	2.724	-0.004	2.0	GoodResponse	0	0.24	23.862	0	1	Target	AvoidedLoss	True
24.862	0.3	Lose2	1.0	0.004	Yes	2.724	-0.004	2.0	GoodResponse	0	0.24	n/a	0	1	ButtonPress	AvoidedLoss	True
25.023	0.31	Lose2	1.0	n/a	Yes	2.724	n/a	n/a	GoodResponse	0	n/a	n/a	0	1	Blank	AvoidedLoss	True
25.324	1.45	Lose2	1.0	n/a	Yes	2.724	n/a	5.0	GoodResponse	0	0.019	24.343	0	1	Feedback	AvoidedLoss	True
26.778	2.724	Lose2	1.0	n/a	Yes	2.724	n/a	n/a	GoodResponse	0	0.0	n/a	0	1	ISIslide	AvoidedLoss	True
29.52	0.25	Control	1.0	0.0	Yes	2.58	0.02	n/a	GoodResponse	0	n/a	n/a	0	2	Cue	Neutral	True
29.77	4.1	Control	1.0	0.0	Yes	2.58	0.0	n/a	GoodResponse	0	n/a	n/a	0	2	Fixation	Neutral	True
33.866	0.38	Control	1.0	0.004	Yes	2.58	-0.004	2.0	GoodResponse	0	0.237	33.103	0	2	Target	Neutral	True
34.103	0.3	Control	1.0	0.004	Yes	2.58	-0.004	2.0	GoodResponse	0	0.237	n/a	0	2	ButtonPress	Neutral	True
34.25	0.32	Control	1.0	n/a	Yes	2.58	n/a	n/a	GoodResponse	0	n/a	n/a	0	2	Blank	Neutral	True
34.568	1.45	Control	1.0	n/a	Yes	2.58	n/a	5.0	GoodResponse	0	0.043	33.611	0	2	Feedback	Neutral	True
36.022	2.58	Control	1.0	n/a	Yes	2.58	n/a	n/a	GoodResponse	0	0.0	n/a	0	2	ISIslide	Neutral	True
38.63	0.25	Win2	1.0	0.0	Yes	2.82	0.03	n/a	GoodResponse	1	n/a	n/a	1	3	Cue	Win	True
38.881	3.95	Win2	1.0	0.0	Yes	2.82	0.001	n/a	GoodResponse	1	n/a	n/a	1	3	Fixation	Win	True
42.826	0.37	Win2	1.0	0.004	Yes	2.82	-0.004	2.0	GoodResponse	1	0.229	42.055	1	3	Target	Win	True
43.055	0.3	Win2	1.0	0.004	Yes	2.82	-0.004	2.0	GoodResponse	1	0.229	n/a	1	3	ButtonPress	Win	True
43.211	0.33	Win2	1.0	n/a	Yes	2.82	n/a	n/a	GoodResponse	1	n/a	n/a	1	3	Blank	Win	True
43.528	1.45	Win2	1.0	n/a	Yes	2.82	n/a	5.0	GoodResponse	1	0.01	42.538	1	3	Feedback	Win	True
44.983	2.82	Win2	1.0	n/a	Yes	2.82	n/a	n/a	GoodResponse	1	0.0	n/a	1	3	ISIslide	Win	True
47.824	0.25	Win2	1.0	0.001	Yes	3.276	0.024	n/a	GoodResponse	1	n/a	n/a	2	4	Cue	Win	True
48.075	4.0	Win2	1.0	0.0	Yes	3.276	0.001	n/a	GoodResponse	1	n/a	n/a	2	4	Fixation	Win	True
52.07	0.36	Win2	1.0	0.004	Yes	3.276	-0.004	2.0	GoodResponse	1	0.213	51.283	2	4	Target	Win	True
52.283	0.3	Win2	1.0	0.004	Yes	3.276	-0.004	2.0	GoodResponse	1	0.213	n/a	2	4	ButtonPress	Win	True
52.438	0.34	Win2	1.0	n/a	Yes	3.276	n/a	n/a	GoodResponse	1	n/a	n/a	2	4	Blank	Win	True
52.773	1.45	Win2	1.0	n/a	Yes	3.276	n/a	5.0	GoodResponse	1	0.033	51.806	2	4	Feedback	Win	True
54.227	3.276	Win2	1.0	n/a	Yes	3.276	n/a	n/a	GoodResponse	1	0.0	n/a	2	4	ISIslide	Win	True
57.52	0.25	Win2	1.0	0.0	Yes	2.78	0.02	n/a	GoodResponse	1	n/a	n/a	3	5	Cue	Win	True
57.771	4.0	Win2	1.0	0.0	Yes	2.78	0.001	n/a	GoodResponse	1	n/a	n/a	3	5	Fixation	Win	True
61.766	0.35	Win2	1.0	0.004	Yes	2.78	-0.004	2.0	GoodResponse	1	0.19	60.956	3	5	Target	Win	True
61.956	0.3	Win2	1.0	0.004	Yes	2.78	-0.004	2.0	GoodResponse	1	0.19	n/a	3	5	ButtonPress	Win	True
62.117	0.35	Win2	1.0	n/a	Yes	2.78	n/a	n/a	GoodResponse	1	n/a	n/a	3	5	Blank	Win	True
62.468	1.45	Win2	1.0	n/a	Yes	2.78	n/a	5.0	GoodResponse	1	0.046	61.514	3	5	Feedback	Win	True
63.923	2.78	Win2	1.0	n/a	Yes	2.78	n/a	n/a	GoodResponse	1	0.0	n/a	3	5	ISIslide	Win	True
66.714	0.25	Lose2	1.0	0.0	Yes	2.736	0.014	n/a	GoodResponse	0	n/a	n/a	3	6	Cue	AvoidedLoss	True
66.965	3.95	Lose2	1.0	0.0	Yes	2.736	0.001	n/a	GoodResponse	0	n/a	n/a	3	6	Fixation	AvoidedLoss	True
70.91	0.34	Lose2	1.0	0.004	Yes	2.736	-0.004	2.0	GoodResponse	0	0.195	70.105	3	6	Target	AvoidedLoss	True
71.105	0.3	Lose2	1.0	0.004	Yes	2.736	-0.004	2.0	GoodResponse	0	0.195	n/a	3	6	ButtonPress	AvoidedLoss	True
71.261	0.36	Lose2	1.0	n/a	Yes	2.736	n/a	n/a	GoodResponse	0	n/a	n/a	3	6	Blank	AvoidedLoss	True
71.612	1.45	Lose2	1.0	n/a	Yes	2.736	n/a	5.0	GoodResponse	0	0.024	70.636	3	6	Feedback	AvoidedLoss	True
73.067	2.736	Lose2	1.0	n/a	Yes	2.736	n/a	n/a	GoodResponse	0	0.0	n/a	3	6	ISIslide	AvoidedLoss	True
75.825	0.25	Lose2	1.0	0.0	Yes	4.025	0.025	n/a	GoodResponse	0	n/a	n/a	3	7	Cue	AvoidedLoss	True
76.076	4.05	Lose2	1.0	0.0	Yes	4.025	0.001	n/a	GoodResponse	0	n/a	n/a	3	7	Fixation	AvoidedLoss	True
80.121	0.33	Lose2	1.0	0.004	Yes	4.025	-0.004	2.0	GoodResponse	0	0.207	79.328	3	7	Target	AvoidedLoss	True
80.328	0.3	Lose2	1.0	0.004	Yes	4.025	-0.004	2.0	GoodResponse	0	0.207	n/a	3	7	ButtonPress	AvoidedLoss	True
80.455	0.37	Lose2	1.0	n/a	Yes	4.025	n/a	n/a	GoodResponse	0	n/a	n/a	3	7	Blank	AvoidedLoss	True
80.823	1.45	Lose2	1.0	n/a	Yes	4.025	n/a	5.0	GoodResponse	0	0.032	79.855	3	7	Feedback	AvoidedLoss	True
82.278	4.025	Lose2	1.0	n/a	Yes	4.025	n/a	n/a	GoodResponse	0	0.0	n/a	3	7	ISIslide	AvoidedLoss	True
86.323	0.25	Lose2	1.0	0.0	Yes	3.027	0.023	n/a	GoodResponse	0	n/a	n/a	3	8	Cue	AvoidedLoss	True
86.574	3.95	Lose2	1.0	0.0	Yes	3.027	0.001	n/a	GoodResponse	0	n/a	n/a	3	8	Fixation	AvoidedLoss	True
90.519	0.32	Lose2	1.0	0.004	Yes	3.027	-0.004	2.0	GoodResponse	0	0.204	89.723	3	8	Target	AvoidedLoss	True
90.723	0.3	Lose2	1.0	0.004	Yes	3.027	-0.004	2.0	GoodResponse	0	0.204	n/a	3	8	ButtonPress	AvoidedLoss	True
90.853	0.38	Lose2	1.0	n/a	Yes	3.027	n/a	n/a	GoodResponse	0	n/a	n/a	3	8	Blank	AvoidedLoss	True
91.221	1.45	Lose2	1.0	n/a	Yes	3.027	n/a	5.0	GoodResponse	0	0.024	90.245	3	8	Feedback	AvoidedLoss	True
92.675	3.027	Lose2	1.0	n/a	Yes	3.027	n/a	n/a	GoodResponse	0	0.0	n/a	3	8	ISIslide	AvoidedLoss	True
95.718	0.25	Lose2	1.0	0.0	Yes	3.132	0.018	n/a	GoodResponse	0	n/a	n/a	3	9	Cue	AvoidedLoss	True
95.969	3.95	Lose2	1.0	0.0	Yes	3.132	0.001	n/a	GoodResponse	0	n/a	n/a	3	9	Fixation	AvoidedLoss	True
99.914	0.31	Lose2	1.0	0.004	Yes	3.132	-0.004	2.0	GoodResponse	0	0.192	99.106	3	9	Target	AvoidedLoss	True
100.106	0.3	Lose2	1.0	0.004	Yes	3.132	-0.004	2.0	GoodResponse	0	0.192	n/a	3	9	ButtonPress	AvoidedLoss	True
100.231	0.39	Lose2	1.0	n/a	Yes	3.132	n/a	n/a	GoodResponse	0	n/a	n/a	3	9	Blank	AvoidedLoss	True
100.616	1.45	Lose2	1.0	n/a	Yes	3.132	n/a	5.0	GoodResponse	0	0.044	99.66	3	9	Feedback	AvoidedLoss	True
102.07	3.132	Lose2	1.0	n/a	Yes	3.132	n/a	n/a	GoodResponse	0	0.0	n/a	3	9	ISIslide	AvoidedLoss	True
105.213	0.25	Control	1.0	0.0	Yes	3.287	0.013	n/a	GoodResponse	0	n/a	n/a	3	10	Cue	Neutral	False
105.464	4.0	Control	1.0	0.0	Yes	3.287	0.001	2.0	GoodResponse	0	3.533	107.997	3	10	Fixation	Neutral	False
108.997	0.3	Control	1.0	0.0	Yes	3.287	0.001	2.0	GoodResponse	0	3.533	n/a	3	10	ButtonPress	Neutral	False
109.459	0.3	Control	1.0	0.004	Yes	3.287	-0.004	2.0	GoodResponse	0	0.244	108.703	3	10	Target	Neutral	False
109.703	0.3	Control	1.0	0.004	Yes	3.287	-0.004	2.0	GoodResponse	0	0.244	n/a	3	10	ButtonPress	Neutral	False
109.76	0.4	Control	1.0	n/a	Yes	3.287	n/a	n/a	GoodResponse	0	n/a	n/a	3	10	Blank	Neutral	False
110.161	1.45	Control	1.0	n/a	Yes	3.287	n/a	5.0	GoodResponse	0	0.011	109.172	3	10	Feedback	Neutral	False
111.615	3.287	Control	1.0	n/a	Yes	3.287	n/a	n/a	GoodResponse	0	0.0	n/a	3	10	ISIslide	Neutral	False
114.925	0.25	Lose2	1.0	0.0	Yes	2.725	0.025	n/a	GoodResponse	0	n/a	n/a	3	11	Cue	AvoidedLoss	True
115.176	4.05	Lose2	1.0	0.0	Yes	2.725	0.001	n/a	GoodResponse	0	n/a	n/a	3	11	Fixation	AvoidedLoss	True
119.221	0.29	Lose2	1.0	0.004	Yes	2.725	-0.004	2.0	GoodResponse	0	0.206	118.427	3	11	Target	AvoidedLoss	True
119.427	0.3	Lose2	1.0	0.004	Yes	2.725	-0.004	2.0	GoodResponse	0	0.206	n/a	3	11	ButtonPress	AvoidedLoss	True
119.522	0.41	Lose2	1.0	n/a	Yes	2.725	n/a	n/a	GoodResponse	0	n/a	n/a	3	11	Blank	AvoidedLoss	True
119.924	1.45	Lose2	1.0	n/a	Yes	2.725	n/a	5.0	GoodResponse	0	0.004	118.928	3	11	Feedback	AvoidedLoss	True
121.378	2.725	Lose2	1.0	n/a	Yes	2.725	n/a	n/a	GoodResponse	0	0.0	n/a	3	11	ISIslide	AvoidedLoss	True
124.119	0.25	Control	1.0	0.001	Yes	2.981	0.019	n/a	GoodResponse	0	n/a	n/a	3	12	Cue	Neutral	True
124.37	3.9	Control	1.0	0.0	Yes	2.981	0.001	n/a	GoodResponse	0	n/a	n/a	3	12	Fixation	Neutral	True
128.265	0.28	Control	1.0	0.004	Yes	2.981	-0.004	2.0	GoodResponse	0	0.247	127.512	3	12	Target	Neutral	True
128.512	0.3	Control	1.0	0.004	Yes	2.981	-0.004	2.0	GoodResponse	0	0.247	n/a	3	12	ButtonPress	Neutral	True
128.549	0.42	Control	1.0	n/a	Yes	2.981	n/a	n/a	GoodResponse	0	n/a	n/a	3	12	Blank	Neutral	True
128.967	1.45	Control	1.0	n/a	Yes	2.981	n/a	5.0	GoodResponse	0	0.034	128.001	3	12	Feedback	Neutral	True
130.422	2.981	Control	1.0	n/a	Yes	2.981	n/a	n/a	GoodResponse	0	0.0	n/a	3	12	ISIslide	Neutral	True
133.414	0.25	Control	0.9286	0.0	No	2.786	0.014	n/a	LatePress	0	n/a	n/a	3	13	Cue	Neutral	True
133.665	4.0	Control	0.9286	0.0	No	2.786	0.001	n/a	LatePress	0	n/a	n/a	3	13	Fixation	Neutral	True
137.66	0.27	Control	0.9286	0.004	No	2.786	-0.004	2.0	LatePress	0	0.279	136.939	3	13	Target	Neutral	True
137.939	0.3	Control	0.9286	0.004	No	2.786	-0.004	2.0	LatePress	0	0.279	n/a	3	13	ButtonPress	Neutral	True
137.944	0.43	Control	0.9286	n/a	No	2.786	n/a	n/a	LatePress	0	n/a	n/a	3	13	Blank	Neutral	True
138.362	1.45	Control	0.9286	n/a	No	2.786	n/a	5.0	LatePress	0	0.005	137.367	3	13	Feedback	Neutral	True
139.816	2.786	Control	0.9286	n/a	No	2.786	n/a	n/a	LatePress	0	0.0	n/a	3	13	ISIslide	Neutral	True
142.625	0.25	Win2	0.9333	0.0	Yes	2.675	0.025	n/a	GoodResponse	1	n/a	n/a	4	14	Cue	Win	True
142.876	4.1	Win2	0.9333	0.0	Yes	2.675	0.001	n/a	GoodResponse	1	n/a	n/a	4	14	Fixation	Win	True
146.971	0.26	Win2	0.9333	0.004	Yes	2.675	-0.004	2.0	GoodResponse	1	0.204	146.175	4	14	Target	Win	True
147.175	0.3	Win2	0.9333	0.004	Yes	2.675	-0.004	2.0	GoodResponse	1	0.204	n/a	4	14	ButtonPress	Win	True
147.239	0.44	Win2	0.9333	n/a	Yes	2.675	n/a	n/a	GoodResponse	1	n/a	n/a	4	14	Blank	Win	True
147.673	1.45	Win2	0.9333	n/a	Yes	2.675	n/a	5.0	GoodResponse	1	0.011	146.684	4	14	Feedback	Win	True
149.128	2.675	Win2	0.9333	n/a	Yes	2.675	n/a	n/a	GoodResponse	1	0.0	n/a	4	14	ISIslide	Win	True
151.819	0.25	Control	0.9375	0.0	Yes	2.981	0.019	n/a	GoodResponse	0	n/a	n/a	4	15	Cue	Neutral	True
152.07	4.0	Control	0.9375	0.0	Yes	2.981	0.001	n/a	GoodResponse	0	n/a	n/a	4	15	Fixation	Neutral	True
156.065	0.25	Control	0.9375	0.004	Yes	2.981	-0.004	2.0	GoodResponse	0	0.23	155.295	4	15	Target	Neutral	True
156.295	0.3	Control	0.9375	0.004	Yes	2.981	-0.004	2.0	GoodResponse	0	0.23	n/a	4	15	ButtonPress	Neutral	True
156.316	0.45	Control	0.9375	n/a	Yes	2.981	n/a	n/a	GoodResponse	0	n/a	n/a	4	15	Blank	Neutral	True
156.767	1.45	Control	0.9375	n/a	Yes	2.981	n/a	5.0	GoodResponse	0	0.039	155.806	4	15	Feedback	Neutral	True
158.222	2.981	Control	0.9375	n/a	Yes	2.981	n/a	n/a	GoodResponse	0	0.0	n/a	4	15	ISIslide	Neutral	True
161.214	0.25	Win2	0.9412	0.0	Yes	2.886	0.014	n/a	GoodResponse	1	n/a	n/a	5	16	Cue	Win	True
161.465	4.0	Win2	0.9412	0.0	Yes	2.886	0.001	n/a	GoodResponse	1	n/a	n/a	5	16	Fixation	Win	True
165.46	0.24	Win2	0.9412	0.004	Yes	2.886	-0.004	2.0	GoodResponse	1	0.214	164.674	5	16	Target	Win	True
165.674	0.3	Win2	0.9412	0.004	Yes	2.886	-0.004	2.0	GoodResponse	1	0.214	n/a	5	16	ButtonPress	Win	True
165.711	0.46	Win2	0.9412	n/a	Yes	2.886	n/a	n/a	GoodResponse	1	n/a	n/a	5	16	Blank	Win	True
166.162	1.45	Win2	0.9412	n/a	Yes	2.886	n/a	5.0	GoodResponse	1	0.01	165.172	5	16	Feedback	Win	True
167.616	2.886	Win2	0.9412	n/a	Yes	2.886	n/a	n/a	GoodResponse	1	0.0	n/a	5	16	ISIslide	Win	True
170.525	0.25	Lose2	0.9444	0.0	Yes	2.725	0.025	n/a	GoodResponse	0	n/a	n/a	5	17	Cue	AvoidedLoss	True
170.776	3.95	Lose2	0.9444	0.0	Yes	2.725	0.001	n/a	GoodResponse	0	n/a	n/a	5	17	Fixation	AvoidedLoss	True
174.721	0.23	Lose2	0.9444	0.004	Yes	2.725	-0.004	2.0	GoodResponse	0	0.214	173.935	5	17	Target	AvoidedLoss	True
174.935	0.3	Lose2	0.9444	0.004	Yes	2.725	-0.004	2.0	GoodResponse	0	0.214	n/a	5	17	ButtonPress	AvoidedLoss	True
174.955	0.47	Lose2	0.9444	n/a	Yes	2.725	n/a	n/a	GoodResponse	0	n/a	n/a	5	17	Blank	AvoidedLoss	True
175.423	1.45	Lose2	0.9444	n/a	Yes	2.725	n/a	5.0	GoodResponse	0	0.016	174.439	5	17	Feedback	AvoidedLoss	True
176.877	2.725	Lose2	0.9444	n/a	Yes	2.725	n/a	n/a	GoodResponse	0	0.0	n/a	5	17	ISIslide	AvoidedLoss	True
179.619	0.25	Lose2	0.9473999999999999	0.0	Yes	2.731	0.019	n/a	GoodResponse	0	n/a	n/a	5	18	Cue	AvoidedLoss	True
179.87	4.05	Lose2	0.9473999999999999	0.0	Yes	2.731	0.001	n/a	GoodResponse	0	n/a	n/a	5	18	Fixation	AvoidedLoss	True
183.915	0.22	Lose2	0.9473999999999999	0.004	Yes	2.731	-0.004	2.0	GoodResponse	0	0.197	183.112	5	18	Target	AvoidedLoss	True
184.112	0.3	Lose2	0.9473999999999999	0.004	Yes	2.731	-0.004	2.0	GoodResponse	0	0.197	n/a	5	18	ButtonPress	AvoidedLoss	True
184.149	0.48	Lose2	0.9473999999999999	n/a	Yes	2.731	n/a	n/a	GoodResponse	0	n/a	n/a	5	18	Blank	AvoidedLoss	True
184.617	1.45	Lose2	0.9473999999999999	n/a	Yes	2.731	n/a	5.0	GoodResponse	0	0.042	183.659	5	18	Feedback	AvoidedLoss	True
186.072	2.731	Lose2	0.9473999999999999	n/a	Yes	2.731	n/a	n/a	GoodResponse	0	0.0	n/a	5	18	ISIslide	AvoidedLoss	True
188.813	0.25	Control	0.9	0.0	No	2.937	0.013	n/a	NoResponse	0	n/a	n/a	5	19	Cue	Neutral	True
189.064	3.95	Control	0.9	0.0	No	2.937	0.001	n/a	NoResponse	0	n/a	n/a	5	19	Fixation	Neutral	True
193.009	0.21	Control	0.9	0.004	No	2.937	-0.004	2.0	NoResponse	0	0.233	192.242	5	19	Target	Neutral	True
193.226	0.49	Control	0.9	n/a	No	2.937	n/a	n/a	NoResponse	0	n/a	n/a	5	19	Blank	Neutral	True
193.242	0.3	Control	0.9	0.004	No	2.937	-0.004	2.0	NoResponse	0	0.233	n/a	5	19	ButtonPress	Neutral	True
193.711	1.45	Control	0.9	n/a	No	2.937	n/a	5.0	NoResponse	0	0.021	192.732	5	19	Feedback	Neutral	True
195.165	2.937	Control	0.9	n/a	No	2.937	n/a	n/a	NoResponse	0	0.0	n/a	5	19	ISIslide	Neutral	True
198.124	0.25	Control	0.8571	0.0	No	2.626	0.024	n/a	NoResponse	0	n/a	n/a	5	20	Cue	Neutral	True
198.375	4.05	Control	0.8571	0.0	No	2.626	0.001	n/a	NoResponse	0	n/a	n/a	5	20	Fixation	Neutral	True
202.421	0.2	Control	0.8571	0.003	No	2.626	-0.003	2.0	NoResponse	0	0.215	201.636	5	20	Target	Neutral	True
202.621	0.5	Control	0.8571	n/a	No	2.626	n/a	n/a	NoResponse	0	n/a	n/a	5	20	Blank	Neutral	True
202.636	0.3	Control	0.8571	0.003	No	2.626	-0.003	2.0	NoResponse	0	0.215	n/a	5	20	ButtonPress	Neutral	True
203.123	1.45	Control	0.8571	n/a	No	2.626	n/a	5.0	NoResponse	0	0.024	202.147	5	20	Feedback	Neutral	True
204.577	2.626	Control	0.8571	n/a	No	2.626	n/a	n/a	NoResponse	0	0.0	n/a	5	20	ISIslide	Neutral	True
207.218	0.25	Control	0.8181999999999999	0.0	No	2.782	0.018	n/a	NoResponse	0	n/a	n/a	5	21	Cue	Neutral	True
207.469	4.1	Control	0.8181999999999999	0.0	No	2.782	0.001	n/a	NoResponse	0	n/a	n/a	5	21	Fixation	Neutral	True
211.565	0.19	Control	0.8181999999999999	0.003	No	2.782	-0.003	2.0	NoResponse	0	0.206	210.771	5	21	Target	Neutral	True
211.765	0.51	Control	0.8181999999999999	n/a	No	2.782	n/a	n/a	NoResponse	0	n/a	n/a	5	21	Blank	Neutral	True
211.771	0.3	Control	0.8181999999999999	0.003	No	2.782	-0.003	2.0	NoResponse	0	0.206	n/a	5	21	ButtonPress	Neutral	True
212.267	1.45	Control	0.8181999999999999	n/a	No	2.782	n/a	5.0	NoResponse	0	0.004	211.271	5	21	Feedback	Neutral	True
213.721	2.782	Control	0.8181999999999999	n/a	No	2.782	n/a	n/a	NoResponse	0	0.0	n/a	5	21	ISIslide	Neutral	True
216.529	0.25	Control	0.7826000000000001	0.0	No	2.771	0.029	n/a	NoResponse	0	n/a	n/a	5	22	Cue	Neutral	True
216.78	4.0	Control	0.7826000000000001	0.0	No	2.771	0.001	n/a	NoResponse	0	n/a	n/a	5	22	Fixation	Neutral	True
220.775	0.18	Control	0.7826000000000001	0.004	No	2.771	-0.004	2.0	NoResponse	0	0.306	220.081	5	22	Target	Neutral	True
220.959	0.52	Control	0.7826000000000001	n/a	No	2.771	n/a	n/a	NoResponse	0	n/a	n/a	5	22	Blank	Neutral	True
221.081	0.3	Control	0.7826000000000001	0.004	No	2.771	-0.004	2.0	NoResponse	0	0.306	n/a	5	22	ButtonPress	Neutral	True
221.478	1.45	Control	0.7826000000000001	n/a	No	2.771	n/a	5.0	NoResponse	0	0.011	220.489	5	22	Feedback	Neutral	True
222.932	2.771	Control	0.7826000000000001	n/a	No	2.771	n/a	n/a	NoResponse	0	0.0	n/a	5	22	ISIslide	Neutral	True
225.724	0.25	Control	0.75	0.0	No	2.776	0.024	n/a	NoResponse	0	n/a	n/a	5	23	Cue	Neutral	True
225.974	3.9	Control	0.75	0.0	No	2.776	0.0	n/a	NoResponse	0	n/a	n/a	5	23	Fixation	Neutral	True
229.886	0.17	Control	0.75	0.0	No	2.776	0.012	2.0	NoResponse	0	0.218	229.104	5	23	Target	Neutral	True
230.053	0.53	Control	0.75	n/a	No	2.776	n/a	n/a	NoResponse	0	n/a	n/a	5	23	Blank	Neutral	True
230.104	0.3	Control	0.75	0.0	No	2.776	0.012	2.0	NoResponse	0	0.218	n/a	5	23	ButtonPress	Neutral	True
230.571	1.45	Control	0.75	n/a	No	2.776	n/a	5.0	NoResponse	0	0.039	229.61	5	23	Feedback	Neutral	True
232.026	2.776	Control	0.75	n/a	No	2.776	n/a	n/a	NoResponse	0	0.0	n/a	5	23	ISIslide	Neutral	True
234.817	0.25	Win2	0.72	0.001	No	3.133	0.017	n/a	NoResponse	0	n/a	n/a	5	24	Cue	MissedWin	True
235.068	3.95	Win2	0.72	0.0	No	3.133	0.001	n/a	NoResponse	0	n/a	n/a	5	24	Fixation	MissedWin	True
239.013	0.16	Win2	0.72	0.004	No	3.133	-0.004	2.0	NoResponse	0	0.197	238.21	5	24	Target	MissedWin	True
239.181	0.54	Win2	0.72	n/a	No	3.133	n/a	n/a	NoResponse	0	n/a	n/a	5	24	Blank	MissedWin	True
239.21	0.3	Win2	0.72	0.004	No	3.133	-0.004	2.0	NoResponse	0	0.197	n/a	5	24	ButtonPress	MissedWin	True
239.715	1.45	Win2	0.72	n/a	No	3.133	n/a	5.0	NoResponse	0	0.017	238.732	5	24	Feedback	MissedWin	True
241.17	3.133	Win2	0.72	n/a	No	3.133	n/a	n/a	NoResponse	0	0.0	n/a	5	24	ISIslide	MissedWin	True
244.329	0.25	Win2	0.6923	0.0	No	3.071	0.029	n/a	NoResponse	0	n/a	n/a	5	25	Cue	MissedWin	True
244.58	4.0	Win2	0.6923	0.0	No	3.071	0.001	n/a	NoResponse	0	n/a	n/a	5	25	Fixation	MissedWin	True
248.575	0.15	Win2	0.6923	0.004	No	3.071	-0.004	2.0	NoResponse	0	0.205	247.78	5	25	Target	MissedWin	True
248.726	0.55	Win2	0.6923	n/a	No	3.071	n/a	n/a	NoResponse	0	n/a	n/a	5	25	Blank	MissedWin	True
248.78	0.3	Win2	0.6923	0.004	No	3.071	-0.004	2.0	NoResponse	0	0.205	n/a	5	25	ButtonPress	MissedWin	True
249.277	1.45	Win2	0.6923	n/a	No	3.071	n/a	5.0	NoResponse	0	0.016	248.293	5	25	Feedback	MissedWin	True
250.732	3.071	Win2	0.6923	n/a	No	3.071	n/a	n/a	NoResponse	0	0.0	n/a	5	25	ISIslide	MissedWin	True
253.824	0.25	Win2	0.6667000000000001	0.0	No	2.926	0.024	n/a	NoResponse	0	n/a	n/a	5	26	Cue	MissedWin	True
254.075	3.95	Win2	0.6667000000000001	0.0	No	2.926	0.001	n/a	NoResponse	0	n/a	n/a	5	26	Fixation	MissedWin	True
258.02	0.15	Win2	0.6667000000000001	0.004	No	2.926	-0.004	2.0	NoResponse	0	0.196	257.216	5	26	Target	MissedWin	True
258.171	0.55	Win2	0.6667000000000001	n/a	No	2.926	n/a	n/a	NoResponse	0	n/a	n/a	5	26	Blank	MissedWin	True
258.216	0.3	Win2	0.6667000000000001	0.004	No	2.926	-0.004	2.0	NoResponse	0	0.196	n/a	5	26	ButtonPress	MissedWin	True
258.722	1.45	Win2	0.6667000000000001	n/a	No	2.926	n/a	5.0	NoResponse	0	0.034	257.756	5	26	Feedback	MissedWin	True
260.177	2.926	Win2	0.6667000000000001	n/a	No	2.926	n/a	n/a	NoResponse	0	0.0	n/a	5	26	ISIslide	MissedWin	True
263.119	0.25	Lose2	0.6429	0.0	No	2.831	0.019	n/a	NoResponse	-1	n/a	n/a	4	27	Cue	Loss	True
263.37	4.05	Lose2	0.6429	0.0	No	2.831	0.001	n/a	NoResponse	-1	n/a	n/a	4	27	Fixation	Loss	True
267.415	0.15	Lose2	0.6429	0.004	No	2.831	-0.004	2.0	NoResponse	-1	0.205	266.62	4	27	Target	Loss	True
267.566	0.55	Lose2	0.6429	n/a	No	2.831	n/a	n/a	NoResponse	-1	n/a	n/a	4	27	Blank	Loss	True
267.62	0.3	Lose2	0.6429	0.004	No	2.831	-0.004	2.0	NoResponse	-1	0.205	n/a	4	27	ButtonPress	Loss	True
268.117	1.45	Lose2	0.6429	n/a	No	2.831	n/a	5.0	NoResponse	-1	0.005	267.122	4	27	Feedback	Loss	True
269.572	2.831	Lose2	0.6429	n/a	No	2.831	n/a	n/a	NoResponse	-1	0.0	n/a	4	27	ISIslide	Loss	True
272.413	0.25	Control	0.6207	0.0	No	2.837	0.013	n/a	NoResponse	0	n/a	n/a	4	28	Cue	Neutral	True
272.664	4.05	Control	0.6207	0.0	No	2.837	0.001	n/a	NoResponse	0	n/a	n/a	4	28	Fixation	Neutral	True
276.71	0.16	Control	0.6207	0.003	No	2.837	-0.003	2.0	NoResponse	0	0.214	275.924	4	28	Target	Neutral	True
276.877	0.54	Control	0.6207	n/a	No	2.837	n/a	n/a	NoResponse	0	n/a	n/a	4	28	Blank	Neutral	True
276.924	0.3	Control	0.6207	0.003	No	2.837	-0.003	2.0	NoResponse	0	0.214	n/a	4	28	ButtonPress	Neutral	True
277.412	1.45	Control	0.6207	n/a	No	2.837	n/a	5.0	NoResponse	0	0.027	276.439	4	28	Feedback	Neutral	True
278.866	2.837	Control	0.6207	n/a	No	2.837	n/a	n/a	NoResponse	0	0.0	n/a	4	28	ISIslide	Neutral	True
281.725	0.25	Lose2	0.6	0.0	No	2.825	0.025	n/a	NoResponse	-1	n/a	n/a	3	29	Cue	Loss	True
281.975	3.95	Lose2	0.6	0.0	No	2.825	0.0	n/a	NoResponse	-1	n/a	n/a	3	29	Fixation	Loss	True
285.92	0.17	Lose2	0.6	0.005	No	2.825	-0.005	2.0	NoResponse	-1	0.19	285.11	3	29	Target	Loss	True
286.104	0.53	Lose2	0.6	n/a	No	2.825	n/a	n/a	NoResponse	-1	n/a	n/a	3	29	Blank	Loss	True
286.11	0.3	Lose2	0.6	0.005	No	2.825	-0.005	2.0	NoResponse	-1	0.19	n/a	3	29	ButtonPress	Loss	True
286.623	1.45	Lose2	0.6	n/a	No	2.825	n/a	5.0	NoResponse	-1	0.035	285.658	3	29	Feedback	Loss	True
288.077	2.825	Lose2	0.6	n/a	No	2.825	n/a	n/a	NoResponse	-1	0.0	n/a	3	29	ISIslide	Loss	True
290.919	0.25	Win2	0.5806	0.0	No	2.781	0.019	n/a	NoResponse	0	n/a	n/a	3	30	Cue	MissedWin	True
291.17	3.9	Win2	0.5806	0.0	No	2.781	0.001	n/a	NoResponse	0	n/a	n/a	3	30	Fixation	MissedWin	True
295.064	0.18	Win2	0.5806	0.005	No	2.781	-0.005	2.0	NoResponse	0	0.199	294.263	3	30	Target	MissedWin	True
295.248	0.52	Win2	0.5806	n/a	No	2.781	n/a	n/a	NoResponse	0	n/a	n/a	3	30	Blank	MissedWin	True
295.263	0.3	Win2	0.5806	0.005	No	2.781	-0.005	2.0	NoResponse	0	0.199	n/a	3	30	ButtonPress	MissedWin	True
295.767	1.45	Win2	0.5806	n/a	No	2.781	n/a	5.0	NoResponse	0	0.013	294.78	3	30	Feedback	MissedWin	True
297.221	2.781	Win2	0.5806	n/a	No	2.781	n/a	n/a	NoResponse	0	0.0	n/a	3	30	ISIslide	MissedWin	True
300.029	0.25	Lose2	0.5625	0.0	No	2.821	0.029	n/a	NoResponse	-1	n/a	n/a	2	31	Cue	Loss	True
300.28	4.05	Lose2	0.5625	0.0	No	2.821	0.001	n/a	NoResponse	-1	n/a	n/a	2	31	Fixation	Loss	True
304.326	0.19	Lose2	0.5625	0.003	No	2.821	-0.003	2.0	NoResponse	-1	0.206	303.532	2	31	Target	Loss	True
304.526	0.51	Lose2	0.5625	n/a	No	2.821	n/a	n/a	NoResponse	-1	n/a	n/a	2	31	Blank	Loss	True
304.532	0.3	Lose2	0.5625	0.003	No	2.821	-0.003	2.0	NoResponse	-1	0.206	n/a	2	31	ButtonPress	Loss	True
305.028	1.45	Lose2	0.5625	n/a	No	2.821	n/a	5.0	NoResponse	-1	0.021	304.049	2	31	Feedback	Loss	True
306.482	2.821	Lose2	0.5625	n/a	No	2.821	n/a	n/a	NoResponse	-1	0.0	n/a	2	31	ISIslide	Loss	True
309.324	0.25	Lose2	0.5758	0.0	Yes	2.626	0.024	n/a	GoodResponse	0	n/a	n/a	2	32	Cue	AvoidedLoss	True
309.575	4.15	Lose2	0.5758	0.0	Yes	2.626	0.001	n/a	GoodResponse	0	n/a	n/a	2	32	Fixation	AvoidedLoss	True
313.72	0.2	Lose2	0.5758	0.004	Yes	2.626	-0.004	2.0	GoodResponse	0	0.197	312.917	2	32	Target	AvoidedLoss	True
313.917	0.3	Lose2	0.5758	0.004	Yes	2.626	-0.004	2.0	GoodResponse	0	0.197	n/a	2	32	ButtonPress	AvoidedLoss	True
313.921	0.5	Lose2	0.5758	n/a	Yes	2.626	n/a	n/a	GoodResponse	0	n/a	n/a	2	32	Blank	AvoidedLoss	True
314.422	1.45	Lose2	0.5758	n/a	Yes	2.626	n/a	5.0	GoodResponse	0	0.041	313.463	2	32	Feedback	AvoidedLoss	True
315.877	2.626	Lose2	0.5758	n/a	Yes	2.626	n/a	n/a	GoodResponse	0	0.0	n/a	2	32	ISIslide	AvoidedLoss	True
318.518	0.25	Win2	0.5882000000000001	0.0	Yes	2.682	0.018	n/a	GoodResponse	1	n/a	n/a	3	33	Cue	Win	True
318.769	4.0	Win2	0.5882000000000001	0.0	Yes	2.682	0.001	n/a	GoodResponse	1	n/a	n/a	3	33	Fixation	Win	True
322.764	0.21	Win2	0.5882000000000001	0.004	Yes	2.682	-0.004	2.0	GoodResponse	1	0.205	321.969	3	33	Target	Win	True
322.969	0.3	Win2	0.5882000000000001	0.004	Yes	2.682	-0.004	2.0	GoodResponse	1	0.205	n/a	3	33	ButtonPress	Win	True
322.981	0.49	Win2	0.5882000000000001	n/a	Yes	2.682	n/a	n/a	GoodResponse	1	n/a	n/a	3	33	Blank	Win	True
323.466	1.45	Win2	0.5882000000000001	n/a	Yes	2.682	n/a	5.0	GoodResponse	1	0.022	322.488	3	33	Feedback	Win	True
324.921	2.682	Win2	0.5882000000000001	n/a	Yes	2.682	n/a	n/a	GoodResponse	1	0.0	n/a	3	33	ISIslide	Win	True
327.629	0.25	Lose2	0.6	0.0	Yes	2.621	0.029	n/a	GoodResponse	0	n/a	n/a	3	34	Cue	AvoidedLoss	True
327.879	4.05	Lose2	0.6	0.0	Yes	2.621	0.0	n/a	GoodResponse	0	n/a	n/a	3	34	Fixation	AvoidedLoss	True
331.925	0.22	Lose2	0.6	0.004	Yes	2.621	-0.004	2.0	GoodResponse	0	0.167	331.092	3	34	Target	AvoidedLoss	True
332.092	0.3	Lose2	0.6	0.004	Yes	2.621	-0.004	2.0	GoodResponse	0	0.167	n/a	3	34	ButtonPress	AvoidedLoss	True
332.159	0.48	Lose2	0.6	n/a	Yes	2.621	n/a	n/a	GoodResponse	0	n/a	n/a	3	34	Blank	AvoidedLoss	True
332.627	1.45	Lose2	0.6	n/a	Yes	2.621	n/a	5.0	GoodResponse	0	0.031	331.658	3	34	Feedback	AvoidedLoss	True
334.081	2.621	Lose2	0.6	n/a	Yes	2.621	n/a	n/a	GoodResponse	0	0.0	n/a	3	34	ISIslide	AvoidedLoss	True
336.723	0.25	Lose2	0.6111	0.0	Yes	2.677	0.023	n/a	GoodResponse	0	n/a	n/a	3	35	Cue	AvoidedLoss	True
336.973	4.0	Lose2	0.6111	0.0	Yes	2.677	0.0	n/a	GoodResponse	0	n/a	n/a	3	35	Fixation	AvoidedLoss	True
340.969	0.23	Lose2	0.6111	0.004	Yes	2.677	-0.004	2.0	GoodResponse	0	0.195	340.164	3	35	Target	AvoidedLoss	True
341.164	0.3	Lose2	0.6111	0.004	Yes	2.677	-0.004	2.0	GoodResponse	0	0.195	n/a	3	35	ButtonPress	AvoidedLoss	True
341.203	0.47	Lose2	0.6111	n/a	Yes	2.677	n/a	n/a	GoodResponse	0	n/a	n/a	3	35	Blank	AvoidedLoss	True
341.671	1.45	Lose2	0.6111	n/a	Yes	2.677	n/a	5.0	GoodResponse	0	0.011	340.682	3	35	Feedback	AvoidedLoss	True
343.125	2.677	Lose2	0.6111	n/a	Yes	2.677	n/a	n/a	GoodResponse	0	0.0	n/a	3	35	ISIslide	AvoidedLoss	True
345.816	0.25	Control	0.6215999999999999	0.0	Yes	2.684	0.016	n/a	GoodResponse	0	n/a	n/a	3	36	Cue	Neutral	True
346.067	4.0	Control	0.6215999999999999	0.0	Yes	2.684	0.001	n/a	GoodResponse	0	n/a	n/a	3	36	Fixation	Neutral	True
350.062	0.24	Control	0.6215999999999999	0.004	Yes	2.684	-0.004	2.0	GoodResponse	0	0.176	349.238	3	36	Target	Neutral	True
350.238	0.3	Control	0.6215999999999999	0.004	Yes	2.684	-0.004	2.0	GoodResponse	0	0.176	n/a	3	36	ButtonPress	Neutral	True
350.313	0.46	Control	0.6215999999999999	n/a	Yes	2.684	n/a	n/a	GoodResponse	0	n/a	n/a	3	36	Blank	Neutral	True
350.765	1.45	Control	0.6215999999999999	n/a	Yes	2.684	n/a	5.0	GoodResponse	0	0.039	349.804	3	36	Feedback	Neutral	True
352.219	2.684	Control	0.6215999999999999	n/a	Yes	2.684	n/a	n/a	GoodResponse	0	0.0	n/a	3	36	ISIslide	Neutral	True
354.927	0.25	Win2	0.6315999999999999	0.0	Yes	2.873	0.027	n/a	GoodResponse	1	n/a	n/a	4	37	Cue	Win	False
355.178	4.0	Win2	0.6315999999999999	0.0	Yes	2.873	0.001	2.0	GoodResponse	1	3.861	358.039	4	37	Fixation	Win	False
359.039	0.3	Win2	0.6315999999999999	0.0	Yes	2.873	0.001	2.0	GoodResponse	1	3.861	n/a	4	37	ButtonPress	Win	False
359.173	0.25	Win2	0.6315999999999999	0.004	Yes	2.873	-0.004	2.0	GoodResponse	1	0.235	358.408	4	37	Target	Win	False
359.408	0.3	Win2	0.6315999999999999	0.004	Yes	2.873	-0.004	2.0	GoodResponse	1	0.235	n/a	4	37	ButtonPress	Win	False
359.424	0.45	Win2	0.6315999999999999	n/a	Yes	2.873	n/a	n/a	GoodResponse	1	n/a	n/a	4	37	Blank	Win	False
359.875	1.45	Win2	0.6315999999999999	n/a	Yes	2.873	n/a	5.0	GoodResponse	1	0.004	358.879	4	37	Feedback	Win	False
361.33	2.873	Win2	0.6315999999999999	n/a	Yes	2.873	n/a	n/a	GoodResponse	1	0.0	n/a	4	37	ISIslide	Win	False
364.222	0.25	Lose2	0.6409999999999999	0.0	Yes	2.828	0.022	n/a	GoodResponse	0	n/a	n/a	4	38	Cue	AvoidedLoss	True
364.472	3.95	Lose2	0.6409999999999999	0.0	Yes	2.828	0.0	n/a	GoodResponse	0	n/a	n/a	4	38	Fixation	AvoidedLoss	True
368.434	0.26	Lose2	0.6409999999999999	0.0	Yes	2.828	0.012	2.0	GoodResponse	0	0.249	367.683	4	38	Target	AvoidedLoss	True
368.683	0.3	Lose2	0.6409999999999999	0.0	Yes	2.828	0.012	2.0	GoodResponse	0	0.249	n/a	4	38	ButtonPress	AvoidedLoss	True
368.685	0.44	Lose2	0.6409999999999999	n/a	Yes	2.828	n/a	n/a	GoodResponse	0	n/a	n/a	4	38	Blank	AvoidedLoss	True
369.12	1.45	Lose2	0.6409999999999999	n/a	Yes	2.828	n/a	5.0	GoodResponse	0	0.026	368.146	4	38	Feedback	AvoidedLoss	True
370.574	2.828	Lose2	0.6409999999999999	n/a	Yes	2.828	n/a	n/a	GoodResponse	0	0.0	n/a	4	38	ISIslide	AvoidedLoss	True
373.416	0.25	Win2	0.65	0.0	Yes	2.984	0.016	n/a	GoodResponse	1	n/a	n/a	5	39	Cue	Win	True
373.666	4.1	Win2	0.65	0.001	Yes	2.984	0.0	n/a	GoodResponse	1	n/a	n/a	5	39	Fixation	Win	True
377.762	0.27	Win2	0.65	0.004	Yes	2.984	-0.004	2.0	GoodResponse	1	0.226	376.988	5	39	Target	Win	True
377.988	0.3	Win2	0.65	0.004	Yes	2.984	-0.004	2.0	GoodResponse	1	0.226	n/a	5	39	ButtonPress	Win	True
378.046	0.43	Win2	0.65	n/a	Yes	2.984	n/a	n/a	GoodResponse	1	n/a	n/a	5	39	Blank	Win	True
378.464	1.45	Win2	0.65	n/a	Yes	2.984	n/a	5.0	GoodResponse	1	0.047	377.511	5	39	Feedback	Win	True
379.918	2.984	Win2	0.65	n/a	Yes	2.984	n/a	n/a	GoodResponse	1	0.0	n/a	5	39	ISIslide	Win	True
382.927	0.25	Win2	0.6585	0.001	Yes	2.723	0.027	n/a	GoodResponse	1	n/a	n/a	6	40	Cue	Win	True
383.178	3.95	Win2	0.6585	0.0	Yes	2.723	0.001	n/a	GoodResponse	1	n/a	n/a	6	40	Fixation	Win	True
387.123	0.28	Win2	0.6585	0.004	Yes	2.723	-0.004	2.0	GoodResponse	1	0.195	386.318	6	40	Target	Win	True
387.318	0.3	Win2	0.6585	0.004	Yes	2.723	-0.004	2.0	GoodResponse	1	0.195	n/a	6	40	ButtonPress	Win	True
387.408	0.42	Win2	0.6585	n/a	Yes	2.723	n/a	n/a	GoodResponse	1	n/a	n/a	6	40	Blank	Win	True
387.825	1.45	Win2	0.6585	n/a	Yes	2.723	n/a	5.0	GoodResponse	1	0.004	386.829	6	40	Feedback	Win	True
389.28	2.723	Win2	0.6585	n/a	Yes	2.723	n/a	n/a	GoodResponse	1	0.0	n/a	6	40	ISIslide	Win	True
392.021	0.25	Win2	0.6667000000000001	0.0	Yes	2.779	0.021	n/a	GoodResponse	1	n/a	n/a	7	41	Cue	Win	True
392.272	3.9	Win2	0.6667000000000001	0.0	Yes	2.779	0.001	n/a	GoodResponse	1	n/a	n/a	7	41	Fixation	Win	True
396.167	0.28	Win2	0.6667000000000001	0.004	Yes	2.779	-0.004	2.0	GoodResponse	1	0.203	395.37	7	41	Target	Win	True
396.37	0.3	Win2	0.6667000000000001	0.004	Yes	2.779	-0.004	2.0	GoodResponse	1	0.203	n/a	7	41	ButtonPress	Win	True
396.451	0.42	Win2	0.6667000000000001	n/a	Yes	2.779	n/a	n/a	GoodResponse	1	n/a	n/a	7	41	Blank	Win	True
396.869	1.45	Win2	0.6667000000000001	n/a	Yes	2.779	n/a	5.0	GoodResponse	1	0.032	395.901	7	41	Feedback	Win	True
398.324	2.779	Win2	0.6667000000000001	n/a	Yes	2.779	n/a	n/a	GoodResponse	1	0.0	n/a	7	41	ISIslide	Win	True
401.115	0.25	Control	0.6744	0.0	Yes	2.935	0.015	n/a	GoodResponse	0	n/a	n/a	7	42	Cue	Neutral	True
401.366	3.85	Control	0.6744	0.0	Yes	2.935	0.001	n/a	GoodResponse	0	n/a	n/a	7	42	Fixation	Neutral	True
405.211	0.27	Control	0.6744	0.004	Yes	2.935	-0.004	2.0	GoodResponse	0	0.238	404.449	7	42	Target	Neutral	True
405.449	0.3	Control	0.6744	0.004	Yes	2.935	-0.004	2.0	GoodResponse	0	0.238	n/a	7	42	ButtonPress	Neutral	True
405.495	0.43	Control	0.6744	n/a	Yes	2.935	n/a	n/a	GoodResponse	0	n/a	n/a	7	42	Blank	Neutral	True
405.913	1.45	Control	0.6744	n/a	Yes	2.935	n/a	5.0	GoodResponse	0	0.013	404.926	7	42	Feedback	Neutral	True
407.367	2.935	Control	0.6744	n/a	Yes	2.935	n/a	n/a	GoodResponse	0	0.0	n/a	7	42	ISIslide	Neutral	True
410.326	0.25	Win2	0.6818000000000001	0.0	Yes	3.174	0.026	n/a	GoodResponse	1	n/a	n/a	8	43	Cue	Win	True
410.577	4.0	Win2	0.6818000000000001	0.0	Yes	3.174	0.001	n/a	GoodResponse	1	n/a	n/a	8	43	Fixation	Win	True
414.572	0.26	Win2	0.6818000000000001	0.004	Yes	3.174	-0.004	2.0	GoodResponse	1	0.181	413.753	8	43	Target	Win	True
414.753	0.3	Win2	0.6818000000000001	0.004	Yes	3.174	-0.004	2.0	GoodResponse	1	0.181	n/a	8	43	ButtonPress	Win	True
414.84	0.44	Win2	0.6818000000000001	n/a	Yes	3.174	n/a	n/a	GoodResponse	1	n/a	n/a	8	43	Blank	Win	True
415.274	1.45	Win2	0.6818000000000001	n/a	Yes	3.174	n/a	5.0	GoodResponse	1	0.018	414.292	8	43	Feedback	Win	True
416.729	3.174	Win2	0.6818000000000001	n/a	Yes	3.174	n/a	n/a	GoodResponse	1	0.0	n/a	8	43	ISIslide	Win	True
419.922	0.25	Win2	0.6889	0.0	Yes	2.978	0.022	n/a	GoodResponse	1	n/a	n/a	9	44	Cue	Win	True
420.172	4.0	Win2	0.6889	0.0	Yes	2.978	0.0	n/a	GoodResponse	1	n/a	n/a	9	44	Fixation	Win	True
424.168	0.25	Win2	0.6889	0.004	Yes	2.978	-0.004	2.0	GoodResponse	1	0.191	423.359	9	44	Target	Win	True
424.359	0.3	Win2	0.6889	0.004	Yes	2.978	-0.004	2.0	GoodResponse	1	0.191	n/a	9	44	ButtonPress	Win	True
424.418	0.45	Win2	0.6889	n/a	Yes	2.978	n/a	n/a	GoodResponse	1	n/a	n/a	9	44	Blank	Win	True
424.87	1.45	Win2	0.6889	n/a	Yes	2.978	n/a	5.0	GoodResponse	1	0.032	423.902	9	44	Feedback	Win	True
426.324	2.978	Win2	0.6889	n/a	Yes	2.978	n/a	n/a	GoodResponse	1	0.0	n/a	9	44	ISIslide	Win	True
429.316	0.25	Control	0.6739	0.0	No	2.884	0.016	n/a	LatePress	0	n/a	n/a	9	45	Cue	Neutral	True
429.567	4.1	Control	0.6739	0.0	No	2.884	0.001	n/a	LatePress	0	n/a	n/a	9	45	Fixation	Neutral	True
433.663	0.24	Control	0.6739	0.003	No	2.884	-0.003	2.0	LatePress	0	0.24	432.903	9	45	Target	Neutral	True
433.903	0.3	Control	0.6739	0.003	No	2.884	-0.003	2.0	LatePress	0	0.24	n/a	9	45	ButtonPress	Neutral	True
433.913	0.46	Control	0.6739	n/a	No	2.884	n/a	n/a	LatePress	0	n/a	n/a	9	45	Blank	Neutral	True
434.365	1.45	Control	0.6739	n/a	No	2.884	n/a	5.0	LatePress	0	0.048	433.413	9	45	Feedback	Neutral	True
435.819	2.884	Control	0.6739	n/a	No	2.884	n/a	n/a	LatePress	0	0.0	n/a	9	45	ISIslide	Neutral	True
438.728	0.25	Lose2	0.6809000000000001	0.0	Yes	3.372	0.028	n/a	GoodResponse	0	n/a	n/a	9	46	Cue	AvoidedLoss	True
438.979	4.0	Lose2	0.6809000000000001	0.0	Yes	3.372	0.001	n/a	GoodResponse	0	n/a	n/a	9	46	Fixation	AvoidedLoss	True
442.974	0.23	Lose2	0.6809000000000001	0.004	Yes	3.372	-0.004	2.0	GoodResponse	0	0.182	442.156	9	46	Target	AvoidedLoss	True
443.156	0.3	Lose2	0.6809000000000001	0.004	Yes	3.372	-0.004	2.0	GoodResponse	0	0.182	n/a	9	46	ButtonPress	AvoidedLoss	True
443.208	0.47	Lose2	0.6809000000000001	n/a	Yes	3.372	n/a	n/a	GoodResponse	0	n/a	n/a	9	46	Blank	AvoidedLoss	True
443.676	1.45	Lose2	0.6809000000000001	n/a	Yes	3.372	n/a	5.0	GoodResponse	0	0.006	442.682	9	46	Feedback	AvoidedLoss	True
445.13	3.372	Lose2	0.6809000000000001	n/a	Yes	3.372	n/a	n/a	GoodResponse	0	0.0	n/a	9	46	ISIslide	AvoidedLoss	True
448.524	0.25	Lose2	0.6875	0.0	Yes	2.676	0.024	n/a	GoodResponse	0	n/a	n/a	9	47	Cue	AvoidedLoss	True
448.775	4.0	Lose2	0.6875	0.0	Yes	2.676	0.001	n/a	GoodResponse	0	n/a	n/a	9	47	Fixation	AvoidedLoss	True
452.77	0.22	Lose2	0.6875	0.004	Yes	2.676	-0.004	2.0	GoodResponse	0	0.201	451.971	9	47	Target	AvoidedLoss	True
452.971	0.3	Lose2	0.6875	0.004	Yes	2.676	-0.004	2.0	GoodResponse	0	0.201	n/a	9	47	ButtonPress	AvoidedLoss	True
453.004	0.48	Lose2	0.6875	n/a	Yes	2.676	n/a	n/a	GoodResponse	0	n/a	n/a	9	47	Blank	AvoidedLoss	True
453.472	1.45	Lose2	0.6875	n/a	Yes	2.676	n/a	5.0	GoodResponse	0	0.015	452.487	9	47	Feedback	AvoidedLoss	True
454.926	2.676	Lose2	0.6875	n/a	Yes	2.676	n/a	n/a	GoodResponse	0	0.0	n/a	9	47	ISIslide	AvoidedLoss	True
457.618	0.25	Lose2	0.6939	0.0	Yes	3.032	0.018	n/a	GoodResponse	0	n/a	n/a	9	48	Cue	AvoidedLoss	True
457.868	3.95	Lose2	0.6939	0.001	Yes	3.032	0.0	n/a	GoodResponse	0	n/a	n/a	9	48	Fixation	AvoidedLoss	True
461.814	0.21	Lose2	0.6939	0.004	Yes	3.032	-0.004	2.0	GoodResponse	0	0.197	461.011	9	48	Target	AvoidedLoss	True
462.011	0.3	Lose2	0.6939	0.004	Yes	3.032	-0.004	2.0	GoodResponse	0	0.197	n/a	9	48	ButtonPress	AvoidedLoss	True
462.031	0.49	Lose2	0.6939	n/a	Yes	3.032	n/a	n/a	GoodResponse	0	n/a	n/a	9	48	Blank	AvoidedLoss	True
462.516	1.45	Lose2	0.6939	n/a	Yes	3.032	n/a	5.0	GoodResponse	0	0.044	461.56	9	48	Feedback	AvoidedLoss	True
463.97	3.032	Lose2	0.6939	n/a	Yes	3.032	n/a	n/a	GoodResponse	0	0.0	n/a	9	48	ISIslide	AvoidedLoss	True
467.013	0.25	Control	0.68	0.0	No	2.887	0.013	n/a	PrematurePress	0	n/a	n/a	9	49	Cue	Neutral	False
467.263	4.0	Control	0.68	0.0	No	2.887	0.0	2.0	PrematurePress	0	3.688	469.951	9	49	Fixation	Neutral	False
470.951	0.3	Control	0.68	0.0	No	2.887	0.0	2.0	PrematurePress	0	3.688	n/a	9	49	ButtonPress	Neutral	False
471.259	0.2	Control	0.68	0.004	No	2.887	-0.004	2.0	PrematurePress	0	0.013	470.272	9	49	Target	Neutral	False
471.272	0.3	Control	0.68	0.004	No	2.887	-0.004	2.0	PrematurePress	0	0.013	n/a	9	49	ButtonPress	Neutral	False
471.459	0.5	Control	0.68	n/a	No	2.887	n/a	n/a	PrematurePress	0	n/a	n/a	9	49	Blank	Neutral	False
471.961	1.45	Control	0.68	n/a	No	2.887	n/a	5.0	PrematurePress	0	0.014	470.975	9	49	Feedback	Neutral	False
473.415	2.887	Control	0.68	n/a	No	2.887	n/a	n/a	PrematurePress	0	0.0	n/a	9	49	ISIslide	Neutral	False
476.324	0.25	Control	0.6667000000000001	0.0	No	2.776	0.024	n/a	NoResponse	0	n/a	n/a	9	50	Cue	Neutral	True
476.574	4.0	Control	0.6667000000000001	0.001	No	2.776	0.0	n/a	NoResponse	0	n/a	n/a	9	50	Fixation	Neutral	True
480.57	0.19	Control	0.6667000000000001	0.004	No	2.776	-0.004	2.0	NoResponse	0	0.226	479.796	9	50	Target	Neutral	True
480.77	0.51	Control	0.6667000000000001	n/a	No	2.776	n/a	n/a	NoResponse	0	n/a	n/a	9	50	Blank	Neutral	True
480.796	0.3	Control	0.6667000000000001	0.004	No	2.776	-0.004	2.0	NoResponse	0	0.226	n/a	9	50	ButtonPress	Neutral	True
481.272	1.45	Control	0.6667000000000001	n/a	No	2.776	n/a	5.0	NoResponse	0	0.019	480.291	9	50	Feedback	Neutral	True
482.726	2.776	Control	0.6667000000000001	n/a	No	2.776	n/a	n/a	NoResponse	0	0.0	n/a	9	50	ISIslide	Neutral	True
485.518	0.25	Control	0.6537999999999999	0.0	No	2.732	0.018	n/a	NoResponse	0	n/a	n/a	9	51	Cue	Neutral	True
485.769	3.95	Control	0.6537999999999999	0.0	No	2.732	0.001	n/a	NoResponse	0	n/a	n/a	9	51	Fixation	Neutral	True
489.714	0.18	Control	0.6537999999999999	0.004	No	2.732	-0.004	2.0	NoResponse	0	0.246	488.96	9	51	Target	Neutral	True
489.898	0.52	Control	0.6537999999999999	n/a	No	2.732	n/a	n/a	NoResponse	0	n/a	n/a	9	51	Blank	Neutral	True
489.96	0.3	Control	0.6537999999999999	0.004	No	2.732	-0.004	2.0	NoResponse	0	0.246	n/a	9	51	ButtonPress	Neutral	True
490.416	1.45	Control	0.6537999999999999	n/a	No	2.732	n/a	5.0	NoResponse	0	0.046	489.462	9	51	Feedback	Neutral	True
491.87	2.732	Control	0.6537999999999999	n/a	No	2.732	n/a	n/a	NoResponse	0	0.0	n/a	9	51	ISIslide	Neutral	True
494.629	0.25	Control	0.6415000000000001	0.0	No	2.621	0.029	n/a	NoResponse	0	n/a	n/a	9	52	Cue	Neutral	False
494.879	4.05	Control	0.6415000000000001	0.0	No	2.621	0.0	n/a	NoResponse	0	n/a	n/a	9	52	Fixation	Neutral	False
498.925	0.19	Control	0.6415000000000001	0.004	No	2.621	-0.004	n/a	NoResponse	0	n/a	n/a	9	52	Target	Neutral	False
499.125	0.51	Control	0.6415000000000001	n/a	No	2.621	n/a	n/a	NoResponse	0	n/a	n/a	9	52	Blank	Neutral	False
499.627	1.45	Control	0.6415000000000001	n/a	No	2.621	n/a	5.0	NoResponse	0	0.005	498.632	9	52	Feedback	Neutral	False
501.081	2.621	Control	0.6415000000000001	n/a	No	2.621	n/a	n/a	NoResponse	0	0.0	n/a	9	52	ISIslide	Neutral	False
503.722	0.25	Win2	0.6481	0.0	Yes	2.928	0.022	n/a	GoodResponse	1	n/a	n/a	10	53	Cue	Win	True
503.973	4.05	Win2	0.6481	0.0	Yes	2.928	0.001	n/a	GoodResponse	1	n/a	n/a	10	53	Fixation	Win	True
508.019	0.2	Win2	0.6481	0.003	Yes	2.928	-0.003	2.0	GoodResponse	1	0.186	507.205	10	53	Target	Win	True
508.205	0.3	Win2	0.6481	0.003	Yes	2.928	-0.003	2.0	GoodResponse	1	0.186	n/a	10	53	ButtonPress	Win	True
508.219	0.5	Win2	0.6481	n/a	Yes	2.928	n/a	n/a	GoodResponse	1	n/a	n/a	10	53	Blank	Win	True
508.721	1.45	Win2	0.6481	n/a	Yes	2.928	n/a	5.0	GoodResponse	1	0.034	507.755	10	53	Feedback	Win	True
510.175	2.928	Win2	0.6481	n/a	Yes	2.928	n/a	n/a	GoodResponse	1	0.0	n/a	10	53	ISIslide	Win	True
513.117	0.25	Win2	0.6545000000000001	0.0	Yes	2.733	0.017	n/a	GoodResponse	1	n/a	n/a	11	54	Cue	Win	True
513.368	3.95	Win2	0.6545000000000001	0.0	Yes	2.733	0.001	n/a	GoodResponse	1	n/a	n/a	11	54	Fixation	Win	True
517.313	0.21	Win2	0.6545000000000001	0.004	Yes	2.733	-0.004	2.0	GoodResponse	1	0.198	516.511	11	54	Target	Win	True
517.511	0.3	Win2	0.6545000000000001	0.004	Yes	2.733	-0.004	2.0	GoodResponse	1	0.198	n/a	11	54	ButtonPress	Win	True
517.53	0.49	Win2	0.6545000000000001	n/a	Yes	2.733	n/a	n/a	GoodResponse	1	n/a	n/a	11	54	Blank	Win	True
518.015	1.45	Win2	0.6545000000000001	n/a	Yes	2.733	n/a	5.0	GoodResponse	1	0.008	517.023	11	54	Feedback	Win	True
519.47	2.733	Win2	0.6545000000000001	n/a	Yes	2.733	n/a	n/a	GoodResponse	1	0.0	n/a	11	54	ISIslide	Win	True
522.228	0.25	Control	0.6607	0.0	Yes	3.022	0.028	n/a	GoodResponse	0	n/a	n/a	11	55	Cue	Neutral	True
522.479	3.95	Control	0.6607	0.0	Yes	3.022	0.001	n/a	GoodResponse	0	n/a	n/a	11	55	Fixation	Neutral	True
526.424	0.22	Control	0.6607	0.004	Yes	3.022	-0.004	2.0	GoodResponse	0	0.2	525.624	11	55	Target	Neutral	True
526.624	0.3	Control	0.6607	0.004	Yes	3.022	-0.004	2.0	GoodResponse	0	0.2	n/a	11	55	ButtonPress	Neutral	True
526.658	0.48	Control	0.6607	n/a	Yes	3.022	n/a	n/a	GoodResponse	0	n/a	n/a	11	55	Blank	Neutral	True
527.126	1.45	Control	0.6607	n/a	Yes	3.022	n/a	5.0	GoodResponse	0	0.018	526.144	11	55	Feedback	Neutral	True
528.58	3.022	Control	0.6607	n/a	Yes	3.022	n/a	n/a	GoodResponse	0	0.0	n/a	11	55	ISIslide	Neutral	True
531.623	0.25	Control	0.6667000000000001	0.0	Yes	2.827	0.023	n/a	GoodResponse	0	n/a	n/a	11	56	Cue	Neutral	True
531.873	3.95	Control	0.6667000000000001	0.0	Yes	2.827	0.0	n/a	GoodResponse	0	n/a	n/a	11	56	Fixation	Neutral	True
535.835	0.22	Control	0.6667000000000001	0.0	Yes	2.827	0.012	2.0	GoodResponse	0	0.199	535.034	11	56	Target	Neutral	True
536.034	0.3	Control	0.6667000000000001	0.0	Yes	2.827	0.012	2.0	GoodResponse	0	0.199	n/a	11	56	ButtonPress	Neutral	True
536.053	0.48	Control	0.6667000000000001	n/a	Yes	2.827	n/a	n/a	GoodResponse	0	n/a	n/a	11	56	Blank	Neutral	True
536.521	1.45	Control	0.6667000000000001	n/a	Yes	2.827	n/a	5.0	GoodResponse	0	0.038	535.559	11	56	Feedback	Neutral	True
537.975	2.827	Control	0.6667000000000001	n/a	Yes	2.827	n/a	n/a	GoodResponse	0	0.0	n/a	11	56	ISIslide	Neutral	True
540.817	0.25	Control	0.6552	0.0	No	3.483	0.017	n/a	NoResponse	0	n/a	n/a	11	57	Cue	Neutral	False
541.068	4.0	Control	0.6552	0.0	No	3.483	0.001	n/a	NoResponse	0	n/a	n/a	11	57	Fixation	Neutral	False
545.063	0.21	Control	0.6552	0.004	No	3.483	-0.004	n/a	NoResponse	0	n/a	n/a	11	57	Target	Neutral	False
545.28	0.49	Control	0.6552	n/a	No	3.483	n/a	n/a	NoResponse	0	n/a	n/a	11	57	Blank	Neutral	False
545.765	1.45	Control	0.6552	n/a	No	3.483	n/a	5.0	NoResponse	0	0.013	544.778	11	57	Feedback	Neutral	False
547.219	3.483	Control	0.6552	n/a	No	3.483	n/a	n/a	NoResponse	0	0.0	n/a	11	57	ISIslide	Neutral	False
550.73	0.25	Win2	0.6609999999999999	0.0	Yes	2.72	0.03	n/a	GoodResponse	1	n/a	n/a	12	58	Cue	Win	True
550.981	4.05	Win2	0.6609999999999999	0.0	Yes	2.72	0.001	n/a	GoodResponse	1	n/a	n/a	12	58	Fixation	Win	True
555.026	0.21	Win2	0.6609999999999999	0.004	Yes	2.72	-0.004	2.0	GoodResponse	1	0.207	554.233	12	58	Target	Win	True
555.233	0.3	Win2	0.6609999999999999	0.004	Yes	2.72	-0.004	2.0	GoodResponse	1	0.207	n/a	12	58	ButtonPress	Win	True
555.243	0.49	Win2	0.6609999999999999	n/a	Yes	2.72	n/a	n/a	GoodResponse	1	n/a	n/a	12	58	Blank	Win	True
555.728	1.45	Win2	0.6609999999999999	n/a	Yes	2.72	n/a	5.0	GoodResponse	1	0.002	554.73	12	58	Feedback	Win	True
557.182	2.72	Win2	0.6609999999999999	n/a	Yes	2.72	n/a	n/a	GoodResponse	1	0.0	n/a	12	58	ISIslide	Win	True
559.924	0.25	Lose2	0.6667000000000001	0.0	Yes	2.676	0.024	n/a	GoodResponse	0	n/a	n/a	12	59	Cue	AvoidedLoss	True
560.175	4.0	Lose2	0.6667000000000001	0.0	Yes	2.676	0.001	n/a	GoodResponse	0	n/a	n/a	12	59	Fixation	AvoidedLoss	True
564.17	0.21	Lose2	0.6667000000000001	0.004	Yes	2.676	-0.004	2.0	GoodResponse	0	0.172	563.342	12	59	Target	AvoidedLoss	True
564.342	0.3	Lose2	0.6667000000000001	0.004	Yes	2.676	-0.004	2.0	GoodResponse	0	0.172	n/a	12	59	ButtonPress	AvoidedLoss	True
564.387	0.49	Lose2	0.6667000000000001	n/a	Yes	2.676	n/a	n/a	GoodResponse	0	n/a	n/a	12	59	Blank	AvoidedLoss	True
564.872	1.45	Lose2	0.6667000000000001	n/a	Yes	2.676	n/a	5.0	GoodResponse	0	0.029	563.901	12	59	Feedback	AvoidedLoss	True
566.326	2.676	Lose2	0.6667000000000001	n/a	Yes	2.676	n/a	n/a	GoodResponse	0	0.0	n/a	12	59	ISIslide	AvoidedLoss	True
569.018	0.25	Control	0.6720999999999999	0.0	Yes	2.682	0.018	n/a	GoodResponse	0	n/a	n/a	12	60	Cue	Neutral	True
569.269	4.0	Control	0.6720999999999999	0.0	Yes	2.682	0.001	n/a	GoodResponse	0	n/a	n/a	12	60	Fixation	Neutral	True
573.264	0.2	Control	0.6720999999999999	0.004	Yes	2.682	-0.004	2.0	GoodResponse	0	0.195	572.459	12	60	Target	Neutral	True
573.459	0.3	Control	0.6720999999999999	0.004	Yes	2.682	-0.004	2.0	GoodResponse	0	0.195	n/a	12	60	ButtonPress	Neutral	True
573.465	0.5	Control	0.6720999999999999	n/a	Yes	2.682	n/a	n/a	GoodResponse	0	n/a	n/a	12	60	Blank	Neutral	True
573.966	1.45	Control	0.6720999999999999	n/a	Yes	2.682	n/a	5.0	GoodResponse	0	0.008	572.974	12	60	Feedback	Neutral	True
575.42	2.682	Control	0.6720999999999999	n/a	Yes	2.682	n/a	n/a	GoodResponse	0	0.0	n/a	12	60	ISIslide	Neutral	True
578.128	0.25	Lose2	0.6774	0.001	Yes	2.972	0.028	n/a	GoodResponse	0	n/a	n/a	12	61	Cue	AvoidedLoss	True
578.379	4.0	Lose2	0.6774	0.0	Yes	2.972	0.001	n/a	GoodResponse	0	n/a	n/a	12	61	Fixation	AvoidedLoss	True
582.375	0.19	Lose2	0.6774	0.003	Yes	2.972	-0.003	2.0	GoodResponse	0	0.182	581.557	12	61	Target	AvoidedLoss	True
582.557	0.3	Lose2	0.6774	0.003	Yes	2.972	-0.003	2.0	GoodResponse	0	0.182	n/a	12	61	ButtonPress	AvoidedLoss	True
582.575	0.51	Lose2	0.6774	n/a	Yes	2.972	n/a	n/a	GoodResponse	0	n/a	n/a	12	61	Blank	AvoidedLoss	True
583.077	1.45	Lose2	0.6774	n/a	Yes	2.972	n/a	5.0	GoodResponse	0	0.018	582.095	12	61	Feedback	AvoidedLoss	True
584.531	2.972	Lose2	0.6774	n/a	Yes	2.972	n/a	n/a	GoodResponse	0	0.0	n/a	12	61	ISIslide	AvoidedLoss	True
587.523	0.25	Lose2	0.6667000000000001	0.0	No	2.877	0.023	n/a	NoResponse	-1	n/a	n/a	11	62	Cue	Loss	True
587.774	3.9	Lose2	0.6667000000000001	0.0	No	2.877	0.001	n/a	NoResponse	-1	n/a	n/a	11	62	Fixation	Loss	True
591.669	0.18	Lose2	0.6667000000000001	0.004	No	2.877	-0.004	2.0	NoResponse	-1	0.19	590.859	11	62	Target	Loss	True
591.853	0.52	Lose2	0.6667000000000001	n/a	No	2.877	n/a	n/a	NoResponse	-1	n/a	n/a	11	62	Blank	Loss	True
591.859	0.3	Lose2	0.6667000000000001	0.004	No	2.877	-0.004	2.0	NoResponse	-1	0.19	n/a	11	62	ButtonPress	Loss	True
592.371	1.45	Lose2	0.6667000000000001	n/a	No	2.877	n/a	5.0	NoResponse	-1	0.041	591.412	11	62	Feedback	Loss	True
593.825	2.877	Lose2	0.6667000000000001	n/a	No	2.877	n/a	n/a	NoResponse	-1	0.0	n/a	11	62	ISIslide	Loss	True
596.717	0.25	Lose2	0.6562	0.001	No	2.633	0.017	n/a	LatePress	-1	n/a	n/a	10	63	Cue	Loss	True
596.968	4.05	Lose2	0.6562	0.0	No	2.633	0.001	n/a	LatePress	-1	n/a	n/a	10	63	Fixation	Loss	True
601.014	0.17	Lose2	0.6562	0.003	No	2.633	-0.003	2.0	LatePress	-1	0.183	600.197	10	63	Target	Loss	True
601.197	0.3	Lose2	0.6562	0.003	No	2.633	-0.003	2.0	LatePress	-1	0.183	n/a	10	63	ButtonPress	Loss	True
601.198	0.53	Lose2	0.6562	n/a	No	2.633	n/a	n/a	LatePress	-1	n/a	n/a	10	63	Blank	Loss	True
601.716	1.45	Lose2	0.6562	n/a	No	2.633	n/a	5.0	LatePress	-1	0.013	600.729	10	63	Feedback	Loss	True
603.17	2.633	Lose2	0.6562	n/a	No	2.633	n/a	n/a	LatePress	-1	0.0	n/a	10	63	ISIslide	Loss	True
605.828	0.25	Win2	0.6462	0.0	No	3.122	0.028	n/a	LatePress	0	n/a	n/a	10	64	Cue	MissedWin	True
606.079	4.15	Win2	0.6462	0.0	No	3.122	0.001	n/a	LatePress	0	n/a	n/a	10	64	Fixation	MissedWin	True
610.225	0.17	Win2	0.6462	0.003	No	3.122	-0.003	2.0	LatePress	0	0.176	609.401	10	64	Target	MissedWin	True
610.401	0.3	Win2	0.6462	0.003	No	3.122	-0.003	2.0	LatePress	0	0.176	n/a	10	64	ButtonPress	MissedWin	True
610.408	0.53	Win2	0.6462	n/a	No	3.122	n/a	n/a	LatePress	0	n/a	n/a	10	64	Blank	MissedWin	True
610.927	1.45	Win2	0.6462	n/a	No	3.122	n/a	5.0	LatePress	0	0.022	609.949	10	64	Feedback	MissedWin	True
612.381	3.122	Win2	0.6462	n/a	No	3.122	n/a	n/a	LatePress	0	0.0	n/a	10	64	ISIslide	MissedWin	True
615.524	0.25	Control	0.6364	0.0	No	2.776	0.024	n/a	NoResponse	0	n/a	n/a	10	65	Cue	Neutral	True
615.774	4.0	Control	0.6364	0.001	No	2.776	0.0	n/a	NoResponse	0	n/a	n/a	10	65	Fixation	Neutral	True
619.77	0.18	Control	0.6364	0.004	No	2.776	-0.004	2.0	NoResponse	0	0.198	618.968	10	65	Target	Neutral	True
619.954	0.52	Control	0.6364	n/a	No	2.776	n/a	n/a	NoResponse	0	n/a	n/a	10	65	Blank	Neutral	True
619.968	0.3	Control	0.6364	0.004	No	2.776	-0.004	2.0	NoResponse	0	0.198	n/a	10	65	ButtonPress	Neutral	True
620.472	1.45	Control	0.6364	n/a	No	2.776	n/a	5.0	NoResponse	0	0.038	619.51	10	65	Feedback	Neutral	True
621.926	2.776	Control	0.6364	n/a	No	2.776	n/a	n/a	NoResponse	0	0.0	n/a	10	65	ISIslide	Neutral	True
624.718	0.25	Win2	0.6269	0.0	No	2.782	0.018	n/a	LatePress	0	n/a	n/a	10	66	Cue	MissedWin	True
624.969	3.9	Win2	0.6269	0.0	No	2.782	0.001	n/a	LatePress	0	n/a	n/a	10	66	Fixation	MissedWin	True
628.864	0.19	Win2	0.6269	0.004	No	2.782	-0.004	2.0	LatePress	0	0.192	628.056	10	66	Target	MissedWin	True
629.056	0.3	Win2	0.6269	0.004	No	2.782	-0.004	2.0	LatePress	0	0.192	n/a	10	66	ButtonPress	MissedWin	True
629.064	0.51	Win2	0.6269	n/a	No	2.782	n/a	n/a	LatePress	0	n/a	n/a	10	66	Blank	MissedWin	True
629.566	1.45	Win2	0.6269	n/a	No	2.782	n/a	5.0	LatePress	0	0.016	628.582	10	66	Feedback	MissedWin	True
631.02	2.782	Win2	0.6269	n/a	No	2.782	n/a	n/a	LatePress	0	0.0	n/a	10	66	ISIslide	MissedWin	True
633.829	0.25	Control	0.6175999999999999	0.0	No	2.721	0.029	n/a	NoResponse	0	n/a	n/a	10	67	Cue	Neutral	True
634.079	3.95	Control	0.6175999999999999	0.0	No	2.721	0.0	n/a	NoResponse	0	n/a	n/a	10	67	Fixation	Neutral	True
638.041	0.2	Control	0.6175999999999999	0.0	No	2.721	0.012	2.0	NoResponse	0	0.222	637.263	10	67	Target	Neutral	True
638.225	0.5	Control	0.6175999999999999	n/a	No	2.721	n/a	n/a	NoResponse	0	n/a	n/a	10	67	Blank	Neutral	True
638.263	0.3	Control	0.6175999999999999	0.0	No	2.721	0.012	2.0	NoResponse	0	0.222	n/a	10	67	ButtonPress	Neutral	True
638.727	1.45	Control	0.6175999999999999	n/a	No	2.721	n/a	5.0	NoResponse	0	0.026	637.753	10	67	Feedback	Neutral	True
640.181	2.721	Control	0.6175999999999999	n/a	No	2.721	n/a	n/a	NoResponse	0	0.0	n/a	10	67	ISIslide	Neutral	True
642.922	0.25	Win2	0.6232	0.001	Yes	3.078	0.022	n/a	GoodResponse	1	n/a	n/a	11	68	Cue	Win	True
643.173	4.0	Win2	0.6232	0.0	Yes	3.078	0.001	n/a	GoodResponse	1	n/a	n/a	11	68	Fixation	Win	True
647.168	0.21	Win2	0.6232	0.004	Yes	3.078	-0.004	2.0	GoodResponse	1	0.172	646.34	11	68	Target	Win	True
647.34	0.3	Win2	0.6232	0.004	Yes	3.078	-0.004	2.0	GoodResponse	1	0.172	n/a	11	68	ButtonPress	Win	True
647.386	0.49	Win2	0.6232	n/a	Yes	3.078	n/a	n/a	GoodResponse	1	n/a	n/a	11	68	Blank	Win	True
647.871	1.45	Win2	0.6232	n/a	Yes	3.078	n/a	5.0	GoodResponse	1	0.004	646.875	11	68	Feedback	Win	True
649.325	3.078	Win2	0.6232	n/a	Yes	3.078	n/a	n/a	GoodResponse	1	0.0	n/a	11	68	ISIslide	Win	True
652.418	0.25	Win2	0.6286	0.0	Yes	3.232	0.018	n/a	GoodResponse	1	n/a	n/a	12	69	Cue	Win	True
652.668	3.95	Win2	0.6286	0.0	Yes	3.232	0.0	n/a	GoodResponse	1	n/a	n/a	12	69	Fixation	Win	True
656.63	0.22	Win2	0.6286	0.0	Yes	3.232	0.012	2.0	GoodResponse	1	0.168	655.798	12	69	Target	Win	True
656.798	0.3	Win2	0.6286	0.0	Yes	3.232	0.012	2.0	GoodResponse	1	0.168	n/a	12	69	ButtonPress	Win	True
656.847	0.48	Win2	0.6286	n/a	Yes	3.232	n/a	n/a	GoodResponse	1	n/a	n/a	12	69	Blank	Win	True
657.315	1.45	Win2	0.6286	n/a	Yes	3.232	n/a	5.0	GoodResponse	1	0.024	656.339	12	69	Feedback	Win	True
658.77	3.232	Win2	0.6286	n/a	Yes	3.232	n/a	n/a	GoodResponse	1	0.0	n/a	12	69	ISIslide	Win	True
662.03	0.25	Lose2	0.6338	0.0	Yes	3.02	0.03	n/a	GoodResponse	0	n/a	n/a	12	70	Cue	AvoidedLoss	True
662.28	4.05	Lose2	0.6338	0.0	Yes	3.02	0.0	n/a	GoodResponse	0	n/a	n/a	12	70	Fixation	AvoidedLoss	True
666.326	0.23	Lose2	0.6338	0.004	Yes	3.02	-0.004	2.0	GoodResponse	0	0.173	665.499	12	70	Target	AvoidedLoss	True
666.499	0.3	Lose2	0.6338	0.004	Yes	3.02	-0.004	2.0	GoodResponse	0	0.173	n/a	12	70	ButtonPress	AvoidedLoss	True
666.56	0.47	Lose2	0.6338	n/a	Yes	3.02	n/a	n/a	GoodResponse	0	n/a	n/a	12	70	Blank	AvoidedLoss	True
667.028	1.45	Lose2	0.6338	n/a	Yes	3.02	n/a	5.0	GoodResponse	0	0.018	666.046	12	70	Feedback	AvoidedLoss	True
668.482	3.02	Lose2	0.6338	n/a	Yes	3.02	n/a	n/a	GoodResponse	0	0.0	n/a	12	70	ISIslide	AvoidedLoss	True
671.525	0.25	Win2	0.6389	0.0	Yes	2.725	0.025	n/a	GoodResponse	1	n/a	n/a	13	71	Cue	Win	True
671.775	4.05	Win2	0.6389	0.001	Yes	2.725	0.0	n/a	GoodResponse	1	n/a	n/a	13	71	Fixation	Win	True
675.821	0.24	Win2	0.6389	0.004	Yes	2.725	-0.004	2.0	GoodResponse	1	0.201	675.022	13	71	Target	Win	True
676.022	0.3	Win2	0.6389	0.004	Yes	2.725	-0.004	2.0	GoodResponse	1	0.201	n/a	13	71	ButtonPress	Win	True
676.072	0.46	Win2	0.6389	n/a	Yes	2.725	n/a	n/a	GoodResponse	1	n/a	n/a	13	71	Blank	Win	True
676.523	1.45	Win2	0.6389	n/a	Yes	2.725	n/a	5.0	GoodResponse	1	0.036	675.559	13	71	Feedback	Win	True
677.977	2.725	Win2	0.6389	n/a	Yes	2.725	n/a	n/a	GoodResponse	1	0.0	n/a	13	71	ISIslide	Win	True
680.719	0.25	Win2	0.6437999999999999	0.0	Yes	2.781	0.019	n/a	GoodResponse	1	n/a	n/a	14	72	Cue	Win	True
680.97	4.1	Win2	0.6437999999999999	0.0	Yes	2.781	0.001	n/a	GoodResponse	1	n/a	n/a	14	72	Fixation	Win	True
685.065	0.25	Win2	0.6437999999999999	0.004	Yes	2.781	-0.004	2.0	GoodResponse	1	0.184	684.249	14	72	Target	Win	True
685.249	0.3	Win2	0.6437999999999999	0.004	Yes	2.781	-0.004	2.0	GoodResponse	1	0.184	n/a	14	72	ButtonPress	Win	True
685.316	0.45	Win2	0.6437999999999999	n/a	Yes	2.781	n/a	n/a	GoodResponse	1	n/a	n/a	14	72	Blank	Win	True
685.767	1.45	Win2	0.6437999999999999	n/a	Yes	2.781	n/a	5.0	GoodResponse	1	0.01	684.777	14	72	Feedback	Win	True
687.222	2.781	Win2	0.6437999999999999	n/a	Yes	2.781	n/a	n/a	GoodResponse	1	0.0	n/a	14	72	ISIslide	Win	True
690.03	0.25	Win2	0.6486	0.0	Yes	2.67	0.03	n/a	GoodResponse	1	n/a	n/a	15	73	Cue	Win	True
690.281	4.0	Win2	0.6486	0.0	Yes	2.67	0.001	n/a	GoodResponse	1	n/a	n/a	15	73	Fixation	Win	True
694.276	0.26	Win2	0.6486	0.004	Yes	2.67	-0.004	2.0	GoodResponse	1	0.199	693.475	15	73	Target	Win	True
694.475	0.3	Win2	0.6486	0.004	Yes	2.67	-0.004	2.0	GoodResponse	1	0.199	n/a	15	73	ButtonPress	Win	True
694.544	0.44	Win2	0.6486	n/a	Yes	2.67	n/a	n/a	GoodResponse	1	n/a	n/a	15	73	Blank	Win	True
694.978	1.45	Win2	0.6486	n/a	Yes	2.67	n/a	5.0	GoodResponse	1	0.019	693.997	15	73	Feedback	Win	True
696.433	2.67	Win2	0.6486	n/a	Yes	2.67	n/a	n/a	GoodResponse	1	0.0	n/a	15	73	ISIslide	Win	True
699.124	0.25	Lose2	0.6533	0.0	Yes	2.626	0.024	n/a	GoodResponse	0	n/a	n/a	15	74	Cue	AvoidedLoss	True
699.375	4.05	Lose2	0.6533	0.0	Yes	2.626	0.001	n/a	GoodResponse	0	n/a	n/a	15	74	Fixation	AvoidedLoss	True
703.42	0.27	Lose2	0.6533	0.004	Yes	2.626	-0.004	2.0	GoodResponse	0	0.178	702.598	15	74	Target	AvoidedLoss	True
703.598	0.3	Lose2	0.6533	0.004	Yes	2.626	-0.004	2.0	GoodResponse	0	0.178	n/a	15	74	ButtonPress	AvoidedLoss	True
703.704	0.43	Lose2	0.6533	n/a	Yes	2.626	n/a	n/a	GoodResponse	0	n/a	n/a	15	74	Blank	AvoidedLoss	True
704.122	1.45	Lose2	0.6533	n/a	Yes	2.626	n/a	5.0	GoodResponse	0	0.046	703.168	15	74	Feedback	AvoidedLoss	True
705.577	2.626	Lose2	0.6533	n/a	Yes	2.626	n/a	n/a	GoodResponse	0	0.0	n/a	15	74	ISIslide	AvoidedLoss	True
708.218	0.25	Lose2	0.6446999999999999	0.0	No	2.932	0.018	n/a	NoResponse	-1	n/a	n/a	14	75	Cue	Loss	False
708.469	3.95	Lose2	0.6446999999999999	0.0	No	2.932	0.001	n/a	NoResponse	-1	n/a	n/a	14	75	Fixation	Loss	False
712.414	0.28	Lose2	0.6446999999999999	0.004	No	2.932	-0.004	n/a	NoResponse	-1	n/a	n/a	14	75	Target	Loss	False
712.698	0.42	Lose2	0.6446999999999999	n/a	No	2.932	n/a	n/a	NoResponse	-1	n/a	n/a	14	75	Blank	Loss	False
713.116	1.45	Lose2	0.6446999999999999	n/a	No	2.932	n/a	5.0	NoResponse	-1	0.027	712.143	14	75	Feedback	Loss	False
714.57	2.932	Lose2	0.6446999999999999	n/a	No	2.932	n/a	n/a	NoResponse	-1	0.0	n/a	14	75	ISIslide	Loss	False
717.529	0.25	Control	0.6494	0.0	Yes	3.221	0.029	n/a	GoodResponse	0	n/a	n/a	14	76	Cue	Neutral	True
717.78	4.05	Control	0.6494	0.0	Yes	3.221	0.001	n/a	GoodResponse	0	n/a	n/a	14	76	Fixation	Neutral	True
721.825	0.29	Control	0.6494	0.004	Yes	3.221	-0.004	2.0	GoodResponse	0	0.184	721.009	14	76	Target	Neutral	True
722.009	0.3	Control	0.6494	0.004	Yes	3.221	-0.004	2.0	GoodResponse	0	0.184	n/a	14	76	ButtonPress	Neutral	True
722.126	0.41	Control	0.6494	n/a	Yes	3.221	n/a	n/a	GoodResponse	0	n/a	n/a	14	76	Blank	Neutral	True
722.527	1.45	Control	0.6494	n/a	Yes	3.221	n/a	5.0	GoodResponse	0	0.031	721.558	14	76	Feedback	Neutral	True
723.982	3.221	Control	0.6494	n/a	Yes	3.221	n/a	n/a	GoodResponse	0	0.0	n/a	14	76	ISIslide	Neutral	True
727.225	0.25	Lose2	0.6409999999999999	0.0	No	2.575	0.025	n/a	PrematurePress	-1	n/a	n/a	13	77	Cue	Loss	False
727.476	3.95	Lose2	0.6409999999999999	0.0	No	2.575	0.001	2.0	PrematurePress	-1	3.55	730.026	13	77	Fixation	Loss	False
731.026	0.3	Lose2	0.6409999999999999	0.0	No	2.575	0.001	2.0	PrematurePress	-1	3.55	n/a	13	77	ButtonPress	Loss	False
731.421	0.3	Lose2	0.6409999999999999	0.004	No	2.575	-0.004	2.0	PrematurePress	-1	0.058	730.479	13	77	Target	Loss	False
731.479	0.3	Lose2	0.6409999999999999	0.004	No	2.575	-0.004	2.0	PrematurePress	-1	0.058	n/a	13	77	ButtonPress	Loss	False
731.722	0.4	Lose2	0.6409999999999999	n/a	No	2.575	n/a	n/a	PrematurePress	-1	n/a	n/a	13	77	Blank	Loss	False
732.123	1.45	Lose2	0.6409999999999999	n/a	No	2.575	n/a	5.0	PrematurePress	-1	0.044	731.167	13	77	Feedback	Loss	False
733.577	2.575	Lose2	0.6409999999999999	n/a	No	2.575	n/a	n/a	PrematurePress	-1	0.0	n/a	13	77	ISIslide	Loss	False
