onset	duration	cue_type	current_mean_accuracy	duration_error	is_hit	isi_adjusted	onset_delay	response	response_type	reward	rt	rt_time	total_reward	trial_number	trial_phase	trial_type	one_press
11.105	0.25	Control	1.0	0.0	Yes	2.945	0.005	n/a	GoodResponse	0	n/a	n/a	0	0	Cue	Neutral	True
11.356	3.85	Control	1.0	0.0	Yes	2.945	0.001	n/a	GoodResponse	0	n/a	n/a	0	0	Fixation	Neutral	True
15.217	0.4	Control	1.0	0.0	Yes	2.945	0.012	1.0	GoodResponse	0	0.233	14.45	0	0	Target	Neutral	True
15.45	0.3	Control	1.0	0.0	Yes	2.945	0.012	1.0	GoodResponse	0	0.233	n/a	0	0	ButtonPress	Neutral	True
15.602	0.3	Control	1.0	n/a	Yes	2.945	n/a	n/a	GoodResponse	0	n/a	n/a	0	0	Blank	Neutral	True
15.903	1.45	Control	1.0	n/a	Yes	2.945	n/a	5.0	GoodResponse	0	0.024	14.927	0	0	Feedback	Neutral	True
17.357	2.945	Control	1.0	n/a	Yes	2.945	n/a	n/a	GoodResponse	0	0.0	n/a	0	0	ISIslide	Neutral	True
20.316	0.25	Lose2	1.0	0.0	Yes	2.784	0.016	n/a	GoodResponse	0	n/a	n/a	0	1	Cue	AvoidedLoss	True
20.566	4.0	Lose2	1.0	0.001	Yes	2.784	0.0	n/a	GoodResponse	0	n/a	n/a	0	1	Fixation	AvoidedLoss	True
24.562	0.39	Lose2	1.0	0.004	Yes	2.784	-0.004	1.0	GoodResponse	0	0.23	23.792	0	1	Target	AvoidedLoss	True
24.792	0.3	Lose2	1.0	0.004	Yes	2.784	-0.004	1.0	GoodResponse	0	0.23	n/a	0	1	ButtonPress	AvoidedLoss	True
24.963	0.31	Lose2	1.0	n/a	Yes	2.784	n/a	n/a	GoodResponse	0	n/a	n/a	0	1	Blank	AvoidedLoss	True
25.264	1.45	Lose2	1.0	n/a	Yes	2.784	n/a	5.0	GoodResponse	0	0.028	24.292	0	1	Feedback	AvoidedLoss	True
26.718	2.784	Lose2	1.0	n/a	Yes	2.784	n/a	n/a	GoodResponse	0	0.0	n/a	0	1	ISIslide	AvoidedLoss	True
29.527	0.25	Control	1.0	0.0	Yes	2.573	0.027	n/a	GoodResponse	0	n/a	n/a	0	2	Cue	Neutral	True
29.777	4.1	Control	1.0	0.0	Yes	2.573	0.0	n/a	GoodResponse	0	n/a	n/a	0	2	Fixation	Neutral	True
33.873	0.38	Control	1.0	0.004	Yes	2.573	-0.004	1.0	GoodResponse	0	0.287	33.16	0	2	Target	Neutral	True
34.16	0.3	Control	1.0	0.004	Yes	2.573	-0.004	1.0	GoodResponse	0	0.287	n/a	0	2	ButtonPress	Neutral	True
34.257	0.32	Control	1.0	n/a	Yes	2.573	n/a	n/a	GoodResponse	0	n/a	n/a	0	2	Blank	Neutral	True
34.575	1.45	Control	1.0	n/a	Yes	2.573	n/a	5.0	GoodResponse	0	0.034	33.609	0	2	Feedback	Neutral	True
36.029	2.573	Control	1.0	n/a	Yes	2.573	n/a	n/a	GoodResponse	0	0.0	n/a	0	2	ISIslide	Neutral	True
38.62	0.25	Win2	0.75	0.0	No	2.83	0.02	n/a	NoResponse	0	n/a	n/a	0	3	Cue	MissedWin	True
38.871	3.95	Win2	0.75	0.0	No	2.83	0.001	n/a	NoResponse	0	n/a	n/a	0	3	Fixation	MissedWin	True
42.816	0.37	Win2	0.75	0.004	No	2.83	-0.004	1.0	NoResponse	0	0.422	42.238	0	3	Target	MissedWin	True
43.201	0.33	Win2	0.75	n/a	No	2.83	n/a	n/a	NoResponse	0	n/a	n/a	0	3	Blank	MissedWin	True
43.238	0.3	Win2	0.75	0.004	No	2.83	-0.004	1.0	NoResponse	0	0.422	n/a	0	3	ButtonPress	MissedWin	True
43.518	1.45	Win2	0.75	n/a	No	2.83	n/a	5.0	NoResponse	0	0.018	42.536	0	3	Feedback	MissedWin	True
44.973	2.83	Win2	0.75	n/a	No	2.83	n/a	n/a	NoResponse	0	0.0	n/a	0	3	ISIslide	MissedWin	True
47.831	0.25	Win2	0.8	0.0	Yes	3.269	0.031	n/a	GoodResponse	1	n/a	n/a	1	4	Cue	Win	True
48.082	4.0	Win2	0.8	0.0	Yes	3.269	0.001	n/a	GoodResponse	1	n/a	n/a	1	4	Fixation	Win	True
52.077	0.36	Win2	0.8	0.004	Yes	3.269	-0.004	1.0	GoodResponse	1	0.231	51.308	1	4	Target	Win	True
52.308	0.3	Win2	0.8	0.004	Yes	3.269	-0.004	1.0	GoodResponse	1	0.231	n/a	1	4	ButtonPress	Win	True
52.445	0.34	Win2	0.8	n/a	Yes	3.269	n/a	n/a	GoodResponse	1	n/a	n/a	1	4	Blank	Win	True
52.779	1.45	Win2	0.8	n/a	Yes	3.269	n/a	5.0	GoodResponse	1	0.025	51.804	1	4	Feedback	Win	True
54.234	3.269	Win2	0.8	n/a	Yes	3.269	n/a	n/a	GoodResponse	1	0.0	n/a	1	4	ISIslide	Win	True
57.527	0.25	Win2	0.8332999999999999	0.0	Yes	2.773	0.027	n/a	GoodResponse	1	n/a	n/a	2	5	Cue	Win	True
57.778	4.0	Win2	0.8332999999999999	0.0	Yes	2.773	0.001	n/a	GoodResponse	1	n/a	n/a	2	5	Fixation	Win	True
61.773	0.35	Win2	0.8332999999999999	0.004	Yes	2.773	-0.004	1.0	GoodResponse	1	0.207	60.98	2	5	Target	Win	True
61.98	0.3	Win2	0.8332999999999999	0.004	Yes	2.773	-0.004	1.0	GoodResponse	1	0.207	n/a	2	5	ButtonPress	Win	True
62.124	0.35	Win2	0.8332999999999999	n/a	Yes	2.773	n/a	n/a	GoodResponse	1	n/a	n/a	2	5	Blank	Win	True
62.475	1.45	Win2	0.8332999999999999	n/a	Yes	2.773	n/a	5.0	GoodResponse	1	0.035	61.51	2	5	Feedback	Win	True
63.929	2.773	Win2	0.8332999999999999	n/a	Yes	2.773	n/a	n/a	GoodResponse	1	0.0	n/a	2	5	ISIslide	Win	True
66.721	0.25	Lose2	0.8571	0.0	Yes	2.729	0.021	n/a	GoodResponse	0	n/a	n/a	2	6	Cue	AvoidedLoss	True
66.972	3.95	Lose2	0.8571	0.0	Yes	2.729	0.001	n/a	GoodResponse	0	n/a	n/a	2	6	Fixation	AvoidedLoss	True
70.917	0.34	Lose2	0.8571	0.004	Yes	2.729	-0.004	1.0	GoodResponse	0	0.229	70.146	2	6	Target	AvoidedLoss	True
71.146	0.3	Lose2	0.8571	0.004	Yes	2.729	-0.004	1.0	GoodResponse	0	0.229	n/a	2	6	ButtonPress	AvoidedLoss	True
71.268	0.36	Lose2	0.8571	n/a	Yes	2.729	n/a	n/a	GoodResponse	0	n/a	n/a	2	6	Blank	AvoidedLoss	True
71.619	1.45	Lose2	0.8571	n/a	Yes	2.729	n/a	5.0	GoodResponse	0	0.014	70.633	2	6	Feedback	AvoidedLoss	True
73.073	2.729	Lose2	0.8571	n/a	Yes	2.729	n/a	n/a	GoodResponse	0	0.0	n/a	2	6	ISIslide	AvoidedLoss	True
75.832	0.25	Lose2	0.875	0.0	Yes	4.018	0.032	n/a	GoodResponse	0	n/a	n/a	2	7	Cue	AvoidedLoss	True
76.082	4.05	Lose2	0.875	0.0	Yes	4.018	0.0	n/a	GoodResponse	0	n/a	n/a	2	7	Fixation	AvoidedLoss	True
80.128	0.33	Lose2	0.875	0.004	Yes	4.018	-0.004	1.0	GoodResponse	0	0.211	79.339	2	7	Target	AvoidedLoss	True
80.339	0.3	Lose2	0.875	0.004	Yes	4.018	-0.004	1.0	GoodResponse	0	0.211	n/a	2	7	ButtonPress	AvoidedLoss	True
80.462	0.37	Lose2	0.875	n/a	Yes	4.018	n/a	n/a	GoodResponse	0	n/a	n/a	2	7	Blank	AvoidedLoss	True
80.83	1.45	Lose2	0.875	n/a	Yes	4.018	n/a	5.0	GoodResponse	0	0.022	79.852	2	7	Feedback	AvoidedLoss	True
82.284	4.018	Lose2	0.875	n/a	Yes	4.018	n/a	n/a	GoodResponse	0	0.0	n/a	2	7	ISIslide	AvoidedLoss	True
86.33	0.25	Lose2	0.8889	0.0	Yes	3.02	0.03	n/a	GoodResponse	0	n/a	n/a	2	8	Cue	AvoidedLoss	True
86.58	3.95	Lose2	0.8889	0.0	Yes	3.02	0.0	n/a	GoodResponse	0	n/a	n/a	2	8	Fixation	AvoidedLoss	True
90.542	0.32	Lose2	0.8889	0.0	Yes	3.02	0.012	1.0	GoodResponse	0	0.304	89.846	2	8	Target	AvoidedLoss	True
90.846	0.3	Lose2	0.8889	0.0	Yes	3.02	0.012	1.0	GoodResponse	0	0.304	n/a	2	8	ButtonPress	AvoidedLoss	True
90.86	0.38	Lose2	0.8889	n/a	Yes	3.02	n/a	n/a	GoodResponse	0	n/a	n/a	2	8	Blank	AvoidedLoss	True
91.228	1.45	Lose2	0.8889	n/a	Yes	3.02	n/a	5.0	GoodResponse	0	0.015	90.243	2	8	Feedback	AvoidedLoss	True
92.682	3.02	Lose2	0.8889	n/a	Yes	3.02	n/a	n/a	GoodResponse	0	0.0	n/a	2	8	ISIslide	AvoidedLoss	True
95.724	0.25	Lose2	0.9	0.0	Yes	3.126	0.024	n/a	GoodResponse	0	n/a	n/a	2	9	Cue	AvoidedLoss	True
95.975	3.95	Lose2	0.9	0.0	Yes	3.126	0.001	n/a	GoodResponse	0	n/a	n/a	2	9	Fixation	AvoidedLoss	True
99.92	0.31	Lose2	0.9	0.004	Yes	3.126	-0.004	1.0	GoodResponse	0	0.219	99.139	2	9	Target	AvoidedLoss	True
100.139	0.3	Lose2	0.9	0.004	Yes	3.126	-0.004	1.0	GoodResponse	0	0.219	n/a	2	9	ButtonPress	AvoidedLoss	True
100.238	0.39	Lose2	0.9	n/a	Yes	3.126	n/a	n/a	GoodResponse	0	n/a	n/a	2	9	Blank	AvoidedLoss	True
100.622	1.45	Lose2	0.9	n/a	Yes	3.126	n/a	5.0	GoodResponse	0	0.034	99.656	2	9	Feedback	AvoidedLoss	True
102.077	3.126	Lose2	0.9	n/a	Yes	3.126	n/a	n/a	GoodResponse	0	0.0	n/a	2	9	ISIslide	AvoidedLoss	True
105.219	0.25	Control	0.9091	0.0	Yes	3.281	0.019	n/a	GoodResponse	0	n/a	n/a	2	10	Cue	Neutral	True
105.47	4.0	Control	0.9091	0.0	Yes	3.281	0.001	n/a	GoodResponse	0	n/a	n/a	2	10	Fixation	Neutral	True
109.465	0.3	Control	0.9091	0.004	Yes	3.281	-0.004	1.0	GoodResponse	0	0.191	108.656	2	10	Target	Neutral	True
109.656	0.3	Control	0.9091	0.004	Yes	3.281	-0.004	1.0	GoodResponse	0	0.191	n/a	2	10	ButtonPress	Neutral	True
109.766	0.4	Control	0.9091	n/a	Yes	3.281	n/a	n/a	GoodResponse	0	n/a	n/a	2	10	Blank	Neutral	True
110.167	1.45	Control	0.9091	n/a	Yes	3.281	n/a	5.0	GoodResponse	0	0.002	109.169	2	10	Feedback	Neutral	True
111.622	3.281	Control	0.9091	n/a	Yes	3.281	n/a	n/a	GoodResponse	0	0.0	n/a	2	10	ISIslide	Neutral	True
114.915	0.25	Lose2	0.9167000000000001	0.0	Yes	2.735	0.015	n/a	GoodResponse	0	n/a	n/a	2	11	Cue	AvoidedLoss	True
115.166	4.05	Lose2	0.9167000000000001	0.0	Yes	2.735	0.001	n/a	GoodResponse	0	n/a	n/a	2	11	Fixation	AvoidedLoss	True
119.211	0.29	Lose2	0.9167000000000001	0.004	Yes	2.735	-0.004	1.0	GoodResponse	0	0.258	118.469	2	11	Target	AvoidedLoss	True
119.469	0.3	Lose2	0.9167000000000001	0.004	Yes	2.735	-0.004	1.0	GoodResponse	0	0.258	n/a	2	11	ButtonPress	AvoidedLoss	True
119.512	0.41	Lose2	0.9167000000000001	n/a	Yes	2.735	n/a	n/a	GoodResponse	0	n/a	n/a	2	11	Blank	AvoidedLoss	True
119.913	1.45	Lose2	0.9167000000000001	n/a	Yes	2.735	n/a	5.0	GoodResponse	0	0.012	118.925	2	11	Feedback	AvoidedLoss	True
121.368	2.735	Lose2	0.9167000000000001	n/a	Yes	2.735	n/a	n/a	GoodResponse	0	0.0	n/a	2	11	ISIslide	AvoidedLoss	True
124.126	0.25	Control	0.9231	0.0	Yes	2.974	0.026	n/a	GoodResponse	0	n/a	n/a	2	12	Cue	Neutral	True
124.376	3.9	Control	0.9231	0.001	Yes	2.974	0.0	n/a	GoodResponse	0	n/a	n/a	2	12	Fixation	Neutral	True
128.271	0.28	Control	0.9231	0.005	Yes	2.974	-0.005	1.0	GoodResponse	0	0.23	127.501	2	12	Target	Neutral	True
128.501	0.3	Control	0.9231	0.005	Yes	2.974	-0.005	1.0	GoodResponse	0	0.23	n/a	2	12	ButtonPress	Neutral	True
128.556	0.42	Control	0.9231	n/a	Yes	2.974	n/a	n/a	GoodResponse	0	n/a	n/a	2	12	Blank	Neutral	True
128.974	1.45	Control	0.9231	n/a	Yes	2.974	n/a	5.0	GoodResponse	0	0.024	127.998	2	12	Feedback	Neutral	True
130.428	2.974	Control	0.9231	n/a	Yes	2.974	n/a	n/a	GoodResponse	0	0.0	n/a	2	12	ISIslide	Neutral	True
133.42	0.25	Control	0.9286	0.0	Yes	2.78	0.02	n/a	GoodResponse	0	n/a	n/a	2	13	Cue	Neutral	True
133.671	4.0	Control	0.9286	0.0	Yes	2.78	0.001	n/a	GoodResponse	0	n/a	n/a	2	13	Fixation	Neutral	True
137.666	0.27	Control	0.9286	0.004	Yes	2.78	-0.004	1.0	GoodResponse	0	0.228	136.894	2	13	Target	Neutral	True
137.894	0.3	Control	0.9286	0.004	Yes	2.78	-0.004	1.0	GoodResponse	0	0.228	n/a	2	13	ButtonPress	Neutral	True
137.95	0.43	Control	0.9286	n/a	Yes	2.78	n/a	n/a	GoodResponse	0	n/a	n/a	2	13	Blank	Neutral	True
138.368	1.45	Control	0.9286	n/a	Yes	2.78	n/a	5.0	GoodResponse	0	0.044	137.412	2	13	Feedback	Neutral	True
139.823	2.78	Control	0.9286	n/a	Yes	2.78	n/a	n/a	GoodResponse	0	0.0	n/a	2	13	ISIslide	Neutral	True
142.631	0.25	Win2	0.9333	0.0	Yes	2.669	0.031	n/a	GoodResponse	1	n/a	n/a	3	14	Cue	Win	True
142.882	4.1	Win2	0.9333	0.0	Yes	2.669	0.001	n/a	GoodResponse	1	n/a	n/a	3	14	Fixation	Win	True
146.977	0.26	Win2	0.9333	0.004	Yes	2.669	-0.004	1.0	GoodResponse	1	0.222	146.199	3	14	Target	Win	True
147.199	0.3	Win2	0.9333	0.004	Yes	2.669	-0.004	1.0	GoodResponse	1	0.222	n/a	3	14	ButtonPress	Win	True
147.245	0.44	Win2	0.9333	n/a	Yes	2.669	n/a	n/a	GoodResponse	1	n/a	n/a	3	14	Blank	Win	True
147.679	1.45	Win2	0.9333	n/a	Yes	2.669	n/a	5.0	GoodResponse	1	0.001	146.68	3	14	Feedback	Win	True
149.134	2.669	Win2	0.9333	n/a	Yes	2.669	n/a	n/a	GoodResponse	1	0.0	n/a	3	14	ISIslide	Win	True
151.825	0.25	Control	0.875	0.0	No	2.975	0.025	n/a	NoResponse	0	n/a	n/a	3	15	Cue	Neutral	True
152.076	4.0	Control	0.875	0.0	No	2.975	0.001	n/a	NoResponse	0	n/a	n/a	3	15	Fixation	Neutral	True
156.071	0.25	Control	0.875	0.004	No	2.975	-0.004	1.0	NoResponse	0	0.261	155.332	3	15	Target	Neutral	True
156.322	0.45	Control	0.875	n/a	No	2.975	n/a	n/a	NoResponse	0	n/a	n/a	3	15	Blank	Neutral	True
156.332	0.3	Control	0.875	0.004	No	2.975	-0.004	1.0	NoResponse	0	0.261	n/a	3	15	ButtonPress	Neutral	True
156.773	1.45	Control	0.875	n/a	No	2.975	n/a	5.0	NoResponse	0	0.029	155.802	3	15	Feedback	Neutral	True
158.228	2.975	Control	0.875	n/a	No	2.975	n/a	n/a	NoResponse	0	0.0	n/a	3	15	ISIslide	Neutral	True
161.22	0.25	Win2	0.8824	0.0	Yes	2.88	0.02	n/a	GoodResponse	1	n/a	n/a	4	16	Cue	Win	True
161.471	4.0	Win2	0.8824	0.0	Yes	2.88	0.001	n/a	GoodResponse	1	n/a	n/a	4	16	Fixation	Win	True
165.466	0.24	Win2	0.8824	0.004	Yes	2.88	-0.004	1.0	GoodResponse	1	0.237	164.703	4	16	Target	Win	True
165.703	0.3	Win2	0.8824	0.004	Yes	2.88	-0.004	1.0	GoodResponse	1	0.237	n/a	4	16	ButtonPress	Win	True
165.717	0.46	Win2	0.8824	n/a	Yes	2.88	n/a	n/a	GoodResponse	1	n/a	n/a	4	16	Blank	Win	True
166.168	1.45	Win2	0.8824	n/a	Yes	2.88	n/a	5.0	GoodResponse	1	0.049	165.217	4	16	Feedback	Win	True
167.622	2.88	Win2	0.8824	n/a	Yes	2.88	n/a	n/a	GoodResponse	1	0.0	n/a	4	16	ISIslide	Win	True
170.531	0.25	Lose2	0.8889	0.0	Yes	2.719	0.031	n/a	GoodResponse	0	n/a	n/a	4	17	Cue	AvoidedLoss	True
170.782	3.95	Lose2	0.8889	0.0	Yes	2.719	0.001	n/a	GoodResponse	0	n/a	n/a	4	17	Fixation	AvoidedLoss	True
174.727	0.23	Lose2	0.8889	0.004	Yes	2.719	-0.004	1.0	GoodResponse	0	0.21	173.937	4	17	Target	AvoidedLoss	True
174.937	0.3	Lose2	0.8889	0.004	Yes	2.719	-0.004	1.0	GoodResponse	0	0.21	n/a	4	17	ButtonPress	AvoidedLoss	True
174.961	0.47	Lose2	0.8889	n/a	Yes	2.719	n/a	n/a	GoodResponse	0	n/a	n/a	4	17	Blank	AvoidedLoss	True
175.429	1.45	Lose2	0.8889	n/a	Yes	2.719	n/a	5.0	GoodResponse	0	0.007	174.436	4	17	Feedback	AvoidedLoss	True
176.883	2.719	Lose2	0.8889	n/a	Yes	2.719	n/a	n/a	GoodResponse	0	0.0	n/a	4	17	ISIslide	AvoidedLoss	True
179.625	0.25	Lose2	0.8421	0.0	No	2.725	0.025	n/a	NoResponse	-1	n/a	n/a	3	18	Cue	Loss	True
179.876	4.05	Lose2	0.8421	0.0	No	2.725	0.001	n/a	NoResponse	-1	n/a	n/a	3	18	Fixation	Loss	True
183.921	0.22	Lose2	0.8421	0.004	No	2.725	-0.004	1.0	NoResponse	-1	0.25	183.171	3	18	Target	Loss	True
184.155	0.48	Lose2	0.8421	n/a	No	2.725	n/a	n/a	NoResponse	-1	n/a	n/a	3	18	Blank	Loss	True
184.171	0.3	Lose2	0.8421	0.004	No	2.725	-0.004	1.0	NoResponse	-1	0.25	n/a	3	18	ButtonPress	Loss	True
184.623	1.45	Lose2	0.8421	n/a	No	2.725	n/a	5.0	NoResponse	-1	0.032	183.655	3	18	Feedback	Loss	True
186.077	2.725	Lose2	0.8421	n/a	No	2.725	n/a	n/a	NoResponse	-1	0.0	n/a	3	18	ISIslide	Loss	True
188.819	0.25	Control	0.8	0.0	No	2.931	0.019	n/a	NoResponse	0	n/a	n/a	3	19	Cue	Neutral	True
189.07	3.95	Control	0.8	0.0	No	2.931	0.001	n/a	NoResponse	0	n/a	n/a	3	19	Fixation	Neutral	True
193.015	0.21	Control	0.8	0.004	No	2.931	-0.004	1.0	NoResponse	0	0.248	192.263	3	19	Target	Neutral	True
193.232	0.49	Control	0.8	n/a	No	2.931	n/a	n/a	NoResponse	0	n/a	n/a	3	19	Blank	Neutral	True
193.263	0.3	Control	0.8	0.004	No	2.931	-0.004	1.0	NoResponse	0	0.248	n/a	3	19	ButtonPress	Neutral	True
193.717	1.45	Control	0.8	n/a	No	2.931	n/a	5.0	NoResponse	0	0.011	192.728	3	19	Feedback	Neutral	True
195.171	2.931	Control	0.8	n/a	No	2.931	n/a	n/a	NoResponse	0	0.0	n/a	3	19	ISIslide	Neutral	True
198.13	0.25	Control	0.7619	0.0	No	2.62	0.03	n/a	NoResponse	0	n/a	n/a	3	20	Cue	Neutral	True
198.381	4.05	Control	0.7619	0.0	No	2.62	0.001	n/a	NoResponse	0	n/a	n/a	3	20	Fixation	Neutral	True
202.426	0.2	Control	0.7619	0.004	No	2.62	-0.004	1.0	NoResponse	0	0.222	201.648	3	20	Target	Neutral	True
202.627	0.5	Control	0.7619	n/a	No	2.62	n/a	n/a	NoResponse	0	n/a	n/a	3	20	Blank	Neutral	True
202.648	0.3	Control	0.7619	0.004	No	2.62	-0.004	1.0	NoResponse	0	0.222	n/a	3	20	ButtonPress	Neutral	True
203.128	1.45	Control	0.7619	n/a	No	2.62	n/a	5.0	NoResponse	0	0.015	202.143	3	20	Feedback	Neutral	True
204.583	2.62	Control	0.7619	n/a	No	2.62	n/a	n/a	NoResponse	0	0.0	n/a	3	20	ISIslide	Neutral	True
207.224	0.25	Control	0.7273000000000001	0.0	No	2.776	0.024	n/a	NoResponse	0	n/a	n/a	3	21	Cue	Neutral	True
207.475	4.1	Control	0.7273000000000001	0.0	No	2.776	0.001	1.0	NoResponse	0	4.029	210.504	3	21	Fixation	Neutral	True
211.504	0.3	Control	0.7273000000000001	0.0	No	2.776	0.001	1.0	NoResponse	0	4.029	n/a	3	21	ButtonPress	Neutral	True
211.57	0.19	Control	0.7273000000000001	0.004	No	2.776	-0.004	n/a	NoResponse	0	n/a	n/a	3	21	Target	Neutral	True
211.771	0.51	Control	0.7273000000000001	n/a	No	2.776	n/a	n/a	NoResponse	0	n/a	n/a	3	21	Blank	Neutral	True
212.272	1.45	Control	0.7273000000000001	n/a	No	2.776	n/a	5.0	NoResponse	0	0.041	211.313	3	21	Feedback	Neutral	True
213.727	2.776	Control	0.7273000000000001	n/a	No	2.776	n/a	n/a	NoResponse	0	0.0	n/a	3	21	ISIslide	Neutral	True
216.518	0.25	Control	0.6957	0.0	No	2.782	0.018	n/a	NoResponse	0	n/a	n/a	3	22	Cue	Neutral	True
216.769	4.0	Control	0.6957	0.0	No	2.782	0.001	n/a	NoResponse	0	n/a	n/a	3	22	Fixation	Neutral	True
220.764	0.18	Control	0.6957	0.004	No	2.782	-0.004	1.0	NoResponse	0	0.271	220.035	3	22	Target	Neutral	True
220.948	0.52	Control	0.6957	n/a	No	2.782	n/a	n/a	NoResponse	0	n/a	n/a	3	22	Blank	Neutral	True
221.035	0.3	Control	0.6957	0.004	No	2.782	-0.004	1.0	NoResponse	0	0.271	n/a	3	22	ButtonPress	Neutral	True
221.466	1.45	Control	0.6957	n/a	No	2.782	n/a	5.0	NoResponse	0	0.018	220.484	3	22	Feedback	Neutral	True
222.921	2.782	Control	0.6957	n/a	No	2.782	n/a	n/a	NoResponse	0	0.0	n/a	3	22	ISIslide	Neutral	True
225.729	0.25	Control	0.6667000000000001	0.0	No	2.771	0.029	n/a	NoResponse	0	n/a	n/a	3	23	Cue	Neutral	True
225.98	3.9	Control	0.6667000000000001	0.0	No	2.771	0.001	n/a	NoResponse	0	n/a	n/a	3	23	Fixation	Neutral	True
229.875	0.17	Control	0.6667000000000001	0.004	No	2.771	-0.004	1.0	NoResponse	0	0.249	229.124	3	23	Target	Neutral	True
230.059	0.53	Control	0.6667000000000001	n/a	No	2.771	n/a	n/a	NoResponse	0	n/a	n/a	3	23	Blank	Neutral	True
230.124	0.3	Control	0.6667000000000001	0.004	No	2.771	-0.004	1.0	NoResponse	0	0.249	n/a	3	23	ButtonPress	Neutral	True
230.577	1.45	Control	0.6667000000000001	n/a	No	2.771	n/a	5.0	NoResponse	0	0.029	229.606	3	23	Feedback	Neutral	True
232.031	2.771	Control	0.6667000000000001	n/a	No	2.771	n/a	n/a	NoResponse	0	0.0	n/a	3	23	ISIslide	Neutral	True
234.823	0.25	Win2	0.64	0.0	No	3.127	0.023	n/a	NoResponse	0	n/a	n/a	3	24	Cue	MissedWin	True
235.074	3.95	Win2	0.64	0.0	No	3.127	0.001	n/a	NoResponse	0	n/a	n/a	3	24	Fixation	MissedWin	True
239.019	0.16	Win2	0.64	0.004	No	3.127	-0.004	1.0	NoResponse	0	0.223	238.242	3	24	Target	MissedWin	True
239.186	0.54	Win2	0.64	n/a	No	3.127	n/a	n/a	NoResponse	0	n/a	n/a	3	24	Blank	MissedWin	True
239.242	0.3	Win2	0.64	0.004	No	3.127	-0.004	1.0	NoResponse	0	0.223	n/a	3	24	ButtonPress	MissedWin	True
239.721	1.45	Win2	0.64	n/a	No	3.127	n/a	5.0	NoResponse	0	0.007	238.728	3	24	Feedback	MissedWin	True
241.175	3.127	Win2	0.64	n/a	No	3.127	n/a	n/a	NoResponse	0	0.0	n/a	3	24	ISIslide	MissedWin	True
244.318	0.25	Win2	0.6154	0.0	No	3.082	0.018	n/a	NoResponse	0	n/a	n/a	3	25	Cue	MissedWin	True
244.569	4.0	Win2	0.6154	0.0	No	3.082	0.001	n/a	NoResponse	0	n/a	n/a	3	25	Fixation	MissedWin	True
248.564	0.17	Win2	0.6154	0.004	No	3.082	-0.004	1.0	NoResponse	0	0.2	247.764	3	25	Target	MissedWin	True
248.748	0.53	Win2	0.6154	n/a	No	3.082	n/a	n/a	NoResponse	0	n/a	n/a	3	25	Blank	MissedWin	True
248.764	0.3	Win2	0.6154	0.004	No	3.082	-0.004	1.0	NoResponse	0	0.2	n/a	3	25	ButtonPress	MissedWin	True
249.266	1.45	Win2	0.6154	n/a	No	3.082	n/a	5.0	NoResponse	0	0.022	248.288	3	25	Feedback	MissedWin	True
250.72	3.082	Win2	0.6154	n/a	No	3.082	n/a	n/a	NoResponse	0	0.0	n/a	3	25	ISIslide	MissedWin	True
253.83	0.25	Win2	0.5926	0.0	No	2.92	0.03	n/a	NoResponse	0	n/a	n/a	3	26	Cue	MissedWin	True
254.081	3.95	Win2	0.5926	0.0	No	2.92	0.001	n/a	NoResponse	0	n/a	n/a	3	26	Fixation	MissedWin	True
258.026	0.18	Win2	0.5926	0.004	No	2.92	-0.004	1.0	NoResponse	0	0.191	257.217	3	26	Target	MissedWin	True
258.21	0.52	Win2	0.5926	n/a	No	2.92	n/a	n/a	NoResponse	0	n/a	n/a	3	26	Blank	MissedWin	True
258.217	0.3	Win2	0.5926	0.004	No	2.92	-0.004	1.0	NoResponse	0	0.191	n/a	3	26	ButtonPress	MissedWin	True
258.728	1.45	Win2	0.5926	n/a	No	2.92	n/a	5.0	NoResponse	0	0.024	257.752	3	26	Feedback	MissedWin	True
260.182	2.92	Win2	0.5926	n/a	No	2.92	n/a	n/a	NoResponse	0	0.0	n/a	3	26	ISIslide	MissedWin	True
263.124	0.25	Lose2	0.5714	0.0	No	2.826	0.024	n/a	NoResponse	-1	n/a	n/a	2	27	Cue	Loss	True
263.375	4.05	Lose2	0.5714	0.0	No	2.826	0.001	n/a	NoResponse	-1	n/a	n/a	2	27	Fixation	Loss	True
267.42	0.19	Lose2	0.5714	0.004	No	2.826	-0.004	1.0	NoResponse	-1	0.208	266.628	2	27	Target	Loss	True
267.621	0.51	Lose2	0.5714	n/a	No	2.826	n/a	n/a	NoResponse	-1	n/a	n/a	2	27	Blank	Loss	True
267.628	0.3	Lose2	0.5714	0.004	No	2.826	-0.004	1.0	NoResponse	-1	0.208	n/a	2	27	ButtonPress	Loss	True
268.122	1.45	Lose2	0.5714	n/a	No	2.826	n/a	5.0	NoResponse	-1	0.044	267.166	2	27	Feedback	Loss	True
269.577	2.826	Lose2	0.5714	n/a	No	2.826	n/a	n/a	NoResponse	-1	0.0	n/a	2	27	ISIslide	Loss	True
272.419	0.25	Control	0.5517	0.0	No	2.831	0.019	n/a	NoResponse	0	n/a	n/a	2	28	Cue	Neutral	True
272.669	4.05	Control	0.5517	0.0	No	2.831	0.0	n/a	NoResponse	0	n/a	n/a	2	28	Fixation	Neutral	True
276.715	0.2	Control	0.5517	0.004	No	2.831	-0.004	1.0	NoResponse	0	0.205	275.92	2	28	Target	Neutral	True
276.915	0.5	Control	0.5517	n/a	No	2.831	n/a	n/a	NoResponse	0	n/a	n/a	2	28	Blank	Neutral	True
276.92	0.3	Control	0.5517	0.004	No	2.831	-0.004	1.0	NoResponse	0	0.205	n/a	2	28	ButtonPress	Neutral	True
277.417	1.45	Control	0.5517	n/a	No	2.831	n/a	5.0	NoResponse	0	0.018	276.435	2	28	Feedback	Neutral	True
278.871	2.831	Control	0.5517	n/a	No	2.831	n/a	n/a	NoResponse	0	0.0	n/a	2	28	ISIslide	Neutral	True
281.73	0.25	Lose2	0.5333	0.0	No	2.82	0.03	n/a	PrematurePress	-1	n/a	n/a	1	29	Cue	Loss	False
281.981	3.95	Lose2	0.5333	0.0	No	2.82	0.001	1.0	PrematurePress	-1	3.429	284.41	1	29	Fixation	Loss	False
285.41	0.3	Lose2	0.5333	0.0	No	2.82	0.001	1.0	PrematurePress	-1	3.429	n/a	1	29	ButtonPress	Loss	False
285.926	0.21	Lose2	0.5333	0.004	No	2.82	-0.004	1.0	PrematurePress	-1	0.05	284.976	1	29	Target	Loss	False
285.976	0.3	Lose2	0.5333	0.004	No	2.82	-0.004	1.0	PrematurePress	-1	0.05	n/a	1	29	ButtonPress	Loss	False
286.143	0.49	Lose2	0.5333	n/a	No	2.82	n/a	n/a	PrematurePress	-1	n/a	n/a	1	29	Blank	Loss	False
286.628	1.45	Lose2	0.5333	n/a	No	2.82	n/a	5.0	PrematurePress	-1	0.025	285.653	1	29	Feedback	Loss	False
288.082	2.82	Lose2	0.5333	n/a	No	2.82	n/a	n/a	PrematurePress	-1	0.0	n/a	1	29	ISIslide	Loss	False
290.924	0.25	Win2	0.5484	0.0	Yes	2.776	0.024	n/a	GoodResponse	1	n/a	n/a	2	30	Cue	Win	True
291.175	3.9	Win2	0.5484	0.0	Yes	2.776	0.001	n/a	GoodResponse	1	n/a	n/a	2	30	Fixation	Win	True
295.07	0.22	Win2	0.5484	0.004	Yes	2.776	-0.004	1.0	GoodResponse	1	0.203	294.273	2	30	Target	Win	True
295.273	0.3	Win2	0.5484	0.004	Yes	2.776	-0.004	1.0	GoodResponse	1	0.203	n/a	2	30	ButtonPress	Win	True
295.304	0.48	Win2	0.5484	n/a	Yes	2.776	n/a	n/a	GoodResponse	1	n/a	n/a	2	30	Blank	Win	True
295.772	1.45	Win2	0.5484	n/a	Yes	2.776	n/a	5.0	GoodResponse	1	0.006	294.778	2	30	Feedback	Win	True
297.226	2.776	Win2	0.5484	n/a	Yes	2.776	n/a	n/a	GoodResponse	1	0.0	n/a	2	30	ISIslide	Win	True
300.018	0.25	Lose2	0.5625	0.0	Yes	2.832	0.018	n/a	GoodResponse	0	n/a	n/a	2	31	Cue	AvoidedLoss	True
300.268	4.05	Lose2	0.5625	0.001	Yes	2.832	0.0	n/a	GoodResponse	0	n/a	n/a	2	31	Fixation	AvoidedLoss	True
304.314	0.23	Lose2	0.5625	0.004	Yes	2.832	-0.004	1.0	GoodResponse	0	0.215	303.529	2	31	Target	AvoidedLoss	True
304.529	0.3	Lose2	0.5625	0.004	Yes	2.832	-0.004	1.0	GoodResponse	0	0.215	n/a	2	31	ButtonPress	AvoidedLoss	True
304.548	0.47	Lose2	0.5625	n/a	Yes	2.832	n/a	n/a	GoodResponse	0	n/a	n/a	2	31	Blank	AvoidedLoss	True
305.016	1.45	Lose2	0.5625	n/a	Yes	2.832	n/a	5.0	GoodResponse	0	0.028	304.044	2	31	Feedback	AvoidedLoss	True
306.47	2.832	Lose2	0.5625	n/a	Yes	2.832	n/a	n/a	GoodResponse	0	0.0	n/a	2	31	ISIslide	AvoidedLoss	True
309.329	0.25	Lose2	0.5758	0.0	Yes	2.621	0.029	n/a	GoodResponse	0	n/a	n/a	2	32	Cue	AvoidedLoss	True
309.58	4.15	Lose2	0.5758	0.0	Yes	2.621	0.001	n/a	GoodResponse	0	n/a	n/a	2	32	Fixation	AvoidedLoss	True
313.725	0.24	Lose2	0.5758	0.004	Yes	2.621	-0.004	1.0	GoodResponse	0	0.218	312.943	2	32	Target	AvoidedLoss	True
313.943	0.3	Lose2	0.5758	0.004	Yes	2.621	-0.004	1.0	GoodResponse	0	0.218	n/a	2	32	ButtonPress	AvoidedLoss	True
313.976	0.46	Lose2	0.5758	n/a	Yes	2.621	n/a	n/a	GoodResponse	0	n/a	n/a	2	32	Blank	AvoidedLoss	True
314.427	1.45	Lose2	0.5758	n/a	Yes	2.621	n/a	5.0	GoodResponse	0	0.031	313.458	2	32	Feedback	AvoidedLoss	True
315.882	2.621	Lose2	0.5758	n/a	Yes	2.621	n/a	n/a	GoodResponse	0	0.0	n/a	2	32	ISIslide	AvoidedLoss	True
318.523	0.25	Win2	0.5882000000000001	0.0	Yes	2.677	0.023	n/a	GoodResponse	1	n/a	n/a	3	33	Cue	Win	True
318.774	4.0	Win2	0.5882000000000001	0.0	Yes	2.677	0.001	n/a	GoodResponse	1	n/a	n/a	3	33	Fixation	Win	True
322.769	0.25	Win2	0.5882000000000001	0.004	Yes	2.677	-0.004	1.0	GoodResponse	1	0.215	321.984	3	33	Target	Win	True
322.984	0.3	Win2	0.5882000000000001	0.004	Yes	2.677	-0.004	1.0	GoodResponse	1	0.215	n/a	3	33	ButtonPress	Win	True
323.02	0.45	Win2	0.5882000000000001	n/a	Yes	2.677	n/a	n/a	GoodResponse	1	n/a	n/a	3	33	Blank	Win	True
323.471	1.45	Win2	0.5882000000000001	n/a	Yes	2.677	n/a	5.0	GoodResponse	1	0.011	322.482	3	33	Feedback	Win	True
324.925	2.677	Win2	0.5882000000000001	n/a	Yes	2.677	n/a	n/a	GoodResponse	1	0.0	n/a	3	33	ISIslide	Win	True
327.617	0.25	Lose2	0.6	0.0	Yes	2.633	0.017	n/a	GoodResponse	0	n/a	n/a	3	34	Cue	AvoidedLoss	True
327.868	4.05	Lose2	0.6	0.0	Yes	2.633	0.001	n/a	GoodResponse	0	n/a	n/a	3	34	Fixation	AvoidedLoss	True
331.913	0.26	Lose2	0.6	0.004	Yes	2.633	-0.004	1.0	GoodResponse	0	0.245	331.158	3	34	Target	AvoidedLoss	True
332.158	0.3	Lose2	0.6	0.004	Yes	2.633	-0.004	1.0	GoodResponse	0	0.245	n/a	3	34	ButtonPress	AvoidedLoss	True
332.18	0.44	Lose2	0.6	n/a	Yes	2.633	n/a	n/a	GoodResponse	0	n/a	n/a	3	34	Blank	AvoidedLoss	True
332.615	1.45	Lose2	0.6	n/a	Yes	2.633	n/a	5.0	GoodResponse	0	0.038	331.653	3	34	Feedback	AvoidedLoss	True
334.069	2.633	Lose2	0.6	n/a	Yes	2.633	n/a	n/a	GoodResponse	0	0.0	n/a	3	34	ISIslide	AvoidedLoss	True
336.727	0.25	Lose2	0.6111	0.0	Yes	2.673	0.027	n/a	GoodResponse	0	n/a	n/a	3	35	Cue	AvoidedLoss	True
336.978	4.0	Lose2	0.6111	0.0	Yes	2.673	0.001	n/a	GoodResponse	0	n/a	n/a	3	35	Fixation	AvoidedLoss	True
340.973	0.27	Lose2	0.6111	0.004	Yes	2.673	-0.004	1.0	GoodResponse	0	0.206	340.179	3	35	Target	AvoidedLoss	True
341.179	0.3	Lose2	0.6111	0.004	Yes	2.673	-0.004	1.0	GoodResponse	0	0.206	n/a	3	35	ButtonPress	AvoidedLoss	True
341.258	0.43	Lose2	0.6111	n/a	Yes	2.673	n/a	n/a	GoodResponse	0	n/a	n/a	3	35	Blank	AvoidedLoss	True
341.675	1.45	Lose2	0.6111	n/a	Yes	2.673	n/a	5.0	GoodResponse	0	0.002	340.677	3	35	Feedback	AvoidedLoss	True
343.13	2.673	Lose2	0.6111	n/a	Yes	2.673	n/a	n/a	GoodResponse	0	0.0	n/a	3	35	ISIslide	AvoidedLoss	True
345.821	0.25	Control	0.6215999999999999	0.0	Yes	2.679	0.021	n/a	GoodResponse	0	n/a	n/a	3	36	Cue	Neutral	True
346.072	4.0	Control	0.6215999999999999	0.0	Yes	2.679	0.001	n/a	GoodResponse	0	n/a	n/a	3	36	Fixation	Neutral	True
350.067	0.28	Control	0.6215999999999999	0.004	Yes	2.679	-0.004	1.0	GoodResponse	0	0.222	349.289	3	36	Target	Neutral	True
350.289	0.3	Control	0.6215999999999999	0.004	Yes	2.679	-0.004	1.0	GoodResponse	0	0.222	n/a	3	36	ButtonPress	Neutral	True
350.351	0.42	Control	0.6215999999999999	n/a	Yes	2.679	n/a	n/a	GoodResponse	0	n/a	n/a	3	36	Blank	Neutral	True
350.769	1.45	Control	0.6215999999999999	n/a	Yes	2.679	n/a	5.0	GoodResponse	0	0.03	349.799	3	36	Feedback	Neutral	True
352.224	2.679	Control	0.6215999999999999	n/a	Yes	2.679	n/a	n/a	GoodResponse	0	0.0	n/a	3	36	ISIslide	Neutral	True
354.915	0.25	Win2	0.6315999999999999	0.0	Yes	2.885	0.015	n/a	GoodResponse	1	n/a	n/a	4	37	Cue	Win	True
355.166	4.0	Win2	0.6315999999999999	0.0	Yes	2.885	0.001	n/a	GoodResponse	1	n/a	n/a	4	37	Fixation	Win	True
359.161	0.29	Win2	0.6315999999999999	0.004	Yes	2.885	-0.004	1.0	GoodResponse	1	0.21	358.371	4	37	Target	Win	True
359.371	0.3	Win2	0.6315999999999999	0.004	Yes	2.885	-0.004	1.0	GoodResponse	1	0.21	n/a	4	37	ButtonPress	Win	True
359.462	0.41	Win2	0.6315999999999999	n/a	Yes	2.885	n/a	n/a	GoodResponse	1	n/a	n/a	4	37	Blank	Win	True
359.863	1.45	Win2	0.6315999999999999	n/a	Yes	2.885	n/a	5.0	GoodResponse	1	0.009	358.872	4	37	Feedback	Win	True
361.317	2.885	Win2	0.6315999999999999	n/a	Yes	2.885	n/a	n/a	GoodResponse	1	0.0	n/a	4	37	ISIslide	Win	True
364.226	0.25	Lose2	0.6409999999999999	0.0	Yes	2.824	0.026	n/a	GoodResponse	0	n/a	n/a	4	38	Cue	AvoidedLoss	True
364.477	3.95	Lose2	0.6409999999999999	0.0	Yes	2.824	0.001	n/a	GoodResponse	0	n/a	n/a	4	38	Fixation	AvoidedLoss	True
368.422	0.3	Lose2	0.6409999999999999	0.004	Yes	2.824	-0.004	1.0	GoodResponse	0	0.219	367.641	4	38	Target	AvoidedLoss	True
368.641	0.3	Lose2	0.6409999999999999	0.004	Yes	2.824	-0.004	1.0	GoodResponse	0	0.219	n/a	4	38	ButtonPress	AvoidedLoss	True
368.723	0.4	Lose2	0.6409999999999999	n/a	Yes	2.824	n/a	n/a	GoodResponse	0	n/a	n/a	4	38	Blank	AvoidedLoss	True
369.124	1.45	Lose2	0.6409999999999999	n/a	Yes	2.824	n/a	5.0	GoodResponse	0	0.016	368.14	4	38	Feedback	AvoidedLoss	True
370.578	2.824	Lose2	0.6409999999999999	n/a	Yes	2.824	n/a	n/a	GoodResponse	0	0.0	n/a	4	38	ISIslide	AvoidedLoss	True
373.42	0.25	Win2	0.65	0.0	Yes	2.98	0.02	n/a	GoodResponse	1	n/a	n/a	5	39	Cue	Win	True
373.671	4.1	Win2	0.65	0.0	Yes	2.98	0.001	n/a	GoodResponse	1	n/a	n/a	5	39	Fixation	Win	True
377.767	0.31	Win2	0.65	0.003	Yes	2.98	-0.003	1.0	GoodResponse	1	0.24	377.007	5	39	Target	Win	True
378.007	0.3	Win2	0.65	0.003	Yes	2.98	-0.003	1.0	GoodResponse	1	0.24	n/a	5	39	ButtonPress	Win	True
378.084	0.39	Win2	0.65	n/a	Yes	2.98	n/a	n/a	GoodResponse	1	n/a	n/a	5	39	Blank	Win	True
378.469	1.45	Win2	0.65	n/a	Yes	2.98	n/a	5.0	GoodResponse	1	0.037	377.506	5	39	Feedback	Win	True
379.923	2.98	Win2	0.65	n/a	Yes	2.98	n/a	n/a	GoodResponse	1	0.0	n/a	5	39	ISIslide	Win	True
382.915	0.25	Win2	0.6585	0.0	Yes	2.735	0.015	n/a	GoodResponse	1	n/a	n/a	6	40	Cue	Win	True
383.166	3.95	Win2	0.6585	0.0	Yes	2.735	0.001	n/a	GoodResponse	1	n/a	n/a	6	40	Fixation	Win	True
387.111	0.32	Win2	0.6585	0.004	Yes	2.735	-0.004	1.0	GoodResponse	1	0.213	386.324	6	40	Target	Win	True
387.324	0.3	Win2	0.6585	0.004	Yes	2.735	-0.004	1.0	GoodResponse	1	0.213	n/a	6	40	ButtonPress	Win	True
387.445	0.38	Win2	0.6585	n/a	Yes	2.735	n/a	n/a	GoodResponse	1	n/a	n/a	6	40	Blank	Win	True
387.813	1.45	Win2	0.6585	n/a	Yes	2.735	n/a	5.0	GoodResponse	1	0.01	386.823	6	40	Feedback	Win	True
389.268	2.735	Win2	0.6585	n/a	Yes	2.735	n/a	n/a	GoodResponse	1	0.0	n/a	6	40	ISIslide	Win	True
392.026	0.25	Win2	0.6667000000000001	0.0	Yes	2.774	0.026	n/a	GoodResponse	1	n/a	n/a	7	41	Cue	Win	True
392.277	3.9	Win2	0.6667000000000001	0.0	Yes	2.774	0.001	n/a	GoodResponse	1	n/a	n/a	7	41	Fixation	Win	True
396.172	0.32	Win2	0.6667000000000001	0.004	Yes	2.774	-0.004	1.0	GoodResponse	1	0.278	395.45	7	41	Target	Win	True
396.45	0.3	Win2	0.6667000000000001	0.004	Yes	2.774	-0.004	1.0	GoodResponse	1	0.278	n/a	7	41	ButtonPress	Win	True
396.506	0.38	Win2	0.6667000000000001	n/a	Yes	2.774	n/a	n/a	GoodResponse	1	n/a	n/a	7	41	Blank	Win	True
396.874	1.45	Win2	0.6667000000000001	n/a	Yes	2.774	n/a	5.0	GoodResponse	1	0.021	395.895	7	41	Feedback	Win	True
398.328	2.774	Win2	0.6667000000000001	n/a	Yes	2.774	n/a	n/a	GoodResponse	1	0.0	n/a	7	41	ISIslide	Win	True
401.12	0.25	Control	0.6744	0.0	Yes	2.93	0.02	n/a	GoodResponse	0	n/a	n/a	7	42	Cue	Neutral	True
401.37	3.85	Control	0.6744	0.0	Yes	2.93	0.0	n/a	GoodResponse	0	n/a	n/a	7	42	Fixation	Neutral	True
405.232	0.31	Control	0.6744	0.0	Yes	2.93	0.012	1.0	GoodResponse	0	0.263	404.495	7	42	Target	Neutral	True
405.495	0.3	Control	0.6744	0.0	Yes	2.93	0.012	1.0	GoodResponse	0	0.263	n/a	7	42	ButtonPress	Neutral	True
405.533	0.39	Control	0.6744	n/a	Yes	2.93	n/a	n/a	GoodResponse	0	n/a	n/a	7	42	Blank	Neutral	True
405.917	1.45	Control	0.6744	n/a	Yes	2.93	n/a	5.0	GoodResponse	0	0.008	404.925	7	42	Feedback	Neutral	True
407.372	2.93	Control	0.6744	n/a	Yes	2.93	n/a	n/a	GoodResponse	0	0.0	n/a	7	42	ISIslide	Neutral	True
410.33	0.25	Win2	0.6818000000000001	0.001	Yes	3.17	0.03	n/a	GoodResponse	1	n/a	n/a	8	43	Cue	Win	True
410.581	4.0	Win2	0.6818000000000001	0.0	Yes	3.17	0.001	n/a	GoodResponse	1	n/a	n/a	8	43	Fixation	Win	True
414.577	0.3	Win2	0.6818000000000001	0.003	Yes	3.17	-0.003	1.0	GoodResponse	1	0.231	413.808	8	43	Target	Win	True
414.808	0.3	Win2	0.6818000000000001	0.003	Yes	3.17	-0.003	1.0	GoodResponse	1	0.231	n/a	8	43	ButtonPress	Win	True
414.877	0.4	Win2	0.6818000000000001	n/a	Yes	3.17	n/a	n/a	GoodResponse	1	n/a	n/a	8	43	Blank	Win	True
415.279	1.45	Win2	0.6818000000000001	n/a	Yes	3.17	n/a	5.0	GoodResponse	1	0.007	414.286	8	43	Feedback	Win	True
416.733	3.17	Win2	0.6818000000000001	n/a	Yes	3.17	n/a	n/a	GoodResponse	1	0.0	n/a	8	43	ISIslide	Win	True
419.926	0.25	Win2	0.6889	0.0	Yes	2.974	0.026	n/a	GoodResponse	1	n/a	n/a	9	44	Cue	Win	True
420.177	4.0	Win2	0.6889	0.0	Yes	2.974	0.001	n/a	GoodResponse	1	n/a	n/a	9	44	Fixation	Win	True
424.172	0.29	Win2	0.6889	0.004	Yes	2.974	-0.004	1.0	GoodResponse	1	0.215	423.387	9	44	Target	Win	True
424.387	0.3	Win2	0.6889	0.004	Yes	2.974	-0.004	1.0	GoodResponse	1	0.215	n/a	9	44	ButtonPress	Win	True
424.473	0.41	Win2	0.6889	n/a	Yes	2.974	n/a	n/a	GoodResponse	1	n/a	n/a	9	44	Blank	Win	True
424.874	1.45	Win2	0.6889	n/a	Yes	2.974	n/a	5.0	GoodResponse	1	0.022	423.896	9	44	Feedback	Win	True
426.328	2.974	Win2	0.6889	n/a	Yes	2.974	n/a	n/a	GoodResponse	1	0.0	n/a	9	44	ISIslide	Win	True
429.321	0.25	Control	0.6739	0.0	No	2.879	0.021	n/a	NoResponse	0	n/a	n/a	9	45	Cue	Neutral	False
429.571	4.1	Control	0.6739	0.0	No	2.879	0.0	n/a	NoResponse	0	n/a	n/a	9	45	Fixation	Neutral	False
433.667	0.28	Control	0.6739	0.004	No	2.879	-0.004	n/a	NoResponse	0	n/a	n/a	9	45	Target	Neutral	False
433.951	0.42	Control	0.6739	n/a	No	2.879	n/a	n/a	NoResponse	0	n/a	n/a	9	45	Blank	Neutral	False
434.369	1.45	Control	0.6739	n/a	No	2.879	n/a	5.0	NoResponse	0	0.038	433.407	9	45	Feedback	Neutral	False
435.823	2.879	Control	0.6739	n/a	No	2.879	n/a	n/a	NoResponse	0	0.0	n/a	9	45	ISIslide	Neutral	False
438.715	0.25	Lose2	0.6809000000000001	0.0	Yes	3.385	0.015	n/a	GoodResponse	0	n/a	n/a	9	46	Cue	AvoidedLoss	True
438.966	4.0	Lose2	0.6809000000000001	0.0	Yes	3.385	0.001	n/a	GoodResponse	0	n/a	n/a	9	46	Fixation	AvoidedLoss	True
442.961	0.27	Lose2	0.6809000000000001	0.004	Yes	3.385	-0.004	1.0	GoodResponse	0	0.202	442.163	9	46	Target	AvoidedLoss	True
443.163	0.3	Lose2	0.6809000000000001	0.004	Yes	3.385	-0.004	1.0	GoodResponse	0	0.202	n/a	9	46	ButtonPress	AvoidedLoss	True
443.245	0.43	Lose2	0.6809000000000001	n/a	Yes	3.385	n/a	n/a	GoodResponse	0	n/a	n/a	9	46	Blank	AvoidedLoss	True
443.663	1.45	Lose2	0.6809000000000001	n/a	Yes	3.385	n/a	5.0	GoodResponse	0	0.012	442.675	9	46	Feedback	AvoidedLoss	True
445.118	3.385	Lose2	0.6809000000000001	n/a	Yes	3.385	n/a	n/a	GoodResponse	0	0.0	n/a	9	46	ISIslide	AvoidedLoss	True
448.528	0.25	Lose2	0.6875	0.0	Yes	2.672	0.028	n/a	GoodResponse	0	n/a	n/a	9	47	Cue	AvoidedLoss	True
448.779	4.0	Lose2	0.6875	0.0	Yes	2.672	0.001	n/a	GoodResponse	0	n/a	n/a	9	47	Fixation	AvoidedLoss	True
452.774	0.26	Lose2	0.6875	0.004	Yes	2.672	-0.004	1.0	GoodResponse	0	0.206	451.98	9	47	Target	AvoidedLoss	True
452.98	0.3	Lose2	0.6875	0.004	Yes	2.672	-0.004	1.0	GoodResponse	0	0.206	n/a	9	47	ButtonPress	AvoidedLoss	True
453.041	0.44	Lose2	0.6875	n/a	Yes	2.672	n/a	n/a	GoodResponse	0	n/a	n/a	9	47	Blank	AvoidedLoss	True
453.476	1.45	Lose2	0.6875	n/a	Yes	2.672	n/a	5.0	GoodResponse	0	0.007	452.483	9	47	Feedback	AvoidedLoss	True
454.93	2.672	Lose2	0.6875	n/a	Yes	2.672	n/a	n/a	GoodResponse	0	0.0	n/a	9	47	ISIslide	AvoidedLoss	True
457.622	0.25	Lose2	0.6939	0.0	Yes	3.028	0.022	n/a	GoodResponse	0	n/a	n/a	9	48	Cue	AvoidedLoss	True
457.872	3.95	Lose2	0.6939	0.001	Yes	3.028	0.0	n/a	GoodResponse	0	n/a	n/a	9	48	Fixation	AvoidedLoss	True
461.818	0.25	Lose2	0.6939	0.004	Yes	3.028	-0.004	1.0	GoodResponse	0	0.214	461.032	9	48	Target	AvoidedLoss	True
462.032	0.3	Lose2	0.6939	0.004	Yes	3.028	-0.004	1.0	GoodResponse	0	0.214	n/a	9	48	ButtonPress	AvoidedLoss	True
462.068	0.45	Lose2	0.6939	n/a	Yes	3.028	n/a	n/a	GoodResponse	0	n/a	n/a	9	48	Blank	AvoidedLoss	True
462.52	1.45	Lose2	0.6939	n/a	Yes	3.028	n/a	5.0	GoodResponse	0	0.034	461.554	9	48	Feedback	AvoidedLoss	True
463.974	3.028	Lose2	0.6939	n/a	Yes	3.028	n/a	n/a	GoodResponse	0	0.0	n/a	9	48	ISIslide	AvoidedLoss	True
467.016	0.25	Control	0.7	0.001	Yes	2.884	0.016	n/a	GoodResponse	0	n/a	n/a	9	49	Cue	Neutral	True
467.267	4.0	Control	0.7	0.0	Yes	2.884	0.001	n/a	GoodResponse	0	n/a	n/a	9	49	Fixation	Neutral	True
471.262	0.24	Control	0.7	0.004	Yes	2.884	-0.004	1.0	GoodResponse	0	0.225	470.487	9	49	Target	Neutral	True
471.487	0.3	Control	0.7	0.004	Yes	2.884	-0.004	1.0	GoodResponse	0	0.225	n/a	9	49	ButtonPress	Neutral	True
471.513	0.46	Control	0.7	n/a	Yes	2.884	n/a	n/a	GoodResponse	0	n/a	n/a	9	49	Blank	Neutral	True
471.965	1.45	Control	0.7	n/a	Yes	2.884	n/a	5.0	GoodResponse	0	0.006	470.971	9	49	Feedback	Neutral	True
473.419	2.884	Control	0.7	n/a	Yes	2.884	n/a	n/a	GoodResponse	0	0.0	n/a	9	49	ISIslide	Neutral	True
476.328	0.25	Control	0.7059000000000001	0.0	Yes	2.772	0.028	n/a	GoodResponse	0	n/a	n/a	9	50	Cue	Neutral	True
476.578	4.0	Control	0.7059000000000001	0.0	Yes	2.772	0.0	n/a	GoodResponse	0	n/a	n/a	9	50	Fixation	Neutral	True
480.574	0.23	Control	0.7059000000000001	0.004	Yes	2.772	-0.004	1.0	GoodResponse	0	0.226	479.8	9	50	Target	Neutral	True
480.8	0.3	Control	0.7059000000000001	0.004	Yes	2.772	-0.004	1.0	GoodResponse	0	0.226	n/a	9	50	ButtonPress	Neutral	True
480.808	0.47	Control	0.7059000000000001	n/a	Yes	2.772	n/a	n/a	GoodResponse	0	n/a	n/a	9	50	Blank	Neutral	True
481.276	1.45	Control	0.7059000000000001	n/a	Yes	2.772	n/a	5.0	GoodResponse	0	0.009	480.285	9	50	Feedback	Neutral	True
482.73	2.772	Control	0.7059000000000001	n/a	Yes	2.772	n/a	n/a	GoodResponse	0	0.0	n/a	9	50	ISIslide	Neutral	True
485.522	0.25	Control	0.6923	0.0	No	2.728	0.022	n/a	NoResponse	0	n/a	n/a	9	51	Cue	Neutral	True
485.772	3.95	Control	0.6923	0.001	No	2.728	0.0	n/a	NoResponse	0	n/a	n/a	9	51	Fixation	Neutral	True
489.718	0.22	Control	0.6923	0.004	No	2.728	-0.004	1.0	NoResponse	0	0.271	488.989	9	51	Target	Neutral	True
489.952	0.48	Control	0.6923	n/a	No	2.728	n/a	n/a	NoResponse	0	n/a	n/a	9	51	Blank	Neutral	True
489.989	0.3	Control	0.6923	0.004	No	2.728	-0.004	1.0	NoResponse	0	0.271	n/a	9	51	ButtonPress	Neutral	True
490.42	1.45	Control	0.6923	n/a	No	2.728	n/a	5.0	NoResponse	0	0.035	489.455	9	51	Feedback	Neutral	True
491.874	2.728	Control	0.6923	n/a	No	2.728	n/a	n/a	NoResponse	0	0.0	n/a	9	51	ISIslide	Neutral	True
494.616	0.25	Control	0.6792	0.0	No	2.634	0.016	n/a	LatePress	0	n/a	n/a	9	52	Cue	Neutral	True
494.866	4.05	Control	0.6792	0.0	No	2.634	0.0	n/a	LatePress	0	n/a	n/a	9	52	Fixation	Neutral	True
498.912	0.21	Control	0.6792	0.004	No	2.634	-0.004	1.0	LatePress	0	0.211	498.123	9	52	Target	Neutral	True
499.123	0.3	Control	0.6792	0.004	No	2.634	-0.004	1.0	LatePress	0	0.211	n/a	9	52	ButtonPress	Neutral	True
499.129	0.49	Control	0.6792	n/a	No	2.634	n/a	n/a	LatePress	0	n/a	n/a	9	52	Blank	Neutral	True
499.614	1.45	Control	0.6792	n/a	No	2.634	n/a	5.0	LatePress	0	0.012	498.626	9	52	Feedback	Neutral	True
501.068	2.634	Control	0.6792	n/a	No	2.634	n/a	n/a	LatePress	0	0.0	n/a	9	52	ISIslide	Neutral	True
503.726	0.25	Win2	0.6667000000000001	0.0	No	2.924	0.026	n/a	NoResponse	0	n/a	n/a	9	53	Cue	MissedWin	True
503.977	4.05	Win2	0.6667000000000001	0.0	No	2.924	0.001	n/a	NoResponse	0	n/a	n/a	9	53	Fixation	MissedWin	True
508.022	0.2	Win2	0.6667000000000001	0.004	No	2.924	-0.004	1.0	NoResponse	0	0.235	507.257	9	53	Target	MissedWin	True
508.223	0.5	Win2	0.6667000000000001	n/a	No	2.924	n/a	n/a	NoResponse	0	n/a	n/a	9	53	Blank	MissedWin	True
508.257	0.3	Win2	0.6667000000000001	0.004	No	2.924	-0.004	1.0	NoResponse	0	0.235	n/a	9	53	ButtonPress	MissedWin	True
508.724	1.45	Win2	0.6667000000000001	n/a	No	2.924	n/a	5.0	NoResponse	0	0.023	507.747	9	53	Feedback	MissedWin	True
510.179	2.924	Win2	0.6667000000000001	n/a	No	2.924	n/a	n/a	NoResponse	0	0.0	n/a	9	53	ISIslide	MissedWin	True
513.121	0.25	Win2	0.6545000000000001	0.0	No	2.729	0.021	n/a	NoResponse	0	n/a	n/a	9	54	Cue	MissedWin	True
513.372	3.95	Win2	0.6545000000000001	0.0	No	2.729	0.001	n/a	NoResponse	0	n/a	n/a	9	54	Fixation	MissedWin	True
517.317	0.19	Win2	0.6545000000000001	0.004	No	2.729	-0.004	1.0	NoResponse	0	0.217	516.534	9	54	Target	MissedWin	True
517.517	0.51	Win2	0.6545000000000001	n/a	No	2.729	n/a	n/a	NoResponse	0	n/a	n/a	9	54	Blank	MissedWin	True
517.534	0.3	Win2	0.6545000000000001	0.004	No	2.729	-0.004	1.0	NoResponse	0	0.217	n/a	9	54	ButtonPress	MissedWin	True
518.019	1.45	Win2	0.6545000000000001	n/a	No	2.729	n/a	5.0	NoResponse	0	0.045	517.064	9	54	Feedback	MissedWin	True
519.473	2.729	Win2	0.6545000000000001	n/a	No	2.729	n/a	n/a	NoResponse	0	0.0	n/a	9	54	ISIslide	MissedWin	True
522.215	0.25	Control	0.6429	0.0	No	3.035	0.015	n/a	NoResponse	0	n/a	n/a	9	55	Cue	Neutral	True
522.465	3.95	Control	0.6429	0.0	No	3.035	0.0	n/a	NoResponse	0	n/a	n/a	9	55	Fixation	Neutral	True
526.411	0.2	Control	0.6429	0.004	No	3.035	-0.004	1.0	NoResponse	0	0.232	525.643	9	55	Target	Neutral	True
526.611	0.5	Control	0.6429	n/a	No	3.035	n/a	n/a	NoResponse	0	n/a	n/a	9	55	Blank	Neutral	True
526.643	0.3	Control	0.6429	0.004	No	3.035	-0.004	1.0	NoResponse	0	0.232	n/a	9	55	ButtonPress	Neutral	True
527.113	1.45	Control	0.6429	n/a	No	3.035	n/a	5.0	NoResponse	0	0.025	526.138	9	55	Feedback	Neutral	True
528.567	3.035	Control	0.6429	n/a	No	3.035	n/a	n/a	NoResponse	0	0.0	n/a	9	55	ISIslide	Neutral	True
531.626	0.25	Control	0.6315999999999999	0.0	No	2.824	0.026	n/a	LatePress	0	n/a	n/a	9	56	Cue	Neutral	True
531.877	3.95	Control	0.6315999999999999	0.0	No	2.824	0.001	n/a	LatePress	0	n/a	n/a	9	56	Fixation	Neutral	True
535.822	0.21	Control	0.6315999999999999	0.004	No	2.824	-0.004	1.0	LatePress	0	0.212	535.034	9	56	Target	Neutral	True
536.034	0.3	Control	0.6315999999999999	0.004	No	2.824	-0.004	1.0	LatePress	0	0.212	n/a	9	56	ButtonPress	Neutral	True
536.039	0.49	Control	0.6315999999999999	n/a	No	2.824	n/a	n/a	LatePress	0	n/a	n/a	9	56	Blank	Neutral	True
536.524	1.45	Control	0.6315999999999999	n/a	No	2.824	n/a	5.0	LatePress	0	0.028	535.552	9	56	Feedback	Neutral	True
537.978	2.824	Control	0.6315999999999999	n/a	No	2.824	n/a	n/a	LatePress	0	0.0	n/a	9	56	ISIslide	Neutral	True
540.82	0.25	Control	0.6379	0.0	Yes	3.48	0.02	n/a	GoodResponse	0	n/a	n/a	9	57	Cue	Neutral	True
541.071	4.0	Control	0.6379	0.0	Yes	3.48	0.001	n/a	GoodResponse	0	n/a	n/a	9	57	Fixation	Neutral	True
545.066	0.22	Control	0.6379	0.004	Yes	3.48	-0.004	1.0	GoodResponse	0	0.206	544.272	9	57	Target	Neutral	True
545.272	0.3	Control	0.6379	0.004	Yes	3.48	-0.004	1.0	GoodResponse	0	0.206	n/a	9	57	ButtonPress	Neutral	True
545.3	0.48	Control	0.6379	n/a	Yes	3.48	n/a	n/a	GoodResponse	0	n/a	n/a	9	57	Blank	Neutral	True
545.768	1.45	Control	0.6379	n/a	Yes	3.48	n/a	5.0	GoodResponse	0	0.007	544.775	9	57	Feedback	Neutral	True
547.223	3.48	Control	0.6379	n/a	Yes	3.48	n/a	n/a	GoodResponse	0	0.0	n/a	9	57	ISIslide	Neutral	True
550.716	0.25	Win2	0.6441	0.0	Yes	2.734	0.016	n/a	GoodResponse	1	n/a	n/a	10	58	Cue	Win	True
550.967	4.05	Win2	0.6441	0.0	Yes	2.734	0.001	n/a	GoodResponse	1	n/a	n/a	10	58	Fixation	Win	True
555.013	0.23	Win2	0.6441	0.003	Yes	2.734	-0.003	1.0	GoodResponse	1	0.178	554.191	10	58	Target	Win	True
555.191	0.3	Win2	0.6441	0.003	Yes	2.734	-0.003	1.0	GoodResponse	1	0.178	n/a	10	58	ButtonPress	Win	True
555.247	0.47	Win2	0.6441	n/a	Yes	2.734	n/a	n/a	GoodResponse	1	n/a	n/a	10	58	Blank	Win	True
555.715	1.45	Win2	0.6441	n/a	Yes	2.734	n/a	5.0	GoodResponse	1	0.007	554.722	10	58	Feedback	Win	True
557.169	2.734	Win2	0.6441	n/a	Yes	2.734	n/a	n/a	GoodResponse	1	0.0	n/a	10	58	ISIslide	Win	True
559.927	0.25	Lose2	0.65	0.0	Yes	2.673	0.027	n/a	GoodResponse	0	n/a	n/a	10	59	Cue	AvoidedLoss	True
560.178	4.0	Lose2	0.65	0.0	Yes	2.673	0.001	n/a	GoodResponse	0	n/a	n/a	10	59	Fixation	AvoidedLoss	True
564.173	0.24	Lose2	0.65	0.004	Yes	2.673	-0.004	1.0	GoodResponse	0	0.215	563.388	10	59	Target	AvoidedLoss	True
564.388	0.3	Lose2	0.65	0.004	Yes	2.673	-0.004	1.0	GoodResponse	0	0.215	n/a	10	59	ButtonPress	AvoidedLoss	True
564.424	0.46	Lose2	0.65	n/a	Yes	2.673	n/a	n/a	GoodResponse	0	n/a	n/a	10	59	Blank	AvoidedLoss	True
564.875	1.45	Lose2	0.65	n/a	Yes	2.673	n/a	5.0	GoodResponse	0	0.018	563.893	10	59	Feedback	AvoidedLoss	True
566.33	2.673	Lose2	0.65	n/a	Yes	2.673	n/a	n/a	GoodResponse	0	0.0	n/a	10	59	ISIslide	AvoidedLoss	True
569.021	0.25	Control	0.6557	0.0	Yes	2.679	0.021	n/a	GoodResponse	0	n/a	n/a	10	60	Cue	Neutral	True
569.272	4.0	Control	0.6557	0.0	Yes	2.679	0.001	n/a	GoodResponse	0	n/a	n/a	10	60	Fixation	Neutral	True
573.267	0.25	Control	0.6557	0.004	Yes	2.679	-0.004	1.0	GoodResponse	0	0.208	572.475	10	60	Target	Neutral	True
573.475	0.3	Control	0.6557	0.004	Yes	2.679	-0.004	1.0	GoodResponse	0	0.208	n/a	10	60	ButtonPress	Neutral	True
573.518	0.45	Control	0.6557	n/a	Yes	2.679	n/a	n/a	GoodResponse	0	n/a	n/a	10	60	Blank	Neutral	True
573.969	1.45	Control	0.6557	n/a	Yes	2.679	n/a	5.0	GoodResponse	0	0.046	573.015	10	60	Feedback	Neutral	True
575.424	2.679	Control	0.6557	n/a	Yes	2.679	n/a	n/a	GoodResponse	0	0.0	n/a	10	60	ISIslide	Neutral	True
578.115	0.25	Lose2	0.6452	0.0	No	2.985	0.015	n/a	NoResponse	-1	n/a	n/a	9	61	Cue	Loss	True
578.366	4.0	Lose2	0.6452	0.0	No	2.985	0.001	n/a	NoResponse	-1	n/a	n/a	9	61	Fixation	Loss	True
582.361	0.25	Lose2	0.6452	0.004	No	2.985	-0.004	1.0	NoResponse	-1	0.297	581.658	9	61	Target	Loss	True
582.612	0.45	Lose2	0.6452	n/a	No	2.985	n/a	n/a	NoResponse	-1	n/a	n/a	9	61	Blank	Loss	True
582.658	0.3	Lose2	0.6452	0.004	No	2.985	-0.004	1.0	NoResponse	-1	0.297	n/a	9	61	ButtonPress	Loss	True
583.063	1.45	Lose2	0.6452	n/a	No	2.985	n/a	5.0	NoResponse	-1	0.025	582.088	9	61	Feedback	Loss	True
584.517	2.985	Lose2	0.6452	n/a	No	2.985	n/a	n/a	NoResponse	-1	0.0	n/a	9	61	ISIslide	Loss	True
587.526	0.25	Lose2	0.6507999999999999	0.0	Yes	2.874	0.026	n/a	GoodResponse	0	n/a	n/a	9	62	Cue	AvoidedLoss	True
587.777	3.9	Lose2	0.6507999999999999	0.0	Yes	2.874	0.001	n/a	GoodResponse	0	n/a	n/a	9	62	Fixation	AvoidedLoss	True
591.672	0.26	Lose2	0.6507999999999999	0.004	Yes	2.874	-0.004	1.0	GoodResponse	0	0.226	590.898	9	62	Target	AvoidedLoss	True
591.898	0.3	Lose2	0.6507999999999999	0.004	Yes	2.874	-0.004	1.0	GoodResponse	0	0.226	n/a	9	62	ButtonPress	AvoidedLoss	True
591.94	0.44	Lose2	0.6507999999999999	n/a	Yes	2.874	n/a	n/a	GoodResponse	0	n/a	n/a	9	62	Blank	AvoidedLoss	True
592.374	1.45	Lose2	0.6507999999999999	n/a	Yes	2.874	n/a	5.0	GoodResponse	0	0.031	591.405	9	62	Feedback	AvoidedLoss	True
593.829	2.874	Lose2	0.6507999999999999	n/a	Yes	2.874	n/a	n/a	GoodResponse	0	0.0	n/a	9	62	ISIslide	AvoidedLoss	True
596.72	0.25	Lose2	0.6562	0.001	Yes	2.63	0.02	n/a	GoodResponse	0	n/a	n/a	9	63	Cue	AvoidedLoss	True
596.971	4.05	Lose2	0.6562	0.0	Yes	2.63	0.001	n/a	GoodResponse	0	n/a	n/a	9	63	Fixation	AvoidedLoss	True
601.017	0.27	Lose2	0.6562	0.003	Yes	2.63	-0.003	1.0	GoodResponse	0	0.121	600.138	9	63	Target	AvoidedLoss	True
601.138	0.3	Lose2	0.6562	0.003	Yes	2.63	-0.003	1.0	GoodResponse	0	0.121	n/a	9	63	ButtonPress	AvoidedLoss	True
601.301	0.43	Lose2	0.6562	n/a	Yes	2.63	n/a	n/a	GoodResponse	0	n/a	n/a	9	63	Blank	AvoidedLoss	True
601.719	1.45	Lose2	0.6562	n/a	Yes	2.63	n/a	5.0	GoodResponse	0	0.006	600.725	9	63	Feedback	AvoidedLoss	True
603.173	2.63	Lose2	0.6562	n/a	Yes	2.63	n/a	n/a	GoodResponse	0	0.0	n/a	9	63	ISIslide	AvoidedLoss	True
605.831	0.25	Win2	0.6615000000000001	0.0	Yes	3.119	0.031	n/a	GoodResponse	1	n/a	n/a	10	64	Cue	Win	True
606.082	4.15	Win2	0.6615000000000001	0.0	Yes	3.119	0.001	n/a	GoodResponse	1	n/a	n/a	10	64	Fixation	Win	True
610.227	0.27	Win2	0.6615000000000001	0.004	Yes	3.119	-0.004	1.0	GoodResponse	1	0.193	609.42	10	64	Target	Win	True
610.42	0.3	Win2	0.6615000000000001	0.004	Yes	3.119	-0.004	1.0	GoodResponse	1	0.193	n/a	10	64	ButtonPress	Win	True
610.512	0.43	Win2	0.6615000000000001	n/a	Yes	3.119	n/a	n/a	GoodResponse	1	n/a	n/a	10	64	Blank	Win	True
610.93	1.45	Win2	0.6615000000000001	n/a	Yes	3.119	n/a	5.0	GoodResponse	1	0.012	609.942	10	64	Feedback	Win	True
612.384	3.119	Win2	0.6615000000000001	n/a	Yes	3.119	n/a	n/a	GoodResponse	1	0.0	n/a	10	64	ISIslide	Win	True
615.527	0.25	Control	0.6667000000000001	0.0	Yes	2.773	0.027	n/a	GoodResponse	0	n/a	n/a	10	65	Cue	Neutral	True
615.777	4.0	Control	0.6667000000000001	0.0	Yes	2.773	0.0	n/a	GoodResponse	0	n/a	n/a	10	65	Fixation	Neutral	True
619.773	0.27	Control	0.6667000000000001	0.004	Yes	2.773	-0.004	1.0	GoodResponse	0	0.244	619.017	10	65	Target	Neutral	True
620.017	0.3	Control	0.6667000000000001	0.004	Yes	2.773	-0.004	1.0	GoodResponse	0	0.244	n/a	10	65	ButtonPress	Neutral	True
620.057	0.43	Control	0.6667000000000001	n/a	Yes	2.773	n/a	n/a	GoodResponse	0	n/a	n/a	10	65	Blank	Neutral	True
620.475	1.45	Control	0.6667000000000001	n/a	Yes	2.773	n/a	5.0	GoodResponse	0	0.027	619.502	10	65	Feedback	Neutral	True
621.929	2.773	Control	0.6667000000000001	n/a	Yes	2.773	n/a	n/a	GoodResponse	0	0.0	n/a	10	65	ISIslide	Neutral	True
624.721	0.25	Win2	0.6716	0.0	Yes	2.779	0.021	n/a	GoodResponse	1	n/a	n/a	11	66	Cue	Win	True
624.972	3.9	Win2	0.6716	0.0	Yes	2.779	0.001	n/a	GoodResponse	1	n/a	n/a	11	66	Fixation	Win	True
628.866	0.26	Win2	0.6716	0.005	Yes	2.779	-0.005	1.0	GoodResponse	1	0.19	628.056	11	66	Target	Win	True
629.056	0.3	Win2	0.6716	0.005	Yes	2.779	-0.005	1.0	GoodResponse	1	0.19	n/a	11	66	ButtonPress	Win	True
629.134	0.44	Win2	0.6716	n/a	Yes	2.779	n/a	n/a	GoodResponse	1	n/a	n/a	11	66	Blank	Win	True
629.569	1.45	Win2	0.6716	n/a	Yes	2.779	n/a	5.0	GoodResponse	1	0.006	628.575	11	66	Feedback	Win	True
631.023	2.779	Win2	0.6716	n/a	Yes	2.779	n/a	n/a	GoodResponse	1	0.0	n/a	11	66	ISIslide	Win	True
633.815	0.25	Control	0.6618	0.0	No	2.735	0.015	n/a	NoResponse	0	n/a	n/a	11	67	Cue	Neutral	True
634.065	3.95	Control	0.6618	0.0	No	2.735	0.0	n/a	NoResponse	0	n/a	n/a	11	67	Fixation	Neutral	True
638.027	0.25	Control	0.6618	0.0	No	2.735	0.012	1.0	NoResponse	0	0.254	637.281	11	67	Target	Neutral	True
638.261	0.45	Control	0.6618	n/a	No	2.735	n/a	n/a	NoResponse	0	n/a	n/a	11	67	Blank	Neutral	True
638.281	0.3	Control	0.6618	0.0	No	2.735	0.012	1.0	NoResponse	0	0.254	n/a	11	67	ButtonPress	Neutral	True
638.713	1.45	Control	0.6618	n/a	No	2.735	n/a	5.0	NoResponse	0	0.033	637.746	11	67	Feedback	Neutral	True
640.167	2.735	Control	0.6618	n/a	No	2.735	n/a	n/a	NoResponse	0	0.0	n/a	11	67	ISIslide	Neutral	True
642.925	0.25	Win2	0.6667000000000001	0.0	Yes	3.075	0.025	n/a	GoodResponse	1	n/a	n/a	12	68	Cue	Win	True
643.176	4.0	Win2	0.6667000000000001	0.0	Yes	3.075	0.001	n/a	GoodResponse	1	n/a	n/a	12	68	Fixation	Win	True
647.171	0.25	Win2	0.6667000000000001	0.004	Yes	3.075	-0.004	1.0	GoodResponse	1	0.196	646.367	12	68	Target	Win	True
647.367	0.3	Win2	0.6667000000000001	0.004	Yes	3.075	-0.004	1.0	GoodResponse	1	0.196	n/a	12	68	ButtonPress	Win	True
647.422	0.45	Win2	0.6667000000000001	n/a	Yes	3.075	n/a	n/a	GoodResponse	1	n/a	n/a	12	68	Blank	Win	True
647.873	1.45	Win2	0.6667000000000001	n/a	Yes	3.075	n/a	5.0	GoodResponse	1	0.044	646.917	12	68	Feedback	Win	True
649.328	3.075	Win2	0.6667000000000001	n/a	Yes	3.075	n/a	n/a	GoodResponse	1	0.0	n/a	12	68	ISIslide	Win	True
652.42	0.25	Win2	0.6714	0.0	Yes	3.23	0.02	n/a	GoodResponse	1	n/a	n/a	13	69	Cue	Win	True
652.671	3.95	Win2	0.6714	0.0	Yes	3.23	0.001	n/a	GoodResponse	1	n/a	n/a	13	69	Fixation	Win	True
656.616	0.24	Win2	0.6714	0.004	Yes	3.23	-0.004	1.0	GoodResponse	1	0.175	655.791	13	69	Target	Win	True
656.791	0.3	Win2	0.6714	0.004	Yes	3.23	-0.004	1.0	GoodResponse	1	0.175	n/a	13	69	ButtonPress	Win	True
656.867	0.46	Win2	0.6714	n/a	Yes	3.23	n/a	n/a	GoodResponse	1	n/a	n/a	13	69	Blank	Win	True
657.318	1.45	Win2	0.6714	n/a	Yes	3.23	n/a	5.0	GoodResponse	1	0.013	656.331	13	69	Feedback	Win	True
658.772	3.23	Win2	0.6714	n/a	Yes	3.23	n/a	n/a	GoodResponse	1	0.0	n/a	13	69	ISIslide	Win	True
662.015	0.25	Lose2	0.662	0.001	No	3.035	0.015	n/a	NoResponse	-1	n/a	n/a	12	70	Cue	Loss	True
662.266	4.05	Lose2	0.662	0.0	No	3.035	0.001	n/a	NoResponse	-1	n/a	n/a	12	70	Fixation	Loss	True
666.312	0.23	Lose2	0.662	0.003	No	3.035	-0.003	1.0	NoResponse	-1	0.255	665.567	12	70	Target	Loss	True
666.546	0.47	Lose2	0.662	n/a	No	3.035	n/a	n/a	NoResponse	-1	n/a	n/a	12	70	Blank	Loss	True
666.567	0.3	Lose2	0.662	0.003	No	3.035	-0.003	1.0	NoResponse	-1	0.255	n/a	12	70	ButtonPress	Loss	True
667.014	1.45	Lose2	0.662	n/a	No	3.035	n/a	5.0	NoResponse	-1	0.024	666.038	12	70	Feedback	Loss	True
668.468	3.035	Lose2	0.662	n/a	No	3.035	n/a	n/a	NoResponse	-1	0.0	n/a	12	70	ISIslide	Loss	True
671.527	0.25	Win2	0.6667000000000001	0.0	Yes	2.723	0.027	n/a	GoodResponse	1	n/a	n/a	13	71	Cue	Win	True
671.778	4.05	Win2	0.6667000000000001	0.0	Yes	2.723	0.001	n/a	GoodResponse	1	n/a	n/a	13	71	Fixation	Win	True
675.823	0.23	Win2	0.6667000000000001	0.004	Yes	2.723	-0.004	1.0	GoodResponse	1	0.205	675.028	13	71	Target	Win	True
676.028	0.3	Win2	0.6667000000000001	0.004	Yes	2.723	-0.004	1.0	GoodResponse	1	0.205	n/a	13	71	ButtonPress	Win	True
676.057	0.47	Win2	0.6667000000000001	n/a	Yes	2.723	n/a	n/a	GoodResponse	1	n/a	n/a	13	71	Blank	Win	True
676.525	1.45	Win2	0.6667000000000001	n/a	Yes	2.723	n/a	5.0	GoodResponse	1	0.025	675.55	13	71	Feedback	Win	True
677.98	2.723	Win2	0.6667000000000001	n/a	Yes	2.723	n/a	n/a	GoodResponse	1	0.0	n/a	13	71	ISIslide	Win	True
680.721	0.25	Win2	0.6712	0.0	Yes	2.779	0.021	n/a	GoodResponse	1	n/a	n/a	14	72	Cue	Win	True
680.972	4.1	Win2	0.6712	0.0	Yes	2.779	0.001	n/a	GoodResponse	1	n/a	n/a	14	72	Fixation	Win	True
685.068	0.22	Win2	0.6712	0.003	Yes	2.779	-0.003	1.0	GoodResponse	1	0.191	684.259	14	72	Target	Win	True
685.259	0.3	Win2	0.6712	0.003	Yes	2.779	-0.003	1.0	GoodResponse	1	0.191	n/a	14	72	ButtonPress	Win	True
685.302	0.48	Win2	0.6712	n/a	Yes	2.779	n/a	n/a	GoodResponse	1	n/a	n/a	14	72	Blank	Win	True
685.77	1.45	Win2	0.6712	n/a	Yes	2.779	n/a	5.0	GoodResponse	1	0.048	684.818	14	72	Feedback	Win	True
687.224	2.779	Win2	0.6712	n/a	Yes	2.779	n/a	n/a	GoodResponse	1	0.0	n/a	14	72	ISIslide	Win	True
690.016	0.25	Win2	0.6622	0.0	No	2.684	0.016	n/a	NoResponse	0	n/a	n/a	14	73	Cue	MissedWin	True
690.267	4.0	Win2	0.6622	0.0	No	2.684	0.001	n/a	NoResponse	0	n/a	n/a	14	73	Fixation	MissedWin	True
694.262	0.21	Win2	0.6622	0.004	No	2.684	-0.004	1.0	NoResponse	0	0.226	693.488	14	73	Target	MissedWin	True
694.479	0.49	Win2	0.6622	n/a	No	2.684	n/a	n/a	NoResponse	0	n/a	n/a	14	73	Blank	MissedWin	True
694.488	0.3	Win2	0.6622	0.004	No	2.684	-0.004	1.0	NoResponse	0	0.226	n/a	14	73	ButtonPress	MissedWin	True
694.964	1.45	Win2	0.6622	n/a	No	2.684	n/a	5.0	NoResponse	0	0.024	693.988	14	73	Feedback	MissedWin	True
696.418	2.684	Win2	0.6622	n/a	No	2.684	n/a	n/a	NoResponse	0	0.0	n/a	14	73	ISIslide	MissedWin	True
699.126	0.25	Lose2	0.6667000000000001	0.0	Yes	2.624	0.026	n/a	GoodResponse	0	n/a	n/a	14	74	Cue	AvoidedLoss	True
699.377	4.05	Lose2	0.6667000000000001	0.0	Yes	2.624	0.001	n/a	GoodResponse	0	n/a	n/a	14	74	Fixation	AvoidedLoss	True
703.422	0.21	Lose2	0.6667000000000001	0.004	Yes	2.624	-0.004	1.0	GoodResponse	0	0.194	702.616	14	74	Target	AvoidedLoss	True
703.616	0.3	Lose2	0.6667000000000001	0.004	Yes	2.624	-0.004	1.0	GoodResponse	0	0.194	n/a	14	74	ButtonPress	AvoidedLoss	True
703.64	0.49	Lose2	0.6667000000000001	n/a	Yes	2.624	n/a	n/a	GoodResponse	0	n/a	n/a	14	74	Blank	AvoidedLoss	True
704.125	1.45	Lose2	0.6667000000000001	n/a	Yes	2.624	n/a	5.0	GoodResponse	0	0.034	703.159	14	74	Feedback	AvoidedLoss	True
705.579	2.624	Lose2	0.6667000000000001	n/a	Yes	2.624	n/a	n/a	GoodResponse	0	0.0	n/a	14	74	ISIslide	AvoidedLoss	True
708.22	0.25	Lose2	0.6579	0.0	No	2.93	0.02	n/a	NoResponse	-1	n/a	n/a	13	75	Cue	Loss	True
708.471	3.95	Lose2	0.6579	0.0	No	2.93	0.001	1.0	NoResponse	-1	3.928	711.399	13	75	Fixation	Loss	True
712.399	0.3	Lose2	0.6579	0.0	No	2.93	0.001	1.0	NoResponse	-1	3.928	n/a	13	75	ButtonPress	Loss	True
712.416	0.2	Lose2	0.6579	0.004	No	2.93	-0.004	n/a	NoResponse	-1	n/a	n/a	13	75	Target	Loss	True
712.617	0.5	Lose2	0.6579	n/a	No	2.93	n/a	n/a	NoResponse	-1	n/a	n/a	13	75	Blank	Loss	True
713.118	1.45	Lose2	0.6579	n/a	No	2.93	n/a	5.0	NoResponse	-1	0.017	712.135	13	75	Feedback	Loss	True
714.572	2.93	Lose2	0.6579	n/a	No	2.93	n/a	n/a	NoResponse	-1	0.0	n/a	13	75	ISIslide	Loss	True
717.531	0.25	Control	0.6494	0.0	No	3.219	0.031	n/a	NoResponse	0	n/a	n/a	13	76	Cue	Neutral	True
717.782	4.05	Control	0.6494	0.0	No	3.219	0.001	n/a	NoResponse	0	n/a	n/a	13	76	Fixation	Neutral	True
721.827	0.2	Control	0.6494	0.004	No	3.219	-0.004	1.0	NoResponse	0	0.226	721.053	13	76	Target	Neutral	True
722.028	0.5	Control	0.6494	n/a	No	3.219	n/a	n/a	NoResponse	0	n/a	n/a	13	76	Blank	Neutral	True
722.053	0.3	Control	0.6494	0.004	No	3.219	-0.004	1.0	NoResponse	0	0.226	n/a	13	76	ButtonPress	Neutral	True
722.53	1.45	Control	0.6494	n/a	No	3.219	n/a	5.0	NoResponse	0	0.02	721.55	13	76	Feedback	Neutral	True
723.984	3.219	Control	0.6494	n/a	No	3.219	n/a	n/a	NoResponse	0	0.0	n/a	13	76	ISIslide	Neutral	True
727.227	0.25	Lose2	0.6409999999999999	0.0	No	2.573	0.027	n/a	NoResponse	-1	n/a	n/a	12	77	Cue	Loss	True
727.478	3.95	Lose2	0.6409999999999999	0.0	No	2.573	0.001	n/a	NoResponse	-1	n/a	n/a	12	77	Fixation	Loss	True
731.423	0.21	Lose2	0.6409999999999999	0.004	No	2.573	-0.004	1.0	NoResponse	-1	0.256	730.679	12	77	Target	Loss	True
731.64	0.49	Lose2	0.6409999999999999	n/a	No	2.573	n/a	n/a	NoResponse	-1	n/a	n/a	12	77	Blank	Loss	True
731.679	0.3	Lose2	0.6409999999999999	0.004	No	2.573	-0.004	1.0	NoResponse	-1	0.256	n/a	12	77	ButtonPress	Loss	True
732.125	1.45	Lose2	0.6409999999999999	n/a	No	2.573	n/a	5.0	NoResponse	-1	0.034	731.159	12	77	Feedback	Loss	True
733.579	2.573	Lose2	0.6409999999999999	n/a	No	2.573	n/a	n/a	NoResponse	-1	0.0	n/a	12	77	ISIslide	Loss	True
