onset	duration	cue_type	current_mean_accuracy	duration_error	is_hit	isi_adjusted	onset_delay	response	response_type	reward	rt	rt_time	total_reward	trial_number	trial_phase	trial_type	one_press
11.104	0.25	Control	1.0	0.0	Yes	2.946	0.004	n/a	GoodResponse	0	n/a	n/a	0	0	Cue	Neutral	True
11.355	3.85	Control	1.0	0.0	Yes	2.946	0.001	n/a	GoodResponse	0	n/a	n/a	0	0	Fixation	Neutral	True
15.2	0.4	Control	1.0	0.004	Yes	2.946	-0.004	2.0	GoodResponse	0	0.211	14.411	0	0	Target	Neutral	True
15.411	0.3	Control	1.0	0.004	Yes	2.946	-0.004	2.0	GoodResponse	0	0.211	n/a	0	0	ButtonPress	Neutral	True
15.601	0.3	Control	1.0	n/a	Yes	2.946	n/a	n/a	GoodResponse	0	n/a	n/a	0	0	Blank	Neutral	True
15.902	1.45	Control	1.0	n/a	Yes	2.946	n/a	5.0	GoodResponse	0	0.024	14.926	0	0	Feedback	Neutral	True
17.356	2.946	Control	1.0	n/a	Yes	2.946	n/a	n/a	GoodResponse	0	0.0	n/a	0	0	ISIslide	Neutral	True
20.348	0.25	Lose2	1.0	0.0	Yes	2.752	0.048	n/a	GoodResponse	0	n/a	n/a	0	1	Cue	AvoidedLoss	True
20.599	4.0	Lose2	1.0	0.0	Yes	2.752	0.001	n/a	GoodResponse	0	n/a	n/a	0	1	Fixation	AvoidedLoss	True
24.594	0.39	Lose2	1.0	0.004	Yes	2.752	-0.004	2.0	GoodResponse	0	0.206	23.8	0	1	Target	AvoidedLoss	True
24.8	0.3	Lose2	1.0	0.004	Yes	2.752	-0.004	2.0	GoodResponse	0	0.206	n/a	0	1	ButtonPress	AvoidedLoss	True
24.995	0.31	Lose2	1.0	n/a	Yes	2.752	n/a	n/a	GoodResponse	0	n/a	n/a	0	1	Blank	AvoidedLoss	True
25.296	1.45	Lose2	1.0	n/a	Yes	2.752	n/a	5.0	GoodResponse	0	0.045	24.341	0	1	Feedback	AvoidedLoss	True
26.751	2.752	Lose2	1.0	n/a	Yes	2.752	n/a	n/a	GoodResponse	0	0.0	n/a	0	1	ISIslide	AvoidedLoss	True
29.526	0.25	Control	1.0	0.0	Yes	2.574	0.026	n/a	GoodResponse	0	n/a	n/a	0	2	Cue	Neutral	True
29.776	4.1	Control	1.0	0.0	Yes	2.574	0.0	n/a	GoodResponse	0	n/a	n/a	0	2	Fixation	Neutral	True
33.872	0.38	Control	1.0	0.004	Yes	2.574	-0.004	2.0	GoodResponse	0	0.216	33.088	0	2	Target	Neutral	True
34.088	0.3	Control	1.0	0.004	Yes	2.574	-0.004	2.0	GoodResponse	0	0.216	n/a	0	2	ButtonPress	Neutral	True
34.256	0.32	Control	1.0	n/a	Yes	2.574	n/a	n/a	GoodResponse	0	n/a	n/a	0	2	Blank	Neutral	True
34.574	1.45	Control	1.0	n/a	Yes	2.574	n/a	5.0	GoodResponse	0	0.034	33.608	0	2	Feedback	Neutral	True
36.028	2.574	Control	1.0	n/a	Yes	2.574	n/a	n/a	GoodResponse	0	0.0	n/a	0	2	ISIslide	Neutral	True
38.62	0.25	Win2	1.0	0.0	Yes	2.83	0.02	n/a	GoodResponse	1	n/a	n/a	1	3	Cue	Win	True
38.87	3.95	Win2	1.0	0.0	Yes	2.83	0.0	n/a	GoodResponse	1	n/a	n/a	1	3	Fixation	Win	True
42.832	0.37	Win2	1.0	0.0	Yes	2.83	0.012	2.0	GoodResponse	1	0.19	42.022	1	3	Target	Win	True
43.022	0.3	Win2	1.0	0.0	Yes	2.83	0.012	2.0	GoodResponse	1	0.19	n/a	1	3	ButtonPress	Win	True
43.2	0.33	Win2	1.0	n/a	Yes	2.83	n/a	n/a	GoodResponse	1	n/a	n/a	1	3	Blank	Win	True
43.517	1.45	Win2	1.0	n/a	Yes	2.83	n/a	5.0	GoodResponse	1	0.018	42.535	1	3	Feedback	Win	True
44.972	2.83	Win2	1.0	n/a	Yes	2.83	n/a	n/a	GoodResponse	1	0.0	n/a	1	3	ISIslide	Win	True
47.83	0.25	Win2	1.0	0.0	Yes	3.27	0.03	n/a	GoodResponse	1	n/a	n/a	2	4	Cue	Win	True
48.081	4.0	Win2	1.0	0.0	Yes	3.27	0.001	n/a	GoodResponse	1	n/a	n/a	2	4	Fixation	Win	True
52.076	0.36	Win2	1.0	0.004	Yes	3.27	-0.004	2.0	GoodResponse	1	0.221	51.297	2	4	Target	Win	True
52.297	0.3	Win2	1.0	0.004	Yes	3.27	-0.004	2.0	GoodResponse	1	0.221	n/a	2	4	ButtonPress	Win	True
52.444	0.34	Win2	1.0	n/a	Yes	3.27	n/a	n/a	GoodResponse	1	n/a	n/a	2	4	Blank	Win	True
52.778	1.45	Win2	1.0	n/a	Yes	3.27	n/a	5.0	GoodResponse	1	0.026	51.804	2	4	Feedback	Win	True
54.233	3.27	Win2	1.0	n/a	Yes	3.27	n/a	n/a	GoodResponse	1	0.0	n/a	2	4	ISIslide	Win	True
57.526	0.25	Win2	0.8332999999999999	0.0	No	2.774	0.026	n/a	PrematurePress	0	n/a	n/a	2	5	Cue	MissedWin	True
57.777	4.0	Win2	0.8332999999999999	0.0	No	2.774	0.001	n/a	PrematurePress	0	n/a	n/a	2	5	Fixation	MissedWin	True
61.772	0.35	Win2	0.8332999999999999	0.004	No	2.774	-0.004	2.0	PrematurePress	0	0.02	60.792	2	5	Target	MissedWin	True
61.792	0.3	Win2	0.8332999999999999	0.004	No	2.774	-0.004	2.0	PrematurePress	0	0.02	n/a	2	5	ButtonPress	MissedWin	True
62.123	0.35	Win2	0.8332999999999999	n/a	No	2.774	n/a	n/a	PrematurePress	0	n/a	n/a	2	5	Blank	MissedWin	True
62.474	1.45	Win2	0.8332999999999999	n/a	No	2.774	n/a	5.0	PrematurePress	0	0.037	61.511	2	5	Feedback	MissedWin	True
63.928	2.774	Win2	0.8332999999999999	n/a	No	2.774	n/a	n/a	PrematurePress	0	0.0	n/a	2	5	ISIslide	MissedWin	True
66.72	0.25	Lose2	0.8571	0.0	Yes	2.73	0.02	n/a	GoodResponse	0	n/a	n/a	2	6	Cue	AvoidedLoss	True
66.971	3.95	Lose2	0.8571	0.0	Yes	2.73	0.001	n/a	GoodResponse	0	n/a	n/a	2	6	Fixation	AvoidedLoss	True
70.916	0.34	Lose2	0.8571	0.004	Yes	2.73	-0.004	2.0	GoodResponse	0	0.277	70.193	2	6	Target	AvoidedLoss	True
71.193	0.3	Lose2	0.8571	0.004	Yes	2.73	-0.004	2.0	GoodResponse	0	0.277	n/a	2	6	ButtonPress	AvoidedLoss	True
71.267	0.36	Lose2	0.8571	n/a	Yes	2.73	n/a	n/a	GoodResponse	0	n/a	n/a	2	6	Blank	AvoidedLoss	True
71.618	1.45	Lose2	0.8571	n/a	Yes	2.73	n/a	5.0	GoodResponse	0	0.015	70.633	2	6	Feedback	AvoidedLoss	True
73.072	2.73	Lose2	0.8571	n/a	Yes	2.73	n/a	n/a	GoodResponse	0	0.0	n/a	2	6	ISIslide	AvoidedLoss	True
75.831	0.25	Lose2	0.875	0.0	Yes	4.019	0.031	n/a	GoodResponse	0	n/a	n/a	2	7	Cue	AvoidedLoss	True
76.081	4.05	Lose2	0.875	0.0	Yes	4.019	0.0	n/a	GoodResponse	0	n/a	n/a	2	7	Fixation	AvoidedLoss	True
80.127	0.33	Lose2	0.875	0.004	Yes	4.019	-0.004	2.0	GoodResponse	0	0.239	79.366	2	7	Target	AvoidedLoss	True
80.366	0.3	Lose2	0.875	0.004	Yes	4.019	-0.004	2.0	GoodResponse	0	0.239	n/a	2	7	ButtonPress	AvoidedLoss	True
80.461	0.37	Lose2	0.875	n/a	Yes	4.019	n/a	n/a	GoodResponse	0	n/a	n/a	2	7	Blank	AvoidedLoss	True
80.829	1.45	Lose2	0.875	n/a	Yes	4.019	n/a	5.0	GoodResponse	0	0.023	79.852	2	7	Feedback	AvoidedLoss	True
82.283	4.019	Lose2	0.875	n/a	Yes	4.019	n/a	n/a	GoodResponse	0	0.0	n/a	2	7	ISIslide	AvoidedLoss	True
86.329	0.25	Lose2	0.8889	0.0	Yes	3.021	0.029	n/a	GoodResponse	0	n/a	n/a	2	8	Cue	AvoidedLoss	True
86.579	3.95	Lose2	0.8889	0.0	Yes	3.021	0.0	n/a	GoodResponse	0	n/a	n/a	2	8	Fixation	AvoidedLoss	True
90.525	0.32	Lose2	0.8889	0.004	Yes	3.021	-0.004	2.0	GoodResponse	0	0.233	89.758	2	8	Target	AvoidedLoss	True
90.758	0.3	Lose2	0.8889	0.004	Yes	3.021	-0.004	2.0	GoodResponse	0	0.233	n/a	2	8	ButtonPress	AvoidedLoss	True
90.859	0.38	Lose2	0.8889	n/a	Yes	3.021	n/a	n/a	GoodResponse	0	n/a	n/a	2	8	Blank	AvoidedLoss	True
91.227	1.45	Lose2	0.8889	n/a	Yes	3.021	n/a	5.0	GoodResponse	0	0.015	90.242	2	8	Feedback	AvoidedLoss	True
92.681	3.021	Lose2	0.8889	n/a	Yes	3.021	n/a	n/a	GoodResponse	0	0.0	n/a	2	8	ISIslide	AvoidedLoss	True
95.723	0.25	Lose2	0.9	0.0	Yes	3.127	0.023	n/a	GoodResponse	0	n/a	n/a	2	9	Cue	AvoidedLoss	True
95.974	3.95	Lose2	0.9	0.0	Yes	3.127	0.001	n/a	GoodResponse	0	n/a	n/a	2	9	Fixation	AvoidedLoss	True
99.919	0.31	Lose2	0.9	0.004	Yes	3.127	-0.004	2.0	GoodResponse	0	0.243	99.162	2	9	Target	AvoidedLoss	True
100.162	0.3	Lose2	0.9	0.004	Yes	3.127	-0.004	2.0	GoodResponse	0	0.243	n/a	2	9	ButtonPress	AvoidedLoss	True
100.237	0.39	Lose2	0.9	n/a	Yes	3.127	n/a	n/a	GoodResponse	0	n/a	n/a	2	9	Blank	AvoidedLoss	True
100.621	1.45	Lose2	0.9	n/a	Yes	3.127	n/a	5.0	GoodResponse	0	0.036	99.657	2	9	Feedback	AvoidedLoss	True
102.076	3.127	Lose2	0.9	n/a	Yes	3.127	n/a	n/a	GoodResponse	0	0.0	n/a	2	9	ISIslide	AvoidedLoss	True
105.218	0.25	Control	0.8181999999999999	0.001	No	3.282	0.018	n/a	NoResponse	0	n/a	n/a	2	10	Cue	Neutral	False
105.469	4.0	Control	0.8181999999999999	0.0	No	3.282	0.001	2.0	NoResponse	0	3.785	108.254	2	10	Fixation	Neutral	False
109.254	0.3	Control	0.8181999999999999	0.0	No	3.282	0.001	2.0	NoResponse	0	3.785	n/a	2	10	ButtonPress	Neutral	False
109.464	0.3	Control	0.8181999999999999	0.004	No	3.282	-0.004	2.0	NoResponse	0	0.343	108.807	2	10	Target	Neutral	False
109.765	0.4	Control	0.8181999999999999	n/a	No	3.282	n/a	n/a	NoResponse	0	n/a	n/a	2	10	Blank	Neutral	False
109.807	0.3	Control	0.8181999999999999	0.004	No	3.282	-0.004	2.0	NoResponse	0	0.343	n/a	2	10	ButtonPress	Neutral	False
110.167	1.45	Control	0.8181999999999999	n/a	No	3.282	n/a	5.0	NoResponse	0	0.005	109.172	2	10	Feedback	Neutral	False
111.621	3.282	Control	0.8181999999999999	n/a	No	3.282	n/a	n/a	NoResponse	0	0.0	n/a	2	10	ISIslide	Neutral	False
114.931	0.25	Lose2	0.8332999999999999	0.0	Yes	2.719	0.031	n/a	GoodResponse	0	n/a	n/a	2	11	Cue	AvoidedLoss	True
115.181	4.05	Lose2	0.8332999999999999	0.001	Yes	2.719	0.0	n/a	GoodResponse	0	n/a	n/a	2	11	Fixation	AvoidedLoss	True
119.227	0.29	Lose2	0.8332999999999999	0.004	Yes	2.719	-0.004	2.0	GoodResponse	0	0.251	118.478	2	11	Target	AvoidedLoss	True
119.478	0.3	Lose2	0.8332999999999999	0.004	Yes	2.719	-0.004	2.0	GoodResponse	0	0.251	n/a	2	11	ButtonPress	AvoidedLoss	True
119.528	0.41	Lose2	0.8332999999999999	n/a	Yes	2.719	n/a	n/a	GoodResponse	0	n/a	n/a	2	11	Blank	AvoidedLoss	True
119.929	1.45	Lose2	0.8332999999999999	n/a	Yes	2.719	n/a	5.0	GoodResponse	0	0.044	118.973	2	11	Feedback	AvoidedLoss	True
121.383	2.719	Lose2	0.8332999999999999	n/a	Yes	2.719	n/a	n/a	GoodResponse	0	0.0	n/a	2	11	ISIslide	AvoidedLoss	True
124.125	0.25	Control	0.8462000000000001	0.0	Yes	2.975	0.025	n/a	GoodResponse	0	n/a	n/a	2	12	Cue	Neutral	True
124.376	3.9	Control	0.8462000000000001	0.0	Yes	2.975	0.001	n/a	GoodResponse	0	n/a	n/a	2	12	Fixation	Neutral	True
128.271	0.28	Control	0.8462000000000001	0.004	Yes	2.975	-0.004	2.0	GoodResponse	0	0.208	127.479	2	12	Target	Neutral	True
128.479	0.3	Control	0.8462000000000001	0.004	Yes	2.975	-0.004	2.0	GoodResponse	0	0.208	n/a	2	12	ButtonPress	Neutral	True
128.555	0.42	Control	0.8462000000000001	n/a	Yes	2.975	n/a	n/a	GoodResponse	0	n/a	n/a	2	12	Blank	Neutral	True
128.973	1.45	Control	0.8462000000000001	n/a	Yes	2.975	n/a	5.0	GoodResponse	0	0.025	127.998	2	12	Feedback	Neutral	True
130.427	2.975	Control	0.8462000000000001	n/a	Yes	2.975	n/a	n/a	GoodResponse	0	0.0	n/a	2	12	ISIslide	Neutral	True
133.419	0.25	Control	0.7857	0.0	No	2.781	0.019	n/a	LatePress	0	n/a	n/a	2	13	Cue	Neutral	True
133.67	4.0	Control	0.7857	0.0	No	2.781	0.001	n/a	LatePress	0	n/a	n/a	2	13	Fixation	Neutral	True
137.665	0.27	Control	0.7857	0.004	No	2.781	-0.004	2.0	LatePress	0	0.285	136.95	2	13	Target	Neutral	True
137.949	0.43	Control	0.7857	n/a	No	2.781	n/a	n/a	LatePress	0	n/a	n/a	2	13	Blank	Neutral	True
137.95	0.3	Control	0.7857	0.004	No	2.781	-0.004	2.0	LatePress	0	0.285	n/a	2	13	ButtonPress	Neutral	True
138.367	1.45	Control	0.7857	n/a	No	2.781	n/a	5.0	LatePress	0	0.046	137.413	2	13	Feedback	Neutral	True
139.822	2.781	Control	0.7857	n/a	No	2.781	n/a	n/a	LatePress	0	0.0	n/a	2	13	ISIslide	Neutral	True
142.63	0.25	Win2	0.8	0.0	Yes	2.67	0.03	n/a	GoodResponse	1	n/a	n/a	3	14	Cue	Win	True
142.881	4.1	Win2	0.8	0.0	Yes	2.67	0.001	n/a	GoodResponse	1	n/a	n/a	3	14	Fixation	Win	True
146.976	0.26	Win2	0.8	0.004	Yes	2.67	-0.004	2.0	GoodResponse	1	0.248	146.224	3	14	Target	Win	True
147.224	0.3	Win2	0.8	0.004	Yes	2.67	-0.004	2.0	GoodResponse	1	0.248	n/a	3	14	ButtonPress	Win	True
147.244	0.44	Win2	0.8	n/a	Yes	2.67	n/a	n/a	GoodResponse	1	n/a	n/a	3	14	Blank	Win	True
147.679	1.45	Win2	0.8	n/a	Yes	2.67	n/a	5.0	GoodResponse	1	0.004	146.683	3	14	Feedback	Win	True
149.133	2.67	Win2	0.8	n/a	Yes	2.67	n/a	n/a	GoodResponse	1	0.0	n/a	3	14	ISIslide	Win	True
151.824	0.25	Control	0.8125	0.0	Yes	2.976	0.024	n/a	GoodResponse	0	n/a	n/a	3	15	Cue	Neutral	True
152.075	4.0	Control	0.8125	0.0	Yes	2.976	0.001	n/a	GoodResponse	0	n/a	n/a	3	15	Fixation	Neutral	True
156.07	0.25	Control	0.8125	0.004	Yes	2.976	-0.004	2.0	GoodResponse	0	0.248	155.318	3	15	Target	Neutral	True
156.318	0.3	Control	0.8125	0.004	Yes	2.976	-0.004	2.0	GoodResponse	0	0.248	n/a	3	15	ButtonPress	Neutral	True
156.321	0.45	Control	0.8125	n/a	Yes	2.976	n/a	n/a	GoodResponse	0	n/a	n/a	3	15	Blank	Neutral	True
156.772	1.45	Control	0.8125	n/a	Yes	2.976	n/a	5.0	GoodResponse	0	0.03	155.802	3	15	Feedback	Neutral	True
158.227	2.976	Control	0.8125	n/a	Yes	2.976	n/a	n/a	GoodResponse	0	0.0	n/a	3	15	ISIslide	Neutral	True
161.219	0.25	Win2	0.8234999999999999	0.0	Yes	2.881	0.019	n/a	GoodResponse	1	n/a	n/a	4	16	Cue	Win	True
161.47	4.0	Win2	0.8234999999999999	0.0	Yes	2.881	0.001	n/a	GoodResponse	1	n/a	n/a	4	16	Fixation	Win	True
165.465	0.24	Win2	0.8234999999999999	0.004	Yes	2.881	-0.004	2.0	GoodResponse	1	0.228	164.693	4	16	Target	Win	True
165.693	0.3	Win2	0.8234999999999999	0.004	Yes	2.881	-0.004	2.0	GoodResponse	1	0.228	n/a	4	16	ButtonPress	Win	True
165.716	0.46	Win2	0.8234999999999999	n/a	Yes	2.881	n/a	n/a	GoodResponse	1	n/a	n/a	4	16	Blank	Win	True
166.167	1.45	Win2	0.8234999999999999	n/a	Yes	2.881	n/a	5.0	GoodResponse	1	0.001	165.168	4	16	Feedback	Win	True
167.621	2.881	Win2	0.8234999999999999	n/a	Yes	2.881	n/a	n/a	GoodResponse	1	0.0	n/a	4	16	ISIslide	Win	True
170.53	0.25	Lose2	0.7778	0.0	No	2.72	0.03	n/a	NoResponse	-1	n/a	n/a	3	17	Cue	Loss	True
170.781	3.95	Lose2	0.7778	0.0	No	2.72	0.001	n/a	NoResponse	-1	n/a	n/a	3	17	Fixation	Loss	True
174.726	0.23	Lose2	0.7778	0.004	No	2.72	-0.004	2.0	NoResponse	-1	0.292	174.018	3	17	Target	Loss	True
174.96	0.47	Lose2	0.7778	n/a	No	2.72	n/a	n/a	NoResponse	-1	n/a	n/a	3	17	Blank	Loss	True
175.018	0.3	Lose2	0.7778	0.004	No	2.72	-0.004	2.0	NoResponse	-1	0.292	n/a	3	17	ButtonPress	Loss	True
175.428	1.45	Lose2	0.7778	n/a	No	2.72	n/a	5.0	NoResponse	-1	0.008	174.436	3	17	Feedback	Loss	True
176.882	2.72	Lose2	0.7778	n/a	No	2.72	n/a	n/a	NoResponse	-1	0.0	n/a	3	17	ISIslide	Loss	True
179.624	0.25	Lose2	0.7895	0.0	Yes	2.726	0.024	n/a	GoodResponse	0	n/a	n/a	3	18	Cue	AvoidedLoss	True
179.875	4.05	Lose2	0.7895	0.0	Yes	2.726	0.001	n/a	GoodResponse	0	n/a	n/a	3	18	Fixation	AvoidedLoss	True
183.92	0.22	Lose2	0.7895	0.004	Yes	2.726	-0.004	2.0	GoodResponse	0	0.219	183.139	3	18	Target	AvoidedLoss	True
184.139	0.3	Lose2	0.7895	0.004	Yes	2.726	-0.004	2.0	GoodResponse	0	0.219	n/a	3	18	ButtonPress	AvoidedLoss	True
184.154	0.48	Lose2	0.7895	n/a	Yes	2.726	n/a	n/a	GoodResponse	0	n/a	n/a	3	18	Blank	AvoidedLoss	True
184.622	1.45	Lose2	0.7895	n/a	Yes	2.726	n/a	5.0	GoodResponse	0	0.034	183.656	3	18	Feedback	AvoidedLoss	True
186.077	2.726	Lose2	0.7895	n/a	Yes	2.726	n/a	n/a	GoodResponse	0	0.0	n/a	3	18	ISIslide	AvoidedLoss	True
188.818	0.25	Control	0.75	0.0	No	2.932	0.018	n/a	NoResponse	0	n/a	n/a	3	19	Cue	Neutral	True
189.069	3.95	Control	0.75	0.0	No	2.932	0.001	n/a	NoResponse	0	n/a	n/a	3	19	Fixation	Neutral	True
193.014	0.21	Control	0.75	0.004	No	2.932	-0.004	2.0	NoResponse	0	0.246	192.26	3	19	Target	Neutral	True
193.231	0.49	Control	0.75	n/a	No	2.932	n/a	n/a	NoResponse	0	n/a	n/a	3	19	Blank	Neutral	True
193.26	0.3	Control	0.75	0.004	No	2.932	-0.004	2.0	NoResponse	0	0.246	n/a	3	19	ButtonPress	Neutral	True
193.716	1.45	Control	0.75	n/a	No	2.932	n/a	5.0	NoResponse	0	0.012	192.728	3	19	Feedback	Neutral	True
195.17	2.932	Control	0.75	n/a	No	2.932	n/a	n/a	NoResponse	0	0.0	n/a	3	19	ISIslide	Neutral	True
198.129	0.25	Control	0.7619	0.0	Yes	2.621	0.029	n/a	GoodResponse	0	n/a	n/a	3	20	Cue	Neutral	True
198.38	4.05	Control	0.7619	0.0	Yes	2.621	0.001	n/a	GoodResponse	0	n/a	n/a	3	20	Fixation	Neutral	True
202.425	0.2	Control	0.7619	0.004	Yes	2.621	-0.004	2.0	GoodResponse	0	0.192	201.617	3	20	Target	Neutral	True
202.617	0.3	Control	0.7619	0.004	Yes	2.621	-0.004	2.0	GoodResponse	0	0.192	n/a	3	20	ButtonPress	Neutral	True
202.626	0.5	Control	0.7619	n/a	Yes	2.621	n/a	n/a	GoodResponse	0	n/a	n/a	3	20	Blank	Neutral	True
203.127	1.45	Control	0.7619	n/a	Yes	2.621	n/a	5.0	GoodResponse	0	0.016	202.143	3	20	Feedback	Neutral	True
204.582	2.621	Control	0.7619	n/a	Yes	2.621	n/a	n/a	GoodResponse	0	0.0	n/a	3	20	ISIslide	Neutral	True
207.223	0.25	Control	0.7273000000000001	0.0	No	2.777	0.023	n/a	NoResponse	0	n/a	n/a	3	21	Cue	Neutral	True
207.474	4.1	Control	0.7273000000000001	0.0	No	2.777	0.001	2.0	NoResponse	0	3.885	210.359	3	21	Fixation	Neutral	True
211.359	0.3	Control	0.7273000000000001	0.0	No	2.777	0.001	2.0	NoResponse	0	3.885	n/a	3	21	ButtonPress	Neutral	True
211.569	0.19	Control	0.7273000000000001	0.004	No	2.777	-0.004	n/a	NoResponse	0	n/a	n/a	3	21	Target	Neutral	True
211.77	0.51	Control	0.7273000000000001	n/a	No	2.777	n/a	n/a	NoResponse	0	n/a	n/a	3	21	Blank	Neutral	True
212.271	1.45	Control	0.7273000000000001	n/a	No	2.777	n/a	5.0	NoResponse	0	0.043	211.314	3	21	Feedback	Neutral	True
213.726	2.777	Control	0.7273000000000001	n/a	No	2.777	n/a	n/a	NoResponse	0	0.0	n/a	3	21	ISIslide	Neutral	True
216.517	0.25	Control	0.6957	0.001	No	2.783	0.017	n/a	NoResponse	0	n/a	n/a	3	22	Cue	Neutral	True
216.768	4.0	Control	0.6957	0.0	No	2.783	0.001	n/a	NoResponse	0	n/a	n/a	3	22	Fixation	Neutral	True
220.763	0.18	Control	0.6957	0.004	No	2.783	-0.004	2.0	NoResponse	0	0.215	219.978	3	22	Target	Neutral	True
220.947	0.52	Control	0.6957	n/a	No	2.783	n/a	n/a	NoResponse	0	n/a	n/a	3	22	Blank	Neutral	True
220.978	0.3	Control	0.6957	0.004	No	2.783	-0.004	2.0	NoResponse	0	0.215	n/a	3	22	ButtonPress	Neutral	True
221.466	1.45	Control	0.6957	n/a	No	2.783	n/a	5.0	NoResponse	0	0.019	220.485	3	22	Feedback	Neutral	True
222.92	2.783	Control	0.6957	n/a	No	2.783	n/a	n/a	NoResponse	0	0.0	n/a	3	22	ISIslide	Neutral	True
225.728	0.25	Control	0.6667000000000001	0.0	No	2.772	0.028	n/a	NoResponse	0	n/a	n/a	3	23	Cue	Neutral	True
225.979	3.9	Control	0.6667000000000001	0.0	No	2.772	0.001	n/a	NoResponse	0	n/a	n/a	3	23	Fixation	Neutral	True
229.874	0.17	Control	0.6667000000000001	0.004	No	2.772	-0.004	2.0	NoResponse	0	0.224	229.098	3	23	Target	Neutral	True
230.058	0.53	Control	0.6667000000000001	n/a	No	2.772	n/a	n/a	NoResponse	0	n/a	n/a	3	23	Blank	Neutral	True
230.098	0.3	Control	0.6667000000000001	0.004	No	2.772	-0.004	2.0	NoResponse	0	0.224	n/a	3	23	ButtonPress	Neutral	True
230.576	1.45	Control	0.6667000000000001	n/a	No	2.772	n/a	5.0	NoResponse	0	0.03	229.606	3	23	Feedback	Neutral	True
232.03	2.772	Control	0.6667000000000001	n/a	No	2.772	n/a	n/a	NoResponse	0	0.0	n/a	3	23	ISIslide	Neutral	True
234.822	0.25	Win2	0.64	0.0	No	3.128	0.022	n/a	NoResponse	0	n/a	n/a	3	24	Cue	MissedWin	True
235.073	3.95	Win2	0.64	0.0	No	3.128	0.001	n/a	NoResponse	0	n/a	n/a	3	24	Fixation	MissedWin	True
239.018	0.16	Win2	0.64	0.004	No	3.128	-0.004	2.0	NoResponse	0	0.192	238.21	3	24	Target	MissedWin	True
239.185	0.54	Win2	0.64	n/a	No	3.128	n/a	n/a	NoResponse	0	n/a	n/a	3	24	Blank	MissedWin	True
239.21	0.3	Win2	0.64	0.004	No	3.128	-0.004	2.0	NoResponse	0	0.192	n/a	3	24	ButtonPress	MissedWin	True
239.72	1.45	Win2	0.64	n/a	No	3.128	n/a	5.0	NoResponse	0	0.008	238.728	3	24	Feedback	MissedWin	True
241.174	3.128	Win2	0.64	n/a	No	3.128	n/a	n/a	NoResponse	0	0.0	n/a	3	24	ISIslide	MissedWin	True
244.317	0.25	Win2	0.6154	0.0	No	3.083	0.017	n/a	LatePress	0	n/a	n/a	3	25	Cue	MissedWin	True
244.568	4.0	Win2	0.6154	0.0	No	3.083	0.001	n/a	LatePress	0	n/a	n/a	3	25	Fixation	MissedWin	True
248.563	0.17	Win2	0.6154	0.004	No	3.083	-0.004	2.0	LatePress	0	0.179	247.742	3	25	Target	MissedWin	True
248.742	0.3	Win2	0.6154	0.004	No	3.083	-0.004	2.0	LatePress	0	0.179	n/a	3	25	ButtonPress	MissedWin	True
248.747	0.53	Win2	0.6154	n/a	No	3.083	n/a	n/a	LatePress	0	n/a	n/a	3	25	Blank	MissedWin	True
249.265	1.45	Win2	0.6154	n/a	No	3.083	n/a	5.0	LatePress	0	0.024	248.289	3	25	Feedback	MissedWin	True
250.72	3.083	Win2	0.6154	n/a	No	3.083	n/a	n/a	LatePress	0	0.0	n/a	3	25	ISIslide	MissedWin	True
253.829	0.25	Win2	0.5926	0.0	No	2.921	0.029	n/a	NoResponse	0	n/a	n/a	3	26	Cue	MissedWin	True
254.08	3.95	Win2	0.5926	0.0	No	2.921	0.001	n/a	NoResponse	0	n/a	n/a	3	26	Fixation	MissedWin	True
258.025	0.18	Win2	0.5926	0.004	No	2.921	-0.004	2.0	NoResponse	0	0.209	257.234	3	26	Target	MissedWin	True
258.209	0.52	Win2	0.5926	n/a	No	2.921	n/a	n/a	NoResponse	0	n/a	n/a	3	26	Blank	MissedWin	True
258.234	0.3	Win2	0.5926	0.004	No	2.921	-0.004	2.0	NoResponse	0	0.209	n/a	3	26	ButtonPress	MissedWin	True
258.727	1.45	Win2	0.5926	n/a	No	2.921	n/a	5.0	NoResponse	0	0.025	257.752	3	26	Feedback	MissedWin	True
260.181	2.921	Win2	0.5926	n/a	No	2.921	n/a	n/a	NoResponse	0	0.0	n/a	3	26	ISIslide	MissedWin	True
263.123	0.25	Lose2	0.5714	0.0	No	2.827	0.023	n/a	NoResponse	-1	n/a	n/a	2	27	Cue	Loss	True
263.374	4.05	Lose2	0.5714	0.0	No	2.827	0.001	n/a	NoResponse	-1	n/a	n/a	2	27	Fixation	Loss	True
267.419	0.19	Lose2	0.5714	0.004	No	2.827	-0.004	2.0	NoResponse	-1	0.209	266.628	2	27	Target	Loss	True
267.62	0.51	Lose2	0.5714	n/a	No	2.827	n/a	n/a	NoResponse	-1	n/a	n/a	2	27	Blank	Loss	True
267.628	0.3	Lose2	0.5714	0.004	No	2.827	-0.004	2.0	NoResponse	-1	0.209	n/a	2	27	ButtonPress	Loss	True
268.122	1.45	Lose2	0.5714	n/a	No	2.827	n/a	5.0	NoResponse	-1	0.044	267.166	2	27	Feedback	Loss	True
269.576	2.827	Lose2	0.5714	n/a	No	2.827	n/a	n/a	NoResponse	-1	0.0	n/a	2	27	ISIslide	Loss	True
272.418	0.25	Control	0.5517	0.0	No	2.832	0.018	n/a	NoResponse	0	n/a	n/a	2	28	Cue	Neutral	True
272.668	4.05	Control	0.5517	0.001	No	2.832	0.0	n/a	NoResponse	0	n/a	n/a	2	28	Fixation	Neutral	True
276.714	0.2	Control	0.5517	0.004	No	2.832	-0.004	2.0	NoResponse	0	0.213	275.927	2	28	Target	Neutral	True
276.914	0.5	Control	0.5517	n/a	No	2.832	n/a	n/a	NoResponse	0	n/a	n/a	2	28	Blank	Neutral	True
276.927	0.3	Control	0.5517	0.004	No	2.832	-0.004	2.0	NoResponse	0	0.213	n/a	2	28	ButtonPress	Neutral	True
277.416	1.45	Control	0.5517	n/a	No	2.832	n/a	5.0	NoResponse	0	0.018	276.434	2	28	Feedback	Neutral	True
278.87	2.832	Control	0.5517	n/a	No	2.832	n/a	n/a	NoResponse	0	0.0	n/a	2	28	ISIslide	Neutral	True
281.729	0.25	Lose2	0.5667	0.0	Yes	2.821	0.029	n/a	GoodResponse	0	n/a	n/a	2	29	Cue	AvoidedLoss	True
281.98	3.95	Lose2	0.5667	0.0	Yes	2.821	0.001	n/a	GoodResponse	0	n/a	n/a	2	29	Fixation	AvoidedLoss	True
285.925	0.21	Lose2	0.5667	0.004	Yes	2.821	-0.004	2.0	GoodResponse	0	0.208	285.133	2	29	Target	AvoidedLoss	True
286.133	0.3	Lose2	0.5667	0.004	Yes	2.821	-0.004	2.0	GoodResponse	0	0.208	n/a	2	29	ButtonPress	AvoidedLoss	True
286.142	0.49	Lose2	0.5667	n/a	Yes	2.821	n/a	n/a	GoodResponse	0	n/a	n/a	2	29	Blank	AvoidedLoss	True
286.627	1.45	Lose2	0.5667	n/a	Yes	2.821	n/a	5.0	GoodResponse	0	0.027	285.654	2	29	Feedback	AvoidedLoss	True
288.081	2.821	Lose2	0.5667	n/a	Yes	2.821	n/a	n/a	GoodResponse	0	0.0	n/a	2	29	ISIslide	AvoidedLoss	True
290.923	0.25	Win2	0.5806	0.0	Yes	2.777	0.023	n/a	GoodResponse	1	n/a	n/a	3	30	Cue	Win	True
291.174	3.9	Win2	0.5806	0.0	Yes	2.777	0.001	n/a	GoodResponse	1	n/a	n/a	3	30	Fixation	Win	True
295.069	0.22	Win2	0.5806	0.004	Yes	2.777	-0.004	2.0	GoodResponse	1	0.195	294.264	3	30	Target	Win	True
295.264	0.3	Win2	0.5806	0.004	Yes	2.777	-0.004	2.0	GoodResponse	1	0.195	n/a	3	30	ButtonPress	Win	True
295.303	0.48	Win2	0.5806	n/a	Yes	2.777	n/a	n/a	GoodResponse	1	n/a	n/a	3	30	Blank	Win	True
295.771	1.45	Win2	0.5806	n/a	Yes	2.777	n/a	5.0	GoodResponse	1	0.007	294.778	3	30	Feedback	Win	True
297.225	2.777	Win2	0.5806	n/a	Yes	2.777	n/a	n/a	GoodResponse	1	0.0	n/a	3	30	ISIslide	Win	True
300.017	0.25	Lose2	0.5938	0.0	Yes	2.833	0.017	n/a	GoodResponse	0	n/a	n/a	3	31	Cue	AvoidedLoss	True
300.268	4.05	Lose2	0.5938	0.0	Yes	2.833	0.001	n/a	GoodResponse	0	n/a	n/a	3	31	Fixation	AvoidedLoss	True
304.313	0.23	Lose2	0.5938	0.004	Yes	2.833	-0.004	2.0	GoodResponse	0	0.213	303.526	3	31	Target	AvoidedLoss	True
304.526	0.3	Lose2	0.5938	0.004	Yes	2.833	-0.004	2.0	GoodResponse	0	0.213	n/a	3	31	ButtonPress	AvoidedLoss	True
304.547	0.47	Lose2	0.5938	n/a	Yes	2.833	n/a	n/a	GoodResponse	0	n/a	n/a	3	31	Blank	AvoidedLoss	True
305.015	1.45	Lose2	0.5938	n/a	Yes	2.833	n/a	5.0	GoodResponse	0	0.029	304.044	3	31	Feedback	AvoidedLoss	True
306.469	2.833	Lose2	0.5938	n/a	Yes	2.833	n/a	n/a	GoodResponse	0	0.0	n/a	3	31	ISIslide	AvoidedLoss	True
309.328	0.25	Lose2	0.6061	0.0	Yes	2.622	0.028	n/a	GoodResponse	0	n/a	n/a	3	32	Cue	AvoidedLoss	True
309.579	4.15	Lose2	0.6061	0.0	Yes	2.622	0.001	n/a	GoodResponse	0	n/a	n/a	3	32	Fixation	AvoidedLoss	True
313.724	0.24	Lose2	0.6061	0.004	Yes	2.622	-0.004	2.0	GoodResponse	0	0.197	312.921	3	32	Target	AvoidedLoss	True
313.921	0.3	Lose2	0.6061	0.004	Yes	2.622	-0.004	2.0	GoodResponse	0	0.197	n/a	3	32	ButtonPress	AvoidedLoss	True
313.975	0.46	Lose2	0.6061	n/a	Yes	2.622	n/a	n/a	GoodResponse	0	n/a	n/a	3	32	Blank	AvoidedLoss	True
314.427	1.45	Lose2	0.6061	n/a	Yes	2.622	n/a	5.0	GoodResponse	0	0.031	313.458	3	32	Feedback	AvoidedLoss	True
315.881	2.622	Lose2	0.6061	n/a	Yes	2.622	n/a	n/a	GoodResponse	0	0.0	n/a	3	32	ISIslide	AvoidedLoss	True
318.522	0.25	Win2	0.6175999999999999	0.0	Yes	2.678	0.022	n/a	GoodResponse	1	n/a	n/a	4	33	Cue	Win	True
318.773	4.0	Win2	0.6175999999999999	0.0	Yes	2.678	0.001	n/a	GoodResponse	1	n/a	n/a	4	33	Fixation	Win	True
322.768	0.25	Win2	0.6175999999999999	0.004	Yes	2.678	-0.004	2.0	GoodResponse	1	0.185	321.953	4	33	Target	Win	True
322.953	0.3	Win2	0.6175999999999999	0.004	Yes	2.678	-0.004	2.0	GoodResponse	1	0.185	n/a	4	33	ButtonPress	Win	True
323.019	0.45	Win2	0.6175999999999999	n/a	Yes	2.678	n/a	n/a	GoodResponse	1	n/a	n/a	4	33	Blank	Win	True
323.47	1.45	Win2	0.6175999999999999	n/a	Yes	2.678	n/a	5.0	GoodResponse	1	0.013	322.483	4	33	Feedback	Win	True
324.925	2.678	Win2	0.6175999999999999	n/a	Yes	2.678	n/a	n/a	GoodResponse	1	0.0	n/a	4	33	ISIslide	Win	True
327.616	0.25	Lose2	0.6286	0.0	Yes	2.634	0.016	n/a	GoodResponse	0	n/a	n/a	4	34	Cue	AvoidedLoss	True
327.867	4.05	Lose2	0.6286	0.0	Yes	2.634	0.001	n/a	GoodResponse	0	n/a	n/a	4	34	Fixation	AvoidedLoss	True
331.912	0.26	Lose2	0.6286	0.004	Yes	2.634	-0.004	2.0	GoodResponse	0	0.202	331.114	4	34	Target	AvoidedLoss	True
332.114	0.3	Lose2	0.6286	0.004	Yes	2.634	-0.004	2.0	GoodResponse	0	0.202	n/a	4	34	ButtonPress	AvoidedLoss	True
332.18	0.44	Lose2	0.6286	n/a	Yes	2.634	n/a	n/a	GoodResponse	0	n/a	n/a	4	34	Blank	AvoidedLoss	True
332.614	1.45	Lose2	0.6286	n/a	Yes	2.634	n/a	5.0	GoodResponse	0	0.04	331.654	4	34	Feedback	AvoidedLoss	True
334.069	2.634	Lose2	0.6286	n/a	Yes	2.634	n/a	n/a	GoodResponse	0	0.0	n/a	4	34	ISIslide	AvoidedLoss	True
336.726	0.25	Lose2	0.6389	0.001	Yes	2.674	0.026	n/a	GoodResponse	0	n/a	n/a	4	35	Cue	AvoidedLoss	True
336.977	4.0	Lose2	0.6389	0.0	Yes	2.674	0.001	n/a	GoodResponse	0	n/a	n/a	4	35	Fixation	AvoidedLoss	True
340.972	0.27	Lose2	0.6389	0.004	Yes	2.674	-0.004	2.0	GoodResponse	0	0.229	340.201	4	35	Target	AvoidedLoss	True
341.201	0.3	Lose2	0.6389	0.004	Yes	2.674	-0.004	2.0	GoodResponse	0	0.229	n/a	4	35	ButtonPress	AvoidedLoss	True
341.257	0.43	Lose2	0.6389	n/a	Yes	2.674	n/a	n/a	GoodResponse	0	n/a	n/a	4	35	Blank	AvoidedLoss	True
341.675	1.45	Lose2	0.6389	n/a	Yes	2.674	n/a	5.0	GoodResponse	0	0.005	340.68	4	35	Feedback	AvoidedLoss	True
343.129	2.674	Lose2	0.6389	n/a	Yes	2.674	n/a	n/a	GoodResponse	0	0.0	n/a	4	35	ISIslide	AvoidedLoss	True
345.82	0.25	Control	0.6486	0.0	Yes	2.68	0.02	n/a	GoodResponse	0	n/a	n/a	4	36	Cue	Neutral	True
346.071	4.0	Control	0.6486	0.0	Yes	2.68	0.001	n/a	GoodResponse	0	n/a	n/a	4	36	Fixation	Neutral	True
350.066	0.28	Control	0.6486	0.004	Yes	2.68	-0.004	2.0	GoodResponse	0	0.221	349.287	4	36	Target	Neutral	True
350.287	0.3	Control	0.6486	0.004	Yes	2.68	-0.004	2.0	GoodResponse	0	0.221	n/a	4	36	ButtonPress	Neutral	True
350.35	0.42	Control	0.6486	n/a	Yes	2.68	n/a	n/a	GoodResponse	0	n/a	n/a	4	36	Blank	Neutral	True
350.768	1.45	Control	0.6486	n/a	Yes	2.68	n/a	5.0	GoodResponse	0	0.031	349.799	4	36	Feedback	Neutral	True
352.223	2.68	Control	0.6486	n/a	Yes	2.68	n/a	n/a	GoodResponse	0	0.0	n/a	4	36	ISIslide	Neutral	True
354.931	0.25	Win2	0.6579	0.0	Yes	2.869	0.031	n/a	GoodResponse	1	n/a	n/a	5	37	Cue	Win	True
355.182	4.0	Win2	0.6579	0.0	Yes	2.869	0.001	n/a	GoodResponse	1	n/a	n/a	5	37	Fixation	Win	True
359.177	0.29	Win2	0.6579	0.004	Yes	2.869	-0.004	2.0	GoodResponse	1	0.227	358.404	5	37	Target	Win	True
359.404	0.3	Win2	0.6579	0.004	Yes	2.869	-0.004	2.0	GoodResponse	1	0.227	n/a	5	37	ButtonPress	Win	True
359.478	0.41	Win2	0.6579	n/a	Yes	2.869	n/a	n/a	GoodResponse	1	n/a	n/a	5	37	Blank	Win	True
359.879	1.45	Win2	0.6579	n/a	Yes	2.869	n/a	5.0	GoodResponse	1	0.042	358.921	5	37	Feedback	Win	True
361.333	2.869	Win2	0.6579	n/a	Yes	2.869	n/a	n/a	GoodResponse	1	0.0	n/a	5	37	ISIslide	Win	True
364.225	0.25	Lose2	0.6667000000000001	0.0	Yes	2.825	0.025	n/a	GoodResponse	0	n/a	n/a	5	38	Cue	AvoidedLoss	True
364.476	3.95	Lose2	0.6667000000000001	0.0	Yes	2.825	0.001	n/a	GoodResponse	0	n/a	n/a	5	38	Fixation	AvoidedLoss	True
368.421	0.29	Lose2	0.6667000000000001	0.004	Yes	2.825	-0.004	2.0	GoodResponse	0	0.207	367.628	5	38	Target	AvoidedLoss	True
368.628	0.3	Lose2	0.6667000000000001	0.004	Yes	2.825	-0.004	2.0	GoodResponse	0	0.207	n/a	5	38	ButtonPress	AvoidedLoss	True
368.722	0.41	Lose2	0.6667000000000001	n/a	Yes	2.825	n/a	n/a	GoodResponse	0	n/a	n/a	5	38	Blank	AvoidedLoss	True
369.123	1.45	Lose2	0.6667000000000001	n/a	Yes	2.825	n/a	5.0	GoodResponse	0	0.018	368.141	5	38	Feedback	AvoidedLoss	True
370.578	2.825	Lose2	0.6667000000000001	n/a	Yes	2.825	n/a	n/a	GoodResponse	0	0.0	n/a	5	38	ISIslide	AvoidedLoss	True
373.419	0.25	Win2	0.675	0.0	Yes	2.981	0.019	n/a	GoodResponse	1	n/a	n/a	6	39	Cue	Win	True
373.67	4.1	Win2	0.675	0.0	Yes	2.981	0.001	n/a	GoodResponse	1	n/a	n/a	6	39	Fixation	Win	True
377.766	0.28	Win2	0.675	0.003	Yes	2.981	-0.003	2.0	GoodResponse	1	0.193	376.959	6	39	Target	Win	True
377.959	0.3	Win2	0.675	0.003	Yes	2.981	-0.003	2.0	GoodResponse	1	0.193	n/a	6	39	ButtonPress	Win	True
378.05	0.42	Win2	0.675	n/a	Yes	2.981	n/a	n/a	GoodResponse	1	n/a	n/a	6	39	Blank	Win	True
378.468	1.45	Win2	0.675	n/a	Yes	2.981	n/a	5.0	GoodResponse	1	0.038	377.506	6	39	Feedback	Win	True
379.922	2.981	Win2	0.675	n/a	Yes	2.981	n/a	n/a	GoodResponse	1	0.0	n/a	6	39	ISIslide	Win	True
382.931	0.25	Win2	0.6829000000000001	0.0	Yes	2.719	0.031	n/a	GoodResponse	1	n/a	n/a	7	40	Cue	Win	True
383.182	3.95	Win2	0.6829000000000001	0.0	Yes	2.719	0.001	n/a	GoodResponse	1	n/a	n/a	7	40	Fixation	Win	True
387.127	0.27	Win2	0.6829000000000001	0.004	Yes	2.719	-0.004	2.0	GoodResponse	1	0.268	386.395	7	40	Target	Win	True
387.395	0.3	Win2	0.6829000000000001	0.004	Yes	2.719	-0.004	2.0	GoodResponse	1	0.268	n/a	7	40	ButtonPress	Win	True
387.411	0.43	Win2	0.6829000000000001	n/a	Yes	2.719	n/a	n/a	GoodResponse	1	n/a	n/a	7	40	Blank	Win	True
387.829	1.45	Win2	0.6829000000000001	n/a	Yes	2.719	n/a	5.0	GoodResponse	1	0.043	386.872	7	40	Feedback	Win	True
389.283	2.719	Win2	0.6829000000000001	n/a	Yes	2.719	n/a	n/a	GoodResponse	1	0.0	n/a	7	40	ISIslide	Win	True
392.025	0.25	Win2	0.6905	0.0	Yes	2.775	0.025	n/a	GoodResponse	1	n/a	n/a	8	41	Cue	Win	True
392.276	3.9	Win2	0.6905	0.0	Yes	2.775	0.001	n/a	GoodResponse	1	n/a	n/a	8	41	Fixation	Win	True
396.171	0.26	Win2	0.6905	0.004	Yes	2.775	-0.004	2.0	GoodResponse	1	0.212	395.383	8	41	Target	Win	True
396.383	0.3	Win2	0.6905	0.004	Yes	2.775	-0.004	2.0	GoodResponse	1	0.212	n/a	8	41	ButtonPress	Win	True
396.438	0.44	Win2	0.6905	n/a	Yes	2.775	n/a	n/a	GoodResponse	1	n/a	n/a	8	41	Blank	Win	True
396.873	1.45	Win2	0.6905	n/a	Yes	2.775	n/a	5.0	GoodResponse	1	0.023	395.896	8	41	Feedback	Win	True
398.327	2.775	Win2	0.6905	n/a	Yes	2.775	n/a	n/a	GoodResponse	1	0.0	n/a	8	41	ISIslide	Win	True
401.119	0.25	Control	0.6977	0.0	Yes	2.931	0.019	n/a	GoodResponse	0	n/a	n/a	8	42	Cue	Neutral	True
401.37	3.85	Control	0.6977	0.0	Yes	2.931	0.001	n/a	GoodResponse	0	n/a	n/a	8	42	Fixation	Neutral	True
405.231	0.25	Control	0.6977	0.0	Yes	2.931	0.012	2.0	GoodResponse	0	0.195	404.426	8	42	Target	Neutral	True
405.426	0.3	Control	0.6977	0.0	Yes	2.931	0.012	2.0	GoodResponse	0	0.195	n/a	8	42	ButtonPress	Neutral	True
405.465	0.45	Control	0.6977	n/a	Yes	2.931	n/a	n/a	GoodResponse	0	n/a	n/a	8	42	Blank	Neutral	True
405.916	1.45	Control	0.6977	n/a	Yes	2.931	n/a	5.0	GoodResponse	0	0.008	404.924	8	42	Feedback	Neutral	True
407.371	2.931	Control	0.6977	n/a	Yes	2.931	n/a	n/a	GoodResponse	0	0.0	n/a	8	42	ISIslide	Neutral	True
410.33	0.25	Win2	0.7045	0.0	Yes	3.17	0.03	n/a	GoodResponse	1	n/a	n/a	9	43	Cue	Win	True
410.58	4.0	Win2	0.7045	0.0	Yes	3.17	0.0	n/a	GoodResponse	1	n/a	n/a	9	43	Fixation	Win	True
414.576	0.24	Win2	0.7045	0.004	Yes	3.17	-0.004	2.0	GoodResponse	1	0.221	413.797	9	43	Target	Win	True
414.797	0.3	Win2	0.7045	0.004	Yes	3.17	-0.004	2.0	GoodResponse	1	0.221	n/a	9	43	ButtonPress	Win	True
414.826	0.46	Win2	0.7045	n/a	Yes	3.17	n/a	n/a	GoodResponse	1	n/a	n/a	9	43	Blank	Win	True
415.278	1.45	Win2	0.7045	n/a	Yes	3.17	n/a	5.0	GoodResponse	1	0.008	414.286	9	43	Feedback	Win	True
416.732	3.17	Win2	0.7045	n/a	Yes	3.17	n/a	n/a	GoodResponse	1	0.0	n/a	9	43	ISIslide	Win	True
419.925	0.25	Win2	0.6889	0.0	No	2.975	0.025	n/a	NoResponse	0	n/a	n/a	9	44	Cue	MissedWin	True
420.176	4.0	Win2	0.6889	0.0	No	2.975	0.001	n/a	NoResponse	0	n/a	n/a	9	44	Fixation	MissedWin	True
424.171	0.23	Win2	0.6889	0.004	No	2.975	-0.004	2.0	NoResponse	0	0.255	423.426	9	44	Target	MissedWin	True
424.405	0.47	Win2	0.6889	n/a	No	2.975	n/a	n/a	NoResponse	0	n/a	n/a	9	44	Blank	MissedWin	True
424.426	0.3	Win2	0.6889	0.004	No	2.975	-0.004	2.0	NoResponse	0	0.255	n/a	9	44	ButtonPress	MissedWin	True
424.873	1.45	Win2	0.6889	n/a	No	2.975	n/a	5.0	NoResponse	0	0.023	423.896	9	44	Feedback	MissedWin	True
426.327	2.975	Win2	0.6889	n/a	No	2.975	n/a	n/a	NoResponse	0	0.0	n/a	9	44	ISIslide	MissedWin	True
429.32	0.25	Control	0.6957	0.0	Yes	2.88	0.02	n/a	GoodResponse	0	n/a	n/a	9	45	Cue	Neutral	True
429.57	4.1	Control	0.6957	0.0	Yes	2.88	0.0	n/a	GoodResponse	0	n/a	n/a	9	45	Fixation	Neutral	True
433.666	0.22	Control	0.6957	0.004	Yes	2.88	-0.004	2.0	GoodResponse	0	0.193	432.859	9	45	Target	Neutral	True
433.859	0.3	Control	0.6957	0.004	Yes	2.88	-0.004	2.0	GoodResponse	0	0.193	n/a	9	45	ButtonPress	Neutral	True
433.9	0.48	Control	0.6957	n/a	Yes	2.88	n/a	n/a	GoodResponse	0	n/a	n/a	9	45	Blank	Neutral	True
434.368	1.45	Control	0.6957	n/a	Yes	2.88	n/a	5.0	GoodResponse	0	0.04	433.408	9	45	Feedback	Neutral	True
435.822	2.88	Control	0.6957	n/a	Yes	2.88	n/a	n/a	GoodResponse	0	0.0	n/a	9	45	ISIslide	Neutral	True
438.714	0.25	Lose2	0.6809000000000001	0.0	No	3.386	0.014	n/a	NoResponse	-1	n/a	n/a	8	46	Cue	Loss	True
438.965	4.0	Lose2	0.6809000000000001	0.0	No	3.386	0.001	n/a	NoResponse	-1	n/a	n/a	8	46	Fixation	Loss	True
442.96	0.21	Lose2	0.6809000000000001	0.004	No	3.386	-0.004	2.0	NoResponse	-1	0.23	442.19	8	46	Target	Loss	True
443.178	0.49	Lose2	0.6809000000000001	n/a	No	3.386	n/a	n/a	NoResponse	-1	n/a	n/a	8	46	Blank	Loss	True
443.19	0.3	Lose2	0.6809000000000001	0.004	No	3.386	-0.004	2.0	NoResponse	-1	0.23	n/a	8	46	ButtonPress	Loss	True
443.662	1.45	Lose2	0.6809000000000001	n/a	No	3.386	n/a	5.0	NoResponse	-1	0.014	442.676	8	46	Feedback	Loss	True
445.117	3.386	Lose2	0.6809000000000001	n/a	No	3.386	n/a	n/a	NoResponse	-1	0.0	n/a	8	46	ISIslide	Loss	True
448.527	0.25	Lose2	0.6667000000000001	0.0	No	2.673	0.027	n/a	NoResponse	-1	n/a	n/a	7	47	Cue	Loss	True
448.778	4.0	Lose2	0.6667000000000001	0.0	No	2.673	0.001	n/a	NoResponse	-1	n/a	n/a	7	47	Fixation	Loss	True
452.773	0.2	Lose2	0.6667000000000001	0.004	No	2.673	-0.004	2.0	NoResponse	-1	0.249	452.022	7	47	Target	Loss	True
452.974	0.5	Lose2	0.6667000000000001	n/a	No	2.673	n/a	n/a	NoResponse	-1	n/a	n/a	7	47	Blank	Loss	True
453.022	0.3	Lose2	0.6667000000000001	0.004	No	2.673	-0.004	2.0	NoResponse	-1	0.249	n/a	7	47	ButtonPress	Loss	True
453.475	1.45	Lose2	0.6667000000000001	n/a	No	2.673	n/a	5.0	NoResponse	-1	0.006	452.481	7	47	Feedback	Loss	True
454.929	2.673	Lose2	0.6667000000000001	n/a	No	2.673	n/a	n/a	NoResponse	-1	0.0	n/a	7	47	ISIslide	Loss	True
457.621	0.25	Lose2	0.6531	0.0	No	3.029	0.021	n/a	NoResponse	-1	n/a	n/a	6	48	Cue	Loss	True
457.872	3.95	Lose2	0.6531	0.0	No	3.029	0.001	n/a	NoResponse	-1	n/a	n/a	6	48	Fixation	Loss	True
461.817	0.19	Lose2	0.6531	0.004	No	3.029	-0.004	2.0	NoResponse	-1	0.209	461.026	6	48	Target	Loss	True
462.017	0.51	Lose2	0.6531	n/a	No	3.029	n/a	n/a	NoResponse	-1	n/a	n/a	6	48	Blank	Loss	True
462.026	0.3	Lose2	0.6531	0.004	No	3.029	-0.004	2.0	NoResponse	-1	0.209	n/a	6	48	ButtonPress	Loss	True
462.519	1.45	Lose2	0.6531	n/a	No	3.029	n/a	5.0	NoResponse	-1	0.035	461.554	6	48	Feedback	Loss	True
463.973	3.029	Lose2	0.6531	n/a	No	3.029	n/a	n/a	NoResponse	-1	0.0	n/a	6	48	ISIslide	Loss	True
467.016	0.25	Control	0.64	0.0	No	2.884	0.016	n/a	NoResponse	0	n/a	n/a	6	49	Cue	Neutral	True
467.266	4.0	Control	0.64	0.0	No	2.884	0.0	n/a	NoResponse	0	n/a	n/a	6	49	Fixation	Neutral	True
471.262	0.2	Control	0.64	0.004	No	2.884	-0.004	2.0	NoResponse	0	0.285	470.547	6	49	Target	Neutral	True
471.462	0.5	Control	0.64	n/a	No	2.884	n/a	n/a	NoResponse	0	n/a	n/a	6	49	Blank	Neutral	True
471.547	0.3	Control	0.64	0.004	No	2.884	-0.004	2.0	NoResponse	0	0.285	n/a	6	49	ButtonPress	Neutral	True
471.964	1.45	Control	0.64	n/a	No	2.884	n/a	5.0	NoResponse	0	0.007	470.971	6	49	Feedback	Neutral	True
473.418	2.884	Control	0.64	n/a	No	2.884	n/a	n/a	NoResponse	0	0.0	n/a	6	49	ISIslide	Neutral	True
476.327	0.25	Control	0.6275	0.0	No	2.773	0.027	n/a	NoResponse	0	n/a	n/a	6	50	Cue	Neutral	True
476.577	4.0	Control	0.6275	0.001	No	2.773	0.0	n/a	NoResponse	0	n/a	n/a	6	50	Fixation	Neutral	True
480.573	0.21	Control	0.6275	0.004	No	2.773	-0.004	2.0	NoResponse	0	0.218	479.791	6	50	Target	Neutral	True
480.79	0.49	Control	0.6275	n/a	No	2.773	n/a	n/a	NoResponse	0	n/a	n/a	6	50	Blank	Neutral	True
480.791	0.3	Control	0.6275	0.004	No	2.773	-0.004	2.0	NoResponse	0	0.218	n/a	6	50	ButtonPress	Neutral	True
481.275	1.45	Control	0.6275	n/a	No	2.773	n/a	5.0	NoResponse	0	0.01	480.285	6	50	Feedback	Neutral	True
482.729	2.773	Control	0.6275	n/a	No	2.773	n/a	n/a	NoResponse	0	0.0	n/a	6	50	ISIslide	Neutral	True
485.521	0.25	Control	0.6154	0.0	No	2.729	0.021	n/a	NoResponse	0	n/a	n/a	6	51	Cue	Neutral	True
485.772	3.95	Control	0.6154	0.0	No	2.729	0.001	n/a	NoResponse	0	n/a	n/a	6	51	Fixation	Neutral	True
489.717	0.22	Control	0.6154	0.004	No	2.729	-0.004	2.0	NoResponse	0	0.253	488.97	6	51	Target	Neutral	True
489.951	0.48	Control	0.6154	n/a	No	2.729	n/a	n/a	NoResponse	0	n/a	n/a	6	51	Blank	Neutral	True
489.97	0.3	Control	0.6154	0.004	No	2.729	-0.004	2.0	NoResponse	0	0.253	n/a	6	51	ButtonPress	Neutral	True
490.419	1.45	Control	0.6154	n/a	No	2.729	n/a	5.0	NoResponse	0	0.036	489.455	6	51	Feedback	Neutral	True
491.873	2.729	Control	0.6154	n/a	No	2.729	n/a	n/a	NoResponse	0	0.0	n/a	6	51	ISIslide	Neutral	True
494.615	0.25	Control	0.6225999999999999	0.0	Yes	2.635	0.015	n/a	GoodResponse	0	n/a	n/a	6	52	Cue	Neutral	True
494.865	4.05	Control	0.6225999999999999	0.0	Yes	2.635	0.0	n/a	GoodResponse	0	n/a	n/a	6	52	Fixation	Neutral	True
498.911	0.23	Control	0.6225999999999999	0.004	Yes	2.635	-0.004	2.0	GoodResponse	0	0.21	498.121	6	52	Target	Neutral	True
499.121	0.3	Control	0.6225999999999999	0.004	Yes	2.635	-0.004	2.0	GoodResponse	0	0.21	n/a	6	52	ButtonPress	Neutral	True
499.145	0.47	Control	0.6225999999999999	n/a	Yes	2.635	n/a	n/a	GoodResponse	0	n/a	n/a	6	52	Blank	Neutral	True
499.613	1.45	Control	0.6225999999999999	n/a	Yes	2.635	n/a	5.0	GoodResponse	0	0.013	498.626	6	52	Feedback	Neutral	True
501.067	2.635	Control	0.6225999999999999	n/a	Yes	2.635	n/a	n/a	GoodResponse	0	0.0	n/a	6	52	ISIslide	Neutral	True
503.725	0.25	Win2	0.6296	0.0	Yes	2.925	0.025	n/a	GoodResponse	1	n/a	n/a	7	53	Cue	Win	True
503.976	4.05	Win2	0.6296	0.0	Yes	2.925	0.001	n/a	GoodResponse	1	n/a	n/a	7	53	Fixation	Win	True
508.021	0.24	Win2	0.6296	0.004	Yes	2.925	-0.004	2.0	GoodResponse	1	0.192	507.213	7	53	Target	Win	True
508.213	0.3	Win2	0.6296	0.004	Yes	2.925	-0.004	2.0	GoodResponse	1	0.192	n/a	7	53	ButtonPress	Win	True
508.272	0.46	Win2	0.6296	n/a	Yes	2.925	n/a	n/a	GoodResponse	1	n/a	n/a	7	53	Blank	Win	True
508.723	1.45	Win2	0.6296	n/a	Yes	2.925	n/a	5.0	GoodResponse	1	0.025	507.748	7	53	Feedback	Win	True
510.178	2.925	Win2	0.6296	n/a	Yes	2.925	n/a	n/a	GoodResponse	1	0.0	n/a	7	53	ISIslide	Win	True
513.12	0.25	Win2	0.6364	0.0	Yes	2.73	0.02	n/a	GoodResponse	1	n/a	n/a	8	54	Cue	Win	True
513.371	3.95	Win2	0.6364	0.0	Yes	2.73	0.001	n/a	GoodResponse	1	n/a	n/a	8	54	Fixation	Win	True
517.316	0.25	Win2	0.6364	0.004	Yes	2.73	-0.004	2.0	GoodResponse	1	0.218	516.534	8	54	Target	Win	True
517.534	0.3	Win2	0.6364	0.004	Yes	2.73	-0.004	2.0	GoodResponse	1	0.218	n/a	8	54	ButtonPress	Win	True
517.567	0.45	Win2	0.6364	n/a	Yes	2.73	n/a	n/a	GoodResponse	1	n/a	n/a	8	54	Blank	Win	True
518.018	1.45	Win2	0.6364	n/a	Yes	2.73	n/a	5.0	GoodResponse	1	0.047	517.065	8	54	Feedback	Win	True
519.472	2.73	Win2	0.6364	n/a	Yes	2.73	n/a	n/a	GoodResponse	1	0.0	n/a	8	54	ISIslide	Win	True
522.23	0.25	Control	0.6429	0.001	Yes	3.02	0.03	n/a	GoodResponse	0	n/a	n/a	8	55	Cue	Neutral	True
522.481	3.95	Control	0.6429	0.0	Yes	3.02	0.001	n/a	GoodResponse	0	n/a	n/a	8	55	Fixation	Neutral	True
526.426	0.26	Control	0.6429	0.004	Yes	3.02	-0.004	2.0	GoodResponse	0	0.256	525.682	8	55	Target	Neutral	True
526.682	0.3	Control	0.6429	0.004	Yes	3.02	-0.004	2.0	GoodResponse	0	0.256	n/a	8	55	ButtonPress	Neutral	True
526.694	0.44	Control	0.6429	n/a	Yes	3.02	n/a	n/a	GoodResponse	0	n/a	n/a	8	55	Blank	Neutral	True
527.128	1.45	Control	0.6429	n/a	Yes	3.02	n/a	5.0	GoodResponse	0	0.01	526.138	8	55	Feedback	Neutral	True
528.583	3.02	Control	0.6429	n/a	Yes	3.02	n/a	n/a	GoodResponse	0	0.0	n/a	8	55	ISIslide	Neutral	True
531.625	0.25	Control	0.6491	0.0	Yes	2.825	0.025	n/a	GoodResponse	0	n/a	n/a	8	56	Cue	Neutral	True
531.876	3.95	Control	0.6491	0.0	Yes	2.825	0.001	n/a	GoodResponse	0	n/a	n/a	8	56	Fixation	Neutral	True
535.821	0.27	Control	0.6491	0.004	Yes	2.825	-0.004	2.0	GoodResponse	0	0.231	535.052	8	56	Target	Neutral	True
536.052	0.3	Control	0.6491	0.004	Yes	2.825	-0.004	2.0	GoodResponse	0	0.231	n/a	8	56	ButtonPress	Neutral	True
536.105	0.43	Control	0.6491	n/a	Yes	2.825	n/a	n/a	GoodResponse	0	n/a	n/a	8	56	Blank	Neutral	True
536.523	1.45	Control	0.6491	n/a	Yes	2.825	n/a	5.0	GoodResponse	0	0.029	535.552	8	56	Feedback	Neutral	True
537.977	2.825	Control	0.6491	n/a	Yes	2.825	n/a	n/a	GoodResponse	0	0.0	n/a	8	56	ISIslide	Neutral	True
540.819	0.25	Control	0.6552	0.0	Yes	3.481	0.019	n/a	GoodResponse	0	n/a	n/a	8	57	Cue	Neutral	True
541.07	4.0	Control	0.6552	0.0	Yes	3.481	0.001	n/a	GoodResponse	0	n/a	n/a	8	57	Fixation	Neutral	True
545.065	0.28	Control	0.6552	0.004	Yes	3.481	-0.004	2.0	GoodResponse	0	0.24	544.305	8	57	Target	Neutral	True
545.305	0.3	Control	0.6552	0.004	Yes	3.481	-0.004	2.0	GoodResponse	0	0.24	n/a	8	57	ButtonPress	Neutral	True
545.35	0.42	Control	0.6552	n/a	Yes	3.481	n/a	n/a	GoodResponse	0	n/a	n/a	8	57	Blank	Neutral	True
545.767	1.45	Control	0.6552	n/a	Yes	3.481	n/a	5.0	GoodResponse	0	0.007	544.774	8	57	Feedback	Neutral	True
547.222	3.481	Control	0.6552	n/a	Yes	3.481	n/a	n/a	GoodResponse	0	0.0	n/a	8	57	ISIslide	Neutral	True
550.716	0.25	Win2	0.6609999999999999	0.0	Yes	2.734	0.016	n/a	GoodResponse	1	n/a	n/a	9	58	Cue	Win	True
550.966	4.05	Win2	0.6609999999999999	0.0	Yes	2.734	0.0	n/a	GoodResponse	1	n/a	n/a	9	58	Fixation	Win	True
555.012	0.28	Win2	0.6609999999999999	0.004	Yes	2.734	-0.004	2.0	GoodResponse	1	0.221	554.233	9	58	Target	Win	True
555.233	0.3	Win2	0.6609999999999999	0.004	Yes	2.734	-0.004	2.0	GoodResponse	1	0.221	n/a	9	58	ButtonPress	Win	True
555.296	0.42	Win2	0.6609999999999999	n/a	Yes	2.734	n/a	n/a	GoodResponse	1	n/a	n/a	9	58	Blank	Win	True
555.714	1.45	Win2	0.6609999999999999	n/a	Yes	2.734	n/a	5.0	GoodResponse	1	0.009	554.723	9	58	Feedback	Win	True
557.168	2.734	Win2	0.6609999999999999	n/a	Yes	2.734	n/a	n/a	GoodResponse	1	0.0	n/a	9	58	ISIslide	Win	True
559.926	0.25	Lose2	0.6667000000000001	0.0	Yes	2.674	0.026	n/a	GoodResponse	0	n/a	n/a	9	59	Cue	AvoidedLoss	True
560.177	4.0	Lose2	0.6667000000000001	0.0	Yes	2.674	0.001	n/a	GoodResponse	0	n/a	n/a	9	59	Fixation	AvoidedLoss	True
564.172	0.28	Lose2	0.6667000000000001	0.004	Yes	2.674	-0.004	2.0	GoodResponse	0	0.188	563.36	9	59	Target	AvoidedLoss	True
564.36	0.3	Lose2	0.6667000000000001	0.004	Yes	2.674	-0.004	2.0	GoodResponse	0	0.188	n/a	9	59	ButtonPress	AvoidedLoss	True
564.457	0.42	Lose2	0.6667000000000001	n/a	Yes	2.674	n/a	n/a	GoodResponse	0	n/a	n/a	9	59	Blank	AvoidedLoss	True
564.874	1.45	Lose2	0.6667000000000001	n/a	Yes	2.674	n/a	5.0	GoodResponse	0	0.019	563.893	9	59	Feedback	AvoidedLoss	True
566.329	2.674	Lose2	0.6667000000000001	n/a	Yes	2.674	n/a	n/a	GoodResponse	0	0.0	n/a	9	59	ISIslide	AvoidedLoss	True
569.02	0.25	Control	0.6557	0.0	No	2.68	0.02	n/a	NoResponse	0	n/a	n/a	9	60	Cue	Neutral	False
569.271	4.0	Control	0.6557	0.0	No	2.68	0.001	n/a	NoResponse	0	n/a	n/a	9	60	Fixation	Neutral	False
573.266	0.27	Control	0.6557	0.004	No	2.68	-0.004	n/a	NoResponse	0	n/a	n/a	9	60	Target	Neutral	False
573.55	0.43	Control	0.6557	n/a	No	2.68	n/a	n/a	NoResponse	0	n/a	n/a	9	60	Blank	Neutral	False
573.968	1.45	Control	0.6557	n/a	No	2.68	n/a	5.0	NoResponse	0	0.047	573.015	9	60	Feedback	Neutral	False
575.423	2.68	Control	0.6557	n/a	No	2.68	n/a	n/a	NoResponse	0	0.0	n/a	9	60	ISIslide	Neutral	False
578.131	0.25	Lose2	0.6613	0.0	Yes	2.969	0.031	n/a	GoodResponse	0	n/a	n/a	9	61	Cue	AvoidedLoss	True
578.381	4.0	Lose2	0.6613	0.001	Yes	2.969	0.0	n/a	GoodResponse	0	n/a	n/a	9	61	Fixation	AvoidedLoss	True
582.377	0.27	Lose2	0.6613	0.004	Yes	2.969	-0.004	2.0	GoodResponse	0	0.24	581.617	9	61	Target	AvoidedLoss	True
582.617	0.3	Lose2	0.6613	0.004	Yes	2.969	-0.004	2.0	GoodResponse	0	0.24	n/a	9	61	ButtonPress	AvoidedLoss	True
582.661	0.43	Lose2	0.6613	n/a	Yes	2.969	n/a	n/a	GoodResponse	0	n/a	n/a	9	61	Blank	AvoidedLoss	True
583.079	1.45	Lose2	0.6613	n/a	Yes	2.969	n/a	5.0	GoodResponse	0	0.009	582.088	9	61	Feedback	AvoidedLoss	True
584.533	2.969	Lose2	0.6613	n/a	Yes	2.969	n/a	n/a	GoodResponse	0	0.0	n/a	9	61	ISIslide	AvoidedLoss	True
587.525	0.25	Lose2	0.6667000000000001	0.001	Yes	2.875	0.025	n/a	GoodResponse	0	n/a	n/a	9	62	Cue	AvoidedLoss	True
587.776	3.9	Lose2	0.6667000000000001	0.0	Yes	2.875	0.001	n/a	GoodResponse	0	n/a	n/a	9	62	Fixation	AvoidedLoss	True
591.671	0.27	Lose2	0.6667000000000001	0.004	Yes	2.875	-0.004	2.0	GoodResponse	0	0.188	590.859	9	62	Target	AvoidedLoss	True
591.859	0.3	Lose2	0.6667000000000001	0.004	Yes	2.875	-0.004	2.0	GoodResponse	0	0.188	n/a	9	62	ButtonPress	AvoidedLoss	True
591.955	0.43	Lose2	0.6667000000000001	n/a	Yes	2.875	n/a	n/a	GoodResponse	0	n/a	n/a	9	62	Blank	AvoidedLoss	True
592.373	1.45	Lose2	0.6667000000000001	n/a	Yes	2.875	n/a	5.0	GoodResponse	0	0.033	591.406	9	62	Feedback	AvoidedLoss	True
593.828	2.875	Lose2	0.6667000000000001	n/a	Yes	2.875	n/a	n/a	GoodResponse	0	0.0	n/a	9	62	ISIslide	AvoidedLoss	True
596.72	0.25	Lose2	0.6718999999999999	0.0	Yes	2.63	0.02	n/a	GoodResponse	0	n/a	n/a	9	63	Cue	AvoidedLoss	True
596.97	4.05	Lose2	0.6718999999999999	0.0	Yes	2.63	0.0	n/a	GoodResponse	0	n/a	n/a	9	63	Fixation	AvoidedLoss	True
601.016	0.26	Lose2	0.6718999999999999	0.004	Yes	2.63	-0.004	2.0	GoodResponse	0	0.239	600.255	9	63	Target	AvoidedLoss	True
601.255	0.3	Lose2	0.6718999999999999	0.004	Yes	2.63	-0.004	2.0	GoodResponse	0	0.239	n/a	9	63	ButtonPress	AvoidedLoss	True
601.283	0.44	Lose2	0.6718999999999999	n/a	Yes	2.63	n/a	n/a	GoodResponse	0	n/a	n/a	9	63	Blank	AvoidedLoss	True
601.718	1.45	Lose2	0.6718999999999999	n/a	Yes	2.63	n/a	5.0	GoodResponse	0	0.006	600.724	9	63	Feedback	AvoidedLoss	True
603.172	2.63	Lose2	0.6718999999999999	n/a	Yes	2.63	n/a	n/a	GoodResponse	0	0.0	n/a	9	63	ISIslide	AvoidedLoss	True
605.83	0.25	Win2	0.6769	0.0	Yes	3.12	0.03	n/a	GoodResponse	1	n/a	n/a	10	64	Cue	Win	True
606.081	4.15	Win2	0.6769	0.0	Yes	3.12	0.001	n/a	GoodResponse	1	n/a	n/a	10	64	Fixation	Win	True
610.227	0.25	Win2	0.6769	0.003	Yes	3.12	-0.003	2.0	GoodResponse	1	0.243	609.47	10	64	Target	Win	True
610.47	0.3	Win2	0.6769	0.003	Yes	3.12	-0.003	2.0	GoodResponse	1	0.243	n/a	10	64	ButtonPress	Win	True
610.477	0.45	Win2	0.6769	n/a	Yes	3.12	n/a	n/a	GoodResponse	1	n/a	n/a	10	64	Blank	Win	True
610.929	1.45	Win2	0.6769	n/a	Yes	3.12	n/a	5.0	GoodResponse	1	0.013	609.942	10	64	Feedback	Win	True
612.383	3.12	Win2	0.6769	n/a	Yes	3.12	n/a	n/a	GoodResponse	1	0.0	n/a	10	64	ISIslide	Win	True
615.526	0.25	Control	0.6667000000000001	0.0	No	2.774	0.026	n/a	NoResponse	0	n/a	n/a	10	65	Cue	Neutral	True
615.777	4.0	Control	0.6667000000000001	0.0	No	2.774	0.001	n/a	NoResponse	0	n/a	n/a	10	65	Fixation	Neutral	True
619.772	0.24	Control	0.6667000000000001	0.004	No	2.774	-0.004	2.0	NoResponse	0	0.313	619.085	10	65	Target	Neutral	True
620.023	0.46	Control	0.6667000000000001	n/a	No	2.774	n/a	n/a	NoResponse	0	n/a	n/a	10	65	Blank	Neutral	True
620.085	0.3	Control	0.6667000000000001	0.004	No	2.774	-0.004	2.0	NoResponse	0	0.313	n/a	10	65	ButtonPress	Neutral	True
620.474	1.45	Control	0.6667000000000001	n/a	No	2.774	n/a	5.0	NoResponse	0	0.029	619.503	10	65	Feedback	Neutral	True
621.928	2.774	Control	0.6667000000000001	n/a	No	2.774	n/a	n/a	NoResponse	0	0.0	n/a	10	65	ISIslide	Neutral	True
624.72	0.25	Win2	0.6716	0.0	Yes	2.78	0.02	n/a	GoodResponse	1	n/a	n/a	11	66	Cue	Win	True
624.971	3.9	Win2	0.6716	0.0	Yes	2.78	0.001	n/a	GoodResponse	1	n/a	n/a	11	66	Fixation	Win	True
628.866	0.23	Win2	0.6716	0.004	Yes	2.78	-0.004	2.0	GoodResponse	1	0.216	628.082	11	66	Target	Win	True
629.082	0.3	Win2	0.6716	0.004	Yes	2.78	-0.004	2.0	GoodResponse	1	0.216	n/a	11	66	ButtonPress	Win	True
629.1	0.47	Win2	0.6716	n/a	Yes	2.78	n/a	n/a	GoodResponse	1	n/a	n/a	11	66	Blank	Win	True
629.568	1.45	Win2	0.6716	n/a	Yes	2.78	n/a	5.0	GoodResponse	1	0.008	628.576	11	66	Feedback	Win	True
631.022	2.78	Win2	0.6716	n/a	Yes	2.78	n/a	n/a	GoodResponse	1	0.0	n/a	11	66	ISIslide	Win	True
633.83	0.25	Control	0.6618	0.001	No	2.72	0.03	n/a	NoResponse	0	n/a	n/a	11	67	Cue	Neutral	True
634.081	3.95	Control	0.6618	0.0	No	2.72	0.001	n/a	NoResponse	0	n/a	n/a	11	67	Fixation	Neutral	True
638.026	0.22	Control	0.6618	0.004	No	2.72	-0.004	2.0	NoResponse	0	0.259	637.285	11	67	Target	Neutral	True
638.26	0.48	Control	0.6618	n/a	No	2.72	n/a	n/a	NoResponse	0	n/a	n/a	11	67	Blank	Neutral	True
638.285	0.3	Control	0.6618	0.004	No	2.72	-0.004	2.0	NoResponse	0	0.259	n/a	11	67	ButtonPress	Neutral	True
638.728	1.45	Control	0.6618	n/a	No	2.72	n/a	5.0	NoResponse	0	0.018	637.746	11	67	Feedback	Neutral	True
640.183	2.72	Control	0.6618	n/a	No	2.72	n/a	n/a	NoResponse	0	0.0	n/a	11	67	ISIslide	Neutral	True
642.924	0.25	Win2	0.6522	0.0	No	3.076	0.024	n/a	NoResponse	0	n/a	n/a	11	68	Cue	MissedWin	True
643.175	4.0	Win2	0.6522	0.0	No	3.076	0.001	n/a	NoResponse	0	n/a	n/a	11	68	Fixation	MissedWin	True
647.17	0.22	Win2	0.6522	0.004	No	3.076	-0.004	2.0	NoResponse	0	0.242	646.412	11	68	Target	MissedWin	True
647.404	0.48	Win2	0.6522	n/a	No	3.076	n/a	n/a	NoResponse	0	n/a	n/a	11	68	Blank	MissedWin	True
647.412	0.3	Win2	0.6522	0.004	No	3.076	-0.004	2.0	NoResponse	0	0.242	n/a	11	68	ButtonPress	MissedWin	True
647.872	1.45	Win2	0.6522	n/a	No	3.076	n/a	5.0	NoResponse	0	0.045	646.917	11	68	Feedback	MissedWin	True
649.327	3.076	Win2	0.6522	n/a	No	3.076	n/a	n/a	NoResponse	0	0.0	n/a	11	68	ISIslide	MissedWin	True
652.419	0.25	Win2	0.6429	0.0	No	3.231	0.019	n/a	NoResponse	0	n/a	n/a	11	69	Cue	MissedWin	True
652.67	3.95	Win2	0.6429	0.0	No	3.231	0.001	n/a	NoResponse	0	n/a	n/a	11	69	Fixation	MissedWin	True
656.615	0.23	Win2	0.6429	0.004	No	3.231	-0.004	2.0	NoResponse	0	0.246	655.861	11	69	Target	MissedWin	True
656.849	0.47	Win2	0.6429	n/a	No	3.231	n/a	n/a	NoResponse	0	n/a	n/a	11	69	Blank	MissedWin	True
656.861	0.3	Win2	0.6429	0.004	No	3.231	-0.004	2.0	NoResponse	0	0.246	n/a	11	69	ButtonPress	MissedWin	True
657.317	1.45	Win2	0.6429	n/a	No	3.231	n/a	5.0	NoResponse	0	0.014	656.331	11	69	Feedback	MissedWin	True
658.772	3.231	Win2	0.6429	n/a	No	3.231	n/a	n/a	NoResponse	0	0.0	n/a	11	69	ISIslide	MissedWin	True
662.015	0.25	Lose2	0.6338	0.0	No	3.035	0.015	n/a	NoResponse	-1	n/a	n/a	10	70	Cue	Loss	True
662.265	4.05	Lose2	0.6338	0.0	No	3.035	0.0	n/a	NoResponse	-1	n/a	n/a	10	70	Fixation	Loss	True
666.311	0.24	Lose2	0.6338	0.004	No	3.035	-0.004	2.0	NoResponse	-1	0.257	665.568	10	70	Target	Loss	True
666.562	0.46	Lose2	0.6338	n/a	No	3.035	n/a	n/a	NoResponse	-1	n/a	n/a	10	70	Blank	Loss	True
666.568	0.3	Lose2	0.6338	0.004	No	3.035	-0.004	2.0	NoResponse	-1	0.257	n/a	10	70	ButtonPress	Loss	True
667.013	1.45	Lose2	0.6338	n/a	No	3.035	n/a	5.0	NoResponse	-1	0.026	666.039	10	70	Feedback	Loss	True
668.467	3.035	Lose2	0.6338	n/a	No	3.035	n/a	n/a	NoResponse	-1	0.0	n/a	10	70	ISIslide	Loss	True
671.526	0.25	Win2	0.6389	0.0	Yes	2.724	0.026	n/a	GoodResponse	1	n/a	n/a	11	71	Cue	Win	True
671.777	4.05	Win2	0.6389	0.0	Yes	2.724	0.001	n/a	GoodResponse	1	n/a	n/a	11	71	Fixation	Win	True
675.823	0.25	Win2	0.6389	0.003	Yes	2.724	-0.003	2.0	GoodResponse	1	0.194	675.017	11	71	Target	Win	True
676.017	0.3	Win2	0.6389	0.003	Yes	2.724	-0.003	2.0	GoodResponse	1	0.194	n/a	11	71	ButtonPress	Win	True
676.073	0.45	Win2	0.6389	n/a	Yes	2.724	n/a	n/a	GoodResponse	1	n/a	n/a	11	71	Blank	Win	True
676.525	1.45	Win2	0.6389	n/a	Yes	2.724	n/a	5.0	GoodResponse	1	0.025	675.55	11	71	Feedback	Win	True
677.979	2.724	Win2	0.6389	n/a	Yes	2.724	n/a	n/a	GoodResponse	1	0.0	n/a	11	71	ISIslide	Win	True
680.72	0.25	Win2	0.6301	0.001	No	2.78	0.02	n/a	NoResponse	0	n/a	n/a	11	72	Cue	MissedWin	False
680.971	4.1	Win2	0.6301	0.0	No	2.78	0.001	2.0	NoResponse	0	3.88	683.851	11	72	Fixation	MissedWin	False
684.851	0.3	Win2	0.6301	0.0	No	2.78	0.001	2.0	NoResponse	0	3.88	n/a	11	72	ButtonPress	MissedWin	False
685.067	0.26	Win2	0.6301	0.003	No	2.78	-0.003	2.0	NoResponse	0	0.335	684.402	11	72	Target	MissedWin	False
685.334	0.44	Win2	0.6301	n/a	No	2.78	n/a	n/a	NoResponse	0	n/a	n/a	11	72	Blank	MissedWin	False
685.402	0.3	Win2	0.6301	0.003	No	2.78	-0.003	2.0	NoResponse	0	0.335	n/a	11	72	ButtonPress	MissedWin	False
685.769	1.45	Win2	0.6301	n/a	No	2.78	n/a	5.0	NoResponse	0	0.001	684.77	11	72	Feedback	MissedWin	False
687.223	2.78	Win2	0.6301	n/a	No	2.78	n/a	n/a	NoResponse	0	0.0	n/a	11	72	ISIslide	MissedWin	False
690.015	0.25	Win2	0.6215999999999999	0.0	No	2.685	0.015	n/a	NoResponse	0	n/a	n/a	11	73	Cue	MissedWin	True
690.266	4.0	Win2	0.6215999999999999	0.0	No	2.685	0.001	n/a	NoResponse	0	n/a	n/a	11	73	Fixation	MissedWin	True
694.261	0.27	Win2	0.6215999999999999	0.004	No	2.685	-0.004	2.0	NoResponse	0	0.285	693.546	11	73	Target	MissedWin	True
694.545	0.43	Win2	0.6215999999999999	n/a	No	2.685	n/a	n/a	NoResponse	0	n/a	n/a	11	73	Blank	MissedWin	True
694.546	0.3	Win2	0.6215999999999999	0.004	No	2.685	-0.004	2.0	NoResponse	0	0.285	n/a	11	73	ButtonPress	MissedWin	True
694.963	1.45	Win2	0.6215999999999999	n/a	No	2.685	n/a	5.0	NoResponse	0	0.026	693.989	11	73	Feedback	MissedWin	True
696.417	2.685	Win2	0.6215999999999999	n/a	No	2.685	n/a	n/a	NoResponse	0	0.0	n/a	11	73	ISIslide	MissedWin	True
699.125	0.25	Lose2	0.6133	0.0	No	2.625	0.025	n/a	NoResponse	-1	n/a	n/a	10	74	Cue	Loss	True
699.376	4.05	Lose2	0.6133	0.0	No	2.625	0.001	n/a	NoResponse	-1	n/a	n/a	10	74	Fixation	Loss	True
703.422	0.28	Lose2	0.6133	0.003	No	2.625	-0.003	2.0	NoResponse	-1	0.315	702.737	10	74	Target	Loss	True
703.706	0.42	Lose2	0.6133	n/a	No	2.625	n/a	n/a	NoResponse	-1	n/a	n/a	10	74	Blank	Loss	True
703.737	0.3	Lose2	0.6133	0.003	No	2.625	-0.003	2.0	NoResponse	-1	0.315	n/a	10	74	ButtonPress	Loss	True
704.124	1.45	Lose2	0.6133	n/a	No	2.625	n/a	5.0	NoResponse	-1	0.036	703.16	10	74	Feedback	Loss	True
705.578	2.625	Lose2	0.6133	n/a	No	2.625	n/a	n/a	NoResponse	-1	0.0	n/a	10	74	ISIslide	Loss	True
708.219	0.25	Lose2	0.6053000000000001	0.0	No	2.931	0.019	n/a	LatePress	-1	n/a	n/a	9	75	Cue	Loss	True
708.47	3.95	Lose2	0.6053000000000001	0.0	No	2.931	0.001	n/a	LatePress	-1	n/a	n/a	9	75	Fixation	Loss	True
712.415	0.29	Lose2	0.6053000000000001	0.004	No	2.931	-0.004	2.0	LatePress	-1	0.29	711.705	9	75	Target	Loss	True
712.705	0.3	Lose2	0.6053000000000001	0.004	No	2.931	-0.004	2.0	LatePress	-1	0.29	n/a	9	75	ButtonPress	Loss	True
712.716	0.41	Lose2	0.6053000000000001	n/a	No	2.931	n/a	n/a	LatePress	-1	n/a	n/a	9	75	Blank	Loss	True
713.117	1.45	Lose2	0.6053000000000001	n/a	No	2.931	n/a	5.0	LatePress	-1	0.018	712.135	9	75	Feedback	Loss	True
714.572	2.931	Lose2	0.6053000000000001	n/a	No	2.931	n/a	n/a	LatePress	-1	0.0	n/a	9	75	ISIslide	Loss	True
717.514	0.25	Control	0.6103999999999999	0.0	Yes	3.236	0.014	n/a	GoodResponse	0	n/a	n/a	9	76	Cue	Neutral	True
717.764	4.05	Control	0.6103999999999999	0.001	Yes	3.236	0.0	n/a	GoodResponse	0	n/a	n/a	9	76	Fixation	Neutral	True
721.81	0.3	Control	0.6103999999999999	0.004	Yes	3.236	-0.004	2.0	GoodResponse	0	0.215	721.025	9	76	Target	Neutral	True
722.025	0.3	Control	0.6103999999999999	0.004	Yes	3.236	-0.004	2.0	GoodResponse	0	0.215	n/a	9	76	ButtonPress	Neutral	True
722.111	0.4	Control	0.6103999999999999	n/a	Yes	3.236	n/a	n/a	GoodResponse	0	n/a	n/a	9	76	Blank	Neutral	True
722.512	1.45	Control	0.6103999999999999	n/a	Yes	3.236	n/a	5.0	GoodResponse	0	0.038	721.55	9	76	Feedback	Neutral	True
723.966	3.236	Control	0.6103999999999999	n/a	Yes	3.236	n/a	n/a	GoodResponse	0	0.0	n/a	9	76	ISIslide	Neutral	True
727.226	0.25	Lose2	0.6154	0.0	Yes	2.574	0.026	n/a	GoodResponse	0	n/a	n/a	9	77	Cue	AvoidedLoss	True
727.477	3.95	Lose2	0.6154	0.0	Yes	2.574	0.001	n/a	GoodResponse	0	n/a	n/a	9	77	Fixation	AvoidedLoss	True
731.422	0.31	Lose2	0.6154	0.004	Yes	2.574	-0.004	2.0	GoodResponse	0	0.226	730.648	9	77	Target	AvoidedLoss	True
731.648	0.3	Lose2	0.6154	0.004	Yes	2.574	-0.004	2.0	GoodResponse	0	0.226	n/a	9	77	ButtonPress	AvoidedLoss	True
731.739	0.39	Lose2	0.6154	n/a	Yes	2.574	n/a	n/a	GoodResponse	0	n/a	n/a	9	77	Blank	AvoidedLoss	True
732.124	1.45	Lose2	0.6154	n/a	Yes	2.574	n/a	5.0	GoodResponse	0	0.035	731.159	9	77	Feedback	AvoidedLoss	True
733.578	2.574	Lose2	0.6154	n/a	Yes	2.574	n/a	n/a	GoodResponse	0	0.0	n/a	9	77	ISIslide	AvoidedLoss	True
