onset	duration	cue_type	current_mean_accuracy	duration_error	is_hit	isi_adjusted	onset_delay	response	response_type	reward	rt	rt_time	total_reward	trial_number	trial_phase	trial_type	one_press
11.099	0.25	Control	1.0	0.0	Yes	2.951	-0.001	n/a	GoodResponse	0	n/a	n/a	0	0	Cue	Neutral	True
11.35	3.85	Control	1.0	0.0	Yes	2.951	0.001	n/a	GoodResponse	0	n/a	n/a	0	0	Fixation	Neutral	True
15.195	0.4	Control	1.0	0.004	Yes	2.951	-0.004	4.0	GoodResponse	0	0.308	14.503	0	0	Target	Neutral	True
15.503	0.3	Control	1.0	0.004	Yes	2.951	-0.004	4.0	GoodResponse	0	0.308	n/a	0	0	ButtonPress	Neutral	True
15.596	0.3	Control	1.0	n/a	Yes	2.951	n/a	n/a	GoodResponse	0	n/a	n/a	0	0	Blank	Neutral	True
15.897	1.45	Control	1.0	n/a	Yes	2.951	n/a	5.0	GoodResponse	0	0.03	14.927	0	0	Feedback	Neutral	True
17.351	2.951	Control	1.0	n/a	Yes	2.951	n/a	n/a	GoodResponse	0	0.0	n/a	0	0	ISIslide	Neutral	True
20.327	0.25	Lose2	1.0	0.0	Yes	2.773	0.027	n/a	GoodResponse	0	n/a	n/a	0	1	Cue	AvoidedLoss	True
20.577	4.0	Lose2	1.0	0.0	Yes	2.773	0.0	n/a	GoodResponse	0	n/a	n/a	0	1	Fixation	AvoidedLoss	True
24.573	0.39	Lose2	1.0	0.004	Yes	2.773	-0.004	4.0	GoodResponse	0	0.248	23.821	0	1	Target	AvoidedLoss	True
24.821	0.3	Lose2	1.0	0.004	Yes	2.773	-0.004	4.0	GoodResponse	0	0.248	n/a	0	1	ButtonPress	AvoidedLoss	True
24.974	0.31	Lose2	1.0	n/a	Yes	2.773	n/a	n/a	GoodResponse	0	n/a	n/a	0	1	Blank	AvoidedLoss	True
25.275	1.45	Lose2	1.0	n/a	Yes	2.773	n/a	5.0	GoodResponse	0	0.018	24.293	0	1	Feedback	AvoidedLoss	True
26.729	2.773	Lose2	1.0	n/a	Yes	2.773	n/a	n/a	GoodResponse	0	0.0	n/a	0	1	ISIslide	AvoidedLoss	True
29.521	0.25	Control	1.0	0.0	Yes	2.579	0.021	n/a	GoodResponse	0	n/a	n/a	0	2	Cue	Neutral	True
29.772	4.1	Control	1.0	0.0	Yes	2.579	0.001	n/a	GoodResponse	0	n/a	n/a	0	2	Fixation	Neutral	True
33.867	0.38	Control	1.0	0.004	Yes	2.579	-0.004	4.0	GoodResponse	0	0.211	33.078	0	2	Target	Neutral	True
34.078	0.3	Control	1.0	0.004	Yes	2.579	-0.004	4.0	GoodResponse	0	0.211	n/a	0	2	ButtonPress	Neutral	True
34.252	0.32	Control	1.0	n/a	Yes	2.579	n/a	n/a	GoodResponse	0	n/a	n/a	0	2	Blank	Neutral	True
34.569	1.45	Control	1.0	n/a	Yes	2.579	n/a	5.0	GoodResponse	0	0.041	33.61	0	2	Feedback	Neutral	True
36.024	2.579	Control	1.0	n/a	Yes	2.579	n/a	n/a	GoodResponse	0	0.0	n/a	0	2	ISIslide	Neutral	True
38.631	0.25	Win2	1.0	0.0	Yes	2.819	0.031	n/a	GoodResponse	1	n/a	n/a	1	3	Cue	Win	True
38.882	3.95	Win2	1.0	0.0	Yes	2.819	0.001	n/a	GoodResponse	1	n/a	n/a	1	3	Fixation	Win	True
42.827	0.37	Win2	1.0	0.004	Yes	2.819	-0.004	4.0	GoodResponse	1	0.243	42.07	1	3	Target	Win	True
43.07	0.3	Win2	1.0	0.004	Yes	2.819	-0.004	4.0	GoodResponse	1	0.243	n/a	1	3	ButtonPress	Win	True
43.212	0.33	Win2	1.0	n/a	Yes	2.819	n/a	n/a	GoodResponse	1	n/a	n/a	1	3	Blank	Win	True
43.529	1.45	Win2	1.0	n/a	Yes	2.819	n/a	5.0	GoodResponse	1	0.008	42.537	1	3	Feedback	Win	True
44.984	2.819	Win2	1.0	n/a	Yes	2.819	n/a	n/a	GoodResponse	1	0.0	n/a	1	3	ISIslide	Win	True
47.826	0.25	Win2	1.0	0.0	Yes	3.274	0.026	n/a	GoodResponse	1	n/a	n/a	2	4	Cue	Win	True
48.076	4.0	Win2	1.0	0.0	Yes	3.274	0.0	n/a	GoodResponse	1	n/a	n/a	2	4	Fixation	Win	True
52.072	0.36	Win2	1.0	0.004	Yes	3.274	-0.004	4.0	GoodResponse	1	0.229	51.301	2	4	Target	Win	True
52.301	0.3	Win2	1.0	0.004	Yes	3.274	-0.004	4.0	GoodResponse	1	0.229	n/a	2	4	ButtonPress	Win	True
52.439	0.34	Win2	1.0	n/a	Yes	3.274	n/a	n/a	GoodResponse	1	n/a	n/a	2	4	Blank	Win	True
52.774	1.45	Win2	1.0	n/a	Yes	3.274	n/a	5.0	GoodResponse	1	0.03	51.804	2	4	Feedback	Win	True
54.228	3.274	Win2	1.0	n/a	Yes	3.274	n/a	n/a	GoodResponse	1	0.0	n/a	2	4	ISIslide	Win	True
57.521	0.25	Win2	1.0	0.0	Yes	2.779	0.021	n/a	GoodResponse	1	n/a	n/a	3	5	Cue	Win	True
57.772	4.0	Win2	1.0	0.0	Yes	2.779	0.001	n/a	GoodResponse	1	n/a	n/a	3	5	Fixation	Win	True
61.767	0.35	Win2	1.0	0.004	Yes	2.779	-0.004	4.0	GoodResponse	1	0.265	61.032	3	5	Target	Win	True
62.032	0.3	Win2	1.0	0.004	Yes	2.779	-0.004	4.0	GoodResponse	1	0.265	n/a	3	5	ButtonPress	Win	True
62.118	0.35	Win2	1.0	n/a	Yes	2.779	n/a	n/a	GoodResponse	1	n/a	n/a	3	5	Blank	Win	True
62.469	1.45	Win2	1.0	n/a	Yes	2.779	n/a	5.0	GoodResponse	1	0.043	61.512	3	5	Feedback	Win	True
63.924	2.779	Win2	1.0	n/a	Yes	2.779	n/a	n/a	GoodResponse	1	0.0	n/a	3	5	ISIslide	Win	True
66.715	0.25	Lose2	1.0	0.001	Yes	2.735	0.015	n/a	GoodResponse	0	n/a	n/a	3	6	Cue	AvoidedLoss	True
66.966	3.95	Lose2	1.0	0.0	Yes	2.735	0.001	n/a	GoodResponse	0	n/a	n/a	3	6	Fixation	AvoidedLoss	True
70.911	0.34	Lose2	1.0	0.004	Yes	2.735	-0.004	4.0	GoodResponse	0	0.22	70.131	3	6	Target	AvoidedLoss	True
71.131	0.3	Lose2	1.0	0.004	Yes	2.735	-0.004	4.0	GoodResponse	0	0.22	n/a	3	6	ButtonPress	AvoidedLoss	True
71.262	0.36	Lose2	1.0	n/a	Yes	2.735	n/a	n/a	GoodResponse	0	n/a	n/a	3	6	Blank	AvoidedLoss	True
71.613	1.45	Lose2	1.0	n/a	Yes	2.735	n/a	5.0	GoodResponse	0	0.021	70.634	3	6	Feedback	AvoidedLoss	True
73.068	2.735	Lose2	1.0	n/a	Yes	2.735	n/a	n/a	GoodResponse	0	0.0	n/a	3	6	ISIslide	AvoidedLoss	True
75.826	0.25	Lose2	1.0	0.0	Yes	4.024	0.026	n/a	GoodResponse	0	n/a	n/a	3	7	Cue	AvoidedLoss	True
76.077	4.05	Lose2	1.0	0.0	Yes	4.024	0.001	n/a	GoodResponse	0	n/a	n/a	3	7	Fixation	AvoidedLoss	True
80.122	0.33	Lose2	1.0	0.004	Yes	4.024	-0.004	4.0	GoodResponse	0	0.202	79.324	3	7	Target	AvoidedLoss	True
80.324	0.3	Lose2	1.0	0.004	Yes	4.024	-0.004	4.0	GoodResponse	0	0.202	n/a	3	7	ButtonPress	AvoidedLoss	True
80.457	0.37	Lose2	1.0	n/a	Yes	4.024	n/a	n/a	GoodResponse	0	n/a	n/a	3	7	Blank	AvoidedLoss	True
80.824	1.45	Lose2	1.0	n/a	Yes	4.024	n/a	5.0	GoodResponse	0	0.029	79.853	3	7	Feedback	AvoidedLoss	True
82.279	4.024	Lose2	1.0	n/a	Yes	4.024	n/a	n/a	GoodResponse	0	0.0	n/a	3	7	ISIslide	AvoidedLoss	True
86.324	0.25	Lose2	1.0	0.0	Yes	3.026	0.024	n/a	GoodResponse	0	n/a	n/a	3	8	Cue	AvoidedLoss	True
86.575	3.95	Lose2	1.0	0.0	Yes	3.026	0.001	n/a	GoodResponse	0	n/a	n/a	3	8	Fixation	AvoidedLoss	True
90.52	0.32	Lose2	1.0	0.004	Yes	3.026	-0.004	4.0	GoodResponse	0	0.189	89.709	3	8	Target	AvoidedLoss	True
90.709	0.3	Lose2	1.0	0.004	Yes	3.026	-0.004	4.0	GoodResponse	0	0.189	n/a	3	8	ButtonPress	AvoidedLoss	True
90.854	0.38	Lose2	1.0	n/a	Yes	3.026	n/a	n/a	GoodResponse	0	n/a	n/a	3	8	Blank	AvoidedLoss	True
91.222	1.45	Lose2	1.0	n/a	Yes	3.026	n/a	5.0	GoodResponse	0	0.022	90.244	3	8	Feedback	AvoidedLoss	True
92.676	3.026	Lose2	1.0	n/a	Yes	3.026	n/a	n/a	GoodResponse	0	0.0	n/a	3	8	ISIslide	AvoidedLoss	True
95.719	0.25	Lose2	0.9	0.0	No	3.131	0.019	n/a	NoResponse	-1	n/a	n/a	2	9	Cue	Loss	True
95.97	3.95	Lose2	0.9	0.0	No	3.131	0.001	n/a	NoResponse	-1	n/a	n/a	2	9	Fixation	Loss	True
99.915	0.31	Lose2	0.9	0.004	No	3.131	-0.004	4.0	NoResponse	-1	0.33	99.245	2	9	Target	Loss	True
100.232	0.39	Lose2	0.9	n/a	No	3.131	n/a	n/a	NoResponse	-1	n/a	n/a	2	9	Blank	Loss	True
100.245	0.3	Lose2	0.9	0.004	No	3.131	-0.004	4.0	NoResponse	-1	0.33	n/a	2	9	ButtonPress	Loss	True
100.617	1.45	Lose2	0.9	n/a	No	3.131	n/a	5.0	NoResponse	-1	0.041	99.658	2	9	Feedback	Loss	True
102.071	3.131	Lose2	0.9	n/a	No	3.131	n/a	n/a	NoResponse	-1	0.0	n/a	2	9	ISIslide	Loss	True
105.231	0.25	Control	0.9091	0.0	Yes	3.269	0.031	n/a	GoodResponse	0	n/a	n/a	2	10	Cue	Neutral	False
105.481	4.0	Control	0.9091	0.001	Yes	3.269	0.0	4.0	GoodResponse	0	3.778	108.259	2	10	Fixation	Neutral	False
109.259	0.3	Control	0.9091	0.001	Yes	3.269	0.0	4.0	GoodResponse	0	3.778	n/a	2	10	ButtonPress	Neutral	False
109.477	0.3	Control	0.9091	0.004	Yes	3.269	-0.004	4.0	GoodResponse	0	0.216	108.693	2	10	Target	Neutral	False
109.693	0.3	Control	0.9091	0.004	Yes	3.269	-0.004	4.0	GoodResponse	0	0.216	n/a	2	10	ButtonPress	Neutral	False
109.778	0.4	Control	0.9091	n/a	Yes	3.269	n/a	n/a	GoodResponse	0	n/a	n/a	2	10	Blank	Neutral	False
110.179	1.45	Control	0.9091	n/a	Yes	3.269	n/a	5.0	GoodResponse	0	0.04	109.219	2	10	Feedback	Neutral	False
111.633	3.269	Control	0.9091	n/a	Yes	3.269	n/a	n/a	GoodResponse	0	0.0	n/a	2	10	ISIslide	Neutral	False
114.926	0.25	Lose2	0.9167000000000001	0.001	Yes	2.724	0.026	n/a	GoodResponse	0	n/a	n/a	2	11	Cue	AvoidedLoss	True
115.177	4.05	Lose2	0.9167000000000001	0.0	Yes	2.724	0.001	n/a	GoodResponse	0	n/a	n/a	2	11	Fixation	AvoidedLoss	True
119.223	0.29	Lose2	0.9167000000000001	0.003	Yes	2.724	-0.003	4.0	GoodResponse	0	0.222	118.445	2	11	Target	AvoidedLoss	True
119.445	0.3	Lose2	0.9167000000000001	0.003	Yes	2.724	-0.003	4.0	GoodResponse	0	0.222	n/a	2	11	ButtonPress	AvoidedLoss	True
119.523	0.41	Lose2	0.9167000000000001	n/a	Yes	2.724	n/a	n/a	GoodResponse	0	n/a	n/a	2	11	Blank	AvoidedLoss	True
119.925	1.45	Lose2	0.9167000000000001	n/a	Yes	2.724	n/a	5.0	GoodResponse	0	0.001	118.926	2	11	Feedback	AvoidedLoss	True
121.379	2.724	Lose2	0.9167000000000001	n/a	Yes	2.724	n/a	n/a	GoodResponse	0	0.0	n/a	2	11	ISIslide	AvoidedLoss	True
124.121	0.25	Control	0.9231	0.0	Yes	2.979	0.021	n/a	GoodResponse	0	n/a	n/a	2	12	Cue	Neutral	True
124.371	3.9	Control	0.9231	0.0	Yes	2.979	0.0	n/a	GoodResponse	0	n/a	n/a	2	12	Fixation	Neutral	True
128.283	0.28	Control	0.9231	0.0	Yes	2.979	0.012	4.0	GoodResponse	0	0.23	127.513	2	12	Target	Neutral	True
128.513	0.3	Control	0.9231	0.0	Yes	2.979	0.012	4.0	GoodResponse	0	0.23	n/a	2	12	ButtonPress	Neutral	True
128.551	0.42	Control	0.9231	n/a	Yes	2.979	n/a	n/a	GoodResponse	0	n/a	n/a	2	12	Blank	Neutral	True
128.968	1.45	Control	0.9231	n/a	Yes	2.979	n/a	5.0	GoodResponse	0	0.031	127.999	2	12	Feedback	Neutral	True
130.423	2.979	Control	0.9231	n/a	Yes	2.979	n/a	n/a	GoodResponse	0	0.0	n/a	2	12	ISIslide	Neutral	True
133.415	0.25	Control	0.9286	0.0	Yes	2.785	0.015	n/a	GoodResponse	0	n/a	n/a	2	13	Cue	Neutral	True
133.666	4.0	Control	0.9286	0.0	Yes	2.785	0.001	n/a	GoodResponse	0	n/a	n/a	2	13	Fixation	Neutral	True
137.661	0.27	Control	0.9286	0.004	Yes	2.785	-0.004	4.0	GoodResponse	0	0.215	136.876	2	13	Target	Neutral	True
137.876	0.3	Control	0.9286	0.004	Yes	2.785	-0.004	4.0	GoodResponse	0	0.215	n/a	2	13	ButtonPress	Neutral	True
137.945	0.43	Control	0.9286	n/a	Yes	2.785	n/a	n/a	GoodResponse	0	n/a	n/a	2	13	Blank	Neutral	True
138.363	1.45	Control	0.9286	n/a	Yes	2.785	n/a	5.0	GoodResponse	0	0.002	137.365	2	13	Feedback	Neutral	True
139.818	2.785	Control	0.9286	n/a	Yes	2.785	n/a	n/a	GoodResponse	0	0.0	n/a	2	13	ISIslide	Neutral	True
142.626	0.25	Win2	0.9333	0.0	Yes	2.674	0.026	n/a	GoodResponse	1	n/a	n/a	3	14	Cue	Win	True
142.877	4.1	Win2	0.9333	0.0	Yes	2.674	0.001	n/a	GoodResponse	1	n/a	n/a	3	14	Fixation	Win	True
146.972	0.26	Win2	0.9333	0.004	Yes	2.674	-0.004	4.0	GoodResponse	1	0.214	146.186	3	14	Target	Win	True
147.186	0.3	Win2	0.9333	0.004	Yes	2.674	-0.004	4.0	GoodResponse	1	0.214	n/a	3	14	ButtonPress	Win	True
147.24	0.44	Win2	0.9333	n/a	Yes	2.674	n/a	n/a	GoodResponse	1	n/a	n/a	3	14	Blank	Win	True
147.674	1.45	Win2	0.9333	n/a	Yes	2.674	n/a	5.0	GoodResponse	1	0.007	146.681	3	14	Feedback	Win	True
149.129	2.674	Win2	0.9333	n/a	Yes	2.674	n/a	n/a	GoodResponse	1	0.0	n/a	3	14	ISIslide	Win	True
151.82	0.25	Control	0.9375	0.0	Yes	2.98	0.02	n/a	GoodResponse	0	n/a	n/a	3	15	Cue	Neutral	False
152.071	4.0	Control	0.9375	0.0	Yes	2.98	0.001	4.0	GoodResponse	0	3.594	154.665	3	15	Fixation	Neutral	False
155.665	0.3	Control	0.9375	0.0	Yes	2.98	0.001	4.0	GoodResponse	0	3.594	n/a	3	15	ButtonPress	Neutral	False
156.066	0.25	Control	0.9375	0.004	Yes	2.98	-0.004	4.0	GoodResponse	0	0.192	155.258	3	15	Target	Neutral	False
156.258	0.3	Control	0.9375	0.004	Yes	2.98	-0.004	4.0	GoodResponse	0	0.192	n/a	3	15	ButtonPress	Neutral	False
156.317	0.45	Control	0.9375	n/a	Yes	2.98	n/a	n/a	GoodResponse	0	n/a	n/a	3	15	Blank	Neutral	False
156.768	1.45	Control	0.9375	n/a	Yes	2.98	n/a	5.0	GoodResponse	0	0.036	155.804	3	15	Feedback	Neutral	False
158.223	2.98	Control	0.9375	n/a	Yes	2.98	n/a	n/a	GoodResponse	0	0.0	n/a	3	15	ISIslide	Neutral	False
161.215	0.25	Win2	0.9412	0.0	Yes	2.885	0.015	n/a	GoodResponse	1	n/a	n/a	4	16	Cue	Win	True
161.466	4.0	Win2	0.9412	0.0	Yes	2.885	0.001	n/a	GoodResponse	1	n/a	n/a	4	16	Fixation	Win	True
165.461	0.24	Win2	0.9412	0.004	Yes	2.885	-0.004	4.0	GoodResponse	1	0.207	164.668	4	16	Target	Win	True
165.668	0.3	Win2	0.9412	0.004	Yes	2.885	-0.004	4.0	GoodResponse	1	0.207	n/a	4	16	ButtonPress	Win	True
165.712	0.46	Win2	0.9412	n/a	Yes	2.885	n/a	n/a	GoodResponse	1	n/a	n/a	4	16	Blank	Win	True
166.163	1.45	Win2	0.9412	n/a	Yes	2.885	n/a	5.0	GoodResponse	1	0.007	165.17	4	16	Feedback	Win	True
167.617	2.885	Win2	0.9412	n/a	Yes	2.885	n/a	n/a	GoodResponse	1	0.0	n/a	4	16	ISIslide	Win	True
170.526	0.25	Lose2	0.9444	0.0	Yes	2.724	0.026	n/a	GoodResponse	0	n/a	n/a	4	17	Cue	AvoidedLoss	True
170.777	3.95	Lose2	0.9444	0.0	Yes	2.724	0.001	n/a	GoodResponse	0	n/a	n/a	4	17	Fixation	AvoidedLoss	True
174.722	0.23	Lose2	0.9444	0.004	Yes	2.724	-0.004	4.0	GoodResponse	0	0.193	173.915	4	17	Target	AvoidedLoss	True
174.915	0.3	Lose2	0.9444	0.004	Yes	2.724	-0.004	4.0	GoodResponse	0	0.193	n/a	4	17	ButtonPress	AvoidedLoss	True
174.956	0.47	Lose2	0.9444	n/a	Yes	2.724	n/a	n/a	GoodResponse	0	n/a	n/a	4	17	Blank	AvoidedLoss	True
175.424	1.45	Lose2	0.9444	n/a	Yes	2.724	n/a	5.0	GoodResponse	0	0.014	174.438	4	17	Feedback	AvoidedLoss	True
176.879	2.724	Lose2	0.9444	n/a	Yes	2.724	n/a	n/a	GoodResponse	0	0.0	n/a	4	17	ISIslide	AvoidedLoss	True
179.62	0.25	Lose2	0.9473999999999999	0.0	Yes	2.73	0.02	n/a	GoodResponse	0	n/a	n/a	4	18	Cue	AvoidedLoss	True
179.871	4.05	Lose2	0.9473999999999999	0.0	Yes	2.73	0.001	n/a	GoodResponse	0	n/a	n/a	4	18	Fixation	AvoidedLoss	True
183.916	0.22	Lose2	0.9473999999999999	0.004	Yes	2.73	-0.004	4.0	GoodResponse	0	0.207	183.123	4	18	Target	AvoidedLoss	True
184.123	0.3	Lose2	0.9473999999999999	0.004	Yes	2.73	-0.004	4.0	GoodResponse	0	0.207	n/a	4	18	ButtonPress	AvoidedLoss	True
184.15	0.48	Lose2	0.9473999999999999	n/a	Yes	2.73	n/a	n/a	GoodResponse	0	n/a	n/a	4	18	Blank	AvoidedLoss	True
184.618	1.45	Lose2	0.9473999999999999	n/a	Yes	2.73	n/a	5.0	GoodResponse	0	0.039	183.657	4	18	Feedback	AvoidedLoss	True
186.073	2.73	Lose2	0.9473999999999999	n/a	Yes	2.73	n/a	n/a	GoodResponse	0	0.0	n/a	4	18	ISIslide	AvoidedLoss	True
188.814	0.25	Control	0.95	0.0	Yes	2.936	0.014	n/a	GoodResponse	0	n/a	n/a	4	19	Cue	Neutral	True
189.065	3.95	Control	0.95	0.0	Yes	2.936	0.001	n/a	GoodResponse	0	n/a	n/a	4	19	Fixation	Neutral	True
193.01	0.21	Control	0.95	0.004	Yes	2.936	-0.004	4.0	GoodResponse	0	0.201	192.211	4	19	Target	Neutral	True
193.211	0.3	Control	0.95	0.004	Yes	2.936	-0.004	4.0	GoodResponse	0	0.201	n/a	4	19	ButtonPress	Neutral	True
193.227	0.49	Control	0.95	n/a	Yes	2.936	n/a	n/a	GoodResponse	0	n/a	n/a	4	19	Blank	Neutral	True
193.712	1.45	Control	0.95	n/a	Yes	2.936	n/a	5.0	GoodResponse	0	0.019	192.731	4	19	Feedback	Neutral	True
195.167	2.936	Control	0.95	n/a	Yes	2.936	n/a	n/a	GoodResponse	0	0.0	n/a	4	19	ISIslide	Neutral	True
198.125	0.25	Control	0.9048	0.001	No	2.625	0.025	n/a	NoResponse	0	n/a	n/a	4	20	Cue	Neutral	True
198.376	4.05	Control	0.9048	0.0	No	2.625	0.001	n/a	NoResponse	0	n/a	n/a	4	20	Fixation	Neutral	True
202.422	0.2	Control	0.9048	0.003	No	2.625	-0.003	4.0	NoResponse	0	0.233	201.655	4	20	Target	Neutral	True
202.622	0.5	Control	0.9048	n/a	No	2.625	n/a	n/a	NoResponse	0	n/a	n/a	4	20	Blank	Neutral	True
202.655	0.3	Control	0.9048	0.003	No	2.625	-0.003	4.0	NoResponse	0	0.233	n/a	4	20	ButtonPress	Neutral	True
203.124	1.45	Control	0.9048	n/a	No	2.625	n/a	5.0	NoResponse	0	0.02	202.144	4	20	Feedback	Neutral	True
204.578	2.625	Control	0.9048	n/a	No	2.625	n/a	n/a	NoResponse	0	0.0	n/a	4	20	ISIslide	Neutral	True
207.219	0.25	Control	0.8636	0.0	No	2.781	0.019	n/a	NoResponse	0	n/a	n/a	4	21	Cue	Neutral	True
207.47	4.1	Control	0.8636	0.0	No	2.781	0.001	n/a	NoResponse	0	n/a	n/a	4	21	Fixation	Neutral	True
211.566	0.19	Control	0.8636	0.003	No	2.781	-0.003	4.0	NoResponse	0	0.219	210.785	4	21	Target	Neutral	True
211.766	0.51	Control	0.8636	n/a	No	2.781	n/a	n/a	NoResponse	0	n/a	n/a	4	21	Blank	Neutral	True
211.785	0.3	Control	0.8636	0.003	No	2.781	-0.003	4.0	NoResponse	0	0.219	n/a	4	21	ButtonPress	Neutral	True
212.268	1.45	Control	0.8636	n/a	No	2.781	n/a	5.0	NoResponse	0	0.047	211.315	4	21	Feedback	Neutral	True
213.722	2.781	Control	0.8636	n/a	No	2.781	n/a	n/a	NoResponse	0	0.0	n/a	4	21	ISIslide	Neutral	True
216.514	0.25	Control	0.8261	0.0	No	2.786	0.014	n/a	NoResponse	0	n/a	n/a	4	22	Cue	Neutral	True
216.765	4.0	Control	0.8261	0.0	No	2.786	0.001	n/a	NoResponse	0	n/a	n/a	4	22	Fixation	Neutral	True
220.76	0.18	Control	0.8261	0.004	No	2.786	-0.004	4.0	NoResponse	0	0.222	219.982	4	22	Target	Neutral	True
220.944	0.52	Control	0.8261	n/a	No	2.786	n/a	n/a	NoResponse	0	n/a	n/a	4	22	Blank	Neutral	True
220.982	0.3	Control	0.8261	0.004	No	2.786	-0.004	4.0	NoResponse	0	0.222	n/a	4	22	ButtonPress	Neutral	True
221.462	1.45	Control	0.8261	n/a	No	2.786	n/a	5.0	NoResponse	0	0.024	220.486	4	22	Feedback	Neutral	True
222.916	2.786	Control	0.8261	n/a	No	2.786	n/a	n/a	NoResponse	0	0.0	n/a	4	22	ISIslide	Neutral	True
225.725	0.25	Control	0.7917000000000001	0.0	No	2.775	0.025	n/a	NoResponse	0	n/a	n/a	4	23	Cue	Neutral	True
225.975	3.9	Control	0.7917000000000001	0.001	No	2.775	0.0	n/a	NoResponse	0	n/a	n/a	4	23	Fixation	Neutral	True
229.87	0.17	Control	0.7917000000000001	0.005	No	2.775	-0.005	4.0	NoResponse	0	0.285	229.155	4	23	Target	Neutral	True
230.054	0.53	Control	0.7917000000000001	n/a	No	2.775	n/a	n/a	NoResponse	0	n/a	n/a	4	23	Blank	Neutral	True
230.155	0.3	Control	0.7917000000000001	0.005	No	2.775	-0.005	4.0	NoResponse	0	0.285	n/a	4	23	ButtonPress	Neutral	True
230.573	1.45	Control	0.7917000000000001	n/a	No	2.775	n/a	5.0	NoResponse	0	0.035	229.608	4	23	Feedback	Neutral	True
232.027	2.775	Control	0.7917000000000001	n/a	No	2.775	n/a	n/a	NoResponse	0	0.0	n/a	4	23	ISIslide	Neutral	True
234.819	0.25	Win2	0.8	0.0	Yes	3.131	0.019	n/a	GoodResponse	1	n/a	n/a	5	24	Cue	Win	True
235.069	3.95	Win2	0.8	0.0	Yes	3.131	0.0	n/a	GoodResponse	1	n/a	n/a	5	24	Fixation	Win	True
239.015	0.16	Win2	0.8	0.004	Yes	3.131	-0.004	4.0	GoodResponse	1	0.148	238.163	5	24	Target	Win	True
239.163	0.3	Win2	0.8	0.004	Yes	3.131	-0.004	4.0	GoodResponse	1	0.148	n/a	5	24	ButtonPress	Win	True
239.182	0.54	Win2	0.8	n/a	Yes	3.131	n/a	n/a	GoodResponse	1	n/a	n/a	5	24	Blank	Win	True
239.717	1.45	Win2	0.8	n/a	Yes	3.131	n/a	5.0	GoodResponse	1	0.013	238.73	5	24	Feedback	Win	True
241.171	3.131	Win2	0.8	n/a	Yes	3.131	n/a	n/a	GoodResponse	1	0.0	n/a	5	24	ISIslide	Win	True
244.33	0.25	Win2	0.7692	0.0	No	3.07	0.03	n/a	NoResponse	0	n/a	n/a	5	25	Cue	MissedWin	True
244.581	4.0	Win2	0.7692	0.0	No	3.07	0.001	n/a	NoResponse	0	n/a	n/a	5	25	Fixation	MissedWin	True
248.576	0.15	Win2	0.7692	0.004	No	3.07	-0.004	4.0	NoResponse	0	0.19	247.766	5	25	Target	MissedWin	True
248.727	0.55	Win2	0.7692	n/a	No	3.07	n/a	n/a	NoResponse	0	n/a	n/a	5	25	Blank	MissedWin	True
248.766	0.3	Win2	0.7692	0.004	No	3.07	-0.004	4.0	NoResponse	0	0.19	n/a	5	25	ButtonPress	MissedWin	True
249.279	1.45	Win2	0.7692	n/a	No	3.07	n/a	5.0	NoResponse	0	0.011	248.29	5	25	Feedback	MissedWin	True
250.733	3.07	Win2	0.7692	n/a	No	3.07	n/a	n/a	NoResponse	0	0.0	n/a	5	25	ISIslide	MissedWin	True
253.826	0.25	Win2	0.7406999999999999	0.0	No	2.924	0.026	n/a	NoResponse	0	n/a	n/a	5	26	Cue	MissedWin	True
254.076	3.95	Win2	0.7406999999999999	0.0	No	2.924	0.0	n/a	NoResponse	0	n/a	n/a	5	26	Fixation	MissedWin	True
258.038	0.15	Win2	0.7406999999999999	0.0	No	2.924	0.012	4.0	NoResponse	0	0.198	257.236	5	26	Target	MissedWin	True
258.172	0.55	Win2	0.7406999999999999	n/a	No	2.924	n/a	n/a	NoResponse	0	n/a	n/a	5	26	Blank	MissedWin	True
258.236	0.3	Win2	0.7406999999999999	0.0	No	2.924	0.012	4.0	NoResponse	0	0.198	n/a	5	26	ButtonPress	MissedWin	True
258.724	1.45	Win2	0.7406999999999999	n/a	No	2.924	n/a	5.0	NoResponse	0	0.03	257.754	5	26	Feedback	MissedWin	True
260.178	2.924	Win2	0.7406999999999999	n/a	No	2.924	n/a	n/a	NoResponse	0	0.0	n/a	5	26	ISIslide	MissedWin	True
263.12	0.25	Lose2	0.75	0.0	Yes	2.83	0.02	n/a	GoodResponse	0	n/a	n/a	5	27	Cue	AvoidedLoss	False
263.371	4.05	Lose2	0.75	0.0	Yes	2.83	0.001	4.0	GoodResponse	0	3.768	266.139	5	27	Fixation	AvoidedLoss	False
267.139	0.3	Lose2	0.75	0.0	Yes	2.83	0.001	4.0	GoodResponse	0	3.768	n/a	5	27	ButtonPress	AvoidedLoss	False
267.416	0.15	Lose2	0.75	0.004	Yes	2.83	-0.004	4.0	GoodResponse	0	0.127	266.543	5	27	Target	AvoidedLoss	False
267.543	0.3	Lose2	0.75	0.004	Yes	2.83	-0.004	4.0	GoodResponse	0	0.127	n/a	5	27	ButtonPress	AvoidedLoss	False
267.567	0.55	Lose2	0.75	n/a	Yes	2.83	n/a	n/a	GoodResponse	0	n/a	n/a	5	27	Blank	AvoidedLoss	False
268.118	1.45	Lose2	0.75	n/a	Yes	2.83	n/a	5.0	GoodResponse	0	0.002	267.12	5	27	Feedback	AvoidedLoss	False
269.573	2.83	Lose2	0.75	n/a	Yes	2.83	n/a	n/a	GoodResponse	0	0.0	n/a	5	27	ISIslide	AvoidedLoss	False
272.414	0.25	Control	0.7241	0.001	No	2.836	0.014	n/a	NoResponse	0	n/a	n/a	5	28	Cue	Neutral	True
272.665	4.05	Control	0.7241	0.0	No	2.836	0.001	n/a	NoResponse	0	n/a	n/a	5	28	Fixation	Neutral	True
276.711	0.15	Control	0.7241	0.003	No	2.836	-0.003	4.0	NoResponse	0	0.232	275.943	5	28	Target	Neutral	True
276.861	0.55	Control	0.7241	n/a	No	2.836	n/a	n/a	NoResponse	0	n/a	n/a	5	28	Blank	Neutral	True
276.943	0.3	Control	0.7241	0.003	No	2.836	-0.003	4.0	NoResponse	0	0.232	n/a	5	28	ButtonPress	Neutral	True
277.413	1.45	Control	0.7241	n/a	No	2.836	n/a	5.0	NoResponse	0	0.024	276.437	5	28	Feedback	Neutral	True
278.867	2.836	Control	0.7241	n/a	No	2.836	n/a	n/a	NoResponse	0	0.0	n/a	5	28	ISIslide	Neutral	True
281.726	0.25	Lose2	0.7	0.0	No	2.824	0.026	n/a	NoResponse	-1	n/a	n/a	4	29	Cue	Loss	True
281.976	3.95	Lose2	0.7	0.001	No	2.824	0.0	n/a	NoResponse	-1	n/a	n/a	4	29	Fixation	Loss	True
285.922	0.15	Lose2	0.7	0.004	No	2.824	-0.004	4.0	NoResponse	-1	0.194	285.116	4	29	Target	Loss	True
286.072	0.55	Lose2	0.7	n/a	No	2.824	n/a	n/a	NoResponse	-1	n/a	n/a	4	29	Blank	Loss	True
286.116	0.3	Lose2	0.7	0.004	No	2.824	-0.004	4.0	NoResponse	-1	0.194	n/a	4	29	ButtonPress	Loss	True
286.624	1.45	Lose2	0.7	n/a	No	2.824	n/a	5.0	NoResponse	-1	0.033	285.657	4	29	Feedback	Loss	True
288.078	2.824	Lose2	0.7	n/a	No	2.824	n/a	n/a	NoResponse	-1	0.0	n/a	4	29	ISIslide	Loss	True
290.92	0.25	Win2	0.6774	0.0	No	2.78	0.02	n/a	NoResponse	0	n/a	n/a	4	30	Cue	MissedWin	True
291.171	3.9	Win2	0.6774	0.0	No	2.78	0.001	n/a	NoResponse	0	n/a	n/a	4	30	Fixation	MissedWin	True
295.066	0.15	Win2	0.6774	0.004	No	2.78	-0.004	4.0	NoResponse	0	0.228	294.294	4	30	Target	MissedWin	True
295.216	0.55	Win2	0.6774	n/a	No	2.78	n/a	n/a	NoResponse	0	n/a	n/a	4	30	Blank	MissedWin	True
295.294	0.3	Win2	0.6774	0.004	No	2.78	-0.004	4.0	NoResponse	0	0.228	n/a	4	30	ButtonPress	MissedWin	True
295.768	1.45	Win2	0.6774	n/a	No	2.78	n/a	5.0	NoResponse	0	0.01	294.778	4	30	Feedback	MissedWin	True
297.222	2.78	Win2	0.6774	n/a	No	2.78	n/a	n/a	NoResponse	0	0.0	n/a	4	30	ISIslide	MissedWin	True
300.03	0.25	Lose2	0.6562	0.001	No	2.82	0.03	n/a	NoResponse	-1	n/a	n/a	3	31	Cue	Loss	True
300.281	4.05	Lose2	0.6562	0.0	No	2.82	0.001	n/a	NoResponse	-1	n/a	n/a	3	31	Fixation	Loss	True
304.327	0.15	Lose2	0.6562	0.003	No	2.82	-0.003	4.0	NoResponse	-1	0.238	303.565	3	31	Target	Loss	True
304.477	0.55	Lose2	0.6562	n/a	No	2.82	n/a	n/a	NoResponse	-1	n/a	n/a	3	31	Blank	Loss	True
304.565	0.3	Lose2	0.6562	0.003	No	2.82	-0.003	4.0	NoResponse	-1	0.238	n/a	3	31	ButtonPress	Loss	True
305.029	1.45	Lose2	0.6562	n/a	No	2.82	n/a	5.0	NoResponse	-1	0.017	304.046	3	31	Feedback	Loss	True
306.483	2.82	Lose2	0.6562	n/a	No	2.82	n/a	n/a	NoResponse	-1	0.0	n/a	3	31	ISIslide	Loss	True
309.325	0.25	Lose2	0.6364	0.0	No	2.625	0.025	n/a	PrematurePress	-1	n/a	n/a	2	32	Cue	Loss	True
309.576	4.15	Lose2	0.6364	0.0	No	2.625	0.001	n/a	PrematurePress	-1	n/a	n/a	2	32	Fixation	Loss	True
313.721	0.15	Lose2	0.6364	0.004	No	2.625	-0.004	4.0	PrematurePress	-1	0.092	312.813	2	32	Target	Loss	True
313.813	0.3	Lose2	0.6364	0.004	No	2.625	-0.004	4.0	PrematurePress	-1	0.092	n/a	2	32	ButtonPress	Loss	True
313.872	0.55	Lose2	0.6364	n/a	No	2.625	n/a	n/a	PrematurePress	-1	n/a	n/a	2	32	Blank	Loss	True
314.424	1.45	Lose2	0.6364	n/a	No	2.625	n/a	5.0	PrematurePress	-1	0.037	313.461	2	32	Feedback	Loss	True
315.878	2.625	Lose2	0.6364	n/a	No	2.625	n/a	n/a	PrematurePress	-1	0.0	n/a	2	32	ISIslide	Loss	True
318.519	0.25	Win2	0.6175999999999999	0.0	No	2.681	0.019	n/a	NoResponse	0	n/a	n/a	2	33	Cue	MissedWin	True
318.77	4.0	Win2	0.6175999999999999	0.0	No	2.681	0.001	4.0	NoResponse	0	3.391	321.161	2	33	Fixation	MissedWin	True
322.161	0.3	Win2	0.6175999999999999	0.0	No	2.681	0.001	4.0	NoResponse	0	3.391	n/a	2	33	ButtonPress	MissedWin	True
322.765	0.16	Win2	0.6175999999999999	0.004	No	2.681	-0.004	n/a	NoResponse	0	n/a	n/a	2	33	Target	MissedWin	True
322.932	0.54	Win2	0.6175999999999999	n/a	No	2.681	n/a	n/a	NoResponse	0	n/a	n/a	2	33	Blank	MissedWin	True
323.467	1.45	Win2	0.6175999999999999	n/a	No	2.681	n/a	5.0	NoResponse	0	0.018	322.485	2	33	Feedback	MissedWin	True
324.922	2.681	Win2	0.6175999999999999	n/a	No	2.681	n/a	n/a	NoResponse	0	0.0	n/a	2	33	ISIslide	MissedWin	True
327.63	0.25	Lose2	0.6	0.0	No	2.62	0.03	n/a	NoResponse	-1	n/a	n/a	1	34	Cue	Loss	True
327.881	4.05	Lose2	0.6	0.0	No	2.62	0.001	n/a	NoResponse	-1	n/a	n/a	1	34	Fixation	Loss	True
331.926	0.17	Lose2	0.6	0.004	No	2.62	-0.004	4.0	NoResponse	-1	0.214	331.14	1	34	Target	Loss	True
332.11	0.53	Lose2	0.6	n/a	No	2.62	n/a	n/a	NoResponse	-1	n/a	n/a	1	34	Blank	Loss	True
332.14	0.3	Lose2	0.6	0.004	No	2.62	-0.004	4.0	NoResponse	-1	0.214	n/a	1	34	ButtonPress	Loss	True
332.628	1.45	Lose2	0.6	n/a	No	2.62	n/a	5.0	NoResponse	-1	0.028	331.656	1	34	Feedback	Loss	True
334.082	2.62	Lose2	0.6	n/a	No	2.62	n/a	n/a	NoResponse	-1	0.0	n/a	1	34	ISIslide	Loss	True
336.724	0.25	Lose2	0.6111	0.0	Yes	2.676	0.024	n/a	GoodResponse	0	n/a	n/a	1	35	Cue	AvoidedLoss	True
336.974	4.0	Lose2	0.6111	0.001	Yes	2.676	0.0	n/a	GoodResponse	0	n/a	n/a	1	35	Fixation	AvoidedLoss	True
340.97	0.18	Lose2	0.6111	0.004	Yes	2.676	-0.004	4.0	GoodResponse	0	0.146	340.116	1	35	Target	AvoidedLoss	True
341.116	0.3	Lose2	0.6111	0.004	Yes	2.676	-0.004	4.0	GoodResponse	0	0.146	n/a	1	35	ButtonPress	AvoidedLoss	True
341.154	0.52	Lose2	0.6111	n/a	Yes	2.676	n/a	n/a	GoodResponse	0	n/a	n/a	1	35	Blank	AvoidedLoss	True
341.672	1.45	Lose2	0.6111	n/a	Yes	2.676	n/a	5.0	GoodResponse	0	0.009	340.681	1	35	Feedback	AvoidedLoss	True
343.126	2.676	Lose2	0.6111	n/a	Yes	2.676	n/a	n/a	GoodResponse	0	0.0	n/a	1	35	ISIslide	AvoidedLoss	True
345.818	0.25	Control	0.5946	0.0	No	2.682	0.018	n/a	NoResponse	0	n/a	n/a	1	36	Cue	Neutral	True
346.068	4.0	Control	0.5946	0.0	No	2.682	0.0	n/a	NoResponse	0	n/a	n/a	1	36	Fixation	Neutral	True
350.064	0.19	Control	0.5946	0.004	No	2.682	-0.004	4.0	NoResponse	0	0.208	349.272	1	36	Target	Neutral	True
350.264	0.51	Control	0.5946	n/a	No	2.682	n/a	n/a	NoResponse	0	n/a	n/a	1	36	Blank	Neutral	True
350.272	0.3	Control	0.5946	0.004	No	2.682	-0.004	4.0	NoResponse	0	0.208	n/a	1	36	ButtonPress	Neutral	True
350.766	1.45	Control	0.5946	n/a	No	2.682	n/a	5.0	NoResponse	0	0.036	349.802	1	36	Feedback	Neutral	True
352.22	2.682	Control	0.5946	n/a	No	2.682	n/a	n/a	NoResponse	0	0.0	n/a	1	36	ISIslide	Neutral	True
354.928	0.25	Win2	0.5789	0.0	No	2.872	0.028	n/a	NoResponse	0	n/a	n/a	1	37	Cue	MissedWin	True
355.179	4.0	Win2	0.5789	0.0	No	2.872	0.001	n/a	NoResponse	0	n/a	n/a	1	37	Fixation	MissedWin	True
359.174	0.2	Win2	0.5789	0.004	No	2.872	-0.004	4.0	NoResponse	0	0.212	358.386	1	37	Target	MissedWin	True
359.375	0.5	Win2	0.5789	n/a	No	2.872	n/a	n/a	NoResponse	0	n/a	n/a	1	37	Blank	MissedWin	True
359.386	0.3	Win2	0.5789	0.004	No	2.872	-0.004	4.0	NoResponse	0	0.212	n/a	1	37	ButtonPress	MissedWin	True
359.876	1.45	Win2	0.5789	n/a	No	2.872	n/a	5.0	NoResponse	0	0.048	358.924	1	37	Feedback	MissedWin	True
361.331	2.872	Win2	0.5789	n/a	No	2.872	n/a	n/a	NoResponse	0	0.0	n/a	1	37	ISIslide	MissedWin	True
364.223	0.25	Lose2	0.5640999999999999	0.0	No	2.827	0.023	n/a	NoResponse	-1	n/a	n/a	0	38	Cue	Loss	False
364.473	3.95	Lose2	0.5640999999999999	0.0	No	2.827	0.0	n/a	NoResponse	-1	n/a	n/a	0	38	Fixation	Loss	False
368.419	0.21	Lose2	0.5640999999999999	0.004	No	2.827	-0.004	n/a	NoResponse	-1	n/a	n/a	0	38	Target	Loss	False
368.636	0.49	Lose2	0.5640999999999999	n/a	No	2.827	n/a	n/a	NoResponse	-1	n/a	n/a	0	38	Blank	Loss	False
369.121	1.45	Lose2	0.5640999999999999	n/a	No	2.827	n/a	5.0	NoResponse	-1	0.022	368.143	0	38	Feedback	Loss	False
370.575	2.827	Lose2	0.5640999999999999	n/a	No	2.827	n/a	n/a	NoResponse	-1	0.0	n/a	0	38	ISIslide	Loss	False
373.417	0.25	Win2	0.575	0.0	Yes	2.983	0.017	n/a	GoodResponse	1	n/a	n/a	1	39	Cue	Win	True
373.668	4.1	Win2	0.575	0.0	Yes	2.983	0.001	n/a	GoodResponse	1	n/a	n/a	1	39	Fixation	Win	True
377.763	0.22	Win2	0.575	0.004	Yes	2.983	-0.004	4.0	GoodResponse	1	0.209	376.972	1	39	Target	Win	True
377.972	0.3	Win2	0.575	0.004	Yes	2.983	-0.004	4.0	GoodResponse	1	0.209	n/a	1	39	ButtonPress	Win	True
377.997	0.48	Win2	0.575	n/a	Yes	2.983	n/a	n/a	GoodResponse	1	n/a	n/a	1	39	Blank	Win	True
378.465	1.45	Win2	0.575	n/a	Yes	2.983	n/a	5.0	GoodResponse	1	0.044	377.509	1	39	Feedback	Win	True
379.92	2.983	Win2	0.575	n/a	Yes	2.983	n/a	n/a	GoodResponse	1	0.0	n/a	1	39	ISIslide	Win	True
382.929	0.25	Win2	0.5854	0.0	Yes	2.721	0.029	n/a	GoodResponse	1	n/a	n/a	2	40	Cue	Win	True
383.179	3.95	Win2	0.5854	0.0	Yes	2.721	0.0	n/a	GoodResponse	1	n/a	n/a	2	40	Fixation	Win	True
387.125	0.23	Win2	0.5854	0.004	Yes	2.721	-0.004	4.0	GoodResponse	1	0.211	386.336	2	40	Target	Win	True
387.336	0.3	Win2	0.5854	0.004	Yes	2.721	-0.004	4.0	GoodResponse	1	0.211	n/a	2	40	ButtonPress	Win	True
387.359	0.47	Win2	0.5854	n/a	Yes	2.721	n/a	n/a	GoodResponse	1	n/a	n/a	2	40	Blank	Win	True
387.827	1.45	Win2	0.5854	n/a	Yes	2.721	n/a	5.0	GoodResponse	1	0.048	386.875	2	40	Feedback	Win	True
389.281	2.721	Win2	0.5854	n/a	Yes	2.721	n/a	n/a	GoodResponse	1	0.0	n/a	2	40	ISIslide	Win	True
392.023	0.25	Win2	0.5952000000000001	0.0	Yes	2.777	0.023	n/a	GoodResponse	1	n/a	n/a	3	41	Cue	Win	True
392.273	3.9	Win2	0.5952000000000001	0.0	Yes	2.777	0.0	n/a	GoodResponse	1	n/a	n/a	3	41	Fixation	Win	True
396.185	0.24	Win2	0.5952000000000001	0.0	Yes	2.777	0.012	4.0	GoodResponse	1	0.217	395.402	3	41	Target	Win	True
396.402	0.3	Win2	0.5952000000000001	0.0	Yes	2.777	0.012	4.0	GoodResponse	1	0.217	n/a	3	41	ButtonPress	Win	True
396.419	0.46	Win2	0.5952000000000001	n/a	Yes	2.777	n/a	n/a	GoodResponse	1	n/a	n/a	3	41	Blank	Win	True
396.87	1.45	Win2	0.5952000000000001	n/a	Yes	2.777	n/a	5.0	GoodResponse	1	0.029	395.899	3	41	Feedback	Win	True
398.325	2.777	Win2	0.5952000000000001	n/a	Yes	2.777	n/a	n/a	GoodResponse	1	0.0	n/a	3	41	ISIslide	Win	True
401.116	0.25	Control	0.6047	0.001	Yes	2.934	0.016	n/a	GoodResponse	0	n/a	n/a	3	42	Cue	Neutral	True
401.367	3.85	Control	0.6047	0.0	Yes	2.934	0.001	n/a	GoodResponse	0	n/a	n/a	3	42	Fixation	Neutral	True
405.212	0.25	Control	0.6047	0.004	Yes	2.934	-0.004	4.0	GoodResponse	0	0.211	404.423	3	42	Target	Neutral	True
405.423	0.3	Control	0.6047	0.004	Yes	2.934	-0.004	4.0	GoodResponse	0	0.211	n/a	3	42	ButtonPress	Neutral	True
405.463	0.45	Control	0.6047	n/a	Yes	2.934	n/a	n/a	GoodResponse	0	n/a	n/a	3	42	Blank	Neutral	True
405.914	1.45	Control	0.6047	n/a	Yes	2.934	n/a	5.0	GoodResponse	0	0.009	404.923	3	42	Feedback	Neutral	True
407.368	2.934	Control	0.6047	n/a	Yes	2.934	n/a	n/a	GoodResponse	0	0.0	n/a	3	42	ISIslide	Neutral	True
410.327	0.25	Win2	0.5909	0.0	No	3.173	0.027	n/a	NoResponse	0	n/a	n/a	3	43	Cue	MissedWin	True
410.578	4.0	Win2	0.5909	0.0	No	3.173	0.001	n/a	NoResponse	0	n/a	n/a	3	43	Fixation	MissedWin	True
414.573	0.26	Win2	0.5909	0.004	No	3.173	-0.004	4.0	NoResponse	0	0.293	413.866	3	43	Target	MissedWin	True
414.841	0.44	Win2	0.5909	n/a	No	3.173	n/a	n/a	NoResponse	0	n/a	n/a	3	43	Blank	MissedWin	True
414.866	0.3	Win2	0.5909	0.004	No	3.173	-0.004	4.0	NoResponse	0	0.293	n/a	3	43	ButtonPress	MissedWin	True
415.275	1.45	Win2	0.5909	n/a	No	3.173	n/a	5.0	NoResponse	0	0.014	414.289	3	43	Feedback	MissedWin	True
416.73	3.173	Win2	0.5909	n/a	No	3.173	n/a	n/a	NoResponse	0	0.0	n/a	3	43	ISIslide	MissedWin	True
419.923	0.25	Win2	0.6	0.0	Yes	2.977	0.023	n/a	GoodResponse	1	n/a	n/a	4	44	Cue	Win	True
420.173	4.0	Win2	0.6	0.001	Yes	2.977	0.0	n/a	GoodResponse	1	n/a	n/a	4	44	Fixation	Win	True
424.169	0.27	Win2	0.6	0.004	Yes	2.977	-0.004	4.0	GoodResponse	1	0.196	423.365	4	44	Target	Win	True
424.365	0.3	Win2	0.6	0.004	Yes	2.977	-0.004	4.0	GoodResponse	1	0.196	n/a	4	44	ButtonPress	Win	True
424.453	0.43	Win2	0.6	n/a	Yes	2.977	n/a	n/a	GoodResponse	1	n/a	n/a	4	44	Blank	Win	True
424.871	1.45	Win2	0.6	n/a	Yes	2.977	n/a	5.0	GoodResponse	1	0.028	423.899	4	44	Feedback	Win	True
426.325	2.977	Win2	0.6	n/a	Yes	2.977	n/a	n/a	GoodResponse	1	0.0	n/a	4	44	ISIslide	Win	True
429.317	0.25	Control	0.6087	0.001	Yes	2.883	0.017	n/a	GoodResponse	0	n/a	n/a	4	45	Cue	Neutral	True
429.568	4.1	Control	0.6087	0.0	Yes	2.883	0.001	n/a	GoodResponse	0	n/a	n/a	4	45	Fixation	Neutral	True
433.664	0.28	Control	0.6087	0.003	Yes	2.883	-0.003	4.0	GoodResponse	0	0.199	432.863	4	45	Target	Neutral	True
433.863	0.3	Control	0.6087	0.003	Yes	2.883	-0.003	4.0	GoodResponse	0	0.199	n/a	4	45	ButtonPress	Neutral	True
433.948	0.42	Control	0.6087	n/a	Yes	2.883	n/a	n/a	GoodResponse	0	n/a	n/a	4	45	Blank	Neutral	True
434.366	1.45	Control	0.6087	n/a	Yes	2.883	n/a	5.0	GoodResponse	0	0.045	433.411	4	45	Feedback	Neutral	True
435.82	2.883	Control	0.6087	n/a	Yes	2.883	n/a	n/a	GoodResponse	0	0.0	n/a	4	45	ISIslide	Neutral	True
438.729	0.25	Lose2	0.617	0.0	Yes	3.371	0.029	n/a	GoodResponse	0	n/a	n/a	4	46	Cue	AvoidedLoss	True
438.98	4.0	Lose2	0.617	0.0	Yes	3.371	0.001	n/a	GoodResponse	0	n/a	n/a	4	46	Fixation	AvoidedLoss	True
442.975	0.29	Lose2	0.617	0.004	Yes	3.371	-0.004	4.0	GoodResponse	0	0.216	442.191	4	46	Target	AvoidedLoss	True
443.191	0.3	Lose2	0.617	0.004	Yes	3.371	-0.004	4.0	GoodResponse	0	0.216	n/a	4	46	ButtonPress	AvoidedLoss	True
443.276	0.41	Lose2	0.617	n/a	Yes	3.371	n/a	n/a	GoodResponse	0	n/a	n/a	4	46	Blank	AvoidedLoss	True
443.677	1.45	Lose2	0.617	n/a	Yes	3.371	n/a	5.0	GoodResponse	0	0.007	442.684	4	46	Feedback	AvoidedLoss	True
445.131	3.371	Lose2	0.617	n/a	Yes	3.371	n/a	n/a	GoodResponse	0	0.0	n/a	4	46	ISIslide	AvoidedLoss	True
448.525	0.25	Lose2	0.625	0.0	Yes	2.675	0.025	n/a	GoodResponse	0	n/a	n/a	4	47	Cue	AvoidedLoss	True
448.776	4.0	Lose2	0.625	0.0	Yes	2.675	0.001	n/a	GoodResponse	0	n/a	n/a	4	47	Fixation	AvoidedLoss	True
452.771	0.3	Lose2	0.625	0.004	Yes	2.675	-0.004	4.0	GoodResponse	0	0.242	452.013	4	47	Target	AvoidedLoss	True
453.013	0.3	Lose2	0.625	0.004	Yes	2.675	-0.004	4.0	GoodResponse	0	0.242	n/a	4	47	ButtonPress	AvoidedLoss	True
453.072	0.4	Lose2	0.625	n/a	Yes	2.675	n/a	n/a	GoodResponse	0	n/a	n/a	4	47	Blank	AvoidedLoss	True
453.473	1.45	Lose2	0.625	n/a	Yes	2.675	n/a	5.0	GoodResponse	0	0.011	452.484	4	47	Feedback	AvoidedLoss	True
454.927	2.675	Lose2	0.625	n/a	Yes	2.675	n/a	n/a	GoodResponse	0	0.0	n/a	4	47	ISIslide	AvoidedLoss	True
457.619	0.25	Lose2	0.6327	0.0	Yes	3.031	0.019	n/a	GoodResponse	0	n/a	n/a	4	48	Cue	AvoidedLoss	True
457.87	3.95	Lose2	0.6327	0.0	Yes	3.031	0.001	n/a	GoodResponse	0	n/a	n/a	4	48	Fixation	AvoidedLoss	True
461.815	0.31	Lose2	0.6327	0.004	Yes	3.031	-0.004	4.0	GoodResponse	0	0.219	461.034	4	48	Target	AvoidedLoss	True
462.034	0.3	Lose2	0.6327	0.004	Yes	3.031	-0.004	4.0	GoodResponse	0	0.219	n/a	4	48	ButtonPress	AvoidedLoss	True
462.132	0.39	Lose2	0.6327	n/a	Yes	3.031	n/a	n/a	GoodResponse	0	n/a	n/a	4	48	Blank	AvoidedLoss	True
462.517	1.45	Lose2	0.6327	n/a	Yes	3.031	n/a	5.0	GoodResponse	0	0.04	461.557	4	48	Feedback	AvoidedLoss	True
463.971	3.031	Lose2	0.6327	n/a	Yes	3.031	n/a	n/a	GoodResponse	0	0.0	n/a	4	48	ISIslide	AvoidedLoss	True
467.03	0.25	Control	0.64	0.0	Yes	2.87	0.03	n/a	GoodResponse	0	n/a	n/a	4	49	Cue	Neutral	True
467.281	4.0	Control	0.64	0.0	Yes	2.87	0.001	n/a	GoodResponse	0	n/a	n/a	4	49	Fixation	Neutral	True
471.276	0.32	Control	0.64	0.004	Yes	2.87	-0.004	4.0	GoodResponse	0	0.296	470.572	4	49	Target	Neutral	True
471.572	0.3	Control	0.64	0.004	Yes	2.87	-0.004	4.0	GoodResponse	0	0.296	n/a	4	49	ButtonPress	Neutral	True
471.611	0.38	Control	0.64	n/a	Yes	2.87	n/a	n/a	GoodResponse	0	n/a	n/a	4	49	Blank	Neutral	True
471.979	1.45	Control	0.64	n/a	Yes	2.87	n/a	5.0	GoodResponse	0	0.041	471.02	4	49	Feedback	Neutral	True
473.433	2.87	Control	0.64	n/a	Yes	2.87	n/a	n/a	GoodResponse	0	0.0	n/a	4	49	ISIslide	Neutral	True
476.325	0.25	Control	0.6470999999999999	0.0	Yes	2.775	0.025	n/a	GoodResponse	0	n/a	n/a	4	50	Cue	Neutral	True
476.576	4.0	Control	0.6470999999999999	0.0	Yes	2.775	0.001	n/a	GoodResponse	0	n/a	n/a	4	50	Fixation	Neutral	True
480.571	0.33	Control	0.6470999999999999	0.004	Yes	2.775	-0.004	4.0	GoodResponse	0	0.212	479.783	4	50	Target	Neutral	True
480.783	0.3	Control	0.6470999999999999	0.004	Yes	2.775	-0.004	4.0	GoodResponse	0	0.212	n/a	4	50	ButtonPress	Neutral	True
480.905	0.37	Control	0.6470999999999999	n/a	Yes	2.775	n/a	n/a	GoodResponse	0	n/a	n/a	4	50	Blank	Neutral	True
481.273	1.45	Control	0.6470999999999999	n/a	Yes	2.775	n/a	5.0	GoodResponse	0	0.016	480.289	4	50	Feedback	Neutral	True
482.727	2.775	Control	0.6470999999999999	n/a	Yes	2.775	n/a	n/a	GoodResponse	0	0.0	n/a	4	50	ISIslide	Neutral	True
485.519	0.25	Control	0.6537999999999999	0.0	Yes	2.731	0.019	n/a	GoodResponse	0	n/a	n/a	4	51	Cue	Neutral	True
485.77	3.95	Control	0.6537999999999999	0.0	Yes	2.731	0.001	n/a	GoodResponse	0	n/a	n/a	4	51	Fixation	Neutral	True
489.715	0.34	Control	0.6537999999999999	0.004	Yes	2.731	-0.004	4.0	GoodResponse	0	0.223	488.938	4	51	Target	Neutral	True
489.938	0.3	Control	0.6537999999999999	0.004	Yes	2.731	-0.004	4.0	GoodResponse	0	0.223	n/a	4	51	ButtonPress	Neutral	True
490.066	0.36	Control	0.6537999999999999	n/a	Yes	2.731	n/a	n/a	GoodResponse	0	n/a	n/a	4	51	Blank	Neutral	True
490.417	1.45	Control	0.6537999999999999	n/a	Yes	2.731	n/a	5.0	GoodResponse	0	0.043	489.46	4	51	Feedback	Neutral	True
491.871	2.731	Control	0.6537999999999999	n/a	Yes	2.731	n/a	n/a	GoodResponse	0	0.0	n/a	4	51	ISIslide	Neutral	True
494.63	0.25	Control	0.6604000000000001	0.0	Yes	2.62	0.03	n/a	GoodResponse	0	n/a	n/a	4	52	Cue	Neutral	True
494.88	4.05	Control	0.6604000000000001	0.0	Yes	2.62	0.0	n/a	GoodResponse	0	n/a	n/a	4	52	Fixation	Neutral	True
498.926	0.35	Control	0.6604000000000001	0.004	Yes	2.62	-0.004	4.0	GoodResponse	0	0.214	498.14	4	52	Target	Neutral	True
499.14	0.3	Control	0.6604000000000001	0.004	Yes	2.62	-0.004	4.0	GoodResponse	0	0.214	n/a	4	52	ButtonPress	Neutral	True
499.277	0.35	Control	0.6604000000000001	n/a	Yes	2.62	n/a	n/a	GoodResponse	0	n/a	n/a	4	52	Blank	Neutral	True
499.628	1.45	Control	0.6604000000000001	n/a	Yes	2.62	n/a	5.0	GoodResponse	0	0.001	498.629	4	52	Feedback	Neutral	True
501.082	2.62	Control	0.6604000000000001	n/a	Yes	2.62	n/a	n/a	GoodResponse	0	0.0	n/a	4	52	ISIslide	Neutral	True
503.724	0.25	Win2	0.6667000000000001	0.0	Yes	2.926	0.024	n/a	GoodResponse	1	n/a	n/a	5	53	Cue	Win	True
503.974	4.05	Win2	0.6667000000000001	0.0	Yes	2.926	0.0	n/a	GoodResponse	1	n/a	n/a	5	53	Fixation	Win	True
508.02	0.35	Win2	0.6667000000000001	0.004	Yes	2.926	-0.004	4.0	GoodResponse	1	0.226	507.246	5	53	Target	Win	True
508.246	0.3	Win2	0.6667000000000001	0.004	Yes	2.926	-0.004	4.0	GoodResponse	1	0.226	n/a	5	53	ButtonPress	Win	True
508.371	0.35	Win2	0.6667000000000001	n/a	Yes	2.926	n/a	n/a	GoodResponse	1	n/a	n/a	5	53	Blank	Win	True
508.722	1.45	Win2	0.6667000000000001	n/a	Yes	2.926	n/a	5.0	GoodResponse	1	0.03	507.752	5	53	Feedback	Win	True
510.176	2.926	Win2	0.6667000000000001	n/a	Yes	2.926	n/a	n/a	GoodResponse	1	0.0	n/a	5	53	ISIslide	Win	True
513.118	0.25	Win2	0.6727	0.0	Yes	2.732	0.018	n/a	GoodResponse	1	n/a	n/a	6	54	Cue	Win	True
513.369	3.95	Win2	0.6727	0.0	Yes	2.732	0.001	n/a	GoodResponse	1	n/a	n/a	6	54	Fixation	Win	True
517.314	0.34	Win2	0.6727	0.004	Yes	2.732	-0.004	4.0	GoodResponse	1	0.228	516.542	6	54	Target	Win	True
517.542	0.3	Win2	0.6727	0.004	Yes	2.732	-0.004	4.0	GoodResponse	1	0.228	n/a	6	54	ButtonPress	Win	True
517.665	0.36	Win2	0.6727	n/a	Yes	2.732	n/a	n/a	GoodResponse	1	n/a	n/a	6	54	Blank	Win	True
518.016	1.45	Win2	0.6727	n/a	Yes	2.732	n/a	5.0	GoodResponse	1	0.007	517.023	6	54	Feedback	Win	True
519.471	2.732	Win2	0.6727	n/a	Yes	2.732	n/a	n/a	GoodResponse	1	0.0	n/a	6	54	ISIslide	Win	True
522.229	0.25	Control	0.6786	0.0	Yes	3.021	0.029	n/a	GoodResponse	0	n/a	n/a	6	55	Cue	Neutral	True
522.48	3.95	Control	0.6786	0.0	Yes	3.021	0.001	n/a	GoodResponse	0	n/a	n/a	6	55	Fixation	Neutral	True
526.425	0.33	Control	0.6786	0.004	Yes	3.021	-0.004	4.0	GoodResponse	0	0.147	525.572	6	55	Target	Neutral	True
526.572	0.3	Control	0.6786	0.004	Yes	3.021	-0.004	4.0	GoodResponse	0	0.147	n/a	6	55	ButtonPress	Neutral	True
526.759	0.37	Control	0.6786	n/a	Yes	3.021	n/a	n/a	GoodResponse	0	n/a	n/a	6	55	Blank	Neutral	True
527.127	1.45	Control	0.6786	n/a	Yes	3.021	n/a	5.0	GoodResponse	0	0.015	526.142	6	55	Feedback	Neutral	True
528.581	3.021	Control	0.6786	n/a	Yes	3.021	n/a	n/a	GoodResponse	0	0.0	n/a	6	55	ISIslide	Neutral	True
531.624	0.25	Control	0.6842	0.0	Yes	2.826	0.024	n/a	GoodResponse	0	n/a	n/a	6	56	Cue	Neutral	True
531.874	3.95	Control	0.6842	0.001	Yes	2.826	0.0	n/a	GoodResponse	0	n/a	n/a	6	56	Fixation	Neutral	True
535.82	0.32	Control	0.6842	0.004	Yes	2.826	-0.004	4.0	GoodResponse	0	0.216	535.036	6	56	Target	Neutral	True
536.036	0.3	Control	0.6842	0.004	Yes	2.826	-0.004	4.0	GoodResponse	0	0.216	n/a	6	56	ButtonPress	Neutral	True
536.154	0.38	Control	0.6842	n/a	Yes	2.826	n/a	n/a	GoodResponse	0	n/a	n/a	6	56	Blank	Neutral	True
536.522	1.45	Control	0.6842	n/a	Yes	2.826	n/a	5.0	GoodResponse	0	0.035	535.557	6	56	Feedback	Neutral	True
537.976	2.826	Control	0.6842	n/a	Yes	2.826	n/a	n/a	GoodResponse	0	0.0	n/a	6	56	ISIslide	Neutral	True
540.818	0.25	Control	0.6897	0.0	Yes	3.482	0.018	n/a	GoodResponse	0	n/a	n/a	6	57	Cue	Neutral	True
541.069	4.0	Control	0.6897	0.0	Yes	3.482	0.001	n/a	GoodResponse	0	n/a	n/a	6	57	Fixation	Neutral	True
545.064	0.31	Control	0.6897	0.004	Yes	3.482	-0.004	4.0	GoodResponse	0	0.233	544.297	6	57	Target	Neutral	True
545.297	0.3	Control	0.6897	0.004	Yes	3.482	-0.004	4.0	GoodResponse	0	0.233	n/a	6	57	ButtonPress	Neutral	True
545.382	0.39	Control	0.6897	n/a	Yes	3.482	n/a	n/a	GoodResponse	0	n/a	n/a	6	57	Blank	Neutral	True
545.766	1.45	Control	0.6897	n/a	Yes	3.482	n/a	5.0	GoodResponse	0	0.01	544.776	6	57	Feedback	Neutral	True
547.22	3.482	Control	0.6897	n/a	Yes	3.482	n/a	n/a	GoodResponse	0	0.0	n/a	6	57	ISIslide	Neutral	True
550.731	0.25	Win2	0.6949	0.0	Yes	2.719	0.031	n/a	GoodResponse	1	n/a	n/a	7	58	Cue	Win	True
550.982	4.05	Win2	0.6949	0.0	Yes	2.719	0.001	n/a	GoodResponse	1	n/a	n/a	7	58	Fixation	Win	True
555.027	0.3	Win2	0.6949	0.004	Yes	2.719	-0.004	4.0	GoodResponse	1	0.204	554.231	7	58	Target	Win	True
555.231	0.3	Win2	0.6949	0.004	Yes	2.719	-0.004	4.0	GoodResponse	1	0.204	n/a	7	58	ButtonPress	Win	True
555.328	0.4	Win2	0.6949	n/a	Yes	2.719	n/a	n/a	GoodResponse	1	n/a	n/a	7	58	Blank	Win	True
555.729	1.45	Win2	0.6949	n/a	Yes	2.719	n/a	5.0	GoodResponse	1	0.046	554.775	7	58	Feedback	Win	True
557.184	2.719	Win2	0.6949	n/a	Yes	2.719	n/a	n/a	GoodResponse	1	0.0	n/a	7	58	ISIslide	Win	True
559.925	0.25	Lose2	0.7	0.0	Yes	2.675	0.025	n/a	GoodResponse	0	n/a	n/a	7	59	Cue	AvoidedLoss	True
560.176	4.0	Lose2	0.7	0.0	Yes	2.675	0.001	n/a	GoodResponse	0	n/a	n/a	7	59	Fixation	AvoidedLoss	True
564.171	0.29	Lose2	0.7	0.004	Yes	2.675	-0.004	4.0	GoodResponse	0	0.261	563.432	7	59	Target	AvoidedLoss	True
564.432	0.3	Lose2	0.7	0.004	Yes	2.675	-0.004	4.0	GoodResponse	0	0.261	n/a	7	59	ButtonPress	AvoidedLoss	True
564.472	0.41	Lose2	0.7	n/a	Yes	2.675	n/a	n/a	GoodResponse	0	n/a	n/a	7	59	Blank	AvoidedLoss	True
564.873	1.45	Lose2	0.7	n/a	Yes	2.675	n/a	5.0	GoodResponse	0	0.024	563.897	7	59	Feedback	AvoidedLoss	True
566.328	2.675	Lose2	0.7	n/a	Yes	2.675	n/a	n/a	GoodResponse	0	0.0	n/a	7	59	ISIslide	AvoidedLoss	True
569.019	0.25	Control	0.7049	0.0	Yes	2.681	0.019	n/a	GoodResponse	0	n/a	n/a	7	60	Cue	Neutral	True
569.27	4.0	Control	0.7049	0.0	Yes	2.681	0.001	n/a	GoodResponse	0	n/a	n/a	7	60	Fixation	Neutral	True
573.265	0.28	Control	0.7049	0.004	Yes	2.681	-0.004	4.0	GoodResponse	0	0.208	572.473	7	60	Target	Neutral	True
573.473	0.3	Control	0.7049	0.004	Yes	2.681	-0.004	4.0	GoodResponse	0	0.208	n/a	7	60	ButtonPress	Neutral	True
573.549	0.42	Control	0.7049	n/a	Yes	2.681	n/a	n/a	GoodResponse	0	n/a	n/a	7	60	Blank	Neutral	True
573.967	1.45	Control	0.7049	n/a	Yes	2.681	n/a	5.0	GoodResponse	0	0.007	572.974	7	60	Feedback	Neutral	True
575.421	2.681	Control	0.7049	n/a	Yes	2.681	n/a	n/a	GoodResponse	0	0.0	n/a	7	60	ISIslide	Neutral	True
578.13	0.25	Lose2	0.7097	0.0	Yes	2.97	0.03	n/a	GoodResponse	0	n/a	n/a	7	61	Cue	AvoidedLoss	True
578.38	4.0	Lose2	0.7097	0.0	Yes	2.97	0.0	n/a	GoodResponse	0	n/a	n/a	7	61	Fixation	AvoidedLoss	True
582.376	0.27	Lose2	0.7097	0.004	Yes	2.97	-0.004	4.0	GoodResponse	0	0.211	581.587	7	61	Target	AvoidedLoss	True
582.587	0.3	Lose2	0.7097	0.004	Yes	2.97	-0.004	4.0	GoodResponse	0	0.211	n/a	7	61	ButtonPress	AvoidedLoss	True
582.66	0.43	Lose2	0.7097	n/a	Yes	2.97	n/a	n/a	GoodResponse	0	n/a	n/a	7	61	Blank	AvoidedLoss	True
583.078	1.45	Lose2	0.7097	n/a	Yes	2.97	n/a	5.0	GoodResponse	0	0.015	582.093	7	61	Feedback	AvoidedLoss	True
584.532	2.97	Lose2	0.7097	n/a	Yes	2.97	n/a	n/a	GoodResponse	0	0.0	n/a	7	61	ISIslide	AvoidedLoss	True
587.524	0.25	Lose2	0.7143	0.0	Yes	2.876	0.024	n/a	GoodResponse	0	n/a	n/a	7	62	Cue	AvoidedLoss	True
587.775	3.9	Lose2	0.7143	0.0	Yes	2.876	0.001	n/a	GoodResponse	0	n/a	n/a	7	62	Fixation	AvoidedLoss	True
591.67	0.26	Lose2	0.7143	0.004	Yes	2.876	-0.004	4.0	GoodResponse	0	0.219	590.889	7	62	Target	AvoidedLoss	True
591.889	0.3	Lose2	0.7143	0.004	Yes	2.876	-0.004	4.0	GoodResponse	0	0.219	n/a	7	62	ButtonPress	AvoidedLoss	True
591.938	0.44	Lose2	0.7143	n/a	Yes	2.876	n/a	n/a	GoodResponse	0	n/a	n/a	7	62	Blank	AvoidedLoss	True
592.372	1.45	Lose2	0.7143	n/a	Yes	2.876	n/a	5.0	GoodResponse	0	0.038	591.41	7	62	Feedback	AvoidedLoss	True
593.827	2.876	Lose2	0.7143	n/a	Yes	2.876	n/a	n/a	GoodResponse	0	0.0	n/a	7	62	ISIslide	AvoidedLoss	True
596.719	0.25	Lose2	0.7188	0.0	Yes	2.631	0.019	n/a	GoodResponse	0	n/a	n/a	7	63	Cue	AvoidedLoss	True
596.969	4.05	Lose2	0.7188	0.0	Yes	2.631	0.0	n/a	GoodResponse	0	n/a	n/a	7	63	Fixation	AvoidedLoss	True
601.015	0.25	Lose2	0.7188	0.004	Yes	2.631	-0.004	4.0	GoodResponse	0	0.237	600.252	7	63	Target	AvoidedLoss	True
601.252	0.3	Lose2	0.7188	0.004	Yes	2.631	-0.004	4.0	GoodResponse	0	0.237	n/a	7	63	ButtonPress	AvoidedLoss	True
601.266	0.45	Lose2	0.7188	n/a	Yes	2.631	n/a	n/a	GoodResponse	0	n/a	n/a	7	63	Blank	AvoidedLoss	True
601.717	1.45	Lose2	0.7188	n/a	Yes	2.631	n/a	5.0	GoodResponse	0	0.009	600.726	7	63	Feedback	AvoidedLoss	True
603.171	2.631	Lose2	0.7188	n/a	Yes	2.631	n/a	n/a	GoodResponse	0	0.0	n/a	7	63	ISIslide	AvoidedLoss	True
605.829	0.25	Win2	0.7231000000000001	0.0	Yes	3.121	0.029	n/a	GoodResponse	1	n/a	n/a	8	64	Cue	Win	True
606.08	4.15	Win2	0.7231000000000001	0.0	Yes	3.121	0.001	n/a	GoodResponse	1	n/a	n/a	8	64	Fixation	Win	True
610.226	0.24	Win2	0.7231000000000001	0.003	Yes	3.121	-0.003	4.0	GoodResponse	1	0.154	609.38	8	64	Target	Win	True
610.38	0.3	Win2	0.7231000000000001	0.003	Yes	3.121	-0.003	4.0	GoodResponse	1	0.154	n/a	8	64	ButtonPress	Win	True
610.476	0.46	Win2	0.7231000000000001	n/a	Yes	3.121	n/a	n/a	GoodResponse	1	n/a	n/a	8	64	Blank	Win	True
610.928	1.45	Win2	0.7231000000000001	n/a	Yes	3.121	n/a	5.0	GoodResponse	1	0.018	609.946	8	64	Feedback	Win	True
612.382	3.121	Win2	0.7231000000000001	n/a	Yes	3.121	n/a	n/a	GoodResponse	1	0.0	n/a	8	64	ISIslide	Win	True
615.525	0.25	Control	0.7121	0.0	No	2.775	0.025	n/a	NoResponse	0	n/a	n/a	8	65	Cue	Neutral	True
615.776	4.0	Control	0.7121	0.0	No	2.775	0.001	n/a	NoResponse	0	n/a	n/a	8	65	Fixation	Neutral	True
619.771	0.23	Control	0.7121	0.004	No	2.775	-0.004	4.0	NoResponse	0	0.273	619.044	8	65	Target	Neutral	True
620.005	0.47	Control	0.7121	n/a	No	2.775	n/a	n/a	NoResponse	0	n/a	n/a	8	65	Blank	Neutral	True
620.044	0.3	Control	0.7121	0.004	No	2.775	-0.004	4.0	NoResponse	0	0.273	n/a	8	65	ButtonPress	Neutral	True
620.473	1.45	Control	0.7121	n/a	No	2.775	n/a	5.0	NoResponse	0	0.034	619.507	8	65	Feedback	Neutral	True
621.927	2.775	Control	0.7121	n/a	No	2.775	n/a	n/a	NoResponse	0	0.0	n/a	8	65	ISIslide	Neutral	True
624.719	0.25	Win2	0.7015	0.0	No	2.781	0.019	n/a	LatePress	0	n/a	n/a	8	66	Cue	MissedWin	True
624.97	3.9	Win2	0.7015	0.0	No	2.781	0.001	n/a	LatePress	0	n/a	n/a	8	66	Fixation	MissedWin	True
628.865	0.22	Win2	0.7015	0.004	No	2.781	-0.004	4.0	LatePress	0	0.232	628.097	8	66	Target	MissedWin	True
629.097	0.3	Win2	0.7015	0.004	No	2.781	-0.004	4.0	LatePress	0	0.232	n/a	8	66	ButtonPress	MissedWin	True
629.099	0.48	Win2	0.7015	n/a	No	2.781	n/a	n/a	LatePress	0	n/a	n/a	8	66	Blank	MissedWin	True
629.567	1.45	Win2	0.7015	n/a	No	2.781	n/a	5.0	LatePress	0	0.013	628.58	8	66	Feedback	MissedWin	True
631.021	2.781	Win2	0.7015	n/a	No	2.781	n/a	n/a	LatePress	0	0.0	n/a	8	66	ISIslide	MissedWin	True
633.83	0.25	Control	0.6912	0.0	No	2.72	0.03	n/a	NoResponse	0	n/a	n/a	8	67	Cue	Neutral	False
634.08	3.95	Control	0.6912	0.0	No	2.72	0.0	n/a	NoResponse	0	n/a	n/a	8	67	Fixation	Neutral	False
638.026	0.21	Control	0.6912	0.004	No	2.72	-0.004	n/a	NoResponse	0	n/a	n/a	8	67	Target	Neutral	False
638.243	0.49	Control	0.6912	n/a	No	2.72	n/a	n/a	NoResponse	0	n/a	n/a	8	67	Blank	Neutral	False
638.728	1.45	Control	0.6912	n/a	No	2.72	n/a	5.0	NoResponse	0	0.023	637.751	8	67	Feedback	Neutral	False
640.182	2.72	Control	0.6912	n/a	No	2.72	n/a	n/a	NoResponse	0	0.0	n/a	8	67	ISIslide	Neutral	False
642.924	0.25	Win2	0.6812	0.0	No	3.076	0.024	n/a	NoResponse	0	n/a	n/a	8	68	Cue	MissedWin	True
643.174	4.0	Win2	0.6812	0.0	No	3.076	0.0	n/a	NoResponse	0	n/a	n/a	8	68	Fixation	MissedWin	True
647.17	0.2	Win2	0.6812	0.004	No	3.076	-0.004	4.0	NoResponse	0	0.212	646.382	8	68	Target	MissedWin	True
647.37	0.5	Win2	0.6812	n/a	No	3.076	n/a	n/a	NoResponse	0	n/a	n/a	8	68	Blank	MissedWin	True
647.382	0.3	Win2	0.6812	0.004	No	3.076	-0.004	4.0	NoResponse	0	0.212	n/a	8	68	ButtonPress	MissedWin	True
647.872	1.45	Win2	0.6812	n/a	No	3.076	n/a	5.0	NoResponse	0	0.0	646.872	8	68	Feedback	MissedWin	True
649.326	3.076	Win2	0.6812	n/a	No	3.076	n/a	n/a	NoResponse	0	0.0	n/a	8	68	ISIslide	MissedWin	True
652.419	0.25	Win2	0.6714	0.0	No	3.231	0.019	n/a	NoResponse	0	n/a	n/a	8	69	Cue	MissedWin	True
652.669	3.95	Win2	0.6714	0.0	No	3.231	0.0	n/a	NoResponse	0	n/a	n/a	8	69	Fixation	MissedWin	True
656.615	0.19	Win2	0.6714	0.004	No	3.231	-0.004	4.0	NoResponse	0	0.218	655.833	8	69	Target	MissedWin	True
656.815	0.51	Win2	0.6714	n/a	No	3.231	n/a	n/a	NoResponse	0	n/a	n/a	8	69	Blank	MissedWin	True
656.833	0.3	Win2	0.6714	0.004	No	3.231	-0.004	4.0	NoResponse	0	0.218	n/a	8	69	ButtonPress	MissedWin	True
657.317	1.45	Win2	0.6714	n/a	No	3.231	n/a	5.0	NoResponse	0	0.018	656.335	8	69	Feedback	MissedWin	True
658.771	3.231	Win2	0.6714	n/a	No	3.231	n/a	n/a	NoResponse	0	0.0	n/a	8	69	ISIslide	MissedWin	True
662.031	0.25	Lose2	0.662	0.0	No	3.019	0.031	n/a	NoResponse	-1	n/a	n/a	7	70	Cue	Loss	True
662.281	4.05	Lose2	0.662	0.001	No	3.019	0.0	n/a	NoResponse	-1	n/a	n/a	7	70	Fixation	Loss	True
666.327	0.18	Lose2	0.662	0.004	No	3.019	-0.004	4.0	NoResponse	-1	0.192	665.519	7	70	Target	Loss	True
666.511	0.52	Lose2	0.662	n/a	No	3.019	n/a	n/a	NoResponse	-1	n/a	n/a	7	70	Blank	Loss	True
666.519	0.3	Lose2	0.662	0.004	No	3.019	-0.004	4.0	NoResponse	-1	0.192	n/a	7	70	ButtonPress	Loss	True
667.029	1.45	Lose2	0.662	n/a	No	3.019	n/a	5.0	NoResponse	-1	0.014	666.043	7	70	Feedback	Loss	True
668.483	3.019	Lose2	0.662	n/a	No	3.019	n/a	n/a	NoResponse	-1	0.0	n/a	7	70	ISIslide	Loss	True
671.526	0.25	Win2	0.6667000000000001	0.0	Yes	2.724	0.026	n/a	GoodResponse	1	n/a	n/a	8	71	Cue	Win	True
671.777	4.05	Win2	0.6667000000000001	0.0	Yes	2.724	0.001	n/a	GoodResponse	1	n/a	n/a	8	71	Fixation	Win	True
675.822	0.18	Win2	0.6667000000000001	0.004	Yes	2.724	-0.004	4.0	GoodResponse	1	0.173	674.995	8	71	Target	Win	True
675.995	0.3	Win2	0.6667000000000001	0.004	Yes	2.724	-0.004	4.0	GoodResponse	1	0.173	n/a	8	71	ButtonPress	Win	True
676.006	0.52	Win2	0.6667000000000001	n/a	Yes	2.724	n/a	n/a	GoodResponse	1	n/a	n/a	8	71	Blank	Win	True
676.524	1.45	Win2	0.6667000000000001	n/a	Yes	2.724	n/a	5.0	GoodResponse	1	0.031	675.555	8	71	Feedback	Win	True
677.978	2.724	Win2	0.6667000000000001	n/a	Yes	2.724	n/a	n/a	GoodResponse	1	0.0	n/a	8	71	ISIslide	Win	True
680.72	0.25	Win2	0.6575	0.0	No	2.78	0.02	n/a	NoResponse	0	n/a	n/a	8	72	Cue	MissedWin	True
680.971	4.1	Win2	0.6575	0.0	No	2.78	0.001	n/a	NoResponse	0	n/a	n/a	8	72	Fixation	MissedWin	True
685.066	0.17	Win2	0.6575	0.004	No	2.78	-0.004	4.0	NoResponse	0	0.239	684.305	8	72	Target	MissedWin	True
685.25	0.53	Win2	0.6575	n/a	No	2.78	n/a	n/a	NoResponse	0	n/a	n/a	8	72	Blank	MissedWin	True
685.305	0.3	Win2	0.6575	0.004	No	2.78	-0.004	4.0	NoResponse	0	0.239	n/a	8	72	ButtonPress	MissedWin	True
685.768	1.45	Win2	0.6575	n/a	No	2.78	n/a	5.0	NoResponse	0	0.007	684.775	8	72	Feedback	MissedWin	True
687.223	2.78	Win2	0.6575	n/a	No	2.78	n/a	n/a	NoResponse	0	0.0	n/a	8	72	ISIslide	MissedWin	True
690.031	0.25	Win2	0.6486	0.0	No	2.669	0.031	n/a	NoResponse	0	n/a	n/a	8	73	Cue	MissedWin	False
690.282	4.0	Win2	0.6486	0.0	No	2.669	0.001	4.0	NoResponse	0	3.723	693.005	8	73	Fixation	MissedWin	False
694.005	0.3	Win2	0.6486	0.0	No	2.669	0.001	4.0	NoResponse	0	3.723	n/a	8	73	ButtonPress	MissedWin	False
694.277	0.17	Win2	0.6486	0.004	No	2.669	-0.004	4.0	NoResponse	0	0.202	693.479	8	73	Target	MissedWin	False
694.461	0.53	Win2	0.6486	n/a	No	2.669	n/a	n/a	NoResponse	0	n/a	n/a	8	73	Blank	MissedWin	False
694.479	0.3	Win2	0.6486	0.004	No	2.669	-0.004	4.0	NoResponse	0	0.202	n/a	8	73	ButtonPress	MissedWin	False
694.979	1.45	Win2	0.6486	n/a	No	2.669	n/a	5.0	NoResponse	0	0.015	693.994	8	73	Feedback	MissedWin	False
696.434	2.669	Win2	0.6486	n/a	No	2.669	n/a	n/a	NoResponse	0	0.0	n/a	8	73	ISIslide	MissedWin	False
699.125	0.25	Lose2	0.64	0.0	No	2.625	0.025	n/a	NoResponse	-1	n/a	n/a	7	74	Cue	Loss	False
699.376	4.05	Lose2	0.64	0.0	No	2.625	0.001	n/a	NoResponse	-1	n/a	n/a	7	74	Fixation	Loss	False
703.421	0.18	Lose2	0.64	0.004	No	2.625	-0.004	n/a	NoResponse	-1	n/a	n/a	7	74	Target	Loss	False
703.605	0.52	Lose2	0.64	n/a	No	2.625	n/a	n/a	NoResponse	-1	n/a	n/a	7	74	Blank	Loss	False
704.123	1.45	Lose2	0.64	n/a	No	2.625	n/a	5.0	NoResponse	-1	0.041	703.164	7	74	Feedback	Loss	False
705.578	2.625	Lose2	0.64	n/a	No	2.625	n/a	n/a	NoResponse	-1	0.0	n/a	7	74	ISIslide	Loss	False
708.219	0.25	Lose2	0.6315999999999999	0.0	No	2.931	0.019	n/a	NoResponse	-1	n/a	n/a	6	75	Cue	Loss	True
708.47	3.95	Lose2	0.6315999999999999	0.0	No	2.931	0.001	n/a	NoResponse	-1	n/a	n/a	6	75	Fixation	Loss	True
712.415	0.19	Lose2	0.6315999999999999	0.004	No	2.931	-0.004	4.0	NoResponse	-1	0.223	711.638	6	75	Target	Loss	True
712.615	0.51	Lose2	0.6315999999999999	n/a	No	2.931	n/a	n/a	NoResponse	-1	n/a	n/a	6	75	Blank	Loss	True
712.638	0.3	Lose2	0.6315999999999999	0.004	No	2.931	-0.004	4.0	NoResponse	-1	0.223	n/a	6	75	ButtonPress	Loss	True
713.117	1.45	Lose2	0.6315999999999999	n/a	No	2.931	n/a	5.0	NoResponse	-1	0.023	712.14	6	75	Feedback	Loss	True
714.571	2.931	Lose2	0.6315999999999999	n/a	No	2.931	n/a	n/a	NoResponse	-1	0.0	n/a	6	75	ISIslide	Loss	True
717.53	0.25	Control	0.6364	0.0	Yes	3.22	0.03	n/a	GoodResponse	0	n/a	n/a	6	76	Cue	Neutral	False
717.781	4.05	Control	0.6364	0.0	Yes	3.22	0.001	4.0	GoodResponse	0	3.892	720.673	6	76	Fixation	Neutral	False
721.673	0.3	Control	0.6364	0.0	Yes	3.22	0.001	4.0	GoodResponse	0	3.892	n/a	6	76	ButtonPress	Neutral	False
721.826	0.2	Control	0.6364	0.004	Yes	3.22	-0.004	4.0	GoodResponse	0	0.176	721.002	6	76	Target	Neutral	False
722.002	0.3	Control	0.6364	0.004	Yes	3.22	-0.004	4.0	GoodResponse	0	0.176	n/a	6	76	ButtonPress	Neutral	False
722.027	0.5	Control	0.6364	n/a	Yes	3.22	n/a	n/a	GoodResponse	0	n/a	n/a	6	76	Blank	Neutral	False
722.528	1.45	Control	0.6364	n/a	Yes	3.22	n/a	5.0	GoodResponse	0	0.027	721.555	6	76	Feedback	Neutral	False
723.983	3.22	Control	0.6364	n/a	Yes	3.22	n/a	n/a	GoodResponse	0	0.0	n/a	6	76	ISIslide	Neutral	False
727.226	0.25	Lose2	0.6282	0.0	No	2.574	0.026	n/a	NoResponse	-1	n/a	n/a	5	77	Cue	Loss	True
727.477	3.95	Lose2	0.6282	0.0	No	2.574	0.001	n/a	NoResponse	-1	n/a	n/a	5	77	Fixation	Loss	True
731.422	0.21	Lose2	0.6282	0.004	No	2.574	-0.004	4.0	NoResponse	-1	0.226	730.648	5	77	Target	Loss	True
731.639	0.49	Lose2	0.6282	n/a	No	2.574	n/a	n/a	NoResponse	-1	n/a	n/a	5	77	Blank	Loss	True
731.648	0.3	Lose2	0.6282	0.004	No	2.574	-0.004	4.0	NoResponse	-1	0.226	n/a	5	77	ButtonPress	Loss	True
732.124	1.45	Lose2	0.6282	n/a	No	2.574	n/a	5.0	NoResponse	-1	0.041	731.165	5	77	Feedback	Loss	True
733.578	2.574	Lose2	0.6282	n/a	No	2.574	n/a	n/a	NoResponse	-1	0.0	n/a	5	77	ISIslide	Loss	True
