onset	duration	cue_type	current_mean_accuracy	duration_error	is_hit	isi_adjusted	onset_delay	response	response_type	reward	rt	rt_time	total_reward	trial_number	trial_phase	trial_type	one_press
11.103	0.25	Control	1.0	0.0	Yes	2.947	0.003	n/a	GoodResponse	0	n/a	n/a	0	0	Cue	Neutral	True
11.353	3.85	Control	1.0	0.0	Yes	2.947	0.0	n/a	GoodResponse	0	n/a	n/a	0	0	Fixation	Neutral	True
15.202	0.4	Control	1.0	0.001	Yes	2.947	-0.001	2.0	GoodResponse	0	0.21	14.412	0	0	Target	Neutral	True
15.412	0.3	Control	1.0	0.001	Yes	2.947	-0.001	2.0	GoodResponse	0	0.21	n/a	0	0	ButtonPress	Neutral	True
15.602	0.3	Control	1.0	n/a	Yes	2.947	n/a	n/a	GoodResponse	0	n/a	n/a	0	0	Blank	Neutral	True
15.902	1.45	Control	1.0	n/a	Yes	2.947	n/a	5.0	GoodResponse	0	0.025	14.927	0	0	Feedback	Neutral	True
17.351	2.947	Control	1.0	n/a	Yes	2.947	n/a	n/a	GoodResponse	0	0.0	n/a	0	0	ISIslide	Neutral	True
20.317	0.25	Lose2	1.0	0.0	Yes	2.783	0.017	n/a	GoodResponse	0	n/a	n/a	0	1	Cue	AvoidedLoss	True
20.567	4.0	Lose2	1.0	0.0	Yes	2.783	0.0	n/a	GoodResponse	0	n/a	n/a	0	1	Fixation	AvoidedLoss	True
24.565	0.39	Lose2	1.0	0.002	Yes	2.783	-0.002	2.0	GoodResponse	0	0.198	23.763	0	1	Target	AvoidedLoss	True
24.763	0.3	Lose2	1.0	0.002	Yes	2.783	-0.002	2.0	GoodResponse	0	0.198	n/a	0	1	ButtonPress	AvoidedLoss	True
24.965	0.31	Lose2	1.0	n/a	Yes	2.783	n/a	n/a	GoodResponse	0	n/a	n/a	0	1	Blank	AvoidedLoss	True
25.265	1.45	Lose2	1.0	n/a	Yes	2.783	n/a	5.0	GoodResponse	0	0.027	24.292	0	1	Feedback	AvoidedLoss	True
26.714	2.783	Lose2	1.0	n/a	Yes	2.783	n/a	n/a	GoodResponse	0	0.0	n/a	0	1	ISIslide	AvoidedLoss	True
29.513	0.25	Control	1.0	0.0	Yes	2.587	0.013	n/a	GoodResponse	0	n/a	n/a	0	2	Cue	Neutral	True
29.763	4.1	Control	1.0	0.0	Yes	2.587	0.0	n/a	GoodResponse	0	n/a	n/a	0	2	Fixation	Neutral	True
33.862	0.38	Control	1.0	0.001	Yes	2.587	-0.001	2.0	GoodResponse	0	0.165	33.027	0	2	Target	Neutral	True
34.027	0.3	Control	1.0	0.001	Yes	2.587	-0.001	2.0	GoodResponse	0	0.165	n/a	0	2	ButtonPress	Neutral	True
34.245	0.32	Control	1.0	n/a	Yes	2.587	n/a	n/a	GoodResponse	0	n/a	n/a	0	2	Blank	Neutral	True
34.562	1.45	Control	1.0	n/a	Yes	2.587	n/a	5.0	GoodResponse	0	0.047	33.609	0	2	Feedback	Neutral	True
36.011	2.587	Control	1.0	n/a	Yes	2.587	n/a	n/a	GoodResponse	0	0.0	n/a	0	2	ISIslide	Neutral	True
38.627	0.25	Win2	1.0	0.0	Yes	2.823	0.027	n/a	GoodResponse	1	n/a	n/a	1	3	Cue	Win	True
38.877	3.95	Win2	1.0	0.0	Yes	2.823	0.0	n/a	GoodResponse	1	n/a	n/a	1	3	Fixation	Win	True
42.825	0.37	Win2	1.0	0.002	Yes	2.823	-0.002	2.0	GoodResponse	1	0.202	42.027	1	3	Target	Win	True
43.027	0.3	Win2	1.0	0.002	Yes	2.823	-0.002	2.0	GoodResponse	1	0.202	n/a	1	3	ButtonPress	Win	True
43.209	0.33	Win2	1.0	n/a	Yes	2.823	n/a	n/a	GoodResponse	1	n/a	n/a	1	3	Blank	Win	True
43.525	1.45	Win2	1.0	n/a	Yes	2.823	n/a	5.0	GoodResponse	1	0.011	42.536	1	3	Feedback	Win	True
44.975	2.823	Win2	1.0	n/a	Yes	2.823	n/a	n/a	GoodResponse	1	0.0	n/a	1	3	ISIslide	Win	True
47.824	0.25	Win2	1.0	0.0	Yes	3.276	0.024	n/a	GoodResponse	1	n/a	n/a	2	4	Cue	Win	True
48.073	4.0	Win2	1.0	0.001	Yes	3.276	-0.001	n/a	GoodResponse	1	n/a	n/a	2	4	Fixation	Win	True
52.072	0.36	Win2	1.0	0.002	Yes	3.276	-0.002	2.0	GoodResponse	1	0.216	51.288	2	4	Target	Win	True
52.288	0.3	Win2	1.0	0.002	Yes	3.276	-0.002	2.0	GoodResponse	1	0.216	n/a	2	4	ButtonPress	Win	True
52.439	0.34	Win2	1.0	n/a	Yes	3.276	n/a	n/a	GoodResponse	1	n/a	n/a	2	4	Blank	Win	True
52.772	1.45	Win2	1.0	n/a	Yes	3.276	n/a	5.0	GoodResponse	1	0.033	51.805	2	4	Feedback	Win	True
54.221	3.276	Win2	1.0	n/a	Yes	3.276	n/a	n/a	GoodResponse	1	0.0	n/a	2	4	ISIslide	Win	True
57.52	0.25	Win2	1.0	0.0	Yes	2.78	0.02	n/a	GoodResponse	1	n/a	n/a	3	5	Cue	Win	True
57.77	4.0	Win2	1.0	0.0	Yes	2.78	0.0	n/a	GoodResponse	1	n/a	n/a	3	5	Fixation	Win	True
61.769	0.35	Win2	1.0	0.001	Yes	2.78	-0.001	2.0	GoodResponse	1	0.221	60.99	3	5	Target	Win	True
61.99	0.3	Win2	1.0	0.001	Yes	2.78	-0.001	2.0	GoodResponse	1	0.221	n/a	3	5	ButtonPress	Win	True
62.118	0.35	Win2	1.0	n/a	Yes	2.78	n/a	n/a	GoodResponse	1	n/a	n/a	3	5	Blank	Win	True
62.468	1.45	Win2	1.0	n/a	Yes	2.78	n/a	5.0	GoodResponse	1	0.043	61.511	3	5	Feedback	Win	True
63.918	2.78	Win2	1.0	n/a	Yes	2.78	n/a	n/a	GoodResponse	1	0.0	n/a	3	5	ISIslide	Win	True
66.717	0.25	Lose2	0.8571	0.0	No	2.733	0.017	n/a	PrematurePress	-1	n/a	n/a	2	6	Cue	Loss	True
66.967	3.95	Lose2	0.8571	0.0	No	2.733	0.0	n/a	PrematurePress	-1	n/a	n/a	2	6	Fixation	Loss	True
70.915	0.34	Lose2	0.8571	0.002	No	2.733	-0.002	2.0	PrematurePress	-1	0.093	70.008	2	6	Target	Loss	True
71.008	0.3	Lose2	0.8571	0.002	No	2.733	-0.002	2.0	PrematurePress	-1	0.093	n/a	2	6	ButtonPress	Loss	True
71.265	0.36	Lose2	0.8571	n/a	No	2.733	n/a	n/a	PrematurePress	-1	n/a	n/a	2	6	Blank	Loss	True
71.615	1.45	Lose2	0.8571	n/a	No	2.733	n/a	5.0	PrematurePress	-1	0.018	70.633	2	6	Feedback	Loss	True
73.065	2.733	Lose2	0.8571	n/a	No	2.733	n/a	n/a	PrematurePress	-1	0.0	n/a	2	6	ISIslide	Loss	True
75.814	0.25	Lose2	0.875	0.0	Yes	4.036	0.014	n/a	GoodResponse	0	n/a	n/a	2	7	Cue	AvoidedLoss	True
76.064	4.05	Lose2	0.875	0.0	Yes	4.036	0.0	n/a	GoodResponse	0	n/a	n/a	2	7	Fixation	AvoidedLoss	True
80.112	0.33	Lose2	0.875	0.002	Yes	4.036	-0.002	2.0	GoodResponse	0	0.181	79.293	2	7	Target	AvoidedLoss	True
80.293	0.3	Lose2	0.875	0.002	Yes	4.036	-0.002	2.0	GoodResponse	0	0.181	n/a	2	7	ButtonPress	AvoidedLoss	True
80.445	0.37	Lose2	0.875	n/a	Yes	4.036	n/a	n/a	GoodResponse	0	n/a	n/a	2	7	Blank	AvoidedLoss	True
80.812	1.45	Lose2	0.875	n/a	Yes	4.036	n/a	5.0	GoodResponse	0	0.041	79.853	2	7	Feedback	AvoidedLoss	True
82.261	4.036	Lose2	0.875	n/a	Yes	4.036	n/a	n/a	GoodResponse	0	0.0	n/a	2	7	ISIslide	AvoidedLoss	True
86.327	0.25	Lose2	0.8889	0.0	Yes	3.023	0.027	n/a	GoodResponse	0	n/a	n/a	2	8	Cue	AvoidedLoss	True
86.576	3.95	Lose2	0.8889	0.001	Yes	3.023	-0.001	n/a	GoodResponse	0	n/a	n/a	2	8	Fixation	AvoidedLoss	True
90.525	0.32	Lose2	0.8889	0.002	Yes	3.023	-0.002	2.0	GoodResponse	0	0.225	89.75	2	8	Target	AvoidedLoss	True
90.75	0.3	Lose2	0.8889	0.002	Yes	3.023	-0.002	2.0	GoodResponse	0	0.225	n/a	2	8	ButtonPress	AvoidedLoss	True
90.858	0.38	Lose2	0.8889	n/a	Yes	3.023	n/a	n/a	GoodResponse	0	n/a	n/a	2	8	Blank	AvoidedLoss	True
91.225	1.45	Lose2	0.8889	n/a	Yes	3.023	n/a	5.0	GoodResponse	0	0.018	90.243	2	8	Feedback	AvoidedLoss	True
92.674	3.023	Lose2	0.8889	n/a	Yes	3.023	n/a	n/a	GoodResponse	0	0.0	n/a	2	8	ISIslide	AvoidedLoss	True
95.723	0.25	Lose2	0.9	0.0	Yes	3.127	0.023	n/a	GoodResponse	0	n/a	n/a	2	9	Cue	AvoidedLoss	True
95.973	3.95	Lose2	0.9	0.0	Yes	3.127	0.0	n/a	GoodResponse	0	n/a	n/a	2	9	Fixation	AvoidedLoss	True
99.922	0.31	Lose2	0.9	0.001	Yes	3.127	-0.001	2.0	GoodResponse	0	0.171	99.093	2	9	Target	AvoidedLoss	True
100.093	0.3	Lose2	0.9	0.001	Yes	3.127	-0.001	2.0	GoodResponse	0	0.171	n/a	2	9	ButtonPress	AvoidedLoss	True
100.238	0.39	Lose2	0.9	n/a	Yes	3.127	n/a	n/a	GoodResponse	0	n/a	n/a	2	9	Blank	AvoidedLoss	True
100.621	1.45	Lose2	0.9	n/a	Yes	3.127	n/a	5.0	GoodResponse	0	0.036	99.657	2	9	Feedback	AvoidedLoss	True
102.071	3.127	Lose2	0.9	n/a	Yes	3.127	n/a	n/a	GoodResponse	0	0.0	n/a	2	9	ISIslide	AvoidedLoss	True
105.22	0.25	Control	0.9091	0.0	Yes	3.28	0.02	n/a	GoodResponse	0	n/a	n/a	2	10	Cue	Neutral	True
105.47	4.0	Control	0.9091	0.0	Yes	3.28	0.0	n/a	GoodResponse	0	n/a	n/a	2	10	Fixation	Neutral	True
109.468	0.3	Control	0.9091	0.002	Yes	3.28	-0.002	2.0	GoodResponse	0	0.201	108.669	2	10	Target	Neutral	True
109.669	0.3	Control	0.9091	0.002	Yes	3.28	-0.002	2.0	GoodResponse	0	0.201	n/a	2	10	ButtonPress	Neutral	True
109.768	0.4	Control	0.9091	n/a	Yes	3.28	n/a	n/a	GoodResponse	0	n/a	n/a	2	10	Blank	Neutral	True
110.168	1.45	Control	0.9091	n/a	Yes	3.28	n/a	5.0	GoodResponse	0	0.001	109.169	2	10	Feedback	Neutral	True
111.618	3.28	Control	0.9091	n/a	Yes	3.28	n/a	n/a	GoodResponse	0	0.0	n/a	2	10	ISIslide	Neutral	True
114.916	0.25	Lose2	0.9167000000000001	0.0	Yes	2.734	0.016	n/a	GoodResponse	0	n/a	n/a	2	11	Cue	AvoidedLoss	True
115.166	4.05	Lose2	0.9167000000000001	0.0	Yes	2.734	0.0	n/a	GoodResponse	0	n/a	n/a	2	11	Fixation	AvoidedLoss	True
119.215	0.29	Lose2	0.9167000000000001	0.001	Yes	2.734	-0.001	2.0	GoodResponse	0	0.187	118.402	2	11	Target	AvoidedLoss	True
119.402	0.3	Lose2	0.9167000000000001	0.001	Yes	2.734	-0.001	2.0	GoodResponse	0	0.187	n/a	2	11	ButtonPress	AvoidedLoss	True
119.515	0.41	Lose2	0.9167000000000001	n/a	Yes	2.734	n/a	n/a	GoodResponse	0	n/a	n/a	2	11	Blank	AvoidedLoss	True
119.915	1.45	Lose2	0.9167000000000001	n/a	Yes	2.734	n/a	5.0	GoodResponse	0	0.01	118.925	2	11	Feedback	AvoidedLoss	True
121.364	2.734	Lose2	0.9167000000000001	n/a	Yes	2.734	n/a	n/a	GoodResponse	0	0.0	n/a	2	11	ISIslide	AvoidedLoss	True
124.113	0.25	Control	0.9231	0.0	Yes	2.987	0.013	n/a	GoodResponse	0	n/a	n/a	2	12	Cue	Neutral	True
124.363	3.9	Control	0.9231	0.0	Yes	2.987	0.0	n/a	GoodResponse	0	n/a	n/a	2	12	Fixation	Neutral	True
128.262	0.28	Control	0.9231	0.001	Yes	2.987	-0.001	2.0	GoodResponse	0	0.242	127.504	2	12	Target	Neutral	True
128.504	0.3	Control	0.9231	0.001	Yes	2.987	-0.001	2.0	GoodResponse	0	0.242	n/a	2	12	ButtonPress	Neutral	True
128.545	0.42	Control	0.9231	n/a	Yes	2.987	n/a	n/a	GoodResponse	0	n/a	n/a	2	12	Blank	Neutral	True
128.961	1.45	Control	0.9231	n/a	Yes	2.987	n/a	5.0	GoodResponse	0	0.038	127.999	2	12	Feedback	Neutral	True
130.411	2.987	Control	0.9231	n/a	Yes	2.987	n/a	n/a	GoodResponse	0	0.0	n/a	2	12	ISIslide	Neutral	True
133.426	0.25	Control	0.9286	0.0	Yes	2.774	0.026	n/a	GoodResponse	0	n/a	n/a	2	13	Cue	Neutral	True
133.676	4.0	Control	0.9286	0.0	Yes	2.774	0.0	n/a	GoodResponse	0	n/a	n/a	2	13	Fixation	Neutral	True
137.675	0.27	Control	0.9286	0.001	Yes	2.774	-0.001	2.0	GoodResponse	0	0.203	136.878	2	13	Target	Neutral	True
137.878	0.3	Control	0.9286	0.001	Yes	2.774	-0.001	2.0	GoodResponse	0	0.203	n/a	2	13	ButtonPress	Neutral	True
137.941	0.43	Control	0.9286	n/a	Yes	2.774	n/a	n/a	GoodResponse	0	n/a	n/a	2	13	Blank	Neutral	True
138.375	1.45	Control	0.9286	n/a	Yes	2.774	n/a	5.0	GoodResponse	0	0.037	137.412	2	13	Feedback	Neutral	True
139.824	2.774	Control	0.9286	n/a	Yes	2.774	n/a	n/a	GoodResponse	0	0.0	n/a	2	13	ISIslide	Neutral	True
142.623	0.25	Win2	0.9333	0.0	Yes	2.677	0.023	n/a	GoodResponse	1	n/a	n/a	3	14	Cue	Win	True
142.873	4.1	Win2	0.9333	0.0	Yes	2.677	0.0	n/a	GoodResponse	1	n/a	n/a	3	14	Fixation	Win	True
146.972	0.26	Win2	0.9333	0.001	Yes	2.677	-0.001	2.0	GoodResponse	1	0.173	146.145	3	14	Target	Win	True
147.145	0.3	Win2	0.9333	0.001	Yes	2.677	-0.001	2.0	GoodResponse	1	0.173	n/a	3	14	ButtonPress	Win	True
147.238	0.44	Win2	0.9333	n/a	Yes	2.677	n/a	n/a	GoodResponse	1	n/a	n/a	3	14	Blank	Win	True
147.671	1.45	Win2	0.9333	n/a	Yes	2.677	n/a	5.0	GoodResponse	1	0.01	146.681	3	14	Feedback	Win	True
149.121	2.677	Win2	0.9333	n/a	Yes	2.677	n/a	n/a	GoodResponse	1	0.0	n/a	3	14	ISIslide	Win	True
151.82	0.25	Control	0.9375	0.0	Yes	2.98	0.02	n/a	GoodResponse	0	n/a	n/a	3	15	Cue	Neutral	True
152.07	4.0	Control	0.9375	0.0	Yes	2.98	0.0	n/a	GoodResponse	0	n/a	n/a	3	15	Fixation	Neutral	True
156.068	0.25	Control	0.9375	0.002	Yes	2.98	-0.002	2.0	GoodResponse	0	0.174	155.242	3	15	Target	Neutral	True
156.242	0.3	Control	0.9375	0.002	Yes	2.98	-0.002	2.0	GoodResponse	0	0.174	n/a	3	15	ButtonPress	Neutral	True
156.318	0.45	Control	0.9375	n/a	Yes	2.98	n/a	n/a	GoodResponse	0	n/a	n/a	3	15	Blank	Neutral	True
156.768	1.45	Control	0.9375	n/a	Yes	2.98	n/a	5.0	GoodResponse	0	0.035	155.803	3	15	Feedback	Neutral	True
158.218	2.98	Control	0.9375	n/a	Yes	2.98	n/a	n/a	GoodResponse	0	0.0	n/a	3	15	ISIslide	Neutral	True
161.217	0.25	Win2	0.9412	0.0	Yes	2.883	0.017	n/a	GoodResponse	1	n/a	n/a	4	16	Cue	Win	True
161.466	4.0	Win2	0.9412	0.001	Yes	2.883	-0.001	n/a	GoodResponse	1	n/a	n/a	4	16	Fixation	Win	True
165.465	0.24	Win2	0.9412	0.002	Yes	2.883	-0.002	2.0	GoodResponse	1	0.202	164.667	4	16	Target	Win	True
165.667	0.3	Win2	0.9412	0.002	Yes	2.883	-0.002	2.0	GoodResponse	1	0.202	n/a	4	16	ButtonPress	Win	True
165.715	0.46	Win2	0.9412	n/a	Yes	2.883	n/a	n/a	GoodResponse	1	n/a	n/a	4	16	Blank	Win	True
166.165	1.45	Win2	0.9412	n/a	Yes	2.883	n/a	5.0	GoodResponse	1	0.004	165.169	4	16	Feedback	Win	True
167.614	2.883	Win2	0.9412	n/a	Yes	2.883	n/a	n/a	GoodResponse	1	0.0	n/a	4	16	ISIslide	Win	True
170.513	0.25	Lose2	0.9444	0.0	Yes	2.737	0.013	n/a	GoodResponse	0	n/a	n/a	4	17	Cue	AvoidedLoss	True
170.763	3.95	Lose2	0.9444	0.0	Yes	2.737	0.0	n/a	GoodResponse	0	n/a	n/a	4	17	Fixation	AvoidedLoss	True
174.712	0.23	Lose2	0.9444	0.001	Yes	2.737	-0.001	2.0	GoodResponse	0	0.222	173.934	4	17	Target	AvoidedLoss	True
174.934	0.3	Lose2	0.9444	0.001	Yes	2.737	-0.001	2.0	GoodResponse	0	0.222	n/a	4	17	ButtonPress	AvoidedLoss	True
174.945	0.47	Lose2	0.9444	n/a	Yes	2.737	n/a	n/a	GoodResponse	0	n/a	n/a	4	17	Blank	AvoidedLoss	True
175.411	1.45	Lose2	0.9444	n/a	Yes	2.737	n/a	5.0	GoodResponse	0	0.025	174.436	4	17	Feedback	AvoidedLoss	True
176.861	2.737	Lose2	0.9444	n/a	Yes	2.737	n/a	n/a	GoodResponse	0	0.0	n/a	4	17	ISIslide	AvoidedLoss	True
179.627	0.25	Lose2	0.9473999999999999	0.0	Yes	2.723	0.027	n/a	GoodResponse	0	n/a	n/a	4	18	Cue	AvoidedLoss	True
179.877	4.05	Lose2	0.9473999999999999	0.0	Yes	2.723	0.0	n/a	GoodResponse	0	n/a	n/a	4	18	Fixation	AvoidedLoss	True
183.925	0.22	Lose2	0.9473999999999999	0.002	Yes	2.723	-0.002	2.0	GoodResponse	0	0.209	183.134	4	18	Target	AvoidedLoss	True
184.134	0.3	Lose2	0.9473999999999999	0.002	Yes	2.723	-0.002	2.0	GoodResponse	0	0.209	n/a	4	18	ButtonPress	AvoidedLoss	True
184.158	0.48	Lose2	0.9473999999999999	n/a	Yes	2.723	n/a	n/a	GoodResponse	0	n/a	n/a	4	18	Blank	AvoidedLoss	True
184.625	1.45	Lose2	0.9473999999999999	n/a	Yes	2.723	n/a	5.0	GoodResponse	0	0.031	183.656	4	18	Feedback	AvoidedLoss	True
186.074	2.723	Lose2	0.9473999999999999	n/a	Yes	2.723	n/a	n/a	GoodResponse	0	0.0	n/a	4	18	ISIslide	AvoidedLoss	True
188.823	0.25	Control	0.9	0.0	No	2.927	0.023	n/a	NoResponse	0	n/a	n/a	4	19	Cue	Neutral	True
189.073	3.95	Control	0.9	0.0	No	2.927	0.0	2.0	NoResponse	0	3.834	191.907	4	19	Fixation	Neutral	True
192.907	0.3	Control	0.9	0.0	No	2.927	0.0	2.0	NoResponse	0	3.834	n/a	4	19	ButtonPress	Neutral	True
193.022	0.21	Control	0.9	0.001	No	2.927	-0.001	n/a	NoResponse	0	n/a	n/a	4	19	Target	Neutral	True
193.238	0.49	Control	0.9	n/a	No	2.927	n/a	n/a	NoResponse	0	n/a	n/a	4	19	Blank	Neutral	True
193.722	1.45	Control	0.9	n/a	No	2.927	n/a	5.0	NoResponse	0	0.007	192.729	4	19	Feedback	Neutral	True
195.171	2.927	Control	0.9	n/a	No	2.927	n/a	n/a	NoResponse	0	0.0	n/a	4	19	ISIslide	Neutral	True
198.12	0.25	Control	0.8571	0.0	No	2.63	0.02	n/a	NoResponse	0	n/a	n/a	4	20	Cue	Neutral	True
198.37	4.05	Control	0.8571	0.0	No	2.63	0.0	n/a	NoResponse	0	n/a	n/a	4	20	Fixation	Neutral	True
202.419	0.2	Control	0.8571	0.001	No	2.63	-0.001	2.0	NoResponse	0	0.215	201.634	4	20	Target	Neutral	True
202.618	0.5	Control	0.8571	n/a	No	2.63	n/a	n/a	NoResponse	0	n/a	n/a	4	20	Blank	Neutral	True
202.634	0.3	Control	0.8571	0.001	No	2.63	-0.001	2.0	NoResponse	0	0.215	n/a	4	20	ButtonPress	Neutral	True
203.118	1.45	Control	0.8571	n/a	No	2.63	n/a	5.0	NoResponse	0	0.026	202.144	4	20	Feedback	Neutral	True
204.568	2.63	Control	0.8571	n/a	No	2.63	n/a	n/a	NoResponse	0	0.0	n/a	4	20	ISIslide	Neutral	True
207.217	0.25	Control	0.8181999999999999	0.0	No	2.783	0.017	n/a	NoResponse	0	n/a	n/a	4	21	Cue	Neutral	True
207.467	4.1	Control	0.8181999999999999	0.0	No	2.783	0.0	n/a	NoResponse	0	n/a	n/a	4	21	Fixation	Neutral	True
211.565	0.19	Control	0.8181999999999999	0.002	No	2.783	-0.002	2.0	NoResponse	0	0.22	210.785	4	21	Target	Neutral	True
211.765	0.51	Control	0.8181999999999999	n/a	No	2.783	n/a	n/a	NoResponse	0	n/a	n/a	4	21	Blank	Neutral	True
211.785	0.3	Control	0.8181999999999999	0.002	No	2.783	-0.002	2.0	NoResponse	0	0.22	n/a	4	21	ButtonPress	Neutral	True
212.265	1.45	Control	0.8181999999999999	n/a	No	2.783	n/a	5.0	NoResponse	0	0.0	211.265	4	21	Feedback	Neutral	True
213.715	2.783	Control	0.8181999999999999	n/a	No	2.783	n/a	n/a	NoResponse	0	0.0	n/a	4	21	ISIslide	Neutral	True
216.514	0.25	Control	0.7826000000000001	0.0	No	2.786	0.014	n/a	NoResponse	0	n/a	n/a	4	22	Cue	Neutral	True
216.763	4.0	Control	0.7826000000000001	0.001	No	2.786	-0.001	n/a	NoResponse	0	n/a	n/a	4	22	Fixation	Neutral	True
220.762	0.18	Control	0.7826000000000001	0.002	No	2.786	-0.002	2.0	NoResponse	0	0.211	219.973	4	22	Target	Neutral	True
220.945	0.52	Control	0.7826000000000001	n/a	No	2.786	n/a	n/a	NoResponse	0	n/a	n/a	4	22	Blank	Neutral	True
220.973	0.3	Control	0.7826000000000001	0.002	No	2.786	-0.002	2.0	NoResponse	0	0.211	n/a	4	22	ButtonPress	Neutral	True
221.462	1.45	Control	0.7826000000000001	n/a	No	2.786	n/a	5.0	NoResponse	0	0.023	220.485	4	22	Feedback	Neutral	True
222.911	2.786	Control	0.7826000000000001	n/a	No	2.786	n/a	n/a	NoResponse	0	0.0	n/a	4	22	ISIslide	Neutral	True
225.727	0.25	Control	0.75	0.0	No	2.773	0.027	n/a	NoResponse	0	n/a	n/a	4	23	Cue	Neutral	True
225.977	3.9	Control	0.75	0.0	No	2.773	0.0	n/a	NoResponse	0	n/a	n/a	4	23	Fixation	Neutral	True
229.875	0.17	Control	0.75	0.002	No	2.773	-0.002	2.0	NoResponse	0	0.213	229.088	4	23	Target	Neutral	True
230.059	0.53	Control	0.75	n/a	No	2.773	n/a	n/a	NoResponse	0	n/a	n/a	4	23	Blank	Neutral	True
230.088	0.3	Control	0.75	0.002	No	2.773	-0.002	2.0	NoResponse	0	0.213	n/a	4	23	ButtonPress	Neutral	True
230.575	1.45	Control	0.75	n/a	No	2.773	n/a	5.0	NoResponse	0	0.032	229.607	4	23	Feedback	Neutral	True
232.025	2.773	Control	0.75	n/a	No	2.773	n/a	n/a	NoResponse	0	0.0	n/a	4	23	ISIslide	Neutral	True
234.824	0.25	Win2	0.72	0.0	No	3.126	0.024	n/a	NoResponse	0	n/a	n/a	4	24	Cue	MissedWin	True
235.074	3.95	Win2	0.72	0.0	No	3.126	0.0	n/a	NoResponse	0	n/a	n/a	4	24	Fixation	MissedWin	True
239.022	0.16	Win2	0.72	0.002	No	3.126	-0.002	2.0	NoResponse	0	0.206	238.228	4	24	Target	MissedWin	True
239.189	0.54	Win2	0.72	n/a	No	3.126	n/a	n/a	NoResponse	0	n/a	n/a	4	24	Blank	MissedWin	True
239.228	0.3	Win2	0.72	0.002	No	3.126	-0.002	2.0	NoResponse	0	0.206	n/a	4	24	ButtonPress	MissedWin	True
239.722	1.45	Win2	0.72	n/a	No	3.126	n/a	5.0	NoResponse	0	0.007	238.729	4	24	Feedback	MissedWin	True
241.171	3.126	Win2	0.72	n/a	No	3.126	n/a	n/a	NoResponse	0	0.0	n/a	4	24	ISIslide	MissedWin	True
244.32	0.25	Win2	0.6923	0.0	No	3.08	0.02	n/a	NoResponse	0	n/a	n/a	4	25	Cue	MissedWin	True
244.57	4.0	Win2	0.6923	0.0	No	3.08	0.0	n/a	NoResponse	0	n/a	n/a	4	25	Fixation	MissedWin	True
248.569	0.15	Win2	0.6923	0.001	No	3.08	-0.001	2.0	NoResponse	0	0.194	247.763	4	25	Target	MissedWin	True
248.719	0.55	Win2	0.6923	n/a	No	3.08	n/a	n/a	NoResponse	0	n/a	n/a	4	25	Blank	MissedWin	True
248.763	0.3	Win2	0.6923	0.001	No	3.08	-0.001	2.0	NoResponse	0	0.194	n/a	4	25	ButtonPress	MissedWin	True
249.269	1.45	Win2	0.6923	n/a	No	3.08	n/a	5.0	NoResponse	0	0.02	248.289	4	25	Feedback	MissedWin	True
250.718	3.08	Win2	0.6923	n/a	No	3.08	n/a	n/a	NoResponse	0	0.0	n/a	4	25	ISIslide	MissedWin	True
253.817	0.25	Win2	0.6667000000000001	0.0	No	2.933	0.017	n/a	NoResponse	0	n/a	n/a	4	26	Cue	MissedWin	True
254.067	3.95	Win2	0.6667000000000001	0.0	No	2.933	0.0	n/a	NoResponse	0	n/a	n/a	4	26	Fixation	MissedWin	True
258.015	0.15	Win2	0.6667000000000001	0.002	No	2.933	-0.002	2.0	NoResponse	0	0.218	257.233	4	26	Target	MissedWin	True
258.165	0.55	Win2	0.6667000000000001	n/a	No	2.933	n/a	n/a	NoResponse	0	n/a	n/a	4	26	Blank	MissedWin	True
258.233	0.3	Win2	0.6667000000000001	0.002	No	2.933	-0.002	2.0	NoResponse	0	0.218	n/a	4	26	ButtonPress	MissedWin	True
258.715	1.45	Win2	0.6667000000000001	n/a	No	2.933	n/a	5.0	NoResponse	0	0.038	257.753	4	26	Feedback	MissedWin	True
260.165	2.933	Win2	0.6667000000000001	n/a	No	2.933	n/a	n/a	NoResponse	0	0.0	n/a	4	26	ISIslide	MissedWin	True
263.114	0.25	Lose2	0.6429	0.0	No	2.836	0.014	n/a	NoResponse	-1	n/a	n/a	3	27	Cue	Loss	True
263.364	4.05	Lose2	0.6429	0.0	No	2.836	0.0	n/a	NoResponse	-1	n/a	n/a	3	27	Fixation	Loss	True
267.412	0.15	Lose2	0.6429	0.002	No	2.836	-0.002	2.0	NoResponse	-1	0.168	266.58	3	27	Target	Loss	True
267.562	0.55	Lose2	0.6429	n/a	No	2.836	n/a	n/a	NoResponse	-1	n/a	n/a	3	27	Blank	Loss	True
267.58	0.3	Lose2	0.6429	0.002	No	2.836	-0.002	2.0	NoResponse	-1	0.168	n/a	3	27	ButtonPress	Loss	True
268.112	1.45	Lose2	0.6429	n/a	No	2.836	n/a	5.0	NoResponse	-1	0.007	267.119	3	27	Feedback	Loss	True
269.561	2.836	Lose2	0.6429	n/a	No	2.836	n/a	n/a	NoResponse	-1	0.0	n/a	3	27	ISIslide	Loss	True
272.427	0.25	Control	0.6207	0.0	No	2.823	0.027	n/a	NoResponse	0	n/a	n/a	3	28	Cue	Neutral	True
272.677	4.05	Control	0.6207	0.0	No	2.823	0.0	n/a	NoResponse	0	n/a	n/a	3	28	Fixation	Neutral	True
276.725	0.16	Control	0.6207	0.002	No	2.823	-0.002	2.0	NoResponse	0	0.179	275.904	3	28	Target	Neutral	True
276.892	0.54	Control	0.6207	n/a	No	2.823	n/a	n/a	NoResponse	0	n/a	n/a	3	28	Blank	Neutral	True
276.904	0.3	Control	0.6207	0.002	No	2.823	-0.002	2.0	NoResponse	0	0.179	n/a	3	28	ButtonPress	Neutral	True
277.425	1.45	Control	0.6207	n/a	No	2.823	n/a	5.0	NoResponse	0	0.011	276.436	3	28	Feedback	Neutral	True
278.875	2.823	Control	0.6207	n/a	No	2.823	n/a	n/a	NoResponse	0	0.0	n/a	3	28	ISIslide	Neutral	True
281.724	0.25	Lose2	0.6	0.0	No	2.826	0.024	n/a	NoResponse	-1	n/a	n/a	2	29	Cue	Loss	True
281.974	3.95	Lose2	0.6	0.0	No	2.826	0.0	n/a	NoResponse	-1	n/a	n/a	2	29	Fixation	Loss	True
285.922	0.17	Lose2	0.6	0.002	No	2.826	-0.002	2.0	NoResponse	-1	0.19	285.112	2	29	Target	Loss	True
286.105	0.53	Lose2	0.6	n/a	No	2.826	n/a	n/a	NoResponse	-1	n/a	n/a	2	29	Blank	Loss	True
286.112	0.3	Lose2	0.6	0.002	No	2.826	-0.002	2.0	NoResponse	-1	0.19	n/a	2	29	ButtonPress	Loss	True
286.622	1.45	Lose2	0.6	n/a	No	2.826	n/a	5.0	NoResponse	-1	0.032	285.654	2	29	Feedback	Loss	True
288.071	2.826	Lose2	0.6	n/a	No	2.826	n/a	n/a	NoResponse	-1	0.0	n/a	2	29	ISIslide	Loss	True
290.92	0.25	Win2	0.5806	0.001	No	2.78	0.02	n/a	NoResponse	0	n/a	n/a	2	30	Cue	MissedWin	True
291.17	3.9	Win2	0.5806	0.0	No	2.78	0.0	n/a	NoResponse	0	n/a	n/a	2	30	Fixation	MissedWin	True
295.069	0.18	Win2	0.5806	0.001	No	2.78	-0.001	2.0	NoResponse	0	0.234	294.303	2	30	Target	MissedWin	True
295.252	0.52	Win2	0.5806	n/a	No	2.78	n/a	n/a	NoResponse	0	n/a	n/a	2	30	Blank	MissedWin	True
295.303	0.3	Win2	0.5806	0.001	No	2.78	-0.001	2.0	NoResponse	0	0.234	n/a	2	30	ButtonPress	MissedWin	True
295.769	1.45	Win2	0.5806	n/a	No	2.78	n/a	5.0	NoResponse	0	0.007	294.776	2	30	Feedback	MissedWin	True
297.218	2.78	Win2	0.5806	n/a	No	2.78	n/a	n/a	NoResponse	0	0.0	n/a	2	30	ISIslide	MissedWin	True
300.017	0.25	Lose2	0.5625	0.0	No	2.833	0.017	n/a	NoResponse	-1	n/a	n/a	1	31	Cue	Loss	True
300.267	4.05	Lose2	0.5625	0.0	No	2.833	0.0	n/a	NoResponse	-1	n/a	n/a	1	31	Fixation	Loss	True
304.316	0.19	Lose2	0.5625	0.001	No	2.833	-0.001	2.0	NoResponse	-1	0.247	303.563	1	31	Target	Loss	True
304.516	0.51	Lose2	0.5625	n/a	No	2.833	n/a	n/a	NoResponse	-1	n/a	n/a	1	31	Blank	Loss	True
304.563	0.3	Lose2	0.5625	0.001	No	2.833	-0.001	2.0	NoResponse	-1	0.247	n/a	1	31	ButtonPress	Loss	True
305.015	1.45	Lose2	0.5625	n/a	No	2.833	n/a	5.0	NoResponse	-1	0.03	304.045	1	31	Feedback	Loss	True
306.465	2.833	Lose2	0.5625	n/a	No	2.833	n/a	n/a	NoResponse	-1	0.0	n/a	1	31	ISIslide	Loss	True
309.314	0.25	Lose2	0.5758	0.0	Yes	2.636	0.014	n/a	GoodResponse	0	n/a	n/a	1	32	Cue	AvoidedLoss	True
309.564	4.15	Lose2	0.5758	0.0	Yes	2.636	0.0	n/a	GoodResponse	0	n/a	n/a	1	32	Fixation	AvoidedLoss	True
313.712	0.2	Lose2	0.5758	0.002	Yes	2.636	-0.002	2.0	GoodResponse	0	0.192	312.904	1	32	Target	AvoidedLoss	True
313.904	0.3	Lose2	0.5758	0.002	Yes	2.636	-0.002	2.0	GoodResponse	0	0.192	n/a	1	32	ButtonPress	AvoidedLoss	True
313.912	0.5	Lose2	0.5758	n/a	Yes	2.636	n/a	n/a	GoodResponse	0	n/a	n/a	1	32	Blank	AvoidedLoss	True
314.412	1.45	Lose2	0.5758	n/a	Yes	2.636	n/a	5.0	GoodResponse	0	0.048	313.46	1	32	Feedback	AvoidedLoss	True
315.862	2.636	Lose2	0.5758	n/a	Yes	2.636	n/a	n/a	GoodResponse	0	0.0	n/a	1	32	ISIslide	AvoidedLoss	True
318.527	0.25	Win2	0.5882000000000001	0.0	Yes	2.673	0.027	n/a	GoodResponse	1	n/a	n/a	2	33	Cue	Win	True
318.777	4.0	Win2	0.5882000000000001	0.0	Yes	2.673	0.0	n/a	GoodResponse	1	n/a	n/a	2	33	Fixation	Win	True
322.776	0.21	Win2	0.5882000000000001	0.001	Yes	2.673	-0.001	2.0	GoodResponse	1	0.202	321.978	2	33	Target	Win	True
322.978	0.3	Win2	0.5882000000000001	0.001	Yes	2.673	-0.001	2.0	GoodResponse	1	0.202	n/a	2	33	ButtonPress	Win	True
322.992	0.49	Win2	0.5882000000000001	n/a	Yes	2.673	n/a	n/a	GoodResponse	1	n/a	n/a	2	33	Blank	Win	True
323.475	1.45	Win2	0.5882000000000001	n/a	Yes	2.673	n/a	5.0	GoodResponse	1	0.008	322.483	2	33	Feedback	Win	True
324.925	2.673	Win2	0.5882000000000001	n/a	Yes	2.673	n/a	n/a	GoodResponse	1	0.0	n/a	2	33	ISIslide	Win	True
327.624	0.25	Lose2	0.6	0.0	Yes	2.626	0.024	n/a	GoodResponse	0	n/a	n/a	2	34	Cue	AvoidedLoss	True
327.874	4.05	Lose2	0.6	0.0	Yes	2.626	0.0	n/a	GoodResponse	0	n/a	n/a	2	34	Fixation	AvoidedLoss	True
331.922	0.22	Lose2	0.6	0.002	Yes	2.626	-0.002	2.0	GoodResponse	0	0.199	331.121	2	34	Target	AvoidedLoss	True
332.121	0.3	Lose2	0.6	0.002	Yes	2.626	-0.002	2.0	GoodResponse	0	0.199	n/a	2	34	ButtonPress	AvoidedLoss	True
332.156	0.48	Lose2	0.6	n/a	Yes	2.626	n/a	n/a	GoodResponse	0	n/a	n/a	2	34	Blank	AvoidedLoss	True
332.622	1.45	Lose2	0.6	n/a	Yes	2.626	n/a	5.0	GoodResponse	0	0.032	331.654	2	34	Feedback	AvoidedLoss	True
334.072	2.626	Lose2	0.6	n/a	Yes	2.626	n/a	n/a	GoodResponse	0	0.0	n/a	2	34	ISIslide	AvoidedLoss	True
336.721	0.25	Lose2	0.5832999999999999	0.0	No	2.679	0.021	n/a	NoResponse	-1	n/a	n/a	1	35	Cue	Loss	True
336.971	4.0	Lose2	0.5832999999999999	0.0	No	2.679	0.0	2.0	NoResponse	-1	3.598	339.569	1	35	Fixation	Loss	True
340.569	0.3	Lose2	0.5832999999999999	0.0	No	2.679	0.0	2.0	NoResponse	-1	3.598	n/a	1	35	ButtonPress	Loss	True
340.969	0.23	Lose2	0.5832999999999999	0.002	No	2.679	-0.002	n/a	NoResponse	-1	n/a	n/a	1	35	Target	Loss	True
341.203	0.47	Lose2	0.5832999999999999	n/a	No	2.679	n/a	n/a	NoResponse	-1	n/a	n/a	1	35	Blank	Loss	True
341.669	1.45	Lose2	0.5832999999999999	n/a	No	2.679	n/a	5.0	NoResponse	-1	0.009	340.678	1	35	Feedback	Loss	True
343.119	2.679	Lose2	0.5832999999999999	n/a	No	2.679	n/a	n/a	NoResponse	-1	0.0	n/a	1	35	ISIslide	Loss	True
345.818	0.25	Control	0.5946	0.0	Yes	2.682	0.018	n/a	GoodResponse	0	n/a	n/a	1	36	Cue	Neutral	True
346.067	4.0	Control	0.5946	0.001	Yes	2.682	-0.001	n/a	GoodResponse	0	n/a	n/a	1	36	Fixation	Neutral	True
350.066	0.24	Control	0.5946	0.002	Yes	2.682	-0.002	2.0	GoodResponse	0	0.222	349.288	1	36	Target	Neutral	True
350.288	0.3	Control	0.5946	0.002	Yes	2.682	-0.002	2.0	GoodResponse	0	0.222	n/a	1	36	ButtonPress	Neutral	True
350.316	0.46	Control	0.5946	n/a	Yes	2.682	n/a	n/a	GoodResponse	0	n/a	n/a	1	36	Blank	Neutral	True
350.766	1.45	Control	0.5946	n/a	Yes	2.682	n/a	5.0	GoodResponse	0	0.034	349.8	1	36	Feedback	Neutral	True
352.215	2.682	Control	0.5946	n/a	Yes	2.682	n/a	n/a	GoodResponse	0	0.0	n/a	1	36	ISIslide	Neutral	True
354.914	0.25	Win2	0.6053000000000001	0.0	Yes	2.886	0.014	n/a	GoodResponse	1	n/a	n/a	2	37	Cue	Win	True
355.164	4.0	Win2	0.6053000000000001	0.0	Yes	2.886	0.0	n/a	GoodResponse	1	n/a	n/a	2	37	Fixation	Win	True
359.163	0.25	Win2	0.6053000000000001	0.001	Yes	2.886	-0.001	2.0	GoodResponse	1	0.223	358.386	2	37	Target	Win	True
359.386	0.3	Win2	0.6053000000000001	0.001	Yes	2.886	-0.001	2.0	GoodResponse	1	0.223	n/a	2	37	ButtonPress	Win	True
359.413	0.45	Win2	0.6053000000000001	n/a	Yes	2.886	n/a	n/a	GoodResponse	1	n/a	n/a	2	37	Blank	Win	True
359.863	1.45	Win2	0.6053000000000001	n/a	Yes	2.886	n/a	5.0	GoodResponse	1	0.01	358.873	2	37	Feedback	Win	True
361.312	2.886	Win2	0.6053000000000001	n/a	Yes	2.886	n/a	n/a	GoodResponse	1	0.0	n/a	2	37	ISIslide	Win	True
364.228	0.25	Lose2	0.6154	0.0	Yes	2.822	0.028	n/a	GoodResponse	0	n/a	n/a	2	38	Cue	AvoidedLoss	True
364.478	3.95	Lose2	0.6154	0.0	Yes	2.822	0.0	n/a	GoodResponse	0	n/a	n/a	2	38	Fixation	AvoidedLoss	True
368.426	0.26	Lose2	0.6154	0.002	Yes	2.822	-0.002	2.0	GoodResponse	0	0.216	367.642	2	38	Target	AvoidedLoss	True
368.642	0.3	Lose2	0.6154	0.002	Yes	2.822	-0.002	2.0	GoodResponse	0	0.216	n/a	2	38	ButtonPress	AvoidedLoss	True
368.693	0.44	Lose2	0.6154	n/a	Yes	2.822	n/a	n/a	GoodResponse	0	n/a	n/a	2	38	Blank	AvoidedLoss	True
369.126	1.45	Lose2	0.6154	n/a	Yes	2.822	n/a	5.0	GoodResponse	0	0.015	368.141	2	38	Feedback	AvoidedLoss	True
370.575	2.822	Lose2	0.6154	n/a	Yes	2.822	n/a	n/a	GoodResponse	0	0.0	n/a	2	38	ISIslide	AvoidedLoss	True
373.424	0.25	Win2	0.625	0.0	Yes	2.976	0.024	n/a	GoodResponse	1	n/a	n/a	3	39	Cue	Win	True
373.674	4.1	Win2	0.625	0.0	Yes	2.976	0.0	n/a	GoodResponse	1	n/a	n/a	3	39	Fixation	Win	True
377.773	0.27	Win2	0.625	0.001	Yes	2.976	-0.001	2.0	GoodResponse	1	0.204	376.977	3	39	Target	Win	True
377.977	0.3	Win2	0.625	0.001	Yes	2.976	-0.001	2.0	GoodResponse	1	0.204	n/a	3	39	ButtonPress	Win	True
378.039	0.43	Win2	0.625	n/a	Yes	2.976	n/a	n/a	GoodResponse	1	n/a	n/a	3	39	Blank	Win	True
378.473	1.45	Win2	0.625	n/a	Yes	2.976	n/a	5.0	GoodResponse	1	0.034	377.507	3	39	Feedback	Win	True
379.922	2.976	Win2	0.625	n/a	Yes	2.976	n/a	n/a	GoodResponse	1	0.0	n/a	3	39	ISIslide	Win	True
382.921	0.25	Win2	0.6341	0.0	Yes	2.729	0.021	n/a	GoodResponse	1	n/a	n/a	4	40	Cue	Win	True
383.171	3.95	Win2	0.6341	0.0	Yes	2.729	0.0	n/a	GoodResponse	1	n/a	n/a	4	40	Fixation	Win	True
387.12	0.28	Win2	0.6341	0.001	Yes	2.729	-0.001	2.0	GoodResponse	1	0.208	386.328	4	40	Target	Win	True
387.328	0.3	Win2	0.6341	0.001	Yes	2.729	-0.001	2.0	GoodResponse	1	0.208	n/a	4	40	ButtonPress	Win	True
387.403	0.42	Win2	0.6341	n/a	Yes	2.729	n/a	n/a	GoodResponse	1	n/a	n/a	4	40	Blank	Win	True
387.819	1.45	Win2	0.6341	n/a	Yes	2.729	n/a	5.0	GoodResponse	1	0.005	386.824	4	40	Feedback	Win	True
389.269	2.729	Win2	0.6341	n/a	Yes	2.729	n/a	n/a	GoodResponse	1	0.0	n/a	4	40	ISIslide	Win	True
392.018	0.25	Win2	0.6429	0.0	Yes	2.782	0.018	n/a	GoodResponse	1	n/a	n/a	5	41	Cue	Win	True
392.268	3.9	Win2	0.6429	0.0	Yes	2.782	0.0	n/a	GoodResponse	1	n/a	n/a	5	41	Fixation	Win	True
396.166	0.29	Win2	0.6429	0.002	Yes	2.782	-0.002	2.0	GoodResponse	1	0.217	395.383	5	41	Target	Win	True
396.383	0.3	Win2	0.6429	0.002	Yes	2.782	-0.002	2.0	GoodResponse	1	0.217	n/a	5	41	ButtonPress	Win	True
396.466	0.41	Win2	0.6429	n/a	Yes	2.782	n/a	n/a	GoodResponse	1	n/a	n/a	5	41	Blank	Win	True
396.866	1.45	Win2	0.6429	n/a	Yes	2.782	n/a	5.0	GoodResponse	1	0.031	395.897	5	41	Feedback	Win	True
398.316	2.782	Win2	0.6429	n/a	Yes	2.782	n/a	n/a	GoodResponse	1	0.0	n/a	5	41	ISIslide	Win	True
401.115	0.25	Control	0.6512	0.0	Yes	2.935	0.015	n/a	GoodResponse	0	n/a	n/a	5	42	Cue	Neutral	True
401.364	3.85	Control	0.6512	0.001	Yes	2.935	-0.001	n/a	GoodResponse	0	n/a	n/a	5	42	Fixation	Neutral	True
405.213	0.3	Control	0.6512	0.002	Yes	2.935	-0.002	2.0	GoodResponse	0	0.207	404.42	5	42	Target	Neutral	True
405.42	0.3	Control	0.6512	0.002	Yes	2.935	-0.002	2.0	GoodResponse	0	0.207	n/a	5	42	ButtonPress	Neutral	True
405.513	0.4	Control	0.6512	n/a	Yes	2.935	n/a	n/a	GoodResponse	0	n/a	n/a	5	42	Blank	Neutral	True
405.913	1.45	Control	0.6512	n/a	Yes	2.935	n/a	5.0	GoodResponse	0	0.008	404.921	5	42	Feedback	Neutral	True
407.362	2.935	Control	0.6512	n/a	Yes	2.935	n/a	n/a	GoodResponse	0	0.0	n/a	5	42	ISIslide	Neutral	True
410.328	0.25	Win2	0.6591	0.0	Yes	3.172	0.028	n/a	GoodResponse	1	n/a	n/a	6	43	Cue	Win	True
410.578	4.0	Win2	0.6591	0.0	Yes	3.172	0.0	n/a	GoodResponse	1	n/a	n/a	6	43	Fixation	Win	True
414.576	0.31	Win2	0.6591	0.002	Yes	3.172	-0.002	2.0	GoodResponse	1	0.172	413.748	6	43	Target	Win	True
414.748	0.3	Win2	0.6591	0.002	Yes	3.172	-0.002	2.0	GoodResponse	1	0.172	n/a	6	43	ButtonPress	Win	True
414.893	0.39	Win2	0.6591	n/a	Yes	3.172	n/a	n/a	GoodResponse	1	n/a	n/a	6	43	Blank	Win	True
415.276	1.45	Win2	0.6591	n/a	Yes	3.172	n/a	5.0	GoodResponse	1	0.011	414.287	6	43	Feedback	Win	True
416.726	3.172	Win2	0.6591	n/a	Yes	3.172	n/a	n/a	GoodResponse	1	0.0	n/a	6	43	ISIslide	Win	True
419.925	0.25	Win2	0.6444	0.0	No	2.975	0.025	n/a	NoResponse	0	n/a	n/a	6	44	Cue	MissedWin	True
420.174	4.0	Win2	0.6444	0.001	No	2.975	-0.001	2.0	NoResponse	0	3.804	422.978	6	44	Fixation	MissedWin	True
423.978	0.3	Win2	0.6444	0.001	No	2.975	-0.001	2.0	NoResponse	0	3.804	n/a	6	44	ButtonPress	MissedWin	True
424.173	0.31	Win2	0.6444	0.002	No	2.975	-0.002	n/a	NoResponse	0	n/a	n/a	6	44	Target	MissedWin	True
424.49	0.39	Win2	0.6444	n/a	No	2.975	n/a	n/a	NoResponse	0	n/a	n/a	6	44	Blank	MissedWin	True
424.873	1.45	Win2	0.6444	n/a	No	2.975	n/a	5.0	NoResponse	0	0.024	423.897	6	44	Feedback	MissedWin	True
426.322	2.975	Win2	0.6444	n/a	No	2.975	n/a	n/a	NoResponse	0	0.0	n/a	6	44	ISIslide	MissedWin	True
429.321	0.25	Control	0.6522	0.0	Yes	2.879	0.021	n/a	GoodResponse	0	n/a	n/a	6	45	Cue	Neutral	True
429.571	4.1	Control	0.6522	0.0	Yes	2.879	0.0	n/a	GoodResponse	0	n/a	n/a	6	45	Fixation	Neutral	True
433.67	0.32	Control	0.6522	0.001	Yes	2.879	-0.001	2.0	GoodResponse	0	0.184	432.854	6	45	Target	Neutral	True
433.854	0.3	Control	0.6522	0.001	Yes	2.879	-0.001	2.0	GoodResponse	0	0.184	n/a	6	45	ButtonPress	Neutral	True
434.003	0.38	Control	0.6522	n/a	Yes	2.879	n/a	n/a	GoodResponse	0	n/a	n/a	6	45	Blank	Neutral	True
434.369	1.45	Control	0.6522	n/a	Yes	2.879	n/a	5.0	GoodResponse	0	0.039	433.408	6	45	Feedback	Neutral	True
435.819	2.879	Control	0.6522	n/a	Yes	2.879	n/a	n/a	GoodResponse	0	0.0	n/a	6	45	ISIslide	Neutral	True
438.718	0.25	Lose2	0.6596	0.0	Yes	3.382	0.018	n/a	GoodResponse	0	n/a	n/a	6	46	Cue	AvoidedLoss	True
438.968	4.0	Lose2	0.6596	0.0	Yes	3.382	0.0	n/a	GoodResponse	0	n/a	n/a	6	46	Fixation	AvoidedLoss	True
442.966	0.33	Lose2	0.6596	0.002	Yes	3.382	-0.002	2.0	GoodResponse	0	0.227	442.193	6	46	Target	AvoidedLoss	True
443.193	0.3	Lose2	0.6596	0.002	Yes	3.382	-0.002	2.0	GoodResponse	0	0.227	n/a	6	46	ButtonPress	AvoidedLoss	True
443.3	0.37	Lose2	0.6596	n/a	Yes	3.382	n/a	n/a	GoodResponse	0	n/a	n/a	6	46	Blank	AvoidedLoss	True
443.666	1.45	Lose2	0.6596	n/a	Yes	3.382	n/a	5.0	GoodResponse	0	0.011	442.677	6	46	Feedback	AvoidedLoss	True
445.116	3.382	Lose2	0.6596	n/a	Yes	3.382	n/a	n/a	GoodResponse	0	0.0	n/a	6	46	ISIslide	AvoidedLoss	True
448.514	0.25	Lose2	0.6667000000000001	0.0	Yes	2.686	0.014	n/a	GoodResponse	0	n/a	n/a	6	47	Cue	AvoidedLoss	True
448.764	4.0	Lose2	0.6667000000000001	0.0	Yes	2.686	0.0	n/a	GoodResponse	0	n/a	n/a	6	47	Fixation	AvoidedLoss	True
452.763	0.33	Lose2	0.6667000000000001	0.001	Yes	2.686	-0.001	2.0	GoodResponse	0	0.214	451.977	6	47	Target	AvoidedLoss	True
452.977	0.3	Lose2	0.6667000000000001	0.001	Yes	2.686	-0.001	2.0	GoodResponse	0	0.214	n/a	6	47	ButtonPress	AvoidedLoss	True
453.096	0.37	Lose2	0.6667000000000001	n/a	Yes	2.686	n/a	n/a	GoodResponse	0	n/a	n/a	6	47	Blank	AvoidedLoss	True
453.463	1.45	Lose2	0.6667000000000001	n/a	Yes	2.686	n/a	5.0	GoodResponse	0	0.019	452.482	6	47	Feedback	AvoidedLoss	True
454.912	2.686	Lose2	0.6667000000000001	n/a	Yes	2.686	n/a	n/a	GoodResponse	0	0.0	n/a	6	47	ISIslide	AvoidedLoss	True
457.628	0.25	Lose2	0.6735	0.0	Yes	3.022	0.028	n/a	GoodResponse	0	n/a	n/a	6	48	Cue	AvoidedLoss	True
457.878	3.95	Lose2	0.6735	0.0	Yes	3.022	0.0	n/a	GoodResponse	0	n/a	n/a	6	48	Fixation	AvoidedLoss	True
461.826	0.32	Lose2	0.6735	0.002	Yes	3.022	-0.002	2.0	GoodResponse	0	0.201	461.027	6	48	Target	AvoidedLoss	True
462.027	0.3	Lose2	0.6735	0.002	Yes	3.022	-0.002	2.0	GoodResponse	0	0.201	n/a	6	48	ButtonPress	AvoidedLoss	True
462.159	0.38	Lose2	0.6735	n/a	Yes	3.022	n/a	n/a	GoodResponse	0	n/a	n/a	6	48	Blank	AvoidedLoss	True
462.526	1.45	Lose2	0.6735	n/a	Yes	3.022	n/a	5.0	GoodResponse	0	0.029	461.555	6	48	Feedback	AvoidedLoss	True
463.976	3.022	Lose2	0.6735	n/a	Yes	3.022	n/a	n/a	GoodResponse	0	0.0	n/a	6	48	ISIslide	AvoidedLoss	True
467.024	0.25	Control	0.68	0.001	Yes	2.876	0.024	n/a	GoodResponse	0	n/a	n/a	6	49	Cue	Neutral	True
467.274	4.0	Control	0.68	0.0	Yes	2.876	0.0	n/a	GoodResponse	0	n/a	n/a	6	49	Fixation	Neutral	True
471.273	0.31	Control	0.68	0.001	Yes	2.876	-0.001	2.0	GoodResponse	0	0.22	470.493	6	49	Target	Neutral	True
471.493	0.3	Control	0.68	0.001	Yes	2.876	-0.001	2.0	GoodResponse	0	0.22	n/a	6	49	ButtonPress	Neutral	True
471.589	0.39	Control	0.68	n/a	Yes	2.876	n/a	n/a	GoodResponse	0	n/a	n/a	6	49	Blank	Neutral	True
471.973	1.45	Control	0.68	n/a	Yes	2.876	n/a	5.0	GoodResponse	0	0.045	471.018	6	49	Feedback	Neutral	True
473.422	2.876	Control	0.68	n/a	Yes	2.876	n/a	n/a	GoodResponse	0	0.0	n/a	6	49	ISIslide	Neutral	True
476.321	0.25	Control	0.6862999999999999	0.0	Yes	2.779	0.021	n/a	GoodResponse	0	n/a	n/a	6	50	Cue	Neutral	True
476.571	4.0	Control	0.6862999999999999	0.0	Yes	2.779	0.0	n/a	GoodResponse	0	n/a	n/a	6	50	Fixation	Neutral	True
480.57	0.3	Control	0.6862999999999999	0.001	Yes	2.779	-0.001	2.0	GoodResponse	0	0.188	479.758	6	50	Target	Neutral	True
480.758	0.3	Control	0.6862999999999999	0.001	Yes	2.779	-0.001	2.0	GoodResponse	0	0.188	n/a	6	50	ButtonPress	Neutral	True
480.869	0.4	Control	0.6862999999999999	n/a	Yes	2.779	n/a	n/a	GoodResponse	0	n/a	n/a	6	50	Blank	Neutral	True
481.269	1.45	Control	0.6862999999999999	n/a	Yes	2.779	n/a	5.0	GoodResponse	0	0.017	480.286	6	50	Feedback	Neutral	True
482.719	2.779	Control	0.6862999999999999	n/a	Yes	2.779	n/a	n/a	GoodResponse	0	0.0	n/a	6	50	ISIslide	Neutral	True
485.518	0.25	Control	0.6923	0.0	Yes	2.732	0.018	n/a	GoodResponse	0	n/a	n/a	6	51	Cue	Neutral	True
485.768	3.95	Control	0.6923	0.0	Yes	2.732	0.0	n/a	GoodResponse	0	n/a	n/a	6	51	Fixation	Neutral	True
489.716	0.29	Control	0.6923	0.002	Yes	2.732	-0.002	2.0	GoodResponse	0	0.193	488.909	6	51	Target	Neutral	True
489.909	0.3	Control	0.6923	0.002	Yes	2.732	-0.002	2.0	GoodResponse	0	0.193	n/a	6	51	ButtonPress	Neutral	True
490.016	0.41	Control	0.6923	n/a	Yes	2.732	n/a	n/a	GoodResponse	0	n/a	n/a	6	51	Blank	Neutral	True
490.416	1.45	Control	0.6923	n/a	Yes	2.732	n/a	5.0	GoodResponse	0	0.041	489.457	6	51	Feedback	Neutral	True
491.866	2.732	Control	0.6923	n/a	Yes	2.732	n/a	n/a	GoodResponse	0	0.0	n/a	6	51	ISIslide	Neutral	True
494.615	0.25	Control	0.6981	0.0	Yes	2.635	0.015	n/a	GoodResponse	0	n/a	n/a	6	52	Cue	Neutral	True
494.865	4.05	Control	0.6981	0.0	Yes	2.635	0.0	n/a	GoodResponse	0	n/a	n/a	6	52	Fixation	Neutral	True
498.913	0.28	Control	0.6981	0.002	Yes	2.635	-0.002	2.0	GoodResponse	0	0.214	498.127	6	52	Target	Neutral	True
499.127	0.3	Control	0.6981	0.002	Yes	2.635	-0.002	2.0	GoodResponse	0	0.214	n/a	6	52	ButtonPress	Neutral	True
499.196	0.42	Control	0.6981	n/a	Yes	2.635	n/a	n/a	GoodResponse	0	n/a	n/a	6	52	Blank	Neutral	True
499.613	1.45	Control	0.6981	n/a	Yes	2.635	n/a	5.0	GoodResponse	0	0.015	498.628	6	52	Feedback	Neutral	True
501.062	2.635	Control	0.6981	n/a	Yes	2.635	n/a	n/a	GoodResponse	0	0.0	n/a	6	52	ISIslide	Neutral	True
503.728	0.25	Win2	0.7037	0.0	Yes	2.922	0.028	n/a	GoodResponse	1	n/a	n/a	7	53	Cue	Win	True
503.978	4.05	Win2	0.7037	0.0	Yes	2.922	0.0	n/a	GoodResponse	1	n/a	n/a	7	53	Fixation	Win	True
508.027	0.27	Win2	0.7037	0.001	Yes	2.922	-0.001	2.0	GoodResponse	1	0.239	507.266	7	53	Target	Win	True
508.266	0.3	Win2	0.7037	0.001	Yes	2.922	-0.001	2.0	GoodResponse	1	0.239	n/a	7	53	ButtonPress	Win	True
508.31	0.43	Win2	0.7037	n/a	Yes	2.922	n/a	n/a	GoodResponse	1	n/a	n/a	7	53	Blank	Win	True
508.726	1.45	Win2	0.7037	n/a	Yes	2.922	n/a	5.0	GoodResponse	1	0.023	507.749	7	53	Feedback	Win	True
510.176	2.922	Win2	0.7037	n/a	Yes	2.922	n/a	n/a	GoodResponse	1	0.0	n/a	7	53	ISIslide	Win	True
513.125	0.25	Win2	0.7091	0.0	Yes	2.725	0.025	n/a	GoodResponse	1	n/a	n/a	8	54	Cue	Win	True
513.375	3.95	Win2	0.7091	0.0	Yes	2.725	0.0	n/a	GoodResponse	1	n/a	n/a	8	54	Fixation	Win	True
517.323	0.26	Win2	0.7091	0.002	Yes	2.725	-0.002	2.0	GoodResponse	1	0.227	516.55	8	54	Target	Win	True
517.55	0.3	Win2	0.7091	0.002	Yes	2.725	-0.002	2.0	GoodResponse	1	0.227	n/a	8	54	ButtonPress	Win	True
517.59	0.44	Win2	0.7091	n/a	Yes	2.725	n/a	n/a	GoodResponse	1	n/a	n/a	8	54	Blank	Win	True
518.023	1.45	Win2	0.7091	n/a	Yes	2.725	n/a	5.0	GoodResponse	1	0.043	517.066	8	54	Feedback	Win	True
519.472	2.725	Win2	0.7091	n/a	Yes	2.725	n/a	n/a	GoodResponse	1	0.0	n/a	8	54	ISIslide	Win	True
522.221	0.25	Control	0.7143	0.001	Yes	3.029	0.021	n/a	GoodResponse	0	n/a	n/a	8	55	Cue	Neutral	True
522.471	3.95	Control	0.7143	0.0	Yes	3.029	0.0	n/a	GoodResponse	0	n/a	n/a	8	55	Fixation	Neutral	True
526.42	0.25	Control	0.7143	0.001	Yes	3.029	-0.001	2.0	GoodResponse	0	0.215	525.635	8	55	Target	Neutral	True
526.635	0.3	Control	0.7143	0.001	Yes	3.029	-0.001	2.0	GoodResponse	0	0.215	n/a	8	55	ButtonPress	Neutral	True
526.67	0.45	Control	0.7143	n/a	Yes	3.029	n/a	n/a	GoodResponse	0	n/a	n/a	8	55	Blank	Neutral	True
527.12	1.45	Control	0.7143	n/a	Yes	3.029	n/a	5.0	GoodResponse	0	0.019	526.139	8	55	Feedback	Neutral	True
528.569	3.029	Control	0.7143	n/a	Yes	3.029	n/a	n/a	GoodResponse	0	0.0	n/a	8	55	ISIslide	Neutral	True
531.618	0.25	Control	0.7193	0.0	Yes	2.832	0.018	n/a	GoodResponse	0	n/a	n/a	8	56	Cue	Neutral	True
531.868	3.95	Control	0.7193	0.0	Yes	2.832	0.0	n/a	GoodResponse	0	n/a	n/a	8	56	Fixation	Neutral	True
535.817	0.24	Control	0.7193	0.001	Yes	2.832	-0.001	2.0	GoodResponse	0	0.217	535.034	8	56	Target	Neutral	True
536.034	0.3	Control	0.7193	0.001	Yes	2.832	-0.001	2.0	GoodResponse	0	0.217	n/a	8	56	ButtonPress	Neutral	True
536.067	0.46	Control	0.7193	n/a	Yes	2.832	n/a	n/a	GoodResponse	0	n/a	n/a	8	56	Blank	Neutral	True
536.516	1.45	Control	0.7193	n/a	Yes	2.832	n/a	5.0	GoodResponse	0	0.038	535.554	8	56	Feedback	Neutral	True
537.966	2.832	Control	0.7193	n/a	Yes	2.832	n/a	n/a	GoodResponse	0	0.0	n/a	8	56	ISIslide	Neutral	True
540.815	0.25	Control	0.7241	0.0	Yes	3.485	0.015	n/a	GoodResponse	0	n/a	n/a	8	57	Cue	Neutral	True
541.065	4.0	Control	0.7241	0.0	Yes	3.485	0.0	n/a	GoodResponse	0	n/a	n/a	8	57	Fixation	Neutral	True
545.063	0.23	Control	0.7241	0.002	Yes	3.485	-0.002	2.0	GoodResponse	0	0.21	544.273	8	57	Target	Neutral	True
545.273	0.3	Control	0.7241	0.002	Yes	3.485	-0.002	2.0	GoodResponse	0	0.21	n/a	8	57	ButtonPress	Neutral	True
545.297	0.47	Control	0.7241	n/a	Yes	3.485	n/a	n/a	GoodResponse	0	n/a	n/a	8	57	Blank	Neutral	True
545.763	1.45	Control	0.7241	n/a	Yes	3.485	n/a	5.0	GoodResponse	0	0.01	544.773	8	57	Feedback	Neutral	True
547.213	3.485	Control	0.7241	n/a	Yes	3.485	n/a	n/a	GoodResponse	0	0.0	n/a	8	57	ISIslide	Neutral	True
550.728	0.25	Win2	0.7288	0.0	Yes	2.722	0.028	n/a	GoodResponse	1	n/a	n/a	9	58	Cue	Win	True
550.978	4.05	Win2	0.7288	0.0	Yes	2.722	0.0	n/a	GoodResponse	1	n/a	n/a	9	58	Fixation	Win	True
555.026	0.22	Win2	0.7288	0.002	Yes	2.722	-0.002	2.0	GoodResponse	1	0.197	554.223	9	58	Target	Win	True
555.223	0.3	Win2	0.7288	0.002	Yes	2.722	-0.002	2.0	GoodResponse	1	0.197	n/a	9	58	ButtonPress	Win	True
555.26	0.48	Win2	0.7288	n/a	Yes	2.722	n/a	n/a	GoodResponse	1	n/a	n/a	9	58	Blank	Win	True
555.726	1.45	Win2	0.7288	n/a	Yes	2.722	n/a	5.0	GoodResponse	1	0.047	554.773	9	58	Feedback	Win	True
557.176	2.722	Win2	0.7288	n/a	Yes	2.722	n/a	n/a	GoodResponse	1	0.0	n/a	9	58	ISIslide	Win	True
559.925	0.25	Lose2	0.7333	0.0	Yes	2.675	0.025	n/a	GoodResponse	0	n/a	n/a	9	59	Cue	AvoidedLoss	True
560.175	4.0	Lose2	0.7333	0.0	Yes	2.675	0.0	n/a	GoodResponse	0	n/a	n/a	9	59	Fixation	AvoidedLoss	True
564.173	0.21	Lose2	0.7333	0.002	Yes	2.675	-0.002	2.0	GoodResponse	0	0.194	563.367	9	59	Target	AvoidedLoss	True
564.367	0.3	Lose2	0.7333	0.002	Yes	2.675	-0.002	2.0	GoodResponse	0	0.194	n/a	9	59	ButtonPress	AvoidedLoss	True
564.39	0.49	Lose2	0.7333	n/a	Yes	2.675	n/a	n/a	GoodResponse	0	n/a	n/a	9	59	Blank	AvoidedLoss	True
564.873	1.45	Lose2	0.7333	n/a	Yes	2.675	n/a	5.0	GoodResponse	0	0.022	563.895	9	59	Feedback	AvoidedLoss	True
566.322	2.675	Lose2	0.7333	n/a	Yes	2.675	n/a	n/a	GoodResponse	0	0.0	n/a	9	59	ISIslide	AvoidedLoss	True
569.021	0.25	Control	0.7212999999999999	0.001	No	2.679	0.021	n/a	NoResponse	0	n/a	n/a	9	60	Cue	Neutral	True
569.271	4.0	Control	0.7212999999999999	0.0	No	2.679	0.0	n/a	NoResponse	0	n/a	n/a	9	60	Fixation	Neutral	True
573.27	0.2	Control	0.7212999999999999	0.001	No	2.679	-0.001	2.0	NoResponse	0	0.267	572.537	9	60	Target	Neutral	True
573.47	0.5	Control	0.7212999999999999	n/a	No	2.679	n/a	n/a	NoResponse	0	n/a	n/a	9	60	Blank	Neutral	True
573.537	0.3	Control	0.7212999999999999	0.001	No	2.679	-0.001	2.0	NoResponse	0	0.267	n/a	9	60	ButtonPress	Neutral	True
573.97	1.45	Control	0.7212999999999999	n/a	No	2.679	n/a	5.0	NoResponse	0	0.047	573.017	9	60	Feedback	Neutral	True
575.419	2.679	Control	0.7212999999999999	n/a	No	2.679	n/a	n/a	NoResponse	0	0.0	n/a	9	60	ISIslide	Neutral	True
578.118	0.25	Lose2	0.7097	0.0	No	2.982	0.018	n/a	NoResponse	-1	n/a	n/a	8	61	Cue	Loss	True
578.368	4.0	Lose2	0.7097	0.0	No	2.982	0.0	n/a	NoResponse	-1	n/a	n/a	8	61	Fixation	Loss	True
582.367	0.19	Lose2	0.7097	0.001	No	2.982	-0.001	2.0	NoResponse	-1	0.217	581.584	8	61	Target	Loss	True
582.567	0.51	Lose2	0.7097	n/a	No	2.982	n/a	n/a	NoResponse	-1	n/a	n/a	8	61	Blank	Loss	True
582.584	0.3	Lose2	0.7097	0.001	No	2.982	-0.001	2.0	NoResponse	-1	0.217	n/a	8	61	ButtonPress	Loss	True
583.066	1.45	Lose2	0.7097	n/a	No	2.982	n/a	5.0	NoResponse	-1	0.023	582.089	8	61	Feedback	Loss	True
584.516	2.982	Lose2	0.7097	n/a	No	2.982	n/a	n/a	NoResponse	-1	0.0	n/a	8	61	ISIslide	Loss	True
587.515	0.25	Lose2	0.6984	0.0	No	2.885	0.015	n/a	NoResponse	-1	n/a	n/a	7	62	Cue	Loss	True
587.765	3.9	Lose2	0.6984	0.0	No	2.885	0.0	n/a	NoResponse	-1	n/a	n/a	7	62	Fixation	Loss	True
591.663	0.18	Lose2	0.6984	0.002	No	2.885	-0.002	2.0	NoResponse	-1	0.233	590.896	7	62	Target	Loss	True
591.847	0.52	Lose2	0.6984	n/a	No	2.885	n/a	n/a	NoResponse	-1	n/a	n/a	7	62	Blank	Loss	True
591.896	0.3	Lose2	0.6984	0.002	No	2.885	-0.002	2.0	NoResponse	-1	0.233	n/a	7	62	ButtonPress	Loss	True
592.363	1.45	Lose2	0.6984	n/a	No	2.885	n/a	5.0	NoResponse	-1	0.043	591.406	7	62	Feedback	Loss	True
593.813	2.885	Lose2	0.6984	n/a	No	2.885	n/a	n/a	NoResponse	-1	0.0	n/a	7	62	ISIslide	Loss	True
596.728	0.25	Lose2	0.6875	0.0	No	2.622	0.028	n/a	NoResponse	-1	n/a	n/a	6	63	Cue	Loss	True
596.978	4.05	Lose2	0.6875	0.0	No	2.622	0.0	n/a	NoResponse	-1	n/a	n/a	6	63	Fixation	Loss	True
601.027	0.17	Lose2	0.6875	0.001	No	2.622	-0.001	2.0	NoResponse	-1	0.217	600.244	6	63	Target	Loss	True
601.193	0.53	Lose2	0.6875	n/a	No	2.622	n/a	n/a	NoResponse	-1	n/a	n/a	6	63	Blank	Loss	True
601.244	0.3	Lose2	0.6875	0.001	No	2.622	-0.001	2.0	NoResponse	-1	0.217	n/a	6	63	ButtonPress	Loss	True
601.727	1.45	Lose2	0.6875	n/a	No	2.622	n/a	5.0	NoResponse	-1	0.045	600.772	6	63	Feedback	Loss	True
603.176	2.622	Lose2	0.6875	n/a	No	2.622	n/a	n/a	NoResponse	-1	0.0	n/a	6	63	ISIslide	Loss	True
605.825	0.25	Win2	0.6769	0.0	No	3.125	0.025	n/a	NoResponse	0	n/a	n/a	6	64	Cue	MissedWin	True
606.075	4.15	Win2	0.6769	0.0	No	3.125	0.0	n/a	NoResponse	0	n/a	n/a	6	64	Fixation	MissedWin	True
610.223	0.16	Win2	0.6769	0.002	No	3.125	-0.002	2.0	NoResponse	0	0.222	609.445	6	64	Target	MissedWin	True
610.39	0.54	Win2	0.6769	n/a	No	3.125	n/a	n/a	NoResponse	0	n/a	n/a	6	64	Blank	MissedWin	True
610.445	0.3	Win2	0.6769	0.002	No	3.125	-0.002	2.0	NoResponse	0	0.222	n/a	6	64	ButtonPress	MissedWin	True
610.923	1.45	Win2	0.6769	n/a	No	3.125	n/a	5.0	NoResponse	0	0.02	609.943	6	64	Feedback	MissedWin	True
612.373	3.125	Win2	0.6769	n/a	No	3.125	n/a	n/a	NoResponse	0	0.0	n/a	6	64	ISIslide	MissedWin	True
615.522	0.25	Control	0.6667000000000001	0.0	No	2.778	0.022	n/a	NoResponse	0	n/a	n/a	6	65	Cue	Neutral	True
615.772	4.0	Control	0.6667000000000001	0.0	No	2.778	0.0	n/a	NoResponse	0	n/a	n/a	6	65	Fixation	Neutral	True
619.77	0.15	Control	0.6667000000000001	0.002	No	2.778	-0.002	2.0	NoResponse	0	0.176	618.946	6	65	Target	Neutral	True
619.92	0.55	Control	0.6667000000000001	n/a	No	2.778	n/a	n/a	NoResponse	0	n/a	n/a	6	65	Blank	Neutral	True
619.946	0.3	Control	0.6667000000000001	0.002	No	2.778	-0.002	2.0	NoResponse	0	0.176	n/a	6	65	ButtonPress	Neutral	True
620.47	1.45	Control	0.6667000000000001	n/a	No	2.778	n/a	5.0	NoResponse	0	0.033	619.503	6	65	Feedback	Neutral	True
621.919	2.778	Control	0.6667000000000001	n/a	No	2.778	n/a	n/a	NoResponse	0	0.0	n/a	6	65	ISIslide	Neutral	True
624.718	0.25	Win2	0.6567000000000001	0.0	No	2.782	0.018	n/a	NoResponse	0	n/a	n/a	6	66	Cue	MissedWin	True
624.968	3.9	Win2	0.6567000000000001	0.0	No	2.782	0.0	n/a	NoResponse	0	n/a	n/a	6	66	Fixation	MissedWin	True
628.867	0.15	Win2	0.6567000000000001	0.001	No	2.782	-0.001	2.0	NoResponse	0	0.327	628.194	6	66	Target	MissedWin	True
629.017	0.55	Win2	0.6567000000000001	n/a	No	2.782	n/a	n/a	NoResponse	0	n/a	n/a	6	66	Blank	MissedWin	True
629.194	0.3	Win2	0.6567000000000001	0.001	No	2.782	-0.001	2.0	NoResponse	0	0.327	n/a	6	66	ButtonPress	MissedWin	True
629.567	1.45	Win2	0.6567000000000001	n/a	No	2.782	n/a	5.0	NoResponse	0	0.01	628.577	6	66	Feedback	MissedWin	True
631.016	2.782	Win2	0.6567000000000001	n/a	No	2.782	n/a	n/a	NoResponse	0	0.0	n/a	6	66	ISIslide	MissedWin	True
633.815	0.25	Control	0.6470999999999999	0.0	No	2.735	0.015	n/a	NoResponse	0	n/a	n/a	6	67	Cue	Neutral	True
634.065	3.95	Control	0.6470999999999999	0.0	No	2.735	0.0	n/a	NoResponse	0	n/a	n/a	6	67	Fixation	Neutral	True
638.014	0.15	Control	0.6470999999999999	0.001	No	2.735	-0.001	2.0	NoResponse	0	0.214	637.228	6	67	Target	Neutral	True
638.164	0.55	Control	0.6470999999999999	n/a	No	2.735	n/a	n/a	NoResponse	0	n/a	n/a	6	67	Blank	Neutral	True
638.228	0.3	Control	0.6470999999999999	0.001	No	2.735	-0.001	2.0	NoResponse	0	0.214	n/a	6	67	ButtonPress	Neutral	True
638.713	1.45	Control	0.6470999999999999	n/a	No	2.735	n/a	5.0	NoResponse	0	0.034	637.747	6	67	Feedback	Neutral	True
640.163	2.735	Control	0.6470999999999999	n/a	No	2.735	n/a	n/a	NoResponse	0	0.0	n/a	6	67	ISIslide	Neutral	True
642.929	0.25	Win2	0.6377	0.0	No	3.071	0.029	n/a	NoResponse	0	n/a	n/a	6	68	Cue	MissedWin	True
643.178	4.0	Win2	0.6377	0.001	No	3.071	-0.001	n/a	NoResponse	0	n/a	n/a	6	68	Fixation	MissedWin	True
647.177	0.16	Win2	0.6377	0.002	No	3.071	-0.002	2.0	NoResponse	0	0.229	646.406	6	68	Target	MissedWin	True
647.344	0.54	Win2	0.6377	n/a	No	3.071	n/a	n/a	NoResponse	0	n/a	n/a	6	68	Blank	MissedWin	True
647.406	0.3	Win2	0.6377	0.002	No	3.071	-0.002	2.0	NoResponse	0	0.229	n/a	6	68	ButtonPress	MissedWin	True
647.877	1.45	Win2	0.6377	n/a	No	3.071	n/a	5.0	NoResponse	0	0.041	646.918	6	68	Feedback	MissedWin	True
649.326	3.071	Win2	0.6377	n/a	No	3.071	n/a	n/a	NoResponse	0	0.0	n/a	6	68	ISIslide	MissedWin	True
652.425	0.25	Win2	0.6286	0.0	No	3.225	0.025	n/a	NoResponse	0	n/a	n/a	6	69	Cue	MissedWin	True
652.675	3.95	Win2	0.6286	0.0	No	3.225	0.0	n/a	NoResponse	0	n/a	n/a	6	69	Fixation	MissedWin	True
656.624	0.17	Win2	0.6286	0.001	No	3.225	-0.001	2.0	NoResponse	0	0.261	655.885	6	69	Target	MissedWin	True
656.807	0.53	Win2	0.6286	n/a	No	3.225	n/a	n/a	NoResponse	0	n/a	n/a	6	69	Blank	MissedWin	True
656.885	0.3	Win2	0.6286	0.001	No	3.225	-0.001	2.0	NoResponse	0	0.261	n/a	6	69	ButtonPress	MissedWin	True
657.323	1.45	Win2	0.6286	n/a	No	3.225	n/a	5.0	NoResponse	0	0.009	656.332	6	69	Feedback	MissedWin	True
658.773	3.225	Win2	0.6286	n/a	No	3.225	n/a	n/a	NoResponse	0	0.0	n/a	6	69	ISIslide	MissedWin	True
662.022	0.25	Lose2	0.6197	0.0	No	3.028	0.022	n/a	NoResponse	-1	n/a	n/a	5	70	Cue	Loss	True
662.272	4.05	Lose2	0.6197	0.0	No	3.028	0.0	2.0	NoResponse	-1	4.01	665.282	5	70	Fixation	Loss	True
666.282	0.3	Lose2	0.6197	0.0	No	3.028	0.0	2.0	NoResponse	-1	4.01	n/a	5	70	ButtonPress	Loss	True
666.32	0.18	Lose2	0.6197	0.002	No	3.028	-0.002	n/a	NoResponse	-1	n/a	n/a	5	70	Target	Loss	True
666.503	0.52	Lose2	0.6197	n/a	No	3.028	n/a	n/a	NoResponse	-1	n/a	n/a	5	70	Blank	Loss	True
667.02	1.45	Lose2	0.6197	n/a	No	3.028	n/a	5.0	NoResponse	-1	0.02	666.04	5	70	Feedback	Loss	True
668.469	3.028	Lose2	0.6197	n/a	No	3.028	n/a	n/a	NoResponse	-1	0.0	n/a	5	70	ISIslide	Loss	True
671.518	0.25	Win2	0.6111	0.0	No	2.732	0.018	n/a	NoResponse	0	n/a	n/a	5	71	Cue	MissedWin	True
671.768	4.05	Win2	0.6111	0.0	No	2.732	0.0	n/a	NoResponse	0	n/a	n/a	5	71	Fixation	MissedWin	True
675.817	0.19	Win2	0.6111	0.001	No	2.732	-0.001	2.0	NoResponse	0	0.217	675.034	5	71	Target	MissedWin	True
676.017	0.51	Win2	0.6111	n/a	No	2.732	n/a	n/a	NoResponse	0	n/a	n/a	5	71	Blank	MissedWin	True
676.034	0.3	Win2	0.6111	0.001	No	2.732	-0.001	2.0	NoResponse	0	0.217	n/a	5	71	ButtonPress	MissedWin	True
676.517	1.45	Win2	0.6111	n/a	No	2.732	n/a	5.0	NoResponse	0	0.035	675.552	5	71	Feedback	MissedWin	True
677.966	2.732	Win2	0.6111	n/a	No	2.732	n/a	n/a	NoResponse	0	0.0	n/a	5	71	ISIslide	MissedWin	True
680.715	0.25	Win2	0.6027	0.0	No	2.785	0.015	n/a	NoResponse	0	n/a	n/a	5	72	Cue	MissedWin	True
680.965	4.1	Win2	0.6027	0.0	No	2.785	0.0	n/a	NoResponse	0	n/a	n/a	5	72	Fixation	MissedWin	True
685.064	0.2	Win2	0.6027	0.001	No	2.785	-0.001	2.0	NoResponse	0	0.218	684.282	5	72	Target	MissedWin	True
685.263	0.5	Win2	0.6027	n/a	No	2.785	n/a	n/a	NoResponse	0	n/a	n/a	5	72	Blank	MissedWin	True
685.282	0.3	Win2	0.6027	0.001	No	2.785	-0.001	2.0	NoResponse	0	0.218	n/a	5	72	ButtonPress	MissedWin	True
685.763	1.45	Win2	0.6027	n/a	No	2.785	n/a	5.0	NoResponse	0	0.008	684.771	5	72	Feedback	MissedWin	True
687.213	2.785	Win2	0.6027	n/a	No	2.785	n/a	n/a	NoResponse	0	0.0	n/a	5	72	ISIslide	MissedWin	True
690.028	0.25	Win2	0.5946	0.001	No	2.672	0.028	n/a	NoResponse	0	n/a	n/a	5	73	Cue	MissedWin	True
690.278	4.0	Win2	0.5946	0.0	No	2.672	0.0	n/a	NoResponse	0	n/a	n/a	5	73	Fixation	MissedWin	True
694.277	0.21	Win2	0.5946	0.001	No	2.672	-0.001	2.0	NoResponse	0	0.227	693.504	5	73	Target	MissedWin	True
694.494	0.49	Win2	0.5946	n/a	No	2.672	n/a	n/a	NoResponse	0	n/a	n/a	5	73	Blank	MissedWin	True
694.504	0.3	Win2	0.5946	0.001	No	2.672	-0.001	2.0	NoResponse	0	0.227	n/a	5	73	ButtonPress	MissedWin	True
694.977	1.45	Win2	0.5946	n/a	No	2.672	n/a	5.0	NoResponse	0	0.013	693.99	5	73	Feedback	MissedWin	True
696.426	2.672	Win2	0.5946	n/a	No	2.672	n/a	n/a	NoResponse	0	0.0	n/a	5	73	ISIslide	MissedWin	True
699.125	0.25	Lose2	0.6	0.0	Yes	2.625	0.025	n/a	GoodResponse	0	n/a	n/a	5	74	Cue	AvoidedLoss	True
699.375	4.05	Lose2	0.6	0.0	Yes	2.625	0.0	n/a	GoodResponse	0	n/a	n/a	5	74	Fixation	AvoidedLoss	True
703.424	0.22	Lose2	0.6	0.001	Yes	2.625	-0.001	2.0	GoodResponse	0	0.177	702.601	5	74	Target	AvoidedLoss	True
703.601	0.3	Lose2	0.6	0.001	Yes	2.625	-0.001	2.0	GoodResponse	0	0.177	n/a	5	74	ButtonPress	AvoidedLoss	True
703.657	0.48	Lose2	0.6	n/a	Yes	2.625	n/a	n/a	GoodResponse	0	n/a	n/a	5	74	Blank	AvoidedLoss	True
704.123	1.45	Lose2	0.6	n/a	Yes	2.625	n/a	5.0	GoodResponse	0	0.038	703.161	5	74	Feedback	AvoidedLoss	True
705.573	2.625	Lose2	0.6	n/a	Yes	2.625	n/a	n/a	GoodResponse	0	0.0	n/a	5	74	ISIslide	AvoidedLoss	True
708.222	0.25	Lose2	0.5921	0.0	No	2.928	0.022	n/a	NoResponse	-1	n/a	n/a	4	75	Cue	Loss	True
708.472	3.95	Lose2	0.5921	0.0	No	2.928	0.0	n/a	NoResponse	-1	n/a	n/a	4	75	Fixation	Loss	True
712.42	0.23	Lose2	0.5921	0.002	No	2.928	-0.002	2.0	NoResponse	-1	0.242	711.662	4	75	Target	Loss	True
712.654	0.47	Lose2	0.5921	n/a	No	2.928	n/a	n/a	NoResponse	-1	n/a	n/a	4	75	Blank	Loss	True
712.662	0.3	Lose2	0.5921	0.002	No	2.928	-0.002	2.0	NoResponse	-1	0.242	n/a	4	75	ButtonPress	Loss	True
713.12	1.45	Lose2	0.5921	n/a	No	2.928	n/a	5.0	NoResponse	-1	0.017	712.137	4	75	Feedback	Loss	True
714.57	2.928	Lose2	0.5921	n/a	No	2.928	n/a	n/a	NoResponse	-1	0.0	n/a	4	75	ISIslide	Loss	True
717.519	0.25	Control	0.5974	0.0	Yes	3.231	0.019	n/a	GoodResponse	0	n/a	n/a	4	76	Cue	Neutral	True
717.769	4.05	Control	0.5974	0.0	Yes	3.231	0.0	n/a	GoodResponse	0	n/a	n/a	4	76	Fixation	Neutral	True
721.817	0.24	Control	0.5974	0.002	Yes	3.231	-0.002	2.0	GoodResponse	0	0.211	721.028	4	76	Target	Neutral	True
722.028	0.3	Control	0.5974	0.002	Yes	3.231	-0.002	2.0	GoodResponse	0	0.211	n/a	4	76	ButtonPress	Neutral	True
722.067	0.46	Control	0.5974	n/a	Yes	3.231	n/a	n/a	GoodResponse	0	n/a	n/a	4	76	Blank	Neutral	True
722.517	1.45	Control	0.5974	n/a	Yes	3.231	n/a	5.0	GoodResponse	0	0.034	721.551	4	76	Feedback	Neutral	True
723.966	3.231	Control	0.5974	n/a	Yes	3.231	n/a	n/a	GoodResponse	0	0.0	n/a	4	76	ISIslide	Neutral	True
727.215	0.25	Lose2	0.5897	0.0	No	2.585	0.015	n/a	NoResponse	-1	n/a	n/a	3	77	Cue	Loss	True
727.465	3.95	Lose2	0.5897	0.0	No	2.585	0.0	n/a	NoResponse	-1	n/a	n/a	3	77	Fixation	Loss	True
731.414	0.25	Lose2	0.5897	0.001	No	2.585	-0.001	2.0	NoResponse	-1	0.258	730.672	3	77	Target	Loss	True
731.664	0.45	Lose2	0.5897	n/a	No	2.585	n/a	n/a	NoResponse	-1	n/a	n/a	3	77	Blank	Loss	True
731.672	0.3	Lose2	0.5897	0.001	No	2.585	-0.001	2.0	NoResponse	-1	0.258	n/a	3	77	ButtonPress	Loss	True
732.113	1.45	Lose2	0.5897	n/a	No	2.585	n/a	5.0	NoResponse	-1	0.047	731.16	3	77	Feedback	Loss	True
733.563	2.585	Lose2	0.5897	n/a	No	2.585	n/a	n/a	NoResponse	-1	0.0	n/a	3	77	ISIslide	Loss	True
