onset	duration	cue_type	current_mean_accuracy	duration_error	is_hit	isi_adjusted	onset_delay	response	response_type	reward	rt	rt_time	total_reward	trial_number	trial_phase	trial_type	one_press
11.112	0.25	Control	1.0	0.0	Yes	2.938	0.012	n/a	GoodResponse	0	n/a	n/a	0	0	Cue	Neutral	True
11.363	3.85	Control	1.0	0.0	Yes	2.938	0.001	n/a	GoodResponse	0	n/a	n/a	0	0	Fixation	Neutral	True
15.208	0.4	Control	1.0	0.004	Yes	2.938	-0.004	4.0	GoodResponse	0	0.206	14.414	0	0	Target	Neutral	True
15.414	0.3	Control	1.0	0.004	Yes	2.938	-0.004	4.0	GoodResponse	0	0.206	n/a	0	0	ButtonPress	Neutral	True
15.609	0.3	Control	1.0	n/a	Yes	2.938	n/a	n/a	GoodResponse	0	n/a	n/a	0	0	Blank	Neutral	True
15.91	1.45	Control	1.0	n/a	Yes	2.938	n/a	5.0	GoodResponse	0	0.017	14.927	0	0	Feedback	Neutral	True
17.364	2.938	Control	1.0	n/a	Yes	2.938	n/a	n/a	GoodResponse	0	0.0	n/a	0	0	ISIslide	Neutral	True
20.323	0.25	Lose2	1.0	0.0	Yes	2.777	0.023	n/a	GoodResponse	0	n/a	n/a	0	1	Cue	AvoidedLoss	True
20.574	4.0	Lose2	1.0	0.0	Yes	2.777	0.001	n/a	GoodResponse	0	n/a	n/a	0	1	Fixation	AvoidedLoss	True
24.569	0.39	Lose2	1.0	0.004	Yes	2.777	-0.004	4.0	GoodResponse	0	0.222	23.791	0	1	Target	AvoidedLoss	True
24.791	0.3	Lose2	1.0	0.004	Yes	2.777	-0.004	4.0	GoodResponse	0	0.222	n/a	0	1	ButtonPress	AvoidedLoss	True
24.971	0.31	Lose2	1.0	n/a	Yes	2.777	n/a	n/a	GoodResponse	0	n/a	n/a	0	1	Blank	AvoidedLoss	True
25.271	1.45	Lose2	1.0	n/a	Yes	2.777	n/a	5.0	GoodResponse	0	0.022	24.293	0	1	Feedback	AvoidedLoss	True
26.726	2.777	Lose2	1.0	n/a	Yes	2.777	n/a	n/a	GoodResponse	0	0.0	n/a	0	1	ISIslide	AvoidedLoss	True
29.517	0.25	Control	1.0	0.001	Yes	2.583	0.017	n/a	GoodResponse	0	n/a	n/a	0	2	Cue	Neutral	True
29.768	4.1	Control	1.0	0.0	Yes	2.583	0.001	n/a	GoodResponse	0	n/a	n/a	0	2	Fixation	Neutral	True
33.864	0.38	Control	1.0	0.003	Yes	2.583	-0.003	4.0	GoodResponse	0	0.196	33.06	0	2	Target	Neutral	True
34.06	0.3	Control	1.0	0.003	Yes	2.583	-0.003	4.0	GoodResponse	0	0.196	n/a	0	2	ButtonPress	Neutral	True
34.248	0.32	Control	1.0	n/a	Yes	2.583	n/a	n/a	GoodResponse	0	n/a	n/a	0	2	Blank	Neutral	True
34.566	1.45	Control	1.0	n/a	Yes	2.583	n/a	5.0	GoodResponse	0	0.044	33.61	0	2	Feedback	Neutral	True
36.02	2.583	Control	1.0	n/a	Yes	2.583	n/a	n/a	GoodResponse	0	0.0	n/a	0	2	ISIslide	Neutral	True
38.628	0.25	Win2	1.0	0.0	Yes	2.822	0.028	n/a	GoodResponse	1	n/a	n/a	1	3	Cue	Win	True
38.879	3.95	Win2	1.0	0.0	Yes	2.822	0.001	n/a	GoodResponse	1	n/a	n/a	1	3	Fixation	Win	True
42.824	0.37	Win2	1.0	0.004	Yes	2.822	-0.004	4.0	GoodResponse	1	0.208	42.032	1	3	Target	Win	True
43.032	0.3	Win2	1.0	0.004	Yes	2.822	-0.004	4.0	GoodResponse	1	0.208	n/a	1	3	ButtonPress	Win	True
43.209	0.33	Win2	1.0	n/a	Yes	2.822	n/a	n/a	GoodResponse	1	n/a	n/a	1	3	Blank	Win	True
43.526	1.45	Win2	1.0	n/a	Yes	2.822	n/a	5.0	GoodResponse	1	0.011	42.537	1	3	Feedback	Win	True
44.98	2.822	Win2	1.0	n/a	Yes	2.822	n/a	4.0	GoodResponse	1	0.63	n/a	1	3	ISIslide	Win	True
47.806	0.25	Win2	1.0	0.0	Yes	3.294	0.006	n/a	GoodResponse	1	n/a	n/a	2	4	Cue	Win	True
48.056	4.0	Win2	1.0	0.0	Yes	3.294	0.0	n/a	GoodResponse	1	n/a	n/a	2	4	Fixation	Win	True
52.052	0.36	Win2	1.0	0.004	Yes	3.294	-0.004	4.0	GoodResponse	1	0.228	51.28	2	4	Target	Win	True
52.28	0.3	Win2	1.0	0.004	Yes	3.294	-0.004	4.0	GoodResponse	1	0.228	n/a	2	4	ButtonPress	Win	True
52.419	0.34	Win2	1.0	n/a	Yes	3.294	n/a	n/a	GoodResponse	1	n/a	n/a	2	4	Blank	Win	True
52.754	1.45	Win2	1.0	n/a	Yes	3.294	n/a	5.0	GoodResponse	1	0.002	51.756	2	4	Feedback	Win	True
54.208	3.294	Win2	1.0	n/a	Yes	3.294	n/a	n/a	GoodResponse	1	0.0	n/a	2	4	ISIslide	Win	True
57.518	0.25	Win2	0.8332999999999999	0.0	No	2.782	0.018	n/a	LatePress	0	n/a	n/a	2	5	Cue	MissedWin	True
57.769	4.0	Win2	0.8332999999999999	0.0	No	2.782	0.001	n/a	LatePress	0	n/a	n/a	2	5	Fixation	MissedWin	True
61.764	0.35	Win2	0.8332999999999999	0.004	No	2.782	-0.004	4.0	LatePress	0	0.352	61.116	2	5	Target	MissedWin	True
62.115	0.35	Win2	0.8332999999999999	n/a	No	2.782	n/a	n/a	LatePress	0	n/a	n/a	2	5	Blank	MissedWin	True
62.116	0.3	Win2	0.8332999999999999	0.004	No	2.782	-0.004	4.0	LatePress	0	0.352	n/a	2	5	ButtonPress	MissedWin	True
62.466	1.45	Win2	0.8332999999999999	n/a	No	2.782	n/a	5.0	LatePress	0	0.046	61.512	2	5	Feedback	MissedWin	True
63.921	2.782	Win2	0.8332999999999999	n/a	No	2.782	n/a	n/a	LatePress	0	0.0	n/a	2	5	ISIslide	MissedWin	True
66.729	0.25	Lose2	0.8571	0.0	Yes	2.721	0.029	n/a	GoodResponse	0	n/a	n/a	2	6	Cue	AvoidedLoss	True
66.98	3.95	Lose2	0.8571	0.0	Yes	2.721	0.001	n/a	GoodResponse	0	n/a	n/a	2	6	Fixation	AvoidedLoss	True
70.925	0.34	Lose2	0.8571	0.004	Yes	2.721	-0.004	4.0	GoodResponse	0	0.211	70.136	2	6	Target	AvoidedLoss	True
71.136	0.3	Lose2	0.8571	0.004	Yes	2.721	-0.004	4.0	GoodResponse	0	0.211	n/a	2	6	ButtonPress	AvoidedLoss	True
71.276	0.36	Lose2	0.8571	n/a	Yes	2.721	n/a	n/a	GoodResponse	0	n/a	n/a	2	6	Blank	AvoidedLoss	True
71.627	1.45	Lose2	0.8571	n/a	Yes	2.721	n/a	5.0	GoodResponse	0	0.007	70.634	2	6	Feedback	AvoidedLoss	True
73.081	2.721	Lose2	0.8571	n/a	Yes	2.721	n/a	n/a	GoodResponse	0	0.0	n/a	2	6	ISIslide	AvoidedLoss	True
75.823	0.25	Lose2	0.875	0.0	Yes	4.027	0.023	n/a	GoodResponse	0	n/a	n/a	2	7	Cue	AvoidedLoss	True
76.074	4.05	Lose2	0.875	0.0	Yes	4.027	0.001	n/a	GoodResponse	0	n/a	n/a	2	7	Fixation	AvoidedLoss	True
80.119	0.33	Lose2	0.875	0.004	Yes	4.027	-0.004	4.0	GoodResponse	0	0.237	79.356	2	7	Target	AvoidedLoss	True
80.356	0.3	Lose2	0.875	0.004	Yes	4.027	-0.004	4.0	GoodResponse	0	0.237	n/a	2	7	ButtonPress	AvoidedLoss	True
80.453	0.37	Lose2	0.875	n/a	Yes	4.027	n/a	n/a	GoodResponse	0	n/a	n/a	2	7	Blank	AvoidedLoss	True
80.821	1.45	Lose2	0.875	n/a	Yes	4.027	n/a	5.0	GoodResponse	0	0.032	79.853	2	7	Feedback	AvoidedLoss	True
82.276	4.027	Lose2	0.875	n/a	Yes	4.027	n/a	n/a	GoodResponse	0	0.0	n/a	2	7	ISIslide	AvoidedLoss	True
86.321	0.25	Lose2	0.8889	0.0	Yes	3.029	0.021	n/a	GoodResponse	0	n/a	n/a	2	8	Cue	AvoidedLoss	True
86.572	3.95	Lose2	0.8889	0.0	Yes	3.029	0.001	n/a	GoodResponse	0	n/a	n/a	2	8	Fixation	AvoidedLoss	True
90.517	0.32	Lose2	0.8889	0.004	Yes	3.029	-0.004	4.0	GoodResponse	0	0.206	89.723	2	8	Target	AvoidedLoss	True
90.723	0.3	Lose2	0.8889	0.004	Yes	3.029	-0.004	4.0	GoodResponse	0	0.206	n/a	2	8	ButtonPress	AvoidedLoss	True
90.851	0.38	Lose2	0.8889	n/a	Yes	3.029	n/a	n/a	GoodResponse	0	n/a	n/a	2	8	Blank	AvoidedLoss	True
91.219	1.45	Lose2	0.8889	n/a	Yes	3.029	n/a	5.0	GoodResponse	0	0.025	90.244	2	8	Feedback	AvoidedLoss	True
92.673	3.029	Lose2	0.8889	n/a	Yes	3.029	n/a	n/a	GoodResponse	0	0.0	n/a	2	8	ISIslide	AvoidedLoss	True
95.716	0.25	Lose2	0.9	0.0	Yes	3.134	0.016	n/a	GoodResponse	0	n/a	n/a	2	9	Cue	AvoidedLoss	True
95.967	3.95	Lose2	0.9	0.0	Yes	3.134	0.001	n/a	GoodResponse	0	n/a	n/a	2	9	Fixation	AvoidedLoss	True
99.912	0.31	Lose2	0.9	0.004	Yes	3.134	-0.004	4.0	GoodResponse	0	0.258	99.17	2	9	Target	AvoidedLoss	True
100.17	0.3	Lose2	0.9	0.004	Yes	3.134	-0.004	4.0	GoodResponse	0	0.258	n/a	2	9	ButtonPress	AvoidedLoss	True
100.229	0.39	Lose2	0.9	n/a	Yes	3.134	n/a	n/a	GoodResponse	0	n/a	n/a	2	9	Blank	AvoidedLoss	True
100.614	1.45	Lose2	0.9	n/a	Yes	3.134	n/a	5.0	GoodResponse	0	0.044	99.658	2	9	Feedback	AvoidedLoss	True
102.068	3.134	Lose2	0.9	n/a	Yes	3.134	n/a	n/a	GoodResponse	0	0.0	n/a	2	9	ISIslide	AvoidedLoss	True
105.228	0.25	Control	0.9091	0.0	Yes	3.272	0.028	n/a	GoodResponse	0	n/a	n/a	2	10	Cue	Neutral	True
105.478	4.0	Control	0.9091	0.001	Yes	3.272	0.0	n/a	GoodResponse	0	n/a	n/a	2	10	Fixation	Neutral	True
109.474	0.3	Control	0.9091	0.004	Yes	3.272	-0.004	4.0	GoodResponse	0	0.191	108.665	2	10	Target	Neutral	True
109.665	0.3	Control	0.9091	0.004	Yes	3.272	-0.004	4.0	GoodResponse	0	0.191	n/a	2	10	ButtonPress	Neutral	True
109.775	0.4	Control	0.9091	n/a	Yes	3.272	n/a	n/a	GoodResponse	0	n/a	n/a	2	10	Blank	Neutral	True
110.176	1.45	Control	0.9091	n/a	Yes	3.272	n/a	5.0	GoodResponse	0	0.043	109.219	2	10	Feedback	Neutral	True
111.63	3.272	Control	0.9091	n/a	Yes	3.272	n/a	n/a	GoodResponse	0	0.0	n/a	2	10	ISIslide	Neutral	True
114.923	0.25	Lose2	0.9167000000000001	0.001	Yes	2.727	0.023	n/a	GoodResponse	0	n/a	n/a	2	11	Cue	AvoidedLoss	True
115.174	4.05	Lose2	0.9167000000000001	0.0	Yes	2.727	0.001	n/a	GoodResponse	0	n/a	n/a	2	11	Fixation	AvoidedLoss	True
119.22	0.29	Lose2	0.9167000000000001	0.003	Yes	2.727	-0.003	4.0	GoodResponse	0	0.177	118.397	2	11	Target	AvoidedLoss	True
119.397	0.3	Lose2	0.9167000000000001	0.003	Yes	2.727	-0.003	4.0	GoodResponse	0	0.177	n/a	2	11	ButtonPress	AvoidedLoss	True
119.521	0.41	Lose2	0.9167000000000001	n/a	Yes	2.727	n/a	n/a	GoodResponse	0	n/a	n/a	2	11	Blank	AvoidedLoss	True
119.922	1.45	Lose2	0.9167000000000001	n/a	Yes	2.727	n/a	5.0	GoodResponse	0	0.004	118.926	2	11	Feedback	AvoidedLoss	True
121.376	2.727	Lose2	0.9167000000000001	n/a	Yes	2.727	n/a	n/a	GoodResponse	0	0.0	n/a	2	11	ISIslide	AvoidedLoss	True
124.118	0.25	Control	0.9231	0.0	Yes	2.982	0.018	n/a	GoodResponse	0	n/a	n/a	2	12	Cue	Neutral	True
124.368	3.9	Control	0.9231	0.0	Yes	2.982	0.0	n/a	GoodResponse	0	n/a	n/a	2	12	Fixation	Neutral	True
128.28	0.28	Control	0.9231	0.0	Yes	2.982	0.012	4.0	GoodResponse	0	0.217	127.497	2	12	Target	Neutral	True
128.497	0.3	Control	0.9231	0.0	Yes	2.982	0.012	4.0	GoodResponse	0	0.217	n/a	2	12	ButtonPress	Neutral	True
128.548	0.42	Control	0.9231	n/a	Yes	2.982	n/a	n/a	GoodResponse	0	n/a	n/a	2	12	Blank	Neutral	True
128.965	1.45	Control	0.9231	n/a	Yes	2.982	n/a	5.0	GoodResponse	0	0.034	127.999	2	12	Feedback	Neutral	True
130.42	2.982	Control	0.9231	n/a	Yes	2.982	n/a	n/a	GoodResponse	0	0.0	n/a	2	12	ISIslide	Neutral	True
133.429	0.25	Control	0.9286	0.0	Yes	2.771	0.029	n/a	GoodResponse	0	n/a	n/a	2	13	Cue	Neutral	False
133.68	4.0	Control	0.9286	0.0	Yes	2.771	0.001	4.0	GoodResponse	0	2.848	135.528	2	13	Fixation	Neutral	False
136.528	0.3	Control	0.9286	0.0	Yes	2.771	0.001	4.0	GoodResponse	0	2.848	n/a	2	13	ButtonPress	Neutral	False
137.675	0.27	Control	0.9286	0.004	Yes	2.771	-0.004	4.0	GoodResponse	0	0.266	136.941	2	13	Target	Neutral	False
137.941	0.3	Control	0.9286	0.004	Yes	2.771	-0.004	4.0	GoodResponse	0	0.266	n/a	2	13	ButtonPress	Neutral	False
137.959	0.43	Control	0.9286	n/a	Yes	2.771	n/a	n/a	GoodResponse	0	n/a	n/a	2	13	Blank	Neutral	False
138.377	1.45	Control	0.9286	n/a	Yes	2.771	n/a	5.0	GoodResponse	0	0.037	137.414	2	13	Feedback	Neutral	False
139.831	2.771	Control	0.9286	n/a	Yes	2.771	n/a	n/a	GoodResponse	0	0.0	n/a	2	13	ISIslide	Neutral	False
142.623	0.25	Win2	0.9333	0.0	Yes	2.677	0.023	n/a	GoodResponse	1	n/a	n/a	3	14	Cue	Win	True
142.874	4.1	Win2	0.9333	0.0	Yes	2.677	0.001	n/a	GoodResponse	1	n/a	n/a	3	14	Fixation	Win	True
146.969	0.26	Win2	0.9333	0.004	Yes	2.677	-0.004	4.0	GoodResponse	1	0.247	146.216	3	14	Target	Win	True
147.216	0.3	Win2	0.9333	0.004	Yes	2.677	-0.004	4.0	GoodResponse	1	0.247	n/a	3	14	ButtonPress	Win	True
147.237	0.44	Win2	0.9333	n/a	Yes	2.677	n/a	n/a	GoodResponse	1	n/a	n/a	3	14	Blank	Win	True
147.672	1.45	Win2	0.9333	n/a	Yes	2.677	n/a	5.0	GoodResponse	1	0.01	146.682	3	14	Feedback	Win	True
149.126	2.677	Win2	0.9333	n/a	Yes	2.677	n/a	n/a	GoodResponse	1	0.0	n/a	3	14	ISIslide	Win	True
151.817	0.25	Control	0.875	0.0	No	2.983	0.017	n/a	NoResponse	0	n/a	n/a	3	15	Cue	Neutral	True
152.068	4.0	Control	0.875	0.0	No	2.983	0.001	n/a	NoResponse	0	n/a	n/a	3	15	Fixation	Neutral	True
156.063	0.25	Control	0.875	0.004	No	2.983	-0.004	4.0	NoResponse	0	0.281	155.344	3	15	Target	Neutral	True
156.314	0.45	Control	0.875	n/a	No	2.983	n/a	n/a	NoResponse	0	n/a	n/a	3	15	Blank	Neutral	True
156.344	0.3	Control	0.875	0.004	No	2.983	-0.004	4.0	NoResponse	0	0.281	n/a	3	15	ButtonPress	Neutral	True
156.765	1.45	Control	0.875	n/a	No	2.983	n/a	5.0	NoResponse	0	0.039	155.804	3	15	Feedback	Neutral	True
158.22	2.983	Control	0.875	n/a	No	2.983	n/a	n/a	NoResponse	0	0.0	n/a	3	15	ISIslide	Neutral	True
161.229	0.25	Win2	0.8824	0.0	Yes	2.871	0.029	n/a	GoodResponse	1	n/a	n/a	4	16	Cue	Win	True
161.48	4.0	Win2	0.8824	0.0	Yes	2.871	0.001	n/a	GoodResponse	1	n/a	n/a	4	16	Fixation	Win	True
165.475	0.24	Win2	0.8824	0.004	Yes	2.871	-0.004	4.0	GoodResponse	1	0.199	164.674	4	16	Target	Win	True
165.674	0.3	Win2	0.8824	0.004	Yes	2.871	-0.004	4.0	GoodResponse	1	0.199	n/a	4	16	ButtonPress	Win	True
165.726	0.46	Win2	0.8824	n/a	Yes	2.871	n/a	n/a	GoodResponse	1	n/a	n/a	4	16	Blank	Win	True
166.177	1.45	Win2	0.8824	n/a	Yes	2.871	n/a	5.0	GoodResponse	1	0.042	165.219	4	16	Feedback	Win	True
167.631	2.871	Win2	0.8824	n/a	Yes	2.871	n/a	n/a	GoodResponse	1	0.0	n/a	4	16	ISIslide	Win	True
170.523	0.25	Lose2	0.8889	0.0	Yes	2.727	0.023	n/a	GoodResponse	0	n/a	n/a	4	17	Cue	AvoidedLoss	True
170.774	3.95	Lose2	0.8889	0.0	Yes	2.727	0.001	n/a	GoodResponse	0	n/a	n/a	4	17	Fixation	AvoidedLoss	True
174.719	0.23	Lose2	0.8889	0.004	Yes	2.727	-0.004	4.0	GoodResponse	0	0.217	173.936	4	17	Target	AvoidedLoss	True
174.936	0.3	Lose2	0.8889	0.004	Yes	2.727	-0.004	4.0	GoodResponse	0	0.217	n/a	4	17	ButtonPress	AvoidedLoss	True
174.953	0.47	Lose2	0.8889	n/a	Yes	2.727	n/a	n/a	GoodResponse	0	n/a	n/a	4	17	Blank	AvoidedLoss	True
175.421	1.45	Lose2	0.8889	n/a	Yes	2.727	n/a	5.0	GoodResponse	0	0.017	174.438	4	17	Feedback	AvoidedLoss	True
176.876	2.727	Lose2	0.8889	n/a	Yes	2.727	n/a	n/a	GoodResponse	0	0.0	n/a	4	17	ISIslide	AvoidedLoss	True
179.617	0.25	Lose2	0.8946999999999999	0.0	Yes	2.733	0.017	n/a	GoodResponse	0	n/a	n/a	4	18	Cue	AvoidedLoss	True
179.868	4.05	Lose2	0.8946999999999999	0.0	Yes	2.733	0.001	n/a	GoodResponse	0	n/a	n/a	4	18	Fixation	AvoidedLoss	True
183.913	0.22	Lose2	0.8946999999999999	0.004	Yes	2.733	-0.004	4.0	GoodResponse	0	0.218	183.131	4	18	Target	AvoidedLoss	True
184.131	0.3	Lose2	0.8946999999999999	0.004	Yes	2.733	-0.004	4.0	GoodResponse	0	0.218	n/a	4	18	ButtonPress	AvoidedLoss	True
184.147	0.48	Lose2	0.8946999999999999	n/a	Yes	2.733	n/a	n/a	GoodResponse	0	n/a	n/a	4	18	Blank	AvoidedLoss	True
184.616	1.45	Lose2	0.8946999999999999	n/a	Yes	2.733	n/a	5.0	GoodResponse	0	0.041	183.657	4	18	Feedback	AvoidedLoss	True
186.07	2.733	Lose2	0.8946999999999999	n/a	Yes	2.733	n/a	n/a	GoodResponse	0	0.0	n/a	4	18	ISIslide	AvoidedLoss	True
188.828	0.25	Control	0.85	0.0	No	2.922	0.028	n/a	NoResponse	0	n/a	n/a	4	19	Cue	Neutral	True
189.079	3.95	Control	0.85	0.0	No	2.922	0.001	n/a	NoResponse	0	n/a	n/a	4	19	Fixation	Neutral	True
193.024	0.21	Control	0.85	0.004	No	2.922	-0.004	4.0	NoResponse	0	0.468	192.492	4	19	Target	Neutral	True
193.241	0.49	Control	0.85	n/a	No	2.922	n/a	n/a	NoResponse	0	n/a	n/a	4	19	Blank	Neutral	True
193.492	0.3	Control	0.85	0.004	No	2.922	-0.004	4.0	NoResponse	0	0.468	n/a	4	19	ButtonPress	Neutral	True
193.726	1.45	Control	0.85	n/a	No	2.922	n/a	5.0	NoResponse	0	0.005	192.731	4	19	Feedback	Neutral	True
195.181	2.922	Control	0.85	n/a	No	2.922	n/a	n/a	NoResponse	0	0.0	n/a	4	19	ISIslide	Neutral	True
198.123	0.25	Control	0.8095	0.0	No	2.627	0.023	n/a	NoResponse	0	n/a	n/a	4	20	Cue	Neutral	True
198.373	4.05	Control	0.8095	0.001	No	2.627	0.0	n/a	NoResponse	0	n/a	n/a	4	20	Fixation	Neutral	True
202.419	0.2	Control	0.8095	0.004	No	2.627	-0.004	4.0	NoResponse	0	0.226	201.645	4	20	Target	Neutral	True
202.62	0.5	Control	0.8095	n/a	No	2.627	n/a	n/a	NoResponse	0	n/a	n/a	4	20	Blank	Neutral	True
202.645	0.3	Control	0.8095	0.004	No	2.627	-0.004	4.0	NoResponse	0	0.226	n/a	4	20	ButtonPress	Neutral	True
203.121	1.45	Control	0.8095	n/a	No	2.627	n/a	5.0	NoResponse	0	0.024	202.145	4	20	Feedback	Neutral	True
204.575	2.627	Control	0.8095	n/a	No	2.627	n/a	n/a	NoResponse	0	0.0	n/a	4	20	ISIslide	Neutral	True
207.217	0.25	Control	0.7726999999999999	0.0	No	2.783	0.017	4.0	LatePress	0	0.122	206.339	4	21	Cue	Neutral	False
207.339	0.3	Control	0.7726999999999999	0.0	No	2.783	0.017	4.0	LatePress	0	0.122	n/a	4	21	ButtonPress	Neutral	False
207.467	4.1	Control	0.7726999999999999	0.0	No	2.783	0.0	n/a	LatePress	0	n/a	n/a	4	21	Fixation	Neutral	False
211.563	0.19	Control	0.7726999999999999	0.004	No	2.783	-0.004	4.0	LatePress	0	0.199	210.762	4	21	Target	Neutral	False
211.762	0.3	Control	0.7726999999999999	0.004	No	2.783	-0.004	4.0	LatePress	0	0.199	n/a	4	21	ButtonPress	Neutral	False
211.764	0.51	Control	0.7726999999999999	n/a	No	2.783	n/a	n/a	LatePress	0	n/a	n/a	4	21	Blank	Neutral	False
212.265	1.45	Control	0.7726999999999999	n/a	No	2.783	n/a	5.0	LatePress	0	0.002	211.267	4	21	Feedback	Neutral	False
213.719	2.783	Control	0.7726999999999999	n/a	No	2.783	n/a	n/a	LatePress	0	0.0	n/a	4	21	ISIslide	Neutral	False
216.528	0.25	Control	0.7391	0.0	No	2.772	0.028	n/a	NoResponse	0	n/a	n/a	4	22	Cue	Neutral	True
216.779	4.0	Control	0.7391	0.0	No	2.772	0.001	n/a	NoResponse	0	n/a	n/a	4	22	Fixation	Neutral	True
220.774	0.18	Control	0.7391	0.004	No	2.772	-0.004	4.0	NoResponse	0	0.217	219.991	4	22	Target	Neutral	True
220.958	0.52	Control	0.7391	n/a	No	2.772	n/a	n/a	NoResponse	0	n/a	n/a	4	22	Blank	Neutral	True
220.991	0.3	Control	0.7391	0.004	No	2.772	-0.004	4.0	NoResponse	0	0.217	n/a	4	22	ButtonPress	Neutral	True
221.476	1.45	Control	0.7391	n/a	No	2.772	n/a	5.0	NoResponse	0	0.011	220.487	4	22	Feedback	Neutral	True
222.93	2.772	Control	0.7391	n/a	No	2.772	n/a	n/a	NoResponse	0	0.0	n/a	4	22	ISIslide	Neutral	True
225.722	0.25	Control	0.7082999999999999	0.0	No	2.778	0.022	n/a	NoResponse	0	n/a	n/a	4	23	Cue	Neutral	True
225.973	3.9	Control	0.7082999999999999	0.0	No	2.778	0.001	n/a	NoResponse	0	n/a	n/a	4	23	Fixation	Neutral	True
229.868	0.17	Control	0.7082999999999999	0.004	No	2.778	-0.004	4.0	NoResponse	0	0.207	229.075	4	23	Target	Neutral	True
230.052	0.53	Control	0.7082999999999999	n/a	No	2.778	n/a	n/a	NoResponse	0	n/a	n/a	4	23	Blank	Neutral	True
230.075	0.3	Control	0.7082999999999999	0.004	No	2.778	-0.004	4.0	NoResponse	0	0.207	n/a	4	23	ButtonPress	Neutral	True
230.57	1.45	Control	0.7082999999999999	n/a	No	2.778	n/a	5.0	NoResponse	0	0.039	229.609	4	23	Feedback	Neutral	True
232.024	2.778	Control	0.7082999999999999	n/a	No	2.778	n/a	n/a	NoResponse	0	0.0	n/a	4	23	ISIslide	Neutral	True
234.816	0.25	Win2	0.68	0.0	No	3.134	0.016	n/a	NoResponse	0	n/a	n/a	4	24	Cue	MissedWin	True
235.067	3.95	Win2	0.68	0.0	No	3.134	0.001	n/a	NoResponse	0	n/a	n/a	4	24	Fixation	MissedWin	True
239.012	0.16	Win2	0.68	0.004	No	3.134	-0.004	4.0	NoResponse	0	0.202	238.214	4	24	Target	MissedWin	True
239.179	0.54	Win2	0.68	n/a	No	3.134	n/a	n/a	NoResponse	0	n/a	n/a	4	24	Blank	MissedWin	True
239.214	0.3	Win2	0.68	0.004	No	3.134	-0.004	4.0	NoResponse	0	0.202	n/a	4	24	ButtonPress	MissedWin	True
239.714	1.45	Win2	0.68	n/a	No	3.134	n/a	5.0	NoResponse	0	0.017	238.731	4	24	Feedback	MissedWin	True
241.168	3.134	Win2	0.68	n/a	No	3.134	n/a	n/a	NoResponse	0	0.0	n/a	4	24	ISIslide	MissedWin	True
244.328	0.25	Win2	0.6537999999999999	0.0	No	3.072	0.028	n/a	NoResponse	0	n/a	n/a	4	25	Cue	MissedWin	True
244.579	4.0	Win2	0.6537999999999999	0.0	No	3.072	0.001	n/a	NoResponse	0	n/a	n/a	4	25	Fixation	MissedWin	True
248.574	0.15	Win2	0.6537999999999999	0.004	No	3.072	-0.004	4.0	NoResponse	0	0.214	247.788	4	25	Target	MissedWin	True
248.724	0.55	Win2	0.6537999999999999	n/a	No	3.072	n/a	n/a	NoResponse	0	n/a	n/a	4	25	Blank	MissedWin	True
248.788	0.3	Win2	0.6537999999999999	0.004	No	3.072	-0.004	4.0	NoResponse	0	0.214	n/a	4	25	ButtonPress	MissedWin	True
249.276	1.45	Win2	0.6537999999999999	n/a	No	3.072	n/a	5.0	NoResponse	0	0.015	248.291	4	25	Feedback	MissedWin	True
250.73	3.072	Win2	0.6537999999999999	n/a	No	3.072	n/a	n/a	NoResponse	0	0.0	n/a	4	25	ISIslide	MissedWin	True
253.823	0.25	Win2	0.6296	0.0	No	2.927	0.023	n/a	NoResponse	0	n/a	n/a	4	26	Cue	MissedWin	True
254.074	3.95	Win2	0.6296	0.0	No	2.927	0.001	n/a	NoResponse	0	n/a	n/a	4	26	Fixation	MissedWin	True
258.019	0.16	Win2	0.6296	0.004	No	2.927	-0.004	4.0	NoResponse	0	0.241	257.26	4	26	Target	MissedWin	True
258.186	0.54	Win2	0.6296	n/a	No	2.927	n/a	n/a	NoResponse	0	n/a	n/a	4	26	Blank	MissedWin	True
258.26	0.3	Win2	0.6296	0.004	No	2.927	-0.004	4.0	NoResponse	0	0.241	n/a	4	26	ButtonPress	MissedWin	True
258.721	1.45	Win2	0.6296	n/a	No	2.927	n/a	5.0	NoResponse	0	0.034	257.755	4	26	Feedback	MissedWin	True
260.175	2.927	Win2	0.6296	n/a	No	2.927	n/a	n/a	NoResponse	0	0.0	n/a	4	26	ISIslide	MissedWin	True
263.117	0.25	Lose2	0.6071	0.001	No	2.833	0.017	n/a	NoResponse	-1	n/a	n/a	3	27	Cue	Loss	True
263.368	4.05	Lose2	0.6071	0.0	No	2.833	0.001	n/a	NoResponse	-1	n/a	n/a	3	27	Fixation	Loss	True
267.414	0.17	Lose2	0.6071	0.003	No	2.833	-0.003	4.0	NoResponse	-1	0.255	266.669	3	27	Target	Loss	True
267.598	0.53	Lose2	0.6071	n/a	No	2.833	n/a	n/a	NoResponse	-1	n/a	n/a	3	27	Blank	Loss	True
267.669	0.3	Lose2	0.6071	0.003	No	2.833	-0.003	4.0	NoResponse	-1	0.255	n/a	3	27	ButtonPress	Loss	True
268.116	1.45	Lose2	0.6071	n/a	No	2.833	n/a	5.0	NoResponse	-1	0.005	267.121	3	27	Feedback	Loss	True
269.57	2.833	Lose2	0.6071	n/a	No	2.833	n/a	n/a	NoResponse	-1	0.0	n/a	3	27	ISIslide	Loss	True
272.429	0.25	Control	0.5861999999999999	0.0	No	2.821	0.029	n/a	NoResponse	0	n/a	n/a	3	28	Cue	Neutral	False
272.679	4.05	Control	0.5861999999999999	0.001	No	2.821	0.0	4.0	NoResponse	0	3.607	275.286	3	28	Fixation	Neutral	False
276.286	0.3	Control	0.5861999999999999	0.001	No	2.821	0.0	4.0	NoResponse	0	3.607	n/a	3	28	ButtonPress	Neutral	False
276.725	0.18	Control	0.5861999999999999	0.004	No	2.821	-0.004	4.0	NoResponse	0	0.248	275.973	3	28	Target	Neutral	False
276.909	0.52	Control	0.5861999999999999	n/a	No	2.821	n/a	n/a	NoResponse	0	n/a	n/a	3	28	Blank	Neutral	False
276.973	0.3	Control	0.5861999999999999	0.004	No	2.821	-0.004	4.0	NoResponse	0	0.248	n/a	3	28	ButtonPress	Neutral	False
277.427	1.45	Control	0.5861999999999999	n/a	No	2.821	n/a	5.0	NoResponse	0	0.011	276.438	3	28	Feedback	Neutral	False
278.881	2.821	Control	0.5861999999999999	n/a	No	2.821	n/a	n/a	NoResponse	0	0.0	n/a	3	28	ISIslide	Neutral	False
281.723	0.25	Lose2	0.5667	0.0	No	2.827	0.023	n/a	NoResponse	-1	n/a	n/a	2	29	Cue	Loss	False
281.974	3.95	Lose2	0.5667	0.0	No	2.827	0.001	n/a	NoResponse	-1	n/a	n/a	2	29	Fixation	Loss	False
285.919	0.19	Lose2	0.5667	0.004	No	2.827	-0.004	n/a	NoResponse	-1	n/a	n/a	2	29	Target	Loss	False
286.12	0.51	Lose2	0.5667	n/a	No	2.827	n/a	n/a	NoResponse	-1	n/a	n/a	2	29	Blank	Loss	False
286.621	1.45	Lose2	0.5667	n/a	No	2.827	n/a	5.0	NoResponse	-1	0.036	285.657	2	29	Feedback	Loss	False
288.076	2.827	Lose2	0.5667	n/a	No	2.827	n/a	4.0	NoResponse	-1	1.163	n/a	2	29	ISIslide	Loss	False
290.901	0.25	Win2	0.5484	0.0	No	2.799	0.001	n/a	NoResponse	0	n/a	n/a	2	30	Cue	MissedWin	True
291.151	3.9	Win2	0.5484	0.001	No	2.799	0.0	n/a	NoResponse	0	n/a	n/a	2	30	Fixation	MissedWin	True
295.063	0.2	Win2	0.5484	0.0	No	2.799	0.012	4.0	NoResponse	0	0.197	294.26	2	30	Target	MissedWin	True
295.247	0.5	Win2	0.5484	n/a	No	2.799	n/a	n/a	NoResponse	0	n/a	n/a	2	30	Blank	MissedWin	True
295.26	0.3	Win2	0.5484	0.0	No	2.799	0.012	4.0	NoResponse	0	0.197	n/a	2	30	ButtonPress	MissedWin	True
295.749	1.45	Win2	0.5484	n/a	No	2.799	n/a	5.0	NoResponse	0	0.029	294.778	2	30	Feedback	MissedWin	True
297.203	2.799	Win2	0.5484	n/a	No	2.799	n/a	n/a	NoResponse	0	0.0	n/a	2	30	ISIslide	MissedWin	True
300.028	0.25	Lose2	0.5312	0.0	No	2.822	0.028	n/a	NoResponse	-1	n/a	n/a	1	31	Cue	Loss	True
300.279	4.05	Lose2	0.5312	0.0	No	2.822	0.001	n/a	NoResponse	-1	n/a	n/a	1	31	Fixation	Loss	True
304.324	0.21	Lose2	0.5312	0.004	No	2.822	-0.004	4.0	NoResponse	-1	0.223	303.547	1	31	Target	Loss	True
304.542	0.49	Lose2	0.5312	n/a	No	2.822	n/a	n/a	NoResponse	-1	n/a	n/a	1	31	Blank	Loss	True
304.547	0.3	Lose2	0.5312	0.004	No	2.822	-0.004	4.0	NoResponse	-1	0.223	n/a	1	31	ButtonPress	Loss	True
305.026	1.45	Lose2	0.5312	n/a	No	2.822	n/a	5.0	NoResponse	-1	0.021	304.047	1	31	Feedback	Loss	True
306.481	2.822	Lose2	0.5312	n/a	No	2.822	n/a	n/a	NoResponse	-1	0.0	n/a	1	31	ISIslide	Loss	True
309.323	0.25	Lose2	0.5152	0.0	No	2.627	0.023	n/a	LatePress	-1	n/a	n/a	0	32	Cue	Loss	False
309.573	4.15	Lose2	0.5152	0.0	No	2.627	0.0	4.0	LatePress	-1	3.397	311.97	0	32	Fixation	Loss	False
312.97	0.3	Lose2	0.5152	0.0	No	2.627	0.0	4.0	LatePress	-1	3.397	n/a	0	32	ButtonPress	Loss	False
313.719	0.22	Lose2	0.5152	0.004	No	2.627	-0.004	4.0	LatePress	-1	0.233	312.952	0	32	Target	Loss	False
313.952	0.3	Lose2	0.5152	0.004	No	2.627	-0.004	4.0	LatePress	-1	0.233	n/a	0	32	ButtonPress	Loss	False
313.953	0.48	Lose2	0.5152	n/a	No	2.627	n/a	n/a	LatePress	-1	n/a	n/a	0	32	Blank	Loss	False
314.421	1.45	Lose2	0.5152	n/a	No	2.627	n/a	5.0	LatePress	-1	0.04	313.461	0	32	Feedback	Loss	False
315.876	2.627	Lose2	0.5152	n/a	No	2.627	n/a	n/a	LatePress	-1	0.0	n/a	0	32	ISIslide	Loss	False
318.517	0.25	Win2	0.5294	0.0	Yes	2.683	0.017	n/a	GoodResponse	1	n/a	n/a	1	33	Cue	Win	True
318.768	4.0	Win2	0.5294	0.0	Yes	2.683	0.001	n/a	GoodResponse	1	n/a	n/a	1	33	Fixation	Win	True
322.763	0.23	Win2	0.5294	0.004	Yes	2.683	-0.004	4.0	GoodResponse	1	0.22	321.983	1	33	Target	Win	True
322.983	0.3	Win2	0.5294	0.004	Yes	2.683	-0.004	4.0	GoodResponse	1	0.22	n/a	1	33	ButtonPress	Win	True
322.997	0.47	Win2	0.5294	n/a	Yes	2.683	n/a	n/a	GoodResponse	1	n/a	n/a	1	33	Blank	Win	True
323.465	1.45	Win2	0.5294	n/a	Yes	2.683	n/a	5.0	GoodResponse	1	0.021	322.486	1	33	Feedback	Win	True
324.919	2.683	Win2	0.5294	n/a	Yes	2.683	n/a	n/a	GoodResponse	1	0.0	n/a	1	33	ISIslide	Win	True
327.627	0.25	Lose2	0.5428999999999999	0.0	Yes	2.623	0.027	n/a	GoodResponse	0	n/a	n/a	1	34	Cue	AvoidedLoss	True
327.878	4.05	Lose2	0.5428999999999999	0.0	Yes	2.623	0.001	n/a	GoodResponse	0	n/a	n/a	1	34	Fixation	AvoidedLoss	True
331.924	0.24	Lose2	0.5428999999999999	0.003	Yes	2.623	-0.003	4.0	GoodResponse	0	0.18	331.104	1	34	Target	AvoidedLoss	True
332.104	0.3	Lose2	0.5428999999999999	0.003	Yes	2.623	-0.003	4.0	GoodResponse	0	0.18	n/a	1	34	ButtonPress	AvoidedLoss	True
332.174	0.46	Lose2	0.5428999999999999	n/a	Yes	2.623	n/a	n/a	GoodResponse	0	n/a	n/a	1	34	Blank	AvoidedLoss	True
332.626	1.45	Lose2	0.5428999999999999	n/a	Yes	2.623	n/a	5.0	GoodResponse	0	0.031	331.657	1	34	Feedback	AvoidedLoss	True
334.08	2.623	Lose2	0.5428999999999999	n/a	Yes	2.623	n/a	n/a	GoodResponse	0	0.0	n/a	1	34	ISIslide	AvoidedLoss	True
336.721	0.25	Lose2	0.5556	0.0	Yes	2.679	0.021	n/a	GoodResponse	0	n/a	n/a	1	35	Cue	AvoidedLoss	True
336.972	4.0	Lose2	0.5556	0.0	Yes	2.679	0.001	n/a	GoodResponse	0	n/a	n/a	1	35	Fixation	AvoidedLoss	True
340.967	0.25	Lose2	0.5556	0.004	Yes	2.679	-0.004	4.0	GoodResponse	0	0.203	340.17	1	35	Target	AvoidedLoss	True
341.17	0.3	Lose2	0.5556	0.004	Yes	2.679	-0.004	4.0	GoodResponse	0	0.203	n/a	1	35	ButtonPress	AvoidedLoss	True
341.218	0.45	Lose2	0.5556	n/a	Yes	2.679	n/a	n/a	GoodResponse	0	n/a	n/a	1	35	Blank	AvoidedLoss	True
341.669	1.45	Lose2	0.5556	n/a	Yes	2.679	n/a	5.0	GoodResponse	0	0.012	340.681	1	35	Feedback	AvoidedLoss	True
343.124	2.679	Lose2	0.5556	n/a	Yes	2.679	n/a	n/a	GoodResponse	0	0.0	n/a	1	35	ISIslide	AvoidedLoss	True
345.815	0.25	Control	0.5676	0.0	Yes	2.685	0.015	n/a	GoodResponse	0	n/a	n/a	1	36	Cue	Neutral	True
346.066	4.0	Control	0.5676	0.0	Yes	2.685	0.001	n/a	GoodResponse	0	n/a	n/a	1	36	Fixation	Neutral	True
350.061	0.26	Control	0.5676	0.004	Yes	2.685	-0.004	4.0	GoodResponse	0	0.226	349.287	1	36	Target	Neutral	True
350.287	0.3	Control	0.5676	0.004	Yes	2.685	-0.004	4.0	GoodResponse	0	0.226	n/a	1	36	ButtonPress	Neutral	True
350.329	0.44	Control	0.5676	n/a	Yes	2.685	n/a	n/a	GoodResponse	0	n/a	n/a	1	36	Blank	Neutral	True
350.763	1.45	Control	0.5676	n/a	Yes	2.685	n/a	5.0	GoodResponse	0	0.04	349.803	1	36	Feedback	Neutral	True
352.218	2.685	Control	0.5676	n/a	Yes	2.685	n/a	n/a	GoodResponse	0	0.0	n/a	1	36	ISIslide	Neutral	True
354.926	0.25	Win2	0.5789	0.0	Yes	2.874	0.026	n/a	GoodResponse	1	n/a	n/a	2	37	Cue	Win	True
355.177	4.0	Win2	0.5789	0.0	Yes	2.874	0.001	n/a	GoodResponse	1	n/a	n/a	2	37	Fixation	Win	True
359.172	0.27	Win2	0.5789	0.004	Yes	2.874	-0.004	4.0	GoodResponse	1	0.234	358.406	2	37	Target	Win	True
359.406	0.3	Win2	0.5789	0.004	Yes	2.874	-0.004	4.0	GoodResponse	1	0.234	n/a	2	37	ButtonPress	Win	True
359.456	0.43	Win2	0.5789	n/a	Yes	2.874	n/a	n/a	GoodResponse	1	n/a	n/a	2	37	Blank	Win	True
359.874	1.45	Win2	0.5789	n/a	Yes	2.874	n/a	5.0	GoodResponse	1	0.004	358.878	2	37	Feedback	Win	True
361.328	2.874	Win2	0.5789	n/a	Yes	2.874	n/a	n/a	GoodResponse	1	0.0	n/a	2	37	ISIslide	Win	True
364.22	0.25	Lose2	0.5897	0.001	Yes	2.83	0.02	n/a	GoodResponse	0	n/a	n/a	2	38	Cue	AvoidedLoss	False
364.471	3.95	Lose2	0.5897	0.0	Yes	2.83	0.001	4.0	GoodResponse	0	2.705	366.176	2	38	Fixation	AvoidedLoss	False
367.176	0.3	Lose2	0.5897	0.0	Yes	2.83	0.001	4.0	GoodResponse	0	2.705	n/a	2	38	ButtonPress	AvoidedLoss	False
368.416	0.28	Lose2	0.5897	0.004	Yes	2.83	-0.004	4.0	GoodResponse	0	0.195	367.611	2	38	Target	AvoidedLoss	False
368.611	0.3	Lose2	0.5897	0.004	Yes	2.83	-0.004	4.0	GoodResponse	0	0.195	n/a	2	38	ButtonPress	AvoidedLoss	False
368.7	0.42	Lose2	0.5897	n/a	Yes	2.83	n/a	n/a	GoodResponse	0	n/a	n/a	2	38	Blank	AvoidedLoss	False
369.118	1.45	Lose2	0.5897	n/a	Yes	2.83	n/a	5.0	GoodResponse	0	0.026	368.144	2	38	Feedback	AvoidedLoss	False
370.573	2.83	Lose2	0.5897	n/a	Yes	2.83	n/a	n/a	GoodResponse	0	0.0	n/a	2	38	ISIslide	AvoidedLoss	False
373.415	0.25	Win2	0.6	0.0	Yes	2.985	0.015	n/a	GoodResponse	1	n/a	n/a	3	39	Cue	Win	True
373.665	4.1	Win2	0.6	0.0	Yes	2.985	0.0	n/a	GoodResponse	1	n/a	n/a	3	39	Fixation	Win	True
377.761	0.29	Win2	0.6	0.004	Yes	2.985	-0.004	4.0	GoodResponse	1	0.208	376.969	3	39	Target	Win	True
377.969	0.3	Win2	0.6	0.004	Yes	2.985	-0.004	4.0	GoodResponse	1	0.208	n/a	3	39	ButtonPress	Win	True
378.062	0.41	Win2	0.6	n/a	Yes	2.985	n/a	n/a	GoodResponse	1	n/a	n/a	3	39	Blank	Win	True
378.463	1.45	Win2	0.6	n/a	Yes	2.985	n/a	5.0	GoodResponse	1	0.047	377.51	3	39	Feedback	Win	True
379.917	2.985	Win2	0.6	n/a	Yes	2.985	n/a	n/a	GoodResponse	1	0.0	n/a	3	39	ISIslide	Win	True
382.926	0.25	Win2	0.6098	0.001	Yes	2.724	0.026	n/a	GoodResponse	1	n/a	n/a	4	40	Cue	Win	False
383.177	3.95	Win2	0.6098	0.0	Yes	2.724	0.001	4.0	GoodResponse	1	3.243	385.42	4	40	Fixation	Win	False
386.42	0.3	Win2	0.6098	0.0	Yes	2.724	0.001	4.0	GoodResponse	1	3.243	n/a	4	40	ButtonPress	Win	False
387.122	0.3	Win2	0.6098	0.004	Yes	2.724	-0.004	4.0	GoodResponse	1	0.203	386.325	4	40	Target	Win	False
387.325	0.3	Win2	0.6098	0.004	Yes	2.724	-0.004	4.0	GoodResponse	1	0.203	n/a	4	40	ButtonPress	Win	False
387.423	0.4	Win2	0.6098	n/a	Yes	2.724	n/a	n/a	GoodResponse	1	n/a	n/a	4	40	Blank	Win	False
387.824	1.45	Win2	0.6098	n/a	Yes	2.724	n/a	5.0	GoodResponse	1	0.004	386.828	4	40	Feedback	Win	False
389.279	2.724	Win2	0.6098	n/a	Yes	2.724	n/a	n/a	GoodResponse	1	0.0	n/a	4	40	ISIslide	Win	False
392.02	0.25	Win2	0.619	0.0	Yes	2.78	0.02	n/a	GoodResponse	1	n/a	n/a	5	41	Cue	Win	True
392.271	3.9	Win2	0.619	0.0	Yes	2.78	0.001	n/a	GoodResponse	1	n/a	n/a	5	41	Fixation	Win	True
396.166	0.31	Win2	0.619	0.004	Yes	2.78	-0.004	4.0	GoodResponse	1	0.203	395.369	5	41	Target	Win	True
396.369	0.3	Win2	0.619	0.004	Yes	2.78	-0.004	4.0	GoodResponse	1	0.203	n/a	5	41	ButtonPress	Win	True
396.484	0.39	Win2	0.619	n/a	Yes	2.78	n/a	n/a	GoodResponse	1	n/a	n/a	5	41	Blank	Win	True
396.868	1.45	Win2	0.619	n/a	Yes	2.78	n/a	5.0	GoodResponse	1	0.032	395.9	5	41	Feedback	Win	True
398.323	2.78	Win2	0.619	n/a	Yes	2.78	n/a	n/a	GoodResponse	1	0.0	n/a	5	41	ISIslide	Win	True
401.114	0.25	Control	0.6279	0.0	Yes	2.936	0.014	n/a	GoodResponse	0	n/a	n/a	5	42	Cue	Neutral	True
401.365	3.85	Control	0.6279	0.0	Yes	2.936	0.001	n/a	GoodResponse	0	n/a	n/a	5	42	Fixation	Neutral	True
405.21	0.32	Control	0.6279	0.004	Yes	2.936	-0.004	4.0	GoodResponse	0	0.248	404.458	5	42	Target	Neutral	True
405.458	0.3	Control	0.6279	0.004	Yes	2.936	-0.004	4.0	GoodResponse	0	0.248	n/a	5	42	ButtonPress	Neutral	True
405.544	0.38	Control	0.6279	n/a	Yes	2.936	n/a	n/a	GoodResponse	0	n/a	n/a	5	42	Blank	Neutral	True
405.912	1.45	Control	0.6279	n/a	Yes	2.936	n/a	5.0	GoodResponse	0	0.013	404.925	5	42	Feedback	Neutral	True
407.366	2.936	Control	0.6279	n/a	Yes	2.936	n/a	n/a	GoodResponse	0	0.0	n/a	5	42	ISIslide	Neutral	True
410.325	0.25	Win2	0.6364	0.0	Yes	3.175	0.025	n/a	GoodResponse	1	n/a	n/a	6	43	Cue	Win	True
410.576	4.0	Win2	0.6364	0.0	Yes	3.175	0.001	n/a	GoodResponse	1	n/a	n/a	6	43	Fixation	Win	True
414.571	0.33	Win2	0.6364	0.004	Yes	3.175	-0.004	4.0	GoodResponse	1	0.203	413.774	6	43	Target	Win	True
414.774	0.3	Win2	0.6364	0.004	Yes	3.175	-0.004	4.0	GoodResponse	1	0.203	n/a	6	43	ButtonPress	Win	True
414.906	0.37	Win2	0.6364	n/a	Yes	3.175	n/a	n/a	GoodResponse	1	n/a	n/a	6	43	Blank	Win	True
415.273	1.45	Win2	0.6364	n/a	Yes	3.175	n/a	5.0	GoodResponse	1	0.017	414.29	6	43	Feedback	Win	True
416.728	3.175	Win2	0.6364	n/a	Yes	3.175	n/a	n/a	GoodResponse	1	0.0	n/a	6	43	ISIslide	Win	True
419.921	0.25	Win2	0.6444	0.0	Yes	2.979	0.021	n/a	GoodResponse	1	n/a	n/a	7	44	Cue	Win	True
420.171	4.0	Win2	0.6444	0.0	Yes	2.979	0.0	n/a	GoodResponse	1	n/a	n/a	7	44	Fixation	Win	True
424.167	0.34	Win2	0.6444	0.004	Yes	2.979	-0.004	4.0	GoodResponse	1	0.243	423.41	7	44	Target	Win	True
424.41	0.3	Win2	0.6444	0.004	Yes	2.979	-0.004	4.0	GoodResponse	1	0.243	n/a	7	44	ButtonPress	Win	True
424.518	0.36	Win2	0.6444	n/a	Yes	2.979	n/a	n/a	GoodResponse	1	n/a	n/a	7	44	Blank	Win	True
424.869	1.45	Win2	0.6444	n/a	Yes	2.979	n/a	5.0	GoodResponse	1	0.031	423.9	7	44	Feedback	Win	True
426.323	2.979	Win2	0.6444	n/a	Yes	2.979	n/a	n/a	GoodResponse	1	0.0	n/a	7	44	ISIslide	Win	True
429.315	0.25	Control	0.6522	0.001	Yes	2.885	0.015	n/a	GoodResponse	0	n/a	n/a	7	45	Cue	Neutral	True
429.566	4.1	Control	0.6522	0.0	Yes	2.885	0.001	n/a	GoodResponse	0	n/a	n/a	7	45	Fixation	Neutral	True
433.662	0.35	Control	0.6522	0.003	Yes	2.885	-0.003	4.0	GoodResponse	0	0.195	432.857	7	45	Target	Neutral	True
433.857	0.3	Control	0.6522	0.003	Yes	2.885	-0.003	4.0	GoodResponse	0	0.195	n/a	7	45	ButtonPress	Neutral	True
434.013	0.35	Control	0.6522	n/a	Yes	2.885	n/a	n/a	GoodResponse	0	n/a	n/a	7	45	Blank	Neutral	True
434.364	1.45	Control	0.6522	n/a	Yes	2.885	n/a	5.0	GoodResponse	0	0.048	433.412	7	45	Feedback	Neutral	True
435.818	2.885	Control	0.6522	n/a	Yes	2.885	n/a	n/a	GoodResponse	0	0.0	n/a	7	45	ISIslide	Neutral	True
438.727	0.25	Lose2	0.6596	0.0	Yes	3.373	0.027	n/a	GoodResponse	0	n/a	n/a	7	46	Cue	AvoidedLoss	True
438.978	4.0	Lose2	0.6596	0.0	Yes	3.373	0.001	n/a	GoodResponse	0	n/a	n/a	7	46	Fixation	AvoidedLoss	True
442.973	0.36	Lose2	0.6596	0.004	Yes	3.373	-0.004	4.0	GoodResponse	0	0.196	442.169	7	46	Target	AvoidedLoss	True
443.169	0.3	Lose2	0.6596	0.004	Yes	3.373	-0.004	4.0	GoodResponse	0	0.196	n/a	7	46	ButtonPress	AvoidedLoss	True
443.341	0.34	Lose2	0.6596	n/a	Yes	3.373	n/a	n/a	GoodResponse	0	n/a	n/a	7	46	Blank	AvoidedLoss	True
443.675	1.45	Lose2	0.6596	n/a	Yes	3.373	n/a	5.0	GoodResponse	0	0.005	442.68	7	46	Feedback	AvoidedLoss	True
445.129	3.373	Lose2	0.6596	n/a	Yes	3.373	n/a	n/a	GoodResponse	0	0.0	n/a	7	46	ISIslide	AvoidedLoss	True
448.523	0.25	Lose2	0.6667000000000001	0.0	Yes	2.677	0.023	n/a	GoodResponse	0	n/a	n/a	7	47	Cue	AvoidedLoss	True
448.774	4.0	Lose2	0.6667000000000001	0.0	Yes	2.677	0.001	n/a	GoodResponse	0	n/a	n/a	7	47	Fixation	AvoidedLoss	True
452.769	0.36	Lose2	0.6667000000000001	0.004	Yes	2.677	-0.004	4.0	GoodResponse	0	0.214	451.983	7	47	Target	AvoidedLoss	True
452.983	0.3	Lose2	0.6667000000000001	0.004	Yes	2.677	-0.004	4.0	GoodResponse	0	0.214	n/a	7	47	ButtonPress	AvoidedLoss	True
453.137	0.34	Lose2	0.6667000000000001	n/a	Yes	2.677	n/a	n/a	GoodResponse	0	n/a	n/a	7	47	Blank	AvoidedLoss	True
453.471	1.45	Lose2	0.6667000000000001	n/a	Yes	2.677	n/a	5.0	GoodResponse	0	0.014	452.485	7	47	Feedback	AvoidedLoss	True
454.926	2.677	Lose2	0.6667000000000001	n/a	Yes	2.677	n/a	n/a	GoodResponse	0	0.0	n/a	7	47	ISIslide	AvoidedLoss	True
457.617	0.25	Lose2	0.6735	0.0	Yes	3.033	0.017	n/a	GoodResponse	0	n/a	n/a	7	48	Cue	AvoidedLoss	True
457.868	3.95	Lose2	0.6735	0.0	Yes	3.033	0.001	n/a	GoodResponse	0	n/a	n/a	7	48	Fixation	AvoidedLoss	True
461.813	0.35	Lose2	0.6735	0.004	Yes	3.033	-0.004	4.0	GoodResponse	0	0.263	461.076	7	48	Target	AvoidedLoss	True
462.076	0.3	Lose2	0.6735	0.004	Yes	3.033	-0.004	4.0	GoodResponse	0	0.263	n/a	7	48	ButtonPress	AvoidedLoss	True
462.164	0.35	Lose2	0.6735	n/a	Yes	3.033	n/a	n/a	GoodResponse	0	n/a	n/a	7	48	Blank	AvoidedLoss	True
462.515	1.45	Lose2	0.6735	n/a	Yes	3.033	n/a	5.0	GoodResponse	0	0.044	461.559	7	48	Feedback	AvoidedLoss	True
463.969	3.033	Lose2	0.6735	n/a	Yes	3.033	n/a	4.0	GoodResponse	0	2.299	n/a	7	48	ISIslide	AvoidedLoss	True
467.012	0.25	Control	0.68	0.0	Yes	2.888	0.012	n/a	GoodResponse	0	n/a	n/a	7	49	Cue	Neutral	True
467.262	4.0	Control	0.68	0.001	Yes	2.888	0.0	n/a	GoodResponse	0	n/a	n/a	7	49	Fixation	Neutral	True
471.258	0.34	Control	0.68	0.004	Yes	2.888	-0.004	4.0	GoodResponse	0	0.226	470.484	7	49	Target	Neutral	True
471.484	0.3	Control	0.68	0.004	Yes	2.888	-0.004	4.0	GoodResponse	0	0.226	n/a	7	49	ButtonPress	Neutral	True
471.609	0.36	Control	0.68	n/a	Yes	2.888	n/a	n/a	GoodResponse	0	n/a	n/a	7	49	Blank	Neutral	True
471.96	1.45	Control	0.68	n/a	Yes	2.888	n/a	5.0	GoodResponse	0	0.012	470.972	7	49	Feedback	Neutral	True
473.414	2.888	Control	0.68	n/a	Yes	2.888	n/a	n/a	GoodResponse	0	0.0	n/a	7	49	ISIslide	Neutral	True
476.323	0.25	Control	0.6667000000000001	0.0	No	2.777	0.023	n/a	NoResponse	0	n/a	n/a	7	50	Cue	Neutral	False
476.574	4.0	Control	0.6667000000000001	0.0	No	2.777	0.001	n/a	NoResponse	0	n/a	n/a	7	50	Fixation	Neutral	False
480.569	0.33	Control	0.6667000000000001	0.004	No	2.777	-0.004	n/a	NoResponse	0	n/a	n/a	7	50	Target	Neutral	False
480.903	0.37	Control	0.6667000000000001	n/a	No	2.777	n/a	n/a	NoResponse	0	n/a	n/a	7	50	Blank	Neutral	False
481.271	1.45	Control	0.6667000000000001	n/a	No	2.777	n/a	5.0	NoResponse	0	0.019	480.29	7	50	Feedback	Neutral	False
482.725	2.777	Control	0.6667000000000001	n/a	No	2.777	n/a	n/a	NoResponse	0	0.0	n/a	7	50	ISIslide	Neutral	False
485.517	0.25	Control	0.6731	0.0	Yes	2.733	0.017	n/a	GoodResponse	0	n/a	n/a	7	51	Cue	Neutral	True
485.768	3.95	Control	0.6731	0.0	Yes	2.733	0.001	n/a	GoodResponse	0	n/a	n/a	7	51	Fixation	Neutral	True
489.713	0.32	Control	0.6731	0.004	Yes	2.733	-0.004	4.0	GoodResponse	0	0.2	488.913	7	51	Target	Neutral	True
489.913	0.3	Control	0.6731	0.004	Yes	2.733	-0.004	4.0	GoodResponse	0	0.2	n/a	7	51	ButtonPress	Neutral	True
490.047	0.38	Control	0.6731	n/a	Yes	2.733	n/a	n/a	GoodResponse	0	n/a	n/a	7	51	Blank	Neutral	True
490.415	1.45	Control	0.6731	n/a	Yes	2.733	n/a	5.0	GoodResponse	0	0.045	489.46	7	51	Feedback	Neutral	True
491.87	2.733	Control	0.6731	n/a	Yes	2.733	n/a	4.0	GoodResponse	0	0.911	n/a	7	51	ISIslide	Neutral	True
494.611	0.25	Control	0.6792	0.0	Yes	2.639	0.011	n/a	GoodResponse	0	n/a	n/a	7	52	Cue	Neutral	True
494.862	4.05	Control	0.6792	0.0	Yes	2.639	0.001	n/a	GoodResponse	0	n/a	n/a	7	52	Fixation	Neutral	True
498.907	0.31	Control	0.6792	0.004	Yes	2.639	-0.004	4.0	GoodResponse	0	0.211	498.118	7	52	Target	Neutral	True
499.118	0.3	Control	0.6792	0.004	Yes	2.639	-0.004	4.0	GoodResponse	0	0.211	n/a	7	52	ButtonPress	Neutral	True
499.225	0.39	Control	0.6792	n/a	Yes	2.639	n/a	n/a	GoodResponse	0	n/a	n/a	7	52	Blank	Neutral	True
499.609	1.45	Control	0.6792	n/a	Yes	2.639	n/a	5.0	GoodResponse	0	0.022	498.631	7	52	Feedback	Neutral	True
501.064	2.639	Control	0.6792	n/a	Yes	2.639	n/a	n/a	GoodResponse	0	0.0	n/a	7	52	ISIslide	Neutral	True
503.722	0.25	Win2	0.6851999999999999	0.0	Yes	2.928	0.022	n/a	GoodResponse	1	n/a	n/a	8	53	Cue	Win	True
503.972	4.05	Win2	0.6851999999999999	0.001	Yes	2.928	0.0	n/a	GoodResponse	1	n/a	n/a	8	53	Fixation	Win	True
508.018	0.3	Win2	0.6851999999999999	0.004	Yes	2.928	-0.004	4.0	GoodResponse	1	0.237	507.255	8	53	Target	Win	True
508.255	0.3	Win2	0.6851999999999999	0.004	Yes	2.928	-0.004	4.0	GoodResponse	1	0.237	n/a	8	53	ButtonPress	Win	True
508.319	0.4	Win2	0.6851999999999999	n/a	Yes	2.928	n/a	n/a	GoodResponse	1	n/a	n/a	8	53	Blank	Win	True
508.72	1.45	Win2	0.6851999999999999	n/a	Yes	2.928	n/a	5.0	GoodResponse	1	0.033	507.753	8	53	Feedback	Win	True
510.174	2.928	Win2	0.6851999999999999	n/a	Yes	2.928	n/a	n/a	GoodResponse	1	0.0	n/a	8	53	ISIslide	Win	True
513.117	0.25	Win2	0.6909000000000001	0.0	Yes	2.733	0.017	n/a	GoodResponse	1	n/a	n/a	9	54	Cue	Win	True
513.367	3.95	Win2	0.6909000000000001	0.0	Yes	2.733	0.0	n/a	GoodResponse	1	n/a	n/a	9	54	Fixation	Win	True
517.312	0.29	Win2	0.6909000000000001	0.005	Yes	2.733	-0.005	4.0	GoodResponse	1	0.201	516.513	9	54	Target	Win	True
517.513	0.3	Win2	0.6909000000000001	0.005	Yes	2.733	-0.005	4.0	GoodResponse	1	0.201	n/a	9	54	ButtonPress	Win	True
517.613	0.41	Win2	0.6909000000000001	n/a	Yes	2.733	n/a	n/a	GoodResponse	1	n/a	n/a	9	54	Blank	Win	True
518.015	1.45	Win2	0.6909000000000001	n/a	Yes	2.733	n/a	5.0	GoodResponse	1	0.007	517.022	9	54	Feedback	Win	True
519.469	2.733	Win2	0.6909000000000001	n/a	Yes	2.733	n/a	n/a	GoodResponse	1	0.0	n/a	9	54	ISIslide	Win	True
522.227	0.25	Control	0.6964	0.0	Yes	3.023	0.027	n/a	GoodResponse	0	n/a	n/a	9	55	Cue	Neutral	True
522.478	3.95	Control	0.6964	0.0	Yes	3.023	0.001	n/a	GoodResponse	0	n/a	n/a	9	55	Fixation	Neutral	True
526.423	0.28	Control	0.6964	0.004	Yes	3.023	-0.004	4.0	GoodResponse	0	0.263	525.686	9	55	Target	Neutral	True
526.686	0.3	Control	0.6964	0.004	Yes	3.023	-0.004	4.0	GoodResponse	0	0.263	n/a	9	55	ButtonPress	Neutral	True
526.707	0.42	Control	0.6964	n/a	Yes	3.023	n/a	n/a	GoodResponse	0	n/a	n/a	9	55	Blank	Neutral	True
527.125	1.45	Control	0.6964	n/a	Yes	3.023	n/a	5.0	GoodResponse	0	0.019	526.144	9	55	Feedback	Neutral	True
528.58	3.023	Control	0.6964	n/a	Yes	3.023	n/a	n/a	GoodResponse	0	0.0	n/a	9	55	ISIslide	Neutral	True
531.622	0.25	Control	0.7018000000000001	0.0	Yes	2.828	0.022	n/a	GoodResponse	0	n/a	n/a	9	56	Cue	Neutral	True
531.873	3.95	Control	0.7018000000000001	0.0	Yes	2.828	0.001	n/a	GoodResponse	0	n/a	n/a	9	56	Fixation	Neutral	True
535.818	0.27	Control	0.7018000000000001	0.004	Yes	2.828	-0.004	4.0	GoodResponse	0	0.254	535.072	9	56	Target	Neutral	True
536.072	0.3	Control	0.7018000000000001	0.004	Yes	2.828	-0.004	4.0	GoodResponse	0	0.254	n/a	9	56	ButtonPress	Neutral	True
536.102	0.43	Control	0.7018000000000001	n/a	Yes	2.828	n/a	n/a	GoodResponse	0	n/a	n/a	9	56	Blank	Neutral	True
536.52	1.45	Control	0.7018000000000001	n/a	Yes	2.828	n/a	5.0	GoodResponse	0	0.037	535.557	9	56	Feedback	Neutral	True
537.974	2.828	Control	0.7018000000000001	n/a	Yes	2.828	n/a	n/a	GoodResponse	0	0.0	n/a	9	56	ISIslide	Neutral	True
540.816	0.25	Control	0.7069	0.0	Yes	3.484	0.016	n/a	GoodResponse	0	n/a	n/a	9	57	Cue	Neutral	True
541.067	4.0	Control	0.7069	0.0	Yes	3.484	0.001	n/a	GoodResponse	0	n/a	n/a	9	57	Fixation	Neutral	True
545.062	0.26	Control	0.7069	0.004	Yes	3.484	-0.004	4.0	GoodResponse	0	0.248	544.31	9	57	Target	Neutral	True
545.31	0.3	Control	0.7069	0.004	Yes	3.484	-0.004	4.0	GoodResponse	0	0.248	n/a	9	57	ButtonPress	Neutral	True
545.33	0.44	Control	0.7069	n/a	Yes	3.484	n/a	n/a	GoodResponse	0	n/a	n/a	9	57	Blank	Neutral	True
545.764	1.45	Control	0.7069	n/a	Yes	3.484	n/a	5.0	GoodResponse	0	0.013	544.777	9	57	Feedback	Neutral	True
547.219	3.484	Control	0.7069	n/a	Yes	3.484	n/a	n/a	GoodResponse	0	0.0	n/a	9	57	ISIslide	Neutral	True
550.729	0.25	Win2	0.7119	0.0	Yes	2.721	0.029	n/a	GoodResponse	1	n/a	n/a	10	58	Cue	Win	True
550.98	4.05	Win2	0.7119	0.0	Yes	2.721	0.001	n/a	GoodResponse	1	n/a	n/a	10	58	Fixation	Win	True
555.025	0.25	Win2	0.7119	0.004	Yes	2.721	-0.004	4.0	GoodResponse	1	0.22	554.245	10	58	Target	Win	True
555.245	0.3	Win2	0.7119	0.004	Yes	2.721	-0.004	4.0	GoodResponse	1	0.22	n/a	10	58	ButtonPress	Win	True
555.276	0.45	Win2	0.7119	n/a	Yes	2.721	n/a	n/a	GoodResponse	1	n/a	n/a	10	58	Blank	Win	True
555.728	1.45	Win2	0.7119	n/a	Yes	2.721	n/a	5.0	GoodResponse	1	0.0	554.728	10	58	Feedback	Win	True
557.182	2.721	Win2	0.7119	n/a	Yes	2.721	n/a	n/a	GoodResponse	1	0.0	n/a	10	58	ISIslide	Win	True
559.923	0.25	Lose2	0.7167	0.001	Yes	2.677	0.023	n/a	GoodResponse	0	n/a	n/a	10	59	Cue	AvoidedLoss	True
560.174	4.0	Lose2	0.7167	0.0	Yes	2.677	0.001	n/a	GoodResponse	0	n/a	n/a	10	59	Fixation	AvoidedLoss	True
564.17	0.24	Lose2	0.7167	0.003	Yes	2.677	-0.003	4.0	GoodResponse	0	0.205	563.375	10	59	Target	AvoidedLoss	True
564.375	0.3	Lose2	0.7167	0.003	Yes	2.677	-0.003	4.0	GoodResponse	0	0.205	n/a	10	59	ButtonPress	AvoidedLoss	True
564.42	0.46	Lose2	0.7167	n/a	Yes	2.677	n/a	n/a	GoodResponse	0	n/a	n/a	10	59	Blank	AvoidedLoss	True
564.872	1.45	Lose2	0.7167	n/a	Yes	2.677	n/a	5.0	GoodResponse	0	0.027	563.899	10	59	Feedback	AvoidedLoss	True
566.326	2.677	Lose2	0.7167	n/a	Yes	2.677	n/a	4.0	GoodResponse	0	2.047	n/a	10	59	ISIslide	AvoidedLoss	True
569.001	0.25	Control	0.7049	0.0	No	2.699	0.001	n/a	NoResponse	0	n/a	n/a	10	60	Cue	Neutral	True
569.251	4.0	Control	0.7049	0.0	No	2.699	0.0	n/a	NoResponse	0	n/a	n/a	10	60	Fixation	Neutral	True
573.247	0.23	Control	0.7049	0.004	No	2.699	-0.004	4.0	NoResponse	0	0.24	572.487	10	60	Target	Neutral	True
573.481	0.47	Control	0.7049	n/a	No	2.699	n/a	n/a	NoResponse	0	n/a	n/a	10	60	Blank	Neutral	True
573.487	0.3	Control	0.7049	0.004	No	2.699	-0.004	4.0	NoResponse	0	0.24	n/a	10	60	ButtonPress	Neutral	True
573.949	1.45	Control	0.7049	n/a	No	2.699	n/a	5.0	NoResponse	0	0.023	572.972	10	60	Feedback	Neutral	True
575.403	2.699	Control	0.7049	n/a	No	2.699	n/a	n/a	NoResponse	0	0.0	n/a	10	60	ISIslide	Neutral	True
578.128	0.25	Lose2	0.7097	0.0	Yes	2.972	0.028	n/a	GoodResponse	0	n/a	n/a	10	61	Cue	AvoidedLoss	True
578.379	4.0	Lose2	0.7097	0.0	Yes	2.972	0.001	n/a	GoodResponse	0	n/a	n/a	10	61	Fixation	AvoidedLoss	True
582.374	0.22	Lose2	0.7097	0.004	Yes	2.972	-0.004	4.0	GoodResponse	0	0.21	581.584	10	61	Target	AvoidedLoss	True
582.584	0.3	Lose2	0.7097	0.004	Yes	2.972	-0.004	4.0	GoodResponse	0	0.21	n/a	10	61	ButtonPress	AvoidedLoss	True
582.608	0.48	Lose2	0.7097	n/a	Yes	2.972	n/a	n/a	GoodResponse	0	n/a	n/a	10	61	Blank	AvoidedLoss	True
583.076	1.45	Lose2	0.7097	n/a	Yes	2.972	n/a	5.0	GoodResponse	0	0.018	582.094	10	61	Feedback	AvoidedLoss	True
584.531	2.972	Lose2	0.7097	n/a	Yes	2.972	n/a	n/a	GoodResponse	0	0.0	n/a	10	61	ISIslide	AvoidedLoss	True
587.523	0.25	Lose2	0.7143	0.0	Yes	2.877	0.023	n/a	GoodResponse	0	n/a	n/a	10	62	Cue	AvoidedLoss	True
587.774	3.9	Lose2	0.7143	0.0	Yes	2.877	0.001	n/a	GoodResponse	0	n/a	n/a	10	62	Fixation	AvoidedLoss	True
591.669	0.21	Lose2	0.7143	0.004	Yes	2.877	-0.004	4.0	GoodResponse	0	0.203	590.872	10	62	Target	AvoidedLoss	True
591.872	0.3	Lose2	0.7143	0.004	Yes	2.877	-0.004	4.0	GoodResponse	0	0.203	n/a	10	62	ButtonPress	AvoidedLoss	True
591.886	0.49	Lose2	0.7143	n/a	Yes	2.877	n/a	n/a	GoodResponse	0	n/a	n/a	10	62	Blank	AvoidedLoss	True
592.371	1.45	Lose2	0.7143	n/a	Yes	2.877	n/a	5.0	GoodResponse	0	0.04	591.411	10	62	Feedback	AvoidedLoss	True
593.825	2.877	Lose2	0.7143	n/a	Yes	2.877	n/a	n/a	GoodResponse	0	0.0	n/a	10	62	ISIslide	AvoidedLoss	True
596.717	0.25	Lose2	0.7031000000000001	0.0	No	2.633	0.017	n/a	NoResponse	-1	n/a	n/a	9	63	Cue	Loss	True
596.968	4.05	Lose2	0.7031000000000001	0.0	No	2.633	0.001	n/a	NoResponse	-1	n/a	n/a	9	63	Fixation	Loss	True
601.013	0.2	Lose2	0.7031000000000001	0.004	No	2.633	-0.004	4.0	NoResponse	-1	0.266	600.279	9	63	Target	Loss	True
601.214	0.5	Lose2	0.7031000000000001	n/a	No	2.633	n/a	n/a	NoResponse	-1	n/a	n/a	9	63	Blank	Loss	True
601.279	0.3	Lose2	0.7031000000000001	0.004	No	2.633	-0.004	4.0	NoResponse	-1	0.266	n/a	9	63	ButtonPress	Loss	True
601.715	1.45	Lose2	0.7031000000000001	n/a	No	2.633	n/a	5.0	NoResponse	-1	0.013	600.728	9	63	Feedback	Loss	True
603.17	2.633	Lose2	0.7031000000000001	n/a	No	2.633	n/a	n/a	NoResponse	-1	0.0	n/a	9	63	ISIslide	Loss	True
605.828	0.25	Win2	0.6923	0.0	No	3.122	0.028	n/a	LatePress	0	n/a	n/a	9	64	Cue	MissedWin	True
606.078	4.15	Win2	0.6923	0.001	No	3.122	0.0	n/a	LatePress	0	n/a	n/a	9	64	Fixation	MissedWin	True
610.224	0.19	Win2	0.6923	0.004	No	3.122	-0.004	4.0	LatePress	0	0.194	609.418	9	64	Target	MissedWin	True
610.418	0.3	Win2	0.6923	0.004	No	3.122	-0.004	4.0	LatePress	0	0.194	n/a	9	64	ButtonPress	MissedWin	True
610.425	0.51	Win2	0.6923	n/a	No	3.122	n/a	n/a	LatePress	0	n/a	n/a	9	64	Blank	MissedWin	True
610.926	1.45	Win2	0.6923	n/a	No	3.122	n/a	5.0	LatePress	0	0.021	609.947	9	64	Feedback	MissedWin	True
612.381	3.122	Win2	0.6923	n/a	No	3.122	n/a	n/a	LatePress	0	0.0	n/a	9	64	ISIslide	MissedWin	True
615.523	0.25	Control	0.6818000000000001	0.0	No	2.777	0.023	n/a	NoResponse	0	n/a	n/a	9	65	Cue	Neutral	True
615.774	4.0	Control	0.6818000000000001	0.0	No	2.777	0.001	n/a	NoResponse	0	n/a	n/a	9	65	Fixation	Neutral	True
619.769	0.18	Control	0.6818000000000001	0.004	No	2.777	-0.004	4.0	NoResponse	0	0.242	619.011	9	65	Target	Neutral	True
619.953	0.52	Control	0.6818000000000001	n/a	No	2.777	n/a	n/a	NoResponse	0	n/a	n/a	9	65	Blank	Neutral	True
620.011	0.3	Control	0.6818000000000001	0.004	No	2.777	-0.004	4.0	NoResponse	0	0.242	n/a	9	65	ButtonPress	Neutral	True
620.472	1.45	Control	0.6818000000000001	n/a	No	2.777	n/a	5.0	NoResponse	0	0.036	619.508	9	65	Feedback	Neutral	True
621.926	2.777	Control	0.6818000000000001	n/a	No	2.777	n/a	n/a	NoResponse	0	0.0	n/a	9	65	ISIslide	Neutral	True
624.718	0.25	Win2	0.6866	0.0	Yes	2.782	0.018	n/a	GoodResponse	1	n/a	n/a	10	66	Cue	Win	True
624.968	3.9	Win2	0.6866	0.0	Yes	2.782	0.0	n/a	GoodResponse	1	n/a	n/a	10	66	Fixation	Win	True
628.88	0.17	Win2	0.6866	0.0	Yes	2.782	0.012	4.0	GoodResponse	1	0.157	628.037	10	66	Target	Win	True
629.037	0.3	Win2	0.6866	0.0	Yes	2.782	0.012	4.0	GoodResponse	1	0.157	n/a	10	66	ButtonPress	Win	True
629.047	0.53	Win2	0.6866	n/a	Yes	2.782	n/a	n/a	GoodResponse	1	n/a	n/a	10	66	Blank	Win	True
629.565	1.45	Win2	0.6866	n/a	Yes	2.782	n/a	5.0	GoodResponse	1	0.017	628.582	10	66	Feedback	Win	True
631.02	2.782	Win2	0.6866	n/a	Yes	2.782	n/a	n/a	GoodResponse	1	0.0	n/a	10	66	ISIslide	Win	True
633.828	0.25	Control	0.6765000000000001	0.0	No	2.722	0.028	n/a	NoResponse	0	n/a	n/a	10	67	Cue	Neutral	True
634.079	3.95	Control	0.6765000000000001	0.0	No	2.722	0.001	n/a	NoResponse	0	n/a	n/a	10	67	Fixation	Neutral	True
638.024	0.16	Control	0.6765000000000001	0.004	No	2.722	-0.004	4.0	NoResponse	0	0.232	637.256	10	67	Target	Neutral	True
638.191	0.54	Control	0.6765000000000001	n/a	No	2.722	n/a	n/a	NoResponse	0	n/a	n/a	10	67	Blank	Neutral	True
638.256	0.3	Control	0.6765000000000001	0.004	No	2.722	-0.004	4.0	NoResponse	0	0.232	n/a	10	67	ButtonPress	Neutral	True
638.726	1.45	Control	0.6765000000000001	n/a	No	2.722	n/a	5.0	NoResponse	0	0.027	637.753	10	67	Feedback	Neutral	True
640.181	2.722	Control	0.6765000000000001	n/a	No	2.722	n/a	n/a	NoResponse	0	0.0	n/a	10	67	ISIslide	Neutral	True
642.922	0.25	Win2	0.6667000000000001	0.0	No	3.078	0.022	n/a	NoResponse	0	n/a	n/a	10	68	Cue	MissedWin	True
643.173	4.0	Win2	0.6667000000000001	0.0	No	3.078	0.001	n/a	NoResponse	0	n/a	n/a	10	68	Fixation	MissedWin	True
647.168	0.15	Win2	0.6667000000000001	0.004	No	3.078	-0.004	4.0	NoResponse	0	0.236	646.404	10	68	Target	MissedWin	True
647.319	0.55	Win2	0.6667000000000001	n/a	No	3.078	n/a	n/a	NoResponse	0	n/a	n/a	10	68	Blank	MissedWin	True
647.404	0.3	Win2	0.6667000000000001	0.004	No	3.078	-0.004	4.0	NoResponse	0	0.236	n/a	10	68	ButtonPress	MissedWin	True
647.87	1.45	Win2	0.6667000000000001	n/a	No	3.078	n/a	5.0	NoResponse	0	0.005	646.875	10	68	Feedback	MissedWin	True
649.325	3.078	Win2	0.6667000000000001	n/a	No	3.078	n/a	n/a	NoResponse	0	0.0	n/a	10	68	ISIslide	MissedWin	True
652.417	0.25	Win2	0.6570999999999999	0.0	No	3.233	0.017	n/a	NoResponse	0	n/a	n/a	10	69	Cue	MissedWin	True
652.668	3.95	Win2	0.6570999999999999	0.0	No	3.233	0.001	n/a	NoResponse	0	n/a	n/a	10	69	Fixation	MissedWin	True
656.613	0.15	Win2	0.6570999999999999	0.004	No	3.233	-0.004	4.0	NoResponse	0	0.249	655.862	10	69	Target	MissedWin	True
656.764	0.55	Win2	0.6570999999999999	n/a	No	3.233	n/a	n/a	NoResponse	0	n/a	n/a	10	69	Blank	MissedWin	True
656.862	0.3	Win2	0.6570999999999999	0.004	No	3.233	-0.004	4.0	NoResponse	0	0.249	n/a	10	69	ButtonPress	MissedWin	True
657.315	1.45	Win2	0.6570999999999999	n/a	No	3.233	n/a	5.0	NoResponse	0	0.022	656.337	10	69	Feedback	MissedWin	True
658.77	3.233	Win2	0.6570999999999999	n/a	No	3.233	n/a	n/a	NoResponse	0	0.0	n/a	10	69	ISIslide	MissedWin	True
662.029	0.25	Lose2	0.6479	0.0	No	3.021	0.029	n/a	NoResponse	-1	n/a	n/a	9	70	Cue	Loss	True
662.28	4.05	Lose2	0.6479	0.0	No	3.021	0.001	n/a	NoResponse	-1	n/a	n/a	9	70	Fixation	Loss	True
666.326	0.15	Lose2	0.6479	0.003	No	3.021	-0.003	4.0	NoResponse	-1	0.212	665.538	9	70	Target	Loss	True
666.476	0.55	Lose2	0.6479	n/a	No	3.021	n/a	n/a	NoResponse	-1	n/a	n/a	9	70	Blank	Loss	True
666.538	0.3	Lose2	0.6479	0.003	No	3.021	-0.003	4.0	NoResponse	-1	0.212	n/a	9	70	ButtonPress	Loss	True
667.028	1.45	Lose2	0.6479	n/a	No	3.021	n/a	5.0	NoResponse	-1	0.017	666.045	9	70	Feedback	Loss	True
668.482	3.021	Lose2	0.6479	n/a	No	3.021	n/a	n/a	NoResponse	-1	0.0	n/a	9	70	ISIslide	Loss	True
671.525	0.25	Win2	0.6389	0.0	No	2.725	0.025	4.0	NoResponse	0	0.216	670.741	9	71	Cue	MissedWin	False
671.741	0.3	Win2	0.6389	0.0	No	2.725	0.025	4.0	NoResponse	0	0.216	n/a	9	71	ButtonPress	MissedWin	False
671.775	4.05	Win2	0.6389	0.0	No	2.725	0.0	n/a	NoResponse	0	n/a	n/a	9	71	Fixation	MissedWin	False
675.821	0.16	Win2	0.6389	0.004	No	2.725	-0.004	4.0	NoResponse	0	0.201	675.022	9	71	Target	MissedWin	False
675.988	0.54	Win2	0.6389	n/a	No	2.725	n/a	n/a	NoResponse	0	n/a	n/a	9	71	Blank	MissedWin	False
676.022	0.3	Win2	0.6389	0.004	No	2.725	-0.004	4.0	NoResponse	0	0.201	n/a	9	71	ButtonPress	MissedWin	False
676.523	1.45	Win2	0.6389	n/a	No	2.725	n/a	5.0	NoResponse	0	0.034	675.557	9	71	Feedback	MissedWin	False
677.977	2.725	Win2	0.6389	n/a	No	2.725	n/a	4.0	NoResponse	0	1.414	n/a	9	71	ISIslide	MissedWin	False
680.702	0.25	Win2	0.6301	0.0	No	2.798	0.002	n/a	PrematurePress	0	n/a	n/a	9	72	Cue	MissedWin	True
680.953	4.1	Win2	0.6301	0.0	No	2.798	0.001	n/a	PrematurePress	0	n/a	n/a	9	72	Fixation	MissedWin	True
685.048	0.17	Win2	0.6301	0.004	No	2.798	-0.004	4.0	PrematurePress	0	0.04	684.088	9	72	Target	MissedWin	True
685.088	0.3	Win2	0.6301	0.004	No	2.798	-0.004	4.0	PrematurePress	0	0.04	n/a	9	72	ButtonPress	MissedWin	True
685.232	0.53	Win2	0.6301	n/a	No	2.798	n/a	n/a	PrematurePress	0	n/a	n/a	9	72	Blank	MissedWin	True
685.75	1.45	Win2	0.6301	n/a	No	2.798	n/a	5.0	PrematurePress	0	0.026	684.776	9	72	Feedback	MissedWin	True
687.205	2.798	Win2	0.6301	n/a	No	2.798	n/a	n/a	PrematurePress	0	0.0	n/a	9	72	ISIslide	MissedWin	True
690.03	0.25	Win2	0.6215999999999999	0.0	No	2.67	0.03	n/a	NoResponse	0	n/a	n/a	9	73	Cue	MissedWin	True
690.281	4.0	Win2	0.6215999999999999	0.0	No	2.67	0.001	n/a	NoResponse	0	n/a	n/a	9	73	Fixation	MissedWin	True
694.276	0.18	Win2	0.6215999999999999	0.004	No	2.67	-0.004	4.0	NoResponse	0	0.206	693.482	9	73	Target	MissedWin	True
694.46	0.52	Win2	0.6215999999999999	n/a	No	2.67	n/a	n/a	NoResponse	0	n/a	n/a	9	73	Blank	MissedWin	True
694.482	0.3	Win2	0.6215999999999999	0.004	No	2.67	-0.004	4.0	NoResponse	0	0.206	n/a	9	73	ButtonPress	MissedWin	True
694.978	1.45	Win2	0.6215999999999999	n/a	No	2.67	n/a	5.0	NoResponse	0	0.018	693.996	9	73	Feedback	MissedWin	True
696.432	2.67	Win2	0.6215999999999999	n/a	No	2.67	n/a	n/a	NoResponse	0	0.0	n/a	9	73	ISIslide	MissedWin	True
699.124	0.25	Lose2	0.6267	0.0	Yes	2.626	0.024	n/a	GoodResponse	0	n/a	n/a	9	74	Cue	AvoidedLoss	False
699.375	4.05	Lose2	0.6267	0.0	Yes	2.626	0.001	4.0	GoodResponse	0	0.292	698.667	9	74	Fixation	AvoidedLoss	False
699.667	0.3	Lose2	0.6267	0.0	Yes	2.626	0.001	4.0	GoodResponse	0	0.292	n/a	9	74	ButtonPress	AvoidedLoss	False
703.42	0.19	Lose2	0.6267	0.004	Yes	2.626	-0.004	4.0	GoodResponse	0	0.179	702.599	9	74	Target	AvoidedLoss	False
703.599	0.3	Lose2	0.6267	0.004	Yes	2.626	-0.004	4.0	GoodResponse	0	0.179	n/a	9	74	ButtonPress	AvoidedLoss	False
703.621	0.51	Lose2	0.6267	n/a	Yes	2.626	n/a	n/a	GoodResponse	0	n/a	n/a	9	74	Blank	AvoidedLoss	False
704.122	1.45	Lose2	0.6267	n/a	Yes	2.626	n/a	5.0	GoodResponse	0	0.045	703.167	9	74	Feedback	AvoidedLoss	False
705.577	2.626	Lose2	0.6267	n/a	Yes	2.626	n/a	n/a	GoodResponse	0	0.0	n/a	9	74	ISIslide	AvoidedLoss	False
708.218	0.25	Lose2	0.6184000000000001	0.0	No	2.932	0.018	n/a	NoResponse	-1	n/a	n/a	8	75	Cue	Loss	True
708.469	3.95	Lose2	0.6184000000000001	0.0	No	2.932	0.001	n/a	NoResponse	-1	n/a	n/a	8	75	Fixation	Loss	True
712.414	0.2	Lose2	0.6184000000000001	0.004	No	2.932	-0.004	4.0	NoResponse	-1	0.231	711.645	8	75	Target	Loss	True
712.614	0.5	Lose2	0.6184000000000001	n/a	No	2.932	n/a	n/a	NoResponse	-1	n/a	n/a	8	75	Blank	Loss	True
712.645	0.3	Lose2	0.6184000000000001	0.004	No	2.932	-0.004	4.0	NoResponse	-1	0.231	n/a	8	75	ButtonPress	Loss	True
713.116	1.45	Lose2	0.6184000000000001	n/a	No	2.932	n/a	5.0	NoResponse	-1	0.026	712.142	8	75	Feedback	Loss	True
714.57	2.932	Lose2	0.6184000000000001	n/a	No	2.932	n/a	n/a	NoResponse	-1	0.0	n/a	8	75	ISIslide	Loss	True
717.512	0.25	Control	0.6103999999999999	0.0	No	3.238	0.012	n/a	NoResponse	0	n/a	n/a	8	76	Cue	Neutral	True
717.763	4.05	Control	0.6103999999999999	0.0	No	3.238	0.001	n/a	NoResponse	0	n/a	n/a	8	76	Fixation	Neutral	True
721.809	0.21	Control	0.6103999999999999	0.003	No	3.238	-0.003	4.0	NoResponse	0	0.291	721.1	8	76	Target	Neutral	True
722.026	0.49	Control	0.6103999999999999	n/a	No	3.238	n/a	n/a	NoResponse	0	n/a	n/a	8	76	Blank	Neutral	True
722.1	0.3	Control	0.6103999999999999	0.003	No	3.238	-0.003	4.0	NoResponse	0	0.291	n/a	8	76	ButtonPress	Neutral	True
722.511	1.45	Control	0.6103999999999999	n/a	No	3.238	n/a	5.0	NoResponse	0	0.045	721.556	8	76	Feedback	Neutral	True
723.965	3.238	Control	0.6103999999999999	n/a	No	3.238	n/a	n/a	NoResponse	0	0.0	n/a	8	76	ISIslide	Neutral	True
727.225	0.25	Lose2	0.6154	0.0	Yes	2.575	0.025	n/a	GoodResponse	0	n/a	n/a	8	77	Cue	AvoidedLoss	True
727.476	3.95	Lose2	0.6154	0.0	Yes	2.575	0.001	n/a	GoodResponse	0	n/a	n/a	8	77	Fixation	AvoidedLoss	True
731.421	0.22	Lose2	0.6154	0.004	Yes	2.575	-0.004	4.0	GoodResponse	0	0.213	730.634	8	77	Target	AvoidedLoss	True
731.634	0.3	Lose2	0.6154	0.004	Yes	2.575	-0.004	4.0	GoodResponse	0	0.213	n/a	8	77	ButtonPress	AvoidedLoss	True
731.655	0.48	Lose2	0.6154	n/a	Yes	2.575	n/a	n/a	GoodResponse	0	n/a	n/a	8	77	Blank	AvoidedLoss	True
732.123	1.45	Lose2	0.6154	n/a	Yes	2.575	n/a	5.0	GoodResponse	0	0.043	731.166	8	77	Feedback	AvoidedLoss	True
733.577	2.575	Lose2	0.6154	n/a	Yes	2.575	n/a	n/a	GoodResponse	0	0.0	n/a	8	77	ISIslide	AvoidedLoss	True
