onset	duration	cue_type	current_mean_accuracy	duration_error	is_hit	isi_adjusted	onset_delay	response	response_type	reward	rt	rt_time	total_reward	trial_number	trial_phase	trial_type	one_press
11.101	0.25	Control	1.0	0.0	Yes	2.949	0.001	n/a	GoodResponse	0	n/a	n/a	0	0	Cue	Neutral	True
11.351	3.85	Control	1.0	0.001	Yes	2.949	0.0	n/a	GoodResponse	0	n/a	n/a	0	0	Fixation	Neutral	True
15.213	0.4	Control	1.0	0.0	Yes	2.949	0.012	3.0	GoodResponse	0	0.204	14.417	0	0	Target	Neutral	True
15.417	0.3	Control	1.0	0.0	Yes	2.949	0.012	3.0	GoodResponse	0	0.204	n/a	0	0	ButtonPress	Neutral	True
15.597	0.3	Control	1.0	n/a	Yes	2.949	n/a	n/a	GoodResponse	0	n/a	n/a	0	0	Blank	Neutral	True
15.898	1.45	Control	1.0	n/a	Yes	2.949	n/a	5.0	GoodResponse	0	0.028	14.926	0	0	Feedback	Neutral	True
17.353	2.949	Control	1.0	n/a	Yes	2.949	n/a	n/a	GoodResponse	0	0.0	n/a	0	0	ISIslide	Neutral	True
20.328	0.25	Lose2	1.0	0.0	Yes	2.772	0.028	n/a	GoodResponse	0	n/a	n/a	0	1	Cue	AvoidedLoss	True
20.579	4.0	Lose2	1.0	0.0	Yes	2.772	0.001	n/a	GoodResponse	0	n/a	n/a	0	1	Fixation	AvoidedLoss	True
24.574	0.39	Lose2	1.0	0.004	Yes	2.772	-0.004	3.0	GoodResponse	0	0.248	23.822	0	1	Target	AvoidedLoss	True
24.822	0.3	Lose2	1.0	0.004	Yes	2.772	-0.004	3.0	GoodResponse	0	0.248	n/a	0	1	ButtonPress	AvoidedLoss	True
24.976	0.31	Lose2	1.0	n/a	Yes	2.772	n/a	n/a	GoodResponse	0	n/a	n/a	0	1	Blank	AvoidedLoss	True
25.276	1.45	Lose2	1.0	n/a	Yes	2.772	n/a	5.0	GoodResponse	0	0.016	24.292	0	1	Feedback	AvoidedLoss	True
26.731	2.772	Lose2	1.0	n/a	Yes	2.772	n/a	n/a	GoodResponse	0	0.0	n/a	0	1	ISIslide	AvoidedLoss	True
29.523	0.25	Control	1.0	0.0	Yes	2.577	0.023	n/a	GoodResponse	0	n/a	n/a	0	2	Cue	Neutral	True
29.773	4.1	Control	1.0	0.0	Yes	2.577	0.0	n/a	GoodResponse	0	n/a	n/a	0	2	Fixation	Neutral	True
33.869	0.38	Control	1.0	0.004	Yes	2.577	-0.004	3.0	GoodResponse	0	0.327	33.196	0	2	Target	Neutral	True
34.196	0.3	Control	1.0	0.004	Yes	2.577	-0.004	3.0	GoodResponse	0	0.327	n/a	0	2	ButtonPress	Neutral	True
34.253	0.32	Control	1.0	n/a	Yes	2.577	n/a	n/a	GoodResponse	0	n/a	n/a	0	2	Blank	Neutral	True
34.571	1.45	Control	1.0	n/a	Yes	2.577	n/a	5.0	GoodResponse	0	0.038	33.609	0	2	Feedback	Neutral	True
36.025	2.577	Control	1.0	n/a	Yes	2.577	n/a	n/a	GoodResponse	0	0.0	n/a	0	2	ISIslide	Neutral	True
38.616	0.25	Win2	1.0	0.001	Yes	2.834	0.016	n/a	GoodResponse	1	n/a	n/a	1	3	Cue	Win	True
38.867	3.95	Win2	1.0	0.0	Yes	2.834	0.001	n/a	GoodResponse	1	n/a	n/a	1	3	Fixation	Win	True
42.812	0.37	Win2	1.0	0.004	Yes	2.834	-0.004	3.0	GoodResponse	1	0.234	42.046	1	3	Target	Win	True
43.046	0.3	Win2	1.0	0.004	Yes	2.834	-0.004	3.0	GoodResponse	1	0.234	n/a	1	3	ButtonPress	Win	True
43.197	0.33	Win2	1.0	n/a	Yes	2.834	n/a	n/a	GoodResponse	1	n/a	n/a	1	3	Blank	Win	True
43.514	1.45	Win2	1.0	n/a	Yes	2.834	n/a	5.0	GoodResponse	1	0.022	42.536	1	3	Feedback	Win	True
44.969	2.834	Win2	1.0	n/a	Yes	2.834	n/a	n/a	GoodResponse	1	0.0	n/a	1	3	ISIslide	Win	True
47.827	0.25	Win2	1.0	0.0	Yes	3.273	0.027	n/a	GoodResponse	1	n/a	n/a	2	4	Cue	Win	True
48.078	4.0	Win2	1.0	0.0	Yes	3.273	0.001	n/a	GoodResponse	1	n/a	n/a	2	4	Fixation	Win	True
52.073	0.36	Win2	1.0	0.004	Yes	3.273	-0.004	3.0	GoodResponse	1	0.222	51.295	2	4	Target	Win	True
52.295	0.3	Win2	1.0	0.004	Yes	3.273	-0.004	3.0	GoodResponse	1	0.222	n/a	2	4	ButtonPress	Win	True
52.441	0.34	Win2	1.0	n/a	Yes	3.273	n/a	n/a	GoodResponse	1	n/a	n/a	2	4	Blank	Win	True
52.776	1.45	Win2	1.0	n/a	Yes	3.273	n/a	5.0	GoodResponse	1	0.028	51.804	2	4	Feedback	Win	True
54.23	3.273	Win2	1.0	n/a	Yes	3.273	n/a	n/a	GoodResponse	1	0.0	n/a	2	4	ISIslide	Win	True
57.523	0.25	Win2	1.0	0.0	Yes	2.777	0.023	n/a	GoodResponse	1	n/a	n/a	3	5	Cue	Win	True
57.774	4.0	Win2	1.0	0.0	Yes	2.777	0.001	n/a	GoodResponse	1	n/a	n/a	3	5	Fixation	Win	True
61.769	0.35	Win2	1.0	0.004	Yes	2.777	-0.004	3.0	GoodResponse	1	0.246	61.015	3	5	Target	Win	True
62.015	0.3	Win2	1.0	0.004	Yes	2.777	-0.004	3.0	GoodResponse	1	0.246	n/a	3	5	ButtonPress	Win	True
62.12	0.35	Win2	1.0	n/a	Yes	2.777	n/a	n/a	GoodResponse	1	n/a	n/a	3	5	Blank	Win	True
62.471	1.45	Win2	1.0	n/a	Yes	2.777	n/a	5.0	GoodResponse	1	0.04	61.511	3	5	Feedback	Win	True
63.926	2.777	Win2	1.0	n/a	Yes	2.777	n/a	n/a	GoodResponse	1	0.0	n/a	3	5	ISIslide	Win	True
66.717	0.25	Lose2	1.0	0.0	Yes	2.733	0.017	n/a	GoodResponse	0	n/a	n/a	3	6	Cue	AvoidedLoss	True
66.968	3.95	Lose2	1.0	0.0	Yes	2.733	0.001	n/a	GoodResponse	0	n/a	n/a	3	6	Fixation	AvoidedLoss	True
70.913	0.34	Lose2	1.0	0.004	Yes	2.733	-0.004	3.0	GoodResponse	0	0.289	70.202	3	6	Target	AvoidedLoss	True
71.202	0.3	Lose2	1.0	0.004	Yes	2.733	-0.004	3.0	GoodResponse	0	0.289	n/a	3	6	ButtonPress	AvoidedLoss	True
71.264	0.36	Lose2	1.0	n/a	Yes	2.733	n/a	n/a	GoodResponse	0	n/a	n/a	3	6	Blank	AvoidedLoss	True
71.615	1.45	Lose2	1.0	n/a	Yes	2.733	n/a	5.0	GoodResponse	0	0.017	70.632	3	6	Feedback	AvoidedLoss	True
73.07	2.733	Lose2	1.0	n/a	Yes	2.733	n/a	n/a	GoodResponse	0	0.0	n/a	3	6	ISIslide	AvoidedLoss	True
75.828	0.25	Lose2	1.0	0.0	Yes	4.022	0.028	n/a	GoodResponse	0	n/a	n/a	3	7	Cue	AvoidedLoss	True
76.079	4.05	Lose2	1.0	0.0	Yes	4.022	0.001	n/a	GoodResponse	0	n/a	n/a	3	7	Fixation	AvoidedLoss	True
80.124	0.33	Lose2	1.0	0.004	Yes	4.022	-0.004	3.0	GoodResponse	0	0.249	79.373	3	7	Target	AvoidedLoss	True
80.373	0.3	Lose2	1.0	0.004	Yes	4.022	-0.004	3.0	GoodResponse	0	0.249	n/a	3	7	ButtonPress	AvoidedLoss	True
80.458	0.37	Lose2	1.0	n/a	Yes	4.022	n/a	n/a	GoodResponse	0	n/a	n/a	3	7	Blank	AvoidedLoss	True
80.826	1.45	Lose2	1.0	n/a	Yes	4.022	n/a	5.0	GoodResponse	0	0.026	79.852	3	7	Feedback	AvoidedLoss	True
82.281	4.022	Lose2	1.0	n/a	Yes	4.022	n/a	n/a	GoodResponse	0	0.0	n/a	3	7	ISIslide	AvoidedLoss	True
86.326	0.25	Lose2	1.0	0.0	Yes	3.024	0.026	n/a	GoodResponse	0	n/a	n/a	3	8	Cue	AvoidedLoss	True
86.577	3.95	Lose2	1.0	0.0	Yes	3.024	0.001	n/a	GoodResponse	0	n/a	n/a	3	8	Fixation	AvoidedLoss	True
90.522	0.32	Lose2	1.0	0.004	Yes	3.024	-0.004	3.0	GoodResponse	0	0.242	89.764	3	8	Target	AvoidedLoss	True
90.764	0.3	Lose2	1.0	0.004	Yes	3.024	-0.004	3.0	GoodResponse	0	0.242	n/a	3	8	ButtonPress	AvoidedLoss	True
90.856	0.38	Lose2	1.0	n/a	Yes	3.024	n/a	n/a	GoodResponse	0	n/a	n/a	3	8	Blank	AvoidedLoss	True
91.224	1.45	Lose2	1.0	n/a	Yes	3.024	n/a	5.0	GoodResponse	0	0.018	90.242	3	8	Feedback	AvoidedLoss	True
92.678	3.024	Lose2	1.0	n/a	Yes	3.024	n/a	n/a	GoodResponse	0	0.0	n/a	3	8	ISIslide	AvoidedLoss	True
95.721	0.25	Lose2	0.9	0.0	No	3.129	0.021	n/a	NoResponse	-1	n/a	n/a	2	9	Cue	Loss	True
95.972	3.95	Lose2	0.9	0.0	No	3.129	0.001	n/a	NoResponse	-1	n/a	n/a	2	9	Fixation	Loss	True
99.917	0.31	Lose2	0.9	0.004	No	3.129	-0.004	3.0	NoResponse	-1	0.501	99.418	2	9	Target	Loss	True
100.234	0.39	Lose2	0.9	n/a	No	3.129	n/a	n/a	NoResponse	-1	n/a	n/a	2	9	Blank	Loss	True
100.418	0.3	Lose2	0.9	0.004	No	3.129	-0.004	3.0	NoResponse	-1	0.501	n/a	2	9	ButtonPress	Loss	True
100.619	1.45	Lose2	0.9	n/a	No	3.129	n/a	5.0	NoResponse	-1	0.038	99.657	2	9	Feedback	Loss	True
102.073	3.129	Lose2	0.9	n/a	No	3.129	n/a	n/a	NoResponse	-1	0.0	n/a	2	9	ISIslide	Loss	True
105.216	0.25	Control	0.9091	0.0	Yes	3.284	0.016	n/a	GoodResponse	0	n/a	n/a	2	10	Cue	Neutral	True
105.467	4.0	Control	0.9091	0.0	Yes	3.284	0.001	n/a	GoodResponse	0	n/a	n/a	2	10	Fixation	Neutral	True
109.462	0.3	Control	0.9091	0.004	Yes	3.284	-0.004	3.0	GoodResponse	0	0.268	108.73	2	10	Target	Neutral	True
109.73	0.3	Control	0.9091	0.004	Yes	3.284	-0.004	3.0	GoodResponse	0	0.268	n/a	2	10	ButtonPress	Neutral	True
109.763	0.4	Control	0.9091	n/a	Yes	3.284	n/a	n/a	GoodResponse	0	n/a	n/a	2	10	Blank	Neutral	True
110.164	1.45	Control	0.9091	n/a	Yes	3.284	n/a	5.0	GoodResponse	0	0.008	109.172	2	10	Feedback	Neutral	True
111.619	3.284	Control	0.9091	n/a	Yes	3.284	n/a	n/a	GoodResponse	0	0.0	n/a	2	10	ISIslide	Neutral	True
114.928	0.25	Lose2	0.9167000000000001	0.001	Yes	2.722	0.028	n/a	GoodResponse	0	n/a	n/a	2	11	Cue	AvoidedLoss	True
115.179	4.05	Lose2	0.9167000000000001	0.0	Yes	2.722	0.001	n/a	GoodResponse	0	n/a	n/a	2	11	Fixation	AvoidedLoss	True
119.225	0.29	Lose2	0.9167000000000001	0.003	Yes	2.722	-0.003	3.0	GoodResponse	0	0.198	118.423	2	11	Target	AvoidedLoss	True
119.423	0.3	Lose2	0.9167000000000001	0.003	Yes	2.722	-0.003	3.0	GoodResponse	0	0.198	n/a	2	11	ButtonPress	AvoidedLoss	True
119.526	0.41	Lose2	0.9167000000000001	n/a	Yes	2.722	n/a	n/a	GoodResponse	0	n/a	n/a	2	11	Blank	AvoidedLoss	True
119.927	1.45	Lose2	0.9167000000000001	n/a	Yes	2.722	n/a	5.0	GoodResponse	0	0.047	118.974	2	11	Feedback	AvoidedLoss	True
121.381	2.722	Lose2	0.9167000000000001	n/a	Yes	2.722	n/a	n/a	GoodResponse	0	0.0	n/a	2	11	ISIslide	AvoidedLoss	True
124.123	0.25	Control	0.9231	0.0	Yes	2.977	0.023	n/a	GoodResponse	0	n/a	n/a	2	12	Cue	Neutral	True
124.373	3.9	Control	0.9231	0.0	Yes	2.977	0.0	n/a	GoodResponse	0	n/a	n/a	2	12	Fixation	Neutral	True
128.285	0.28	Control	0.9231	0.0	Yes	2.977	0.012	3.0	GoodResponse	0	0.205	127.49	2	12	Target	Neutral	True
128.49	0.3	Control	0.9231	0.0	Yes	2.977	0.012	3.0	GoodResponse	0	0.205	n/a	2	12	ButtonPress	Neutral	True
128.553	0.42	Control	0.9231	n/a	Yes	2.977	n/a	n/a	GoodResponse	0	n/a	n/a	2	12	Blank	Neutral	True
128.971	1.45	Control	0.9231	n/a	Yes	2.977	n/a	5.0	GoodResponse	0	0.027	127.998	2	12	Feedback	Neutral	True
130.425	2.977	Control	0.9231	n/a	Yes	2.977	n/a	n/a	GoodResponse	0	0.0	n/a	2	12	ISIslide	Neutral	True
133.417	0.25	Control	0.8571	0.0	No	2.783	0.017	n/a	PrematurePress	0	n/a	n/a	2	13	Cue	Neutral	True
133.668	4.0	Control	0.8571	0.0	No	2.783	0.001	n/a	PrematurePress	0	n/a	n/a	2	13	Fixation	Neutral	True
137.663	0.27	Control	0.8571	0.004	No	2.783	-0.004	3.0	PrematurePress	0	0.099	136.762	2	13	Target	Neutral	True
137.762	0.3	Control	0.8571	0.004	No	2.783	-0.004	3.0	PrematurePress	0	0.099	n/a	2	13	ButtonPress	Neutral	True
137.947	0.43	Control	0.8571	n/a	No	2.783	n/a	n/a	PrematurePress	0	n/a	n/a	2	13	Blank	Neutral	True
138.365	1.45	Control	0.8571	n/a	No	2.783	n/a	5.0	PrematurePress	0	0.047	137.412	2	13	Feedback	Neutral	True
139.82	2.783	Control	0.8571	n/a	No	2.783	n/a	n/a	PrematurePress	0	0.0	n/a	2	13	ISIslide	Neutral	True
142.628	0.25	Win2	0.8667	0.0	Yes	2.672	0.028	n/a	GoodResponse	1	n/a	n/a	3	14	Cue	Win	True
142.879	4.1	Win2	0.8667	0.0	Yes	2.672	0.001	n/a	GoodResponse	1	n/a	n/a	3	14	Fixation	Win	True
146.974	0.26	Win2	0.8667	0.004	Yes	2.672	-0.004	3.0	GoodResponse	1	0.196	146.17	3	14	Target	Win	True
147.17	0.3	Win2	0.8667	0.004	Yes	2.672	-0.004	3.0	GoodResponse	1	0.196	n/a	3	14	ButtonPress	Win	True
147.242	0.44	Win2	0.8667	n/a	Yes	2.672	n/a	n/a	GoodResponse	1	n/a	n/a	3	14	Blank	Win	True
147.677	1.45	Win2	0.8667	n/a	Yes	2.672	n/a	5.0	GoodResponse	1	0.006	146.683	3	14	Feedback	Win	True
149.131	2.672	Win2	0.8667	n/a	Yes	2.672	n/a	n/a	GoodResponse	1	0.0	n/a	3	14	ISIslide	Win	True
151.822	0.25	Control	0.875	0.0	Yes	2.978	0.022	n/a	GoodResponse	0	n/a	n/a	3	15	Cue	Neutral	True
152.073	4.0	Control	0.875	0.0	Yes	2.978	0.001	n/a	GoodResponse	0	n/a	n/a	3	15	Fixation	Neutral	True
156.068	0.25	Control	0.875	0.004	Yes	2.978	-0.004	3.0	GoodResponse	0	0.239	155.307	3	15	Target	Neutral	True
156.307	0.3	Control	0.875	0.004	Yes	2.978	-0.004	3.0	GoodResponse	0	0.239	n/a	3	15	ButtonPress	Neutral	True
156.319	0.45	Control	0.875	n/a	Yes	2.978	n/a	n/a	GoodResponse	0	n/a	n/a	3	15	Blank	Neutral	True
156.77	1.45	Control	0.875	n/a	Yes	2.978	n/a	5.0	GoodResponse	0	0.033	155.803	3	15	Feedback	Neutral	True
158.225	2.978	Control	0.875	n/a	Yes	2.978	n/a	n/a	GoodResponse	0	0.0	n/a	3	15	ISIslide	Neutral	True
161.217	0.25	Win2	0.8824	0.0	Yes	2.883	0.017	n/a	GoodResponse	1	n/a	n/a	4	16	Cue	Win	True
161.468	4.0	Win2	0.8824	0.0	Yes	2.883	0.001	n/a	GoodResponse	1	n/a	n/a	4	16	Fixation	Win	True
165.463	0.24	Win2	0.8824	0.004	Yes	2.883	-0.004	3.0	GoodResponse	1	0.226	164.689	4	16	Target	Win	True
165.689	0.3	Win2	0.8824	0.004	Yes	2.883	-0.004	3.0	GoodResponse	1	0.226	n/a	4	16	ButtonPress	Win	True
165.714	0.46	Win2	0.8824	n/a	Yes	2.883	n/a	n/a	GoodResponse	1	n/a	n/a	4	16	Blank	Win	True
166.165	1.45	Win2	0.8824	n/a	Yes	2.883	n/a	5.0	GoodResponse	1	0.007	165.172	4	16	Feedback	Win	True
167.62	2.883	Win2	0.8824	n/a	Yes	2.883	n/a	n/a	GoodResponse	1	0.0	n/a	4	16	ISIslide	Win	True
170.528	0.25	Lose2	0.8332999999999999	0.0	No	2.722	0.028	n/a	NoResponse	-1	n/a	n/a	3	17	Cue	Loss	True
170.779	3.95	Lose2	0.8332999999999999	0.0	No	2.722	0.001	n/a	NoResponse	-1	n/a	n/a	3	17	Fixation	Loss	True
174.724	0.23	Lose2	0.8332999999999999	0.004	No	2.722	-0.004	3.0	NoResponse	-1	0.387	174.111	3	17	Target	Loss	True
174.958	0.47	Lose2	0.8332999999999999	n/a	No	2.722	n/a	n/a	NoResponse	-1	n/a	n/a	3	17	Blank	Loss	True
175.111	0.3	Lose2	0.8332999999999999	0.004	No	2.722	-0.004	3.0	NoResponse	-1	0.387	n/a	3	17	ButtonPress	Loss	True
175.426	1.45	Lose2	0.8332999999999999	n/a	No	2.722	n/a	5.0	NoResponse	-1	0.011	174.437	3	17	Feedback	Loss	True
176.881	2.722	Lose2	0.8332999999999999	n/a	No	2.722	n/a	n/a	NoResponse	-1	0.0	n/a	3	17	ISIslide	Loss	True
179.622	0.25	Lose2	0.7895	0.0	No	2.728	0.022	n/a	NoResponse	-1	n/a	n/a	2	18	Cue	Loss	True
179.873	4.05	Lose2	0.7895	0.0	No	2.728	0.001	n/a	NoResponse	-1	n/a	n/a	2	18	Fixation	Loss	True
183.918	0.22	Lose2	0.7895	0.004	No	2.728	-0.004	3.0	NoResponse	-1	0.244	183.162	2	18	Target	Loss	True
184.153	0.48	Lose2	0.7895	n/a	No	2.728	n/a	n/a	NoResponse	-1	n/a	n/a	2	18	Blank	Loss	True
184.162	0.3	Lose2	0.7895	0.004	No	2.728	-0.004	3.0	NoResponse	-1	0.244	n/a	2	18	ButtonPress	Loss	True
184.621	1.45	Lose2	0.7895	n/a	No	2.728	n/a	5.0	NoResponse	-1	0.035	183.656	2	18	Feedback	Loss	True
186.075	2.728	Lose2	0.7895	n/a	No	2.728	n/a	n/a	NoResponse	-1	0.0	n/a	2	18	ISIslide	Loss	True
188.816	0.25	Control	0.75	0.001	No	2.934	0.016	n/a	LatePress	0	n/a	n/a	2	19	Cue	Neutral	True
189.067	3.95	Control	0.75	0.0	No	2.934	0.001	n/a	LatePress	0	n/a	n/a	2	19	Fixation	Neutral	True
193.012	0.21	Control	0.75	0.004	No	2.934	-0.004	3.0	LatePress	0	0.21	192.222	2	19	Target	Neutral	True
193.222	0.3	Control	0.75	0.004	No	2.934	-0.004	3.0	LatePress	0	0.21	n/a	2	19	ButtonPress	Neutral	True
193.23	0.49	Control	0.75	n/a	No	2.934	n/a	n/a	LatePress	0	n/a	n/a	2	19	Blank	Neutral	True
193.714	1.45	Control	0.75	n/a	No	2.934	n/a	5.0	LatePress	0	0.015	192.729	2	19	Feedback	Neutral	True
195.169	2.934	Control	0.75	n/a	No	2.934	n/a	n/a	LatePress	0	0.0	n/a	2	19	ISIslide	Neutral	True
198.128	0.25	Control	0.7143	0.0	No	2.622	0.028	n/a	NoResponse	0	n/a	n/a	2	20	Cue	Neutral	True
198.378	4.05	Control	0.7143	0.001	No	2.622	0.0	n/a	NoResponse	0	n/a	n/a	2	20	Fixation	Neutral	True
202.424	0.2	Control	0.7143	0.004	No	2.622	-0.004	3.0	NoResponse	0	0.217	201.641	2	20	Target	Neutral	True
202.625	0.5	Control	0.7143	n/a	No	2.622	n/a	n/a	NoResponse	0	n/a	n/a	2	20	Blank	Neutral	True
202.641	0.3	Control	0.7143	0.004	No	2.622	-0.004	3.0	NoResponse	0	0.217	n/a	2	20	ButtonPress	Neutral	True
203.126	1.45	Control	0.7143	n/a	No	2.622	n/a	5.0	NoResponse	0	0.018	202.144	2	20	Feedback	Neutral	True
204.58	2.622	Control	0.7143	n/a	No	2.622	n/a	n/a	NoResponse	0	0.0	n/a	2	20	ISIslide	Neutral	True
207.222	0.25	Control	0.6818000000000001	0.0	No	2.778	0.022	n/a	NoResponse	0	n/a	n/a	2	21	Cue	Neutral	True
207.472	4.1	Control	0.6818000000000001	0.0	No	2.778	0.0	n/a	NoResponse	0	n/a	n/a	2	21	Fixation	Neutral	True
211.568	0.19	Control	0.6818000000000001	0.004	No	2.778	-0.004	3.0	NoResponse	0	0.226	210.794	2	21	Target	Neutral	True
211.769	0.51	Control	0.6818000000000001	n/a	No	2.778	n/a	n/a	NoResponse	0	n/a	n/a	2	21	Blank	Neutral	True
211.794	0.3	Control	0.6818000000000001	0.004	No	2.778	-0.004	3.0	NoResponse	0	0.226	n/a	2	21	ButtonPress	Neutral	True
212.27	1.45	Control	0.6818000000000001	n/a	No	2.778	n/a	5.0	NoResponse	0	0.044	211.314	2	21	Feedback	Neutral	True
213.724	2.778	Control	0.6818000000000001	n/a	No	2.778	n/a	n/a	NoResponse	0	0.0	n/a	2	21	ISIslide	Neutral	True
216.516	0.25	Control	0.6522	0.0	No	2.784	0.016	n/a	NoResponse	0	n/a	n/a	2	22	Cue	Neutral	True
216.767	4.0	Control	0.6522	0.0	No	2.784	0.001	n/a	NoResponse	0	n/a	n/a	2	22	Fixation	Neutral	True
220.762	0.18	Control	0.6522	0.004	No	2.784	-0.004	3.0	NoResponse	0	0.217	219.979	2	22	Target	Neutral	True
220.946	0.52	Control	0.6522	n/a	No	2.784	n/a	n/a	NoResponse	0	n/a	n/a	2	22	Blank	Neutral	True
220.979	0.3	Control	0.6522	0.004	No	2.784	-0.004	3.0	NoResponse	0	0.217	n/a	2	22	ButtonPress	Neutral	True
221.464	1.45	Control	0.6522	n/a	No	2.784	n/a	5.0	NoResponse	0	0.021	220.485	2	22	Feedback	Neutral	True
222.919	2.784	Control	0.6522	n/a	No	2.784	n/a	n/a	NoResponse	0	0.0	n/a	2	22	ISIslide	Neutral	True
225.727	0.25	Control	0.625	0.0	No	2.773	0.027	n/a	NoResponse	0	n/a	n/a	2	23	Cue	Neutral	False
225.978	3.9	Control	0.625	0.0	No	2.773	0.001	3.0	NoResponse	0	3.563	228.541	2	23	Fixation	Neutral	False
229.541	0.3	Control	0.625	0.0	No	2.773	0.001	3.0	NoResponse	0	3.563	n/a	2	23	ButtonPress	Neutral	False
229.873	0.19	Control	0.625	0.004	No	2.773	-0.004	3.0	NoResponse	0	0.269	229.142	2	23	Target	Neutral	False
230.073	0.51	Control	0.625	n/a	No	2.773	n/a	n/a	NoResponse	0	n/a	n/a	2	23	Blank	Neutral	False
230.142	0.3	Control	0.625	0.004	No	2.773	-0.004	3.0	NoResponse	0	0.269	n/a	2	23	ButtonPress	Neutral	False
230.575	1.45	Control	0.625	n/a	No	2.773	n/a	5.0	NoResponse	0	0.032	229.607	2	23	Feedback	Neutral	False
232.029	2.773	Control	0.625	n/a	No	2.773	n/a	n/a	NoResponse	0	0.0	n/a	2	23	ISIslide	Neutral	False
234.821	0.25	Win2	0.6	0.0	No	3.129	0.021	n/a	NoResponse	0	n/a	n/a	2	24	Cue	MissedWin	True
235.072	3.95	Win2	0.6	0.0	No	3.129	0.001	n/a	NoResponse	0	n/a	n/a	2	24	Fixation	MissedWin	True
239.017	0.2	Win2	0.6	0.004	No	3.129	-0.004	3.0	NoResponse	0	0.23	238.247	2	24	Target	MissedWin	True
239.218	0.5	Win2	0.6	n/a	No	3.129	n/a	n/a	NoResponse	0	n/a	n/a	2	24	Blank	MissedWin	True
239.247	0.3	Win2	0.6	0.004	No	3.129	-0.004	3.0	NoResponse	0	0.23	n/a	2	24	ButtonPress	MissedWin	True
239.719	1.45	Win2	0.6	n/a	No	3.129	n/a	5.0	NoResponse	0	0.01	238.729	2	24	Feedback	MissedWin	True
241.173	3.129	Win2	0.6	n/a	No	3.129	n/a	n/a	NoResponse	0	0.0	n/a	2	24	ISIslide	MissedWin	True
244.316	0.25	Win2	0.5769	0.0	No	3.084	0.016	n/a	LatePress	0	n/a	n/a	2	25	Cue	MissedWin	True
244.567	4.0	Win2	0.5769	0.0	No	3.084	0.001	n/a	LatePress	0	n/a	n/a	2	25	Fixation	MissedWin	True
248.562	0.21	Win2	0.5769	0.004	No	3.084	-0.004	3.0	LatePress	0	0.215	247.777	2	25	Target	MissedWin	True
248.777	0.3	Win2	0.5769	0.004	No	3.084	-0.004	3.0	LatePress	0	0.215	n/a	2	25	ButtonPress	MissedWin	True
248.779	0.49	Win2	0.5769	n/a	No	3.084	n/a	n/a	LatePress	0	n/a	n/a	2	25	Blank	MissedWin	True
249.264	1.45	Win2	0.5769	n/a	No	3.084	n/a	5.0	LatePress	0	0.025	248.289	2	25	Feedback	MissedWin	True
250.719	3.084	Win2	0.5769	n/a	No	3.084	n/a	n/a	LatePress	0	0.0	n/a	2	25	ISIslide	MissedWin	True
253.828	0.25	Win2	0.5926	0.0	Yes	2.922	0.028	n/a	GoodResponse	1	n/a	n/a	3	26	Cue	Win	True
254.079	3.95	Win2	0.5926	0.0	Yes	2.922	0.001	n/a	GoodResponse	1	n/a	n/a	3	26	Fixation	Win	True
258.024	0.22	Win2	0.5926	0.004	Yes	2.922	-0.004	3.0	GoodResponse	1	0.206	257.23	3	26	Target	Win	True
258.23	0.3	Win2	0.5926	0.004	Yes	2.922	-0.004	3.0	GoodResponse	1	0.206	n/a	3	26	ButtonPress	Win	True
258.258	0.48	Win2	0.5926	n/a	Yes	2.922	n/a	n/a	GoodResponse	1	n/a	n/a	3	26	Blank	Win	True
258.726	1.45	Win2	0.5926	n/a	Yes	2.922	n/a	5.0	GoodResponse	1	0.027	257.753	3	26	Feedback	Win	True
260.18	2.922	Win2	0.5926	n/a	Yes	2.922	n/a	n/a	GoodResponse	1	0.0	n/a	3	26	ISIslide	Win	True
263.122	0.25	Lose2	0.6071	0.001	Yes	2.828	0.022	n/a	GoodResponse	0	n/a	n/a	3	27	Cue	AvoidedLoss	True
263.373	4.05	Lose2	0.6071	0.0	Yes	2.828	0.001	n/a	GoodResponse	0	n/a	n/a	3	27	Fixation	AvoidedLoss	True
267.419	0.23	Lose2	0.6071	0.003	Yes	2.828	-0.003	3.0	GoodResponse	0	0.209	266.628	3	27	Target	AvoidedLoss	True
267.628	0.3	Lose2	0.6071	0.003	Yes	2.828	-0.003	3.0	GoodResponse	0	0.209	n/a	3	27	ButtonPress	AvoidedLoss	True
267.653	0.47	Lose2	0.6071	n/a	Yes	2.828	n/a	n/a	GoodResponse	0	n/a	n/a	3	27	Blank	AvoidedLoss	True
268.121	1.45	Lose2	0.6071	n/a	Yes	2.828	n/a	5.0	GoodResponse	0	0.047	267.168	3	27	Feedback	AvoidedLoss	True
269.575	2.828	Lose2	0.6071	n/a	Yes	2.828	n/a	n/a	GoodResponse	0	0.0	n/a	3	27	ISIslide	AvoidedLoss	True
272.417	0.25	Control	0.6207	0.0	Yes	2.833	0.017	n/a	GoodResponse	0	n/a	n/a	3	28	Cue	Neutral	True
272.668	4.05	Control	0.6207	0.0	Yes	2.833	0.001	n/a	GoodResponse	0	n/a	n/a	3	28	Fixation	Neutral	True
276.713	0.24	Control	0.6207	0.004	Yes	2.833	-0.004	3.0	GoodResponse	0	0.225	275.938	3	28	Target	Neutral	True
276.938	0.3	Control	0.6207	0.004	Yes	2.833	-0.004	3.0	GoodResponse	0	0.225	n/a	3	28	ButtonPress	Neutral	True
276.964	0.46	Control	0.6207	n/a	Yes	2.833	n/a	n/a	GoodResponse	0	n/a	n/a	3	28	Blank	Neutral	True
277.415	1.45	Control	0.6207	n/a	Yes	2.833	n/a	5.0	GoodResponse	0	0.021	276.436	3	28	Feedback	Neutral	True
278.87	2.833	Control	0.6207	n/a	Yes	2.833	n/a	n/a	GoodResponse	0	0.0	n/a	3	28	ISIslide	Neutral	True
281.728	0.25	Lose2	0.6333	0.0	Yes	2.822	0.028	n/a	GoodResponse	0	n/a	n/a	3	29	Cue	AvoidedLoss	True
281.979	3.95	Lose2	0.6333	0.0	Yes	2.822	0.001	n/a	GoodResponse	0	n/a	n/a	3	29	Fixation	AvoidedLoss	True
285.924	0.25	Lose2	0.6333	0.004	Yes	2.822	-0.004	3.0	GoodResponse	0	0.214	285.138	3	29	Target	AvoidedLoss	True
286.138	0.3	Lose2	0.6333	0.004	Yes	2.822	-0.004	3.0	GoodResponse	0	0.214	n/a	3	29	ButtonPress	AvoidedLoss	True
286.175	0.45	Lose2	0.6333	n/a	Yes	2.822	n/a	n/a	GoodResponse	0	n/a	n/a	3	29	Blank	AvoidedLoss	True
286.626	1.45	Lose2	0.6333	n/a	Yes	2.822	n/a	5.0	GoodResponse	0	0.029	285.655	3	29	Feedback	AvoidedLoss	True
288.081	2.822	Lose2	0.6333	n/a	Yes	2.822	n/a	n/a	GoodResponse	0	0.0	n/a	3	29	ISIslide	AvoidedLoss	True
290.922	0.25	Win2	0.6129	0.001	No	2.778	0.022	n/a	NoResponse	0	n/a	n/a	3	30	Cue	MissedWin	True
291.173	3.9	Win2	0.6129	0.0	No	2.778	0.001	n/a	NoResponse	0	n/a	n/a	3	30	Fixation	MissedWin	True
295.068	0.26	Win2	0.6129	0.004	No	2.778	-0.004	3.0	NoResponse	0	0.288	294.356	3	30	Target	MissedWin	True
295.336	0.44	Win2	0.6129	n/a	No	2.778	n/a	n/a	NoResponse	0	n/a	n/a	3	30	Blank	MissedWin	True
295.356	0.3	Win2	0.6129	0.004	No	2.778	-0.004	3.0	NoResponse	0	0.288	n/a	3	30	ButtonPress	MissedWin	True
295.77	1.45	Win2	0.6129	n/a	No	2.778	n/a	5.0	NoResponse	0	0.007	294.777	3	30	Feedback	MissedWin	True
297.225	2.778	Win2	0.6129	n/a	No	2.778	n/a	n/a	NoResponse	0	0.0	n/a	3	30	ISIslide	MissedWin	True
300.016	0.25	Lose2	0.5938	0.0	No	2.834	0.016	n/a	NoResponse	-1	n/a	n/a	2	31	Cue	Loss	True
300.267	4.05	Lose2	0.5938	0.0	No	2.834	0.001	n/a	NoResponse	-1	n/a	n/a	2	31	Fixation	Loss	True
304.313	0.27	Lose2	0.5938	0.003	No	2.834	-0.003	3.0	NoResponse	-1	0.301	303.614	2	31	Target	Loss	True
304.597	0.43	Lose2	0.5938	n/a	No	2.834	n/a	n/a	NoResponse	-1	n/a	n/a	2	31	Blank	Loss	True
304.614	0.3	Lose2	0.5938	0.003	No	2.834	-0.003	3.0	NoResponse	-1	0.301	n/a	2	31	ButtonPress	Loss	True
305.015	1.45	Lose2	0.5938	n/a	No	2.834	n/a	5.0	NoResponse	-1	0.03	304.045	2	31	Feedback	Loss	True
306.469	2.834	Lose2	0.5938	n/a	No	2.834	n/a	n/a	NoResponse	-1	0.0	n/a	2	31	ISIslide	Loss	True
309.328	0.25	Lose2	0.6061	0.0	Yes	2.622	0.028	n/a	GoodResponse	0	n/a	n/a	2	32	Cue	AvoidedLoss	True
309.578	4.15	Lose2	0.6061	0.0	Yes	2.622	0.0	n/a	GoodResponse	0	n/a	n/a	2	32	Fixation	AvoidedLoss	True
313.724	0.28	Lose2	0.6061	0.004	Yes	2.622	-0.004	3.0	GoodResponse	0	0.203	312.927	2	32	Target	AvoidedLoss	True
313.927	0.3	Lose2	0.6061	0.004	Yes	2.622	-0.004	3.0	GoodResponse	0	0.203	n/a	2	32	ButtonPress	AvoidedLoss	True
314.008	0.42	Lose2	0.6061	n/a	Yes	2.622	n/a	n/a	GoodResponse	0	n/a	n/a	2	32	Blank	AvoidedLoss	True
314.426	1.45	Lose2	0.6061	n/a	Yes	2.622	n/a	5.0	GoodResponse	0	0.034	313.46	2	32	Feedback	AvoidedLoss	True
315.881	2.622	Lose2	0.6061	n/a	Yes	2.622	n/a	n/a	GoodResponse	0	0.0	n/a	2	32	ISIslide	AvoidedLoss	True
318.522	0.25	Win2	0.5882000000000001	0.0	No	2.678	0.022	n/a	LatePress	0	n/a	n/a	2	33	Cue	MissedWin	True
318.773	4.0	Win2	0.5882000000000001	0.0	No	2.678	0.001	n/a	LatePress	0	n/a	n/a	2	33	Fixation	MissedWin	True
322.768	0.29	Win2	0.5882000000000001	0.004	No	2.678	-0.004	3.0	LatePress	0	0.296	322.064	2	33	Target	MissedWin	True
323.064	0.3	Win2	0.5882000000000001	0.004	No	2.678	-0.004	3.0	LatePress	0	0.296	n/a	2	33	ButtonPress	MissedWin	True
323.069	0.41	Win2	0.5882000000000001	n/a	No	2.678	n/a	n/a	LatePress	0	n/a	n/a	2	33	Blank	MissedWin	True
323.47	1.45	Win2	0.5882000000000001	n/a	No	2.678	n/a	5.0	LatePress	0	0.014	322.484	2	33	Feedback	MissedWin	True
324.924	2.678	Win2	0.5882000000000001	n/a	No	2.678	n/a	n/a	LatePress	0	0.0	n/a	2	33	ISIslide	MissedWin	True
327.616	0.25	Lose2	0.6	0.0	Yes	2.634	0.016	n/a	GoodResponse	0	n/a	n/a	2	34	Cue	AvoidedLoss	True
327.866	4.05	Lose2	0.6	0.001	Yes	2.634	0.0	n/a	GoodResponse	0	n/a	n/a	2	34	Fixation	AvoidedLoss	True
331.912	0.3	Lose2	0.6	0.004	Yes	2.634	-0.004	3.0	GoodResponse	0	0.213	331.125	2	34	Target	AvoidedLoss	True
332.125	0.3	Lose2	0.6	0.004	Yes	2.634	-0.004	3.0	GoodResponse	0	0.213	n/a	2	34	ButtonPress	AvoidedLoss	True
332.213	0.4	Lose2	0.6	n/a	Yes	2.634	n/a	n/a	GoodResponse	0	n/a	n/a	2	34	Blank	AvoidedLoss	True
332.614	1.45	Lose2	0.6	n/a	Yes	2.634	n/a	5.0	GoodResponse	0	0.041	331.655	2	34	Feedback	AvoidedLoss	True
334.068	2.634	Lose2	0.6	n/a	Yes	2.634	n/a	n/a	GoodResponse	0	0.0	n/a	2	34	ISIslide	AvoidedLoss	True
336.726	0.25	Lose2	0.6111	0.0	Yes	2.674	0.026	n/a	GoodResponse	0	n/a	n/a	2	35	Cue	AvoidedLoss	True
336.977	4.0	Lose2	0.6111	0.0	Yes	2.674	0.001	n/a	GoodResponse	0	n/a	n/a	2	35	Fixation	AvoidedLoss	True
340.972	0.31	Lose2	0.6111	0.004	Yes	2.674	-0.004	3.0	GoodResponse	0	0.224	340.196	2	35	Target	AvoidedLoss	True
341.196	0.3	Lose2	0.6111	0.004	Yes	2.674	-0.004	3.0	GoodResponse	0	0.224	n/a	2	35	ButtonPress	AvoidedLoss	True
341.29	0.39	Lose2	0.6111	n/a	Yes	2.674	n/a	n/a	GoodResponse	0	n/a	n/a	2	35	Blank	AvoidedLoss	True
341.675	1.45	Lose2	0.6111	n/a	Yes	2.674	n/a	5.0	GoodResponse	0	0.006	340.681	2	35	Feedback	AvoidedLoss	True
343.129	2.674	Lose2	0.6111	n/a	Yes	2.674	n/a	n/a	GoodResponse	0	0.0	n/a	2	35	ISIslide	AvoidedLoss	True
345.82	0.25	Control	0.6215999999999999	0.0	Yes	2.68	0.02	n/a	GoodResponse	0	n/a	n/a	2	36	Cue	Neutral	True
346.071	4.0	Control	0.6215999999999999	0.0	Yes	2.68	0.001	n/a	GoodResponse	0	n/a	n/a	2	36	Fixation	Neutral	True
350.066	0.32	Control	0.6215999999999999	0.004	Yes	2.68	-0.004	3.0	GoodResponse	0	0.177	349.243	2	36	Target	Neutral	True
350.243	0.3	Control	0.6215999999999999	0.004	Yes	2.68	-0.004	3.0	GoodResponse	0	0.177	n/a	2	36	ButtonPress	Neutral	True
350.401	0.38	Control	0.6215999999999999	n/a	Yes	2.68	n/a	n/a	GoodResponse	0	n/a	n/a	2	36	Blank	Neutral	True
350.768	1.45	Control	0.6215999999999999	n/a	Yes	2.68	n/a	5.0	GoodResponse	0	0.033	349.801	2	36	Feedback	Neutral	True
352.223	2.68	Control	0.6215999999999999	n/a	Yes	2.68	n/a	n/a	GoodResponse	0	0.0	n/a	2	36	ISIslide	Neutral	True
354.931	0.25	Win2	0.6315999999999999	0.0	Yes	2.869	0.031	n/a	GoodResponse	1	n/a	n/a	3	37	Cue	Win	True
355.182	4.0	Win2	0.6315999999999999	0.0	Yes	2.869	0.001	n/a	GoodResponse	1	n/a	n/a	3	37	Fixation	Win	True
359.177	0.33	Win2	0.6315999999999999	0.004	Yes	2.869	-0.004	3.0	GoodResponse	1	0.246	358.423	3	37	Target	Win	True
359.423	0.3	Win2	0.6315999999999999	0.004	Yes	2.869	-0.004	3.0	GoodResponse	1	0.246	n/a	3	37	ButtonPress	Win	True
359.511	0.37	Win2	0.6315999999999999	n/a	Yes	2.869	n/a	n/a	GoodResponse	1	n/a	n/a	3	37	Blank	Win	True
359.879	1.45	Win2	0.6315999999999999	n/a	Yes	2.869	n/a	5.0	GoodResponse	1	0.044	358.923	3	37	Feedback	Win	True
361.333	2.869	Win2	0.6315999999999999	n/a	Yes	2.869	n/a	n/a	GoodResponse	1	0.0	n/a	3	37	ISIslide	Win	True
364.225	0.25	Lose2	0.6409999999999999	0.001	Yes	2.825	0.025	n/a	GoodResponse	0	n/a	n/a	3	38	Cue	AvoidedLoss	True
364.476	3.95	Lose2	0.6409999999999999	0.0	Yes	2.825	0.001	n/a	GoodResponse	0	n/a	n/a	3	38	Fixation	AvoidedLoss	True
368.421	0.34	Lose2	0.6409999999999999	0.004	Yes	2.825	-0.004	3.0	GoodResponse	0	0.221	367.642	3	38	Target	AvoidedLoss	True
368.642	0.3	Lose2	0.6409999999999999	0.004	Yes	2.825	-0.004	3.0	GoodResponse	0	0.221	n/a	3	38	ButtonPress	AvoidedLoss	True
368.772	0.36	Lose2	0.6409999999999999	n/a	Yes	2.825	n/a	n/a	GoodResponse	0	n/a	n/a	3	38	Blank	AvoidedLoss	True
369.123	1.45	Lose2	0.6409999999999999	n/a	Yes	2.825	n/a	5.0	GoodResponse	0	0.019	368.142	3	38	Feedback	AvoidedLoss	True
370.578	2.825	Lose2	0.6409999999999999	n/a	Yes	2.825	n/a	n/a	GoodResponse	0	0.0	n/a	3	38	ISIslide	AvoidedLoss	True
373.42	0.25	Win2	0.65	0.0	Yes	2.98	0.02	n/a	GoodResponse	1	n/a	n/a	4	39	Cue	Win	True
373.67	4.1	Win2	0.65	0.0	Yes	2.98	0.0	n/a	GoodResponse	1	n/a	n/a	4	39	Fixation	Win	True
377.766	0.35	Win2	0.65	0.004	Yes	2.98	-0.004	3.0	GoodResponse	1	0.298	377.064	4	39	Target	Win	True
378.064	0.3	Win2	0.65	0.004	Yes	2.98	-0.004	3.0	GoodResponse	1	0.298	n/a	4	39	ButtonPress	Win	True
378.117	0.35	Win2	0.65	n/a	Yes	2.98	n/a	n/a	GoodResponse	1	n/a	n/a	4	39	Blank	Win	True
378.468	1.45	Win2	0.65	n/a	Yes	2.98	n/a	5.0	GoodResponse	1	0.04	377.508	4	39	Feedback	Win	True
379.922	2.98	Win2	0.65	n/a	Yes	2.98	n/a	n/a	GoodResponse	1	0.0	n/a	4	39	ISIslide	Win	True
382.931	0.25	Win2	0.6585	0.001	Yes	2.719	0.031	n/a	GoodResponse	1	n/a	n/a	5	40	Cue	Win	True
383.182	3.95	Win2	0.6585	0.0	Yes	2.719	0.001	n/a	GoodResponse	1	n/a	n/a	5	40	Fixation	Win	True
387.127	0.36	Win2	0.6585	0.004	Yes	2.719	-0.004	3.0	GoodResponse	1	0.23	386.357	5	40	Target	Win	True
387.357	0.3	Win2	0.6585	0.004	Yes	2.719	-0.004	3.0	GoodResponse	1	0.23	n/a	5	40	ButtonPress	Win	True
387.495	0.34	Win2	0.6585	n/a	Yes	2.719	n/a	n/a	GoodResponse	1	n/a	n/a	5	40	Blank	Win	True
387.829	1.45	Win2	0.6585	n/a	Yes	2.719	n/a	5.0	GoodResponse	1	0.045	386.874	5	40	Feedback	Win	True
389.284	2.719	Win2	0.6585	n/a	Yes	2.719	n/a	n/a	GoodResponse	1	0.0	n/a	5	40	ISIslide	Win	True
392.025	0.25	Win2	0.6667000000000001	0.0	Yes	2.775	0.025	n/a	GoodResponse	1	n/a	n/a	6	41	Cue	Win	True
392.276	3.9	Win2	0.6667000000000001	0.0	Yes	2.775	0.001	n/a	GoodResponse	1	n/a	n/a	6	41	Fixation	Win	True
396.171	0.36	Win2	0.6667000000000001	0.004	Yes	2.775	-0.004	3.0	GoodResponse	1	0.21	395.381	6	41	Target	Win	True
396.381	0.3	Win2	0.6667000000000001	0.004	Yes	2.775	-0.004	3.0	GoodResponse	1	0.21	n/a	6	41	ButtonPress	Win	True
396.539	0.34	Win2	0.6667000000000001	n/a	Yes	2.775	n/a	n/a	GoodResponse	1	n/a	n/a	6	41	Blank	Win	True
396.873	1.45	Win2	0.6667000000000001	n/a	Yes	2.775	n/a	5.0	GoodResponse	1	0.025	395.898	6	41	Feedback	Win	True
398.328	2.775	Win2	0.6667000000000001	n/a	Yes	2.775	n/a	n/a	GoodResponse	1	0.0	n/a	6	41	ISIslide	Win	True
401.119	0.25	Control	0.6744	0.0	Yes	2.931	0.019	n/a	GoodResponse	0	n/a	n/a	6	42	Cue	Neutral	True
401.37	3.85	Control	0.6744	0.0	Yes	2.931	0.001	n/a	GoodResponse	0	n/a	n/a	6	42	Fixation	Neutral	True
405.215	0.35	Control	0.6744	0.004	Yes	2.931	-0.004	3.0	GoodResponse	0	0.225	404.44	6	42	Target	Neutral	True
405.44	0.3	Control	0.6744	0.004	Yes	2.931	-0.004	3.0	GoodResponse	0	0.225	n/a	6	42	ButtonPress	Neutral	True
405.566	0.35	Control	0.6744	n/a	Yes	2.931	n/a	n/a	GoodResponse	0	n/a	n/a	6	42	Blank	Neutral	True
405.917	1.45	Control	0.6744	n/a	Yes	2.931	n/a	5.0	GoodResponse	0	0.007	404.924	6	42	Feedback	Neutral	True
407.371	2.931	Control	0.6744	n/a	Yes	2.931	n/a	n/a	GoodResponse	0	0.0	n/a	6	42	ISIslide	Neutral	True
410.33	0.25	Win2	0.6818000000000001	0.0	Yes	3.17	0.03	n/a	GoodResponse	1	n/a	n/a	7	43	Cue	Win	True
410.581	4.0	Win2	0.6818000000000001	0.0	Yes	3.17	0.001	n/a	GoodResponse	1	n/a	n/a	7	43	Fixation	Win	True
414.576	0.34	Win2	0.6818000000000001	0.004	Yes	3.17	-0.004	3.0	GoodResponse	1	0.24	413.816	7	43	Target	Win	True
414.816	0.3	Win2	0.6818000000000001	0.004	Yes	3.17	-0.004	3.0	GoodResponse	1	0.24	n/a	7	43	ButtonPress	Win	True
414.927	0.36	Win2	0.6818000000000001	n/a	Yes	3.17	n/a	n/a	GoodResponse	1	n/a	n/a	7	43	Blank	Win	True
415.278	1.45	Win2	0.6818000000000001	n/a	Yes	3.17	n/a	5.0	GoodResponse	1	0.011	414.289	7	43	Feedback	Win	True
416.733	3.17	Win2	0.6818000000000001	n/a	Yes	3.17	n/a	n/a	GoodResponse	1	0.0	n/a	7	43	ISIslide	Win	True
419.926	0.25	Win2	0.6889	0.0	Yes	2.974	0.026	n/a	GoodResponse	1	n/a	n/a	8	44	Cue	Win	True
420.176	4.0	Win2	0.6889	0.0	Yes	2.974	0.0	n/a	GoodResponse	1	n/a	n/a	8	44	Fixation	Win	True
424.172	0.33	Win2	0.6889	0.004	Yes	2.974	-0.004	3.0	GoodResponse	1	0.268	423.44	8	44	Target	Win	True
424.44	0.3	Win2	0.6889	0.004	Yes	2.974	-0.004	3.0	GoodResponse	1	0.268	n/a	8	44	ButtonPress	Win	True
424.506	0.37	Win2	0.6889	n/a	Yes	2.974	n/a	n/a	GoodResponse	1	n/a	n/a	8	44	Blank	Win	True
424.874	1.45	Win2	0.6889	n/a	Yes	2.974	n/a	5.0	GoodResponse	1	0.023	423.897	8	44	Feedback	Win	True
426.328	2.974	Win2	0.6889	n/a	Yes	2.974	n/a	n/a	GoodResponse	1	0.0	n/a	8	44	ISIslide	Win	True
429.32	0.25	Control	0.6957	0.001	Yes	2.88	0.02	n/a	GoodResponse	0	n/a	n/a	8	45	Cue	Neutral	True
429.571	4.1	Control	0.6957	0.0	Yes	2.88	0.001	n/a	GoodResponse	0	n/a	n/a	8	45	Fixation	Neutral	True
433.667	0.32	Control	0.6957	0.003	Yes	2.88	-0.003	3.0	GoodResponse	0	0.235	432.902	8	45	Target	Neutral	True
433.902	0.3	Control	0.6957	0.003	Yes	2.88	-0.003	3.0	GoodResponse	0	0.235	n/a	8	45	ButtonPress	Neutral	True
434.001	0.38	Control	0.6957	n/a	Yes	2.88	n/a	n/a	GoodResponse	0	n/a	n/a	8	45	Blank	Neutral	True
434.369	1.45	Control	0.6957	n/a	Yes	2.88	n/a	5.0	GoodResponse	0	0.041	433.41	8	45	Feedback	Neutral	True
435.823	2.88	Control	0.6957	n/a	Yes	2.88	n/a	n/a	GoodResponse	0	0.0	n/a	8	45	ISIslide	Neutral	True
438.715	0.25	Lose2	0.7021	0.0	Yes	3.385	0.015	n/a	GoodResponse	0	n/a	n/a	8	46	Cue	AvoidedLoss	True
438.966	4.0	Lose2	0.7021	0.0	Yes	3.385	0.001	n/a	GoodResponse	0	n/a	n/a	8	46	Fixation	AvoidedLoss	True
442.961	0.31	Lose2	0.7021	0.004	Yes	3.385	-0.004	3.0	GoodResponse	0	0.202	442.163	8	46	Target	AvoidedLoss	True
443.163	0.3	Lose2	0.7021	0.004	Yes	3.385	-0.004	3.0	GoodResponse	0	0.202	n/a	8	46	ButtonPress	AvoidedLoss	True
443.279	0.39	Lose2	0.7021	n/a	Yes	3.385	n/a	n/a	GoodResponse	0	n/a	n/a	8	46	Blank	AvoidedLoss	True
443.663	1.45	Lose2	0.7021	n/a	Yes	3.385	n/a	5.0	GoodResponse	0	0.015	442.678	8	46	Feedback	AvoidedLoss	True
445.118	3.385	Lose2	0.7021	n/a	Yes	3.385	n/a	n/a	GoodResponse	0	0.0	n/a	8	46	ISIslide	AvoidedLoss	True
448.528	0.25	Lose2	0.7082999999999999	0.0	Yes	2.672	0.028	n/a	GoodResponse	0	n/a	n/a	8	47	Cue	AvoidedLoss	True
448.779	4.0	Lose2	0.7082999999999999	0.0	Yes	2.672	0.001	n/a	GoodResponse	0	n/a	n/a	8	47	Fixation	AvoidedLoss	True
452.774	0.3	Lose2	0.7082999999999999	0.004	Yes	2.672	-0.004	3.0	GoodResponse	0	0.25	452.024	8	47	Target	AvoidedLoss	True
453.024	0.3	Lose2	0.7082999999999999	0.004	Yes	2.672	-0.004	3.0	GoodResponse	0	0.25	n/a	8	47	ButtonPress	AvoidedLoss	True
453.075	0.4	Lose2	0.7082999999999999	n/a	Yes	2.672	n/a	n/a	GoodResponse	0	n/a	n/a	8	47	Blank	AvoidedLoss	True
453.476	1.45	Lose2	0.7082999999999999	n/a	Yes	2.672	n/a	5.0	GoodResponse	0	0.008	452.484	8	47	Feedback	AvoidedLoss	True
454.931	2.672	Lose2	0.7082999999999999	n/a	Yes	2.672	n/a	n/a	GoodResponse	0	0.0	n/a	8	47	ISIslide	AvoidedLoss	True
457.622	0.25	Lose2	0.7143	0.0	Yes	3.028	0.022	n/a	GoodResponse	0	n/a	n/a	8	48	Cue	AvoidedLoss	True
457.873	3.95	Lose2	0.7143	0.0	Yes	3.028	0.001	n/a	GoodResponse	0	n/a	n/a	8	48	Fixation	AvoidedLoss	True
461.818	0.29	Lose2	0.7143	0.004	Yes	3.028	-0.004	3.0	GoodResponse	0	0.258	461.076	8	48	Target	AvoidedLoss	True
462.076	0.3	Lose2	0.7143	0.004	Yes	3.028	-0.004	3.0	GoodResponse	0	0.258	n/a	8	48	ButtonPress	AvoidedLoss	True
462.119	0.41	Lose2	0.7143	n/a	Yes	3.028	n/a	n/a	GoodResponse	0	n/a	n/a	8	48	Blank	AvoidedLoss	True
462.52	1.45	Lose2	0.7143	n/a	Yes	3.028	n/a	5.0	GoodResponse	0	0.036	461.556	8	48	Feedback	AvoidedLoss	True
463.974	3.028	Lose2	0.7143	n/a	Yes	3.028	n/a	n/a	GoodResponse	0	0.0	n/a	8	48	ISIslide	AvoidedLoss	True
467.017	0.25	Control	0.72	0.0	Yes	2.883	0.017	n/a	GoodResponse	0	n/a	n/a	8	49	Cue	Neutral	True
467.268	4.0	Control	0.72	0.0	Yes	2.883	0.001	n/a	GoodResponse	0	n/a	n/a	8	49	Fixation	Neutral	True
471.263	0.28	Control	0.72	0.004	Yes	2.883	-0.004	3.0	GoodResponse	0	0.189	470.452	8	49	Target	Neutral	True
471.452	0.3	Control	0.72	0.004	Yes	2.883	-0.004	3.0	GoodResponse	0	0.189	n/a	8	49	ButtonPress	Neutral	True
471.547	0.42	Control	0.72	n/a	Yes	2.883	n/a	n/a	GoodResponse	0	n/a	n/a	8	49	Blank	Neutral	True
471.965	1.45	Control	0.72	n/a	Yes	2.883	n/a	5.0	GoodResponse	0	0.007	470.972	8	49	Feedback	Neutral	True
473.419	2.883	Control	0.72	n/a	Yes	2.883	n/a	n/a	GoodResponse	0	0.0	n/a	8	49	ISIslide	Neutral	True
476.328	0.25	Control	0.7254999999999999	0.0	Yes	2.772	0.028	n/a	GoodResponse	0	n/a	n/a	8	50	Cue	Neutral	True
476.579	4.0	Control	0.7254999999999999	0.0	Yes	2.772	0.001	n/a	GoodResponse	0	n/a	n/a	8	50	Fixation	Neutral	True
480.574	0.27	Control	0.7254999999999999	0.004	Yes	2.772	-0.004	3.0	GoodResponse	0	0.225	479.799	8	50	Target	Neutral	True
480.799	0.3	Control	0.7254999999999999	0.004	Yes	2.772	-0.004	3.0	GoodResponse	0	0.225	n/a	8	50	ButtonPress	Neutral	True
480.858	0.43	Control	0.7254999999999999	n/a	Yes	2.772	n/a	n/a	GoodResponse	0	n/a	n/a	8	50	Blank	Neutral	True
481.276	1.45	Control	0.7254999999999999	n/a	Yes	2.772	n/a	5.0	GoodResponse	0	0.012	480.288	8	50	Feedback	Neutral	True
482.731	2.772	Control	0.7254999999999999	n/a	Yes	2.772	n/a	n/a	GoodResponse	0	0.0	n/a	8	50	ISIslide	Neutral	True
485.522	0.25	Control	0.7308	0.0	Yes	2.728	0.022	n/a	GoodResponse	0	n/a	n/a	8	51	Cue	Neutral	True
485.773	3.95	Control	0.7308	0.0	Yes	2.728	0.001	n/a	GoodResponse	0	n/a	n/a	8	51	Fixation	Neutral	True
489.718	0.26	Control	0.7308	0.004	Yes	2.728	-0.004	3.0	GoodResponse	0	0.251	488.969	8	51	Target	Neutral	True
489.969	0.3	Control	0.7308	0.004	Yes	2.728	-0.004	3.0	GoodResponse	0	0.251	n/a	8	51	ButtonPress	Neutral	True
489.986	0.44	Control	0.7308	n/a	Yes	2.728	n/a	n/a	GoodResponse	0	n/a	n/a	8	51	Blank	Neutral	True
490.42	1.45	Control	0.7308	n/a	Yes	2.728	n/a	5.0	GoodResponse	0	0.038	489.458	8	51	Feedback	Neutral	True
491.875	2.728	Control	0.7308	n/a	Yes	2.728	n/a	n/a	GoodResponse	0	0.0	n/a	8	51	ISIslide	Neutral	True
494.616	0.25	Control	0.7358	0.0	Yes	2.634	0.016	n/a	GoodResponse	0	n/a	n/a	8	52	Cue	Neutral	True
494.867	4.05	Control	0.7358	0.0	Yes	2.634	0.001	n/a	GoodResponse	0	n/a	n/a	8	52	Fixation	Neutral	True
498.912	0.25	Control	0.7358	0.004	Yes	2.634	-0.004	3.0	GoodResponse	0	0.238	498.15	8	52	Target	Neutral	True
499.15	0.3	Control	0.7358	0.004	Yes	2.634	-0.004	3.0	GoodResponse	0	0.238	n/a	8	52	ButtonPress	Neutral	True
499.163	0.45	Control	0.7358	n/a	Yes	2.634	n/a	n/a	GoodResponse	0	n/a	n/a	8	52	Blank	Neutral	True
499.614	1.45	Control	0.7358	n/a	Yes	2.634	n/a	5.0	GoodResponse	0	0.015	498.629	8	52	Feedback	Neutral	True
501.069	2.634	Control	0.7358	n/a	Yes	2.634	n/a	n/a	GoodResponse	0	0.0	n/a	8	52	ISIslide	Neutral	True
503.727	0.25	Win2	0.7406999999999999	0.0	Yes	2.923	0.027	n/a	GoodResponse	1	n/a	n/a	9	53	Cue	Win	True
503.978	4.05	Win2	0.7406999999999999	0.0	Yes	2.923	0.001	n/a	GoodResponse	1	n/a	n/a	9	53	Fixation	Win	True
508.023	0.24	Win2	0.7406999999999999	0.004	Yes	2.923	-0.004	3.0	GoodResponse	1	0.239	507.262	9	53	Target	Win	True
508.262	0.3	Win2	0.7406999999999999	0.004	Yes	2.923	-0.004	3.0	GoodResponse	1	0.239	n/a	9	53	ButtonPress	Win	True
508.274	0.46	Win2	0.7406999999999999	n/a	Yes	2.923	n/a	n/a	GoodResponse	1	n/a	n/a	9	53	Blank	Win	True
508.725	1.45	Win2	0.7406999999999999	n/a	Yes	2.923	n/a	5.0	GoodResponse	1	0.026	507.751	9	53	Feedback	Win	True
510.179	2.923	Win2	0.7406999999999999	n/a	Yes	2.923	n/a	n/a	GoodResponse	1	0.0	n/a	9	53	ISIslide	Win	True
513.122	0.25	Win2	0.7273000000000001	0.0	No	2.728	0.022	n/a	NoResponse	0	n/a	n/a	9	54	Cue	MissedWin	True
513.372	3.95	Win2	0.7273000000000001	0.0	No	2.728	0.0	n/a	NoResponse	0	n/a	n/a	9	54	Fixation	MissedWin	True
517.334	0.23	Win2	0.7273000000000001	0.0	No	2.728	0.012	3.0	NoResponse	0	0.351	516.685	9	54	Target	MissedWin	True
517.552	0.47	Win2	0.7273000000000001	n/a	No	2.728	n/a	n/a	NoResponse	0	n/a	n/a	9	54	Blank	MissedWin	True
517.685	0.3	Win2	0.7273000000000001	0.0	No	2.728	0.012	3.0	NoResponse	0	0.351	n/a	9	54	ButtonPress	MissedWin	True
518.02	1.45	Win2	0.7273000000000001	n/a	No	2.728	n/a	5.0	NoResponse	0	0.048	517.068	9	54	Feedback	MissedWin	True
519.474	2.728	Win2	0.7273000000000001	n/a	No	2.728	n/a	n/a	NoResponse	0	0.0	n/a	9	54	ISIslide	MissedWin	True
522.232	0.25	Control	0.7143	0.0	No	3.018	0.032	n/a	NoResponse	0	n/a	n/a	9	55	Cue	Neutral	True
522.483	3.95	Control	0.7143	0.0	No	3.018	0.001	n/a	NoResponse	0	n/a	n/a	9	55	Fixation	Neutral	True
526.428	0.22	Control	0.7143	0.004	No	3.018	-0.004	3.0	NoResponse	0	0.257	525.685	9	55	Target	Neutral	True
526.662	0.48	Control	0.7143	n/a	No	3.018	n/a	n/a	NoResponse	0	n/a	n/a	9	55	Blank	Neutral	True
526.685	0.3	Control	0.7143	0.004	No	3.018	-0.004	3.0	NoResponse	0	0.257	n/a	9	55	ButtonPress	Neutral	True
527.13	1.45	Control	0.7143	n/a	No	3.018	n/a	5.0	NoResponse	0	0.011	526.141	9	55	Feedback	Neutral	True
528.585	3.018	Control	0.7143	n/a	No	3.018	n/a	n/a	NoResponse	0	0.0	n/a	9	55	ISIslide	Neutral	True
531.627	0.25	Control	0.7018000000000001	0.0	No	2.823	0.027	n/a	NoResponse	0	n/a	n/a	9	56	Cue	Neutral	True
531.878	3.95	Control	0.7018000000000001	0.0	No	2.823	0.001	n/a	NoResponse	0	n/a	n/a	9	56	Fixation	Neutral	True
535.823	0.21	Control	0.7018000000000001	0.004	No	2.823	-0.004	3.0	NoResponse	0	0.226	535.049	9	56	Target	Neutral	True
536.04	0.49	Control	0.7018000000000001	n/a	No	2.823	n/a	n/a	NoResponse	0	n/a	n/a	9	56	Blank	Neutral	True
536.049	0.3	Control	0.7018000000000001	0.004	No	2.823	-0.004	3.0	NoResponse	0	0.226	n/a	9	56	ButtonPress	Neutral	True
536.525	1.45	Control	0.7018000000000001	n/a	No	2.823	n/a	5.0	NoResponse	0	0.031	535.556	9	56	Feedback	Neutral	True
537.979	2.823	Control	0.7018000000000001	n/a	No	2.823	n/a	n/a	NoResponse	0	0.0	n/a	9	56	ISIslide	Neutral	True
540.821	0.25	Control	0.6897	0.0	No	3.479	0.021	n/a	NoResponse	0	n/a	n/a	9	57	Cue	Neutral	True
541.072	4.0	Control	0.6897	0.0	No	3.479	0.001	n/a	NoResponse	0	n/a	n/a	9	57	Fixation	Neutral	True
545.067	0.2	Control	0.6897	0.004	No	3.479	-0.004	3.0	NoResponse	0	0.241	544.308	9	57	Target	Neutral	True
545.268	0.5	Control	0.6897	n/a	No	3.479	n/a	n/a	NoResponse	0	n/a	n/a	9	57	Blank	Neutral	True
545.308	0.3	Control	0.6897	0.004	No	3.479	-0.004	3.0	NoResponse	0	0.241	n/a	9	57	ButtonPress	Neutral	True
545.769	1.45	Control	0.6897	n/a	No	3.479	n/a	5.0	NoResponse	0	0.007	544.776	9	57	Feedback	Neutral	True
547.224	3.479	Control	0.6897	n/a	No	3.479	n/a	n/a	NoResponse	0	0.0	n/a	9	57	ISIslide	Neutral	True
550.718	0.25	Win2	0.6779999999999999	0.0	No	2.732	0.018	n/a	NoResponse	0	n/a	n/a	9	58	Cue	MissedWin	True
550.968	4.05	Win2	0.6779999999999999	0.0	No	2.732	0.0	3.0	NoResponse	0	4.039	554.007	9	58	Fixation	MissedWin	True
555.007	0.3	Win2	0.6779999999999999	0.0	No	2.732	0.0	3.0	NoResponse	0	4.039	n/a	9	58	ButtonPress	MissedWin	True
555.014	0.19	Win2	0.6779999999999999	0.004	No	2.732	-0.004	n/a	NoResponse	0	n/a	n/a	9	58	Target	MissedWin	True
555.214	0.51	Win2	0.6779999999999999	n/a	No	2.732	n/a	n/a	NoResponse	0	n/a	n/a	9	58	Blank	MissedWin	True
555.716	1.45	Win2	0.6779999999999999	n/a	No	2.732	n/a	5.0	NoResponse	0	0.01	554.726	9	58	Feedback	MissedWin	True
557.17	2.732	Win2	0.6779999999999999	n/a	No	2.732	n/a	n/a	NoResponse	0	0.0	n/a	9	58	ISIslide	MissedWin	True
559.928	0.25	Lose2	0.6667000000000001	0.001	No	2.672	0.028	n/a	NoResponse	-1	n/a	n/a	8	59	Cue	Loss	True
560.179	4.0	Lose2	0.6667000000000001	0.0	No	2.672	0.001	n/a	NoResponse	-1	n/a	n/a	8	59	Fixation	Loss	True
564.175	0.18	Lose2	0.6667000000000001	0.003	No	2.672	-0.003	3.0	NoResponse	-1	0.242	563.417	8	59	Target	Loss	True
564.358	0.52	Lose2	0.6667000000000001	n/a	No	2.672	n/a	n/a	NoResponse	-1	n/a	n/a	8	59	Blank	Loss	True
564.417	0.3	Lose2	0.6667000000000001	0.003	No	2.672	-0.003	3.0	NoResponse	-1	0.242	n/a	8	59	ButtonPress	Loss	True
564.877	1.45	Lose2	0.6667000000000001	n/a	No	2.672	n/a	5.0	NoResponse	-1	0.02	563.897	8	59	Feedback	Loss	True
566.331	2.672	Lose2	0.6667000000000001	n/a	No	2.672	n/a	n/a	NoResponse	-1	0.0	n/a	8	59	ISIslide	Loss	True
569.022	0.25	Control	0.6557	0.001	No	2.678	0.022	n/a	NoResponse	0	n/a	n/a	8	60	Cue	Neutral	True
569.273	4.0	Control	0.6557	0.0	No	2.678	0.001	n/a	NoResponse	0	n/a	n/a	8	60	Fixation	Neutral	True
573.268	0.17	Control	0.6557	0.004	No	2.678	-0.004	3.0	NoResponse	0	0.218	572.486	8	60	Target	Neutral	True
573.452	0.53	Control	0.6557	n/a	No	2.678	n/a	n/a	NoResponse	0	n/a	n/a	8	60	Blank	Neutral	True
573.486	0.3	Control	0.6557	0.004	No	2.678	-0.004	3.0	NoResponse	0	0.218	n/a	8	60	ButtonPress	Neutral	True
573.971	1.45	Control	0.6557	n/a	No	2.678	n/a	5.0	NoResponse	0	0.0	572.971	8	60	Feedback	Neutral	True
575.425	2.678	Control	0.6557	n/a	No	2.678	n/a	n/a	NoResponse	0	0.0	n/a	8	60	ISIslide	Neutral	True
578.116	0.25	Lose2	0.6452	0.0	No	2.984	0.016	n/a	NoResponse	-1	n/a	n/a	7	61	Cue	Loss	True
578.367	4.0	Lose2	0.6452	0.0	No	2.984	0.001	n/a	NoResponse	-1	n/a	n/a	7	61	Fixation	Loss	True
582.362	0.17	Lose2	0.6452	0.004	No	2.984	-0.004	3.0	NoResponse	-1	0.2	581.562	7	61	Target	Loss	True
582.546	0.53	Lose2	0.6452	n/a	No	2.984	n/a	n/a	NoResponse	-1	n/a	n/a	7	61	Blank	Loss	True
582.562	0.3	Lose2	0.6452	0.004	No	2.984	-0.004	3.0	NoResponse	-1	0.2	n/a	7	61	ButtonPress	Loss	True
583.064	1.45	Lose2	0.6452	n/a	No	2.984	n/a	5.0	NoResponse	-1	0.028	582.092	7	61	Feedback	Loss	True
584.519	2.984	Lose2	0.6452	n/a	No	2.984	n/a	n/a	NoResponse	-1	0.0	n/a	7	61	ISIslide	Loss	True
587.528	0.25	Lose2	0.6349	0.0	No	2.872	0.028	n/a	NoResponse	-1	n/a	n/a	6	62	Cue	Loss	True
587.779	3.9	Lose2	0.6349	0.0	No	2.872	0.001	n/a	NoResponse	-1	n/a	n/a	6	62	Fixation	Loss	True
591.674	0.18	Lose2	0.6349	0.004	No	2.872	-0.004	3.0	NoResponse	-1	0.262	590.936	6	62	Target	Loss	True
591.857	0.52	Lose2	0.6349	n/a	No	2.872	n/a	n/a	NoResponse	-1	n/a	n/a	6	62	Blank	Loss	True
591.936	0.3	Lose2	0.6349	0.004	No	2.872	-0.004	3.0	NoResponse	-1	0.262	n/a	6	62	ButtonPress	Loss	True
592.376	1.45	Lose2	0.6349	n/a	No	2.872	n/a	5.0	NoResponse	-1	0.033	591.409	6	62	Feedback	Loss	True
593.83	2.872	Lose2	0.6349	n/a	No	2.872	n/a	n/a	NoResponse	-1	0.0	n/a	6	62	ISIslide	Loss	True
596.722	0.25	Lose2	0.625	0.0	No	2.628	0.022	n/a	LatePress	-1	n/a	n/a	5	63	Cue	Loss	False
596.973	4.05	Lose2	0.625	0.0	No	2.628	0.001	3.0	LatePress	-1	2.974	598.947	5	63	Fixation	Loss	False
599.947	0.3	Lose2	0.625	0.0	No	2.628	0.001	3.0	LatePress	-1	2.974	n/a	5	63	ButtonPress	Loss	False
601.018	0.19	Lose2	0.625	0.004	No	2.628	-0.004	3.0	LatePress	-1	0.199	600.217	5	63	Target	Loss	False
601.217	0.3	Lose2	0.625	0.004	No	2.628	-0.004	3.0	LatePress	-1	0.199	n/a	5	63	ButtonPress	Loss	False
601.219	0.51	Lose2	0.625	n/a	No	2.628	n/a	n/a	LatePress	-1	n/a	n/a	5	63	Blank	Loss	False
601.72	1.45	Lose2	0.625	n/a	No	2.628	n/a	5.0	LatePress	-1	0.009	600.729	5	63	Feedback	Loss	False
603.175	2.628	Lose2	0.625	n/a	No	2.628	n/a	n/a	LatePress	-1	0.0	n/a	5	63	ISIslide	Loss	False
605.816	0.25	Win2	0.6154	0.0	No	3.134	0.016	n/a	NoResponse	0	n/a	n/a	5	64	Cue	MissedWin	True
606.067	4.15	Win2	0.6154	0.0	No	3.134	0.001	n/a	NoResponse	0	n/a	n/a	5	64	Fixation	MissedWin	True
610.212	0.2	Win2	0.6154	0.004	No	3.134	-0.004	3.0	NoResponse	0	0.234	609.446	5	64	Target	MissedWin	True
610.413	0.5	Win2	0.6154	n/a	No	3.134	n/a	n/a	NoResponse	0	n/a	n/a	5	64	Blank	MissedWin	True
610.446	0.3	Win2	0.6154	0.004	No	3.134	-0.004	3.0	NoResponse	0	0.234	n/a	5	64	ButtonPress	MissedWin	True
610.915	1.45	Win2	0.6154	n/a	No	3.134	n/a	5.0	NoResponse	0	0.03	609.945	5	64	Feedback	MissedWin	True
612.369	3.134	Win2	0.6154	n/a	No	3.134	n/a	n/a	NoResponse	0	0.0	n/a	5	64	ISIslide	MissedWin	True
615.528	0.25	Control	0.6061	0.0	No	2.772	0.028	n/a	NoResponse	0	n/a	n/a	5	65	Cue	Neutral	True
615.779	4.0	Control	0.6061	0.0	No	2.772	0.001	n/a	NoResponse	0	n/a	n/a	5	65	Fixation	Neutral	True
619.774	0.21	Control	0.6061	0.004	No	2.772	-0.004	3.0	NoResponse	0	0.256	619.03	5	65	Target	Neutral	True
619.992	0.49	Control	0.6061	n/a	No	2.772	n/a	n/a	NoResponse	0	n/a	n/a	5	65	Blank	Neutral	True
620.03	0.3	Control	0.6061	0.004	No	2.772	-0.004	3.0	NoResponse	0	0.256	n/a	5	65	ButtonPress	Neutral	True
620.477	1.45	Control	0.6061	n/a	No	2.772	n/a	5.0	NoResponse	0	0.029	619.506	5	65	Feedback	Neutral	True
621.931	2.772	Control	0.6061	n/a	No	2.772	n/a	n/a	NoResponse	0	0.0	n/a	5	65	ISIslide	Neutral	True
624.723	0.25	Win2	0.597	0.0	No	2.777	0.023	n/a	NoResponse	0	n/a	n/a	5	66	Cue	MissedWin	False
624.973	3.9	Win2	0.597	0.0	No	2.777	0.0	3.0	NoResponse	0	3.496	627.469	5	66	Fixation	MissedWin	False
628.469	0.3	Win2	0.597	0.0	No	2.777	0.0	3.0	NoResponse	0	3.496	n/a	5	66	ButtonPress	MissedWin	False
628.885	0.22	Win2	0.597	0.0	No	2.777	0.012	3.0	NoResponse	0	0.279	628.164	5	66	Target	MissedWin	False
629.102	0.48	Win2	0.597	n/a	No	2.777	n/a	n/a	NoResponse	0	n/a	n/a	5	66	Blank	MissedWin	False
629.164	0.3	Win2	0.597	0.0	No	2.777	0.012	3.0	NoResponse	0	0.279	n/a	5	66	ButtonPress	MissedWin	False
629.571	1.45	Win2	0.597	n/a	No	2.777	n/a	5.0	NoResponse	0	0.008	628.579	5	66	Feedback	MissedWin	False
631.025	2.777	Win2	0.597	n/a	No	2.777	n/a	n/a	NoResponse	0	0.0	n/a	5	66	ISIslide	MissedWin	False
633.817	0.25	Control	0.5882000000000001	0.0	No	2.733	0.017	n/a	NoResponse	0	n/a	n/a	5	67	Cue	Neutral	True
634.067	3.95	Control	0.5882000000000001	0.0	No	2.733	0.0	n/a	NoResponse	0	n/a	n/a	5	67	Fixation	Neutral	True
638.029	0.23	Control	0.5882000000000001	0.0	No	2.733	0.012	3.0	NoResponse	0	0.452	637.481	5	67	Target	Neutral	True
638.246	0.47	Control	0.5882000000000001	n/a	No	2.733	n/a	n/a	NoResponse	0	n/a	n/a	5	67	Blank	Neutral	True
638.481	0.3	Control	0.5882000000000001	0.0	No	2.733	0.012	3.0	NoResponse	0	0.452	n/a	5	67	ButtonPress	Neutral	True
638.715	1.45	Control	0.5882000000000001	n/a	No	2.733	n/a	5.0	NoResponse	0	0.035	637.75	5	67	Feedback	Neutral	True
640.169	2.733	Control	0.5882000000000001	n/a	No	2.733	n/a	n/a	NoResponse	0	0.0	n/a	5	67	ISIslide	Neutral	True
642.927	0.25	Win2	0.5797	0.0	No	3.073	0.027	n/a	LatePress	0	n/a	n/a	5	68	Cue	MissedWin	True
643.178	4.0	Win2	0.5797	0.0	No	3.073	0.001	n/a	LatePress	0	n/a	n/a	5	68	Fixation	MissedWin	True
647.173	0.24	Win2	0.5797	0.004	No	3.073	-0.004	3.0	LatePress	0	0.243	646.416	5	68	Target	MissedWin	True
647.416	0.3	Win2	0.5797	0.004	No	3.073	-0.004	3.0	LatePress	0	0.243	n/a	5	68	ButtonPress	MissedWin	True
647.424	0.46	Win2	0.5797	n/a	No	3.073	n/a	n/a	LatePress	0	n/a	n/a	5	68	Blank	MissedWin	True
647.875	1.45	Win2	0.5797	n/a	No	3.073	n/a	5.0	LatePress	0	0.046	646.921	5	68	Feedback	MissedWin	True
649.33	3.073	Win2	0.5797	n/a	No	3.073	n/a	n/a	LatePress	0	0.0	n/a	5	68	ISIslide	MissedWin	True
652.422	0.25	Win2	0.5857	0.0	Yes	3.228	0.022	n/a	GoodResponse	1	n/a	n/a	6	69	Cue	Win	True
652.673	3.95	Win2	0.5857	0.0	Yes	3.228	0.001	n/a	GoodResponse	1	n/a	n/a	6	69	Fixation	Win	True
656.618	0.25	Win2	0.5857	0.004	Yes	3.228	-0.004	3.0	GoodResponse	1	0.236	655.854	6	69	Target	Win	True
656.854	0.3	Win2	0.5857	0.004	Yes	3.228	-0.004	3.0	GoodResponse	1	0.236	n/a	6	69	ButtonPress	Win	True
656.869	0.45	Win2	0.5857	n/a	Yes	3.228	n/a	n/a	GoodResponse	1	n/a	n/a	6	69	Blank	Win	True
657.32	1.45	Win2	0.5857	n/a	Yes	3.228	n/a	5.0	GoodResponse	1	0.015	656.335	6	69	Feedback	Win	True
658.775	3.228	Win2	0.5857	n/a	Yes	3.228	n/a	n/a	GoodResponse	1	0.0	n/a	6	69	ISIslide	Win	True
662.018	0.25	Lose2	0.5915	0.0	Yes	3.032	0.018	n/a	GoodResponse	0	n/a	n/a	6	70	Cue	AvoidedLoss	True
662.268	4.05	Lose2	0.5915	0.001	Yes	3.032	0.0	n/a	GoodResponse	0	n/a	n/a	6	70	Fixation	AvoidedLoss	True
666.314	0.26	Lose2	0.5915	0.004	Yes	3.032	-0.004	3.0	GoodResponse	0	0.242	665.556	6	70	Target	AvoidedLoss	True
666.556	0.3	Lose2	0.5915	0.004	Yes	3.032	-0.004	3.0	GoodResponse	0	0.242	n/a	6	70	ButtonPress	AvoidedLoss	True
666.581	0.44	Lose2	0.5915	n/a	Yes	3.032	n/a	n/a	GoodResponse	0	n/a	n/a	6	70	Blank	AvoidedLoss	True
667.016	1.45	Lose2	0.5915	n/a	Yes	3.032	n/a	5.0	GoodResponse	0	0.026	666.042	6	70	Feedback	AvoidedLoss	True
668.47	3.032	Lose2	0.5915	n/a	Yes	3.032	n/a	n/a	GoodResponse	0	0.0	n/a	6	70	ISIslide	AvoidedLoss	True
671.53	0.25	Win2	0.5972	0.0	Yes	2.72	0.03	n/a	GoodResponse	1	n/a	n/a	7	71	Cue	Win	True
671.78	4.05	Win2	0.5972	0.0	Yes	2.72	0.0	n/a	GoodResponse	1	n/a	n/a	7	71	Fixation	Win	True
675.826	0.27	Win2	0.5972	0.004	Yes	2.72	-0.004	3.0	GoodResponse	1	0.241	675.067	7	71	Target	Win	True
676.067	0.3	Win2	0.5972	0.004	Yes	2.72	-0.004	3.0	GoodResponse	1	0.241	n/a	7	71	ButtonPress	Win	True
676.11	0.43	Win2	0.5972	n/a	Yes	2.72	n/a	n/a	GoodResponse	1	n/a	n/a	7	71	Blank	Win	True
676.528	1.45	Win2	0.5972	n/a	Yes	2.72	n/a	5.0	GoodResponse	1	0.026	675.554	7	71	Feedback	Win	True
677.982	2.72	Win2	0.5972	n/a	Yes	2.72	n/a	n/a	GoodResponse	1	0.0	n/a	7	71	ISIslide	Win	True
680.724	0.25	Win2	0.6027	0.0	Yes	2.776	0.024	n/a	GoodResponse	1	n/a	n/a	8	72	Cue	Win	True
680.975	4.1	Win2	0.6027	0.0	Yes	2.776	0.001	n/a	GoodResponse	1	n/a	n/a	8	72	Fixation	Win	True
685.07	0.28	Win2	0.6027	0.004	Yes	2.776	-0.004	3.0	GoodResponse	1	0.193	684.263	8	72	Target	Win	True
685.263	0.3	Win2	0.6027	0.004	Yes	2.776	-0.004	3.0	GoodResponse	1	0.193	n/a	8	72	ButtonPress	Win	True
685.354	0.42	Win2	0.6027	n/a	Yes	2.776	n/a	n/a	GoodResponse	1	n/a	n/a	8	72	Blank	Win	True
685.772	1.45	Win2	0.6027	n/a	Yes	2.776	n/a	5.0	GoodResponse	1	0.002	684.774	8	72	Feedback	Win	True
687.227	2.776	Win2	0.6027	n/a	Yes	2.776	n/a	n/a	GoodResponse	1	0.0	n/a	8	72	ISIslide	Win	True
690.018	0.25	Win2	0.6081	0.0	Yes	2.682	0.018	n/a	GoodResponse	1	n/a	n/a	9	73	Cue	Win	True
690.269	4.0	Win2	0.6081	0.0	Yes	2.682	0.001	n/a	GoodResponse	1	n/a	n/a	9	73	Fixation	Win	True
694.264	0.29	Win2	0.6081	0.004	Yes	2.682	-0.004	3.0	GoodResponse	1	0.25	693.514	9	73	Target	Win	True
694.514	0.3	Win2	0.6081	0.004	Yes	2.682	-0.004	3.0	GoodResponse	1	0.25	n/a	9	73	ButtonPress	Win	True
694.565	0.41	Win2	0.6081	n/a	Yes	2.682	n/a	n/a	GoodResponse	1	n/a	n/a	9	73	Blank	Win	True
694.966	1.45	Win2	0.6081	n/a	Yes	2.682	n/a	5.0	GoodResponse	1	0.027	693.993	9	73	Feedback	Win	True
696.421	2.682	Win2	0.6081	n/a	Yes	2.682	n/a	n/a	GoodResponse	1	0.0	n/a	9	73	ISIslide	Win	True
699.129	0.25	Lose2	0.6133	0.0	Yes	2.621	0.029	n/a	GoodResponse	0	n/a	n/a	9	74	Cue	AvoidedLoss	False
699.38	4.05	Lose2	0.6133	0.0	Yes	2.621	0.001	3.0	GoodResponse	0	1.287	699.667	9	74	Fixation	AvoidedLoss	False
700.667	0.3	Lose2	0.6133	0.0	Yes	2.621	0.001	3.0	GoodResponse	0	1.287	n/a	9	74	ButtonPress	AvoidedLoss	False
703.425	0.3	Lose2	0.6133	0.004	Yes	2.621	-0.004	3.0	GoodResponse	0	0.227	702.652	9	74	Target	AvoidedLoss	False
703.652	0.3	Lose2	0.6133	0.004	Yes	2.621	-0.004	3.0	GoodResponse	0	0.227	n/a	9	74	ButtonPress	AvoidedLoss	False
703.726	0.4	Lose2	0.6133	n/a	Yes	2.621	n/a	n/a	GoodResponse	0	n/a	n/a	9	74	Blank	AvoidedLoss	False
704.127	1.45	Lose2	0.6133	n/a	Yes	2.621	n/a	5.0	GoodResponse	0	0.037	703.164	9	74	Feedback	AvoidedLoss	False
705.582	2.621	Lose2	0.6133	n/a	Yes	2.621	n/a	n/a	GoodResponse	0	0.0	n/a	9	74	ISIslide	AvoidedLoss	False
708.223	0.25	Lose2	0.6184000000000001	0.0	Yes	2.927	0.023	n/a	GoodResponse	0	n/a	n/a	9	75	Cue	AvoidedLoss	True
708.474	3.95	Lose2	0.6184000000000001	0.0	Yes	2.927	0.001	n/a	GoodResponse	0	n/a	n/a	9	75	Fixation	AvoidedLoss	True
712.419	0.31	Lose2	0.6184000000000001	0.004	Yes	2.927	-0.004	3.0	GoodResponse	0	0.276	711.695	9	75	Target	AvoidedLoss	True
712.695	0.3	Lose2	0.6184000000000001	0.004	Yes	2.927	-0.004	3.0	GoodResponse	0	0.276	n/a	9	75	ButtonPress	AvoidedLoss	True
712.736	0.39	Lose2	0.6184000000000001	n/a	Yes	2.927	n/a	n/a	GoodResponse	0	n/a	n/a	9	75	Blank	AvoidedLoss	True
713.121	1.45	Lose2	0.6184000000000001	n/a	Yes	2.927	n/a	5.0	GoodResponse	0	0.019	712.14	9	75	Feedback	AvoidedLoss	True
714.575	2.927	Lose2	0.6184000000000001	n/a	Yes	2.927	n/a	n/a	GoodResponse	0	0.0	n/a	9	75	ISIslide	AvoidedLoss	True
717.517	0.25	Control	0.6234000000000001	0.0	Yes	3.233	0.017	n/a	GoodResponse	0	n/a	n/a	9	76	Cue	Neutral	True
717.768	4.05	Control	0.6234000000000001	0.0	Yes	3.233	0.001	n/a	GoodResponse	0	n/a	n/a	9	76	Fixation	Neutral	True
721.814	0.32	Control	0.6234000000000001	0.003	Yes	3.233	-0.003	3.0	GoodResponse	0	0.221	721.035	9	76	Target	Neutral	True
722.035	0.3	Control	0.6234000000000001	0.003	Yes	3.233	-0.003	3.0	GoodResponse	0	0.221	n/a	9	76	ButtonPress	Neutral	True
722.148	0.38	Control	0.6234000000000001	n/a	Yes	3.233	n/a	n/a	GoodResponse	0	n/a	n/a	9	76	Blank	Neutral	True
722.516	1.45	Control	0.6234000000000001	n/a	Yes	3.233	n/a	5.0	GoodResponse	0	0.037	721.553	9	76	Feedback	Neutral	True
723.97	3.233	Control	0.6234000000000001	n/a	Yes	3.233	n/a	n/a	GoodResponse	0	0.0	n/a	9	76	ISIslide	Neutral	True
727.23	0.25	Lose2	0.6282	0.0	Yes	2.57	0.03	n/a	GoodResponse	0	n/a	n/a	9	77	Cue	AvoidedLoss	True
727.481	3.95	Lose2	0.6282	0.0	Yes	2.57	0.001	n/a	GoodResponse	0	n/a	n/a	9	77	Fixation	AvoidedLoss	True
731.426	0.33	Lose2	0.6282	0.004	Yes	2.57	-0.004	3.0	GoodResponse	0	0.222	730.648	9	77	Target	AvoidedLoss	True
731.648	0.3	Lose2	0.6282	0.004	Yes	2.57	-0.004	3.0	GoodResponse	0	0.222	n/a	9	77	ButtonPress	AvoidedLoss	True
731.76	0.37	Lose2	0.6282	n/a	Yes	2.57	n/a	n/a	GoodResponse	0	n/a	n/a	9	77	Blank	AvoidedLoss	True
732.128	1.45	Lose2	0.6282	n/a	Yes	2.57	n/a	5.0	GoodResponse	0	0.035	731.163	9	77	Feedback	AvoidedLoss	True
733.582	2.57	Lose2	0.6282	n/a	Yes	2.57	n/a	n/a	GoodResponse	0	0.0	n/a	9	77	ISIslide	AvoidedLoss	True
