onset	duration	cue_type	current_mean_accuracy	duration_error	is_hit	isi_adjusted	onset_delay	response	response_type	reward	rt	rt_time	total_reward	trial_number	trial_phase	trial_type	one_press
11.112	0.25	Control	1.0	0.0	Yes	2.938	0.012	n/a	GoodResponse	0	n/a	n/a	0	0	Cue	Neutral	True
11.363	3.85	Control	1.0	0.0	Yes	2.938	0.001	n/a	GoodResponse	0	n/a	n/a	0	0	Fixation	Neutral	True
15.208	0.4	Control	1.0	0.004	Yes	2.938	-0.004	2.0	GoodResponse	0	0.28	14.488	0	0	Target	Neutral	True
15.488	0.3	Control	1.0	0.004	Yes	2.938	-0.004	2.0	GoodResponse	0	0.28	n/a	0	0	ButtonPress	Neutral	True
15.609	0.3	Control	1.0	n/a	Yes	2.938	n/a	n/a	GoodResponse	0	n/a	n/a	0	0	Blank	Neutral	True
15.91	1.45	Control	1.0	n/a	Yes	2.938	n/a	5.0	GoodResponse	0	0.017	14.927	0	0	Feedback	Neutral	True
17.364	2.938	Control	1.0	n/a	Yes	2.938	n/a	n/a	GoodResponse	0	0.0	n/a	0	0	ISIslide	Neutral	True
20.323	0.25	Lose2	1.0	0.0	Yes	2.777	0.023	n/a	GoodResponse	0	n/a	n/a	0	1	Cue	AvoidedLoss	True
20.574	4.0	Lose2	1.0	0.0	Yes	2.777	0.001	n/a	GoodResponse	0	n/a	n/a	0	1	Fixation	AvoidedLoss	True
24.569	0.39	Lose2	1.0	0.004	Yes	2.777	-0.004	2.0	GoodResponse	0	0.208	23.777	0	1	Target	AvoidedLoss	True
24.777	0.3	Lose2	1.0	0.004	Yes	2.777	-0.004	2.0	GoodResponse	0	0.208	n/a	0	1	ButtonPress	AvoidedLoss	True
24.97	0.31	Lose2	1.0	n/a	Yes	2.777	n/a	n/a	GoodResponse	0	n/a	n/a	0	1	Blank	AvoidedLoss	True
25.271	1.45	Lose2	1.0	n/a	Yes	2.777	n/a	5.0	GoodResponse	0	0.021	24.292	0	1	Feedback	AvoidedLoss	True
26.725	2.777	Lose2	1.0	n/a	Yes	2.777	n/a	n/a	GoodResponse	0	0.0	n/a	0	1	ISIslide	AvoidedLoss	True
29.517	0.25	Control	1.0	0.0	Yes	2.583	0.017	n/a	GoodResponse	0	n/a	n/a	0	2	Cue	Neutral	True
29.768	4.1	Control	1.0	0.0	Yes	2.583	0.001	n/a	GoodResponse	0	n/a	n/a	0	2	Fixation	Neutral	True
33.864	0.38	Control	1.0	0.003	Yes	2.583	-0.003	2.0	GoodResponse	0	0.25	33.114	0	2	Target	Neutral	True
34.114	0.3	Control	1.0	0.003	Yes	2.583	-0.003	2.0	GoodResponse	0	0.25	n/a	0	2	ButtonPress	Neutral	True
34.248	0.32	Control	1.0	n/a	Yes	2.583	n/a	n/a	GoodResponse	0	n/a	n/a	0	2	Blank	Neutral	True
34.566	1.45	Control	1.0	n/a	Yes	2.583	n/a	5.0	GoodResponse	0	0.043	33.609	0	2	Feedback	Neutral	True
36.02	2.583	Control	1.0	n/a	Yes	2.583	n/a	n/a	GoodResponse	0	0.0	n/a	0	2	ISIslide	Neutral	True
38.628	0.25	Win2	1.0	0.0	Yes	2.822	0.028	n/a	GoodResponse	1	n/a	n/a	1	3	Cue	Win	True
38.879	3.95	Win2	1.0	0.0	Yes	2.822	0.001	n/a	GoodResponse	1	n/a	n/a	1	3	Fixation	Win	True
42.824	0.37	Win2	1.0	0.004	Yes	2.822	-0.004	2.0	GoodResponse	1	0.172	41.996	1	3	Target	Win	True
42.996	0.3	Win2	1.0	0.004	Yes	2.822	-0.004	2.0	GoodResponse	1	0.172	n/a	1	3	ButtonPress	Win	True
43.208	0.33	Win2	1.0	n/a	Yes	2.822	n/a	n/a	GoodResponse	1	n/a	n/a	1	3	Blank	Win	True
43.526	1.45	Win2	1.0	n/a	Yes	2.822	n/a	5.0	GoodResponse	1	0.01	42.536	1	3	Feedback	Win	True
44.98	2.822	Win2	1.0	n/a	Yes	2.822	n/a	n/a	GoodResponse	1	0.0	n/a	1	3	ISIslide	Win	True
47.822	0.25	Win2	1.0	0.0	Yes	3.278	0.022	n/a	GoodResponse	1	n/a	n/a	2	4	Cue	Win	True
48.073	4.0	Win2	1.0	0.0	Yes	3.278	0.001	n/a	GoodResponse	1	n/a	n/a	2	4	Fixation	Win	True
52.068	0.36	Win2	1.0	0.004	Yes	3.278	-0.004	2.0	GoodResponse	1	0.293	51.361	2	4	Target	Win	True
52.361	0.3	Win2	1.0	0.004	Yes	3.278	-0.004	2.0	GoodResponse	1	0.293	n/a	2	4	ButtonPress	Win	True
52.436	0.34	Win2	1.0	n/a	Yes	3.278	n/a	n/a	GoodResponse	1	n/a	n/a	2	4	Blank	Win	True
52.77	1.45	Win2	1.0	n/a	Yes	3.278	n/a	5.0	GoodResponse	1	0.034	51.804	2	4	Feedback	Win	True
54.225	3.278	Win2	1.0	n/a	Yes	3.278	n/a	n/a	GoodResponse	1	0.0	n/a	2	4	ISIslide	Win	True
57.518	0.25	Win2	1.0	0.0	Yes	2.782	0.018	n/a	GoodResponse	1	n/a	n/a	3	5	Cue	Win	True
57.768	4.0	Win2	1.0	0.001	Yes	2.782	0.0	n/a	GoodResponse	1	n/a	n/a	3	5	Fixation	Win	True
61.764	0.35	Win2	1.0	0.004	Yes	2.782	-0.004	2.0	GoodResponse	1	0.217	60.981	3	5	Target	Win	True
61.981	0.3	Win2	1.0	0.004	Yes	2.782	-0.004	2.0	GoodResponse	1	0.217	n/a	3	5	ButtonPress	Win	True
62.115	0.35	Win2	1.0	n/a	Yes	2.782	n/a	n/a	GoodResponse	1	n/a	n/a	3	5	Blank	Win	True
62.466	1.45	Win2	1.0	n/a	Yes	2.782	n/a	5.0	GoodResponse	1	0.046	61.512	3	5	Feedback	Win	True
63.92	2.782	Win2	1.0	n/a	Yes	2.782	n/a	n/a	GoodResponse	1	0.0	n/a	3	5	ISIslide	Win	True
66.729	0.25	Lose2	1.0	0.0	Yes	2.721	0.029	n/a	GoodResponse	0	n/a	n/a	3	6	Cue	AvoidedLoss	True
66.979	3.95	Lose2	1.0	0.0	Yes	2.721	0.0	n/a	GoodResponse	0	n/a	n/a	3	6	Fixation	AvoidedLoss	True
70.925	0.34	Lose2	1.0	0.004	Yes	2.721	-0.004	2.0	GoodResponse	0	0.173	70.098	3	6	Target	AvoidedLoss	True
71.098	0.3	Lose2	1.0	0.004	Yes	2.721	-0.004	2.0	GoodResponse	0	0.173	n/a	3	6	ButtonPress	AvoidedLoss	True
71.276	0.36	Lose2	1.0	n/a	Yes	2.721	n/a	n/a	GoodResponse	0	n/a	n/a	3	6	Blank	AvoidedLoss	True
71.627	1.45	Lose2	1.0	n/a	Yes	2.721	n/a	5.0	GoodResponse	0	0.007	70.634	3	6	Feedback	AvoidedLoss	True
73.081	2.721	Lose2	1.0	n/a	Yes	2.721	n/a	n/a	GoodResponse	0	0.0	n/a	3	6	ISIslide	AvoidedLoss	True
75.823	0.25	Lose2	1.0	0.0	Yes	4.027	0.023	n/a	GoodResponse	0	n/a	n/a	3	7	Cue	AvoidedLoss	True
76.073	4.05	Lose2	1.0	0.0	Yes	4.027	0.0	n/a	GoodResponse	0	n/a	n/a	3	7	Fixation	AvoidedLoss	True
80.119	0.33	Lose2	1.0	0.004	Yes	4.027	-0.004	2.0	GoodResponse	0	0.193	79.312	3	7	Target	AvoidedLoss	True
80.312	0.3	Lose2	1.0	0.004	Yes	4.027	-0.004	2.0	GoodResponse	0	0.193	n/a	3	7	ButtonPress	AvoidedLoss	True
80.453	0.37	Lose2	1.0	n/a	Yes	4.027	n/a	n/a	GoodResponse	0	n/a	n/a	3	7	Blank	AvoidedLoss	True
80.821	1.45	Lose2	1.0	n/a	Yes	4.027	n/a	5.0	GoodResponse	0	0.031	79.852	3	7	Feedback	AvoidedLoss	True
82.275	4.027	Lose2	1.0	n/a	Yes	4.027	n/a	n/a	GoodResponse	0	0.0	n/a	3	7	ISIslide	AvoidedLoss	True
86.321	0.25	Lose2	1.0	0.0	Yes	3.029	0.021	n/a	GoodResponse	0	n/a	n/a	3	8	Cue	AvoidedLoss	True
86.571	3.95	Lose2	1.0	0.001	Yes	3.029	0.0	n/a	GoodResponse	0	n/a	n/a	3	8	Fixation	AvoidedLoss	True
90.517	0.32	Lose2	1.0	0.004	Yes	3.029	-0.004	2.0	GoodResponse	0	0.278	89.795	3	8	Target	AvoidedLoss	True
90.795	0.3	Lose2	1.0	0.004	Yes	3.029	-0.004	2.0	GoodResponse	0	0.278	n/a	3	8	ButtonPress	AvoidedLoss	True
90.851	0.38	Lose2	1.0	n/a	Yes	3.029	n/a	n/a	GoodResponse	0	n/a	n/a	3	8	Blank	AvoidedLoss	True
91.219	1.45	Lose2	1.0	n/a	Yes	3.029	n/a	5.0	GoodResponse	0	0.024	90.243	3	8	Feedback	AvoidedLoss	True
92.673	3.029	Lose2	1.0	n/a	Yes	3.029	n/a	n/a	GoodResponse	0	0.0	n/a	3	8	ISIslide	AvoidedLoss	True
95.716	0.25	Lose2	1.0	0.0	Yes	3.134	0.016	n/a	GoodResponse	0	n/a	n/a	3	9	Cue	AvoidedLoss	True
95.966	3.95	Lose2	1.0	0.0	Yes	3.134	0.0	n/a	GoodResponse	0	n/a	n/a	3	9	Fixation	AvoidedLoss	True
99.928	0.31	Lose2	1.0	0.0	Yes	3.134	0.012	2.0	GoodResponse	0	0.237	99.165	3	9	Target	AvoidedLoss	True
100.165	0.3	Lose2	1.0	0.0	Yes	3.134	0.012	2.0	GoodResponse	0	0.237	n/a	3	9	ButtonPress	AvoidedLoss	True
100.229	0.39	Lose2	1.0	n/a	Yes	3.134	n/a	n/a	GoodResponse	0	n/a	n/a	3	9	Blank	AvoidedLoss	True
100.614	1.45	Lose2	1.0	n/a	Yes	3.134	n/a	5.0	GoodResponse	0	0.043	99.657	3	9	Feedback	AvoidedLoss	True
102.068	3.134	Lose2	1.0	n/a	Yes	3.134	n/a	n/a	GoodResponse	0	0.0	n/a	3	9	ISIslide	AvoidedLoss	True
105.227	0.25	Control	1.0	0.0	Yes	3.273	0.027	n/a	GoodResponse	0	n/a	n/a	3	10	Cue	Neutral	True
105.478	4.0	Control	1.0	0.0	Yes	3.273	0.001	n/a	GoodResponse	0	n/a	n/a	3	10	Fixation	Neutral	True
109.473	0.3	Control	1.0	0.004	Yes	3.273	-0.004	2.0	GoodResponse	0	0.213	108.686	3	10	Target	Neutral	True
109.686	0.3	Control	1.0	0.004	Yes	3.273	-0.004	2.0	GoodResponse	0	0.213	n/a	3	10	ButtonPress	Neutral	True
109.774	0.4	Control	1.0	n/a	Yes	3.273	n/a	n/a	GoodResponse	0	n/a	n/a	3	10	Blank	Neutral	True
110.176	1.45	Control	1.0	n/a	Yes	3.273	n/a	5.0	GoodResponse	0	0.0	109.176	3	10	Feedback	Neutral	True
111.63	3.273	Control	1.0	n/a	Yes	3.273	n/a	n/a	GoodResponse	0	0.0	n/a	3	10	ISIslide	Neutral	True
114.923	0.25	Lose2	1.0	0.0	Yes	2.727	0.023	n/a	GoodResponse	0	n/a	n/a	3	11	Cue	AvoidedLoss	True
115.174	4.05	Lose2	1.0	0.0	Yes	2.727	0.001	n/a	GoodResponse	0	n/a	n/a	3	11	Fixation	AvoidedLoss	True
119.219	0.29	Lose2	1.0	0.004	Yes	2.727	-0.004	2.0	GoodResponse	0	0.19	118.409	3	11	Target	AvoidedLoss	True
119.409	0.3	Lose2	1.0	0.004	Yes	2.727	-0.004	2.0	GoodResponse	0	0.19	n/a	3	11	ButtonPress	AvoidedLoss	True
119.52	0.41	Lose2	1.0	n/a	Yes	2.727	n/a	n/a	GoodResponse	0	n/a	n/a	3	11	Blank	AvoidedLoss	True
119.921	1.45	Lose2	1.0	n/a	Yes	2.727	n/a	5.0	GoodResponse	0	0.007	118.928	3	11	Feedback	AvoidedLoss	True
121.376	2.727	Lose2	1.0	n/a	Yes	2.727	n/a	n/a	GoodResponse	0	0.0	n/a	3	11	ISIslide	AvoidedLoss	True
124.117	0.25	Control	0.9231	0.0	No	2.983	0.017	n/a	NoResponse	0	n/a	n/a	3	12	Cue	Neutral	True
124.368	3.9	Control	0.9231	0.0	No	2.983	0.001	n/a	NoResponse	0	n/a	n/a	3	12	Fixation	Neutral	True
128.263	0.28	Control	0.9231	0.004	No	2.983	-0.004	2.0	NoResponse	0	0.484	127.747	3	12	Target	Neutral	True
128.547	0.42	Control	0.9231	n/a	No	2.983	n/a	n/a	NoResponse	0	n/a	n/a	3	12	Blank	Neutral	True
128.747	0.3	Control	0.9231	0.004	No	2.983	-0.004	2.0	NoResponse	0	0.484	n/a	3	12	ButtonPress	Neutral	True
128.965	1.45	Control	0.9231	n/a	No	2.983	n/a	5.0	NoResponse	0	0.034	127.999	3	12	Feedback	Neutral	True
130.42	2.983	Control	0.9231	n/a	No	2.983	n/a	n/a	NoResponse	0	0.0	n/a	3	12	ISIslide	Neutral	True
133.429	0.25	Control	0.9286	0.0	Yes	2.771	0.029	n/a	GoodResponse	0	n/a	n/a	3	13	Cue	Neutral	True
133.679	4.0	Control	0.9286	0.0	Yes	2.771	0.0	n/a	GoodResponse	0	n/a	n/a	3	13	Fixation	Neutral	True
137.675	0.27	Control	0.9286	0.004	Yes	2.771	-0.004	2.0	GoodResponse	0	0.247	136.922	3	13	Target	Neutral	True
137.922	0.3	Control	0.9286	0.004	Yes	2.771	-0.004	2.0	GoodResponse	0	0.247	n/a	3	13	ButtonPress	Neutral	True
137.959	0.43	Control	0.9286	n/a	Yes	2.771	n/a	n/a	GoodResponse	0	n/a	n/a	3	13	Blank	Neutral	True
138.377	1.45	Control	0.9286	n/a	Yes	2.771	n/a	5.0	GoodResponse	0	0.036	137.413	3	13	Feedback	Neutral	True
139.831	2.771	Control	0.9286	n/a	Yes	2.771	n/a	n/a	GoodResponse	0	0.0	n/a	3	13	ISIslide	Neutral	True
142.623	0.25	Win2	0.9333	0.0	Yes	2.677	0.023	n/a	GoodResponse	1	n/a	n/a	4	14	Cue	Win	True
142.873	4.1	Win2	0.9333	0.001	Yes	2.677	0.0	n/a	GoodResponse	1	n/a	n/a	4	14	Fixation	Win	True
146.969	0.26	Win2	0.9333	0.004	Yes	2.677	-0.004	2.0	GoodResponse	1	0.241	146.21	4	14	Target	Win	True
147.21	0.3	Win2	0.9333	0.004	Yes	2.677	-0.004	2.0	GoodResponse	1	0.241	n/a	4	14	ButtonPress	Win	True
147.237	0.44	Win2	0.9333	n/a	Yes	2.677	n/a	n/a	GoodResponse	1	n/a	n/a	4	14	Blank	Win	True
147.671	1.45	Win2	0.9333	n/a	Yes	2.677	n/a	5.0	GoodResponse	1	0.01	146.681	4	14	Feedback	Win	True
149.126	2.677	Win2	0.9333	n/a	Yes	2.677	n/a	n/a	GoodResponse	1	0.0	n/a	4	14	ISIslide	Win	True
151.817	0.25	Control	0.9375	0.0	Yes	2.983	0.017	n/a	GoodResponse	0	n/a	n/a	4	15	Cue	Neutral	True
152.068	4.0	Control	0.9375	0.0	Yes	2.983	0.001	n/a	GoodResponse	0	n/a	n/a	4	15	Fixation	Neutral	True
156.063	0.25	Control	0.9375	0.004	Yes	2.983	-0.004	2.0	GoodResponse	0	0.225	155.288	4	15	Target	Neutral	True
156.288	0.3	Control	0.9375	0.004	Yes	2.983	-0.004	2.0	GoodResponse	0	0.225	n/a	4	15	ButtonPress	Neutral	True
156.314	0.45	Control	0.9375	n/a	Yes	2.983	n/a	n/a	GoodResponse	0	n/a	n/a	4	15	Blank	Neutral	True
156.765	1.45	Control	0.9375	n/a	Yes	2.983	n/a	5.0	GoodResponse	0	0.038	155.803	4	15	Feedback	Neutral	True
158.219	2.983	Control	0.9375	n/a	Yes	2.983	n/a	n/a	GoodResponse	0	0.0	n/a	4	15	ISIslide	Neutral	True
161.228	0.25	Win2	0.8824	0.001	No	2.872	0.028	n/a	NoResponse	0	n/a	n/a	4	16	Cue	MissedWin	True
161.479	4.0	Win2	0.8824	0.0	No	2.872	0.001	n/a	NoResponse	0	n/a	n/a	4	16	Fixation	MissedWin	True
165.475	0.24	Win2	0.8824	0.003	No	2.872	-0.003	2.0	NoResponse	0	0.258	164.733	4	16	Target	MissedWin	True
165.725	0.46	Win2	0.8824	n/a	No	2.872	n/a	n/a	NoResponse	0	n/a	n/a	4	16	Blank	MissedWin	True
165.733	0.3	Win2	0.8824	0.003	No	2.872	-0.003	2.0	NoResponse	0	0.258	n/a	4	16	ButtonPress	MissedWin	True
166.177	1.45	Win2	0.8824	n/a	No	2.872	n/a	5.0	NoResponse	0	0.041	165.218	4	16	Feedback	MissedWin	True
167.631	2.872	Win2	0.8824	n/a	No	2.872	n/a	n/a	NoResponse	0	0.0	n/a	4	16	ISIslide	MissedWin	True
170.523	0.25	Lose2	0.8889	0.0	Yes	2.727	0.023	n/a	GoodResponse	0	n/a	n/a	4	17	Cue	AvoidedLoss	True
170.774	3.95	Lose2	0.8889	0.0	Yes	2.727	0.001	n/a	GoodResponse	0	n/a	n/a	4	17	Fixation	AvoidedLoss	True
174.719	0.23	Lose2	0.8889	0.004	Yes	2.727	-0.004	2.0	GoodResponse	0	0.192	173.911	4	17	Target	AvoidedLoss	True
174.911	0.3	Lose2	0.8889	0.004	Yes	2.727	-0.004	2.0	GoodResponse	0	0.192	n/a	4	17	ButtonPress	AvoidedLoss	True
174.953	0.47	Lose2	0.8889	n/a	Yes	2.727	n/a	n/a	GoodResponse	0	n/a	n/a	4	17	Blank	AvoidedLoss	True
175.421	1.45	Lose2	0.8889	n/a	Yes	2.727	n/a	5.0	GoodResponse	0	0.017	174.438	4	17	Feedback	AvoidedLoss	True
176.875	2.727	Lose2	0.8889	n/a	Yes	2.727	n/a	n/a	GoodResponse	0	0.0	n/a	4	17	ISIslide	AvoidedLoss	True
179.617	0.25	Lose2	0.8946999999999999	0.0	Yes	2.733	0.017	n/a	GoodResponse	0	n/a	n/a	4	18	Cue	AvoidedLoss	True
179.868	4.05	Lose2	0.8946999999999999	0.0	Yes	2.733	0.001	n/a	GoodResponse	0	n/a	n/a	4	18	Fixation	AvoidedLoss	True
183.913	0.22	Lose2	0.8946999999999999	0.004	Yes	2.733	-0.004	2.0	GoodResponse	0	0.181	183.094	4	18	Target	AvoidedLoss	True
184.094	0.3	Lose2	0.8946999999999999	0.004	Yes	2.733	-0.004	2.0	GoodResponse	0	0.181	n/a	4	18	ButtonPress	AvoidedLoss	True
184.147	0.48	Lose2	0.8946999999999999	n/a	Yes	2.733	n/a	n/a	GoodResponse	0	n/a	n/a	4	18	Blank	AvoidedLoss	True
184.615	1.45	Lose2	0.8946999999999999	n/a	Yes	2.733	n/a	5.0	GoodResponse	0	0.043	183.658	4	18	Feedback	AvoidedLoss	True
186.07	2.733	Lose2	0.8946999999999999	n/a	Yes	2.733	n/a	n/a	GoodResponse	0	0.0	n/a	4	18	ISIslide	AvoidedLoss	True
188.828	0.25	Control	0.85	0.0	No	2.922	0.028	n/a	PrematurePress	0	n/a	n/a	4	19	Cue	Neutral	True
189.079	3.95	Control	0.85	0.0	No	2.922	0.001	n/a	PrematurePress	0	n/a	n/a	4	19	Fixation	Neutral	True
193.024	0.21	Control	0.85	0.004	No	2.922	-0.004	2.0	PrematurePress	0	0.087	192.111	4	19	Target	Neutral	True
193.111	0.3	Control	0.85	0.004	No	2.922	-0.004	2.0	PrematurePress	0	0.087	n/a	4	19	ButtonPress	Neutral	True
193.241	0.49	Control	0.85	n/a	No	2.922	n/a	n/a	PrematurePress	0	n/a	n/a	4	19	Blank	Neutral	True
193.726	1.45	Control	0.85	n/a	No	2.922	n/a	5.0	PrematurePress	0	0.006	192.732	4	19	Feedback	Neutral	True
195.18	2.922	Control	0.85	n/a	No	2.922	n/a	n/a	PrematurePress	0	0.0	n/a	4	19	ISIslide	Neutral	True
198.122	0.25	Control	0.8571	0.0	Yes	2.628	0.022	n/a	GoodResponse	0	n/a	n/a	4	20	Cue	Neutral	True
198.373	4.05	Control	0.8571	0.0	Yes	2.628	0.001	n/a	GoodResponse	0	n/a	n/a	4	20	Fixation	Neutral	True
202.419	0.2	Control	0.8571	0.003	Yes	2.628	-0.003	2.0	GoodResponse	0	0.197	201.616	4	20	Target	Neutral	True
202.616	0.3	Control	0.8571	0.003	Yes	2.628	-0.003	2.0	GoodResponse	0	0.197	n/a	4	20	ButtonPress	Neutral	True
202.619	0.5	Control	0.8571	n/a	Yes	2.628	n/a	n/a	GoodResponse	0	n/a	n/a	4	20	Blank	Neutral	True
203.121	1.45	Control	0.8571	n/a	Yes	2.628	n/a	5.0	GoodResponse	0	0.024	202.145	4	20	Feedback	Neutral	True
204.575	2.628	Control	0.8571	n/a	Yes	2.628	n/a	n/a	GoodResponse	0	0.0	n/a	4	20	ISIslide	Neutral	True
207.216	0.25	Control	0.8181999999999999	0.0	No	2.784	0.016	n/a	NoResponse	0	n/a	n/a	4	21	Cue	Neutral	True
207.467	4.1	Control	0.8181999999999999	0.0	No	2.784	0.001	n/a	NoResponse	0	n/a	n/a	4	21	Fixation	Neutral	True
211.563	0.19	Control	0.8181999999999999	0.003	No	2.784	-0.003	2.0	NoResponse	0	0.242	210.805	4	21	Target	Neutral	True
211.763	0.51	Control	0.8181999999999999	n/a	No	2.784	n/a	n/a	NoResponse	0	n/a	n/a	4	21	Blank	Neutral	True
211.805	0.3	Control	0.8181999999999999	0.003	No	2.784	-0.003	2.0	NoResponse	0	0.242	n/a	4	21	ButtonPress	Neutral	True
212.265	1.45	Control	0.8181999999999999	n/a	No	2.784	n/a	5.0	NoResponse	0	0.004	211.269	4	21	Feedback	Neutral	True
213.719	2.784	Control	0.8181999999999999	n/a	No	2.784	n/a	n/a	NoResponse	0	0.0	n/a	4	21	ISIslide	Neutral	True
216.528	0.25	Control	0.7826000000000001	0.0	No	2.772	0.028	n/a	NoResponse	0	n/a	n/a	4	22	Cue	Neutral	False
216.778	4.0	Control	0.7826000000000001	0.0	No	2.772	0.0	2.0	NoResponse	0	0.262	216.04	4	22	Fixation	Neutral	False
217.04	0.3	Control	0.7826000000000001	0.0	No	2.772	0.0	2.0	NoResponse	0	0.262	n/a	4	22	ButtonPress	Neutral	False
220.774	0.18	Control	0.7826000000000001	0.004	No	2.772	-0.004	2.0	NoResponse	0	0.236	220.01	4	22	Target	Neutral	False
220.957	0.52	Control	0.7826000000000001	n/a	No	2.772	n/a	n/a	NoResponse	0	n/a	n/a	4	22	Blank	Neutral	False
221.01	0.3	Control	0.7826000000000001	0.004	No	2.772	-0.004	2.0	NoResponse	0	0.236	n/a	4	22	ButtonPress	Neutral	False
221.476	1.45	Control	0.7826000000000001	n/a	No	2.772	n/a	5.0	NoResponse	0	0.01	220.486	4	22	Feedback	Neutral	False
222.93	2.772	Control	0.7826000000000001	n/a	No	2.772	n/a	n/a	NoResponse	0	0.0	n/a	4	22	ISIslide	Neutral	False
225.722	0.25	Control	0.75	0.0	No	2.778	0.022	n/a	NoResponse	0	n/a	n/a	4	23	Cue	Neutral	True
225.972	3.9	Control	0.75	0.001	No	2.778	0.0	n/a	NoResponse	0	n/a	n/a	4	23	Fixation	Neutral	True
229.867	0.17	Control	0.75	0.005	No	2.778	-0.005	2.0	NoResponse	0	0.211	229.078	4	23	Target	Neutral	True
230.051	0.53	Control	0.75	n/a	No	2.778	n/a	n/a	NoResponse	0	n/a	n/a	4	23	Blank	Neutral	True
230.078	0.3	Control	0.75	0.005	No	2.778	-0.005	2.0	NoResponse	0	0.211	n/a	4	23	ButtonPress	Neutral	True
230.57	1.45	Control	0.75	n/a	No	2.778	n/a	5.0	NoResponse	0	0.038	229.608	4	23	Feedback	Neutral	True
232.024	2.778	Control	0.75	n/a	No	2.778	n/a	n/a	NoResponse	0	0.0	n/a	4	23	ISIslide	Neutral	True
234.816	0.25	Win2	0.72	0.0	No	3.134	0.016	n/a	NoResponse	0	n/a	n/a	4	24	Cue	MissedWin	True
235.066	3.95	Win2	0.72	0.0	No	3.134	0.0	n/a	NoResponse	0	n/a	n/a	4	24	Fixation	MissedWin	True
239.012	0.16	Win2	0.72	0.004	No	3.134	-0.004	2.0	NoResponse	0	0.175	238.187	4	24	Target	MissedWin	True
239.179	0.54	Win2	0.72	n/a	No	3.134	n/a	n/a	NoResponse	0	n/a	n/a	4	24	Blank	MissedWin	True
239.187	0.3	Win2	0.72	0.004	No	3.134	-0.004	2.0	NoResponse	0	0.175	n/a	4	24	ButtonPress	MissedWin	True
239.714	1.45	Win2	0.72	n/a	No	3.134	n/a	5.0	NoResponse	0	0.016	238.73	4	24	Feedback	MissedWin	True
241.168	3.134	Win2	0.72	n/a	No	3.134	n/a	n/a	NoResponse	0	0.0	n/a	4	24	ISIslide	MissedWin	True
244.327	0.25	Win2	0.6923	0.001	No	3.073	0.027	n/a	NoResponse	0	n/a	n/a	4	25	Cue	MissedWin	True
244.578	4.0	Win2	0.6923	0.0	No	3.073	0.001	n/a	NoResponse	0	n/a	n/a	4	25	Fixation	MissedWin	True
248.574	0.15	Win2	0.6923	0.003	No	3.073	-0.003	2.0	NoResponse	0	0.177	247.751	4	25	Target	MissedWin	True
248.724	0.55	Win2	0.6923	n/a	No	3.073	n/a	n/a	NoResponse	0	n/a	n/a	4	25	Blank	MissedWin	True
248.751	0.3	Win2	0.6923	0.003	No	3.073	-0.003	2.0	NoResponse	0	0.177	n/a	4	25	ButtonPress	MissedWin	True
249.276	1.45	Win2	0.6923	n/a	No	3.073	n/a	5.0	NoResponse	0	0.016	248.292	4	25	Feedback	MissedWin	True
250.73	3.073	Win2	0.6923	n/a	No	3.073	n/a	n/a	NoResponse	0	0.0	n/a	4	25	ISIslide	MissedWin	True
253.823	0.25	Win2	0.6667000000000001	0.0	No	2.927	0.023	n/a	NoResponse	0	n/a	n/a	4	26	Cue	MissedWin	True
254.073	3.95	Win2	0.6667000000000001	0.0	No	2.927	0.0	n/a	NoResponse	0	n/a	n/a	4	26	Fixation	MissedWin	True
258.019	0.15	Win2	0.6667000000000001	0.004	No	2.927	-0.004	2.0	NoResponse	0	0.168	257.187	4	26	Target	MissedWin	True
258.169	0.55	Win2	0.6667000000000001	n/a	No	2.927	n/a	n/a	NoResponse	0	n/a	n/a	4	26	Blank	MissedWin	True
258.187	0.3	Win2	0.6667000000000001	0.004	No	2.927	-0.004	2.0	NoResponse	0	0.168	n/a	4	26	ButtonPress	MissedWin	True
258.721	1.45	Win2	0.6667000000000001	n/a	No	2.927	n/a	5.0	NoResponse	0	0.033	257.754	4	26	Feedback	MissedWin	True
260.175	2.927	Win2	0.6667000000000001	n/a	No	2.927	n/a	n/a	NoResponse	0	0.0	n/a	4	26	ISIslide	MissedWin	True
263.117	0.25	Lose2	0.6429	0.0	No	2.833	0.017	n/a	NoResponse	-1	n/a	n/a	3	27	Cue	Loss	True
263.368	4.05	Lose2	0.6429	0.0	No	2.833	0.001	n/a	NoResponse	-1	n/a	n/a	3	27	Fixation	Loss	True
267.413	0.15	Lose2	0.6429	0.004	No	2.833	-0.004	2.0	NoResponse	-1	0.174	266.587	3	27	Target	Loss	True
267.564	0.55	Lose2	0.6429	n/a	No	2.833	n/a	n/a	NoResponse	-1	n/a	n/a	3	27	Blank	Loss	True
267.587	0.3	Lose2	0.6429	0.004	No	2.833	-0.004	2.0	NoResponse	-1	0.174	n/a	3	27	ButtonPress	Loss	True
268.115	1.45	Lose2	0.6429	n/a	No	2.833	n/a	5.0	NoResponse	-1	0.007	267.122	3	27	Feedback	Loss	True
269.57	2.833	Lose2	0.6429	n/a	No	2.833	n/a	n/a	NoResponse	-1	0.0	n/a	3	27	ISIslide	Loss	True
272.428	0.25	Control	0.6207	0.0	No	2.822	0.028	n/a	NoResponse	0	n/a	n/a	3	28	Cue	Neutral	True
272.679	4.05	Control	0.6207	0.0	No	2.822	0.001	n/a	NoResponse	0	n/a	n/a	3	28	Fixation	Neutral	True
276.725	0.16	Control	0.6207	0.003	No	2.822	-0.003	2.0	NoResponse	0	0.233	275.958	3	28	Target	Neutral	True
276.892	0.54	Control	0.6207	n/a	No	2.822	n/a	n/a	NoResponse	0	n/a	n/a	3	28	Blank	Neutral	True
276.958	0.3	Control	0.6207	0.003	No	2.822	-0.003	2.0	NoResponse	0	0.233	n/a	3	28	ButtonPress	Neutral	True
277.427	1.45	Control	0.6207	n/a	No	2.822	n/a	5.0	NoResponse	0	0.01	276.437	3	28	Feedback	Neutral	True
278.881	2.822	Control	0.6207	n/a	No	2.822	n/a	n/a	NoResponse	0	0.0	n/a	3	28	ISIslide	Neutral	True
281.723	0.25	Lose2	0.6	0.0	No	2.827	0.023	n/a	LatePress	-1	n/a	n/a	2	29	Cue	Loss	True
281.974	3.95	Lose2	0.6	0.0	No	2.827	0.001	n/a	LatePress	-1	n/a	n/a	2	29	Fixation	Loss	True
285.919	0.17	Lose2	0.6	0.004	No	2.827	-0.004	2.0	LatePress	-1	0.175	285.094	2	29	Target	Loss	True
286.094	0.3	Lose2	0.6	0.004	No	2.827	-0.004	2.0	LatePress	-1	0.175	n/a	2	29	ButtonPress	Loss	True
286.103	0.53	Lose2	0.6	n/a	No	2.827	n/a	n/a	LatePress	-1	n/a	n/a	2	29	Blank	Loss	True
286.621	1.45	Lose2	0.6	n/a	No	2.827	n/a	5.0	LatePress	-1	0.036	285.657	2	29	Feedback	Loss	True
288.075	2.827	Lose2	0.6	n/a	No	2.827	n/a	n/a	LatePress	-1	0.0	n/a	2	29	ISIslide	Loss	True
290.917	0.25	Win2	0.6129	0.0	Yes	2.783	0.017	n/a	GoodResponse	1	n/a	n/a	3	30	Cue	Win	True
291.168	3.9	Win2	0.6129	0.0	Yes	2.783	0.001	n/a	GoodResponse	1	n/a	n/a	3	30	Fixation	Win	True
295.063	0.18	Win2	0.6129	0.004	Yes	2.783	-0.004	2.0	GoodResponse	1	0.179	294.242	3	30	Target	Win	True
295.242	0.3	Win2	0.6129	0.004	Yes	2.783	-0.004	2.0	GoodResponse	1	0.179	n/a	3	30	ButtonPress	Win	True
295.247	0.52	Win2	0.6129	n/a	Yes	2.783	n/a	n/a	GoodResponse	1	n/a	n/a	3	30	Blank	Win	True
295.765	1.45	Win2	0.6129	n/a	Yes	2.783	n/a	5.0	GoodResponse	1	0.014	294.779	3	30	Feedback	Win	True
297.219	2.783	Win2	0.6129	n/a	Yes	2.783	n/a	n/a	GoodResponse	1	0.0	n/a	3	30	ISIslide	Win	True
300.028	0.25	Lose2	0.625	0.0	Yes	2.822	0.028	n/a	GoodResponse	0	n/a	n/a	3	31	Cue	AvoidedLoss	True
300.278	4.05	Lose2	0.625	0.001	Yes	2.822	0.0	n/a	GoodResponse	0	n/a	n/a	3	31	Fixation	AvoidedLoss	True
304.324	0.19	Lose2	0.625	0.004	Yes	2.822	-0.004	2.0	GoodResponse	0	0.181	303.505	3	31	Target	AvoidedLoss	True
304.505	0.3	Lose2	0.625	0.004	Yes	2.822	-0.004	2.0	GoodResponse	0	0.181	n/a	3	31	ButtonPress	AvoidedLoss	True
304.525	0.51	Lose2	0.625	n/a	Yes	2.822	n/a	n/a	GoodResponse	0	n/a	n/a	3	31	Blank	AvoidedLoss	True
305.026	1.45	Lose2	0.625	n/a	Yes	2.822	n/a	5.0	GoodResponse	0	0.021	304.047	3	31	Feedback	AvoidedLoss	True
306.48	2.822	Lose2	0.625	n/a	Yes	2.822	n/a	n/a	GoodResponse	0	0.0	n/a	3	31	ISIslide	AvoidedLoss	True
309.322	0.25	Lose2	0.6364	0.0	Yes	2.628	0.022	n/a	GoodResponse	0	n/a	n/a	3	32	Cue	AvoidedLoss	True
309.573	4.15	Lose2	0.6364	0.0	Yes	2.628	0.001	n/a	GoodResponse	0	n/a	n/a	3	32	Fixation	AvoidedLoss	True
313.719	0.2	Lose2	0.6364	0.003	Yes	2.628	-0.003	2.0	GoodResponse	0	0.183	312.902	3	32	Target	AvoidedLoss	True
313.902	0.3	Lose2	0.6364	0.003	Yes	2.628	-0.003	2.0	GoodResponse	0	0.183	n/a	3	32	ButtonPress	AvoidedLoss	True
313.919	0.5	Lose2	0.6364	n/a	Yes	2.628	n/a	n/a	GoodResponse	0	n/a	n/a	3	32	Blank	AvoidedLoss	True
314.421	1.45	Lose2	0.6364	n/a	Yes	2.628	n/a	5.0	GoodResponse	0	0.04	313.461	3	32	Feedback	AvoidedLoss	True
315.875	2.628	Lose2	0.6364	n/a	Yes	2.628	n/a	n/a	GoodResponse	0	0.0	n/a	3	32	ISIslide	AvoidedLoss	True
318.516	0.25	Win2	0.6175999999999999	0.001	No	2.684	0.016	n/a	NoResponse	0	n/a	n/a	3	33	Cue	MissedWin	True
318.767	4.0	Win2	0.6175999999999999	0.0	No	2.684	0.001	n/a	NoResponse	0	n/a	n/a	3	33	Fixation	MissedWin	True
322.763	0.21	Win2	0.6175999999999999	0.003	No	2.684	-0.003	2.0	NoResponse	0	0.224	321.987	3	33	Target	MissedWin	True
322.98	0.49	Win2	0.6175999999999999	n/a	No	2.684	n/a	n/a	NoResponse	0	n/a	n/a	3	33	Blank	MissedWin	True
322.987	0.3	Win2	0.6175999999999999	0.003	No	2.684	-0.003	2.0	NoResponse	0	0.224	n/a	3	33	ButtonPress	MissedWin	True
323.465	1.45	Win2	0.6175999999999999	n/a	No	2.684	n/a	5.0	NoResponse	0	0.021	322.486	3	33	Feedback	MissedWin	True
324.919	2.684	Win2	0.6175999999999999	n/a	No	2.684	n/a	n/a	NoResponse	0	0.0	n/a	3	33	ISIslide	MissedWin	True
327.627	0.25	Lose2	0.6286	0.0	Yes	2.623	0.027	n/a	GoodResponse	0	n/a	n/a	3	34	Cue	AvoidedLoss	True
327.878	4.05	Lose2	0.6286	0.0	Yes	2.623	0.001	n/a	GoodResponse	0	n/a	n/a	3	34	Fixation	AvoidedLoss	True
331.923	0.22	Lose2	0.6286	0.004	Yes	2.623	-0.004	2.0	GoodResponse	0	0.196	331.119	3	34	Target	AvoidedLoss	True
332.119	0.3	Lose2	0.6286	0.004	Yes	2.623	-0.004	2.0	GoodResponse	0	0.196	n/a	3	34	ButtonPress	AvoidedLoss	True
332.157	0.48	Lose2	0.6286	n/a	Yes	2.623	n/a	n/a	GoodResponse	0	n/a	n/a	3	34	Blank	AvoidedLoss	True
332.625	1.45	Lose2	0.6286	n/a	Yes	2.623	n/a	5.0	GoodResponse	0	0.031	331.656	3	34	Feedback	AvoidedLoss	True
334.08	2.623	Lose2	0.6286	n/a	Yes	2.623	n/a	n/a	GoodResponse	0	0.0	n/a	3	34	ISIslide	AvoidedLoss	True
336.721	0.25	Lose2	0.6389	0.0	Yes	2.679	0.021	n/a	GoodResponse	0	n/a	n/a	3	35	Cue	AvoidedLoss	True
336.972	4.0	Lose2	0.6389	0.0	Yes	2.679	0.001	n/a	GoodResponse	0	n/a	n/a	3	35	Fixation	AvoidedLoss	True
340.967	0.23	Lose2	0.6389	0.004	Yes	2.679	-0.004	2.0	GoodResponse	0	0.189	340.156	3	35	Target	AvoidedLoss	True
341.156	0.3	Lose2	0.6389	0.004	Yes	2.679	-0.004	2.0	GoodResponse	0	0.189	n/a	3	35	ButtonPress	AvoidedLoss	True
341.201	0.47	Lose2	0.6389	n/a	Yes	2.679	n/a	n/a	GoodResponse	0	n/a	n/a	3	35	Blank	AvoidedLoss	True
341.669	1.45	Lose2	0.6389	n/a	Yes	2.679	n/a	5.0	GoodResponse	0	0.012	340.681	3	35	Feedback	AvoidedLoss	True
343.124	2.679	Lose2	0.6389	n/a	Yes	2.679	n/a	n/a	GoodResponse	0	0.0	n/a	3	35	ISIslide	AvoidedLoss	True
345.815	0.25	Control	0.6486	0.0	Yes	2.685	0.015	n/a	GoodResponse	0	n/a	n/a	3	36	Cue	Neutral	True
346.066	4.0	Control	0.6486	0.0	Yes	2.685	0.001	n/a	GoodResponse	0	n/a	n/a	3	36	Fixation	Neutral	True
350.061	0.24	Control	0.6486	0.004	Yes	2.685	-0.004	2.0	GoodResponse	0	0.191	349.252	3	36	Target	Neutral	True
350.252	0.3	Control	0.6486	0.004	Yes	2.685	-0.004	2.0	GoodResponse	0	0.191	n/a	3	36	ButtonPress	Neutral	True
350.312	0.46	Control	0.6486	n/a	Yes	2.685	n/a	n/a	GoodResponse	0	n/a	n/a	3	36	Blank	Neutral	True
350.763	1.45	Control	0.6486	n/a	Yes	2.685	n/a	5.0	GoodResponse	0	0.04	349.803	3	36	Feedback	Neutral	True
352.217	2.685	Control	0.6486	n/a	Yes	2.685	n/a	n/a	GoodResponse	0	0.0	n/a	3	36	ISIslide	Neutral	True
354.926	0.25	Win2	0.6579	0.0	Yes	2.874	0.026	n/a	GoodResponse	1	n/a	n/a	4	37	Cue	Win	False
355.176	4.0	Win2	0.6579	0.0	Yes	2.874	0.0	2.0	GoodResponse	1	3.626	357.802	4	37	Fixation	Win	False
358.802	0.3	Win2	0.6579	0.0	Yes	2.874	0.0	2.0	GoodResponse	1	3.626	n/a	4	37	ButtonPress	Win	False
359.172	0.25	Win2	0.6579	0.004	Yes	2.874	-0.004	2.0	GoodResponse	1	0.103	358.275	4	37	Target	Win	False
359.275	0.3	Win2	0.6579	0.004	Yes	2.874	-0.004	2.0	GoodResponse	1	0.103	n/a	4	37	ButtonPress	Win	False
359.422	0.45	Win2	0.6579	n/a	Yes	2.874	n/a	n/a	GoodResponse	1	n/a	n/a	4	37	Blank	Win	False
359.874	1.45	Win2	0.6579	n/a	Yes	2.874	n/a	5.0	GoodResponse	1	0.002	358.876	4	37	Feedback	Win	False
361.328	2.874	Win2	0.6579	n/a	Yes	2.874	n/a	n/a	GoodResponse	1	0.0	n/a	4	37	ISIslide	Win	False
364.22	0.25	Lose2	0.6409999999999999	0.0	No	2.83	0.02	n/a	NoResponse	-1	n/a	n/a	3	38	Cue	Loss	True
364.471	3.95	Lose2	0.6409999999999999	0.0	No	2.83	0.001	n/a	NoResponse	-1	n/a	n/a	3	38	Fixation	Loss	True
368.416	0.25	Lose2	0.6409999999999999	0.004	No	2.83	-0.004	2.0	NoResponse	-1	0.321	367.737	3	38	Target	Loss	True
368.667	0.45	Lose2	0.6409999999999999	n/a	No	2.83	n/a	n/a	NoResponse	-1	n/a	n/a	3	38	Blank	Loss	True
368.737	0.3	Lose2	0.6409999999999999	0.004	No	2.83	-0.004	2.0	NoResponse	-1	0.321	n/a	3	38	ButtonPress	Loss	True
369.118	1.45	Lose2	0.6409999999999999	n/a	No	2.83	n/a	5.0	NoResponse	-1	0.027	368.145	3	38	Feedback	Loss	True
370.572	2.83	Lose2	0.6409999999999999	n/a	No	2.83	n/a	n/a	NoResponse	-1	0.0	n/a	3	38	ISIslide	Loss	True
373.431	0.25	Win2	0.65	0.0	Yes	2.969	0.031	n/a	GoodResponse	1	n/a	n/a	4	39	Cue	Win	True
373.682	4.1	Win2	0.65	0.0	Yes	2.969	0.001	n/a	GoodResponse	1	n/a	n/a	4	39	Fixation	Win	True
377.777	0.26	Win2	0.65	0.004	Yes	2.969	-0.004	2.0	GoodResponse	1	0.202	376.979	4	39	Target	Win	True
377.979	0.3	Win2	0.65	0.004	Yes	2.969	-0.004	2.0	GoodResponse	1	0.202	n/a	4	39	ButtonPress	Win	True
378.045	0.44	Win2	0.65	n/a	Yes	2.969	n/a	n/a	GoodResponse	1	n/a	n/a	4	39	Blank	Win	True
378.479	1.45	Win2	0.65	n/a	Yes	2.969	n/a	5.0	GoodResponse	1	0.031	377.51	4	39	Feedback	Win	True
379.934	2.969	Win2	0.65	n/a	Yes	2.969	n/a	n/a	GoodResponse	1	0.0	n/a	4	39	ISIslide	Win	True
382.926	0.25	Win2	0.6585	0.0	Yes	2.724	0.026	n/a	GoodResponse	1	n/a	n/a	5	40	Cue	Win	False
383.177	3.95	Win2	0.6585	0.0	Yes	2.724	0.001	2.0	GoodResponse	1	3.644	385.821	5	40	Fixation	Win	False
386.821	0.3	Win2	0.6585	0.0	Yes	2.724	0.001	2.0	GoodResponse	1	3.644	n/a	5	40	ButtonPress	Win	False
387.122	0.27	Win2	0.6585	0.004	Yes	2.724	-0.004	2.0	GoodResponse	1	0.103	386.225	5	40	Target	Win	False
387.225	0.3	Win2	0.6585	0.004	Yes	2.724	-0.004	2.0	GoodResponse	1	0.103	n/a	5	40	ButtonPress	Win	False
387.406	0.43	Win2	0.6585	n/a	Yes	2.724	n/a	n/a	GoodResponse	1	n/a	n/a	5	40	Blank	Win	False
387.824	1.45	Win2	0.6585	n/a	Yes	2.724	n/a	5.0	GoodResponse	1	0.007	386.831	5	40	Feedback	Win	False
389.278	2.724	Win2	0.6585	n/a	Yes	2.724	n/a	n/a	GoodResponse	1	0.0	n/a	5	40	ISIslide	Win	False
392.02	0.25	Win2	0.6667000000000001	0.0	Yes	2.78	0.02	n/a	GoodResponse	1	n/a	n/a	6	41	Cue	Win	True
392.271	3.9	Win2	0.6667000000000001	0.0	Yes	2.78	0.001	n/a	GoodResponse	1	n/a	n/a	6	41	Fixation	Win	True
396.166	0.27	Win2	0.6667000000000001	0.004	Yes	2.78	-0.004	2.0	GoodResponse	1	0.179	395.345	6	41	Target	Win	True
396.345	0.3	Win2	0.6667000000000001	0.004	Yes	2.78	-0.004	2.0	GoodResponse	1	0.179	n/a	6	41	ButtonPress	Win	True
396.45	0.43	Win2	0.6667000000000001	n/a	Yes	2.78	n/a	n/a	GoodResponse	1	n/a	n/a	6	41	Blank	Win	True
396.868	1.45	Win2	0.6667000000000001	n/a	Yes	2.78	n/a	5.0	GoodResponse	1	0.032	395.9	6	41	Feedback	Win	True
398.322	2.78	Win2	0.6667000000000001	n/a	Yes	2.78	n/a	n/a	GoodResponse	1	0.0	n/a	6	41	ISIslide	Win	True
401.114	0.25	Control	0.6744	0.0	Yes	2.936	0.014	n/a	GoodResponse	0	n/a	n/a	6	42	Cue	Neutral	True
401.365	3.85	Control	0.6744	0.0	Yes	2.936	0.001	n/a	GoodResponse	0	n/a	n/a	6	42	Fixation	Neutral	True
405.21	0.26	Control	0.6744	0.004	Yes	2.936	-0.004	2.0	GoodResponse	0	0.227	404.437	6	42	Target	Neutral	True
405.437	0.3	Control	0.6744	0.004	Yes	2.936	-0.004	2.0	GoodResponse	0	0.227	n/a	6	42	ButtonPress	Neutral	True
405.477	0.44	Control	0.6744	n/a	Yes	2.936	n/a	n/a	GoodResponse	0	n/a	n/a	6	42	Blank	Neutral	True
405.912	1.45	Control	0.6744	n/a	Yes	2.936	n/a	5.0	GoodResponse	0	0.013	404.925	6	42	Feedback	Neutral	True
407.366	2.936	Control	0.6744	n/a	Yes	2.936	n/a	n/a	GoodResponse	0	0.0	n/a	6	42	ISIslide	Neutral	True
410.325	0.25	Win2	0.6818000000000001	0.0	Yes	3.175	0.025	n/a	GoodResponse	1	n/a	n/a	7	43	Cue	Win	True
410.576	4.0	Win2	0.6818000000000001	0.0	Yes	3.175	0.001	n/a	GoodResponse	1	n/a	n/a	7	43	Fixation	Win	True
414.571	0.25	Win2	0.6818000000000001	0.004	Yes	3.175	-0.004	2.0	GoodResponse	1	0.233	413.804	7	43	Target	Win	True
414.804	0.3	Win2	0.6818000000000001	0.004	Yes	3.175	-0.004	2.0	GoodResponse	1	0.233	n/a	7	43	ButtonPress	Win	True
414.822	0.45	Win2	0.6818000000000001	n/a	Yes	3.175	n/a	n/a	GoodResponse	1	n/a	n/a	7	43	Blank	Win	True
415.273	1.45	Win2	0.6818000000000001	n/a	Yes	3.175	n/a	5.0	GoodResponse	1	0.018	414.291	7	43	Feedback	Win	True
416.727	3.175	Win2	0.6818000000000001	n/a	Yes	3.175	n/a	n/a	GoodResponse	1	0.0	n/a	7	43	ISIslide	Win	True
419.92	0.25	Win2	0.6667000000000001	0.0	No	2.98	0.02	n/a	LatePress	0	n/a	n/a	7	44	Cue	MissedWin	True
420.171	4.0	Win2	0.6667000000000001	0.0	No	2.98	0.001	n/a	LatePress	0	n/a	n/a	7	44	Fixation	MissedWin	True
424.166	0.24	Win2	0.6667000000000001	0.004	No	2.98	-0.004	2.0	LatePress	0	0.244	423.41	7	44	Target	MissedWin	True
424.41	0.3	Win2	0.6667000000000001	0.004	No	2.98	-0.004	2.0	LatePress	0	0.244	n/a	7	44	ButtonPress	MissedWin	True
424.417	0.46	Win2	0.6667000000000001	n/a	No	2.98	n/a	n/a	LatePress	0	n/a	n/a	7	44	Blank	MissedWin	True
424.868	1.45	Win2	0.6667000000000001	n/a	No	2.98	n/a	5.0	LatePress	0	0.033	423.901	7	44	Feedback	MissedWin	True
426.323	2.98	Win2	0.6667000000000001	n/a	No	2.98	n/a	n/a	LatePress	0	0.0	n/a	7	44	ISIslide	MissedWin	True
429.315	0.25	Control	0.6739	0.0	Yes	2.885	0.015	n/a	GoodResponse	0	n/a	n/a	7	45	Cue	Neutral	True
429.566	4.1	Control	0.6739	0.0	Yes	2.885	0.001	n/a	GoodResponse	0	n/a	n/a	7	45	Fixation	Neutral	True
433.661	0.23	Control	0.6739	0.004	Yes	2.885	-0.004	2.0	GoodResponse	0	0.208	432.869	7	45	Target	Neutral	True
433.869	0.3	Control	0.6739	0.004	Yes	2.885	-0.004	2.0	GoodResponse	0	0.208	n/a	7	45	ButtonPress	Neutral	True
433.896	0.47	Control	0.6739	n/a	Yes	2.885	n/a	n/a	GoodResponse	0	n/a	n/a	7	45	Blank	Neutral	True
434.364	1.45	Control	0.6739	n/a	Yes	2.885	n/a	5.0	GoodResponse	0	0.048	433.412	7	45	Feedback	Neutral	True
435.818	2.885	Control	0.6739	n/a	Yes	2.885	n/a	n/a	GoodResponse	0	0.0	n/a	7	45	ISIslide	Neutral	True
438.727	0.25	Lose2	0.6596	0.0	No	3.373	0.027	n/a	PrematurePress	-1	n/a	n/a	6	46	Cue	Loss	False
438.977	4.0	Lose2	0.6596	0.0	No	3.373	0.0	2.0	PrematurePress	-1	3.658	441.635	6	46	Fixation	Loss	False
442.635	0.3	Lose2	0.6596	0.0	No	3.373	0.0	2.0	PrematurePress	-1	3.658	n/a	6	46	ButtonPress	Loss	False
442.973	0.22	Lose2	0.6596	0.004	No	3.373	-0.004	2.0	PrematurePress	-1	0.081	442.054	6	46	Target	Loss	False
443.054	0.3	Lose2	0.6596	0.004	No	3.373	-0.004	2.0	PrematurePress	-1	0.081	n/a	6	46	ButtonPress	Loss	False
443.207	0.48	Lose2	0.6596	n/a	No	3.373	n/a	n/a	PrematurePress	-1	n/a	n/a	6	46	Blank	Loss	False
443.675	1.45	Lose2	0.6596	n/a	No	3.373	n/a	5.0	PrematurePress	-1	0.006	442.681	6	46	Feedback	Loss	False
445.129	3.373	Lose2	0.6596	n/a	No	3.373	n/a	n/a	PrematurePress	-1	0.0	n/a	6	46	ISIslide	Loss	False
448.523	0.25	Lose2	0.6667000000000001	0.0	Yes	2.677	0.023	n/a	GoodResponse	0	n/a	n/a	6	47	Cue	AvoidedLoss	True
448.773	4.0	Lose2	0.6667000000000001	0.0	Yes	2.677	0.0	n/a	GoodResponse	0	n/a	n/a	6	47	Fixation	AvoidedLoss	True
452.769	0.22	Lose2	0.6667000000000001	0.004	Yes	2.677	-0.004	2.0	GoodResponse	0	0.195	451.964	6	47	Target	AvoidedLoss	True
452.964	0.3	Lose2	0.6667000000000001	0.004	Yes	2.677	-0.004	2.0	GoodResponse	0	0.195	n/a	6	47	ButtonPress	AvoidedLoss	True
453.003	0.48	Lose2	0.6667000000000001	n/a	Yes	2.677	n/a	n/a	GoodResponse	0	n/a	n/a	6	47	Blank	AvoidedLoss	True
453.471	1.45	Lose2	0.6667000000000001	n/a	Yes	2.677	n/a	5.0	GoodResponse	0	0.014	452.485	6	47	Feedback	AvoidedLoss	True
454.925	2.677	Lose2	0.6667000000000001	n/a	Yes	2.677	n/a	n/a	GoodResponse	0	0.0	n/a	6	47	ISIslide	AvoidedLoss	True
457.617	0.25	Lose2	0.6735	0.0	Yes	3.033	0.017	n/a	GoodResponse	0	n/a	n/a	6	48	Cue	AvoidedLoss	True
457.867	3.95	Lose2	0.6735	0.0	Yes	3.033	0.0	n/a	GoodResponse	0	n/a	n/a	6	48	Fixation	AvoidedLoss	True
461.829	0.21	Lose2	0.6735	0.0	Yes	3.033	0.012	2.0	GoodResponse	0	0.194	461.023	6	48	Target	AvoidedLoss	True
462.023	0.3	Lose2	0.6735	0.0	Yes	3.033	0.012	2.0	GoodResponse	0	0.194	n/a	6	48	ButtonPress	AvoidedLoss	True
462.03	0.49	Lose2	0.6735	n/a	Yes	3.033	n/a	n/a	GoodResponse	0	n/a	n/a	6	48	Blank	AvoidedLoss	True
462.515	1.45	Lose2	0.6735	n/a	Yes	3.033	n/a	5.0	GoodResponse	0	0.0	461.515	6	48	Feedback	AvoidedLoss	True
463.969	3.033	Lose2	0.6735	n/a	Yes	3.033	n/a	n/a	GoodResponse	0	0.0	n/a	6	48	ISIslide	AvoidedLoss	True
467.028	0.25	Control	0.66	0.0	No	2.872	0.028	n/a	LatePress	0	n/a	n/a	6	49	Cue	Neutral	True
467.279	4.0	Control	0.66	0.0	No	2.872	0.001	n/a	LatePress	0	n/a	n/a	6	49	Fixation	Neutral	True
471.274	0.2	Control	0.66	0.004	No	2.872	-0.004	2.0	LatePress	0	0.204	470.478	6	49	Target	Neutral	True
471.475	0.5	Control	0.66	n/a	No	2.872	n/a	n/a	LatePress	0	n/a	n/a	6	49	Blank	Neutral	True
471.478	0.3	Control	0.66	0.004	No	2.872	-0.004	2.0	LatePress	0	0.204	n/a	6	49	ButtonPress	Neutral	True
471.976	1.45	Control	0.66	n/a	No	2.872	n/a	5.0	LatePress	0	0.001	470.977	6	49	Feedback	Neutral	True
473.431	2.872	Control	0.66	n/a	No	2.872	n/a	n/a	LatePress	0	0.0	n/a	6	49	ISIslide	Neutral	True
476.323	0.25	Control	0.6667000000000001	0.0	Yes	2.777	0.023	n/a	GoodResponse	0	n/a	n/a	6	50	Cue	Neutral	True
476.573	4.0	Control	0.6667000000000001	0.0	Yes	2.777	0.0	n/a	GoodResponse	0	n/a	n/a	6	50	Fixation	Neutral	True
480.569	0.2	Control	0.6667000000000001	0.004	Yes	2.777	-0.004	2.0	GoodResponse	0	0.195	479.764	6	50	Target	Neutral	True
480.764	0.3	Control	0.6667000000000001	0.004	Yes	2.777	-0.004	2.0	GoodResponse	0	0.195	n/a	6	50	ButtonPress	Neutral	True
480.769	0.5	Control	0.6667000000000001	n/a	Yes	2.777	n/a	n/a	GoodResponse	0	n/a	n/a	6	50	Blank	Neutral	True
481.271	1.45	Control	0.6667000000000001	n/a	Yes	2.777	n/a	5.0	GoodResponse	0	0.02	480.291	6	50	Feedback	Neutral	True
482.725	2.777	Control	0.6667000000000001	n/a	Yes	2.777	n/a	n/a	GoodResponse	0	0.0	n/a	6	50	ISIslide	Neutral	True
485.517	0.25	Control	0.6537999999999999	0.0	No	2.733	0.017	n/a	NoResponse	0	n/a	n/a	6	51	Cue	Neutral	True
485.768	3.95	Control	0.6537999999999999	0.0	No	2.733	0.001	n/a	NoResponse	0	n/a	n/a	6	51	Fixation	Neutral	True
489.713	0.19	Control	0.6537999999999999	0.004	No	2.733	-0.004	2.0	NoResponse	0	0.218	488.931	6	51	Target	Neutral	True
489.913	0.51	Control	0.6537999999999999	n/a	No	2.733	n/a	n/a	NoResponse	0	n/a	n/a	6	51	Blank	Neutral	True
489.931	0.3	Control	0.6537999999999999	0.004	No	2.733	-0.004	2.0	NoResponse	0	0.218	n/a	6	51	ButtonPress	Neutral	True
490.415	1.45	Control	0.6537999999999999	n/a	No	2.733	n/a	5.0	NoResponse	0	0.001	489.416	6	51	Feedback	Neutral	True
491.869	2.733	Control	0.6537999999999999	n/a	No	2.733	n/a	n/a	NoResponse	0	0.0	n/a	6	51	ISIslide	Neutral	True
494.627	0.25	Control	0.6604000000000001	0.001	Yes	2.623	0.027	n/a	GoodResponse	0	n/a	n/a	6	52	Cue	Neutral	True
494.878	4.05	Control	0.6604000000000001	0.0	Yes	2.623	0.001	n/a	GoodResponse	0	n/a	n/a	6	52	Fixation	Neutral	True
498.924	0.2	Control	0.6604000000000001	0.003	Yes	2.623	-0.003	2.0	GoodResponse	0	0.199	498.123	6	52	Target	Neutral	True
499.123	0.3	Control	0.6604000000000001	0.003	Yes	2.623	-0.003	2.0	GoodResponse	0	0.199	n/a	6	52	ButtonPress	Neutral	True
499.124	0.5	Control	0.6604000000000001	n/a	Yes	2.623	n/a	n/a	GoodResponse	0	n/a	n/a	6	52	Blank	Neutral	True
499.626	1.45	Control	0.6604000000000001	n/a	Yes	2.623	n/a	5.0	GoodResponse	0	0.006	498.632	6	52	Feedback	Neutral	True
501.08	2.623	Control	0.6604000000000001	n/a	Yes	2.623	n/a	n/a	GoodResponse	0	0.0	n/a	6	52	ISIslide	Neutral	True
503.721	0.25	Win2	0.6667000000000001	0.0	Yes	2.929	0.021	n/a	GoodResponse	1	n/a	n/a	7	53	Cue	Win	True
503.972	4.05	Win2	0.6667000000000001	0.0	Yes	2.929	0.001	n/a	GoodResponse	1	n/a	n/a	7	53	Fixation	Win	True
508.018	0.2	Win2	0.6667000000000001	0.003	Yes	2.929	-0.003	2.0	GoodResponse	1	0.159	507.177	7	53	Target	Win	True
508.177	0.3	Win2	0.6667000000000001	0.003	Yes	2.929	-0.003	2.0	GoodResponse	1	0.159	n/a	7	53	ButtonPress	Win	True
508.218	0.5	Win2	0.6667000000000001	n/a	Yes	2.929	n/a	n/a	GoodResponse	1	n/a	n/a	7	53	Blank	Win	True
508.72	1.45	Win2	0.6667000000000001	n/a	Yes	2.929	n/a	5.0	GoodResponse	1	0.033	507.753	7	53	Feedback	Win	True
510.174	2.929	Win2	0.6667000000000001	n/a	Yes	2.929	n/a	n/a	GoodResponse	1	0.0	n/a	7	53	ISIslide	Win	True
513.116	0.25	Win2	0.6545000000000001	0.0	No	2.734	0.016	n/a	LatePress	0	n/a	n/a	7	54	Cue	MissedWin	True
513.367	3.95	Win2	0.6545000000000001	0.0	No	2.734	0.001	n/a	LatePress	0	n/a	n/a	7	54	Fixation	MissedWin	True
517.312	0.19	Win2	0.6545000000000001	0.004	No	2.734	-0.004	2.0	LatePress	0	0.193	516.505	7	54	Target	MissedWin	True
517.505	0.3	Win2	0.6545000000000001	0.004	No	2.734	-0.004	2.0	LatePress	0	0.193	n/a	7	54	ButtonPress	MissedWin	True
517.513	0.51	Win2	0.6545000000000001	n/a	No	2.734	n/a	n/a	LatePress	0	n/a	n/a	7	54	Blank	MissedWin	True
518.014	1.45	Win2	0.6545000000000001	n/a	No	2.734	n/a	5.0	LatePress	0	0.008	517.022	7	54	Feedback	MissedWin	True
519.469	2.734	Win2	0.6545000000000001	n/a	No	2.734	n/a	n/a	LatePress	0	0.0	n/a	7	54	ISIslide	MissedWin	True
522.227	0.25	Control	0.6429	0.0	No	3.023	0.027	n/a	LatePress	0	n/a	n/a	7	55	Cue	Neutral	True
522.478	3.95	Control	0.6429	0.0	No	3.023	0.001	n/a	LatePress	0	n/a	n/a	7	55	Fixation	Neutral	True
526.423	0.2	Control	0.6429	0.004	No	3.023	-0.004	2.0	LatePress	0	0.203	525.626	7	55	Target	Neutral	True
526.623	0.5	Control	0.6429	n/a	No	3.023	n/a	n/a	LatePress	0	n/a	n/a	7	55	Blank	Neutral	True
526.626	0.3	Control	0.6429	0.004	No	3.023	-0.004	2.0	LatePress	0	0.203	n/a	7	55	ButtonPress	Neutral	True
527.125	1.45	Control	0.6429	n/a	No	3.023	n/a	5.0	LatePress	0	0.019	526.144	7	55	Feedback	Neutral	True
528.579	3.023	Control	0.6429	n/a	No	3.023	n/a	n/a	LatePress	0	0.0	n/a	7	55	ISIslide	Neutral	True
531.622	0.25	Control	0.6315999999999999	0.0	No	2.828	0.022	n/a	LatePress	0	n/a	n/a	7	56	Cue	Neutral	True
531.872	3.95	Control	0.6315999999999999	0.0	No	2.828	0.0	n/a	LatePress	0	n/a	n/a	7	56	Fixation	Neutral	True
535.818	0.21	Control	0.6315999999999999	0.004	No	2.828	-0.004	2.0	LatePress	0	0.211	535.029	7	56	Target	Neutral	True
536.029	0.3	Control	0.6315999999999999	0.004	No	2.828	-0.004	2.0	LatePress	0	0.211	n/a	7	56	ButtonPress	Neutral	True
536.035	0.49	Control	0.6315999999999999	n/a	No	2.828	n/a	n/a	LatePress	0	n/a	n/a	7	56	Blank	Neutral	True
536.52	1.45	Control	0.6315999999999999	n/a	No	2.828	n/a	5.0	LatePress	0	0.038	535.558	7	56	Feedback	Neutral	True
537.974	2.828	Control	0.6315999999999999	n/a	No	2.828	n/a	n/a	LatePress	0	0.0	n/a	7	56	ISIslide	Neutral	True
540.816	0.25	Control	0.6379	0.0	Yes	3.484	0.016	n/a	GoodResponse	0	n/a	n/a	7	57	Cue	Neutral	True
541.067	4.0	Control	0.6379	0.0	Yes	3.484	0.001	n/a	GoodResponse	0	n/a	n/a	7	57	Fixation	Neutral	True
545.062	0.22	Control	0.6379	0.004	Yes	3.484	-0.004	2.0	GoodResponse	0	0.195	544.257	7	57	Target	Neutral	True
545.257	0.3	Control	0.6379	0.004	Yes	3.484	-0.004	2.0	GoodResponse	0	0.195	n/a	7	57	ButtonPress	Neutral	True
545.296	0.48	Control	0.6379	n/a	Yes	3.484	n/a	n/a	GoodResponse	0	n/a	n/a	7	57	Blank	Neutral	True
545.764	1.45	Control	0.6379	n/a	Yes	3.484	n/a	5.0	GoodResponse	0	0.014	544.778	7	57	Feedback	Neutral	True
547.218	3.484	Control	0.6379	n/a	Yes	3.484	n/a	n/a	GoodResponse	0	0.0	n/a	7	57	ISIslide	Neutral	True
550.729	0.25	Win2	0.6441	0.0	Yes	2.721	0.029	n/a	GoodResponse	1	n/a	n/a	8	58	Cue	Win	True
550.98	4.05	Win2	0.6441	0.0	Yes	2.721	0.001	n/a	GoodResponse	1	n/a	n/a	8	58	Fixation	Win	True
555.025	0.23	Win2	0.6441	0.004	Yes	2.721	-0.004	2.0	GoodResponse	1	0.224	554.249	8	58	Target	Win	True
555.249	0.3	Win2	0.6441	0.004	Yes	2.721	-0.004	2.0	GoodResponse	1	0.224	n/a	8	58	ButtonPress	Win	True
555.259	0.47	Win2	0.6441	n/a	Yes	2.721	n/a	n/a	GoodResponse	1	n/a	n/a	8	58	Blank	Win	True
555.727	1.45	Win2	0.6441	n/a	Yes	2.721	n/a	5.0	GoodResponse	1	0.001	554.728	8	58	Feedback	Win	True
557.182	2.721	Win2	0.6441	n/a	Yes	2.721	n/a	n/a	GoodResponse	1	0.0	n/a	8	58	ISIslide	Win	True
559.923	0.25	Lose2	0.65	0.0	Yes	2.677	0.023	n/a	GoodResponse	0	n/a	n/a	8	59	Cue	AvoidedLoss	True
560.174	4.0	Lose2	0.65	0.0	Yes	2.677	0.001	n/a	GoodResponse	0	n/a	n/a	8	59	Fixation	AvoidedLoss	True
564.169	0.24	Lose2	0.65	0.004	Yes	2.677	-0.004	2.0	GoodResponse	0	0.219	563.388	8	59	Target	AvoidedLoss	True
564.388	0.3	Lose2	0.65	0.004	Yes	2.677	-0.004	2.0	GoodResponse	0	0.219	n/a	8	59	ButtonPress	AvoidedLoss	True
564.42	0.46	Lose2	0.65	n/a	Yes	2.677	n/a	n/a	GoodResponse	0	n/a	n/a	8	59	Blank	AvoidedLoss	True
564.871	1.45	Lose2	0.65	n/a	Yes	2.677	n/a	5.0	GoodResponse	0	0.028	563.899	8	59	Feedback	AvoidedLoss	True
566.326	2.677	Lose2	0.65	n/a	Yes	2.677	n/a	n/a	GoodResponse	0	0.0	n/a	8	59	ISIslide	AvoidedLoss	True
569.017	0.25	Control	0.6557	0.0	Yes	2.683	0.017	n/a	GoodResponse	0	n/a	n/a	8	60	Cue	Neutral	True
569.268	4.0	Control	0.6557	0.0	Yes	2.683	0.001	n/a	GoodResponse	0	n/a	n/a	8	60	Fixation	Neutral	True
573.263	0.25	Control	0.6557	0.004	Yes	2.683	-0.004	2.0	GoodResponse	0	0.16	572.423	8	60	Target	Neutral	True
573.423	0.3	Control	0.6557	0.004	Yes	2.683	-0.004	2.0	GoodResponse	0	0.16	n/a	8	60	ButtonPress	Neutral	True
573.514	0.45	Control	0.6557	n/a	Yes	2.683	n/a	n/a	GoodResponse	0	n/a	n/a	8	60	Blank	Neutral	True
573.965	1.45	Control	0.6557	n/a	Yes	2.683	n/a	5.0	GoodResponse	0	0.008	572.973	8	60	Feedback	Neutral	True
575.42	2.683	Control	0.6557	n/a	Yes	2.683	n/a	n/a	GoodResponse	0	0.0	n/a	8	60	ISIslide	Neutral	True
578.128	0.25	Lose2	0.6613	0.0	Yes	2.972	0.028	n/a	GoodResponse	0	n/a	n/a	8	61	Cue	AvoidedLoss	True
578.378	4.0	Lose2	0.6613	0.001	Yes	2.972	0.0	n/a	GoodResponse	0	n/a	n/a	8	61	Fixation	AvoidedLoss	True
582.374	0.25	Lose2	0.6613	0.004	Yes	2.972	-0.004	2.0	GoodResponse	0	0.188	581.562	8	61	Target	AvoidedLoss	True
582.562	0.3	Lose2	0.6613	0.004	Yes	2.972	-0.004	2.0	GoodResponse	0	0.188	n/a	8	61	ButtonPress	AvoidedLoss	True
582.624	0.45	Lose2	0.6613	n/a	Yes	2.972	n/a	n/a	GoodResponse	0	n/a	n/a	8	61	Blank	AvoidedLoss	True
583.076	1.45	Lose2	0.6613	n/a	Yes	2.972	n/a	5.0	GoodResponse	0	0.019	582.095	8	61	Feedback	AvoidedLoss	True
584.53	2.972	Lose2	0.6613	n/a	Yes	2.972	n/a	n/a	GoodResponse	0	0.0	n/a	8	61	ISIslide	AvoidedLoss	True
587.522	0.25	Lose2	0.6507999999999999	0.001	No	2.878	0.022	n/a	LatePress	-1	n/a	n/a	7	62	Cue	Loss	True
587.773	3.9	Lose2	0.6507999999999999	0.0	No	2.878	0.001	n/a	LatePress	-1	n/a	n/a	7	62	Fixation	Loss	True
591.668	0.25	Lose2	0.6507999999999999	0.004	No	2.878	-0.004	2.0	LatePress	-1	0.252	590.92	7	62	Target	Loss	True
591.919	0.45	Lose2	0.6507999999999999	n/a	No	2.878	n/a	n/a	LatePress	-1	n/a	n/a	7	62	Blank	Loss	True
591.92	0.3	Lose2	0.6507999999999999	0.004	No	2.878	-0.004	2.0	LatePress	-1	0.252	n/a	7	62	ButtonPress	Loss	True
592.37	1.45	Lose2	0.6507999999999999	n/a	No	2.878	n/a	5.0	LatePress	-1	0.042	591.412	7	62	Feedback	Loss	True
593.825	2.878	Lose2	0.6507999999999999	n/a	No	2.878	n/a	n/a	LatePress	-1	0.0	n/a	7	62	ISIslide	Loss	True
596.717	0.25	Lose2	0.6562	0.0	Yes	2.633	0.017	n/a	GoodResponse	0	n/a	n/a	7	63	Cue	AvoidedLoss	True
596.967	4.05	Lose2	0.6562	0.001	Yes	2.633	0.0	n/a	GoodResponse	0	n/a	n/a	7	63	Fixation	AvoidedLoss	True
601.013	0.26	Lose2	0.6562	0.004	Yes	2.633	-0.004	2.0	GoodResponse	0	0.196	600.209	7	63	Target	AvoidedLoss	True
601.209	0.3	Lose2	0.6562	0.004	Yes	2.633	-0.004	2.0	GoodResponse	0	0.196	n/a	7	63	ButtonPress	AvoidedLoss	True
601.28	0.44	Lose2	0.6562	n/a	Yes	2.633	n/a	n/a	GoodResponse	0	n/a	n/a	7	63	Blank	AvoidedLoss	True
601.715	1.45	Lose2	0.6562	n/a	Yes	2.633	n/a	5.0	GoodResponse	0	0.014	600.729	7	63	Feedback	AvoidedLoss	True
603.169	2.633	Lose2	0.6562	n/a	Yes	2.633	n/a	n/a	GoodResponse	0	0.0	n/a	7	63	ISIslide	AvoidedLoss	True
605.827	0.25	Win2	0.6615000000000001	0.0	Yes	3.123	0.027	n/a	GoodResponse	1	n/a	n/a	8	64	Cue	Win	True
606.078	4.15	Win2	0.6615000000000001	0.0	Yes	3.123	0.001	n/a	GoodResponse	1	n/a	n/a	8	64	Fixation	Win	True
610.224	0.26	Win2	0.6615000000000001	0.003	Yes	3.123	-0.003	2.0	GoodResponse	1	0.207	609.431	8	64	Target	Win	True
610.431	0.3	Win2	0.6615000000000001	0.003	Yes	3.123	-0.003	2.0	GoodResponse	1	0.207	n/a	8	64	ButtonPress	Win	True
610.491	0.44	Win2	0.6615000000000001	n/a	Yes	3.123	n/a	n/a	GoodResponse	1	n/a	n/a	8	64	Blank	Win	True
610.926	1.45	Win2	0.6615000000000001	n/a	Yes	3.123	n/a	5.0	GoodResponse	1	0.023	609.949	8	64	Feedback	Win	True
612.38	3.123	Win2	0.6615000000000001	n/a	Yes	3.123	n/a	n/a	GoodResponse	1	0.0	n/a	8	64	ISIslide	Win	True
615.523	0.25	Control	0.6667000000000001	0.0	Yes	2.777	0.023	n/a	GoodResponse	0	n/a	n/a	8	65	Cue	Neutral	False
615.774	4.0	Control	0.6667000000000001	0.0	Yes	2.777	0.001	2.0	GoodResponse	0	3.976	618.75	8	65	Fixation	Neutral	False
619.75	0.3	Control	0.6667000000000001	0.0	Yes	2.777	0.001	2.0	GoodResponse	0	3.976	n/a	8	65	ButtonPress	Neutral	False
619.769	0.26	Control	0.6667000000000001	0.004	Yes	2.777	-0.004	2.0	GoodResponse	0	0.184	618.953	8	65	Target	Neutral	False
619.953	0.3	Control	0.6667000000000001	0.004	Yes	2.777	-0.004	2.0	GoodResponse	0	0.184	n/a	8	65	ButtonPress	Neutral	False
620.037	0.44	Control	0.6667000000000001	n/a	Yes	2.777	n/a	n/a	GoodResponse	0	n/a	n/a	8	65	Blank	Neutral	False
620.471	1.45	Control	0.6667000000000001	n/a	Yes	2.777	n/a	5.0	GoodResponse	0	0.038	619.509	8	65	Feedback	Neutral	False
621.926	2.777	Control	0.6667000000000001	n/a	Yes	2.777	n/a	n/a	GoodResponse	0	0.0	n/a	8	65	ISIslide	Neutral	False
624.717	0.25	Win2	0.6716	0.0	Yes	2.783	0.017	n/a	GoodResponse	1	n/a	n/a	9	66	Cue	Win	True
624.968	3.9	Win2	0.6716	0.0	Yes	2.783	0.001	n/a	GoodResponse	1	n/a	n/a	9	66	Fixation	Win	True
628.863	0.25	Win2	0.6716	0.004	Yes	2.783	-0.004	2.0	GoodResponse	1	0.213	628.076	9	66	Target	Win	True
629.076	0.3	Win2	0.6716	0.004	Yes	2.783	-0.004	2.0	GoodResponse	1	0.213	n/a	9	66	ButtonPress	Win	True
629.114	0.45	Win2	0.6716	n/a	Yes	2.783	n/a	n/a	GoodResponse	1	n/a	n/a	9	66	Blank	Win	True
629.565	1.45	Win2	0.6716	n/a	Yes	2.783	n/a	5.0	GoodResponse	1	0.017	628.582	9	66	Feedback	Win	True
631.019	2.783	Win2	0.6716	n/a	Yes	2.783	n/a	n/a	GoodResponse	1	0.0	n/a	9	66	ISIslide	Win	True
633.828	0.25	Control	0.6765000000000001	0.0	Yes	2.722	0.028	n/a	GoodResponse	0	n/a	n/a	9	67	Cue	Neutral	True
634.079	3.95	Control	0.6765000000000001	0.0	Yes	2.722	0.001	n/a	GoodResponse	0	n/a	n/a	9	67	Fixation	Neutral	True
638.024	0.24	Control	0.6765000000000001	0.004	Yes	2.722	-0.004	2.0	GoodResponse	0	0.186	637.21	9	67	Target	Neutral	True
638.21	0.3	Control	0.6765000000000001	0.004	Yes	2.722	-0.004	2.0	GoodResponse	0	0.186	n/a	9	67	ButtonPress	Neutral	True
638.275	0.46	Control	0.6765000000000001	n/a	Yes	2.722	n/a	n/a	GoodResponse	0	n/a	n/a	9	67	Blank	Neutral	True
638.726	1.45	Control	0.6765000000000001	n/a	Yes	2.722	n/a	5.0	GoodResponse	0	0.027	637.753	9	67	Feedback	Neutral	True
640.18	2.722	Control	0.6765000000000001	n/a	Yes	2.722	n/a	n/a	GoodResponse	0	0.0	n/a	9	67	ISIslide	Neutral	True
642.922	0.25	Win2	0.6812	0.0	Yes	3.078	0.022	n/a	GoodResponse	1	n/a	n/a	10	68	Cue	Win	True
643.173	4.0	Win2	0.6812	0.0	Yes	3.078	0.001	n/a	GoodResponse	1	n/a	n/a	10	68	Fixation	Win	True
647.168	0.23	Win2	0.6812	0.004	Yes	3.078	-0.004	2.0	GoodResponse	1	0.195	646.363	10	68	Target	Win	True
647.363	0.3	Win2	0.6812	0.004	Yes	3.078	-0.004	2.0	GoodResponse	1	0.195	n/a	10	68	ButtonPress	Win	True
647.402	0.47	Win2	0.6812	n/a	Yes	3.078	n/a	n/a	GoodResponse	1	n/a	n/a	10	68	Blank	Win	True
647.87	1.45	Win2	0.6812	n/a	Yes	3.078	n/a	5.0	GoodResponse	1	0.006	646.876	10	68	Feedback	Win	True
649.324	3.078	Win2	0.6812	n/a	Yes	3.078	n/a	n/a	GoodResponse	1	0.0	n/a	10	68	ISIslide	Win	True
652.417	0.25	Win2	0.6857	0.0	Yes	3.233	0.017	n/a	GoodResponse	1	n/a	n/a	11	69	Cue	Win	True
652.668	3.95	Win2	0.6857	0.0	Yes	3.233	0.001	n/a	GoodResponse	1	n/a	n/a	11	69	Fixation	Win	True
656.613	0.22	Win2	0.6857	0.004	Yes	3.233	-0.004	2.0	GoodResponse	1	0.178	655.791	11	69	Target	Win	True
656.791	0.3	Win2	0.6857	0.004	Yes	3.233	-0.004	2.0	GoodResponse	1	0.178	n/a	11	69	ButtonPress	Win	True
656.847	0.48	Win2	0.6857	n/a	Yes	3.233	n/a	n/a	GoodResponse	1	n/a	n/a	11	69	Blank	Win	True
657.315	1.45	Win2	0.6857	n/a	Yes	3.233	n/a	5.0	GoodResponse	1	0.024	656.339	11	69	Feedback	Win	True
658.769	3.233	Win2	0.6857	n/a	Yes	3.233	n/a	n/a	GoodResponse	1	0.0	n/a	11	69	ISIslide	Win	True
662.029	0.25	Lose2	0.6901	0.0	Yes	3.021	0.029	n/a	GoodResponse	0	n/a	n/a	11	70	Cue	AvoidedLoss	True
662.28	4.05	Lose2	0.6901	0.0	Yes	3.021	0.001	n/a	GoodResponse	0	n/a	n/a	11	70	Fixation	AvoidedLoss	True
666.325	0.21	Lose2	0.6901	0.004	Yes	3.021	-0.004	2.0	GoodResponse	0	0.184	665.509	11	70	Target	AvoidedLoss	True
666.509	0.3	Lose2	0.6901	0.004	Yes	3.021	-0.004	2.0	GoodResponse	0	0.184	n/a	11	70	ButtonPress	AvoidedLoss	True
666.543	0.49	Lose2	0.6901	n/a	Yes	3.021	n/a	n/a	GoodResponse	0	n/a	n/a	11	70	Blank	AvoidedLoss	True
667.027	1.45	Lose2	0.6901	n/a	Yes	3.021	n/a	5.0	GoodResponse	0	0.019	666.046	11	70	Feedback	AvoidedLoss	True
668.482	3.021	Lose2	0.6901	n/a	Yes	3.021	n/a	n/a	GoodResponse	0	0.0	n/a	11	70	ISIslide	AvoidedLoss	True
671.524	0.25	Win2	0.6944	0.0	Yes	2.726	0.024	n/a	GoodResponse	1	n/a	n/a	12	71	Cue	Win	True
671.775	4.05	Win2	0.6944	0.0	Yes	2.726	0.001	n/a	GoodResponse	1	n/a	n/a	12	71	Fixation	Win	True
675.82	0.2	Win2	0.6944	0.004	Yes	2.726	-0.004	2.0	GoodResponse	1	0.187	675.007	12	71	Target	Win	True
676.007	0.3	Win2	0.6944	0.004	Yes	2.726	-0.004	2.0	GoodResponse	1	0.187	n/a	12	71	ButtonPress	Win	True
676.021	0.5	Win2	0.6944	n/a	Yes	2.726	n/a	n/a	GoodResponse	1	n/a	n/a	12	71	Blank	Win	True
676.523	1.45	Win2	0.6944	n/a	Yes	2.726	n/a	5.0	GoodResponse	1	0.034	675.557	12	71	Feedback	Win	True
677.977	2.726	Win2	0.6944	n/a	Yes	2.726	n/a	n/a	GoodResponse	1	0.0	n/a	12	71	ISIslide	Win	True
680.718	0.25	Win2	0.6986	0.0	Yes	2.782	0.018	n/a	GoodResponse	1	n/a	n/a	13	72	Cue	Win	True
680.969	4.1	Win2	0.6986	0.0	Yes	2.782	0.001	n/a	GoodResponse	1	n/a	n/a	13	72	Fixation	Win	True
685.065	0.19	Win2	0.6986	0.003	Yes	2.782	-0.003	2.0	GoodResponse	1	0.181	684.246	13	72	Target	Win	True
685.246	0.3	Win2	0.6986	0.003	Yes	2.782	-0.003	2.0	GoodResponse	1	0.181	n/a	13	72	ButtonPress	Win	True
685.265	0.51	Win2	0.6986	n/a	Yes	2.782	n/a	n/a	GoodResponse	1	n/a	n/a	13	72	Blank	Win	True
685.767	1.45	Win2	0.6986	n/a	Yes	2.782	n/a	5.0	GoodResponse	1	0.01	684.777	13	72	Feedback	Win	True
687.221	2.782	Win2	0.6986	n/a	Yes	2.782	n/a	n/a	GoodResponse	1	0.0	n/a	13	72	ISIslide	Win	True
690.03	0.25	Win2	0.6892	0.0	No	2.67	0.03	n/a	NoResponse	0	n/a	n/a	13	73	Cue	MissedWin	True
690.28	4.0	Win2	0.6892	0.0	No	2.67	0.0	n/a	NoResponse	0	n/a	n/a	13	73	Fixation	MissedWin	True
694.276	0.18	Win2	0.6892	0.004	No	2.67	-0.004	2.0	NoResponse	0	0.211	693.487	13	73	Target	MissedWin	True
694.46	0.52	Win2	0.6892	n/a	No	2.67	n/a	n/a	NoResponse	0	n/a	n/a	13	73	Blank	MissedWin	True
694.487	0.3	Win2	0.6892	0.004	No	2.67	-0.004	2.0	NoResponse	0	0.211	n/a	13	73	ButtonPress	MissedWin	True
694.978	1.45	Win2	0.6892	n/a	No	2.67	n/a	5.0	NoResponse	0	0.019	693.997	13	73	Feedback	MissedWin	True
696.432	2.67	Win2	0.6892	n/a	No	2.67	n/a	n/a	NoResponse	0	0.0	n/a	13	73	ISIslide	MissedWin	True
699.124	0.25	Lose2	0.68	0.0	No	2.626	0.024	n/a	LatePress	-1	n/a	n/a	12	74	Cue	Loss	True
699.374	4.05	Lose2	0.68	0.0	No	2.626	0.0	n/a	LatePress	-1	n/a	n/a	12	74	Fixation	Loss	True
703.42	0.17	Lose2	0.68	0.004	No	2.626	-0.004	2.0	LatePress	-1	0.172	702.592	12	74	Target	Loss	True
703.592	0.3	Lose2	0.68	0.004	No	2.626	-0.004	2.0	LatePress	-1	0.172	n/a	12	74	ButtonPress	Loss	True
703.604	0.53	Lose2	0.68	n/a	No	2.626	n/a	n/a	LatePress	-1	n/a	n/a	12	74	Blank	Loss	True
704.122	1.45	Lose2	0.68	n/a	No	2.626	n/a	5.0	LatePress	-1	0.0	703.122	12	74	Feedback	Loss	True
705.576	2.626	Lose2	0.68	n/a	No	2.626	n/a	n/a	LatePress	-1	0.0	n/a	12	74	ISIslide	Loss	True
708.217	0.25	Lose2	0.6842	0.001	Yes	2.933	0.017	n/a	GoodResponse	0	n/a	n/a	12	75	Cue	AvoidedLoss	True
708.468	3.95	Lose2	0.6842	0.0	Yes	2.933	0.001	n/a	GoodResponse	0	n/a	n/a	12	75	Fixation	AvoidedLoss	True
712.413	0.16	Lose2	0.6842	0.004	Yes	2.933	-0.004	2.0	GoodResponse	0	0.154	711.567	12	75	Target	AvoidedLoss	True
712.567	0.3	Lose2	0.6842	0.004	Yes	2.933	-0.004	2.0	GoodResponse	0	0.154	n/a	12	75	ButtonPress	AvoidedLoss	True
712.581	0.54	Lose2	0.6842	n/a	Yes	2.933	n/a	n/a	GoodResponse	0	n/a	n/a	12	75	Blank	AvoidedLoss	True
713.115	1.45	Lose2	0.6842	n/a	Yes	2.933	n/a	5.0	GoodResponse	0	0.028	712.143	12	75	Feedback	AvoidedLoss	True
714.57	2.933	Lose2	0.6842	n/a	Yes	2.933	n/a	n/a	GoodResponse	0	0.0	n/a	12	75	ISIslide	AvoidedLoss	True
717.529	0.25	Control	0.6753	0.0	No	3.221	0.029	n/a	NoResponse	0	n/a	n/a	12	76	Cue	Neutral	True
717.779	4.05	Control	0.6753	0.001	No	3.221	0.0	n/a	NoResponse	0	n/a	n/a	12	76	Fixation	Neutral	True
721.825	0.15	Control	0.6753	0.004	No	3.221	-0.004	2.0	NoResponse	0	0.236	721.061	12	76	Target	Neutral	True
721.975	0.55	Control	0.6753	n/a	No	3.221	n/a	n/a	NoResponse	0	n/a	n/a	12	76	Blank	Neutral	True
722.061	0.3	Control	0.6753	0.004	No	3.221	-0.004	2.0	NoResponse	0	0.236	n/a	12	76	ButtonPress	Neutral	True
722.527	1.45	Control	0.6753	n/a	No	3.221	n/a	5.0	NoResponse	0	0.031	721.558	12	76	Feedback	Neutral	True
723.981	3.221	Control	0.6753	n/a	No	3.221	n/a	n/a	NoResponse	0	0.0	n/a	12	76	ISIslide	Neutral	True
727.224	0.25	Lose2	0.6667000000000001	0.001	No	2.576	0.024	n/a	NoResponse	-1	n/a	n/a	11	77	Cue	Loss	False
727.475	3.95	Lose2	0.6667000000000001	0.0	No	2.576	0.001	2.0	NoResponse	-1	3.749	730.224	11	77	Fixation	Loss	False
731.224	0.3	Lose2	0.6667000000000001	0.0	No	2.576	0.001	2.0	NoResponse	-1	3.749	n/a	11	77	ButtonPress	Loss	False
731.42	0.15	Lose2	0.6667000000000001	0.004	No	2.576	-0.004	2.0	NoResponse	-1	0.176	730.596	11	77	Target	Loss	False
731.571	0.55	Lose2	0.6667000000000001	n/a	No	2.576	n/a	n/a	NoResponse	-1	n/a	n/a	11	77	Blank	Loss	False
731.596	0.3	Lose2	0.6667000000000001	0.004	No	2.576	-0.004	2.0	NoResponse	-1	0.176	n/a	11	77	ButtonPress	Loss	False
732.122	1.45	Lose2	0.6667000000000001	n/a	No	2.576	n/a	5.0	NoResponse	-1	0.001	731.123	11	77	Feedback	Loss	False
733.577	2.576	Lose2	0.6667000000000001	n/a	No	2.576	n/a	n/a	NoResponse	-1	0.0	n/a	11	77	ISIslide	Loss	False
