onset	duration	cue_type	current_mean_accuracy	duration_error	is_hit	isi_adjusted	onset_delay	response	response_type	reward	rt	rt_time	total_reward	trial_number	trial_phase	trial_type	one_press
11.107	0.25	Control	1.0	0.0	Yes	2.943	0.007	n/a	GoodResponse	0	n/a	n/a	0	0	Cue	Neutral	True
11.357	3.85	Control	1.0	0.0	Yes	2.943	0.0	n/a	GoodResponse	0	n/a	n/a	0	0	Fixation	Neutral	True
15.219	0.4	Control	1.0	0.0	Yes	2.943	0.012	2.0	GoodResponse	0	0.197	14.416	0	0	Target	Neutral	True
15.416	0.3	Control	1.0	0.0	Yes	2.943	0.012	2.0	GoodResponse	0	0.197	n/a	0	0	ButtonPress	Neutral	True
15.603	0.3	Control	1.0	n/a	Yes	2.943	n/a	n/a	GoodResponse	0	n/a	n/a	0	0	Blank	Neutral	True
15.904	1.45	Control	1.0	n/a	Yes	2.943	n/a	5.0	GoodResponse	0	0.021	14.925	0	0	Feedback	Neutral	True
17.359	2.943	Control	1.0	n/a	Yes	2.943	n/a	n/a	GoodResponse	0	0.0	n/a	0	0	ISIslide	Neutral	True
20.318	0.25	Lose2	1.0	0.0	Yes	2.782	0.018	n/a	GoodResponse	0	n/a	n/a	0	1	Cue	AvoidedLoss	True
20.568	4.0	Lose2	1.0	0.0	Yes	2.782	0.0	n/a	GoodResponse	0	n/a	n/a	0	1	Fixation	AvoidedLoss	True
24.564	0.39	Lose2	1.0	0.004	Yes	2.782	-0.004	2.0	GoodResponse	0	0.187	23.751	0	1	Target	AvoidedLoss	True
24.751	0.3	Lose2	1.0	0.004	Yes	2.782	-0.004	2.0	GoodResponse	0	0.187	n/a	0	1	ButtonPress	AvoidedLoss	True
24.965	0.31	Lose2	1.0	n/a	Yes	2.782	n/a	n/a	GoodResponse	0	n/a	n/a	0	1	Blank	AvoidedLoss	True
25.266	1.45	Lose2	1.0	n/a	Yes	2.782	n/a	5.0	GoodResponse	0	0.025	24.291	0	1	Feedback	AvoidedLoss	True
26.72	2.782	Lose2	1.0	n/a	Yes	2.782	n/a	n/a	GoodResponse	0	0.0	n/a	0	1	ISIslide	AvoidedLoss	True
29.529	0.25	Control	1.0	0.0	Yes	2.571	0.029	n/a	GoodResponse	0	n/a	n/a	0	2	Cue	Neutral	True
29.779	4.1	Control	1.0	0.0	Yes	2.571	0.0	n/a	GoodResponse	0	n/a	n/a	0	2	Fixation	Neutral	True
33.875	0.38	Control	1.0	0.004	Yes	2.571	-0.004	2.0	GoodResponse	0	0.17	33.045	0	2	Target	Neutral	True
34.045	0.3	Control	1.0	0.004	Yes	2.571	-0.004	2.0	GoodResponse	0	0.17	n/a	0	2	ButtonPress	Neutral	True
34.259	0.32	Control	1.0	n/a	Yes	2.571	n/a	n/a	GoodResponse	0	n/a	n/a	0	2	Blank	Neutral	True
34.577	1.45	Control	1.0	n/a	Yes	2.571	n/a	5.0	GoodResponse	0	0.032	33.609	0	2	Feedback	Neutral	True
36.031	2.571	Control	1.0	n/a	Yes	2.571	n/a	n/a	GoodResponse	0	0.0	n/a	0	2	ISIslide	Neutral	True
38.622	0.25	Win2	1.0	0.001	Yes	2.828	0.022	n/a	GoodResponse	1	n/a	n/a	1	3	Cue	Win	False
38.873	3.95	Win2	1.0	0.0	Yes	2.828	0.001	2.0	GoodResponse	1	3.559	41.432	1	3	Fixation	Win	False
42.432	0.3	Win2	1.0	0.0	Yes	2.828	0.001	2.0	GoodResponse	1	3.559	n/a	1	3	ButtonPress	Win	False
42.818	0.37	Win2	1.0	0.004	Yes	2.828	-0.004	2.0	GoodResponse	1	0.17	41.988	1	3	Target	Win	False
42.988	0.3	Win2	1.0	0.004	Yes	2.828	-0.004	2.0	GoodResponse	1	0.17	n/a	1	3	ButtonPress	Win	False
43.203	0.33	Win2	1.0	n/a	Yes	2.828	n/a	n/a	GoodResponse	1	n/a	n/a	1	3	Blank	Win	False
43.52	1.45	Win2	1.0	n/a	Yes	2.828	n/a	5.0	GoodResponse	1	0.015	42.535	1	3	Feedback	Win	False
44.975	2.828	Win2	1.0	n/a	Yes	2.828	n/a	n/a	GoodResponse	1	0.0	n/a	1	3	ISIslide	Win	False
47.817	0.25	Win2	1.0	0.0	Yes	3.283	0.017	n/a	GoodResponse	1	n/a	n/a	2	4	Cue	Win	True
48.067	4.0	Win2	1.0	0.0	Yes	3.283	0.0	n/a	GoodResponse	1	n/a	n/a	2	4	Fixation	Win	True
52.063	0.36	Win2	1.0	0.004	Yes	3.283	-0.004	2.0	GoodResponse	1	0.24	51.303	2	4	Target	Win	True
52.303	0.3	Win2	1.0	0.004	Yes	3.283	-0.004	2.0	GoodResponse	1	0.24	n/a	2	4	ButtonPress	Win	True
52.43	0.34	Win2	1.0	n/a	Yes	3.283	n/a	n/a	GoodResponse	1	n/a	n/a	2	4	Blank	Win	True
52.765	1.45	Win2	1.0	n/a	Yes	3.283	n/a	5.0	GoodResponse	1	0.039	51.804	2	4	Feedback	Win	True
54.219	3.283	Win2	1.0	n/a	Yes	3.283	n/a	n/a	GoodResponse	1	0.0	n/a	2	4	ISIslide	Win	True
57.529	0.25	Win2	1.0	0.0	Yes	2.771	0.029	n/a	GoodResponse	1	n/a	n/a	3	5	Cue	Win	True
57.78	4.0	Win2	1.0	0.0	Yes	2.771	0.001	n/a	GoodResponse	1	n/a	n/a	3	5	Fixation	Win	True
61.775	0.35	Win2	1.0	0.004	Yes	2.771	-0.004	2.0	GoodResponse	1	0.179	60.954	3	5	Target	Win	True
61.954	0.3	Win2	1.0	0.004	Yes	2.771	-0.004	2.0	GoodResponse	1	0.179	n/a	3	5	ButtonPress	Win	True
62.126	0.35	Win2	1.0	n/a	Yes	2.771	n/a	n/a	GoodResponse	1	n/a	n/a	3	5	Blank	Win	True
62.477	1.45	Win2	1.0	n/a	Yes	2.771	n/a	5.0	GoodResponse	1	0.033	61.51	3	5	Feedback	Win	True
63.932	2.771	Win2	1.0	n/a	Yes	2.771	n/a	n/a	GoodResponse	1	0.0	n/a	3	5	ISIslide	Win	True
66.723	0.25	Lose2	1.0	0.0	Yes	2.727	0.023	n/a	GoodResponse	0	n/a	n/a	3	6	Cue	AvoidedLoss	True
66.974	3.95	Lose2	1.0	0.0	Yes	2.727	0.001	n/a	GoodResponse	0	n/a	n/a	3	6	Fixation	AvoidedLoss	True
70.919	0.34	Lose2	1.0	0.004	Yes	2.727	-0.004	2.0	GoodResponse	0	0.183	70.102	3	6	Target	AvoidedLoss	True
71.102	0.3	Lose2	1.0	0.004	Yes	2.727	-0.004	2.0	GoodResponse	0	0.183	n/a	3	6	ButtonPress	AvoidedLoss	True
71.27	0.36	Lose2	1.0	n/a	Yes	2.727	n/a	n/a	GoodResponse	0	n/a	n/a	3	6	Blank	AvoidedLoss	True
71.621	1.45	Lose2	1.0	n/a	Yes	2.727	n/a	5.0	GoodResponse	0	0.011	70.632	3	6	Feedback	AvoidedLoss	True
73.076	2.727	Lose2	1.0	n/a	Yes	2.727	n/a	n/a	GoodResponse	0	0.0	n/a	3	6	ISIslide	AvoidedLoss	True
75.817	0.25	Lose2	1.0	0.0	Yes	4.033	0.017	n/a	GoodResponse	0	n/a	n/a	3	7	Cue	AvoidedLoss	True
76.068	4.05	Lose2	1.0	0.0	Yes	4.033	0.001	n/a	GoodResponse	0	n/a	n/a	3	7	Fixation	AvoidedLoss	True
80.113	0.33	Lose2	1.0	0.004	Yes	4.033	-0.004	2.0	GoodResponse	0	0.183	79.296	3	7	Target	AvoidedLoss	True
80.296	0.3	Lose2	1.0	0.004	Yes	4.033	-0.004	2.0	GoodResponse	0	0.183	n/a	3	7	ButtonPress	AvoidedLoss	True
80.448	0.37	Lose2	1.0	n/a	Yes	4.033	n/a	n/a	GoodResponse	0	n/a	n/a	3	7	Blank	AvoidedLoss	True
80.816	1.45	Lose2	1.0	n/a	Yes	4.033	n/a	5.0	GoodResponse	0	0.036	79.852	3	7	Feedback	AvoidedLoss	True
82.27	4.033	Lose2	1.0	n/a	Yes	4.033	n/a	n/a	GoodResponse	0	0.0	n/a	3	7	ISIslide	AvoidedLoss	True
86.315	0.25	Lose2	1.0	0.0	Yes	3.035	0.015	n/a	GoodResponse	0	n/a	n/a	3	8	Cue	AvoidedLoss	True
86.566	3.95	Lose2	1.0	0.0	Yes	3.035	0.001	n/a	GoodResponse	0	n/a	n/a	3	8	Fixation	AvoidedLoss	True
90.511	0.32	Lose2	1.0	0.004	Yes	3.035	-0.004	2.0	GoodResponse	0	0.193	89.704	3	8	Target	AvoidedLoss	True
90.704	0.3	Lose2	1.0	0.004	Yes	3.035	-0.004	2.0	GoodResponse	0	0.193	n/a	3	8	ButtonPress	AvoidedLoss	True
90.846	0.38	Lose2	1.0	n/a	Yes	3.035	n/a	n/a	GoodResponse	0	n/a	n/a	3	8	Blank	AvoidedLoss	True
91.213	1.45	Lose2	1.0	n/a	Yes	3.035	n/a	5.0	GoodResponse	0	0.029	90.242	3	8	Feedback	AvoidedLoss	True
92.668	3.035	Lose2	1.0	n/a	Yes	3.035	n/a	n/a	GoodResponse	0	0.0	n/a	3	8	ISIslide	AvoidedLoss	True
95.727	0.25	Lose2	1.0	0.0	Yes	3.123	0.027	n/a	GoodResponse	0	n/a	n/a	3	9	Cue	AvoidedLoss	True
95.978	3.95	Lose2	1.0	0.0	Yes	3.123	0.001	n/a	GoodResponse	0	n/a	n/a	3	9	Fixation	AvoidedLoss	True
99.923	0.31	Lose2	1.0	0.004	Yes	3.123	-0.004	2.0	GoodResponse	0	0.195	99.118	3	9	Target	AvoidedLoss	True
100.118	0.3	Lose2	1.0	0.004	Yes	3.123	-0.004	2.0	GoodResponse	0	0.195	n/a	3	9	ButtonPress	AvoidedLoss	True
100.24	0.39	Lose2	1.0	n/a	Yes	3.123	n/a	n/a	GoodResponse	0	n/a	n/a	3	9	Blank	AvoidedLoss	True
100.625	1.45	Lose2	1.0	n/a	Yes	3.123	n/a	5.0	GoodResponse	0	0.032	99.657	3	9	Feedback	AvoidedLoss	True
102.079	3.123	Lose2	1.0	n/a	Yes	3.123	n/a	n/a	GoodResponse	0	0.0	n/a	3	9	ISIslide	AvoidedLoss	True
105.222	0.25	Control	1.0	0.0	Yes	3.278	0.022	n/a	GoodResponse	0	n/a	n/a	3	10	Cue	Neutral	True
105.473	4.0	Control	1.0	0.0	Yes	3.278	0.001	n/a	GoodResponse	0	n/a	n/a	3	10	Fixation	Neutral	True
109.468	0.3	Control	1.0	0.004	Yes	3.278	-0.004	2.0	GoodResponse	0	0.178	108.646	3	10	Target	Neutral	True
109.646	0.3	Control	1.0	0.004	Yes	3.278	-0.004	2.0	GoodResponse	0	0.178	n/a	3	10	ButtonPress	Neutral	True
109.769	0.4	Control	1.0	n/a	Yes	3.278	n/a	n/a	GoodResponse	0	n/a	n/a	3	10	Blank	Neutral	True
110.17	1.45	Control	1.0	n/a	Yes	3.278	n/a	5.0	GoodResponse	0	0.048	109.218	3	10	Feedback	Neutral	True
111.625	3.278	Control	1.0	n/a	Yes	3.278	n/a	n/a	GoodResponse	0	0.0	n/a	3	10	ISIslide	Neutral	True
114.918	0.25	Lose2	1.0	0.0	Yes	2.732	0.018	n/a	GoodResponse	0	n/a	n/a	3	11	Cue	AvoidedLoss	True
115.168	4.05	Lose2	1.0	0.001	Yes	2.732	0.0	n/a	GoodResponse	0	n/a	n/a	3	11	Fixation	AvoidedLoss	True
119.214	0.29	Lose2	1.0	0.004	Yes	2.732	-0.004	2.0	GoodResponse	0	0.257	118.471	3	11	Target	AvoidedLoss	True
119.471	0.3	Lose2	1.0	0.004	Yes	2.732	-0.004	2.0	GoodResponse	0	0.257	n/a	3	11	ButtonPress	AvoidedLoss	True
119.515	0.41	Lose2	1.0	n/a	Yes	2.732	n/a	n/a	GoodResponse	0	n/a	n/a	3	11	Blank	AvoidedLoss	True
119.916	1.45	Lose2	1.0	n/a	Yes	2.732	n/a	5.0	GoodResponse	0	0.009	118.925	3	11	Feedback	AvoidedLoss	True
121.37	2.732	Lose2	1.0	n/a	Yes	2.732	n/a	n/a	GoodResponse	0	0.0	n/a	3	11	ISIslide	AvoidedLoss	True
124.129	0.25	Control	1.0	0.0	Yes	2.971	0.029	n/a	GoodResponse	0	n/a	n/a	3	12	Cue	Neutral	True
124.379	3.9	Control	1.0	0.0	Yes	2.971	0.0	n/a	GoodResponse	0	n/a	n/a	3	12	Fixation	Neutral	True
128.291	0.28	Control	1.0	0.0	Yes	2.971	0.012	2.0	GoodResponse	0	0.222	127.513	3	12	Target	Neutral	True
128.513	0.3	Control	1.0	0.0	Yes	2.971	0.012	2.0	GoodResponse	0	0.222	n/a	3	12	ButtonPress	Neutral	True
128.559	0.42	Control	1.0	n/a	Yes	2.971	n/a	n/a	GoodResponse	0	n/a	n/a	3	12	Blank	Neutral	True
128.976	1.45	Control	1.0	n/a	Yes	2.971	n/a	5.0	GoodResponse	0	0.022	127.998	3	12	Feedback	Neutral	True
130.431	2.971	Control	1.0	n/a	Yes	2.971	n/a	n/a	GoodResponse	0	0.0	n/a	3	12	ISIslide	Neutral	True
133.423	0.25	Control	0.9286	0.0	No	2.777	0.023	n/a	NoResponse	0	n/a	n/a	3	13	Cue	Neutral	True
133.674	4.0	Control	0.9286	0.0	No	2.777	0.001	n/a	NoResponse	0	n/a	n/a	3	13	Fixation	Neutral	True
137.669	0.27	Control	0.9286	0.004	No	2.777	-0.004	2.0	NoResponse	0	0.306	136.975	3	13	Target	Neutral	True
137.953	0.43	Control	0.9286	n/a	No	2.777	n/a	n/a	NoResponse	0	n/a	n/a	3	13	Blank	Neutral	True
137.975	0.3	Control	0.9286	0.004	No	2.777	-0.004	2.0	NoResponse	0	0.306	n/a	3	13	ButtonPress	Neutral	True
138.371	1.45	Control	0.9286	n/a	No	2.777	n/a	5.0	NoResponse	0	0.042	137.413	3	13	Feedback	Neutral	True
139.826	2.777	Control	0.9286	n/a	No	2.777	n/a	n/a	NoResponse	0	0.0	n/a	3	13	ISIslide	Neutral	True
142.617	0.25	Win2	0.9333	0.0	Yes	2.683	0.017	n/a	GoodResponse	1	n/a	n/a	4	14	Cue	Win	True
142.868	4.1	Win2	0.9333	0.0	Yes	2.683	0.001	n/a	GoodResponse	1	n/a	n/a	4	14	Fixation	Win	True
146.964	0.26	Win2	0.9333	0.003	Yes	2.683	-0.003	2.0	GoodResponse	1	0.181	146.145	4	14	Target	Win	True
147.145	0.3	Win2	0.9333	0.003	Yes	2.683	-0.003	2.0	GoodResponse	1	0.181	n/a	4	14	ButtonPress	Win	True
147.231	0.44	Win2	0.9333	n/a	Yes	2.683	n/a	n/a	GoodResponse	1	n/a	n/a	4	14	Blank	Win	True
147.666	1.45	Win2	0.9333	n/a	Yes	2.683	n/a	5.0	GoodResponse	1	0.015	146.681	4	14	Feedback	Win	True
149.12	2.683	Win2	0.9333	n/a	Yes	2.683	n/a	n/a	GoodResponse	1	0.0	n/a	4	14	ISIslide	Win	True
151.828	0.25	Control	0.9375	0.0	Yes	2.972	0.028	n/a	GoodResponse	0	n/a	n/a	4	15	Cue	Neutral	True
152.079	4.0	Control	0.9375	0.0	Yes	2.972	0.001	n/a	GoodResponse	0	n/a	n/a	4	15	Fixation	Neutral	True
156.074	0.25	Control	0.9375	0.004	Yes	2.972	-0.004	2.0	GoodResponse	0	0.195	155.269	4	15	Target	Neutral	True
156.269	0.3	Control	0.9375	0.004	Yes	2.972	-0.004	2.0	GoodResponse	0	0.195	n/a	4	15	ButtonPress	Neutral	True
156.325	0.45	Control	0.9375	n/a	Yes	2.972	n/a	n/a	GoodResponse	0	n/a	n/a	4	15	Blank	Neutral	True
156.776	1.45	Control	0.9375	n/a	Yes	2.972	n/a	5.0	GoodResponse	0	0.027	155.803	4	15	Feedback	Neutral	True
158.231	2.972	Control	0.9375	n/a	Yes	2.972	n/a	n/a	GoodResponse	0	0.0	n/a	4	15	ISIslide	Neutral	True
161.223	0.25	Win2	0.9412	0.0	Yes	2.877	0.023	n/a	GoodResponse	1	n/a	n/a	5	16	Cue	Win	True
161.474	4.0	Win2	0.9412	0.0	Yes	2.877	0.001	n/a	GoodResponse	1	n/a	n/a	5	16	Fixation	Win	True
165.469	0.24	Win2	0.9412	0.004	Yes	2.877	-0.004	2.0	GoodResponse	1	0.175	164.644	5	16	Target	Win	True
165.644	0.3	Win2	0.9412	0.004	Yes	2.877	-0.004	2.0	GoodResponse	1	0.175	n/a	5	16	ButtonPress	Win	True
165.72	0.46	Win2	0.9412	n/a	Yes	2.877	n/a	n/a	GoodResponse	1	n/a	n/a	5	16	Blank	Win	True
166.171	1.45	Win2	0.9412	n/a	Yes	2.877	n/a	5.0	GoodResponse	1	0.047	165.218	5	16	Feedback	Win	True
167.626	2.877	Win2	0.9412	n/a	Yes	2.877	n/a	n/a	GoodResponse	1	0.0	n/a	5	16	ISIslide	Win	True
170.518	0.25	Lose2	0.9444	0.0	Yes	2.732	0.018	n/a	GoodResponse	0	n/a	n/a	5	17	Cue	AvoidedLoss	True
170.768	3.95	Lose2	0.9444	0.0	Yes	2.732	0.0	n/a	GoodResponse	0	n/a	n/a	5	17	Fixation	AvoidedLoss	True
174.714	0.23	Lose2	0.9444	0.004	Yes	2.732	-0.004	2.0	GoodResponse	0	0.163	173.877	5	17	Target	AvoidedLoss	True
174.877	0.3	Lose2	0.9444	0.004	Yes	2.732	-0.004	2.0	GoodResponse	0	0.163	n/a	5	17	ButtonPress	AvoidedLoss	True
174.948	0.47	Lose2	0.9444	n/a	Yes	2.732	n/a	n/a	GoodResponse	0	n/a	n/a	5	17	Blank	AvoidedLoss	True
175.416	1.45	Lose2	0.9444	n/a	Yes	2.732	n/a	5.0	GoodResponse	0	0.021	174.437	5	17	Feedback	AvoidedLoss	True
176.87	2.732	Lose2	0.9444	n/a	Yes	2.732	n/a	n/a	GoodResponse	0	0.0	n/a	5	17	ISIslide	AvoidedLoss	True
179.628	0.25	Lose2	0.9473999999999999	0.0	Yes	2.722	0.028	n/a	GoodResponse	0	n/a	n/a	5	18	Cue	AvoidedLoss	True
179.879	4.05	Lose2	0.9473999999999999	0.0	Yes	2.722	0.001	n/a	GoodResponse	0	n/a	n/a	5	18	Fixation	AvoidedLoss	True
183.924	0.22	Lose2	0.9473999999999999	0.004	Yes	2.722	-0.004	2.0	GoodResponse	0	0.197	183.121	5	18	Target	AvoidedLoss	True
184.121	0.3	Lose2	0.9473999999999999	0.004	Yes	2.722	-0.004	2.0	GoodResponse	0	0.197	n/a	5	18	ButtonPress	AvoidedLoss	True
184.159	0.48	Lose2	0.9473999999999999	n/a	Yes	2.722	n/a	n/a	GoodResponse	0	n/a	n/a	5	18	Blank	AvoidedLoss	True
184.627	1.45	Lose2	0.9473999999999999	n/a	Yes	2.722	n/a	5.0	GoodResponse	0	0.029	183.656	5	18	Feedback	AvoidedLoss	True
186.081	2.722	Lose2	0.9473999999999999	n/a	Yes	2.722	n/a	n/a	GoodResponse	0	0.0	n/a	5	18	ISIslide	AvoidedLoss	True
188.822	0.25	Control	0.95	0.001	Yes	2.928	0.022	n/a	GoodResponse	0	n/a	n/a	5	19	Cue	Neutral	True
189.073	3.95	Control	0.95	0.0	Yes	2.928	0.001	n/a	GoodResponse	0	n/a	n/a	5	19	Fixation	Neutral	True
193.018	0.21	Control	0.95	0.004	Yes	2.928	-0.004	2.0	GoodResponse	0	0.172	192.19	5	19	Target	Neutral	True
193.19	0.3	Control	0.95	0.004	Yes	2.928	-0.004	2.0	GoodResponse	0	0.172	n/a	5	19	ButtonPress	Neutral	True
193.236	0.49	Control	0.95	n/a	Yes	2.928	n/a	n/a	GoodResponse	0	n/a	n/a	5	19	Blank	Neutral	True
193.72	1.45	Control	0.95	n/a	Yes	2.928	n/a	5.0	GoodResponse	0	0.009	192.729	5	19	Feedback	Neutral	True
195.175	2.928	Control	0.95	n/a	Yes	2.928	n/a	n/a	GoodResponse	0	0.0	n/a	5	19	ISIslide	Neutral	True
198.117	0.25	Control	0.9048	0.0	No	2.633	0.017	n/a	NoResponse	0	n/a	n/a	5	20	Cue	Neutral	True
198.368	4.05	Control	0.9048	0.0	No	2.633	0.001	n/a	NoResponse	0	n/a	n/a	5	20	Fixation	Neutral	True
202.413	0.2	Control	0.9048	0.004	No	2.633	-0.004	2.0	NoResponse	0	0.228	201.641	5	20	Target	Neutral	True
202.614	0.5	Control	0.9048	n/a	No	2.633	n/a	n/a	NoResponse	0	n/a	n/a	5	20	Blank	Neutral	True
202.641	0.3	Control	0.9048	0.004	No	2.633	-0.004	2.0	NoResponse	0	0.228	n/a	5	20	ButtonPress	Neutral	True
203.115	1.45	Control	0.9048	n/a	No	2.633	n/a	5.0	NoResponse	0	0.029	202.144	5	20	Feedback	Neutral	True
204.57	2.633	Control	0.9048	n/a	No	2.633	n/a	n/a	NoResponse	0	0.0	n/a	5	20	ISIslide	Neutral	True
207.228	0.25	Control	0.8636	0.0	No	2.772	0.028	n/a	NoResponse	0	n/a	n/a	5	21	Cue	Neutral	False
207.478	4.1	Control	0.8636	0.0	No	2.772	0.0	2.0	NoResponse	0	4.044	210.522	5	21	Fixation	Neutral	False
211.522	0.3	Control	0.8636	0.0	No	2.772	0.0	2.0	NoResponse	0	4.044	n/a	5	21	ButtonPress	Neutral	False
211.574	0.19	Control	0.8636	0.004	No	2.772	-0.004	2.0	NoResponse	0	0.24	210.814	5	21	Target	Neutral	False
211.775	0.51	Control	0.8636	n/a	No	2.772	n/a	n/a	NoResponse	0	n/a	n/a	5	21	Blank	Neutral	False
211.814	0.3	Control	0.8636	0.004	No	2.772	-0.004	2.0	NoResponse	0	0.24	n/a	5	21	ButtonPress	Neutral	False
212.276	1.45	Control	0.8636	n/a	No	2.772	n/a	5.0	NoResponse	0	0.039	211.315	5	21	Feedback	Neutral	False
213.73	2.772	Control	0.8636	n/a	No	2.772	n/a	n/a	NoResponse	0	0.0	n/a	5	21	ISIslide	Neutral	False
216.522	0.25	Control	0.8261	0.0	No	2.778	0.022	n/a	NoResponse	0	n/a	n/a	5	22	Cue	Neutral	True
216.773	4.0	Control	0.8261	0.0	No	2.778	0.001	n/a	NoResponse	0	n/a	n/a	5	22	Fixation	Neutral	True
220.768	0.18	Control	0.8261	0.004	No	2.778	-0.004	2.0	NoResponse	0	0.205	219.973	5	22	Target	Neutral	True
220.952	0.52	Control	0.8261	n/a	No	2.778	n/a	n/a	NoResponse	0	n/a	n/a	5	22	Blank	Neutral	True
220.973	0.3	Control	0.8261	0.004	No	2.778	-0.004	2.0	NoResponse	0	0.205	n/a	5	22	ButtonPress	Neutral	True
221.47	1.45	Control	0.8261	n/a	No	2.778	n/a	5.0	NoResponse	0	0.016	220.486	5	22	Feedback	Neutral	True
222.925	2.778	Control	0.8261	n/a	No	2.778	n/a	n/a	NoResponse	0	0.0	n/a	5	22	ISIslide	Neutral	True
225.716	0.25	Control	0.7917000000000001	0.0	No	2.784	0.016	n/a	NoResponse	0	n/a	n/a	5	23	Cue	Neutral	True
225.967	3.9	Control	0.7917000000000001	0.0	No	2.784	0.001	n/a	NoResponse	0	n/a	n/a	5	23	Fixation	Neutral	True
229.862	0.17	Control	0.7917000000000001	0.004	No	2.784	-0.004	2.0	NoResponse	0	0.192	229.054	5	23	Target	Neutral	True
230.046	0.53	Control	0.7917000000000001	n/a	No	2.784	n/a	n/a	NoResponse	0	n/a	n/a	5	23	Blank	Neutral	True
230.054	0.3	Control	0.7917000000000001	0.004	No	2.784	-0.004	2.0	NoResponse	0	0.192	n/a	5	23	ButtonPress	Neutral	True
230.564	1.45	Control	0.7917000000000001	n/a	No	2.784	n/a	5.0	NoResponse	0	0.044	229.608	5	23	Feedback	Neutral	True
232.019	2.784	Control	0.7917000000000001	n/a	No	2.784	n/a	n/a	NoResponse	0	0.0	n/a	5	23	ISIslide	Neutral	True
234.827	0.25	Win2	0.76	0.0	No	3.123	0.027	n/a	NoResponse	0	n/a	n/a	5	24	Cue	MissedWin	True
235.078	3.95	Win2	0.76	0.0	No	3.123	0.001	n/a	NoResponse	0	n/a	n/a	5	24	Fixation	MissedWin	True
239.023	0.16	Win2	0.76	0.004	No	3.123	-0.004	2.0	NoResponse	0	0.232	238.255	5	24	Target	MissedWin	True
239.19	0.54	Win2	0.76	n/a	No	3.123	n/a	n/a	NoResponse	0	n/a	n/a	5	24	Blank	MissedWin	True
239.255	0.3	Win2	0.76	0.004	No	3.123	-0.004	2.0	NoResponse	0	0.232	n/a	5	24	ButtonPress	MissedWin	True
239.725	1.45	Win2	0.76	n/a	No	3.123	n/a	5.0	NoResponse	0	0.006	238.731	5	24	Feedback	MissedWin	True
241.179	3.123	Win2	0.76	n/a	No	3.123	n/a	n/a	NoResponse	0	0.0	n/a	5	24	ISIslide	MissedWin	True
244.322	0.25	Win2	0.7308	0.0	No	3.078	0.022	n/a	NoResponse	0	n/a	n/a	5	25	Cue	MissedWin	True
244.573	4.0	Win2	0.7308	0.0	No	3.078	0.001	n/a	NoResponse	0	n/a	n/a	5	25	Fixation	MissedWin	True
248.568	0.15	Win2	0.7308	0.004	No	3.078	-0.004	2.0	NoResponse	0	0.178	247.746	5	25	Target	MissedWin	True
248.719	0.55	Win2	0.7308	n/a	No	3.078	n/a	n/a	NoResponse	0	n/a	n/a	5	25	Blank	MissedWin	True
248.746	0.3	Win2	0.7308	0.004	No	3.078	-0.004	2.0	NoResponse	0	0.178	n/a	5	25	ButtonPress	MissedWin	True
249.27	1.45	Win2	0.7308	n/a	No	3.078	n/a	5.0	NoResponse	0	0.02	248.29	5	25	Feedback	MissedWin	True
250.725	3.078	Win2	0.7308	n/a	No	3.078	n/a	n/a	NoResponse	0	0.0	n/a	5	25	ISIslide	MissedWin	True
253.817	0.25	Win2	0.7037	0.0	No	2.933	0.017	n/a	NoResponse	0	n/a	n/a	5	26	Cue	MissedWin	True
254.068	3.95	Win2	0.7037	0.0	No	2.933	0.001	n/a	NoResponse	0	n/a	n/a	5	26	Fixation	MissedWin	True
258.013	0.15	Win2	0.7037	0.004	No	2.933	-0.004	2.0	NoResponse	0	0.169	257.182	5	26	Target	MissedWin	True
258.164	0.55	Win2	0.7037	n/a	No	2.933	n/a	n/a	NoResponse	0	n/a	n/a	5	26	Blank	MissedWin	True
258.182	0.3	Win2	0.7037	0.004	No	2.933	-0.004	2.0	NoResponse	0	0.169	n/a	5	26	ButtonPress	MissedWin	True
258.715	1.45	Win2	0.7037	n/a	No	2.933	n/a	5.0	NoResponse	0	0.038	257.753	5	26	Feedback	MissedWin	True
260.17	2.933	Win2	0.7037	n/a	No	2.933	n/a	n/a	NoResponse	0	0.0	n/a	5	26	ISIslide	MissedWin	True
263.128	0.25	Lose2	0.6786	0.001	No	2.822	0.028	n/a	NoResponse	-1	n/a	n/a	4	27	Cue	Loss	True
263.379	4.05	Lose2	0.6786	0.0	No	2.822	0.001	n/a	NoResponse	-1	n/a	n/a	4	27	Fixation	Loss	True
267.425	0.15	Lose2	0.6786	0.003	No	2.822	-0.003	2.0	NoResponse	-1	0.165	266.59	4	27	Target	Loss	True
267.575	0.55	Lose2	0.6786	n/a	No	2.822	n/a	n/a	NoResponse	-1	n/a	n/a	4	27	Blank	Loss	True
267.59	0.3	Lose2	0.6786	0.003	No	2.822	-0.003	2.0	NoResponse	-1	0.165	n/a	4	27	ButtonPress	Loss	True
268.127	1.45	Lose2	0.6786	n/a	No	2.822	n/a	5.0	NoResponse	-1	0.041	267.168	4	27	Feedback	Loss	True
269.581	2.822	Lose2	0.6786	n/a	No	2.822	n/a	n/a	NoResponse	-1	0.0	n/a	4	27	ISIslide	Loss	True
272.423	0.25	Control	0.6552	0.0	No	2.827	0.023	n/a	NoResponse	0	n/a	n/a	4	28	Cue	Neutral	True
272.674	4.05	Control	0.6552	0.0	No	2.827	0.001	n/a	NoResponse	0	n/a	n/a	4	28	Fixation	Neutral	True
276.719	0.15	Control	0.6552	0.004	No	2.827	-0.004	2.0	NoResponse	0	0.186	275.905	4	28	Target	Neutral	True
276.87	0.55	Control	0.6552	n/a	No	2.827	n/a	n/a	NoResponse	0	n/a	n/a	4	28	Blank	Neutral	True
276.905	0.3	Control	0.6552	0.004	No	2.827	-0.004	2.0	NoResponse	0	0.186	n/a	4	28	ButtonPress	Neutral	True
277.421	1.45	Control	0.6552	n/a	No	2.827	n/a	5.0	NoResponse	0	0.015	276.436	4	28	Feedback	Neutral	True
278.876	2.827	Control	0.6552	n/a	No	2.827	n/a	n/a	NoResponse	0	0.0	n/a	4	28	ISIslide	Neutral	True
281.718	0.25	Lose2	0.6333	0.0	No	2.832	0.018	n/a	NoResponse	-1	n/a	n/a	3	29	Cue	Loss	True
281.968	3.95	Lose2	0.6333	0.0	No	2.832	0.0	n/a	NoResponse	-1	n/a	n/a	3	29	Fixation	Loss	True
285.93	0.15	Lose2	0.6333	0.0	No	2.832	0.012	2.0	NoResponse	-1	0.17	285.1	3	29	Target	Loss	True
286.064	0.55	Lose2	0.6333	n/a	No	2.832	n/a	n/a	NoResponse	-1	n/a	n/a	3	29	Blank	Loss	True
286.1	0.3	Lose2	0.6333	0.0	No	2.832	0.012	2.0	NoResponse	-1	0.17	n/a	3	29	ButtonPress	Loss	True
286.616	1.45	Lose2	0.6333	n/a	No	2.832	n/a	5.0	NoResponse	-1	0.04	285.656	3	29	Feedback	Loss	True
288.07	2.832	Lose2	0.6333	n/a	No	2.832	n/a	n/a	NoResponse	-1	0.0	n/a	3	29	ISIslide	Loss	True
290.928	0.25	Win2	0.6129	0.001	No	2.772	0.028	n/a	NoResponse	0	n/a	n/a	3	30	Cue	MissedWin	True
291.179	3.9	Win2	0.6129	0.0	No	2.772	0.001	n/a	NoResponse	0	n/a	n/a	3	30	Fixation	MissedWin	True
295.074	0.16	Win2	0.6129	0.004	No	2.772	-0.004	2.0	NoResponse	0	0.202	294.276	3	30	Target	MissedWin	True
295.241	0.54	Win2	0.6129	n/a	No	2.772	n/a	n/a	NoResponse	0	n/a	n/a	3	30	Blank	MissedWin	True
295.276	0.3	Win2	0.6129	0.004	No	2.772	-0.004	2.0	NoResponse	0	0.202	n/a	3	30	ButtonPress	MissedWin	True
295.776	1.45	Win2	0.6129	n/a	No	2.772	n/a	5.0	NoResponse	0	0.002	294.778	3	30	Feedback	MissedWin	True
297.231	2.772	Win2	0.6129	n/a	No	2.772	n/a	n/a	NoResponse	0	0.0	n/a	3	30	ISIslide	MissedWin	True
300.022	0.25	Lose2	0.5938	0.0	No	2.828	0.022	n/a	NoResponse	-1	n/a	n/a	2	31	Cue	Loss	True
300.273	4.05	Lose2	0.5938	0.0	No	2.828	0.001	n/a	NoResponse	-1	n/a	n/a	2	31	Fixation	Loss	True
304.319	0.17	Lose2	0.5938	0.003	No	2.828	-0.003	2.0	NoResponse	-1	0.197	303.516	2	31	Target	Loss	True
304.502	0.53	Lose2	0.5938	n/a	No	2.828	n/a	n/a	NoResponse	-1	n/a	n/a	2	31	Blank	Loss	True
304.516	0.3	Lose2	0.5938	0.003	No	2.828	-0.003	2.0	NoResponse	-1	0.197	n/a	2	31	ButtonPress	Loss	True
305.021	1.45	Lose2	0.5938	n/a	No	2.828	n/a	5.0	NoResponse	-1	0.024	304.045	2	31	Feedback	Loss	True
306.475	2.828	Lose2	0.5938	n/a	No	2.828	n/a	n/a	NoResponse	-1	0.0	n/a	2	31	ISIslide	Loss	True
309.317	0.25	Lose2	0.6061	0.0	Yes	2.633	0.017	n/a	GoodResponse	0	n/a	n/a	2	32	Cue	AvoidedLoss	True
309.568	4.15	Lose2	0.6061	0.0	Yes	2.633	0.001	n/a	GoodResponse	0	n/a	n/a	2	32	Fixation	AvoidedLoss	True
313.713	0.18	Lose2	0.6061	0.004	Yes	2.633	-0.004	2.0	GoodResponse	0	0.178	312.891	2	32	Target	AvoidedLoss	True
313.891	0.3	Lose2	0.6061	0.004	Yes	2.633	-0.004	2.0	GoodResponse	0	0.178	n/a	2	32	ButtonPress	AvoidedLoss	True
313.897	0.52	Lose2	0.6061	n/a	Yes	2.633	n/a	n/a	GoodResponse	0	n/a	n/a	2	32	Blank	AvoidedLoss	True
314.415	1.45	Lose2	0.6061	n/a	Yes	2.633	n/a	5.0	GoodResponse	0	0.045	313.46	2	32	Feedback	AvoidedLoss	True
315.87	2.633	Lose2	0.6061	n/a	Yes	2.633	n/a	n/a	GoodResponse	0	0.0	n/a	2	32	ISIslide	AvoidedLoss	True
318.528	0.25	Win2	0.6175999999999999	0.0	Yes	2.672	0.028	n/a	GoodResponse	1	n/a	n/a	3	33	Cue	Win	True
318.779	4.0	Win2	0.6175999999999999	0.0	Yes	2.672	0.001	n/a	GoodResponse	1	n/a	n/a	3	33	Fixation	Win	True
322.774	0.19	Win2	0.6175999999999999	0.004	Yes	2.672	-0.004	2.0	GoodResponse	1	0.169	321.943	3	33	Target	Win	True
322.943	0.3	Win2	0.6175999999999999	0.004	Yes	2.672	-0.004	2.0	GoodResponse	1	0.169	n/a	3	33	ButtonPress	Win	True
322.974	0.51	Win2	0.6175999999999999	n/a	Yes	2.672	n/a	n/a	GoodResponse	1	n/a	n/a	3	33	Blank	Win	True
323.476	1.45	Win2	0.6175999999999999	n/a	Yes	2.672	n/a	5.0	GoodResponse	1	0.009	322.485	3	33	Feedback	Win	True
324.93	2.672	Win2	0.6175999999999999	n/a	Yes	2.672	n/a	n/a	GoodResponse	1	0.0	n/a	3	33	ISIslide	Win	True
327.622	0.25	Lose2	0.6286	0.0	Yes	2.628	0.022	n/a	GoodResponse	0	n/a	n/a	3	34	Cue	AvoidedLoss	True
327.872	4.05	Lose2	0.6286	0.001	Yes	2.628	0.0	n/a	GoodResponse	0	n/a	n/a	3	34	Fixation	AvoidedLoss	True
331.918	0.2	Lose2	0.6286	0.004	Yes	2.628	-0.004	2.0	GoodResponse	0	0.159	331.077	3	34	Target	AvoidedLoss	True
332.077	0.3	Lose2	0.6286	0.004	Yes	2.628	-0.004	2.0	GoodResponse	0	0.159	n/a	3	34	ButtonPress	AvoidedLoss	True
332.119	0.5	Lose2	0.6286	n/a	Yes	2.628	n/a	n/a	GoodResponse	0	n/a	n/a	3	34	Blank	AvoidedLoss	True
332.62	1.45	Lose2	0.6286	n/a	Yes	2.628	n/a	5.0	GoodResponse	0	0.036	331.656	3	34	Feedback	AvoidedLoss	True
334.074	2.628	Lose2	0.6286	n/a	Yes	2.628	n/a	n/a	GoodResponse	0	0.0	n/a	3	34	ISIslide	AvoidedLoss	True
336.716	0.25	Lose2	0.6389	0.0	Yes	2.684	0.016	n/a	GoodResponse	0	n/a	n/a	3	35	Cue	AvoidedLoss	True
336.966	4.0	Lose2	0.6389	0.0	Yes	2.684	0.0	n/a	GoodResponse	0	n/a	n/a	3	35	Fixation	AvoidedLoss	True
340.962	0.21	Lose2	0.6389	0.004	Yes	2.684	-0.004	2.0	GoodResponse	0	0.157	340.119	3	35	Target	AvoidedLoss	True
341.119	0.3	Lose2	0.6389	0.004	Yes	2.684	-0.004	2.0	GoodResponse	0	0.157	n/a	3	35	ButtonPress	AvoidedLoss	True
341.179	0.49	Lose2	0.6389	n/a	Yes	2.684	n/a	n/a	GoodResponse	0	n/a	n/a	3	35	Blank	AvoidedLoss	True
341.664	1.45	Lose2	0.6389	n/a	Yes	2.684	n/a	5.0	GoodResponse	0	0.016	340.68	3	35	Feedback	AvoidedLoss	True
343.118	2.684	Lose2	0.6389	n/a	Yes	2.684	n/a	n/a	GoodResponse	0	0.0	n/a	3	35	ISIslide	AvoidedLoss	True
345.826	0.25	Control	0.6486	0.0	Yes	2.674	0.026	n/a	GoodResponse	0	n/a	n/a	3	36	Cue	Neutral	True
346.077	4.0	Control	0.6486	0.0	Yes	2.674	0.001	n/a	GoodResponse	0	n/a	n/a	3	36	Fixation	Neutral	True
350.072	0.22	Control	0.6486	0.004	Yes	2.674	-0.004	2.0	GoodResponse	0	0.184	349.256	3	36	Target	Neutral	True
350.256	0.3	Control	0.6486	0.004	Yes	2.674	-0.004	2.0	GoodResponse	0	0.184	n/a	3	36	ButtonPress	Neutral	True
350.306	0.48	Control	0.6486	n/a	Yes	2.674	n/a	n/a	GoodResponse	0	n/a	n/a	3	36	Blank	Neutral	True
350.774	1.45	Control	0.6486	n/a	Yes	2.674	n/a	5.0	GoodResponse	0	0.028	349.802	3	36	Feedback	Neutral	True
352.229	2.674	Control	0.6486	n/a	Yes	2.674	n/a	n/a	GoodResponse	0	0.0	n/a	3	36	ISIslide	Neutral	True
354.92	0.25	Win2	0.6579	0.0	Yes	2.88	0.02	n/a	GoodResponse	1	n/a	n/a	4	37	Cue	Win	True
355.171	4.0	Win2	0.6579	0.0	Yes	2.88	0.001	n/a	GoodResponse	1	n/a	n/a	4	37	Fixation	Win	True
359.166	0.23	Win2	0.6579	0.004	Yes	2.88	-0.004	2.0	GoodResponse	1	0.168	358.334	4	37	Target	Win	True
359.334	0.3	Win2	0.6579	0.004	Yes	2.88	-0.004	2.0	GoodResponse	1	0.168	n/a	4	37	ButtonPress	Win	True
359.4	0.47	Win2	0.6579	n/a	Yes	2.88	n/a	n/a	GoodResponse	1	n/a	n/a	4	37	Blank	Win	True
359.868	1.45	Win2	0.6579	n/a	Yes	2.88	n/a	5.0	GoodResponse	1	0.008	358.876	4	37	Feedback	Win	True
361.323	2.88	Win2	0.6579	n/a	Yes	2.88	n/a	n/a	GoodResponse	1	0.0	n/a	4	37	ISIslide	Win	True
364.215	0.25	Lose2	0.6667000000000001	0.0	Yes	2.835	0.015	n/a	GoodResponse	0	n/a	n/a	4	38	Cue	AvoidedLoss	True
364.465	3.95	Lose2	0.6667000000000001	0.001	Yes	2.835	0.0	n/a	GoodResponse	0	n/a	n/a	4	38	Fixation	AvoidedLoss	True
368.411	0.23	Lose2	0.6667000000000001	0.004	Yes	2.835	-0.004	2.0	GoodResponse	0	0.165	367.576	4	38	Target	AvoidedLoss	True
368.576	0.3	Lose2	0.6667000000000001	0.004	Yes	2.835	-0.004	2.0	GoodResponse	0	0.165	n/a	4	38	ButtonPress	AvoidedLoss	True
368.645	0.47	Lose2	0.6667000000000001	n/a	Yes	2.835	n/a	n/a	GoodResponse	0	n/a	n/a	4	38	Blank	AvoidedLoss	True
369.113	1.45	Lose2	0.6667000000000001	n/a	Yes	2.835	n/a	5.0	GoodResponse	0	0.03	368.143	4	38	Feedback	AvoidedLoss	True
370.567	2.835	Lose2	0.6667000000000001	n/a	Yes	2.835	n/a	2.0	GoodResponse	0	2.467	n/a	4	38	ISIslide	AvoidedLoss	True
373.409	0.25	Win2	0.675	0.0	Yes	2.991	0.009	n/a	GoodResponse	1	n/a	n/a	5	39	Cue	Win	True
373.66	4.1	Win2	0.675	0.0	Yes	2.991	0.001	n/a	GoodResponse	1	n/a	n/a	5	39	Fixation	Win	True
377.755	0.22	Win2	0.675	0.004	Yes	2.991	-0.004	2.0	GoodResponse	1	0.168	376.923	5	39	Target	Win	True
377.923	0.3	Win2	0.675	0.004	Yes	2.991	-0.004	2.0	GoodResponse	1	0.168	n/a	5	39	ButtonPress	Win	True
377.989	0.48	Win2	0.675	n/a	Yes	2.991	n/a	n/a	GoodResponse	1	n/a	n/a	5	39	Blank	Win	True
378.457	1.45	Win2	0.675	n/a	Yes	2.991	n/a	5.0	GoodResponse	1	0.008	377.465	5	39	Feedback	Win	True
379.912	2.991	Win2	0.675	n/a	Yes	2.991	n/a	n/a	GoodResponse	1	0.0	n/a	5	39	ISIslide	Win	True
382.921	0.25	Win2	0.6585	0.0	No	2.729	0.021	n/a	NoResponse	0	n/a	n/a	5	40	Cue	MissedWin	False
383.171	3.95	Win2	0.6585	0.001	No	2.729	0.0	2.0	NoResponse	0	2.635	384.806	5	40	Fixation	MissedWin	False
385.806	0.3	Win2	0.6585	0.001	No	2.729	0.0	2.0	NoResponse	0	2.635	n/a	5	40	ButtonPress	MissedWin	False
387.117	0.21	Win2	0.6585	0.004	No	2.729	-0.004	2.0	NoResponse	0	0.226	386.343	5	40	Target	MissedWin	False
387.334	0.49	Win2	0.6585	n/a	No	2.729	n/a	n/a	NoResponse	0	n/a	n/a	5	40	Blank	MissedWin	False
387.343	0.3	Win2	0.6585	0.004	No	2.729	-0.004	2.0	NoResponse	0	0.226	n/a	5	40	ButtonPress	MissedWin	False
387.819	1.45	Win2	0.6585	n/a	No	2.729	n/a	5.0	NoResponse	0	0.008	386.827	5	40	Feedback	MissedWin	False
389.273	2.729	Win2	0.6585	n/a	No	2.729	n/a	n/a	NoResponse	0	0.0	n/a	5	40	ISIslide	MissedWin	False
392.031	0.25	Win2	0.6429	0.0	No	2.769	0.031	n/a	NoResponse	0	n/a	n/a	5	41	Cue	MissedWin	True
392.282	3.9	Win2	0.6429	0.0	No	2.769	0.001	n/a	NoResponse	0	n/a	n/a	5	41	Fixation	MissedWin	True
396.177	0.21	Win2	0.6429	0.004	No	2.769	-0.004	2.0	NoResponse	0	0.249	395.426	5	41	Target	MissedWin	True
396.394	0.49	Win2	0.6429	n/a	No	2.769	n/a	n/a	NoResponse	0	n/a	n/a	5	41	Blank	MissedWin	True
396.426	0.3	Win2	0.6429	0.004	No	2.769	-0.004	2.0	NoResponse	0	0.249	n/a	5	41	ButtonPress	MissedWin	True
396.879	1.45	Win2	0.6429	n/a	No	2.769	n/a	5.0	NoResponse	0	0.02	395.899	5	41	Feedback	MissedWin	True
398.334	2.769	Win2	0.6429	n/a	No	2.769	n/a	n/a	NoResponse	0	0.0	n/a	5	41	ISIslide	MissedWin	True
401.125	0.25	Control	0.6512	0.0	Yes	2.925	0.025	n/a	GoodResponse	0	n/a	n/a	5	42	Cue	Neutral	True
401.376	3.85	Control	0.6512	0.0	Yes	2.925	0.001	n/a	GoodResponse	0	n/a	n/a	5	42	Fixation	Neutral	True
405.221	0.22	Control	0.6512	0.004	Yes	2.925	-0.004	2.0	GoodResponse	0	0.168	404.389	5	42	Target	Neutral	True
405.389	0.3	Control	0.6512	0.004	Yes	2.925	-0.004	2.0	GoodResponse	0	0.168	n/a	5	42	ButtonPress	Neutral	True
405.455	0.48	Control	0.6512	n/a	Yes	2.925	n/a	n/a	GoodResponse	0	n/a	n/a	5	42	Blank	Neutral	True
405.923	1.45	Control	0.6512	n/a	Yes	2.925	n/a	5.0	GoodResponse	0	0.001	404.924	5	42	Feedback	Neutral	True
407.377	2.925	Control	0.6512	n/a	Yes	2.925	n/a	n/a	GoodResponse	0	0.0	n/a	5	42	ISIslide	Neutral	True
410.32	0.25	Win2	0.6591	0.0	Yes	3.18	0.02	n/a	GoodResponse	1	n/a	n/a	6	43	Cue	Win	True
410.57	4.0	Win2	0.6591	0.0	Yes	3.18	0.0	n/a	GoodResponse	1	n/a	n/a	6	43	Fixation	Win	True
414.566	0.23	Win2	0.6591	0.004	Yes	3.18	-0.004	2.0	GoodResponse	1	0.194	413.76	6	43	Target	Win	True
414.76	0.3	Win2	0.6591	0.004	Yes	3.18	-0.004	2.0	GoodResponse	1	0.194	n/a	6	43	ButtonPress	Win	True
414.8	0.47	Win2	0.6591	n/a	Yes	3.18	n/a	n/a	GoodResponse	1	n/a	n/a	6	43	Blank	Win	True
415.268	1.45	Win2	0.6591	n/a	Yes	3.18	n/a	5.0	GoodResponse	1	0.022	414.29	6	43	Feedback	Win	True
416.722	3.18	Win2	0.6591	n/a	Yes	3.18	n/a	n/a	GoodResponse	1	0.0	n/a	6	43	ISIslide	Win	True
419.932	0.25	Win2	0.6444	0.0	No	2.968	0.032	n/a	PrematurePress	0	n/a	n/a	6	44	Cue	MissedWin	False
420.182	4.0	Win2	0.6444	0.0	No	2.968	0.0	2.0	PrematurePress	0	3.505	422.687	6	44	Fixation	MissedWin	False
423.687	0.3	Win2	0.6444	0.0	No	2.968	0.0	2.0	PrematurePress	0	3.505	n/a	6	44	ButtonPress	MissedWin	False
424.178	0.23	Win2	0.6444	0.004	No	2.968	-0.004	2.0	PrematurePress	0	0.047	423.225	6	44	Target	MissedWin	False
424.225	0.3	Win2	0.6444	0.004	No	2.968	-0.004	2.0	PrematurePress	0	0.047	n/a	6	44	ButtonPress	MissedWin	False
424.412	0.47	Win2	0.6444	n/a	No	2.968	n/a	n/a	PrematurePress	0	n/a	n/a	6	44	Blank	MissedWin	False
424.88	1.45	Win2	0.6444	n/a	No	2.968	n/a	5.0	PrematurePress	0	0.018	423.898	6	44	Feedback	MissedWin	False
426.334	2.968	Win2	0.6444	n/a	No	2.968	n/a	n/a	PrematurePress	0	0.0	n/a	6	44	ISIslide	MissedWin	False
429.326	0.25	Control	0.6522	0.001	Yes	2.874	0.026	n/a	GoodResponse	0	n/a	n/a	6	45	Cue	Neutral	False
429.577	4.1	Control	0.6522	0.0	Yes	2.874	0.001	2.0	GoodResponse	0	0.03	428.607	6	45	Fixation	Neutral	False
429.607	0.3	Control	0.6522	0.0	Yes	2.874	0.001	2.0	GoodResponse	0	0.03	n/a	6	45	ButtonPress	Neutral	False
433.673	0.24	Control	0.6522	0.003	Yes	2.874	-0.003	2.0	GoodResponse	0	0.216	432.889	6	45	Target	Neutral	False
433.889	0.3	Control	0.6522	0.003	Yes	2.874	-0.003	2.0	GoodResponse	0	0.216	n/a	6	45	ButtonPress	Neutral	False
433.924	0.46	Control	0.6522	n/a	Yes	2.874	n/a	n/a	GoodResponse	0	n/a	n/a	6	45	Blank	Neutral	False
434.375	1.45	Control	0.6522	n/a	Yes	2.874	n/a	5.0	GoodResponse	0	0.036	433.411	6	45	Feedback	Neutral	False
435.829	2.874	Control	0.6522	n/a	Yes	2.874	n/a	n/a	GoodResponse	0	0.0	n/a	6	45	ISIslide	Neutral	False
438.721	0.25	Lose2	0.6596	0.0	Yes	3.379	0.021	n/a	GoodResponse	0	n/a	n/a	6	46	Cue	AvoidedLoss	True
438.972	4.0	Lose2	0.6596	0.0	Yes	3.379	0.001	n/a	GoodResponse	0	n/a	n/a	6	46	Fixation	AvoidedLoss	True
442.967	0.25	Lose2	0.6596	0.004	Yes	3.379	-0.004	2.0	GoodResponse	0	0.224	442.191	6	46	Target	AvoidedLoss	True
443.191	0.3	Lose2	0.6596	0.004	Yes	3.379	-0.004	2.0	GoodResponse	0	0.224	n/a	6	46	ButtonPress	AvoidedLoss	True
443.218	0.45	Lose2	0.6596	n/a	Yes	3.379	n/a	n/a	GoodResponse	0	n/a	n/a	6	46	Blank	AvoidedLoss	True
443.669	1.45	Lose2	0.6596	n/a	Yes	3.379	n/a	5.0	GoodResponse	0	0.01	442.679	6	46	Feedback	AvoidedLoss	True
445.124	3.379	Lose2	0.6596	n/a	Yes	3.379	n/a	n/a	GoodResponse	0	0.0	n/a	6	46	ISIslide	AvoidedLoss	True
448.517	0.25	Lose2	0.6667000000000001	0.0	Yes	2.683	0.017	n/a	GoodResponse	0	n/a	n/a	6	47	Cue	AvoidedLoss	True
448.768	4.0	Lose2	0.6667000000000001	0.0	Yes	2.683	0.001	n/a	GoodResponse	0	n/a	n/a	6	47	Fixation	AvoidedLoss	True
452.763	0.25	Lose2	0.6667000000000001	0.004	Yes	2.683	-0.004	2.0	GoodResponse	0	0.237	452.0	6	47	Target	AvoidedLoss	True
453	0.3	Lose2	0.6667000000000001	0.004	Yes	2.683	-0.004	2.0	GoodResponse	0	0.237	n/a	6	47	ButtonPress	AvoidedLoss	True
453.014	0.45	Lose2	0.6667000000000001	n/a	Yes	2.683	n/a	n/a	GoodResponse	0	n/a	n/a	6	47	Blank	AvoidedLoss	True
453.465	1.45	Lose2	0.6667000000000001	n/a	Yes	2.683	n/a	5.0	GoodResponse	0	0.019	452.484	6	47	Feedback	AvoidedLoss	True
454.92	2.683	Lose2	0.6667000000000001	n/a	Yes	2.683	n/a	n/a	GoodResponse	0	0.0	n/a	6	47	ISIslide	AvoidedLoss	True
457.628	0.25	Lose2	0.6735	0.0	Yes	3.022	0.028	n/a	GoodResponse	0	n/a	n/a	6	48	Cue	AvoidedLoss	False
457.879	3.95	Lose2	0.6735	0.0	Yes	3.022	0.001	2.0	GoodResponse	0	3.841	460.72	6	48	Fixation	AvoidedLoss	False
461.72	0.3	Lose2	0.6735	0.0	Yes	3.022	0.001	2.0	GoodResponse	0	3.841	n/a	6	48	ButtonPress	AvoidedLoss	False
461.824	0.24	Lose2	0.6735	0.004	Yes	3.022	-0.004	2.0	GoodResponse	0	0.202	461.026	6	48	Target	AvoidedLoss	False
462.026	0.3	Lose2	0.6735	0.004	Yes	3.022	-0.004	2.0	GoodResponse	0	0.202	n/a	6	48	ButtonPress	AvoidedLoss	False
462.075	0.46	Lose2	0.6735	n/a	Yes	3.022	n/a	n/a	GoodResponse	0	n/a	n/a	6	48	Blank	AvoidedLoss	False
462.526	1.45	Lose2	0.6735	n/a	Yes	3.022	n/a	5.0	GoodResponse	0	0.031	461.557	6	48	Feedback	AvoidedLoss	False
463.98	3.022	Lose2	0.6735	n/a	Yes	3.022	n/a	n/a	GoodResponse	0	0.0	n/a	6	48	ISIslide	AvoidedLoss	False
467.023	0.25	Control	0.68	0.0	Yes	2.877	0.023	n/a	GoodResponse	0	n/a	n/a	6	49	Cue	Neutral	True
467.274	4.0	Control	0.68	0.0	Yes	2.877	0.001	n/a	GoodResponse	0	n/a	n/a	6	49	Fixation	Neutral	True
471.269	0.23	Control	0.68	0.004	Yes	2.877	-0.004	2.0	GoodResponse	0	0.199	470.468	6	49	Target	Neutral	True
471.468	0.3	Control	0.68	0.004	Yes	2.877	-0.004	2.0	GoodResponse	0	0.199	n/a	6	49	ButtonPress	Neutral	True
471.503	0.47	Control	0.68	n/a	Yes	2.877	n/a	n/a	GoodResponse	0	n/a	n/a	6	49	Blank	Neutral	True
471.971	1.45	Control	0.68	n/a	Yes	2.877	n/a	5.0	GoodResponse	0	0.001	470.972	6	49	Feedback	Neutral	True
473.425	2.877	Control	0.68	n/a	Yes	2.877	n/a	n/a	GoodResponse	0	0.0	n/a	6	49	ISIslide	Neutral	True
476.317	0.25	Control	0.6862999999999999	0.0	Yes	2.783	0.017	n/a	GoodResponse	0	n/a	n/a	6	50	Cue	Neutral	True
476.568	4.0	Control	0.6862999999999999	0.0	Yes	2.783	0.001	n/a	GoodResponse	0	n/a	n/a	6	50	Fixation	Neutral	True
480.563	0.22	Control	0.6862999999999999	0.004	Yes	2.783	-0.004	2.0	GoodResponse	0	0.194	479.757	6	50	Target	Neutral	True
480.757	0.3	Control	0.6862999999999999	0.004	Yes	2.783	-0.004	2.0	GoodResponse	0	0.194	n/a	6	50	ButtonPress	Neutral	True
480.797	0.48	Control	0.6862999999999999	n/a	Yes	2.783	n/a	n/a	GoodResponse	0	n/a	n/a	6	50	Blank	Neutral	True
481.265	1.45	Control	0.6862999999999999	n/a	Yes	2.783	n/a	5.0	GoodResponse	0	0.023	480.288	6	50	Feedback	Neutral	True
482.72	2.783	Control	0.6862999999999999	n/a	Yes	2.783	n/a	n/a	GoodResponse	0	0.0	n/a	6	50	ISIslide	Neutral	True
485.528	0.25	Control	0.6731	0.0	No	2.722	0.028	n/a	NoResponse	0	n/a	n/a	6	51	Cue	Neutral	True
485.779	3.95	Control	0.6731	0.0	No	2.722	0.001	n/a	NoResponse	0	n/a	n/a	6	51	Fixation	Neutral	True
489.724	0.21	Control	0.6731	0.004	No	2.722	-0.004	2.0	NoResponse	0	0.264	488.988	6	51	Target	Neutral	True
489.941	0.49	Control	0.6731	n/a	No	2.722	n/a	n/a	NoResponse	0	n/a	n/a	6	51	Blank	Neutral	True
489.988	0.3	Control	0.6731	0.004	No	2.722	-0.004	2.0	NoResponse	0	0.264	n/a	6	51	ButtonPress	Neutral	True
490.426	1.45	Control	0.6731	n/a	No	2.722	n/a	5.0	NoResponse	0	0.033	489.459	6	51	Feedback	Neutral	True
491.881	2.722	Control	0.6731	n/a	No	2.722	n/a	n/a	NoResponse	0	0.0	n/a	6	51	ISIslide	Neutral	True
494.622	0.25	Control	0.6792	0.0	Yes	2.628	0.022	n/a	GoodResponse	0	n/a	n/a	6	52	Cue	Neutral	True
494.873	4.05	Control	0.6792	0.0	Yes	2.628	0.001	n/a	GoodResponse	0	n/a	n/a	6	52	Fixation	Neutral	True
498.918	0.2	Control	0.6792	0.004	Yes	2.628	-0.004	2.0	GoodResponse	0	0.181	498.099	6	52	Target	Neutral	True
499.099	0.3	Control	0.6792	0.004	Yes	2.628	-0.004	2.0	GoodResponse	0	0.181	n/a	6	52	ButtonPress	Neutral	True
499.119	0.5	Control	0.6792	n/a	Yes	2.628	n/a	n/a	GoodResponse	0	n/a	n/a	6	52	Blank	Neutral	True
499.62	1.45	Control	0.6792	n/a	Yes	2.628	n/a	5.0	GoodResponse	0	0.01	498.63	6	52	Feedback	Neutral	True
501.075	2.628	Control	0.6792	n/a	Yes	2.628	n/a	n/a	GoodResponse	0	0.0	n/a	6	52	ISIslide	Neutral	True
503.716	0.25	Win2	0.6667000000000001	0.0	No	2.934	0.016	n/a	NoResponse	0	n/a	n/a	6	53	Cue	MissedWin	True
503.967	4.05	Win2	0.6667000000000001	0.0	No	2.934	0.001	n/a	NoResponse	0	n/a	n/a	6	53	Fixation	MissedWin	True
508.012	0.19	Win2	0.6667000000000001	0.004	No	2.934	-0.004	2.0	NoResponse	0	0.219	507.231	6	53	Target	MissedWin	True
508.213	0.51	Win2	0.6667000000000001	n/a	No	2.934	n/a	n/a	NoResponse	0	n/a	n/a	6	53	Blank	MissedWin	True
508.231	0.3	Win2	0.6667000000000001	0.004	No	2.934	-0.004	2.0	NoResponse	0	0.219	n/a	6	53	ButtonPress	MissedWin	True
508.714	1.45	Win2	0.6667000000000001	n/a	No	2.934	n/a	5.0	NoResponse	0	0.038	507.752	6	53	Feedback	MissedWin	True
510.169	2.934	Win2	0.6667000000000001	n/a	No	2.934	n/a	n/a	NoResponse	0	0.0	n/a	6	53	ISIslide	MissedWin	True
513.128	0.25	Win2	0.6545000000000001	0.0	No	2.722	0.028	n/a	NoResponse	0	n/a	n/a	6	54	Cue	MissedWin	True
513.378	3.95	Win2	0.6545000000000001	0.0	No	2.722	0.0	n/a	NoResponse	0	n/a	n/a	6	54	Fixation	MissedWin	True
517.34	0.18	Win2	0.6545000000000001	0.0	No	2.722	0.012	2.0	NoResponse	0	0.176	516.516	6	54	Target	MissedWin	True
517.507	0.52	Win2	0.6545000000000001	n/a	No	2.722	n/a	n/a	NoResponse	0	n/a	n/a	6	54	Blank	MissedWin	True
517.516	0.3	Win2	0.6545000000000001	0.0	No	2.722	0.012	2.0	NoResponse	0	0.176	n/a	6	54	ButtonPress	MissedWin	True
518.026	1.45	Win2	0.6545000000000001	n/a	No	2.722	n/a	5.0	NoResponse	0	0.043	517.069	6	54	Feedback	MissedWin	True
519.48	2.722	Win2	0.6545000000000001	n/a	No	2.722	n/a	n/a	NoResponse	0	0.0	n/a	6	54	ISIslide	MissedWin	True
522.221	0.25	Control	0.6429	0.001	No	3.029	0.021	n/a	LatePress	0	n/a	n/a	6	55	Cue	Neutral	True
522.472	3.95	Control	0.6429	0.0	No	3.029	0.001	n/a	LatePress	0	n/a	n/a	6	55	Fixation	Neutral	True
526.417	0.19	Control	0.6429	0.004	No	3.029	-0.004	2.0	LatePress	0	0.19	525.607	6	55	Target	Neutral	True
526.607	0.3	Control	0.6429	0.004	No	3.029	-0.004	2.0	LatePress	0	0.19	n/a	6	55	ButtonPress	Neutral	True
526.618	0.51	Control	0.6429	n/a	No	3.029	n/a	n/a	LatePress	0	n/a	n/a	6	55	Blank	Neutral	True
527.119	1.45	Control	0.6429	n/a	No	3.029	n/a	5.0	LatePress	0	0.023	526.142	6	55	Feedback	Neutral	True
528.574	3.029	Control	0.6429	n/a	No	3.029	n/a	n/a	LatePress	0	0.0	n/a	6	55	ISIslide	Neutral	True
531.616	0.25	Control	0.6491	0.0	Yes	2.834	0.016	n/a	GoodResponse	0	n/a	n/a	6	56	Cue	Neutral	True
531.867	3.95	Control	0.6491	0.0	Yes	2.834	0.001	n/a	GoodResponse	0	n/a	n/a	6	56	Fixation	Neutral	True
535.812	0.2	Control	0.6491	0.004	Yes	2.834	-0.004	2.0	GoodResponse	0	0.174	534.986	6	56	Target	Neutral	True
535.986	0.3	Control	0.6491	0.004	Yes	2.834	-0.004	2.0	GoodResponse	0	0.174	n/a	6	56	ButtonPress	Neutral	True
536.013	0.5	Control	0.6491	n/a	Yes	2.834	n/a	n/a	GoodResponse	0	n/a	n/a	6	56	Blank	Neutral	True
536.514	1.45	Control	0.6491	n/a	Yes	2.834	n/a	5.0	GoodResponse	0	0.042	535.556	6	56	Feedback	Neutral	True
537.969	2.834	Control	0.6491	n/a	Yes	2.834	n/a	n/a	GoodResponse	0	0.0	n/a	6	56	ISIslide	Neutral	True
540.827	0.25	Control	0.6552	0.0	Yes	3.473	0.027	n/a	GoodResponse	0	n/a	n/a	6	57	Cue	Neutral	True
541.078	4.0	Control	0.6552	0.0	Yes	3.473	0.001	n/a	GoodResponse	0	n/a	n/a	6	57	Fixation	Neutral	True
545.073	0.21	Control	0.6552	0.004	Yes	3.473	-0.004	2.0	GoodResponse	0	0.179	544.252	6	57	Target	Neutral	True
545.252	0.3	Control	0.6552	0.004	Yes	3.473	-0.004	2.0	GoodResponse	0	0.179	n/a	6	57	ButtonPress	Neutral	True
545.291	0.49	Control	0.6552	n/a	Yes	3.473	n/a	n/a	GoodResponse	0	n/a	n/a	6	57	Blank	Neutral	True
545.775	1.45	Control	0.6552	n/a	Yes	3.473	n/a	5.0	GoodResponse	0	0.001	544.776	6	57	Feedback	Neutral	True
547.23	3.473	Control	0.6552	n/a	Yes	3.473	n/a	n/a	GoodResponse	0	0.0	n/a	6	57	ISIslide	Neutral	True
550.724	0.25	Win2	0.6441	0.0	No	2.726	0.024	n/a	NoResponse	0	n/a	n/a	6	58	Cue	MissedWin	False
550.974	4.05	Win2	0.6441	0.0	No	2.726	0.0	2.0	NoResponse	0	3.28	553.254	6	58	Fixation	MissedWin	False
554.254	0.3	Win2	0.6441	0.0	No	2.726	0.0	2.0	NoResponse	0	3.28	n/a	6	58	ButtonPress	MissedWin	False
555.02	0.21	Win2	0.6441	0.004	No	2.726	-0.004	2.0	NoResponse	0	0.232	554.252	6	58	Target	MissedWin	False
555.237	0.49	Win2	0.6441	n/a	No	2.726	n/a	n/a	NoResponse	0	n/a	n/a	6	58	Blank	MissedWin	False
555.252	0.3	Win2	0.6441	0.004	No	2.726	-0.004	2.0	NoResponse	0	0.232	n/a	6	58	ButtonPress	MissedWin	False
555.722	1.45	Win2	0.6441	n/a	No	2.726	n/a	5.0	NoResponse	0	0.008	554.73	6	58	Feedback	MissedWin	False
557.176	2.726	Win2	0.6441	n/a	No	2.726	n/a	n/a	NoResponse	0	0.0	n/a	6	58	ISIslide	MissedWin	False
559.918	0.25	Lose2	0.65	0.0	Yes	2.682	0.018	n/a	GoodResponse	0	n/a	n/a	6	59	Cue	AvoidedLoss	True
560.169	4.0	Lose2	0.65	0.0	Yes	2.682	0.001	n/a	GoodResponse	0	n/a	n/a	6	59	Fixation	AvoidedLoss	True
564.164	0.22	Lose2	0.65	0.004	Yes	2.682	-0.004	2.0	GoodResponse	0	0.163	563.327	6	59	Target	AvoidedLoss	True
564.327	0.3	Lose2	0.65	0.004	Yes	2.682	-0.004	2.0	GoodResponse	0	0.163	n/a	6	59	ButtonPress	AvoidedLoss	True
564.398	0.48	Lose2	0.65	n/a	Yes	2.682	n/a	n/a	GoodResponse	0	n/a	n/a	6	59	Blank	AvoidedLoss	True
564.866	1.45	Lose2	0.65	n/a	Yes	2.682	n/a	5.0	GoodResponse	0	0.032	563.898	6	59	Feedback	AvoidedLoss	True
566.32	2.682	Lose2	0.65	n/a	Yes	2.682	n/a	n/a	GoodResponse	0	0.0	n/a	6	59	ISIslide	AvoidedLoss	True
569.028	0.25	Control	0.6393	0.0	No	2.672	0.028	n/a	PrematurePress	0	n/a	n/a	6	60	Cue	Neutral	True
569.279	4.0	Control	0.6393	0.0	No	2.672	0.001	n/a	PrematurePress	0	n/a	n/a	6	60	Fixation	Neutral	True
573.274	0.23	Control	0.6393	0.004	No	2.672	-0.004	2.0	PrematurePress	0	0.075	572.349	6	60	Target	Neutral	True
573.349	0.3	Control	0.6393	0.004	No	2.672	-0.004	2.0	PrematurePress	0	0.075	n/a	6	60	ButtonPress	Neutral	True
573.508	0.47	Control	0.6393	n/a	No	2.672	n/a	n/a	PrematurePress	0	n/a	n/a	6	60	Blank	Neutral	True
573.977	1.45	Control	0.6393	n/a	No	2.672	n/a	5.0	PrematurePress	0	0.043	573.02	6	60	Feedback	Neutral	True
575.431	2.672	Control	0.6393	n/a	No	2.672	n/a	n/a	PrematurePress	0	0.0	n/a	6	60	ISIslide	Neutral	True
578.122	0.25	Lose2	0.6452	0.0	Yes	2.978	0.022	n/a	GoodResponse	0	n/a	n/a	6	61	Cue	AvoidedLoss	True
578.373	4.0	Lose2	0.6452	0.0	Yes	2.978	0.001	n/a	GoodResponse	0	n/a	n/a	6	61	Fixation	AvoidedLoss	True
582.368	0.24	Lose2	0.6452	0.004	Yes	2.978	-0.004	2.0	GoodResponse	0	0.177	581.545	6	61	Target	AvoidedLoss	True
582.545	0.3	Lose2	0.6452	0.004	Yes	2.978	-0.004	2.0	GoodResponse	0	0.177	n/a	6	61	ButtonPress	AvoidedLoss	True
582.619	0.46	Lose2	0.6452	n/a	Yes	2.978	n/a	n/a	GoodResponse	0	n/a	n/a	6	61	Blank	AvoidedLoss	True
583.07	1.45	Lose2	0.6452	n/a	Yes	2.978	n/a	5.0	GoodResponse	0	0.023	582.093	6	61	Feedback	AvoidedLoss	True
584.525	2.978	Lose2	0.6452	n/a	Yes	2.978	n/a	n/a	GoodResponse	0	0.0	n/a	6	61	ISIslide	AvoidedLoss	True
587.517	0.25	Lose2	0.6349	0.0	No	2.883	0.017	n/a	NoResponse	-1	n/a	n/a	5	62	Cue	Loss	True
587.768	3.9	Lose2	0.6349	0.0	No	2.883	0.001	n/a	NoResponse	-1	n/a	n/a	5	62	Fixation	Loss	True
591.663	0.25	Lose2	0.6349	0.004	No	2.883	-0.004	2.0	NoResponse	-1	0.272	590.935	5	62	Target	Loss	True
591.914	0.45	Lose2	0.6349	n/a	No	2.883	n/a	n/a	NoResponse	-1	n/a	n/a	5	62	Blank	Loss	True
591.935	0.3	Lose2	0.6349	0.004	No	2.883	-0.004	2.0	NoResponse	-1	0.272	n/a	5	62	ButtonPress	Loss	True
592.365	1.45	Lose2	0.6349	n/a	No	2.883	n/a	5.0	NoResponse	-1	0.045	591.41	5	62	Feedback	Loss	True
593.819	2.883	Lose2	0.6349	n/a	No	2.883	n/a	n/a	NoResponse	-1	0.0	n/a	5	62	ISIslide	Loss	True
596.728	0.25	Lose2	0.6406000000000001	0.0	Yes	2.622	0.028	n/a	GoodResponse	0	n/a	n/a	5	63	Cue	AvoidedLoss	True
596.979	4.05	Lose2	0.6406000000000001	0.0	Yes	2.622	0.001	n/a	GoodResponse	0	n/a	n/a	5	63	Fixation	AvoidedLoss	True
601.024	0.26	Lose2	0.6406000000000001	0.004	Yes	2.622	-0.004	2.0	GoodResponse	0	0.24	600.264	5	63	Target	AvoidedLoss	True
601.264	0.3	Lose2	0.6406000000000001	0.004	Yes	2.622	-0.004	2.0	GoodResponse	0	0.24	n/a	5	63	ButtonPress	AvoidedLoss	True
601.292	0.44	Lose2	0.6406000000000001	n/a	Yes	2.622	n/a	n/a	GoodResponse	0	n/a	n/a	5	63	Blank	AvoidedLoss	True
601.726	1.45	Lose2	0.6406000000000001	n/a	Yes	2.622	n/a	5.0	GoodResponse	0	0.001	600.727	5	63	Feedback	AvoidedLoss	True
603.181	2.622	Lose2	0.6406000000000001	n/a	Yes	2.622	n/a	n/a	GoodResponse	0	0.0	n/a	5	63	ISIslide	AvoidedLoss	True
605.822	0.25	Win2	0.6462	0.0	Yes	3.128	0.022	n/a	GoodResponse	1	n/a	n/a	6	64	Cue	Win	True
606.073	4.15	Win2	0.6462	0.0	Yes	3.128	0.001	n/a	GoodResponse	1	n/a	n/a	6	64	Fixation	Win	True
610.218	0.27	Win2	0.6462	0.004	Yes	3.128	-0.004	2.0	GoodResponse	1	0.207	609.425	6	64	Target	Win	True
610.425	0.3	Win2	0.6462	0.004	Yes	3.128	-0.004	2.0	GoodResponse	1	0.207	n/a	6	64	ButtonPress	Win	True
610.503	0.43	Win2	0.6462	n/a	Yes	3.128	n/a	n/a	GoodResponse	1	n/a	n/a	6	64	Blank	Win	True
610.921	1.45	Win2	0.6462	n/a	Yes	3.128	n/a	5.0	GoodResponse	1	0.025	609.946	6	64	Feedback	Win	True
612.375	3.128	Win2	0.6462	n/a	Yes	3.128	n/a	n/a	GoodResponse	1	0.0	n/a	6	64	ISIslide	Win	True
615.518	0.25	Control	0.6515000000000001	0.0	Yes	2.782	0.018	n/a	GoodResponse	0	n/a	n/a	6	65	Cue	Neutral	True
615.768	4.0	Control	0.6515000000000001	0.001	Yes	2.782	0.0	n/a	GoodResponse	0	n/a	n/a	6	65	Fixation	Neutral	True
619.764	0.28	Control	0.6515000000000001	0.004	Yes	2.782	-0.004	2.0	GoodResponse	0	0.276	619.04	6	65	Target	Neutral	True
620.04	0.3	Control	0.6515000000000001	0.004	Yes	2.782	-0.004	2.0	GoodResponse	0	0.276	n/a	6	65	ButtonPress	Neutral	True
620.048	0.42	Control	0.6515000000000001	n/a	Yes	2.782	n/a	n/a	GoodResponse	0	n/a	n/a	6	65	Blank	Neutral	True
620.466	1.45	Control	0.6515000000000001	n/a	Yes	2.782	n/a	5.0	GoodResponse	0	0.041	619.507	6	65	Feedback	Neutral	True
621.92	2.782	Control	0.6515000000000001	n/a	Yes	2.782	n/a	n/a	GoodResponse	0	0.0	n/a	6	65	ISIslide	Neutral	True
624.729	0.25	Win2	0.6567000000000001	0.0	Yes	2.771	0.029	n/a	GoodResponse	1	n/a	n/a	7	66	Cue	Win	False
624.979	3.9	Win2	0.6567000000000001	0.0	Yes	2.771	0.0	2.0	GoodResponse	1	3.692	627.671	7	66	Fixation	Win	False
628.671	0.3	Win2	0.6567000000000001	0.0	Yes	2.771	0.0	2.0	GoodResponse	1	3.692	n/a	7	66	ButtonPress	Win	False
628.891	0.29	Win2	0.6567000000000001	0.0	Yes	2.771	0.012	2.0	GoodResponse	1	0.181	628.072	7	66	Target	Win	False
629.072	0.3	Win2	0.6567000000000001	0.0	Yes	2.771	0.012	2.0	GoodResponse	1	0.181	n/a	7	66	ButtonPress	Win	False
629.175	0.41	Win2	0.6567000000000001	n/a	Yes	2.771	n/a	n/a	GoodResponse	1	n/a	n/a	7	66	Blank	Win	False
629.576	1.45	Win2	0.6567000000000001	n/a	Yes	2.771	n/a	5.0	GoodResponse	1	0.008	628.584	7	66	Feedback	Win	False
631.031	2.771	Win2	0.6567000000000001	n/a	Yes	2.771	n/a	n/a	GoodResponse	1	0.0	n/a	7	66	ISIslide	Win	False
633.823	0.25	Control	0.6618	0.0	Yes	2.727	0.023	n/a	GoodResponse	0	n/a	n/a	7	67	Cue	Neutral	True
634.073	3.95	Control	0.6618	0.0	Yes	2.727	0.0	n/a	GoodResponse	0	n/a	n/a	7	67	Fixation	Neutral	True
638.035	0.29	Control	0.6618	0.0	Yes	2.727	0.012	2.0	GoodResponse	0	0.175	637.21	7	67	Target	Neutral	True
638.21	0.3	Control	0.6618	0.0	Yes	2.727	0.012	2.0	GoodResponse	0	0.175	n/a	7	67	ButtonPress	Neutral	True
638.319	0.41	Control	0.6618	n/a	Yes	2.727	n/a	n/a	GoodResponse	0	n/a	n/a	7	67	Blank	Neutral	True
638.721	1.45	Control	0.6618	n/a	Yes	2.727	n/a	5.0	GoodResponse	0	0.03	637.751	7	67	Feedback	Neutral	True
640.175	2.727	Control	0.6618	n/a	Yes	2.727	n/a	n/a	GoodResponse	0	0.0	n/a	7	67	ISIslide	Neutral	True
642.916	0.25	Win2	0.6667000000000001	0.001	Yes	3.084	0.016	n/a	GoodResponse	1	n/a	n/a	8	68	Cue	Win	True
643.167	4.0	Win2	0.6667000000000001	0.0	Yes	3.084	0.001	n/a	GoodResponse	1	n/a	n/a	8	68	Fixation	Win	True
647.163	0.29	Win2	0.6667000000000001	0.003	Yes	3.084	-0.003	2.0	GoodResponse	1	0.166	646.329	8	68	Target	Win	True
647.329	0.3	Win2	0.6667000000000001	0.003	Yes	3.084	-0.003	2.0	GoodResponse	1	0.166	n/a	8	68	ButtonPress	Win	True
647.463	0.41	Win2	0.6667000000000001	n/a	Yes	3.084	n/a	n/a	GoodResponse	1	n/a	n/a	8	68	Blank	Win	True
647.865	1.45	Win2	0.6667000000000001	n/a	Yes	3.084	n/a	5.0	GoodResponse	1	0.008	646.873	8	68	Feedback	Win	True
649.319	3.084	Win2	0.6667000000000001	n/a	Yes	3.084	n/a	n/a	GoodResponse	1	0.0	n/a	8	68	ISIslide	Win	True
652.428	0.25	Win2	0.6714	0.0	Yes	3.222	0.028	n/a	GoodResponse	1	n/a	n/a	9	69	Cue	Win	True
652.679	3.95	Win2	0.6714	0.0	Yes	3.222	0.001	n/a	GoodResponse	1	n/a	n/a	9	69	Fixation	Win	True
656.624	0.28	Win2	0.6714	0.004	Yes	3.222	-0.004	2.0	GoodResponse	1	0.163	655.787	9	69	Target	Win	True
656.787	0.3	Win2	0.6714	0.004	Yes	3.222	-0.004	2.0	GoodResponse	1	0.163	n/a	9	69	ButtonPress	Win	True
656.908	0.42	Win2	0.6714	n/a	Yes	3.222	n/a	n/a	GoodResponse	1	n/a	n/a	9	69	Blank	Win	True
657.326	1.45	Win2	0.6714	n/a	Yes	3.222	n/a	5.0	GoodResponse	1	0.01	656.336	9	69	Feedback	Win	True
658.781	3.222	Win2	0.6714	n/a	Yes	3.222	n/a	n/a	GoodResponse	1	0.0	n/a	9	69	ISIslide	Win	True
662.024	0.25	Lose2	0.6761	0.0	Yes	3.026	0.024	n/a	GoodResponse	0	n/a	n/a	9	70	Cue	AvoidedLoss	True
662.274	4.05	Lose2	0.6761	0.001	Yes	3.026	0.0	n/a	GoodResponse	0	n/a	n/a	9	70	Fixation	AvoidedLoss	True
666.32	0.27	Lose2	0.6761	0.004	Yes	3.026	-0.004	2.0	GoodResponse	0	0.173	665.493	9	70	Target	AvoidedLoss	True
666.493	0.3	Lose2	0.6761	0.004	Yes	3.026	-0.004	2.0	GoodResponse	0	0.173	n/a	9	70	ButtonPress	AvoidedLoss	True
666.604	0.43	Lose2	0.6761	n/a	Yes	3.026	n/a	n/a	GoodResponse	0	n/a	n/a	9	70	Blank	AvoidedLoss	True
667.022	1.45	Lose2	0.6761	n/a	Yes	3.026	n/a	5.0	GoodResponse	0	0.021	666.043	9	70	Feedback	AvoidedLoss	True
668.476	3.026	Lose2	0.6761	n/a	Yes	3.026	n/a	n/a	GoodResponse	0	0.0	n/a	9	70	ISIslide	AvoidedLoss	True
671.519	0.25	Win2	0.6806	0.0	Yes	2.731	0.019	n/a	GoodResponse	1	n/a	n/a	10	71	Cue	Win	True
671.77	4.05	Win2	0.6806	0.0	Yes	2.731	0.001	n/a	GoodResponse	1	n/a	n/a	10	71	Fixation	Win	True
675.815	0.26	Win2	0.6806	0.004	Yes	2.731	-0.004	2.0	GoodResponse	1	0.172	674.987	10	71	Target	Win	True
675.987	0.3	Win2	0.6806	0.004	Yes	2.731	-0.004	2.0	GoodResponse	1	0.172	n/a	10	71	ButtonPress	Win	True
676.083	0.44	Win2	0.6806	n/a	Yes	2.731	n/a	n/a	GoodResponse	1	n/a	n/a	10	71	Blank	Win	True
676.517	1.45	Win2	0.6806	n/a	Yes	2.731	n/a	5.0	GoodResponse	1	0.039	675.556	10	71	Feedback	Win	True
677.972	2.731	Win2	0.6806	n/a	Yes	2.731	n/a	n/a	GoodResponse	1	0.0	n/a	10	71	ISIslide	Win	True
680.73	0.25	Win2	0.6849	0.0	Yes	2.77	0.03	n/a	GoodResponse	1	n/a	n/a	11	72	Cue	Win	True
680.981	4.1	Win2	0.6849	0.0	Yes	2.77	0.001	n/a	GoodResponse	1	n/a	n/a	11	72	Fixation	Win	True
685.076	0.25	Win2	0.6849	0.004	Yes	2.77	-0.004	2.0	GoodResponse	1	0.164	684.24	11	72	Target	Win	True
685.24	0.3	Win2	0.6849	0.004	Yes	2.77	-0.004	2.0	GoodResponse	1	0.164	n/a	11	72	ButtonPress	Win	True
685.327	0.45	Win2	0.6849	n/a	Yes	2.77	n/a	n/a	GoodResponse	1	n/a	n/a	11	72	Blank	Win	True
685.778	1.45	Win2	0.6849	n/a	Yes	2.77	n/a	5.0	GoodResponse	1	0.046	684.824	11	72	Feedback	Win	True
687.233	2.77	Win2	0.6849	n/a	Yes	2.77	n/a	n/a	GoodResponse	1	0.0	n/a	11	72	ISIslide	Win	True
690.024	0.25	Win2	0.6892	0.0	Yes	2.676	0.024	n/a	GoodResponse	1	n/a	n/a	12	73	Cue	Win	True
690.275	4.0	Win2	0.6892	0.0	Yes	2.676	0.001	n/a	GoodResponse	1	n/a	n/a	12	73	Fixation	Win	True
694.27	0.24	Win2	0.6892	0.004	Yes	2.676	-0.004	2.0	GoodResponse	1	0.167	693.437	12	73	Target	Win	True
694.437	0.3	Win2	0.6892	0.004	Yes	2.676	-0.004	2.0	GoodResponse	1	0.167	n/a	12	73	ButtonPress	Win	True
694.521	0.46	Win2	0.6892	n/a	Yes	2.676	n/a	n/a	GoodResponse	1	n/a	n/a	12	73	Blank	Win	True
694.972	1.45	Win2	0.6892	n/a	Yes	2.676	n/a	5.0	GoodResponse	1	0.023	693.995	12	73	Feedback	Win	True
696.427	2.676	Win2	0.6892	n/a	Yes	2.676	n/a	n/a	GoodResponse	1	0.0	n/a	12	73	ISIslide	Win	True
699.118	0.25	Lose2	0.6933	0.0	Yes	2.632	0.018	n/a	GoodResponse	0	n/a	n/a	12	74	Cue	AvoidedLoss	True
699.369	4.05	Lose2	0.6933	0.0	Yes	2.632	0.001	n/a	GoodResponse	0	n/a	n/a	12	74	Fixation	AvoidedLoss	True
703.414	0.23	Lose2	0.6933	0.004	Yes	2.632	-0.004	2.0	GoodResponse	0	0.189	702.603	12	74	Target	AvoidedLoss	True
703.603	0.3	Lose2	0.6933	0.004	Yes	2.632	-0.004	2.0	GoodResponse	0	0.189	n/a	12	74	ButtonPress	AvoidedLoss	True
703.648	0.47	Lose2	0.6933	n/a	Yes	2.632	n/a	n/a	GoodResponse	0	n/a	n/a	12	74	Blank	AvoidedLoss	True
704.117	1.45	Lose2	0.6933	n/a	Yes	2.632	n/a	5.0	GoodResponse	0	0.0	703.117	12	74	Feedback	AvoidedLoss	True
705.571	2.632	Lose2	0.6933	n/a	Yes	2.632	n/a	n/a	GoodResponse	0	0.0	n/a	12	74	ISIslide	AvoidedLoss	True
708.229	0.25	Lose2	0.6973999999999999	0.0	Yes	2.921	0.029	n/a	GoodResponse	0	n/a	n/a	12	75	Cue	AvoidedLoss	True
708.48	3.95	Lose2	0.6973999999999999	0.0	Yes	2.921	0.001	n/a	GoodResponse	0	n/a	n/a	12	75	Fixation	AvoidedLoss	True
712.425	0.22	Lose2	0.6973999999999999	0.004	Yes	2.921	-0.004	2.0	GoodResponse	0	0.174	711.599	12	75	Target	AvoidedLoss	True
712.599	0.3	Lose2	0.6973999999999999	0.004	Yes	2.921	-0.004	2.0	GoodResponse	0	0.174	n/a	12	75	ButtonPress	AvoidedLoss	True
712.659	0.48	Lose2	0.6973999999999999	n/a	Yes	2.921	n/a	n/a	GoodResponse	0	n/a	n/a	12	75	Blank	AvoidedLoss	True
713.127	1.45	Lose2	0.6973999999999999	n/a	Yes	2.921	n/a	5.0	GoodResponse	0	0.014	712.141	12	75	Feedback	AvoidedLoss	True
714.581	2.921	Lose2	0.6973999999999999	n/a	Yes	2.921	n/a	n/a	GoodResponse	0	0.0	n/a	12	75	ISIslide	AvoidedLoss	True
717.523	0.25	Control	0.7012999999999999	0.0	Yes	3.227	0.023	n/a	GoodResponse	0	n/a	n/a	12	76	Cue	Neutral	True
717.774	4.05	Control	0.7012999999999999	0.0	Yes	3.227	0.001	n/a	GoodResponse	0	n/a	n/a	12	76	Fixation	Neutral	True
721.82	0.21	Control	0.7012999999999999	0.003	Yes	3.227	-0.003	2.0	GoodResponse	0	0.116	720.936	12	76	Target	Neutral	True
721.936	0.3	Control	0.7012999999999999	0.003	Yes	3.227	-0.003	2.0	GoodResponse	0	0.116	n/a	12	76	ButtonPress	Neutral	True
722.037	0.49	Control	0.7012999999999999	n/a	Yes	3.227	n/a	n/a	GoodResponse	0	n/a	n/a	12	76	Blank	Neutral	True
722.522	1.45	Control	0.7012999999999999	n/a	Yes	3.227	n/a	5.0	GoodResponse	0	0.033	721.555	12	76	Feedback	Neutral	True
723.976	3.227	Control	0.7012999999999999	n/a	Yes	3.227	n/a	n/a	GoodResponse	0	0.0	n/a	12	76	ISIslide	Neutral	True
727.219	0.25	Lose2	0.7051000000000001	0.0	Yes	2.581	0.019	n/a	GoodResponse	0	n/a	n/a	12	77	Cue	AvoidedLoss	True
727.47	3.95	Lose2	0.7051000000000001	0.0	Yes	2.581	0.001	n/a	GoodResponse	0	n/a	n/a	12	77	Fixation	AvoidedLoss	True
731.415	0.2	Lose2	0.7051000000000001	0.004	Yes	2.581	-0.004	2.0	GoodResponse	0	0.186	730.601	12	77	Target	AvoidedLoss	True
731.601	0.3	Lose2	0.7051000000000001	0.004	Yes	2.581	-0.004	2.0	GoodResponse	0	0.186	n/a	12	77	ButtonPress	AvoidedLoss	True
731.616	0.5	Lose2	0.7051000000000001	n/a	Yes	2.581	n/a	n/a	GoodResponse	0	n/a	n/a	12	77	Blank	AvoidedLoss	True
732.117	1.45	Lose2	0.7051000000000001	n/a	Yes	2.581	n/a	5.0	GoodResponse	0	0.048	731.165	12	77	Feedback	AvoidedLoss	True
733.571	2.581	Lose2	0.7051000000000001	n/a	Yes	2.581	n/a	n/a	GoodResponse	0	0.0	n/a	12	77	ISIslide	AvoidedLoss	True
