onset	duration	cue_type	current_mean_accuracy	duration_error	is_hit	isi_adjusted	onset_delay	response	response_type	reward	rt	rt_time	total_reward	trial_number	trial_phase	trial_type	one_press
11.1	0.25	Control	1.0	0.0	Yes	2.95	0.0	n/a	GoodResponse	0	n/a	n/a	0	0	Cue	Neutral	True
11.35	3.85	Control	1.0	0.0	Yes	2.95	0.0	n/a	GoodResponse	0	n/a	n/a	0	0	Fixation	Neutral	True
15.212	0.4	Control	1.0	0.0	Yes	2.95	0.012	4.0	GoodResponse	0	0.246	14.458	0	0	Target	Neutral	True
15.458	0.3	Control	1.0	0.0	Yes	2.95	0.012	4.0	GoodResponse	0	0.246	n/a	0	0	ButtonPress	Neutral	True
15.596	0.3	Control	1.0	n/a	Yes	2.95	n/a	n/a	GoodResponse	0	n/a	n/a	0	0	Blank	Neutral	True
15.897	1.45	Control	1.0	n/a	Yes	2.95	n/a	5.0	GoodResponse	0	0.03	14.927	0	0	Feedback	Neutral	True
17.352	2.95	Control	1.0	n/a	Yes	2.95	n/a	n/a	GoodResponse	0	0.0	n/a	0	0	ISIslide	Neutral	True
20.327	0.25	Lose2	1.0	0.0	Yes	2.773	0.027	n/a	GoodResponse	0	n/a	n/a	0	1	Cue	AvoidedLoss	True
20.578	4.0	Lose2	1.0	0.0	Yes	2.773	0.001	n/a	GoodResponse	0	n/a	n/a	0	1	Fixation	AvoidedLoss	True
24.573	0.39	Lose2	1.0	0.004	Yes	2.773	-0.004	4.0	GoodResponse	0	0.23	23.803	0	1	Target	AvoidedLoss	True
24.803	0.3	Lose2	1.0	0.004	Yes	2.773	-0.004	4.0	GoodResponse	0	0.23	n/a	0	1	ButtonPress	AvoidedLoss	True
24.975	0.31	Lose2	1.0	n/a	Yes	2.773	n/a	n/a	GoodResponse	0	n/a	n/a	0	1	Blank	AvoidedLoss	True
25.275	1.45	Lose2	1.0	n/a	Yes	2.773	n/a	5.0	GoodResponse	0	0.017	24.292	0	1	Feedback	AvoidedLoss	True
26.73	2.773	Lose2	1.0	n/a	Yes	2.773	n/a	n/a	GoodResponse	0	0.0	n/a	0	1	ISIslide	AvoidedLoss	True
29.521	0.25	Control	1.0	0.001	Yes	2.579	0.021	n/a	GoodResponse	0	n/a	n/a	0	2	Cue	Neutral	True
29.772	4.1	Control	1.0	0.0	Yes	2.579	0.001	n/a	GoodResponse	0	n/a	n/a	0	2	Fixation	Neutral	True
33.868	0.38	Control	1.0	0.003	Yes	2.579	-0.003	4.0	GoodResponse	0	0.247	33.115	0	2	Target	Neutral	True
34.115	0.3	Control	1.0	0.003	Yes	2.579	-0.003	4.0	GoodResponse	0	0.247	n/a	0	2	ButtonPress	Neutral	True
34.252	0.32	Control	1.0	n/a	Yes	2.579	n/a	n/a	GoodResponse	0	n/a	n/a	0	2	Blank	Neutral	True
34.57	1.45	Control	1.0	n/a	Yes	2.579	n/a	5.0	GoodResponse	0	0.039	33.609	0	2	Feedback	Neutral	True
36.024	2.579	Control	1.0	n/a	Yes	2.579	n/a	n/a	GoodResponse	0	0.0	n/a	0	2	ISIslide	Neutral	True
38.632	0.25	Win2	1.0	0.0	Yes	2.818	0.032	n/a	GoodResponse	1	n/a	n/a	1	3	Cue	Win	True
38.883	3.95	Win2	1.0	0.0	Yes	2.818	0.001	n/a	GoodResponse	1	n/a	n/a	1	3	Fixation	Win	True
42.828	0.37	Win2	1.0	0.004	Yes	2.818	-0.004	4.0	GoodResponse	1	0.213	42.041	1	3	Target	Win	True
43.041	0.3	Win2	1.0	0.004	Yes	2.818	-0.004	4.0	GoodResponse	1	0.213	n/a	1	3	ButtonPress	Win	True
43.213	0.33	Win2	1.0	n/a	Yes	2.818	n/a	n/a	GoodResponse	1	n/a	n/a	1	3	Blank	Win	True
43.53	1.45	Win2	1.0	n/a	Yes	2.818	n/a	5.0	GoodResponse	1	0.007	42.537	1	3	Feedback	Win	True
44.984	2.818	Win2	1.0	n/a	Yes	2.818	n/a	n/a	GoodResponse	1	0.0	n/a	1	3	ISIslide	Win	True
47.826	0.25	Win2	1.0	0.0	Yes	3.274	0.026	n/a	GoodResponse	1	n/a	n/a	2	4	Cue	Win	True
48.077	4.0	Win2	1.0	0.0	Yes	3.274	0.001	n/a	GoodResponse	1	n/a	n/a	2	4	Fixation	Win	True
52.072	0.36	Win2	1.0	0.004	Yes	3.274	-0.004	4.0	GoodResponse	1	0.232	51.304	2	4	Target	Win	True
52.304	0.3	Win2	1.0	0.004	Yes	3.274	-0.004	4.0	GoodResponse	1	0.232	n/a	2	4	ButtonPress	Win	True
52.44	0.34	Win2	1.0	n/a	Yes	3.274	n/a	n/a	GoodResponse	1	n/a	n/a	2	4	Blank	Win	True
52.775	1.45	Win2	1.0	n/a	Yes	3.274	n/a	5.0	GoodResponse	1	0.029	51.804	2	4	Feedback	Win	True
54.229	3.274	Win2	1.0	n/a	Yes	3.274	n/a	n/a	GoodResponse	1	0.0	n/a	2	4	ISIslide	Win	True
57.522	0.25	Win2	1.0	0.0	Yes	2.778	0.022	n/a	GoodResponse	1	n/a	n/a	3	5	Cue	Win	True
57.773	4.0	Win2	1.0	0.0	Yes	2.778	0.001	n/a	GoodResponse	1	n/a	n/a	3	5	Fixation	Win	True
61.768	0.35	Win2	1.0	0.004	Yes	2.778	-0.004	4.0	GoodResponse	1	0.226	60.994	3	5	Target	Win	True
61.994	0.3	Win2	1.0	0.004	Yes	2.778	-0.004	4.0	GoodResponse	1	0.226	n/a	3	5	ButtonPress	Win	True
62.119	0.35	Win2	1.0	n/a	Yes	2.778	n/a	n/a	GoodResponse	1	n/a	n/a	3	5	Blank	Win	True
62.47	1.45	Win2	1.0	n/a	Yes	2.778	n/a	5.0	GoodResponse	1	0.042	61.512	3	5	Feedback	Win	True
63.925	2.778	Win2	1.0	n/a	Yes	2.778	n/a	n/a	GoodResponse	1	0.0	n/a	3	5	ISIslide	Win	True
66.716	0.25	Lose2	1.0	0.0	Yes	2.734	0.016	n/a	GoodResponse	0	n/a	n/a	3	6	Cue	AvoidedLoss	True
66.967	3.95	Lose2	1.0	0.0	Yes	2.734	0.001	n/a	GoodResponse	0	n/a	n/a	3	6	Fixation	AvoidedLoss	True
70.912	0.34	Lose2	1.0	0.004	Yes	2.734	-0.004	4.0	GoodResponse	0	0.221	70.133	3	6	Target	AvoidedLoss	True
71.133	0.3	Lose2	1.0	0.004	Yes	2.734	-0.004	4.0	GoodResponse	0	0.221	n/a	3	6	ButtonPress	AvoidedLoss	True
71.263	0.36	Lose2	1.0	n/a	Yes	2.734	n/a	n/a	GoodResponse	0	n/a	n/a	3	6	Blank	AvoidedLoss	True
71.614	1.45	Lose2	1.0	n/a	Yes	2.734	n/a	5.0	GoodResponse	0	0.02	70.634	3	6	Feedback	AvoidedLoss	True
73.069	2.734	Lose2	1.0	n/a	Yes	2.734	n/a	n/a	GoodResponse	0	0.0	n/a	3	6	ISIslide	AvoidedLoss	True
75.827	0.25	Lose2	1.0	0.0	Yes	4.023	0.027	n/a	GoodResponse	0	n/a	n/a	3	7	Cue	AvoidedLoss	True
76.078	4.05	Lose2	1.0	0.0	Yes	4.023	0.001	n/a	GoodResponse	0	n/a	n/a	3	7	Fixation	AvoidedLoss	True
80.123	0.33	Lose2	1.0	0.004	Yes	4.023	-0.004	4.0	GoodResponse	0	0.222	79.345	3	7	Target	AvoidedLoss	True
80.345	0.3	Lose2	1.0	0.004	Yes	4.023	-0.004	4.0	GoodResponse	0	0.222	n/a	3	7	ButtonPress	AvoidedLoss	True
80.457	0.37	Lose2	1.0	n/a	Yes	4.023	n/a	n/a	GoodResponse	0	n/a	n/a	3	7	Blank	AvoidedLoss	True
80.825	1.45	Lose2	1.0	n/a	Yes	4.023	n/a	5.0	GoodResponse	0	0.028	79.853	3	7	Feedback	AvoidedLoss	True
82.28	4.023	Lose2	1.0	n/a	Yes	4.023	n/a	n/a	GoodResponse	0	0.0	n/a	3	7	ISIslide	AvoidedLoss	True
86.325	0.25	Lose2	1.0	0.0	Yes	3.025	0.025	n/a	GoodResponse	0	n/a	n/a	3	8	Cue	AvoidedLoss	True
86.576	3.95	Lose2	1.0	0.0	Yes	3.025	0.001	n/a	GoodResponse	0	n/a	n/a	3	8	Fixation	AvoidedLoss	True
90.521	0.32	Lose2	1.0	0.004	Yes	3.025	-0.004	4.0	GoodResponse	0	0.216	89.737	3	8	Target	AvoidedLoss	True
90.737	0.3	Lose2	1.0	0.004	Yes	3.025	-0.004	4.0	GoodResponse	0	0.216	n/a	3	8	ButtonPress	AvoidedLoss	True
90.855	0.38	Lose2	1.0	n/a	Yes	3.025	n/a	n/a	GoodResponse	0	n/a	n/a	3	8	Blank	AvoidedLoss	True
91.223	1.45	Lose2	1.0	n/a	Yes	3.025	n/a	5.0	GoodResponse	0	0.02	90.243	3	8	Feedback	AvoidedLoss	True
92.677	3.025	Lose2	1.0	n/a	Yes	3.025	n/a	n/a	GoodResponse	0	0.0	n/a	3	8	ISIslide	AvoidedLoss	True
95.72	0.25	Lose2	1.0	0.0	Yes	3.13	0.02	n/a	GoodResponse	0	n/a	n/a	3	9	Cue	AvoidedLoss	True
95.971	3.95	Lose2	1.0	0.0	Yes	3.13	0.001	n/a	GoodResponse	0	n/a	n/a	3	9	Fixation	AvoidedLoss	True
99.916	0.31	Lose2	1.0	0.004	Yes	3.13	-0.004	4.0	GoodResponse	0	0.226	99.142	3	9	Target	AvoidedLoss	True
100.142	0.3	Lose2	1.0	0.004	Yes	3.13	-0.004	4.0	GoodResponse	0	0.226	n/a	3	9	ButtonPress	AvoidedLoss	True
100.233	0.39	Lose2	1.0	n/a	Yes	3.13	n/a	n/a	GoodResponse	0	n/a	n/a	3	9	Blank	AvoidedLoss	True
100.618	1.45	Lose2	1.0	n/a	Yes	3.13	n/a	5.0	GoodResponse	0	0.039	99.657	3	9	Feedback	AvoidedLoss	True
102.072	3.13	Lose2	1.0	n/a	Yes	3.13	n/a	n/a	GoodResponse	0	0.0	n/a	3	9	ISIslide	AvoidedLoss	True
105.215	0.25	Control	1.0	0.0	Yes	3.285	0.015	n/a	GoodResponse	0	n/a	n/a	3	10	Cue	Neutral	True
105.466	4.0	Control	1.0	0.0	Yes	3.285	0.001	n/a	GoodResponse	0	n/a	n/a	3	10	Fixation	Neutral	True
109.461	0.3	Control	1.0	0.004	Yes	3.285	-0.004	4.0	GoodResponse	0	0.213	108.674	3	10	Target	Neutral	True
109.674	0.3	Control	1.0	0.004	Yes	3.285	-0.004	4.0	GoodResponse	0	0.213	n/a	3	10	ButtonPress	Neutral	True
109.762	0.4	Control	1.0	n/a	Yes	3.285	n/a	n/a	GoodResponse	0	n/a	n/a	3	10	Blank	Neutral	True
110.163	1.45	Control	1.0	n/a	Yes	3.285	n/a	5.0	GoodResponse	0	0.007	109.17	3	10	Feedback	Neutral	True
111.617	3.285	Control	1.0	n/a	Yes	3.285	n/a	n/a	GoodResponse	0	0.0	n/a	3	10	ISIslide	Neutral	True
114.927	0.25	Lose2	1.0	0.001	Yes	2.723	0.027	n/a	GoodResponse	0	n/a	n/a	3	11	Cue	AvoidedLoss	True
115.178	4.05	Lose2	1.0	0.0	Yes	2.723	0.001	n/a	GoodResponse	0	n/a	n/a	3	11	Fixation	AvoidedLoss	True
119.224	0.29	Lose2	1.0	0.003	Yes	2.723	-0.003	4.0	GoodResponse	0	0.212	118.436	3	11	Target	AvoidedLoss	True
119.436	0.3	Lose2	1.0	0.003	Yes	2.723	-0.003	4.0	GoodResponse	0	0.212	n/a	3	11	ButtonPress	AvoidedLoss	True
119.525	0.41	Lose2	1.0	n/a	Yes	2.723	n/a	n/a	GoodResponse	0	n/a	n/a	3	11	Blank	AvoidedLoss	True
119.926	1.45	Lose2	1.0	n/a	Yes	2.723	n/a	5.0	GoodResponse	0	0.0	118.926	3	11	Feedback	AvoidedLoss	True
121.38	2.723	Lose2	1.0	n/a	Yes	2.723	n/a	n/a	GoodResponse	0	0.0	n/a	3	11	ISIslide	AvoidedLoss	True
124.122	0.25	Control	0.9231	0.0	No	2.978	0.022	n/a	NoResponse	0	n/a	n/a	3	12	Cue	Neutral	True
124.372	3.9	Control	0.9231	0.0	No	2.978	0.0	n/a	NoResponse	0	n/a	n/a	3	12	Fixation	Neutral	True
128.284	0.28	Control	0.9231	0.0	No	2.978	0.012	4.0	NoResponse	0	0.275	127.559	3	12	Target	Neutral	True
128.552	0.42	Control	0.9231	n/a	No	2.978	n/a	n/a	NoResponse	0	n/a	n/a	3	12	Blank	Neutral	True
128.559	0.3	Control	0.9231	0.0	No	2.978	0.012	4.0	NoResponse	0	0.275	n/a	3	12	ButtonPress	Neutral	True
128.969	1.45	Control	0.9231	n/a	No	2.978	n/a	5.0	NoResponse	0	0.03	127.999	3	12	Feedback	Neutral	True
130.424	2.978	Control	0.9231	n/a	No	2.978	n/a	n/a	NoResponse	0	0.0	n/a	3	12	ISIslide	Neutral	True
133.416	0.25	Control	0.9286	0.0	Yes	2.784	0.016	n/a	GoodResponse	0	n/a	n/a	3	13	Cue	Neutral	True
133.667	4.0	Control	0.9286	0.0	Yes	2.784	0.001	n/a	GoodResponse	0	n/a	n/a	3	13	Fixation	Neutral	True
137.662	0.27	Control	0.9286	0.004	Yes	2.784	-0.004	4.0	GoodResponse	0	0.234	136.896	3	13	Target	Neutral	True
137.896	0.3	Control	0.9286	0.004	Yes	2.784	-0.004	4.0	GoodResponse	0	0.234	n/a	3	13	ButtonPress	Neutral	True
137.946	0.43	Control	0.9286	n/a	Yes	2.784	n/a	n/a	GoodResponse	0	n/a	n/a	3	13	Blank	Neutral	True
138.364	1.45	Control	0.9286	n/a	Yes	2.784	n/a	5.0	GoodResponse	0	0.001	137.365	3	13	Feedback	Neutral	True
139.819	2.784	Control	0.9286	n/a	Yes	2.784	n/a	n/a	GoodResponse	0	0.0	n/a	3	13	ISIslide	Neutral	True
142.627	0.25	Win2	0.9333	0.0	Yes	2.673	0.027	n/a	GoodResponse	1	n/a	n/a	4	14	Cue	Win	True
142.878	4.1	Win2	0.9333	0.0	Yes	2.673	0.001	n/a	GoodResponse	1	n/a	n/a	4	14	Fixation	Win	True
146.973	0.26	Win2	0.9333	0.004	Yes	2.673	-0.004	4.0	GoodResponse	1	0.217	146.19	4	14	Target	Win	True
147.19	0.3	Win2	0.9333	0.004	Yes	2.673	-0.004	4.0	GoodResponse	1	0.217	n/a	4	14	ButtonPress	Win	True
147.241	0.44	Win2	0.9333	n/a	Yes	2.673	n/a	n/a	GoodResponse	1	n/a	n/a	4	14	Blank	Win	True
147.676	1.45	Win2	0.9333	n/a	Yes	2.673	n/a	5.0	GoodResponse	1	0.006	146.682	4	14	Feedback	Win	True
149.13	2.673	Win2	0.9333	n/a	Yes	2.673	n/a	n/a	GoodResponse	1	0.0	n/a	4	14	ISIslide	Win	True
151.821	0.25	Control	0.9375	0.0	Yes	2.979	0.021	n/a	GoodResponse	0	n/a	n/a	4	15	Cue	Neutral	True
152.072	4.0	Control	0.9375	0.0	Yes	2.979	0.001	n/a	GoodResponse	0	n/a	n/a	4	15	Fixation	Neutral	True
156.067	0.25	Control	0.9375	0.004	Yes	2.979	-0.004	4.0	GoodResponse	0	0.191	155.258	4	15	Target	Neutral	True
156.258	0.3	Control	0.9375	0.004	Yes	2.979	-0.004	4.0	GoodResponse	0	0.191	n/a	4	15	ButtonPress	Neutral	True
156.318	0.45	Control	0.9375	n/a	Yes	2.979	n/a	n/a	GoodResponse	0	n/a	n/a	4	15	Blank	Neutral	True
156.769	1.45	Control	0.9375	n/a	Yes	2.979	n/a	5.0	GoodResponse	0	0.034	155.803	4	15	Feedback	Neutral	True
158.224	2.979	Control	0.9375	n/a	Yes	2.979	n/a	n/a	GoodResponse	0	0.0	n/a	4	15	ISIslide	Neutral	True
161.216	0.25	Win2	0.9412	0.0	Yes	2.884	0.016	n/a	GoodResponse	1	n/a	n/a	5	16	Cue	Win	True
161.467	4.0	Win2	0.9412	0.0	Yes	2.884	0.001	n/a	GoodResponse	1	n/a	n/a	5	16	Fixation	Win	True
165.462	0.24	Win2	0.9412	0.004	Yes	2.884	-0.004	4.0	GoodResponse	1	0.197	164.659	5	16	Target	Win	True
165.659	0.3	Win2	0.9412	0.004	Yes	2.884	-0.004	4.0	GoodResponse	1	0.197	n/a	5	16	ButtonPress	Win	True
165.713	0.46	Win2	0.9412	n/a	Yes	2.884	n/a	n/a	GoodResponse	1	n/a	n/a	5	16	Blank	Win	True
166.164	1.45	Win2	0.9412	n/a	Yes	2.884	n/a	5.0	GoodResponse	1	0.006	165.17	5	16	Feedback	Win	True
167.619	2.884	Win2	0.9412	n/a	Yes	2.884	n/a	n/a	GoodResponse	1	0.0	n/a	5	16	ISIslide	Win	True
170.527	0.25	Lose2	0.9444	0.0	Yes	2.723	0.027	n/a	GoodResponse	0	n/a	n/a	5	17	Cue	AvoidedLoss	True
170.778	3.95	Lose2	0.9444	0.0	Yes	2.723	0.001	n/a	GoodResponse	0	n/a	n/a	5	17	Fixation	AvoidedLoss	True
174.723	0.23	Lose2	0.9444	0.004	Yes	2.723	-0.004	4.0	GoodResponse	0	0.208	173.931	5	17	Target	AvoidedLoss	True
174.931	0.3	Lose2	0.9444	0.004	Yes	2.723	-0.004	4.0	GoodResponse	0	0.208	n/a	5	17	ButtonPress	AvoidedLoss	True
174.957	0.47	Lose2	0.9444	n/a	Yes	2.723	n/a	n/a	GoodResponse	0	n/a	n/a	5	17	Blank	AvoidedLoss	True
175.425	1.45	Lose2	0.9444	n/a	Yes	2.723	n/a	5.0	GoodResponse	0	0.013	174.438	5	17	Feedback	AvoidedLoss	True
176.88	2.723	Lose2	0.9444	n/a	Yes	2.723	n/a	n/a	GoodResponse	0	0.0	n/a	5	17	ISIslide	AvoidedLoss	True
179.621	0.25	Lose2	0.9473999999999999	0.0	Yes	2.729	0.021	n/a	GoodResponse	0	n/a	n/a	5	18	Cue	AvoidedLoss	True
179.872	4.05	Lose2	0.9473999999999999	0.0	Yes	2.729	0.001	n/a	GoodResponse	0	n/a	n/a	5	18	Fixation	AvoidedLoss	True
183.917	0.22	Lose2	0.9473999999999999	0.004	Yes	2.729	-0.004	4.0	GoodResponse	0	0.214	183.131	5	18	Target	AvoidedLoss	True
184.131	0.3	Lose2	0.9473999999999999	0.004	Yes	2.729	-0.004	4.0	GoodResponse	0	0.214	n/a	5	18	ButtonPress	AvoidedLoss	True
184.151	0.48	Lose2	0.9473999999999999	n/a	Yes	2.729	n/a	n/a	GoodResponse	0	n/a	n/a	5	18	Blank	AvoidedLoss	True
184.62	1.45	Lose2	0.9473999999999999	n/a	Yes	2.729	n/a	5.0	GoodResponse	0	0.037	183.657	5	18	Feedback	AvoidedLoss	True
186.074	2.729	Lose2	0.9473999999999999	n/a	Yes	2.729	n/a	n/a	GoodResponse	0	0.0	n/a	5	18	ISIslide	AvoidedLoss	True
188.815	0.25	Control	0.9	0.001	No	2.935	0.015	n/a	LatePress	0	n/a	n/a	5	19	Cue	Neutral	True
189.066	3.95	Control	0.9	0.0	No	2.935	0.001	n/a	LatePress	0	n/a	n/a	5	19	Fixation	Neutral	True
193.011	0.21	Control	0.9	0.004	No	2.935	-0.004	4.0	LatePress	0	0.212	192.223	5	19	Target	Neutral	True
193.223	0.3	Control	0.9	0.004	No	2.935	-0.004	4.0	LatePress	0	0.212	n/a	5	19	ButtonPress	Neutral	True
193.229	0.49	Control	0.9	n/a	No	2.935	n/a	n/a	LatePress	0	n/a	n/a	5	19	Blank	Neutral	True
193.713	1.45	Control	0.9	n/a	No	2.935	n/a	5.0	LatePress	0	0.018	192.731	5	19	Feedback	Neutral	True
195.168	2.935	Control	0.9	n/a	No	2.935	n/a	n/a	LatePress	0	0.0	n/a	5	19	ISIslide	Neutral	True
198.127	0.25	Control	0.8571	0.0	No	2.623	0.027	n/a	NoResponse	0	n/a	n/a	5	20	Cue	Neutral	True
198.377	4.05	Control	0.8571	0.001	No	2.623	0.0	n/a	NoResponse	0	n/a	n/a	5	20	Fixation	Neutral	True
202.423	0.2	Control	0.8571	0.004	No	2.623	-0.004	4.0	NoResponse	0	0.211	201.634	5	20	Target	Neutral	True
202.624	0.5	Control	0.8571	n/a	No	2.623	n/a	n/a	NoResponse	0	n/a	n/a	5	20	Blank	Neutral	True
202.634	0.3	Control	0.8571	0.004	No	2.623	-0.004	4.0	NoResponse	0	0.211	n/a	5	20	ButtonPress	Neutral	True
203.125	1.45	Control	0.8571	n/a	No	2.623	n/a	5.0	NoResponse	0	0.019	202.144	5	20	Feedback	Neutral	True
204.579	2.623	Control	0.8571	n/a	No	2.623	n/a	n/a	NoResponse	0	0.0	n/a	5	20	ISIslide	Neutral	True
207.221	0.25	Control	0.8181999999999999	0.0	No	2.779	0.021	n/a	NoResponse	0	n/a	n/a	5	21	Cue	Neutral	True
207.471	4.1	Control	0.8181999999999999	0.0	No	2.779	0.0	n/a	NoResponse	0	n/a	n/a	5	21	Fixation	Neutral	True
211.567	0.19	Control	0.8181999999999999	0.004	No	2.779	-0.004	4.0	NoResponse	0	0.246	210.813	5	21	Target	Neutral	True
211.768	0.51	Control	0.8181999999999999	n/a	No	2.779	n/a	n/a	NoResponse	0	n/a	n/a	5	21	Blank	Neutral	True
211.813	0.3	Control	0.8181999999999999	0.004	No	2.779	-0.004	4.0	NoResponse	0	0.246	n/a	5	21	ButtonPress	Neutral	True
212.269	1.45	Control	0.8181999999999999	n/a	No	2.779	n/a	5.0	NoResponse	0	0.046	211.315	5	21	Feedback	Neutral	True
213.723	2.779	Control	0.8181999999999999	n/a	No	2.779	n/a	n/a	NoResponse	0	0.0	n/a	5	21	ISIslide	Neutral	True
216.515	0.25	Control	0.7826000000000001	0.0	No	2.785	0.015	n/a	NoResponse	0	n/a	n/a	5	22	Cue	Neutral	True
216.766	4.0	Control	0.7826000000000001	0.0	No	2.785	0.001	n/a	NoResponse	0	n/a	n/a	5	22	Fixation	Neutral	True
220.761	0.18	Control	0.7826000000000001	0.004	No	2.785	-0.004	4.0	NoResponse	0	0.22	219.981	5	22	Target	Neutral	True
220.945	0.52	Control	0.7826000000000001	n/a	No	2.785	n/a	n/a	NoResponse	0	n/a	n/a	5	22	Blank	Neutral	True
220.981	0.3	Control	0.7826000000000001	0.004	No	2.785	-0.004	4.0	NoResponse	0	0.22	n/a	5	22	ButtonPress	Neutral	True
221.463	1.45	Control	0.7826000000000001	n/a	No	2.785	n/a	5.0	NoResponse	0	0.023	220.486	5	22	Feedback	Neutral	True
222.918	2.785	Control	0.7826000000000001	n/a	No	2.785	n/a	n/a	NoResponse	0	0.0	n/a	5	22	ISIslide	Neutral	True
225.726	0.25	Control	0.75	0.0	No	2.774	0.026	n/a	NoResponse	0	n/a	n/a	5	23	Cue	Neutral	True
225.977	3.9	Control	0.75	0.0	No	2.774	0.001	n/a	NoResponse	0	n/a	n/a	5	23	Fixation	Neutral	True
229.872	0.17	Control	0.75	0.004	No	2.774	-0.004	4.0	NoResponse	0	0.213	229.085	5	23	Target	Neutral	True
230.056	0.53	Control	0.75	n/a	No	2.774	n/a	n/a	NoResponse	0	n/a	n/a	5	23	Blank	Neutral	True
230.085	0.3	Control	0.75	0.004	No	2.774	-0.004	4.0	NoResponse	0	0.213	n/a	5	23	ButtonPress	Neutral	True
230.574	1.45	Control	0.75	n/a	No	2.774	n/a	5.0	NoResponse	0	0.034	229.608	5	23	Feedback	Neutral	True
232.028	2.774	Control	0.75	n/a	No	2.774	n/a	n/a	NoResponse	0	0.0	n/a	5	23	ISIslide	Neutral	True
234.82	0.25	Win2	0.72	0.0	No	3.13	0.02	n/a	NoResponse	0	n/a	n/a	5	24	Cue	MissedWin	True
235.071	3.95	Win2	0.72	0.0	No	3.13	0.001	n/a	NoResponse	0	n/a	n/a	5	24	Fixation	MissedWin	True
239.016	0.16	Win2	0.72	0.004	No	3.13	-0.004	4.0	NoResponse	0	0.206	238.222	5	24	Target	MissedWin	True
239.183	0.54	Win2	0.72	n/a	No	3.13	n/a	n/a	NoResponse	0	n/a	n/a	5	24	Blank	MissedWin	True
239.222	0.3	Win2	0.72	0.004	No	3.13	-0.004	4.0	NoResponse	0	0.206	n/a	5	24	ButtonPress	MissedWin	True
239.718	1.45	Win2	0.72	n/a	No	3.13	n/a	5.0	NoResponse	0	0.012	238.73	5	24	Feedback	MissedWin	True
241.172	3.13	Win2	0.72	n/a	No	3.13	n/a	n/a	NoResponse	0	0.0	n/a	5	24	ISIslide	MissedWin	True
244.332	0.25	Win2	0.6923	0.0	No	3.068	0.032	n/a	NoResponse	0	n/a	n/a	5	25	Cue	MissedWin	True
244.583	4.0	Win2	0.6923	0.0	No	3.068	0.001	n/a	NoResponse	0	n/a	n/a	5	25	Fixation	MissedWin	True
248.578	0.15	Win2	0.6923	0.004	No	3.068	-0.004	4.0	NoResponse	0	0.189	247.767	5	25	Target	MissedWin	True
248.728	0.55	Win2	0.6923	n/a	No	3.068	n/a	n/a	NoResponse	0	n/a	n/a	5	25	Blank	MissedWin	True
248.767	0.3	Win2	0.6923	0.004	No	3.068	-0.004	4.0	NoResponse	0	0.189	n/a	5	25	ButtonPress	MissedWin	True
249.28	1.45	Win2	0.6923	n/a	No	3.068	n/a	5.0	NoResponse	0	0.011	248.291	5	25	Feedback	MissedWin	True
250.734	3.068	Win2	0.6923	n/a	No	3.068	n/a	n/a	NoResponse	0	0.0	n/a	5	25	ISIslide	MissedWin	True
253.827	0.25	Win2	0.6667000000000001	0.0	No	2.923	0.027	n/a	NoResponse	0	n/a	n/a	5	26	Cue	MissedWin	False
254.078	3.95	Win2	0.6667000000000001	0.0	No	2.923	0.001	4.0	NoResponse	0	2.52	255.598	5	26	Fixation	MissedWin	False
256.598	0.3	Win2	0.6667000000000001	0.0	No	2.923	0.001	4.0	NoResponse	0	2.52	n/a	5	26	ButtonPress	MissedWin	False
258.023	0.15	Win2	0.6667000000000001	0.004	No	2.923	-0.004	4.0	NoResponse	0	0.253	257.276	5	26	Target	MissedWin	False
258.173	0.55	Win2	0.6667000000000001	n/a	No	2.923	n/a	n/a	NoResponse	0	n/a	n/a	5	26	Blank	MissedWin	False
258.276	0.3	Win2	0.6667000000000001	0.004	No	2.923	-0.004	4.0	NoResponse	0	0.253	n/a	5	26	ButtonPress	MissedWin	False
258.725	1.45	Win2	0.6667000000000001	n/a	No	2.923	n/a	5.0	NoResponse	0	0.03	257.755	5	26	Feedback	MissedWin	False
260.179	2.923	Win2	0.6667000000000001	n/a	No	2.923	n/a	n/a	NoResponse	0	0.0	n/a	5	26	ISIslide	MissedWin	False
263.121	0.25	Lose2	0.6429	0.001	No	2.829	0.021	n/a	NoResponse	-1	n/a	n/a	4	27	Cue	Loss	True
263.372	4.05	Lose2	0.6429	0.0	No	2.829	0.001	n/a	NoResponse	-1	n/a	n/a	4	27	Fixation	Loss	True
267.418	0.15	Lose2	0.6429	0.003	No	2.829	-0.003	4.0	NoResponse	-1	0.199	266.617	4	27	Target	Loss	True
267.568	0.55	Lose2	0.6429	n/a	No	2.829	n/a	n/a	NoResponse	-1	n/a	n/a	4	27	Blank	Loss	True
267.617	0.3	Lose2	0.6429	0.003	No	2.829	-0.003	4.0	NoResponse	-1	0.199	n/a	4	27	ButtonPress	Loss	True
268.12	1.45	Lose2	0.6429	n/a	No	2.829	n/a	5.0	NoResponse	-1	0.0	267.12	4	27	Feedback	Loss	True
269.574	2.829	Lose2	0.6429	n/a	No	2.829	n/a	n/a	NoResponse	-1	0.0	n/a	4	27	ISIslide	Loss	True
272.416	0.25	Control	0.6207	0.0	No	2.834	0.016	n/a	NoResponse	0	n/a	n/a	4	28	Cue	Neutral	True
272.667	4.05	Control	0.6207	0.0	No	2.834	0.001	n/a	NoResponse	0	n/a	n/a	4	28	Fixation	Neutral	True
276.712	0.16	Control	0.6207	0.004	No	2.834	-0.004	4.0	NoResponse	0	0.205	275.917	4	28	Target	Neutral	True
276.879	0.54	Control	0.6207	n/a	No	2.834	n/a	n/a	NoResponse	0	n/a	n/a	4	28	Blank	Neutral	True
276.917	0.3	Control	0.6207	0.004	No	2.834	-0.004	4.0	NoResponse	0	0.205	n/a	4	28	ButtonPress	Neutral	True
277.414	1.45	Control	0.6207	n/a	No	2.834	n/a	5.0	NoResponse	0	0.023	276.437	4	28	Feedback	Neutral	True
278.869	2.834	Control	0.6207	n/a	No	2.834	n/a	n/a	NoResponse	0	0.0	n/a	4	28	ISIslide	Neutral	True
281.727	0.25	Lose2	0.6	0.0	No	2.823	0.027	n/a	NoResponse	-1	n/a	n/a	3	29	Cue	Loss	True
281.978	3.95	Lose2	0.6	0.0	No	2.823	0.001	n/a	NoResponse	-1	n/a	n/a	3	29	Fixation	Loss	True
285.923	0.17	Lose2	0.6	0.004	No	2.823	-0.004	4.0	NoResponse	-1	0.192	285.115	3	29	Target	Loss	True
286.107	0.53	Lose2	0.6	n/a	No	2.823	n/a	n/a	NoResponse	-1	n/a	n/a	3	29	Blank	Loss	True
286.115	0.3	Lose2	0.6	0.004	No	2.823	-0.004	4.0	NoResponse	-1	0.192	n/a	3	29	ButtonPress	Loss	True
286.625	1.45	Lose2	0.6	n/a	No	2.823	n/a	5.0	NoResponse	-1	0.031	285.656	3	29	Feedback	Loss	True
288.08	2.823	Lose2	0.6	n/a	No	2.823	n/a	n/a	NoResponse	-1	0.0	n/a	3	29	ISIslide	Loss	True
290.921	0.25	Win2	0.5806	0.001	No	2.779	0.021	n/a	NoResponse	0	n/a	n/a	3	30	Cue	MissedWin	False
291.172	3.9	Win2	0.5806	0.0	No	2.779	0.001	4.0	NoResponse	0	3.579	293.751	3	30	Fixation	MissedWin	False
294.751	0.3	Win2	0.5806	0.0	No	2.779	0.001	4.0	NoResponse	0	3.579	n/a	3	30	ButtonPress	MissedWin	False
295.067	0.18	Win2	0.5806	0.004	No	2.779	-0.004	4.0	NoResponse	0	0.285	294.352	3	30	Target	MissedWin	False
295.251	0.52	Win2	0.5806	n/a	No	2.779	n/a	n/a	NoResponse	0	n/a	n/a	3	30	Blank	MissedWin	False
295.352	0.3	Win2	0.5806	0.004	No	2.779	-0.004	4.0	NoResponse	0	0.285	n/a	3	30	ButtonPress	MissedWin	False
295.769	1.45	Win2	0.5806	n/a	No	2.779	n/a	5.0	NoResponse	0	0.009	294.778	3	30	Feedback	MissedWin	False
297.224	2.779	Win2	0.5806	n/a	No	2.779	n/a	n/a	NoResponse	0	0.0	n/a	3	30	ISIslide	MissedWin	False
300.015	0.25	Lose2	0.5625	0.0	No	2.835	0.015	n/a	NoResponse	-1	n/a	n/a	2	31	Cue	Loss	True
300.266	4.05	Lose2	0.5625	0.0	No	2.835	0.001	n/a	NoResponse	-1	n/a	n/a	2	31	Fixation	Loss	True
304.312	0.19	Lose2	0.5625	0.003	No	2.835	-0.003	4.0	NoResponse	-1	0.245	303.557	2	31	Target	Loss	True
304.512	0.51	Lose2	0.5625	n/a	No	2.835	n/a	n/a	NoResponse	-1	n/a	n/a	2	31	Blank	Loss	True
304.557	0.3	Lose2	0.5625	0.003	No	2.835	-0.003	4.0	NoResponse	-1	0.245	n/a	2	31	ButtonPress	Loss	True
305.014	1.45	Lose2	0.5625	n/a	No	2.835	n/a	5.0	NoResponse	-1	0.033	304.047	2	31	Feedback	Loss	True
306.468	2.835	Lose2	0.5625	n/a	No	2.835	n/a	n/a	NoResponse	-1	0.0	n/a	2	31	ISIslide	Loss	True
309.327	0.25	Lose2	0.5455	0.0	No	2.623	0.027	n/a	NoResponse	-1	n/a	n/a	1	32	Cue	Loss	True
309.577	4.15	Lose2	0.5455	0.0	No	2.623	0.0	n/a	NoResponse	-1	n/a	n/a	1	32	Fixation	Loss	True
313.723	0.2	Lose2	0.5455	0.004	No	2.623	-0.004	4.0	NoResponse	-1	0.23	312.953	1	32	Target	Loss	True
313.924	0.5	Lose2	0.5455	n/a	No	2.623	n/a	n/a	NoResponse	-1	n/a	n/a	1	32	Blank	Loss	True
313.953	0.3	Lose2	0.5455	0.004	No	2.623	-0.004	4.0	NoResponse	-1	0.23	n/a	1	32	ButtonPress	Loss	True
314.425	1.45	Lose2	0.5455	n/a	No	2.623	n/a	5.0	NoResponse	-1	0.037	313.462	1	32	Feedback	Loss	True
315.88	2.623	Lose2	0.5455	n/a	No	2.623	n/a	n/a	NoResponse	-1	0.0	n/a	1	32	ISIslide	Loss	True
318.521	0.25	Win2	0.5588000000000001	0.0	Yes	2.679	0.021	n/a	GoodResponse	1	n/a	n/a	2	33	Cue	Win	True
318.772	4.0	Win2	0.5588000000000001	0.0	Yes	2.679	0.001	n/a	GoodResponse	1	n/a	n/a	2	33	Fixation	Win	True
322.767	0.21	Win2	0.5588000000000001	0.004	Yes	2.679	-0.004	4.0	GoodResponse	1	0.208	321.975	2	33	Target	Win	True
322.975	0.3	Win2	0.5588000000000001	0.004	Yes	2.679	-0.004	4.0	GoodResponse	1	0.208	n/a	2	33	ButtonPress	Win	True
322.984	0.49	Win2	0.5588000000000001	n/a	Yes	2.679	n/a	n/a	GoodResponse	1	n/a	n/a	2	33	Blank	Win	True
323.469	1.45	Win2	0.5588000000000001	n/a	Yes	2.679	n/a	5.0	GoodResponse	1	0.016	322.485	2	33	Feedback	Win	True
324.923	2.679	Win2	0.5588000000000001	n/a	Yes	2.679	n/a	n/a	GoodResponse	1	0.0	n/a	2	33	ISIslide	Win	True
327.631	0.25	Lose2	0.5714	0.001	Yes	2.619	0.031	n/a	GoodResponse	0	n/a	n/a	2	34	Cue	AvoidedLoss	True
327.882	4.05	Lose2	0.5714	0.0	Yes	2.619	0.001	n/a	GoodResponse	0	n/a	n/a	2	34	Fixation	AvoidedLoss	True
331.928	0.22	Lose2	0.5714	0.003	Yes	2.619	-0.003	4.0	GoodResponse	0	0.208	331.136	2	34	Target	AvoidedLoss	True
332.136	0.3	Lose2	0.5714	0.003	Yes	2.619	-0.003	4.0	GoodResponse	0	0.208	n/a	2	34	ButtonPress	AvoidedLoss	True
332.162	0.48	Lose2	0.5714	n/a	Yes	2.619	n/a	n/a	GoodResponse	0	n/a	n/a	2	34	Blank	AvoidedLoss	True
332.63	1.45	Lose2	0.5714	n/a	Yes	2.619	n/a	5.0	GoodResponse	0	0.026	331.656	2	34	Feedback	AvoidedLoss	True
334.084	2.619	Lose2	0.5714	n/a	Yes	2.619	n/a	n/a	GoodResponse	0	0.0	n/a	2	34	ISIslide	AvoidedLoss	True
336.725	0.25	Lose2	0.5556	0.0	No	2.675	0.025	n/a	NoResponse	-1	n/a	n/a	1	35	Cue	Loss	True
336.976	4.0	Lose2	0.5556	0.0	No	2.675	0.001	n/a	NoResponse	-1	n/a	n/a	1	35	Fixation	Loss	True
340.971	0.23	Lose2	0.5556	0.004	No	2.675	-0.004	4.0	NoResponse	-1	0.274	340.245	1	35	Target	Loss	True
341.205	0.47	Lose2	0.5556	n/a	No	2.675	n/a	n/a	NoResponse	-1	n/a	n/a	1	35	Blank	Loss	True
341.245	0.3	Lose2	0.5556	0.004	No	2.675	-0.004	4.0	NoResponse	-1	0.274	n/a	1	35	ButtonPress	Loss	True
341.673	1.45	Lose2	0.5556	n/a	No	2.675	n/a	5.0	NoResponse	-1	0.007	340.68	1	35	Feedback	Loss	True
343.128	2.675	Lose2	0.5556	n/a	No	2.675	n/a	n/a	NoResponse	-1	0.0	n/a	1	35	ISIslide	Loss	True
345.819	0.25	Control	0.5676	0.0	Yes	2.681	0.019	n/a	GoodResponse	0	n/a	n/a	1	36	Cue	Neutral	True
346.07	4.0	Control	0.5676	0.0	Yes	2.681	0.001	n/a	GoodResponse	0	n/a	n/a	1	36	Fixation	Neutral	True
350.065	0.24	Control	0.5676	0.004	Yes	2.681	-0.004	4.0	GoodResponse	0	0.228	349.293	1	36	Target	Neutral	True
350.293	0.3	Control	0.5676	0.004	Yes	2.681	-0.004	4.0	GoodResponse	0	0.228	n/a	1	36	ButtonPress	Neutral	True
350.316	0.46	Control	0.5676	n/a	Yes	2.681	n/a	n/a	GoodResponse	0	n/a	n/a	1	36	Blank	Neutral	True
350.767	1.45	Control	0.5676	n/a	Yes	2.681	n/a	5.0	GoodResponse	0	0.035	349.802	1	36	Feedback	Neutral	True
352.222	2.681	Control	0.5676	n/a	Yes	2.681	n/a	n/a	GoodResponse	0	0.0	n/a	1	36	ISIslide	Neutral	True
354.93	0.25	Win2	0.5789	0.0	Yes	2.87	0.03	n/a	GoodResponse	1	n/a	n/a	2	37	Cue	Win	True
355.181	4.0	Win2	0.5789	0.0	Yes	2.87	0.001	n/a	GoodResponse	1	n/a	n/a	2	37	Fixation	Win	True
359.176	0.25	Win2	0.5789	0.004	Yes	2.87	-0.004	4.0	GoodResponse	1	0.192	358.368	2	37	Target	Win	True
359.368	0.3	Win2	0.5789	0.004	Yes	2.87	-0.004	4.0	GoodResponse	1	0.192	n/a	2	37	ButtonPress	Win	True
359.427	0.45	Win2	0.5789	n/a	Yes	2.87	n/a	n/a	GoodResponse	1	n/a	n/a	2	37	Blank	Win	True
359.878	1.45	Win2	0.5789	n/a	Yes	2.87	n/a	5.0	GoodResponse	1	0.047	358.925	2	37	Feedback	Win	True
361.332	2.87	Win2	0.5789	n/a	Yes	2.87	n/a	n/a	GoodResponse	1	0.0	n/a	2	37	ISIslide	Win	True
364.224	0.25	Lose2	0.5897	0.001	Yes	2.826	0.024	n/a	GoodResponse	0	n/a	n/a	2	38	Cue	AvoidedLoss	True
364.475	3.95	Lose2	0.5897	0.0	Yes	2.826	0.001	n/a	GoodResponse	0	n/a	n/a	2	38	Fixation	AvoidedLoss	True
368.42	0.26	Lose2	0.5897	0.004	Yes	2.826	-0.004	4.0	GoodResponse	0	0.197	367.617	2	38	Target	AvoidedLoss	True
368.617	0.3	Lose2	0.5897	0.004	Yes	2.826	-0.004	4.0	GoodResponse	0	0.197	n/a	2	38	ButtonPress	AvoidedLoss	True
368.688	0.44	Lose2	0.5897	n/a	Yes	2.826	n/a	n/a	GoodResponse	0	n/a	n/a	2	38	Blank	AvoidedLoss	True
369.122	1.45	Lose2	0.5897	n/a	Yes	2.826	n/a	5.0	GoodResponse	0	0.022	368.144	2	38	Feedback	AvoidedLoss	True
370.577	2.826	Lose2	0.5897	n/a	Yes	2.826	n/a	n/a	GoodResponse	0	0.0	n/a	2	38	ISIslide	AvoidedLoss	True
373.419	0.25	Win2	0.6	0.0	Yes	2.981	0.019	n/a	GoodResponse	1	n/a	n/a	3	39	Cue	Win	True
373.669	4.1	Win2	0.6	0.0	Yes	2.981	0.0	n/a	GoodResponse	1	n/a	n/a	3	39	Fixation	Win	True
377.765	0.27	Win2	0.6	0.004	Yes	2.981	-0.004	4.0	GoodResponse	1	0.199	376.964	3	39	Target	Win	True
377.964	0.3	Win2	0.6	0.004	Yes	2.981	-0.004	4.0	GoodResponse	1	0.199	n/a	3	39	ButtonPress	Win	True
378.049	0.43	Win2	0.6	n/a	Yes	2.981	n/a	n/a	GoodResponse	1	n/a	n/a	3	39	Blank	Win	True
378.467	1.45	Win2	0.6	n/a	Yes	2.981	n/a	5.0	GoodResponse	1	0.043	377.51	3	39	Feedback	Win	True
379.921	2.981	Win2	0.6	n/a	Yes	2.981	n/a	n/a	GoodResponse	1	0.0	n/a	3	39	ISIslide	Win	True
382.93	0.25	Win2	0.6098	0.001	Yes	2.72	0.03	n/a	GoodResponse	1	n/a	n/a	4	40	Cue	Win	True
383.181	3.95	Win2	0.6098	0.0	Yes	2.72	0.001	n/a	GoodResponse	1	n/a	n/a	4	40	Fixation	Win	True
387.126	0.28	Win2	0.6098	0.004	Yes	2.72	-0.004	4.0	GoodResponse	1	0.246	386.372	4	40	Target	Win	True
387.372	0.3	Win2	0.6098	0.004	Yes	2.72	-0.004	4.0	GoodResponse	1	0.246	n/a	4	40	ButtonPress	Win	True
387.411	0.42	Win2	0.6098	n/a	Yes	2.72	n/a	n/a	GoodResponse	1	n/a	n/a	4	40	Blank	Win	True
387.828	1.45	Win2	0.6098	n/a	Yes	2.72	n/a	5.0	GoodResponse	1	0.047	386.875	4	40	Feedback	Win	True
389.283	2.72	Win2	0.6098	n/a	Yes	2.72	n/a	n/a	GoodResponse	1	0.0	n/a	4	40	ISIslide	Win	True
392.024	0.25	Win2	0.619	0.0	Yes	2.776	0.024	n/a	GoodResponse	1	n/a	n/a	5	41	Cue	Win	True
392.275	3.9	Win2	0.619	0.0	Yes	2.776	0.001	n/a	GoodResponse	1	n/a	n/a	5	41	Fixation	Win	True
396.17	0.29	Win2	0.619	0.004	Yes	2.776	-0.004	4.0	GoodResponse	1	0.185	395.355	5	41	Target	Win	True
396.355	0.3	Win2	0.619	0.004	Yes	2.776	-0.004	4.0	GoodResponse	1	0.185	n/a	5	41	ButtonPress	Win	True
396.471	0.41	Win2	0.619	n/a	Yes	2.776	n/a	n/a	GoodResponse	1	n/a	n/a	5	41	Blank	Win	True
396.872	1.45	Win2	0.619	n/a	Yes	2.776	n/a	5.0	GoodResponse	1	0.028	395.9	5	41	Feedback	Win	True
398.327	2.776	Win2	0.619	n/a	Yes	2.776	n/a	n/a	GoodResponse	1	0.0	n/a	5	41	ISIslide	Win	True
401.118	0.25	Control	0.6279	0.0	Yes	2.932	0.018	n/a	GoodResponse	0	n/a	n/a	5	42	Cue	Neutral	True
401.369	3.85	Control	0.6279	0.0	Yes	2.932	0.001	n/a	GoodResponse	0	n/a	n/a	5	42	Fixation	Neutral	True
405.214	0.3	Control	0.6279	0.004	Yes	2.932	-0.004	4.0	GoodResponse	0	0.2	404.414	5	42	Target	Neutral	True
405.414	0.3	Control	0.6279	0.004	Yes	2.932	-0.004	4.0	GoodResponse	0	0.2	n/a	5	42	ButtonPress	Neutral	True
405.515	0.4	Control	0.6279	n/a	Yes	2.932	n/a	n/a	GoodResponse	0	n/a	n/a	5	42	Blank	Neutral	True
405.916	1.45	Control	0.6279	n/a	Yes	2.932	n/a	5.0	GoodResponse	0	0.008	404.924	5	42	Feedback	Neutral	True
407.37	2.932	Control	0.6279	n/a	Yes	2.932	n/a	n/a	GoodResponse	0	0.0	n/a	5	42	ISIslide	Neutral	True
410.329	0.25	Win2	0.6364	0.0	Yes	3.171	0.029	n/a	GoodResponse	1	n/a	n/a	6	43	Cue	Win	True
410.58	4.0	Win2	0.6364	0.0	Yes	3.171	0.001	n/a	GoodResponse	1	n/a	n/a	6	43	Fixation	Win	True
414.575	0.31	Win2	0.6364	0.004	Yes	3.171	-0.004	4.0	GoodResponse	1	0.186	413.761	6	43	Target	Win	True
414.761	0.3	Win2	0.6364	0.004	Yes	3.171	-0.004	4.0	GoodResponse	1	0.186	n/a	6	43	ButtonPress	Win	True
414.893	0.39	Win2	0.6364	n/a	Yes	3.171	n/a	n/a	GoodResponse	1	n/a	n/a	6	43	Blank	Win	True
415.277	1.45	Win2	0.6364	n/a	Yes	3.171	n/a	5.0	GoodResponse	1	0.013	414.29	6	43	Feedback	Win	True
416.732	3.171	Win2	0.6364	n/a	Yes	3.171	n/a	n/a	GoodResponse	1	0.0	n/a	6	43	ISIslide	Win	True
419.925	0.25	Win2	0.6444	0.0	Yes	2.975	0.025	n/a	GoodResponse	1	n/a	n/a	7	44	Cue	Win	True
420.175	4.0	Win2	0.6444	0.0	Yes	2.975	0.0	n/a	GoodResponse	1	n/a	n/a	7	44	Fixation	Win	True
424.171	0.32	Win2	0.6444	0.004	Yes	2.975	-0.004	4.0	GoodResponse	1	0.2	423.371	7	44	Target	Win	True
424.371	0.3	Win2	0.6444	0.004	Yes	2.975	-0.004	4.0	GoodResponse	1	0.2	n/a	7	44	ButtonPress	Win	True
424.505	0.38	Win2	0.6444	n/a	Yes	2.975	n/a	n/a	GoodResponse	1	n/a	n/a	7	44	Blank	Win	True
424.873	1.45	Win2	0.6444	n/a	Yes	2.975	n/a	5.0	GoodResponse	1	0.027	423.9	7	44	Feedback	Win	True
426.327	2.975	Win2	0.6444	n/a	Yes	2.975	n/a	n/a	GoodResponse	1	0.0	n/a	7	44	ISIslide	Win	True
429.319	0.25	Control	0.6522	0.001	Yes	2.881	0.019	n/a	GoodResponse	0	n/a	n/a	7	45	Cue	Neutral	True
429.57	4.1	Control	0.6522	0.0	Yes	2.881	0.001	n/a	GoodResponse	0	n/a	n/a	7	45	Fixation	Neutral	True
433.666	0.33	Control	0.6522	0.003	Yes	2.881	-0.003	4.0	GoodResponse	0	0.204	432.87	7	45	Target	Neutral	True
433.87	0.3	Control	0.6522	0.003	Yes	2.881	-0.003	4.0	GoodResponse	0	0.204	n/a	7	45	ButtonPress	Neutral	True
434	0.37	Control	0.6522	n/a	Yes	2.881	n/a	n/a	GoodResponse	0	n/a	n/a	7	45	Blank	Neutral	True
434.368	1.45	Control	0.6522	n/a	Yes	2.881	n/a	5.0	GoodResponse	0	0.044	433.412	7	45	Feedback	Neutral	True
435.822	2.881	Control	0.6522	n/a	Yes	2.881	n/a	n/a	GoodResponse	0	0.0	n/a	7	45	ISIslide	Neutral	True
438.731	0.25	Lose2	0.6596	0.0	Yes	3.369	0.031	n/a	GoodResponse	0	n/a	n/a	7	46	Cue	AvoidedLoss	True
438.982	4.0	Lose2	0.6596	0.0	Yes	3.369	0.001	n/a	GoodResponse	0	n/a	n/a	7	46	Fixation	AvoidedLoss	True
442.977	0.34	Lose2	0.6596	0.004	Yes	3.369	-0.004	4.0	GoodResponse	0	0.198	442.175	7	46	Target	AvoidedLoss	True
443.175	0.3	Lose2	0.6596	0.004	Yes	3.369	-0.004	4.0	GoodResponse	0	0.198	n/a	7	46	ButtonPress	AvoidedLoss	True
443.328	0.36	Lose2	0.6596	n/a	Yes	3.369	n/a	n/a	GoodResponse	0	n/a	n/a	7	46	Blank	AvoidedLoss	True
443.679	1.45	Lose2	0.6596	n/a	Yes	3.369	n/a	5.0	GoodResponse	0	0.001	442.68	7	46	Feedback	AvoidedLoss	True
445.133	3.369	Lose2	0.6596	n/a	Yes	3.369	n/a	n/a	GoodResponse	0	0.0	n/a	7	46	ISIslide	AvoidedLoss	True
448.527	0.25	Lose2	0.6457999999999999	0.0	No	2.673	0.027	n/a	NoResponse	-1	n/a	n/a	6	47	Cue	Loss	False
448.778	4.0	Lose2	0.6457999999999999	0.0	No	2.673	0.001	4.0	NoResponse	-1	3.493	451.271	6	47	Fixation	Loss	False
452.271	0.3	Lose2	0.6457999999999999	0.0	No	2.673	0.001	4.0	NoResponse	-1	3.493	n/a	6	47	ButtonPress	Loss	False
452.773	0.34	Lose2	0.6457999999999999	0.004	No	2.673	-0.004	4.0	NoResponse	-1	0.433	452.206	6	47	Target	Loss	False
453.124	0.36	Lose2	0.6457999999999999	n/a	No	2.673	n/a	n/a	NoResponse	-1	n/a	n/a	6	47	Blank	Loss	False
453.206	0.3	Lose2	0.6457999999999999	0.004	No	2.673	-0.004	4.0	NoResponse	-1	0.433	n/a	6	47	ButtonPress	Loss	False
453.475	1.45	Lose2	0.6457999999999999	n/a	No	2.673	n/a	5.0	NoResponse	-1	0.01	452.485	6	47	Feedback	Loss	False
454.93	2.673	Lose2	0.6457999999999999	n/a	No	2.673	n/a	n/a	NoResponse	-1	0.0	n/a	6	47	ISIslide	Loss	False
457.621	0.25	Lose2	0.6531	0.0	Yes	3.029	0.021	n/a	GoodResponse	0	n/a	n/a	6	48	Cue	AvoidedLoss	True
457.872	3.95	Lose2	0.6531	0.0	Yes	3.029	0.001	n/a	GoodResponse	0	n/a	n/a	6	48	Fixation	AvoidedLoss	True
461.817	0.35	Lose2	0.6531	0.004	Yes	3.029	-0.004	4.0	GoodResponse	0	0.263	461.08	6	48	Target	AvoidedLoss	True
462.08	0.3	Lose2	0.6531	0.004	Yes	3.029	-0.004	4.0	GoodResponse	0	0.263	n/a	6	48	ButtonPress	AvoidedLoss	True
462.168	0.35	Lose2	0.6531	n/a	Yes	3.029	n/a	n/a	GoodResponse	0	n/a	n/a	6	48	Blank	AvoidedLoss	True
462.519	1.45	Lose2	0.6531	n/a	Yes	3.029	n/a	5.0	GoodResponse	0	0.039	461.558	6	48	Feedback	AvoidedLoss	True
463.973	3.029	Lose2	0.6531	n/a	Yes	3.029	n/a	n/a	GoodResponse	0	0.0	n/a	6	48	ISIslide	AvoidedLoss	True
467.016	0.25	Control	0.66	0.0	Yes	2.884	0.016	n/a	GoodResponse	0	n/a	n/a	6	49	Cue	Neutral	True
467.266	4.0	Control	0.66	0.001	Yes	2.884	0.0	n/a	GoodResponse	0	n/a	n/a	6	49	Fixation	Neutral	True
471.262	0.36	Control	0.66	0.004	Yes	2.884	-0.004	4.0	GoodResponse	0	0.263	470.525	6	49	Target	Neutral	True
471.525	0.3	Control	0.66	0.004	Yes	2.884	-0.004	4.0	GoodResponse	0	0.263	n/a	6	49	ButtonPress	Neutral	True
471.63	0.34	Control	0.66	n/a	Yes	2.884	n/a	n/a	GoodResponse	0	n/a	n/a	6	49	Blank	Neutral	True
471.964	1.45	Control	0.66	n/a	Yes	2.884	n/a	5.0	GoodResponse	0	0.009	470.973	6	49	Feedback	Neutral	True
473.418	2.884	Control	0.66	n/a	Yes	2.884	n/a	n/a	GoodResponse	0	0.0	n/a	6	49	ISIslide	Neutral	True
476.327	0.25	Control	0.6667000000000001	0.0	Yes	2.773	0.027	n/a	GoodResponse	0	n/a	n/a	6	50	Cue	Neutral	True
476.578	4.0	Control	0.6667000000000001	0.0	Yes	2.773	0.001	n/a	GoodResponse	0	n/a	n/a	6	50	Fixation	Neutral	True
480.573	0.36	Control	0.6667000000000001	0.004	Yes	2.773	-0.004	4.0	GoodResponse	0	0.331	479.904	6	50	Target	Neutral	True
480.904	0.3	Control	0.6667000000000001	0.004	Yes	2.773	-0.004	4.0	GoodResponse	0	0.331	n/a	6	50	ButtonPress	Neutral	True
480.941	0.34	Control	0.6667000000000001	n/a	Yes	2.773	n/a	n/a	GoodResponse	0	n/a	n/a	6	50	Blank	Neutral	True
481.275	1.45	Control	0.6667000000000001	n/a	Yes	2.773	n/a	5.0	GoodResponse	0	0.015	480.29	6	50	Feedback	Neutral	True
482.729	2.773	Control	0.6667000000000001	n/a	Yes	2.773	n/a	n/a	GoodResponse	0	0.0	n/a	6	50	ISIslide	Neutral	True
485.521	0.25	Control	0.6731	0.0	Yes	2.729	0.021	n/a	GoodResponse	0	n/a	n/a	6	51	Cue	Neutral	True
485.772	3.95	Control	0.6731	0.0	Yes	2.729	0.001	n/a	GoodResponse	0	n/a	n/a	6	51	Fixation	Neutral	True
489.717	0.35	Control	0.6731	0.004	Yes	2.729	-0.004	4.0	GoodResponse	0	0.306	489.023	6	51	Target	Neutral	True
490.023	0.3	Control	0.6731	0.004	Yes	2.729	-0.004	4.0	GoodResponse	0	0.306	n/a	6	51	ButtonPress	Neutral	True
490.068	0.35	Control	0.6731	n/a	Yes	2.729	n/a	n/a	GoodResponse	0	n/a	n/a	6	51	Blank	Neutral	True
490.419	1.45	Control	0.6731	n/a	Yes	2.729	n/a	5.0	GoodResponse	0	0.042	489.461	6	51	Feedback	Neutral	True
491.874	2.729	Control	0.6731	n/a	Yes	2.729	n/a	n/a	GoodResponse	0	0.0	n/a	6	51	ISIslide	Neutral	True
494.615	0.25	Control	0.6792	0.0	Yes	2.635	0.015	n/a	GoodResponse	0	n/a	n/a	6	52	Cue	Neutral	True
494.866	4.05	Control	0.6792	0.0	Yes	2.635	0.001	n/a	GoodResponse	0	n/a	n/a	6	52	Fixation	Neutral	True
498.911	0.34	Control	0.6792	0.004	Yes	2.635	-0.004	4.0	GoodResponse	0	0.268	498.179	6	52	Target	Neutral	True
499.179	0.3	Control	0.6792	0.004	Yes	2.635	-0.004	4.0	GoodResponse	0	0.268	n/a	6	52	ButtonPress	Neutral	True
499.262	0.36	Control	0.6792	n/a	Yes	2.635	n/a	n/a	GoodResponse	0	n/a	n/a	6	52	Blank	Neutral	True
499.613	1.45	Control	0.6792	n/a	Yes	2.635	n/a	5.0	GoodResponse	0	0.018	498.631	6	52	Feedback	Neutral	True
501.068	2.635	Control	0.6792	n/a	Yes	2.635	n/a	n/a	GoodResponse	0	0.0	n/a	6	52	ISIslide	Neutral	True
503.726	0.25	Win2	0.6851999999999999	0.0	Yes	2.924	0.026	n/a	GoodResponse	1	n/a	n/a	7	53	Cue	Win	True
503.976	4.05	Win2	0.6851999999999999	0.001	Yes	2.924	0.0	n/a	GoodResponse	1	n/a	n/a	7	53	Fixation	Win	True
508.022	0.33	Win2	0.6851999999999999	0.004	Yes	2.924	-0.004	4.0	GoodResponse	1	0.212	507.234	7	53	Target	Win	True
508.234	0.3	Win2	0.6851999999999999	0.004	Yes	2.924	-0.004	4.0	GoodResponse	1	0.212	n/a	7	53	ButtonPress	Win	True
508.356	0.37	Win2	0.6851999999999999	n/a	Yes	2.924	n/a	n/a	GoodResponse	1	n/a	n/a	7	53	Blank	Win	True
508.724	1.45	Win2	0.6851999999999999	n/a	Yes	2.924	n/a	5.0	GoodResponse	1	0.028	507.752	7	53	Feedback	Win	True
510.178	2.924	Win2	0.6851999999999999	n/a	Yes	2.924	n/a	n/a	GoodResponse	1	0.0	n/a	7	53	ISIslide	Win	True
513.121	0.25	Win2	0.6909000000000001	0.0	Yes	2.729	0.021	n/a	GoodResponse	1	n/a	n/a	8	54	Cue	Win	True
513.371	3.95	Win2	0.6909000000000001	0.0	Yes	2.729	0.0	n/a	GoodResponse	1	n/a	n/a	8	54	Fixation	Win	True
517.316	0.32	Win2	0.6909000000000001	0.005	Yes	2.729	-0.005	4.0	GoodResponse	1	0.206	516.522	8	54	Target	Win	True
517.522	0.3	Win2	0.6909000000000001	0.005	Yes	2.729	-0.005	4.0	GoodResponse	1	0.206	n/a	8	54	ButtonPress	Win	True
517.651	0.38	Win2	0.6909000000000001	n/a	Yes	2.729	n/a	n/a	GoodResponse	1	n/a	n/a	8	54	Blank	Win	True
518.019	1.45	Win2	0.6909000000000001	n/a	Yes	2.729	n/a	5.0	GoodResponse	1	0.007	517.026	8	54	Feedback	Win	True
519.473	2.729	Win2	0.6909000000000001	n/a	Yes	2.729	n/a	n/a	GoodResponse	1	0.0	n/a	8	54	ISIslide	Win	True
522.214	0.25	Control	0.6964	0.001	Yes	3.036	0.014	n/a	GoodResponse	0	n/a	n/a	8	55	Cue	Neutral	True
522.465	3.95	Control	0.6964	0.0	Yes	3.036	0.001	n/a	GoodResponse	0	n/a	n/a	8	55	Fixation	Neutral	True
526.41	0.31	Control	0.6964	0.004	Yes	3.036	-0.004	4.0	GoodResponse	0	0.264	525.674	8	55	Target	Neutral	True
526.674	0.3	Control	0.6964	0.004	Yes	3.036	-0.004	4.0	GoodResponse	0	0.264	n/a	8	55	ButtonPress	Neutral	True
526.728	0.39	Control	0.6964	n/a	Yes	3.036	n/a	n/a	GoodResponse	0	n/a	n/a	8	55	Blank	Neutral	True
527.112	1.45	Control	0.6964	n/a	Yes	3.036	n/a	5.0	GoodResponse	0	0.031	526.143	8	55	Feedback	Neutral	True
528.567	3.036	Control	0.6964	n/a	Yes	3.036	n/a	n/a	GoodResponse	0	0.0	n/a	8	55	ISIslide	Neutral	True
531.626	0.25	Control	0.7018000000000001	0.0	Yes	2.824	0.026	n/a	GoodResponse	0	n/a	n/a	8	56	Cue	Neutral	True
531.877	3.95	Control	0.7018000000000001	0.0	Yes	2.824	0.001	n/a	GoodResponse	0	n/a	n/a	8	56	Fixation	Neutral	True
535.822	0.3	Control	0.7018000000000001	0.004	Yes	2.824	-0.004	4.0	GoodResponse	0	0.196	535.018	8	56	Target	Neutral	True
536.018	0.3	Control	0.7018000000000001	0.004	Yes	2.824	-0.004	4.0	GoodResponse	0	0.196	n/a	8	56	ButtonPress	Neutral	True
536.123	0.4	Control	0.7018000000000001	n/a	Yes	2.824	n/a	n/a	GoodResponse	0	n/a	n/a	8	56	Blank	Neutral	True
536.524	1.45	Control	0.7018000000000001	n/a	Yes	2.824	n/a	5.0	GoodResponse	0	0.034	535.558	8	56	Feedback	Neutral	True
537.978	2.824	Control	0.7018000000000001	n/a	Yes	2.824	n/a	n/a	GoodResponse	0	0.0	n/a	8	56	ISIslide	Neutral	True
540.82	0.25	Control	0.7069	0.0	Yes	3.48	0.02	n/a	GoodResponse	0	n/a	n/a	8	57	Cue	Neutral	True
541.071	4.0	Control	0.7069	0.0	Yes	3.48	0.001	n/a	GoodResponse	0	n/a	n/a	8	57	Fixation	Neutral	True
545.066	0.29	Control	0.7069	0.004	Yes	3.48	-0.004	4.0	GoodResponse	0	0.245	544.311	8	57	Target	Neutral	True
545.311	0.3	Control	0.7069	0.004	Yes	3.48	-0.004	4.0	GoodResponse	0	0.245	n/a	8	57	ButtonPress	Neutral	True
545.367	0.41	Control	0.7069	n/a	Yes	3.48	n/a	n/a	GoodResponse	0	n/a	n/a	8	57	Blank	Neutral	True
545.768	1.45	Control	0.7069	n/a	Yes	3.48	n/a	5.0	GoodResponse	0	0.009	544.777	8	57	Feedback	Neutral	True
547.223	3.48	Control	0.7069	n/a	Yes	3.48	n/a	n/a	GoodResponse	0	0.0	n/a	8	57	ISIslide	Neutral	True
550.717	0.25	Win2	0.7119	0.0	Yes	2.733	0.017	n/a	GoodResponse	1	n/a	n/a	9	58	Cue	Win	True
550.967	4.05	Win2	0.7119	0.0	Yes	2.733	0.0	n/a	GoodResponse	1	n/a	n/a	9	58	Fixation	Win	True
555.013	0.28	Win2	0.7119	0.004	Yes	2.733	-0.004	4.0	GoodResponse	1	0.229	554.242	9	58	Target	Win	True
555.242	0.3	Win2	0.7119	0.004	Yes	2.733	-0.004	4.0	GoodResponse	1	0.229	n/a	9	58	ButtonPress	Win	True
555.297	0.42	Win2	0.7119	n/a	Yes	2.733	n/a	n/a	GoodResponse	1	n/a	n/a	9	58	Blank	Win	True
555.715	1.45	Win2	0.7119	n/a	Yes	2.733	n/a	5.0	GoodResponse	1	0.014	554.729	9	58	Feedback	Win	True
557.169	2.733	Win2	0.7119	n/a	Yes	2.733	n/a	n/a	GoodResponse	1	0.0	n/a	9	58	ISIslide	Win	True
559.927	0.25	Lose2	0.7167	0.001	Yes	2.673	0.027	n/a	GoodResponse	0	n/a	n/a	9	59	Cue	AvoidedLoss	True
560.178	4.0	Lose2	0.7167	0.0	Yes	2.673	0.001	n/a	GoodResponse	0	n/a	n/a	9	59	Fixation	AvoidedLoss	True
564.174	0.27	Lose2	0.7167	0.003	Yes	2.673	-0.003	4.0	GoodResponse	0	0.224	563.398	9	59	Target	AvoidedLoss	True
564.398	0.3	Lose2	0.7167	0.003	Yes	2.673	-0.003	4.0	GoodResponse	0	0.224	n/a	9	59	ButtonPress	AvoidedLoss	True
564.458	0.43	Lose2	0.7167	n/a	Yes	2.673	n/a	n/a	GoodResponse	0	n/a	n/a	9	59	Blank	AvoidedLoss	True
564.876	1.45	Lose2	0.7167	n/a	Yes	2.673	n/a	5.0	GoodResponse	0	0.022	563.898	9	59	Feedback	AvoidedLoss	True
566.33	2.673	Lose2	0.7167	n/a	Yes	2.673	n/a	n/a	GoodResponse	0	0.0	n/a	9	59	ISIslide	AvoidedLoss	True
569.021	0.25	Control	0.7212999999999999	0.0	Yes	2.679	0.021	n/a	GoodResponse	0	n/a	n/a	9	60	Cue	Neutral	True
569.272	4.0	Control	0.7212999999999999	0.0	Yes	2.679	0.001	n/a	GoodResponse	0	n/a	n/a	9	60	Fixation	Neutral	True
573.267	0.26	Control	0.7212999999999999	0.004	Yes	2.679	-0.004	4.0	GoodResponse	0	0.248	572.515	9	60	Target	Neutral	True
573.515	0.3	Control	0.7212999999999999	0.004	Yes	2.679	-0.004	4.0	GoodResponse	0	0.248	n/a	9	60	ButtonPress	Neutral	True
573.535	0.44	Control	0.7212999999999999	n/a	Yes	2.679	n/a	n/a	GoodResponse	0	n/a	n/a	9	60	Blank	Neutral	True
573.97	1.45	Control	0.7212999999999999	n/a	Yes	2.679	n/a	5.0	GoodResponse	0	0.005	572.975	9	60	Feedback	Neutral	True
575.424	2.679	Control	0.7212999999999999	n/a	Yes	2.679	n/a	n/a	GoodResponse	0	0.0	n/a	9	60	ISIslide	Neutral	True
578.115	0.25	Lose2	0.7258	0.0	Yes	2.985	0.015	n/a	GoodResponse	0	n/a	n/a	9	61	Cue	AvoidedLoss	True
578.366	4.0	Lose2	0.7258	0.0	Yes	2.985	0.001	n/a	GoodResponse	0	n/a	n/a	9	61	Fixation	AvoidedLoss	True
582.361	0.25	Lose2	0.7258	0.004	Yes	2.985	-0.004	4.0	GoodResponse	0	0.197	581.558	9	61	Target	AvoidedLoss	True
582.558	0.3	Lose2	0.7258	0.004	Yes	2.985	-0.004	4.0	GoodResponse	0	0.197	n/a	9	61	ButtonPress	AvoidedLoss	True
582.612	0.45	Lose2	0.7258	n/a	Yes	2.985	n/a	n/a	GoodResponse	0	n/a	n/a	9	61	Blank	AvoidedLoss	True
583.063	1.45	Lose2	0.7258	n/a	Yes	2.985	n/a	5.0	GoodResponse	0	0.031	582.094	9	61	Feedback	AvoidedLoss	True
584.518	2.985	Lose2	0.7258	n/a	Yes	2.985	n/a	n/a	GoodResponse	0	0.0	n/a	9	61	ISIslide	AvoidedLoss	True
587.527	0.25	Lose2	0.7302	0.0	Yes	2.873	0.027	n/a	GoodResponse	0	n/a	n/a	9	62	Cue	AvoidedLoss	True
587.778	3.9	Lose2	0.7302	0.0	Yes	2.873	0.001	n/a	GoodResponse	0	n/a	n/a	9	62	Fixation	AvoidedLoss	True
591.673	0.24	Lose2	0.7302	0.004	Yes	2.873	-0.004	4.0	GoodResponse	0	0.215	590.888	9	62	Target	AvoidedLoss	True
591.888	0.3	Lose2	0.7302	0.004	Yes	2.873	-0.004	4.0	GoodResponse	0	0.215	n/a	9	62	ButtonPress	AvoidedLoss	True
591.923	0.46	Lose2	0.7302	n/a	Yes	2.873	n/a	n/a	GoodResponse	0	n/a	n/a	9	62	Blank	AvoidedLoss	True
592.375	1.45	Lose2	0.7302	n/a	Yes	2.873	n/a	5.0	GoodResponse	0	0.036	591.411	9	62	Feedback	AvoidedLoss	True
593.829	2.873	Lose2	0.7302	n/a	Yes	2.873	n/a	n/a	GoodResponse	0	0.0	n/a	9	62	ISIslide	AvoidedLoss	True
596.721	0.25	Lose2	0.7343999999999999	0.0	Yes	2.629	0.021	n/a	GoodResponse	0	n/a	n/a	9	63	Cue	AvoidedLoss	True
596.972	4.05	Lose2	0.7343999999999999	0.0	Yes	2.629	0.001	n/a	GoodResponse	0	n/a	n/a	9	63	Fixation	AvoidedLoss	True
601.017	0.23	Lose2	0.7343999999999999	0.004	Yes	2.629	-0.004	4.0	GoodResponse	0	0.212	600.229	9	63	Target	AvoidedLoss	True
601.229	0.3	Lose2	0.7343999999999999	0.004	Yes	2.629	-0.004	4.0	GoodResponse	0	0.212	n/a	9	63	ButtonPress	AvoidedLoss	True
601.251	0.47	Lose2	0.7343999999999999	n/a	Yes	2.629	n/a	n/a	GoodResponse	0	n/a	n/a	9	63	Blank	AvoidedLoss	True
601.719	1.45	Lose2	0.7343999999999999	n/a	Yes	2.629	n/a	5.0	GoodResponse	0	0.009	600.728	9	63	Feedback	AvoidedLoss	True
603.174	2.629	Lose2	0.7343999999999999	n/a	Yes	2.629	n/a	n/a	GoodResponse	0	0.0	n/a	9	63	ISIslide	AvoidedLoss	True
605.815	0.25	Win2	0.7384999999999999	0.0	Yes	3.135	0.015	n/a	GoodResponse	1	n/a	n/a	10	64	Cue	Win	True
606.066	4.15	Win2	0.7384999999999999	0.0	Yes	3.135	0.001	n/a	GoodResponse	1	n/a	n/a	10	64	Fixation	Win	True
610.211	0.22	Win2	0.7384999999999999	0.004	Yes	3.135	-0.004	4.0	GoodResponse	1	0.209	609.42	10	64	Target	Win	True
610.42	0.3	Win2	0.7384999999999999	0.004	Yes	3.135	-0.004	4.0	GoodResponse	1	0.209	n/a	10	64	ButtonPress	Win	True
610.445	0.48	Win2	0.7384999999999999	n/a	Yes	3.135	n/a	n/a	GoodResponse	1	n/a	n/a	10	64	Blank	Win	True
610.914	1.45	Win2	0.7384999999999999	n/a	Yes	3.135	n/a	5.0	GoodResponse	1	0.034	609.948	10	64	Feedback	Win	True
612.368	3.135	Win2	0.7384999999999999	n/a	Yes	3.135	n/a	n/a	GoodResponse	1	0.0	n/a	10	64	ISIslide	Win	True
615.527	0.25	Control	0.7273000000000001	0.0	No	2.773	0.027	n/a	NoResponse	0	n/a	n/a	10	65	Cue	Neutral	True
615.778	4.0	Control	0.7273000000000001	0.0	No	2.773	0.001	n/a	NoResponse	0	n/a	n/a	10	65	Fixation	Neutral	True
619.773	0.21	Control	0.7273000000000001	0.004	No	2.773	-0.004	4.0	NoResponse	0	0.226	618.999	10	65	Target	Neutral	True
619.991	0.49	Control	0.7273000000000001	n/a	No	2.773	n/a	n/a	NoResponse	0	n/a	n/a	10	65	Blank	Neutral	True
619.999	0.3	Control	0.7273000000000001	0.004	No	2.773	-0.004	4.0	NoResponse	0	0.226	n/a	10	65	ButtonPress	Neutral	True
620.476	1.45	Control	0.7273000000000001	n/a	No	2.773	n/a	5.0	NoResponse	0	0.032	619.508	10	65	Feedback	Neutral	True
621.93	2.773	Control	0.7273000000000001	n/a	No	2.773	n/a	n/a	NoResponse	0	0.0	n/a	10	65	ISIslide	Neutral	True
624.722	0.25	Win2	0.7164	0.0	No	2.778	0.022	n/a	NoResponse	0	n/a	n/a	10	66	Cue	MissedWin	True
624.972	3.9	Win2	0.7164	0.0	No	2.778	0.0	n/a	NoResponse	0	n/a	n/a	10	66	Fixation	MissedWin	True
628.884	0.2	Win2	0.7164	0.0	No	2.778	0.012	4.0	NoResponse	0	0.223	628.107	10	66	Target	MissedWin	True
629.068	0.5	Win2	0.7164	n/a	No	2.778	n/a	n/a	NoResponse	0	n/a	n/a	10	66	Blank	MissedWin	True
629.107	0.3	Win2	0.7164	0.0	No	2.778	0.012	4.0	NoResponse	0	0.223	n/a	10	66	ButtonPress	MissedWin	True
629.569	1.45	Win2	0.7164	n/a	No	2.778	n/a	5.0	NoResponse	0	0.012	628.581	10	66	Feedback	MissedWin	True
631.024	2.778	Win2	0.7164	n/a	No	2.778	n/a	n/a	NoResponse	0	0.0	n/a	10	66	ISIslide	MissedWin	True
633.816	0.25	Control	0.7059000000000001	0.0	No	2.734	0.016	n/a	NoResponse	0	n/a	n/a	10	67	Cue	Neutral	True
634.066	3.95	Control	0.7059000000000001	0.0	No	2.734	0.0	n/a	NoResponse	0	n/a	n/a	10	67	Fixation	Neutral	True
638.028	0.19	Control	0.7059000000000001	0.0	No	2.734	0.012	4.0	NoResponse	0	0.21	637.238	10	67	Target	Neutral	True
638.212	0.51	Control	0.7059000000000001	n/a	No	2.734	n/a	n/a	NoResponse	0	n/a	n/a	10	67	Blank	Neutral	True
638.238	0.3	Control	0.7059000000000001	0.0	No	2.734	0.012	4.0	NoResponse	0	0.21	n/a	10	67	ButtonPress	Neutral	True
638.714	1.45	Control	0.7059000000000001	n/a	No	2.734	n/a	5.0	NoResponse	0	0.038	637.752	10	67	Feedback	Neutral	True
640.168	2.734	Control	0.7059000000000001	n/a	No	2.734	n/a	n/a	NoResponse	0	0.0	n/a	10	67	ISIslide	Neutral	True
642.926	0.25	Win2	0.6957	0.0	No	3.074	0.026	n/a	NoResponse	0	n/a	n/a	10	68	Cue	MissedWin	True
643.177	4.0	Win2	0.6957	0.0	No	3.074	0.001	n/a	NoResponse	0	n/a	n/a	10	68	Fixation	MissedWin	True
647.172	0.18	Win2	0.6957	0.004	No	3.074	-0.004	4.0	NoResponse	0	0.207	646.379	10	68	Target	MissedWin	True
647.356	0.52	Win2	0.6957	n/a	No	3.074	n/a	n/a	NoResponse	0	n/a	n/a	10	68	Blank	MissedWin	True
647.379	0.3	Win2	0.6957	0.004	No	3.074	-0.004	4.0	NoResponse	0	0.207	n/a	10	68	ButtonPress	MissedWin	True
647.874	1.45	Win2	0.6957	n/a	No	3.074	n/a	5.0	NoResponse	0	0.049	646.923	10	68	Feedback	MissedWin	True
649.329	3.074	Win2	0.6957	n/a	No	3.074	n/a	n/a	NoResponse	0	0.0	n/a	10	68	ISIslide	MissedWin	True
652.421	0.25	Win2	0.6857	0.0	No	3.229	0.021	n/a	NoResponse	0	n/a	n/a	10	69	Cue	MissedWin	True
652.672	3.95	Win2	0.6857	0.0	No	3.229	0.001	n/a	NoResponse	0	n/a	n/a	10	69	Fixation	MissedWin	True
656.617	0.17	Win2	0.6857	0.004	No	3.229	-0.004	4.0	NoResponse	0	0.279	655.896	10	69	Target	MissedWin	True
656.801	0.53	Win2	0.6857	n/a	No	3.229	n/a	n/a	NoResponse	0	n/a	n/a	10	69	Blank	MissedWin	True
656.896	0.3	Win2	0.6857	0.004	No	3.229	-0.004	4.0	NoResponse	0	0.279	n/a	10	69	ButtonPress	MissedWin	True
657.319	1.45	Win2	0.6857	n/a	No	3.229	n/a	5.0	NoResponse	0	0.018	656.337	10	69	Feedback	MissedWin	True
658.774	3.229	Win2	0.6857	n/a	No	3.229	n/a	n/a	NoResponse	0	0.0	n/a	10	69	ISIslide	MissedWin	True
662.017	0.25	Lose2	0.6761	0.0	No	3.033	0.017	n/a	NoResponse	-1	n/a	n/a	9	70	Cue	Loss	True
662.267	4.05	Lose2	0.6761	0.001	No	3.033	0.0	n/a	NoResponse	-1	n/a	n/a	9	70	Fixation	Loss	True
666.313	0.16	Lose2	0.6761	0.004	No	3.033	-0.004	4.0	NoResponse	-1	0.196	665.509	9	70	Target	Loss	True
666.48	0.54	Lose2	0.6761	n/a	No	3.033	n/a	n/a	NoResponse	-1	n/a	n/a	9	70	Blank	Loss	True
666.509	0.3	Lose2	0.6761	0.004	No	3.033	-0.004	4.0	NoResponse	-1	0.196	n/a	9	70	ButtonPress	Loss	True
667.015	1.45	Lose2	0.6761	n/a	No	3.033	n/a	5.0	NoResponse	-1	0.03	666.045	9	70	Feedback	Loss	True
668.469	3.033	Lose2	0.6761	n/a	No	3.033	n/a	n/a	NoResponse	-1	0.0	n/a	9	70	ISIslide	Loss	True
671.529	0.25	Win2	0.6667000000000001	0.0	No	2.721	0.029	n/a	NoResponse	0	n/a	n/a	9	71	Cue	MissedWin	True
671.779	4.05	Win2	0.6667000000000001	0.0	No	2.721	0.0	n/a	NoResponse	0	n/a	n/a	9	71	Fixation	MissedWin	True
675.825	0.15	Win2	0.6667000000000001	0.004	No	2.721	-0.004	4.0	NoResponse	0	0.268	675.093	9	71	Target	MissedWin	True
675.975	0.55	Win2	0.6667000000000001	n/a	No	2.721	n/a	n/a	NoResponse	0	n/a	n/a	9	71	Blank	MissedWin	True
676.093	0.3	Win2	0.6667000000000001	0.004	No	2.721	-0.004	4.0	NoResponse	0	0.268	n/a	9	71	ButtonPress	MissedWin	True
676.527	1.45	Win2	0.6667000000000001	n/a	No	2.721	n/a	5.0	NoResponse	0	0.03	675.557	9	71	Feedback	MissedWin	True
677.981	2.721	Win2	0.6667000000000001	n/a	No	2.721	n/a	n/a	NoResponse	0	0.0	n/a	9	71	ISIslide	MissedWin	True
680.723	0.25	Win2	0.6575	0.0	No	2.777	0.023	n/a	NoResponse	0	n/a	n/a	9	72	Cue	MissedWin	False
680.973	4.1	Win2	0.6575	0.001	No	2.777	0.0	4.0	NoResponse	0	0.987	680.96	9	72	Fixation	MissedWin	False
681.96	0.3	Win2	0.6575	0.001	No	2.777	0.0	4.0	NoResponse	0	0.987	n/a	9	72	ButtonPress	MissedWin	False
685.069	0.15	Win2	0.6575	0.004	No	2.777	-0.004	4.0	NoResponse	0	0.222	684.291	9	72	Target	MissedWin	False
685.22	0.55	Win2	0.6575	n/a	No	2.777	n/a	n/a	NoResponse	0	n/a	n/a	9	72	Blank	MissedWin	False
685.291	0.3	Win2	0.6575	0.004	No	2.777	-0.004	4.0	NoResponse	0	0.222	n/a	9	72	ButtonPress	MissedWin	False
685.771	1.45	Win2	0.6575	n/a	No	2.777	n/a	5.0	NoResponse	0	0.007	684.778	9	72	Feedback	MissedWin	False
687.226	2.777	Win2	0.6575	n/a	No	2.777	n/a	n/a	NoResponse	0	0.0	n/a	9	72	ISIslide	MissedWin	False
690.017	0.25	Win2	0.6486	0.0	No	2.683	0.017	n/a	NoResponse	0	n/a	n/a	9	73	Cue	MissedWin	True
690.268	4.0	Win2	0.6486	0.0	No	2.683	0.001	4.0	NoResponse	0	3.513	692.781	9	73	Fixation	MissedWin	True
693.781	0.3	Win2	0.6486	0.0	No	2.683	0.001	4.0	NoResponse	0	3.513	n/a	9	73	ButtonPress	MissedWin	True
694.263	0.15	Win2	0.6486	0.004	No	2.683	-0.004	n/a	NoResponse	0	n/a	n/a	9	73	Target	MissedWin	True
694.414	0.55	Win2	0.6486	n/a	No	2.683	n/a	n/a	NoResponse	0	n/a	n/a	9	73	Blank	MissedWin	True
694.965	1.45	Win2	0.6486	n/a	No	2.683	n/a	5.0	NoResponse	0	0.03	693.995	9	73	Feedback	MissedWin	True
696.42	2.683	Win2	0.6486	n/a	No	2.683	n/a	n/a	NoResponse	0	0.0	n/a	9	73	ISIslide	MissedWin	True
699.128	0.25	Lose2	0.64	0.0	No	2.622	0.028	n/a	NoResponse	-1	n/a	n/a	8	74	Cue	Loss	True
699.379	4.05	Lose2	0.64	0.0	No	2.622	0.001	n/a	NoResponse	-1	n/a	n/a	8	74	Fixation	Loss	True
703.424	0.16	Lose2	0.64	0.004	No	2.622	-0.004	4.0	NoResponse	-1	0.2	702.624	8	74	Target	Loss	True
703.591	0.54	Lose2	0.64	n/a	No	2.622	n/a	n/a	NoResponse	-1	n/a	n/a	8	74	Blank	Loss	True
703.624	0.3	Lose2	0.64	0.004	No	2.622	-0.004	4.0	NoResponse	-1	0.2	n/a	8	74	ButtonPress	Loss	True
704.126	1.45	Lose2	0.64	n/a	No	2.622	n/a	5.0	NoResponse	-1	0.04	703.166	8	74	Feedback	Loss	True
705.581	2.622	Lose2	0.64	n/a	No	2.622	n/a	n/a	NoResponse	-1	0.0	n/a	8	74	ISIslide	Loss	True
708.222	0.25	Lose2	0.6315999999999999	0.0	No	2.928	0.022	n/a	NoResponse	-1	n/a	n/a	7	75	Cue	Loss	True
708.473	3.95	Lose2	0.6315999999999999	0.0	No	2.928	0.001	n/a	NoResponse	-1	n/a	n/a	7	75	Fixation	Loss	True
712.418	0.17	Lose2	0.6315999999999999	0.004	No	2.928	-0.004	4.0	NoResponse	-1	0.227	711.645	7	75	Target	Loss	True
712.602	0.53	Lose2	0.6315999999999999	n/a	No	2.928	n/a	n/a	NoResponse	-1	n/a	n/a	7	75	Blank	Loss	True
712.645	0.3	Lose2	0.6315999999999999	0.004	No	2.928	-0.004	4.0	NoResponse	-1	0.227	n/a	7	75	ButtonPress	Loss	True
713.12	1.45	Lose2	0.6315999999999999	n/a	No	2.928	n/a	5.0	NoResponse	-1	0.022	712.142	7	75	Feedback	Loss	True
714.574	2.928	Lose2	0.6315999999999999	n/a	No	2.928	n/a	n/a	NoResponse	-1	0.0	n/a	7	75	ISIslide	Loss	True
717.516	0.25	Control	0.6234000000000001	0.0	No	3.234	0.016	n/a	NoResponse	0	n/a	n/a	7	76	Cue	Neutral	True
717.767	4.05	Control	0.6234000000000001	0.0	No	3.234	0.001	n/a	NoResponse	0	n/a	n/a	7	76	Fixation	Neutral	True
721.813	0.18	Control	0.6234000000000001	0.003	No	3.234	-0.003	4.0	NoResponse	0	0.212	721.025	7	76	Target	Neutral	True
721.996	0.52	Control	0.6234000000000001	n/a	No	3.234	n/a	n/a	NoResponse	0	n/a	n/a	7	76	Blank	Neutral	True
722.025	0.3	Control	0.6234000000000001	0.003	No	3.234	-0.003	4.0	NoResponse	0	0.212	n/a	7	76	ButtonPress	Neutral	True
722.515	1.45	Control	0.6234000000000001	n/a	No	3.234	n/a	5.0	NoResponse	0	0.042	721.557	7	76	Feedback	Neutral	True
723.969	3.234	Control	0.6234000000000001	n/a	No	3.234	n/a	n/a	NoResponse	0	0.0	n/a	7	76	ISIslide	Neutral	True
727.229	0.25	Lose2	0.6154	0.0	No	2.571	0.029	n/a	LatePress	-1	n/a	n/a	6	77	Cue	Loss	True
727.48	3.95	Lose2	0.6154	0.0	No	2.571	0.001	n/a	LatePress	-1	n/a	n/a	6	77	Fixation	Loss	True
731.425	0.19	Lose2	0.6154	0.004	No	2.571	-0.004	4.0	LatePress	-1	0.2	730.625	6	77	Target	Loss	True
731.625	0.51	Lose2	0.6154	n/a	No	2.571	n/a	n/a	LatePress	-1	n/a	n/a	6	77	Blank	Loss	True
731.625	0.3	Lose2	0.6154	0.004	No	2.571	-0.004	4.0	LatePress	-1	0.2	n/a	6	77	ButtonPress	Loss	True
732.127	1.45	Lose2	0.6154	n/a	No	2.571	n/a	5.0	LatePress	-1	0.039	731.166	6	77	Feedback	Loss	True
733.581	2.571	Lose2	0.6154	n/a	No	2.571	n/a	n/a	LatePress	-1	0.0	n/a	6	77	ISIslide	Loss	True
