onset	duration	cue_type	current_mean_accuracy	duration_error	is_hit	isi_adjusted	onset_delay	response	response_type	reward	rt	rt_time	total_reward	trial_number	trial_phase	trial_type	one_press
11.105	0.25	Control	1.0	0.001	Yes	2.945	0.005	n/a	GoodResponse	0	n/a	n/a	0	0	Cue	Neutral	True
11.356	3.85	Control	1.0	0.0	Yes	2.945	0.001	n/a	GoodResponse	0	n/a	n/a	0	0	Fixation	Neutral	True
15.201	0.4	Control	1.0	0.004	Yes	2.945	-0.004	2.0	GoodResponse	0	0.287	14.488	0	0	Target	Neutral	True
15.488	0.3	Control	1.0	0.004	Yes	2.945	-0.004	2.0	GoodResponse	0	0.287	n/a	0	0	ButtonPress	Neutral	True
15.602	0.3	Control	1.0	n/a	Yes	2.945	n/a	n/a	GoodResponse	0	n/a	n/a	0	0	Blank	Neutral	True
15.903	1.45	Control	1.0	n/a	Yes	2.945	n/a	5.0	GoodResponse	0	0.023	14.926	0	0	Feedback	Neutral	True
17.357	2.945	Control	1.0	n/a	Yes	2.945	n/a	n/a	GoodResponse	0	0.0	n/a	0	0	ISIslide	Neutral	True
20.333	0.25	Lose2	0.5	0.0	No	2.767	0.033	n/a	NoResponse	-1	n/a	n/a	-1	1	Cue	Loss	False
20.584	4.0	Lose2	0.5	0.0	No	2.767	0.001	2.0	NoResponse	-1	3.938	23.522	-1	1	Fixation	Loss	False
24.522	0.3	Lose2	0.5	0.0	No	2.767	0.001	2.0	NoResponse	-1	3.938	n/a	-1	1	ButtonPress	Loss	False
24.579	0.39	Lose2	0.5	0.004	No	2.767	-0.004	2.0	NoResponse	-1	0.426	24.005	-1	1	Target	Loss	False
24.98	0.31	Lose2	0.5	n/a	No	2.767	n/a	n/a	NoResponse	-1	n/a	n/a	-1	1	Blank	Loss	False
25.005	0.3	Lose2	0.5	0.004	No	2.767	-0.004	2.0	NoResponse	-1	0.426	n/a	-1	1	ButtonPress	Loss	False
25.281	1.45	Lose2	0.5	n/a	No	2.767	n/a	5.0	NoResponse	-1	0.011	24.292	-1	1	Feedback	Loss	False
26.736	2.767	Lose2	0.5	n/a	No	2.767	n/a	n/a	NoResponse	-1	0.0	n/a	-1	1	ISIslide	Loss	False
29.527	0.25	Control	0.6667000000000001	0.0	Yes	2.573	0.027	n/a	GoodResponse	0	n/a	n/a	-1	2	Cue	Neutral	True
29.778	4.1	Control	0.6667000000000001	0.0	Yes	2.573	0.001	n/a	GoodResponse	0	n/a	n/a	-1	2	Fixation	Neutral	True
33.874	0.4	Control	0.6667000000000001	0.003	Yes	2.573	-0.003	2.0	GoodResponse	0	0.215	33.089	-1	2	Target	Neutral	True
34.089	0.3	Control	0.6667000000000001	0.003	Yes	2.573	-0.003	2.0	GoodResponse	0	0.215	n/a	-1	2	ButtonPress	Neutral	True
34.275	0.3	Control	0.6667000000000001	n/a	Yes	2.573	n/a	n/a	GoodResponse	0	n/a	n/a	-1	2	Blank	Neutral	True
34.576	1.45	Control	0.6667000000000001	n/a	Yes	2.573	n/a	5.0	GoodResponse	0	0.033	33.609	-1	2	Feedback	Neutral	True
36.03	2.573	Control	0.6667000000000001	n/a	Yes	2.573	n/a	n/a	GoodResponse	0	0.0	n/a	-1	2	ISIslide	Neutral	True
38.621	0.25	Win2	0.75	0.0	Yes	2.829	0.021	n/a	GoodResponse	1	n/a	n/a	0	3	Cue	Win	False
38.872	3.95	Win2	0.75	0.0	Yes	2.829	0.001	2.0	GoodResponse	1	0.134	38.006	0	3	Fixation	Win	False
39.006	0.3	Win2	0.75	0.0	Yes	2.829	0.001	2.0	GoodResponse	1	0.134	n/a	0	3	ButtonPress	Win	False
42.817	0.39	Win2	0.75	0.004	Yes	2.829	-0.004	2.0	GoodResponse	1	0.225	42.042	0	3	Target	Win	False
43.042	0.3	Win2	0.75	0.004	Yes	2.829	-0.004	2.0	GoodResponse	1	0.225	n/a	0	3	ButtonPress	Win	False
43.218	0.31	Win2	0.75	n/a	Yes	2.829	n/a	n/a	GoodResponse	1	n/a	n/a	0	3	Blank	Win	False
43.519	1.45	Win2	0.75	n/a	Yes	2.829	n/a	5.0	GoodResponse	1	0.017	42.536	0	3	Feedback	Win	False
44.973	2.829	Win2	0.75	n/a	Yes	2.829	n/a	n/a	GoodResponse	1	0.0	n/a	0	3	ISIslide	Win	False
47.815	0.25	Win2	0.8	0.0	Yes	3.285	0.015	n/a	GoodResponse	1	n/a	n/a	1	4	Cue	Win	True
48.066	4.0	Win2	0.8	0.0	Yes	3.285	0.001	n/a	GoodResponse	1	n/a	n/a	1	4	Fixation	Win	True
52.061	0.38	Win2	0.8	0.004	Yes	3.285	-0.004	2.0	GoodResponse	1	0.228	51.289	1	4	Target	Win	True
52.289	0.3	Win2	0.8	0.004	Yes	3.285	-0.004	2.0	GoodResponse	1	0.228	n/a	1	4	ButtonPress	Win	True
52.446	0.32	Win2	0.8	n/a	Yes	3.285	n/a	n/a	GoodResponse	1	n/a	n/a	1	4	Blank	Win	True
52.763	1.45	Win2	0.8	n/a	Yes	3.285	n/a	5.0	GoodResponse	1	0.04	51.803	1	4	Feedback	Win	True
54.218	3.285	Win2	0.8	n/a	Yes	3.285	n/a	n/a	GoodResponse	1	0.0	n/a	1	4	ISIslide	Win	True
57.528	0.25	Win2	0.8332999999999999	0.0	Yes	2.772	0.028	n/a	GoodResponse	1	n/a	n/a	2	5	Cue	Win	True
57.778	4.0	Win2	0.8332999999999999	0.0	Yes	2.772	0.0	n/a	GoodResponse	1	n/a	n/a	2	5	Fixation	Win	True
61.774	0.37	Win2	0.8332999999999999	0.004	Yes	2.772	-0.004	2.0	GoodResponse	1	0.209	60.983	2	5	Target	Win	True
61.983	0.3	Win2	0.8332999999999999	0.004	Yes	2.772	-0.004	2.0	GoodResponse	1	0.209	n/a	2	5	ButtonPress	Win	True
62.158	0.33	Win2	0.8332999999999999	n/a	Yes	2.772	n/a	n/a	GoodResponse	1	n/a	n/a	2	5	Blank	Win	True
62.476	1.45	Win2	0.8332999999999999	n/a	Yes	2.772	n/a	5.0	GoodResponse	1	0.034	61.51	2	5	Feedback	Win	True
63.93	2.772	Win2	0.8332999999999999	n/a	Yes	2.772	n/a	n/a	GoodResponse	1	0.0	n/a	2	5	ISIslide	Win	True
66.722	0.25	Lose2	0.8571	0.0	Yes	2.728	0.022	n/a	GoodResponse	0	n/a	n/a	2	6	Cue	AvoidedLoss	True
66.972	3.95	Lose2	0.8571	0.001	Yes	2.728	0.0	n/a	GoodResponse	0	n/a	n/a	2	6	Fixation	AvoidedLoss	True
70.918	0.36	Lose2	0.8571	0.004	Yes	2.728	-0.004	2.0	GoodResponse	0	0.22	70.138	2	6	Target	AvoidedLoss	True
71.138	0.3	Lose2	0.8571	0.004	Yes	2.728	-0.004	2.0	GoodResponse	0	0.22	n/a	2	6	ButtonPress	AvoidedLoss	True
71.285	0.34	Lose2	0.8571	n/a	Yes	2.728	n/a	n/a	GoodResponse	0	n/a	n/a	2	6	Blank	AvoidedLoss	True
71.62	1.45	Lose2	0.8571	n/a	Yes	2.728	n/a	5.0	GoodResponse	0	0.013	70.633	2	6	Feedback	AvoidedLoss	True
73.074	2.728	Lose2	0.8571	n/a	Yes	2.728	n/a	n/a	GoodResponse	0	0.0	n/a	2	6	ISIslide	AvoidedLoss	True
75.816	0.25	Lose2	0.875	0.0	Yes	4.034	0.016	n/a	GoodResponse	0	n/a	n/a	2	7	Cue	AvoidedLoss	True
76.066	4.05	Lose2	0.875	0.0	Yes	4.034	0.0	n/a	GoodResponse	0	n/a	n/a	2	7	Fixation	AvoidedLoss	True
80.112	0.35	Lose2	0.875	0.004	Yes	4.034	-0.004	2.0	GoodResponse	0	0.112	79.224	2	7	Target	AvoidedLoss	True
80.224	0.3	Lose2	0.875	0.004	Yes	4.034	-0.004	2.0	GoodResponse	0	0.112	n/a	2	7	ButtonPress	AvoidedLoss	True
80.463	0.35	Lose2	0.875	n/a	Yes	4.034	n/a	n/a	GoodResponse	0	n/a	n/a	2	7	Blank	AvoidedLoss	True
80.814	1.45	Lose2	0.875	n/a	Yes	4.034	n/a	5.0	GoodResponse	0	0.038	79.852	2	7	Feedback	AvoidedLoss	True
82.268	4.034	Lose2	0.875	n/a	Yes	4.034	n/a	n/a	GoodResponse	0	0.0	n/a	2	7	ISIslide	AvoidedLoss	True
86.33	0.25	Lose2	0.8889	0.0	Yes	3.02	0.03	n/a	GoodResponse	0	n/a	n/a	2	8	Cue	AvoidedLoss	True
86.581	3.95	Lose2	0.8889	0.0	Yes	3.02	0.001	n/a	GoodResponse	0	n/a	n/a	2	8	Fixation	AvoidedLoss	True
90.526	0.34	Lose2	0.8889	0.004	Yes	3.02	-0.004	2.0	GoodResponse	0	0.308	89.834	2	8	Target	AvoidedLoss	True
90.834	0.3	Lose2	0.8889	0.004	Yes	3.02	-0.004	2.0	GoodResponse	0	0.308	n/a	2	8	ButtonPress	AvoidedLoss	True
90.877	0.36	Lose2	0.8889	n/a	Yes	3.02	n/a	n/a	GoodResponse	0	n/a	n/a	2	8	Blank	AvoidedLoss	True
91.228	1.45	Lose2	0.8889	n/a	Yes	3.02	n/a	5.0	GoodResponse	0	0.013	90.241	2	8	Feedback	AvoidedLoss	True
92.683	3.02	Lose2	0.8889	n/a	Yes	3.02	n/a	n/a	GoodResponse	0	0.0	n/a	2	8	ISIslide	AvoidedLoss	True
95.725	0.25	Lose2	0.9	0.0	Yes	3.125	0.025	n/a	GoodResponse	0	n/a	n/a	2	9	Cue	AvoidedLoss	True
95.976	3.95	Lose2	0.9	0.0	Yes	3.125	0.001	n/a	GoodResponse	0	n/a	n/a	2	9	Fixation	AvoidedLoss	True
99.921	0.33	Lose2	0.9	0.004	Yes	3.125	-0.004	2.0	GoodResponse	0	0.207	99.128	2	9	Target	AvoidedLoss	True
100.128	0.3	Lose2	0.9	0.004	Yes	3.125	-0.004	2.0	GoodResponse	0	0.207	n/a	2	9	ButtonPress	AvoidedLoss	True
100.255	0.37	Lose2	0.9	n/a	Yes	3.125	n/a	n/a	GoodResponse	0	n/a	n/a	2	9	Blank	AvoidedLoss	True
100.623	1.45	Lose2	0.9	n/a	Yes	3.125	n/a	5.0	GoodResponse	0	0.033	99.656	2	9	Feedback	AvoidedLoss	True
102.077	3.125	Lose2	0.9	n/a	Yes	3.125	n/a	n/a	GoodResponse	0	0.0	n/a	2	9	ISIslide	AvoidedLoss	True
105.22	0.25	Control	0.9091	0.0	Yes	3.28	0.02	n/a	GoodResponse	0	n/a	n/a	2	10	Cue	Neutral	True
105.471	4.0	Control	0.9091	0.0	Yes	3.28	0.001	n/a	GoodResponse	0	n/a	n/a	2	10	Fixation	Neutral	True
109.466	0.32	Control	0.9091	0.004	Yes	3.28	-0.004	2.0	GoodResponse	0	0.203	108.669	2	10	Target	Neutral	True
109.669	0.3	Control	0.9091	0.004	Yes	3.28	-0.004	2.0	GoodResponse	0	0.203	n/a	2	10	ButtonPress	Neutral	True
109.801	0.38	Control	0.9091	n/a	Yes	3.28	n/a	n/a	GoodResponse	0	n/a	n/a	2	10	Blank	Neutral	True
110.168	1.45	Control	0.9091	n/a	Yes	3.28	n/a	5.0	GoodResponse	0	0.049	109.217	2	10	Feedback	Neutral	True
111.623	3.28	Control	0.9091	n/a	Yes	3.28	n/a	n/a	GoodResponse	0	0.0	n/a	2	10	ISIslide	Neutral	True
114.916	0.25	Lose2	0.9167000000000001	0.0	Yes	2.734	0.016	n/a	GoodResponse	0	n/a	n/a	2	11	Cue	AvoidedLoss	True
115.167	4.05	Lose2	0.9167000000000001	0.0	Yes	2.734	0.001	n/a	GoodResponse	0	n/a	n/a	2	11	Fixation	AvoidedLoss	True
119.212	0.31	Lose2	0.9167000000000001	0.004	Yes	2.734	-0.004	2.0	GoodResponse	0	0.193	118.405	2	11	Target	AvoidedLoss	True
119.405	0.3	Lose2	0.9167000000000001	0.004	Yes	2.734	-0.004	2.0	GoodResponse	0	0.193	n/a	2	11	ButtonPress	AvoidedLoss	True
119.53	0.39	Lose2	0.9167000000000001	n/a	Yes	2.734	n/a	n/a	GoodResponse	0	n/a	n/a	2	11	Blank	AvoidedLoss	True
119.914	1.45	Lose2	0.9167000000000001	n/a	Yes	2.734	n/a	5.0	GoodResponse	0	0.011	118.925	2	11	Feedback	AvoidedLoss	True
121.368	2.734	Lose2	0.9167000000000001	n/a	Yes	2.734	n/a	n/a	GoodResponse	0	0.0	n/a	2	11	ISIslide	AvoidedLoss	True
124.127	0.25	Control	0.9231	0.0	Yes	2.973	0.027	n/a	GoodResponse	0	n/a	n/a	2	12	Cue	Neutral	True
124.377	3.9	Control	0.9231	0.001	Yes	2.973	0.0	n/a	GoodResponse	0	n/a	n/a	2	12	Fixation	Neutral	True
128.289	0.3	Control	0.9231	0.0	Yes	2.973	0.012	2.0	GoodResponse	0	0.278	127.567	2	12	Target	Neutral	True
128.567	0.3	Control	0.9231	0.0	Yes	2.973	0.012	2.0	GoodResponse	0	0.278	n/a	2	12	ButtonPress	Neutral	True
128.573	0.4	Control	0.9231	n/a	Yes	2.973	n/a	n/a	GoodResponse	0	n/a	n/a	2	12	Blank	Neutral	True
128.975	1.45	Control	0.9231	n/a	Yes	2.973	n/a	5.0	GoodResponse	0	0.023	127.998	2	12	Feedback	Neutral	True
130.429	2.973	Control	0.9231	n/a	Yes	2.973	n/a	n/a	GoodResponse	0	0.0	n/a	2	12	ISIslide	Neutral	True
133.421	0.25	Control	0.8571	0.0	No	2.779	0.021	n/a	PrematurePress	0	n/a	n/a	2	13	Cue	Neutral	True
133.672	4.0	Control	0.8571	0.0	No	2.779	0.001	n/a	PrematurePress	0	n/a	n/a	2	13	Fixation	Neutral	True
137.667	0.29	Control	0.8571	0.004	No	2.779	-0.004	2.0	PrematurePress	0	0.023	136.69	2	13	Target	Neutral	True
137.69	0.3	Control	0.8571	0.004	No	2.779	-0.004	2.0	PrematurePress	0	0.023	n/a	2	13	ButtonPress	Neutral	True
137.968	0.41	Control	0.8571	n/a	No	2.779	n/a	n/a	PrematurePress	0	n/a	n/a	2	13	Blank	Neutral	True
138.369	1.45	Control	0.8571	n/a	No	2.779	n/a	5.0	PrematurePress	0	0.043	137.412	2	13	Feedback	Neutral	True
139.824	2.779	Control	0.8571	n/a	No	2.779	n/a	n/a	PrematurePress	0	0.0	n/a	2	13	ISIslide	Neutral	True
142.615	0.25	Win2	0.8667	0.0	Yes	2.685	0.015	n/a	GoodResponse	1	n/a	n/a	3	14	Cue	Win	True
142.866	4.1	Win2	0.8667	0.0	Yes	2.685	0.001	n/a	GoodResponse	1	n/a	n/a	3	14	Fixation	Win	True
146.962	0.28	Win2	0.8667	0.003	Yes	2.685	-0.003	2.0	GoodResponse	1	0.201	146.163	3	14	Target	Win	True
147.163	0.3	Win2	0.8667	0.003	Yes	2.685	-0.003	2.0	GoodResponse	1	0.201	n/a	3	14	ButtonPress	Win	True
147.246	0.42	Win2	0.8667	n/a	Yes	2.685	n/a	n/a	GoodResponse	1	n/a	n/a	3	14	Blank	Win	True
147.664	1.45	Win2	0.8667	n/a	Yes	2.685	n/a	5.0	GoodResponse	1	0.016	146.68	3	14	Feedback	Win	True
149.118	2.685	Win2	0.8667	n/a	Yes	2.685	n/a	n/a	GoodResponse	1	0.0	n/a	3	14	ISIslide	Win	True
151.826	0.25	Control	0.875	0.0	Yes	2.974	0.026	n/a	GoodResponse	0	n/a	n/a	3	15	Cue	Neutral	True
152.077	4.0	Control	0.875	0.0	Yes	2.974	0.001	n/a	GoodResponse	0	n/a	n/a	3	15	Fixation	Neutral	True
156.072	0.27	Control	0.875	0.004	Yes	2.974	-0.004	2.0	GoodResponse	0	0.223	155.295	3	15	Target	Neutral	True
156.295	0.3	Control	0.875	0.004	Yes	2.974	-0.004	2.0	GoodResponse	0	0.223	n/a	3	15	ButtonPress	Neutral	True
156.356	0.43	Control	0.875	n/a	Yes	2.974	n/a	n/a	GoodResponse	0	n/a	n/a	3	15	Blank	Neutral	True
156.774	1.45	Control	0.875	n/a	Yes	2.974	n/a	5.0	GoodResponse	0	0.028	155.802	3	15	Feedback	Neutral	True
158.229	2.974	Control	0.875	n/a	Yes	2.974	n/a	n/a	GoodResponse	0	0.0	n/a	3	15	ISIslide	Neutral	True
161.221	0.25	Win2	0.8234999999999999	0.0	No	2.879	0.021	n/a	LatePress	0	n/a	n/a	3	16	Cue	MissedWin	False
161.472	4.0	Win2	0.8234999999999999	0.0	No	2.879	0.001	2.0	LatePress	0	3.499	163.971	3	16	Fixation	MissedWin	False
164.971	0.3	Win2	0.8234999999999999	0.0	No	2.879	0.001	2.0	LatePress	0	3.499	n/a	3	16	ButtonPress	MissedWin	False
165.467	0.26	Win2	0.8234999999999999	0.004	No	2.879	-0.004	2.0	LatePress	0	0.264	164.731	3	16	Target	MissedWin	False
165.731	0.3	Win2	0.8234999999999999	0.004	No	2.879	-0.004	2.0	LatePress	0	0.264	n/a	3	16	ButtonPress	MissedWin	False
165.734	0.44	Win2	0.8234999999999999	n/a	No	2.879	n/a	n/a	LatePress	0	n/a	n/a	3	16	Blank	MissedWin	False
166.169	1.45	Win2	0.8234999999999999	n/a	No	2.879	n/a	5.0	LatePress	0	0.048	165.217	3	16	Feedback	MissedWin	False
167.623	2.879	Win2	0.8234999999999999	n/a	No	2.879	n/a	n/a	LatePress	0	0.0	n/a	3	16	ISIslide	MissedWin	False
170.515	0.25	Lose2	0.8332999999999999	0.0	Yes	2.735	0.015	n/a	GoodResponse	0	n/a	n/a	3	17	Cue	AvoidedLoss	True
170.766	3.95	Lose2	0.8332999999999999	0.0	Yes	2.735	0.001	n/a	GoodResponse	0	n/a	n/a	3	17	Fixation	AvoidedLoss	True
174.711	0.25	Lose2	0.8332999999999999	0.004	Yes	2.735	-0.004	2.0	GoodResponse	0	0.244	173.955	3	17	Target	AvoidedLoss	True
174.955	0.3	Lose2	0.8332999999999999	0.004	Yes	2.735	-0.004	2.0	GoodResponse	0	0.244	n/a	3	17	ButtonPress	AvoidedLoss	True
174.962	0.45	Lose2	0.8332999999999999	n/a	Yes	2.735	n/a	n/a	GoodResponse	0	n/a	n/a	3	17	Blank	AvoidedLoss	True
175.413	1.45	Lose2	0.8332999999999999	n/a	Yes	2.735	n/a	5.0	GoodResponse	0	0.023	174.436	3	17	Feedback	AvoidedLoss	True
176.868	2.735	Lose2	0.8332999999999999	n/a	Yes	2.735	n/a	n/a	GoodResponse	0	0.0	n/a	3	17	ISIslide	AvoidedLoss	True
179.626	0.25	Lose2	0.7895	0.0	No	2.724	0.026	n/a	NoResponse	-1	n/a	n/a	2	18	Cue	Loss	True
179.877	4.05	Lose2	0.7895	0.0	No	2.724	0.001	n/a	NoResponse	-1	n/a	n/a	2	18	Fixation	Loss	True
183.922	0.24	Lose2	0.7895	0.004	No	2.724	-0.004	2.0	NoResponse	-1	0.281	183.203	2	18	Target	Loss	True
184.173	0.46	Lose2	0.7895	n/a	No	2.724	n/a	n/a	NoResponse	-1	n/a	n/a	2	18	Blank	Loss	True
184.203	0.3	Lose2	0.7895	0.004	No	2.724	-0.004	2.0	NoResponse	-1	0.281	n/a	2	18	ButtonPress	Loss	True
184.624	1.45	Lose2	0.7895	n/a	No	2.724	n/a	5.0	NoResponse	-1	0.031	183.655	2	18	Feedback	Loss	True
186.079	2.724	Lose2	0.7895	n/a	No	2.724	n/a	n/a	NoResponse	-1	0.0	n/a	2	18	ISIslide	Loss	True
188.82	0.25	Control	0.75	0.0	No	2.93	0.02	n/a	NoResponse	0	n/a	n/a	2	19	Cue	Neutral	True
189.071	3.95	Control	0.75	0.0	No	2.93	0.001	n/a	NoResponse	0	n/a	n/a	2	19	Fixation	Neutral	True
193.016	0.23	Control	0.75	0.004	No	2.93	-0.004	2.0	NoResponse	0	0.255	192.271	2	19	Target	Neutral	True
193.25	0.47	Control	0.75	n/a	No	2.93	n/a	n/a	NoResponse	0	n/a	n/a	2	19	Blank	Neutral	True
193.271	0.3	Control	0.75	0.004	No	2.93	-0.004	2.0	NoResponse	0	0.255	n/a	2	19	ButtonPress	Neutral	True
193.718	1.45	Control	0.75	n/a	No	2.93	n/a	5.0	NoResponse	0	0.01	192.728	2	19	Feedback	Neutral	True
195.172	2.93	Control	0.75	n/a	No	2.93	n/a	n/a	NoResponse	0	0.0	n/a	2	19	ISIslide	Neutral	True
198.115	0.25	Control	0.7143	0.0	No	2.635	0.015	n/a	LatePress	0	n/a	n/a	2	20	Cue	Neutral	True
198.365	4.05	Control	0.7143	0.0	No	2.635	0.0	n/a	LatePress	0	n/a	n/a	2	20	Fixation	Neutral	True
202.411	0.22	Control	0.7143	0.004	No	2.635	-0.004	2.0	LatePress	0	0.233	201.644	2	20	Target	Neutral	True
202.644	0.3	Control	0.7143	0.004	No	2.635	-0.004	2.0	LatePress	0	0.233	n/a	2	20	ButtonPress	Neutral	True
202.645	0.48	Control	0.7143	n/a	No	2.635	n/a	n/a	LatePress	0	n/a	n/a	2	20	Blank	Neutral	True
203.113	1.45	Control	0.7143	n/a	No	2.635	n/a	5.0	LatePress	0	0.03	202.143	2	20	Feedback	Neutral	True
204.567	2.635	Control	0.7143	n/a	No	2.635	n/a	n/a	LatePress	0	0.0	n/a	2	20	ISIslide	Neutral	True
207.225	0.25	Control	0.7273000000000001	0.0	Yes	2.775	0.025	n/a	GoodResponse	0	n/a	n/a	2	21	Cue	Neutral	True
207.476	4.1	Control	0.7273000000000001	0.0	Yes	2.775	0.001	n/a	GoodResponse	0	n/a	n/a	2	21	Fixation	Neutral	True
211.571	0.21	Control	0.7273000000000001	0.004	Yes	2.775	-0.004	2.0	GoodResponse	0	0.207	210.778	2	21	Target	Neutral	True
211.778	0.3	Control	0.7273000000000001	0.004	Yes	2.775	-0.004	2.0	GoodResponse	0	0.207	n/a	2	21	ButtonPress	Neutral	True
211.789	0.49	Control	0.7273000000000001	n/a	Yes	2.775	n/a	n/a	GoodResponse	0	n/a	n/a	2	21	Blank	Neutral	True
212.274	1.45	Control	0.7273000000000001	n/a	Yes	2.775	n/a	5.0	GoodResponse	0	0.04	211.314	2	21	Feedback	Neutral	True
213.728	2.775	Control	0.7273000000000001	n/a	Yes	2.775	n/a	n/a	GoodResponse	0	0.0	n/a	2	21	ISIslide	Neutral	True
216.52	0.25	Control	0.6957	0.0	No	2.78	0.02	n/a	NoResponse	0	n/a	n/a	2	22	Cue	Neutral	True
216.77	4.0	Control	0.6957	0.0	No	2.78	0.0	n/a	NoResponse	0	n/a	n/a	2	22	Fixation	Neutral	True
220.766	0.2	Control	0.6957	0.004	No	2.78	-0.004	2.0	NoResponse	0	0.227	219.993	2	22	Target	Neutral	True
220.966	0.5	Control	0.6957	n/a	No	2.78	n/a	n/a	NoResponse	0	n/a	n/a	2	22	Blank	Neutral	True
220.993	0.3	Control	0.6957	0.004	No	2.78	-0.004	2.0	NoResponse	0	0.227	n/a	2	22	ButtonPress	Neutral	True
221.468	1.45	Control	0.6957	n/a	No	2.78	n/a	5.0	NoResponse	0	0.016	220.484	2	22	Feedback	Neutral	True
222.922	2.78	Control	0.6957	n/a	No	2.78	n/a	n/a	NoResponse	0	0.0	n/a	2	22	ISIslide	Neutral	True
225.714	0.25	Control	0.6667000000000001	0.0	No	2.786	0.014	n/a	NoResponse	0	n/a	n/a	2	23	Cue	Neutral	True
225.965	3.9	Control	0.6667000000000001	0.0	No	2.786	0.001	n/a	NoResponse	0	n/a	n/a	2	23	Fixation	Neutral	True
229.86	0.19	Control	0.6667000000000001	0.004	No	2.786	-0.004	2.0	NoResponse	0	0.289	229.149	2	23	Target	Neutral	True
230.06	0.51	Control	0.6667000000000001	n/a	No	2.786	n/a	n/a	NoResponse	0	n/a	n/a	2	23	Blank	Neutral	True
230.149	0.3	Control	0.6667000000000001	0.004	No	2.786	-0.004	2.0	NoResponse	0	0.289	n/a	2	23	ButtonPress	Neutral	True
230.562	1.45	Control	0.6667000000000001	n/a	No	2.786	n/a	5.0	NoResponse	0	0.044	229.606	2	23	Feedback	Neutral	True
232.016	2.786	Control	0.6667000000000001	n/a	No	2.786	n/a	n/a	NoResponse	0	0.0	n/a	2	23	ISIslide	Neutral	True
234.824	0.25	Win2	0.68	0.0	Yes	3.126	0.024	n/a	GoodResponse	1	n/a	n/a	3	24	Cue	Win	True
235.075	3.95	Win2	0.68	0.0	Yes	3.126	0.001	n/a	GoodResponse	1	n/a	n/a	3	24	Fixation	Win	True
239.02	0.18	Win2	0.68	0.004	Yes	3.126	-0.004	2.0	GoodResponse	1	0.179	238.199	3	24	Target	Win	True
239.199	0.3	Win2	0.68	0.004	Yes	3.126	-0.004	2.0	GoodResponse	1	0.179	n/a	3	24	ButtonPress	Win	True
239.204	0.52	Win2	0.68	n/a	Yes	3.126	n/a	n/a	GoodResponse	1	n/a	n/a	3	24	Blank	Win	True
239.722	1.45	Win2	0.68	n/a	Yes	3.126	n/a	5.0	GoodResponse	1	0.006	238.728	3	24	Feedback	Win	True
241.177	3.126	Win2	0.68	n/a	Yes	3.126	n/a	n/a	GoodResponse	1	0.0	n/a	3	24	ISIslide	Win	True
244.319	0.25	Win2	0.6537999999999999	0.001	No	3.081	0.019	n/a	NoResponse	0	n/a	n/a	3	25	Cue	MissedWin	True
244.57	4.0	Win2	0.6537999999999999	0.0	No	3.081	0.001	n/a	NoResponse	0	n/a	n/a	3	25	Fixation	MissedWin	True
248.565	0.17	Win2	0.6537999999999999	0.004	No	3.081	-0.004	2.0	NoResponse	0	0.225	247.79	3	25	Target	MissedWin	True
248.749	0.53	Win2	0.6537999999999999	n/a	No	3.081	n/a	n/a	NoResponse	0	n/a	n/a	3	25	Blank	MissedWin	True
248.79	0.3	Win2	0.6537999999999999	0.004	No	3.081	-0.004	2.0	NoResponse	0	0.225	n/a	3	25	ButtonPress	MissedWin	True
249.268	1.45	Win2	0.6537999999999999	n/a	No	3.081	n/a	5.0	NoResponse	0	0.021	248.289	3	25	Feedback	MissedWin	True
250.722	3.081	Win2	0.6537999999999999	n/a	No	3.081	n/a	n/a	NoResponse	0	0.0	n/a	3	25	ISIslide	MissedWin	True
253.814	0.25	Win2	0.6667000000000001	0.001	Yes	2.936	0.014	n/a	GoodResponse	1	n/a	n/a	4	26	Cue	Win	True
254.065	3.95	Win2	0.6667000000000001	0.0	Yes	2.936	0.001	n/a	GoodResponse	1	n/a	n/a	4	26	Fixation	Win	True
258.01	0.18	Win2	0.6667000000000001	0.004	Yes	2.936	-0.004	2.0	GoodResponse	1	0.166	257.176	4	26	Target	Win	True
258.176	0.3	Win2	0.6667000000000001	0.004	Yes	2.936	-0.004	2.0	GoodResponse	1	0.166	n/a	4	26	ButtonPress	Win	True
258.194	0.52	Win2	0.6667000000000001	n/a	Yes	2.936	n/a	n/a	GoodResponse	1	n/a	n/a	4	26	Blank	Win	True
258.712	1.45	Win2	0.6667000000000001	n/a	Yes	2.936	n/a	5.0	GoodResponse	1	0.04	257.752	4	26	Feedback	Win	True
260.167	2.936	Win2	0.6667000000000001	n/a	Yes	2.936	n/a	n/a	GoodResponse	1	0.0	n/a	4	26	ISIslide	Win	True
263.126	0.25	Lose2	0.6429	0.0	No	2.824	0.026	n/a	NoResponse	-1	n/a	n/a	3	27	Cue	Loss	True
263.376	4.05	Lose2	0.6429	0.0	No	2.824	0.0	n/a	NoResponse	-1	n/a	n/a	3	27	Fixation	Loss	True
267.422	0.17	Lose2	0.6429	0.004	No	2.824	-0.004	2.0	NoResponse	-1	0.294	266.716	3	27	Target	Loss	True
267.606	0.53	Lose2	0.6429	n/a	No	2.824	n/a	n/a	NoResponse	-1	n/a	n/a	3	27	Blank	Loss	True
267.716	0.3	Lose2	0.6429	0.004	No	2.824	-0.004	2.0	NoResponse	-1	0.294	n/a	3	27	ButtonPress	Loss	True
268.124	1.45	Lose2	0.6429	n/a	No	2.824	n/a	5.0	NoResponse	-1	0.042	267.166	3	27	Feedback	Loss	True
269.578	2.824	Lose2	0.6429	n/a	No	2.824	n/a	n/a	NoResponse	-1	0.0	n/a	3	27	ISIslide	Loss	True
272.42	0.25	Control	0.6207	0.0	No	2.83	0.02	n/a	NoResponse	0	n/a	n/a	3	28	Cue	Neutral	True
272.671	4.05	Control	0.6207	0.0	No	2.83	0.001	n/a	NoResponse	0	n/a	n/a	3	28	Fixation	Neutral	True
276.716	0.18	Control	0.6207	0.004	No	2.83	-0.004	2.0	NoResponse	0	0.207	275.923	3	28	Target	Neutral	True
276.9	0.52	Control	0.6207	n/a	No	2.83	n/a	n/a	NoResponse	0	n/a	n/a	3	28	Blank	Neutral	True
276.923	0.3	Control	0.6207	0.004	No	2.83	-0.004	2.0	NoResponse	0	0.207	n/a	3	28	ButtonPress	Neutral	True
277.418	1.45	Control	0.6207	n/a	No	2.83	n/a	5.0	NoResponse	0	0.017	276.435	3	28	Feedback	Neutral	True
278.873	2.83	Control	0.6207	n/a	No	2.83	n/a	n/a	NoResponse	0	0.0	n/a	3	28	ISIslide	Neutral	True
281.715	0.25	Lose2	0.6	0.0	No	2.835	0.015	n/a	NoResponse	-1	n/a	n/a	2	29	Cue	Loss	True
281.965	3.95	Lose2	0.6	0.0	No	2.835	0.0	n/a	NoResponse	-1	n/a	n/a	2	29	Fixation	Loss	True
285.927	0.19	Lose2	0.6	0.0	No	2.835	0.012	2.0	NoResponse	-1	0.19	285.117	2	29	Target	Loss	True
286.111	0.51	Lose2	0.6	n/a	No	2.835	n/a	n/a	NoResponse	-1	n/a	n/a	2	29	Blank	Loss	True
286.117	0.3	Lose2	0.6	0.0	No	2.835	0.012	2.0	NoResponse	-1	0.19	n/a	2	29	ButtonPress	Loss	True
286.613	1.45	Lose2	0.6	n/a	No	2.835	n/a	5.0	NoResponse	-1	0.041	285.654	2	29	Feedback	Loss	True
288.067	2.835	Lose2	0.6	n/a	No	2.835	n/a	n/a	NoResponse	-1	0.0	n/a	2	29	ISIslide	Loss	True
290.925	0.25	Win2	0.6129	0.001	Yes	2.775	0.025	n/a	GoodResponse	1	n/a	n/a	3	30	Cue	Win	True
291.176	3.9	Win2	0.6129	0.0	Yes	2.775	0.001	n/a	GoodResponse	1	n/a	n/a	3	30	Fixation	Win	True
295.071	0.2	Win2	0.6129	0.004	Yes	2.775	-0.004	2.0	GoodResponse	1	0.184	294.255	3	30	Target	Win	True
295.255	0.3	Win2	0.6129	0.004	Yes	2.775	-0.004	2.0	GoodResponse	1	0.184	n/a	3	30	ButtonPress	Win	True
295.272	0.5	Win2	0.6129	n/a	Yes	2.775	n/a	n/a	GoodResponse	1	n/a	n/a	3	30	Blank	Win	True
295.773	1.45	Win2	0.6129	n/a	Yes	2.775	n/a	5.0	GoodResponse	1	0.005	294.778	3	30	Feedback	Win	True
297.228	2.775	Win2	0.6129	n/a	Yes	2.775	n/a	n/a	GoodResponse	1	0.0	n/a	3	30	ISIslide	Win	True
300.019	0.25	Lose2	0.625	0.0	Yes	2.831	0.019	n/a	GoodResponse	0	n/a	n/a	3	31	Cue	AvoidedLoss	True
300.27	4.05	Lose2	0.625	0.0	Yes	2.831	0.001	n/a	GoodResponse	0	n/a	n/a	3	31	Fixation	AvoidedLoss	True
304.315	0.21	Lose2	0.625	0.004	Yes	2.831	-0.004	2.0	GoodResponse	0	0.167	303.482	3	31	Target	AvoidedLoss	True
304.482	0.3	Lose2	0.625	0.004	Yes	2.831	-0.004	2.0	GoodResponse	0	0.167	n/a	3	31	ButtonPress	AvoidedLoss	True
304.533	0.49	Lose2	0.625	n/a	Yes	2.831	n/a	n/a	GoodResponse	0	n/a	n/a	3	31	Blank	AvoidedLoss	True
305.018	1.45	Lose2	0.625	n/a	Yes	2.831	n/a	5.0	GoodResponse	0	0.027	304.045	3	31	Feedback	AvoidedLoss	True
306.472	2.831	Lose2	0.625	n/a	Yes	2.831	n/a	n/a	GoodResponse	0	0.0	n/a	3	31	ISIslide	AvoidedLoss	True
309.33	0.25	Lose2	0.6061	0.001	No	2.62	0.03	n/a	LatePress	-1	n/a	n/a	2	32	Cue	Loss	True
309.581	4.15	Lose2	0.6061	0.0	No	2.62	0.001	n/a	LatePress	-1	n/a	n/a	2	32	Fixation	Loss	True
313.727	0.22	Lose2	0.6061	0.003	No	2.62	-0.003	2.0	LatePress	-1	0.224	312.951	2	32	Target	Loss	True
313.951	0.3	Lose2	0.6061	0.003	No	2.62	-0.003	2.0	LatePress	-1	0.224	n/a	2	32	ButtonPress	Loss	True
313.961	0.48	Lose2	0.6061	n/a	No	2.62	n/a	n/a	LatePress	-1	n/a	n/a	2	32	Blank	Loss	True
314.429	1.45	Lose2	0.6061	n/a	No	2.62	n/a	5.0	LatePress	-1	0.029	313.458	2	32	Feedback	Loss	True
315.883	2.62	Lose2	0.6061	n/a	No	2.62	n/a	n/a	LatePress	-1	0.0	n/a	2	32	ISIslide	Loss	True
318.525	0.25	Win2	0.6175999999999999	0.0	Yes	2.675	0.025	n/a	GoodResponse	1	n/a	n/a	3	33	Cue	Win	True
318.775	4.0	Win2	0.6175999999999999	0.0	Yes	2.675	0.0	n/a	GoodResponse	1	n/a	n/a	3	33	Fixation	Win	True
322.771	0.23	Win2	0.6175999999999999	0.004	Yes	2.675	-0.004	2.0	GoodResponse	1	0.19	321.961	3	33	Target	Win	True
322.961	0.3	Win2	0.6175999999999999	0.004	Yes	2.675	-0.004	2.0	GoodResponse	1	0.19	n/a	3	33	ButtonPress	Win	True
323.005	0.47	Win2	0.6175999999999999	n/a	Yes	2.675	n/a	n/a	GoodResponse	1	n/a	n/a	3	33	Blank	Win	True
323.473	1.45	Win2	0.6175999999999999	n/a	Yes	2.675	n/a	5.0	GoodResponse	1	0.01	322.483	3	33	Feedback	Win	True
324.927	2.675	Win2	0.6175999999999999	n/a	Yes	2.675	n/a	n/a	GoodResponse	1	0.0	n/a	3	33	ISIslide	Win	True
327.618	0.25	Lose2	0.6286	0.001	Yes	2.632	0.018	n/a	GoodResponse	0	n/a	n/a	3	34	Cue	AvoidedLoss	True
327.869	4.05	Lose2	0.6286	0.0	Yes	2.632	0.001	n/a	GoodResponse	0	n/a	n/a	3	34	Fixation	AvoidedLoss	True
331.915	0.24	Lose2	0.6286	0.003	Yes	2.632	-0.003	2.0	GoodResponse	0	0.186	331.101	3	34	Target	AvoidedLoss	True
332.101	0.3	Lose2	0.6286	0.003	Yes	2.632	-0.003	2.0	GoodResponse	0	0.186	n/a	3	34	ButtonPress	AvoidedLoss	True
332.165	0.46	Lose2	0.6286	n/a	Yes	2.632	n/a	n/a	GoodResponse	0	n/a	n/a	3	34	Blank	AvoidedLoss	True
332.617	1.45	Lose2	0.6286	n/a	Yes	2.632	n/a	5.0	GoodResponse	0	0.037	331.654	3	34	Feedback	AvoidedLoss	True
334.071	2.632	Lose2	0.6286	n/a	Yes	2.632	n/a	n/a	GoodResponse	0	0.0	n/a	3	34	ISIslide	AvoidedLoss	True
336.729	0.25	Lose2	0.6389	0.0	Yes	2.671	0.029	n/a	GoodResponse	0	n/a	n/a	3	35	Cue	AvoidedLoss	True
336.98	4.0	Lose2	0.6389	0.0	Yes	2.671	0.001	n/a	GoodResponse	0	n/a	n/a	3	35	Fixation	AvoidedLoss	True
340.975	0.25	Lose2	0.6389	0.004	Yes	2.671	-0.004	2.0	GoodResponse	0	0.189	340.164	3	35	Target	AvoidedLoss	True
341.164	0.3	Lose2	0.6389	0.004	Yes	2.671	-0.004	2.0	GoodResponse	0	0.189	n/a	3	35	ButtonPress	AvoidedLoss	True
341.226	0.45	Lose2	0.6389	n/a	Yes	2.671	n/a	n/a	GoodResponse	0	n/a	n/a	3	35	Blank	AvoidedLoss	True
341.677	1.45	Lose2	0.6389	n/a	Yes	2.671	n/a	5.0	GoodResponse	0	0.001	340.678	3	35	Feedback	AvoidedLoss	True
343.131	2.671	Lose2	0.6389	n/a	Yes	2.671	n/a	n/a	GoodResponse	0	0.0	n/a	3	35	ISIslide	AvoidedLoss	True
345.823	0.25	Control	0.6486	0.0	Yes	2.677	0.023	n/a	GoodResponse	0	n/a	n/a	3	36	Cue	Neutral	True
346.074	4.0	Control	0.6486	0.0	Yes	2.677	0.001	n/a	GoodResponse	0	n/a	n/a	3	36	Fixation	Neutral	True
350.069	0.26	Control	0.6486	0.004	Yes	2.677	-0.004	2.0	GoodResponse	0	0.227	349.296	3	36	Target	Neutral	True
350.296	0.3	Control	0.6486	0.004	Yes	2.677	-0.004	2.0	GoodResponse	0	0.227	n/a	3	36	ButtonPress	Neutral	True
350.336	0.44	Control	0.6486	n/a	Yes	2.677	n/a	n/a	GoodResponse	0	n/a	n/a	3	36	Blank	Neutral	True
350.771	1.45	Control	0.6486	n/a	Yes	2.677	n/a	5.0	GoodResponse	0	0.028	349.799	3	36	Feedback	Neutral	True
352.225	2.677	Control	0.6486	n/a	Yes	2.677	n/a	n/a	GoodResponse	0	0.0	n/a	3	36	ISIslide	Neutral	True
354.917	0.25	Win2	0.6579	0.0	Yes	2.883	0.017	n/a	GoodResponse	1	n/a	n/a	4	37	Cue	Win	False
355.167	4.0	Win2	0.6579	0.001	Yes	2.883	0.0	2.0	GoodResponse	1	0.088	354.255	4	37	Fixation	Win	False
355.255	0.3	Win2	0.6579	0.001	Yes	2.883	0.0	2.0	GoodResponse	1	0.088	n/a	4	37	ButtonPress	Win	False
359.163	0.27	Win2	0.6579	0.004	Yes	2.883	-0.004	2.0	GoodResponse	1	0.2	358.363	4	37	Target	Win	False
359.363	0.3	Win2	0.6579	0.004	Yes	2.883	-0.004	2.0	GoodResponse	1	0.2	n/a	4	37	ButtonPress	Win	False
359.447	0.43	Win2	0.6579	n/a	Yes	2.883	n/a	n/a	GoodResponse	1	n/a	n/a	4	37	Blank	Win	False
359.865	1.45	Win2	0.6579	n/a	Yes	2.883	n/a	5.0	GoodResponse	1	0.007	358.872	4	37	Feedback	Win	False
361.319	2.883	Win2	0.6579	n/a	Yes	2.883	n/a	n/a	GoodResponse	1	0.0	n/a	4	37	ISIslide	Win	False
364.228	0.25	Lose2	0.6667000000000001	0.0	Yes	2.822	0.028	n/a	GoodResponse	0	n/a	n/a	4	38	Cue	AvoidedLoss	True
364.479	3.95	Lose2	0.6667000000000001	0.0	Yes	2.822	0.001	n/a	GoodResponse	0	n/a	n/a	4	38	Fixation	AvoidedLoss	True
368.424	0.27	Lose2	0.6667000000000001	0.004	Yes	2.822	-0.004	2.0	GoodResponse	0	0.194	367.618	4	38	Target	AvoidedLoss	True
368.618	0.3	Lose2	0.6667000000000001	0.004	Yes	2.822	-0.004	2.0	GoodResponse	0	0.194	n/a	4	38	ButtonPress	AvoidedLoss	True
368.708	0.43	Lose2	0.6667000000000001	n/a	Yes	2.822	n/a	n/a	GoodResponse	0	n/a	n/a	4	38	Blank	AvoidedLoss	True
369.126	1.45	Lose2	0.6667000000000001	n/a	Yes	2.822	n/a	5.0	GoodResponse	0	0.015	368.141	4	38	Feedback	AvoidedLoss	True
370.58	2.822	Lose2	0.6667000000000001	n/a	Yes	2.822	n/a	n/a	GoodResponse	0	0.0	n/a	4	38	ISIslide	AvoidedLoss	True
373.422	0.25	Win2	0.675	0.0	Yes	2.978	0.022	n/a	GoodResponse	1	n/a	n/a	5	39	Cue	Win	True
373.673	4.1	Win2	0.675	0.0	Yes	2.978	0.001	n/a	GoodResponse	1	n/a	n/a	5	39	Fixation	Win	True
377.768	0.26	Win2	0.675	0.004	Yes	2.978	-0.004	2.0	GoodResponse	1	0.186	376.954	5	39	Target	Win	True
377.954	0.3	Win2	0.675	0.004	Yes	2.978	-0.004	2.0	GoodResponse	1	0.186	n/a	5	39	ButtonPress	Win	True
378.036	0.44	Win2	0.675	n/a	Yes	2.978	n/a	n/a	GoodResponse	1	n/a	n/a	5	39	Blank	Win	True
378.471	1.45	Win2	0.675	n/a	Yes	2.978	n/a	5.0	GoodResponse	1	0.036	377.507	5	39	Feedback	Win	True
379.925	2.978	Win2	0.675	n/a	Yes	2.978	n/a	n/a	GoodResponse	1	0.0	n/a	5	39	ISIslide	Win	True
382.917	0.25	Win2	0.6829000000000001	0.0	Yes	2.733	0.017	n/a	GoodResponse	1	n/a	n/a	6	40	Cue	Win	True
383.168	3.95	Win2	0.6829000000000001	0.0	Yes	2.733	0.001	n/a	GoodResponse	1	n/a	n/a	6	40	Fixation	Win	True
387.113	0.25	Win2	0.6829000000000001	0.004	Yes	2.733	-0.004	2.0	GoodResponse	1	0.189	386.302	6	40	Target	Win	True
387.302	0.3	Win2	0.6829000000000001	0.004	Yes	2.733	-0.004	2.0	GoodResponse	1	0.189	n/a	6	40	ButtonPress	Win	True
387.364	0.45	Win2	0.6829000000000001	n/a	Yes	2.733	n/a	n/a	GoodResponse	1	n/a	n/a	6	40	Blank	Win	True
387.815	1.45	Win2	0.6829000000000001	n/a	Yes	2.733	n/a	5.0	GoodResponse	1	0.009	386.824	6	40	Feedback	Win	True
389.269	2.733	Win2	0.6829000000000001	n/a	Yes	2.733	n/a	n/a	GoodResponse	1	0.0	n/a	6	40	ISIslide	Win	True
392.028	0.25	Win2	0.6905	0.0	Yes	2.772	0.028	n/a	GoodResponse	1	n/a	n/a	7	41	Cue	Win	True
392.278	3.9	Win2	0.6905	0.001	Yes	2.772	0.0	n/a	GoodResponse	1	n/a	n/a	7	41	Fixation	Win	True
396.19	0.24	Win2	0.6905	0.0	Yes	2.772	0.012	2.0	GoodResponse	1	0.197	395.387	7	41	Target	Win	True
396.387	0.3	Win2	0.6905	0.0	Yes	2.772	0.012	2.0	GoodResponse	1	0.197	n/a	7	41	ButtonPress	Win	True
396.424	0.46	Win2	0.6905	n/a	Yes	2.772	n/a	n/a	GoodResponse	1	n/a	n/a	7	41	Blank	Win	True
396.876	1.45	Win2	0.6905	n/a	Yes	2.772	n/a	5.0	GoodResponse	1	0.02	395.896	7	41	Feedback	Win	True
398.33	2.772	Win2	0.6905	n/a	Yes	2.772	n/a	n/a	GoodResponse	1	0.0	n/a	7	41	ISIslide	Win	True
401.122	0.25	Control	0.6977	0.0	Yes	2.928	0.022	n/a	GoodResponse	0	n/a	n/a	7	42	Cue	Neutral	True
401.372	3.85	Control	0.6977	0.0	Yes	2.928	0.0	n/a	GoodResponse	0	n/a	n/a	7	42	Fixation	Neutral	True
405.234	0.23	Control	0.6977	0.0	Yes	2.928	0.012	2.0	GoodResponse	0	0.191	404.425	7	42	Target	Neutral	True
405.425	0.3	Control	0.6977	0.0	Yes	2.928	0.012	2.0	GoodResponse	0	0.191	n/a	7	42	ButtonPress	Neutral	True
405.451	0.47	Control	0.6977	n/a	Yes	2.928	n/a	n/a	GoodResponse	0	n/a	n/a	7	42	Blank	Neutral	True
405.919	1.45	Control	0.6977	n/a	Yes	2.928	n/a	5.0	GoodResponse	0	0.002	404.921	7	42	Feedback	Neutral	True
407.374	2.928	Control	0.6977	n/a	Yes	2.928	n/a	n/a	GoodResponse	0	0.0	n/a	7	42	ISIslide	Neutral	True
410.316	0.25	Win2	0.7045	0.0	Yes	3.184	0.016	n/a	GoodResponse	1	n/a	n/a	8	43	Cue	Win	True
410.566	4.0	Win2	0.7045	0.001	Yes	3.184	0.0	n/a	GoodResponse	1	n/a	n/a	8	43	Fixation	Win	True
414.562	0.22	Win2	0.7045	0.004	Yes	3.184	-0.004	2.0	GoodResponse	1	0.197	413.759	8	43	Target	Win	True
414.759	0.3	Win2	0.7045	0.004	Yes	3.184	-0.004	2.0	GoodResponse	1	0.197	n/a	8	43	ButtonPress	Win	True
414.796	0.48	Win2	0.7045	n/a	Yes	3.184	n/a	n/a	GoodResponse	1	n/a	n/a	8	43	Blank	Win	True
415.264	1.45	Win2	0.7045	n/a	Yes	3.184	n/a	5.0	GoodResponse	1	0.023	414.287	8	43	Feedback	Win	True
416.718	3.184	Win2	0.7045	n/a	Yes	3.184	n/a	n/a	GoodResponse	1	0.0	n/a	8	43	ISIslide	Win	True
419.928	0.25	Win2	0.6889	0.0	No	2.972	0.028	n/a	NoResponse	0	n/a	n/a	8	44	Cue	MissedWin	True
420.179	4.0	Win2	0.6889	0.0	No	2.972	0.001	n/a	NoResponse	0	n/a	n/a	8	44	Fixation	MissedWin	True
424.174	0.21	Win2	0.6889	0.004	No	2.972	-0.004	2.0	NoResponse	0	0.226	423.4	8	44	Target	MissedWin	True
424.391	0.49	Win2	0.6889	n/a	No	2.972	n/a	n/a	NoResponse	0	n/a	n/a	8	44	Blank	MissedWin	True
424.4	0.3	Win2	0.6889	0.004	No	2.972	-0.004	2.0	NoResponse	0	0.226	n/a	8	44	ButtonPress	MissedWin	True
424.876	1.45	Win2	0.6889	n/a	No	2.972	n/a	5.0	NoResponse	0	0.02	423.896	8	44	Feedback	MissedWin	True
426.33	2.972	Win2	0.6889	n/a	No	2.972	n/a	n/a	NoResponse	0	0.0	n/a	8	44	ISIslide	MissedWin	True
429.323	0.25	Control	0.6739	0.0	No	2.877	0.023	n/a	NoResponse	0	n/a	n/a	8	45	Cue	Neutral	True
429.573	4.1	Control	0.6739	0.0	No	2.877	0.0	n/a	NoResponse	0	n/a	n/a	8	45	Fixation	Neutral	True
433.669	0.2	Control	0.6739	0.004	No	2.877	-0.004	2.0	NoResponse	0	0.258	432.927	8	45	Target	Neutral	True
433.869	0.5	Control	0.6739	n/a	No	2.877	n/a	n/a	NoResponse	0	n/a	n/a	8	45	Blank	Neutral	True
433.927	0.3	Control	0.6739	0.004	No	2.877	-0.004	2.0	NoResponse	0	0.258	n/a	8	45	ButtonPress	Neutral	True
434.371	1.45	Control	0.6739	n/a	No	2.877	n/a	5.0	NoResponse	0	0.038	433.409	8	45	Feedback	Neutral	True
435.825	2.877	Control	0.6739	n/a	No	2.877	n/a	n/a	NoResponse	0	0.0	n/a	8	45	ISIslide	Neutral	True
438.717	0.25	Lose2	0.6596	0.0	No	3.383	0.017	n/a	NoResponse	-1	n/a	n/a	7	46	Cue	Loss	True
438.968	4.0	Lose2	0.6596	0.0	No	3.383	0.001	n/a	NoResponse	-1	n/a	n/a	7	46	Fixation	Loss	True
442.963	0.19	Lose2	0.6596	0.004	No	3.383	-0.004	2.0	NoResponse	-1	0.21	442.173	7	46	Target	Loss	True
443.164	0.51	Lose2	0.6596	n/a	No	3.383	n/a	n/a	NoResponse	-1	n/a	n/a	7	46	Blank	Loss	True
443.173	0.3	Lose2	0.6596	0.004	No	3.383	-0.004	2.0	NoResponse	-1	0.21	n/a	7	46	ButtonPress	Loss	True
443.665	1.45	Lose2	0.6596	n/a	No	3.383	n/a	5.0	NoResponse	-1	0.011	442.676	7	46	Feedback	Loss	True
445.12	3.383	Lose2	0.6596	n/a	No	3.383	n/a	n/a	NoResponse	-1	0.0	n/a	7	46	ISIslide	Loss	True
448.53	0.25	Lose2	0.6457999999999999	0.0	No	2.67	0.03	n/a	NoResponse	-1	n/a	n/a	6	47	Cue	Loss	True
448.781	4.0	Lose2	0.6457999999999999	0.0	No	2.67	0.001	n/a	NoResponse	-1	n/a	n/a	6	47	Fixation	Loss	True
452.776	0.19	Lose2	0.6457999999999999	0.004	No	2.67	-0.004	2.0	NoResponse	-1	0.233	452.009	6	47	Target	Loss	True
452.977	0.51	Lose2	0.6457999999999999	n/a	No	2.67	n/a	n/a	NoResponse	-1	n/a	n/a	6	47	Blank	Loss	True
453.009	0.3	Lose2	0.6457999999999999	0.004	No	2.67	-0.004	2.0	NoResponse	-1	0.233	n/a	6	47	ButtonPress	Loss	True
453.478	1.45	Lose2	0.6457999999999999	n/a	No	2.67	n/a	5.0	NoResponse	-1	0.008	452.486	6	47	Feedback	Loss	True
454.932	2.67	Lose2	0.6457999999999999	n/a	No	2.67	n/a	n/a	NoResponse	-1	0.0	n/a	6	47	ISIslide	Loss	True
457.624	0.25	Lose2	0.6531	0.0	Yes	3.026	0.024	n/a	GoodResponse	0	n/a	n/a	6	48	Cue	AvoidedLoss	True
457.875	3.95	Lose2	0.6531	0.0	Yes	3.026	0.001	n/a	GoodResponse	0	n/a	n/a	6	48	Fixation	AvoidedLoss	True
461.82	0.2	Lose2	0.6531	0.004	Yes	3.026	-0.004	2.0	GoodResponse	0	0.18	461.0	6	48	Target	AvoidedLoss	True
462	0.3	Lose2	0.6531	0.004	Yes	3.026	-0.004	2.0	GoodResponse	0	0.18	n/a	6	48	ButtonPress	AvoidedLoss	True
462.02	0.5	Lose2	0.6531	n/a	Yes	3.026	n/a	n/a	GoodResponse	0	n/a	n/a	6	48	Blank	AvoidedLoss	True
462.522	1.45	Lose2	0.6531	n/a	Yes	3.026	n/a	5.0	GoodResponse	0	0.032	461.554	6	48	Feedback	AvoidedLoss	True
463.976	3.026	Lose2	0.6531	n/a	Yes	3.026	n/a	n/a	GoodResponse	0	0.0	n/a	6	48	ISIslide	AvoidedLoss	True
467.019	0.25	Control	0.64	0.0	No	2.881	0.019	n/a	PrematurePress	0	n/a	n/a	6	49	Cue	Neutral	True
467.269	4.0	Control	0.64	0.0	No	2.881	0.0	n/a	PrematurePress	0	n/a	n/a	6	49	Fixation	Neutral	True
471.265	0.21	Control	0.64	0.004	No	2.881	-0.004	2.0	PrematurePress	0	0.095	470.36	6	49	Target	Neutral	True
471.36	0.3	Control	0.64	0.004	No	2.881	-0.004	2.0	PrematurePress	0	0.095	n/a	6	49	ButtonPress	Neutral	True
471.482	0.49	Control	0.64	n/a	No	2.881	n/a	n/a	PrematurePress	0	n/a	n/a	6	49	Blank	Neutral	True
471.967	1.45	Control	0.64	n/a	No	2.881	n/a	5.0	PrematurePress	0	0.002	470.969	6	49	Feedback	Neutral	True
473.421	2.881	Control	0.64	n/a	No	2.881	n/a	n/a	PrematurePress	0	0.0	n/a	6	49	ISIslide	Neutral	True
476.33	0.25	Control	0.6275	0.0	No	2.77	0.03	n/a	NoResponse	0	n/a	n/a	6	50	Cue	Neutral	True
476.581	4.0	Control	0.6275	0.0	No	2.77	0.001	n/a	NoResponse	0	n/a	n/a	6	50	Fixation	Neutral	True
480.576	0.22	Control	0.6275	0.004	No	2.77	-0.004	2.0	NoResponse	0	0.255	479.831	6	50	Target	Neutral	True
480.81	0.48	Control	0.6275	n/a	No	2.77	n/a	n/a	NoResponse	0	n/a	n/a	6	50	Blank	Neutral	True
480.831	0.3	Control	0.6275	0.004	No	2.77	-0.004	2.0	NoResponse	0	0.255	n/a	6	50	ButtonPress	Neutral	True
481.278	1.45	Control	0.6275	n/a	No	2.77	n/a	5.0	NoResponse	0	0.008	480.286	6	50	Feedback	Neutral	True
482.732	2.77	Control	0.6275	n/a	No	2.77	n/a	n/a	NoResponse	0	0.0	n/a	6	50	ISIslide	Neutral	True
485.524	0.25	Control	0.6346	0.0	Yes	2.726	0.024	n/a	GoodResponse	0	n/a	n/a	6	51	Cue	Neutral	True
485.775	3.95	Control	0.6346	0.0	Yes	2.726	0.001	n/a	GoodResponse	0	n/a	n/a	6	51	Fixation	Neutral	True
489.72	0.23	Control	0.6346	0.004	Yes	2.726	-0.004	2.0	GoodResponse	0	0.184	488.904	6	51	Target	Neutral	True
489.904	0.3	Control	0.6346	0.004	Yes	2.726	-0.004	2.0	GoodResponse	0	0.184	n/a	6	51	ButtonPress	Neutral	True
489.954	0.47	Control	0.6346	n/a	Yes	2.726	n/a	n/a	GoodResponse	0	n/a	n/a	6	51	Blank	Neutral	True
490.422	1.45	Control	0.6346	n/a	Yes	2.726	n/a	5.0	GoodResponse	0	0.034	489.456	6	51	Feedback	Neutral	True
491.876	2.726	Control	0.6346	n/a	Yes	2.726	n/a	n/a	GoodResponse	0	0.0	n/a	6	51	ISIslide	Neutral	True
494.618	0.25	Control	0.6225999999999999	0.0	No	2.632	0.018	n/a	NoResponse	0	n/a	n/a	6	52	Cue	Neutral	False
494.869	4.05	Control	0.6225999999999999	0.0	No	2.632	0.001	2.0	NoResponse	0	3.278	497.147	6	52	Fixation	Neutral	False
498.147	0.3	Control	0.6225999999999999	0.0	No	2.632	0.001	2.0	NoResponse	0	3.278	n/a	6	52	ButtonPress	Neutral	False
498.914	0.24	Control	0.6225999999999999	0.004	No	2.632	-0.004	2.0	NoResponse	0	0.312	498.226	6	52	Target	Neutral	False
499.165	0.46	Control	0.6225999999999999	n/a	No	2.632	n/a	n/a	NoResponse	0	n/a	n/a	6	52	Blank	Neutral	False
499.226	0.3	Control	0.6225999999999999	0.004	No	2.632	-0.004	2.0	NoResponse	0	0.312	n/a	6	52	ButtonPress	Neutral	False
499.616	1.45	Control	0.6225999999999999	n/a	No	2.632	n/a	5.0	NoResponse	0	0.011	498.627	6	52	Feedback	Neutral	False
501.07	2.632	Control	0.6225999999999999	n/a	No	2.632	n/a	n/a	NoResponse	0	0.0	n/a	6	52	ISIslide	Neutral	False
503.728	0.25	Win2	0.6296	0.0	Yes	2.922	0.028	n/a	GoodResponse	1	n/a	n/a	7	53	Cue	Win	True
503.979	4.05	Win2	0.6296	0.0	Yes	2.922	0.001	n/a	GoodResponse	1	n/a	n/a	7	53	Fixation	Win	True
508.025	0.25	Win2	0.6296	0.003	Yes	2.922	-0.003	2.0	GoodResponse	1	0.161	507.186	7	53	Target	Win	True
508.186	0.3	Win2	0.6296	0.003	Yes	2.922	-0.003	2.0	GoodResponse	1	0.161	n/a	7	53	ButtonPress	Win	True
508.275	0.45	Win2	0.6296	n/a	Yes	2.922	n/a	n/a	GoodResponse	1	n/a	n/a	7	53	Blank	Win	True
508.727	1.45	Win2	0.6296	n/a	Yes	2.922	n/a	5.0	GoodResponse	1	0.022	507.749	7	53	Feedback	Win	True
510.181	2.922	Win2	0.6296	n/a	Yes	2.922	n/a	n/a	GoodResponse	1	0.0	n/a	7	53	ISIslide	Win	True
513.123	0.25	Win2	0.6182	0.0	No	2.727	0.023	n/a	PrematurePress	0	n/a	n/a	7	54	Cue	MissedWin	True
513.374	3.95	Win2	0.6182	0.0	No	2.727	0.001	n/a	PrematurePress	0	n/a	n/a	7	54	Fixation	MissedWin	True
517.319	0.26	Win2	0.6182	0.004	No	2.727	-0.004	2.0	PrematurePress	0	0.03	516.349	7	54	Target	MissedWin	True
517.349	0.3	Win2	0.6182	0.004	No	2.727	-0.004	2.0	PrematurePress	0	0.03	n/a	7	54	ButtonPress	MissedWin	True
517.586	0.44	Win2	0.6182	n/a	No	2.727	n/a	n/a	PrematurePress	0	n/a	n/a	7	54	Blank	MissedWin	True
518.021	1.45	Win2	0.6182	n/a	No	2.727	n/a	5.0	PrematurePress	0	0.045	517.066	7	54	Feedback	MissedWin	True
519.475	2.727	Win2	0.6182	n/a	No	2.727	n/a	n/a	PrematurePress	0	0.0	n/a	7	54	ISIslide	MissedWin	True
522.217	0.25	Control	0.6071	0.0	No	3.033	0.017	n/a	LatePress	0	n/a	n/a	7	55	Cue	Neutral	True
522.468	3.95	Control	0.6071	0.0	No	3.033	0.001	n/a	LatePress	0	n/a	n/a	7	55	Fixation	Neutral	True
526.413	0.27	Control	0.6071	0.004	No	3.033	-0.004	2.0	LatePress	0	0.278	525.691	7	55	Target	Neutral	True
526.691	0.3	Control	0.6071	0.004	No	3.033	-0.004	2.0	LatePress	0	0.278	n/a	7	55	ButtonPress	Neutral	True
526.697	0.43	Control	0.6071	n/a	No	3.033	n/a	n/a	LatePress	0	n/a	n/a	7	55	Blank	Neutral	True
527.115	1.45	Control	0.6071	n/a	No	3.033	n/a	5.0	LatePress	0	0.023	526.138	7	55	Feedback	Neutral	True
528.569	3.033	Control	0.6071	n/a	No	3.033	n/a	n/a	LatePress	0	0.0	n/a	7	55	ISIslide	Neutral	True
531.628	0.25	Control	0.5965	0.001	No	2.822	0.028	n/a	NoResponse	0	n/a	n/a	7	56	Cue	Neutral	True
531.879	3.95	Control	0.5965	0.0	No	2.822	0.001	n/a	NoResponse	0	n/a	n/a	7	56	Fixation	Neutral	True
535.824	0.28	Control	0.5965	0.004	No	2.822	-0.004	2.0	NoResponse	0	0.389	535.213	7	56	Target	Neutral	True
536.108	0.42	Control	0.5965	n/a	No	2.822	n/a	n/a	NoResponse	0	n/a	n/a	7	56	Blank	Neutral	True
536.213	0.3	Control	0.5965	0.004	No	2.822	-0.004	2.0	NoResponse	0	0.389	n/a	7	56	ButtonPress	Neutral	True
536.526	1.45	Control	0.5965	n/a	No	2.822	n/a	5.0	NoResponse	0	0.027	535.553	7	56	Feedback	Neutral	True
537.981	2.822	Control	0.5965	n/a	No	2.822	n/a	n/a	NoResponse	0	0.0	n/a	7	56	ISIslide	Neutral	True
540.823	0.25	Control	0.6034	0.0	Yes	3.477	0.023	n/a	GoodResponse	0	n/a	n/a	7	57	Cue	Neutral	True
541.073	4.0	Control	0.6034	0.0	Yes	3.477	0.0	n/a	GoodResponse	0	n/a	n/a	7	57	Fixation	Neutral	True
545.069	0.29	Control	0.6034	0.004	Yes	3.477	-0.004	2.0	GoodResponse	0	0.249	544.318	7	57	Target	Neutral	True
545.318	0.3	Control	0.6034	0.004	Yes	3.477	-0.004	2.0	GoodResponse	0	0.249	n/a	7	57	ButtonPress	Neutral	True
545.37	0.41	Control	0.6034	n/a	Yes	3.477	n/a	n/a	GoodResponse	0	n/a	n/a	7	57	Blank	Neutral	True
545.771	1.45	Control	0.6034	n/a	Yes	3.477	n/a	5.0	GoodResponse	0	0.002	544.773	7	57	Feedback	Neutral	True
547.225	3.477	Control	0.6034	n/a	Yes	3.477	n/a	n/a	GoodResponse	0	0.0	n/a	7	57	ISIslide	Neutral	True
550.719	0.25	Win2	0.6102000000000001	0.0	Yes	2.731	0.019	n/a	GoodResponse	1	n/a	n/a	8	58	Cue	Win	True
550.97	4.05	Win2	0.6102000000000001	0.0	Yes	2.731	0.001	n/a	GoodResponse	1	n/a	n/a	8	58	Fixation	Win	True
555.015	0.3	Win2	0.6102000000000001	0.004	Yes	2.731	-0.004	2.0	GoodResponse	1	0.203	554.218	8	58	Target	Win	True
555.218	0.3	Win2	0.6102000000000001	0.004	Yes	2.731	-0.004	2.0	GoodResponse	1	0.203	n/a	8	58	ButtonPress	Win	True
555.316	0.4	Win2	0.6102000000000001	n/a	Yes	2.731	n/a	n/a	GoodResponse	1	n/a	n/a	8	58	Blank	Win	True
555.717	1.45	Win2	0.6102000000000001	n/a	Yes	2.731	n/a	5.0	GoodResponse	1	0.008	554.725	8	58	Feedback	Win	True
557.171	2.731	Win2	0.6102000000000001	n/a	Yes	2.731	n/a	n/a	GoodResponse	1	0.0	n/a	8	58	ISIslide	Win	True
559.93	0.25	Lose2	0.6167	0.0	Yes	2.67	0.03	n/a	GoodResponse	0	n/a	n/a	8	59	Cue	AvoidedLoss	True
560.18	4.0	Lose2	0.6167	0.001	Yes	2.67	0.0	n/a	GoodResponse	0	n/a	n/a	8	59	Fixation	AvoidedLoss	True
564.176	0.31	Lose2	0.6167	0.004	Yes	2.67	-0.004	2.0	GoodResponse	0	0.179	563.355	8	59	Target	AvoidedLoss	True
564.355	0.3	Lose2	0.6167	0.004	Yes	2.67	-0.004	2.0	GoodResponse	0	0.179	n/a	8	59	ButtonPress	AvoidedLoss	True
564.493	0.39	Lose2	0.6167	n/a	Yes	2.67	n/a	n/a	GoodResponse	0	n/a	n/a	8	59	Blank	AvoidedLoss	True
564.878	1.45	Lose2	0.6167	n/a	Yes	2.67	n/a	5.0	GoodResponse	0	0.016	563.894	8	59	Feedback	AvoidedLoss	True
566.332	2.67	Lose2	0.6167	n/a	Yes	2.67	n/a	n/a	GoodResponse	0	0.0	n/a	8	59	ISIslide	AvoidedLoss	True
569.024	0.25	Control	0.6065999999999999	0.0	No	2.676	0.024	n/a	NoResponse	0	n/a	n/a	8	60	Cue	Neutral	True
569.274	4.0	Control	0.6065999999999999	0.0	No	2.676	0.0	n/a	NoResponse	0	n/a	n/a	8	60	Fixation	Neutral	True
573.27	0.32	Control	0.6065999999999999	0.004	No	2.676	-0.004	2.0	NoResponse	0	0.345	572.615	8	60	Target	Neutral	True
573.604	0.38	Control	0.6065999999999999	n/a	No	2.676	n/a	n/a	NoResponse	0	n/a	n/a	8	60	Blank	Neutral	True
573.615	0.3	Control	0.6065999999999999	0.004	No	2.676	-0.004	2.0	NoResponse	0	0.345	n/a	8	60	ButtonPress	Neutral	True
573.972	1.45	Control	0.6065999999999999	n/a	No	2.676	n/a	5.0	NoResponse	0	0.044	573.016	8	60	Feedback	Neutral	True
575.426	2.676	Control	0.6065999999999999	n/a	No	2.676	n/a	n/a	NoResponse	0	0.0	n/a	8	60	ISIslide	Neutral	True
578.117	0.25	Lose2	0.6129	0.001	Yes	2.983	0.017	n/a	GoodResponse	0	n/a	n/a	8	61	Cue	AvoidedLoss	True
578.368	4.0	Lose2	0.6129	0.0	Yes	2.983	0.001	n/a	GoodResponse	0	n/a	n/a	8	61	Fixation	AvoidedLoss	True
582.363	0.33	Lose2	0.6129	0.004	Yes	2.983	-0.004	2.0	GoodResponse	0	0.206	581.569	8	61	Target	AvoidedLoss	True
582.569	0.3	Lose2	0.6129	0.004	Yes	2.983	-0.004	2.0	GoodResponse	0	0.206	n/a	8	61	ButtonPress	AvoidedLoss	True
582.698	0.37	Lose2	0.6129	n/a	Yes	2.983	n/a	n/a	GoodResponse	0	n/a	n/a	8	61	Blank	AvoidedLoss	True
583.066	1.45	Lose2	0.6129	n/a	Yes	2.983	n/a	5.0	GoodResponse	0	0.023	582.089	8	61	Feedback	AvoidedLoss	True
584.52	2.983	Lose2	0.6129	n/a	Yes	2.983	n/a	n/a	GoodResponse	0	0.0	n/a	8	61	ISIslide	AvoidedLoss	True
587.529	0.25	Lose2	0.619	0.0	Yes	2.871	0.029	n/a	GoodResponse	0	n/a	n/a	8	62	Cue	AvoidedLoss	True
587.78	3.9	Lose2	0.619	0.0	Yes	2.871	0.001	n/a	GoodResponse	0	n/a	n/a	8	62	Fixation	AvoidedLoss	True
591.675	0.34	Lose2	0.619	0.004	Yes	2.871	-0.004	2.0	GoodResponse	0	0.186	590.861	8	62	Target	AvoidedLoss	True
591.861	0.3	Lose2	0.619	0.004	Yes	2.871	-0.004	2.0	GoodResponse	0	0.186	n/a	8	62	ButtonPress	AvoidedLoss	True
592.026	0.36	Lose2	0.619	n/a	Yes	2.871	n/a	n/a	GoodResponse	0	n/a	n/a	8	62	Blank	AvoidedLoss	True
592.377	1.45	Lose2	0.619	n/a	Yes	2.871	n/a	5.0	GoodResponse	0	0.029	591.406	8	62	Feedback	AvoidedLoss	True
593.831	2.871	Lose2	0.619	n/a	Yes	2.871	n/a	n/a	GoodResponse	0	0.0	n/a	8	62	ISIslide	AvoidedLoss	True
596.723	0.25	Lose2	0.625	0.0	Yes	2.627	0.023	n/a	GoodResponse	0	n/a	n/a	8	63	Cue	AvoidedLoss	True
596.974	4.05	Lose2	0.625	0.0	Yes	2.627	0.001	n/a	GoodResponse	0	n/a	n/a	8	63	Fixation	AvoidedLoss	True
601.019	0.35	Lose2	0.625	0.004	Yes	2.627	-0.004	2.0	GoodResponse	0	0.205	600.224	8	63	Target	AvoidedLoss	True
601.224	0.3	Lose2	0.625	0.004	Yes	2.627	-0.004	2.0	GoodResponse	0	0.205	n/a	8	63	ButtonPress	AvoidedLoss	True
601.37	0.35	Lose2	0.625	n/a	Yes	2.627	n/a	n/a	GoodResponse	0	n/a	n/a	8	63	Blank	AvoidedLoss	True
601.721	1.45	Lose2	0.625	n/a	Yes	2.627	n/a	5.0	GoodResponse	0	0.008	600.729	8	63	Feedback	AvoidedLoss	True
603.176	2.627	Lose2	0.625	n/a	Yes	2.627	n/a	n/a	GoodResponse	0	0.0	n/a	8	63	ISIslide	AvoidedLoss	True
605.817	0.25	Win2	0.6308	0.0	Yes	3.133	0.017	n/a	GoodResponse	1	n/a	n/a	9	64	Cue	Win	True
606.068	4.15	Win2	0.6308	0.0	Yes	3.133	0.001	n/a	GoodResponse	1	n/a	n/a	9	64	Fixation	Win	True
610.213	0.36	Win2	0.6308	0.004	Yes	3.133	-0.004	2.0	GoodResponse	1	0.21	609.423	9	64	Target	Win	True
610.423	0.3	Win2	0.6308	0.004	Yes	3.133	-0.004	2.0	GoodResponse	1	0.21	n/a	9	64	ButtonPress	Win	True
610.581	0.34	Win2	0.6308	n/a	Yes	3.133	n/a	n/a	GoodResponse	1	n/a	n/a	9	64	Blank	Win	True
610.915	1.45	Win2	0.6308	n/a	Yes	3.133	n/a	5.0	GoodResponse	1	0.027	609.942	9	64	Feedback	Win	True
612.37	3.133	Win2	0.6308	n/a	Yes	3.133	n/a	n/a	GoodResponse	1	0.0	n/a	9	64	ISIslide	Win	True
615.529	0.25	Control	0.6212	0.0	No	2.771	0.029	n/a	NoResponse	0	n/a	n/a	9	65	Cue	Neutral	True
615.78	4.0	Control	0.6212	0.0	No	2.771	0.001	n/a	NoResponse	0	n/a	n/a	9	65	Fixation	Neutral	True
619.775	0.37	Control	0.6212	0.004	No	2.771	-0.004	2.0	NoResponse	0	0.418	619.193	9	65	Target	Neutral	True
620.16	0.33	Control	0.6212	n/a	No	2.771	n/a	n/a	NoResponse	0	n/a	n/a	9	65	Blank	Neutral	True
620.193	0.3	Control	0.6212	0.004	No	2.771	-0.004	2.0	NoResponse	0	0.418	n/a	9	65	ButtonPress	Neutral	True
620.477	1.45	Control	0.6212	n/a	No	2.771	n/a	5.0	NoResponse	0	0.026	619.503	9	65	Feedback	Neutral	True
621.932	2.771	Control	0.6212	n/a	No	2.771	n/a	n/a	NoResponse	0	0.0	n/a	9	65	ISIslide	Neutral	True
624.723	0.25	Win2	0.6269	0.001	Yes	2.777	0.023	n/a	GoodResponse	1	n/a	n/a	10	66	Cue	Win	True
624.974	3.9	Win2	0.6269	0.0	Yes	2.777	0.001	n/a	GoodResponse	1	n/a	n/a	10	66	Fixation	Win	True
628.869	0.38	Win2	0.6269	0.004	Yes	2.777	-0.004	2.0	GoodResponse	1	0.195	628.064	10	66	Target	Win	True
629.064	0.3	Win2	0.6269	0.004	Yes	2.777	-0.004	2.0	GoodResponse	1	0.195	n/a	10	66	ButtonPress	Win	True
629.254	0.32	Win2	0.6269	n/a	Yes	2.777	n/a	n/a	GoodResponse	1	n/a	n/a	10	66	Blank	Win	True
629.571	1.45	Win2	0.6269	n/a	Yes	2.777	n/a	5.0	GoodResponse	1	0.008	628.579	10	66	Feedback	Win	True
631.026	2.777	Win2	0.6269	n/a	Yes	2.777	n/a	n/a	GoodResponse	1	0.0	n/a	10	66	ISIslide	Win	True
633.817	0.25	Control	0.6324000000000001	0.0	Yes	2.733	0.017	n/a	GoodResponse	0	n/a	n/a	10	67	Cue	Neutral	True
634.068	3.95	Control	0.6324000000000001	0.0	Yes	2.733	0.001	n/a	GoodResponse	0	n/a	n/a	10	67	Fixation	Neutral	True
638.013	0.39	Control	0.6324000000000001	0.004	Yes	2.733	-0.004	2.0	GoodResponse	0	0.225	637.238	10	67	Target	Neutral	True
638.238	0.3	Control	0.6324000000000001	0.004	Yes	2.733	-0.004	2.0	GoodResponse	0	0.225	n/a	10	67	ButtonPress	Neutral	True
638.414	0.31	Control	0.6324000000000001	n/a	Yes	2.733	n/a	n/a	GoodResponse	0	n/a	n/a	10	67	Blank	Neutral	True
638.715	1.45	Control	0.6324000000000001	n/a	Yes	2.733	n/a	5.0	GoodResponse	0	0.032	637.747	10	67	Feedback	Neutral	True
640.17	2.733	Control	0.6324000000000001	n/a	Yes	2.733	n/a	n/a	GoodResponse	0	0.0	n/a	10	67	ISIslide	Neutral	True
642.928	0.25	Win2	0.6377	0.0	Yes	3.072	0.028	n/a	GoodResponse	1	n/a	n/a	11	68	Cue	Win	True
643.179	4.0	Win2	0.6377	0.0	Yes	3.072	0.001	n/a	GoodResponse	1	n/a	n/a	11	68	Fixation	Win	True
647.174	0.4	Win2	0.6377	0.004	Yes	3.072	-0.004	2.0	GoodResponse	1	0.209	646.383	11	68	Target	Win	True
647.383	0.3	Win2	0.6377	0.004	Yes	3.072	-0.004	2.0	GoodResponse	1	0.209	n/a	11	68	ButtonPress	Win	True
647.575	0.3	Win2	0.6377	n/a	Yes	3.072	n/a	n/a	GoodResponse	1	n/a	n/a	11	68	Blank	Win	True
647.876	1.45	Win2	0.6377	n/a	Yes	3.072	n/a	5.0	GoodResponse	1	0.042	646.918	11	68	Feedback	Win	True
649.33	3.072	Win2	0.6377	n/a	Yes	3.072	n/a	n/a	GoodResponse	1	0.0	n/a	11	68	ISIslide	Win	True
652.423	0.25	Win2	0.6429	0.0	Yes	3.227	0.023	n/a	GoodResponse	1	n/a	n/a	12	69	Cue	Win	True
652.674	3.95	Win2	0.6429	0.0	Yes	3.227	0.001	n/a	GoodResponse	1	n/a	n/a	12	69	Fixation	Win	True
656.619	0.41	Win2	0.6429	0.004	Yes	3.227	-0.004	2.0	GoodResponse	1	0.213	655.832	12	69	Target	Win	True
656.832	0.3	Win2	0.6429	0.004	Yes	3.227	-0.004	2.0	GoodResponse	1	0.213	n/a	12	69	ButtonPress	Win	True
657.037	0.29	Win2	0.6429	n/a	Yes	3.227	n/a	n/a	GoodResponse	1	n/a	n/a	12	69	Blank	Win	True
657.321	1.45	Win2	0.6429	n/a	Yes	3.227	n/a	5.0	GoodResponse	1	0.011	656.332	12	69	Feedback	Win	True
658.775	3.227	Win2	0.6429	n/a	Yes	3.227	n/a	n/a	GoodResponse	1	0.0	n/a	12	69	ISIslide	Win	True
662.018	0.25	Lose2	0.6479	0.0	Yes	3.032	0.018	n/a	GoodResponse	0	n/a	n/a	12	70	Cue	AvoidedLoss	True
662.269	4.05	Lose2	0.6479	0.0	Yes	3.032	0.001	n/a	GoodResponse	0	n/a	n/a	12	70	Fixation	AvoidedLoss	True
666.314	0.42	Lose2	0.6479	0.004	Yes	3.032	-0.004	2.0	GoodResponse	0	0.194	665.508	12	70	Target	AvoidedLoss	True
666.508	0.3	Lose2	0.6479	0.004	Yes	3.032	-0.004	2.0	GoodResponse	0	0.194	n/a	12	70	ButtonPress	AvoidedLoss	True
666.749	0.28	Lose2	0.6479	n/a	Yes	3.032	n/a	n/a	GoodResponse	0	n/a	n/a	12	70	Blank	AvoidedLoss	True
667.017	1.45	Lose2	0.6479	n/a	Yes	3.032	n/a	5.0	GoodResponse	0	0.022	666.039	12	70	Feedback	AvoidedLoss	True
668.471	3.032	Lose2	0.6479	n/a	Yes	3.032	n/a	n/a	GoodResponse	0	0.0	n/a	12	70	ISIslide	AvoidedLoss	True
671.53	0.25	Win2	0.6528	0.0	Yes	2.72	0.03	n/a	GoodResponse	1	n/a	n/a	13	71	Cue	Win	True
671.781	4.05	Win2	0.6528	0.0	Yes	2.72	0.001	n/a	GoodResponse	1	n/a	n/a	13	71	Fixation	Win	True
675.826	0.43	Win2	0.6528	0.004	Yes	2.72	-0.004	2.0	GoodResponse	1	0.2	675.026	13	71	Target	Win	True
676.026	0.3	Win2	0.6528	0.004	Yes	2.72	-0.004	2.0	GoodResponse	1	0.2	n/a	13	71	ButtonPress	Win	True
676.261	0.27	Win2	0.6528	n/a	Yes	2.72	n/a	n/a	GoodResponse	1	n/a	n/a	13	71	Blank	Win	True
676.528	1.45	Win2	0.6528	n/a	Yes	2.72	n/a	5.0	GoodResponse	1	0.024	675.552	13	71	Feedback	Win	True
677.983	2.72	Win2	0.6528	n/a	Yes	2.72	n/a	n/a	GoodResponse	1	0.0	n/a	13	71	ISIslide	Win	True
680.724	0.25	Win2	0.6575	0.0	Yes	2.776	0.024	n/a	GoodResponse	1	n/a	n/a	14	72	Cue	Win	True
680.975	4.1	Win2	0.6575	0.0	Yes	2.776	0.001	n/a	GoodResponse	1	n/a	n/a	14	72	Fixation	Win	True
685.071	0.44	Win2	0.6575	0.003	Yes	2.776	-0.003	2.0	GoodResponse	1	0.26	684.331	14	72	Target	Win	True
685.331	0.3	Win2	0.6575	0.003	Yes	2.776	-0.003	2.0	GoodResponse	1	0.26	n/a	14	72	ButtonPress	Win	True
685.522	0.26	Win2	0.6575	n/a	Yes	2.776	n/a	n/a	GoodResponse	1	n/a	n/a	14	72	Blank	Win	True
685.773	1.45	Win2	0.6575	n/a	Yes	2.776	n/a	5.0	GoodResponse	1	0.047	684.82	14	72	Feedback	Win	True
687.227	2.776	Win2	0.6575	n/a	Yes	2.776	n/a	n/a	GoodResponse	1	0.0	n/a	14	72	ISIslide	Win	True
690.019	0.25	Win2	0.6622	0.0	Yes	2.681	0.019	n/a	GoodResponse	1	n/a	n/a	15	73	Cue	Win	True
690.269	4.0	Win2	0.6622	0.0	Yes	2.681	0.0	n/a	GoodResponse	1	n/a	n/a	15	73	Fixation	Win	True
694.265	0.44	Win2	0.6622	0.004	Yes	2.681	-0.004	2.0	GoodResponse	1	0.183	693.448	15	73	Target	Win	True
694.448	0.3	Win2	0.6622	0.004	Yes	2.681	-0.004	2.0	GoodResponse	1	0.183	n/a	15	73	ButtonPress	Win	True
694.716	0.26	Win2	0.6622	n/a	Yes	2.681	n/a	n/a	GoodResponse	1	n/a	n/a	15	73	Blank	Win	True
694.967	1.45	Win2	0.6622	n/a	Yes	2.681	n/a	5.0	GoodResponse	1	0.023	693.99	15	73	Feedback	Win	True
696.421	2.681	Win2	0.6622	n/a	Yes	2.681	n/a	n/a	GoodResponse	1	0.0	n/a	15	73	ISIslide	Win	True
699.129	0.25	Lose2	0.6667000000000001	0.0	Yes	2.621	0.029	n/a	GoodResponse	0	n/a	n/a	15	74	Cue	AvoidedLoss	True
699.38	4.05	Lose2	0.6667000000000001	0.0	Yes	2.621	0.001	n/a	GoodResponse	0	n/a	n/a	15	74	Fixation	AvoidedLoss	True
703.425	0.44	Lose2	0.6667000000000001	0.004	Yes	2.621	-0.004	2.0	GoodResponse	0	0.175	702.6	15	74	Target	AvoidedLoss	True
703.6	0.3	Lose2	0.6667000000000001	0.004	Yes	2.621	-0.004	2.0	GoodResponse	0	0.175	n/a	15	74	ButtonPress	AvoidedLoss	True
703.877	0.26	Lose2	0.6667000000000001	n/a	Yes	2.621	n/a	n/a	GoodResponse	0	n/a	n/a	15	74	Blank	AvoidedLoss	True
704.128	1.45	Lose2	0.6667000000000001	n/a	Yes	2.621	n/a	5.0	GoodResponse	0	0.033	703.161	15	74	Feedback	AvoidedLoss	True
705.582	2.621	Lose2	0.6667000000000001	n/a	Yes	2.621	n/a	n/a	GoodResponse	0	0.0	n/a	15	74	ISIslide	AvoidedLoss	True
708.223	0.25	Lose2	0.6711	0.0	Yes	2.927	0.023	n/a	GoodResponse	0	n/a	n/a	15	75	Cue	AvoidedLoss	True
708.474	3.95	Lose2	0.6711	0.0	Yes	2.927	0.001	n/a	GoodResponse	0	n/a	n/a	15	75	Fixation	AvoidedLoss	True
712.419	0.43	Lose2	0.6711	0.004	Yes	2.927	-0.004	2.0	GoodResponse	0	0.211	711.63	15	75	Target	AvoidedLoss	True
712.63	0.3	Lose2	0.6711	0.004	Yes	2.927	-0.004	2.0	GoodResponse	0	0.211	n/a	15	75	ButtonPress	AvoidedLoss	True
712.854	0.27	Lose2	0.6711	n/a	Yes	2.927	n/a	n/a	GoodResponse	0	n/a	n/a	15	75	Blank	AvoidedLoss	True
713.121	1.45	Lose2	0.6711	n/a	Yes	2.927	n/a	5.0	GoodResponse	0	0.015	712.136	15	75	Feedback	AvoidedLoss	True
714.575	2.927	Lose2	0.6711	n/a	Yes	2.927	n/a	n/a	GoodResponse	0	0.0	n/a	15	75	ISIslide	AvoidedLoss	True
717.518	0.25	Control	0.6753	0.0	Yes	3.232	0.018	n/a	GoodResponse	0	n/a	n/a	15	76	Cue	Neutral	False
717.768	4.05	Control	0.6753	0.0	Yes	3.232	0.0	2.0	GoodResponse	0	3.655	720.423	15	76	Fixation	Neutral	False
721.423	0.3	Control	0.6753	0.0	Yes	3.232	0.0	2.0	GoodResponse	0	3.655	n/a	15	76	ButtonPress	Neutral	False
721.814	0.42	Control	0.6753	0.004	Yes	3.232	-0.004	2.0	GoodResponse	0	0.378	721.192	15	76	Target	Neutral	False
722.192	0.3	Control	0.6753	0.004	Yes	3.232	-0.004	2.0	GoodResponse	0	0.378	n/a	15	76	ButtonPress	Neutral	False
722.248	0.28	Control	0.6753	n/a	Yes	3.232	n/a	n/a	GoodResponse	0	n/a	n/a	15	76	Blank	Neutral	False
722.516	1.45	Control	0.6753	n/a	Yes	3.232	n/a	5.0	GoodResponse	0	0.035	721.551	15	76	Feedback	Neutral	False
723.97	3.232	Control	0.6753	n/a	Yes	3.232	n/a	n/a	GoodResponse	0	0.0	n/a	15	76	ISIslide	Neutral	False
727.23	0.25	Lose2	0.6795	0.0	Yes	2.57	0.03	n/a	GoodResponse	0	n/a	n/a	15	77	Cue	AvoidedLoss	True
727.481	3.95	Lose2	0.6795	0.0	Yes	2.57	0.001	n/a	GoodResponse	0	n/a	n/a	15	77	Fixation	AvoidedLoss	True
731.426	0.41	Lose2	0.6795	0.004	Yes	2.57	-0.004	2.0	GoodResponse	0	0.269	730.695	15	77	Target	AvoidedLoss	True
731.695	0.3	Lose2	0.6795	0.004	Yes	2.57	-0.004	2.0	GoodResponse	0	0.269	n/a	15	77	ButtonPress	AvoidedLoss	True
731.844	0.29	Lose2	0.6795	n/a	Yes	2.57	n/a	n/a	GoodResponse	0	n/a	n/a	15	77	Blank	AvoidedLoss	True
732.128	1.45	Lose2	0.6795	n/a	Yes	2.57	n/a	5.0	GoodResponse	0	0.033	731.161	15	77	Feedback	AvoidedLoss	True
733.582	2.57	Lose2	0.6795	n/a	Yes	2.57	n/a	n/a	GoodResponse	0	0.0	n/a	15	77	ISIslide	AvoidedLoss	True
