onset	duration	cue_type	current_mean_accuracy	duration_error	is_hit	isi_adjusted	onset_delay	response	response_type	reward	rt	rt_time	total_reward	trial_number	trial_phase	trial_type	one_press
11.1	0.25	Control	1.0	0.001	Yes	2.95	0.0	n/a	GoodResponse	0	n/a	n/a	0	0	Cue	Neutral	True
11.351	3.85	Control	1.0	0.0	Yes	2.95	0.001	n/a	GoodResponse	0	n/a	n/a	0	0	Fixation	Neutral	True
15.196	0.4	Control	1.0	0.004	Yes	2.95	-0.004	2.0	GoodResponse	0	0.188	14.384	0	0	Target	Neutral	True
15.384	0.3	Control	1.0	0.004	Yes	2.95	-0.004	2.0	GoodResponse	0	0.188	n/a	0	0	ButtonPress	Neutral	True
15.597	0.3	Control	1.0	n/a	Yes	2.95	n/a	n/a	GoodResponse	0	n/a	n/a	0	0	Blank	Neutral	True
15.898	1.45	Control	1.0	n/a	Yes	2.95	n/a	5.0	GoodResponse	0	0.028	14.926	0	0	Feedback	Neutral	True
17.353	2.95	Control	1.0	n/a	Yes	2.95	n/a	n/a	GoodResponse	0	0.0	n/a	0	0	ISIslide	Neutral	True
20.328	0.25	Lose2	1.0	0.0	Yes	2.772	0.028	n/a	GoodResponse	0	n/a	n/a	0	1	Cue	AvoidedLoss	True
20.579	4.0	Lose2	1.0	0.0	Yes	2.772	0.001	n/a	GoodResponse	0	n/a	n/a	0	1	Fixation	AvoidedLoss	True
24.574	0.39	Lose2	1.0	0.004	Yes	2.772	-0.004	2.0	GoodResponse	0	0.185	23.759	0	1	Target	AvoidedLoss	True
24.759	0.3	Lose2	1.0	0.004	Yes	2.772	-0.004	2.0	GoodResponse	0	0.185	n/a	0	1	ButtonPress	AvoidedLoss	True
24.975	0.31	Lose2	1.0	n/a	Yes	2.772	n/a	n/a	GoodResponse	0	n/a	n/a	0	1	Blank	AvoidedLoss	True
25.276	1.45	Lose2	1.0	n/a	Yes	2.772	n/a	5.0	GoodResponse	0	0.016	24.292	0	1	Feedback	AvoidedLoss	True
26.731	2.772	Lose2	1.0	n/a	Yes	2.772	n/a	n/a	GoodResponse	0	0.0	n/a	0	1	ISIslide	AvoidedLoss	True
29.522	0.25	Control	1.0	0.0	Yes	2.578	0.022	n/a	GoodResponse	0	n/a	n/a	0	2	Cue	Neutral	True
29.773	4.1	Control	1.0	0.0	Yes	2.578	0.001	n/a	GoodResponse	0	n/a	n/a	0	2	Fixation	Neutral	True
33.869	0.38	Control	1.0	0.003	Yes	2.578	-0.003	2.0	GoodResponse	0	0.246	33.115	0	2	Target	Neutral	True
34.115	0.3	Control	1.0	0.003	Yes	2.578	-0.003	2.0	GoodResponse	0	0.246	n/a	0	2	ButtonPress	Neutral	True
34.253	0.32	Control	1.0	n/a	Yes	2.578	n/a	n/a	GoodResponse	0	n/a	n/a	0	2	Blank	Neutral	True
34.571	1.45	Control	1.0	n/a	Yes	2.578	n/a	5.0	GoodResponse	0	0.037	33.608	0	2	Feedback	Neutral	True
36.025	2.578	Control	1.0	n/a	Yes	2.578	n/a	n/a	GoodResponse	0	0.0	n/a	0	2	ISIslide	Neutral	True
38.616	0.25	Win2	1.0	0.0	Yes	2.834	0.016	n/a	GoodResponse	1	n/a	n/a	1	3	Cue	Win	True
38.867	3.95	Win2	1.0	0.0	Yes	2.834	0.001	n/a	GoodResponse	1	n/a	n/a	1	3	Fixation	Win	True
42.812	0.37	Win2	1.0	0.004	Yes	2.834	-0.004	2.0	GoodResponse	1	0.177	41.989	1	3	Target	Win	True
42.989	0.3	Win2	1.0	0.004	Yes	2.834	-0.004	2.0	GoodResponse	1	0.177	n/a	1	3	ButtonPress	Win	True
43.197	0.33	Win2	1.0	n/a	Yes	2.834	n/a	n/a	GoodResponse	1	n/a	n/a	1	3	Blank	Win	True
43.514	1.45	Win2	1.0	n/a	Yes	2.834	n/a	5.0	GoodResponse	1	0.021	42.535	1	3	Feedback	Win	True
44.969	2.834	Win2	1.0	n/a	Yes	2.834	n/a	n/a	GoodResponse	1	0.0	n/a	1	3	ISIslide	Win	True
47.827	0.25	Win2	1.0	0.0	Yes	3.273	0.027	n/a	GoodResponse	1	n/a	n/a	2	4	Cue	Win	True
48.078	4.0	Win2	1.0	0.0	Yes	3.273	0.001	n/a	GoodResponse	1	n/a	n/a	2	4	Fixation	Win	True
52.073	0.36	Win2	1.0	0.004	Yes	3.273	-0.004	2.0	GoodResponse	1	0.195	51.268	2	4	Target	Win	True
52.268	0.3	Win2	1.0	0.004	Yes	3.273	-0.004	2.0	GoodResponse	1	0.195	n/a	2	4	ButtonPress	Win	True
52.441	0.34	Win2	1.0	n/a	Yes	3.273	n/a	n/a	GoodResponse	1	n/a	n/a	2	4	Blank	Win	True
52.775	1.45	Win2	1.0	n/a	Yes	3.273	n/a	5.0	GoodResponse	1	0.029	51.804	2	4	Feedback	Win	True
54.23	3.273	Win2	1.0	n/a	Yes	3.273	n/a	n/a	GoodResponse	1	0.0	n/a	2	4	ISIslide	Win	True
57.523	0.25	Win2	1.0	0.0	Yes	2.777	0.023	n/a	GoodResponse	1	n/a	n/a	3	5	Cue	Win	True
57.774	4.0	Win2	1.0	0.0	Yes	2.777	0.001	n/a	GoodResponse	1	n/a	n/a	3	5	Fixation	Win	True
61.769	0.35	Win2	1.0	0.004	Yes	2.777	-0.004	2.0	GoodResponse	1	0.281	61.05	3	5	Target	Win	True
62.05	0.3	Win2	1.0	0.004	Yes	2.777	-0.004	2.0	GoodResponse	1	0.281	n/a	3	5	ButtonPress	Win	True
62.12	0.35	Win2	1.0	n/a	Yes	2.777	n/a	n/a	GoodResponse	1	n/a	n/a	3	5	Blank	Win	True
62.471	1.45	Win2	1.0	n/a	Yes	2.777	n/a	5.0	GoodResponse	1	0.04	61.511	3	5	Feedback	Win	True
63.926	2.777	Win2	1.0	n/a	Yes	2.777	n/a	n/a	GoodResponse	1	0.0	n/a	3	5	ISIslide	Win	True
66.717	0.25	Lose2	1.0	0.0	Yes	2.733	0.017	n/a	GoodResponse	0	n/a	n/a	3	6	Cue	AvoidedLoss	True
66.968	3.95	Lose2	1.0	0.0	Yes	2.733	0.001	n/a	GoodResponse	0	n/a	n/a	3	6	Fixation	AvoidedLoss	True
70.913	0.34	Lose2	1.0	0.004	Yes	2.733	-0.004	2.0	GoodResponse	0	0.212	70.125	3	6	Target	AvoidedLoss	True
71.125	0.3	Lose2	1.0	0.004	Yes	2.733	-0.004	2.0	GoodResponse	0	0.212	n/a	3	6	ButtonPress	AvoidedLoss	True
71.264	0.36	Lose2	1.0	n/a	Yes	2.733	n/a	n/a	GoodResponse	0	n/a	n/a	3	6	Blank	AvoidedLoss	True
71.615	1.45	Lose2	1.0	n/a	Yes	2.733	n/a	5.0	GoodResponse	0	0.018	70.633	3	6	Feedback	AvoidedLoss	True
73.07	2.733	Lose2	1.0	n/a	Yes	2.733	n/a	n/a	GoodResponse	0	0.0	n/a	3	6	ISIslide	AvoidedLoss	True
75.828	0.25	Lose2	0.875	0.0	No	4.022	0.028	n/a	PrematurePress	-1	n/a	n/a	2	7	Cue	Loss	True
76.079	4.05	Lose2	0.875	0.0	No	4.022	0.001	n/a	PrematurePress	-1	n/a	n/a	2	7	Fixation	Loss	True
80.124	0.33	Lose2	0.875	0.004	No	4.022	-0.004	2.0	PrematurePress	-1	0.077	79.201	2	7	Target	Loss	True
80.201	0.3	Lose2	0.875	0.004	No	4.022	-0.004	2.0	PrematurePress	-1	0.077	n/a	2	7	ButtonPress	Loss	True
80.458	0.37	Lose2	0.875	n/a	No	4.022	n/a	n/a	PrematurePress	-1	n/a	n/a	2	7	Blank	Loss	True
80.826	1.45	Lose2	0.875	n/a	No	4.022	n/a	5.0	PrematurePress	-1	0.027	79.853	2	7	Feedback	Loss	True
82.281	4.022	Lose2	0.875	n/a	No	4.022	n/a	n/a	PrematurePress	-1	0.0	n/a	2	7	ISIslide	Loss	True
86.326	0.25	Lose2	0.8889	0.0	Yes	3.024	0.026	n/a	GoodResponse	0	n/a	n/a	2	8	Cue	AvoidedLoss	True
86.577	3.95	Lose2	0.8889	0.0	Yes	3.024	0.001	n/a	GoodResponse	0	n/a	n/a	2	8	Fixation	AvoidedLoss	True
90.522	0.32	Lose2	0.8889	0.004	Yes	3.024	-0.004	2.0	GoodResponse	0	0.201	89.723	2	8	Target	AvoidedLoss	True
90.723	0.3	Lose2	0.8889	0.004	Yes	3.024	-0.004	2.0	GoodResponse	0	0.201	n/a	2	8	ButtonPress	AvoidedLoss	True
90.856	0.38	Lose2	0.8889	n/a	Yes	3.024	n/a	n/a	GoodResponse	0	n/a	n/a	2	8	Blank	AvoidedLoss	True
91.224	1.45	Lose2	0.8889	n/a	Yes	3.024	n/a	5.0	GoodResponse	0	0.019	90.243	2	8	Feedback	AvoidedLoss	True
92.678	3.024	Lose2	0.8889	n/a	Yes	3.024	n/a	n/a	GoodResponse	0	0.0	n/a	2	8	ISIslide	AvoidedLoss	True
95.721	0.25	Lose2	0.9	0.0	Yes	3.129	0.021	n/a	GoodResponse	0	n/a	n/a	2	9	Cue	AvoidedLoss	True
95.972	3.95	Lose2	0.9	0.0	Yes	3.129	0.001	n/a	GoodResponse	0	n/a	n/a	2	9	Fixation	AvoidedLoss	True
99.917	0.31	Lose2	0.9	0.004	Yes	3.129	-0.004	2.0	GoodResponse	0	0.242	99.159	2	9	Target	AvoidedLoss	True
100.159	0.3	Lose2	0.9	0.004	Yes	3.129	-0.004	2.0	GoodResponse	0	0.242	n/a	2	9	ButtonPress	AvoidedLoss	True
100.234	0.39	Lose2	0.9	n/a	Yes	3.129	n/a	n/a	GoodResponse	0	n/a	n/a	2	9	Blank	AvoidedLoss	True
100.619	1.45	Lose2	0.9	n/a	Yes	3.129	n/a	5.0	GoodResponse	0	0.038	99.657	2	9	Feedback	AvoidedLoss	True
102.073	3.129	Lose2	0.9	n/a	Yes	3.129	n/a	n/a	GoodResponse	0	0.0	n/a	2	9	ISIslide	AvoidedLoss	True
105.216	0.25	Control	0.9091	0.0	Yes	3.284	0.016	n/a	GoodResponse	0	n/a	n/a	2	10	Cue	Neutral	True
105.467	4.0	Control	0.9091	0.0	Yes	3.284	0.001	n/a	GoodResponse	0	n/a	n/a	2	10	Fixation	Neutral	True
109.462	0.3	Control	0.9091	0.004	Yes	3.284	-0.004	2.0	GoodResponse	0	0.241	108.703	2	10	Target	Neutral	True
109.703	0.3	Control	0.9091	0.004	Yes	3.284	-0.004	2.0	GoodResponse	0	0.241	n/a	2	10	ButtonPress	Neutral	True
109.763	0.4	Control	0.9091	n/a	Yes	3.284	n/a	n/a	GoodResponse	0	n/a	n/a	2	10	Blank	Neutral	True
110.164	1.45	Control	0.9091	n/a	Yes	3.284	n/a	5.0	GoodResponse	0	0.007	109.171	2	10	Feedback	Neutral	True
111.619	3.284	Control	0.9091	n/a	Yes	3.284	n/a	n/a	GoodResponse	0	0.0	n/a	2	10	ISIslide	Neutral	True
114.929	0.25	Lose2	0.9167000000000001	0.0	Yes	2.721	0.029	n/a	GoodResponse	0	n/a	n/a	2	11	Cue	AvoidedLoss	True
115.179	4.05	Lose2	0.9167000000000001	0.0	Yes	2.721	0.0	n/a	GoodResponse	0	n/a	n/a	2	11	Fixation	AvoidedLoss	True
119.225	0.29	Lose2	0.9167000000000001	0.004	Yes	2.721	-0.004	2.0	GoodResponse	0	0.214	118.439	2	11	Target	AvoidedLoss	True
119.439	0.3	Lose2	0.9167000000000001	0.004	Yes	2.721	-0.004	2.0	GoodResponse	0	0.214	n/a	2	11	ButtonPress	AvoidedLoss	True
119.526	0.41	Lose2	0.9167000000000001	n/a	Yes	2.721	n/a	n/a	GoodResponse	0	n/a	n/a	2	11	Blank	AvoidedLoss	True
119.927	1.45	Lose2	0.9167000000000001	n/a	Yes	2.721	n/a	5.0	GoodResponse	0	0.047	118.974	2	11	Feedback	AvoidedLoss	True
121.381	2.721	Lose2	0.9167000000000001	n/a	Yes	2.721	n/a	n/a	GoodResponse	0	0.0	n/a	2	11	ISIslide	AvoidedLoss	True
124.123	0.25	Control	0.9231	0.0	Yes	2.977	0.023	n/a	GoodResponse	0	n/a	n/a	2	12	Cue	Neutral	True
124.374	3.9	Control	0.9231	0.0	Yes	2.977	0.001	n/a	GoodResponse	0	n/a	n/a	2	12	Fixation	Neutral	True
128.269	0.28	Control	0.9231	0.004	Yes	2.977	-0.004	2.0	GoodResponse	0	0.223	127.492	2	12	Target	Neutral	True
128.492	0.3	Control	0.9231	0.004	Yes	2.977	-0.004	2.0	GoodResponse	0	0.223	n/a	2	12	ButtonPress	Neutral	True
128.553	0.42	Control	0.9231	n/a	Yes	2.977	n/a	n/a	GoodResponse	0	n/a	n/a	2	12	Blank	Neutral	True
128.971	1.45	Control	0.9231	n/a	Yes	2.977	n/a	5.0	GoodResponse	0	0.028	127.999	2	12	Feedback	Neutral	True
130.425	2.977	Control	0.9231	n/a	Yes	2.977	n/a	n/a	GoodResponse	0	0.0	n/a	2	12	ISIslide	Neutral	True
133.417	0.25	Control	0.9286	0.0	Yes	2.783	0.017	n/a	GoodResponse	0	n/a	n/a	2	13	Cue	Neutral	True
133.668	4.0	Control	0.9286	0.0	Yes	2.783	0.001	n/a	GoodResponse	0	n/a	n/a	2	13	Fixation	Neutral	True
137.663	0.27	Control	0.9286	0.004	Yes	2.783	-0.004	2.0	GoodResponse	0	0.264	136.927	2	13	Target	Neutral	True
137.927	0.3	Control	0.9286	0.004	Yes	2.783	-0.004	2.0	GoodResponse	0	0.264	n/a	2	13	ButtonPress	Neutral	True
137.948	0.43	Control	0.9286	n/a	Yes	2.783	n/a	n/a	GoodResponse	0	n/a	n/a	2	13	Blank	Neutral	True
138.366	1.45	Control	0.9286	n/a	Yes	2.783	n/a	5.0	GoodResponse	0	0.047	137.413	2	13	Feedback	Neutral	True
139.82	2.783	Control	0.9286	n/a	Yes	2.783	n/a	n/a	GoodResponse	0	0.0	n/a	2	13	ISIslide	Neutral	True
142.628	0.25	Win2	0.9333	0.0	Yes	2.672	0.028	n/a	GoodResponse	1	n/a	n/a	3	14	Cue	Win	True
142.879	4.1	Win2	0.9333	0.0	Yes	2.672	0.001	n/a	GoodResponse	1	n/a	n/a	3	14	Fixation	Win	True
146.975	0.26	Win2	0.9333	0.003	Yes	2.672	-0.003	2.0	GoodResponse	1	0.226	146.201	3	14	Target	Win	True
147.201	0.3	Win2	0.9333	0.003	Yes	2.672	-0.003	2.0	GoodResponse	1	0.226	n/a	3	14	ButtonPress	Win	True
147.242	0.44	Win2	0.9333	n/a	Yes	2.672	n/a	n/a	GoodResponse	1	n/a	n/a	3	14	Blank	Win	True
147.677	1.45	Win2	0.9333	n/a	Yes	2.672	n/a	5.0	GoodResponse	1	0.007	146.684	3	14	Feedback	Win	True
149.131	2.672	Win2	0.9333	n/a	Yes	2.672	n/a	n/a	GoodResponse	1	0.0	n/a	3	14	ISIslide	Win	True
151.823	0.25	Control	0.9375	0.0	Yes	2.977	0.023	n/a	GoodResponse	0	n/a	n/a	3	15	Cue	Neutral	True
152.073	4.0	Control	0.9375	0.0	Yes	2.977	0.0	n/a	GoodResponse	0	n/a	n/a	3	15	Fixation	Neutral	True
156.069	0.25	Control	0.9375	0.004	Yes	2.977	-0.004	2.0	GoodResponse	0	0.209	155.278	3	15	Target	Neutral	True
156.278	0.3	Control	0.9375	0.004	Yes	2.977	-0.004	2.0	GoodResponse	0	0.209	n/a	3	15	ButtonPress	Neutral	True
156.319	0.45	Control	0.9375	n/a	Yes	2.977	n/a	n/a	GoodResponse	0	n/a	n/a	3	15	Blank	Neutral	True
156.771	1.45	Control	0.9375	n/a	Yes	2.977	n/a	5.0	GoodResponse	0	0.033	155.804	3	15	Feedback	Neutral	True
158.225	2.977	Control	0.9375	n/a	Yes	2.977	n/a	n/a	GoodResponse	0	0.0	n/a	3	15	ISIslide	Neutral	True
161.217	0.25	Win2	0.9412	0.001	Yes	2.883	0.017	n/a	GoodResponse	1	n/a	n/a	4	16	Cue	Win	True
161.468	4.0	Win2	0.9412	0.0	Yes	2.883	0.001	n/a	GoodResponse	1	n/a	n/a	4	16	Fixation	Win	True
165.463	0.24	Win2	0.9412	0.004	Yes	2.883	-0.004	2.0	GoodResponse	1	0.188	164.651	4	16	Target	Win	True
165.651	0.3	Win2	0.9412	0.004	Yes	2.883	-0.004	2.0	GoodResponse	1	0.188	n/a	4	16	ButtonPress	Win	True
165.714	0.46	Win2	0.9412	n/a	Yes	2.883	n/a	n/a	GoodResponse	1	n/a	n/a	4	16	Blank	Win	True
166.166	1.45	Win2	0.9412	n/a	Yes	2.883	n/a	5.0	GoodResponse	1	0.006	165.172	4	16	Feedback	Win	True
167.62	2.883	Win2	0.9412	n/a	Yes	2.883	n/a	n/a	GoodResponse	1	0.0	n/a	4	16	ISIslide	Win	True
170.529	0.25	Lose2	0.9444	0.0	Yes	2.721	0.029	n/a	GoodResponse	0	n/a	n/a	4	17	Cue	AvoidedLoss	True
170.779	3.95	Lose2	0.9444	0.001	Yes	2.721	0.0	n/a	GoodResponse	0	n/a	n/a	4	17	Fixation	AvoidedLoss	True
174.725	0.23	Lose2	0.9444	0.004	Yes	2.721	-0.004	2.0	GoodResponse	0	0.212	173.937	4	17	Target	AvoidedLoss	True
174.937	0.3	Lose2	0.9444	0.004	Yes	2.721	-0.004	2.0	GoodResponse	0	0.212	n/a	4	17	ButtonPress	AvoidedLoss	True
174.959	0.47	Lose2	0.9444	n/a	Yes	2.721	n/a	n/a	GoodResponse	0	n/a	n/a	4	17	Blank	AvoidedLoss	True
175.427	1.45	Lose2	0.9444	n/a	Yes	2.721	n/a	5.0	GoodResponse	0	0.011	174.438	4	17	Feedback	AvoidedLoss	True
176.881	2.721	Lose2	0.9444	n/a	Yes	2.721	n/a	n/a	GoodResponse	0	0.0	n/a	4	17	ISIslide	AvoidedLoss	True
179.623	0.25	Lose2	0.8946999999999999	0.0	No	2.727	0.023	n/a	NoResponse	-1	n/a	n/a	3	18	Cue	Loss	True
179.873	4.05	Lose2	0.8946999999999999	0.0	No	2.727	0.0	n/a	NoResponse	-1	n/a	n/a	3	18	Fixation	Loss	True
183.919	0.22	Lose2	0.8946999999999999	0.004	No	2.727	-0.004	2.0	NoResponse	-1	0.306	183.225	3	18	Target	Loss	True
184.153	0.48	Lose2	0.8946999999999999	n/a	No	2.727	n/a	n/a	NoResponse	-1	n/a	n/a	3	18	Blank	Loss	True
184.225	0.3	Lose2	0.8946999999999999	0.004	No	2.727	-0.004	2.0	NoResponse	-1	0.306	n/a	3	18	ButtonPress	Loss	True
184.621	1.45	Lose2	0.8946999999999999	n/a	No	2.727	n/a	5.0	NoResponse	-1	0.036	183.657	3	18	Feedback	Loss	True
186.075	2.727	Lose2	0.8946999999999999	n/a	No	2.727	n/a	n/a	NoResponse	-1	0.0	n/a	3	18	ISIslide	Loss	True
188.817	0.25	Control	0.85	0.0	No	2.933	0.017	n/a	NoResponse	0	n/a	n/a	3	19	Cue	Neutral	True
189.068	3.95	Control	0.85	0.0	No	2.933	0.001	n/a	NoResponse	0	n/a	n/a	3	19	Fixation	Neutral	True
193.013	0.21	Control	0.85	0.004	No	2.933	-0.004	2.0	NoResponse	0	0.265	192.278	3	19	Target	Neutral	True
193.23	0.49	Control	0.85	n/a	No	2.933	n/a	n/a	NoResponse	0	n/a	n/a	3	19	Blank	Neutral	True
193.278	0.3	Control	0.85	0.004	No	2.933	-0.004	2.0	NoResponse	0	0.265	n/a	3	19	ButtonPress	Neutral	True
193.715	1.45	Control	0.85	n/a	No	2.933	n/a	5.0	NoResponse	0	0.015	192.73	3	19	Feedback	Neutral	True
195.169	2.933	Control	0.85	n/a	No	2.933	n/a	n/a	NoResponse	0	0.0	n/a	3	19	ISIslide	Neutral	True
198.128	0.25	Control	0.8095	0.0	No	2.622	0.028	n/a	NoResponse	0	n/a	n/a	3	20	Cue	Neutral	True
198.379	4.05	Control	0.8095	0.0	No	2.622	0.001	n/a	NoResponse	0	n/a	n/a	3	20	Fixation	Neutral	True
202.424	0.2	Control	0.8095	0.004	No	2.622	-0.004	2.0	NoResponse	0	0.232	201.656	3	20	Target	Neutral	True
202.625	0.5	Control	0.8095	n/a	No	2.622	n/a	n/a	NoResponse	0	n/a	n/a	3	20	Blank	Neutral	True
202.656	0.3	Control	0.8095	0.004	No	2.622	-0.004	2.0	NoResponse	0	0.232	n/a	3	20	ButtonPress	Neutral	True
203.126	1.45	Control	0.8095	n/a	No	2.622	n/a	5.0	NoResponse	0	0.019	202.145	3	20	Feedback	Neutral	True
204.581	2.622	Control	0.8095	n/a	No	2.622	n/a	n/a	NoResponse	0	0.0	n/a	3	20	ISIslide	Neutral	True
207.222	0.25	Control	0.7726999999999999	0.0	No	2.778	0.022	n/a	NoResponse	0	n/a	n/a	3	21	Cue	Neutral	True
207.473	4.1	Control	0.7726999999999999	0.0	No	2.778	0.001	n/a	NoResponse	0	n/a	n/a	3	21	Fixation	Neutral	True
211.568	0.19	Control	0.7726999999999999	0.004	No	2.778	-0.004	2.0	NoResponse	0	0.228	210.796	3	21	Target	Neutral	True
211.769	0.51	Control	0.7726999999999999	n/a	No	2.778	n/a	n/a	NoResponse	0	n/a	n/a	3	21	Blank	Neutral	True
211.796	0.3	Control	0.7726999999999999	0.004	No	2.778	-0.004	2.0	NoResponse	0	0.228	n/a	3	21	ButtonPress	Neutral	True
212.271	1.45	Control	0.7726999999999999	n/a	No	2.778	n/a	5.0	NoResponse	0	0.045	211.316	3	21	Feedback	Neutral	True
213.725	2.778	Control	0.7726999999999999	n/a	No	2.778	n/a	n/a	NoResponse	0	0.0	n/a	3	21	ISIslide	Neutral	True
216.517	0.25	Control	0.7391	0.0	No	2.783	0.017	n/a	NoResponse	0	n/a	n/a	3	22	Cue	Neutral	True
216.767	4.0	Control	0.7391	0.0	No	2.783	0.0	n/a	NoResponse	0	n/a	n/a	3	22	Fixation	Neutral	True
220.763	0.18	Control	0.7391	0.004	No	2.783	-0.004	2.0	NoResponse	0	0.219	219.982	3	22	Target	Neutral	True
220.947	0.52	Control	0.7391	n/a	No	2.783	n/a	n/a	NoResponse	0	n/a	n/a	3	22	Blank	Neutral	True
220.982	0.3	Control	0.7391	0.004	No	2.783	-0.004	2.0	NoResponse	0	0.219	n/a	3	22	ButtonPress	Neutral	True
221.465	1.45	Control	0.7391	n/a	No	2.783	n/a	5.0	NoResponse	0	0.021	220.486	3	22	Feedback	Neutral	True
222.919	2.783	Control	0.7391	n/a	No	2.783	n/a	n/a	NoResponse	0	0.0	n/a	3	22	ISIslide	Neutral	True
225.728	0.25	Control	0.75	0.0	Yes	2.772	0.028	n/a	GoodResponse	0	n/a	n/a	3	23	Cue	Neutral	True
225.978	3.9	Control	0.75	0.0	Yes	2.772	0.0	n/a	GoodResponse	0	n/a	n/a	3	23	Fixation	Neutral	True
229.89	0.17	Control	0.75	0.0	Yes	2.772	0.012	2.0	GoodResponse	0	0.145	229.035	3	23	Target	Neutral	True
230.035	0.3	Control	0.75	0.0	Yes	2.772	0.012	2.0	GoodResponse	0	0.145	n/a	3	23	ButtonPress	Neutral	True
230.057	0.53	Control	0.75	n/a	Yes	2.772	n/a	n/a	GoodResponse	0	n/a	n/a	3	23	Blank	Neutral	True
230.575	1.45	Control	0.75	n/a	Yes	2.772	n/a	5.0	GoodResponse	0	0.033	229.608	3	23	Feedback	Neutral	True
232.03	2.772	Control	0.75	n/a	Yes	2.772	n/a	n/a	GoodResponse	0	0.0	n/a	3	23	ISIslide	Neutral	True
234.822	0.25	Win2	0.72	0.0	No	3.128	0.022	n/a	NoResponse	0	n/a	n/a	3	24	Cue	MissedWin	True
235.072	3.95	Win2	0.72	0.0	No	3.128	0.0	n/a	NoResponse	0	n/a	n/a	3	24	Fixation	MissedWin	True
239.034	0.16	Win2	0.72	0.0	No	3.128	0.012	2.0	NoResponse	0	0.192	238.226	3	24	Target	MissedWin	True
239.185	0.54	Win2	0.72	n/a	No	3.128	n/a	n/a	NoResponse	0	n/a	n/a	3	24	Blank	MissedWin	True
239.226	0.3	Win2	0.72	0.0	No	3.128	0.012	2.0	NoResponse	0	0.192	n/a	3	24	ButtonPress	MissedWin	True
239.72	1.45	Win2	0.72	n/a	No	3.128	n/a	5.0	NoResponse	0	0.011	238.731	3	24	Feedback	MissedWin	True
241.174	3.128	Win2	0.72	n/a	No	3.128	n/a	n/a	NoResponse	0	0.0	n/a	3	24	ISIslide	MissedWin	True
244.317	0.25	Win2	0.6923	0.0	No	3.083	0.017	n/a	NoResponse	0	n/a	n/a	3	25	Cue	MissedWin	True
244.567	4.0	Win2	0.6923	0.001	No	3.083	0.0	n/a	NoResponse	0	n/a	n/a	3	25	Fixation	MissedWin	True
248.563	0.15	Win2	0.6923	0.004	No	3.083	-0.004	2.0	NoResponse	0	0.206	247.769	3	25	Target	MissedWin	True
248.713	0.55	Win2	0.6923	n/a	No	3.083	n/a	n/a	NoResponse	0	n/a	n/a	3	25	Blank	MissedWin	True
248.769	0.3	Win2	0.6923	0.004	No	3.083	-0.004	2.0	NoResponse	0	0.206	n/a	3	25	ButtonPress	MissedWin	True
249.265	1.45	Win2	0.6923	n/a	No	3.083	n/a	5.0	NoResponse	0	0.027	248.292	3	25	Feedback	MissedWin	True
250.719	3.083	Win2	0.6923	n/a	No	3.083	n/a	n/a	NoResponse	0	0.0	n/a	3	25	ISIslide	MissedWin	True
253.829	0.25	Win2	0.6667000000000001	0.0	No	2.921	0.029	n/a	NoResponse	0	n/a	n/a	3	26	Cue	MissedWin	True
254.079	3.95	Win2	0.6667000000000001	0.0	No	2.921	0.0	n/a	NoResponse	0	n/a	n/a	3	26	Fixation	MissedWin	True
258.041	0.15	Win2	0.6667000000000001	0.0	No	2.921	0.012	2.0	NoResponse	0	0.183	257.224	3	26	Target	MissedWin	True
258.175	0.55	Win2	0.6667000000000001	n/a	No	2.921	n/a	n/a	NoResponse	0	n/a	n/a	3	26	Blank	MissedWin	True
258.224	0.3	Win2	0.6667000000000001	0.0	No	2.921	0.012	2.0	NoResponse	0	0.183	n/a	3	26	ButtonPress	MissedWin	True
258.727	1.45	Win2	0.6667000000000001	n/a	No	2.921	n/a	5.0	NoResponse	0	0.027	257.754	3	26	Feedback	MissedWin	True
260.181	2.921	Win2	0.6667000000000001	n/a	No	2.921	n/a	n/a	NoResponse	0	0.0	n/a	3	26	ISIslide	MissedWin	True
263.123	0.25	Lose2	0.6429	0.0	No	2.827	0.023	n/a	NoResponse	-1	n/a	n/a	2	27	Cue	Loss	True
263.374	4.05	Lose2	0.6429	0.0	No	2.827	0.001	n/a	NoResponse	-1	n/a	n/a	2	27	Fixation	Loss	True
267.419	0.15	Lose2	0.6429	0.004	No	2.827	-0.004	2.0	NoResponse	-1	0.199	266.618	2	27	Target	Loss	True
267.57	0.55	Lose2	0.6429	n/a	No	2.827	n/a	n/a	NoResponse	-1	n/a	n/a	2	27	Blank	Loss	True
267.618	0.3	Lose2	0.6429	0.004	No	2.827	-0.004	2.0	NoResponse	-1	0.199	n/a	2	27	ButtonPress	Loss	True
268.121	1.45	Lose2	0.6429	n/a	No	2.827	n/a	5.0	NoResponse	-1	0.048	267.169	2	27	Feedback	Loss	True
269.576	2.827	Lose2	0.6429	n/a	No	2.827	n/a	n/a	NoResponse	-1	0.0	n/a	2	27	ISIslide	Loss	True
272.418	0.25	Control	0.6207	0.0	No	2.832	0.018	n/a	NoResponse	0	n/a	n/a	2	28	Cue	Neutral	True
272.668	4.05	Control	0.6207	0.0	No	2.832	0.0	n/a	NoResponse	0	n/a	n/a	2	28	Fixation	Neutral	True
276.714	0.16	Control	0.6207	0.004	No	2.832	-0.004	2.0	NoResponse	0	0.214	275.928	2	28	Target	Neutral	True
276.881	0.54	Control	0.6207	n/a	No	2.832	n/a	n/a	NoResponse	0	n/a	n/a	2	28	Blank	Neutral	True
276.928	0.3	Control	0.6207	0.004	No	2.832	-0.004	2.0	NoResponse	0	0.214	n/a	2	28	ButtonPress	Neutral	True
277.416	1.45	Control	0.6207	n/a	No	2.832	n/a	5.0	NoResponse	0	0.021	276.437	2	28	Feedback	Neutral	True
278.87	2.832	Control	0.6207	n/a	No	2.832	n/a	n/a	NoResponse	0	0.0	n/a	2	28	ISIslide	Neutral	True
281.729	0.25	Lose2	0.6	0.0	No	2.821	0.029	n/a	NoResponse	-1	n/a	n/a	1	29	Cue	Loss	True
281.98	3.95	Lose2	0.6	0.0	No	2.821	0.001	n/a	NoResponse	-1	n/a	n/a	1	29	Fixation	Loss	True
285.925	0.17	Lose2	0.6	0.004	No	2.821	-0.004	2.0	NoResponse	-1	0.191	285.116	1	29	Target	Loss	True
286.109	0.53	Lose2	0.6	n/a	No	2.821	n/a	n/a	NoResponse	-1	n/a	n/a	1	29	Blank	Loss	True
286.116	0.3	Lose2	0.6	0.004	No	2.821	-0.004	2.0	NoResponse	-1	0.191	n/a	1	29	ButtonPress	Loss	True
286.627	1.45	Lose2	0.6	n/a	No	2.821	n/a	5.0	NoResponse	-1	0.03	285.657	1	29	Feedback	Loss	True
288.081	2.821	Lose2	0.6	n/a	No	2.821	n/a	n/a	NoResponse	-1	0.0	n/a	1	29	ISIslide	Loss	True
290.923	0.25	Win2	0.5806	0.0	No	2.777	0.023	n/a	NoResponse	0	n/a	n/a	1	30	Cue	MissedWin	True
291.174	3.9	Win2	0.5806	0.0	No	2.777	0.001	n/a	NoResponse	0	n/a	n/a	1	30	Fixation	MissedWin	True
295.069	0.18	Win2	0.5806	0.004	No	2.777	-0.004	2.0	NoResponse	0	0.222	294.291	1	30	Target	MissedWin	True
295.253	0.52	Win2	0.5806	n/a	No	2.777	n/a	n/a	NoResponse	0	n/a	n/a	1	30	Blank	MissedWin	True
295.291	0.3	Win2	0.5806	0.004	No	2.777	-0.004	2.0	NoResponse	0	0.222	n/a	1	30	ButtonPress	MissedWin	True
295.771	1.45	Win2	0.5806	n/a	No	2.777	n/a	5.0	NoResponse	0	0.008	294.779	1	30	Feedback	MissedWin	True
297.225	2.777	Win2	0.5806	n/a	No	2.777	n/a	n/a	NoResponse	0	0.0	n/a	1	30	ISIslide	MissedWin	True
300.017	0.25	Lose2	0.5625	0.0	No	2.833	0.017	n/a	LatePress	-1	n/a	n/a	0	31	Cue	Loss	True
300.268	4.05	Lose2	0.5625	0.0	No	2.833	0.001	n/a	LatePress	-1	n/a	n/a	0	31	Fixation	Loss	True
304.313	0.19	Lose2	0.5625	0.004	No	2.833	-0.004	2.0	LatePress	-1	0.191	303.504	0	31	Target	Loss	True
304.504	0.3	Lose2	0.5625	0.004	No	2.833	-0.004	2.0	LatePress	-1	0.191	n/a	0	31	ButtonPress	Loss	True
304.514	0.51	Lose2	0.5625	n/a	No	2.833	n/a	n/a	LatePress	-1	n/a	n/a	0	31	Blank	Loss	True
305.015	1.45	Lose2	0.5625	n/a	No	2.833	n/a	5.0	LatePress	-1	0.032	304.047	0	31	Feedback	Loss	True
306.47	2.833	Lose2	0.5625	n/a	No	2.833	n/a	n/a	LatePress	-1	0.0	n/a	0	31	ISIslide	Loss	True
309.328	0.25	Lose2	0.5455	0.0	No	2.622	0.028	n/a	NoResponse	-1	n/a	n/a	-1	32	Cue	Loss	False
309.579	4.15	Lose2	0.5455	0.0	No	2.622	0.001	2.0	NoResponse	-1	4.057	312.636	-1	32	Fixation	Loss	False
313.636	0.3	Lose2	0.5455	0.0	No	2.622	0.001	2.0	NoResponse	-1	4.057	n/a	-1	32	ButtonPress	Loss	False
313.725	0.2	Lose2	0.5455	0.003	No	2.622	-0.003	2.0	NoResponse	-1	0.246	312.971	-1	32	Target	Loss	False
313.925	0.5	Lose2	0.5455	n/a	No	2.622	n/a	n/a	NoResponse	-1	n/a	n/a	-1	32	Blank	Loss	False
313.971	0.3	Lose2	0.5455	0.003	No	2.622	-0.003	2.0	NoResponse	-1	0.246	n/a	-1	32	ButtonPress	Loss	False
314.427	1.45	Lose2	0.5455	n/a	No	2.622	n/a	5.0	NoResponse	-1	0.035	313.462	-1	32	Feedback	Loss	False
315.881	2.622	Lose2	0.5455	n/a	No	2.622	n/a	n/a	NoResponse	-1	0.0	n/a	-1	32	ISIslide	Loss	False
318.523	0.25	Win2	0.5294	0.0	No	2.677	0.023	n/a	NoResponse	0	n/a	n/a	-1	33	Cue	MissedWin	False
318.773	4.0	Win2	0.5294	0.0	No	2.677	0.0	2.0	NoResponse	0	3.981	321.754	-1	33	Fixation	MissedWin	False
322.754	0.3	Win2	0.5294	0.0	No	2.677	0.0	2.0	NoResponse	0	3.981	n/a	-1	33	ButtonPress	MissedWin	False
322.769	0.21	Win2	0.5294	0.004	No	2.677	-0.004	2.0	NoResponse	0	0.323	322.092	-1	33	Target	MissedWin	False
322.986	0.49	Win2	0.5294	n/a	No	2.677	n/a	n/a	NoResponse	0	n/a	n/a	-1	33	Blank	MissedWin	False
323.092	0.3	Win2	0.5294	0.004	No	2.677	-0.004	2.0	NoResponse	0	0.323	n/a	-1	33	ButtonPress	MissedWin	False
323.471	1.45	Win2	0.5294	n/a	No	2.677	n/a	5.0	NoResponse	0	0.016	322.487	-1	33	Feedback	MissedWin	False
324.925	2.677	Win2	0.5294	n/a	No	2.677	n/a	n/a	NoResponse	0	0.0	n/a	-1	33	ISIslide	MissedWin	False
327.617	0.25	Lose2	0.5143	0.0	No	2.633	0.017	n/a	LatePress	-1	n/a	n/a	-2	34	Cue	Loss	True
327.867	4.05	Lose2	0.5143	0.0	No	2.633	0.0	n/a	LatePress	-1	n/a	n/a	-2	34	Fixation	Loss	True
331.913	0.22	Lose2	0.5143	0.004	No	2.633	-0.004	2.0	LatePress	-1	0.23	331.143	-2	34	Target	Loss	True
332.143	0.3	Lose2	0.5143	0.004	No	2.633	-0.004	2.0	LatePress	-1	0.23	n/a	-2	34	ButtonPress	Loss	True
332.147	0.48	Lose2	0.5143	n/a	No	2.633	n/a	n/a	LatePress	-1	n/a	n/a	-2	34	Blank	Loss	True
332.615	1.45	Lose2	0.5143	n/a	No	2.633	n/a	5.0	LatePress	-1	0.041	331.656	-2	34	Feedback	Loss	True
334.069	2.633	Lose2	0.5143	n/a	No	2.633	n/a	n/a	LatePress	-1	0.0	n/a	-2	34	ISIslide	Loss	True
336.727	0.25	Lose2	0.5278	0.0	Yes	2.673	0.027	n/a	GoodResponse	0	n/a	n/a	-2	35	Cue	AvoidedLoss	True
336.978	4.0	Lose2	0.5278	0.0	Yes	2.673	0.001	n/a	GoodResponse	0	n/a	n/a	-2	35	Fixation	AvoidedLoss	True
340.973	0.23	Lose2	0.5278	0.004	Yes	2.673	-0.004	2.0	GoodResponse	0	0.206	340.179	-2	35	Target	AvoidedLoss	True
341.179	0.3	Lose2	0.5278	0.004	Yes	2.673	-0.004	2.0	GoodResponse	0	0.206	n/a	-2	35	ButtonPress	AvoidedLoss	True
341.207	0.47	Lose2	0.5278	n/a	Yes	2.673	n/a	n/a	GoodResponse	0	n/a	n/a	-2	35	Blank	AvoidedLoss	True
341.675	1.45	Lose2	0.5278	n/a	Yes	2.673	n/a	5.0	GoodResponse	0	0.006	340.681	-2	35	Feedback	AvoidedLoss	True
343.13	2.673	Lose2	0.5278	n/a	Yes	2.673	n/a	n/a	GoodResponse	0	0.0	n/a	-2	35	ISIslide	AvoidedLoss	True
345.821	0.25	Control	0.5405	0.0	Yes	2.679	0.021	n/a	GoodResponse	0	n/a	n/a	-2	36	Cue	Neutral	True
346.072	4.0	Control	0.5405	0.0	Yes	2.679	0.001	n/a	GoodResponse	0	n/a	n/a	-2	36	Fixation	Neutral	True
350.067	0.24	Control	0.5405	0.004	Yes	2.679	-0.004	2.0	GoodResponse	0	0.198	349.265	-2	36	Target	Neutral	True
350.265	0.3	Control	0.5405	0.004	Yes	2.679	-0.004	2.0	GoodResponse	0	0.198	n/a	-2	36	ButtonPress	Neutral	True
350.318	0.46	Control	0.5405	n/a	Yes	2.679	n/a	n/a	GoodResponse	0	n/a	n/a	-2	36	Blank	Neutral	True
350.769	1.45	Control	0.5405	n/a	Yes	2.679	n/a	5.0	GoodResponse	0	0.034	349.803	-2	36	Feedback	Neutral	True
352.224	2.679	Control	0.5405	n/a	Yes	2.679	n/a	n/a	GoodResponse	0	0.0	n/a	-2	36	ISIslide	Neutral	True
354.915	0.25	Win2	0.5526	0.0	Yes	2.885	0.015	n/a	GoodResponse	1	n/a	n/a	-1	37	Cue	Win	True
355.166	4.0	Win2	0.5526	0.0	Yes	2.885	0.001	n/a	GoodResponse	1	n/a	n/a	-1	37	Fixation	Win	True
359.161	0.25	Win2	0.5526	0.004	Yes	2.885	-0.004	2.0	GoodResponse	1	0.218	358.379	-1	37	Target	Win	True
359.379	0.3	Win2	0.5526	0.004	Yes	2.885	-0.004	2.0	GoodResponse	1	0.218	n/a	-1	37	ButtonPress	Win	True
359.412	0.45	Win2	0.5526	n/a	Yes	2.885	n/a	n/a	GoodResponse	1	n/a	n/a	-1	37	Blank	Win	True
359.863	1.45	Win2	0.5526	n/a	Yes	2.885	n/a	5.0	GoodResponse	1	0.013	358.876	-1	37	Feedback	Win	True
361.318	2.885	Win2	0.5526	n/a	Yes	2.885	n/a	n/a	GoodResponse	1	0.0	n/a	-1	37	ISIslide	Win	True
364.226	0.25	Lose2	0.5640999999999999	0.0	Yes	2.824	0.026	n/a	GoodResponse	0	n/a	n/a	-1	38	Cue	AvoidedLoss	True
364.477	3.95	Lose2	0.5640999999999999	0.0	Yes	2.824	0.001	n/a	GoodResponse	0	n/a	n/a	-1	38	Fixation	AvoidedLoss	True
368.422	0.26	Lose2	0.5640999999999999	0.004	Yes	2.824	-0.004	2.0	GoodResponse	0	0.215	367.637	-1	38	Target	AvoidedLoss	True
368.637	0.3	Lose2	0.5640999999999999	0.004	Yes	2.824	-0.004	2.0	GoodResponse	0	0.215	n/a	-1	38	ButtonPress	AvoidedLoss	True
368.69	0.44	Lose2	0.5640999999999999	n/a	Yes	2.824	n/a	n/a	GoodResponse	0	n/a	n/a	-1	38	Blank	AvoidedLoss	True
369.124	1.45	Lose2	0.5640999999999999	n/a	Yes	2.824	n/a	5.0	GoodResponse	0	0.021	368.145	-1	38	Feedback	AvoidedLoss	True
370.579	2.824	Lose2	0.5640999999999999	n/a	Yes	2.824	n/a	n/a	GoodResponse	0	0.0	n/a	-1	38	ISIslide	AvoidedLoss	True
373.421	0.25	Win2	0.575	0.0	Yes	2.979	0.021	n/a	GoodResponse	1	n/a	n/a	0	39	Cue	Win	True
373.671	4.1	Win2	0.575	0.0	Yes	2.979	0.0	n/a	GoodResponse	1	n/a	n/a	0	39	Fixation	Win	True
377.767	0.27	Win2	0.575	0.004	Yes	2.979	-0.004	2.0	GoodResponse	1	0.2	376.967	0	39	Target	Win	True
377.967	0.3	Win2	0.575	0.004	Yes	2.979	-0.004	2.0	GoodResponse	1	0.2	n/a	0	39	ButtonPress	Win	True
378.051	0.43	Win2	0.575	n/a	Yes	2.979	n/a	n/a	GoodResponse	1	n/a	n/a	0	39	Blank	Win	True
378.469	1.45	Win2	0.575	n/a	Yes	2.979	n/a	5.0	GoodResponse	1	0.041	377.51	0	39	Feedback	Win	True
379.923	2.979	Win2	0.575	n/a	Yes	2.979	n/a	n/a	GoodResponse	1	0.0	n/a	0	39	ISIslide	Win	True
382.916	0.25	Win2	0.5854	0.0	Yes	2.734	0.016	n/a	GoodResponse	1	n/a	n/a	1	40	Cue	Win	True
383.167	3.95	Win2	0.5854	0.0	Yes	2.734	0.001	n/a	GoodResponse	1	n/a	n/a	1	40	Fixation	Win	True
387.112	0.28	Win2	0.5854	0.004	Yes	2.734	-0.004	2.0	GoodResponse	1	0.197	386.309	1	40	Target	Win	True
387.309	0.3	Win2	0.5854	0.004	Yes	2.734	-0.004	2.0	GoodResponse	1	0.197	n/a	1	40	ButtonPress	Win	True
387.396	0.42	Win2	0.5854	n/a	Yes	2.734	n/a	n/a	GoodResponse	1	n/a	n/a	1	40	Blank	Win	True
387.814	1.45	Win2	0.5854	n/a	Yes	2.734	n/a	5.0	GoodResponse	1	0.014	386.828	1	40	Feedback	Win	True
389.268	2.734	Win2	0.5854	n/a	Yes	2.734	n/a	n/a	GoodResponse	1	0.0	n/a	1	40	ISIslide	Win	True
392.026	0.25	Win2	0.5952000000000001	0.001	Yes	2.774	0.026	n/a	GoodResponse	1	n/a	n/a	2	41	Cue	Win	True
392.277	3.9	Win2	0.5952000000000001	0.0	Yes	2.774	0.001	n/a	GoodResponse	1	n/a	n/a	2	41	Fixation	Win	True
396.172	0.29	Win2	0.5952000000000001	0.004	Yes	2.774	-0.004	2.0	GoodResponse	1	0.214	395.386	2	41	Target	Win	True
396.386	0.3	Win2	0.5952000000000001	0.004	Yes	2.774	-0.004	2.0	GoodResponse	1	0.214	n/a	2	41	ButtonPress	Win	True
396.473	0.41	Win2	0.5952000000000001	n/a	Yes	2.774	n/a	n/a	GoodResponse	1	n/a	n/a	2	41	Blank	Win	True
396.874	1.45	Win2	0.5952000000000001	n/a	Yes	2.774	n/a	5.0	GoodResponse	1	0.027	395.901	2	41	Feedback	Win	True
398.329	2.774	Win2	0.5952000000000001	n/a	Yes	2.774	n/a	n/a	GoodResponse	1	0.0	n/a	2	41	ISIslide	Win	True
401.12	0.25	Control	0.6047	0.001	Yes	2.93	0.02	n/a	GoodResponse	0	n/a	n/a	2	42	Cue	Neutral	True
401.371	3.85	Control	0.6047	0.0	Yes	2.93	0.001	n/a	GoodResponse	0	n/a	n/a	2	42	Fixation	Neutral	True
405.216	0.3	Control	0.6047	0.004	Yes	2.93	-0.004	2.0	GoodResponse	0	0.201	404.417	2	42	Target	Neutral	True
405.417	0.3	Control	0.6047	0.004	Yes	2.93	-0.004	2.0	GoodResponse	0	0.201	n/a	2	42	ButtonPress	Neutral	True
405.517	0.4	Control	0.6047	n/a	Yes	2.93	n/a	n/a	GoodResponse	0	n/a	n/a	2	42	Blank	Neutral	True
405.918	1.45	Control	0.6047	n/a	Yes	2.93	n/a	5.0	GoodResponse	0	0.006	404.924	2	42	Feedback	Neutral	True
407.372	2.93	Control	0.6047	n/a	Yes	2.93	n/a	n/a	GoodResponse	0	0.0	n/a	2	42	ISIslide	Neutral	True
410.315	0.25	Win2	0.6136	0.0	Yes	3.185	0.015	n/a	GoodResponse	1	n/a	n/a	3	43	Cue	Win	True
410.565	4.0	Win2	0.6136	0.0	Yes	3.185	0.0	n/a	GoodResponse	1	n/a	n/a	3	43	Fixation	Win	True
414.561	0.31	Win2	0.6136	0.004	Yes	3.185	-0.004	2.0	GoodResponse	1	0.204	413.765	3	43	Target	Win	True
414.765	0.3	Win2	0.6136	0.004	Yes	3.185	-0.004	2.0	GoodResponse	1	0.204	n/a	3	43	ButtonPress	Win	True
414.878	0.39	Win2	0.6136	n/a	Yes	3.185	n/a	n/a	GoodResponse	1	n/a	n/a	3	43	Blank	Win	True
415.263	1.45	Win2	0.6136	n/a	Yes	3.185	n/a	5.0	GoodResponse	1	0.027	414.29	3	43	Feedback	Win	True
416.717	3.185	Win2	0.6136	n/a	Yes	3.185	n/a	n/a	GoodResponse	1	0.0	n/a	3	43	ISIslide	Win	True
419.927	0.25	Win2	0.6222	0.0	Yes	2.973	0.027	n/a	GoodResponse	1	n/a	n/a	4	44	Cue	Win	True
420.178	4.0	Win2	0.6222	0.0	Yes	2.973	0.001	n/a	GoodResponse	1	n/a	n/a	4	44	Fixation	Win	True
424.173	0.32	Win2	0.6222	0.004	Yes	2.973	-0.004	2.0	GoodResponse	1	0.212	423.385	4	44	Target	Win	True
424.385	0.3	Win2	0.6222	0.004	Yes	2.973	-0.004	2.0	GoodResponse	1	0.212	n/a	4	44	ButtonPress	Win	True
424.507	0.38	Win2	0.6222	n/a	Yes	2.973	n/a	n/a	GoodResponse	1	n/a	n/a	4	44	Blank	Win	True
424.875	1.45	Win2	0.6222	n/a	Yes	2.973	n/a	5.0	GoodResponse	1	0.025	423.9	4	44	Feedback	Win	True
426.329	2.973	Win2	0.6222	n/a	Yes	2.973	n/a	n/a	GoodResponse	1	0.0	n/a	4	44	ISIslide	Win	True
429.322	0.25	Control	0.6304	0.0	Yes	2.878	0.022	n/a	GoodResponse	0	n/a	n/a	4	45	Cue	Neutral	True
429.572	4.1	Control	0.6304	0.0	Yes	2.878	0.0	n/a	GoodResponse	0	n/a	n/a	4	45	Fixation	Neutral	True
433.668	0.33	Control	0.6304	0.004	Yes	2.878	-0.004	2.0	GoodResponse	0	0.137	432.805	4	45	Target	Neutral	True
433.805	0.3	Control	0.6304	0.004	Yes	2.878	-0.004	2.0	GoodResponse	0	0.137	n/a	4	45	ButtonPress	Neutral	True
434.002	0.37	Control	0.6304	n/a	Yes	2.878	n/a	n/a	GoodResponse	0	n/a	n/a	4	45	Blank	Neutral	True
434.37	1.45	Control	0.6304	n/a	Yes	2.878	n/a	5.0	GoodResponse	0	0.043	433.413	4	45	Feedback	Neutral	True
435.824	2.878	Control	0.6304	n/a	Yes	2.878	n/a	n/a	GoodResponse	0	0.0	n/a	4	45	ISIslide	Neutral	True
438.717	0.25	Lose2	0.6383	0.0	Yes	3.383	0.017	n/a	GoodResponse	0	n/a	n/a	4	46	Cue	AvoidedLoss	True
438.967	4.0	Lose2	0.6383	0.0	Yes	3.383	0.0	n/a	GoodResponse	0	n/a	n/a	4	46	Fixation	AvoidedLoss	True
442.963	0.34	Lose2	0.6383	0.004	Yes	3.383	-0.004	2.0	GoodResponse	0	0.212	442.175	4	46	Target	AvoidedLoss	True
443.175	0.3	Lose2	0.6383	0.004	Yes	3.383	-0.004	2.0	GoodResponse	0	0.212	n/a	4	46	ButtonPress	AvoidedLoss	True
443.314	0.36	Lose2	0.6383	n/a	Yes	3.383	n/a	n/a	GoodResponse	0	n/a	n/a	4	46	Blank	AvoidedLoss	True
443.665	1.45	Lose2	0.6383	n/a	Yes	3.383	n/a	5.0	GoodResponse	0	0.016	442.681	4	46	Feedback	AvoidedLoss	True
445.119	3.383	Lose2	0.6383	n/a	Yes	3.383	n/a	n/a	GoodResponse	0	0.0	n/a	4	46	ISIslide	AvoidedLoss	True
448.529	0.25	Lose2	0.6457999999999999	0.0	Yes	2.671	0.029	n/a	GoodResponse	0	n/a	n/a	4	47	Cue	AvoidedLoss	True
448.78	4.0	Lose2	0.6457999999999999	0.0	Yes	2.671	0.001	n/a	GoodResponse	0	n/a	n/a	4	47	Fixation	AvoidedLoss	True
452.775	0.35	Lose2	0.6457999999999999	0.004	Yes	2.671	-0.004	2.0	GoodResponse	0	0.28	452.055	4	47	Target	AvoidedLoss	True
453.055	0.3	Lose2	0.6457999999999999	0.004	Yes	2.671	-0.004	2.0	GoodResponse	0	0.28	n/a	4	47	ButtonPress	AvoidedLoss	True
453.126	0.35	Lose2	0.6457999999999999	n/a	Yes	2.671	n/a	n/a	GoodResponse	0	n/a	n/a	4	47	Blank	AvoidedLoss	True
453.477	1.45	Lose2	0.6457999999999999	n/a	Yes	2.671	n/a	5.0	GoodResponse	0	0.009	452.486	4	47	Feedback	AvoidedLoss	True
454.932	2.671	Lose2	0.6457999999999999	n/a	Yes	2.671	n/a	n/a	GoodResponse	0	0.0	n/a	4	47	ISIslide	AvoidedLoss	True
457.623	0.25	Lose2	0.6531	0.0	Yes	3.027	0.023	n/a	GoodResponse	0	n/a	n/a	4	48	Cue	AvoidedLoss	True
457.874	3.95	Lose2	0.6531	0.0	Yes	3.027	0.001	n/a	GoodResponse	0	n/a	n/a	4	48	Fixation	AvoidedLoss	True
461.819	0.36	Lose2	0.6531	0.004	Yes	3.027	-0.004	2.0	GoodResponse	0	0.26	461.079	4	48	Target	AvoidedLoss	True
462.079	0.3	Lose2	0.6531	0.004	Yes	3.027	-0.004	2.0	GoodResponse	0	0.26	n/a	4	48	ButtonPress	AvoidedLoss	True
462.187	0.34	Lose2	0.6531	n/a	Yes	3.027	n/a	n/a	GoodResponse	0	n/a	n/a	4	48	Blank	AvoidedLoss	True
462.521	1.45	Lose2	0.6531	n/a	Yes	3.027	n/a	5.0	GoodResponse	0	0.038	461.559	4	48	Feedback	AvoidedLoss	True
463.976	3.027	Lose2	0.6531	n/a	Yes	3.027	n/a	n/a	GoodResponse	0	0.0	n/a	4	48	ISIslide	AvoidedLoss	True
467.018	0.25	Control	0.66	0.0	Yes	2.882	0.018	n/a	GoodResponse	0	n/a	n/a	4	49	Cue	Neutral	True
467.269	4.0	Control	0.66	0.0	Yes	2.882	0.001	n/a	GoodResponse	0	n/a	n/a	4	49	Fixation	Neutral	True
471.264	0.37	Control	0.66	0.004	Yes	2.882	-0.004	2.0	GoodResponse	0	0.227	470.491	4	49	Target	Neutral	True
471.491	0.3	Control	0.66	0.004	Yes	2.882	-0.004	2.0	GoodResponse	0	0.227	n/a	4	49	ButtonPress	Neutral	True
471.649	0.33	Control	0.66	n/a	Yes	2.882	n/a	n/a	GoodResponse	0	n/a	n/a	4	49	Blank	Neutral	True
471.966	1.45	Control	0.66	n/a	Yes	2.882	n/a	5.0	GoodResponse	0	0.008	470.974	4	49	Feedback	Neutral	True
473.421	2.882	Control	0.66	n/a	Yes	2.882	n/a	n/a	GoodResponse	0	0.0	n/a	4	49	ISIslide	Neutral	True
476.313	0.25	Control	0.6667000000000001	0.0	Yes	2.787	0.013	n/a	GoodResponse	0	n/a	n/a	4	50	Cue	Neutral	True
476.563	4.0	Control	0.6667000000000001	0.0	Yes	2.787	0.0	n/a	GoodResponse	0	n/a	n/a	4	50	Fixation	Neutral	True
480.559	0.37	Control	0.6667000000000001	0.004	Yes	2.787	-0.004	2.0	GoodResponse	0	0.225	479.784	4	50	Target	Neutral	True
480.784	0.3	Control	0.6667000000000001	0.004	Yes	2.787	-0.004	2.0	GoodResponse	0	0.225	n/a	4	50	ButtonPress	Neutral	True
480.943	0.33	Control	0.6667000000000001	n/a	Yes	2.787	n/a	n/a	GoodResponse	0	n/a	n/a	4	50	Blank	Neutral	True
481.261	1.45	Control	0.6667000000000001	n/a	Yes	2.787	n/a	5.0	GoodResponse	0	0.029	480.29	4	50	Feedback	Neutral	True
482.715	2.787	Control	0.6667000000000001	n/a	Yes	2.787	n/a	n/a	GoodResponse	0	0.0	n/a	4	50	ISIslide	Neutral	True
485.524	0.25	Control	0.6731	0.0	Yes	2.726	0.024	n/a	GoodResponse	0	n/a	n/a	4	51	Cue	Neutral	True
485.774	3.95	Control	0.6731	0.0	Yes	2.726	0.0	n/a	GoodResponse	0	n/a	n/a	4	51	Fixation	Neutral	True
489.736	0.36	Control	0.6731	0.0	Yes	2.726	0.012	2.0	GoodResponse	0	0.293	489.029	4	51	Target	Neutral	True
490.029	0.3	Control	0.6731	0.0	Yes	2.726	0.012	2.0	GoodResponse	0	0.293	n/a	4	51	ButtonPress	Neutral	True
490.087	0.34	Control	0.6731	n/a	Yes	2.726	n/a	n/a	GoodResponse	0	n/a	n/a	4	51	Blank	Neutral	True
490.422	1.45	Control	0.6731	n/a	Yes	2.726	n/a	5.0	GoodResponse	0	0.039	489.461	4	51	Feedback	Neutral	True
491.876	2.726	Control	0.6731	n/a	Yes	2.726	n/a	n/a	GoodResponse	0	0.0	n/a	4	51	ISIslide	Neutral	True
494.618	0.25	Control	0.6792	0.0	Yes	2.632	0.018	n/a	GoodResponse	0	n/a	n/a	4	52	Cue	Neutral	True
494.868	4.05	Control	0.6792	0.0	Yes	2.632	0.0	n/a	GoodResponse	0	n/a	n/a	4	52	Fixation	Neutral	True
498.914	0.35	Control	0.6792	0.004	Yes	2.632	-0.004	2.0	GoodResponse	0	0.241	498.155	4	52	Target	Neutral	True
499.155	0.3	Control	0.6792	0.004	Yes	2.632	-0.004	2.0	GoodResponse	0	0.241	n/a	4	52	ButtonPress	Neutral	True
499.265	0.35	Control	0.6792	n/a	Yes	2.632	n/a	n/a	GoodResponse	0	n/a	n/a	4	52	Blank	Neutral	True
499.616	1.45	Control	0.6792	n/a	Yes	2.632	n/a	5.0	GoodResponse	0	0.016	498.632	4	52	Feedback	Neutral	True
501.07	2.632	Control	0.6792	n/a	Yes	2.632	n/a	n/a	GoodResponse	0	0.0	n/a	4	52	ISIslide	Neutral	True
503.728	0.25	Win2	0.6851999999999999	0.0	Yes	2.922	0.028	n/a	GoodResponse	1	n/a	n/a	5	53	Cue	Win	True
503.979	4.05	Win2	0.6851999999999999	0.0	Yes	2.922	0.001	n/a	GoodResponse	1	n/a	n/a	5	53	Fixation	Win	True
508.024	0.34	Win2	0.6851999999999999	0.004	Yes	2.922	-0.004	2.0	GoodResponse	1	0.204	507.228	5	53	Target	Win	True
508.228	0.3	Win2	0.6851999999999999	0.004	Yes	2.922	-0.004	2.0	GoodResponse	1	0.204	n/a	5	53	ButtonPress	Win	True
508.375	0.36	Win2	0.6851999999999999	n/a	Yes	2.922	n/a	n/a	GoodResponse	1	n/a	n/a	5	53	Blank	Win	True
508.727	1.45	Win2	0.6851999999999999	n/a	Yes	2.922	n/a	5.0	GoodResponse	1	0.027	507.754	5	53	Feedback	Win	True
510.181	2.922	Win2	0.6851999999999999	n/a	Yes	2.922	n/a	n/a	GoodResponse	1	0.0	n/a	5	53	ISIslide	Win	True
513.123	0.25	Win2	0.6909000000000001	0.0	Yes	2.727	0.023	n/a	GoodResponse	1	n/a	n/a	6	54	Cue	Win	True
513.374	3.95	Win2	0.6909000000000001	0.0	Yes	2.727	0.001	n/a	GoodResponse	1	n/a	n/a	6	54	Fixation	Win	True
517.319	0.33	Win2	0.6909000000000001	0.004	Yes	2.727	-0.004	2.0	GoodResponse	1	0.266	516.585	6	54	Target	Win	True
517.585	0.3	Win2	0.6909000000000001	0.004	Yes	2.727	-0.004	2.0	GoodResponse	1	0.266	n/a	6	54	ButtonPress	Win	True
517.653	0.37	Win2	0.6909000000000001	n/a	Yes	2.727	n/a	n/a	GoodResponse	1	n/a	n/a	6	54	Blank	Win	True
518.021	1.45	Win2	0.6909000000000001	n/a	Yes	2.727	n/a	5.0	GoodResponse	1	0.001	517.022	6	54	Feedback	Win	True
519.475	2.727	Win2	0.6909000000000001	n/a	Yes	2.727	n/a	n/a	GoodResponse	1	0.0	n/a	6	54	ISIslide	Win	True
522.217	0.25	Control	0.6964	0.0	Yes	3.033	0.017	n/a	GoodResponse	0	n/a	n/a	6	55	Cue	Neutral	True
522.468	3.95	Control	0.6964	0.0	Yes	3.033	0.001	n/a	GoodResponse	0	n/a	n/a	6	55	Fixation	Neutral	True
526.413	0.32	Control	0.6964	0.004	Yes	3.033	-0.004	2.0	GoodResponse	0	0.238	525.651	6	55	Target	Neutral	True
526.651	0.3	Control	0.6964	0.004	Yes	3.033	-0.004	2.0	GoodResponse	0	0.238	n/a	6	55	ButtonPress	Neutral	True
526.747	0.38	Control	0.6964	n/a	Yes	3.033	n/a	n/a	GoodResponse	0	n/a	n/a	6	55	Blank	Neutral	True
527.115	1.45	Control	0.6964	n/a	Yes	3.033	n/a	5.0	GoodResponse	0	0.029	526.144	6	55	Feedback	Neutral	True
528.569	3.033	Control	0.6964	n/a	Yes	3.033	n/a	n/a	GoodResponse	0	0.0	n/a	6	55	ISIslide	Neutral	True
531.612	0.25	Control	0.7018000000000001	0.0	Yes	2.838	0.012	n/a	GoodResponse	0	n/a	n/a	6	56	Cue	Neutral	True
531.863	3.95	Control	0.7018000000000001	0.0	Yes	2.838	0.001	n/a	GoodResponse	0	n/a	n/a	6	56	Fixation	Neutral	True
535.808	0.31	Control	0.7018000000000001	0.004	Yes	2.838	-0.004	2.0	GoodResponse	0	0.205	535.013	6	56	Target	Neutral	True
536.013	0.3	Control	0.7018000000000001	0.004	Yes	2.838	-0.004	2.0	GoodResponse	0	0.205	n/a	6	56	ButtonPress	Neutral	True
536.125	0.39	Control	0.7018000000000001	n/a	Yes	2.838	n/a	n/a	GoodResponse	0	n/a	n/a	6	56	Blank	Neutral	True
536.51	1.45	Control	0.7018000000000001	n/a	Yes	2.838	n/a	5.0	GoodResponse	0	0.049	535.559	6	56	Feedback	Neutral	True
537.964	2.838	Control	0.7018000000000001	n/a	Yes	2.838	n/a	n/a	GoodResponse	0	0.0	n/a	6	56	ISIslide	Neutral	True
540.823	0.25	Control	0.7069	0.0	Yes	3.477	0.023	n/a	GoodResponse	0	n/a	n/a	6	57	Cue	Neutral	True
541.074	4.0	Control	0.7069	0.0	Yes	3.477	0.001	n/a	GoodResponse	0	n/a	n/a	6	57	Fixation	Neutral	True
545.069	0.3	Control	0.7069	0.004	Yes	3.477	-0.004	2.0	GoodResponse	0	0.243	544.312	6	57	Target	Neutral	True
545.312	0.3	Control	0.7069	0.004	Yes	3.477	-0.004	2.0	GoodResponse	0	0.243	n/a	6	57	ButtonPress	Neutral	True
545.37	0.4	Control	0.7069	n/a	Yes	3.477	n/a	n/a	GoodResponse	0	n/a	n/a	6	57	Blank	Neutral	True
545.771	1.45	Control	0.7069	n/a	Yes	3.477	n/a	5.0	GoodResponse	0	0.008	544.779	6	57	Feedback	Neutral	True
547.225	3.477	Control	0.7069	n/a	Yes	3.477	n/a	n/a	GoodResponse	0	0.0	n/a	6	57	ISIslide	Neutral	True
550.719	0.25	Win2	0.7119	0.0	Yes	2.731	0.019	n/a	GoodResponse	1	n/a	n/a	7	58	Cue	Win	True
550.97	4.05	Win2	0.7119	0.0	Yes	2.731	0.001	n/a	GoodResponse	1	n/a	n/a	7	58	Fixation	Win	True
555.015	0.29	Win2	0.7119	0.004	Yes	2.731	-0.004	2.0	GoodResponse	1	0.222	554.237	7	58	Target	Win	True
555.237	0.3	Win2	0.7119	0.004	Yes	2.731	-0.004	2.0	GoodResponse	1	0.222	n/a	7	58	ButtonPress	Win	True
555.316	0.41	Win2	0.7119	n/a	Yes	2.731	n/a	n/a	GoodResponse	1	n/a	n/a	7	58	Blank	Win	True
555.717	1.45	Win2	0.7119	n/a	Yes	2.731	n/a	5.0	GoodResponse	1	0.012	554.729	7	58	Feedback	Win	True
557.172	2.731	Win2	0.7119	n/a	Yes	2.731	n/a	n/a	GoodResponse	1	0.0	n/a	7	58	ISIslide	Win	True
559.913	0.25	Lose2	0.7167	0.0	Yes	2.687	0.013	n/a	GoodResponse	0	n/a	n/a	7	59	Cue	AvoidedLoss	True
560.164	4.0	Lose2	0.7167	0.0	Yes	2.687	0.001	n/a	GoodResponse	0	n/a	n/a	7	59	Fixation	AvoidedLoss	True
564.159	0.28	Lose2	0.7167	0.004	Yes	2.687	-0.004	2.0	GoodResponse	0	0.215	563.374	7	59	Target	AvoidedLoss	True
564.374	0.3	Lose2	0.7167	0.004	Yes	2.687	-0.004	2.0	GoodResponse	0	0.215	n/a	7	59	ButtonPress	AvoidedLoss	True
564.444	0.42	Lose2	0.7167	n/a	Yes	2.687	n/a	n/a	GoodResponse	0	n/a	n/a	7	59	Blank	AvoidedLoss	True
564.862	1.45	Lose2	0.7167	n/a	Yes	2.687	n/a	5.0	GoodResponse	0	0.038	563.9	7	59	Feedback	AvoidedLoss	True
566.316	2.687	Lose2	0.7167	n/a	Yes	2.687	n/a	n/a	GoodResponse	0	0.0	n/a	7	59	ISIslide	AvoidedLoss	True
569.024	0.25	Control	0.7212999999999999	0.0	Yes	2.676	0.024	n/a	GoodResponse	0	n/a	n/a	7	60	Cue	Neutral	True
569.275	4.0	Control	0.7212999999999999	0.0	Yes	2.676	0.001	n/a	GoodResponse	0	n/a	n/a	7	60	Fixation	Neutral	True
573.27	0.27	Control	0.7212999999999999	0.004	Yes	2.676	-0.004	2.0	GoodResponse	0	0.259	572.529	7	60	Target	Neutral	True
573.529	0.3	Control	0.7212999999999999	0.004	Yes	2.676	-0.004	2.0	GoodResponse	0	0.259	n/a	7	60	ButtonPress	Neutral	True
573.554	0.43	Control	0.7212999999999999	n/a	Yes	2.676	n/a	n/a	GoodResponse	0	n/a	n/a	7	60	Blank	Neutral	True
573.972	1.45	Control	0.7212999999999999	n/a	Yes	2.676	n/a	5.0	GoodResponse	0	0.001	572.973	7	60	Feedback	Neutral	True
575.427	2.676	Control	0.7212999999999999	n/a	Yes	2.676	n/a	n/a	GoodResponse	0	0.0	n/a	7	60	ISIslide	Neutral	True
578.118	0.25	Lose2	0.7258	0.0	Yes	2.982	0.018	n/a	GoodResponse	0	n/a	n/a	7	61	Cue	AvoidedLoss	True
578.369	4.0	Lose2	0.7258	0.0	Yes	2.982	0.001	n/a	GoodResponse	0	n/a	n/a	7	61	Fixation	AvoidedLoss	True
582.364	0.26	Lose2	0.7258	0.004	Yes	2.982	-0.004	2.0	GoodResponse	0	0.213	581.577	7	61	Target	AvoidedLoss	True
582.577	0.3	Lose2	0.7258	0.004	Yes	2.982	-0.004	2.0	GoodResponse	0	0.213	n/a	7	61	ButtonPress	AvoidedLoss	True
582.632	0.44	Lose2	0.7258	n/a	Yes	2.982	n/a	n/a	GoodResponse	0	n/a	n/a	7	61	Blank	AvoidedLoss	True
583.066	1.45	Lose2	0.7258	n/a	Yes	2.982	n/a	5.0	GoodResponse	0	0.029	582.095	7	61	Feedback	AvoidedLoss	True
584.521	2.982	Lose2	0.7258	n/a	Yes	2.982	n/a	n/a	GoodResponse	0	0.0	n/a	7	61	ISIslide	AvoidedLoss	True
587.513	0.25	Lose2	0.7302	0.0	Yes	2.887	0.013	n/a	GoodResponse	0	n/a	n/a	7	62	Cue	AvoidedLoss	True
587.764	3.9	Lose2	0.7302	0.0	Yes	2.887	0.001	n/a	GoodResponse	0	n/a	n/a	7	62	Fixation	AvoidedLoss	True
591.659	0.25	Lose2	0.7302	0.004	Yes	2.887	-0.004	2.0	GoodResponse	0	0.214	590.873	7	62	Target	AvoidedLoss	True
591.873	0.3	Lose2	0.7302	0.004	Yes	2.887	-0.004	2.0	GoodResponse	0	0.214	n/a	7	62	ButtonPress	AvoidedLoss	True
591.909	0.45	Lose2	0.7302	n/a	Yes	2.887	n/a	n/a	GoodResponse	0	n/a	n/a	7	62	Blank	AvoidedLoss	True
592.361	1.45	Lose2	0.7302	n/a	Yes	2.887	n/a	5.0	GoodResponse	0	0.002	591.363	7	62	Feedback	AvoidedLoss	True
593.815	2.887	Lose2	0.7302	n/a	Yes	2.887	n/a	n/a	GoodResponse	0	0.0	n/a	7	62	ISIslide	AvoidedLoss	True
596.724	0.25	Lose2	0.7343999999999999	0.0	Yes	2.626	0.024	n/a	GoodResponse	0	n/a	n/a	7	63	Cue	AvoidedLoss	True
596.975	4.05	Lose2	0.7343999999999999	0.0	Yes	2.626	0.001	n/a	GoodResponse	0	n/a	n/a	7	63	Fixation	AvoidedLoss	True
601.02	0.24	Lose2	0.7343999999999999	0.004	Yes	2.626	-0.004	2.0	GoodResponse	0	0.192	600.212	7	63	Target	AvoidedLoss	True
601.212	0.3	Lose2	0.7343999999999999	0.004	Yes	2.626	-0.004	2.0	GoodResponse	0	0.192	n/a	7	63	ButtonPress	AvoidedLoss	True
601.271	0.46	Lose2	0.7343999999999999	n/a	Yes	2.626	n/a	n/a	GoodResponse	0	n/a	n/a	7	63	Blank	AvoidedLoss	True
601.722	1.45	Lose2	0.7343999999999999	n/a	Yes	2.626	n/a	5.0	GoodResponse	0	0.007	600.729	7	63	Feedback	AvoidedLoss	True
603.177	2.626	Lose2	0.7343999999999999	n/a	Yes	2.626	n/a	n/a	GoodResponse	0	0.0	n/a	7	63	ISIslide	AvoidedLoss	True
605.818	0.25	Win2	0.7384999999999999	0.0	Yes	3.132	0.018	n/a	GoodResponse	1	n/a	n/a	8	64	Cue	Win	True
606.069	4.15	Win2	0.7384999999999999	0.0	Yes	3.132	0.001	n/a	GoodResponse	1	n/a	n/a	8	64	Fixation	Win	True
610.214	0.23	Win2	0.7384999999999999	0.004	Yes	3.132	-0.004	2.0	GoodResponse	1	0.207	609.421	8	64	Target	Win	True
610.421	0.3	Win2	0.7384999999999999	0.004	Yes	3.132	-0.004	2.0	GoodResponse	1	0.207	n/a	8	64	ButtonPress	Win	True
610.448	0.47	Win2	0.7384999999999999	n/a	Yes	3.132	n/a	n/a	GoodResponse	1	n/a	n/a	8	64	Blank	Win	True
610.916	1.45	Win2	0.7384999999999999	n/a	Yes	3.132	n/a	5.0	GoodResponse	1	0.033	609.949	8	64	Feedback	Win	True
612.371	3.132	Win2	0.7384999999999999	n/a	Yes	3.132	n/a	n/a	GoodResponse	1	0.0	n/a	8	64	ISIslide	Win	True
615.514	0.25	Control	0.7273000000000001	0.0	No	2.786	0.014	n/a	LatePress	0	n/a	n/a	8	65	Cue	Neutral	True
615.764	4.0	Control	0.7273000000000001	0.0	No	2.786	0.0	n/a	LatePress	0	n/a	n/a	8	65	Fixation	Neutral	True
619.76	0.22	Control	0.7273000000000001	0.004	No	2.786	-0.004	2.0	LatePress	0	0.23	618.99	8	65	Target	Neutral	True
619.99	0.3	Control	0.7273000000000001	0.004	No	2.786	-0.004	2.0	LatePress	0	0.23	n/a	8	65	ButtonPress	Neutral	True
619.994	0.48	Control	0.7273000000000001	n/a	No	2.786	n/a	n/a	LatePress	0	n/a	n/a	8	65	Blank	Neutral	True
620.462	1.45	Control	0.7273000000000001	n/a	No	2.786	n/a	5.0	LatePress	0	0.048	619.51	8	65	Feedback	Neutral	True
621.916	2.786	Control	0.7273000000000001	n/a	No	2.786	n/a	n/a	LatePress	0	0.0	n/a	8	65	ISIslide	Neutral	True
624.725	0.25	Win2	0.7313	0.0	Yes	2.775	0.025	n/a	GoodResponse	1	n/a	n/a	9	66	Cue	Win	True
624.975	3.9	Win2	0.7313	0.0	Yes	2.775	0.0	n/a	GoodResponse	1	n/a	n/a	9	66	Fixation	Win	True
628.887	0.21	Win2	0.7313	0.0	Yes	2.775	0.012	2.0	GoodResponse	1	0.185	628.072	9	66	Target	Win	True
629.072	0.3	Win2	0.7313	0.0	Yes	2.775	0.012	2.0	GoodResponse	1	0.185	n/a	9	66	ButtonPress	Win	True
629.088	0.49	Win2	0.7313	n/a	Yes	2.775	n/a	n/a	GoodResponse	1	n/a	n/a	9	66	Blank	Win	True
629.572	1.45	Win2	0.7313	n/a	Yes	2.775	n/a	5.0	GoodResponse	1	0.01	628.582	9	66	Feedback	Win	True
631.027	2.775	Win2	0.7313	n/a	Yes	2.775	n/a	n/a	GoodResponse	1	0.0	n/a	9	66	ISIslide	Win	True
633.818	0.25	Control	0.7206	0.001	No	2.732	0.018	n/a	LatePress	0	n/a	n/a	9	67	Cue	Neutral	True
634.069	3.95	Control	0.7206	0.0	No	2.732	0.001	n/a	LatePress	0	n/a	n/a	9	67	Fixation	Neutral	True
638.014	0.2	Control	0.7206	0.004	No	2.732	-0.004	2.0	LatePress	0	0.201	637.215	9	67	Target	Neutral	True
638.215	0.5	Control	0.7206	n/a	No	2.732	n/a	n/a	LatePress	0	n/a	n/a	9	67	Blank	Neutral	True
638.215	0.3	Control	0.7206	0.004	No	2.732	-0.004	2.0	LatePress	0	0.201	n/a	9	67	ButtonPress	Neutral	True
638.716	1.45	Control	0.7206	n/a	No	2.732	n/a	5.0	LatePress	0	0.037	637.753	9	67	Feedback	Neutral	True
640.171	2.732	Control	0.7206	n/a	No	2.732	n/a	n/a	LatePress	0	0.0	n/a	9	67	ISIslide	Neutral	True
642.929	0.25	Win2	0.7101000000000001	0.0	No	3.071	0.029	n/a	LatePress	0	n/a	n/a	9	68	Cue	MissedWin	True
643.18	4.0	Win2	0.7101000000000001	0.0	No	3.071	0.001	n/a	LatePress	0	n/a	n/a	9	68	Fixation	MissedWin	True
647.175	0.19	Win2	0.7101000000000001	0.004	No	3.071	-0.004	2.0	LatePress	0	0.193	646.368	9	68	Target	MissedWin	True
647.368	0.3	Win2	0.7101000000000001	0.004	No	3.071	-0.004	2.0	LatePress	0	0.193	n/a	9	68	ButtonPress	MissedWin	True
647.376	0.51	Win2	0.7101000000000001	n/a	No	3.071	n/a	n/a	LatePress	0	n/a	n/a	9	68	Blank	MissedWin	True
647.877	1.45	Win2	0.7101000000000001	n/a	No	3.071	n/a	5.0	LatePress	0	0.047	646.924	9	68	Feedback	MissedWin	True
649.332	3.071	Win2	0.7101000000000001	n/a	No	3.071	n/a	n/a	LatePress	0	0.0	n/a	9	68	ISIslide	MissedWin	True
652.424	0.25	Win2	0.7	0.0	No	3.226	0.024	n/a	NoResponse	0	n/a	n/a	9	69	Cue	MissedWin	True
652.675	3.95	Win2	0.7	0.0	No	3.226	0.001	n/a	NoResponse	0	n/a	n/a	9	69	Fixation	MissedWin	True
656.62	0.18	Win2	0.7	0.004	No	3.226	-0.004	2.0	NoResponse	0	0.197	655.817	9	69	Target	MissedWin	True
656.804	0.52	Win2	0.7	n/a	No	3.226	n/a	n/a	NoResponse	0	n/a	n/a	9	69	Blank	MissedWin	True
656.817	0.3	Win2	0.7	0.004	No	3.226	-0.004	2.0	NoResponse	0	0.197	n/a	9	69	ButtonPress	MissedWin	True
657.322	1.45	Win2	0.7	n/a	No	3.226	n/a	5.0	NoResponse	0	0.017	656.339	9	69	Feedback	MissedWin	True
658.777	3.226	Win2	0.7	n/a	No	3.226	n/a	n/a	NoResponse	0	0.0	n/a	9	69	ISIslide	MissedWin	True
662.02	0.25	Lose2	0.6901	0.0	No	3.03	0.02	n/a	LatePress	-1	n/a	n/a	8	70	Cue	Loss	False
662.27	4.05	Lose2	0.6901	0.001	No	3.03	0.0	2.0	LatePress	-1	3.316	664.586	8	70	Fixation	Loss	False
665.586	0.3	Lose2	0.6901	0.001	No	3.03	0.0	2.0	LatePress	-1	3.316	n/a	8	70	ButtonPress	Loss	False
666.316	0.17	Lose2	0.6901	0.004	No	3.03	-0.004	2.0	LatePress	-1	0.184	665.5	8	70	Target	Loss	False
666.5	0.53	Lose2	0.6901	n/a	No	3.03	n/a	n/a	LatePress	-1	n/a	n/a	8	70	Blank	Loss	False
666.5	0.3	Lose2	0.6901	0.004	No	3.03	-0.004	2.0	LatePress	-1	0.184	n/a	8	70	ButtonPress	Loss	False
667.018	1.45	Lose2	0.6901	n/a	No	3.03	n/a	5.0	LatePress	-1	0.028	666.046	8	70	Feedback	Loss	False
668.472	3.03	Lose2	0.6901	n/a	No	3.03	n/a	n/a	LatePress	-1	0.0	n/a	8	70	ISIslide	Loss	False
671.515	0.25	Win2	0.6806	0.0	No	2.735	0.015	n/a	NoResponse	0	n/a	n/a	8	71	Cue	MissedWin	True
671.766	4.05	Win2	0.6806	0.0	No	2.735	0.001	n/a	NoResponse	0	n/a	n/a	8	71	Fixation	MissedWin	True
675.811	0.16	Win2	0.6806	0.004	No	2.735	-0.004	2.0	NoResponse	0	0.232	675.043	8	71	Target	MissedWin	True
675.978	0.54	Win2	0.6806	n/a	No	2.735	n/a	n/a	NoResponse	0	n/a	n/a	8	71	Blank	MissedWin	True
676.043	0.3	Win2	0.6806	0.004	No	2.735	-0.004	2.0	NoResponse	0	0.232	n/a	8	71	ButtonPress	MissedWin	True
676.513	1.45	Win2	0.6806	n/a	No	2.735	n/a	5.0	NoResponse	0	0.045	675.558	8	71	Feedback	MissedWin	True
677.968	2.735	Win2	0.6806	n/a	No	2.735	n/a	n/a	NoResponse	0	0.0	n/a	8	71	ISIslide	MissedWin	True
680.726	0.25	Win2	0.6712	0.0	No	2.774	0.026	n/a	NoResponse	0	n/a	n/a	8	72	Cue	MissedWin	True
680.977	4.1	Win2	0.6712	0.0	No	2.774	0.001	n/a	NoResponse	0	n/a	n/a	8	72	Fixation	MissedWin	True
685.072	0.15	Win2	0.6712	0.004	No	2.774	-0.004	2.0	NoResponse	0	0.219	684.291	8	72	Target	MissedWin	True
685.223	0.55	Win2	0.6712	n/a	No	2.774	n/a	n/a	NoResponse	0	n/a	n/a	8	72	Blank	MissedWin	True
685.291	0.3	Win2	0.6712	0.004	No	2.774	-0.004	2.0	NoResponse	0	0.219	n/a	8	72	ButtonPress	MissedWin	True
685.774	1.45	Win2	0.6712	n/a	No	2.774	n/a	5.0	NoResponse	0	0.005	684.779	8	72	Feedback	MissedWin	True
687.229	2.774	Win2	0.6712	n/a	No	2.774	n/a	n/a	NoResponse	0	0.0	n/a	8	72	ISIslide	MissedWin	True
690.02	0.25	Win2	0.6622	0.0	No	2.68	0.02	n/a	NoResponse	0	n/a	n/a	8	73	Cue	MissedWin	True
690.271	4.0	Win2	0.6622	0.0	No	2.68	0.001	n/a	NoResponse	0	n/a	n/a	8	73	Fixation	MissedWin	True
694.266	0.15	Win2	0.6622	0.004	No	2.68	-0.004	2.0	NoResponse	0	0.186	693.452	8	73	Target	MissedWin	True
694.417	0.55	Win2	0.6622	n/a	No	2.68	n/a	n/a	NoResponse	0	n/a	n/a	8	73	Blank	MissedWin	True
694.452	0.3	Win2	0.6622	0.004	No	2.68	-0.004	2.0	NoResponse	0	0.186	n/a	8	73	ButtonPress	MissedWin	True
694.969	1.45	Win2	0.6622	n/a	No	2.68	n/a	5.0	NoResponse	0	0.029	693.998	8	73	Feedback	MissedWin	True
696.423	2.68	Win2	0.6622	n/a	No	2.68	n/a	n/a	NoResponse	0	0.0	n/a	8	73	ISIslide	MissedWin	True
699.114	0.25	Lose2	0.6533	0.0	No	2.636	0.014	n/a	NoResponse	-1	n/a	n/a	7	74	Cue	Loss	True
699.365	4.05	Lose2	0.6533	0.0	No	2.636	0.001	n/a	NoResponse	-1	n/a	n/a	7	74	Fixation	Loss	True
703.411	0.15	Lose2	0.6533	0.003	No	2.636	-0.003	2.0	NoResponse	-1	0.228	702.639	7	74	Target	Loss	True
703.561	0.55	Lose2	0.6533	n/a	No	2.636	n/a	n/a	NoResponse	-1	n/a	n/a	7	74	Blank	Loss	True
703.639	0.3	Lose2	0.6533	0.003	No	2.636	-0.003	2.0	NoResponse	-1	0.228	n/a	7	74	ButtonPress	Loss	True
704.113	1.45	Lose2	0.6533	n/a	No	2.636	n/a	5.0	NoResponse	-1	0.006	703.119	7	74	Feedback	Loss	True
705.567	2.636	Lose2	0.6533	n/a	No	2.636	n/a	n/a	NoResponse	-1	0.0	n/a	7	74	ISIslide	Loss	True
708.225	0.25	Lose2	0.6446999999999999	0.0	No	2.925	0.025	n/a	NoResponse	-1	n/a	n/a	6	75	Cue	Loss	True
708.476	3.95	Lose2	0.6446999999999999	0.0	No	2.925	0.001	n/a	NoResponse	-1	n/a	n/a	6	75	Fixation	Loss	True
712.421	0.16	Lose2	0.6446999999999999	0.004	No	2.925	-0.004	2.0	NoResponse	-1	0.207	711.628	6	75	Target	Loss	True
712.588	0.54	Lose2	0.6446999999999999	n/a	No	2.925	n/a	n/a	NoResponse	-1	n/a	n/a	6	75	Blank	Loss	True
712.628	0.3	Lose2	0.6446999999999999	0.004	No	2.925	-0.004	2.0	NoResponse	-1	0.207	n/a	6	75	ButtonPress	Loss	True
713.123	1.45	Lose2	0.6446999999999999	n/a	No	2.925	n/a	5.0	NoResponse	-1	0.02	712.143	6	75	Feedback	Loss	True
714.577	2.925	Lose2	0.6446999999999999	n/a	No	2.925	n/a	n/a	NoResponse	-1	0.0	n/a	6	75	ISIslide	Loss	True
717.52	0.25	Control	0.6364	0.0	No	3.23	0.02	n/a	NoResponse	0	n/a	n/a	6	76	Cue	Neutral	False
717.77	4.05	Control	0.6364	0.0	No	3.23	0.0	2.0	NoResponse	0	3.68	720.45	6	76	Fixation	Neutral	False
721.45	0.3	Control	0.6364	0.0	No	3.23	0.0	2.0	NoResponse	0	3.68	n/a	6	76	ButtonPress	Neutral	False
721.816	0.17	Control	0.6364	0.004	No	3.23	-0.004	2.0	NoResponse	0	0.217	721.033	6	76	Target	Neutral	False
722	0.53	Control	0.6364	n/a	No	3.23	n/a	n/a	NoResponse	0	n/a	n/a	6	76	Blank	Neutral	False
722.033	0.3	Control	0.6364	0.004	No	3.23	-0.004	2.0	NoResponse	0	0.217	n/a	6	76	ButtonPress	Neutral	False
722.518	1.45	Control	0.6364	n/a	No	3.23	n/a	5.0	NoResponse	0	0.04	721.558	6	76	Feedback	Neutral	False
723.972	3.23	Control	0.6364	n/a	No	3.23	n/a	n/a	NoResponse	0	0.0	n/a	6	76	ISIslide	Neutral	False
727.215	0.25	Lose2	0.6282	0.0	No	2.585	0.015	n/a	NoResponse	-1	n/a	n/a	5	77	Cue	Loss	True
727.466	3.95	Lose2	0.6282	0.0	No	2.585	0.001	n/a	NoResponse	-1	n/a	n/a	5	77	Fixation	Loss	True
731.411	0.18	Lose2	0.6282	0.004	No	2.585	-0.004	2.0	NoResponse	-1	0.225	730.636	5	77	Target	Loss	True
731.595	0.52	Lose2	0.6282	n/a	No	2.585	n/a	n/a	NoResponse	-1	n/a	n/a	5	77	Blank	Loss	True
731.636	0.3	Lose2	0.6282	0.004	No	2.585	-0.004	2.0	NoResponse	-1	0.225	n/a	5	77	ButtonPress	Loss	True
732.113	1.45	Lose2	0.6282	n/a	No	2.585	n/a	5.0	NoResponse	-1	0.006	731.119	5	77	Feedback	Loss	True
733.568	2.585	Lose2	0.6282	n/a	No	2.585	n/a	n/a	NoResponse	-1	0.0	n/a	5	77	ISIslide	Loss	True
