onset	duration	cue_type	current_mean_accuracy	duration_error	is_hit	isi_adjusted	onset_delay	response	response_type	reward	rt	rt_time	total_reward	trial_number	trial_phase	trial_type	one_press
11.096	0.25	Control	1.0	0.0	Yes	2.954	-0.004	n/a	GoodResponse	0	n/a	n/a	0	0	Cue	Neutral	True
11.347	3.85	Control	1.0	0.0	Yes	2.954	0.001	n/a	GoodResponse	0	n/a	n/a	0	0	Fixation	Neutral	True
15.192	0.4	Control	1.0	0.004	Yes	2.954	-0.004	2.0	GoodResponse	0	0.219	14.411	0	0	Target	Neutral	True
15.411	0.3	Control	1.0	0.004	Yes	2.954	-0.004	2.0	GoodResponse	0	0.219	n/a	0	0	ButtonPress	Neutral	True
15.593	0.3	Control	1.0	n/a	Yes	2.954	n/a	n/a	GoodResponse	0	n/a	n/a	0	0	Blank	Neutral	True
15.894	1.45	Control	1.0	n/a	Yes	2.954	n/a	5.0	GoodResponse	0	0.033	14.927	0	0	Feedback	Neutral	True
17.348	2.954	Control	1.0	n/a	Yes	2.954	n/a	n/a	GoodResponse	0	0.0	n/a	0	0	ISIslide	Neutral	True
20.324	0.25	Lose2	1.0	0.0	Yes	2.776	0.024	n/a	GoodResponse	0	n/a	n/a	0	1	Cue	AvoidedLoss	True
20.575	4.0	Lose2	1.0	0.0	Yes	2.776	0.001	n/a	GoodResponse	0	n/a	n/a	0	1	Fixation	AvoidedLoss	True
24.57	0.39	Lose2	1.0	0.004	Yes	2.776	-0.004	2.0	GoodResponse	0	0.21	23.78	0	1	Target	AvoidedLoss	True
24.78	0.3	Lose2	1.0	0.004	Yes	2.776	-0.004	2.0	GoodResponse	0	0.21	n/a	0	1	ButtonPress	AvoidedLoss	True
24.971	0.31	Lose2	1.0	n/a	Yes	2.776	n/a	n/a	GoodResponse	0	n/a	n/a	0	1	Blank	AvoidedLoss	True
25.272	1.45	Lose2	1.0	n/a	Yes	2.776	n/a	5.0	GoodResponse	0	0.02	24.292	0	1	Feedback	AvoidedLoss	True
26.726	2.776	Lose2	1.0	n/a	Yes	2.776	n/a	n/a	GoodResponse	0	0.0	n/a	0	1	ISIslide	AvoidedLoss	True
29.518	0.25	Control	1.0	0.0	Yes	2.582	0.018	n/a	GoodResponse	0	n/a	n/a	0	2	Cue	Neutral	True
29.769	4.1	Control	1.0	0.0	Yes	2.582	0.001	n/a	GoodResponse	0	n/a	n/a	0	2	Fixation	Neutral	True
33.864	0.38	Control	1.0	0.004	Yes	2.582	-0.004	2.0	GoodResponse	0	0.207	33.071	0	2	Target	Neutral	True
34.071	0.3	Control	1.0	0.004	Yes	2.582	-0.004	2.0	GoodResponse	0	0.207	n/a	0	2	ButtonPress	Neutral	True
34.249	0.32	Control	1.0	n/a	Yes	2.582	n/a	n/a	GoodResponse	0	n/a	n/a	0	2	Blank	Neutral	True
34.566	1.45	Control	1.0	n/a	Yes	2.582	n/a	5.0	GoodResponse	0	0.043	33.609	0	2	Feedback	Neutral	True
36.021	2.582	Control	1.0	n/a	Yes	2.582	n/a	n/a	GoodResponse	0	0.0	n/a	0	2	ISIslide	Neutral	True
38.629	0.25	Win2	1.0	0.0	Yes	2.821	0.029	n/a	GoodResponse	1	n/a	n/a	1	3	Cue	Win	True
38.879	3.95	Win2	1.0	0.0	Yes	2.821	0.0	n/a	GoodResponse	1	n/a	n/a	1	3	Fixation	Win	True
42.841	0.37	Win2	1.0	0.0	Yes	2.821	0.012	2.0	GoodResponse	1	0.286	42.127	1	3	Target	Win	True
43.127	0.3	Win2	1.0	0.0	Yes	2.821	0.012	2.0	GoodResponse	1	0.286	n/a	1	3	ButtonPress	Win	True
43.209	0.33	Win2	1.0	n/a	Yes	2.821	n/a	n/a	GoodResponse	1	n/a	n/a	1	3	Blank	Win	True
43.527	1.45	Win2	1.0	n/a	Yes	2.821	n/a	5.0	GoodResponse	1	0.009	42.536	1	3	Feedback	Win	True
44.981	2.821	Win2	1.0	n/a	Yes	2.821	n/a	n/a	GoodResponse	1	0.0	n/a	1	3	ISIslide	Win	True
47.823	0.25	Win2	1.0	0.0	Yes	3.277	0.023	n/a	GoodResponse	1	n/a	n/a	2	4	Cue	Win	True
48.074	4.0	Win2	1.0	0.0	Yes	3.277	0.001	n/a	GoodResponse	1	n/a	n/a	2	4	Fixation	Win	True
52.069	0.36	Win2	1.0	0.004	Yes	3.277	-0.004	2.0	GoodResponse	1	0.225	51.294	2	4	Target	Win	True
52.294	0.3	Win2	1.0	0.004	Yes	3.277	-0.004	2.0	GoodResponse	1	0.225	n/a	2	4	ButtonPress	Win	True
52.437	0.34	Win2	1.0	n/a	Yes	3.277	n/a	n/a	GoodResponse	1	n/a	n/a	2	4	Blank	Win	True
52.771	1.45	Win2	1.0	n/a	Yes	3.277	n/a	5.0	GoodResponse	1	0.033	51.804	2	4	Feedback	Win	True
54.225	3.277	Win2	1.0	n/a	Yes	3.277	n/a	n/a	GoodResponse	1	0.0	n/a	2	4	ISIslide	Win	True
57.518	0.25	Win2	1.0	0.001	Yes	2.782	0.018	n/a	GoodResponse	1	n/a	n/a	3	5	Cue	Win	True
57.769	4.0	Win2	1.0	0.0	Yes	2.782	0.001	n/a	GoodResponse	1	n/a	n/a	3	5	Fixation	Win	True
61.764	0.35	Win2	1.0	0.004	Yes	2.782	-0.004	2.0	GoodResponse	1	0.224	60.988	3	5	Target	Win	True
61.988	0.3	Win2	1.0	0.004	Yes	2.782	-0.004	2.0	GoodResponse	1	0.224	n/a	3	5	ButtonPress	Win	True
62.116	0.35	Win2	1.0	n/a	Yes	2.782	n/a	n/a	GoodResponse	1	n/a	n/a	3	5	Blank	Win	True
62.467	1.45	Win2	1.0	n/a	Yes	2.782	n/a	5.0	GoodResponse	1	0.044	61.511	3	5	Feedback	Win	True
63.921	2.782	Win2	1.0	n/a	Yes	2.782	n/a	n/a	GoodResponse	1	0.0	n/a	3	5	ISIslide	Win	True
66.729	0.25	Lose2	1.0	0.0	Yes	2.721	0.029	n/a	GoodResponse	0	n/a	n/a	3	6	Cue	AvoidedLoss	True
66.98	3.95	Lose2	1.0	0.0	Yes	2.721	0.001	n/a	GoodResponse	0	n/a	n/a	3	6	Fixation	AvoidedLoss	True
70.925	0.34	Lose2	1.0	0.004	Yes	2.721	-0.004	2.0	GoodResponse	0	0.222	70.147	3	6	Target	AvoidedLoss	True
71.147	0.3	Lose2	1.0	0.004	Yes	2.721	-0.004	2.0	GoodResponse	0	0.222	n/a	3	6	ButtonPress	AvoidedLoss	True
71.276	0.36	Lose2	1.0	n/a	Yes	2.721	n/a	n/a	GoodResponse	0	n/a	n/a	3	6	Blank	AvoidedLoss	True
71.627	1.45	Lose2	1.0	n/a	Yes	2.721	n/a	5.0	GoodResponse	0	0.007	70.634	3	6	Feedback	AvoidedLoss	True
73.082	2.721	Lose2	1.0	n/a	Yes	2.721	n/a	n/a	GoodResponse	0	0.0	n/a	3	6	ISIslide	AvoidedLoss	True
75.823	0.25	Lose2	0.875	0.0	No	4.027	0.023	n/a	NoResponse	-1	n/a	n/a	2	7	Cue	Loss	True
76.074	4.05	Lose2	0.875	0.0	No	4.027	0.001	n/a	NoResponse	-1	n/a	n/a	2	7	Fixation	Loss	True
80.119	0.33	Lose2	0.875	0.004	No	4.027	-0.004	2.0	NoResponse	-1	0.387	79.506	2	7	Target	Loss	True
80.454	0.37	Lose2	0.875	n/a	No	4.027	n/a	n/a	NoResponse	-1	n/a	n/a	2	7	Blank	Loss	True
80.506	0.3	Lose2	0.875	0.004	No	4.027	-0.004	2.0	NoResponse	-1	0.387	n/a	2	7	ButtonPress	Loss	True
80.822	1.45	Lose2	0.875	n/a	No	4.027	n/a	5.0	NoResponse	-1	0.03	79.852	2	7	Feedback	Loss	True
82.276	4.027	Lose2	0.875	n/a	No	4.027	n/a	n/a	NoResponse	-1	0.0	n/a	2	7	ISIslide	Loss	True
86.321	0.25	Lose2	0.8889	0.0	Yes	3.029	0.021	n/a	GoodResponse	0	n/a	n/a	2	8	Cue	AvoidedLoss	True
86.572	3.95	Lose2	0.8889	0.0	Yes	3.029	0.001	n/a	GoodResponse	0	n/a	n/a	2	8	Fixation	AvoidedLoss	True
90.517	0.32	Lose2	0.8889	0.004	Yes	3.029	-0.004	2.0	GoodResponse	0	0.207	89.724	2	8	Target	AvoidedLoss	True
90.724	0.3	Lose2	0.8889	0.004	Yes	3.029	-0.004	2.0	GoodResponse	0	0.207	n/a	2	8	ButtonPress	AvoidedLoss	True
90.852	0.38	Lose2	0.8889	n/a	Yes	3.029	n/a	n/a	GoodResponse	0	n/a	n/a	2	8	Blank	AvoidedLoss	True
91.219	1.45	Lose2	0.8889	n/a	Yes	3.029	n/a	5.0	GoodResponse	0	0.023	90.242	2	8	Feedback	AvoidedLoss	True
92.674	3.029	Lose2	0.8889	n/a	Yes	3.029	n/a	n/a	GoodResponse	0	0.0	n/a	2	8	ISIslide	AvoidedLoss	True
95.716	0.25	Lose2	0.9	0.0	Yes	3.134	0.016	n/a	GoodResponse	0	n/a	n/a	2	9	Cue	AvoidedLoss	True
95.967	3.95	Lose2	0.9	0.0	Yes	3.134	0.001	n/a	GoodResponse	0	n/a	n/a	2	9	Fixation	AvoidedLoss	True
99.912	0.31	Lose2	0.9	0.004	Yes	3.134	-0.004	2.0	GoodResponse	0	0.216	99.128	2	9	Target	AvoidedLoss	True
100.128	0.3	Lose2	0.9	0.004	Yes	3.134	-0.004	2.0	GoodResponse	0	0.216	n/a	2	9	ButtonPress	AvoidedLoss	True
100.23	0.39	Lose2	0.9	n/a	Yes	3.134	n/a	n/a	GoodResponse	0	n/a	n/a	2	9	Blank	AvoidedLoss	True
100.614	1.45	Lose2	0.9	n/a	Yes	3.134	n/a	5.0	GoodResponse	0	0.043	99.657	2	9	Feedback	AvoidedLoss	True
102.068	3.134	Lose2	0.9	n/a	Yes	3.134	n/a	n/a	GoodResponse	0	0.0	n/a	2	9	ISIslide	AvoidedLoss	True
105.228	0.25	Control	0.9091	0.0	Yes	3.272	0.028	n/a	GoodResponse	0	n/a	n/a	2	10	Cue	Neutral	True
105.479	4.0	Control	0.9091	0.0	Yes	3.272	0.001	n/a	GoodResponse	0	n/a	n/a	2	10	Fixation	Neutral	True
109.474	0.3	Control	0.9091	0.004	Yes	3.272	-0.004	2.0	GoodResponse	0	0.175	108.649	2	10	Target	Neutral	True
109.649	0.3	Control	0.9091	0.004	Yes	3.272	-0.004	2.0	GoodResponse	0	0.175	n/a	2	10	ButtonPress	Neutral	True
109.775	0.4	Control	0.9091	n/a	Yes	3.272	n/a	n/a	GoodResponse	0	n/a	n/a	2	10	Blank	Neutral	True
110.176	1.45	Control	0.9091	n/a	Yes	3.272	n/a	5.0	GoodResponse	0	0.042	109.218	2	10	Feedback	Neutral	True
111.63	3.272	Control	0.9091	n/a	Yes	3.272	n/a	n/a	GoodResponse	0	0.0	n/a	2	10	ISIslide	Neutral	True
114.924	0.25	Lose2	0.9167000000000001	0.0	Yes	2.726	0.024	n/a	GoodResponse	0	n/a	n/a	2	11	Cue	AvoidedLoss	True
115.174	4.05	Lose2	0.9167000000000001	0.0	Yes	2.726	0.0	n/a	GoodResponse	0	n/a	n/a	2	11	Fixation	AvoidedLoss	True
119.22	0.29	Lose2	0.9167000000000001	0.004	Yes	2.726	-0.004	2.0	GoodResponse	0	0.207	118.427	2	11	Target	AvoidedLoss	True
119.427	0.3	Lose2	0.9167000000000001	0.004	Yes	2.726	-0.004	2.0	GoodResponse	0	0.207	n/a	2	11	ButtonPress	AvoidedLoss	True
119.521	0.41	Lose2	0.9167000000000001	n/a	Yes	2.726	n/a	n/a	GoodResponse	0	n/a	n/a	2	11	Blank	AvoidedLoss	True
119.922	1.45	Lose2	0.9167000000000001	n/a	Yes	2.726	n/a	5.0	GoodResponse	0	0.007	118.929	2	11	Feedback	AvoidedLoss	True
121.376	2.726	Lose2	0.9167000000000001	n/a	Yes	2.726	n/a	n/a	GoodResponse	0	0.0	n/a	2	11	ISIslide	AvoidedLoss	True
124.118	0.25	Control	0.9231	0.0	Yes	2.982	0.018	n/a	GoodResponse	0	n/a	n/a	2	12	Cue	Neutral	False
124.369	3.9	Control	0.9231	0.0	Yes	2.982	0.001	2.0	GoodResponse	0	0.935	124.304	2	12	Fixation	Neutral	False
125.304	0.3	Control	0.9231	0.0	Yes	2.982	0.001	2.0	GoodResponse	0	0.935	n/a	2	12	ButtonPress	Neutral	False
128.264	0.28	Control	0.9231	0.004	Yes	2.982	-0.004	2.0	GoodResponse	0	0.227	127.491	2	12	Target	Neutral	False
128.491	0.3	Control	0.9231	0.004	Yes	2.982	-0.004	2.0	GoodResponse	0	0.227	n/a	2	12	ButtonPress	Neutral	False
128.548	0.42	Control	0.9231	n/a	Yes	2.982	n/a	n/a	GoodResponse	0	n/a	n/a	2	12	Blank	Neutral	False
128.966	1.45	Control	0.9231	n/a	Yes	2.982	n/a	5.0	GoodResponse	0	0.032	127.998	2	12	Feedback	Neutral	False
130.42	2.982	Control	0.9231	n/a	Yes	2.982	n/a	n/a	GoodResponse	0	0.0	n/a	2	12	ISIslide	Neutral	False
133.429	0.25	Control	0.9286	0.0	Yes	2.771	0.029	n/a	GoodResponse	0	n/a	n/a	2	13	Cue	Neutral	True
133.68	4.0	Control	0.9286	0.0	Yes	2.771	0.001	n/a	GoodResponse	0	n/a	n/a	2	13	Fixation	Neutral	True
137.675	0.27	Control	0.9286	0.004	Yes	2.771	-0.004	2.0	GoodResponse	0	0.237	136.912	2	13	Target	Neutral	True
137.912	0.3	Control	0.9286	0.004	Yes	2.771	-0.004	2.0	GoodResponse	0	0.237	n/a	2	13	ButtonPress	Neutral	True
137.959	0.43	Control	0.9286	n/a	Yes	2.771	n/a	n/a	GoodResponse	0	n/a	n/a	2	13	Blank	Neutral	True
138.377	1.45	Control	0.9286	n/a	Yes	2.771	n/a	5.0	GoodResponse	0	0.036	137.413	2	13	Feedback	Neutral	True
139.831	2.771	Control	0.9286	n/a	Yes	2.771	n/a	n/a	GoodResponse	0	0.0	n/a	2	13	ISIslide	Neutral	True
142.623	0.25	Win2	0.9333	0.0	Yes	2.677	0.023	n/a	GoodResponse	1	n/a	n/a	3	14	Cue	Win	True
142.874	4.1	Win2	0.9333	0.0	Yes	2.677	0.001	n/a	GoodResponse	1	n/a	n/a	3	14	Fixation	Win	True
146.97	0.26	Win2	0.9333	0.003	Yes	2.677	-0.003	2.0	GoodResponse	1	0.185	146.155	3	14	Target	Win	True
147.155	0.3	Win2	0.9333	0.003	Yes	2.677	-0.003	2.0	GoodResponse	1	0.185	n/a	3	14	ButtonPress	Win	True
147.237	0.44	Win2	0.9333	n/a	Yes	2.677	n/a	n/a	GoodResponse	1	n/a	n/a	3	14	Blank	Win	True
147.672	1.45	Win2	0.9333	n/a	Yes	2.677	n/a	5.0	GoodResponse	1	0.009	146.681	3	14	Feedback	Win	True
149.126	2.677	Win2	0.9333	n/a	Yes	2.677	n/a	n/a	GoodResponse	1	0.0	n/a	3	14	ISIslide	Win	True
151.817	0.25	Control	0.9375	0.0	Yes	2.983	0.017	n/a	GoodResponse	0	n/a	n/a	3	15	Cue	Neutral	True
152.068	4.0	Control	0.9375	0.0	Yes	2.983	0.001	n/a	GoodResponse	0	n/a	n/a	3	15	Fixation	Neutral	True
156.063	0.25	Control	0.9375	0.004	Yes	2.983	-0.004	2.0	GoodResponse	0	0.219	155.282	3	15	Target	Neutral	True
156.282	0.3	Control	0.9375	0.004	Yes	2.983	-0.004	2.0	GoodResponse	0	0.219	n/a	3	15	ButtonPress	Neutral	True
156.314	0.45	Control	0.9375	n/a	Yes	2.983	n/a	n/a	GoodResponse	0	n/a	n/a	3	15	Blank	Neutral	True
156.766	1.45	Control	0.9375	n/a	Yes	2.983	n/a	5.0	GoodResponse	0	0.037	155.803	3	15	Feedback	Neutral	True
158.22	2.983	Control	0.9375	n/a	Yes	2.983	n/a	n/a	GoodResponse	0	0.0	n/a	3	15	ISIslide	Neutral	True
161.229	0.25	Win2	0.9412	0.0	Yes	2.871	0.029	n/a	GoodResponse	1	n/a	n/a	4	16	Cue	Win	True
161.48	4.0	Win2	0.9412	0.0	Yes	2.871	0.001	n/a	GoodResponse	1	n/a	n/a	4	16	Fixation	Win	True
165.475	0.24	Win2	0.9412	0.004	Yes	2.871	-0.004	2.0	GoodResponse	1	0.191	164.666	4	16	Target	Win	True
165.666	0.3	Win2	0.9412	0.004	Yes	2.871	-0.004	2.0	GoodResponse	1	0.191	n/a	4	16	ButtonPress	Win	True
165.726	0.46	Win2	0.9412	n/a	Yes	2.871	n/a	n/a	GoodResponse	1	n/a	n/a	4	16	Blank	Win	True
166.177	1.45	Win2	0.9412	n/a	Yes	2.871	n/a	5.0	GoodResponse	1	0.041	165.218	4	16	Feedback	Win	True
167.631	2.871	Win2	0.9412	n/a	Yes	2.871	n/a	n/a	GoodResponse	1	0.0	n/a	4	16	ISIslide	Win	True
170.523	0.25	Lose2	0.8889	0.0	No	2.727	0.023	n/a	NoResponse	-1	n/a	n/a	3	17	Cue	Loss	True
170.774	3.95	Lose2	0.8889	0.0	No	2.727	0.001	n/a	NoResponse	-1	n/a	n/a	3	17	Fixation	Loss	True
174.719	0.23	Lose2	0.8889	0.004	No	2.727	-0.004	2.0	NoResponse	-1	0.242	173.961	3	17	Target	Loss	True
174.953	0.47	Lose2	0.8889	n/a	No	2.727	n/a	n/a	NoResponse	-1	n/a	n/a	3	17	Blank	Loss	True
174.961	0.3	Lose2	0.8889	0.004	No	2.727	-0.004	2.0	NoResponse	-1	0.242	n/a	3	17	ButtonPress	Loss	True
175.421	1.45	Lose2	0.8889	n/a	No	2.727	n/a	5.0	NoResponse	-1	0.015	174.436	3	17	Feedback	Loss	True
176.876	2.727	Lose2	0.8889	n/a	No	2.727	n/a	n/a	NoResponse	-1	0.0	n/a	3	17	ISIslide	Loss	True
179.617	0.25	Lose2	0.8946999999999999	0.0	Yes	2.733	0.017	n/a	GoodResponse	0	n/a	n/a	3	18	Cue	AvoidedLoss	True
179.868	4.05	Lose2	0.8946999999999999	0.0	Yes	2.733	0.001	n/a	GoodResponse	0	n/a	n/a	3	18	Fixation	AvoidedLoss	True
183.913	0.22	Lose2	0.8946999999999999	0.004	Yes	2.733	-0.004	2.0	GoodResponse	0	0.194	183.107	3	18	Target	AvoidedLoss	True
184.107	0.3	Lose2	0.8946999999999999	0.004	Yes	2.733	-0.004	2.0	GoodResponse	0	0.194	n/a	3	18	ButtonPress	AvoidedLoss	True
184.147	0.48	Lose2	0.8946999999999999	n/a	Yes	2.733	n/a	n/a	GoodResponse	0	n/a	n/a	3	18	Blank	AvoidedLoss	True
184.616	1.45	Lose2	0.8946999999999999	n/a	Yes	2.733	n/a	5.0	GoodResponse	0	0.04	183.656	3	18	Feedback	AvoidedLoss	True
186.07	2.733	Lose2	0.8946999999999999	n/a	Yes	2.733	n/a	n/a	GoodResponse	0	0.0	n/a	3	18	ISIslide	AvoidedLoss	True
188.828	0.25	Control	0.9	0.0	Yes	2.922	0.028	n/a	GoodResponse	0	n/a	n/a	3	19	Cue	Neutral	True
189.079	3.95	Control	0.9	0.0	Yes	2.922	0.001	n/a	GoodResponse	0	n/a	n/a	3	19	Fixation	Neutral	True
193.024	0.21	Control	0.9	0.004	Yes	2.922	-0.004	2.0	GoodResponse	0	0.208	192.232	3	19	Target	Neutral	True
193.232	0.3	Control	0.9	0.004	Yes	2.922	-0.004	2.0	GoodResponse	0	0.208	n/a	3	19	ButtonPress	Neutral	True
193.241	0.49	Control	0.9	n/a	Yes	2.922	n/a	n/a	GoodResponse	0	n/a	n/a	3	19	Blank	Neutral	True
193.726	1.45	Control	0.9	n/a	Yes	2.922	n/a	5.0	GoodResponse	0	0.007	192.733	3	19	Feedback	Neutral	True
195.181	2.922	Control	0.9	n/a	Yes	2.922	n/a	n/a	GoodResponse	0	0.0	n/a	3	19	ISIslide	Neutral	True
198.123	0.25	Control	0.8571	0.0	No	2.627	0.023	n/a	PrematurePress	0	n/a	n/a	3	20	Cue	Neutral	True
198.373	4.05	Control	0.8571	0.0	No	2.627	0.0	n/a	PrematurePress	0	n/a	n/a	3	20	Fixation	Neutral	True
202.419	0.2	Control	0.8571	0.004	No	2.627	-0.004	2.0	PrematurePress	0	0.045	201.464	3	20	Target	Neutral	True
202.464	0.3	Control	0.8571	0.004	No	2.627	-0.004	2.0	PrematurePress	0	0.045	n/a	3	20	ButtonPress	Neutral	True
202.619	0.5	Control	0.8571	n/a	No	2.627	n/a	n/a	PrematurePress	0	n/a	n/a	3	20	Blank	Neutral	True
203.121	1.45	Control	0.8571	n/a	No	2.627	n/a	5.0	PrematurePress	0	0.023	202.144	3	20	Feedback	Neutral	True
204.575	2.627	Control	0.8571	n/a	No	2.627	n/a	n/a	PrematurePress	0	0.0	n/a	3	20	ISIslide	Neutral	True
207.217	0.25	Control	0.8181999999999999	0.0	No	2.783	0.017	n/a	NoResponse	0	n/a	n/a	3	21	Cue	Neutral	True
207.467	4.1	Control	0.8181999999999999	0.0	No	2.783	0.0	n/a	NoResponse	0	n/a	n/a	3	21	Fixation	Neutral	True
211.563	0.19	Control	0.8181999999999999	0.004	No	2.783	-0.004	2.0	NoResponse	0	0.209	210.772	3	21	Target	Neutral	True
211.763	0.51	Control	0.8181999999999999	n/a	No	2.783	n/a	n/a	NoResponse	0	n/a	n/a	3	21	Blank	Neutral	True
211.772	0.3	Control	0.8181999999999999	0.004	No	2.783	-0.004	2.0	NoResponse	0	0.209	n/a	3	21	ButtonPress	Neutral	True
212.265	1.45	Control	0.8181999999999999	n/a	No	2.783	n/a	5.0	NoResponse	0	0.001	211.266	3	21	Feedback	Neutral	True
213.719	2.783	Control	0.8181999999999999	n/a	No	2.783	n/a	n/a	NoResponse	0	0.0	n/a	3	21	ISIslide	Neutral	True
216.528	0.25	Control	0.7826000000000001	0.0	No	2.772	0.028	n/a	NoResponse	0	n/a	n/a	3	22	Cue	Neutral	True
216.778	4.0	Control	0.7826000000000001	0.001	No	2.772	0.0	n/a	NoResponse	0	n/a	n/a	3	22	Fixation	Neutral	True
220.774	0.18	Control	0.7826000000000001	0.004	No	2.772	-0.004	2.0	NoResponse	0	0.264	220.038	3	22	Target	Neutral	True
220.958	0.52	Control	0.7826000000000001	n/a	No	2.772	n/a	n/a	NoResponse	0	n/a	n/a	3	22	Blank	Neutral	True
221.038	0.3	Control	0.7826000000000001	0.004	No	2.772	-0.004	2.0	NoResponse	0	0.264	n/a	3	22	ButtonPress	Neutral	True
221.476	1.45	Control	0.7826000000000001	n/a	No	2.772	n/a	5.0	NoResponse	0	0.009	220.485	3	22	Feedback	Neutral	True
222.93	2.772	Control	0.7826000000000001	n/a	No	2.772	n/a	n/a	NoResponse	0	0.0	n/a	3	22	ISIslide	Neutral	True
225.722	0.25	Control	0.75	0.0	No	2.778	0.022	n/a	NoResponse	0	n/a	n/a	3	23	Cue	Neutral	True
225.973	3.9	Control	0.75	0.0	No	2.778	0.001	n/a	NoResponse	0	n/a	n/a	3	23	Fixation	Neutral	True
229.868	0.17	Control	0.75	0.004	No	2.778	-0.004	2.0	NoResponse	0	0.203	229.071	3	23	Target	Neutral	True
230.052	0.53	Control	0.75	n/a	No	2.778	n/a	n/a	NoResponse	0	n/a	n/a	3	23	Blank	Neutral	True
230.071	0.3	Control	0.75	0.004	No	2.778	-0.004	2.0	NoResponse	0	0.203	n/a	3	23	ButtonPress	Neutral	True
230.57	1.45	Control	0.75	n/a	No	2.778	n/a	5.0	NoResponse	0	0.037	229.607	3	23	Feedback	Neutral	True
232.024	2.778	Control	0.75	n/a	No	2.778	n/a	n/a	NoResponse	0	0.0	n/a	3	23	ISIslide	Neutral	True
234.816	0.25	Win2	0.72	0.0	No	3.134	0.016	n/a	NoResponse	0	n/a	n/a	3	24	Cue	MissedWin	False
235.067	3.95	Win2	0.72	0.0	No	3.134	0.001	2.0	NoResponse	0	0.147	234.214	3	24	Fixation	MissedWin	False
235.214	0.3	Win2	0.72	0.0	No	3.134	0.001	2.0	NoResponse	0	0.147	n/a	3	24	ButtonPress	MissedWin	False
239.012	0.16	Win2	0.72	0.004	No	3.134	-0.004	2.0	NoResponse	0	0.189	238.201	3	24	Target	MissedWin	False
239.179	0.54	Win2	0.72	n/a	No	3.134	n/a	n/a	NoResponse	0	n/a	n/a	3	24	Blank	MissedWin	False
239.201	0.3	Win2	0.72	0.004	No	3.134	-0.004	2.0	NoResponse	0	0.189	n/a	3	24	ButtonPress	MissedWin	False
239.714	1.45	Win2	0.72	n/a	No	3.134	n/a	5.0	NoResponse	0	0.015	238.729	3	24	Feedback	MissedWin	False
241.168	3.134	Win2	0.72	n/a	No	3.134	n/a	n/a	NoResponse	0	0.0	n/a	3	24	ISIslide	MissedWin	False
244.328	0.25	Win2	0.6923	0.0	No	3.072	0.028	n/a	NoResponse	0	n/a	n/a	3	25	Cue	MissedWin	True
244.578	4.0	Win2	0.6923	0.0	No	3.072	0.0	n/a	NoResponse	0	n/a	n/a	3	25	Fixation	MissedWin	True
248.574	0.15	Win2	0.6923	0.004	No	3.072	-0.004	2.0	NoResponse	0	0.209	247.783	3	25	Target	MissedWin	True
248.724	0.55	Win2	0.6923	n/a	No	3.072	n/a	n/a	NoResponse	0	n/a	n/a	3	25	Blank	MissedWin	True
248.783	0.3	Win2	0.6923	0.004	No	3.072	-0.004	2.0	NoResponse	0	0.209	n/a	3	25	ButtonPress	MissedWin	True
249.276	1.45	Win2	0.6923	n/a	No	3.072	n/a	5.0	NoResponse	0	0.014	248.29	3	25	Feedback	MissedWin	True
250.73	3.072	Win2	0.6923	n/a	No	3.072	n/a	n/a	NoResponse	0	0.0	n/a	3	25	ISIslide	MissedWin	True
253.823	0.25	Win2	0.6667000000000001	0.0	No	2.927	0.023	n/a	NoResponse	0	n/a	n/a	3	26	Cue	MissedWin	True
254.073	3.95	Win2	0.6667000000000001	0.001	No	2.927	0.0	n/a	NoResponse	0	n/a	n/a	3	26	Fixation	MissedWin	True
258.019	0.15	Win2	0.6667000000000001	0.004	No	2.927	-0.004	2.0	NoResponse	0	0.183	257.202	3	26	Target	MissedWin	True
258.169	0.55	Win2	0.6667000000000001	n/a	No	2.927	n/a	n/a	NoResponse	0	n/a	n/a	3	26	Blank	MissedWin	True
258.202	0.3	Win2	0.6667000000000001	0.004	No	2.927	-0.004	2.0	NoResponse	0	0.183	n/a	3	26	ButtonPress	MissedWin	True
258.721	1.45	Win2	0.6667000000000001	n/a	No	2.927	n/a	5.0	NoResponse	0	0.032	257.753	3	26	Feedback	MissedWin	True
260.175	2.927	Win2	0.6667000000000001	n/a	No	2.927	n/a	n/a	NoResponse	0	0.0	n/a	3	26	ISIslide	MissedWin	True
263.117	0.25	Lose2	0.6429	0.0	No	2.833	0.017	n/a	NoResponse	-1	n/a	n/a	2	27	Cue	Loss	True
263.368	4.05	Lose2	0.6429	0.0	No	2.833	0.001	n/a	NoResponse	-1	n/a	n/a	2	27	Fixation	Loss	True
267.413	0.15	Lose2	0.6429	0.004	No	2.833	-0.004	2.0	NoResponse	-1	0.176	266.589	2	27	Target	Loss	True
267.564	0.55	Lose2	0.6429	n/a	No	2.833	n/a	n/a	NoResponse	-1	n/a	n/a	2	27	Blank	Loss	True
267.589	0.3	Lose2	0.6429	0.004	No	2.833	-0.004	2.0	NoResponse	-1	0.176	n/a	2	27	ButtonPress	Loss	True
268.115	1.45	Lose2	0.6429	n/a	No	2.833	n/a	5.0	NoResponse	-1	0.007	267.122	2	27	Feedback	Loss	True
269.57	2.833	Lose2	0.6429	n/a	No	2.833	n/a	n/a	NoResponse	-1	0.0	n/a	2	27	ISIslide	Loss	True
272.428	0.25	Control	0.6207	0.0	No	2.822	0.028	n/a	NoResponse	0	n/a	n/a	2	28	Cue	Neutral	True
272.679	4.05	Control	0.6207	0.0	No	2.822	0.001	n/a	NoResponse	0	n/a	n/a	2	28	Fixation	Neutral	True
276.725	0.16	Control	0.6207	0.003	No	2.822	-0.003	2.0	NoResponse	0	0.226	275.951	2	28	Target	Neutral	True
276.892	0.54	Control	0.6207	n/a	No	2.822	n/a	n/a	NoResponse	0	n/a	n/a	2	28	Blank	Neutral	True
276.951	0.3	Control	0.6207	0.003	No	2.822	-0.003	2.0	NoResponse	0	0.226	n/a	2	28	ButtonPress	Neutral	True
277.427	1.45	Control	0.6207	n/a	No	2.822	n/a	5.0	NoResponse	0	0.008	276.435	2	28	Feedback	Neutral	True
278.881	2.822	Control	0.6207	n/a	No	2.822	n/a	n/a	NoResponse	0	0.0	n/a	2	28	ISIslide	Neutral	True
281.723	0.25	Lose2	0.6	0.0	No	2.827	0.023	n/a	LatePress	-1	n/a	n/a	1	29	Cue	Loss	True
281.974	3.95	Lose2	0.6	0.0	No	2.827	0.001	n/a	LatePress	-1	n/a	n/a	1	29	Fixation	Loss	True
285.919	0.17	Lose2	0.6	0.004	No	2.827	-0.004	2.0	LatePress	-1	0.181	285.1	1	29	Target	Loss	True
286.1	0.3	Lose2	0.6	0.004	No	2.827	-0.004	2.0	LatePress	-1	0.181	n/a	1	29	ButtonPress	Loss	True
286.103	0.53	Lose2	0.6	n/a	No	2.827	n/a	n/a	LatePress	-1	n/a	n/a	1	29	Blank	Loss	True
286.621	1.45	Lose2	0.6	n/a	No	2.827	n/a	5.0	LatePress	-1	0.034	285.655	1	29	Feedback	Loss	True
288.075	2.827	Lose2	0.6	n/a	No	2.827	n/a	n/a	LatePress	-1	0.0	n/a	1	29	ISIslide	Loss	True
290.917	0.25	Win2	0.5806	0.0	No	2.783	0.017	n/a	NoResponse	0	n/a	n/a	1	30	Cue	MissedWin	False
291.168	3.9	Win2	0.5806	0.0	No	2.783	0.001	2.0	NoResponse	0	2.081	292.249	1	30	Fixation	MissedWin	False
293.249	0.3	Win2	0.5806	0.0	No	2.783	0.001	2.0	NoResponse	0	2.081	n/a	1	30	ButtonPress	MissedWin	False
295.063	0.18	Win2	0.5806	0.004	No	2.783	-0.004	2.0	NoResponse	0	0.201	294.264	1	30	Target	MissedWin	False
295.247	0.52	Win2	0.5806	n/a	No	2.783	n/a	n/a	NoResponse	0	n/a	n/a	1	30	Blank	MissedWin	False
295.264	0.3	Win2	0.5806	0.004	No	2.783	-0.004	2.0	NoResponse	0	0.201	n/a	1	30	ButtonPress	MissedWin	False
295.765	1.45	Win2	0.5806	n/a	No	2.783	n/a	5.0	NoResponse	0	0.012	294.777	1	30	Feedback	MissedWin	False
297.219	2.783	Win2	0.5806	n/a	No	2.783	n/a	n/a	NoResponse	0	0.0	n/a	1	30	ISIslide	MissedWin	False
300.028	0.25	Lose2	0.5625	0.0	No	2.822	0.028	n/a	LatePress	-1	n/a	n/a	0	31	Cue	Loss	True
300.278	4.05	Lose2	0.5625	0.001	No	2.822	0.0	n/a	LatePress	-1	n/a	n/a	0	31	Fixation	Loss	True
304.324	0.19	Lose2	0.5625	0.004	No	2.822	-0.004	2.0	LatePress	-1	0.19	303.514	0	31	Target	Loss	True
304.514	0.3	Lose2	0.5625	0.004	No	2.822	-0.004	2.0	LatePress	-1	0.19	n/a	0	31	ButtonPress	Loss	True
304.524	0.51	Lose2	0.5625	n/a	No	2.822	n/a	n/a	LatePress	-1	n/a	n/a	0	31	Blank	Loss	True
305.026	1.45	Lose2	0.5625	n/a	No	2.822	n/a	5.0	LatePress	-1	0.02	304.046	0	31	Feedback	Loss	True
306.48	2.822	Lose2	0.5625	n/a	No	2.822	n/a	n/a	LatePress	-1	0.0	n/a	0	31	ISIslide	Loss	True
309.322	0.25	Lose2	0.5758	0.0	Yes	2.628	0.022	n/a	GoodResponse	0	n/a	n/a	0	32	Cue	AvoidedLoss	True
309.573	4.15	Lose2	0.5758	0.0	Yes	2.628	0.001	n/a	GoodResponse	0	n/a	n/a	0	32	Fixation	AvoidedLoss	True
313.719	0.2	Lose2	0.5758	0.003	Yes	2.628	-0.003	2.0	GoodResponse	0	0.152	312.871	0	32	Target	AvoidedLoss	True
313.871	0.3	Lose2	0.5758	0.003	Yes	2.628	-0.003	2.0	GoodResponse	0	0.152	n/a	0	32	ButtonPress	AvoidedLoss	True
313.919	0.5	Lose2	0.5758	n/a	Yes	2.628	n/a	n/a	GoodResponse	0	n/a	n/a	0	32	Blank	AvoidedLoss	True
314.421	1.45	Lose2	0.5758	n/a	Yes	2.628	n/a	5.0	GoodResponse	0	0.039	313.46	0	32	Feedback	AvoidedLoss	True
315.875	2.628	Lose2	0.5758	n/a	Yes	2.628	n/a	n/a	GoodResponse	0	0.0	n/a	0	32	ISIslide	AvoidedLoss	True
318.516	0.25	Win2	0.5588000000000001	0.0	No	2.684	0.016	n/a	NoResponse	0	n/a	n/a	0	33	Cue	MissedWin	True
318.767	4.0	Win2	0.5588000000000001	0.0	No	2.684	0.001	n/a	NoResponse	0	n/a	n/a	0	33	Fixation	MissedWin	True
322.762	0.21	Win2	0.5588000000000001	0.004	No	2.684	-0.004	2.0	NoResponse	0	0.27	322.032	0	33	Target	MissedWin	True
322.98	0.49	Win2	0.5588000000000001	n/a	No	2.684	n/a	n/a	NoResponse	0	n/a	n/a	0	33	Blank	MissedWin	True
323.032	0.3	Win2	0.5588000000000001	0.004	No	2.684	-0.004	2.0	NoResponse	0	0.27	n/a	0	33	ButtonPress	MissedWin	True
323.465	1.45	Win2	0.5588000000000001	n/a	No	2.684	n/a	5.0	NoResponse	0	0.019	322.484	0	33	Feedback	MissedWin	True
324.919	2.684	Win2	0.5588000000000001	n/a	No	2.684	n/a	n/a	NoResponse	0	0.0	n/a	0	33	ISIslide	MissedWin	True
327.627	0.25	Lose2	0.5714	0.0	Yes	2.623	0.027	n/a	GoodResponse	0	n/a	n/a	0	34	Cue	AvoidedLoss	True
327.878	4.05	Lose2	0.5714	0.0	Yes	2.623	0.001	n/a	GoodResponse	0	n/a	n/a	0	34	Fixation	AvoidedLoss	True
331.923	0.22	Lose2	0.5714	0.004	Yes	2.623	-0.004	2.0	GoodResponse	0	0.185	331.108	0	34	Target	AvoidedLoss	True
332.108	0.3	Lose2	0.5714	0.004	Yes	2.623	-0.004	2.0	GoodResponse	0	0.185	n/a	0	34	ButtonPress	AvoidedLoss	True
332.157	0.48	Lose2	0.5714	n/a	Yes	2.623	n/a	n/a	GoodResponse	0	n/a	n/a	0	34	Blank	AvoidedLoss	True
332.625	1.45	Lose2	0.5714	n/a	Yes	2.623	n/a	5.0	GoodResponse	0	0.03	331.655	0	34	Feedback	AvoidedLoss	True
334.08	2.623	Lose2	0.5714	n/a	Yes	2.623	n/a	n/a	GoodResponse	0	0.0	n/a	0	34	ISIslide	AvoidedLoss	True
336.721	0.25	Lose2	0.5832999999999999	0.0	Yes	2.679	0.021	n/a	GoodResponse	0	n/a	n/a	0	35	Cue	AvoidedLoss	True
336.972	4.0	Lose2	0.5832999999999999	0.0	Yes	2.679	0.001	n/a	GoodResponse	0	n/a	n/a	0	35	Fixation	AvoidedLoss	True
340.967	0.23	Lose2	0.5832999999999999	0.004	Yes	2.679	-0.004	2.0	GoodResponse	0	0.179	340.146	0	35	Target	AvoidedLoss	True
341.146	0.3	Lose2	0.5832999999999999	0.004	Yes	2.679	-0.004	2.0	GoodResponse	0	0.179	n/a	0	35	ButtonPress	AvoidedLoss	True
341.201	0.47	Lose2	0.5832999999999999	n/a	Yes	2.679	n/a	n/a	GoodResponse	0	n/a	n/a	0	35	Blank	AvoidedLoss	True
341.669	1.45	Lose2	0.5832999999999999	n/a	Yes	2.679	n/a	5.0	GoodResponse	0	0.01	340.679	0	35	Feedback	AvoidedLoss	True
343.123	2.679	Lose2	0.5832999999999999	n/a	Yes	2.679	n/a	n/a	GoodResponse	0	0.0	n/a	0	35	ISIslide	AvoidedLoss	True
345.815	0.25	Control	0.5946	0.0	Yes	2.685	0.015	n/a	GoodResponse	0	n/a	n/a	0	36	Cue	Neutral	True
346.065	4.0	Control	0.5946	0.001	Yes	2.685	0.0	n/a	GoodResponse	0	n/a	n/a	0	36	Fixation	Neutral	True
350.061	0.24	Control	0.5946	0.004	Yes	2.685	-0.004	2.0	GoodResponse	0	0.18	349.241	0	36	Target	Neutral	True
350.241	0.3	Control	0.5946	0.004	Yes	2.685	-0.004	2.0	GoodResponse	0	0.18	n/a	0	36	ButtonPress	Neutral	True
350.312	0.46	Control	0.5946	n/a	Yes	2.685	n/a	n/a	GoodResponse	0	n/a	n/a	0	36	Blank	Neutral	True
350.763	1.45	Control	0.5946	n/a	Yes	2.685	n/a	5.0	GoodResponse	0	0.038	349.801	0	36	Feedback	Neutral	True
352.217	2.685	Control	0.5946	n/a	Yes	2.685	n/a	n/a	GoodResponse	0	0.0	n/a	0	36	ISIslide	Neutral	True
354.925	0.25	Win2	0.6053000000000001	0.0	Yes	2.875	0.025	n/a	GoodResponse	1	n/a	n/a	1	37	Cue	Win	True
355.176	4.0	Win2	0.6053000000000001	0.0	Yes	2.875	0.001	n/a	GoodResponse	1	n/a	n/a	1	37	Fixation	Win	True
359.171	0.25	Win2	0.6053000000000001	0.004	Yes	2.875	-0.004	2.0	GoodResponse	1	0.173	358.344	1	37	Target	Win	True
359.344	0.3	Win2	0.6053000000000001	0.004	Yes	2.875	-0.004	2.0	GoodResponse	1	0.173	n/a	1	37	ButtonPress	Win	True
359.422	0.45	Win2	0.6053000000000001	n/a	Yes	2.875	n/a	n/a	GoodResponse	1	n/a	n/a	1	37	Blank	Win	True
359.873	1.45	Win2	0.6053000000000001	n/a	Yes	2.875	n/a	5.0	GoodResponse	1	0.001	358.874	1	37	Feedback	Win	True
361.328	2.875	Win2	0.6053000000000001	n/a	Yes	2.875	n/a	n/a	GoodResponse	1	0.0	n/a	1	37	ISIslide	Win	True
364.22	0.25	Lose2	0.6154	0.0	Yes	2.83	0.02	n/a	GoodResponse	0	n/a	n/a	1	38	Cue	AvoidedLoss	True
364.471	3.95	Lose2	0.6154	0.0	Yes	2.83	0.001	n/a	GoodResponse	0	n/a	n/a	1	38	Fixation	AvoidedLoss	True
368.416	0.26	Lose2	0.6154	0.004	Yes	2.83	-0.004	2.0	GoodResponse	0	0.247	367.663	1	38	Target	AvoidedLoss	True
368.663	0.3	Lose2	0.6154	0.004	Yes	2.83	-0.004	2.0	GoodResponse	0	0.247	n/a	1	38	ButtonPress	AvoidedLoss	True
368.683	0.44	Lose2	0.6154	n/a	Yes	2.83	n/a	n/a	GoodResponse	0	n/a	n/a	1	38	Blank	AvoidedLoss	True
369.118	1.45	Lose2	0.6154	n/a	Yes	2.83	n/a	5.0	GoodResponse	0	0.025	368.143	1	38	Feedback	AvoidedLoss	True
370.572	2.83	Lose2	0.6154	n/a	Yes	2.83	n/a	n/a	GoodResponse	0	0.0	n/a	1	38	ISIslide	AvoidedLoss	True
373.431	0.25	Win2	0.625	0.0	Yes	2.969	0.031	n/a	GoodResponse	1	n/a	n/a	2	39	Cue	Win	True
373.681	4.1	Win2	0.625	0.001	Yes	2.969	0.0	n/a	GoodResponse	1	n/a	n/a	2	39	Fixation	Win	True
377.777	0.27	Win2	0.625	0.004	Yes	2.969	-0.004	2.0	GoodResponse	1	0.242	377.019	2	39	Target	Win	True
378.019	0.3	Win2	0.625	0.004	Yes	2.969	-0.004	2.0	GoodResponse	1	0.242	n/a	2	39	ButtonPress	Win	True
378.061	0.43	Win2	0.625	n/a	Yes	2.969	n/a	n/a	GoodResponse	1	n/a	n/a	2	39	Blank	Win	True
378.479	1.45	Win2	0.625	n/a	Yes	2.969	n/a	5.0	GoodResponse	1	0.029	377.508	2	39	Feedback	Win	True
379.934	2.969	Win2	0.625	n/a	Yes	2.969	n/a	n/a	GoodResponse	1	0.0	n/a	2	39	ISIslide	Win	True
382.926	0.25	Win2	0.6341	0.0	Yes	2.724	0.026	n/a	GoodResponse	1	n/a	n/a	3	40	Cue	Win	True
383.177	3.95	Win2	0.6341	0.0	Yes	2.724	0.001	n/a	GoodResponse	1	n/a	n/a	3	40	Fixation	Win	True
387.122	0.28	Win2	0.6341	0.004	Yes	2.724	-0.004	2.0	GoodResponse	1	0.186	386.308	3	40	Target	Win	True
387.308	0.3	Win2	0.6341	0.004	Yes	2.724	-0.004	2.0	GoodResponse	1	0.186	n/a	3	40	ButtonPress	Win	True
387.406	0.42	Win2	0.6341	n/a	Yes	2.724	n/a	n/a	GoodResponse	1	n/a	n/a	3	40	Blank	Win	True
387.824	1.45	Win2	0.6341	n/a	Yes	2.724	n/a	5.0	GoodResponse	1	0.001	386.825	3	40	Feedback	Win	True
389.278	2.724	Win2	0.6341	n/a	Yes	2.724	n/a	n/a	GoodResponse	1	0.0	n/a	3	40	ISIslide	Win	True
392.02	0.25	Win2	0.619	0.0	No	2.78	0.02	n/a	NoResponse	0	n/a	n/a	3	41	Cue	MissedWin	False
392.27	3.9	Win2	0.619	0.001	No	2.78	0.0	2.0	NoResponse	0	3.625	394.895	3	41	Fixation	MissedWin	False
395.895	0.3	Win2	0.619	0.001	No	2.78	0.0	2.0	NoResponse	0	3.625	n/a	3	41	ButtonPress	MissedWin	False
396.182	0.29	Win2	0.619	0.0	No	2.78	0.012	2.0	NoResponse	0	0.308	395.49	3	41	Target	MissedWin	False
396.466	0.41	Win2	0.619	n/a	No	2.78	n/a	n/a	NoResponse	0	n/a	n/a	3	41	Blank	MissedWin	False
396.49	0.3	Win2	0.619	0.0	No	2.78	0.012	2.0	NoResponse	0	0.308	n/a	3	41	ButtonPress	MissedWin	False
396.868	1.45	Win2	0.619	n/a	No	2.78	n/a	5.0	NoResponse	0	0.03	395.898	3	41	Feedback	MissedWin	False
398.322	2.78	Win2	0.619	n/a	No	2.78	n/a	n/a	NoResponse	0	0.0	n/a	3	41	ISIslide	MissedWin	False
401.13	0.25	Control	0.6279	0.0	Yes	2.92	0.03	n/a	GoodResponse	0	n/a	n/a	3	42	Cue	Neutral	True
401.381	3.85	Control	0.6279	0.0	Yes	2.92	0.001	n/a	GoodResponse	0	n/a	n/a	3	42	Fixation	Neutral	True
405.226	0.3	Control	0.6279	0.004	Yes	2.92	-0.004	2.0	GoodResponse	0	0.246	404.472	3	42	Target	Neutral	True
405.472	0.3	Control	0.6279	0.004	Yes	2.92	-0.004	2.0	GoodResponse	0	0.246	n/a	3	42	ButtonPress	Neutral	True
405.527	0.4	Control	0.6279	n/a	Yes	2.92	n/a	n/a	GoodResponse	0	n/a	n/a	3	42	Blank	Neutral	True
405.928	1.45	Control	0.6279	n/a	Yes	2.92	n/a	5.0	GoodResponse	0	0.043	404.971	3	42	Feedback	Neutral	True
407.382	2.92	Control	0.6279	n/a	Yes	2.92	n/a	n/a	GoodResponse	0	0.0	n/a	3	42	ISIslide	Neutral	True
410.325	0.25	Win2	0.6364	0.0	Yes	3.175	0.025	n/a	GoodResponse	1	n/a	n/a	4	43	Cue	Win	True
410.575	4.0	Win2	0.6364	0.0	Yes	3.175	0.0	n/a	GoodResponse	1	n/a	n/a	4	43	Fixation	Win	True
414.571	0.31	Win2	0.6364	0.004	Yes	3.175	-0.004	2.0	GoodResponse	1	0.208	413.779	4	43	Target	Win	True
414.779	0.3	Win2	0.6364	0.004	Yes	3.175	-0.004	2.0	GoodResponse	1	0.208	n/a	4	43	ButtonPress	Win	True
414.888	0.39	Win2	0.6364	n/a	Yes	3.175	n/a	n/a	GoodResponse	1	n/a	n/a	4	43	Blank	Win	True
415.273	1.45	Win2	0.6364	n/a	Yes	3.175	n/a	5.0	GoodResponse	1	0.016	414.289	4	43	Feedback	Win	True
416.727	3.175	Win2	0.6364	n/a	Yes	3.175	n/a	n/a	GoodResponse	1	0.0	n/a	4	43	ISIslide	Win	True
419.92	0.25	Win2	0.6444	0.0	Yes	2.98	0.02	n/a	GoodResponse	1	n/a	n/a	5	44	Cue	Win	True
420.171	4.0	Win2	0.6444	0.0	Yes	2.98	0.001	n/a	GoodResponse	1	n/a	n/a	5	44	Fixation	Win	True
424.166	0.32	Win2	0.6444	0.004	Yes	2.98	-0.004	2.0	GoodResponse	1	0.285	423.451	5	44	Target	Win	True
424.451	0.3	Win2	0.6444	0.004	Yes	2.98	-0.004	2.0	GoodResponse	1	0.285	n/a	5	44	ButtonPress	Win	True
424.5	0.38	Win2	0.6444	n/a	Yes	2.98	n/a	n/a	GoodResponse	1	n/a	n/a	5	44	Blank	Win	True
424.868	1.45	Win2	0.6444	n/a	Yes	2.98	n/a	5.0	GoodResponse	1	0.029	423.897	5	44	Feedback	Win	True
426.322	2.98	Win2	0.6444	n/a	Yes	2.98	n/a	n/a	GoodResponse	1	0.0	n/a	5	44	ISIslide	Win	True
429.331	0.25	Control	0.6522	0.0	Yes	2.869	0.031	n/a	GoodResponse	0	n/a	n/a	5	45	Cue	Neutral	True
429.582	4.1	Control	0.6522	0.0	Yes	2.869	0.001	n/a	GoodResponse	0	n/a	n/a	5	45	Fixation	Neutral	True
433.678	0.33	Control	0.6522	0.003	Yes	2.869	-0.003	2.0	GoodResponse	0	0.259	432.937	5	45	Target	Neutral	True
433.937	0.3	Control	0.6522	0.003	Yes	2.869	-0.003	2.0	GoodResponse	0	0.259	n/a	5	45	ButtonPress	Neutral	True
434.012	0.37	Control	0.6522	n/a	Yes	2.869	n/a	n/a	GoodResponse	0	n/a	n/a	5	45	Blank	Neutral	True
434.38	1.45	Control	0.6522	n/a	Yes	2.869	n/a	5.0	GoodResponse	0	0.03	433.41	5	45	Feedback	Neutral	True
435.834	2.869	Control	0.6522	n/a	Yes	2.869	n/a	n/a	GoodResponse	0	0.0	n/a	5	45	ISIslide	Neutral	True
438.726	0.25	Lose2	0.6596	0.0	Yes	3.374	0.026	n/a	GoodResponse	0	n/a	n/a	5	46	Cue	AvoidedLoss	True
438.977	4.0	Lose2	0.6596	0.0	Yes	3.374	0.001	n/a	GoodResponse	0	n/a	n/a	5	46	Fixation	AvoidedLoss	True
442.972	0.34	Lose2	0.6596	0.004	Yes	3.374	-0.004	2.0	GoodResponse	0	0.186	442.158	5	46	Target	AvoidedLoss	True
443.158	0.3	Lose2	0.6596	0.004	Yes	3.374	-0.004	2.0	GoodResponse	0	0.186	n/a	5	46	ButtonPress	AvoidedLoss	True
443.323	0.36	Lose2	0.6596	n/a	Yes	3.374	n/a	n/a	GoodResponse	0	n/a	n/a	5	46	Blank	AvoidedLoss	True
443.674	1.45	Lose2	0.6596	n/a	Yes	3.374	n/a	5.0	GoodResponse	0	0.007	442.681	5	46	Feedback	AvoidedLoss	True
445.129	3.374	Lose2	0.6596	n/a	Yes	3.374	n/a	n/a	GoodResponse	0	0.0	n/a	5	46	ISIslide	AvoidedLoss	True
448.522	0.25	Lose2	0.6667000000000001	0.0	Yes	2.678	0.022	n/a	GoodResponse	0	n/a	n/a	5	47	Cue	AvoidedLoss	True
448.773	4.0	Lose2	0.6667000000000001	0.0	Yes	2.678	0.001	n/a	GoodResponse	0	n/a	n/a	5	47	Fixation	AvoidedLoss	True
452.768	0.34	Lose2	0.6667000000000001	0.004	Yes	2.678	-0.004	2.0	GoodResponse	0	0.302	452.07	5	47	Target	AvoidedLoss	True
453.07	0.3	Lose2	0.6667000000000001	0.004	Yes	2.678	-0.004	2.0	GoodResponse	0	0.302	n/a	5	47	ButtonPress	AvoidedLoss	True
453.119	0.36	Lose2	0.6667000000000001	n/a	Yes	2.678	n/a	n/a	GoodResponse	0	n/a	n/a	5	47	Blank	AvoidedLoss	True
453.47	1.45	Lose2	0.6667000000000001	n/a	Yes	2.678	n/a	5.0	GoodResponse	0	0.013	452.483	5	47	Feedback	AvoidedLoss	True
454.925	2.678	Lose2	0.6667000000000001	n/a	Yes	2.678	n/a	n/a	GoodResponse	0	0.0	n/a	5	47	ISIslide	AvoidedLoss	True
457.616	0.25	Lose2	0.6735	0.0	Yes	3.034	0.016	n/a	GoodResponse	0	n/a	n/a	5	48	Cue	AvoidedLoss	True
457.867	3.95	Lose2	0.6735	0.0	Yes	3.034	0.001	n/a	GoodResponse	0	n/a	n/a	5	48	Fixation	AvoidedLoss	True
461.812	0.33	Lose2	0.6735	0.004	Yes	3.034	-0.004	2.0	GoodResponse	0	0.177	460.989	5	48	Target	AvoidedLoss	True
461.989	0.3	Lose2	0.6735	0.004	Yes	3.034	-0.004	2.0	GoodResponse	0	0.177	n/a	5	48	ButtonPress	AvoidedLoss	True
462.146	0.37	Lose2	0.6735	n/a	Yes	3.034	n/a	n/a	GoodResponse	0	n/a	n/a	5	48	Blank	AvoidedLoss	True
462.514	1.45	Lose2	0.6735	n/a	Yes	3.034	n/a	5.0	GoodResponse	0	0.042	461.556	5	48	Feedback	AvoidedLoss	True
463.968	3.034	Lose2	0.6735	n/a	Yes	3.034	n/a	n/a	GoodResponse	0	0.0	n/a	5	48	ISIslide	AvoidedLoss	True
467.028	0.25	Control	0.68	0.0	Yes	2.872	0.028	n/a	GoodResponse	0	n/a	n/a	5	49	Cue	Neutral	True
467.278	4.0	Control	0.68	0.0	Yes	2.872	0.0	n/a	GoodResponse	0	n/a	n/a	5	49	Fixation	Neutral	True
471.274	0.32	Control	0.68	0.004	Yes	2.872	-0.004	2.0	GoodResponse	0	0.236	470.51	5	49	Target	Neutral	True
471.51	0.3	Control	0.68	0.004	Yes	2.872	-0.004	2.0	GoodResponse	0	0.236	n/a	5	49	ButtonPress	Neutral	True
471.608	0.38	Control	0.68	n/a	Yes	2.872	n/a	n/a	GoodResponse	0	n/a	n/a	5	49	Blank	Neutral	True
471.976	1.45	Control	0.68	n/a	Yes	2.872	n/a	5.0	GoodResponse	0	0.043	471.019	5	49	Feedback	Neutral	True
473.43	2.872	Control	0.68	n/a	Yes	2.872	n/a	n/a	GoodResponse	0	0.0	n/a	5	49	ISIslide	Neutral	True
476.322	0.25	Control	0.6862999999999999	0.0	Yes	2.778	0.022	n/a	GoodResponse	0	n/a	n/a	5	50	Cue	Neutral	True
476.573	4.0	Control	0.6862999999999999	0.0	Yes	2.778	0.001	n/a	GoodResponse	0	n/a	n/a	5	50	Fixation	Neutral	True
480.568	0.31	Control	0.6862999999999999	0.004	Yes	2.778	-0.004	2.0	GoodResponse	0	0.289	479.857	5	50	Target	Neutral	True
480.857	0.3	Control	0.6862999999999999	0.004	Yes	2.778	-0.004	2.0	GoodResponse	0	0.289	n/a	5	50	ButtonPress	Neutral	True
480.886	0.39	Control	0.6862999999999999	n/a	Yes	2.778	n/a	n/a	GoodResponse	0	n/a	n/a	5	50	Blank	Neutral	True
481.27	1.45	Control	0.6862999999999999	n/a	Yes	2.778	n/a	5.0	GoodResponse	0	0.017	480.287	5	50	Feedback	Neutral	True
482.725	2.778	Control	0.6862999999999999	n/a	Yes	2.778	n/a	n/a	GoodResponse	0	0.0	n/a	5	50	ISIslide	Neutral	True
485.516	0.25	Control	0.6923	0.0	Yes	2.734	0.016	n/a	GoodResponse	0	n/a	n/a	5	51	Cue	Neutral	True
485.767	3.95	Control	0.6923	0.0	Yes	2.734	0.001	n/a	GoodResponse	0	n/a	n/a	5	51	Fixation	Neutral	True
489.712	0.3	Control	0.6923	0.004	Yes	2.734	-0.004	2.0	GoodResponse	0	0.247	488.959	5	51	Target	Neutral	True
489.959	0.3	Control	0.6923	0.004	Yes	2.734	-0.004	2.0	GoodResponse	0	0.247	n/a	5	51	ButtonPress	Neutral	True
490.013	0.4	Control	0.6923	n/a	Yes	2.734	n/a	n/a	GoodResponse	0	n/a	n/a	5	51	Blank	Neutral	True
490.414	1.45	Control	0.6923	n/a	Yes	2.734	n/a	5.0	GoodResponse	0	0.044	489.458	5	51	Feedback	Neutral	True
491.869	2.734	Control	0.6923	n/a	Yes	2.734	n/a	n/a	GoodResponse	0	0.0	n/a	5	51	ISIslide	Neutral	True
494.627	0.25	Control	0.6792	0.0	No	2.623	0.027	n/a	NoResponse	0	n/a	n/a	5	52	Cue	Neutral	True
494.878	4.05	Control	0.6792	0.0	No	2.623	0.001	n/a	NoResponse	0	n/a	n/a	5	52	Fixation	Neutral	True
498.923	0.29	Control	0.6792	0.004	No	2.623	-0.004	2.0	NoResponse	0	0.396	498.319	5	52	Target	Neutral	True
499.224	0.41	Control	0.6792	n/a	No	2.623	n/a	n/a	NoResponse	0	n/a	n/a	5	52	Blank	Neutral	True
499.319	0.3	Control	0.6792	0.004	No	2.623	-0.004	2.0	NoResponse	0	0.396	n/a	5	52	ButtonPress	Neutral	True
499.625	1.45	Control	0.6792	n/a	No	2.623	n/a	5.0	NoResponse	0	0.007	498.632	5	52	Feedback	Neutral	True
501.079	2.623	Control	0.6792	n/a	No	2.623	n/a	n/a	NoResponse	0	0.0	n/a	5	52	ISIslide	Neutral	True
503.721	0.25	Win2	0.6851999999999999	0.0	Yes	2.929	0.021	n/a	GoodResponse	1	n/a	n/a	6	53	Cue	Win	True
503.971	4.05	Win2	0.6851999999999999	0.001	Yes	2.929	0.0	n/a	GoodResponse	1	n/a	n/a	6	53	Fixation	Win	True
508.017	0.28	Win2	0.6851999999999999	0.004	Yes	2.929	-0.004	2.0	GoodResponse	1	0.196	507.213	6	53	Target	Win	True
508.213	0.3	Win2	0.6851999999999999	0.004	Yes	2.929	-0.004	2.0	GoodResponse	1	0.196	n/a	6	53	ButtonPress	Win	True
508.301	0.42	Win2	0.6851999999999999	n/a	Yes	2.929	n/a	n/a	GoodResponse	1	n/a	n/a	6	53	Blank	Win	True
508.719	1.45	Win2	0.6851999999999999	n/a	Yes	2.929	n/a	5.0	GoodResponse	1	0.032	507.751	6	53	Feedback	Win	True
510.173	2.929	Win2	0.6851999999999999	n/a	Yes	2.929	n/a	n/a	GoodResponse	1	0.0	n/a	6	53	ISIslide	Win	True
513.116	0.25	Win2	0.6727	0.0	No	2.734	0.016	n/a	NoResponse	0	n/a	n/a	6	54	Cue	MissedWin	False
513.366	3.95	Win2	0.6727	0.0	No	2.734	0.0	n/a	NoResponse	0	n/a	n/a	6	54	Fixation	MissedWin	False
517.328	0.27	Win2	0.6727	0.0	No	2.734	0.012	n/a	NoResponse	0	n/a	n/a	6	54	Target	MissedWin	False
517.596	0.43	Win2	0.6727	n/a	No	2.734	n/a	n/a	NoResponse	0	n/a	n/a	6	54	Blank	MissedWin	False
518.014	1.45	Win2	0.6727	n/a	No	2.734	n/a	5.0	NoResponse	0	0.005	517.019	6	54	Feedback	MissedWin	False
519.468	2.734	Win2	0.6727	n/a	No	2.734	n/a	n/a	NoResponse	0	0.0	n/a	6	54	ISIslide	MissedWin	False
522.226	0.25	Control	0.6607	0.0	No	3.024	0.026	n/a	NoResponse	0	n/a	n/a	6	55	Cue	Neutral	True
522.477	3.95	Control	0.6607	0.0	No	3.024	0.001	n/a	NoResponse	0	n/a	n/a	6	55	Fixation	Neutral	True
526.422	0.26	Control	0.6607	0.004	No	3.024	-0.004	2.0	NoResponse	0	0.34	525.762	6	55	Target	Neutral	True
526.689	0.44	Control	0.6607	n/a	No	3.024	n/a	n/a	NoResponse	0	n/a	n/a	6	55	Blank	Neutral	True
526.762	0.3	Control	0.6607	0.004	No	3.024	-0.004	2.0	NoResponse	0	0.34	n/a	6	55	ButtonPress	Neutral	True
527.124	1.45	Control	0.6607	n/a	No	3.024	n/a	5.0	NoResponse	0	0.016	526.14	6	55	Feedback	Neutral	True
528.578	3.024	Control	0.6607	n/a	No	3.024	n/a	n/a	NoResponse	0	0.0	n/a	6	55	ISIslide	Neutral	True
531.621	0.25	Control	0.6667000000000001	0.0	Yes	2.829	0.021	n/a	GoodResponse	0	n/a	n/a	6	56	Cue	Neutral	True
531.872	3.95	Control	0.6667000000000001	0.0	Yes	2.829	0.001	n/a	GoodResponse	0	n/a	n/a	6	56	Fixation	Neutral	True
535.817	0.26	Control	0.6667000000000001	0.004	Yes	2.829	-0.004	2.0	GoodResponse	0	0.194	535.011	6	56	Target	Neutral	True
536.011	0.3	Control	0.6667000000000001	0.004	Yes	2.829	-0.004	2.0	GoodResponse	0	0.194	n/a	6	56	ButtonPress	Neutral	True
536.084	0.44	Control	0.6667000000000001	n/a	Yes	2.829	n/a	n/a	GoodResponse	0	n/a	n/a	6	56	Blank	Neutral	True
536.519	1.45	Control	0.6667000000000001	n/a	Yes	2.829	n/a	5.0	GoodResponse	0	0.036	535.555	6	56	Feedback	Neutral	True
537.973	2.829	Control	0.6667000000000001	n/a	Yes	2.829	n/a	n/a	GoodResponse	0	0.0	n/a	6	56	ISIslide	Neutral	True
540.815	0.25	Control	0.6724	0.0	Yes	3.485	0.015	n/a	GoodResponse	0	n/a	n/a	6	57	Cue	Neutral	True
541.066	4.0	Control	0.6724	0.0	Yes	3.485	0.001	n/a	GoodResponse	0	n/a	n/a	6	57	Fixation	Neutral	True
545.061	0.25	Control	0.6724	0.004	Yes	3.485	-0.004	2.0	GoodResponse	0	0.186	544.247	6	57	Target	Neutral	True
545.247	0.3	Control	0.6724	0.004	Yes	3.485	-0.004	2.0	GoodResponse	0	0.186	n/a	6	57	ButtonPress	Neutral	True
545.312	0.45	Control	0.6724	n/a	Yes	3.485	n/a	n/a	GoodResponse	0	n/a	n/a	6	57	Blank	Neutral	True
545.763	1.45	Control	0.6724	n/a	Yes	3.485	n/a	5.0	GoodResponse	0	0.012	544.775	6	57	Feedback	Neutral	True
547.218	3.485	Control	0.6724	n/a	Yes	3.485	n/a	n/a	GoodResponse	0	0.0	n/a	6	57	ISIslide	Neutral	True
550.728	0.25	Win2	0.6779999999999999	0.0	Yes	2.722	0.028	n/a	GoodResponse	1	n/a	n/a	7	58	Cue	Win	True
550.979	4.05	Win2	0.6779999999999999	0.0	Yes	2.722	0.001	n/a	GoodResponse	1	n/a	n/a	7	58	Fixation	Win	True
555.024	0.24	Win2	0.6779999999999999	0.004	Yes	2.722	-0.004	2.0	GoodResponse	1	0.185	554.209	7	58	Target	Win	True
555.209	0.3	Win2	0.6779999999999999	0.004	Yes	2.722	-0.004	2.0	GoodResponse	1	0.185	n/a	7	58	ButtonPress	Win	True
555.275	0.46	Win2	0.6779999999999999	n/a	Yes	2.722	n/a	n/a	GoodResponse	1	n/a	n/a	7	58	Blank	Win	True
555.726	1.45	Win2	0.6779999999999999	n/a	Yes	2.722	n/a	5.0	GoodResponse	1	0.049	554.775	7	58	Feedback	Win	True
557.181	2.722	Win2	0.6779999999999999	n/a	Yes	2.722	n/a	n/a	GoodResponse	1	0.0	n/a	7	58	ISIslide	Win	True
559.922	0.25	Lose2	0.6667000000000001	0.0	No	2.678	0.022	n/a	NoResponse	-1	n/a	n/a	6	59	Cue	Loss	True
560.173	4.0	Lose2	0.6667000000000001	0.0	No	2.678	0.001	n/a	NoResponse	-1	n/a	n/a	6	59	Fixation	Loss	True
564.168	0.23	Lose2	0.6667000000000001	0.004	No	2.678	-0.004	2.0	NoResponse	-1	0.256	563.424	6	59	Target	Loss	True
564.402	0.47	Lose2	0.6667000000000001	n/a	No	2.678	n/a	n/a	NoResponse	-1	n/a	n/a	6	59	Blank	Loss	True
564.424	0.3	Lose2	0.6667000000000001	0.004	No	2.678	-0.004	2.0	NoResponse	-1	0.256	n/a	6	59	ButtonPress	Loss	True
564.87	1.45	Lose2	0.6667000000000001	n/a	No	2.678	n/a	5.0	NoResponse	-1	0.027	563.897	6	59	Feedback	Loss	True
566.325	2.678	Lose2	0.6667000000000001	n/a	No	2.678	n/a	n/a	NoResponse	-1	0.0	n/a	6	59	ISIslide	Loss	True
569.016	0.25	Control	0.6557	0.0	No	2.684	0.016	n/a	NoResponse	0	n/a	n/a	6	60	Cue	Neutral	False
569.267	4.0	Control	0.6557	0.0	No	2.684	0.001	n/a	NoResponse	0	n/a	n/a	6	60	Fixation	Neutral	False
573.262	0.22	Control	0.6557	0.004	No	2.684	-0.004	n/a	NoResponse	0	n/a	n/a	6	60	Target	Neutral	False
573.496	0.48	Control	0.6557	n/a	No	2.684	n/a	n/a	NoResponse	0	n/a	n/a	6	60	Blank	Neutral	False
573.964	1.45	Control	0.6557	n/a	No	2.684	n/a	5.0	NoResponse	0	0.005	572.969	6	60	Feedback	Neutral	False
575.419	2.684	Control	0.6557	n/a	No	2.684	n/a	n/a	NoResponse	0	0.0	n/a	6	60	ISIslide	Neutral	False
578.127	0.25	Lose2	0.6452	0.0	No	2.973	0.027	n/a	NoResponse	-1	n/a	n/a	5	61	Cue	Loss	True
578.378	4.0	Lose2	0.6452	0.0	No	2.973	0.001	n/a	NoResponse	-1	n/a	n/a	5	61	Fixation	Loss	True
582.373	0.22	Lose2	0.6452	0.004	No	2.973	-0.004	2.0	NoResponse	-1	0.329	581.702	5	61	Target	Loss	True
582.607	0.48	Lose2	0.6452	n/a	No	2.973	n/a	n/a	NoResponse	-1	n/a	n/a	5	61	Blank	Loss	True
582.702	0.3	Lose2	0.6452	0.004	No	2.973	-0.004	2.0	NoResponse	-1	0.329	n/a	5	61	ButtonPress	Loss	True
583.075	1.45	Lose2	0.6452	n/a	No	2.973	n/a	5.0	NoResponse	-1	0.016	582.091	5	61	Feedback	Loss	True
584.529	2.973	Lose2	0.6452	n/a	No	2.973	n/a	n/a	NoResponse	-1	0.0	n/a	5	61	ISIslide	Loss	True
587.522	0.25	Lose2	0.6349	0.0	No	2.878	0.022	n/a	NoResponse	-1	n/a	n/a	4	62	Cue	Loss	True
587.772	3.9	Lose2	0.6349	0.0	No	2.878	0.0	n/a	NoResponse	-1	n/a	n/a	4	62	Fixation	Loss	True
591.684	0.23	Lose2	0.6349	0.0	No	2.878	0.012	2.0	NoResponse	-1	0.236	590.92	4	62	Target	Loss	True
591.901	0.47	Lose2	0.6349	n/a	No	2.878	n/a	n/a	NoResponse	-1	n/a	n/a	4	62	Blank	Loss	True
591.92	0.3	Lose2	0.6349	0.0	No	2.878	0.012	2.0	NoResponse	-1	0.236	n/a	4	62	ButtonPress	Loss	True
592.369	1.45	Lose2	0.6349	n/a	No	2.878	n/a	5.0	NoResponse	-1	0.039	591.408	4	62	Feedback	Loss	True
593.824	2.878	Lose2	0.6349	n/a	No	2.878	n/a	n/a	NoResponse	-1	0.0	n/a	4	62	ISIslide	Loss	True
596.716	0.25	Lose2	0.6406000000000001	0.0	Yes	2.634	0.016	n/a	GoodResponse	0	n/a	n/a	4	63	Cue	AvoidedLoss	True
596.967	4.05	Lose2	0.6406000000000001	0.0	Yes	2.634	0.001	n/a	GoodResponse	0	n/a	n/a	4	63	Fixation	AvoidedLoss	True
601.012	0.24	Lose2	0.6406000000000001	0.004	Yes	2.634	-0.004	2.0	GoodResponse	0	0.179	600.191	4	63	Target	AvoidedLoss	True
601.191	0.3	Lose2	0.6406000000000001	0.004	Yes	2.634	-0.004	2.0	GoodResponse	0	0.179	n/a	4	63	ButtonPress	AvoidedLoss	True
601.263	0.46	Lose2	0.6406000000000001	n/a	Yes	2.634	n/a	n/a	GoodResponse	0	n/a	n/a	4	63	Blank	AvoidedLoss	True
601.714	1.45	Lose2	0.6406000000000001	n/a	Yes	2.634	n/a	5.0	GoodResponse	0	0.012	600.726	4	63	Feedback	AvoidedLoss	True
603.168	2.634	Lose2	0.6406000000000001	n/a	Yes	2.634	n/a	n/a	GoodResponse	0	0.0	n/a	4	63	ISIslide	AvoidedLoss	True
605.826	0.25	Win2	0.6308	0.0	No	3.124	0.026	n/a	NoResponse	0	n/a	n/a	4	64	Cue	MissedWin	False
606.077	4.15	Win2	0.6308	0.0	No	3.124	0.001	n/a	NoResponse	0	n/a	n/a	4	64	Fixation	MissedWin	False
610.223	0.25	Win2	0.6308	0.003	No	3.124	-0.003	n/a	NoResponse	0	n/a	n/a	4	64	Target	MissedWin	False
610.474	0.45	Win2	0.6308	n/a	No	3.124	n/a	n/a	NoResponse	0	n/a	n/a	4	64	Blank	MissedWin	False
610.925	1.45	Win2	0.6308	n/a	No	3.124	n/a	5.0	NoResponse	0	0.02	609.945	4	64	Feedback	MissedWin	False
612.379	3.124	Win2	0.6308	n/a	No	3.124	n/a	n/a	NoResponse	0	0.0	n/a	4	64	ISIslide	MissedWin	False
615.522	0.25	Control	0.6212	0.0	No	2.778	0.022	n/a	NoResponse	0	n/a	n/a	4	65	Cue	Neutral	False
615.773	4.0	Control	0.6212	0.0	No	2.778	0.001	n/a	NoResponse	0	n/a	n/a	4	65	Fixation	Neutral	False
619.768	0.26	Control	0.6212	0.004	No	2.778	-0.004	n/a	NoResponse	0	n/a	n/a	4	65	Target	Neutral	False
620.036	0.44	Control	0.6212	n/a	No	2.778	n/a	n/a	NoResponse	0	n/a	n/a	4	65	Blank	Neutral	False
620.47	1.45	Control	0.6212	n/a	No	2.778	n/a	5.0	NoResponse	0	0.036	619.506	4	65	Feedback	Neutral	False
621.925	2.778	Control	0.6212	n/a	No	2.778	n/a	n/a	NoResponse	0	0.0	n/a	4	65	ISIslide	Neutral	False
624.716	0.25	Win2	0.6269	0.0	Yes	2.784	0.016	n/a	GoodResponse	1	n/a	n/a	5	66	Cue	Win	True
624.967	3.9	Win2	0.6269	0.0	Yes	2.784	0.001	n/a	GoodResponse	1	n/a	n/a	5	66	Fixation	Win	True
628.862	0.27	Win2	0.6269	0.004	Yes	2.784	-0.004	2.0	GoodResponse	1	0.159	628.021	5	66	Target	Win	True
629.021	0.3	Win2	0.6269	0.004	Yes	2.784	-0.004	2.0	GoodResponse	1	0.159	n/a	5	66	ButtonPress	Win	True
629.146	0.43	Win2	0.6269	n/a	Yes	2.784	n/a	n/a	GoodResponse	1	n/a	n/a	5	66	Blank	Win	True
629.564	1.45	Win2	0.6269	n/a	Yes	2.784	n/a	5.0	GoodResponse	1	0.014	628.578	5	66	Feedback	Win	True
631.018	2.784	Win2	0.6269	n/a	Yes	2.784	n/a	n/a	GoodResponse	1	0.0	n/a	5	66	ISIslide	Win	True
633.827	0.25	Control	0.6175999999999999	0.0	No	2.723	0.027	n/a	NoResponse	0	n/a	n/a	5	67	Cue	Neutral	False
634.078	3.95	Control	0.6175999999999999	0.0	No	2.723	0.001	n/a	NoResponse	0	n/a	n/a	5	67	Fixation	Neutral	False
638.023	0.28	Control	0.6175999999999999	0.004	No	2.723	-0.004	n/a	NoResponse	0	n/a	n/a	5	67	Target	Neutral	False
638.307	0.42	Control	0.6175999999999999	n/a	No	2.723	n/a	n/a	NoResponse	0	n/a	n/a	5	67	Blank	Neutral	False
638.725	1.45	Control	0.6175999999999999	n/a	No	2.723	n/a	5.0	NoResponse	0	0.024	637.749	5	67	Feedback	Neutral	False
640.179	2.723	Control	0.6175999999999999	n/a	No	2.723	n/a	n/a	NoResponse	0	0.0	n/a	5	67	ISIslide	Neutral	False
642.921	0.25	Win2	0.6232	0.0	Yes	3.079	0.021	n/a	GoodResponse	1	n/a	n/a	6	68	Cue	Win	True
643.171	4.0	Win2	0.6232	0.001	Yes	3.079	0.0	n/a	GoodResponse	1	n/a	n/a	6	68	Fixation	Win	True
647.167	0.29	Win2	0.6232	0.004	Yes	3.079	-0.004	2.0	GoodResponse	1	0.176	646.343	6	68	Target	Win	True
647.343	0.3	Win2	0.6232	0.004	Yes	3.079	-0.004	2.0	GoodResponse	1	0.176	n/a	6	68	ButtonPress	Win	True
647.468	0.41	Win2	0.6232	n/a	Yes	3.079	n/a	n/a	GoodResponse	1	n/a	n/a	6	68	Blank	Win	True
647.869	1.45	Win2	0.6232	n/a	Yes	3.079	n/a	5.0	GoodResponse	1	0.002	646.871	6	68	Feedback	Win	True
649.323	3.079	Win2	0.6232	n/a	Yes	3.079	n/a	n/a	GoodResponse	1	0.0	n/a	6	68	ISIslide	Win	True
652.416	0.25	Win2	0.6286	0.0	Yes	3.234	0.016	n/a	GoodResponse	1	n/a	n/a	7	69	Cue	Win	True
652.667	3.95	Win2	0.6286	0.0	Yes	3.234	0.001	n/a	GoodResponse	1	n/a	n/a	7	69	Fixation	Win	True
656.612	0.3	Win2	0.6286	0.004	Yes	3.234	-0.004	2.0	GoodResponse	1	0.178	655.79	7	69	Target	Win	True
656.79	0.3	Win2	0.6286	0.004	Yes	3.234	-0.004	2.0	GoodResponse	1	0.178	n/a	7	69	ButtonPress	Win	True
656.913	0.4	Win2	0.6286	n/a	Yes	3.234	n/a	n/a	GoodResponse	1	n/a	n/a	7	69	Blank	Win	True
657.314	1.45	Win2	0.6286	n/a	Yes	3.234	n/a	5.0	GoodResponse	1	0.021	656.335	7	69	Feedback	Win	True
658.768	3.234	Win2	0.6286	n/a	Yes	3.234	n/a	n/a	GoodResponse	1	0.0	n/a	7	69	ISIslide	Win	True
662.028	0.25	Lose2	0.6338	0.0	Yes	3.022	0.028	n/a	GoodResponse	0	n/a	n/a	7	70	Cue	AvoidedLoss	True
662.279	4.05	Lose2	0.6338	0.0	Yes	3.022	0.001	n/a	GoodResponse	0	n/a	n/a	7	70	Fixation	AvoidedLoss	True
666.324	0.31	Lose2	0.6338	0.004	Yes	3.022	-0.004	2.0	GoodResponse	0	0.262	665.586	7	70	Target	AvoidedLoss	True
666.586	0.3	Lose2	0.6338	0.004	Yes	3.022	-0.004	2.0	GoodResponse	0	0.262	n/a	7	70	ButtonPress	AvoidedLoss	True
666.642	0.39	Lose2	0.6338	n/a	Yes	3.022	n/a	n/a	GoodResponse	0	n/a	n/a	7	70	Blank	AvoidedLoss	True
667.026	1.45	Lose2	0.6338	n/a	Yes	3.022	n/a	5.0	GoodResponse	0	0.016	666.042	7	70	Feedback	AvoidedLoss	True
668.481	3.022	Lose2	0.6338	n/a	Yes	3.022	n/a	n/a	GoodResponse	0	0.0	n/a	7	70	ISIslide	AvoidedLoss	True
671.523	0.25	Win2	0.6389	0.0	Yes	2.727	0.023	n/a	GoodResponse	1	n/a	n/a	8	71	Cue	Win	True
671.774	4.05	Win2	0.6389	0.0	Yes	2.727	0.001	n/a	GoodResponse	1	n/a	n/a	8	71	Fixation	Win	True
675.819	0.32	Win2	0.6389	0.004	Yes	2.727	-0.004	2.0	GoodResponse	1	0.222	675.041	8	71	Target	Win	True
676.041	0.3	Win2	0.6389	0.004	Yes	2.727	-0.004	2.0	GoodResponse	1	0.222	n/a	8	71	ButtonPress	Win	True
676.154	0.38	Win2	0.6389	n/a	Yes	2.727	n/a	n/a	GoodResponse	1	n/a	n/a	8	71	Blank	Win	True
676.521	1.45	Win2	0.6389	n/a	Yes	2.727	n/a	5.0	GoodResponse	1	0.033	675.554	8	71	Feedback	Win	True
677.976	2.727	Win2	0.6389	n/a	Yes	2.727	n/a	n/a	GoodResponse	1	0.0	n/a	8	71	ISIslide	Win	True
680.717	0.25	Win2	0.6437999999999999	0.0	Yes	2.783	0.017	n/a	GoodResponse	1	n/a	n/a	9	72	Cue	Win	True
680.968	4.1	Win2	0.6437999999999999	0.0	Yes	2.783	0.001	n/a	GoodResponse	1	n/a	n/a	9	72	Fixation	Win	True
685.064	0.33	Win2	0.6437999999999999	0.003	Yes	2.783	-0.003	2.0	GoodResponse	1	0.159	684.223	9	72	Target	Win	True
685.223	0.3	Win2	0.6437999999999999	0.003	Yes	2.783	-0.003	2.0	GoodResponse	1	0.159	n/a	9	72	ButtonPress	Win	True
685.398	0.37	Win2	0.6437999999999999	n/a	Yes	2.783	n/a	n/a	GoodResponse	1	n/a	n/a	9	72	Blank	Win	True
685.766	1.45	Win2	0.6437999999999999	n/a	Yes	2.783	n/a	5.0	GoodResponse	1	0.007	684.773	9	72	Feedback	Win	True
687.22	2.783	Win2	0.6437999999999999	n/a	Yes	2.783	n/a	n/a	GoodResponse	1	0.0	n/a	9	72	ISIslide	Win	True
690.028	0.25	Win2	0.6486	0.0	Yes	2.672	0.028	n/a	GoodResponse	1	n/a	n/a	10	73	Cue	Win	True
690.279	4.0	Win2	0.6486	0.0	Yes	2.672	0.001	n/a	GoodResponse	1	n/a	n/a	10	73	Fixation	Win	True
694.274	0.34	Win2	0.6486	0.004	Yes	2.672	-0.004	2.0	GoodResponse	1	0.219	693.493	10	73	Target	Win	True
694.493	0.3	Win2	0.6486	0.004	Yes	2.672	-0.004	2.0	GoodResponse	1	0.219	n/a	10	73	ButtonPress	Win	True
694.626	0.36	Win2	0.6486	n/a	Yes	2.672	n/a	n/a	GoodResponse	1	n/a	n/a	10	73	Blank	Win	True
694.977	1.45	Win2	0.6486	n/a	Yes	2.672	n/a	5.0	GoodResponse	1	0.016	693.993	10	73	Feedback	Win	True
696.431	2.672	Win2	0.6486	n/a	Yes	2.672	n/a	n/a	GoodResponse	1	0.0	n/a	10	73	ISIslide	Win	True
699.122	0.25	Lose2	0.6533	0.0	Yes	2.628	0.022	n/a	GoodResponse	0	n/a	n/a	10	74	Cue	AvoidedLoss	True
699.373	4.05	Lose2	0.6533	0.0	Yes	2.628	0.001	n/a	GoodResponse	0	n/a	n/a	10	74	Fixation	AvoidedLoss	True
703.419	0.35	Lose2	0.6533	0.003	Yes	2.628	-0.003	2.0	GoodResponse	0	0.214	702.633	10	74	Target	AvoidedLoss	True
703.633	0.3	Lose2	0.6533	0.003	Yes	2.628	-0.003	2.0	GoodResponse	0	0.214	n/a	10	74	ButtonPress	AvoidedLoss	True
703.77	0.35	Lose2	0.6533	n/a	Yes	2.628	n/a	n/a	GoodResponse	0	n/a	n/a	10	74	Blank	AvoidedLoss	True
704.121	1.45	Lose2	0.6533	n/a	Yes	2.628	n/a	5.0	GoodResponse	0	0.043	703.164	10	74	Feedback	AvoidedLoss	True
705.575	2.628	Lose2	0.6533	n/a	Yes	2.628	n/a	n/a	GoodResponse	0	0.0	n/a	10	74	ISIslide	AvoidedLoss	True
708.216	0.25	Lose2	0.6579	0.0	Yes	2.934	0.016	n/a	GoodResponse	0	n/a	n/a	10	75	Cue	AvoidedLoss	True
708.467	3.95	Lose2	0.6579	0.0	Yes	2.934	0.001	n/a	GoodResponse	0	n/a	n/a	10	75	Fixation	AvoidedLoss	True
712.412	0.36	Lose2	0.6579	0.004	Yes	2.934	-0.004	2.0	GoodResponse	0	0.253	711.665	10	75	Target	AvoidedLoss	True
712.665	0.3	Lose2	0.6579	0.004	Yes	2.934	-0.004	2.0	GoodResponse	0	0.253	n/a	10	75	ButtonPress	AvoidedLoss	True
712.78	0.34	Lose2	0.6579	n/a	Yes	2.934	n/a	n/a	GoodResponse	0	n/a	n/a	10	75	Blank	AvoidedLoss	True
713.114	1.45	Lose2	0.6579	n/a	Yes	2.934	n/a	5.0	GoodResponse	0	0.025	712.139	10	75	Feedback	AvoidedLoss	True
714.569	2.934	Lose2	0.6579	n/a	Yes	2.934	n/a	n/a	GoodResponse	0	0.0	n/a	10	75	ISIslide	AvoidedLoss	True
717.527	0.25	Control	0.6494	0.0	No	3.223	0.027	n/a	NoResponse	0	n/a	n/a	10	76	Cue	Neutral	False
717.778	4.05	Control	0.6494	0.0	No	3.223	0.001	n/a	NoResponse	0	n/a	n/a	10	76	Fixation	Neutral	False
721.824	0.36	Control	0.6494	0.003	No	3.223	-0.003	n/a	NoResponse	0	n/a	n/a	10	76	Target	Neutral	False
722.191	0.34	Control	0.6494	n/a	No	3.223	n/a	n/a	NoResponse	0	n/a	n/a	10	76	Blank	Neutral	False
722.526	1.45	Control	0.6494	n/a	No	3.223	n/a	5.0	NoResponse	0	0.028	721.554	10	76	Feedback	Neutral	False
723.98	3.223	Control	0.6494	n/a	No	3.223	n/a	n/a	NoResponse	0	0.0	n/a	10	76	ISIslide	Neutral	False
727.223	0.25	Lose2	0.6537999999999999	0.0	Yes	2.577	0.023	n/a	GoodResponse	0	n/a	n/a	10	77	Cue	AvoidedLoss	True
727.474	3.95	Lose2	0.6537999999999999	0.0	Yes	2.577	0.001	n/a	GoodResponse	0	n/a	n/a	10	77	Fixation	AvoidedLoss	True
731.419	0.37	Lose2	0.6537999999999999	0.004	Yes	2.577	-0.004	2.0	GoodResponse	0	0.199	730.618	10	77	Target	AvoidedLoss	True
731.618	0.3	Lose2	0.6537999999999999	0.004	Yes	2.577	-0.004	2.0	GoodResponse	0	0.199	n/a	10	77	ButtonPress	AvoidedLoss	True
731.803	0.33	Lose2	0.6537999999999999	n/a	Yes	2.577	n/a	n/a	GoodResponse	0	n/a	n/a	10	77	Blank	AvoidedLoss	True
732.121	1.45	Lose2	0.6537999999999999	n/a	Yes	2.577	n/a	5.0	GoodResponse	0	0.042	731.163	10	77	Feedback	AvoidedLoss	True
733.575	2.577	Lose2	0.6537999999999999	n/a	Yes	2.577	n/a	n/a	GoodResponse	0	0.0	n/a	10	77	ISIslide	AvoidedLoss	True
