onset	duration	cue_type	current_mean_accuracy	duration_error	is_hit	isi_adjusted	onset_delay	response	response_type	reward	rt	rt_time	total_reward	trial_number	trial_phase	trial_type	one_press
11.103	0.25	Control	1.0	0.001	Yes	2.947	0.003	n/a	GoodResponse	0	n/a	n/a	0	0	Cue	Neutral	True
11.353	3.85	Control	1.0	0.0	Yes	2.947	0.0	n/a	GoodResponse	0	n/a	n/a	0	0	Fixation	Neutral	True
15.202	0.4	Control	1.0	0.001	Yes	2.947	-0.001	4.0	GoodResponse	0	0.219	14.421	0	0	Target	Neutral	True
15.421	0.3	Control	1.0	0.001	Yes	2.947	-0.001	4.0	GoodResponse	0	0.219	n/a	0	0	ButtonPress	Neutral	True
15.602	0.3	Control	1.0	n/a	Yes	2.947	n/a	n/a	GoodResponse	0	n/a	n/a	0	0	Blank	Neutral	True
15.902	1.45	Control	1.0	n/a	Yes	2.947	n/a	5.0	GoodResponse	0	0.027	14.929	0	0	Feedback	Neutral	True
17.351	2.947	Control	1.0	n/a	Yes	2.947	n/a	n/a	GoodResponse	0	0.0	n/a	0	0	ISIslide	Neutral	True
20.317	0.25	Lose2	1.0	0.0	Yes	2.783	0.017	n/a	GoodResponse	0	n/a	n/a	0	1	Cue	AvoidedLoss	True
20.567	4.0	Lose2	1.0	0.0	Yes	2.783	0.0	n/a	GoodResponse	0	n/a	n/a	0	1	Fixation	AvoidedLoss	True
24.565	0.39	Lose2	1.0	0.002	Yes	2.783	-0.002	4.0	GoodResponse	0	0.202	23.767	0	1	Target	AvoidedLoss	True
24.767	0.3	Lose2	1.0	0.002	Yes	2.783	-0.002	4.0	GoodResponse	0	0.202	n/a	0	1	ButtonPress	AvoidedLoss	True
24.965	0.31	Lose2	1.0	n/a	Yes	2.783	n/a	n/a	GoodResponse	0	n/a	n/a	0	1	Blank	AvoidedLoss	True
25.265	1.45	Lose2	1.0	n/a	Yes	2.783	n/a	5.0	GoodResponse	0	0.03	24.295	0	1	Feedback	AvoidedLoss	True
26.715	2.783	Lose2	1.0	n/a	Yes	2.783	n/a	n/a	GoodResponse	0	0.0	n/a	0	1	ISIslide	AvoidedLoss	True
29.514	0.25	Control	1.0	0.0	Yes	2.586	0.014	n/a	GoodResponse	0	n/a	n/a	0	2	Cue	Neutral	True
29.764	4.1	Control	1.0	0.0	Yes	2.586	0.0	n/a	GoodResponse	0	n/a	n/a	0	2	Fixation	Neutral	True
33.862	0.38	Control	1.0	0.002	Yes	2.586	-0.002	4.0	GoodResponse	0	0.236	33.098	0	2	Target	Neutral	True
34.098	0.3	Control	1.0	0.002	Yes	2.586	-0.002	4.0	GoodResponse	0	0.236	n/a	0	2	ButtonPress	Neutral	True
34.245	0.32	Control	1.0	n/a	Yes	2.586	n/a	n/a	GoodResponse	0	n/a	n/a	0	2	Blank	Neutral	True
34.562	1.45	Control	1.0	n/a	Yes	2.586	n/a	5.0	GoodResponse	0	0.001	33.563	0	2	Feedback	Neutral	True
36.011	2.586	Control	1.0	n/a	Yes	2.586	n/a	n/a	GoodResponse	0	0.0	n/a	0	2	ISIslide	Neutral	True
38.627	0.25	Win2	1.0	0.0	Yes	2.823	0.027	n/a	GoodResponse	1	n/a	n/a	1	3	Cue	Win	True
38.877	3.95	Win2	1.0	0.0	Yes	2.823	0.0	n/a	GoodResponse	1	n/a	n/a	1	3	Fixation	Win	True
42.826	0.37	Win2	1.0	0.001	Yes	2.823	-0.001	4.0	GoodResponse	1	0.226	42.052	1	3	Target	Win	True
43.052	0.3	Win2	1.0	0.001	Yes	2.823	-0.001	4.0	GoodResponse	1	0.226	n/a	1	3	ButtonPress	Win	True
43.209	0.33	Win2	1.0	n/a	Yes	2.823	n/a	n/a	GoodResponse	1	n/a	n/a	1	3	Blank	Win	True
43.525	1.45	Win2	1.0	n/a	Yes	2.823	n/a	5.0	GoodResponse	1	0.014	42.539	1	3	Feedback	Win	True
44.975	2.823	Win2	1.0	n/a	Yes	2.823	n/a	n/a	GoodResponse	1	0.0	n/a	1	3	ISIslide	Win	True
47.824	0.25	Win2	1.0	0.0	Yes	3.276	0.024	n/a	GoodResponse	1	n/a	n/a	2	4	Cue	Win	True
48.074	4.0	Win2	1.0	0.0	Yes	3.276	0.0	n/a	GoodResponse	1	n/a	n/a	2	4	Fixation	Win	True
52.072	0.36	Win2	1.0	0.002	Yes	3.276	-0.002	4.0	GoodResponse	1	0.215	51.287	2	4	Target	Win	True
52.287	0.3	Win2	1.0	0.002	Yes	3.276	-0.002	4.0	GoodResponse	1	0.215	n/a	2	4	ButtonPress	Win	True
52.439	0.34	Win2	1.0	n/a	Yes	3.276	n/a	n/a	GoodResponse	1	n/a	n/a	2	4	Blank	Win	True
52.772	1.45	Win2	1.0	n/a	Yes	3.276	n/a	5.0	GoodResponse	1	0.035	51.807	2	4	Feedback	Win	True
54.222	3.276	Win2	1.0	n/a	Yes	3.276	n/a	n/a	GoodResponse	1	0.0	n/a	2	4	ISIslide	Win	True
57.521	0.25	Win2	1.0	0.0	Yes	2.779	0.021	n/a	GoodResponse	1	n/a	n/a	3	5	Cue	Win	True
57.77	4.0	Win2	1.0	0.001	Yes	2.779	-0.001	n/a	GoodResponse	1	n/a	n/a	3	5	Fixation	Win	True
61.769	0.35	Win2	1.0	0.002	Yes	2.779	-0.002	4.0	GoodResponse	1	0.224	60.993	3	5	Target	Win	True
61.993	0.3	Win2	1.0	0.002	Yes	2.779	-0.002	4.0	GoodResponse	1	0.224	n/a	3	5	ButtonPress	Win	True
62.119	0.35	Win2	1.0	n/a	Yes	2.779	n/a	n/a	GoodResponse	1	n/a	n/a	3	5	Blank	Win	True
62.469	1.45	Win2	1.0	n/a	Yes	2.779	n/a	5.0	GoodResponse	1	0.046	61.515	3	5	Feedback	Win	True
63.918	2.779	Win2	1.0	n/a	Yes	2.779	n/a	n/a	GoodResponse	1	0.0	n/a	3	5	ISIslide	Win	True
66.717	0.25	Lose2	1.0	0.0	Yes	2.733	0.017	n/a	GoodResponse	0	n/a	n/a	3	6	Cue	AvoidedLoss	True
66.967	3.95	Lose2	1.0	0.0	Yes	2.733	0.0	n/a	GoodResponse	0	n/a	n/a	3	6	Fixation	AvoidedLoss	True
70.916	0.34	Lose2	1.0	0.001	Yes	2.733	-0.001	4.0	GoodResponse	0	0.236	70.152	3	6	Target	AvoidedLoss	True
71.152	0.3	Lose2	1.0	0.001	Yes	2.733	-0.001	4.0	GoodResponse	0	0.236	n/a	3	6	ButtonPress	AvoidedLoss	True
71.266	0.36	Lose2	1.0	n/a	Yes	2.733	n/a	n/a	GoodResponse	0	n/a	n/a	3	6	Blank	AvoidedLoss	True
71.616	1.45	Lose2	1.0	n/a	Yes	2.733	n/a	5.0	GoodResponse	0	0.02	70.636	3	6	Feedback	AvoidedLoss	True
73.065	2.733	Lose2	1.0	n/a	Yes	2.733	n/a	n/a	GoodResponse	0	0.0	n/a	3	6	ISIslide	AvoidedLoss	True
75.814	0.25	Lose2	1.0	0.0	Yes	4.036	0.014	n/a	GoodResponse	0	n/a	n/a	3	7	Cue	AvoidedLoss	True
76.064	4.05	Lose2	1.0	0.0	Yes	4.036	0.0	n/a	GoodResponse	0	n/a	n/a	3	7	Fixation	AvoidedLoss	True
80.113	0.33	Lose2	1.0	0.001	Yes	4.036	-0.001	4.0	GoodResponse	0	0.225	79.338	3	7	Target	AvoidedLoss	True
80.338	0.3	Lose2	1.0	0.001	Yes	4.036	-0.001	4.0	GoodResponse	0	0.225	n/a	3	7	ButtonPress	AvoidedLoss	True
80.446	0.37	Lose2	1.0	n/a	Yes	4.036	n/a	n/a	GoodResponse	0	n/a	n/a	3	7	Blank	AvoidedLoss	True
80.812	1.45	Lose2	1.0	n/a	Yes	4.036	n/a	5.0	GoodResponse	0	0.044	79.856	3	7	Feedback	AvoidedLoss	True
82.262	4.036	Lose2	1.0	n/a	Yes	4.036	n/a	n/a	GoodResponse	0	0.0	n/a	3	7	ISIslide	AvoidedLoss	True
86.327	0.25	Lose2	1.0	0.0	Yes	3.023	0.027	n/a	GoodResponse	0	n/a	n/a	3	8	Cue	AvoidedLoss	True
86.577	3.95	Lose2	1.0	0.0	Yes	3.023	0.0	n/a	GoodResponse	0	n/a	n/a	3	8	Fixation	AvoidedLoss	True
90.526	0.32	Lose2	1.0	0.001	Yes	3.023	-0.001	4.0	GoodResponse	0	0.235	89.761	3	8	Target	AvoidedLoss	True
90.761	0.3	Lose2	1.0	0.001	Yes	3.023	-0.001	4.0	GoodResponse	0	0.235	n/a	3	8	ButtonPress	AvoidedLoss	True
90.859	0.38	Lose2	1.0	n/a	Yes	3.023	n/a	n/a	GoodResponse	0	n/a	n/a	3	8	Blank	AvoidedLoss	True
91.225	1.45	Lose2	1.0	n/a	Yes	3.023	n/a	5.0	GoodResponse	0	0.021	90.246	3	8	Feedback	AvoidedLoss	True
92.675	3.023	Lose2	1.0	n/a	Yes	3.023	n/a	n/a	GoodResponse	0	0.0	n/a	3	8	ISIslide	AvoidedLoss	True
95.724	0.25	Lose2	1.0	0.0	Yes	3.126	0.024	n/a	GoodResponse	0	n/a	n/a	3	9	Cue	AvoidedLoss	True
95.974	3.95	Lose2	1.0	0.0	Yes	3.126	0.0	n/a	GoodResponse	0	n/a	n/a	3	9	Fixation	AvoidedLoss	True
99.922	0.31	Lose2	1.0	0.002	Yes	3.126	-0.002	4.0	GoodResponse	0	0.272	99.194	3	9	Target	AvoidedLoss	True
100.194	0.3	Lose2	1.0	0.002	Yes	3.126	-0.002	4.0	GoodResponse	0	0.272	n/a	3	9	ButtonPress	AvoidedLoss	True
100.239	0.39	Lose2	1.0	n/a	Yes	3.126	n/a	n/a	GoodResponse	0	n/a	n/a	3	9	Blank	AvoidedLoss	True
100.622	1.45	Lose2	1.0	n/a	Yes	3.126	n/a	5.0	GoodResponse	0	0.039	99.661	3	9	Feedback	AvoidedLoss	True
102.072	3.126	Lose2	1.0	n/a	Yes	3.126	n/a	n/a	GoodResponse	0	0.0	n/a	3	9	ISIslide	AvoidedLoss	True
105.221	0.25	Control	1.0	0.0	Yes	3.279	0.021	n/a	GoodResponse	0	n/a	n/a	3	10	Cue	Neutral	True
105.471	4.0	Control	1.0	0.0	Yes	3.279	0.0	n/a	GoodResponse	0	n/a	n/a	3	10	Fixation	Neutral	True
109.469	0.3	Control	1.0	0.002	Yes	3.279	-0.002	4.0	GoodResponse	0	0.299	108.768	3	10	Target	Neutral	True
109.768	0.3	Control	1.0	0.002	Yes	3.279	-0.002	4.0	GoodResponse	0	0.299	n/a	3	10	ButtonPress	Neutral	True
109.769	0.4	Control	1.0	n/a	Yes	3.279	n/a	n/a	GoodResponse	0	n/a	n/a	3	10	Blank	Neutral	True
110.169	1.45	Control	1.0	n/a	Yes	3.279	n/a	5.0	GoodResponse	0	0.007	109.176	3	10	Feedback	Neutral	True
111.618	3.279	Control	1.0	n/a	Yes	3.279	n/a	n/a	GoodResponse	0	0.0	n/a	3	10	ISIslide	Neutral	True
114.917	0.25	Lose2	1.0	0.0	Yes	2.733	0.017	n/a	GoodResponse	0	n/a	n/a	3	11	Cue	AvoidedLoss	True
115.167	4.05	Lose2	1.0	0.0	Yes	2.733	0.0	n/a	GoodResponse	0	n/a	n/a	3	11	Fixation	AvoidedLoss	True
119.216	0.29	Lose2	1.0	0.001	Yes	2.733	-0.001	4.0	GoodResponse	0	0.223	118.439	3	11	Target	AvoidedLoss	True
119.439	0.3	Lose2	1.0	0.001	Yes	2.733	-0.001	4.0	GoodResponse	0	0.223	n/a	3	11	ButtonPress	AvoidedLoss	True
119.516	0.41	Lose2	1.0	n/a	Yes	2.733	n/a	n/a	GoodResponse	0	n/a	n/a	3	11	Blank	AvoidedLoss	True
119.915	1.45	Lose2	1.0	n/a	Yes	2.733	n/a	5.0	GoodResponse	0	0.013	118.928	3	11	Feedback	AvoidedLoss	True
121.365	2.733	Lose2	1.0	n/a	Yes	2.733	n/a	n/a	GoodResponse	0	0.0	n/a	3	11	ISIslide	AvoidedLoss	True
124.114	0.25	Control	0.9231	0.0	No	2.986	0.014	n/a	NoResponse	0	n/a	n/a	3	12	Cue	Neutral	True
124.364	3.9	Control	0.9231	0.0	No	2.986	0.0	n/a	NoResponse	0	n/a	n/a	3	12	Fixation	Neutral	True
128.263	0.28	Control	0.9231	0.001	No	2.986	-0.001	4.0	NoResponse	0	0.301	127.564	3	12	Target	Neutral	True
128.546	0.42	Control	0.9231	n/a	No	2.986	n/a	n/a	NoResponse	0	n/a	n/a	3	12	Blank	Neutral	True
128.564	0.3	Control	0.9231	0.001	No	2.986	-0.001	4.0	NoResponse	0	0.301	n/a	3	12	ButtonPress	Neutral	True
128.962	1.45	Control	0.9231	n/a	No	2.986	n/a	5.0	NoResponse	0	0.04	128.002	3	12	Feedback	Neutral	True
130.412	2.986	Control	0.9231	n/a	No	2.986	n/a	n/a	NoResponse	0	0.0	n/a	3	12	ISIslide	Neutral	True
133.427	0.25	Control	0.9286	0.001	Yes	2.773	0.027	n/a	GoodResponse	0	n/a	n/a	3	13	Cue	Neutral	True
133.677	4.0	Control	0.9286	0.0	Yes	2.773	0.0	n/a	GoodResponse	0	n/a	n/a	3	13	Fixation	Neutral	True
137.676	0.27	Control	0.9286	0.001	Yes	2.773	-0.001	4.0	GoodResponse	0	0.242	136.918	3	13	Target	Neutral	True
137.918	0.3	Control	0.9286	0.001	Yes	2.773	-0.001	4.0	GoodResponse	0	0.242	n/a	3	13	ButtonPress	Neutral	True
137.943	0.43	Control	0.9286	n/a	Yes	2.773	n/a	n/a	GoodResponse	0	n/a	n/a	3	13	Blank	Neutral	True
138.376	1.45	Control	0.9286	n/a	Yes	2.773	n/a	5.0	GoodResponse	0	0.04	137.416	3	13	Feedback	Neutral	True
139.825	2.773	Control	0.9286	n/a	Yes	2.773	n/a	n/a	GoodResponse	0	0.0	n/a	3	13	ISIslide	Neutral	True
142.624	0.25	Win2	0.9333	0.0	Yes	2.676	0.024	n/a	GoodResponse	1	n/a	n/a	4	14	Cue	Win	True
142.874	4.1	Win2	0.9333	0.0	Yes	2.676	0.0	n/a	GoodResponse	1	n/a	n/a	4	14	Fixation	Win	True
146.973	0.26	Win2	0.9333	0.001	Yes	2.676	-0.001	4.0	GoodResponse	1	0.256	146.229	4	14	Target	Win	True
147.229	0.3	Win2	0.9333	0.001	Yes	2.676	-0.001	4.0	GoodResponse	1	0.256	n/a	4	14	ButtonPress	Win	True
147.239	0.44	Win2	0.9333	n/a	Yes	2.676	n/a	n/a	GoodResponse	1	n/a	n/a	4	14	Blank	Win	True
147.672	1.45	Win2	0.9333	n/a	Yes	2.676	n/a	5.0	GoodResponse	1	0.013	146.685	4	14	Feedback	Win	True
149.122	2.676	Win2	0.9333	n/a	Yes	2.676	n/a	n/a	GoodResponse	1	0.0	n/a	4	14	ISIslide	Win	True
151.821	0.25	Control	0.875	0.0	No	2.979	0.021	n/a	NoResponse	0	n/a	n/a	4	15	Cue	Neutral	True
152.071	4.0	Control	0.875	0.0	No	2.979	0.0	n/a	NoResponse	0	n/a	n/a	4	15	Fixation	Neutral	True
156.07	0.25	Control	0.875	0.001	No	2.979	-0.001	4.0	NoResponse	0	0.267	155.337	4	15	Target	Neutral	True
156.319	0.45	Control	0.875	n/a	No	2.979	n/a	n/a	NoResponse	0	n/a	n/a	4	15	Blank	Neutral	True
156.337	0.3	Control	0.875	0.001	No	2.979	-0.001	4.0	NoResponse	0	0.267	n/a	4	15	ButtonPress	Neutral	True
156.769	1.45	Control	0.875	n/a	No	2.979	n/a	5.0	NoResponse	0	0.038	155.807	4	15	Feedback	Neutral	True
158.219	2.979	Control	0.875	n/a	No	2.979	n/a	n/a	NoResponse	0	0.0	n/a	4	15	ISIslide	Neutral	True
161.218	0.25	Win2	0.8824	0.0	Yes	2.882	0.018	n/a	GoodResponse	1	n/a	n/a	5	16	Cue	Win	True
161.468	4.0	Win2	0.8824	0.0	Yes	2.882	0.0	n/a	GoodResponse	1	n/a	n/a	5	16	Fixation	Win	True
165.466	0.24	Win2	0.8824	0.002	Yes	2.882	-0.002	4.0	GoodResponse	1	0.22	164.686	5	16	Target	Win	True
165.686	0.3	Win2	0.8824	0.002	Yes	2.882	-0.002	4.0	GoodResponse	1	0.22	n/a	5	16	ButtonPress	Win	True
165.716	0.46	Win2	0.8824	n/a	Yes	2.882	n/a	n/a	GoodResponse	1	n/a	n/a	5	16	Blank	Win	True
166.166	1.45	Win2	0.8824	n/a	Yes	2.882	n/a	5.0	GoodResponse	1	0.007	165.173	5	16	Feedback	Win	True
167.616	2.882	Win2	0.8824	n/a	Yes	2.882	n/a	n/a	GoodResponse	1	0.0	n/a	5	16	ISIslide	Win	True
170.514	0.25	Lose2	0.8332999999999999	0.001	No	2.736	0.014	n/a	NoResponse	-1	n/a	n/a	4	17	Cue	Loss	True
170.764	3.95	Lose2	0.8332999999999999	0.001	No	2.736	0.0	n/a	NoResponse	-1	n/a	n/a	4	17	Fixation	Loss	True
174.713	0.23	Lose2	0.8332999999999999	0.001	No	2.736	-0.001	4.0	NoResponse	-1	0.262	173.975	4	17	Target	Loss	True
174.946	0.47	Lose2	0.8332999999999999	n/a	No	2.736	n/a	n/a	NoResponse	-1	n/a	n/a	4	17	Blank	Loss	True
174.975	0.3	Lose2	0.8332999999999999	0.001	No	2.736	-0.001	4.0	NoResponse	-1	0.262	n/a	4	17	ButtonPress	Loss	True
175.413	1.45	Lose2	0.8332999999999999	n/a	No	2.736	n/a	5.0	NoResponse	-1	0.027	174.44	4	17	Feedback	Loss	True
176.862	2.736	Lose2	0.8332999999999999	n/a	No	2.736	n/a	n/a	NoResponse	-1	0.0	n/a	4	17	ISIslide	Loss	True
179.628	0.25	Lose2	0.7895	0.0	No	2.722	0.028	n/a	NoResponse	-1	n/a	n/a	3	18	Cue	Loss	True
179.878	4.05	Lose2	0.7895	0.0	No	2.722	0.0	n/a	NoResponse	-1	n/a	n/a	3	18	Fixation	Loss	True
183.926	0.22	Lose2	0.7895	0.002	No	2.722	-0.002	4.0	NoResponse	-1	0.241	183.167	3	18	Target	Loss	True
184.16	0.48	Lose2	0.7895	n/a	No	2.722	n/a	n/a	NoResponse	-1	n/a	n/a	3	18	Blank	Loss	True
184.167	0.3	Lose2	0.7895	0.002	No	2.722	-0.002	4.0	NoResponse	-1	0.241	n/a	3	18	ButtonPress	Loss	True
184.626	1.45	Lose2	0.7895	n/a	No	2.722	n/a	5.0	NoResponse	-1	0.034	183.66	3	18	Feedback	Loss	True
186.076	2.722	Lose2	0.7895	n/a	No	2.722	n/a	n/a	NoResponse	-1	0.0	n/a	3	18	ISIslide	Loss	True
188.825	0.25	Control	0.75	0.0	No	2.925	0.025	n/a	NoResponse	0	n/a	n/a	3	19	Cue	Neutral	True
189.075	3.95	Control	0.75	0.0	No	2.925	0.0	n/a	NoResponse	0	n/a	n/a	3	19	Fixation	Neutral	True
193.023	0.21	Control	0.75	0.002	No	2.925	-0.002	4.0	NoResponse	0	0.268	192.291	3	19	Target	Neutral	True
193.24	0.49	Control	0.75	n/a	No	2.925	n/a	n/a	NoResponse	0	n/a	n/a	3	19	Blank	Neutral	True
193.291	0.3	Control	0.75	0.002	No	2.925	-0.002	4.0	NoResponse	0	0.268	n/a	3	19	ButtonPress	Neutral	True
193.723	1.45	Control	0.75	n/a	No	2.925	n/a	5.0	NoResponse	0	0.01	192.733	3	19	Feedback	Neutral	True
195.173	2.925	Control	0.75	n/a	No	2.925	n/a	n/a	NoResponse	0	0.0	n/a	3	19	ISIslide	Neutral	True
198.122	0.25	Control	0.7143	0.0	No	2.628	0.022	n/a	NoResponse	0	n/a	n/a	3	20	Cue	Neutral	True
198.371	4.05	Control	0.7143	0.001	No	2.628	-0.001	n/a	NoResponse	0	n/a	n/a	3	20	Fixation	Neutral	True
202.42	0.2	Control	0.7143	0.002	No	2.628	-0.002	4.0	NoResponse	0	0.315	201.735	3	20	Target	Neutral	True
202.62	0.5	Control	0.7143	n/a	No	2.628	n/a	n/a	NoResponse	0	n/a	n/a	3	20	Blank	Neutral	True
202.735	0.3	Control	0.7143	0.002	No	2.628	-0.002	4.0	NoResponse	0	0.315	n/a	3	20	ButtonPress	Neutral	True
203.12	1.45	Control	0.7143	n/a	No	2.628	n/a	5.0	NoResponse	0	0.028	202.148	3	20	Feedback	Neutral	True
204.569	2.628	Control	0.7143	n/a	No	2.628	n/a	n/a	NoResponse	0	0.0	n/a	3	20	ISIslide	Neutral	True
207.218	0.25	Control	0.6818000000000001	0.0	No	2.782	0.018	n/a	NoResponse	0	n/a	n/a	3	21	Cue	Neutral	True
207.468	4.1	Control	0.6818000000000001	0.0	No	2.782	0.0	n/a	NoResponse	0	n/a	n/a	3	21	Fixation	Neutral	True
211.567	0.19	Control	0.6818000000000001	0.001	No	2.782	-0.001	4.0	NoResponse	0	0.261	210.828	3	21	Target	Neutral	True
211.767	0.51	Control	0.6818000000000001	n/a	No	2.782	n/a	n/a	NoResponse	0	n/a	n/a	3	21	Blank	Neutral	True
211.828	0.3	Control	0.6818000000000001	0.001	No	2.782	-0.001	4.0	NoResponse	0	0.261	n/a	3	21	ButtonPress	Neutral	True
212.267	1.45	Control	0.6818000000000001	n/a	No	2.782	n/a	5.0	NoResponse	0	0.006	211.273	3	21	Feedback	Neutral	True
213.716	2.782	Control	0.6818000000000001	n/a	No	2.782	n/a	n/a	NoResponse	0	0.0	n/a	3	21	ISIslide	Neutral	True
216.515	0.25	Control	0.6522	0.0	No	2.785	0.015	n/a	NoResponse	0	n/a	n/a	3	22	Cue	Neutral	True
216.765	4.0	Control	0.6522	0.0	No	2.785	0.0	n/a	NoResponse	0	n/a	n/a	3	22	Fixation	Neutral	True
220.764	0.18	Control	0.6522	0.001	No	2.785	-0.001	4.0	NoResponse	0	0.207	219.971	3	22	Target	Neutral	True
220.947	0.52	Control	0.6522	n/a	No	2.785	n/a	n/a	NoResponse	0	n/a	n/a	3	22	Blank	Neutral	True
220.971	0.3	Control	0.6522	0.001	No	2.785	-0.001	4.0	NoResponse	0	0.207	n/a	3	22	ButtonPress	Neutral	True
221.463	1.45	Control	0.6522	n/a	No	2.785	n/a	5.0	NoResponse	0	0.026	220.489	3	22	Feedback	Neutral	True
222.913	2.785	Control	0.6522	n/a	No	2.785	n/a	n/a	NoResponse	0	0.0	n/a	3	22	ISIslide	Neutral	True
225.729	0.25	Control	0.625	0.0	No	2.771	0.029	n/a	NoResponse	0	n/a	n/a	3	23	Cue	Neutral	True
225.978	3.9	Control	0.625	0.001	No	2.771	-0.001	n/a	NoResponse	0	n/a	n/a	3	23	Fixation	Neutral	True
229.877	0.19	Control	0.625	0.002	No	2.771	-0.002	4.0	NoResponse	0	0.264	229.141	3	23	Target	Neutral	True
230.077	0.51	Control	0.625	n/a	No	2.771	n/a	n/a	NoResponse	0	n/a	n/a	3	23	Blank	Neutral	True
230.141	0.3	Control	0.625	0.002	No	2.771	-0.002	4.0	NoResponse	0	0.264	n/a	3	23	ButtonPress	Neutral	True
230.577	1.45	Control	0.625	n/a	No	2.771	n/a	5.0	NoResponse	0	0.034	229.611	3	23	Feedback	Neutral	True
232.026	2.771	Control	0.625	n/a	No	2.771	n/a	n/a	NoResponse	0	0.0	n/a	3	23	ISIslide	Neutral	True
234.825	0.25	Win2	0.6	0.0	No	3.125	0.025	n/a	NoResponse	0	n/a	n/a	3	24	Cue	MissedWin	True
235.075	3.95	Win2	0.6	0.0	No	3.125	0.0	n/a	NoResponse	0	n/a	n/a	3	24	Fixation	MissedWin	True
239.024	0.2	Win2	0.6	0.001	No	3.125	-0.001	4.0	NoResponse	0	0.209	238.233	3	24	Target	MissedWin	True
239.224	0.5	Win2	0.6	n/a	No	3.125	n/a	n/a	NoResponse	0	n/a	n/a	3	24	Blank	MissedWin	True
239.233	0.3	Win2	0.6	0.001	No	3.125	-0.001	4.0	NoResponse	0	0.209	n/a	3	24	ButtonPress	MissedWin	True
239.724	1.45	Win2	0.6	n/a	No	3.125	n/a	5.0	NoResponse	0	0.009	238.733	3	24	Feedback	MissedWin	True
241.173	3.125	Win2	0.6	n/a	No	3.125	n/a	n/a	NoResponse	0	0.0	n/a	3	24	ISIslide	MissedWin	True
244.322	0.25	Win2	0.5769	0.0	No	3.078	0.022	n/a	LatePress	0	n/a	n/a	3	25	Cue	MissedWin	True
244.572	4.0	Win2	0.5769	0.0	No	3.078	0.0	n/a	LatePress	0	n/a	n/a	3	25	Fixation	MissedWin	True
248.571	0.21	Win2	0.5769	0.001	No	3.078	-0.001	4.0	LatePress	0	0.211	247.782	3	25	Target	MissedWin	True
248.782	0.3	Win2	0.5769	0.001	No	3.078	-0.001	4.0	LatePress	0	0.211	n/a	3	25	ButtonPress	MissedWin	True
248.787	0.49	Win2	0.5769	n/a	No	3.078	n/a	n/a	LatePress	0	n/a	n/a	3	25	Blank	MissedWin	True
249.27	1.45	Win2	0.5769	n/a	No	3.078	n/a	5.0	LatePress	0	0.024	248.294	3	25	Feedback	MissedWin	True
250.72	3.078	Win2	0.5769	n/a	No	3.078	n/a	n/a	LatePress	0	0.0	n/a	3	25	ISIslide	MissedWin	True
253.819	0.25	Win2	0.5926	0.0	Yes	2.931	0.019	n/a	GoodResponse	1	n/a	n/a	4	26	Cue	Win	True
254.069	3.95	Win2	0.5926	0.0	Yes	2.931	0.0	n/a	GoodResponse	1	n/a	n/a	4	26	Fixation	Win	True
258.017	0.22	Win2	0.5926	0.002	Yes	2.931	-0.002	4.0	GoodResponse	1	0.207	257.224	4	26	Target	Win	True
258.224	0.3	Win2	0.5926	0.002	Yes	2.931	-0.002	4.0	GoodResponse	1	0.207	n/a	4	26	ButtonPress	Win	True
258.251	0.48	Win2	0.5926	n/a	Yes	2.931	n/a	n/a	GoodResponse	1	n/a	n/a	4	26	Blank	Win	True
258.717	1.45	Win2	0.5926	n/a	Yes	2.931	n/a	5.0	GoodResponse	1	0.04	257.757	4	26	Feedback	Win	True
260.167	2.931	Win2	0.5926	n/a	Yes	2.931	n/a	n/a	GoodResponse	1	0.0	n/a	4	26	ISIslide	Win	True
263.116	0.25	Lose2	0.5714	0.0	No	2.834	0.016	n/a	NoResponse	-1	n/a	n/a	3	27	Cue	Loss	True
263.365	4.05	Lose2	0.5714	0.001	No	2.834	-0.001	n/a	NoResponse	-1	n/a	n/a	3	27	Fixation	Loss	True
267.414	0.23	Lose2	0.5714	0.002	No	2.834	-0.002	4.0	NoResponse	-1	0.247	266.661	3	27	Target	Loss	True
267.647	0.47	Lose2	0.5714	n/a	No	2.834	n/a	n/a	NoResponse	-1	n/a	n/a	3	27	Blank	Loss	True
267.661	0.3	Lose2	0.5714	0.002	No	2.834	-0.002	4.0	NoResponse	-1	0.247	n/a	3	27	ButtonPress	Loss	True
268.114	1.45	Lose2	0.5714	n/a	No	2.834	n/a	5.0	NoResponse	-1	0.008	267.122	3	27	Feedback	Loss	True
269.563	2.834	Lose2	0.5714	n/a	No	2.834	n/a	n/a	NoResponse	-1	0.0	n/a	3	27	ISIslide	Loss	True
272.429	0.25	Control	0.5517	0.0	No	2.821	0.029	n/a	NoResponse	0	n/a	n/a	3	28	Cue	Neutral	True
272.679	4.05	Control	0.5517	0.0	No	2.821	0.0	n/a	NoResponse	0	n/a	n/a	3	28	Fixation	Neutral	True
276.727	0.24	Control	0.5517	0.002	No	2.821	-0.002	4.0	NoResponse	0	0.258	275.985	3	28	Target	Neutral	True
276.977	0.46	Control	0.5517	n/a	No	2.821	n/a	n/a	NoResponse	0	n/a	n/a	3	28	Blank	Neutral	True
276.985	0.3	Control	0.5517	0.002	No	2.821	-0.002	4.0	NoResponse	0	0.258	n/a	3	28	ButtonPress	Neutral	True
277.427	1.45	Control	0.5517	n/a	No	2.821	n/a	5.0	NoResponse	0	0.013	276.44	3	28	Feedback	Neutral	True
278.877	2.821	Control	0.5517	n/a	No	2.821	n/a	n/a	NoResponse	0	0.0	n/a	3	28	ISIslide	Neutral	True
281.726	0.25	Lose2	0.5333	0.0	No	2.824	0.026	n/a	NoResponse	-1	n/a	n/a	2	29	Cue	Loss	True
281.976	3.95	Lose2	0.5333	0.0	No	2.824	0.0	n/a	NoResponse	-1	n/a	n/a	2	29	Fixation	Loss	True
285.924	0.25	Lose2	0.5333	0.002	No	2.824	-0.002	4.0	NoResponse	-1	0.28	285.204	2	29	Target	Loss	True
286.174	0.45	Lose2	0.5333	n/a	No	2.824	n/a	n/a	NoResponse	-1	n/a	n/a	2	29	Blank	Loss	True
286.204	0.3	Lose2	0.5333	0.002	No	2.824	-0.002	4.0	NoResponse	-1	0.28	n/a	2	29	ButtonPress	Loss	True
286.624	1.45	Lose2	0.5333	n/a	No	2.824	n/a	5.0	NoResponse	-1	0.035	285.659	2	29	Feedback	Loss	True
288.073	2.824	Lose2	0.5333	n/a	No	2.824	n/a	n/a	NoResponse	-1	0.0	n/a	2	29	ISIslide	Loss	True
290.922	0.25	Win2	0.5484	0.001	Yes	2.778	0.022	n/a	GoodResponse	1	n/a	n/a	3	30	Cue	Win	True
291.172	3.9	Win2	0.5484	0.001	Yes	2.778	0.0	n/a	GoodResponse	1	n/a	n/a	3	30	Fixation	Win	True
295.071	0.26	Win2	0.5484	0.001	Yes	2.778	-0.001	4.0	GoodResponse	1	0.232	294.303	3	30	Target	Win	True
295.303	0.3	Win2	0.5484	0.001	Yes	2.778	-0.001	4.0	GoodResponse	1	0.232	n/a	3	30	ButtonPress	Win	True
295.338	0.44	Win2	0.5484	n/a	Yes	2.778	n/a	n/a	GoodResponse	1	n/a	n/a	3	30	Blank	Win	True
295.771	1.45	Win2	0.5484	n/a	Yes	2.778	n/a	5.0	GoodResponse	1	0.01	294.781	3	30	Feedback	Win	True
297.22	2.778	Win2	0.5484	n/a	Yes	2.778	n/a	n/a	GoodResponse	1	0.0	n/a	3	30	ISIslide	Win	True
300.019	0.25	Lose2	0.5312	0.0	No	2.831	0.019	n/a	NoResponse	-1	n/a	n/a	2	31	Cue	Loss	False
300.269	4.05	Lose2	0.5312	0.0	No	2.831	0.0	4.0	NoResponse	-1	2.77	302.039	2	31	Fixation	Loss	False
303.039	0.3	Lose2	0.5312	0.0	No	2.831	0.0	4.0	NoResponse	-1	2.77	n/a	2	31	ButtonPress	Loss	False
304.318	0.27	Lose2	0.5312	0.001	No	2.831	-0.001	4.0	NoResponse	-1	0.284	303.602	2	31	Target	Loss	False
304.584	0.43	Lose2	0.5312	n/a	No	2.831	n/a	n/a	NoResponse	-1	n/a	n/a	2	31	Blank	Loss	False
304.602	0.3	Lose2	0.5312	0.001	No	2.831	-0.001	4.0	NoResponse	-1	0.284	n/a	2	31	ButtonPress	Loss	False
305.018	1.45	Lose2	0.5312	n/a	No	2.831	n/a	5.0	NoResponse	-1	0.032	304.05	2	31	Feedback	Loss	False
306.467	2.831	Lose2	0.5312	n/a	No	2.831	n/a	n/a	NoResponse	-1	0.0	n/a	2	31	ISIslide	Loss	False
309.316	0.25	Lose2	0.5152	0.0	No	2.634	0.016	n/a	NoResponse	-1	n/a	n/a	1	32	Cue	Loss	True
309.566	4.15	Lose2	0.5152	0.0	No	2.634	0.0	n/a	NoResponse	-1	n/a	n/a	1	32	Fixation	Loss	True
313.715	0.28	Lose2	0.5152	0.001	No	2.634	-0.001	4.0	NoResponse	-1	0.291	313.006	1	32	Target	Loss	True
313.998	0.42	Lose2	0.5152	n/a	No	2.634	n/a	n/a	NoResponse	-1	n/a	n/a	1	32	Blank	Loss	True
314.006	0.3	Lose2	0.5152	0.001	No	2.634	-0.001	4.0	NoResponse	-1	0.291	n/a	1	32	ButtonPress	Loss	True
314.414	1.45	Lose2	0.5152	n/a	No	2.634	n/a	5.0	NoResponse	-1	0.002	313.416	1	32	Feedback	Loss	True
315.864	2.634	Lose2	0.5152	n/a	No	2.634	n/a	n/a	NoResponse	-1	0.0	n/a	1	32	ISIslide	Loss	True
318.513	0.25	Win2	0.5294	0.0	Yes	2.687	0.013	n/a	GoodResponse	1	n/a	n/a	2	33	Cue	Win	True
318.763	4.0	Win2	0.5294	0.0	Yes	2.687	0.0	n/a	GoodResponse	1	n/a	n/a	2	33	Fixation	Win	True
322.761	0.29	Win2	0.5294	0.002	Yes	2.687	-0.002	4.0	GoodResponse	1	0.223	321.984	2	33	Target	Win	True
322.984	0.3	Win2	0.5294	0.002	Yes	2.687	-0.002	4.0	GoodResponse	1	0.223	n/a	2	33	ButtonPress	Win	True
323.061	0.41	Win2	0.5294	n/a	Yes	2.687	n/a	n/a	GoodResponse	1	n/a	n/a	2	33	Blank	Win	True
323.461	1.45	Win2	0.5294	n/a	Yes	2.687	n/a	5.0	GoodResponse	1	0.027	322.488	2	33	Feedback	Win	True
324.911	2.687	Win2	0.5294	n/a	Yes	2.687	n/a	n/a	GoodResponse	1	0.0	n/a	2	33	ISIslide	Win	True
327.626	0.25	Lose2	0.5428999999999999	0.0	Yes	2.624	0.026	n/a	GoodResponse	0	n/a	n/a	2	34	Cue	AvoidedLoss	True
327.876	4.05	Lose2	0.5428999999999999	0.0	Yes	2.624	0.0	n/a	GoodResponse	0	n/a	n/a	2	34	Fixation	AvoidedLoss	True
331.925	0.3	Lose2	0.5428999999999999	0.001	Yes	2.624	-0.001	4.0	GoodResponse	0	0.248	331.173	2	34	Target	AvoidedLoss	True
332.173	0.3	Lose2	0.5428999999999999	0.001	Yes	2.624	-0.001	4.0	GoodResponse	0	0.248	n/a	2	34	ButtonPress	AvoidedLoss	True
332.225	0.4	Lose2	0.5428999999999999	n/a	Yes	2.624	n/a	n/a	GoodResponse	0	n/a	n/a	2	34	Blank	AvoidedLoss	True
332.625	1.45	Lose2	0.5428999999999999	n/a	Yes	2.624	n/a	5.0	GoodResponse	0	0.034	331.659	2	34	Feedback	AvoidedLoss	True
334.074	2.624	Lose2	0.5428999999999999	n/a	Yes	2.624	n/a	n/a	GoodResponse	0	0.0	n/a	2	34	ISIslide	AvoidedLoss	True
336.723	0.25	Lose2	0.5556	0.0	Yes	2.677	0.023	n/a	GoodResponse	0	n/a	n/a	2	35	Cue	AvoidedLoss	True
336.973	4.0	Lose2	0.5556	0.0	Yes	2.677	0.0	n/a	GoodResponse	0	n/a	n/a	2	35	Fixation	AvoidedLoss	True
340.972	0.31	Lose2	0.5556	0.001	Yes	2.677	-0.001	4.0	GoodResponse	0	0.236	340.208	2	35	Target	AvoidedLoss	True
341.208	0.3	Lose2	0.5556	0.001	Yes	2.677	-0.001	4.0	GoodResponse	0	0.236	n/a	2	35	ButtonPress	AvoidedLoss	True
341.288	0.39	Lose2	0.5556	n/a	Yes	2.677	n/a	n/a	GoodResponse	0	n/a	n/a	2	35	Blank	AvoidedLoss	True
341.671	1.45	Lose2	0.5556	n/a	Yes	2.677	n/a	5.0	GoodResponse	0	0.012	340.683	2	35	Feedback	AvoidedLoss	True
343.121	2.677	Lose2	0.5556	n/a	Yes	2.677	n/a	n/a	GoodResponse	0	0.0	n/a	2	35	ISIslide	AvoidedLoss	True
345.82	0.25	Control	0.5405	0.0	No	2.68	0.02	n/a	NoResponse	0	n/a	n/a	2	36	Cue	Neutral	True
346.07	4.0	Control	0.5405	0.0	No	2.68	0.0	n/a	NoResponse	0	n/a	n/a	2	36	Fixation	Neutral	True
350.069	0.32	Control	0.5405	0.001	No	2.68	-0.001	4.0	NoResponse	0	0.44	349.509	2	36	Target	Neutral	True
350.402	0.38	Control	0.5405	n/a	No	2.68	n/a	n/a	NoResponse	0	n/a	n/a	2	36	Blank	Neutral	True
350.509	0.3	Control	0.5405	0.001	No	2.68	-0.001	4.0	NoResponse	0	0.44	n/a	2	36	ButtonPress	Neutral	True
350.768	1.45	Control	0.5405	n/a	No	2.68	n/a	5.0	NoResponse	0	0.037	349.805	2	36	Feedback	Neutral	True
352.218	2.68	Control	0.5405	n/a	No	2.68	n/a	n/a	NoResponse	0	0.0	n/a	2	36	ISIslide	Neutral	True
354.917	0.25	Win2	0.5526	0.0	Yes	2.883	0.017	n/a	GoodResponse	1	n/a	n/a	3	37	Cue	Win	True
355.167	4.0	Win2	0.5526	0.0	Yes	2.883	0.0	n/a	GoodResponse	1	n/a	n/a	3	37	Fixation	Win	True
359.165	0.33	Win2	0.5526	0.002	Yes	2.883	-0.002	4.0	GoodResponse	1	0.222	358.387	3	37	Target	Win	True
359.387	0.3	Win2	0.5526	0.002	Yes	2.883	-0.002	4.0	GoodResponse	1	0.222	n/a	3	37	ButtonPress	Win	True
359.499	0.37	Win2	0.5526	n/a	Yes	2.883	n/a	n/a	GoodResponse	1	n/a	n/a	3	37	Blank	Win	True
359.865	1.45	Win2	0.5526	n/a	Yes	2.883	n/a	5.0	GoodResponse	1	0.014	358.879	3	37	Feedback	Win	True
361.315	2.883	Win2	0.5526	n/a	Yes	2.883	n/a	n/a	GoodResponse	1	0.0	n/a	3	37	ISIslide	Win	True
364.214	0.25	Lose2	0.5640999999999999	0.0	Yes	2.836	0.014	n/a	GoodResponse	0	n/a	n/a	3	38	Cue	AvoidedLoss	True
364.464	3.95	Lose2	0.5640999999999999	0.0	Yes	2.836	0.0	n/a	GoodResponse	0	n/a	n/a	3	38	Fixation	AvoidedLoss	True
368.412	0.34	Lose2	0.5640999999999999	0.002	Yes	2.836	-0.002	4.0	GoodResponse	0	0.237	367.649	3	38	Target	AvoidedLoss	True
368.649	0.3	Lose2	0.5640999999999999	0.002	Yes	2.836	-0.002	4.0	GoodResponse	0	0.237	n/a	3	38	ButtonPress	AvoidedLoss	True
368.762	0.36	Lose2	0.5640999999999999	n/a	Yes	2.836	n/a	n/a	GoodResponse	0	n/a	n/a	3	38	Blank	AvoidedLoss	True
369.112	1.45	Lose2	0.5640999999999999	n/a	Yes	2.836	n/a	5.0	GoodResponse	0	0.034	368.146	3	38	Feedback	AvoidedLoss	True
370.561	2.836	Lose2	0.5640999999999999	n/a	Yes	2.836	n/a	n/a	GoodResponse	0	0.0	n/a	3	38	ISIslide	AvoidedLoss	True
373.427	0.25	Win2	0.575	0.0	Yes	2.973	0.027	n/a	GoodResponse	1	n/a	n/a	4	39	Cue	Win	True
373.677	4.1	Win2	0.575	0.0	Yes	2.973	0.0	n/a	GoodResponse	1	n/a	n/a	4	39	Fixation	Win	True
377.776	0.35	Win2	0.575	0.001	Yes	2.973	-0.001	4.0	GoodResponse	1	0.258	377.034	4	39	Target	Win	True
378.034	0.3	Win2	0.575	0.001	Yes	2.973	-0.001	4.0	GoodResponse	1	0.258	n/a	4	39	ButtonPress	Win	True
378.125	0.35	Win2	0.575	n/a	Yes	2.973	n/a	n/a	GoodResponse	1	n/a	n/a	4	39	Blank	Win	True
378.475	1.45	Win2	0.575	n/a	Yes	2.973	n/a	5.0	GoodResponse	1	0.037	377.512	4	39	Feedback	Win	True
379.925	2.973	Win2	0.575	n/a	Yes	2.973	n/a	n/a	GoodResponse	1	0.0	n/a	4	39	ISIslide	Win	True
382.924	0.25	Win2	0.5854	0.0	Yes	2.726	0.024	n/a	GoodResponse	1	n/a	n/a	5	40	Cue	Win	True
383.174	3.95	Win2	0.5854	0.0	Yes	2.726	0.0	n/a	GoodResponse	1	n/a	n/a	5	40	Fixation	Win	True
387.122	0.36	Win2	0.5854	0.002	Yes	2.726	-0.002	4.0	GoodResponse	1	0.224	386.346	5	40	Target	Win	True
387.346	0.3	Win2	0.5854	0.002	Yes	2.726	-0.002	4.0	GoodResponse	1	0.224	n/a	5	40	ButtonPress	Win	True
387.489	0.34	Win2	0.5854	n/a	Yes	2.726	n/a	n/a	GoodResponse	1	n/a	n/a	5	40	Blank	Win	True
387.822	1.45	Win2	0.5854	n/a	Yes	2.726	n/a	5.0	GoodResponse	1	0.007	386.829	5	40	Feedback	Win	True
389.272	2.726	Win2	0.5854	n/a	Yes	2.726	n/a	n/a	GoodResponse	1	0.0	n/a	5	40	ISIslide	Win	True
392.021	0.25	Win2	0.5952000000000001	0.0	Yes	2.779	0.021	n/a	GoodResponse	1	n/a	n/a	6	41	Cue	Win	True
392.27	3.9	Win2	0.5952000000000001	0.001	Yes	2.779	-0.001	n/a	GoodResponse	1	n/a	n/a	6	41	Fixation	Win	True
396.169	0.37	Win2	0.5952000000000001	0.002	Yes	2.779	-0.002	4.0	GoodResponse	1	0.261	395.43	6	41	Target	Win	True
396.43	0.3	Win2	0.5952000000000001	0.002	Yes	2.779	-0.002	4.0	GoodResponse	1	0.261	n/a	6	41	ButtonPress	Win	True
396.552	0.33	Win2	0.5952000000000001	n/a	Yes	2.779	n/a	n/a	GoodResponse	1	n/a	n/a	6	41	Blank	Win	True
396.869	1.45	Win2	0.5952000000000001	n/a	Yes	2.779	n/a	5.0	GoodResponse	1	0.034	395.903	6	41	Feedback	Win	True
398.318	2.779	Win2	0.5952000000000001	n/a	Yes	2.779	n/a	n/a	GoodResponse	1	0.0	n/a	6	41	ISIslide	Win	True
401.117	0.25	Control	0.6047	0.0	Yes	2.933	0.017	n/a	GoodResponse	0	n/a	n/a	6	42	Cue	Neutral	True
401.367	3.85	Control	0.6047	0.0	Yes	2.933	0.0	n/a	GoodResponse	0	n/a	n/a	6	42	Fixation	Neutral	True
405.216	0.38	Control	0.6047	0.001	Yes	2.933	-0.001	4.0	GoodResponse	0	0.259	404.475	6	42	Target	Neutral	True
405.475	0.3	Control	0.6047	0.001	Yes	2.933	-0.001	4.0	GoodResponse	0	0.259	n/a	6	42	ButtonPress	Neutral	True
405.599	0.32	Control	0.6047	n/a	Yes	2.933	n/a	n/a	GoodResponse	0	n/a	n/a	6	42	Blank	Neutral	True
405.916	1.45	Control	0.6047	n/a	Yes	2.933	n/a	5.0	GoodResponse	0	0.011	404.927	6	42	Feedback	Neutral	True
407.365	2.933	Control	0.6047	n/a	Yes	2.933	n/a	n/a	GoodResponse	0	0.0	n/a	6	42	ISIslide	Neutral	True
410.314	0.25	Win2	0.6136	0.0	Yes	3.186	0.014	n/a	GoodResponse	1	n/a	n/a	7	43	Cue	Win	True
410.564	4.0	Win2	0.6136	0.0	Yes	3.186	0.0	n/a	GoodResponse	1	n/a	n/a	7	43	Fixation	Win	True
414.563	0.39	Win2	0.6136	0.001	Yes	3.186	-0.001	4.0	GoodResponse	1	0.222	413.785	7	43	Target	Win	True
414.785	0.3	Win2	0.6136	0.001	Yes	3.186	-0.001	4.0	GoodResponse	1	0.222	n/a	7	43	ButtonPress	Win	True
414.963	0.31	Win2	0.6136	n/a	Yes	3.186	n/a	n/a	GoodResponse	1	n/a	n/a	7	43	Blank	Win	True
415.262	1.45	Win2	0.6136	n/a	Yes	3.186	n/a	5.0	GoodResponse	1	0.031	414.293	7	43	Feedback	Win	True
416.712	3.186	Win2	0.6136	n/a	Yes	3.186	n/a	n/a	GoodResponse	1	0.0	n/a	7	43	ISIslide	Win	True
419.927	0.25	Win2	0.6222	0.001	Yes	2.973	0.027	n/a	GoodResponse	1	n/a	n/a	8	44	Cue	Win	True
420.177	4.0	Win2	0.6222	0.001	Yes	2.973	0.0	n/a	GoodResponse	1	n/a	n/a	8	44	Fixation	Win	True
424.176	0.4	Win2	0.6222	0.001	Yes	2.973	-0.001	4.0	GoodResponse	1	0.229	423.405	8	44	Target	Win	True
424.405	0.3	Win2	0.6222	0.001	Yes	2.973	-0.001	4.0	GoodResponse	1	0.229	n/a	8	44	ButtonPress	Win	True
424.576	0.3	Win2	0.6222	n/a	Yes	2.973	n/a	n/a	GoodResponse	1	n/a	n/a	8	44	Blank	Win	True
424.876	1.45	Win2	0.6222	n/a	Yes	2.973	n/a	5.0	GoodResponse	1	0.026	423.902	8	44	Feedback	Win	True
426.325	2.973	Win2	0.6222	n/a	Yes	2.973	n/a	n/a	GoodResponse	1	0.0	n/a	8	44	ISIslide	Win	True
429.324	0.25	Control	0.6304	0.0	Yes	2.876	0.024	n/a	GoodResponse	0	n/a	n/a	8	45	Cue	Neutral	True
429.574	4.1	Control	0.6304	0.0	Yes	2.876	0.0	n/a	GoodResponse	0	n/a	n/a	8	45	Fixation	Neutral	True
433.673	0.41	Control	0.6304	0.001	Yes	2.876	-0.001	4.0	GoodResponse	0	0.239	432.912	8	45	Target	Neutral	True
433.912	0.3	Control	0.6304	0.001	Yes	2.876	-0.001	4.0	GoodResponse	0	0.239	n/a	8	45	ButtonPress	Neutral	True
434.089	0.29	Control	0.6304	n/a	Yes	2.876	n/a	n/a	GoodResponse	0	n/a	n/a	8	45	Blank	Neutral	True
434.372	1.45	Control	0.6304	n/a	Yes	2.876	n/a	5.0	GoodResponse	0	0.042	433.414	8	45	Feedback	Neutral	True
435.822	2.876	Control	0.6304	n/a	Yes	2.876	n/a	n/a	GoodResponse	0	0.0	n/a	8	45	ISIslide	Neutral	True
438.721	0.25	Lose2	0.6383	0.0	Yes	3.379	0.021	n/a	GoodResponse	0	n/a	n/a	8	46	Cue	AvoidedLoss	True
438.971	4.0	Lose2	0.6383	0.0	Yes	3.379	0.0	n/a	GoodResponse	0	n/a	n/a	8	46	Fixation	AvoidedLoss	True
442.969	0.42	Lose2	0.6383	0.002	Yes	3.379	-0.002	4.0	GoodResponse	0	0.234	442.203	8	46	Target	AvoidedLoss	True
443.203	0.3	Lose2	0.6383	0.002	Yes	3.379	-0.002	4.0	GoodResponse	0	0.234	n/a	8	46	ButtonPress	AvoidedLoss	True
443.403	0.28	Lose2	0.6383	n/a	Yes	3.379	n/a	n/a	GoodResponse	0	n/a	n/a	8	46	Blank	AvoidedLoss	True
443.669	1.45	Lose2	0.6383	n/a	Yes	3.379	n/a	5.0	GoodResponse	0	0.014	442.683	8	46	Feedback	AvoidedLoss	True
445.119	3.379	Lose2	0.6383	n/a	Yes	3.379	n/a	n/a	GoodResponse	0	0.0	n/a	8	46	ISIslide	AvoidedLoss	True
448.518	0.25	Lose2	0.6457999999999999	0.0	Yes	2.682	0.018	n/a	GoodResponse	0	n/a	n/a	8	47	Cue	AvoidedLoss	True
448.767	4.0	Lose2	0.6457999999999999	0.001	Yes	2.682	-0.001	n/a	GoodResponse	0	n/a	n/a	8	47	Fixation	AvoidedLoss	True
452.766	0.43	Lose2	0.6457999999999999	0.002	Yes	2.682	-0.002	4.0	GoodResponse	0	0.24	452.006	8	47	Target	AvoidedLoss	True
453.006	0.3	Lose2	0.6457999999999999	0.002	Yes	2.682	-0.002	4.0	GoodResponse	0	0.24	n/a	8	47	ButtonPress	AvoidedLoss	True
453.199	0.27	Lose2	0.6457999999999999	n/a	Yes	2.682	n/a	n/a	GoodResponse	0	n/a	n/a	8	47	Blank	AvoidedLoss	True
453.466	1.45	Lose2	0.6457999999999999	n/a	Yes	2.682	n/a	5.0	GoodResponse	0	0.022	452.488	8	47	Feedback	AvoidedLoss	True
454.915	2.682	Lose2	0.6457999999999999	n/a	Yes	2.682	n/a	n/a	GoodResponse	0	0.0	n/a	8	47	ISIslide	AvoidedLoss	True
457.614	0.25	Lose2	0.6531	0.0	Yes	3.036	0.014	n/a	GoodResponse	0	n/a	n/a	8	48	Cue	AvoidedLoss	True
457.864	3.95	Lose2	0.6531	0.0	Yes	3.036	0.0	n/a	GoodResponse	0	n/a	n/a	8	48	Fixation	AvoidedLoss	True
461.813	0.44	Lose2	0.6531	0.001	Yes	3.036	-0.001	4.0	GoodResponse	0	0.198	461.011	8	48	Target	AvoidedLoss	True
462.011	0.3	Lose2	0.6531	0.001	Yes	3.036	-0.001	4.0	GoodResponse	0	0.198	n/a	8	48	ButtonPress	AvoidedLoss	True
462.263	0.26	Lose2	0.6531	n/a	Yes	3.036	n/a	n/a	GoodResponse	0	n/a	n/a	8	48	Blank	AvoidedLoss	True
462.513	1.45	Lose2	0.6531	n/a	Yes	3.036	n/a	5.0	GoodResponse	0	0.048	461.561	8	48	Feedback	AvoidedLoss	True
463.962	3.036	Lose2	0.6531	n/a	Yes	3.036	n/a	n/a	GoodResponse	0	0.0	n/a	8	48	ISIslide	AvoidedLoss	True
467.028	0.25	Control	0.66	0.0	Yes	2.872	0.028	n/a	GoodResponse	0	n/a	n/a	8	49	Cue	Neutral	True
467.278	4.0	Control	0.66	0.0	Yes	2.872	0.0	n/a	GoodResponse	0	n/a	n/a	8	49	Fixation	Neutral	True
471.276	0.45	Control	0.66	0.002	Yes	2.872	-0.002	4.0	GoodResponse	0	0.243	470.519	8	49	Target	Neutral	True
471.519	0.3	Control	0.66	0.002	Yes	2.872	-0.002	4.0	GoodResponse	0	0.243	n/a	8	49	ButtonPress	Neutral	True
471.726	0.25	Control	0.66	n/a	Yes	2.872	n/a	n/a	GoodResponse	0	n/a	n/a	8	49	Blank	Neutral	True
471.976	1.45	Control	0.66	n/a	Yes	2.872	n/a	5.0	GoodResponse	0	0.048	471.024	8	49	Feedback	Neutral	True
473.425	2.872	Control	0.66	n/a	Yes	2.872	n/a	n/a	GoodResponse	0	0.0	n/a	8	49	ISIslide	Neutral	True
476.324	0.25	Control	0.6667000000000001	0.001	Yes	2.776	0.024	n/a	GoodResponse	0	n/a	n/a	8	50	Cue	Neutral	True
476.574	4.0	Control	0.6667000000000001	0.0	Yes	2.776	0.0	n/a	GoodResponse	0	n/a	n/a	8	50	Fixation	Neutral	True
480.573	0.45	Control	0.6667000000000001	0.001	Yes	2.776	-0.001	4.0	GoodResponse	0	0.236	479.809	8	50	Target	Neutral	True
480.809	0.3	Control	0.6667000000000001	0.001	Yes	2.776	-0.001	4.0	GoodResponse	0	0.236	n/a	8	50	ButtonPress	Neutral	True
481.023	0.25	Control	0.6667000000000001	n/a	Yes	2.776	n/a	n/a	GoodResponse	0	n/a	n/a	8	50	Blank	Neutral	True
481.273	1.45	Control	0.6667000000000001	n/a	Yes	2.776	n/a	5.0	GoodResponse	0	0.019	480.292	8	50	Feedback	Neutral	True
482.722	2.776	Control	0.6667000000000001	n/a	Yes	2.776	n/a	n/a	GoodResponse	0	0.0	n/a	8	50	ISIslide	Neutral	True
485.521	0.25	Control	0.6731	0.0	Yes	2.729	0.021	n/a	GoodResponse	0	n/a	n/a	8	51	Cue	Neutral	True
485.771	3.95	Control	0.6731	0.0	Yes	2.729	0.0	n/a	GoodResponse	0	n/a	n/a	8	51	Fixation	Neutral	True
489.72	0.44	Control	0.6731	0.001	Yes	2.729	-0.001	4.0	GoodResponse	0	0.213	488.933	8	51	Target	Neutral	True
489.933	0.3	Control	0.6731	0.001	Yes	2.729	-0.001	4.0	GoodResponse	0	0.213	n/a	8	51	ButtonPress	Neutral	True
490.17	0.26	Control	0.6731	n/a	Yes	2.729	n/a	n/a	GoodResponse	0	n/a	n/a	8	51	Blank	Neutral	True
490.42	1.45	Control	0.6731	n/a	Yes	2.729	n/a	5.0	GoodResponse	0	0.043	489.463	8	51	Feedback	Neutral	True
491.869	2.729	Control	0.6731	n/a	Yes	2.729	n/a	n/a	GoodResponse	0	0.0	n/a	8	51	ISIslide	Neutral	True
494.618	0.25	Control	0.6792	0.0	Yes	2.632	0.018	n/a	GoodResponse	0	n/a	n/a	8	52	Cue	Neutral	True
494.868	4.05	Control	0.6792	0.0	Yes	2.632	0.0	n/a	GoodResponse	0	n/a	n/a	8	52	Fixation	Neutral	True
498.917	0.43	Control	0.6792	0.001	Yes	2.632	-0.001	4.0	GoodResponse	0	0.227	498.144	8	52	Target	Neutral	True
499.144	0.3	Control	0.6792	0.001	Yes	2.632	-0.001	4.0	GoodResponse	0	0.227	n/a	8	52	ButtonPress	Neutral	True
499.35	0.27	Control	0.6792	n/a	Yes	2.632	n/a	n/a	GoodResponse	0	n/a	n/a	8	52	Blank	Neutral	True
499.616	1.45	Control	0.6792	n/a	Yes	2.632	n/a	5.0	GoodResponse	0	0.018	498.634	8	52	Feedback	Neutral	True
501.066	2.632	Control	0.6792	n/a	Yes	2.632	n/a	n/a	GoodResponse	0	0.0	n/a	8	52	ISIslide	Neutral	True
503.715	0.25	Win2	0.6851999999999999	0.0	Yes	2.935	0.015	n/a	GoodResponse	1	n/a	n/a	9	53	Cue	Win	True
503.965	4.05	Win2	0.6851999999999999	0.0	Yes	2.935	0.0	n/a	GoodResponse	1	n/a	n/a	9	53	Fixation	Win	True
508.013	0.42	Win2	0.6851999999999999	0.002	Yes	2.935	-0.002	4.0	GoodResponse	1	0.225	507.238	9	53	Target	Win	True
508.238	0.3	Win2	0.6851999999999999	0.002	Yes	2.935	-0.002	4.0	GoodResponse	1	0.225	n/a	9	53	ButtonPress	Win	True
508.447	0.28	Win2	0.6851999999999999	n/a	Yes	2.935	n/a	n/a	GoodResponse	1	n/a	n/a	9	53	Blank	Win	True
508.713	1.45	Win2	0.6851999999999999	n/a	Yes	2.935	n/a	5.0	GoodResponse	1	0.043	507.756	9	53	Feedback	Win	True
510.163	2.935	Win2	0.6851999999999999	n/a	Yes	2.935	n/a	n/a	GoodResponse	1	0.0	n/a	9	53	ISIslide	Win	True
513.128	0.25	Win2	0.6909000000000001	0.0	Yes	2.722	0.028	n/a	GoodResponse	1	n/a	n/a	10	54	Cue	Win	True
513.378	3.95	Win2	0.6909000000000001	0.0	Yes	2.722	0.0	n/a	GoodResponse	1	n/a	n/a	10	54	Fixation	Win	True
517.327	0.41	Win2	0.6909000000000001	0.001	Yes	2.722	-0.001	4.0	GoodResponse	1	0.218	516.545	10	54	Target	Win	True
517.545	0.3	Win2	0.6909000000000001	0.001	Yes	2.722	-0.001	4.0	GoodResponse	1	0.218	n/a	10	54	ButtonPress	Win	True
517.743	0.29	Win2	0.6909000000000001	n/a	Yes	2.722	n/a	n/a	GoodResponse	1	n/a	n/a	10	54	Blank	Win	True
518.027	1.45	Win2	0.6909000000000001	n/a	Yes	2.722	n/a	5.0	GoodResponse	1	0.046	517.073	10	54	Feedback	Win	True
519.476	2.722	Win2	0.6909000000000001	n/a	Yes	2.722	n/a	n/a	GoodResponse	1	0.0	n/a	10	54	ISIslide	Win	True
522.225	0.25	Control	0.6964	0.0	Yes	3.025	0.025	n/a	GoodResponse	0	n/a	n/a	10	55	Cue	Neutral	True
522.475	3.95	Control	0.6964	0.0	Yes	3.025	0.0	n/a	GoodResponse	0	n/a	n/a	10	55	Fixation	Neutral	True
526.424	0.4	Control	0.6964	0.001	Yes	3.025	-0.001	4.0	GoodResponse	0	0.259	525.683	10	55	Target	Neutral	True
526.683	0.3	Control	0.6964	0.001	Yes	3.025	-0.001	4.0	GoodResponse	0	0.259	n/a	10	55	ButtonPress	Neutral	True
526.824	0.3	Control	0.6964	n/a	Yes	3.025	n/a	n/a	GoodResponse	0	n/a	n/a	10	55	Blank	Neutral	True
527.123	1.45	Control	0.6964	n/a	Yes	3.025	n/a	5.0	GoodResponse	0	0.022	526.145	10	55	Feedback	Neutral	True
528.573	3.025	Control	0.6964	n/a	Yes	3.025	n/a	n/a	GoodResponse	0	0.0	n/a	10	55	ISIslide	Neutral	True
531.622	0.25	Control	0.7018000000000001	0.0	Yes	2.828	0.022	n/a	GoodResponse	0	n/a	n/a	10	56	Cue	Neutral	True
531.872	3.95	Control	0.7018000000000001	0.0	Yes	2.828	0.0	n/a	GoodResponse	0	n/a	n/a	10	56	Fixation	Neutral	True
535.82	0.39	Control	0.7018000000000001	0.002	Yes	2.828	-0.002	4.0	GoodResponse	0	0.234	535.054	10	56	Target	Neutral	True
536.054	0.3	Control	0.7018000000000001	0.002	Yes	2.828	-0.002	4.0	GoodResponse	0	0.234	n/a	10	56	ButtonPress	Neutral	True
536.22	0.31	Control	0.7018000000000001	n/a	Yes	2.828	n/a	n/a	GoodResponse	0	n/a	n/a	10	56	Blank	Neutral	True
536.52	1.45	Control	0.7018000000000001	n/a	Yes	2.828	n/a	5.0	GoodResponse	0	0.04	535.56	10	56	Feedback	Neutral	True
537.97	2.828	Control	0.7018000000000001	n/a	Yes	2.828	n/a	n/a	GoodResponse	0	0.0	n/a	10	56	ISIslide	Neutral	True
540.819	0.25	Control	0.7069	0.0	Yes	3.481	0.019	n/a	GoodResponse	0	n/a	n/a	10	57	Cue	Neutral	True
541.069	4.0	Control	0.7069	0.0	Yes	3.481	0.0	n/a	GoodResponse	0	n/a	n/a	10	57	Fixation	Neutral	True
545.067	0.38	Control	0.7069	0.002	Yes	3.481	-0.002	4.0	GoodResponse	0	0.264	544.331	10	57	Target	Neutral	True
545.331	0.3	Control	0.7069	0.002	Yes	3.481	-0.002	4.0	GoodResponse	0	0.264	n/a	10	57	ButtonPress	Neutral	True
545.45	0.32	Control	0.7069	n/a	Yes	3.481	n/a	n/a	GoodResponse	0	n/a	n/a	10	57	Blank	Neutral	True
545.767	1.45	Control	0.7069	n/a	Yes	3.481	n/a	5.0	GoodResponse	0	0.013	544.78	10	57	Feedback	Neutral	True
547.216	3.481	Control	0.7069	n/a	Yes	3.481	n/a	n/a	GoodResponse	0	0.0	n/a	10	57	ISIslide	Neutral	True
550.715	0.25	Win2	0.7119	0.0	Yes	2.735	0.015	n/a	GoodResponse	1	n/a	n/a	11	58	Cue	Win	True
550.965	4.05	Win2	0.7119	0.0	Yes	2.735	0.0	n/a	GoodResponse	1	n/a	n/a	11	58	Fixation	Win	True
555.014	0.37	Win2	0.7119	0.001	Yes	2.735	-0.001	4.0	GoodResponse	1	0.205	554.219	11	58	Target	Win	True
555.219	0.3	Win2	0.7119	0.001	Yes	2.735	-0.001	4.0	GoodResponse	1	0.205	n/a	11	58	ButtonPress	Win	True
555.397	0.33	Win2	0.7119	n/a	Yes	2.735	n/a	n/a	GoodResponse	1	n/a	n/a	11	58	Blank	Win	True
555.713	1.45	Win2	0.7119	n/a	Yes	2.735	n/a	5.0	GoodResponse	1	0.018	554.731	11	58	Feedback	Win	True
557.163	2.735	Win2	0.7119	n/a	Yes	2.735	n/a	n/a	GoodResponse	1	0.0	n/a	11	58	ISIslide	Win	True
559.929	0.25	Lose2	0.7167	0.0	Yes	2.671	0.029	n/a	GoodResponse	0	n/a	n/a	11	59	Cue	AvoidedLoss	True
560.179	4.0	Lose2	0.7167	0.0	Yes	2.671	0.0	n/a	GoodResponse	0	n/a	n/a	11	59	Fixation	AvoidedLoss	True
564.177	0.36	Lose2	0.7167	0.002	Yes	2.671	-0.002	4.0	GoodResponse	0	0.255	563.432	11	59	Target	AvoidedLoss	True
564.432	0.3	Lose2	0.7167	0.002	Yes	2.671	-0.002	4.0	GoodResponse	0	0.255	n/a	11	59	ButtonPress	AvoidedLoss	True
564.544	0.34	Lose2	0.7167	n/a	Yes	2.671	n/a	n/a	GoodResponse	0	n/a	n/a	11	59	Blank	AvoidedLoss	True
564.877	1.45	Lose2	0.7167	n/a	Yes	2.671	n/a	5.0	GoodResponse	0	0.025	563.902	11	59	Feedback	AvoidedLoss	True
566.326	2.671	Lose2	0.7167	n/a	Yes	2.671	n/a	n/a	GoodResponse	0	0.0	n/a	11	59	ISIslide	AvoidedLoss	True
569.025	0.25	Control	0.7049	0.001	No	2.675	0.025	n/a	NoResponse	0	n/a	n/a	11	60	Cue	Neutral	True
569.275	4.0	Control	0.7049	0.0	No	2.675	0.0	n/a	NoResponse	0	n/a	n/a	11	60	Fixation	Neutral	True
573.274	0.35	Control	0.7049	0.001	No	2.675	-0.001	4.0	NoResponse	0	0.38	572.654	11	60	Target	Neutral	True
573.624	0.35	Control	0.7049	n/a	No	2.675	n/a	n/a	NoResponse	0	n/a	n/a	11	60	Blank	Neutral	True
573.654	0.3	Control	0.7049	0.001	No	2.675	-0.001	4.0	NoResponse	0	0.38	n/a	11	60	ButtonPress	Neutral	True
573.974	1.45	Control	0.7049	n/a	No	2.675	n/a	5.0	NoResponse	0	0.0	572.974	11	60	Feedback	Neutral	True
575.423	2.675	Control	0.7049	n/a	No	2.675	n/a	n/a	NoResponse	0	0.0	n/a	11	60	ISIslide	Neutral	True
578.122	0.25	Lose2	0.7097	0.0	Yes	2.978	0.022	n/a	GoodResponse	0	n/a	n/a	11	61	Cue	AvoidedLoss	True
578.372	4.0	Lose2	0.7097	0.0	Yes	2.978	0.0	n/a	GoodResponse	0	n/a	n/a	11	61	Fixation	AvoidedLoss	True
582.371	0.34	Lose2	0.7097	0.001	Yes	2.978	-0.001	4.0	GoodResponse	0	0.213	581.584	11	61	Target	AvoidedLoss	True
582.584	0.3	Lose2	0.7097	0.001	Yes	2.978	-0.001	4.0	GoodResponse	0	0.213	n/a	11	61	ButtonPress	AvoidedLoss	True
582.721	0.36	Lose2	0.7097	n/a	Yes	2.978	n/a	n/a	GoodResponse	0	n/a	n/a	11	61	Blank	AvoidedLoss	True
583.071	1.45	Lose2	0.7097	n/a	Yes	2.978	n/a	5.0	GoodResponse	0	0.025	582.096	11	61	Feedback	AvoidedLoss	True
584.52	2.978	Lose2	0.7097	n/a	Yes	2.978	n/a	n/a	GoodResponse	0	0.0	n/a	11	61	ISIslide	AvoidedLoss	True
587.519	0.25	Lose2	0.7143	0.0	Yes	2.881	0.019	n/a	GoodResponse	0	n/a	n/a	11	62	Cue	AvoidedLoss	True
587.769	3.9	Lose2	0.7143	0.0	Yes	2.881	0.0	n/a	GoodResponse	0	n/a	n/a	11	62	Fixation	AvoidedLoss	True
591.668	0.33	Lose2	0.7143	0.001	Yes	2.881	-0.001	4.0	GoodResponse	0	0.219	590.887	11	62	Target	AvoidedLoss	True
591.887	0.3	Lose2	0.7143	0.001	Yes	2.881	-0.001	4.0	GoodResponse	0	0.219	n/a	11	62	ButtonPress	AvoidedLoss	True
592.001	0.37	Lose2	0.7143	n/a	Yes	2.881	n/a	n/a	GoodResponse	0	n/a	n/a	11	62	Blank	AvoidedLoss	True
592.367	1.45	Lose2	0.7143	n/a	Yes	2.881	n/a	5.0	GoodResponse	0	0.046	591.413	11	62	Feedback	AvoidedLoss	True
593.817	2.881	Lose2	0.7143	n/a	Yes	2.881	n/a	n/a	GoodResponse	0	0.0	n/a	11	62	ISIslide	AvoidedLoss	True
596.716	0.25	Lose2	0.7188	0.0	Yes	2.634	0.016	n/a	GoodResponse	0	n/a	n/a	11	63	Cue	AvoidedLoss	True
596.966	4.05	Lose2	0.7188	0.0	Yes	2.634	0.0	n/a	GoodResponse	0	n/a	n/a	11	63	Fixation	AvoidedLoss	True
601.014	0.32	Lose2	0.7188	0.002	Yes	2.634	-0.002	4.0	GoodResponse	0	0.217	600.231	11	63	Target	AvoidedLoss	True
601.231	0.3	Lose2	0.7188	0.002	Yes	2.634	-0.002	4.0	GoodResponse	0	0.217	n/a	11	63	ButtonPress	AvoidedLoss	True
601.348	0.38	Lose2	0.7188	n/a	Yes	2.634	n/a	n/a	GoodResponse	0	n/a	n/a	11	63	Blank	AvoidedLoss	True
601.714	1.45	Lose2	0.7188	n/a	Yes	2.634	n/a	5.0	GoodResponse	0	0.017	600.731	11	63	Feedback	AvoidedLoss	True
603.164	2.634	Lose2	0.7188	n/a	Yes	2.634	n/a	n/a	GoodResponse	0	0.0	n/a	11	63	ISIslide	AvoidedLoss	True
605.813	0.25	Win2	0.7231000000000001	0.0	Yes	3.137	0.013	n/a	GoodResponse	1	n/a	n/a	12	64	Cue	Win	True
606.063	4.15	Win2	0.7231000000000001	0.0	Yes	3.137	0.0	n/a	GoodResponse	1	n/a	n/a	12	64	Fixation	Win	True
610.211	0.31	Win2	0.7231000000000001	0.002	Yes	3.137	-0.002	4.0	GoodResponse	1	0.236	609.447	12	64	Target	Win	True
610.447	0.3	Win2	0.7231000000000001	0.002	Yes	3.137	-0.002	4.0	GoodResponse	1	0.236	n/a	12	64	ButtonPress	Win	True
610.528	0.39	Win2	0.7231000000000001	n/a	Yes	3.137	n/a	n/a	GoodResponse	1	n/a	n/a	12	64	Blank	Win	True
610.911	1.45	Win2	0.7231000000000001	n/a	Yes	3.137	n/a	5.0	GoodResponse	1	0.039	609.95	12	64	Feedback	Win	True
612.36	3.137	Win2	0.7231000000000001	n/a	Yes	3.137	n/a	n/a	GoodResponse	1	0.0	n/a	12	64	ISIslide	Win	True
615.526	0.25	Control	0.7273000000000001	0.0	Yes	2.774	0.026	n/a	GoodResponse	0	n/a	n/a	12	65	Cue	Neutral	True
615.776	4.0	Control	0.7273000000000001	0.0	Yes	2.774	0.0	n/a	GoodResponse	0	n/a	n/a	12	65	Fixation	Neutral	True
619.774	0.3	Control	0.7273000000000001	0.002	Yes	2.774	-0.002	4.0	GoodResponse	0	0.263	619.037	12	65	Target	Neutral	True
620.037	0.3	Control	0.7273000000000001	0.002	Yes	2.774	-0.002	4.0	GoodResponse	0	0.263	n/a	12	65	ButtonPress	Neutral	True
620.074	0.4	Control	0.7273000000000001	n/a	Yes	2.774	n/a	n/a	GoodResponse	0	n/a	n/a	12	65	Blank	Neutral	True
620.474	1.45	Control	0.7273000000000001	n/a	Yes	2.774	n/a	5.0	GoodResponse	0	0.036	619.51	12	65	Feedback	Neutral	True
621.924	2.774	Control	0.7273000000000001	n/a	Yes	2.774	n/a	n/a	GoodResponse	0	0.0	n/a	12	65	ISIslide	Neutral	True
624.723	0.25	Win2	0.7313	0.0	Yes	2.777	0.023	n/a	GoodResponse	1	n/a	n/a	13	66	Cue	Win	True
624.973	3.9	Win2	0.7313	0.0	Yes	2.777	0.0	n/a	GoodResponse	1	n/a	n/a	13	66	Fixation	Win	True
628.871	0.29	Win2	0.7313	0.002	Yes	2.777	-0.002	4.0	GoodResponse	1	0.214	628.085	13	66	Target	Win	True
629.085	0.3	Win2	0.7313	0.002	Yes	2.777	-0.002	4.0	GoodResponse	1	0.214	n/a	13	66	ButtonPress	Win	True
629.171	0.41	Win2	0.7313	n/a	Yes	2.777	n/a	n/a	GoodResponse	1	n/a	n/a	13	66	Blank	Win	True
629.571	1.45	Win2	0.7313	n/a	Yes	2.777	n/a	5.0	GoodResponse	1	0.013	628.584	13	66	Feedback	Win	True
631.021	2.777	Win2	0.7313	n/a	Yes	2.777	n/a	n/a	GoodResponse	1	0.0	n/a	13	66	ISIslide	Win	True
633.82	0.25	Control	0.7206	0.0	No	2.73	0.02	n/a	NoResponse	0	n/a	n/a	13	67	Cue	Neutral	True
634.069	3.95	Control	0.7206	0.001	No	2.73	-0.001	n/a	NoResponse	0	n/a	n/a	13	67	Fixation	Neutral	True
638.018	0.28	Control	0.7206	0.002	No	2.73	-0.002	4.0	NoResponse	0	0.357	637.375	13	67	Target	Neutral	True
638.301	0.42	Control	0.7206	n/a	No	2.73	n/a	n/a	NoResponse	0	n/a	n/a	13	67	Blank	Neutral	True
638.375	0.3	Control	0.7206	0.002	No	2.73	-0.002	4.0	NoResponse	0	0.357	n/a	13	67	ButtonPress	Neutral	True
638.718	1.45	Control	0.7206	n/a	No	2.73	n/a	5.0	NoResponse	0	0.036	637.754	13	67	Feedback	Neutral	True
640.167	2.73	Control	0.7206	n/a	No	2.73	n/a	n/a	NoResponse	0	0.0	n/a	13	67	ISIslide	Neutral	True
642.916	0.25	Win2	0.7245999999999999	0.0	Yes	3.084	0.016	n/a	GoodResponse	1	n/a	n/a	14	68	Cue	Win	True
643.166	4.0	Win2	0.7245999999999999	0.0	Yes	3.084	0.0	n/a	GoodResponse	1	n/a	n/a	14	68	Fixation	Win	True
647.165	0.27	Win2	0.7245999999999999	0.001	Yes	3.084	-0.001	4.0	GoodResponse	1	0.208	646.373	14	68	Target	Win	True
647.373	0.3	Win2	0.7245999999999999	0.001	Yes	3.084	-0.001	4.0	GoodResponse	1	0.208	n/a	14	68	ButtonPress	Win	True
647.431	0.43	Win2	0.7245999999999999	n/a	Yes	3.084	n/a	n/a	GoodResponse	1	n/a	n/a	14	68	Blank	Win	True
647.865	1.45	Win2	0.7245999999999999	n/a	Yes	3.084	n/a	5.0	GoodResponse	1	0.012	646.877	14	68	Feedback	Win	True
649.314	3.084	Win2	0.7245999999999999	n/a	Yes	3.084	n/a	n/a	GoodResponse	1	0.0	n/a	14	68	ISIslide	Win	True
652.413	0.25	Win2	0.7286	0.0	Yes	3.237	0.013	n/a	GoodResponse	1	n/a	n/a	15	69	Cue	Win	True
652.663	3.95	Win2	0.7286	0.0	Yes	3.237	0.0	n/a	GoodResponse	1	n/a	n/a	15	69	Fixation	Win	True
656.612	0.26	Win2	0.7286	0.001	Yes	3.237	-0.001	4.0	GoodResponse	1	0.223	655.835	15	69	Target	Win	True
656.835	0.3	Win2	0.7286	0.001	Yes	3.237	-0.001	4.0	GoodResponse	1	0.223	n/a	15	69	ButtonPress	Win	True
656.878	0.44	Win2	0.7286	n/a	Yes	3.237	n/a	n/a	GoodResponse	1	n/a	n/a	15	69	Blank	Win	True
657.311	1.45	Win2	0.7286	n/a	Yes	3.237	n/a	5.0	GoodResponse	1	0.029	656.34	15	69	Feedback	Win	True
658.761	3.237	Win2	0.7286	n/a	Yes	3.237	n/a	n/a	GoodResponse	1	0.0	n/a	15	69	ISIslide	Win	True
662.026	0.25	Lose2	0.7323999999999999	0.0	Yes	3.024	0.026	n/a	GoodResponse	0	n/a	n/a	15	70	Cue	AvoidedLoss	True
662.276	4.05	Lose2	0.7323999999999999	0.0	Yes	3.024	0.0	n/a	GoodResponse	0	n/a	n/a	15	70	Fixation	AvoidedLoss	True
666.325	0.25	Lose2	0.7323999999999999	0.001	Yes	3.024	-0.001	4.0	GoodResponse	0	0.235	665.56	15	70	Target	AvoidedLoss	True
666.56	0.3	Lose2	0.7323999999999999	0.001	Yes	3.024	-0.001	4.0	GoodResponse	0	0.235	n/a	15	70	ButtonPress	AvoidedLoss	True
666.575	0.45	Lose2	0.7323999999999999	n/a	Yes	3.024	n/a	n/a	GoodResponse	0	n/a	n/a	15	70	Blank	AvoidedLoss	True
667.025	1.45	Lose2	0.7323999999999999	n/a	Yes	3.024	n/a	5.0	GoodResponse	0	0.023	666.048	15	70	Feedback	AvoidedLoss	True
668.474	3.024	Lose2	0.7323999999999999	n/a	Yes	3.024	n/a	n/a	GoodResponse	0	0.0	n/a	15	70	ISIslide	AvoidedLoss	True
671.523	0.25	Win2	0.7222	0.0	No	2.727	0.023	n/a	LatePress	0	n/a	n/a	15	71	Cue	MissedWin	True
671.773	4.05	Win2	0.7222	0.0	No	2.727	0.0	n/a	LatePress	0	n/a	n/a	15	71	Fixation	MissedWin	True
675.822	0.24	Win2	0.7222	0.001	No	2.727	-0.001	4.0	LatePress	0	0.24	675.062	15	71	Target	MissedWin	True
676.062	0.3	Win2	0.7222	0.001	No	2.727	-0.001	4.0	LatePress	0	0.24	n/a	15	71	ButtonPress	MissedWin	True
676.071	0.46	Win2	0.7222	n/a	No	2.727	n/a	n/a	LatePress	0	n/a	n/a	15	71	Blank	MissedWin	True
676.521	1.45	Win2	0.7222	n/a	No	2.727	n/a	5.0	LatePress	0	0.038	675.559	15	71	Feedback	MissedWin	True
677.971	2.727	Win2	0.7222	n/a	No	2.727	n/a	n/a	LatePress	0	0.0	n/a	15	71	ISIslide	MissedWin	True
680.72	0.25	Win2	0.726	0.0	Yes	2.78	0.02	n/a	GoodResponse	1	n/a	n/a	16	72	Cue	Win	True
680.97	4.1	Win2	0.726	0.0	Yes	2.78	0.0	n/a	GoodResponse	1	n/a	n/a	16	72	Fixation	Win	True
685.068	0.23	Win2	0.726	0.002	Yes	2.78	-0.002	4.0	GoodResponse	1	0.213	684.281	16	72	Target	Win	True
685.281	0.3	Win2	0.726	0.002	Yes	2.78	-0.002	4.0	GoodResponse	1	0.213	n/a	16	72	ButtonPress	Win	True
685.302	0.47	Win2	0.726	n/a	Yes	2.78	n/a	n/a	GoodResponse	1	n/a	n/a	16	72	Blank	Win	True
685.768	1.45	Win2	0.726	n/a	Yes	2.78	n/a	5.0	GoodResponse	1	0.011	684.779	16	72	Feedback	Win	True
687.218	2.78	Win2	0.726	n/a	Yes	2.78	n/a	n/a	GoodResponse	1	0.0	n/a	16	72	ISIslide	Win	True
690.017	0.25	Win2	0.7162000000000001	0.0	No	2.683	0.017	n/a	LatePress	0	n/a	n/a	16	73	Cue	MissedWin	True
690.267	4.0	Win2	0.7162000000000001	0.0	No	2.683	0.0	n/a	LatePress	0	n/a	n/a	16	73	Fixation	MissedWin	True
694.265	0.22	Win2	0.7162000000000001	0.002	No	2.683	-0.002	4.0	LatePress	0	0.222	693.487	16	73	Target	MissedWin	True
694.487	0.3	Win2	0.7162000000000001	0.002	No	2.683	-0.002	4.0	LatePress	0	0.222	n/a	16	73	ButtonPress	MissedWin	True
694.498	0.48	Win2	0.7162000000000001	n/a	No	2.683	n/a	n/a	LatePress	0	n/a	n/a	16	73	Blank	MissedWin	True
694.965	1.45	Win2	0.7162000000000001	n/a	No	2.683	n/a	5.0	LatePress	0	0.033	693.998	16	73	Feedback	MissedWin	True
696.414	2.683	Win2	0.7162000000000001	n/a	No	2.683	n/a	n/a	LatePress	0	0.0	n/a	16	73	ISIslide	MissedWin	True
699.13	0.25	Lose2	0.7067	0.0	No	2.62	0.03	n/a	NoResponse	-1	n/a	n/a	15	74	Cue	Loss	True
699.38	4.05	Lose2	0.7067	0.0	No	2.62	0.0	n/a	NoResponse	-1	n/a	n/a	15	74	Fixation	Loss	True
703.429	0.21	Lose2	0.7067	0.001	No	2.62	-0.001	4.0	NoResponse	-1	0.225	702.654	15	74	Target	Loss	True
703.645	0.49	Lose2	0.7067	n/a	No	2.62	n/a	n/a	NoResponse	-1	n/a	n/a	15	74	Blank	Loss	True
703.654	0.3	Lose2	0.7067	0.001	No	2.62	-0.001	4.0	NoResponse	-1	0.225	n/a	15	74	ButtonPress	Loss	True
704.128	1.45	Lose2	0.7067	n/a	No	2.62	n/a	5.0	NoResponse	-1	0.041	703.169	15	74	Feedback	Loss	True
705.578	2.62	Lose2	0.7067	n/a	No	2.62	n/a	n/a	NoResponse	-1	0.0	n/a	15	74	ISIslide	Loss	True
708.227	0.25	Lose2	0.6973999999999999	0.0	No	2.923	0.027	n/a	NoResponse	-1	n/a	n/a	14	75	Cue	Loss	True
708.477	3.95	Lose2	0.6973999999999999	0.0	No	2.923	0.0	n/a	NoResponse	-1	n/a	n/a	14	75	Fixation	Loss	True
712.425	0.2	Lose2	0.6973999999999999	0.002	No	2.923	-0.002	4.0	NoResponse	-1	0.242	711.667	14	75	Target	Loss	True
712.625	0.5	Lose2	0.6973999999999999	n/a	No	2.923	n/a	n/a	NoResponse	-1	n/a	n/a	14	75	Blank	Loss	True
712.667	0.3	Lose2	0.6973999999999999	0.002	No	2.923	-0.002	4.0	NoResponse	-1	0.242	n/a	14	75	ButtonPress	Loss	True
713.125	1.45	Lose2	0.6973999999999999	n/a	No	2.923	n/a	5.0	NoResponse	-1	0.02	712.145	14	75	Feedback	Loss	True
714.575	2.923	Lose2	0.6973999999999999	n/a	No	2.923	n/a	n/a	NoResponse	-1	0.0	n/a	14	75	ISIslide	Loss	True
717.524	0.25	Control	0.6883	0.0	No	3.226	0.024	n/a	NoResponse	0	n/a	n/a	14	76	Cue	Neutral	True
717.774	4.05	Control	0.6883	0.0	No	3.226	0.0	n/a	NoResponse	0	n/a	n/a	14	76	Fixation	Neutral	True
721.822	0.19	Control	0.6883	0.002	No	3.226	-0.002	4.0	NoResponse	0	0.229	721.051	14	76	Target	Neutral	True
722.022	0.51	Control	0.6883	n/a	No	3.226	n/a	n/a	NoResponse	0	n/a	n/a	14	76	Blank	Neutral	True
722.051	0.3	Control	0.6883	0.002	No	3.226	-0.002	4.0	NoResponse	0	0.229	n/a	14	76	ButtonPress	Neutral	True
722.522	1.45	Control	0.6883	n/a	No	3.226	n/a	5.0	NoResponse	0	0.036	721.558	14	76	Feedback	Neutral	True
723.971	3.226	Control	0.6883	n/a	No	3.226	n/a	n/a	NoResponse	0	0.0	n/a	14	76	ISIslide	Neutral	True
727.22	0.25	Lose2	0.6795	0.0	No	2.58	0.02	n/a	NoResponse	-1	n/a	n/a	13	77	Cue	Loss	True
727.47	3.95	Lose2	0.6795	0.0	No	2.58	0.0	n/a	NoResponse	-1	n/a	n/a	13	77	Fixation	Loss	True
731.419	0.18	Lose2	0.6795	0.001	No	2.58	-0.001	4.0	NoResponse	-1	0.23	730.649	13	77	Target	Loss	True
731.602	0.52	Lose2	0.6795	n/a	No	2.58	n/a	n/a	NoResponse	-1	n/a	n/a	13	77	Blank	Loss	True
731.649	0.3	Lose2	0.6795	0.001	No	2.58	-0.001	4.0	NoResponse	-1	0.23	n/a	13	77	ButtonPress	Loss	True
732.119	1.45	Lose2	0.6795	n/a	No	2.58	n/a	5.0	NoResponse	-1	0.006	731.125	13	77	Feedback	Loss	True
733.568	2.58	Lose2	0.6795	n/a	No	2.58	n/a	n/a	NoResponse	-1	0.0	n/a	13	77	ISIslide	Loss	True
