onset	duration	cue_type	current_mean_accuracy	duration_error	is_hit	isi_adjusted	onset_delay	response	response_type	reward	rt	rt_time	total_reward	trial_number	trial_phase	trial_type	one_press
11.104	0.25	Control	1.0	0.0	Yes	2.946	0.004	n/a	GoodResponse	0	n/a	n/a	0	0	Cue	Neutral	True
11.354	3.85	Control	1.0	0.0	Yes	2.946	0.0	n/a	GoodResponse	0	n/a	n/a	0	0	Fixation	Neutral	True
15.202	0.4	Control	1.0	0.002	Yes	2.946	-0.002	3.0	GoodResponse	0	0.197	14.399	0	0	Target	Neutral	True
15.399	0.3	Control	1.0	0.002	Yes	2.946	-0.002	3.0	GoodResponse	0	0.197	n/a	0	0	ButtonPress	Neutral	True
15.602	0.3	Control	1.0	n/a	Yes	2.946	n/a	n/a	GoodResponse	0	n/a	n/a	0	0	Blank	Neutral	True
15.902	1.45	Control	1.0	n/a	Yes	2.946	n/a	5.0	GoodResponse	0	0.027	14.929	0	0	Feedback	Neutral	True
17.352	2.946	Control	1.0	n/a	Yes	2.946	n/a	n/a	GoodResponse	0	0.0	n/a	0	0	ISIslide	Neutral	True
20.317	0.25	Lose2	1.0	0.0	Yes	2.783	0.017	n/a	GoodResponse	0	n/a	n/a	0	1	Cue	AvoidedLoss	True
20.567	4.0	Lose2	1.0	0.0	Yes	2.783	0.0	n/a	GoodResponse	0	n/a	n/a	0	1	Fixation	AvoidedLoss	True
24.566	0.39	Lose2	1.0	0.001	Yes	2.783	-0.001	3.0	GoodResponse	0	0.256	23.822	0	1	Target	AvoidedLoss	True
24.822	0.3	Lose2	1.0	0.001	Yes	2.783	-0.001	3.0	GoodResponse	0	0.256	n/a	0	1	ButtonPress	AvoidedLoss	True
24.966	0.31	Lose2	1.0	n/a	Yes	2.783	n/a	n/a	GoodResponse	0	n/a	n/a	0	1	Blank	AvoidedLoss	True
25.265	1.45	Lose2	1.0	n/a	Yes	2.783	n/a	5.0	GoodResponse	0	0.029	24.294	0	1	Feedback	AvoidedLoss	True
26.715	2.783	Lose2	1.0	n/a	Yes	2.783	n/a	n/a	GoodResponse	0	0.0	n/a	0	1	ISIslide	AvoidedLoss	True
29.531	0.25	Control	1.0	0.0	Yes	2.569	0.031	n/a	GoodResponse	0	n/a	n/a	0	2	Cue	Neutral	True
29.781	4.1	Control	1.0	0.0	Yes	2.569	0.0	n/a	GoodResponse	0	n/a	n/a	0	2	Fixation	Neutral	True
33.879	0.38	Control	1.0	0.002	Yes	2.569	-0.002	3.0	GoodResponse	0	0.222	33.101	0	2	Target	Neutral	True
34.101	0.3	Control	1.0	0.002	Yes	2.569	-0.002	3.0	GoodResponse	0	0.222	n/a	0	2	ButtonPress	Neutral	True
34.262	0.32	Control	1.0	n/a	Yes	2.569	n/a	n/a	GoodResponse	0	n/a	n/a	0	2	Blank	Neutral	True
34.579	1.45	Control	1.0	n/a	Yes	2.569	n/a	5.0	GoodResponse	0	0.032	33.611	0	2	Feedback	Neutral	True
36.028	2.569	Control	1.0	n/a	Yes	2.569	n/a	n/a	GoodResponse	0	0.0	n/a	0	2	ISIslide	Neutral	True
38.627	0.25	Win2	1.0	0.0	Yes	2.823	0.027	n/a	GoodResponse	1	n/a	n/a	1	3	Cue	Win	True
38.877	3.95	Win2	1.0	0.0	Yes	2.823	0.0	n/a	GoodResponse	1	n/a	n/a	1	3	Fixation	Win	True
42.826	0.37	Win2	1.0	0.001	Yes	2.823	-0.001	3.0	GoodResponse	1	0.221	42.047	1	3	Target	Win	True
43.047	0.3	Win2	1.0	0.001	Yes	2.823	-0.001	3.0	GoodResponse	1	0.221	n/a	1	3	ButtonPress	Win	True
43.192	0.33	Win2	1.0	n/a	Yes	2.823	n/a	n/a	GoodResponse	1	n/a	n/a	1	3	Blank	Win	True
43.526	1.45	Win2	1.0	n/a	Yes	2.823	n/a	5.0	GoodResponse	1	0.012	42.538	1	3	Feedback	Win	True
44.975	2.823	Win2	1.0	n/a	Yes	2.823	n/a	n/a	GoodResponse	1	0.0	n/a	1	3	ISIslide	Win	True
47.824	0.25	Win2	1.0	0.0	Yes	3.276	0.024	n/a	GoodResponse	1	n/a	n/a	2	4	Cue	Win	True
48.074	4.0	Win2	1.0	0.0	Yes	3.276	0.0	n/a	GoodResponse	1	n/a	n/a	2	4	Fixation	Win	True
52.073	0.36	Win2	1.0	0.001	Yes	3.276	-0.001	3.0	GoodResponse	1	0.213	51.286	2	4	Target	Win	True
52.286	0.3	Win2	1.0	0.001	Yes	3.276	-0.001	3.0	GoodResponse	1	0.213	n/a	2	4	ButtonPress	Win	True
52.439	0.34	Win2	1.0	n/a	Yes	3.276	n/a	n/a	GoodResponse	1	n/a	n/a	2	4	Blank	Win	True
52.772	1.45	Win2	1.0	n/a	Yes	3.276	n/a	5.0	GoodResponse	1	0.035	51.807	2	4	Feedback	Win	True
54.222	3.276	Win2	1.0	n/a	Yes	3.276	n/a	n/a	GoodResponse	1	0.0	n/a	2	4	ISIslide	Win	True
57.521	0.25	Win2	1.0	0.0	Yes	2.779	0.021	n/a	GoodResponse	1	n/a	n/a	3	5	Cue	Win	True
57.771	4.0	Win2	1.0	0.0	Yes	2.779	0.0	n/a	GoodResponse	1	n/a	n/a	3	5	Fixation	Win	True
61.769	0.35	Win2	1.0	0.002	Yes	2.779	-0.002	3.0	GoodResponse	1	0.274	61.043	3	5	Target	Win	True
62.043	0.3	Win2	1.0	0.002	Yes	2.779	-0.002	3.0	GoodResponse	1	0.274	n/a	3	5	ButtonPress	Win	True
62.119	0.35	Win2	1.0	n/a	Yes	2.779	n/a	n/a	GoodResponse	1	n/a	n/a	3	5	Blank	Win	True
62.469	1.45	Win2	1.0	n/a	Yes	2.779	n/a	5.0	GoodResponse	1	0.044	61.513	3	5	Feedback	Win	True
63.918	2.779	Win2	1.0	n/a	Yes	2.779	n/a	n/a	GoodResponse	1	0.0	n/a	3	5	ISIslide	Win	True
66.717	0.25	Lose2	1.0	0.001	Yes	2.733	0.017	n/a	GoodResponse	0	n/a	n/a	3	6	Cue	AvoidedLoss	True
66.967	3.95	Lose2	1.0	0.0	Yes	2.733	0.0	n/a	GoodResponse	0	n/a	n/a	3	6	Fixation	AvoidedLoss	True
70.916	0.34	Lose2	1.0	0.001	Yes	2.733	-0.001	3.0	GoodResponse	0	0.223	70.139	3	6	Target	AvoidedLoss	True
71.139	0.3	Lose2	1.0	0.001	Yes	2.733	-0.001	3.0	GoodResponse	0	0.223	n/a	3	6	ButtonPress	AvoidedLoss	True
71.266	0.36	Lose2	1.0	n/a	Yes	2.733	n/a	n/a	GoodResponse	0	n/a	n/a	3	6	Blank	AvoidedLoss	True
71.616	1.45	Lose2	1.0	n/a	Yes	2.733	n/a	5.0	GoodResponse	0	0.019	70.635	3	6	Feedback	AvoidedLoss	True
73.065	2.733	Lose2	1.0	n/a	Yes	2.733	n/a	n/a	GoodResponse	0	0.0	n/a	3	6	ISIslide	AvoidedLoss	True
75.814	0.25	Lose2	1.0	0.0	Yes	4.036	0.014	n/a	GoodResponse	0	n/a	n/a	3	7	Cue	AvoidedLoss	True
76.064	4.05	Lose2	1.0	0.0	Yes	4.036	0.0	n/a	GoodResponse	0	n/a	n/a	3	7	Fixation	AvoidedLoss	True
80.113	0.33	Lose2	1.0	0.001	Yes	4.036	-0.001	3.0	GoodResponse	0	0.225	79.338	3	7	Target	AvoidedLoss	True
80.338	0.3	Lose2	1.0	0.001	Yes	4.036	-0.001	3.0	GoodResponse	0	0.225	n/a	3	7	ButtonPress	AvoidedLoss	True
80.446	0.37	Lose2	1.0	n/a	Yes	4.036	n/a	n/a	GoodResponse	0	n/a	n/a	3	7	Blank	AvoidedLoss	True
80.812	1.45	Lose2	1.0	n/a	Yes	4.036	n/a	5.0	GoodResponse	0	0.043	79.855	3	7	Feedback	AvoidedLoss	True
82.262	4.036	Lose2	1.0	n/a	Yes	4.036	n/a	n/a	GoodResponse	0	0.0	n/a	3	7	ISIslide	AvoidedLoss	True
86.327	0.25	Lose2	1.0	0.0	Yes	3.023	0.027	n/a	GoodResponse	0	n/a	n/a	3	8	Cue	AvoidedLoss	True
86.577	3.95	Lose2	1.0	0.0	Yes	3.023	0.0	n/a	GoodResponse	0	n/a	n/a	3	8	Fixation	AvoidedLoss	True
90.526	0.32	Lose2	1.0	0.001	Yes	3.023	-0.001	3.0	GoodResponse	0	0.247	89.773	3	8	Target	AvoidedLoss	True
90.773	0.3	Lose2	1.0	0.001	Yes	3.023	-0.001	3.0	GoodResponse	0	0.247	n/a	3	8	ButtonPress	AvoidedLoss	True
90.859	0.38	Lose2	1.0	n/a	Yes	3.023	n/a	n/a	GoodResponse	0	n/a	n/a	3	8	Blank	AvoidedLoss	True
91.225	1.45	Lose2	1.0	n/a	Yes	3.023	n/a	5.0	GoodResponse	0	0.02	90.245	3	8	Feedback	AvoidedLoss	True
92.675	3.023	Lose2	1.0	n/a	Yes	3.023	n/a	n/a	GoodResponse	0	0.0	n/a	3	8	ISIslide	AvoidedLoss	True
95.724	0.25	Lose2	1.0	0.0	Yes	3.126	0.024	n/a	GoodResponse	0	n/a	n/a	3	9	Cue	AvoidedLoss	True
95.974	3.95	Lose2	1.0	0.0	Yes	3.126	0.0	n/a	GoodResponse	0	n/a	n/a	3	9	Fixation	AvoidedLoss	True
99.922	0.31	Lose2	1.0	0.002	Yes	3.126	-0.002	3.0	GoodResponse	0	0.281	99.203	3	9	Target	AvoidedLoss	True
100.203	0.3	Lose2	1.0	0.002	Yes	3.126	-0.002	3.0	GoodResponse	0	0.281	n/a	3	9	ButtonPress	AvoidedLoss	True
100.239	0.39	Lose2	1.0	n/a	Yes	3.126	n/a	n/a	GoodResponse	0	n/a	n/a	3	9	Blank	AvoidedLoss	True
100.622	1.45	Lose2	1.0	n/a	Yes	3.126	n/a	5.0	GoodResponse	0	0.037	99.659	3	9	Feedback	AvoidedLoss	True
102.072	3.126	Lose2	1.0	n/a	Yes	3.126	n/a	n/a	GoodResponse	0	0.0	n/a	3	9	ISIslide	AvoidedLoss	True
105.22	0.25	Control	1.0	0.0	Yes	3.28	0.02	n/a	GoodResponse	0	n/a	n/a	3	10	Cue	Neutral	True
105.47	4.0	Control	1.0	0.0	Yes	3.28	0.0	n/a	GoodResponse	0	n/a	n/a	3	10	Fixation	Neutral	True
109.469	0.3	Control	1.0	0.001	Yes	3.28	-0.001	3.0	GoodResponse	0	0.271	108.74	3	10	Target	Neutral	True
109.74	0.3	Control	1.0	0.001	Yes	3.28	-0.001	3.0	GoodResponse	0	0.271	n/a	3	10	ButtonPress	Neutral	True
109.769	0.4	Control	1.0	n/a	Yes	3.28	n/a	n/a	GoodResponse	0	n/a	n/a	3	10	Blank	Neutral	True
110.169	1.45	Control	1.0	n/a	Yes	3.28	n/a	5.0	GoodResponse	0	0.006	109.175	3	10	Feedback	Neutral	True
111.618	3.28	Control	1.0	n/a	Yes	3.28	n/a	n/a	GoodResponse	0	0.0	n/a	3	10	ISIslide	Neutral	True
114.917	0.25	Lose2	1.0	0.0	Yes	2.733	0.017	n/a	GoodResponse	0	n/a	n/a	3	11	Cue	AvoidedLoss	True
115.167	4.05	Lose2	1.0	0.0	Yes	2.733	0.0	n/a	GoodResponse	0	n/a	n/a	3	11	Fixation	AvoidedLoss	True
119.215	0.29	Lose2	1.0	0.002	Yes	2.733	-0.002	3.0	GoodResponse	0	0.259	118.474	3	11	Target	AvoidedLoss	True
119.474	0.3	Lose2	1.0	0.002	Yes	2.733	-0.002	3.0	GoodResponse	0	0.259	n/a	3	11	ButtonPress	AvoidedLoss	True
119.515	0.41	Lose2	1.0	n/a	Yes	2.733	n/a	n/a	GoodResponse	0	n/a	n/a	3	11	Blank	AvoidedLoss	True
119.915	1.45	Lose2	1.0	n/a	Yes	2.733	n/a	5.0	GoodResponse	0	0.012	118.927	3	11	Feedback	AvoidedLoss	True
121.365	2.733	Lose2	1.0	n/a	Yes	2.733	n/a	n/a	GoodResponse	0	0.0	n/a	3	11	ISIslide	AvoidedLoss	True
124.114	0.25	Control	1.0	0.0	Yes	2.986	0.014	n/a	GoodResponse	0	n/a	n/a	3	12	Cue	Neutral	True
124.364	3.9	Control	1.0	0.0	Yes	2.986	0.0	n/a	GoodResponse	0	n/a	n/a	3	12	Fixation	Neutral	True
128.262	0.28	Control	1.0	0.002	Yes	2.986	-0.002	3.0	GoodResponse	0	0.217	127.479	3	12	Target	Neutral	True
128.479	0.3	Control	1.0	0.002	Yes	2.986	-0.002	3.0	GoodResponse	0	0.217	n/a	3	12	ButtonPress	Neutral	True
128.545	0.42	Control	1.0	n/a	Yes	2.986	n/a	n/a	GoodResponse	0	n/a	n/a	3	12	Blank	Neutral	True
128.962	1.45	Control	1.0	n/a	Yes	2.986	n/a	5.0	GoodResponse	0	0.039	128.001	3	12	Feedback	Neutral	True
130.411	2.986	Control	1.0	n/a	Yes	2.986	n/a	n/a	GoodResponse	0	0.0	n/a	3	12	ISIslide	Neutral	True
133.427	0.25	Control	1.0	0.0	Yes	2.773	0.027	n/a	GoodResponse	0	n/a	n/a	3	13	Cue	Neutral	True
133.677	4.0	Control	1.0	0.0	Yes	2.773	0.0	n/a	GoodResponse	0	n/a	n/a	3	13	Fixation	Neutral	True
137.676	0.27	Control	1.0	0.001	Yes	2.773	-0.001	3.0	GoodResponse	0	0.257	136.933	3	13	Target	Neutral	True
137.933	0.3	Control	1.0	0.001	Yes	2.773	-0.001	3.0	GoodResponse	0	0.257	n/a	3	13	ButtonPress	Neutral	True
137.959	0.43	Control	1.0	n/a	Yes	2.773	n/a	n/a	GoodResponse	0	n/a	n/a	3	13	Blank	Neutral	True
138.375	1.45	Control	1.0	n/a	Yes	2.773	n/a	5.0	GoodResponse	0	0.039	137.414	3	13	Feedback	Neutral	True
139.825	2.773	Control	1.0	n/a	Yes	2.773	n/a	n/a	GoodResponse	0	0.0	n/a	3	13	ISIslide	Neutral	True
142.624	0.25	Win2	0.9333	0.0	No	2.676	0.024	n/a	LatePress	0	n/a	n/a	3	14	Cue	MissedWin	True
142.874	4.1	Win2	0.9333	0.0	No	2.676	0.0	n/a	LatePress	0	n/a	n/a	3	14	Fixation	MissedWin	True
146.972	0.26	Win2	0.9333	0.002	No	2.676	-0.002	3.0	LatePress	0	0.264	146.236	3	14	Target	MissedWin	True
147.236	0.3	Win2	0.9333	0.002	No	2.676	-0.002	3.0	LatePress	0	0.264	n/a	3	14	ButtonPress	MissedWin	True
147.239	0.44	Win2	0.9333	n/a	No	2.676	n/a	n/a	LatePress	0	n/a	n/a	3	14	Blank	MissedWin	True
147.672	1.45	Win2	0.9333	n/a	No	2.676	n/a	5.0	LatePress	0	0.011	146.683	3	14	Feedback	MissedWin	True
149.121	2.676	Win2	0.9333	n/a	No	2.676	n/a	n/a	LatePress	0	0.0	n/a	3	14	ISIslide	MissedWin	True
151.82	0.25	Control	0.9375	0.001	Yes	2.98	0.02	n/a	GoodResponse	0	n/a	n/a	3	15	Cue	Neutral	True
152.07	4.0	Control	0.9375	0.0	Yes	2.98	0.0	n/a	GoodResponse	0	n/a	n/a	3	15	Fixation	Neutral	True
156.069	0.25	Control	0.9375	0.001	Yes	2.98	-0.001	3.0	GoodResponse	0	0.247	155.316	3	15	Target	Neutral	True
156.316	0.3	Control	0.9375	0.001	Yes	2.98	-0.001	3.0	GoodResponse	0	0.247	n/a	3	15	ButtonPress	Neutral	True
156.319	0.45	Control	0.9375	n/a	Yes	2.98	n/a	n/a	GoodResponse	0	n/a	n/a	3	15	Blank	Neutral	True
156.769	1.45	Control	0.9375	n/a	Yes	2.98	n/a	5.0	GoodResponse	0	0.036	155.805	3	15	Feedback	Neutral	True
158.218	2.98	Control	0.9375	n/a	Yes	2.98	n/a	n/a	GoodResponse	0	0.0	n/a	3	15	ISIslide	Neutral	True
161.217	0.25	Win2	0.8824	0.0	No	2.883	0.017	n/a	NoResponse	0	n/a	n/a	3	16	Cue	MissedWin	True
161.467	4.0	Win2	0.8824	0.0	No	2.883	0.0	n/a	NoResponse	0	n/a	n/a	3	16	Fixation	MissedWin	True
165.466	0.24	Win2	0.8824	0.001	No	2.883	-0.001	3.0	NoResponse	0	0.265	164.731	3	16	Target	MissedWin	True
165.716	0.46	Win2	0.8824	n/a	No	2.883	n/a	n/a	NoResponse	0	n/a	n/a	3	16	Blank	MissedWin	True
165.731	0.3	Win2	0.8824	0.001	No	2.883	-0.001	3.0	NoResponse	0	0.265	n/a	3	16	ButtonPress	MissedWin	True
166.165	1.45	Win2	0.8824	n/a	No	2.883	n/a	5.0	NoResponse	0	0.007	165.172	3	16	Feedback	MissedWin	True
167.615	2.883	Win2	0.8824	n/a	No	2.883	n/a	n/a	NoResponse	0	0.0	n/a	3	16	ISIslide	MissedWin	True
170.514	0.25	Lose2	0.8332999999999999	0.0	No	2.736	0.014	n/a	NoResponse	-1	n/a	n/a	2	17	Cue	Loss	True
170.764	3.95	Lose2	0.8332999999999999	0.0	No	2.736	0.0	n/a	NoResponse	-1	n/a	n/a	2	17	Fixation	Loss	True
174.712	0.23	Lose2	0.8332999999999999	0.002	No	2.736	-0.002	3.0	NoResponse	-1	0.241	173.953	2	17	Target	Loss	True
174.946	0.47	Lose2	0.8332999999999999	n/a	No	2.736	n/a	n/a	NoResponse	-1	n/a	n/a	2	17	Blank	Loss	True
174.953	0.3	Lose2	0.8332999999999999	0.002	No	2.736	-0.002	3.0	NoResponse	-1	0.241	n/a	2	17	ButtonPress	Loss	True
175.412	1.45	Lose2	0.8332999999999999	n/a	No	2.736	n/a	5.0	NoResponse	-1	0.026	174.438	2	17	Feedback	Loss	True
176.862	2.736	Lose2	0.8332999999999999	n/a	No	2.736	n/a	n/a	NoResponse	-1	0.0	n/a	2	17	ISIslide	Loss	True
179.627	0.25	Lose2	0.7895	0.0	No	2.723	0.027	n/a	LatePress	-1	n/a	n/a	1	18	Cue	Loss	True
179.877	4.05	Lose2	0.7895	0.0	No	2.723	0.0	n/a	LatePress	-1	n/a	n/a	1	18	Fixation	Loss	True
183.926	0.22	Lose2	0.7895	0.001	No	2.723	-0.001	3.0	LatePress	-1	0.227	183.153	1	18	Target	Loss	True
184.153	0.3	Lose2	0.7895	0.001	No	2.723	-0.001	3.0	LatePress	-1	0.227	n/a	1	18	ButtonPress	Loss	True
184.159	0.48	Lose2	0.7895	n/a	No	2.723	n/a	n/a	LatePress	-1	n/a	n/a	1	18	Blank	Loss	True
184.625	1.45	Lose2	0.7895	n/a	No	2.723	n/a	5.0	LatePress	-1	0.033	183.658	1	18	Feedback	Loss	True
186.075	2.723	Lose2	0.7895	n/a	No	2.723	n/a	n/a	LatePress	-1	0.0	n/a	1	18	ISIslide	Loss	True
188.824	0.25	Control	0.75	0.0	No	2.926	0.024	n/a	NoResponse	0	n/a	n/a	1	19	Cue	Neutral	True
189.074	3.95	Control	0.75	0.0	No	2.926	0.0	n/a	NoResponse	0	n/a	n/a	1	19	Fixation	Neutral	True
193.022	0.21	Control	0.75	0.002	No	2.926	-0.002	3.0	NoResponse	0	0.248	192.27	1	19	Target	Neutral	True
193.239	0.49	Control	0.75	n/a	No	2.926	n/a	n/a	NoResponse	0	n/a	n/a	1	19	Blank	Neutral	True
193.27	0.3	Control	0.75	0.002	No	2.926	-0.002	3.0	NoResponse	0	0.248	n/a	1	19	ButtonPress	Neutral	True
193.722	1.45	Control	0.75	n/a	No	2.926	n/a	5.0	NoResponse	0	0.009	192.731	1	19	Feedback	Neutral	True
195.172	2.926	Control	0.75	n/a	No	2.926	n/a	n/a	NoResponse	0	0.0	n/a	1	19	ISIslide	Neutral	True
198.121	0.25	Control	0.7143	0.0	No	2.629	0.021	n/a	NoResponse	0	n/a	n/a	1	20	Cue	Neutral	True
198.371	4.05	Control	0.7143	0.0	No	2.629	0.0	n/a	NoResponse	0	n/a	n/a	1	20	Fixation	Neutral	True
202.419	0.2	Control	0.7143	0.002	No	2.629	-0.002	3.0	NoResponse	0	0.221	201.64	1	20	Target	Neutral	True
202.619	0.5	Control	0.7143	n/a	No	2.629	n/a	n/a	NoResponse	0	n/a	n/a	1	20	Blank	Neutral	True
202.64	0.3	Control	0.7143	0.002	No	2.629	-0.002	3.0	NoResponse	0	0.221	n/a	1	20	ButtonPress	Neutral	True
203.119	1.45	Control	0.7143	n/a	No	2.629	n/a	5.0	NoResponse	0	0.027	202.146	1	20	Feedback	Neutral	True
204.568	2.629	Control	0.7143	n/a	No	2.629	n/a	n/a	NoResponse	0	0.0	n/a	1	20	ISIslide	Neutral	True
207.217	0.25	Control	0.6818000000000001	0.001	No	2.783	0.017	n/a	NoResponse	0	n/a	n/a	1	21	Cue	Neutral	True
207.467	4.1	Control	0.6818000000000001	0.0	No	2.783	0.0	n/a	NoResponse	0	n/a	n/a	1	21	Fixation	Neutral	True
211.566	0.19	Control	0.6818000000000001	0.001	No	2.783	-0.001	3.0	NoResponse	0	0.2	210.766	1	21	Target	Neutral	True
211.766	0.51	Control	0.6818000000000001	n/a	No	2.783	n/a	n/a	NoResponse	0	n/a	n/a	1	21	Blank	Neutral	True
211.766	0.3	Control	0.6818000000000001	0.001	No	2.783	-0.001	3.0	NoResponse	0	0.2	n/a	1	21	ButtonPress	Neutral	True
212.266	1.45	Control	0.6818000000000001	n/a	No	2.783	n/a	5.0	NoResponse	0	0.006	211.272	1	21	Feedback	Neutral	True
213.715	2.783	Control	0.6818000000000001	n/a	No	2.783	n/a	n/a	NoResponse	0	0.0	n/a	1	21	ISIslide	Neutral	True
216.514	0.25	Control	0.6522	0.0	No	2.786	0.014	n/a	NoResponse	0	n/a	n/a	1	22	Cue	Neutral	True
216.764	4.0	Control	0.6522	0.0	No	2.786	0.0	n/a	NoResponse	0	n/a	n/a	1	22	Fixation	Neutral	True
220.763	0.18	Control	0.6522	0.001	No	2.786	-0.001	3.0	NoResponse	0	0.267	220.03	1	22	Target	Neutral	True
220.946	0.52	Control	0.6522	n/a	No	2.786	n/a	n/a	NoResponse	0	n/a	n/a	1	22	Blank	Neutral	True
221.03	0.3	Control	0.6522	0.001	No	2.786	-0.001	3.0	NoResponse	0	0.267	n/a	1	22	ButtonPress	Neutral	True
221.462	1.45	Control	0.6522	n/a	No	2.786	n/a	5.0	NoResponse	0	0.025	220.487	1	22	Feedback	Neutral	True
222.912	2.786	Control	0.6522	n/a	No	2.786	n/a	n/a	NoResponse	0	0.0	n/a	1	22	ISIslide	Neutral	True
225.728	0.25	Control	0.625	0.0	No	2.772	0.028	n/a	NoResponse	0	n/a	n/a	1	23	Cue	Neutral	True
225.977	3.9	Control	0.625	0.001	No	2.772	-0.001	n/a	NoResponse	0	n/a	n/a	1	23	Fixation	Neutral	True
229.876	0.19	Control	0.625	0.002	No	2.772	-0.002	3.0	NoResponse	0	0.26	229.136	1	23	Target	Neutral	True
230.076	0.51	Control	0.625	n/a	No	2.772	n/a	n/a	NoResponse	0	n/a	n/a	1	23	Blank	Neutral	True
230.136	0.3	Control	0.625	0.002	No	2.772	-0.002	3.0	NoResponse	0	0.26	n/a	1	23	ButtonPress	Neutral	True
230.576	1.45	Control	0.625	n/a	No	2.772	n/a	5.0	NoResponse	0	0.033	229.609	1	23	Feedback	Neutral	True
232.025	2.772	Control	0.625	n/a	No	2.772	n/a	n/a	NoResponse	0	0.0	n/a	1	23	ISIslide	Neutral	True
234.824	0.25	Win2	0.6	0.0	No	3.126	0.024	n/a	NoResponse	0	n/a	n/a	1	24	Cue	MissedWin	True
235.074	3.95	Win2	0.6	0.0	No	3.126	0.0	n/a	NoResponse	0	n/a	n/a	1	24	Fixation	MissedWin	True
239.023	0.2	Win2	0.6	0.001	No	3.126	-0.001	3.0	NoResponse	0	0.233	238.256	1	24	Target	MissedWin	True
239.223	0.5	Win2	0.6	n/a	No	3.126	n/a	n/a	NoResponse	0	n/a	n/a	1	24	Blank	MissedWin	True
239.256	0.3	Win2	0.6	0.001	No	3.126	-0.001	3.0	NoResponse	0	0.233	n/a	1	24	ButtonPress	MissedWin	True
239.723	1.45	Win2	0.6	n/a	No	3.126	n/a	5.0	NoResponse	0	0.008	238.731	1	24	Feedback	MissedWin	True
241.172	3.126	Win2	0.6	n/a	No	3.126	n/a	n/a	NoResponse	0	0.0	n/a	1	24	ISIslide	MissedWin	True
244.321	0.25	Win2	0.5769	0.0	No	3.079	0.021	n/a	NoResponse	0	n/a	n/a	1	25	Cue	MissedWin	True
244.571	4.0	Win2	0.5769	0.0	No	3.079	0.0	n/a	NoResponse	0	n/a	n/a	1	25	Fixation	MissedWin	True
248.569	0.21	Win2	0.5769	0.002	No	3.079	-0.002	3.0	NoResponse	0	0.225	247.794	1	25	Target	MissedWin	True
248.786	0.49	Win2	0.5769	n/a	No	3.079	n/a	n/a	NoResponse	0	n/a	n/a	1	25	Blank	MissedWin	True
248.794	0.3	Win2	0.5769	0.002	No	3.079	-0.002	3.0	NoResponse	0	0.225	n/a	1	25	ButtonPress	MissedWin	True
249.269	1.45	Win2	0.5769	n/a	No	3.079	n/a	5.0	NoResponse	0	0.022	248.291	1	25	Feedback	MissedWin	True
250.719	3.079	Win2	0.5769	n/a	No	3.079	n/a	n/a	NoResponse	0	0.0	n/a	1	25	ISIslide	MissedWin	True
253.818	0.25	Win2	0.5926	0.0	Yes	2.932	0.018	n/a	GoodResponse	1	n/a	n/a	2	26	Cue	Win	True
254.067	3.95	Win2	0.5926	0.001	Yes	2.932	-0.001	n/a	GoodResponse	1	n/a	n/a	2	26	Fixation	Win	True
258.016	0.22	Win2	0.5926	0.002	Yes	2.932	-0.002	3.0	GoodResponse	1	0.204	257.22	2	26	Target	Win	True
258.22	0.3	Win2	0.5926	0.002	Yes	2.932	-0.002	3.0	GoodResponse	1	0.204	n/a	2	26	ButtonPress	Win	True
258.249	0.48	Win2	0.5926	n/a	Yes	2.932	n/a	n/a	GoodResponse	1	n/a	n/a	2	26	Blank	Win	True
258.716	1.45	Win2	0.5926	n/a	Yes	2.932	n/a	5.0	GoodResponse	1	0.038	257.754	2	26	Feedback	Win	True
260.165	2.932	Win2	0.5926	n/a	Yes	2.932	n/a	n/a	GoodResponse	1	0.0	n/a	2	26	ISIslide	Win	True
263.114	0.25	Lose2	0.5714	0.0	No	2.836	0.014	n/a	LatePress	-1	n/a	n/a	1	27	Cue	Loss	True
263.364	4.05	Lose2	0.5714	0.0	No	2.836	0.0	n/a	LatePress	-1	n/a	n/a	1	27	Fixation	Loss	True
267.413	0.23	Lose2	0.5714	0.001	No	2.836	-0.001	3.0	LatePress	-1	0.23	266.643	1	27	Target	Loss	True
267.643	0.3	Lose2	0.5714	0.001	No	2.836	-0.001	3.0	LatePress	-1	0.23	n/a	1	27	ButtonPress	Loss	True
267.646	0.47	Lose2	0.5714	n/a	No	2.836	n/a	n/a	LatePress	-1	n/a	n/a	1	27	Blank	Loss	True
268.112	1.45	Lose2	0.5714	n/a	No	2.836	n/a	5.0	LatePress	-1	0.008	267.12	1	27	Feedback	Loss	True
269.562	2.836	Lose2	0.5714	n/a	No	2.836	n/a	n/a	LatePress	-1	0.0	n/a	1	27	ISIslide	Loss	True
272.428	0.25	Control	0.5517	0.0	No	2.822	0.028	n/a	NoResponse	0	n/a	n/a	1	28	Cue	Neutral	True
272.677	4.05	Control	0.5517	0.001	No	2.822	-0.001	n/a	NoResponse	0	n/a	n/a	1	28	Fixation	Neutral	True
276.726	0.24	Control	0.5517	0.002	No	2.822	-0.002	3.0	NoResponse	0	0.265	275.991	1	28	Target	Neutral	True
276.976	0.46	Control	0.5517	n/a	No	2.822	n/a	n/a	NoResponse	0	n/a	n/a	1	28	Blank	Neutral	True
276.991	0.3	Control	0.5517	0.002	No	2.822	-0.002	3.0	NoResponse	0	0.265	n/a	1	28	ButtonPress	Neutral	True
277.426	1.45	Control	0.5517	n/a	No	2.822	n/a	5.0	NoResponse	0	0.012	276.438	1	28	Feedback	Neutral	True
278.875	2.822	Control	0.5517	n/a	No	2.822	n/a	n/a	NoResponse	0	0.0	n/a	1	28	ISIslide	Neutral	True
281.724	0.25	Lose2	0.5667	0.0	Yes	2.826	0.024	n/a	GoodResponse	0	n/a	n/a	1	29	Cue	AvoidedLoss	True
281.974	3.95	Lose2	0.5667	0.0	Yes	2.826	0.0	n/a	GoodResponse	0	n/a	n/a	1	29	Fixation	AvoidedLoss	True
285.923	0.25	Lose2	0.5667	0.001	Yes	2.826	-0.001	3.0	GoodResponse	0	0.238	285.161	1	29	Target	AvoidedLoss	True
286.161	0.3	Lose2	0.5667	0.001	Yes	2.826	-0.001	3.0	GoodResponse	0	0.238	n/a	1	29	ButtonPress	AvoidedLoss	True
286.173	0.45	Lose2	0.5667	n/a	Yes	2.826	n/a	n/a	GoodResponse	0	n/a	n/a	1	29	Blank	AvoidedLoss	True
286.623	1.45	Lose2	0.5667	n/a	Yes	2.826	n/a	5.0	GoodResponse	0	0.033	285.656	1	29	Feedback	AvoidedLoss	True
288.072	2.826	Lose2	0.5667	n/a	Yes	2.826	n/a	n/a	GoodResponse	0	0.0	n/a	1	29	ISIslide	AvoidedLoss	True
290.921	0.25	Win2	0.5484	0.0	No	2.779	0.021	n/a	NoResponse	0	n/a	n/a	1	30	Cue	MissedWin	True
291.171	3.9	Win2	0.5484	0.0	No	2.779	0.0	n/a	NoResponse	0	n/a	n/a	1	30	Fixation	MissedWin	True
295.07	0.26	Win2	0.5484	0.001	No	2.779	-0.001	3.0	NoResponse	0	0.28	294.35	1	30	Target	MissedWin	True
295.336	0.44	Win2	0.5484	n/a	No	2.779	n/a	n/a	NoResponse	0	n/a	n/a	1	30	Blank	MissedWin	True
295.35	0.3	Win2	0.5484	0.001	No	2.779	-0.001	3.0	NoResponse	0	0.28	n/a	1	30	ButtonPress	MissedWin	True
295.769	1.45	Win2	0.5484	n/a	No	2.779	n/a	5.0	NoResponse	0	0.009	294.778	1	30	Feedback	MissedWin	True
297.219	2.779	Win2	0.5484	n/a	No	2.779	n/a	n/a	NoResponse	0	0.0	n/a	1	30	ISIslide	MissedWin	True
300.018	0.25	Lose2	0.5625	0.0	Yes	2.832	0.018	n/a	GoodResponse	0	n/a	n/a	1	31	Cue	AvoidedLoss	True
300.268	4.05	Lose2	0.5625	0.0	Yes	2.832	0.0	n/a	GoodResponse	0	n/a	n/a	1	31	Fixation	AvoidedLoss	True
304.316	0.27	Lose2	0.5625	0.002	Yes	2.832	-0.002	3.0	GoodResponse	0	0.222	303.538	1	31	Target	AvoidedLoss	True
304.538	0.3	Lose2	0.5625	0.002	Yes	2.832	-0.002	3.0	GoodResponse	0	0.222	n/a	1	31	ButtonPress	AvoidedLoss	True
304.599	0.43	Lose2	0.5625	n/a	Yes	2.832	n/a	n/a	GoodResponse	0	n/a	n/a	1	31	Blank	AvoidedLoss	True
305.016	1.45	Lose2	0.5625	n/a	Yes	2.832	n/a	5.0	GoodResponse	0	0.031	304.047	1	31	Feedback	AvoidedLoss	True
306.465	2.832	Lose2	0.5625	n/a	Yes	2.832	n/a	n/a	GoodResponse	0	0.0	n/a	1	31	ISIslide	AvoidedLoss	True
309.314	0.25	Lose2	0.5758	0.001	Yes	2.636	0.014	n/a	GoodResponse	0	n/a	n/a	1	32	Cue	AvoidedLoss	True
309.564	4.15	Lose2	0.5758	0.0	Yes	2.636	0.0	n/a	GoodResponse	0	n/a	n/a	1	32	Fixation	AvoidedLoss	True
313.713	0.28	Lose2	0.5758	0.001	Yes	2.636	-0.001	3.0	GoodResponse	0	0.275	312.988	1	32	Target	AvoidedLoss	True
313.988	0.3	Lose2	0.5758	0.001	Yes	2.636	-0.001	3.0	GoodResponse	0	0.275	n/a	1	32	ButtonPress	AvoidedLoss	True
313.996	0.42	Lose2	0.5758	n/a	Yes	2.636	n/a	n/a	GoodResponse	0	n/a	n/a	1	32	Blank	AvoidedLoss	True
314.413	1.45	Lose2	0.5758	n/a	Yes	2.636	n/a	5.0	GoodResponse	0	0.048	313.461	1	32	Feedback	AvoidedLoss	True
315.862	2.636	Lose2	0.5758	n/a	Yes	2.636	n/a	n/a	GoodResponse	0	0.0	n/a	1	32	ISIslide	AvoidedLoss	True
318.528	0.25	Win2	0.5588000000000001	0.0	No	2.672	0.028	n/a	LatePress	0	n/a	n/a	1	33	Cue	MissedWin	True
318.778	4.0	Win2	0.5588000000000001	0.0	No	2.672	0.0	n/a	LatePress	0	n/a	n/a	1	33	Fixation	MissedWin	True
322.776	0.29	Win2	0.5588000000000001	0.002	No	2.672	-0.002	3.0	LatePress	0	0.3	322.076	1	33	Target	MissedWin	True
323.076	0.41	Win2	0.5588000000000001	n/a	No	2.672	n/a	n/a	LatePress	0	n/a	n/a	1	33	Blank	MissedWin	True
323.076	0.3	Win2	0.5588000000000001	0.002	No	2.672	-0.002	3.0	LatePress	0	0.3	n/a	1	33	ButtonPress	MissedWin	True
323.476	1.45	Win2	0.5588000000000001	n/a	No	2.672	n/a	5.0	LatePress	0	0.009	322.485	1	33	Feedback	MissedWin	True
324.926	2.672	Win2	0.5588000000000001	n/a	No	2.672	n/a	n/a	LatePress	0	0.0	n/a	1	33	ISIslide	MissedWin	True
327.625	0.25	Lose2	0.5714	0.0	Yes	2.625	0.025	n/a	GoodResponse	0	n/a	n/a	1	34	Cue	AvoidedLoss	True
327.875	4.05	Lose2	0.5714	0.0	Yes	2.625	0.0	n/a	GoodResponse	0	n/a	n/a	1	34	Fixation	AvoidedLoss	True
331.923	0.3	Lose2	0.5714	0.002	Yes	2.625	-0.002	3.0	GoodResponse	0	0.283	331.206	1	34	Target	AvoidedLoss	True
332.206	0.3	Lose2	0.5714	0.002	Yes	2.625	-0.002	3.0	GoodResponse	0	0.283	n/a	1	34	ButtonPress	AvoidedLoss	True
332.223	0.4	Lose2	0.5714	n/a	Yes	2.625	n/a	n/a	GoodResponse	0	n/a	n/a	1	34	Blank	AvoidedLoss	True
332.623	1.45	Lose2	0.5714	n/a	Yes	2.625	n/a	5.0	GoodResponse	0	0.033	331.656	1	34	Feedback	AvoidedLoss	True
334.072	2.625	Lose2	0.5714	n/a	Yes	2.625	n/a	n/a	GoodResponse	0	0.0	n/a	1	34	ISIslide	AvoidedLoss	True
336.721	0.25	Lose2	0.5832999999999999	0.0	Yes	2.679	0.021	n/a	GoodResponse	0	n/a	n/a	1	35	Cue	AvoidedLoss	True
336.971	4.0	Lose2	0.5832999999999999	0.0	Yes	2.679	0.0	n/a	GoodResponse	0	n/a	n/a	1	35	Fixation	AvoidedLoss	True
340.97	0.31	Lose2	0.5832999999999999	0.001	Yes	2.679	-0.001	3.0	GoodResponse	0	0.239	340.209	1	35	Target	AvoidedLoss	True
341.209	0.3	Lose2	0.5832999999999999	0.001	Yes	2.679	-0.001	3.0	GoodResponse	0	0.239	n/a	1	35	ButtonPress	AvoidedLoss	True
341.286	0.39	Lose2	0.5832999999999999	n/a	Yes	2.679	n/a	n/a	GoodResponse	0	n/a	n/a	1	35	Blank	AvoidedLoss	True
341.67	1.45	Lose2	0.5832999999999999	n/a	Yes	2.679	n/a	5.0	GoodResponse	0	0.01	340.68	1	35	Feedback	AvoidedLoss	True
343.119	2.679	Lose2	0.5832999999999999	n/a	Yes	2.679	n/a	n/a	GoodResponse	0	0.0	n/a	1	35	ISIslide	AvoidedLoss	True
345.818	0.25	Control	0.5946	0.0	Yes	2.682	0.018	n/a	GoodResponse	0	n/a	n/a	1	36	Cue	Neutral	True
346.068	4.0	Control	0.5946	0.0	Yes	2.682	0.0	n/a	GoodResponse	0	n/a	n/a	1	36	Fixation	Neutral	True
350.067	0.32	Control	0.5946	0.001	Yes	2.682	-0.001	3.0	GoodResponse	0	0.228	349.295	1	36	Target	Neutral	True
350.295	0.3	Control	0.5946	0.001	Yes	2.682	-0.001	3.0	GoodResponse	0	0.228	n/a	1	36	ButtonPress	Neutral	True
350.4	0.38	Control	0.5946	n/a	Yes	2.682	n/a	n/a	GoodResponse	0	n/a	n/a	1	36	Blank	Neutral	True
350.766	1.45	Control	0.5946	n/a	Yes	2.682	n/a	5.0	GoodResponse	0	0.036	349.802	1	36	Feedback	Neutral	True
352.216	2.682	Control	0.5946	n/a	Yes	2.682	n/a	n/a	GoodResponse	0	0.0	n/a	1	36	ISIslide	Neutral	True
354.915	0.25	Win2	0.6053000000000001	0.0	Yes	2.885	0.015	n/a	GoodResponse	1	n/a	n/a	2	37	Cue	Win	True
355.165	4.0	Win2	0.6053000000000001	0.0	Yes	2.885	0.0	n/a	GoodResponse	1	n/a	n/a	2	37	Fixation	Win	True
359.163	0.33	Win2	0.6053000000000001	0.002	Yes	2.885	-0.002	3.0	GoodResponse	1	0.217	358.38	2	37	Target	Win	True
359.38	0.3	Win2	0.6053000000000001	0.002	Yes	2.885	-0.002	3.0	GoodResponse	1	0.217	n/a	2	37	ButtonPress	Win	True
359.497	0.37	Win2	0.6053000000000001	n/a	Yes	2.885	n/a	n/a	GoodResponse	1	n/a	n/a	2	37	Blank	Win	True
359.863	1.45	Win2	0.6053000000000001	n/a	Yes	2.885	n/a	5.0	GoodResponse	1	0.012	358.875	2	37	Feedback	Win	True
361.313	2.885	Win2	0.6053000000000001	n/a	Yes	2.885	n/a	n/a	GoodResponse	1	0.0	n/a	2	37	ISIslide	Win	True
364.228	0.25	Lose2	0.6154	0.0	Yes	2.822	0.028	n/a	GoodResponse	0	n/a	n/a	2	38	Cue	AvoidedLoss	True
364.478	3.95	Lose2	0.6154	0.0	Yes	2.822	0.0	n/a	GoodResponse	0	n/a	n/a	2	38	Fixation	AvoidedLoss	True
368.427	0.34	Lose2	0.6154	0.001	Yes	2.822	-0.001	3.0	GoodResponse	0	0.226	367.653	2	38	Target	AvoidedLoss	True
368.653	0.3	Lose2	0.6154	0.001	Yes	2.822	-0.001	3.0	GoodResponse	0	0.226	n/a	2	38	ButtonPress	AvoidedLoss	True
368.777	0.36	Lose2	0.6154	n/a	Yes	2.822	n/a	n/a	GoodResponse	0	n/a	n/a	2	38	Blank	AvoidedLoss	True
369.127	1.45	Lose2	0.6154	n/a	Yes	2.822	n/a	5.0	GoodResponse	0	0.016	368.143	2	38	Feedback	AvoidedLoss	True
370.576	2.822	Lose2	0.6154	n/a	Yes	2.822	n/a	n/a	GoodResponse	0	0.0	n/a	2	38	ISIslide	AvoidedLoss	True
373.425	0.25	Win2	0.625	0.0	Yes	2.975	0.025	n/a	GoodResponse	1	n/a	n/a	3	39	Cue	Win	True
373.675	4.1	Win2	0.625	0.0	Yes	2.975	0.0	n/a	GoodResponse	1	n/a	n/a	3	39	Fixation	Win	True
377.773	0.35	Win2	0.625	0.002	Yes	2.975	-0.002	3.0	GoodResponse	1	0.23	377.003	3	39	Target	Win	True
378.003	0.3	Win2	0.625	0.002	Yes	2.975	-0.002	3.0	GoodResponse	1	0.23	n/a	3	39	ButtonPress	Win	True
378.123	0.35	Win2	0.625	n/a	Yes	2.975	n/a	n/a	GoodResponse	1	n/a	n/a	3	39	Blank	Win	True
378.473	1.45	Win2	0.625	n/a	Yes	2.975	n/a	5.0	GoodResponse	1	0.036	377.509	3	39	Feedback	Win	True
379.923	2.975	Win2	0.625	n/a	Yes	2.975	n/a	n/a	GoodResponse	1	0.0	n/a	3	39	ISIslide	Win	True
382.922	0.25	Win2	0.6341	0.0	Yes	2.728	0.022	n/a	GoodResponse	1	n/a	n/a	4	40	Cue	Win	True
383.172	3.95	Win2	0.6341	0.0	Yes	2.728	0.0	n/a	GoodResponse	1	n/a	n/a	4	40	Fixation	Win	True
387.12	0.36	Win2	0.6341	0.002	Yes	2.728	-0.002	3.0	GoodResponse	1	0.252	386.372	4	40	Target	Win	True
387.372	0.3	Win2	0.6341	0.002	Yes	2.728	-0.002	3.0	GoodResponse	1	0.252	n/a	4	40	ButtonPress	Win	True
387.487	0.34	Win2	0.6341	n/a	Yes	2.728	n/a	n/a	GoodResponse	1	n/a	n/a	4	40	Blank	Win	True
387.82	1.45	Win2	0.6341	n/a	Yes	2.728	n/a	5.0	GoodResponse	1	0.007	386.827	4	40	Feedback	Win	True
389.269	2.728	Win2	0.6341	n/a	Yes	2.728	n/a	n/a	GoodResponse	1	0.0	n/a	4	40	ISIslide	Win	True
392.018	0.25	Win2	0.6429	0.0	Yes	2.782	0.018	n/a	GoodResponse	1	n/a	n/a	5	41	Cue	Win	True
392.268	3.9	Win2	0.6429	0.0	Yes	2.782	0.0	n/a	GoodResponse	1	n/a	n/a	5	41	Fixation	Win	True
396.167	0.37	Win2	0.6429	0.001	Yes	2.782	-0.001	3.0	GoodResponse	1	0.214	395.381	5	41	Target	Win	True
396.381	0.3	Win2	0.6429	0.001	Yes	2.782	-0.001	3.0	GoodResponse	1	0.214	n/a	5	41	ButtonPress	Win	True
396.533	0.33	Win2	0.6429	n/a	Yes	2.782	n/a	n/a	GoodResponse	1	n/a	n/a	5	41	Blank	Win	True
396.867	1.45	Win2	0.6429	n/a	Yes	2.782	n/a	5.0	GoodResponse	1	0.031	395.898	5	41	Feedback	Win	True
398.316	2.782	Win2	0.6429	n/a	Yes	2.782	n/a	n/a	GoodResponse	1	0.0	n/a	5	41	ISIslide	Win	True
401.115	0.25	Control	0.6512	0.0	Yes	2.935	0.015	n/a	GoodResponse	0	n/a	n/a	5	42	Cue	Neutral	True
401.365	3.85	Control	0.6512	0.0	Yes	2.935	0.0	n/a	GoodResponse	0	n/a	n/a	5	42	Fixation	Neutral	True
405.214	0.38	Control	0.6512	0.001	Yes	2.935	-0.001	3.0	GoodResponse	0	0.245	404.459	5	42	Target	Neutral	True
405.459	0.3	Control	0.6512	0.001	Yes	2.935	-0.001	3.0	GoodResponse	0	0.245	n/a	5	42	ButtonPress	Neutral	True
405.597	0.32	Control	0.6512	n/a	Yes	2.935	n/a	n/a	GoodResponse	0	n/a	n/a	5	42	Blank	Neutral	True
405.913	1.45	Control	0.6512	n/a	Yes	2.935	n/a	5.0	GoodResponse	0	0.01	404.923	5	42	Feedback	Neutral	True
407.363	2.935	Control	0.6512	n/a	Yes	2.935	n/a	n/a	GoodResponse	0	0.0	n/a	5	42	ISIslide	Neutral	True
410.329	0.25	Win2	0.6591	0.0	Yes	3.171	0.029	n/a	GoodResponse	1	n/a	n/a	6	43	Cue	Win	True
410.578	4.0	Win2	0.6591	0.001	Yes	3.171	-0.001	n/a	GoodResponse	1	n/a	n/a	6	43	Fixation	Win	True
414.577	0.39	Win2	0.6591	0.002	Yes	3.171	-0.002	3.0	GoodResponse	1	0.288	413.865	6	43	Target	Win	True
414.865	0.3	Win2	0.6591	0.002	Yes	3.171	-0.002	3.0	GoodResponse	1	0.288	n/a	6	43	ButtonPress	Win	True
414.977	0.31	Win2	0.6591	n/a	Yes	3.171	n/a	n/a	GoodResponse	1	n/a	n/a	6	43	Blank	Win	True
415.277	1.45	Win2	0.6591	n/a	Yes	3.171	n/a	5.0	GoodResponse	1	0.012	414.289	6	43	Feedback	Win	True
416.726	3.171	Win2	0.6591	n/a	Yes	3.171	n/a	n/a	GoodResponse	1	0.0	n/a	6	43	ISIslide	Win	True
419.925	0.25	Win2	0.6667000000000001	0.0	Yes	2.975	0.025	n/a	GoodResponse	1	n/a	n/a	7	44	Cue	Win	True
420.175	4.0	Win2	0.6667000000000001	0.0	Yes	2.975	0.0	n/a	GoodResponse	1	n/a	n/a	7	44	Fixation	Win	True
424.174	0.39	Win2	0.6667000000000001	0.001	Yes	2.975	-0.001	3.0	GoodResponse	1	0.28	423.454	7	44	Target	Win	True
424.454	0.3	Win2	0.6667000000000001	0.001	Yes	2.975	-0.001	3.0	GoodResponse	1	0.28	n/a	7	44	ButtonPress	Win	True
424.573	0.31	Win2	0.6667000000000001	n/a	Yes	2.975	n/a	n/a	GoodResponse	1	n/a	n/a	7	44	Blank	Win	True
424.873	1.45	Win2	0.6667000000000001	n/a	Yes	2.975	n/a	5.0	GoodResponse	1	0.026	423.899	7	44	Feedback	Win	True
426.323	2.975	Win2	0.6667000000000001	n/a	Yes	2.975	n/a	n/a	GoodResponse	1	0.0	n/a	7	44	ISIslide	Win	True
429.322	0.25	Control	0.6739	0.0	Yes	2.878	0.022	n/a	GoodResponse	0	n/a	n/a	7	45	Cue	Neutral	True
429.572	4.1	Control	0.6739	0.0	Yes	2.878	0.0	n/a	GoodResponse	0	n/a	n/a	7	45	Fixation	Neutral	True
433.67	0.38	Control	0.6739	0.002	Yes	2.878	-0.002	3.0	GoodResponse	0	0.223	432.893	7	45	Target	Neutral	True
433.893	0.3	Control	0.6739	0.002	Yes	2.878	-0.002	3.0	GoodResponse	0	0.223	n/a	7	45	ButtonPress	Neutral	True
434.053	0.32	Control	0.6739	n/a	Yes	2.878	n/a	n/a	GoodResponse	0	n/a	n/a	7	45	Blank	Neutral	True
434.37	1.45	Control	0.6739	n/a	Yes	2.878	n/a	5.0	GoodResponse	0	0.04	433.41	7	45	Feedback	Neutral	True
435.819	2.878	Control	0.6739	n/a	Yes	2.878	n/a	n/a	GoodResponse	0	0.0	n/a	7	45	ISIslide	Neutral	True
438.718	0.25	Lose2	0.6809000000000001	0.001	Yes	3.382	0.018	n/a	GoodResponse	0	n/a	n/a	7	46	Cue	AvoidedLoss	True
438.968	4.0	Lose2	0.6809000000000001	0.0	Yes	3.382	0.0	n/a	GoodResponse	0	n/a	n/a	7	46	Fixation	AvoidedLoss	True
442.967	0.37	Lose2	0.6809000000000001	0.001	Yes	3.382	-0.001	3.0	GoodResponse	0	0.295	442.262	7	46	Target	AvoidedLoss	True
443.262	0.3	Lose2	0.6809000000000001	0.001	Yes	3.382	-0.001	3.0	GoodResponse	0	0.295	n/a	7	46	ButtonPress	AvoidedLoss	True
443.333	0.33	Lose2	0.6809000000000001	n/a	Yes	3.382	n/a	n/a	GoodResponse	0	n/a	n/a	7	46	Blank	AvoidedLoss	True
443.667	1.45	Lose2	0.6809000000000001	n/a	Yes	3.382	n/a	5.0	GoodResponse	0	0.012	442.679	7	46	Feedback	AvoidedLoss	True
445.116	3.382	Lose2	0.6809000000000001	n/a	Yes	3.382	n/a	n/a	GoodResponse	0	0.0	n/a	7	46	ISIslide	AvoidedLoss	True
448.515	0.25	Lose2	0.6875	0.0	Yes	2.685	0.015	n/a	GoodResponse	0	n/a	n/a	7	47	Cue	AvoidedLoss	True
448.765	4.0	Lose2	0.6875	0.0	Yes	2.685	0.0	n/a	GoodResponse	0	n/a	n/a	7	47	Fixation	AvoidedLoss	True
452.763	0.36	Lose2	0.6875	0.002	Yes	2.685	-0.002	3.0	GoodResponse	0	0.349	452.112	7	47	Target	AvoidedLoss	True
453.112	0.3	Lose2	0.6875	0.002	Yes	2.685	-0.002	3.0	GoodResponse	0	0.349	n/a	7	47	ButtonPress	AvoidedLoss	True
453.13	0.34	Lose2	0.6875	n/a	Yes	2.685	n/a	n/a	GoodResponse	0	n/a	n/a	7	47	Blank	AvoidedLoss	True
453.463	1.45	Lose2	0.6875	n/a	Yes	2.685	n/a	5.0	GoodResponse	0	0.021	452.484	7	47	Feedback	AvoidedLoss	True
454.913	2.685	Lose2	0.6875	n/a	Yes	2.685	n/a	n/a	GoodResponse	0	0.0	n/a	7	47	ISIslide	AvoidedLoss	True
457.628	0.25	Lose2	0.6939	0.0	Yes	3.022	0.028	n/a	GoodResponse	0	n/a	n/a	7	48	Cue	AvoidedLoss	True
457.878	3.95	Lose2	0.6939	0.0	Yes	3.022	0.0	n/a	GoodResponse	0	n/a	n/a	7	48	Fixation	AvoidedLoss	True
461.827	0.35	Lose2	0.6939	0.001	Yes	3.022	-0.001	3.0	GoodResponse	0	0.343	461.17	7	48	Target	AvoidedLoss	True
462.17	0.3	Lose2	0.6939	0.001	Yes	3.022	-0.001	3.0	GoodResponse	0	0.343	n/a	7	48	ButtonPress	AvoidedLoss	True
462.177	0.35	Lose2	0.6939	n/a	Yes	3.022	n/a	n/a	GoodResponse	0	n/a	n/a	7	48	Blank	AvoidedLoss	True
462.527	1.45	Lose2	0.6939	n/a	Yes	3.022	n/a	5.0	GoodResponse	0	0.03	461.557	7	48	Feedback	AvoidedLoss	True
463.976	3.022	Lose2	0.6939	n/a	Yes	3.022	n/a	n/a	GoodResponse	0	0.0	n/a	7	48	ISIslide	AvoidedLoss	True
467.025	0.25	Control	0.7	0.0	Yes	2.875	0.025	n/a	GoodResponse	0	n/a	n/a	7	49	Cue	Neutral	True
467.275	4.0	Control	0.7	0.0	Yes	2.875	0.0	n/a	GoodResponse	0	n/a	n/a	7	49	Fixation	Neutral	True
471.274	0.34	Control	0.7	0.001	Yes	2.875	-0.001	3.0	GoodResponse	0	0.294	470.568	7	49	Target	Neutral	True
471.568	0.3	Control	0.7	0.001	Yes	2.875	-0.001	3.0	GoodResponse	0	0.294	n/a	7	49	ButtonPress	Neutral	True
471.623	0.36	Control	0.7	n/a	Yes	2.875	n/a	n/a	GoodResponse	0	n/a	n/a	7	49	Blank	Neutral	True
471.973	1.45	Control	0.7	n/a	Yes	2.875	n/a	5.0	GoodResponse	0	0.046	471.019	7	49	Feedback	Neutral	True
473.423	2.875	Control	0.7	n/a	Yes	2.875	n/a	n/a	GoodResponse	0	0.0	n/a	7	49	ISIslide	Neutral	True
476.322	0.25	Control	0.7059000000000001	0.0	Yes	2.778	0.022	n/a	GoodResponse	0	n/a	n/a	7	50	Cue	Neutral	True
476.572	4.0	Control	0.7059000000000001	0.0	Yes	2.778	0.0	n/a	GoodResponse	0	n/a	n/a	7	50	Fixation	Neutral	True
480.57	0.33	Control	0.7059000000000001	0.002	Yes	2.778	-0.002	3.0	GoodResponse	0	0.302	479.872	7	50	Target	Neutral	True
480.872	0.3	Control	0.7059000000000001	0.002	Yes	2.778	-0.002	3.0	GoodResponse	0	0.302	n/a	7	50	ButtonPress	Neutral	True
480.903	0.37	Control	0.7059000000000001	n/a	Yes	2.778	n/a	n/a	GoodResponse	0	n/a	n/a	7	50	Blank	Neutral	True
481.27	1.45	Control	0.7059000000000001	n/a	Yes	2.778	n/a	5.0	GoodResponse	0	0.018	480.288	7	50	Feedback	Neutral	True
482.719	2.778	Control	0.7059000000000001	n/a	Yes	2.778	n/a	n/a	GoodResponse	0	0.0	n/a	7	50	ISIslide	Neutral	True
485.518	0.25	Control	0.7115	0.001	Yes	2.732	0.018	n/a	GoodResponse	0	n/a	n/a	7	51	Cue	Neutral	True
485.768	3.95	Control	0.7115	0.0	Yes	2.732	0.0	n/a	GoodResponse	0	n/a	n/a	7	51	Fixation	Neutral	True
489.717	0.32	Control	0.7115	0.001	Yes	2.732	-0.001	3.0	GoodResponse	0	0.309	489.026	7	51	Target	Neutral	True
490.026	0.3	Control	0.7115	0.001	Yes	2.732	-0.001	3.0	GoodResponse	0	0.309	n/a	7	51	ButtonPress	Neutral	True
490.034	0.38	Control	0.7115	n/a	Yes	2.732	n/a	n/a	GoodResponse	0	n/a	n/a	7	51	Blank	Neutral	True
490.417	1.45	Control	0.7115	n/a	Yes	2.732	n/a	5.0	GoodResponse	0	0.042	489.459	7	51	Feedback	Neutral	True
491.866	2.732	Control	0.7115	n/a	Yes	2.732	n/a	n/a	GoodResponse	0	0.0	n/a	7	51	ISIslide	Neutral	True
494.615	0.25	Control	0.6981	0.0	No	2.635	0.015	n/a	NoResponse	0	n/a	n/a	7	52	Cue	Neutral	True
494.865	4.05	Control	0.6981	0.0	No	2.635	0.0	n/a	NoResponse	0	n/a	n/a	7	52	Fixation	Neutral	True
498.914	0.31	Control	0.6981	0.001	No	2.635	-0.001	3.0	NoResponse	0	0.335	498.249	7	52	Target	Neutral	True
499.23	0.39	Control	0.6981	n/a	No	2.635	n/a	n/a	NoResponse	0	n/a	n/a	7	52	Blank	Neutral	True
499.249	0.3	Control	0.6981	0.001	No	2.635	-0.001	3.0	NoResponse	0	0.335	n/a	7	52	ButtonPress	Neutral	True
499.613	1.45	Control	0.6981	n/a	No	2.635	n/a	5.0	NoResponse	0	0.016	498.629	7	52	Feedback	Neutral	True
501.063	2.635	Control	0.6981	n/a	No	2.635	n/a	n/a	NoResponse	0	0.0	n/a	7	52	ISIslide	Neutral	True
503.729	0.25	Win2	0.6851999999999999	0.0	No	2.921	0.029	n/a	NoResponse	0	n/a	n/a	7	53	Cue	MissedWin	True
503.979	4.05	Win2	0.6851999999999999	0.0	No	2.921	0.0	n/a	NoResponse	0	n/a	n/a	7	53	Fixation	MissedWin	True
508.027	0.3	Win2	0.6851999999999999	0.002	No	2.921	-0.002	3.0	NoResponse	0	0.392	507.419	7	53	Target	MissedWin	True
508.327	0.4	Win2	0.6851999999999999	n/a	No	2.921	n/a	n/a	NoResponse	0	n/a	n/a	7	53	Blank	MissedWin	True
508.419	0.3	Win2	0.6851999999999999	0.002	No	2.921	-0.002	3.0	NoResponse	0	0.392	n/a	7	53	ButtonPress	MissedWin	True
508.727	1.45	Win2	0.6851999999999999	n/a	No	2.921	n/a	5.0	NoResponse	0	0.023	507.75	7	53	Feedback	MissedWin	True
510.176	2.921	Win2	0.6851999999999999	n/a	No	2.921	n/a	n/a	NoResponse	0	0.0	n/a	7	53	ISIslide	MissedWin	True
513.125	0.25	Win2	0.6909000000000001	0.0	Yes	2.725	0.025	n/a	GoodResponse	1	n/a	n/a	8	54	Cue	Win	True
513.375	3.95	Win2	0.6909000000000001	0.0	Yes	2.725	0.0	n/a	GoodResponse	1	n/a	n/a	8	54	Fixation	Win	True
517.324	0.29	Win2	0.6909000000000001	0.001	Yes	2.725	-0.001	3.0	GoodResponse	1	0.236	516.56	8	54	Target	Win	True
517.56	0.3	Win2	0.6909000000000001	0.001	Yes	2.725	-0.001	3.0	GoodResponse	1	0.236	n/a	8	54	ButtonPress	Win	True
517.624	0.41	Win2	0.6909000000000001	n/a	Yes	2.725	n/a	n/a	GoodResponse	1	n/a	n/a	8	54	Blank	Win	True
518.024	1.45	Win2	0.6909000000000001	n/a	Yes	2.725	n/a	5.0	GoodResponse	1	0.044	517.068	8	54	Feedback	Win	True
519.473	2.725	Win2	0.6909000000000001	n/a	Yes	2.725	n/a	n/a	GoodResponse	1	0.0	n/a	8	54	ISIslide	Win	True
522.222	0.25	Control	0.6964	0.0	Yes	3.028	0.022	n/a	GoodResponse	0	n/a	n/a	8	55	Cue	Neutral	True
522.472	3.95	Control	0.6964	0.0	Yes	3.028	0.0	n/a	GoodResponse	0	n/a	n/a	8	55	Fixation	Neutral	True
526.421	0.28	Control	0.6964	0.001	Yes	3.028	-0.001	3.0	GoodResponse	0	0.206	525.627	8	55	Target	Neutral	True
526.627	0.3	Control	0.6964	0.001	Yes	3.028	-0.001	3.0	GoodResponse	0	0.206	n/a	8	55	ButtonPress	Neutral	True
526.704	0.42	Control	0.6964	n/a	Yes	3.028	n/a	n/a	GoodResponse	0	n/a	n/a	8	55	Blank	Neutral	True
527.12	1.45	Control	0.6964	n/a	Yes	3.028	n/a	5.0	GoodResponse	0	0.021	526.141	8	55	Feedback	Neutral	True
528.57	3.028	Control	0.6964	n/a	Yes	3.028	n/a	n/a	GoodResponse	0	0.0	n/a	8	55	ISIslide	Neutral	True
531.619	0.25	Control	0.7018000000000001	0.0	Yes	2.831	0.019	n/a	GoodResponse	0	n/a	n/a	8	56	Cue	Neutral	True
531.869	3.95	Control	0.7018000000000001	0.0	Yes	2.831	0.0	n/a	GoodResponse	0	n/a	n/a	8	56	Fixation	Neutral	True
535.817	0.27	Control	0.7018000000000001	0.002	Yes	2.831	-0.002	3.0	GoodResponse	0	0.235	535.052	8	56	Target	Neutral	True
536.052	0.3	Control	0.7018000000000001	0.002	Yes	2.831	-0.002	3.0	GoodResponse	0	0.235	n/a	8	56	ButtonPress	Neutral	True
536.1	0.43	Control	0.7018000000000001	n/a	Yes	2.831	n/a	n/a	GoodResponse	0	n/a	n/a	8	56	Blank	Neutral	True
536.517	1.45	Control	0.7018000000000001	n/a	Yes	2.831	n/a	5.0	GoodResponse	0	0.039	535.556	8	56	Feedback	Neutral	True
537.966	2.831	Control	0.7018000000000001	n/a	Yes	2.831	n/a	n/a	GoodResponse	0	0.0	n/a	8	56	ISIslide	Neutral	True
540.815	0.25	Control	0.7069	0.001	Yes	3.485	0.015	n/a	GoodResponse	0	n/a	n/a	8	57	Cue	Neutral	True
541.065	4.0	Control	0.7069	0.0	Yes	3.485	0.0	n/a	GoodResponse	0	n/a	n/a	8	57	Fixation	Neutral	True
545.064	0.26	Control	0.7069	0.001	Yes	3.485	-0.001	3.0	GoodResponse	0	0.231	544.295	8	57	Target	Neutral	True
545.295	0.3	Control	0.7069	0.001	Yes	3.485	-0.001	3.0	GoodResponse	0	0.231	n/a	8	57	ButtonPress	Neutral	True
545.33	0.44	Control	0.7069	n/a	Yes	3.485	n/a	n/a	GoodResponse	0	n/a	n/a	8	57	Blank	Neutral	True
545.764	1.45	Control	0.7069	n/a	Yes	3.485	n/a	5.0	GoodResponse	0	0.011	544.775	8	57	Feedback	Neutral	True
547.213	3.485	Control	0.7069	n/a	Yes	3.485	n/a	n/a	GoodResponse	0	0.0	n/a	8	57	ISIslide	Neutral	True
550.729	0.25	Win2	0.7119	0.0	Yes	2.721	0.029	n/a	GoodResponse	1	n/a	n/a	9	58	Cue	Win	True
550.978	4.05	Win2	0.7119	0.001	Yes	2.721	-0.001	n/a	GoodResponse	1	n/a	n/a	9	58	Fixation	Win	True
555.027	0.25	Win2	0.7119	0.002	Yes	2.721	-0.002	3.0	GoodResponse	1	0.223	554.25	9	58	Target	Win	True
555.25	0.3	Win2	0.7119	0.002	Yes	2.721	-0.002	3.0	GoodResponse	1	0.223	n/a	9	58	ButtonPress	Win	True
555.277	0.45	Win2	0.7119	n/a	Yes	2.721	n/a	n/a	GoodResponse	1	n/a	n/a	9	58	Blank	Win	True
555.727	1.45	Win2	0.7119	n/a	Yes	2.721	n/a	5.0	GoodResponse	1	0.048	554.775	9	58	Feedback	Win	True
557.176	2.721	Win2	0.7119	n/a	Yes	2.721	n/a	n/a	GoodResponse	1	0.0	n/a	9	58	ISIslide	Win	True
559.925	0.25	Lose2	0.7	0.0	No	2.675	0.025	n/a	LatePress	-1	n/a	n/a	8	59	Cue	Loss	True
560.175	4.0	Lose2	0.7	0.0	No	2.675	0.0	n/a	LatePress	-1	n/a	n/a	8	59	Fixation	Loss	True
564.174	0.24	Lose2	0.7	0.001	No	2.675	-0.001	3.0	LatePress	-1	0.247	563.421	8	59	Target	Loss	True
564.421	0.3	Lose2	0.7	0.001	No	2.675	-0.001	3.0	LatePress	-1	0.247	n/a	8	59	ButtonPress	Loss	True
564.424	0.46	Lose2	0.7	n/a	No	2.675	n/a	n/a	LatePress	-1	n/a	n/a	8	59	Blank	Loss	True
564.874	1.45	Lose2	0.7	n/a	No	2.675	n/a	5.0	LatePress	-1	0.023	563.897	8	59	Feedback	Loss	True
566.323	2.675	Lose2	0.7	n/a	No	2.675	n/a	n/a	LatePress	-1	0.0	n/a	8	59	ISIslide	Loss	True
569.022	0.25	Control	0.6884999999999999	0.0	No	2.678	0.022	n/a	NoResponse	0	n/a	n/a	8	60	Cue	Neutral	True
569.272	4.0	Control	0.6884999999999999	0.0	No	2.678	0.0	n/a	NoResponse	0	n/a	n/a	8	60	Fixation	Neutral	True
573.271	0.23	Control	0.6884999999999999	0.001	No	2.678	-0.001	3.0	NoResponse	0	0.312	572.583	8	60	Target	Neutral	True
573.504	0.47	Control	0.6884999999999999	n/a	No	2.678	n/a	n/a	NoResponse	0	n/a	n/a	8	60	Blank	Neutral	True
573.583	0.3	Control	0.6884999999999999	0.001	No	2.678	-0.001	3.0	NoResponse	0	0.312	n/a	8	60	ButtonPress	Neutral	True
573.97	1.45	Control	0.6884999999999999	n/a	No	2.678	n/a	5.0	NoResponse	0	0.049	573.019	8	60	Feedback	Neutral	True
575.42	2.678	Control	0.6884999999999999	n/a	No	2.678	n/a	n/a	NoResponse	0	0.0	n/a	8	60	ISIslide	Neutral	True
578.119	0.25	Lose2	0.6774	0.0	No	2.981	0.019	n/a	NoResponse	-1	n/a	n/a	7	61	Cue	Loss	True
578.369	4.0	Lose2	0.6774	0.0	No	2.981	0.0	n/a	NoResponse	-1	n/a	n/a	7	61	Fixation	Loss	True
582.367	0.22	Lose2	0.6774	0.002	No	2.981	-0.002	3.0	NoResponse	-1	0.248	581.615	7	61	Target	Loss	True
582.601	0.48	Lose2	0.6774	n/a	No	2.981	n/a	n/a	NoResponse	-1	n/a	n/a	7	61	Blank	Loss	True
582.615	0.3	Lose2	0.6774	0.002	No	2.981	-0.002	3.0	NoResponse	-1	0.248	n/a	7	61	ButtonPress	Loss	True
583.067	1.45	Lose2	0.6774	n/a	No	2.981	n/a	5.0	NoResponse	-1	0.025	582.092	7	61	Feedback	Loss	True
584.517	2.981	Lose2	0.6774	n/a	No	2.981	n/a	n/a	NoResponse	-1	0.0	n/a	7	61	ISIslide	Loss	True
587.515	0.25	Lose2	0.6667000000000001	0.001	No	2.885	0.015	n/a	NoResponse	-1	n/a	n/a	6	62	Cue	Loss	True
587.765	3.9	Lose2	0.6667000000000001	0.0	No	2.885	0.0	n/a	NoResponse	-1	n/a	n/a	6	62	Fixation	Loss	True
591.664	0.21	Lose2	0.6667000000000001	0.001	No	2.885	-0.001	3.0	NoResponse	-1	0.32	590.984	6	62	Target	Loss	True
591.881	0.49	Lose2	0.6667000000000001	n/a	No	2.885	n/a	n/a	NoResponse	-1	n/a	n/a	6	62	Blank	Loss	True
591.984	0.3	Lose2	0.6667000000000001	0.001	No	2.885	-0.001	3.0	NoResponse	-1	0.32	n/a	6	62	ButtonPress	Loss	True
592.364	1.45	Lose2	0.6667000000000001	n/a	No	2.885	n/a	5.0	NoResponse	-1	0.044	591.408	6	62	Feedback	Loss	True
593.813	2.885	Lose2	0.6667000000000001	n/a	No	2.885	n/a	n/a	NoResponse	-1	0.0	n/a	6	62	ISIslide	Loss	True
596.729	0.25	Lose2	0.6562	0.0	No	2.621	0.029	n/a	NoResponse	-1	n/a	n/a	5	63	Cue	Loss	True
596.979	4.05	Lose2	0.6562	0.0	No	2.621	0.0	n/a	NoResponse	-1	n/a	n/a	5	63	Fixation	Loss	True
601.027	0.2	Lose2	0.6562	0.002	No	2.621	-0.002	3.0	NoResponse	-1	0.277	600.304	5	63	Target	Loss	True
601.227	0.5	Lose2	0.6562	n/a	No	2.621	n/a	n/a	NoResponse	-1	n/a	n/a	5	63	Blank	Loss	True
601.304	0.3	Lose2	0.6562	0.002	No	2.621	-0.002	3.0	NoResponse	-1	0.277	n/a	5	63	ButtonPress	Loss	True
601.727	1.45	Lose2	0.6562	n/a	No	2.621	n/a	5.0	NoResponse	-1	0.047	600.774	5	63	Feedback	Loss	True
603.177	2.621	Lose2	0.6562	n/a	No	2.621	n/a	n/a	NoResponse	-1	0.0	n/a	5	63	ISIslide	Loss	True
605.826	0.25	Win2	0.6462	0.0	No	3.124	0.026	n/a	NoResponse	0	n/a	n/a	5	64	Cue	MissedWin	True
606.076	4.15	Win2	0.6462	0.0	No	3.124	0.0	n/a	NoResponse	0	n/a	n/a	5	64	Fixation	MissedWin	True
610.224	0.2	Win2	0.6462	0.002	No	3.124	-0.002	3.0	NoResponse	0	0.236	609.46	5	64	Target	MissedWin	True
610.424	0.5	Win2	0.6462	n/a	No	3.124	n/a	n/a	NoResponse	0	n/a	n/a	5	64	Blank	MissedWin	True
610.46	0.3	Win2	0.6462	0.002	No	3.124	-0.002	3.0	NoResponse	0	0.236	n/a	5	64	ButtonPress	MissedWin	True
610.924	1.45	Win2	0.6462	n/a	No	3.124	n/a	5.0	NoResponse	0	0.021	609.945	5	64	Feedback	MissedWin	True
612.373	3.124	Win2	0.6462	n/a	No	3.124	n/a	n/a	NoResponse	0	0.0	n/a	5	64	ISIslide	MissedWin	True
615.522	0.25	Control	0.6364	0.0	No	2.778	0.022	n/a	NoResponse	0	n/a	n/a	5	65	Cue	Neutral	True
615.772	4.0	Control	0.6364	0.0	No	2.778	0.0	n/a	NoResponse	0	n/a	n/a	5	65	Fixation	Neutral	True
619.771	0.21	Control	0.6364	0.001	No	2.778	-0.001	3.0	NoResponse	0	0.248	619.019	5	65	Target	Neutral	True
619.987	0.49	Control	0.6364	n/a	No	2.778	n/a	n/a	NoResponse	0	n/a	n/a	5	65	Blank	Neutral	True
620.019	0.3	Control	0.6364	0.001	No	2.778	-0.001	3.0	NoResponse	0	0.248	n/a	5	65	ButtonPress	Neutral	True
620.47	1.45	Control	0.6364	n/a	No	2.778	n/a	5.0	NoResponse	0	0.036	619.506	5	65	Feedback	Neutral	True
621.92	2.778	Control	0.6364	n/a	No	2.778	n/a	n/a	NoResponse	0	0.0	n/a	5	65	ISIslide	Neutral	True
624.719	0.25	Win2	0.6418	0.0	Yes	2.781	0.019	n/a	GoodResponse	1	n/a	n/a	6	66	Cue	Win	True
624.969	3.9	Win2	0.6418	0.0	Yes	2.781	0.0	n/a	GoodResponse	1	n/a	n/a	6	66	Fixation	Win	True
628.867	0.22	Win2	0.6418	0.002	Yes	2.781	-0.002	3.0	GoodResponse	1	0.205	628.072	6	66	Target	Win	True
629.072	0.3	Win2	0.6418	0.002	Yes	2.781	-0.002	3.0	GoodResponse	1	0.205	n/a	6	66	ButtonPress	Win	True
629.101	0.48	Win2	0.6418	n/a	Yes	2.781	n/a	n/a	GoodResponse	1	n/a	n/a	6	66	Blank	Win	True
629.567	1.45	Win2	0.6418	n/a	Yes	2.781	n/a	5.0	GoodResponse	1	0.011	628.578	6	66	Feedback	Win	True
631.017	2.781	Win2	0.6418	n/a	Yes	2.781	n/a	n/a	GoodResponse	1	0.0	n/a	6	66	ISIslide	Win	True
633.816	0.25	Control	0.6470999999999999	0.0	Yes	2.734	0.016	n/a	GoodResponse	0	n/a	n/a	6	67	Cue	Neutral	True
634.066	3.95	Control	0.6470999999999999	0.0	Yes	2.734	0.0	n/a	GoodResponse	0	n/a	n/a	6	67	Fixation	Neutral	True
638.014	0.23	Control	0.6470999999999999	0.002	Yes	2.734	-0.002	3.0	GoodResponse	0	0.224	637.238	6	67	Target	Neutral	True
638.238	0.3	Control	0.6470999999999999	0.002	Yes	2.734	-0.002	3.0	GoodResponse	0	0.224	n/a	6	67	ButtonPress	Neutral	True
638.247	0.47	Control	0.6470999999999999	n/a	Yes	2.734	n/a	n/a	GoodResponse	0	n/a	n/a	6	67	Blank	Neutral	True
638.714	1.45	Control	0.6470999999999999	n/a	Yes	2.734	n/a	5.0	GoodResponse	0	0.035	637.749	6	67	Feedback	Neutral	True
640.163	2.734	Control	0.6470999999999999	n/a	Yes	2.734	n/a	n/a	GoodResponse	0	0.0	n/a	6	67	ISIslide	Neutral	True
642.912	0.25	Win2	0.6522	0.001	Yes	3.088	0.012	n/a	GoodResponse	1	n/a	n/a	7	68	Cue	Win	True
643.162	4.0	Win2	0.6522	0.0	Yes	3.088	0.0	n/a	GoodResponse	1	n/a	n/a	7	68	Fixation	Win	True
647.161	0.24	Win2	0.6522	0.001	Yes	3.088	-0.001	3.0	GoodResponse	1	0.217	646.378	7	68	Target	Win	True
647.378	0.3	Win2	0.6522	0.001	Yes	3.088	-0.001	3.0	GoodResponse	1	0.217	n/a	7	68	ButtonPress	Win	True
647.411	0.46	Win2	0.6522	n/a	Yes	3.088	n/a	n/a	GoodResponse	1	n/a	n/a	7	68	Blank	Win	True
647.861	1.45	Win2	0.6522	n/a	Yes	3.088	n/a	5.0	GoodResponse	1	0.01	646.871	7	68	Feedback	Win	True
649.31	3.088	Win2	0.6522	n/a	Yes	3.088	n/a	n/a	GoodResponse	1	0.0	n/a	7	68	ISIslide	Win	True
652.426	0.25	Win2	0.6429	0.0	No	3.224	0.026	n/a	NoResponse	0	n/a	n/a	7	69	Cue	MissedWin	True
652.676	3.95	Win2	0.6429	0.0	No	3.224	0.0	n/a	NoResponse	0	n/a	n/a	7	69	Fixation	MissedWin	True
656.624	0.25	Win2	0.6429	0.002	No	3.224	-0.002	3.0	NoResponse	0	0.264	655.888	7	69	Target	MissedWin	True
656.874	0.45	Win2	0.6429	n/a	No	3.224	n/a	n/a	NoResponse	0	n/a	n/a	7	69	Blank	MissedWin	True
656.888	0.3	Win2	0.6429	0.002	No	3.224	-0.002	3.0	NoResponse	0	0.264	n/a	7	69	ButtonPress	MissedWin	True
657.324	1.45	Win2	0.6429	n/a	No	3.224	n/a	5.0	NoResponse	0	0.011	656.335	7	69	Feedback	MissedWin	True
658.773	3.224	Win2	0.6429	n/a	No	3.224	n/a	n/a	NoResponse	0	0.0	n/a	7	69	ISIslide	MissedWin	True
662.022	0.25	Lose2	0.6338	0.0	No	3.028	0.022	n/a	NoResponse	-1	n/a	n/a	6	70	Cue	Loss	True
662.272	4.05	Lose2	0.6338	0.0	No	3.028	0.0	n/a	NoResponse	-1	n/a	n/a	6	70	Fixation	Loss	True
666.321	0.26	Lose2	0.6338	0.001	No	3.028	-0.001	3.0	NoResponse	-1	0.32	665.641	6	70	Target	Loss	True
666.587	0.44	Lose2	0.6338	n/a	No	3.028	n/a	n/a	NoResponse	-1	n/a	n/a	6	70	Blank	Loss	True
666.641	0.3	Lose2	0.6338	0.001	No	3.028	-0.001	3.0	NoResponse	-1	0.32	n/a	6	70	ButtonPress	Loss	True
667.021	1.45	Lose2	0.6338	n/a	No	3.028	n/a	5.0	NoResponse	-1	0.02	666.041	6	70	Feedback	Loss	True
668.47	3.028	Lose2	0.6338	n/a	No	3.028	n/a	n/a	NoResponse	-1	0.0	n/a	6	70	ISIslide	Loss	True
671.519	0.25	Win2	0.6389	0.0	Yes	2.731	0.019	n/a	GoodResponse	1	n/a	n/a	7	71	Cue	Win	True
671.769	4.05	Win2	0.6389	0.0	Yes	2.731	0.0	n/a	GoodResponse	1	n/a	n/a	7	71	Fixation	Win	True
675.817	0.27	Win2	0.6389	0.002	Yes	2.731	-0.002	3.0	GoodResponse	1	0.243	675.06	7	71	Target	Win	True
676.06	0.3	Win2	0.6389	0.002	Yes	2.731	-0.002	3.0	GoodResponse	1	0.243	n/a	7	71	ButtonPress	Win	True
676.101	0.43	Win2	0.6389	n/a	Yes	2.731	n/a	n/a	GoodResponse	1	n/a	n/a	7	71	Blank	Win	True
676.517	1.45	Win2	0.6389	n/a	Yes	2.731	n/a	5.0	GoodResponse	1	0.036	675.553	7	71	Feedback	Win	True
677.967	2.731	Win2	0.6389	n/a	Yes	2.731	n/a	n/a	GoodResponse	1	0.0	n/a	7	71	ISIslide	Win	True
680.716	0.25	Win2	0.6437999999999999	0.0	Yes	2.784	0.016	n/a	GoodResponse	1	n/a	n/a	8	72	Cue	Win	True
680.966	4.1	Win2	0.6437999999999999	0.0	Yes	2.784	0.0	n/a	GoodResponse	1	n/a	n/a	8	72	Fixation	Win	True
685.064	0.28	Win2	0.6437999999999999	0.002	Yes	2.784	-0.002	3.0	GoodResponse	1	0.259	684.323	8	72	Target	Win	True
685.323	0.3	Win2	0.6437999999999999	0.002	Yes	2.784	-0.002	3.0	GoodResponse	1	0.259	n/a	8	72	ButtonPress	Win	True
685.347	0.42	Win2	0.6437999999999999	n/a	Yes	2.784	n/a	n/a	GoodResponse	1	n/a	n/a	8	72	Blank	Win	True
685.764	1.45	Win2	0.6437999999999999	n/a	Yes	2.784	n/a	5.0	GoodResponse	1	0.009	684.773	8	72	Feedback	Win	True
687.213	2.784	Win2	0.6437999999999999	n/a	Yes	2.784	n/a	n/a	GoodResponse	1	0.0	n/a	8	72	ISIslide	Win	True
690.029	0.25	Win2	0.6351	0.0	No	2.671	0.029	n/a	NoResponse	0	n/a	n/a	8	73	Cue	MissedWin	True
690.279	4.0	Win2	0.6351	0.0	No	2.671	0.0	n/a	NoResponse	0	n/a	n/a	8	73	Fixation	MissedWin	True
694.278	0.29	Win2	0.6351	0.001	No	2.671	-0.001	3.0	NoResponse	0	0.352	693.63	8	73	Target	MissedWin	True
694.577	0.41	Win2	0.6351	n/a	No	2.671	n/a	n/a	NoResponse	0	n/a	n/a	8	73	Blank	MissedWin	True
694.63	0.3	Win2	0.6351	0.001	No	2.671	-0.001	3.0	NoResponse	0	0.352	n/a	8	73	ButtonPress	MissedWin	True
694.977	1.45	Win2	0.6351	n/a	No	2.671	n/a	5.0	NoResponse	0	0.016	693.993	8	73	Feedback	MissedWin	True
696.427	2.671	Win2	0.6351	n/a	No	2.671	n/a	n/a	NoResponse	0	0.0	n/a	8	73	ISIslide	MissedWin	True
699.126	0.25	Lose2	0.64	0.0	Yes	2.624	0.026	n/a	GoodResponse	0	n/a	n/a	8	74	Cue	AvoidedLoss	True
699.376	4.05	Lose2	0.64	0.0	Yes	2.624	0.0	n/a	GoodResponse	0	n/a	n/a	8	74	Fixation	AvoidedLoss	True
703.424	0.3	Lose2	0.64	0.002	Yes	2.624	-0.002	3.0	GoodResponse	0	0.228	702.652	8	74	Target	AvoidedLoss	True
703.652	0.3	Lose2	0.64	0.002	Yes	2.624	-0.002	3.0	GoodResponse	0	0.228	n/a	8	74	ButtonPress	AvoidedLoss	True
703.724	0.4	Lose2	0.64	n/a	Yes	2.624	n/a	n/a	GoodResponse	0	n/a	n/a	8	74	Blank	AvoidedLoss	True
704.124	1.45	Lose2	0.64	n/a	Yes	2.624	n/a	5.0	GoodResponse	0	0.039	703.163	8	74	Feedback	AvoidedLoss	True
705.574	2.624	Lose2	0.64	n/a	Yes	2.624	n/a	n/a	GoodResponse	0	0.0	n/a	8	74	ISIslide	AvoidedLoss	True
708.223	0.25	Lose2	0.6446999999999999	0.0	Yes	2.927	0.023	n/a	GoodResponse	0	n/a	n/a	8	75	Cue	AvoidedLoss	True
708.472	3.95	Lose2	0.6446999999999999	0.001	Yes	2.927	-0.001	n/a	GoodResponse	0	n/a	n/a	8	75	Fixation	AvoidedLoss	True
712.421	0.31	Lose2	0.6446999999999999	0.002	Yes	2.927	-0.002	3.0	GoodResponse	0	0.229	711.65	8	75	Target	AvoidedLoss	True
712.65	0.3	Lose2	0.6446999999999999	0.002	Yes	2.927	-0.002	3.0	GoodResponse	0	0.229	n/a	8	75	ButtonPress	AvoidedLoss	True
712.738	0.39	Lose2	0.6446999999999999	n/a	Yes	2.927	n/a	n/a	GoodResponse	0	n/a	n/a	8	75	Blank	AvoidedLoss	True
713.121	1.45	Lose2	0.6446999999999999	n/a	Yes	2.927	n/a	5.0	GoodResponse	0	0.017	712.138	8	75	Feedback	AvoidedLoss	True
714.57	2.927	Lose2	0.6446999999999999	n/a	Yes	2.927	n/a	n/a	GoodResponse	0	0.0	n/a	8	75	ISIslide	AvoidedLoss	True
717.519	0.25	Control	0.6494	0.0	Yes	3.231	0.019	n/a	GoodResponse	0	n/a	n/a	8	76	Cue	Neutral	True
717.769	4.05	Control	0.6494	0.0	Yes	3.231	0.0	n/a	GoodResponse	0	n/a	n/a	8	76	Fixation	Neutral	True
721.818	0.32	Control	0.6494	0.001	Yes	3.231	-0.001	3.0	GoodResponse	0	0.294	721.112	8	76	Target	Neutral	True
722.112	0.3	Control	0.6494	0.001	Yes	3.231	-0.001	3.0	GoodResponse	0	0.294	n/a	8	76	ButtonPress	Neutral	True
722.151	0.38	Control	0.6494	n/a	Yes	3.231	n/a	n/a	GoodResponse	0	n/a	n/a	8	76	Blank	Neutral	True
722.517	1.45	Control	0.6494	n/a	Yes	3.231	n/a	5.0	GoodResponse	0	0.036	721.553	8	76	Feedback	Neutral	True
723.967	3.231	Control	0.6494	n/a	Yes	3.231	n/a	n/a	GoodResponse	0	0.0	n/a	8	76	ISIslide	Neutral	True
727.216	0.25	Lose2	0.6537999999999999	0.0	Yes	2.584	0.016	n/a	GoodResponse	0	n/a	n/a	8	77	Cue	AvoidedLoss	True
727.466	3.95	Lose2	0.6537999999999999	0.0	Yes	2.584	0.0	n/a	GoodResponse	0	n/a	n/a	8	77	Fixation	AvoidedLoss	True
731.414	0.33	Lose2	0.6537999999999999	0.002	Yes	2.584	-0.002	3.0	GoodResponse	0	0.26	730.674	8	77	Target	AvoidedLoss	True
731.674	0.3	Lose2	0.6537999999999999	0.002	Yes	2.584	-0.002	3.0	GoodResponse	0	0.26	n/a	8	77	ButtonPress	AvoidedLoss	True
731.748	0.37	Lose2	0.6537999999999999	n/a	Yes	2.584	n/a	n/a	GoodResponse	0	n/a	n/a	8	77	Blank	AvoidedLoss	True
732.114	1.45	Lose2	0.6537999999999999	n/a	Yes	2.584	n/a	5.0	GoodResponse	0	0.049	731.163	8	77	Feedback	AvoidedLoss	True
733.564	2.584	Lose2	0.6537999999999999	n/a	Yes	2.584	n/a	n/a	GoodResponse	0	0.0	n/a	8	77	ISIslide	AvoidedLoss	True
