onset	duration	cue_type	current_mean_accuracy	duration_error	is_hit	isi_adjusted	onset_delay	response	response_type	reward	rt	rt_time	total_reward	trial_number	trial_phase	trial_type	one_press
11.102	0.25	Control	1.0	0.0	Yes	2.948	0.002	n/a	GoodResponse	0	n/a	n/a	0	0	Cue	Neutral	True
11.352	3.85	Control	1.0	0.0	Yes	2.948	0.0	n/a	GoodResponse	0	n/a	n/a	0	0	Fixation	Neutral	True
15.214	0.4	Control	1.0	0.0	Yes	2.948	0.012	2.0	GoodResponse	0	0.169	14.383	0	0	Target	Neutral	True
15.383	0.3	Control	1.0	0.0	Yes	2.948	0.012	2.0	GoodResponse	0	0.169	n/a	0	0	ButtonPress	Neutral	True
15.598	0.3	Control	1.0	n/a	Yes	2.948	n/a	n/a	GoodResponse	0	n/a	n/a	0	0	Blank	Neutral	True
15.899	1.45	Control	1.0	n/a	Yes	2.948	n/a	5.0	GoodResponse	0	0.027	14.926	0	0	Feedback	Neutral	True
17.354	2.948	Control	1.0	n/a	Yes	2.948	n/a	2.0	GoodResponse	0	0.263	n/a	0	0	ISIslide	Neutral	True
20.296	0.25	Lose2	1.0	0.0	Yes	2.804	-0.004	n/a	GoodResponse	0	n/a	n/a	0	1	Cue	AvoidedLoss	True
20.546	4.0	Lose2	1.0	0.001	Yes	2.804	0.0	n/a	GoodResponse	0	n/a	n/a	0	1	Fixation	AvoidedLoss	True
24.542	0.39	Lose2	1.0	0.004	Yes	2.804	-0.004	2.0	GoodResponse	0	0.188	23.73	0	1	Target	AvoidedLoss	True
24.73	0.3	Lose2	1.0	0.004	Yes	2.804	-0.004	2.0	GoodResponse	0	0.188	n/a	0	1	ButtonPress	AvoidedLoss	True
24.943	0.31	Lose2	1.0	n/a	Yes	2.804	n/a	n/a	GoodResponse	0	n/a	n/a	0	1	Blank	AvoidedLoss	True
25.244	1.45	Lose2	1.0	n/a	Yes	2.804	n/a	5.0	GoodResponse	0	0.048	24.292	0	1	Feedback	AvoidedLoss	True
26.698	2.804	Lose2	1.0	n/a	Yes	2.804	n/a	n/a	GoodResponse	0	0.0	n/a	0	1	ISIslide	AvoidedLoss	True
29.523	0.25	Control	1.0	0.0	Yes	2.577	0.023	n/a	GoodResponse	0	n/a	n/a	0	2	Cue	Neutral	True
29.774	4.1	Control	1.0	0.0	Yes	2.577	0.001	n/a	GoodResponse	0	n/a	n/a	0	2	Fixation	Neutral	True
33.87	0.38	Control	1.0	0.003	Yes	2.577	-0.003	2.0	GoodResponse	0	0.181	33.051	0	2	Target	Neutral	True
34.051	0.3	Control	1.0	0.003	Yes	2.577	-0.003	2.0	GoodResponse	0	0.181	n/a	0	2	ButtonPress	Neutral	True
34.254	0.32	Control	1.0	n/a	Yes	2.577	n/a	n/a	GoodResponse	0	n/a	n/a	0	2	Blank	Neutral	True
34.572	1.45	Control	1.0	n/a	Yes	2.577	n/a	5.0	GoodResponse	0	0.037	33.609	0	2	Feedback	Neutral	True
36.026	2.577	Control	1.0	n/a	Yes	2.577	n/a	n/a	GoodResponse	0	0.0	n/a	0	2	ISIslide	Neutral	True
38.617	0.25	Win2	1.0	0.0	Yes	2.833	0.017	n/a	GoodResponse	1	n/a	n/a	1	3	Cue	Win	False
38.868	3.95	Win2	1.0	0.0	Yes	2.833	0.001	2.0	GoodResponse	1	3.784	41.652	1	3	Fixation	Win	False
42.652	0.3	Win2	1.0	0.0	Yes	2.833	0.001	2.0	GoodResponse	1	3.784	n/a	1	3	ButtonPress	Win	False
42.813	0.37	Win2	1.0	0.004	Yes	2.833	-0.004	2.0	GoodResponse	1	0.203	42.016	1	3	Target	Win	False
43.016	0.3	Win2	1.0	0.004	Yes	2.833	-0.004	2.0	GoodResponse	1	0.203	n/a	1	3	ButtonPress	Win	False
43.198	0.33	Win2	1.0	n/a	Yes	2.833	n/a	n/a	GoodResponse	1	n/a	n/a	1	3	Blank	Win	False
43.515	1.45	Win2	1.0	n/a	Yes	2.833	n/a	5.0	GoodResponse	1	0.021	42.536	1	3	Feedback	Win	False
44.97	2.833	Win2	1.0	n/a	Yes	2.833	n/a	n/a	GoodResponse	1	0.0	n/a	1	3	ISIslide	Win	False
47.828	0.25	Win2	1.0	0.0	Yes	3.272	0.028	n/a	GoodResponse	1	n/a	n/a	2	4	Cue	Win	True
48.079	4.0	Win2	1.0	0.0	Yes	3.272	0.001	n/a	GoodResponse	1	n/a	n/a	2	4	Fixation	Win	True
52.074	0.36	Win2	1.0	0.004	Yes	3.272	-0.004	2.0	GoodResponse	1	0.168	51.242	2	4	Target	Win	True
52.242	0.3	Win2	1.0	0.004	Yes	3.272	-0.004	2.0	GoodResponse	1	0.168	n/a	2	4	ButtonPress	Win	True
52.442	0.34	Win2	1.0	n/a	Yes	3.272	n/a	n/a	GoodResponse	1	n/a	n/a	2	4	Blank	Win	True
52.776	1.45	Win2	1.0	n/a	Yes	3.272	n/a	5.0	GoodResponse	1	0.027	51.803	2	4	Feedback	Win	True
54.231	3.272	Win2	1.0	n/a	Yes	3.272	n/a	n/a	GoodResponse	1	0.0	n/a	2	4	ISIslide	Win	True
57.524	0.25	Win2	1.0	0.0	Yes	2.776	0.024	n/a	GoodResponse	1	n/a	n/a	3	5	Cue	Win	True
57.775	4.0	Win2	1.0	0.0	Yes	2.776	0.001	n/a	GoodResponse	1	n/a	n/a	3	5	Fixation	Win	True
61.77	0.35	Win2	1.0	0.004	Yes	2.776	-0.004	2.0	GoodResponse	1	0.192	60.962	3	5	Target	Win	True
61.962	0.3	Win2	1.0	0.004	Yes	2.776	-0.004	2.0	GoodResponse	1	0.192	n/a	3	5	ButtonPress	Win	True
62.121	0.35	Win2	1.0	n/a	Yes	2.776	n/a	n/a	GoodResponse	1	n/a	n/a	3	5	Blank	Win	True
62.472	1.45	Win2	1.0	n/a	Yes	2.776	n/a	5.0	GoodResponse	1	0.039	61.511	3	5	Feedback	Win	True
63.926	2.776	Win2	1.0	n/a	Yes	2.776	n/a	n/a	GoodResponse	1	0.0	n/a	3	5	ISIslide	Win	True
66.718	0.25	Lose2	1.0	0.0	Yes	2.732	0.018	n/a	GoodResponse	0	n/a	n/a	3	6	Cue	AvoidedLoss	True
66.969	3.95	Lose2	1.0	0.0	Yes	2.732	0.001	n/a	GoodResponse	0	n/a	n/a	3	6	Fixation	AvoidedLoss	True
70.914	0.34	Lose2	1.0	0.004	Yes	2.732	-0.004	2.0	GoodResponse	0	0.186	70.1	3	6	Target	AvoidedLoss	True
71.1	0.3	Lose2	1.0	0.004	Yes	2.732	-0.004	2.0	GoodResponse	0	0.186	n/a	3	6	ButtonPress	AvoidedLoss	True
71.265	0.36	Lose2	1.0	n/a	Yes	2.732	n/a	n/a	GoodResponse	0	n/a	n/a	3	6	Blank	AvoidedLoss	True
71.616	1.45	Lose2	1.0	n/a	Yes	2.732	n/a	5.0	GoodResponse	0	0.017	70.633	3	6	Feedback	AvoidedLoss	True
73.07	2.732	Lose2	1.0	n/a	Yes	2.732	n/a	n/a	GoodResponse	0	0.0	n/a	3	6	ISIslide	AvoidedLoss	True
75.829	0.25	Lose2	1.0	0.0	Yes	4.021	0.029	n/a	GoodResponse	0	n/a	n/a	3	7	Cue	AvoidedLoss	True
76.079	4.05	Lose2	1.0	0.0	Yes	4.021	0.0	n/a	GoodResponse	0	n/a	n/a	3	7	Fixation	AvoidedLoss	True
80.125	0.33	Lose2	1.0	0.004	Yes	4.021	-0.004	2.0	GoodResponse	0	0.183	79.308	3	7	Target	AvoidedLoss	True
80.308	0.3	Lose2	1.0	0.004	Yes	4.021	-0.004	2.0	GoodResponse	0	0.183	n/a	3	7	ButtonPress	AvoidedLoss	True
80.459	0.37	Lose2	1.0	n/a	Yes	4.021	n/a	n/a	GoodResponse	0	n/a	n/a	3	7	Blank	AvoidedLoss	True
80.827	1.45	Lose2	1.0	n/a	Yes	4.021	n/a	5.0	GoodResponse	0	0.025	79.852	3	7	Feedback	AvoidedLoss	True
82.281	4.021	Lose2	1.0	n/a	Yes	4.021	n/a	n/a	GoodResponse	0	0.0	n/a	3	7	ISIslide	AvoidedLoss	True
86.327	0.25	Lose2	1.0	0.0	Yes	3.023	0.027	n/a	GoodResponse	0	n/a	n/a	3	8	Cue	AvoidedLoss	True
86.577	3.95	Lose2	1.0	0.0	Yes	3.023	0.0	n/a	GoodResponse	0	n/a	n/a	3	8	Fixation	AvoidedLoss	True
90.523	0.32	Lose2	1.0	0.004	Yes	3.023	-0.004	2.0	GoodResponse	0	0.179	89.702	3	8	Target	AvoidedLoss	True
90.702	0.3	Lose2	1.0	0.004	Yes	3.023	-0.004	2.0	GoodResponse	0	0.179	n/a	3	8	ButtonPress	AvoidedLoss	True
90.857	0.38	Lose2	1.0	n/a	Yes	3.023	n/a	n/a	GoodResponse	0	n/a	n/a	3	8	Blank	AvoidedLoss	True
91.225	1.45	Lose2	1.0	n/a	Yes	3.023	n/a	5.0	GoodResponse	0	0.018	90.243	3	8	Feedback	AvoidedLoss	True
92.679	3.023	Lose2	1.0	n/a	Yes	3.023	n/a	n/a	GoodResponse	0	0.0	n/a	3	8	ISIslide	AvoidedLoss	True
95.721	0.25	Lose2	1.0	0.001	Yes	3.129	0.021	n/a	GoodResponse	0	n/a	n/a	3	9	Cue	AvoidedLoss	True
95.972	3.95	Lose2	1.0	0.0	Yes	3.129	0.001	n/a	GoodResponse	0	n/a	n/a	3	9	Fixation	AvoidedLoss	True
99.917	0.31	Lose2	1.0	0.004	Yes	3.129	-0.004	2.0	GoodResponse	0	0.188	99.105	3	9	Target	AvoidedLoss	True
100.105	0.3	Lose2	1.0	0.004	Yes	3.129	-0.004	2.0	GoodResponse	0	0.188	n/a	3	9	ButtonPress	AvoidedLoss	True
100.235	0.39	Lose2	1.0	n/a	Yes	3.129	n/a	n/a	GoodResponse	0	n/a	n/a	3	9	Blank	AvoidedLoss	True
100.619	1.45	Lose2	1.0	n/a	Yes	3.129	n/a	5.0	GoodResponse	0	0.037	99.656	3	9	Feedback	AvoidedLoss	True
102.074	3.129	Lose2	1.0	n/a	Yes	3.129	n/a	n/a	GoodResponse	0	0.0	n/a	3	9	ISIslide	AvoidedLoss	True
105.217	0.25	Control	1.0	0.0	Yes	3.283	0.017	n/a	GoodResponse	0	n/a	n/a	3	10	Cue	Neutral	True
105.467	4.0	Control	1.0	0.0	Yes	3.283	0.0	n/a	GoodResponse	0	n/a	n/a	3	10	Fixation	Neutral	True
109.463	0.3	Control	1.0	0.004	Yes	3.283	-0.004	2.0	GoodResponse	0	0.195	108.658	3	10	Target	Neutral	True
109.658	0.3	Control	1.0	0.004	Yes	3.283	-0.004	2.0	GoodResponse	0	0.195	n/a	3	10	ButtonPress	Neutral	True
109.763	0.4	Control	1.0	n/a	Yes	3.283	n/a	n/a	GoodResponse	0	n/a	n/a	3	10	Blank	Neutral	True
110.165	1.45	Control	1.0	n/a	Yes	3.283	n/a	5.0	GoodResponse	0	0.006	109.171	3	10	Feedback	Neutral	True
111.619	3.283	Control	1.0	n/a	Yes	3.283	n/a	n/a	GoodResponse	0	0.0	n/a	3	10	ISIslide	Neutral	True
114.929	0.25	Lose2	1.0	0.0	Yes	2.721	0.029	n/a	GoodResponse	0	n/a	n/a	3	11	Cue	AvoidedLoss	True
115.18	4.05	Lose2	1.0	0.0	Yes	2.721	0.001	n/a	GoodResponse	0	n/a	n/a	3	11	Fixation	AvoidedLoss	True
119.225	0.29	Lose2	1.0	0.004	Yes	2.721	-0.004	2.0	GoodResponse	0	0.172	118.397	3	11	Target	AvoidedLoss	True
119.397	0.3	Lose2	1.0	0.004	Yes	2.721	-0.004	2.0	GoodResponse	0	0.172	n/a	3	11	ButtonPress	AvoidedLoss	True
119.526	0.41	Lose2	1.0	n/a	Yes	2.721	n/a	n/a	GoodResponse	0	n/a	n/a	3	11	Blank	AvoidedLoss	True
119.927	1.45	Lose2	1.0	n/a	Yes	2.721	n/a	5.0	GoodResponse	0	0.047	118.974	3	11	Feedback	AvoidedLoss	True
121.382	2.721	Lose2	1.0	n/a	Yes	2.721	n/a	n/a	GoodResponse	0	0.0	n/a	3	11	ISIslide	AvoidedLoss	True
124.123	0.25	Control	1.0	0.0	Yes	2.977	0.023	n/a	GoodResponse	0	n/a	n/a	3	12	Cue	Neutral	True
124.374	3.9	Control	1.0	0.0	Yes	2.977	0.001	n/a	GoodResponse	0	n/a	n/a	3	12	Fixation	Neutral	True
128.269	0.28	Control	1.0	0.004	Yes	2.977	-0.004	2.0	GoodResponse	0	0.177	127.446	3	12	Target	Neutral	True
128.446	0.3	Control	1.0	0.004	Yes	2.977	-0.004	2.0	GoodResponse	0	0.177	n/a	3	12	ButtonPress	Neutral	True
128.553	0.42	Control	1.0	n/a	Yes	2.977	n/a	n/a	GoodResponse	0	n/a	n/a	3	12	Blank	Neutral	True
128.971	1.45	Control	1.0	n/a	Yes	2.977	n/a	5.0	GoodResponse	0	0.027	127.998	3	12	Feedback	Neutral	True
130.425	2.977	Control	1.0	n/a	Yes	2.977	n/a	2.0	GoodResponse	0	0.393	n/a	3	12	ISIslide	Neutral	True
133.401	0.25	Control	1.0	0.0	Yes	2.799	0.001	n/a	GoodResponse	0	n/a	n/a	3	13	Cue	Neutral	True
133.652	4.0	Control	1.0	0.0	Yes	2.799	0.001	n/a	GoodResponse	0	n/a	n/a	3	13	Fixation	Neutral	True
137.647	0.27	Control	1.0	0.004	Yes	2.799	-0.004	2.0	GoodResponse	0	0.186	136.833	3	13	Target	Neutral	True
137.833	0.3	Control	1.0	0.004	Yes	2.799	-0.004	2.0	GoodResponse	0	0.186	n/a	3	13	ButtonPress	Neutral	True
137.931	0.43	Control	1.0	n/a	Yes	2.799	n/a	n/a	GoodResponse	0	n/a	n/a	3	13	Blank	Neutral	True
138.349	1.45	Control	1.0	n/a	Yes	2.799	n/a	5.0	GoodResponse	0	0.015	137.364	3	13	Feedback	Neutral	True
139.803	2.799	Control	1.0	n/a	Yes	2.799	n/a	n/a	GoodResponse	0	0.0	n/a	3	13	ISIslide	Neutral	True
142.629	0.25	Win2	1.0	0.0	Yes	2.671	0.029	n/a	GoodResponse	1	n/a	n/a	4	14	Cue	Win	True
142.879	4.1	Win2	1.0	0.0	Yes	2.671	0.0	n/a	GoodResponse	1	n/a	n/a	4	14	Fixation	Win	True
146.975	0.26	Win2	1.0	0.004	Yes	2.671	-0.004	2.0	GoodResponse	1	0.184	146.159	4	14	Target	Win	True
147.159	0.3	Win2	1.0	0.004	Yes	2.671	-0.004	2.0	GoodResponse	1	0.184	n/a	4	14	ButtonPress	Win	True
147.242	0.44	Win2	1.0	n/a	Yes	2.671	n/a	n/a	GoodResponse	1	n/a	n/a	4	14	Blank	Win	True
147.677	1.45	Win2	1.0	n/a	Yes	2.671	n/a	5.0	GoodResponse	1	0.006	146.683	4	14	Feedback	Win	True
149.131	2.671	Win2	1.0	n/a	Yes	2.671	n/a	n/a	GoodResponse	1	0.0	n/a	4	14	ISIslide	Win	True
151.823	0.25	Control	1.0	0.0	Yes	2.977	0.023	n/a	GoodResponse	0	n/a	n/a	4	15	Cue	Neutral	True
152.073	4.0	Control	1.0	0.001	Yes	2.977	0.0	n/a	GoodResponse	0	n/a	n/a	4	15	Fixation	Neutral	True
156.069	0.25	Control	1.0	0.004	Yes	2.977	-0.004	2.0	GoodResponse	0	0.193	155.262	4	15	Target	Neutral	True
156.262	0.3	Control	1.0	0.004	Yes	2.977	-0.004	2.0	GoodResponse	0	0.193	n/a	4	15	ButtonPress	Neutral	True
156.32	0.45	Control	1.0	n/a	Yes	2.977	n/a	n/a	GoodResponse	0	n/a	n/a	4	15	Blank	Neutral	True
156.771	1.45	Control	1.0	n/a	Yes	2.977	n/a	5.0	GoodResponse	0	0.031	155.802	4	15	Feedback	Neutral	True
158.225	2.977	Control	1.0	n/a	Yes	2.977	n/a	n/a	GoodResponse	0	0.0	n/a	4	15	ISIslide	Neutral	True
161.218	0.25	Win2	1.0	0.0	Yes	2.882	0.018	n/a	GoodResponse	1	n/a	n/a	5	16	Cue	Win	True
161.468	4.0	Win2	1.0	0.0	Yes	2.882	0.0	n/a	GoodResponse	1	n/a	n/a	5	16	Fixation	Win	True
165.464	0.24	Win2	1.0	0.004	Yes	2.882	-0.004	2.0	GoodResponse	1	0.183	164.647	5	16	Target	Win	True
165.647	0.3	Win2	1.0	0.004	Yes	2.882	-0.004	2.0	GoodResponse	1	0.183	n/a	5	16	ButtonPress	Win	True
165.714	0.46	Win2	1.0	n/a	Yes	2.882	n/a	n/a	GoodResponse	1	n/a	n/a	5	16	Blank	Win	True
166.166	1.45	Win2	1.0	n/a	Yes	2.882	n/a	5.0	GoodResponse	1	0.002	165.168	5	16	Feedback	Win	True
167.62	2.882	Win2	1.0	n/a	Yes	2.882	n/a	n/a	GoodResponse	1	0.0	n/a	5	16	ISIslide	Win	True
170.529	0.25	Lose2	1.0	0.0	Yes	2.721	0.029	n/a	GoodResponse	0	n/a	n/a	5	17	Cue	AvoidedLoss	True
170.779	3.95	Lose2	1.0	0.001	Yes	2.721	0.0	n/a	GoodResponse	0	n/a	n/a	5	17	Fixation	AvoidedLoss	True
174.725	0.23	Lose2	1.0	0.004	Yes	2.721	-0.004	2.0	GoodResponse	0	0.174	173.899	5	17	Target	AvoidedLoss	True
174.899	0.3	Lose2	1.0	0.004	Yes	2.721	-0.004	2.0	GoodResponse	0	0.174	n/a	5	17	ButtonPress	AvoidedLoss	True
174.959	0.47	Lose2	1.0	n/a	Yes	2.721	n/a	n/a	GoodResponse	0	n/a	n/a	5	17	Blank	AvoidedLoss	True
175.427	1.45	Lose2	1.0	n/a	Yes	2.721	n/a	5.0	GoodResponse	0	0.01	174.437	5	17	Feedback	AvoidedLoss	True
176.881	2.721	Lose2	1.0	n/a	Yes	2.721	n/a	2.0	GoodResponse	0	0.806	n/a	5	17	ISIslide	AvoidedLoss	True
179.606	0.25	Lose2	1.0	0.0	Yes	2.744	0.006	n/a	GoodResponse	0	n/a	n/a	5	18	Cue	AvoidedLoss	True
179.857	4.05	Lose2	1.0	0.0	Yes	2.744	0.001	n/a	GoodResponse	0	n/a	n/a	5	18	Fixation	AvoidedLoss	True
183.902	0.22	Lose2	1.0	0.004	Yes	2.744	-0.004	2.0	GoodResponse	0	0.17	183.072	5	18	Target	AvoidedLoss	True
184.072	0.3	Lose2	1.0	0.004	Yes	2.744	-0.004	2.0	GoodResponse	0	0.17	n/a	5	18	ButtonPress	AvoidedLoss	True
184.136	0.48	Lose2	1.0	n/a	Yes	2.744	n/a	n/a	GoodResponse	0	n/a	n/a	5	18	Blank	AvoidedLoss	True
184.604	1.45	Lose2	1.0	n/a	Yes	2.744	n/a	5.0	GoodResponse	0	0.006	183.61	5	18	Feedback	AvoidedLoss	True
186.059	2.744	Lose2	1.0	n/a	Yes	2.744	n/a	n/a	GoodResponse	0	0.0	n/a	5	18	ISIslide	AvoidedLoss	True
188.817	0.25	Control	1.0	0.0	Yes	2.933	0.017	n/a	GoodResponse	0	n/a	n/a	5	19	Cue	Neutral	True
189.068	3.95	Control	1.0	0.0	Yes	2.933	0.001	n/a	GoodResponse	0	n/a	n/a	5	19	Fixation	Neutral	True
193.013	0.21	Control	1.0	0.004	Yes	2.933	-0.004	2.0	GoodResponse	0	0.184	192.197	5	19	Target	Neutral	True
193.197	0.3	Control	1.0	0.004	Yes	2.933	-0.004	2.0	GoodResponse	0	0.184	n/a	5	19	ButtonPress	Neutral	True
193.23	0.49	Control	1.0	n/a	Yes	2.933	n/a	n/a	GoodResponse	0	n/a	n/a	5	19	Blank	Neutral	True
193.715	1.45	Control	1.0	n/a	Yes	2.933	n/a	5.0	GoodResponse	0	0.015	192.73	5	19	Feedback	Neutral	True
195.169	2.933	Control	1.0	n/a	Yes	2.933	n/a	n/a	GoodResponse	0	0.0	n/a	5	19	ISIslide	Neutral	True
198.128	0.25	Control	1.0	0.0	Yes	2.622	0.028	n/a	GoodResponse	0	n/a	n/a	5	20	Cue	Neutral	True
198.379	4.05	Control	1.0	0.0	Yes	2.622	0.001	n/a	GoodResponse	0	n/a	n/a	5	20	Fixation	Neutral	True
202.424	0.2	Control	1.0	0.004	Yes	2.622	-0.004	2.0	GoodResponse	0	0.185	201.609	5	20	Target	Neutral	True
202.609	0.3	Control	1.0	0.004	Yes	2.622	-0.004	2.0	GoodResponse	0	0.185	n/a	5	20	ButtonPress	Neutral	True
202.625	0.5	Control	1.0	n/a	Yes	2.622	n/a	n/a	GoodResponse	0	n/a	n/a	5	20	Blank	Neutral	True
203.126	1.45	Control	1.0	n/a	Yes	2.622	n/a	5.0	GoodResponse	0	0.017	202.143	5	20	Feedback	Neutral	True
204.581	2.622	Control	1.0	n/a	Yes	2.622	n/a	n/a	GoodResponse	0	0.0	n/a	5	20	ISIslide	Neutral	True
207.222	0.25	Control	1.0	0.0	Yes	2.778	0.022	n/a	GoodResponse	0	n/a	n/a	5	21	Cue	Neutral	True
207.473	4.1	Control	1.0	0.0	Yes	2.778	0.001	n/a	GoodResponse	0	n/a	n/a	5	21	Fixation	Neutral	True
211.568	0.19	Control	1.0	0.004	Yes	2.778	-0.004	2.0	GoodResponse	0	0.183	210.751	5	21	Target	Neutral	True
211.751	0.3	Control	1.0	0.004	Yes	2.778	-0.004	2.0	GoodResponse	0	0.183	n/a	5	21	ButtonPress	Neutral	True
211.769	0.51	Control	1.0	n/a	Yes	2.778	n/a	n/a	GoodResponse	0	n/a	n/a	5	21	Blank	Neutral	True
212.27	1.45	Control	1.0	n/a	Yes	2.778	n/a	5.0	GoodResponse	0	0.044	211.314	5	21	Feedback	Neutral	True
213.725	2.778	Control	1.0	n/a	Yes	2.778	n/a	2.0	GoodResponse	0	1.476	n/a	5	21	ISIslide	Neutral	True
216.5	0.25	Control	0.9565	0.0	No	2.8	0.0	n/a	NoResponse	0	n/a	n/a	5	22	Cue	Neutral	True
216.75	4.0	Control	0.9565	0.0	No	2.8	0.0	n/a	NoResponse	0	n/a	n/a	5	22	Fixation	Neutral	True
220.746	0.18	Control	0.9565	0.004	No	2.8	-0.004	2.0	NoResponse	0	0.217	219.963	5	22	Target	Neutral	True
220.93	0.52	Control	0.9565	n/a	No	2.8	n/a	n/a	NoResponse	0	n/a	n/a	5	22	Blank	Neutral	True
220.963	0.3	Control	0.9565	0.004	No	2.8	-0.004	2.0	NoResponse	0	0.217	n/a	5	22	ButtonPress	Neutral	True
221.448	1.45	Control	0.9565	n/a	No	2.8	n/a	5.0	NoResponse	0	0.037	220.485	5	22	Feedback	Neutral	True
222.902	2.8	Control	0.9565	n/a	No	2.8	n/a	n/a	NoResponse	0	0.0	n/a	5	22	ISIslide	Neutral	True
225.727	0.25	Control	0.9582999999999999	0.0	Yes	2.773	0.027	n/a	GoodResponse	0	n/a	n/a	5	23	Cue	Neutral	True
225.978	3.9	Control	0.9582999999999999	0.0	Yes	2.773	0.001	n/a	GoodResponse	0	n/a	n/a	5	23	Fixation	Neutral	True
229.873	0.17	Control	0.9582999999999999	0.004	Yes	2.773	-0.004	2.0	GoodResponse	0	0.168	229.041	5	23	Target	Neutral	True
230.041	0.3	Control	0.9582999999999999	0.004	Yes	2.773	-0.004	2.0	GoodResponse	0	0.168	n/a	5	23	ButtonPress	Neutral	True
230.057	0.53	Control	0.9582999999999999	n/a	Yes	2.773	n/a	n/a	GoodResponse	0	n/a	n/a	5	23	Blank	Neutral	True
230.575	1.45	Control	0.9582999999999999	n/a	Yes	2.773	n/a	5.0	GoodResponse	0	0.032	229.607	5	23	Feedback	Neutral	True
232.029	2.773	Control	0.9582999999999999	n/a	Yes	2.773	n/a	n/a	GoodResponse	0	0.0	n/a	5	23	ISIslide	Neutral	True
234.821	0.25	Win2	0.92	0.0	No	3.129	0.021	n/a	NoResponse	0	n/a	n/a	5	24	Cue	MissedWin	True
235.072	3.95	Win2	0.92	0.0	No	3.129	0.001	n/a	NoResponse	0	n/a	n/a	5	24	Fixation	MissedWin	True
239.017	0.16	Win2	0.92	0.004	No	3.129	-0.004	2.0	NoResponse	0	0.177	238.194	5	24	Target	MissedWin	True
239.184	0.54	Win2	0.92	n/a	No	3.129	n/a	n/a	NoResponse	0	n/a	n/a	5	24	Blank	MissedWin	True
239.194	0.3	Win2	0.92	0.004	No	3.129	-0.004	2.0	NoResponse	0	0.177	n/a	5	24	ButtonPress	MissedWin	True
239.719	1.45	Win2	0.92	n/a	No	3.129	n/a	5.0	NoResponse	0	0.01	238.729	5	24	Feedback	MissedWin	True
241.174	3.129	Win2	0.92	n/a	No	3.129	n/a	n/a	NoResponse	0	0.0	n/a	5	24	ISIslide	MissedWin	True
244.316	0.25	Win2	0.8845999999999999	0.0	No	3.084	0.016	n/a	NoResponse	0	n/a	n/a	5	25	Cue	MissedWin	True
244.567	4.0	Win2	0.8845999999999999	0.0	No	3.084	0.001	n/a	NoResponse	0	n/a	n/a	5	25	Fixation	MissedWin	True
248.562	0.15	Win2	0.8845999999999999	0.004	No	3.084	-0.004	2.0	NoResponse	0	0.175	247.737	5	25	Target	MissedWin	True
248.713	0.55	Win2	0.8845999999999999	n/a	No	3.084	n/a	n/a	NoResponse	0	n/a	n/a	5	25	Blank	MissedWin	True
248.737	0.3	Win2	0.8845999999999999	0.004	No	3.084	-0.004	2.0	NoResponse	0	0.175	n/a	5	25	ButtonPress	MissedWin	True
249.264	1.45	Win2	0.8845999999999999	n/a	No	3.084	n/a	5.0	NoResponse	0	0.026	248.29	5	25	Feedback	MissedWin	True
250.719	3.084	Win2	0.8845999999999999	n/a	No	3.084	n/a	n/a	NoResponse	0	0.0	n/a	5	25	ISIslide	MissedWin	True
253.828	0.25	Win2	0.8519	0.0	No	2.922	0.028	n/a	NoResponse	0	n/a	n/a	5	26	Cue	MissedWin	False
254.079	3.95	Win2	0.8519	0.0	No	2.922	0.001	2.0	NoResponse	0	3.573	256.652	5	26	Fixation	MissedWin	False
257.652	0.3	Win2	0.8519	0.0	No	2.922	0.001	2.0	NoResponse	0	3.573	n/a	5	26	ButtonPress	MissedWin	False
258.024	0.15	Win2	0.8519	0.004	No	2.922	-0.004	2.0	NoResponse	0	0.162	257.186	5	26	Target	MissedWin	False
258.174	0.55	Win2	0.8519	n/a	No	2.922	n/a	n/a	NoResponse	0	n/a	n/a	5	26	Blank	MissedWin	False
258.186	0.3	Win2	0.8519	0.004	No	2.922	-0.004	2.0	NoResponse	0	0.162	n/a	5	26	ButtonPress	MissedWin	False
258.726	1.45	Win2	0.8519	n/a	No	2.922	n/a	5.0	NoResponse	0	0.027	257.753	5	26	Feedback	MissedWin	False
260.18	2.922	Win2	0.8519	n/a	No	2.922	n/a	2.0	NoResponse	0	2.651	n/a	5	26	ISIslide	MissedWin	False
263.106	0.25	Lose2	0.8214	0.0	No	2.844	0.006	n/a	NoResponse	-1	n/a	n/a	4	27	Cue	Loss	False
263.357	4.05	Lose2	0.8214	0.0	No	2.844	0.001	2.0	NoResponse	-1	0.798	263.155	4	27	Fixation	Loss	False
264.155	0.3	Lose2	0.8214	0.0	No	2.844	0.001	2.0	NoResponse	-1	0.798	n/a	4	27	ButtonPress	Loss	False
267.402	0.15	Lose2	0.8214	0.004	No	2.844	-0.004	2.0	NoResponse	-1	0.176	266.578	4	27	Target	Loss	False
267.552	0.55	Lose2	0.8214	n/a	No	2.844	n/a	n/a	NoResponse	-1	n/a	n/a	4	27	Blank	Loss	False
267.578	0.3	Lose2	0.8214	0.004	No	2.844	-0.004	2.0	NoResponse	-1	0.176	n/a	4	27	ButtonPress	Loss	False
268.104	1.45	Lose2	0.8214	n/a	No	2.844	n/a	5.0	NoResponse	-1	0.015	267.119	4	27	Feedback	Loss	False
269.558	2.844	Lose2	0.8214	n/a	No	2.844	n/a	n/a	NoResponse	-1	0.0	n/a	4	27	ISIslide	Loss	False
272.417	0.25	Control	0.7931	0.0	No	2.833	0.017	n/a	NoResponse	0	n/a	n/a	4	28	Cue	Neutral	False
272.668	4.05	Control	0.7931	0.0	No	2.833	0.001	n/a	NoResponse	0	n/a	n/a	4	28	Fixation	Neutral	False
276.713	0.15	Control	0.7931	0.004	No	2.833	-0.004	n/a	NoResponse	0	n/a	n/a	4	28	Target	Neutral	False
276.864	0.55	Control	0.7931	n/a	No	2.833	n/a	n/a	NoResponse	0	n/a	n/a	4	28	Blank	Neutral	False
277.415	1.45	Control	0.7931	n/a	No	2.833	n/a	5.0	NoResponse	0	0.021	276.436	4	28	Feedback	Neutral	False
278.87	2.833	Control	0.7931	n/a	No	2.833	n/a	n/a	NoResponse	0	0.0	n/a	4	28	ISIslide	Neutral	False
281.728	0.25	Lose2	0.7667	0.0	No	2.822	0.028	n/a	NoResponse	-1	n/a	n/a	3	29	Cue	Loss	True
281.979	3.95	Lose2	0.7667	0.0	No	2.822	0.001	n/a	NoResponse	-1	n/a	n/a	3	29	Fixation	Loss	True
285.924	0.15	Lose2	0.7667	0.004	No	2.822	-0.004	2.0	NoResponse	-1	0.2	285.124	3	29	Target	Loss	True
286.075	0.55	Lose2	0.7667	n/a	No	2.822	n/a	n/a	NoResponse	-1	n/a	n/a	3	29	Blank	Loss	True
286.124	0.3	Lose2	0.7667	0.004	No	2.822	-0.004	2.0	NoResponse	-1	0.2	n/a	3	29	ButtonPress	Loss	True
286.626	1.45	Lose2	0.7667	n/a	No	2.822	n/a	5.0	NoResponse	-1	0.029	285.655	3	29	Feedback	Loss	True
288.081	2.822	Lose2	0.7667	n/a	No	2.822	n/a	n/a	NoResponse	-1	0.0	n/a	3	29	ISIslide	Loss	True
290.922	0.25	Win2	0.7419	0.001	No	2.778	0.022	n/a	NoResponse	0	n/a	n/a	3	30	Cue	MissedWin	True
291.173	3.9	Win2	0.7419	0.0	No	2.778	0.001	n/a	NoResponse	0	n/a	n/a	3	30	Fixation	MissedWin	True
295.068	0.15	Win2	0.7419	0.004	No	2.778	-0.004	2.0	NoResponse	0	0.199	294.267	3	30	Target	MissedWin	True
295.219	0.55	Win2	0.7419	n/a	No	2.778	n/a	n/a	NoResponse	0	n/a	n/a	3	30	Blank	MissedWin	True
295.267	0.3	Win2	0.7419	0.004	No	2.778	-0.004	2.0	NoResponse	0	0.199	n/a	3	30	ButtonPress	MissedWin	True
295.77	1.45	Win2	0.7419	n/a	No	2.778	n/a	5.0	NoResponse	0	0.008	294.778	3	30	Feedback	MissedWin	True
297.225	2.778	Win2	0.7419	n/a	No	2.778	n/a	n/a	NoResponse	0	0.0	n/a	3	30	ISIslide	MissedWin	True
300.016	0.25	Lose2	0.7188	0.0	No	2.834	0.016	n/a	NoResponse	-1	n/a	n/a	2	31	Cue	Loss	True
300.267	4.05	Lose2	0.7188	0.0	No	2.834	0.001	n/a	NoResponse	-1	n/a	n/a	2	31	Fixation	Loss	True
304.313	0.15	Lose2	0.7188	0.003	No	2.834	-0.003	2.0	NoResponse	-1	0.188	303.501	2	31	Target	Loss	True
304.463	0.55	Lose2	0.7188	n/a	No	2.834	n/a	n/a	NoResponse	-1	n/a	n/a	2	31	Blank	Loss	True
304.501	0.3	Lose2	0.7188	0.003	No	2.834	-0.003	2.0	NoResponse	-1	0.188	n/a	2	31	ButtonPress	Loss	True
305.015	1.45	Lose2	0.7188	n/a	No	2.834	n/a	5.0	NoResponse	-1	0.03	304.045	2	31	Feedback	Loss	True
306.469	2.834	Lose2	0.7188	n/a	No	2.834	n/a	2.0	NoResponse	-1	2.718	n/a	2	31	ISIslide	Loss	True
309.311	0.25	Lose2	0.6970000000000001	0.0	No	2.639	0.011	n/a	NoResponse	-1	n/a	n/a	1	32	Cue	Loss	True
309.562	4.15	Lose2	0.6970000000000001	0.0	No	2.639	0.001	n/a	NoResponse	-1	n/a	n/a	1	32	Fixation	Loss	True
313.707	0.15	Lose2	0.6970000000000001	0.004	No	2.639	-0.004	2.0	NoResponse	-1	0.176	312.883	1	32	Target	Loss	True
313.858	0.55	Lose2	0.6970000000000001	n/a	No	2.639	n/a	n/a	NoResponse	-1	n/a	n/a	1	32	Blank	Loss	True
313.883	0.3	Lose2	0.6970000000000001	0.004	No	2.639	-0.004	2.0	NoResponse	-1	0.176	n/a	1	32	ButtonPress	Loss	True
314.409	1.45	Lose2	0.6970000000000001	n/a	No	2.639	n/a	5.0	NoResponse	-1	0.006	313.415	1	32	Feedback	Loss	True
315.864	2.639	Lose2	0.6970000000000001	n/a	No	2.639	n/a	n/a	NoResponse	-1	0.0	n/a	1	32	ISIslide	Loss	True
318.522	0.25	Win2	0.6765000000000001	0.0	No	2.678	0.022	n/a	NoResponse	0	n/a	n/a	1	33	Cue	MissedWin	True
318.772	4.0	Win2	0.6765000000000001	0.001	No	2.678	0.0	n/a	NoResponse	0	n/a	n/a	1	33	Fixation	MissedWin	True
322.768	0.15	Win2	0.6765000000000001	0.004	No	2.678	-0.004	2.0	NoResponse	0	0.163	321.931	1	33	Target	MissedWin	True
322.918	0.55	Win2	0.6765000000000001	n/a	No	2.678	n/a	n/a	NoResponse	0	n/a	n/a	1	33	Blank	MissedWin	True
322.931	0.3	Win2	0.6765000000000001	0.004	No	2.678	-0.004	2.0	NoResponse	0	0.163	n/a	1	33	ButtonPress	MissedWin	True
323.47	1.45	Win2	0.6765000000000001	n/a	No	2.678	n/a	5.0	NoResponse	0	0.014	322.484	1	33	Feedback	MissedWin	True
324.924	2.678	Win2	0.6765000000000001	n/a	No	2.678	n/a	n/a	NoResponse	0	0.0	n/a	1	33	ISIslide	MissedWin	True
327.616	0.25	Lose2	0.6570999999999999	0.0	No	2.634	0.016	n/a	NoResponse	-1	n/a	n/a	0	34	Cue	Loss	True
327.866	4.05	Lose2	0.6570999999999999	0.0	No	2.634	0.0	n/a	NoResponse	-1	n/a	n/a	0	34	Fixation	Loss	True
331.912	0.15	Lose2	0.6570999999999999	0.004	No	2.634	-0.004	2.0	NoResponse	-1	0.18	331.092	0	34	Target	Loss	True
332.062	0.55	Lose2	0.6570999999999999	n/a	No	2.634	n/a	n/a	NoResponse	-1	n/a	n/a	0	34	Blank	Loss	True
332.092	0.3	Lose2	0.6570999999999999	0.004	No	2.634	-0.004	2.0	NoResponse	-1	0.18	n/a	0	34	ButtonPress	Loss	True
332.614	1.45	Lose2	0.6570999999999999	n/a	No	2.634	n/a	5.0	NoResponse	-1	0.041	331.655	0	34	Feedback	Loss	True
334.068	2.634	Lose2	0.6570999999999999	n/a	No	2.634	n/a	2.0	NoResponse	-1	1.566	n/a	0	34	ISIslide	Loss	True
336.709	0.25	Lose2	0.6389	0.001	No	2.691	0.009	n/a	NoResponse	-1	n/a	n/a	-1	35	Cue	Loss	True
336.96	4.0	Lose2	0.6389	0.0	No	2.691	0.001	n/a	NoResponse	-1	n/a	n/a	-1	35	Fixation	Loss	True
340.956	0.15	Lose2	0.6389	0.003	No	2.691	-0.003	2.0	NoResponse	-1	0.159	340.115	-1	35	Target	Loss	True
341.106	0.55	Lose2	0.6389	n/a	No	2.691	n/a	n/a	NoResponse	-1	n/a	n/a	-1	35	Blank	Loss	True
341.115	0.3	Lose2	0.6389	0.003	No	2.691	-0.003	2.0	NoResponse	-1	0.159	n/a	-1	35	ButtonPress	Loss	True
341.658	1.45	Lose2	0.6389	n/a	No	2.691	n/a	5.0	NoResponse	-1	0.021	340.679	-1	35	Feedback	Loss	True
343.112	2.691	Lose2	0.6389	n/a	No	2.691	n/a	n/a	NoResponse	-1	0.0	n/a	-1	35	ISIslide	Loss	True
345.82	0.25	Control	0.6215999999999999	0.0	No	2.68	0.02	n/a	NoResponse	0	n/a	n/a	-1	36	Cue	Neutral	True
346.071	4.0	Control	0.6215999999999999	0.0	No	2.68	0.001	n/a	NoResponse	0	n/a	n/a	-1	36	Fixation	Neutral	True
350.066	0.16	Control	0.6215999999999999	0.004	No	2.68	-0.004	2.0	NoResponse	0	0.183	349.249	-1	36	Target	Neutral	True
350.233	0.54	Control	0.6215999999999999	n/a	No	2.68	n/a	n/a	NoResponse	0	n/a	n/a	-1	36	Blank	Neutral	True
350.249	0.3	Control	0.6215999999999999	0.004	No	2.68	-0.004	2.0	NoResponse	0	0.183	n/a	-1	36	ButtonPress	Neutral	True
350.768	1.45	Control	0.6215999999999999	n/a	No	2.68	n/a	5.0	NoResponse	0	0.034	349.802	-1	36	Feedback	Neutral	True
352.223	2.68	Control	0.6215999999999999	n/a	No	2.68	n/a	n/a	NoResponse	0	0.0	n/a	-1	36	ISIslide	Neutral	True
354.931	0.25	Win2	0.6053000000000001	0.0	No	2.869	0.031	n/a	NoResponse	0	n/a	n/a	-1	37	Cue	MissedWin	False
355.181	4.0	Win2	0.6053000000000001	0.001	No	2.869	0.0	2.0	NoResponse	0	0.559	354.74	-1	37	Fixation	MissedWin	False
355.74	0.3	Win2	0.6053000000000001	0.001	No	2.869	0.0	2.0	NoResponse	0	0.559	n/a	-1	37	ButtonPress	MissedWin	False
359.177	0.17	Win2	0.6053000000000001	0.004	No	2.869	-0.004	2.0	NoResponse	0	0.191	358.368	-1	37	Target	MissedWin	False
359.361	0.53	Win2	0.6053000000000001	n/a	No	2.869	n/a	n/a	NoResponse	0	n/a	n/a	-1	37	Blank	MissedWin	False
359.368	0.3	Win2	0.6053000000000001	0.004	No	2.869	-0.004	2.0	NoResponse	0	0.191	n/a	-1	37	ButtonPress	MissedWin	False
359.879	1.45	Win2	0.6053000000000001	n/a	No	2.869	n/a	5.0	NoResponse	0	0.044	358.923	-1	37	Feedback	MissedWin	False
361.333	2.869	Win2	0.6053000000000001	n/a	No	2.869	n/a	n/a	NoResponse	0	0.0	n/a	-1	37	ISIslide	MissedWin	False
364.225	0.25	Lose2	0.5897	0.0	No	2.825	0.025	n/a	NoResponse	-1	n/a	n/a	-2	38	Cue	Loss	True
364.476	3.95	Lose2	0.5897	0.0	No	2.825	0.001	n/a	NoResponse	-1	n/a	n/a	-2	38	Fixation	Loss	True
368.421	0.18	Lose2	0.5897	0.004	No	2.825	-0.004	2.0	NoResponse	-1	0.204	367.625	-2	38	Target	Loss	True
368.605	0.52	Lose2	0.5897	n/a	No	2.825	n/a	n/a	NoResponse	-1	n/a	n/a	-2	38	Blank	Loss	True
368.625	0.3	Lose2	0.5897	0.004	No	2.825	-0.004	2.0	NoResponse	-1	0.204	n/a	-2	38	ButtonPress	Loss	True
369.123	1.45	Lose2	0.5897	n/a	No	2.825	n/a	5.0	NoResponse	-1	0.019	368.142	-2	38	Feedback	Loss	True
370.578	2.825	Lose2	0.5897	n/a	No	2.825	n/a	n/a	NoResponse	-1	0.0	n/a	-2	38	ISIslide	Loss	True
373.419	0.25	Win2	0.6	0.0	Yes	2.981	0.019	n/a	GoodResponse	1	n/a	n/a	-1	39	Cue	Win	False
373.67	4.1	Win2	0.6	0.0	Yes	2.981	0.001	2.0	GoodResponse	1	3.945	376.615	-1	39	Fixation	Win	False
377.615	0.3	Win2	0.6	0.0	Yes	2.981	0.001	2.0	GoodResponse	1	3.945	n/a	-1	39	ButtonPress	Win	False
377.766	0.19	Win2	0.6	0.003	Yes	2.981	-0.003	2.0	GoodResponse	1	0.162	376.928	-1	39	Target	Win	False
377.928	0.3	Win2	0.6	0.003	Yes	2.981	-0.003	2.0	GoodResponse	1	0.162	n/a	-1	39	ButtonPress	Win	False
377.966	0.51	Win2	0.6	n/a	Yes	2.981	n/a	n/a	GoodResponse	1	n/a	n/a	-1	39	Blank	Win	False
378.468	1.45	Win2	0.6	n/a	Yes	2.981	n/a	5.0	GoodResponse	1	0.04	377.508	-1	39	Feedback	Win	False
379.922	2.981	Win2	0.6	n/a	Yes	2.981	n/a	n/a	GoodResponse	1	0.0	n/a	-1	39	ISIslide	Win	False
382.914	0.25	Win2	0.5854	0.001	No	2.736	0.014	n/a	LatePress	0	n/a	n/a	-1	40	Cue	MissedWin	True
383.165	3.95	Win2	0.5854	0.0	No	2.736	0.001	n/a	LatePress	0	n/a	n/a	-1	40	Fixation	MissedWin	True
387.11	0.2	Win2	0.5854	0.004	No	2.736	-0.004	2.0	LatePress	0	0.2	386.31	-1	40	Target	MissedWin	True
387.31	0.3	Win2	0.5854	0.004	No	2.736	-0.004	2.0	LatePress	0	0.2	n/a	-1	40	ButtonPress	MissedWin	True
387.311	0.5	Win2	0.5854	n/a	No	2.736	n/a	n/a	LatePress	0	n/a	n/a	-1	40	Blank	MissedWin	True
387.812	1.45	Win2	0.5854	n/a	No	2.736	n/a	5.0	LatePress	0	0.013	386.825	-1	40	Feedback	MissedWin	True
389.267	2.736	Win2	0.5854	n/a	No	2.736	n/a	n/a	LatePress	0	0.0	n/a	-1	40	ISIslide	MissedWin	True
392.025	0.25	Win2	0.5952000000000001	0.0	Yes	2.775	0.025	n/a	GoodResponse	1	n/a	n/a	0	41	Cue	Win	True
392.276	3.9	Win2	0.5952000000000001	0.0	Yes	2.775	0.001	n/a	GoodResponse	1	n/a	n/a	0	41	Fixation	Win	True
396.171	0.21	Win2	0.5952000000000001	0.004	Yes	2.775	-0.004	2.0	GoodResponse	1	0.209	395.38	0	41	Target	Win	True
396.38	0.3	Win2	0.5952000000000001	0.004	Yes	2.775	-0.004	2.0	GoodResponse	1	0.209	n/a	0	41	ButtonPress	Win	True
396.388	0.49	Win2	0.5952000000000001	n/a	Yes	2.775	n/a	n/a	GoodResponse	1	n/a	n/a	0	41	Blank	Win	True
396.873	1.45	Win2	0.5952000000000001	n/a	Yes	2.775	n/a	5.0	GoodResponse	1	0.026	395.899	0	41	Feedback	Win	True
398.327	2.775	Win2	0.5952000000000001	n/a	Yes	2.775	n/a	n/a	GoodResponse	1	0.0	n/a	0	41	ISIslide	Win	True
401.119	0.25	Control	0.6047	0.0	Yes	2.931	0.019	n/a	GoodResponse	0	n/a	n/a	0	42	Cue	Neutral	True
401.37	3.85	Control	0.6047	0.0	Yes	2.931	0.001	n/a	GoodResponse	0	n/a	n/a	0	42	Fixation	Neutral	True
405.215	0.22	Control	0.6047	0.004	Yes	2.931	-0.004	2.0	GoodResponse	0	0.19	404.405	0	42	Target	Neutral	True
405.405	0.3	Control	0.6047	0.004	Yes	2.931	-0.004	2.0	GoodResponse	0	0.19	n/a	0	42	ButtonPress	Neutral	True
405.449	0.48	Control	0.6047	n/a	Yes	2.931	n/a	n/a	GoodResponse	0	n/a	n/a	0	42	Blank	Neutral	True
405.917	1.45	Control	0.6047	n/a	Yes	2.931	n/a	5.0	GoodResponse	0	0.006	404.923	0	42	Feedback	Neutral	True
407.371	2.931	Control	0.6047	n/a	Yes	2.931	n/a	n/a	GoodResponse	0	0.0	n/a	0	42	ISIslide	Neutral	True
410.33	0.25	Win2	0.5909	0.0	No	3.17	0.03	n/a	NoResponse	0	n/a	n/a	0	43	Cue	MissedWin	True
410.581	4.0	Win2	0.5909	0.0	No	3.17	0.001	n/a	NoResponse	0	n/a	n/a	0	43	Fixation	MissedWin	True
414.576	0.23	Win2	0.5909	0.004	No	3.17	-0.004	2.0	NoResponse	0	0.267	413.843	0	43	Target	MissedWin	True
414.81	0.47	Win2	0.5909	n/a	No	3.17	n/a	n/a	NoResponse	0	n/a	n/a	0	43	Blank	MissedWin	True
414.843	0.3	Win2	0.5909	0.004	No	3.17	-0.004	2.0	NoResponse	0	0.267	n/a	0	43	ButtonPress	MissedWin	True
415.278	1.45	Win2	0.5909	n/a	No	3.17	n/a	5.0	NoResponse	0	0.01	414.288	0	43	Feedback	MissedWin	True
416.732	3.17	Win2	0.5909	n/a	No	3.17	n/a	n/a	NoResponse	0	0.0	n/a	0	43	ISIslide	MissedWin	True
419.925	0.25	Win2	0.6	0.0	Yes	2.975	0.025	n/a	GoodResponse	1	n/a	n/a	1	44	Cue	Win	True
420.176	4.0	Win2	0.6	0.0	Yes	2.975	0.001	n/a	GoodResponse	1	n/a	n/a	1	44	Fixation	Win	True
424.171	0.24	Win2	0.6	0.004	Yes	2.975	-0.004	2.0	GoodResponse	1	0.224	423.395	1	44	Target	Win	True
424.395	0.3	Win2	0.6	0.004	Yes	2.975	-0.004	2.0	GoodResponse	1	0.224	n/a	1	44	ButtonPress	Win	True
424.422	0.46	Win2	0.6	n/a	Yes	2.975	n/a	n/a	GoodResponse	1	n/a	n/a	1	44	Blank	Win	True
424.873	1.45	Win2	0.6	n/a	Yes	2.975	n/a	5.0	GoodResponse	1	0.025	423.898	1	44	Feedback	Win	True
426.328	2.975	Win2	0.6	n/a	Yes	2.975	n/a	n/a	GoodResponse	1	0.0	n/a	1	44	ISIslide	Win	True
429.32	0.25	Control	0.6087	0.0	Yes	2.88	0.02	n/a	GoodResponse	0	n/a	n/a	1	45	Cue	Neutral	True
429.571	4.1	Control	0.6087	0.0	Yes	2.88	0.001	n/a	GoodResponse	0	n/a	n/a	1	45	Fixation	Neutral	True
433.666	0.25	Control	0.6087	0.004	Yes	2.88	-0.004	2.0	GoodResponse	0	0.2	432.866	1	45	Target	Neutral	True
433.866	0.3	Control	0.6087	0.004	Yes	2.88	-0.004	2.0	GoodResponse	0	0.2	n/a	1	45	ButtonPress	Neutral	True
433.917	0.45	Control	0.6087	n/a	Yes	2.88	n/a	n/a	GoodResponse	0	n/a	n/a	1	45	Blank	Neutral	True
434.368	1.45	Control	0.6087	n/a	Yes	2.88	n/a	5.0	GoodResponse	0	0.042	433.41	1	45	Feedback	Neutral	True
435.823	2.88	Control	0.6087	n/a	Yes	2.88	n/a	n/a	GoodResponse	0	0.0	n/a	1	45	ISIslide	Neutral	True
438.715	0.25	Lose2	0.5957	0.0	No	3.385	0.015	n/a	NoResponse	-1	n/a	n/a	0	46	Cue	Loss	True
438.966	4.0	Lose2	0.5957	0.0	No	3.385	0.001	n/a	NoResponse	-1	n/a	n/a	0	46	Fixation	Loss	True
442.961	0.26	Lose2	0.5957	0.004	No	3.385	-0.004	2.0	NoResponse	-1	0.306	442.267	0	46	Target	Loss	True
443.228	0.44	Lose2	0.5957	n/a	No	3.385	n/a	n/a	NoResponse	-1	n/a	n/a	0	46	Blank	Loss	True
443.267	0.3	Lose2	0.5957	0.004	No	3.385	-0.004	2.0	NoResponse	-1	0.306	n/a	0	46	ButtonPress	Loss	True
443.663	1.45	Lose2	0.5957	n/a	No	3.385	n/a	5.0	NoResponse	-1	0.016	442.679	0	46	Feedback	Loss	True
445.117	3.385	Lose2	0.5957	n/a	No	3.385	n/a	n/a	NoResponse	-1	0.0	n/a	0	46	ISIslide	Loss	True
448.528	0.25	Lose2	0.6042000000000001	0.0	Yes	2.672	0.028	n/a	GoodResponse	0	n/a	n/a	0	47	Cue	AvoidedLoss	True
448.778	4.0	Lose2	0.6042000000000001	0.0	Yes	2.672	0.0	n/a	GoodResponse	0	n/a	n/a	0	47	Fixation	AvoidedLoss	True
452.774	0.27	Lose2	0.6042000000000001	0.004	Yes	2.672	-0.004	2.0	GoodResponse	0	0.241	452.015	0	47	Target	AvoidedLoss	True
453.015	0.3	Lose2	0.6042000000000001	0.004	Yes	2.672	-0.004	2.0	GoodResponse	0	0.241	n/a	0	47	ButtonPress	AvoidedLoss	True
453.058	0.43	Lose2	0.6042000000000001	n/a	Yes	2.672	n/a	n/a	GoodResponse	0	n/a	n/a	0	47	Blank	AvoidedLoss	True
453.476	1.45	Lose2	0.6042000000000001	n/a	Yes	2.672	n/a	5.0	GoodResponse	0	0.007	452.483	0	47	Feedback	AvoidedLoss	True
454.93	2.672	Lose2	0.6042000000000001	n/a	Yes	2.672	n/a	n/a	GoodResponse	0	0.0	n/a	0	47	ISIslide	AvoidedLoss	True
457.621	0.25	Lose2	0.6122	0.0	Yes	3.029	0.021	n/a	GoodResponse	0	n/a	n/a	0	48	Cue	AvoidedLoss	True
457.872	3.95	Lose2	0.6122	0.0	Yes	3.029	0.001	n/a	GoodResponse	0	n/a	n/a	0	48	Fixation	AvoidedLoss	True
461.817	0.28	Lose2	0.6122	0.004	Yes	3.029	-0.004	2.0	GoodResponse	0	0.172	460.989	0	48	Target	AvoidedLoss	True
461.989	0.3	Lose2	0.6122	0.004	Yes	3.029	-0.004	2.0	GoodResponse	0	0.172	n/a	0	48	ButtonPress	AvoidedLoss	True
462.101	0.42	Lose2	0.6122	n/a	Yes	3.029	n/a	n/a	GoodResponse	0	n/a	n/a	0	48	Blank	AvoidedLoss	True
462.519	1.45	Lose2	0.6122	n/a	Yes	3.029	n/a	5.0	GoodResponse	0	0.037	461.556	0	48	Feedback	AvoidedLoss	True
463.974	3.029	Lose2	0.6122	n/a	Yes	3.029	n/a	n/a	GoodResponse	0	0.0	n/a	0	48	ISIslide	AvoidedLoss	True
467.016	0.25	Control	0.62	0.0	Yes	2.884	0.016	n/a	GoodResponse	0	n/a	n/a	0	49	Cue	Neutral	True
467.267	4.0	Control	0.62	0.0	Yes	2.884	0.001	n/a	GoodResponse	0	n/a	n/a	0	49	Fixation	Neutral	True
471.262	0.29	Control	0.62	0.004	Yes	2.884	-0.004	2.0	GoodResponse	0	0.197	470.459	0	49	Target	Neutral	True
471.459	0.3	Control	0.62	0.004	Yes	2.884	-0.004	2.0	GoodResponse	0	0.197	n/a	0	49	ButtonPress	Neutral	True
471.563	0.41	Control	0.62	n/a	Yes	2.884	n/a	n/a	GoodResponse	0	n/a	n/a	0	49	Blank	Neutral	True
471.964	1.45	Control	0.62	n/a	Yes	2.884	n/a	5.0	GoodResponse	0	0.007	470.971	0	49	Feedback	Neutral	True
473.419	2.884	Control	0.62	n/a	Yes	2.884	n/a	n/a	GoodResponse	0	0.0	n/a	0	49	ISIslide	Neutral	True
476.327	0.25	Control	0.6275	0.0	Yes	2.773	0.027	n/a	GoodResponse	0	n/a	n/a	0	50	Cue	Neutral	True
476.578	4.0	Control	0.6275	0.0	Yes	2.773	0.001	n/a	GoodResponse	0	n/a	n/a	0	50	Fixation	Neutral	True
480.573	0.3	Control	0.6275	0.004	Yes	2.773	-0.004	2.0	GoodResponse	0	0.255	479.828	0	50	Target	Neutral	True
480.828	0.3	Control	0.6275	0.004	Yes	2.773	-0.004	2.0	GoodResponse	0	0.255	n/a	0	50	ButtonPress	Neutral	True
480.874	0.4	Control	0.6275	n/a	Yes	2.773	n/a	n/a	GoodResponse	0	n/a	n/a	0	50	Blank	Neutral	True
481.276	1.45	Control	0.6275	n/a	Yes	2.773	n/a	5.0	GoodResponse	0	0.012	480.288	0	50	Feedback	Neutral	True
482.73	2.773	Control	0.6275	n/a	Yes	2.773	n/a	n/a	GoodResponse	0	0.0	n/a	0	50	ISIslide	Neutral	True
485.522	0.25	Control	0.6346	0.0	Yes	2.728	0.022	n/a	GoodResponse	0	n/a	n/a	0	51	Cue	Neutral	True
485.772	3.95	Control	0.6346	0.0	Yes	2.728	0.0	n/a	GoodResponse	0	n/a	n/a	0	51	Fixation	Neutral	True
489.734	0.31	Control	0.6346	0.0	Yes	2.728	0.012	2.0	GoodResponse	0	0.228	488.962	0	51	Target	Neutral	True
489.962	0.3	Control	0.6346	0.0	Yes	2.728	0.012	2.0	GoodResponse	0	0.228	n/a	0	51	ButtonPress	Neutral	True
490.035	0.39	Control	0.6346	n/a	Yes	2.728	n/a	n/a	GoodResponse	0	n/a	n/a	0	51	Blank	Neutral	True
490.42	1.45	Control	0.6346	n/a	Yes	2.728	n/a	5.0	GoodResponse	0	0.039	489.459	0	51	Feedback	Neutral	True
491.874	2.728	Control	0.6346	n/a	Yes	2.728	n/a	n/a	GoodResponse	0	0.0	n/a	0	51	ISIslide	Neutral	True
494.615	0.25	Control	0.6415000000000001	0.001	Yes	2.635	0.015	n/a	GoodResponse	0	n/a	n/a	0	52	Cue	Neutral	True
494.866	4.05	Control	0.6415000000000001	0.0	Yes	2.635	0.001	n/a	GoodResponse	0	n/a	n/a	0	52	Fixation	Neutral	True
498.912	0.32	Control	0.6415000000000001	0.003	Yes	2.635	-0.003	2.0	GoodResponse	0	0.284	498.196	0	52	Target	Neutral	True
499.196	0.3	Control	0.6415000000000001	0.003	Yes	2.635	-0.003	2.0	GoodResponse	0	0.284	n/a	0	52	ButtonPress	Neutral	True
499.246	0.38	Control	0.6415000000000001	n/a	Yes	2.635	n/a	n/a	GoodResponse	0	n/a	n/a	0	52	Blank	Neutral	True
499.614	1.45	Control	0.6415000000000001	n/a	Yes	2.635	n/a	5.0	GoodResponse	0	0.015	498.629	0	52	Feedback	Neutral	True
501.068	2.635	Control	0.6415000000000001	n/a	Yes	2.635	n/a	n/a	GoodResponse	0	0.0	n/a	0	52	ISIslide	Neutral	True
503.726	0.25	Win2	0.6481	0.0	Yes	2.924	0.026	n/a	GoodResponse	1	n/a	n/a	1	53	Cue	Win	True
503.977	4.05	Win2	0.6481	0.0	Yes	2.924	0.001	n/a	GoodResponse	1	n/a	n/a	1	53	Fixation	Win	True
508.022	0.33	Win2	0.6481	0.004	Yes	2.924	-0.004	2.0	GoodResponse	1	0.176	507.198	1	53	Target	Win	True
508.198	0.3	Win2	0.6481	0.004	Yes	2.924	-0.004	2.0	GoodResponse	1	0.176	n/a	1	53	ButtonPress	Win	True
508.357	0.37	Win2	0.6481	n/a	Yes	2.924	n/a	n/a	GoodResponse	1	n/a	n/a	1	53	Blank	Win	True
508.724	1.45	Win2	0.6481	n/a	Yes	2.924	n/a	5.0	GoodResponse	1	0.026	507.75	1	53	Feedback	Win	True
510.179	2.924	Win2	0.6481	n/a	Yes	2.924	n/a	n/a	GoodResponse	1	0.0	n/a	1	53	ISIslide	Win	True
513.121	0.25	Win2	0.6545000000000001	0.0	Yes	2.729	0.021	n/a	GoodResponse	1	n/a	n/a	2	54	Cue	Win	True
513.372	3.95	Win2	0.6545000000000001	0.0	Yes	2.729	0.001	n/a	GoodResponse	1	n/a	n/a	2	54	Fixation	Win	True
517.317	0.34	Win2	0.6545000000000001	0.004	Yes	2.729	-0.004	2.0	GoodResponse	1	0.181	516.498	2	54	Target	Win	True
517.498	0.3	Win2	0.6545000000000001	0.004	Yes	2.729	-0.004	2.0	GoodResponse	1	0.181	n/a	2	54	ButtonPress	Win	True
517.668	0.36	Win2	0.6545000000000001	n/a	Yes	2.729	n/a	n/a	GoodResponse	1	n/a	n/a	2	54	Blank	Win	True
518.019	1.45	Win2	0.6545000000000001	n/a	Yes	2.729	n/a	5.0	GoodResponse	1	0.0	517.019	2	54	Feedback	Win	True
519.473	2.729	Win2	0.6545000000000001	n/a	Yes	2.729	n/a	n/a	GoodResponse	1	0.0	n/a	2	54	ISIslide	Win	True
522.215	0.25	Control	0.6607	0.0	Yes	3.035	0.015	n/a	GoodResponse	0	n/a	n/a	2	55	Cue	Neutral	True
522.466	3.95	Control	0.6607	0.0	Yes	3.035	0.001	n/a	GoodResponse	0	n/a	n/a	2	55	Fixation	Neutral	True
526.411	0.35	Control	0.6607	0.004	Yes	3.035	-0.004	2.0	GoodResponse	0	0.321	525.732	2	55	Target	Neutral	True
526.732	0.3	Control	0.6607	0.004	Yes	3.035	-0.004	2.0	GoodResponse	0	0.321	n/a	2	55	ButtonPress	Neutral	True
526.762	0.35	Control	0.6607	n/a	Yes	3.035	n/a	n/a	GoodResponse	0	n/a	n/a	2	55	Blank	Neutral	True
527.113	1.45	Control	0.6607	n/a	Yes	3.035	n/a	5.0	GoodResponse	0	0.028	526.141	2	55	Feedback	Neutral	True
528.567	3.035	Control	0.6607	n/a	Yes	3.035	n/a	n/a	GoodResponse	0	0.0	n/a	2	55	ISIslide	Neutral	True
531.626	0.25	Control	0.6667000000000001	0.0	Yes	2.824	0.026	n/a	GoodResponse	0	n/a	n/a	2	56	Cue	Neutral	True
531.877	3.95	Control	0.6667000000000001	0.0	Yes	2.824	0.001	n/a	GoodResponse	0	n/a	n/a	2	56	Fixation	Neutral	True
535.822	0.35	Control	0.6667000000000001	0.004	Yes	2.824	-0.004	2.0	GoodResponse	0	0.169	534.991	2	56	Target	Neutral	True
535.991	0.3	Control	0.6667000000000001	0.004	Yes	2.824	-0.004	2.0	GoodResponse	0	0.169	n/a	2	56	ButtonPress	Neutral	True
536.173	0.35	Control	0.6667000000000001	n/a	Yes	2.824	n/a	n/a	GoodResponse	0	n/a	n/a	2	56	Blank	Neutral	True
536.524	1.45	Control	0.6667000000000001	n/a	Yes	2.824	n/a	5.0	GoodResponse	0	0.032	535.556	2	56	Feedback	Neutral	True
537.979	2.824	Control	0.6667000000000001	n/a	Yes	2.824	n/a	n/a	GoodResponse	0	0.0	n/a	2	56	ISIslide	Neutral	True
540.82	0.25	Control	0.6724	0.001	Yes	3.48	0.02	n/a	GoodResponse	0	n/a	n/a	2	57	Cue	Neutral	True
541.071	4.0	Control	0.6724	0.0	Yes	3.48	0.001	n/a	GoodResponse	0	n/a	n/a	2	57	Fixation	Neutral	True
545.067	0.34	Control	0.6724	0.003	Yes	3.48	-0.003	2.0	GoodResponse	0	0.234	544.301	2	57	Target	Neutral	True
545.301	0.3	Control	0.6724	0.003	Yes	3.48	-0.003	2.0	GoodResponse	0	0.234	n/a	2	57	ButtonPress	Neutral	True
545.418	0.36	Control	0.6724	n/a	Yes	3.48	n/a	n/a	GoodResponse	0	n/a	n/a	2	57	Blank	Neutral	True
545.769	1.45	Control	0.6724	n/a	Yes	3.48	n/a	5.0	GoodResponse	0	0.006	544.775	2	57	Feedback	Neutral	True
547.223	3.48	Control	0.6724	n/a	Yes	3.48	n/a	n/a	GoodResponse	0	0.0	n/a	2	57	ISIslide	Neutral	True
550.717	0.25	Win2	0.6779999999999999	0.0	Yes	2.733	0.017	n/a	GoodResponse	1	n/a	n/a	3	58	Cue	Win	False
550.967	4.05	Win2	0.6779999999999999	0.001	Yes	2.733	0.0	2.0	GoodResponse	1	1.457	551.424	3	58	Fixation	Win	False
552.424	0.3	Win2	0.6779999999999999	0.001	Yes	2.733	0.0	2.0	GoodResponse	1	1.457	n/a	3	58	ButtonPress	Win	False
555.013	0.33	Win2	0.6779999999999999	0.004	Yes	2.733	-0.004	2.0	GoodResponse	1	0.172	554.185	3	58	Target	Win	False
555.185	0.3	Win2	0.6779999999999999	0.004	Yes	2.733	-0.004	2.0	GoodResponse	1	0.172	n/a	3	58	ButtonPress	Win	False
555.347	0.37	Win2	0.6779999999999999	n/a	Yes	2.733	n/a	n/a	GoodResponse	1	n/a	n/a	3	58	Blank	Win	False
555.715	1.45	Win2	0.6779999999999999	n/a	Yes	2.733	n/a	5.0	GoodResponse	1	0.011	554.726	3	58	Feedback	Win	False
557.169	2.733	Win2	0.6779999999999999	n/a	Yes	2.733	n/a	n/a	GoodResponse	1	0.0	n/a	3	58	ISIslide	Win	False
559.928	0.25	Lose2	0.6833	0.0	Yes	2.672	0.028	n/a	GoodResponse	0	n/a	n/a	3	59	Cue	AvoidedLoss	True
560.178	4.0	Lose2	0.6833	0.0	Yes	2.672	0.0	n/a	GoodResponse	0	n/a	n/a	3	59	Fixation	AvoidedLoss	True
564.174	0.32	Lose2	0.6833	0.004	Yes	2.672	-0.004	2.0	GoodResponse	0	0.217	563.391	3	59	Target	AvoidedLoss	True
564.391	0.3	Lose2	0.6833	0.004	Yes	2.672	-0.004	2.0	GoodResponse	0	0.217	n/a	3	59	ButtonPress	AvoidedLoss	True
564.508	0.38	Lose2	0.6833	n/a	Yes	2.672	n/a	n/a	GoodResponse	0	n/a	n/a	3	59	Blank	AvoidedLoss	True
564.876	1.45	Lose2	0.6833	n/a	Yes	2.672	n/a	5.0	GoodResponse	0	0.02	563.896	3	59	Feedback	AvoidedLoss	True
566.33	2.672	Lose2	0.6833	n/a	Yes	2.672	n/a	n/a	GoodResponse	0	0.0	n/a	3	59	ISIslide	AvoidedLoss	True
569.022	0.25	Control	0.6720999999999999	0.0	No	2.678	0.022	n/a	NoResponse	0	n/a	n/a	3	60	Cue	Neutral	True
569.272	4.0	Control	0.6720999999999999	0.0	No	2.678	0.0	n/a	NoResponse	0	n/a	n/a	3	60	Fixation	Neutral	True
573.268	0.31	Control	0.6720999999999999	0.004	No	2.678	-0.004	2.0	NoResponse	0	0.426	572.694	3	60	Target	Neutral	True
573.585	0.39	Control	0.6720999999999999	n/a	No	2.678	n/a	n/a	NoResponse	0	n/a	n/a	3	60	Blank	Neutral	True
573.694	0.3	Control	0.6720999999999999	0.004	No	2.678	-0.004	2.0	NoResponse	0	0.426	n/a	3	60	ButtonPress	Neutral	True
573.97	1.45	Control	0.6720999999999999	n/a	No	2.678	n/a	5.0	NoResponse	0	0.0	572.97	3	60	Feedback	Neutral	True
575.424	2.678	Control	0.6720999999999999	n/a	No	2.678	n/a	n/a	NoResponse	0	0.0	n/a	3	60	ISIslide	Neutral	True
578.115	0.25	Lose2	0.6774	0.0	Yes	2.985	0.015	n/a	GoodResponse	0	n/a	n/a	3	61	Cue	AvoidedLoss	True
578.366	4.0	Lose2	0.6774	0.0	Yes	2.985	0.001	n/a	GoodResponse	0	n/a	n/a	3	61	Fixation	AvoidedLoss	True
582.361	0.3	Lose2	0.6774	0.004	Yes	2.985	-0.004	2.0	GoodResponse	0	0.183	581.544	3	61	Target	AvoidedLoss	True
582.544	0.3	Lose2	0.6774	0.004	Yes	2.985	-0.004	2.0	GoodResponse	0	0.183	n/a	3	61	ButtonPress	AvoidedLoss	True
582.662	0.4	Lose2	0.6774	n/a	Yes	2.985	n/a	n/a	GoodResponse	0	n/a	n/a	3	61	Blank	AvoidedLoss	True
583.064	1.45	Lose2	0.6774	n/a	Yes	2.985	n/a	5.0	GoodResponse	0	0.028	582.092	3	61	Feedback	AvoidedLoss	True
584.518	2.985	Lose2	0.6774	n/a	Yes	2.985	n/a	n/a	GoodResponse	0	0.0	n/a	3	61	ISIslide	AvoidedLoss	True
587.527	0.25	Lose2	0.6825	0.0	Yes	2.873	0.027	n/a	GoodResponse	0	n/a	n/a	3	62	Cue	AvoidedLoss	True
587.778	3.9	Lose2	0.6825	0.0	Yes	2.873	0.001	n/a	GoodResponse	0	n/a	n/a	3	62	Fixation	AvoidedLoss	True
591.673	0.29	Lose2	0.6825	0.004	Yes	2.873	-0.004	2.0	GoodResponse	0	0.167	590.84	3	62	Target	AvoidedLoss	True
591.84	0.3	Lose2	0.6825	0.004	Yes	2.873	-0.004	2.0	GoodResponse	0	0.167	n/a	3	62	ButtonPress	AvoidedLoss	True
591.974	0.41	Lose2	0.6825	n/a	Yes	2.873	n/a	n/a	GoodResponse	0	n/a	n/a	3	62	Blank	AvoidedLoss	True
592.375	1.45	Lose2	0.6825	n/a	Yes	2.873	n/a	5.0	GoodResponse	0	0.034	591.409	3	62	Feedback	AvoidedLoss	True
593.829	2.873	Lose2	0.6825	n/a	Yes	2.873	n/a	n/a	GoodResponse	0	0.0	n/a	3	62	ISIslide	AvoidedLoss	True
596.721	0.25	Lose2	0.6875	0.0	Yes	2.629	0.021	n/a	GoodResponse	0	n/a	n/a	3	63	Cue	AvoidedLoss	True
596.972	4.05	Lose2	0.6875	0.0	Yes	2.629	0.001	n/a	GoodResponse	0	n/a	n/a	3	63	Fixation	AvoidedLoss	True
601.017	0.28	Lose2	0.6875	0.004	Yes	2.629	-0.004	2.0	GoodResponse	0	0.168	600.185	3	63	Target	AvoidedLoss	True
601.185	0.3	Lose2	0.6875	0.004	Yes	2.629	-0.004	2.0	GoodResponse	0	0.168	n/a	3	63	ButtonPress	AvoidedLoss	True
601.302	0.42	Lose2	0.6875	n/a	Yes	2.629	n/a	n/a	GoodResponse	0	n/a	n/a	3	63	Blank	AvoidedLoss	True
601.719	1.45	Lose2	0.6875	n/a	Yes	2.629	n/a	5.0	GoodResponse	0	0.007	600.726	3	63	Feedback	AvoidedLoss	True
603.174	2.629	Lose2	0.6875	n/a	Yes	2.629	n/a	n/a	GoodResponse	0	0.0	n/a	3	63	ISIslide	AvoidedLoss	True
605.815	0.25	Win2	0.6923	0.0	Yes	3.135	0.015	n/a	GoodResponse	1	n/a	n/a	4	64	Cue	Win	True
606.066	4.15	Win2	0.6923	0.0	Yes	3.135	0.001	n/a	GoodResponse	1	n/a	n/a	4	64	Fixation	Win	True
610.212	0.27	Win2	0.6923	0.003	Yes	3.135	-0.003	2.0	GoodResponse	1	0.153	609.365	4	64	Target	Win	True
610.365	0.3	Win2	0.6923	0.003	Yes	3.135	-0.003	2.0	GoodResponse	1	0.153	n/a	4	64	ButtonPress	Win	True
610.496	0.43	Win2	0.6923	n/a	Yes	3.135	n/a	n/a	GoodResponse	1	n/a	n/a	4	64	Blank	Win	True
610.914	1.45	Win2	0.6923	n/a	Yes	3.135	n/a	5.0	GoodResponse	1	0.031	609.945	4	64	Feedback	Win	True
612.368	3.135	Win2	0.6923	n/a	Yes	3.135	n/a	n/a	GoodResponse	1	0.0	n/a	4	64	ISIslide	Win	True
615.527	0.25	Control	0.6970000000000001	0.0	Yes	2.773	0.027	n/a	GoodResponse	0	n/a	n/a	4	65	Cue	Neutral	True
615.778	4.0	Control	0.6970000000000001	0.0	Yes	2.773	0.001	n/a	GoodResponse	0	n/a	n/a	4	65	Fixation	Neutral	True
619.773	0.26	Control	0.6970000000000001	0.004	Yes	2.773	-0.004	2.0	GoodResponse	0	0.192	618.965	4	65	Target	Neutral	True
619.965	0.3	Control	0.6970000000000001	0.004	Yes	2.773	-0.004	2.0	GoodResponse	0	0.192	n/a	4	65	ButtonPress	Neutral	True
620.041	0.44	Control	0.6970000000000001	n/a	Yes	2.773	n/a	n/a	GoodResponse	0	n/a	n/a	4	65	Blank	Neutral	True
620.476	1.45	Control	0.6970000000000001	n/a	Yes	2.773	n/a	5.0	GoodResponse	0	0.03	619.506	4	65	Feedback	Neutral	True
621.93	2.773	Control	0.6970000000000001	n/a	Yes	2.773	n/a	n/a	GoodResponse	0	0.0	n/a	4	65	ISIslide	Neutral	True
624.722	0.25	Win2	0.6866	0.0	No	2.778	0.022	n/a	NoResponse	0	n/a	n/a	4	66	Cue	MissedWin	True
624.972	3.9	Win2	0.6866	0.0	No	2.778	0.0	n/a	NoResponse	0	n/a	n/a	4	66	Fixation	MissedWin	True
628.884	0.25	Win2	0.6866	0.0	No	2.778	0.012	2.0	NoResponse	0	0.244	628.128	4	66	Target	MissedWin	True
629.118	0.45	Win2	0.6866	n/a	No	2.778	n/a	n/a	NoResponse	0	n/a	n/a	4	66	Blank	MissedWin	True
629.128	0.3	Win2	0.6866	0.0	No	2.778	0.012	2.0	NoResponse	0	0.244	n/a	4	66	ButtonPress	MissedWin	True
629.569	1.45	Win2	0.6866	n/a	No	2.778	n/a	5.0	NoResponse	0	0.01	628.579	4	66	Feedback	MissedWin	True
631.024	2.778	Win2	0.6866	n/a	No	2.778	n/a	n/a	NoResponse	0	0.0	n/a	4	66	ISIslide	MissedWin	True
633.815	0.25	Control	0.6912	0.001	Yes	2.735	0.015	n/a	GoodResponse	0	n/a	n/a	4	67	Cue	Neutral	True
634.066	3.95	Control	0.6912	0.0	Yes	2.735	0.001	n/a	GoodResponse	0	n/a	n/a	4	67	Fixation	Neutral	True
638.011	0.24	Control	0.6912	0.004	Yes	2.735	-0.004	2.0	GoodResponse	0	0.175	637.186	4	67	Target	Neutral	True
638.186	0.3	Control	0.6912	0.004	Yes	2.735	-0.004	2.0	GoodResponse	0	0.175	n/a	4	67	ButtonPress	Neutral	True
638.262	0.46	Control	0.6912	n/a	Yes	2.735	n/a	n/a	GoodResponse	0	n/a	n/a	4	67	Blank	Neutral	True
638.713	1.45	Control	0.6912	n/a	Yes	2.735	n/a	5.0	GoodResponse	0	0.037	637.75	4	67	Feedback	Neutral	True
640.168	2.735	Control	0.6912	n/a	Yes	2.735	n/a	n/a	GoodResponse	0	0.0	n/a	4	67	ISIslide	Neutral	True
642.926	0.25	Win2	0.6957	0.0	Yes	3.074	0.026	n/a	GoodResponse	1	n/a	n/a	5	68	Cue	Win	True
643.177	4.0	Win2	0.6957	0.0	Yes	3.074	0.001	n/a	GoodResponse	1	n/a	n/a	5	68	Fixation	Win	True
647.172	0.23	Win2	0.6957	0.004	Yes	3.074	-0.004	2.0	GoodResponse	1	0.186	646.358	5	68	Target	Win	True
647.358	0.3	Win2	0.6957	0.004	Yes	3.074	-0.004	2.0	GoodResponse	1	0.186	n/a	5	68	ButtonPress	Win	True
647.406	0.47	Win2	0.6957	n/a	Yes	3.074	n/a	n/a	GoodResponse	1	n/a	n/a	5	68	Blank	Win	True
647.874	1.45	Win2	0.6957	n/a	Yes	3.074	n/a	5.0	GoodResponse	1	0.047	646.921	5	68	Feedback	Win	True
649.329	3.074	Win2	0.6957	n/a	Yes	3.074	n/a	n/a	GoodResponse	1	0.0	n/a	5	68	ISIslide	Win	True
652.421	0.25	Win2	0.7	0.0	Yes	3.229	0.021	n/a	GoodResponse	1	n/a	n/a	6	69	Cue	Win	True
652.672	3.95	Win2	0.7	0.0	Yes	3.229	0.001	n/a	GoodResponse	1	n/a	n/a	6	69	Fixation	Win	True
656.617	0.22	Win2	0.7	0.004	Yes	3.229	-0.004	2.0	GoodResponse	1	0.178	655.795	6	69	Target	Win	True
656.795	0.3	Win2	0.7	0.004	Yes	3.229	-0.004	2.0	GoodResponse	1	0.178	n/a	6	69	ButtonPress	Win	True
656.851	0.48	Win2	0.7	n/a	Yes	3.229	n/a	n/a	GoodResponse	1	n/a	n/a	6	69	Blank	Win	True
657.319	1.45	Win2	0.7	n/a	Yes	3.229	n/a	5.0	GoodResponse	1	0.015	656.334	6	69	Feedback	Win	True
658.774	3.229	Win2	0.7	n/a	Yes	3.229	n/a	n/a	GoodResponse	1	0.0	n/a	6	69	ISIslide	Win	True
662.017	0.25	Lose2	0.7042	0.0	Yes	3.033	0.017	n/a	GoodResponse	0	n/a	n/a	6	70	Cue	AvoidedLoss	True
662.267	4.05	Lose2	0.7042	0.0	Yes	3.033	0.0	n/a	GoodResponse	0	n/a	n/a	6	70	Fixation	AvoidedLoss	True
666.313	0.21	Lose2	0.7042	0.004	Yes	3.033	-0.004	2.0	GoodResponse	0	0.194	665.507	6	70	Target	AvoidedLoss	True
666.507	0.3	Lose2	0.7042	0.004	Yes	3.033	-0.004	2.0	GoodResponse	0	0.194	n/a	6	70	ButtonPress	AvoidedLoss	True
666.53	0.49	Lose2	0.7042	n/a	Yes	3.033	n/a	n/a	GoodResponse	0	n/a	n/a	6	70	Blank	AvoidedLoss	True
667.015	1.45	Lose2	0.7042	n/a	Yes	3.033	n/a	5.0	GoodResponse	0	0.027	666.042	6	70	Feedback	AvoidedLoss	True
668.469	3.033	Lose2	0.7042	n/a	Yes	3.033	n/a	n/a	GoodResponse	0	0.0	n/a	6	70	ISIslide	AvoidedLoss	True
671.528	0.25	Win2	0.7082999999999999	0.0	Yes	2.722	0.028	n/a	GoodResponse	1	n/a	n/a	7	71	Cue	Win	True
671.779	4.05	Win2	0.7082999999999999	0.0	Yes	2.722	0.001	n/a	GoodResponse	1	n/a	n/a	7	71	Fixation	Win	True
675.825	0.2	Win2	0.7082999999999999	0.003	Yes	2.722	-0.003	2.0	GoodResponse	1	0.172	674.997	7	71	Target	Win	True
675.997	0.3	Win2	0.7082999999999999	0.003	Yes	2.722	-0.003	2.0	GoodResponse	1	0.172	n/a	7	71	ButtonPress	Win	True
676.025	0.5	Win2	0.7082999999999999	n/a	Yes	2.722	n/a	n/a	GoodResponse	1	n/a	n/a	7	71	Blank	Win	True
676.527	1.45	Win2	0.7082999999999999	n/a	Yes	2.722	n/a	5.0	GoodResponse	1	0.027	675.554	7	71	Feedback	Win	True
677.981	2.722	Win2	0.7082999999999999	n/a	Yes	2.722	n/a	n/a	GoodResponse	1	0.0	n/a	7	71	ISIslide	Win	True
680.723	0.25	Win2	0.7123	0.0	Yes	2.777	0.023	n/a	GoodResponse	1	n/a	n/a	8	72	Cue	Win	True
680.973	4.1	Win2	0.7123	0.0	Yes	2.777	0.0	n/a	GoodResponse	1	n/a	n/a	8	72	Fixation	Win	True
685.069	0.19	Win2	0.7123	0.004	Yes	2.777	-0.004	2.0	GoodResponse	1	0.165	684.234	8	72	Target	Win	True
685.234	0.3	Win2	0.7123	0.004	Yes	2.777	-0.004	2.0	GoodResponse	1	0.165	n/a	8	72	ButtonPress	Win	True
685.27	0.51	Win2	0.7123	n/a	Yes	2.777	n/a	n/a	GoodResponse	1	n/a	n/a	8	72	Blank	Win	True
685.771	1.45	Win2	0.7123	n/a	Yes	2.777	n/a	5.0	GoodResponse	1	0.007	684.778	8	72	Feedback	Win	True
687.225	2.777	Win2	0.7123	n/a	Yes	2.777	n/a	n/a	GoodResponse	1	0.0	n/a	8	72	ISIslide	Win	True
690.017	0.25	Win2	0.7027	0.0	No	2.683	0.017	n/a	NoResponse	0	n/a	n/a	8	73	Cue	MissedWin	True
690.268	4.0	Win2	0.7027	0.0	No	2.683	0.001	n/a	NoResponse	0	n/a	n/a	8	73	Fixation	MissedWin	True
694.263	0.18	Win2	0.7027	0.004	No	2.683	-0.004	2.0	NoResponse	0	0.185	693.448	8	73	Target	MissedWin	True
694.447	0.52	Win2	0.7027	n/a	No	2.683	n/a	n/a	NoResponse	0	n/a	n/a	8	73	Blank	MissedWin	True
694.448	0.3	Win2	0.7027	0.004	No	2.683	-0.004	2.0	NoResponse	0	0.185	n/a	8	73	ButtonPress	MissedWin	True
694.965	1.45	Win2	0.7027	n/a	No	2.683	n/a	5.0	NoResponse	0	0.028	693.993	8	73	Feedback	MissedWin	True
696.42	2.683	Win2	0.7027	n/a	No	2.683	n/a	n/a	NoResponse	0	0.0	n/a	8	73	ISIslide	MissedWin	True
699.128	0.25	Lose2	0.6933	0.0	No	2.622	0.028	n/a	NoResponse	-1	n/a	n/a	7	74	Cue	Loss	True
699.378	4.05	Lose2	0.6933	0.0	No	2.622	0.0	n/a	NoResponse	-1	n/a	n/a	7	74	Fixation	Loss	True
703.424	0.17	Lose2	0.6933	0.004	No	2.622	-0.004	2.0	NoResponse	-1	0.192	702.616	7	74	Target	Loss	True
703.608	0.53	Lose2	0.6933	n/a	No	2.622	n/a	n/a	NoResponse	-1	n/a	n/a	7	74	Blank	Loss	True
703.616	0.3	Lose2	0.6933	0.004	No	2.622	-0.004	2.0	NoResponse	-1	0.192	n/a	7	74	ButtonPress	Loss	True
704.126	1.45	Lose2	0.6933	n/a	No	2.622	n/a	5.0	NoResponse	-1	0.037	703.163	7	74	Feedback	Loss	True
705.58	2.622	Lose2	0.6933	n/a	No	2.622	n/a	n/a	NoResponse	-1	0.0	n/a	7	74	ISIslide	Loss	True
708.222	0.25	Lose2	0.6842	0.0	No	2.928	0.022	n/a	NoResponse	-1	n/a	n/a	6	75	Cue	Loss	True
708.472	3.95	Lose2	0.6842	0.0	No	2.928	0.0	n/a	NoResponse	-1	n/a	n/a	6	75	Fixation	Loss	True
712.434	0.16	Lose2	0.6842	0.0	No	2.928	0.012	2.0	NoResponse	-1	0.212	711.646	6	75	Target	Loss	True
712.585	0.54	Lose2	0.6842	n/a	No	2.928	n/a	n/a	NoResponse	-1	n/a	n/a	6	75	Blank	Loss	True
712.646	0.3	Lose2	0.6842	0.0	No	2.928	0.012	2.0	NoResponse	-1	0.212	n/a	6	75	ButtonPress	Loss	True
713.12	1.45	Lose2	0.6842	n/a	No	2.928	n/a	5.0	NoResponse	-1	0.019	712.139	6	75	Feedback	Loss	True
714.574	2.928	Lose2	0.6842	n/a	No	2.928	n/a	n/a	NoResponse	-1	0.0	n/a	6	75	ISIslide	Loss	True
717.516	0.25	Control	0.6753	0.0	No	3.234	0.016	n/a	NoResponse	0	n/a	n/a	6	76	Cue	Neutral	True
717.767	4.05	Control	0.6753	0.0	No	3.234	0.001	n/a	NoResponse	0	n/a	n/a	6	76	Fixation	Neutral	True
721.812	0.15	Control	0.6753	0.004	No	3.234	-0.004	2.0	NoResponse	0	0.194	721.006	6	76	Target	Neutral	True
721.963	0.55	Control	0.6753	n/a	No	3.234	n/a	n/a	NoResponse	0	n/a	n/a	6	76	Blank	Neutral	True
722.006	0.3	Control	0.6753	0.004	No	3.234	-0.004	2.0	NoResponse	0	0.194	n/a	6	76	ButtonPress	Neutral	True
722.514	1.45	Control	0.6753	n/a	No	3.234	n/a	5.0	NoResponse	0	0.04	721.554	6	76	Feedback	Neutral	True
723.969	3.234	Control	0.6753	n/a	No	3.234	n/a	n/a	NoResponse	0	0.0	n/a	6	76	ISIslide	Neutral	True
727.228	0.25	Lose2	0.6667000000000001	0.001	No	2.572	0.028	n/a	NoResponse	-1	n/a	n/a	5	77	Cue	Loss	True
727.479	3.95	Lose2	0.6667000000000001	0.0	No	2.572	0.001	n/a	NoResponse	-1	n/a	n/a	5	77	Fixation	Loss	True
731.424	0.15	Lose2	0.6667000000000001	0.004	No	2.572	-0.004	2.0	NoResponse	-1	0.24	730.664	5	77	Target	Loss	True
731.575	0.55	Lose2	0.6667000000000001	n/a	No	2.572	n/a	n/a	NoResponse	-1	n/a	n/a	5	77	Blank	Loss	True
731.664	0.3	Lose2	0.6667000000000001	0.004	No	2.572	-0.004	2.0	NoResponse	-1	0.24	n/a	5	77	ButtonPress	Loss	True
732.126	1.45	Lose2	0.6667000000000001	n/a	No	2.572	n/a	5.0	NoResponse	-1	0.037	731.163	5	77	Feedback	Loss	True
733.581	2.572	Lose2	0.6667000000000001	n/a	No	2.572	n/a	n/a	NoResponse	-1	0.0	n/a	5	77	ISIslide	Loss	True
