onset	duration	cue_type	current_mean_accuracy	duration_error	is_hit	isi_adjusted	onset_delay	response	response_type	reward	rt	rt_time	total_reward	trial_number	trial_phase	trial_type	one_press
11.101	0.25	Control	0.0	0.001	No	2.949	0.001	n/a	NoResponse	0	n/a	n/a	0	0	Cue	Neutral	True
11.352	3.85	Control	0.0	0.0	No	2.949	0.001	n/a	NoResponse	0	n/a	n/a	0	0	Fixation	Neutral	True
15.197	0.4	Control	0.0	0.004	No	2.949	-0.004	2.0	NoResponse	0	0.419	14.616	0	0	Target	Neutral	True
15.598	0.3	Control	0.0	n/a	No	2.949	n/a	n/a	NoResponse	0	n/a	n/a	0	0	Blank	Neutral	True
15.616	0.3	Control	0.0	0.004	No	2.949	-0.004	2.0	NoResponse	0	0.419	n/a	0	0	ButtonPress	Neutral	True
15.899	1.45	Control	0.0	n/a	No	2.949	n/a	5.0	NoResponse	0	0.028	14.927	0	0	Feedback	Neutral	True
17.353	2.949	Control	0.0	n/a	No	2.949	n/a	n/a	NoResponse	0	0.0	n/a	0	0	ISIslide	Neutral	True
20.329	0.25	Lose2	0.5	0.0	Yes	2.771	0.029	n/a	GoodResponse	0	n/a	n/a	0	1	Cue	AvoidedLoss	True
20.58	4.0	Lose2	0.5	0.0	Yes	2.771	0.001	n/a	GoodResponse	0	n/a	n/a	0	1	Fixation	AvoidedLoss	True
24.575	0.41	Lose2	0.5	0.004	Yes	2.771	-0.004	2.0	GoodResponse	0	0.223	23.798	0	1	Target	AvoidedLoss	True
24.798	0.3	Lose2	0.5	0.004	Yes	2.771	-0.004	2.0	GoodResponse	0	0.223	n/a	0	1	ButtonPress	AvoidedLoss	True
24.993	0.29	Lose2	0.5	n/a	Yes	2.771	n/a	n/a	GoodResponse	0	n/a	n/a	0	1	Blank	AvoidedLoss	True
25.277	1.45	Lose2	0.5	n/a	Yes	2.771	n/a	5.0	GoodResponse	0	0.016	24.293	0	1	Feedback	AvoidedLoss	True
26.732	2.771	Lose2	0.5	n/a	Yes	2.771	n/a	n/a	GoodResponse	0	0.0	n/a	0	1	ISIslide	AvoidedLoss	True
29.523	0.25	Control	0.6667000000000001	0.0	Yes	2.577	0.023	n/a	GoodResponse	0	n/a	n/a	0	2	Cue	Neutral	True
29.774	4.1	Control	0.6667000000000001	0.0	Yes	2.577	0.001	n/a	GoodResponse	0	n/a	n/a	0	2	Fixation	Neutral	True
33.869	0.42	Control	0.6667000000000001	0.004	Yes	2.577	-0.004	2.0	GoodResponse	0	0.222	33.091	0	2	Target	Neutral	True
34.091	0.3	Control	0.6667000000000001	0.004	Yes	2.577	-0.004	2.0	GoodResponse	0	0.222	n/a	0	2	ButtonPress	Neutral	True
34.304	0.28	Control	0.6667000000000001	n/a	Yes	2.577	n/a	n/a	GoodResponse	0	n/a	n/a	0	2	Blank	Neutral	True
34.572	1.45	Control	0.6667000000000001	n/a	Yes	2.577	n/a	5.0	GoodResponse	0	0.038	33.61	0	2	Feedback	Neutral	True
36.026	2.577	Control	0.6667000000000001	n/a	Yes	2.577	n/a	n/a	GoodResponse	0	0.0	n/a	0	2	ISIslide	Neutral	True
38.634	0.25	Win2	0.75	0.0	Yes	2.816	0.034	n/a	GoodResponse	1	n/a	n/a	1	3	Cue	Win	True
38.884	3.95	Win2	0.75	0.001	Yes	2.816	0.0	n/a	GoodResponse	1	n/a	n/a	1	3	Fixation	Win	True
42.83	0.41	Win2	0.75	0.004	Yes	2.816	-0.004	2.0	GoodResponse	1	0.213	42.043	1	3	Target	Win	True
43.043	0.3	Win2	0.75	0.004	Yes	2.816	-0.004	2.0	GoodResponse	1	0.213	n/a	1	3	ButtonPress	Win	True
43.247	0.29	Win2	0.75	n/a	Yes	2.816	n/a	n/a	GoodResponse	1	n/a	n/a	1	3	Blank	Win	True
43.532	1.45	Win2	0.75	n/a	Yes	2.816	n/a	5.0	GoodResponse	1	0.008	42.54	1	3	Feedback	Win	True
44.986	2.816	Win2	0.75	n/a	Yes	2.816	n/a	n/a	GoodResponse	1	0.0	n/a	1	3	ISIslide	Win	True
47.828	0.25	Win2	0.8	0.0	Yes	3.272	0.028	n/a	GoodResponse	1	n/a	n/a	2	4	Cue	Win	True
48.079	4.0	Win2	0.8	0.0	Yes	3.272	0.001	n/a	GoodResponse	1	n/a	n/a	2	4	Fixation	Win	True
52.074	0.4	Win2	0.8	0.004	Yes	3.272	-0.004	2.0	GoodResponse	1	0.205	51.279	2	4	Target	Win	True
52.279	0.3	Win2	0.8	0.004	Yes	3.272	-0.004	2.0	GoodResponse	1	0.205	n/a	2	4	ButtonPress	Win	True
52.475	0.3	Win2	0.8	n/a	Yes	3.272	n/a	n/a	GoodResponse	1	n/a	n/a	2	4	Blank	Win	True
52.776	1.45	Win2	0.8	n/a	Yes	3.272	n/a	5.0	GoodResponse	1	0.028	51.804	2	4	Feedback	Win	True
54.23	3.272	Win2	0.8	n/a	Yes	3.272	n/a	n/a	GoodResponse	1	0.0	n/a	2	4	ISIslide	Win	True
57.523	0.25	Win2	0.8332999999999999	0.001	Yes	2.777	0.023	n/a	GoodResponse	1	n/a	n/a	3	5	Cue	Win	True
57.774	4.0	Win2	0.8332999999999999	0.0	Yes	2.777	0.001	n/a	GoodResponse	1	n/a	n/a	3	5	Fixation	Win	True
61.769	0.39	Win2	0.8332999999999999	0.004	Yes	2.777	-0.004	2.0	GoodResponse	1	0.25	61.019	3	5	Target	Win	True
62.019	0.3	Win2	0.8332999999999999	0.004	Yes	2.777	-0.004	2.0	GoodResponse	1	0.25	n/a	3	5	ButtonPress	Win	True
62.171	0.31	Win2	0.8332999999999999	n/a	Yes	2.777	n/a	n/a	GoodResponse	1	n/a	n/a	3	5	Blank	Win	True
62.472	1.45	Win2	0.8332999999999999	n/a	Yes	2.777	n/a	5.0	GoodResponse	1	0.039	61.511	3	5	Feedback	Win	True
63.926	2.777	Win2	0.8332999999999999	n/a	Yes	2.777	n/a	n/a	GoodResponse	1	0.0	n/a	3	5	ISIslide	Win	True
66.718	0.25	Lose2	0.7143	0.0	No	2.732	0.018	n/a	NoResponse	-1	n/a	n/a	2	6	Cue	Loss	True
66.968	3.95	Lose2	0.7143	0.0	No	2.732	0.0	n/a	NoResponse	-1	n/a	n/a	2	6	Fixation	Loss	True
70.93	0.38	Lose2	0.7143	0.0	No	2.732	0.012	2.0	NoResponse	-1	0.436	70.366	2	6	Target	Loss	True
71.298	0.32	Lose2	0.7143	n/a	No	2.732	n/a	n/a	NoResponse	-1	n/a	n/a	2	6	Blank	Loss	True
71.366	0.3	Lose2	0.7143	0.0	No	2.732	0.012	2.0	NoResponse	-1	0.436	n/a	2	6	ButtonPress	Loss	True
71.616	1.45	Lose2	0.7143	n/a	No	2.732	n/a	5.0	NoResponse	-1	0.018	70.634	2	6	Feedback	Loss	True
73.07	2.732	Lose2	0.7143	n/a	No	2.732	n/a	n/a	NoResponse	-1	0.0	n/a	2	6	ISIslide	Loss	True
75.828	0.25	Lose2	0.75	0.0	Yes	4.022	0.028	n/a	GoodResponse	0	n/a	n/a	2	7	Cue	AvoidedLoss	True
76.079	4.05	Lose2	0.75	0.0	Yes	4.022	0.001	n/a	GoodResponse	0	n/a	n/a	2	7	Fixation	AvoidedLoss	True
80.124	0.37	Lose2	0.75	0.004	Yes	4.022	-0.004	2.0	GoodResponse	0	0.233	79.357	2	7	Target	AvoidedLoss	True
80.357	0.3	Lose2	0.75	0.004	Yes	4.022	-0.004	2.0	GoodResponse	0	0.233	n/a	2	7	ButtonPress	AvoidedLoss	True
80.509	0.33	Lose2	0.75	n/a	Yes	4.022	n/a	n/a	GoodResponse	0	n/a	n/a	2	7	Blank	AvoidedLoss	True
80.826	1.45	Lose2	0.75	n/a	Yes	4.022	n/a	5.0	GoodResponse	0	0.026	79.852	2	7	Feedback	AvoidedLoss	True
82.281	4.022	Lose2	0.75	n/a	Yes	4.022	n/a	n/a	GoodResponse	0	0.0	n/a	2	7	ISIslide	AvoidedLoss	True
86.326	0.25	Lose2	0.7778	0.0	Yes	3.024	0.026	n/a	GoodResponse	0	n/a	n/a	2	8	Cue	AvoidedLoss	True
86.577	3.95	Lose2	0.7778	0.0	Yes	3.024	0.001	n/a	GoodResponse	0	n/a	n/a	2	8	Fixation	AvoidedLoss	True
90.522	0.36	Lose2	0.7778	0.004	Yes	3.024	-0.004	2.0	GoodResponse	0	0.201	89.723	2	8	Target	AvoidedLoss	True
90.723	0.3	Lose2	0.7778	0.004	Yes	3.024	-0.004	2.0	GoodResponse	0	0.201	n/a	2	8	ButtonPress	AvoidedLoss	True
90.89	0.34	Lose2	0.7778	n/a	Yes	3.024	n/a	n/a	GoodResponse	0	n/a	n/a	2	8	Blank	AvoidedLoss	True
91.224	1.45	Lose2	0.7778	n/a	Yes	3.024	n/a	5.0	GoodResponse	0	0.019	90.243	2	8	Feedback	AvoidedLoss	True
92.678	3.024	Lose2	0.7778	n/a	Yes	3.024	n/a	n/a	GoodResponse	0	0.0	n/a	2	8	ISIslide	AvoidedLoss	True
95.721	0.25	Lose2	0.8	0.0	Yes	3.129	0.021	n/a	GoodResponse	0	n/a	n/a	2	9	Cue	AvoidedLoss	True
95.972	3.95	Lose2	0.8	0.0	Yes	3.129	0.001	n/a	GoodResponse	0	n/a	n/a	2	9	Fixation	AvoidedLoss	True
99.917	0.35	Lose2	0.8	0.004	Yes	3.129	-0.004	2.0	GoodResponse	0	0.228	99.145	2	9	Target	AvoidedLoss	True
100.145	0.3	Lose2	0.8	0.004	Yes	3.129	-0.004	2.0	GoodResponse	0	0.228	n/a	2	9	ButtonPress	AvoidedLoss	True
100.268	0.35	Lose2	0.8	n/a	Yes	3.129	n/a	n/a	GoodResponse	0	n/a	n/a	2	9	Blank	AvoidedLoss	True
100.619	1.45	Lose2	0.8	n/a	Yes	3.129	n/a	5.0	GoodResponse	0	0.038	99.657	2	9	Feedback	AvoidedLoss	True
102.073	3.129	Lose2	0.8	n/a	Yes	3.129	n/a	n/a	GoodResponse	0	0.0	n/a	2	9	ISIslide	AvoidedLoss	True
105.216	0.25	Control	0.7273000000000001	0.0	No	3.284	0.016	n/a	NoResponse	0	n/a	n/a	2	10	Cue	Neutral	True
105.467	4.0	Control	0.7273000000000001	0.0	No	3.284	0.001	n/a	NoResponse	0	n/a	n/a	2	10	Fixation	Neutral	True
109.462	0.34	Control	0.7273000000000001	0.004	No	3.284	-0.004	2.0	NoResponse	0	0.428	108.89	2	10	Target	Neutral	True
109.813	0.36	Control	0.7273000000000001	n/a	No	3.284	n/a	n/a	NoResponse	0	n/a	n/a	2	10	Blank	Neutral	True
109.89	0.3	Control	0.7273000000000001	0.004	No	3.284	-0.004	2.0	NoResponse	0	0.428	n/a	2	10	ButtonPress	Neutral	True
110.164	1.45	Control	0.7273000000000001	n/a	No	3.284	n/a	5.0	NoResponse	0	0.007	109.171	2	10	Feedback	Neutral	True
111.618	3.284	Control	0.7273000000000001	n/a	No	3.284	n/a	n/a	NoResponse	0	0.0	n/a	2	10	ISIslide	Neutral	True
114.928	0.25	Lose2	0.75	0.0	Yes	2.722	0.028	n/a	GoodResponse	0	n/a	n/a	2	11	Cue	AvoidedLoss	True
115.179	4.05	Lose2	0.75	0.0	Yes	2.722	0.001	n/a	GoodResponse	0	n/a	n/a	2	11	Fixation	AvoidedLoss	True
119.224	0.33	Lose2	0.75	0.004	Yes	2.722	-0.004	2.0	GoodResponse	0	0.189	118.413	2	11	Target	AvoidedLoss	True
119.413	0.3	Lose2	0.75	0.004	Yes	2.722	-0.004	2.0	GoodResponse	0	0.189	n/a	2	11	ButtonPress	AvoidedLoss	True
119.559	0.37	Lose2	0.75	n/a	Yes	2.722	n/a	n/a	GoodResponse	0	n/a	n/a	2	11	Blank	AvoidedLoss	True
119.926	1.45	Lose2	0.75	n/a	Yes	2.722	n/a	5.0	GoodResponse	0	0.048	118.974	2	11	Feedback	AvoidedLoss	True
121.381	2.722	Lose2	0.75	n/a	Yes	2.722	n/a	n/a	GoodResponse	0	0.0	n/a	2	11	ISIslide	AvoidedLoss	True
124.122	0.25	Control	0.7692	0.0	Yes	2.978	0.022	n/a	GoodResponse	0	n/a	n/a	2	12	Cue	Neutral	True
124.373	3.9	Control	0.7692	0.0	Yes	2.978	0.001	n/a	GoodResponse	0	n/a	n/a	2	12	Fixation	Neutral	True
128.268	0.32	Control	0.7692	0.004	Yes	2.978	-0.004	2.0	GoodResponse	0	0.24	127.508	2	12	Target	Neutral	True
128.508	0.3	Control	0.7692	0.004	Yes	2.978	-0.004	2.0	GoodResponse	0	0.24	n/a	2	12	ButtonPress	Neutral	True
128.602	0.38	Control	0.7692	n/a	Yes	2.978	n/a	n/a	GoodResponse	0	n/a	n/a	2	12	Blank	Neutral	True
128.97	1.45	Control	0.7692	n/a	Yes	2.978	n/a	5.0	GoodResponse	0	0.028	127.998	2	12	Feedback	Neutral	True
130.425	2.978	Control	0.7692	n/a	Yes	2.978	n/a	n/a	GoodResponse	0	0.0	n/a	2	12	ISIslide	Neutral	True
133.417	0.25	Control	0.7857	0.0	Yes	2.783	0.017	n/a	GoodResponse	0	n/a	n/a	2	13	Cue	Neutral	True
133.668	4.0	Control	0.7857	0.0	Yes	2.783	0.001	n/a	GoodResponse	0	n/a	n/a	2	13	Fixation	Neutral	True
137.663	0.31	Control	0.7857	0.004	Yes	2.783	-0.004	2.0	GoodResponse	0	0.193	136.856	2	13	Target	Neutral	True
137.856	0.3	Control	0.7857	0.004	Yes	2.783	-0.004	2.0	GoodResponse	0	0.193	n/a	2	13	ButtonPress	Neutral	True
137.98	0.39	Control	0.7857	n/a	Yes	2.783	n/a	n/a	GoodResponse	0	n/a	n/a	2	13	Blank	Neutral	True
138.365	1.45	Control	0.7857	n/a	Yes	2.783	n/a	5.0	GoodResponse	0	0.048	137.413	2	13	Feedback	Neutral	True
139.819	2.783	Control	0.7857	n/a	Yes	2.783	n/a	n/a	GoodResponse	0	0.0	n/a	2	13	ISIslide	Neutral	True
142.628	0.25	Win2	0.8	0.0	Yes	2.672	0.028	n/a	GoodResponse	1	n/a	n/a	3	14	Cue	Win	True
142.878	4.1	Win2	0.8	0.0	Yes	2.672	0.0	n/a	GoodResponse	1	n/a	n/a	3	14	Fixation	Win	True
146.974	0.3	Win2	0.8	0.004	Yes	2.672	-0.004	2.0	GoodResponse	1	0.193	146.167	3	14	Target	Win	True
147.167	0.3	Win2	0.8	0.004	Yes	2.672	-0.004	2.0	GoodResponse	1	0.193	n/a	3	14	ButtonPress	Win	True
147.275	0.4	Win2	0.8	n/a	Yes	2.672	n/a	n/a	GoodResponse	1	n/a	n/a	3	14	Blank	Win	True
147.676	1.45	Win2	0.8	n/a	Yes	2.672	n/a	5.0	GoodResponse	1	0.008	146.684	3	14	Feedback	Win	True
149.13	2.672	Win2	0.8	n/a	Yes	2.672	n/a	n/a	GoodResponse	1	0.0	n/a	3	14	ISIslide	Win	True
151.822	0.25	Control	0.8125	0.0	Yes	2.978	0.022	n/a	GoodResponse	0	n/a	n/a	3	15	Cue	Neutral	True
152.072	4.0	Control	0.8125	0.001	Yes	2.978	0.0	n/a	GoodResponse	0	n/a	n/a	3	15	Fixation	Neutral	True
156.068	0.29	Control	0.8125	0.004	Yes	2.978	-0.004	2.0	GoodResponse	0	0.199	155.267	3	15	Target	Neutral	True
156.267	0.3	Control	0.8125	0.004	Yes	2.978	-0.004	2.0	GoodResponse	0	0.199	n/a	3	15	ButtonPress	Neutral	True
156.369	0.41	Control	0.8125	n/a	Yes	2.978	n/a	n/a	GoodResponse	0	n/a	n/a	3	15	Blank	Neutral	True
156.77	1.45	Control	0.8125	n/a	Yes	2.978	n/a	5.0	GoodResponse	0	0.032	155.802	3	15	Feedback	Neutral	True
158.224	2.978	Control	0.8125	n/a	Yes	2.978	n/a	n/a	GoodResponse	0	0.0	n/a	3	15	ISIslide	Neutral	True
161.216	0.25	Win2	0.8234999999999999	0.001	Yes	2.884	0.016	n/a	GoodResponse	1	n/a	n/a	4	16	Cue	Win	True
161.467	4.0	Win2	0.8234999999999999	0.0	Yes	2.884	0.001	n/a	GoodResponse	1	n/a	n/a	4	16	Fixation	Win	True
165.462	0.28	Win2	0.8234999999999999	0.004	Yes	2.884	-0.004	2.0	GoodResponse	1	0.188	164.65	4	16	Target	Win	True
165.65	0.3	Win2	0.8234999999999999	0.004	Yes	2.884	-0.004	2.0	GoodResponse	1	0.188	n/a	4	16	ButtonPress	Win	True
165.747	0.42	Win2	0.8234999999999999	n/a	Yes	2.884	n/a	n/a	GoodResponse	1	n/a	n/a	4	16	Blank	Win	True
166.165	1.45	Win2	0.8234999999999999	n/a	Yes	2.884	n/a	5.0	GoodResponse	1	0.007	165.172	4	16	Feedback	Win	True
167.619	2.884	Win2	0.8234999999999999	n/a	Yes	2.884	n/a	n/a	GoodResponse	1	0.0	n/a	4	16	ISIslide	Win	True
170.528	0.25	Lose2	0.7778	0.0	No	2.722	0.028	n/a	LatePress	-1	n/a	n/a	3	17	Cue	Loss	True
170.778	3.95	Lose2	0.7778	0.0	No	2.722	0.0	n/a	LatePress	-1	n/a	n/a	3	17	Fixation	Loss	True
174.723	0.27	Lose2	0.7778	0.005	No	2.722	-0.005	2.0	LatePress	-1	0.272	173.995	3	17	Target	Loss	True
174.995	0.3	Lose2	0.7778	0.005	No	2.722	-0.005	2.0	LatePress	-1	0.272	n/a	3	17	ButtonPress	Loss	True
175.008	0.43	Lose2	0.7778	n/a	No	2.722	n/a	n/a	LatePress	-1	n/a	n/a	3	17	Blank	Loss	True
175.426	1.45	Lose2	0.7778	n/a	No	2.722	n/a	5.0	LatePress	-1	0.011	174.437	3	17	Feedback	Loss	True
176.88	2.722	Lose2	0.7778	n/a	No	2.722	n/a	n/a	LatePress	-1	0.0	n/a	3	17	ISIslide	Loss	True
179.621	0.25	Lose2	0.7895	0.001	Yes	2.729	0.021	n/a	GoodResponse	0	n/a	n/a	3	18	Cue	AvoidedLoss	True
179.872	4.05	Lose2	0.7895	0.0	Yes	2.729	0.001	n/a	GoodResponse	0	n/a	n/a	3	18	Fixation	AvoidedLoss	True
183.918	0.26	Lose2	0.7895	0.003	Yes	2.729	-0.003	2.0	GoodResponse	0	0.177	183.095	3	18	Target	AvoidedLoss	True
184.095	0.3	Lose2	0.7895	0.003	Yes	2.729	-0.003	2.0	GoodResponse	0	0.177	n/a	3	18	ButtonPress	AvoidedLoss	True
184.185	0.44	Lose2	0.7895	n/a	Yes	2.729	n/a	n/a	GoodResponse	0	n/a	n/a	3	18	Blank	AvoidedLoss	True
184.62	1.45	Lose2	0.7895	n/a	Yes	2.729	n/a	5.0	GoodResponse	0	0.036	183.656	3	18	Feedback	AvoidedLoss	True
186.074	2.729	Lose2	0.7895	n/a	Yes	2.729	n/a	n/a	GoodResponse	0	0.0	n/a	3	18	ISIslide	AvoidedLoss	True
188.816	0.25	Control	0.8	0.0	Yes	2.934	0.016	n/a	GoodResponse	0	n/a	n/a	3	19	Cue	Neutral	True
189.066	3.95	Control	0.8	0.0	Yes	2.934	0.0	n/a	GoodResponse	0	n/a	n/a	3	19	Fixation	Neutral	True
193.028	0.25	Control	0.8	0.0	Yes	2.934	0.012	2.0	GoodResponse	0	0.236	192.264	3	19	Target	Neutral	True
193.262	0.45	Control	0.8	n/a	Yes	2.934	n/a	n/a	GoodResponse	0	n/a	n/a	3	19	Blank	Neutral	True
193.264	0.3	Control	0.8	0.0	Yes	2.934	0.012	2.0	GoodResponse	0	0.236	n/a	3	19	ButtonPress	Neutral	True
193.714	1.45	Control	0.8	n/a	Yes	2.934	n/a	5.0	GoodResponse	0	0.014	192.728	3	19	Feedback	Neutral	True
195.168	2.934	Control	0.8	n/a	Yes	2.934	n/a	n/a	GoodResponse	0	0.0	n/a	3	19	ISIslide	Neutral	True
198.127	0.25	Control	0.8095	0.0	Yes	2.623	0.027	n/a	GoodResponse	0	n/a	n/a	3	20	Cue	Neutral	True
198.377	4.05	Control	0.8095	0.001	Yes	2.623	0.0	n/a	GoodResponse	0	n/a	n/a	3	20	Fixation	Neutral	True
202.423	0.24	Control	0.8095	0.004	Yes	2.623	-0.004	2.0	GoodResponse	0	0.211	201.634	3	20	Target	Neutral	True
202.634	0.3	Control	0.8095	0.004	Yes	2.623	-0.004	2.0	GoodResponse	0	0.211	n/a	3	20	ButtonPress	Neutral	True
202.674	0.46	Control	0.8095	n/a	Yes	2.623	n/a	n/a	GoodResponse	0	n/a	n/a	3	20	Blank	Neutral	True
203.125	1.45	Control	0.8095	n/a	Yes	2.623	n/a	5.0	GoodResponse	0	0.018	202.143	3	20	Feedback	Neutral	True
204.579	2.623	Control	0.8095	n/a	Yes	2.623	n/a	n/a	GoodResponse	0	0.0	n/a	3	20	ISIslide	Neutral	True
207.221	0.25	Control	0.8181999999999999	0.0	Yes	2.779	0.021	n/a	GoodResponse	0	n/a	n/a	3	21	Cue	Neutral	True
207.471	4.1	Control	0.8181999999999999	0.0	Yes	2.779	0.0	n/a	GoodResponse	0	n/a	n/a	3	21	Fixation	Neutral	True
211.567	0.23	Control	0.8181999999999999	0.004	Yes	2.779	-0.004	2.0	GoodResponse	0	0.168	210.735	3	21	Target	Neutral	True
211.735	0.3	Control	0.8181999999999999	0.004	Yes	2.779	-0.004	2.0	GoodResponse	0	0.168	n/a	3	21	ButtonPress	Neutral	True
211.801	0.47	Control	0.8181999999999999	n/a	Yes	2.779	n/a	n/a	GoodResponse	0	n/a	n/a	3	21	Blank	Neutral	True
212.269	1.45	Control	0.8181999999999999	n/a	Yes	2.779	n/a	5.0	GoodResponse	0	0.045	211.314	3	21	Feedback	Neutral	True
213.723	2.779	Control	0.8181999999999999	n/a	Yes	2.779	n/a	n/a	GoodResponse	0	0.0	n/a	3	21	ISIslide	Neutral	True
216.515	0.25	Control	0.7826000000000001	0.0	No	2.785	0.015	n/a	LatePress	0	n/a	n/a	3	22	Cue	Neutral	True
216.766	4.0	Control	0.7826000000000001	0.0	No	2.785	0.001	n/a	LatePress	0	n/a	n/a	3	22	Fixation	Neutral	True
220.761	0.22	Control	0.7826000000000001	0.004	No	2.785	-0.004	2.0	LatePress	0	0.223	219.984	3	22	Target	Neutral	True
220.984	0.3	Control	0.7826000000000001	0.004	No	2.785	-0.004	2.0	LatePress	0	0.223	n/a	3	22	ButtonPress	Neutral	True
220.995	0.48	Control	0.7826000000000001	n/a	No	2.785	n/a	n/a	LatePress	0	n/a	n/a	3	22	Blank	Neutral	True
221.463	1.45	Control	0.7826000000000001	n/a	No	2.785	n/a	5.0	LatePress	0	0.022	220.485	3	22	Feedback	Neutral	True
222.917	2.785	Control	0.7826000000000001	n/a	No	2.785	n/a	n/a	LatePress	0	0.0	n/a	3	22	ISIslide	Neutral	True
225.726	0.25	Control	0.75	0.0	No	2.774	0.026	n/a	NoResponse	0	n/a	n/a	3	23	Cue	Neutral	True
225.977	3.9	Control	0.75	0.0	No	2.774	0.001	n/a	NoResponse	0	n/a	n/a	3	23	Fixation	Neutral	True
229.872	0.21	Control	0.75	0.004	No	2.774	-0.004	2.0	NoResponse	0	0.256	229.128	3	23	Target	Neutral	True
230.089	0.49	Control	0.75	n/a	No	2.774	n/a	n/a	NoResponse	0	n/a	n/a	3	23	Blank	Neutral	True
230.128	0.3	Control	0.75	0.004	No	2.774	-0.004	2.0	NoResponse	0	0.256	n/a	3	23	ButtonPress	Neutral	True
230.574	1.45	Control	0.75	n/a	No	2.774	n/a	5.0	NoResponse	0	0.032	229.606	3	23	Feedback	Neutral	True
232.028	2.774	Control	0.75	n/a	No	2.774	n/a	n/a	NoResponse	0	0.0	n/a	3	23	ISIslide	Neutral	True
234.82	0.25	Win2	0.72	0.0	No	3.13	0.02	n/a	NoResponse	0	n/a	n/a	3	24	Cue	MissedWin	False
235.07	3.95	Win2	0.72	0.0	No	3.13	0.0	2.0	NoResponse	0	3.688	237.758	3	24	Fixation	MissedWin	False
238.758	0.3	Win2	0.72	0.0	No	3.13	0.0	2.0	NoResponse	0	3.688	n/a	3	24	ButtonPress	MissedWin	False
239.015	0.2	Win2	0.72	0.005	No	3.13	-0.005	2.0	NoResponse	0	0.316	238.331	3	24	Target	MissedWin	False
239.216	0.5	Win2	0.72	n/a	No	3.13	n/a	n/a	NoResponse	0	n/a	n/a	3	24	Blank	MissedWin	False
239.331	0.3	Win2	0.72	0.005	No	3.13	-0.005	2.0	NoResponse	0	0.316	n/a	3	24	ButtonPress	MissedWin	False
239.718	1.45	Win2	0.72	n/a	No	3.13	n/a	5.0	NoResponse	0	0.01	238.728	3	24	Feedback	MissedWin	False
241.172	3.13	Win2	0.72	n/a	No	3.13	n/a	n/a	NoResponse	0	0.0	n/a	3	24	ISIslide	MissedWin	False
244.331	0.25	Win2	0.7308	0.0	Yes	3.069	0.031	n/a	GoodResponse	1	n/a	n/a	4	25	Cue	Win	True
244.582	4.0	Win2	0.7308	0.0	Yes	3.069	0.001	n/a	GoodResponse	1	n/a	n/a	4	25	Fixation	Win	True
248.577	0.19	Win2	0.7308	0.004	Yes	3.069	-0.004	2.0	GoodResponse	1	0.181	247.758	4	25	Target	Win	True
248.758	0.3	Win2	0.7308	0.004	Yes	3.069	-0.004	2.0	GoodResponse	1	0.181	n/a	4	25	ButtonPress	Win	True
248.778	0.51	Win2	0.7308	n/a	Yes	3.069	n/a	n/a	GoodResponse	1	n/a	n/a	4	25	Blank	Win	True
249.279	1.45	Win2	0.7308	n/a	Yes	3.069	n/a	5.0	GoodResponse	1	0.01	248.289	4	25	Feedback	Win	True
250.734	3.069	Win2	0.7308	n/a	Yes	3.069	n/a	n/a	GoodResponse	1	0.0	n/a	4	25	ISIslide	Win	True
253.826	0.25	Win2	0.7037	0.0	No	2.924	0.026	n/a	NoResponse	0	n/a	n/a	4	26	Cue	MissedWin	True
254.077	3.95	Win2	0.7037	0.0	No	2.924	0.001	n/a	NoResponse	0	n/a	n/a	4	26	Fixation	MissedWin	True
258.022	0.18	Win2	0.7037	0.004	No	2.924	-0.004	2.0	NoResponse	0	0.207	257.229	4	26	Target	MissedWin	True
258.206	0.52	Win2	0.7037	n/a	No	2.924	n/a	n/a	NoResponse	0	n/a	n/a	4	26	Blank	MissedWin	True
258.229	0.3	Win2	0.7037	0.004	No	2.924	-0.004	2.0	NoResponse	0	0.207	n/a	4	26	ButtonPress	MissedWin	True
258.724	1.45	Win2	0.7037	n/a	No	2.924	n/a	5.0	NoResponse	0	0.029	257.753	4	26	Feedback	MissedWin	True
260.179	2.924	Win2	0.7037	n/a	No	2.924	n/a	n/a	NoResponse	0	0.0	n/a	4	26	ISIslide	MissedWin	True
263.121	0.25	Lose2	0.6786	0.0	No	2.829	0.021	n/a	NoResponse	-1	n/a	n/a	3	27	Cue	Loss	True
263.372	4.05	Lose2	0.6786	0.0	No	2.829	0.001	n/a	NoResponse	-1	n/a	n/a	3	27	Fixation	Loss	True
267.417	0.17	Lose2	0.6786	0.004	No	2.829	-0.004	2.0	NoResponse	-1	0.265	266.682	3	27	Target	Loss	True
267.601	0.53	Lose2	0.6786	n/a	No	2.829	n/a	n/a	NoResponse	-1	n/a	n/a	3	27	Blank	Loss	True
267.682	0.3	Lose2	0.6786	0.004	No	2.829	-0.004	2.0	NoResponse	-1	0.265	n/a	3	27	ButtonPress	Loss	True
268.119	1.45	Lose2	0.6786	n/a	No	2.829	n/a	5.0	NoResponse	-1	0.047	267.166	3	27	Feedback	Loss	True
269.573	2.829	Lose2	0.6786	n/a	No	2.829	n/a	n/a	NoResponse	-1	0.0	n/a	3	27	ISIslide	Loss	True
272.415	0.25	Control	0.6552	0.0	No	2.835	0.015	n/a	NoResponse	0	n/a	n/a	3	28	Cue	Neutral	True
272.666	4.05	Control	0.6552	0.0	No	2.835	0.001	n/a	NoResponse	0	n/a	n/a	3	28	Fixation	Neutral	True
276.711	0.16	Control	0.6552	0.004	No	2.835	-0.004	2.0	NoResponse	0	0.194	275.905	3	28	Target	Neutral	True
276.879	0.54	Control	0.6552	n/a	No	2.835	n/a	n/a	NoResponse	0	n/a	n/a	3	28	Blank	Neutral	True
276.905	0.3	Control	0.6552	0.004	No	2.835	-0.004	2.0	NoResponse	0	0.194	n/a	3	28	ButtonPress	Neutral	True
277.414	1.45	Control	0.6552	n/a	No	2.835	n/a	5.0	NoResponse	0	0.021	276.435	3	28	Feedback	Neutral	True
278.868	2.835	Control	0.6552	n/a	No	2.835	n/a	n/a	NoResponse	0	0.0	n/a	3	28	ISIslide	Neutral	True
281.726	0.25	Lose2	0.6333	0.0	No	2.824	0.026	n/a	NoResponse	-1	n/a	n/a	2	29	Cue	Loss	False
281.977	3.95	Lose2	0.6333	0.0	No	2.824	0.001	n/a	NoResponse	-1	n/a	n/a	2	29	Fixation	Loss	False
285.922	0.16	Lose2	0.6333	0.004	No	2.824	-0.004	n/a	NoResponse	-1	n/a	n/a	2	29	Target	Loss	False
286.089	0.54	Lose2	0.6333	n/a	No	2.824	n/a	n/a	NoResponse	-1	n/a	n/a	2	29	Blank	Loss	False
286.624	1.45	Lose2	0.6333	n/a	No	2.824	n/a	5.0	NoResponse	-1	0.03	285.654	2	29	Feedback	Loss	False
288.079	2.824	Lose2	0.6333	n/a	No	2.824	n/a	n/a	NoResponse	-1	0.0	n/a	2	29	ISIslide	Loss	False
290.921	0.25	Win2	0.6129	0.0	No	2.779	0.021	n/a	NoResponse	0	n/a	n/a	2	30	Cue	MissedWin	True
291.171	3.9	Win2	0.6129	0.0	No	2.779	0.0	n/a	NoResponse	0	n/a	n/a	2	30	Fixation	MissedWin	True
295.083	0.17	Win2	0.6129	0.0	No	2.779	0.012	2.0	NoResponse	0	0.223	294.306	2	30	Target	MissedWin	True
295.25	0.53	Win2	0.6129	n/a	No	2.779	n/a	n/a	NoResponse	0	n/a	n/a	2	30	Blank	MissedWin	True
295.306	0.3	Win2	0.6129	0.0	No	2.779	0.012	2.0	NoResponse	0	0.223	n/a	2	30	ButtonPress	MissedWin	True
295.768	1.45	Win2	0.6129	n/a	No	2.779	n/a	5.0	NoResponse	0	0.009	294.777	2	30	Feedback	MissedWin	True
297.223	2.779	Win2	0.6129	n/a	No	2.779	n/a	n/a	NoResponse	0	0.0	n/a	2	30	ISIslide	MissedWin	True
300.031	0.25	Lose2	0.5938	0.0	No	2.819	0.031	n/a	NoResponse	-1	n/a	n/a	1	31	Cue	Loss	True
300.282	4.05	Lose2	0.5938	0.0	No	2.819	0.001	n/a	NoResponse	-1	n/a	n/a	1	31	Fixation	Loss	True
304.327	0.18	Lose2	0.5938	0.004	No	2.819	-0.004	2.0	NoResponse	-1	0.196	303.523	1	31	Target	Loss	True
304.511	0.52	Lose2	0.5938	n/a	No	2.819	n/a	n/a	NoResponse	-1	n/a	n/a	1	31	Blank	Loss	True
304.523	0.3	Lose2	0.5938	0.004	No	2.819	-0.004	2.0	NoResponse	-1	0.196	n/a	1	31	ButtonPress	Loss	True
305.029	1.45	Lose2	0.5938	n/a	No	2.819	n/a	5.0	NoResponse	-1	0.015	304.044	1	31	Feedback	Loss	True
306.484	2.819	Lose2	0.5938	n/a	No	2.819	n/a	n/a	NoResponse	-1	0.0	n/a	1	31	ISIslide	Loss	True
309.325	0.25	Lose2	0.5758	0.001	No	2.625	0.025	n/a	LatePress	-1	n/a	n/a	0	32	Cue	Loss	True
309.576	4.15	Lose2	0.5758	0.0	No	2.625	0.001	n/a	LatePress	-1	n/a	n/a	0	32	Fixation	Loss	True
313.722	0.19	Lose2	0.5758	0.003	No	2.625	-0.003	2.0	LatePress	-1	0.193	312.915	0	32	Target	Loss	True
313.915	0.3	Lose2	0.5758	0.003	No	2.625	-0.003	2.0	LatePress	-1	0.193	n/a	0	32	ButtonPress	Loss	True
313.923	0.51	Lose2	0.5758	n/a	No	2.625	n/a	n/a	LatePress	-1	n/a	n/a	0	32	Blank	Loss	True
314.424	1.45	Lose2	0.5758	n/a	No	2.625	n/a	5.0	LatePress	-1	0.034	313.458	0	32	Feedback	Loss	True
315.878	2.625	Lose2	0.5758	n/a	No	2.625	n/a	n/a	LatePress	-1	0.0	n/a	0	32	ISIslide	Loss	True
318.52	0.25	Win2	0.5588000000000001	0.0	No	2.68	0.02	n/a	NoResponse	0	n/a	n/a	0	33	Cue	MissedWin	False
318.77	4.0	Win2	0.5588000000000001	0.0	No	2.68	0.0	2.0	NoResponse	0	3.984	321.754	0	33	Fixation	MissedWin	False
322.754	0.3	Win2	0.5588000000000001	0.0	No	2.68	0.0	2.0	NoResponse	0	3.984	n/a	0	33	ButtonPress	MissedWin	False
322.766	0.2	Win2	0.5588000000000001	0.004	No	2.68	-0.004	2.0	NoResponse	0	0.372	322.138	0	33	Target	MissedWin	False
322.966	0.5	Win2	0.5588000000000001	n/a	No	2.68	n/a	n/a	NoResponse	0	n/a	n/a	0	33	Blank	MissedWin	False
323.138	0.3	Win2	0.5588000000000001	0.004	No	2.68	-0.004	2.0	NoResponse	0	0.372	n/a	0	33	ButtonPress	MissedWin	False
323.468	1.45	Win2	0.5588000000000001	n/a	No	2.68	n/a	5.0	NoResponse	0	0.015	322.483	0	33	Feedback	MissedWin	False
324.922	2.68	Win2	0.5588000000000001	n/a	No	2.68	n/a	n/a	NoResponse	0	0.0	n/a	0	33	ISIslide	MissedWin	False
327.63	0.25	Lose2	0.5714	0.0	Yes	2.62	0.03	n/a	GoodResponse	0	n/a	n/a	0	34	Cue	AvoidedLoss	True
327.881	4.05	Lose2	0.5714	0.0	Yes	2.62	0.001	n/a	GoodResponse	0	n/a	n/a	0	34	Fixation	AvoidedLoss	True
331.926	0.21	Lose2	0.5714	0.004	Yes	2.62	-0.004	2.0	GoodResponse	0	0.2	331.126	0	34	Target	AvoidedLoss	True
332.126	0.3	Lose2	0.5714	0.004	Yes	2.62	-0.004	2.0	GoodResponse	0	0.2	n/a	0	34	ButtonPress	AvoidedLoss	True
332.144	0.49	Lose2	0.5714	n/a	Yes	2.62	n/a	n/a	GoodResponse	0	n/a	n/a	0	34	Blank	AvoidedLoss	True
332.628	1.45	Lose2	0.5714	n/a	Yes	2.62	n/a	5.0	GoodResponse	0	0.026	331.654	0	34	Feedback	AvoidedLoss	True
334.083	2.62	Lose2	0.5714	n/a	Yes	2.62	n/a	n/a	GoodResponse	0	0.0	n/a	0	34	ISIslide	AvoidedLoss	True
336.724	0.25	Lose2	0.5556	0.0	No	2.676	0.024	n/a	LatePress	-1	n/a	n/a	-1	35	Cue	Loss	True
336.975	4.0	Lose2	0.5556	0.0	No	2.676	0.001	n/a	LatePress	-1	n/a	n/a	-1	35	Fixation	Loss	True
340.97	0.22	Lose2	0.5556	0.004	No	2.676	-0.004	2.0	LatePress	-1	0.233	340.203	-1	35	Target	Loss	True
341.203	0.3	Lose2	0.5556	0.004	No	2.676	-0.004	2.0	LatePress	-1	0.233	n/a	-1	35	ButtonPress	Loss	True
341.204	0.48	Lose2	0.5556	n/a	No	2.676	n/a	n/a	LatePress	-1	n/a	n/a	-1	35	Blank	Loss	True
341.672	1.45	Lose2	0.5556	n/a	No	2.676	n/a	5.0	LatePress	-1	0.008	340.68	-1	35	Feedback	Loss	True
343.126	2.676	Lose2	0.5556	n/a	No	2.676	n/a	n/a	LatePress	-1	0.0	n/a	-1	35	ISIslide	Loss	True
345.818	0.25	Control	0.5676	0.0	Yes	2.682	0.018	n/a	GoodResponse	0	n/a	n/a	-1	36	Cue	Neutral	True
346.069	4.0	Control	0.5676	0.0	Yes	2.682	0.001	n/a	GoodResponse	0	n/a	n/a	-1	36	Fixation	Neutral	True
350.064	0.23	Control	0.5676	0.004	Yes	2.682	-0.004	2.0	GoodResponse	0	0.197	349.261	-1	36	Target	Neutral	True
350.261	0.3	Control	0.5676	0.004	Yes	2.682	-0.004	2.0	GoodResponse	0	0.197	n/a	-1	36	ButtonPress	Neutral	True
350.298	0.47	Control	0.5676	n/a	Yes	2.682	n/a	n/a	GoodResponse	0	n/a	n/a	-1	36	Blank	Neutral	True
350.766	1.45	Control	0.5676	n/a	Yes	2.682	n/a	5.0	GoodResponse	0	0.033	349.799	-1	36	Feedback	Neutral	True
352.22	2.682	Control	0.5676	n/a	Yes	2.682	n/a	n/a	GoodResponse	0	0.0	n/a	-1	36	ISIslide	Neutral	True
354.928	0.25	Win2	0.5789	0.0	Yes	2.872	0.028	n/a	GoodResponse	1	n/a	n/a	0	37	Cue	Win	True
355.179	4.0	Win2	0.5789	0.0	Yes	2.872	0.001	n/a	GoodResponse	1	n/a	n/a	0	37	Fixation	Win	True
359.174	0.24	Win2	0.5789	0.004	Yes	2.872	-0.004	2.0	GoodResponse	1	0.209	358.383	0	37	Target	Win	True
359.383	0.3	Win2	0.5789	0.004	Yes	2.872	-0.004	2.0	GoodResponse	1	0.209	n/a	0	37	ButtonPress	Win	True
359.425	0.46	Win2	0.5789	n/a	Yes	2.872	n/a	n/a	GoodResponse	1	n/a	n/a	0	37	Blank	Win	True
359.876	1.45	Win2	0.5789	n/a	Yes	2.872	n/a	5.0	GoodResponse	1	0.045	358.921	0	37	Feedback	Win	True
361.331	2.872	Win2	0.5789	n/a	Yes	2.872	n/a	n/a	GoodResponse	1	0.0	n/a	0	37	ISIslide	Win	True
364.223	0.25	Lose2	0.5897	0.0	Yes	2.827	0.023	n/a	GoodResponse	0	n/a	n/a	0	38	Cue	AvoidedLoss	True
364.474	3.95	Lose2	0.5897	0.0	Yes	2.827	0.001	n/a	GoodResponse	0	n/a	n/a	0	38	Fixation	AvoidedLoss	True
368.419	0.25	Lose2	0.5897	0.004	Yes	2.827	-0.004	2.0	GoodResponse	0	0.216	367.635	0	38	Target	AvoidedLoss	True
368.635	0.3	Lose2	0.5897	0.004	Yes	2.827	-0.004	2.0	GoodResponse	0	0.216	n/a	0	38	ButtonPress	AvoidedLoss	True
368.669	0.45	Lose2	0.5897	n/a	Yes	2.827	n/a	n/a	GoodResponse	0	n/a	n/a	0	38	Blank	AvoidedLoss	True
369.121	1.45	Lose2	0.5897	n/a	Yes	2.827	n/a	5.0	GoodResponse	0	0.02	368.141	0	38	Feedback	AvoidedLoss	True
370.575	2.827	Lose2	0.5897	n/a	Yes	2.827	n/a	n/a	GoodResponse	0	0.0	n/a	0	38	ISIslide	AvoidedLoss	True
373.417	0.25	Win2	0.6	0.0	Yes	2.983	0.017	n/a	GoodResponse	1	n/a	n/a	1	39	Cue	Win	True
373.668	4.1	Win2	0.6	0.0	Yes	2.983	0.001	n/a	GoodResponse	1	n/a	n/a	1	39	Fixation	Win	True
377.763	0.26	Win2	0.6	0.004	Yes	2.983	-0.004	2.0	GoodResponse	1	0.198	376.961	1	39	Target	Win	True
377.961	0.3	Win2	0.6	0.004	Yes	2.983	-0.004	2.0	GoodResponse	1	0.198	n/a	1	39	ButtonPress	Win	True
378.031	0.44	Win2	0.6	n/a	Yes	2.983	n/a	n/a	GoodResponse	1	n/a	n/a	1	39	Blank	Win	True
378.465	1.45	Win2	0.6	n/a	Yes	2.983	n/a	5.0	GoodResponse	1	0.041	377.506	1	39	Feedback	Win	True
379.92	2.983	Win2	0.6	n/a	Yes	2.983	n/a	n/a	GoodResponse	1	0.0	n/a	1	39	ISIslide	Win	True
382.929	0.25	Win2	0.6098	0.0	Yes	2.721	0.029	n/a	GoodResponse	1	n/a	n/a	2	40	Cue	Win	True
383.179	3.95	Win2	0.6098	0.0	Yes	2.721	0.0	n/a	GoodResponse	1	n/a	n/a	2	40	Fixation	Win	True
387.124	0.27	Win2	0.6098	0.005	Yes	2.721	-0.005	2.0	GoodResponse	1	0.188	386.312	2	40	Target	Win	True
387.312	0.3	Win2	0.6098	0.005	Yes	2.721	-0.005	2.0	GoodResponse	1	0.188	n/a	2	40	ButtonPress	Win	True
387.409	0.43	Win2	0.6098	n/a	Yes	2.721	n/a	n/a	GoodResponse	1	n/a	n/a	2	40	Blank	Win	True
387.827	1.45	Win2	0.6098	n/a	Yes	2.721	n/a	5.0	GoodResponse	1	0.045	386.872	2	40	Feedback	Win	True
389.281	2.721	Win2	0.6098	n/a	Yes	2.721	n/a	n/a	GoodResponse	1	0.0	n/a	2	40	ISIslide	Win	True
392.022	0.25	Win2	0.619	0.001	Yes	2.778	0.022	n/a	GoodResponse	1	n/a	n/a	3	41	Cue	Win	True
392.273	3.9	Win2	0.619	0.0	Yes	2.778	0.001	n/a	GoodResponse	1	n/a	n/a	3	41	Fixation	Win	True
396.168	0.28	Win2	0.619	0.004	Yes	2.778	-0.004	2.0	GoodResponse	1	0.189	395.357	3	41	Target	Win	True
396.357	0.3	Win2	0.619	0.004	Yes	2.778	-0.004	2.0	GoodResponse	1	0.189	n/a	3	41	ButtonPress	Win	True
396.452	0.42	Win2	0.619	n/a	Yes	2.778	n/a	n/a	GoodResponse	1	n/a	n/a	3	41	Blank	Win	True
396.87	1.45	Win2	0.619	n/a	Yes	2.778	n/a	5.0	GoodResponse	1	0.026	395.896	3	41	Feedback	Win	True
398.325	2.778	Win2	0.619	n/a	Yes	2.778	n/a	n/a	GoodResponse	1	0.0	n/a	3	41	ISIslide	Win	True
401.116	0.25	Control	0.6279	0.0	Yes	2.934	0.016	n/a	GoodResponse	0	n/a	n/a	3	42	Cue	Neutral	True
401.367	3.85	Control	0.6279	0.0	Yes	2.934	0.001	n/a	GoodResponse	0	n/a	n/a	3	42	Fixation	Neutral	True
405.212	0.29	Control	0.6279	0.004	Yes	2.934	-0.004	2.0	GoodResponse	0	0.251	404.463	3	42	Target	Neutral	True
405.463	0.3	Control	0.6279	0.004	Yes	2.934	-0.004	2.0	GoodResponse	0	0.251	n/a	3	42	ButtonPress	Neutral	True
405.513	0.41	Control	0.6279	n/a	Yes	2.934	n/a	n/a	GoodResponse	0	n/a	n/a	3	42	Blank	Neutral	True
405.914	1.45	Control	0.6279	n/a	Yes	2.934	n/a	5.0	GoodResponse	0	0.008	404.922	3	42	Feedback	Neutral	True
407.368	2.934	Control	0.6279	n/a	Yes	2.934	n/a	n/a	GoodResponse	0	0.0	n/a	3	42	ISIslide	Neutral	True
410.327	0.25	Win2	0.6364	0.0	Yes	3.173	0.027	n/a	GoodResponse	1	n/a	n/a	4	43	Cue	Win	True
410.578	4.0	Win2	0.6364	0.0	Yes	3.173	0.001	n/a	GoodResponse	1	n/a	n/a	4	43	Fixation	Win	True
414.573	0.3	Win2	0.6364	0.004	Yes	3.173	-0.004	2.0	GoodResponse	1	0.209	413.782	4	43	Target	Win	True
414.782	0.3	Win2	0.6364	0.004	Yes	3.173	-0.004	2.0	GoodResponse	1	0.209	n/a	4	43	ButtonPress	Win	True
414.874	0.4	Win2	0.6364	n/a	Yes	3.173	n/a	n/a	GoodResponse	1	n/a	n/a	4	43	Blank	Win	True
415.275	1.45	Win2	0.6364	n/a	Yes	3.173	n/a	5.0	GoodResponse	1	0.011	414.286	4	43	Feedback	Win	True
416.73	3.173	Win2	0.6364	n/a	Yes	3.173	n/a	2.0	GoodResponse	1	0.782	n/a	4	43	ISIslide	Win	True
419.906	0.25	Win2	0.6444	0.0	Yes	2.994	0.006	n/a	GoodResponse	1	n/a	n/a	5	44	Cue	Win	True
420.156	4.0	Win2	0.6444	0.001	Yes	2.994	0.0	n/a	GoodResponse	1	n/a	n/a	5	44	Fixation	Win	True
424.152	0.31	Win2	0.6444	0.004	Yes	2.994	-0.004	2.0	GoodResponse	1	0.206	423.358	5	44	Target	Win	True
424.358	0.3	Win2	0.6444	0.004	Yes	2.994	-0.004	2.0	GoodResponse	1	0.206	n/a	5	44	ButtonPress	Win	True
424.469	0.39	Win2	0.6444	n/a	Yes	2.994	n/a	n/a	GoodResponse	1	n/a	n/a	5	44	Blank	Win	True
424.854	1.45	Win2	0.6444	n/a	Yes	2.994	n/a	5.0	GoodResponse	1	0.042	423.896	5	44	Feedback	Win	True
426.308	2.994	Win2	0.6444	n/a	Yes	2.994	n/a	n/a	GoodResponse	1	0.0	n/a	5	44	ISIslide	Win	True
429.317	0.25	Control	0.6522	0.0	Yes	2.883	0.017	n/a	GoodResponse	0	n/a	n/a	5	45	Cue	Neutral	True
429.568	4.1	Control	0.6522	0.0	Yes	2.883	0.001	n/a	GoodResponse	0	n/a	n/a	5	45	Fixation	Neutral	True
433.663	0.32	Control	0.6522	0.004	Yes	2.883	-0.004	2.0	GoodResponse	0	0.189	432.852	5	45	Target	Neutral	True
433.852	0.3	Control	0.6522	0.004	Yes	2.883	-0.004	2.0	GoodResponse	0	0.189	n/a	5	45	ButtonPress	Neutral	True
433.998	0.38	Control	0.6522	n/a	Yes	2.883	n/a	n/a	GoodResponse	0	n/a	n/a	5	45	Blank	Neutral	True
434.366	1.45	Control	0.6522	n/a	Yes	2.883	n/a	5.0	GoodResponse	0	0.042	433.408	5	45	Feedback	Neutral	True
435.82	2.883	Control	0.6522	n/a	Yes	2.883	n/a	n/a	GoodResponse	0	0.0	n/a	5	45	ISIslide	Neutral	True
438.729	0.25	Lose2	0.6596	0.0	Yes	3.371	0.029	n/a	GoodResponse	0	n/a	n/a	5	46	Cue	AvoidedLoss	True
438.979	4.0	Lose2	0.6596	0.0	Yes	3.371	0.0	n/a	GoodResponse	0	n/a	n/a	5	46	Fixation	AvoidedLoss	True
442.975	0.33	Lose2	0.6596	0.004	Yes	3.371	-0.004	2.0	GoodResponse	0	0.283	442.258	5	46	Target	AvoidedLoss	True
443.258	0.3	Lose2	0.6596	0.004	Yes	3.371	-0.004	2.0	GoodResponse	0	0.283	n/a	5	46	ButtonPress	AvoidedLoss	True
443.309	0.37	Lose2	0.6596	n/a	Yes	3.371	n/a	n/a	GoodResponse	0	n/a	n/a	5	46	Blank	AvoidedLoss	True
443.677	1.45	Lose2	0.6596	n/a	Yes	3.371	n/a	5.0	GoodResponse	0	0.048	442.725	5	46	Feedback	AvoidedLoss	True
445.131	3.371	Lose2	0.6596	n/a	Yes	3.371	n/a	n/a	GoodResponse	0	0.0	n/a	5	46	ISIslide	AvoidedLoss	True
448.525	0.25	Lose2	0.6667000000000001	0.0	Yes	2.675	0.025	n/a	GoodResponse	0	n/a	n/a	5	47	Cue	AvoidedLoss	True
448.775	4.0	Lose2	0.6667000000000001	0.0	Yes	2.675	0.0	n/a	GoodResponse	0	n/a	n/a	5	47	Fixation	AvoidedLoss	True
452.771	0.33	Lose2	0.6667000000000001	0.004	Yes	2.675	-0.004	2.0	GoodResponse	0	0.244	452.015	5	47	Target	AvoidedLoss	True
453.015	0.3	Lose2	0.6667000000000001	0.004	Yes	2.675	-0.004	2.0	GoodResponse	0	0.244	n/a	5	47	ButtonPress	AvoidedLoss	True
453.105	0.37	Lose2	0.6667000000000001	n/a	Yes	2.675	n/a	n/a	GoodResponse	0	n/a	n/a	5	47	Blank	AvoidedLoss	True
453.473	1.45	Lose2	0.6667000000000001	n/a	Yes	2.675	n/a	5.0	GoodResponse	0	0.008	452.481	5	47	Feedback	AvoidedLoss	True
454.927	2.675	Lose2	0.6667000000000001	n/a	Yes	2.675	n/a	n/a	GoodResponse	0	0.0	n/a	5	47	ISIslide	AvoidedLoss	True
457.618	0.25	Lose2	0.6735	0.0	Yes	3.032	0.018	n/a	GoodResponse	0	n/a	n/a	5	48	Cue	AvoidedLoss	True
457.869	3.95	Lose2	0.6735	0.0	Yes	3.032	0.001	n/a	GoodResponse	0	n/a	n/a	5	48	Fixation	AvoidedLoss	True
461.814	0.32	Lose2	0.6735	0.004	Yes	3.032	-0.004	2.0	GoodResponse	0	0.194	461.008	5	48	Target	AvoidedLoss	True
462.008	0.3	Lose2	0.6735	0.004	Yes	3.032	-0.004	2.0	GoodResponse	0	0.194	n/a	5	48	ButtonPress	AvoidedLoss	True
462.149	0.38	Lose2	0.6735	n/a	Yes	3.032	n/a	n/a	GoodResponse	0	n/a	n/a	5	48	Blank	AvoidedLoss	True
462.516	1.45	Lose2	0.6735	n/a	Yes	3.032	n/a	5.0	GoodResponse	0	0.038	461.554	5	48	Feedback	AvoidedLoss	True
463.971	3.032	Lose2	0.6735	n/a	Yes	3.032	n/a	n/a	GoodResponse	0	0.0	n/a	5	48	ISIslide	AvoidedLoss	True
467.03	0.25	Control	0.66	0.0	No	2.87	0.03	n/a	NoResponse	0	n/a	n/a	5	49	Cue	Neutral	True
467.281	4.0	Control	0.66	0.0	No	2.87	0.001	n/a	NoResponse	0	n/a	n/a	5	49	Fixation	Neutral	True
471.276	0.31	Control	0.66	0.004	No	2.87	-0.004	2.0	NoResponse	0	0.418	470.694	5	49	Target	Neutral	True
471.593	0.39	Control	0.66	n/a	No	2.87	n/a	n/a	NoResponse	0	n/a	n/a	5	49	Blank	Neutral	True
471.694	0.3	Control	0.66	0.004	No	2.87	-0.004	2.0	NoResponse	0	0.418	n/a	5	49	ButtonPress	Neutral	True
471.978	1.45	Control	0.66	n/a	No	2.87	n/a	5.0	NoResponse	0	0.039	471.017	5	49	Feedback	Neutral	True
473.432	2.87	Control	0.66	n/a	No	2.87	n/a	n/a	NoResponse	0	0.0	n/a	5	49	ISIslide	Neutral	True
476.324	0.25	Control	0.6667000000000001	0.0	Yes	2.776	0.024	n/a	GoodResponse	0	n/a	n/a	5	50	Cue	Neutral	True
476.575	4.0	Control	0.6667000000000001	0.0	Yes	2.776	0.001	n/a	GoodResponse	0	n/a	n/a	5	50	Fixation	Neutral	True
480.57	0.31	Control	0.6667000000000001	0.004	Yes	2.776	-0.004	2.0	GoodResponse	0	0.207	479.777	5	50	Target	Neutral	True
480.777	0.3	Control	0.6667000000000001	0.004	Yes	2.776	-0.004	2.0	GoodResponse	0	0.207	n/a	5	50	ButtonPress	Neutral	True
480.888	0.39	Control	0.6667000000000001	n/a	Yes	2.776	n/a	n/a	GoodResponse	0	n/a	n/a	5	50	Blank	Neutral	True
481.272	1.45	Control	0.6667000000000001	n/a	Yes	2.776	n/a	5.0	GoodResponse	0	0.014	480.286	5	50	Feedback	Neutral	True
482.727	2.776	Control	0.6667000000000001	n/a	Yes	2.776	n/a	n/a	GoodResponse	0	0.0	n/a	5	50	ISIslide	Neutral	True
485.518	0.25	Control	0.6537999999999999	0.0	No	2.732	0.018	n/a	NoResponse	0	n/a	n/a	5	51	Cue	Neutral	True
485.769	3.95	Control	0.6537999999999999	0.0	No	2.732	0.001	n/a	NoResponse	0	n/a	n/a	5	51	Fixation	Neutral	True
489.714	0.3	Control	0.6537999999999999	0.004	No	2.732	-0.004	2.0	NoResponse	0	0.366	489.08	5	51	Target	Neutral	True
490.015	0.4	Control	0.6537999999999999	n/a	No	2.732	n/a	n/a	NoResponse	0	n/a	n/a	5	51	Blank	Neutral	True
490.08	0.3	Control	0.6537999999999999	0.004	No	2.732	-0.004	2.0	NoResponse	0	0.366	n/a	5	51	ButtonPress	Neutral	True
490.416	1.45	Control	0.6537999999999999	n/a	No	2.732	n/a	5.0	NoResponse	0	0.039	489.455	5	51	Feedback	Neutral	True
491.871	2.732	Control	0.6537999999999999	n/a	No	2.732	n/a	n/a	NoResponse	0	0.0	n/a	5	51	ISIslide	Neutral	True
494.629	0.25	Control	0.6604000000000001	0.0	Yes	2.621	0.029	n/a	GoodResponse	0	n/a	n/a	5	52	Cue	Neutral	True
494.88	4.05	Control	0.6604000000000001	0.0	Yes	2.621	0.001	n/a	GoodResponse	0	n/a	n/a	5	52	Fixation	Neutral	True
498.925	0.31	Control	0.6604000000000001	0.004	Yes	2.621	-0.004	2.0	GoodResponse	0	0.21	498.135	5	52	Target	Neutral	True
499.135	0.3	Control	0.6604000000000001	0.004	Yes	2.621	-0.004	2.0	GoodResponse	0	0.21	n/a	5	52	ButtonPress	Neutral	True
499.243	0.39	Control	0.6604000000000001	n/a	Yes	2.621	n/a	n/a	GoodResponse	0	n/a	n/a	5	52	Blank	Neutral	True
499.627	1.45	Control	0.6604000000000001	n/a	Yes	2.621	n/a	5.0	GoodResponse	0	0.048	498.675	5	52	Feedback	Neutral	True
501.081	2.621	Control	0.6604000000000001	n/a	Yes	2.621	n/a	n/a	GoodResponse	0	0.0	n/a	5	52	ISIslide	Neutral	True
503.723	0.25	Win2	0.6667000000000001	0.0	Yes	2.927	0.023	n/a	GoodResponse	1	n/a	n/a	6	53	Cue	Win	True
503.973	4.05	Win2	0.6667000000000001	0.001	Yes	2.927	0.0	n/a	GoodResponse	1	n/a	n/a	6	53	Fixation	Win	True
508.019	0.31	Win2	0.6667000000000001	0.004	Yes	2.927	-0.004	2.0	GoodResponse	1	0.178	507.197	6	53	Target	Win	True
508.197	0.3	Win2	0.6667000000000001	0.004	Yes	2.927	-0.004	2.0	GoodResponse	1	0.178	n/a	6	53	ButtonPress	Win	True
508.336	0.39	Win2	0.6667000000000001	n/a	Yes	2.927	n/a	n/a	GoodResponse	1	n/a	n/a	6	53	Blank	Win	True
508.721	1.45	Win2	0.6667000000000001	n/a	Yes	2.927	n/a	5.0	GoodResponse	1	0.027	507.748	6	53	Feedback	Win	True
510.175	2.927	Win2	0.6667000000000001	n/a	Yes	2.927	n/a	n/a	GoodResponse	1	0.0	n/a	6	53	ISIslide	Win	True
513.117	0.25	Win2	0.6727	0.001	Yes	2.733	0.017	n/a	GoodResponse	1	n/a	n/a	7	54	Cue	Win	True
513.368	3.95	Win2	0.6727	0.0	Yes	2.733	0.001	n/a	GoodResponse	1	n/a	n/a	7	54	Fixation	Win	True
517.313	0.3	Win2	0.6727	0.004	Yes	2.733	-0.004	2.0	GoodResponse	1	0.268	516.581	7	54	Target	Win	True
517.581	0.3	Win2	0.6727	0.004	Yes	2.733	-0.004	2.0	GoodResponse	1	0.268	n/a	7	54	ButtonPress	Win	True
517.614	0.4	Win2	0.6727	n/a	Yes	2.733	n/a	n/a	GoodResponse	1	n/a	n/a	7	54	Blank	Win	True
518.015	1.45	Win2	0.6727	n/a	Yes	2.733	n/a	5.0	GoodResponse	1	0.002	517.017	7	54	Feedback	Win	True
519.47	2.733	Win2	0.6727	n/a	Yes	2.733	n/a	n/a	GoodResponse	1	0.0	n/a	7	54	ISIslide	Win	True
522.228	0.25	Control	0.6786	0.0	Yes	3.022	0.028	n/a	GoodResponse	0	n/a	n/a	7	55	Cue	Neutral	True
522.479	3.95	Control	0.6786	0.0	Yes	3.022	0.001	n/a	GoodResponse	0	n/a	n/a	7	55	Fixation	Neutral	True
526.424	0.29	Control	0.6786	0.004	Yes	3.022	-0.004	2.0	GoodResponse	0	0.209	525.633	7	55	Target	Neutral	True
526.633	0.3	Control	0.6786	0.004	Yes	3.022	-0.004	2.0	GoodResponse	0	0.209	n/a	7	55	ButtonPress	Neutral	True
526.725	0.41	Control	0.6786	n/a	Yes	3.022	n/a	n/a	GoodResponse	0	n/a	n/a	7	55	Blank	Neutral	True
527.126	1.45	Control	0.6786	n/a	Yes	3.022	n/a	5.0	GoodResponse	0	0.012	526.138	7	55	Feedback	Neutral	True
528.58	3.022	Control	0.6786	n/a	Yes	3.022	n/a	n/a	GoodResponse	0	0.0	n/a	7	55	ISIslide	Neutral	True
531.623	0.25	Control	0.6842	0.0	Yes	2.827	0.023	n/a	GoodResponse	0	n/a	n/a	7	56	Cue	Neutral	True
531.873	3.95	Control	0.6842	0.001	Yes	2.827	0.0	n/a	GoodResponse	0	n/a	n/a	7	56	Fixation	Neutral	True
535.819	0.28	Control	0.6842	0.004	Yes	2.827	-0.004	2.0	GoodResponse	0	0.236	535.055	7	56	Target	Neutral	True
536.055	0.3	Control	0.6842	0.004	Yes	2.827	-0.004	2.0	GoodResponse	0	0.236	n/a	7	56	ButtonPress	Neutral	True
536.103	0.42	Control	0.6842	n/a	Yes	2.827	n/a	n/a	GoodResponse	0	n/a	n/a	7	56	Blank	Neutral	True
536.521	1.45	Control	0.6842	n/a	Yes	2.827	n/a	5.0	GoodResponse	0	0.031	535.552	7	56	Feedback	Neutral	True
537.975	2.827	Control	0.6842	n/a	Yes	2.827	n/a	n/a	GoodResponse	0	0.0	n/a	7	56	ISIslide	Neutral	True
540.817	0.25	Control	0.6897	0.0	Yes	3.483	0.017	n/a	GoodResponse	0	n/a	n/a	7	57	Cue	Neutral	True
541.068	4.0	Control	0.6897	0.0	Yes	3.483	0.001	n/a	GoodResponse	0	n/a	n/a	7	57	Fixation	Neutral	True
545.063	0.27	Control	0.6897	0.004	Yes	3.483	-0.004	2.0	GoodResponse	0	0.222	544.285	7	57	Target	Neutral	True
545.285	0.3	Control	0.6897	0.004	Yes	3.483	-0.004	2.0	GoodResponse	0	0.222	n/a	7	57	ButtonPress	Neutral	True
545.347	0.43	Control	0.6897	n/a	Yes	3.483	n/a	n/a	GoodResponse	0	n/a	n/a	7	57	Blank	Neutral	True
545.765	1.45	Control	0.6897	n/a	Yes	3.483	n/a	5.0	GoodResponse	0	0.008	544.773	7	57	Feedback	Neutral	True
547.219	3.483	Control	0.6897	n/a	Yes	3.483	n/a	n/a	GoodResponse	0	0.0	n/a	7	57	ISIslide	Neutral	True
550.73	0.25	Win2	0.6949	0.0	Yes	2.72	0.03	n/a	GoodResponse	1	n/a	n/a	8	58	Cue	Win	True
550.981	4.05	Win2	0.6949	0.0	Yes	2.72	0.001	n/a	GoodResponse	1	n/a	n/a	8	58	Fixation	Win	True
555.026	0.26	Win2	0.6949	0.004	Yes	2.72	-0.004	2.0	GoodResponse	1	0.211	554.237	8	58	Target	Win	True
555.237	0.3	Win2	0.6949	0.004	Yes	2.72	-0.004	2.0	GoodResponse	1	0.211	n/a	8	58	ButtonPress	Win	True
555.293	0.44	Win2	0.6949	n/a	Yes	2.72	n/a	n/a	GoodResponse	1	n/a	n/a	8	58	Blank	Win	True
555.728	1.45	Win2	0.6949	n/a	Yes	2.72	n/a	5.0	GoodResponse	1	0.044	554.772	8	58	Feedback	Win	True
557.182	2.72	Win2	0.6949	n/a	Yes	2.72	n/a	n/a	GoodResponse	1	0.0	n/a	8	58	ISIslide	Win	True
559.924	0.25	Lose2	0.7	0.0	Yes	2.676	0.024	n/a	GoodResponse	0	n/a	n/a	8	59	Cue	AvoidedLoss	True
560.175	4.0	Lose2	0.7	0.0	Yes	2.676	0.001	n/a	GoodResponse	0	n/a	n/a	8	59	Fixation	AvoidedLoss	True
564.17	0.25	Lose2	0.7	0.004	Yes	2.676	-0.004	2.0	GoodResponse	0	0.203	563.373	8	59	Target	AvoidedLoss	True
564.373	0.3	Lose2	0.7	0.004	Yes	2.676	-0.004	2.0	GoodResponse	0	0.203	n/a	8	59	ButtonPress	AvoidedLoss	True
564.421	0.45	Lose2	0.7	n/a	Yes	2.676	n/a	n/a	GoodResponse	0	n/a	n/a	8	59	Blank	AvoidedLoss	True
564.872	1.45	Lose2	0.7	n/a	Yes	2.676	n/a	5.0	GoodResponse	0	0.021	563.893	8	59	Feedback	AvoidedLoss	True
566.326	2.676	Lose2	0.7	n/a	Yes	2.676	n/a	n/a	GoodResponse	0	0.0	n/a	8	59	ISIslide	AvoidedLoss	True
569.018	0.25	Control	0.6884999999999999	0.0	No	2.682	0.018	n/a	NoResponse	0	n/a	n/a	8	60	Cue	Neutral	True
569.268	4.0	Control	0.6884999999999999	0.001	No	2.682	0.0	n/a	NoResponse	0	n/a	n/a	8	60	Fixation	Neutral	True
573.264	0.24	Control	0.6884999999999999	0.004	No	2.682	-0.004	2.0	NoResponse	0	0.259	572.523	8	60	Target	Neutral	True
573.514	0.46	Control	0.6884999999999999	n/a	No	2.682	n/a	n/a	NoResponse	0	n/a	n/a	8	60	Blank	Neutral	True
573.523	0.3	Control	0.6884999999999999	0.004	No	2.682	-0.004	2.0	NoResponse	0	0.259	n/a	8	60	ButtonPress	Neutral	True
573.966	1.45	Control	0.6884999999999999	n/a	No	2.682	n/a	5.0	NoResponse	0	0.0	572.966	8	60	Feedback	Neutral	True
575.42	2.682	Control	0.6884999999999999	n/a	No	2.682	n/a	n/a	NoResponse	0	0.0	n/a	8	60	ISIslide	Neutral	True
578.128	0.25	Lose2	0.6934999999999999	0.0	Yes	2.972	0.028	n/a	GoodResponse	0	n/a	n/a	8	61	Cue	AvoidedLoss	True
578.379	4.0	Lose2	0.6934999999999999	0.0	Yes	2.972	0.001	n/a	GoodResponse	0	n/a	n/a	8	61	Fixation	AvoidedLoss	True
582.374	0.23	Lose2	0.6934999999999999	0.004	Yes	2.972	-0.004	2.0	GoodResponse	0	0.224	581.598	8	61	Target	AvoidedLoss	True
582.598	0.3	Lose2	0.6934999999999999	0.004	Yes	2.972	-0.004	2.0	GoodResponse	0	0.224	n/a	8	61	ButtonPress	AvoidedLoss	True
582.608	0.47	Lose2	0.6934999999999999	n/a	Yes	2.972	n/a	n/a	GoodResponse	0	n/a	n/a	8	61	Blank	AvoidedLoss	True
583.076	1.45	Lose2	0.6934999999999999	n/a	Yes	2.972	n/a	5.0	GoodResponse	0	0.013	582.089	8	61	Feedback	AvoidedLoss	True
584.531	2.972	Lose2	0.6934999999999999	n/a	Yes	2.972	n/a	n/a	GoodResponse	0	0.0	n/a	8	61	ISIslide	AvoidedLoss	True
587.523	0.25	Lose2	0.6984	0.0	Yes	2.877	0.023	n/a	GoodResponse	0	n/a	n/a	8	62	Cue	AvoidedLoss	True
587.774	3.9	Lose2	0.6984	0.0	Yes	2.877	0.001	n/a	GoodResponse	0	n/a	n/a	8	62	Fixation	AvoidedLoss	True
591.669	0.22	Lose2	0.6984	0.004	Yes	2.877	-0.004	2.0	GoodResponse	0	0.188	590.857	8	62	Target	AvoidedLoss	True
591.857	0.3	Lose2	0.6984	0.004	Yes	2.877	-0.004	2.0	GoodResponse	0	0.188	n/a	8	62	ButtonPress	AvoidedLoss	True
591.903	0.48	Lose2	0.6984	n/a	Yes	2.877	n/a	n/a	GoodResponse	0	n/a	n/a	8	62	Blank	AvoidedLoss	True
592.371	1.45	Lose2	0.6984	n/a	Yes	2.877	n/a	5.0	GoodResponse	0	0.035	591.406	8	62	Feedback	AvoidedLoss	True
593.825	2.877	Lose2	0.6984	n/a	Yes	2.877	n/a	n/a	GoodResponse	0	0.0	n/a	8	62	ISIslide	AvoidedLoss	True
596.717	0.25	Lose2	0.6875	0.0	No	2.633	0.017	n/a	LatePress	-1	n/a	n/a	7	63	Cue	Loss	True
596.968	4.05	Lose2	0.6875	0.0	No	2.633	0.001	n/a	LatePress	-1	n/a	n/a	7	63	Fixation	Loss	True
601.013	0.21	Lose2	0.6875	0.004	No	2.633	-0.004	2.0	LatePress	-1	0.214	600.227	7	63	Target	Loss	True
601.227	0.3	Lose2	0.6875	0.004	No	2.633	-0.004	2.0	LatePress	-1	0.214	n/a	7	63	ButtonPress	Loss	True
601.231	0.49	Lose2	0.6875	n/a	No	2.633	n/a	n/a	LatePress	-1	n/a	n/a	7	63	Blank	Loss	True
601.715	1.45	Lose2	0.6875	n/a	No	2.633	n/a	5.0	LatePress	-1	0.008	600.723	7	63	Feedback	Loss	True
603.17	2.633	Lose2	0.6875	n/a	No	2.633	n/a	n/a	LatePress	-1	0.0	n/a	7	63	ISIslide	Loss	True
605.828	0.25	Win2	0.6923	0.0	Yes	3.122	0.028	n/a	GoodResponse	1	n/a	n/a	8	64	Cue	Win	True
606.078	4.15	Win2	0.6923	0.0	Yes	3.122	0.0	n/a	GoodResponse	1	n/a	n/a	8	64	Fixation	Win	True
610.224	0.2	Win2	0.6923	0.004	Yes	3.122	-0.004	2.0	GoodResponse	1	0.19	609.414	8	64	Target	Win	True
610.414	0.3	Win2	0.6923	0.004	Yes	3.122	-0.004	2.0	GoodResponse	1	0.19	n/a	8	64	ButtonPress	Win	True
610.425	0.5	Win2	0.6923	n/a	Yes	3.122	n/a	n/a	GoodResponse	1	n/a	n/a	8	64	Blank	Win	True
610.926	1.45	Win2	0.6923	n/a	Yes	3.122	n/a	5.0	GoodResponse	1	0.016	609.942	8	64	Feedback	Win	True
612.381	3.122	Win2	0.6923	n/a	Yes	3.122	n/a	n/a	GoodResponse	1	0.0	n/a	8	64	ISIslide	Win	True
615.523	0.25	Control	0.6818000000000001	0.0	No	2.777	0.023	n/a	NoResponse	0	n/a	n/a	8	65	Cue	Neutral	True
615.774	4.0	Control	0.6818000000000001	0.0	No	2.777	0.001	n/a	NoResponse	0	n/a	n/a	8	65	Fixation	Neutral	True
619.769	0.19	Control	0.6818000000000001	0.004	No	2.777	-0.004	2.0	NoResponse	0	0.224	618.993	8	65	Target	Neutral	True
619.97	0.51	Control	0.6818000000000001	n/a	No	2.777	n/a	n/a	NoResponse	0	n/a	n/a	8	65	Blank	Neutral	True
619.993	0.3	Control	0.6818000000000001	0.004	No	2.777	-0.004	2.0	NoResponse	0	0.224	n/a	8	65	ButtonPress	Neutral	True
620.471	1.45	Control	0.6818000000000001	n/a	No	2.777	n/a	5.0	NoResponse	0	0.032	619.503	8	65	Feedback	Neutral	True
621.926	2.777	Control	0.6818000000000001	n/a	No	2.777	n/a	n/a	NoResponse	0	0.0	n/a	8	65	ISIslide	Neutral	True
624.717	0.25	Win2	0.6866	0.0	Yes	2.783	0.017	n/a	GoodResponse	1	n/a	n/a	9	66	Cue	Win	True
624.968	3.9	Win2	0.6866	0.0	Yes	2.783	0.001	n/a	GoodResponse	1	n/a	n/a	9	66	Fixation	Win	True
628.863	0.18	Win2	0.6866	0.004	Yes	2.783	-0.004	2.0	GoodResponse	1	0.177	628.04	9	66	Target	Win	True
629.04	0.3	Win2	0.6866	0.004	Yes	2.783	-0.004	2.0	GoodResponse	1	0.177	n/a	9	66	ButtonPress	Win	True
629.047	0.52	Win2	0.6866	n/a	Yes	2.783	n/a	n/a	GoodResponse	1	n/a	n/a	9	66	Blank	Win	True
629.565	1.45	Win2	0.6866	n/a	Yes	2.783	n/a	5.0	GoodResponse	1	0.011	628.576	9	66	Feedback	Win	True
631.02	2.783	Win2	0.6866	n/a	Yes	2.783	n/a	n/a	GoodResponse	1	0.0	n/a	9	66	ISIslide	Win	True
633.828	0.25	Control	0.6765000000000001	0.0	No	2.722	0.028	n/a	NoResponse	0	n/a	n/a	9	67	Cue	Neutral	True
634.079	3.95	Control	0.6765000000000001	0.0	No	2.722	0.001	n/a	NoResponse	0	n/a	n/a	9	67	Fixation	Neutral	True
638.024	0.17	Control	0.6765000000000001	0.004	No	2.722	-0.004	2.0	NoResponse	0	0.291	637.315	9	67	Target	Neutral	True
638.208	0.53	Control	0.6765000000000001	n/a	No	2.722	n/a	n/a	NoResponse	0	n/a	n/a	9	67	Blank	Neutral	True
638.315	0.3	Control	0.6765000000000001	0.004	No	2.722	-0.004	2.0	NoResponse	0	0.291	n/a	9	67	ButtonPress	Neutral	True
638.726	1.45	Control	0.6765000000000001	n/a	No	2.722	n/a	5.0	NoResponse	0	0.02	637.746	9	67	Feedback	Neutral	True
640.18	2.722	Control	0.6765000000000001	n/a	No	2.722	n/a	n/a	NoResponse	0	0.0	n/a	9	67	ISIslide	Neutral	True
642.922	0.25	Win2	0.6667000000000001	0.0	No	3.078	0.022	n/a	NoResponse	0	n/a	n/a	9	68	Cue	MissedWin	True
643.173	4.0	Win2	0.6667000000000001	0.0	No	3.078	0.001	n/a	NoResponse	0	n/a	n/a	9	68	Fixation	MissedWin	True
647.168	0.16	Win2	0.6667000000000001	0.004	No	3.078	-0.004	2.0	NoResponse	0	0.2	646.368	9	68	Target	MissedWin	True
647.335	0.54	Win2	0.6667000000000001	n/a	No	3.078	n/a	n/a	NoResponse	0	n/a	n/a	9	68	Blank	MissedWin	True
647.368	0.3	Win2	0.6667000000000001	0.004	No	3.078	-0.004	2.0	NoResponse	0	0.2	n/a	9	68	ButtonPress	MissedWin	True
647.87	1.45	Win2	0.6667000000000001	n/a	No	3.078	n/a	5.0	NoResponse	0	0.047	646.917	9	68	Feedback	MissedWin	True
649.324	3.078	Win2	0.6667000000000001	n/a	No	3.078	n/a	n/a	NoResponse	0	0.0	n/a	9	68	ISIslide	MissedWin	True
652.417	0.25	Win2	0.6570999999999999	0.0	No	3.233	0.017	n/a	NoResponse	0	n/a	n/a	9	69	Cue	MissedWin	True
652.668	3.95	Win2	0.6570999999999999	0.0	No	3.233	0.001	n/a	NoResponse	0	n/a	n/a	9	69	Fixation	MissedWin	True
656.613	0.15	Win2	0.6570999999999999	0.004	No	3.233	-0.004	2.0	NoResponse	0	0.209	655.822	9	69	Target	MissedWin	True
656.763	0.55	Win2	0.6570999999999999	n/a	No	3.233	n/a	n/a	NoResponse	0	n/a	n/a	9	69	Blank	MissedWin	True
656.822	0.3	Win2	0.6570999999999999	0.004	No	3.233	-0.004	2.0	NoResponse	0	0.209	n/a	9	69	ButtonPress	MissedWin	True
657.315	1.45	Win2	0.6570999999999999	n/a	No	3.233	n/a	5.0	NoResponse	0	0.016	656.331	9	69	Feedback	MissedWin	True
658.769	3.233	Win2	0.6570999999999999	n/a	No	3.233	n/a	n/a	NoResponse	0	0.0	n/a	9	69	ISIslide	MissedWin	True
662.029	0.25	Lose2	0.6479	0.0	No	3.021	0.029	n/a	NoResponse	-1	n/a	n/a	8	70	Cue	Loss	True
662.28	4.05	Lose2	0.6479	0.0	No	3.021	0.001	n/a	NoResponse	-1	n/a	n/a	8	70	Fixation	Loss	True
666.325	0.15	Lose2	0.6479	0.004	No	3.021	-0.004	2.0	NoResponse	-1	0.215	665.54	8	70	Target	Loss	True
666.475	0.55	Lose2	0.6479	n/a	No	3.021	n/a	n/a	NoResponse	-1	n/a	n/a	8	70	Blank	Loss	True
666.54	0.3	Lose2	0.6479	0.004	No	3.021	-0.004	2.0	NoResponse	-1	0.215	n/a	8	70	ButtonPress	Loss	True
667.027	1.45	Lose2	0.6479	n/a	No	3.021	n/a	5.0	NoResponse	-1	0.012	666.039	8	70	Feedback	Loss	True
668.481	3.021	Lose2	0.6479	n/a	No	3.021	n/a	n/a	NoResponse	-1	0.0	n/a	8	70	ISIslide	Loss	True
671.524	0.25	Win2	0.6389	0.0	No	2.726	0.024	n/a	NoResponse	0	n/a	n/a	8	71	Cue	MissedWin	True
671.775	4.05	Win2	0.6389	0.0	No	2.726	0.001	n/a	NoResponse	0	n/a	n/a	8	71	Fixation	MissedWin	True
675.82	0.16	Win2	0.6389	0.004	No	2.726	-0.004	2.0	NoResponse	0	0.205	675.025	8	71	Target	MissedWin	True
675.987	0.54	Win2	0.6389	n/a	No	2.726	n/a	n/a	NoResponse	0	n/a	n/a	8	71	Blank	MissedWin	True
676.025	0.3	Win2	0.6389	0.004	No	2.726	-0.004	2.0	NoResponse	0	0.205	n/a	8	71	ButtonPress	MissedWin	True
676.522	1.45	Win2	0.6389	n/a	No	2.726	n/a	5.0	NoResponse	0	0.028	675.55	8	71	Feedback	MissedWin	True
677.976	2.726	Win2	0.6389	n/a	No	2.726	n/a	n/a	NoResponse	0	0.0	n/a	8	71	ISIslide	MissedWin	True
680.718	0.25	Win2	0.6437999999999999	0.0	Yes	2.782	0.018	n/a	GoodResponse	1	n/a	n/a	9	72	Cue	Win	True
680.969	4.1	Win2	0.6437999999999999	0.0	Yes	2.782	0.001	n/a	GoodResponse	1	n/a	n/a	9	72	Fixation	Win	True
685.064	0.17	Win2	0.6437999999999999	0.004	Yes	2.782	-0.004	2.0	GoodResponse	1	0.167	684.231	9	72	Target	Win	True
685.231	0.3	Win2	0.6437999999999999	0.004	Yes	2.782	-0.004	2.0	GoodResponse	1	0.167	n/a	9	72	ButtonPress	Win	True
685.248	0.53	Win2	0.6437999999999999	n/a	Yes	2.782	n/a	n/a	GoodResponse	1	n/a	n/a	9	72	Blank	Win	True
685.766	1.45	Win2	0.6437999999999999	n/a	Yes	2.782	n/a	5.0	GoodResponse	1	0.008	684.774	9	72	Feedback	Win	True
687.221	2.782	Win2	0.6437999999999999	n/a	Yes	2.782	n/a	n/a	GoodResponse	1	0.0	n/a	9	72	ISIslide	Win	True
690.029	0.25	Win2	0.6351	0.0	No	2.671	0.029	n/a	NoResponse	0	n/a	n/a	9	73	Cue	MissedWin	True
690.28	4.0	Win2	0.6351	0.0	No	2.671	0.001	n/a	NoResponse	0	n/a	n/a	9	73	Fixation	MissedWin	True
694.275	0.18	Win2	0.6351	0.004	No	2.671	-0.004	2.0	NoResponse	0	0.209	693.484	9	73	Target	MissedWin	True
694.459	0.52	Win2	0.6351	n/a	No	2.671	n/a	n/a	NoResponse	0	n/a	n/a	9	73	Blank	MissedWin	True
694.484	0.3	Win2	0.6351	0.004	No	2.671	-0.004	2.0	NoResponse	0	0.209	n/a	9	73	ButtonPress	MissedWin	True
694.977	1.45	Win2	0.6351	n/a	No	2.671	n/a	5.0	NoResponse	0	0.012	693.989	9	73	Feedback	MissedWin	True
696.432	2.671	Win2	0.6351	n/a	No	2.671	n/a	n/a	NoResponse	0	0.0	n/a	9	73	ISIslide	MissedWin	True
699.123	0.25	Lose2	0.6267	0.0	No	2.627	0.023	n/a	NoResponse	-1	n/a	n/a	8	74	Cue	Loss	True
699.374	4.05	Lose2	0.6267	0.0	No	2.627	0.001	n/a	NoResponse	-1	n/a	n/a	8	74	Fixation	Loss	True
703.419	0.19	Lose2	0.6267	0.004	No	2.627	-0.004	2.0	NoResponse	-1	0.211	702.63	8	74	Target	Loss	True
703.62	0.51	Lose2	0.6267	n/a	No	2.627	n/a	n/a	NoResponse	-1	n/a	n/a	8	74	Blank	Loss	True
703.63	0.3	Lose2	0.6267	0.004	No	2.627	-0.004	2.0	NoResponse	-1	0.211	n/a	8	74	ButtonPress	Loss	True
704.121	1.45	Lose2	0.6267	n/a	No	2.627	n/a	5.0	NoResponse	-1	0.039	703.16	8	74	Feedback	Loss	True
705.576	2.627	Lose2	0.6267	n/a	No	2.627	n/a	n/a	NoResponse	-1	0.0	n/a	8	74	ISIslide	Loss	True
708.217	0.25	Lose2	0.6315999999999999	0.0	Yes	2.933	0.017	n/a	GoodResponse	0	n/a	n/a	8	75	Cue	AvoidedLoss	True
708.468	3.95	Lose2	0.6315999999999999	0.0	Yes	2.933	0.001	n/a	GoodResponse	0	n/a	n/a	8	75	Fixation	AvoidedLoss	True
712.413	0.2	Lose2	0.6315999999999999	0.004	Yes	2.933	-0.004	2.0	GoodResponse	0	0.179	711.592	8	75	Target	AvoidedLoss	True
712.592	0.3	Lose2	0.6315999999999999	0.004	Yes	2.933	-0.004	2.0	GoodResponse	0	0.179	n/a	8	75	ButtonPress	AvoidedLoss	True
712.613	0.5	Lose2	0.6315999999999999	n/a	Yes	2.933	n/a	n/a	GoodResponse	0	n/a	n/a	8	75	Blank	AvoidedLoss	True
713.115	1.45	Lose2	0.6315999999999999	n/a	Yes	2.933	n/a	5.0	GoodResponse	0	0.02	712.135	8	75	Feedback	AvoidedLoss	True
714.569	2.933	Lose2	0.6315999999999999	n/a	Yes	2.933	n/a	n/a	GoodResponse	0	0.0	n/a	8	75	ISIslide	AvoidedLoss	True
717.528	0.25	Control	0.6234000000000001	0.0	No	3.222	0.028	n/a	NoResponse	0	n/a	n/a	8	76	Cue	Neutral	True
717.779	4.05	Control	0.6234000000000001	0.0	No	3.222	0.001	2.0	NoResponse	0	3.506	720.285	8	76	Fixation	Neutral	True
721.285	0.3	Control	0.6234000000000001	0.0	No	3.222	0.001	2.0	NoResponse	0	3.506	n/a	8	76	ButtonPress	Neutral	True
721.824	0.21	Control	0.6234000000000001	0.004	No	3.222	-0.004	n/a	NoResponse	0	n/a	n/a	8	76	Target	Neutral	True
722.041	0.49	Control	0.6234000000000001	n/a	No	3.222	n/a	n/a	NoResponse	0	n/a	n/a	8	76	Blank	Neutral	True
722.526	1.45	Control	0.6234000000000001	n/a	No	3.222	n/a	5.0	NoResponse	0	0.024	721.55	8	76	Feedback	Neutral	True
723.981	3.222	Control	0.6234000000000001	n/a	No	3.222	n/a	n/a	NoResponse	0	0.0	n/a	8	76	ISIslide	Neutral	True
727.224	0.25	Lose2	0.6154	0.0	No	2.576	0.024	n/a	NoResponse	-1	n/a	n/a	7	77	Cue	Loss	False
727.474	3.95	Lose2	0.6154	0.0	No	2.576	0.0	n/a	NoResponse	-1	n/a	n/a	7	77	Fixation	Loss	False
731.436	0.22	Lose2	0.6154	0.0	No	2.576	0.012	n/a	NoResponse	-1	n/a	n/a	7	77	Target	Loss	False
731.653	0.48	Lose2	0.6154	n/a	No	2.576	n/a	n/a	NoResponse	-1	n/a	n/a	7	77	Blank	Loss	False
732.121	1.45	Lose2	0.6154	n/a	No	2.576	n/a	5.0	NoResponse	-1	0.038	731.159	7	77	Feedback	Loss	False
733.576	2.576	Lose2	0.6154	n/a	No	2.576	n/a	n/a	NoResponse	-1	0.0	n/a	7	77	ISIslide	Loss	False
