onset	duration	cue_type	current_mean_accuracy	duration_error	is_hit	isi_adjusted	onset_delay	response	response_type	reward	rt	rt_time	total_reward	trial_number	trial_phase	trial_type	one_press
11.109	0.25	Control	1.0	0.0	Yes	2.941	0.009	n/a	GoodResponse	0	n/a	n/a	0	0	Cue	Neutral	True
11.359	3.85	Control	1.0	0.0	Yes	2.941	0.0	n/a	GoodResponse	0	n/a	n/a	0	0	Fixation	Neutral	True
15.207	0.4	Control	1.0	0.002	Yes	2.941	-0.002	3.0	GoodResponse	0	0.275	14.482	0	0	Target	Neutral	True
15.482	0.3	Control	1.0	0.002	Yes	2.941	-0.002	3.0	GoodResponse	0	0.275	n/a	0	0	ButtonPress	Neutral	True
15.607	0.3	Control	1.0	n/a	Yes	2.941	n/a	n/a	GoodResponse	0	n/a	n/a	0	0	Blank	Neutral	True
15.907	1.45	Control	1.0	n/a	Yes	2.941	n/a	5.0	GoodResponse	0	0.02	14.927	0	0	Feedback	Neutral	True
17.356	2.941	Control	1.0	n/a	Yes	2.941	n/a	n/a	GoodResponse	0	0.0	n/a	0	0	ISIslide	Neutral	True
20.322	0.25	Lose2	1.0	0.0	Yes	2.778	0.022	n/a	GoodResponse	0	n/a	n/a	0	1	Cue	AvoidedLoss	True
20.572	4.0	Lose2	1.0	0.0	Yes	2.778	0.0	n/a	GoodResponse	0	n/a	n/a	0	1	Fixation	AvoidedLoss	True
24.57	0.39	Lose2	1.0	0.002	Yes	2.778	-0.002	3.0	GoodResponse	0	0.265	23.835	0	1	Target	AvoidedLoss	True
24.835	0.3	Lose2	1.0	0.002	Yes	2.778	-0.002	3.0	GoodResponse	0	0.265	n/a	0	1	ButtonPress	AvoidedLoss	True
24.97	0.31	Lose2	1.0	n/a	Yes	2.778	n/a	n/a	GoodResponse	0	n/a	n/a	0	1	Blank	AvoidedLoss	True
25.27	1.45	Lose2	1.0	n/a	Yes	2.778	n/a	5.0	GoodResponse	0	0.022	24.292	0	1	Feedback	AvoidedLoss	True
26.72	2.778	Lose2	1.0	n/a	Yes	2.778	n/a	n/a	GoodResponse	0	0.0	n/a	0	1	ISIslide	AvoidedLoss	True
29.519	0.25	Control	1.0	0.0	Yes	2.581	0.019	n/a	GoodResponse	0	n/a	n/a	0	2	Cue	Neutral	True
29.769	4.1	Control	1.0	0.0	Yes	2.581	0.0	n/a	GoodResponse	0	n/a	n/a	0	2	Fixation	Neutral	True
33.867	0.38	Control	1.0	0.002	Yes	2.581	-0.002	3.0	GoodResponse	0	0.318	33.185	0	2	Target	Neutral	True
34.185	0.3	Control	1.0	0.002	Yes	2.581	-0.002	3.0	GoodResponse	0	0.318	n/a	0	2	ButtonPress	Neutral	True
34.25	0.32	Control	1.0	n/a	Yes	2.581	n/a	n/a	GoodResponse	0	n/a	n/a	0	2	Blank	Neutral	True
34.567	1.45	Control	1.0	n/a	Yes	2.581	n/a	5.0	GoodResponse	0	0.042	33.609	0	2	Feedback	Neutral	True
36.016	2.581	Control	1.0	n/a	Yes	2.581	n/a	n/a	GoodResponse	0	0.0	n/a	0	2	ISIslide	Neutral	True
38.615	0.25	Win2	1.0	0.001	Yes	2.835	0.015	n/a	GoodResponse	1	n/a	n/a	1	3	Cue	Win	True
38.865	3.95	Win2	1.0	0.0	Yes	2.835	0.0	n/a	GoodResponse	1	n/a	n/a	1	3	Fixation	Win	True
42.814	0.37	Win2	1.0	0.001	Yes	2.835	-0.001	3.0	GoodResponse	1	0.223	42.037	1	3	Target	Win	True
43.037	0.3	Win2	1.0	0.001	Yes	2.835	-0.001	3.0	GoodResponse	1	0.223	n/a	1	3	ButtonPress	Win	True
43.181	0.33	Win2	1.0	n/a	Yes	2.835	n/a	n/a	GoodResponse	1	n/a	n/a	1	3	Blank	Win	True
43.514	1.45	Win2	1.0	n/a	Yes	2.835	n/a	5.0	GoodResponse	1	0.022	42.536	1	3	Feedback	Win	True
44.963	2.835	Win2	1.0	n/a	Yes	2.835	n/a	n/a	GoodResponse	1	0.0	n/a	1	3	ISIslide	Win	True
47.812	0.25	Win2	1.0	0.0	Yes	3.288	0.012	n/a	GoodResponse	1	n/a	n/a	2	4	Cue	Win	True
48.062	4.0	Win2	1.0	0.0	Yes	3.288	0.0	n/a	GoodResponse	1	n/a	n/a	2	4	Fixation	Win	True
52.061	0.36	Win2	1.0	0.001	Yes	3.288	-0.001	3.0	GoodResponse	1	0.204	51.265	2	4	Target	Win	True
52.265	0.3	Win2	1.0	0.001	Yes	3.288	-0.001	3.0	GoodResponse	1	0.204	n/a	2	4	ButtonPress	Win	True
52.427	0.34	Win2	1.0	n/a	Yes	3.288	n/a	n/a	GoodResponse	1	n/a	n/a	2	4	Blank	Win	True
52.76	1.45	Win2	1.0	n/a	Yes	3.288	n/a	5.0	GoodResponse	1	0.045	51.805	2	4	Feedback	Win	True
54.21	3.288	Win2	1.0	n/a	Yes	3.288	n/a	n/a	GoodResponse	1	0.0	n/a	2	4	ISIslide	Win	True
57.525	0.25	Win2	1.0	0.001	Yes	2.775	0.025	n/a	GoodResponse	1	n/a	n/a	3	5	Cue	Win	True
57.775	4.0	Win2	1.0	0.0	Yes	2.775	0.0	n/a	GoodResponse	1	n/a	n/a	3	5	Fixation	Win	True
61.774	0.35	Win2	1.0	0.001	Yes	2.775	-0.001	3.0	GoodResponse	1	0.258	61.032	3	5	Target	Win	True
62.032	0.3	Win2	1.0	0.001	Yes	2.775	-0.001	3.0	GoodResponse	1	0.258	n/a	3	5	ButtonPress	Win	True
62.124	0.35	Win2	1.0	n/a	Yes	2.775	n/a	n/a	GoodResponse	1	n/a	n/a	3	5	Blank	Win	True
62.474	1.45	Win2	1.0	n/a	Yes	2.775	n/a	5.0	GoodResponse	1	0.037	61.511	3	5	Feedback	Win	True
63.923	2.775	Win2	1.0	n/a	Yes	2.775	n/a	n/a	GoodResponse	1	0.0	n/a	3	5	ISIslide	Win	True
66.722	0.25	Lose2	1.0	0.0	Yes	2.728	0.022	n/a	GoodResponse	0	n/a	n/a	3	6	Cue	AvoidedLoss	True
66.972	3.95	Lose2	1.0	0.0	Yes	2.728	0.0	n/a	GoodResponse	0	n/a	n/a	3	6	Fixation	AvoidedLoss	True
70.921	0.34	Lose2	1.0	0.001	Yes	2.728	-0.001	3.0	GoodResponse	0	0.228	70.149	3	6	Target	AvoidedLoss	True
71.149	0.3	Lose2	1.0	0.001	Yes	2.728	-0.001	3.0	GoodResponse	0	0.228	n/a	3	6	ButtonPress	AvoidedLoss	True
71.271	0.36	Lose2	1.0	n/a	Yes	2.728	n/a	n/a	GoodResponse	0	n/a	n/a	3	6	Blank	AvoidedLoss	True
71.62	1.45	Lose2	1.0	n/a	Yes	2.728	n/a	5.0	GoodResponse	0	0.013	70.633	3	6	Feedback	AvoidedLoss	True
73.07	2.728	Lose2	1.0	n/a	Yes	2.728	n/a	n/a	GoodResponse	0	0.0	n/a	3	6	ISIslide	AvoidedLoss	True
75.819	0.25	Lose2	1.0	0.0	Yes	4.031	0.019	n/a	GoodResponse	0	n/a	n/a	3	7	Cue	AvoidedLoss	True
76.069	4.05	Lose2	1.0	0.0	Yes	4.031	0.0	n/a	GoodResponse	0	n/a	n/a	3	7	Fixation	AvoidedLoss	True
80.117	0.33	Lose2	1.0	0.002	Yes	4.031	-0.002	3.0	GoodResponse	0	0.212	79.329	3	7	Target	AvoidedLoss	True
80.329	0.3	Lose2	1.0	0.002	Yes	4.031	-0.002	3.0	GoodResponse	0	0.212	n/a	3	7	ButtonPress	AvoidedLoss	True
80.451	0.37	Lose2	1.0	n/a	Yes	4.031	n/a	n/a	GoodResponse	0	n/a	n/a	3	7	Blank	AvoidedLoss	True
80.817	1.45	Lose2	1.0	n/a	Yes	4.031	n/a	5.0	GoodResponse	0	0.036	79.853	3	7	Feedback	AvoidedLoss	True
82.267	4.031	Lose2	1.0	n/a	Yes	4.031	n/a	n/a	GoodResponse	0	0.0	n/a	3	7	ISIslide	AvoidedLoss	True
86.315	0.25	Lose2	1.0	0.0	Yes	3.035	0.015	n/a	GoodResponse	0	n/a	n/a	3	8	Cue	AvoidedLoss	True
86.565	3.95	Lose2	1.0	0.0	Yes	3.035	0.0	n/a	GoodResponse	0	n/a	n/a	3	8	Fixation	AvoidedLoss	True
90.514	0.32	Lose2	1.0	0.001	Yes	3.035	-0.001	3.0	GoodResponse	0	0.199	89.713	3	8	Target	AvoidedLoss	True
90.713	0.3	Lose2	1.0	0.001	Yes	3.035	-0.001	3.0	GoodResponse	0	0.199	n/a	3	8	ButtonPress	AvoidedLoss	True
90.847	0.38	Lose2	1.0	n/a	Yes	3.035	n/a	n/a	GoodResponse	0	n/a	n/a	3	8	Blank	AvoidedLoss	True
91.214	1.45	Lose2	1.0	n/a	Yes	3.035	n/a	5.0	GoodResponse	0	0.029	90.243	3	8	Feedback	AvoidedLoss	True
92.663	3.035	Lose2	1.0	n/a	Yes	3.035	n/a	n/a	GoodResponse	0	0.0	n/a	3	8	ISIslide	AvoidedLoss	True
95.729	0.25	Lose2	0.9	0.0	No	3.121	0.029	n/a	NoResponse	-1	n/a	n/a	2	9	Cue	Loss	True
95.978	3.95	Lose2	0.9	0.001	No	3.121	-0.001	n/a	NoResponse	-1	n/a	n/a	2	9	Fixation	Loss	True
99.927	0.31	Lose2	0.9	0.002	No	3.121	-0.002	3.0	NoResponse	-1	0.454	99.381	2	9	Target	Loss	True
100.244	0.39	Lose2	0.9	n/a	No	3.121	n/a	n/a	NoResponse	-1	n/a	n/a	2	9	Blank	Loss	True
100.381	0.3	Lose2	0.9	0.002	No	3.121	-0.002	3.0	NoResponse	-1	0.454	n/a	2	9	ButtonPress	Loss	True
100.627	1.45	Lose2	0.9	n/a	No	3.121	n/a	5.0	NoResponse	-1	0.03	99.657	2	9	Feedback	Loss	True
102.076	3.121	Lose2	0.9	n/a	No	3.121	n/a	n/a	NoResponse	-1	0.0	n/a	2	9	ISIslide	Loss	True
105.225	0.25	Control	0.8181999999999999	0.0	No	3.275	0.025	n/a	NoResponse	0	n/a	n/a	2	10	Cue	Neutral	True
105.475	4.0	Control	0.8181999999999999	0.0	No	3.275	0.0	3.0	NoResponse	0	3.701	108.176	2	10	Fixation	Neutral	True
109.176	0.3	Control	0.8181999999999999	0.0	No	3.275	0.0	3.0	NoResponse	0	3.701	n/a	2	10	ButtonPress	Neutral	True
109.474	0.3	Control	0.8181999999999999	0.001	No	3.275	-0.001	n/a	NoResponse	0	n/a	n/a	2	10	Target	Neutral	True
109.774	0.4	Control	0.8181999999999999	n/a	No	3.275	n/a	n/a	NoResponse	0	n/a	n/a	2	10	Blank	Neutral	True
110.173	1.45	Control	0.8181999999999999	n/a	No	3.275	n/a	5.0	NoResponse	0	0.045	109.218	2	10	Feedback	Neutral	True
111.623	3.275	Control	0.8181999999999999	n/a	No	3.275	n/a	n/a	NoResponse	0	0.0	n/a	2	10	ISIslide	Neutral	True
114.922	0.25	Lose2	0.75	0.0	No	2.728	0.022	n/a	NoResponse	-1	n/a	n/a	1	11	Cue	Loss	True
115.172	4.05	Lose2	0.75	0.0	No	2.728	0.0	3.0	NoResponse	-1	0.221	114.393	1	11	Fixation	Loss	True
115.393	0.3	Lose2	0.75	0.0	No	2.728	0.0	3.0	NoResponse	-1	0.221	n/a	1	11	ButtonPress	Loss	True
119.22	0.29	Lose2	0.75	0.002	No	2.728	-0.002	n/a	NoResponse	-1	n/a	n/a	1	11	Target	Loss	True
119.52	0.41	Lose2	0.75	n/a	No	2.728	n/a	n/a	NoResponse	-1	n/a	n/a	1	11	Blank	Loss	True
119.92	1.45	Lose2	0.75	n/a	No	2.728	n/a	5.0	NoResponse	-1	0.006	118.926	1	11	Feedback	Loss	True
121.369	2.728	Lose2	0.75	n/a	No	2.728	n/a	3.0	NoResponse	-1	0.152	n/a	1	11	ISIslide	Loss	True
124.102	0.25	Control	0.6923	0.0	No	2.998	0.002	n/a	NoResponse	0	n/a	n/a	1	12	Cue	Neutral	False
124.352	3.9	Control	0.6923	0.0	No	2.998	0.0	n/a	NoResponse	0	n/a	n/a	1	12	Fixation	Neutral	False
128.25	0.28	Control	0.6923	0.002	No	2.998	-0.002	n/a	NoResponse	0	n/a	n/a	1	12	Target	Neutral	False
128.534	0.42	Control	0.6923	n/a	No	2.998	n/a	n/a	NoResponse	0	n/a	n/a	1	12	Blank	Neutral	False
128.95	1.45	Control	0.6923	n/a	No	2.998	n/a	5.0	NoResponse	0	0.048	127.998	1	12	Feedback	Neutral	False
130.399	2.998	Control	0.6923	n/a	No	2.998	n/a	n/a	NoResponse	0	0.0	n/a	1	12	ISIslide	Neutral	False
133.415	0.25	Control	0.6429	0.0	No	2.785	0.015	n/a	NoResponse	0	n/a	n/a	1	13	Cue	Neutral	True
133.665	4.0	Control	0.6429	0.0	No	2.785	0.0	3.0	NoResponse	0	2.962	135.627	1	13	Fixation	Neutral	True
136.627	0.3	Control	0.6429	0.0	No	2.785	0.0	3.0	NoResponse	0	2.962	n/a	1	13	ButtonPress	Neutral	True
137.664	0.27	Control	0.6429	0.001	No	2.785	-0.001	n/a	NoResponse	0	n/a	n/a	1	13	Target	Neutral	True
137.947	0.43	Control	0.6429	n/a	No	2.785	n/a	n/a	NoResponse	0	n/a	n/a	1	13	Blank	Neutral	True
138.363	1.45	Control	0.6429	n/a	No	2.785	n/a	5.0	NoResponse	0	0.001	137.364	1	13	Feedback	Neutral	True
139.813	2.785	Control	0.6429	n/a	No	2.785	n/a	n/a	NoResponse	0	0.0	n/a	1	13	ISIslide	Neutral	True
142.628	0.25	Win2	0.6	0.001	No	2.672	0.028	n/a	NoResponse	0	n/a	n/a	1	14	Cue	MissedWin	True
142.878	4.1	Win2	0.6	0.001	No	2.672	0.0	3.0	NoResponse	0	2.2	144.078	1	14	Fixation	MissedWin	True
145.078	0.3	Win2	0.6	0.001	No	2.672	0.0	3.0	NoResponse	0	2.2	n/a	1	14	ButtonPress	MissedWin	True
146.977	0.28	Win2	0.6	0.001	No	2.672	-0.001	n/a	NoResponse	0	n/a	n/a	1	14	Target	MissedWin	True
147.26	0.42	Win2	0.6	n/a	No	2.672	n/a	n/a	NoResponse	0	n/a	n/a	1	14	Blank	MissedWin	True
147.677	1.45	Win2	0.6	n/a	No	2.672	n/a	5.0	NoResponse	0	0.005	146.682	1	14	Feedback	MissedWin	True
149.126	2.672	Win2	0.6	n/a	No	2.672	n/a	n/a	NoResponse	0	0.0	n/a	1	14	ISIslide	MissedWin	True
151.825	0.25	Control	0.5625	0.0	No	2.975	0.025	n/a	NoResponse	0	n/a	n/a	1	15	Cue	Neutral	True
152.075	4.0	Control	0.5625	0.0	No	2.975	0.0	3.0	NoResponse	0	3.839	154.914	1	15	Fixation	Neutral	True
155.914	0.3	Control	0.5625	0.0	No	2.975	0.0	3.0	NoResponse	0	3.839	n/a	1	15	ButtonPress	Neutral	True
156.074	0.29	Control	0.5625	0.001	No	2.975	-0.001	n/a	NoResponse	0	n/a	n/a	1	15	Target	Neutral	True
156.374	0.41	Control	0.5625	n/a	No	2.975	n/a	n/a	NoResponse	0	n/a	n/a	1	15	Blank	Neutral	True
156.773	1.45	Control	0.5625	n/a	No	2.975	n/a	5.0	NoResponse	0	0.03	155.803	1	15	Feedback	Neutral	True
158.223	2.975	Control	0.5625	n/a	No	2.975	n/a	n/a	NoResponse	0	0.0	n/a	1	15	ISIslide	Neutral	True
161.222	0.25	Win2	0.5882000000000001	0.0	Yes	2.878	0.022	n/a	GoodResponse	1	n/a	n/a	2	16	Cue	Win	True
161.472	4.0	Win2	0.5882000000000001	0.0	Yes	2.878	0.0	n/a	GoodResponse	1	n/a	n/a	2	16	Fixation	Win	True
165.47	0.3	Win2	0.5882000000000001	0.002	Yes	2.878	-0.002	3.0	GoodResponse	1	0.168	164.638	2	16	Target	Win	True
165.638	0.3	Win2	0.5882000000000001	0.002	Yes	2.878	-0.002	3.0	GoodResponse	1	0.168	n/a	2	16	ButtonPress	Win	True
165.77	0.4	Win2	0.5882000000000001	n/a	Yes	2.878	n/a	n/a	GoodResponse	1	n/a	n/a	2	16	Blank	Win	True
166.17	1.45	Win2	0.5882000000000001	n/a	Yes	2.878	n/a	5.0	GoodResponse	1	0.048	165.218	2	16	Feedback	Win	True
167.62	2.878	Win2	0.5882000000000001	n/a	Yes	2.878	n/a	n/a	GoodResponse	1	0.0	n/a	2	16	ISIslide	Win	True
170.519	0.25	Lose2	0.5556	0.0	No	2.731	0.019	n/a	NoResponse	-1	n/a	n/a	1	17	Cue	Loss	True
170.768	3.95	Lose2	0.5556	0.001	No	2.731	-0.001	3.0	NoResponse	-1	3.832	173.6	1	17	Fixation	Loss	True
174.6	0.3	Lose2	0.5556	0.001	No	2.731	-0.001	3.0	NoResponse	-1	3.832	n/a	1	17	ButtonPress	Loss	True
174.717	0.31	Lose2	0.5556	0.002	No	2.731	-0.002	n/a	NoResponse	-1	n/a	n/a	1	17	Target	Loss	True
175.034	0.39	Lose2	0.5556	n/a	No	2.731	n/a	n/a	NoResponse	-1	n/a	n/a	1	17	Blank	Loss	True
175.417	1.45	Lose2	0.5556	n/a	No	2.731	n/a	5.0	NoResponse	-1	0.019	174.436	1	17	Feedback	Loss	True
176.866	2.731	Lose2	0.5556	n/a	No	2.731	n/a	3.0	NoResponse	-1	0.836	n/a	1	17	ISIslide	Loss	True
179.599	0.25	Lose2	0.5263	0.0	No	2.751	-0.001	n/a	NoResponse	-1	n/a	n/a	0	18	Cue	Loss	True
179.849	4.05	Lose2	0.5263	0.0	No	2.751	0.0	3.0	NoResponse	-1	3.393	182.242	0	18	Fixation	Loss	True
183.242	0.3	Lose2	0.5263	0.0	No	2.751	0.0	3.0	NoResponse	-1	3.393	n/a	0	18	ButtonPress	Loss	True
183.897	0.32	Lose2	0.5263	0.002	No	2.751	-0.002	n/a	NoResponse	-1	n/a	n/a	0	18	Target	Loss	True
184.23	0.38	Lose2	0.5263	n/a	No	2.751	n/a	n/a	NoResponse	-1	n/a	n/a	0	18	Blank	Loss	True
184.597	1.45	Lose2	0.5263	n/a	No	2.751	n/a	5.0	NoResponse	-1	0.01	183.607	0	18	Feedback	Loss	True
186.046	2.751	Lose2	0.5263	n/a	No	2.751	n/a	n/a	NoResponse	-1	0.0	n/a	0	18	ISIslide	Loss	True
188.812	0.25	Control	0.55	0.0	Yes	2.938	0.012	n/a	GoodResponse	0	n/a	n/a	0	19	Cue	Neutral	True
189.062	3.95	Control	0.55	0.0	Yes	2.938	0.0	n/a	GoodResponse	0	n/a	n/a	0	19	Fixation	Neutral	True
193.011	0.33	Control	0.55	0.001	Yes	2.938	-0.001	3.0	GoodResponse	0	0.235	192.246	0	19	Target	Neutral	True
193.246	0.3	Control	0.55	0.001	Yes	2.938	-0.001	3.0	GoodResponse	0	0.235	n/a	0	19	ButtonPress	Neutral	True
193.344	0.37	Control	0.55	n/a	Yes	2.938	n/a	n/a	GoodResponse	0	n/a	n/a	0	19	Blank	Neutral	True
193.71	1.45	Control	0.55	n/a	Yes	2.938	n/a	5.0	GoodResponse	0	0.019	192.729	0	19	Feedback	Neutral	True
195.16	2.938	Control	0.55	n/a	Yes	2.938	n/a	n/a	GoodResponse	0	0.0	n/a	0	19	ISIslide	Neutral	True
198.125	0.25	Control	0.5714	0.001	Yes	2.625	0.025	n/a	GoodResponse	0	n/a	n/a	0	20	Cue	Neutral	True
198.375	4.05	Control	0.5714	0.0	Yes	2.625	0.0	n/a	GoodResponse	0	n/a	n/a	0	20	Fixation	Neutral	True
202.424	0.34	Control	0.5714	0.001	Yes	2.625	-0.001	3.0	GoodResponse	0	0.234	201.658	0	20	Target	Neutral	True
202.658	0.3	Control	0.5714	0.001	Yes	2.625	-0.001	3.0	GoodResponse	0	0.234	n/a	0	20	ButtonPress	Neutral	True
202.774	0.36	Control	0.5714	n/a	Yes	2.625	n/a	n/a	GoodResponse	0	n/a	n/a	0	20	Blank	Neutral	True
203.124	1.45	Control	0.5714	n/a	Yes	2.625	n/a	5.0	GoodResponse	0	0.02	202.144	0	20	Feedback	Neutral	True
204.573	2.625	Control	0.5714	n/a	Yes	2.625	n/a	n/a	GoodResponse	0	0.0	n/a	0	20	ISIslide	Neutral	True
207.222	0.25	Control	0.5909	0.0	Yes	2.778	0.022	n/a	GoodResponse	0	n/a	n/a	0	21	Cue	Neutral	True
207.472	4.1	Control	0.5909	0.0	Yes	2.778	0.0	n/a	GoodResponse	0	n/a	n/a	0	21	Fixation	Neutral	True
211.571	0.35	Control	0.5909	0.001	Yes	2.778	-0.001	3.0	GoodResponse	0	0.185	210.756	0	21	Target	Neutral	True
211.756	0.3	Control	0.5909	0.001	Yes	2.778	-0.001	3.0	GoodResponse	0	0.185	n/a	0	21	ButtonPress	Neutral	True
211.921	0.35	Control	0.5909	n/a	Yes	2.778	n/a	n/a	GoodResponse	0	n/a	n/a	0	21	Blank	Neutral	True
212.27	1.45	Control	0.5909	n/a	Yes	2.778	n/a	5.0	GoodResponse	0	0.044	211.314	0	21	Feedback	Neutral	True
213.72	2.778	Control	0.5909	n/a	Yes	2.778	n/a	n/a	GoodResponse	0	0.0	n/a	0	21	ISIslide	Neutral	True
216.519	0.25	Control	0.6087	0.0	Yes	2.781	0.019	n/a	GoodResponse	0	n/a	n/a	0	22	Cue	Neutral	True
216.769	4.0	Control	0.6087	0.0	Yes	2.781	0.0	n/a	GoodResponse	0	n/a	n/a	0	22	Fixation	Neutral	True
220.767	0.36	Control	0.6087	0.002	Yes	2.781	-0.002	3.0	GoodResponse	0	0.211	219.978	0	22	Target	Neutral	True
220.978	0.3	Control	0.6087	0.002	Yes	2.781	-0.002	3.0	GoodResponse	0	0.211	n/a	0	22	ButtonPress	Neutral	True
221.134	0.34	Control	0.6087	n/a	Yes	2.781	n/a	n/a	GoodResponse	0	n/a	n/a	0	22	Blank	Neutral	True
221.467	1.45	Control	0.6087	n/a	Yes	2.781	n/a	5.0	GoodResponse	0	0.018	220.485	0	22	Feedback	Neutral	True
222.917	2.781	Control	0.6087	n/a	Yes	2.781	n/a	n/a	GoodResponse	0	0.0	n/a	0	22	ISIslide	Neutral	True
225.716	0.25	Control	0.625	0.0	Yes	2.784	0.016	n/a	GoodResponse	0	n/a	n/a	0	23	Cue	Neutral	True
225.966	3.9	Control	0.625	0.0	Yes	2.784	0.0	n/a	GoodResponse	0	n/a	n/a	0	23	Fixation	Neutral	True
229.864	0.37	Control	0.625	0.002	Yes	2.784	-0.002	3.0	GoodResponse	0	0.197	229.061	0	23	Target	Neutral	True
230.061	0.3	Control	0.625	0.002	Yes	2.784	-0.002	3.0	GoodResponse	0	0.197	n/a	0	23	ButtonPress	Neutral	True
230.247	0.33	Control	0.625	n/a	Yes	2.784	n/a	n/a	GoodResponse	0	n/a	n/a	0	23	Blank	Neutral	True
230.564	1.45	Control	0.625	n/a	Yes	2.784	n/a	5.0	GoodResponse	0	0.043	229.607	0	23	Feedback	Neutral	True
232.013	2.784	Control	0.625	n/a	Yes	2.784	n/a	n/a	GoodResponse	0	0.0	n/a	0	23	ISIslide	Neutral	True
234.829	0.25	Win2	0.64	0.0	Yes	3.121	0.029	n/a	GoodResponse	1	n/a	n/a	1	24	Cue	Win	True
235.079	3.95	Win2	0.64	0.0	Yes	3.121	0.0	n/a	GoodResponse	1	n/a	n/a	1	24	Fixation	Win	True
239.028	0.38	Win2	0.64	0.001	Yes	3.121	-0.001	3.0	GoodResponse	1	0.175	238.203	1	24	Target	Win	True
239.203	0.3	Win2	0.64	0.001	Yes	3.121	-0.001	3.0	GoodResponse	1	0.175	n/a	1	24	ButtonPress	Win	True
239.411	0.32	Win2	0.64	n/a	Yes	3.121	n/a	n/a	GoodResponse	1	n/a	n/a	1	24	Blank	Win	True
239.727	1.45	Win2	0.64	n/a	Yes	3.121	n/a	5.0	GoodResponse	1	0.002	238.729	1	24	Feedback	Win	True
241.177	3.121	Win2	0.64	n/a	Yes	3.121	n/a	n/a	GoodResponse	1	0.0	n/a	1	24	ISIslide	Win	True
244.326	0.25	Win2	0.6537999999999999	0.0	Yes	3.074	0.026	n/a	GoodResponse	1	n/a	n/a	2	25	Cue	Win	True
244.576	4.0	Win2	0.6537999999999999	0.0	Yes	3.074	0.0	n/a	GoodResponse	1	n/a	n/a	2	25	Fixation	Win	True
248.574	0.39	Win2	0.6537999999999999	0.002	Yes	3.074	-0.002	3.0	GoodResponse	1	0.195	247.769	2	25	Target	Win	True
248.769	0.3	Win2	0.6537999999999999	0.002	Yes	3.074	-0.002	3.0	GoodResponse	1	0.195	n/a	2	25	ButtonPress	Win	True
248.974	0.31	Win2	0.6537999999999999	n/a	Yes	3.074	n/a	n/a	GoodResponse	1	n/a	n/a	2	25	Blank	Win	True
249.274	1.45	Win2	0.6537999999999999	n/a	Yes	3.074	n/a	5.0	GoodResponse	1	0.015	248.289	2	25	Feedback	Win	True
250.723	3.074	Win2	0.6537999999999999	n/a	Yes	3.074	n/a	n/a	GoodResponse	1	0.0	n/a	2	25	ISIslide	Win	True
253.822	0.25	Win2	0.6667000000000001	0.0	Yes	2.928	0.022	n/a	GoodResponse	1	n/a	n/a	3	26	Cue	Win	True
254.072	3.95	Win2	0.6667000000000001	0.0	Yes	2.928	0.0	n/a	GoodResponse	1	n/a	n/a	3	26	Fixation	Win	True
258.021	0.4	Win2	0.6667000000000001	0.001	Yes	2.928	-0.001	3.0	GoodResponse	1	0.184	257.205	3	26	Target	Win	True
258.205	0.3	Win2	0.6667000000000001	0.001	Yes	2.928	-0.001	3.0	GoodResponse	1	0.184	n/a	3	26	ButtonPress	Win	True
258.421	0.3	Win2	0.6667000000000001	n/a	Yes	2.928	n/a	n/a	GoodResponse	1	n/a	n/a	3	26	Blank	Win	True
258.721	1.45	Win2	0.6667000000000001	n/a	Yes	2.928	n/a	5.0	GoodResponse	1	0.032	257.753	3	26	Feedback	Win	True
260.17	2.928	Win2	0.6667000000000001	n/a	Yes	2.928	n/a	n/a	GoodResponse	1	0.0	n/a	3	26	ISIslide	Win	True
263.119	0.25	Lose2	0.6786	0.0	Yes	2.831	0.019	n/a	GoodResponse	0	n/a	n/a	3	27	Cue	AvoidedLoss	True
263.369	4.05	Lose2	0.6786	0.0	Yes	2.831	0.0	n/a	GoodResponse	0	n/a	n/a	3	27	Fixation	AvoidedLoss	True
267.417	0.39	Lose2	0.6786	0.002	Yes	2.831	-0.002	3.0	GoodResponse	0	0.208	266.625	3	27	Target	AvoidedLoss	True
267.625	0.3	Lose2	0.6786	0.002	Yes	2.831	-0.002	3.0	GoodResponse	0	0.208	n/a	3	27	ButtonPress	AvoidedLoss	True
267.817	0.31	Lose2	0.6786	n/a	Yes	2.831	n/a	n/a	GoodResponse	0	n/a	n/a	3	27	Blank	AvoidedLoss	True
268.117	1.45	Lose2	0.6786	n/a	Yes	2.831	n/a	5.0	GoodResponse	0	0.002	267.119	3	27	Feedback	AvoidedLoss	True
269.567	2.831	Lose2	0.6786	n/a	Yes	2.831	n/a	n/a	GoodResponse	0	0.0	n/a	3	27	ISIslide	AvoidedLoss	True
272.416	0.25	Control	0.6897	0.0	Yes	2.834	0.016	n/a	GoodResponse	0	n/a	n/a	3	28	Cue	Neutral	True
272.666	4.05	Control	0.6897	0.0	Yes	2.834	0.0	n/a	GoodResponse	0	n/a	n/a	3	28	Fixation	Neutral	True
276.714	0.38	Control	0.6897	0.002	Yes	2.834	-0.002	3.0	GoodResponse	0	0.187	275.901	3	28	Target	Neutral	True
276.901	0.3	Control	0.6897	0.002	Yes	2.834	-0.002	3.0	GoodResponse	0	0.187	n/a	3	28	ButtonPress	Neutral	True
277.097	0.32	Control	0.6897	n/a	Yes	2.834	n/a	n/a	GoodResponse	0	n/a	n/a	3	28	Blank	Neutral	True
277.414	1.45	Control	0.6897	n/a	Yes	2.834	n/a	5.0	GoodResponse	0	0.022	276.436	3	28	Feedback	Neutral	True
278.863	2.834	Control	0.6897	n/a	Yes	2.834	n/a	n/a	GoodResponse	0	0.0	n/a	3	28	ISIslide	Neutral	True
281.712	0.25	Lose2	0.7	0.0	Yes	2.838	0.012	n/a	GoodResponse	0	n/a	n/a	3	29	Cue	AvoidedLoss	True
281.962	3.95	Lose2	0.7	0.0	Yes	2.838	0.0	n/a	GoodResponse	0	n/a	n/a	3	29	Fixation	AvoidedLoss	True
285.911	0.37	Lose2	0.7	0.001	Yes	2.838	-0.001	3.0	GoodResponse	0	0.188	285.099	3	29	Target	AvoidedLoss	True
286.099	0.3	Lose2	0.7	0.001	Yes	2.838	-0.001	3.0	GoodResponse	0	0.188	n/a	3	29	ButtonPress	AvoidedLoss	True
286.277	0.33	Lose2	0.7	n/a	Yes	2.838	n/a	n/a	GoodResponse	0	n/a	n/a	3	29	Blank	AvoidedLoss	True
286.611	1.45	Lose2	0.7	n/a	Yes	2.838	n/a	5.0	GoodResponse	0	0.043	285.654	3	29	Feedback	AvoidedLoss	True
288.06	2.838	Lose2	0.7	n/a	Yes	2.838	n/a	n/a	GoodResponse	0	0.0	n/a	3	29	ISIslide	AvoidedLoss	True
290.926	0.25	Win2	0.7097	0.0	Yes	2.774	0.026	n/a	GoodResponse	1	n/a	n/a	4	30	Cue	Win	True
291.176	3.9	Win2	0.7097	0.0	Yes	2.774	0.0	n/a	GoodResponse	1	n/a	n/a	4	30	Fixation	Win	True
295.074	0.36	Win2	0.7097	0.002	Yes	2.774	-0.002	3.0	GoodResponse	1	0.209	294.283	4	30	Target	Win	True
295.283	0.3	Win2	0.7097	0.002	Yes	2.774	-0.002	3.0	GoodResponse	1	0.209	n/a	4	30	ButtonPress	Win	True
295.441	0.34	Win2	0.7097	n/a	Yes	2.774	n/a	n/a	GoodResponse	1	n/a	n/a	4	30	Blank	Win	True
295.774	1.45	Win2	0.7097	n/a	Yes	2.774	n/a	5.0	GoodResponse	1	0.005	294.779	4	30	Feedback	Win	True
297.224	2.774	Win2	0.7097	n/a	Yes	2.774	n/a	n/a	GoodResponse	1	0.0	n/a	4	30	ISIslide	Win	True
300.022	0.25	Lose2	0.7188	0.001	Yes	2.828	0.022	n/a	GoodResponse	0	n/a	n/a	4	31	Cue	AvoidedLoss	True
300.272	4.05	Lose2	0.7188	0.0	Yes	2.828	0.0	n/a	GoodResponse	0	n/a	n/a	4	31	Fixation	AvoidedLoss	True
304.321	0.35	Lose2	0.7188	0.001	Yes	2.828	-0.001	3.0	GoodResponse	0	0.219	303.54	4	31	Target	AvoidedLoss	True
304.54	0.3	Lose2	0.7188	0.001	Yes	2.828	-0.001	3.0	GoodResponse	0	0.219	n/a	4	31	ButtonPress	AvoidedLoss	True
304.671	0.35	Lose2	0.7188	n/a	Yes	2.828	n/a	n/a	GoodResponse	0	n/a	n/a	4	31	Blank	AvoidedLoss	True
305.021	1.45	Lose2	0.7188	n/a	Yes	2.828	n/a	5.0	GoodResponse	0	0.024	304.045	4	31	Feedback	AvoidedLoss	True
306.47	2.828	Lose2	0.7188	n/a	Yes	2.828	n/a	n/a	GoodResponse	0	0.0	n/a	4	31	ISIslide	AvoidedLoss	True
309.319	0.25	Lose2	0.7273000000000001	0.0	Yes	2.631	0.019	n/a	GoodResponse	0	n/a	n/a	4	32	Cue	AvoidedLoss	True
309.569	4.15	Lose2	0.7273000000000001	0.0	Yes	2.631	0.0	n/a	GoodResponse	0	n/a	n/a	4	32	Fixation	AvoidedLoss	True
313.718	0.34	Lose2	0.7273000000000001	0.001	Yes	2.631	-0.001	3.0	GoodResponse	0	0.187	312.905	4	32	Target	AvoidedLoss	True
313.905	0.3	Lose2	0.7273000000000001	0.001	Yes	2.631	-0.001	3.0	GoodResponse	0	0.187	n/a	4	32	ButtonPress	AvoidedLoss	True
314.068	0.36	Lose2	0.7273000000000001	n/a	Yes	2.631	n/a	n/a	GoodResponse	0	n/a	n/a	4	32	Blank	AvoidedLoss	True
314.417	1.45	Lose2	0.7273000000000001	n/a	Yes	2.631	n/a	5.0	GoodResponse	0	0.043	313.46	4	32	Feedback	AvoidedLoss	True
315.867	2.631	Lose2	0.7273000000000001	n/a	Yes	2.631	n/a	n/a	GoodResponse	0	0.0	n/a	4	32	ISIslide	AvoidedLoss	True
318.516	0.25	Win2	0.7353000000000001	0.0	Yes	2.684	0.016	n/a	GoodResponse	1	n/a	n/a	5	33	Cue	Win	True
318.766	4.0	Win2	0.7353000000000001	0.0	Yes	2.684	0.0	n/a	GoodResponse	1	n/a	n/a	5	33	Fixation	Win	True
322.764	0.33	Win2	0.7353000000000001	0.002	Yes	2.684	-0.002	3.0	GoodResponse	1	0.224	321.988	5	33	Target	Win	True
322.988	0.3	Win2	0.7353000000000001	0.002	Yes	2.684	-0.002	3.0	GoodResponse	1	0.224	n/a	5	33	ButtonPress	Win	True
323.098	0.37	Win2	0.7353000000000001	n/a	Yes	2.684	n/a	n/a	GoodResponse	1	n/a	n/a	5	33	Blank	Win	True
323.464	1.45	Win2	0.7353000000000001	n/a	Yes	2.684	n/a	5.0	GoodResponse	1	0.019	322.483	5	33	Feedback	Win	True
324.914	2.684	Win2	0.7353000000000001	n/a	Yes	2.684	n/a	n/a	GoodResponse	1	0.0	n/a	5	33	ISIslide	Win	True
327.613	0.25	Lose2	0.7429000000000001	0.0	Yes	2.637	0.013	n/a	GoodResponse	0	n/a	n/a	5	34	Cue	AvoidedLoss	True
327.863	4.05	Lose2	0.7429000000000001	0.0	Yes	2.637	0.0	n/a	GoodResponse	0	n/a	n/a	5	34	Fixation	AvoidedLoss	True
331.911	0.32	Lose2	0.7429000000000001	0.002	Yes	2.637	-0.002	3.0	GoodResponse	0	0.188	331.099	5	34	Target	AvoidedLoss	True
332.099	0.3	Lose2	0.7429000000000001	0.002	Yes	2.637	-0.002	3.0	GoodResponse	0	0.188	n/a	5	34	ButtonPress	AvoidedLoss	True
332.244	0.38	Lose2	0.7429000000000001	n/a	Yes	2.637	n/a	n/a	GoodResponse	0	n/a	n/a	5	34	Blank	AvoidedLoss	True
332.611	1.45	Lose2	0.7429000000000001	n/a	Yes	2.637	n/a	5.0	GoodResponse	0	0.043	331.654	5	34	Feedback	AvoidedLoss	True
334.06	2.637	Lose2	0.7429000000000001	n/a	Yes	2.637	n/a	n/a	GoodResponse	0	0.0	n/a	5	34	ISIslide	AvoidedLoss	True
336.726	0.25	Lose2	0.75	0.0	Yes	2.674	0.026	n/a	GoodResponse	0	n/a	n/a	5	35	Cue	AvoidedLoss	True
336.976	4.0	Lose2	0.75	0.0	Yes	2.674	0.0	n/a	GoodResponse	0	n/a	n/a	5	35	Fixation	AvoidedLoss	True
340.975	0.31	Lose2	0.75	0.001	Yes	2.674	-0.001	3.0	GoodResponse	0	0.223	340.198	5	35	Target	AvoidedLoss	True
341.198	0.3	Lose2	0.75	0.001	Yes	2.674	-0.001	3.0	GoodResponse	0	0.223	n/a	5	35	ButtonPress	AvoidedLoss	True
341.291	0.39	Lose2	0.75	n/a	Yes	2.674	n/a	n/a	GoodResponse	0	n/a	n/a	5	35	Blank	AvoidedLoss	True
341.674	1.45	Lose2	0.75	n/a	Yes	2.674	n/a	5.0	GoodResponse	0	0.005	340.679	5	35	Feedback	AvoidedLoss	True
343.124	2.674	Lose2	0.75	n/a	Yes	2.674	n/a	n/a	GoodResponse	0	0.0	n/a	5	35	ISIslide	AvoidedLoss	True
345.823	0.25	Control	0.7568	0.0	Yes	2.677	0.023	n/a	GoodResponse	0	n/a	n/a	5	36	Cue	Neutral	True
346.073	4.0	Control	0.7568	0.0	Yes	2.677	0.0	n/a	GoodResponse	0	n/a	n/a	5	36	Fixation	Neutral	True
350.071	0.3	Control	0.7568	0.002	Yes	2.677	-0.002	3.0	GoodResponse	0	0.119	349.19	5	36	Target	Neutral	True
350.19	0.3	Control	0.7568	0.002	Yes	2.677	-0.002	3.0	GoodResponse	0	0.119	n/a	5	36	ButtonPress	Neutral	True
350.371	0.4	Control	0.7568	n/a	Yes	2.677	n/a	n/a	GoodResponse	0	n/a	n/a	5	36	Blank	Neutral	True
350.771	1.45	Control	0.7568	n/a	Yes	2.677	n/a	5.0	GoodResponse	0	0.03	349.801	5	36	Feedback	Neutral	True
352.221	2.677	Control	0.7568	n/a	Yes	2.677	n/a	n/a	GoodResponse	0	0.0	n/a	5	36	ISIslide	Neutral	True
354.92	0.25	Win2	0.7631999999999999	0.0	Yes	2.88	0.02	n/a	GoodResponse	1	n/a	n/a	6	37	Cue	Win	True
355.17	4.0	Win2	0.7631999999999999	0.0	Yes	2.88	0.0	n/a	GoodResponse	1	n/a	n/a	6	37	Fixation	Win	True
359.168	0.29	Win2	0.7631999999999999	0.002	Yes	2.88	-0.002	3.0	GoodResponse	1	0.185	358.353	6	37	Target	Win	True
359.353	0.3	Win2	0.7631999999999999	0.002	Yes	2.88	-0.002	3.0	GoodResponse	1	0.185	n/a	6	37	ButtonPress	Win	True
359.468	0.41	Win2	0.7631999999999999	n/a	Yes	2.88	n/a	n/a	GoodResponse	1	n/a	n/a	6	37	Blank	Win	True
359.868	1.45	Win2	0.7631999999999999	n/a	Yes	2.88	n/a	5.0	GoodResponse	1	0.006	358.874	6	37	Feedback	Win	True
361.317	2.88	Win2	0.7631999999999999	n/a	Yes	2.88	n/a	n/a	GoodResponse	1	0.0	n/a	6	37	ISIslide	Win	True
364.216	0.25	Lose2	0.7692	0.0	Yes	2.834	0.016	n/a	GoodResponse	0	n/a	n/a	6	38	Cue	AvoidedLoss	True
364.466	3.95	Lose2	0.7692	0.0	Yes	2.834	0.0	n/a	GoodResponse	0	n/a	n/a	6	38	Fixation	AvoidedLoss	True
368.415	0.28	Lose2	0.7692	0.001	Yes	2.834	-0.001	3.0	GoodResponse	0	0.202	367.617	6	38	Target	AvoidedLoss	True
368.617	0.3	Lose2	0.7692	0.001	Yes	2.834	-0.001	3.0	GoodResponse	0	0.202	n/a	6	38	ButtonPress	AvoidedLoss	True
368.698	0.42	Lose2	0.7692	n/a	Yes	2.834	n/a	n/a	GoodResponse	0	n/a	n/a	6	38	Blank	AvoidedLoss	True
369.115	1.45	Lose2	0.7692	n/a	Yes	2.834	n/a	5.0	GoodResponse	0	0.026	368.141	6	38	Feedback	AvoidedLoss	True
370.564	2.834	Lose2	0.7692	n/a	Yes	2.834	n/a	n/a	GoodResponse	0	0.0	n/a	6	38	ISIslide	AvoidedLoss	True
373.43	0.25	Win2	0.775	0.0	Yes	2.97	0.03	n/a	GoodResponse	1	n/a	n/a	7	39	Cue	Win	True
373.68	4.1	Win2	0.775	0.0	Yes	2.97	0.0	n/a	GoodResponse	1	n/a	n/a	7	39	Fixation	Win	True
377.778	0.27	Win2	0.775	0.002	Yes	2.97	-0.002	3.0	GoodResponse	1	0.162	376.94	7	39	Target	Win	True
377.94	0.3	Win2	0.775	0.002	Yes	2.97	-0.002	3.0	GoodResponse	1	0.162	n/a	7	39	ButtonPress	Win	True
378.061	0.43	Win2	0.775	n/a	Yes	2.97	n/a	n/a	GoodResponse	1	n/a	n/a	7	39	Blank	Win	True
378.478	1.45	Win2	0.775	n/a	Yes	2.97	n/a	5.0	GoodResponse	1	0.029	377.507	7	39	Feedback	Win	True
379.927	2.97	Win2	0.775	n/a	Yes	2.97	n/a	n/a	GoodResponse	1	0.0	n/a	7	39	ISIslide	Win	True
382.926	0.25	Win2	0.7805	0.0	Yes	2.724	0.026	n/a	GoodResponse	1	n/a	n/a	8	40	Cue	Win	True
383.176	3.95	Win2	0.7805	0.0	Yes	2.724	0.0	n/a	GoodResponse	1	n/a	n/a	8	40	Fixation	Win	True
387.125	0.26	Win2	0.7805	0.001	Yes	2.724	-0.001	3.0	GoodResponse	1	0.202	386.327	8	40	Target	Win	True
387.327	0.3	Win2	0.7805	0.001	Yes	2.724	-0.001	3.0	GoodResponse	1	0.202	n/a	8	40	ButtonPress	Win	True
387.391	0.44	Win2	0.7805	n/a	Yes	2.724	n/a	n/a	GoodResponse	1	n/a	n/a	8	40	Blank	Win	True
387.825	1.45	Win2	0.7805	n/a	Yes	2.724	n/a	5.0	GoodResponse	1	0.0	386.825	8	40	Feedback	Win	True
389.274	2.724	Win2	0.7805	n/a	Yes	2.724	n/a	n/a	GoodResponse	1	0.0	n/a	8	40	ISIslide	Win	True
392.023	0.25	Win2	0.7857	0.0	Yes	2.777	0.023	n/a	GoodResponse	1	n/a	n/a	9	41	Cue	Win	True
392.273	3.9	Win2	0.7857	0.0	Yes	2.777	0.0	n/a	GoodResponse	1	n/a	n/a	9	41	Fixation	Win	True
396.172	0.25	Win2	0.7857	0.001	Yes	2.777	-0.001	3.0	GoodResponse	1	0.222	395.394	9	41	Target	Win	True
396.394	0.3	Win2	0.7857	0.001	Yes	2.777	-0.001	3.0	GoodResponse	1	0.222	n/a	9	41	ButtonPress	Win	True
396.422	0.45	Win2	0.7857	n/a	Yes	2.777	n/a	n/a	GoodResponse	1	n/a	n/a	9	41	Blank	Win	True
396.871	1.45	Win2	0.7857	n/a	Yes	2.777	n/a	5.0	GoodResponse	1	0.026	395.897	9	41	Feedback	Win	True
398.321	2.777	Win2	0.7857	n/a	Yes	2.777	n/a	n/a	GoodResponse	1	0.0	n/a	9	41	ISIslide	Win	True
401.12	0.25	Control	0.7674	0.0	No	2.93	0.02	n/a	NoResponse	0	n/a	n/a	9	42	Cue	Neutral	True
401.37	3.85	Control	0.7674	0.0	No	2.93	0.0	n/a	NoResponse	0	n/a	n/a	9	42	Fixation	Neutral	True
405.218	0.24	Control	0.7674	0.002	No	2.93	-0.002	3.0	NoResponse	0	0.324	404.542	9	42	Target	Neutral	True
405.468	0.46	Control	0.7674	n/a	No	2.93	n/a	n/a	NoResponse	0	n/a	n/a	9	42	Blank	Neutral	True
405.542	0.3	Control	0.7674	0.002	No	2.93	-0.002	3.0	NoResponse	0	0.324	n/a	9	42	ButtonPress	Neutral	True
405.918	1.45	Control	0.7674	n/a	No	2.93	n/a	5.0	NoResponse	0	0.007	404.925	9	42	Feedback	Neutral	True
407.368	2.93	Control	0.7674	n/a	No	2.93	n/a	n/a	NoResponse	0	0.0	n/a	9	42	ISIslide	Neutral	True
410.317	0.25	Win2	0.75	0.0	No	3.183	0.017	n/a	NoResponse	0	n/a	n/a	9	43	Cue	MissedWin	True
410.567	4.0	Win2	0.75	0.0	No	3.183	0.0	n/a	NoResponse	0	n/a	n/a	9	43	Fixation	MissedWin	True
414.565	0.23	Win2	0.75	0.002	No	3.183	-0.002	3.0	NoResponse	0	0.24	413.805	9	43	Target	MissedWin	True
414.798	0.47	Win2	0.75	n/a	No	3.183	n/a	n/a	NoResponse	0	n/a	n/a	9	43	Blank	MissedWin	True
414.805	0.3	Win2	0.75	0.002	No	3.183	-0.002	3.0	NoResponse	0	0.24	n/a	9	43	ButtonPress	MissedWin	True
415.265	1.45	Win2	0.75	n/a	No	3.183	n/a	5.0	NoResponse	0	0.022	414.287	9	43	Feedback	MissedWin	True
416.714	3.183	Win2	0.75	n/a	No	3.183	n/a	n/a	NoResponse	0	0.0	n/a	9	43	ISIslide	MissedWin	True
419.913	0.25	Win2	0.7333	0.0	No	2.987	0.013	n/a	LatePress	0	n/a	n/a	9	44	Cue	MissedWin	True
420.163	4.0	Win2	0.7333	0.0	No	2.987	0.0	n/a	LatePress	0	n/a	n/a	9	44	Fixation	MissedWin	True
424.162	0.22	Win2	0.7333	0.001	No	2.987	-0.001	3.0	LatePress	0	0.222	423.384	9	44	Target	MissedWin	True
424.384	0.3	Win2	0.7333	0.001	No	2.987	-0.001	3.0	LatePress	0	0.222	n/a	9	44	ButtonPress	MissedWin	True
424.395	0.48	Win2	0.7333	n/a	No	2.987	n/a	n/a	LatePress	0	n/a	n/a	9	44	Blank	MissedWin	True
424.861	1.45	Win2	0.7333	n/a	No	2.987	n/a	5.0	LatePress	0	0.036	423.897	9	44	Feedback	MissedWin	True
426.311	2.987	Win2	0.7333	n/a	No	2.987	n/a	n/a	LatePress	0	0.0	n/a	9	44	ISIslide	MissedWin	True
429.327	0.25	Control	0.7173999999999999	0.0	No	2.873	0.027	n/a	LatePress	0	n/a	n/a	9	45	Cue	Neutral	True
429.576	4.1	Control	0.7173999999999999	0.001	No	2.873	-0.001	n/a	LatePress	0	n/a	n/a	9	45	Fixation	Neutral	True
433.675	0.21	Control	0.7173999999999999	0.002	No	2.873	-0.002	3.0	LatePress	0	0.214	432.889	9	45	Target	Neutral	True
433.889	0.3	Control	0.7173999999999999	0.002	No	2.873	-0.002	3.0	LatePress	0	0.214	n/a	9	45	ButtonPress	Neutral	True
433.892	0.49	Control	0.7173999999999999	n/a	No	2.873	n/a	n/a	LatePress	0	n/a	n/a	9	45	Blank	Neutral	True
434.375	1.45	Control	0.7173999999999999	n/a	No	2.873	n/a	5.0	LatePress	0	0.033	433.408	9	45	Feedback	Neutral	True
435.824	2.873	Control	0.7173999999999999	n/a	No	2.873	n/a	n/a	LatePress	0	0.0	n/a	9	45	ISIslide	Neutral	True
438.723	0.25	Lose2	0.7021	0.0	No	3.377	0.023	n/a	NoResponse	-1	n/a	n/a	8	46	Cue	Loss	True
438.973	4.0	Lose2	0.7021	0.0	No	3.377	0.0	n/a	NoResponse	-1	n/a	n/a	8	46	Fixation	Loss	True
442.972	0.2	Lose2	0.7021	0.001	No	3.377	-0.001	3.0	NoResponse	-1	0.208	442.18	8	46	Target	Loss	True
443.172	0.5	Lose2	0.7021	n/a	No	3.377	n/a	n/a	NoResponse	-1	n/a	n/a	8	46	Blank	Loss	True
443.18	0.3	Lose2	0.7021	0.001	No	3.377	-0.001	3.0	NoResponse	-1	0.208	n/a	8	46	ButtonPress	Loss	True
443.671	1.45	Lose2	0.7021	n/a	No	3.377	n/a	5.0	NoResponse	-1	0.008	442.679	8	46	Feedback	Loss	True
445.121	3.377	Lose2	0.7021	n/a	No	3.377	n/a	n/a	NoResponse	-1	0.0	n/a	8	46	ISIslide	Loss	True
448.52	0.25	Lose2	0.6875	0.0	No	2.68	0.02	n/a	NoResponse	-1	n/a	n/a	7	47	Cue	Loss	True
448.77	4.0	Lose2	0.6875	0.0	No	2.68	0.0	3.0	NoResponse	-1	3.977	451.747	7	47	Fixation	Loss	True
452.747	0.3	Lose2	0.6875	0.0	No	2.68	0.0	3.0	NoResponse	-1	3.977	n/a	7	47	ButtonPress	Loss	True
452.768	0.19	Lose2	0.6875	0.002	No	2.68	-0.002	n/a	NoResponse	-1	n/a	n/a	7	47	Target	Loss	True
452.968	0.51	Lose2	0.6875	n/a	No	2.68	n/a	n/a	NoResponse	-1	n/a	n/a	7	47	Blank	Loss	True
453.468	1.45	Lose2	0.6875	n/a	No	2.68	n/a	5.0	NoResponse	-1	0.014	452.482	7	47	Feedback	Loss	True
454.917	2.68	Lose2	0.6875	n/a	No	2.68	n/a	n/a	NoResponse	-1	0.0	n/a	7	47	ISIslide	Loss	True
457.616	0.25	Lose2	0.6735	0.001	No	3.034	0.016	n/a	NoResponse	-1	n/a	n/a	6	48	Cue	Loss	True
457.866	3.95	Lose2	0.6735	0.0	No	3.034	0.0	n/a	NoResponse	-1	n/a	n/a	6	48	Fixation	Loss	True
461.815	0.18	Lose2	0.6735	0.001	No	3.034	-0.001	3.0	NoResponse	-1	0.225	461.04	6	48	Target	Loss	True
461.998	0.52	Lose2	0.6735	n/a	No	3.034	n/a	n/a	NoResponse	-1	n/a	n/a	6	48	Blank	Loss	True
462.04	0.3	Lose2	0.6735	0.001	No	3.034	-0.001	3.0	NoResponse	-1	0.225	n/a	6	48	ButtonPress	Loss	True
462.515	1.45	Lose2	0.6735	n/a	No	3.034	n/a	5.0	NoResponse	-1	0.04	461.555	6	48	Feedback	Loss	True
463.964	3.034	Lose2	0.6735	n/a	No	3.034	n/a	n/a	NoResponse	-1	0.0	n/a	6	48	ISIslide	Loss	True
467.013	0.25	Control	0.66	0.0	No	2.887	0.013	n/a	LatePress	0	n/a	n/a	6	49	Cue	Neutral	True
467.263	4.0	Control	0.66	0.0	No	2.887	0.0	n/a	LatePress	0	n/a	n/a	6	49	Fixation	Neutral	True
471.262	0.17	Control	0.66	0.001	No	2.887	-0.001	3.0	LatePress	0	0.178	470.44	6	49	Target	Neutral	True
471.44	0.3	Control	0.66	0.001	No	2.887	-0.001	3.0	LatePress	0	0.178	n/a	6	49	ButtonPress	Neutral	True
471.445	0.53	Control	0.66	n/a	No	2.887	n/a	n/a	LatePress	0	n/a	n/a	6	49	Blank	Neutral	True
471.961	1.45	Control	0.66	n/a	No	2.887	n/a	5.0	LatePress	0	0.008	470.969	6	49	Feedback	Neutral	True
473.411	2.887	Control	0.66	n/a	No	2.887	n/a	n/a	LatePress	0	0.0	n/a	6	49	ISIslide	Neutral	True
476.326	0.25	Control	0.6470999999999999	0.001	No	2.774	0.026	n/a	PrematurePress	0	n/a	n/a	6	50	Cue	Neutral	True
476.576	4.0	Control	0.6470999999999999	0.0	No	2.774	0.0	n/a	PrematurePress	0	n/a	n/a	6	50	Fixation	Neutral	True
480.575	0.17	Control	0.6470999999999999	0.001	No	2.774	-0.001	3.0	PrematurePress	0	0.084	479.659	6	50	Target	Neutral	True
480.659	0.3	Control	0.6470999999999999	0.001	No	2.774	-0.001	3.0	PrematurePress	0	0.084	n/a	6	50	ButtonPress	Neutral	True
480.742	0.53	Control	0.6470999999999999	n/a	No	2.774	n/a	n/a	PrematurePress	0	n/a	n/a	6	50	Blank	Neutral	True
481.275	1.45	Control	0.6470999999999999	n/a	No	2.774	n/a	5.0	PrematurePress	0	0.011	480.286	6	50	Feedback	Neutral	True
482.724	2.774	Control	0.6470999999999999	n/a	No	2.774	n/a	n/a	PrematurePress	0	0.0	n/a	6	50	ISIslide	Neutral	True
485.523	0.25	Control	0.6346	0.0	No	2.727	0.023	n/a	NoResponse	0	n/a	n/a	6	51	Cue	Neutral	True
485.773	3.95	Control	0.6346	0.0	No	2.727	0.0	n/a	NoResponse	0	n/a	n/a	6	51	Fixation	Neutral	True
489.722	0.18	Control	0.6346	0.001	No	2.727	-0.001	3.0	NoResponse	0	0.197	488.919	6	51	Target	Neutral	True
489.905	0.52	Control	0.6346	n/a	No	2.727	n/a	n/a	NoResponse	0	n/a	n/a	6	51	Blank	Neutral	True
489.919	0.3	Control	0.6346	0.001	No	2.727	-0.001	3.0	NoResponse	0	0.197	n/a	6	51	ButtonPress	Neutral	True
490.421	1.45	Control	0.6346	n/a	No	2.727	n/a	5.0	NoResponse	0	0.036	489.457	6	51	Feedback	Neutral	True
491.871	2.727	Control	0.6346	n/a	No	2.727	n/a	n/a	NoResponse	0	0.0	n/a	6	51	ISIslide	Neutral	True
494.62	0.25	Control	0.6225999999999999	0.0	No	2.63	0.02	n/a	NoResponse	0	n/a	n/a	6	52	Cue	Neutral	True
494.87	4.05	Control	0.6225999999999999	0.0	No	2.63	0.0	3.0	NoResponse	0	3.987	497.857	6	52	Fixation	Neutral	True
498.857	0.3	Control	0.6225999999999999	0.0	No	2.63	0.0	3.0	NoResponse	0	3.987	n/a	6	52	ButtonPress	Neutral	True
498.918	0.19	Control	0.6225999999999999	0.002	No	2.63	-0.002	n/a	NoResponse	0	n/a	n/a	6	52	Target	Neutral	True
499.118	0.51	Control	0.6225999999999999	n/a	No	2.63	n/a	n/a	NoResponse	0	n/a	n/a	6	52	Blank	Neutral	True
499.618	1.45	Control	0.6225999999999999	n/a	No	2.63	n/a	5.0	NoResponse	0	0.01	498.628	6	52	Feedback	Neutral	True
501.068	2.63	Control	0.6225999999999999	n/a	No	2.63	n/a	n/a	NoResponse	0	0.0	n/a	6	52	ISIslide	Neutral	True
503.717	0.25	Win2	0.6111	0.0	No	2.933	0.017	n/a	NoResponse	0	n/a	n/a	6	53	Cue	MissedWin	True
503.967	4.05	Win2	0.6111	0.0	No	2.933	0.0	n/a	NoResponse	0	n/a	n/a	6	53	Fixation	MissedWin	True
508.015	0.2	Win2	0.6111	0.002	No	2.933	-0.002	3.0	NoResponse	0	0.225	507.24	6	53	Target	MissedWin	True
508.215	0.5	Win2	0.6111	n/a	No	2.933	n/a	n/a	NoResponse	0	n/a	n/a	6	53	Blank	MissedWin	True
508.24	0.3	Win2	0.6111	0.002	No	2.933	-0.002	3.0	NoResponse	0	0.225	n/a	6	53	ButtonPress	MissedWin	True
508.715	1.45	Win2	0.6111	n/a	No	2.933	n/a	5.0	NoResponse	0	0.034	507.749	6	53	Feedback	MissedWin	True
510.164	2.933	Win2	0.6111	n/a	No	2.933	n/a	n/a	NoResponse	0	0.0	n/a	6	53	ISIslide	MissedWin	True
513.113	0.25	Win2	0.6182	0.0	Yes	2.737	0.013	n/a	GoodResponse	1	n/a	n/a	7	54	Cue	Win	True
513.363	3.95	Win2	0.6182	0.0	Yes	2.737	0.0	n/a	GoodResponse	1	n/a	n/a	7	54	Fixation	Win	True
517.312	0.21	Win2	0.6182	0.001	Yes	2.737	-0.001	3.0	GoodResponse	1	0.201	516.513	7	54	Target	Win	True
517.513	0.3	Win2	0.6182	0.001	Yes	2.737	-0.001	3.0	GoodResponse	1	0.201	n/a	7	54	ButtonPress	Win	True
517.528	0.49	Win2	0.6182	n/a	Yes	2.737	n/a	n/a	GoodResponse	1	n/a	n/a	7	54	Blank	Win	True
518.012	1.45	Win2	0.6182	n/a	Yes	2.737	n/a	5.0	GoodResponse	1	0.006	517.018	7	54	Feedback	Win	True
519.461	2.737	Win2	0.6182	n/a	Yes	2.737	n/a	n/a	GoodResponse	1	0.0	n/a	7	54	ISIslide	Win	True
522.227	0.25	Control	0.625	0.0	Yes	3.023	0.027	n/a	GoodResponse	0	n/a	n/a	7	55	Cue	Neutral	True
522.477	3.95	Control	0.625	0.0	Yes	3.023	0.0	n/a	GoodResponse	0	n/a	n/a	7	55	Fixation	Neutral	True
526.425	0.22	Control	0.625	0.002	Yes	3.023	-0.002	3.0	GoodResponse	0	0.181	525.606	7	55	Target	Neutral	True
526.606	0.3	Control	0.625	0.002	Yes	3.023	-0.002	3.0	GoodResponse	0	0.181	n/a	7	55	ButtonPress	Neutral	True
526.659	0.48	Control	0.625	n/a	Yes	3.023	n/a	n/a	GoodResponse	0	n/a	n/a	7	55	Blank	Neutral	True
527.125	1.45	Control	0.625	n/a	Yes	3.023	n/a	5.0	GoodResponse	0	0.014	526.139	7	55	Feedback	Neutral	True
528.575	3.023	Control	0.625	n/a	Yes	3.023	n/a	n/a	GoodResponse	0	0.0	n/a	7	55	ISIslide	Neutral	True
531.623	0.25	Control	0.6315999999999999	0.001	Yes	2.827	0.023	n/a	GoodResponse	0	n/a	n/a	7	56	Cue	Neutral	True
531.873	3.95	Control	0.6315999999999999	0.0	Yes	2.827	0.0	n/a	GoodResponse	0	n/a	n/a	7	56	Fixation	Neutral	True
535.822	0.23	Control	0.6315999999999999	0.001	Yes	2.827	-0.001	3.0	GoodResponse	0	0.187	535.009	7	56	Target	Neutral	True
536.009	0.3	Control	0.6315999999999999	0.001	Yes	2.827	-0.001	3.0	GoodResponse	0	0.187	n/a	7	56	ButtonPress	Neutral	True
536.055	0.47	Control	0.6315999999999999	n/a	Yes	2.827	n/a	n/a	GoodResponse	0	n/a	n/a	7	56	Blank	Neutral	True
536.522	1.45	Control	0.6315999999999999	n/a	Yes	2.827	n/a	5.0	GoodResponse	0	0.032	535.554	7	56	Feedback	Neutral	True
537.971	2.827	Control	0.6315999999999999	n/a	Yes	2.827	n/a	n/a	GoodResponse	0	0.0	n/a	7	56	ISIslide	Neutral	True
540.82	0.25	Control	0.6379	0.0	Yes	3.48	0.02	n/a	GoodResponse	0	n/a	n/a	7	57	Cue	Neutral	True
541.07	4.0	Control	0.6379	0.0	Yes	3.48	0.0	n/a	GoodResponse	0	n/a	n/a	7	57	Fixation	Neutral	True
545.069	0.24	Control	0.6379	0.001	Yes	3.48	-0.001	3.0	GoodResponse	0	0.191	544.26	7	57	Target	Neutral	True
545.26	0.3	Control	0.6379	0.001	Yes	3.48	-0.001	3.0	GoodResponse	0	0.191	n/a	7	57	ButtonPress	Neutral	True
545.319	0.46	Control	0.6379	n/a	Yes	3.48	n/a	n/a	GoodResponse	0	n/a	n/a	7	57	Blank	Neutral	True
545.768	1.45	Control	0.6379	n/a	Yes	3.48	n/a	5.0	GoodResponse	0	0.007	544.775	7	57	Feedback	Neutral	True
547.218	3.48	Control	0.6379	n/a	Yes	3.48	n/a	n/a	GoodResponse	0	0.0	n/a	7	57	ISIslide	Neutral	True
550.717	0.25	Win2	0.6441	0.0	Yes	2.733	0.017	n/a	GoodResponse	1	n/a	n/a	8	58	Cue	Win	True
550.967	4.05	Win2	0.6441	0.0	Yes	2.733	0.0	n/a	GoodResponse	1	n/a	n/a	8	58	Fixation	Win	True
555.015	0.25	Win2	0.6441	0.002	Yes	2.733	-0.002	3.0	GoodResponse	1	0.14	554.155	8	58	Target	Win	True
555.155	0.3	Win2	0.6441	0.002	Yes	2.733	-0.002	3.0	GoodResponse	1	0.14	n/a	8	58	ButtonPress	Win	True
555.265	0.45	Win2	0.6441	n/a	Yes	2.733	n/a	n/a	GoodResponse	1	n/a	n/a	8	58	Blank	Win	True
555.715	1.45	Win2	0.6441	n/a	Yes	2.733	n/a	5.0	GoodResponse	1	0.009	554.724	8	58	Feedback	Win	True
557.164	2.733	Win2	0.6441	n/a	Yes	2.733	n/a	n/a	GoodResponse	1	0.0	n/a	8	58	ISIslide	Win	True
559.913	0.25	Lose2	0.65	0.0	Yes	2.687	0.013	n/a	GoodResponse	0	n/a	n/a	8	59	Cue	AvoidedLoss	True
560.163	4.0	Lose2	0.65	0.0	Yes	2.687	0.0	n/a	GoodResponse	0	n/a	n/a	8	59	Fixation	AvoidedLoss	True
564.162	0.26	Lose2	0.65	0.001	Yes	2.687	-0.001	3.0	GoodResponse	0	0.214	563.376	8	59	Target	AvoidedLoss	True
564.376	0.3	Lose2	0.65	0.001	Yes	2.687	-0.001	3.0	GoodResponse	0	0.214	n/a	8	59	ButtonPress	AvoidedLoss	True
564.428	0.44	Lose2	0.65	n/a	Yes	2.687	n/a	n/a	GoodResponse	0	n/a	n/a	8	59	Blank	AvoidedLoss	True
564.862	1.45	Lose2	0.65	n/a	Yes	2.687	n/a	5.0	GoodResponse	0	0.033	563.895	8	59	Feedback	AvoidedLoss	True
566.311	2.687	Lose2	0.65	n/a	Yes	2.687	n/a	n/a	GoodResponse	0	0.0	n/a	8	59	ISIslide	AvoidedLoss	True
569.027	0.25	Control	0.6557	0.0	Yes	2.673	0.027	n/a	GoodResponse	0	n/a	n/a	8	60	Cue	Neutral	True
569.277	4.0	Control	0.6557	0.0	Yes	2.673	0.0	n/a	GoodResponse	0	n/a	n/a	8	60	Fixation	Neutral	True
573.275	0.27	Control	0.6557	0.002	Yes	2.673	-0.002	3.0	GoodResponse	0	0.175	572.45	8	60	Target	Neutral	True
573.45	0.3	Control	0.6557	0.002	Yes	2.673	-0.002	3.0	GoodResponse	0	0.175	n/a	8	60	ButtonPress	Neutral	True
573.559	0.43	Control	0.6557	n/a	Yes	2.673	n/a	n/a	GoodResponse	0	n/a	n/a	8	60	Blank	Neutral	True
573.975	1.45	Control	0.6557	n/a	Yes	2.673	n/a	5.0	GoodResponse	0	0.042	573.017	8	60	Feedback	Neutral	True
575.425	2.673	Control	0.6557	n/a	Yes	2.673	n/a	n/a	GoodResponse	0	0.0	n/a	8	60	ISIslide	Neutral	True
578.124	0.25	Lose2	0.6613	0.0	Yes	2.976	0.024	n/a	GoodResponse	0	n/a	n/a	8	61	Cue	AvoidedLoss	True
578.373	4.0	Lose2	0.6613	0.001	Yes	2.976	-0.001	n/a	GoodResponse	0	n/a	n/a	8	61	Fixation	AvoidedLoss	True
582.372	0.27	Lose2	0.6613	0.002	Yes	2.976	-0.002	3.0	GoodResponse	0	0.202	581.574	8	61	Target	AvoidedLoss	True
582.574	0.3	Lose2	0.6613	0.002	Yes	2.976	-0.002	3.0	GoodResponse	0	0.202	n/a	8	61	ButtonPress	AvoidedLoss	True
582.655	0.43	Lose2	0.6613	n/a	Yes	2.976	n/a	n/a	GoodResponse	0	n/a	n/a	8	61	Blank	AvoidedLoss	True
583.072	1.45	Lose2	0.6613	n/a	Yes	2.976	n/a	5.0	GoodResponse	0	0.017	582.089	8	61	Feedback	AvoidedLoss	True
584.521	2.976	Lose2	0.6613	n/a	Yes	2.976	n/a	n/a	GoodResponse	0	0.0	n/a	8	61	ISIslide	AvoidedLoss	True
587.52	0.25	Lose2	0.6667000000000001	0.0	Yes	2.88	0.02	n/a	GoodResponse	0	n/a	n/a	8	62	Cue	AvoidedLoss	True
587.77	3.9	Lose2	0.6667000000000001	0.0	Yes	2.88	0.0	n/a	GoodResponse	0	n/a	n/a	8	62	Fixation	AvoidedLoss	True
591.669	0.27	Lose2	0.6667000000000001	0.001	Yes	2.88	-0.001	3.0	GoodResponse	0	0.245	590.914	8	62	Target	AvoidedLoss	True
591.914	0.3	Lose2	0.6667000000000001	0.001	Yes	2.88	-0.001	3.0	GoodResponse	0	0.245	n/a	8	62	ButtonPress	AvoidedLoss	True
591.952	0.43	Lose2	0.6667000000000001	n/a	Yes	2.88	n/a	n/a	GoodResponse	0	n/a	n/a	8	62	Blank	AvoidedLoss	True
592.369	1.45	Lose2	0.6667000000000001	n/a	Yes	2.88	n/a	5.0	GoodResponse	0	0.038	591.407	8	62	Feedback	AvoidedLoss	True
593.818	2.88	Lose2	0.6667000000000001	n/a	Yes	2.88	n/a	n/a	GoodResponse	0	0.0	n/a	8	62	ISIslide	AvoidedLoss	True
596.717	0.25	Lose2	0.6718999999999999	0.0	Yes	2.633	0.017	n/a	GoodResponse	0	n/a	n/a	8	63	Cue	AvoidedLoss	True
596.967	4.05	Lose2	0.6718999999999999	0.0	Yes	2.633	0.0	n/a	GoodResponse	0	n/a	n/a	8	63	Fixation	AvoidedLoss	True
601.015	0.26	Lose2	0.6718999999999999	0.002	Yes	2.633	-0.002	3.0	GoodResponse	0	0.192	600.207	8	63	Target	AvoidedLoss	True
601.207	0.3	Lose2	0.6718999999999999	0.002	Yes	2.633	-0.002	3.0	GoodResponse	0	0.192	n/a	8	63	ButtonPress	AvoidedLoss	True
601.282	0.44	Lose2	0.6718999999999999	n/a	Yes	2.633	n/a	n/a	GoodResponse	0	n/a	n/a	8	63	Blank	AvoidedLoss	True
601.715	1.45	Lose2	0.6718999999999999	n/a	Yes	2.633	n/a	5.0	GoodResponse	0	0.009	600.724	8	63	Feedback	AvoidedLoss	True
603.165	2.633	Lose2	0.6718999999999999	n/a	Yes	2.633	n/a	n/a	GoodResponse	0	0.0	n/a	8	63	ISIslide	AvoidedLoss	True
605.814	0.25	Win2	0.6769	0.0	Yes	3.136	0.014	n/a	GoodResponse	1	n/a	n/a	9	64	Cue	Win	True
606.064	4.15	Win2	0.6769	0.0	Yes	3.136	0.0	n/a	GoodResponse	1	n/a	n/a	9	64	Fixation	Win	True
610.212	0.25	Win2	0.6769	0.002	Yes	3.136	-0.002	3.0	GoodResponse	1	0.202	609.414	9	64	Target	Win	True
610.414	0.3	Win2	0.6769	0.002	Yes	3.136	-0.002	3.0	GoodResponse	1	0.202	n/a	9	64	ButtonPress	Win	True
610.462	0.45	Win2	0.6769	n/a	Yes	3.136	n/a	n/a	GoodResponse	1	n/a	n/a	9	64	Blank	Win	True
610.912	1.45	Win2	0.6769	n/a	Yes	3.136	n/a	5.0	GoodResponse	1	0.031	609.943	9	64	Feedback	Win	True
612.361	3.136	Win2	0.6769	n/a	Yes	3.136	n/a	n/a	GoodResponse	1	0.0	n/a	9	64	ISIslide	Win	True
615.527	0.25	Control	0.6818000000000001	0.0	Yes	2.773	0.027	n/a	GoodResponse	0	n/a	n/a	9	65	Cue	Neutral	True
615.777	4.0	Control	0.6818000000000001	0.0	Yes	2.773	0.0	n/a	GoodResponse	0	n/a	n/a	9	65	Fixation	Neutral	True
619.775	0.24	Control	0.6818000000000001	0.002	Yes	2.773	-0.002	3.0	GoodResponse	0	0.18	618.955	9	65	Target	Neutral	True
619.955	0.3	Control	0.6818000000000001	0.002	Yes	2.773	-0.002	3.0	GoodResponse	0	0.18	n/a	9	65	ButtonPress	Neutral	True
620.025	0.46	Control	0.6818000000000001	n/a	Yes	2.773	n/a	n/a	GoodResponse	0	n/a	n/a	9	65	Blank	Neutral	True
620.475	1.45	Control	0.6818000000000001	n/a	Yes	2.773	n/a	5.0	GoodResponse	0	0.028	619.503	9	65	Feedback	Neutral	True
621.925	2.773	Control	0.6818000000000001	n/a	Yes	2.773	n/a	n/a	GoodResponse	0	0.0	n/a	9	65	ISIslide	Neutral	True
624.724	0.25	Win2	0.6866	0.0	Yes	2.776	0.024	n/a	GoodResponse	1	n/a	n/a	10	66	Cue	Win	True
624.974	3.9	Win2	0.6866	0.0	Yes	2.776	0.0	n/a	GoodResponse	1	n/a	n/a	10	66	Fixation	Win	True
628.872	0.23	Win2	0.6866	0.002	Yes	2.776	-0.002	3.0	GoodResponse	1	0.153	628.025	10	66	Target	Win	True
629.025	0.3	Win2	0.6866	0.002	Yes	2.776	-0.002	3.0	GoodResponse	1	0.153	n/a	10	66	ButtonPress	Win	True
629.105	0.47	Win2	0.6866	n/a	Yes	2.776	n/a	n/a	GoodResponse	1	n/a	n/a	10	66	Blank	Win	True
629.572	1.45	Win2	0.6866	n/a	Yes	2.776	n/a	5.0	GoodResponse	1	0.005	628.577	10	66	Feedback	Win	True
631.021	2.776	Win2	0.6866	n/a	Yes	2.776	n/a	n/a	GoodResponse	1	0.0	n/a	10	66	ISIslide	Win	True
633.82	0.25	Control	0.6912	0.0	Yes	2.73	0.02	n/a	GoodResponse	0	n/a	n/a	10	67	Cue	Neutral	True
634.07	3.95	Control	0.6912	0.0	Yes	2.73	0.0	n/a	GoodResponse	0	n/a	n/a	10	67	Fixation	Neutral	True
638.019	0.22	Control	0.6912	0.001	Yes	2.73	-0.001	3.0	GoodResponse	0	0.211	637.23	10	67	Target	Neutral	True
638.23	0.3	Control	0.6912	0.001	Yes	2.73	-0.001	3.0	GoodResponse	0	0.211	n/a	10	67	ButtonPress	Neutral	True
638.236	0.48	Control	0.6912	n/a	Yes	2.73	n/a	n/a	GoodResponse	0	n/a	n/a	10	67	Blank	Neutral	True
638.719	1.45	Control	0.6912	n/a	Yes	2.73	n/a	5.0	GoodResponse	0	0.029	637.748	10	67	Feedback	Neutral	True
640.168	2.73	Control	0.6912	n/a	Yes	2.73	n/a	n/a	GoodResponse	0	0.0	n/a	10	67	ISIslide	Neutral	True
642.917	0.25	Win2	0.6812	0.0	No	3.083	0.017	n/a	PrematurePress	0	n/a	n/a	10	68	Cue	MissedWin	True
643.167	4.0	Win2	0.6812	0.0	No	3.083	0.0	n/a	PrematurePress	0	n/a	n/a	10	68	Fixation	MissedWin	True
647.166	0.21	Win2	0.6812	0.001	No	3.083	-0.001	3.0	PrematurePress	0	0.035	646.201	10	68	Target	MissedWin	True
647.201	0.3	Win2	0.6812	0.001	No	3.083	-0.001	3.0	PrematurePress	0	0.035	n/a	10	68	ButtonPress	MissedWin	True
647.382	0.49	Win2	0.6812	n/a	No	3.083	n/a	n/a	PrematurePress	0	n/a	n/a	10	68	Blank	MissedWin	True
647.865	1.45	Win2	0.6812	n/a	No	3.083	n/a	5.0	PrematurePress	0	0.006	646.871	10	68	Feedback	MissedWin	True
649.315	3.083	Win2	0.6812	n/a	No	3.083	n/a	n/a	PrematurePress	0	0.0	n/a	10	68	ISIslide	MissedWin	True
652.414	0.25	Win2	0.6857	0.0	Yes	3.236	0.014	n/a	GoodResponse	1	n/a	n/a	11	69	Cue	Win	True
652.664	3.95	Win2	0.6857	0.0	Yes	3.236	0.0	n/a	GoodResponse	1	n/a	n/a	11	69	Fixation	Win	True
656.612	0.2	Win2	0.6857	0.002	Yes	3.236	-0.002	3.0	GoodResponse	1	0.179	655.791	11	69	Target	Win	True
656.791	0.3	Win2	0.6857	0.002	Yes	3.236	-0.002	3.0	GoodResponse	1	0.179	n/a	11	69	ButtonPress	Win	True
656.812	0.5	Win2	0.6857	n/a	Yes	3.236	n/a	n/a	GoodResponse	1	n/a	n/a	11	69	Blank	Win	True
657.312	1.45	Win2	0.6857	n/a	Yes	3.236	n/a	5.0	GoodResponse	1	0.02	656.332	11	69	Feedback	Win	True
658.762	3.236	Win2	0.6857	n/a	Yes	3.236	n/a	n/a	GoodResponse	1	0.0	n/a	11	69	ISIslide	Win	True
662.027	0.25	Lose2	0.6761	0.0	No	3.023	0.027	n/a	NoResponse	-1	n/a	n/a	10	70	Cue	Loss	True
662.277	4.05	Lose2	0.6761	0.0	No	3.023	0.0	n/a	NoResponse	-1	n/a	n/a	10	70	Fixation	Loss	True
666.326	0.19	Lose2	0.6761	0.001	No	3.023	-0.001	3.0	NoResponse	-1	0.216	665.542	10	70	Target	Loss	True
666.525	0.51	Lose2	0.6761	n/a	No	3.023	n/a	n/a	NoResponse	-1	n/a	n/a	10	70	Blank	Loss	True
666.542	0.3	Lose2	0.6761	0.001	No	3.023	-0.001	3.0	NoResponse	-1	0.216	n/a	10	70	ButtonPress	Loss	True
667.025	1.45	Lose2	0.6761	n/a	No	3.023	n/a	5.0	NoResponse	-1	0.015	666.04	10	70	Feedback	Loss	True
668.475	3.023	Lose2	0.6761	n/a	No	3.023	n/a	n/a	NoResponse	-1	0.0	n/a	10	70	ISIslide	Loss	True
671.524	0.25	Win2	0.6667000000000001	0.0	No	2.726	0.024	n/a	NoResponse	0	n/a	n/a	10	71	Cue	MissedWin	True
671.774	4.05	Win2	0.6667000000000001	0.0	No	2.726	0.0	n/a	NoResponse	0	n/a	n/a	10	71	Fixation	MissedWin	True
675.822	0.18	Win2	0.6667000000000001	0.002	No	2.726	-0.002	3.0	NoResponse	0	0.24	675.062	10	71	Target	MissedWin	True
676.005	0.52	Win2	0.6667000000000001	n/a	No	2.726	n/a	n/a	NoResponse	0	n/a	n/a	10	71	Blank	MissedWin	True
676.062	0.3	Win2	0.6667000000000001	0.002	No	2.726	-0.002	3.0	NoResponse	0	0.24	n/a	10	71	ButtonPress	MissedWin	True
676.522	1.45	Win2	0.6667000000000001	n/a	No	2.726	n/a	5.0	NoResponse	0	0.03	675.552	10	71	Feedback	MissedWin	True
677.971	2.726	Win2	0.6667000000000001	n/a	No	2.726	n/a	n/a	NoResponse	0	0.0	n/a	10	71	ISIslide	MissedWin	True
680.72	0.25	Win2	0.6575	0.001	No	2.78	0.02	n/a	NoResponse	0	n/a	n/a	10	72	Cue	MissedWin	True
680.97	4.1	Win2	0.6575	0.0	No	2.78	0.0	n/a	NoResponse	0	n/a	n/a	10	72	Fixation	MissedWin	True
685.069	0.17	Win2	0.6575	0.001	No	2.78	-0.001	3.0	NoResponse	0	0.244	684.313	10	72	Target	MissedWin	True
685.235	0.53	Win2	0.6575	n/a	No	2.78	n/a	n/a	NoResponse	0	n/a	n/a	10	72	Blank	MissedWin	True
685.313	0.3	Win2	0.6575	0.001	No	2.78	-0.001	3.0	NoResponse	0	0.244	n/a	10	72	ButtonPress	MissedWin	True
685.769	1.45	Win2	0.6575	n/a	No	2.78	n/a	5.0	NoResponse	0	0.005	684.774	10	72	Feedback	MissedWin	True
687.218	2.78	Win2	0.6575	n/a	No	2.78	n/a	n/a	NoResponse	0	0.0	n/a	10	72	ISIslide	MissedWin	True
690.017	0.25	Win2	0.6486	0.0	No	2.683	0.017	n/a	NoResponse	0	n/a	n/a	10	73	Cue	MissedWin	True
690.267	4.0	Win2	0.6486	0.0	No	2.683	0.0	n/a	NoResponse	0	n/a	n/a	10	73	Fixation	MissedWin	True
694.266	0.17	Win2	0.6486	0.001	No	2.683	-0.001	3.0	NoResponse	0	0.194	693.46	10	73	Target	MissedWin	True
694.449	0.53	Win2	0.6486	n/a	No	2.683	n/a	n/a	NoResponse	0	n/a	n/a	10	73	Blank	MissedWin	True
694.46	0.3	Win2	0.6486	0.001	No	2.683	-0.001	3.0	NoResponse	0	0.194	n/a	10	73	ButtonPress	MissedWin	True
694.965	1.45	Win2	0.6486	n/a	No	2.683	n/a	5.0	NoResponse	0	0.025	693.99	10	73	Feedback	MissedWin	True
696.415	2.683	Win2	0.6486	n/a	No	2.683	n/a	n/a	NoResponse	0	0.0	n/a	10	73	ISIslide	MissedWin	True
699.131	0.25	Lose2	0.64	0.0	No	2.619	0.031	n/a	NoResponse	-1	n/a	n/a	9	74	Cue	Loss	True
699.38	4.05	Lose2	0.64	0.001	No	2.619	-0.001	n/a	NoResponse	-1	n/a	n/a	9	74	Fixation	Loss	True
703.429	0.18	Lose2	0.64	0.002	No	2.619	-0.002	3.0	NoResponse	-1	0.212	702.641	9	74	Target	Loss	True
703.612	0.52	Lose2	0.64	n/a	No	2.619	n/a	n/a	NoResponse	-1	n/a	n/a	9	74	Blank	Loss	True
703.641	0.3	Lose2	0.64	0.002	No	2.619	-0.002	3.0	NoResponse	-1	0.212	n/a	9	74	ButtonPress	Loss	True
704.129	1.45	Lose2	0.64	n/a	No	2.619	n/a	5.0	NoResponse	-1	0.032	703.161	9	74	Feedback	Loss	True
705.578	2.619	Lose2	0.64	n/a	No	2.619	n/a	n/a	NoResponse	-1	0.0	n/a	9	74	ISIslide	Loss	True
708.227	0.25	Lose2	0.6446999999999999	0.0	Yes	2.923	0.027	n/a	GoodResponse	0	n/a	n/a	9	75	Cue	AvoidedLoss	True
708.477	3.95	Lose2	0.6446999999999999	0.0	Yes	2.923	0.0	n/a	GoodResponse	0	n/a	n/a	9	75	Fixation	AvoidedLoss	True
712.426	0.19	Lose2	0.6446999999999999	0.001	Yes	2.923	-0.001	3.0	GoodResponse	0	0.171	711.597	9	75	Target	AvoidedLoss	True
712.597	0.3	Lose2	0.6446999999999999	0.001	Yes	2.923	-0.001	3.0	GoodResponse	0	0.171	n/a	9	75	ButtonPress	AvoidedLoss	True
712.626	0.51	Lose2	0.6446999999999999	n/a	Yes	2.923	n/a	n/a	GoodResponse	0	n/a	n/a	9	75	Blank	AvoidedLoss	True
713.126	1.45	Lose2	0.6446999999999999	n/a	Yes	2.923	n/a	5.0	GoodResponse	0	0.011	712.137	9	75	Feedback	AvoidedLoss	True
714.575	2.923	Lose2	0.6446999999999999	n/a	Yes	2.923	n/a	n/a	GoodResponse	0	0.0	n/a	9	75	ISIslide	AvoidedLoss	True
717.524	0.25	Control	0.6364	0.0	No	3.226	0.024	n/a	NoResponse	0	n/a	n/a	9	76	Cue	Neutral	True
717.774	4.05	Control	0.6364	0.0	No	3.226	0.0	3.0	NoResponse	0	3.991	720.765	9	76	Fixation	Neutral	True
721.765	0.3	Control	0.6364	0.0	No	3.226	0.0	3.0	NoResponse	0	3.991	n/a	9	76	ButtonPress	Neutral	True
721.822	0.2	Control	0.6364	0.002	No	3.226	-0.002	n/a	NoResponse	0	n/a	n/a	9	76	Target	Neutral	True
722.022	0.5	Control	0.6364	n/a	No	3.226	n/a	n/a	NoResponse	0	n/a	n/a	9	76	Blank	Neutral	True
722.522	1.45	Control	0.6364	n/a	No	3.226	n/a	5.0	NoResponse	0	0.03	721.552	9	76	Feedback	Neutral	True
723.972	3.226	Control	0.6364	n/a	No	3.226	n/a	n/a	NoResponse	0	0.0	n/a	9	76	ISIslide	Neutral	True
727.221	0.25	Lose2	0.6409999999999999	0.0	Yes	2.579	0.021	n/a	GoodResponse	0	n/a	n/a	9	77	Cue	AvoidedLoss	True
727.47	3.95	Lose2	0.6409999999999999	0.001	Yes	2.579	-0.001	n/a	GoodResponse	0	n/a	n/a	9	77	Fixation	AvoidedLoss	True
731.419	0.21	Lose2	0.6409999999999999	0.002	Yes	2.579	-0.002	3.0	GoodResponse	0	0.179	730.598	9	77	Target	AvoidedLoss	True
731.598	0.3	Lose2	0.6409999999999999	0.002	Yes	2.579	-0.002	3.0	GoodResponse	0	0.179	n/a	9	77	ButtonPress	AvoidedLoss	True
731.636	0.49	Lose2	0.6409999999999999	n/a	Yes	2.579	n/a	n/a	GoodResponse	0	n/a	n/a	9	77	Blank	AvoidedLoss	True
732.119	1.45	Lose2	0.6409999999999999	n/a	Yes	2.579	n/a	5.0	GoodResponse	0	0.041	731.16	9	77	Feedback	AvoidedLoss	True
733.568	2.579	Lose2	0.6409999999999999	n/a	Yes	2.579	n/a	n/a	GoodResponse	0	0.0	n/a	9	77	ISIslide	AvoidedLoss	True
