onset	duration	cue_type	current_mean_accuracy	duration_error	is_hit	isi_adjusted	onset_delay	response	response_type	reward	rt	rt_time	total_reward	trial_number	trial_phase	trial_type	one_press
11.107	0.25	Control	0.0	0.0	No	2.943	0.007	n/a	NoResponse	0	n/a	n/a	0	0	Cue	Neutral	False
11.357	3.85	Control	0.0	0.001	No	2.943	0.0	n/a	NoResponse	0	n/a	n/a	0	0	Fixation	Neutral	False
15.219	0.4	Control	0.0	0.0	No	2.943	0.012	n/a	NoResponse	0	n/a	n/a	0	0	Target	Neutral	False
15.604	0.3	Control	0.0	n/a	No	2.943	n/a	n/a	NoResponse	0	n/a	n/a	0	0	Blank	Neutral	False
15.904	1.45	Control	0.0	n/a	No	2.943	n/a	5.0	NoResponse	0	0.023	14.927	0	0	Feedback	Neutral	False
17.359	2.943	Control	0.0	n/a	No	2.943	n/a	n/a	NoResponse	0	0.0	n/a	0	0	ISIslide	Neutral	False
20.318	0.25	Lose2	0.5	0.0	Yes	2.782	0.018	n/a	GoodResponse	0	n/a	n/a	0	1	Cue	AvoidedLoss	True
20.568	4.0	Lose2	0.5	0.0	Yes	2.782	0.0	n/a	GoodResponse	0	n/a	n/a	0	1	Fixation	AvoidedLoss	True
24.564	0.41	Lose2	0.5	0.004	Yes	2.782	-0.004	2.0	GoodResponse	0	0.254	23.818	0	1	Target	AvoidedLoss	True
24.818	0.3	Lose2	0.5	0.004	Yes	2.782	-0.004	2.0	GoodResponse	0	0.254	n/a	0	1	ButtonPress	AvoidedLoss	True
24.982	0.29	Lose2	0.5	n/a	Yes	2.782	n/a	n/a	GoodResponse	0	n/a	n/a	0	1	Blank	AvoidedLoss	True
25.266	1.45	Lose2	0.5	n/a	Yes	2.782	n/a	5.0	GoodResponse	0	0.026	24.292	0	1	Feedback	AvoidedLoss	True
26.72	2.782	Lose2	0.5	n/a	Yes	2.782	n/a	n/a	GoodResponse	0	0.0	n/a	0	1	ISIslide	AvoidedLoss	True
29.528	0.25	Control	0.3333	0.001	No	2.572	0.028	n/a	NoResponse	0	n/a	n/a	0	2	Cue	Neutral	False
29.779	4.1	Control	0.3333	0.0	No	2.572	0.001	n/a	NoResponse	0	n/a	n/a	0	2	Fixation	Neutral	False
33.875	0.42	Control	0.3333	0.003	No	2.572	-0.003	n/a	NoResponse	0	n/a	n/a	0	2	Target	Neutral	False
34.309	0.28	Control	0.3333	n/a	No	2.572	n/a	n/a	NoResponse	0	n/a	n/a	0	2	Blank	Neutral	False
34.577	1.45	Control	0.3333	n/a	No	2.572	n/a	5.0	NoResponse	0	0.032	33.609	0	2	Feedback	Neutral	False
36.031	2.572	Control	0.3333	n/a	No	2.572	n/a	n/a	NoResponse	0	0.0	n/a	0	2	ISIslide	Neutral	False
38.622	0.25	Win2	0.5	0.0	Yes	2.828	0.022	n/a	GoodResponse	1	n/a	n/a	1	3	Cue	Win	True
38.873	3.95	Win2	0.5	0.0	Yes	2.828	0.001	n/a	GoodResponse	1	n/a	n/a	1	3	Fixation	Win	True
42.818	0.43	Win2	0.5	0.004	Yes	2.828	-0.004	2.0	GoodResponse	1	0.271	42.089	1	3	Target	Win	True
43.089	0.3	Win2	0.5	0.004	Yes	2.828	-0.004	2.0	GoodResponse	1	0.271	n/a	1	3	ButtonPress	Win	True
43.253	0.27	Win2	0.5	n/a	Yes	2.828	n/a	n/a	GoodResponse	1	n/a	n/a	1	3	Blank	Win	True
43.52	1.45	Win2	0.5	n/a	Yes	2.828	n/a	5.0	GoodResponse	1	0.016	42.536	1	3	Feedback	Win	True
44.975	2.828	Win2	0.5	n/a	Yes	2.828	n/a	n/a	GoodResponse	1	0.0	n/a	1	3	ISIslide	Win	True
47.816	0.25	Win2	0.6	0.001	Yes	3.284	0.016	n/a	GoodResponse	1	n/a	n/a	2	4	Cue	Win	True
48.067	4.0	Win2	0.6	0.0	Yes	3.284	0.001	n/a	GoodResponse	1	n/a	n/a	2	4	Fixation	Win	True
52.063	0.44	Win2	0.6	0.003	Yes	3.284	-0.003	2.0	GoodResponse	1	0.235	51.298	2	4	Target	Win	True
52.298	0.3	Win2	0.6	0.003	Yes	3.284	-0.003	2.0	GoodResponse	1	0.235	n/a	2	4	ButtonPress	Win	True
52.514	0.26	Win2	0.6	n/a	Yes	3.284	n/a	n/a	GoodResponse	1	n/a	n/a	2	4	Blank	Win	True
52.765	1.45	Win2	0.6	n/a	Yes	3.284	n/a	5.0	GoodResponse	1	0.039	51.804	2	4	Feedback	Win	True
54.219	3.284	Win2	0.6	n/a	Yes	3.284	n/a	n/a	GoodResponse	1	0.0	n/a	2	4	ISIslide	Win	True
57.529	0.25	Win2	0.6667000000000001	0.0	Yes	2.771	0.029	n/a	GoodResponse	1	n/a	n/a	3	5	Cue	Win	True
57.78	4.0	Win2	0.6667000000000001	0.0	Yes	2.771	0.001	n/a	GoodResponse	1	n/a	n/a	3	5	Fixation	Win	True
61.775	0.45	Win2	0.6667000000000001	0.004	Yes	2.771	-0.004	2.0	GoodResponse	1	0.217	60.992	3	5	Target	Win	True
61.992	0.3	Win2	0.6667000000000001	0.004	Yes	2.771	-0.004	2.0	GoodResponse	1	0.217	n/a	3	5	ButtonPress	Win	True
62.226	0.25	Win2	0.6667000000000001	n/a	Yes	2.771	n/a	n/a	GoodResponse	1	n/a	n/a	3	5	Blank	Win	True
62.477	1.45	Win2	0.6667000000000001	n/a	Yes	2.771	n/a	5.0	GoodResponse	1	0.034	61.511	3	5	Feedback	Win	True
63.931	2.771	Win2	0.6667000000000001	n/a	Yes	2.771	n/a	n/a	GoodResponse	1	0.0	n/a	3	5	ISIslide	Win	True
66.723	0.25	Lose2	0.7143	0.0	Yes	2.727	0.023	n/a	GoodResponse	0	n/a	n/a	3	6	Cue	AvoidedLoss	True
66.974	3.95	Lose2	0.7143	0.0	Yes	2.727	0.001	n/a	GoodResponse	0	n/a	n/a	3	6	Fixation	AvoidedLoss	True
70.919	0.44	Lose2	0.7143	0.004	Yes	2.727	-0.004	2.0	GoodResponse	0	0.227	70.146	3	6	Target	AvoidedLoss	True
71.146	0.3	Lose2	0.7143	0.004	Yes	2.727	-0.004	2.0	GoodResponse	0	0.227	n/a	3	6	ButtonPress	AvoidedLoss	True
71.37	0.26	Lose2	0.7143	n/a	Yes	2.727	n/a	n/a	GoodResponse	0	n/a	n/a	3	6	Blank	AvoidedLoss	True
71.621	1.45	Lose2	0.7143	n/a	Yes	2.727	n/a	5.0	GoodResponse	0	0.012	70.633	3	6	Feedback	AvoidedLoss	True
73.075	2.727	Lose2	0.7143	n/a	Yes	2.727	n/a	n/a	GoodResponse	0	0.0	n/a	3	6	ISIslide	AvoidedLoss	True
75.817	0.25	Lose2	0.75	0.0	Yes	4.033	0.017	n/a	GoodResponse	0	n/a	n/a	3	7	Cue	AvoidedLoss	True
76.068	4.05	Lose2	0.75	0.0	Yes	4.033	0.001	n/a	GoodResponse	0	n/a	n/a	3	7	Fixation	AvoidedLoss	True
80.113	0.43	Lose2	0.75	0.004	Yes	4.033	-0.004	2.0	GoodResponse	0	0.215	79.328	3	7	Target	AvoidedLoss	True
80.328	0.3	Lose2	0.75	0.004	Yes	4.033	-0.004	2.0	GoodResponse	0	0.215	n/a	3	7	ButtonPress	AvoidedLoss	True
80.548	0.27	Lose2	0.75	n/a	Yes	4.033	n/a	n/a	GoodResponse	0	n/a	n/a	3	7	Blank	AvoidedLoss	True
80.815	1.45	Lose2	0.75	n/a	Yes	4.033	n/a	5.0	GoodResponse	0	0.037	79.852	3	7	Feedback	AvoidedLoss	True
82.27	4.033	Lose2	0.75	n/a	Yes	4.033	n/a	n/a	GoodResponse	0	0.0	n/a	3	7	ISIslide	AvoidedLoss	True
86.315	0.25	Lose2	0.7778	0.0	Yes	3.035	0.015	n/a	GoodResponse	0	n/a	n/a	3	8	Cue	AvoidedLoss	True
86.566	3.95	Lose2	0.7778	0.0	Yes	3.035	0.001	n/a	GoodResponse	0	n/a	n/a	3	8	Fixation	AvoidedLoss	True
90.511	0.42	Lose2	0.7778	0.004	Yes	3.035	-0.004	2.0	GoodResponse	0	0.219	89.73	3	8	Target	AvoidedLoss	True
90.73	0.3	Lose2	0.7778	0.004	Yes	3.035	-0.004	2.0	GoodResponse	0	0.219	n/a	3	8	ButtonPress	AvoidedLoss	True
90.945	0.28	Lose2	0.7778	n/a	Yes	3.035	n/a	n/a	GoodResponse	0	n/a	n/a	3	8	Blank	AvoidedLoss	True
91.213	1.45	Lose2	0.7778	n/a	Yes	3.035	n/a	5.0	GoodResponse	0	0.03	90.243	3	8	Feedback	AvoidedLoss	True
92.667	3.035	Lose2	0.7778	n/a	Yes	3.035	n/a	n/a	GoodResponse	0	0.0	n/a	3	8	ISIslide	AvoidedLoss	True
95.726	0.25	Lose2	0.8	0.0	Yes	3.124	0.026	n/a	GoodResponse	0	n/a	n/a	3	9	Cue	AvoidedLoss	True
95.977	3.95	Lose2	0.8	0.0	Yes	3.124	0.001	n/a	GoodResponse	0	n/a	n/a	3	9	Fixation	AvoidedLoss	True
99.922	0.41	Lose2	0.8	0.004	Yes	3.124	-0.004	2.0	GoodResponse	0	0.219	99.141	3	9	Target	AvoidedLoss	True
100.141	0.3	Lose2	0.8	0.004	Yes	3.124	-0.004	2.0	GoodResponse	0	0.219	n/a	3	9	ButtonPress	AvoidedLoss	True
100.34	0.29	Lose2	0.8	n/a	Yes	3.124	n/a	n/a	GoodResponse	0	n/a	n/a	3	9	Blank	AvoidedLoss	True
100.624	1.45	Lose2	0.8	n/a	Yes	3.124	n/a	5.0	GoodResponse	0	0.033	99.657	3	9	Feedback	AvoidedLoss	True
102.079	3.124	Lose2	0.8	n/a	Yes	3.124	n/a	n/a	GoodResponse	0	0.0	n/a	3	9	ISIslide	AvoidedLoss	True
105.221	0.25	Control	0.7273000000000001	0.001	No	3.279	0.021	n/a	NoResponse	0	n/a	n/a	3	10	Cue	Neutral	False
105.472	4.0	Control	0.7273000000000001	0.0	No	3.279	0.001	n/a	NoResponse	0	n/a	n/a	3	10	Fixation	Neutral	False
109.467	0.4	Control	0.7273000000000001	0.004	No	3.279	-0.004	n/a	NoResponse	0	n/a	n/a	3	10	Target	Neutral	False
109.869	0.3	Control	0.7273000000000001	n/a	No	3.279	n/a	n/a	NoResponse	0	n/a	n/a	3	10	Blank	Neutral	False
110.17	1.45	Control	0.7273000000000001	n/a	No	3.279	n/a	5.0	NoResponse	0	0.047	109.217	3	10	Feedback	Neutral	False
111.624	3.279	Control	0.7273000000000001	n/a	No	3.279	n/a	n/a	NoResponse	0	0.0	n/a	3	10	ISIslide	Neutral	False
114.917	0.25	Lose2	0.75	0.0	Yes	2.733	0.017	n/a	GoodResponse	0	n/a	n/a	3	11	Cue	AvoidedLoss	True
115.168	4.05	Lose2	0.75	0.0	Yes	2.733	0.001	n/a	GoodResponse	0	n/a	n/a	3	11	Fixation	AvoidedLoss	True
119.213	0.39	Lose2	0.75	0.004	Yes	2.733	-0.004	2.0	GoodResponse	0	0.233	118.446	3	11	Target	AvoidedLoss	True
119.446	0.3	Lose2	0.75	0.004	Yes	2.733	-0.004	2.0	GoodResponse	0	0.233	n/a	3	11	ButtonPress	AvoidedLoss	True
119.615	0.31	Lose2	0.75	n/a	Yes	2.733	n/a	n/a	GoodResponse	0	n/a	n/a	3	11	Blank	AvoidedLoss	True
119.915	1.45	Lose2	0.75	n/a	Yes	2.733	n/a	5.0	GoodResponse	0	0.01	118.925	3	11	Feedback	AvoidedLoss	True
121.37	2.733	Lose2	0.75	n/a	Yes	2.733	n/a	n/a	GoodResponse	0	0.0	n/a	3	11	ISIslide	AvoidedLoss	True
124.128	0.25	Control	0.6923	0.0	No	2.972	0.028	n/a	NoResponse	0	n/a	n/a	3	12	Cue	Neutral	False
124.379	3.9	Control	0.6923	0.0	No	2.972	0.001	n/a	NoResponse	0	n/a	n/a	3	12	Fixation	Neutral	False
128.274	0.38	Control	0.6923	0.004	No	2.972	-0.004	n/a	NoResponse	0	n/a	n/a	3	12	Target	Neutral	False
128.658	0.32	Control	0.6923	n/a	No	2.972	n/a	n/a	NoResponse	0	n/a	n/a	3	12	Blank	Neutral	False
128.976	1.45	Control	0.6923	n/a	No	2.972	n/a	5.0	NoResponse	0	0.022	127.998	3	12	Feedback	Neutral	False
130.43	2.972	Control	0.6923	n/a	No	2.972	n/a	n/a	NoResponse	0	0.0	n/a	3	12	ISIslide	Neutral	False
133.422	0.25	Control	0.6429	0.001	No	2.778	0.022	n/a	NoResponse	0	n/a	n/a	3	13	Cue	Neutral	False
133.673	4.0	Control	0.6429	0.0	No	2.778	0.001	n/a	NoResponse	0	n/a	n/a	3	13	Fixation	Neutral	False
137.668	0.37	Control	0.6429	0.004	No	2.778	-0.004	n/a	NoResponse	0	n/a	n/a	3	13	Target	Neutral	False
138.053	0.33	Control	0.6429	n/a	No	2.778	n/a	n/a	NoResponse	0	n/a	n/a	3	13	Blank	Neutral	False
138.371	1.45	Control	0.6429	n/a	No	2.778	n/a	5.0	NoResponse	0	0.042	137.413	3	13	Feedback	Neutral	False
139.825	2.778	Control	0.6429	n/a	No	2.778	n/a	n/a	NoResponse	0	0.0	n/a	3	13	ISIslide	Neutral	False
142.617	0.25	Win2	0.6667000000000001	0.0	Yes	2.683	0.017	n/a	GoodResponse	1	n/a	n/a	4	14	Cue	Win	True
142.867	4.1	Win2	0.6667000000000001	0.0	Yes	2.683	0.0	n/a	GoodResponse	1	n/a	n/a	4	14	Fixation	Win	True
146.963	0.38	Win2	0.6667000000000001	0.004	Yes	2.683	-0.004	2.0	GoodResponse	1	0.252	146.215	4	14	Target	Win	True
147.215	0.3	Win2	0.6667000000000001	0.004	Yes	2.683	-0.004	2.0	GoodResponse	1	0.252	n/a	4	14	ButtonPress	Win	True
147.347	0.32	Win2	0.6667000000000001	n/a	Yes	2.683	n/a	n/a	GoodResponse	1	n/a	n/a	4	14	Blank	Win	True
147.665	1.45	Win2	0.6667000000000001	n/a	Yes	2.683	n/a	5.0	GoodResponse	1	0.015	146.68	4	14	Feedback	Win	True
149.119	2.683	Win2	0.6667000000000001	n/a	Yes	2.683	n/a	n/a	GoodResponse	1	0.0	n/a	4	14	ISIslide	Win	True
151.827	0.25	Control	0.625	0.001	No	2.973	0.027	n/a	NoResponse	0	n/a	n/a	4	15	Cue	Neutral	False
152.078	4.0	Control	0.625	0.0	No	2.973	0.001	n/a	NoResponse	0	n/a	n/a	4	15	Fixation	Neutral	False
156.074	0.37	Control	0.625	0.003	No	2.973	-0.003	n/a	NoResponse	0	n/a	n/a	4	15	Target	Neutral	False
156.458	0.33	Control	0.625	n/a	No	2.973	n/a	n/a	NoResponse	0	n/a	n/a	4	15	Blank	Neutral	False
156.776	1.45	Control	0.625	n/a	No	2.973	n/a	5.0	NoResponse	0	0.026	155.802	4	15	Feedback	Neutral	False
158.23	2.973	Control	0.625	n/a	No	2.973	n/a	n/a	NoResponse	0	0.0	n/a	4	15	ISIslide	Neutral	False
161.222	0.25	Win2	0.6470999999999999	0.0	Yes	2.878	0.022	n/a	GoodResponse	1	n/a	n/a	5	16	Cue	Win	True
161.473	4.0	Win2	0.6470999999999999	0.0	Yes	2.878	0.001	n/a	GoodResponse	1	n/a	n/a	5	16	Fixation	Win	True
165.468	0.38	Win2	0.6470999999999999	0.004	Yes	2.878	-0.004	2.0	GoodResponse	1	0.229	164.697	5	16	Target	Win	True
165.697	0.3	Win2	0.6470999999999999	0.004	Yes	2.878	-0.004	2.0	GoodResponse	1	0.229	n/a	5	16	ButtonPress	Win	True
165.853	0.32	Win2	0.6470999999999999	n/a	Yes	2.878	n/a	n/a	GoodResponse	1	n/a	n/a	5	16	Blank	Win	True
166.17	1.45	Win2	0.6470999999999999	n/a	Yes	2.878	n/a	5.0	GoodResponse	1	0.047	165.217	5	16	Feedback	Win	True
167.625	2.878	Win2	0.6470999999999999	n/a	Yes	2.878	n/a	n/a	GoodResponse	1	0.0	n/a	5	16	ISIslide	Win	True
170.517	0.25	Lose2	0.6667000000000001	0.0	Yes	2.733	0.017	n/a	GoodResponse	0	n/a	n/a	5	17	Cue	AvoidedLoss	True
170.767	3.95	Lose2	0.6667000000000001	0.001	Yes	2.733	0.0	n/a	GoodResponse	0	n/a	n/a	5	17	Fixation	AvoidedLoss	True
174.713	0.39	Lose2	0.6667000000000001	0.004	Yes	2.733	-0.004	2.0	GoodResponse	0	0.228	173.941	5	17	Target	AvoidedLoss	True
174.941	0.3	Lose2	0.6667000000000001	0.004	Yes	2.733	-0.004	2.0	GoodResponse	0	0.228	n/a	5	17	ButtonPress	AvoidedLoss	True
175.114	0.31	Lose2	0.6667000000000001	n/a	Yes	2.733	n/a	n/a	GoodResponse	0	n/a	n/a	5	17	Blank	AvoidedLoss	True
175.415	1.45	Lose2	0.6667000000000001	n/a	Yes	2.733	n/a	5.0	GoodResponse	0	0.022	174.437	5	17	Feedback	AvoidedLoss	True
176.869	2.733	Lose2	0.6667000000000001	n/a	Yes	2.733	n/a	n/a	GoodResponse	0	0.0	n/a	5	17	ISIslide	AvoidedLoss	True
179.627	0.25	Lose2	0.6842	0.0	Yes	2.723	0.027	n/a	GoodResponse	0	n/a	n/a	5	18	Cue	AvoidedLoss	True
179.878	4.05	Lose2	0.6842	0.0	Yes	2.723	0.001	n/a	GoodResponse	0	n/a	n/a	5	18	Fixation	AvoidedLoss	True
183.923	0.38	Lose2	0.6842	0.004	Yes	2.723	-0.004	2.0	GoodResponse	0	0.214	183.137	5	18	Target	AvoidedLoss	True
184.137	0.3	Lose2	0.6842	0.004	Yes	2.723	-0.004	2.0	GoodResponse	0	0.214	n/a	5	18	ButtonPress	AvoidedLoss	True
184.308	0.32	Lose2	0.6842	n/a	Yes	2.723	n/a	n/a	GoodResponse	0	n/a	n/a	5	18	Blank	AvoidedLoss	True
184.626	1.45	Lose2	0.6842	n/a	Yes	2.723	n/a	5.0	GoodResponse	0	0.03	183.656	5	18	Feedback	AvoidedLoss	True
186.08	2.723	Lose2	0.6842	n/a	Yes	2.723	n/a	n/a	GoodResponse	0	0.0	n/a	5	18	ISIslide	AvoidedLoss	True
188.821	0.25	Control	0.65	0.0	No	2.929	0.021	n/a	NoResponse	0	n/a	n/a	5	19	Cue	Neutral	False
189.072	3.95	Control	0.65	0.0	No	2.929	0.001	n/a	NoResponse	0	n/a	n/a	5	19	Fixation	Neutral	False
193.017	0.37	Control	0.65	0.004	No	2.929	-0.004	n/a	NoResponse	0	n/a	n/a	5	19	Target	Neutral	False
193.402	0.33	Control	0.65	n/a	No	2.929	n/a	n/a	NoResponse	0	n/a	n/a	5	19	Blank	Neutral	False
193.719	1.45	Control	0.65	n/a	No	2.929	n/a	5.0	NoResponse	0	0.01	192.729	5	19	Feedback	Neutral	False
195.174	2.929	Control	0.65	n/a	No	2.929	n/a	n/a	NoResponse	0	0.0	n/a	5	19	ISIslide	Neutral	False
198.116	0.25	Control	0.619	0.0	No	2.634	0.016	n/a	NoResponse	0	n/a	n/a	5	20	Cue	Neutral	False
198.367	4.05	Control	0.619	0.0	No	2.634	0.001	n/a	NoResponse	0	n/a	n/a	5	20	Fixation	Neutral	False
202.412	0.38	Control	0.619	0.004	No	2.634	-0.004	n/a	NoResponse	0	n/a	n/a	5	20	Target	Neutral	False
202.797	0.32	Control	0.619	n/a	No	2.634	n/a	n/a	NoResponse	0	n/a	n/a	5	20	Blank	Neutral	False
203.114	1.45	Control	0.619	n/a	No	2.634	n/a	5.0	NoResponse	0	0.029	202.143	5	20	Feedback	Neutral	False
204.568	2.634	Control	0.619	n/a	No	2.634	n/a	n/a	NoResponse	0	0.0	n/a	5	20	ISIslide	Neutral	False
207.226	0.25	Control	0.5909	0.001	No	2.774	0.026	n/a	NoResponse	0	n/a	n/a	5	21	Cue	Neutral	False
207.477	4.1	Control	0.5909	0.0	No	2.774	0.001	n/a	NoResponse	0	n/a	n/a	5	21	Fixation	Neutral	False
211.573	0.39	Control	0.5909	0.003	No	2.774	-0.003	n/a	NoResponse	0	n/a	n/a	5	21	Target	Neutral	False
211.974	0.31	Control	0.5909	n/a	No	2.774	n/a	n/a	NoResponse	0	n/a	n/a	5	21	Blank	Neutral	False
212.275	1.45	Control	0.5909	n/a	No	2.774	n/a	5.0	NoResponse	0	0.039	211.314	5	21	Feedback	Neutral	False
213.729	2.774	Control	0.5909	n/a	No	2.774	n/a	n/a	NoResponse	0	0.0	n/a	5	21	ISIslide	Neutral	False
216.521	0.25	Control	0.5652	0.0	No	2.779	0.021	n/a	NoResponse	0	n/a	n/a	5	22	Cue	Neutral	False
216.772	4.0	Control	0.5652	0.0	No	2.779	0.001	n/a	NoResponse	0	n/a	n/a	5	22	Fixation	Neutral	False
220.767	0.4	Control	0.5652	0.004	No	2.779	-0.004	n/a	NoResponse	0	n/a	n/a	5	22	Target	Neutral	False
221.168	0.3	Control	0.5652	n/a	No	2.779	n/a	n/a	NoResponse	0	n/a	n/a	5	22	Blank	Neutral	False
221.469	1.45	Control	0.5652	n/a	No	2.779	n/a	5.0	NoResponse	0	0.016	220.485	5	22	Feedback	Neutral	False
222.923	2.779	Control	0.5652	n/a	No	2.779	n/a	n/a	NoResponse	0	0.0	n/a	5	22	ISIslide	Neutral	False
225.715	0.25	Control	0.5417000000000001	0.0	No	2.785	0.015	n/a	NoResponse	0	n/a	n/a	5	23	Cue	Neutral	False
225.966	3.9	Control	0.5417000000000001	0.0	No	2.785	0.001	n/a	NoResponse	0	n/a	n/a	5	23	Fixation	Neutral	False
229.861	0.41	Control	0.5417000000000001	0.004	No	2.785	-0.004	n/a	NoResponse	0	n/a	n/a	5	23	Target	Neutral	False
230.279	0.29	Control	0.5417000000000001	n/a	No	2.785	n/a	n/a	NoResponse	0	n/a	n/a	5	23	Blank	Neutral	False
230.563	1.45	Control	0.5417000000000001	n/a	No	2.785	n/a	5.0	NoResponse	0	0.043	229.606	5	23	Feedback	Neutral	False
232.017	2.785	Control	0.5417000000000001	n/a	No	2.785	n/a	n/a	NoResponse	0	0.0	n/a	5	23	ISIslide	Neutral	False
234.826	0.25	Win2	0.56	0.0	Yes	3.124	0.026	n/a	GoodResponse	1	n/a	n/a	6	24	Cue	Win	True
235.076	3.95	Win2	0.56	0.0	Yes	3.124	0.0	n/a	GoodResponse	1	n/a	n/a	6	24	Fixation	Win	True
239.022	0.42	Win2	0.56	0.004	Yes	3.124	-0.004	2.0	GoodResponse	1	0.231	238.253	6	24	Target	Win	True
239.253	0.3	Win2	0.56	0.004	Yes	3.124	-0.004	2.0	GoodResponse	1	0.231	n/a	6	24	ButtonPress	Win	True
239.456	0.28	Win2	0.56	n/a	Yes	3.124	n/a	n/a	GoodResponse	1	n/a	n/a	6	24	Blank	Win	True
239.724	1.45	Win2	0.56	n/a	Yes	3.124	n/a	5.0	GoodResponse	1	0.006	238.73	6	24	Feedback	Win	True
241.178	3.124	Win2	0.56	n/a	Yes	3.124	n/a	n/a	GoodResponse	1	0.0	n/a	6	24	ISIslide	Win	True
244.321	0.25	Win2	0.5769	0.0	Yes	3.079	0.021	n/a	GoodResponse	1	n/a	n/a	7	25	Cue	Win	True
244.571	4.0	Win2	0.5769	0.001	Yes	3.079	0.0	n/a	GoodResponse	1	n/a	n/a	7	25	Fixation	Win	True
248.567	0.43	Win2	0.5769	0.004	Yes	3.079	-0.004	2.0	GoodResponse	1	0.219	247.786	7	25	Target	Win	True
248.786	0.3	Win2	0.5769	0.004	Yes	3.079	-0.004	2.0	GoodResponse	1	0.219	n/a	7	25	ButtonPress	Win	True
249.001	0.27	Win2	0.5769	n/a	Yes	3.079	n/a	n/a	GoodResponse	1	n/a	n/a	7	25	Blank	Win	True
249.269	1.45	Win2	0.5769	n/a	Yes	3.079	n/a	5.0	GoodResponse	1	0.02	248.289	7	25	Feedback	Win	True
250.723	3.079	Win2	0.5769	n/a	Yes	3.079	n/a	n/a	GoodResponse	1	0.0	n/a	7	25	ISIslide	Win	True
253.816	0.25	Win2	0.5926	0.0	Yes	2.934	0.016	n/a	GoodResponse	1	n/a	n/a	8	26	Cue	Win	True
254.066	3.95	Win2	0.5926	0.001	Yes	2.934	0.0	n/a	GoodResponse	1	n/a	n/a	8	26	Fixation	Win	True
258.012	0.44	Win2	0.5926	0.004	Yes	2.934	-0.004	2.0	GoodResponse	1	0.219	257.231	8	26	Target	Win	True
258.231	0.3	Win2	0.5926	0.004	Yes	2.934	-0.004	2.0	GoodResponse	1	0.219	n/a	8	26	ButtonPress	Win	True
258.463	0.26	Win2	0.5926	n/a	Yes	2.934	n/a	n/a	GoodResponse	1	n/a	n/a	8	26	Blank	Win	True
258.714	1.45	Win2	0.5926	n/a	Yes	2.934	n/a	5.0	GoodResponse	1	0.039	257.753	8	26	Feedback	Win	True
260.168	2.934	Win2	0.5926	n/a	Yes	2.934	n/a	n/a	GoodResponse	1	0.0	n/a	8	26	ISIslide	Win	True
263.127	0.25	Lose2	0.6071	0.0	Yes	2.823	0.027	n/a	GoodResponse	0	n/a	n/a	8	27	Cue	AvoidedLoss	True
263.378	4.05	Lose2	0.6071	0.0	Yes	2.823	0.001	n/a	GoodResponse	0	n/a	n/a	8	27	Fixation	AvoidedLoss	True
267.423	0.45	Lose2	0.6071	0.004	Yes	2.823	-0.004	2.0	GoodResponse	0	0.211	266.634	8	27	Target	AvoidedLoss	True
267.634	0.3	Lose2	0.6071	0.004	Yes	2.823	-0.004	2.0	GoodResponse	0	0.211	n/a	8	27	ButtonPress	AvoidedLoss	True
267.874	0.25	Lose2	0.6071	n/a	Yes	2.823	n/a	n/a	GoodResponse	0	n/a	n/a	8	27	Blank	AvoidedLoss	True
268.125	1.45	Lose2	0.6071	n/a	Yes	2.823	n/a	5.0	GoodResponse	0	0.042	267.167	8	27	Feedback	AvoidedLoss	True
269.58	2.823	Lose2	0.6071	n/a	Yes	2.823	n/a	n/a	GoodResponse	0	0.0	n/a	8	27	ISIslide	AvoidedLoss	True
272.421	0.25	Control	0.5861999999999999	0.0	No	2.829	0.021	n/a	NoResponse	0	n/a	n/a	8	28	Cue	Neutral	False
272.672	4.05	Control	0.5861999999999999	0.0	No	2.829	0.001	n/a	NoResponse	0	n/a	n/a	8	28	Fixation	Neutral	False
276.718	0.46	Control	0.5861999999999999	0.003	No	2.829	-0.003	n/a	NoResponse	0	n/a	n/a	8	28	Target	Neutral	False
277.186	0.24	Control	0.5861999999999999	n/a	No	2.829	n/a	n/a	NoResponse	0	n/a	n/a	8	28	Blank	Neutral	False
277.42	1.45	Control	0.5861999999999999	n/a	No	2.829	n/a	5.0	NoResponse	0	0.015	276.435	8	28	Feedback	Neutral	False
278.874	2.829	Control	0.5861999999999999	n/a	No	2.829	n/a	n/a	NoResponse	0	0.0	n/a	8	28	ISIslide	Neutral	False
281.716	0.25	Lose2	0.6	0.0	Yes	2.834	0.016	n/a	GoodResponse	0	n/a	n/a	8	29	Cue	AvoidedLoss	True
281.967	3.95	Lose2	0.6	0.0	Yes	2.834	0.001	n/a	GoodResponse	0	n/a	n/a	8	29	Fixation	AvoidedLoss	True
285.912	0.47	Lose2	0.6	0.004	Yes	2.834	-0.004	2.0	GoodResponse	0	0.23	285.142	8	29	Target	AvoidedLoss	True
286.142	0.3	Lose2	0.6	0.004	Yes	2.834	-0.004	2.0	GoodResponse	0	0.23	n/a	8	29	ButtonPress	AvoidedLoss	True
286.396	0.23	Lose2	0.6	n/a	Yes	2.834	n/a	n/a	GoodResponse	0	n/a	n/a	8	29	Blank	AvoidedLoss	True
286.614	1.45	Lose2	0.6	n/a	Yes	2.834	n/a	5.0	GoodResponse	0	0.04	285.654	8	29	Feedback	AvoidedLoss	True
288.068	2.834	Lose2	0.6	n/a	Yes	2.834	n/a	n/a	GoodResponse	0	0.0	n/a	8	29	ISIslide	AvoidedLoss	True
290.927	0.25	Win2	0.6129	0.0	Yes	2.773	0.027	n/a	GoodResponse	1	n/a	n/a	9	30	Cue	Win	True
291.177	3.9	Win2	0.6129	0.001	Yes	2.773	0.0	n/a	GoodResponse	1	n/a	n/a	9	30	Fixation	Win	True
295.089	0.48	Win2	0.6129	0.0	Yes	2.773	0.012	2.0	GoodResponse	1	0.21	294.299	9	30	Target	Win	True
295.299	0.3	Win2	0.6129	0.0	Yes	2.773	0.012	2.0	GoodResponse	1	0.21	n/a	9	30	ButtonPress	Win	True
295.557	0.22	Win2	0.6129	n/a	Yes	2.773	n/a	n/a	GoodResponse	1	n/a	n/a	9	30	Blank	Win	True
295.775	1.45	Win2	0.6129	n/a	Yes	2.773	n/a	5.0	GoodResponse	1	0.002	294.777	9	30	Feedback	Win	True
297.229	2.773	Win2	0.6129	n/a	Yes	2.773	n/a	n/a	GoodResponse	1	0.0	n/a	9	30	ISIslide	Win	True
300.021	0.25	Lose2	0.625	0.0	Yes	2.829	0.021	n/a	GoodResponse	0	n/a	n/a	9	31	Cue	AvoidedLoss	True
300.271	4.05	Lose2	0.625	0.0	Yes	2.829	0.0	n/a	GoodResponse	0	n/a	n/a	9	31	Fixation	AvoidedLoss	True
304.317	0.49	Lose2	0.625	0.004	Yes	2.829	-0.004	2.0	GoodResponse	0	0.207	303.524	9	31	Target	AvoidedLoss	True
304.524	0.3	Lose2	0.625	0.004	Yes	2.829	-0.004	2.0	GoodResponse	0	0.207	n/a	9	31	ButtonPress	AvoidedLoss	True
304.818	0.21	Lose2	0.625	n/a	Yes	2.829	n/a	n/a	GoodResponse	0	n/a	n/a	9	31	Blank	AvoidedLoss	True
305.019	1.45	Lose2	0.625	n/a	Yes	2.829	n/a	5.0	GoodResponse	0	0.026	304.045	9	31	Feedback	AvoidedLoss	True
306.473	2.829	Lose2	0.625	n/a	Yes	2.829	n/a	n/a	GoodResponse	0	0.0	n/a	9	31	ISIslide	AvoidedLoss	True
309.315	0.25	Lose2	0.6364	0.0	Yes	2.635	0.015	n/a	GoodResponse	0	n/a	n/a	9	32	Cue	AvoidedLoss	True
309.566	4.15	Lose2	0.6364	0.0	Yes	2.635	0.001	n/a	GoodResponse	0	n/a	n/a	9	32	Fixation	AvoidedLoss	True
313.711	0.5	Lose2	0.6364	0.004	Yes	2.635	-0.004	2.0	GoodResponse	0	0.225	312.936	9	32	Target	AvoidedLoss	True
313.936	0.3	Lose2	0.6364	0.004	Yes	2.635	-0.004	2.0	GoodResponse	0	0.225	n/a	9	32	ButtonPress	AvoidedLoss	True
314.213	0.2	Lose2	0.6364	n/a	Yes	2.635	n/a	n/a	GoodResponse	0	n/a	n/a	9	32	Blank	AvoidedLoss	True
314.414	1.45	Lose2	0.6364	n/a	Yes	2.635	n/a	5.0	GoodResponse	0	0.046	313.46	9	32	Feedback	AvoidedLoss	True
315.868	2.635	Lose2	0.6364	n/a	Yes	2.635	n/a	n/a	GoodResponse	0	0.0	n/a	9	32	ISIslide	AvoidedLoss	True
318.526	0.25	Win2	0.6470999999999999	0.0	Yes	2.674	0.026	n/a	GoodResponse	1	n/a	n/a	10	33	Cue	Win	True
318.777	4.0	Win2	0.6470999999999999	0.0	Yes	2.674	0.001	n/a	GoodResponse	1	n/a	n/a	10	33	Fixation	Win	True
322.772	0.5	Win2	0.6470999999999999	0.004	Yes	2.674	-0.004	2.0	GoodResponse	1	0.188	321.96	10	33	Target	Win	True
322.96	0.3	Win2	0.6470999999999999	0.004	Yes	2.674	-0.004	2.0	GoodResponse	1	0.188	n/a	10	33	ButtonPress	Win	True
323.273	0.2	Win2	0.6470999999999999	n/a	Yes	2.674	n/a	n/a	GoodResponse	1	n/a	n/a	10	33	Blank	Win	True
323.474	1.45	Win2	0.6470999999999999	n/a	Yes	2.674	n/a	5.0	GoodResponse	1	0.009	322.483	10	33	Feedback	Win	True
324.928	2.674	Win2	0.6470999999999999	n/a	Yes	2.674	n/a	n/a	GoodResponse	1	0.0	n/a	10	33	ISIslide	Win	True
327.62	0.25	Lose2	0.6570999999999999	0.0	Yes	2.63	0.02	n/a	GoodResponse	0	n/a	n/a	10	34	Cue	AvoidedLoss	True
327.87	4.05	Lose2	0.6570999999999999	0.001	Yes	2.63	0.0	n/a	GoodResponse	0	n/a	n/a	10	34	Fixation	AvoidedLoss	True
331.916	0.5	Lose2	0.6570999999999999	0.004	Yes	2.63	-0.004	2.0	GoodResponse	0	0.227	331.143	10	34	Target	AvoidedLoss	True
332.143	0.3	Lose2	0.6570999999999999	0.004	Yes	2.63	-0.004	2.0	GoodResponse	0	0.227	n/a	10	34	ButtonPress	AvoidedLoss	True
332.417	0.2	Lose2	0.6570999999999999	n/a	Yes	2.63	n/a	n/a	GoodResponse	0	n/a	n/a	10	34	Blank	AvoidedLoss	True
332.618	1.45	Lose2	0.6570999999999999	n/a	Yes	2.63	n/a	5.0	GoodResponse	0	0.036	331.654	10	34	Feedback	AvoidedLoss	True
334.072	2.63	Lose2	0.6570999999999999	n/a	Yes	2.63	n/a	n/a	GoodResponse	0	0.0	n/a	10	34	ISIslide	AvoidedLoss	True
336.73	0.25	Lose2	0.6667000000000001	0.0	Yes	2.67	0.03	n/a	GoodResponse	0	n/a	n/a	10	35	Cue	AvoidedLoss	True
336.981	4.0	Lose2	0.6667000000000001	0.0	Yes	2.67	0.001	n/a	GoodResponse	0	n/a	n/a	10	35	Fixation	AvoidedLoss	True
340.976	0.5	Lose2	0.6667000000000001	0.004	Yes	2.67	-0.004	2.0	GoodResponse	0	0.225	340.201	10	35	Target	AvoidedLoss	True
341.201	0.3	Lose2	0.6667000000000001	0.004	Yes	2.67	-0.004	2.0	GoodResponse	0	0.225	n/a	10	35	ButtonPress	AvoidedLoss	True
341.478	0.2	Lose2	0.6667000000000001	n/a	Yes	2.67	n/a	n/a	GoodResponse	0	n/a	n/a	10	35	Blank	AvoidedLoss	True
341.678	1.45	Lose2	0.6667000000000001	n/a	Yes	2.67	n/a	5.0	GoodResponse	0	0.049	340.727	10	35	Feedback	AvoidedLoss	True
343.133	2.67	Lose2	0.6667000000000001	n/a	Yes	2.67	n/a	n/a	GoodResponse	0	0.0	n/a	10	35	ISIslide	AvoidedLoss	True
345.824	0.25	Control	0.6486	0.0	No	2.676	0.024	n/a	NoResponse	0	n/a	n/a	10	36	Cue	Neutral	False
346.075	4.0	Control	0.6486	0.0	No	2.676	0.001	n/a	NoResponse	0	n/a	n/a	10	36	Fixation	Neutral	False
350.07	0.49	Control	0.6486	0.004	No	2.676	-0.004	n/a	NoResponse	0	n/a	n/a	10	36	Target	Neutral	False
350.572	0.21	Control	0.6486	n/a	No	2.676	n/a	n/a	NoResponse	0	n/a	n/a	10	36	Blank	Neutral	False
350.772	1.45	Control	0.6486	n/a	No	2.676	n/a	5.0	NoResponse	0	0.028	349.8	10	36	Feedback	Neutral	False
352.227	2.676	Control	0.6486	n/a	No	2.676	n/a	n/a	NoResponse	0	0.0	n/a	10	36	ISIslide	Neutral	False
354.918	0.25	Win2	0.6579	0.0	Yes	2.882	0.018	n/a	GoodResponse	1	n/a	n/a	11	37	Cue	Win	True
355.169	4.0	Win2	0.6579	0.0	Yes	2.882	0.001	n/a	GoodResponse	1	n/a	n/a	11	37	Fixation	Win	True
359.164	0.5	Win2	0.6579	0.004	Yes	2.882	-0.004	2.0	GoodResponse	1	0.242	358.406	11	37	Target	Win	True
359.406	0.3	Win2	0.6579	0.004	Yes	2.882	-0.004	2.0	GoodResponse	1	0.242	n/a	11	37	ButtonPress	Win	True
359.666	0.2	Win2	0.6579	n/a	Yes	2.882	n/a	n/a	GoodResponse	1	n/a	n/a	11	37	Blank	Win	True
359.866	1.45	Win2	0.6579	n/a	Yes	2.882	n/a	5.0	GoodResponse	1	0.008	358.874	11	37	Feedback	Win	True
361.321	2.882	Win2	0.6579	n/a	Yes	2.882	n/a	n/a	GoodResponse	1	0.0	n/a	11	37	ISIslide	Win	True
364.229	0.25	Lose2	0.6667000000000001	0.0	Yes	2.821	0.029	n/a	GoodResponse	0	n/a	n/a	11	38	Cue	AvoidedLoss	True
364.48	3.95	Lose2	0.6667000000000001	0.0	Yes	2.821	0.001	n/a	GoodResponse	0	n/a	n/a	11	38	Fixation	AvoidedLoss	True
368.425	0.5	Lose2	0.6667000000000001	0.004	Yes	2.821	-0.004	2.0	GoodResponse	0	0.328	367.753	11	38	Target	AvoidedLoss	True
368.753	0.3	Lose2	0.6667000000000001	0.004	Yes	2.821	-0.004	2.0	GoodResponse	0	0.328	n/a	11	38	ButtonPress	AvoidedLoss	True
368.927	0.2	Lose2	0.6667000000000001	n/a	Yes	2.821	n/a	n/a	GoodResponse	0	n/a	n/a	11	38	Blank	AvoidedLoss	True
369.127	1.45	Lose2	0.6667000000000001	n/a	Yes	2.821	n/a	5.0	GoodResponse	0	0.014	368.141	11	38	Feedback	AvoidedLoss	True
370.582	2.821	Lose2	0.6667000000000001	n/a	Yes	2.821	n/a	n/a	GoodResponse	0	0.0	n/a	11	38	ISIslide	AvoidedLoss	True
373.423	0.25	Win2	0.675	0.0	Yes	2.977	0.023	n/a	GoodResponse	1	n/a	n/a	12	39	Cue	Win	True
373.674	4.1	Win2	0.675	0.0	Yes	2.977	0.001	n/a	GoodResponse	1	n/a	n/a	12	39	Fixation	Win	True
377.77	0.49	Win2	0.675	0.003	Yes	2.977	-0.003	2.0	GoodResponse	1	0.265	377.035	12	39	Target	Win	True
378.035	0.3	Win2	0.675	0.003	Yes	2.977	-0.003	2.0	GoodResponse	1	0.265	n/a	12	39	ButtonPress	Win	True
378.271	0.21	Win2	0.675	n/a	Yes	2.977	n/a	n/a	GoodResponse	1	n/a	n/a	12	39	Blank	Win	True
378.472	1.45	Win2	0.675	n/a	Yes	2.977	n/a	5.0	GoodResponse	1	0.035	377.507	12	39	Feedback	Win	True
379.926	2.977	Win2	0.675	n/a	Yes	2.977	n/a	n/a	GoodResponse	1	0.0	n/a	12	39	ISIslide	Win	True
382.918	0.25	Win2	0.6829000000000001	0.001	Yes	2.732	0.018	n/a	GoodResponse	1	n/a	n/a	13	40	Cue	Win	True
383.169	3.95	Win2	0.6829000000000001	0.0	Yes	2.732	0.001	n/a	GoodResponse	1	n/a	n/a	13	40	Fixation	Win	True
387.114	0.48	Win2	0.6829000000000001	0.004	Yes	2.732	-0.004	2.0	GoodResponse	1	0.23	386.344	13	40	Target	Win	True
387.344	0.3	Win2	0.6829000000000001	0.004	Yes	2.732	-0.004	2.0	GoodResponse	1	0.23	n/a	13	40	ButtonPress	Win	True
387.599	0.22	Win2	0.6829000000000001	n/a	Yes	2.732	n/a	n/a	GoodResponse	1	n/a	n/a	13	40	Blank	Win	True
387.816	1.45	Win2	0.6829000000000001	n/a	Yes	2.732	n/a	5.0	GoodResponse	1	0.008	386.824	13	40	Feedback	Win	True
389.271	2.732	Win2	0.6829000000000001	n/a	Yes	2.732	n/a	n/a	GoodResponse	1	0.0	n/a	13	40	ISIslide	Win	True
392.029	0.25	Win2	0.6905	0.0	Yes	2.771	0.029	n/a	GoodResponse	1	n/a	n/a	14	41	Cue	Win	True
392.28	3.9	Win2	0.6905	0.0	Yes	2.771	0.001	n/a	GoodResponse	1	n/a	n/a	14	41	Fixation	Win	True
396.175	0.47	Win2	0.6905	0.004	Yes	2.771	-0.004	2.0	GoodResponse	1	0.229	395.404	14	41	Target	Win	True
396.404	0.3	Win2	0.6905	0.004	Yes	2.771	-0.004	2.0	GoodResponse	1	0.229	n/a	14	41	ButtonPress	Win	True
396.66	0.23	Win2	0.6905	n/a	Yes	2.771	n/a	n/a	GoodResponse	1	n/a	n/a	14	41	Blank	Win	True
396.877	1.45	Win2	0.6905	n/a	Yes	2.771	n/a	5.0	GoodResponse	1	0.021	395.898	14	41	Feedback	Win	True
398.331	2.771	Win2	0.6905	n/a	Yes	2.771	n/a	n/a	GoodResponse	1	0.0	n/a	14	41	ISIslide	Win	True
401.123	0.25	Control	0.6744	0.0	No	2.927	0.023	n/a	NoResponse	0	n/a	n/a	14	42	Cue	Neutral	False
401.374	3.85	Control	0.6744	0.0	No	2.927	0.001	n/a	NoResponse	0	n/a	n/a	14	42	Fixation	Neutral	False
405.235	0.46	Control	0.6744	0.0	No	2.927	0.012	n/a	NoResponse	0	n/a	n/a	14	42	Target	Neutral	False
405.686	0.24	Control	0.6744	n/a	No	2.927	n/a	n/a	NoResponse	0	n/a	n/a	14	42	Blank	Neutral	False
405.921	1.45	Control	0.6744	n/a	No	2.927	n/a	5.0	NoResponse	0	0.0	404.921	14	42	Feedback	Neutral	False
407.375	2.927	Control	0.6744	n/a	No	2.927	n/a	n/a	NoResponse	0	0.0	n/a	14	42	ISIslide	Neutral	False
410.317	0.25	Win2	0.6818000000000001	0.0	Yes	3.183	0.017	n/a	GoodResponse	1	n/a	n/a	15	43	Cue	Win	True
410.568	4.0	Win2	0.6818000000000001	0.0	Yes	3.183	0.001	n/a	GoodResponse	1	n/a	n/a	15	43	Fixation	Win	True
414.563	0.45	Win2	0.6818000000000001	0.004	Yes	3.183	-0.004	2.0	GoodResponse	1	0.24	413.803	15	43	Target	Win	True
414.803	0.3	Win2	0.6818000000000001	0.004	Yes	3.183	-0.004	2.0	GoodResponse	1	0.24	n/a	15	43	ButtonPress	Win	True
415.014	0.25	Win2	0.6818000000000001	n/a	Yes	3.183	n/a	n/a	GoodResponse	1	n/a	n/a	15	43	Blank	Win	True
415.265	1.45	Win2	0.6818000000000001	n/a	Yes	3.183	n/a	5.0	GoodResponse	1	0.022	414.287	15	43	Feedback	Win	True
416.719	3.183	Win2	0.6818000000000001	n/a	Yes	3.183	n/a	n/a	GoodResponse	1	0.0	n/a	15	43	ISIslide	Win	True
419.929	0.25	Win2	0.6889	0.0	Yes	2.971	0.029	n/a	GoodResponse	1	n/a	n/a	16	44	Cue	Win	True
420.18	4.0	Win2	0.6889	0.0	Yes	2.971	0.001	n/a	GoodResponse	1	n/a	n/a	16	44	Fixation	Win	True
424.175	0.44	Win2	0.6889	0.004	Yes	2.971	-0.004	2.0	GoodResponse	1	0.235	423.41	16	44	Target	Win	True
424.41	0.3	Win2	0.6889	0.004	Yes	2.971	-0.004	2.0	GoodResponse	1	0.235	n/a	16	44	ButtonPress	Win	True
424.626	0.26	Win2	0.6889	n/a	Yes	2.971	n/a	n/a	GoodResponse	1	n/a	n/a	16	44	Blank	Win	True
424.877	1.45	Win2	0.6889	n/a	Yes	2.971	n/a	5.0	GoodResponse	1	0.02	423.897	16	44	Feedback	Win	True
426.332	2.971	Win2	0.6889	n/a	Yes	2.971	n/a	n/a	GoodResponse	1	0.0	n/a	16	44	ISIslide	Win	True
429.324	0.25	Control	0.6739	0.0	No	2.876	0.024	n/a	NoResponse	0	n/a	n/a	16	45	Cue	Neutral	False
429.575	4.1	Control	0.6739	0.0	No	2.876	0.001	n/a	NoResponse	0	n/a	n/a	16	45	Fixation	Neutral	False
433.67	0.43	Control	0.6739	0.004	No	2.876	-0.004	n/a	NoResponse	0	n/a	n/a	16	45	Target	Neutral	False
434.105	0.27	Control	0.6739	n/a	No	2.876	n/a	n/a	NoResponse	0	n/a	n/a	16	45	Blank	Neutral	False
434.372	1.45	Control	0.6739	n/a	No	2.876	n/a	5.0	NoResponse	0	0.037	433.409	16	45	Feedback	Neutral	False
435.827	2.876	Control	0.6739	n/a	No	2.876	n/a	n/a	NoResponse	0	0.0	n/a	16	45	ISIslide	Neutral	False
438.719	0.25	Lose2	0.6809000000000001	0.0	Yes	3.381	0.019	n/a	GoodResponse	0	n/a	n/a	16	46	Cue	AvoidedLoss	True
438.969	4.0	Lose2	0.6809000000000001	0.0	Yes	3.381	0.0	n/a	GoodResponse	0	n/a	n/a	16	46	Fixation	AvoidedLoss	True
442.965	0.42	Lose2	0.6809000000000001	0.004	Yes	3.381	-0.004	2.0	GoodResponse	0	0.229	442.194	16	46	Target	AvoidedLoss	True
443.194	0.3	Lose2	0.6809000000000001	0.004	Yes	3.381	-0.004	2.0	GoodResponse	0	0.229	n/a	16	46	ButtonPress	AvoidedLoss	True
443.399	0.28	Lose2	0.6809000000000001	n/a	Yes	3.381	n/a	n/a	GoodResponse	0	n/a	n/a	16	46	Blank	AvoidedLoss	True
443.667	1.45	Lose2	0.6809000000000001	n/a	Yes	3.381	n/a	5.0	GoodResponse	0	0.011	442.678	16	46	Feedback	AvoidedLoss	True
445.121	3.381	Lose2	0.6809000000000001	n/a	Yes	3.381	n/a	n/a	GoodResponse	0	0.0	n/a	16	46	ISIslide	AvoidedLoss	True
448.515	0.25	Lose2	0.6875	0.0	Yes	2.685	0.015	n/a	GoodResponse	0	n/a	n/a	16	47	Cue	AvoidedLoss	True
448.765	4.0	Lose2	0.6875	0.0	Yes	2.685	0.0	n/a	GoodResponse	0	n/a	n/a	16	47	Fixation	AvoidedLoss	True
452.761	0.41	Lose2	0.6875	0.004	Yes	2.685	-0.004	2.0	GoodResponse	0	0.215	451.976	16	47	Target	AvoidedLoss	True
452.976	0.3	Lose2	0.6875	0.004	Yes	2.685	-0.004	2.0	GoodResponse	0	0.215	n/a	16	47	ButtonPress	AvoidedLoss	True
453.178	0.29	Lose2	0.6875	n/a	Yes	2.685	n/a	n/a	GoodResponse	0	n/a	n/a	16	47	Blank	AvoidedLoss	True
453.463	1.45	Lose2	0.6875	n/a	Yes	2.685	n/a	5.0	GoodResponse	0	0.019	452.482	16	47	Feedback	AvoidedLoss	True
454.917	2.685	Lose2	0.6875	n/a	Yes	2.685	n/a	n/a	GoodResponse	0	0.0	n/a	16	47	ISIslide	AvoidedLoss	True
457.625	0.25	Lose2	0.6939	0.0	Yes	3.025	0.025	n/a	GoodResponse	0	n/a	n/a	16	48	Cue	AvoidedLoss	True
457.876	3.95	Lose2	0.6939	0.0	Yes	3.025	0.001	n/a	GoodResponse	0	n/a	n/a	16	48	Fixation	AvoidedLoss	True
461.821	0.4	Lose2	0.6939	0.004	Yes	3.025	-0.004	2.0	GoodResponse	0	0.245	461.066	16	48	Target	AvoidedLoss	True
462.066	0.3	Lose2	0.6939	0.004	Yes	3.025	-0.004	2.0	GoodResponse	0	0.245	n/a	16	48	ButtonPress	AvoidedLoss	True
462.222	0.3	Lose2	0.6939	n/a	Yes	3.025	n/a	n/a	GoodResponse	0	n/a	n/a	16	48	Blank	AvoidedLoss	True
462.523	1.45	Lose2	0.6939	n/a	Yes	3.025	n/a	5.0	GoodResponse	0	0.032	461.555	16	48	Feedback	AvoidedLoss	True
463.977	3.025	Lose2	0.6939	n/a	Yes	3.025	n/a	n/a	GoodResponse	0	0.0	n/a	16	48	ISIslide	AvoidedLoss	True
467.02	0.25	Control	0.68	0.0	No	2.88	0.02	n/a	NoResponse	0	n/a	n/a	16	49	Cue	Neutral	False
467.271	4.0	Control	0.68	0.0	No	2.88	0.001	n/a	NoResponse	0	n/a	n/a	16	49	Fixation	Neutral	False
471.266	0.39	Control	0.68	0.004	No	2.88	-0.004	n/a	NoResponse	0	n/a	n/a	16	49	Target	Neutral	False
471.667	0.31	Control	0.68	n/a	No	2.88	n/a	n/a	NoResponse	0	n/a	n/a	16	49	Blank	Neutral	False
471.968	1.45	Control	0.68	n/a	No	2.88	n/a	5.0	NoResponse	0	0.002	470.97	16	49	Feedback	Neutral	False
473.422	2.88	Control	0.68	n/a	No	2.88	n/a	n/a	NoResponse	0	0.0	n/a	16	49	ISIslide	Neutral	False
476.331	0.25	Control	0.6667000000000001	0.0	No	2.769	0.031	n/a	NoResponse	0	n/a	n/a	16	50	Cue	Neutral	False
476.582	4.0	Control	0.6667000000000001	0.0	No	2.769	0.001	n/a	NoResponse	0	n/a	n/a	16	50	Fixation	Neutral	False
480.577	0.38	Control	0.6667000000000001	0.004	No	2.769	-0.004	n/a	NoResponse	0	n/a	n/a	16	50	Target	Neutral	False
480.962	0.32	Control	0.6667000000000001	n/a	No	2.769	n/a	n/a	NoResponse	0	n/a	n/a	16	50	Blank	Neutral	False
481.279	1.45	Control	0.6667000000000001	n/a	No	2.769	n/a	5.0	NoResponse	0	0.008	480.287	16	50	Feedback	Neutral	False
482.734	2.769	Control	0.6667000000000001	n/a	No	2.769	n/a	n/a	NoResponse	0	0.0	n/a	16	50	ISIslide	Neutral	False
485.525	0.25	Control	0.6537999999999999	0.0	No	2.725	0.025	n/a	NoResponse	0	n/a	n/a	16	51	Cue	Neutral	False
485.776	3.95	Control	0.6537999999999999	0.0	No	2.725	0.001	n/a	NoResponse	0	n/a	n/a	16	51	Fixation	Neutral	False
489.721	0.37	Control	0.6537999999999999	0.004	No	2.725	-0.004	n/a	NoResponse	0	n/a	n/a	16	51	Target	Neutral	False
490.106	0.33	Control	0.6537999999999999	n/a	No	2.725	n/a	n/a	NoResponse	0	n/a	n/a	16	51	Blank	Neutral	False
490.423	1.45	Control	0.6537999999999999	n/a	No	2.725	n/a	5.0	NoResponse	0	0.034	489.457	16	51	Feedback	Neutral	False
491.878	2.725	Control	0.6537999999999999	n/a	No	2.725	n/a	n/a	NoResponse	0	0.0	n/a	16	51	ISIslide	Neutral	False
494.619	0.25	Control	0.6415000000000001	0.0	No	2.631	0.019	n/a	NoResponse	0	n/a	n/a	16	52	Cue	Neutral	False
494.87	4.05	Control	0.6415000000000001	0.0	No	2.631	0.001	n/a	NoResponse	0	n/a	n/a	16	52	Fixation	Neutral	False
498.915	0.38	Control	0.6415000000000001	0.004	No	2.631	-0.004	n/a	NoResponse	0	n/a	n/a	16	52	Target	Neutral	False
499.3	0.32	Control	0.6415000000000001	n/a	No	2.631	n/a	n/a	NoResponse	0	n/a	n/a	16	52	Blank	Neutral	False
499.617	1.45	Control	0.6415000000000001	n/a	No	2.631	n/a	5.0	NoResponse	0	0.01	498.627	16	52	Feedback	Neutral	False
501.072	2.631	Control	0.6415000000000001	n/a	No	2.631	n/a	n/a	NoResponse	0	0.0	n/a	16	52	ISIslide	Neutral	False
503.73	0.25	Win2	0.6481	0.0	Yes	2.92	0.03	n/a	GoodResponse	1	n/a	n/a	17	53	Cue	Win	True
503.98	4.05	Win2	0.6481	0.0	Yes	2.92	0.0	n/a	GoodResponse	1	n/a	n/a	17	53	Fixation	Win	True
508.026	0.39	Win2	0.6481	0.004	Yes	2.92	-0.004	2.0	GoodResponse	1	0.229	507.255	17	53	Target	Win	True
508.255	0.3	Win2	0.6481	0.004	Yes	2.92	-0.004	2.0	GoodResponse	1	0.229	n/a	17	53	ButtonPress	Win	True
508.427	0.31	Win2	0.6481	n/a	Yes	2.92	n/a	n/a	GoodResponse	1	n/a	n/a	17	53	Blank	Win	True
508.728	1.45	Win2	0.6481	n/a	Yes	2.92	n/a	5.0	GoodResponse	1	0.021	507.749	17	53	Feedback	Win	True
510.182	2.92	Win2	0.6481	n/a	Yes	2.92	n/a	n/a	GoodResponse	1	0.0	n/a	17	53	ISIslide	Win	True
513.124	0.25	Win2	0.6545000000000001	0.0	Yes	2.726	0.024	n/a	GoodResponse	1	n/a	n/a	18	54	Cue	Win	True
513.375	3.95	Win2	0.6545000000000001	0.0	Yes	2.726	0.001	n/a	GoodResponse	1	n/a	n/a	18	54	Fixation	Win	True
517.32	0.4	Win2	0.6545000000000001	0.004	Yes	2.726	-0.004	2.0	GoodResponse	1	0.211	516.531	18	54	Target	Win	True
517.531	0.3	Win2	0.6545000000000001	0.004	Yes	2.726	-0.004	2.0	GoodResponse	1	0.211	n/a	18	54	ButtonPress	Win	True
517.721	0.3	Win2	0.6545000000000001	n/a	Yes	2.726	n/a	n/a	GoodResponse	1	n/a	n/a	18	54	Blank	Win	True
518.022	1.45	Win2	0.6545000000000001	n/a	Yes	2.726	n/a	5.0	GoodResponse	1	0.045	517.067	18	54	Feedback	Win	True
519.477	2.726	Win2	0.6545000000000001	n/a	Yes	2.726	n/a	n/a	GoodResponse	1	0.0	n/a	18	54	ISIslide	Win	True
522.218	0.25	Control	0.6429	0.0	No	3.032	0.018	n/a	NoResponse	0	n/a	n/a	18	55	Cue	Neutral	False
522.469	3.95	Control	0.6429	0.0	No	3.032	0.001	n/a	NoResponse	0	n/a	n/a	18	55	Fixation	Neutral	False
526.414	0.41	Control	0.6429	0.004	No	3.032	-0.004	n/a	NoResponse	0	n/a	n/a	18	55	Target	Neutral	False
526.832	0.29	Control	0.6429	n/a	No	3.032	n/a	n/a	NoResponse	0	n/a	n/a	18	55	Blank	Neutral	False
527.116	1.45	Control	0.6429	n/a	No	3.032	n/a	5.0	NoResponse	0	0.024	526.14	18	55	Feedback	Neutral	False
528.571	3.032	Control	0.6429	n/a	No	3.032	n/a	n/a	NoResponse	0	0.0	n/a	18	55	ISIslide	Neutral	False
531.63	0.25	Control	0.6315999999999999	0.0	No	2.82	0.03	n/a	NoResponse	0	n/a	n/a	18	56	Cue	Neutral	False
531.88	3.95	Control	0.6315999999999999	0.001	No	2.82	0.0	n/a	NoResponse	0	n/a	n/a	18	56	Fixation	Neutral	False
535.826	0.42	Control	0.6315999999999999	0.004	No	2.82	-0.004	n/a	NoResponse	0	n/a	n/a	18	56	Target	Neutral	False
536.26	0.28	Control	0.6315999999999999	n/a	No	2.82	n/a	n/a	NoResponse	0	n/a	n/a	18	56	Blank	Neutral	False
536.528	1.45	Control	0.6315999999999999	n/a	No	2.82	n/a	5.0	NoResponse	0	0.026	535.554	18	56	Feedback	Neutral	False
537.982	2.82	Control	0.6315999999999999	n/a	No	2.82	n/a	n/a	NoResponse	0	0.0	n/a	18	56	ISIslide	Neutral	False
540.824	0.25	Control	0.6207	0.0	No	3.476	0.024	n/a	NoResponse	0	n/a	n/a	18	57	Cue	Neutral	False
541.075	4.0	Control	0.6207	0.0	No	3.476	0.001	n/a	NoResponse	0	n/a	n/a	18	57	Fixation	Neutral	False
545.07	0.43	Control	0.6207	0.004	No	3.476	-0.004	n/a	NoResponse	0	n/a	n/a	18	57	Target	Neutral	False
545.505	0.27	Control	0.6207	n/a	No	3.476	n/a	n/a	NoResponse	0	n/a	n/a	18	57	Blank	Neutral	False
545.772	1.45	Control	0.6207	n/a	No	3.476	n/a	5.0	NoResponse	0	0.001	544.773	18	57	Feedback	Neutral	False
547.226	3.476	Control	0.6207	n/a	No	3.476	n/a	n/a	NoResponse	0	0.0	n/a	18	57	ISIslide	Neutral	False
550.72	0.25	Win2	0.6271	0.0	Yes	2.73	0.02	n/a	GoodResponse	1	n/a	n/a	19	58	Cue	Win	True
550.971	4.05	Win2	0.6271	0.0	Yes	2.73	0.001	n/a	GoodResponse	1	n/a	n/a	19	58	Fixation	Win	True
555.016	0.44	Win2	0.6271	0.004	Yes	2.73	-0.004	2.0	GoodResponse	1	0.247	554.263	19	58	Target	Win	True
555.263	0.3	Win2	0.6271	0.004	Yes	2.73	-0.004	2.0	GoodResponse	1	0.247	n/a	19	58	ButtonPress	Win	True
555.468	0.26	Win2	0.6271	n/a	Yes	2.73	n/a	n/a	GoodResponse	1	n/a	n/a	19	58	Blank	Win	True
555.718	1.45	Win2	0.6271	n/a	Yes	2.73	n/a	5.0	GoodResponse	1	0.008	554.726	19	58	Feedback	Win	True
557.173	2.73	Win2	0.6271	n/a	Yes	2.73	n/a	n/a	GoodResponse	1	0.0	n/a	19	58	ISIslide	Win	True
559.931	0.25	Lose2	0.6333	0.0	Yes	2.669	0.031	n/a	GoodResponse	0	n/a	n/a	19	59	Cue	AvoidedLoss	True
560.182	4.0	Lose2	0.6333	0.0	Yes	2.669	0.001	n/a	GoodResponse	0	n/a	n/a	19	59	Fixation	AvoidedLoss	True
564.177	0.45	Lose2	0.6333	0.004	Yes	2.669	-0.004	2.0	GoodResponse	0	0.259	563.436	19	59	Target	AvoidedLoss	True
564.436	0.3	Lose2	0.6333	0.004	Yes	2.669	-0.004	2.0	GoodResponse	0	0.259	n/a	19	59	ButtonPress	AvoidedLoss	True
564.628	0.25	Lose2	0.6333	n/a	Yes	2.669	n/a	n/a	GoodResponse	0	n/a	n/a	19	59	Blank	AvoidedLoss	True
564.879	1.45	Lose2	0.6333	n/a	Yes	2.669	n/a	5.0	GoodResponse	0	0.016	563.895	19	59	Feedback	AvoidedLoss	True
566.333	2.669	Lose2	0.6333	n/a	Yes	2.669	n/a	n/a	GoodResponse	0	0.0	n/a	19	59	ISIslide	AvoidedLoss	True
569.025	0.25	Control	0.623	0.0	No	2.675	0.025	n/a	NoResponse	0	n/a	n/a	19	60	Cue	Neutral	False
569.276	4.0	Control	0.623	0.0	No	2.675	0.001	n/a	NoResponse	0	n/a	n/a	19	60	Fixation	Neutral	False
573.271	0.46	Control	0.623	0.004	No	2.675	-0.004	n/a	NoResponse	0	n/a	n/a	19	60	Target	Neutral	False
573.739	0.24	Control	0.623	n/a	No	2.675	n/a	n/a	NoResponse	0	n/a	n/a	19	60	Blank	Neutral	False
573.973	1.45	Control	0.623	n/a	No	2.675	n/a	5.0	NoResponse	0	0.044	573.017	19	60	Feedback	Neutral	False
575.427	2.675	Control	0.623	n/a	No	2.675	n/a	n/a	NoResponse	0	0.0	n/a	19	60	ISIslide	Neutral	False
578.119	0.25	Lose2	0.629	0.0	Yes	2.981	0.019	n/a	GoodResponse	0	n/a	n/a	19	61	Cue	AvoidedLoss	True
578.369	4.0	Lose2	0.629	0.001	Yes	2.981	0.0	n/a	GoodResponse	0	n/a	n/a	19	61	Fixation	AvoidedLoss	True
582.365	0.47	Lose2	0.629	0.004	Yes	2.981	-0.004	2.0	GoodResponse	0	0.224	581.589	19	61	Target	AvoidedLoss	True
582.589	0.3	Lose2	0.629	0.004	Yes	2.981	-0.004	2.0	GoodResponse	0	0.224	n/a	19	61	ButtonPress	AvoidedLoss	True
582.85	0.23	Lose2	0.629	n/a	Yes	2.981	n/a	n/a	GoodResponse	0	n/a	n/a	19	61	Blank	AvoidedLoss	True
583.067	1.45	Lose2	0.629	n/a	Yes	2.981	n/a	5.0	GoodResponse	0	0.023	582.09	19	61	Feedback	AvoidedLoss	True
584.521	2.981	Lose2	0.629	n/a	Yes	2.981	n/a	n/a	GoodResponse	0	0.0	n/a	19	61	ISIslide	AvoidedLoss	True
587.53	0.25	Lose2	0.6349	0.0	Yes	2.87	0.03	n/a	GoodResponse	0	n/a	n/a	19	62	Cue	AvoidedLoss	True
587.781	3.9	Lose2	0.6349	0.0	Yes	2.87	0.001	n/a	GoodResponse	0	n/a	n/a	19	62	Fixation	AvoidedLoss	True
591.676	0.48	Lose2	0.6349	0.004	Yes	2.87	-0.004	2.0	GoodResponse	0	0.206	590.882	19	62	Target	AvoidedLoss	True
591.882	0.3	Lose2	0.6349	0.004	Yes	2.87	-0.004	2.0	GoodResponse	0	0.206	n/a	19	62	ButtonPress	AvoidedLoss	True
592.161	0.22	Lose2	0.6349	n/a	Yes	2.87	n/a	n/a	GoodResponse	0	n/a	n/a	19	62	Blank	AvoidedLoss	True
592.378	1.45	Lose2	0.6349	n/a	Yes	2.87	n/a	5.0	GoodResponse	0	0.029	591.407	19	62	Feedback	AvoidedLoss	True
593.832	2.87	Lose2	0.6349	n/a	Yes	2.87	n/a	n/a	GoodResponse	0	0.0	n/a	19	62	ISIslide	AvoidedLoss	True
596.724	0.25	Lose2	0.6406000000000001	0.0	Yes	2.626	0.024	n/a	GoodResponse	0	n/a	n/a	19	63	Cue	AvoidedLoss	True
596.975	4.05	Lose2	0.6406000000000001	0.0	Yes	2.626	0.001	n/a	GoodResponse	0	n/a	n/a	19	63	Fixation	AvoidedLoss	True
601.021	0.49	Lose2	0.6406000000000001	0.003	Yes	2.626	-0.003	2.0	GoodResponse	0	0.213	600.234	19	63	Target	AvoidedLoss	True
601.234	0.3	Lose2	0.6406000000000001	0.003	Yes	2.626	-0.003	2.0	GoodResponse	0	0.213	n/a	19	63	ButtonPress	AvoidedLoss	True
601.522	0.21	Lose2	0.6406000000000001	n/a	Yes	2.626	n/a	n/a	GoodResponse	0	n/a	n/a	19	63	Blank	AvoidedLoss	True
601.723	1.45	Lose2	0.6406000000000001	n/a	Yes	2.626	n/a	5.0	GoodResponse	0	0.001	600.724	19	63	Feedback	AvoidedLoss	True
603.177	2.626	Lose2	0.6406000000000001	n/a	Yes	2.626	n/a	n/a	GoodResponse	0	0.0	n/a	19	63	ISIslide	AvoidedLoss	True
605.818	0.25	Win2	0.6462	0.0	Yes	3.132	0.018	n/a	GoodResponse	1	n/a	n/a	20	64	Cue	Win	True
606.069	4.15	Win2	0.6462	0.0	Yes	3.132	0.001	n/a	GoodResponse	1	n/a	n/a	20	64	Fixation	Win	True
610.215	0.5	Win2	0.6462	0.003	Yes	3.132	-0.003	2.0	GoodResponse	1	0.206	609.421	20	64	Target	Win	True
610.421	0.3	Win2	0.6462	0.003	Yes	3.132	-0.003	2.0	GoodResponse	1	0.206	n/a	20	64	ButtonPress	Win	True
610.716	0.2	Win2	0.6462	n/a	Yes	3.132	n/a	n/a	GoodResponse	1	n/a	n/a	20	64	Blank	Win	True
610.917	1.45	Win2	0.6462	n/a	Yes	3.132	n/a	5.0	GoodResponse	1	0.027	609.944	20	64	Feedback	Win	True
612.371	3.132	Win2	0.6462	n/a	Yes	3.132	n/a	n/a	GoodResponse	1	0.0	n/a	20	64	ISIslide	Win	True
615.531	0.25	Control	0.6364	0.0	No	2.769	0.031	n/a	NoResponse	0	n/a	n/a	20	65	Cue	Neutral	False
615.781	4.0	Control	0.6364	0.0	No	2.769	0.0	n/a	NoResponse	0	n/a	n/a	20	65	Fixation	Neutral	False
619.777	0.5	Control	0.6364	0.004	No	2.769	-0.004	n/a	NoResponse	0	n/a	n/a	20	65	Target	Neutral	False
620.278	0.2	Control	0.6364	n/a	No	2.769	n/a	n/a	NoResponse	0	n/a	n/a	20	65	Blank	Neutral	False
620.479	1.45	Control	0.6364	n/a	No	2.769	n/a	5.0	NoResponse	0	0.025	619.504	20	65	Feedback	Neutral	False
621.933	2.769	Control	0.6364	n/a	No	2.769	n/a	n/a	NoResponse	0	0.0	n/a	20	65	ISIslide	Neutral	False
624.725	0.25	Win2	0.6418	0.0	Yes	2.775	0.025	n/a	GoodResponse	1	n/a	n/a	21	66	Cue	Win	True
624.975	3.9	Win2	0.6418	0.001	Yes	2.775	0.0	n/a	GoodResponse	1	n/a	n/a	21	66	Fixation	Win	True
628.887	0.5	Win2	0.6418	0.0	Yes	2.775	0.012	2.0	GoodResponse	1	0.253	628.14	21	66	Target	Win	True
629.14	0.3	Win2	0.6418	0.0	Yes	2.775	0.012	2.0	GoodResponse	1	0.253	n/a	21	66	ButtonPress	Win	True
629.372	0.2	Win2	0.6418	n/a	Yes	2.775	n/a	n/a	GoodResponse	1	n/a	n/a	21	66	Blank	Win	True
629.573	1.45	Win2	0.6418	n/a	Yes	2.775	n/a	5.0	GoodResponse	1	0.007	628.58	21	66	Feedback	Win	True
631.027	2.775	Win2	0.6418	n/a	Yes	2.775	n/a	n/a	GoodResponse	1	0.0	n/a	21	66	ISIslide	Win	True
633.819	0.25	Control	0.6324000000000001	0.0	No	2.731	0.019	n/a	NoResponse	0	n/a	n/a	21	67	Cue	Neutral	False
634.069	3.95	Control	0.6324000000000001	0.0	No	2.731	0.0	n/a	NoResponse	0	n/a	n/a	21	67	Fixation	Neutral	False
638.014	0.5	Control	0.6324000000000001	0.005	No	2.731	-0.005	n/a	NoResponse	0	n/a	n/a	21	67	Target	Neutral	False
638.516	0.2	Control	0.6324000000000001	n/a	No	2.731	n/a	n/a	NoResponse	0	n/a	n/a	21	67	Blank	Neutral	False
638.717	1.45	Control	0.6324000000000001	n/a	No	2.731	n/a	5.0	NoResponse	0	0.031	637.748	21	67	Feedback	Neutral	False
640.171	2.731	Control	0.6324000000000001	n/a	No	2.731	n/a	n/a	NoResponse	0	0.0	n/a	21	67	ISIslide	Neutral	False
642.929	0.25	Win2	0.6377	0.0	Yes	3.071	0.029	n/a	GoodResponse	1	n/a	n/a	22	68	Cue	Win	True
643.18	4.0	Win2	0.6377	0.0	Yes	3.071	0.001	n/a	GoodResponse	1	n/a	n/a	22	68	Fixation	Win	True
647.175	0.5	Win2	0.6377	0.004	Yes	3.071	-0.004	2.0	GoodResponse	1	0.214	646.389	22	68	Target	Win	True
647.389	0.3	Win2	0.6377	0.004	Yes	3.071	-0.004	2.0	GoodResponse	1	0.214	n/a	22	68	ButtonPress	Win	True
647.677	0.2	Win2	0.6377	n/a	Yes	3.071	n/a	n/a	GoodResponse	1	n/a	n/a	22	68	Blank	Win	True
647.877	1.45	Win2	0.6377	n/a	Yes	3.071	n/a	5.0	GoodResponse	1	0.042	646.919	22	68	Feedback	Win	True
649.332	3.071	Win2	0.6377	n/a	Yes	3.071	n/a	n/a	GoodResponse	1	0.0	n/a	22	68	ISIslide	Win	True
652.424	0.25	Win2	0.6429	0.0	Yes	3.226	0.024	n/a	GoodResponse	1	n/a	n/a	23	69	Cue	Win	True
652.675	3.95	Win2	0.6429	0.0	Yes	3.226	0.001	n/a	GoodResponse	1	n/a	n/a	23	69	Fixation	Win	True
656.62	0.5	Win2	0.6429	0.004	Yes	3.226	-0.004	2.0	GoodResponse	1	0.215	655.835	23	69	Target	Win	True
656.835	0.3	Win2	0.6429	0.004	Yes	3.226	-0.004	2.0	GoodResponse	1	0.215	n/a	23	69	ButtonPress	Win	True
657.122	0.2	Win2	0.6429	n/a	Yes	3.226	n/a	n/a	GoodResponse	1	n/a	n/a	23	69	Blank	Win	True
657.322	1.45	Win2	0.6429	n/a	Yes	3.226	n/a	5.0	GoodResponse	1	0.011	656.333	23	69	Feedback	Win	True
658.777	3.226	Win2	0.6429	n/a	Yes	3.226	n/a	n/a	GoodResponse	1	0.0	n/a	23	69	ISIslide	Win	True
662.02	0.25	Lose2	0.6479	0.0	Yes	3.03	0.02	n/a	GoodResponse	0	n/a	n/a	23	70	Cue	AvoidedLoss	True
662.27	4.05	Lose2	0.6479	0.0	Yes	3.03	0.0	n/a	GoodResponse	0	n/a	n/a	23	70	Fixation	AvoidedLoss	True
666.316	0.5	Lose2	0.6479	0.004	Yes	3.03	-0.004	2.0	GoodResponse	0	0.221	665.537	23	70	Target	AvoidedLoss	True
666.537	0.3	Lose2	0.6479	0.004	Yes	3.03	-0.004	2.0	GoodResponse	0	0.221	n/a	23	70	ButtonPress	AvoidedLoss	True
666.817	0.2	Lose2	0.6479	n/a	Yes	3.03	n/a	n/a	GoodResponse	0	n/a	n/a	23	70	Blank	AvoidedLoss	True
667.018	1.45	Lose2	0.6479	n/a	Yes	3.03	n/a	5.0	GoodResponse	0	0.022	666.04	23	70	Feedback	AvoidedLoss	True
668.472	3.03	Lose2	0.6479	n/a	Yes	3.03	n/a	n/a	GoodResponse	0	0.0	n/a	23	70	ISIslide	AvoidedLoss	True
671.531	0.25	Win2	0.6528	0.0	Yes	2.719	0.031	n/a	GoodResponse	1	n/a	n/a	24	71	Cue	Win	True
671.782	4.05	Win2	0.6528	0.0	Yes	2.719	0.001	n/a	GoodResponse	1	n/a	n/a	24	71	Fixation	Win	True
675.828	0.5	Win2	0.6528	0.003	Yes	2.719	-0.003	2.0	GoodResponse	1	0.227	675.055	24	71	Target	Win	True
676.055	0.3	Win2	0.6528	0.003	Yes	2.719	-0.003	2.0	GoodResponse	1	0.227	n/a	24	71	ButtonPress	Win	True
676.329	0.2	Win2	0.6528	n/a	Yes	2.719	n/a	n/a	GoodResponse	1	n/a	n/a	24	71	Blank	Win	True
676.53	1.45	Win2	0.6528	n/a	Yes	2.719	n/a	5.0	GoodResponse	1	0.022	675.552	24	71	Feedback	Win	True
677.984	2.719	Win2	0.6528	n/a	Yes	2.719	n/a	n/a	GoodResponse	1	0.0	n/a	24	71	ISIslide	Win	True
680.726	0.25	Win2	0.6575	0.0	Yes	2.774	0.026	n/a	GoodResponse	1	n/a	n/a	25	72	Cue	Win	True
680.976	4.1	Win2	0.6575	0.0	Yes	2.774	0.0	n/a	GoodResponse	1	n/a	n/a	25	72	Fixation	Win	True
685.072	0.5	Win2	0.6575	0.004	Yes	2.774	-0.004	2.0	GoodResponse	1	0.38	684.452	25	72	Target	Win	True
685.452	0.3	Win2	0.6575	0.004	Yes	2.774	-0.004	2.0	GoodResponse	1	0.38	n/a	25	72	ButtonPress	Win	True
685.573	0.2	Win2	0.6575	n/a	Yes	2.774	n/a	n/a	GoodResponse	1	n/a	n/a	25	72	Blank	Win	True
685.774	1.45	Win2	0.6575	n/a	Yes	2.774	n/a	5.0	GoodResponse	1	0.047	684.821	25	72	Feedback	Win	True
687.228	2.774	Win2	0.6575	n/a	Yes	2.774	n/a	n/a	GoodResponse	1	0.0	n/a	25	72	ISIslide	Win	True
690.02	0.25	Win2	0.6622	0.0	Yes	2.68	0.02	n/a	GoodResponse	1	n/a	n/a	26	73	Cue	Win	True
690.271	4.0	Win2	0.6622	0.0	Yes	2.68	0.001	n/a	GoodResponse	1	n/a	n/a	26	73	Fixation	Win	True
694.266	0.5	Win2	0.6622	0.004	Yes	2.68	-0.004	2.0	GoodResponse	1	0.202	693.468	26	73	Target	Win	True
694.468	0.3	Win2	0.6622	0.004	Yes	2.68	-0.004	2.0	GoodResponse	1	0.202	n/a	26	73	ButtonPress	Win	True
694.767	0.2	Win2	0.6622	n/a	Yes	2.68	n/a	n/a	GoodResponse	1	n/a	n/a	26	73	Blank	Win	True
694.968	1.45	Win2	0.6622	n/a	Yes	2.68	n/a	5.0	GoodResponse	1	0.023	693.991	26	73	Feedback	Win	True
696.422	2.68	Win2	0.6622	n/a	Yes	2.68	n/a	n/a	GoodResponse	1	0.0	n/a	26	73	ISIslide	Win	True
699.131	0.25	Lose2	0.6667000000000001	0.0	Yes	2.619	0.031	n/a	GoodResponse	0	n/a	n/a	26	74	Cue	AvoidedLoss	True
699.381	4.05	Lose2	0.6667000000000001	0.0	Yes	2.619	0.0	n/a	GoodResponse	0	n/a	n/a	26	74	Fixation	AvoidedLoss	True
703.427	0.5	Lose2	0.6667000000000001	0.004	Yes	2.619	-0.004	2.0	GoodResponse	0	0.193	702.62	26	74	Target	AvoidedLoss	True
703.62	0.3	Lose2	0.6667000000000001	0.004	Yes	2.619	-0.004	2.0	GoodResponse	0	0.193	n/a	26	74	ButtonPress	AvoidedLoss	True
703.928	0.2	Lose2	0.6667000000000001	n/a	Yes	2.619	n/a	n/a	GoodResponse	0	n/a	n/a	26	74	Blank	AvoidedLoss	True
704.129	1.45	Lose2	0.6667000000000001	n/a	Yes	2.619	n/a	5.0	GoodResponse	0	0.032	703.161	26	74	Feedback	AvoidedLoss	True
705.583	2.619	Lose2	0.6667000000000001	n/a	Yes	2.619	n/a	n/a	GoodResponse	0	0.0	n/a	26	74	ISIslide	AvoidedLoss	True
708.224	0.25	Lose2	0.6711	0.0	Yes	2.926	0.024	n/a	GoodResponse	0	n/a	n/a	26	75	Cue	AvoidedLoss	True
708.475	3.95	Lose2	0.6711	0.0	Yes	2.926	0.001	n/a	GoodResponse	0	n/a	n/a	26	75	Fixation	AvoidedLoss	True
712.42	0.49	Lose2	0.6711	0.004	Yes	2.926	-0.004	2.0	GoodResponse	0	0.238	711.658	26	75	Target	AvoidedLoss	True
712.658	0.3	Lose2	0.6711	0.004	Yes	2.926	-0.004	2.0	GoodResponse	0	0.238	n/a	26	75	ButtonPress	AvoidedLoss	True
712.922	0.21	Lose2	0.6711	n/a	Yes	2.926	n/a	n/a	GoodResponse	0	n/a	n/a	26	75	Blank	AvoidedLoss	True
713.122	1.45	Lose2	0.6711	n/a	Yes	2.926	n/a	5.0	GoodResponse	0	0.015	712.137	26	75	Feedback	AvoidedLoss	True
714.577	2.926	Lose2	0.6711	n/a	Yes	2.926	n/a	n/a	GoodResponse	0	0.0	n/a	26	75	ISIslide	AvoidedLoss	True
717.519	0.25	Control	0.6623	0.0	No	3.231	0.019	n/a	NoResponse	0	n/a	n/a	26	76	Cue	Neutral	False
717.77	4.05	Control	0.6623	0.0	No	3.231	0.001	n/a	NoResponse	0	n/a	n/a	26	76	Fixation	Neutral	False
721.815	0.48	Control	0.6623	0.004	No	3.231	-0.004	n/a	NoResponse	0	n/a	n/a	26	76	Target	Neutral	False
722.3	0.22	Control	0.6623	n/a	No	3.231	n/a	n/a	NoResponse	0	n/a	n/a	26	76	Blank	Neutral	False
722.517	1.45	Control	0.6623	n/a	No	3.231	n/a	5.0	NoResponse	0	0.035	721.552	26	76	Feedback	Neutral	False
723.971	3.231	Control	0.6623	n/a	No	3.231	n/a	n/a	NoResponse	0	0.0	n/a	26	76	ISIslide	Neutral	False
727.231	0.25	Lose2	0.6667000000000001	0.0	Yes	2.569	0.031	n/a	GoodResponse	0	n/a	n/a	26	77	Cue	AvoidedLoss	True
727.482	3.95	Lose2	0.6667000000000001	0.0	Yes	2.569	0.001	n/a	GoodResponse	0	n/a	n/a	26	77	Fixation	AvoidedLoss	True
731.427	0.48	Lose2	0.6667000000000001	0.004	Yes	2.569	-0.004	2.0	GoodResponse	0	0.229	730.656	26	77	Target	AvoidedLoss	True
731.656	0.3	Lose2	0.6667000000000001	0.004	Yes	2.569	-0.004	2.0	GoodResponse	0	0.229	n/a	26	77	ButtonPress	AvoidedLoss	True
731.912	0.22	Lose2	0.6667000000000001	n/a	Yes	2.569	n/a	n/a	GoodResponse	0	n/a	n/a	26	77	Blank	AvoidedLoss	True
732.129	1.45	Lose2	0.6667000000000001	n/a	Yes	2.569	n/a	5.0	GoodResponse	0	0.033	731.162	26	77	Feedback	AvoidedLoss	True
733.584	2.569	Lose2	0.6667000000000001	n/a	Yes	2.569	n/a	n/a	GoodResponse	0	0.0	n/a	26	77	ISIslide	AvoidedLoss	True
