onset	duration	cue_type	current_mean_accuracy	duration_error	is_hit	isi_adjusted	onset_delay	response	response_type	reward	rt	rt_time	total_reward	trial_number	trial_phase	trial_type	one_press
11.112	0.25	Control	1.0	0.0	Yes	2.938	0.012	n/a	GoodResponse	0	n/a	n/a	0	0	Cue	Neutral	True
11.363	3.85	Control	1.0	0.0	Yes	2.938	0.001	n/a	GoodResponse	0	n/a	n/a	0	0	Fixation	Neutral	True
15.208	0.4	Control	1.0	0.004	Yes	2.938	-0.004	2.0	GoodResponse	0	0.193	14.401	0	0	Target	Neutral	True
15.401	0.3	Control	1.0	0.004	Yes	2.938	-0.004	2.0	GoodResponse	0	0.193	n/a	0	0	ButtonPress	Neutral	True
15.609	0.3	Control	1.0	n/a	Yes	2.938	n/a	n/a	GoodResponse	0	n/a	n/a	0	0	Blank	Neutral	True
15.91	1.45	Control	1.0	n/a	Yes	2.938	n/a	5.0	GoodResponse	0	0.016	14.926	0	0	Feedback	Neutral	True
17.364	2.938	Control	1.0	n/a	Yes	2.938	n/a	n/a	GoodResponse	0	0.0	n/a	0	0	ISIslide	Neutral	True
20.323	0.25	Lose2	1.0	0.0	Yes	2.777	0.023	n/a	GoodResponse	0	n/a	n/a	0	1	Cue	AvoidedLoss	True
20.574	4.0	Lose2	1.0	0.0	Yes	2.777	0.001	n/a	GoodResponse	0	n/a	n/a	0	1	Fixation	AvoidedLoss	True
24.569	0.39	Lose2	1.0	0.004	Yes	2.777	-0.004	2.0	GoodResponse	0	0.236	23.805	0	1	Target	AvoidedLoss	True
24.805	0.3	Lose2	1.0	0.004	Yes	2.777	-0.004	2.0	GoodResponse	0	0.236	n/a	0	1	ButtonPress	AvoidedLoss	True
24.971	0.31	Lose2	1.0	n/a	Yes	2.777	n/a	n/a	GoodResponse	0	n/a	n/a	0	1	Blank	AvoidedLoss	True
25.271	1.45	Lose2	1.0	n/a	Yes	2.777	n/a	5.0	GoodResponse	0	0.021	24.292	0	1	Feedback	AvoidedLoss	True
26.726	2.777	Lose2	1.0	n/a	Yes	2.777	n/a	n/a	GoodResponse	0	0.0	n/a	0	1	ISIslide	AvoidedLoss	True
29.517	0.25	Control	1.0	0.001	Yes	2.583	0.017	n/a	GoodResponse	0	n/a	n/a	0	2	Cue	Neutral	True
29.768	4.1	Control	1.0	0.0	Yes	2.583	0.001	n/a	GoodResponse	0	n/a	n/a	0	2	Fixation	Neutral	True
33.864	0.38	Control	1.0	0.003	Yes	2.583	-0.003	2.0	GoodResponse	0	0.21	33.074	0	2	Target	Neutral	True
34.074	0.3	Control	1.0	0.003	Yes	2.583	-0.003	2.0	GoodResponse	0	0.21	n/a	0	2	ButtonPress	Neutral	True
34.248	0.32	Control	1.0	n/a	Yes	2.583	n/a	n/a	GoodResponse	0	n/a	n/a	0	2	Blank	Neutral	True
34.566	1.45	Control	1.0	n/a	Yes	2.583	n/a	5.0	GoodResponse	0	0.043	33.609	0	2	Feedback	Neutral	True
36.02	2.583	Control	1.0	n/a	Yes	2.583	n/a	n/a	GoodResponse	0	0.0	n/a	0	2	ISIslide	Neutral	True
38.628	0.25	Win2	1.0	0.0	Yes	2.822	0.028	n/a	GoodResponse	1	n/a	n/a	1	3	Cue	Win	True
38.879	3.95	Win2	1.0	0.0	Yes	2.822	0.001	n/a	GoodResponse	1	n/a	n/a	1	3	Fixation	Win	True
42.824	0.37	Win2	1.0	0.004	Yes	2.822	-0.004	2.0	GoodResponse	1	0.193	42.017	1	3	Target	Win	True
43.017	0.3	Win2	1.0	0.004	Yes	2.822	-0.004	2.0	GoodResponse	1	0.193	n/a	1	3	ButtonPress	Win	True
43.208	0.33	Win2	1.0	n/a	Yes	2.822	n/a	n/a	GoodResponse	1	n/a	n/a	1	3	Blank	Win	True
43.526	1.45	Win2	1.0	n/a	Yes	2.822	n/a	5.0	GoodResponse	1	0.01	42.536	1	3	Feedback	Win	True
44.98	2.822	Win2	1.0	n/a	Yes	2.822	n/a	n/a	GoodResponse	1	0.0	n/a	1	3	ISIslide	Win	True
47.822	0.25	Win2	1.0	0.0	Yes	3.278	0.022	n/a	GoodResponse	1	n/a	n/a	2	4	Cue	Win	True
48.073	4.0	Win2	1.0	0.0	Yes	3.278	0.001	n/a	GoodResponse	1	n/a	n/a	2	4	Fixation	Win	True
52.068	0.36	Win2	1.0	0.004	Yes	3.278	-0.004	2.0	GoodResponse	1	0.187	51.255	2	4	Target	Win	True
52.255	0.3	Win2	1.0	0.004	Yes	3.278	-0.004	2.0	GoodResponse	1	0.187	n/a	2	4	ButtonPress	Win	True
52.436	0.34	Win2	1.0	n/a	Yes	3.278	n/a	n/a	GoodResponse	1	n/a	n/a	2	4	Blank	Win	True
52.77	1.45	Win2	1.0	n/a	Yes	3.278	n/a	5.0	GoodResponse	1	0.034	51.804	2	4	Feedback	Win	True
54.225	3.278	Win2	1.0	n/a	Yes	3.278	n/a	n/a	GoodResponse	1	0.0	n/a	2	4	ISIslide	Win	True
57.518	0.25	Win2	1.0	0.0	Yes	2.782	0.018	n/a	GoodResponse	1	n/a	n/a	3	5	Cue	Win	True
57.769	4.0	Win2	1.0	0.0	Yes	2.782	0.001	n/a	GoodResponse	1	n/a	n/a	3	5	Fixation	Win	True
61.764	0.35	Win2	1.0	0.004	Yes	2.782	-0.004	2.0	GoodResponse	1	0.195	60.959	3	5	Target	Win	True
61.959	0.3	Win2	1.0	0.004	Yes	2.782	-0.004	2.0	GoodResponse	1	0.195	n/a	3	5	ButtonPress	Win	True
62.115	0.35	Win2	1.0	n/a	Yes	2.782	n/a	n/a	GoodResponse	1	n/a	n/a	3	5	Blank	Win	True
62.466	1.45	Win2	1.0	n/a	Yes	2.782	n/a	5.0	GoodResponse	1	0.045	61.511	3	5	Feedback	Win	True
63.921	2.782	Win2	1.0	n/a	Yes	2.782	n/a	n/a	GoodResponse	1	0.0	n/a	3	5	ISIslide	Win	True
66.729	0.25	Lose2	1.0	0.0	Yes	2.721	0.029	n/a	GoodResponse	0	n/a	n/a	3	6	Cue	AvoidedLoss	True
66.98	3.95	Lose2	1.0	0.0	Yes	2.721	0.001	n/a	GoodResponse	0	n/a	n/a	3	6	Fixation	AvoidedLoss	True
70.925	0.34	Lose2	1.0	0.004	Yes	2.721	-0.004	2.0	GoodResponse	0	0.213	70.138	3	6	Target	AvoidedLoss	True
71.138	0.3	Lose2	1.0	0.004	Yes	2.721	-0.004	2.0	GoodResponse	0	0.213	n/a	3	6	ButtonPress	AvoidedLoss	True
71.276	0.36	Lose2	1.0	n/a	Yes	2.721	n/a	n/a	GoodResponse	0	n/a	n/a	3	6	Blank	AvoidedLoss	True
71.627	1.45	Lose2	1.0	n/a	Yes	2.721	n/a	5.0	GoodResponse	0	0.008	70.635	3	6	Feedback	AvoidedLoss	True
73.081	2.721	Lose2	1.0	n/a	Yes	2.721	n/a	n/a	GoodResponse	0	0.0	n/a	3	6	ISIslide	AvoidedLoss	True
75.823	0.25	Lose2	1.0	0.0	Yes	4.027	0.023	n/a	GoodResponse	0	n/a	n/a	3	7	Cue	AvoidedLoss	True
76.074	4.05	Lose2	1.0	0.0	Yes	4.027	0.001	n/a	GoodResponse	0	n/a	n/a	3	7	Fixation	AvoidedLoss	True
80.119	0.33	Lose2	1.0	0.004	Yes	4.027	-0.004	2.0	GoodResponse	0	0.208	79.327	3	7	Target	AvoidedLoss	True
80.327	0.3	Lose2	1.0	0.004	Yes	4.027	-0.004	2.0	GoodResponse	0	0.208	n/a	3	7	ButtonPress	AvoidedLoss	True
80.453	0.37	Lose2	1.0	n/a	Yes	4.027	n/a	n/a	GoodResponse	0	n/a	n/a	3	7	Blank	AvoidedLoss	True
80.821	1.45	Lose2	1.0	n/a	Yes	4.027	n/a	5.0	GoodResponse	0	0.031	79.852	3	7	Feedback	AvoidedLoss	True
82.276	4.027	Lose2	1.0	n/a	Yes	4.027	n/a	n/a	GoodResponse	0	0.0	n/a	3	7	ISIslide	AvoidedLoss	True
86.321	0.25	Lose2	1.0	0.0	Yes	3.029	0.021	n/a	GoodResponse	0	n/a	n/a	3	8	Cue	AvoidedLoss	True
86.572	3.95	Lose2	1.0	0.0	Yes	3.029	0.001	n/a	GoodResponse	0	n/a	n/a	3	8	Fixation	AvoidedLoss	True
90.517	0.32	Lose2	1.0	0.004	Yes	3.029	-0.004	2.0	GoodResponse	0	0.23	89.747	3	8	Target	AvoidedLoss	True
90.747	0.3	Lose2	1.0	0.004	Yes	3.029	-0.004	2.0	GoodResponse	0	0.23	n/a	3	8	ButtonPress	AvoidedLoss	True
90.851	0.38	Lose2	1.0	n/a	Yes	3.029	n/a	n/a	GoodResponse	0	n/a	n/a	3	8	Blank	AvoidedLoss	True
91.219	1.45	Lose2	1.0	n/a	Yes	3.029	n/a	5.0	GoodResponse	0	0.024	90.243	3	8	Feedback	AvoidedLoss	True
92.673	3.029	Lose2	1.0	n/a	Yes	3.029	n/a	n/a	GoodResponse	0	0.0	n/a	3	8	ISIslide	AvoidedLoss	True
95.716	0.25	Lose2	1.0	0.0	Yes	3.134	0.016	n/a	GoodResponse	0	n/a	n/a	3	9	Cue	AvoidedLoss	True
95.967	3.95	Lose2	1.0	0.0	Yes	3.134	0.001	n/a	GoodResponse	0	n/a	n/a	3	9	Fixation	AvoidedLoss	True
99.912	0.31	Lose2	1.0	0.004	Yes	3.134	-0.004	2.0	GoodResponse	0	0.198	99.11	3	9	Target	AvoidedLoss	True
100.11	0.3	Lose2	1.0	0.004	Yes	3.134	-0.004	2.0	GoodResponse	0	0.198	n/a	3	9	ButtonPress	AvoidedLoss	True
100.229	0.39	Lose2	1.0	n/a	Yes	3.134	n/a	n/a	GoodResponse	0	n/a	n/a	3	9	Blank	AvoidedLoss	True
100.614	1.45	Lose2	1.0	n/a	Yes	3.134	n/a	5.0	GoodResponse	0	0.043	99.657	3	9	Feedback	AvoidedLoss	True
102.068	3.134	Lose2	1.0	n/a	Yes	3.134	n/a	n/a	GoodResponse	0	0.0	n/a	3	9	ISIslide	AvoidedLoss	True
105.228	0.25	Control	1.0	0.0	Yes	3.272	0.028	n/a	GoodResponse	0	n/a	n/a	3	10	Cue	Neutral	True
105.478	4.0	Control	1.0	0.0	Yes	3.272	0.0	n/a	GoodResponse	0	n/a	n/a	3	10	Fixation	Neutral	True
109.474	0.3	Control	1.0	0.004	Yes	3.272	-0.004	2.0	GoodResponse	0	0.199	108.673	3	10	Target	Neutral	True
109.673	0.3	Control	1.0	0.004	Yes	3.272	-0.004	2.0	GoodResponse	0	0.199	n/a	3	10	ButtonPress	Neutral	True
109.775	0.4	Control	1.0	n/a	Yes	3.272	n/a	n/a	GoodResponse	0	n/a	n/a	3	10	Blank	Neutral	True
110.176	1.45	Control	1.0	n/a	Yes	3.272	n/a	5.0	GoodResponse	0	0.042	109.218	3	10	Feedback	Neutral	True
111.63	3.272	Control	1.0	n/a	Yes	3.272	n/a	n/a	GoodResponse	0	0.0	n/a	3	10	ISIslide	Neutral	True
114.923	0.25	Lose2	1.0	0.0	Yes	2.727	0.023	n/a	GoodResponse	0	n/a	n/a	3	11	Cue	AvoidedLoss	True
115.174	4.05	Lose2	1.0	0.0	Yes	2.727	0.001	n/a	GoodResponse	0	n/a	n/a	3	11	Fixation	AvoidedLoss	True
119.22	0.29	Lose2	1.0	0.003	Yes	2.727	-0.003	2.0	GoodResponse	0	0.22	118.44	3	11	Target	AvoidedLoss	True
119.44	0.3	Lose2	1.0	0.003	Yes	2.727	-0.003	2.0	GoodResponse	0	0.22	n/a	3	11	ButtonPress	AvoidedLoss	True
119.52	0.41	Lose2	1.0	n/a	Yes	2.727	n/a	n/a	GoodResponse	0	n/a	n/a	3	11	Blank	AvoidedLoss	True
119.922	1.45	Lose2	1.0	n/a	Yes	2.727	n/a	5.0	GoodResponse	0	0.007	118.929	3	11	Feedback	AvoidedLoss	True
121.376	2.727	Lose2	1.0	n/a	Yes	2.727	n/a	n/a	GoodResponse	0	0.0	n/a	3	11	ISIslide	AvoidedLoss	True
124.118	0.25	Control	1.0	0.0	Yes	2.982	0.018	n/a	GoodResponse	0	n/a	n/a	3	12	Cue	Neutral	True
124.368	3.9	Control	1.0	0.0	Yes	2.982	0.0	n/a	GoodResponse	0	n/a	n/a	3	12	Fixation	Neutral	True
128.28	0.28	Control	1.0	0.0	Yes	2.982	0.012	2.0	GoodResponse	0	0.211	127.491	3	12	Target	Neutral	True
128.491	0.3	Control	1.0	0.0	Yes	2.982	0.012	2.0	GoodResponse	0	0.211	n/a	3	12	ButtonPress	Neutral	True
128.548	0.42	Control	1.0	n/a	Yes	2.982	n/a	n/a	GoodResponse	0	n/a	n/a	3	12	Blank	Neutral	True
128.965	1.45	Control	1.0	n/a	Yes	2.982	n/a	5.0	GoodResponse	0	0.033	127.998	3	12	Feedback	Neutral	True
130.42	2.982	Control	1.0	n/a	Yes	2.982	n/a	n/a	GoodResponse	0	0.0	n/a	3	12	ISIslide	Neutral	True
133.429	0.25	Control	1.0	0.0	Yes	2.771	0.029	n/a	GoodResponse	0	n/a	n/a	3	13	Cue	Neutral	True
133.68	4.0	Control	1.0	0.0	Yes	2.771	0.001	n/a	GoodResponse	0	n/a	n/a	3	13	Fixation	Neutral	True
137.675	0.27	Control	1.0	0.004	Yes	2.771	-0.004	2.0	GoodResponse	0	0.228	136.903	3	13	Target	Neutral	True
137.903	0.3	Control	1.0	0.004	Yes	2.771	-0.004	2.0	GoodResponse	0	0.228	n/a	3	13	ButtonPress	Neutral	True
137.959	0.43	Control	1.0	n/a	Yes	2.771	n/a	n/a	GoodResponse	0	n/a	n/a	3	13	Blank	Neutral	True
138.377	1.45	Control	1.0	n/a	Yes	2.771	n/a	5.0	GoodResponse	0	0.036	137.413	3	13	Feedback	Neutral	True
139.831	2.771	Control	1.0	n/a	Yes	2.771	n/a	n/a	GoodResponse	0	0.0	n/a	3	13	ISIslide	Neutral	True
142.623	0.25	Win2	1.0	0.0	Yes	2.677	0.023	n/a	GoodResponse	1	n/a	n/a	4	14	Cue	Win	True
142.874	4.1	Win2	1.0	0.0	Yes	2.677	0.001	n/a	GoodResponse	1	n/a	n/a	4	14	Fixation	Win	True
146.969	0.26	Win2	1.0	0.004	Yes	2.677	-0.004	2.0	GoodResponse	1	0.194	146.163	4	14	Target	Win	True
147.163	0.3	Win2	1.0	0.004	Yes	2.677	-0.004	2.0	GoodResponse	1	0.194	n/a	4	14	ButtonPress	Win	True
147.237	0.44	Win2	1.0	n/a	Yes	2.677	n/a	n/a	GoodResponse	1	n/a	n/a	4	14	Blank	Win	True
147.671	1.45	Win2	1.0	n/a	Yes	2.677	n/a	5.0	GoodResponse	1	0.01	146.681	4	14	Feedback	Win	True
149.126	2.677	Win2	1.0	n/a	Yes	2.677	n/a	n/a	GoodResponse	1	0.0	n/a	4	14	ISIslide	Win	True
151.817	0.25	Control	1.0	0.0	Yes	2.983	0.017	n/a	GoodResponse	0	n/a	n/a	4	15	Cue	Neutral	True
152.068	4.0	Control	1.0	0.0	Yes	2.983	0.001	n/a	GoodResponse	0	n/a	n/a	4	15	Fixation	Neutral	True
156.063	0.25	Control	1.0	0.004	Yes	2.983	-0.004	2.0	GoodResponse	0	0.209	155.272	4	15	Target	Neutral	True
156.272	0.3	Control	1.0	0.004	Yes	2.983	-0.004	2.0	GoodResponse	0	0.209	n/a	4	15	ButtonPress	Neutral	True
156.314	0.45	Control	1.0	n/a	Yes	2.983	n/a	n/a	GoodResponse	0	n/a	n/a	4	15	Blank	Neutral	True
156.765	1.45	Control	1.0	n/a	Yes	2.983	n/a	5.0	GoodResponse	0	0.038	155.803	4	15	Feedback	Neutral	True
158.22	2.983	Control	1.0	n/a	Yes	2.983	n/a	n/a	GoodResponse	0	0.0	n/a	4	15	ISIslide	Neutral	True
161.229	0.25	Win2	1.0	0.0	Yes	2.871	0.029	n/a	GoodResponse	1	n/a	n/a	5	16	Cue	Win	True
161.48	4.0	Win2	1.0	0.0	Yes	2.871	0.001	n/a	GoodResponse	1	n/a	n/a	5	16	Fixation	Win	True
165.475	0.24	Win2	1.0	0.004	Yes	2.871	-0.004	2.0	GoodResponse	1	0.202	164.677	5	16	Target	Win	True
165.677	0.3	Win2	1.0	0.004	Yes	2.871	-0.004	2.0	GoodResponse	1	0.202	n/a	5	16	ButtonPress	Win	True
165.726	0.46	Win2	1.0	n/a	Yes	2.871	n/a	n/a	GoodResponse	1	n/a	n/a	5	16	Blank	Win	True
166.177	1.45	Win2	1.0	n/a	Yes	2.871	n/a	5.0	GoodResponse	1	0.041	165.218	5	16	Feedback	Win	True
167.631	2.871	Win2	1.0	n/a	Yes	2.871	n/a	n/a	GoodResponse	1	0.0	n/a	5	16	ISIslide	Win	True
170.523	0.25	Lose2	1.0	0.0	Yes	2.727	0.023	n/a	GoodResponse	0	n/a	n/a	5	17	Cue	AvoidedLoss	True
170.774	3.95	Lose2	1.0	0.0	Yes	2.727	0.001	n/a	GoodResponse	0	n/a	n/a	5	17	Fixation	AvoidedLoss	True
174.719	0.23	Lose2	1.0	0.004	Yes	2.727	-0.004	2.0	GoodResponse	0	0.185	173.904	5	17	Target	AvoidedLoss	True
174.904	0.3	Lose2	1.0	0.004	Yes	2.727	-0.004	2.0	GoodResponse	0	0.185	n/a	5	17	ButtonPress	AvoidedLoss	True
174.953	0.47	Lose2	1.0	n/a	Yes	2.727	n/a	n/a	GoodResponse	0	n/a	n/a	5	17	Blank	AvoidedLoss	True
175.421	1.45	Lose2	1.0	n/a	Yes	2.727	n/a	5.0	GoodResponse	0	0.017	174.438	5	17	Feedback	AvoidedLoss	True
176.876	2.727	Lose2	1.0	n/a	Yes	2.727	n/a	n/a	GoodResponse	0	0.0	n/a	5	17	ISIslide	AvoidedLoss	True
179.617	0.25	Lose2	1.0	0.0	Yes	2.733	0.017	n/a	GoodResponse	0	n/a	n/a	5	18	Cue	AvoidedLoss	True
179.868	4.05	Lose2	1.0	0.0	Yes	2.733	0.001	n/a	GoodResponse	0	n/a	n/a	5	18	Fixation	AvoidedLoss	True
183.913	0.22	Lose2	1.0	0.004	Yes	2.733	-0.004	2.0	GoodResponse	0	0.212	183.125	5	18	Target	AvoidedLoss	True
184.125	0.3	Lose2	1.0	0.004	Yes	2.733	-0.004	2.0	GoodResponse	0	0.212	n/a	5	18	ButtonPress	AvoidedLoss	True
184.147	0.48	Lose2	1.0	n/a	Yes	2.733	n/a	n/a	GoodResponse	0	n/a	n/a	5	18	Blank	AvoidedLoss	True
184.616	1.45	Lose2	1.0	n/a	Yes	2.733	n/a	5.0	GoodResponse	0	0.04	183.656	5	18	Feedback	AvoidedLoss	True
186.07	2.733	Lose2	1.0	n/a	Yes	2.733	n/a	n/a	GoodResponse	0	0.0	n/a	5	18	ISIslide	AvoidedLoss	True
188.828	0.25	Control	0.95	0.0	No	2.922	0.028	n/a	NoResponse	0	n/a	n/a	5	19	Cue	Neutral	True
189.079	3.95	Control	0.95	0.0	No	2.922	0.001	n/a	NoResponse	0	n/a	n/a	5	19	Fixation	Neutral	True
193.024	0.21	Control	0.95	0.004	No	2.922	-0.004	2.0	NoResponse	0	0.253	192.277	5	19	Target	Neutral	True
193.241	0.49	Control	0.95	n/a	No	2.922	n/a	n/a	NoResponse	0	n/a	n/a	5	19	Blank	Neutral	True
193.277	0.3	Control	0.95	0.004	No	2.922	-0.004	2.0	NoResponse	0	0.253	n/a	5	19	ButtonPress	Neutral	True
193.726	1.45	Control	0.95	n/a	No	2.922	n/a	5.0	NoResponse	0	0.008	192.734	5	19	Feedback	Neutral	True
195.181	2.922	Control	0.95	n/a	No	2.922	n/a	n/a	NoResponse	0	0.0	n/a	5	19	ISIslide	Neutral	True
198.123	0.25	Control	0.9523999999999999	0.0	Yes	2.627	0.023	n/a	GoodResponse	0	n/a	n/a	5	20	Cue	Neutral	True
198.373	4.05	Control	0.9523999999999999	0.0	Yes	2.627	0.0	n/a	GoodResponse	0	n/a	n/a	5	20	Fixation	Neutral	True
202.419	0.2	Control	0.9523999999999999	0.004	Yes	2.627	-0.004	2.0	GoodResponse	0	0.19	201.609	5	20	Target	Neutral	True
202.609	0.3	Control	0.9523999999999999	0.004	Yes	2.627	-0.004	2.0	GoodResponse	0	0.19	n/a	5	20	ButtonPress	Neutral	True
202.619	0.5	Control	0.9523999999999999	n/a	Yes	2.627	n/a	n/a	GoodResponse	0	n/a	n/a	5	20	Blank	Neutral	True
203.121	1.45	Control	0.9523999999999999	n/a	Yes	2.627	n/a	5.0	GoodResponse	0	0.023	202.144	5	20	Feedback	Neutral	True
204.575	2.627	Control	0.9523999999999999	n/a	Yes	2.627	n/a	n/a	GoodResponse	0	0.0	n/a	5	20	ISIslide	Neutral	True
207.217	0.25	Control	0.9091	0.0	No	2.783	0.017	n/a	NoResponse	0	n/a	n/a	5	21	Cue	Neutral	True
207.467	4.1	Control	0.9091	0.0	No	2.783	0.0	n/a	NoResponse	0	n/a	n/a	5	21	Fixation	Neutral	True
211.563	0.19	Control	0.9091	0.004	No	2.783	-0.004	2.0	NoResponse	0	0.292	210.855	5	21	Target	Neutral	True
211.764	0.51	Control	0.9091	n/a	No	2.783	n/a	n/a	NoResponse	0	n/a	n/a	5	21	Blank	Neutral	True
211.855	0.3	Control	0.9091	0.004	No	2.783	-0.004	2.0	NoResponse	0	0.292	n/a	5	21	ButtonPress	Neutral	True
212.265	1.45	Control	0.9091	n/a	No	2.783	n/a	5.0	NoResponse	0	0.001	211.266	5	21	Feedback	Neutral	True
213.719	2.783	Control	0.9091	n/a	No	2.783	n/a	n/a	NoResponse	0	0.0	n/a	5	21	ISIslide	Neutral	True
216.528	0.25	Control	0.9129999999999999	0.0	Yes	2.772	0.028	n/a	GoodResponse	0	n/a	n/a	5	22	Cue	Neutral	True
216.779	4.0	Control	0.9129999999999999	0.0	Yes	2.772	0.001	n/a	GoodResponse	0	n/a	n/a	5	22	Fixation	Neutral	True
220.774	0.18	Control	0.9129999999999999	0.004	Yes	2.772	-0.004	2.0	GoodResponse	0	0.176	219.95	5	22	Target	Neutral	True
220.95	0.3	Control	0.9129999999999999	0.004	Yes	2.772	-0.004	2.0	GoodResponse	0	0.176	n/a	5	22	ButtonPress	Neutral	True
220.958	0.52	Control	0.9129999999999999	n/a	Yes	2.772	n/a	n/a	GoodResponse	0	n/a	n/a	5	22	Blank	Neutral	True
221.476	1.45	Control	0.9129999999999999	n/a	Yes	2.772	n/a	5.0	GoodResponse	0	0.01	220.486	5	22	Feedback	Neutral	True
222.93	2.772	Control	0.9129999999999999	n/a	Yes	2.772	n/a	n/a	GoodResponse	0	0.0	n/a	5	22	ISIslide	Neutral	True
225.722	0.25	Control	0.875	0.0	No	2.778	0.022	n/a	NoResponse	0	n/a	n/a	5	23	Cue	Neutral	True
225.973	3.9	Control	0.875	0.0	No	2.778	0.001	2.0	NoResponse	0	3.15	228.123	5	23	Fixation	Neutral	True
229.123	0.3	Control	0.875	0.0	No	2.778	0.001	2.0	NoResponse	0	3.15	n/a	5	23	ButtonPress	Neutral	True
229.868	0.17	Control	0.875	0.004	No	2.778	-0.004	n/a	NoResponse	0	n/a	n/a	5	23	Target	Neutral	True
230.052	0.53	Control	0.875	n/a	No	2.778	n/a	n/a	NoResponse	0	n/a	n/a	5	23	Blank	Neutral	True
230.57	1.45	Control	0.875	n/a	No	2.778	n/a	5.0	NoResponse	0	0.038	229.608	5	23	Feedback	Neutral	True
232.024	2.778	Control	0.875	n/a	No	2.778	n/a	n/a	NoResponse	0	0.0	n/a	5	23	ISIslide	Neutral	True
234.816	0.25	Win2	0.84	0.0	No	3.134	0.016	n/a	NoResponse	0	n/a	n/a	5	24	Cue	MissedWin	True
235.067	3.95	Win2	0.84	0.0	No	3.134	0.001	n/a	NoResponse	0	n/a	n/a	5	24	Fixation	MissedWin	True
239.012	0.16	Win2	0.84	0.004	No	3.134	-0.004	2.0	NoResponse	0	0.234	238.246	5	24	Target	MissedWin	True
239.179	0.54	Win2	0.84	n/a	No	3.134	n/a	n/a	NoResponse	0	n/a	n/a	5	24	Blank	MissedWin	True
239.246	0.3	Win2	0.84	0.004	No	3.134	-0.004	2.0	NoResponse	0	0.234	n/a	5	24	ButtonPress	MissedWin	True
239.714	1.45	Win2	0.84	n/a	No	3.134	n/a	5.0	NoResponse	0	0.015	238.729	5	24	Feedback	MissedWin	True
241.168	3.134	Win2	0.84	n/a	No	3.134	n/a	n/a	NoResponse	0	0.0	n/a	5	24	ISIslide	MissedWin	True
244.328	0.25	Win2	0.8077	0.0	No	3.072	0.028	n/a	NoResponse	0	n/a	n/a	5	25	Cue	MissedWin	True
244.579	4.0	Win2	0.8077	0.0	No	3.072	0.001	n/a	NoResponse	0	n/a	n/a	5	25	Fixation	MissedWin	True
248.574	0.15	Win2	0.8077	0.004	No	3.072	-0.004	2.0	NoResponse	0	0.204	247.778	5	25	Target	MissedWin	True
248.724	0.55	Win2	0.8077	n/a	No	3.072	n/a	n/a	NoResponse	0	n/a	n/a	5	25	Blank	MissedWin	True
248.778	0.3	Win2	0.8077	0.004	No	3.072	-0.004	2.0	NoResponse	0	0.204	n/a	5	25	ButtonPress	MissedWin	True
249.276	1.45	Win2	0.8077	n/a	No	3.072	n/a	5.0	NoResponse	0	0.014	248.29	5	25	Feedback	MissedWin	True
250.73	3.072	Win2	0.8077	n/a	No	3.072	n/a	n/a	NoResponse	0	0.0	n/a	5	25	ISIslide	MissedWin	True
253.823	0.25	Win2	0.7778	0.0	No	2.927	0.023	n/a	NoResponse	0	n/a	n/a	5	26	Cue	MissedWin	True
254.074	3.95	Win2	0.7778	0.0	No	2.927	0.001	2.0	NoResponse	0	2.833	255.907	5	26	Fixation	MissedWin	True
256.907	0.3	Win2	0.7778	0.0	No	2.927	0.001	2.0	NoResponse	0	2.833	n/a	5	26	ButtonPress	MissedWin	True
258.019	0.15	Win2	0.7778	0.004	No	2.927	-0.004	n/a	NoResponse	0	n/a	n/a	5	26	Target	MissedWin	True
258.169	0.55	Win2	0.7778	n/a	No	2.927	n/a	n/a	NoResponse	0	n/a	n/a	5	26	Blank	MissedWin	True
258.721	1.45	Win2	0.7778	n/a	No	2.927	n/a	5.0	NoResponse	0	0.033	257.754	5	26	Feedback	MissedWin	True
260.175	2.927	Win2	0.7778	n/a	No	2.927	n/a	n/a	NoResponse	0	0.0	n/a	5	26	ISIslide	MissedWin	True
263.117	0.25	Lose2	0.75	0.001	No	2.833	0.017	n/a	NoResponse	-1	n/a	n/a	4	27	Cue	Loss	True
263.368	4.05	Lose2	0.75	0.0	No	2.833	0.001	n/a	NoResponse	-1	n/a	n/a	4	27	Fixation	Loss	True
267.414	0.15	Lose2	0.75	0.003	No	2.833	-0.003	2.0	NoResponse	-1	0.199	266.613	4	27	Target	Loss	True
267.564	0.55	Lose2	0.75	n/a	No	2.833	n/a	n/a	NoResponse	-1	n/a	n/a	4	27	Blank	Loss	True
267.613	0.3	Lose2	0.75	0.003	No	2.833	-0.003	2.0	NoResponse	-1	0.199	n/a	4	27	ButtonPress	Loss	True
268.116	1.45	Lose2	0.75	n/a	No	2.833	n/a	5.0	NoResponse	-1	0.007	267.123	4	27	Feedback	Loss	True
269.57	2.833	Lose2	0.75	n/a	No	2.833	n/a	n/a	NoResponse	-1	0.0	n/a	4	27	ISIslide	Loss	True
272.429	0.25	Control	0.7241	0.0	No	2.821	0.029	n/a	NoResponse	0	n/a	n/a	4	28	Cue	Neutral	True
272.679	4.05	Control	0.7241	0.0	No	2.821	0.0	2.0	NoResponse	0	2.659	274.338	4	28	Fixation	Neutral	True
275.338	0.3	Control	0.7241	0.0	No	2.821	0.0	2.0	NoResponse	0	2.659	n/a	4	28	ButtonPress	Neutral	True
276.725	0.15	Control	0.7241	0.004	No	2.821	-0.004	n/a	NoResponse	0	n/a	n/a	4	28	Target	Neutral	True
276.875	0.55	Control	0.7241	n/a	No	2.821	n/a	n/a	NoResponse	0	n/a	n/a	4	28	Blank	Neutral	True
277.427	1.45	Control	0.7241	n/a	No	2.821	n/a	5.0	NoResponse	0	0.01	276.437	4	28	Feedback	Neutral	True
278.881	2.821	Control	0.7241	n/a	No	2.821	n/a	n/a	NoResponse	0	0.0	n/a	4	28	ISIslide	Neutral	True
281.723	0.25	Lose2	0.7	0.0	No	2.827	0.023	n/a	NoResponse	-1	n/a	n/a	3	29	Cue	Loss	True
281.974	3.95	Lose2	0.7	0.0	No	2.827	0.001	n/a	NoResponse	-1	n/a	n/a	3	29	Fixation	Loss	True
285.919	0.15	Lose2	0.7	0.004	No	2.827	-0.004	2.0	NoResponse	-1	0.216	285.135	3	29	Target	Loss	True
286.07	0.55	Lose2	0.7	n/a	No	2.827	n/a	n/a	NoResponse	-1	n/a	n/a	3	29	Blank	Loss	True
286.135	0.3	Lose2	0.7	0.004	No	2.827	-0.004	2.0	NoResponse	-1	0.216	n/a	3	29	ButtonPress	Loss	True
286.621	1.45	Lose2	0.7	n/a	No	2.827	n/a	5.0	NoResponse	-1	0.035	285.656	3	29	Feedback	Loss	True
288.076	2.827	Lose2	0.7	n/a	No	2.827	n/a	n/a	NoResponse	-1	0.0	n/a	3	29	ISIslide	Loss	True
290.917	0.25	Win2	0.6774	0.0	No	2.783	0.017	n/a	NoResponse	0	n/a	n/a	3	30	Cue	MissedWin	True
291.168	3.9	Win2	0.6774	0.0	No	2.783	0.001	n/a	NoResponse	0	n/a	n/a	3	30	Fixation	MissedWin	True
295.063	0.15	Win2	0.6774	0.004	No	2.783	-0.004	2.0	NoResponse	0	0.185	294.248	3	30	Target	MissedWin	True
295.214	0.55	Win2	0.6774	n/a	No	2.783	n/a	n/a	NoResponse	0	n/a	n/a	3	30	Blank	MissedWin	True
295.248	0.3	Win2	0.6774	0.004	No	2.783	-0.004	2.0	NoResponse	0	0.185	n/a	3	30	ButtonPress	MissedWin	True
295.765	1.45	Win2	0.6774	n/a	No	2.783	n/a	5.0	NoResponse	0	0.013	294.778	3	30	Feedback	MissedWin	True
297.22	2.783	Win2	0.6774	n/a	No	2.783	n/a	n/a	NoResponse	0	0.0	n/a	3	30	ISIslide	MissedWin	True
300.028	0.25	Lose2	0.6562	0.0	No	2.822	0.028	n/a	NoResponse	-1	n/a	n/a	2	31	Cue	Loss	True
300.279	4.05	Lose2	0.6562	0.0	No	2.822	0.001	n/a	NoResponse	-1	n/a	n/a	2	31	Fixation	Loss	True
304.324	0.15	Lose2	0.6562	0.004	No	2.822	-0.004	2.0	NoResponse	-1	0.165	303.489	2	31	Target	Loss	True
304.475	0.55	Lose2	0.6562	n/a	No	2.822	n/a	n/a	NoResponse	-1	n/a	n/a	2	31	Blank	Loss	True
304.489	0.3	Lose2	0.6562	0.004	No	2.822	-0.004	2.0	NoResponse	-1	0.165	n/a	2	31	ButtonPress	Loss	True
305.026	1.45	Lose2	0.6562	n/a	No	2.822	n/a	5.0	NoResponse	-1	0.02	304.046	2	31	Feedback	Loss	True
306.481	2.822	Lose2	0.6562	n/a	No	2.822	n/a	n/a	NoResponse	-1	0.0	n/a	2	31	ISIslide	Loss	True
309.323	0.25	Lose2	0.6364	0.0	No	2.627	0.023	n/a	NoResponse	-1	n/a	n/a	1	32	Cue	Loss	True
309.573	4.15	Lose2	0.6364	0.0	No	2.627	0.0	2.0	NoResponse	-1	2.35	310.923	1	32	Fixation	Loss	True
311.923	0.3	Lose2	0.6364	0.0	No	2.627	0.0	2.0	NoResponse	-1	2.35	n/a	1	32	ButtonPress	Loss	True
313.719	0.15	Lose2	0.6364	0.004	No	2.627	-0.004	n/a	NoResponse	-1	n/a	n/a	1	32	Target	Loss	True
313.869	0.55	Lose2	0.6364	n/a	No	2.627	n/a	n/a	NoResponse	-1	n/a	n/a	1	32	Blank	Loss	True
314.421	1.45	Lose2	0.6364	n/a	No	2.627	n/a	5.0	NoResponse	-1	0.04	313.461	1	32	Feedback	Loss	True
315.875	2.627	Lose2	0.6364	n/a	No	2.627	n/a	n/a	NoResponse	-1	0.0	n/a	1	32	ISIslide	Loss	True
318.517	0.25	Win2	0.6175999999999999	0.0	No	2.683	0.017	n/a	NoResponse	0	n/a	n/a	1	33	Cue	MissedWin	True
318.767	4.0	Win2	0.6175999999999999	0.001	No	2.683	0.0	n/a	NoResponse	0	n/a	n/a	1	33	Fixation	MissedWin	True
322.763	0.16	Win2	0.6175999999999999	0.004	No	2.683	-0.004	2.0	NoResponse	0	0.224	321.987	1	33	Target	MissedWin	True
322.93	0.54	Win2	0.6175999999999999	n/a	No	2.683	n/a	n/a	NoResponse	0	n/a	n/a	1	33	Blank	MissedWin	True
322.987	0.3	Win2	0.6175999999999999	0.004	No	2.683	-0.004	2.0	NoResponse	0	0.224	n/a	1	33	ButtonPress	MissedWin	True
323.465	1.45	Win2	0.6175999999999999	n/a	No	2.683	n/a	5.0	NoResponse	0	0.02	322.485	1	33	Feedback	MissedWin	True
324.919	2.683	Win2	0.6175999999999999	n/a	No	2.683	n/a	n/a	NoResponse	0	0.0	n/a	1	33	ISIslide	MissedWin	True
327.627	0.25	Lose2	0.6	0.0	No	2.623	0.027	n/a	NoResponse	-1	n/a	n/a	0	34	Cue	Loss	True
327.878	4.05	Lose2	0.6	0.0	No	2.623	0.001	n/a	NoResponse	-1	n/a	n/a	0	34	Fixation	Loss	True
331.924	0.17	Lose2	0.6	0.003	No	2.623	-0.003	2.0	NoResponse	-1	0.205	331.129	0	34	Target	Loss	True
332.107	0.53	Lose2	0.6	n/a	No	2.623	n/a	n/a	NoResponse	-1	n/a	n/a	0	34	Blank	Loss	True
332.129	0.3	Lose2	0.6	0.003	No	2.623	-0.003	2.0	NoResponse	-1	0.205	n/a	0	34	ButtonPress	Loss	True
332.626	1.45	Lose2	0.6	n/a	No	2.623	n/a	5.0	NoResponse	-1	0.03	331.656	0	34	Feedback	Loss	True
334.08	2.623	Lose2	0.6	n/a	No	2.623	n/a	n/a	NoResponse	-1	0.0	n/a	0	34	ISIslide	Loss	True
336.721	0.25	Lose2	0.5832999999999999	0.0	No	2.679	0.021	n/a	NoResponse	-1	n/a	n/a	-1	35	Cue	Loss	True
336.972	4.0	Lose2	0.5832999999999999	0.0	No	2.679	0.001	n/a	NoResponse	-1	n/a	n/a	-1	35	Fixation	Loss	True
340.967	0.18	Lose2	0.5832999999999999	0.004	No	2.679	-0.004	2.0	NoResponse	-1	0.185	340.152	-1	35	Target	Loss	True
341.151	0.52	Lose2	0.5832999999999999	n/a	No	2.679	n/a	n/a	NoResponse	-1	n/a	n/a	-1	35	Blank	Loss	True
341.152	0.3	Lose2	0.5832999999999999	0.004	No	2.679	-0.004	2.0	NoResponse	-1	0.185	n/a	-1	35	ButtonPress	Loss	True
341.669	1.45	Lose2	0.5832999999999999	n/a	No	2.679	n/a	5.0	NoResponse	-1	0.011	340.68	-1	35	Feedback	Loss	True
343.124	2.679	Lose2	0.5832999999999999	n/a	No	2.679	n/a	n/a	NoResponse	-1	0.0	n/a	-1	35	ISIslide	Loss	True
345.815	0.25	Control	0.5946	0.0	Yes	2.685	0.015	n/a	GoodResponse	0	n/a	n/a	-1	36	Cue	Neutral	True
346.066	4.0	Control	0.5946	0.0	Yes	2.685	0.001	n/a	GoodResponse	0	n/a	n/a	-1	36	Fixation	Neutral	True
350.061	0.19	Control	0.5946	0.004	Yes	2.685	-0.004	2.0	GoodResponse	0	0.185	349.246	-1	36	Target	Neutral	True
350.246	0.3	Control	0.5946	0.004	Yes	2.685	-0.004	2.0	GoodResponse	0	0.185	n/a	-1	36	ButtonPress	Neutral	True
350.262	0.51	Control	0.5946	n/a	Yes	2.685	n/a	n/a	GoodResponse	0	n/a	n/a	-1	36	Blank	Neutral	True
350.763	1.45	Control	0.5946	n/a	Yes	2.685	n/a	5.0	GoodResponse	0	0.039	349.802	-1	36	Feedback	Neutral	True
352.218	2.685	Control	0.5946	n/a	Yes	2.685	n/a	n/a	GoodResponse	0	0.0	n/a	-1	36	ISIslide	Neutral	True
354.926	0.25	Win2	0.6053000000000001	0.0	Yes	2.874	0.026	n/a	GoodResponse	1	n/a	n/a	0	37	Cue	Win	True
355.177	4.0	Win2	0.6053000000000001	0.0	Yes	2.874	0.001	n/a	GoodResponse	1	n/a	n/a	0	37	Fixation	Win	True
359.172	0.2	Win2	0.6053000000000001	0.004	Yes	2.874	-0.004	2.0	GoodResponse	1	0.168	358.34	0	37	Target	Win	True
359.34	0.3	Win2	0.6053000000000001	0.004	Yes	2.874	-0.004	2.0	GoodResponse	1	0.168	n/a	0	37	ButtonPress	Win	True
359.373	0.5	Win2	0.6053000000000001	n/a	Yes	2.874	n/a	n/a	GoodResponse	1	n/a	n/a	0	37	Blank	Win	True
359.874	1.45	Win2	0.6053000000000001	n/a	Yes	2.874	n/a	5.0	GoodResponse	1	0.001	358.875	0	37	Feedback	Win	True
361.328	2.874	Win2	0.6053000000000001	n/a	Yes	2.874	n/a	n/a	GoodResponse	1	0.0	n/a	0	37	ISIslide	Win	True
364.22	0.25	Lose2	0.6154	0.0	Yes	2.83	0.02	n/a	GoodResponse	0	n/a	n/a	0	38	Cue	AvoidedLoss	True
364.471	3.95	Lose2	0.6154	0.0	Yes	2.83	0.001	n/a	GoodResponse	0	n/a	n/a	0	38	Fixation	AvoidedLoss	True
368.416	0.21	Lose2	0.6154	0.004	Yes	2.83	-0.004	2.0	GoodResponse	0	0.198	367.614	0	38	Target	AvoidedLoss	True
368.614	0.3	Lose2	0.6154	0.004	Yes	2.83	-0.004	2.0	GoodResponse	0	0.198	n/a	0	38	ButtonPress	AvoidedLoss	True
368.634	0.49	Lose2	0.6154	n/a	Yes	2.83	n/a	n/a	GoodResponse	0	n/a	n/a	0	38	Blank	AvoidedLoss	True
369.118	1.45	Lose2	0.6154	n/a	Yes	2.83	n/a	5.0	GoodResponse	0	0.025	368.143	0	38	Feedback	AvoidedLoss	True
370.573	2.83	Lose2	0.6154	n/a	Yes	2.83	n/a	n/a	GoodResponse	0	0.0	n/a	0	38	ISIslide	AvoidedLoss	True
373.431	0.25	Win2	0.625	0.0	Yes	2.969	0.031	n/a	GoodResponse	1	n/a	n/a	1	39	Cue	Win	True
373.682	4.1	Win2	0.625	0.0	Yes	2.969	0.001	n/a	GoodResponse	1	n/a	n/a	1	39	Fixation	Win	True
377.778	0.22	Win2	0.625	0.003	Yes	2.969	-0.003	2.0	GoodResponse	1	0.178	376.956	1	39	Target	Win	True
377.956	0.3	Win2	0.625	0.003	Yes	2.969	-0.003	2.0	GoodResponse	1	0.178	n/a	1	39	ButtonPress	Win	True
378.012	0.48	Win2	0.625	n/a	Yes	2.969	n/a	n/a	GoodResponse	1	n/a	n/a	1	39	Blank	Win	True
378.48	1.45	Win2	0.625	n/a	Yes	2.969	n/a	5.0	GoodResponse	1	0.029	377.509	1	39	Feedback	Win	True
379.934	2.969	Win2	0.625	n/a	Yes	2.969	n/a	n/a	GoodResponse	1	0.0	n/a	1	39	ISIslide	Win	True
382.926	0.25	Win2	0.6341	0.001	Yes	2.724	0.026	n/a	GoodResponse	1	n/a	n/a	2	40	Cue	Win	True
383.177	3.95	Win2	0.6341	0.0	Yes	2.724	0.001	n/a	GoodResponse	1	n/a	n/a	2	40	Fixation	Win	True
387.122	0.23	Win2	0.6341	0.004	Yes	2.724	-0.004	2.0	GoodResponse	1	0.186	386.308	2	40	Target	Win	True
387.308	0.3	Win2	0.6341	0.004	Yes	2.724	-0.004	2.0	GoodResponse	1	0.186	n/a	2	40	ButtonPress	Win	True
387.356	0.47	Win2	0.6341	n/a	Yes	2.724	n/a	n/a	GoodResponse	1	n/a	n/a	2	40	Blank	Win	True
387.824	1.45	Win2	0.6341	n/a	Yes	2.724	n/a	5.0	GoodResponse	1	0.002	386.826	2	40	Feedback	Win	True
389.279	2.724	Win2	0.6341	n/a	Yes	2.724	n/a	n/a	GoodResponse	1	0.0	n/a	2	40	ISIslide	Win	True
392.02	0.25	Win2	0.6429	0.0	Yes	2.78	0.02	n/a	GoodResponse	1	n/a	n/a	3	41	Cue	Win	True
392.271	3.9	Win2	0.6429	0.0	Yes	2.78	0.001	n/a	GoodResponse	1	n/a	n/a	3	41	Fixation	Win	True
396.166	0.24	Win2	0.6429	0.004	Yes	2.78	-0.004	2.0	GoodResponse	1	0.205	395.371	3	41	Target	Win	True
396.371	0.3	Win2	0.6429	0.004	Yes	2.78	-0.004	2.0	GoodResponse	1	0.205	n/a	3	41	ButtonPress	Win	True
396.417	0.46	Win2	0.6429	n/a	Yes	2.78	n/a	n/a	GoodResponse	1	n/a	n/a	3	41	Blank	Win	True
396.868	1.45	Win2	0.6429	n/a	Yes	2.78	n/a	5.0	GoodResponse	1	0.031	395.899	3	41	Feedback	Win	True
398.323	2.78	Win2	0.6429	n/a	Yes	2.78	n/a	n/a	GoodResponse	1	0.0	n/a	3	41	ISIslide	Win	True
401.114	0.25	Control	0.6512	0.0	Yes	2.936	0.014	n/a	GoodResponse	0	n/a	n/a	3	42	Cue	Neutral	True
401.365	3.85	Control	0.6512	0.0	Yes	2.936	0.001	n/a	GoodResponse	0	n/a	n/a	3	42	Fixation	Neutral	True
405.21	0.25	Control	0.6512	0.004	Yes	2.936	-0.004	2.0	GoodResponse	0	0.236	404.446	3	42	Target	Neutral	True
405.446	0.3	Control	0.6512	0.004	Yes	2.936	-0.004	2.0	GoodResponse	0	0.236	n/a	3	42	ButtonPress	Neutral	True
405.461	0.45	Control	0.6512	n/a	Yes	2.936	n/a	n/a	GoodResponse	0	n/a	n/a	3	42	Blank	Neutral	True
405.912	1.45	Control	0.6512	n/a	Yes	2.936	n/a	5.0	GoodResponse	0	0.012	404.924	3	42	Feedback	Neutral	True
407.366	2.936	Control	0.6512	n/a	Yes	2.936	n/a	n/a	GoodResponse	0	0.0	n/a	3	42	ISIslide	Neutral	True
410.325	0.25	Win2	0.6591	0.0	Yes	3.175	0.025	n/a	GoodResponse	1	n/a	n/a	4	43	Cue	Win	True
410.576	4.0	Win2	0.6591	0.0	Yes	3.175	0.001	n/a	GoodResponse	1	n/a	n/a	4	43	Fixation	Win	True
414.571	0.26	Win2	0.6591	0.004	Yes	3.175	-0.004	2.0	GoodResponse	1	0.182	413.753	4	43	Target	Win	True
414.753	0.3	Win2	0.6591	0.004	Yes	3.175	-0.004	2.0	GoodResponse	1	0.182	n/a	4	43	ButtonPress	Win	True
414.839	0.44	Win2	0.6591	n/a	Yes	3.175	n/a	n/a	GoodResponse	1	n/a	n/a	4	43	Blank	Win	True
415.273	1.45	Win2	0.6591	n/a	Yes	3.175	n/a	5.0	GoodResponse	1	0.017	414.29	4	43	Feedback	Win	True
416.728	3.175	Win2	0.6591	n/a	Yes	3.175	n/a	n/a	GoodResponse	1	0.0	n/a	4	43	ISIslide	Win	True
419.921	0.25	Win2	0.6667000000000001	0.0	Yes	2.979	0.021	n/a	GoodResponse	1	n/a	n/a	5	44	Cue	Win	True
420.171	4.0	Win2	0.6667000000000001	0.0	Yes	2.979	0.0	n/a	GoodResponse	1	n/a	n/a	5	44	Fixation	Win	True
424.167	0.26	Win2	0.6667000000000001	0.004	Yes	2.979	-0.004	2.0	GoodResponse	1	0.207	423.374	5	44	Target	Win	True
424.374	0.3	Win2	0.6667000000000001	0.004	Yes	2.979	-0.004	2.0	GoodResponse	1	0.207	n/a	5	44	ButtonPress	Win	True
424.434	0.44	Win2	0.6667000000000001	n/a	Yes	2.979	n/a	n/a	GoodResponse	1	n/a	n/a	5	44	Blank	Win	True
424.869	1.45	Win2	0.6667000000000001	n/a	Yes	2.979	n/a	5.0	GoodResponse	1	0.03	423.899	5	44	Feedback	Win	True
426.323	2.979	Win2	0.6667000000000001	n/a	Yes	2.979	n/a	n/a	GoodResponse	1	0.0	n/a	5	44	ISIslide	Win	True
429.315	0.25	Control	0.6739	0.001	Yes	2.885	0.015	n/a	GoodResponse	0	n/a	n/a	5	45	Cue	Neutral	True
429.566	4.1	Control	0.6739	0.0	Yes	2.885	0.001	n/a	GoodResponse	0	n/a	n/a	5	45	Fixation	Neutral	True
433.662	0.25	Control	0.6739	0.003	Yes	2.885	-0.003	2.0	GoodResponse	0	0.177	432.839	5	45	Target	Neutral	True
433.839	0.3	Control	0.6739	0.003	Yes	2.885	-0.003	2.0	GoodResponse	0	0.177	n/a	5	45	ButtonPress	Neutral	True
433.913	0.45	Control	0.6739	n/a	Yes	2.885	n/a	n/a	GoodResponse	0	n/a	n/a	5	45	Blank	Neutral	True
434.364	1.45	Control	0.6739	n/a	Yes	2.885	n/a	5.0	GoodResponse	0	0.047	433.411	5	45	Feedback	Neutral	True
435.818	2.885	Control	0.6739	n/a	Yes	2.885	n/a	n/a	GoodResponse	0	0.0	n/a	5	45	ISIslide	Neutral	True
438.727	0.25	Lose2	0.6809000000000001	0.0	Yes	3.373	0.027	n/a	GoodResponse	0	n/a	n/a	5	46	Cue	AvoidedLoss	True
438.978	4.0	Lose2	0.6809000000000001	0.0	Yes	3.373	0.001	n/a	GoodResponse	0	n/a	n/a	5	46	Fixation	AvoidedLoss	True
442.973	0.24	Lose2	0.6809000000000001	0.004	Yes	3.373	-0.004	2.0	GoodResponse	0	0.18	442.153	5	46	Target	AvoidedLoss	True
443.153	0.3	Lose2	0.6809000000000001	0.004	Yes	3.373	-0.004	2.0	GoodResponse	0	0.18	n/a	5	46	ButtonPress	AvoidedLoss	True
443.224	0.46	Lose2	0.6809000000000001	n/a	Yes	3.373	n/a	n/a	GoodResponse	0	n/a	n/a	5	46	Blank	AvoidedLoss	True
443.675	1.45	Lose2	0.6809000000000001	n/a	Yes	3.373	n/a	5.0	GoodResponse	0	0.008	442.683	5	46	Feedback	AvoidedLoss	True
445.129	3.373	Lose2	0.6809000000000001	n/a	Yes	3.373	n/a	n/a	GoodResponse	0	0.0	n/a	5	46	ISIslide	AvoidedLoss	True
448.523	0.25	Lose2	0.6875	0.0	Yes	2.677	0.023	n/a	GoodResponse	0	n/a	n/a	5	47	Cue	AvoidedLoss	True
448.774	4.0	Lose2	0.6875	0.0	Yes	2.677	0.001	n/a	GoodResponse	0	n/a	n/a	5	47	Fixation	AvoidedLoss	True
452.769	0.23	Lose2	0.6875	0.004	Yes	2.677	-0.004	2.0	GoodResponse	0	0.204	451.973	5	47	Target	AvoidedLoss	True
452.973	0.3	Lose2	0.6875	0.004	Yes	2.677	-0.004	2.0	GoodResponse	0	0.204	n/a	5	47	ButtonPress	AvoidedLoss	True
453.003	0.47	Lose2	0.6875	n/a	Yes	2.677	n/a	n/a	GoodResponse	0	n/a	n/a	5	47	Blank	AvoidedLoss	True
453.471	1.45	Lose2	0.6875	n/a	Yes	2.677	n/a	5.0	GoodResponse	0	0.013	452.484	5	47	Feedback	AvoidedLoss	True
454.925	2.677	Lose2	0.6875	n/a	Yes	2.677	n/a	n/a	GoodResponse	0	0.0	n/a	5	47	ISIslide	AvoidedLoss	True
457.617	0.25	Lose2	0.6939	0.0	Yes	3.033	0.017	n/a	GoodResponse	0	n/a	n/a	5	48	Cue	AvoidedLoss	True
457.868	3.95	Lose2	0.6939	0.0	Yes	3.033	0.001	n/a	GoodResponse	0	n/a	n/a	5	48	Fixation	AvoidedLoss	True
461.813	0.22	Lose2	0.6939	0.004	Yes	3.033	-0.004	2.0	GoodResponse	0	0.175	460.988	5	48	Target	AvoidedLoss	True
461.988	0.3	Lose2	0.6939	0.004	Yes	3.033	-0.004	2.0	GoodResponse	0	0.175	n/a	5	48	ButtonPress	AvoidedLoss	True
462.047	0.48	Lose2	0.6939	n/a	Yes	3.033	n/a	n/a	GoodResponse	0	n/a	n/a	5	48	Blank	AvoidedLoss	True
462.515	1.45	Lose2	0.6939	n/a	Yes	3.033	n/a	5.0	GoodResponse	0	0.043	461.558	5	48	Feedback	AvoidedLoss	True
463.969	3.033	Lose2	0.6939	n/a	Yes	3.033	n/a	n/a	GoodResponse	0	0.0	n/a	5	48	ISIslide	AvoidedLoss	True
467.028	0.25	Control	0.7	0.0	Yes	2.872	0.028	n/a	GoodResponse	0	n/a	n/a	5	49	Cue	Neutral	True
467.279	4.0	Control	0.7	0.0	Yes	2.872	0.001	n/a	GoodResponse	0	n/a	n/a	5	49	Fixation	Neutral	True
471.274	0.21	Control	0.7	0.004	Yes	2.872	-0.004	2.0	GoodResponse	0	0.201	470.475	5	49	Target	Neutral	True
471.475	0.3	Control	0.7	0.004	Yes	2.872	-0.004	2.0	GoodResponse	0	0.201	n/a	5	49	ButtonPress	Neutral	True
471.492	0.49	Control	0.7	n/a	Yes	2.872	n/a	n/a	GoodResponse	0	n/a	n/a	5	49	Blank	Neutral	True
471.977	1.45	Control	0.7	n/a	Yes	2.872	n/a	5.0	GoodResponse	0	0.044	471.021	5	49	Feedback	Neutral	True
473.431	2.872	Control	0.7	n/a	Yes	2.872	n/a	n/a	GoodResponse	0	0.0	n/a	5	49	ISIslide	Neutral	True
476.323	0.25	Control	0.6862999999999999	0.0	No	2.777	0.023	n/a	NoResponse	0	n/a	n/a	5	50	Cue	Neutral	True
476.574	4.0	Control	0.6862999999999999	0.0	No	2.777	0.001	n/a	NoResponse	0	n/a	n/a	5	50	Fixation	Neutral	True
480.569	0.2	Control	0.6862999999999999	0.004	No	2.777	-0.004	2.0	NoResponse	0	0.237	479.806	5	50	Target	Neutral	True
480.77	0.5	Control	0.6862999999999999	n/a	No	2.777	n/a	n/a	NoResponse	0	n/a	n/a	5	50	Blank	Neutral	True
480.806	0.3	Control	0.6862999999999999	0.004	No	2.777	-0.004	2.0	NoResponse	0	0.237	n/a	5	50	ButtonPress	Neutral	True
481.271	1.45	Control	0.6862999999999999	n/a	No	2.777	n/a	5.0	NoResponse	0	0.018	480.289	5	50	Feedback	Neutral	True
482.725	2.777	Control	0.6862999999999999	n/a	No	2.777	n/a	n/a	NoResponse	0	0.0	n/a	5	50	ISIslide	Neutral	True
485.517	0.25	Control	0.6731	0.0	No	2.733	0.017	n/a	NoResponse	0	n/a	n/a	5	51	Cue	Neutral	True
485.768	3.95	Control	0.6731	0.0	No	2.733	0.001	n/a	NoResponse	0	n/a	n/a	5	51	Fixation	Neutral	True
489.713	0.19	Control	0.6731	0.004	No	2.733	-0.004	2.0	NoResponse	0	0.241	488.954	5	51	Target	Neutral	True
489.914	0.51	Control	0.6731	n/a	No	2.733	n/a	n/a	NoResponse	0	n/a	n/a	5	51	Blank	Neutral	True
489.954	0.3	Control	0.6731	0.004	No	2.733	-0.004	2.0	NoResponse	0	0.241	n/a	5	51	ButtonPress	Neutral	True
490.415	1.45	Control	0.6731	n/a	No	2.733	n/a	5.0	NoResponse	0	0.044	489.459	5	51	Feedback	Neutral	True
491.87	2.733	Control	0.6731	n/a	No	2.733	n/a	n/a	NoResponse	0	0.0	n/a	5	51	ISIslide	Neutral	True
494.628	0.25	Control	0.6604000000000001	0.0	No	2.622	0.028	n/a	NoResponse	0	n/a	n/a	5	52	Cue	Neutral	True
494.879	4.05	Control	0.6604000000000001	0.0	No	2.622	0.001	n/a	NoResponse	0	n/a	n/a	5	52	Fixation	Neutral	True
498.924	0.18	Control	0.6604000000000001	0.004	No	2.622	-0.004	2.0	NoResponse	0	0.195	498.119	5	52	Target	Neutral	True
499.108	0.52	Control	0.6604000000000001	n/a	No	2.622	n/a	n/a	NoResponse	0	n/a	n/a	5	52	Blank	Neutral	True
499.119	0.3	Control	0.6604000000000001	0.004	No	2.622	-0.004	2.0	NoResponse	0	0.195	n/a	5	52	ButtonPress	Neutral	True
499.626	1.45	Control	0.6604000000000001	n/a	No	2.622	n/a	5.0	NoResponse	0	0.008	498.634	5	52	Feedback	Neutral	True
501.08	2.622	Control	0.6604000000000001	n/a	No	2.622	n/a	n/a	NoResponse	0	0.0	n/a	5	52	ISIslide	Neutral	True
503.722	0.25	Win2	0.6667000000000001	0.0	Yes	2.928	0.022	n/a	GoodResponse	1	n/a	n/a	6	53	Cue	Win	True
503.972	4.05	Win2	0.6667000000000001	0.001	Yes	2.928	0.0	n/a	GoodResponse	1	n/a	n/a	6	53	Fixation	Win	True
508.018	0.18	Win2	0.6667000000000001	0.004	Yes	2.928	-0.004	2.0	GoodResponse	1	0.179	507.197	6	53	Target	Win	True
508.197	0.3	Win2	0.6667000000000001	0.004	Yes	2.928	-0.004	2.0	GoodResponse	1	0.179	n/a	6	53	ButtonPress	Win	True
508.202	0.52	Win2	0.6667000000000001	n/a	Yes	2.928	n/a	n/a	GoodResponse	1	n/a	n/a	6	53	Blank	Win	True
508.72	1.45	Win2	0.6667000000000001	n/a	Yes	2.928	n/a	5.0	GoodResponse	1	0.032	507.752	6	53	Feedback	Win	True
510.174	2.928	Win2	0.6667000000000001	n/a	Yes	2.928	n/a	n/a	GoodResponse	1	0.0	n/a	6	53	ISIslide	Win	True
513.117	0.25	Win2	0.6545000000000001	0.0	No	2.733	0.017	n/a	NoResponse	0	n/a	n/a	6	54	Cue	MissedWin	True
513.367	3.95	Win2	0.6545000000000001	0.0	No	2.733	0.0	n/a	NoResponse	0	n/a	n/a	6	54	Fixation	MissedWin	True
517.329	0.17	Win2	0.6545000000000001	0.0	No	2.733	0.012	2.0	NoResponse	0	0.187	516.516	6	54	Target	MissedWin	True
517.496	0.53	Win2	0.6545000000000001	n/a	No	2.733	n/a	n/a	NoResponse	0	n/a	n/a	6	54	Blank	MissedWin	True
517.516	0.3	Win2	0.6545000000000001	0.0	No	2.733	0.012	2.0	NoResponse	0	0.187	n/a	6	54	ButtonPress	MissedWin	True
518.015	1.45	Win2	0.6545000000000001	n/a	No	2.733	n/a	5.0	NoResponse	0	0.008	517.023	6	54	Feedback	MissedWin	True
519.469	2.733	Win2	0.6545000000000001	n/a	No	2.733	n/a	n/a	NoResponse	0	0.0	n/a	6	54	ISIslide	MissedWin	True
522.227	0.25	Control	0.6429	0.0	No	3.023	0.027	n/a	NoResponse	0	n/a	n/a	6	55	Cue	Neutral	True
522.478	3.95	Control	0.6429	0.0	No	3.023	0.001	n/a	NoResponse	0	n/a	n/a	6	55	Fixation	Neutral	True
526.423	0.18	Control	0.6429	0.004	No	3.023	-0.004	2.0	NoResponse	0	0.659	526.082	6	55	Target	Neutral	True
526.607	0.52	Control	0.6429	n/a	No	3.023	n/a	n/a	NoResponse	0	n/a	n/a	6	55	Blank	Neutral	True
527.082	0.3	Control	0.6429	0.004	No	3.023	-0.004	2.0	NoResponse	0	0.659	n/a	6	55	ButtonPress	Neutral	True
527.125	1.45	Control	0.6429	n/a	No	3.023	n/a	5.0	NoResponse	0	0.018	526.143	6	55	Feedback	Neutral	True
528.58	3.023	Control	0.6429	n/a	No	3.023	n/a	n/a	NoResponse	0	0.0	n/a	6	55	ISIslide	Neutral	True
531.622	0.25	Control	0.6491	0.0	Yes	2.828	0.022	n/a	GoodResponse	0	n/a	n/a	6	56	Cue	Neutral	True
531.873	3.95	Control	0.6491	0.0	Yes	2.828	0.001	n/a	GoodResponse	0	n/a	n/a	6	56	Fixation	Neutral	True
535.818	0.19	Control	0.6491	0.004	Yes	2.828	-0.004	2.0	GoodResponse	0	0.183	535.001	6	56	Target	Neutral	True
536.001	0.3	Control	0.6491	0.004	Yes	2.828	-0.004	2.0	GoodResponse	0	0.183	n/a	6	56	ButtonPress	Neutral	True
536.018	0.51	Control	0.6491	n/a	Yes	2.828	n/a	n/a	GoodResponse	0	n/a	n/a	6	56	Blank	Neutral	True
536.52	1.45	Control	0.6491	n/a	Yes	2.828	n/a	5.0	GoodResponse	0	0.036	535.556	6	56	Feedback	Neutral	True
537.974	2.828	Control	0.6491	n/a	Yes	2.828	n/a	n/a	GoodResponse	0	0.0	n/a	6	56	ISIslide	Neutral	True
540.816	0.25	Control	0.6379	0.0	No	3.484	0.016	n/a	NoResponse	0	n/a	n/a	6	57	Cue	Neutral	True
541.067	4.0	Control	0.6379	0.0	No	3.484	0.001	n/a	NoResponse	0	n/a	n/a	6	57	Fixation	Neutral	True
545.062	0.2	Control	0.6379	0.004	No	3.484	-0.004	2.0	NoResponse	0	0.436	544.498	6	57	Target	Neutral	True
545.263	0.5	Control	0.6379	n/a	No	3.484	n/a	n/a	NoResponse	0	n/a	n/a	6	57	Blank	Neutral	True
545.498	0.3	Control	0.6379	0.004	No	3.484	-0.004	2.0	NoResponse	0	0.436	n/a	6	57	ButtonPress	Neutral	True
545.764	1.45	Control	0.6379	n/a	No	3.484	n/a	5.0	NoResponse	0	0.012	544.776	6	57	Feedback	Neutral	True
547.219	3.484	Control	0.6379	n/a	No	3.484	n/a	n/a	NoResponse	0	0.0	n/a	6	57	ISIslide	Neutral	True
550.729	0.25	Win2	0.6271	0.0	No	2.721	0.029	n/a	NoResponse	0	n/a	n/a	6	58	Cue	MissedWin	True
550.98	4.05	Win2	0.6271	0.0	No	2.721	0.001	n/a	NoResponse	0	n/a	n/a	6	58	Fixation	MissedWin	True
555.025	0.21	Win2	0.6271	0.004	No	2.721	-0.004	2.0	NoResponse	0	0.234	554.259	6	58	Target	MissedWin	True
555.243	0.49	Win2	0.6271	n/a	No	2.721	n/a	n/a	NoResponse	0	n/a	n/a	6	58	Blank	MissedWin	True
555.259	0.3	Win2	0.6271	0.004	No	2.721	-0.004	2.0	NoResponse	0	0.234	n/a	6	58	ButtonPress	MissedWin	True
555.728	1.45	Win2	0.6271	n/a	No	2.721	n/a	5.0	NoResponse	0	0.048	554.776	6	58	Feedback	MissedWin	True
557.182	2.721	Win2	0.6271	n/a	No	2.721	n/a	n/a	NoResponse	0	0.0	n/a	6	58	ISIslide	MissedWin	True
559.923	0.25	Lose2	0.6333	0.001	Yes	2.677	0.023	n/a	GoodResponse	0	n/a	n/a	6	59	Cue	AvoidedLoss	False
560.174	4.0	Lose2	0.6333	0.0	Yes	2.677	0.001	2.0	GoodResponse	0	1.836	561.01	6	59	Fixation	AvoidedLoss	False
562.01	0.3	Lose2	0.6333	0.0	Yes	2.677	0.001	2.0	GoodResponse	0	1.836	n/a	6	59	ButtonPress	AvoidedLoss	False
564.169	0.22	Lose2	0.6333	0.004	Yes	2.677	-0.004	2.0	GoodResponse	0	0.194	563.363	6	59	Target	AvoidedLoss	False
564.363	0.3	Lose2	0.6333	0.004	Yes	2.677	-0.004	2.0	GoodResponse	0	0.194	n/a	6	59	ButtonPress	AvoidedLoss	False
564.404	0.48	Lose2	0.6333	n/a	Yes	2.677	n/a	n/a	GoodResponse	0	n/a	n/a	6	59	Blank	AvoidedLoss	False
564.872	1.45	Lose2	0.6333	n/a	Yes	2.677	n/a	5.0	GoodResponse	0	0.026	563.898	6	59	Feedback	AvoidedLoss	False
566.326	2.677	Lose2	0.6333	n/a	Yes	2.677	n/a	n/a	GoodResponse	0	0.0	n/a	6	59	ISIslide	AvoidedLoss	False
569.017	0.25	Control	0.6393	0.0	Yes	2.683	0.017	n/a	GoodResponse	0	n/a	n/a	6	60	Cue	Neutral	True
569.268	4.0	Control	0.6393	0.0	Yes	2.683	0.001	n/a	GoodResponse	0	n/a	n/a	6	60	Fixation	Neutral	True
573.263	0.23	Control	0.6393	0.004	Yes	2.683	-0.004	2.0	GoodResponse	0	0.201	572.464	6	60	Target	Neutral	True
573.464	0.3	Control	0.6393	0.004	Yes	2.683	-0.004	2.0	GoodResponse	0	0.201	n/a	6	60	ButtonPress	Neutral	True
573.497	0.47	Control	0.6393	n/a	Yes	2.683	n/a	n/a	GoodResponse	0	n/a	n/a	6	60	Blank	Neutral	True
573.966	1.45	Control	0.6393	n/a	Yes	2.683	n/a	5.0	GoodResponse	0	0.007	572.973	6	60	Feedback	Neutral	True
575.42	2.683	Control	0.6393	n/a	Yes	2.683	n/a	n/a	GoodResponse	0	0.0	n/a	6	60	ISIslide	Neutral	True
578.128	0.25	Lose2	0.629	0.0	No	2.972	0.028	n/a	NoResponse	-1	n/a	n/a	5	61	Cue	Loss	True
578.379	4.0	Lose2	0.629	0.0	No	2.972	0.001	2.0	NoResponse	-1	3.806	581.185	5	61	Fixation	Loss	True
582.185	0.3	Lose2	0.629	0.0	No	2.972	0.001	2.0	NoResponse	-1	3.806	n/a	5	61	ButtonPress	Loss	True
582.374	0.24	Lose2	0.629	0.004	No	2.972	-0.004	n/a	NoResponse	-1	n/a	n/a	5	61	Target	Loss	True
582.625	0.46	Lose2	0.629	n/a	No	2.972	n/a	n/a	NoResponse	-1	n/a	n/a	5	61	Blank	Loss	True
583.076	1.45	Lose2	0.629	n/a	No	2.972	n/a	5.0	NoResponse	-1	0.018	582.094	5	61	Feedback	Loss	True
584.53	2.972	Lose2	0.629	n/a	No	2.972	n/a	n/a	NoResponse	-1	0.0	n/a	5	61	ISIslide	Loss	True
587.523	0.25	Lose2	0.6349	0.0	Yes	2.877	0.023	n/a	GoodResponse	0	n/a	n/a	5	62	Cue	AvoidedLoss	True
587.774	3.9	Lose2	0.6349	0.0	Yes	2.877	0.001	n/a	GoodResponse	0	n/a	n/a	5	62	Fixation	AvoidedLoss	True
591.669	0.25	Lose2	0.6349	0.004	Yes	2.877	-0.004	2.0	GoodResponse	0	0.203	590.872	5	62	Target	AvoidedLoss	True
591.872	0.3	Lose2	0.6349	0.004	Yes	2.877	-0.004	2.0	GoodResponse	0	0.203	n/a	5	62	ButtonPress	AvoidedLoss	True
591.919	0.45	Lose2	0.6349	n/a	Yes	2.877	n/a	n/a	GoodResponse	0	n/a	n/a	5	62	Blank	AvoidedLoss	True
592.371	1.45	Lose2	0.6349	n/a	Yes	2.877	n/a	5.0	GoodResponse	0	0.04	591.411	5	62	Feedback	AvoidedLoss	True
593.825	2.877	Lose2	0.6349	n/a	Yes	2.877	n/a	n/a	GoodResponse	0	0.0	n/a	5	62	ISIslide	AvoidedLoss	True
596.717	0.25	Lose2	0.6406000000000001	0.0	Yes	2.633	0.017	n/a	GoodResponse	0	n/a	n/a	5	63	Cue	AvoidedLoss	True
596.968	4.05	Lose2	0.6406000000000001	0.0	Yes	2.633	0.001	n/a	GoodResponse	0	n/a	n/a	5	63	Fixation	AvoidedLoss	True
601.013	0.26	Lose2	0.6406000000000001	0.004	Yes	2.633	-0.004	2.0	GoodResponse	0	0.174	600.187	5	63	Target	AvoidedLoss	True
601.187	0.3	Lose2	0.6406000000000001	0.004	Yes	2.633	-0.004	2.0	GoodResponse	0	0.174	n/a	5	63	ButtonPress	AvoidedLoss	True
601.281	0.44	Lose2	0.6406000000000001	n/a	Yes	2.633	n/a	n/a	GoodResponse	0	n/a	n/a	5	63	Blank	AvoidedLoss	True
601.715	1.45	Lose2	0.6406000000000001	n/a	Yes	2.633	n/a	5.0	GoodResponse	0	0.012	600.727	5	63	Feedback	AvoidedLoss	True
603.17	2.633	Lose2	0.6406000000000001	n/a	Yes	2.633	n/a	n/a	GoodResponse	0	0.0	n/a	5	63	ISIslide	AvoidedLoss	True
605.828	0.25	Win2	0.6462	0.0	Yes	3.122	0.028	n/a	GoodResponse	1	n/a	n/a	6	64	Cue	Win	True
606.078	4.15	Win2	0.6462	0.0	Yes	3.122	0.0	n/a	GoodResponse	1	n/a	n/a	6	64	Fixation	Win	True
610.224	0.27	Win2	0.6462	0.004	Yes	3.122	-0.004	2.0	GoodResponse	1	0.258	609.482	6	64	Target	Win	True
610.482	0.3	Win2	0.6462	0.004	Yes	3.122	-0.004	2.0	GoodResponse	1	0.258	n/a	6	64	ButtonPress	Win	True
610.508	0.43	Win2	0.6462	n/a	Yes	3.122	n/a	n/a	GoodResponse	1	n/a	n/a	6	64	Blank	Win	True
610.926	1.45	Win2	0.6462	n/a	Yes	3.122	n/a	5.0	GoodResponse	1	0.02	609.946	6	64	Feedback	Win	True
612.381	3.122	Win2	0.6462	n/a	Yes	3.122	n/a	n/a	GoodResponse	1	0.0	n/a	6	64	ISIslide	Win	True
615.523	0.25	Control	0.6515000000000001	0.0	Yes	2.777	0.023	n/a	GoodResponse	0	n/a	n/a	6	65	Cue	Neutral	True
615.774	4.0	Control	0.6515000000000001	0.0	Yes	2.777	0.001	n/a	GoodResponse	0	n/a	n/a	6	65	Fixation	Neutral	True
619.769	0.28	Control	0.6515000000000001	0.004	Yes	2.777	-0.004	2.0	GoodResponse	0	0.2	618.969	6	65	Target	Neutral	True
619.969	0.3	Control	0.6515000000000001	0.004	Yes	2.777	-0.004	2.0	GoodResponse	0	0.2	n/a	6	65	ButtonPress	Neutral	True
620.054	0.42	Control	0.6515000000000001	n/a	Yes	2.777	n/a	n/a	GoodResponse	0	n/a	n/a	6	65	Blank	Neutral	True
620.472	1.45	Control	0.6515000000000001	n/a	Yes	2.777	n/a	5.0	GoodResponse	0	0.036	619.508	6	65	Feedback	Neutral	True
621.926	2.777	Control	0.6515000000000001	n/a	Yes	2.777	n/a	n/a	GoodResponse	0	0.0	n/a	6	65	ISIslide	Neutral	True
624.718	0.25	Win2	0.6418	0.0	No	2.782	0.018	n/a	NoResponse	0	n/a	n/a	6	66	Cue	MissedWin	True
624.968	3.9	Win2	0.6418	0.0	No	2.782	0.0	n/a	NoResponse	0	n/a	n/a	6	66	Fixation	MissedWin	True
628.88	0.29	Win2	0.6418	0.0	No	2.782	0.012	2.0	NoResponse	0	0.619	628.499	6	66	Target	MissedWin	True
629.164	0.41	Win2	0.6418	n/a	No	2.782	n/a	n/a	NoResponse	0	n/a	n/a	6	66	Blank	MissedWin	True
629.499	0.3	Win2	0.6418	0.0	No	2.782	0.012	2.0	NoResponse	0	0.619	n/a	6	66	ButtonPress	MissedWin	True
629.565	1.45	Win2	0.6418	n/a	No	2.782	n/a	5.0	NoResponse	0	0.016	628.581	6	66	Feedback	MissedWin	True
631.02	2.782	Win2	0.6418	n/a	No	2.782	n/a	n/a	NoResponse	0	0.0	n/a	6	66	ISIslide	MissedWin	True
633.828	0.25	Control	0.6470999999999999	0.0	Yes	2.722	0.028	n/a	GoodResponse	0	n/a	n/a	6	67	Cue	Neutral	True
634.079	3.95	Control	0.6470999999999999	0.0	Yes	2.722	0.001	n/a	GoodResponse	0	n/a	n/a	6	67	Fixation	Neutral	True
638.024	0.3	Control	0.6470999999999999	0.004	Yes	2.722	-0.004	2.0	GoodResponse	0	0.29	637.314	6	67	Target	Neutral	True
638.314	0.3	Control	0.6470999999999999	0.004	Yes	2.722	-0.004	2.0	GoodResponse	0	0.29	n/a	6	67	ButtonPress	Neutral	True
638.325	0.4	Control	0.6470999999999999	n/a	Yes	2.722	n/a	n/a	GoodResponse	0	n/a	n/a	6	67	Blank	Neutral	True
638.726	1.45	Control	0.6470999999999999	n/a	Yes	2.722	n/a	5.0	GoodResponse	0	0.026	637.752	6	67	Feedback	Neutral	True
640.181	2.722	Control	0.6470999999999999	n/a	Yes	2.722	n/a	n/a	GoodResponse	0	0.0	n/a	6	67	ISIslide	Neutral	True
642.922	0.25	Win2	0.6522	0.0	Yes	3.078	0.022	n/a	GoodResponse	1	n/a	n/a	7	68	Cue	Win	True
643.173	4.0	Win2	0.6522	0.0	Yes	3.078	0.001	n/a	GoodResponse	1	n/a	n/a	7	68	Fixation	Win	True
647.168	0.31	Win2	0.6522	0.004	Yes	3.078	-0.004	2.0	GoodResponse	1	0.194	646.362	7	68	Target	Win	True
647.362	0.3	Win2	0.6522	0.004	Yes	3.078	-0.004	2.0	GoodResponse	1	0.194	n/a	7	68	ButtonPress	Win	True
647.486	0.39	Win2	0.6522	n/a	Yes	3.078	n/a	n/a	GoodResponse	1	n/a	n/a	7	68	Blank	Win	True
647.87	1.45	Win2	0.6522	n/a	Yes	3.078	n/a	5.0	GoodResponse	1	0.008	646.878	7	68	Feedback	Win	True
649.325	3.078	Win2	0.6522	n/a	Yes	3.078	n/a	n/a	GoodResponse	1	0.0	n/a	7	68	ISIslide	Win	True
652.417	0.25	Win2	0.6570999999999999	0.0	Yes	3.233	0.017	n/a	GoodResponse	1	n/a	n/a	8	69	Cue	Win	True
652.668	3.95	Win2	0.6570999999999999	0.0	Yes	3.233	0.001	n/a	GoodResponse	1	n/a	n/a	8	69	Fixation	Win	True
656.613	0.32	Win2	0.6570999999999999	0.004	Yes	3.233	-0.004	2.0	GoodResponse	1	0.207	655.82	8	69	Target	Win	True
656.82	0.3	Win2	0.6570999999999999	0.004	Yes	3.233	-0.004	2.0	GoodResponse	1	0.207	n/a	8	69	ButtonPress	Win	True
656.947	0.38	Win2	0.6570999999999999	n/a	Yes	3.233	n/a	n/a	GoodResponse	1	n/a	n/a	8	69	Blank	Win	True
657.315	1.45	Win2	0.6570999999999999	n/a	Yes	3.233	n/a	5.0	GoodResponse	1	0.021	656.336	8	69	Feedback	Win	True
658.77	3.233	Win2	0.6570999999999999	n/a	Yes	3.233	n/a	n/a	GoodResponse	1	0.0	n/a	8	69	ISIslide	Win	True
662.029	0.25	Lose2	0.662	0.0	Yes	3.021	0.029	n/a	GoodResponse	0	n/a	n/a	8	70	Cue	AvoidedLoss	True
662.28	4.05	Lose2	0.662	0.0	Yes	3.021	0.001	n/a	GoodResponse	0	n/a	n/a	8	70	Fixation	AvoidedLoss	True
666.326	0.32	Lose2	0.662	0.003	Yes	3.021	-0.003	2.0	GoodResponse	0	0.276	665.602	8	70	Target	AvoidedLoss	True
666.602	0.3	Lose2	0.662	0.003	Yes	3.021	-0.003	2.0	GoodResponse	0	0.276	n/a	8	70	ButtonPress	AvoidedLoss	True
666.66	0.38	Lose2	0.662	n/a	Yes	3.021	n/a	n/a	GoodResponse	0	n/a	n/a	8	70	Blank	AvoidedLoss	True
667.028	1.45	Lose2	0.662	n/a	Yes	3.021	n/a	5.0	GoodResponse	0	0.016	666.044	8	70	Feedback	AvoidedLoss	True
668.482	3.021	Lose2	0.662	n/a	Yes	3.021	n/a	n/a	GoodResponse	0	0.0	n/a	8	70	ISIslide	AvoidedLoss	True
671.525	0.25	Win2	0.6667000000000001	0.0	Yes	2.725	0.025	n/a	GoodResponse	1	n/a	n/a	9	71	Cue	Win	True
671.775	4.05	Win2	0.6667000000000001	0.0	Yes	2.725	0.0	n/a	GoodResponse	1	n/a	n/a	9	71	Fixation	Win	True
675.821	0.32	Win2	0.6667000000000001	0.004	Yes	2.725	-0.004	2.0	GoodResponse	1	0.192	675.013	9	71	Target	Win	True
676.013	0.3	Win2	0.6667000000000001	0.004	Yes	2.725	-0.004	2.0	GoodResponse	1	0.192	n/a	9	71	ButtonPress	Win	True
676.155	0.38	Win2	0.6667000000000001	n/a	Yes	2.725	n/a	n/a	GoodResponse	1	n/a	n/a	9	71	Blank	Win	True
676.523	1.45	Win2	0.6667000000000001	n/a	Yes	2.725	n/a	5.0	GoodResponse	1	0.033	675.556	9	71	Feedback	Win	True
677.977	2.725	Win2	0.6667000000000001	n/a	Yes	2.725	n/a	n/a	GoodResponse	1	0.0	n/a	9	71	ISIslide	Win	True
680.719	0.25	Win2	0.6712	0.0	Yes	2.781	0.019	n/a	GoodResponse	1	n/a	n/a	10	72	Cue	Win	True
680.969	4.1	Win2	0.6712	0.001	Yes	2.781	0.0	n/a	GoodResponse	1	n/a	n/a	10	72	Fixation	Win	True
685.065	0.31	Win2	0.6712	0.004	Yes	2.781	-0.004	2.0	GoodResponse	1	0.222	684.287	10	72	Target	Win	True
685.287	0.3	Win2	0.6712	0.004	Yes	2.781	-0.004	2.0	GoodResponse	1	0.222	n/a	10	72	ButtonPress	Win	True
685.383	0.39	Win2	0.6712	n/a	Yes	2.781	n/a	n/a	GoodResponse	1	n/a	n/a	10	72	Blank	Win	True
685.767	1.45	Win2	0.6712	n/a	Yes	2.781	n/a	5.0	GoodResponse	1	0.009	684.776	10	72	Feedback	Win	True
687.222	2.781	Win2	0.6712	n/a	Yes	2.781	n/a	n/a	GoodResponse	1	0.0	n/a	10	72	ISIslide	Win	True
690.03	0.25	Win2	0.6757	0.0	Yes	2.67	0.03	n/a	GoodResponse	1	n/a	n/a	11	73	Cue	Win	True
690.281	4.0	Win2	0.6757	0.0	Yes	2.67	0.001	n/a	GoodResponse	1	n/a	n/a	11	73	Fixation	Win	True
694.276	0.3	Win2	0.6757	0.004	Yes	2.67	-0.004	2.0	GoodResponse	1	0.2	693.476	11	73	Target	Win	True
694.476	0.3	Win2	0.6757	0.004	Yes	2.67	-0.004	2.0	GoodResponse	1	0.2	n/a	11	73	ButtonPress	Win	True
694.577	0.4	Win2	0.6757	n/a	Yes	2.67	n/a	n/a	GoodResponse	1	n/a	n/a	11	73	Blank	Win	True
694.978	1.45	Win2	0.6757	n/a	Yes	2.67	n/a	5.0	GoodResponse	1	0.017	693.995	11	73	Feedback	Win	True
696.432	2.67	Win2	0.6757	n/a	Yes	2.67	n/a	n/a	GoodResponse	1	0.0	n/a	11	73	ISIslide	Win	True
699.124	0.25	Lose2	0.68	0.0	Yes	2.626	0.024	n/a	GoodResponse	0	n/a	n/a	11	74	Cue	AvoidedLoss	True
699.375	4.05	Lose2	0.68	0.0	Yes	2.626	0.001	n/a	GoodResponse	0	n/a	n/a	11	74	Fixation	AvoidedLoss	True
703.42	0.29	Lose2	0.68	0.004	Yes	2.626	-0.004	2.0	GoodResponse	0	0.199	702.619	11	74	Target	AvoidedLoss	True
703.619	0.3	Lose2	0.68	0.004	Yes	2.626	-0.004	2.0	GoodResponse	0	0.199	n/a	11	74	ButtonPress	AvoidedLoss	True
703.721	0.41	Lose2	0.68	n/a	Yes	2.626	n/a	n/a	GoodResponse	0	n/a	n/a	11	74	Blank	AvoidedLoss	True
704.122	1.45	Lose2	0.68	n/a	Yes	2.626	n/a	5.0	GoodResponse	0	0.044	703.166	11	74	Feedback	AvoidedLoss	True
705.577	2.626	Lose2	0.68	n/a	Yes	2.626	n/a	n/a	GoodResponse	0	0.0	n/a	11	74	ISIslide	AvoidedLoss	True
708.218	0.25	Lose2	0.6842	0.0	Yes	2.932	0.018	n/a	GoodResponse	0	n/a	n/a	11	75	Cue	AvoidedLoss	True
708.469	3.95	Lose2	0.6842	0.0	Yes	2.932	0.001	n/a	GoodResponse	0	n/a	n/a	11	75	Fixation	AvoidedLoss	True
712.414	0.28	Lose2	0.6842	0.004	Yes	2.932	-0.004	2.0	GoodResponse	0	0.253	711.667	11	75	Target	AvoidedLoss	True
712.667	0.3	Lose2	0.6842	0.004	Yes	2.932	-0.004	2.0	GoodResponse	0	0.253	n/a	11	75	ButtonPress	AvoidedLoss	True
712.698	0.42	Lose2	0.6842	n/a	Yes	2.932	n/a	n/a	GoodResponse	0	n/a	n/a	11	75	Blank	AvoidedLoss	True
713.116	1.45	Lose2	0.6842	n/a	Yes	2.932	n/a	5.0	GoodResponse	0	0.026	712.142	11	75	Feedback	AvoidedLoss	True
714.57	2.932	Lose2	0.6842	n/a	Yes	2.932	n/a	n/a	GoodResponse	0	0.0	n/a	11	75	ISIslide	AvoidedLoss	True
717.529	0.25	Control	0.6883	0.0	Yes	3.221	0.029	n/a	GoodResponse	0	n/a	n/a	11	76	Cue	Neutral	True
717.78	4.05	Control	0.6883	0.0	Yes	3.221	0.001	n/a	GoodResponse	0	n/a	n/a	11	76	Fixation	Neutral	True
721.825	0.27	Control	0.6883	0.004	Yes	3.221	-0.004	2.0	GoodResponse	0	0.209	721.034	11	76	Target	Neutral	True
722.034	0.3	Control	0.6883	0.004	Yes	3.221	-0.004	2.0	GoodResponse	0	0.209	n/a	11	76	ButtonPress	Neutral	True
722.109	0.43	Control	0.6883	n/a	Yes	3.221	n/a	n/a	GoodResponse	0	n/a	n/a	11	76	Blank	Neutral	True
722.527	1.45	Control	0.6883	n/a	Yes	3.221	n/a	5.0	GoodResponse	0	0.028	721.555	11	76	Feedback	Neutral	True
723.982	3.221	Control	0.6883	n/a	Yes	3.221	n/a	n/a	GoodResponse	0	0.0	n/a	11	76	ISIslide	Neutral	True
727.225	0.25	Lose2	0.6923	0.0	Yes	2.575	0.025	n/a	GoodResponse	0	n/a	n/a	11	77	Cue	AvoidedLoss	True
727.475	3.95	Lose2	0.6923	0.001	Yes	2.575	0.0	n/a	GoodResponse	0	n/a	n/a	11	77	Fixation	AvoidedLoss	True
731.421	0.26	Lose2	0.6923	0.004	Yes	2.575	-0.004	2.0	GoodResponse	0	0.212	730.633	11	77	Target	AvoidedLoss	True
731.633	0.3	Lose2	0.6923	0.004	Yes	2.575	-0.004	2.0	GoodResponse	0	0.212	n/a	11	77	ButtonPress	AvoidedLoss	True
731.688	0.44	Lose2	0.6923	n/a	Yes	2.575	n/a	n/a	GoodResponse	0	n/a	n/a	11	77	Blank	AvoidedLoss	True
732.123	1.45	Lose2	0.6923	n/a	Yes	2.575	n/a	5.0	GoodResponse	0	0.042	731.165	11	77	Feedback	AvoidedLoss	True
733.577	2.575	Lose2	0.6923	n/a	Yes	2.575	n/a	n/a	GoodResponse	0	0.0	n/a	11	77	ISIslide	AvoidedLoss	True
