onset	duration	cue_type	current_mean_accuracy	duration_error	is_hit	isi_adjusted	onset_delay	response	response_type	reward	rt	rt_time	total_reward	trial_number	trial_phase	trial_type	one_press
11.1	0.25	Control	1.0	0.0	Yes	2.95	0.0	n/a	GoodResponse	0	n/a	n/a	0	0	Cue	Neutral	False
11.35	3.85	Control	1.0	0.0	Yes	2.95	0.0	1.0	GoodResponse	0	0.212	10.562	0	0	Fixation	Neutral	False
11.562	0.3	Control	1.0	0.0	Yes	2.95	0.0	1.0	GoodResponse	0	0.212	n/a	0	0	ButtonPress	Neutral	False
15.199	0.4	Control	1.0	0.001	Yes	2.95	-0.001	1.0	GoodResponse	0	0.272	14.471	0	0	Target	Neutral	False
15.471	0.3	Control	1.0	0.001	Yes	2.95	-0.001	1.0	GoodResponse	0	0.272	n/a	0	0	ButtonPress	Neutral	False
15.599	0.3	Control	1.0	n/a	Yes	2.95	n/a	n/a	GoodResponse	0	n/a	n/a	0	0	Blank	Neutral	False
15.899	1.45	Control	1.0	n/a	Yes	2.95	n/a	5.0	GoodResponse	0	0.027	14.926	0	0	Feedback	Neutral	False
17.348	2.95	Control	1.0	n/a	Yes	2.95	n/a	n/a	GoodResponse	0	0.0	n/a	0	0	ISIslide	Neutral	False
20.33	0.25	Lose2	1.0	0.001	Yes	2.77	0.03	n/a	GoodResponse	0	n/a	n/a	0	1	Cue	AvoidedLoss	True
20.58	4.0	Lose2	1.0	0.0	Yes	2.77	0.0	n/a	GoodResponse	0	n/a	n/a	0	1	Fixation	AvoidedLoss	True
24.579	0.39	Lose2	1.0	0.001	Yes	2.77	-0.001	1.0	GoodResponse	0	0.232	23.811	0	1	Target	AvoidedLoss	True
24.811	0.3	Lose2	1.0	0.001	Yes	2.77	-0.001	1.0	GoodResponse	0	0.232	n/a	0	1	ButtonPress	AvoidedLoss	True
24.979	0.31	Lose2	1.0	n/a	Yes	2.77	n/a	n/a	GoodResponse	0	n/a	n/a	0	1	Blank	AvoidedLoss	True
25.279	1.45	Lose2	1.0	n/a	Yes	2.77	n/a	5.0	GoodResponse	0	0.013	24.292	0	1	Feedback	AvoidedLoss	True
26.728	2.77	Lose2	1.0	n/a	Yes	2.77	n/a	n/a	GoodResponse	0	0.0	n/a	0	1	ISIslide	AvoidedLoss	True
29.527	0.25	Control	1.0	0.0	Yes	2.573	0.027	n/a	GoodResponse	0	n/a	n/a	0	2	Cue	Neutral	True
29.777	4.1	Control	1.0	0.0	Yes	2.573	0.0	n/a	GoodResponse	0	n/a	n/a	0	2	Fixation	Neutral	True
33.876	0.38	Control	1.0	0.001	Yes	2.573	-0.001	1.0	GoodResponse	0	0.192	33.068	0	2	Target	Neutral	True
34.068	0.3	Control	1.0	0.001	Yes	2.573	-0.001	1.0	GoodResponse	0	0.192	n/a	0	2	ButtonPress	Neutral	True
34.259	0.32	Control	1.0	n/a	Yes	2.573	n/a	n/a	GoodResponse	0	n/a	n/a	0	2	Blank	Neutral	True
34.575	1.45	Control	1.0	n/a	Yes	2.573	n/a	5.0	GoodResponse	0	0.035	33.61	0	2	Feedback	Neutral	True
36.025	2.573	Control	1.0	n/a	Yes	2.573	n/a	n/a	GoodResponse	0	0.0	n/a	0	2	ISIslide	Neutral	True
38.624	0.25	Win2	1.0	0.0	Yes	2.826	0.024	n/a	GoodResponse	1	n/a	n/a	1	3	Cue	Win	True
38.874	3.95	Win2	1.0	0.0	Yes	2.826	0.0	n/a	GoodResponse	1	n/a	n/a	1	3	Fixation	Win	True
42.823	0.37	Win2	1.0	0.001	Yes	2.826	-0.001	1.0	GoodResponse	1	0.233	42.056	1	3	Target	Win	True
43.056	0.3	Win2	1.0	0.001	Yes	2.826	-0.001	1.0	GoodResponse	1	0.233	n/a	1	3	ButtonPress	Win	True
43.206	0.33	Win2	1.0	n/a	Yes	2.826	n/a	n/a	GoodResponse	1	n/a	n/a	1	3	Blank	Win	True
43.522	1.45	Win2	1.0	n/a	Yes	2.826	n/a	5.0	GoodResponse	1	0.015	42.537	1	3	Feedback	Win	True
44.972	2.826	Win2	1.0	n/a	Yes	2.826	n/a	n/a	GoodResponse	1	0.0	n/a	1	3	ISIslide	Win	True
47.821	0.25	Win2	1.0	0.0	Yes	3.279	0.021	n/a	GoodResponse	1	n/a	n/a	2	4	Cue	Win	False
48.071	4.0	Win2	1.0	0.0	Yes	3.279	0.0	1.0	GoodResponse	1	3.742	50.813	2	4	Fixation	Win	False
51.813	0.3	Win2	1.0	0.0	Yes	3.279	0.0	1.0	GoodResponse	1	3.742	n/a	2	4	ButtonPress	Win	False
52.069	0.36	Win2	1.0	0.002	Yes	3.279	-0.002	1.0	GoodResponse	1	0.228	51.297	2	4	Target	Win	False
52.297	0.3	Win2	1.0	0.002	Yes	3.279	-0.002	1.0	GoodResponse	1	0.228	n/a	2	4	ButtonPress	Win	False
52.436	0.34	Win2	1.0	n/a	Yes	3.279	n/a	n/a	GoodResponse	1	n/a	n/a	2	4	Blank	Win	False
52.769	1.45	Win2	1.0	n/a	Yes	3.279	n/a	5.0	GoodResponse	1	0.035	51.804	2	4	Feedback	Win	False
54.219	3.279	Win2	1.0	n/a	Yes	3.279	n/a	n/a	GoodResponse	1	0.0	n/a	2	4	ISIslide	Win	False
57.517	0.25	Win2	1.0	0.001	Yes	2.783	0.017	n/a	GoodResponse	1	n/a	n/a	3	5	Cue	Win	True
57.767	4.0	Win2	1.0	0.0	Yes	2.783	0.0	n/a	GoodResponse	1	n/a	n/a	3	5	Fixation	Win	True
61.766	0.35	Win2	1.0	0.001	Yes	2.783	-0.001	1.0	GoodResponse	1	0.187	60.953	3	5	Target	Win	True
61.953	0.3	Win2	1.0	0.001	Yes	2.783	-0.001	1.0	GoodResponse	1	0.187	n/a	3	5	ButtonPress	Win	True
62.116	0.35	Win2	1.0	n/a	Yes	2.783	n/a	n/a	GoodResponse	1	n/a	n/a	3	5	Blank	Win	True
62.466	1.45	Win2	1.0	n/a	Yes	2.783	n/a	5.0	GoodResponse	1	0.045	61.511	3	5	Feedback	Win	True
63.915	2.783	Win2	1.0	n/a	Yes	2.783	n/a	n/a	GoodResponse	1	0.0	n/a	3	5	ISIslide	Win	True
66.714	0.25	Lose2	1.0	0.0	Yes	2.736	0.014	n/a	GoodResponse	0	n/a	n/a	3	6	Cue	AvoidedLoss	True
66.964	3.95	Lose2	1.0	0.0	Yes	2.736	0.0	n/a	GoodResponse	0	n/a	n/a	3	6	Fixation	AvoidedLoss	True
70.913	0.34	Lose2	1.0	0.001	Yes	2.736	-0.001	1.0	GoodResponse	0	0.228	70.141	3	6	Target	AvoidedLoss	True
71.141	0.3	Lose2	1.0	0.001	Yes	2.736	-0.001	1.0	GoodResponse	0	0.228	n/a	3	6	ButtonPress	AvoidedLoss	True
71.263	0.36	Lose2	1.0	n/a	Yes	2.736	n/a	n/a	GoodResponse	0	n/a	n/a	3	6	Blank	AvoidedLoss	True
71.613	1.45	Lose2	1.0	n/a	Yes	2.736	n/a	5.0	GoodResponse	0	0.02	70.633	3	6	Feedback	AvoidedLoss	True
73.062	2.736	Lose2	1.0	n/a	Yes	2.736	n/a	n/a	GoodResponse	0	0.0	n/a	3	6	ISIslide	AvoidedLoss	True
75.828	0.25	Lose2	1.0	0.0	Yes	4.022	0.028	n/a	GoodResponse	0	n/a	n/a	3	7	Cue	AvoidedLoss	True
76.078	4.05	Lose2	1.0	0.0	Yes	4.022	0.0	n/a	GoodResponse	0	n/a	n/a	3	7	Fixation	AvoidedLoss	True
80.126	0.33	Lose2	1.0	0.002	Yes	4.022	-0.002	1.0	GoodResponse	0	0.219	79.345	3	7	Target	AvoidedLoss	True
80.345	0.3	Lose2	1.0	0.002	Yes	4.022	-0.002	1.0	GoodResponse	0	0.219	n/a	3	7	ButtonPress	AvoidedLoss	True
80.459	0.37	Lose2	1.0	n/a	Yes	4.022	n/a	n/a	GoodResponse	0	n/a	n/a	3	7	Blank	AvoidedLoss	True
80.826	1.45	Lose2	1.0	n/a	Yes	4.022	n/a	5.0	GoodResponse	0	0.027	79.853	3	7	Feedback	AvoidedLoss	True
82.276	4.022	Lose2	1.0	n/a	Yes	4.022	n/a	n/a	GoodResponse	0	0.0	n/a	3	7	ISIslide	AvoidedLoss	True
86.324	0.25	Lose2	1.0	0.0	Yes	3.026	0.024	n/a	GoodResponse	0	n/a	n/a	3	8	Cue	AvoidedLoss	True
86.574	3.95	Lose2	1.0	0.0	Yes	3.026	0.0	n/a	GoodResponse	0	n/a	n/a	3	8	Fixation	AvoidedLoss	True
90.523	0.32	Lose2	1.0	0.001	Yes	3.026	-0.001	1.0	GoodResponse	0	0.222	89.745	3	8	Target	AvoidedLoss	True
90.745	0.3	Lose2	1.0	0.001	Yes	3.026	-0.001	1.0	GoodResponse	0	0.222	n/a	3	8	ButtonPress	AvoidedLoss	True
90.856	0.38	Lose2	1.0	n/a	Yes	3.026	n/a	n/a	GoodResponse	0	n/a	n/a	3	8	Blank	AvoidedLoss	True
91.222	1.45	Lose2	1.0	n/a	Yes	3.026	n/a	5.0	GoodResponse	0	0.021	90.243	3	8	Feedback	AvoidedLoss	True
92.672	3.026	Lose2	1.0	n/a	Yes	3.026	n/a	n/a	GoodResponse	0	0.0	n/a	3	8	ISIslide	AvoidedLoss	True
95.721	0.25	Lose2	1.0	0.0	Yes	3.129	0.021	n/a	GoodResponse	0	n/a	n/a	3	9	Cue	AvoidedLoss	True
95.971	3.95	Lose2	1.0	0.0	Yes	3.129	0.0	n/a	GoodResponse	0	n/a	n/a	3	9	Fixation	AvoidedLoss	True
99.919	0.31	Lose2	1.0	0.002	Yes	3.129	-0.002	1.0	GoodResponse	0	0.237	99.156	3	9	Target	AvoidedLoss	True
100.156	0.3	Lose2	1.0	0.002	Yes	3.129	-0.002	1.0	GoodResponse	0	0.237	n/a	3	9	ButtonPress	AvoidedLoss	True
100.236	0.39	Lose2	1.0	n/a	Yes	3.129	n/a	n/a	GoodResponse	0	n/a	n/a	3	9	Blank	AvoidedLoss	True
100.619	1.45	Lose2	1.0	n/a	Yes	3.129	n/a	5.0	GoodResponse	0	0.038	99.657	3	9	Feedback	AvoidedLoss	True
102.069	3.129	Lose2	1.0	n/a	Yes	3.129	n/a	n/a	GoodResponse	0	0.0	n/a	3	9	ISIslide	AvoidedLoss	True
105.218	0.25	Control	0.9091	0.0	No	3.282	0.018	n/a	PrematurePress	0	n/a	n/a	3	10	Cue	Neutral	True
105.467	4.0	Control	0.9091	0.001	No	3.282	-0.001	n/a	PrematurePress	0	n/a	n/a	3	10	Fixation	Neutral	True
109.466	0.3	Control	0.9091	0.002	No	3.282	-0.002	1.0	PrematurePress	0	0.064	108.53	3	10	Target	Neutral	True
109.53	0.3	Control	0.9091	0.002	No	3.282	-0.002	1.0	PrematurePress	0	0.064	n/a	3	10	ButtonPress	Neutral	True
109.766	0.4	Control	0.9091	n/a	No	3.282	n/a	n/a	PrematurePress	0	n/a	n/a	3	10	Blank	Neutral	True
110.166	1.45	Control	0.9091	n/a	No	3.282	n/a	5.0	PrematurePress	0	0.008	109.174	3	10	Feedback	Neutral	True
111.615	3.282	Control	0.9091	n/a	No	3.282	n/a	n/a	PrematurePress	0	0.0	n/a	3	10	ISIslide	Neutral	True
114.914	0.25	Lose2	0.9167000000000001	0.0	Yes	2.736	0.014	n/a	GoodResponse	0	n/a	n/a	3	11	Cue	AvoidedLoss	True
115.164	4.05	Lose2	0.9167000000000001	0.0	Yes	2.736	0.0	n/a	GoodResponse	0	n/a	n/a	3	11	Fixation	AvoidedLoss	True
119.213	0.29	Lose2	0.9167000000000001	0.001	Yes	2.736	-0.001	1.0	GoodResponse	0	0.219	118.432	3	11	Target	AvoidedLoss	True
119.432	0.3	Lose2	0.9167000000000001	0.001	Yes	2.736	-0.001	1.0	GoodResponse	0	0.219	n/a	3	11	ButtonPress	AvoidedLoss	True
119.513	0.41	Lose2	0.9167000000000001	n/a	Yes	2.736	n/a	n/a	GoodResponse	0	n/a	n/a	3	11	Blank	AvoidedLoss	True
119.912	1.45	Lose2	0.9167000000000001	n/a	Yes	2.736	n/a	5.0	GoodResponse	0	0.014	118.926	3	11	Feedback	AvoidedLoss	True
121.362	2.736	Lose2	0.9167000000000001	n/a	Yes	2.736	n/a	n/a	GoodResponse	0	0.0	n/a	3	11	ISIslide	AvoidedLoss	True
124.128	0.25	Control	0.9231	0.0	Yes	2.972	0.028	n/a	GoodResponse	0	n/a	n/a	3	12	Cue	Neutral	True
124.377	3.9	Control	0.9231	0.001	Yes	2.972	-0.001	n/a	GoodResponse	0	n/a	n/a	3	12	Fixation	Neutral	True
128.276	0.28	Control	0.9231	0.002	Yes	2.972	-0.002	1.0	GoodResponse	0	0.244	127.52	3	12	Target	Neutral	True
128.52	0.3	Control	0.9231	0.002	Yes	2.972	-0.002	1.0	GoodResponse	0	0.244	n/a	3	12	ButtonPress	Neutral	True
128.559	0.42	Control	0.9231	n/a	Yes	2.972	n/a	n/a	GoodResponse	0	n/a	n/a	3	12	Blank	Neutral	True
128.976	1.45	Control	0.9231	n/a	Yes	2.972	n/a	5.0	GoodResponse	0	0.023	127.999	3	12	Feedback	Neutral	True
130.425	2.972	Control	0.9231	n/a	Yes	2.972	n/a	n/a	GoodResponse	0	0.0	n/a	3	12	ISIslide	Neutral	True
133.424	0.25	Control	0.9286	0.0	Yes	2.776	0.024	n/a	GoodResponse	0	n/a	n/a	3	13	Cue	Neutral	True
133.674	4.0	Control	0.9286	0.0	Yes	2.776	0.0	n/a	GoodResponse	0	n/a	n/a	3	13	Fixation	Neutral	True
137.673	0.27	Control	0.9286	0.001	Yes	2.776	-0.001	1.0	GoodResponse	0	0.255	136.928	3	13	Target	Neutral	True
137.928	0.3	Control	0.9286	0.001	Yes	2.776	-0.001	1.0	GoodResponse	0	0.255	n/a	3	13	ButtonPress	Neutral	True
137.939	0.43	Control	0.9286	n/a	Yes	2.776	n/a	n/a	GoodResponse	0	n/a	n/a	3	13	Blank	Neutral	True
138.373	1.45	Control	0.9286	n/a	Yes	2.776	n/a	5.0	GoodResponse	0	0.041	137.414	3	13	Feedback	Neutral	True
139.822	2.776	Control	0.9286	n/a	Yes	2.776	n/a	n/a	GoodResponse	0	0.0	n/a	3	13	ISIslide	Neutral	True
142.621	0.25	Win2	0.9333	0.0	Yes	2.679	0.021	n/a	GoodResponse	1	n/a	n/a	4	14	Cue	Win	True
142.871	4.1	Win2	0.9333	0.0	Yes	2.679	0.0	n/a	GoodResponse	1	n/a	n/a	4	14	Fixation	Win	True
146.97	0.26	Win2	0.9333	0.001	Yes	2.679	-0.001	1.0	GoodResponse	1	0.215	146.185	4	14	Target	Win	True
147.185	0.3	Win2	0.9333	0.001	Yes	2.679	-0.001	1.0	GoodResponse	1	0.215	n/a	4	14	ButtonPress	Win	True
147.236	0.44	Win2	0.9333	n/a	Yes	2.679	n/a	n/a	GoodResponse	1	n/a	n/a	4	14	Blank	Win	True
147.669	1.45	Win2	0.9333	n/a	Yes	2.679	n/a	5.0	GoodResponse	1	0.012	146.681	4	14	Feedback	Win	True
149.119	2.679	Win2	0.9333	n/a	Yes	2.679	n/a	n/a	GoodResponse	1	0.0	n/a	4	14	ISIslide	Win	True
151.818	0.25	Control	0.9375	0.0	Yes	2.982	0.018	n/a	GoodResponse	0	n/a	n/a	4	15	Cue	Neutral	True
152.068	4.0	Control	0.9375	0.0	Yes	2.982	0.0	n/a	GoodResponse	0	n/a	n/a	4	15	Fixation	Neutral	True
156.066	0.25	Control	0.9375	0.002	Yes	2.982	-0.002	1.0	GoodResponse	0	0.202	155.268	4	15	Target	Neutral	True
156.268	0.3	Control	0.9375	0.002	Yes	2.982	-0.002	1.0	GoodResponse	0	0.202	n/a	4	15	ButtonPress	Neutral	True
156.316	0.45	Control	0.9375	n/a	Yes	2.982	n/a	n/a	GoodResponse	0	n/a	n/a	4	15	Blank	Neutral	True
156.766	1.45	Control	0.9375	n/a	Yes	2.982	n/a	5.0	GoodResponse	0	0.037	155.803	4	15	Feedback	Neutral	True
158.216	2.982	Control	0.9375	n/a	Yes	2.982	n/a	n/a	GoodResponse	0	0.0	n/a	4	15	ISIslide	Neutral	True
161.215	0.25	Win2	0.9412	0.0	Yes	2.885	0.015	n/a	GoodResponse	1	n/a	n/a	5	16	Cue	Win	True
161.465	4.0	Win2	0.9412	0.0	Yes	2.885	0.0	n/a	GoodResponse	1	n/a	n/a	5	16	Fixation	Win	True
165.463	0.24	Win2	0.9412	0.002	Yes	2.885	-0.002	1.0	GoodResponse	1	0.208	164.671	5	16	Target	Win	True
165.671	0.3	Win2	0.9412	0.002	Yes	2.885	-0.002	1.0	GoodResponse	1	0.208	n/a	5	16	ButtonPress	Win	True
165.713	0.46	Win2	0.9412	n/a	Yes	2.885	n/a	n/a	GoodResponse	1	n/a	n/a	5	16	Blank	Win	True
166.163	1.45	Win2	0.9412	n/a	Yes	2.885	n/a	5.0	GoodResponse	1	0.008	165.171	5	16	Feedback	Win	True
167.612	2.885	Win2	0.9412	n/a	Yes	2.885	n/a	n/a	GoodResponse	1	0.0	n/a	5	16	ISIslide	Win	True
170.528	0.25	Lose2	0.8889	0.0	No	2.722	0.028	n/a	NoResponse	-1	n/a	n/a	4	17	Cue	Loss	True
170.778	3.95	Lose2	0.8889	0.0	No	2.722	0.0	n/a	NoResponse	-1	n/a	n/a	4	17	Fixation	Loss	True
174.727	0.23	Lose2	0.8889	0.001	No	2.722	-0.001	1.0	NoResponse	-1	0.253	173.98	4	17	Target	Loss	True
174.96	0.47	Lose2	0.8889	n/a	No	2.722	n/a	n/a	NoResponse	-1	n/a	n/a	4	17	Blank	Loss	True
174.98	0.3	Lose2	0.8889	0.001	No	2.722	-0.001	1.0	NoResponse	-1	0.253	n/a	4	17	ButtonPress	Loss	True
175.426	1.45	Lose2	0.8889	n/a	No	2.722	n/a	5.0	NoResponse	-1	0.012	174.438	4	17	Feedback	Loss	True
176.876	2.722	Lose2	0.8889	n/a	No	2.722	n/a	n/a	NoResponse	-1	0.0	n/a	4	17	ISIslide	Loss	True
179.625	0.25	Lose2	0.8421	0.0	No	2.725	0.025	n/a	NoResponse	-1	n/a	n/a	3	18	Cue	Loss	False
179.875	4.05	Lose2	0.8421	0.0	No	2.725	0.0	1.0	NoResponse	-1	3.616	182.491	3	18	Fixation	Loss	False
183.491	0.3	Lose2	0.8421	0.0	No	2.725	0.0	1.0	NoResponse	-1	3.616	n/a	3	18	ButtonPress	Loss	False
183.923	0.22	Lose2	0.8421	0.002	No	2.725	-0.002	1.0	NoResponse	-1	0.267	183.19	3	18	Target	Loss	False
184.157	0.48	Lose2	0.8421	n/a	No	2.725	n/a	n/a	NoResponse	-1	n/a	n/a	3	18	Blank	Loss	False
184.19	0.3	Lose2	0.8421	0.002	No	2.725	-0.002	1.0	NoResponse	-1	0.267	n/a	3	18	ButtonPress	Loss	False
184.623	1.45	Lose2	0.8421	n/a	No	2.725	n/a	5.0	NoResponse	-1	0.034	183.657	3	18	Feedback	Loss	False
186.073	2.725	Lose2	0.8421	n/a	No	2.725	n/a	n/a	NoResponse	-1	0.0	n/a	3	18	ISIslide	Loss	False
188.822	0.25	Control	0.8	0.0	No	2.928	0.022	n/a	NoResponse	0	n/a	n/a	3	19	Cue	Neutral	True
189.072	3.95	Control	0.8	0.0	No	2.928	0.0	n/a	NoResponse	0	n/a	n/a	3	19	Fixation	Neutral	True
193.02	0.21	Control	0.8	0.002	No	2.928	-0.002	1.0	NoResponse	0	0.236	192.256	3	19	Target	Neutral	True
193.237	0.49	Control	0.8	n/a	No	2.928	n/a	n/a	NoResponse	0	n/a	n/a	3	19	Blank	Neutral	True
193.256	0.3	Control	0.8	0.002	No	2.928	-0.002	1.0	NoResponse	0	0.236	n/a	3	19	ButtonPress	Neutral	True
193.72	1.45	Control	0.8	n/a	No	2.928	n/a	5.0	NoResponse	0	0.011	192.731	3	19	Feedback	Neutral	True
195.169	2.928	Control	0.8	n/a	No	2.928	n/a	n/a	NoResponse	0	0.0	n/a	3	19	ISIslide	Neutral	True
198.118	0.25	Control	0.7619	0.001	No	2.632	0.018	n/a	NoResponse	0	n/a	n/a	3	20	Cue	Neutral	True
198.368	4.05	Control	0.7619	0.0	No	2.632	0.0	1.0	NoResponse	0	3.65	201.018	3	20	Fixation	Neutral	True
202.018	0.3	Control	0.7619	0.0	No	2.632	0.0	1.0	NoResponse	0	3.65	n/a	3	20	ButtonPress	Neutral	True
202.417	0.2	Control	0.7619	0.001	No	2.632	-0.001	n/a	NoResponse	0	n/a	n/a	3	20	Target	Neutral	True
202.617	0.5	Control	0.7619	n/a	No	2.632	n/a	n/a	NoResponse	0	n/a	n/a	3	20	Blank	Neutral	True
203.117	1.45	Control	0.7619	n/a	No	2.632	n/a	5.0	NoResponse	0	0.027	202.144	3	20	Feedback	Neutral	True
204.566	2.632	Control	0.7619	n/a	No	2.632	n/a	n/a	NoResponse	0	0.0	n/a	3	20	ISIslide	Neutral	True
207.215	0.25	Control	0.7273000000000001	0.0	No	2.785	0.015	n/a	LatePress	0	n/a	n/a	3	21	Cue	Neutral	True
207.465	4.1	Control	0.7273000000000001	0.0	No	2.785	0.0	n/a	LatePress	0	n/a	n/a	3	21	Fixation	Neutral	True
211.564	0.19	Control	0.7273000000000001	0.001	No	2.785	-0.001	1.0	LatePress	0	0.198	210.762	3	21	Target	Neutral	True
211.762	0.3	Control	0.7273000000000001	0.001	No	2.785	-0.001	1.0	LatePress	0	0.198	n/a	3	21	ButtonPress	Neutral	True
211.764	0.51	Control	0.7273000000000001	n/a	No	2.785	n/a	n/a	LatePress	0	n/a	n/a	3	21	Blank	Neutral	True
212.264	1.45	Control	0.7273000000000001	n/a	No	2.785	n/a	5.0	LatePress	0	0.007	211.271	3	21	Feedback	Neutral	True
213.713	2.785	Control	0.7273000000000001	n/a	No	2.785	n/a	n/a	LatePress	0	0.0	n/a	3	21	ISIslide	Neutral	True
216.529	0.25	Control	0.6957	0.0	No	2.771	0.029	n/a	NoResponse	0	n/a	n/a	3	22	Cue	Neutral	True
216.779	4.0	Control	0.6957	0.0	No	2.771	0.0	n/a	NoResponse	0	n/a	n/a	3	22	Fixation	Neutral	True
220.777	0.18	Control	0.6957	0.002	No	2.771	-0.002	1.0	NoResponse	0	0.231	220.008	3	22	Target	Neutral	True
220.96	0.52	Control	0.6957	n/a	No	2.771	n/a	n/a	NoResponse	0	n/a	n/a	3	22	Blank	Neutral	True
221.008	0.3	Control	0.6957	0.002	No	2.771	-0.002	1.0	NoResponse	0	0.231	n/a	3	22	ButtonPress	Neutral	True
221.477	1.45	Control	0.6957	n/a	No	2.771	n/a	5.0	NoResponse	0	0.009	220.486	3	22	Feedback	Neutral	True
222.926	2.771	Control	0.6957	n/a	No	2.771	n/a	n/a	NoResponse	0	0.0	n/a	3	22	ISIslide	Neutral	True
225.725	0.25	Control	0.6667000000000001	0.001	No	2.775	0.025	n/a	NoResponse	0	n/a	n/a	3	23	Cue	Neutral	True
225.975	3.9	Control	0.6667000000000001	0.0	No	2.775	0.0	1.0	NoResponse	0	3.874	228.849	3	23	Fixation	Neutral	True
229.849	0.3	Control	0.6667000000000001	0.0	No	2.775	0.0	1.0	NoResponse	0	3.874	n/a	3	23	ButtonPress	Neutral	True
229.874	0.17	Control	0.6667000000000001	0.001	No	2.775	-0.001	n/a	NoResponse	0	n/a	n/a	3	23	Target	Neutral	True
230.041	0.53	Control	0.6667000000000001	n/a	No	2.775	n/a	n/a	NoResponse	0	n/a	n/a	3	23	Blank	Neutral	True
230.574	1.45	Control	0.6667000000000001	n/a	No	2.775	n/a	5.0	NoResponse	0	0.034	229.608	3	23	Feedback	Neutral	True
232.023	2.775	Control	0.6667000000000001	n/a	No	2.775	n/a	n/a	NoResponse	0	0.0	n/a	3	23	ISIslide	Neutral	True
234.822	0.25	Win2	0.68	0.0	Yes	3.128	0.022	n/a	GoodResponse	1	n/a	n/a	4	24	Cue	Win	True
235.072	3.95	Win2	0.68	0.0	Yes	3.128	0.0	n/a	GoodResponse	1	n/a	n/a	4	24	Fixation	Win	True
239.021	0.16	Win2	0.68	0.001	Yes	3.128	-0.001	1.0	GoodResponse	1	0.155	238.176	4	24	Target	Win	True
239.176	0.3	Win2	0.68	0.001	Yes	3.128	-0.001	1.0	GoodResponse	1	0.155	n/a	4	24	ButtonPress	Win	True
239.187	0.54	Win2	0.68	n/a	Yes	3.128	n/a	n/a	GoodResponse	1	n/a	n/a	4	24	Blank	Win	True
239.721	1.45	Win2	0.68	n/a	Yes	3.128	n/a	5.0	GoodResponse	1	0.009	238.73	4	24	Feedback	Win	True
241.17	3.128	Win2	0.68	n/a	Yes	3.128	n/a	n/a	GoodResponse	1	0.0	n/a	4	24	ISIslide	Win	True
244.319	0.25	Win2	0.6537999999999999	0.0	No	3.081	0.019	n/a	NoResponse	0	n/a	n/a	4	25	Cue	MissedWin	True
244.569	4.0	Win2	0.6537999999999999	0.0	No	3.081	0.0	n/a	NoResponse	0	n/a	n/a	4	25	Fixation	MissedWin	True
248.567	0.15	Win2	0.6537999999999999	0.002	No	3.081	-0.002	1.0	NoResponse	0	0.212	247.779	4	25	Target	MissedWin	True
248.717	0.55	Win2	0.6537999999999999	n/a	No	3.081	n/a	n/a	NoResponse	0	n/a	n/a	4	25	Blank	MissedWin	True
248.779	0.3	Win2	0.6537999999999999	0.002	No	3.081	-0.002	1.0	NoResponse	0	0.212	n/a	4	25	ButtonPress	MissedWin	True
249.267	1.45	Win2	0.6537999999999999	n/a	No	3.081	n/a	5.0	NoResponse	0	0.023	248.29	4	25	Feedback	MissedWin	True
250.717	3.081	Win2	0.6537999999999999	n/a	No	3.081	n/a	n/a	NoResponse	0	0.0	n/a	4	25	ISIslide	MissedWin	True
253.816	0.25	Win2	0.6296	0.0	No	2.934	0.016	n/a	NoResponse	0	n/a	n/a	4	26	Cue	MissedWin	True
254.066	3.95	Win2	0.6296	0.0	No	2.934	0.0	n/a	NoResponse	0	n/a	n/a	4	26	Fixation	MissedWin	True
258.014	0.16	Win2	0.6296	0.002	No	2.934	-0.002	1.0	NoResponse	0	0.203	257.217	4	26	Target	MissedWin	True
258.181	0.54	Win2	0.6296	n/a	No	2.934	n/a	n/a	NoResponse	0	n/a	n/a	4	26	Blank	MissedWin	True
258.217	0.3	Win2	0.6296	0.002	No	2.934	-0.002	1.0	NoResponse	0	0.203	n/a	4	26	ButtonPress	MissedWin	True
258.714	1.45	Win2	0.6296	n/a	No	2.934	n/a	5.0	NoResponse	0	0.04	257.754	4	26	Feedback	MissedWin	True
260.163	2.934	Win2	0.6296	n/a	No	2.934	n/a	n/a	NoResponse	0	0.0	n/a	4	26	ISIslide	MissedWin	True
263.129	0.25	Lose2	0.6071	0.0	No	2.821	0.029	n/a	NoResponse	-1	n/a	n/a	3	27	Cue	Loss	True
263.379	4.05	Lose2	0.6071	0.0	No	2.821	0.0	n/a	NoResponse	-1	n/a	n/a	3	27	Fixation	Loss	True
267.428	0.17	Lose2	0.6071	0.001	No	2.821	-0.001	1.0	NoResponse	-1	0.358	266.786	3	27	Target	Loss	True
267.611	0.53	Lose2	0.6071	n/a	No	2.821	n/a	n/a	NoResponse	-1	n/a	n/a	3	27	Blank	Loss	True
267.786	0.3	Lose2	0.6071	0.001	No	2.821	-0.001	1.0	NoResponse	-1	0.358	n/a	3	27	ButtonPress	Loss	True
268.127	1.45	Lose2	0.6071	n/a	No	2.821	n/a	5.0	NoResponse	-1	0.042	267.169	3	27	Feedback	Loss	True
269.577	2.821	Lose2	0.6071	n/a	No	2.821	n/a	n/a	NoResponse	-1	0.0	n/a	3	27	ISIslide	Loss	True
272.426	0.25	Control	0.5861999999999999	0.0	No	2.824	0.026	n/a	NoResponse	0	n/a	n/a	3	28	Cue	Neutral	True
272.676	4.05	Control	0.5861999999999999	0.0	No	2.824	0.0	n/a	NoResponse	0	n/a	n/a	3	28	Fixation	Neutral	True
276.724	0.18	Control	0.5861999999999999	0.002	No	2.824	-0.002	1.0	NoResponse	0	0.2	275.924	3	28	Target	Neutral	True
276.908	0.52	Control	0.5861999999999999	n/a	No	2.824	n/a	n/a	NoResponse	0	n/a	n/a	3	28	Blank	Neutral	True
276.924	0.3	Control	0.5861999999999999	0.002	No	2.824	-0.002	1.0	NoResponse	0	0.2	n/a	3	28	ButtonPress	Neutral	True
277.424	1.45	Control	0.5861999999999999	n/a	No	2.824	n/a	5.0	NoResponse	0	0.013	276.437	3	28	Feedback	Neutral	True
278.874	2.824	Control	0.5861999999999999	n/a	No	2.824	n/a	n/a	NoResponse	0	0.0	n/a	3	28	ISIslide	Neutral	True
281.723	0.25	Lose2	0.5667	0.0	No	2.827	0.023	n/a	PrematurePress	-1	n/a	n/a	2	29	Cue	Loss	False
281.973	3.95	Lose2	0.5667	0.0	No	2.827	0.0	1.0	PrematurePress	-1	3.656	284.629	2	29	Fixation	Loss	False
285.629	0.3	Lose2	0.5667	0.0	No	2.827	0.0	1.0	PrematurePress	-1	3.656	n/a	2	29	ButtonPress	Loss	False
285.921	0.19	Lose2	0.5667	0.002	No	2.827	-0.002	1.0	PrematurePress	-1	0.031	284.952	2	29	Target	Loss	False
285.952	0.3	Lose2	0.5667	0.002	No	2.827	-0.002	1.0	PrematurePress	-1	0.031	n/a	2	29	ButtonPress	Loss	False
286.121	0.51	Lose2	0.5667	n/a	No	2.827	n/a	n/a	PrematurePress	-1	n/a	n/a	2	29	Blank	Loss	False
286.621	1.45	Lose2	0.5667	n/a	No	2.827	n/a	5.0	PrematurePress	-1	0.036	285.657	2	29	Feedback	Loss	False
288.07	2.827	Lose2	0.5667	n/a	No	2.827	n/a	n/a	PrematurePress	-1	0.0	n/a	2	29	ISIslide	Loss	False
290.919	0.25	Win2	0.5806	0.0	Yes	2.781	0.019	n/a	GoodResponse	1	n/a	n/a	3	30	Cue	Win	True
291.169	3.9	Win2	0.5806	0.0	Yes	2.781	0.0	n/a	GoodResponse	1	n/a	n/a	3	30	Fixation	Win	True
295.068	0.2	Win2	0.5806	0.001	Yes	2.781	-0.001	1.0	GoodResponse	1	0.197	294.265	3	30	Target	Win	True
295.265	0.3	Win2	0.5806	0.001	Yes	2.781	-0.001	1.0	GoodResponse	1	0.197	n/a	3	30	ButtonPress	Win	True
295.268	0.5	Win2	0.5806	n/a	Yes	2.781	n/a	n/a	GoodResponse	1	n/a	n/a	3	30	Blank	Win	True
295.768	1.45	Win2	0.5806	n/a	Yes	2.781	n/a	5.0	GoodResponse	1	0.011	294.779	3	30	Feedback	Win	True
297.217	2.781	Win2	0.5806	n/a	Yes	2.781	n/a	n/a	GoodResponse	1	0.0	n/a	3	30	ISIslide	Win	True
300.016	0.25	Lose2	0.5938	0.0	Yes	2.834	0.016	n/a	GoodResponse	0	n/a	n/a	3	31	Cue	AvoidedLoss	True
300.266	4.05	Lose2	0.5938	0.0	Yes	2.834	0.0	n/a	GoodResponse	0	n/a	n/a	3	31	Fixation	AvoidedLoss	True
304.315	0.21	Lose2	0.5938	0.001	Yes	2.834	-0.001	1.0	GoodResponse	0	0.174	303.489	3	31	Target	AvoidedLoss	True
304.489	0.3	Lose2	0.5938	0.001	Yes	2.834	-0.001	1.0	GoodResponse	0	0.174	n/a	3	31	ButtonPress	AvoidedLoss	True
304.531	0.49	Lose2	0.5938	n/a	Yes	2.834	n/a	n/a	GoodResponse	0	n/a	n/a	3	31	Blank	AvoidedLoss	True
305.014	1.45	Lose2	0.5938	n/a	Yes	2.834	n/a	5.0	GoodResponse	0	0.032	304.046	3	31	Feedback	AvoidedLoss	True
306.464	2.834	Lose2	0.5938	n/a	Yes	2.834	n/a	n/a	GoodResponse	0	0.0	n/a	3	31	ISIslide	AvoidedLoss	True
309.33	0.25	Lose2	0.5758	0.0	No	2.62	0.03	n/a	PrematurePress	-1	n/a	n/a	2	32	Cue	Loss	False
309.58	4.15	Lose2	0.5758	0.0	No	2.62	0.0	1.0	PrematurePress	-1	3.736	312.316	2	32	Fixation	Loss	False
313.316	0.3	Lose2	0.5758	0.0	No	2.62	0.0	1.0	PrematurePress	-1	3.736	n/a	2	32	ButtonPress	Loss	False
313.728	0.22	Lose2	0.5758	0.002	No	2.62	-0.002	1.0	PrematurePress	-1	0.022	312.75	2	32	Target	Loss	False
313.75	0.3	Lose2	0.5758	0.002	No	2.62	-0.002	1.0	PrematurePress	-1	0.022	n/a	2	32	ButtonPress	Loss	False
313.961	0.48	Lose2	0.5758	n/a	No	2.62	n/a	n/a	PrematurePress	-1	n/a	n/a	2	32	Blank	Loss	False
314.428	1.45	Lose2	0.5758	n/a	No	2.62	n/a	5.0	PrematurePress	-1	0.033	313.461	2	32	Feedback	Loss	False
315.877	2.62	Lose2	0.5758	n/a	No	2.62	n/a	n/a	PrematurePress	-1	0.0	n/a	2	32	ISIslide	Loss	False
318.526	0.25	Win2	0.5588000000000001	0.001	No	2.674	0.026	n/a	NoResponse	0	n/a	n/a	2	33	Cue	MissedWin	True
318.776	4.0	Win2	0.5588000000000001	0.0	No	2.674	0.0	1.0	NoResponse	0	3.495	321.271	2	33	Fixation	MissedWin	True
322.271	0.3	Win2	0.5588000000000001	0.0	No	2.674	0.0	1.0	NoResponse	0	3.495	n/a	2	33	ButtonPress	MissedWin	True
322.775	0.23	Win2	0.5588000000000001	0.001	No	2.674	-0.001	n/a	NoResponse	0	n/a	n/a	2	33	Target	MissedWin	True
323.008	0.47	Win2	0.5588000000000001	n/a	No	2.674	n/a	n/a	NoResponse	0	n/a	n/a	2	33	Blank	MissedWin	True
323.475	1.45	Win2	0.5588000000000001	n/a	No	2.674	n/a	5.0	NoResponse	0	0.01	322.485	2	33	Feedback	MissedWin	True
324.924	2.674	Win2	0.5588000000000001	n/a	No	2.674	n/a	n/a	NoResponse	0	0.0	n/a	2	33	ISIslide	MissedWin	True
327.623	0.25	Lose2	0.5714	0.0	Yes	2.627	0.023	n/a	GoodResponse	0	n/a	n/a	2	34	Cue	AvoidedLoss	True
327.873	4.05	Lose2	0.5714	0.0	Yes	2.627	0.0	n/a	GoodResponse	0	n/a	n/a	2	34	Fixation	AvoidedLoss	True
331.922	0.24	Lose2	0.5714	0.001	Yes	2.627	-0.001	1.0	GoodResponse	0	0.214	331.136	2	34	Target	AvoidedLoss	True
332.136	0.3	Lose2	0.5714	0.001	Yes	2.627	-0.001	1.0	GoodResponse	0	0.214	n/a	2	34	ButtonPress	AvoidedLoss	True
332.172	0.46	Lose2	0.5714	n/a	Yes	2.627	n/a	n/a	GoodResponse	0	n/a	n/a	2	34	Blank	AvoidedLoss	True
332.622	1.45	Lose2	0.5714	n/a	Yes	2.627	n/a	5.0	GoodResponse	0	0.034	331.656	2	34	Feedback	AvoidedLoss	True
334.071	2.627	Lose2	0.5714	n/a	Yes	2.627	n/a	n/a	GoodResponse	0	0.0	n/a	2	34	ISIslide	AvoidedLoss	True
336.72	0.25	Lose2	0.5832999999999999	0.0	Yes	2.68	0.02	n/a	GoodResponse	0	n/a	n/a	2	35	Cue	AvoidedLoss	True
336.97	4.0	Lose2	0.5832999999999999	0.0	Yes	2.68	0.0	n/a	GoodResponse	0	n/a	n/a	2	35	Fixation	AvoidedLoss	True
340.969	0.25	Lose2	0.5832999999999999	0.001	Yes	2.68	-0.001	1.0	GoodResponse	0	0.227	340.196	2	35	Target	AvoidedLoss	True
341.196	0.3	Lose2	0.5832999999999999	0.001	Yes	2.68	-0.001	1.0	GoodResponse	0	0.227	n/a	2	35	ButtonPress	AvoidedLoss	True
341.219	0.45	Lose2	0.5832999999999999	n/a	Yes	2.68	n/a	n/a	GoodResponse	0	n/a	n/a	2	35	Blank	AvoidedLoss	True
341.668	1.45	Lose2	0.5832999999999999	n/a	Yes	2.68	n/a	5.0	GoodResponse	0	0.013	340.681	2	35	Feedback	AvoidedLoss	True
343.118	2.68	Lose2	0.5832999999999999	n/a	Yes	2.68	n/a	n/a	GoodResponse	0	0.0	n/a	2	35	ISIslide	AvoidedLoss	True
345.817	0.25	Control	0.5676	0.0	No	2.683	0.017	n/a	NoResponse	0	n/a	n/a	2	36	Cue	Neutral	True
346.067	4.0	Control	0.5676	0.0	No	2.683	0.0	n/a	NoResponse	0	n/a	n/a	2	36	Fixation	Neutral	True
350.065	0.26	Control	0.5676	0.002	No	2.683	-0.002	1.0	NoResponse	0	0.303	349.368	2	36	Target	Neutral	True
350.332	0.44	Control	0.5676	n/a	No	2.683	n/a	n/a	NoResponse	0	n/a	n/a	2	36	Blank	Neutral	True
350.368	0.3	Control	0.5676	0.002	No	2.683	-0.002	1.0	NoResponse	0	0.303	n/a	2	36	ButtonPress	Neutral	True
350.765	1.45	Control	0.5676	n/a	No	2.683	n/a	5.0	NoResponse	0	0.037	349.802	2	36	Feedback	Neutral	True
352.215	2.683	Control	0.5676	n/a	No	2.683	n/a	n/a	NoResponse	0	0.0	n/a	2	36	ISIslide	Neutral	True
354.93	0.25	Win2	0.5789	0.0	Yes	2.87	0.03	n/a	GoodResponse	1	n/a	n/a	3	37	Cue	Win	False
355.18	4.0	Win2	0.5789	0.0	Yes	2.87	0.0	1.0	GoodResponse	1	3.772	357.952	3	37	Fixation	Win	False
358.952	0.3	Win2	0.5789	0.0	Yes	2.87	0.0	1.0	GoodResponse	1	3.772	n/a	3	37	ButtonPress	Win	False
359.179	0.27	Win2	0.5789	0.001	Yes	2.87	-0.001	1.0	GoodResponse	1	0.192	358.371	3	37	Target	Win	False
359.371	0.3	Win2	0.5789	0.001	Yes	2.87	-0.001	1.0	GoodResponse	1	0.192	n/a	3	37	ButtonPress	Win	False
359.445	0.43	Win2	0.5789	n/a	Yes	2.87	n/a	n/a	GoodResponse	1	n/a	n/a	3	37	Blank	Win	False
359.879	1.45	Win2	0.5789	n/a	Yes	2.87	n/a	5.0	GoodResponse	1	0.045	358.924	3	37	Feedback	Win	False
361.328	2.87	Win2	0.5789	n/a	Yes	2.87	n/a	n/a	GoodResponse	1	0.0	n/a	3	37	ISIslide	Win	False
364.227	0.25	Lose2	0.5897	0.0	Yes	2.823	0.027	n/a	GoodResponse	0	n/a	n/a	3	38	Cue	AvoidedLoss	True
364.477	3.95	Lose2	0.5897	0.0	Yes	2.823	0.0	n/a	GoodResponse	0	n/a	n/a	3	38	Fixation	AvoidedLoss	True
368.426	0.28	Lose2	0.5897	0.001	Yes	2.823	-0.001	1.0	GoodResponse	0	0.193	367.619	3	38	Target	AvoidedLoss	True
368.619	0.3	Lose2	0.5897	0.001	Yes	2.823	-0.001	1.0	GoodResponse	0	0.193	n/a	3	38	ButtonPress	AvoidedLoss	True
368.709	0.42	Lose2	0.5897	n/a	Yes	2.823	n/a	n/a	GoodResponse	0	n/a	n/a	3	38	Blank	AvoidedLoss	True
369.125	1.45	Lose2	0.5897	n/a	Yes	2.823	n/a	5.0	GoodResponse	0	0.018	368.143	3	38	Feedback	AvoidedLoss	True
370.575	2.823	Lose2	0.5897	n/a	Yes	2.823	n/a	n/a	GoodResponse	0	0.0	n/a	3	38	ISIslide	AvoidedLoss	True
373.424	0.25	Win2	0.575	0.0	No	2.976	0.024	n/a	NoResponse	0	n/a	n/a	3	39	Cue	MissedWin	True
373.674	4.1	Win2	0.575	0.0	No	2.976	0.0	1.0	NoResponse	0	3.741	376.415	3	39	Fixation	MissedWin	True
377.415	0.3	Win2	0.575	0.0	No	2.976	0.0	1.0	NoResponse	0	3.741	n/a	3	39	ButtonPress	MissedWin	True
377.772	0.29	Win2	0.575	0.002	No	2.976	-0.002	n/a	NoResponse	0	n/a	n/a	3	39	Target	MissedWin	True
378.072	0.41	Win2	0.575	n/a	No	2.976	n/a	n/a	NoResponse	0	n/a	n/a	3	39	Blank	MissedWin	True
378.472	1.45	Win2	0.575	n/a	No	2.976	n/a	5.0	NoResponse	0	0.037	377.509	3	39	Feedback	MissedWin	True
379.922	2.976	Win2	0.575	n/a	No	2.976	n/a	n/a	NoResponse	0	0.0	n/a	3	39	ISIslide	MissedWin	True
382.921	0.25	Win2	0.5854	0.0	Yes	2.729	0.021	n/a	GoodResponse	1	n/a	n/a	4	40	Cue	Win	True
383.171	3.95	Win2	0.5854	0.0	Yes	2.729	0.0	n/a	GoodResponse	1	n/a	n/a	4	40	Fixation	Win	True
387.119	0.3	Win2	0.5854	0.002	Yes	2.729	-0.002	1.0	GoodResponse	1	0.241	386.36	4	40	Target	Win	True
387.36	0.3	Win2	0.5854	0.002	Yes	2.729	-0.002	1.0	GoodResponse	1	0.241	n/a	4	40	ButtonPress	Win	True
387.419	0.4	Win2	0.5854	n/a	Yes	2.729	n/a	n/a	GoodResponse	1	n/a	n/a	4	40	Blank	Win	True
387.819	1.45	Win2	0.5854	n/a	Yes	2.729	n/a	5.0	GoodResponse	1	0.008	386.827	4	40	Feedback	Win	True
389.268	2.729	Win2	0.5854	n/a	Yes	2.729	n/a	n/a	GoodResponse	1	0.0	n/a	4	40	ISIslide	Win	True
392.017	0.25	Win2	0.5952000000000001	0.001	Yes	2.783	0.017	n/a	GoodResponse	1	n/a	n/a	5	41	Cue	Win	True
392.267	3.9	Win2	0.5952000000000001	0.0	Yes	2.783	0.0	n/a	GoodResponse	1	n/a	n/a	5	41	Fixation	Win	True
396.166	0.31	Win2	0.5952000000000001	0.001	Yes	2.783	-0.001	1.0	GoodResponse	1	0.237	395.403	5	41	Target	Win	True
396.403	0.3	Win2	0.5952000000000001	0.001	Yes	2.783	-0.001	1.0	GoodResponse	1	0.237	n/a	5	41	ButtonPress	Win	True
396.483	0.39	Win2	0.5952000000000001	n/a	Yes	2.783	n/a	n/a	GoodResponse	1	n/a	n/a	5	41	Blank	Win	True
396.866	1.45	Win2	0.5952000000000001	n/a	Yes	2.783	n/a	5.0	GoodResponse	1	0.033	395.899	5	41	Feedback	Win	True
398.315	2.783	Win2	0.5952000000000001	n/a	Yes	2.783	n/a	n/a	GoodResponse	1	0.0	n/a	5	41	ISIslide	Win	True
401.114	0.25	Control	0.5814	0.0	No	2.936	0.014	n/a	NoResponse	0	n/a	n/a	5	42	Cue	Neutral	False
401.364	3.85	Control	0.5814	0.0	No	2.936	0.0	n/a	NoResponse	0	n/a	n/a	5	42	Fixation	Neutral	False
405.213	0.32	Control	0.5814	0.001	No	2.936	-0.001	n/a	NoResponse	0	n/a	n/a	5	42	Target	Neutral	False
405.529	0.38	Control	0.5814	n/a	No	2.936	n/a	n/a	NoResponse	0	n/a	n/a	5	42	Blank	Neutral	False
405.913	1.45	Control	0.5814	n/a	No	2.936	n/a	5.0	NoResponse	0	0.01	404.923	5	42	Feedback	Neutral	False
407.362	2.936	Control	0.5814	n/a	No	2.936	n/a	n/a	NoResponse	0	0.0	n/a	5	42	ISIslide	Neutral	False
410.328	0.25	Win2	0.5909	0.0	Yes	3.172	0.028	n/a	GoodResponse	1	n/a	n/a	6	43	Cue	Win	True
410.578	4.0	Win2	0.5909	0.0	Yes	3.172	0.0	n/a	GoodResponse	1	n/a	n/a	6	43	Fixation	Win	True
414.576	0.33	Win2	0.5909	0.002	Yes	3.172	-0.002	1.0	GoodResponse	1	0.211	413.787	6	43	Target	Win	True
414.787	0.3	Win2	0.5909	0.002	Yes	3.172	-0.002	1.0	GoodResponse	1	0.211	n/a	6	43	ButtonPress	Win	True
414.909	0.37	Win2	0.5909	n/a	Yes	3.172	n/a	n/a	GoodResponse	1	n/a	n/a	6	43	Blank	Win	True
415.276	1.45	Win2	0.5909	n/a	Yes	3.172	n/a	5.0	GoodResponse	1	0.013	414.289	6	43	Feedback	Win	True
416.725	3.172	Win2	0.5909	n/a	Yes	3.172	n/a	n/a	GoodResponse	1	0.0	n/a	6	43	ISIslide	Win	True
419.924	0.25	Win2	0.6	0.001	Yes	2.976	0.024	n/a	GoodResponse	1	n/a	n/a	7	44	Cue	Win	True
420.174	4.0	Win2	0.6	0.0	Yes	2.976	0.0	n/a	GoodResponse	1	n/a	n/a	7	44	Fixation	Win	True
424.173	0.34	Win2	0.6	0.001	Yes	2.976	-0.001	1.0	GoodResponse	1	0.212	423.385	7	44	Target	Win	True
424.385	0.3	Win2	0.6	0.001	Yes	2.976	-0.001	1.0	GoodResponse	1	0.212	n/a	7	44	ButtonPress	Win	True
424.523	0.36	Win2	0.6	n/a	Yes	2.976	n/a	n/a	GoodResponse	1	n/a	n/a	7	44	Blank	Win	True
424.873	1.45	Win2	0.6	n/a	Yes	2.976	n/a	5.0	GoodResponse	1	0.026	423.899	7	44	Feedback	Win	True
426.322	2.976	Win2	0.6	n/a	Yes	2.976	n/a	n/a	GoodResponse	1	0.0	n/a	7	44	ISIslide	Win	True
429.321	0.25	Control	0.6087	0.0	Yes	2.879	0.021	n/a	GoodResponse	0	n/a	n/a	7	45	Cue	Neutral	False
429.571	4.1	Control	0.6087	0.0	Yes	2.879	0.0	1.0	GoodResponse	0	3.822	432.393	7	45	Fixation	Neutral	False
433.393	0.3	Control	0.6087	0.0	Yes	2.879	0.0	1.0	GoodResponse	0	3.822	n/a	7	45	ButtonPress	Neutral	False
433.67	0.35	Control	0.6087	0.001	Yes	2.879	-0.001	1.0	GoodResponse	0	0.185	432.855	7	45	Target	Neutral	False
433.855	0.3	Control	0.6087	0.001	Yes	2.879	-0.001	1.0	GoodResponse	0	0.185	n/a	7	45	ButtonPress	Neutral	False
434.019	0.35	Control	0.6087	n/a	Yes	2.879	n/a	n/a	GoodResponse	0	n/a	n/a	7	45	Blank	Neutral	False
434.369	1.45	Control	0.6087	n/a	Yes	2.879	n/a	5.0	GoodResponse	0	0.043	433.412	7	45	Feedback	Neutral	False
435.819	2.879	Control	0.6087	n/a	Yes	2.879	n/a	n/a	GoodResponse	0	0.0	n/a	7	45	ISIslide	Neutral	False
438.718	0.25	Lose2	0.617	0.0	Yes	3.382	0.018	n/a	GoodResponse	0	n/a	n/a	7	46	Cue	AvoidedLoss	True
438.968	4.0	Lose2	0.617	0.0	Yes	3.382	0.0	n/a	GoodResponse	0	n/a	n/a	7	46	Fixation	AvoidedLoss	True
442.966	0.36	Lose2	0.617	0.002	Yes	3.382	-0.002	1.0	GoodResponse	0	0.205	442.171	7	46	Target	AvoidedLoss	True
443.171	0.3	Lose2	0.617	0.002	Yes	3.382	-0.002	1.0	GoodResponse	0	0.205	n/a	7	46	ButtonPress	AvoidedLoss	True
443.333	0.34	Lose2	0.617	n/a	Yes	3.382	n/a	n/a	GoodResponse	0	n/a	n/a	7	46	Blank	AvoidedLoss	True
443.666	1.45	Lose2	0.617	n/a	Yes	3.382	n/a	5.0	GoodResponse	0	0.014	442.68	7	46	Feedback	AvoidedLoss	True
445.116	3.382	Lose2	0.617	n/a	Yes	3.382	n/a	n/a	GoodResponse	0	0.0	n/a	7	46	ISIslide	AvoidedLoss	True
448.514	0.25	Lose2	0.625	0.001	Yes	2.686	0.014	n/a	GoodResponse	0	n/a	n/a	7	47	Cue	AvoidedLoss	True
448.764	4.0	Lose2	0.625	0.0	Yes	2.686	0.0	n/a	GoodResponse	0	n/a	n/a	7	47	Fixation	AvoidedLoss	True
452.763	0.37	Lose2	0.625	0.001	Yes	2.686	-0.001	1.0	GoodResponse	0	0.206	451.969	7	47	Target	AvoidedLoss	True
452.969	0.3	Lose2	0.625	0.001	Yes	2.686	-0.001	1.0	GoodResponse	0	0.206	n/a	7	47	ButtonPress	AvoidedLoss	True
453.129	0.33	Lose2	0.625	n/a	Yes	2.686	n/a	n/a	GoodResponse	0	n/a	n/a	7	47	Blank	AvoidedLoss	True
453.463	1.45	Lose2	0.625	n/a	Yes	2.686	n/a	5.0	GoodResponse	0	0.021	452.484	7	47	Feedback	AvoidedLoss	True
454.912	2.686	Lose2	0.625	n/a	Yes	2.686	n/a	n/a	GoodResponse	0	0.0	n/a	7	47	ISIslide	AvoidedLoss	True
457.628	0.25	Lose2	0.6327	0.0	Yes	3.022	0.028	n/a	GoodResponse	0	n/a	n/a	7	48	Cue	AvoidedLoss	True
457.878	3.95	Lose2	0.6327	0.0	Yes	3.022	0.0	n/a	GoodResponse	0	n/a	n/a	7	48	Fixation	AvoidedLoss	True
461.826	0.38	Lose2	0.6327	0.002	Yes	3.022	-0.002	1.0	GoodResponse	0	0.237	461.063	7	48	Target	AvoidedLoss	True
462.063	0.3	Lose2	0.6327	0.002	Yes	3.022	-0.002	1.0	GoodResponse	0	0.237	n/a	7	48	ButtonPress	AvoidedLoss	True
462.21	0.32	Lose2	0.6327	n/a	Yes	3.022	n/a	n/a	GoodResponse	0	n/a	n/a	7	48	Blank	AvoidedLoss	True
462.526	1.45	Lose2	0.6327	n/a	Yes	3.022	n/a	5.0	GoodResponse	0	0.031	461.557	7	48	Feedback	AvoidedLoss	True
463.976	3.022	Lose2	0.6327	n/a	Yes	3.022	n/a	n/a	GoodResponse	0	0.0	n/a	7	48	ISIslide	AvoidedLoss	True
467.025	0.25	Control	0.64	0.0	Yes	2.875	0.025	n/a	GoodResponse	0	n/a	n/a	7	49	Cue	Neutral	True
467.275	4.0	Control	0.64	0.0	Yes	2.875	0.0	n/a	GoodResponse	0	n/a	n/a	7	49	Fixation	Neutral	True
471.273	0.39	Control	0.64	0.002	Yes	2.875	-0.002	1.0	GoodResponse	0	0.236	470.509	7	49	Target	Neutral	True
471.509	0.3	Control	0.64	0.002	Yes	2.875	-0.002	1.0	GoodResponse	0	0.236	n/a	7	49	ButtonPress	Neutral	True
471.673	0.31	Control	0.64	n/a	Yes	2.875	n/a	n/a	GoodResponse	0	n/a	n/a	7	49	Blank	Neutral	True
471.973	1.45	Control	0.64	n/a	Yes	2.875	n/a	5.0	GoodResponse	0	0.048	471.021	7	49	Feedback	Neutral	True
473.422	2.875	Control	0.64	n/a	Yes	2.875	n/a	n/a	GoodResponse	0	0.0	n/a	7	49	ISIslide	Neutral	True
476.321	0.25	Control	0.6470999999999999	0.0	Yes	2.779	0.021	n/a	GoodResponse	0	n/a	n/a	7	50	Cue	Neutral	True
476.571	4.0	Control	0.6470999999999999	0.0	Yes	2.779	0.0	n/a	GoodResponse	0	n/a	n/a	7	50	Fixation	Neutral	True
480.57	0.4	Control	0.6470999999999999	0.001	Yes	2.779	-0.001	1.0	GoodResponse	0	0.216	479.786	7	50	Target	Neutral	True
480.786	0.3	Control	0.6470999999999999	0.001	Yes	2.779	-0.001	1.0	GoodResponse	0	0.216	n/a	7	50	ButtonPress	Neutral	True
480.97	0.3	Control	0.6470999999999999	n/a	Yes	2.779	n/a	n/a	GoodResponse	0	n/a	n/a	7	50	Blank	Neutral	True
481.27	1.45	Control	0.6470999999999999	n/a	Yes	2.779	n/a	5.0	GoodResponse	0	0.019	480.289	7	50	Feedback	Neutral	True
482.719	2.779	Control	0.6470999999999999	n/a	Yes	2.779	n/a	n/a	GoodResponse	0	0.0	n/a	7	50	ISIslide	Neutral	True
485.518	0.25	Control	0.6537999999999999	0.0	Yes	2.732	0.018	n/a	GoodResponse	0	n/a	n/a	7	51	Cue	Neutral	True
485.768	3.95	Control	0.6537999999999999	0.0	Yes	2.732	0.0	n/a	GoodResponse	0	n/a	n/a	7	51	Fixation	Neutral	True
489.717	0.41	Control	0.6537999999999999	0.001	Yes	2.732	-0.001	1.0	GoodResponse	0	0.214	488.931	7	51	Target	Neutral	True
489.931	0.3	Control	0.6537999999999999	0.001	Yes	2.732	-0.001	1.0	GoodResponse	0	0.214	n/a	7	51	ButtonPress	Neutral	True
490.133	0.29	Control	0.6537999999999999	n/a	Yes	2.732	n/a	n/a	GoodResponse	0	n/a	n/a	7	51	Blank	Neutral	True
490.416	1.45	Control	0.6537999999999999	n/a	Yes	2.732	n/a	5.0	GoodResponse	0	0.044	489.46	7	51	Feedback	Neutral	True
491.866	2.732	Control	0.6537999999999999	n/a	Yes	2.732	n/a	n/a	GoodResponse	0	0.0	n/a	7	51	ISIslide	Neutral	True
494.615	0.25	Control	0.6604000000000001	0.0	Yes	2.635	0.015	n/a	GoodResponse	0	n/a	n/a	7	52	Cue	Neutral	False
494.865	4.05	Control	0.6604000000000001	0.0	Yes	2.635	0.0	1.0	GoodResponse	0	3.775	497.64	7	52	Fixation	Neutral	False
498.64	0.3	Control	0.6604000000000001	0.0	Yes	2.635	0.0	1.0	GoodResponse	0	3.775	n/a	7	52	ButtonPress	Neutral	False
498.914	0.42	Control	0.6604000000000001	0.001	Yes	2.635	-0.001	1.0	GoodResponse	0	0.192	498.106	7	52	Target	Neutral	False
499.106	0.3	Control	0.6604000000000001	0.001	Yes	2.635	-0.001	1.0	GoodResponse	0	0.192	n/a	7	52	ButtonPress	Neutral	False
499.347	0.28	Control	0.6604000000000001	n/a	Yes	2.635	n/a	n/a	GoodResponse	0	n/a	n/a	7	52	Blank	Neutral	False
499.613	1.45	Control	0.6604000000000001	n/a	Yes	2.635	n/a	5.0	GoodResponse	0	0.017	498.63	7	52	Feedback	Neutral	False
501.063	2.635	Control	0.6604000000000001	n/a	Yes	2.635	n/a	n/a	GoodResponse	0	0.0	n/a	7	52	ISIslide	Neutral	False
503.728	0.25	Win2	0.6667000000000001	0.001	Yes	2.922	0.028	n/a	GoodResponse	1	n/a	n/a	8	53	Cue	Win	True
503.978	4.05	Win2	0.6667000000000001	0.0	Yes	2.922	0.0	n/a	GoodResponse	1	n/a	n/a	8	53	Fixation	Win	True
508.027	0.42	Win2	0.6667000000000001	0.001	Yes	2.922	-0.001	1.0	GoodResponse	1	0.195	507.222	8	53	Target	Win	True
508.222	0.3	Win2	0.6667000000000001	0.001	Yes	2.922	-0.001	1.0	GoodResponse	1	0.195	n/a	8	53	ButtonPress	Win	True
508.444	0.28	Win2	0.6667000000000001	n/a	Yes	2.922	n/a	n/a	GoodResponse	1	n/a	n/a	8	53	Blank	Win	True
508.727	1.45	Win2	0.6667000000000001	n/a	Yes	2.922	n/a	5.0	GoodResponse	1	0.025	507.752	8	53	Feedback	Win	True
510.176	2.922	Win2	0.6667000000000001	n/a	Yes	2.922	n/a	n/a	GoodResponse	1	0.0	n/a	8	53	ISIslide	Win	True
513.125	0.25	Win2	0.6727	0.0	Yes	2.725	0.025	n/a	GoodResponse	1	n/a	n/a	9	54	Cue	Win	True
513.375	3.95	Win2	0.6727	0.0	Yes	2.725	0.0	n/a	GoodResponse	1	n/a	n/a	9	54	Fixation	Win	True
517.324	0.41	Win2	0.6727	0.001	Yes	2.725	-0.001	1.0	GoodResponse	1	0.183	516.507	9	54	Target	Win	True
517.507	0.3	Win2	0.6727	0.001	Yes	2.725	-0.001	1.0	GoodResponse	1	0.183	n/a	9	54	ButtonPress	Win	True
517.74	0.29	Win2	0.6727	n/a	Yes	2.725	n/a	n/a	GoodResponse	1	n/a	n/a	9	54	Blank	Win	True
518.023	1.45	Win2	0.6727	n/a	Yes	2.725	n/a	5.0	GoodResponse	1	0.046	517.069	9	54	Feedback	Win	True
519.473	2.725	Win2	0.6727	n/a	Yes	2.725	n/a	n/a	GoodResponse	1	0.0	n/a	9	54	ISIslide	Win	True
522.222	0.25	Control	0.6786	0.0	Yes	3.028	0.022	n/a	GoodResponse	0	n/a	n/a	9	55	Cue	Neutral	True
522.472	3.95	Control	0.6786	0.0	Yes	3.028	0.0	n/a	GoodResponse	0	n/a	n/a	9	55	Fixation	Neutral	True
526.421	0.4	Control	0.6786	0.001	Yes	3.028	-0.001	1.0	GoodResponse	0	0.238	525.659	9	55	Target	Neutral	True
526.659	0.3	Control	0.6786	0.001	Yes	3.028	-0.001	1.0	GoodResponse	0	0.238	n/a	9	55	ButtonPress	Neutral	True
526.82	0.3	Control	0.6786	n/a	Yes	3.028	n/a	n/a	GoodResponse	0	n/a	n/a	9	55	Blank	Neutral	True
527.12	1.45	Control	0.6786	n/a	Yes	3.028	n/a	5.0	GoodResponse	0	0.022	526.142	9	55	Feedback	Neutral	True
528.57	3.028	Control	0.6786	n/a	Yes	3.028	n/a	n/a	GoodResponse	0	0.0	n/a	9	55	ISIslide	Neutral	True
531.619	0.25	Control	0.6842	0.0	Yes	2.831	0.019	n/a	GoodResponse	0	n/a	n/a	9	56	Cue	Neutral	True
531.869	3.95	Control	0.6842	0.0	Yes	2.831	0.0	n/a	GoodResponse	0	n/a	n/a	9	56	Fixation	Neutral	True
535.817	0.39	Control	0.6842	0.002	Yes	2.831	-0.002	1.0	GoodResponse	0	0.206	535.023	9	56	Target	Neutral	True
536.023	0.3	Control	0.6842	0.002	Yes	2.831	-0.002	1.0	GoodResponse	0	0.206	n/a	9	56	ButtonPress	Neutral	True
536.217	0.31	Control	0.6842	n/a	Yes	2.831	n/a	n/a	GoodResponse	0	n/a	n/a	9	56	Blank	Neutral	True
536.517	1.45	Control	0.6842	n/a	Yes	2.831	n/a	5.0	GoodResponse	0	0.04	535.557	9	56	Feedback	Neutral	True
537.967	2.831	Control	0.6842	n/a	Yes	2.831	n/a	n/a	GoodResponse	0	0.0	n/a	9	56	ISIslide	Neutral	True
540.816	0.25	Control	0.6724	0.0	No	3.484	0.016	n/a	PrematurePress	0	n/a	n/a	9	57	Cue	Neutral	True
541.065	4.0	Control	0.6724	0.001	No	3.484	-0.001	n/a	PrematurePress	0	n/a	n/a	9	57	Fixation	Neutral	True
545.064	0.38	Control	0.6724	0.002	No	3.484	-0.002	1.0	PrematurePress	0	0.085	544.149	9	57	Target	Neutral	True
545.149	0.3	Control	0.6724	0.002	No	3.484	-0.002	1.0	PrematurePress	0	0.085	n/a	9	57	ButtonPress	Neutral	True
545.447	0.32	Control	0.6724	n/a	No	3.484	n/a	n/a	PrematurePress	0	n/a	n/a	9	57	Blank	Neutral	True
545.764	1.45	Control	0.6724	n/a	No	3.484	n/a	5.0	PrematurePress	0	0.013	544.777	9	57	Feedback	Neutral	True
547.213	3.484	Control	0.6724	n/a	No	3.484	n/a	n/a	PrematurePress	0	0.0	n/a	9	57	ISIslide	Neutral	True
550.729	0.25	Win2	0.6779999999999999	0.0	Yes	2.721	0.029	n/a	GoodResponse	1	n/a	n/a	10	58	Cue	Win	True
550.979	4.05	Win2	0.6779999999999999	0.0	Yes	2.721	0.0	n/a	GoodResponse	1	n/a	n/a	10	58	Fixation	Win	True
555.027	0.37	Win2	0.6779999999999999	0.002	Yes	2.721	-0.002	1.0	GoodResponse	1	0.196	554.223	10	58	Target	Win	True
555.223	0.3	Win2	0.6779999999999999	0.002	Yes	2.721	-0.002	1.0	GoodResponse	1	0.196	n/a	10	58	ButtonPress	Win	True
555.41	0.33	Win2	0.6779999999999999	n/a	Yes	2.721	n/a	n/a	GoodResponse	1	n/a	n/a	10	58	Blank	Win	True
555.727	1.45	Win2	0.6779999999999999	n/a	Yes	2.721	n/a	5.0	GoodResponse	1	0.0	554.727	10	58	Feedback	Win	True
557.176	2.721	Win2	0.6779999999999999	n/a	Yes	2.721	n/a	n/a	GoodResponse	1	0.0	n/a	10	58	ISIslide	Win	True
559.926	0.25	Lose2	0.6667000000000001	0.0	No	2.674	0.026	n/a	NoResponse	-1	n/a	n/a	9	59	Cue	Loss	True
560.175	4.0	Lose2	0.6667000000000001	0.001	No	2.674	-0.001	n/a	NoResponse	-1	n/a	n/a	9	59	Fixation	Loss	True
564.174	0.36	Lose2	0.6667000000000001	0.002	No	2.674	-0.002	1.0	NoResponse	-1	0.376	563.55	9	59	Target	Loss	True
564.541	0.34	Lose2	0.6667000000000001	n/a	No	2.674	n/a	n/a	NoResponse	-1	n/a	n/a	9	59	Blank	Loss	True
564.55	0.3	Lose2	0.6667000000000001	0.002	No	2.674	-0.002	1.0	NoResponse	-1	0.376	n/a	9	59	ButtonPress	Loss	True
564.874	1.45	Lose2	0.6667000000000001	n/a	No	2.674	n/a	5.0	NoResponse	-1	0.024	563.898	9	59	Feedback	Loss	True
566.323	2.674	Lose2	0.6667000000000001	n/a	No	2.674	n/a	n/a	NoResponse	-1	0.0	n/a	9	59	ISIslide	Loss	True
569.022	0.25	Control	0.6557	0.0	No	2.678	0.022	n/a	NoResponse	0	n/a	n/a	9	60	Cue	Neutral	False
569.272	4.0	Control	0.6557	0.0	No	2.678	0.0	n/a	NoResponse	0	n/a	n/a	9	60	Fixation	Neutral	False
573.271	0.35	Control	0.6557	0.001	No	2.678	-0.001	n/a	NoResponse	0	n/a	n/a	9	60	Target	Neutral	False
573.621	0.35	Control	0.6557	n/a	No	2.678	n/a	n/a	NoResponse	0	n/a	n/a	9	60	Blank	Neutral	False
573.971	1.45	Control	0.6557	n/a	No	2.678	n/a	5.0	NoResponse	0	0.0	572.971	9	60	Feedback	Neutral	False
575.42	2.678	Control	0.6557	n/a	No	2.678	n/a	n/a	NoResponse	0	0.0	n/a	9	60	ISIslide	Neutral	False
578.119	0.25	Lose2	0.6452	0.0	No	2.981	0.019	n/a	NoResponse	-1	n/a	n/a	8	61	Cue	Loss	True
578.369	4.0	Lose2	0.6452	0.0	No	2.981	0.0	1.0	NoResponse	-1	3.948	581.317	8	61	Fixation	Loss	True
582.317	0.3	Lose2	0.6452	0.0	No	2.981	0.0	1.0	NoResponse	-1	3.948	n/a	8	61	ButtonPress	Loss	True
582.368	0.35	Lose2	0.6452	0.001	No	2.981	-0.001	n/a	NoResponse	-1	n/a	n/a	8	61	Target	Loss	True
582.718	0.35	Lose2	0.6452	n/a	No	2.981	n/a	n/a	NoResponse	-1	n/a	n/a	8	61	Blank	Loss	True
583.067	1.45	Lose2	0.6452	n/a	No	2.981	n/a	5.0	NoResponse	-1	0.026	582.093	8	61	Feedback	Loss	True
584.517	2.981	Lose2	0.6452	n/a	No	2.981	n/a	n/a	NoResponse	-1	0.0	n/a	8	61	ISIslide	Loss	True
587.516	0.25	Lose2	0.6507999999999999	0.0	Yes	2.884	0.016	n/a	GoodResponse	0	n/a	n/a	8	62	Cue	AvoidedLoss	True
587.766	3.9	Lose2	0.6507999999999999	0.0	Yes	2.884	0.0	n/a	GoodResponse	0	n/a	n/a	8	62	Fixation	AvoidedLoss	True
591.664	0.36	Lose2	0.6507999999999999	0.002	Yes	2.884	-0.002	1.0	GoodResponse	0	0.265	590.929	8	62	Target	AvoidedLoss	True
591.929	0.3	Lose2	0.6507999999999999	0.002	Yes	2.884	-0.002	1.0	GoodResponse	0	0.265	n/a	8	62	ButtonPress	AvoidedLoss	True
592.031	0.34	Lose2	0.6507999999999999	n/a	Yes	2.884	n/a	n/a	GoodResponse	0	n/a	n/a	8	62	Blank	AvoidedLoss	True
592.364	1.45	Lose2	0.6507999999999999	n/a	Yes	2.884	n/a	5.0	GoodResponse	0	0.047	591.411	8	62	Feedback	AvoidedLoss	True
593.814	2.884	Lose2	0.6507999999999999	n/a	Yes	2.884	n/a	n/a	GoodResponse	0	0.0	n/a	8	62	ISIslide	AvoidedLoss	True
596.729	0.25	Lose2	0.6562	0.0	Yes	2.621	0.029	n/a	GoodResponse	0	n/a	n/a	8	63	Cue	AvoidedLoss	True
596.979	4.05	Lose2	0.6562	0.0	Yes	2.621	0.0	n/a	GoodResponse	0	n/a	n/a	8	63	Fixation	AvoidedLoss	True
601.028	0.37	Lose2	0.6562	0.001	Yes	2.621	-0.001	1.0	GoodResponse	0	0.226	600.254	8	63	Target	AvoidedLoss	True
601.254	0.3	Lose2	0.6562	0.001	Yes	2.621	-0.001	1.0	GoodResponse	0	0.226	n/a	8	63	ButtonPress	AvoidedLoss	True
601.394	0.33	Lose2	0.6562	n/a	Yes	2.621	n/a	n/a	GoodResponse	0	n/a	n/a	8	63	Blank	AvoidedLoss	True
601.728	1.45	Lose2	0.6562	n/a	Yes	2.621	n/a	5.0	GoodResponse	0	0.048	600.776	8	63	Feedback	AvoidedLoss	True
603.177	2.621	Lose2	0.6562	n/a	Yes	2.621	n/a	n/a	GoodResponse	0	0.0	n/a	8	63	ISIslide	AvoidedLoss	True
605.826	0.25	Win2	0.6615000000000001	0.0	Yes	3.124	0.026	n/a	GoodResponse	1	n/a	n/a	9	64	Cue	Win	True
606.076	4.15	Win2	0.6615000000000001	0.0	Yes	3.124	0.0	n/a	GoodResponse	1	n/a	n/a	9	64	Fixation	Win	True
610.225	0.37	Win2	0.6615000000000001	0.001	Yes	3.124	-0.001	1.0	GoodResponse	1	0.214	609.439	9	64	Target	Win	True
610.439	0.3	Win2	0.6615000000000001	0.001	Yes	3.124	-0.001	1.0	GoodResponse	1	0.214	n/a	9	64	ButtonPress	Win	True
610.608	0.33	Win2	0.6615000000000001	n/a	Yes	3.124	n/a	n/a	GoodResponse	1	n/a	n/a	9	64	Blank	Win	True
610.924	1.45	Win2	0.6615000000000001	n/a	Yes	3.124	n/a	5.0	GoodResponse	1	0.022	609.946	9	64	Feedback	Win	True
612.374	3.124	Win2	0.6615000000000001	n/a	Yes	3.124	n/a	n/a	GoodResponse	1	0.0	n/a	9	64	ISIslide	Win	True
615.523	0.25	Control	0.6515000000000001	0.0	No	2.777	0.023	n/a	PrematurePress	0	n/a	n/a	9	65	Cue	Neutral	False
615.773	4.0	Control	0.6515000000000001	0.0	No	2.777	0.0	1.0	PrematurePress	0	3.653	618.426	9	65	Fixation	Neutral	False
619.426	0.3	Control	0.6515000000000001	0.0	No	2.777	0.0	1.0	PrematurePress	0	3.653	n/a	9	65	ButtonPress	Neutral	False
619.771	0.37	Control	0.6515000000000001	0.002	No	2.777	-0.002	1.0	PrematurePress	0	0.047	618.818	9	65	Target	Neutral	False
619.818	0.3	Control	0.6515000000000001	0.002	No	2.777	-0.002	1.0	PrematurePress	0	0.047	n/a	9	65	ButtonPress	Neutral	False
620.155	0.33	Control	0.6515000000000001	n/a	No	2.777	n/a	n/a	PrematurePress	0	n/a	n/a	9	65	Blank	Neutral	False
620.471	1.45	Control	0.6515000000000001	n/a	No	2.777	n/a	5.0	PrematurePress	0	0.036	619.507	9	65	Feedback	Neutral	False
621.921	2.777	Control	0.6515000000000001	n/a	No	2.777	n/a	n/a	PrematurePress	0	0.0	n/a	9	65	ISIslide	Neutral	False
624.72	0.25	Win2	0.6567000000000001	0.0	Yes	2.78	0.02	n/a	GoodResponse	1	n/a	n/a	10	66	Cue	Win	True
624.97	3.9	Win2	0.6567000000000001	0.0	Yes	2.78	0.0	n/a	GoodResponse	1	n/a	n/a	10	66	Fixation	Win	True
628.868	0.38	Win2	0.6567000000000001	0.002	Yes	2.78	-0.002	1.0	GoodResponse	1	0.193	628.061	10	66	Target	Win	True
629.061	0.3	Win2	0.6567000000000001	0.002	Yes	2.78	-0.002	1.0	GoodResponse	1	0.193	n/a	10	66	ButtonPress	Win	True
629.251	0.32	Win2	0.6567000000000001	n/a	Yes	2.78	n/a	n/a	GoodResponse	1	n/a	n/a	10	66	Blank	Win	True
629.568	1.45	Win2	0.6567000000000001	n/a	Yes	2.78	n/a	5.0	GoodResponse	1	0.013	628.581	10	66	Feedback	Win	True
631.017	2.78	Win2	0.6567000000000001	n/a	Yes	2.78	n/a	n/a	GoodResponse	1	0.0	n/a	10	66	ISIslide	Win	True
633.816	0.25	Control	0.6618	0.001	Yes	2.734	0.016	n/a	GoodResponse	0	n/a	n/a	10	67	Cue	Neutral	True
634.066	3.95	Control	0.6618	0.0	Yes	2.734	0.0	n/a	GoodResponse	0	n/a	n/a	10	67	Fixation	Neutral	True
638.015	0.38	Control	0.6618	0.001	Yes	2.734	-0.001	1.0	GoodResponse	0	0.343	637.358	10	67	Target	Neutral	True
638.358	0.3	Control	0.6618	0.001	Yes	2.734	-0.001	1.0	GoodResponse	0	0.343	n/a	10	67	ButtonPress	Neutral	True
638.398	0.32	Control	0.6618	n/a	Yes	2.734	n/a	n/a	GoodResponse	0	n/a	n/a	10	67	Blank	Neutral	True
638.715	1.45	Control	0.6618	n/a	Yes	2.734	n/a	5.0	GoodResponse	0	0.037	637.752	10	67	Feedback	Neutral	True
640.164	2.734	Control	0.6618	n/a	Yes	2.734	n/a	n/a	GoodResponse	0	0.0	n/a	10	67	ISIslide	Neutral	True
642.93	0.25	Win2	0.6667000000000001	0.0	Yes	3.07	0.03	n/a	GoodResponse	1	n/a	n/a	11	68	Cue	Win	True
643.18	4.0	Win2	0.6667000000000001	0.0	Yes	3.07	0.0	n/a	GoodResponse	1	n/a	n/a	11	68	Fixation	Win	True
647.178	0.38	Win2	0.6667000000000001	0.002	Yes	3.07	-0.002	1.0	GoodResponse	1	0.227	646.405	11	68	Target	Win	True
647.405	0.3	Win2	0.6667000000000001	0.002	Yes	3.07	-0.002	1.0	GoodResponse	1	0.227	n/a	11	68	ButtonPress	Win	True
647.562	0.32	Win2	0.6667000000000001	n/a	Yes	3.07	n/a	n/a	GoodResponse	1	n/a	n/a	11	68	Blank	Win	True
647.878	1.45	Win2	0.6667000000000001	n/a	Yes	3.07	n/a	5.0	GoodResponse	1	0.044	646.922	11	68	Feedback	Win	True
649.328	3.07	Win2	0.6667000000000001	n/a	Yes	3.07	n/a	n/a	GoodResponse	1	0.0	n/a	11	68	ISIslide	Win	True
652.427	0.25	Win2	0.6714	0.0	Yes	3.223	0.027	n/a	GoodResponse	1	n/a	n/a	12	69	Cue	Win	True
652.677	3.95	Win2	0.6714	0.0	Yes	3.223	0.0	n/a	GoodResponse	1	n/a	n/a	12	69	Fixation	Win	True
656.625	0.37	Win2	0.6714	0.002	Yes	3.223	-0.002	1.0	GoodResponse	1	0.16	655.785	12	69	Target	Win	True
656.785	0.3	Win2	0.6714	0.002	Yes	3.223	-0.002	1.0	GoodResponse	1	0.16	n/a	12	69	ButtonPress	Win	True
657.008	0.33	Win2	0.6714	n/a	Yes	3.223	n/a	n/a	GoodResponse	1	n/a	n/a	12	69	Blank	Win	True
657.325	1.45	Win2	0.6714	n/a	Yes	3.223	n/a	5.0	GoodResponse	1	0.011	656.336	12	69	Feedback	Win	True
658.774	3.223	Win2	0.6714	n/a	Yes	3.223	n/a	n/a	GoodResponse	1	0.0	n/a	12	69	ISIslide	Win	True
662.023	0.25	Lose2	0.6761	0.0	Yes	3.027	0.023	n/a	GoodResponse	0	n/a	n/a	12	70	Cue	AvoidedLoss	True
662.273	4.05	Lose2	0.6761	0.0	Yes	3.027	0.0	n/a	GoodResponse	0	n/a	n/a	12	70	Fixation	AvoidedLoss	True
666.322	0.36	Lose2	0.6761	0.001	Yes	3.027	-0.001	1.0	GoodResponse	0	0.11	665.432	12	70	Target	AvoidedLoss	True
666.432	0.3	Lose2	0.6761	0.001	Yes	3.027	-0.001	1.0	GoodResponse	0	0.11	n/a	12	70	ButtonPress	AvoidedLoss	True
666.688	0.34	Lose2	0.6761	n/a	Yes	3.027	n/a	n/a	GoodResponse	0	n/a	n/a	12	70	Blank	AvoidedLoss	True
667.022	1.45	Lose2	0.6761	n/a	Yes	3.027	n/a	5.0	GoodResponse	0	0.022	666.044	12	70	Feedback	AvoidedLoss	True
668.471	3.027	Lose2	0.6761	n/a	Yes	3.027	n/a	n/a	GoodResponse	0	0.0	n/a	12	70	ISIslide	AvoidedLoss	True
671.52	0.25	Win2	0.6806	0.0	Yes	2.73	0.02	n/a	GoodResponse	1	n/a	n/a	13	71	Cue	Win	True
671.77	4.05	Win2	0.6806	0.0	Yes	2.73	0.0	n/a	GoodResponse	1	n/a	n/a	13	71	Fixation	Win	True
675.818	0.35	Win2	0.6806	0.002	Yes	2.73	-0.002	1.0	GoodResponse	1	0.244	675.062	13	71	Target	Win	True
676.062	0.3	Win2	0.6806	0.002	Yes	2.73	-0.002	1.0	GoodResponse	1	0.244	n/a	13	71	ButtonPress	Win	True
676.168	0.35	Win2	0.6806	n/a	Yes	2.73	n/a	n/a	GoodResponse	1	n/a	n/a	13	71	Blank	Win	True
676.518	1.45	Win2	0.6806	n/a	Yes	2.73	n/a	5.0	GoodResponse	1	0.038	675.556	13	71	Feedback	Win	True
677.968	2.73	Win2	0.6806	n/a	Yes	2.73	n/a	n/a	GoodResponse	1	0.0	n/a	13	71	ISIslide	Win	True
680.717	0.25	Win2	0.6849	0.0	Yes	2.783	0.017	n/a	GoodResponse	1	n/a	n/a	14	72	Cue	Win	True
680.967	4.1	Win2	0.6849	0.0	Yes	2.783	0.0	n/a	GoodResponse	1	n/a	n/a	14	72	Fixation	Win	True
685.065	0.34	Win2	0.6849	0.002	Yes	2.783	-0.002	1.0	GoodResponse	1	0.184	684.249	14	72	Target	Win	True
685.249	0.3	Win2	0.6849	0.002	Yes	2.783	-0.002	1.0	GoodResponse	1	0.184	n/a	14	72	ButtonPress	Win	True
685.415	0.36	Win2	0.6849	n/a	Yes	2.783	n/a	n/a	GoodResponse	1	n/a	n/a	14	72	Blank	Win	True
685.765	1.45	Win2	0.6849	n/a	Yes	2.783	n/a	5.0	GoodResponse	1	0.011	684.776	14	72	Feedback	Win	True
687.214	2.783	Win2	0.6849	n/a	Yes	2.783	n/a	n/a	GoodResponse	1	0.0	n/a	14	72	ISIslide	Win	True
690.013	0.25	Win2	0.6892	0.001	Yes	2.687	0.013	n/a	GoodResponse	1	n/a	n/a	15	73	Cue	Win	True
690.263	4.0	Win2	0.6892	0.001	Yes	2.687	0.0	n/a	GoodResponse	1	n/a	n/a	15	73	Fixation	Win	True
694.262	0.33	Win2	0.6892	0.001	Yes	2.687	-0.001	1.0	GoodResponse	1	0.186	693.448	15	73	Target	Win	True
694.448	0.3	Win2	0.6892	0.001	Yes	2.687	-0.001	1.0	GoodResponse	1	0.186	n/a	15	73	ButtonPress	Win	True
694.595	0.37	Win2	0.6892	n/a	Yes	2.687	n/a	n/a	GoodResponse	1	n/a	n/a	15	73	Blank	Win	True
694.962	1.45	Win2	0.6892	n/a	Yes	2.687	n/a	5.0	GoodResponse	1	0.033	693.995	15	73	Feedback	Win	True
696.411	2.687	Win2	0.6892	n/a	Yes	2.687	n/a	n/a	GoodResponse	1	0.0	n/a	15	73	ISIslide	Win	True
699.127	0.25	Lose2	0.6933	0.0	Yes	2.623	0.027	n/a	GoodResponse	0	n/a	n/a	15	74	Cue	AvoidedLoss	True
699.377	4.05	Lose2	0.6933	0.0	Yes	2.623	0.0	n/a	GoodResponse	0	n/a	n/a	15	74	Fixation	AvoidedLoss	True
703.425	0.32	Lose2	0.6933	0.002	Yes	2.623	-0.002	1.0	GoodResponse	0	0.244	702.669	15	74	Target	AvoidedLoss	True
703.669	0.3	Lose2	0.6933	0.002	Yes	2.623	-0.002	1.0	GoodResponse	0	0.244	n/a	15	74	ButtonPress	AvoidedLoss	True
703.759	0.38	Lose2	0.6933	n/a	Yes	2.623	n/a	n/a	GoodResponse	0	n/a	n/a	15	74	Blank	AvoidedLoss	True
704.125	1.45	Lose2	0.6933	n/a	Yes	2.623	n/a	5.0	GoodResponse	0	0.04	703.165	15	74	Feedback	AvoidedLoss	True
705.575	2.623	Lose2	0.6933	n/a	Yes	2.623	n/a	n/a	GoodResponse	0	0.0	n/a	15	74	ISIslide	AvoidedLoss	True
708.224	0.25	Lose2	0.6973999999999999	0.0	Yes	2.926	0.024	n/a	GoodResponse	0	n/a	n/a	15	75	Cue	AvoidedLoss	False
708.474	3.95	Lose2	0.6973999999999999	0.0	Yes	2.926	0.0	1.0	GoodResponse	0	3.773	711.247	15	75	Fixation	AvoidedLoss	False
712.247	0.3	Lose2	0.6973999999999999	0.0	Yes	2.926	0.0	1.0	GoodResponse	0	3.773	n/a	15	75	ButtonPress	AvoidedLoss	False
712.422	0.31	Lose2	0.6973999999999999	0.002	Yes	2.926	-0.002	1.0	GoodResponse	0	0.186	711.608	15	75	Target	AvoidedLoss	False
712.608	0.3	Lose2	0.6973999999999999	0.002	Yes	2.926	-0.002	1.0	GoodResponse	0	0.186	n/a	15	75	ButtonPress	AvoidedLoss	False
712.739	0.39	Lose2	0.6973999999999999	n/a	Yes	2.926	n/a	n/a	GoodResponse	0	n/a	n/a	15	75	Blank	AvoidedLoss	False
713.122	1.45	Lose2	0.6973999999999999	n/a	Yes	2.926	n/a	5.0	GoodResponse	0	0.019	712.141	15	75	Feedback	AvoidedLoss	False
714.572	2.926	Lose2	0.6973999999999999	n/a	Yes	2.926	n/a	n/a	GoodResponse	0	0.0	n/a	15	75	ISIslide	AvoidedLoss	False
717.521	0.25	Control	0.7012999999999999	0.0	Yes	3.229	0.021	n/a	GoodResponse	0	n/a	n/a	15	76	Cue	Neutral	True
717.77	4.05	Control	0.7012999999999999	0.001	Yes	3.229	-0.001	n/a	GoodResponse	0	n/a	n/a	15	76	Fixation	Neutral	True
721.819	0.3	Control	0.7012999999999999	0.002	Yes	3.229	-0.002	1.0	GoodResponse	0	0.253	721.072	15	76	Target	Neutral	True
722.072	0.3	Control	0.7012999999999999	0.002	Yes	3.229	-0.002	1.0	GoodResponse	0	0.253	n/a	15	76	ButtonPress	Neutral	True
722.119	0.4	Control	0.7012999999999999	n/a	Yes	3.229	n/a	n/a	GoodResponse	0	n/a	n/a	15	76	Blank	Neutral	True
722.519	1.45	Control	0.7012999999999999	n/a	Yes	3.229	n/a	5.0	GoodResponse	0	0.037	721.556	15	76	Feedback	Neutral	True
723.968	3.229	Control	0.7012999999999999	n/a	Yes	3.229	n/a	n/a	GoodResponse	0	0.0	n/a	15	76	ISIslide	Neutral	True
727.217	0.25	Lose2	0.7051000000000001	0.0	Yes	2.583	0.017	n/a	GoodResponse	0	n/a	n/a	15	77	Cue	AvoidedLoss	True
727.467	3.95	Lose2	0.7051000000000001	0.0	Yes	2.583	0.0	n/a	GoodResponse	0	n/a	n/a	15	77	Fixation	AvoidedLoss	True
731.416	0.29	Lose2	0.7051000000000001	0.001	Yes	2.583	-0.001	1.0	GoodResponse	0	0.214	730.63	15	77	Target	AvoidedLoss	True
731.63	0.3	Lose2	0.7051000000000001	0.001	Yes	2.583	-0.001	1.0	GoodResponse	0	0.214	n/a	15	77	ButtonPress	AvoidedLoss	True
731.716	0.41	Lose2	0.7051000000000001	n/a	Yes	2.583	n/a	n/a	GoodResponse	0	n/a	n/a	15	77	Blank	AvoidedLoss	True
732.115	1.45	Lose2	0.7051000000000001	n/a	Yes	2.583	n/a	5.0	GoodResponse	0	0.002	731.117	15	77	Feedback	AvoidedLoss	True
733.565	2.583	Lose2	0.7051000000000001	n/a	Yes	2.583	n/a	n/a	GoodResponse	0	0.0	n/a	15	77	ISIslide	AvoidedLoss	True
