onset	duration	cue_type	current_mean_accuracy	duration_error	is_hit	isi_adjusted	onset_delay	response	response_type	reward	rt	rt_time	total_reward	trial_number	trial_phase	trial_type	one_press
11.103	0.25	Control	1.0	0.0	Yes	2.947	0.003	n/a	GoodResponse	0	n/a	n/a	0	0	Cue	Neutral	False
11.353	3.85	Control	1.0	0.0	Yes	2.947	0.0	2.0	GoodResponse	0	0.012	10.365	0	0	Fixation	Neutral	False
11.365	0.3	Control	1.0	0.0	Yes	2.947	0.0	2.0	GoodResponse	0	0.012	n/a	0	0	ButtonPress	Neutral	False
15.201	0.4	Control	1.0	0.002	Yes	2.947	-0.002	2.0	GoodResponse	0	0.227	14.428	0	0	Target	Neutral	False
15.428	0.3	Control	1.0	0.002	Yes	2.947	-0.002	2.0	GoodResponse	0	0.227	n/a	0	0	ButtonPress	Neutral	False
15.601	0.3	Control	1.0	n/a	Yes	2.947	n/a	n/a	GoodResponse	0	n/a	n/a	0	0	Blank	Neutral	False
15.901	1.45	Control	1.0	n/a	Yes	2.947	n/a	5.0	GoodResponse	0	0.024	14.925	0	0	Feedback	Neutral	False
17.351	2.947	Control	1.0	n/a	Yes	2.947	n/a	n/a	GoodResponse	0	0.0	n/a	0	0	ISIslide	Neutral	False
20.316	0.25	Lose2	1.0	0.0	Yes	2.784	0.016	2.0	GoodResponse	0	0.224	19.54	0	1	Cue	AvoidedLoss	False
20.54	0.3	Lose2	1.0	0.0	Yes	2.784	0.016	2.0	GoodResponse	0	0.224	n/a	0	1	ButtonPress	AvoidedLoss	False
20.566	4.0	Lose2	1.0	0.0	Yes	2.784	0.0	n/a	GoodResponse	0	n/a	n/a	0	1	Fixation	AvoidedLoss	False
24.565	0.39	Lose2	1.0	0.001	Yes	2.784	-0.001	2.0	GoodResponse	0	0.212	23.777	0	1	Target	AvoidedLoss	False
24.777	0.3	Lose2	1.0	0.001	Yes	2.784	-0.001	2.0	GoodResponse	0	0.212	n/a	0	1	ButtonPress	AvoidedLoss	False
24.965	0.31	Lose2	1.0	n/a	Yes	2.784	n/a	n/a	GoodResponse	0	n/a	n/a	0	1	Blank	AvoidedLoss	False
25.264	1.45	Lose2	1.0	n/a	Yes	2.784	n/a	5.0	GoodResponse	0	0.027	24.291	0	1	Feedback	AvoidedLoss	False
26.714	2.784	Lose2	1.0	n/a	Yes	2.784	n/a	n/a	GoodResponse	0	0.0	n/a	0	1	ISIslide	AvoidedLoss	False
29.513	0.25	Control	1.0	0.0	Yes	2.587	0.013	n/a	GoodResponse	0	n/a	n/a	0	2	Cue	Neutral	False
29.763	4.1	Control	1.0	0.0	Yes	2.587	0.0	2.0	GoodResponse	0	0.01	28.773	0	2	Fixation	Neutral	False
29.773	0.3	Control	1.0	0.0	Yes	2.587	0.0	2.0	GoodResponse	0	0.01	n/a	0	2	ButtonPress	Neutral	False
33.861	0.38	Control	1.0	0.002	Yes	2.587	-0.002	2.0	GoodResponse	0	0.246	33.107	0	2	Target	Neutral	False
34.107	0.3	Control	1.0	0.002	Yes	2.587	-0.002	2.0	GoodResponse	0	0.246	n/a	0	2	ButtonPress	Neutral	False
34.245	0.32	Control	1.0	n/a	Yes	2.587	n/a	n/a	GoodResponse	0	n/a	n/a	0	2	Blank	Neutral	False
34.561	1.45	Control	1.0	n/a	Yes	2.587	n/a	5.0	GoodResponse	0	0.048	33.609	0	2	Feedback	Neutral	False
36.011	2.587	Control	1.0	n/a	Yes	2.587	n/a	n/a	GoodResponse	0	0.0	n/a	0	2	ISIslide	Neutral	False
38.626	0.25	Win2	1.0	0.0	Yes	2.824	0.026	n/a	GoodResponse	1	n/a	n/a	1	3	Cue	Win	False
38.876	3.95	Win2	1.0	0.0	Yes	2.824	0.0	2.0	GoodResponse	1	0.007	37.883	1	3	Fixation	Win	False
38.883	0.3	Win2	1.0	0.0	Yes	2.824	0.0	2.0	GoodResponse	1	0.007	n/a	1	3	ButtonPress	Win	False
42.825	0.37	Win2	1.0	0.001	Yes	2.824	-0.001	2.0	GoodResponse	1	0.219	42.044	1	3	Target	Win	False
43.044	0.3	Win2	1.0	0.001	Yes	2.824	-0.001	2.0	GoodResponse	1	0.219	n/a	1	3	ButtonPress	Win	False
43.191	0.33	Win2	1.0	n/a	Yes	2.824	n/a	n/a	GoodResponse	1	n/a	n/a	1	3	Blank	Win	False
43.525	1.45	Win2	1.0	n/a	Yes	2.824	n/a	5.0	GoodResponse	1	0.01	42.535	1	3	Feedback	Win	False
44.974	2.824	Win2	1.0	n/a	Yes	2.824	n/a	n/a	GoodResponse	1	0.0	n/a	1	3	ISIslide	Win	False
47.823	0.25	Win2	1.0	0.0	Yes	3.277	0.023	n/a	GoodResponse	1	n/a	n/a	2	4	Cue	Win	False
48.073	4.0	Win2	1.0	0.0	Yes	3.277	0.0	2.0	GoodResponse	1	0.232	47.305	2	4	Fixation	Win	False
48.305	0.3	Win2	1.0	0.0	Yes	3.277	0.0	2.0	GoodResponse	1	0.232	n/a	2	4	ButtonPress	Win	False
52.072	0.36	Win2	1.0	0.001	Yes	3.277	-0.001	2.0	GoodResponse	1	0.193	51.265	2	4	Target	Win	False
52.265	0.3	Win2	1.0	0.001	Yes	3.277	-0.001	2.0	GoodResponse	1	0.193	n/a	2	4	ButtonPress	Win	False
52.438	0.34	Win2	1.0	n/a	Yes	3.277	n/a	n/a	GoodResponse	1	n/a	n/a	2	4	Blank	Win	False
52.771	1.45	Win2	1.0	n/a	Yes	3.277	n/a	5.0	GoodResponse	1	0.032	51.803	2	4	Feedback	Win	False
54.221	3.277	Win2	1.0	n/a	Yes	3.277	n/a	n/a	GoodResponse	1	0.0	n/a	2	4	ISIslide	Win	False
57.52	0.25	Win2	1.0	0.0	Yes	2.78	0.02	n/a	GoodResponse	1	n/a	n/a	3	5	Cue	Win	False
57.77	4.0	Win2	1.0	0.0	Yes	2.78	0.0	2.0	GoodResponse	1	0.151	56.921	3	5	Fixation	Win	False
57.921	0.3	Win2	1.0	0.0	Yes	2.78	0.0	2.0	GoodResponse	1	0.151	n/a	3	5	ButtonPress	Win	False
61.768	0.35	Win2	1.0	0.002	Yes	2.78	-0.002	2.0	GoodResponse	1	0.209	60.977	3	5	Target	Win	False
61.977	0.3	Win2	1.0	0.002	Yes	2.78	-0.002	2.0	GoodResponse	1	0.209	n/a	3	5	ButtonPress	Win	False
62.118	0.35	Win2	1.0	n/a	Yes	2.78	n/a	n/a	GoodResponse	1	n/a	n/a	3	5	Blank	Win	False
62.468	1.45	Win2	1.0	n/a	Yes	2.78	n/a	5.0	GoodResponse	1	0.042	61.51	3	5	Feedback	Win	False
63.917	2.78	Win2	1.0	n/a	Yes	2.78	n/a	n/a	GoodResponse	1	0.0	n/a	3	5	ISIslide	Win	False
66.716	0.25	Lose2	1.0	0.0	Yes	2.734	0.016	n/a	GoodResponse	0	n/a	n/a	3	6	Cue	AvoidedLoss	False
66.966	3.95	Lose2	1.0	0.0	Yes	2.734	0.0	2.0	GoodResponse	0	0.052	66.018	3	6	Fixation	AvoidedLoss	False
67.018	0.3	Lose2	1.0	0.0	Yes	2.734	0.0	2.0	GoodResponse	0	0.052	n/a	3	6	ButtonPress	AvoidedLoss	False
70.915	0.34	Lose2	1.0	0.001	Yes	2.734	-0.001	2.0	GoodResponse	0	0.217	70.132	3	6	Target	AvoidedLoss	False
71.132	0.3	Lose2	1.0	0.001	Yes	2.734	-0.001	2.0	GoodResponse	0	0.217	n/a	3	6	ButtonPress	AvoidedLoss	False
71.265	0.36	Lose2	1.0	n/a	Yes	2.734	n/a	n/a	GoodResponse	0	n/a	n/a	3	6	Blank	AvoidedLoss	False
71.615	1.45	Lose2	1.0	n/a	Yes	2.734	n/a	5.0	GoodResponse	0	0.017	70.632	3	6	Feedback	AvoidedLoss	False
73.064	2.734	Lose2	1.0	n/a	Yes	2.734	n/a	n/a	GoodResponse	0	0.0	n/a	3	6	ISIslide	AvoidedLoss	False
75.813	0.25	Lose2	1.0	0.0	Yes	4.037	0.013	n/a	GoodResponse	0	n/a	n/a	3	7	Cue	AvoidedLoss	False
76.063	4.05	Lose2	1.0	0.0	Yes	4.037	0.0	2.0	GoodResponse	0	0.446	75.509	3	7	Fixation	AvoidedLoss	False
76.509	0.3	Lose2	1.0	0.0	Yes	4.037	0.0	2.0	GoodResponse	0	0.446	n/a	3	7	ButtonPress	AvoidedLoss	False
80.112	0.33	Lose2	1.0	0.001	Yes	4.037	-0.001	2.0	GoodResponse	0	0.18	79.292	3	7	Target	AvoidedLoss	False
80.292	0.3	Lose2	1.0	0.001	Yes	4.037	-0.001	2.0	GoodResponse	0	0.18	n/a	3	7	ButtonPress	AvoidedLoss	False
80.445	0.37	Lose2	1.0	n/a	Yes	4.037	n/a	n/a	GoodResponse	0	n/a	n/a	3	7	Blank	AvoidedLoss	False
80.811	1.45	Lose2	1.0	n/a	Yes	4.037	n/a	5.0	GoodResponse	0	0.041	79.852	3	7	Feedback	AvoidedLoss	False
82.261	4.037	Lose2	1.0	n/a	Yes	4.037	n/a	n/a	GoodResponse	0	0.0	n/a	3	7	ISIslide	AvoidedLoss	False
86.326	0.25	Lose2	1.0	0.0	Yes	3.024	0.026	n/a	GoodResponse	0	n/a	n/a	3	8	Cue	AvoidedLoss	True
86.576	3.95	Lose2	1.0	0.0	Yes	3.024	0.0	n/a	GoodResponse	0	n/a	n/a	3	8	Fixation	AvoidedLoss	True
90.525	0.32	Lose2	1.0	0.001	Yes	3.024	-0.001	2.0	GoodResponse	0	0.23	89.755	3	8	Target	AvoidedLoss	True
90.755	0.3	Lose2	1.0	0.001	Yes	3.024	-0.001	2.0	GoodResponse	0	0.23	n/a	3	8	ButtonPress	AvoidedLoss	True
90.858	0.38	Lose2	1.0	n/a	Yes	3.024	n/a	n/a	GoodResponse	0	n/a	n/a	3	8	Blank	AvoidedLoss	True
91.224	1.45	Lose2	1.0	n/a	Yes	3.024	n/a	5.0	GoodResponse	0	0.017	90.241	3	8	Feedback	AvoidedLoss	True
92.674	3.024	Lose2	1.0	n/a	Yes	3.024	n/a	n/a	GoodResponse	0	0.0	n/a	3	8	ISIslide	AvoidedLoss	True
95.723	0.25	Lose2	1.0	0.0	Yes	3.127	0.023	n/a	GoodResponse	0	n/a	n/a	3	9	Cue	AvoidedLoss	True
95.973	3.95	Lose2	1.0	0.0	Yes	3.127	0.0	n/a	GoodResponse	0	n/a	n/a	3	9	Fixation	AvoidedLoss	True
99.921	0.31	Lose2	1.0	0.002	Yes	3.127	-0.002	2.0	GoodResponse	0	0.231	99.152	3	9	Target	AvoidedLoss	True
100.152	0.3	Lose2	1.0	0.002	Yes	3.127	-0.002	2.0	GoodResponse	0	0.231	n/a	3	9	ButtonPress	AvoidedLoss	True
100.238	0.39	Lose2	1.0	n/a	Yes	3.127	n/a	n/a	GoodResponse	0	n/a	n/a	3	9	Blank	AvoidedLoss	True
100.621	1.45	Lose2	1.0	n/a	Yes	3.127	n/a	5.0	GoodResponse	0	0.035	99.656	3	9	Feedback	AvoidedLoss	True
102.07	3.127	Lose2	1.0	n/a	Yes	3.127	n/a	n/a	GoodResponse	0	0.0	n/a	3	9	ISIslide	AvoidedLoss	True
105.219	0.25	Control	1.0	0.0	Yes	3.281	0.019	n/a	GoodResponse	0	n/a	n/a	3	10	Cue	Neutral	True
105.469	4.0	Control	1.0	0.0	Yes	3.281	0.0	n/a	GoodResponse	0	n/a	n/a	3	10	Fixation	Neutral	True
109.468	0.3	Control	1.0	0.001	Yes	3.281	-0.001	2.0	GoodResponse	0	0.206	108.674	3	10	Target	Neutral	True
109.674	0.3	Control	1.0	0.001	Yes	3.281	-0.001	2.0	GoodResponse	0	0.206	n/a	3	10	ButtonPress	Neutral	True
109.768	0.4	Control	1.0	n/a	Yes	3.281	n/a	n/a	GoodResponse	0	n/a	n/a	3	10	Blank	Neutral	True
110.168	1.45	Control	1.0	n/a	Yes	3.281	n/a	5.0	GoodResponse	0	0.0	109.168	3	10	Feedback	Neutral	True
111.617	3.281	Control	1.0	n/a	Yes	3.281	n/a	n/a	GoodResponse	0	0.0	n/a	3	10	ISIslide	Neutral	True
114.916	0.25	Lose2	1.0	0.0	Yes	2.734	0.016	n/a	GoodResponse	0	n/a	n/a	3	11	Cue	AvoidedLoss	True
115.166	4.05	Lose2	1.0	0.0	Yes	2.734	0.0	n/a	GoodResponse	0	n/a	n/a	3	11	Fixation	AvoidedLoss	True
119.214	0.29	Lose2	1.0	0.002	Yes	2.734	-0.002	2.0	GoodResponse	0	0.208	118.422	3	11	Target	AvoidedLoss	True
119.422	0.3	Lose2	1.0	0.002	Yes	2.734	-0.002	2.0	GoodResponse	0	0.208	n/a	3	11	ButtonPress	AvoidedLoss	True
119.514	0.41	Lose2	1.0	n/a	Yes	2.734	n/a	n/a	GoodResponse	0	n/a	n/a	3	11	Blank	AvoidedLoss	True
119.914	1.45	Lose2	1.0	n/a	Yes	2.734	n/a	5.0	GoodResponse	0	0.011	118.925	3	11	Feedback	AvoidedLoss	True
121.364	2.734	Lose2	1.0	n/a	Yes	2.734	n/a	n/a	GoodResponse	0	0.0	n/a	3	11	ISIslide	AvoidedLoss	True
124.129	0.25	Control	1.0	0.0	Yes	2.971	0.029	n/a	GoodResponse	0	n/a	n/a	3	12	Cue	Neutral	True
124.379	3.9	Control	1.0	0.0	Yes	2.971	0.0	n/a	GoodResponse	0	n/a	n/a	3	12	Fixation	Neutral	True
128.278	0.28	Control	1.0	0.001	Yes	2.971	-0.001	2.0	GoodResponse	0	0.237	127.515	3	12	Target	Neutral	True
128.515	0.3	Control	1.0	0.001	Yes	2.971	-0.001	2.0	GoodResponse	0	0.237	n/a	3	12	ButtonPress	Neutral	True
128.561	0.42	Control	1.0	n/a	Yes	2.971	n/a	n/a	GoodResponse	0	n/a	n/a	3	12	Blank	Neutral	True
128.978	1.45	Control	1.0	n/a	Yes	2.971	n/a	5.0	GoodResponse	0	0.019	127.997	3	12	Feedback	Neutral	True
130.427	2.971	Control	1.0	n/a	Yes	2.971	n/a	n/a	GoodResponse	0	0.0	n/a	3	12	ISIslide	Neutral	True
133.426	0.25	Control	0.9286	0.0	No	2.774	0.026	n/a	NoResponse	0	n/a	n/a	3	13	Cue	Neutral	False
133.676	4.0	Control	0.9286	0.0	No	2.774	0.0	n/a	NoResponse	0	n/a	n/a	3	13	Fixation	Neutral	False
137.674	0.27	Control	0.9286	0.002	No	2.774	-0.002	n/a	NoResponse	0	n/a	n/a	3	13	Target	Neutral	False
137.958	0.43	Control	0.9286	n/a	No	2.774	n/a	n/a	NoResponse	0	n/a	n/a	3	13	Blank	Neutral	False
138.374	1.45	Control	0.9286	n/a	No	2.774	n/a	5.0	NoResponse	0	0.038	137.412	3	13	Feedback	Neutral	False
139.824	2.774	Control	0.9286	n/a	No	2.774	n/a	n/a	NoResponse	0	0.0	n/a	3	13	ISIslide	Neutral	False
142.623	0.25	Win2	0.9333	0.0	Yes	2.677	0.023	n/a	GoodResponse	1	n/a	n/a	4	14	Cue	Win	True
142.873	4.1	Win2	0.9333	0.0	Yes	2.677	0.0	n/a	GoodResponse	1	n/a	n/a	4	14	Fixation	Win	True
146.971	0.26	Win2	0.9333	0.002	Yes	2.677	-0.002	2.0	GoodResponse	1	0.229	146.2	4	14	Target	Win	True
147.2	0.3	Win2	0.9333	0.002	Yes	2.677	-0.002	2.0	GoodResponse	1	0.229	n/a	4	14	ButtonPress	Win	True
147.238	0.44	Win2	0.9333	n/a	Yes	2.677	n/a	n/a	GoodResponse	1	n/a	n/a	4	14	Blank	Win	True
147.671	1.45	Win2	0.9333	n/a	Yes	2.677	n/a	5.0	GoodResponse	1	0.009	146.68	4	14	Feedback	Win	True
149.12	2.677	Win2	0.9333	n/a	Yes	2.677	n/a	n/a	GoodResponse	1	0.0	n/a	4	14	ISIslide	Win	True
151.819	0.25	Control	0.875	0.001	No	2.981	0.019	n/a	NoResponse	0	n/a	n/a	4	15	Cue	Neutral	False
152.069	4.0	Control	0.875	0.0	No	2.981	0.0	n/a	NoResponse	0	n/a	n/a	4	15	Fixation	Neutral	False
156.068	0.25	Control	0.875	0.001	No	2.981	-0.001	n/a	NoResponse	0	n/a	n/a	4	15	Target	Neutral	False
156.318	0.45	Control	0.875	n/a	No	2.981	n/a	n/a	NoResponse	0	n/a	n/a	4	15	Blank	Neutral	False
156.768	1.45	Control	0.875	n/a	No	2.981	n/a	5.0	NoResponse	0	0.034	155.802	4	15	Feedback	Neutral	False
158.217	2.981	Control	0.875	n/a	No	2.981	n/a	n/a	NoResponse	0	0.0	n/a	4	15	ISIslide	Neutral	False
161.216	0.25	Win2	0.8824	0.0	Yes	2.884	0.016	n/a	GoodResponse	1	n/a	n/a	5	16	Cue	Win	True
161.466	4.0	Win2	0.8824	0.0	Yes	2.884	0.0	n/a	GoodResponse	1	n/a	n/a	5	16	Fixation	Win	True
165.465	0.24	Win2	0.8824	0.001	Yes	2.884	-0.001	2.0	GoodResponse	1	0.198	164.663	5	16	Target	Win	True
165.663	0.3	Win2	0.8824	0.001	Yes	2.884	-0.001	2.0	GoodResponse	1	0.198	n/a	5	16	ButtonPress	Win	True
165.714	0.46	Win2	0.8824	n/a	Yes	2.884	n/a	n/a	GoodResponse	1	n/a	n/a	5	16	Blank	Win	True
166.164	1.45	Win2	0.8824	n/a	Yes	2.884	n/a	5.0	GoodResponse	1	0.005	165.169	5	16	Feedback	Win	True
167.614	2.884	Win2	0.8824	n/a	Yes	2.884	n/a	n/a	GoodResponse	1	0.0	n/a	5	16	ISIslide	Win	True
170.529	0.25	Lose2	0.8332999999999999	0.001	No	2.721	0.029	n/a	NoResponse	-1	n/a	n/a	4	17	Cue	Loss	False
170.779	3.95	Lose2	0.8332999999999999	0.0	No	2.721	0.0	n/a	NoResponse	-1	n/a	n/a	4	17	Fixation	Loss	False
174.728	0.23	Lose2	0.8332999999999999	0.001	No	2.721	-0.001	n/a	NoResponse	-1	n/a	n/a	4	17	Target	Loss	False
174.961	0.47	Lose2	0.8332999999999999	n/a	No	2.721	n/a	n/a	NoResponse	-1	n/a	n/a	4	17	Blank	Loss	False
175.428	1.45	Lose2	0.8332999999999999	n/a	No	2.721	n/a	5.0	NoResponse	-1	0.008	174.436	4	17	Feedback	Loss	False
176.877	2.721	Lose2	0.8332999999999999	n/a	No	2.721	n/a	n/a	NoResponse	-1	0.0	n/a	4	17	ISIslide	Loss	False
179.626	0.25	Lose2	0.8421	0.0	Yes	2.724	0.026	n/a	GoodResponse	0	n/a	n/a	4	18	Cue	AvoidedLoss	True
179.876	4.05	Lose2	0.8421	0.0	Yes	2.724	0.0	n/a	GoodResponse	0	n/a	n/a	4	18	Fixation	AvoidedLoss	True
183.925	0.22	Lose2	0.8421	0.001	Yes	2.724	-0.001	2.0	GoodResponse	0	0.202	183.127	4	18	Target	AvoidedLoss	True
184.127	0.3	Lose2	0.8421	0.001	Yes	2.724	-0.001	2.0	GoodResponse	0	0.202	n/a	4	18	ButtonPress	AvoidedLoss	True
184.158	0.48	Lose2	0.8421	n/a	Yes	2.724	n/a	n/a	GoodResponse	0	n/a	n/a	4	18	Blank	AvoidedLoss	True
184.624	1.45	Lose2	0.8421	n/a	Yes	2.724	n/a	5.0	GoodResponse	0	0.031	183.655	4	18	Feedback	AvoidedLoss	True
186.074	2.724	Lose2	0.8421	n/a	Yes	2.724	n/a	n/a	GoodResponse	0	0.0	n/a	4	18	ISIslide	AvoidedLoss	True
188.823	0.25	Control	0.8	0.0	No	2.927	0.023	n/a	NoResponse	0	n/a	n/a	4	19	Cue	Neutral	False
189.073	3.95	Control	0.8	0.0	No	2.927	0.0	n/a	NoResponse	0	n/a	n/a	4	19	Fixation	Neutral	False
193.021	0.21	Control	0.8	0.002	No	2.927	-0.002	n/a	NoResponse	0	n/a	n/a	4	19	Target	Neutral	False
193.238	0.49	Control	0.8	n/a	No	2.927	n/a	n/a	NoResponse	0	n/a	n/a	4	19	Blank	Neutral	False
193.721	1.45	Control	0.8	n/a	No	2.927	n/a	5.0	NoResponse	0	0.007	192.728	4	19	Feedback	Neutral	False
195.171	2.927	Control	0.8	n/a	No	2.927	n/a	n/a	NoResponse	0	0.0	n/a	4	19	ISIslide	Neutral	False
198.12	0.25	Control	0.7619	0.0	No	2.63	0.02	n/a	NoResponse	0	n/a	n/a	4	20	Cue	Neutral	False
198.37	4.05	Control	0.7619	0.0	No	2.63	0.0	n/a	NoResponse	0	n/a	n/a	4	20	Fixation	Neutral	False
202.418	0.2	Control	0.7619	0.002	No	2.63	-0.002	n/a	NoResponse	0	n/a	n/a	4	20	Target	Neutral	False
202.618	0.5	Control	0.7619	n/a	No	2.63	n/a	n/a	NoResponse	0	n/a	n/a	4	20	Blank	Neutral	False
203.118	1.45	Control	0.7619	n/a	No	2.63	n/a	5.0	NoResponse	0	0.024	202.142	4	20	Feedback	Neutral	False
204.567	2.63	Control	0.7619	n/a	No	2.63	n/a	n/a	NoResponse	0	0.0	n/a	4	20	ISIslide	Neutral	False
207.216	0.25	Control	0.7273000000000001	0.001	No	2.784	0.016	n/a	NoResponse	0	n/a	n/a	4	21	Cue	Neutral	False
207.466	4.1	Control	0.7273000000000001	0.0	No	2.784	0.0	n/a	NoResponse	0	n/a	n/a	4	21	Fixation	Neutral	False
211.565	0.19	Control	0.7273000000000001	0.001	No	2.784	-0.001	n/a	NoResponse	0	n/a	n/a	4	21	Target	Neutral	False
211.765	0.51	Control	0.7273000000000001	n/a	No	2.784	n/a	n/a	NoResponse	0	n/a	n/a	4	21	Blank	Neutral	False
212.265	1.45	Control	0.7273000000000001	n/a	No	2.784	n/a	5.0	NoResponse	0	0.048	211.313	4	21	Feedback	Neutral	False
213.714	2.784	Control	0.7273000000000001	n/a	No	2.784	n/a	n/a	NoResponse	0	0.0	n/a	4	21	ISIslide	Neutral	False
216.513	0.25	Control	0.6957	0.0	No	2.787	0.013	n/a	NoResponse	0	n/a	n/a	4	22	Cue	Neutral	False
216.763	4.0	Control	0.6957	0.0	No	2.787	0.0	n/a	NoResponse	0	n/a	n/a	4	22	Fixation	Neutral	False
220.762	0.18	Control	0.6957	0.001	No	2.787	-0.001	n/a	NoResponse	0	n/a	n/a	4	22	Target	Neutral	False
220.945	0.52	Control	0.6957	n/a	No	2.787	n/a	n/a	NoResponse	0	n/a	n/a	4	22	Blank	Neutral	False
221.461	1.45	Control	0.6957	n/a	No	2.787	n/a	5.0	NoResponse	0	0.023	220.484	4	22	Feedback	Neutral	False
222.911	2.787	Control	0.6957	n/a	No	2.787	n/a	n/a	NoResponse	0	0.0	n/a	4	22	ISIslide	Neutral	False
225.726	0.25	Control	0.6667000000000001	0.001	No	2.774	0.026	n/a	NoResponse	0	n/a	n/a	4	23	Cue	Neutral	False
225.976	3.9	Control	0.6667000000000001	0.001	No	2.774	0.0	n/a	NoResponse	0	n/a	n/a	4	23	Fixation	Neutral	False
229.875	0.17	Control	0.6667000000000001	0.001	No	2.774	-0.001	n/a	NoResponse	0	n/a	n/a	4	23	Target	Neutral	False
230.042	0.53	Control	0.6667000000000001	n/a	No	2.774	n/a	n/a	NoResponse	0	n/a	n/a	4	23	Blank	Neutral	False
230.575	1.45	Control	0.6667000000000001	n/a	No	2.774	n/a	5.0	NoResponse	0	0.031	229.606	4	23	Feedback	Neutral	False
232.024	2.774	Control	0.6667000000000001	n/a	No	2.774	n/a	n/a	NoResponse	0	0.0	n/a	4	23	ISIslide	Neutral	False
234.823	0.25	Win2	0.64	0.0	No	3.127	0.023	n/a	NoResponse	0	n/a	n/a	4	24	Cue	MissedWin	True
235.073	3.95	Win2	0.64	0.0	No	3.127	0.0	n/a	NoResponse	0	n/a	n/a	4	24	Fixation	MissedWin	True
239.022	0.16	Win2	0.64	0.001	No	3.127	-0.001	2.0	NoResponse	0	0.211	238.233	4	24	Target	MissedWin	True
239.188	0.54	Win2	0.64	n/a	No	3.127	n/a	n/a	NoResponse	0	n/a	n/a	4	24	Blank	MissedWin	True
239.233	0.3	Win2	0.64	0.001	No	3.127	-0.001	2.0	NoResponse	0	0.211	n/a	4	24	ButtonPress	MissedWin	True
239.722	1.45	Win2	0.64	n/a	No	3.127	n/a	5.0	NoResponse	0	0.005	238.727	4	24	Feedback	MissedWin	True
241.171	3.127	Win2	0.64	n/a	No	3.127	n/a	n/a	NoResponse	0	0.0	n/a	4	24	ISIslide	MissedWin	True
244.32	0.25	Win2	0.6154	0.0	No	3.08	0.02	n/a	NoResponse	0	n/a	n/a	4	25	Cue	MissedWin	True
244.57	4.0	Win2	0.6154	0.0	No	3.08	0.0	n/a	NoResponse	0	n/a	n/a	4	25	Fixation	MissedWin	True
248.568	0.17	Win2	0.6154	0.002	No	3.08	-0.002	2.0	NoResponse	0	0.202	247.77	4	25	Target	MissedWin	True
248.752	0.53	Win2	0.6154	n/a	No	3.08	n/a	n/a	NoResponse	0	n/a	n/a	4	25	Blank	MissedWin	True
248.77	0.3	Win2	0.6154	0.002	No	3.08	-0.002	2.0	NoResponse	0	0.202	n/a	4	25	ButtonPress	MissedWin	True
249.268	1.45	Win2	0.6154	n/a	No	3.08	n/a	5.0	NoResponse	0	0.02	248.288	4	25	Feedback	MissedWin	True
250.718	3.08	Win2	0.6154	n/a	No	3.08	n/a	n/a	NoResponse	0	0.0	n/a	4	25	ISIslide	MissedWin	True
253.816	0.25	Win2	0.5926	0.001	No	2.934	0.016	n/a	NoResponse	0	n/a	n/a	4	26	Cue	MissedWin	True
254.066	3.95	Win2	0.5926	0.0	No	2.934	0.0	n/a	NoResponse	0	n/a	n/a	4	26	Fixation	MissedWin	True
258.015	0.18	Win2	0.5926	0.001	No	2.934	-0.001	2.0	NoResponse	0	0.209	257.224	4	26	Target	MissedWin	True
258.198	0.52	Win2	0.5926	n/a	No	2.934	n/a	n/a	NoResponse	0	n/a	n/a	4	26	Blank	MissedWin	True
258.224	0.3	Win2	0.5926	0.001	No	2.934	-0.001	2.0	NoResponse	0	0.209	n/a	4	26	ButtonPress	MissedWin	True
258.715	1.45	Win2	0.5926	n/a	No	2.934	n/a	5.0	NoResponse	0	0.037	257.752	4	26	Feedback	MissedWin	True
260.164	2.934	Win2	0.5926	n/a	No	2.934	n/a	n/a	NoResponse	0	0.0	n/a	4	26	ISIslide	MissedWin	True
263.13	0.25	Lose2	0.5714	0.0	No	2.82	0.03	n/a	NoResponse	-1	n/a	n/a	3	27	Cue	Loss	True
263.38	4.05	Lose2	0.5714	0.0	No	2.82	0.0	n/a	NoResponse	-1	n/a	n/a	3	27	Fixation	Loss	True
267.428	0.19	Lose2	0.5714	0.002	No	2.82	-0.002	2.0	NoResponse	-1	0.229	266.657	3	27	Target	Loss	True
267.628	0.51	Lose2	0.5714	n/a	No	2.82	n/a	n/a	NoResponse	-1	n/a	n/a	3	27	Blank	Loss	True
267.657	0.3	Lose2	0.5714	0.002	No	2.82	-0.002	2.0	NoResponse	-1	0.229	n/a	3	27	ButtonPress	Loss	True
268.128	1.45	Lose2	0.5714	n/a	No	2.82	n/a	5.0	NoResponse	-1	0.038	267.166	3	27	Feedback	Loss	True
269.578	2.82	Lose2	0.5714	n/a	No	2.82	n/a	n/a	NoResponse	-1	0.0	n/a	3	27	ISIslide	Loss	True
272.427	0.25	Control	0.5517	0.0	No	2.823	0.027	n/a	NoResponse	0	n/a	n/a	3	28	Cue	Neutral	False
272.676	4.05	Control	0.5517	0.001	No	2.823	-0.001	n/a	NoResponse	0	n/a	n/a	3	28	Fixation	Neutral	False
276.725	0.2	Control	0.5517	0.002	No	2.823	-0.002	n/a	NoResponse	0	n/a	n/a	3	28	Target	Neutral	False
276.925	0.5	Control	0.5517	n/a	No	2.823	n/a	n/a	NoResponse	0	n/a	n/a	3	28	Blank	Neutral	False
277.425	1.45	Control	0.5517	n/a	No	2.823	n/a	5.0	NoResponse	0	0.009	276.434	3	28	Feedback	Neutral	False
278.874	2.823	Control	0.5517	n/a	No	2.823	n/a	n/a	NoResponse	0	0.0	n/a	3	28	ISIslide	Neutral	False
281.723	0.25	Lose2	0.5333	0.0	No	2.827	0.023	n/a	NoResponse	-1	n/a	n/a	2	29	Cue	Loss	True
281.973	3.95	Lose2	0.5333	0.0	No	2.827	0.0	n/a	NoResponse	-1	n/a	n/a	2	29	Fixation	Loss	True
285.922	0.21	Lose2	0.5333	0.001	No	2.827	-0.001	2.0	NoResponse	-1	0.223	285.145	2	29	Target	Loss	True
286.138	0.49	Lose2	0.5333	n/a	No	2.827	n/a	n/a	NoResponse	-1	n/a	n/a	2	29	Blank	Loss	True
286.145	0.3	Lose2	0.5333	0.001	No	2.827	-0.001	2.0	NoResponse	-1	0.223	n/a	2	29	ButtonPress	Loss	True
286.621	1.45	Lose2	0.5333	n/a	No	2.827	n/a	5.0	NoResponse	-1	0.032	285.653	2	29	Feedback	Loss	True
288.071	2.827	Lose2	0.5333	n/a	No	2.827	n/a	n/a	NoResponse	-1	0.0	n/a	2	29	ISIslide	Loss	True
290.92	0.25	Win2	0.5484	0.0	Yes	2.78	0.02	n/a	GoodResponse	1	n/a	n/a	3	30	Cue	Win	True
291.17	3.9	Win2	0.5484	0.0	Yes	2.78	0.0	n/a	GoodResponse	1	n/a	n/a	3	30	Fixation	Win	True
295.068	0.22	Win2	0.5484	0.002	Yes	2.78	-0.002	2.0	GoodResponse	1	0.169	294.237	3	30	Target	Win	True
295.237	0.3	Win2	0.5484	0.002	Yes	2.78	-0.002	2.0	GoodResponse	1	0.169	n/a	3	30	ButtonPress	Win	True
295.302	0.48	Win2	0.5484	n/a	Yes	2.78	n/a	n/a	GoodResponse	1	n/a	n/a	3	30	Blank	Win	True
295.768	1.45	Win2	0.5484	n/a	Yes	2.78	n/a	5.0	GoodResponse	1	0.007	294.775	3	30	Feedback	Win	True
297.218	2.78	Win2	0.5484	n/a	Yes	2.78	n/a	n/a	GoodResponse	1	0.0	n/a	3	30	ISIslide	Win	True
300.017	0.25	Lose2	0.5625	0.0	Yes	2.833	0.017	n/a	GoodResponse	0	n/a	n/a	3	31	Cue	AvoidedLoss	True
300.267	4.05	Lose2	0.5625	0.0	Yes	2.833	0.0	n/a	GoodResponse	0	n/a	n/a	3	31	Fixation	AvoidedLoss	True
304.315	0.23	Lose2	0.5625	0.002	Yes	2.833	-0.002	2.0	GoodResponse	0	0.219	303.534	3	31	Target	AvoidedLoss	True
304.534	0.3	Lose2	0.5625	0.002	Yes	2.833	-0.002	2.0	GoodResponse	0	0.219	n/a	3	31	ButtonPress	AvoidedLoss	True
304.548	0.47	Lose2	0.5625	n/a	Yes	2.833	n/a	n/a	GoodResponse	0	n/a	n/a	3	31	Blank	AvoidedLoss	True
305.015	1.45	Lose2	0.5625	n/a	Yes	2.833	n/a	5.0	GoodResponse	0	0.029	304.044	3	31	Feedback	AvoidedLoss	True
306.464	2.833	Lose2	0.5625	n/a	Yes	2.833	n/a	n/a	GoodResponse	0	0.0	n/a	3	31	ISIslide	AvoidedLoss	True
309.313	0.25	Lose2	0.5758	0.001	Yes	2.637	0.013	n/a	GoodResponse	0	n/a	n/a	3	32	Cue	AvoidedLoss	True
309.563	4.15	Lose2	0.5758	0.0	Yes	2.637	0.0	n/a	GoodResponse	0	n/a	n/a	3	32	Fixation	AvoidedLoss	True
313.712	0.24	Lose2	0.5758	0.001	Yes	2.637	-0.001	2.0	GoodResponse	0	0.199	312.911	3	32	Target	AvoidedLoss	True
313.911	0.3	Lose2	0.5758	0.001	Yes	2.637	-0.001	2.0	GoodResponse	0	0.199	n/a	3	32	ButtonPress	AvoidedLoss	True
313.962	0.46	Lose2	0.5758	n/a	Yes	2.637	n/a	n/a	GoodResponse	0	n/a	n/a	3	32	Blank	AvoidedLoss	True
314.412	1.45	Lose2	0.5758	n/a	Yes	2.637	n/a	5.0	GoodResponse	0	0.046	313.458	3	32	Feedback	AvoidedLoss	True
315.861	2.637	Lose2	0.5758	n/a	Yes	2.637	n/a	n/a	GoodResponse	0	0.0	n/a	3	32	ISIslide	AvoidedLoss	True
318.527	0.25	Win2	0.5882000000000001	0.0	Yes	2.673	0.027	n/a	GoodResponse	1	n/a	n/a	4	33	Cue	Win	True
318.777	4.0	Win2	0.5882000000000001	0.0	Yes	2.673	0.0	n/a	GoodResponse	1	n/a	n/a	4	33	Fixation	Win	True
322.775	0.25	Win2	0.5882000000000001	0.002	Yes	2.673	-0.002	2.0	GoodResponse	1	0.213	321.988	4	33	Target	Win	True
322.988	0.3	Win2	0.5882000000000001	0.002	Yes	2.673	-0.002	2.0	GoodResponse	1	0.213	n/a	4	33	ButtonPress	Win	True
323.025	0.45	Win2	0.5882000000000001	n/a	Yes	2.673	n/a	n/a	GoodResponse	1	n/a	n/a	4	33	Blank	Win	True
323.475	1.45	Win2	0.5882000000000001	n/a	Yes	2.673	n/a	5.0	GoodResponse	1	0.007	322.482	4	33	Feedback	Win	True
324.925	2.673	Win2	0.5882000000000001	n/a	Yes	2.673	n/a	n/a	GoodResponse	1	0.0	n/a	4	33	ISIslide	Win	True
327.624	0.25	Lose2	0.6	0.0	Yes	2.626	0.024	n/a	GoodResponse	0	n/a	n/a	4	34	Cue	AvoidedLoss	True
327.873	4.05	Lose2	0.6	0.001	Yes	2.626	-0.001	n/a	GoodResponse	0	n/a	n/a	4	34	Fixation	AvoidedLoss	True
331.922	0.26	Lose2	0.6	0.002	Yes	2.626	-0.002	2.0	GoodResponse	0	0.202	331.124	4	34	Target	AvoidedLoss	True
332.124	0.3	Lose2	0.6	0.002	Yes	2.626	-0.002	2.0	GoodResponse	0	0.202	n/a	4	34	ButtonPress	AvoidedLoss	True
332.189	0.44	Lose2	0.6	n/a	Yes	2.626	n/a	n/a	GoodResponse	0	n/a	n/a	4	34	Blank	AvoidedLoss	True
332.622	1.45	Lose2	0.6	n/a	Yes	2.626	n/a	5.0	GoodResponse	0	0.031	331.653	4	34	Feedback	AvoidedLoss	True
334.071	2.626	Lose2	0.6	n/a	Yes	2.626	n/a	n/a	GoodResponse	0	0.0	n/a	4	34	ISIslide	AvoidedLoss	True
336.72	0.25	Lose2	0.5832999999999999	0.0	No	2.68	0.02	n/a	NoResponse	-1	n/a	n/a	3	35	Cue	Loss	False
336.97	4.0	Lose2	0.5832999999999999	0.0	No	2.68	0.0	n/a	NoResponse	-1	n/a	n/a	3	35	Fixation	Loss	False
340.969	0.27	Lose2	0.5832999999999999	0.001	No	2.68	-0.001	n/a	NoResponse	-1	n/a	n/a	3	35	Target	Loss	False
341.235	0.43	Lose2	0.5832999999999999	n/a	No	2.68	n/a	n/a	NoResponse	-1	n/a	n/a	3	35	Blank	Loss	False
341.669	1.45	Lose2	0.5832999999999999	n/a	No	2.68	n/a	5.0	NoResponse	-1	0.009	340.678	3	35	Feedback	Loss	False
343.118	2.68	Lose2	0.5832999999999999	n/a	No	2.68	n/a	n/a	NoResponse	-1	0.0	n/a	3	35	ISIslide	Loss	False
345.817	0.25	Control	0.5676	0.0	No	2.683	0.017	n/a	NoResponse	0	n/a	n/a	3	36	Cue	Neutral	False
346.067	4.0	Control	0.5676	0.0	No	2.683	0.0	n/a	NoResponse	0	n/a	n/a	3	36	Fixation	Neutral	False
350.066	0.28	Control	0.5676	0.001	No	2.683	-0.001	n/a	NoResponse	0	n/a	n/a	3	36	Target	Neutral	False
350.349	0.42	Control	0.5676	n/a	No	2.683	n/a	n/a	NoResponse	0	n/a	n/a	3	36	Blank	Neutral	False
350.765	1.45	Control	0.5676	n/a	No	2.683	n/a	5.0	NoResponse	0	0.034	349.799	3	36	Feedback	Neutral	False
352.215	2.683	Control	0.5676	n/a	No	2.683	n/a	n/a	NoResponse	0	0.0	n/a	3	36	ISIslide	Neutral	False
354.914	0.25	Win2	0.5789	0.0	Yes	2.886	0.014	n/a	GoodResponse	1	n/a	n/a	4	37	Cue	Win	True
355.164	4.0	Win2	0.5789	0.0	Yes	2.886	0.0	n/a	GoodResponse	1	n/a	n/a	4	37	Fixation	Win	True
359.162	0.29	Win2	0.5789	0.002	Yes	2.886	-0.002	2.0	GoodResponse	1	0.196	358.358	4	37	Target	Win	True
359.358	0.3	Win2	0.5789	0.002	Yes	2.886	-0.002	2.0	GoodResponse	1	0.196	n/a	4	37	ButtonPress	Win	True
359.462	0.41	Win2	0.5789	n/a	Yes	2.886	n/a	n/a	GoodResponse	1	n/a	n/a	4	37	Blank	Win	True
359.862	1.45	Win2	0.5789	n/a	Yes	2.886	n/a	5.0	GoodResponse	1	0.01	358.872	4	37	Feedback	Win	True
361.312	2.886	Win2	0.5789	n/a	Yes	2.886	n/a	n/a	GoodResponse	1	0.0	n/a	4	37	ISIslide	Win	True
364.227	0.25	Lose2	0.5897	0.0	Yes	2.823	0.027	n/a	GoodResponse	0	n/a	n/a	4	38	Cue	AvoidedLoss	True
364.477	3.95	Lose2	0.5897	0.0	Yes	2.823	0.0	n/a	GoodResponse	0	n/a	n/a	4	38	Fixation	AvoidedLoss	True
368.426	0.3	Lose2	0.5897	0.001	Yes	2.823	-0.001	2.0	GoodResponse	0	0.202	367.628	4	38	Target	AvoidedLoss	True
368.628	0.3	Lose2	0.5897	0.001	Yes	2.823	-0.001	2.0	GoodResponse	0	0.202	n/a	4	38	ButtonPress	AvoidedLoss	True
368.726	0.4	Lose2	0.5897	n/a	Yes	2.823	n/a	n/a	GoodResponse	0	n/a	n/a	4	38	Blank	AvoidedLoss	True
369.125	1.45	Lose2	0.5897	n/a	Yes	2.823	n/a	5.0	GoodResponse	0	0.015	368.14	4	38	Feedback	AvoidedLoss	True
370.575	2.823	Lose2	0.5897	n/a	Yes	2.823	n/a	n/a	GoodResponse	0	0.0	n/a	4	38	ISIslide	AvoidedLoss	True
373.424	0.25	Win2	0.6	0.0	Yes	2.976	0.024	n/a	GoodResponse	1	n/a	n/a	5	39	Cue	Win	True
373.674	4.1	Win2	0.6	0.0	Yes	2.976	0.0	n/a	GoodResponse	1	n/a	n/a	5	39	Fixation	Win	True
377.772	0.31	Win2	0.6	0.002	Yes	2.976	-0.002	2.0	GoodResponse	1	0.199	376.971	5	39	Target	Win	True
377.971	0.3	Win2	0.6	0.002	Yes	2.976	-0.002	2.0	GoodResponse	1	0.199	n/a	5	39	ButtonPress	Win	True
378.089	0.39	Win2	0.6	n/a	Yes	2.976	n/a	n/a	GoodResponse	1	n/a	n/a	5	39	Blank	Win	True
378.472	1.45	Win2	0.6	n/a	Yes	2.976	n/a	5.0	GoodResponse	1	0.034	377.506	5	39	Feedback	Win	True
379.922	2.976	Win2	0.6	n/a	Yes	2.976	n/a	n/a	GoodResponse	1	0.0	n/a	5	39	ISIslide	Win	True
382.921	0.25	Win2	0.6098	0.0	Yes	2.729	0.021	n/a	GoodResponse	1	n/a	n/a	6	40	Cue	Win	True
383.17	3.95	Win2	0.6098	0.001	Yes	2.729	-0.001	n/a	GoodResponse	1	n/a	n/a	6	40	Fixation	Win	True
387.119	0.32	Win2	0.6098	0.002	Yes	2.729	-0.002	2.0	GoodResponse	1	0.21	386.329	6	40	Target	Win	True
387.329	0.3	Win2	0.6098	0.002	Yes	2.729	-0.002	2.0	GoodResponse	1	0.21	n/a	6	40	ButtonPress	Win	True
387.452	0.38	Win2	0.6098	n/a	Yes	2.729	n/a	n/a	GoodResponse	1	n/a	n/a	6	40	Blank	Win	True
387.819	1.45	Win2	0.6098	n/a	Yes	2.729	n/a	5.0	GoodResponse	1	0.007	386.826	6	40	Feedback	Win	True
389.268	2.729	Win2	0.6098	n/a	Yes	2.729	n/a	n/a	GoodResponse	1	0.0	n/a	6	40	ISIslide	Win	True
392.017	0.25	Win2	0.619	0.0	Yes	2.783	0.017	n/a	GoodResponse	1	n/a	n/a	7	41	Cue	Win	True
392.267	3.9	Win2	0.619	0.0	Yes	2.783	0.0	n/a	GoodResponse	1	n/a	n/a	7	41	Fixation	Win	True
396.166	0.33	Win2	0.619	0.001	Yes	2.783	-0.001	2.0	GoodResponse	1	0.22	395.386	7	41	Target	Win	True
396.386	0.3	Win2	0.619	0.001	Yes	2.783	-0.001	2.0	GoodResponse	1	0.22	n/a	7	41	ButtonPress	Win	True
396.499	0.37	Win2	0.619	n/a	Yes	2.783	n/a	n/a	GoodResponse	1	n/a	n/a	7	41	Blank	Win	True
396.866	1.45	Win2	0.619	n/a	Yes	2.783	n/a	5.0	GoodResponse	1	0.03	395.896	7	41	Feedback	Win	True
398.315	2.783	Win2	0.619	n/a	Yes	2.783	n/a	n/a	GoodResponse	1	0.0	n/a	7	41	ISIslide	Win	True
401.114	0.25	Control	0.6047	0.0	No	2.936	0.014	n/a	NoResponse	0	n/a	n/a	7	42	Cue	Neutral	False
401.364	3.85	Control	0.6047	0.0	No	2.936	0.0	n/a	NoResponse	0	n/a	n/a	7	42	Fixation	Neutral	False
405.213	0.34	Control	0.6047	0.001	No	2.936	-0.001	n/a	NoResponse	0	n/a	n/a	7	42	Target	Neutral	False
405.563	0.36	Control	0.6047	n/a	No	2.936	n/a	n/a	NoResponse	0	n/a	n/a	7	42	Blank	Neutral	False
405.912	1.45	Control	0.6047	n/a	No	2.936	n/a	5.0	NoResponse	0	0.008	404.92	7	42	Feedback	Neutral	False
407.362	2.936	Control	0.6047	n/a	No	2.936	n/a	n/a	NoResponse	0	0.0	n/a	7	42	ISIslide	Neutral	False
410.327	0.25	Win2	0.6136	0.001	Yes	3.173	0.027	n/a	GoodResponse	1	n/a	n/a	8	43	Cue	Win	True
410.577	4.0	Win2	0.6136	0.001	Yes	3.173	0.0	n/a	GoodResponse	1	n/a	n/a	8	43	Fixation	Win	True
414.576	0.35	Win2	0.6136	0.001	Yes	3.173	-0.001	2.0	GoodResponse	1	0.191	413.767	8	43	Target	Win	True
414.767	0.3	Win2	0.6136	0.001	Yes	3.173	-0.001	2.0	GoodResponse	1	0.191	n/a	8	43	ButtonPress	Win	True
414.926	0.35	Win2	0.6136	n/a	Yes	3.173	n/a	n/a	GoodResponse	1	n/a	n/a	8	43	Blank	Win	True
415.276	1.45	Win2	0.6136	n/a	Yes	3.173	n/a	5.0	GoodResponse	1	0.01	414.286	8	43	Feedback	Win	True
416.725	3.173	Win2	0.6136	n/a	Yes	3.173	n/a	n/a	GoodResponse	1	0.0	n/a	8	43	ISIslide	Win	True
419.924	0.25	Win2	0.6222	0.0	Yes	2.976	0.024	n/a	GoodResponse	1	n/a	n/a	9	44	Cue	Win	True
420.174	4.0	Win2	0.6222	0.0	Yes	2.976	0.0	n/a	GoodResponse	1	n/a	n/a	9	44	Fixation	Win	True
424.173	0.36	Win2	0.6222	0.001	Yes	2.976	-0.001	2.0	GoodResponse	1	0.263	423.436	9	44	Target	Win	True
424.436	0.3	Win2	0.6222	0.001	Yes	2.976	-0.001	2.0	GoodResponse	1	0.263	n/a	9	44	ButtonPress	Win	True
424.539	0.34	Win2	0.6222	n/a	Yes	2.976	n/a	n/a	GoodResponse	1	n/a	n/a	9	44	Blank	Win	True
424.872	1.45	Win2	0.6222	n/a	Yes	2.976	n/a	5.0	GoodResponse	1	0.023	423.895	9	44	Feedback	Win	True
426.322	2.976	Win2	0.6222	n/a	Yes	2.976	n/a	n/a	GoodResponse	1	0.0	n/a	9	44	ISIslide	Win	True
429.321	0.25	Control	0.6087	0.0	No	2.879	0.021	n/a	NoResponse	0	n/a	n/a	9	45	Cue	Neutral	False
429.571	4.1	Control	0.6087	0.0	No	2.879	0.0	n/a	NoResponse	0	n/a	n/a	9	45	Fixation	Neutral	False
433.669	0.37	Control	0.6087	0.002	No	2.879	-0.002	n/a	NoResponse	0	n/a	n/a	9	45	Target	Neutral	False
434.052	0.33	Control	0.6087	n/a	No	2.879	n/a	n/a	NoResponse	0	n/a	n/a	9	45	Blank	Neutral	False
434.369	1.45	Control	0.6087	n/a	No	2.879	n/a	5.0	NoResponse	0	0.038	433.407	9	45	Feedback	Neutral	False
435.818	2.879	Control	0.6087	n/a	No	2.879	n/a	n/a	NoResponse	0	0.0	n/a	9	45	ISIslide	Neutral	False
438.717	0.25	Lose2	0.617	0.0	Yes	3.383	0.017	n/a	GoodResponse	0	n/a	n/a	9	46	Cue	AvoidedLoss	True
438.967	4.0	Lose2	0.617	0.0	Yes	3.383	0.0	n/a	GoodResponse	0	n/a	n/a	9	46	Fixation	AvoidedLoss	True
442.966	0.38	Lose2	0.617	0.001	Yes	3.383	-0.001	2.0	GoodResponse	0	0.279	442.245	9	46	Target	AvoidedLoss	True
443.245	0.3	Lose2	0.617	0.001	Yes	3.383	-0.001	2.0	GoodResponse	0	0.279	n/a	9	46	ButtonPress	AvoidedLoss	True
443.349	0.32	Lose2	0.617	n/a	Yes	3.383	n/a	n/a	GoodResponse	0	n/a	n/a	9	46	Blank	AvoidedLoss	True
443.666	1.45	Lose2	0.617	n/a	Yes	3.383	n/a	5.0	GoodResponse	0	0.01	442.676	9	46	Feedback	AvoidedLoss	True
445.115	3.383	Lose2	0.617	n/a	Yes	3.383	n/a	n/a	GoodResponse	0	0.0	n/a	9	46	ISIslide	AvoidedLoss	True
448.531	0.25	Lose2	0.625	0.0	Yes	2.669	0.031	n/a	GoodResponse	0	n/a	n/a	9	47	Cue	AvoidedLoss	True
448.78	4.0	Lose2	0.625	0.001	Yes	2.669	-0.001	n/a	GoodResponse	0	n/a	n/a	9	47	Fixation	AvoidedLoss	True
452.779	0.39	Lose2	0.625	0.002	Yes	2.669	-0.002	2.0	GoodResponse	0	0.219	451.998	9	47	Target	AvoidedLoss	True
452.998	0.3	Lose2	0.625	0.002	Yes	2.669	-0.002	2.0	GoodResponse	0	0.219	n/a	9	47	ButtonPress	AvoidedLoss	True
453.179	0.31	Lose2	0.625	n/a	Yes	2.669	n/a	n/a	GoodResponse	0	n/a	n/a	9	47	Blank	AvoidedLoss	True
453.479	1.45	Lose2	0.625	n/a	Yes	2.669	n/a	5.0	GoodResponse	0	0.002	452.481	9	47	Feedback	AvoidedLoss	True
454.928	2.669	Lose2	0.625	n/a	Yes	2.669	n/a	n/a	GoodResponse	0	0.0	n/a	9	47	ISIslide	AvoidedLoss	True
457.627	0.25	Lose2	0.6327	0.0	Yes	3.023	0.027	n/a	GoodResponse	0	n/a	n/a	9	48	Cue	AvoidedLoss	True
457.877	3.95	Lose2	0.6327	0.0	Yes	3.023	0.0	n/a	GoodResponse	0	n/a	n/a	9	48	Fixation	AvoidedLoss	True
461.826	0.4	Lose2	0.6327	0.001	Yes	3.023	-0.001	2.0	GoodResponse	0	0.189	461.015	9	48	Target	AvoidedLoss	True
462.015	0.3	Lose2	0.6327	0.001	Yes	3.023	-0.001	2.0	GoodResponse	0	0.189	n/a	9	48	ButtonPress	AvoidedLoss	True
462.226	0.3	Lose2	0.6327	n/a	Yes	3.023	n/a	n/a	GoodResponse	0	n/a	n/a	9	48	Blank	AvoidedLoss	True
462.526	1.45	Lose2	0.6327	n/a	Yes	3.023	n/a	5.0	GoodResponse	0	0.027	461.553	9	48	Feedback	AvoidedLoss	True
463.975	3.023	Lose2	0.6327	n/a	Yes	3.023	n/a	n/a	GoodResponse	0	0.0	n/a	9	48	ISIslide	AvoidedLoss	True
467.024	0.25	Control	0.62	0.0	No	2.876	0.024	n/a	NoResponse	0	n/a	n/a	9	49	Cue	Neutral	False
467.274	4.0	Control	0.62	0.0	No	2.876	0.0	n/a	NoResponse	0	n/a	n/a	9	49	Fixation	Neutral	False
471.272	0.41	Control	0.62	0.002	No	2.876	-0.002	n/a	NoResponse	0	n/a	n/a	9	49	Target	Neutral	False
471.689	0.29	Control	0.62	n/a	No	2.876	n/a	n/a	NoResponse	0	n/a	n/a	9	49	Blank	Neutral	False
471.972	1.45	Control	0.62	n/a	No	2.876	n/a	5.0	NoResponse	0	0.045	471.017	9	49	Feedback	Neutral	False
473.422	2.876	Control	0.62	n/a	No	2.876	n/a	n/a	NoResponse	0	0.0	n/a	9	49	ISIslide	Neutral	False
476.321	0.25	Control	0.6078	0.0	No	2.779	0.021	n/a	NoResponse	0	n/a	n/a	9	50	Cue	Neutral	False
476.571	4.0	Control	0.6078	0.0	No	2.779	0.0	n/a	NoResponse	0	n/a	n/a	9	50	Fixation	Neutral	False
480.569	0.42	Control	0.6078	0.002	No	2.779	-0.002	n/a	NoResponse	0	n/a	n/a	9	50	Target	Neutral	False
481.002	0.28	Control	0.6078	n/a	No	2.779	n/a	n/a	NoResponse	0	n/a	n/a	9	50	Blank	Neutral	False
481.269	1.45	Control	0.6078	n/a	No	2.779	n/a	5.0	NoResponse	0	0.016	480.285	9	50	Feedback	Neutral	False
482.718	2.779	Control	0.6078	n/a	No	2.779	n/a	n/a	NoResponse	0	0.0	n/a	9	50	ISIslide	Neutral	False
485.517	0.25	Control	0.5962	0.0	No	2.733	0.017	n/a	NoResponse	0	n/a	n/a	9	51	Cue	Neutral	False
485.767	3.95	Control	0.5962	0.0	No	2.733	0.0	n/a	NoResponse	0	n/a	n/a	9	51	Fixation	Neutral	False
489.716	0.43	Control	0.5962	0.001	No	2.733	-0.001	n/a	NoResponse	0	n/a	n/a	9	51	Target	Neutral	False
490.149	0.27	Control	0.5962	n/a	No	2.733	n/a	n/a	NoResponse	0	n/a	n/a	9	51	Blank	Neutral	False
490.416	1.45	Control	0.5962	n/a	No	2.733	n/a	5.0	NoResponse	0	0.04	489.456	9	51	Feedback	Neutral	False
491.865	2.733	Control	0.5962	n/a	No	2.733	n/a	n/a	NoResponse	0	0.0	n/a	9	51	ISIslide	Neutral	False
494.631	0.25	Control	0.5849	0.0	No	2.619	0.031	n/a	NoResponse	0	n/a	n/a	9	52	Cue	Neutral	False
494.881	4.05	Control	0.5849	0.0	No	2.619	0.0	n/a	NoResponse	0	n/a	n/a	9	52	Fixation	Neutral	False
498.929	0.44	Control	0.5849	0.002	No	2.619	-0.002	n/a	NoResponse	0	n/a	n/a	9	52	Target	Neutral	False
499.379	0.26	Control	0.5849	n/a	No	2.619	n/a	n/a	NoResponse	0	n/a	n/a	9	52	Blank	Neutral	False
499.629	1.45	Control	0.5849	n/a	No	2.619	n/a	5.0	NoResponse	0	0.045	498.674	9	52	Feedback	Neutral	False
501.079	2.619	Control	0.5849	n/a	No	2.619	n/a	n/a	NoResponse	0	0.0	n/a	9	52	ISIslide	Neutral	False
503.728	0.25	Win2	0.5926	0.0	Yes	2.922	0.028	n/a	GoodResponse	1	n/a	n/a	10	53	Cue	Win	True
503.978	4.05	Win2	0.5926	0.0	Yes	2.922	0.0	n/a	GoodResponse	1	n/a	n/a	10	53	Fixation	Win	True
508.026	0.45	Win2	0.5926	0.002	Yes	2.922	-0.002	2.0	GoodResponse	1	0.215	507.241	10	53	Target	Win	True
508.241	0.3	Win2	0.5926	0.002	Yes	2.922	-0.002	2.0	GoodResponse	1	0.215	n/a	10	53	ButtonPress	Win	True
508.509	0.25	Win2	0.5926	n/a	Yes	2.922	n/a	n/a	GoodResponse	1	n/a	n/a	10	53	Blank	Win	True
508.726	1.45	Win2	0.5926	n/a	Yes	2.922	n/a	5.0	GoodResponse	1	0.022	507.748	10	53	Feedback	Win	True
510.175	2.922	Win2	0.5926	n/a	Yes	2.922	n/a	n/a	GoodResponse	1	0.0	n/a	10	53	ISIslide	Win	True
513.124	0.25	Win2	0.6	0.0	Yes	2.726	0.024	n/a	GoodResponse	1	n/a	n/a	11	54	Cue	Win	True
513.374	3.95	Win2	0.6	0.0	Yes	2.726	0.0	n/a	GoodResponse	1	n/a	n/a	11	54	Fixation	Win	True
517.323	0.46	Win2	0.6	0.001	Yes	2.726	-0.001	2.0	GoodResponse	1	0.222	516.545	11	54	Target	Win	True
517.545	0.3	Win2	0.6	0.001	Yes	2.726	-0.001	2.0	GoodResponse	1	0.222	n/a	11	54	ButtonPress	Win	True
517.789	0.24	Win2	0.6	n/a	Yes	2.726	n/a	n/a	GoodResponse	1	n/a	n/a	11	54	Blank	Win	True
518.023	1.45	Win2	0.6	n/a	Yes	2.726	n/a	5.0	GoodResponse	1	0.042	517.065	11	54	Feedback	Win	True
519.472	2.726	Win2	0.6	n/a	Yes	2.726	n/a	n/a	GoodResponse	1	0.0	n/a	11	54	ISIslide	Win	True
522.221	0.25	Control	0.5893	0.0	No	3.029	0.021	n/a	NoResponse	0	n/a	n/a	11	55	Cue	Neutral	False
522.471	3.95	Control	0.5893	0.0	No	3.029	0.0	n/a	NoResponse	0	n/a	n/a	11	55	Fixation	Neutral	False
526.42	0.47	Control	0.5893	0.001	No	3.029	-0.001	n/a	NoResponse	0	n/a	n/a	11	55	Target	Neutral	False
526.903	0.23	Control	0.5893	n/a	No	3.029	n/a	n/a	NoResponse	0	n/a	n/a	11	55	Blank	Neutral	False
527.119	1.45	Control	0.5893	n/a	No	3.029	n/a	5.0	NoResponse	0	0.019	526.138	11	55	Feedback	Neutral	False
528.569	3.029	Control	0.5893	n/a	No	3.029	n/a	n/a	NoResponse	0	0.0	n/a	11	55	ISIslide	Neutral	False
531.618	0.25	Control	0.5789	0.0	No	2.832	0.018	n/a	NoResponse	0	n/a	n/a	11	56	Cue	Neutral	False
531.868	3.95	Control	0.5789	0.0	No	2.832	0.0	n/a	NoResponse	0	n/a	n/a	11	56	Fixation	Neutral	False
535.816	0.48	Control	0.5789	0.002	No	2.832	-0.002	n/a	NoResponse	0	n/a	n/a	11	56	Target	Neutral	False
536.299	0.22	Control	0.5789	n/a	No	2.832	n/a	n/a	NoResponse	0	n/a	n/a	11	56	Blank	Neutral	False
536.516	1.45	Control	0.5789	n/a	No	2.832	n/a	5.0	NoResponse	0	0.036	535.552	11	56	Feedback	Neutral	False
537.965	2.832	Control	0.5789	n/a	No	2.832	n/a	n/a	NoResponse	0	0.0	n/a	11	56	ISIslide	Neutral	False
540.814	0.25	Control	0.569	0.0	No	3.486	0.014	n/a	NoResponse	0	n/a	n/a	11	57	Cue	Neutral	False
541.064	4.0	Control	0.569	0.0	No	3.486	0.0	n/a	NoResponse	0	n/a	n/a	11	57	Fixation	Neutral	False
545.063	0.49	Control	0.569	0.001	No	3.486	-0.001	n/a	NoResponse	0	n/a	n/a	11	57	Target	Neutral	False
545.563	0.21	Control	0.569	n/a	No	3.486	n/a	n/a	NoResponse	0	n/a	n/a	11	57	Blank	Neutral	False
545.763	1.45	Control	0.569	n/a	No	3.486	n/a	5.0	NoResponse	0	0.009	544.772	11	57	Feedback	Neutral	False
547.212	3.486	Control	0.569	n/a	No	3.486	n/a	n/a	NoResponse	0	0.0	n/a	11	57	ISIslide	Neutral	False
550.728	0.25	Win2	0.5763	0.0	Yes	2.722	0.028	n/a	GoodResponse	1	n/a	n/a	12	58	Cue	Win	True
550.977	4.05	Win2	0.5763	0.001	Yes	2.722	-0.001	n/a	GoodResponse	1	n/a	n/a	12	58	Fixation	Win	True
555.026	0.5	Win2	0.5763	0.002	Yes	2.722	-0.002	2.0	GoodResponse	1	0.216	554.242	12	58	Target	Win	True
555.242	0.3	Win2	0.5763	0.002	Yes	2.722	-0.002	2.0	GoodResponse	1	0.216	n/a	12	58	ButtonPress	Win	True
555.526	0.2	Win2	0.5763	n/a	Yes	2.722	n/a	n/a	GoodResponse	1	n/a	n/a	12	58	Blank	Win	True
555.726	1.45	Win2	0.5763	n/a	Yes	2.722	n/a	5.0	GoodResponse	1	0.046	554.772	12	58	Feedback	Win	True
557.175	2.722	Win2	0.5763	n/a	Yes	2.722	n/a	n/a	GoodResponse	1	0.0	n/a	12	58	ISIslide	Win	True
559.924	0.25	Lose2	0.5832999999999999	0.0	Yes	2.676	0.024	n/a	GoodResponse	0	n/a	n/a	12	59	Cue	AvoidedLoss	True
560.174	4.0	Lose2	0.5832999999999999	0.001	Yes	2.676	0.0	n/a	GoodResponse	0	n/a	n/a	12	59	Fixation	AvoidedLoss	True
564.173	0.5	Lose2	0.5832999999999999	0.001	Yes	2.676	-0.001	2.0	GoodResponse	0	0.226	563.399	12	59	Target	AvoidedLoss	True
564.399	0.3	Lose2	0.5832999999999999	0.001	Yes	2.676	-0.001	2.0	GoodResponse	0	0.226	n/a	12	59	ButtonPress	AvoidedLoss	True
564.673	0.2	Lose2	0.5832999999999999	n/a	Yes	2.676	n/a	n/a	GoodResponse	0	n/a	n/a	12	59	Blank	AvoidedLoss	True
564.873	1.45	Lose2	0.5832999999999999	n/a	Yes	2.676	n/a	5.0	GoodResponse	0	0.021	563.894	12	59	Feedback	AvoidedLoss	True
566.322	2.676	Lose2	0.5832999999999999	n/a	Yes	2.676	n/a	n/a	GoodResponse	0	0.0	n/a	12	59	ISIslide	AvoidedLoss	True
569.021	0.25	Control	0.5738	0.0	No	2.679	0.021	n/a	NoResponse	0	n/a	n/a	12	60	Cue	Neutral	False
569.271	4.0	Control	0.5738	0.0	No	2.679	0.0	n/a	NoResponse	0	n/a	n/a	12	60	Fixation	Neutral	False
573.27	0.5	Control	0.5738	0.001	No	2.679	-0.001	n/a	NoResponse	0	n/a	n/a	12	60	Target	Neutral	False
573.769	0.2	Control	0.5738	n/a	No	2.679	n/a	n/a	NoResponse	0	n/a	n/a	12	60	Blank	Neutral	False
573.969	1.45	Control	0.5738	n/a	No	2.679	n/a	5.0	NoResponse	0	0.046	573.015	12	60	Feedback	Neutral	False
575.419	2.679	Control	0.5738	n/a	No	2.679	n/a	n/a	NoResponse	0	0.0	n/a	12	60	ISIslide	Neutral	False
578.118	0.25	Lose2	0.5806	0.0	Yes	2.982	0.018	n/a	GoodResponse	0	n/a	n/a	12	61	Cue	AvoidedLoss	True
578.368	4.0	Lose2	0.5806	0.0	Yes	2.982	0.0	n/a	GoodResponse	0	n/a	n/a	12	61	Fixation	AvoidedLoss	True
582.366	0.5	Lose2	0.5806	0.002	Yes	2.982	-0.002	2.0	GoodResponse	0	0.225	581.591	12	61	Target	AvoidedLoss	True
582.591	0.3	Lose2	0.5806	0.002	Yes	2.982	-0.002	2.0	GoodResponse	0	0.225	n/a	12	61	ButtonPress	AvoidedLoss	True
582.866	0.2	Lose2	0.5806	n/a	Yes	2.982	n/a	n/a	GoodResponse	0	n/a	n/a	12	61	Blank	AvoidedLoss	True
583.066	1.45	Lose2	0.5806	n/a	Yes	2.982	n/a	5.0	GoodResponse	0	0.022	582.088	12	61	Feedback	AvoidedLoss	True
584.516	2.982	Lose2	0.5806	n/a	Yes	2.982	n/a	n/a	GoodResponse	0	0.0	n/a	12	61	ISIslide	AvoidedLoss	True
587.514	0.25	Lose2	0.5872999999999999	0.001	Yes	2.886	0.014	n/a	GoodResponse	0	n/a	n/a	12	62	Cue	AvoidedLoss	True
587.764	3.9	Lose2	0.5872999999999999	0.0	Yes	2.886	0.0	n/a	GoodResponse	0	n/a	n/a	12	62	Fixation	AvoidedLoss	True
591.663	0.5	Lose2	0.5872999999999999	0.001	Yes	2.886	-0.001	2.0	GoodResponse	0	0.227	590.89	12	62	Target	AvoidedLoss	True
591.89	0.3	Lose2	0.5872999999999999	0.001	Yes	2.886	-0.001	2.0	GoodResponse	0	0.227	n/a	12	62	ButtonPress	AvoidedLoss	True
592.163	0.2	Lose2	0.5872999999999999	n/a	Yes	2.886	n/a	n/a	GoodResponse	0	n/a	n/a	12	62	Blank	AvoidedLoss	True
592.363	1.45	Lose2	0.5872999999999999	n/a	Yes	2.886	n/a	5.0	GoodResponse	0	0.042	591.405	12	62	Feedback	AvoidedLoss	True
593.812	2.886	Lose2	0.5872999999999999	n/a	Yes	2.886	n/a	n/a	GoodResponse	0	0.0	n/a	12	62	ISIslide	AvoidedLoss	True
596.728	0.25	Lose2	0.5938	0.0	Yes	2.622	0.028	n/a	GoodResponse	0	n/a	n/a	12	63	Cue	AvoidedLoss	True
596.978	4.05	Lose2	0.5938	0.0	Yes	2.622	0.0	n/a	GoodResponse	0	n/a	n/a	12	63	Fixation	AvoidedLoss	True
601.026	0.5	Lose2	0.5938	0.002	Yes	2.622	-0.002	2.0	GoodResponse	0	0.243	600.269	12	63	Target	AvoidedLoss	True
601.269	0.3	Lose2	0.5938	0.002	Yes	2.622	-0.002	2.0	GoodResponse	0	0.243	n/a	12	63	ButtonPress	AvoidedLoss	True
601.526	0.2	Lose2	0.5938	n/a	Yes	2.622	n/a	n/a	GoodResponse	0	n/a	n/a	12	63	Blank	AvoidedLoss	True
601.726	1.45	Lose2	0.5938	n/a	Yes	2.622	n/a	5.0	GoodResponse	0	0.045	600.771	12	63	Feedback	AvoidedLoss	True
603.176	2.622	Lose2	0.5938	n/a	Yes	2.622	n/a	n/a	GoodResponse	0	0.0	n/a	12	63	ISIslide	AvoidedLoss	True
605.825	0.25	Win2	0.6	0.0	Yes	3.125	0.025	n/a	GoodResponse	1	n/a	n/a	13	64	Cue	Win	True
606.075	4.15	Win2	0.6	0.0	Yes	3.125	0.0	n/a	GoodResponse	1	n/a	n/a	13	64	Fixation	Win	True
610.223	0.5	Win2	0.6	0.002	Yes	3.125	-0.002	2.0	GoodResponse	1	0.214	609.437	13	64	Target	Win	True
610.437	0.3	Win2	0.6	0.002	Yes	3.125	-0.002	2.0	GoodResponse	1	0.214	n/a	13	64	ButtonPress	Win	True
610.723	0.2	Win2	0.6	n/a	Yes	3.125	n/a	n/a	GoodResponse	1	n/a	n/a	13	64	Blank	Win	True
610.923	1.45	Win2	0.6	n/a	Yes	3.125	n/a	5.0	GoodResponse	1	0.018	609.941	13	64	Feedback	Win	True
612.372	3.125	Win2	0.6	n/a	Yes	3.125	n/a	n/a	GoodResponse	1	0.0	n/a	13	64	ISIslide	Win	True
615.521	0.25	Control	0.5909	0.0	No	2.779	0.021	n/a	NoResponse	0	n/a	n/a	13	65	Cue	Neutral	False
615.771	4.0	Control	0.5909	0.0	No	2.779	0.0	n/a	NoResponse	0	n/a	n/a	13	65	Fixation	Neutral	False
619.77	0.5	Control	0.5909	0.001	No	2.779	-0.001	n/a	NoResponse	0	n/a	n/a	13	65	Target	Neutral	False
620.269	0.2	Control	0.5909	n/a	No	2.779	n/a	n/a	NoResponse	0	n/a	n/a	13	65	Blank	Neutral	False
620.469	1.45	Control	0.5909	n/a	No	2.779	n/a	5.0	NoResponse	0	0.033	619.502	13	65	Feedback	Neutral	False
621.919	2.779	Control	0.5909	n/a	No	2.779	n/a	n/a	NoResponse	0	0.0	n/a	13	65	ISIslide	Neutral	False
624.718	0.25	Win2	0.597	0.0	Yes	2.782	0.018	n/a	GoodResponse	1	n/a	n/a	14	66	Cue	Win	True
624.968	3.9	Win2	0.597	0.0	Yes	2.782	0.0	n/a	GoodResponse	1	n/a	n/a	14	66	Fixation	Win	True
628.866	0.5	Win2	0.597	0.002	Yes	2.782	-0.002	2.0	GoodResponse	1	0.238	628.104	14	66	Target	Win	True
629.104	0.3	Win2	0.597	0.002	Yes	2.782	-0.002	2.0	GoodResponse	1	0.238	n/a	14	66	ButtonPress	Win	True
629.366	0.2	Win2	0.597	n/a	Yes	2.782	n/a	n/a	GoodResponse	1	n/a	n/a	14	66	Blank	Win	True
629.566	1.45	Win2	0.597	n/a	Yes	2.782	n/a	5.0	GoodResponse	1	0.009	628.575	14	66	Feedback	Win	True
631.016	2.782	Win2	0.597	n/a	Yes	2.782	n/a	n/a	GoodResponse	1	0.0	n/a	14	66	ISIslide	Win	True
633.815	0.25	Control	0.5882000000000001	0.0	No	2.735	0.015	n/a	NoResponse	0	n/a	n/a	14	67	Cue	Neutral	False
634.065	3.95	Control	0.5882000000000001	0.0	No	2.735	0.0	n/a	NoResponse	0	n/a	n/a	14	67	Fixation	Neutral	False
638.013	0.5	Control	0.5882000000000001	0.002	No	2.735	-0.002	n/a	NoResponse	0	n/a	n/a	14	67	Target	Neutral	False
638.513	0.2	Control	0.5882000000000001	n/a	No	2.735	n/a	n/a	NoResponse	0	n/a	n/a	14	67	Blank	Neutral	False
638.713	1.45	Control	0.5882000000000001	n/a	No	2.735	n/a	5.0	NoResponse	0	0.033	637.746	14	67	Feedback	Neutral	False
640.162	2.735	Control	0.5882000000000001	n/a	No	2.735	n/a	n/a	NoResponse	0	0.0	n/a	14	67	ISIslide	Neutral	False
642.928	0.25	Win2	0.5942000000000001	0.0	Yes	3.072	0.028	n/a	GoodResponse	1	n/a	n/a	15	68	Cue	Win	True
643.178	4.0	Win2	0.5942000000000001	0.0	Yes	3.072	0.0	n/a	GoodResponse	1	n/a	n/a	15	68	Fixation	Win	True
647.177	0.5	Win2	0.5942000000000001	0.001	Yes	3.072	-0.001	2.0	GoodResponse	1	0.211	646.388	15	68	Target	Win	True
647.388	0.3	Win2	0.5942000000000001	0.001	Yes	3.072	-0.001	2.0	GoodResponse	1	0.211	n/a	15	68	ButtonPress	Win	True
647.676	0.2	Win2	0.5942000000000001	n/a	Yes	3.072	n/a	n/a	GoodResponse	1	n/a	n/a	15	68	Blank	Win	True
647.876	1.45	Win2	0.5942000000000001	n/a	Yes	3.072	n/a	5.0	GoodResponse	1	0.04	646.916	15	68	Feedback	Win	True
649.326	3.072	Win2	0.5942000000000001	n/a	Yes	3.072	n/a	n/a	GoodResponse	1	0.0	n/a	15	68	ISIslide	Win	True
652.425	0.25	Win2	0.6	0.0	Yes	3.225	0.025	n/a	GoodResponse	1	n/a	n/a	16	69	Cue	Win	True
652.675	3.95	Win2	0.6	0.0	Yes	3.225	0.0	n/a	GoodResponse	1	n/a	n/a	16	69	Fixation	Win	True
656.623	0.5	Win2	0.6	0.002	Yes	3.225	-0.002	2.0	GoodResponse	1	0.221	655.844	16	69	Target	Win	True
656.844	0.3	Win2	0.6	0.002	Yes	3.225	-0.002	2.0	GoodResponse	1	0.221	n/a	16	69	ButtonPress	Win	True
657.123	0.2	Win2	0.6	n/a	Yes	3.225	n/a	n/a	GoodResponse	1	n/a	n/a	16	69	Blank	Win	True
657.323	1.45	Win2	0.6	n/a	Yes	3.225	n/a	5.0	GoodResponse	1	0.008	656.331	16	69	Feedback	Win	True
658.772	3.225	Win2	0.6	n/a	Yes	3.225	n/a	n/a	GoodResponse	1	0.0	n/a	16	69	ISIslide	Win	True
662.021	0.25	Lose2	0.6056	0.0	Yes	3.029	0.021	n/a	GoodResponse	0	n/a	n/a	16	70	Cue	AvoidedLoss	True
662.271	4.05	Lose2	0.6056	0.0	Yes	3.029	0.0	n/a	GoodResponse	0	n/a	n/a	16	70	Fixation	AvoidedLoss	True
666.32	0.5	Lose2	0.6056	0.001	Yes	3.029	-0.001	2.0	GoodResponse	0	0.193	665.513	16	70	Target	AvoidedLoss	True
666.513	0.3	Lose2	0.6056	0.001	Yes	3.029	-0.001	2.0	GoodResponse	0	0.193	n/a	16	70	ButtonPress	AvoidedLoss	True
666.82	0.2	Lose2	0.6056	n/a	Yes	3.029	n/a	n/a	GoodResponse	0	n/a	n/a	16	70	Blank	AvoidedLoss	True
667.02	1.45	Lose2	0.6056	n/a	Yes	3.029	n/a	5.0	GoodResponse	0	0.018	666.038	16	70	Feedback	AvoidedLoss	True
668.469	3.029	Lose2	0.6056	n/a	Yes	3.029	n/a	n/a	GoodResponse	0	0.0	n/a	16	70	ISIslide	AvoidedLoss	True
671.518	0.25	Win2	0.6111	0.0	Yes	2.732	0.018	n/a	GoodResponse	1	n/a	n/a	17	71	Cue	Win	True
671.768	4.05	Win2	0.6111	0.0	Yes	2.732	0.0	n/a	GoodResponse	1	n/a	n/a	17	71	Fixation	Win	True
675.816	0.5	Win2	0.6111	0.002	Yes	2.732	-0.002	2.0	GoodResponse	1	0.217	675.033	17	71	Target	Win	True
676.033	0.3	Win2	0.6111	0.002	Yes	2.732	-0.002	2.0	GoodResponse	1	0.217	n/a	17	71	ButtonPress	Win	True
676.316	0.2	Win2	0.6111	n/a	Yes	2.732	n/a	n/a	GoodResponse	1	n/a	n/a	17	71	Blank	Win	True
676.516	1.45	Win2	0.6111	n/a	Yes	2.732	n/a	5.0	GoodResponse	1	0.035	675.551	17	71	Feedback	Win	True
677.966	2.732	Win2	0.6111	n/a	Yes	2.732	n/a	n/a	GoodResponse	1	0.0	n/a	17	71	ISIslide	Win	True
680.715	0.25	Win2	0.6164000000000001	0.0	Yes	2.785	0.015	n/a	GoodResponse	1	n/a	n/a	18	72	Cue	Win	True
680.965	4.1	Win2	0.6164000000000001	0.0	Yes	2.785	0.0	n/a	GoodResponse	1	n/a	n/a	18	72	Fixation	Win	True
685.063	0.5	Win2	0.6164000000000001	0.002	Yes	2.785	-0.002	2.0	GoodResponse	1	0.194	684.257	18	72	Target	Win	True
685.257	0.3	Win2	0.6164000000000001	0.002	Yes	2.785	-0.002	2.0	GoodResponse	1	0.194	n/a	18	72	ButtonPress	Win	True
685.563	0.2	Win2	0.6164000000000001	n/a	Yes	2.785	n/a	n/a	GoodResponse	1	n/a	n/a	18	72	Blank	Win	True
685.763	1.45	Win2	0.6164000000000001	n/a	Yes	2.785	n/a	5.0	GoodResponse	1	0.007	684.77	18	72	Feedback	Win	True
687.212	2.785	Win2	0.6164000000000001	n/a	Yes	2.785	n/a	n/a	GoodResponse	1	0.0	n/a	18	72	ISIslide	Win	True
690.028	0.25	Win2	0.6215999999999999	0.0	Yes	2.672	0.028	n/a	GoodResponse	1	n/a	n/a	19	73	Cue	Win	True
690.278	4.0	Win2	0.6215999999999999	0.0	Yes	2.672	0.0	n/a	GoodResponse	1	n/a	n/a	19	73	Fixation	Win	True
694.276	0.5	Win2	0.6215999999999999	0.002	Yes	2.672	-0.002	2.0	GoodResponse	1	0.226	693.502	19	73	Target	Win	True
694.502	0.3	Win2	0.6215999999999999	0.002	Yes	2.672	-0.002	2.0	GoodResponse	1	0.226	n/a	19	73	ButtonPress	Win	True
694.776	0.2	Win2	0.6215999999999999	n/a	Yes	2.672	n/a	n/a	GoodResponse	1	n/a	n/a	19	73	Blank	Win	True
694.976	1.45	Win2	0.6215999999999999	n/a	Yes	2.672	n/a	5.0	GoodResponse	1	0.013	693.989	19	73	Feedback	Win	True
696.426	2.672	Win2	0.6215999999999999	n/a	Yes	2.672	n/a	n/a	GoodResponse	1	0.0	n/a	19	73	ISIslide	Win	True
699.125	0.25	Lose2	0.6267	0.0	Yes	2.625	0.025	n/a	GoodResponse	0	n/a	n/a	19	74	Cue	AvoidedLoss	False
699.375	4.05	Lose2	0.6267	0.0	Yes	2.625	0.0	2.0	GoodResponse	0	0.298	698.673	19	74	Fixation	AvoidedLoss	False
699.673	0.3	Lose2	0.6267	0.0	Yes	2.625	0.0	2.0	GoodResponse	0	0.298	n/a	19	74	ButtonPress	AvoidedLoss	False
703.423	0.5	Lose2	0.6267	0.002	Yes	2.625	-0.002	2.0	GoodResponse	0	0.189	702.612	19	74	Target	AvoidedLoss	False
703.612	0.3	Lose2	0.6267	0.002	Yes	2.625	-0.002	2.0	GoodResponse	0	0.189	n/a	19	74	ButtonPress	AvoidedLoss	False
703.923	0.2	Lose2	0.6267	n/a	Yes	2.625	n/a	n/a	GoodResponse	0	n/a	n/a	19	74	Blank	AvoidedLoss	False
704.123	1.45	Lose2	0.6267	n/a	Yes	2.625	n/a	5.0	GoodResponse	0	0.037	703.16	19	74	Feedback	AvoidedLoss	False
705.572	2.625	Lose2	0.6267	n/a	Yes	2.625	n/a	n/a	GoodResponse	0	0.0	n/a	19	74	ISIslide	AvoidedLoss	False
708.222	0.25	Lose2	0.6315999999999999	0.0	Yes	2.928	0.022	n/a	GoodResponse	0	n/a	n/a	19	75	Cue	AvoidedLoss	True
708.471	3.95	Lose2	0.6315999999999999	0.001	Yes	2.928	-0.001	n/a	GoodResponse	0	n/a	n/a	19	75	Fixation	AvoidedLoss	True
712.42	0.5	Lose2	0.6315999999999999	0.002	Yes	2.928	-0.002	2.0	GoodResponse	0	0.223	711.643	19	75	Target	AvoidedLoss	True
712.643	0.3	Lose2	0.6315999999999999	0.002	Yes	2.928	-0.002	2.0	GoodResponse	0	0.223	n/a	19	75	ButtonPress	AvoidedLoss	True
712.92	0.2	Lose2	0.6315999999999999	n/a	Yes	2.928	n/a	n/a	GoodResponse	0	n/a	n/a	19	75	Blank	AvoidedLoss	True
713.12	1.45	Lose2	0.6315999999999999	n/a	Yes	2.928	n/a	5.0	GoodResponse	0	0.015	712.135	19	75	Feedback	AvoidedLoss	True
714.569	2.928	Lose2	0.6315999999999999	n/a	Yes	2.928	n/a	n/a	GoodResponse	0	0.0	n/a	19	75	ISIslide	AvoidedLoss	True
717.518	0.25	Control	0.6234000000000001	0.0	No	3.232	0.018	n/a	NoResponse	0	n/a	n/a	19	76	Cue	Neutral	False
717.768	4.05	Control	0.6234000000000001	0.0	No	3.232	0.0	n/a	NoResponse	0	n/a	n/a	19	76	Fixation	Neutral	False
721.817	0.5	Control	0.6234000000000001	0.001	No	3.232	-0.001	n/a	NoResponse	0	n/a	n/a	19	76	Target	Neutral	False
722.317	0.2	Control	0.6234000000000001	n/a	No	3.232	n/a	n/a	NoResponse	0	n/a	n/a	19	76	Blank	Neutral	False
722.516	1.45	Control	0.6234000000000001	n/a	No	3.232	n/a	5.0	NoResponse	0	0.033	721.549	19	76	Feedback	Neutral	False
723.966	3.232	Control	0.6234000000000001	n/a	No	3.232	n/a	n/a	NoResponse	0	0.0	n/a	19	76	ISIslide	Neutral	False
727.231	0.25	Lose2	0.6282	0.001	Yes	2.569	0.031	n/a	GoodResponse	0	n/a	n/a	19	77	Cue	AvoidedLoss	True
727.481	3.95	Lose2	0.6282	0.0	Yes	2.569	0.0	n/a	GoodResponse	0	n/a	n/a	19	77	Fixation	AvoidedLoss	True
731.43	0.5	Lose2	0.6282	0.001	Yes	2.569	-0.001	2.0	GoodResponse	0	0.268	730.698	19	77	Target	AvoidedLoss	True
731.698	0.3	Lose2	0.6282	0.001	Yes	2.569	-0.001	2.0	GoodResponse	0	0.268	n/a	19	77	ButtonPress	AvoidedLoss	True
731.93	0.2	Lose2	0.6282	n/a	Yes	2.569	n/a	n/a	GoodResponse	0	n/a	n/a	19	77	Blank	AvoidedLoss	True
732.13	1.45	Lose2	0.6282	n/a	Yes	2.569	n/a	5.0	GoodResponse	0	0.029	731.159	19	77	Feedback	AvoidedLoss	True
733.579	2.569	Lose2	0.6282	n/a	Yes	2.569	n/a	n/a	GoodResponse	0	0.0	n/a	19	77	ISIslide	AvoidedLoss	True
