onset	duration	cue_type	current_mean_accuracy	duration_error	is_hit	isi_adjusted	onset_delay	response	response_type	reward	rt	rt_time	total_reward	trial_number	trial_phase	trial_type	one_press
11.102	0.25	Control	1.0	0.0	Yes	2.948	0.002	n/a	GoodResponse	0	n/a	n/a	0	0	Cue	Neutral	True
11.352	3.85	Control	1.0	0.0	Yes	2.948	0.0	n/a	GoodResponse	0	n/a	n/a	0	0	Fixation	Neutral	True
15.214	0.4	Control	1.0	0.0	Yes	2.948	0.012	2.0	GoodResponse	0	0.211	14.425	0	0	Target	Neutral	True
15.425	0.3	Control	1.0	0.0	Yes	2.948	0.012	2.0	GoodResponse	0	0.211	n/a	0	0	ButtonPress	Neutral	True
15.598	0.3	Control	1.0	n/a	Yes	2.948	n/a	n/a	GoodResponse	0	n/a	n/a	0	0	Blank	Neutral	True
15.899	1.45	Control	1.0	n/a	Yes	2.948	n/a	5.0	GoodResponse	0	0.03	14.929	0	0	Feedback	Neutral	True
17.354	2.948	Control	1.0	n/a	Yes	2.948	n/a	n/a	GoodResponse	0	0.0	n/a	0	0	ISIslide	Neutral	True
20.379	0.25	Lose2	1.0	0.0	Yes	2.721	0.079	n/a	GoodResponse	0	n/a	n/a	0	1	Cue	AvoidedLoss	True
20.63	4.0	Lose2	1.0	0.0	Yes	2.721	0.001	n/a	GoodResponse	0	n/a	n/a	0	1	Fixation	AvoidedLoss	True
24.625	0.39	Lose2	1.0	0.004	Yes	2.721	-0.004	2.0	GoodResponse	0	0.224	23.849	0	1	Target	AvoidedLoss	True
24.849	0.3	Lose2	1.0	0.004	Yes	2.721	-0.004	2.0	GoodResponse	0	0.224	n/a	0	1	ButtonPress	AvoidedLoss	True
25.027	0.31	Lose2	1.0	n/a	Yes	2.721	n/a	n/a	GoodResponse	0	n/a	n/a	0	1	Blank	AvoidedLoss	True
25.327	1.45	Lose2	1.0	n/a	Yes	2.721	n/a	5.0	GoodResponse	0	0.016	24.343	0	1	Feedback	AvoidedLoss	True
26.782	2.721	Lose2	1.0	n/a	Yes	2.721	n/a	n/a	GoodResponse	0	0.0	n/a	0	1	ISIslide	AvoidedLoss	True
29.523	0.25	Control	1.0	0.0	Yes	2.577	0.023	n/a	GoodResponse	0	n/a	n/a	0	2	Cue	Neutral	True
29.774	4.1	Control	1.0	0.0	Yes	2.577	0.001	n/a	GoodResponse	0	n/a	n/a	0	2	Fixation	Neutral	True
33.87	0.38	Control	1.0	0.003	Yes	2.577	-0.003	2.0	GoodResponse	0	0.217	33.087	0	2	Target	Neutral	True
34.087	0.3	Control	1.0	0.003	Yes	2.577	-0.003	2.0	GoodResponse	0	0.217	n/a	0	2	ButtonPress	Neutral	True
34.254	0.32	Control	1.0	n/a	Yes	2.577	n/a	n/a	GoodResponse	0	n/a	n/a	0	2	Blank	Neutral	True
34.572	1.45	Control	1.0	n/a	Yes	2.577	n/a	5.0	GoodResponse	0	0.04	33.612	0	2	Feedback	Neutral	True
36.026	2.577	Control	1.0	n/a	Yes	2.577	n/a	n/a	GoodResponse	0	0.0	n/a	0	2	ISIslide	Neutral	True
38.634	0.25	Win2	1.0	0.0	Yes	2.816	0.034	n/a	GoodResponse	1	n/a	n/a	1	3	Cue	Win	True
38.885	3.95	Win2	1.0	0.0	Yes	2.816	0.001	n/a	GoodResponse	1	n/a	n/a	1	3	Fixation	Win	True
42.83	0.37	Win2	1.0	0.004	Yes	2.816	-0.004	2.0	GoodResponse	1	0.225	42.055	1	3	Target	Win	True
43.055	0.3	Win2	1.0	0.004	Yes	2.816	-0.004	2.0	GoodResponse	1	0.225	n/a	1	3	ButtonPress	Win	True
43.214	0.33	Win2	1.0	n/a	Yes	2.816	n/a	n/a	GoodResponse	1	n/a	n/a	1	3	Blank	Win	True
43.532	1.45	Win2	1.0	n/a	Yes	2.816	n/a	5.0	GoodResponse	1	0.007	42.539	1	3	Feedback	Win	True
44.986	2.816	Win2	1.0	n/a	Yes	2.816	n/a	n/a	GoodResponse	1	0.0	n/a	1	3	ISIslide	Win	True
47.828	0.25	Win2	1.0	0.0	Yes	3.272	0.028	n/a	GoodResponse	1	n/a	n/a	2	4	Cue	Win	True
48.079	4.0	Win2	1.0	0.0	Yes	3.272	0.001	n/a	GoodResponse	1	n/a	n/a	2	4	Fixation	Win	True
52.074	0.36	Win2	1.0	0.004	Yes	3.272	-0.004	2.0	GoodResponse	1	0.206	51.28	2	4	Target	Win	True
52.28	0.3	Win2	1.0	0.004	Yes	3.272	-0.004	2.0	GoodResponse	1	0.206	n/a	2	4	ButtonPress	Win	True
52.442	0.34	Win2	1.0	n/a	Yes	3.272	n/a	n/a	GoodResponse	1	n/a	n/a	2	4	Blank	Win	True
52.776	1.45	Win2	1.0	n/a	Yes	3.272	n/a	5.0	GoodResponse	1	0.031	51.807	2	4	Feedback	Win	True
54.231	3.272	Win2	1.0	n/a	Yes	3.272	n/a	n/a	GoodResponse	1	0.0	n/a	2	4	ISIslide	Win	True
57.524	0.25	Win2	1.0	0.0	Yes	2.776	0.024	n/a	GoodResponse	1	n/a	n/a	3	5	Cue	Win	True
57.774	4.0	Win2	1.0	0.001	Yes	2.776	0.0	n/a	GoodResponse	1	n/a	n/a	3	5	Fixation	Win	True
61.77	0.35	Win2	1.0	0.004	Yes	2.776	-0.004	2.0	GoodResponse	1	0.235	61.005	3	5	Target	Win	True
62.005	0.3	Win2	1.0	0.004	Yes	2.776	-0.004	2.0	GoodResponse	1	0.235	n/a	3	5	ButtonPress	Win	True
62.121	0.35	Win2	1.0	n/a	Yes	2.776	n/a	n/a	GoodResponse	1	n/a	n/a	3	5	Blank	Win	True
62.472	1.45	Win2	1.0	n/a	Yes	2.776	n/a	5.0	GoodResponse	1	0.042	61.514	3	5	Feedback	Win	True
63.926	2.776	Win2	1.0	n/a	Yes	2.776	n/a	n/a	GoodResponse	1	0.0	n/a	3	5	ISIslide	Win	True
66.718	0.25	Lose2	1.0	0.0	Yes	2.732	0.018	n/a	GoodResponse	0	n/a	n/a	3	6	Cue	AvoidedLoss	True
66.969	3.95	Lose2	1.0	0.0	Yes	2.732	0.001	n/a	GoodResponse	0	n/a	n/a	3	6	Fixation	AvoidedLoss	True
70.914	0.34	Lose2	1.0	0.004	Yes	2.732	-0.004	2.0	GoodResponse	0	0.223	70.137	3	6	Target	AvoidedLoss	True
71.137	0.3	Lose2	1.0	0.004	Yes	2.732	-0.004	2.0	GoodResponse	0	0.223	n/a	3	6	ButtonPress	AvoidedLoss	True
71.265	0.36	Lose2	1.0	n/a	Yes	2.732	n/a	n/a	GoodResponse	0	n/a	n/a	3	6	Blank	AvoidedLoss	True
71.616	1.45	Lose2	1.0	n/a	Yes	2.732	n/a	5.0	GoodResponse	0	0.02	70.636	3	6	Feedback	AvoidedLoss	True
73.07	2.732	Lose2	1.0	n/a	Yes	2.732	n/a	n/a	GoodResponse	0	0.0	n/a	3	6	ISIslide	AvoidedLoss	True
75.828	0.25	Lose2	1.0	0.001	Yes	4.022	0.028	n/a	GoodResponse	0	n/a	n/a	3	7	Cue	AvoidedLoss	True
76.079	4.05	Lose2	1.0	0.0	Yes	4.022	0.001	n/a	GoodResponse	0	n/a	n/a	3	7	Fixation	AvoidedLoss	True
80.125	0.33	Lose2	1.0	0.003	Yes	4.022	-0.003	2.0	GoodResponse	0	0.204	79.329	3	7	Target	AvoidedLoss	True
80.329	0.3	Lose2	1.0	0.003	Yes	4.022	-0.003	2.0	GoodResponse	0	0.204	n/a	3	7	ButtonPress	AvoidedLoss	True
80.459	0.37	Lose2	1.0	n/a	Yes	4.022	n/a	n/a	GoodResponse	0	n/a	n/a	3	7	Blank	AvoidedLoss	True
80.827	1.45	Lose2	1.0	n/a	Yes	4.022	n/a	5.0	GoodResponse	0	0.028	79.855	3	7	Feedback	AvoidedLoss	True
82.281	4.022	Lose2	1.0	n/a	Yes	4.022	n/a	n/a	GoodResponse	0	0.0	n/a	3	7	ISIslide	AvoidedLoss	True
86.327	0.25	Lose2	1.0	0.0	Yes	3.023	0.027	n/a	GoodResponse	0	n/a	n/a	3	8	Cue	AvoidedLoss	True
86.577	3.95	Lose2	1.0	0.0	Yes	3.023	0.0	n/a	GoodResponse	0	n/a	n/a	3	8	Fixation	AvoidedLoss	True
90.539	0.32	Lose2	1.0	0.0	Yes	3.023	0.012	2.0	GoodResponse	0	0.23	89.769	3	8	Target	AvoidedLoss	True
90.769	0.3	Lose2	1.0	0.0	Yes	3.023	0.012	2.0	GoodResponse	0	0.23	n/a	3	8	ButtonPress	AvoidedLoss	True
90.857	0.38	Lose2	1.0	n/a	Yes	3.023	n/a	n/a	GoodResponse	0	n/a	n/a	3	8	Blank	AvoidedLoss	True
91.224	1.45	Lose2	1.0	n/a	Yes	3.023	n/a	5.0	GoodResponse	0	0.022	90.246	3	8	Feedback	AvoidedLoss	True
92.679	3.023	Lose2	1.0	n/a	Yes	3.023	n/a	n/a	GoodResponse	0	0.0	n/a	3	8	ISIslide	AvoidedLoss	True
95.721	0.25	Lose2	1.0	0.0	Yes	3.129	0.021	n/a	GoodResponse	0	n/a	n/a	3	9	Cue	AvoidedLoss	True
95.972	3.95	Lose2	1.0	0.0	Yes	3.129	0.001	n/a	GoodResponse	0	n/a	n/a	3	9	Fixation	AvoidedLoss	True
99.917	0.31	Lose2	1.0	0.004	Yes	3.129	-0.004	2.0	GoodResponse	0	0.216	99.133	3	9	Target	AvoidedLoss	True
100.133	0.3	Lose2	1.0	0.004	Yes	3.129	-0.004	2.0	GoodResponse	0	0.216	n/a	3	9	ButtonPress	AvoidedLoss	True
100.235	0.39	Lose2	1.0	n/a	Yes	3.129	n/a	n/a	GoodResponse	0	n/a	n/a	3	9	Blank	AvoidedLoss	True
100.619	1.45	Lose2	1.0	n/a	Yes	3.129	n/a	5.0	GoodResponse	0	0.04	99.659	3	9	Feedback	AvoidedLoss	True
102.074	3.129	Lose2	1.0	n/a	Yes	3.129	n/a	n/a	GoodResponse	0	0.0	n/a	3	9	ISIslide	AvoidedLoss	True
105.216	0.25	Control	1.0	0.0	Yes	3.284	0.016	n/a	GoodResponse	0	n/a	n/a	3	10	Cue	Neutral	True
105.467	4.0	Control	1.0	0.0	Yes	3.284	0.001	n/a	GoodResponse	0	n/a	n/a	3	10	Fixation	Neutral	True
109.462	0.3	Control	1.0	0.004	Yes	3.284	-0.004	2.0	GoodResponse	0	0.223	108.685	3	10	Target	Neutral	True
109.685	0.3	Control	1.0	0.004	Yes	3.284	-0.004	2.0	GoodResponse	0	0.223	n/a	3	10	ButtonPress	Neutral	True
109.763	0.4	Control	1.0	n/a	Yes	3.284	n/a	n/a	GoodResponse	0	n/a	n/a	3	10	Blank	Neutral	True
110.164	1.45	Control	1.0	n/a	Yes	3.284	n/a	5.0	GoodResponse	0	0.008	109.172	3	10	Feedback	Neutral	True
111.619	3.284	Control	1.0	n/a	Yes	3.284	n/a	n/a	GoodResponse	0	0.0	n/a	3	10	ISIslide	Neutral	True
114.929	0.25	Lose2	1.0	0.0	Yes	2.721	0.029	n/a	GoodResponse	0	n/a	n/a	3	11	Cue	AvoidedLoss	True
115.179	4.05	Lose2	1.0	0.001	Yes	2.721	0.0	n/a	GoodResponse	0	n/a	n/a	3	11	Fixation	AvoidedLoss	True
119.225	0.29	Lose2	1.0	0.004	Yes	2.721	-0.004	2.0	GoodResponse	0	0.185	118.41	3	11	Target	AvoidedLoss	True
119.41	0.3	Lose2	1.0	0.004	Yes	2.721	-0.004	2.0	GoodResponse	0	0.185	n/a	3	11	ButtonPress	AvoidedLoss	True
119.526	0.41	Lose2	1.0	n/a	Yes	2.721	n/a	n/a	GoodResponse	0	n/a	n/a	3	11	Blank	AvoidedLoss	True
119.927	1.45	Lose2	1.0	n/a	Yes	2.721	n/a	5.0	GoodResponse	0	0.001	118.928	3	11	Feedback	AvoidedLoss	True
121.381	2.721	Lose2	1.0	n/a	Yes	2.721	n/a	n/a	GoodResponse	0	0.0	n/a	3	11	ISIslide	AvoidedLoss	True
124.123	0.25	Control	1.0	0.0	Yes	2.977	0.023	n/a	GoodResponse	0	n/a	n/a	3	12	Cue	Neutral	True
124.374	3.9	Control	1.0	0.0	Yes	2.977	0.001	n/a	GoodResponse	0	n/a	n/a	3	12	Fixation	Neutral	True
128.269	0.28	Control	1.0	0.004	Yes	2.977	-0.004	2.0	GoodResponse	0	0.161	127.43	3	12	Target	Neutral	True
128.43	0.3	Control	1.0	0.004	Yes	2.977	-0.004	2.0	GoodResponse	0	0.161	n/a	3	12	ButtonPress	Neutral	True
128.553	0.42	Control	1.0	n/a	Yes	2.977	n/a	n/a	GoodResponse	0	n/a	n/a	3	12	Blank	Neutral	True
128.971	1.45	Control	1.0	n/a	Yes	2.977	n/a	5.0	GoodResponse	0	0.03	128.001	3	12	Feedback	Neutral	True
130.425	2.977	Control	1.0	n/a	Yes	2.977	n/a	n/a	GoodResponse	0	0.0	n/a	3	12	ISIslide	Neutral	True
133.417	0.25	Control	1.0	0.0	Yes	2.783	0.017	n/a	GoodResponse	0	n/a	n/a	3	13	Cue	Neutral	False
133.668	4.0	Control	1.0	0.0	Yes	2.783	0.001	2.0	GoodResponse	0	3.594	136.262	3	13	Fixation	Neutral	False
137.262	0.3	Control	1.0	0.0	Yes	2.783	0.001	2.0	GoodResponse	0	3.594	n/a	3	13	ButtonPress	Neutral	False
137.663	0.27	Control	1.0	0.004	Yes	2.783	-0.004	2.0	GoodResponse	0	0.245	136.908	3	13	Target	Neutral	False
137.908	0.3	Control	1.0	0.004	Yes	2.783	-0.004	2.0	GoodResponse	0	0.245	n/a	3	13	ButtonPress	Neutral	False
137.948	0.43	Control	1.0	n/a	Yes	2.783	n/a	n/a	GoodResponse	0	n/a	n/a	3	13	Blank	Neutral	False
138.365	1.45	Control	1.0	n/a	Yes	2.783	n/a	5.0	GoodResponse	0	0.002	137.367	3	13	Feedback	Neutral	False
139.82	2.783	Control	1.0	n/a	Yes	2.783	n/a	n/a	GoodResponse	0	0.0	n/a	3	13	ISIslide	Neutral	False
142.628	0.25	Win2	1.0	0.0	Yes	2.672	0.028	n/a	GoodResponse	1	n/a	n/a	4	14	Cue	Win	True
142.879	4.1	Win2	1.0	0.0	Yes	2.672	0.001	n/a	GoodResponse	1	n/a	n/a	4	14	Fixation	Win	True
146.975	0.26	Win2	1.0	0.003	Yes	2.672	-0.003	2.0	GoodResponse	1	0.215	146.19	4	14	Target	Win	True
147.19	0.3	Win2	1.0	0.003	Yes	2.672	-0.003	2.0	GoodResponse	1	0.215	n/a	4	14	ButtonPress	Win	True
147.242	0.44	Win2	1.0	n/a	Yes	2.672	n/a	n/a	GoodResponse	1	n/a	n/a	4	14	Blank	Win	True
147.677	1.45	Win2	1.0	n/a	Yes	2.672	n/a	5.0	GoodResponse	1	0.006	146.683	4	14	Feedback	Win	True
149.131	2.672	Win2	1.0	n/a	Yes	2.672	n/a	n/a	GoodResponse	1	0.0	n/a	4	14	ISIslide	Win	True
151.822	0.25	Control	1.0	0.0	Yes	2.978	0.022	n/a	GoodResponse	0	n/a	n/a	4	15	Cue	Neutral	True
152.073	4.0	Control	1.0	0.0	Yes	2.978	0.001	n/a	GoodResponse	0	n/a	n/a	4	15	Fixation	Neutral	True
156.068	0.25	Control	1.0	0.004	Yes	2.978	-0.004	2.0	GoodResponse	0	0.219	155.287	4	15	Target	Neutral	True
156.287	0.3	Control	1.0	0.004	Yes	2.978	-0.004	2.0	GoodResponse	0	0.219	n/a	4	15	ButtonPress	Neutral	True
156.319	0.45	Control	1.0	n/a	Yes	2.978	n/a	n/a	GoodResponse	0	n/a	n/a	4	15	Blank	Neutral	True
156.77	1.45	Control	1.0	n/a	Yes	2.978	n/a	5.0	GoodResponse	0	0.035	155.805	4	15	Feedback	Neutral	True
158.225	2.978	Control	1.0	n/a	Yes	2.978	n/a	n/a	GoodResponse	0	0.0	n/a	4	15	ISIslide	Neutral	True
161.217	0.25	Win2	1.0	0.0	Yes	2.883	0.017	n/a	GoodResponse	1	n/a	n/a	5	16	Cue	Win	True
161.468	4.0	Win2	1.0	0.0	Yes	2.883	0.001	n/a	GoodResponse	1	n/a	n/a	5	16	Fixation	Win	True
165.463	0.24	Win2	1.0	0.004	Yes	2.883	-0.004	2.0	GoodResponse	1	0.205	164.668	5	16	Target	Win	True
165.668	0.3	Win2	1.0	0.004	Yes	2.883	-0.004	2.0	GoodResponse	1	0.205	n/a	5	16	ButtonPress	Win	True
165.714	0.46	Win2	1.0	n/a	Yes	2.883	n/a	n/a	GoodResponse	1	n/a	n/a	5	16	Blank	Win	True
166.165	1.45	Win2	1.0	n/a	Yes	2.883	n/a	5.0	GoodResponse	1	0.006	165.171	5	16	Feedback	Win	True
167.62	2.883	Win2	1.0	n/a	Yes	2.883	n/a	n/a	GoodResponse	1	0.0	n/a	5	16	ISIslide	Win	True
170.528	0.25	Lose2	0.9444	0.0	No	2.722	0.028	n/a	NoResponse	-1	n/a	n/a	4	17	Cue	Loss	True
170.779	3.95	Lose2	0.9444	0.0	No	2.722	0.001	n/a	NoResponse	-1	n/a	n/a	4	17	Fixation	Loss	True
174.724	0.23	Lose2	0.9444	0.004	No	2.722	-0.004	2.0	NoResponse	-1	0.265	173.989	4	17	Target	Loss	True
174.958	0.47	Lose2	0.9444	n/a	No	2.722	n/a	n/a	NoResponse	-1	n/a	n/a	4	17	Blank	Loss	True
174.989	0.3	Lose2	0.9444	0.004	No	2.722	-0.004	2.0	NoResponse	-1	0.265	n/a	4	17	ButtonPress	Loss	True
175.426	1.45	Lose2	0.9444	n/a	No	2.722	n/a	5.0	NoResponse	-1	0.014	174.44	4	17	Feedback	Loss	True
176.881	2.722	Lose2	0.9444	n/a	No	2.722	n/a	n/a	NoResponse	-1	0.0	n/a	4	17	ISIslide	Loss	True
179.622	0.25	Lose2	0.9473999999999999	0.0	Yes	2.728	0.022	n/a	GoodResponse	0	n/a	n/a	4	18	Cue	AvoidedLoss	True
179.873	4.05	Lose2	0.9473999999999999	0.0	Yes	2.728	0.001	n/a	GoodResponse	0	n/a	n/a	4	18	Fixation	AvoidedLoss	True
183.918	0.22	Lose2	0.9473999999999999	0.004	Yes	2.728	-0.004	2.0	GoodResponse	0	0.215	183.133	4	18	Target	AvoidedLoss	True
184.133	0.3	Lose2	0.9473999999999999	0.004	Yes	2.728	-0.004	2.0	GoodResponse	0	0.215	n/a	4	18	ButtonPress	AvoidedLoss	True
184.152	0.48	Lose2	0.9473999999999999	n/a	Yes	2.728	n/a	n/a	GoodResponse	0	n/a	n/a	4	18	Blank	AvoidedLoss	True
184.62	1.45	Lose2	0.9473999999999999	n/a	Yes	2.728	n/a	5.0	GoodResponse	0	0.039	183.659	4	18	Feedback	AvoidedLoss	True
186.075	2.728	Lose2	0.9473999999999999	n/a	Yes	2.728	n/a	n/a	GoodResponse	0	0.0	n/a	4	18	ISIslide	AvoidedLoss	True
188.816	0.25	Control	0.9	0.0	No	2.934	0.016	n/a	NoResponse	0	n/a	n/a	4	19	Cue	Neutral	False
189.067	3.95	Control	0.9	0.0	No	2.934	0.001	n/a	NoResponse	0	n/a	n/a	4	19	Fixation	Neutral	False
193.012	0.21	Control	0.9	0.004	No	2.934	-0.004	n/a	NoResponse	0	n/a	n/a	4	19	Target	Neutral	False
193.229	0.49	Control	0.9	n/a	No	2.934	n/a	n/a	NoResponse	0	n/a	n/a	4	19	Blank	Neutral	False
193.714	1.45	Control	0.9	n/a	No	2.934	n/a	5.0	NoResponse	0	0.018	192.732	4	19	Feedback	Neutral	False
195.169	2.934	Control	0.9	n/a	No	2.934	n/a	n/a	NoResponse	0	0.0	n/a	4	19	ISIslide	Neutral	False
198.127	0.25	Control	0.9048	0.001	Yes	2.623	0.027	n/a	GoodResponse	0	n/a	n/a	4	20	Cue	Neutral	True
198.378	4.05	Control	0.9048	0.0	Yes	2.623	0.001	n/a	GoodResponse	0	n/a	n/a	4	20	Fixation	Neutral	True
202.424	0.2	Control	0.9048	0.003	Yes	2.623	-0.003	2.0	GoodResponse	0	0.197	201.621	4	20	Target	Neutral	True
202.621	0.3	Control	0.9048	0.003	Yes	2.623	-0.003	2.0	GoodResponse	0	0.197	n/a	4	20	ButtonPress	Neutral	True
202.624	0.5	Control	0.9048	n/a	Yes	2.623	n/a	n/a	GoodResponse	0	n/a	n/a	4	20	Blank	Neutral	True
203.126	1.45	Control	0.9048	n/a	Yes	2.623	n/a	5.0	GoodResponse	0	0.021	202.147	4	20	Feedback	Neutral	True
204.58	2.623	Control	0.9048	n/a	Yes	2.623	n/a	n/a	GoodResponse	0	0.0	n/a	4	20	ISIslide	Neutral	True
207.221	0.25	Control	0.8636	0.0	No	2.779	0.021	n/a	LatePress	0	n/a	n/a	4	21	Cue	Neutral	True
207.472	4.1	Control	0.8636	0.0	No	2.779	0.001	n/a	LatePress	0	n/a	n/a	4	21	Fixation	Neutral	True
211.568	0.19	Control	0.8636	0.003	No	2.779	-0.003	2.0	LatePress	0	0.2	210.768	4	21	Target	Neutral	True
211.768	0.51	Control	0.8636	n/a	No	2.779	n/a	n/a	LatePress	0	n/a	n/a	4	21	Blank	Neutral	True
211.768	0.3	Control	0.8636	0.003	No	2.779	-0.003	2.0	LatePress	0	0.2	n/a	4	21	ButtonPress	Neutral	True
212.27	1.45	Control	0.8636	n/a	No	2.779	n/a	5.0	LatePress	0	0.047	211.317	4	21	Feedback	Neutral	True
213.724	2.779	Control	0.8636	n/a	No	2.779	n/a	n/a	LatePress	0	0.0	n/a	4	21	ISIslide	Neutral	True
216.516	0.25	Control	0.8261	0.0	No	2.784	0.016	n/a	NoResponse	0	n/a	n/a	4	22	Cue	Neutral	True
216.767	4.0	Control	0.8261	0.0	No	2.784	0.001	n/a	NoResponse	0	n/a	n/a	4	22	Fixation	Neutral	True
220.762	0.18	Control	0.8261	0.004	No	2.784	-0.004	2.0	NoResponse	0	0.198	219.96	4	22	Target	Neutral	True
220.946	0.52	Control	0.8261	n/a	No	2.784	n/a	n/a	NoResponse	0	n/a	n/a	4	22	Blank	Neutral	True
220.96	0.3	Control	0.8261	0.004	No	2.784	-0.004	2.0	NoResponse	0	0.198	n/a	4	22	ButtonPress	Neutral	True
221.464	1.45	Control	0.8261	n/a	No	2.784	n/a	5.0	NoResponse	0	0.024	220.488	4	22	Feedback	Neutral	True
222.918	2.784	Control	0.8261	n/a	No	2.784	n/a	n/a	NoResponse	0	0.0	n/a	4	22	ISIslide	Neutral	True
225.727	0.25	Control	0.7917000000000001	0.0	No	2.773	0.027	n/a	NoResponse	0	n/a	n/a	4	23	Cue	Neutral	True
225.977	3.9	Control	0.7917000000000001	0.0	No	2.773	0.0	n/a	NoResponse	0	n/a	n/a	4	23	Fixation	Neutral	True
229.889	0.17	Control	0.7917000000000001	0.0	No	2.773	0.012	2.0	NoResponse	0	0.215	229.104	4	23	Target	Neutral	True
230.056	0.53	Control	0.7917000000000001	n/a	No	2.773	n/a	n/a	NoResponse	0	n/a	n/a	4	23	Blank	Neutral	True
230.104	0.3	Control	0.7917000000000001	0.0	No	2.773	0.012	2.0	NoResponse	0	0.215	n/a	4	23	ButtonPress	Neutral	True
230.574	1.45	Control	0.7917000000000001	n/a	No	2.773	n/a	5.0	NoResponse	0	0.035	229.609	4	23	Feedback	Neutral	True
232.029	2.773	Control	0.7917000000000001	n/a	No	2.773	n/a	n/a	NoResponse	0	0.0	n/a	4	23	ISIslide	Neutral	True
234.82	0.25	Win2	0.76	0.001	No	3.13	0.02	n/a	PrematurePress	0	n/a	n/a	4	24	Cue	MissedWin	False
235.071	3.95	Win2	0.76	0.0	No	3.13	0.001	2.0	PrematurePress	0	3.548	237.619	4	24	Fixation	MissedWin	False
238.619	0.3	Win2	0.76	0.0	No	3.13	0.001	2.0	PrematurePress	0	3.548	n/a	4	24	ButtonPress	MissedWin	False
239.016	0.16	Win2	0.76	0.004	No	3.13	-0.004	2.0	PrematurePress	0	0.037	238.053	4	24	Target	MissedWin	False
239.053	0.3	Win2	0.76	0.004	No	3.13	-0.004	2.0	PrematurePress	0	0.037	n/a	4	24	ButtonPress	MissedWin	False
239.184	0.54	Win2	0.76	n/a	No	3.13	n/a	n/a	PrematurePress	0	n/a	n/a	4	24	Blank	MissedWin	False
239.718	1.45	Win2	0.76	n/a	No	3.13	n/a	5.0	PrematurePress	0	0.013	238.731	4	24	Feedback	MissedWin	False
241.173	3.13	Win2	0.76	n/a	No	3.13	n/a	n/a	PrematurePress	0	0.0	n/a	4	24	ISIslide	MissedWin	False
244.316	0.25	Win2	0.7308	0.0	No	3.084	0.016	n/a	NoResponse	0	n/a	n/a	4	25	Cue	MissedWin	True
244.566	4.0	Win2	0.7308	0.0	No	3.084	0.0	n/a	NoResponse	0	n/a	n/a	4	25	Fixation	MissedWin	True
248.562	0.15	Win2	0.7308	0.004	No	3.084	-0.004	2.0	NoResponse	0	0.197	247.759	4	25	Target	MissedWin	True
248.712	0.55	Win2	0.7308	n/a	No	3.084	n/a	n/a	NoResponse	0	n/a	n/a	4	25	Blank	MissedWin	True
248.759	0.3	Win2	0.7308	0.004	No	3.084	-0.004	2.0	NoResponse	0	0.197	n/a	4	25	ButtonPress	MissedWin	True
249.264	1.45	Win2	0.7308	n/a	No	3.084	n/a	5.0	NoResponse	0	0.028	248.292	4	25	Feedback	MissedWin	True
250.718	3.084	Win2	0.7308	n/a	No	3.084	n/a	n/a	NoResponse	0	0.0	n/a	4	25	ISIslide	MissedWin	True
253.827	0.25	Win2	0.7037	0.0	No	2.923	0.027	n/a	NoResponse	0	n/a	n/a	4	26	Cue	MissedWin	True
254.078	3.95	Win2	0.7037	0.0	No	2.923	0.001	n/a	NoResponse	0	n/a	n/a	4	26	Fixation	MissedWin	True
258.023	0.15	Win2	0.7037	0.004	No	2.923	-0.004	2.0	NoResponse	0	0.233	257.256	4	26	Target	MissedWin	True
258.174	0.55	Win2	0.7037	n/a	No	2.923	n/a	n/a	NoResponse	0	n/a	n/a	4	26	Blank	MissedWin	True
258.256	0.3	Win2	0.7037	0.004	No	2.923	-0.004	2.0	NoResponse	0	0.233	n/a	4	26	ButtonPress	MissedWin	True
258.725	1.45	Win2	0.7037	n/a	No	2.923	n/a	5.0	NoResponse	0	0.031	257.756	4	26	Feedback	MissedWin	True
260.18	2.923	Win2	0.7037	n/a	No	2.923	n/a	n/a	NoResponse	0	0.0	n/a	4	26	ISIslide	MissedWin	True
263.122	0.25	Lose2	0.6786	0.0	No	2.828	0.022	n/a	NoResponse	-1	n/a	n/a	3	27	Cue	Loss	True
263.373	4.05	Lose2	0.6786	0.0	No	2.828	0.001	n/a	NoResponse	-1	n/a	n/a	3	27	Fixation	Loss	True
267.418	0.15	Lose2	0.6786	0.004	No	2.828	-0.004	2.0	NoResponse	-1	0.231	266.649	3	27	Target	Loss	True
267.568	0.55	Lose2	0.6786	n/a	No	2.828	n/a	n/a	NoResponse	-1	n/a	n/a	3	27	Blank	Loss	True
267.649	0.3	Lose2	0.6786	0.004	No	2.828	-0.004	2.0	NoResponse	-1	0.231	n/a	3	27	ButtonPress	Loss	True
268.12	1.45	Lose2	0.6786	n/a	No	2.828	n/a	5.0	NoResponse	-1	0.002	267.122	3	27	Feedback	Loss	True
269.574	2.828	Lose2	0.6786	n/a	No	2.828	n/a	n/a	NoResponse	-1	0.0	n/a	3	27	ISIslide	Loss	True
272.416	0.25	Control	0.6552	0.0	No	2.834	0.016	n/a	NoResponse	0	n/a	n/a	3	28	Cue	Neutral	True
272.667	4.05	Control	0.6552	0.0	No	2.834	0.001	n/a	NoResponse	0	n/a	n/a	3	28	Fixation	Neutral	True
276.712	0.15	Control	0.6552	0.004	No	2.834	-0.004	2.0	NoResponse	0	0.188	275.9	3	28	Target	Neutral	True
276.863	0.55	Control	0.6552	n/a	No	2.834	n/a	n/a	NoResponse	0	n/a	n/a	3	28	Blank	Neutral	True
276.9	0.3	Control	0.6552	0.004	No	2.834	-0.004	2.0	NoResponse	0	0.188	n/a	3	28	ButtonPress	Neutral	True
277.415	1.45	Control	0.6552	n/a	No	2.834	n/a	5.0	NoResponse	0	0.023	276.438	3	28	Feedback	Neutral	True
278.869	2.834	Control	0.6552	n/a	No	2.834	n/a	n/a	NoResponse	0	0.0	n/a	3	28	ISIslide	Neutral	True
281.727	0.25	Lose2	0.6333	0.0	No	2.823	0.027	n/a	NoResponse	-1	n/a	n/a	2	29	Cue	Loss	True
281.978	3.95	Lose2	0.6333	0.0	No	2.823	0.001	n/a	NoResponse	-1	n/a	n/a	2	29	Fixation	Loss	True
285.923	0.15	Lose2	0.6333	0.004	No	2.823	-0.004	2.0	NoResponse	-1	0.218	285.141	2	29	Target	Loss	True
286.074	0.55	Lose2	0.6333	n/a	No	2.823	n/a	n/a	NoResponse	-1	n/a	n/a	2	29	Blank	Loss	True
286.141	0.3	Lose2	0.6333	0.004	No	2.823	-0.004	2.0	NoResponse	-1	0.218	n/a	2	29	ButtonPress	Loss	True
286.625	1.45	Lose2	0.6333	n/a	No	2.823	n/a	5.0	NoResponse	-1	0.033	285.658	2	29	Feedback	Loss	True
288.08	2.823	Lose2	0.6333	n/a	No	2.823	n/a	n/a	NoResponse	-1	0.0	n/a	2	29	ISIslide	Loss	True
290.922	0.25	Win2	0.6129	0.0	No	2.778	0.022	n/a	NoResponse	0	n/a	n/a	2	30	Cue	MissedWin	True
291.172	3.9	Win2	0.6129	0.0	No	2.778	0.0	n/a	NoResponse	0	n/a	n/a	2	30	Fixation	MissedWin	True
295.084	0.16	Win2	0.6129	0.0	No	2.778	0.012	2.0	NoResponse	0	0.22	294.304	2	30	Target	MissedWin	True
295.234	0.54	Win2	0.6129	n/a	No	2.778	n/a	n/a	NoResponse	0	n/a	n/a	2	30	Blank	MissedWin	True
295.304	0.3	Win2	0.6129	0.0	No	2.778	0.012	2.0	NoResponse	0	0.22	n/a	2	30	ButtonPress	MissedWin	True
295.769	1.45	Win2	0.6129	n/a	No	2.778	n/a	5.0	NoResponse	0	0.011	294.78	2	30	Feedback	MissedWin	True
297.224	2.778	Win2	0.6129	n/a	No	2.778	n/a	n/a	NoResponse	0	0.0	n/a	2	30	ISIslide	MissedWin	True
300.015	0.25	Lose2	0.5938	0.0	No	2.835	0.015	n/a	PrematurePress	-1	n/a	n/a	1	31	Cue	Loss	False
300.266	4.05	Lose2	0.5938	0.0	No	2.835	0.001	2.0	PrematurePress	-1	3.735	303.001	1	31	Fixation	Loss	False
304.001	0.3	Lose2	0.5938	0.0	No	2.835	0.001	2.0	PrematurePress	-1	3.735	n/a	1	31	ButtonPress	Loss	False
304.312	0.17	Lose2	0.5938	0.003	No	2.835	-0.003	2.0	PrematurePress	-1	0.053	303.365	1	31	Target	Loss	False
304.365	0.3	Lose2	0.5938	0.003	No	2.835	-0.003	2.0	PrematurePress	-1	0.053	n/a	1	31	ButtonPress	Loss	False
304.495	0.53	Lose2	0.5938	n/a	No	2.835	n/a	n/a	PrematurePress	-1	n/a	n/a	1	31	Blank	Loss	False
305.014	1.45	Lose2	0.5938	n/a	No	2.835	n/a	5.0	PrematurePress	-1	0.034	304.048	1	31	Feedback	Loss	False
306.468	2.835	Lose2	0.5938	n/a	No	2.835	n/a	n/a	PrematurePress	-1	0.0	n/a	1	31	ISIslide	Loss	False
309.327	0.25	Lose2	0.5758	0.0	No	2.623	0.027	n/a	NoResponse	-1	n/a	n/a	0	32	Cue	Loss	True
309.577	4.15	Lose2	0.5758	0.0	No	2.623	0.0	n/a	NoResponse	-1	n/a	n/a	0	32	Fixation	Loss	True
313.723	0.18	Lose2	0.5758	0.004	No	2.623	-0.004	2.0	NoResponse	-1	0.195	312.918	0	32	Target	Loss	True
313.907	0.52	Lose2	0.5758	n/a	No	2.623	n/a	n/a	NoResponse	-1	n/a	n/a	0	32	Blank	Loss	True
313.918	0.3	Lose2	0.5758	0.004	No	2.623	-0.004	2.0	NoResponse	-1	0.195	n/a	0	32	ButtonPress	Loss	True
314.425	1.45	Lose2	0.5758	n/a	No	2.623	n/a	5.0	NoResponse	-1	0.037	313.462	0	32	Feedback	Loss	True
315.88	2.623	Lose2	0.5758	n/a	No	2.623	n/a	n/a	NoResponse	-1	0.0	n/a	0	32	ISIslide	Loss	True
318.521	0.25	Win2	0.5588000000000001	0.0	No	2.679	0.021	n/a	NoResponse	0	n/a	n/a	0	33	Cue	MissedWin	True
318.771	4.0	Win2	0.5588000000000001	0.001	No	2.679	0.0	n/a	NoResponse	0	n/a	n/a	0	33	Fixation	MissedWin	True
322.767	0.19	Win2	0.5588000000000001	0.004	No	2.679	-0.004	2.0	NoResponse	0	0.251	322.018	0	33	Target	MissedWin	True
322.967	0.51	Win2	0.5588000000000001	n/a	No	2.679	n/a	n/a	NoResponse	0	n/a	n/a	0	33	Blank	MissedWin	True
323.018	0.3	Win2	0.5588000000000001	0.004	No	2.679	-0.004	2.0	NoResponse	0	0.251	n/a	0	33	ButtonPress	MissedWin	True
323.469	1.45	Win2	0.5588000000000001	n/a	No	2.679	n/a	5.0	NoResponse	0	0.018	322.487	0	33	Feedback	MissedWin	True
324.923	2.679	Win2	0.5588000000000001	n/a	No	2.679	n/a	n/a	NoResponse	0	0.0	n/a	0	33	ISIslide	MissedWin	True
327.631	0.25	Lose2	0.5714	0.0	Yes	2.619	0.031	n/a	GoodResponse	0	n/a	n/a	0	34	Cue	AvoidedLoss	True
327.882	4.05	Lose2	0.5714	0.0	Yes	2.619	0.001	n/a	GoodResponse	0	n/a	n/a	0	34	Fixation	AvoidedLoss	True
331.928	0.2	Lose2	0.5714	0.003	Yes	2.619	-0.003	2.0	GoodResponse	0	0.198	331.126	0	34	Target	AvoidedLoss	True
332.126	0.3	Lose2	0.5714	0.003	Yes	2.619	-0.003	2.0	GoodResponse	0	0.198	n/a	0	34	ButtonPress	AvoidedLoss	True
332.128	0.5	Lose2	0.5714	n/a	Yes	2.619	n/a	n/a	GoodResponse	0	n/a	n/a	0	34	Blank	AvoidedLoss	True
332.63	1.45	Lose2	0.5714	n/a	Yes	2.619	n/a	5.0	GoodResponse	0	0.027	331.657	0	34	Feedback	AvoidedLoss	True
334.084	2.619	Lose2	0.5714	n/a	Yes	2.619	n/a	n/a	GoodResponse	0	0.0	n/a	0	34	ISIslide	AvoidedLoss	True
336.725	0.25	Lose2	0.5556	0.0	No	2.675	0.025	n/a	LatePress	-1	n/a	n/a	-1	35	Cue	Loss	True
336.976	4.0	Lose2	0.5556	0.0	No	2.675	0.001	n/a	LatePress	-1	n/a	n/a	-1	35	Fixation	Loss	True
340.971	0.21	Lose2	0.5556	0.004	No	2.675	-0.004	2.0	LatePress	-1	0.216	340.187	-1	35	Target	Loss	True
341.187	0.3	Lose2	0.5556	0.004	No	2.675	-0.004	2.0	LatePress	-1	0.216	n/a	-1	35	ButtonPress	Loss	True
341.189	0.49	Lose2	0.5556	n/a	No	2.675	n/a	n/a	LatePress	-1	n/a	n/a	-1	35	Blank	Loss	True
341.673	1.45	Lose2	0.5556	n/a	No	2.675	n/a	5.0	LatePress	-1	0.009	340.682	-1	35	Feedback	Loss	True
343.128	2.675	Lose2	0.5556	n/a	No	2.675	n/a	n/a	LatePress	-1	0.0	n/a	-1	35	ISIslide	Loss	True
345.819	0.25	Control	0.5676	0.0	Yes	2.681	0.019	n/a	GoodResponse	0	n/a	n/a	-1	36	Cue	Neutral	True
346.07	4.0	Control	0.5676	0.0	Yes	2.681	0.001	n/a	GoodResponse	0	n/a	n/a	-1	36	Fixation	Neutral	True
350.065	0.22	Control	0.5676	0.004	Yes	2.681	-0.004	2.0	GoodResponse	0	0.208	349.273	-1	36	Target	Neutral	True
350.273	0.3	Control	0.5676	0.004	Yes	2.681	-0.004	2.0	GoodResponse	0	0.208	n/a	-1	36	ButtonPress	Neutral	True
350.299	0.48	Control	0.5676	n/a	Yes	2.681	n/a	n/a	GoodResponse	0	n/a	n/a	-1	36	Blank	Neutral	True
350.767	1.45	Control	0.5676	n/a	Yes	2.681	n/a	5.0	GoodResponse	0	0.037	349.804	-1	36	Feedback	Neutral	True
352.222	2.681	Control	0.5676	n/a	Yes	2.681	n/a	n/a	GoodResponse	0	0.0	n/a	-1	36	ISIslide	Neutral	True
354.93	0.25	Win2	0.5789	0.0	Yes	2.87	0.03	n/a	GoodResponse	1	n/a	n/a	0	37	Cue	Win	True
355.18	4.0	Win2	0.5789	0.0	Yes	2.87	0.0	n/a	GoodResponse	1	n/a	n/a	0	37	Fixation	Win	True
359.176	0.23	Win2	0.5789	0.004	Yes	2.87	-0.004	2.0	GoodResponse	1	0.215	358.391	0	37	Target	Win	True
359.391	0.3	Win2	0.5789	0.004	Yes	2.87	-0.004	2.0	GoodResponse	1	0.215	n/a	0	37	ButtonPress	Win	True
359.41	0.47	Win2	0.5789	n/a	Yes	2.87	n/a	n/a	GoodResponse	1	n/a	n/a	0	37	Blank	Win	True
359.878	1.45	Win2	0.5789	n/a	Yes	2.87	n/a	5.0	GoodResponse	1	0.047	358.925	0	37	Feedback	Win	True
361.332	2.87	Win2	0.5789	n/a	Yes	2.87	n/a	n/a	GoodResponse	1	0.0	n/a	0	37	ISIslide	Win	True
364.224	0.25	Lose2	0.5897	0.0	Yes	2.826	0.024	n/a	GoodResponse	0	n/a	n/a	0	38	Cue	AvoidedLoss	True
364.475	3.95	Lose2	0.5897	0.0	Yes	2.826	0.001	n/a	GoodResponse	0	n/a	n/a	0	38	Fixation	AvoidedLoss	True
368.42	0.24	Lose2	0.5897	0.004	Yes	2.826	-0.004	2.0	GoodResponse	0	0.215	367.635	0	38	Target	AvoidedLoss	True
368.635	0.3	Lose2	0.5897	0.004	Yes	2.826	-0.004	2.0	GoodResponse	0	0.215	n/a	0	38	ButtonPress	AvoidedLoss	True
368.671	0.46	Lose2	0.5897	n/a	Yes	2.826	n/a	n/a	GoodResponse	0	n/a	n/a	0	38	Blank	AvoidedLoss	True
369.122	1.45	Lose2	0.5897	n/a	Yes	2.826	n/a	5.0	GoodResponse	0	0.023	368.145	0	38	Feedback	AvoidedLoss	True
370.576	2.826	Lose2	0.5897	n/a	Yes	2.826	n/a	n/a	GoodResponse	0	0.0	n/a	0	38	ISIslide	AvoidedLoss	True
373.418	0.25	Win2	0.6	0.0	Yes	2.982	0.018	n/a	GoodResponse	1	n/a	n/a	1	39	Cue	Win	True
373.669	4.1	Win2	0.6	0.0	Yes	2.982	0.001	n/a	GoodResponse	1	n/a	n/a	1	39	Fixation	Win	True
377.765	0.25	Win2	0.6	0.003	Yes	2.982	-0.003	2.0	GoodResponse	1	0.203	376.968	1	39	Target	Win	True
377.968	0.3	Win2	0.6	0.003	Yes	2.982	-0.003	2.0	GoodResponse	1	0.203	n/a	1	39	ButtonPress	Win	True
378.015	0.45	Win2	0.6	n/a	Yes	2.982	n/a	n/a	GoodResponse	1	n/a	n/a	1	39	Blank	Win	True
378.467	1.45	Win2	0.6	n/a	Yes	2.982	n/a	5.0	GoodResponse	1	0.044	377.511	1	39	Feedback	Win	True
379.921	2.982	Win2	0.6	n/a	Yes	2.982	n/a	n/a	GoodResponse	1	0.0	n/a	1	39	ISIslide	Win	True
382.93	0.25	Win2	0.6098	0.0	Yes	2.72	0.03	n/a	GoodResponse	1	n/a	n/a	2	40	Cue	Win	True
383.181	3.95	Win2	0.6098	0.0	Yes	2.72	0.001	n/a	GoodResponse	1	n/a	n/a	2	40	Fixation	Win	True
387.126	0.26	Win2	0.6098	0.004	Yes	2.72	-0.004	2.0	GoodResponse	1	0.222	386.348	2	40	Target	Win	True
387.348	0.3	Win2	0.6098	0.004	Yes	2.72	-0.004	2.0	GoodResponse	1	0.222	n/a	2	40	ButtonPress	Win	True
387.393	0.44	Win2	0.6098	n/a	Yes	2.72	n/a	n/a	GoodResponse	1	n/a	n/a	2	40	Blank	Win	True
387.828	1.45	Win2	0.6098	n/a	Yes	2.72	n/a	5.0	GoodResponse	1	0.049	386.877	2	40	Feedback	Win	True
389.282	2.72	Win2	0.6098	n/a	Yes	2.72	n/a	n/a	GoodResponse	1	0.0	n/a	2	40	ISIslide	Win	True
392.024	0.25	Win2	0.5952000000000001	0.0	No	2.776	0.024	n/a	NoResponse	0	n/a	n/a	2	41	Cue	MissedWin	True
392.275	3.9	Win2	0.5952000000000001	0.0	No	2.776	0.001	2.0	NoResponse	0	3.784	395.059	2	41	Fixation	MissedWin	True
396.059	0.3	Win2	0.5952000000000001	0.0	No	2.776	0.001	2.0	NoResponse	0	3.784	n/a	2	41	ButtonPress	MissedWin	True
396.17	0.27	Win2	0.5952000000000001	0.004	No	2.776	-0.004	n/a	NoResponse	0	n/a	n/a	2	41	Target	MissedWin	True
396.454	0.43	Win2	0.5952000000000001	n/a	No	2.776	n/a	n/a	NoResponse	0	n/a	n/a	2	41	Blank	MissedWin	True
396.872	1.45	Win2	0.5952000000000001	n/a	No	2.776	n/a	5.0	NoResponse	0	0.029	395.901	2	41	Feedback	MissedWin	True
398.326	2.776	Win2	0.5952000000000001	n/a	No	2.776	n/a	n/a	NoResponse	0	0.0	n/a	2	41	ISIslide	MissedWin	True
401.118	0.25	Control	0.6047	0.0	Yes	2.932	0.018	n/a	GoodResponse	0	n/a	n/a	2	42	Cue	Neutral	True
401.368	3.85	Control	0.6047	0.001	Yes	2.932	0.0	n/a	GoodResponse	0	n/a	n/a	2	42	Fixation	Neutral	True
405.23	0.28	Control	0.6047	0.0	Yes	2.932	0.012	2.0	GoodResponse	0	0.228	404.458	2	42	Target	Neutral	True
405.458	0.3	Control	0.6047	0.0	Yes	2.932	0.012	2.0	GoodResponse	0	0.228	n/a	2	42	ButtonPress	Neutral	True
405.497	0.42	Control	0.6047	n/a	Yes	2.932	n/a	n/a	GoodResponse	0	n/a	n/a	2	42	Blank	Neutral	True
405.915	1.45	Control	0.6047	n/a	Yes	2.932	n/a	5.0	GoodResponse	0	0.01	404.925	2	42	Feedback	Neutral	True
407.37	2.932	Control	0.6047	n/a	Yes	2.932	n/a	n/a	GoodResponse	0	0.0	n/a	2	42	ISIslide	Neutral	True
410.329	0.25	Win2	0.6136	0.0	Yes	3.171	0.029	n/a	GoodResponse	1	n/a	n/a	3	43	Cue	Win	True
410.579	4.0	Win2	0.6136	0.0	Yes	3.171	0.0	n/a	GoodResponse	1	n/a	n/a	3	43	Fixation	Win	True
414.575	0.29	Win2	0.6136	0.004	Yes	3.171	-0.004	2.0	GoodResponse	1	0.223	413.798	3	43	Target	Win	True
414.798	0.3	Win2	0.6136	0.004	Yes	3.171	-0.004	2.0	GoodResponse	1	0.223	n/a	3	43	ButtonPress	Win	True
414.876	0.41	Win2	0.6136	n/a	Yes	3.171	n/a	n/a	GoodResponse	1	n/a	n/a	3	43	Blank	Win	True
415.277	1.45	Win2	0.6136	n/a	Yes	3.171	n/a	5.0	GoodResponse	1	0.014	414.291	3	43	Feedback	Win	True
416.731	3.171	Win2	0.6136	n/a	Yes	3.171	n/a	n/a	GoodResponse	1	0.0	n/a	3	43	ISIslide	Win	True
419.924	0.25	Win2	0.6222	0.0	Yes	2.976	0.024	n/a	GoodResponse	1	n/a	n/a	4	44	Cue	Win	True
420.175	4.0	Win2	0.6222	0.0	Yes	2.976	0.001	n/a	GoodResponse	1	n/a	n/a	4	44	Fixation	Win	True
424.17	0.3	Win2	0.6222	0.004	Yes	2.976	-0.004	2.0	GoodResponse	1	0.212	423.382	4	44	Target	Win	True
424.382	0.3	Win2	0.6222	0.004	Yes	2.976	-0.004	2.0	GoodResponse	1	0.212	n/a	4	44	ButtonPress	Win	True
424.471	0.4	Win2	0.6222	n/a	Yes	2.976	n/a	n/a	GoodResponse	1	n/a	n/a	4	44	Blank	Win	True
424.872	1.45	Win2	0.6222	n/a	Yes	2.976	n/a	5.0	GoodResponse	1	0.029	423.901	4	44	Feedback	Win	True
426.326	2.976	Win2	0.6222	n/a	Yes	2.976	n/a	n/a	GoodResponse	1	0.0	n/a	4	44	ISIslide	Win	True
429.319	0.25	Control	0.6304	0.0	Yes	2.881	0.019	n/a	GoodResponse	0	n/a	n/a	4	45	Cue	Neutral	True
429.569	4.1	Control	0.6304	0.001	Yes	2.881	0.0	n/a	GoodResponse	0	n/a	n/a	4	45	Fixation	Neutral	True
433.665	0.31	Control	0.6304	0.004	Yes	2.881	-0.004	2.0	GoodResponse	0	0.273	432.938	4	45	Target	Neutral	True
433.938	0.3	Control	0.6304	0.004	Yes	2.881	-0.004	2.0	GoodResponse	0	0.273	n/a	4	45	ButtonPress	Neutral	True
433.983	0.39	Control	0.6304	n/a	Yes	2.881	n/a	n/a	GoodResponse	0	n/a	n/a	4	45	Blank	Neutral	True
434.367	1.45	Control	0.6304	n/a	Yes	2.881	n/a	5.0	GoodResponse	0	0.046	433.413	4	45	Feedback	Neutral	True
435.821	2.881	Control	0.6304	n/a	Yes	2.881	n/a	n/a	GoodResponse	0	0.0	n/a	4	45	ISIslide	Neutral	True
438.73	0.25	Lose2	0.6383	0.0	Yes	3.37	0.03	n/a	GoodResponse	0	n/a	n/a	4	46	Cue	AvoidedLoss	True
438.981	4.0	Lose2	0.6383	0.0	Yes	3.37	0.001	n/a	GoodResponse	0	n/a	n/a	4	46	Fixation	AvoidedLoss	True
442.976	0.32	Lose2	0.6383	0.004	Yes	3.37	-0.004	2.0	GoodResponse	0	0.153	442.129	4	46	Target	AvoidedLoss	True
443.129	0.3	Lose2	0.6383	0.004	Yes	3.37	-0.004	2.0	GoodResponse	0	0.153	n/a	4	46	ButtonPress	AvoidedLoss	True
443.311	0.38	Lose2	0.6383	n/a	Yes	3.37	n/a	n/a	GoodResponse	0	n/a	n/a	4	46	Blank	AvoidedLoss	True
443.678	1.45	Lose2	0.6383	n/a	Yes	3.37	n/a	5.0	GoodResponse	0	0.006	442.684	4	46	Feedback	AvoidedLoss	True
445.133	3.37	Lose2	0.6383	n/a	Yes	3.37	n/a	n/a	GoodResponse	0	0.0	n/a	4	46	ISIslide	AvoidedLoss	True
448.526	0.25	Lose2	0.6457999999999999	0.0	Yes	2.674	0.026	n/a	GoodResponse	0	n/a	n/a	4	47	Cue	AvoidedLoss	True
448.777	4.0	Lose2	0.6457999999999999	0.0	Yes	2.674	0.001	n/a	GoodResponse	0	n/a	n/a	4	47	Fixation	AvoidedLoss	True
452.772	0.33	Lose2	0.6457999999999999	0.004	Yes	2.674	-0.004	2.0	GoodResponse	0	0.207	451.979	4	47	Target	AvoidedLoss	True
452.979	0.3	Lose2	0.6457999999999999	0.004	Yes	2.674	-0.004	2.0	GoodResponse	0	0.207	n/a	4	47	ButtonPress	AvoidedLoss	True
453.106	0.37	Lose2	0.6457999999999999	n/a	Yes	2.674	n/a	n/a	GoodResponse	0	n/a	n/a	4	47	Blank	AvoidedLoss	True
453.474	1.45	Lose2	0.6457999999999999	n/a	Yes	2.674	n/a	5.0	GoodResponse	0	0.011	452.485	4	47	Feedback	AvoidedLoss	True
454.929	2.674	Lose2	0.6457999999999999	n/a	Yes	2.674	n/a	n/a	GoodResponse	0	0.0	n/a	4	47	ISIslide	AvoidedLoss	True
457.62	0.25	Lose2	0.6531	0.0	Yes	3.03	0.02	n/a	GoodResponse	0	n/a	n/a	4	48	Cue	AvoidedLoss	True
457.871	3.95	Lose2	0.6531	0.0	Yes	3.03	0.001	n/a	GoodResponse	0	n/a	n/a	4	48	Fixation	AvoidedLoss	True
461.816	0.34	Lose2	0.6531	0.004	Yes	3.03	-0.004	2.0	GoodResponse	0	0.282	461.098	4	48	Target	AvoidedLoss	True
462.098	0.3	Lose2	0.6531	0.004	Yes	3.03	-0.004	2.0	GoodResponse	0	0.282	n/a	4	48	ButtonPress	AvoidedLoss	True
462.167	0.36	Lose2	0.6531	n/a	Yes	3.03	n/a	n/a	GoodResponse	0	n/a	n/a	4	48	Blank	AvoidedLoss	True
462.518	1.45	Lose2	0.6531	n/a	Yes	3.03	n/a	5.0	GoodResponse	0	0.041	461.559	4	48	Feedback	AvoidedLoss	True
463.972	3.03	Lose2	0.6531	n/a	Yes	3.03	n/a	n/a	GoodResponse	0	0.0	n/a	4	48	ISIslide	AvoidedLoss	True
467.015	0.25	Control	0.66	0.0	Yes	2.885	0.015	n/a	GoodResponse	0	n/a	n/a	4	49	Cue	Neutral	True
467.265	4.0	Control	0.66	0.001	Yes	2.885	0.0	n/a	GoodResponse	0	n/a	n/a	4	49	Fixation	Neutral	True
471.261	0.35	Control	0.66	0.004	Yes	2.885	-0.004	2.0	GoodResponse	0	0.218	470.479	4	49	Target	Neutral	True
471.479	0.3	Control	0.66	0.004	Yes	2.885	-0.004	2.0	GoodResponse	0	0.218	n/a	4	49	ButtonPress	Neutral	True
471.612	0.35	Control	0.66	n/a	Yes	2.885	n/a	n/a	GoodResponse	0	n/a	n/a	4	49	Blank	Neutral	True
471.963	1.45	Control	0.66	n/a	Yes	2.885	n/a	5.0	GoodResponse	0	0.01	470.973	4	49	Feedback	Neutral	True
473.417	2.885	Control	0.66	n/a	Yes	2.885	n/a	n/a	GoodResponse	0	0.0	n/a	4	49	ISIslide	Neutral	True
476.326	0.25	Control	0.6667000000000001	0.0	Yes	2.774	0.026	n/a	GoodResponse	0	n/a	n/a	4	50	Cue	Neutral	True
476.577	4.0	Control	0.6667000000000001	0.0	Yes	2.774	0.001	n/a	GoodResponse	0	n/a	n/a	4	50	Fixation	Neutral	True
480.572	0.35	Control	0.6667000000000001	0.004	Yes	2.774	-0.004	2.0	GoodResponse	0	0.229	479.801	4	50	Target	Neutral	True
480.801	0.3	Control	0.6667000000000001	0.004	Yes	2.774	-0.004	2.0	GoodResponse	0	0.229	n/a	4	50	ButtonPress	Neutral	True
480.923	0.35	Control	0.6667000000000001	n/a	Yes	2.774	n/a	n/a	GoodResponse	0	n/a	n/a	4	50	Blank	Neutral	True
481.274	1.45	Control	0.6667000000000001	n/a	Yes	2.774	n/a	5.0	GoodResponse	0	0.017	480.291	4	50	Feedback	Neutral	True
482.728	2.774	Control	0.6667000000000001	n/a	Yes	2.774	n/a	n/a	GoodResponse	0	0.0	n/a	4	50	ISIslide	Neutral	True
485.52	0.25	Control	0.6731	0.0	Yes	2.73	0.02	n/a	GoodResponse	0	n/a	n/a	4	51	Cue	Neutral	True
485.771	3.95	Control	0.6731	0.0	Yes	2.73	0.001	n/a	GoodResponse	0	n/a	n/a	4	51	Fixation	Neutral	True
489.716	0.34	Control	0.6731	0.004	Yes	2.73	-0.004	2.0	GoodResponse	0	0.27	488.986	4	51	Target	Neutral	True
489.986	0.3	Control	0.6731	0.004	Yes	2.73	-0.004	2.0	GoodResponse	0	0.27	n/a	4	51	ButtonPress	Neutral	True
490.067	0.36	Control	0.6731	n/a	Yes	2.73	n/a	n/a	GoodResponse	0	n/a	n/a	4	51	Blank	Neutral	True
490.418	1.45	Control	0.6731	n/a	Yes	2.73	n/a	5.0	GoodResponse	0	0.042	489.46	4	51	Feedback	Neutral	True
491.872	2.73	Control	0.6731	n/a	Yes	2.73	n/a	n/a	GoodResponse	0	0.0	n/a	4	51	ISIslide	Neutral	True
494.631	0.25	Control	0.6792	0.0	Yes	2.619	0.031	n/a	GoodResponse	0	n/a	n/a	4	52	Cue	Neutral	True
494.881	4.05	Control	0.6792	0.0	Yes	2.619	0.0	n/a	GoodResponse	0	n/a	n/a	4	52	Fixation	Neutral	True
498.927	0.33	Control	0.6792	0.004	Yes	2.619	-0.004	2.0	GoodResponse	0	0.228	498.155	4	52	Target	Neutral	True
499.155	0.3	Control	0.6792	0.004	Yes	2.619	-0.004	2.0	GoodResponse	0	0.228	n/a	4	52	ButtonPress	Neutral	True
499.261	0.37	Control	0.6792	n/a	Yes	2.619	n/a	n/a	GoodResponse	0	n/a	n/a	4	52	Blank	Neutral	True
499.629	1.45	Control	0.6792	n/a	Yes	2.619	n/a	5.0	GoodResponse	0	0.002	498.631	4	52	Feedback	Neutral	True
501.083	2.619	Control	0.6792	n/a	Yes	2.619	n/a	n/a	GoodResponse	0	0.0	n/a	4	52	ISIslide	Neutral	True
503.724	0.25	Win2	0.6851999999999999	0.001	Yes	2.926	0.024	n/a	GoodResponse	1	n/a	n/a	5	53	Cue	Win	True
503.975	4.05	Win2	0.6851999999999999	0.0	Yes	2.926	0.001	n/a	GoodResponse	1	n/a	n/a	5	53	Fixation	Win	True
508.021	0.32	Win2	0.6851999999999999	0.003	Yes	2.926	-0.003	2.0	GoodResponse	1	0.242	507.263	5	53	Target	Win	True
508.263	0.3	Win2	0.6851999999999999	0.003	Yes	2.926	-0.003	2.0	GoodResponse	1	0.242	n/a	5	53	ButtonPress	Win	True
508.355	0.38	Win2	0.6851999999999999	n/a	Yes	2.926	n/a	n/a	GoodResponse	1	n/a	n/a	5	53	Blank	Win	True
508.723	1.45	Win2	0.6851999999999999	n/a	Yes	2.926	n/a	5.0	GoodResponse	1	0.03	507.753	5	53	Feedback	Win	True
510.177	2.926	Win2	0.6851999999999999	n/a	Yes	2.926	n/a	n/a	GoodResponse	1	0.0	n/a	5	53	ISIslide	Win	True
513.119	0.25	Win2	0.6909000000000001	0.0	Yes	2.731	0.019	n/a	GoodResponse	1	n/a	n/a	6	54	Cue	Win	True
513.37	3.95	Win2	0.6909000000000001	0.0	Yes	2.731	0.001	n/a	GoodResponse	1	n/a	n/a	6	54	Fixation	Win	True
517.315	0.31	Win2	0.6909000000000001	0.004	Yes	2.731	-0.004	2.0	GoodResponse	1	0.301	516.616	6	54	Target	Win	True
517.616	0.3	Win2	0.6909000000000001	0.004	Yes	2.731	-0.004	2.0	GoodResponse	1	0.301	n/a	6	54	ButtonPress	Win	True
517.633	0.39	Win2	0.6909000000000001	n/a	Yes	2.731	n/a	n/a	GoodResponse	1	n/a	n/a	6	54	Blank	Win	True
518.017	1.45	Win2	0.6909000000000001	n/a	Yes	2.731	n/a	5.0	GoodResponse	1	0.006	517.023	6	54	Feedback	Win	True
519.472	2.731	Win2	0.6909000000000001	n/a	Yes	2.731	n/a	n/a	GoodResponse	1	0.0	n/a	6	54	ISIslide	Win	True
522.23	0.25	Control	0.6964	0.0	Yes	3.02	0.03	n/a	GoodResponse	0	n/a	n/a	6	55	Cue	Neutral	True
522.481	3.95	Control	0.6964	0.0	Yes	3.02	0.001	n/a	GoodResponse	0	n/a	n/a	6	55	Fixation	Neutral	True
526.426	0.3	Control	0.6964	0.004	Yes	3.02	-0.004	2.0	GoodResponse	0	0.189	525.615	6	55	Target	Neutral	True
526.615	0.3	Control	0.6964	0.004	Yes	3.02	-0.004	2.0	GoodResponse	0	0.189	n/a	6	55	ButtonPress	Neutral	True
526.727	0.4	Control	0.6964	n/a	Yes	3.02	n/a	n/a	GoodResponse	0	n/a	n/a	6	55	Blank	Neutral	True
527.128	1.45	Control	0.6964	n/a	Yes	3.02	n/a	5.0	GoodResponse	0	0.016	526.144	6	55	Feedback	Neutral	True
528.582	3.02	Control	0.6964	n/a	Yes	3.02	n/a	n/a	GoodResponse	0	0.0	n/a	6	55	ISIslide	Neutral	True
531.625	0.25	Control	0.7018000000000001	0.0	Yes	2.825	0.025	n/a	GoodResponse	0	n/a	n/a	6	56	Cue	Neutral	True
531.875	3.95	Control	0.7018000000000001	0.0	Yes	2.825	0.0	n/a	GoodResponse	0	n/a	n/a	6	56	Fixation	Neutral	True
535.837	0.29	Control	0.7018000000000001	0.0	Yes	2.825	0.012	2.0	GoodResponse	0	0.222	535.059	6	56	Target	Neutral	True
536.059	0.3	Control	0.7018000000000001	0.0	Yes	2.825	0.012	2.0	GoodResponse	0	0.222	n/a	6	56	ButtonPress	Neutral	True
536.121	0.41	Control	0.7018000000000001	n/a	Yes	2.825	n/a	n/a	GoodResponse	0	n/a	n/a	6	56	Blank	Neutral	True
536.523	1.45	Control	0.7018000000000001	n/a	Yes	2.825	n/a	5.0	GoodResponse	0	0.035	535.558	6	56	Feedback	Neutral	True
537.977	2.825	Control	0.7018000000000001	n/a	Yes	2.825	n/a	n/a	GoodResponse	0	0.0	n/a	6	56	ISIslide	Neutral	True
540.819	0.25	Control	0.7069	0.0	Yes	3.481	0.019	n/a	GoodResponse	0	n/a	n/a	6	57	Cue	Neutral	True
541.069	4.0	Control	0.7069	0.001	Yes	3.481	0.0	n/a	GoodResponse	0	n/a	n/a	6	57	Fixation	Neutral	True
545.065	0.28	Control	0.7069	0.004	Yes	3.481	-0.004	2.0	GoodResponse	0	0.225	544.29	6	57	Target	Neutral	True
545.29	0.3	Control	0.7069	0.004	Yes	3.481	-0.004	2.0	GoodResponse	0	0.225	n/a	6	57	ButtonPress	Neutral	True
545.349	0.42	Control	0.7069	n/a	Yes	3.481	n/a	n/a	GoodResponse	0	n/a	n/a	6	57	Blank	Neutral	True
545.767	1.45	Control	0.7069	n/a	Yes	3.481	n/a	5.0	GoodResponse	0	0.01	544.777	6	57	Feedback	Neutral	True
547.221	3.481	Control	0.7069	n/a	Yes	3.481	n/a	n/a	GoodResponse	0	0.0	n/a	6	57	ISIslide	Neutral	True
550.732	0.25	Win2	0.7119	0.0	Yes	2.718	0.032	n/a	GoodResponse	1	n/a	n/a	7	58	Cue	Win	True
550.982	4.05	Win2	0.7119	0.001	Yes	2.718	0.0	n/a	GoodResponse	1	n/a	n/a	7	58	Fixation	Win	True
555.028	0.27	Win2	0.7119	0.004	Yes	2.718	-0.004	2.0	GoodResponse	1	0.18	554.208	7	58	Target	Win	True
555.208	0.3	Win2	0.7119	0.004	Yes	2.718	-0.004	2.0	GoodResponse	1	0.18	n/a	7	58	ButtonPress	Win	True
555.312	0.43	Win2	0.7119	n/a	Yes	2.718	n/a	n/a	GoodResponse	1	n/a	n/a	7	58	Blank	Win	True
555.73	1.45	Win2	0.7119	n/a	Yes	2.718	n/a	5.0	GoodResponse	1	0.047	554.777	7	58	Feedback	Win	True
557.184	2.718	Win2	0.7119	n/a	Yes	2.718	n/a	n/a	GoodResponse	1	0.0	n/a	7	58	ISIslide	Win	True
559.926	0.25	Lose2	0.7167	0.0	Yes	2.674	0.026	n/a	GoodResponse	0	n/a	n/a	7	59	Cue	AvoidedLoss	True
560.177	4.0	Lose2	0.7167	0.0	Yes	2.674	0.001	n/a	GoodResponse	0	n/a	n/a	7	59	Fixation	AvoidedLoss	True
564.172	0.26	Lose2	0.7167	0.004	Yes	2.674	-0.004	2.0	GoodResponse	0	0.223	563.395	7	59	Target	AvoidedLoss	True
564.395	0.3	Lose2	0.7167	0.004	Yes	2.674	-0.004	2.0	GoodResponse	0	0.223	n/a	7	59	ButtonPress	AvoidedLoss	True
564.439	0.44	Lose2	0.7167	n/a	Yes	2.674	n/a	n/a	GoodResponse	0	n/a	n/a	7	59	Blank	AvoidedLoss	True
564.874	1.45	Lose2	0.7167	n/a	Yes	2.674	n/a	5.0	GoodResponse	0	0.025	563.899	7	59	Feedback	AvoidedLoss	True
566.328	2.674	Lose2	0.7167	n/a	Yes	2.674	n/a	n/a	GoodResponse	0	0.0	n/a	7	59	ISIslide	AvoidedLoss	True
569.02	0.25	Control	0.7212999999999999	0.0	Yes	2.68	0.02	n/a	GoodResponse	0	n/a	n/a	7	60	Cue	Neutral	True
569.27	4.0	Control	0.7212999999999999	0.001	Yes	2.68	0.0	n/a	GoodResponse	0	n/a	n/a	7	60	Fixation	Neutral	True
573.266	0.25	Control	0.7212999999999999	0.004	Yes	2.68	-0.004	2.0	GoodResponse	0	0.206	572.472	7	60	Target	Neutral	True
573.472	0.3	Control	0.7212999999999999	0.004	Yes	2.68	-0.004	2.0	GoodResponse	0	0.206	n/a	7	60	ButtonPress	Neutral	True
573.516	0.45	Control	0.7212999999999999	n/a	Yes	2.68	n/a	n/a	GoodResponse	0	n/a	n/a	7	60	Blank	Neutral	True
573.968	1.45	Control	0.7212999999999999	n/a	Yes	2.68	n/a	5.0	GoodResponse	0	0.007	572.975	7	60	Feedback	Neutral	True
575.422	2.68	Control	0.7212999999999999	n/a	Yes	2.68	n/a	n/a	GoodResponse	0	0.0	n/a	7	60	ISIslide	Neutral	True
578.13	0.25	Lose2	0.7258	0.0	Yes	2.97	0.03	n/a	GoodResponse	0	n/a	n/a	7	61	Cue	AvoidedLoss	True
578.381	4.0	Lose2	0.7258	0.0	Yes	2.97	0.001	n/a	GoodResponse	0	n/a	n/a	7	61	Fixation	AvoidedLoss	True
582.376	0.24	Lose2	0.7258	0.004	Yes	2.97	-0.004	2.0	GoodResponse	0	0.199	581.575	7	61	Target	AvoidedLoss	True
582.575	0.3	Lose2	0.7258	0.004	Yes	2.97	-0.004	2.0	GoodResponse	0	0.199	n/a	7	61	ButtonPress	AvoidedLoss	True
582.627	0.46	Lose2	0.7258	n/a	Yes	2.97	n/a	n/a	GoodResponse	0	n/a	n/a	7	61	Blank	AvoidedLoss	True
583.078	1.45	Lose2	0.7258	n/a	Yes	2.97	n/a	5.0	GoodResponse	0	0.016	582.094	7	61	Feedback	AvoidedLoss	True
584.533	2.97	Lose2	0.7258	n/a	Yes	2.97	n/a	n/a	GoodResponse	0	0.0	n/a	7	61	ISIslide	AvoidedLoss	True
587.525	0.25	Lose2	0.7143	0.0	No	2.875	0.025	n/a	NoResponse	-1	n/a	n/a	6	62	Cue	Loss	True
587.776	3.9	Lose2	0.7143	0.0	No	2.875	0.001	n/a	NoResponse	-1	n/a	n/a	6	62	Fixation	Loss	True
591.671	0.23	Lose2	0.7143	0.004	No	2.875	-0.004	2.0	NoResponse	-1	0.244	590.915	6	62	Target	Loss	True
591.905	0.47	Lose2	0.7143	n/a	No	2.875	n/a	n/a	NoResponse	-1	n/a	n/a	6	62	Blank	Loss	True
591.915	0.3	Lose2	0.7143	0.004	No	2.875	-0.004	2.0	NoResponse	-1	0.244	n/a	6	62	ButtonPress	Loss	True
592.373	1.45	Lose2	0.7143	n/a	No	2.875	n/a	5.0	NoResponse	-1	0.038	591.411	6	62	Feedback	Loss	True
593.827	2.875	Lose2	0.7143	n/a	No	2.875	n/a	n/a	NoResponse	-1	0.0	n/a	6	62	ISIslide	Loss	True
596.719	0.25	Lose2	0.7188	0.0	Yes	2.631	0.019	n/a	GoodResponse	0	n/a	n/a	6	63	Cue	AvoidedLoss	True
596.97	4.05	Lose2	0.7188	0.0	Yes	2.631	0.001	n/a	GoodResponse	0	n/a	n/a	6	63	Fixation	AvoidedLoss	True
601.015	0.22	Lose2	0.7188	0.004	Yes	2.631	-0.004	2.0	GoodResponse	0	0.189	600.204	6	63	Target	AvoidedLoss	True
601.204	0.3	Lose2	0.7188	0.004	Yes	2.631	-0.004	2.0	GoodResponse	0	0.189	n/a	6	63	ButtonPress	AvoidedLoss	True
601.249	0.48	Lose2	0.7188	n/a	Yes	2.631	n/a	n/a	GoodResponse	0	n/a	n/a	6	63	Blank	AvoidedLoss	True
601.717	1.45	Lose2	0.7188	n/a	Yes	2.631	n/a	5.0	GoodResponse	0	0.011	600.728	6	63	Feedback	AvoidedLoss	True
603.172	2.631	Lose2	0.7188	n/a	Yes	2.631	n/a	n/a	GoodResponse	0	0.0	n/a	6	63	ISIslide	AvoidedLoss	True
605.83	0.25	Win2	0.7231000000000001	0.0	Yes	3.12	0.03	n/a	GoodResponse	1	n/a	n/a	7	64	Cue	Win	True
606.081	4.15	Win2	0.7231000000000001	0.0	Yes	3.12	0.001	n/a	GoodResponse	1	n/a	n/a	7	64	Fixation	Win	True
610.226	0.21	Win2	0.7231000000000001	0.004	Yes	3.12	-0.004	2.0	GoodResponse	1	0.206	609.432	7	64	Target	Win	True
610.432	0.3	Win2	0.7231000000000001	0.004	Yes	3.12	-0.004	2.0	GoodResponse	1	0.206	n/a	7	64	ButtonPress	Win	True
610.444	0.49	Win2	0.7231000000000001	n/a	Yes	3.12	n/a	n/a	GoodResponse	1	n/a	n/a	7	64	Blank	Win	True
610.928	1.45	Win2	0.7231000000000001	n/a	Yes	3.12	n/a	5.0	GoodResponse	1	0.02	609.948	7	64	Feedback	Win	True
612.383	3.12	Win2	0.7231000000000001	n/a	Yes	3.12	n/a	n/a	GoodResponse	1	0.0	n/a	7	64	ISIslide	Win	True
615.525	0.25	Control	0.7121	0.001	No	2.775	0.025	n/a	NoResponse	0	n/a	n/a	7	65	Cue	Neutral	True
615.776	4.0	Control	0.7121	0.0	No	2.775	0.001	n/a	NoResponse	0	n/a	n/a	7	65	Fixation	Neutral	True
619.771	0.2	Control	0.7121	0.004	No	2.775	-0.004	2.0	NoResponse	0	0.21	618.981	7	65	Target	Neutral	True
619.972	0.5	Control	0.7121	n/a	No	2.775	n/a	n/a	NoResponse	0	n/a	n/a	7	65	Blank	Neutral	True
619.981	0.3	Control	0.7121	0.004	No	2.775	-0.004	2.0	NoResponse	0	0.21	n/a	7	65	ButtonPress	Neutral	True
620.474	1.45	Control	0.7121	n/a	No	2.775	n/a	5.0	NoResponse	0	0.034	619.508	7	65	Feedback	Neutral	True
621.928	2.775	Control	0.7121	n/a	No	2.775	n/a	n/a	NoResponse	0	0.0	n/a	7	65	ISIslide	Neutral	True
624.72	0.25	Win2	0.7015	0.0	No	2.78	0.02	n/a	NoResponse	0	n/a	n/a	7	66	Cue	MissedWin	True
624.97	3.9	Win2	0.7015	0.0	No	2.78	0.0	n/a	NoResponse	0	n/a	n/a	7	66	Fixation	MissedWin	True
628.882	0.19	Win2	0.7015	0.0	No	2.78	0.012	2.0	NoResponse	0	0.237	628.119	7	66	Target	MissedWin	True
629.066	0.51	Win2	0.7015	n/a	No	2.78	n/a	n/a	NoResponse	0	n/a	n/a	7	66	Blank	MissedWin	True
629.119	0.3	Win2	0.7015	0.0	No	2.78	0.012	2.0	NoResponse	0	0.237	n/a	7	66	ButtonPress	MissedWin	True
629.567	1.45	Win2	0.7015	n/a	No	2.78	n/a	5.0	NoResponse	0	0.014	628.581	7	66	Feedback	MissedWin	True
631.022	2.78	Win2	0.7015	n/a	No	2.78	n/a	n/a	NoResponse	0	0.0	n/a	7	66	ISIslide	MissedWin	True
633.83	0.25	Control	0.6912	0.0	No	2.72	0.03	n/a	NoResponse	0	n/a	n/a	7	67	Cue	Neutral	True
634.081	3.95	Control	0.6912	0.0	No	2.72	0.001	n/a	NoResponse	0	n/a	n/a	7	67	Fixation	Neutral	True
638.026	0.18	Control	0.6912	0.004	No	2.72	-0.004	2.0	NoResponse	0	0.213	637.239	7	67	Target	Neutral	True
638.21	0.52	Control	0.6912	n/a	No	2.72	n/a	n/a	NoResponse	0	n/a	n/a	7	67	Blank	Neutral	True
638.239	0.3	Control	0.6912	0.004	No	2.72	-0.004	2.0	NoResponse	0	0.213	n/a	7	67	ButtonPress	Neutral	True
638.728	1.45	Control	0.6912	n/a	No	2.72	n/a	5.0	NoResponse	0	0.024	637.752	7	67	Feedback	Neutral	True
640.182	2.72	Control	0.6912	n/a	No	2.72	n/a	n/a	NoResponse	0	0.0	n/a	7	67	ISIslide	Neutral	True
642.924	0.25	Win2	0.6812	0.0	No	3.076	0.024	n/a	NoResponse	0	n/a	n/a	7	68	Cue	MissedWin	True
643.175	4.0	Win2	0.6812	0.0	No	3.076	0.001	n/a	NoResponse	0	n/a	n/a	7	68	Fixation	MissedWin	True
647.17	0.17	Win2	0.6812	0.004	No	3.076	-0.004	2.0	NoResponse	0	0.229	646.399	7	68	Target	MissedWin	True
647.354	0.53	Win2	0.6812	n/a	No	3.076	n/a	n/a	NoResponse	0	n/a	n/a	7	68	Blank	MissedWin	True
647.399	0.3	Win2	0.6812	0.004	No	3.076	-0.004	2.0	NoResponse	0	0.229	n/a	7	68	ButtonPress	MissedWin	True
647.872	1.45	Win2	0.6812	n/a	No	3.076	n/a	5.0	NoResponse	0	0.002	646.874	7	68	Feedback	MissedWin	True
649.326	3.076	Win2	0.6812	n/a	No	3.076	n/a	n/a	NoResponse	0	0.0	n/a	7	68	ISIslide	MissedWin	True
652.419	0.25	Win2	0.6714	0.0	No	3.231	0.019	n/a	NoResponse	0	n/a	n/a	7	69	Cue	MissedWin	True
652.67	3.95	Win2	0.6714	0.0	No	3.231	0.001	n/a	NoResponse	0	n/a	n/a	7	69	Fixation	MissedWin	True
656.615	0.16	Win2	0.6714	0.004	No	3.231	-0.004	2.0	NoResponse	0	0.206	655.821	7	69	Target	MissedWin	True
656.782	0.54	Win2	0.6714	n/a	No	3.231	n/a	n/a	NoResponse	0	n/a	n/a	7	69	Blank	MissedWin	True
656.821	0.3	Win2	0.6714	0.004	No	3.231	-0.004	2.0	NoResponse	0	0.206	n/a	7	69	ButtonPress	MissedWin	True
657.317	1.45	Win2	0.6714	n/a	No	3.231	n/a	5.0	NoResponse	0	0.02	656.337	7	69	Feedback	MissedWin	True
658.771	3.231	Win2	0.6714	n/a	No	3.231	n/a	n/a	NoResponse	0	0.0	n/a	7	69	ISIslide	MissedWin	True
662.031	0.25	Lose2	0.662	0.0	No	3.019	0.031	n/a	NoResponse	-1	n/a	n/a	6	70	Cue	Loss	False
662.282	4.05	Lose2	0.662	0.0	No	3.019	0.001	2.0	NoResponse	-1	0.06	661.342	6	70	Fixation	Loss	False
662.342	0.3	Lose2	0.662	0.0	No	3.019	0.001	2.0	NoResponse	-1	0.06	n/a	6	70	ButtonPress	Loss	False
666.327	0.15	Lose2	0.662	0.004	No	3.019	-0.004	2.0	NoResponse	-1	0.178	665.505	6	70	Target	Loss	False
666.478	0.55	Lose2	0.662	n/a	No	3.019	n/a	n/a	NoResponse	-1	n/a	n/a	6	70	Blank	Loss	False
666.505	0.3	Lose2	0.662	0.004	No	3.019	-0.004	2.0	NoResponse	-1	0.178	n/a	6	70	ButtonPress	Loss	False
667.029	1.45	Lose2	0.662	n/a	No	3.019	n/a	5.0	NoResponse	-1	0.015	666.044	6	70	Feedback	Loss	False
668.484	3.019	Lose2	0.662	n/a	No	3.019	n/a	n/a	NoResponse	-1	0.0	n/a	6	70	ISIslide	Loss	False
671.526	0.25	Win2	0.6528	0.0	No	2.724	0.026	n/a	NoResponse	0	n/a	n/a	6	71	Cue	MissedWin	True
671.777	4.05	Win2	0.6528	0.0	No	2.724	0.001	n/a	NoResponse	0	n/a	n/a	6	71	Fixation	MissedWin	True
675.822	0.15	Win2	0.6528	0.004	No	2.724	-0.004	2.0	NoResponse	0	0.208	675.03	6	71	Target	MissedWin	True
675.973	0.55	Win2	0.6528	n/a	No	2.724	n/a	n/a	NoResponse	0	n/a	n/a	6	71	Blank	MissedWin	True
676.03	0.3	Win2	0.6528	0.004	No	2.724	-0.004	2.0	NoResponse	0	0.208	n/a	6	71	ButtonPress	MissedWin	True
676.524	1.45	Win2	0.6528	n/a	No	2.724	n/a	5.0	NoResponse	0	0.032	675.556	6	71	Feedback	MissedWin	True
677.979	2.724	Win2	0.6528	n/a	No	2.724	n/a	n/a	NoResponse	0	0.0	n/a	6	71	ISIslide	MissedWin	True
680.72	0.25	Win2	0.6437999999999999	0.0	No	2.78	0.02	n/a	NoResponse	0	n/a	n/a	6	72	Cue	MissedWin	True
680.971	4.1	Win2	0.6437999999999999	0.0	No	2.78	0.001	n/a	NoResponse	0	n/a	n/a	6	72	Fixation	MissedWin	True
685.067	0.16	Win2	0.6437999999999999	0.003	No	2.78	-0.003	2.0	NoResponse	0	0.197	684.264	6	72	Target	MissedWin	True
685.234	0.54	Win2	0.6437999999999999	n/a	No	2.78	n/a	n/a	NoResponse	0	n/a	n/a	6	72	Blank	MissedWin	True
685.264	0.3	Win2	0.6437999999999999	0.003	No	2.78	-0.003	2.0	NoResponse	0	0.197	n/a	6	72	ButtonPress	MissedWin	True
685.769	1.45	Win2	0.6437999999999999	n/a	No	2.78	n/a	5.0	NoResponse	0	0.007	684.776	6	72	Feedback	MissedWin	True
687.223	2.78	Win2	0.6437999999999999	n/a	No	2.78	n/a	n/a	NoResponse	0	0.0	n/a	6	72	ISIslide	MissedWin	True
690.032	0.25	Win2	0.6351	0.0	No	2.668	0.032	n/a	NoResponse	0	n/a	n/a	6	73	Cue	MissedWin	True
690.282	4.0	Win2	0.6351	0.0	No	2.668	0.0	n/a	NoResponse	0	n/a	n/a	6	73	Fixation	MissedWin	True
694.278	0.17	Win2	0.6351	0.004	No	2.668	-0.004	2.0	NoResponse	0	0.216	693.494	6	73	Target	MissedWin	True
694.461	0.53	Win2	0.6351	n/a	No	2.668	n/a	n/a	NoResponse	0	n/a	n/a	6	73	Blank	MissedWin	True
694.494	0.3	Win2	0.6351	0.004	No	2.668	-0.004	2.0	NoResponse	0	0.216	n/a	6	73	ButtonPress	MissedWin	True
694.98	1.45	Win2	0.6351	n/a	No	2.668	n/a	5.0	NoResponse	0	0.016	693.996	6	73	Feedback	MissedWin	True
696.434	2.668	Win2	0.6351	n/a	No	2.668	n/a	n/a	NoResponse	0	0.0	n/a	6	73	ISIslide	MissedWin	True
699.125	0.25	Lose2	0.6267	0.0	No	2.625	0.025	n/a	NoResponse	-1	n/a	n/a	5	74	Cue	Loss	True
699.376	4.05	Lose2	0.6267	0.0	No	2.625	0.001	n/a	NoResponse	-1	n/a	n/a	5	74	Fixation	Loss	True
703.422	0.18	Lose2	0.6267	0.003	No	2.625	-0.003	2.0	NoResponse	-1	0.257	702.679	5	74	Target	Loss	True
703.605	0.52	Lose2	0.6267	n/a	No	2.625	n/a	n/a	NoResponse	-1	n/a	n/a	5	74	Blank	Loss	True
703.679	0.3	Lose2	0.6267	0.003	No	2.625	-0.003	2.0	NoResponse	-1	0.257	n/a	5	74	ButtonPress	Loss	True
704.124	1.45	Lose2	0.6267	n/a	No	2.625	n/a	5.0	NoResponse	-1	0.042	703.166	5	74	Feedback	Loss	True
705.578	2.625	Lose2	0.6267	n/a	No	2.625	n/a	n/a	NoResponse	-1	0.0	n/a	5	74	ISIslide	Loss	True
708.219	0.25	Lose2	0.6184000000000001	0.0	No	2.931	0.019	n/a	NoResponse	-1	n/a	n/a	4	75	Cue	Loss	True
708.47	3.95	Lose2	0.6184000000000001	0.0	No	2.931	0.001	n/a	NoResponse	-1	n/a	n/a	4	75	Fixation	Loss	True
712.415	0.19	Lose2	0.6184000000000001	0.004	No	2.931	-0.004	2.0	NoResponse	-1	0.301	711.716	4	75	Target	Loss	True
712.616	0.51	Lose2	0.6184000000000001	n/a	No	2.931	n/a	n/a	NoResponse	-1	n/a	n/a	4	75	Blank	Loss	True
712.716	0.3	Lose2	0.6184000000000001	0.004	No	2.931	-0.004	2.0	NoResponse	-1	0.301	n/a	4	75	ButtonPress	Loss	True
713.117	1.45	Lose2	0.6184000000000001	n/a	No	2.931	n/a	5.0	NoResponse	-1	0.024	712.141	4	75	Feedback	Loss	True
714.572	2.931	Lose2	0.6184000000000001	n/a	No	2.931	n/a	n/a	NoResponse	-1	0.0	n/a	4	75	ISIslide	Loss	True
717.53	0.25	Control	0.6103999999999999	0.0	No	3.22	0.03	n/a	NoResponse	0	n/a	n/a	4	76	Cue	Neutral	True
717.781	4.05	Control	0.6103999999999999	0.0	No	3.22	0.001	n/a	NoResponse	0	n/a	n/a	4	76	Fixation	Neutral	True
721.827	0.2	Control	0.6103999999999999	0.003	No	3.22	-0.003	2.0	NoResponse	0	0.252	721.079	4	76	Target	Neutral	True
722.027	0.5	Control	0.6103999999999999	n/a	No	3.22	n/a	n/a	NoResponse	0	n/a	n/a	4	76	Blank	Neutral	True
722.079	0.3	Control	0.6103999999999999	0.003	No	3.22	-0.003	2.0	NoResponse	0	0.252	n/a	4	76	ButtonPress	Neutral	True
722.529	1.45	Control	0.6103999999999999	n/a	No	3.22	n/a	5.0	NoResponse	0	0.027	721.556	4	76	Feedback	Neutral	True
723.983	3.22	Control	0.6103999999999999	n/a	No	3.22	n/a	n/a	NoResponse	0	0.0	n/a	4	76	ISIslide	Neutral	True
727.226	0.25	Lose2	0.6154	0.0	Yes	2.574	0.026	n/a	GoodResponse	0	n/a	n/a	4	77	Cue	AvoidedLoss	True
727.477	3.95	Lose2	0.6154	0.0	Yes	2.574	0.001	n/a	GoodResponse	0	n/a	n/a	4	77	Fixation	AvoidedLoss	True
731.422	0.21	Lose2	0.6154	0.004	Yes	2.574	-0.004	2.0	GoodResponse	0	0.195	730.617	4	77	Target	AvoidedLoss	True
731.617	0.3	Lose2	0.6154	0.004	Yes	2.574	-0.004	2.0	GoodResponse	0	0.195	n/a	4	77	ButtonPress	AvoidedLoss	True
731.639	0.49	Lose2	0.6154	n/a	Yes	2.574	n/a	n/a	GoodResponse	0	n/a	n/a	4	77	Blank	AvoidedLoss	True
732.124	1.45	Lose2	0.6154	n/a	Yes	2.574	n/a	5.0	GoodResponse	0	0.042	731.166	4	77	Feedback	AvoidedLoss	True
733.578	2.574	Lose2	0.6154	n/a	Yes	2.574	n/a	n/a	GoodResponse	0	0.0	n/a	4	77	ISIslide	AvoidedLoss	True
