onset	duration	cue_type	current_mean_accuracy	duration_error	is_hit	isi_adjusted	onset_delay	response	response_type	reward	rt	rt_time	total_reward	trial_number	trial_phase	trial_type	one_press
11.103	0.25	Control	1.0	0.0	Yes	2.947	0.003	n/a	GoodResponse	0	n/a	n/a	0	0	Cue	Neutral	True
11.353	3.85	Control	1.0	0.0	Yes	2.947	0.0	n/a	GoodResponse	0	n/a	n/a	0	0	Fixation	Neutral	True
15.215	0.4	Control	1.0	0.0	Yes	2.947	0.012	2.0	GoodResponse	0	0.255	14.47	0	0	Target	Neutral	True
15.47	0.3	Control	1.0	0.0	Yes	2.947	0.012	2.0	GoodResponse	0	0.255	n/a	0	0	ButtonPress	Neutral	True
15.599	0.3	Control	1.0	n/a	Yes	2.947	n/a	n/a	GoodResponse	0	n/a	n/a	0	0	Blank	Neutral	True
15.9	1.45	Control	1.0	n/a	Yes	2.947	n/a	5.0	GoodResponse	0	0.028	14.928	0	0	Feedback	Neutral	True
17.355	2.947	Control	1.0	n/a	Yes	2.947	n/a	n/a	GoodResponse	0	0.0	n/a	0	0	ISIslide	Neutral	True
20.313	0.25	Lose2	1.0	0.001	Yes	2.787	0.013	n/a	GoodResponse	0	n/a	n/a	0	1	Cue	AvoidedLoss	True
20.564	4.0	Lose2	1.0	0.0	Yes	2.787	0.001	n/a	GoodResponse	0	n/a	n/a	0	1	Fixation	AvoidedLoss	True
24.559	0.39	Lose2	1.0	0.004	Yes	2.787	-0.004	2.0	GoodResponse	0	0.242	23.801	0	1	Target	AvoidedLoss	True
24.801	0.3	Lose2	1.0	0.004	Yes	2.787	-0.004	2.0	GoodResponse	0	0.242	n/a	0	1	ButtonPress	AvoidedLoss	True
24.961	0.31	Lose2	1.0	n/a	Yes	2.787	n/a	n/a	GoodResponse	0	n/a	n/a	0	1	Blank	AvoidedLoss	True
25.262	1.45	Lose2	1.0	n/a	Yes	2.787	n/a	5.0	GoodResponse	0	0.032	24.294	0	1	Feedback	AvoidedLoss	True
26.716	2.787	Lose2	1.0	n/a	Yes	2.787	n/a	n/a	GoodResponse	0	0.0	n/a	0	1	ISIslide	AvoidedLoss	True
29.524	0.25	Control	1.0	0.0	Yes	2.576	0.024	n/a	GoodResponse	0	n/a	n/a	0	2	Cue	Neutral	True
29.775	4.1	Control	1.0	0.0	Yes	2.576	0.001	n/a	GoodResponse	0	n/a	n/a	0	2	Fixation	Neutral	True
33.871	0.38	Control	1.0	0.003	Yes	2.576	-0.003	2.0	GoodResponse	0	0.26	33.131	0	2	Target	Neutral	True
34.131	0.3	Control	1.0	0.003	Yes	2.576	-0.003	2.0	GoodResponse	0	0.26	n/a	0	2	ButtonPress	Neutral	True
34.255	0.32	Control	1.0	n/a	Yes	2.576	n/a	n/a	GoodResponse	0	n/a	n/a	0	2	Blank	Neutral	True
34.573	1.45	Control	1.0	n/a	Yes	2.576	n/a	5.0	GoodResponse	0	0.038	33.611	0	2	Feedback	Neutral	True
36.027	2.576	Control	1.0	n/a	Yes	2.576	n/a	n/a	GoodResponse	0	0.0	n/a	0	2	ISIslide	Neutral	True
38.618	0.25	Win2	1.0	0.0	Yes	2.832	0.018	n/a	GoodResponse	1	n/a	n/a	1	3	Cue	Win	True
38.869	3.95	Win2	1.0	0.0	Yes	2.832	0.001	n/a	GoodResponse	1	n/a	n/a	1	3	Fixation	Win	True
42.814	0.37	Win2	1.0	0.004	Yes	2.832	-0.004	2.0	GoodResponse	1	0.242	42.056	1	3	Target	Win	True
43.056	0.3	Win2	1.0	0.004	Yes	2.832	-0.004	2.0	GoodResponse	1	0.242	n/a	1	3	ButtonPress	Win	True
43.199	0.33	Win2	1.0	n/a	Yes	2.832	n/a	n/a	GoodResponse	1	n/a	n/a	1	3	Blank	Win	True
43.516	1.45	Win2	1.0	n/a	Yes	2.832	n/a	5.0	GoodResponse	1	0.022	42.538	1	3	Feedback	Win	True
44.971	2.832	Win2	1.0	n/a	Yes	2.832	n/a	n/a	GoodResponse	1	0.0	n/a	1	3	ISIslide	Win	True
47.829	0.25	Win2	1.0	0.0	Yes	3.271	0.029	n/a	GoodResponse	1	n/a	n/a	2	4	Cue	Win	True
48.08	4.0	Win2	1.0	0.0	Yes	3.271	0.001	n/a	GoodResponse	1	n/a	n/a	2	4	Fixation	Win	True
52.075	0.36	Win2	1.0	0.004	Yes	3.271	-0.004	2.0	GoodResponse	1	0.253	51.328	2	4	Target	Win	True
52.328	0.3	Win2	1.0	0.004	Yes	3.271	-0.004	2.0	GoodResponse	1	0.253	n/a	2	4	ButtonPress	Win	True
52.443	0.34	Win2	1.0	n/a	Yes	3.271	n/a	n/a	GoodResponse	1	n/a	n/a	2	4	Blank	Win	True
52.777	1.45	Win2	1.0	n/a	Yes	3.271	n/a	5.0	GoodResponse	1	0.029	51.806	2	4	Feedback	Win	True
54.232	3.271	Win2	1.0	n/a	Yes	3.271	n/a	n/a	GoodResponse	1	0.0	n/a	2	4	ISIslide	Win	True
57.525	0.25	Win2	1.0	0.0	Yes	2.775	0.025	n/a	GoodResponse	1	n/a	n/a	3	5	Cue	Win	True
57.776	4.0	Win2	1.0	0.0	Yes	2.775	0.001	n/a	GoodResponse	1	n/a	n/a	3	5	Fixation	Win	True
61.771	0.35	Win2	1.0	0.004	Yes	2.775	-0.004	2.0	GoodResponse	1	0.265	61.036	3	5	Target	Win	True
62.036	0.3	Win2	1.0	0.004	Yes	2.775	-0.004	2.0	GoodResponse	1	0.265	n/a	3	5	ButtonPress	Win	True
62.122	0.35	Win2	1.0	n/a	Yes	2.775	n/a	n/a	GoodResponse	1	n/a	n/a	3	5	Blank	Win	True
62.473	1.45	Win2	1.0	n/a	Yes	2.775	n/a	5.0	GoodResponse	1	0.04	61.513	3	5	Feedback	Win	True
63.927	2.775	Win2	1.0	n/a	Yes	2.775	n/a	n/a	GoodResponse	1	0.0	n/a	3	5	ISIslide	Win	True
66.719	0.25	Lose2	1.0	0.0	Yes	2.731	0.019	n/a	GoodResponse	0	n/a	n/a	3	6	Cue	AvoidedLoss	True
66.97	3.95	Lose2	1.0	0.0	Yes	2.731	0.001	n/a	GoodResponse	0	n/a	n/a	3	6	Fixation	AvoidedLoss	True
70.915	0.34	Lose2	1.0	0.004	Yes	2.731	-0.004	2.0	GoodResponse	0	0.227	70.142	3	6	Target	AvoidedLoss	True
71.142	0.3	Lose2	1.0	0.004	Yes	2.731	-0.004	2.0	GoodResponse	0	0.227	n/a	3	6	ButtonPress	AvoidedLoss	True
71.266	0.36	Lose2	1.0	n/a	Yes	2.731	n/a	n/a	GoodResponse	0	n/a	n/a	3	6	Blank	AvoidedLoss	True
71.617	1.45	Lose2	1.0	n/a	Yes	2.731	n/a	5.0	GoodResponse	0	0.018	70.635	3	6	Feedback	AvoidedLoss	True
73.071	2.731	Lose2	1.0	n/a	Yes	2.731	n/a	n/a	GoodResponse	0	0.0	n/a	3	6	ISIslide	AvoidedLoss	True
75.83	0.25	Lose2	1.0	0.0	Yes	4.02	0.03	n/a	GoodResponse	0	n/a	n/a	3	7	Cue	AvoidedLoss	False
76.08	4.05	Lose2	1.0	0.0	Yes	4.02	0.0	2.0	GoodResponse	0	0.143	75.223	3	7	Fixation	AvoidedLoss	False
76.223	0.3	Lose2	1.0	0.0	Yes	4.02	0.0	2.0	GoodResponse	0	0.143	n/a	3	7	ButtonPress	AvoidedLoss	False
80.126	0.33	Lose2	1.0	0.004	Yes	4.02	-0.004	2.0	GoodResponse	0	0.257	79.383	3	7	Target	AvoidedLoss	False
80.383	0.3	Lose2	1.0	0.004	Yes	4.02	-0.004	2.0	GoodResponse	0	0.257	n/a	3	7	ButtonPress	AvoidedLoss	False
80.46	0.37	Lose2	1.0	n/a	Yes	4.02	n/a	n/a	GoodResponse	0	n/a	n/a	3	7	Blank	AvoidedLoss	False
80.828	1.45	Lose2	1.0	n/a	Yes	4.02	n/a	5.0	GoodResponse	0	0.027	79.855	3	7	Feedback	AvoidedLoss	False
82.282	4.02	Lose2	1.0	n/a	Yes	4.02	n/a	n/a	GoodResponse	0	0.0	n/a	3	7	ISIslide	AvoidedLoss	False
86.328	0.25	Lose2	1.0	0.0	Yes	3.022	0.028	n/a	GoodResponse	0	n/a	n/a	3	8	Cue	AvoidedLoss	True
86.578	3.95	Lose2	1.0	0.001	Yes	3.022	0.0	n/a	GoodResponse	0	n/a	n/a	3	8	Fixation	AvoidedLoss	True
90.524	0.32	Lose2	1.0	0.004	Yes	3.022	-0.004	2.0	GoodResponse	0	0.233	89.757	3	8	Target	AvoidedLoss	True
90.757	0.3	Lose2	1.0	0.004	Yes	3.022	-0.004	2.0	GoodResponse	0	0.233	n/a	3	8	ButtonPress	AvoidedLoss	True
90.858	0.38	Lose2	1.0	n/a	Yes	3.022	n/a	n/a	GoodResponse	0	n/a	n/a	3	8	Blank	AvoidedLoss	True
91.226	1.45	Lose2	1.0	n/a	Yes	3.022	n/a	5.0	GoodResponse	0	0.019	90.245	3	8	Feedback	AvoidedLoss	True
92.68	3.022	Lose2	1.0	n/a	Yes	3.022	n/a	n/a	GoodResponse	0	0.0	n/a	3	8	ISIslide	AvoidedLoss	True
95.722	0.25	Lose2	1.0	0.001	Yes	3.128	0.022	n/a	GoodResponse	0	n/a	n/a	3	9	Cue	AvoidedLoss	True
95.973	3.95	Lose2	1.0	0.0	Yes	3.128	0.001	n/a	GoodResponse	0	n/a	n/a	3	9	Fixation	AvoidedLoss	True
99.918	0.31	Lose2	1.0	0.004	Yes	3.128	-0.004	2.0	GoodResponse	0	0.22	99.138	3	9	Target	AvoidedLoss	True
100.138	0.3	Lose2	1.0	0.004	Yes	3.128	-0.004	2.0	GoodResponse	0	0.22	n/a	3	9	ButtonPress	AvoidedLoss	True
100.236	0.39	Lose2	1.0	n/a	Yes	3.128	n/a	n/a	GoodResponse	0	n/a	n/a	3	9	Blank	AvoidedLoss	True
100.62	1.45	Lose2	1.0	n/a	Yes	3.128	n/a	5.0	GoodResponse	0	0.04	99.66	3	9	Feedback	AvoidedLoss	True
102.075	3.128	Lose2	1.0	n/a	Yes	3.128	n/a	n/a	GoodResponse	0	0.0	n/a	3	9	ISIslide	AvoidedLoss	True
105.218	0.25	Control	1.0	0.0	Yes	3.282	0.018	n/a	GoodResponse	0	n/a	n/a	3	10	Cue	Neutral	True
105.468	4.0	Control	1.0	0.0	Yes	3.282	0.0	n/a	GoodResponse	0	n/a	n/a	3	10	Fixation	Neutral	True
109.464	0.3	Control	1.0	0.004	Yes	3.282	-0.004	2.0	GoodResponse	0	0.263	108.727	3	10	Target	Neutral	True
109.727	0.3	Control	1.0	0.004	Yes	3.282	-0.004	2.0	GoodResponse	0	0.263	n/a	3	10	ButtonPress	Neutral	True
109.765	0.4	Control	1.0	n/a	Yes	3.282	n/a	n/a	GoodResponse	0	n/a	n/a	3	10	Blank	Neutral	True
110.166	1.45	Control	1.0	n/a	Yes	3.282	n/a	5.0	GoodResponse	0	0.005	109.171	3	10	Feedback	Neutral	True
111.62	3.282	Control	1.0	n/a	Yes	3.282	n/a	n/a	GoodResponse	0	0.0	n/a	3	10	ISIslide	Neutral	True
114.93	0.25	Lose2	1.0	0.0	Yes	2.72	0.03	n/a	GoodResponse	0	n/a	n/a	3	11	Cue	AvoidedLoss	True
115.181	4.05	Lose2	1.0	0.0	Yes	2.72	0.001	n/a	GoodResponse	0	n/a	n/a	3	11	Fixation	AvoidedLoss	True
119.226	0.29	Lose2	1.0	0.004	Yes	2.72	-0.004	2.0	GoodResponse	0	0.217	118.443	3	11	Target	AvoidedLoss	True
119.443	0.3	Lose2	1.0	0.004	Yes	2.72	-0.004	2.0	GoodResponse	0	0.217	n/a	3	11	ButtonPress	AvoidedLoss	True
119.527	0.41	Lose2	1.0	n/a	Yes	2.72	n/a	n/a	GoodResponse	0	n/a	n/a	3	11	Blank	AvoidedLoss	True
119.928	1.45	Lose2	1.0	n/a	Yes	2.72	n/a	5.0	GoodResponse	0	0.048	118.976	3	11	Feedback	AvoidedLoss	True
121.383	2.72	Lose2	1.0	n/a	Yes	2.72	n/a	n/a	GoodResponse	0	0.0	n/a	3	11	ISIslide	AvoidedLoss	True
124.124	0.25	Control	1.0	0.0	Yes	2.976	0.024	n/a	GoodResponse	0	n/a	n/a	3	12	Cue	Neutral	True
124.375	3.9	Control	1.0	0.0	Yes	2.976	0.001	n/a	GoodResponse	0	n/a	n/a	3	12	Fixation	Neutral	True
128.27	0.28	Control	1.0	0.004	Yes	2.976	-0.004	2.0	GoodResponse	0	0.278	127.548	3	12	Target	Neutral	True
128.548	0.3	Control	1.0	0.004	Yes	2.976	-0.004	2.0	GoodResponse	0	0.278	n/a	3	12	ButtonPress	Neutral	True
128.554	0.42	Control	1.0	n/a	Yes	2.976	n/a	n/a	GoodResponse	0	n/a	n/a	3	12	Blank	Neutral	True
128.972	1.45	Control	1.0	n/a	Yes	2.976	n/a	5.0	GoodResponse	0	0.029	128.001	3	12	Feedback	Neutral	True
130.426	2.976	Control	1.0	n/a	Yes	2.976	n/a	n/a	GoodResponse	0	0.0	n/a	3	12	ISIslide	Neutral	True
133.419	0.25	Control	1.0	0.0	Yes	2.781	0.019	n/a	GoodResponse	0	n/a	n/a	3	13	Cue	Neutral	True
133.669	4.0	Control	1.0	0.0	Yes	2.781	0.0	n/a	GoodResponse	0	n/a	n/a	3	13	Fixation	Neutral	True
137.665	0.27	Control	1.0	0.004	Yes	2.781	-0.004	2.0	GoodResponse	0	0.219	136.884	3	13	Target	Neutral	True
137.884	0.3	Control	1.0	0.004	Yes	2.781	-0.004	2.0	GoodResponse	0	0.219	n/a	3	13	ButtonPress	Neutral	True
137.949	0.43	Control	1.0	n/a	Yes	2.781	n/a	n/a	GoodResponse	0	n/a	n/a	3	13	Blank	Neutral	True
138.367	1.45	Control	1.0	n/a	Yes	2.781	n/a	5.0	GoodResponse	0	0.048	137.415	3	13	Feedback	Neutral	True
139.821	2.781	Control	1.0	n/a	Yes	2.781	n/a	n/a	GoodResponse	0	0.0	n/a	3	13	ISIslide	Neutral	True
142.63	0.25	Win2	1.0	0.0	Yes	2.67	0.03	n/a	GoodResponse	1	n/a	n/a	4	14	Cue	Win	True
142.88	4.1	Win2	1.0	0.0	Yes	2.67	0.0	n/a	GoodResponse	1	n/a	n/a	4	14	Fixation	Win	True
146.976	0.26	Win2	1.0	0.004	Yes	2.67	-0.004	2.0	GoodResponse	1	0.224	146.2	4	14	Target	Win	True
147.2	0.3	Win2	1.0	0.004	Yes	2.67	-0.004	2.0	GoodResponse	1	0.224	n/a	4	14	ButtonPress	Win	True
147.243	0.44	Win2	1.0	n/a	Yes	2.67	n/a	n/a	GoodResponse	1	n/a	n/a	4	14	Blank	Win	True
147.678	1.45	Win2	1.0	n/a	Yes	2.67	n/a	5.0	GoodResponse	1	0.006	146.684	4	14	Feedback	Win	True
149.132	2.67	Win2	1.0	n/a	Yes	2.67	n/a	n/a	GoodResponse	1	0.0	n/a	4	14	ISIslide	Win	True
151.824	0.25	Control	1.0	0.0	Yes	2.976	0.024	n/a	GoodResponse	0	n/a	n/a	4	15	Cue	Neutral	True
152.075	4.0	Control	1.0	0.0	Yes	2.976	0.001	n/a	GoodResponse	0	n/a	n/a	4	15	Fixation	Neutral	True
156.07	0.25	Control	1.0	0.004	Yes	2.976	-0.004	2.0	GoodResponse	0	0.206	155.276	4	15	Target	Neutral	True
156.276	0.3	Control	1.0	0.004	Yes	2.976	-0.004	2.0	GoodResponse	0	0.206	n/a	4	15	ButtonPress	Neutral	True
156.321	0.45	Control	1.0	n/a	Yes	2.976	n/a	n/a	GoodResponse	0	n/a	n/a	4	15	Blank	Neutral	True
156.772	1.45	Control	1.0	n/a	Yes	2.976	n/a	5.0	GoodResponse	0	0.033	155.805	4	15	Feedback	Neutral	True
158.226	2.976	Control	1.0	n/a	Yes	2.976	n/a	n/a	GoodResponse	0	0.0	n/a	4	15	ISIslide	Neutral	True
161.219	0.25	Win2	1.0	0.0	Yes	2.881	0.019	n/a	GoodResponse	1	n/a	n/a	5	16	Cue	Win	True
161.469	4.0	Win2	1.0	0.0	Yes	2.881	0.0	n/a	GoodResponse	1	n/a	n/a	5	16	Fixation	Win	True
165.465	0.24	Win2	1.0	0.004	Yes	2.881	-0.004	2.0	GoodResponse	1	0.22	164.685	5	16	Target	Win	True
165.685	0.3	Win2	1.0	0.004	Yes	2.881	-0.004	2.0	GoodResponse	1	0.22	n/a	5	16	ButtonPress	Win	True
165.715	0.46	Win2	1.0	n/a	Yes	2.881	n/a	n/a	GoodResponse	1	n/a	n/a	5	16	Blank	Win	True
166.167	1.45	Win2	1.0	n/a	Yes	2.881	n/a	5.0	GoodResponse	1	0.005	165.172	5	16	Feedback	Win	True
167.621	2.881	Win2	1.0	n/a	Yes	2.881	n/a	n/a	GoodResponse	1	0.0	n/a	5	16	ISIslide	Win	True
170.53	0.25	Lose2	0.9444	0.0	No	2.72	0.03	n/a	NoResponse	-1	n/a	n/a	4	17	Cue	Loss	True
170.78	3.95	Lose2	0.9444	0.001	No	2.72	0.0	n/a	NoResponse	-1	n/a	n/a	4	17	Fixation	Loss	True
174.726	0.23	Lose2	0.9444	0.004	No	2.72	-0.004	2.0	NoResponse	-1	0.259	173.985	4	17	Target	Loss	True
174.96	0.47	Lose2	0.9444	n/a	No	2.72	n/a	n/a	NoResponse	-1	n/a	n/a	4	17	Blank	Loss	True
174.985	0.3	Lose2	0.9444	0.004	No	2.72	-0.004	2.0	NoResponse	-1	0.259	n/a	4	17	ButtonPress	Loss	True
175.428	1.45	Lose2	0.9444	n/a	No	2.72	n/a	5.0	NoResponse	-1	0.011	174.439	4	17	Feedback	Loss	True
176.882	2.72	Lose2	0.9444	n/a	No	2.72	n/a	n/a	NoResponse	-1	0.0	n/a	4	17	ISIslide	Loss	True
179.624	0.25	Lose2	0.8946999999999999	0.0	No	2.726	0.024	n/a	NoResponse	-1	n/a	n/a	3	18	Cue	Loss	True
179.874	4.05	Lose2	0.8946999999999999	0.0	No	2.726	0.0	n/a	NoResponse	-1	n/a	n/a	3	18	Fixation	Loss	True
183.92	0.22	Lose2	0.8946999999999999	0.004	No	2.726	-0.004	2.0	NoResponse	-1	0.249	183.169	3	18	Target	Loss	True
184.154	0.48	Lose2	0.8946999999999999	n/a	No	2.726	n/a	n/a	NoResponse	-1	n/a	n/a	3	18	Blank	Loss	True
184.169	0.3	Lose2	0.8946999999999999	0.004	No	2.726	-0.004	2.0	NoResponse	-1	0.249	n/a	3	18	ButtonPress	Loss	True
184.622	1.45	Lose2	0.8946999999999999	n/a	No	2.726	n/a	5.0	NoResponse	-1	0.037	183.659	3	18	Feedback	Loss	True
186.076	2.726	Lose2	0.8946999999999999	n/a	No	2.726	n/a	n/a	NoResponse	-1	0.0	n/a	3	18	ISIslide	Loss	True
188.818	0.25	Control	0.85	0.0	No	2.932	0.018	n/a	LatePress	0	n/a	n/a	3	19	Cue	Neutral	True
189.069	3.95	Control	0.85	0.0	No	2.932	0.001	n/a	LatePress	0	n/a	n/a	3	19	Fixation	Neutral	True
193.014	0.21	Control	0.85	0.004	No	2.932	-0.004	2.0	LatePress	0	0.212	192.226	3	19	Target	Neutral	True
193.226	0.3	Control	0.85	0.004	No	2.932	-0.004	2.0	LatePress	0	0.212	n/a	3	19	ButtonPress	Neutral	True
193.231	0.49	Control	0.85	n/a	No	2.932	n/a	n/a	LatePress	0	n/a	n/a	3	19	Blank	Neutral	True
193.716	1.45	Control	0.85	n/a	No	2.932	n/a	5.0	LatePress	0	0.016	192.732	3	19	Feedback	Neutral	True
195.17	2.932	Control	0.85	n/a	No	2.932	n/a	n/a	LatePress	0	0.0	n/a	3	19	ISIslide	Neutral	True
198.129	0.25	Control	0.8095	0.0	No	2.621	0.029	n/a	NoResponse	0	n/a	n/a	3	20	Cue	Neutral	True
198.38	4.05	Control	0.8095	0.0	No	2.621	0.001	n/a	NoResponse	0	n/a	n/a	3	20	Fixation	Neutral	True
202.425	0.2	Control	0.8095	0.004	No	2.621	-0.004	2.0	NoResponse	0	0.214	201.639	3	20	Target	Neutral	True
202.626	0.5	Control	0.8095	n/a	No	2.621	n/a	n/a	NoResponse	0	n/a	n/a	3	20	Blank	Neutral	True
202.639	0.3	Control	0.8095	0.004	No	2.621	-0.004	2.0	NoResponse	0	0.214	n/a	3	20	ButtonPress	Neutral	True
203.127	1.45	Control	0.8095	n/a	No	2.621	n/a	5.0	NoResponse	0	0.02	202.147	3	20	Feedback	Neutral	True
204.582	2.621	Control	0.8095	n/a	No	2.621	n/a	n/a	NoResponse	0	0.0	n/a	3	20	ISIslide	Neutral	True
207.223	0.25	Control	0.7726999999999999	0.0	No	2.777	0.023	n/a	NoResponse	0	n/a	n/a	3	21	Cue	Neutral	True
207.474	4.1	Control	0.7726999999999999	0.0	No	2.777	0.001	n/a	NoResponse	0	n/a	n/a	3	21	Fixation	Neutral	True
211.569	0.19	Control	0.7726999999999999	0.004	No	2.777	-0.004	2.0	NoResponse	0	0.235	210.804	3	21	Target	Neutral	True
211.77	0.51	Control	0.7726999999999999	n/a	No	2.777	n/a	n/a	NoResponse	0	n/a	n/a	3	21	Blank	Neutral	True
211.804	0.3	Control	0.7726999999999999	0.004	No	2.777	-0.004	2.0	NoResponse	0	0.235	n/a	3	21	ButtonPress	Neutral	True
212.271	1.45	Control	0.7726999999999999	n/a	No	2.777	n/a	5.0	NoResponse	0	0.046	211.317	3	21	Feedback	Neutral	True
213.726	2.777	Control	0.7726999999999999	n/a	No	2.777	n/a	n/a	NoResponse	0	0.0	n/a	3	21	ISIslide	Neutral	True
216.517	0.25	Control	0.7391	0.001	No	2.783	0.017	n/a	NoResponse	0	n/a	n/a	3	22	Cue	Neutral	True
216.768	4.0	Control	0.7391	0.0	No	2.783	0.001	n/a	NoResponse	0	n/a	n/a	3	22	Fixation	Neutral	True
220.763	0.18	Control	0.7391	0.004	No	2.783	-0.004	2.0	NoResponse	0	0.215	219.978	3	22	Target	Neutral	True
220.947	0.52	Control	0.7391	n/a	No	2.783	n/a	n/a	NoResponse	0	n/a	n/a	3	22	Blank	Neutral	True
220.978	0.3	Control	0.7391	0.004	No	2.783	-0.004	2.0	NoResponse	0	0.215	n/a	3	22	ButtonPress	Neutral	True
221.466	1.45	Control	0.7391	n/a	No	2.783	n/a	5.0	NoResponse	0	0.022	220.488	3	22	Feedback	Neutral	True
222.92	2.783	Control	0.7391	n/a	No	2.783	n/a	n/a	NoResponse	0	0.0	n/a	3	22	ISIslide	Neutral	True
225.728	0.25	Control	0.7082999999999999	0.0	No	2.772	0.028	n/a	NoResponse	0	n/a	n/a	3	23	Cue	Neutral	True
225.979	3.9	Control	0.7082999999999999	0.0	No	2.772	0.001	n/a	NoResponse	0	n/a	n/a	3	23	Fixation	Neutral	True
229.874	0.17	Control	0.7082999999999999	0.004	No	2.772	-0.004	2.0	NoResponse	0	0.257	229.131	3	23	Target	Neutral	True
230.058	0.53	Control	0.7082999999999999	n/a	No	2.772	n/a	n/a	NoResponse	0	n/a	n/a	3	23	Blank	Neutral	True
230.131	0.3	Control	0.7082999999999999	0.004	No	2.772	-0.004	2.0	NoResponse	0	0.257	n/a	3	23	ButtonPress	Neutral	True
230.576	1.45	Control	0.7082999999999999	n/a	No	2.772	n/a	5.0	NoResponse	0	0.034	229.61	3	23	Feedback	Neutral	True
232.031	2.772	Control	0.7082999999999999	n/a	No	2.772	n/a	n/a	NoResponse	0	0.0	n/a	3	23	ISIslide	Neutral	True
234.822	0.25	Win2	0.68	0.0	No	3.128	0.022	n/a	NoResponse	0	n/a	n/a	3	24	Cue	MissedWin	True
235.073	3.95	Win2	0.68	0.0	No	3.128	0.001	n/a	NoResponse	0	n/a	n/a	3	24	Fixation	MissedWin	True
239.018	0.16	Win2	0.68	0.004	No	3.128	-0.004	2.0	NoResponse	0	0.229	238.247	3	24	Target	MissedWin	True
239.185	0.54	Win2	0.68	n/a	No	3.128	n/a	n/a	NoResponse	0	n/a	n/a	3	24	Blank	MissedWin	True
239.247	0.3	Win2	0.68	0.004	No	3.128	-0.004	2.0	NoResponse	0	0.229	n/a	3	24	ButtonPress	MissedWin	True
239.72	1.45	Win2	0.68	n/a	No	3.128	n/a	5.0	NoResponse	0	0.012	238.732	3	24	Feedback	MissedWin	True
241.175	3.128	Win2	0.68	n/a	No	3.128	n/a	n/a	NoResponse	0	0.0	n/a	3	24	ISIslide	MissedWin	True
244.317	0.25	Win2	0.6537999999999999	0.0	No	3.083	0.017	n/a	NoResponse	0	n/a	n/a	3	25	Cue	MissedWin	True
244.568	4.0	Win2	0.6537999999999999	0.0	No	3.083	0.001	n/a	NoResponse	0	n/a	n/a	3	25	Fixation	MissedWin	True
248.563	0.15	Win2	0.6537999999999999	0.004	No	3.083	-0.004	2.0	NoResponse	0	0.211	247.774	3	25	Target	MissedWin	True
248.714	0.55	Win2	0.6537999999999999	n/a	No	3.083	n/a	n/a	NoResponse	0	n/a	n/a	3	25	Blank	MissedWin	True
248.774	0.3	Win2	0.6537999999999999	0.004	No	3.083	-0.004	2.0	NoResponse	0	0.211	n/a	3	25	ButtonPress	MissedWin	True
249.265	1.45	Win2	0.6537999999999999	n/a	No	3.083	n/a	5.0	NoResponse	0	0.028	248.293	3	25	Feedback	MissedWin	True
250.72	3.083	Win2	0.6537999999999999	n/a	No	3.083	n/a	n/a	NoResponse	0	0.0	n/a	3	25	ISIslide	MissedWin	True
253.829	0.25	Win2	0.6296	0.0	No	2.921	0.029	n/a	NoResponse	0	n/a	n/a	3	26	Cue	MissedWin	True
254.08	3.95	Win2	0.6296	0.0	No	2.921	0.001	n/a	NoResponse	0	n/a	n/a	3	26	Fixation	MissedWin	True
258.025	0.16	Win2	0.6296	0.004	No	2.921	-0.004	2.0	NoResponse	0	0.211	257.236	3	26	Target	MissedWin	True
258.192	0.54	Win2	0.6296	n/a	No	2.921	n/a	n/a	NoResponse	0	n/a	n/a	3	26	Blank	MissedWin	True
258.236	0.3	Win2	0.6296	0.004	No	2.921	-0.004	2.0	NoResponse	0	0.211	n/a	3	26	ButtonPress	MissedWin	True
258.727	1.45	Win2	0.6296	n/a	No	2.921	n/a	5.0	NoResponse	0	0.028	257.755	3	26	Feedback	MissedWin	True
260.181	2.921	Win2	0.6296	n/a	No	2.921	n/a	n/a	NoResponse	0	0.0	n/a	3	26	ISIslide	MissedWin	True
263.124	0.25	Lose2	0.6071	0.0	No	2.826	0.024	n/a	NoResponse	-1	n/a	n/a	2	27	Cue	Loss	True
263.374	4.05	Lose2	0.6071	0.0	No	2.826	0.0	n/a	NoResponse	-1	n/a	n/a	2	27	Fixation	Loss	True
267.42	0.17	Lose2	0.6071	0.004	No	2.826	-0.004	2.0	NoResponse	-1	0.225	266.645	2	27	Target	Loss	True
267.604	0.53	Lose2	0.6071	n/a	No	2.826	n/a	n/a	NoResponse	-1	n/a	n/a	2	27	Blank	Loss	True
267.645	0.3	Lose2	0.6071	0.004	No	2.826	-0.004	2.0	NoResponse	-1	0.225	n/a	2	27	ButtonPress	Loss	True
268.122	1.45	Lose2	0.6071	n/a	No	2.826	n/a	5.0	NoResponse	-1	0.048	267.17	2	27	Feedback	Loss	True
269.576	2.826	Lose2	0.6071	n/a	No	2.826	n/a	n/a	NoResponse	-1	0.0	n/a	2	27	ISIslide	Loss	True
272.418	0.25	Control	0.5861999999999999	0.0	No	2.832	0.018	n/a	NoResponse	0	n/a	n/a	2	28	Cue	Neutral	True
272.669	4.05	Control	0.5861999999999999	0.0	No	2.832	0.001	n/a	NoResponse	0	n/a	n/a	2	28	Fixation	Neutral	True
276.714	0.18	Control	0.5861999999999999	0.004	No	2.832	-0.004	2.0	NoResponse	0	0.218	275.932	2	28	Target	Neutral	True
276.898	0.52	Control	0.5861999999999999	n/a	No	2.832	n/a	n/a	NoResponse	0	n/a	n/a	2	28	Blank	Neutral	True
276.932	0.3	Control	0.5861999999999999	0.004	No	2.832	-0.004	2.0	NoResponse	0	0.218	n/a	2	28	ButtonPress	Neutral	True
277.416	1.45	Control	0.5861999999999999	n/a	No	2.832	n/a	5.0	NoResponse	0	0.023	276.439	2	28	Feedback	Neutral	True
278.871	2.832	Control	0.5861999999999999	n/a	No	2.832	n/a	n/a	NoResponse	0	0.0	n/a	2	28	ISIslide	Neutral	True
281.729	0.25	Lose2	0.5667	0.0	No	2.821	0.029	n/a	NoResponse	-1	n/a	n/a	1	29	Cue	Loss	True
281.98	3.95	Lose2	0.5667	0.0	No	2.821	0.001	n/a	NoResponse	-1	n/a	n/a	1	29	Fixation	Loss	True
285.925	0.19	Lose2	0.5667	0.004	No	2.821	-0.004	2.0	NoResponse	-1	0.219	285.144	1	29	Target	Loss	True
286.126	0.51	Lose2	0.5667	n/a	No	2.821	n/a	n/a	NoResponse	-1	n/a	n/a	1	29	Blank	Loss	True
286.144	0.3	Lose2	0.5667	0.004	No	2.821	-0.004	2.0	NoResponse	-1	0.219	n/a	1	29	ButtonPress	Loss	True
286.627	1.45	Lose2	0.5667	n/a	No	2.821	n/a	5.0	NoResponse	-1	0.031	285.658	1	29	Feedback	Loss	True
288.082	2.821	Lose2	0.5667	n/a	No	2.821	n/a	n/a	NoResponse	-1	0.0	n/a	1	29	ISIslide	Loss	True
290.923	0.25	Win2	0.5484	0.001	No	2.777	0.023	n/a	NoResponse	0	n/a	n/a	1	30	Cue	MissedWin	True
291.174	3.9	Win2	0.5484	0.0	No	2.777	0.001	n/a	NoResponse	0	n/a	n/a	1	30	Fixation	MissedWin	True
295.069	0.2	Win2	0.5484	0.004	No	2.777	-0.004	2.0	NoResponse	0	0.257	294.326	1	30	Target	MissedWin	True
295.27	0.5	Win2	0.5484	n/a	No	2.777	n/a	n/a	NoResponse	0	n/a	n/a	1	30	Blank	MissedWin	True
295.326	0.3	Win2	0.5484	0.004	No	2.777	-0.004	2.0	NoResponse	0	0.257	n/a	1	30	ButtonPress	MissedWin	True
295.771	1.45	Win2	0.5484	n/a	No	2.777	n/a	5.0	NoResponse	0	0.009	294.78	1	30	Feedback	MissedWin	True
297.226	2.777	Win2	0.5484	n/a	No	2.777	n/a	n/a	NoResponse	0	0.0	n/a	1	30	ISIslide	MissedWin	True
300.017	0.25	Lose2	0.5312	0.0	No	2.833	0.017	n/a	LatePress	-1	n/a	n/a	0	31	Cue	Loss	True
300.268	4.05	Lose2	0.5312	0.0	No	2.833	0.001	n/a	LatePress	-1	n/a	n/a	0	31	Fixation	Loss	True
304.314	0.21	Lose2	0.5312	0.003	No	2.833	-0.003	2.0	LatePress	-1	0.216	303.53	0	31	Target	Loss	True
304.53	0.3	Lose2	0.5312	0.003	No	2.833	-0.003	2.0	LatePress	-1	0.216	n/a	0	31	ButtonPress	Loss	True
304.531	0.49	Lose2	0.5312	n/a	No	2.833	n/a	n/a	LatePress	-1	n/a	n/a	0	31	Blank	Loss	True
305.016	1.45	Lose2	0.5312	n/a	No	2.833	n/a	5.0	LatePress	-1	0.033	304.049	0	31	Feedback	Loss	True
306.47	2.833	Lose2	0.5312	n/a	No	2.833	n/a	n/a	LatePress	-1	0.0	n/a	0	31	ISIslide	Loss	True
309.329	0.25	Lose2	0.5152	0.0	No	2.621	0.029	n/a	LatePress	-1	n/a	n/a	-1	32	Cue	Loss	True
309.579	4.15	Lose2	0.5152	0.0	No	2.621	0.0	n/a	LatePress	-1	n/a	n/a	-1	32	Fixation	Loss	True
313.725	0.22	Lose2	0.5152	0.004	No	2.621	-0.004	2.0	LatePress	-1	0.224	312.949	-1	32	Target	Loss	True
313.949	0.3	Lose2	0.5152	0.004	No	2.621	-0.004	2.0	LatePress	-1	0.224	n/a	-1	32	ButtonPress	Loss	True
313.959	0.48	Lose2	0.5152	n/a	No	2.621	n/a	n/a	LatePress	-1	n/a	n/a	-1	32	Blank	Loss	True
314.427	1.45	Lose2	0.5152	n/a	No	2.621	n/a	5.0	LatePress	-1	0.035	313.462	-1	32	Feedback	Loss	True
315.881	2.621	Lose2	0.5152	n/a	No	2.621	n/a	n/a	LatePress	-1	0.0	n/a	-1	32	ISIslide	Loss	True
318.523	0.25	Win2	0.5294	0.0	Yes	2.677	0.023	n/a	GoodResponse	1	n/a	n/a	0	33	Cue	Win	True
318.773	4.0	Win2	0.5294	0.001	Yes	2.677	0.0	n/a	GoodResponse	1	n/a	n/a	0	33	Fixation	Win	True
322.769	0.23	Win2	0.5294	0.004	Yes	2.677	-0.004	2.0	GoodResponse	1	0.198	321.967	0	33	Target	Win	True
322.967	0.3	Win2	0.5294	0.004	Yes	2.677	-0.004	2.0	GoodResponse	1	0.198	n/a	0	33	ButtonPress	Win	True
323.003	0.47	Win2	0.5294	n/a	Yes	2.677	n/a	n/a	GoodResponse	1	n/a	n/a	0	33	Blank	Win	True
323.471	1.45	Win2	0.5294	n/a	Yes	2.677	n/a	5.0	GoodResponse	1	0.016	322.487	0	33	Feedback	Win	True
324.925	2.677	Win2	0.5294	n/a	Yes	2.677	n/a	n/a	GoodResponse	1	0.0	n/a	0	33	ISIslide	Win	True
327.617	0.25	Lose2	0.5428999999999999	0.0	Yes	2.633	0.017	n/a	GoodResponse	0	n/a	n/a	0	34	Cue	AvoidedLoss	True
327.867	4.05	Lose2	0.5428999999999999	0.0	Yes	2.633	0.0	n/a	GoodResponse	0	n/a	n/a	0	34	Fixation	AvoidedLoss	True
331.913	0.24	Lose2	0.5428999999999999	0.004	Yes	2.633	-0.004	2.0	GoodResponse	0	0.222	331.135	0	34	Target	AvoidedLoss	True
332.135	0.3	Lose2	0.5428999999999999	0.004	Yes	2.633	-0.004	2.0	GoodResponse	0	0.222	n/a	0	34	ButtonPress	AvoidedLoss	True
332.164	0.46	Lose2	0.5428999999999999	n/a	Yes	2.633	n/a	n/a	GoodResponse	0	n/a	n/a	0	34	Blank	AvoidedLoss	True
332.615	1.45	Lose2	0.5428999999999999	n/a	Yes	2.633	n/a	5.0	GoodResponse	0	0.043	331.658	0	34	Feedback	AvoidedLoss	True
334.069	2.633	Lose2	0.5428999999999999	n/a	Yes	2.633	n/a	n/a	GoodResponse	0	0.0	n/a	0	34	ISIslide	AvoidedLoss	True
336.727	0.25	Lose2	0.5556	0.0	Yes	2.673	0.027	n/a	GoodResponse	0	n/a	n/a	0	35	Cue	AvoidedLoss	True
336.978	4.0	Lose2	0.5556	0.0	Yes	2.673	0.001	n/a	GoodResponse	0	n/a	n/a	0	35	Fixation	AvoidedLoss	True
340.973	0.25	Lose2	0.5556	0.004	Yes	2.673	-0.004	2.0	GoodResponse	0	0.228	340.201	0	35	Target	AvoidedLoss	True
341.201	0.3	Lose2	0.5556	0.004	Yes	2.673	-0.004	2.0	GoodResponse	0	0.228	n/a	0	35	ButtonPress	AvoidedLoss	True
341.224	0.45	Lose2	0.5556	n/a	Yes	2.673	n/a	n/a	GoodResponse	0	n/a	n/a	0	35	Blank	AvoidedLoss	True
341.675	1.45	Lose2	0.5556	n/a	Yes	2.673	n/a	5.0	GoodResponse	0	0.007	340.682	0	35	Feedback	AvoidedLoss	True
343.13	2.673	Lose2	0.5556	n/a	Yes	2.673	n/a	n/a	GoodResponse	0	0.0	n/a	0	35	ISIslide	AvoidedLoss	True
345.821	0.25	Control	0.5676	0.0	Yes	2.679	0.021	n/a	GoodResponse	0	n/a	n/a	0	36	Cue	Neutral	True
346.072	4.0	Control	0.5676	0.0	Yes	2.679	0.001	n/a	GoodResponse	0	n/a	n/a	0	36	Fixation	Neutral	True
350.067	0.26	Control	0.5676	0.004	Yes	2.679	-0.004	2.0	GoodResponse	0	0.242	349.309	0	36	Target	Neutral	True
350.309	0.3	Control	0.5676	0.004	Yes	2.679	-0.004	2.0	GoodResponse	0	0.242	n/a	0	36	ButtonPress	Neutral	True
350.335	0.44	Control	0.5676	n/a	Yes	2.679	n/a	n/a	GoodResponse	0	n/a	n/a	0	36	Blank	Neutral	True
350.769	1.45	Control	0.5676	n/a	Yes	2.679	n/a	5.0	GoodResponse	0	0.035	349.804	0	36	Feedback	Neutral	True
352.224	2.679	Control	0.5676	n/a	Yes	2.679	n/a	n/a	GoodResponse	0	0.0	n/a	0	36	ISIslide	Neutral	True
354.915	0.25	Win2	0.5789	0.0	Yes	2.885	0.015	n/a	GoodResponse	1	n/a	n/a	1	37	Cue	Win	True
355.166	4.0	Win2	0.5789	0.0	Yes	2.885	0.001	n/a	GoodResponse	1	n/a	n/a	1	37	Fixation	Win	True
359.161	0.27	Win2	0.5789	0.004	Yes	2.885	-0.004	2.0	GoodResponse	1	0.256	358.417	1	37	Target	Win	True
359.417	0.3	Win2	0.5789	0.004	Yes	2.885	-0.004	2.0	GoodResponse	1	0.256	n/a	1	37	ButtonPress	Win	True
359.445	0.43	Win2	0.5789	n/a	Yes	2.885	n/a	n/a	GoodResponse	1	n/a	n/a	1	37	Blank	Win	True
359.863	1.45	Win2	0.5789	n/a	Yes	2.885	n/a	5.0	GoodResponse	1	0.014	358.877	1	37	Feedback	Win	True
361.317	2.885	Win2	0.5789	n/a	Yes	2.885	n/a	n/a	GoodResponse	1	0.0	n/a	1	37	ISIslide	Win	True
364.226	0.25	Lose2	0.5897	0.0	Yes	2.824	0.026	n/a	GoodResponse	0	n/a	n/a	1	38	Cue	AvoidedLoss	True
364.477	3.95	Lose2	0.5897	0.0	Yes	2.824	0.001	n/a	GoodResponse	0	n/a	n/a	1	38	Fixation	AvoidedLoss	True
368.422	0.28	Lose2	0.5897	0.004	Yes	2.824	-0.004	2.0	GoodResponse	0	0.255	367.677	1	38	Target	AvoidedLoss	True
368.677	0.3	Lose2	0.5897	0.004	Yes	2.824	-0.004	2.0	GoodResponse	0	0.255	n/a	1	38	ButtonPress	AvoidedLoss	True
368.706	0.42	Lose2	0.5897	n/a	Yes	2.824	n/a	n/a	GoodResponse	0	n/a	n/a	1	38	Blank	AvoidedLoss	True
369.124	1.45	Lose2	0.5897	n/a	Yes	2.824	n/a	5.0	GoodResponse	0	0.021	368.145	1	38	Feedback	AvoidedLoss	True
370.579	2.824	Lose2	0.5897	n/a	Yes	2.824	n/a	n/a	GoodResponse	0	0.0	n/a	1	38	ISIslide	AvoidedLoss	True
373.42	0.25	Win2	0.6	0.0	Yes	2.98	0.02	n/a	GoodResponse	1	n/a	n/a	2	39	Cue	Win	True
373.671	4.1	Win2	0.6	0.0	Yes	2.98	0.001	n/a	GoodResponse	1	n/a	n/a	2	39	Fixation	Win	True
377.767	0.29	Win2	0.6	0.003	Yes	2.98	-0.003	2.0	GoodResponse	1	0.24	377.007	2	39	Target	Win	True
378.007	0.3	Win2	0.6	0.003	Yes	2.98	-0.003	2.0	GoodResponse	1	0.24	n/a	2	39	ButtonPress	Win	True
378.068	0.41	Win2	0.6	n/a	Yes	2.98	n/a	n/a	GoodResponse	1	n/a	n/a	2	39	Blank	Win	True
378.469	1.45	Win2	0.6	n/a	Yes	2.98	n/a	5.0	GoodResponse	1	0.042	377.511	2	39	Feedback	Win	True
379.923	2.98	Win2	0.6	n/a	Yes	2.98	n/a	n/a	GoodResponse	1	0.0	n/a	2	39	ISIslide	Win	True
382.915	0.25	Win2	0.6098	0.001	Yes	2.735	0.015	n/a	GoodResponse	1	n/a	n/a	3	40	Cue	Win	True
383.166	3.95	Win2	0.6098	0.0	Yes	2.735	0.001	n/a	GoodResponse	1	n/a	n/a	3	40	Fixation	Win	True
387.111	0.3	Win2	0.6098	0.004	Yes	2.735	-0.004	2.0	GoodResponse	1	0.283	386.394	3	40	Target	Win	True
387.394	0.3	Win2	0.6098	0.004	Yes	2.735	-0.004	2.0	GoodResponse	1	0.283	n/a	3	40	ButtonPress	Win	True
387.412	0.4	Win2	0.6098	n/a	Yes	2.735	n/a	n/a	GoodResponse	1	n/a	n/a	3	40	Blank	Win	True
387.813	1.45	Win2	0.6098	n/a	Yes	2.735	n/a	5.0	GoodResponse	1	0.015	386.828	3	40	Feedback	Win	True
389.268	2.735	Win2	0.6098	n/a	Yes	2.735	n/a	n/a	GoodResponse	1	0.0	n/a	3	40	ISIslide	Win	True
392.026	0.25	Win2	0.619	0.0	Yes	2.774	0.026	n/a	GoodResponse	1	n/a	n/a	4	41	Cue	Win	True
392.277	3.9	Win2	0.619	0.0	Yes	2.774	0.001	n/a	GoodResponse	1	n/a	n/a	4	41	Fixation	Win	True
396.172	0.31	Win2	0.619	0.004	Yes	2.774	-0.004	2.0	GoodResponse	1	0.248	395.42	4	41	Target	Win	True
396.42	0.3	Win2	0.619	0.004	Yes	2.774	-0.004	2.0	GoodResponse	1	0.248	n/a	4	41	ButtonPress	Win	True
396.489	0.39	Win2	0.619	n/a	Yes	2.774	n/a	n/a	GoodResponse	1	n/a	n/a	4	41	Blank	Win	True
396.874	1.45	Win2	0.619	n/a	Yes	2.774	n/a	5.0	GoodResponse	1	0.028	395.902	4	41	Feedback	Win	True
398.328	2.774	Win2	0.619	n/a	Yes	2.774	n/a	n/a	GoodResponse	1	0.0	n/a	4	41	ISIslide	Win	True
401.12	0.25	Control	0.6047	0.0	No	2.93	0.02	n/a	NoResponse	0	n/a	n/a	4	42	Cue	Neutral	True
401.371	3.85	Control	0.6047	0.0	No	2.93	0.001	n/a	NoResponse	0	n/a	n/a	4	42	Fixation	Neutral	True
405.216	0.32	Control	0.6047	0.004	No	2.93	-0.004	2.0	NoResponse	0	0.341	404.557	4	42	Target	Neutral	True
405.55	0.38	Control	0.6047	n/a	No	2.93	n/a	n/a	NoResponse	0	n/a	n/a	4	42	Blank	Neutral	True
405.557	0.3	Control	0.6047	0.004	No	2.93	-0.004	2.0	NoResponse	0	0.341	n/a	4	42	ButtonPress	Neutral	True
405.918	1.45	Control	0.6047	n/a	No	2.93	n/a	5.0	NoResponse	0	0.008	404.926	4	42	Feedback	Neutral	True
407.372	2.93	Control	0.6047	n/a	No	2.93	n/a	n/a	NoResponse	0	0.0	n/a	4	42	ISIslide	Neutral	True
410.331	0.25	Win2	0.6136	0.0	Yes	3.169	0.031	n/a	GoodResponse	1	n/a	n/a	5	43	Cue	Win	True
410.582	4.0	Win2	0.6136	0.0	Yes	3.169	0.001	n/a	GoodResponse	1	n/a	n/a	5	43	Fixation	Win	True
414.577	0.33	Win2	0.6136	0.004	Yes	3.169	-0.004	2.0	GoodResponse	1	0.219	413.796	5	43	Target	Win	True
414.796	0.3	Win2	0.6136	0.004	Yes	3.169	-0.004	2.0	GoodResponse	1	0.219	n/a	5	43	ButtonPress	Win	True
414.911	0.37	Win2	0.6136	n/a	Yes	3.169	n/a	n/a	GoodResponse	1	n/a	n/a	5	43	Blank	Win	True
415.279	1.45	Win2	0.6136	n/a	Yes	3.169	n/a	5.0	GoodResponse	1	0.012	414.291	5	43	Feedback	Win	True
416.733	3.169	Win2	0.6136	n/a	Yes	3.169	n/a	n/a	GoodResponse	1	0.0	n/a	5	43	ISIslide	Win	True
419.926	0.25	Win2	0.6222	0.0	Yes	2.974	0.026	n/a	GoodResponse	1	n/a	n/a	6	44	Cue	Win	True
420.177	4.0	Win2	0.6222	0.0	Yes	2.974	0.001	n/a	GoodResponse	1	n/a	n/a	6	44	Fixation	Win	True
424.172	0.34	Win2	0.6222	0.004	Yes	2.974	-0.004	2.0	GoodResponse	1	0.229	423.401	6	44	Target	Win	True
424.401	0.3	Win2	0.6222	0.004	Yes	2.974	-0.004	2.0	GoodResponse	1	0.229	n/a	6	44	ButtonPress	Win	True
424.523	0.36	Win2	0.6222	n/a	Yes	2.974	n/a	n/a	GoodResponse	1	n/a	n/a	6	44	Blank	Win	True
424.874	1.45	Win2	0.6222	n/a	Yes	2.974	n/a	5.0	GoodResponse	1	0.027	423.901	6	44	Feedback	Win	True
426.329	2.974	Win2	0.6222	n/a	Yes	2.974	n/a	n/a	GoodResponse	1	0.0	n/a	6	44	ISIslide	Win	True
429.321	0.25	Control	0.6304	0.0	Yes	2.879	0.021	n/a	GoodResponse	0	n/a	n/a	6	45	Cue	Neutral	True
429.572	4.1	Control	0.6304	0.0	Yes	2.879	0.001	n/a	GoodResponse	0	n/a	n/a	6	45	Fixation	Neutral	True
433.667	0.35	Control	0.6304	0.004	Yes	2.879	-0.004	2.0	GoodResponse	0	0.284	432.951	6	45	Target	Neutral	True
433.951	0.3	Control	0.6304	0.004	Yes	2.879	-0.004	2.0	GoodResponse	0	0.284	n/a	6	45	ButtonPress	Neutral	True
434.018	0.35	Control	0.6304	n/a	Yes	2.879	n/a	n/a	GoodResponse	0	n/a	n/a	6	45	Blank	Neutral	True
434.37	1.45	Control	0.6304	n/a	Yes	2.879	n/a	5.0	GoodResponse	0	0.043	433.413	6	45	Feedback	Neutral	True
435.824	2.879	Control	0.6304	n/a	Yes	2.879	n/a	n/a	GoodResponse	0	0.0	n/a	6	45	ISIslide	Neutral	True
438.716	0.25	Lose2	0.6383	0.0	Yes	3.384	0.016	n/a	GoodResponse	0	n/a	n/a	6	46	Cue	AvoidedLoss	True
438.967	4.0	Lose2	0.6383	0.0	Yes	3.384	0.001	n/a	GoodResponse	0	n/a	n/a	6	46	Fixation	AvoidedLoss	True
442.962	0.36	Lose2	0.6383	0.004	Yes	3.384	-0.004	2.0	GoodResponse	0	0.217	442.179	6	46	Target	AvoidedLoss	True
443.179	0.3	Lose2	0.6383	0.004	Yes	3.384	-0.004	2.0	GoodResponse	0	0.217	n/a	6	46	ButtonPress	AvoidedLoss	True
443.33	0.34	Lose2	0.6383	n/a	Yes	3.384	n/a	n/a	GoodResponse	0	n/a	n/a	6	46	Blank	AvoidedLoss	True
443.664	1.45	Lose2	0.6383	n/a	Yes	3.384	n/a	5.0	GoodResponse	0	0.018	442.682	6	46	Feedback	AvoidedLoss	True
445.118	3.384	Lose2	0.6383	n/a	Yes	3.384	n/a	n/a	GoodResponse	0	0.0	n/a	6	46	ISIslide	AvoidedLoss	True
448.529	0.25	Lose2	0.6457999999999999	0.0	Yes	2.671	0.029	n/a	GoodResponse	0	n/a	n/a	6	47	Cue	AvoidedLoss	True
448.779	4.0	Lose2	0.6457999999999999	0.0	Yes	2.671	0.0	n/a	GoodResponse	0	n/a	n/a	6	47	Fixation	AvoidedLoss	True
452.775	0.37	Lose2	0.6457999999999999	0.004	Yes	2.671	-0.004	2.0	GoodResponse	0	0.2	451.975	6	47	Target	AvoidedLoss	True
452.975	0.3	Lose2	0.6457999999999999	0.004	Yes	2.671	-0.004	2.0	GoodResponse	0	0.2	n/a	6	47	ButtonPress	AvoidedLoss	True
453.159	0.33	Lose2	0.6457999999999999	n/a	Yes	2.671	n/a	n/a	GoodResponse	0	n/a	n/a	6	47	Blank	AvoidedLoss	True
453.477	1.45	Lose2	0.6457999999999999	n/a	Yes	2.671	n/a	5.0	GoodResponse	0	0.01	452.487	6	47	Feedback	AvoidedLoss	True
454.931	2.671	Lose2	0.6457999999999999	n/a	Yes	2.671	n/a	n/a	GoodResponse	0	0.0	n/a	6	47	ISIslide	AvoidedLoss	True
457.622	0.25	Lose2	0.6531	0.001	Yes	3.028	0.022	n/a	GoodResponse	0	n/a	n/a	6	48	Cue	AvoidedLoss	True
457.873	3.95	Lose2	0.6531	0.0	Yes	3.028	0.001	n/a	GoodResponse	0	n/a	n/a	6	48	Fixation	AvoidedLoss	True
461.818	0.38	Lose2	0.6531	0.004	Yes	3.028	-0.004	2.0	GoodResponse	0	0.256	461.074	6	48	Target	AvoidedLoss	True
462.074	0.3	Lose2	0.6531	0.004	Yes	3.028	-0.004	2.0	GoodResponse	0	0.256	n/a	6	48	ButtonPress	AvoidedLoss	True
462.203	0.32	Lose2	0.6531	n/a	Yes	3.028	n/a	n/a	GoodResponse	0	n/a	n/a	6	48	Blank	AvoidedLoss	True
462.52	1.45	Lose2	0.6531	n/a	Yes	3.028	n/a	5.0	GoodResponse	0	0.039	461.559	6	48	Feedback	AvoidedLoss	True
463.975	3.028	Lose2	0.6531	n/a	Yes	3.028	n/a	n/a	GoodResponse	0	0.0	n/a	6	48	ISIslide	AvoidedLoss	True
467.017	0.25	Control	0.66	0.0	Yes	2.883	0.017	n/a	GoodResponse	0	n/a	n/a	6	49	Cue	Neutral	True
467.268	4.0	Control	0.66	0.0	Yes	2.883	0.001	n/a	GoodResponse	0	n/a	n/a	6	49	Fixation	Neutral	True
471.263	0.39	Control	0.66	0.004	Yes	2.883	-0.004	2.0	GoodResponse	0	0.265	470.528	6	49	Target	Neutral	True
471.528	0.3	Control	0.66	0.004	Yes	2.883	-0.004	2.0	GoodResponse	0	0.265	n/a	6	49	ButtonPress	Neutral	True
471.664	0.31	Control	0.66	n/a	Yes	2.883	n/a	n/a	GoodResponse	0	n/a	n/a	6	49	Blank	Neutral	True
471.965	1.45	Control	0.66	n/a	Yes	2.883	n/a	5.0	GoodResponse	0	0.009	470.974	6	49	Feedback	Neutral	True
473.42	2.883	Control	0.66	n/a	Yes	2.883	n/a	n/a	GoodResponse	0	0.0	n/a	6	49	ISIslide	Neutral	True
476.328	0.25	Control	0.6667000000000001	0.001	Yes	2.772	0.028	n/a	GoodResponse	0	n/a	n/a	6	50	Cue	Neutral	True
476.579	4.0	Control	0.6667000000000001	0.0	Yes	2.772	0.001	n/a	GoodResponse	0	n/a	n/a	6	50	Fixation	Neutral	True
480.574	0.39	Control	0.6667000000000001	0.004	Yes	2.772	-0.004	2.0	GoodResponse	0	0.302	479.876	6	50	Target	Neutral	True
480.876	0.3	Control	0.6667000000000001	0.004	Yes	2.772	-0.004	2.0	GoodResponse	0	0.302	n/a	6	50	ButtonPress	Neutral	True
480.976	0.31	Control	0.6667000000000001	n/a	Yes	2.772	n/a	n/a	GoodResponse	0	n/a	n/a	6	50	Blank	Neutral	True
481.277	1.45	Control	0.6667000000000001	n/a	Yes	2.772	n/a	5.0	GoodResponse	0	0.014	480.291	6	50	Feedback	Neutral	True
482.731	2.772	Control	0.6667000000000001	n/a	Yes	2.772	n/a	n/a	GoodResponse	0	0.0	n/a	6	50	ISIslide	Neutral	True
485.523	0.25	Control	0.6731	0.0	Yes	2.727	0.023	n/a	GoodResponse	0	n/a	n/a	6	51	Cue	Neutral	True
485.773	3.95	Control	0.6731	0.0	Yes	2.727	0.0	n/a	GoodResponse	0	n/a	n/a	6	51	Fixation	Neutral	True
489.719	0.38	Control	0.6731	0.004	Yes	2.727	-0.004	2.0	GoodResponse	0	0.321	489.04	6	51	Target	Neutral	True
490.04	0.3	Control	0.6731	0.004	Yes	2.727	-0.004	2.0	GoodResponse	0	0.321	n/a	6	51	ButtonPress	Neutral	True
490.103	0.32	Control	0.6731	n/a	Yes	2.727	n/a	n/a	GoodResponse	0	n/a	n/a	6	51	Blank	Neutral	True
490.421	1.45	Control	0.6731	n/a	Yes	2.727	n/a	5.0	GoodResponse	0	0.041	489.462	6	51	Feedback	Neutral	True
491.875	2.727	Control	0.6731	n/a	Yes	2.727	n/a	n/a	GoodResponse	0	0.0	n/a	6	51	ISIslide	Neutral	True
494.617	0.25	Control	0.6792	0.0	Yes	2.633	0.017	n/a	GoodResponse	0	n/a	n/a	6	52	Cue	Neutral	True
494.867	4.05	Control	0.6792	0.0	Yes	2.633	0.0	n/a	GoodResponse	0	n/a	n/a	6	52	Fixation	Neutral	True
498.913	0.37	Control	0.6792	0.004	Yes	2.633	-0.004	2.0	GoodResponse	0	0.264	498.177	6	52	Target	Neutral	True
499.177	0.3	Control	0.6792	0.004	Yes	2.633	-0.004	2.0	GoodResponse	0	0.264	n/a	6	52	ButtonPress	Neutral	True
499.297	0.33	Control	0.6792	n/a	Yes	2.633	n/a	n/a	GoodResponse	0	n/a	n/a	6	52	Blank	Neutral	True
499.615	1.45	Control	0.6792	n/a	Yes	2.633	n/a	5.0	GoodResponse	0	0.018	498.633	6	52	Feedback	Neutral	True
501.069	2.633	Control	0.6792	n/a	Yes	2.633	n/a	n/a	GoodResponse	0	0.0	n/a	6	52	ISIslide	Neutral	True
503.727	0.25	Win2	0.6851999999999999	0.0	Yes	2.923	0.027	n/a	GoodResponse	1	n/a	n/a	7	53	Cue	Win	True
503.978	4.05	Win2	0.6851999999999999	0.0	Yes	2.923	0.001	n/a	GoodResponse	1	n/a	n/a	7	53	Fixation	Win	True
508.023	0.36	Win2	0.6851999999999999	0.004	Yes	2.923	-0.004	2.0	GoodResponse	1	0.257	507.28	7	53	Target	Win	True
508.28	0.3	Win2	0.6851999999999999	0.004	Yes	2.923	-0.004	2.0	GoodResponse	1	0.257	n/a	7	53	ButtonPress	Win	True
508.391	0.34	Win2	0.6851999999999999	n/a	Yes	2.923	n/a	n/a	GoodResponse	1	n/a	n/a	7	53	Blank	Win	True
508.725	1.45	Win2	0.6851999999999999	n/a	Yes	2.923	n/a	5.0	GoodResponse	1	0.029	507.754	7	53	Feedback	Win	True
510.18	2.923	Win2	0.6851999999999999	n/a	Yes	2.923	n/a	n/a	GoodResponse	1	0.0	n/a	7	53	ISIslide	Win	True
513.122	0.25	Win2	0.6909000000000001	0.0	Yes	2.728	0.022	n/a	GoodResponse	1	n/a	n/a	8	54	Cue	Win	True
513.373	3.95	Win2	0.6909000000000001	0.0	Yes	2.728	0.001	n/a	GoodResponse	1	n/a	n/a	8	54	Fixation	Win	True
517.318	0.35	Win2	0.6909000000000001	0.004	Yes	2.728	-0.004	2.0	GoodResponse	1	0.275	516.593	8	54	Target	Win	True
517.593	0.3	Win2	0.6909000000000001	0.004	Yes	2.728	-0.004	2.0	GoodResponse	1	0.275	n/a	8	54	ButtonPress	Win	True
517.669	0.35	Win2	0.6909000000000001	n/a	Yes	2.728	n/a	n/a	GoodResponse	1	n/a	n/a	8	54	Blank	Win	True
518.02	1.45	Win2	0.6909000000000001	n/a	Yes	2.728	n/a	5.0	GoodResponse	1	0.008	517.028	8	54	Feedback	Win	True
519.474	2.728	Win2	0.6909000000000001	n/a	Yes	2.728	n/a	n/a	GoodResponse	1	0.0	n/a	8	54	ISIslide	Win	True
522.216	0.25	Control	0.6964	0.0	Yes	3.034	0.016	n/a	GoodResponse	0	n/a	n/a	8	55	Cue	Neutral	True
522.467	3.95	Control	0.6964	0.0	Yes	3.034	0.001	n/a	GoodResponse	0	n/a	n/a	8	55	Fixation	Neutral	True
526.412	0.34	Control	0.6964	0.004	Yes	3.034	-0.004	2.0	GoodResponse	0	0.222	525.634	8	55	Target	Neutral	True
526.634	0.3	Control	0.6964	0.004	Yes	3.034	-0.004	2.0	GoodResponse	0	0.222	n/a	8	55	ButtonPress	Neutral	True
526.763	0.36	Control	0.6964	n/a	Yes	3.034	n/a	n/a	GoodResponse	0	n/a	n/a	8	55	Blank	Neutral	True
527.114	1.45	Control	0.6964	n/a	Yes	3.034	n/a	5.0	GoodResponse	0	0.03	526.144	8	55	Feedback	Neutral	True
528.568	3.034	Control	0.6964	n/a	Yes	3.034	n/a	n/a	GoodResponse	0	0.0	n/a	8	55	ISIslide	Neutral	True
531.627	0.25	Control	0.7018000000000001	0.0	Yes	2.823	0.027	n/a	GoodResponse	0	n/a	n/a	8	56	Cue	Neutral	True
531.878	3.95	Control	0.7018000000000001	0.0	Yes	2.823	0.001	n/a	GoodResponse	0	n/a	n/a	8	56	Fixation	Neutral	True
535.823	0.33	Control	0.7018000000000001	0.004	Yes	2.823	-0.004	2.0	GoodResponse	0	0.245	535.068	8	56	Target	Neutral	True
536.068	0.3	Control	0.7018000000000001	0.004	Yes	2.823	-0.004	2.0	GoodResponse	0	0.245	n/a	8	56	ButtonPress	Neutral	True
536.158	0.37	Control	0.7018000000000001	n/a	Yes	2.823	n/a	n/a	GoodResponse	0	n/a	n/a	8	56	Blank	Neutral	True
536.525	1.45	Control	0.7018000000000001	n/a	Yes	2.823	n/a	5.0	GoodResponse	0	0.034	535.559	8	56	Feedback	Neutral	True
537.98	2.823	Control	0.7018000000000001	n/a	Yes	2.823	n/a	n/a	GoodResponse	0	0.0	n/a	8	56	ISIslide	Neutral	True
540.821	0.25	Control	0.6897	0.001	No	3.479	0.021	n/a	NoResponse	0	n/a	n/a	8	57	Cue	Neutral	True
541.072	4.0	Control	0.6897	0.0	No	3.479	0.001	n/a	NoResponse	0	n/a	n/a	8	57	Fixation	Neutral	True
545.068	0.32	Control	0.6897	0.003	No	3.479	-0.003	2.0	NoResponse	0	0.413	544.481	8	57	Target	Neutral	True
545.402	0.38	Control	0.6897	n/a	No	3.479	n/a	n/a	NoResponse	0	n/a	n/a	8	57	Blank	Neutral	True
545.481	0.3	Control	0.6897	0.003	No	3.479	-0.003	2.0	NoResponse	0	0.413	n/a	8	57	ButtonPress	Neutral	True
545.77	1.45	Control	0.6897	n/a	No	3.479	n/a	5.0	NoResponse	0	0.009	544.779	8	57	Feedback	Neutral	True
547.224	3.479	Control	0.6897	n/a	No	3.479	n/a	n/a	NoResponse	0	0.0	n/a	8	57	ISIslide	Neutral	True
550.718	0.25	Win2	0.6949	0.0	Yes	2.732	0.018	n/a	GoodResponse	1	n/a	n/a	9	58	Cue	Win	True
550.969	4.05	Win2	0.6949	0.0	Yes	2.732	0.001	n/a	GoodResponse	1	n/a	n/a	9	58	Fixation	Win	True
555.014	0.31	Win2	0.6949	0.004	Yes	2.732	-0.004	2.0	GoodResponse	1	0.234	554.248	9	58	Target	Win	True
555.248	0.3	Win2	0.6949	0.004	Yes	2.732	-0.004	2.0	GoodResponse	1	0.234	n/a	9	58	ButtonPress	Win	True
555.332	0.39	Win2	0.6949	n/a	Yes	2.732	n/a	n/a	GoodResponse	1	n/a	n/a	9	58	Blank	Win	True
555.716	1.45	Win2	0.6949	n/a	Yes	2.732	n/a	5.0	GoodResponse	1	0.014	554.73	9	58	Feedback	Win	True
557.17	2.732	Win2	0.6949	n/a	Yes	2.732	n/a	n/a	GoodResponse	1	0.0	n/a	9	58	ISIslide	Win	True
559.929	0.25	Lose2	0.7	0.0	Yes	2.671	0.029	n/a	GoodResponse	0	n/a	n/a	9	59	Cue	AvoidedLoss	True
560.179	4.0	Lose2	0.7	0.0	Yes	2.671	0.0	n/a	GoodResponse	0	n/a	n/a	9	59	Fixation	AvoidedLoss	True
564.175	0.3	Lose2	0.7	0.004	Yes	2.671	-0.004	2.0	GoodResponse	0	0.224	563.399	9	59	Target	AvoidedLoss	True
564.399	0.3	Lose2	0.7	0.004	Yes	2.671	-0.004	2.0	GoodResponse	0	0.224	n/a	9	59	ButtonPress	AvoidedLoss	True
564.476	0.4	Lose2	0.7	n/a	Yes	2.671	n/a	n/a	GoodResponse	0	n/a	n/a	9	59	Blank	AvoidedLoss	True
564.877	1.45	Lose2	0.7	n/a	Yes	2.671	n/a	5.0	GoodResponse	0	0.023	563.9	9	59	Feedback	AvoidedLoss	True
566.331	2.671	Lose2	0.7	n/a	Yes	2.671	n/a	n/a	GoodResponse	0	0.0	n/a	9	59	ISIslide	AvoidedLoss	True
569.023	0.25	Control	0.6884999999999999	0.0	No	2.677	0.023	n/a	NoResponse	0	n/a	n/a	9	60	Cue	Neutral	True
569.273	4.0	Control	0.6884999999999999	0.0	No	2.677	0.0	n/a	NoResponse	0	n/a	n/a	9	60	Fixation	Neutral	True
573.269	0.29	Control	0.6884999999999999	0.004	No	2.677	-0.004	2.0	NoResponse	0	0.317	572.586	9	60	Target	Neutral	True
573.57	0.41	Control	0.6884999999999999	n/a	No	2.677	n/a	n/a	NoResponse	0	n/a	n/a	9	60	Blank	Neutral	True
573.586	0.3	Control	0.6884999999999999	0.004	No	2.677	-0.004	2.0	NoResponse	0	0.317	n/a	9	60	ButtonPress	Neutral	True
573.971	1.45	Control	0.6884999999999999	n/a	No	2.677	n/a	5.0	NoResponse	0	0.002	572.973	9	60	Feedback	Neutral	True
575.425	2.677	Control	0.6884999999999999	n/a	No	2.677	n/a	n/a	NoResponse	0	0.0	n/a	9	60	ISIslide	Neutral	True
578.116	0.25	Lose2	0.6934999999999999	0.001	Yes	2.984	0.016	n/a	GoodResponse	0	n/a	n/a	9	61	Cue	AvoidedLoss	True
578.367	4.0	Lose2	0.6934999999999999	0.0	Yes	2.984	0.001	n/a	GoodResponse	0	n/a	n/a	9	61	Fixation	AvoidedLoss	True
582.362	0.28	Lose2	0.6934999999999999	0.004	Yes	2.984	-0.004	2.0	GoodResponse	0	0.258	581.62	9	61	Target	AvoidedLoss	True
582.62	0.3	Lose2	0.6934999999999999	0.004	Yes	2.984	-0.004	2.0	GoodResponse	0	0.258	n/a	9	61	ButtonPress	AvoidedLoss	True
582.647	0.42	Lose2	0.6934999999999999	n/a	Yes	2.984	n/a	n/a	GoodResponse	0	n/a	n/a	9	61	Blank	AvoidedLoss	True
583.065	1.45	Lose2	0.6934999999999999	n/a	Yes	2.984	n/a	5.0	GoodResponse	0	0.03	582.095	9	61	Feedback	AvoidedLoss	True
584.519	2.984	Lose2	0.6934999999999999	n/a	Yes	2.984	n/a	n/a	GoodResponse	0	0.0	n/a	9	61	ISIslide	AvoidedLoss	True
587.528	0.25	Lose2	0.6984	0.0	Yes	2.872	0.028	n/a	GoodResponse	0	n/a	n/a	9	62	Cue	AvoidedLoss	True
587.779	3.9	Lose2	0.6984	0.0	Yes	2.872	0.001	n/a	GoodResponse	0	n/a	n/a	9	62	Fixation	AvoidedLoss	True
591.674	0.27	Lose2	0.6984	0.004	Yes	2.872	-0.004	2.0	GoodResponse	0	0.229	590.903	9	62	Target	AvoidedLoss	True
591.903	0.3	Lose2	0.6984	0.004	Yes	2.872	-0.004	2.0	GoodResponse	0	0.229	n/a	9	62	ButtonPress	AvoidedLoss	True
591.958	0.43	Lose2	0.6984	n/a	Yes	2.872	n/a	n/a	GoodResponse	0	n/a	n/a	9	62	Blank	AvoidedLoss	True
592.376	1.45	Lose2	0.6984	n/a	Yes	2.872	n/a	5.0	GoodResponse	0	0.036	591.412	9	62	Feedback	AvoidedLoss	True
593.83	2.872	Lose2	0.6984	n/a	Yes	2.872	n/a	n/a	GoodResponse	0	0.0	n/a	9	62	ISIslide	AvoidedLoss	True
596.722	0.25	Lose2	0.6875	0.0	No	2.628	0.022	n/a	NoResponse	-1	n/a	n/a	8	63	Cue	Loss	True
596.973	4.05	Lose2	0.6875	0.0	No	2.628	0.001	n/a	NoResponse	-1	n/a	n/a	8	63	Fixation	Loss	True
601.018	0.26	Lose2	0.6875	0.004	No	2.628	-0.004	2.0	NoResponse	-1	0.277	600.295	8	63	Target	Loss	True
601.286	0.44	Lose2	0.6875	n/a	No	2.628	n/a	n/a	NoResponse	-1	n/a	n/a	8	63	Blank	Loss	True
601.295	0.3	Lose2	0.6875	0.004	No	2.628	-0.004	2.0	NoResponse	-1	0.277	n/a	8	63	ButtonPress	Loss	True
601.72	1.45	Lose2	0.6875	n/a	No	2.628	n/a	5.0	NoResponse	-1	0.009	600.729	8	63	Feedback	Loss	True
603.175	2.628	Lose2	0.6875	n/a	No	2.628	n/a	n/a	NoResponse	-1	0.0	n/a	8	63	ISIslide	Loss	True
605.816	0.25	Win2	0.6923	0.0	Yes	3.134	0.016	n/a	GoodResponse	1	n/a	n/a	9	64	Cue	Win	True
606.067	4.15	Win2	0.6923	0.0	Yes	3.134	0.001	n/a	GoodResponse	1	n/a	n/a	9	64	Fixation	Win	True
610.213	0.25	Win2	0.6923	0.003	Yes	3.134	-0.003	2.0	GoodResponse	1	0.24	609.453	9	64	Target	Win	True
610.453	0.3	Win2	0.6923	0.003	Yes	3.134	-0.003	2.0	GoodResponse	1	0.24	n/a	9	64	ButtonPress	Win	True
610.463	0.45	Win2	0.6923	n/a	Yes	3.134	n/a	n/a	GoodResponse	1	n/a	n/a	9	64	Blank	Win	True
610.915	1.45	Win2	0.6923	n/a	Yes	3.134	n/a	5.0	GoodResponse	1	0.033	609.948	9	64	Feedback	Win	True
612.369	3.134	Win2	0.6923	n/a	Yes	3.134	n/a	n/a	GoodResponse	1	0.0	n/a	9	64	ISIslide	Win	True
615.528	0.25	Control	0.6818000000000001	0.001	No	2.772	0.028	n/a	NoResponse	0	n/a	n/a	9	65	Cue	Neutral	True
615.779	4.0	Control	0.6818000000000001	0.0	No	2.772	0.001	n/a	NoResponse	0	n/a	n/a	9	65	Fixation	Neutral	True
619.774	0.24	Control	0.6818000000000001	0.004	No	2.772	-0.004	2.0	NoResponse	0	0.266	619.04	9	65	Target	Neutral	True
620.025	0.46	Control	0.6818000000000001	n/a	No	2.772	n/a	n/a	NoResponse	0	n/a	n/a	9	65	Blank	Neutral	True
620.04	0.3	Control	0.6818000000000001	0.004	No	2.772	-0.004	2.0	NoResponse	0	0.266	n/a	9	65	ButtonPress	Neutral	True
620.477	1.45	Control	0.6818000000000001	n/a	No	2.772	n/a	5.0	NoResponse	0	0.032	619.509	9	65	Feedback	Neutral	True
621.931	2.772	Control	0.6818000000000001	n/a	No	2.772	n/a	n/a	NoResponse	0	0.0	n/a	9	65	ISIslide	Neutral	True
624.723	0.25	Win2	0.6716	0.0	No	2.777	0.023	n/a	NoResponse	0	n/a	n/a	9	66	Cue	MissedWin	False
624.973	3.9	Win2	0.6716	0.0	No	2.777	0.0	2.0	NoResponse	0	0.098	624.071	9	66	Fixation	MissedWin	False
625.071	0.3	Win2	0.6716	0.0	No	2.777	0.0	2.0	NoResponse	0	0.098	n/a	9	66	ButtonPress	MissedWin	False
628.885	0.23	Win2	0.6716	0.0	No	2.777	0.012	2.0	NoResponse	0	0.225	628.11	9	66	Target	MissedWin	False
629.102	0.47	Win2	0.6716	n/a	No	2.777	n/a	n/a	NoResponse	0	n/a	n/a	9	66	Blank	MissedWin	False
629.11	0.3	Win2	0.6716	0.0	No	2.777	0.012	2.0	NoResponse	0	0.225	n/a	9	66	ButtonPress	MissedWin	False
629.57	1.45	Win2	0.6716	n/a	No	2.777	n/a	5.0	NoResponse	0	0.012	628.582	9	66	Feedback	MissedWin	False
631.025	2.777	Win2	0.6716	n/a	No	2.777	n/a	n/a	NoResponse	0	0.0	n/a	9	66	ISIslide	MissedWin	False
633.817	0.25	Control	0.6618	0.0	No	2.733	0.017	n/a	NoResponse	0	n/a	n/a	9	67	Cue	Neutral	True
634.067	3.95	Control	0.6618	0.0	No	2.733	0.0	n/a	NoResponse	0	n/a	n/a	9	67	Fixation	Neutral	True
638.029	0.22	Control	0.6618	0.0	No	2.733	0.012	2.0	NoResponse	0	0.537	637.566	9	67	Target	Neutral	True
638.246	0.48	Control	0.6618	n/a	No	2.733	n/a	n/a	NoResponse	0	n/a	n/a	9	67	Blank	Neutral	True
638.566	0.3	Control	0.6618	0.0	No	2.733	0.012	2.0	NoResponse	0	0.537	n/a	9	67	ButtonPress	Neutral	True
638.715	1.45	Control	0.6618	n/a	No	2.733	n/a	5.0	NoResponse	0	0.038	637.753	9	67	Feedback	Neutral	True
640.169	2.733	Control	0.6618	n/a	No	2.733	n/a	n/a	NoResponse	0	0.0	n/a	9	67	ISIslide	Neutral	True
642.927	0.25	Win2	0.6522	0.0	No	3.073	0.027	n/a	LatePress	0	n/a	n/a	9	68	Cue	MissedWin	True
643.178	4.0	Win2	0.6522	0.0	No	3.073	0.001	n/a	LatePress	0	n/a	n/a	9	68	Fixation	MissedWin	True
647.173	0.22	Win2	0.6522	0.004	No	3.073	-0.004	2.0	LatePress	0	0.232	646.405	9	68	Target	MissedWin	True
647.405	0.3	Win2	0.6522	0.004	No	3.073	-0.004	2.0	LatePress	0	0.232	n/a	9	68	ButtonPress	MissedWin	True
647.407	0.48	Win2	0.6522	n/a	No	3.073	n/a	n/a	LatePress	0	n/a	n/a	9	68	Blank	MissedWin	True
647.875	1.45	Win2	0.6522	n/a	No	3.073	n/a	5.0	LatePress	0	0.049	646.924	9	68	Feedback	MissedWin	True
649.33	3.073	Win2	0.6522	n/a	No	3.073	n/a	n/a	LatePress	0	0.0	n/a	9	68	ISIslide	MissedWin	True
652.422	0.25	Win2	0.6429	0.0	No	3.228	0.022	n/a	NoResponse	0	n/a	n/a	9	69	Cue	MissedWin	True
652.673	3.95	Win2	0.6429	0.0	No	3.228	0.001	n/a	NoResponse	0	n/a	n/a	9	69	Fixation	MissedWin	True
656.618	0.23	Win2	0.6429	0.004	No	3.228	-0.004	2.0	NoResponse	0	0.263	655.881	9	69	Target	MissedWin	True
656.852	0.47	Win2	0.6429	n/a	No	3.228	n/a	n/a	NoResponse	0	n/a	n/a	9	69	Blank	MissedWin	True
656.881	0.3	Win2	0.6429	0.004	No	3.228	-0.004	2.0	NoResponse	0	0.263	n/a	9	69	ButtonPress	MissedWin	True
657.32	1.45	Win2	0.6429	n/a	No	3.228	n/a	5.0	NoResponse	0	0.019	656.339	9	69	Feedback	MissedWin	True
658.775	3.228	Win2	0.6429	n/a	No	3.228	n/a	n/a	NoResponse	0	0.0	n/a	9	69	ISIslide	MissedWin	True
662.018	0.25	Lose2	0.6479	0.0	Yes	3.032	0.018	n/a	GoodResponse	0	n/a	n/a	9	70	Cue	AvoidedLoss	True
662.268	4.05	Lose2	0.6479	0.0	Yes	3.032	0.0	n/a	GoodResponse	0	n/a	n/a	9	70	Fixation	AvoidedLoss	True
666.314	0.24	Lose2	0.6479	0.004	Yes	3.032	-0.004	2.0	GoodResponse	0	0.207	665.521	9	70	Target	AvoidedLoss	True
666.521	0.3	Lose2	0.6479	0.004	Yes	3.032	-0.004	2.0	GoodResponse	0	0.207	n/a	9	70	ButtonPress	AvoidedLoss	True
666.565	0.46	Lose2	0.6479	n/a	Yes	3.032	n/a	n/a	GoodResponse	0	n/a	n/a	9	70	Blank	AvoidedLoss	True
667.016	1.45	Lose2	0.6479	n/a	Yes	3.032	n/a	5.0	GoodResponse	0	0.029	666.045	9	70	Feedback	AvoidedLoss	True
668.47	3.032	Lose2	0.6479	n/a	Yes	3.032	n/a	n/a	GoodResponse	0	0.0	n/a	9	70	ISIslide	AvoidedLoss	True
671.529	0.25	Win2	0.6528	0.0	Yes	2.721	0.029	n/a	GoodResponse	1	n/a	n/a	10	71	Cue	Win	True
671.78	4.05	Win2	0.6528	0.0	Yes	2.721	0.001	n/a	GoodResponse	1	n/a	n/a	10	71	Fixation	Win	True
675.826	0.25	Win2	0.6528	0.003	Yes	2.721	-0.003	2.0	GoodResponse	1	0.212	675.038	10	71	Target	Win	True
676.038	0.3	Win2	0.6528	0.003	Yes	2.721	-0.003	2.0	GoodResponse	1	0.212	n/a	10	71	ButtonPress	Win	True
676.076	0.45	Win2	0.6528	n/a	Yes	2.721	n/a	n/a	GoodResponse	1	n/a	n/a	10	71	Blank	Win	True
676.528	1.45	Win2	0.6528	n/a	Yes	2.721	n/a	5.0	GoodResponse	1	0.03	675.558	10	71	Feedback	Win	True
677.982	2.721	Win2	0.6528	n/a	Yes	2.721	n/a	n/a	GoodResponse	1	0.0	n/a	10	71	ISIslide	Win	True
680.724	0.25	Win2	0.6575	0.0	Yes	2.776	0.024	n/a	GoodResponse	1	n/a	n/a	11	72	Cue	Win	True
680.974	4.1	Win2	0.6575	0.0	Yes	2.776	0.0	n/a	GoodResponse	1	n/a	n/a	11	72	Fixation	Win	True
685.07	0.26	Win2	0.6575	0.004	Yes	2.776	-0.004	2.0	GoodResponse	1	0.195	684.265	11	72	Target	Win	True
685.265	0.3	Win2	0.6575	0.004	Yes	2.776	-0.004	2.0	GoodResponse	1	0.195	n/a	11	72	ButtonPress	Win	True
685.337	0.44	Win2	0.6575	n/a	Yes	2.776	n/a	n/a	GoodResponse	1	n/a	n/a	11	72	Blank	Win	True
685.772	1.45	Win2	0.6575	n/a	Yes	2.776	n/a	5.0	GoodResponse	1	0.007	684.779	11	72	Feedback	Win	True
687.226	2.776	Win2	0.6575	n/a	Yes	2.776	n/a	n/a	GoodResponse	1	0.0	n/a	11	72	ISIslide	Win	True
690.018	0.25	Win2	0.6622	0.0	Yes	2.682	0.018	n/a	GoodResponse	1	n/a	n/a	12	73	Cue	Win	True
690.269	4.0	Win2	0.6622	0.0	Yes	2.682	0.001	n/a	GoodResponse	1	n/a	n/a	12	73	Fixation	Win	True
694.264	0.26	Win2	0.6622	0.004	Yes	2.682	-0.004	2.0	GoodResponse	1	0.219	693.483	12	73	Target	Win	True
694.483	0.3	Win2	0.6622	0.004	Yes	2.682	-0.004	2.0	GoodResponse	1	0.219	n/a	12	73	ButtonPress	Win	True
694.532	0.44	Win2	0.6622	n/a	Yes	2.682	n/a	n/a	GoodResponse	1	n/a	n/a	12	73	Blank	Win	True
694.966	1.45	Win2	0.6622	n/a	Yes	2.682	n/a	5.0	GoodResponse	1	0.031	693.997	12	73	Feedback	Win	True
696.421	2.682	Win2	0.6622	n/a	Yes	2.682	n/a	n/a	GoodResponse	1	0.0	n/a	12	73	ISIslide	Win	True
699.129	0.25	Lose2	0.6667000000000001	0.0	Yes	2.621	0.029	n/a	GoodResponse	0	n/a	n/a	12	74	Cue	AvoidedLoss	True
699.379	4.05	Lose2	0.6667000000000001	0.0	Yes	2.621	0.0	n/a	GoodResponse	0	n/a	n/a	12	74	Fixation	AvoidedLoss	True
703.425	0.26	Lose2	0.6667000000000001	0.004	Yes	2.621	-0.004	2.0	GoodResponse	0	0.224	702.649	12	74	Target	AvoidedLoss	True
703.649	0.3	Lose2	0.6667000000000001	0.004	Yes	2.621	-0.004	2.0	GoodResponse	0	0.224	n/a	12	74	ButtonPress	AvoidedLoss	True
703.692	0.44	Lose2	0.6667000000000001	n/a	Yes	2.621	n/a	n/a	GoodResponse	0	n/a	n/a	12	74	Blank	AvoidedLoss	True
704.127	1.45	Lose2	0.6667000000000001	n/a	Yes	2.621	n/a	5.0	GoodResponse	0	0.041	703.168	12	74	Feedback	AvoidedLoss	True
705.581	2.621	Lose2	0.6667000000000001	n/a	Yes	2.621	n/a	n/a	GoodResponse	0	0.0	n/a	12	74	ISIslide	AvoidedLoss	True
708.223	0.25	Lose2	0.6579	0.0	No	2.927	0.023	n/a	NoResponse	-1	n/a	n/a	11	75	Cue	Loss	True
708.473	3.95	Lose2	0.6579	0.0	No	2.927	0.0	n/a	NoResponse	-1	n/a	n/a	11	75	Fixation	Loss	True
712.435	0.25	Lose2	0.6579	0.0	No	2.927	0.012	2.0	NoResponse	-1	0.29	711.725	11	75	Target	Loss	True
712.669	0.45	Lose2	0.6579	n/a	No	2.927	n/a	n/a	NoResponse	-1	n/a	n/a	11	75	Blank	Loss	True
712.725	0.3	Lose2	0.6579	0.0	No	2.927	0.012	2.0	NoResponse	-1	0.29	n/a	11	75	ButtonPress	Loss	True
713.121	1.45	Lose2	0.6579	n/a	No	2.927	n/a	5.0	NoResponse	-1	0.022	712.143	11	75	Feedback	Loss	True
714.575	2.927	Lose2	0.6579	n/a	No	2.927	n/a	n/a	NoResponse	-1	0.0	n/a	11	75	ISIslide	Loss	True
717.517	0.25	Control	0.6623	0.0	Yes	3.233	0.017	n/a	GoodResponse	0	n/a	n/a	11	76	Cue	Neutral	True
717.768	4.05	Control	0.6623	0.0	Yes	3.233	0.001	n/a	GoodResponse	0	n/a	n/a	11	76	Fixation	Neutral	True
721.813	0.25	Control	0.6623	0.004	Yes	3.233	-0.004	2.0	GoodResponse	0	0.235	721.048	11	76	Target	Neutral	True
722.048	0.3	Control	0.6623	0.004	Yes	3.233	-0.004	2.0	GoodResponse	0	0.235	n/a	11	76	ButtonPress	Neutral	True
722.064	0.45	Control	0.6623	n/a	Yes	3.233	n/a	n/a	GoodResponse	0	n/a	n/a	11	76	Blank	Neutral	True
722.515	1.45	Control	0.6623	n/a	Yes	3.233	n/a	5.0	GoodResponse	0	0.042	721.557	11	76	Feedback	Neutral	True
723.97	3.233	Control	0.6623	n/a	Yes	3.233	n/a	n/a	GoodResponse	0	0.0	n/a	11	76	ISIslide	Neutral	True
727.229	0.25	Lose2	0.6667000000000001	0.001	Yes	2.571	0.029	n/a	GoodResponse	0	n/a	n/a	11	77	Cue	AvoidedLoss	True
727.48	3.95	Lose2	0.6667000000000001	0.0	Yes	2.571	0.001	n/a	GoodResponse	0	n/a	n/a	11	77	Fixation	AvoidedLoss	True
731.425	0.25	Lose2	0.6667000000000001	0.004	Yes	2.571	-0.004	2.0	GoodResponse	0	0.21	730.635	11	77	Target	AvoidedLoss	True
731.635	0.3	Lose2	0.6667000000000001	0.004	Yes	2.571	-0.004	2.0	GoodResponse	0	0.21	n/a	11	77	ButtonPress	AvoidedLoss	True
731.676	0.45	Lose2	0.6667000000000001	n/a	Yes	2.571	n/a	n/a	GoodResponse	0	n/a	n/a	11	77	Blank	AvoidedLoss	True
732.127	1.45	Lose2	0.6667000000000001	n/a	Yes	2.571	n/a	5.0	GoodResponse	0	0.04	731.167	11	77	Feedback	AvoidedLoss	True
733.582	2.571	Lose2	0.6667000000000001	n/a	Yes	2.571	n/a	n/a	GoodResponse	0	0.0	n/a	11	77	ISIslide	AvoidedLoss	True
