onset	duration	cue_type	current_mean_accuracy	duration_error	is_hit	isi_adjusted	onset_delay	response	response_type	reward	rt	rt_time	total_reward	trial_number	trial_phase	trial_type	one_press
11.101	0.25	Control	1.0	0.0	Yes	2.949	0.001	n/a	GoodResponse	0	n/a	n/a	0	0	Cue	Neutral	False
11.352	3.85	Control	1.0	0.0	Yes	2.949	0.001	4.0	GoodResponse	0	0.706	11.058	0	0	Fixation	Neutral	False
12.058	0.3	Control	1.0	0.0	Yes	2.949	0.001	4.0	GoodResponse	0	0.706	n/a	0	0	ButtonPress	Neutral	False
15.197	0.4	Control	1.0	0.004	Yes	2.949	-0.004	4.0	GoodResponse	0	0.251	14.448	0	0	Target	Neutral	False
15.448	0.3	Control	1.0	0.004	Yes	2.949	-0.004	4.0	GoodResponse	0	0.251	n/a	0	0	ButtonPress	Neutral	False
15.598	0.3	Control	1.0	n/a	Yes	2.949	n/a	n/a	GoodResponse	0	n/a	n/a	0	0	Blank	Neutral	False
15.899	1.45	Control	1.0	n/a	Yes	2.949	n/a	5.0	GoodResponse	0	0.024	14.923	0	0	Feedback	Neutral	False
17.353	2.949	Control	1.0	n/a	Yes	2.949	n/a	n/a	GoodResponse	0	0.0	n/a	0	0	ISIslide	Neutral	False
20.379	0.25	Lose2	1.0	0.0	Yes	2.721	0.079	n/a	GoodResponse	0	n/a	n/a	0	1	Cue	AvoidedLoss	True
20.63	4.0	Lose2	1.0	0.0	Yes	2.721	0.001	n/a	GoodResponse	0	n/a	n/a	0	1	Fixation	AvoidedLoss	True
24.625	0.39	Lose2	1.0	0.004	Yes	2.721	-0.004	4.0	GoodResponse	0	0.274	23.899	0	1	Target	AvoidedLoss	True
24.899	0.3	Lose2	1.0	0.004	Yes	2.721	-0.004	4.0	GoodResponse	0	0.274	n/a	0	1	ButtonPress	AvoidedLoss	True
25.026	0.31	Lose2	1.0	n/a	Yes	2.721	n/a	n/a	GoodResponse	0	n/a	n/a	0	1	Blank	AvoidedLoss	True
25.327	1.45	Lose2	1.0	n/a	Yes	2.721	n/a	5.0	GoodResponse	0	0.031	24.358	0	1	Feedback	AvoidedLoss	True
26.782	2.721	Lose2	1.0	n/a	Yes	2.721	n/a	n/a	GoodResponse	0	0.0	n/a	0	1	ISIslide	AvoidedLoss	True
29.523	0.25	Control	1.0	0.0	Yes	2.577	0.023	n/a	GoodResponse	0	n/a	n/a	0	2	Cue	Neutral	True
29.774	4.1	Control	1.0	0.0	Yes	2.577	0.001	n/a	GoodResponse	0	n/a	n/a	0	2	Fixation	Neutral	True
33.87	0.38	Control	1.0	0.003	Yes	2.577	-0.003	4.0	GoodResponse	0	0.35	33.22	0	2	Target	Neutral	True
34.22	0.3	Control	1.0	0.003	Yes	2.577	-0.003	4.0	GoodResponse	0	0.35	n/a	0	2	ButtonPress	Neutral	True
34.254	0.32	Control	1.0	n/a	Yes	2.577	n/a	n/a	GoodResponse	0	n/a	n/a	0	2	Blank	Neutral	True
34.572	1.45	Control	1.0	n/a	Yes	2.577	n/a	5.0	GoodResponse	0	0.017	33.589	0	2	Feedback	Neutral	True
36.026	2.577	Control	1.0	n/a	Yes	2.577	n/a	n/a	GoodResponse	0	0.0	n/a	0	2	ISIslide	Neutral	True
38.634	0.25	Win2	1.0	0.0	Yes	2.816	0.034	n/a	GoodResponse	1	n/a	n/a	1	3	Cue	Win	True
38.885	3.95	Win2	1.0	0.0	Yes	2.816	0.001	n/a	GoodResponse	1	n/a	n/a	1	3	Fixation	Win	True
42.83	0.37	Win2	1.0	0.004	Yes	2.816	-0.004	4.0	GoodResponse	1	0.276	42.106	1	3	Target	Win	True
43.106	0.3	Win2	1.0	0.004	Yes	2.816	-0.004	4.0	GoodResponse	1	0.276	n/a	1	3	ButtonPress	Win	True
43.214	0.33	Win2	1.0	n/a	Yes	2.816	n/a	n/a	GoodResponse	1	n/a	n/a	1	3	Blank	Win	True
43.532	1.45	Win2	1.0	n/a	Yes	2.816	n/a	5.0	GoodResponse	1	0.032	42.564	1	3	Feedback	Win	True
44.986	2.816	Win2	1.0	n/a	Yes	2.816	n/a	n/a	GoodResponse	1	0.0	n/a	1	3	ISIslide	Win	True
47.828	0.25	Win2	1.0	0.0	Yes	3.272	0.028	n/a	GoodResponse	1	n/a	n/a	2	4	Cue	Win	True
48.079	4.0	Win2	1.0	0.0	Yes	3.272	0.001	n/a	GoodResponse	1	n/a	n/a	2	4	Fixation	Win	True
52.074	0.36	Win2	1.0	0.004	Yes	3.272	-0.004	4.0	GoodResponse	1	0.244	51.318	2	4	Target	Win	True
52.318	0.3	Win2	1.0	0.004	Yes	3.272	-0.004	4.0	GoodResponse	1	0.244	n/a	2	4	ButtonPress	Win	True
52.442	0.34	Win2	1.0	n/a	Yes	3.272	n/a	n/a	GoodResponse	1	n/a	n/a	2	4	Blank	Win	True
52.776	1.45	Win2	1.0	n/a	Yes	3.272	n/a	5.0	GoodResponse	1	0.019	51.795	2	4	Feedback	Win	True
54.231	3.272	Win2	1.0	n/a	Yes	3.272	n/a	n/a	GoodResponse	1	0.0	n/a	2	4	ISIslide	Win	True
57.524	0.25	Win2	0.8332999999999999	0.0	No	2.776	0.024	n/a	NoResponse	0	n/a	n/a	2	5	Cue	MissedWin	True
57.775	4.0	Win2	0.8332999999999999	0.0	No	2.776	0.001	n/a	NoResponse	0	n/a	n/a	2	5	Fixation	MissedWin	True
61.77	0.35	Win2	0.8332999999999999	0.004	No	2.776	-0.004	n/a	NoResponse	0	n/a	n/a	2	5	Target	MissedWin	True
62.121	0.35	Win2	0.8332999999999999	n/a	No	2.776	n/a	n/a	NoResponse	0	n/a	n/a	2	5	Blank	MissedWin	True
62.472	1.45	Win2	0.8332999999999999	n/a	No	2.776	n/a	4.0	NoResponse	0	0.008	61.48	2	5	Feedback	MissedWin	True
62.48	0.3	Win2	0.8332999999999999	n/a	No	2.776	n/a	4.0	NoResponse	0	0.008	n/a	2	5	ButtonPress	MissedWin	True
63.926	2.776	Win2	0.8332999999999999	n/a	No	2.776	n/a	n/a	NoResponse	0	0.0	n/a	2	5	ISIslide	MissedWin	True
66.718	0.25	Lose2	0.7143	0.0	No	2.732	0.018	n/a	NoResponse	-1	n/a	n/a	1	6	Cue	Loss	True
66.969	3.95	Lose2	0.7143	0.0	No	2.732	0.001	4.0	NoResponse	-1	3.277	69.246	1	6	Fixation	Loss	True
70.246	0.3	Lose2	0.7143	0.0	No	2.732	0.001	4.0	NoResponse	-1	3.277	n/a	1	6	ButtonPress	Loss	True
70.914	0.34	Lose2	0.7143	0.004	No	2.732	-0.004	n/a	NoResponse	-1	n/a	n/a	1	6	Target	Loss	True
71.265	0.36	Lose2	0.7143	n/a	No	2.732	n/a	n/a	NoResponse	-1	n/a	n/a	1	6	Blank	Loss	True
71.616	1.45	Lose2	0.7143	n/a	No	2.732	n/a	5.0	NoResponse	-1	0.051	70.667	1	6	Feedback	Loss	True
73.07	2.732	Lose2	0.7143	n/a	No	2.732	n/a	n/a	NoResponse	-1	0.0	n/a	1	6	ISIslide	Loss	True
75.829	0.25	Lose2	0.75	0.0	Yes	4.021	0.029	n/a	GoodResponse	0	n/a	n/a	1	7	Cue	AvoidedLoss	True
76.079	4.05	Lose2	0.75	0.001	Yes	4.021	0.0	n/a	GoodResponse	0	n/a	n/a	1	7	Fixation	AvoidedLoss	True
80.125	0.33	Lose2	0.75	0.004	Yes	4.021	-0.004	4.0	GoodResponse	0	0.263	79.388	1	7	Target	AvoidedLoss	True
80.388	0.3	Lose2	0.75	0.004	Yes	4.021	-0.004	4.0	GoodResponse	0	0.263	n/a	1	7	ButtonPress	AvoidedLoss	True
80.459	0.37	Lose2	0.75	n/a	Yes	4.021	n/a	n/a	GoodResponse	0	n/a	n/a	1	7	Blank	AvoidedLoss	True
80.827	1.45	Lose2	0.75	n/a	Yes	4.021	n/a	5.0	GoodResponse	0	0.018	79.845	1	7	Feedback	AvoidedLoss	True
82.281	4.021	Lose2	0.75	n/a	Yes	4.021	n/a	n/a	GoodResponse	0	0.0	n/a	1	7	ISIslide	AvoidedLoss	True
86.327	0.25	Lose2	0.6667000000000001	0.0	No	3.023	0.027	n/a	NoResponse	-1	n/a	n/a	0	8	Cue	Loss	True
86.578	3.95	Lose2	0.6667000000000001	0.0	No	3.023	0.001	n/a	NoResponse	-1	n/a	n/a	0	8	Fixation	Loss	True
90.523	0.32	Lose2	0.6667000000000001	0.004	No	3.023	-0.004	4.0	NoResponse	-1	0.366	89.889	0	8	Target	Loss	True
90.857	0.38	Lose2	0.6667000000000001	n/a	No	3.023	n/a	n/a	NoResponse	-1	n/a	n/a	0	8	Blank	Loss	True
90.889	0.3	Lose2	0.6667000000000001	0.004	No	3.023	-0.004	4.0	NoResponse	-1	0.366	n/a	0	8	ButtonPress	Loss	True
91.225	1.45	Lose2	0.6667000000000001	n/a	No	3.023	n/a	5.0	NoResponse	-1	0.031	90.256	0	8	Feedback	Loss	True
92.679	3.023	Lose2	0.6667000000000001	n/a	No	3.023	n/a	n/a	NoResponse	-1	0.0	n/a	0	8	ISIslide	Loss	True
95.722	0.25	Lose2	0.7	0.0	Yes	3.128	0.022	n/a	GoodResponse	0	n/a	n/a	0	9	Cue	AvoidedLoss	True
95.972	3.95	Lose2	0.7	0.0	Yes	3.128	0.0	n/a	GoodResponse	0	n/a	n/a	0	9	Fixation	AvoidedLoss	True
99.918	0.31	Lose2	0.7	0.004	Yes	3.128	-0.004	4.0	GoodResponse	0	0.284	99.202	0	9	Target	AvoidedLoss	True
100.202	0.3	Lose2	0.7	0.004	Yes	3.128	-0.004	4.0	GoodResponse	0	0.284	n/a	0	9	ButtonPress	AvoidedLoss	True
100.235	0.39	Lose2	0.7	n/a	Yes	3.128	n/a	n/a	GoodResponse	0	n/a	n/a	0	9	Blank	AvoidedLoss	True
100.62	1.45	Lose2	0.7	n/a	Yes	3.128	n/a	5.0	GoodResponse	0	0.02	99.64	0	9	Feedback	AvoidedLoss	True
102.074	3.128	Lose2	0.7	n/a	Yes	3.128	n/a	n/a	GoodResponse	0	0.0	n/a	0	9	ISIslide	AvoidedLoss	True
105.217	0.25	Control	0.7273000000000001	0.0	Yes	3.283	0.017	n/a	GoodResponse	0	n/a	n/a	0	10	Cue	Neutral	True
105.467	4.0	Control	0.7273000000000001	0.001	Yes	3.283	0.0	n/a	GoodResponse	0	n/a	n/a	0	10	Fixation	Neutral	True
109.463	0.3	Control	0.7273000000000001	0.004	Yes	3.283	-0.004	4.0	GoodResponse	0	0.209	108.672	0	10	Target	Neutral	True
109.672	0.3	Control	0.7273000000000001	0.004	Yes	3.283	-0.004	4.0	GoodResponse	0	0.209	n/a	0	10	ButtonPress	Neutral	True
109.764	0.4	Control	0.7273000000000001	n/a	Yes	3.283	n/a	n/a	GoodResponse	0	n/a	n/a	0	10	Blank	Neutral	True
110.165	1.45	Control	0.7273000000000001	n/a	Yes	3.283	n/a	5.0	GoodResponse	0	0.014	109.179	0	10	Feedback	Neutral	True
111.619	3.283	Control	0.7273000000000001	n/a	Yes	3.283	n/a	n/a	GoodResponse	0	0.0	n/a	0	10	ISIslide	Neutral	True
114.929	0.25	Lose2	0.75	0.0	Yes	2.721	0.029	n/a	GoodResponse	0	n/a	n/a	0	11	Cue	AvoidedLoss	True
115.18	4.05	Lose2	0.75	0.0	Yes	2.721	0.001	n/a	GoodResponse	0	n/a	n/a	0	11	Fixation	AvoidedLoss	True
119.225	0.29	Lose2	0.75	0.004	Yes	2.721	-0.004	4.0	GoodResponse	0	0.208	118.433	0	11	Target	AvoidedLoss	True
119.433	0.3	Lose2	0.75	0.004	Yes	2.721	-0.004	4.0	GoodResponse	0	0.208	n/a	0	11	ButtonPress	AvoidedLoss	True
119.526	0.41	Lose2	0.75	n/a	Yes	2.721	n/a	n/a	GoodResponse	0	n/a	n/a	0	11	Blank	AvoidedLoss	True
119.927	1.45	Lose2	0.75	n/a	Yes	2.721	n/a	5.0	GoodResponse	0	0.047	118.974	0	11	Feedback	AvoidedLoss	True
121.382	2.721	Lose2	0.75	n/a	Yes	2.721	n/a	n/a	GoodResponse	0	0.0	n/a	0	11	ISIslide	AvoidedLoss	True
124.123	0.25	Control	0.7692	0.0	Yes	2.977	0.023	n/a	GoodResponse	0	n/a	n/a	0	12	Cue	Neutral	True
124.374	3.9	Control	0.7692	0.0	Yes	2.977	0.001	n/a	GoodResponse	0	n/a	n/a	0	12	Fixation	Neutral	True
128.269	0.28	Control	0.7692	0.004	Yes	2.977	-0.004	4.0	GoodResponse	0	0.245	127.514	0	12	Target	Neutral	True
128.514	0.3	Control	0.7692	0.004	Yes	2.977	-0.004	4.0	GoodResponse	0	0.245	n/a	0	12	ButtonPress	Neutral	True
128.553	0.42	Control	0.7692	n/a	Yes	2.977	n/a	n/a	GoodResponse	0	n/a	n/a	0	12	Blank	Neutral	True
128.971	1.45	Control	0.7692	n/a	Yes	2.977	n/a	5.0	GoodResponse	0	0.029	128.0	0	12	Feedback	Neutral	True
130.426	2.977	Control	0.7692	n/a	Yes	2.977	n/a	n/a	GoodResponse	0	0.0	n/a	0	12	ISIslide	Neutral	True
133.418	0.25	Control	0.7143	0.0	No	2.782	0.018	n/a	NoResponse	0	n/a	n/a	0	13	Cue	Neutral	False
133.669	4.0	Control	0.7143	0.0	No	2.782	0.001	4.0	NoResponse	0	0.132	132.801	0	13	Fixation	Neutral	False
133.801	0.3	Control	0.7143	0.0	No	2.782	0.001	4.0	NoResponse	0	0.132	n/a	0	13	ButtonPress	Neutral	False
137.664	0.27	Control	0.7143	0.004	No	2.782	-0.004	4.0	NoResponse	0	0.388	137.052	0	13	Target	Neutral	False
137.948	0.43	Control	0.7143	n/a	No	2.782	n/a	n/a	NoResponse	0	n/a	n/a	0	13	Blank	Neutral	False
138.052	0.3	Control	0.7143	0.004	No	2.782	-0.004	4.0	NoResponse	0	0.388	n/a	0	13	ButtonPress	Neutral	False
138.366	1.45	Control	0.7143	n/a	No	2.782	n/a	5.0	NoResponse	0	0.017	137.383	0	13	Feedback	Neutral	False
139.82	2.782	Control	0.7143	n/a	No	2.782	n/a	n/a	NoResponse	0	0.0	n/a	0	13	ISIslide	Neutral	False
142.629	0.25	Win2	0.7333	0.0	Yes	2.671	0.029	n/a	GoodResponse	1	n/a	n/a	1	14	Cue	Win	False
142.88	4.1	Win2	0.7333	0.0	Yes	2.671	0.001	4.0	GoodResponse	1	0.322	142.202	1	14	Fixation	Win	False
143.202	0.3	Win2	0.7333	0.0	Yes	2.671	0.001	4.0	GoodResponse	1	0.322	n/a	1	14	ButtonPress	Win	False
146.975	0.26	Win2	0.7333	0.004	Yes	2.671	-0.004	4.0	GoodResponse	1	0.25	146.225	1	14	Target	Win	False
147.225	0.3	Win2	0.7333	0.004	Yes	2.671	-0.004	4.0	GoodResponse	1	0.25	n/a	1	14	ButtonPress	Win	False
147.243	0.44	Win2	0.7333	n/a	Yes	2.671	n/a	n/a	GoodResponse	1	n/a	n/a	1	14	Blank	Win	False
147.677	1.45	Win2	0.7333	n/a	Yes	2.671	n/a	5.0	GoodResponse	1	0.04	146.717	1	14	Feedback	Win	False
149.132	2.671	Win2	0.7333	n/a	Yes	2.671	n/a	n/a	GoodResponse	1	0.0	n/a	1	14	ISIslide	Win	False
151.823	0.25	Control	0.6875	0.0	No	2.977	0.023	n/a	NoResponse	0	n/a	n/a	1	15	Cue	Neutral	True
152.074	4.0	Control	0.6875	0.0	No	2.977	0.001	n/a	NoResponse	0	n/a	n/a	1	15	Fixation	Neutral	True
156.069	0.25	Control	0.6875	0.004	No	2.977	-0.004	4.0	NoResponse	0	0.517	155.586	1	15	Target	Neutral	True
156.32	0.45	Control	0.6875	n/a	No	2.977	n/a	n/a	NoResponse	0	n/a	n/a	1	15	Blank	Neutral	True
156.586	0.3	Control	0.6875	0.004	No	2.977	-0.004	4.0	NoResponse	0	0.517	n/a	1	15	ButtonPress	Neutral	True
156.771	1.45	Control	0.6875	n/a	No	2.977	n/a	5.0	NoResponse	0	0.023	155.794	1	15	Feedback	Neutral	True
158.226	2.977	Control	0.6875	n/a	No	2.977	n/a	n/a	NoResponse	0	0.0	n/a	1	15	ISIslide	Neutral	True
161.218	0.25	Win2	0.6470999999999999	0.0	No	2.882	0.018	n/a	NoResponse	0	n/a	n/a	1	16	Cue	MissedWin	True
161.469	4.0	Win2	0.6470999999999999	0.0	No	2.882	0.001	n/a	NoResponse	0	n/a	n/a	1	16	Fixation	MissedWin	True
165.464	0.24	Win2	0.6470999999999999	0.004	No	2.882	-0.004	4.0	NoResponse	0	0.289	164.753	1	16	Target	MissedWin	True
165.715	0.46	Win2	0.6470999999999999	n/a	No	2.882	n/a	n/a	NoResponse	0	n/a	n/a	1	16	Blank	MissedWin	True
165.753	0.3	Win2	0.6470999999999999	0.004	No	2.882	-0.004	4.0	NoResponse	0	0.289	n/a	1	16	ButtonPress	MissedWin	True
166.166	1.45	Win2	0.6470999999999999	n/a	No	2.882	n/a	5.0	NoResponse	0	0.012	165.178	1	16	Feedback	MissedWin	True
167.62	2.882	Win2	0.6470999999999999	n/a	No	2.882	n/a	n/a	NoResponse	0	0.0	n/a	1	16	ISIslide	MissedWin	True
170.529	0.25	Lose2	0.6111	0.0	No	2.721	0.029	n/a	PrematurePress	-1	n/a	n/a	0	17	Cue	Loss	True
170.78	3.95	Lose2	0.6111	0.0	No	2.721	0.001	n/a	PrematurePress	-1	n/a	n/a	0	17	Fixation	Loss	True
174.725	0.25	Lose2	0.6111	0.004	No	2.721	-0.004	4.0	PrematurePress	-1	0.053	173.778	0	17	Target	Loss	True
174.778	0.3	Lose2	0.6111	0.004	No	2.721	-0.004	4.0	PrematurePress	-1	0.053	n/a	0	17	ButtonPress	Loss	True
174.976	0.45	Lose2	0.6111	n/a	No	2.721	n/a	n/a	PrematurePress	-1	n/a	n/a	0	17	Blank	Loss	True
175.427	1.45	Lose2	0.6111	n/a	No	2.721	n/a	5.0	PrematurePress	-1	0.034	174.461	0	17	Feedback	Loss	True
176.881	2.721	Lose2	0.6111	n/a	No	2.721	n/a	n/a	PrematurePress	-1	0.0	n/a	0	17	ISIslide	Loss	True
179.623	0.25	Lose2	0.6315999999999999	0.0	Yes	2.727	0.023	n/a	GoodResponse	0	n/a	n/a	0	18	Cue	AvoidedLoss	True
179.874	4.05	Lose2	0.6315999999999999	0.0	Yes	2.727	0.001	n/a	GoodResponse	0	n/a	n/a	0	18	Fixation	AvoidedLoss	True
183.919	0.26	Lose2	0.6315999999999999	0.004	Yes	2.727	-0.004	4.0	GoodResponse	0	0.244	183.163	0	18	Target	AvoidedLoss	True
184.163	0.3	Lose2	0.6315999999999999	0.004	Yes	2.727	-0.004	4.0	GoodResponse	0	0.244	n/a	0	18	ButtonPress	AvoidedLoss	True
184.187	0.44	Lose2	0.6315999999999999	n/a	Yes	2.727	n/a	n/a	GoodResponse	0	n/a	n/a	0	18	Blank	AvoidedLoss	True
184.621	1.45	Lose2	0.6315999999999999	n/a	Yes	2.727	n/a	5.0	GoodResponse	0	0.019	183.64	0	18	Feedback	AvoidedLoss	True
186.076	2.727	Lose2	0.6315999999999999	n/a	Yes	2.727	n/a	n/a	GoodResponse	0	0.0	n/a	0	18	ISIslide	AvoidedLoss	True
188.817	0.25	Control	0.6	0.0	No	2.933	0.017	n/a	NoResponse	0	n/a	n/a	0	19	Cue	Neutral	True
189.068	3.95	Control	0.6	0.0	No	2.933	0.001	n/a	NoResponse	0	n/a	n/a	0	19	Fixation	Neutral	True
193.013	0.27	Control	0.6	0.004	No	2.933	-0.004	4.0	NoResponse	0	0.458	192.471	0	19	Target	Neutral	True
193.297	0.43	Control	0.6	n/a	No	2.933	n/a	n/a	NoResponse	0	n/a	n/a	0	19	Blank	Neutral	True
193.471	0.3	Control	0.6	0.004	No	2.933	-0.004	4.0	NoResponse	0	0.458	n/a	0	19	ButtonPress	Neutral	True
193.715	1.45	Control	0.6	n/a	No	2.933	n/a	5.0	NoResponse	0	0.002	192.717	0	19	Feedback	Neutral	True
195.17	2.933	Control	0.6	n/a	No	2.933	n/a	n/a	NoResponse	0	0.0	n/a	0	19	ISIslide	Neutral	True
198.128	0.25	Control	0.619	0.001	Yes	2.622	0.028	n/a	GoodResponse	0	n/a	n/a	0	20	Cue	Neutral	True
198.379	4.05	Control	0.619	0.0	Yes	2.622	0.001	n/a	GoodResponse	0	n/a	n/a	0	20	Fixation	Neutral	True
202.425	0.28	Control	0.619	0.003	Yes	2.622	-0.003	4.0	GoodResponse	0	0.259	201.684	0	20	Target	Neutral	True
202.684	0.3	Control	0.619	0.003	Yes	2.622	-0.003	4.0	GoodResponse	0	0.259	n/a	0	20	ButtonPress	Neutral	True
202.709	0.42	Control	0.619	n/a	Yes	2.622	n/a	n/a	GoodResponse	0	n/a	n/a	0	20	Blank	Neutral	True
203.127	1.45	Control	0.619	n/a	Yes	2.622	n/a	5.0	GoodResponse	0	0.025	202.152	0	20	Feedback	Neutral	True
204.581	2.622	Control	0.619	n/a	Yes	2.622	n/a	n/a	GoodResponse	0	0.0	n/a	0	20	ISIslide	Neutral	True
207.222	0.25	Control	0.6364	0.0	Yes	2.778	0.022	n/a	GoodResponse	0	n/a	n/a	0	21	Cue	Neutral	False
207.473	4.1	Control	0.6364	0.0	Yes	2.778	0.001	4.0	GoodResponse	0	0.188	206.661	0	21	Fixation	Neutral	False
207.661	0.3	Control	0.6364	0.0	Yes	2.778	0.001	4.0	GoodResponse	0	0.188	n/a	0	21	ButtonPress	Neutral	False
211.569	0.29	Control	0.6364	0.003	Yes	2.778	-0.003	4.0	GoodResponse	0	0.248	210.817	0	21	Target	Neutral	False
211.817	0.3	Control	0.6364	0.003	Yes	2.778	-0.003	4.0	GoodResponse	0	0.248	n/a	0	21	ButtonPress	Neutral	False
211.87	0.41	Control	0.6364	n/a	Yes	2.778	n/a	n/a	GoodResponse	0	n/a	n/a	0	21	Blank	Neutral	False
212.271	1.45	Control	0.6364	n/a	Yes	2.778	n/a	5.0	GoodResponse	0	0.009	211.28	0	21	Feedback	Neutral	False
213.725	2.778	Control	0.6364	n/a	Yes	2.778	n/a	4.0	GoodResponse	0	1.496	n/a	0	21	ISIslide	Neutral	False
216.5	0.25	Control	0.6522	0.0	Yes	2.8	0.0	n/a	GoodResponse	0	n/a	n/a	0	22	Cue	Neutral	True
216.751	4.0	Control	0.6522	0.0	Yes	2.8	0.001	n/a	GoodResponse	0	n/a	n/a	0	22	Fixation	Neutral	True
220.746	0.3	Control	0.6522	0.004	Yes	2.8	-0.004	4.0	GoodResponse	0	0.25	219.996	0	22	Target	Neutral	True
220.996	0.3	Control	0.6522	0.004	Yes	2.8	-0.004	4.0	GoodResponse	0	0.25	n/a	0	22	ButtonPress	Neutral	True
221.047	0.4	Control	0.6522	n/a	Yes	2.8	n/a	n/a	GoodResponse	0	n/a	n/a	0	22	Blank	Neutral	True
221.448	1.45	Control	0.6522	n/a	Yes	2.8	n/a	5.0	GoodResponse	0	0.012	220.46	0	22	Feedback	Neutral	True
222.903	2.8	Control	0.6522	n/a	Yes	2.8	n/a	n/a	GoodResponse	0	0.0	n/a	0	22	ISIslide	Neutral	True
225.728	0.25	Control	0.625	0.0	No	2.772	0.028	n/a	NoResponse	0	n/a	n/a	0	23	Cue	Neutral	True
225.979	3.9	Control	0.625	0.0	No	2.772	0.001	n/a	NoResponse	0	n/a	n/a	0	23	Fixation	Neutral	True
229.874	0.31	Control	0.625	0.004	No	2.772	-0.004	4.0	NoResponse	0	0.513	229.387	0	23	Target	Neutral	True
230.191	0.39	Control	0.625	n/a	No	2.772	n/a	n/a	NoResponse	0	n/a	n/a	0	23	Blank	Neutral	True
230.387	0.3	Control	0.625	0.004	No	2.772	-0.004	4.0	NoResponse	0	0.513	n/a	0	23	ButtonPress	Neutral	True
230.576	1.45	Control	0.625	n/a	No	2.772	n/a	5.0	NoResponse	0	0.012	229.588	0	23	Feedback	Neutral	True
232.03	2.772	Control	0.625	n/a	No	2.772	n/a	n/a	NoResponse	0	0.0	n/a	0	23	ISIslide	Neutral	True
234.822	0.25	Win2	0.64	0.0	Yes	3.128	0.022	n/a	GoodResponse	1	n/a	n/a	1	24	Cue	Win	True
235.072	3.95	Win2	0.64	0.001	Yes	3.128	0.0	n/a	GoodResponse	1	n/a	n/a	1	24	Fixation	Win	True
239.018	0.32	Win2	0.64	0.004	Yes	3.128	-0.004	4.0	GoodResponse	1	0.24	238.258	1	24	Target	Win	True
239.258	0.3	Win2	0.64	0.004	Yes	3.128	-0.004	4.0	GoodResponse	1	0.24	n/a	1	24	ButtonPress	Win	True
239.352	0.38	Win2	0.64	n/a	Yes	3.128	n/a	n/a	GoodResponse	1	n/a	n/a	1	24	Blank	Win	True
239.72	1.45	Win2	0.64	n/a	Yes	3.128	n/a	5.0	GoodResponse	1	0.048	238.768	1	24	Feedback	Win	True
241.174	3.128	Win2	0.64	n/a	Yes	3.128	n/a	n/a	GoodResponse	1	0.0	n/a	1	24	ISIslide	Win	True
244.317	0.25	Win2	0.6154	0.0	No	3.083	0.017	n/a	NoResponse	0	n/a	n/a	1	25	Cue	MissedWin	True
244.568	4.0	Win2	0.6154	0.0	No	3.083	0.001	n/a	NoResponse	0	n/a	n/a	1	25	Fixation	MissedWin	True
248.563	0.33	Win2	0.6154	0.004	No	3.083	-0.004	4.0	NoResponse	0	0.657	248.22	1	25	Target	MissedWin	True
248.897	0.37	Win2	0.6154	n/a	No	3.083	n/a	n/a	NoResponse	0	n/a	n/a	1	25	Blank	MissedWin	True
249.22	0.3	Win2	0.6154	0.004	No	3.083	-0.004	4.0	NoResponse	0	0.657	n/a	1	25	ButtonPress	MissedWin	True
249.265	1.45	Win2	0.6154	n/a	No	3.083	n/a	5.0	NoResponse	0	0.041	248.306	1	25	Feedback	MissedWin	True
250.719	3.083	Win2	0.6154	n/a	No	3.083	n/a	n/a	NoResponse	0	0.0	n/a	1	25	ISIslide	MissedWin	True
253.829	0.25	Win2	0.6296	0.0	Yes	2.921	0.029	n/a	GoodResponse	1	n/a	n/a	2	26	Cue	Win	True
254.079	3.95	Win2	0.6296	0.001	Yes	2.921	0.0	n/a	GoodResponse	1	n/a	n/a	2	26	Fixation	Win	True
258.025	0.34	Win2	0.6296	0.004	Yes	2.921	-0.004	4.0	GoodResponse	1	0.237	257.262	2	26	Target	Win	True
258.262	0.3	Win2	0.6296	0.004	Yes	2.921	-0.004	4.0	GoodResponse	1	0.237	n/a	2	26	ButtonPress	Win	True
258.376	0.36	Win2	0.6296	n/a	Yes	2.921	n/a	n/a	GoodResponse	1	n/a	n/a	2	26	Blank	Win	True
258.727	1.45	Win2	0.6296	n/a	Yes	2.921	n/a	5.0	GoodResponse	1	0.015	257.742	2	26	Feedback	Win	True
260.181	2.921	Win2	0.6296	n/a	Yes	2.921	n/a	n/a	GoodResponse	1	0.0	n/a	2	26	ISIslide	Win	True
263.123	0.25	Lose2	0.6429	0.0	Yes	2.827	0.023	n/a	GoodResponse	0	n/a	n/a	2	27	Cue	AvoidedLoss	True
263.374	4.05	Lose2	0.6429	0.0	Yes	2.827	0.001	n/a	GoodResponse	0	n/a	n/a	2	27	Fixation	AvoidedLoss	True
267.419	0.35	Lose2	0.6429	0.004	Yes	2.827	-0.004	4.0	GoodResponse	0	0.322	266.741	2	27	Target	AvoidedLoss	True
267.741	0.3	Lose2	0.6429	0.004	Yes	2.827	-0.004	4.0	GoodResponse	0	0.322	n/a	2	27	ButtonPress	AvoidedLoss	True
267.77	0.35	Lose2	0.6429	n/a	Yes	2.827	n/a	n/a	GoodResponse	0	n/a	n/a	2	27	Blank	AvoidedLoss	True
268.122	1.45	Lose2	0.6429	n/a	Yes	2.827	n/a	5.0	GoodResponse	0	0.007	267.129	2	27	Feedback	AvoidedLoss	True
269.576	2.827	Lose2	0.6429	n/a	Yes	2.827	n/a	n/a	GoodResponse	0	0.0	n/a	2	27	ISIslide	AvoidedLoss	True
272.418	0.25	Control	0.6207	0.0	No	2.832	0.018	n/a	NoResponse	0	n/a	n/a	2	28	Cue	Neutral	True
272.668	4.05	Control	0.6207	0.001	No	2.832	0.0	n/a	NoResponse	0	n/a	n/a	2	28	Fixation	Neutral	True
276.714	0.36	Control	0.6207	0.004	No	2.832	-0.004	4.0	NoResponse	0	0.507	276.221	2	28	Target	Neutral	True
277.082	0.34	Control	0.6207	n/a	No	2.832	n/a	n/a	NoResponse	0	n/a	n/a	2	28	Blank	Neutral	True
277.221	0.3	Control	0.6207	0.004	No	2.832	-0.004	4.0	NoResponse	0	0.507	n/a	2	28	ButtonPress	Neutral	True
277.416	1.45	Control	0.6207	n/a	No	2.832	n/a	5.0	NoResponse	0	0.044	276.46	2	28	Feedback	Neutral	True
278.87	2.832	Control	0.6207	n/a	No	2.832	n/a	n/a	NoResponse	0	0.0	n/a	2	28	ISIslide	Neutral	True
281.729	0.25	Lose2	0.6333	0.0	Yes	2.821	0.029	n/a	GoodResponse	0	n/a	n/a	2	29	Cue	AvoidedLoss	True
281.98	3.95	Lose2	0.6333	0.0	Yes	2.821	0.001	n/a	GoodResponse	0	n/a	n/a	2	29	Fixation	AvoidedLoss	True
285.925	0.37	Lose2	0.6333	0.004	Yes	2.821	-0.004	4.0	GoodResponse	0	0.222	285.147	2	29	Target	AvoidedLoss	True
286.147	0.3	Lose2	0.6333	0.004	Yes	2.821	-0.004	4.0	GoodResponse	0	0.222	n/a	2	29	ButtonPress	AvoidedLoss	True
286.309	0.33	Lose2	0.6333	n/a	Yes	2.821	n/a	n/a	GoodResponse	0	n/a	n/a	2	29	Blank	AvoidedLoss	True
286.627	1.45	Lose2	0.6333	n/a	Yes	2.821	n/a	5.0	GoodResponse	0	0.012	285.639	2	29	Feedback	AvoidedLoss	True
288.081	2.821	Lose2	0.6333	n/a	Yes	2.821	n/a	n/a	GoodResponse	0	0.0	n/a	2	29	ISIslide	AvoidedLoss	True
290.923	0.25	Win2	0.6452	0.0	Yes	2.777	0.023	n/a	GoodResponse	1	n/a	n/a	3	30	Cue	Win	True
291.174	3.9	Win2	0.6452	0.0	Yes	2.777	0.001	n/a	GoodResponse	1	n/a	n/a	3	30	Fixation	Win	True
295.069	0.38	Win2	0.6452	0.004	Yes	2.777	-0.004	4.0	GoodResponse	1	0.263	294.332	3	30	Target	Win	True
295.332	0.3	Win2	0.6452	0.004	Yes	2.777	-0.004	4.0	GoodResponse	1	0.263	n/a	3	30	ButtonPress	Win	True
295.453	0.32	Win2	0.6452	n/a	Yes	2.777	n/a	n/a	GoodResponse	1	n/a	n/a	3	30	Blank	Win	True
295.771	1.45	Win2	0.6452	n/a	Yes	2.777	n/a	5.0	GoodResponse	1	0.048	294.819	3	30	Feedback	Win	True
297.225	2.777	Win2	0.6452	n/a	Yes	2.777	n/a	n/a	GoodResponse	1	0.0	n/a	3	30	ISIslide	Win	True
300.017	0.25	Lose2	0.6562	0.0	Yes	2.833	0.017	n/a	GoodResponse	0	n/a	n/a	3	31	Cue	AvoidedLoss	True
300.268	4.05	Lose2	0.6562	0.0	Yes	2.833	0.001	n/a	GoodResponse	0	n/a	n/a	3	31	Fixation	AvoidedLoss	True
304.313	0.39	Lose2	0.6562	0.004	Yes	2.833	-0.004	4.0	GoodResponse	0	0.305	303.618	3	31	Target	AvoidedLoss	True
304.618	0.3	Lose2	0.6562	0.004	Yes	2.833	-0.004	4.0	GoodResponse	0	0.305	n/a	3	31	ButtonPress	AvoidedLoss	True
304.715	0.31	Lose2	0.6562	n/a	Yes	2.833	n/a	n/a	GoodResponse	0	n/a	n/a	3	31	Blank	AvoidedLoss	True
305.015	1.45	Lose2	0.6562	n/a	Yes	2.833	n/a	5.0	GoodResponse	0	0.035	304.05	3	31	Feedback	AvoidedLoss	True
306.47	2.833	Lose2	0.6562	n/a	Yes	2.833	n/a	n/a	GoodResponse	0	0.0	n/a	3	31	ISIslide	AvoidedLoss	True
309.328	0.25	Lose2	0.6667000000000001	0.0	Yes	2.622	0.028	n/a	GoodResponse	0	n/a	n/a	3	32	Cue	AvoidedLoss	True
309.579	4.15	Lose2	0.6667000000000001	0.0	Yes	2.622	0.001	n/a	GoodResponse	0	n/a	n/a	3	32	Fixation	AvoidedLoss	True
313.725	0.39	Lose2	0.6667000000000001	0.003	Yes	2.622	-0.003	4.0	GoodResponse	0	0.286	313.011	3	32	Target	AvoidedLoss	True
314.011	0.3	Lose2	0.6667000000000001	0.003	Yes	2.622	-0.003	4.0	GoodResponse	0	0.286	n/a	3	32	ButtonPress	AvoidedLoss	True
314.126	0.31	Lose2	0.6667000000000001	n/a	Yes	2.622	n/a	n/a	GoodResponse	0	n/a	n/a	3	32	Blank	AvoidedLoss	True
314.427	1.45	Lose2	0.6667000000000001	n/a	Yes	2.622	n/a	5.0	GoodResponse	0	0.007	313.434	3	32	Feedback	AvoidedLoss	True
315.881	2.622	Lose2	0.6667000000000001	n/a	Yes	2.622	n/a	n/a	GoodResponse	0	0.0	n/a	3	32	ISIslide	AvoidedLoss	True
318.523	0.25	Win2	0.6765000000000001	0.0	Yes	2.677	0.023	n/a	GoodResponse	1	n/a	n/a	4	33	Cue	Win	True
318.773	4.0	Win2	0.6765000000000001	0.0	Yes	2.677	0.0	n/a	GoodResponse	1	n/a	n/a	4	33	Fixation	Win	True
322.769	0.38	Win2	0.6765000000000001	0.004	Yes	2.677	-0.004	4.0	GoodResponse	1	0.203	321.972	4	33	Target	Win	True
322.972	0.3	Win2	0.6765000000000001	0.004	Yes	2.677	-0.004	4.0	GoodResponse	1	0.203	n/a	4	33	ButtonPress	Win	True
323.153	0.32	Win2	0.6765000000000001	n/a	Yes	2.677	n/a	n/a	GoodResponse	1	n/a	n/a	4	33	Blank	Win	True
323.471	1.45	Win2	0.6765000000000001	n/a	Yes	2.677	n/a	5.0	GoodResponse	1	0.039	322.51	4	33	Feedback	Win	True
324.925	2.677	Win2	0.6765000000000001	n/a	Yes	2.677	n/a	n/a	GoodResponse	1	0.0	n/a	4	33	ISIslide	Win	True
327.616	0.25	Lose2	0.6857	0.001	Yes	2.634	0.016	n/a	GoodResponse	0	n/a	n/a	4	34	Cue	AvoidedLoss	True
327.867	4.05	Lose2	0.6857	0.0	Yes	2.634	0.001	n/a	GoodResponse	0	n/a	n/a	4	34	Fixation	AvoidedLoss	True
331.913	0.37	Lose2	0.6857	0.003	Yes	2.634	-0.003	4.0	GoodResponse	0	0.23	331.143	4	34	Target	AvoidedLoss	True
332.143	0.3	Lose2	0.6857	0.003	Yes	2.634	-0.003	4.0	GoodResponse	0	0.23	n/a	4	34	ButtonPress	AvoidedLoss	True
332.297	0.33	Lose2	0.6857	n/a	Yes	2.634	n/a	n/a	GoodResponse	0	n/a	n/a	4	34	Blank	AvoidedLoss	True
332.615	1.45	Lose2	0.6857	n/a	Yes	2.634	n/a	5.0	GoodResponse	0	0.024	331.639	4	34	Feedback	AvoidedLoss	True
334.069	2.634	Lose2	0.6857	n/a	Yes	2.634	n/a	n/a	GoodResponse	0	0.0	n/a	4	34	ISIslide	AvoidedLoss	True
336.727	0.25	Lose2	0.6944	0.0	Yes	2.673	0.027	n/a	GoodResponse	0	n/a	n/a	4	35	Cue	AvoidedLoss	True
336.978	4.0	Lose2	0.6944	0.0	Yes	2.673	0.001	n/a	GoodResponse	0	n/a	n/a	4	35	Fixation	AvoidedLoss	True
340.973	0.36	Lose2	0.6944	0.004	Yes	2.673	-0.004	4.0	GoodResponse	0	0.357	340.33	4	35	Target	AvoidedLoss	True
341.33	0.3	Lose2	0.6944	0.004	Yes	2.673	-0.004	4.0	GoodResponse	0	0.357	n/a	4	35	ButtonPress	AvoidedLoss	True
341.341	0.34	Lose2	0.6944	n/a	Yes	2.673	n/a	n/a	GoodResponse	0	n/a	n/a	4	35	Blank	AvoidedLoss	True
341.675	1.45	Lose2	0.6944	n/a	Yes	2.673	n/a	5.0	GoodResponse	0	0.041	340.716	4	35	Feedback	AvoidedLoss	True
343.13	2.673	Lose2	0.6944	n/a	Yes	2.673	n/a	n/a	GoodResponse	0	0.0	n/a	4	35	ISIslide	AvoidedLoss	True
345.821	0.25	Control	0.7027	0.0	Yes	2.679	0.021	n/a	GoodResponse	0	n/a	n/a	4	36	Cue	Neutral	True
346.072	4.0	Control	0.7027	0.0	Yes	2.679	0.001	n/a	GoodResponse	0	n/a	n/a	4	36	Fixation	Neutral	True
350.067	0.35	Control	0.7027	0.004	Yes	2.679	-0.004	4.0	GoodResponse	0	0.266	349.333	4	36	Target	Neutral	True
350.333	0.3	Control	0.7027	0.004	Yes	2.679	-0.004	4.0	GoodResponse	0	0.266	n/a	4	36	ButtonPress	Neutral	True
350.418	0.35	Control	0.7027	n/a	Yes	2.679	n/a	n/a	GoodResponse	0	n/a	n/a	4	36	Blank	Neutral	True
350.769	1.45	Control	0.7027	n/a	Yes	2.679	n/a	5.0	GoodResponse	0	0.024	349.793	4	36	Feedback	Neutral	True
352.224	2.679	Control	0.7027	n/a	Yes	2.679	n/a	n/a	GoodResponse	0	0.0	n/a	4	36	ISIslide	Neutral	True
354.932	0.25	Win2	0.7105	0.0	Yes	2.868	0.032	n/a	GoodResponse	1	n/a	n/a	5	37	Cue	Win	True
355.182	4.0	Win2	0.7105	0.0	Yes	2.868	0.0	n/a	GoodResponse	1	n/a	n/a	5	37	Fixation	Win	True
359.178	0.34	Win2	0.7105	0.004	Yes	2.868	-0.004	4.0	GoodResponse	1	0.288	358.466	5	37	Target	Win	True
359.466	0.3	Win2	0.7105	0.004	Yes	2.868	-0.004	4.0	GoodResponse	1	0.288	n/a	5	37	ButtonPress	Win	True
359.529	0.36	Win2	0.7105	n/a	Yes	2.868	n/a	n/a	GoodResponse	1	n/a	n/a	5	37	Blank	Win	True
359.88	1.45	Win2	0.7105	n/a	Yes	2.868	n/a	5.0	GoodResponse	1	0.041	358.921	5	37	Feedback	Win	True
361.334	2.868	Win2	0.7105	n/a	Yes	2.868	n/a	n/a	GoodResponse	1	0.0	n/a	5	37	ISIslide	Win	True
364.226	0.25	Lose2	0.7179000000000001	0.0	Yes	2.824	0.026	n/a	GoodResponse	0	n/a	n/a	5	38	Cue	AvoidedLoss	True
364.477	3.95	Lose2	0.7179000000000001	0.0	Yes	2.824	0.001	n/a	GoodResponse	0	n/a	n/a	5	38	Fixation	AvoidedLoss	True
368.422	0.33	Lose2	0.7179000000000001	0.004	Yes	2.824	-0.004	4.0	GoodResponse	0	0.24	367.662	5	38	Target	AvoidedLoss	True
368.662	0.3	Lose2	0.7179000000000001	0.004	Yes	2.824	-0.004	4.0	GoodResponse	0	0.24	n/a	5	38	ButtonPress	AvoidedLoss	True
368.756	0.37	Lose2	0.7179000000000001	n/a	Yes	2.824	n/a	n/a	GoodResponse	0	n/a	n/a	5	38	Blank	AvoidedLoss	True
369.124	1.45	Lose2	0.7179000000000001	n/a	Yes	2.824	n/a	5.0	GoodResponse	0	0.028	368.152	5	38	Feedback	AvoidedLoss	True
370.579	2.824	Lose2	0.7179000000000001	n/a	Yes	2.824	n/a	n/a	GoodResponse	0	0.0	n/a	5	38	ISIslide	AvoidedLoss	True
373.42	0.25	Win2	0.725	0.0	Yes	2.98	0.02	n/a	GoodResponse	1	n/a	n/a	6	39	Cue	Win	True
373.671	4.1	Win2	0.725	0.0	Yes	2.98	0.001	n/a	GoodResponse	1	n/a	n/a	6	39	Fixation	Win	True
377.767	0.32	Win2	0.725	0.003	Yes	2.98	-0.003	4.0	GoodResponse	1	0.274	377.041	6	39	Target	Win	True
378.041	0.3	Win2	0.725	0.003	Yes	2.98	-0.003	4.0	GoodResponse	1	0.274	n/a	6	39	ButtonPress	Win	True
378.101	0.38	Win2	0.725	n/a	Yes	2.98	n/a	n/a	GoodResponse	1	n/a	n/a	6	39	Blank	Win	True
378.469	1.45	Win2	0.725	n/a	Yes	2.98	n/a	5.0	GoodResponse	1	0.015	377.484	6	39	Feedback	Win	True
379.923	2.98	Win2	0.725	n/a	Yes	2.98	n/a	n/a	GoodResponse	1	0.0	n/a	6	39	ISIslide	Win	True
382.915	0.25	Win2	0.7317	0.001	Yes	2.735	0.015	n/a	GoodResponse	1	n/a	n/a	7	40	Cue	Win	False
383.166	3.95	Win2	0.7317	0.0	Yes	2.735	0.001	4.0	GoodResponse	1	0.323	382.489	7	40	Fixation	Win	False
383.489	0.3	Win2	0.7317	0.0	Yes	2.735	0.001	4.0	GoodResponse	1	0.323	n/a	7	40	ButtonPress	Win	False
387.111	0.31	Win2	0.7317	0.004	Yes	2.735	-0.004	4.0	GoodResponse	1	0.261	386.372	7	40	Target	Win	False
387.372	0.3	Win2	0.7317	0.004	Yes	2.735	-0.004	4.0	GoodResponse	1	0.261	n/a	7	40	ButtonPress	Win	False
387.429	0.39	Win2	0.7317	n/a	Yes	2.735	n/a	n/a	GoodResponse	1	n/a	n/a	7	40	Blank	Win	False
387.814	1.45	Win2	0.7317	n/a	Yes	2.735	n/a	5.0	GoodResponse	1	0.007	386.821	7	40	Feedback	Win	False
389.268	2.735	Win2	0.7317	n/a	Yes	2.735	n/a	n/a	GoodResponse	1	0.0	n/a	7	40	ISIslide	Win	False
392.026	0.25	Win2	0.7381	0.0	Yes	2.774	0.026	n/a	GoodResponse	1	n/a	n/a	8	41	Cue	Win	True
392.277	3.9	Win2	0.7381	0.0	Yes	2.774	0.001	n/a	GoodResponse	1	n/a	n/a	8	41	Fixation	Win	True
396.172	0.3	Win2	0.7381	0.004	Yes	2.774	-0.004	4.0	GoodResponse	1	0.222	395.394	8	41	Target	Win	True
396.394	0.3	Win2	0.7381	0.004	Yes	2.774	-0.004	4.0	GoodResponse	1	0.222	n/a	8	41	ButtonPress	Win	True
396.473	0.4	Win2	0.7381	n/a	Yes	2.774	n/a	n/a	GoodResponse	1	n/a	n/a	8	41	Blank	Win	True
396.874	1.45	Win2	0.7381	n/a	Yes	2.774	n/a	5.0	GoodResponse	1	0.021	395.895	8	41	Feedback	Win	True
398.328	2.774	Win2	0.7381	n/a	Yes	2.774	n/a	n/a	GoodResponse	1	0.0	n/a	8	41	ISIslide	Win	True
401.12	0.25	Control	0.7209	0.0	No	2.93	0.02	n/a	LatePress	0	n/a	n/a	8	42	Cue	Neutral	True
401.371	3.85	Control	0.7209	0.0	No	2.93	0.001	n/a	LatePress	0	n/a	n/a	8	42	Fixation	Neutral	True
405.216	0.29	Control	0.7209	0.004	No	2.93	-0.004	4.0	LatePress	0	0.295	404.511	8	42	Target	Neutral	True
405.511	0.3	Control	0.7209	0.004	No	2.93	-0.004	4.0	LatePress	0	0.295	n/a	8	42	ButtonPress	Neutral	True
405.517	0.41	Control	0.7209	n/a	No	2.93	n/a	n/a	LatePress	0	n/a	n/a	8	42	Blank	Neutral	True
405.918	1.45	Control	0.7209	n/a	No	2.93	n/a	5.0	LatePress	0	0.008	404.926	8	42	Feedback	Neutral	True
407.372	2.93	Control	0.7209	n/a	No	2.93	n/a	n/a	LatePress	0	0.0	n/a	8	42	ISIslide	Neutral	True
410.331	0.25	Win2	0.7045	0.0	No	3.169	0.031	n/a	NoResponse	0	n/a	n/a	8	43	Cue	MissedWin	True
410.582	4.0	Win2	0.7045	0.0	No	3.169	0.001	n/a	NoResponse	0	n/a	n/a	8	43	Fixation	MissedWin	True
414.577	0.28	Win2	0.7045	0.004	No	3.169	-0.004	4.0	NoResponse	0	0.294	413.871	8	43	Target	MissedWin	True
414.861	0.42	Win2	0.7045	n/a	No	3.169	n/a	n/a	NoResponse	0	n/a	n/a	8	43	Blank	MissedWin	True
414.871	0.3	Win2	0.7045	0.004	No	3.169	-0.004	4.0	NoResponse	0	0.294	n/a	8	43	ButtonPress	MissedWin	True
415.279	1.45	Win2	0.7045	n/a	No	3.169	n/a	5.0	NoResponse	0	0.026	414.305	8	43	Feedback	MissedWin	True
416.733	3.169	Win2	0.7045	n/a	No	3.169	n/a	n/a	NoResponse	0	0.0	n/a	8	43	ISIslide	MissedWin	True
419.926	0.25	Win2	0.7111	0.001	Yes	2.974	0.026	n/a	GoodResponse	1	n/a	n/a	9	44	Cue	Win	True
420.177	4.0	Win2	0.7111	0.0	Yes	2.974	0.001	n/a	GoodResponse	1	n/a	n/a	9	44	Fixation	Win	True
424.172	0.27	Win2	0.7111	0.004	Yes	2.974	-0.004	4.0	GoodResponse	1	0.258	423.43	9	44	Target	Win	True
424.43	0.3	Win2	0.7111	0.004	Yes	2.974	-0.004	4.0	GoodResponse	1	0.258	n/a	9	44	ButtonPress	Win	True
424.457	0.43	Win2	0.7111	n/a	Yes	2.974	n/a	n/a	GoodResponse	1	n/a	n/a	9	44	Blank	Win	True
424.875	1.45	Win2	0.7111	n/a	Yes	2.974	n/a	5.0	GoodResponse	1	0.02	423.895	9	44	Feedback	Win	True
426.329	2.974	Win2	0.7111	n/a	Yes	2.974	n/a	n/a	GoodResponse	1	0.0	n/a	9	44	ISIslide	Win	True
429.321	0.25	Control	0.6957	0.0	No	2.879	0.021	n/a	NoResponse	0	n/a	n/a	9	45	Cue	Neutral	True
429.572	4.1	Control	0.6957	0.0	No	2.879	0.001	n/a	NoResponse	0	n/a	n/a	9	45	Fixation	Neutral	True
433.668	0.26	Control	0.6957	0.003	No	2.879	-0.003	4.0	NoResponse	0	0.65	433.318	9	45	Target	Neutral	True
433.935	0.44	Control	0.6957	n/a	No	2.879	n/a	n/a	NoResponse	0	n/a	n/a	9	45	Blank	Neutral	True
434.318	0.3	Control	0.6957	0.003	No	2.879	-0.003	4.0	NoResponse	0	0.65	n/a	9	45	ButtonPress	Neutral	True
434.37	1.45	Control	0.6957	n/a	No	2.879	n/a	5.0	NoResponse	0	0.011	433.381	9	45	Feedback	Neutral	True
435.824	2.879	Control	0.6957	n/a	No	2.879	n/a	n/a	NoResponse	0	0.0	n/a	9	45	ISIslide	Neutral	True
438.716	0.25	Lose2	0.6809000000000001	0.0	No	3.384	0.016	n/a	LatePress	-1	n/a	n/a	8	46	Cue	Loss	True
438.967	4.0	Lose2	0.6809000000000001	0.0	No	3.384	0.001	n/a	LatePress	-1	n/a	n/a	8	46	Fixation	Loss	True
442.962	0.25	Lose2	0.6809000000000001	0.004	No	3.384	-0.004	4.0	LatePress	-1	0.251	442.213	8	46	Target	Loss	True
443.213	0.45	Lose2	0.6809000000000001	n/a	No	3.384	n/a	n/a	LatePress	-1	n/a	n/a	8	46	Blank	Loss	True
443.213	0.3	Lose2	0.6809000000000001	0.004	No	3.384	-0.004	4.0	LatePress	-1	0.251	n/a	8	46	ButtonPress	Loss	True
443.664	1.45	Lose2	0.6809000000000001	n/a	No	3.384	n/a	5.0	LatePress	-1	0.0	442.664	8	46	Feedback	Loss	True
445.119	3.384	Lose2	0.6809000000000001	n/a	No	3.384	n/a	n/a	LatePress	-1	0.0	n/a	8	46	ISIslide	Loss	True
448.529	0.25	Lose2	0.6667000000000001	0.0	No	2.671	0.029	n/a	NoResponse	-1	n/a	n/a	7	47	Cue	Loss	True
448.78	4.0	Lose2	0.6667000000000001	0.0	No	2.671	0.001	n/a	NoResponse	-1	n/a	n/a	7	47	Fixation	Loss	True
452.775	0.24	Lose2	0.6667000000000001	0.004	No	2.671	-0.004	4.0	NoResponse	-1	0.304	452.079	7	47	Target	Loss	True
453.026	0.46	Lose2	0.6667000000000001	n/a	No	2.671	n/a	n/a	NoResponse	-1	n/a	n/a	7	47	Blank	Loss	True
453.079	0.3	Lose2	0.6667000000000001	0.004	No	2.671	-0.004	4.0	NoResponse	-1	0.304	n/a	7	47	ButtonPress	Loss	True
453.477	1.45	Lose2	0.6667000000000001	n/a	No	2.671	n/a	5.0	NoResponse	-1	0.033	452.51	7	47	Feedback	Loss	True
454.931	2.671	Lose2	0.6667000000000001	n/a	No	2.671	n/a	n/a	NoResponse	-1	0.0	n/a	7	47	ISIslide	Loss	True
457.623	0.25	Lose2	0.6531	0.0	No	3.027	0.023	n/a	NoResponse	-1	n/a	n/a	6	48	Cue	Loss	True
457.873	3.95	Lose2	0.6531	0.001	No	3.027	0.0	n/a	NoResponse	-1	n/a	n/a	6	48	Fixation	Loss	True
461.819	0.23	Lose2	0.6531	0.004	No	3.027	-0.004	4.0	NoResponse	-1	0.242	461.061	6	48	Target	Loss	True
462.053	0.47	Lose2	0.6531	n/a	No	3.027	n/a	n/a	NoResponse	-1	n/a	n/a	6	48	Blank	Loss	True
462.061	0.3	Lose2	0.6531	0.004	No	3.027	-0.004	4.0	NoResponse	-1	0.242	n/a	6	48	ButtonPress	Loss	True
462.521	1.45	Lose2	0.6531	n/a	No	3.027	n/a	5.0	NoResponse	-1	0.015	461.536	6	48	Feedback	Loss	True
463.975	3.027	Lose2	0.6531	n/a	No	3.027	n/a	n/a	NoResponse	-1	0.0	n/a	6	48	ISIslide	Loss	True
467.017	0.25	Control	0.64	0.001	No	2.883	0.017	n/a	NoResponse	0	n/a	n/a	6	49	Cue	Neutral	False
467.268	4.0	Control	0.64	0.0	No	2.883	0.001	4.0	NoResponse	0	3.745	470.013	6	49	Fixation	Neutral	False
471.013	0.3	Control	0.64	0.0	No	2.883	0.001	4.0	NoResponse	0	3.745	n/a	6	49	ButtonPress	Neutral	False
471.264	0.24	Control	0.64	0.003	No	2.883	-0.003	4.0	NoResponse	0	0.333	470.597	6	49	Target	Neutral	False
471.514	0.46	Control	0.64	n/a	No	2.883	n/a	n/a	NoResponse	0	n/a	n/a	6	49	Blank	Neutral	False
471.597	0.3	Control	0.64	0.003	No	2.883	-0.003	4.0	NoResponse	0	0.333	n/a	6	49	ButtonPress	Neutral	False
471.966	1.45	Control	0.64	n/a	No	2.883	n/a	5.0	NoResponse	0	0.007	470.973	6	49	Feedback	Neutral	False
473.42	2.883	Control	0.64	n/a	No	2.883	n/a	n/a	NoResponse	0	0.0	n/a	6	49	ISIslide	Neutral	False
476.329	0.25	Control	0.6470999999999999	0.0	Yes	2.771	0.029	n/a	GoodResponse	0	n/a	n/a	6	50	Cue	Neutral	False
476.579	4.0	Control	0.6470999999999999	0.001	Yes	2.771	0.0	4.0	GoodResponse	0	0.397	475.976	6	50	Fixation	Neutral	False
476.976	0.3	Control	0.6470999999999999	0.001	Yes	2.771	0.0	4.0	GoodResponse	0	0.397	n/a	6	50	ButtonPress	Neutral	False
480.575	0.25	Control	0.6470999999999999	0.004	Yes	2.771	-0.004	4.0	GoodResponse	0	0.228	479.803	6	50	Target	Neutral	False
480.803	0.3	Control	0.6470999999999999	0.004	Yes	2.771	-0.004	4.0	GoodResponse	0	0.228	n/a	6	50	ButtonPress	Neutral	False
480.826	0.45	Control	0.6470999999999999	n/a	Yes	2.771	n/a	n/a	GoodResponse	0	n/a	n/a	6	50	Blank	Neutral	False
481.277	1.45	Control	0.6470999999999999	n/a	Yes	2.771	n/a	5.0	GoodResponse	0	0.028	480.305	6	50	Feedback	Neutral	False
482.731	2.771	Control	0.6470999999999999	n/a	Yes	2.771	n/a	n/a	GoodResponse	0	0.0	n/a	6	50	ISIslide	Neutral	False
485.523	0.25	Control	0.6346	0.0	No	2.727	0.023	n/a	NoResponse	0	n/a	n/a	6	51	Cue	Neutral	True
485.774	3.95	Control	0.6346	0.0	No	2.727	0.001	n/a	NoResponse	0	n/a	n/a	6	51	Fixation	Neutral	True
489.719	0.26	Control	0.6346	0.004	No	2.727	-0.004	4.0	NoResponse	0	0.353	489.072	6	51	Target	Neutral	True
489.986	0.44	Control	0.6346	n/a	No	2.727	n/a	n/a	NoResponse	0	n/a	n/a	6	51	Blank	Neutral	True
490.072	0.3	Control	0.6346	0.004	No	2.727	-0.004	4.0	NoResponse	0	0.353	n/a	6	51	ButtonPress	Neutral	True
490.421	1.45	Control	0.6346	n/a	No	2.727	n/a	5.0	NoResponse	0	0.012	489.433	6	51	Feedback	Neutral	True
491.875	2.727	Control	0.6346	n/a	No	2.727	n/a	n/a	NoResponse	0	0.0	n/a	6	51	ISIslide	Neutral	True
494.617	0.25	Control	0.6225999999999999	0.0	No	2.633	0.017	n/a	NoResponse	0	n/a	n/a	6	52	Cue	Neutral	True
494.868	4.05	Control	0.6225999999999999	0.0	No	2.633	0.001	n/a	NoResponse	0	n/a	n/a	6	52	Fixation	Neutral	True
498.913	0.27	Control	0.6225999999999999	0.004	No	2.633	-0.004	4.0	NoResponse	0	0.378	498.291	6	52	Target	Neutral	True
499.197	0.43	Control	0.6225999999999999	n/a	No	2.633	n/a	n/a	NoResponse	0	n/a	n/a	6	52	Blank	Neutral	True
499.291	0.3	Control	0.6225999999999999	0.004	No	2.633	-0.004	4.0	NoResponse	0	0.378	n/a	6	52	ButtonPress	Neutral	True
499.615	1.45	Control	0.6225999999999999	n/a	No	2.633	n/a	5.0	NoResponse	0	0.048	498.663	6	52	Feedback	Neutral	True
501.07	2.633	Control	0.6225999999999999	n/a	No	2.633	n/a	n/a	NoResponse	0	0.0	n/a	6	52	ISIslide	Neutral	True
503.727	0.25	Win2	0.6296	0.001	Yes	2.923	0.027	n/a	GoodResponse	1	n/a	n/a	7	53	Cue	Win	False
503.978	4.05	Win2	0.6296	0.0	Yes	2.923	0.001	4.0	GoodResponse	1	3.719	506.697	7	53	Fixation	Win	False
507.697	0.3	Win2	0.6296	0.0	Yes	2.923	0.001	4.0	GoodResponse	1	3.719	n/a	7	53	ButtonPress	Win	False
508.024	0.28	Win2	0.6296	0.003	Yes	2.923	-0.003	4.0	GoodResponse	1	0.228	507.252	7	53	Target	Win	False
508.252	0.3	Win2	0.6296	0.003	Yes	2.923	-0.003	4.0	GoodResponse	1	0.228	n/a	7	53	ButtonPress	Win	False
508.308	0.42	Win2	0.6296	n/a	Yes	2.923	n/a	n/a	GoodResponse	1	n/a	n/a	7	53	Blank	Win	False
508.726	1.45	Win2	0.6296	n/a	Yes	2.923	n/a	5.0	GoodResponse	1	0.014	507.74	7	53	Feedback	Win	False
510.18	2.923	Win2	0.6296	n/a	Yes	2.923	n/a	n/a	GoodResponse	1	0.0	n/a	7	53	ISIslide	Win	False
513.122	0.25	Win2	0.6182	0.0	No	2.728	0.022	n/a	NoResponse	0	n/a	n/a	7	54	Cue	MissedWin	True
513.373	3.95	Win2	0.6182	0.0	No	2.728	0.001	n/a	NoResponse	0	n/a	n/a	7	54	Fixation	MissedWin	True
517.318	0.29	Win2	0.6182	0.004	No	2.728	-0.004	4.0	NoResponse	0	0.382	516.7	7	54	Target	MissedWin	True
517.619	0.41	Win2	0.6182	n/a	No	2.728	n/a	n/a	NoResponse	0	n/a	n/a	7	54	Blank	MissedWin	True
517.7	0.3	Win2	0.6182	0.004	No	2.728	-0.004	4.0	NoResponse	0	0.382	n/a	7	54	ButtonPress	MissedWin	True
518.02	1.45	Win2	0.6182	n/a	No	2.728	n/a	5.0	NoResponse	0	0.002	517.022	7	54	Feedback	MissedWin	True
519.475	2.728	Win2	0.6182	n/a	No	2.728	n/a	n/a	NoResponse	0	0.0	n/a	7	54	ISIslide	MissedWin	True
522.216	0.25	Control	0.625	0.0	Yes	3.034	0.016	n/a	GoodResponse	0	n/a	n/a	7	55	Cue	Neutral	True
522.467	3.95	Control	0.625	0.0	Yes	3.034	0.001	n/a	GoodResponse	0	n/a	n/a	7	55	Fixation	Neutral	True
526.412	0.3	Control	0.625	0.004	Yes	3.034	-0.004	4.0	GoodResponse	0	0.284	525.696	7	55	Target	Neutral	True
526.696	0.3	Control	0.625	0.004	Yes	3.034	-0.004	4.0	GoodResponse	0	0.284	n/a	7	55	ButtonPress	Neutral	True
526.713	0.4	Control	0.625	n/a	Yes	3.034	n/a	n/a	GoodResponse	0	n/a	n/a	7	55	Blank	Neutral	True
527.114	1.45	Control	0.625	n/a	Yes	3.034	n/a	5.0	GoodResponse	0	0.037	526.151	7	55	Feedback	Neutral	True
528.569	3.034	Control	0.625	n/a	Yes	3.034	n/a	n/a	GoodResponse	0	0.0	n/a	7	55	ISIslide	Neutral	True
531.628	0.25	Control	0.614	0.0	No	2.822	0.028	n/a	NoResponse	0	n/a	n/a	7	56	Cue	Neutral	True
531.879	3.95	Control	0.614	0.0	No	2.822	0.001	n/a	NoResponse	0	n/a	n/a	7	56	Fixation	Neutral	True
535.824	0.31	Control	0.614	0.004	No	2.822	-0.004	4.0	NoResponse	0	0.336	535.16	7	56	Target	Neutral	True
536.141	0.39	Control	0.614	n/a	No	2.822	n/a	n/a	NoResponse	0	n/a	n/a	7	56	Blank	Neutral	True
536.16	0.3	Control	0.614	0.004	No	2.822	-0.004	4.0	NoResponse	0	0.336	n/a	7	56	ButtonPress	Neutral	True
536.526	1.45	Control	0.614	n/a	No	2.822	n/a	5.0	NoResponse	0	0.009	535.535	7	56	Feedback	Neutral	True
537.98	2.822	Control	0.614	n/a	No	2.822	n/a	n/a	NoResponse	0	0.0	n/a	7	56	ISIslide	Neutral	True
540.822	0.25	Control	0.6034	0.0	No	3.478	0.022	n/a	NoResponse	0	n/a	n/a	7	57	Cue	Neutral	True
541.073	4.0	Control	0.6034	0.0	No	3.478	0.001	n/a	NoResponse	0	n/a	n/a	7	57	Fixation	Neutral	True
545.068	0.32	Control	0.6034	0.004	No	3.478	-0.004	4.0	NoResponse	0	0.386	544.454	7	57	Target	Neutral	True
545.402	0.38	Control	0.6034	n/a	No	3.478	n/a	n/a	NoResponse	0	n/a	n/a	7	57	Blank	Neutral	True
545.454	0.3	Control	0.6034	0.004	No	3.478	-0.004	4.0	NoResponse	0	0.386	n/a	7	57	ButtonPress	Neutral	True
545.77	1.45	Control	0.6034	n/a	No	3.478	n/a	5.0	NoResponse	0	0.048	544.818	7	57	Feedback	Neutral	True
547.224	3.478	Control	0.6034	n/a	No	3.478	n/a	n/a	NoResponse	0	0.0	n/a	7	57	ISIslide	Neutral	True
550.718	0.25	Win2	0.6102000000000001	0.0	Yes	2.732	0.018	n/a	GoodResponse	1	n/a	n/a	8	58	Cue	Win	False
550.969	4.05	Win2	0.6102000000000001	0.0	Yes	2.732	0.001	4.0	GoodResponse	1	0.268	550.237	8	58	Fixation	Win	False
551.237	0.3	Win2	0.6102000000000001	0.0	Yes	2.732	0.001	4.0	GoodResponse	1	0.268	n/a	8	58	ButtonPress	Win	False
555.015	0.33	Win2	0.6102000000000001	0.003	Yes	2.732	-0.003	4.0	GoodResponse	1	0.167	554.182	8	58	Target	Win	False
555.182	0.3	Win2	0.6102000000000001	0.003	Yes	2.732	-0.003	4.0	GoodResponse	1	0.167	n/a	8	58	ButtonPress	Win	False
555.349	0.37	Win2	0.6102000000000001	n/a	Yes	2.732	n/a	n/a	GoodResponse	1	n/a	n/a	8	58	Blank	Win	False
555.717	1.45	Win2	0.6102000000000001	n/a	Yes	2.732	n/a	5.0	GoodResponse	1	0.048	554.765	8	58	Feedback	Win	False
557.171	2.732	Win2	0.6102000000000001	n/a	Yes	2.732	n/a	n/a	GoodResponse	1	0.0	n/a	8	58	ISIslide	Win	False
559.929	0.25	Lose2	0.6	0.0	No	2.671	0.029	n/a	NoResponse	-1	n/a	n/a	7	59	Cue	Loss	True
560.18	4.0	Lose2	0.6	0.0	No	2.671	0.001	n/a	NoResponse	-1	n/a	n/a	7	59	Fixation	Loss	True
564.175	0.34	Lose2	0.6	0.004	No	2.671	-0.004	4.0	NoResponse	-1	0.484	563.659	7	59	Target	Loss	True
564.526	0.36	Lose2	0.6	n/a	No	2.671	n/a	n/a	NoResponse	-1	n/a	n/a	7	59	Blank	Loss	True
564.659	0.3	Lose2	0.6	0.004	No	2.671	-0.004	4.0	NoResponse	-1	0.484	n/a	7	59	ButtonPress	Loss	True
564.877	1.45	Lose2	0.6	n/a	No	2.671	n/a	5.0	NoResponse	-1	0.017	563.894	7	59	Feedback	Loss	True
566.332	2.671	Lose2	0.6	n/a	No	2.671	n/a	n/a	NoResponse	-1	0.0	n/a	7	59	ISIslide	Loss	True
569.023	0.25	Control	0.5902000000000001	0.0	No	2.677	0.023	n/a	NoResponse	0	n/a	n/a	7	60	Cue	Neutral	False
569.274	4.0	Control	0.5902000000000001	0.0	No	2.677	0.001	n/a	NoResponse	0	n/a	n/a	7	60	Fixation	Neutral	False
573.269	0.35	Control	0.5902000000000001	0.004	No	2.677	-0.004	n/a	NoResponse	0	n/a	n/a	7	60	Target	Neutral	False
573.62	0.35	Control	0.5902000000000001	n/a	No	2.677	n/a	n/a	NoResponse	0	n/a	n/a	7	60	Blank	Neutral	False
573.971	1.45	Control	0.5902000000000001	n/a	No	2.677	n/a	5.0	NoResponse	0	0.051	573.022	7	60	Feedback	Neutral	False
575.426	2.677	Control	0.5902000000000001	n/a	No	2.677	n/a	n/a	NoResponse	0	0.0	n/a	7	60	ISIslide	Neutral	False
578.117	0.25	Lose2	0.5968	0.0	Yes	2.983	0.017	n/a	GoodResponse	0	n/a	n/a	7	61	Cue	AvoidedLoss	True
578.368	4.0	Lose2	0.5968	0.0	Yes	2.983	0.001	n/a	GoodResponse	0	n/a	n/a	7	61	Fixation	AvoidedLoss	True
582.363	0.36	Lose2	0.5968	0.004	Yes	2.983	-0.004	4.0	GoodResponse	0	0.194	581.557	7	61	Target	AvoidedLoss	True
582.557	0.3	Lose2	0.5968	0.004	Yes	2.983	-0.004	4.0	GoodResponse	0	0.194	n/a	7	61	ButtonPress	AvoidedLoss	True
582.731	0.34	Lose2	0.5968	n/a	Yes	2.983	n/a	n/a	GoodResponse	0	n/a	n/a	7	61	Blank	AvoidedLoss	True
583.065	1.45	Lose2	0.5968	n/a	Yes	2.983	n/a	5.0	GoodResponse	0	0.034	582.099	7	61	Feedback	AvoidedLoss	True
584.52	2.983	Lose2	0.5968	n/a	Yes	2.983	n/a	n/a	GoodResponse	0	0.0	n/a	7	61	ISIslide	AvoidedLoss	True
587.529	0.25	Lose2	0.6032	0.0	Yes	2.871	0.029	n/a	GoodResponse	0	n/a	n/a	7	62	Cue	AvoidedLoss	True
587.779	3.9	Lose2	0.6032	0.0	Yes	2.871	0.0	n/a	GoodResponse	0	n/a	n/a	7	62	Fixation	AvoidedLoss	True
591.691	0.37	Lose2	0.6032	0.0	Yes	2.871	0.012	4.0	GoodResponse	0	0.217	590.908	7	62	Target	AvoidedLoss	True
591.908	0.3	Lose2	0.6032	0.0	Yes	2.871	0.012	4.0	GoodResponse	0	0.217	n/a	7	62	ButtonPress	AvoidedLoss	True
592.059	0.33	Lose2	0.6032	n/a	Yes	2.871	n/a	n/a	GoodResponse	0	n/a	n/a	7	62	Blank	AvoidedLoss	True
592.376	1.45	Lose2	0.6032	n/a	Yes	2.871	n/a	5.0	GoodResponse	0	0.009	591.385	7	62	Feedback	AvoidedLoss	True
593.831	2.871	Lose2	0.6032	n/a	Yes	2.871	n/a	n/a	GoodResponse	0	0.0	n/a	7	62	ISIslide	AvoidedLoss	True
596.723	0.25	Lose2	0.6093999999999999	0.0	Yes	2.627	0.023	n/a	GoodResponse	0	n/a	n/a	7	63	Cue	AvoidedLoss	True
596.974	4.05	Lose2	0.6093999999999999	0.0	Yes	2.627	0.001	n/a	GoodResponse	0	n/a	n/a	7	63	Fixation	AvoidedLoss	True
601.019	0.38	Lose2	0.6093999999999999	0.004	Yes	2.627	-0.004	4.0	GoodResponse	0	0.259	600.278	7	63	Target	AvoidedLoss	True
601.278	0.3	Lose2	0.6093999999999999	0.004	Yes	2.627	-0.004	4.0	GoodResponse	0	0.259	n/a	7	63	ButtonPress	AvoidedLoss	True
601.403	0.32	Lose2	0.6093999999999999	n/a	Yes	2.627	n/a	n/a	GoodResponse	0	n/a	n/a	7	63	Blank	AvoidedLoss	True
601.721	1.45	Lose2	0.6093999999999999	n/a	Yes	2.627	n/a	5.0	GoodResponse	0	0.045	600.766	7	63	Feedback	AvoidedLoss	True
603.175	2.627	Lose2	0.6093999999999999	n/a	Yes	2.627	n/a	n/a	GoodResponse	0	0.0	n/a	7	63	ISIslide	AvoidedLoss	True
605.817	0.25	Win2	0.6154	0.0	Yes	3.133	0.017	n/a	GoodResponse	1	n/a	n/a	8	64	Cue	Win	True
606.067	4.15	Win2	0.6154	0.001	Yes	3.133	0.0	n/a	GoodResponse	1	n/a	n/a	8	64	Fixation	Win	True
610.213	0.39	Win2	0.6154	0.004	Yes	3.133	-0.004	4.0	GoodResponse	1	0.236	609.449	8	64	Target	Win	True
610.449	0.3	Win2	0.6154	0.004	Yes	3.133	-0.004	4.0	GoodResponse	1	0.236	n/a	8	64	ButtonPress	Win	True
610.614	0.31	Win2	0.6154	n/a	Yes	3.133	n/a	n/a	GoodResponse	1	n/a	n/a	8	64	Blank	Win	True
610.915	1.45	Win2	0.6154	n/a	Yes	3.133	n/a	5.0	GoodResponse	1	0.03	609.945	8	64	Feedback	Win	True
612.37	3.133	Win2	0.6154	n/a	Yes	3.133	n/a	n/a	GoodResponse	1	0.0	n/a	8	64	ISIslide	Win	True
615.529	0.25	Control	0.6212	0.0	Yes	2.771	0.029	n/a	GoodResponse	0	n/a	n/a	8	65	Cue	Neutral	True
615.78	4.0	Control	0.6212	0.0	Yes	2.771	0.001	n/a	GoodResponse	0	n/a	n/a	8	65	Fixation	Neutral	True
619.775	0.4	Control	0.6212	0.004	Yes	2.771	-0.004	4.0	GoodResponse	0	0.339	619.114	8	65	Target	Neutral	True
620.114	0.3	Control	0.6212	0.004	Yes	2.771	-0.004	4.0	GoodResponse	0	0.339	n/a	8	65	ButtonPress	Neutral	True
620.176	0.3	Control	0.6212	n/a	Yes	2.771	n/a	n/a	GoodResponse	0	n/a	n/a	8	65	Blank	Neutral	True
620.477	1.45	Control	0.6212	n/a	Yes	2.771	n/a	5.0	GoodResponse	0	0.008	619.485	8	65	Feedback	Neutral	True
621.932	2.771	Control	0.6212	n/a	Yes	2.771	n/a	n/a	GoodResponse	0	0.0	n/a	8	65	ISIslide	Neutral	True
624.723	0.25	Win2	0.6269	0.0	Yes	2.777	0.023	n/a	GoodResponse	1	n/a	n/a	9	66	Cue	Win	False
624.974	3.9	Win2	0.6269	0.0	Yes	2.777	0.001	4.0	GoodResponse	1	0.178	624.152	9	66	Fixation	Win	False
625.152	0.3	Win2	0.6269	0.0	Yes	2.777	0.001	4.0	GoodResponse	1	0.178	n/a	9	66	ButtonPress	Win	False
628.869	0.41	Win2	0.6269	0.004	Yes	2.777	-0.004	4.0	GoodResponse	1	0.289	628.158	9	66	Target	Win	False
629.158	0.3	Win2	0.6269	0.004	Yes	2.777	-0.004	4.0	GoodResponse	1	0.289	n/a	9	66	ButtonPress	Win	False
629.287	0.29	Win2	0.6269	n/a	Yes	2.777	n/a	n/a	GoodResponse	1	n/a	n/a	9	66	Blank	Win	False
629.571	1.45	Win2	0.6269	n/a	Yes	2.777	n/a	5.0	GoodResponse	1	0.04	628.611	9	66	Feedback	Win	False
631.026	2.777	Win2	0.6269	n/a	Yes	2.777	n/a	n/a	GoodResponse	1	0.0	n/a	9	66	ISIslide	Win	False
633.817	0.25	Control	0.6324000000000001	0.0	Yes	2.733	0.017	n/a	GoodResponse	0	n/a	n/a	9	67	Cue	Neutral	False
634.068	3.95	Control	0.6324000000000001	0.0	Yes	2.733	0.001	4.0	GoodResponse	0	3.7	636.768	9	67	Fixation	Neutral	False
637.768	0.3	Control	0.6324000000000001	0.0	Yes	2.733	0.001	4.0	GoodResponse	0	3.7	n/a	9	67	ButtonPress	Neutral	False
638.013	0.42	Control	0.6324000000000001	0.004	Yes	2.733	-0.004	4.0	GoodResponse	0	0.275	637.288	9	67	Target	Neutral	False
638.288	0.3	Control	0.6324000000000001	0.004	Yes	2.733	-0.004	4.0	GoodResponse	0	0.275	n/a	9	67	ButtonPress	Neutral	False
638.448	0.28	Control	0.6324000000000001	n/a	Yes	2.733	n/a	n/a	GoodResponse	0	n/a	n/a	9	67	Blank	Neutral	False
638.715	1.45	Control	0.6324000000000001	n/a	Yes	2.733	n/a	5.0	GoodResponse	0	0.025	637.74	9	67	Feedback	Neutral	False
640.17	2.733	Control	0.6324000000000001	n/a	Yes	2.733	n/a	n/a	GoodResponse	0	0.0	n/a	9	67	ISIslide	Neutral	False
642.928	0.25	Win2	0.6377	0.0	Yes	3.072	0.028	n/a	GoodResponse	1	n/a	n/a	10	68	Cue	Win	False
643.179	4.0	Win2	0.6377	0.0	Yes	3.072	0.001	4.0	GoodResponse	1	0.086	642.265	10	68	Fixation	Win	False
643.265	0.3	Win2	0.6377	0.0	Yes	3.072	0.001	4.0	GoodResponse	1	0.086	n/a	10	68	ButtonPress	Win	False
647.174	0.43	Win2	0.6377	0.004	Yes	3.072	-0.004	4.0	GoodResponse	1	0.307	646.481	10	68	Target	Win	False
647.481	0.3	Win2	0.6377	0.004	Yes	3.072	-0.004	4.0	GoodResponse	1	0.307	n/a	10	68	ButtonPress	Win	False
647.609	0.27	Win2	0.6377	n/a	Yes	3.072	n/a	n/a	GoodResponse	1	n/a	n/a	10	68	Blank	Win	False
647.876	1.45	Win2	0.6377	n/a	Yes	3.072	n/a	5.0	GoodResponse	1	0.043	646.919	10	68	Feedback	Win	False
649.33	3.072	Win2	0.6377	n/a	Yes	3.072	n/a	n/a	GoodResponse	1	0.0	n/a	10	68	ISIslide	Win	False
652.423	0.25	Win2	0.6429	0.0	Yes	3.227	0.023	n/a	GoodResponse	1	n/a	n/a	11	69	Cue	Win	False
652.674	3.95	Win2	0.6429	0.0	Yes	3.227	0.001	4.0	GoodResponse	1	0.315	651.989	11	69	Fixation	Win	False
652.989	0.3	Win2	0.6429	0.0	Yes	3.227	0.001	4.0	GoodResponse	1	0.315	n/a	11	69	ButtonPress	Win	False
656.619	0.44	Win2	0.6429	0.004	Yes	3.227	-0.004	4.0	GoodResponse	1	0.228	655.847	11	69	Target	Win	False
656.847	0.3	Win2	0.6429	0.004	Yes	3.227	-0.004	4.0	GoodResponse	1	0.228	n/a	11	69	ButtonPress	Win	False
657.07	0.26	Win2	0.6429	n/a	Yes	3.227	n/a	n/a	GoodResponse	1	n/a	n/a	11	69	Blank	Win	False
657.321	1.45	Win2	0.6429	n/a	Yes	3.227	n/a	5.0	GoodResponse	1	0.034	656.355	11	69	Feedback	Win	False
658.775	3.227	Win2	0.6429	n/a	Yes	3.227	n/a	n/a	GoodResponse	1	0.0	n/a	11	69	ISIslide	Win	False
662.018	0.25	Lose2	0.6479	0.001	Yes	3.032	0.018	n/a	GoodResponse	0	n/a	n/a	11	70	Cue	AvoidedLoss	True
662.269	4.05	Lose2	0.6479	0.0	Yes	3.032	0.001	n/a	GoodResponse	0	n/a	n/a	11	70	Fixation	AvoidedLoss	True
666.315	0.45	Lose2	0.6479	0.003	Yes	3.032	-0.003	4.0	GoodResponse	0	0.248	665.563	11	70	Target	AvoidedLoss	True
666.563	0.3	Lose2	0.6479	0.003	Yes	3.032	-0.003	4.0	GoodResponse	0	0.248	n/a	11	70	ButtonPress	AvoidedLoss	True
666.766	0.25	Lose2	0.6479	n/a	Yes	3.032	n/a	n/a	GoodResponse	0	n/a	n/a	11	70	Blank	AvoidedLoss	True
667.017	1.45	Lose2	0.6479	n/a	Yes	3.032	n/a	5.0	GoodResponse	0	0.031	666.048	11	70	Feedback	AvoidedLoss	True
668.471	3.032	Lose2	0.6479	n/a	Yes	3.032	n/a	n/a	GoodResponse	0	0.0	n/a	11	70	ISIslide	AvoidedLoss	True
671.53	0.25	Win2	0.6389	0.0	No	2.72	0.03	n/a	NoResponse	0	n/a	n/a	11	71	Cue	MissedWin	True
671.781	4.05	Win2	0.6389	0.0	No	2.72	0.001	n/a	NoResponse	0	n/a	n/a	11	71	Fixation	MissedWin	True
675.826	0.46	Win2	0.6389	0.004	No	2.72	-0.004	4.0	NoResponse	0	0.553	675.379	11	71	Target	MissedWin	True
676.295	0.24	Win2	0.6389	n/a	No	2.72	n/a	n/a	NoResponse	0	n/a	n/a	11	71	Blank	MissedWin	True
676.379	0.3	Win2	0.6389	0.004	No	2.72	-0.004	4.0	NoResponse	0	0.553	n/a	11	71	ButtonPress	MissedWin	True
676.529	1.45	Win2	0.6389	n/a	No	2.72	n/a	5.0	NoResponse	0	0.006	675.535	11	71	Feedback	MissedWin	True
677.983	2.72	Win2	0.6389	n/a	No	2.72	n/a	n/a	NoResponse	0	0.0	n/a	11	71	ISIslide	MissedWin	True
680.725	0.25	Win2	0.6437999999999999	0.0	Yes	2.775	0.025	n/a	GoodResponse	1	n/a	n/a	12	72	Cue	Win	True
680.975	4.1	Win2	0.6437999999999999	0.0	Yes	2.775	0.0	n/a	GoodResponse	1	n/a	n/a	12	72	Fixation	Win	True
685.071	0.47	Win2	0.6437999999999999	0.004	Yes	2.775	-0.004	4.0	GoodResponse	1	0.292	684.363	12	72	Target	Win	True
685.363	0.3	Win2	0.6437999999999999	0.004	Yes	2.775	-0.004	4.0	GoodResponse	1	0.292	n/a	12	72	ButtonPress	Win	True
685.556	0.23	Win2	0.6437999999999999	n/a	Yes	2.775	n/a	n/a	GoodResponse	1	n/a	n/a	12	72	Blank	Win	True
685.773	1.45	Win2	0.6437999999999999	n/a	Yes	2.775	n/a	5.0	GoodResponse	1	0.043	684.816	12	72	Feedback	Win	True
687.227	2.775	Win2	0.6437999999999999	n/a	Yes	2.775	n/a	n/a	GoodResponse	1	0.0	n/a	12	72	ISIslide	Win	True
690.019	0.25	Win2	0.6486	0.0	Yes	2.681	0.019	n/a	GoodResponse	1	n/a	n/a	13	73	Cue	Win	True
690.27	4.0	Win2	0.6486	0.0	Yes	2.681	0.001	n/a	GoodResponse	1	n/a	n/a	13	73	Fixation	Win	True
694.265	0.48	Win2	0.6486	0.004	Yes	2.681	-0.004	4.0	GoodResponse	1	0.216	693.481	13	73	Target	Win	True
694.481	0.3	Win2	0.6486	0.004	Yes	2.681	-0.004	4.0	GoodResponse	1	0.216	n/a	13	73	ButtonPress	Win	True
694.75	0.22	Win2	0.6486	n/a	Yes	2.681	n/a	n/a	GoodResponse	1	n/a	n/a	13	73	Blank	Win	True
694.967	1.45	Win2	0.6486	n/a	Yes	2.681	n/a	5.0	GoodResponse	1	0.029	693.996	13	73	Feedback	Win	True
696.422	2.681	Win2	0.6486	n/a	Yes	2.681	n/a	n/a	GoodResponse	1	0.0	n/a	13	73	ISIslide	Win	True
699.13	0.25	Lose2	0.6533	0.0	Yes	2.62	0.03	n/a	GoodResponse	0	n/a	n/a	13	74	Cue	AvoidedLoss	True
699.38	4.05	Lose2	0.6533	0.001	Yes	2.62	0.0	n/a	GoodResponse	0	n/a	n/a	13	74	Fixation	AvoidedLoss	True
703.426	0.49	Lose2	0.6533	0.004	Yes	2.62	-0.004	4.0	GoodResponse	0	0.418	702.844	13	74	Target	AvoidedLoss	True
703.844	0.3	Lose2	0.6533	0.004	Yes	2.62	-0.004	4.0	GoodResponse	0	0.418	n/a	13	74	ButtonPress	AvoidedLoss	True
703.927	0.21	Lose2	0.6533	n/a	Yes	2.62	n/a	n/a	GoodResponse	0	n/a	n/a	13	74	Blank	AvoidedLoss	True
704.128	1.45	Lose2	0.6533	n/a	Yes	2.62	n/a	5.0	GoodResponse	0	0.047	703.175	13	74	Feedback	AvoidedLoss	True
705.582	2.62	Lose2	0.6533	n/a	Yes	2.62	n/a	n/a	GoodResponse	0	0.0	n/a	13	74	ISIslide	AvoidedLoss	True
708.224	0.25	Lose2	0.6579	0.0	Yes	2.926	0.024	n/a	GoodResponse	0	n/a	n/a	13	75	Cue	AvoidedLoss	True
708.474	3.95	Lose2	0.6579	0.0	Yes	2.926	0.0	n/a	GoodResponse	0	n/a	n/a	13	75	Fixation	AvoidedLoss	True
712.436	0.5	Lose2	0.6579	0.0	Yes	2.926	0.012	4.0	GoodResponse	0	0.235	711.671	13	75	Target	AvoidedLoss	True
712.671	0.3	Lose2	0.6579	0.0	Yes	2.926	0.012	4.0	GoodResponse	0	0.235	n/a	13	75	ButtonPress	AvoidedLoss	True
712.921	0.2	Lose2	0.6579	n/a	Yes	2.926	n/a	n/a	GoodResponse	0	n/a	n/a	13	75	Blank	AvoidedLoss	True
713.122	1.45	Lose2	0.6579	n/a	Yes	2.926	n/a	5.0	GoodResponse	0	0.028	712.15	13	75	Feedback	AvoidedLoss	True
714.576	2.926	Lose2	0.6579	n/a	Yes	2.926	n/a	n/a	GoodResponse	0	0.0	n/a	13	75	ISIslide	AvoidedLoss	True
717.518	0.25	Control	0.6623	0.0	Yes	3.232	0.018	n/a	GoodResponse	0	n/a	n/a	13	76	Cue	Neutral	True
717.769	4.05	Control	0.6623	0.0	Yes	3.232	0.001	n/a	GoodResponse	0	n/a	n/a	13	76	Fixation	Neutral	True
721.814	0.5	Control	0.6623	0.004	Yes	3.232	-0.004	4.0	GoodResponse	0	0.281	721.095	13	76	Target	Neutral	True
722.095	0.3	Control	0.6623	0.004	Yes	3.232	-0.004	4.0	GoodResponse	0	0.281	n/a	13	76	ButtonPress	Neutral	True
722.316	0.2	Control	0.6623	n/a	Yes	3.232	n/a	n/a	GoodResponse	0	n/a	n/a	13	76	Blank	Neutral	True
722.516	1.45	Control	0.6623	n/a	Yes	3.232	n/a	5.0	GoodResponse	0	0.018	721.534	13	76	Feedback	Neutral	True
723.971	3.232	Control	0.6623	n/a	Yes	3.232	n/a	n/a	GoodResponse	0	0.0	n/a	13	76	ISIslide	Neutral	True
727.231	0.25	Lose2	0.6667000000000001	0.0	Yes	2.569	0.031	n/a	GoodResponse	0	n/a	n/a	13	77	Cue	AvoidedLoss	True
727.481	3.95	Lose2	0.6667000000000001	0.0	Yes	2.569	0.0	n/a	GoodResponse	0	n/a	n/a	13	77	Fixation	AvoidedLoss	True
731.443	0.5	Lose2	0.6667000000000001	0.0	Yes	2.569	0.012	4.0	GoodResponse	0	0.283	730.726	13	77	Target	AvoidedLoss	True
731.726	0.3	Lose2	0.6667000000000001	0.0	Yes	2.569	0.012	4.0	GoodResponse	0	0.283	n/a	13	77	ButtonPress	AvoidedLoss	True
731.928	0.2	Lose2	0.6667000000000001	n/a	Yes	2.569	n/a	n/a	GoodResponse	0	n/a	n/a	13	77	Blank	AvoidedLoss	True
732.129	1.45	Lose2	0.6667000000000001	n/a	Yes	2.569	n/a	5.0	GoodResponse	0	0.046	731.175	13	77	Feedback	AvoidedLoss	True
733.583	2.569	Lose2	0.6667000000000001	n/a	Yes	2.569	n/a	n/a	GoodResponse	0	0.0	n/a	13	77	ISIslide	AvoidedLoss	True
