onset	duration	cue_type	current_mean_accuracy	duration_error	is_hit	isi_adjusted	onset_delay	response	response_type	reward	rt	rt_time	total_reward	trial_number	trial_phase	trial_type	one_press
11.106	0.25	Control	1.0	0.0	Yes	2.944	0.006	n/a	GoodResponse	0	n/a	n/a	0	0	Cue	Neutral	True
11.356	3.85	Control	1.0	0.0	Yes	2.944	0.0	n/a	GoodResponse	0	n/a	n/a	0	0	Fixation	Neutral	True
15.218	0.4	Control	1.0	0.0	Yes	2.944	0.012	4.0	GoodResponse	0	0.202	14.42	0	0	Target	Neutral	True
15.42	0.3	Control	1.0	0.0	Yes	2.944	0.012	4.0	GoodResponse	0	0.202	n/a	0	0	ButtonPress	Neutral	True
15.602	0.3	Control	1.0	n/a	Yes	2.944	n/a	n/a	GoodResponse	0	n/a	n/a	0	0	Blank	Neutral	True
15.903	1.45	Control	1.0	n/a	Yes	2.944	n/a	5.0	GoodResponse	0	0.023	14.926	0	0	Feedback	Neutral	True
17.358	2.944	Control	1.0	n/a	Yes	2.944	n/a	n/a	GoodResponse	0	0.0	n/a	0	0	ISIslide	Neutral	True
20.383	0.25	Lose2	1.0	0.0	Yes	2.717	0.083	n/a	GoodResponse	0	n/a	n/a	0	1	Cue	AvoidedLoss	True
20.634	4.0	Lose2	1.0	0.0	Yes	2.717	0.001	n/a	GoodResponse	0	n/a	n/a	0	1	Fixation	AvoidedLoss	True
24.629	0.39	Lose2	1.0	0.004	Yes	2.717	-0.004	4.0	GoodResponse	0	0.199	23.828	0	1	Target	AvoidedLoss	True
24.828	0.3	Lose2	1.0	0.004	Yes	2.717	-0.004	4.0	GoodResponse	0	0.199	n/a	0	1	ButtonPress	AvoidedLoss	True
25.031	0.31	Lose2	1.0	n/a	Yes	2.717	n/a	n/a	GoodResponse	0	n/a	n/a	0	1	Blank	AvoidedLoss	True
25.331	1.45	Lose2	1.0	n/a	Yes	2.717	n/a	5.0	GoodResponse	0	0.01	24.341	0	1	Feedback	AvoidedLoss	True
26.786	2.717	Lose2	1.0	n/a	Yes	2.717	n/a	n/a	GoodResponse	0	0.0	n/a	0	1	ISIslide	AvoidedLoss	True
29.527	0.25	Control	1.0	0.0	Yes	2.573	0.027	n/a	GoodResponse	0	n/a	n/a	0	2	Cue	Neutral	True
29.778	4.1	Control	1.0	0.0	Yes	2.573	0.001	n/a	GoodResponse	0	n/a	n/a	0	2	Fixation	Neutral	True
33.874	0.38	Control	1.0	0.003	Yes	2.573	-0.003	4.0	GoodResponse	0	0.246	33.12	0	2	Target	Neutral	True
34.12	0.3	Control	1.0	0.003	Yes	2.573	-0.003	4.0	GoodResponse	0	0.246	n/a	0	2	ButtonPress	Neutral	True
34.258	0.32	Control	1.0	n/a	Yes	2.573	n/a	n/a	GoodResponse	0	n/a	n/a	0	2	Blank	Neutral	True
34.576	1.45	Control	1.0	n/a	Yes	2.573	n/a	5.0	GoodResponse	0	0.032	33.608	0	2	Feedback	Neutral	True
36.03	2.573	Control	1.0	n/a	Yes	2.573	n/a	n/a	GoodResponse	0	0.0	n/a	0	2	ISIslide	Neutral	True
38.688	0.25	Win2	1.0	0.0	Yes	2.762	0.088	n/a	GoodResponse	1	n/a	n/a	1	3	Cue	Win	True
38.939	3.95	Win2	1.0	0.0	Yes	2.762	0.001	n/a	GoodResponse	1	n/a	n/a	1	3	Fixation	Win	True
42.884	0.37	Win2	1.0	0.004	Yes	2.762	-0.004	4.0	GoodResponse	1	0.229	42.113	1	3	Target	Win	True
43.113	0.3	Win2	1.0	0.004	Yes	2.762	-0.004	4.0	GoodResponse	1	0.229	n/a	1	3	ButtonPress	Win	True
43.268	0.33	Win2	1.0	n/a	Yes	2.762	n/a	n/a	GoodResponse	1	n/a	n/a	1	3	Blank	Win	True
43.586	1.45	Win2	1.0	n/a	Yes	2.762	n/a	5.0	GoodResponse	1	0.047	42.633	1	3	Feedback	Win	True
45.04	2.762	Win2	1.0	n/a	Yes	2.762	n/a	n/a	GoodResponse	1	0.0	n/a	1	3	ISIslide	Win	True
47.815	0.25	Win2	1.0	0.0	Yes	3.285	0.015	n/a	GoodResponse	1	n/a	n/a	2	4	Cue	Win	True
48.066	4.0	Win2	1.0	0.0	Yes	3.285	0.001	n/a	GoodResponse	1	n/a	n/a	2	4	Fixation	Win	True
52.061	0.36	Win2	1.0	0.004	Yes	3.285	-0.004	4.0	GoodResponse	1	0.221	51.282	2	4	Target	Win	True
52.282	0.3	Win2	1.0	0.004	Yes	3.285	-0.004	4.0	GoodResponse	1	0.221	n/a	2	4	ButtonPress	Win	True
52.429	0.34	Win2	1.0	n/a	Yes	3.285	n/a	n/a	GoodResponse	1	n/a	n/a	2	4	Blank	Win	True
52.764	1.45	Win2	1.0	n/a	Yes	3.285	n/a	5.0	GoodResponse	1	0.04	51.804	2	4	Feedback	Win	True
54.218	3.285	Win2	1.0	n/a	Yes	3.285	n/a	n/a	GoodResponse	1	0.0	n/a	2	4	ISIslide	Win	True
57.528	0.25	Win2	0.8332999999999999	0.0	No	2.772	0.028	n/a	NoResponse	0	n/a	n/a	2	5	Cue	MissedWin	True
57.779	4.0	Win2	0.8332999999999999	0.0	No	2.772	0.001	n/a	NoResponse	0	n/a	n/a	2	5	Fixation	MissedWin	True
61.774	0.35	Win2	0.8332999999999999	0.004	No	2.772	-0.004	4.0	NoResponse	0	0.417	61.191	2	5	Target	MissedWin	True
62.125	0.35	Win2	0.8332999999999999	n/a	No	2.772	n/a	n/a	NoResponse	0	n/a	n/a	2	5	Blank	MissedWin	True
62.191	0.3	Win2	0.8332999999999999	0.004	No	2.772	-0.004	4.0	NoResponse	0	0.417	n/a	2	5	ButtonPress	MissedWin	True
62.476	1.45	Win2	0.8332999999999999	n/a	No	2.772	n/a	5.0	NoResponse	0	0.035	61.511	2	5	Feedback	MissedWin	True
63.93	2.772	Win2	0.8332999999999999	n/a	No	2.772	n/a	n/a	NoResponse	0	0.0	n/a	2	5	ISIslide	MissedWin	True
66.722	0.25	Lose2	0.8571	0.0	Yes	2.728	0.022	n/a	GoodResponse	0	n/a	n/a	2	6	Cue	AvoidedLoss	True
66.973	3.95	Lose2	0.8571	0.0	Yes	2.728	0.001	n/a	GoodResponse	0	n/a	n/a	2	6	Fixation	AvoidedLoss	True
70.918	0.34	Lose2	0.8571	0.004	Yes	2.728	-0.004	4.0	GoodResponse	0	0.217	70.135	2	6	Target	AvoidedLoss	True
71.135	0.3	Lose2	0.8571	0.004	Yes	2.728	-0.004	4.0	GoodResponse	0	0.217	n/a	2	6	ButtonPress	AvoidedLoss	True
71.269	0.36	Lose2	0.8571	n/a	Yes	2.728	n/a	n/a	GoodResponse	0	n/a	n/a	2	6	Blank	AvoidedLoss	True
71.62	1.45	Lose2	0.8571	n/a	Yes	2.728	n/a	5.0	GoodResponse	0	0.013	70.633	2	6	Feedback	AvoidedLoss	True
73.074	2.728	Lose2	0.8571	n/a	Yes	2.728	n/a	n/a	GoodResponse	0	0.0	n/a	2	6	ISIslide	AvoidedLoss	True
75.816	0.25	Lose2	0.875	0.0	Yes	4.034	0.016	n/a	GoodResponse	0	n/a	n/a	2	7	Cue	AvoidedLoss	False
76.067	4.05	Lose2	0.875	0.0	Yes	4.034	0.001	4.0	GoodResponse	0	0.515	75.582	2	7	Fixation	AvoidedLoss	False
76.582	0.3	Lose2	0.875	0.0	Yes	4.034	0.001	4.0	GoodResponse	0	0.515	n/a	2	7	ButtonPress	AvoidedLoss	False
80.112	0.33	Lose2	0.875	0.004	Yes	4.034	-0.004	4.0	GoodResponse	0	0.208	79.32	2	7	Target	AvoidedLoss	False
80.32	0.3	Lose2	0.875	0.004	Yes	4.034	-0.004	4.0	GoodResponse	0	0.208	n/a	2	7	ButtonPress	AvoidedLoss	False
80.446	0.37	Lose2	0.875	n/a	Yes	4.034	n/a	n/a	GoodResponse	0	n/a	n/a	2	7	Blank	AvoidedLoss	False
80.814	1.45	Lose2	0.875	n/a	Yes	4.034	n/a	5.0	GoodResponse	0	0.038	79.852	2	7	Feedback	AvoidedLoss	False
82.269	4.034	Lose2	0.875	n/a	Yes	4.034	n/a	n/a	GoodResponse	0	0.0	n/a	2	7	ISIslide	AvoidedLoss	False
86.331	0.25	Lose2	0.8889	0.0	Yes	3.019	0.031	n/a	GoodResponse	0	n/a	n/a	2	8	Cue	AvoidedLoss	True
86.581	3.95	Lose2	0.8889	0.001	Yes	3.019	0.0	n/a	GoodResponse	0	n/a	n/a	2	8	Fixation	AvoidedLoss	True
90.527	0.32	Lose2	0.8889	0.004	Yes	3.019	-0.004	4.0	GoodResponse	0	0.225	89.752	2	8	Target	AvoidedLoss	True
90.752	0.3	Lose2	0.8889	0.004	Yes	3.019	-0.004	4.0	GoodResponse	0	0.225	n/a	2	8	ButtonPress	AvoidedLoss	True
90.861	0.38	Lose2	0.8889	n/a	Yes	3.019	n/a	n/a	GoodResponse	0	n/a	n/a	2	8	Blank	AvoidedLoss	True
91.229	1.45	Lose2	0.8889	n/a	Yes	3.019	n/a	5.0	GoodResponse	0	0.013	90.242	2	8	Feedback	AvoidedLoss	True
92.683	3.019	Lose2	0.8889	n/a	Yes	3.019	n/a	n/a	GoodResponse	0	0.0	n/a	2	8	ISIslide	AvoidedLoss	True
95.725	0.25	Lose2	0.9	0.001	Yes	3.125	0.025	n/a	GoodResponse	0	n/a	n/a	2	9	Cue	AvoidedLoss	True
95.976	3.95	Lose2	0.9	0.0	Yes	3.125	0.001	n/a	GoodResponse	0	n/a	n/a	2	9	Fixation	AvoidedLoss	True
99.921	0.31	Lose2	0.9	0.004	Yes	3.125	-0.004	4.0	GoodResponse	0	0.223	99.144	2	9	Target	AvoidedLoss	True
100.144	0.3	Lose2	0.9	0.004	Yes	3.125	-0.004	4.0	GoodResponse	0	0.223	n/a	2	9	ButtonPress	AvoidedLoss	True
100.239	0.39	Lose2	0.9	n/a	Yes	3.125	n/a	n/a	GoodResponse	0	n/a	n/a	2	9	Blank	AvoidedLoss	True
100.623	1.45	Lose2	0.9	n/a	Yes	3.125	n/a	5.0	GoodResponse	0	0.034	99.657	2	9	Feedback	AvoidedLoss	True
102.078	3.125	Lose2	0.9	n/a	Yes	3.125	n/a	n/a	GoodResponse	0	0.0	n/a	2	9	ISIslide	AvoidedLoss	True
105.221	0.25	Control	0.9091	0.0	Yes	3.279	0.021	n/a	GoodResponse	0	n/a	n/a	2	10	Cue	Neutral	True
105.471	4.0	Control	0.9091	0.0	Yes	3.279	0.0	n/a	GoodResponse	0	n/a	n/a	2	10	Fixation	Neutral	True
109.467	0.3	Control	0.9091	0.004	Yes	3.279	-0.004	4.0	GoodResponse	0	0.289	108.756	2	10	Target	Neutral	True
109.756	0.3	Control	0.9091	0.004	Yes	3.279	-0.004	4.0	GoodResponse	0	0.289	n/a	2	10	ButtonPress	Neutral	True
109.767	0.4	Control	0.9091	n/a	Yes	3.279	n/a	n/a	GoodResponse	0	n/a	n/a	2	10	Blank	Neutral	True
110.169	1.45	Control	0.9091	n/a	Yes	3.279	n/a	5.0	GoodResponse	0	0.049	109.218	2	10	Feedback	Neutral	True
111.623	3.279	Control	0.9091	n/a	Yes	3.279	n/a	n/a	GoodResponse	0	0.0	n/a	2	10	ISIslide	Neutral	True
114.916	0.25	Lose2	0.9167000000000001	0.0	Yes	2.734	0.016	n/a	GoodResponse	0	n/a	n/a	2	11	Cue	AvoidedLoss	True
115.167	4.05	Lose2	0.9167000000000001	0.0	Yes	2.734	0.001	n/a	GoodResponse	0	n/a	n/a	2	11	Fixation	AvoidedLoss	True
119.212	0.29	Lose2	0.9167000000000001	0.004	Yes	2.734	-0.004	4.0	GoodResponse	0	0.271	118.483	2	11	Target	AvoidedLoss	True
119.483	0.3	Lose2	0.9167000000000001	0.004	Yes	2.734	-0.004	4.0	GoodResponse	0	0.271	n/a	2	11	ButtonPress	AvoidedLoss	True
119.513	0.41	Lose2	0.9167000000000001	n/a	Yes	2.734	n/a	n/a	GoodResponse	0	n/a	n/a	2	11	Blank	AvoidedLoss	True
119.915	1.45	Lose2	0.9167000000000001	n/a	Yes	2.734	n/a	5.0	GoodResponse	0	0.011	118.926	2	11	Feedback	AvoidedLoss	True
121.369	2.734	Lose2	0.9167000000000001	n/a	Yes	2.734	n/a	n/a	GoodResponse	0	0.0	n/a	2	11	ISIslide	AvoidedLoss	True
124.127	0.25	Control	0.9231	0.0	Yes	2.973	0.027	n/a	GoodResponse	0	n/a	n/a	2	12	Cue	Neutral	True
124.378	3.9	Control	0.9231	0.0	Yes	2.973	0.001	n/a	GoodResponse	0	n/a	n/a	2	12	Fixation	Neutral	True
128.273	0.28	Control	0.9231	0.004	Yes	2.973	-0.004	4.0	GoodResponse	0	0.276	127.549	2	12	Target	Neutral	True
128.549	0.3	Control	0.9231	0.004	Yes	2.973	-0.004	4.0	GoodResponse	0	0.276	n/a	2	12	ButtonPress	Neutral	True
128.557	0.42	Control	0.9231	n/a	Yes	2.973	n/a	n/a	GoodResponse	0	n/a	n/a	2	12	Blank	Neutral	True
128.975	1.45	Control	0.9231	n/a	Yes	2.973	n/a	5.0	GoodResponse	0	0.023	127.998	2	12	Feedback	Neutral	True
130.429	2.973	Control	0.9231	n/a	Yes	2.973	n/a	n/a	GoodResponse	0	0.0	n/a	2	12	ISIslide	Neutral	True
133.422	0.25	Control	0.8571	0.0	No	2.778	0.022	n/a	NoResponse	0	n/a	n/a	2	13	Cue	Neutral	True
133.672	4.0	Control	0.8571	0.0	No	2.778	0.0	n/a	NoResponse	0	n/a	n/a	2	13	Fixation	Neutral	True
137.668	0.27	Control	0.8571	0.004	No	2.778	-0.004	4.0	NoResponse	0	0.303	136.971	2	13	Target	Neutral	True
137.952	0.43	Control	0.8571	n/a	No	2.778	n/a	n/a	NoResponse	0	n/a	n/a	2	13	Blank	Neutral	True
137.971	0.3	Control	0.8571	0.004	No	2.778	-0.004	4.0	NoResponse	0	0.303	n/a	2	13	ButtonPress	Neutral	True
138.37	1.45	Control	0.8571	n/a	No	2.778	n/a	5.0	NoResponse	0	0.043	137.413	2	13	Feedback	Neutral	True
139.824	2.778	Control	0.8571	n/a	No	2.778	n/a	n/a	NoResponse	0	0.0	n/a	2	13	ISIslide	Neutral	True
142.616	0.25	Win2	0.8667	0.0	Yes	2.684	0.016	n/a	GoodResponse	1	n/a	n/a	3	14	Cue	Win	True
142.867	4.1	Win2	0.8667	0.0	Yes	2.684	0.001	n/a	GoodResponse	1	n/a	n/a	3	14	Fixation	Win	True
146.962	0.26	Win2	0.8667	0.004	Yes	2.684	-0.004	4.0	GoodResponse	1	0.21	146.172	3	14	Target	Win	True
147.172	0.3	Win2	0.8667	0.004	Yes	2.684	-0.004	4.0	GoodResponse	1	0.21	n/a	3	14	ButtonPress	Win	True
147.23	0.44	Win2	0.8667	n/a	Yes	2.684	n/a	n/a	GoodResponse	1	n/a	n/a	3	14	Blank	Win	True
147.664	1.45	Win2	0.8667	n/a	Yes	2.684	n/a	5.0	GoodResponse	1	0.017	146.681	3	14	Feedback	Win	True
149.119	2.684	Win2	0.8667	n/a	Yes	2.684	n/a	n/a	GoodResponse	1	0.0	n/a	3	14	ISIslide	Win	True
151.827	0.25	Control	0.8125	0.0	No	2.973	0.027	n/a	NoResponse	0	n/a	n/a	3	15	Cue	Neutral	True
152.077	4.0	Control	0.8125	0.001	No	2.973	0.0	n/a	NoResponse	0	n/a	n/a	3	15	Fixation	Neutral	True
156.073	0.25	Control	0.8125	0.004	No	2.973	-0.004	4.0	NoResponse	0	0.262	155.335	3	15	Target	Neutral	True
156.324	0.45	Control	0.8125	n/a	No	2.973	n/a	n/a	NoResponse	0	n/a	n/a	3	15	Blank	Neutral	True
156.335	0.3	Control	0.8125	0.004	No	2.973	-0.004	4.0	NoResponse	0	0.262	n/a	3	15	ButtonPress	Neutral	True
156.775	1.45	Control	0.8125	n/a	No	2.973	n/a	5.0	NoResponse	0	0.028	155.803	3	15	Feedback	Neutral	True
158.229	2.973	Control	0.8125	n/a	No	2.973	n/a	n/a	NoResponse	0	0.0	n/a	3	15	ISIslide	Neutral	True
161.222	0.25	Win2	0.8234999999999999	0.0	Yes	2.878	0.022	n/a	GoodResponse	1	n/a	n/a	4	16	Cue	Win	True
161.472	4.0	Win2	0.8234999999999999	0.0	Yes	2.878	0.0	n/a	GoodResponse	1	n/a	n/a	4	16	Fixation	Win	True
165.468	0.24	Win2	0.8234999999999999	0.004	Yes	2.878	-0.004	4.0	GoodResponse	1	0.195	164.663	4	16	Target	Win	True
165.663	0.3	Win2	0.8234999999999999	0.004	Yes	2.878	-0.004	4.0	GoodResponse	1	0.195	n/a	4	16	ButtonPress	Win	True
165.718	0.46	Win2	0.8234999999999999	n/a	Yes	2.878	n/a	n/a	GoodResponse	1	n/a	n/a	4	16	Blank	Win	True
166.17	1.45	Win2	0.8234999999999999	n/a	Yes	2.878	n/a	5.0	GoodResponse	1	0.048	165.218	4	16	Feedback	Win	True
167.624	2.878	Win2	0.8234999999999999	n/a	Yes	2.878	n/a	n/a	GoodResponse	1	0.0	n/a	4	16	ISIslide	Win	True
170.516	0.25	Lose2	0.7778	0.0	No	2.734	0.016	n/a	NoResponse	-1	n/a	n/a	3	17	Cue	Loss	True
170.767	3.95	Lose2	0.7778	0.0	No	2.734	0.001	n/a	NoResponse	-1	n/a	n/a	3	17	Fixation	Loss	True
174.712	0.23	Lose2	0.7778	0.004	No	2.734	-0.004	4.0	NoResponse	-1	0.287	173.999	3	17	Target	Loss	True
174.946	0.47	Lose2	0.7778	n/a	No	2.734	n/a	n/a	NoResponse	-1	n/a	n/a	3	17	Blank	Loss	True
174.999	0.3	Lose2	0.7778	0.004	No	2.734	-0.004	4.0	NoResponse	-1	0.287	n/a	3	17	ButtonPress	Loss	True
175.414	1.45	Lose2	0.7778	n/a	No	2.734	n/a	5.0	NoResponse	-1	0.023	174.437	3	17	Feedback	Loss	True
176.868	2.734	Lose2	0.7778	n/a	No	2.734	n/a	n/a	NoResponse	-1	0.0	n/a	3	17	ISIslide	Loss	True
179.627	0.25	Lose2	0.7895	0.0	Yes	2.723	0.027	n/a	GoodResponse	0	n/a	n/a	3	18	Cue	AvoidedLoss	True
179.877	4.05	Lose2	0.7895	0.0	Yes	2.723	0.0	n/a	GoodResponse	0	n/a	n/a	3	18	Fixation	AvoidedLoss	True
183.923	0.22	Lose2	0.7895	0.004	Yes	2.723	-0.004	4.0	GoodResponse	0	0.199	183.122	3	18	Target	AvoidedLoss	True
184.122	0.3	Lose2	0.7895	0.004	Yes	2.723	-0.004	4.0	GoodResponse	0	0.199	n/a	3	18	ButtonPress	AvoidedLoss	True
184.157	0.48	Lose2	0.7895	n/a	Yes	2.723	n/a	n/a	GoodResponse	0	n/a	n/a	3	18	Blank	AvoidedLoss	True
184.625	1.45	Lose2	0.7895	n/a	Yes	2.723	n/a	5.0	GoodResponse	0	0.031	183.656	3	18	Feedback	AvoidedLoss	True
186.079	2.723	Lose2	0.7895	n/a	Yes	2.723	n/a	n/a	GoodResponse	0	0.0	n/a	3	18	ISIslide	AvoidedLoss	True
188.821	0.25	Control	0.8	0.0	Yes	2.929	0.021	n/a	GoodResponse	0	n/a	n/a	3	19	Cue	Neutral	True
189.072	3.95	Control	0.8	0.0	Yes	2.929	0.001	n/a	GoodResponse	0	n/a	n/a	3	19	Fixation	Neutral	True
193.017	0.21	Control	0.8	0.004	Yes	2.929	-0.004	4.0	GoodResponse	0	0.2	192.217	3	19	Target	Neutral	True
193.217	0.3	Control	0.8	0.004	Yes	2.929	-0.004	4.0	GoodResponse	0	0.2	n/a	3	19	ButtonPress	Neutral	True
193.234	0.49	Control	0.8	n/a	Yes	2.929	n/a	n/a	GoodResponse	0	n/a	n/a	3	19	Blank	Neutral	True
193.719	1.45	Control	0.8	n/a	Yes	2.929	n/a	5.0	GoodResponse	0	0.01	192.729	3	19	Feedback	Neutral	True
195.173	2.929	Control	0.8	n/a	Yes	2.929	n/a	n/a	GoodResponse	0	0.0	n/a	3	19	ISIslide	Neutral	True
198.115	0.25	Control	0.7619	0.0	No	2.635	0.015	n/a	NoResponse	0	n/a	n/a	3	20	Cue	Neutral	True
198.366	4.05	Control	0.7619	0.0	No	2.635	0.001	n/a	NoResponse	0	n/a	n/a	3	20	Fixation	Neutral	True
202.411	0.2	Control	0.7619	0.004	No	2.635	-0.004	4.0	NoResponse	0	0.304	201.715	3	20	Target	Neutral	True
202.612	0.5	Control	0.7619	n/a	No	2.635	n/a	n/a	NoResponse	0	n/a	n/a	3	20	Blank	Neutral	True
202.715	0.3	Control	0.7619	0.004	No	2.635	-0.004	4.0	NoResponse	0	0.304	n/a	3	20	ButtonPress	Neutral	True
203.114	1.45	Control	0.7619	n/a	No	2.635	n/a	5.0	NoResponse	0	0.03	202.144	3	20	Feedback	Neutral	True
204.568	2.635	Control	0.7619	n/a	No	2.635	n/a	n/a	NoResponse	0	0.0	n/a	3	20	ISIslide	Neutral	True
207.226	0.25	Control	0.7273000000000001	0.0	No	2.774	0.026	n/a	NoResponse	0	n/a	n/a	3	21	Cue	Neutral	True
207.477	4.1	Control	0.7273000000000001	0.0	No	2.774	0.001	4.0	NoResponse	0	3.944	210.421	3	21	Fixation	Neutral	True
211.421	0.3	Control	0.7273000000000001	0.0	No	2.774	0.001	4.0	NoResponse	0	3.944	n/a	3	21	ButtonPress	Neutral	True
211.572	0.19	Control	0.7273000000000001	0.004	No	2.774	-0.004	n/a	NoResponse	0	n/a	n/a	3	21	Target	Neutral	True
211.773	0.51	Control	0.7273000000000001	n/a	No	2.774	n/a	n/a	NoResponse	0	n/a	n/a	3	21	Blank	Neutral	True
212.274	1.45	Control	0.7273000000000001	n/a	No	2.774	n/a	5.0	NoResponse	0	0.041	211.315	3	21	Feedback	Neutral	True
213.729	2.774	Control	0.7273000000000001	n/a	No	2.774	n/a	n/a	NoResponse	0	0.0	n/a	3	21	ISIslide	Neutral	True
216.52	0.25	Control	0.6957	0.0	No	2.78	0.02	n/a	NoResponse	0	n/a	n/a	3	22	Cue	Neutral	True
216.771	4.0	Control	0.6957	0.0	No	2.78	0.001	n/a	NoResponse	0	n/a	n/a	3	22	Fixation	Neutral	True
220.766	0.18	Control	0.6957	0.004	No	2.78	-0.004	4.0	NoResponse	0	0.38	220.146	3	22	Target	Neutral	True
220.95	0.52	Control	0.6957	n/a	No	2.78	n/a	n/a	NoResponse	0	n/a	n/a	3	22	Blank	Neutral	True
221.146	0.3	Control	0.6957	0.004	No	2.78	-0.004	4.0	NoResponse	0	0.38	n/a	3	22	ButtonPress	Neutral	True
221.469	1.45	Control	0.6957	n/a	No	2.78	n/a	5.0	NoResponse	0	0.017	220.486	3	22	Feedback	Neutral	True
222.923	2.78	Control	0.6957	n/a	No	2.78	n/a	n/a	NoResponse	0	0.0	n/a	3	22	ISIslide	Neutral	True
225.715	0.25	Control	0.6667000000000001	0.0	No	2.785	0.015	n/a	NoResponse	0	n/a	n/a	3	23	Cue	Neutral	True
225.965	3.9	Control	0.6667000000000001	0.0	No	2.785	0.0	n/a	NoResponse	0	n/a	n/a	3	23	Fixation	Neutral	True
229.877	0.17	Control	0.6667000000000001	0.0	No	2.785	0.012	4.0	NoResponse	0	0.284	229.161	3	23	Target	Neutral	True
230.044	0.53	Control	0.6667000000000001	n/a	No	2.785	n/a	n/a	NoResponse	0	n/a	n/a	3	23	Blank	Neutral	True
230.161	0.3	Control	0.6667000000000001	0.0	No	2.785	0.012	4.0	NoResponse	0	0.284	n/a	3	23	ButtonPress	Neutral	True
230.562	1.45	Control	0.6667000000000001	n/a	No	2.785	n/a	5.0	NoResponse	0	0.045	229.607	3	23	Feedback	Neutral	True
232.017	2.785	Control	0.6667000000000001	n/a	No	2.785	n/a	n/a	NoResponse	0	0.0	n/a	3	23	ISIslide	Neutral	True
234.825	0.25	Win2	0.64	0.0	No	3.125	0.025	n/a	NoResponse	0	n/a	n/a	3	24	Cue	MissedWin	True
235.076	3.95	Win2	0.64	0.0	No	3.125	0.001	n/a	NoResponse	0	n/a	n/a	3	24	Fixation	MissedWin	True
239.021	0.16	Win2	0.64	0.004	No	3.125	-0.004	4.0	NoResponse	0	0.2	238.221	3	24	Target	MissedWin	True
239.188	0.54	Win2	0.64	n/a	No	3.125	n/a	n/a	NoResponse	0	n/a	n/a	3	24	Blank	MissedWin	True
239.221	0.3	Win2	0.64	0.004	No	3.125	-0.004	4.0	NoResponse	0	0.2	n/a	3	24	ButtonPress	MissedWin	True
239.723	1.45	Win2	0.64	n/a	No	3.125	n/a	5.0	NoResponse	0	0.007	238.73	3	24	Feedback	MissedWin	True
241.178	3.125	Win2	0.64	n/a	No	3.125	n/a	n/a	NoResponse	0	0.0	n/a	3	24	ISIslide	MissedWin	True
244.32	0.25	Win2	0.6154	0.0	No	3.08	0.02	n/a	NoResponse	0	n/a	n/a	3	25	Cue	MissedWin	True
244.571	4.0	Win2	0.6154	0.0	No	3.08	0.001	n/a	NoResponse	0	n/a	n/a	3	25	Fixation	MissedWin	True
248.566	0.17	Win2	0.6154	0.004	No	3.08	-0.004	4.0	NoResponse	0	0.209	247.775	3	25	Target	MissedWin	True
248.75	0.53	Win2	0.6154	n/a	No	3.08	n/a	n/a	NoResponse	0	n/a	n/a	3	25	Blank	MissedWin	True
248.775	0.3	Win2	0.6154	0.004	No	3.08	-0.004	4.0	NoResponse	0	0.209	n/a	3	25	ButtonPress	MissedWin	True
249.268	1.45	Win2	0.6154	n/a	No	3.08	n/a	5.0	NoResponse	0	0.022	248.29	3	25	Feedback	MissedWin	True
250.723	3.08	Win2	0.6154	n/a	No	3.08	n/a	n/a	NoResponse	0	0.0	n/a	3	25	ISIslide	MissedWin	True
253.815	0.25	Win2	0.6296	0.0	Yes	2.935	0.015	n/a	GoodResponse	1	n/a	n/a	4	26	Cue	Win	True
254.066	3.95	Win2	0.6296	0.0	Yes	2.935	0.001	n/a	GoodResponse	1	n/a	n/a	4	26	Fixation	Win	True
258.011	0.18	Win2	0.6296	0.004	Yes	2.935	-0.004	4.0	GoodResponse	1	0.145	257.156	4	26	Target	Win	True
258.156	0.3	Win2	0.6296	0.004	Yes	2.935	-0.004	4.0	GoodResponse	1	0.145	n/a	4	26	ButtonPress	Win	True
258.195	0.52	Win2	0.6296	n/a	Yes	2.935	n/a	n/a	GoodResponse	1	n/a	n/a	4	26	Blank	Win	True
258.713	1.45	Win2	0.6296	n/a	Yes	2.935	n/a	5.0	GoodResponse	1	0.041	257.754	4	26	Feedback	Win	True
260.168	2.935	Win2	0.6296	n/a	Yes	2.935	n/a	n/a	GoodResponse	1	0.0	n/a	4	26	ISIslide	Win	True
263.127	0.25	Lose2	0.6071	0.0	No	2.823	0.027	n/a	LatePress	-1	n/a	n/a	3	27	Cue	Loss	True
263.377	4.05	Lose2	0.6071	0.0	No	2.823	0.0	n/a	LatePress	-1	n/a	n/a	3	27	Fixation	Loss	True
267.423	0.19	Lose2	0.6071	0.004	No	2.823	-0.004	4.0	LatePress	-1	0.193	266.616	3	27	Target	Loss	True
267.616	0.3	Lose2	0.6071	0.004	No	2.823	-0.004	4.0	LatePress	-1	0.193	n/a	3	27	ButtonPress	Loss	True
267.623	0.51	Lose2	0.6071	n/a	No	2.823	n/a	n/a	LatePress	-1	n/a	n/a	3	27	Blank	Loss	True
268.125	1.45	Lose2	0.6071	n/a	No	2.823	n/a	5.0	LatePress	-1	0.043	267.168	3	27	Feedback	Loss	True
269.579	2.823	Lose2	0.6071	n/a	No	2.823	n/a	n/a	LatePress	-1	0.0	n/a	3	27	ISIslide	Loss	True
272.421	0.25	Control	0.5861999999999999	0.0	No	2.829	0.021	n/a	NoResponse	0	n/a	n/a	3	28	Cue	Neutral	True
272.672	4.05	Control	0.5861999999999999	0.0	No	2.829	0.001	n/a	NoResponse	0	n/a	n/a	3	28	Fixation	Neutral	True
276.717	0.2	Control	0.5861999999999999	0.004	No	2.829	-0.004	4.0	NoResponse	0	0.306	276.023	3	28	Target	Neutral	True
276.918	0.5	Control	0.5861999999999999	n/a	No	2.829	n/a	n/a	NoResponse	0	n/a	n/a	3	28	Blank	Neutral	True
277.023	0.3	Control	0.5861999999999999	0.004	No	2.829	-0.004	4.0	NoResponse	0	0.306	n/a	3	28	ButtonPress	Neutral	True
277.419	1.45	Control	0.5861999999999999	n/a	No	2.829	n/a	5.0	NoResponse	0	0.018	276.437	3	28	Feedback	Neutral	True
278.874	2.829	Control	0.5861999999999999	n/a	No	2.829	n/a	n/a	NoResponse	0	0.0	n/a	3	28	ISIslide	Neutral	True
281.716	0.25	Lose2	0.5667	0.0	No	2.834	0.016	n/a	NoResponse	-1	n/a	n/a	2	29	Cue	Loss	True
281.966	3.95	Lose2	0.5667	0.0	No	2.834	0.0	n/a	NoResponse	-1	n/a	n/a	2	29	Fixation	Loss	True
285.928	0.21	Lose2	0.5667	0.0	No	2.834	0.012	4.0	NoResponse	-1	0.209	285.137	2	29	Target	Loss	True
286.129	0.49	Lose2	0.5667	n/a	No	2.834	n/a	n/a	NoResponse	-1	n/a	n/a	2	29	Blank	Loss	True
286.137	0.3	Lose2	0.5667	0.0	No	2.834	0.012	4.0	NoResponse	-1	0.209	n/a	2	29	ButtonPress	Loss	True
286.614	1.45	Lose2	0.5667	n/a	No	2.834	n/a	5.0	NoResponse	-1	0.041	285.655	2	29	Feedback	Loss	True
288.068	2.834	Lose2	0.5667	n/a	No	2.834	n/a	n/a	NoResponse	-1	0.0	n/a	2	29	ISIslide	Loss	True
290.926	0.25	Win2	0.5484	0.001	No	2.774	0.026	n/a	LatePress	0	n/a	n/a	2	30	Cue	MissedWin	True
291.177	3.9	Win2	0.5484	0.0	No	2.774	0.001	n/a	LatePress	0	n/a	n/a	2	30	Fixation	MissedWin	True
295.072	0.22	Win2	0.5484	0.004	No	2.774	-0.004	4.0	LatePress	0	0.221	294.293	2	30	Target	MissedWin	True
295.293	0.3	Win2	0.5484	0.004	No	2.774	-0.004	4.0	LatePress	0	0.221	n/a	2	30	ButtonPress	MissedWin	True
295.306	0.48	Win2	0.5484	n/a	No	2.774	n/a	n/a	LatePress	0	n/a	n/a	2	30	Blank	MissedWin	True
295.774	1.45	Win2	0.5484	n/a	No	2.774	n/a	5.0	LatePress	0	0.007	294.781	2	30	Feedback	MissedWin	True
297.229	2.774	Win2	0.5484	n/a	No	2.774	n/a	n/a	LatePress	0	0.0	n/a	2	30	ISIslide	MissedWin	True
300.02	0.25	Lose2	0.5625	0.0	Yes	2.83	0.02	n/a	GoodResponse	0	n/a	n/a	2	31	Cue	AvoidedLoss	True
300.271	4.05	Lose2	0.5625	0.0	Yes	2.83	0.001	n/a	GoodResponse	0	n/a	n/a	2	31	Fixation	AvoidedLoss	True
304.317	0.23	Lose2	0.5625	0.003	Yes	2.83	-0.003	4.0	GoodResponse	0	0.188	303.505	2	31	Target	AvoidedLoss	True
304.505	0.3	Lose2	0.5625	0.003	Yes	2.83	-0.003	4.0	GoodResponse	0	0.188	n/a	2	31	ButtonPress	AvoidedLoss	True
304.551	0.47	Lose2	0.5625	n/a	Yes	2.83	n/a	n/a	GoodResponse	0	n/a	n/a	2	31	Blank	AvoidedLoss	True
305.019	1.45	Lose2	0.5625	n/a	Yes	2.83	n/a	5.0	GoodResponse	0	0.027	304.046	2	31	Feedback	AvoidedLoss	True
306.473	2.83	Lose2	0.5625	n/a	Yes	2.83	n/a	n/a	GoodResponse	0	0.0	n/a	2	31	ISIslide	AvoidedLoss	True
309.332	0.25	Lose2	0.5758	0.0	Yes	2.618	0.032	n/a	GoodResponse	0	n/a	n/a	2	32	Cue	AvoidedLoss	True
309.582	4.15	Lose2	0.5758	0.0	Yes	2.618	0.0	n/a	GoodResponse	0	n/a	n/a	2	32	Fixation	AvoidedLoss	True
313.728	0.24	Lose2	0.5758	0.004	Yes	2.618	-0.004	4.0	GoodResponse	0	0.181	312.909	2	32	Target	AvoidedLoss	True
313.909	0.3	Lose2	0.5758	0.004	Yes	2.618	-0.004	4.0	GoodResponse	0	0.181	n/a	2	32	ButtonPress	AvoidedLoss	True
313.979	0.46	Lose2	0.5758	n/a	Yes	2.618	n/a	n/a	GoodResponse	0	n/a	n/a	2	32	Blank	AvoidedLoss	True
314.43	1.45	Lose2	0.5758	n/a	Yes	2.618	n/a	5.0	GoodResponse	0	0.031	313.461	2	32	Feedback	AvoidedLoss	True
315.884	2.618	Lose2	0.5758	n/a	Yes	2.618	n/a	n/a	GoodResponse	0	0.0	n/a	2	32	ISIslide	AvoidedLoss	True
318.526	0.25	Win2	0.5882000000000001	0.0	Yes	2.674	0.026	n/a	GoodResponse	1	n/a	n/a	3	33	Cue	Win	True
318.776	4.0	Win2	0.5882000000000001	0.001	Yes	2.674	0.0	n/a	GoodResponse	1	n/a	n/a	3	33	Fixation	Win	True
322.772	0.25	Win2	0.5882000000000001	0.004	Yes	2.674	-0.004	4.0	GoodResponse	1	0.194	321.966	3	33	Target	Win	True
322.966	0.3	Win2	0.5882000000000001	0.004	Yes	2.674	-0.004	4.0	GoodResponse	1	0.194	n/a	3	33	ButtonPress	Win	True
323.022	0.45	Win2	0.5882000000000001	n/a	Yes	2.674	n/a	n/a	GoodResponse	1	n/a	n/a	3	33	Blank	Win	True
323.474	1.45	Win2	0.5882000000000001	n/a	Yes	2.674	n/a	5.0	GoodResponse	1	0.011	322.485	3	33	Feedback	Win	True
324.928	2.674	Win2	0.5882000000000001	n/a	Yes	2.674	n/a	n/a	GoodResponse	1	0.0	n/a	3	33	ISIslide	Win	True
327.62	0.25	Lose2	0.6	0.0	Yes	2.63	0.02	n/a	GoodResponse	0	n/a	n/a	3	34	Cue	AvoidedLoss	True
327.87	4.05	Lose2	0.6	0.0	Yes	2.63	0.0	n/a	GoodResponse	0	n/a	n/a	3	34	Fixation	AvoidedLoss	True
331.916	0.26	Lose2	0.6	0.004	Yes	2.63	-0.004	4.0	GoodResponse	0	0.212	331.128	3	34	Target	AvoidedLoss	True
332.128	0.3	Lose2	0.6	0.004	Yes	2.63	-0.004	4.0	GoodResponse	0	0.212	n/a	3	34	ButtonPress	AvoidedLoss	True
332.183	0.44	Lose2	0.6	n/a	Yes	2.63	n/a	n/a	GoodResponse	0	n/a	n/a	3	34	Blank	AvoidedLoss	True
332.618	1.45	Lose2	0.6	n/a	Yes	2.63	n/a	5.0	GoodResponse	0	0.037	331.655	3	34	Feedback	AvoidedLoss	True
334.072	2.63	Lose2	0.6	n/a	Yes	2.63	n/a	n/a	GoodResponse	0	0.0	n/a	3	34	ISIslide	AvoidedLoss	True
336.73	0.25	Lose2	0.6111	0.0	Yes	2.67	0.03	n/a	GoodResponse	0	n/a	n/a	3	35	Cue	AvoidedLoss	True
336.981	4.0	Lose2	0.6111	0.0	Yes	2.67	0.001	n/a	GoodResponse	0	n/a	n/a	3	35	Fixation	AvoidedLoss	True
340.976	0.27	Lose2	0.6111	0.004	Yes	2.67	-0.004	4.0	GoodResponse	0	0.192	340.168	3	35	Target	AvoidedLoss	True
341.168	0.3	Lose2	0.6111	0.004	Yes	2.67	-0.004	4.0	GoodResponse	0	0.192	n/a	3	35	ButtonPress	AvoidedLoss	True
341.26	0.43	Lose2	0.6111	n/a	Yes	2.67	n/a	n/a	GoodResponse	0	n/a	n/a	3	35	Blank	AvoidedLoss	True
341.678	1.45	Lose2	0.6111	n/a	Yes	2.67	n/a	5.0	GoodResponse	0	0.002	340.68	3	35	Feedback	AvoidedLoss	True
343.133	2.67	Lose2	0.6111	n/a	Yes	2.67	n/a	n/a	GoodResponse	0	0.0	n/a	3	35	ISIslide	AvoidedLoss	True
345.824	0.25	Control	0.6215999999999999	0.0	Yes	2.676	0.024	n/a	GoodResponse	0	n/a	n/a	3	36	Cue	Neutral	True
346.075	4.0	Control	0.6215999999999999	0.0	Yes	2.676	0.001	n/a	GoodResponse	0	n/a	n/a	3	36	Fixation	Neutral	True
350.07	0.28	Control	0.6215999999999999	0.004	Yes	2.676	-0.004	4.0	GoodResponse	0	0.278	349.348	3	36	Target	Neutral	True
350.348	0.3	Control	0.6215999999999999	0.004	Yes	2.676	-0.004	4.0	GoodResponse	0	0.278	n/a	3	36	ButtonPress	Neutral	True
350.354	0.42	Control	0.6215999999999999	n/a	Yes	2.676	n/a	n/a	GoodResponse	0	n/a	n/a	3	36	Blank	Neutral	True
350.772	1.45	Control	0.6215999999999999	n/a	Yes	2.676	n/a	5.0	GoodResponse	0	0.03	349.802	3	36	Feedback	Neutral	True
352.227	2.676	Control	0.6215999999999999	n/a	Yes	2.676	n/a	n/a	GoodResponse	0	0.0	n/a	3	36	ISIslide	Neutral	True
354.918	0.25	Win2	0.6315999999999999	0.0	Yes	2.882	0.018	n/a	GoodResponse	1	n/a	n/a	4	37	Cue	Win	True
355.169	4.0	Win2	0.6315999999999999	0.0	Yes	2.882	0.001	n/a	GoodResponse	1	n/a	n/a	4	37	Fixation	Win	True
359.164	0.29	Win2	0.6315999999999999	0.004	Yes	2.882	-0.004	4.0	GoodResponse	1	0.207	358.371	4	37	Target	Win	True
359.371	0.3	Win2	0.6315999999999999	0.004	Yes	2.882	-0.004	4.0	GoodResponse	1	0.207	n/a	4	37	ButtonPress	Win	True
359.465	0.41	Win2	0.6315999999999999	n/a	Yes	2.882	n/a	n/a	GoodResponse	1	n/a	n/a	4	37	Blank	Win	True
359.866	1.45	Win2	0.6315999999999999	n/a	Yes	2.882	n/a	5.0	GoodResponse	1	0.009	358.875	4	37	Feedback	Win	True
361.32	2.882	Win2	0.6315999999999999	n/a	Yes	2.882	n/a	n/a	GoodResponse	1	0.0	n/a	4	37	ISIslide	Win	True
364.229	0.25	Lose2	0.6409999999999999	0.0	Yes	2.821	0.029	n/a	GoodResponse	0	n/a	n/a	4	38	Cue	AvoidedLoss	True
364.48	3.95	Lose2	0.6409999999999999	0.0	Yes	2.821	0.001	n/a	GoodResponse	0	n/a	n/a	4	38	Fixation	AvoidedLoss	True
368.425	0.3	Lose2	0.6409999999999999	0.004	Yes	2.821	-0.004	4.0	GoodResponse	0	0.264	367.689	4	38	Target	AvoidedLoss	True
368.689	0.3	Lose2	0.6409999999999999	0.004	Yes	2.821	-0.004	4.0	GoodResponse	0	0.264	n/a	4	38	ButtonPress	AvoidedLoss	True
368.726	0.4	Lose2	0.6409999999999999	n/a	Yes	2.821	n/a	n/a	GoodResponse	0	n/a	n/a	4	38	Blank	AvoidedLoss	True
369.127	1.45	Lose2	0.6409999999999999	n/a	Yes	2.821	n/a	5.0	GoodResponse	0	0.016	368.143	4	38	Feedback	AvoidedLoss	True
370.582	2.821	Lose2	0.6409999999999999	n/a	Yes	2.821	n/a	n/a	GoodResponse	0	0.0	n/a	4	38	ISIslide	AvoidedLoss	True
373.423	0.25	Win2	0.65	0.0	Yes	2.977	0.023	n/a	GoodResponse	1	n/a	n/a	5	39	Cue	Win	True
373.674	4.1	Win2	0.65	0.0	Yes	2.977	0.001	n/a	GoodResponse	1	n/a	n/a	5	39	Fixation	Win	True
377.77	0.31	Win2	0.65	0.003	Yes	2.977	-0.003	4.0	GoodResponse	1	0.292	377.062	5	39	Target	Win	True
378.062	0.3	Win2	0.65	0.003	Yes	2.977	-0.003	4.0	GoodResponse	1	0.292	n/a	5	39	ButtonPress	Win	True
378.087	0.39	Win2	0.65	n/a	Yes	2.977	n/a	n/a	GoodResponse	1	n/a	n/a	5	39	Blank	Win	True
378.472	1.45	Win2	0.65	n/a	Yes	2.977	n/a	5.0	GoodResponse	1	0.036	377.508	5	39	Feedback	Win	True
379.926	2.977	Win2	0.65	n/a	Yes	2.977	n/a	n/a	GoodResponse	1	0.0	n/a	5	39	ISIslide	Win	True
382.918	0.25	Win2	0.6585	0.001	Yes	2.732	0.018	n/a	GoodResponse	1	n/a	n/a	6	40	Cue	Win	True
383.169	3.95	Win2	0.6585	0.0	Yes	2.732	0.001	n/a	GoodResponse	1	n/a	n/a	6	40	Fixation	Win	True
387.114	0.32	Win2	0.6585	0.004	Yes	2.732	-0.004	4.0	GoodResponse	1	0.204	386.318	6	40	Target	Win	True
387.318	0.3	Win2	0.6585	0.004	Yes	2.732	-0.004	4.0	GoodResponse	1	0.204	n/a	6	40	ButtonPress	Win	True
387.449	0.38	Win2	0.6585	n/a	Yes	2.732	n/a	n/a	GoodResponse	1	n/a	n/a	6	40	Blank	Win	True
387.816	1.45	Win2	0.6585	n/a	Yes	2.732	n/a	5.0	GoodResponse	1	0.009	386.825	6	40	Feedback	Win	True
389.271	2.732	Win2	0.6585	n/a	Yes	2.732	n/a	n/a	GoodResponse	1	0.0	n/a	6	40	ISIslide	Win	True
392.029	0.25	Win2	0.6667000000000001	0.0	Yes	2.771	0.029	n/a	GoodResponse	1	n/a	n/a	7	41	Cue	Win	True
392.28	3.9	Win2	0.6667000000000001	0.0	Yes	2.771	0.001	n/a	GoodResponse	1	n/a	n/a	7	41	Fixation	Win	True
396.175	0.32	Win2	0.6667000000000001	0.004	Yes	2.771	-0.004	4.0	GoodResponse	1	0.196	395.371	7	41	Target	Win	True
396.371	0.3	Win2	0.6667000000000001	0.004	Yes	2.771	-0.004	4.0	GoodResponse	1	0.196	n/a	7	41	ButtonPress	Win	True
396.509	0.38	Win2	0.6667000000000001	n/a	Yes	2.771	n/a	n/a	GoodResponse	1	n/a	n/a	7	41	Blank	Win	True
396.877	1.45	Win2	0.6667000000000001	n/a	Yes	2.771	n/a	5.0	GoodResponse	1	0.022	395.899	7	41	Feedback	Win	True
398.331	2.771	Win2	0.6667000000000001	n/a	Yes	2.771	n/a	n/a	GoodResponse	1	0.0	n/a	7	41	ISIslide	Win	True
401.123	0.25	Control	0.6512	0.0	No	2.927	0.023	n/a	NoResponse	0	n/a	n/a	7	42	Cue	Neutral	False
401.374	3.85	Control	0.6512	0.0	No	2.927	0.001	n/a	NoResponse	0	n/a	n/a	7	42	Fixation	Neutral	False
405.219	0.31	Control	0.6512	0.004	No	2.927	-0.004	n/a	NoResponse	0	n/a	n/a	7	42	Target	Neutral	False
405.536	0.39	Control	0.6512	n/a	No	2.927	n/a	n/a	NoResponse	0	n/a	n/a	7	42	Blank	Neutral	False
405.921	1.45	Control	0.6512	n/a	No	2.927	n/a	5.0	NoResponse	0	0.002	404.923	7	42	Feedback	Neutral	False
407.375	2.927	Control	0.6512	n/a	No	2.927	n/a	n/a	NoResponse	0	0.0	n/a	7	42	ISIslide	Neutral	False
410.317	0.25	Win2	0.6591	0.0	Yes	3.183	0.017	n/a	GoodResponse	1	n/a	n/a	8	43	Cue	Win	True
410.568	4.0	Win2	0.6591	0.0	Yes	3.183	0.001	n/a	GoodResponse	1	n/a	n/a	8	43	Fixation	Win	True
414.563	0.32	Win2	0.6591	0.004	Yes	3.183	-0.004	4.0	GoodResponse	1	0.248	413.811	8	43	Target	Win	True
414.811	0.3	Win2	0.6591	0.004	Yes	3.183	-0.004	4.0	GoodResponse	1	0.248	n/a	8	43	ButtonPress	Win	True
414.898	0.38	Win2	0.6591	n/a	Yes	3.183	n/a	n/a	GoodResponse	1	n/a	n/a	8	43	Blank	Win	True
415.265	1.45	Win2	0.6591	n/a	Yes	3.183	n/a	5.0	GoodResponse	1	0.024	414.289	8	43	Feedback	Win	True
416.72	3.183	Win2	0.6591	n/a	Yes	3.183	n/a	n/a	GoodResponse	1	0.0	n/a	8	43	ISIslide	Win	True
419.929	0.25	Win2	0.6667000000000001	0.0	Yes	2.971	0.029	n/a	GoodResponse	1	n/a	n/a	9	44	Cue	Win	True
420.18	4.0	Win2	0.6667000000000001	0.0	Yes	2.971	0.001	n/a	GoodResponse	1	n/a	n/a	9	44	Fixation	Win	True
424.175	0.32	Win2	0.6667000000000001	0.004	Yes	2.971	-0.004	4.0	GoodResponse	1	0.2	423.375	9	44	Target	Win	True
424.375	0.3	Win2	0.6667000000000001	0.004	Yes	2.971	-0.004	4.0	GoodResponse	1	0.2	n/a	9	44	ButtonPress	Win	True
424.51	0.38	Win2	0.6667000000000001	n/a	Yes	2.971	n/a	n/a	GoodResponse	1	n/a	n/a	9	44	Blank	Win	True
424.877	1.45	Win2	0.6667000000000001	n/a	Yes	2.971	n/a	5.0	GoodResponse	1	0.022	423.899	9	44	Feedback	Win	True
426.332	2.971	Win2	0.6667000000000001	n/a	Yes	2.971	n/a	n/a	GoodResponse	1	0.0	n/a	9	44	ISIslide	Win	True
429.324	0.25	Control	0.6739	0.0	Yes	2.876	0.024	n/a	GoodResponse	0	n/a	n/a	9	45	Cue	Neutral	True
429.575	4.1	Control	0.6739	0.0	Yes	2.876	0.001	n/a	GoodResponse	0	n/a	n/a	9	45	Fixation	Neutral	True
433.67	0.31	Control	0.6739	0.004	Yes	2.876	-0.004	4.0	GoodResponse	0	0.229	432.899	9	45	Target	Neutral	True
433.899	0.3	Control	0.6739	0.004	Yes	2.876	-0.004	4.0	GoodResponse	0	0.229	n/a	9	45	ButtonPress	Neutral	True
433.988	0.39	Control	0.6739	n/a	Yes	2.876	n/a	n/a	GoodResponse	0	n/a	n/a	9	45	Blank	Neutral	True
434.372	1.45	Control	0.6739	n/a	Yes	2.876	n/a	5.0	GoodResponse	0	0.038	433.41	9	45	Feedback	Neutral	True
435.827	2.876	Control	0.6739	n/a	Yes	2.876	n/a	n/a	GoodResponse	0	0.0	n/a	9	45	ISIslide	Neutral	True
438.719	0.25	Lose2	0.6809000000000001	0.0	Yes	3.381	0.019	n/a	GoodResponse	0	n/a	n/a	9	46	Cue	AvoidedLoss	True
438.97	4.0	Lose2	0.6809000000000001	0.0	Yes	3.381	0.001	n/a	GoodResponse	0	n/a	n/a	9	46	Fixation	AvoidedLoss	True
442.965	0.3	Lose2	0.6809000000000001	0.004	Yes	3.381	-0.004	4.0	GoodResponse	0	0.202	442.167	9	46	Target	AvoidedLoss	True
443.167	0.3	Lose2	0.6809000000000001	0.004	Yes	3.381	-0.004	4.0	GoodResponse	0	0.202	n/a	9	46	ButtonPress	AvoidedLoss	True
443.266	0.4	Lose2	0.6809000000000001	n/a	Yes	3.381	n/a	n/a	GoodResponse	0	n/a	n/a	9	46	Blank	AvoidedLoss	True
443.667	1.45	Lose2	0.6809000000000001	n/a	Yes	3.381	n/a	5.0	GoodResponse	0	0.012	442.679	9	46	Feedback	AvoidedLoss	True
445.121	3.381	Lose2	0.6809000000000001	n/a	Yes	3.381	n/a	n/a	GoodResponse	0	0.0	n/a	9	46	ISIslide	AvoidedLoss	True
448.532	0.25	Lose2	0.6875	0.0	Yes	2.668	0.032	n/a	GoodResponse	0	n/a	n/a	9	47	Cue	AvoidedLoss	True
448.782	4.0	Lose2	0.6875	0.0	Yes	2.668	0.0	n/a	GoodResponse	0	n/a	n/a	9	47	Fixation	AvoidedLoss	True
452.778	0.29	Lose2	0.6875	0.004	Yes	2.668	-0.004	4.0	GoodResponse	0	0.247	452.025	9	47	Target	AvoidedLoss	True
453.025	0.3	Lose2	0.6875	0.004	Yes	2.668	-0.004	4.0	GoodResponse	0	0.247	n/a	9	47	ButtonPress	AvoidedLoss	True
453.078	0.41	Lose2	0.6875	n/a	Yes	2.668	n/a	n/a	GoodResponse	0	n/a	n/a	9	47	Blank	AvoidedLoss	True
453.48	1.45	Lose2	0.6875	n/a	Yes	2.668	n/a	5.0	GoodResponse	0	0.007	452.487	9	47	Feedback	AvoidedLoss	True
454.934	2.668	Lose2	0.6875	n/a	Yes	2.668	n/a	n/a	GoodResponse	0	0.0	n/a	9	47	ISIslide	AvoidedLoss	True
457.625	0.25	Lose2	0.6735	0.0	No	3.025	0.025	n/a	NoResponse	-1	n/a	n/a	8	48	Cue	Loss	True
457.876	3.95	Lose2	0.6735	0.0	No	3.025	0.001	n/a	NoResponse	-1	n/a	n/a	8	48	Fixation	Loss	True
461.821	0.28	Lose2	0.6735	0.004	No	3.025	-0.004	4.0	NoResponse	-1	0.349	461.17	8	48	Target	Loss	True
462.105	0.42	Lose2	0.6735	n/a	No	3.025	n/a	n/a	NoResponse	-1	n/a	n/a	8	48	Blank	Loss	True
462.17	0.3	Lose2	0.6735	0.004	No	3.025	-0.004	4.0	NoResponse	-1	0.349	n/a	8	48	ButtonPress	Loss	True
462.523	1.45	Lose2	0.6735	n/a	No	3.025	n/a	5.0	NoResponse	-1	0.034	461.557	8	48	Feedback	Loss	True
463.978	3.025	Lose2	0.6735	n/a	No	3.025	n/a	n/a	NoResponse	-1	0.0	n/a	8	48	ISIslide	Loss	True
467.02	0.25	Control	0.68	0.0	Yes	2.88	0.02	n/a	GoodResponse	0	n/a	n/a	8	49	Cue	Neutral	True
467.271	4.0	Control	0.68	0.0	Yes	2.88	0.001	n/a	GoodResponse	0	n/a	n/a	8	49	Fixation	Neutral	True
471.266	0.27	Control	0.68	0.004	Yes	2.88	-0.004	4.0	GoodResponse	0	0.192	470.458	8	49	Target	Neutral	True
471.458	0.3	Control	0.68	0.004	Yes	2.88	-0.004	4.0	GoodResponse	0	0.192	n/a	8	49	ButtonPress	Neutral	True
471.55	0.43	Control	0.68	n/a	Yes	2.88	n/a	n/a	GoodResponse	0	n/a	n/a	8	49	Blank	Neutral	True
471.968	1.45	Control	0.68	n/a	Yes	2.88	n/a	5.0	GoodResponse	0	0.007	470.975	8	49	Feedback	Neutral	True
473.423	2.88	Control	0.68	n/a	Yes	2.88	n/a	n/a	GoodResponse	0	0.0	n/a	8	49	ISIslide	Neutral	True
476.315	0.25	Control	0.6862999999999999	0.0	Yes	2.785	0.015	n/a	GoodResponse	0	n/a	n/a	8	50	Cue	Neutral	True
476.565	4.0	Control	0.6862999999999999	0.001	Yes	2.785	0.0	n/a	GoodResponse	0	n/a	n/a	8	50	Fixation	Neutral	True
480.561	0.26	Control	0.6862999999999999	0.004	Yes	2.785	-0.004	4.0	GoodResponse	0	0.199	479.76	8	50	Target	Neutral	True
480.76	0.3	Control	0.6862999999999999	0.004	Yes	2.785	-0.004	4.0	GoodResponse	0	0.199	n/a	8	50	ButtonPress	Neutral	True
480.828	0.44	Control	0.6862999999999999	n/a	Yes	2.785	n/a	n/a	GoodResponse	0	n/a	n/a	8	50	Blank	Neutral	True
481.263	1.45	Control	0.6862999999999999	n/a	Yes	2.785	n/a	5.0	GoodResponse	0	0.025	480.288	8	50	Feedback	Neutral	True
482.717	2.785	Control	0.6862999999999999	n/a	Yes	2.785	n/a	n/a	GoodResponse	0	0.0	n/a	8	50	ISIslide	Neutral	True
485.526	0.25	Control	0.6731	0.0	No	2.724	0.026	n/a	NoResponse	0	n/a	n/a	8	51	Cue	Neutral	True
485.776	3.95	Control	0.6731	0.0	No	2.724	0.0	n/a	NoResponse	0	n/a	n/a	8	51	Fixation	Neutral	True
489.738	0.25	Control	0.6731	0.0	No	2.724	0.012	4.0	NoResponse	0	0.275	489.013	8	51	Target	Neutral	True
489.972	0.45	Control	0.6731	n/a	No	2.724	n/a	n/a	NoResponse	0	n/a	n/a	8	51	Blank	Neutral	True
490.013	0.3	Control	0.6731	0.0	No	2.724	0.012	4.0	NoResponse	0	0.275	n/a	8	51	ButtonPress	Neutral	True
490.424	1.45	Control	0.6731	n/a	No	2.724	n/a	5.0	NoResponse	0	0.035	489.459	8	51	Feedback	Neutral	True
491.878	2.724	Control	0.6731	n/a	No	2.724	n/a	n/a	NoResponse	0	0.0	n/a	8	51	ISIslide	Neutral	True
494.619	0.25	Control	0.6792	0.001	Yes	2.631	0.019	n/a	GoodResponse	0	n/a	n/a	8	52	Cue	Neutral	True
494.87	4.05	Control	0.6792	0.0	Yes	2.631	0.001	n/a	GoodResponse	0	n/a	n/a	8	52	Fixation	Neutral	True
498.916	0.24	Control	0.6792	0.003	Yes	2.631	-0.003	4.0	GoodResponse	0	0.219	498.135	8	52	Target	Neutral	True
499.135	0.3	Control	0.6792	0.003	Yes	2.631	-0.003	4.0	GoodResponse	0	0.219	n/a	8	52	ButtonPress	Neutral	True
499.166	0.46	Control	0.6792	n/a	Yes	2.631	n/a	n/a	GoodResponse	0	n/a	n/a	8	52	Blank	Neutral	True
499.618	1.45	Control	0.6792	n/a	Yes	2.631	n/a	5.0	GoodResponse	0	0.012	498.63	8	52	Feedback	Neutral	True
501.072	2.631	Control	0.6792	n/a	Yes	2.631	n/a	n/a	GoodResponse	0	0.0	n/a	8	52	ISIslide	Neutral	True
503.73	0.25	Win2	0.6667000000000001	0.0	No	2.92	0.03	n/a	NoResponse	0	n/a	n/a	8	53	Cue	MissedWin	True
503.981	4.05	Win2	0.6667000000000001	0.0	No	2.92	0.001	n/a	NoResponse	0	n/a	n/a	8	53	Fixation	MissedWin	True
508.026	0.23	Win2	0.6667000000000001	0.004	No	2.92	-0.004	4.0	NoResponse	0	0.312	507.338	8	53	Target	MissedWin	True
508.26	0.47	Win2	0.6667000000000001	n/a	No	2.92	n/a	n/a	NoResponse	0	n/a	n/a	8	53	Blank	MissedWin	True
508.338	0.3	Win2	0.6667000000000001	0.004	No	2.92	-0.004	4.0	NoResponse	0	0.312	n/a	8	53	ButtonPress	MissedWin	True
508.728	1.45	Win2	0.6667000000000001	n/a	No	2.92	n/a	5.0	NoResponse	0	0.024	507.752	8	53	Feedback	MissedWin	True
510.183	2.92	Win2	0.6667000000000001	n/a	No	2.92	n/a	n/a	NoResponse	0	0.0	n/a	8	53	ISIslide	MissedWin	True
513.125	0.25	Win2	0.6727	0.0	Yes	2.725	0.025	n/a	GoodResponse	1	n/a	n/a	9	54	Cue	Win	True
513.376	3.95	Win2	0.6727	0.0	Yes	2.725	0.001	n/a	GoodResponse	1	n/a	n/a	9	54	Fixation	Win	True
517.321	0.22	Win2	0.6727	0.004	Yes	2.725	-0.004	4.0	GoodResponse	1	0.213	516.534	9	54	Target	Win	True
517.534	0.3	Win2	0.6727	0.004	Yes	2.725	-0.004	4.0	GoodResponse	1	0.213	n/a	9	54	ButtonPress	Win	True
517.555	0.48	Win2	0.6727	n/a	Yes	2.725	n/a	n/a	GoodResponse	1	n/a	n/a	9	54	Blank	Win	True
518.023	1.45	Win2	0.6727	n/a	Yes	2.725	n/a	5.0	GoodResponse	1	0.046	517.069	9	54	Feedback	Win	True
519.477	2.725	Win2	0.6727	n/a	Yes	2.725	n/a	n/a	GoodResponse	1	0.0	n/a	9	54	ISIslide	Win	True
522.219	0.25	Control	0.6786	0.0	Yes	3.031	0.019	n/a	GoodResponse	0	n/a	n/a	9	55	Cue	Neutral	True
522.47	3.95	Control	0.6786	0.0	Yes	3.031	0.001	n/a	GoodResponse	0	n/a	n/a	9	55	Fixation	Neutral	True
526.415	0.21	Control	0.6786	0.004	Yes	3.031	-0.004	4.0	GoodResponse	0	0.189	525.604	9	55	Target	Neutral	True
526.604	0.3	Control	0.6786	0.004	Yes	3.031	-0.004	4.0	GoodResponse	0	0.189	n/a	9	55	ButtonPress	Neutral	True
526.632	0.49	Control	0.6786	n/a	Yes	3.031	n/a	n/a	GoodResponse	0	n/a	n/a	9	55	Blank	Neutral	True
527.117	1.45	Control	0.6786	n/a	Yes	3.031	n/a	5.0	GoodResponse	0	0.025	526.142	9	55	Feedback	Neutral	True
528.571	3.031	Control	0.6786	n/a	Yes	3.031	n/a	n/a	GoodResponse	0	0.0	n/a	9	55	ISIslide	Neutral	True
531.63	0.25	Control	0.6667000000000001	0.0	No	2.82	0.03	n/a	NoResponse	0	n/a	n/a	9	56	Cue	Neutral	True
531.881	3.95	Control	0.6667000000000001	0.0	No	2.82	0.001	n/a	NoResponse	0	n/a	n/a	9	56	Fixation	Neutral	True
535.826	0.2	Control	0.6667000000000001	0.004	No	2.82	-0.004	4.0	NoResponse	0	0.35	535.176	9	56	Target	Neutral	True
536.027	0.5	Control	0.6667000000000001	n/a	No	2.82	n/a	n/a	NoResponse	0	n/a	n/a	9	56	Blank	Neutral	True
536.176	0.3	Control	0.6667000000000001	0.004	No	2.82	-0.004	4.0	NoResponse	0	0.35	n/a	9	56	ButtonPress	Neutral	True
536.528	1.45	Control	0.6667000000000001	n/a	No	2.82	n/a	5.0	NoResponse	0	0.028	535.556	9	56	Feedback	Neutral	True
537.983	2.82	Control	0.6667000000000001	n/a	No	2.82	n/a	n/a	NoResponse	0	0.0	n/a	9	56	ISIslide	Neutral	True
540.824	0.25	Control	0.6552	0.001	No	3.476	0.024	n/a	NoResponse	0	n/a	n/a	9	57	Cue	Neutral	True
541.075	4.0	Control	0.6552	0.0	No	3.476	0.001	n/a	NoResponse	0	n/a	n/a	9	57	Fixation	Neutral	True
545.07	0.19	Control	0.6552	0.004	No	3.476	-0.004	4.0	NoResponse	0	0.263	544.333	9	57	Target	Neutral	True
545.271	0.51	Control	0.6552	n/a	No	3.476	n/a	n/a	NoResponse	0	n/a	n/a	9	57	Blank	Neutral	True
545.333	0.3	Control	0.6552	0.004	No	3.476	-0.004	4.0	NoResponse	0	0.263	n/a	9	57	ButtonPress	Neutral	True
545.773	1.45	Control	0.6552	n/a	No	3.476	n/a	5.0	NoResponse	0	0.006	544.779	9	57	Feedback	Neutral	True
547.227	3.476	Control	0.6552	n/a	No	3.476	n/a	n/a	NoResponse	0	0.0	n/a	9	57	ISIslide	Neutral	True
550.721	0.25	Win2	0.6441	0.0	No	2.729	0.021	n/a	NoResponse	0	n/a	n/a	9	58	Cue	MissedWin	True
550.971	4.05	Win2	0.6441	0.001	No	2.729	0.0	n/a	NoResponse	0	n/a	n/a	9	58	Fixation	MissedWin	True
555.017	0.19	Win2	0.6441	0.004	No	2.729	-0.004	4.0	NoResponse	0	0.213	554.23	9	58	Target	MissedWin	True
555.218	0.51	Win2	0.6441	n/a	No	2.729	n/a	n/a	NoResponse	0	n/a	n/a	9	58	Blank	MissedWin	True
555.23	0.3	Win2	0.6441	0.004	No	2.729	-0.004	4.0	NoResponse	0	0.213	n/a	9	58	ButtonPress	MissedWin	True
555.719	1.45	Win2	0.6441	n/a	No	2.729	n/a	5.0	NoResponse	0	0.008	554.727	9	58	Feedback	MissedWin	True
557.173	2.729	Win2	0.6441	n/a	No	2.729	n/a	n/a	NoResponse	0	0.0	n/a	9	58	ISIslide	MissedWin	True
559.915	0.25	Lose2	0.65	0.0	Yes	2.685	0.015	n/a	GoodResponse	0	n/a	n/a	9	59	Cue	AvoidedLoss	True
560.166	4.0	Lose2	0.65	0.0	Yes	2.685	0.001	n/a	GoodResponse	0	n/a	n/a	9	59	Fixation	AvoidedLoss	True
564.161	0.2	Lose2	0.65	0.004	Yes	2.685	-0.004	4.0	GoodResponse	0	0.178	563.339	9	59	Target	AvoidedLoss	True
564.339	0.3	Lose2	0.65	0.004	Yes	2.685	-0.004	4.0	GoodResponse	0	0.178	n/a	9	59	ButtonPress	AvoidedLoss	True
564.362	0.5	Lose2	0.65	n/a	Yes	2.685	n/a	n/a	GoodResponse	0	n/a	n/a	9	59	Blank	AvoidedLoss	True
564.863	1.45	Lose2	0.65	n/a	Yes	2.685	n/a	5.0	GoodResponse	0	0.035	563.898	9	59	Feedback	AvoidedLoss	True
566.317	2.685	Lose2	0.65	n/a	Yes	2.685	n/a	n/a	GoodResponse	0	0.0	n/a	9	59	ISIslide	AvoidedLoss	True
569.026	0.25	Control	0.6393	0.0	No	2.674	0.026	n/a	NoResponse	0	n/a	n/a	9	60	Cue	Neutral	True
569.276	4.0	Control	0.6393	0.0	No	2.674	0.0	n/a	NoResponse	0	n/a	n/a	9	60	Fixation	Neutral	True
573.272	0.21	Control	0.6393	0.004	No	2.674	-0.004	4.0	NoResponse	0	0.265	572.537	9	60	Target	Neutral	True
573.489	0.49	Control	0.6393	n/a	No	2.674	n/a	n/a	NoResponse	0	n/a	n/a	9	60	Blank	Neutral	True
573.537	0.3	Control	0.6393	0.004	No	2.674	-0.004	4.0	NoResponse	0	0.265	n/a	9	60	ButtonPress	Neutral	True
573.974	1.45	Control	0.6393	n/a	No	2.674	n/a	5.0	NoResponse	0	0.046	573.02	9	60	Feedback	Neutral	True
575.428	2.674	Control	0.6393	n/a	No	2.674	n/a	n/a	NoResponse	0	0.0	n/a	9	60	ISIslide	Neutral	True
578.119	0.25	Lose2	0.6452	0.001	Yes	2.981	0.019	n/a	GoodResponse	0	n/a	n/a	9	61	Cue	AvoidedLoss	True
578.37	4.0	Lose2	0.6452	0.0	Yes	2.981	0.001	n/a	GoodResponse	0	n/a	n/a	9	61	Fixation	AvoidedLoss	True
582.365	0.22	Lose2	0.6452	0.004	Yes	2.981	-0.004	4.0	GoodResponse	0	0.193	581.558	9	61	Target	AvoidedLoss	True
582.558	0.3	Lose2	0.6452	0.004	Yes	2.981	-0.004	4.0	GoodResponse	0	0.193	n/a	9	61	ButtonPress	AvoidedLoss	True
582.6	0.48	Lose2	0.6452	n/a	Yes	2.981	n/a	n/a	GoodResponse	0	n/a	n/a	9	61	Blank	AvoidedLoss	True
583.068	1.45	Lose2	0.6452	n/a	Yes	2.981	n/a	5.0	GoodResponse	0	0.024	582.092	9	61	Feedback	AvoidedLoss	True
584.522	2.981	Lose2	0.6452	n/a	Yes	2.981	n/a	n/a	GoodResponse	0	0.0	n/a	9	61	ISIslide	AvoidedLoss	True
587.531	0.25	Lose2	0.6349	0.0	No	2.869	0.031	n/a	NoResponse	-1	n/a	n/a	8	62	Cue	Loss	True
587.782	3.9	Lose2	0.6349	0.0	No	2.869	0.001	n/a	NoResponse	-1	n/a	n/a	8	62	Fixation	Loss	True
591.677	0.23	Lose2	0.6349	0.004	No	2.869	-0.004	4.0	NoResponse	-1	0.257	590.934	8	62	Target	Loss	True
591.911	0.47	Lose2	0.6349	n/a	No	2.869	n/a	n/a	NoResponse	-1	n/a	n/a	8	62	Blank	Loss	True
591.934	0.3	Lose2	0.6349	0.004	No	2.869	-0.004	4.0	NoResponse	-1	0.257	n/a	8	62	ButtonPress	Loss	True
592.379	1.45	Lose2	0.6349	n/a	No	2.869	n/a	5.0	NoResponse	-1	0.03	591.409	8	62	Feedback	Loss	True
593.833	2.869	Lose2	0.6349	n/a	No	2.869	n/a	n/a	NoResponse	-1	0.0	n/a	8	62	ISIslide	Loss	True
596.725	0.25	Lose2	0.6406000000000001	0.0	Yes	2.625	0.025	n/a	GoodResponse	0	n/a	n/a	8	63	Cue	AvoidedLoss	True
596.976	4.05	Lose2	0.6406000000000001	0.0	Yes	2.625	0.001	n/a	GoodResponse	0	n/a	n/a	8	63	Fixation	AvoidedLoss	True
601.021	0.24	Lose2	0.6406000000000001	0.004	Yes	2.625	-0.004	4.0	GoodResponse	0	0.225	600.246	8	63	Target	AvoidedLoss	True
601.246	0.3	Lose2	0.6406000000000001	0.004	Yes	2.625	-0.004	4.0	GoodResponse	0	0.225	n/a	8	63	ButtonPress	AvoidedLoss	True
601.272	0.46	Lose2	0.6406000000000001	n/a	Yes	2.625	n/a	n/a	GoodResponse	0	n/a	n/a	8	63	Blank	AvoidedLoss	True
601.723	1.45	Lose2	0.6406000000000001	n/a	Yes	2.625	n/a	5.0	GoodResponse	0	0.008	600.731	8	63	Feedback	AvoidedLoss	True
603.178	2.625	Lose2	0.6406000000000001	n/a	Yes	2.625	n/a	n/a	GoodResponse	0	0.0	n/a	8	63	ISIslide	AvoidedLoss	True
605.819	0.25	Win2	0.6462	0.0	Yes	3.131	0.019	n/a	GoodResponse	1	n/a	n/a	9	64	Cue	Win	True
606.07	4.15	Win2	0.6462	0.0	Yes	3.131	0.001	n/a	GoodResponse	1	n/a	n/a	9	64	Fixation	Win	True
610.216	0.25	Win2	0.6462	0.003	Yes	3.131	-0.003	4.0	GoodResponse	1	0.21	609.426	9	64	Target	Win	True
610.426	0.3	Win2	0.6462	0.003	Yes	3.131	-0.003	4.0	GoodResponse	1	0.21	n/a	9	64	ButtonPress	Win	True
610.466	0.45	Win2	0.6462	n/a	Yes	3.131	n/a	n/a	GoodResponse	1	n/a	n/a	9	64	Blank	Win	True
610.918	1.45	Win2	0.6462	n/a	Yes	3.131	n/a	5.0	GoodResponse	1	0.028	609.946	9	64	Feedback	Win	True
612.372	3.131	Win2	0.6462	n/a	Yes	3.131	n/a	n/a	GoodResponse	1	0.0	n/a	9	64	ISIslide	Win	True
615.515	0.25	Control	0.6364	0.0	No	2.785	0.015	n/a	LatePress	0	n/a	n/a	9	65	Cue	Neutral	True
615.765	4.0	Control	0.6364	0.001	No	2.785	0.0	n/a	LatePress	0	n/a	n/a	9	65	Fixation	Neutral	True
619.761	0.26	Control	0.6364	0.004	No	2.785	-0.004	4.0	LatePress	0	0.263	619.024	9	65	Target	Neutral	True
620.024	0.3	Control	0.6364	0.004	No	2.785	-0.004	4.0	LatePress	0	0.263	n/a	9	65	ButtonPress	Neutral	True
620.028	0.44	Control	0.6364	n/a	No	2.785	n/a	n/a	LatePress	0	n/a	n/a	9	65	Blank	Neutral	True
620.463	1.45	Control	0.6364	n/a	No	2.785	n/a	5.0	LatePress	0	0.044	619.507	9	65	Feedback	Neutral	True
621.917	2.785	Control	0.6364	n/a	No	2.785	n/a	n/a	LatePress	0	0.0	n/a	9	65	ISIslide	Neutral	True
624.726	0.25	Win2	0.6418	0.0	Yes	2.774	0.026	n/a	GoodResponse	1	n/a	n/a	10	66	Cue	Win	True
624.976	3.9	Win2	0.6418	0.0	Yes	2.774	0.0	n/a	GoodResponse	1	n/a	n/a	10	66	Fixation	Win	True
628.888	0.27	Win2	0.6418	0.0	Yes	2.774	0.012	4.0	GoodResponse	1	0.201	628.089	10	66	Target	Win	True
629.089	0.3	Win2	0.6418	0.0	Yes	2.774	0.012	4.0	GoodResponse	1	0.201	n/a	10	66	ButtonPress	Win	True
629.156	0.43	Win2	0.6418	n/a	Yes	2.774	n/a	n/a	GoodResponse	1	n/a	n/a	10	66	Blank	Win	True
629.573	1.45	Win2	0.6418	n/a	Yes	2.774	n/a	5.0	GoodResponse	1	0.008	628.581	10	66	Feedback	Win	True
631.028	2.774	Win2	0.6418	n/a	Yes	2.774	n/a	n/a	GoodResponse	1	0.0	n/a	10	66	ISIslide	Win	True
633.819	0.25	Control	0.6470999999999999	0.001	Yes	2.731	0.019	n/a	GoodResponse	0	n/a	n/a	10	67	Cue	Neutral	True
634.07	3.95	Control	0.6470999999999999	0.0	Yes	2.731	0.001	n/a	GoodResponse	0	n/a	n/a	10	67	Fixation	Neutral	True
638.015	0.28	Control	0.6470999999999999	0.004	Yes	2.731	-0.004	4.0	GoodResponse	0	0.225	637.24	10	67	Target	Neutral	True
638.24	0.3	Control	0.6470999999999999	0.004	Yes	2.731	-0.004	4.0	GoodResponse	0	0.225	n/a	10	67	ButtonPress	Neutral	True
638.3	0.42	Control	0.6470999999999999	n/a	Yes	2.731	n/a	n/a	GoodResponse	0	n/a	n/a	10	67	Blank	Neutral	True
638.717	1.45	Control	0.6470999999999999	n/a	Yes	2.731	n/a	5.0	GoodResponse	0	0.033	637.75	10	67	Feedback	Neutral	True
640.172	2.731	Control	0.6470999999999999	n/a	Yes	2.731	n/a	n/a	GoodResponse	0	0.0	n/a	10	67	ISIslide	Neutral	True
642.93	0.25	Win2	0.6522	0.0	Yes	3.07	0.03	n/a	GoodResponse	1	n/a	n/a	11	68	Cue	Win	True
643.181	4.0	Win2	0.6522	0.0	Yes	3.07	0.001	n/a	GoodResponse	1	n/a	n/a	11	68	Fixation	Win	True
647.176	0.29	Win2	0.6522	0.004	Yes	3.07	-0.004	4.0	GoodResponse	1	0.183	646.359	11	68	Target	Win	True
647.359	0.3	Win2	0.6522	0.004	Yes	3.07	-0.004	4.0	GoodResponse	1	0.183	n/a	11	68	ButtonPress	Win	True
647.477	0.41	Win2	0.6522	n/a	Yes	3.07	n/a	n/a	GoodResponse	1	n/a	n/a	11	68	Blank	Win	True
647.878	1.45	Win2	0.6522	n/a	Yes	3.07	n/a	5.0	GoodResponse	1	0.043	646.921	11	68	Feedback	Win	True
649.333	3.07	Win2	0.6522	n/a	Yes	3.07	n/a	n/a	GoodResponse	1	0.0	n/a	11	68	ISIslide	Win	True
652.425	0.25	Win2	0.6570999999999999	0.0	Yes	3.225	0.025	n/a	GoodResponse	1	n/a	n/a	12	69	Cue	Win	True
652.676	3.95	Win2	0.6570999999999999	0.0	Yes	3.225	0.001	n/a	GoodResponse	1	n/a	n/a	12	69	Fixation	Win	True
656.621	0.3	Win2	0.6570999999999999	0.004	Yes	3.225	-0.004	4.0	GoodResponse	1	0.223	655.844	12	69	Target	Win	True
656.844	0.3	Win2	0.6570999999999999	0.004	Yes	3.225	-0.004	4.0	GoodResponse	1	0.223	n/a	12	69	ButtonPress	Win	True
656.922	0.4	Win2	0.6570999999999999	n/a	Yes	3.225	n/a	n/a	GoodResponse	1	n/a	n/a	12	69	Blank	Win	True
657.323	1.45	Win2	0.6570999999999999	n/a	Yes	3.225	n/a	5.0	GoodResponse	1	0.013	656.336	12	69	Feedback	Win	True
658.778	3.225	Win2	0.6570999999999999	n/a	Yes	3.225	n/a	n/a	GoodResponse	1	0.0	n/a	12	69	ISIslide	Win	True
662.021	0.25	Lose2	0.662	0.0	Yes	3.029	0.021	n/a	GoodResponse	0	n/a	n/a	12	70	Cue	AvoidedLoss	True
662.271	4.05	Lose2	0.662	0.0	Yes	3.029	0.0	n/a	GoodResponse	0	n/a	n/a	12	70	Fixation	AvoidedLoss	True
666.317	0.3	Lose2	0.662	0.004	Yes	3.029	-0.004	4.0	GoodResponse	0	0.234	665.551	12	70	Target	AvoidedLoss	True
666.551	0.3	Lose2	0.662	0.004	Yes	3.029	-0.004	4.0	GoodResponse	0	0.234	n/a	12	70	ButtonPress	AvoidedLoss	True
666.618	0.4	Lose2	0.662	n/a	Yes	3.029	n/a	n/a	GoodResponse	0	n/a	n/a	12	70	Blank	AvoidedLoss	True
667.019	1.45	Lose2	0.662	n/a	Yes	3.029	n/a	5.0	GoodResponse	0	0.025	666.044	12	70	Feedback	AvoidedLoss	True
668.473	3.029	Lose2	0.662	n/a	Yes	3.029	n/a	n/a	GoodResponse	0	0.0	n/a	12	70	ISIslide	AvoidedLoss	True
671.516	0.25	Win2	0.6667000000000001	0.0	Yes	2.734	0.016	n/a	GoodResponse	1	n/a	n/a	13	71	Cue	Win	True
671.766	4.05	Win2	0.6667000000000001	0.0	Yes	2.734	0.0	n/a	GoodResponse	1	n/a	n/a	13	71	Fixation	Win	True
675.812	0.3	Win2	0.6667000000000001	0.004	Yes	2.734	-0.004	4.0	GoodResponse	1	0.276	675.088	13	71	Target	Win	True
676.088	0.3	Win2	0.6667000000000001	0.004	Yes	2.734	-0.004	4.0	GoodResponse	1	0.276	n/a	13	71	ButtonPress	Win	True
676.113	0.4	Win2	0.6667000000000001	n/a	Yes	2.734	n/a	n/a	GoodResponse	1	n/a	n/a	13	71	Blank	Win	True
676.514	1.45	Win2	0.6667000000000001	n/a	Yes	2.734	n/a	5.0	GoodResponse	1	0.042	675.556	13	71	Feedback	Win	True
677.968	2.734	Win2	0.6667000000000001	n/a	Yes	2.734	n/a	n/a	GoodResponse	1	0.0	n/a	13	71	ISIslide	Win	True
680.727	0.25	Win2	0.6712	0.0	Yes	2.773	0.027	n/a	GoodResponse	1	n/a	n/a	14	72	Cue	Win	True
680.977	4.1	Win2	0.6712	0.0	Yes	2.773	0.0	n/a	GoodResponse	1	n/a	n/a	14	72	Fixation	Win	True
685.073	0.29	Win2	0.6712	0.004	Yes	2.773	-0.004	4.0	GoodResponse	1	0.209	684.282	14	72	Target	Win	True
685.282	0.3	Win2	0.6712	0.004	Yes	2.773	-0.004	4.0	GoodResponse	1	0.209	n/a	14	72	ButtonPress	Win	True
685.374	0.41	Win2	0.6712	n/a	Yes	2.773	n/a	n/a	GoodResponse	1	n/a	n/a	14	72	Blank	Win	True
685.775	1.45	Win2	0.6712	n/a	Yes	2.773	n/a	5.0	GoodResponse	1	0.048	684.823	14	72	Feedback	Win	True
687.229	2.773	Win2	0.6712	n/a	Yes	2.773	n/a	n/a	GoodResponse	1	0.0	n/a	14	72	ISIslide	Win	True
690.021	0.25	Win2	0.6757	0.0	Yes	2.679	0.021	n/a	GoodResponse	1	n/a	n/a	15	73	Cue	Win	True
690.272	4.0	Win2	0.6757	0.0	Yes	2.679	0.001	n/a	GoodResponse	1	n/a	n/a	15	73	Fixation	Win	True
694.267	0.28	Win2	0.6757	0.004	Yes	2.679	-0.004	4.0	GoodResponse	1	0.211	693.478	15	73	Target	Win	True
694.478	0.3	Win2	0.6757	0.004	Yes	2.679	-0.004	4.0	GoodResponse	1	0.211	n/a	15	73	ButtonPress	Win	True
694.551	0.42	Win2	0.6757	n/a	Yes	2.679	n/a	n/a	GoodResponse	1	n/a	n/a	15	73	Blank	Win	True
694.969	1.45	Win2	0.6757	n/a	Yes	2.679	n/a	5.0	GoodResponse	1	0.025	693.994	15	73	Feedback	Win	True
696.424	2.679	Win2	0.6757	n/a	Yes	2.679	n/a	n/a	GoodResponse	1	0.0	n/a	15	73	ISIslide	Win	True
699.115	0.25	Lose2	0.68	0.0	Yes	2.635	0.015	n/a	GoodResponse	0	n/a	n/a	15	74	Cue	AvoidedLoss	True
699.366	4.05	Lose2	0.68	0.0	Yes	2.635	0.001	n/a	GoodResponse	0	n/a	n/a	15	74	Fixation	AvoidedLoss	True
703.411	0.27	Lose2	0.68	0.004	Yes	2.635	-0.004	4.0	GoodResponse	0	0.187	702.598	15	74	Target	AvoidedLoss	True
703.598	0.3	Lose2	0.68	0.004	Yes	2.635	-0.004	4.0	GoodResponse	0	0.187	n/a	15	74	ButtonPress	AvoidedLoss	True
703.695	0.43	Lose2	0.68	n/a	Yes	2.635	n/a	n/a	GoodResponse	0	n/a	n/a	15	74	Blank	AvoidedLoss	True
704.113	1.45	Lose2	0.68	n/a	Yes	2.635	n/a	5.0	GoodResponse	0	0.008	703.121	15	74	Feedback	AvoidedLoss	True
705.568	2.635	Lose2	0.68	n/a	Yes	2.635	n/a	n/a	GoodResponse	0	0.0	n/a	15	74	ISIslide	AvoidedLoss	True
708.226	0.25	Lose2	0.6842	0.0	Yes	2.924	0.026	n/a	GoodResponse	0	n/a	n/a	15	75	Cue	AvoidedLoss	True
708.476	3.95	Lose2	0.6842	0.0	Yes	2.924	0.0	n/a	GoodResponse	0	n/a	n/a	15	75	Fixation	AvoidedLoss	True
712.438	0.26	Lose2	0.6842	0.0	Yes	2.924	0.012	4.0	GoodResponse	0	0.186	711.624	15	75	Target	AvoidedLoss	True
712.624	0.3	Lose2	0.6842	0.0	Yes	2.924	0.012	4.0	GoodResponse	0	0.186	n/a	15	75	ButtonPress	AvoidedLoss	True
712.689	0.44	Lose2	0.6842	n/a	Yes	2.924	n/a	n/a	GoodResponse	0	n/a	n/a	15	75	Blank	AvoidedLoss	True
713.124	1.45	Lose2	0.6842	n/a	Yes	2.924	n/a	5.0	GoodResponse	0	0.017	712.141	15	75	Feedback	AvoidedLoss	True
714.578	2.924	Lose2	0.6842	n/a	Yes	2.924	n/a	n/a	GoodResponse	0	0.0	n/a	15	75	ISIslide	AvoidedLoss	True
717.52	0.25	Control	0.6883	0.0	Yes	3.23	0.02	n/a	GoodResponse	0	n/a	n/a	15	76	Cue	Neutral	False
717.771	4.05	Control	0.6883	0.0	Yes	3.23	0.001	4.0	GoodResponse	0	3.638	720.409	15	76	Fixation	Neutral	False
721.409	0.3	Control	0.6883	0.0	Yes	3.23	0.001	4.0	GoodResponse	0	3.638	n/a	15	76	ButtonPress	Neutral	False
721.816	0.25	Control	0.6883	0.004	Yes	3.23	-0.004	4.0	GoodResponse	0	0.11	720.926	15	76	Target	Neutral	False
721.926	0.3	Control	0.6883	0.004	Yes	3.23	-0.004	4.0	GoodResponse	0	0.11	n/a	15	76	ButtonPress	Neutral	False
722.067	0.45	Control	0.6883	n/a	Yes	3.23	n/a	n/a	GoodResponse	0	n/a	n/a	15	76	Blank	Neutral	False
722.518	1.45	Control	0.6883	n/a	Yes	3.23	n/a	5.0	GoodResponse	0	0.037	721.555	15	76	Feedback	Neutral	False
723.973	3.23	Control	0.6883	n/a	Yes	3.23	n/a	n/a	GoodResponse	0	0.0	n/a	15	76	ISIslide	Neutral	False
727.216	0.25	Lose2	0.6923	0.0	Yes	2.584	0.016	n/a	GoodResponse	0	n/a	n/a	15	77	Cue	AvoidedLoss	True
727.466	3.95	Lose2	0.6923	0.001	Yes	2.584	0.0	n/a	GoodResponse	0	n/a	n/a	15	77	Fixation	AvoidedLoss	True
731.412	0.24	Lose2	0.6923	0.004	Yes	2.584	-0.004	4.0	GoodResponse	0	0.191	730.603	15	77	Target	AvoidedLoss	True
731.603	0.3	Lose2	0.6923	0.004	Yes	2.584	-0.004	4.0	GoodResponse	0	0.191	n/a	15	77	ButtonPress	AvoidedLoss	True
731.662	0.46	Lose2	0.6923	n/a	Yes	2.584	n/a	n/a	GoodResponse	0	n/a	n/a	15	77	Blank	AvoidedLoss	True
732.114	1.45	Lose2	0.6923	n/a	Yes	2.584	n/a	5.0	GoodResponse	0	0.001	731.115	15	77	Feedback	AvoidedLoss	True
733.568	2.584	Lose2	0.6923	n/a	Yes	2.584	n/a	n/a	GoodResponse	0	0.0	n/a	15	77	ISIslide	AvoidedLoss	True
