onset	duration	cue_type	current_mean_accuracy	duration_error	is_hit	isi_adjusted	onset_delay	response	response_type	reward	rt	rt_time	total_reward	trial_number	trial_phase	trial_type	one_press
11.103	0.25	Control	1.0	0.001	Yes	2.947	0.003	n/a	GoodResponse	0	n/a	n/a	0	0	Cue	Neutral	True
11.353	3.85	Control	1.0	0.0	Yes	2.947	0.0	n/a	GoodResponse	0	n/a	n/a	0	0	Fixation	Neutral	True
15.202	0.4	Control	1.0	0.001	Yes	2.947	-0.001	2.0	GoodResponse	0	0.213	14.415	0	0	Target	Neutral	True
15.415	0.3	Control	1.0	0.001	Yes	2.947	-0.001	2.0	GoodResponse	0	0.213	n/a	0	0	ButtonPress	Neutral	True
15.602	0.3	Control	1.0	n/a	Yes	2.947	n/a	n/a	GoodResponse	0	n/a	n/a	0	0	Blank	Neutral	True
15.902	1.45	Control	1.0	n/a	Yes	2.947	n/a	5.0	GoodResponse	0	0.028	14.93	0	0	Feedback	Neutral	True
17.351	2.947	Control	1.0	n/a	Yes	2.947	n/a	n/a	GoodResponse	0	0.0	n/a	0	0	ISIslide	Neutral	True
20.334	0.25	Lose2	1.0	0.0	Yes	2.766	0.034	n/a	GoodResponse	0	n/a	n/a	0	1	Cue	AvoidedLoss	True
20.584	4.0	Lose2	1.0	0.0	Yes	2.766	0.0	n/a	GoodResponse	0	n/a	n/a	0	1	Fixation	AvoidedLoss	True
24.582	0.39	Lose2	1.0	0.002	Yes	2.766	-0.002	2.0	GoodResponse	0	0.212	23.794	0	1	Target	AvoidedLoss	True
24.794	0.3	Lose2	1.0	0.002	Yes	2.766	-0.002	2.0	GoodResponse	0	0.212	n/a	0	1	ButtonPress	AvoidedLoss	True
24.982	0.31	Lose2	1.0	n/a	Yes	2.766	n/a	n/a	GoodResponse	0	n/a	n/a	0	1	Blank	AvoidedLoss	True
25.282	1.45	Lose2	1.0	n/a	Yes	2.766	n/a	5.0	GoodResponse	0	0.014	24.296	0	1	Feedback	AvoidedLoss	True
26.731	2.766	Lose2	1.0	n/a	Yes	2.766	n/a	n/a	GoodResponse	0	0.0	n/a	0	1	ISIslide	AvoidedLoss	True
29.514	0.25	Control	1.0	0.0	Yes	2.586	0.014	n/a	GoodResponse	0	n/a	n/a	0	2	Cue	Neutral	True
29.764	4.1	Control	1.0	0.0	Yes	2.586	0.0	n/a	GoodResponse	0	n/a	n/a	0	2	Fixation	Neutral	True
33.862	0.38	Control	1.0	0.002	Yes	2.586	-0.002	2.0	GoodResponse	0	0.303	33.165	0	2	Target	Neutral	True
34.165	0.3	Control	1.0	0.002	Yes	2.586	-0.002	2.0	GoodResponse	0	0.303	n/a	0	2	ButtonPress	Neutral	True
34.245	0.32	Control	1.0	n/a	Yes	2.586	n/a	n/a	GoodResponse	0	n/a	n/a	0	2	Blank	Neutral	True
34.562	1.45	Control	1.0	n/a	Yes	2.586	n/a	5.0	GoodResponse	0	0.001	33.563	0	2	Feedback	Neutral	True
36.012	2.586	Control	1.0	n/a	Yes	2.586	n/a	n/a	GoodResponse	0	0.0	n/a	0	2	ISIslide	Neutral	True
38.627	0.25	Win2	1.0	0.0	Yes	2.823	0.027	n/a	GoodResponse	1	n/a	n/a	1	3	Cue	Win	True
38.877	3.95	Win2	1.0	0.0	Yes	2.823	0.0	n/a	GoodResponse	1	n/a	n/a	1	3	Fixation	Win	True
42.826	0.37	Win2	1.0	0.001	Yes	2.823	-0.001	2.0	GoodResponse	1	0.232	42.058	1	3	Target	Win	True
43.058	0.3	Win2	1.0	0.001	Yes	2.823	-0.001	2.0	GoodResponse	1	0.232	n/a	1	3	ButtonPress	Win	True
43.192	0.33	Win2	1.0	n/a	Yes	2.823	n/a	n/a	GoodResponse	1	n/a	n/a	1	3	Blank	Win	True
43.526	1.45	Win2	1.0	n/a	Yes	2.823	n/a	5.0	GoodResponse	1	0.013	42.539	1	3	Feedback	Win	True
44.975	2.823	Win2	1.0	n/a	Yes	2.823	n/a	n/a	GoodResponse	1	0.0	n/a	1	3	ISIslide	Win	True
47.824	0.25	Win2	1.0	0.0	Yes	3.276	0.024	n/a	GoodResponse	1	n/a	n/a	2	4	Cue	Win	True
48.074	4.0	Win2	1.0	0.0	Yes	3.276	0.0	n/a	GoodResponse	1	n/a	n/a	2	4	Fixation	Win	True
52.073	0.36	Win2	1.0	0.001	Yes	3.276	-0.001	2.0	GoodResponse	1	0.236	51.309	2	4	Target	Win	True
52.309	0.3	Win2	1.0	0.001	Yes	3.276	-0.001	2.0	GoodResponse	1	0.236	n/a	2	4	ButtonPress	Win	True
52.439	0.34	Win2	1.0	n/a	Yes	3.276	n/a	n/a	GoodResponse	1	n/a	n/a	2	4	Blank	Win	True
52.772	1.45	Win2	1.0	n/a	Yes	3.276	n/a	5.0	GoodResponse	1	0.035	51.807	2	4	Feedback	Win	True
54.222	3.276	Win2	1.0	n/a	Yes	3.276	n/a	n/a	GoodResponse	1	0.0	n/a	2	4	ISIslide	Win	True
57.521	0.25	Win2	1.0	0.0	Yes	2.779	0.021	n/a	GoodResponse	1	n/a	n/a	3	5	Cue	Win	True
57.771	4.0	Win2	1.0	0.0	Yes	2.779	0.0	n/a	GoodResponse	1	n/a	n/a	3	5	Fixation	Win	True
61.769	0.35	Win2	1.0	0.002	Yes	2.779	-0.002	2.0	GoodResponse	1	0.22	60.989	3	5	Target	Win	True
61.989	0.3	Win2	1.0	0.002	Yes	2.779	-0.002	2.0	GoodResponse	1	0.22	n/a	3	5	ButtonPress	Win	True
62.119	0.35	Win2	1.0	n/a	Yes	2.779	n/a	n/a	GoodResponse	1	n/a	n/a	3	5	Blank	Win	True
62.469	1.45	Win2	1.0	n/a	Yes	2.779	n/a	5.0	GoodResponse	1	0.046	61.515	3	5	Feedback	Win	True
63.919	2.779	Win2	1.0	n/a	Yes	2.779	n/a	n/a	GoodResponse	1	0.0	n/a	3	5	ISIslide	Win	True
66.718	0.25	Lose2	1.0	0.0	Yes	2.732	0.018	n/a	GoodResponse	0	n/a	n/a	3	6	Cue	AvoidedLoss	True
66.967	3.95	Lose2	1.0	0.001	Yes	2.732	-0.001	n/a	GoodResponse	0	n/a	n/a	3	6	Fixation	AvoidedLoss	True
70.916	0.34	Lose2	1.0	0.002	Yes	2.732	-0.002	2.0	GoodResponse	0	0.214	70.13	3	6	Target	AvoidedLoss	True
71.13	0.3	Lose2	1.0	0.002	Yes	2.732	-0.002	2.0	GoodResponse	0	0.214	n/a	3	6	ButtonPress	AvoidedLoss	True
71.266	0.36	Lose2	1.0	n/a	Yes	2.732	n/a	n/a	GoodResponse	0	n/a	n/a	3	6	Blank	AvoidedLoss	True
71.616	1.45	Lose2	1.0	n/a	Yes	2.732	n/a	5.0	GoodResponse	0	0.021	70.637	3	6	Feedback	AvoidedLoss	True
73.065	2.732	Lose2	1.0	n/a	Yes	2.732	n/a	n/a	GoodResponse	0	0.0	n/a	3	6	ISIslide	AvoidedLoss	True
75.814	0.25	Lose2	1.0	0.001	Yes	4.036	0.014	n/a	GoodResponse	0	n/a	n/a	3	7	Cue	AvoidedLoss	True
76.064	4.05	Lose2	1.0	0.0	Yes	4.036	0.0	n/a	GoodResponse	0	n/a	n/a	3	7	Fixation	AvoidedLoss	True
80.113	0.33	Lose2	1.0	0.001	Yes	4.036	-0.001	2.0	GoodResponse	0	0.27	79.383	3	7	Target	AvoidedLoss	True
80.383	0.3	Lose2	1.0	0.001	Yes	4.036	-0.001	2.0	GoodResponse	0	0.27	n/a	3	7	ButtonPress	AvoidedLoss	True
80.446	0.37	Lose2	1.0	n/a	Yes	4.036	n/a	n/a	GoodResponse	0	n/a	n/a	3	7	Blank	AvoidedLoss	True
80.813	1.45	Lose2	1.0	n/a	Yes	4.036	n/a	5.0	GoodResponse	0	0.043	79.856	3	7	Feedback	AvoidedLoss	True
82.262	4.036	Lose2	1.0	n/a	Yes	4.036	n/a	n/a	GoodResponse	0	0.0	n/a	3	7	ISIslide	AvoidedLoss	True
86.327	0.25	Lose2	1.0	0.001	Yes	3.023	0.027	n/a	GoodResponse	0	n/a	n/a	3	8	Cue	AvoidedLoss	True
86.577	3.95	Lose2	1.0	0.0	Yes	3.023	0.0	n/a	GoodResponse	0	n/a	n/a	3	8	Fixation	AvoidedLoss	True
90.526	0.32	Lose2	1.0	0.001	Yes	3.023	-0.001	2.0	GoodResponse	0	0.207	89.733	3	8	Target	AvoidedLoss	True
90.733	0.3	Lose2	1.0	0.001	Yes	3.023	-0.001	2.0	GoodResponse	0	0.207	n/a	3	8	ButtonPress	AvoidedLoss	True
90.843	0.38	Lose2	1.0	n/a	Yes	3.023	n/a	n/a	GoodResponse	0	n/a	n/a	3	8	Blank	AvoidedLoss	True
91.226	1.45	Lose2	1.0	n/a	Yes	3.023	n/a	5.0	GoodResponse	0	0.021	90.247	3	8	Feedback	AvoidedLoss	True
92.675	3.023	Lose2	1.0	n/a	Yes	3.023	n/a	n/a	GoodResponse	0	0.0	n/a	3	8	ISIslide	AvoidedLoss	True
95.724	0.25	Lose2	1.0	0.0	Yes	3.126	0.024	n/a	GoodResponse	0	n/a	n/a	3	9	Cue	AvoidedLoss	True
95.974	3.95	Lose2	1.0	0.0	Yes	3.126	0.0	n/a	GoodResponse	0	n/a	n/a	3	9	Fixation	AvoidedLoss	True
99.923	0.31	Lose2	1.0	0.001	Yes	3.126	-0.001	2.0	GoodResponse	0	0.247	99.17	3	9	Target	AvoidedLoss	True
100.17	0.3	Lose2	1.0	0.001	Yes	3.126	-0.001	2.0	GoodResponse	0	0.247	n/a	3	9	ButtonPress	AvoidedLoss	True
100.239	0.39	Lose2	1.0	n/a	Yes	3.126	n/a	n/a	GoodResponse	0	n/a	n/a	3	9	Blank	AvoidedLoss	True
100.623	1.45	Lose2	1.0	n/a	Yes	3.126	n/a	5.0	GoodResponse	0	0.038	99.661	3	9	Feedback	AvoidedLoss	True
102.072	3.126	Lose2	1.0	n/a	Yes	3.126	n/a	n/a	GoodResponse	0	0.0	n/a	3	9	ISIslide	AvoidedLoss	True
105.221	0.25	Control	1.0	0.0	Yes	3.279	0.021	n/a	GoodResponse	0	n/a	n/a	3	10	Cue	Neutral	True
105.471	4.0	Control	1.0	0.0	Yes	3.279	0.0	n/a	GoodResponse	0	n/a	n/a	3	10	Fixation	Neutral	True
109.469	0.3	Control	1.0	0.002	Yes	3.279	-0.002	2.0	GoodResponse	0	0.217	108.686	3	10	Target	Neutral	True
109.686	0.3	Control	1.0	0.002	Yes	3.279	-0.002	2.0	GoodResponse	0	0.217	n/a	3	10	ButtonPress	Neutral	True
109.769	0.4	Control	1.0	n/a	Yes	3.279	n/a	n/a	GoodResponse	0	n/a	n/a	3	10	Blank	Neutral	True
110.169	1.45	Control	1.0	n/a	Yes	3.279	n/a	5.0	GoodResponse	0	0.007	109.176	3	10	Feedback	Neutral	True
111.619	3.279	Control	1.0	n/a	Yes	3.279	n/a	n/a	GoodResponse	0	0.0	n/a	3	10	ISIslide	Neutral	True
114.918	0.25	Lose2	1.0	0.0	Yes	2.732	0.018	n/a	GoodResponse	0	n/a	n/a	3	11	Cue	AvoidedLoss	True
115.167	4.05	Lose2	1.0	0.001	Yes	2.732	-0.001	n/a	GoodResponse	0	n/a	n/a	3	11	Fixation	AvoidedLoss	True
119.216	0.29	Lose2	1.0	0.002	Yes	2.732	-0.002	2.0	GoodResponse	0	0.199	118.415	3	11	Target	AvoidedLoss	True
119.415	0.3	Lose2	1.0	0.002	Yes	2.732	-0.002	2.0	GoodResponse	0	0.199	n/a	3	11	ButtonPress	AvoidedLoss	True
119.516	0.41	Lose2	1.0	n/a	Yes	2.732	n/a	n/a	GoodResponse	0	n/a	n/a	3	11	Blank	AvoidedLoss	True
119.916	1.45	Lose2	1.0	n/a	Yes	2.732	n/a	5.0	GoodResponse	0	0.013	118.929	3	11	Feedback	AvoidedLoss	True
121.365	2.732	Lose2	1.0	n/a	Yes	2.732	n/a	n/a	GoodResponse	0	0.0	n/a	3	11	ISIslide	AvoidedLoss	True
124.114	0.25	Control	1.0	0.0	Yes	2.986	0.014	n/a	GoodResponse	0	n/a	n/a	3	12	Cue	Neutral	True
124.364	3.9	Control	1.0	0.0	Yes	2.986	0.0	n/a	GoodResponse	0	n/a	n/a	3	12	Fixation	Neutral	True
128.263	0.28	Control	1.0	0.001	Yes	2.986	-0.001	2.0	GoodResponse	0	0.204	127.467	3	12	Target	Neutral	True
128.467	0.3	Control	1.0	0.001	Yes	2.986	-0.001	2.0	GoodResponse	0	0.204	n/a	3	12	ButtonPress	Neutral	True
128.546	0.42	Control	1.0	n/a	Yes	2.986	n/a	n/a	GoodResponse	0	n/a	n/a	3	12	Blank	Neutral	True
128.963	1.45	Control	1.0	n/a	Yes	2.986	n/a	5.0	GoodResponse	0	0.039	128.002	3	12	Feedback	Neutral	True
130.412	2.986	Control	1.0	n/a	Yes	2.986	n/a	n/a	GoodResponse	0	0.0	n/a	3	12	ISIslide	Neutral	True
133.428	0.25	Control	0.9286	0.0	No	2.772	0.028	n/a	NoResponse	0	n/a	n/a	3	13	Cue	Neutral	True
133.678	4.0	Control	0.9286	0.0	No	2.772	0.0	n/a	NoResponse	0	n/a	n/a	3	13	Fixation	Neutral	True
137.676	0.27	Control	0.9286	0.002	No	2.772	-0.002	2.0	NoResponse	0	0.338	137.014	3	13	Target	Neutral	True
137.96	0.43	Control	0.9286	n/a	No	2.772	n/a	n/a	NoResponse	0	n/a	n/a	3	13	Blank	Neutral	True
138.014	0.3	Control	0.9286	0.002	No	2.772	-0.002	2.0	NoResponse	0	0.338	n/a	3	13	ButtonPress	Neutral	True
138.376	1.45	Control	0.9286	n/a	No	2.772	n/a	5.0	NoResponse	0	0.041	137.417	3	13	Feedback	Neutral	True
139.826	2.772	Control	0.9286	n/a	No	2.772	n/a	n/a	NoResponse	0	0.0	n/a	3	13	ISIslide	Neutral	True
142.625	0.25	Win2	0.9333	0.0	Yes	2.675	0.025	n/a	GoodResponse	1	n/a	n/a	4	14	Cue	Win	True
142.875	4.1	Win2	0.9333	0.0	Yes	2.675	0.0	n/a	GoodResponse	1	n/a	n/a	4	14	Fixation	Win	True
146.973	0.26	Win2	0.9333	0.002	Yes	2.675	-0.002	2.0	GoodResponse	1	0.188	146.161	4	14	Target	Win	True
147.161	0.3	Win2	0.9333	0.002	Yes	2.675	-0.002	2.0	GoodResponse	1	0.188	n/a	4	14	ButtonPress	Win	True
147.24	0.44	Win2	0.9333	n/a	Yes	2.675	n/a	n/a	GoodResponse	1	n/a	n/a	4	14	Blank	Win	True
147.673	1.45	Win2	0.9333	n/a	Yes	2.675	n/a	5.0	GoodResponse	1	0.013	146.686	4	14	Feedback	Win	True
149.122	2.675	Win2	0.9333	n/a	Yes	2.675	n/a	n/a	GoodResponse	1	0.0	n/a	4	14	ISIslide	Win	True
151.821	0.25	Control	0.9375	0.001	Yes	2.979	0.021	n/a	GoodResponse	0	n/a	n/a	4	15	Cue	Neutral	True
152.071	4.0	Control	0.9375	0.0	Yes	2.979	0.0	n/a	GoodResponse	0	n/a	n/a	4	15	Fixation	Neutral	True
156.07	0.25	Control	0.9375	0.001	Yes	2.979	-0.001	2.0	GoodResponse	0	0.241	155.311	4	15	Target	Neutral	True
156.311	0.3	Control	0.9375	0.001	Yes	2.979	-0.001	2.0	GoodResponse	0	0.241	n/a	4	15	ButtonPress	Neutral	True
156.32	0.45	Control	0.9375	n/a	Yes	2.979	n/a	n/a	GoodResponse	0	n/a	n/a	4	15	Blank	Neutral	True
156.77	1.45	Control	0.9375	n/a	Yes	2.979	n/a	5.0	GoodResponse	0	0.037	155.807	4	15	Feedback	Neutral	True
158.219	2.979	Control	0.9375	n/a	Yes	2.979	n/a	n/a	GoodResponse	0	0.0	n/a	4	15	ISIslide	Neutral	True
161.218	0.25	Win2	0.9412	0.0	Yes	2.882	0.018	n/a	GoodResponse	1	n/a	n/a	5	16	Cue	Win	True
161.468	4.0	Win2	0.9412	0.0	Yes	2.882	0.0	n/a	GoodResponse	1	n/a	n/a	5	16	Fixation	Win	True
165.467	0.24	Win2	0.9412	0.001	Yes	2.882	-0.001	2.0	GoodResponse	1	0.198	164.665	5	16	Target	Win	True
165.665	0.3	Win2	0.9412	0.001	Yes	2.882	-0.001	2.0	GoodResponse	1	0.198	n/a	5	16	ButtonPress	Win	True
165.717	0.46	Win2	0.9412	n/a	Yes	2.882	n/a	n/a	GoodResponse	1	n/a	n/a	5	16	Blank	Win	True
166.166	1.45	Win2	0.9412	n/a	Yes	2.882	n/a	5.0	GoodResponse	1	0.008	165.174	5	16	Feedback	Win	True
167.616	2.882	Win2	0.9412	n/a	Yes	2.882	n/a	n/a	GoodResponse	1	0.0	n/a	5	16	ISIslide	Win	True
170.515	0.25	Lose2	0.8889	0.0	No	2.735	0.015	n/a	NoResponse	-1	n/a	n/a	4	17	Cue	Loss	True
170.765	3.95	Lose2	0.8889	0.0	No	2.735	0.0	n/a	NoResponse	-1	n/a	n/a	4	17	Fixation	Loss	True
174.714	0.23	Lose2	0.8889	0.001	No	2.735	-0.001	2.0	NoResponse	-1	0.242	173.956	4	17	Target	Loss	True
174.947	0.47	Lose2	0.8889	n/a	No	2.735	n/a	n/a	NoResponse	-1	n/a	n/a	4	17	Blank	Loss	True
174.956	0.3	Lose2	0.8889	0.001	No	2.735	-0.001	2.0	NoResponse	-1	0.242	n/a	4	17	ButtonPress	Loss	True
175.413	1.45	Lose2	0.8889	n/a	No	2.735	n/a	5.0	NoResponse	-1	0.028	174.441	4	17	Feedback	Loss	True
176.863	2.735	Lose2	0.8889	n/a	No	2.735	n/a	n/a	NoResponse	-1	0.0	n/a	4	17	ISIslide	Loss	True
179.629	0.25	Lose2	0.8946999999999999	0.0	Yes	2.721	0.029	n/a	GoodResponse	0	n/a	n/a	4	18	Cue	AvoidedLoss	True
179.878	4.05	Lose2	0.8946999999999999	0.001	Yes	2.721	-0.001	n/a	GoodResponse	0	n/a	n/a	4	18	Fixation	AvoidedLoss	True
183.927	0.22	Lose2	0.8946999999999999	0.002	Yes	2.721	-0.002	2.0	GoodResponse	0	0.177	183.104	4	18	Target	AvoidedLoss	True
184.104	0.3	Lose2	0.8946999999999999	0.002	Yes	2.721	-0.002	2.0	GoodResponse	0	0.177	n/a	4	18	ButtonPress	AvoidedLoss	True
184.16	0.48	Lose2	0.8946999999999999	n/a	Yes	2.721	n/a	n/a	GoodResponse	0	n/a	n/a	4	18	Blank	AvoidedLoss	True
184.627	1.45	Lose2	0.8946999999999999	n/a	Yes	2.721	n/a	5.0	GoodResponse	0	0.034	183.661	4	18	Feedback	AvoidedLoss	True
186.076	2.721	Lose2	0.8946999999999999	n/a	Yes	2.721	n/a	n/a	GoodResponse	0	0.0	n/a	4	18	ISIslide	AvoidedLoss	True
188.825	0.25	Control	0.85	0.0	No	2.925	0.025	n/a	LatePress	0	n/a	n/a	4	19	Cue	Neutral	True
189.075	3.95	Control	0.85	0.0	No	2.925	0.0	n/a	LatePress	0	n/a	n/a	4	19	Fixation	Neutral	True
193.024	0.21	Control	0.85	0.001	No	2.925	-0.001	2.0	LatePress	0	0.21	192.234	4	19	Target	Neutral	True
193.234	0.3	Control	0.85	0.001	No	2.925	-0.001	2.0	LatePress	0	0.21	n/a	4	19	ButtonPress	Neutral	True
193.24	0.49	Control	0.85	n/a	No	2.925	n/a	n/a	LatePress	0	n/a	n/a	4	19	Blank	Neutral	True
193.724	1.45	Control	0.85	n/a	No	2.925	n/a	5.0	LatePress	0	0.01	192.734	4	19	Feedback	Neutral	True
195.173	2.925	Control	0.85	n/a	No	2.925	n/a	n/a	LatePress	0	0.0	n/a	4	19	ISIslide	Neutral	True
198.122	0.25	Control	0.8571	0.0	Yes	2.628	0.022	n/a	GoodResponse	0	n/a	n/a	4	20	Cue	Neutral	True
198.372	4.05	Control	0.8571	0.0	Yes	2.628	0.0	n/a	GoodResponse	0	n/a	n/a	4	20	Fixation	Neutral	True
202.421	0.2	Control	0.8571	0.001	Yes	2.628	-0.001	2.0	GoodResponse	0	0.188	201.609	4	20	Target	Neutral	True
202.609	0.3	Control	0.8571	0.001	Yes	2.628	-0.001	2.0	GoodResponse	0	0.188	n/a	4	20	ButtonPress	Neutral	True
202.621	0.5	Control	0.8571	n/a	Yes	2.628	n/a	n/a	GoodResponse	0	n/a	n/a	4	20	Blank	Neutral	True
203.12	1.45	Control	0.8571	n/a	Yes	2.628	n/a	5.0	GoodResponse	0	0.029	202.149	4	20	Feedback	Neutral	True
204.57	2.628	Control	0.8571	n/a	Yes	2.628	n/a	n/a	GoodResponse	0	0.0	n/a	4	20	ISIslide	Neutral	True
207.219	0.25	Control	0.8181999999999999	0.0	No	2.781	0.019	n/a	NoResponse	0	n/a	n/a	4	21	Cue	Neutral	True
207.469	4.1	Control	0.8181999999999999	0.0	No	2.781	0.0	n/a	NoResponse	0	n/a	n/a	4	21	Fixation	Neutral	True
211.567	0.19	Control	0.8181999999999999	0.002	No	2.781	-0.002	2.0	NoResponse	0	0.267	210.834	4	21	Target	Neutral	True
211.767	0.51	Control	0.8181999999999999	n/a	No	2.781	n/a	n/a	NoResponse	0	n/a	n/a	4	21	Blank	Neutral	True
211.834	0.3	Control	0.8181999999999999	0.002	No	2.781	-0.002	2.0	NoResponse	0	0.267	n/a	4	21	ButtonPress	Neutral	True
212.267	1.45	Control	0.8181999999999999	n/a	No	2.781	n/a	5.0	NoResponse	0	0.007	211.274	4	21	Feedback	Neutral	True
213.717	2.781	Control	0.8181999999999999	n/a	No	2.781	n/a	n/a	NoResponse	0	0.0	n/a	4	21	ISIslide	Neutral	True
216.516	0.25	Control	0.7826000000000001	0.0	No	2.784	0.016	n/a	NoResponse	0	n/a	n/a	4	22	Cue	Neutral	True
216.766	4.0	Control	0.7826000000000001	0.0	No	2.784	0.0	n/a	NoResponse	0	n/a	n/a	4	22	Fixation	Neutral	True
220.764	0.18	Control	0.7826000000000001	0.002	No	2.784	-0.002	2.0	NoResponse	0	0.199	219.963	4	22	Target	Neutral	True
220.948	0.52	Control	0.7826000000000001	n/a	No	2.784	n/a	n/a	NoResponse	0	n/a	n/a	4	22	Blank	Neutral	True
220.963	0.3	Control	0.7826000000000001	0.002	No	2.784	-0.002	2.0	NoResponse	0	0.199	n/a	4	22	ButtonPress	Neutral	True
221.464	1.45	Control	0.7826000000000001	n/a	No	2.784	n/a	5.0	NoResponse	0	0.025	220.489	4	22	Feedback	Neutral	True
222.914	2.784	Control	0.7826000000000001	n/a	No	2.784	n/a	n/a	NoResponse	0	0.0	n/a	4	22	ISIslide	Neutral	True
225.713	0.25	Control	0.75	0.0	No	2.787	0.013	n/a	NoResponse	0	n/a	n/a	4	23	Cue	Neutral	True
225.963	3.9	Control	0.75	0.0	No	2.787	0.0	n/a	NoResponse	0	n/a	n/a	4	23	Fixation	Neutral	True
229.861	0.17	Control	0.75	0.002	No	2.787	-0.002	2.0	NoResponse	0	0.196	229.057	4	23	Target	Neutral	True
230.044	0.53	Control	0.75	n/a	No	2.787	n/a	n/a	NoResponse	0	n/a	n/a	4	23	Blank	Neutral	True
230.057	0.3	Control	0.75	0.002	No	2.787	-0.002	2.0	NoResponse	0	0.196	n/a	4	23	ButtonPress	Neutral	True
230.561	1.45	Control	0.75	n/a	No	2.787	n/a	5.0	NoResponse	0	0.008	229.569	4	23	Feedback	Neutral	True
232.01	2.787	Control	0.75	n/a	No	2.787	n/a	n/a	NoResponse	0	0.0	n/a	4	23	ISIslide	Neutral	True
234.826	0.25	Win2	0.72	0.0	No	3.124	0.026	n/a	NoResponse	0	n/a	n/a	4	24	Cue	MissedWin	True
235.076	3.95	Win2	0.72	0.0	No	3.124	0.0	n/a	NoResponse	0	n/a	n/a	4	24	Fixation	MissedWin	True
239.025	0.16	Win2	0.72	0.001	No	3.124	-0.001	2.0	NoResponse	0	0.19	238.215	4	24	Target	MissedWin	True
239.191	0.54	Win2	0.72	n/a	No	3.124	n/a	n/a	NoResponse	0	n/a	n/a	4	24	Blank	MissedWin	True
239.215	0.3	Win2	0.72	0.001	No	3.124	-0.001	2.0	NoResponse	0	0.19	n/a	4	24	ButtonPress	MissedWin	True
239.724	1.45	Win2	0.72	n/a	No	3.124	n/a	5.0	NoResponse	0	0.01	238.734	4	24	Feedback	MissedWin	True
241.174	3.124	Win2	0.72	n/a	No	3.124	n/a	n/a	NoResponse	0	0.0	n/a	4	24	ISIslide	MissedWin	True
244.323	0.25	Win2	0.6923	0.0	No	3.077	0.023	n/a	NoResponse	0	n/a	n/a	4	25	Cue	MissedWin	True
244.573	4.0	Win2	0.6923	0.0	No	3.077	0.0	n/a	NoResponse	0	n/a	n/a	4	25	Fixation	MissedWin	True
248.571	0.15	Win2	0.6923	0.002	No	3.077	-0.002	2.0	NoResponse	0	0.218	247.789	4	25	Target	MissedWin	True
248.721	0.55	Win2	0.6923	n/a	No	3.077	n/a	n/a	NoResponse	0	n/a	n/a	4	25	Blank	MissedWin	True
248.789	0.3	Win2	0.6923	0.002	No	3.077	-0.002	2.0	NoResponse	0	0.218	n/a	4	25	ButtonPress	MissedWin	True
249.271	1.45	Win2	0.6923	n/a	No	3.077	n/a	5.0	NoResponse	0	0.024	248.295	4	25	Feedback	MissedWin	True
250.721	3.077	Win2	0.6923	n/a	No	3.077	n/a	n/a	NoResponse	0	0.0	n/a	4	25	ISIslide	MissedWin	True
253.82	0.25	Win2	0.6667000000000001	0.0	No	2.93	0.02	n/a	NoResponse	0	n/a	n/a	4	26	Cue	MissedWin	True
254.069	3.95	Win2	0.6667000000000001	0.001	No	2.93	-0.001	n/a	NoResponse	0	n/a	n/a	4	26	Fixation	MissedWin	True
258.018	0.15	Win2	0.6667000000000001	0.002	No	2.93	-0.002	2.0	NoResponse	0	0.188	257.206	4	26	Target	MissedWin	True
258.168	0.55	Win2	0.6667000000000001	n/a	No	2.93	n/a	n/a	NoResponse	0	n/a	n/a	4	26	Blank	MissedWin	True
258.206	0.3	Win2	0.6667000000000001	0.002	No	2.93	-0.002	2.0	NoResponse	0	0.188	n/a	4	26	ButtonPress	MissedWin	True
258.718	1.45	Win2	0.6667000000000001	n/a	No	2.93	n/a	5.0	NoResponse	0	0.04	257.758	4	26	Feedback	MissedWin	True
260.167	2.93	Win2	0.6667000000000001	n/a	No	2.93	n/a	n/a	NoResponse	0	0.0	n/a	4	26	ISIslide	MissedWin	True
263.116	0.25	Lose2	0.6429	0.0	No	2.834	0.016	n/a	NoResponse	-1	n/a	n/a	3	27	Cue	Loss	True
263.366	4.05	Lose2	0.6429	0.0	No	2.834	0.0	n/a	NoResponse	-1	n/a	n/a	3	27	Fixation	Loss	True
267.415	0.15	Lose2	0.6429	0.001	No	2.834	-0.001	2.0	NoResponse	-1	0.205	266.62	3	27	Target	Loss	True
267.565	0.55	Lose2	0.6429	n/a	No	2.834	n/a	n/a	NoResponse	-1	n/a	n/a	3	27	Blank	Loss	True
267.62	0.3	Lose2	0.6429	0.001	No	2.834	-0.001	2.0	NoResponse	-1	0.205	n/a	3	27	ButtonPress	Loss	True
268.115	1.45	Lose2	0.6429	n/a	No	2.834	n/a	5.0	NoResponse	-1	0.009	267.124	3	27	Feedback	Loss	True
269.564	2.834	Lose2	0.6429	n/a	No	2.834	n/a	n/a	NoResponse	-1	0.0	n/a	3	27	ISIslide	Loss	True
272.43	0.25	Control	0.6207	0.0	No	2.82	0.03	n/a	NoResponse	0	n/a	n/a	3	28	Cue	Neutral	True
272.68	4.05	Control	0.6207	0.0	No	2.82	0.0	n/a	NoResponse	0	n/a	n/a	3	28	Fixation	Neutral	True
276.728	0.16	Control	0.6207	0.002	No	2.82	-0.002	2.0	NoResponse	0	0.18	275.908	3	28	Target	Neutral	True
276.895	0.54	Control	0.6207	n/a	No	2.82	n/a	n/a	NoResponse	0	n/a	n/a	3	28	Blank	Neutral	True
276.908	0.3	Control	0.6207	0.002	No	2.82	-0.002	2.0	NoResponse	0	0.18	n/a	3	28	ButtonPress	Neutral	True
277.428	1.45	Control	0.6207	n/a	No	2.82	n/a	5.0	NoResponse	0	0.012	276.44	3	28	Feedback	Neutral	True
278.878	2.82	Control	0.6207	n/a	No	2.82	n/a	n/a	NoResponse	0	0.0	n/a	3	28	ISIslide	Neutral	True
281.727	0.25	Lose2	0.6	0.0	No	2.823	0.027	n/a	NoResponse	-1	n/a	n/a	2	29	Cue	Loss	True
281.976	3.95	Lose2	0.6	0.001	No	2.823	-0.001	2.0	NoResponse	-1	3.902	284.878	2	29	Fixation	Loss	True
285.878	0.3	Lose2	0.6	0.001	No	2.823	-0.001	2.0	NoResponse	-1	3.902	n/a	2	29	ButtonPress	Loss	True
285.925	0.17	Lose2	0.6	0.002	No	2.823	-0.002	n/a	NoResponse	-1	n/a	n/a	2	29	Target	Loss	True
286.108	0.53	Lose2	0.6	n/a	No	2.823	n/a	n/a	NoResponse	-1	n/a	n/a	2	29	Blank	Loss	True
286.625	1.45	Lose2	0.6	n/a	No	2.823	n/a	5.0	NoResponse	-1	0.035	285.66	2	29	Feedback	Loss	True
288.074	2.823	Lose2	0.6	n/a	No	2.823	n/a	n/a	NoResponse	-1	0.0	n/a	2	29	ISIslide	Loss	True
290.923	0.25	Win2	0.5806	0.0	No	2.777	0.023	n/a	NoResponse	0	n/a	n/a	2	30	Cue	MissedWin	True
291.173	3.9	Win2	0.5806	0.0	No	2.777	0.0	n/a	NoResponse	0	n/a	n/a	2	30	Fixation	MissedWin	True
295.072	0.18	Win2	0.5806	0.001	No	2.777	-0.001	2.0	NoResponse	0	0.282	294.354	2	30	Target	MissedWin	True
295.255	0.52	Win2	0.5806	n/a	No	2.777	n/a	n/a	NoResponse	0	n/a	n/a	2	30	Blank	MissedWin	True
295.354	0.3	Win2	0.5806	0.001	No	2.777	-0.001	2.0	NoResponse	0	0.282	n/a	2	30	ButtonPress	MissedWin	True
295.772	1.45	Win2	0.5806	n/a	No	2.777	n/a	5.0	NoResponse	0	0.01	294.782	2	30	Feedback	MissedWin	True
297.221	2.777	Win2	0.5806	n/a	No	2.777	n/a	n/a	NoResponse	0	0.0	n/a	2	30	ISIslide	MissedWin	True
300.02	0.25	Lose2	0.5625	0.0	No	2.83	0.02	n/a	LatePress	-1	n/a	n/a	1	31	Cue	Loss	True
300.27	4.05	Lose2	0.5625	0.0	No	2.83	0.0	n/a	LatePress	-1	n/a	n/a	1	31	Fixation	Loss	True
304.319	0.19	Lose2	0.5625	0.001	No	2.83	-0.001	2.0	LatePress	-1	0.2	303.519	1	31	Target	Loss	True
304.519	0.51	Lose2	0.5625	n/a	No	2.83	n/a	n/a	LatePress	-1	n/a	n/a	1	31	Blank	Loss	True
304.519	0.3	Lose2	0.5625	0.001	No	2.83	-0.001	2.0	LatePress	-1	0.2	n/a	1	31	ButtonPress	Loss	True
305.018	1.45	Lose2	0.5625	n/a	No	2.83	n/a	5.0	LatePress	-1	0.032	304.05	1	31	Feedback	Loss	True
306.468	2.83	Lose2	0.5625	n/a	No	2.83	n/a	n/a	LatePress	-1	0.0	n/a	1	31	ISIslide	Loss	True
309.317	0.25	Lose2	0.5455	0.0	No	2.633	0.017	n/a	NoResponse	-1	n/a	n/a	0	32	Cue	Loss	True
309.567	4.15	Lose2	0.5455	0.0	No	2.633	0.0	n/a	NoResponse	-1	n/a	n/a	0	32	Fixation	Loss	True
313.715	0.2	Lose2	0.5455	0.002	No	2.633	-0.002	2.0	NoResponse	-1	0.267	312.982	0	32	Target	Loss	True
313.915	0.5	Lose2	0.5455	n/a	No	2.633	n/a	n/a	NoResponse	-1	n/a	n/a	0	32	Blank	Loss	True
313.982	0.3	Lose2	0.5455	0.002	No	2.633	-0.002	2.0	NoResponse	-1	0.267	n/a	0	32	ButtonPress	Loss	True
314.415	1.45	Lose2	0.5455	n/a	No	2.633	n/a	5.0	NoResponse	-1	0.001	313.416	0	32	Feedback	Loss	True
315.865	2.633	Lose2	0.5455	n/a	No	2.633	n/a	n/a	NoResponse	-1	0.0	n/a	0	32	ISIslide	Loss	True
318.514	0.25	Win2	0.5588000000000001	0.0	Yes	2.686	0.014	n/a	GoodResponse	1	n/a	n/a	1	33	Cue	Win	True
318.764	4.0	Win2	0.5588000000000001	0.0	Yes	2.686	0.0	n/a	GoodResponse	1	n/a	n/a	1	33	Fixation	Win	True
322.762	0.21	Win2	0.5588000000000001	0.002	Yes	2.686	-0.002	2.0	GoodResponse	1	0.208	321.97	1	33	Target	Win	True
322.97	0.3	Win2	0.5588000000000001	0.002	Yes	2.686	-0.002	2.0	GoodResponse	1	0.208	n/a	1	33	ButtonPress	Win	True
322.979	0.49	Win2	0.5588000000000001	n/a	Yes	2.686	n/a	n/a	GoodResponse	1	n/a	n/a	1	33	Blank	Win	True
323.462	1.45	Win2	0.5588000000000001	n/a	Yes	2.686	n/a	5.0	GoodResponse	1	0.028	322.49	1	33	Feedback	Win	True
324.912	2.686	Win2	0.5588000000000001	n/a	Yes	2.686	n/a	n/a	GoodResponse	1	0.0	n/a	1	33	ISIslide	Win	True
327.627	0.25	Lose2	0.5714	0.0	Yes	2.623	0.027	n/a	GoodResponse	0	n/a	n/a	1	34	Cue	AvoidedLoss	True
327.877	4.05	Lose2	0.5714	0.0	Yes	2.623	0.0	n/a	GoodResponse	0	n/a	n/a	1	34	Fixation	AvoidedLoss	True
331.926	0.22	Lose2	0.5714	0.001	Yes	2.623	-0.001	2.0	GoodResponse	0	0.209	331.135	1	34	Target	AvoidedLoss	True
332.135	0.3	Lose2	0.5714	0.001	Yes	2.623	-0.001	2.0	GoodResponse	0	0.209	n/a	1	34	ButtonPress	AvoidedLoss	True
332.142	0.48	Lose2	0.5714	n/a	Yes	2.623	n/a	n/a	GoodResponse	0	n/a	n/a	1	34	Blank	AvoidedLoss	True
332.626	1.45	Lose2	0.5714	n/a	Yes	2.623	n/a	5.0	GoodResponse	0	0.034	331.66	1	34	Feedback	AvoidedLoss	True
334.075	2.623	Lose2	0.5714	n/a	Yes	2.623	n/a	n/a	GoodResponse	0	0.0	n/a	1	34	ISIslide	AvoidedLoss	True
336.724	0.25	Lose2	0.5832999999999999	0.0	Yes	2.676	0.024	n/a	GoodResponse	0	n/a	n/a	1	35	Cue	AvoidedLoss	True
336.974	4.0	Lose2	0.5832999999999999	0.0	Yes	2.676	0.0	n/a	GoodResponse	0	n/a	n/a	1	35	Fixation	AvoidedLoss	True
340.973	0.23	Lose2	0.5832999999999999	0.001	Yes	2.676	-0.001	2.0	GoodResponse	0	0.177	340.15	1	35	Target	AvoidedLoss	True
341.15	0.3	Lose2	0.5832999999999999	0.001	Yes	2.676	-0.001	2.0	GoodResponse	0	0.177	n/a	1	35	ButtonPress	AvoidedLoss	True
341.206	0.47	Lose2	0.5832999999999999	n/a	Yes	2.676	n/a	n/a	GoodResponse	0	n/a	n/a	1	35	Blank	AvoidedLoss	True
341.673	1.45	Lose2	0.5832999999999999	n/a	Yes	2.676	n/a	5.0	GoodResponse	0	0.011	340.684	1	35	Feedback	AvoidedLoss	True
343.122	2.676	Lose2	0.5832999999999999	n/a	Yes	2.676	n/a	n/a	GoodResponse	0	0.0	n/a	1	35	ISIslide	AvoidedLoss	True
345.821	0.25	Control	0.5946	0.0	Yes	2.679	0.021	n/a	GoodResponse	0	n/a	n/a	1	36	Cue	Neutral	True
346.071	4.0	Control	0.5946	0.0	Yes	2.679	0.0	n/a	GoodResponse	0	n/a	n/a	1	36	Fixation	Neutral	True
350.07	0.24	Control	0.5946	0.001	Yes	2.679	-0.001	2.0	GoodResponse	0	0.193	349.263	1	36	Target	Neutral	True
350.263	0.3	Control	0.5946	0.001	Yes	2.679	-0.001	2.0	GoodResponse	0	0.193	n/a	1	36	ButtonPress	Neutral	True
350.32	0.46	Control	0.5946	n/a	Yes	2.679	n/a	n/a	GoodResponse	0	n/a	n/a	1	36	Blank	Neutral	True
350.769	1.45	Control	0.5946	n/a	Yes	2.679	n/a	5.0	GoodResponse	0	0.037	349.806	1	36	Feedback	Neutral	True
352.219	2.679	Control	0.5946	n/a	Yes	2.679	n/a	n/a	GoodResponse	0	0.0	n/a	1	36	ISIslide	Neutral	True
354.918	0.25	Win2	0.6053000000000001	0.0	Yes	2.882	0.018	n/a	GoodResponse	1	n/a	n/a	2	37	Cue	Win	True
355.168	4.0	Win2	0.6053000000000001	0.0	Yes	2.882	0.0	n/a	GoodResponse	1	n/a	n/a	2	37	Fixation	Win	True
359.166	0.25	Win2	0.6053000000000001	0.002	Yes	2.882	-0.002	2.0	GoodResponse	1	0.2	358.366	2	37	Target	Win	True
359.366	0.3	Win2	0.6053000000000001	0.002	Yes	2.882	-0.002	2.0	GoodResponse	1	0.2	n/a	2	37	ButtonPress	Win	True
359.416	0.45	Win2	0.6053000000000001	n/a	Yes	2.882	n/a	n/a	GoodResponse	1	n/a	n/a	2	37	Blank	Win	True
359.866	1.45	Win2	0.6053000000000001	n/a	Yes	2.882	n/a	5.0	GoodResponse	1	0.013	358.879	2	37	Feedback	Win	True
361.316	2.882	Win2	0.6053000000000001	n/a	Yes	2.882	n/a	n/a	GoodResponse	1	0.0	n/a	2	37	ISIslide	Win	True
364.215	0.25	Lose2	0.5897	0.0	No	2.835	0.015	n/a	NoResponse	-1	n/a	n/a	1	38	Cue	Loss	True
364.465	3.95	Lose2	0.5897	0.0	No	2.835	0.0	n/a	NoResponse	-1	n/a	n/a	1	38	Fixation	Loss	True
368.413	0.26	Lose2	0.5897	0.002	No	2.835	-0.002	2.0	NoResponse	-1	0.293	367.706	1	38	Target	Loss	True
368.68	0.44	Lose2	0.5897	n/a	No	2.835	n/a	n/a	NoResponse	-1	n/a	n/a	1	38	Blank	Loss	True
368.706	0.3	Lose2	0.5897	0.002	No	2.835	-0.002	2.0	NoResponse	-1	0.293	n/a	1	38	ButtonPress	Loss	True
369.113	1.45	Lose2	0.5897	n/a	No	2.835	n/a	5.0	NoResponse	-1	0.035	368.148	1	38	Feedback	Loss	True
370.563	2.835	Lose2	0.5897	n/a	No	2.835	n/a	n/a	NoResponse	-1	0.0	n/a	1	38	ISIslide	Loss	True
373.428	0.25	Win2	0.6	0.0	Yes	2.972	0.028	n/a	GoodResponse	1	n/a	n/a	2	39	Cue	Win	True
373.678	4.1	Win2	0.6	0.0	Yes	2.972	0.0	n/a	GoodResponse	1	n/a	n/a	2	39	Fixation	Win	True
377.777	0.27	Win2	0.6	0.001	Yes	2.972	-0.001	2.0	GoodResponse	1	0.262	377.039	2	39	Target	Win	True
378.039	0.3	Win2	0.6	0.001	Yes	2.972	-0.001	2.0	GoodResponse	1	0.262	n/a	2	39	ButtonPress	Win	True
378.06	0.43	Win2	0.6	n/a	Yes	2.972	n/a	n/a	GoodResponse	1	n/a	n/a	2	39	Blank	Win	True
378.476	1.45	Win2	0.6	n/a	Yes	2.972	n/a	5.0	GoodResponse	1	0.038	377.514	2	39	Feedback	Win	True
379.926	2.972	Win2	0.6	n/a	Yes	2.972	n/a	n/a	GoodResponse	1	0.0	n/a	2	39	ISIslide	Win	True
382.925	0.25	Win2	0.5854	0.0	No	2.725	0.025	n/a	NoResponse	0	n/a	n/a	2	40	Cue	MissedWin	False
383.175	3.95	Win2	0.5854	0.0	No	2.725	0.0	n/a	NoResponse	0	n/a	n/a	2	40	Fixation	MissedWin	False
387.123	0.28	Win2	0.5854	0.002	No	2.725	-0.002	n/a	NoResponse	0	n/a	n/a	2	40	Target	MissedWin	False
387.407	0.42	Win2	0.5854	n/a	No	2.725	n/a	n/a	NoResponse	0	n/a	n/a	2	40	Blank	MissedWin	False
387.823	1.45	Win2	0.5854	n/a	No	2.725	n/a	5.0	NoResponse	0	0.008	386.831	2	40	Feedback	MissedWin	False
389.273	2.725	Win2	0.5854	n/a	No	2.725	n/a	n/a	NoResponse	0	0.0	n/a	2	40	ISIslide	MissedWin	False
392.022	0.25	Win2	0.5714	0.0	No	2.778	0.022	n/a	NoResponse	0	n/a	n/a	2	41	Cue	MissedWin	True
392.272	3.9	Win2	0.5714	0.0	No	2.778	0.0	2.0	NoResponse	0	3.568	394.84	2	41	Fixation	MissedWin	True
395.84	0.3	Win2	0.5714	0.0	No	2.778	0.0	2.0	NoResponse	0	3.568	n/a	2	41	ButtonPress	MissedWin	True
396.17	0.29	Win2	0.5714	0.002	No	2.778	-0.002	n/a	NoResponse	0	n/a	n/a	2	41	Target	MissedWin	True
396.47	0.41	Win2	0.5714	n/a	No	2.778	n/a	n/a	NoResponse	0	n/a	n/a	2	41	Blank	MissedWin	True
396.87	1.45	Win2	0.5714	n/a	No	2.778	n/a	5.0	NoResponse	0	0.033	395.903	2	41	Feedback	MissedWin	True
398.32	2.778	Win2	0.5714	n/a	No	2.778	n/a	n/a	NoResponse	0	0.0	n/a	2	41	ISIslide	MissedWin	True
401.119	0.25	Control	0.5814	0.0	Yes	2.931	0.019	n/a	GoodResponse	0	n/a	n/a	2	42	Cue	Neutral	True
401.369	3.85	Control	0.5814	0.0	Yes	2.931	0.0	n/a	GoodResponse	0	n/a	n/a	2	42	Fixation	Neutral	True
405.217	0.3	Control	0.5814	0.002	Yes	2.931	-0.002	2.0	GoodResponse	0	0.254	404.471	2	42	Target	Neutral	True
405.471	0.3	Control	0.5814	0.002	Yes	2.931	-0.002	2.0	GoodResponse	0	0.254	n/a	2	42	ButtonPress	Neutral	True
405.517	0.4	Control	0.5814	n/a	Yes	2.931	n/a	n/a	GoodResponse	0	n/a	n/a	2	42	Blank	Neutral	True
405.917	1.45	Control	0.5814	n/a	Yes	2.931	n/a	5.0	GoodResponse	0	0.011	404.928	2	42	Feedback	Neutral	True
407.366	2.931	Control	0.5814	n/a	Yes	2.931	n/a	n/a	GoodResponse	0	0.0	n/a	2	42	ISIslide	Neutral	True
410.315	0.25	Win2	0.5909	0.0	Yes	3.185	0.015	n/a	GoodResponse	1	n/a	n/a	3	43	Cue	Win	True
410.565	4.0	Win2	0.5909	0.0	Yes	3.185	0.0	n/a	GoodResponse	1	n/a	n/a	3	43	Fixation	Win	True
414.564	0.31	Win2	0.5909	0.001	Yes	3.185	-0.001	2.0	GoodResponse	1	0.196	413.76	3	43	Target	Win	True
414.76	0.3	Win2	0.5909	0.001	Yes	3.185	-0.001	2.0	GoodResponse	1	0.196	n/a	3	43	ButtonPress	Win	True
414.881	0.39	Win2	0.5909	n/a	Yes	3.185	n/a	n/a	GoodResponse	1	n/a	n/a	3	43	Blank	Win	True
415.264	1.45	Win2	0.5909	n/a	Yes	3.185	n/a	5.0	GoodResponse	1	0.03	414.294	3	43	Feedback	Win	True
416.713	3.185	Win2	0.5909	n/a	Yes	3.185	n/a	n/a	GoodResponse	1	0.0	n/a	3	43	ISIslide	Win	True
419.929	0.25	Win2	0.6	0.0	Yes	2.971	0.029	n/a	GoodResponse	1	n/a	n/a	4	44	Cue	Win	True
420.179	4.0	Win2	0.6	0.0	Yes	2.971	0.0	n/a	GoodResponse	1	n/a	n/a	4	44	Fixation	Win	True
424.177	0.32	Win2	0.6	0.002	Yes	2.971	-0.002	2.0	GoodResponse	1	0.233	423.41	4	44	Target	Win	True
424.41	0.3	Win2	0.6	0.002	Yes	2.971	-0.002	2.0	GoodResponse	1	0.233	n/a	4	44	ButtonPress	Win	True
424.511	0.38	Win2	0.6	n/a	Yes	2.971	n/a	n/a	GoodResponse	1	n/a	n/a	4	44	Blank	Win	True
424.877	1.45	Win2	0.6	n/a	Yes	2.971	n/a	5.0	GoodResponse	1	0.027	423.904	4	44	Feedback	Win	True
426.327	2.971	Win2	0.6	n/a	Yes	2.971	n/a	n/a	GoodResponse	1	0.0	n/a	4	44	ISIslide	Win	True
429.326	0.25	Control	0.6087	0.0	Yes	2.874	0.026	n/a	GoodResponse	0	n/a	n/a	4	45	Cue	Neutral	True
429.575	4.1	Control	0.6087	0.001	Yes	2.874	-0.001	n/a	GoodResponse	0	n/a	n/a	4	45	Fixation	Neutral	True
433.674	0.33	Control	0.6087	0.002	Yes	2.874	-0.002	2.0	GoodResponse	0	0.203	432.877	4	45	Target	Neutral	True
433.877	0.3	Control	0.6087	0.002	Yes	2.874	-0.002	2.0	GoodResponse	0	0.203	n/a	4	45	ButtonPress	Neutral	True
434.007	0.37	Control	0.6087	n/a	Yes	2.874	n/a	n/a	GoodResponse	0	n/a	n/a	4	45	Blank	Neutral	True
434.374	1.45	Control	0.6087	n/a	Yes	2.874	n/a	5.0	GoodResponse	0	0.042	433.416	4	45	Feedback	Neutral	True
435.823	2.874	Control	0.6087	n/a	Yes	2.874	n/a	n/a	GoodResponse	0	0.0	n/a	4	45	ISIslide	Neutral	True
438.722	0.25	Lose2	0.617	0.0	Yes	3.378	0.022	n/a	GoodResponse	0	n/a	n/a	4	46	Cue	AvoidedLoss	True
438.972	4.0	Lose2	0.617	0.0	Yes	3.378	0.0	n/a	GoodResponse	0	n/a	n/a	4	46	Fixation	AvoidedLoss	True
442.971	0.34	Lose2	0.617	0.001	Yes	3.378	-0.001	2.0	GoodResponse	0	0.198	442.169	4	46	Target	AvoidedLoss	True
443.169	0.3	Lose2	0.617	0.001	Yes	3.378	-0.001	2.0	GoodResponse	0	0.198	n/a	4	46	ButtonPress	AvoidedLoss	True
443.321	0.36	Lose2	0.617	n/a	Yes	3.378	n/a	n/a	GoodResponse	0	n/a	n/a	4	46	Blank	AvoidedLoss	True
443.671	1.45	Lose2	0.617	n/a	Yes	3.378	n/a	5.0	GoodResponse	0	0.013	442.684	4	46	Feedback	AvoidedLoss	True
445.12	3.378	Lose2	0.617	n/a	Yes	3.378	n/a	n/a	GoodResponse	0	0.0	n/a	4	46	ISIslide	AvoidedLoss	True
448.519	0.25	Lose2	0.625	0.0	Yes	2.681	0.019	n/a	GoodResponse	0	n/a	n/a	4	47	Cue	AvoidedLoss	True
448.769	4.0	Lose2	0.625	0.0	Yes	2.681	0.0	n/a	GoodResponse	0	n/a	n/a	4	47	Fixation	AvoidedLoss	True
452.767	0.35	Lose2	0.625	0.002	Yes	2.681	-0.002	2.0	GoodResponse	0	0.231	451.998	4	47	Target	AvoidedLoss	True
452.998	0.3	Lose2	0.625	0.002	Yes	2.681	-0.002	2.0	GoodResponse	0	0.231	n/a	4	47	ButtonPress	AvoidedLoss	True
453.117	0.35	Lose2	0.625	n/a	Yes	2.681	n/a	n/a	GoodResponse	0	n/a	n/a	4	47	Blank	AvoidedLoss	True
453.467	1.45	Lose2	0.625	n/a	Yes	2.681	n/a	5.0	GoodResponse	0	0.021	452.488	4	47	Feedback	AvoidedLoss	True
454.917	2.681	Lose2	0.625	n/a	Yes	2.681	n/a	n/a	GoodResponse	0	0.0	n/a	4	47	ISIslide	AvoidedLoss	True
457.616	0.25	Lose2	0.6327	0.0	Yes	3.034	0.016	n/a	GoodResponse	0	n/a	n/a	4	48	Cue	AvoidedLoss	True
457.866	3.95	Lose2	0.6327	0.0	Yes	3.034	0.0	n/a	GoodResponse	0	n/a	n/a	4	48	Fixation	AvoidedLoss	True
461.814	0.36	Lose2	0.6327	0.002	Yes	3.034	-0.002	2.0	GoodResponse	0	0.196	461.01	4	48	Target	AvoidedLoss	True
462.01	0.3	Lose2	0.6327	0.002	Yes	3.034	-0.002	2.0	GoodResponse	0	0.196	n/a	4	48	ButtonPress	AvoidedLoss	True
462.181	0.34	Lose2	0.6327	n/a	Yes	3.034	n/a	n/a	GoodResponse	0	n/a	n/a	4	48	Blank	AvoidedLoss	True
462.514	1.45	Lose2	0.6327	n/a	Yes	3.034	n/a	5.0	GoodResponse	0	0.048	461.562	4	48	Feedback	AvoidedLoss	True
463.964	3.034	Lose2	0.6327	n/a	Yes	3.034	n/a	n/a	GoodResponse	0	0.0	n/a	4	48	ISIslide	AvoidedLoss	True
467.012	0.25	Control	0.64	0.001	Yes	2.888	0.012	n/a	GoodResponse	0	n/a	n/a	4	49	Cue	Neutral	True
467.262	4.0	Control	0.64	0.0	Yes	2.888	0.0	n/a	GoodResponse	0	n/a	n/a	4	49	Fixation	Neutral	True
471.261	0.37	Control	0.64	0.001	Yes	2.888	-0.001	2.0	GoodResponse	0	0.224	470.485	4	49	Target	Neutral	True
471.485	0.3	Control	0.64	0.001	Yes	2.888	-0.001	2.0	GoodResponse	0	0.224	n/a	4	49	ButtonPress	Neutral	True
471.628	0.33	Control	0.64	n/a	Yes	2.888	n/a	n/a	GoodResponse	0	n/a	n/a	4	49	Blank	Neutral	True
471.961	1.45	Control	0.64	n/a	Yes	2.888	n/a	5.0	GoodResponse	0	0.015	470.976	4	49	Feedback	Neutral	True
473.41	2.888	Control	0.64	n/a	Yes	2.888	n/a	n/a	GoodResponse	0	0.0	n/a	4	49	ISIslide	Neutral	True
476.326	0.25	Control	0.6470999999999999	0.0	Yes	2.774	0.026	n/a	GoodResponse	0	n/a	n/a	4	50	Cue	Neutral	True
476.576	4.0	Control	0.6470999999999999	0.0	Yes	2.774	0.0	n/a	GoodResponse	0	n/a	n/a	4	50	Fixation	Neutral	True
480.574	0.38	Control	0.6470999999999999	0.002	Yes	2.774	-0.002	2.0	GoodResponse	0	0.363	479.937	4	50	Target	Neutral	True
480.937	0.3	Control	0.6470999999999999	0.002	Yes	2.774	-0.002	2.0	GoodResponse	0	0.363	n/a	4	50	ButtonPress	Neutral	True
480.958	0.32	Control	0.6470999999999999	n/a	Yes	2.774	n/a	n/a	GoodResponse	0	n/a	n/a	4	50	Blank	Neutral	True
481.274	1.45	Control	0.6470999999999999	n/a	Yes	2.774	n/a	5.0	GoodResponse	0	0.02	480.294	4	50	Feedback	Neutral	True
482.724	2.774	Control	0.6470999999999999	n/a	Yes	2.774	n/a	n/a	GoodResponse	0	0.0	n/a	4	50	ISIslide	Neutral	True
485.523	0.25	Control	0.6537999999999999	0.0	Yes	2.727	0.023	n/a	GoodResponse	0	n/a	n/a	4	51	Cue	Neutral	True
485.773	3.95	Control	0.6537999999999999	0.0	Yes	2.727	0.0	n/a	GoodResponse	0	n/a	n/a	4	51	Fixation	Neutral	True
489.721	0.39	Control	0.6537999999999999	0.002	Yes	2.727	-0.002	2.0	GoodResponse	0	0.26	488.981	4	51	Target	Neutral	True
489.981	0.3	Control	0.6537999999999999	0.002	Yes	2.727	-0.002	2.0	GoodResponse	0	0.26	n/a	4	51	ButtonPress	Neutral	True
490.121	0.31	Control	0.6537999999999999	n/a	Yes	2.727	n/a	n/a	GoodResponse	0	n/a	n/a	4	51	Blank	Neutral	True
490.421	1.45	Control	0.6537999999999999	n/a	Yes	2.727	n/a	5.0	GoodResponse	0	0.044	489.465	4	51	Feedback	Neutral	True
491.871	2.727	Control	0.6537999999999999	n/a	Yes	2.727	n/a	n/a	GoodResponse	0	0.0	n/a	4	51	ISIslide	Neutral	True
494.62	0.25	Control	0.6604000000000001	0.0	Yes	2.63	0.02	n/a	GoodResponse	0	n/a	n/a	4	52	Cue	Neutral	True
494.87	4.05	Control	0.6604000000000001	0.0	Yes	2.63	0.0	n/a	GoodResponse	0	n/a	n/a	4	52	Fixation	Neutral	True
498.918	0.4	Control	0.6604000000000001	0.002	Yes	2.63	-0.002	2.0	GoodResponse	0	0.208	498.126	4	52	Target	Neutral	True
499.126	0.3	Control	0.6604000000000001	0.002	Yes	2.63	-0.002	2.0	GoodResponse	0	0.208	n/a	4	52	ButtonPress	Neutral	True
499.318	0.3	Control	0.6604000000000001	n/a	Yes	2.63	n/a	n/a	GoodResponse	0	n/a	n/a	4	52	Blank	Neutral	True
499.618	1.45	Control	0.6604000000000001	n/a	Yes	2.63	n/a	5.0	GoodResponse	0	0.017	498.635	4	52	Feedback	Neutral	True
501.067	2.63	Control	0.6604000000000001	n/a	Yes	2.63	n/a	n/a	GoodResponse	0	0.0	n/a	4	52	ISIslide	Neutral	True
503.716	0.25	Win2	0.6667000000000001	0.001	Yes	2.934	0.016	n/a	GoodResponse	1	n/a	n/a	5	53	Cue	Win	True
503.966	4.05	Win2	0.6667000000000001	0.0	Yes	2.934	0.0	n/a	GoodResponse	1	n/a	n/a	5	53	Fixation	Win	True
508.015	0.4	Win2	0.6667000000000001	0.001	Yes	2.934	-0.001	2.0	GoodResponse	1	0.239	507.254	5	53	Target	Win	True
508.254	0.3	Win2	0.6667000000000001	0.001	Yes	2.934	-0.001	2.0	GoodResponse	1	0.239	n/a	5	53	ButtonPress	Win	True
508.415	0.3	Win2	0.6667000000000001	n/a	Yes	2.934	n/a	n/a	GoodResponse	1	n/a	n/a	5	53	Blank	Win	True
508.715	1.45	Win2	0.6667000000000001	n/a	Yes	2.934	n/a	5.0	GoodResponse	1	0.041	507.756	5	53	Feedback	Win	True
510.164	2.934	Win2	0.6667000000000001	n/a	Yes	2.934	n/a	n/a	GoodResponse	1	0.0	n/a	5	53	ISIslide	Win	True
513.113	0.25	Win2	0.6727	0.0	Yes	2.737	0.013	n/a	GoodResponse	1	n/a	n/a	6	54	Cue	Win	True
513.363	3.95	Win2	0.6727	0.0	Yes	2.737	0.0	n/a	GoodResponse	1	n/a	n/a	6	54	Fixation	Win	True
517.312	0.39	Win2	0.6727	0.001	Yes	2.737	-0.001	2.0	GoodResponse	1	0.244	516.556	6	54	Target	Win	True
517.556	0.3	Win2	0.6727	0.001	Yes	2.737	-0.001	2.0	GoodResponse	1	0.244	n/a	6	54	ButtonPress	Win	True
517.712	0.31	Win2	0.6727	n/a	Yes	2.737	n/a	n/a	GoodResponse	1	n/a	n/a	6	54	Blank	Win	True
518.012	1.45	Win2	0.6727	n/a	Yes	2.737	n/a	5.0	GoodResponse	1	0.013	517.025	6	54	Feedback	Win	True
519.461	2.737	Win2	0.6727	n/a	Yes	2.737	n/a	n/a	GoodResponse	1	0.0	n/a	6	54	ISIslide	Win	True
522.227	0.25	Control	0.6786	0.0	Yes	3.023	0.027	n/a	GoodResponse	0	n/a	n/a	6	55	Cue	Neutral	True
522.477	3.95	Control	0.6786	0.0	Yes	3.023	0.0	n/a	GoodResponse	0	n/a	n/a	6	55	Fixation	Neutral	True
526.425	0.38	Control	0.6786	0.002	Yes	3.023	-0.002	2.0	GoodResponse	0	0.298	525.723	6	55	Target	Neutral	True
526.723	0.3	Control	0.6786	0.002	Yes	3.023	-0.002	2.0	GoodResponse	0	0.298	n/a	6	55	ButtonPress	Neutral	True
526.808	0.32	Control	0.6786	n/a	Yes	3.023	n/a	n/a	GoodResponse	0	n/a	n/a	6	55	Blank	Neutral	True
527.125	1.45	Control	0.6786	n/a	Yes	3.023	n/a	5.0	GoodResponse	0	0.022	526.147	6	55	Feedback	Neutral	True
528.575	3.023	Control	0.6786	n/a	Yes	3.023	n/a	n/a	GoodResponse	0	0.0	n/a	6	55	ISIslide	Neutral	True
531.623	0.25	Control	0.6842	0.001	Yes	2.827	0.023	n/a	GoodResponse	0	n/a	n/a	6	56	Cue	Neutral	True
531.873	3.95	Control	0.6842	0.0	Yes	2.827	0.0	n/a	GoodResponse	0	n/a	n/a	6	56	Fixation	Neutral	True
535.822	0.37	Control	0.6842	0.001	Yes	2.827	-0.001	2.0	GoodResponse	0	0.177	534.999	6	56	Target	Neutral	True
535.999	0.3	Control	0.6842	0.001	Yes	2.827	-0.001	2.0	GoodResponse	0	0.177	n/a	6	56	ButtonPress	Neutral	True
536.189	0.33	Control	0.6842	n/a	Yes	2.827	n/a	n/a	GoodResponse	0	n/a	n/a	6	56	Blank	Neutral	True
536.522	1.45	Control	0.6842	n/a	Yes	2.827	n/a	5.0	GoodResponse	0	0.04	535.562	6	56	Feedback	Neutral	True
537.971	2.827	Control	0.6842	n/a	Yes	2.827	n/a	n/a	GoodResponse	0	0.0	n/a	6	56	ISIslide	Neutral	True
540.82	0.25	Control	0.6897	0.0	Yes	3.48	0.02	n/a	GoodResponse	0	n/a	n/a	6	57	Cue	Neutral	True
541.07	4.0	Control	0.6897	0.0	Yes	3.48	0.0	n/a	GoodResponse	0	n/a	n/a	6	57	Fixation	Neutral	True
545.069	0.36	Control	0.6897	0.001	Yes	3.48	-0.001	2.0	GoodResponse	0	0.302	544.371	6	57	Target	Neutral	True
545.371	0.3	Control	0.6897	0.001	Yes	3.48	-0.001	2.0	GoodResponse	0	0.302	n/a	6	57	ButtonPress	Neutral	True
545.435	0.34	Control	0.6897	n/a	Yes	3.48	n/a	n/a	GoodResponse	0	n/a	n/a	6	57	Blank	Neutral	True
545.769	1.45	Control	0.6897	n/a	Yes	3.48	n/a	5.0	GoodResponse	0	0.012	544.781	6	57	Feedback	Neutral	True
547.218	3.48	Control	0.6897	n/a	Yes	3.48	n/a	n/a	GoodResponse	0	0.0	n/a	6	57	ISIslide	Neutral	True
550.717	0.25	Win2	0.6949	0.0	Yes	2.733	0.017	n/a	GoodResponse	1	n/a	n/a	7	58	Cue	Win	True
550.967	4.05	Win2	0.6949	0.0	Yes	2.733	0.0	n/a	GoodResponse	1	n/a	n/a	7	58	Fixation	Win	True
555.015	0.35	Win2	0.6949	0.002	Yes	2.733	-0.002	2.0	GoodResponse	1	0.17	554.185	7	58	Target	Win	True
555.185	0.3	Win2	0.6949	0.002	Yes	2.733	-0.002	2.0	GoodResponse	1	0.17	n/a	7	58	ButtonPress	Win	True
555.365	0.35	Win2	0.6949	n/a	Yes	2.733	n/a	n/a	GoodResponse	1	n/a	n/a	7	58	Blank	Win	True
555.715	1.45	Win2	0.6949	n/a	Yes	2.733	n/a	5.0	GoodResponse	1	0.018	554.733	7	58	Feedback	Win	True
557.165	2.733	Win2	0.6949	n/a	Yes	2.733	n/a	n/a	GoodResponse	1	0.0	n/a	7	58	ISIslide	Win	True
559.93	0.25	Lose2	0.7	0.0	Yes	2.67	0.03	n/a	GoodResponse	0	n/a	n/a	7	59	Cue	AvoidedLoss	True
560.18	4.0	Lose2	0.7	0.0	Yes	2.67	0.0	n/a	GoodResponse	0	n/a	n/a	7	59	Fixation	AvoidedLoss	True
564.179	0.34	Lose2	0.7	0.001	Yes	2.67	-0.001	2.0	GoodResponse	0	0.207	563.386	7	59	Target	AvoidedLoss	True
564.386	0.3	Lose2	0.7	0.001	Yes	2.67	-0.001	2.0	GoodResponse	0	0.207	n/a	7	59	ButtonPress	AvoidedLoss	True
564.529	0.36	Lose2	0.7	n/a	Yes	2.67	n/a	n/a	GoodResponse	0	n/a	n/a	7	59	Blank	AvoidedLoss	True
564.879	1.45	Lose2	0.7	n/a	Yes	2.67	n/a	5.0	GoodResponse	0	0.024	563.903	7	59	Feedback	AvoidedLoss	True
566.328	2.67	Lose2	0.7	n/a	Yes	2.67	n/a	n/a	GoodResponse	0	0.0	n/a	7	59	ISIslide	AvoidedLoss	True
569.027	0.25	Control	0.7049	0.0	Yes	2.673	0.027	n/a	GoodResponse	0	n/a	n/a	7	60	Cue	Neutral	True
569.277	4.0	Control	0.7049	0.0	Yes	2.673	0.0	n/a	GoodResponse	0	n/a	n/a	7	60	Fixation	Neutral	True
573.276	0.33	Control	0.7049	0.001	Yes	2.673	-0.001	2.0	GoodResponse	0	0.274	572.55	7	60	Target	Neutral	True
573.55	0.3	Control	0.7049	0.001	Yes	2.673	-0.001	2.0	GoodResponse	0	0.274	n/a	7	60	ButtonPress	Neutral	True
573.609	0.37	Control	0.7049	n/a	Yes	2.673	n/a	n/a	GoodResponse	0	n/a	n/a	7	60	Blank	Neutral	True
573.975	1.45	Control	0.7049	n/a	Yes	2.673	n/a	5.0	GoodResponse	0	0.001	572.976	7	60	Feedback	Neutral	True
575.425	2.673	Control	0.7049	n/a	Yes	2.673	n/a	n/a	GoodResponse	0	0.0	n/a	7	60	ISIslide	Neutral	True
578.124	0.25	Lose2	0.7097	0.0	Yes	2.976	0.024	n/a	GoodResponse	0	n/a	n/a	7	61	Cue	AvoidedLoss	True
578.374	4.0	Lose2	0.7097	0.0	Yes	2.976	0.0	n/a	GoodResponse	0	n/a	n/a	7	61	Fixation	AvoidedLoss	True
582.373	0.32	Lose2	0.7097	0.001	Yes	2.976	-0.001	2.0	GoodResponse	0	0.195	581.568	7	61	Target	AvoidedLoss	True
582.568	0.3	Lose2	0.7097	0.001	Yes	2.976	-0.001	2.0	GoodResponse	0	0.195	n/a	7	61	ButtonPress	AvoidedLoss	True
582.706	0.38	Lose2	0.7097	n/a	Yes	2.976	n/a	n/a	GoodResponse	0	n/a	n/a	7	61	Blank	AvoidedLoss	True
583.072	1.45	Lose2	0.7097	n/a	Yes	2.976	n/a	5.0	GoodResponse	0	0.026	582.098	7	61	Feedback	AvoidedLoss	True
584.522	2.976	Lose2	0.7097	n/a	Yes	2.976	n/a	n/a	GoodResponse	0	0.0	n/a	7	61	ISIslide	AvoidedLoss	True
587.521	0.25	Lose2	0.7143	0.0	Yes	2.879	0.021	n/a	GoodResponse	0	n/a	n/a	7	62	Cue	AvoidedLoss	True
587.771	3.9	Lose2	0.7143	0.0	Yes	2.879	0.0	n/a	GoodResponse	0	n/a	n/a	7	62	Fixation	AvoidedLoss	True
591.669	0.31	Lose2	0.7143	0.002	Yes	2.879	-0.002	2.0	GoodResponse	0	0.186	590.855	7	62	Target	AvoidedLoss	True
591.855	0.3	Lose2	0.7143	0.002	Yes	2.879	-0.002	2.0	GoodResponse	0	0.186	n/a	7	62	ButtonPress	AvoidedLoss	True
591.986	0.39	Lose2	0.7143	n/a	Yes	2.879	n/a	n/a	GoodResponse	0	n/a	n/a	7	62	Blank	AvoidedLoss	True
592.369	1.45	Lose2	0.7143	n/a	Yes	2.879	n/a	5.0	GoodResponse	0	0.046	591.415	7	62	Feedback	AvoidedLoss	True
593.819	2.879	Lose2	0.7143	n/a	Yes	2.879	n/a	n/a	GoodResponse	0	0.0	n/a	7	62	ISIslide	AvoidedLoss	True
596.718	0.25	Lose2	0.7188	0.0	Yes	2.632	0.018	n/a	GoodResponse	0	n/a	n/a	7	63	Cue	AvoidedLoss	True
596.968	4.05	Lose2	0.7188	0.0	Yes	2.632	0.0	n/a	GoodResponse	0	n/a	n/a	7	63	Fixation	AvoidedLoss	True
601.016	0.3	Lose2	0.7188	0.002	Yes	2.632	-0.002	2.0	GoodResponse	0	0.237	600.253	7	63	Target	AvoidedLoss	True
601.253	0.3	Lose2	0.7188	0.002	Yes	2.632	-0.002	2.0	GoodResponse	0	0.237	n/a	7	63	ButtonPress	AvoidedLoss	True
601.316	0.4	Lose2	0.7188	n/a	Yes	2.632	n/a	n/a	GoodResponse	0	n/a	n/a	7	63	Blank	AvoidedLoss	True
601.716	1.45	Lose2	0.7188	n/a	Yes	2.632	n/a	5.0	GoodResponse	0	0.016	600.732	7	63	Feedback	AvoidedLoss	True
603.165	2.632	Lose2	0.7188	n/a	Yes	2.632	n/a	n/a	GoodResponse	0	0.0	n/a	7	63	ISIslide	AvoidedLoss	True
605.814	0.25	Win2	0.7231000000000001	0.001	Yes	3.136	0.014	n/a	GoodResponse	1	n/a	n/a	8	64	Cue	Win	True
606.064	4.15	Win2	0.7231000000000001	0.0	Yes	3.136	0.0	n/a	GoodResponse	1	n/a	n/a	8	64	Fixation	Win	True
610.213	0.29	Win2	0.7231000000000001	0.001	Yes	3.136	-0.001	2.0	GoodResponse	1	0.215	609.428	8	64	Target	Win	True
610.428	0.3	Win2	0.7231000000000001	0.001	Yes	3.136	-0.001	2.0	GoodResponse	1	0.215	n/a	8	64	ButtonPress	Win	True
610.513	0.41	Win2	0.7231000000000001	n/a	Yes	3.136	n/a	n/a	GoodResponse	1	n/a	n/a	8	64	Blank	Win	True
610.913	1.45	Win2	0.7231000000000001	n/a	Yes	3.136	n/a	5.0	GoodResponse	1	0.039	609.952	8	64	Feedback	Win	True
612.362	3.136	Win2	0.7231000000000001	n/a	Yes	3.136	n/a	n/a	GoodResponse	1	0.0	n/a	8	64	ISIslide	Win	True
615.528	0.25	Control	0.7273000000000001	0.0	Yes	2.772	0.028	n/a	GoodResponse	0	n/a	n/a	8	65	Cue	Neutral	True
615.778	4.0	Control	0.7273000000000001	0.0	Yes	2.772	0.0	n/a	GoodResponse	0	n/a	n/a	8	65	Fixation	Neutral	True
619.776	0.28	Control	0.7273000000000001	0.002	Yes	2.772	-0.002	2.0	GoodResponse	0	0.225	619.001	8	65	Target	Neutral	True
620.001	0.3	Control	0.7273000000000001	0.002	Yes	2.772	-0.002	2.0	GoodResponse	0	0.225	n/a	8	65	ButtonPress	Neutral	True
620.06	0.42	Control	0.7273000000000001	n/a	Yes	2.772	n/a	n/a	GoodResponse	0	n/a	n/a	8	65	Blank	Neutral	True
620.476	1.45	Control	0.7273000000000001	n/a	Yes	2.772	n/a	5.0	GoodResponse	0	0.037	619.513	8	65	Feedback	Neutral	True
621.926	2.772	Control	0.7273000000000001	n/a	Yes	2.772	n/a	n/a	GoodResponse	0	0.0	n/a	8	65	ISIslide	Neutral	True
624.725	0.25	Win2	0.7313	0.0	Yes	2.775	0.025	n/a	GoodResponse	1	n/a	n/a	9	66	Cue	Win	True
624.975	3.9	Win2	0.7313	0.0	Yes	2.775	0.0	n/a	GoodResponse	1	n/a	n/a	9	66	Fixation	Win	True
628.873	0.27	Win2	0.7313	0.002	Yes	2.775	-0.002	2.0	GoodResponse	1	0.207	628.08	9	66	Target	Win	True
629.08	0.3	Win2	0.7313	0.002	Yes	2.775	-0.002	2.0	GoodResponse	1	0.207	n/a	9	66	ButtonPress	Win	True
629.156	0.43	Win2	0.7313	n/a	Yes	2.775	n/a	n/a	GoodResponse	1	n/a	n/a	9	66	Blank	Win	True
629.573	1.45	Win2	0.7313	n/a	Yes	2.775	n/a	5.0	GoodResponse	1	0.012	628.585	9	66	Feedback	Win	True
631.022	2.775	Win2	0.7313	n/a	Yes	2.775	n/a	n/a	GoodResponse	1	0.0	n/a	9	66	ISIslide	Win	True
633.821	0.25	Control	0.7206	0.001	No	2.729	0.021	n/a	NoResponse	0	n/a	n/a	9	67	Cue	Neutral	False
634.071	3.95	Control	0.7206	0.0	No	2.729	0.0	n/a	NoResponse	0	n/a	n/a	9	67	Fixation	Neutral	False
638.02	0.26	Control	0.7206	0.001	No	2.729	-0.001	n/a	NoResponse	0	n/a	n/a	9	67	Target	Neutral	False
638.287	0.44	Control	0.7206	n/a	No	2.729	n/a	n/a	NoResponse	0	n/a	n/a	9	67	Blank	Neutral	False
638.72	1.45	Control	0.7206	n/a	No	2.729	n/a	5.0	NoResponse	0	0.036	637.756	9	67	Feedback	Neutral	False
640.169	2.729	Control	0.7206	n/a	No	2.729	n/a	n/a	NoResponse	0	0.0	n/a	9	67	ISIslide	Neutral	False
642.918	0.25	Win2	0.7245999999999999	0.0	Yes	3.082	0.018	n/a	GoodResponse	1	n/a	n/a	10	68	Cue	Win	True
643.168	4.0	Win2	0.7245999999999999	0.0	Yes	3.082	0.0	n/a	GoodResponse	1	n/a	n/a	10	68	Fixation	Win	True
647.167	0.25	Win2	0.7245999999999999	0.001	Yes	3.082	-0.001	2.0	GoodResponse	1	0.199	646.366	10	68	Target	Win	True
647.366	0.3	Win2	0.7245999999999999	0.001	Yes	3.082	-0.001	2.0	GoodResponse	1	0.199	n/a	10	68	ButtonPress	Win	True
647.417	0.45	Win2	0.7245999999999999	n/a	Yes	3.082	n/a	n/a	GoodResponse	1	n/a	n/a	10	68	Blank	Win	True
647.867	1.45	Win2	0.7245999999999999	n/a	Yes	3.082	n/a	5.0	GoodResponse	1	0.011	646.878	10	68	Feedback	Win	True
649.316	3.082	Win2	0.7245999999999999	n/a	Yes	3.082	n/a	n/a	GoodResponse	1	0.0	n/a	10	68	ISIslide	Win	True
652.415	0.25	Win2	0.7143	0.0	No	3.235	0.015	n/a	NoResponse	0	n/a	n/a	10	69	Cue	MissedWin	True
652.665	3.95	Win2	0.7143	0.0	No	3.235	0.0	n/a	NoResponse	0	n/a	n/a	10	69	Fixation	MissedWin	True
656.614	0.24	Win2	0.7143	0.001	No	3.235	-0.001	2.0	NoResponse	0	0.261	655.875	10	69	Target	MissedWin	True
656.864	0.46	Win2	0.7143	n/a	No	3.235	n/a	n/a	NoResponse	0	n/a	n/a	10	69	Blank	MissedWin	True
656.875	0.3	Win2	0.7143	0.001	No	3.235	-0.001	2.0	NoResponse	0	0.261	n/a	10	69	ButtonPress	MissedWin	True
657.313	1.45	Win2	0.7143	n/a	No	3.235	n/a	5.0	NoResponse	0	0.029	656.342	10	69	Feedback	MissedWin	True
658.763	3.235	Win2	0.7143	n/a	No	3.235	n/a	n/a	NoResponse	0	0.0	n/a	10	69	ISIslide	MissedWin	True
662.028	0.25	Lose2	0.7182999999999999	0.0	Yes	3.022	0.028	n/a	GoodResponse	0	n/a	n/a	10	70	Cue	AvoidedLoss	True
662.278	4.05	Lose2	0.7182999999999999	0.0	Yes	3.022	0.0	n/a	GoodResponse	0	n/a	n/a	10	70	Fixation	AvoidedLoss	True
666.327	0.23	Lose2	0.7182999999999999	0.001	Yes	3.022	-0.001	2.0	GoodResponse	0	0.211	665.538	10	70	Target	AvoidedLoss	True
666.538	0.3	Lose2	0.7182999999999999	0.001	Yes	3.022	-0.001	2.0	GoodResponse	0	0.211	n/a	10	70	ButtonPress	AvoidedLoss	True
666.56	0.47	Lose2	0.7182999999999999	n/a	Yes	3.022	n/a	n/a	GoodResponse	0	n/a	n/a	10	70	Blank	AvoidedLoss	True
667.027	1.45	Lose2	0.7182999999999999	n/a	Yes	3.022	n/a	5.0	GoodResponse	0	0.022	666.049	10	70	Feedback	AvoidedLoss	True
668.476	3.022	Lose2	0.7182999999999999	n/a	Yes	3.022	n/a	n/a	GoodResponse	0	0.0	n/a	10	70	ISIslide	AvoidedLoss	True
671.525	0.25	Win2	0.7222	0.0	Yes	2.725	0.025	n/a	GoodResponse	1	n/a	n/a	11	71	Cue	Win	True
671.775	4.05	Win2	0.7222	0.0	Yes	2.725	0.0	n/a	GoodResponse	1	n/a	n/a	11	71	Fixation	Win	True
675.824	0.22	Win2	0.7222	0.001	Yes	2.725	-0.001	2.0	GoodResponse	1	0.184	675.008	11	71	Target	Win	True
676.008	0.3	Win2	0.7222	0.001	Yes	2.725	-0.001	2.0	GoodResponse	1	0.184	n/a	11	71	ButtonPress	Win	True
676.057	0.48	Win2	0.7222	n/a	Yes	2.725	n/a	n/a	GoodResponse	1	n/a	n/a	11	71	Blank	Win	True
676.523	1.45	Win2	0.7222	n/a	Yes	2.725	n/a	5.0	GoodResponse	1	0.038	675.561	11	71	Feedback	Win	True
677.973	2.725	Win2	0.7222	n/a	Yes	2.725	n/a	n/a	GoodResponse	1	0.0	n/a	11	71	ISIslide	Win	True
680.722	0.25	Win2	0.726	0.0	Yes	2.778	0.022	n/a	GoodResponse	1	n/a	n/a	12	72	Cue	Win	True
680.972	4.1	Win2	0.726	0.0	Yes	2.778	0.0	n/a	GoodResponse	1	n/a	n/a	12	72	Fixation	Win	True
685.07	0.21	Win2	0.726	0.002	Yes	2.778	-0.002	2.0	GoodResponse	1	0.203	684.273	12	72	Target	Win	True
685.273	0.3	Win2	0.726	0.002	Yes	2.778	-0.002	2.0	GoodResponse	1	0.203	n/a	12	72	ButtonPress	Win	True
685.287	0.49	Win2	0.726	n/a	Yes	2.778	n/a	n/a	GoodResponse	1	n/a	n/a	12	72	Blank	Win	True
685.77	1.45	Win2	0.726	n/a	Yes	2.778	n/a	5.0	GoodResponse	1	0.011	684.781	12	72	Feedback	Win	True
687.22	2.778	Win2	0.726	n/a	Yes	2.778	n/a	n/a	GoodResponse	1	0.0	n/a	12	72	ISIslide	Win	True
690.019	0.25	Win2	0.7297	0.0	Yes	2.681	0.019	n/a	GoodResponse	1	n/a	n/a	13	73	Cue	Win	True
690.269	4.0	Win2	0.7297	0.0	Yes	2.681	0.0	n/a	GoodResponse	1	n/a	n/a	13	73	Fixation	Win	True
694.267	0.2	Win2	0.7297	0.002	Yes	2.681	-0.002	2.0	GoodResponse	1	0.198	693.465	13	73	Target	Win	True
694.465	0.3	Win2	0.7297	0.002	Yes	2.681	-0.002	2.0	GoodResponse	1	0.198	n/a	13	73	ButtonPress	Win	True
694.467	0.5	Win2	0.7297	n/a	Yes	2.681	n/a	n/a	GoodResponse	1	n/a	n/a	13	73	Blank	Win	True
694.967	1.45	Win2	0.7297	n/a	Yes	2.681	n/a	5.0	GoodResponse	1	0.033	694.0	13	73	Feedback	Win	True
696.416	2.681	Win2	0.7297	n/a	Yes	2.681	n/a	n/a	GoodResponse	1	0.0	n/a	13	73	ISIslide	Win	True
699.116	0.25	Lose2	0.72	0.0	No	2.634	0.016	n/a	LatePress	-1	n/a	n/a	12	74	Cue	Loss	True
699.365	4.05	Lose2	0.72	0.001	No	2.634	-0.001	n/a	LatePress	-1	n/a	n/a	12	74	Fixation	Loss	True
703.414	0.19	Lose2	0.72	0.002	No	2.634	-0.002	2.0	LatePress	-1	0.197	702.611	12	74	Target	Loss	True
703.611	0.3	Lose2	0.72	0.002	No	2.634	-0.002	2.0	LatePress	-1	0.197	n/a	12	74	ButtonPress	Loss	True
703.614	0.51	Lose2	0.72	n/a	No	2.634	n/a	n/a	LatePress	-1	n/a	n/a	12	74	Blank	Loss	True
704.114	1.45	Lose2	0.72	n/a	No	2.634	n/a	5.0	LatePress	-1	0.008	703.122	12	74	Feedback	Loss	True
705.563	2.634	Lose2	0.72	n/a	No	2.634	n/a	n/a	LatePress	-1	0.0	n/a	12	74	ISIslide	Loss	True
708.229	0.25	Lose2	0.7105	0.0	No	2.921	0.029	n/a	NoResponse	-1	n/a	n/a	11	75	Cue	Loss	True
708.479	3.95	Lose2	0.7105	0.0	No	2.921	0.0	n/a	NoResponse	-1	n/a	n/a	11	75	Fixation	Loss	True
712.428	0.18	Lose2	0.7105	0.001	No	2.921	-0.001	2.0	NoResponse	-1	0.209	711.637	11	75	Target	Loss	True
712.611	0.52	Lose2	0.7105	n/a	No	2.921	n/a	n/a	NoResponse	-1	n/a	n/a	11	75	Blank	Loss	True
712.637	0.3	Lose2	0.7105	0.001	No	2.921	-0.001	2.0	NoResponse	-1	0.209	n/a	11	75	ButtonPress	Loss	True
713.127	1.45	Lose2	0.7105	n/a	No	2.921	n/a	5.0	NoResponse	-1	0.019	712.146	11	75	Feedback	Loss	True
714.577	2.921	Lose2	0.7105	n/a	No	2.921	n/a	n/a	NoResponse	-1	0.0	n/a	11	75	ISIslide	Loss	True
717.526	0.25	Control	0.7012999999999999	0.0	No	3.224	0.026	n/a	NoResponse	0	n/a	n/a	11	76	Cue	Neutral	True
717.776	4.05	Control	0.7012999999999999	0.0	No	3.224	0.0	2.0	NoResponse	0	3.585	720.361	11	76	Fixation	Neutral	True
721.361	0.3	Control	0.7012999999999999	0.0	No	3.224	0.0	2.0	NoResponse	0	3.585	n/a	11	76	ButtonPress	Neutral	True
721.824	0.17	Control	0.7012999999999999	0.002	No	3.224	-0.002	n/a	NoResponse	0	n/a	n/a	11	76	Target	Neutral	True
722.008	0.53	Control	0.7012999999999999	n/a	No	3.224	n/a	n/a	NoResponse	0	n/a	n/a	11	76	Blank	Neutral	True
722.524	1.45	Control	0.7012999999999999	n/a	No	3.224	n/a	5.0	NoResponse	0	0.037	721.561	11	76	Feedback	Neutral	True
723.974	3.224	Control	0.7012999999999999	n/a	No	3.224	n/a	n/a	NoResponse	0	0.0	n/a	11	76	ISIslide	Neutral	True
727.223	0.25	Lose2	0.6923	0.0	No	2.577	0.023	n/a	NoResponse	-1	n/a	n/a	10	77	Cue	Loss	True
727.472	3.95	Lose2	0.6923	0.001	No	2.577	-0.001	n/a	NoResponse	-1	n/a	n/a	10	77	Fixation	Loss	True
731.421	0.16	Lose2	0.6923	0.002	No	2.577	-0.002	2.0	NoResponse	-1	0.228	730.649	10	77	Target	Loss	True
731.588	0.54	Lose2	0.6923	n/a	No	2.577	n/a	n/a	NoResponse	-1	n/a	n/a	10	77	Blank	Loss	True
731.649	0.3	Lose2	0.6923	0.002	No	2.577	-0.002	2.0	NoResponse	-1	0.228	n/a	10	77	ButtonPress	Loss	True
732.121	1.45	Lose2	0.6923	n/a	No	2.577	n/a	5.0	NoResponse	-1	0.001	731.122	10	77	Feedback	Loss	True
733.57	2.577	Lose2	0.6923	n/a	No	2.577	n/a	n/a	NoResponse	-1	0.0	n/a	10	77	ISIslide	Loss	True
