onset	duration	cue_type	current_mean_accuracy	duration_error	is_hit	isi_adjusted	onset_delay	response	response_type	reward	rt	rt_time	total_reward	trial_number	trial_phase	trial_type	one_press
11.099	0.25	Control	1.0	0.0	Yes	2.951	-0.001	n/a	GoodResponse	0	n/a	n/a	0	0	Cue	Neutral	True
11.348	3.85	Control	1.0	0.001	Yes	2.951	-0.001	n/a	GoodResponse	0	n/a	n/a	0	0	Fixation	Neutral	True
15.197	0.4	Control	1.0	0.002	Yes	2.951	-0.002	3.0	GoodResponse	0	0.184	14.381	0	0	Target	Neutral	True
15.381	0.3	Control	1.0	0.002	Yes	2.951	-0.002	3.0	GoodResponse	0	0.184	n/a	0	0	ButtonPress	Neutral	True
15.597	0.3	Control	1.0	n/a	Yes	2.951	n/a	n/a	GoodResponse	0	n/a	n/a	0	0	Blank	Neutral	True
15.897	1.45	Control	1.0	n/a	Yes	2.951	n/a	5.0	GoodResponse	0	0.031	14.928	0	0	Feedback	Neutral	True
17.346	2.951	Control	1.0	n/a	Yes	2.951	n/a	n/a	GoodResponse	0	0.0	n/a	0	0	ISIslide	Neutral	True
20.329	0.25	Lose2	1.0	0.0	Yes	2.771	0.029	n/a	GoodResponse	0	n/a	n/a	0	1	Cue	AvoidedLoss	True
20.579	4.0	Lose2	1.0	0.0	Yes	2.771	0.0	n/a	GoodResponse	0	n/a	n/a	0	1	Fixation	AvoidedLoss	True
24.577	0.39	Lose2	1.0	0.002	Yes	2.771	-0.002	3.0	GoodResponse	0	0.195	23.772	0	1	Target	AvoidedLoss	True
24.772	0.3	Lose2	1.0	0.002	Yes	2.771	-0.002	3.0	GoodResponse	0	0.195	n/a	0	1	ButtonPress	AvoidedLoss	True
24.977	0.31	Lose2	1.0	n/a	Yes	2.771	n/a	n/a	GoodResponse	0	n/a	n/a	0	1	Blank	AvoidedLoss	True
25.277	1.45	Lose2	1.0	n/a	Yes	2.771	n/a	5.0	GoodResponse	0	0.017	24.294	0	1	Feedback	AvoidedLoss	True
26.726	2.771	Lose2	1.0	n/a	Yes	2.771	n/a	n/a	GoodResponse	0	0.0	n/a	0	1	ISIslide	AvoidedLoss	True
29.525	0.25	Control	1.0	0.001	Yes	2.575	0.025	n/a	GoodResponse	0	n/a	n/a	0	2	Cue	Neutral	True
29.775	4.1	Control	1.0	0.0	Yes	2.575	0.0	n/a	GoodResponse	0	n/a	n/a	0	2	Fixation	Neutral	True
33.874	0.38	Control	1.0	0.001	Yes	2.575	-0.001	3.0	GoodResponse	0	0.188	33.062	0	2	Target	Neutral	True
34.062	0.3	Control	1.0	0.001	Yes	2.575	-0.001	3.0	GoodResponse	0	0.188	n/a	0	2	ButtonPress	Neutral	True
34.257	0.32	Control	1.0	n/a	Yes	2.575	n/a	n/a	GoodResponse	0	n/a	n/a	0	2	Blank	Neutral	True
34.574	1.45	Control	1.0	n/a	Yes	2.575	n/a	5.0	GoodResponse	0	0.037	33.611	0	2	Feedback	Neutral	True
36.023	2.575	Control	1.0	n/a	Yes	2.575	n/a	n/a	GoodResponse	0	0.0	n/a	0	2	ISIslide	Neutral	True
38.622	0.25	Win2	1.0	0.0	Yes	2.828	0.022	n/a	GoodResponse	1	n/a	n/a	1	3	Cue	Win	True
38.872	3.95	Win2	1.0	0.0	Yes	2.828	0.0	n/a	GoodResponse	1	n/a	n/a	1	3	Fixation	Win	True
42.821	0.37	Win2	1.0	0.001	Yes	2.828	-0.001	3.0	GoodResponse	1	0.172	41.993	1	3	Target	Win	True
42.993	0.3	Win2	1.0	0.001	Yes	2.828	-0.001	3.0	GoodResponse	1	0.172	n/a	1	3	ButtonPress	Win	True
43.204	0.33	Win2	1.0	n/a	Yes	2.828	n/a	n/a	GoodResponse	1	n/a	n/a	1	3	Blank	Win	True
43.521	1.45	Win2	1.0	n/a	Yes	2.828	n/a	5.0	GoodResponse	1	0.017	42.538	1	3	Feedback	Win	True
44.97	2.828	Win2	1.0	n/a	Yes	2.828	n/a	n/a	GoodResponse	1	0.0	n/a	1	3	ISIslide	Win	True
47.819	0.25	Win2	1.0	0.0	Yes	3.281	0.019	n/a	GoodResponse	1	n/a	n/a	2	4	Cue	Win	True
48.069	4.0	Win2	1.0	0.0	Yes	3.281	0.0	n/a	GoodResponse	1	n/a	n/a	2	4	Fixation	Win	True
52.068	0.36	Win2	1.0	0.001	Yes	3.281	-0.001	3.0	GoodResponse	1	0.222	51.29	2	4	Target	Win	True
52.29	0.3	Win2	1.0	0.001	Yes	3.281	-0.001	3.0	GoodResponse	1	0.222	n/a	2	4	ButtonPress	Win	True
52.434	0.34	Win2	1.0	n/a	Yes	3.281	n/a	n/a	GoodResponse	1	n/a	n/a	2	4	Blank	Win	True
52.767	1.45	Win2	1.0	n/a	Yes	3.281	n/a	5.0	GoodResponse	1	0.039	51.806	2	4	Feedback	Win	True
54.217	3.281	Win2	1.0	n/a	Yes	3.281	n/a	n/a	GoodResponse	1	0.0	n/a	2	4	ISIslide	Win	True
57.516	0.25	Win2	1.0	0.0	Yes	2.784	0.016	n/a	GoodResponse	1	n/a	n/a	3	5	Cue	Win	True
57.766	4.0	Win2	1.0	0.0	Yes	2.784	0.0	n/a	GoodResponse	1	n/a	n/a	3	5	Fixation	Win	True
61.764	0.35	Win2	1.0	0.002	Yes	2.784	-0.002	3.0	GoodResponse	1	0.172	60.936	3	5	Target	Win	True
61.936	0.3	Win2	1.0	0.002	Yes	2.784	-0.002	3.0	GoodResponse	1	0.172	n/a	3	5	ButtonPress	Win	True
62.114	0.35	Win2	1.0	n/a	Yes	2.784	n/a	n/a	GoodResponse	1	n/a	n/a	3	5	Blank	Win	True
62.464	1.45	Win2	1.0	n/a	Yes	2.784	n/a	5.0	GoodResponse	1	0.0	61.464	3	5	Feedback	Win	True
63.913	2.784	Win2	1.0	n/a	Yes	2.784	n/a	n/a	GoodResponse	1	0.0	n/a	3	5	ISIslide	Win	True
66.712	0.25	Lose2	1.0	0.001	Yes	2.738	0.012	n/a	GoodResponse	0	n/a	n/a	3	6	Cue	AvoidedLoss	True
66.962	3.95	Lose2	1.0	0.0	Yes	2.738	0.0	n/a	GoodResponse	0	n/a	n/a	3	6	Fixation	AvoidedLoss	True
70.911	0.34	Lose2	1.0	0.001	Yes	2.738	-0.001	3.0	GoodResponse	0	0.178	70.089	3	6	Target	AvoidedLoss	True
71.089	0.3	Lose2	1.0	0.001	Yes	2.738	-0.001	3.0	GoodResponse	0	0.178	n/a	3	6	ButtonPress	AvoidedLoss	True
71.261	0.36	Lose2	1.0	n/a	Yes	2.738	n/a	n/a	GoodResponse	0	n/a	n/a	3	6	Blank	AvoidedLoss	True
71.611	1.45	Lose2	1.0	n/a	Yes	2.738	n/a	5.0	GoodResponse	0	0.024	70.635	3	6	Feedback	AvoidedLoss	True
73.06	2.738	Lose2	1.0	n/a	Yes	2.738	n/a	n/a	GoodResponse	0	0.0	n/a	3	6	ISIslide	AvoidedLoss	True
75.826	0.25	Lose2	1.0	0.0	Yes	4.024	0.026	n/a	GoodResponse	0	n/a	n/a	3	7	Cue	AvoidedLoss	True
76.076	4.05	Lose2	1.0	0.0	Yes	4.024	0.0	n/a	GoodResponse	0	n/a	n/a	3	7	Fixation	AvoidedLoss	True
80.124	0.33	Lose2	1.0	0.002	Yes	4.024	-0.002	3.0	GoodResponse	0	0.193	79.317	3	7	Target	AvoidedLoss	True
80.317	0.3	Lose2	1.0	0.002	Yes	4.024	-0.002	3.0	GoodResponse	0	0.193	n/a	3	7	ButtonPress	AvoidedLoss	True
80.458	0.37	Lose2	1.0	n/a	Yes	4.024	n/a	n/a	GoodResponse	0	n/a	n/a	3	7	Blank	AvoidedLoss	True
80.824	1.45	Lose2	1.0	n/a	Yes	4.024	n/a	5.0	GoodResponse	0	0.031	79.855	3	7	Feedback	AvoidedLoss	True
82.274	4.024	Lose2	1.0	n/a	Yes	4.024	n/a	n/a	GoodResponse	0	0.0	n/a	3	7	ISIslide	AvoidedLoss	True
86.322	0.25	Lose2	1.0	0.0	Yes	3.028	0.022	n/a	GoodResponse	0	n/a	n/a	3	8	Cue	AvoidedLoss	True
86.572	3.95	Lose2	1.0	0.0	Yes	3.028	0.0	n/a	GoodResponse	0	n/a	n/a	3	8	Fixation	AvoidedLoss	True
90.521	0.32	Lose2	1.0	0.001	Yes	3.028	-0.001	3.0	GoodResponse	0	0.221	89.742	3	8	Target	AvoidedLoss	True
90.742	0.3	Lose2	1.0	0.001	Yes	3.028	-0.001	3.0	GoodResponse	0	0.221	n/a	3	8	ButtonPress	AvoidedLoss	True
90.837	0.38	Lose2	1.0	n/a	Yes	3.028	n/a	n/a	GoodResponse	0	n/a	n/a	3	8	Blank	AvoidedLoss	True
91.221	1.45	Lose2	1.0	n/a	Yes	3.028	n/a	5.0	GoodResponse	0	0.024	90.245	3	8	Feedback	AvoidedLoss	True
92.67	3.028	Lose2	1.0	n/a	Yes	3.028	n/a	n/a	GoodResponse	0	0.0	n/a	3	8	ISIslide	AvoidedLoss	True
95.719	0.25	Lose2	1.0	0.0	Yes	3.131	0.019	n/a	GoodResponse	0	n/a	n/a	3	9	Cue	AvoidedLoss	True
95.969	3.95	Lose2	1.0	0.0	Yes	3.131	0.0	n/a	GoodResponse	0	n/a	n/a	3	9	Fixation	AvoidedLoss	True
99.918	0.31	Lose2	1.0	0.001	Yes	3.131	-0.001	3.0	GoodResponse	0	0.194	99.112	3	9	Target	AvoidedLoss	True
100.112	0.3	Lose2	1.0	0.001	Yes	3.131	-0.001	3.0	GoodResponse	0	0.194	n/a	3	9	ButtonPress	AvoidedLoss	True
100.234	0.39	Lose2	1.0	n/a	Yes	3.131	n/a	n/a	GoodResponse	0	n/a	n/a	3	9	Blank	AvoidedLoss	True
100.617	1.45	Lose2	1.0	n/a	Yes	3.131	n/a	5.0	GoodResponse	0	0.043	99.66	3	9	Feedback	AvoidedLoss	True
102.067	3.131	Lose2	1.0	n/a	Yes	3.131	n/a	n/a	GoodResponse	0	0.0	n/a	3	9	ISIslide	AvoidedLoss	True
105.216	0.25	Control	0.9091	0.0	No	3.284	0.016	n/a	PrematurePress	0	n/a	n/a	3	10	Cue	Neutral	True
105.466	4.0	Control	0.9091	0.0	No	3.284	0.0	n/a	PrematurePress	0	n/a	n/a	3	10	Fixation	Neutral	True
109.464	0.3	Control	0.9091	0.002	No	3.284	-0.002	3.0	PrematurePress	0	0.055	108.519	3	10	Target	Neutral	True
109.519	0.3	Control	0.9091	0.002	No	3.284	-0.002	3.0	PrematurePress	0	0.055	n/a	3	10	ButtonPress	Neutral	True
109.764	0.4	Control	0.9091	n/a	No	3.284	n/a	n/a	PrematurePress	0	n/a	n/a	3	10	Blank	Neutral	True
110.164	1.45	Control	0.9091	n/a	No	3.284	n/a	5.0	PrematurePress	0	0.007	109.171	3	10	Feedback	Neutral	True
111.613	3.284	Control	0.9091	n/a	No	3.284	n/a	n/a	PrematurePress	0	0.0	n/a	3	10	ISIslide	Neutral	True
114.929	0.25	Lose2	0.9167000000000001	0.0	Yes	2.721	0.029	n/a	GoodResponse	0	n/a	n/a	3	11	Cue	AvoidedLoss	True
115.179	4.05	Lose2	0.9167000000000001	0.0	Yes	2.721	0.0	n/a	GoodResponse	0	n/a	n/a	3	11	Fixation	AvoidedLoss	True
119.227	0.29	Lose2	0.9167000000000001	0.002	Yes	2.721	-0.002	3.0	GoodResponse	0	0.208	118.435	3	11	Target	AvoidedLoss	True
119.435	0.3	Lose2	0.9167000000000001	0.002	Yes	2.721	-0.002	3.0	GoodResponse	0	0.208	n/a	3	11	ButtonPress	AvoidedLoss	True
119.527	0.41	Lose2	0.9167000000000001	n/a	Yes	2.721	n/a	n/a	GoodResponse	0	n/a	n/a	3	11	Blank	AvoidedLoss	True
119.927	1.45	Lose2	0.9167000000000001	n/a	Yes	2.721	n/a	5.0	GoodResponse	0	0.001	118.928	3	11	Feedback	AvoidedLoss	True
121.377	2.721	Lose2	0.9167000000000001	n/a	Yes	2.721	n/a	n/a	GoodResponse	0	0.0	n/a	3	11	ISIslide	AvoidedLoss	True
124.126	0.25	Control	0.9231	0.0	Yes	2.974	0.026	n/a	GoodResponse	0	n/a	n/a	3	12	Cue	Neutral	True
124.376	3.9	Control	0.9231	0.0	Yes	2.974	0.0	n/a	GoodResponse	0	n/a	n/a	3	12	Fixation	Neutral	True
128.274	0.28	Control	0.9231	0.002	Yes	2.974	-0.002	3.0	GoodResponse	0	0.201	127.475	3	12	Target	Neutral	True
128.475	0.3	Control	0.9231	0.002	Yes	2.974	-0.002	3.0	GoodResponse	0	0.201	n/a	3	12	ButtonPress	Neutral	True
128.558	0.42	Control	0.9231	n/a	Yes	2.974	n/a	n/a	GoodResponse	0	n/a	n/a	3	12	Blank	Neutral	True
128.974	1.45	Control	0.9231	n/a	Yes	2.974	n/a	5.0	GoodResponse	0	0.027	128.001	3	12	Feedback	Neutral	True
130.424	2.974	Control	0.9231	n/a	Yes	2.974	n/a	n/a	GoodResponse	0	0.0	n/a	3	12	ISIslide	Neutral	True
133.423	0.25	Control	0.9286	0.0	Yes	2.777	0.023	n/a	GoodResponse	0	n/a	n/a	3	13	Cue	Neutral	True
133.672	4.0	Control	0.9286	0.001	Yes	2.777	-0.001	n/a	GoodResponse	0	n/a	n/a	3	13	Fixation	Neutral	True
137.671	0.27	Control	0.9286	0.002	Yes	2.777	-0.002	3.0	GoodResponse	0	0.19	136.861	3	13	Target	Neutral	True
137.861	0.3	Control	0.9286	0.002	Yes	2.777	-0.002	3.0	GoodResponse	0	0.19	n/a	3	13	ButtonPress	Neutral	True
137.954	0.43	Control	0.9286	n/a	Yes	2.777	n/a	n/a	GoodResponse	0	n/a	n/a	3	13	Blank	Neutral	True
138.371	1.45	Control	0.9286	n/a	Yes	2.777	n/a	5.0	GoodResponse	0	0.045	137.416	3	13	Feedback	Neutral	True
139.82	2.777	Control	0.9286	n/a	Yes	2.777	n/a	n/a	GoodResponse	0	0.0	n/a	3	13	ISIslide	Neutral	True
142.619	0.25	Win2	0.9333	0.0	Yes	2.681	0.019	n/a	GoodResponse	1	n/a	n/a	4	14	Cue	Win	True
142.869	4.1	Win2	0.9333	0.0	Yes	2.681	0.0	n/a	GoodResponse	1	n/a	n/a	4	14	Fixation	Win	True
146.968	0.26	Win2	0.9333	0.001	Yes	2.681	-0.001	3.0	GoodResponse	1	0.172	146.14	4	14	Target	Win	True
147.14	0.3	Win2	0.9333	0.001	Yes	2.681	-0.001	3.0	GoodResponse	1	0.172	n/a	4	14	ButtonPress	Win	True
147.234	0.44	Win2	0.9333	n/a	Yes	2.681	n/a	n/a	GoodResponse	1	n/a	n/a	4	14	Blank	Win	True
147.668	1.45	Win2	0.9333	n/a	Yes	2.681	n/a	5.0	GoodResponse	1	0.016	146.684	4	14	Feedback	Win	True
149.117	2.681	Win2	0.9333	n/a	Yes	2.681	n/a	n/a	GoodResponse	1	0.0	n/a	4	14	ISIslide	Win	True
151.816	0.25	Control	0.9375	0.0	Yes	2.984	0.016	n/a	GoodResponse	0	n/a	n/a	4	15	Cue	Neutral	True
152.066	4.0	Control	0.9375	0.0	Yes	2.984	0.0	n/a	GoodResponse	0	n/a	n/a	4	15	Fixation	Neutral	True
156.065	0.25	Control	0.9375	0.001	Yes	2.984	-0.001	3.0	GoodResponse	0	0.197	155.262	4	15	Target	Neutral	True
156.262	0.3	Control	0.9375	0.001	Yes	2.984	-0.001	3.0	GoodResponse	0	0.197	n/a	4	15	ButtonPress	Neutral	True
156.315	0.45	Control	0.9375	n/a	Yes	2.984	n/a	n/a	GoodResponse	0	n/a	n/a	4	15	Blank	Neutral	True
156.764	1.45	Control	0.9375	n/a	Yes	2.984	n/a	5.0	GoodResponse	0	0.041	155.805	4	15	Feedback	Neutral	True
158.214	2.984	Control	0.9375	n/a	Yes	2.984	n/a	n/a	GoodResponse	0	0.0	n/a	4	15	ISIslide	Neutral	True
161.229	0.25	Win2	0.9412	0.001	Yes	2.871	0.029	n/a	GoodResponse	1	n/a	n/a	5	16	Cue	Win	True
161.479	4.0	Win2	0.9412	0.0	Yes	2.871	0.0	n/a	GoodResponse	1	n/a	n/a	5	16	Fixation	Win	True
165.478	0.24	Win2	0.9412	0.001	Yes	2.871	-0.001	3.0	GoodResponse	1	0.201	164.679	5	16	Target	Win	True
165.679	0.3	Win2	0.9412	0.001	Yes	2.871	-0.001	3.0	GoodResponse	1	0.201	n/a	5	16	ButtonPress	Win	True
165.728	0.46	Win2	0.9412	n/a	Yes	2.871	n/a	n/a	GoodResponse	1	n/a	n/a	5	16	Blank	Win	True
166.178	1.45	Win2	0.9412	n/a	Yes	2.871	n/a	5.0	GoodResponse	1	0.042	165.22	5	16	Feedback	Win	True
167.627	2.871	Win2	0.9412	n/a	Yes	2.871	n/a	n/a	GoodResponse	1	0.0	n/a	5	16	ISIslide	Win	True
170.526	0.25	Lose2	0.9444	0.0	Yes	2.724	0.026	n/a	GoodResponse	0	n/a	n/a	5	17	Cue	AvoidedLoss	True
170.776	3.95	Lose2	0.9444	0.0	Yes	2.724	0.0	n/a	GoodResponse	0	n/a	n/a	5	17	Fixation	AvoidedLoss	True
174.725	0.23	Lose2	0.9444	0.001	Yes	2.724	-0.001	3.0	GoodResponse	0	0.199	173.924	5	17	Target	AvoidedLoss	True
174.924	0.3	Lose2	0.9444	0.001	Yes	2.724	-0.001	3.0	GoodResponse	0	0.199	n/a	5	17	ButtonPress	AvoidedLoss	True
174.958	0.47	Lose2	0.9444	n/a	Yes	2.724	n/a	n/a	GoodResponse	0	n/a	n/a	5	17	Blank	AvoidedLoss	True
175.425	1.45	Lose2	0.9444	n/a	Yes	2.724	n/a	5.0	GoodResponse	0	0.015	174.44	5	17	Feedback	AvoidedLoss	True
176.874	2.724	Lose2	0.9444	n/a	Yes	2.724	n/a	n/a	GoodResponse	0	0.0	n/a	5	17	ISIslide	AvoidedLoss	True
179.623	0.25	Lose2	0.9473999999999999	0.0	Yes	2.727	0.023	n/a	GoodResponse	0	n/a	n/a	5	18	Cue	AvoidedLoss	True
179.873	4.05	Lose2	0.9473999999999999	0.0	Yes	2.727	0.0	n/a	GoodResponse	0	n/a	n/a	5	18	Fixation	AvoidedLoss	True
183.922	0.22	Lose2	0.9473999999999999	0.001	Yes	2.727	-0.001	3.0	GoodResponse	0	0.192	183.114	5	18	Target	AvoidedLoss	True
184.114	0.3	Lose2	0.9473999999999999	0.001	Yes	2.727	-0.001	3.0	GoodResponse	0	0.192	n/a	5	18	ButtonPress	AvoidedLoss	True
184.155	0.48	Lose2	0.9473999999999999	n/a	Yes	2.727	n/a	n/a	GoodResponse	0	n/a	n/a	5	18	Blank	AvoidedLoss	True
184.621	1.45	Lose2	0.9473999999999999	n/a	Yes	2.727	n/a	5.0	GoodResponse	0	0.038	183.659	5	18	Feedback	AvoidedLoss	True
186.071	2.727	Lose2	0.9473999999999999	n/a	Yes	2.727	n/a	n/a	GoodResponse	0	0.0	n/a	5	18	ISIslide	AvoidedLoss	True
188.82	0.25	Control	0.9	0.0	No	2.93	0.02	n/a	NoResponse	0	n/a	n/a	5	19	Cue	Neutral	True
189.07	3.95	Control	0.9	0.0	No	2.93	0.0	n/a	NoResponse	0	n/a	n/a	5	19	Fixation	Neutral	True
193.018	0.21	Control	0.9	0.002	No	2.93	-0.002	3.0	NoResponse	0	0.234	192.252	5	19	Target	Neutral	True
193.235	0.49	Control	0.9	n/a	No	2.93	n/a	n/a	NoResponse	0	n/a	n/a	5	19	Blank	Neutral	True
193.252	0.3	Control	0.9	0.002	No	2.93	-0.002	3.0	NoResponse	0	0.234	n/a	5	19	ButtonPress	Neutral	True
193.718	1.45	Control	0.9	n/a	No	2.93	n/a	5.0	NoResponse	0	0.014	192.732	5	19	Feedback	Neutral	True
195.168	2.93	Control	0.9	n/a	No	2.93	n/a	n/a	NoResponse	0	0.0	n/a	5	19	ISIslide	Neutral	True
198.117	0.25	Control	0.9048	0.0	Yes	2.633	0.017	n/a	GoodResponse	0	n/a	n/a	5	20	Cue	Neutral	True
198.367	4.05	Control	0.9048	0.0	Yes	2.633	0.0	n/a	GoodResponse	0	n/a	n/a	5	20	Fixation	Neutral	True
202.415	0.2	Control	0.9048	0.002	Yes	2.633	-0.002	3.0	GoodResponse	0	0.167	201.582	5	20	Target	Neutral	True
202.582	0.3	Control	0.9048	0.002	Yes	2.633	-0.002	3.0	GoodResponse	0	0.167	n/a	5	20	ButtonPress	Neutral	True
202.615	0.5	Control	0.9048	n/a	Yes	2.633	n/a	n/a	GoodResponse	0	n/a	n/a	5	20	Blank	Neutral	True
203.115	1.45	Control	0.9048	n/a	Yes	2.633	n/a	5.0	GoodResponse	0	0.031	202.146	5	20	Feedback	Neutral	True
204.564	2.633	Control	0.9048	n/a	Yes	2.633	n/a	n/a	GoodResponse	0	0.0	n/a	5	20	ISIslide	Neutral	True
207.213	0.25	Control	0.8636	0.001	No	2.787	0.013	n/a	LatePress	0	n/a	n/a	5	21	Cue	Neutral	True
207.463	4.1	Control	0.8636	0.0	No	2.787	0.0	n/a	LatePress	0	n/a	n/a	5	21	Fixation	Neutral	True
211.562	0.19	Control	0.8636	0.001	No	2.787	-0.001	3.0	LatePress	0	0.197	210.759	5	21	Target	Neutral	True
211.759	0.3	Control	0.8636	0.001	No	2.787	-0.001	3.0	LatePress	0	0.197	n/a	5	21	ButtonPress	Neutral	True
211.762	0.51	Control	0.8636	n/a	No	2.787	n/a	n/a	LatePress	0	n/a	n/a	5	21	Blank	Neutral	True
212.262	1.45	Control	0.8636	n/a	No	2.787	n/a	5.0	LatePress	0	0.007	211.269	5	21	Feedback	Neutral	True
213.711	2.787	Control	0.8636	n/a	No	2.787	n/a	n/a	LatePress	0	0.0	n/a	5	21	ISIslide	Neutral	True
216.527	0.25	Control	0.8695999999999999	0.0	Yes	2.773	0.027	n/a	GoodResponse	0	n/a	n/a	5	22	Cue	Neutral	True
216.777	4.0	Control	0.8695999999999999	0.0	Yes	2.773	0.0	n/a	GoodResponse	0	n/a	n/a	5	22	Fixation	Neutral	True
220.775	0.18	Control	0.8695999999999999	0.002	Yes	2.773	-0.002	3.0	GoodResponse	0	0.175	219.95	5	22	Target	Neutral	True
220.95	0.3	Control	0.8695999999999999	0.002	Yes	2.773	-0.002	3.0	GoodResponse	0	0.175	n/a	5	22	ButtonPress	Neutral	True
220.959	0.52	Control	0.8695999999999999	n/a	Yes	2.773	n/a	n/a	GoodResponse	0	n/a	n/a	5	22	Blank	Neutral	True
221.475	1.45	Control	0.8695999999999999	n/a	Yes	2.773	n/a	5.0	GoodResponse	0	0.013	220.488	5	22	Feedback	Neutral	True
222.925	2.773	Control	0.8695999999999999	n/a	Yes	2.773	n/a	n/a	GoodResponse	0	0.0	n/a	5	22	ISIslide	Neutral	True
225.724	0.25	Control	0.875	0.0	Yes	2.776	0.024	n/a	GoodResponse	0	n/a	n/a	5	23	Cue	Neutral	True
225.974	3.9	Control	0.875	0.0	Yes	2.776	0.0	n/a	GoodResponse	0	n/a	n/a	5	23	Fixation	Neutral	True
229.872	0.17	Control	0.875	0.002	Yes	2.776	-0.002	3.0	GoodResponse	0	0.105	228.977	5	23	Target	Neutral	True
229.977	0.3	Control	0.875	0.002	Yes	2.776	-0.002	3.0	GoodResponse	0	0.105	n/a	5	23	ButtonPress	Neutral	True
230.055	0.53	Control	0.875	n/a	Yes	2.776	n/a	n/a	GoodResponse	0	n/a	n/a	5	23	Blank	Neutral	True
230.572	1.45	Control	0.875	n/a	Yes	2.776	n/a	5.0	GoodResponse	0	0.038	229.61	5	23	Feedback	Neutral	True
232.021	2.776	Control	0.875	n/a	Yes	2.776	n/a	n/a	GoodResponse	0	0.0	n/a	5	23	ISIslide	Neutral	True
234.82	0.25	Win2	0.84	0.001	No	3.13	0.02	n/a	NoResponse	0	n/a	n/a	5	24	Cue	MissedWin	True
235.07	3.95	Win2	0.84	0.001	No	3.13	0.0	n/a	NoResponse	0	n/a	n/a	5	24	Fixation	MissedWin	True
239.019	0.16	Win2	0.84	0.001	No	3.13	-0.001	3.0	NoResponse	0	0.194	238.213	5	24	Target	MissedWin	True
239.186	0.54	Win2	0.84	n/a	No	3.13	n/a	n/a	NoResponse	0	n/a	n/a	5	24	Blank	MissedWin	True
239.213	0.3	Win2	0.84	0.001	No	3.13	-0.001	3.0	NoResponse	0	0.194	n/a	5	24	ButtonPress	MissedWin	True
239.719	1.45	Win2	0.84	n/a	No	3.13	n/a	5.0	NoResponse	0	0.013	238.732	5	24	Feedback	MissedWin	True
241.168	3.13	Win2	0.84	n/a	No	3.13	n/a	n/a	NoResponse	0	0.0	n/a	5	24	ISIslide	MissedWin	True
244.317	0.25	Win2	0.8077	0.0	No	3.083	0.017	n/a	NoResponse	0	n/a	n/a	5	25	Cue	MissedWin	True
244.567	4.0	Win2	0.8077	0.0	No	3.083	0.0	3.0	NoResponse	0	3.987	247.554	5	25	Fixation	MissedWin	True
248.554	0.3	Win2	0.8077	0.0	No	3.083	0.0	3.0	NoResponse	0	3.987	n/a	5	25	ButtonPress	MissedWin	True
248.566	0.15	Win2	0.8077	0.001	No	3.083	-0.001	n/a	NoResponse	0	n/a	n/a	5	25	Target	MissedWin	True
248.716	0.55	Win2	0.8077	n/a	No	3.083	n/a	n/a	NoResponse	0	n/a	n/a	5	25	Blank	MissedWin	True
249.265	1.45	Win2	0.8077	n/a	No	3.083	n/a	5.0	NoResponse	0	0.028	248.293	5	25	Feedback	MissedWin	True
250.715	3.083	Win2	0.8077	n/a	No	3.083	n/a	n/a	NoResponse	0	0.0	n/a	5	25	ISIslide	MissedWin	True
253.814	0.25	Win2	0.7778	0.0	No	2.936	0.014	n/a	NoResponse	0	n/a	n/a	5	26	Cue	MissedWin	True
254.064	3.95	Win2	0.7778	0.0	No	2.936	0.0	n/a	NoResponse	0	n/a	n/a	5	26	Fixation	MissedWin	True
258.012	0.15	Win2	0.7778	0.002	No	2.936	-0.002	3.0	NoResponse	0	0.188	257.2	5	26	Target	MissedWin	True
258.162	0.55	Win2	0.7778	n/a	No	2.936	n/a	n/a	NoResponse	0	n/a	n/a	5	26	Blank	MissedWin	True
258.2	0.3	Win2	0.7778	0.002	No	2.936	-0.002	3.0	NoResponse	0	0.188	n/a	5	26	ButtonPress	MissedWin	True
258.712	1.45	Win2	0.7778	n/a	No	2.936	n/a	5.0	NoResponse	0	0.044	257.756	5	26	Feedback	MissedWin	True
260.162	2.936	Win2	0.7778	n/a	No	2.936	n/a	n/a	NoResponse	0	0.0	n/a	5	26	ISIslide	MissedWin	True
263.127	0.25	Lose2	0.75	0.0	No	2.823	0.027	n/a	NoResponse	-1	n/a	n/a	4	27	Cue	Loss	True
263.377	4.05	Lose2	0.75	0.0	No	2.823	0.0	n/a	NoResponse	-1	n/a	n/a	4	27	Fixation	Loss	True
267.426	0.15	Lose2	0.75	0.001	No	2.823	-0.001	3.0	NoResponse	-1	0.18	266.606	4	27	Target	Loss	True
267.576	0.55	Lose2	0.75	n/a	No	2.823	n/a	n/a	NoResponse	-1	n/a	n/a	4	27	Blank	Loss	True
267.606	0.3	Lose2	0.75	0.001	No	2.823	-0.001	3.0	NoResponse	-1	0.18	n/a	4	27	ButtonPress	Loss	True
268.126	1.45	Lose2	0.75	n/a	No	2.823	n/a	5.0	NoResponse	-1	0.044	267.17	4	27	Feedback	Loss	True
269.575	2.823	Lose2	0.75	n/a	No	2.823	n/a	n/a	NoResponse	-1	0.0	n/a	4	27	ISIslide	Loss	True
272.424	0.25	Control	0.7241	0.0	No	2.826	0.024	n/a	NoResponse	0	n/a	n/a	4	28	Cue	Neutral	True
272.674	4.05	Control	0.7241	0.0	No	2.826	0.0	n/a	NoResponse	0	n/a	n/a	4	28	Fixation	Neutral	True
276.723	0.15	Control	0.7241	0.001	No	2.826	-0.001	3.0	NoResponse	0	0.199	275.922	4	28	Target	Neutral	True
276.872	0.55	Control	0.7241	n/a	No	2.826	n/a	n/a	NoResponse	0	n/a	n/a	4	28	Blank	Neutral	True
276.922	0.3	Control	0.7241	0.001	No	2.826	-0.001	3.0	NoResponse	0	0.199	n/a	4	28	ButtonPress	Neutral	True
277.422	1.45	Control	0.7241	n/a	No	2.826	n/a	5.0	NoResponse	0	0.017	276.439	4	28	Feedback	Neutral	True
278.872	2.826	Control	0.7241	n/a	No	2.826	n/a	n/a	NoResponse	0	0.0	n/a	4	28	ISIslide	Neutral	True
281.721	0.25	Lose2	0.7	0.0	No	2.829	0.021	n/a	NoResponse	-1	n/a	n/a	3	29	Cue	Loss	True
281.971	3.95	Lose2	0.7	0.0	No	2.829	0.0	n/a	NoResponse	-1	n/a	n/a	3	29	Fixation	Loss	True
285.919	0.15	Lose2	0.7	0.002	No	2.829	-0.002	3.0	NoResponse	-1	0.19	285.109	3	29	Target	Loss	True
286.069	0.55	Lose2	0.7	n/a	No	2.829	n/a	n/a	NoResponse	-1	n/a	n/a	3	29	Blank	Loss	True
286.109	0.3	Lose2	0.7	0.002	No	2.829	-0.002	3.0	NoResponse	-1	0.19	n/a	3	29	ButtonPress	Loss	True
286.619	1.45	Lose2	0.7	n/a	No	2.829	n/a	5.0	NoResponse	-1	0.039	285.658	3	29	Feedback	Loss	True
288.069	2.829	Lose2	0.7	n/a	No	2.829	n/a	n/a	NoResponse	-1	0.0	n/a	3	29	ISIslide	Loss	True
290.918	0.25	Win2	0.6774	0.0	No	2.782	0.018	n/a	NoResponse	0	n/a	n/a	3	30	Cue	MissedWin	True
291.168	3.9	Win2	0.6774	0.0	No	2.782	0.0	3.0	NoResponse	0	3.84	294.008	3	30	Fixation	MissedWin	True
295.008	0.3	Win2	0.6774	0.0	No	2.782	0.0	3.0	NoResponse	0	3.84	n/a	3	30	ButtonPress	MissedWin	True
295.066	0.15	Win2	0.6774	0.002	No	2.782	-0.002	n/a	NoResponse	0	n/a	n/a	3	30	Target	MissedWin	True
295.216	0.55	Win2	0.6774	n/a	No	2.782	n/a	n/a	NoResponse	0	n/a	n/a	3	30	Blank	MissedWin	True
295.766	1.45	Win2	0.6774	n/a	No	2.782	n/a	5.0	NoResponse	0	0.014	294.78	3	30	Feedback	MissedWin	True
297.215	2.782	Win2	0.6774	n/a	No	2.782	n/a	n/a	NoResponse	0	0.0	n/a	3	30	ISIslide	MissedWin	True
300.014	0.25	Lose2	0.6875	0.0	Yes	2.836	0.014	n/a	GoodResponse	0	n/a	n/a	3	31	Cue	AvoidedLoss	True
300.264	4.05	Lose2	0.6875	0.0	Yes	2.836	0.0	n/a	GoodResponse	0	n/a	n/a	3	31	Fixation	AvoidedLoss	True
304.313	0.15	Lose2	0.6875	0.001	Yes	2.836	-0.001	3.0	GoodResponse	0	0.122	303.435	3	31	Target	AvoidedLoss	True
304.435	0.3	Lose2	0.6875	0.001	Yes	2.836	-0.001	3.0	GoodResponse	0	0.122	n/a	3	31	ButtonPress	AvoidedLoss	True
304.463	0.55	Lose2	0.6875	n/a	Yes	2.836	n/a	n/a	GoodResponse	0	n/a	n/a	3	31	Blank	AvoidedLoss	True
305.013	1.45	Lose2	0.6875	n/a	Yes	2.836	n/a	5.0	GoodResponse	0	0.035	304.048	3	31	Feedback	AvoidedLoss	True
306.462	2.836	Lose2	0.6875	n/a	Yes	2.836	n/a	n/a	GoodResponse	0	0.0	n/a	3	31	ISIslide	AvoidedLoss	True
309.328	0.25	Lose2	0.6667000000000001	0.0	No	2.622	0.028	n/a	NoResponse	-1	n/a	n/a	2	32	Cue	Loss	True
309.578	4.15	Lose2	0.6667000000000001	0.0	No	2.622	0.0	n/a	NoResponse	-1	n/a	n/a	2	32	Fixation	Loss	True
313.726	0.15	Lose2	0.6667000000000001	0.002	No	2.622	-0.002	3.0	NoResponse	-1	0.17	312.896	2	32	Target	Loss	True
313.876	0.55	Lose2	0.6667000000000001	n/a	No	2.622	n/a	n/a	NoResponse	-1	n/a	n/a	2	32	Blank	Loss	True
313.896	0.3	Lose2	0.6667000000000001	0.002	No	2.622	-0.002	3.0	NoResponse	-1	0.17	n/a	2	32	ButtonPress	Loss	True
314.426	1.45	Lose2	0.6667000000000001	n/a	No	2.622	n/a	5.0	NoResponse	-1	0.037	313.463	2	32	Feedback	Loss	True
315.876	2.622	Lose2	0.6667000000000001	n/a	No	2.622	n/a	n/a	NoResponse	-1	0.0	n/a	2	32	ISIslide	Loss	True
318.525	0.25	Win2	0.6470999999999999	0.0	No	2.675	0.025	n/a	NoResponse	0	n/a	n/a	2	33	Cue	MissedWin	True
318.775	4.0	Win2	0.6470999999999999	0.0	No	2.675	0.0	n/a	NoResponse	0	n/a	n/a	2	33	Fixation	MissedWin	True
322.773	0.15	Win2	0.6470999999999999	0.002	No	2.675	-0.002	3.0	NoResponse	0	0.159	321.932	2	33	Target	MissedWin	True
322.923	0.55	Win2	0.6470999999999999	n/a	No	2.675	n/a	n/a	NoResponse	0	n/a	n/a	2	33	Blank	MissedWin	True
322.932	0.3	Win2	0.6470999999999999	0.002	No	2.675	-0.002	3.0	NoResponse	0	0.159	n/a	2	33	ButtonPress	MissedWin	True
323.473	1.45	Win2	0.6470999999999999	n/a	No	2.675	n/a	5.0	NoResponse	0	0.014	322.487	2	33	Feedback	MissedWin	True
324.922	2.675	Win2	0.6470999999999999	n/a	No	2.675	n/a	n/a	NoResponse	0	0.0	n/a	2	33	ISIslide	MissedWin	True
327.621	0.25	Lose2	0.6286	0.001	No	2.629	0.021	n/a	PrematurePress	-1	n/a	n/a	1	34	Cue	Loss	True
327.871	4.05	Lose2	0.6286	0.0	No	2.629	0.0	n/a	PrematurePress	-1	n/a	n/a	1	34	Fixation	Loss	True
331.92	0.16	Lose2	0.6286	0.001	No	2.629	-0.001	3.0	PrematurePress	-1	0.076	330.996	1	34	Target	Loss	True
331.996	0.3	Lose2	0.6286	0.001	No	2.629	-0.001	3.0	PrematurePress	-1	0.076	n/a	1	34	ButtonPress	Loss	True
332.087	0.54	Lose2	0.6286	n/a	No	2.629	n/a	n/a	PrematurePress	-1	n/a	n/a	1	34	Blank	Loss	True
332.62	1.45	Lose2	0.6286	n/a	No	2.629	n/a	5.0	PrematurePress	-1	0.038	331.658	1	34	Feedback	Loss	True
334.069	2.629	Lose2	0.6286	n/a	No	2.629	n/a	n/a	PrematurePress	-1	0.0	n/a	1	34	ISIslide	Loss	True
336.718	0.25	Lose2	0.6111	0.0	No	2.682	0.018	n/a	NoResponse	-1	n/a	n/a	0	35	Cue	Loss	True
336.968	4.0	Lose2	0.6111	0.0	No	2.682	0.0	n/a	NoResponse	-1	n/a	n/a	0	35	Fixation	Loss	True
340.967	0.17	Lose2	0.6111	0.001	No	2.682	-0.001	3.0	NoResponse	-1	0.197	340.164	0	35	Target	Loss	True
341.133	0.53	Lose2	0.6111	n/a	No	2.682	n/a	n/a	NoResponse	-1	n/a	n/a	0	35	Blank	Loss	True
341.164	0.3	Lose2	0.6111	0.001	No	2.682	-0.001	3.0	NoResponse	-1	0.197	n/a	0	35	ButtonPress	Loss	True
341.667	1.45	Lose2	0.6111	n/a	No	2.682	n/a	5.0	NoResponse	-1	0.016	340.683	0	35	Feedback	Loss	True
343.116	2.682	Lose2	0.6111	n/a	No	2.682	n/a	n/a	NoResponse	-1	0.0	n/a	0	35	ISIslide	Loss	True
345.815	0.25	Control	0.6215999999999999	0.0	Yes	2.685	0.015	n/a	GoodResponse	0	n/a	n/a	0	36	Cue	Neutral	True
346.065	4.0	Control	0.6215999999999999	0.0	Yes	2.685	0.0	n/a	GoodResponse	0	n/a	n/a	0	36	Fixation	Neutral	True
350.064	0.18	Control	0.6215999999999999	0.001	Yes	2.685	-0.001	3.0	GoodResponse	0	0.174	349.238	0	36	Target	Neutral	True
350.238	0.3	Control	0.6215999999999999	0.001	Yes	2.685	-0.001	3.0	GoodResponse	0	0.174	n/a	0	36	ButtonPress	Neutral	True
350.247	0.52	Control	0.6215999999999999	n/a	Yes	2.685	n/a	n/a	GoodResponse	0	n/a	n/a	0	36	Blank	Neutral	True
350.763	1.45	Control	0.6215999999999999	n/a	Yes	2.685	n/a	5.0	GoodResponse	0	0.042	349.805	0	36	Feedback	Neutral	True
352.213	2.685	Control	0.6215999999999999	n/a	Yes	2.685	n/a	n/a	GoodResponse	0	0.0	n/a	0	36	ISIslide	Neutral	True
354.929	0.25	Win2	0.6053000000000001	0.0	No	2.871	0.029	n/a	NoResponse	0	n/a	n/a	0	37	Cue	MissedWin	False
355.179	4.0	Win2	0.6053000000000001	0.0	No	2.871	0.0	3.0	NoResponse	0	3.498	357.677	0	37	Fixation	MissedWin	False
358.677	0.3	Win2	0.6053000000000001	0.0	No	2.871	0.0	3.0	NoResponse	0	3.498	n/a	0	37	ButtonPress	MissedWin	False
359.177	0.19	Win2	0.6053000000000001	0.002	No	2.871	-0.002	3.0	NoResponse	0	0.224	358.401	0	37	Target	MissedWin	False
359.377	0.51	Win2	0.6053000000000001	n/a	No	2.871	n/a	n/a	NoResponse	0	n/a	n/a	0	37	Blank	MissedWin	False
359.401	0.3	Win2	0.6053000000000001	0.002	No	2.871	-0.002	3.0	NoResponse	0	0.224	n/a	0	37	ButtonPress	MissedWin	False
359.877	1.45	Win2	0.6053000000000001	n/a	No	2.871	n/a	5.0	NoResponse	0	0.0	358.877	0	37	Feedback	MissedWin	False
361.326	2.871	Win2	0.6053000000000001	n/a	No	2.871	n/a	n/a	NoResponse	0	0.0	n/a	0	37	ISIslide	MissedWin	False
364.225	0.25	Lose2	0.6154	0.0	Yes	2.825	0.025	n/a	GoodResponse	0	n/a	n/a	0	38	Cue	AvoidedLoss	True
364.475	3.95	Lose2	0.6154	0.0	Yes	2.825	0.0	n/a	GoodResponse	0	n/a	n/a	0	38	Fixation	AvoidedLoss	True
368.424	0.2	Lose2	0.6154	0.001	Yes	2.825	-0.001	3.0	GoodResponse	0	0.189	367.613	0	38	Target	AvoidedLoss	True
368.613	0.3	Lose2	0.6154	0.001	Yes	2.825	-0.001	3.0	GoodResponse	0	0.189	n/a	0	38	ButtonPress	AvoidedLoss	True
368.624	0.5	Lose2	0.6154	n/a	Yes	2.825	n/a	n/a	GoodResponse	0	n/a	n/a	0	38	Blank	AvoidedLoss	True
369.124	1.45	Lose2	0.6154	n/a	Yes	2.825	n/a	5.0	GoodResponse	0	0.021	368.145	0	38	Feedback	AvoidedLoss	True
370.573	2.825	Lose2	0.6154	n/a	Yes	2.825	n/a	n/a	GoodResponse	0	0.0	n/a	0	38	ISIslide	AvoidedLoss	True
373.422	0.25	Win2	0.625	0.0	Yes	2.978	0.022	n/a	GoodResponse	1	n/a	n/a	1	39	Cue	Win	True
373.672	4.1	Win2	0.625	0.0	Yes	2.978	0.0	n/a	GoodResponse	1	n/a	n/a	1	39	Fixation	Win	True
377.771	0.21	Win2	0.625	0.001	Yes	2.978	-0.001	3.0	GoodResponse	1	0.174	376.945	1	39	Target	Win	True
377.945	0.3	Win2	0.625	0.001	Yes	2.978	-0.001	3.0	GoodResponse	1	0.174	n/a	1	39	ButtonPress	Win	True
377.987	0.49	Win2	0.625	n/a	Yes	2.978	n/a	n/a	GoodResponse	1	n/a	n/a	1	39	Blank	Win	True
378.47	1.45	Win2	0.625	n/a	Yes	2.978	n/a	5.0	GoodResponse	1	0.041	377.511	1	39	Feedback	Win	True
379.92	2.978	Win2	0.625	n/a	Yes	2.978	n/a	n/a	GoodResponse	1	0.0	n/a	1	39	ISIslide	Win	True
382.919	0.25	Win2	0.6341	0.0	Yes	2.731	0.019	n/a	GoodResponse	1	n/a	n/a	2	40	Cue	Win	True
383.169	3.95	Win2	0.6341	0.0	Yes	2.731	0.0	n/a	GoodResponse	1	n/a	n/a	2	40	Fixation	Win	True
387.117	0.22	Win2	0.6341	0.002	Yes	2.731	-0.002	3.0	GoodResponse	1	0.197	386.314	2	40	Target	Win	True
387.314	0.3	Win2	0.6341	0.002	Yes	2.731	-0.002	3.0	GoodResponse	1	0.197	n/a	2	40	ButtonPress	Win	True
387.351	0.48	Win2	0.6341	n/a	Yes	2.731	n/a	n/a	GoodResponse	1	n/a	n/a	2	40	Blank	Win	True
387.817	1.45	Win2	0.6341	n/a	Yes	2.731	n/a	5.0	GoodResponse	1	0.011	386.828	2	40	Feedback	Win	True
389.267	2.731	Win2	0.6341	n/a	Yes	2.731	n/a	n/a	GoodResponse	1	0.0	n/a	2	40	ISIslide	Win	True
392.016	0.25	Win2	0.6429	0.0	Yes	2.784	0.016	n/a	GoodResponse	1	n/a	n/a	3	41	Cue	Win	True
392.266	3.9	Win2	0.6429	0.0	Yes	2.784	0.0	n/a	GoodResponse	1	n/a	n/a	3	41	Fixation	Win	True
396.164	0.23	Win2	0.6429	0.002	Yes	2.784	-0.002	3.0	GoodResponse	1	0.222	395.386	3	41	Target	Win	True
396.386	0.3	Win2	0.6429	0.002	Yes	2.784	-0.002	3.0	GoodResponse	1	0.222	n/a	3	41	ButtonPress	Win	True
396.397	0.47	Win2	0.6429	n/a	Yes	2.784	n/a	n/a	GoodResponse	1	n/a	n/a	3	41	Blank	Win	True
396.864	1.45	Win2	0.6429	n/a	Yes	2.784	n/a	5.0	GoodResponse	1	0.038	395.902	3	41	Feedback	Win	True
398.313	2.784	Win2	0.6429	n/a	Yes	2.784	n/a	n/a	GoodResponse	1	0.0	n/a	3	41	ISIslide	Win	True
401.112	0.25	Control	0.6512	0.001	Yes	2.938	0.012	n/a	GoodResponse	0	n/a	n/a	3	42	Cue	Neutral	True
401.362	3.85	Control	0.6512	0.0	Yes	2.938	0.0	n/a	GoodResponse	0	n/a	n/a	3	42	Fixation	Neutral	True
405.211	0.24	Control	0.6512	0.001	Yes	2.938	-0.001	3.0	GoodResponse	0	0.106	404.317	3	42	Target	Neutral	True
405.317	0.3	Control	0.6512	0.001	Yes	2.938	-0.001	3.0	GoodResponse	0	0.106	n/a	3	42	ButtonPress	Neutral	True
405.461	0.46	Control	0.6512	n/a	Yes	2.938	n/a	n/a	GoodResponse	0	n/a	n/a	3	42	Blank	Neutral	True
405.911	1.45	Control	0.6512	n/a	Yes	2.938	n/a	5.0	GoodResponse	0	0.014	404.925	3	42	Feedback	Neutral	True
407.36	2.938	Control	0.6512	n/a	Yes	2.938	n/a	n/a	GoodResponse	0	0.0	n/a	3	42	ISIslide	Neutral	True
410.326	0.25	Win2	0.6591	0.0	Yes	3.174	0.026	n/a	GoodResponse	1	n/a	n/a	4	43	Cue	Win	True
410.576	4.0	Win2	0.6591	0.0	Yes	3.174	0.0	n/a	GoodResponse	1	n/a	n/a	4	43	Fixation	Win	True
414.574	0.25	Win2	0.6591	0.002	Yes	3.174	-0.002	3.0	GoodResponse	1	0.161	413.735	4	43	Target	Win	True
414.735	0.3	Win2	0.6591	0.002	Yes	3.174	-0.002	3.0	GoodResponse	1	0.161	n/a	4	43	ButtonPress	Win	True
414.824	0.45	Win2	0.6591	n/a	Yes	3.174	n/a	n/a	GoodResponse	1	n/a	n/a	4	43	Blank	Win	True
415.274	1.45	Win2	0.6591	n/a	Yes	3.174	n/a	5.0	GoodResponse	1	0.017	414.291	4	43	Feedback	Win	True
416.724	3.174	Win2	0.6591	n/a	Yes	3.174	n/a	n/a	GoodResponse	1	0.0	n/a	4	43	ISIslide	Win	True
419.923	0.25	Win2	0.6667000000000001	0.0	Yes	2.977	0.023	n/a	GoodResponse	1	n/a	n/a	5	44	Cue	Win	True
420.173	4.0	Win2	0.6667000000000001	0.0	Yes	2.977	0.0	n/a	GoodResponse	1	n/a	n/a	5	44	Fixation	Win	True
424.171	0.25	Win2	0.6667000000000001	0.002	Yes	2.977	-0.002	3.0	GoodResponse	1	0.21	423.381	5	44	Target	Win	True
424.381	0.3	Win2	0.6667000000000001	0.002	Yes	2.977	-0.002	3.0	GoodResponse	1	0.21	n/a	5	44	ButtonPress	Win	True
424.421	0.45	Win2	0.6667000000000001	n/a	Yes	2.977	n/a	n/a	GoodResponse	1	n/a	n/a	5	44	Blank	Win	True
424.871	1.45	Win2	0.6667000000000001	n/a	Yes	2.977	n/a	5.0	GoodResponse	1	0.03	423.901	5	44	Feedback	Win	True
426.32	2.977	Win2	0.6667000000000001	n/a	Yes	2.977	n/a	n/a	GoodResponse	1	0.0	n/a	5	44	ISIslide	Win	True
429.319	0.25	Control	0.6739	0.0	Yes	2.881	0.019	n/a	GoodResponse	0	n/a	n/a	5	45	Cue	Neutral	True
429.569	4.1	Control	0.6739	0.0	Yes	2.881	0.0	n/a	GoodResponse	0	n/a	n/a	5	45	Fixation	Neutral	True
433.668	0.24	Control	0.6739	0.001	Yes	2.881	-0.001	3.0	GoodResponse	0	0.191	432.859	5	45	Target	Neutral	True
433.859	0.3	Control	0.6739	0.001	Yes	2.881	-0.001	3.0	GoodResponse	0	0.191	n/a	5	45	ButtonPress	Neutral	True
433.918	0.46	Control	0.6739	n/a	Yes	2.881	n/a	n/a	GoodResponse	0	n/a	n/a	5	45	Blank	Neutral	True
434.368	1.45	Control	0.6739	n/a	Yes	2.881	n/a	5.0	GoodResponse	0	0.045	433.413	5	45	Feedback	Neutral	True
435.817	2.881	Control	0.6739	n/a	Yes	2.881	n/a	n/a	GoodResponse	0	0.0	n/a	5	45	ISIslide	Neutral	True
438.716	0.25	Lose2	0.6809000000000001	0.0	Yes	3.384	0.016	n/a	GoodResponse	0	n/a	n/a	5	46	Cue	AvoidedLoss	True
438.966	4.0	Lose2	0.6809000000000001	0.0	Yes	3.384	0.0	n/a	GoodResponse	0	n/a	n/a	5	46	Fixation	AvoidedLoss	True
442.965	0.23	Lose2	0.6809000000000001	0.001	Yes	3.384	-0.001	3.0	GoodResponse	0	0.173	442.138	5	46	Target	AvoidedLoss	True
443.138	0.3	Lose2	0.6809000000000001	0.001	Yes	3.384	-0.001	3.0	GoodResponse	0	0.173	n/a	5	46	ButtonPress	AvoidedLoss	True
443.198	0.47	Lose2	0.6809000000000001	n/a	Yes	3.384	n/a	n/a	GoodResponse	0	n/a	n/a	5	46	Blank	AvoidedLoss	True
443.664	1.45	Lose2	0.6809000000000001	n/a	Yes	3.384	n/a	5.0	GoodResponse	0	0.018	442.682	5	46	Feedback	AvoidedLoss	True
445.114	3.384	Lose2	0.6809000000000001	n/a	Yes	3.384	n/a	n/a	GoodResponse	0	0.0	n/a	5	46	ISIslide	AvoidedLoss	True
448.529	0.25	Lose2	0.6875	0.0	Yes	2.671	0.029	n/a	GoodResponse	0	n/a	n/a	5	47	Cue	AvoidedLoss	True
448.779	4.0	Lose2	0.6875	0.0	Yes	2.671	0.0	n/a	GoodResponse	0	n/a	n/a	5	47	Fixation	AvoidedLoss	True
452.778	0.22	Lose2	0.6875	0.001	Yes	2.671	-0.001	3.0	GoodResponse	0	0.184	451.962	5	47	Target	AvoidedLoss	True
452.962	0.3	Lose2	0.6875	0.001	Yes	2.671	-0.001	3.0	GoodResponse	0	0.184	n/a	5	47	ButtonPress	AvoidedLoss	True
452.994	0.48	Lose2	0.6875	n/a	Yes	2.671	n/a	n/a	GoodResponse	0	n/a	n/a	5	47	Blank	AvoidedLoss	True
453.478	1.45	Lose2	0.6875	n/a	Yes	2.671	n/a	5.0	GoodResponse	0	0.009	452.487	5	47	Feedback	AvoidedLoss	True
454.927	2.671	Lose2	0.6875	n/a	Yes	2.671	n/a	n/a	GoodResponse	0	0.0	n/a	5	47	ISIslide	AvoidedLoss	True
457.626	0.25	Lose2	0.6939	0.0	Yes	3.024	0.026	n/a	GoodResponse	0	n/a	n/a	5	48	Cue	AvoidedLoss	True
457.876	3.95	Lose2	0.6939	0.0	Yes	3.024	0.0	n/a	GoodResponse	0	n/a	n/a	5	48	Fixation	AvoidedLoss	True
461.825	0.21	Lose2	0.6939	0.001	Yes	3.024	-0.001	3.0	GoodResponse	0	0.179	461.004	5	48	Target	AvoidedLoss	True
462.004	0.3	Lose2	0.6939	0.001	Yes	3.024	-0.001	3.0	GoodResponse	0	0.179	n/a	5	48	ButtonPress	AvoidedLoss	True
462.041	0.49	Lose2	0.6939	n/a	Yes	3.024	n/a	n/a	GoodResponse	0	n/a	n/a	5	48	Blank	AvoidedLoss	True
462.524	1.45	Lose2	0.6939	n/a	Yes	3.024	n/a	5.0	GoodResponse	0	0.035	461.559	5	48	Feedback	AvoidedLoss	True
463.974	3.024	Lose2	0.6939	n/a	Yes	3.024	n/a	n/a	GoodResponse	0	0.0	n/a	5	48	ISIslide	AvoidedLoss	True
467.023	0.25	Control	0.7	0.0	Yes	2.877	0.023	n/a	GoodResponse	0	n/a	n/a	5	49	Cue	Neutral	True
467.273	4.0	Control	0.7	0.0	Yes	2.877	0.0	n/a	GoodResponse	0	n/a	n/a	5	49	Fixation	Neutral	True
471.271	0.2	Control	0.7	0.002	Yes	2.877	-0.002	3.0	GoodResponse	0	0.193	470.464	5	49	Target	Neutral	True
471.464	0.3	Control	0.7	0.002	Yes	2.877	-0.002	3.0	GoodResponse	0	0.193	n/a	5	49	ButtonPress	Neutral	True
471.471	0.5	Control	0.7	n/a	Yes	2.877	n/a	n/a	GoodResponse	0	n/a	n/a	5	49	Blank	Neutral	True
471.971	1.45	Control	0.7	n/a	Yes	2.877	n/a	5.0	GoodResponse	0	0.008	470.979	5	49	Feedback	Neutral	True
473.421	2.877	Control	0.7	n/a	Yes	2.877	n/a	n/a	GoodResponse	0	0.0	n/a	5	49	ISIslide	Neutral	True
476.32	0.25	Control	0.6862999999999999	0.0	No	2.78	0.02	n/a	NoResponse	0	n/a	n/a	5	50	Cue	Neutral	True
476.569	4.0	Control	0.6862999999999999	0.001	No	2.78	-0.001	n/a	NoResponse	0	n/a	n/a	5	50	Fixation	Neutral	True
480.568	0.19	Control	0.6862999999999999	0.002	No	2.78	-0.002	3.0	NoResponse	0	0.263	479.831	5	50	Target	Neutral	True
480.768	0.51	Control	0.6862999999999999	n/a	No	2.78	n/a	n/a	NoResponse	0	n/a	n/a	5	50	Blank	Neutral	True
480.831	0.3	Control	0.6862999999999999	0.002	No	2.78	-0.002	3.0	NoResponse	0	0.263	n/a	5	50	ButtonPress	Neutral	True
481.268	1.45	Control	0.6862999999999999	n/a	No	2.78	n/a	5.0	NoResponse	0	0.023	480.291	5	50	Feedback	Neutral	True
482.717	2.78	Control	0.6862999999999999	n/a	No	2.78	n/a	n/a	NoResponse	0	0.0	n/a	5	50	ISIslide	Neutral	True
485.516	0.25	Control	0.6731	0.0	No	2.734	0.016	n/a	NoResponse	0	n/a	n/a	5	51	Cue	Neutral	True
485.766	3.95	Control	0.6731	0.0	No	2.734	0.0	n/a	NoResponse	0	n/a	n/a	5	51	Fixation	Neutral	True
489.715	0.18	Control	0.6731	0.001	No	2.734	-0.001	3.0	NoResponse	0	0.214	488.929	5	51	Target	Neutral	True
489.898	0.52	Control	0.6731	n/a	No	2.734	n/a	n/a	NoResponse	0	n/a	n/a	5	51	Blank	Neutral	True
489.929	0.3	Control	0.6731	0.001	No	2.734	-0.001	3.0	NoResponse	0	0.214	n/a	5	51	ButtonPress	Neutral	True
490.415	1.45	Control	0.6731	n/a	No	2.734	n/a	5.0	NoResponse	0	0.047	489.462	5	51	Feedback	Neutral	True
491.864	2.734	Control	0.6731	n/a	No	2.734	n/a	n/a	NoResponse	0	0.0	n/a	5	51	ISIslide	Neutral	True
494.613	0.25	Control	0.6604000000000001	0.0	No	2.637	0.013	n/a	LatePress	0	n/a	n/a	5	52	Cue	Neutral	True
494.863	4.05	Control	0.6604000000000001	0.0	No	2.637	0.0	n/a	LatePress	0	n/a	n/a	5	52	Fixation	Neutral	True
498.912	0.17	Control	0.6604000000000001	0.001	No	2.637	-0.001	3.0	LatePress	0	0.172	498.084	5	52	Target	Neutral	True
499.084	0.3	Control	0.6604000000000001	0.001	No	2.637	-0.001	3.0	LatePress	0	0.172	n/a	5	52	ButtonPress	Neutral	True
499.095	0.53	Control	0.6604000000000001	n/a	No	2.637	n/a	n/a	LatePress	0	n/a	n/a	5	52	Blank	Neutral	True
499.611	1.45	Control	0.6604000000000001	n/a	No	2.637	n/a	5.0	LatePress	0	0.022	498.633	5	52	Feedback	Neutral	True
501.061	2.637	Control	0.6604000000000001	n/a	No	2.637	n/a	n/a	LatePress	0	0.0	n/a	5	52	ISIslide	Neutral	True
503.727	0.25	Win2	0.6481	0.0	No	2.923	0.027	n/a	NoResponse	0	n/a	n/a	5	53	Cue	MissedWin	False
503.977	4.05	Win2	0.6481	0.0	No	2.923	0.0	3.0	NoResponse	0	3.739	506.716	5	53	Fixation	MissedWin	False
507.716	0.3	Win2	0.6481	0.0	No	2.923	0.0	3.0	NoResponse	0	3.739	n/a	5	53	ButtonPress	MissedWin	False
508.025	0.17	Win2	0.6481	0.002	No	2.923	-0.002	3.0	NoResponse	0	0.201	507.226	5	53	Target	MissedWin	False
508.208	0.53	Win2	0.6481	n/a	No	2.923	n/a	n/a	NoResponse	0	n/a	n/a	5	53	Blank	MissedWin	False
508.226	0.3	Win2	0.6481	0.002	No	2.923	-0.002	3.0	NoResponse	0	0.201	n/a	5	53	ButtonPress	MissedWin	False
508.725	1.45	Win2	0.6481	n/a	No	2.923	n/a	5.0	NoResponse	0	0.029	507.754	5	53	Feedback	MissedWin	False
510.174	2.923	Win2	0.6481	n/a	No	2.923	n/a	n/a	NoResponse	0	0.0	n/a	5	53	ISIslide	MissedWin	False
513.123	0.25	Win2	0.6545000000000001	0.001	Yes	2.727	0.023	n/a	GoodResponse	1	n/a	n/a	6	54	Cue	Win	True
513.373	3.95	Win2	0.6545000000000001	0.0	Yes	2.727	0.0	n/a	GoodResponse	1	n/a	n/a	6	54	Fixation	Win	True
517.322	0.18	Win2	0.6545000000000001	0.001	Yes	2.727	-0.001	3.0	GoodResponse	1	0.172	516.494	6	54	Target	Win	True
517.494	0.3	Win2	0.6545000000000001	0.001	Yes	2.727	-0.001	3.0	GoodResponse	1	0.172	n/a	6	54	ButtonPress	Win	True
517.505	0.52	Win2	0.6545000000000001	n/a	Yes	2.727	n/a	n/a	GoodResponse	1	n/a	n/a	6	54	Blank	Win	True
518.022	1.45	Win2	0.6545000000000001	n/a	Yes	2.727	n/a	5.0	GoodResponse	1	0.0	517.022	6	54	Feedback	Win	True
519.471	2.727	Win2	0.6545000000000001	n/a	Yes	2.727	n/a	n/a	GoodResponse	1	0.0	n/a	6	54	ISIslide	Win	True
522.22	0.25	Control	0.6429	0.0	No	3.03	0.02	n/a	NoResponse	0	n/a	n/a	6	55	Cue	Neutral	True
522.47	3.95	Control	0.6429	0.0	No	3.03	0.0	n/a	NoResponse	0	n/a	n/a	6	55	Fixation	Neutral	True
526.419	0.19	Control	0.6429	0.001	No	3.03	-0.001	3.0	NoResponse	0	0.213	525.632	6	55	Target	Neutral	True
526.619	0.51	Control	0.6429	n/a	No	3.03	n/a	n/a	NoResponse	0	n/a	n/a	6	55	Blank	Neutral	True
526.632	0.3	Control	0.6429	0.001	No	3.03	-0.001	3.0	NoResponse	0	0.213	n/a	6	55	ButtonPress	Neutral	True
527.119	1.45	Control	0.6429	n/a	No	3.03	n/a	5.0	NoResponse	0	0.025	526.144	6	55	Feedback	Neutral	True
528.568	3.03	Control	0.6429	n/a	No	3.03	n/a	n/a	NoResponse	0	0.0	n/a	6	55	ISIslide	Neutral	True
531.617	0.25	Control	0.6315999999999999	0.0	No	2.833	0.017	n/a	NoResponse	0	n/a	n/a	6	56	Cue	Neutral	True
531.867	3.95	Control	0.6315999999999999	0.0	No	2.833	0.0	n/a	NoResponse	0	n/a	n/a	6	56	Fixation	Neutral	True
535.815	0.2	Control	0.6315999999999999	0.002	No	2.833	-0.002	3.0	NoResponse	0	0.264	535.079	6	56	Target	Neutral	True
536.015	0.5	Control	0.6315999999999999	n/a	No	2.833	n/a	n/a	NoResponse	0	n/a	n/a	6	56	Blank	Neutral	True
536.079	0.3	Control	0.6315999999999999	0.002	No	2.833	-0.002	3.0	NoResponse	0	0.264	n/a	6	56	ButtonPress	Neutral	True
536.515	1.45	Control	0.6315999999999999	n/a	No	2.833	n/a	5.0	NoResponse	0	0.044	535.559	6	56	Feedback	Neutral	True
537.965	2.833	Control	0.6315999999999999	n/a	No	2.833	n/a	n/a	NoResponse	0	0.0	n/a	6	56	ISIslide	Neutral	True
540.83	0.25	Control	0.6379	0.001	Yes	3.47	0.03	n/a	GoodResponse	0	n/a	n/a	6	57	Cue	Neutral	True
541.08	4.0	Control	0.6379	0.0	Yes	3.47	0.0	n/a	GoodResponse	0	n/a	n/a	6	57	Fixation	Neutral	True
545.079	0.21	Control	0.6379	0.001	Yes	3.47	-0.001	3.0	GoodResponse	0	0.206	544.285	6	57	Target	Neutral	True
545.285	0.3	Control	0.6379	0.001	Yes	3.47	-0.001	3.0	GoodResponse	0	0.206	n/a	6	57	ButtonPress	Neutral	True
545.296	0.49	Control	0.6379	n/a	Yes	3.47	n/a	n/a	GoodResponse	0	n/a	n/a	6	57	Blank	Neutral	True
545.779	1.45	Control	0.6379	n/a	Yes	3.47	n/a	5.0	GoodResponse	0	0.0	544.779	6	57	Feedback	Neutral	True
547.228	3.47	Control	0.6379	n/a	Yes	3.47	n/a	n/a	GoodResponse	0	0.0	n/a	6	57	ISIslide	Neutral	True
550.727	0.25	Win2	0.6441	0.0	Yes	2.723	0.027	n/a	GoodResponse	1	n/a	n/a	7	58	Cue	Win	True
550.977	4.05	Win2	0.6441	0.0	Yes	2.723	0.0	n/a	GoodResponse	1	n/a	n/a	7	58	Fixation	Win	True
555.025	0.22	Win2	0.6441	0.002	Yes	2.723	-0.002	3.0	GoodResponse	1	0.193	554.218	7	58	Target	Win	True
555.218	0.3	Win2	0.6441	0.002	Yes	2.723	-0.002	3.0	GoodResponse	1	0.193	n/a	7	58	ButtonPress	Win	True
555.259	0.48	Win2	0.6441	n/a	Yes	2.723	n/a	n/a	GoodResponse	1	n/a	n/a	7	58	Blank	Win	True
555.725	1.45	Win2	0.6441	n/a	Yes	2.723	n/a	5.0	GoodResponse	1	0.008	554.733	7	58	Feedback	Win	True
557.175	2.723	Win2	0.6441	n/a	Yes	2.723	n/a	n/a	GoodResponse	1	0.0	n/a	7	58	ISIslide	Win	True
559.924	0.25	Lose2	0.65	0.0	Yes	2.676	0.024	n/a	GoodResponse	0	n/a	n/a	7	59	Cue	AvoidedLoss	True
560.174	4.0	Lose2	0.65	0.0	Yes	2.676	0.0	n/a	GoodResponse	0	n/a	n/a	7	59	Fixation	AvoidedLoss	True
564.172	0.23	Lose2	0.65	0.002	Yes	2.676	-0.002	3.0	GoodResponse	0	0.194	563.366	7	59	Target	AvoidedLoss	True
564.366	0.3	Lose2	0.65	0.002	Yes	2.676	-0.002	3.0	GoodResponse	0	0.194	n/a	7	59	ButtonPress	AvoidedLoss	True
564.406	0.47	Lose2	0.65	n/a	Yes	2.676	n/a	n/a	GoodResponse	0	n/a	n/a	7	59	Blank	AvoidedLoss	True
564.872	1.45	Lose2	0.65	n/a	Yes	2.676	n/a	5.0	GoodResponse	0	0.028	563.9	7	59	Feedback	AvoidedLoss	True
566.322	2.676	Lose2	0.65	n/a	Yes	2.676	n/a	n/a	GoodResponse	0	0.0	n/a	7	59	ISIslide	AvoidedLoss	True
569.021	0.25	Control	0.6557	0.0	Yes	2.679	0.021	n/a	GoodResponse	0	n/a	n/a	7	60	Cue	Neutral	True
569.27	4.0	Control	0.6557	0.001	Yes	2.679	-0.001	n/a	GoodResponse	0	n/a	n/a	7	60	Fixation	Neutral	True
573.269	0.24	Control	0.6557	0.002	Yes	2.679	-0.002	3.0	GoodResponse	0	0.19	572.459	7	60	Target	Neutral	True
573.459	0.3	Control	0.6557	0.002	Yes	2.679	-0.002	3.0	GoodResponse	0	0.19	n/a	7	60	ButtonPress	Neutral	True
573.519	0.46	Control	0.6557	n/a	Yes	2.679	n/a	n/a	GoodResponse	0	n/a	n/a	7	60	Blank	Neutral	True
573.969	1.45	Control	0.6557	n/a	Yes	2.679	n/a	5.0	GoodResponse	0	0.007	572.976	7	60	Feedback	Neutral	True
575.418	2.679	Control	0.6557	n/a	Yes	2.679	n/a	n/a	GoodResponse	0	0.0	n/a	7	60	ISIslide	Neutral	True
578.117	0.25	Lose2	0.6613	0.0	Yes	2.983	0.017	n/a	GoodResponse	0	n/a	n/a	7	61	Cue	AvoidedLoss	True
578.367	4.0	Lose2	0.6613	0.0	Yes	2.983	0.0	n/a	GoodResponse	0	n/a	n/a	7	61	Fixation	AvoidedLoss	True
582.366	0.24	Lose2	0.6613	0.001	Yes	2.983	-0.001	3.0	GoodResponse	0	0.179	581.545	7	61	Target	AvoidedLoss	True
582.545	0.3	Lose2	0.6613	0.001	Yes	2.983	-0.001	3.0	GoodResponse	0	0.179	n/a	7	61	ButtonPress	AvoidedLoss	True
582.616	0.46	Lose2	0.6613	n/a	Yes	2.983	n/a	n/a	GoodResponse	0	n/a	n/a	7	61	Blank	AvoidedLoss	True
583.066	1.45	Lose2	0.6613	n/a	Yes	2.983	n/a	5.0	GoodResponse	0	0.029	582.095	7	61	Feedback	AvoidedLoss	True
584.515	2.983	Lose2	0.6613	n/a	Yes	2.983	n/a	n/a	GoodResponse	0	0.0	n/a	7	61	ISIslide	AvoidedLoss	True
587.514	0.25	Lose2	0.6507999999999999	0.0	No	2.886	0.014	n/a	NoResponse	-1	n/a	n/a	6	62	Cue	Loss	True
587.764	3.9	Lose2	0.6507999999999999	0.0	No	2.886	0.0	n/a	NoResponse	-1	n/a	n/a	6	62	Fixation	Loss	True
591.663	0.24	Lose2	0.6507999999999999	0.001	No	2.886	-0.001	3.0	NoResponse	-1	0.277	590.94	6	62	Target	Loss	True
591.913	0.46	Lose2	0.6507999999999999	n/a	No	2.886	n/a	n/a	NoResponse	-1	n/a	n/a	6	62	Blank	Loss	True
591.94	0.3	Lose2	0.6507999999999999	0.001	No	2.886	-0.001	3.0	NoResponse	-1	0.277	n/a	6	62	ButtonPress	Loss	True
592.362	1.45	Lose2	0.6507999999999999	n/a	No	2.886	n/a	5.0	NoResponse	-1	0.002	591.364	6	62	Feedback	Loss	True
593.812	2.886	Lose2	0.6507999999999999	n/a	No	2.886	n/a	n/a	NoResponse	-1	0.0	n/a	6	62	ISIslide	Loss	True
596.728	0.25	Lose2	0.6562	0.0	Yes	2.622	0.028	n/a	GoodResponse	0	n/a	n/a	6	63	Cue	AvoidedLoss	True
596.977	4.05	Lose2	0.6562	0.001	Yes	2.622	-0.001	n/a	GoodResponse	0	n/a	n/a	6	63	Fixation	AvoidedLoss	True
601.026	0.25	Lose2	0.6562	0.002	Yes	2.622	-0.002	3.0	GoodResponse	0	0.194	600.22	6	63	Target	AvoidedLoss	True
601.22	0.3	Lose2	0.6562	0.002	Yes	2.622	-0.002	3.0	GoodResponse	0	0.194	n/a	6	63	ButtonPress	AvoidedLoss	True
601.276	0.45	Lose2	0.6562	n/a	Yes	2.622	n/a	n/a	GoodResponse	0	n/a	n/a	6	63	Blank	AvoidedLoss	True
601.726	1.45	Lose2	0.6562	n/a	Yes	2.622	n/a	5.0	GoodResponse	0	0.008	600.734	6	63	Feedback	AvoidedLoss	True
603.175	2.622	Lose2	0.6562	n/a	Yes	2.622	n/a	n/a	GoodResponse	0	0.0	n/a	6	63	ISIslide	AvoidedLoss	True
605.824	0.25	Win2	0.6615000000000001	0.0	Yes	3.126	0.024	n/a	GoodResponse	1	n/a	n/a	7	64	Cue	Win	True
606.074	4.15	Win2	0.6615000000000001	0.0	Yes	3.126	0.0	n/a	GoodResponse	1	n/a	n/a	7	64	Fixation	Win	True
610.223	0.25	Win2	0.6615000000000001	0.001	Yes	3.126	-0.001	3.0	GoodResponse	1	0.24	609.463	7	64	Target	Win	True
610.463	0.3	Win2	0.6615000000000001	0.001	Yes	3.126	-0.001	3.0	GoodResponse	1	0.24	n/a	7	64	ButtonPress	Win	True
610.473	0.45	Win2	0.6615000000000001	n/a	Yes	3.126	n/a	n/a	GoodResponse	1	n/a	n/a	7	64	Blank	Win	True
610.923	1.45	Win2	0.6615000000000001	n/a	Yes	3.126	n/a	5.0	GoodResponse	1	0.025	609.948	7	64	Feedback	Win	True
612.372	3.126	Win2	0.6615000000000001	n/a	Yes	3.126	n/a	n/a	GoodResponse	1	0.0	n/a	7	64	ISIslide	Win	True
615.521	0.25	Control	0.6667000000000001	0.0	Yes	2.779	0.021	n/a	GoodResponse	0	n/a	n/a	7	65	Cue	Neutral	True
615.771	4.0	Control	0.6667000000000001	0.0	Yes	2.779	0.0	n/a	GoodResponse	0	n/a	n/a	7	65	Fixation	Neutral	True
619.77	0.25	Control	0.6667000000000001	0.001	Yes	2.779	-0.001	3.0	GoodResponse	0	0.209	618.979	7	65	Target	Neutral	True
619.979	0.3	Control	0.6667000000000001	0.001	Yes	2.779	-0.001	3.0	GoodResponse	0	0.209	n/a	7	65	ButtonPress	Neutral	True
620.019	0.45	Control	0.6667000000000001	n/a	Yes	2.779	n/a	n/a	GoodResponse	0	n/a	n/a	7	65	Blank	Neutral	True
620.469	1.45	Control	0.6667000000000001	n/a	Yes	2.779	n/a	5.0	GoodResponse	0	0.04	619.509	7	65	Feedback	Neutral	True
621.919	2.779	Control	0.6667000000000001	n/a	Yes	2.779	n/a	n/a	GoodResponse	0	0.0	n/a	7	65	ISIslide	Neutral	True
624.718	0.25	Win2	0.6716	0.0	Yes	2.782	0.018	n/a	GoodResponse	1	n/a	n/a	8	66	Cue	Win	False
624.968	3.9	Win2	0.6716	0.0	Yes	2.782	0.0	3.0	GoodResponse	1	0.522	624.49	8	66	Fixation	Win	False
625.49	0.3	Win2	0.6716	0.0	Yes	2.782	0.0	3.0	GoodResponse	1	0.522	n/a	8	66	ButtonPress	Win	False
628.866	0.24	Win2	0.6716	0.002	Yes	2.782	-0.002	3.0	GoodResponse	1	0.21	628.076	8	66	Target	Win	False
629.076	0.3	Win2	0.6716	0.002	Yes	2.782	-0.002	3.0	GoodResponse	1	0.21	n/a	8	66	ButtonPress	Win	False
629.116	0.46	Win2	0.6716	n/a	Yes	2.782	n/a	n/a	GoodResponse	1	n/a	n/a	8	66	Blank	Win	False
629.566	1.45	Win2	0.6716	n/a	Yes	2.782	n/a	5.0	GoodResponse	1	0.017	628.583	8	66	Feedback	Win	False
631.016	2.782	Win2	0.6716	n/a	Yes	2.782	n/a	n/a	GoodResponse	1	0.0	n/a	8	66	ISIslide	Win	False
633.815	0.25	Control	0.6765000000000001	0.0	Yes	2.735	0.015	n/a	GoodResponse	0	n/a	n/a	8	67	Cue	Neutral	True
634.065	3.95	Control	0.6765000000000001	0.0	Yes	2.735	0.0	n/a	GoodResponse	0	n/a	n/a	8	67	Fixation	Neutral	True
638.013	0.23	Control	0.6765000000000001	0.002	Yes	2.735	-0.002	3.0	GoodResponse	0	0.181	637.194	8	67	Target	Neutral	True
638.194	0.3	Control	0.6765000000000001	0.002	Yes	2.735	-0.002	3.0	GoodResponse	0	0.181	n/a	8	67	ButtonPress	Neutral	True
638.246	0.47	Control	0.6765000000000001	n/a	Yes	2.735	n/a	n/a	GoodResponse	0	n/a	n/a	8	67	Blank	Neutral	True
638.713	1.45	Control	0.6765000000000001	n/a	Yes	2.735	n/a	5.0	GoodResponse	0	0.04	637.753	8	67	Feedback	Neutral	True
640.162	2.735	Control	0.6765000000000001	n/a	Yes	2.735	n/a	n/a	GoodResponse	0	0.0	n/a	8	67	ISIslide	Neutral	True
642.928	0.25	Win2	0.6812	0.0	Yes	3.072	0.028	n/a	GoodResponse	1	n/a	n/a	9	68	Cue	Win	True
643.178	4.0	Win2	0.6812	0.0	Yes	3.072	0.0	n/a	GoodResponse	1	n/a	n/a	9	68	Fixation	Win	True
647.177	0.22	Win2	0.6812	0.001	Yes	3.072	-0.001	3.0	GoodResponse	1	0.192	646.369	9	68	Target	Win	True
647.369	0.3	Win2	0.6812	0.001	Yes	3.072	-0.001	3.0	GoodResponse	1	0.192	n/a	9	68	ButtonPress	Win	True
647.41	0.48	Win2	0.6812	n/a	Yes	3.072	n/a	n/a	GoodResponse	1	n/a	n/a	9	68	Blank	Win	True
647.876	1.45	Win2	0.6812	n/a	Yes	3.072	n/a	5.0	GoodResponse	1	0.048	646.924	9	68	Feedback	Win	True
649.326	3.072	Win2	0.6812	n/a	Yes	3.072	n/a	n/a	GoodResponse	1	0.0	n/a	9	68	ISIslide	Win	True
652.425	0.25	Win2	0.6857	0.0	Yes	3.225	0.025	n/a	GoodResponse	1	n/a	n/a	10	69	Cue	Win	True
652.675	3.95	Win2	0.6857	0.0	Yes	3.225	0.0	n/a	GoodResponse	1	n/a	n/a	10	69	Fixation	Win	True
656.623	0.21	Win2	0.6857	0.002	Yes	3.225	-0.002	3.0	GoodResponse	1	0.191	655.814	10	69	Target	Win	True
656.814	0.3	Win2	0.6857	0.002	Yes	3.225	-0.002	3.0	GoodResponse	1	0.191	n/a	10	69	ButtonPress	Win	True
656.84	0.49	Win2	0.6857	n/a	Yes	3.225	n/a	n/a	GoodResponse	1	n/a	n/a	10	69	Blank	Win	True
657.323	1.45	Win2	0.6857	n/a	Yes	3.225	n/a	5.0	GoodResponse	1	0.015	656.338	10	69	Feedback	Win	True
658.773	3.225	Win2	0.6857	n/a	Yes	3.225	n/a	n/a	GoodResponse	1	0.0	n/a	10	69	ISIslide	Win	True
662.021	0.25	Lose2	0.6901	0.001	Yes	3.029	0.021	n/a	GoodResponse	0	n/a	n/a	10	70	Cue	AvoidedLoss	True
662.271	4.05	Lose2	0.6901	0.0	Yes	3.029	0.0	n/a	GoodResponse	0	n/a	n/a	10	70	Fixation	AvoidedLoss	True
666.32	0.2	Lose2	0.6901	0.001	Yes	3.029	-0.001	3.0	GoodResponse	0	0.186	665.506	10	70	Target	AvoidedLoss	True
666.506	0.3	Lose2	0.6901	0.001	Yes	3.029	-0.001	3.0	GoodResponse	0	0.186	n/a	10	70	ButtonPress	AvoidedLoss	True
666.52	0.5	Lose2	0.6901	n/a	Yes	3.029	n/a	n/a	GoodResponse	0	n/a	n/a	10	70	Blank	AvoidedLoss	True
667.02	1.45	Lose2	0.6901	n/a	Yes	3.029	n/a	5.0	GoodResponse	0	0.025	666.045	10	70	Feedback	AvoidedLoss	True
668.469	3.029	Lose2	0.6901	n/a	Yes	3.029	n/a	n/a	GoodResponse	0	0.0	n/a	10	70	ISIslide	AvoidedLoss	True
671.518	0.25	Win2	0.6806	0.0	No	2.732	0.018	n/a	NoResponse	0	n/a	n/a	10	71	Cue	MissedWin	True
671.768	4.05	Win2	0.6806	0.0	No	2.732	0.0	n/a	NoResponse	0	n/a	n/a	10	71	Fixation	MissedWin	True
675.817	0.19	Win2	0.6806	0.001	No	2.732	-0.001	3.0	NoResponse	0	0.208	675.025	10	71	Target	MissedWin	True
676.017	0.51	Win2	0.6806	n/a	No	2.732	n/a	n/a	NoResponse	0	n/a	n/a	10	71	Blank	MissedWin	True
676.025	0.3	Win2	0.6806	0.001	No	2.732	-0.001	3.0	NoResponse	0	0.208	n/a	10	71	ButtonPress	MissedWin	True
676.516	1.45	Win2	0.6806	n/a	No	2.732	n/a	5.0	NoResponse	0	0.042	675.558	10	71	Feedback	MissedWin	True
677.966	2.732	Win2	0.6806	n/a	No	2.732	n/a	n/a	NoResponse	0	0.0	n/a	10	71	ISIslide	MissedWin	True
680.715	0.25	Win2	0.6849	0.0	Yes	2.785	0.015	n/a	GoodResponse	1	n/a	n/a	11	72	Cue	Win	True
680.965	4.1	Win2	0.6849	0.0	Yes	2.785	0.0	n/a	GoodResponse	1	n/a	n/a	11	72	Fixation	Win	True
685.063	0.18	Win2	0.6849	0.002	Yes	2.785	-0.002	3.0	GoodResponse	1	0.17	684.233	11	72	Target	Win	True
685.233	0.3	Win2	0.6849	0.002	Yes	2.785	-0.002	3.0	GoodResponse	1	0.17	n/a	11	72	ButtonPress	Win	True
685.247	0.52	Win2	0.6849	n/a	Yes	2.785	n/a	n/a	GoodResponse	1	n/a	n/a	11	72	Blank	Win	True
685.763	1.45	Win2	0.6849	n/a	Yes	2.785	n/a	5.0	GoodResponse	1	0.014	684.777	11	72	Feedback	Win	True
687.213	2.785	Win2	0.6849	n/a	Yes	2.785	n/a	n/a	GoodResponse	1	0.0	n/a	11	72	ISIslide	Win	True
690.028	0.25	Win2	0.6757	0.0	No	2.672	0.028	n/a	NoResponse	0	n/a	n/a	11	73	Cue	MissedWin	True
690.278	4.0	Win2	0.6757	0.0	No	2.672	0.0	n/a	NoResponse	0	n/a	n/a	11	73	Fixation	MissedWin	True
694.277	0.17	Win2	0.6757	0.001	No	2.672	-0.001	3.0	NoResponse	0	0.199	693.476	11	73	Target	MissedWin	True
694.443	0.53	Win2	0.6757	n/a	No	2.672	n/a	n/a	NoResponse	0	n/a	n/a	11	73	Blank	MissedWin	True
694.476	0.3	Win2	0.6757	0.001	No	2.672	-0.001	3.0	NoResponse	0	0.199	n/a	11	73	ButtonPress	MissedWin	True
694.977	1.45	Win2	0.6757	n/a	No	2.672	n/a	5.0	NoResponse	0	0.02	693.997	11	73	Feedback	MissedWin	True
696.426	2.672	Win2	0.6757	n/a	No	2.672	n/a	n/a	NoResponse	0	0.0	n/a	11	73	ISIslide	MissedWin	True
699.125	0.25	Lose2	0.6667000000000001	0.0	No	2.625	0.025	n/a	NoResponse	-1	n/a	n/a	10	74	Cue	Loss	True
699.375	4.05	Lose2	0.6667000000000001	0.0	No	2.625	0.0	n/a	NoResponse	-1	n/a	n/a	10	74	Fixation	Loss	True
703.424	0.16	Lose2	0.6667000000000001	0.001	No	2.625	-0.001	3.0	NoResponse	-1	0.195	702.619	10	74	Target	Loss	True
703.59	0.54	Lose2	0.6667000000000001	n/a	No	2.625	n/a	n/a	NoResponse	-1	n/a	n/a	10	74	Blank	Loss	True
703.619	0.3	Lose2	0.6667000000000001	0.001	No	2.625	-0.001	3.0	NoResponse	-1	0.195	n/a	10	74	ButtonPress	Loss	True
704.123	1.45	Lose2	0.6667000000000001	n/a	No	2.625	n/a	5.0	NoResponse	-1	0.045	703.168	10	74	Feedback	Loss	True
705.573	2.625	Lose2	0.6667000000000001	n/a	No	2.625	n/a	n/a	NoResponse	-1	0.0	n/a	10	74	ISIslide	Loss	True
708.222	0.25	Lose2	0.6579	0.0	No	2.928	0.022	n/a	NoResponse	-1	n/a	n/a	9	75	Cue	Loss	True
708.472	3.95	Lose2	0.6579	0.0	No	2.928	0.0	n/a	NoResponse	-1	n/a	n/a	9	75	Fixation	Loss	True
712.421	0.15	Lose2	0.6579	0.001	No	2.928	-0.001	3.0	NoResponse	-1	0.187	711.608	9	75	Target	Loss	True
712.57	0.55	Lose2	0.6579	n/a	No	2.928	n/a	n/a	NoResponse	-1	n/a	n/a	9	75	Blank	Loss	True
712.608	0.3	Lose2	0.6579	0.001	No	2.928	-0.001	3.0	NoResponse	-1	0.187	n/a	9	75	ButtonPress	Loss	True
713.12	1.45	Lose2	0.6579	n/a	No	2.928	n/a	5.0	NoResponse	-1	0.023	712.143	9	75	Feedback	Loss	True
714.57	2.928	Lose2	0.6579	n/a	No	2.928	n/a	n/a	NoResponse	-1	0.0	n/a	9	75	ISIslide	Loss	True
717.519	0.25	Control	0.6494	0.0	No	3.231	0.019	n/a	NoResponse	0	n/a	n/a	9	76	Cue	Neutral	True
717.769	4.05	Control	0.6494	0.0	No	3.231	0.0	n/a	NoResponse	0	n/a	n/a	9	76	Fixation	Neutral	True
721.817	0.15	Control	0.6494	0.002	No	3.231	-0.002	3.0	NoResponse	0	0.254	721.071	9	76	Target	Neutral	True
721.967	0.55	Control	0.6494	n/a	No	3.231	n/a	n/a	NoResponse	0	n/a	n/a	9	76	Blank	Neutral	True
722.071	0.3	Control	0.6494	0.002	No	3.231	-0.002	3.0	NoResponse	0	0.254	n/a	9	76	ButtonPress	Neutral	True
722.517	1.45	Control	0.6494	n/a	No	3.231	n/a	5.0	NoResponse	0	0.04	721.557	9	76	Feedback	Neutral	True
723.967	3.231	Control	0.6494	n/a	No	3.231	n/a	n/a	NoResponse	0	0.0	n/a	9	76	ISIslide	Neutral	True
727.215	0.25	Lose2	0.6409999999999999	0.0	No	2.585	0.015	n/a	NoResponse	-1	n/a	n/a	8	77	Cue	Loss	True
727.465	3.95	Lose2	0.6409999999999999	0.0	No	2.585	0.0	n/a	NoResponse	-1	n/a	n/a	8	77	Fixation	Loss	True
731.414	0.16	Lose2	0.6409999999999999	0.001	No	2.585	-0.001	3.0	NoResponse	-1	0.182	730.596	8	77	Target	Loss	True
731.581	0.54	Lose2	0.6409999999999999	n/a	No	2.585	n/a	n/a	NoResponse	-1	n/a	n/a	8	77	Blank	Loss	True
731.596	0.3	Lose2	0.6409999999999999	0.001	No	2.585	-0.001	3.0	NoResponse	-1	0.182	n/a	8	77	ButtonPress	Loss	True
732.114	1.45	Lose2	0.6409999999999999	n/a	No	2.585	n/a	5.0	NoResponse	-1	0.007	731.121	8	77	Feedback	Loss	True
733.563	2.585	Lose2	0.6409999999999999	n/a	No	2.585	n/a	n/a	NoResponse	-1	0.0	n/a	8	77	ISIslide	Loss	True
