onset	duration	cue_type	current_mean_accuracy	duration_error	is_hit	isi_adjusted	onset_delay	response	response_type	reward	rt	rt_time	total_reward	trial_number	trial_phase	trial_type	one_press
11.109	0.25	Control	1.0	0.0	Yes	2.941	0.009	n/a	GoodResponse	0	n/a	n/a	0	0	Cue	Neutral	True
11.36	3.85	Control	1.0	0.0	Yes	2.941	0.001	n/a	GoodResponse	0	n/a	n/a	0	0	Fixation	Neutral	True
15.205	0.4	Control	1.0	0.004	Yes	2.941	-0.004	3.0	GoodResponse	0	0.222	14.427	0	0	Target	Neutral	True
15.427	0.3	Control	1.0	0.004	Yes	2.941	-0.004	3.0	GoodResponse	0	0.222	n/a	0	0	ButtonPress	Neutral	True
15.606	0.3	Control	1.0	n/a	Yes	2.941	n/a	n/a	GoodResponse	0	n/a	n/a	0	0	Blank	Neutral	True
15.907	1.45	Control	1.0	n/a	Yes	2.941	n/a	5.0	GoodResponse	0	0.018	14.925	0	0	Feedback	Neutral	True
17.361	2.941	Control	1.0	n/a	Yes	2.941	n/a	n/a	GoodResponse	0	0.0	n/a	0	0	ISIslide	Neutral	True
20.387	0.25	Lose2	1.0	0.0	Yes	2.713	0.087	n/a	GoodResponse	0	n/a	n/a	0	1	Cue	AvoidedLoss	True
20.638	4.0	Lose2	1.0	0.0	Yes	2.713	0.001	n/a	GoodResponse	0	n/a	n/a	0	1	Fixation	AvoidedLoss	True
24.633	0.39	Lose2	1.0	0.004	Yes	2.713	-0.004	3.0	GoodResponse	0	0.201	23.834	0	1	Target	AvoidedLoss	True
24.834	0.3	Lose2	1.0	0.004	Yes	2.713	-0.004	3.0	GoodResponse	0	0.201	n/a	0	1	ButtonPress	AvoidedLoss	True
25.034	0.31	Lose2	1.0	n/a	Yes	2.713	n/a	n/a	GoodResponse	0	n/a	n/a	0	1	Blank	AvoidedLoss	True
25.335	1.45	Lose2	1.0	n/a	Yes	2.713	n/a	5.0	GoodResponse	0	0.006	24.341	0	1	Feedback	AvoidedLoss	True
26.789	2.713	Lose2	1.0	n/a	Yes	2.713	n/a	n/a	GoodResponse	0	0.0	n/a	0	1	ISIslide	AvoidedLoss	True
29.531	0.25	Control	1.0	0.0	Yes	2.569	0.031	n/a	GoodResponse	0	n/a	n/a	0	2	Cue	Neutral	True
29.782	4.1	Control	1.0	0.0	Yes	2.569	0.001	n/a	GoodResponse	0	n/a	n/a	0	2	Fixation	Neutral	True
33.877	0.38	Control	1.0	0.004	Yes	2.569	-0.004	3.0	GoodResponse	0	0.198	33.075	0	2	Target	Neutral	True
34.075	0.3	Control	1.0	0.004	Yes	2.569	-0.004	3.0	GoodResponse	0	0.198	n/a	0	2	ButtonPress	Neutral	True
34.262	0.32	Control	1.0	n/a	Yes	2.569	n/a	n/a	GoodResponse	0	n/a	n/a	0	2	Blank	Neutral	True
34.579	1.45	Control	1.0	n/a	Yes	2.569	n/a	5.0	GoodResponse	0	0.03	33.609	0	2	Feedback	Neutral	True
36.034	2.569	Control	1.0	n/a	Yes	2.569	n/a	n/a	GoodResponse	0	0.0	n/a	0	2	ISIslide	Neutral	True
38.692	0.25	Win2	1.0	0.0	Yes	2.758	0.092	n/a	GoodResponse	1	n/a	n/a	1	3	Cue	Win	True
38.942	3.95	Win2	1.0	0.0	Yes	2.758	0.0	n/a	GoodResponse	1	n/a	n/a	1	3	Fixation	Win	True
42.904	0.37	Win2	1.0	0.0	Yes	2.758	0.012	3.0	GoodResponse	1	0.184	42.088	1	3	Target	Win	True
43.088	0.3	Win2	1.0	0.0	Yes	2.758	0.012	3.0	GoodResponse	1	0.184	n/a	1	3	ButtonPress	Win	True
43.272	0.33	Win2	1.0	n/a	Yes	2.758	n/a	n/a	GoodResponse	1	n/a	n/a	1	3	Blank	Win	True
43.59	1.45	Win2	1.0	n/a	Yes	2.758	n/a	5.0	GoodResponse	1	0.043	42.633	1	3	Feedback	Win	True
45.044	2.758	Win2	1.0	n/a	Yes	2.758	n/a	n/a	GoodResponse	1	0.0	n/a	1	3	ISIslide	Win	True
47.819	0.25	Win2	1.0	0.0	Yes	3.281	0.019	n/a	GoodResponse	1	n/a	n/a	2	4	Cue	Win	True
48.07	4.0	Win2	1.0	0.0	Yes	3.281	0.001	n/a	GoodResponse	1	n/a	n/a	2	4	Fixation	Win	True
52.065	0.36	Win2	1.0	0.004	Yes	3.281	-0.004	3.0	GoodResponse	1	0.207	51.272	2	4	Target	Win	True
52.272	0.3	Win2	1.0	0.004	Yes	3.281	-0.004	3.0	GoodResponse	1	0.207	n/a	2	4	ButtonPress	Win	True
52.433	0.34	Win2	1.0	n/a	Yes	3.281	n/a	n/a	GoodResponse	1	n/a	n/a	2	4	Blank	Win	True
52.767	1.45	Win2	1.0	n/a	Yes	3.281	n/a	5.0	GoodResponse	1	0.036	51.803	2	4	Feedback	Win	True
54.221	3.281	Win2	1.0	n/a	Yes	3.281	n/a	n/a	GoodResponse	1	0.0	n/a	2	4	ISIslide	Win	True
57.531	0.25	Win2	1.0	0.0	Yes	2.769	0.031	n/a	GoodResponse	1	n/a	n/a	3	5	Cue	Win	True
57.782	4.0	Win2	1.0	0.0	Yes	2.769	0.001	n/a	GoodResponse	1	n/a	n/a	3	5	Fixation	Win	True
61.777	0.35	Win2	1.0	0.004	Yes	2.769	-0.004	3.0	GoodResponse	1	0.188	60.965	3	5	Target	Win	True
61.965	0.3	Win2	1.0	0.004	Yes	2.769	-0.004	3.0	GoodResponse	1	0.188	n/a	3	5	ButtonPress	Win	True
62.128	0.35	Win2	1.0	n/a	Yes	2.769	n/a	n/a	GoodResponse	1	n/a	n/a	3	5	Blank	Win	True
62.479	1.45	Win2	1.0	n/a	Yes	2.769	n/a	5.0	GoodResponse	1	0.031	61.51	3	5	Feedback	Win	True
63.934	2.769	Win2	1.0	n/a	Yes	2.769	n/a	n/a	GoodResponse	1	0.0	n/a	3	5	ISIslide	Win	True
66.725	0.25	Lose2	1.0	0.0	Yes	2.725	0.025	n/a	GoodResponse	0	n/a	n/a	3	6	Cue	AvoidedLoss	True
66.976	3.95	Lose2	1.0	0.0	Yes	2.725	0.001	n/a	GoodResponse	0	n/a	n/a	3	6	Fixation	AvoidedLoss	True
70.921	0.34	Lose2	1.0	0.004	Yes	2.725	-0.004	3.0	GoodResponse	0	0.184	70.105	3	6	Target	AvoidedLoss	True
71.105	0.3	Lose2	1.0	0.004	Yes	2.725	-0.004	3.0	GoodResponse	0	0.184	n/a	3	6	ButtonPress	AvoidedLoss	True
71.272	0.36	Lose2	1.0	n/a	Yes	2.725	n/a	n/a	GoodResponse	0	n/a	n/a	3	6	Blank	AvoidedLoss	True
71.623	1.45	Lose2	1.0	n/a	Yes	2.725	n/a	5.0	GoodResponse	0	0.009	70.632	3	6	Feedback	AvoidedLoss	True
73.078	2.725	Lose2	1.0	n/a	Yes	2.725	n/a	n/a	GoodResponse	0	0.0	n/a	3	6	ISIslide	AvoidedLoss	True
75.819	0.25	Lose2	1.0	0.0	Yes	4.031	0.019	n/a	GoodResponse	0	n/a	n/a	3	7	Cue	AvoidedLoss	True
76.07	4.05	Lose2	1.0	0.0	Yes	4.031	0.001	n/a	GoodResponse	0	n/a	n/a	3	7	Fixation	AvoidedLoss	True
80.115	0.33	Lose2	1.0	0.004	Yes	4.031	-0.004	3.0	GoodResponse	0	0.183	79.298	3	7	Target	AvoidedLoss	True
80.298	0.3	Lose2	1.0	0.004	Yes	4.031	-0.004	3.0	GoodResponse	0	0.183	n/a	3	7	ButtonPress	AvoidedLoss	True
80.45	0.37	Lose2	1.0	n/a	Yes	4.031	n/a	n/a	GoodResponse	0	n/a	n/a	3	7	Blank	AvoidedLoss	True
80.817	1.45	Lose2	1.0	n/a	Yes	4.031	n/a	5.0	GoodResponse	0	0.035	79.852	3	7	Feedback	AvoidedLoss	True
82.272	4.031	Lose2	1.0	n/a	Yes	4.031	n/a	n/a	GoodResponse	0	0.0	n/a	3	7	ISIslide	AvoidedLoss	True
86.317	0.25	Lose2	1.0	0.0	Yes	3.033	0.017	n/a	GoodResponse	0	n/a	n/a	3	8	Cue	AvoidedLoss	True
86.568	3.95	Lose2	1.0	0.0	Yes	3.033	0.001	n/a	GoodResponse	0	n/a	n/a	3	8	Fixation	AvoidedLoss	True
90.513	0.32	Lose2	1.0	0.004	Yes	3.033	-0.004	3.0	GoodResponse	0	0.193	89.706	3	8	Target	AvoidedLoss	True
90.706	0.3	Lose2	1.0	0.004	Yes	3.033	-0.004	3.0	GoodResponse	0	0.193	n/a	3	8	ButtonPress	AvoidedLoss	True
90.847	0.38	Lose2	1.0	n/a	Yes	3.033	n/a	n/a	GoodResponse	0	n/a	n/a	3	8	Blank	AvoidedLoss	True
91.215	1.45	Lose2	1.0	n/a	Yes	3.033	n/a	5.0	GoodResponse	0	0.026	90.241	3	8	Feedback	AvoidedLoss	True
92.669	3.033	Lose2	1.0	n/a	Yes	3.033	n/a	n/a	GoodResponse	0	0.0	n/a	3	8	ISIslide	AvoidedLoss	True
95.729	0.25	Lose2	1.0	0.0	Yes	3.121	0.029	n/a	GoodResponse	0	n/a	n/a	3	9	Cue	AvoidedLoss	True
95.979	3.95	Lose2	1.0	0.0	Yes	3.121	0.0	n/a	GoodResponse	0	n/a	n/a	3	9	Fixation	AvoidedLoss	True
99.941	0.31	Lose2	1.0	0.0	Yes	3.121	0.012	3.0	GoodResponse	0	0.204	99.145	3	9	Target	AvoidedLoss	True
100.145	0.3	Lose2	1.0	0.0	Yes	3.121	0.012	3.0	GoodResponse	0	0.204	n/a	3	9	ButtonPress	AvoidedLoss	True
100.242	0.39	Lose2	1.0	n/a	Yes	3.121	n/a	n/a	GoodResponse	0	n/a	n/a	3	9	Blank	AvoidedLoss	True
100.627	1.45	Lose2	1.0	n/a	Yes	3.121	n/a	5.0	GoodResponse	0	0.029	99.656	3	9	Feedback	AvoidedLoss	True
102.081	3.121	Lose2	1.0	n/a	Yes	3.121	n/a	n/a	GoodResponse	0	0.0	n/a	3	9	ISIslide	AvoidedLoss	True
105.224	0.25	Control	1.0	0.0	Yes	3.276	0.024	n/a	GoodResponse	0	n/a	n/a	3	10	Cue	Neutral	True
105.474	4.0	Control	1.0	0.0	Yes	3.276	0.0	n/a	GoodResponse	0	n/a	n/a	3	10	Fixation	Neutral	True
109.47	0.3	Control	1.0	0.004	Yes	3.276	-0.004	3.0	GoodResponse	0	0.211	108.681	3	10	Target	Neutral	True
109.681	0.3	Control	1.0	0.004	Yes	3.276	-0.004	3.0	GoodResponse	0	0.211	n/a	3	10	ButtonPress	Neutral	True
109.77	0.4	Control	1.0	n/a	Yes	3.276	n/a	n/a	GoodResponse	0	n/a	n/a	3	10	Blank	Neutral	True
110.172	1.45	Control	1.0	n/a	Yes	3.276	n/a	5.0	GoodResponse	0	0.045	109.217	3	10	Feedback	Neutral	True
111.626	3.276	Control	1.0	n/a	Yes	3.276	n/a	n/a	GoodResponse	0	0.0	n/a	3	10	ISIslide	Neutral	True
114.919	0.25	Lose2	1.0	0.0	Yes	2.731	0.019	n/a	GoodResponse	0	n/a	n/a	3	11	Cue	AvoidedLoss	True
115.17	4.05	Lose2	1.0	0.0	Yes	2.731	0.001	n/a	GoodResponse	0	n/a	n/a	3	11	Fixation	AvoidedLoss	True
119.215	0.29	Lose2	1.0	0.004	Yes	2.731	-0.004	3.0	GoodResponse	0	0.182	118.397	3	11	Target	AvoidedLoss	True
119.397	0.3	Lose2	1.0	0.004	Yes	2.731	-0.004	3.0	GoodResponse	0	0.182	n/a	3	11	ButtonPress	AvoidedLoss	True
119.516	0.41	Lose2	1.0	n/a	Yes	2.731	n/a	n/a	GoodResponse	0	n/a	n/a	3	11	Blank	AvoidedLoss	True
119.917	1.45	Lose2	1.0	n/a	Yes	2.731	n/a	5.0	GoodResponse	0	0.008	118.925	3	11	Feedback	AvoidedLoss	True
121.372	2.731	Lose2	1.0	n/a	Yes	2.731	n/a	n/a	GoodResponse	0	0.0	n/a	3	11	ISIslide	AvoidedLoss	True
124.13	0.25	Control	1.0	0.0	Yes	2.97	0.03	n/a	GoodResponse	0	n/a	n/a	3	12	Cue	Neutral	True
124.381	3.9	Control	1.0	0.0	Yes	2.97	0.001	n/a	GoodResponse	0	n/a	n/a	3	12	Fixation	Neutral	True
128.276	0.28	Control	1.0	0.004	Yes	2.97	-0.004	3.0	GoodResponse	0	0.187	127.463	3	12	Target	Neutral	True
128.463	0.3	Control	1.0	0.004	Yes	2.97	-0.004	3.0	GoodResponse	0	0.187	n/a	3	12	ButtonPress	Neutral	True
128.56	0.42	Control	1.0	n/a	Yes	2.97	n/a	n/a	GoodResponse	0	n/a	n/a	3	12	Blank	Neutral	True
128.978	1.45	Control	1.0	n/a	Yes	2.97	n/a	5.0	GoodResponse	0	0.019	127.997	3	12	Feedback	Neutral	True
130.432	2.97	Control	1.0	n/a	Yes	2.97	n/a	n/a	GoodResponse	0	0.0	n/a	3	12	ISIslide	Neutral	True
133.424	0.25	Control	1.0	0.001	Yes	2.776	0.024	n/a	GoodResponse	0	n/a	n/a	3	13	Cue	Neutral	True
133.675	4.0	Control	1.0	0.0	Yes	2.776	0.001	n/a	GoodResponse	0	n/a	n/a	3	13	Fixation	Neutral	True
137.67	0.27	Control	1.0	0.004	Yes	2.776	-0.004	3.0	GoodResponse	0	0.215	136.885	3	13	Target	Neutral	True
137.885	0.3	Control	1.0	0.004	Yes	2.776	-0.004	3.0	GoodResponse	0	0.215	n/a	3	13	ButtonPress	Neutral	True
137.955	0.43	Control	1.0	n/a	Yes	2.776	n/a	n/a	GoodResponse	0	n/a	n/a	3	13	Blank	Neutral	True
138.373	1.45	Control	1.0	n/a	Yes	2.776	n/a	5.0	GoodResponse	0	0.038	137.411	3	13	Feedback	Neutral	True
139.827	2.776	Control	1.0	n/a	Yes	2.776	n/a	n/a	GoodResponse	0	0.0	n/a	3	13	ISIslide	Neutral	True
142.619	0.25	Win2	1.0	0.0	Yes	2.681	0.019	n/a	GoodResponse	1	n/a	n/a	4	14	Cue	Win	True
142.869	4.1	Win2	1.0	0.0	Yes	2.681	0.0	n/a	GoodResponse	1	n/a	n/a	4	14	Fixation	Win	True
146.965	0.26	Win2	1.0	0.004	Yes	2.681	-0.004	3.0	GoodResponse	1	0.193	146.158	4	14	Target	Win	True
147.158	0.3	Win2	1.0	0.004	Yes	2.681	-0.004	3.0	GoodResponse	1	0.193	n/a	4	14	ButtonPress	Win	True
147.232	0.44	Win2	1.0	n/a	Yes	2.681	n/a	n/a	GoodResponse	1	n/a	n/a	4	14	Blank	Win	True
147.667	1.45	Win2	1.0	n/a	Yes	2.681	n/a	5.0	GoodResponse	1	0.013	146.68	4	14	Feedback	Win	True
149.121	2.681	Win2	1.0	n/a	Yes	2.681	n/a	n/a	GoodResponse	1	0.0	n/a	4	14	ISIslide	Win	True
151.829	0.25	Control	1.0	0.001	Yes	2.971	0.029	n/a	GoodResponse	0	n/a	n/a	4	15	Cue	Neutral	True
152.08	4.0	Control	1.0	0.0	Yes	2.971	0.001	n/a	GoodResponse	0	n/a	n/a	4	15	Fixation	Neutral	True
156.075	0.25	Control	1.0	0.004	Yes	2.971	-0.004	3.0	GoodResponse	0	0.198	155.273	4	15	Target	Neutral	True
156.273	0.3	Control	1.0	0.004	Yes	2.971	-0.004	3.0	GoodResponse	0	0.198	n/a	4	15	ButtonPress	Neutral	True
156.326	0.45	Control	1.0	n/a	Yes	2.971	n/a	n/a	GoodResponse	0	n/a	n/a	4	15	Blank	Neutral	True
156.778	1.45	Control	1.0	n/a	Yes	2.971	n/a	5.0	GoodResponse	0	0.024	155.802	4	15	Feedback	Neutral	True
158.232	2.971	Control	1.0	n/a	Yes	2.971	n/a	n/a	GoodResponse	0	0.0	n/a	4	15	ISIslide	Neutral	True
161.224	0.25	Win2	1.0	0.0	Yes	2.876	0.024	n/a	GoodResponse	1	n/a	n/a	5	16	Cue	Win	True
161.475	4.0	Win2	1.0	0.0	Yes	2.876	0.001	n/a	GoodResponse	1	n/a	n/a	5	16	Fixation	Win	True
165.47	0.24	Win2	1.0	0.004	Yes	2.876	-0.004	3.0	GoodResponse	1	0.216	164.686	5	16	Target	Win	True
165.686	0.3	Win2	1.0	0.004	Yes	2.876	-0.004	3.0	GoodResponse	1	0.216	n/a	5	16	ButtonPress	Win	True
165.721	0.46	Win2	1.0	n/a	Yes	2.876	n/a	n/a	GoodResponse	1	n/a	n/a	5	16	Blank	Win	True
166.172	1.45	Win2	1.0	n/a	Yes	2.876	n/a	5.0	GoodResponse	1	0.044	165.216	5	16	Feedback	Win	True
167.627	2.876	Win2	1.0	n/a	Yes	2.876	n/a	n/a	GoodResponse	1	0.0	n/a	5	16	ISIslide	Win	True
170.519	0.25	Lose2	1.0	0.0	Yes	2.731	0.019	n/a	GoodResponse	0	n/a	n/a	5	17	Cue	AvoidedLoss	True
170.769	3.95	Lose2	1.0	0.0	Yes	2.731	0.0	n/a	GoodResponse	0	n/a	n/a	5	17	Fixation	AvoidedLoss	True
174.731	0.23	Lose2	1.0	0.0	Yes	2.731	0.012	3.0	GoodResponse	0	0.175	173.906	5	17	Target	AvoidedLoss	True
174.906	0.3	Lose2	1.0	0.0	Yes	2.731	0.012	3.0	GoodResponse	0	0.175	n/a	5	17	ButtonPress	AvoidedLoss	True
174.948	0.47	Lose2	1.0	n/a	Yes	2.731	n/a	n/a	GoodResponse	0	n/a	n/a	5	17	Blank	AvoidedLoss	True
175.417	1.45	Lose2	1.0	n/a	Yes	2.731	n/a	5.0	GoodResponse	0	0.018	174.435	5	17	Feedback	AvoidedLoss	True
176.871	2.731	Lose2	1.0	n/a	Yes	2.731	n/a	n/a	GoodResponse	0	0.0	n/a	5	17	ISIslide	AvoidedLoss	True
179.629	0.25	Lose2	1.0	0.0	Yes	2.721	0.029	n/a	GoodResponse	0	n/a	n/a	5	18	Cue	AvoidedLoss	True
179.88	4.05	Lose2	1.0	0.0	Yes	2.721	0.001	n/a	GoodResponse	0	n/a	n/a	5	18	Fixation	AvoidedLoss	True
183.925	0.22	Lose2	1.0	0.004	Yes	2.721	-0.004	3.0	GoodResponse	0	0.2	183.125	5	18	Target	AvoidedLoss	True
184.125	0.3	Lose2	1.0	0.004	Yes	2.721	-0.004	3.0	GoodResponse	0	0.2	n/a	5	18	ButtonPress	AvoidedLoss	True
184.159	0.48	Lose2	1.0	n/a	Yes	2.721	n/a	n/a	GoodResponse	0	n/a	n/a	5	18	Blank	AvoidedLoss	True
184.627	1.45	Lose2	1.0	n/a	Yes	2.721	n/a	5.0	GoodResponse	0	0.028	183.655	5	18	Feedback	AvoidedLoss	True
186.082	2.721	Lose2	1.0	n/a	Yes	2.721	n/a	n/a	GoodResponse	0	0.0	n/a	5	18	ISIslide	AvoidedLoss	True
188.823	0.25	Control	0.95	0.0	No	2.927	0.023	n/a	NoResponse	0	n/a	n/a	5	19	Cue	Neutral	True
189.074	3.95	Control	0.95	0.0	No	2.927	0.001	3.0	NoResponse	0	3.848	191.922	5	19	Fixation	Neutral	True
192.922	0.3	Control	0.95	0.0	No	2.927	0.001	3.0	NoResponse	0	3.848	n/a	5	19	ButtonPress	Neutral	True
193.019	0.21	Control	0.95	0.004	No	2.927	-0.004	n/a	NoResponse	0	n/a	n/a	5	19	Target	Neutral	True
193.236	0.49	Control	0.95	n/a	No	2.927	n/a	n/a	NoResponse	0	n/a	n/a	5	19	Blank	Neutral	True
193.721	1.45	Control	0.95	n/a	No	2.927	n/a	5.0	NoResponse	0	0.008	192.729	5	19	Feedback	Neutral	True
195.176	2.927	Control	0.95	n/a	No	2.927	n/a	n/a	NoResponse	0	0.0	n/a	5	19	ISIslide	Neutral	True
198.118	0.25	Control	0.9048	0.0	No	2.632	0.018	n/a	LatePress	0	n/a	n/a	5	20	Cue	Neutral	True
198.368	4.05	Control	0.9048	0.001	No	2.632	0.0	n/a	LatePress	0	n/a	n/a	5	20	Fixation	Neutral	True
202.414	0.2	Control	0.9048	0.004	No	2.632	-0.004	3.0	LatePress	0	0.2	201.614	5	20	Target	Neutral	True
202.614	0.5	Control	0.9048	n/a	No	2.632	n/a	n/a	LatePress	0	n/a	n/a	5	20	Blank	Neutral	True
202.614	0.3	Control	0.9048	0.004	No	2.632	-0.004	3.0	LatePress	0	0.2	n/a	5	20	ButtonPress	Neutral	True
203.116	1.45	Control	0.9048	n/a	No	2.632	n/a	5.0	LatePress	0	0.026	202.142	5	20	Feedback	Neutral	True
204.57	2.632	Control	0.9048	n/a	No	2.632	n/a	n/a	LatePress	0	0.0	n/a	5	20	ISIslide	Neutral	True
207.228	0.25	Control	0.8636	0.0	No	2.772	0.028	n/a	NoResponse	0	n/a	n/a	5	21	Cue	Neutral	True
207.479	4.1	Control	0.8636	0.0	No	2.772	0.001	n/a	NoResponse	0	n/a	n/a	5	21	Fixation	Neutral	True
211.575	0.19	Control	0.8636	0.003	No	2.772	-0.003	3.0	NoResponse	0	0.223	210.798	5	21	Target	Neutral	True
211.775	0.51	Control	0.8636	n/a	No	2.772	n/a	n/a	NoResponse	0	n/a	n/a	5	21	Blank	Neutral	True
211.798	0.3	Control	0.8636	0.003	No	2.772	-0.003	3.0	NoResponse	0	0.223	n/a	5	21	ButtonPress	Neutral	True
212.277	1.45	Control	0.8636	n/a	No	2.772	n/a	5.0	NoResponse	0	0.036	211.313	5	21	Feedback	Neutral	True
213.731	2.772	Control	0.8636	n/a	No	2.772	n/a	n/a	NoResponse	0	0.0	n/a	5	21	ISIslide	Neutral	True
216.523	0.25	Control	0.8261	0.0	No	2.777	0.023	n/a	NoResponse	0	n/a	n/a	5	22	Cue	Neutral	True
216.773	4.0	Control	0.8261	0.0	No	2.777	0.0	n/a	NoResponse	0	n/a	n/a	5	22	Fixation	Neutral	True
220.769	0.18	Control	0.8261	0.004	No	2.777	-0.004	3.0	NoResponse	0	0.205	219.974	5	22	Target	Neutral	True
220.953	0.52	Control	0.8261	n/a	No	2.777	n/a	n/a	NoResponse	0	n/a	n/a	5	22	Blank	Neutral	True
220.974	0.3	Control	0.8261	0.004	No	2.777	-0.004	3.0	NoResponse	0	0.205	n/a	5	22	ButtonPress	Neutral	True
221.471	1.45	Control	0.8261	n/a	No	2.777	n/a	5.0	NoResponse	0	0.013	220.484	5	22	Feedback	Neutral	True
222.925	2.777	Control	0.8261	n/a	No	2.777	n/a	n/a	NoResponse	0	0.0	n/a	5	22	ISIslide	Neutral	True
225.717	0.25	Control	0.7917000000000001	0.0	No	2.783	0.017	n/a	NoResponse	0	n/a	n/a	5	23	Cue	Neutral	True
225.968	3.9	Control	0.7917000000000001	0.0	No	2.783	0.001	n/a	NoResponse	0	n/a	n/a	5	23	Fixation	Neutral	True
229.862	0.17	Control	0.7917000000000001	0.005	No	2.783	-0.005	3.0	NoResponse	0	0.196	229.058	5	23	Target	Neutral	True
230.046	0.53	Control	0.7917000000000001	n/a	No	2.783	n/a	n/a	NoResponse	0	n/a	n/a	5	23	Blank	Neutral	True
230.058	0.3	Control	0.7917000000000001	0.005	No	2.783	-0.005	3.0	NoResponse	0	0.196	n/a	5	23	ButtonPress	Neutral	True
230.565	1.45	Control	0.7917000000000001	n/a	No	2.783	n/a	5.0	NoResponse	0	0.041	229.606	5	23	Feedback	Neutral	True
232.019	2.783	Control	0.7917000000000001	n/a	No	2.783	n/a	n/a	NoResponse	0	0.0	n/a	5	23	ISIslide	Neutral	True
234.827	0.25	Win2	0.76	0.0	No	3.123	0.027	n/a	NoResponse	0	n/a	n/a	5	24	Cue	MissedWin	True
235.078	3.95	Win2	0.76	0.0	No	3.123	0.001	n/a	NoResponse	0	n/a	n/a	5	24	Fixation	MissedWin	True
239.023	0.16	Win2	0.76	0.004	No	3.123	-0.004	3.0	NoResponse	0	0.188	238.211	5	24	Target	MissedWin	True
239.19	0.54	Win2	0.76	n/a	No	3.123	n/a	n/a	NoResponse	0	n/a	n/a	5	24	Blank	MissedWin	True
239.211	0.3	Win2	0.76	0.004	No	3.123	-0.004	3.0	NoResponse	0	0.188	n/a	5	24	ButtonPress	MissedWin	True
239.725	1.45	Win2	0.76	n/a	No	3.123	n/a	5.0	NoResponse	0	0.008	238.733	5	24	Feedback	MissedWin	True
241.18	3.123	Win2	0.76	n/a	No	3.123	n/a	n/a	NoResponse	0	0.0	n/a	5	24	ISIslide	MissedWin	True
244.322	0.25	Win2	0.7308	0.0	No	3.078	0.022	n/a	NoResponse	0	n/a	n/a	5	25	Cue	MissedWin	True
244.573	4.0	Win2	0.7308	0.0	No	3.078	0.001	n/a	NoResponse	0	n/a	n/a	5	25	Fixation	MissedWin	True
248.568	0.15	Win2	0.7308	0.004	No	3.078	-0.004	3.0	NoResponse	0	0.196	247.764	5	25	Target	MissedWin	True
248.719	0.55	Win2	0.7308	n/a	No	3.078	n/a	n/a	NoResponse	0	n/a	n/a	5	25	Blank	MissedWin	True
248.764	0.3	Win2	0.7308	0.004	No	3.078	-0.004	3.0	NoResponse	0	0.196	n/a	5	25	ButtonPress	MissedWin	True
249.27	1.45	Win2	0.7308	n/a	No	3.078	n/a	5.0	NoResponse	0	0.018	248.288	5	25	Feedback	MissedWin	True
250.725	3.078	Win2	0.7308	n/a	No	3.078	n/a	n/a	NoResponse	0	0.0	n/a	5	25	ISIslide	MissedWin	True
253.817	0.25	Win2	0.7037	0.0	No	2.933	0.017	n/a	NoResponse	0	n/a	n/a	5	26	Cue	MissedWin	True
254.068	3.95	Win2	0.7037	0.0	No	2.933	0.001	n/a	NoResponse	0	n/a	n/a	5	26	Fixation	MissedWin	True
258.013	0.15	Win2	0.7037	0.004	No	2.933	-0.004	3.0	NoResponse	0	0.198	257.211	5	26	Target	MissedWin	True
258.164	0.55	Win2	0.7037	n/a	No	2.933	n/a	n/a	NoResponse	0	n/a	n/a	5	26	Blank	MissedWin	True
258.211	0.3	Win2	0.7037	0.004	No	2.933	-0.004	3.0	NoResponse	0	0.198	n/a	5	26	ButtonPress	MissedWin	True
258.715	1.45	Win2	0.7037	n/a	No	2.933	n/a	5.0	NoResponse	0	0.036	257.751	5	26	Feedback	MissedWin	True
260.17	2.933	Win2	0.7037	n/a	No	2.933	n/a	n/a	NoResponse	0	0.0	n/a	5	26	ISIslide	MissedWin	True
263.128	0.25	Lose2	0.6786	0.001	No	2.822	0.028	n/a	NoResponse	-1	n/a	n/a	4	27	Cue	Loss	False
263.379	4.05	Lose2	0.6786	0.0	No	2.822	0.001	3.0	NoResponse	-1	3.355	265.734	4	27	Fixation	Loss	False
266.734	0.3	Lose2	0.6786	0.0	No	2.822	0.001	3.0	NoResponse	-1	3.355	n/a	4	27	ButtonPress	Loss	False
267.425	0.15	Lose2	0.6786	0.003	No	2.822	-0.003	3.0	NoResponse	-1	0.193	266.618	4	27	Target	Loss	False
267.575	0.55	Lose2	0.6786	n/a	No	2.822	n/a	n/a	NoResponse	-1	n/a	n/a	4	27	Blank	Loss	False
267.618	0.3	Lose2	0.6786	0.003	No	2.822	-0.003	3.0	NoResponse	-1	0.193	n/a	4	27	ButtonPress	Loss	False
268.127	1.45	Lose2	0.6786	n/a	No	2.822	n/a	5.0	NoResponse	-1	0.039	267.166	4	27	Feedback	Loss	False
269.581	2.822	Lose2	0.6786	n/a	No	2.822	n/a	n/a	NoResponse	-1	0.0	n/a	4	27	ISIslide	Loss	False
272.423	0.25	Control	0.6552	0.0	No	2.827	0.023	n/a	NoResponse	0	n/a	n/a	4	28	Cue	Neutral	True
272.674	4.05	Control	0.6552	0.0	No	2.827	0.001	n/a	NoResponse	0	n/a	n/a	4	28	Fixation	Neutral	True
276.719	0.15	Control	0.6552	0.004	No	2.827	-0.004	3.0	NoResponse	0	0.195	275.914	4	28	Target	Neutral	True
276.87	0.55	Control	0.6552	n/a	No	2.827	n/a	n/a	NoResponse	0	n/a	n/a	4	28	Blank	Neutral	True
276.914	0.3	Control	0.6552	0.004	No	2.827	-0.004	3.0	NoResponse	0	0.195	n/a	4	28	ButtonPress	Neutral	True
277.421	1.45	Control	0.6552	n/a	No	2.827	n/a	5.0	NoResponse	0	0.012	276.433	4	28	Feedback	Neutral	True
278.876	2.827	Control	0.6552	n/a	No	2.827	n/a	n/a	NoResponse	0	0.0	n/a	4	28	ISIslide	Neutral	True
281.717	0.25	Lose2	0.6333	0.0	No	2.833	0.017	n/a	NoResponse	-1	n/a	n/a	3	29	Cue	Loss	True
281.968	3.95	Lose2	0.6333	0.0	No	2.833	0.001	n/a	NoResponse	-1	n/a	n/a	3	29	Fixation	Loss	True
285.913	0.15	Lose2	0.6333	0.004	No	2.833	-0.004	3.0	NoResponse	-1	0.187	285.1	3	29	Target	Loss	True
286.064	0.55	Lose2	0.6333	n/a	No	2.833	n/a	n/a	NoResponse	-1	n/a	n/a	3	29	Blank	Loss	True
286.1	0.3	Lose2	0.6333	0.004	No	2.833	-0.004	3.0	NoResponse	-1	0.187	n/a	3	29	ButtonPress	Loss	True
286.615	1.45	Lose2	0.6333	n/a	No	2.833	n/a	5.0	NoResponse	-1	0.038	285.653	3	29	Feedback	Loss	True
288.07	2.833	Lose2	0.6333	n/a	No	2.833	n/a	n/a	NoResponse	-1	0.0	n/a	3	29	ISIslide	Loss	True
290.928	0.25	Win2	0.6129	0.0	No	2.772	0.028	n/a	NoResponse	0	n/a	n/a	3	30	Cue	MissedWin	True
291.179	3.9	Win2	0.6129	0.0	No	2.772	0.001	n/a	NoResponse	0	n/a	n/a	3	30	Fixation	MissedWin	True
295.074	0.16	Win2	0.6129	0.004	No	2.772	-0.004	3.0	NoResponse	0	0.212	294.286	3	30	Target	MissedWin	True
295.241	0.54	Win2	0.6129	n/a	No	2.772	n/a	n/a	NoResponse	0	n/a	n/a	3	30	Blank	MissedWin	True
295.286	0.3	Win2	0.6129	0.004	No	2.772	-0.004	3.0	NoResponse	0	0.212	n/a	3	30	ButtonPress	MissedWin	True
295.776	1.45	Win2	0.6129	n/a	No	2.772	n/a	5.0	NoResponse	0	0.048	294.824	3	30	Feedback	MissedWin	True
297.23	2.772	Win2	0.6129	n/a	No	2.772	n/a	n/a	NoResponse	0	0.0	n/a	3	30	ISIslide	MissedWin	True
300.022	0.25	Lose2	0.625	0.0	Yes	2.828	0.022	n/a	GoodResponse	0	n/a	n/a	3	31	Cue	AvoidedLoss	True
300.273	4.05	Lose2	0.625	0.0	Yes	2.828	0.001	n/a	GoodResponse	0	n/a	n/a	3	31	Fixation	AvoidedLoss	True
304.318	0.17	Lose2	0.625	0.004	Yes	2.828	-0.004	3.0	GoodResponse	0	0.13	303.448	3	31	Target	AvoidedLoss	True
304.448	0.3	Lose2	0.625	0.004	Yes	2.828	-0.004	3.0	GoodResponse	0	0.13	n/a	3	31	ButtonPress	AvoidedLoss	True
304.502	0.53	Lose2	0.625	n/a	Yes	2.828	n/a	n/a	GoodResponse	0	n/a	n/a	3	31	Blank	AvoidedLoss	True
305.02	1.45	Lose2	0.625	n/a	Yes	2.828	n/a	5.0	GoodResponse	0	0.023	304.043	3	31	Feedback	AvoidedLoss	True
306.475	2.828	Lose2	0.625	n/a	Yes	2.828	n/a	n/a	GoodResponse	0	0.0	n/a	3	31	ISIslide	AvoidedLoss	True
309.316	0.25	Lose2	0.6061	0.001	No	2.634	0.016	n/a	NoResponse	-1	n/a	n/a	2	32	Cue	Loss	True
309.567	4.15	Lose2	0.6061	0.0	No	2.634	0.001	3.0	NoResponse	-1	3.965	312.532	2	32	Fixation	Loss	True
313.532	0.3	Lose2	0.6061	0.0	No	2.634	0.001	3.0	NoResponse	-1	3.965	n/a	2	32	ButtonPress	Loss	True
313.713	0.18	Lose2	0.6061	0.003	No	2.634	-0.003	n/a	NoResponse	-1	n/a	n/a	2	32	Target	Loss	True
313.897	0.52	Lose2	0.6061	n/a	No	2.634	n/a	n/a	NoResponse	-1	n/a	n/a	2	32	Blank	Loss	True
314.415	1.45	Lose2	0.6061	n/a	No	2.634	n/a	5.0	NoResponse	-1	0.042	313.457	2	32	Feedback	Loss	True
315.869	2.634	Lose2	0.6061	n/a	No	2.634	n/a	n/a	NoResponse	-1	0.0	n/a	2	32	ISIslide	Loss	True
318.527	0.25	Win2	0.5882000000000001	0.0	No	2.673	0.027	n/a	NoResponse	0	n/a	n/a	2	33	Cue	MissedWin	True
318.778	4.0	Win2	0.5882000000000001	0.0	No	2.673	0.001	n/a	NoResponse	0	n/a	n/a	2	33	Fixation	MissedWin	True
322.773	0.19	Win2	0.5882000000000001	0.004	No	2.673	-0.004	3.0	NoResponse	0	0.212	321.985	2	33	Target	MissedWin	True
322.974	0.51	Win2	0.5882000000000001	n/a	No	2.673	n/a	n/a	NoResponse	0	n/a	n/a	2	33	Blank	MissedWin	True
322.985	0.3	Win2	0.5882000000000001	0.004	No	2.673	-0.004	3.0	NoResponse	0	0.212	n/a	2	33	ButtonPress	MissedWin	True
323.475	1.45	Win2	0.5882000000000001	n/a	No	2.673	n/a	5.0	NoResponse	0	0.008	322.483	2	33	Feedback	MissedWin	True
324.93	2.673	Win2	0.5882000000000001	n/a	No	2.673	n/a	n/a	NoResponse	0	0.0	n/a	2	33	ISIslide	MissedWin	True
327.621	0.25	Lose2	0.5714	0.0	No	2.629	0.021	n/a	NoResponse	-1	n/a	n/a	1	34	Cue	Loss	True
327.872	4.05	Lose2	0.5714	0.0	No	2.629	0.001	n/a	NoResponse	-1	n/a	n/a	1	34	Fixation	Loss	True
331.917	0.2	Lose2	0.5714	0.004	No	2.629	-0.004	3.0	NoResponse	-1	0.204	331.121	1	34	Target	Loss	True
332.118	0.5	Lose2	0.5714	n/a	No	2.629	n/a	n/a	NoResponse	-1	n/a	n/a	1	34	Blank	Loss	True
332.121	0.3	Lose2	0.5714	0.004	No	2.629	-0.004	3.0	NoResponse	-1	0.204	n/a	1	34	ButtonPress	Loss	True
332.619	1.45	Lose2	0.5714	n/a	No	2.629	n/a	5.0	NoResponse	-1	0.034	331.653	1	34	Feedback	Loss	True
334.074	2.629	Lose2	0.5714	n/a	No	2.629	n/a	n/a	NoResponse	-1	0.0	n/a	1	34	ISIslide	Loss	True
336.732	0.25	Lose2	0.5832999999999999	0.0	Yes	2.668	0.032	n/a	GoodResponse	0	n/a	n/a	1	35	Cue	AvoidedLoss	True
336.982	4.0	Lose2	0.5832999999999999	0.0	Yes	2.668	0.0	n/a	GoodResponse	0	n/a	n/a	1	35	Fixation	AvoidedLoss	True
340.978	0.21	Lose2	0.5832999999999999	0.004	Yes	2.668	-0.004	3.0	GoodResponse	0	0.203	340.181	1	35	Target	AvoidedLoss	True
341.181	0.3	Lose2	0.5832999999999999	0.004	Yes	2.668	-0.004	3.0	GoodResponse	0	0.203	n/a	1	35	ButtonPress	AvoidedLoss	True
341.195	0.49	Lose2	0.5832999999999999	n/a	Yes	2.668	n/a	n/a	GoodResponse	0	n/a	n/a	1	35	Blank	AvoidedLoss	True
341.68	1.45	Lose2	0.5832999999999999	n/a	Yes	2.668	n/a	5.0	GoodResponse	0	0.046	340.726	1	35	Feedback	AvoidedLoss	True
343.134	2.668	Lose2	0.5832999999999999	n/a	Yes	2.668	n/a	n/a	GoodResponse	0	0.0	n/a	1	35	ISIslide	AvoidedLoss	True
345.825	0.25	Control	0.5946	0.001	Yes	2.675	0.025	n/a	GoodResponse	0	n/a	n/a	1	36	Cue	Neutral	True
346.076	4.0	Control	0.5946	0.0	Yes	2.675	0.001	n/a	GoodResponse	0	n/a	n/a	1	36	Fixation	Neutral	True
350.071	0.22	Control	0.5946	0.004	Yes	2.675	-0.004	3.0	GoodResponse	0	0.198	349.269	1	36	Target	Neutral	True
350.269	0.3	Control	0.5946	0.004	Yes	2.675	-0.004	3.0	GoodResponse	0	0.198	n/a	1	36	ButtonPress	Neutral	True
350.306	0.48	Control	0.5946	n/a	Yes	2.675	n/a	n/a	GoodResponse	0	n/a	n/a	1	36	Blank	Neutral	True
350.774	1.45	Control	0.5946	n/a	Yes	2.675	n/a	5.0	GoodResponse	0	0.024	349.798	1	36	Feedback	Neutral	True
352.228	2.675	Control	0.5946	n/a	Yes	2.675	n/a	n/a	GoodResponse	0	0.0	n/a	1	36	ISIslide	Neutral	True
354.919	0.25	Win2	0.6053000000000001	0.0	Yes	2.881	0.019	n/a	GoodResponse	1	n/a	n/a	2	37	Cue	Win	True
355.17	4.0	Win2	0.6053000000000001	0.0	Yes	2.881	0.001	n/a	GoodResponse	1	n/a	n/a	2	37	Fixation	Win	True
359.165	0.23	Win2	0.6053000000000001	0.004	Yes	2.881	-0.004	3.0	GoodResponse	1	0.195	358.36	2	37	Target	Win	True
359.36	0.3	Win2	0.6053000000000001	0.004	Yes	2.881	-0.004	3.0	GoodResponse	1	0.195	n/a	2	37	ButtonPress	Win	True
359.399	0.47	Win2	0.6053000000000001	n/a	Yes	2.881	n/a	n/a	GoodResponse	1	n/a	n/a	2	37	Blank	Win	True
359.867	1.45	Win2	0.6053000000000001	n/a	Yes	2.881	n/a	5.0	GoodResponse	1	0.008	358.875	2	37	Feedback	Win	True
361.322	2.881	Win2	0.6053000000000001	n/a	Yes	2.881	n/a	n/a	GoodResponse	1	0.0	n/a	2	37	ISIslide	Win	True
364.23	0.25	Lose2	0.6154	0.001	Yes	2.82	0.03	n/a	GoodResponse	0	n/a	n/a	2	38	Cue	AvoidedLoss	True
364.481	3.95	Lose2	0.6154	0.0	Yes	2.82	0.001	n/a	GoodResponse	0	n/a	n/a	2	38	Fixation	AvoidedLoss	True
368.426	0.24	Lose2	0.6154	0.004	Yes	2.82	-0.004	3.0	GoodResponse	0	0.198	367.624	2	38	Target	AvoidedLoss	True
368.624	0.3	Lose2	0.6154	0.004	Yes	2.82	-0.004	3.0	GoodResponse	0	0.198	n/a	2	38	ButtonPress	AvoidedLoss	True
368.677	0.46	Lose2	0.6154	n/a	Yes	2.82	n/a	n/a	GoodResponse	0	n/a	n/a	2	38	Blank	AvoidedLoss	True
369.128	1.45	Lose2	0.6154	n/a	Yes	2.82	n/a	5.0	GoodResponse	0	0.012	368.14	2	38	Feedback	AvoidedLoss	True
370.583	2.82	Lose2	0.6154	n/a	Yes	2.82	n/a	n/a	GoodResponse	0	0.0	n/a	2	38	ISIslide	AvoidedLoss	True
373.425	0.25	Win2	0.625	0.0	Yes	2.975	0.025	n/a	GoodResponse	1	n/a	n/a	3	39	Cue	Win	True
373.675	4.1	Win2	0.625	0.0	Yes	2.975	0.0	n/a	GoodResponse	1	n/a	n/a	3	39	Fixation	Win	True
377.771	0.25	Win2	0.625	0.004	Yes	2.975	-0.004	3.0	GoodResponse	1	0.203	376.974	3	39	Target	Win	True
377.974	0.3	Win2	0.625	0.004	Yes	2.975	-0.004	3.0	GoodResponse	1	0.203	n/a	3	39	ButtonPress	Win	True
378.022	0.45	Win2	0.625	n/a	Yes	2.975	n/a	n/a	GoodResponse	1	n/a	n/a	3	39	Blank	Win	True
378.473	1.45	Win2	0.625	n/a	Yes	2.975	n/a	5.0	GoodResponse	1	0.033	377.506	3	39	Feedback	Win	True
379.927	2.975	Win2	0.625	n/a	Yes	2.975	n/a	n/a	GoodResponse	1	0.0	n/a	3	39	ISIslide	Win	True
382.92	0.25	Win2	0.6341	0.0	Yes	2.73	0.02	n/a	GoodResponse	1	n/a	n/a	4	40	Cue	Win	True
383.17	3.95	Win2	0.6341	0.0	Yes	2.73	0.0	n/a	GoodResponse	1	n/a	n/a	4	40	Fixation	Win	True
387.132	0.26	Win2	0.6341	0.0	Yes	2.73	0.012	3.0	GoodResponse	1	0.209	386.341	4	40	Target	Win	True
387.341	0.3	Win2	0.6341	0.0	Yes	2.73	0.012	3.0	GoodResponse	1	0.209	n/a	4	40	ButtonPress	Win	True
387.383	0.44	Win2	0.6341	n/a	Yes	2.73	n/a	n/a	GoodResponse	1	n/a	n/a	4	40	Blank	Win	True
387.818	1.45	Win2	0.6341	n/a	Yes	2.73	n/a	5.0	GoodResponse	1	0.008	386.826	4	40	Feedback	Win	True
389.272	2.73	Win2	0.6341	n/a	Yes	2.73	n/a	n/a	GoodResponse	1	0.0	n/a	4	40	ISIslide	Win	True
392.03	0.25	Win2	0.6429	0.0	Yes	2.77	0.03	n/a	GoodResponse	1	n/a	n/a	5	41	Cue	Win	True
392.281	3.9	Win2	0.6429	0.0	Yes	2.77	0.001	n/a	GoodResponse	1	n/a	n/a	5	41	Fixation	Win	True
396.176	0.27	Win2	0.6429	0.004	Yes	2.77	-0.004	3.0	GoodResponse	1	0.207	395.383	5	41	Target	Win	True
396.383	0.3	Win2	0.6429	0.004	Yes	2.77	-0.004	3.0	GoodResponse	1	0.207	n/a	5	41	ButtonPress	Win	True
396.46	0.43	Win2	0.6429	n/a	Yes	2.77	n/a	n/a	GoodResponse	1	n/a	n/a	5	41	Blank	Win	True
396.878	1.45	Win2	0.6429	n/a	Yes	2.77	n/a	5.0	GoodResponse	1	0.017	395.895	5	41	Feedback	Win	True
398.332	2.77	Win2	0.6429	n/a	Yes	2.77	n/a	n/a	GoodResponse	1	0.0	n/a	5	41	ISIslide	Win	True
401.124	0.25	Control	0.6512	0.0	Yes	2.926	0.024	n/a	GoodResponse	0	n/a	n/a	5	42	Cue	Neutral	True
401.375	3.85	Control	0.6512	0.0	Yes	2.926	0.001	n/a	GoodResponse	0	n/a	n/a	5	42	Fixation	Neutral	True
405.22	0.28	Control	0.6512	0.004	Yes	2.926	-0.004	3.0	GoodResponse	0	0.214	404.434	5	42	Target	Neutral	True
405.434	0.3	Control	0.6512	0.004	Yes	2.926	-0.004	3.0	GoodResponse	0	0.214	n/a	5	42	ButtonPress	Neutral	True
405.504	0.42	Control	0.6512	n/a	Yes	2.926	n/a	n/a	GoodResponse	0	n/a	n/a	5	42	Blank	Neutral	True
405.922	1.45	Control	0.6512	n/a	Yes	2.926	n/a	5.0	GoodResponse	0	0.046	404.968	5	42	Feedback	Neutral	True
407.376	2.926	Control	0.6512	n/a	Yes	2.926	n/a	n/a	GoodResponse	0	0.0	n/a	5	42	ISIslide	Neutral	True
410.318	0.25	Win2	0.6591	0.0	Yes	3.182	0.018	n/a	GoodResponse	1	n/a	n/a	6	43	Cue	Win	True
410.569	4.0	Win2	0.6591	0.0	Yes	3.182	0.001	n/a	GoodResponse	1	n/a	n/a	6	43	Fixation	Win	True
414.564	0.29	Win2	0.6591	0.004	Yes	3.182	-0.004	3.0	GoodResponse	1	0.203	413.767	6	43	Target	Win	True
414.767	0.3	Win2	0.6591	0.004	Yes	3.182	-0.004	3.0	GoodResponse	1	0.203	n/a	6	43	ButtonPress	Win	True
414.865	0.41	Win2	0.6591	n/a	Yes	3.182	n/a	n/a	GoodResponse	1	n/a	n/a	6	43	Blank	Win	True
415.266	1.45	Win2	0.6591	n/a	Yes	3.182	n/a	5.0	GoodResponse	1	0.02	414.286	6	43	Feedback	Win	True
416.721	3.182	Win2	0.6591	n/a	Yes	3.182	n/a	n/a	GoodResponse	1	0.0	n/a	6	43	ISIslide	Win	True
419.93	0.25	Win2	0.6667000000000001	0.0	Yes	2.97	0.03	n/a	GoodResponse	1	n/a	n/a	7	44	Cue	Win	True
420.181	4.0	Win2	0.6667000000000001	0.0	Yes	2.97	0.001	n/a	GoodResponse	1	n/a	n/a	7	44	Fixation	Win	True
424.176	0.29	Win2	0.6667000000000001	0.004	Yes	2.97	-0.004	3.0	GoodResponse	1	0.228	423.404	7	44	Target	Win	True
424.404	0.3	Win2	0.6667000000000001	0.004	Yes	2.97	-0.004	3.0	GoodResponse	1	0.228	n/a	7	44	ButtonPress	Win	True
424.477	0.41	Win2	0.6667000000000001	n/a	Yes	2.97	n/a	n/a	GoodResponse	1	n/a	n/a	7	44	Blank	Win	True
424.878	1.45	Win2	0.6667000000000001	n/a	Yes	2.97	n/a	5.0	GoodResponse	1	0.016	423.894	7	44	Feedback	Win	True
426.333	2.97	Win2	0.6667000000000001	n/a	Yes	2.97	n/a	n/a	GoodResponse	1	0.0	n/a	7	44	ISIslide	Win	True
429.325	0.25	Control	0.6739	0.0	Yes	2.875	0.025	n/a	GoodResponse	0	n/a	n/a	7	45	Cue	Neutral	True
429.576	4.1	Control	0.6739	0.0	Yes	2.875	0.001	n/a	GoodResponse	0	n/a	n/a	7	45	Fixation	Neutral	True
433.671	0.28	Control	0.6739	0.004	Yes	2.875	-0.004	3.0	GoodResponse	0	0.219	432.89	7	45	Target	Neutral	True
433.89	0.3	Control	0.6739	0.004	Yes	2.875	-0.004	3.0	GoodResponse	0	0.219	n/a	7	45	ButtonPress	Neutral	True
433.955	0.42	Control	0.6739	n/a	Yes	2.875	n/a	n/a	GoodResponse	0	n/a	n/a	7	45	Blank	Neutral	True
434.373	1.45	Control	0.6739	n/a	Yes	2.875	n/a	5.0	GoodResponse	0	0.034	433.407	7	45	Feedback	Neutral	True
435.828	2.875	Control	0.6739	n/a	Yes	2.875	n/a	n/a	GoodResponse	0	0.0	n/a	7	45	ISIslide	Neutral	True
438.72	0.25	Lose2	0.6809000000000001	0.0	Yes	3.38	0.02	n/a	GoodResponse	0	n/a	n/a	7	46	Cue	AvoidedLoss	True
438.97	4.0	Lose2	0.6809000000000001	0.0	Yes	3.38	0.0	n/a	GoodResponse	0	n/a	n/a	7	46	Fixation	AvoidedLoss	True
442.966	0.27	Lose2	0.6809000000000001	0.004	Yes	3.38	-0.004	3.0	GoodResponse	0	0.227	442.193	7	46	Target	AvoidedLoss	True
443.193	0.3	Lose2	0.6809000000000001	0.004	Yes	3.38	-0.004	3.0	GoodResponse	0	0.227	n/a	7	46	ButtonPress	AvoidedLoss	True
443.25	0.43	Lose2	0.6809000000000001	n/a	Yes	3.38	n/a	n/a	GoodResponse	0	n/a	n/a	7	46	Blank	AvoidedLoss	True
443.668	1.45	Lose2	0.6809000000000001	n/a	Yes	3.38	n/a	5.0	GoodResponse	0	0.008	442.676	7	46	Feedback	AvoidedLoss	True
445.122	3.38	Lose2	0.6809000000000001	n/a	Yes	3.38	n/a	n/a	GoodResponse	0	0.0	n/a	7	46	ISIslide	AvoidedLoss	True
448.515	0.25	Lose2	0.6875	0.001	Yes	2.685	0.015	n/a	GoodResponse	0	n/a	n/a	7	47	Cue	AvoidedLoss	True
448.766	4.0	Lose2	0.6875	0.0	Yes	2.685	0.001	n/a	GoodResponse	0	n/a	n/a	7	47	Fixation	AvoidedLoss	True
452.762	0.26	Lose2	0.6875	0.003	Yes	2.685	-0.003	3.0	GoodResponse	0	0.186	451.948	7	47	Target	AvoidedLoss	True
452.948	0.3	Lose2	0.6875	0.003	Yes	2.685	-0.003	3.0	GoodResponse	0	0.186	n/a	7	47	ButtonPress	AvoidedLoss	True
453.029	0.44	Lose2	0.6875	n/a	Yes	2.685	n/a	n/a	GoodResponse	0	n/a	n/a	7	47	Blank	AvoidedLoss	True
453.464	1.45	Lose2	0.6875	n/a	Yes	2.685	n/a	5.0	GoodResponse	0	0.016	452.48	7	47	Feedback	AvoidedLoss	True
454.918	2.685	Lose2	0.6875	n/a	Yes	2.685	n/a	n/a	GoodResponse	0	0.0	n/a	7	47	ISIslide	AvoidedLoss	True
457.626	0.25	Lose2	0.6939	0.0	Yes	3.024	0.026	n/a	GoodResponse	0	n/a	n/a	7	48	Cue	AvoidedLoss	True
457.877	3.95	Lose2	0.6939	0.0	Yes	3.024	0.001	n/a	GoodResponse	0	n/a	n/a	7	48	Fixation	AvoidedLoss	True
461.822	0.25	Lose2	0.6939	0.004	Yes	3.024	-0.004	3.0	GoodResponse	0	0.219	461.041	7	48	Target	AvoidedLoss	True
462.041	0.3	Lose2	0.6939	0.004	Yes	3.024	-0.004	3.0	GoodResponse	0	0.219	n/a	7	48	ButtonPress	AvoidedLoss	True
462.073	0.45	Lose2	0.6939	n/a	Yes	3.024	n/a	n/a	GoodResponse	0	n/a	n/a	7	48	Blank	AvoidedLoss	True
462.524	1.45	Lose2	0.6939	n/a	Yes	3.024	n/a	5.0	GoodResponse	0	0.028	461.552	7	48	Feedback	AvoidedLoss	True
463.978	3.024	Lose2	0.6939	n/a	Yes	3.024	n/a	n/a	GoodResponse	0	0.0	n/a	7	48	ISIslide	AvoidedLoss	True
467.021	0.25	Control	0.7	0.0	Yes	2.879	0.021	n/a	GoodResponse	0	n/a	n/a	7	49	Cue	Neutral	True
467.272	4.0	Control	0.7	0.0	Yes	2.879	0.001	n/a	GoodResponse	0	n/a	n/a	7	49	Fixation	Neutral	True
471.267	0.24	Control	0.7	0.004	Yes	2.879	-0.004	3.0	GoodResponse	0	0.197	470.464	7	49	Target	Neutral	True
471.464	0.3	Control	0.7	0.004	Yes	2.879	-0.004	3.0	GoodResponse	0	0.197	n/a	7	49	ButtonPress	Neutral	True
471.518	0.46	Control	0.7	n/a	Yes	2.879	n/a	n/a	GoodResponse	0	n/a	n/a	7	49	Blank	Neutral	True
471.969	1.45	Control	0.7	n/a	Yes	2.879	n/a	5.0	GoodResponse	0	0.047	471.016	7	49	Feedback	Neutral	True
473.423	2.879	Control	0.7	n/a	Yes	2.879	n/a	n/a	GoodResponse	0	0.0	n/a	7	49	ISIslide	Neutral	True
476.315	0.25	Control	0.7059000000000001	0.0	Yes	2.785	0.015	n/a	GoodResponse	0	n/a	n/a	7	50	Cue	Neutral	True
476.566	4.0	Control	0.7059000000000001	0.0	Yes	2.785	0.001	n/a	GoodResponse	0	n/a	n/a	7	50	Fixation	Neutral	True
480.561	0.23	Control	0.7059000000000001	0.004	Yes	2.785	-0.004	3.0	GoodResponse	0	0.186	479.747	7	50	Target	Neutral	True
480.747	0.3	Control	0.7059000000000001	0.004	Yes	2.785	-0.004	3.0	GoodResponse	0	0.186	n/a	7	50	ButtonPress	Neutral	True
480.795	0.47	Control	0.7059000000000001	n/a	Yes	2.785	n/a	n/a	GoodResponse	0	n/a	n/a	7	50	Blank	Neutral	True
481.263	1.45	Control	0.7059000000000001	n/a	Yes	2.785	n/a	5.0	GoodResponse	0	0.021	480.284	7	50	Feedback	Neutral	True
482.718	2.785	Control	0.7059000000000001	n/a	Yes	2.785	n/a	n/a	GoodResponse	0	0.0	n/a	7	50	ISIslide	Neutral	True
485.526	0.25	Control	0.7115	0.0	Yes	2.724	0.026	n/a	GoodResponse	0	n/a	n/a	7	51	Cue	Neutral	True
485.777	3.95	Control	0.7115	0.0	Yes	2.724	0.001	n/a	GoodResponse	0	n/a	n/a	7	51	Fixation	Neutral	True
489.722	0.22	Control	0.7115	0.004	Yes	2.724	-0.004	3.0	GoodResponse	0	0.191	488.913	7	51	Target	Neutral	True
489.913	0.3	Control	0.7115	0.004	Yes	2.724	-0.004	3.0	GoodResponse	0	0.191	n/a	7	51	ButtonPress	Neutral	True
489.956	0.48	Control	0.7115	n/a	Yes	2.724	n/a	n/a	GoodResponse	0	n/a	n/a	7	51	Blank	Neutral	True
490.424	1.45	Control	0.7115	n/a	Yes	2.724	n/a	5.0	GoodResponse	0	0.031	489.455	7	51	Feedback	Neutral	True
491.878	2.724	Control	0.7115	n/a	Yes	2.724	n/a	n/a	GoodResponse	0	0.0	n/a	7	51	ISIslide	Neutral	True
494.62	0.25	Control	0.6981	0.0	No	2.63	0.02	n/a	LatePress	0	n/a	n/a	7	52	Cue	Neutral	True
494.871	4.05	Control	0.6981	0.0	No	2.63	0.001	n/a	LatePress	0	n/a	n/a	7	52	Fixation	Neutral	True
498.916	0.21	Control	0.6981	0.004	No	2.63	-0.004	3.0	LatePress	0	0.216	498.132	7	52	Target	Neutral	True
499.132	0.3	Control	0.6981	0.004	No	2.63	-0.004	3.0	LatePress	0	0.216	n/a	7	52	ButtonPress	Neutral	True
499.133	0.49	Control	0.6981	n/a	No	2.63	n/a	n/a	LatePress	0	n/a	n/a	7	52	Blank	Neutral	True
499.618	1.45	Control	0.6981	n/a	No	2.63	n/a	5.0	LatePress	0	0.008	498.626	7	52	Feedback	Neutral	True
501.072	2.63	Control	0.6981	n/a	No	2.63	n/a	n/a	LatePress	0	0.0	n/a	7	52	ISIslide	Neutral	True
503.73	0.25	Win2	0.7037	0.0	Yes	2.92	0.03	n/a	GoodResponse	1	n/a	n/a	8	53	Cue	Win	True
503.981	4.05	Win2	0.7037	0.0	Yes	2.92	0.001	n/a	GoodResponse	1	n/a	n/a	8	53	Fixation	Win	True
508.027	0.2	Win2	0.7037	0.003	Yes	2.92	-0.003	3.0	GoodResponse	1	0.191	507.218	8	53	Target	Win	True
508.218	0.3	Win2	0.7037	0.003	Yes	2.92	-0.003	3.0	GoodResponse	1	0.191	n/a	8	53	ButtonPress	Win	True
508.227	0.5	Win2	0.7037	n/a	Yes	2.92	n/a	n/a	GoodResponse	1	n/a	n/a	8	53	Blank	Win	True
508.729	1.45	Win2	0.7037	n/a	Yes	2.92	n/a	5.0	GoodResponse	1	0.018	507.747	8	53	Feedback	Win	True
510.183	2.92	Win2	0.7037	n/a	Yes	2.92	n/a	n/a	GoodResponse	1	0.0	n/a	8	53	ISIslide	Win	True
513.125	0.25	Win2	0.6909000000000001	0.0	No	2.725	0.025	n/a	NoResponse	0	n/a	n/a	8	54	Cue	MissedWin	True
513.376	3.95	Win2	0.6909000000000001	0.0	No	2.725	0.001	n/a	NoResponse	0	n/a	n/a	8	54	Fixation	MissedWin	True
517.321	0.19	Win2	0.6909000000000001	0.004	No	2.725	-0.004	3.0	NoResponse	0	0.226	516.547	8	54	Target	MissedWin	True
517.522	0.51	Win2	0.6909000000000001	n/a	No	2.725	n/a	n/a	NoResponse	0	n/a	n/a	8	54	Blank	MissedWin	True
517.547	0.3	Win2	0.6909000000000001	0.004	No	2.725	-0.004	3.0	NoResponse	0	0.226	n/a	8	54	ButtonPress	MissedWin	True
518.023	1.45	Win2	0.6909000000000001	n/a	No	2.725	n/a	5.0	NoResponse	0	0.041	517.064	8	54	Feedback	MissedWin	True
519.477	2.725	Win2	0.6909000000000001	n/a	No	2.725	n/a	n/a	NoResponse	0	0.0	n/a	8	54	ISIslide	MissedWin	True
522.219	0.25	Control	0.6786	0.0	No	3.031	0.019	n/a	NoResponse	0	n/a	n/a	8	55	Cue	Neutral	True
522.47	3.95	Control	0.6786	0.0	No	3.031	0.001	n/a	NoResponse	0	n/a	n/a	8	55	Fixation	Neutral	True
526.415	0.18	Control	0.6786	0.004	No	3.031	-0.004	3.0	NoResponse	0	0.219	525.634	8	55	Target	Neutral	True
526.599	0.52	Control	0.6786	n/a	No	3.031	n/a	n/a	NoResponse	0	n/a	n/a	8	55	Blank	Neutral	True
526.634	0.3	Control	0.6786	0.004	No	3.031	-0.004	3.0	NoResponse	0	0.219	n/a	8	55	ButtonPress	Neutral	True
527.117	1.45	Control	0.6786	n/a	No	3.031	n/a	5.0	NoResponse	0	0.02	526.137	8	55	Feedback	Neutral	True
528.571	3.031	Control	0.6786	n/a	No	3.031	n/a	n/a	NoResponse	0	0.0	n/a	8	55	ISIslide	Neutral	True
531.63	0.25	Control	0.6667000000000001	0.0	No	2.82	0.03	n/a	NoResponse	0	n/a	n/a	8	56	Cue	Neutral	True
531.881	3.95	Control	0.6667000000000001	0.0	No	2.82	0.001	n/a	NoResponse	0	n/a	n/a	8	56	Fixation	Neutral	True
535.826	0.17	Control	0.6667000000000001	0.004	No	2.82	-0.004	3.0	NoResponse	0	0.202	535.028	8	56	Target	Neutral	True
536.01	0.53	Control	0.6667000000000001	n/a	No	2.82	n/a	n/a	NoResponse	0	n/a	n/a	8	56	Blank	Neutral	True
536.028	0.3	Control	0.6667000000000001	0.004	No	2.82	-0.004	3.0	NoResponse	0	0.202	n/a	8	56	ButtonPress	Neutral	True
536.528	1.45	Control	0.6667000000000001	n/a	No	2.82	n/a	5.0	NoResponse	0	0.023	535.551	8	56	Feedback	Neutral	True
537.983	2.82	Control	0.6667000000000001	n/a	No	2.82	n/a	n/a	NoResponse	0	0.0	n/a	8	56	ISIslide	Neutral	True
540.825	0.25	Control	0.6552	0.0	No	3.475	0.025	n/a	NoResponse	0	n/a	n/a	8	57	Cue	Neutral	True
541.075	4.0	Control	0.6552	0.0	No	3.475	0.0	n/a	NoResponse	0	n/a	n/a	8	57	Fixation	Neutral	True
545.071	0.16	Control	0.6552	0.004	No	3.475	-0.004	3.0	NoResponse	0	0.195	544.266	8	57	Target	Neutral	True
545.238	0.54	Control	0.6552	n/a	No	3.475	n/a	n/a	NoResponse	0	n/a	n/a	8	57	Blank	Neutral	True
545.266	0.3	Control	0.6552	0.004	No	3.475	-0.004	3.0	NoResponse	0	0.195	n/a	8	57	ButtonPress	Neutral	True
545.773	1.45	Control	0.6552	n/a	No	3.475	n/a	5.0	NoResponse	0	0.047	544.82	8	57	Feedback	Neutral	True
547.227	3.475	Control	0.6552	n/a	No	3.475	n/a	n/a	NoResponse	0	0.0	n/a	8	57	ISIslide	Neutral	True
550.721	0.25	Win2	0.6441	0.0	No	2.729	0.021	n/a	NoResponse	0	n/a	n/a	8	58	Cue	MissedWin	True
550.971	4.05	Win2	0.6441	0.001	No	2.729	0.0	n/a	NoResponse	0	n/a	n/a	8	58	Fixation	MissedWin	True
555.017	0.16	Win2	0.6441	0.004	No	2.729	-0.004	3.0	NoResponse	0	0.197	554.214	8	58	Target	MissedWin	True
555.184	0.54	Win2	0.6441	n/a	No	2.729	n/a	n/a	NoResponse	0	n/a	n/a	8	58	Blank	MissedWin	True
555.214	0.3	Win2	0.6441	0.004	No	2.729	-0.004	3.0	NoResponse	0	0.197	n/a	8	58	ButtonPress	MissedWin	True
555.719	1.45	Win2	0.6441	n/a	No	2.729	n/a	5.0	NoResponse	0	0.008	554.727	8	58	Feedback	MissedWin	True
557.173	2.729	Win2	0.6441	n/a	No	2.729	n/a	n/a	NoResponse	0	0.0	n/a	8	58	ISIslide	MissedWin	True
559.915	0.25	Lose2	0.65	0.0	Yes	2.685	0.015	n/a	GoodResponse	0	n/a	n/a	8	59	Cue	AvoidedLoss	True
560.166	4.0	Lose2	0.65	0.0	Yes	2.685	0.001	n/a	GoodResponse	0	n/a	n/a	8	59	Fixation	AvoidedLoss	True
564.161	0.17	Lose2	0.65	0.004	Yes	2.685	-0.004	3.0	GoodResponse	0	0.168	563.329	8	59	Target	AvoidedLoss	True
564.329	0.3	Lose2	0.65	0.004	Yes	2.685	-0.004	3.0	GoodResponse	0	0.168	n/a	8	59	ButtonPress	AvoidedLoss	True
564.345	0.53	Lose2	0.65	n/a	Yes	2.685	n/a	n/a	GoodResponse	0	n/a	n/a	8	59	Blank	AvoidedLoss	True
564.863	1.45	Lose2	0.65	n/a	Yes	2.685	n/a	5.0	GoodResponse	0	0.03	563.893	8	59	Feedback	AvoidedLoss	True
566.317	2.685	Lose2	0.65	n/a	Yes	2.685	n/a	n/a	GoodResponse	0	0.0	n/a	8	59	ISIslide	AvoidedLoss	True
569.025	0.25	Control	0.6393	0.0	No	2.675	0.025	n/a	NoResponse	0	n/a	n/a	8	60	Cue	Neutral	True
569.276	4.0	Control	0.6393	0.0	No	2.675	0.001	n/a	NoResponse	0	n/a	n/a	8	60	Fixation	Neutral	True
573.271	0.18	Control	0.6393	0.004	No	2.675	-0.004	3.0	NoResponse	0	0.198	572.469	8	60	Target	Neutral	True
573.455	0.52	Control	0.6393	n/a	No	2.675	n/a	n/a	NoResponse	0	n/a	n/a	8	60	Blank	Neutral	True
573.469	0.3	Control	0.6393	0.004	No	2.675	-0.004	3.0	NoResponse	0	0.198	n/a	8	60	ButtonPress	Neutral	True
573.973	1.45	Control	0.6393	n/a	No	2.675	n/a	5.0	NoResponse	0	0.041	573.014	8	60	Feedback	Neutral	True
575.428	2.675	Control	0.6393	n/a	No	2.675	n/a	n/a	NoResponse	0	0.0	n/a	8	60	ISIslide	Neutral	True
578.119	0.25	Lose2	0.6452	0.0	Yes	2.981	0.019	n/a	GoodResponse	0	n/a	n/a	8	61	Cue	AvoidedLoss	True
578.37	4.0	Lose2	0.6452	0.0	Yes	2.981	0.001	n/a	GoodResponse	0	n/a	n/a	8	61	Fixation	AvoidedLoss	True
582.365	0.19	Lose2	0.6452	0.004	Yes	2.981	-0.004	3.0	GoodResponse	0	0.183	581.548	8	61	Target	AvoidedLoss	True
582.548	0.3	Lose2	0.6452	0.004	Yes	2.981	-0.004	3.0	GoodResponse	0	0.183	n/a	8	61	ButtonPress	AvoidedLoss	True
582.566	0.51	Lose2	0.6452	n/a	Yes	2.981	n/a	n/a	GoodResponse	0	n/a	n/a	8	61	Blank	AvoidedLoss	True
583.067	1.45	Lose2	0.6452	n/a	Yes	2.981	n/a	5.0	GoodResponse	0	0.02	582.087	8	61	Feedback	AvoidedLoss	True
584.522	2.981	Lose2	0.6452	n/a	Yes	2.981	n/a	n/a	GoodResponse	0	0.0	n/a	8	61	ISIslide	AvoidedLoss	True
587.531	0.25	Lose2	0.6349	0.0	No	2.869	0.031	n/a	NoResponse	-1	n/a	n/a	7	62	Cue	Loss	True
587.781	3.9	Lose2	0.6349	0.0	No	2.869	0.0	n/a	NoResponse	-1	n/a	n/a	7	62	Fixation	Loss	True
591.693	0.2	Lose2	0.6349	0.0	No	2.869	0.012	3.0	NoResponse	-1	0.206	590.899	7	62	Target	Loss	True
591.877	0.5	Lose2	0.6349	n/a	No	2.869	n/a	n/a	NoResponse	-1	n/a	n/a	7	62	Blank	Loss	True
591.899	0.3	Lose2	0.6349	0.0	No	2.869	0.012	3.0	NoResponse	-1	0.206	n/a	7	62	ButtonPress	Loss	True
592.378	1.45	Lose2	0.6349	n/a	No	2.869	n/a	5.0	NoResponse	-1	0.026	591.404	7	62	Feedback	Loss	True
593.833	2.869	Lose2	0.6349	n/a	No	2.869	n/a	n/a	NoResponse	-1	0.0	n/a	7	62	ISIslide	Loss	True
596.725	0.25	Lose2	0.6406000000000001	0.0	Yes	2.625	0.025	n/a	GoodResponse	0	n/a	n/a	7	63	Cue	AvoidedLoss	True
596.976	4.05	Lose2	0.6406000000000001	0.0	Yes	2.625	0.001	n/a	GoodResponse	0	n/a	n/a	7	63	Fixation	AvoidedLoss	True
601.021	0.21	Lose2	0.6406000000000001	0.004	Yes	2.625	-0.004	3.0	GoodResponse	0	0.195	600.216	7	63	Target	AvoidedLoss	True
601.216	0.3	Lose2	0.6406000000000001	0.004	Yes	2.625	-0.004	3.0	GoodResponse	0	0.195	n/a	7	63	ButtonPress	AvoidedLoss	True
601.238	0.49	Lose2	0.6406000000000001	n/a	Yes	2.625	n/a	n/a	GoodResponse	0	n/a	n/a	7	63	Blank	AvoidedLoss	True
601.723	1.45	Lose2	0.6406000000000001	n/a	Yes	2.625	n/a	5.0	GoodResponse	0	0.047	600.77	7	63	Feedback	AvoidedLoss	True
603.177	2.625	Lose2	0.6406000000000001	n/a	Yes	2.625	n/a	n/a	GoodResponse	0	0.0	n/a	7	63	ISIslide	AvoidedLoss	True
605.819	0.25	Win2	0.6462	0.0	Yes	3.131	0.019	n/a	GoodResponse	1	n/a	n/a	8	64	Cue	Win	True
606.069	4.15	Win2	0.6462	0.0	Yes	3.131	0.0	n/a	GoodResponse	1	n/a	n/a	8	64	Fixation	Win	True
610.215	0.22	Win2	0.6462	0.004	Yes	3.131	-0.004	3.0	GoodResponse	1	0.185	609.4	8	64	Target	Win	True
610.4	0.3	Win2	0.6462	0.004	Yes	3.131	-0.004	3.0	GoodResponse	1	0.185	n/a	8	64	ButtonPress	Win	True
610.449	0.48	Win2	0.6462	n/a	Yes	3.131	n/a	n/a	GoodResponse	1	n/a	n/a	8	64	Blank	Win	True
610.917	1.45	Win2	0.6462	n/a	Yes	3.131	n/a	5.0	GoodResponse	1	0.024	609.941	8	64	Feedback	Win	True
612.372	3.131	Win2	0.6462	n/a	Yes	3.131	n/a	n/a	GoodResponse	1	0.0	n/a	8	64	ISIslide	Win	True
615.531	0.25	Control	0.6515000000000001	0.0	Yes	2.769	0.031	n/a	GoodResponse	0	n/a	n/a	8	65	Cue	Neutral	True
615.782	4.0	Control	0.6515000000000001	0.0	Yes	2.769	0.001	n/a	GoodResponse	0	n/a	n/a	8	65	Fixation	Neutral	True
619.777	0.23	Control	0.6515000000000001	0.004	Yes	2.769	-0.004	3.0	GoodResponse	0	0.193	618.97	8	65	Target	Neutral	True
619.97	0.3	Control	0.6515000000000001	0.004	Yes	2.769	-0.004	3.0	GoodResponse	0	0.193	n/a	8	65	ButtonPress	Neutral	True
620.011	0.47	Control	0.6515000000000001	n/a	Yes	2.769	n/a	n/a	GoodResponse	0	n/a	n/a	8	65	Blank	Neutral	True
620.479	1.45	Control	0.6515000000000001	n/a	Yes	2.769	n/a	5.0	GoodResponse	0	0.022	619.501	8	65	Feedback	Neutral	True
621.933	2.769	Control	0.6515000000000001	n/a	Yes	2.769	n/a	n/a	GoodResponse	0	0.0	n/a	8	65	ISIslide	Neutral	True
624.725	0.25	Win2	0.6567000000000001	0.0	Yes	2.775	0.025	n/a	GoodResponse	1	n/a	n/a	9	66	Cue	Win	True
624.976	3.9	Win2	0.6567000000000001	0.0	Yes	2.775	0.001	n/a	GoodResponse	1	n/a	n/a	9	66	Fixation	Win	True
628.871	0.24	Win2	0.6567000000000001	0.004	Yes	2.775	-0.004	3.0	GoodResponse	1	0.221	628.092	9	66	Target	Win	True
629.092	0.3	Win2	0.6567000000000001	0.004	Yes	2.775	-0.004	3.0	GoodResponse	1	0.221	n/a	9	66	ButtonPress	Win	True
629.122	0.46	Win2	0.6567000000000001	n/a	Yes	2.775	n/a	n/a	GoodResponse	1	n/a	n/a	9	66	Blank	Win	True
629.573	1.45	Win2	0.6567000000000001	n/a	Yes	2.775	n/a	5.0	GoodResponse	1	0.002	628.575	9	66	Feedback	Win	True
631.027	2.775	Win2	0.6567000000000001	n/a	Yes	2.775	n/a	n/a	GoodResponse	1	0.0	n/a	9	66	ISIslide	Win	True
633.819	0.25	Control	0.6618	0.0	Yes	2.731	0.019	n/a	GoodResponse	0	n/a	n/a	9	67	Cue	Neutral	True
634.07	3.95	Control	0.6618	0.0	Yes	2.731	0.001	n/a	GoodResponse	0	n/a	n/a	9	67	Fixation	Neutral	True
638.015	0.24	Control	0.6618	0.004	Yes	2.731	-0.004	3.0	GoodResponse	0	0.181	637.196	9	67	Target	Neutral	True
638.196	0.3	Control	0.6618	0.004	Yes	2.731	-0.004	3.0	GoodResponse	0	0.181	n/a	9	67	ButtonPress	Neutral	True
638.266	0.46	Control	0.6618	n/a	Yes	2.731	n/a	n/a	GoodResponse	0	n/a	n/a	9	67	Blank	Neutral	True
638.717	1.45	Control	0.6618	n/a	Yes	2.731	n/a	5.0	GoodResponse	0	0.028	637.745	9	67	Feedback	Neutral	True
640.171	2.731	Control	0.6618	n/a	Yes	2.731	n/a	n/a	GoodResponse	0	0.0	n/a	9	67	ISIslide	Neutral	True
642.929	0.25	Win2	0.6667000000000001	0.001	Yes	3.071	0.029	n/a	GoodResponse	1	n/a	n/a	10	68	Cue	Win	True
643.18	4.0	Win2	0.6667000000000001	0.0	Yes	3.071	0.001	n/a	GoodResponse	1	n/a	n/a	10	68	Fixation	Win	True
647.175	0.24	Win2	0.6667000000000001	0.004	Yes	3.071	-0.004	3.0	GoodResponse	1	0.215	646.39	10	68	Target	Win	True
647.39	0.3	Win2	0.6667000000000001	0.004	Yes	3.071	-0.004	3.0	GoodResponse	1	0.215	n/a	10	68	ButtonPress	Win	True
647.426	0.46	Win2	0.6667000000000001	n/a	Yes	3.071	n/a	n/a	GoodResponse	1	n/a	n/a	10	68	Blank	Win	True
647.878	1.45	Win2	0.6667000000000001	n/a	Yes	3.071	n/a	5.0	GoodResponse	1	0.037	646.915	10	68	Feedback	Win	True
649.332	3.071	Win2	0.6667000000000001	n/a	Yes	3.071	n/a	n/a	GoodResponse	1	0.0	n/a	10	68	ISIslide	Win	True
652.424	0.25	Win2	0.6714	0.001	Yes	3.226	0.024	n/a	GoodResponse	1	n/a	n/a	11	69	Cue	Win	True
652.675	3.95	Win2	0.6714	0.0	Yes	3.226	0.001	n/a	GoodResponse	1	n/a	n/a	11	69	Fixation	Win	True
656.62	0.23	Win2	0.6714	0.004	Yes	3.226	-0.004	3.0	GoodResponse	1	0.184	655.804	11	69	Target	Win	True
656.804	0.3	Win2	0.6714	0.004	Yes	3.226	-0.004	3.0	GoodResponse	1	0.184	n/a	11	69	ButtonPress	Win	True
656.854	0.47	Win2	0.6714	n/a	Yes	3.226	n/a	n/a	GoodResponse	1	n/a	n/a	11	69	Blank	Win	True
657.322	1.45	Win2	0.6714	n/a	Yes	3.226	n/a	5.0	GoodResponse	1	0.008	656.33	11	69	Feedback	Win	True
658.777	3.226	Win2	0.6714	n/a	Yes	3.226	n/a	n/a	GoodResponse	1	0.0	n/a	11	69	ISIslide	Win	True
662.02	0.25	Lose2	0.6761	0.0	Yes	3.03	0.02	n/a	GoodResponse	0	n/a	n/a	11	70	Cue	AvoidedLoss	True
662.271	4.05	Lose2	0.6761	0.0	Yes	3.03	0.001	n/a	GoodResponse	0	n/a	n/a	11	70	Fixation	AvoidedLoss	True
666.316	0.22	Lose2	0.6761	0.004	Yes	3.03	-0.004	3.0	GoodResponse	0	0.186	665.502	11	70	Target	AvoidedLoss	True
666.502	0.3	Lose2	0.6761	0.004	Yes	3.03	-0.004	3.0	GoodResponse	0	0.186	n/a	11	70	ButtonPress	AvoidedLoss	True
666.55	0.48	Lose2	0.6761	n/a	Yes	3.03	n/a	n/a	GoodResponse	0	n/a	n/a	11	70	Blank	AvoidedLoss	True
667.018	1.45	Lose2	0.6761	n/a	Yes	3.03	n/a	5.0	GoodResponse	0	0.019	666.037	11	70	Feedback	AvoidedLoss	True
668.472	3.03	Lose2	0.6761	n/a	Yes	3.03	n/a	n/a	GoodResponse	0	0.0	n/a	11	70	ISIslide	AvoidedLoss	True
671.515	0.25	Win2	0.6806	0.0	Yes	2.735	0.015	n/a	GoodResponse	1	n/a	n/a	12	71	Cue	Win	True
671.766	4.05	Win2	0.6806	0.0	Yes	2.735	0.001	n/a	GoodResponse	1	n/a	n/a	12	71	Fixation	Win	True
675.811	0.21	Win2	0.6806	0.004	Yes	2.735	-0.004	3.0	GoodResponse	1	0.195	675.006	12	71	Target	Win	True
676.006	0.3	Win2	0.6806	0.004	Yes	2.735	-0.004	3.0	GoodResponse	1	0.195	n/a	12	71	ButtonPress	Win	True
676.028	0.49	Win2	0.6806	n/a	Yes	2.735	n/a	n/a	GoodResponse	1	n/a	n/a	12	71	Blank	Win	True
676.513	1.45	Win2	0.6806	n/a	Yes	2.735	n/a	5.0	GoodResponse	1	0.037	675.55	12	71	Feedback	Win	True
677.967	2.735	Win2	0.6806	n/a	Yes	2.735	n/a	n/a	GoodResponse	1	0.0	n/a	12	71	ISIslide	Win	True
680.726	0.25	Win2	0.6849	0.0	Yes	2.774	0.026	n/a	GoodResponse	1	n/a	n/a	13	72	Cue	Win	True
680.976	4.1	Win2	0.6849	0.0	Yes	2.774	0.0	n/a	GoodResponse	1	n/a	n/a	13	72	Fixation	Win	True
685.072	0.2	Win2	0.6849	0.004	Yes	2.774	-0.004	3.0	GoodResponse	1	0.191	684.263	13	72	Target	Win	True
685.263	0.3	Win2	0.6849	0.004	Yes	2.774	-0.004	3.0	GoodResponse	1	0.191	n/a	13	72	ButtonPress	Win	True
685.273	0.5	Win2	0.6849	n/a	Yes	2.774	n/a	n/a	GoodResponse	1	n/a	n/a	13	72	Blank	Win	True
685.774	1.45	Win2	0.6849	n/a	Yes	2.774	n/a	5.0	GoodResponse	1	0.043	684.817	13	72	Feedback	Win	True
687.228	2.774	Win2	0.6849	n/a	Yes	2.774	n/a	n/a	GoodResponse	1	0.0	n/a	13	72	ISIslide	Win	True
690.02	0.25	Win2	0.6757	0.0	No	2.68	0.02	n/a	NoResponse	0	n/a	n/a	13	73	Cue	MissedWin	True
690.271	4.0	Win2	0.6757	0.0	No	2.68	0.001	n/a	NoResponse	0	n/a	n/a	13	73	Fixation	MissedWin	True
694.266	0.19	Win2	0.6757	0.004	No	2.68	-0.004	3.0	NoResponse	0	0.21	693.476	13	73	Target	MissedWin	True
694.467	0.51	Win2	0.6757	n/a	No	2.68	n/a	n/a	NoResponse	0	n/a	n/a	13	73	Blank	MissedWin	True
694.476	0.3	Win2	0.6757	0.004	No	2.68	-0.004	3.0	NoResponse	0	0.21	n/a	13	73	ButtonPress	MissedWin	True
694.968	1.45	Win2	0.6757	n/a	No	2.68	n/a	5.0	NoResponse	0	0.02	693.988	13	73	Feedback	MissedWin	True
696.423	2.68	Win2	0.6757	n/a	No	2.68	n/a	n/a	NoResponse	0	0.0	n/a	13	73	ISIslide	MissedWin	True
699.131	0.25	Lose2	0.6667000000000001	0.0	No	2.619	0.031	n/a	NoResponse	-1	n/a	n/a	12	74	Cue	Loss	True
699.381	4.05	Lose2	0.6667000000000001	0.0	No	2.619	0.0	n/a	NoResponse	-1	n/a	n/a	12	74	Fixation	Loss	True
703.427	0.18	Lose2	0.6667000000000001	0.004	No	2.619	-0.004	3.0	NoResponse	-1	0.192	702.619	12	74	Target	Loss	True
703.611	0.52	Lose2	0.6667000000000001	n/a	No	2.619	n/a	n/a	NoResponse	-1	n/a	n/a	12	74	Blank	Loss	True
703.619	0.3	Lose2	0.6667000000000001	0.004	No	2.619	-0.004	3.0	NoResponse	-1	0.192	n/a	12	74	ButtonPress	Loss	True
704.129	1.45	Lose2	0.6667000000000001	n/a	No	2.619	n/a	5.0	NoResponse	-1	0.03	703.159	12	74	Feedback	Loss	True
705.583	2.619	Lose2	0.6667000000000001	n/a	No	2.619	n/a	n/a	NoResponse	-1	0.0	n/a	12	74	ISIslide	Loss	True
708.224	0.25	Lose2	0.6579	0.001	No	2.926	0.024	n/a	NoResponse	-1	n/a	n/a	11	75	Cue	Loss	True
708.475	3.95	Lose2	0.6579	0.0	No	2.926	0.001	n/a	NoResponse	-1	n/a	n/a	11	75	Fixation	Loss	True
712.42	0.17	Lose2	0.6579	0.004	No	2.926	-0.004	3.0	NoResponse	-1	0.269	711.689	11	75	Target	Loss	True
712.604	0.53	Lose2	0.6579	n/a	No	2.926	n/a	n/a	NoResponse	-1	n/a	n/a	11	75	Blank	Loss	True
712.689	0.3	Lose2	0.6579	0.004	No	2.926	-0.004	3.0	NoResponse	-1	0.269	n/a	11	75	ButtonPress	Loss	True
713.122	1.45	Lose2	0.6579	n/a	No	2.926	n/a	5.0	NoResponse	-1	0.012	712.134	11	75	Feedback	Loss	True
714.577	2.926	Lose2	0.6579	n/a	No	2.926	n/a	n/a	NoResponse	-1	0.0	n/a	11	75	ISIslide	Loss	True
717.519	0.25	Control	0.6494	0.0	No	3.231	0.019	n/a	NoResponse	0	n/a	n/a	11	76	Cue	Neutral	True
717.77	4.05	Control	0.6494	0.0	No	3.231	0.001	3.0	NoResponse	0	3.948	720.718	11	76	Fixation	Neutral	True
721.718	0.3	Control	0.6494	0.0	No	3.231	0.001	3.0	NoResponse	0	3.948	n/a	11	76	ButtonPress	Neutral	True
721.815	0.17	Control	0.6494	0.004	No	3.231	-0.004	n/a	NoResponse	0	n/a	n/a	11	76	Target	Neutral	True
721.999	0.53	Control	0.6494	n/a	No	3.231	n/a	n/a	NoResponse	0	n/a	n/a	11	76	Blank	Neutral	True
722.517	1.45	Control	0.6494	n/a	No	3.231	n/a	5.0	NoResponse	0	0.031	721.548	11	76	Feedback	Neutral	True
723.971	3.231	Control	0.6494	n/a	No	3.231	n/a	n/a	NoResponse	0	0.0	n/a	11	76	ISIslide	Neutral	True
727.231	0.25	Lose2	0.6409999999999999	0.0	No	2.569	0.031	n/a	NoResponse	-1	n/a	n/a	10	77	Cue	Loss	True
727.482	3.95	Lose2	0.6409999999999999	0.0	No	2.569	0.001	n/a	NoResponse	-1	n/a	n/a	10	77	Fixation	Loss	True
731.427	0.18	Lose2	0.6409999999999999	0.004	No	2.569	-0.004	3.0	NoResponse	-1	0.197	730.624	10	77	Target	Loss	True
731.611	0.52	Lose2	0.6409999999999999	n/a	No	2.569	n/a	n/a	NoResponse	-1	n/a	n/a	10	77	Blank	Loss	True
731.624	0.3	Lose2	0.6409999999999999	0.004	No	2.569	-0.004	3.0	NoResponse	-1	0.197	n/a	10	77	ButtonPress	Loss	True
732.129	1.45	Lose2	0.6409999999999999	n/a	No	2.569	n/a	5.0	NoResponse	-1	0.029	731.158	10	77	Feedback	Loss	True
733.583	2.569	Lose2	0.6409999999999999	n/a	No	2.569	n/a	n/a	NoResponse	-1	0.0	n/a	10	77	ISIslide	Loss	True
