onset	duration	cue_type	current_mean_accuracy	duration_error	is_hit	isi_adjusted	onset_delay	response	response_type	reward	rt	rt_time	total_reward	trial_number	trial_phase	trial_type	one_press
11.108	0.25	Control	1.0	0.0	Yes	2.942	0.008	n/a	GoodResponse	0	n/a	n/a	0	0	Cue	Neutral	True
11.359	3.85	Control	1.0	0.0	Yes	2.942	0.001	n/a	GoodResponse	0	n/a	n/a	0	0	Fixation	Neutral	True
15.204	0.4	Control	1.0	0.004	Yes	2.942	-0.004	2.0	GoodResponse	0	0.197	14.401	0	0	Target	Neutral	True
15.401	0.3	Control	1.0	0.004	Yes	2.942	-0.004	2.0	GoodResponse	0	0.197	n/a	0	0	ButtonPress	Neutral	True
15.605	0.3	Control	1.0	n/a	Yes	2.942	n/a	n/a	GoodResponse	0	n/a	n/a	0	0	Blank	Neutral	True
15.906	1.45	Control	1.0	n/a	Yes	2.942	n/a	5.0	GoodResponse	0	0.02	14.926	0	0	Feedback	Neutral	True
17.36	2.942	Control	1.0	n/a	Yes	2.942	n/a	n/a	GoodResponse	0	0.0	n/a	0	0	ISIslide	Neutral	True
20.319	0.25	Lose2	1.0	0.0	Yes	2.781	0.019	n/a	GoodResponse	0	n/a	n/a	0	1	Cue	AvoidedLoss	True
20.57	4.0	Lose2	1.0	0.0	Yes	2.781	0.001	n/a	GoodResponse	0	n/a	n/a	0	1	Fixation	AvoidedLoss	True
24.565	0.39	Lose2	1.0	0.004	Yes	2.781	-0.004	2.0	GoodResponse	0	0.203	23.768	0	1	Target	AvoidedLoss	True
24.768	0.3	Lose2	1.0	0.004	Yes	2.781	-0.004	2.0	GoodResponse	0	0.203	n/a	0	1	ButtonPress	AvoidedLoss	True
24.966	0.31	Lose2	1.0	n/a	Yes	2.781	n/a	n/a	GoodResponse	0	n/a	n/a	0	1	Blank	AvoidedLoss	True
25.267	1.45	Lose2	1.0	n/a	Yes	2.781	n/a	5.0	GoodResponse	0	0.025	24.292	0	1	Feedback	AvoidedLoss	True
26.722	2.781	Lose2	1.0	n/a	Yes	2.781	n/a	n/a	GoodResponse	0	0.0	n/a	0	1	ISIslide	AvoidedLoss	True
29.53	0.25	Control	1.0	0.0	Yes	2.57	0.03	n/a	GoodResponse	0	n/a	n/a	0	2	Cue	Neutral	True
29.781	4.1	Control	1.0	0.0	Yes	2.57	0.001	n/a	GoodResponse	0	n/a	n/a	0	2	Fixation	Neutral	True
33.876	0.38	Control	1.0	0.004	Yes	2.57	-0.004	2.0	GoodResponse	0	0.257	33.133	0	2	Target	Neutral	True
34.133	0.3	Control	1.0	0.004	Yes	2.57	-0.004	2.0	GoodResponse	0	0.257	n/a	0	2	ButtonPress	Neutral	True
34.261	0.32	Control	1.0	n/a	Yes	2.57	n/a	n/a	GoodResponse	0	n/a	n/a	0	2	Blank	Neutral	True
34.579	1.45	Control	1.0	n/a	Yes	2.57	n/a	5.0	GoodResponse	0	0.03	33.609	0	2	Feedback	Neutral	True
36.033	2.57	Control	1.0	n/a	Yes	2.57	n/a	n/a	GoodResponse	0	0.0	n/a	0	2	ISIslide	Neutral	True
38.624	0.25	Win2	1.0	0.0	Yes	2.826	0.024	n/a	GoodResponse	1	n/a	n/a	1	3	Cue	Win	True
38.875	3.95	Win2	1.0	0.0	Yes	2.826	0.001	n/a	GoodResponse	1	n/a	n/a	1	3	Fixation	Win	True
42.82	0.37	Win2	1.0	0.004	Yes	2.826	-0.004	2.0	GoodResponse	1	0.225	42.045	1	3	Target	Win	True
43.045	0.3	Win2	1.0	0.004	Yes	2.826	-0.004	2.0	GoodResponse	1	0.225	n/a	1	3	ButtonPress	Win	True
43.204	0.33	Win2	1.0	n/a	Yes	2.826	n/a	n/a	GoodResponse	1	n/a	n/a	1	3	Blank	Win	True
43.522	1.45	Win2	1.0	n/a	Yes	2.826	n/a	5.0	GoodResponse	1	0.014	42.536	1	3	Feedback	Win	True
44.976	2.826	Win2	1.0	n/a	Yes	2.826	n/a	n/a	GoodResponse	1	0.0	n/a	1	3	ISIslide	Win	True
47.818	0.25	Win2	1.0	0.0	Yes	3.282	0.018	n/a	GoodResponse	1	n/a	n/a	2	4	Cue	Win	True
48.069	4.0	Win2	1.0	0.0	Yes	3.282	0.001	n/a	GoodResponse	1	n/a	n/a	2	4	Fixation	Win	True
52.064	0.36	Win2	1.0	0.004	Yes	3.282	-0.004	2.0	GoodResponse	1	0.207	51.271	2	4	Target	Win	True
52.271	0.3	Win2	1.0	0.004	Yes	3.282	-0.004	2.0	GoodResponse	1	0.207	n/a	2	4	ButtonPress	Win	True
52.432	0.34	Win2	1.0	n/a	Yes	3.282	n/a	n/a	GoodResponse	1	n/a	n/a	2	4	Blank	Win	True
52.766	1.45	Win2	1.0	n/a	Yes	3.282	n/a	5.0	GoodResponse	1	0.038	51.804	2	4	Feedback	Win	True
54.221	3.282	Win2	1.0	n/a	Yes	3.282	n/a	n/a	GoodResponse	1	0.0	n/a	2	4	ISIslide	Win	True
57.531	0.25	Win2	1.0	0.0	Yes	2.769	0.031	n/a	GoodResponse	1	n/a	n/a	3	5	Cue	Win	True
57.781	4.0	Win2	1.0	0.001	Yes	2.769	0.0	n/a	GoodResponse	1	n/a	n/a	3	5	Fixation	Win	True
61.777	0.35	Win2	1.0	0.004	Yes	2.769	-0.004	2.0	GoodResponse	1	0.194	60.971	3	5	Target	Win	True
61.971	0.3	Win2	1.0	0.004	Yes	2.769	-0.004	2.0	GoodResponse	1	0.194	n/a	3	5	ButtonPress	Win	True
62.128	0.35	Win2	1.0	n/a	Yes	2.769	n/a	n/a	GoodResponse	1	n/a	n/a	3	5	Blank	Win	True
62.479	1.45	Win2	1.0	n/a	Yes	2.769	n/a	5.0	GoodResponse	1	0.033	61.512	3	5	Feedback	Win	True
63.933	2.769	Win2	1.0	n/a	Yes	2.769	n/a	n/a	GoodResponse	1	0.0	n/a	3	5	ISIslide	Win	True
66.725	0.25	Lose2	1.0	0.0	Yes	2.725	0.025	n/a	GoodResponse	0	n/a	n/a	3	6	Cue	AvoidedLoss	True
66.976	3.95	Lose2	1.0	0.0	Yes	2.725	0.001	n/a	GoodResponse	0	n/a	n/a	3	6	Fixation	AvoidedLoss	True
70.921	0.34	Lose2	1.0	0.004	Yes	2.725	-0.004	2.0	GoodResponse	0	0.235	70.156	3	6	Target	AvoidedLoss	True
71.156	0.3	Lose2	1.0	0.004	Yes	2.725	-0.004	2.0	GoodResponse	0	0.235	n/a	3	6	ButtonPress	AvoidedLoss	True
71.272	0.36	Lose2	1.0	n/a	Yes	2.725	n/a	n/a	GoodResponse	0	n/a	n/a	3	6	Blank	AvoidedLoss	True
71.623	1.45	Lose2	1.0	n/a	Yes	2.725	n/a	5.0	GoodResponse	0	0.01	70.633	3	6	Feedback	AvoidedLoss	True
73.077	2.725	Lose2	1.0	n/a	Yes	2.725	n/a	n/a	GoodResponse	0	0.0	n/a	3	6	ISIslide	AvoidedLoss	True
75.819	0.25	Lose2	1.0	0.0	Yes	4.031	0.019	n/a	GoodResponse	0	n/a	n/a	3	7	Cue	AvoidedLoss	True
76.07	4.05	Lose2	1.0	0.0	Yes	4.031	0.001	n/a	GoodResponse	0	n/a	n/a	3	7	Fixation	AvoidedLoss	True
80.115	0.33	Lose2	1.0	0.004	Yes	4.031	-0.004	2.0	GoodResponse	0	0.291	79.406	3	7	Target	AvoidedLoss	True
80.406	0.3	Lose2	1.0	0.004	Yes	4.031	-0.004	2.0	GoodResponse	0	0.291	n/a	3	7	ButtonPress	AvoidedLoss	True
80.449	0.37	Lose2	1.0	n/a	Yes	4.031	n/a	n/a	GoodResponse	0	n/a	n/a	3	7	Blank	AvoidedLoss	True
80.817	1.45	Lose2	1.0	n/a	Yes	4.031	n/a	5.0	GoodResponse	0	0.035	79.852	3	7	Feedback	AvoidedLoss	True
82.271	4.031	Lose2	1.0	n/a	Yes	4.031	n/a	n/a	GoodResponse	0	0.0	n/a	3	7	ISIslide	AvoidedLoss	True
86.317	0.25	Lose2	1.0	0.0	Yes	3.033	0.017	n/a	GoodResponse	0	n/a	n/a	3	8	Cue	AvoidedLoss	True
86.568	3.95	Lose2	1.0	0.0	Yes	3.033	0.001	n/a	GoodResponse	0	n/a	n/a	3	8	Fixation	AvoidedLoss	True
90.513	0.32	Lose2	1.0	0.004	Yes	3.033	-0.004	2.0	GoodResponse	0	0.218	89.731	3	8	Target	AvoidedLoss	True
90.731	0.3	Lose2	1.0	0.004	Yes	3.033	-0.004	2.0	GoodResponse	0	0.218	n/a	3	8	ButtonPress	AvoidedLoss	True
90.847	0.38	Lose2	1.0	n/a	Yes	3.033	n/a	n/a	GoodResponse	0	n/a	n/a	3	8	Blank	AvoidedLoss	True
91.215	1.45	Lose2	1.0	n/a	Yes	3.033	n/a	5.0	GoodResponse	0	0.028	90.243	3	8	Feedback	AvoidedLoss	True
92.669	3.033	Lose2	1.0	n/a	Yes	3.033	n/a	n/a	GoodResponse	0	0.0	n/a	3	8	ISIslide	AvoidedLoss	True
95.728	0.25	Lose2	1.0	0.001	Yes	3.122	0.028	n/a	GoodResponse	0	n/a	n/a	3	9	Cue	AvoidedLoss	True
95.979	3.95	Lose2	1.0	0.0	Yes	3.122	0.001	n/a	GoodResponse	0	n/a	n/a	3	9	Fixation	AvoidedLoss	True
99.924	0.31	Lose2	1.0	0.004	Yes	3.122	-0.004	2.0	GoodResponse	0	0.274	99.198	3	9	Target	AvoidedLoss	True
100.198	0.3	Lose2	1.0	0.004	Yes	3.122	-0.004	2.0	GoodResponse	0	0.274	n/a	3	9	ButtonPress	AvoidedLoss	True
100.242	0.39	Lose2	1.0	n/a	Yes	3.122	n/a	n/a	GoodResponse	0	n/a	n/a	3	9	Blank	AvoidedLoss	True
100.627	1.45	Lose2	1.0	n/a	Yes	3.122	n/a	5.0	GoodResponse	0	0.03	99.657	3	9	Feedback	AvoidedLoss	True
102.081	3.122	Lose2	1.0	n/a	Yes	3.122	n/a	n/a	GoodResponse	0	0.0	n/a	3	9	ISIslide	AvoidedLoss	True
105.224	0.25	Control	1.0	0.0	Yes	3.276	0.024	n/a	GoodResponse	0	n/a	n/a	3	10	Cue	Neutral	True
105.474	4.0	Control	1.0	0.0	Yes	3.276	0.0	n/a	GoodResponse	0	n/a	n/a	3	10	Fixation	Neutral	True
109.47	0.3	Control	1.0	0.004	Yes	3.276	-0.004	2.0	GoodResponse	0	0.266	108.736	3	10	Target	Neutral	True
109.736	0.3	Control	1.0	0.004	Yes	3.276	-0.004	2.0	GoodResponse	0	0.266	n/a	3	10	ButtonPress	Neutral	True
109.771	0.4	Control	1.0	n/a	Yes	3.276	n/a	n/a	GoodResponse	0	n/a	n/a	3	10	Blank	Neutral	True
110.172	1.45	Control	1.0	n/a	Yes	3.276	n/a	5.0	GoodResponse	0	0.047	109.219	3	10	Feedback	Neutral	True
111.626	3.276	Control	1.0	n/a	Yes	3.276	n/a	n/a	GoodResponse	0	0.0	n/a	3	10	ISIslide	Neutral	True
114.919	0.25	Lose2	1.0	0.0	Yes	2.731	0.019	n/a	GoodResponse	0	n/a	n/a	3	11	Cue	AvoidedLoss	True
115.17	4.05	Lose2	1.0	0.0	Yes	2.731	0.001	n/a	GoodResponse	0	n/a	n/a	3	11	Fixation	AvoidedLoss	True
119.216	0.29	Lose2	1.0	0.003	Yes	2.731	-0.003	2.0	GoodResponse	0	0.205	118.421	3	11	Target	AvoidedLoss	True
119.421	0.3	Lose2	1.0	0.003	Yes	2.731	-0.003	2.0	GoodResponse	0	0.205	n/a	3	11	ButtonPress	AvoidedLoss	True
119.516	0.41	Lose2	1.0	n/a	Yes	2.731	n/a	n/a	GoodResponse	0	n/a	n/a	3	11	Blank	AvoidedLoss	True
119.918	1.45	Lose2	1.0	n/a	Yes	2.731	n/a	5.0	GoodResponse	0	0.008	118.926	3	11	Feedback	AvoidedLoss	True
121.372	2.731	Lose2	1.0	n/a	Yes	2.731	n/a	n/a	GoodResponse	0	0.0	n/a	3	11	ISIslide	AvoidedLoss	True
124.13	0.25	Control	1.0	0.0	Yes	2.97	0.03	n/a	GoodResponse	0	n/a	n/a	3	12	Cue	Neutral	True
124.381	3.9	Control	1.0	0.0	Yes	2.97	0.001	n/a	GoodResponse	0	n/a	n/a	3	12	Fixation	Neutral	True
128.276	0.28	Control	1.0	0.004	Yes	2.97	-0.004	2.0	GoodResponse	0	0.225	127.501	3	12	Target	Neutral	True
128.501	0.3	Control	1.0	0.004	Yes	2.97	-0.004	2.0	GoodResponse	0	0.225	n/a	3	12	ButtonPress	Neutral	True
128.56	0.42	Control	1.0	n/a	Yes	2.97	n/a	n/a	GoodResponse	0	n/a	n/a	3	12	Blank	Neutral	True
128.978	1.45	Control	1.0	n/a	Yes	2.97	n/a	5.0	GoodResponse	0	0.021	127.999	3	12	Feedback	Neutral	True
130.432	2.97	Control	1.0	n/a	Yes	2.97	n/a	n/a	GoodResponse	0	0.0	n/a	3	12	ISIslide	Neutral	True
133.425	0.25	Control	1.0	0.0	Yes	2.775	0.025	n/a	GoodResponse	0	n/a	n/a	3	13	Cue	Neutral	True
133.676	4.0	Control	1.0	0.0	Yes	2.775	0.001	n/a	GoodResponse	0	n/a	n/a	3	13	Fixation	Neutral	True
137.671	0.27	Control	1.0	0.004	Yes	2.775	-0.004	2.0	GoodResponse	0	0.198	136.869	3	13	Target	Neutral	True
137.869	0.3	Control	1.0	0.004	Yes	2.775	-0.004	2.0	GoodResponse	0	0.198	n/a	3	13	ButtonPress	Neutral	True
137.955	0.43	Control	1.0	n/a	Yes	2.775	n/a	n/a	GoodResponse	0	n/a	n/a	3	13	Blank	Neutral	True
138.373	1.45	Control	1.0	n/a	Yes	2.775	n/a	5.0	GoodResponse	0	0.04	137.413	3	13	Feedback	Neutral	True
139.827	2.775	Control	1.0	n/a	Yes	2.775	n/a	n/a	GoodResponse	0	0.0	n/a	3	13	ISIslide	Neutral	True
142.619	0.25	Win2	1.0	0.0	Yes	2.681	0.019	n/a	GoodResponse	1	n/a	n/a	4	14	Cue	Win	True
142.87	4.1	Win2	1.0	0.0	Yes	2.681	0.001	n/a	GoodResponse	1	n/a	n/a	4	14	Fixation	Win	True
146.965	0.26	Win2	1.0	0.004	Yes	2.681	-0.004	2.0	GoodResponse	1	0.23	146.195	4	14	Target	Win	True
147.195	0.3	Win2	1.0	0.004	Yes	2.681	-0.004	2.0	GoodResponse	1	0.23	n/a	4	14	ButtonPress	Win	True
147.233	0.44	Win2	1.0	n/a	Yes	2.681	n/a	n/a	GoodResponse	1	n/a	n/a	4	14	Blank	Win	True
147.667	1.45	Win2	1.0	n/a	Yes	2.681	n/a	5.0	GoodResponse	1	0.014	146.681	4	14	Feedback	Win	True
149.122	2.681	Win2	1.0	n/a	Yes	2.681	n/a	n/a	GoodResponse	1	0.0	n/a	4	14	ISIslide	Win	True
151.83	0.25	Control	1.0	0.0	Yes	2.97	0.03	n/a	GoodResponse	0	n/a	n/a	4	15	Cue	Neutral	True
152.081	4.0	Control	1.0	0.0	Yes	2.97	0.001	n/a	GoodResponse	0	n/a	n/a	4	15	Fixation	Neutral	True
156.076	0.25	Control	1.0	0.004	Yes	2.97	-0.004	2.0	GoodResponse	0	0.237	155.313	4	15	Target	Neutral	True
156.313	0.3	Control	1.0	0.004	Yes	2.97	-0.004	2.0	GoodResponse	0	0.237	n/a	4	15	ButtonPress	Neutral	True
156.327	0.45	Control	1.0	n/a	Yes	2.97	n/a	n/a	GoodResponse	0	n/a	n/a	4	15	Blank	Neutral	True
156.778	1.45	Control	1.0	n/a	Yes	2.97	n/a	5.0	GoodResponse	0	0.025	155.803	4	15	Feedback	Neutral	True
158.232	2.97	Control	1.0	n/a	Yes	2.97	n/a	n/a	GoodResponse	0	0.0	n/a	4	15	ISIslide	Neutral	True
161.225	0.25	Win2	1.0	0.0	Yes	2.875	0.025	n/a	GoodResponse	1	n/a	n/a	5	16	Cue	Win	True
161.475	4.0	Win2	1.0	0.001	Yes	2.875	0.0	n/a	GoodResponse	1	n/a	n/a	5	16	Fixation	Win	True
165.471	0.24	Win2	1.0	0.004	Yes	2.875	-0.004	2.0	GoodResponse	1	0.232	164.703	5	16	Target	Win	True
165.703	0.3	Win2	1.0	0.004	Yes	2.875	-0.004	2.0	GoodResponse	1	0.232	n/a	5	16	ButtonPress	Win	True
165.722	0.46	Win2	1.0	n/a	Yes	2.875	n/a	n/a	GoodResponse	1	n/a	n/a	5	16	Blank	Win	True
166.173	1.45	Win2	1.0	n/a	Yes	2.875	n/a	5.0	GoodResponse	1	0.045	165.218	5	16	Feedback	Win	True
167.627	2.875	Win2	1.0	n/a	Yes	2.875	n/a	n/a	GoodResponse	1	0.0	n/a	5	16	ISIslide	Win	True
170.519	0.25	Lose2	1.0	0.0	Yes	2.731	0.019	n/a	GoodResponse	0	n/a	n/a	5	17	Cue	AvoidedLoss	True
170.77	3.95	Lose2	1.0	0.0	Yes	2.731	0.001	n/a	GoodResponse	0	n/a	n/a	5	17	Fixation	AvoidedLoss	True
174.715	0.23	Lose2	1.0	0.004	Yes	2.731	-0.004	2.0	GoodResponse	0	0.178	173.893	5	17	Target	AvoidedLoss	True
174.893	0.3	Lose2	1.0	0.004	Yes	2.731	-0.004	2.0	GoodResponse	0	0.178	n/a	5	17	ButtonPress	AvoidedLoss	True
174.949	0.47	Lose2	1.0	n/a	Yes	2.731	n/a	n/a	GoodResponse	0	n/a	n/a	5	17	Blank	AvoidedLoss	True
175.417	1.45	Lose2	1.0	n/a	Yes	2.731	n/a	5.0	GoodResponse	0	0.021	174.438	5	17	Feedback	AvoidedLoss	True
176.872	2.731	Lose2	1.0	n/a	Yes	2.731	n/a	n/a	GoodResponse	0	0.0	n/a	5	17	ISIslide	AvoidedLoss	True
179.63	0.25	Lose2	0.9473999999999999	0.0	No	2.72	0.03	n/a	NoResponse	-1	n/a	n/a	4	18	Cue	Loss	True
179.881	4.05	Lose2	0.9473999999999999	0.0	No	2.72	0.001	n/a	NoResponse	-1	n/a	n/a	4	18	Fixation	Loss	True
183.926	0.22	Lose2	0.9473999999999999	0.004	No	2.72	-0.004	2.0	NoResponse	-1	0.246	183.172	4	18	Target	Loss	True
184.16	0.48	Lose2	0.9473999999999999	n/a	No	2.72	n/a	n/a	NoResponse	-1	n/a	n/a	4	18	Blank	Loss	True
184.172	0.3	Lose2	0.9473999999999999	0.004	No	2.72	-0.004	2.0	NoResponse	-1	0.246	n/a	4	18	ButtonPress	Loss	True
184.628	1.45	Lose2	0.9473999999999999	n/a	No	2.72	n/a	5.0	NoResponse	-1	0.029	183.657	4	18	Feedback	Loss	True
186.083	2.72	Lose2	0.9473999999999999	n/a	No	2.72	n/a	n/a	NoResponse	-1	0.0	n/a	4	18	ISIslide	Loss	True
188.824	0.25	Control	0.9	0.0	No	2.926	0.024	n/a	NoResponse	0	n/a	n/a	4	19	Cue	Neutral	True
189.075	3.95	Control	0.9	0.0	No	2.926	0.001	n/a	NoResponse	0	n/a	n/a	4	19	Fixation	Neutral	True
193.02	0.21	Control	0.9	0.004	No	2.926	-0.004	2.0	NoResponse	0	0.234	192.254	4	19	Target	Neutral	True
193.237	0.49	Control	0.9	n/a	No	2.926	n/a	n/a	NoResponse	0	n/a	n/a	4	19	Blank	Neutral	True
193.254	0.3	Control	0.9	0.004	No	2.926	-0.004	2.0	NoResponse	0	0.234	n/a	4	19	ButtonPress	Neutral	True
193.722	1.45	Control	0.9	n/a	No	2.926	n/a	5.0	NoResponse	0	0.008	192.73	4	19	Feedback	Neutral	True
195.176	2.926	Control	0.9	n/a	No	2.926	n/a	n/a	NoResponse	0	0.0	n/a	4	19	ISIslide	Neutral	True
198.119	0.25	Control	0.8571	0.0	No	2.631	0.019	n/a	NoResponse	0	n/a	n/a	4	20	Cue	Neutral	True
198.369	4.05	Control	0.8571	0.0	No	2.631	0.0	n/a	NoResponse	0	n/a	n/a	4	20	Fixation	Neutral	True
202.415	0.2	Control	0.8571	0.004	No	2.631	-0.004	2.0	NoResponse	0	0.204	201.619	4	20	Target	Neutral	True
202.615	0.5	Control	0.8571	n/a	No	2.631	n/a	n/a	NoResponse	0	n/a	n/a	4	20	Blank	Neutral	True
202.619	0.3	Control	0.8571	0.004	No	2.631	-0.004	2.0	NoResponse	0	0.204	n/a	4	20	ButtonPress	Neutral	True
203.117	1.45	Control	0.8571	n/a	No	2.631	n/a	5.0	NoResponse	0	0.027	202.144	4	20	Feedback	Neutral	True
204.571	2.631	Control	0.8571	n/a	No	2.631	n/a	n/a	NoResponse	0	0.0	n/a	4	20	ISIslide	Neutral	True
207.229	0.25	Control	0.8181999999999999	0.0	No	2.771	0.029	n/a	NoResponse	0	n/a	n/a	4	21	Cue	Neutral	False
207.48	4.1	Control	0.8181999999999999	0.0	No	2.771	0.001	2.0	NoResponse	0	3.807	210.287	4	21	Fixation	Neutral	False
211.287	0.3	Control	0.8181999999999999	0.0	No	2.771	0.001	2.0	NoResponse	0	3.807	n/a	4	21	ButtonPress	Neutral	False
211.576	0.19	Control	0.8181999999999999	0.003	No	2.771	-0.003	2.0	NoResponse	0	0.257	210.833	4	21	Target	Neutral	False
211.776	0.51	Control	0.8181999999999999	n/a	No	2.771	n/a	n/a	NoResponse	0	n/a	n/a	4	21	Blank	Neutral	False
211.833	0.3	Control	0.8181999999999999	0.003	No	2.771	-0.003	2.0	NoResponse	0	0.257	n/a	4	21	ButtonPress	Neutral	False
212.278	1.45	Control	0.8181999999999999	n/a	No	2.771	n/a	5.0	NoResponse	0	0.037	211.315	4	21	Feedback	Neutral	False
213.732	2.771	Control	0.8181999999999999	n/a	No	2.771	n/a	n/a	NoResponse	0	0.0	n/a	4	21	ISIslide	Neutral	False
216.524	0.25	Control	0.7826000000000001	0.0	No	2.776	0.024	n/a	NoResponse	0	n/a	n/a	4	22	Cue	Neutral	True
216.775	4.0	Control	0.7826000000000001	0.0	No	2.776	0.001	n/a	NoResponse	0	n/a	n/a	4	22	Fixation	Neutral	True
220.77	0.18	Control	0.7826000000000001	0.004	No	2.776	-0.004	2.0	NoResponse	0	0.297	220.067	4	22	Target	Neutral	True
220.954	0.52	Control	0.7826000000000001	n/a	No	2.776	n/a	n/a	NoResponse	0	n/a	n/a	4	22	Blank	Neutral	True
221.067	0.3	Control	0.7826000000000001	0.004	No	2.776	-0.004	2.0	NoResponse	0	0.297	n/a	4	22	ButtonPress	Neutral	True
221.472	1.45	Control	0.7826000000000001	n/a	No	2.776	n/a	5.0	NoResponse	0	0.014	220.486	4	22	Feedback	Neutral	True
222.926	2.776	Control	0.7826000000000001	n/a	No	2.776	n/a	n/a	NoResponse	0	0.0	n/a	4	22	ISIslide	Neutral	True
225.718	0.25	Control	0.75	0.0	No	2.782	0.018	n/a	NoResponse	0	n/a	n/a	4	23	Cue	Neutral	True
225.969	3.9	Control	0.75	0.0	No	2.782	0.001	n/a	NoResponse	0	n/a	n/a	4	23	Fixation	Neutral	True
229.864	0.17	Control	0.75	0.004	No	2.782	-0.004	2.0	NoResponse	0	0.212	229.076	4	23	Target	Neutral	True
230.048	0.53	Control	0.75	n/a	No	2.782	n/a	n/a	NoResponse	0	n/a	n/a	4	23	Blank	Neutral	True
230.076	0.3	Control	0.75	0.004	No	2.782	-0.004	2.0	NoResponse	0	0.212	n/a	4	23	ButtonPress	Neutral	True
230.566	1.45	Control	0.75	n/a	No	2.782	n/a	5.0	NoResponse	0	0.042	229.608	4	23	Feedback	Neutral	True
232.02	2.782	Control	0.75	n/a	No	2.782	n/a	n/a	NoResponse	0	0.0	n/a	4	23	ISIslide	Neutral	True
234.829	0.25	Win2	0.72	0.0	No	3.121	0.029	n/a	NoResponse	0	n/a	n/a	4	24	Cue	MissedWin	True
235.079	3.95	Win2	0.72	0.0	No	3.121	0.0	n/a	NoResponse	0	n/a	n/a	4	24	Fixation	MissedWin	True
239.025	0.16	Win2	0.72	0.004	No	3.121	-0.004	2.0	NoResponse	0	0.211	238.236	4	24	Target	MissedWin	True
239.192	0.54	Win2	0.72	n/a	No	3.121	n/a	n/a	NoResponse	0	n/a	n/a	4	24	Blank	MissedWin	True
239.236	0.3	Win2	0.72	0.004	No	3.121	-0.004	2.0	NoResponse	0	0.211	n/a	4	24	ButtonPress	MissedWin	True
239.727	1.45	Win2	0.72	n/a	No	3.121	n/a	5.0	NoResponse	0	0.007	238.734	4	24	Feedback	MissedWin	True
241.181	3.121	Win2	0.72	n/a	No	3.121	n/a	n/a	NoResponse	0	0.0	n/a	4	24	ISIslide	MissedWin	True
244.324	0.25	Win2	0.6923	0.0	No	3.076	0.024	n/a	NoResponse	0	n/a	n/a	4	25	Cue	MissedWin	True
244.574	4.0	Win2	0.6923	0.001	No	3.076	0.0	n/a	NoResponse	0	n/a	n/a	4	25	Fixation	MissedWin	True
248.57	0.15	Win2	0.6923	0.004	No	3.076	-0.004	2.0	NoResponse	0	0.184	247.754	4	25	Target	MissedWin	True
248.72	0.55	Win2	0.6923	n/a	No	3.076	n/a	n/a	NoResponse	0	n/a	n/a	4	25	Blank	MissedWin	True
248.754	0.3	Win2	0.6923	0.004	No	3.076	-0.004	2.0	NoResponse	0	0.184	n/a	4	25	ButtonPress	MissedWin	True
249.272	1.45	Win2	0.6923	n/a	No	3.076	n/a	5.0	NoResponse	0	0.019	248.291	4	25	Feedback	MissedWin	True
250.726	3.076	Win2	0.6923	n/a	No	3.076	n/a	n/a	NoResponse	0	0.0	n/a	4	25	ISIslide	MissedWin	True
253.819	0.25	Win2	0.6667000000000001	0.0	No	2.931	0.019	n/a	NoResponse	0	n/a	n/a	4	26	Cue	MissedWin	True
254.07	3.95	Win2	0.6667000000000001	0.0	No	2.931	0.001	n/a	NoResponse	0	n/a	n/a	4	26	Fixation	MissedWin	True
258.015	0.15	Win2	0.6667000000000001	0.004	No	2.931	-0.004	2.0	NoResponse	0	0.209	257.224	4	26	Target	MissedWin	True
258.165	0.55	Win2	0.6667000000000001	n/a	No	2.931	n/a	n/a	NoResponse	0	n/a	n/a	4	26	Blank	MissedWin	True
258.224	0.3	Win2	0.6667000000000001	0.004	No	2.931	-0.004	2.0	NoResponse	0	0.209	n/a	4	26	ButtonPress	MissedWin	True
258.717	1.45	Win2	0.6667000000000001	n/a	No	2.931	n/a	5.0	NoResponse	0	0.037	257.754	4	26	Feedback	MissedWin	True
260.171	2.931	Win2	0.6667000000000001	n/a	No	2.931	n/a	n/a	NoResponse	0	0.0	n/a	4	26	ISIslide	MissedWin	True
263.13	0.25	Lose2	0.6429	0.0	No	2.82	0.03	n/a	NoResponse	-1	n/a	n/a	3	27	Cue	Loss	True
263.381	4.05	Lose2	0.6429	0.0	No	2.82	0.001	n/a	NoResponse	-1	n/a	n/a	3	27	Fixation	Loss	True
267.426	0.15	Lose2	0.6429	0.004	No	2.82	-0.004	2.0	NoResponse	-1	0.207	266.633	3	27	Target	Loss	True
267.577	0.55	Lose2	0.6429	n/a	No	2.82	n/a	n/a	NoResponse	-1	n/a	n/a	3	27	Blank	Loss	True
267.633	0.3	Lose2	0.6429	0.004	No	2.82	-0.004	2.0	NoResponse	-1	0.207	n/a	3	27	ButtonPress	Loss	True
268.128	1.45	Lose2	0.6429	n/a	No	2.82	n/a	5.0	NoResponse	-1	0.041	267.169	3	27	Feedback	Loss	True
269.583	2.82	Lose2	0.6429	n/a	No	2.82	n/a	n/a	NoResponse	-1	0.0	n/a	3	27	ISIslide	Loss	True
272.425	0.25	Control	0.6207	0.0	No	2.825	0.025	n/a	NoResponse	0	n/a	n/a	3	28	Cue	Neutral	True
272.675	4.05	Control	0.6207	0.0	No	2.825	0.0	n/a	NoResponse	0	n/a	n/a	3	28	Fixation	Neutral	True
276.721	0.16	Control	0.6207	0.004	No	2.825	-0.004	2.0	NoResponse	0	0.201	275.922	3	28	Target	Neutral	True
276.888	0.54	Control	0.6207	n/a	No	2.825	n/a	n/a	NoResponse	0	n/a	n/a	3	28	Blank	Neutral	True
276.922	0.3	Control	0.6207	0.004	No	2.825	-0.004	2.0	NoResponse	0	0.201	n/a	3	28	ButtonPress	Neutral	True
277.423	1.45	Control	0.6207	n/a	No	2.825	n/a	5.0	NoResponse	0	0.014	276.437	3	28	Feedback	Neutral	True
278.877	2.825	Control	0.6207	n/a	No	2.825	n/a	n/a	NoResponse	0	0.0	n/a	3	28	ISIslide	Neutral	True
281.719	0.25	Lose2	0.6	0.0	No	2.831	0.019	n/a	NoResponse	-1	n/a	n/a	2	29	Cue	Loss	True
281.97	3.95	Lose2	0.6	0.0	No	2.831	0.001	n/a	NoResponse	-1	n/a	n/a	2	29	Fixation	Loss	True
285.915	0.17	Lose2	0.6	0.004	No	2.831	-0.004	2.0	NoResponse	-1	0.364	285.279	2	29	Target	Loss	True
286.099	0.53	Lose2	0.6	n/a	No	2.831	n/a	n/a	NoResponse	-1	n/a	n/a	2	29	Blank	Loss	True
286.279	0.3	Lose2	0.6	0.004	No	2.831	-0.004	2.0	NoResponse	-1	0.364	n/a	2	29	ButtonPress	Loss	True
286.617	1.45	Lose2	0.6	n/a	No	2.831	n/a	5.0	NoResponse	-1	0.04	285.657	2	29	Feedback	Loss	True
288.071	2.831	Lose2	0.6	n/a	No	2.831	n/a	n/a	NoResponse	-1	0.0	n/a	2	29	ISIslide	Loss	True
290.913	0.25	Win2	0.5806	0.0	No	2.787	0.013	n/a	NoResponse	0	n/a	n/a	2	30	Cue	MissedWin	True
291.164	3.9	Win2	0.5806	0.0	No	2.787	0.001	n/a	NoResponse	0	n/a	n/a	2	30	Fixation	MissedWin	True
295.059	0.18	Win2	0.5806	0.004	No	2.787	-0.004	2.0	NoResponse	0	0.19	294.249	2	30	Target	MissedWin	True
295.243	0.52	Win2	0.5806	n/a	No	2.787	n/a	n/a	NoResponse	0	n/a	n/a	2	30	Blank	MissedWin	True
295.249	0.3	Win2	0.5806	0.004	No	2.787	-0.004	2.0	NoResponse	0	0.19	n/a	2	30	ButtonPress	MissedWin	True
295.761	1.45	Win2	0.5806	n/a	No	2.787	n/a	5.0	NoResponse	0	0.018	294.779	2	30	Feedback	MissedWin	True
297.216	2.787	Win2	0.5806	n/a	No	2.787	n/a	n/a	NoResponse	0	0.0	n/a	2	30	ISIslide	MissedWin	True
300.024	0.25	Lose2	0.5938	0.0	Yes	2.826	0.024	n/a	GoodResponse	0	n/a	n/a	2	31	Cue	AvoidedLoss	True
300.275	4.05	Lose2	0.5938	0.0	Yes	2.826	0.001	n/a	GoodResponse	0	n/a	n/a	2	31	Fixation	AvoidedLoss	True
304.32	0.19	Lose2	0.5938	0.004	Yes	2.826	-0.004	2.0	GoodResponse	0	0.182	303.502	2	31	Target	AvoidedLoss	True
304.502	0.3	Lose2	0.5938	0.004	Yes	2.826	-0.004	2.0	GoodResponse	0	0.182	n/a	2	31	ButtonPress	AvoidedLoss	True
304.521	0.51	Lose2	0.5938	n/a	Yes	2.826	n/a	n/a	GoodResponse	0	n/a	n/a	2	31	Blank	AvoidedLoss	True
305.022	1.45	Lose2	0.5938	n/a	Yes	2.826	n/a	5.0	GoodResponse	0	0.025	304.047	2	31	Feedback	AvoidedLoss	True
306.477	2.826	Lose2	0.5938	n/a	Yes	2.826	n/a	n/a	GoodResponse	0	0.0	n/a	2	31	ISIslide	AvoidedLoss	True
309.318	0.25	Lose2	0.6061	0.001	Yes	2.632	0.018	n/a	GoodResponse	0	n/a	n/a	2	32	Cue	AvoidedLoss	True
309.569	4.15	Lose2	0.6061	0.0	Yes	2.632	0.001	n/a	GoodResponse	0	n/a	n/a	2	32	Fixation	AvoidedLoss	True
313.715	0.2	Lose2	0.6061	0.003	Yes	2.632	-0.003	2.0	GoodResponse	0	0.191	312.906	2	32	Target	AvoidedLoss	True
313.906	0.3	Lose2	0.6061	0.003	Yes	2.632	-0.003	2.0	GoodResponse	0	0.191	n/a	2	32	ButtonPress	AvoidedLoss	True
313.916	0.5	Lose2	0.6061	n/a	Yes	2.632	n/a	n/a	GoodResponse	0	n/a	n/a	2	32	Blank	AvoidedLoss	True
314.417	1.45	Lose2	0.6061	n/a	Yes	2.632	n/a	5.0	GoodResponse	0	0.044	313.461	2	32	Feedback	AvoidedLoss	True
315.871	2.632	Lose2	0.6061	n/a	Yes	2.632	n/a	n/a	GoodResponse	0	0.0	n/a	2	32	ISIslide	AvoidedLoss	True
318.529	0.25	Win2	0.6175999999999999	0.0	Yes	2.671	0.029	n/a	GoodResponse	1	n/a	n/a	3	33	Cue	Win	True
318.78	4.0	Win2	0.6175999999999999	0.0	Yes	2.671	0.001	n/a	GoodResponse	1	n/a	n/a	3	33	Fixation	Win	True
322.775	0.21	Win2	0.6175999999999999	0.004	Yes	2.671	-0.004	2.0	GoodResponse	1	0.182	321.957	3	33	Target	Win	True
322.957	0.3	Win2	0.6175999999999999	0.004	Yes	2.671	-0.004	2.0	GoodResponse	1	0.182	n/a	3	33	ButtonPress	Win	True
322.993	0.49	Win2	0.6175999999999999	n/a	Yes	2.671	n/a	n/a	GoodResponse	1	n/a	n/a	3	33	Blank	Win	True
323.478	1.45	Win2	0.6175999999999999	n/a	Yes	2.671	n/a	5.0	GoodResponse	1	0.007	322.485	3	33	Feedback	Win	True
324.932	2.671	Win2	0.6175999999999999	n/a	Yes	2.671	n/a	n/a	GoodResponse	1	0.0	n/a	3	33	ISIslide	Win	True
327.623	0.25	Lose2	0.6286	0.0	Yes	2.627	0.023	n/a	GoodResponse	0	n/a	n/a	3	34	Cue	AvoidedLoss	True
327.874	4.05	Lose2	0.6286	0.0	Yes	2.627	0.001	n/a	GoodResponse	0	n/a	n/a	3	34	Fixation	AvoidedLoss	True
331.92	0.22	Lose2	0.6286	0.003	Yes	2.627	-0.003	2.0	GoodResponse	0	0.204	331.124	3	34	Target	AvoidedLoss	True
332.124	0.3	Lose2	0.6286	0.003	Yes	2.627	-0.003	2.0	GoodResponse	0	0.204	n/a	3	34	ButtonPress	AvoidedLoss	True
332.154	0.48	Lose2	0.6286	n/a	Yes	2.627	n/a	n/a	GoodResponse	0	n/a	n/a	3	34	Blank	AvoidedLoss	True
332.622	1.45	Lose2	0.6286	n/a	Yes	2.627	n/a	5.0	GoodResponse	0	0.034	331.656	3	34	Feedback	AvoidedLoss	True
334.076	2.627	Lose2	0.6286	n/a	Yes	2.627	n/a	n/a	GoodResponse	0	0.0	n/a	3	34	ISIslide	AvoidedLoss	True
336.717	0.25	Lose2	0.6111	0.0	No	2.683	0.017	n/a	NoResponse	-1	n/a	n/a	2	35	Cue	Loss	True
336.968	4.0	Lose2	0.6111	0.0	No	2.683	0.001	n/a	NoResponse	-1	n/a	n/a	2	35	Fixation	Loss	True
340.963	0.23	Lose2	0.6111	0.004	No	2.683	-0.004	2.0	NoResponse	-1	0.266	340.229	2	35	Target	Loss	True
341.197	0.47	Lose2	0.6111	n/a	No	2.683	n/a	n/a	NoResponse	-1	n/a	n/a	2	35	Blank	Loss	True
341.229	0.3	Lose2	0.6111	0.004	No	2.683	-0.004	2.0	NoResponse	-1	0.266	n/a	2	35	ButtonPress	Loss	True
341.665	1.45	Lose2	0.6111	n/a	No	2.683	n/a	5.0	NoResponse	-1	0.016	340.681	2	35	Feedback	Loss	True
343.12	2.683	Lose2	0.6111	n/a	No	2.683	n/a	n/a	NoResponse	-1	0.0	n/a	2	35	ISIslide	Loss	True
345.828	0.25	Control	0.5946	0.0	No	2.672	0.028	n/a	LatePress	0	n/a	n/a	2	36	Cue	Neutral	True
346.079	4.0	Control	0.5946	0.0	No	2.672	0.001	n/a	LatePress	0	n/a	n/a	2	36	Fixation	Neutral	True
350.074	0.24	Control	0.5946	0.004	No	2.672	-0.004	2.0	LatePress	0	0.246	349.32	2	36	Target	Neutral	True
350.32	0.3	Control	0.5946	0.004	No	2.672	-0.004	2.0	LatePress	0	0.246	n/a	2	36	ButtonPress	Neutral	True
350.325	0.46	Control	0.5946	n/a	No	2.672	n/a	n/a	LatePress	0	n/a	n/a	2	36	Blank	Neutral	True
350.776	1.45	Control	0.5946	n/a	No	2.672	n/a	5.0	LatePress	0	0.027	349.803	2	36	Feedback	Neutral	True
352.23	2.672	Control	0.5946	n/a	No	2.672	n/a	n/a	LatePress	0	0.0	n/a	2	36	ISIslide	Neutral	True
354.922	0.25	Win2	0.6053000000000001	0.0	Yes	2.878	0.022	n/a	GoodResponse	1	n/a	n/a	3	37	Cue	Win	True
355.173	4.0	Win2	0.6053000000000001	0.0	Yes	2.878	0.001	n/a	GoodResponse	1	n/a	n/a	3	37	Fixation	Win	True
359.168	0.25	Win2	0.6053000000000001	0.004	Yes	2.878	-0.004	2.0	GoodResponse	1	0.229	358.397	3	37	Target	Win	True
359.397	0.3	Win2	0.6053000000000001	0.004	Yes	2.878	-0.004	2.0	GoodResponse	1	0.229	n/a	3	37	ButtonPress	Win	True
359.419	0.45	Win2	0.6053000000000001	n/a	Yes	2.878	n/a	n/a	GoodResponse	1	n/a	n/a	3	37	Blank	Win	True
359.87	1.45	Win2	0.6053000000000001	n/a	Yes	2.878	n/a	5.0	GoodResponse	1	0.006	358.876	3	37	Feedback	Win	True
361.324	2.878	Win2	0.6053000000000001	n/a	Yes	2.878	n/a	n/a	GoodResponse	1	0.0	n/a	3	37	ISIslide	Win	True
364.216	0.25	Lose2	0.6154	0.0	Yes	2.834	0.016	n/a	GoodResponse	0	n/a	n/a	3	38	Cue	AvoidedLoss	True
364.467	3.95	Lose2	0.6154	0.0	Yes	2.834	0.001	n/a	GoodResponse	0	n/a	n/a	3	38	Fixation	AvoidedLoss	True
368.412	0.26	Lose2	0.6154	0.004	Yes	2.834	-0.004	2.0	GoodResponse	0	0.183	367.595	3	38	Target	AvoidedLoss	True
368.595	0.3	Lose2	0.6154	0.004	Yes	2.834	-0.004	2.0	GoodResponse	0	0.183	n/a	3	38	ButtonPress	AvoidedLoss	True
368.68	0.44	Lose2	0.6154	n/a	Yes	2.834	n/a	n/a	GoodResponse	0	n/a	n/a	3	38	Blank	AvoidedLoss	True
369.114	1.45	Lose2	0.6154	n/a	Yes	2.834	n/a	5.0	GoodResponse	0	0.029	368.143	3	38	Feedback	AvoidedLoss	True
370.569	2.834	Lose2	0.6154	n/a	Yes	2.834	n/a	n/a	GoodResponse	0	0.0	n/a	3	38	ISIslide	AvoidedLoss	True
373.427	0.25	Win2	0.625	0.0	Yes	2.973	0.027	n/a	GoodResponse	1	n/a	n/a	4	39	Cue	Win	True
373.678	4.1	Win2	0.625	0.0	Yes	2.973	0.001	n/a	GoodResponse	1	n/a	n/a	4	39	Fixation	Win	True
377.774	0.27	Win2	0.625	0.003	Yes	2.973	-0.003	2.0	GoodResponse	1	0.254	377.028	4	39	Target	Win	True
378.028	0.3	Win2	0.625	0.003	Yes	2.973	-0.003	2.0	GoodResponse	1	0.254	n/a	4	39	ButtonPress	Win	True
378.058	0.43	Win2	0.625	n/a	Yes	2.973	n/a	n/a	GoodResponse	1	n/a	n/a	4	39	Blank	Win	True
378.476	1.45	Win2	0.625	n/a	Yes	2.973	n/a	5.0	GoodResponse	1	0.033	377.509	4	39	Feedback	Win	True
379.93	2.973	Win2	0.625	n/a	Yes	2.973	n/a	n/a	GoodResponse	1	0.0	n/a	4	39	ISIslide	Win	True
382.922	0.25	Win2	0.6341	0.0	Yes	2.728	0.022	n/a	GoodResponse	1	n/a	n/a	5	40	Cue	Win	True
383.173	3.95	Win2	0.6341	0.0	Yes	2.728	0.001	n/a	GoodResponse	1	n/a	n/a	5	40	Fixation	Win	True
387.118	0.28	Win2	0.6341	0.004	Yes	2.728	-0.004	2.0	GoodResponse	1	0.194	386.312	5	40	Target	Win	True
387.312	0.3	Win2	0.6341	0.004	Yes	2.728	-0.004	2.0	GoodResponse	1	0.194	n/a	5	40	ButtonPress	Win	True
387.402	0.42	Win2	0.6341	n/a	Yes	2.728	n/a	n/a	GoodResponse	1	n/a	n/a	5	40	Blank	Win	True
387.82	1.45	Win2	0.6341	n/a	Yes	2.728	n/a	5.0	GoodResponse	1	0.006	386.826	5	40	Feedback	Win	True
389.275	2.728	Win2	0.6341	n/a	Yes	2.728	n/a	n/a	GoodResponse	1	0.0	n/a	5	40	ISIslide	Win	True
392.016	0.25	Win2	0.6429	0.0	Yes	2.784	0.016	n/a	GoodResponse	1	n/a	n/a	6	41	Cue	Win	True
392.267	3.9	Win2	0.6429	0.0	Yes	2.784	0.001	n/a	GoodResponse	1	n/a	n/a	6	41	Fixation	Win	True
396.162	0.29	Win2	0.6429	0.004	Yes	2.784	-0.004	2.0	GoodResponse	1	0.223	395.385	6	41	Target	Win	True
396.385	0.3	Win2	0.6429	0.004	Yes	2.784	-0.004	2.0	GoodResponse	1	0.223	n/a	6	41	ButtonPress	Win	True
396.463	0.41	Win2	0.6429	n/a	Yes	2.784	n/a	n/a	GoodResponse	1	n/a	n/a	6	41	Blank	Win	True
396.864	1.45	Win2	0.6429	n/a	Yes	2.784	n/a	5.0	GoodResponse	1	0.036	395.9	6	41	Feedback	Win	True
398.319	2.784	Win2	0.6429	n/a	Yes	2.784	n/a	n/a	GoodResponse	1	0.0	n/a	6	41	ISIslide	Win	True
401.127	0.25	Control	0.6512	0.0	Yes	2.923	0.027	n/a	GoodResponse	0	n/a	n/a	6	42	Cue	Neutral	True
401.378	3.85	Control	0.6512	0.0	Yes	2.923	0.001	n/a	GoodResponse	0	n/a	n/a	6	42	Fixation	Neutral	True
405.223	0.3	Control	0.6512	0.004	Yes	2.923	-0.004	2.0	GoodResponse	0	0.24	404.463	6	42	Target	Neutral	True
405.463	0.3	Control	0.6512	0.004	Yes	2.923	-0.004	2.0	GoodResponse	0	0.24	n/a	6	42	ButtonPress	Neutral	True
405.523	0.4	Control	0.6512	n/a	Yes	2.923	n/a	n/a	GoodResponse	0	n/a	n/a	6	42	Blank	Neutral	True
405.925	1.45	Control	0.6512	n/a	Yes	2.923	n/a	5.0	GoodResponse	0	0.048	404.973	6	42	Feedback	Neutral	True
407.379	2.923	Control	0.6512	n/a	Yes	2.923	n/a	n/a	GoodResponse	0	0.0	n/a	6	42	ISIslide	Neutral	True
410.321	0.25	Win2	0.6591	0.0	Yes	3.179	0.021	n/a	GoodResponse	1	n/a	n/a	7	43	Cue	Win	True
410.572	4.0	Win2	0.6591	0.0	Yes	3.179	0.001	n/a	GoodResponse	1	n/a	n/a	7	43	Fixation	Win	True
414.567	0.31	Win2	0.6591	0.004	Yes	3.179	-0.004	2.0	GoodResponse	1	0.205	413.772	7	43	Target	Win	True
414.772	0.3	Win2	0.6591	0.004	Yes	3.179	-0.004	2.0	GoodResponse	1	0.205	n/a	7	43	ButtonPress	Win	True
414.885	0.39	Win2	0.6591	n/a	Yes	3.179	n/a	n/a	GoodResponse	1	n/a	n/a	7	43	Blank	Win	True
415.269	1.45	Win2	0.6591	n/a	Yes	3.179	n/a	5.0	GoodResponse	1	0.021	414.29	7	43	Feedback	Win	True
416.724	3.179	Win2	0.6591	n/a	Yes	3.179	n/a	n/a	GoodResponse	1	0.0	n/a	7	43	ISIslide	Win	True
419.917	0.25	Win2	0.6667000000000001	0.0	Yes	2.983	0.017	n/a	GoodResponse	1	n/a	n/a	8	44	Cue	Win	True
420.167	4.0	Win2	0.6667000000000001	0.0	Yes	2.983	0.0	n/a	GoodResponse	1	n/a	n/a	8	44	Fixation	Win	True
424.163	0.31	Win2	0.6667000000000001	0.004	Yes	2.983	-0.004	2.0	GoodResponse	1	0.192	423.355	8	44	Target	Win	True
424.355	0.3	Win2	0.6667000000000001	0.004	Yes	2.983	-0.004	2.0	GoodResponse	1	0.192	n/a	8	44	ButtonPress	Win	True
424.48	0.39	Win2	0.6667000000000001	n/a	Yes	2.983	n/a	n/a	GoodResponse	1	n/a	n/a	8	44	Blank	Win	True
424.865	1.45	Win2	0.6667000000000001	n/a	Yes	2.983	n/a	5.0	GoodResponse	1	0.035	423.9	8	44	Feedback	Win	True
426.319	2.983	Win2	0.6667000000000001	n/a	Yes	2.983	n/a	n/a	GoodResponse	1	0.0	n/a	8	44	ISIslide	Win	True
429.328	0.25	Control	0.6739	0.0	Yes	2.872	0.028	n/a	GoodResponse	0	n/a	n/a	8	45	Cue	Neutral	True
429.579	4.1	Control	0.6739	0.0	Yes	2.872	0.001	n/a	GoodResponse	0	n/a	n/a	8	45	Fixation	Neutral	True
433.674	0.3	Control	0.6739	0.004	Yes	2.872	-0.004	2.0	GoodResponse	0	0.225	432.899	8	45	Target	Neutral	True
433.899	0.3	Control	0.6739	0.004	Yes	2.872	-0.004	2.0	GoodResponse	0	0.225	n/a	8	45	ButtonPress	Neutral	True
433.975	0.4	Control	0.6739	n/a	Yes	2.872	n/a	n/a	GoodResponse	0	n/a	n/a	8	45	Blank	Neutral	True
434.377	1.45	Control	0.6739	n/a	Yes	2.872	n/a	5.0	GoodResponse	0	0.034	433.411	8	45	Feedback	Neutral	True
435.831	2.872	Control	0.6739	n/a	Yes	2.872	n/a	n/a	GoodResponse	0	0.0	n/a	8	45	ISIslide	Neutral	True
438.723	0.25	Lose2	0.6809000000000001	0.0	Yes	3.377	0.023	n/a	GoodResponse	0	n/a	n/a	8	46	Cue	AvoidedLoss	True
438.974	4.0	Lose2	0.6809000000000001	0.0	Yes	3.377	0.001	n/a	GoodResponse	0	n/a	n/a	8	46	Fixation	AvoidedLoss	True
442.969	0.29	Lose2	0.6809000000000001	0.004	Yes	3.377	-0.004	2.0	GoodResponse	0	0.202	442.171	8	46	Target	AvoidedLoss	True
443.171	0.3	Lose2	0.6809000000000001	0.004	Yes	3.377	-0.004	2.0	GoodResponse	0	0.202	n/a	8	46	ButtonPress	AvoidedLoss	True
443.27	0.41	Lose2	0.6809000000000001	n/a	Yes	3.377	n/a	n/a	GoodResponse	0	n/a	n/a	8	46	Blank	AvoidedLoss	True
443.671	1.45	Lose2	0.6809000000000001	n/a	Yes	3.377	n/a	5.0	GoodResponse	0	0.009	442.68	8	46	Feedback	AvoidedLoss	True
445.125	3.377	Lose2	0.6809000000000001	n/a	Yes	3.377	n/a	n/a	GoodResponse	0	0.0	n/a	8	46	ISIslide	AvoidedLoss	True
448.519	0.25	Lose2	0.6667000000000001	0.0	No	2.681	0.019	n/a	NoResponse	-1	n/a	n/a	7	47	Cue	Loss	True
448.77	4.0	Lose2	0.6667000000000001	0.0	No	2.681	0.001	n/a	NoResponse	-1	n/a	n/a	7	47	Fixation	Loss	True
452.765	0.28	Lose2	0.6667000000000001	0.004	No	2.681	-0.004	2.0	NoResponse	-1	0.371	452.136	7	47	Target	Loss	True
453.049	0.42	Lose2	0.6667000000000001	n/a	No	2.681	n/a	n/a	NoResponse	-1	n/a	n/a	7	47	Blank	Loss	True
453.136	0.3	Lose2	0.6667000000000001	0.004	No	2.681	-0.004	2.0	NoResponse	-1	0.371	n/a	7	47	ButtonPress	Loss	True
453.467	1.45	Lose2	0.6667000000000001	n/a	No	2.681	n/a	5.0	NoResponse	-1	0.018	452.485	7	47	Feedback	Loss	True
454.921	2.681	Lose2	0.6667000000000001	n/a	No	2.681	n/a	n/a	NoResponse	-1	0.0	n/a	7	47	ISIslide	Loss	True
457.63	0.25	Lose2	0.6735	0.0	Yes	3.02	0.03	n/a	GoodResponse	0	n/a	n/a	7	48	Cue	AvoidedLoss	True
457.88	3.95	Lose2	0.6735	0.0	Yes	3.02	0.0	n/a	GoodResponse	0	n/a	n/a	7	48	Fixation	AvoidedLoss	True
461.842	0.27	Lose2	0.6735	0.0	Yes	3.02	0.012	2.0	GoodResponse	0	0.235	461.077	7	48	Target	AvoidedLoss	True
462.077	0.3	Lose2	0.6735	0.0	Yes	3.02	0.012	2.0	GoodResponse	0	0.235	n/a	7	48	ButtonPress	AvoidedLoss	True
462.11	0.43	Lose2	0.6735	n/a	Yes	3.02	n/a	n/a	GoodResponse	0	n/a	n/a	7	48	Blank	AvoidedLoss	True
462.528	1.45	Lose2	0.6735	n/a	Yes	3.02	n/a	5.0	GoodResponse	0	0.03	461.558	7	48	Feedback	AvoidedLoss	True
463.982	3.02	Lose2	0.6735	n/a	Yes	3.02	n/a	n/a	GoodResponse	0	0.0	n/a	7	48	ISIslide	AvoidedLoss	True
467.024	0.25	Control	0.68	0.0	Yes	2.876	0.024	n/a	GoodResponse	0	n/a	n/a	7	49	Cue	Neutral	True
467.275	4.0	Control	0.68	0.0	Yes	2.876	0.001	n/a	GoodResponse	0	n/a	n/a	7	49	Fixation	Neutral	True
471.27	0.26	Control	0.68	0.004	Yes	2.876	-0.004	2.0	GoodResponse	0	0.216	470.486	7	49	Target	Neutral	True
471.486	0.3	Control	0.68	0.004	Yes	2.876	-0.004	2.0	GoodResponse	0	0.216	n/a	7	49	ButtonPress	Neutral	True
471.538	0.44	Control	0.68	n/a	Yes	2.876	n/a	n/a	GoodResponse	0	n/a	n/a	7	49	Blank	Neutral	True
471.973	1.45	Control	0.68	n/a	Yes	2.876	n/a	5.0	GoodResponse	0	0.0	470.973	7	49	Feedback	Neutral	True
473.427	2.876	Control	0.68	n/a	Yes	2.876	n/a	n/a	GoodResponse	0	0.0	n/a	7	49	ISIslide	Neutral	True
476.319	0.25	Control	0.6862999999999999	0.0	Yes	2.781	0.019	n/a	GoodResponse	0	n/a	n/a	7	50	Cue	Neutral	True
476.57	4.0	Control	0.6862999999999999	0.0	Yes	2.781	0.001	n/a	GoodResponse	0	n/a	n/a	7	50	Fixation	Neutral	True
480.565	0.25	Control	0.6862999999999999	0.004	Yes	2.781	-0.004	2.0	GoodResponse	0	0.234	479.799	7	50	Target	Neutral	True
480.799	0.3	Control	0.6862999999999999	0.004	Yes	2.781	-0.004	2.0	GoodResponse	0	0.234	n/a	7	50	ButtonPress	Neutral	True
480.816	0.45	Control	0.6862999999999999	n/a	Yes	2.781	n/a	n/a	GoodResponse	0	n/a	n/a	7	50	Blank	Neutral	True
481.267	1.45	Control	0.6862999999999999	n/a	Yes	2.781	n/a	5.0	GoodResponse	0	0.023	480.29	7	50	Feedback	Neutral	True
482.721	2.781	Control	0.6862999999999999	n/a	Yes	2.781	n/a	n/a	GoodResponse	0	0.0	n/a	7	50	ISIslide	Neutral	True
485.513	0.25	Control	0.6923	0.0	Yes	2.737	0.013	n/a	GoodResponse	0	n/a	n/a	7	51	Cue	Neutral	False
485.764	3.95	Control	0.6923	0.0	Yes	2.737	0.001	2.0	GoodResponse	0	3.021	487.785	7	51	Fixation	Neutral	False
488.785	0.3	Control	0.6923	0.0	Yes	2.737	0.001	2.0	GoodResponse	0	3.021	n/a	7	51	ButtonPress	Neutral	False
489.709	0.24	Control	0.6923	0.004	Yes	2.737	-0.004	2.0	GoodResponse	0	0.238	488.947	7	51	Target	Neutral	False
489.947	0.3	Control	0.6923	0.004	Yes	2.737	-0.004	2.0	GoodResponse	0	0.238	n/a	7	51	ButtonPress	Neutral	False
489.96	0.46	Control	0.6923	n/a	Yes	2.737	n/a	n/a	GoodResponse	0	n/a	n/a	7	51	Blank	Neutral	False
490.411	1.45	Control	0.6923	n/a	Yes	2.737	n/a	5.0	GoodResponse	0	0.0	489.411	7	51	Feedback	Neutral	False
491.865	2.737	Control	0.6923	n/a	Yes	2.737	n/a	n/a	GoodResponse	0	0.0	n/a	7	51	ISIslide	Neutral	False
494.624	0.25	Control	0.6792	0.0	No	2.626	0.024	n/a	NoResponse	0	n/a	n/a	7	52	Cue	Neutral	True
494.874	4.05	Control	0.6792	0.001	No	2.626	0.0	n/a	NoResponse	0	n/a	n/a	7	52	Fixation	Neutral	True
498.92	0.23	Control	0.6792	0.004	No	2.626	-0.004	2.0	NoResponse	0	0.239	498.159	7	52	Target	Neutral	True
499.154	0.47	Control	0.6792	n/a	No	2.626	n/a	n/a	NoResponse	0	n/a	n/a	7	52	Blank	Neutral	True
499.159	0.3	Control	0.6792	0.004	No	2.626	-0.004	2.0	NoResponse	0	0.239	n/a	7	52	ButtonPress	Neutral	True
499.622	1.45	Control	0.6792	n/a	No	2.626	n/a	5.0	NoResponse	0	0.009	498.631	7	52	Feedback	Neutral	True
501.076	2.626	Control	0.6792	n/a	No	2.626	n/a	n/a	NoResponse	0	0.0	n/a	7	52	ISIslide	Neutral	True
503.718	0.25	Win2	0.6667000000000001	0.0	No	2.932	0.018	n/a	LatePress	0	n/a	n/a	7	53	Cue	MissedWin	True
503.968	4.05	Win2	0.6667000000000001	0.0	No	2.932	0.0	n/a	LatePress	0	n/a	n/a	7	53	Fixation	MissedWin	True
508.014	0.22	Win2	0.6667000000000001	0.004	No	2.932	-0.004	2.0	LatePress	0	0.22	507.234	7	53	Target	MissedWin	True
508.234	0.3	Win2	0.6667000000000001	0.004	No	2.932	-0.004	2.0	LatePress	0	0.22	n/a	7	53	ButtonPress	MissedWin	True
508.248	0.48	Win2	0.6667000000000001	n/a	No	2.932	n/a	n/a	LatePress	0	n/a	n/a	7	53	Blank	MissedWin	True
508.716	1.45	Win2	0.6667000000000001	n/a	No	2.932	n/a	5.0	LatePress	0	0.037	507.753	7	53	Feedback	MissedWin	True
510.17	2.932	Win2	0.6667000000000001	n/a	No	2.932	n/a	n/a	LatePress	0	0.0	n/a	7	53	ISIslide	MissedWin	True
513.129	0.25	Win2	0.6727	0.0	Yes	2.721	0.029	n/a	GoodResponse	1	n/a	n/a	8	54	Cue	Win	False
513.38	3.95	Win2	0.6727	0.0	Yes	2.721	0.001	2.0	GoodResponse	1	0.058	512.438	8	54	Fixation	Win	False
513.438	0.3	Win2	0.6727	0.0	Yes	2.721	0.001	2.0	GoodResponse	1	0.058	n/a	8	54	ButtonPress	Win	False
517.325	0.21	Win2	0.6727	0.004	Yes	2.721	-0.004	2.0	GoodResponse	1	0.202	516.527	8	54	Target	Win	False
517.527	0.3	Win2	0.6727	0.004	Yes	2.721	-0.004	2.0	GoodResponse	1	0.202	n/a	8	54	ButtonPress	Win	False
517.542	0.49	Win2	0.6727	n/a	Yes	2.721	n/a	n/a	GoodResponse	1	n/a	n/a	8	54	Blank	Win	False
518.027	1.45	Win2	0.6727	n/a	Yes	2.721	n/a	5.0	GoodResponse	1	0.043	517.07	8	54	Feedback	Win	False
519.482	2.721	Win2	0.6727	n/a	Yes	2.721	n/a	n/a	GoodResponse	1	0.0	n/a	8	54	ISIslide	Win	False
522.223	0.25	Control	0.6786	0.0	Yes	3.027	0.023	n/a	GoodResponse	0	n/a	n/a	8	55	Cue	Neutral	True
522.474	3.95	Control	0.6786	0.0	Yes	3.027	0.001	n/a	GoodResponse	0	n/a	n/a	8	55	Fixation	Neutral	True
526.419	0.2	Control	0.6786	0.004	Yes	3.027	-0.004	2.0	GoodResponse	0	0.187	525.606	8	55	Target	Neutral	True
526.606	0.3	Control	0.6786	0.004	Yes	3.027	-0.004	2.0	GoodResponse	0	0.187	n/a	8	55	ButtonPress	Neutral	True
526.62	0.5	Control	0.6786	n/a	Yes	3.027	n/a	n/a	GoodResponse	0	n/a	n/a	8	55	Blank	Neutral	True
527.121	1.45	Control	0.6786	n/a	Yes	3.027	n/a	5.0	GoodResponse	0	0.022	526.143	8	55	Feedback	Neutral	True
528.575	3.027	Control	0.6786	n/a	Yes	3.027	n/a	n/a	GoodResponse	0	0.0	n/a	8	55	ISIslide	Neutral	True
531.618	0.25	Control	0.6667000000000001	0.0	No	2.832	0.018	n/a	LatePress	0	n/a	n/a	8	56	Cue	Neutral	True
531.869	3.95	Control	0.6667000000000001	0.0	No	2.832	0.001	n/a	LatePress	0	n/a	n/a	8	56	Fixation	Neutral	True
535.814	0.19	Control	0.6667000000000001	0.004	No	2.832	-0.004	2.0	LatePress	0	0.201	535.015	8	56	Target	Neutral	True
536.014	0.51	Control	0.6667000000000001	n/a	No	2.832	n/a	n/a	LatePress	0	n/a	n/a	8	56	Blank	Neutral	True
536.015	0.3	Control	0.6667000000000001	0.004	No	2.832	-0.004	2.0	LatePress	0	0.201	n/a	8	56	ButtonPress	Neutral	True
536.516	1.45	Control	0.6667000000000001	n/a	No	2.832	n/a	5.0	LatePress	0	0.042	535.558	8	56	Feedback	Neutral	True
537.97	2.832	Control	0.6667000000000001	n/a	No	2.832	n/a	n/a	LatePress	0	0.0	n/a	8	56	ISIslide	Neutral	True
540.829	0.25	Control	0.6552	0.0	No	3.471	0.029	n/a	NoResponse	0	n/a	n/a	8	57	Cue	Neutral	True
541.08	4.0	Control	0.6552	0.0	No	3.471	0.001	n/a	NoResponse	0	n/a	n/a	8	57	Fixation	Neutral	True
545.075	0.18	Control	0.6552	0.004	No	3.471	-0.004	2.0	NoResponse	0	0.626	544.701	8	57	Target	Neutral	True
545.259	0.52	Control	0.6552	n/a	No	3.471	n/a	n/a	NoResponse	0	n/a	n/a	8	57	Blank	Neutral	True
545.701	0.3	Control	0.6552	0.004	No	3.471	-0.004	2.0	NoResponse	0	0.626	n/a	8	57	ButtonPress	Neutral	True
545.777	1.45	Control	0.6552	n/a	No	3.471	n/a	5.0	NoResponse	0	0.049	544.826	8	57	Feedback	Neutral	True
547.231	3.471	Control	0.6552	n/a	No	3.471	n/a	n/a	NoResponse	0	0.0	n/a	8	57	ISIslide	Neutral	True
550.725	0.25	Win2	0.6441	0.0	No	2.725	0.025	n/a	NoResponse	0	n/a	n/a	8	58	Cue	MissedWin	True
550.976	4.05	Win2	0.6441	0.0	No	2.725	0.001	n/a	NoResponse	0	n/a	n/a	8	58	Fixation	MissedWin	True
555.021	0.18	Win2	0.6441	0.004	No	2.725	-0.004	2.0	NoResponse	0	0.203	554.224	8	58	Target	MissedWin	True
555.205	0.52	Win2	0.6441	n/a	No	2.725	n/a	n/a	NoResponse	0	n/a	n/a	8	58	Blank	MissedWin	True
555.224	0.3	Win2	0.6441	0.004	No	2.725	-0.004	2.0	NoResponse	0	0.203	n/a	8	58	ButtonPress	MissedWin	True
555.723	1.45	Win2	0.6441	n/a	No	2.725	n/a	5.0	NoResponse	0	0.005	554.728	8	58	Feedback	MissedWin	True
557.178	2.725	Win2	0.6441	n/a	No	2.725	n/a	n/a	NoResponse	0	0.0	n/a	8	58	ISIslide	MissedWin	True
559.919	0.25	Lose2	0.6333	0.0	No	2.681	0.019	n/a	NoResponse	-1	n/a	n/a	7	59	Cue	Loss	True
560.17	4.0	Lose2	0.6333	0.0	No	2.681	0.001	2.0	NoResponse	-1	3.976	563.146	7	59	Fixation	Loss	True
564.146	0.3	Lose2	0.6333	0.0	No	2.681	0.001	2.0	NoResponse	-1	3.976	n/a	7	59	ButtonPress	Loss	True
564.165	0.19	Lose2	0.6333	0.004	No	2.681	-0.004	n/a	NoResponse	-1	n/a	n/a	7	59	Target	Loss	True
564.366	0.51	Lose2	0.6333	n/a	No	2.681	n/a	n/a	NoResponse	-1	n/a	n/a	7	59	Blank	Loss	True
564.868	1.45	Lose2	0.6333	n/a	No	2.681	n/a	5.0	NoResponse	-1	0.031	563.899	7	59	Feedback	Loss	True
566.322	2.681	Lose2	0.6333	n/a	No	2.681	n/a	n/a	NoResponse	-1	0.0	n/a	7	59	ISIslide	Loss	True
569.013	0.25	Control	0.623	0.0	No	2.687	0.013	n/a	NoResponse	0	n/a	n/a	7	60	Cue	Neutral	True
569.264	4.0	Control	0.623	0.0	No	2.687	0.001	n/a	NoResponse	0	n/a	n/a	7	60	Fixation	Neutral	True
573.259	0.2	Control	0.623	0.004	No	2.687	-0.004	2.0	NoResponse	0	0.235	572.494	7	60	Target	Neutral	True
573.46	0.5	Control	0.623	n/a	No	2.687	n/a	n/a	NoResponse	0	n/a	n/a	7	60	Blank	Neutral	True
573.494	0.3	Control	0.623	0.004	No	2.687	-0.004	2.0	NoResponse	0	0.235	n/a	7	60	ButtonPress	Neutral	True
573.961	1.45	Control	0.623	n/a	No	2.687	n/a	5.0	NoResponse	0	0.011	572.972	7	60	Feedback	Neutral	True
575.416	2.687	Control	0.623	n/a	No	2.687	n/a	n/a	NoResponse	0	0.0	n/a	7	60	ISIslide	Neutral	True
578.124	0.25	Lose2	0.629	0.0	Yes	2.976	0.024	n/a	GoodResponse	0	n/a	n/a	7	61	Cue	AvoidedLoss	False
578.375	4.0	Lose2	0.629	0.0	Yes	2.976	0.001	2.0	GoodResponse	0	3.148	580.523	7	61	Fixation	AvoidedLoss	False
581.523	0.3	Lose2	0.629	0.0	Yes	2.976	0.001	2.0	GoodResponse	0	3.148	n/a	7	61	ButtonPress	AvoidedLoss	False
582.37	0.21	Lose2	0.629	0.004	Yes	2.976	-0.004	2.0	GoodResponse	0	0.202	581.572	7	61	Target	AvoidedLoss	False
582.572	0.3	Lose2	0.629	0.004	Yes	2.976	-0.004	2.0	GoodResponse	0	0.202	n/a	7	61	ButtonPress	AvoidedLoss	False
582.587	0.49	Lose2	0.629	n/a	Yes	2.976	n/a	n/a	GoodResponse	0	n/a	n/a	7	61	Blank	AvoidedLoss	False
583.072	1.45	Lose2	0.629	n/a	Yes	2.976	n/a	5.0	GoodResponse	0	0.022	582.094	7	61	Feedback	AvoidedLoss	False
584.526	2.976	Lose2	0.629	n/a	Yes	2.976	n/a	n/a	GoodResponse	0	0.0	n/a	7	61	ISIslide	AvoidedLoss	False
587.519	0.25	Lose2	0.619	0.0	No	2.881	0.019	n/a	NoResponse	-1	n/a	n/a	6	62	Cue	Loss	True
587.769	3.9	Lose2	0.619	0.001	No	2.881	0.0	n/a	NoResponse	-1	n/a	n/a	6	62	Fixation	Loss	True
591.681	0.22	Lose2	0.619	0.0	No	2.881	0.012	2.0	NoResponse	-1	0.247	590.928	6	62	Target	Loss	True
591.899	0.48	Lose2	0.619	n/a	No	2.881	n/a	n/a	NoResponse	-1	n/a	n/a	6	62	Blank	Loss	True
591.928	0.3	Lose2	0.619	0.0	No	2.881	0.012	2.0	NoResponse	-1	0.247	n/a	6	62	ButtonPress	Loss	True
592.367	1.45	Lose2	0.619	n/a	No	2.881	n/a	5.0	NoResponse	-1	0.044	591.411	6	62	Feedback	Loss	True
593.821	2.881	Lose2	0.619	n/a	No	2.881	n/a	n/a	NoResponse	-1	0.0	n/a	6	62	ISIslide	Loss	True
596.73	0.25	Lose2	0.625	0.0	Yes	2.62	0.03	n/a	GoodResponse	0	n/a	n/a	6	63	Cue	AvoidedLoss	True
596.98	4.05	Lose2	0.625	0.0	Yes	2.62	0.0	n/a	GoodResponse	0	n/a	n/a	6	63	Fixation	AvoidedLoss	True
601.026	0.23	Lose2	0.625	0.004	Yes	2.62	-0.004	2.0	GoodResponse	0	0.219	600.245	6	63	Target	AvoidedLoss	True
601.245	0.3	Lose2	0.625	0.004	Yes	2.62	-0.004	2.0	GoodResponse	0	0.219	n/a	6	63	ButtonPress	AvoidedLoss	True
601.26	0.47	Lose2	0.625	n/a	Yes	2.62	n/a	n/a	GoodResponse	0	n/a	n/a	6	63	Blank	AvoidedLoss	True
601.728	1.45	Lose2	0.625	n/a	Yes	2.62	n/a	5.0	GoodResponse	0	0.049	600.777	6	63	Feedback	AvoidedLoss	True
603.182	2.62	Lose2	0.625	n/a	Yes	2.62	n/a	n/a	GoodResponse	0	0.0	n/a	6	63	ISIslide	AvoidedLoss	True
605.824	0.25	Win2	0.6308	0.0	Yes	3.126	0.024	n/a	GoodResponse	1	n/a	n/a	7	64	Cue	Win	True
606.074	4.15	Win2	0.6308	0.0	Yes	3.126	0.0	n/a	GoodResponse	1	n/a	n/a	7	64	Fixation	Win	True
610.22	0.24	Win2	0.6308	0.004	Yes	3.126	-0.004	2.0	GoodResponse	1	0.192	609.412	7	64	Target	Win	True
610.412	0.3	Win2	0.6308	0.004	Yes	3.126	-0.004	2.0	GoodResponse	1	0.192	n/a	7	64	ButtonPress	Win	True
610.471	0.46	Win2	0.6308	n/a	Yes	3.126	n/a	n/a	GoodResponse	1	n/a	n/a	7	64	Blank	Win	True
610.922	1.45	Win2	0.6308	n/a	Yes	3.126	n/a	5.0	GoodResponse	1	0.025	609.947	7	64	Feedback	Win	True
612.377	3.126	Win2	0.6308	n/a	Yes	3.126	n/a	n/a	GoodResponse	1	0.0	n/a	7	64	ISIslide	Win	True
615.519	0.25	Control	0.6364	0.0	Yes	2.781	0.019	n/a	GoodResponse	0	n/a	n/a	7	65	Cue	Neutral	True
615.77	4.0	Control	0.6364	0.0	Yes	2.781	0.001	n/a	GoodResponse	0	n/a	n/a	7	65	Fixation	Neutral	True
619.765	0.25	Control	0.6364	0.004	Yes	2.781	-0.004	2.0	GoodResponse	0	0.204	618.969	7	65	Target	Neutral	True
619.969	0.3	Control	0.6364	0.004	Yes	2.781	-0.004	2.0	GoodResponse	0	0.204	n/a	7	65	ButtonPress	Neutral	True
620.016	0.45	Control	0.6364	n/a	Yes	2.781	n/a	n/a	GoodResponse	0	n/a	n/a	7	65	Blank	Neutral	True
620.467	1.45	Control	0.6364	n/a	Yes	2.781	n/a	5.0	GoodResponse	0	0.041	619.508	7	65	Feedback	Neutral	True
621.922	2.781	Control	0.6364	n/a	Yes	2.781	n/a	n/a	GoodResponse	0	0.0	n/a	7	65	ISIslide	Neutral	True
624.714	0.25	Win2	0.6418	0.0	Yes	2.786	0.014	n/a	GoodResponse	1	n/a	n/a	8	66	Cue	Win	True
624.964	3.9	Win2	0.6418	0.0	Yes	2.786	0.0	n/a	GoodResponse	1	n/a	n/a	8	66	Fixation	Win	True
628.876	0.26	Win2	0.6418	0.0	Yes	2.786	0.012	2.0	GoodResponse	1	0.22	628.096	8	66	Target	Win	True
629.096	0.3	Win2	0.6418	0.0	Yes	2.786	0.012	2.0	GoodResponse	1	0.22	n/a	8	66	ButtonPress	Win	True
629.127	0.44	Win2	0.6418	n/a	Yes	2.786	n/a	n/a	GoodResponse	1	n/a	n/a	8	66	Blank	Win	True
629.561	1.45	Win2	0.6418	n/a	Yes	2.786	n/a	5.0	GoodResponse	1	0.02	628.581	8	66	Feedback	Win	True
631.016	2.786	Win2	0.6418	n/a	Yes	2.786	n/a	n/a	GoodResponse	1	0.0	n/a	8	66	ISIslide	Win	True
633.824	0.25	Control	0.6470999999999999	0.0	Yes	2.726	0.024	n/a	GoodResponse	0	n/a	n/a	8	67	Cue	Neutral	True
634.075	3.95	Control	0.6470999999999999	0.0	Yes	2.726	0.001	n/a	GoodResponse	0	n/a	n/a	8	67	Fixation	Neutral	True
638.02	0.27	Control	0.6470999999999999	0.004	Yes	2.726	-0.004	2.0	GoodResponse	0	0.261	637.281	8	67	Target	Neutral	True
638.281	0.3	Control	0.6470999999999999	0.004	Yes	2.726	-0.004	2.0	GoodResponse	0	0.261	n/a	8	67	ButtonPress	Neutral	True
638.304	0.43	Control	0.6470999999999999	n/a	Yes	2.726	n/a	n/a	GoodResponse	0	n/a	n/a	8	67	Blank	Neutral	True
638.722	1.45	Control	0.6470999999999999	n/a	Yes	2.726	n/a	5.0	GoodResponse	0	0.03	637.752	8	67	Feedback	Neutral	True
640.177	2.726	Control	0.6470999999999999	n/a	Yes	2.726	n/a	n/a	GoodResponse	0	0.0	n/a	8	67	ISIslide	Neutral	True
642.918	0.25	Win2	0.6522	0.0	Yes	3.082	0.018	n/a	GoodResponse	1	n/a	n/a	9	68	Cue	Win	True
643.169	4.0	Win2	0.6522	0.0	Yes	3.082	0.001	n/a	GoodResponse	1	n/a	n/a	9	68	Fixation	Win	True
647.164	0.28	Win2	0.6522	0.004	Yes	3.082	-0.004	2.0	GoodResponse	1	0.222	646.386	9	68	Target	Win	True
647.386	0.3	Win2	0.6522	0.004	Yes	3.082	-0.004	2.0	GoodResponse	1	0.222	n/a	9	68	ButtonPress	Win	True
647.448	0.42	Win2	0.6522	n/a	Yes	3.082	n/a	n/a	GoodResponse	1	n/a	n/a	9	68	Blank	Win	True
647.866	1.45	Win2	0.6522	n/a	Yes	3.082	n/a	5.0	GoodResponse	1	0.008	646.874	9	68	Feedback	Win	True
649.321	3.082	Win2	0.6522	n/a	Yes	3.082	n/a	n/a	GoodResponse	1	0.0	n/a	9	68	ISIslide	Win	True
652.413	0.25	Win2	0.6570999999999999	0.0	Yes	3.237	0.013	n/a	GoodResponse	1	n/a	n/a	10	69	Cue	Win	True
652.664	3.95	Win2	0.6570999999999999	0.0	Yes	3.237	0.001	n/a	GoodResponse	1	n/a	n/a	10	69	Fixation	Win	True
656.609	0.29	Win2	0.6570999999999999	0.004	Yes	3.237	-0.004	2.0	GoodResponse	1	0.244	655.853	10	69	Target	Win	True
656.853	0.3	Win2	0.6570999999999999	0.004	Yes	3.237	-0.004	2.0	GoodResponse	1	0.244	n/a	10	69	ButtonPress	Win	True
656.91	0.41	Win2	0.6570999999999999	n/a	Yes	3.237	n/a	n/a	GoodResponse	1	n/a	n/a	10	69	Blank	Win	True
657.311	1.45	Win2	0.6570999999999999	n/a	Yes	3.237	n/a	5.0	GoodResponse	1	0.027	656.338	10	69	Feedback	Win	True
658.766	3.237	Win2	0.6570999999999999	n/a	Yes	3.237	n/a	n/a	GoodResponse	1	0.0	n/a	10	69	ISIslide	Win	True
662.025	0.25	Lose2	0.662	0.0	Yes	3.025	0.025	n/a	GoodResponse	0	n/a	n/a	10	70	Cue	AvoidedLoss	True
662.276	4.05	Lose2	0.662	0.0	Yes	3.025	0.001	n/a	GoodResponse	0	n/a	n/a	10	70	Fixation	AvoidedLoss	True
666.322	0.29	Lose2	0.662	0.003	Yes	3.025	-0.003	2.0	GoodResponse	0	0.282	665.604	10	70	Target	AvoidedLoss	True
666.604	0.3	Lose2	0.662	0.003	Yes	3.025	-0.003	2.0	GoodResponse	0	0.282	n/a	10	70	ButtonPress	AvoidedLoss	True
666.622	0.41	Lose2	0.662	n/a	Yes	3.025	n/a	n/a	GoodResponse	0	n/a	n/a	10	70	Blank	AvoidedLoss	True
667.024	1.45	Lose2	0.662	n/a	Yes	3.025	n/a	5.0	GoodResponse	0	0.02	666.044	10	70	Feedback	AvoidedLoss	True
668.478	3.025	Lose2	0.662	n/a	Yes	3.025	n/a	n/a	GoodResponse	0	0.0	n/a	10	70	ISIslide	AvoidedLoss	True
671.52	0.25	Win2	0.6667000000000001	0.001	Yes	2.73	0.02	n/a	GoodResponse	1	n/a	n/a	11	71	Cue	Win	True
671.771	4.05	Win2	0.6667000000000001	0.0	Yes	2.73	0.001	n/a	GoodResponse	1	n/a	n/a	11	71	Fixation	Win	True
675.817	0.29	Win2	0.6667000000000001	0.003	Yes	2.73	-0.003	2.0	GoodResponse	1	0.193	675.01	11	71	Target	Win	True
676.01	0.3	Win2	0.6667000000000001	0.003	Yes	2.73	-0.003	2.0	GoodResponse	1	0.193	n/a	11	71	ButtonPress	Win	True
676.118	0.41	Win2	0.6667000000000001	n/a	Yes	2.73	n/a	n/a	GoodResponse	1	n/a	n/a	11	71	Blank	Win	True
676.519	1.45	Win2	0.6667000000000001	n/a	Yes	2.73	n/a	5.0	GoodResponse	1	0.037	675.556	11	71	Feedback	Win	True
677.973	2.73	Win2	0.6667000000000001	n/a	Yes	2.73	n/a	n/a	GoodResponse	1	0.0	n/a	11	71	ISIslide	Win	True
680.715	0.25	Win2	0.6712	0.0	Yes	2.785	0.015	n/a	GoodResponse	1	n/a	n/a	12	72	Cue	Win	True
680.965	4.1	Win2	0.6712	0.0	Yes	2.785	0.0	n/a	GoodResponse	1	n/a	n/a	12	72	Fixation	Win	True
685.061	0.28	Win2	0.6712	0.004	Yes	2.785	-0.004	2.0	GoodResponse	1	0.185	684.246	12	72	Target	Win	True
685.246	0.3	Win2	0.6712	0.004	Yes	2.785	-0.004	2.0	GoodResponse	1	0.185	n/a	12	72	ButtonPress	Win	True
685.345	0.42	Win2	0.6712	n/a	Yes	2.785	n/a	n/a	GoodResponse	1	n/a	n/a	12	72	Blank	Win	True
685.763	1.45	Win2	0.6712	n/a	Yes	2.785	n/a	5.0	GoodResponse	1	0.013	684.776	12	72	Feedback	Win	True
687.217	2.785	Win2	0.6712	n/a	Yes	2.785	n/a	n/a	GoodResponse	1	0.0	n/a	12	72	ISIslide	Win	True
690.026	0.25	Win2	0.6757	0.0	Yes	2.674	0.026	n/a	GoodResponse	1	n/a	n/a	13	73	Cue	Win	True
690.277	4.0	Win2	0.6757	0.0	Yes	2.674	0.001	n/a	GoodResponse	1	n/a	n/a	13	73	Fixation	Win	True
694.272	0.27	Win2	0.6757	0.004	Yes	2.674	-0.004	2.0	GoodResponse	1	0.209	693.481	13	73	Target	Win	True
694.481	0.3	Win2	0.6757	0.004	Yes	2.674	-0.004	2.0	GoodResponse	1	0.209	n/a	13	73	ButtonPress	Win	True
694.556	0.43	Win2	0.6757	n/a	Yes	2.674	n/a	n/a	GoodResponse	1	n/a	n/a	13	73	Blank	Win	True
694.974	1.45	Win2	0.6757	n/a	Yes	2.674	n/a	5.0	GoodResponse	1	0.022	693.996	13	73	Feedback	Win	True
696.428	2.674	Win2	0.6757	n/a	Yes	2.674	n/a	n/a	GoodResponse	1	0.0	n/a	13	73	ISIslide	Win	True
699.12	0.25	Lose2	0.68	0.0	Yes	2.63	0.02	n/a	GoodResponse	0	n/a	n/a	13	74	Cue	AvoidedLoss	True
699.371	4.05	Lose2	0.68	0.0	Yes	2.63	0.001	n/a	GoodResponse	0	n/a	n/a	13	74	Fixation	AvoidedLoss	True
703.416	0.26	Lose2	0.68	0.004	Yes	2.63	-0.004	2.0	GoodResponse	0	0.225	702.641	13	74	Target	AvoidedLoss	True
703.641	0.3	Lose2	0.68	0.004	Yes	2.63	-0.004	2.0	GoodResponse	0	0.225	n/a	13	74	ButtonPress	AvoidedLoss	True
703.683	0.44	Lose2	0.68	n/a	Yes	2.63	n/a	n/a	GoodResponse	0	n/a	n/a	13	74	Blank	AvoidedLoss	True
704.118	1.45	Lose2	0.68	n/a	Yes	2.63	n/a	5.0	GoodResponse	0	0.048	703.166	13	74	Feedback	AvoidedLoss	True
705.572	2.63	Lose2	0.68	n/a	Yes	2.63	n/a	n/a	GoodResponse	0	0.0	n/a	13	74	ISIslide	AvoidedLoss	True
708.214	0.25	Lose2	0.6842	0.0	Yes	2.936	0.014	n/a	GoodResponse	0	n/a	n/a	13	75	Cue	AvoidedLoss	True
708.464	3.95	Lose2	0.6842	0.001	Yes	2.936	0.0	n/a	GoodResponse	0	n/a	n/a	13	75	Fixation	AvoidedLoss	True
712.41	0.25	Lose2	0.6842	0.004	Yes	2.936	-0.004	2.0	GoodResponse	0	0.2	711.61	13	75	Target	AvoidedLoss	True
712.61	0.3	Lose2	0.6842	0.004	Yes	2.936	-0.004	2.0	GoodResponse	0	0.2	n/a	13	75	ButtonPress	AvoidedLoss	True
712.66	0.45	Lose2	0.6842	n/a	Yes	2.936	n/a	n/a	GoodResponse	0	n/a	n/a	13	75	Blank	AvoidedLoss	True
713.112	1.45	Lose2	0.6842	n/a	Yes	2.936	n/a	5.0	GoodResponse	0	0.03	712.142	13	75	Feedback	AvoidedLoss	True
714.566	2.936	Lose2	0.6842	n/a	Yes	2.936	n/a	n/a	GoodResponse	0	0.0	n/a	13	75	ISIslide	AvoidedLoss	True
717.525	0.25	Control	0.6883	0.0	Yes	3.225	0.025	n/a	GoodResponse	0	n/a	n/a	13	76	Cue	Neutral	True
717.776	4.05	Control	0.6883	0.0	Yes	3.225	0.001	n/a	GoodResponse	0	n/a	n/a	13	76	Fixation	Neutral	True
721.821	0.24	Control	0.6883	0.004	Yes	3.225	-0.004	2.0	GoodResponse	0	0.2	721.021	13	76	Target	Neutral	True
722.021	0.3	Control	0.6883	0.004	Yes	3.225	-0.004	2.0	GoodResponse	0	0.2	n/a	13	76	ButtonPress	Neutral	True
722.072	0.46	Control	0.6883	n/a	Yes	3.225	n/a	n/a	GoodResponse	0	n/a	n/a	13	76	Blank	Neutral	True
722.523	1.45	Control	0.6883	n/a	Yes	3.225	n/a	5.0	GoodResponse	0	0.034	721.557	13	76	Feedback	Neutral	True
723.978	3.225	Control	0.6883	n/a	Yes	3.225	n/a	n/a	GoodResponse	0	0.0	n/a	13	76	ISIslide	Neutral	True
727.221	0.25	Lose2	0.6795	0.0	No	2.579	0.021	n/a	NoResponse	-1	n/a	n/a	12	77	Cue	Loss	True
727.471	3.95	Lose2	0.6795	0.0	No	2.579	0.0	n/a	NoResponse	-1	n/a	n/a	12	77	Fixation	Loss	True
731.417	0.23	Lose2	0.6795	0.004	No	2.579	-0.004	2.0	NoResponse	-1	0.26	730.677	12	77	Target	Loss	True
731.651	0.47	Lose2	0.6795	n/a	No	2.579	n/a	n/a	NoResponse	-1	n/a	n/a	12	77	Blank	Loss	True
731.677	0.3	Lose2	0.6795	0.004	No	2.579	-0.004	2.0	NoResponse	-1	0.26	n/a	12	77	ButtonPress	Loss	True
732.119	1.45	Lose2	0.6795	n/a	No	2.579	n/a	5.0	NoResponse	-1	0.047	731.166	12	77	Feedback	Loss	True
733.573	2.579	Lose2	0.6795	n/a	No	2.579	n/a	n/a	NoResponse	-1	0.0	n/a	12	77	ISIslide	Loss	True
