onset	duration	cue_type	current_mean_accuracy	duration_error	is_hit	isi_adjusted	onset_delay	response	response_type	reward	rt	rt_time	total_reward	trial_number	trial_phase	trial_type	one_press
11.106	0.25	Control	1.0	0.0	Yes	2.944	0.006	n/a	GoodResponse	0	n/a	n/a	0	0	Cue	Neutral	True
11.356	3.85	Control	1.0	0.0	Yes	2.944	0.0	n/a	GoodResponse	0	n/a	n/a	0	0	Fixation	Neutral	True
15.204	0.4	Control	1.0	0.002	Yes	2.944	-0.002	3.0	GoodResponse	0	0.282	14.486	0	0	Target	Neutral	True
15.486	0.3	Control	1.0	0.002	Yes	2.944	-0.002	3.0	GoodResponse	0	0.282	n/a	0	0	ButtonPress	Neutral	True
15.604	0.3	Control	1.0	n/a	Yes	2.944	n/a	n/a	GoodResponse	0	n/a	n/a	0	0	Blank	Neutral	True
15.904	1.45	Control	1.0	n/a	Yes	2.944	n/a	5.0	GoodResponse	0	0.024	14.928	0	0	Feedback	Neutral	True
17.353	2.944	Control	1.0	n/a	Yes	2.944	n/a	n/a	GoodResponse	0	0.0	n/a	0	0	ISIslide	Neutral	True
20.319	0.25	Lose2	1.0	0.0	Yes	2.781	0.019	n/a	GoodResponse	0	n/a	n/a	0	1	Cue	AvoidedLoss	True
20.569	4.0	Lose2	1.0	0.0	Yes	2.781	0.0	n/a	GoodResponse	0	n/a	n/a	0	1	Fixation	AvoidedLoss	True
24.568	0.39	Lose2	1.0	0.001	Yes	2.781	-0.001	3.0	GoodResponse	0	0.255	23.823	0	1	Target	AvoidedLoss	True
24.823	0.3	Lose2	1.0	0.001	Yes	2.781	-0.001	3.0	GoodResponse	0	0.255	n/a	0	1	ButtonPress	AvoidedLoss	True
24.967	0.31	Lose2	1.0	n/a	Yes	2.781	n/a	n/a	GoodResponse	0	n/a	n/a	0	1	Blank	AvoidedLoss	True
25.267	1.45	Lose2	1.0	n/a	Yes	2.781	n/a	5.0	GoodResponse	0	0.027	24.294	0	1	Feedback	AvoidedLoss	True
26.717	2.781	Lose2	1.0	n/a	Yes	2.781	n/a	n/a	GoodResponse	0	0.0	n/a	0	1	ISIslide	AvoidedLoss	True
29.516	0.25	Control	1.0	0.0	Yes	2.584	0.016	n/a	GoodResponse	0	n/a	n/a	0	2	Cue	Neutral	True
29.766	4.1	Control	1.0	0.0	Yes	2.584	0.0	n/a	GoodResponse	0	n/a	n/a	0	2	Fixation	Neutral	True
33.864	0.38	Control	1.0	0.002	Yes	2.584	-0.002	3.0	GoodResponse	0	0.289	33.153	0	2	Target	Neutral	True
34.153	0.3	Control	1.0	0.002	Yes	2.584	-0.002	3.0	GoodResponse	0	0.289	n/a	0	2	ButtonPress	Neutral	True
34.247	0.32	Control	1.0	n/a	Yes	2.584	n/a	n/a	GoodResponse	0	n/a	n/a	0	2	Blank	Neutral	True
34.564	1.45	Control	1.0	n/a	Yes	2.584	n/a	5.0	GoodResponse	0	0.047	33.611	0	2	Feedback	Neutral	True
36.013	2.584	Control	1.0	n/a	Yes	2.584	n/a	n/a	GoodResponse	0	0.0	n/a	0	2	ISIslide	Neutral	True
38.629	0.25	Win2	1.0	0.0	Yes	2.821	0.029	n/a	GoodResponse	1	n/a	n/a	1	3	Cue	Win	True
38.879	3.95	Win2	1.0	0.0	Yes	2.821	0.0	n/a	GoodResponse	1	n/a	n/a	1	3	Fixation	Win	True
42.828	0.37	Win2	1.0	0.001	Yes	2.821	-0.001	3.0	GoodResponse	1	0.211	42.039	1	3	Target	Win	True
43.039	0.3	Win2	1.0	0.001	Yes	2.821	-0.001	3.0	GoodResponse	1	0.211	n/a	1	3	ButtonPress	Win	True
43.211	0.33	Win2	1.0	n/a	Yes	2.821	n/a	n/a	GoodResponse	1	n/a	n/a	1	3	Blank	Win	True
43.527	1.45	Win2	1.0	n/a	Yes	2.821	n/a	5.0	GoodResponse	1	0.011	42.538	1	3	Feedback	Win	True
44.977	2.821	Win2	1.0	n/a	Yes	2.821	n/a	n/a	GoodResponse	1	0.0	n/a	1	3	ISIslide	Win	True
47.826	0.25	Win2	1.0	0.0	Yes	3.274	0.026	n/a	GoodResponse	1	n/a	n/a	2	4	Cue	Win	True
48.076	4.0	Win2	1.0	0.0	Yes	3.274	0.0	n/a	GoodResponse	1	n/a	n/a	2	4	Fixation	Win	True
52.074	0.36	Win2	1.0	0.002	Yes	3.274	-0.002	3.0	GoodResponse	1	0.23	51.304	2	4	Target	Win	True
52.304	0.3	Win2	1.0	0.002	Yes	3.274	-0.002	3.0	GoodResponse	1	0.23	n/a	2	4	ButtonPress	Win	True
52.441	0.34	Win2	1.0	n/a	Yes	3.274	n/a	n/a	GoodResponse	1	n/a	n/a	2	4	Blank	Win	True
52.774	1.45	Win2	1.0	n/a	Yes	3.274	n/a	5.0	GoodResponse	1	0.032	51.806	2	4	Feedback	Win	True
54.224	3.274	Win2	1.0	n/a	Yes	3.274	n/a	n/a	GoodResponse	1	0.0	n/a	2	4	ISIslide	Win	True
57.522	0.25	Win2	1.0	0.001	Yes	2.778	0.022	n/a	GoodResponse	1	n/a	n/a	3	5	Cue	Win	True
57.772	4.0	Win2	1.0	0.0	Yes	2.778	0.0	n/a	GoodResponse	1	n/a	n/a	3	5	Fixation	Win	True
61.771	0.35	Win2	1.0	0.001	Yes	2.778	-0.001	3.0	GoodResponse	1	0.224	60.995	3	5	Target	Win	True
61.995	0.3	Win2	1.0	0.001	Yes	2.778	-0.001	3.0	GoodResponse	1	0.224	n/a	3	5	ButtonPress	Win	True
62.121	0.35	Win2	1.0	n/a	Yes	2.778	n/a	n/a	GoodResponse	1	n/a	n/a	3	5	Blank	Win	True
62.471	1.45	Win2	1.0	n/a	Yes	2.778	n/a	5.0	GoodResponse	1	0.042	61.513	3	5	Feedback	Win	True
63.92	2.778	Win2	1.0	n/a	Yes	2.778	n/a	n/a	GoodResponse	1	0.0	n/a	3	5	ISIslide	Win	True
66.719	0.25	Lose2	1.0	0.0	Yes	2.731	0.019	n/a	GoodResponse	0	n/a	n/a	3	6	Cue	AvoidedLoss	True
66.969	3.95	Lose2	1.0	0.0	Yes	2.731	0.0	n/a	GoodResponse	0	n/a	n/a	3	6	Fixation	AvoidedLoss	True
70.918	0.34	Lose2	1.0	0.001	Yes	2.731	-0.001	3.0	GoodResponse	0	0.233	70.151	3	6	Target	AvoidedLoss	True
71.151	0.3	Lose2	1.0	0.001	Yes	2.731	-0.001	3.0	GoodResponse	0	0.233	n/a	3	6	ButtonPress	AvoidedLoss	True
71.268	0.36	Lose2	1.0	n/a	Yes	2.731	n/a	n/a	GoodResponse	0	n/a	n/a	3	6	Blank	AvoidedLoss	True
71.617	1.45	Lose2	1.0	n/a	Yes	2.731	n/a	5.0	GoodResponse	0	0.018	70.635	3	6	Feedback	AvoidedLoss	True
73.067	2.731	Lose2	1.0	n/a	Yes	2.731	n/a	n/a	GoodResponse	0	0.0	n/a	3	6	ISIslide	AvoidedLoss	True
75.816	0.25	Lose2	1.0	0.0	Yes	4.034	0.016	n/a	GoodResponse	0	n/a	n/a	3	7	Cue	AvoidedLoss	True
76.066	4.05	Lose2	1.0	0.0	Yes	4.034	0.0	n/a	GoodResponse	0	n/a	n/a	3	7	Fixation	AvoidedLoss	True
80.114	0.33	Lose2	1.0	0.002	Yes	4.034	-0.002	3.0	GoodResponse	0	0.236	79.35	3	7	Target	AvoidedLoss	True
80.35	0.3	Lose2	1.0	0.002	Yes	4.034	-0.002	3.0	GoodResponse	0	0.236	n/a	3	7	ButtonPress	AvoidedLoss	True
80.448	0.37	Lose2	1.0	n/a	Yes	4.034	n/a	n/a	GoodResponse	0	n/a	n/a	3	7	Blank	AvoidedLoss	True
80.814	1.45	Lose2	1.0	n/a	Yes	4.034	n/a	5.0	GoodResponse	0	0.041	79.855	3	7	Feedback	AvoidedLoss	True
82.264	4.034	Lose2	1.0	n/a	Yes	4.034	n/a	n/a	GoodResponse	0	0.0	n/a	3	7	ISIslide	AvoidedLoss	True
86.329	0.25	Lose2	1.0	0.0	Yes	3.021	0.029	n/a	GoodResponse	0	n/a	n/a	3	8	Cue	AvoidedLoss	True
86.579	3.95	Lose2	1.0	0.0	Yes	3.021	0.0	n/a	GoodResponse	0	n/a	n/a	3	8	Fixation	AvoidedLoss	True
90.527	0.32	Lose2	1.0	0.002	Yes	3.021	-0.002	3.0	GoodResponse	0	0.224	89.751	3	8	Target	AvoidedLoss	True
90.751	0.3	Lose2	1.0	0.002	Yes	3.021	-0.002	3.0	GoodResponse	0	0.224	n/a	3	8	ButtonPress	AvoidedLoss	True
90.861	0.38	Lose2	1.0	n/a	Yes	3.021	n/a	n/a	GoodResponse	0	n/a	n/a	3	8	Blank	AvoidedLoss	True
91.227	1.45	Lose2	1.0	n/a	Yes	3.021	n/a	5.0	GoodResponse	0	0.017	90.244	3	8	Feedback	AvoidedLoss	True
92.677	3.021	Lose2	1.0	n/a	Yes	3.021	n/a	n/a	GoodResponse	0	0.0	n/a	3	8	ISIslide	AvoidedLoss	True
95.726	0.25	Lose2	1.0	0.0	Yes	3.124	0.026	n/a	GoodResponse	0	n/a	n/a	3	9	Cue	AvoidedLoss	True
95.975	3.95	Lose2	1.0	0.001	Yes	3.124	-0.001	n/a	GoodResponse	0	n/a	n/a	3	9	Fixation	AvoidedLoss	True
99.924	0.31	Lose2	1.0	0.002	Yes	3.124	-0.002	3.0	GoodResponse	0	0.264	99.188	3	9	Target	AvoidedLoss	True
100.188	0.3	Lose2	1.0	0.002	Yes	3.124	-0.002	3.0	GoodResponse	0	0.264	n/a	3	9	ButtonPress	AvoidedLoss	True
100.241	0.39	Lose2	1.0	n/a	Yes	3.124	n/a	n/a	GoodResponse	0	n/a	n/a	3	9	Blank	AvoidedLoss	True
100.624	1.45	Lose2	1.0	n/a	Yes	3.124	n/a	5.0	GoodResponse	0	0.035	99.659	3	9	Feedback	AvoidedLoss	True
102.073	3.124	Lose2	1.0	n/a	Yes	3.124	n/a	n/a	GoodResponse	0	0.0	n/a	3	9	ISIslide	AvoidedLoss	True
105.222	0.25	Control	1.0	0.0	Yes	3.278	0.022	n/a	GoodResponse	0	n/a	n/a	3	10	Cue	Neutral	True
105.472	4.0	Control	1.0	0.0	Yes	3.278	0.0	n/a	GoodResponse	0	n/a	n/a	3	10	Fixation	Neutral	True
109.471	0.3	Control	1.0	0.001	Yes	3.278	-0.001	3.0	GoodResponse	0	0.241	108.712	3	10	Target	Neutral	True
109.712	0.3	Control	1.0	0.001	Yes	3.278	-0.001	3.0	GoodResponse	0	0.241	n/a	3	10	ButtonPress	Neutral	True
109.771	0.4	Control	1.0	n/a	Yes	3.278	n/a	n/a	GoodResponse	0	n/a	n/a	3	10	Blank	Neutral	True
110.17	1.45	Control	1.0	n/a	Yes	3.278	n/a	5.0	GoodResponse	0	0.001	109.171	3	10	Feedback	Neutral	True
111.62	3.278	Control	1.0	n/a	Yes	3.278	n/a	n/a	GoodResponse	0	0.0	n/a	3	10	ISIslide	Neutral	True
114.919	0.25	Lose2	1.0	0.0	Yes	2.731	0.019	n/a	GoodResponse	0	n/a	n/a	3	11	Cue	AvoidedLoss	True
115.169	4.05	Lose2	1.0	0.0	Yes	2.731	0.0	n/a	GoodResponse	0	n/a	n/a	3	11	Fixation	AvoidedLoss	True
119.217	0.29	Lose2	1.0	0.002	Yes	2.731	-0.002	3.0	GoodResponse	0	0.284	118.501	3	11	Target	AvoidedLoss	True
119.501	0.3	Lose2	1.0	0.002	Yes	2.731	-0.002	3.0	GoodResponse	0	0.284	n/a	3	11	ButtonPress	AvoidedLoss	True
119.517	0.41	Lose2	1.0	n/a	Yes	2.731	n/a	n/a	GoodResponse	0	n/a	n/a	3	11	Blank	AvoidedLoss	True
119.917	1.45	Lose2	1.0	n/a	Yes	2.731	n/a	5.0	GoodResponse	0	0.01	118.927	3	11	Feedback	AvoidedLoss	True
121.366	2.731	Lose2	1.0	n/a	Yes	2.731	n/a	n/a	GoodResponse	0	0.0	n/a	3	11	ISIslide	AvoidedLoss	True
124.115	0.25	Control	1.0	0.0	Yes	2.985	0.015	n/a	GoodResponse	0	n/a	n/a	3	12	Cue	Neutral	True
124.365	3.9	Control	1.0	0.0	Yes	2.985	0.0	n/a	GoodResponse	0	n/a	n/a	3	12	Fixation	Neutral	True
128.264	0.28	Control	1.0	0.001	Yes	2.985	-0.001	3.0	GoodResponse	0	0.232	127.496	3	12	Target	Neutral	True
128.496	0.3	Control	1.0	0.001	Yes	2.985	-0.001	3.0	GoodResponse	0	0.232	n/a	3	12	ButtonPress	Neutral	True
128.547	0.42	Control	1.0	n/a	Yes	2.985	n/a	n/a	GoodResponse	0	n/a	n/a	3	12	Blank	Neutral	True
128.964	1.45	Control	1.0	n/a	Yes	2.985	n/a	5.0	GoodResponse	0	0.036	128.0	3	12	Feedback	Neutral	True
130.413	2.985	Control	1.0	n/a	Yes	2.985	n/a	n/a	GoodResponse	0	0.0	n/a	3	12	ISIslide	Neutral	True
133.429	0.25	Control	1.0	0.0	Yes	2.771	0.029	n/a	GoodResponse	0	n/a	n/a	3	13	Cue	Neutral	True
133.679	4.0	Control	1.0	0.0	Yes	2.771	0.0	n/a	GoodResponse	0	n/a	n/a	3	13	Fixation	Neutral	True
137.677	0.27	Control	1.0	0.002	Yes	2.771	-0.002	3.0	GoodResponse	0	0.239	136.916	3	13	Target	Neutral	True
137.916	0.3	Control	1.0	0.002	Yes	2.771	-0.002	3.0	GoodResponse	0	0.239	n/a	3	13	ButtonPress	Neutral	True
137.96	0.43	Control	1.0	n/a	Yes	2.771	n/a	n/a	GoodResponse	0	n/a	n/a	3	13	Blank	Neutral	True
138.377	1.45	Control	1.0	n/a	Yes	2.771	n/a	5.0	GoodResponse	0	0.037	137.414	3	13	Feedback	Neutral	True
139.827	2.771	Control	1.0	n/a	Yes	2.771	n/a	n/a	GoodResponse	0	0.0	n/a	3	13	ISIslide	Neutral	True
142.626	0.25	Win2	1.0	0.0	Yes	2.674	0.026	n/a	GoodResponse	1	n/a	n/a	4	14	Cue	Win	True
142.875	4.1	Win2	1.0	0.001	Yes	2.674	-0.001	n/a	GoodResponse	1	n/a	n/a	4	14	Fixation	Win	True
146.974	0.26	Win2	1.0	0.002	Yes	2.674	-0.002	3.0	GoodResponse	1	0.239	146.213	4	14	Target	Win	True
147.213	0.3	Win2	1.0	0.002	Yes	2.674	-0.002	3.0	GoodResponse	1	0.239	n/a	4	14	ButtonPress	Win	True
147.241	0.44	Win2	1.0	n/a	Yes	2.674	n/a	n/a	GoodResponse	1	n/a	n/a	4	14	Blank	Win	True
147.674	1.45	Win2	1.0	n/a	Yes	2.674	n/a	5.0	GoodResponse	1	0.009	146.683	4	14	Feedback	Win	True
149.123	2.674	Win2	1.0	n/a	Yes	2.674	n/a	n/a	GoodResponse	1	0.0	n/a	4	14	ISIslide	Win	True
151.822	0.25	Control	0.9375	0.0	No	2.978	0.022	n/a	NoResponse	0	n/a	n/a	4	15	Cue	Neutral	True
152.072	4.0	Control	0.9375	0.0	No	2.978	0.0	n/a	NoResponse	0	n/a	n/a	4	15	Fixation	Neutral	True
156.071	0.25	Control	0.9375	0.001	No	2.978	-0.001	3.0	NoResponse	0	0.283	155.354	4	15	Target	Neutral	True
156.321	0.45	Control	0.9375	n/a	No	2.978	n/a	n/a	NoResponse	0	n/a	n/a	4	15	Blank	Neutral	True
156.354	0.3	Control	0.9375	0.001	No	2.978	-0.001	3.0	NoResponse	0	0.283	n/a	4	15	ButtonPress	Neutral	True
156.77	1.45	Control	0.9375	n/a	No	2.978	n/a	5.0	NoResponse	0	0.035	155.805	4	15	Feedback	Neutral	True
158.22	2.978	Control	0.9375	n/a	No	2.978	n/a	n/a	NoResponse	0	0.0	n/a	4	15	ISIslide	Neutral	True
161.219	0.25	Win2	0.9412	0.0	Yes	2.881	0.019	n/a	GoodResponse	1	n/a	n/a	5	16	Cue	Win	True
161.469	4.0	Win2	0.9412	0.0	Yes	2.881	0.0	n/a	GoodResponse	1	n/a	n/a	5	16	Fixation	Win	True
165.467	0.24	Win2	0.9412	0.002	Yes	2.881	-0.002	3.0	GoodResponse	1	0.202	164.669	5	16	Target	Win	True
165.669	0.3	Win2	0.9412	0.002	Yes	2.881	-0.002	3.0	GoodResponse	1	0.202	n/a	5	16	ButtonPress	Win	True
165.717	0.46	Win2	0.9412	n/a	Yes	2.881	n/a	n/a	GoodResponse	1	n/a	n/a	5	16	Blank	Win	True
166.167	1.45	Win2	0.9412	n/a	Yes	2.881	n/a	5.0	GoodResponse	1	0.007	165.174	5	16	Feedback	Win	True
167.617	2.881	Win2	0.9412	n/a	Yes	2.881	n/a	n/a	GoodResponse	1	0.0	n/a	5	16	ISIslide	Win	True
170.516	0.25	Lose2	0.9444	0.0	Yes	2.734	0.016	n/a	GoodResponse	0	n/a	n/a	5	17	Cue	AvoidedLoss	True
170.765	3.95	Lose2	0.9444	0.001	Yes	2.734	-0.001	n/a	GoodResponse	0	n/a	n/a	5	17	Fixation	AvoidedLoss	True
174.714	0.23	Lose2	0.9444	0.002	Yes	2.734	-0.002	3.0	GoodResponse	0	0.215	173.929	5	17	Target	AvoidedLoss	True
174.929	0.3	Lose2	0.9444	0.002	Yes	2.734	-0.002	3.0	GoodResponse	0	0.215	n/a	5	17	ButtonPress	AvoidedLoss	True
174.947	0.47	Lose2	0.9444	n/a	Yes	2.734	n/a	n/a	GoodResponse	0	n/a	n/a	5	17	Blank	AvoidedLoss	True
175.414	1.45	Lose2	0.9444	n/a	Yes	2.734	n/a	5.0	GoodResponse	0	0.024	174.438	5	17	Feedback	AvoidedLoss	True
176.863	2.734	Lose2	0.9444	n/a	Yes	2.734	n/a	n/a	GoodResponse	0	0.0	n/a	5	17	ISIslide	AvoidedLoss	True
179.612	0.25	Lose2	0.9473999999999999	0.0	Yes	2.738	0.012	n/a	GoodResponse	0	n/a	n/a	5	18	Cue	AvoidedLoss	True
179.862	4.05	Lose2	0.9473999999999999	0.0	Yes	2.738	0.0	n/a	GoodResponse	0	n/a	n/a	5	18	Fixation	AvoidedLoss	True
183.911	0.22	Lose2	0.9473999999999999	0.001	Yes	2.738	-0.001	3.0	GoodResponse	0	0.219	183.13	5	18	Target	AvoidedLoss	True
184.127	0.48	Lose2	0.9473999999999999	n/a	Yes	2.738	n/a	n/a	GoodResponse	0	n/a	n/a	5	18	Blank	AvoidedLoss	True
184.13	0.3	Lose2	0.9473999999999999	0.001	Yes	2.738	-0.001	3.0	GoodResponse	0	0.219	n/a	5	18	ButtonPress	AvoidedLoss	True
184.611	1.45	Lose2	0.9473999999999999	n/a	Yes	2.738	n/a	5.0	GoodResponse	0	0.047	183.658	5	18	Feedback	AvoidedLoss	True
186.06	2.738	Lose2	0.9473999999999999	n/a	Yes	2.738	n/a	n/a	GoodResponse	0	0.0	n/a	5	18	ISIslide	AvoidedLoss	True
188.826	0.25	Control	0.9	0.0	No	2.924	0.026	n/a	NoResponse	0	n/a	n/a	5	19	Cue	Neutral	True
189.076	3.95	Control	0.9	0.0	No	2.924	0.0	n/a	NoResponse	0	n/a	n/a	5	19	Fixation	Neutral	True
193.024	0.21	Control	0.9	0.002	No	2.924	-0.002	3.0	NoResponse	0	0.229	192.253	5	19	Target	Neutral	True
193.241	0.49	Control	0.9	n/a	No	2.924	n/a	n/a	NoResponse	0	n/a	n/a	5	19	Blank	Neutral	True
193.253	0.3	Control	0.9	0.002	No	2.924	-0.002	3.0	NoResponse	0	0.229	n/a	5	19	ButtonPress	Neutral	True
193.724	1.45	Control	0.9	n/a	No	2.924	n/a	5.0	NoResponse	0	0.007	192.731	5	19	Feedback	Neutral	True
195.173	2.924	Control	0.9	n/a	No	2.924	n/a	n/a	NoResponse	0	0.0	n/a	5	19	ISIslide	Neutral	True
198.122	0.25	Control	0.8571	0.001	No	2.628	0.022	n/a	NoResponse	0	n/a	n/a	5	20	Cue	Neutral	True
198.372	4.05	Control	0.8571	0.0	No	2.628	0.0	n/a	NoResponse	0	n/a	n/a	5	20	Fixation	Neutral	True
202.421	0.2	Control	0.8571	0.001	No	2.628	-0.001	3.0	NoResponse	0	0.273	201.694	5	20	Target	Neutral	True
202.621	0.5	Control	0.8571	n/a	No	2.628	n/a	n/a	NoResponse	0	n/a	n/a	5	20	Blank	Neutral	True
202.694	0.3	Control	0.8571	0.001	No	2.628	-0.001	3.0	NoResponse	0	0.273	n/a	5	20	ButtonPress	Neutral	True
203.121	1.45	Control	0.8571	n/a	No	2.628	n/a	5.0	NoResponse	0	0.024	202.145	5	20	Feedback	Neutral	True
204.57	2.628	Control	0.8571	n/a	No	2.628	n/a	n/a	NoResponse	0	0.0	n/a	5	20	ISIslide	Neutral	True
207.219	0.25	Control	0.8181999999999999	0.0	No	2.781	0.019	n/a	NoResponse	0	n/a	n/a	5	21	Cue	Neutral	True
207.469	4.1	Control	0.8181999999999999	0.0	No	2.781	0.0	n/a	NoResponse	0	n/a	n/a	5	21	Fixation	Neutral	True
211.568	0.19	Control	0.8181999999999999	0.001	No	2.781	-0.001	3.0	NoResponse	0	0.261	210.829	5	21	Target	Neutral	True
211.768	0.51	Control	0.8181999999999999	n/a	No	2.781	n/a	n/a	NoResponse	0	n/a	n/a	5	21	Blank	Neutral	True
211.829	0.3	Control	0.8181999999999999	0.001	No	2.781	-0.001	3.0	NoResponse	0	0.261	n/a	5	21	ButtonPress	Neutral	True
212.267	1.45	Control	0.8181999999999999	n/a	No	2.781	n/a	5.0	NoResponse	0	0.049	211.316	5	21	Feedback	Neutral	True
213.717	2.781	Control	0.8181999999999999	n/a	No	2.781	n/a	n/a	NoResponse	0	0.0	n/a	5	21	ISIslide	Neutral	True
216.516	0.25	Control	0.7826000000000001	0.0	No	2.784	0.016	n/a	NoResponse	0	n/a	n/a	5	22	Cue	Neutral	True
216.766	4.0	Control	0.7826000000000001	0.0	No	2.784	0.0	n/a	NoResponse	0	n/a	n/a	5	22	Fixation	Neutral	True
220.764	0.18	Control	0.7826000000000001	0.002	No	2.784	-0.002	3.0	NoResponse	0	0.236	220.0	5	22	Target	Neutral	True
220.948	0.52	Control	0.7826000000000001	n/a	No	2.784	n/a	n/a	NoResponse	0	n/a	n/a	5	22	Blank	Neutral	True
221	0.3	Control	0.7826000000000001	0.002	No	2.784	-0.002	3.0	NoResponse	0	0.236	n/a	5	22	ButtonPress	Neutral	True
221.464	1.45	Control	0.7826000000000001	n/a	No	2.784	n/a	5.0	NoResponse	0	0.023	220.487	5	22	Feedback	Neutral	True
222.914	2.784	Control	0.7826000000000001	n/a	No	2.784	n/a	n/a	NoResponse	0	0.0	n/a	5	22	ISIslide	Neutral	True
225.713	0.25	Control	0.75	0.0	No	2.787	0.013	n/a	NoResponse	0	n/a	n/a	5	23	Cue	Neutral	True
225.963	3.9	Control	0.75	0.0	No	2.787	0.0	n/a	NoResponse	0	n/a	n/a	5	23	Fixation	Neutral	True
229.861	0.17	Control	0.75	0.002	No	2.787	-0.002	3.0	NoResponse	0	0.233	229.094	5	23	Target	Neutral	True
230.044	0.53	Control	0.75	n/a	No	2.787	n/a	n/a	NoResponse	0	n/a	n/a	5	23	Blank	Neutral	True
230.094	0.3	Control	0.75	0.002	No	2.787	-0.002	3.0	NoResponse	0	0.233	n/a	5	23	ButtonPress	Neutral	True
230.561	1.45	Control	0.75	n/a	No	2.787	n/a	5.0	NoResponse	0	0.048	229.609	5	23	Feedback	Neutral	True
232.01	2.787	Control	0.75	n/a	No	2.787	n/a	n/a	NoResponse	0	0.0	n/a	5	23	ISIslide	Neutral	True
234.826	0.25	Win2	0.72	0.0	No	3.124	0.026	n/a	NoResponse	0	n/a	n/a	5	24	Cue	MissedWin	True
235.076	3.95	Win2	0.72	0.0	No	3.124	0.0	n/a	NoResponse	0	n/a	n/a	5	24	Fixation	MissedWin	True
239.025	0.16	Win2	0.72	0.001	No	3.124	-0.001	3.0	NoResponse	0	0.246	238.271	5	24	Target	MissedWin	True
239.191	0.54	Win2	0.72	n/a	No	3.124	n/a	n/a	NoResponse	0	n/a	n/a	5	24	Blank	MissedWin	True
239.271	0.3	Win2	0.72	0.001	No	3.124	-0.001	3.0	NoResponse	0	0.246	n/a	5	24	ButtonPress	MissedWin	True
239.724	1.45	Win2	0.72	n/a	No	3.124	n/a	5.0	NoResponse	0	0.007	238.731	5	24	Feedback	MissedWin	True
241.174	3.124	Win2	0.72	n/a	No	3.124	n/a	n/a	NoResponse	0	0.0	n/a	5	24	ISIslide	MissedWin	True
244.323	0.25	Win2	0.6923	0.0	No	3.077	0.023	n/a	NoResponse	0	n/a	n/a	5	25	Cue	MissedWin	True
244.573	4.0	Win2	0.6923	0.0	No	3.077	0.0	n/a	NoResponse	0	n/a	n/a	5	25	Fixation	MissedWin	True
248.571	0.15	Win2	0.6923	0.002	No	3.077	-0.002	3.0	NoResponse	0	0.23	247.801	5	25	Target	MissedWin	True
248.721	0.55	Win2	0.6923	n/a	No	3.077	n/a	n/a	NoResponse	0	n/a	n/a	5	25	Blank	MissedWin	True
248.801	0.3	Win2	0.6923	0.002	No	3.077	-0.002	3.0	NoResponse	0	0.23	n/a	5	25	ButtonPress	MissedWin	True
249.271	1.45	Win2	0.6923	n/a	No	3.077	n/a	5.0	NoResponse	0	0.02	248.291	5	25	Feedback	MissedWin	True
250.72	3.077	Win2	0.6923	n/a	No	3.077	n/a	n/a	NoResponse	0	0.0	n/a	5	25	ISIslide	MissedWin	True
253.819	0.25	Win2	0.6667000000000001	0.0	No	2.931	0.019	n/a	NoResponse	0	n/a	n/a	5	26	Cue	MissedWin	False
254.069	3.95	Win2	0.6667000000000001	0.0	No	2.931	0.0	3.0	NoResponse	0	0.517	253.586	5	26	Fixation	MissedWin	False
254.586	0.3	Win2	0.6667000000000001	0.0	No	2.931	0.0	3.0	NoResponse	0	0.517	n/a	5	26	ButtonPress	MissedWin	False
258.018	0.15	Win2	0.6667000000000001	0.001	No	2.931	-0.001	3.0	NoResponse	0	0.358	257.376	5	26	Target	MissedWin	False
258.168	0.55	Win2	0.6667000000000001	n/a	No	2.931	n/a	n/a	NoResponse	0	n/a	n/a	5	26	Blank	MissedWin	False
258.376	0.3	Win2	0.6667000000000001	0.001	No	2.931	-0.001	3.0	NoResponse	0	0.358	n/a	5	26	ButtonPress	MissedWin	False
258.718	1.45	Win2	0.6667000000000001	n/a	No	2.931	n/a	5.0	NoResponse	0	0.036	257.754	5	26	Feedback	MissedWin	False
260.167	2.931	Win2	0.6667000000000001	n/a	No	2.931	n/a	n/a	NoResponse	0	0.0	n/a	5	26	ISIslide	MissedWin	False
263.116	0.25	Lose2	0.6429	0.0	No	2.834	0.016	n/a	NoResponse	-1	n/a	n/a	4	27	Cue	Loss	True
263.366	4.05	Lose2	0.6429	0.0	No	2.834	0.0	n/a	NoResponse	-1	n/a	n/a	4	27	Fixation	Loss	True
267.414	0.15	Lose2	0.6429	0.002	No	2.834	-0.002	3.0	NoResponse	-1	0.199	266.613	4	27	Target	Loss	True
267.564	0.55	Lose2	0.6429	n/a	No	2.834	n/a	n/a	NoResponse	-1	n/a	n/a	4	27	Blank	Loss	True
267.613	0.3	Lose2	0.6429	0.002	No	2.834	-0.002	3.0	NoResponse	-1	0.199	n/a	4	27	ButtonPress	Loss	True
268.114	1.45	Lose2	0.6429	n/a	No	2.834	n/a	5.0	NoResponse	-1	0.007	267.121	4	27	Feedback	Loss	True
269.564	2.834	Lose2	0.6429	n/a	No	2.834	n/a	n/a	NoResponse	-1	0.0	n/a	4	27	ISIslide	Loss	True
272.429	0.25	Control	0.6207	0.0	No	2.821	0.029	n/a	NoResponse	0	n/a	n/a	4	28	Cue	Neutral	True
272.679	4.05	Control	0.6207	0.0	No	2.821	0.0	n/a	NoResponse	0	n/a	n/a	4	28	Fixation	Neutral	True
276.728	0.16	Control	0.6207	0.001	No	2.821	-0.001	3.0	NoResponse	0	0.219	275.947	4	28	Target	Neutral	True
276.894	0.54	Control	0.6207	n/a	No	2.821	n/a	n/a	NoResponse	0	n/a	n/a	4	28	Blank	Neutral	True
276.947	0.3	Control	0.6207	0.001	No	2.821	-0.001	3.0	NoResponse	0	0.219	n/a	4	28	ButtonPress	Neutral	True
277.428	1.45	Control	0.6207	n/a	No	2.821	n/a	5.0	NoResponse	0	0.009	276.437	4	28	Feedback	Neutral	True
278.877	2.821	Control	0.6207	n/a	No	2.821	n/a	n/a	NoResponse	0	0.0	n/a	4	28	ISIslide	Neutral	True
281.726	0.25	Lose2	0.6	0.0	No	2.824	0.026	n/a	NoResponse	-1	n/a	n/a	3	29	Cue	Loss	False
281.976	3.95	Lose2	0.6	0.0	No	2.824	0.0	3.0	NoResponse	-1	0.037	281.013	3	29	Fixation	Loss	False
282.013	0.3	Lose2	0.6	0.0	No	2.824	0.0	3.0	NoResponse	-1	0.037	n/a	3	29	ButtonPress	Loss	False
285.925	0.17	Lose2	0.6	0.001	No	2.824	-0.001	3.0	NoResponse	-1	0.39	285.315	3	29	Target	Loss	False
286.108	0.53	Lose2	0.6	n/a	No	2.824	n/a	n/a	NoResponse	-1	n/a	n/a	3	29	Blank	Loss	False
286.315	0.3	Lose2	0.6	0.001	No	2.824	-0.001	3.0	NoResponse	-1	0.39	n/a	3	29	ButtonPress	Loss	False
286.624	1.45	Lose2	0.6	n/a	No	2.824	n/a	5.0	NoResponse	-1	0.032	285.656	3	29	Feedback	Loss	False
288.074	2.824	Lose2	0.6	n/a	No	2.824	n/a	n/a	NoResponse	-1	0.0	n/a	3	29	ISIslide	Loss	False
290.923	0.25	Win2	0.5806	0.0	No	2.777	0.023	n/a	NoResponse	0	n/a	n/a	3	30	Cue	MissedWin	True
291.173	3.9	Win2	0.5806	0.0	No	2.777	0.0	n/a	NoResponse	0	n/a	n/a	3	30	Fixation	MissedWin	True
295.071	0.18	Win2	0.5806	0.002	No	2.777	-0.002	3.0	NoResponse	0	0.208	294.279	3	30	Target	MissedWin	True
295.255	0.52	Win2	0.5806	n/a	No	2.777	n/a	n/a	NoResponse	0	n/a	n/a	3	30	Blank	MissedWin	True
295.279	0.3	Win2	0.5806	0.002	No	2.777	-0.002	3.0	NoResponse	0	0.208	n/a	3	30	ButtonPress	MissedWin	True
295.771	1.45	Win2	0.5806	n/a	No	2.777	n/a	5.0	NoResponse	0	0.007	294.778	3	30	Feedback	MissedWin	True
297.221	2.777	Win2	0.5806	n/a	No	2.777	n/a	n/a	NoResponse	0	0.0	n/a	3	30	ISIslide	MissedWin	True
300.02	0.25	Lose2	0.5625	0.0	No	2.83	0.02	n/a	NoResponse	-1	n/a	n/a	2	31	Cue	Loss	True
300.269	4.05	Lose2	0.5625	0.001	No	2.83	-0.001	n/a	NoResponse	-1	n/a	n/a	2	31	Fixation	Loss	True
304.318	0.19	Lose2	0.5625	0.002	No	2.83	-0.002	3.0	NoResponse	-1	0.221	303.539	2	31	Target	Loss	True
304.518	0.51	Lose2	0.5625	n/a	No	2.83	n/a	n/a	NoResponse	-1	n/a	n/a	2	31	Blank	Loss	True
304.539	0.3	Lose2	0.5625	0.002	No	2.83	-0.002	3.0	NoResponse	-1	0.221	n/a	2	31	ButtonPress	Loss	True
305.018	1.45	Lose2	0.5625	n/a	No	2.83	n/a	5.0	NoResponse	-1	0.029	304.047	2	31	Feedback	Loss	True
306.467	2.83	Lose2	0.5625	n/a	No	2.83	n/a	n/a	NoResponse	-1	0.0	n/a	2	31	ISIslide	Loss	True
309.316	0.25	Lose2	0.5758	0.0	Yes	2.634	0.016	n/a	GoodResponse	0	n/a	n/a	2	32	Cue	AvoidedLoss	True
309.566	4.15	Lose2	0.5758	0.0	Yes	2.634	0.0	n/a	GoodResponse	0	n/a	n/a	2	32	Fixation	AvoidedLoss	True
313.715	0.2	Lose2	0.5758	0.001	Yes	2.634	-0.001	3.0	GoodResponse	0	0.182	312.897	2	32	Target	AvoidedLoss	True
313.897	0.3	Lose2	0.5758	0.001	Yes	2.634	-0.001	3.0	GoodResponse	0	0.182	n/a	2	32	ButtonPress	AvoidedLoss	True
313.915	0.5	Lose2	0.5758	n/a	Yes	2.634	n/a	n/a	GoodResponse	0	n/a	n/a	2	32	Blank	AvoidedLoss	True
314.414	1.45	Lose2	0.5758	n/a	Yes	2.634	n/a	5.0	GoodResponse	0	0.046	313.46	2	32	Feedback	AvoidedLoss	True
315.864	2.634	Lose2	0.5758	n/a	Yes	2.634	n/a	n/a	GoodResponse	0	0.0	n/a	2	32	ISIslide	AvoidedLoss	True
318.513	0.25	Win2	0.5588000000000001	0.0	No	2.687	0.013	n/a	NoResponse	0	n/a	n/a	2	33	Cue	MissedWin	True
318.763	4.0	Win2	0.5588000000000001	0.0	No	2.687	0.0	n/a	NoResponse	0	n/a	n/a	2	33	Fixation	MissedWin	True
322.761	0.21	Win2	0.5588000000000001	0.002	No	2.687	-0.002	3.0	NoResponse	0	0.259	322.02	2	33	Target	MissedWin	True
322.978	0.49	Win2	0.5588000000000001	n/a	No	2.687	n/a	n/a	NoResponse	0	n/a	n/a	2	33	Blank	MissedWin	True
323.02	0.3	Win2	0.5588000000000001	0.002	No	2.687	-0.002	3.0	NoResponse	0	0.259	n/a	2	33	ButtonPress	MissedWin	True
323.461	1.45	Win2	0.5588000000000001	n/a	No	2.687	n/a	5.0	NoResponse	0	0.024	322.485	2	33	Feedback	MissedWin	True
324.911	2.687	Win2	0.5588000000000001	n/a	No	2.687	n/a	n/a	NoResponse	0	0.0	n/a	2	33	ISIslide	MissedWin	True
327.626	0.25	Lose2	0.5714	0.0	Yes	2.624	0.026	n/a	GoodResponse	0	n/a	n/a	2	34	Cue	AvoidedLoss	True
327.876	4.05	Lose2	0.5714	0.0	Yes	2.624	0.0	n/a	GoodResponse	0	n/a	n/a	2	34	Fixation	AvoidedLoss	True
331.925	0.22	Lose2	0.5714	0.001	Yes	2.624	-0.001	3.0	GoodResponse	0	0.201	331.126	2	34	Target	AvoidedLoss	True
332.126	0.3	Lose2	0.5714	0.001	Yes	2.624	-0.001	3.0	GoodResponse	0	0.201	n/a	2	34	ButtonPress	AvoidedLoss	True
332.141	0.48	Lose2	0.5714	n/a	Yes	2.624	n/a	n/a	GoodResponse	0	n/a	n/a	2	34	Blank	AvoidedLoss	True
332.625	1.45	Lose2	0.5714	n/a	Yes	2.624	n/a	5.0	GoodResponse	0	0.031	331.656	2	34	Feedback	AvoidedLoss	True
334.074	2.624	Lose2	0.5714	n/a	Yes	2.624	n/a	n/a	GoodResponse	0	0.0	n/a	2	34	ISIslide	AvoidedLoss	True
336.723	0.25	Lose2	0.5832999999999999	0.0	Yes	2.677	0.023	n/a	GoodResponse	0	n/a	n/a	2	35	Cue	AvoidedLoss	True
336.973	4.0	Lose2	0.5832999999999999	0.0	Yes	2.677	0.0	n/a	GoodResponse	0	n/a	n/a	2	35	Fixation	AvoidedLoss	True
340.972	0.23	Lose2	0.5832999999999999	0.001	Yes	2.677	-0.001	3.0	GoodResponse	0	0.22	340.192	2	35	Target	AvoidedLoss	True
341.192	0.3	Lose2	0.5832999999999999	0.001	Yes	2.677	-0.001	3.0	GoodResponse	0	0.22	n/a	2	35	ButtonPress	AvoidedLoss	True
341.205	0.47	Lose2	0.5832999999999999	n/a	Yes	2.677	n/a	n/a	GoodResponse	0	n/a	n/a	2	35	Blank	AvoidedLoss	True
341.671	1.45	Lose2	0.5832999999999999	n/a	Yes	2.677	n/a	5.0	GoodResponse	0	0.009	340.68	2	35	Feedback	AvoidedLoss	True
343.121	2.677	Lose2	0.5832999999999999	n/a	Yes	2.677	n/a	n/a	GoodResponse	0	0.0	n/a	2	35	ISIslide	AvoidedLoss	True
345.82	0.25	Control	0.5676	0.0	No	2.68	0.02	n/a	LatePress	0	n/a	n/a	2	36	Cue	Neutral	True
346.07	4.0	Control	0.5676	0.0	No	2.68	0.0	n/a	LatePress	0	n/a	n/a	2	36	Fixation	Neutral	True
350.068	0.24	Control	0.5676	0.002	No	2.68	-0.002	3.0	LatePress	0	0.248	349.316	2	36	Target	Neutral	True
350.316	0.3	Control	0.5676	0.002	No	2.68	-0.002	3.0	LatePress	0	0.248	n/a	2	36	ButtonPress	Neutral	True
350.318	0.46	Control	0.5676	n/a	No	2.68	n/a	n/a	LatePress	0	n/a	n/a	2	36	Blank	Neutral	True
350.768	1.45	Control	0.5676	n/a	No	2.68	n/a	5.0	LatePress	0	0.033	349.801	2	36	Feedback	Neutral	True
352.218	2.68	Control	0.5676	n/a	No	2.68	n/a	n/a	LatePress	0	0.0	n/a	2	36	ISIslide	Neutral	True
354.917	0.25	Win2	0.5789	0.0	Yes	2.883	0.017	n/a	GoodResponse	1	n/a	n/a	3	37	Cue	Win	True
355.167	4.0	Win2	0.5789	0.0	Yes	2.883	0.0	n/a	GoodResponse	1	n/a	n/a	3	37	Fixation	Win	True
359.165	0.25	Win2	0.5789	0.002	Yes	2.883	-0.002	3.0	GoodResponse	1	0.22	358.385	3	37	Target	Win	True
359.385	0.3	Win2	0.5789	0.002	Yes	2.883	-0.002	3.0	GoodResponse	1	0.22	n/a	3	37	ButtonPress	Win	True
359.415	0.45	Win2	0.5789	n/a	Yes	2.883	n/a	n/a	GoodResponse	1	n/a	n/a	3	37	Blank	Win	True
359.865	1.45	Win2	0.5789	n/a	Yes	2.883	n/a	5.0	GoodResponse	1	0.01	358.875	3	37	Feedback	Win	True
361.314	2.883	Win2	0.5789	n/a	Yes	2.883	n/a	n/a	GoodResponse	1	0.0	n/a	3	37	ISIslide	Win	True
364.213	0.25	Lose2	0.5640999999999999	0.0	No	2.837	0.013	n/a	NoResponse	-1	n/a	n/a	2	38	Cue	Loss	True
364.463	3.95	Lose2	0.5640999999999999	0.0	No	2.837	0.0	n/a	NoResponse	-1	n/a	n/a	2	38	Fixation	Loss	True
368.412	0.26	Lose2	0.5640999999999999	0.001	No	2.837	-0.001	3.0	NoResponse	-1	0.282	367.694	2	38	Target	Loss	True
368.678	0.44	Lose2	0.5640999999999999	n/a	No	2.837	n/a	n/a	NoResponse	-1	n/a	n/a	2	38	Blank	Loss	True
368.694	0.3	Lose2	0.5640999999999999	0.001	No	2.837	-0.001	3.0	NoResponse	-1	0.282	n/a	2	38	ButtonPress	Loss	True
369.112	1.45	Lose2	0.5640999999999999	n/a	No	2.837	n/a	5.0	NoResponse	-1	0.031	368.143	2	38	Feedback	Loss	True
370.561	2.837	Lose2	0.5640999999999999	n/a	No	2.837	n/a	n/a	NoResponse	-1	0.0	n/a	2	38	ISIslide	Loss	True
373.427	0.25	Win2	0.575	0.0	Yes	2.973	0.027	n/a	GoodResponse	1	n/a	n/a	3	39	Cue	Win	True
373.677	4.1	Win2	0.575	0.0	Yes	2.973	0.0	n/a	GoodResponse	1	n/a	n/a	3	39	Fixation	Win	True
377.775	0.27	Win2	0.575	0.002	Yes	2.973	-0.002	3.0	GoodResponse	1	0.212	376.987	3	39	Target	Win	True
377.987	0.3	Win2	0.575	0.002	Yes	2.973	-0.002	3.0	GoodResponse	1	0.212	n/a	3	39	ButtonPress	Win	True
378.058	0.43	Win2	0.575	n/a	Yes	2.973	n/a	n/a	GoodResponse	1	n/a	n/a	3	39	Blank	Win	True
378.475	1.45	Win2	0.575	n/a	Yes	2.973	n/a	5.0	GoodResponse	1	0.034	377.509	3	39	Feedback	Win	True
379.924	2.973	Win2	0.575	n/a	Yes	2.973	n/a	n/a	GoodResponse	1	0.0	n/a	3	39	ISIslide	Win	True
382.923	0.25	Win2	0.5854	0.0	Yes	2.727	0.023	n/a	GoodResponse	1	n/a	n/a	4	40	Cue	Win	True
383.173	3.95	Win2	0.5854	0.0	Yes	2.727	0.0	n/a	GoodResponse	1	n/a	n/a	4	40	Fixation	Win	True
387.122	0.28	Win2	0.5854	0.001	Yes	2.727	-0.001	3.0	GoodResponse	1	0.219	386.341	4	40	Target	Win	True
387.341	0.3	Win2	0.5854	0.001	Yes	2.727	-0.001	3.0	GoodResponse	1	0.219	n/a	4	40	ButtonPress	Win	True
387.405	0.42	Win2	0.5854	n/a	Yes	2.727	n/a	n/a	GoodResponse	1	n/a	n/a	4	40	Blank	Win	True
387.822	1.45	Win2	0.5854	n/a	Yes	2.727	n/a	5.0	GoodResponse	1	0.005	386.827	4	40	Feedback	Win	True
389.271	2.727	Win2	0.5854	n/a	Yes	2.727	n/a	n/a	GoodResponse	1	0.0	n/a	4	40	ISIslide	Win	True
392.02	0.25	Win2	0.5952000000000001	0.0	Yes	2.78	0.02	n/a	GoodResponse	1	n/a	n/a	5	41	Cue	Win	True
392.27	3.9	Win2	0.5952000000000001	0.0	Yes	2.78	0.0	n/a	GoodResponse	1	n/a	n/a	5	41	Fixation	Win	True
396.169	0.29	Win2	0.5952000000000001	0.001	Yes	2.78	-0.001	3.0	GoodResponse	1	0.198	395.367	5	41	Target	Win	True
396.367	0.3	Win2	0.5952000000000001	0.001	Yes	2.78	-0.001	3.0	GoodResponse	1	0.198	n/a	5	41	ButtonPress	Win	True
396.469	0.41	Win2	0.5952000000000001	n/a	Yes	2.78	n/a	n/a	GoodResponse	1	n/a	n/a	5	41	Blank	Win	True
396.868	1.45	Win2	0.5952000000000001	n/a	Yes	2.78	n/a	5.0	GoodResponse	1	0.03	395.898	5	41	Feedback	Win	True
398.318	2.78	Win2	0.5952000000000001	n/a	Yes	2.78	n/a	n/a	GoodResponse	1	0.0	n/a	5	41	ISIslide	Win	True
401.117	0.25	Control	0.6047	0.0	Yes	2.933	0.017	n/a	GoodResponse	0	n/a	n/a	5	42	Cue	Neutral	True
401.367	3.85	Control	0.6047	0.0	Yes	2.933	0.0	n/a	GoodResponse	0	n/a	n/a	5	42	Fixation	Neutral	True
405.215	0.3	Control	0.6047	0.002	Yes	2.933	-0.002	3.0	GoodResponse	0	0.211	404.426	5	42	Target	Neutral	True
405.426	0.3	Control	0.6047	0.002	Yes	2.933	-0.002	3.0	GoodResponse	0	0.211	n/a	5	42	ButtonPress	Neutral	True
405.515	0.4	Control	0.6047	n/a	Yes	2.933	n/a	n/a	GoodResponse	0	n/a	n/a	5	42	Blank	Neutral	True
405.915	1.45	Control	0.6047	n/a	Yes	2.933	n/a	5.0	GoodResponse	0	0.008	404.923	5	42	Feedback	Neutral	True
407.365	2.933	Control	0.6047	n/a	Yes	2.933	n/a	n/a	GoodResponse	0	0.0	n/a	5	42	ISIslide	Neutral	True
410.314	0.25	Win2	0.6136	0.0	Yes	3.186	0.014	n/a	GoodResponse	1	n/a	n/a	6	43	Cue	Win	True
410.564	4.0	Win2	0.6136	0.0	Yes	3.186	0.0	n/a	GoodResponse	1	n/a	n/a	6	43	Fixation	Win	True
414.562	0.31	Win2	0.6136	0.002	Yes	3.186	-0.002	3.0	GoodResponse	1	0.244	413.806	6	43	Target	Win	True
414.806	0.3	Win2	0.6136	0.002	Yes	3.186	-0.002	3.0	GoodResponse	1	0.244	n/a	6	43	ButtonPress	Win	True
414.879	0.39	Win2	0.6136	n/a	Yes	3.186	n/a	n/a	GoodResponse	1	n/a	n/a	6	43	Blank	Win	True
415.262	1.45	Win2	0.6136	n/a	Yes	3.186	n/a	5.0	GoodResponse	1	0.027	414.289	6	43	Feedback	Win	True
416.711	3.186	Win2	0.6136	n/a	Yes	3.186	n/a	n/a	GoodResponse	1	0.0	n/a	6	43	ISIslide	Win	True
419.927	0.25	Win2	0.6222	0.0	Yes	2.973	0.027	n/a	GoodResponse	1	n/a	n/a	7	44	Cue	Win	True
420.177	4.0	Win2	0.6222	0.0	Yes	2.973	0.0	n/a	GoodResponse	1	n/a	n/a	7	44	Fixation	Win	True
424.175	0.32	Win2	0.6222	0.002	Yes	2.973	-0.002	3.0	GoodResponse	1	0.269	423.444	7	44	Target	Win	True
424.444	0.3	Win2	0.6222	0.002	Yes	2.973	-0.002	3.0	GoodResponse	1	0.269	n/a	7	44	ButtonPress	Win	True
424.509	0.38	Win2	0.6222	n/a	Yes	2.973	n/a	n/a	GoodResponse	1	n/a	n/a	7	44	Blank	Win	True
424.875	1.45	Win2	0.6222	n/a	Yes	2.973	n/a	5.0	GoodResponse	1	0.023	423.898	7	44	Feedback	Win	True
426.325	2.973	Win2	0.6222	n/a	Yes	2.973	n/a	n/a	GoodResponse	1	0.0	n/a	7	44	ISIslide	Win	True
429.324	0.25	Control	0.6304	0.0	Yes	2.876	0.024	n/a	GoodResponse	0	n/a	n/a	7	45	Cue	Neutral	True
429.573	4.1	Control	0.6304	0.001	Yes	2.876	-0.001	n/a	GoodResponse	0	n/a	n/a	7	45	Fixation	Neutral	True
433.672	0.33	Control	0.6304	0.002	Yes	2.876	-0.002	3.0	GoodResponse	0	0.22	432.892	7	45	Target	Neutral	True
433.892	0.3	Control	0.6304	0.002	Yes	2.876	-0.002	3.0	GoodResponse	0	0.22	n/a	7	45	ButtonPress	Neutral	True
434.005	0.37	Control	0.6304	n/a	Yes	2.876	n/a	n/a	GoodResponse	0	n/a	n/a	7	45	Blank	Neutral	True
434.372	1.45	Control	0.6304	n/a	Yes	2.876	n/a	5.0	GoodResponse	0	0.038	433.41	7	45	Feedback	Neutral	True
435.821	2.876	Control	0.6304	n/a	Yes	2.876	n/a	n/a	GoodResponse	0	0.0	n/a	7	45	ISIslide	Neutral	True
438.72	0.25	Lose2	0.6383	0.0	Yes	3.38	0.02	n/a	GoodResponse	0	n/a	n/a	7	46	Cue	AvoidedLoss	True
438.97	4.0	Lose2	0.6383	0.0	Yes	3.38	0.0	n/a	GoodResponse	0	n/a	n/a	7	46	Fixation	AvoidedLoss	True
442.969	0.34	Lose2	0.6383	0.001	Yes	3.38	-0.001	3.0	GoodResponse	0	0.211	442.18	7	46	Target	AvoidedLoss	True
443.18	0.3	Lose2	0.6383	0.001	Yes	3.38	-0.001	3.0	GoodResponse	0	0.211	n/a	7	46	ButtonPress	AvoidedLoss	True
443.319	0.36	Lose2	0.6383	n/a	Yes	3.38	n/a	n/a	GoodResponse	0	n/a	n/a	7	46	Blank	AvoidedLoss	True
443.668	1.45	Lose2	0.6383	n/a	Yes	3.38	n/a	5.0	GoodResponse	0	0.011	442.679	7	46	Feedback	AvoidedLoss	True
445.118	3.38	Lose2	0.6383	n/a	Yes	3.38	n/a	n/a	GoodResponse	0	0.0	n/a	7	46	ISIslide	AvoidedLoss	True
448.517	0.25	Lose2	0.6457999999999999	0.0	Yes	2.683	0.017	n/a	GoodResponse	0	n/a	n/a	7	47	Cue	AvoidedLoss	True
448.767	4.0	Lose2	0.6457999999999999	0.0	Yes	2.683	0.0	n/a	GoodResponse	0	n/a	n/a	7	47	Fixation	AvoidedLoss	True
452.765	0.35	Lose2	0.6457999999999999	0.002	Yes	2.683	-0.002	3.0	GoodResponse	0	0.224	451.989	7	47	Target	AvoidedLoss	True
452.989	0.3	Lose2	0.6457999999999999	0.002	Yes	2.683	-0.002	3.0	GoodResponse	0	0.224	n/a	7	47	ButtonPress	AvoidedLoss	True
453.115	0.35	Lose2	0.6457999999999999	n/a	Yes	2.683	n/a	n/a	GoodResponse	0	n/a	n/a	7	47	Blank	AvoidedLoss	True
453.465	1.45	Lose2	0.6457999999999999	n/a	Yes	2.683	n/a	5.0	GoodResponse	0	0.019	452.484	7	47	Feedback	AvoidedLoss	True
454.914	2.683	Lose2	0.6457999999999999	n/a	Yes	2.683	n/a	n/a	GoodResponse	0	0.0	n/a	7	47	ISIslide	AvoidedLoss	True
457.63	0.25	Lose2	0.6531	0.0	Yes	3.02	0.03	n/a	GoodResponse	0	n/a	n/a	7	48	Cue	AvoidedLoss	True
457.88	3.95	Lose2	0.6531	0.0	Yes	3.02	0.0	n/a	GoodResponse	0	n/a	n/a	7	48	Fixation	AvoidedLoss	True
461.829	0.36	Lose2	0.6531	0.001	Yes	3.02	-0.001	3.0	GoodResponse	0	0.212	461.041	7	48	Target	AvoidedLoss	True
462.041	0.3	Lose2	0.6531	0.001	Yes	3.02	-0.001	3.0	GoodResponse	0	0.212	n/a	7	48	ButtonPress	AvoidedLoss	True
462.195	0.34	Lose2	0.6531	n/a	Yes	3.02	n/a	n/a	GoodResponse	0	n/a	n/a	7	48	Blank	AvoidedLoss	True
462.528	1.45	Lose2	0.6531	n/a	Yes	3.02	n/a	5.0	GoodResponse	0	0.029	461.557	7	48	Feedback	AvoidedLoss	True
463.978	3.02	Lose2	0.6531	n/a	Yes	3.02	n/a	n/a	GoodResponse	0	0.0	n/a	7	48	ISIslide	AvoidedLoss	True
467.027	0.25	Control	0.66	0.0	Yes	2.873	0.027	n/a	GoodResponse	0	n/a	n/a	7	49	Cue	Neutral	True
467.277	4.0	Control	0.66	0.0	Yes	2.873	0.0	n/a	GoodResponse	0	n/a	n/a	7	49	Fixation	Neutral	True
471.275	0.37	Control	0.66	0.002	Yes	2.873	-0.002	3.0	GoodResponse	0	0.21	470.485	7	49	Target	Neutral	True
471.485	0.3	Control	0.66	0.002	Yes	2.873	-0.002	3.0	GoodResponse	0	0.21	n/a	7	49	ButtonPress	Neutral	True
471.658	0.33	Control	0.66	n/a	Yes	2.873	n/a	n/a	GoodResponse	0	n/a	n/a	7	49	Blank	Neutral	True
471.975	1.45	Control	0.66	n/a	Yes	2.873	n/a	5.0	GoodResponse	0	0.044	471.019	7	49	Feedback	Neutral	True
473.424	2.873	Control	0.66	n/a	Yes	2.873	n/a	n/a	GoodResponse	0	0.0	n/a	7	49	ISIslide	Neutral	True
476.323	0.25	Control	0.6667000000000001	0.001	Yes	2.777	0.023	n/a	GoodResponse	0	n/a	n/a	7	50	Cue	Neutral	True
476.573	4.0	Control	0.6667000000000001	0.0	Yes	2.777	0.0	n/a	GoodResponse	0	n/a	n/a	7	50	Fixation	Neutral	True
480.572	0.37	Control	0.6667000000000001	0.001	Yes	2.777	-0.001	3.0	GoodResponse	0	0.253	479.825	7	50	Target	Neutral	True
480.825	0.3	Control	0.6667000000000001	0.001	Yes	2.777	-0.001	3.0	GoodResponse	0	0.253	n/a	7	50	ButtonPress	Neutral	True
480.939	0.33	Control	0.6667000000000001	n/a	Yes	2.777	n/a	n/a	GoodResponse	0	n/a	n/a	7	50	Blank	Neutral	True
481.272	1.45	Control	0.6667000000000001	n/a	Yes	2.777	n/a	5.0	GoodResponse	0	0.016	480.288	7	50	Feedback	Neutral	True
482.721	2.777	Control	0.6667000000000001	n/a	Yes	2.777	n/a	n/a	GoodResponse	0	0.0	n/a	7	50	ISIslide	Neutral	True
485.52	0.25	Control	0.6731	0.0	Yes	2.73	0.02	n/a	GoodResponse	0	n/a	n/a	7	51	Cue	Neutral	True
485.77	3.95	Control	0.6731	0.0	Yes	2.73	0.0	n/a	GoodResponse	0	n/a	n/a	7	51	Fixation	Neutral	True
489.719	0.36	Control	0.6731	0.001	Yes	2.73	-0.001	3.0	GoodResponse	0	0.239	488.958	7	51	Target	Neutral	True
489.958	0.3	Control	0.6731	0.001	Yes	2.73	-0.001	3.0	GoodResponse	0	0.239	n/a	7	51	ButtonPress	Neutral	True
490.085	0.34	Control	0.6731	n/a	Yes	2.73	n/a	n/a	GoodResponse	0	n/a	n/a	7	51	Blank	Neutral	True
490.418	1.45	Control	0.6731	n/a	Yes	2.73	n/a	5.0	GoodResponse	0	0.041	489.459	7	51	Feedback	Neutral	True
491.868	2.73	Control	0.6731	n/a	Yes	2.73	n/a	n/a	GoodResponse	0	0.0	n/a	7	51	ISIslide	Neutral	True
494.617	0.25	Control	0.6792	0.0	Yes	2.633	0.017	n/a	GoodResponse	0	n/a	n/a	7	52	Cue	Neutral	True
494.867	4.05	Control	0.6792	0.0	Yes	2.633	0.0	n/a	GoodResponse	0	n/a	n/a	7	52	Fixation	Neutral	True
498.915	0.35	Control	0.6792	0.002	Yes	2.633	-0.002	3.0	GoodResponse	0	0.264	498.179	7	52	Target	Neutral	True
499.179	0.3	Control	0.6792	0.002	Yes	2.633	-0.002	3.0	GoodResponse	0	0.264	n/a	7	52	ButtonPress	Neutral	True
499.265	0.35	Control	0.6792	n/a	Yes	2.633	n/a	n/a	GoodResponse	0	n/a	n/a	7	52	Blank	Neutral	True
499.615	1.45	Control	0.6792	n/a	Yes	2.633	n/a	5.0	GoodResponse	0	0.014	498.629	7	52	Feedback	Neutral	True
501.065	2.633	Control	0.6792	n/a	Yes	2.633	n/a	n/a	GoodResponse	0	0.0	n/a	7	52	ISIslide	Neutral	True
503.714	0.25	Win2	0.6851999999999999	0.0	Yes	2.936	0.014	n/a	GoodResponse	1	n/a	n/a	8	53	Cue	Win	True
503.964	4.05	Win2	0.6851999999999999	0.0	Yes	2.936	0.0	n/a	GoodResponse	1	n/a	n/a	8	53	Fixation	Win	True
508.012	0.34	Win2	0.6851999999999999	0.002	Yes	2.936	-0.002	3.0	GoodResponse	1	0.274	507.286	8	53	Target	Win	True
508.286	0.3	Win2	0.6851999999999999	0.002	Yes	2.936	-0.002	3.0	GoodResponse	1	0.274	n/a	8	53	ButtonPress	Win	True
508.362	0.36	Win2	0.6851999999999999	n/a	Yes	2.936	n/a	n/a	GoodResponse	1	n/a	n/a	8	53	Blank	Win	True
508.712	1.45	Win2	0.6851999999999999	n/a	Yes	2.936	n/a	5.0	GoodResponse	1	0.039	507.751	8	53	Feedback	Win	True
510.161	2.936	Win2	0.6851999999999999	n/a	Yes	2.936	n/a	n/a	GoodResponse	1	0.0	n/a	8	53	ISIslide	Win	True
513.127	0.25	Win2	0.6909000000000001	0.0	Yes	2.723	0.027	n/a	GoodResponse	1	n/a	n/a	9	54	Cue	Win	True
513.377	3.95	Win2	0.6909000000000001	0.0	Yes	2.723	0.0	n/a	GoodResponse	1	n/a	n/a	9	54	Fixation	Win	True
517.326	0.33	Win2	0.6909000000000001	0.001	Yes	2.723	-0.001	3.0	GoodResponse	1	0.209	516.535	9	54	Target	Win	True
517.535	0.3	Win2	0.6909000000000001	0.001	Yes	2.723	-0.001	3.0	GoodResponse	1	0.209	n/a	9	54	ButtonPress	Win	True
517.659	0.37	Win2	0.6909000000000001	n/a	Yes	2.723	n/a	n/a	GoodResponse	1	n/a	n/a	9	54	Blank	Win	True
518.025	1.45	Win2	0.6909000000000001	n/a	Yes	2.723	n/a	5.0	GoodResponse	1	0.043	517.068	9	54	Feedback	Win	True
519.475	2.723	Win2	0.6909000000000001	n/a	Yes	2.723	n/a	n/a	GoodResponse	1	0.0	n/a	9	54	ISIslide	Win	True
522.224	0.25	Control	0.6964	0.0	Yes	3.026	0.024	n/a	GoodResponse	0	n/a	n/a	9	55	Cue	Neutral	True
522.474	3.95	Control	0.6964	0.0	Yes	3.026	0.0	n/a	GoodResponse	0	n/a	n/a	9	55	Fixation	Neutral	True
526.422	0.32	Control	0.6964	0.002	Yes	3.026	-0.002	3.0	GoodResponse	0	0.269	525.691	9	55	Target	Neutral	True
526.691	0.3	Control	0.6964	0.002	Yes	3.026	-0.002	3.0	GoodResponse	0	0.269	n/a	9	55	ButtonPress	Neutral	True
526.756	0.38	Control	0.6964	n/a	Yes	3.026	n/a	n/a	GoodResponse	0	n/a	n/a	9	55	Blank	Neutral	True
527.122	1.45	Control	0.6964	n/a	Yes	3.026	n/a	5.0	GoodResponse	0	0.019	526.141	9	55	Feedback	Neutral	True
528.572	3.026	Control	0.6964	n/a	Yes	3.026	n/a	n/a	GoodResponse	0	0.0	n/a	9	55	ISIslide	Neutral	True
531.62	0.25	Control	0.7018000000000001	0.001	Yes	2.83	0.02	n/a	GoodResponse	0	n/a	n/a	9	56	Cue	Neutral	True
531.87	3.95	Control	0.7018000000000001	0.0	Yes	2.83	0.0	n/a	GoodResponse	0	n/a	n/a	9	56	Fixation	Neutral	True
535.819	0.31	Control	0.7018000000000001	0.001	Yes	2.83	-0.001	3.0	GoodResponse	0	0.211	535.03	9	56	Target	Neutral	True
536.03	0.3	Control	0.7018000000000001	0.001	Yes	2.83	-0.001	3.0	GoodResponse	0	0.211	n/a	9	56	ButtonPress	Neutral	True
536.136	0.39	Control	0.7018000000000001	n/a	Yes	2.83	n/a	n/a	GoodResponse	0	n/a	n/a	9	56	Blank	Neutral	True
536.519	1.45	Control	0.7018000000000001	n/a	Yes	2.83	n/a	5.0	GoodResponse	0	0.037	535.556	9	56	Feedback	Neutral	True
537.968	2.83	Control	0.7018000000000001	n/a	Yes	2.83	n/a	n/a	GoodResponse	0	0.0	n/a	9	56	ISIslide	Neutral	True
540.817	0.25	Control	0.7069	0.0	Yes	3.483	0.017	n/a	GoodResponse	0	n/a	n/a	9	57	Cue	Neutral	True
541.067	4.0	Control	0.7069	0.0	Yes	3.483	0.0	n/a	GoodResponse	0	n/a	n/a	9	57	Fixation	Neutral	True
545.066	0.3	Control	0.7069	0.001	Yes	3.483	-0.001	3.0	GoodResponse	0	0.222	544.288	9	57	Target	Neutral	True
545.288	0.3	Control	0.7069	0.001	Yes	3.483	-0.001	3.0	GoodResponse	0	0.222	n/a	9	57	ButtonPress	Neutral	True
545.366	0.4	Control	0.7069	n/a	Yes	3.483	n/a	n/a	GoodResponse	0	n/a	n/a	9	57	Blank	Neutral	True
545.765	1.45	Control	0.7069	n/a	Yes	3.483	n/a	5.0	GoodResponse	0	0.009	544.774	9	57	Feedback	Neutral	True
547.215	3.483	Control	0.7069	n/a	Yes	3.483	n/a	n/a	GoodResponse	0	0.0	n/a	9	57	ISIslide	Neutral	True
550.73	0.25	Win2	0.7119	0.0	Yes	2.72	0.03	n/a	GoodResponse	1	n/a	n/a	10	58	Cue	Win	False
550.98	4.05	Win2	0.7119	0.0	Yes	2.72	0.0	3.0	GoodResponse	1	0.26	550.24	10	58	Fixation	Win	False
551.24	0.3	Win2	0.7119	0.0	Yes	2.72	0.0	3.0	GoodResponse	1	0.26	n/a	10	58	ButtonPress	Win	False
555.029	0.29	Win2	0.7119	0.001	Yes	2.72	-0.001	3.0	GoodResponse	1	0.263	554.292	10	58	Target	Win	False
555.292	0.3	Win2	0.7119	0.001	Yes	2.72	-0.001	3.0	GoodResponse	1	0.263	n/a	10	58	ButtonPress	Win	False
555.329	0.41	Win2	0.7119	n/a	Yes	2.72	n/a	n/a	GoodResponse	1	n/a	n/a	10	58	Blank	Win	False
555.729	1.45	Win2	0.7119	n/a	Yes	2.72	n/a	5.0	GoodResponse	1	0.045	554.774	10	58	Feedback	Win	False
557.178	2.72	Win2	0.7119	n/a	Yes	2.72	n/a	n/a	GoodResponse	1	0.0	n/a	10	58	ISIslide	Win	False
559.927	0.25	Lose2	0.7167	0.0	Yes	2.673	0.027	n/a	GoodResponse	0	n/a	n/a	10	59	Cue	AvoidedLoss	True
560.177	4.0	Lose2	0.7167	0.0	Yes	2.673	0.0	n/a	GoodResponse	0	n/a	n/a	10	59	Fixation	AvoidedLoss	True
564.176	0.28	Lose2	0.7167	0.001	Yes	2.673	-0.001	3.0	GoodResponse	0	0.222	563.398	10	59	Target	AvoidedLoss	True
564.398	0.3	Lose2	0.7167	0.001	Yes	2.673	-0.001	3.0	GoodResponse	0	0.222	n/a	10	59	ButtonPress	AvoidedLoss	True
564.459	0.42	Lose2	0.7167	n/a	Yes	2.673	n/a	n/a	GoodResponse	0	n/a	n/a	10	59	Blank	AvoidedLoss	True
564.875	1.45	Lose2	0.7167	n/a	Yes	2.673	n/a	5.0	GoodResponse	0	0.022	563.897	10	59	Feedback	AvoidedLoss	True
566.325	2.673	Lose2	0.7167	n/a	Yes	2.673	n/a	n/a	GoodResponse	0	0.0	n/a	10	59	ISIslide	AvoidedLoss	True
569.024	0.25	Control	0.7212999999999999	0.0	Yes	2.676	0.024	n/a	GoodResponse	0	n/a	n/a	10	60	Cue	Neutral	True
569.274	4.0	Control	0.7212999999999999	0.0	Yes	2.676	0.0	n/a	GoodResponse	0	n/a	n/a	10	60	Fixation	Neutral	True
573.272	0.27	Control	0.7212999999999999	0.002	Yes	2.676	-0.002	3.0	GoodResponse	0	0.267	572.539	10	60	Target	Neutral	True
573.539	0.3	Control	0.7212999999999999	0.002	Yes	2.676	-0.002	3.0	GoodResponse	0	0.267	n/a	10	60	ButtonPress	Neutral	True
573.556	0.43	Control	0.7212999999999999	n/a	Yes	2.676	n/a	n/a	GoodResponse	0	n/a	n/a	10	60	Blank	Neutral	True
573.972	1.45	Control	0.7212999999999999	n/a	Yes	2.676	n/a	5.0	GoodResponse	0	0.047	573.019	10	60	Feedback	Neutral	True
575.422	2.676	Control	0.7212999999999999	n/a	Yes	2.676	n/a	n/a	GoodResponse	0	0.0	n/a	10	60	ISIslide	Neutral	True
578.121	0.25	Lose2	0.7258	0.0	Yes	2.979	0.021	n/a	GoodResponse	0	n/a	n/a	10	61	Cue	AvoidedLoss	True
578.371	4.0	Lose2	0.7258	0.0	Yes	2.979	0.0	n/a	GoodResponse	0	n/a	n/a	10	61	Fixation	AvoidedLoss	True
582.369	0.26	Lose2	0.7258	0.002	Yes	2.979	-0.002	3.0	GoodResponse	0	0.219	581.588	10	61	Target	AvoidedLoss	True
582.588	0.3	Lose2	0.7258	0.002	Yes	2.979	-0.002	3.0	GoodResponse	0	0.219	n/a	10	61	ButtonPress	AvoidedLoss	True
582.636	0.44	Lose2	0.7258	n/a	Yes	2.979	n/a	n/a	GoodResponse	0	n/a	n/a	10	61	Blank	AvoidedLoss	True
583.069	1.45	Lose2	0.7258	n/a	Yes	2.979	n/a	5.0	GoodResponse	0	0.022	582.091	10	61	Feedback	AvoidedLoss	True
584.518	2.979	Lose2	0.7258	n/a	Yes	2.979	n/a	n/a	GoodResponse	0	0.0	n/a	10	61	ISIslide	AvoidedLoss	True
587.517	0.25	Lose2	0.7143	0.0	No	2.883	0.017	n/a	NoResponse	-1	n/a	n/a	9	62	Cue	Loss	True
587.767	3.9	Lose2	0.7143	0.0	No	2.883	0.0	n/a	NoResponse	-1	n/a	n/a	9	62	Fixation	Loss	True
591.666	0.25	Lose2	0.7143	0.001	No	2.883	-0.001	3.0	NoResponse	-1	0.277	590.943	9	62	Target	Loss	True
591.916	0.45	Lose2	0.7143	n/a	No	2.883	n/a	n/a	NoResponse	-1	n/a	n/a	9	62	Blank	Loss	True
591.943	0.3	Lose2	0.7143	0.001	No	2.883	-0.001	3.0	NoResponse	-1	0.277	n/a	9	62	ButtonPress	Loss	True
592.366	1.45	Lose2	0.7143	n/a	No	2.883	n/a	5.0	NoResponse	-1	0.042	591.408	9	62	Feedback	Loss	True
593.815	2.883	Lose2	0.7143	n/a	No	2.883	n/a	n/a	NoResponse	-1	0.0	n/a	9	62	ISIslide	Loss	True
596.714	0.25	Lose2	0.7031000000000001	0.0	No	2.636	0.014	n/a	NoResponse	-1	n/a	n/a	8	63	Cue	Loss	True
596.964	4.05	Lose2	0.7031000000000001	0.0	No	2.636	0.0	n/a	NoResponse	-1	n/a	n/a	8	63	Fixation	Loss	True
601.012	0.24	Lose2	0.7031000000000001	0.002	No	2.636	-0.002	3.0	NoResponse	-1	0.293	600.305	8	63	Target	Loss	True
601.262	0.46	Lose2	0.7031000000000001	n/a	No	2.636	n/a	n/a	NoResponse	-1	n/a	n/a	8	63	Blank	Loss	True
601.305	0.3	Lose2	0.7031000000000001	0.002	No	2.636	-0.002	3.0	NoResponse	-1	0.293	n/a	8	63	ButtonPress	Loss	True
601.712	1.45	Lose2	0.7031000000000001	n/a	No	2.636	n/a	5.0	NoResponse	-1	0.013	600.725	8	63	Feedback	Loss	True
603.162	2.636	Lose2	0.7031000000000001	n/a	No	2.636	n/a	n/a	NoResponse	-1	0.0	n/a	8	63	ISIslide	Loss	True
605.827	0.25	Win2	0.7077	0.001	Yes	3.123	0.027	n/a	GoodResponse	1	n/a	n/a	9	64	Cue	Win	True
606.077	4.15	Win2	0.7077	0.0	Yes	3.123	0.0	n/a	GoodResponse	1	n/a	n/a	9	64	Fixation	Win	True
610.226	0.23	Win2	0.7077	0.001	Yes	3.123	-0.001	3.0	GoodResponse	1	0.223	609.449	9	64	Target	Win	True
610.449	0.3	Win2	0.7077	0.001	Yes	3.123	-0.001	3.0	GoodResponse	1	0.223	n/a	9	64	ButtonPress	Win	True
610.459	0.47	Win2	0.7077	n/a	Yes	3.123	n/a	n/a	GoodResponse	1	n/a	n/a	9	64	Blank	Win	True
610.926	1.45	Win2	0.7077	n/a	Yes	3.123	n/a	5.0	GoodResponse	1	0.019	609.945	9	64	Feedback	Win	True
612.375	3.123	Win2	0.7077	n/a	Yes	3.123	n/a	n/a	GoodResponse	1	0.0	n/a	9	64	ISIslide	Win	True
615.524	0.25	Control	0.6970000000000001	0.0	No	2.776	0.024	n/a	NoResponse	0	n/a	n/a	9	65	Cue	Neutral	True
615.774	4.0	Control	0.6970000000000001	0.0	No	2.776	0.0	n/a	NoResponse	0	n/a	n/a	9	65	Fixation	Neutral	True
619.772	0.22	Control	0.6970000000000001	0.002	No	2.776	-0.002	3.0	NoResponse	0	0.332	619.104	9	65	Target	Neutral	True
620.006	0.48	Control	0.6970000000000001	n/a	No	2.776	n/a	n/a	NoResponse	0	n/a	n/a	9	65	Blank	Neutral	True
620.104	0.3	Control	0.6970000000000001	0.002	No	2.776	-0.002	3.0	NoResponse	0	0.332	n/a	9	65	ButtonPress	Neutral	True
620.472	1.45	Control	0.6970000000000001	n/a	No	2.776	n/a	5.0	NoResponse	0	0.033	619.505	9	65	Feedback	Neutral	True
621.922	2.776	Control	0.6970000000000001	n/a	No	2.776	n/a	n/a	NoResponse	0	0.0	n/a	9	65	ISIslide	Neutral	True
624.721	0.25	Win2	0.6866	0.0	No	2.779	0.021	n/a	NoResponse	0	n/a	n/a	9	66	Cue	MissedWin	False
624.971	3.9	Win2	0.6866	0.0	No	2.779	0.0	3.0	NoResponse	0	0.283	624.254	9	66	Fixation	MissedWin	False
625.254	0.3	Win2	0.6866	0.0	No	2.779	0.0	3.0	NoResponse	0	0.283	n/a	9	66	ButtonPress	MissedWin	False
628.869	0.21	Win2	0.6866	0.002	No	2.779	-0.002	3.0	NoResponse	0	0.226	628.095	9	66	Target	MissedWin	False
629.086	0.49	Win2	0.6866	n/a	No	2.779	n/a	n/a	NoResponse	0	n/a	n/a	9	66	Blank	MissedWin	False
629.095	0.3	Win2	0.6866	0.002	No	2.779	-0.002	3.0	NoResponse	0	0.226	n/a	9	66	ButtonPress	MissedWin	False
629.569	1.45	Win2	0.6866	n/a	No	2.779	n/a	5.0	NoResponse	0	0.009	628.578	9	66	Feedback	MissedWin	False
631.018	2.779	Win2	0.6866	n/a	No	2.779	n/a	n/a	NoResponse	0	0.0	n/a	9	66	ISIslide	MissedWin	False
633.817	0.25	Control	0.6765000000000001	0.001	No	2.733	0.017	n/a	NoResponse	0	n/a	n/a	9	67	Cue	Neutral	True
634.067	3.95	Control	0.6765000000000001	0.0	No	2.733	0.0	n/a	NoResponse	0	n/a	n/a	9	67	Fixation	Neutral	True
638.016	0.2	Control	0.6765000000000001	0.001	No	2.733	-0.001	3.0	NoResponse	0	0.492	637.508	9	67	Target	Neutral	True
638.216	0.5	Control	0.6765000000000001	n/a	No	2.733	n/a	n/a	NoResponse	0	n/a	n/a	9	67	Blank	Neutral	True
638.508	0.3	Control	0.6765000000000001	0.001	No	2.733	-0.001	3.0	NoResponse	0	0.492	n/a	9	67	ButtonPress	Neutral	True
638.716	1.45	Control	0.6765000000000001	n/a	No	2.733	n/a	5.0	NoResponse	0	0.033	637.749	9	67	Feedback	Neutral	True
640.165	2.733	Control	0.6765000000000001	n/a	No	2.733	n/a	n/a	NoResponse	0	0.0	n/a	9	67	ISIslide	Neutral	True
642.914	0.25	Win2	0.6667000000000001	0.0	No	3.086	0.014	n/a	NoResponse	0	n/a	n/a	9	68	Cue	MissedWin	True
643.164	4.0	Win2	0.6667000000000001	0.0	No	3.086	0.0	n/a	NoResponse	0	n/a	n/a	9	68	Fixation	MissedWin	True
647.163	0.19	Win2	0.6667000000000001	0.001	No	3.086	-0.001	3.0	NoResponse	0	0.233	646.396	9	68	Target	MissedWin	True
647.363	0.51	Win2	0.6667000000000001	n/a	No	3.086	n/a	n/a	NoResponse	0	n/a	n/a	9	68	Blank	MissedWin	True
647.396	0.3	Win2	0.6667000000000001	0.001	No	3.086	-0.001	3.0	NoResponse	0	0.233	n/a	9	68	ButtonPress	MissedWin	True
647.862	1.45	Win2	0.6667000000000001	n/a	No	3.086	n/a	5.0	NoResponse	0	0.009	646.871	9	68	Feedback	MissedWin	True
649.312	3.086	Win2	0.6667000000000001	n/a	No	3.086	n/a	n/a	NoResponse	0	0.0	n/a	9	68	ISIslide	MissedWin	True
652.428	0.25	Win2	0.6570999999999999	0.0	No	3.222	0.028	n/a	NoResponse	0	n/a	n/a	9	69	Cue	MissedWin	False
652.677	3.95	Win2	0.6570999999999999	0.001	No	3.222	-0.001	3.0	NoResponse	0	0.05	651.727	9	69	Fixation	MissedWin	False
652.727	0.3	Win2	0.6570999999999999	0.001	No	3.222	-0.001	3.0	NoResponse	0	0.05	n/a	9	69	ButtonPress	MissedWin	False
656.626	0.18	Win2	0.6570999999999999	0.002	No	3.222	-0.002	3.0	NoResponse	0	0.33	655.956	9	69	Target	MissedWin	False
656.809	0.52	Win2	0.6570999999999999	n/a	No	3.222	n/a	n/a	NoResponse	0	n/a	n/a	9	69	Blank	MissedWin	False
656.956	0.3	Win2	0.6570999999999999	0.002	No	3.222	-0.002	3.0	NoResponse	0	0.33	n/a	9	69	ButtonPress	MissedWin	False
657.326	1.45	Win2	0.6570999999999999	n/a	No	3.222	n/a	5.0	NoResponse	0	0.008	656.334	9	69	Feedback	MissedWin	False
658.775	3.222	Win2	0.6570999999999999	n/a	No	3.222	n/a	n/a	NoResponse	0	0.0	n/a	9	69	ISIslide	MissedWin	False
662.024	0.25	Lose2	0.6479	0.0	No	3.026	0.024	n/a	NoResponse	-1	n/a	n/a	8	70	Cue	Loss	False
662.274	4.05	Lose2	0.6479	0.0	No	3.026	0.0	n/a	NoResponse	-1	n/a	n/a	8	70	Fixation	Loss	False
666.323	0.18	Lose2	0.6479	0.001	No	3.026	-0.001	n/a	NoResponse	-1	n/a	n/a	8	70	Target	Loss	False
666.506	0.52	Lose2	0.6479	n/a	No	3.026	n/a	n/a	NoResponse	-1	n/a	n/a	8	70	Blank	Loss	False
667.022	1.45	Lose2	0.6479	n/a	No	3.026	n/a	5.0	NoResponse	-1	0.019	666.041	8	70	Feedback	Loss	False
668.472	3.026	Lose2	0.6479	n/a	No	3.026	n/a	n/a	NoResponse	-1	0.0	n/a	8	70	ISIslide	Loss	False
671.521	0.25	Win2	0.6389	0.0	No	2.729	0.021	n/a	NoResponse	0	n/a	n/a	8	71	Cue	MissedWin	True
671.771	4.05	Win2	0.6389	0.0	No	2.729	0.0	n/a	NoResponse	0	n/a	n/a	8	71	Fixation	MissedWin	True
675.819	0.19	Win2	0.6389	0.002	No	2.729	-0.002	3.0	NoResponse	0	0.248	675.067	8	71	Target	MissedWin	True
676.019	0.51	Win2	0.6389	n/a	No	2.729	n/a	n/a	NoResponse	0	n/a	n/a	8	71	Blank	MissedWin	True
676.067	0.3	Win2	0.6389	0.002	No	2.729	-0.002	3.0	NoResponse	0	0.248	n/a	8	71	ButtonPress	MissedWin	True
676.519	1.45	Win2	0.6389	n/a	No	2.729	n/a	5.0	NoResponse	0	0.034	675.553	8	71	Feedback	MissedWin	True
677.968	2.729	Win2	0.6389	n/a	No	2.729	n/a	n/a	NoResponse	0	0.0	n/a	8	71	ISIslide	MissedWin	True
680.717	0.25	Win2	0.6301	0.001	No	2.783	0.017	n/a	NoResponse	0	n/a	n/a	8	72	Cue	MissedWin	True
680.967	4.1	Win2	0.6301	0.0	No	2.783	0.0	n/a	NoResponse	0	n/a	n/a	8	72	Fixation	MissedWin	True
685.066	0.2	Win2	0.6301	0.001	No	2.783	-0.001	3.0	NoResponse	0	0.219	684.285	8	72	Target	MissedWin	True
685.266	0.5	Win2	0.6301	n/a	No	2.783	n/a	n/a	NoResponse	0	n/a	n/a	8	72	Blank	MissedWin	True
685.285	0.3	Win2	0.6301	0.001	No	2.783	-0.001	3.0	NoResponse	0	0.219	n/a	8	72	ButtonPress	MissedWin	True
685.766	1.45	Win2	0.6301	n/a	No	2.783	n/a	5.0	NoResponse	0	0.007	684.773	8	72	Feedback	MissedWin	True
687.215	2.783	Win2	0.6301	n/a	No	2.783	n/a	n/a	NoResponse	0	0.0	n/a	8	72	ISIslide	MissedWin	True
690.014	0.25	Win2	0.6215999999999999	0.0	No	2.686	0.014	n/a	LatePress	0	n/a	n/a	8	73	Cue	MissedWin	True
690.264	4.0	Win2	0.6215999999999999	0.0	No	2.686	0.0	n/a	LatePress	0	n/a	n/a	8	73	Fixation	MissedWin	True
694.263	0.21	Win2	0.6215999999999999	0.001	No	2.686	-0.001	3.0	LatePress	0	0.214	693.477	8	73	Target	MissedWin	True
694.477	0.3	Win2	0.6215999999999999	0.001	No	2.686	-0.001	3.0	LatePress	0	0.214	n/a	8	73	ButtonPress	MissedWin	True
694.479	0.49	Win2	0.6215999999999999	n/a	No	2.686	n/a	n/a	LatePress	0	n/a	n/a	8	73	Blank	MissedWin	True
694.962	1.45	Win2	0.6215999999999999	n/a	No	2.686	n/a	5.0	LatePress	0	0.03	693.992	8	73	Feedback	MissedWin	True
696.412	2.686	Win2	0.6215999999999999	n/a	No	2.686	n/a	n/a	LatePress	0	0.0	n/a	8	73	ISIslide	MissedWin	True
699.128	0.25	Lose2	0.6267	0.0	Yes	2.622	0.028	n/a	GoodResponse	0	n/a	n/a	8	74	Cue	AvoidedLoss	True
699.377	4.05	Lose2	0.6267	0.001	Yes	2.622	-0.001	n/a	GoodResponse	0	n/a	n/a	8	74	Fixation	AvoidedLoss	True
703.426	0.22	Lose2	0.6267	0.002	Yes	2.622	-0.002	3.0	GoodResponse	0	0.211	702.637	8	74	Target	AvoidedLoss	True
703.637	0.3	Lose2	0.6267	0.002	Yes	2.622	-0.002	3.0	GoodResponse	0	0.211	n/a	8	74	ButtonPress	AvoidedLoss	True
703.659	0.48	Lose2	0.6267	n/a	Yes	2.622	n/a	n/a	GoodResponse	0	n/a	n/a	8	74	Blank	AvoidedLoss	True
704.126	1.45	Lose2	0.6267	n/a	Yes	2.622	n/a	5.0	GoodResponse	0	0.037	703.163	8	74	Feedback	AvoidedLoss	True
705.575	2.622	Lose2	0.6267	n/a	Yes	2.622	n/a	n/a	GoodResponse	0	0.0	n/a	8	74	ISIslide	AvoidedLoss	True
708.224	0.25	Lose2	0.6184000000000001	0.0	No	2.926	0.024	n/a	NoResponse	-1	n/a	n/a	7	75	Cue	Loss	True
708.474	3.95	Lose2	0.6184000000000001	0.0	No	2.926	0.0	n/a	NoResponse	-1	n/a	n/a	7	75	Fixation	Loss	True
712.423	0.23	Lose2	0.6184000000000001	0.001	No	2.926	-0.001	3.0	NoResponse	-1	0.248	711.671	7	75	Target	Loss	True
712.656	0.47	Lose2	0.6184000000000001	n/a	No	2.926	n/a	n/a	NoResponse	-1	n/a	n/a	7	75	Blank	Loss	True
712.671	0.3	Lose2	0.6184000000000001	0.001	No	2.926	-0.001	3.0	NoResponse	-1	0.248	n/a	7	75	ButtonPress	Loss	True
713.123	1.45	Lose2	0.6184000000000001	n/a	No	2.926	n/a	5.0	NoResponse	-1	0.015	712.138	7	75	Feedback	Loss	True
714.572	2.926	Lose2	0.6184000000000001	n/a	No	2.926	n/a	n/a	NoResponse	-1	0.0	n/a	7	75	ISIslide	Loss	True
717.521	0.25	Control	0.6234000000000001	0.0	Yes	3.229	0.021	n/a	GoodResponse	0	n/a	n/a	7	76	Cue	Neutral	True
717.771	4.05	Control	0.6234000000000001	0.0	Yes	3.229	0.0	n/a	GoodResponse	0	n/a	n/a	7	76	Fixation	Neutral	True
721.819	0.24	Control	0.6234000000000001	0.002	Yes	3.229	-0.002	3.0	GoodResponse	0	0.232	721.051	7	76	Target	Neutral	True
722.051	0.3	Control	0.6234000000000001	0.002	Yes	3.229	-0.002	3.0	GoodResponse	0	0.232	n/a	7	76	ButtonPress	Neutral	True
722.069	0.46	Control	0.6234000000000001	n/a	Yes	3.229	n/a	n/a	GoodResponse	0	n/a	n/a	7	76	Blank	Neutral	True
722.519	1.45	Control	0.6234000000000001	n/a	Yes	3.229	n/a	5.0	GoodResponse	0	0.034	721.553	7	76	Feedback	Neutral	True
723.969	3.229	Control	0.6234000000000001	n/a	Yes	3.229	n/a	n/a	GoodResponse	0	0.0	n/a	7	76	ISIslide	Neutral	True
727.218	0.25	Lose2	0.6282	0.0	Yes	2.582	0.018	n/a	GoodResponse	0	n/a	n/a	7	77	Cue	AvoidedLoss	True
727.467	3.95	Lose2	0.6282	0.001	Yes	2.582	-0.001	n/a	GoodResponse	0	n/a	n/a	7	77	Fixation	AvoidedLoss	True
731.416	0.25	Lose2	0.6282	0.002	Yes	2.582	-0.002	3.0	GoodResponse	0	0.206	730.622	7	77	Target	AvoidedLoss	True
731.622	0.3	Lose2	0.6282	0.002	Yes	2.582	-0.002	3.0	GoodResponse	0	0.206	n/a	7	77	ButtonPress	AvoidedLoss	True
731.666	0.45	Lose2	0.6282	n/a	Yes	2.582	n/a	n/a	GoodResponse	0	n/a	n/a	7	77	Blank	AvoidedLoss	True
732.116	1.45	Lose2	0.6282	n/a	Yes	2.582	n/a	5.0	GoodResponse	0	0.046	731.162	7	77	Feedback	AvoidedLoss	True
733.565	2.582	Lose2	0.6282	n/a	Yes	2.582	n/a	n/a	GoodResponse	0	0.0	n/a	7	77	ISIslide	AvoidedLoss	True
