onset	duration	cue_type	current_mean_accuracy	duration_error	is_hit	isi_adjusted	onset_delay	response	response_type	reward	rt	rt_time	total_reward	trial_number	trial_phase	trial_type	one_press
11.103	0.25	Control	1.0	0.0	Yes	2.947	0.003	n/a	GoodResponse	0	n/a	n/a	0	0	Cue	Neutral	True
11.354	3.85	Control	1.0	0.0	Yes	2.947	0.001	n/a	GoodResponse	0	n/a	n/a	0	0	Fixation	Neutral	True
15.215	0.4	Control	1.0	0.0	Yes	2.947	0.012	3.0	GoodResponse	0	0.252	14.467	0	0	Target	Neutral	True
15.467	0.3	Control	1.0	0.0	Yes	2.947	0.012	3.0	GoodResponse	0	0.252	n/a	0	0	ButtonPress	Neutral	True
15.6	0.3	Control	1.0	n/a	Yes	2.947	n/a	n/a	GoodResponse	0	n/a	n/a	0	0	Blank	Neutral	True
15.901	1.45	Control	1.0	n/a	Yes	2.947	n/a	5.0	GoodResponse	0	0.025	14.926	0	0	Feedback	Neutral	True
17.355	2.947	Control	1.0	n/a	Yes	2.947	n/a	n/a	GoodResponse	0	0.0	n/a	0	0	ISIslide	Neutral	True
20.331	0.25	Lose2	1.0	0.0	Yes	2.769	0.031	n/a	GoodResponse	0	n/a	n/a	0	1	Cue	AvoidedLoss	True
20.581	4.0	Lose2	1.0	0.0	Yes	2.769	0.0	n/a	GoodResponse	0	n/a	n/a	0	1	Fixation	AvoidedLoss	True
24.577	0.39	Lose2	1.0	0.004	Yes	2.769	-0.004	1.0	GoodResponse	0	0.232	23.809	0	1	Target	AvoidedLoss	True
24.809	0.3	Lose2	1.0	0.004	Yes	2.769	-0.004	1.0	GoodResponse	0	0.232	n/a	0	1	ButtonPress	AvoidedLoss	True
24.978	0.31	Lose2	1.0	n/a	Yes	2.769	n/a	n/a	GoodResponse	0	n/a	n/a	0	1	Blank	AvoidedLoss	True
25.279	1.45	Lose2	1.0	n/a	Yes	2.769	n/a	5.0	GoodResponse	0	0.013	24.292	0	1	Feedback	AvoidedLoss	True
26.733	2.769	Lose2	1.0	n/a	Yes	2.769	n/a	n/a	GoodResponse	0	0.0	n/a	0	1	ISIslide	AvoidedLoss	True
29.525	0.25	Control	1.0	0.0	Yes	2.575	0.025	n/a	GoodResponse	0	n/a	n/a	0	2	Cue	Neutral	True
29.775	4.1	Control	1.0	0.001	Yes	2.575	0.0	n/a	GoodResponse	0	n/a	n/a	0	2	Fixation	Neutral	True
33.871	0.38	Control	1.0	0.004	Yes	2.575	-0.004	3.0	GoodResponse	0	0.221	33.092	0	2	Target	Neutral	True
34.092	0.3	Control	1.0	0.004	Yes	2.575	-0.004	3.0	GoodResponse	0	0.221	n/a	0	2	ButtonPress	Neutral	True
34.256	0.32	Control	1.0	n/a	Yes	2.575	n/a	n/a	GoodResponse	0	n/a	n/a	0	2	Blank	Neutral	True
34.573	1.45	Control	1.0	n/a	Yes	2.575	n/a	5.0	GoodResponse	0	0.036	33.609	0	2	Feedback	Neutral	True
36.028	2.575	Control	1.0	n/a	Yes	2.575	n/a	n/a	GoodResponse	0	0.0	n/a	0	2	ISIslide	Neutral	True
38.619	0.25	Win2	1.0	0.0	Yes	2.831	0.019	n/a	GoodResponse	1	n/a	n/a	1	3	Cue	Win	True
38.869	3.95	Win2	1.0	0.001	Yes	2.831	0.0	n/a	GoodResponse	1	n/a	n/a	1	3	Fixation	Win	True
42.815	0.37	Win2	1.0	0.004	Yes	2.831	-0.004	4.0	GoodResponse	1	0.245	42.06	1	3	Target	Win	True
43.06	0.3	Win2	1.0	0.004	Yes	2.831	-0.004	4.0	GoodResponse	1	0.245	n/a	1	3	ButtonPress	Win	True
43.199	0.33	Win2	1.0	n/a	Yes	2.831	n/a	n/a	GoodResponse	1	n/a	n/a	1	3	Blank	Win	True
43.517	1.45	Win2	1.0	n/a	Yes	2.831	n/a	5.0	GoodResponse	1	0.019	42.536	1	3	Feedback	Win	True
44.971	2.831	Win2	1.0	n/a	Yes	2.831	n/a	n/a	GoodResponse	1	0.0	n/a	1	3	ISIslide	Win	True
47.83	0.25	Win2	1.0	0.0	Yes	3.27	0.03	n/a	GoodResponse	1	n/a	n/a	2	4	Cue	Win	True
48.08	4.0	Win2	1.0	0.001	Yes	3.27	0.0	n/a	GoodResponse	1	n/a	n/a	2	4	Fixation	Win	True
52.076	0.36	Win2	1.0	0.004	Yes	3.27	-0.004	4.0	GoodResponse	1	0.236	51.312	2	4	Target	Win	True
52.312	0.3	Win2	1.0	0.004	Yes	3.27	-0.004	4.0	GoodResponse	1	0.236	n/a	2	4	ButtonPress	Win	True
52.443	0.34	Win2	1.0	n/a	Yes	3.27	n/a	n/a	GoodResponse	1	n/a	n/a	2	4	Blank	Win	True
52.778	1.45	Win2	1.0	n/a	Yes	3.27	n/a	5.0	GoodResponse	1	0.026	51.804	2	4	Feedback	Win	True
54.232	3.27	Win2	1.0	n/a	Yes	3.27	n/a	n/a	GoodResponse	1	0.0	n/a	2	4	ISIslide	Win	True
57.525	0.25	Win2	1.0	0.0	Yes	2.775	0.025	n/a	GoodResponse	1	n/a	n/a	3	5	Cue	Win	True
57.776	4.0	Win2	1.0	0.0	Yes	2.775	0.001	n/a	GoodResponse	1	n/a	n/a	3	5	Fixation	Win	True
61.771	0.35	Win2	1.0	0.004	Yes	2.775	-0.004	4.0	GoodResponse	1	0.224	60.995	3	5	Target	Win	True
61.995	0.3	Win2	1.0	0.004	Yes	2.775	-0.004	4.0	GoodResponse	1	0.224	n/a	3	5	ButtonPress	Win	True
62.123	0.35	Win2	1.0	n/a	Yes	2.775	n/a	n/a	GoodResponse	1	n/a	n/a	3	5	Blank	Win	True
62.474	1.45	Win2	1.0	n/a	Yes	2.775	n/a	5.0	GoodResponse	1	0.038	61.512	3	5	Feedback	Win	True
63.928	2.775	Win2	1.0	n/a	Yes	2.775	n/a	n/a	GoodResponse	1	0.0	n/a	3	5	ISIslide	Win	True
66.72	0.25	Lose2	1.0	0.0	Yes	2.73	0.02	n/a	GoodResponse	0	n/a	n/a	3	6	Cue	AvoidedLoss	True
66.97	3.95	Lose2	1.0	0.0	Yes	2.73	0.0	n/a	GoodResponse	0	n/a	n/a	3	6	Fixation	AvoidedLoss	True
70.916	0.34	Lose2	1.0	0.004	Yes	2.73	-0.004	1.0	GoodResponse	0	0.215	70.131	3	6	Target	AvoidedLoss	True
71.131	0.3	Lose2	1.0	0.004	Yes	2.73	-0.004	1.0	GoodResponse	0	0.215	n/a	3	6	ButtonPress	AvoidedLoss	True
71.267	0.36	Lose2	1.0	n/a	Yes	2.73	n/a	n/a	GoodResponse	0	n/a	n/a	3	6	Blank	AvoidedLoss	True
71.618	1.45	Lose2	1.0	n/a	Yes	2.73	n/a	5.0	GoodResponse	0	0.016	70.634	3	6	Feedback	AvoidedLoss	True
73.072	2.73	Lose2	1.0	n/a	Yes	2.73	n/a	n/a	GoodResponse	0	0.0	n/a	3	6	ISIslide	AvoidedLoss	True
75.83	0.25	Lose2	1.0	0.0	Yes	4.02	0.03	n/a	GoodResponse	0	n/a	n/a	3	7	Cue	AvoidedLoss	True
76.081	4.05	Lose2	1.0	0.0	Yes	4.02	0.001	n/a	GoodResponse	0	n/a	n/a	3	7	Fixation	AvoidedLoss	True
80.127	0.33	Lose2	1.0	0.003	Yes	4.02	-0.003	1.0	GoodResponse	0	0.248	79.375	3	7	Target	AvoidedLoss	True
80.375	0.3	Lose2	1.0	0.003	Yes	4.02	-0.003	1.0	GoodResponse	0	0.248	n/a	3	7	ButtonPress	AvoidedLoss	True
80.461	0.37	Lose2	1.0	n/a	Yes	4.02	n/a	n/a	GoodResponse	0	n/a	n/a	3	7	Blank	AvoidedLoss	True
80.829	1.45	Lose2	1.0	n/a	Yes	4.02	n/a	5.0	GoodResponse	0	0.024	79.853	3	7	Feedback	AvoidedLoss	True
82.283	4.02	Lose2	1.0	n/a	Yes	4.02	n/a	n/a	GoodResponse	0	0.0	n/a	3	7	ISIslide	AvoidedLoss	True
86.328	0.25	Lose2	1.0	0.001	Yes	3.022	0.028	n/a	GoodResponse	0	n/a	n/a	3	8	Cue	AvoidedLoss	True
86.579	3.95	Lose2	1.0	0.0	Yes	3.022	0.001	n/a	GoodResponse	0	n/a	n/a	3	8	Fixation	AvoidedLoss	True
90.524	0.32	Lose2	1.0	0.004	Yes	3.022	-0.004	1.0	GoodResponse	0	0.243	89.767	3	8	Target	AvoidedLoss	True
90.767	0.3	Lose2	1.0	0.004	Yes	3.022	-0.004	1.0	GoodResponse	0	0.243	n/a	3	8	ButtonPress	AvoidedLoss	True
90.859	0.38	Lose2	1.0	n/a	Yes	3.022	n/a	n/a	GoodResponse	0	n/a	n/a	3	8	Blank	AvoidedLoss	True
91.227	1.45	Lose2	1.0	n/a	Yes	3.022	n/a	5.0	GoodResponse	0	0.016	90.243	3	8	Feedback	AvoidedLoss	True
92.681	3.022	Lose2	1.0	n/a	Yes	3.022	n/a	n/a	GoodResponse	0	0.0	n/a	3	8	ISIslide	AvoidedLoss	True
95.723	0.25	Lose2	1.0	0.0	Yes	3.127	0.023	n/a	GoodResponse	0	n/a	n/a	3	9	Cue	AvoidedLoss	True
95.974	3.95	Lose2	1.0	0.0	Yes	3.127	0.001	n/a	GoodResponse	0	n/a	n/a	3	9	Fixation	AvoidedLoss	True
99.919	0.31	Lose2	1.0	0.004	Yes	3.127	-0.004	1.0	GoodResponse	0	0.229	99.148	3	9	Target	AvoidedLoss	True
100.148	0.3	Lose2	1.0	0.004	Yes	3.127	-0.004	1.0	GoodResponse	0	0.229	n/a	3	9	ButtonPress	AvoidedLoss	True
100.237	0.39	Lose2	1.0	n/a	Yes	3.127	n/a	n/a	GoodResponse	0	n/a	n/a	3	9	Blank	AvoidedLoss	True
100.621	1.45	Lose2	1.0	n/a	Yes	3.127	n/a	5.0	GoodResponse	0	0.037	99.658	3	9	Feedback	AvoidedLoss	True
102.076	3.127	Lose2	1.0	n/a	Yes	3.127	n/a	n/a	GoodResponse	0	0.0	n/a	3	9	ISIslide	AvoidedLoss	True
105.218	0.25	Control	1.0	0.001	Yes	3.282	0.018	n/a	GoodResponse	0	n/a	n/a	3	10	Cue	Neutral	True
105.469	4.0	Control	1.0	0.0	Yes	3.282	0.001	n/a	GoodResponse	0	n/a	n/a	3	10	Fixation	Neutral	True
109.465	0.3	Control	1.0	0.003	Yes	3.282	-0.003	3.0	GoodResponse	0	0.22	108.685	3	10	Target	Neutral	True
109.685	0.3	Control	1.0	0.003	Yes	3.282	-0.003	3.0	GoodResponse	0	0.22	n/a	3	10	ButtonPress	Neutral	True
109.765	0.4	Control	1.0	n/a	Yes	3.282	n/a	n/a	GoodResponse	0	n/a	n/a	3	10	Blank	Neutral	True
110.167	1.45	Control	1.0	n/a	Yes	3.282	n/a	5.0	GoodResponse	0	0.005	109.172	3	10	Feedback	Neutral	True
111.621	3.282	Control	1.0	n/a	Yes	3.282	n/a	n/a	GoodResponse	0	0.0	n/a	3	10	ISIslide	Neutral	True
114.931	0.25	Lose2	1.0	0.0	Yes	2.719	0.031	n/a	GoodResponse	0	n/a	n/a	3	11	Cue	AvoidedLoss	True
115.182	4.05	Lose2	1.0	0.0	Yes	2.719	0.001	n/a	GoodResponse	0	n/a	n/a	3	11	Fixation	AvoidedLoss	True
119.227	0.29	Lose2	1.0	0.004	Yes	2.719	-0.004	1.0	GoodResponse	0	0.224	118.451	3	11	Target	AvoidedLoss	True
119.451	0.3	Lose2	1.0	0.004	Yes	2.719	-0.004	1.0	GoodResponse	0	0.224	n/a	3	11	ButtonPress	AvoidedLoss	True
119.528	0.41	Lose2	1.0	n/a	Yes	2.719	n/a	n/a	GoodResponse	0	n/a	n/a	3	11	Blank	AvoidedLoss	True
119.929	1.45	Lose2	1.0	n/a	Yes	2.719	n/a	5.0	GoodResponse	0	0.046	118.975	3	11	Feedback	AvoidedLoss	True
121.384	2.719	Lose2	1.0	n/a	Yes	2.719	n/a	n/a	GoodResponse	0	0.0	n/a	3	11	ISIslide	AvoidedLoss	True
124.125	0.25	Control	1.0	0.0	Yes	2.975	0.025	n/a	GoodResponse	0	n/a	n/a	3	12	Cue	Neutral	True
124.376	3.9	Control	1.0	0.0	Yes	2.975	0.001	n/a	GoodResponse	0	n/a	n/a	3	12	Fixation	Neutral	True
128.271	0.28	Control	1.0	0.004	Yes	2.975	-0.004	3.0	GoodResponse	0	0.219	127.49	3	12	Target	Neutral	True
128.49	0.3	Control	1.0	0.004	Yes	2.975	-0.004	3.0	GoodResponse	0	0.219	n/a	3	12	ButtonPress	Neutral	True
128.555	0.42	Control	1.0	n/a	Yes	2.975	n/a	n/a	GoodResponse	0	n/a	n/a	3	12	Blank	Neutral	True
128.973	1.45	Control	1.0	n/a	Yes	2.975	n/a	5.0	GoodResponse	0	0.026	127.999	3	12	Feedback	Neutral	True
130.427	2.975	Control	1.0	n/a	Yes	2.975	n/a	n/a	GoodResponse	0	0.0	n/a	3	12	ISIslide	Neutral	True
133.42	0.25	Control	1.0	0.0	Yes	2.78	0.02	n/a	GoodResponse	0	n/a	n/a	3	13	Cue	Neutral	True
133.67	4.0	Control	1.0	0.001	Yes	2.78	0.0	n/a	GoodResponse	0	n/a	n/a	3	13	Fixation	Neutral	True
137.666	0.27	Control	1.0	0.004	Yes	2.78	-0.004	3.0	GoodResponse	0	0.227	136.893	3	13	Target	Neutral	True
137.893	0.3	Control	1.0	0.004	Yes	2.78	-0.004	3.0	GoodResponse	0	0.227	n/a	3	13	ButtonPress	Neutral	True
137.95	0.43	Control	1.0	n/a	Yes	2.78	n/a	n/a	GoodResponse	0	n/a	n/a	3	13	Blank	Neutral	True
138.368	1.45	Control	1.0	n/a	Yes	2.78	n/a	5.0	GoodResponse	0	0.046	137.414	3	13	Feedback	Neutral	True
139.822	2.78	Control	1.0	n/a	Yes	2.78	n/a	n/a	GoodResponse	0	0.0	n/a	3	13	ISIslide	Neutral	True
142.631	0.25	Win2	1.0	0.0	Yes	2.669	0.031	n/a	GoodResponse	1	n/a	n/a	4	14	Cue	Win	True
142.881	4.1	Win2	1.0	0.001	Yes	2.669	0.0	n/a	GoodResponse	1	n/a	n/a	4	14	Fixation	Win	True
146.977	0.26	Win2	1.0	0.004	Yes	2.669	-0.004	4.0	GoodResponse	1	0.227	146.204	4	14	Target	Win	True
147.204	0.3	Win2	1.0	0.004	Yes	2.669	-0.004	4.0	GoodResponse	1	0.227	n/a	4	14	ButtonPress	Win	True
147.245	0.44	Win2	1.0	n/a	Yes	2.669	n/a	n/a	GoodResponse	1	n/a	n/a	4	14	Blank	Win	True
147.679	1.45	Win2	1.0	n/a	Yes	2.669	n/a	5.0	GoodResponse	1	0.007	146.686	4	14	Feedback	Win	True
149.134	2.669	Win2	1.0	n/a	Yes	2.669	n/a	n/a	GoodResponse	1	0.0	n/a	4	14	ISIslide	Win	True
151.825	0.25	Control	1.0	0.0	Yes	2.975	0.025	n/a	GoodResponse	0	n/a	n/a	4	15	Cue	Neutral	True
152.076	4.0	Control	1.0	0.0	Yes	2.975	0.001	n/a	GoodResponse	0	n/a	n/a	4	15	Fixation	Neutral	True
156.071	0.25	Control	1.0	0.004	Yes	2.975	-0.004	3.0	GoodResponse	0	0.199	155.27	4	15	Target	Neutral	True
156.27	0.3	Control	1.0	0.004	Yes	2.975	-0.004	3.0	GoodResponse	0	0.199	n/a	4	15	ButtonPress	Neutral	True
156.322	0.45	Control	1.0	n/a	Yes	2.975	n/a	n/a	GoodResponse	0	n/a	n/a	4	15	Blank	Neutral	True
156.773	1.45	Control	1.0	n/a	Yes	2.975	n/a	5.0	GoodResponse	0	0.031	155.804	4	15	Feedback	Neutral	True
158.228	2.975	Control	1.0	n/a	Yes	2.975	n/a	n/a	GoodResponse	0	0.0	n/a	4	15	ISIslide	Neutral	True
161.22	0.25	Win2	0.9412	0.0	No	2.88	0.02	n/a	NoResponse	0	n/a	n/a	4	16	Cue	MissedWin	False
161.471	4.0	Win2	0.9412	0.0	No	2.88	0.001	4.0	NoResponse	0	3.688	164.159	4	16	Fixation	MissedWin	False
165.159	0.3	Win2	0.9412	0.0	No	2.88	0.001	4.0	NoResponse	0	3.688	n/a	4	16	ButtonPress	MissedWin	False
165.466	0.24	Win2	0.9412	0.004	No	2.88	-0.004	4.0	NoResponse	0	0.269	164.735	4	16	Target	MissedWin	False
165.717	0.46	Win2	0.9412	n/a	No	2.88	n/a	n/a	NoResponse	0	n/a	n/a	4	16	Blank	MissedWin	False
165.735	0.3	Win2	0.9412	0.004	No	2.88	-0.004	4.0	NoResponse	0	0.269	n/a	4	16	ButtonPress	MissedWin	False
166.168	1.45	Win2	0.9412	n/a	No	2.88	n/a	5.0	NoResponse	0	0.007	165.175	4	16	Feedback	MissedWin	False
167.622	2.88	Win2	0.9412	n/a	No	2.88	n/a	n/a	NoResponse	0	0.0	n/a	4	16	ISIslide	MissedWin	False
170.531	0.25	Lose2	0.9444	0.0	Yes	2.719	0.031	n/a	GoodResponse	0	n/a	n/a	4	17	Cue	AvoidedLoss	True
170.782	3.95	Lose2	0.9444	0.0	Yes	2.719	0.001	n/a	GoodResponse	0	n/a	n/a	4	17	Fixation	AvoidedLoss	True
174.727	0.23	Lose2	0.9444	0.004	Yes	2.719	-0.004	1.0	GoodResponse	0	0.213	173.94	4	17	Target	AvoidedLoss	True
174.94	0.3	Lose2	0.9444	0.004	Yes	2.719	-0.004	1.0	GoodResponse	0	0.213	n/a	4	17	ButtonPress	AvoidedLoss	True
174.961	0.47	Lose2	0.9444	n/a	Yes	2.719	n/a	n/a	GoodResponse	0	n/a	n/a	4	17	Blank	AvoidedLoss	True
175.429	1.45	Lose2	0.9444	n/a	Yes	2.719	n/a	5.0	GoodResponse	0	0.009	174.438	4	17	Feedback	AvoidedLoss	True
176.883	2.719	Lose2	0.9444	n/a	Yes	2.719	n/a	n/a	GoodResponse	0	0.0	n/a	4	17	ISIslide	AvoidedLoss	True
179.625	0.25	Lose2	0.8946999999999999	0.0	No	2.725	0.025	n/a	LatePress	-1	n/a	n/a	3	18	Cue	Loss	True
179.876	4.05	Lose2	0.8946999999999999	0.0	No	2.725	0.001	n/a	LatePress	-1	n/a	n/a	3	18	Fixation	Loss	True
183.921	0.22	Lose2	0.8946999999999999	0.004	No	2.725	-0.004	1.0	LatePress	-1	0.221	183.142	3	18	Target	Loss	True
184.142	0.3	Lose2	0.8946999999999999	0.004	No	2.725	-0.004	1.0	LatePress	-1	0.221	n/a	3	18	ButtonPress	Loss	True
184.155	0.48	Lose2	0.8946999999999999	n/a	No	2.725	n/a	n/a	LatePress	-1	n/a	n/a	3	18	Blank	Loss	True
184.623	1.45	Lose2	0.8946999999999999	n/a	No	2.725	n/a	5.0	LatePress	-1	0.035	183.658	3	18	Feedback	Loss	True
186.078	2.725	Lose2	0.8946999999999999	n/a	No	2.725	n/a	n/a	LatePress	-1	0.0	n/a	3	18	ISIslide	Loss	True
188.819	0.25	Control	0.85	0.0	No	2.931	0.019	n/a	NoResponse	0	n/a	n/a	3	19	Cue	Neutral	True
189.07	3.95	Control	0.85	0.0	No	2.931	0.001	n/a	NoResponse	0	n/a	n/a	3	19	Fixation	Neutral	True
193.015	0.21	Control	0.85	0.004	No	2.931	-0.004	3.0	NoResponse	0	0.218	192.233	3	19	Target	Neutral	True
193.232	0.49	Control	0.85	n/a	No	2.931	n/a	n/a	NoResponse	0	n/a	n/a	3	19	Blank	Neutral	True
193.233	0.3	Control	0.85	0.004	No	2.931	-0.004	3.0	NoResponse	0	0.218	n/a	3	19	ButtonPress	Neutral	True
193.717	1.45	Control	0.85	n/a	No	2.931	n/a	5.0	NoResponse	0	0.014	192.731	3	19	Feedback	Neutral	True
195.172	2.931	Control	0.85	n/a	No	2.931	n/a	n/a	NoResponse	0	0.0	n/a	3	19	ISIslide	Neutral	True
198.131	0.25	Control	0.8095	0.0	No	2.619	0.031	n/a	NoResponse	0	n/a	n/a	3	20	Cue	Neutral	True
198.381	4.05	Control	0.8095	0.0	No	2.619	0.0	n/a	NoResponse	0	n/a	n/a	3	20	Fixation	Neutral	True
202.427	0.2	Control	0.8095	0.004	No	2.619	-0.004	3.0	NoResponse	0	0.473	201.9	3	20	Target	Neutral	True
202.627	0.5	Control	0.8095	n/a	No	2.619	n/a	n/a	NoResponse	0	n/a	n/a	3	20	Blank	Neutral	True
202.9	0.3	Control	0.8095	0.004	No	2.619	-0.004	3.0	NoResponse	0	0.473	n/a	3	20	ButtonPress	Neutral	True
203.129	1.45	Control	0.8095	n/a	No	2.619	n/a	5.0	NoResponse	0	0.017	202.146	3	20	Feedback	Neutral	True
204.583	2.619	Control	0.8095	n/a	No	2.619	n/a	n/a	NoResponse	0	0.0	n/a	3	20	ISIslide	Neutral	True
207.224	0.25	Control	0.7726999999999999	0.001	No	2.776	0.024	n/a	LatePress	0	n/a	n/a	3	21	Cue	Neutral	True
207.475	4.1	Control	0.7726999999999999	0.0	No	2.776	0.001	n/a	LatePress	0	n/a	n/a	3	21	Fixation	Neutral	True
211.571	0.19	Control	0.7726999999999999	0.003	No	2.776	-0.003	3.0	LatePress	0	0.198	210.769	3	21	Target	Neutral	True
211.769	0.3	Control	0.7726999999999999	0.003	No	2.776	-0.003	3.0	LatePress	0	0.198	n/a	3	21	ButtonPress	Neutral	True
211.771	0.51	Control	0.7726999999999999	n/a	No	2.776	n/a	n/a	LatePress	0	n/a	n/a	3	21	Blank	Neutral	True
212.273	1.45	Control	0.7726999999999999	n/a	No	2.776	n/a	5.0	LatePress	0	0.044	211.317	3	21	Feedback	Neutral	True
213.727	2.776	Control	0.7726999999999999	n/a	No	2.776	n/a	n/a	LatePress	0	0.0	n/a	3	21	ISIslide	Neutral	True
216.519	0.25	Control	0.7826000000000001	0.0	Yes	2.781	0.019	n/a	GoodResponse	0	n/a	n/a	3	22	Cue	Neutral	True
216.77	4.0	Control	0.7826000000000001	0.0	Yes	2.781	0.001	n/a	GoodResponse	0	n/a	n/a	3	22	Fixation	Neutral	True
220.765	0.18	Control	0.7826000000000001	0.004	Yes	2.781	-0.004	3.0	GoodResponse	0	0.162	219.927	3	22	Target	Neutral	True
220.927	0.3	Control	0.7826000000000001	0.004	Yes	2.781	-0.004	3.0	GoodResponse	0	0.162	n/a	3	22	ButtonPress	Neutral	True
220.949	0.52	Control	0.7826000000000001	n/a	Yes	2.781	n/a	n/a	GoodResponse	0	n/a	n/a	3	22	Blank	Neutral	True
221.467	1.45	Control	0.7826000000000001	n/a	Yes	2.781	n/a	5.0	GoodResponse	0	0.02	220.487	3	22	Feedback	Neutral	True
222.922	2.781	Control	0.7826000000000001	n/a	Yes	2.781	n/a	n/a	GoodResponse	0	0.0	n/a	3	22	ISIslide	Neutral	True
225.73	0.25	Control	0.75	0.0	No	2.77	0.03	n/a	NoResponse	0	n/a	n/a	3	23	Cue	Neutral	True
225.981	3.9	Control	0.75	0.0	No	2.77	0.001	n/a	NoResponse	0	n/a	n/a	3	23	Fixation	Neutral	True
229.876	0.17	Control	0.75	0.004	No	2.77	-0.004	3.0	NoResponse	0	0.193	229.069	3	23	Target	Neutral	True
230.06	0.53	Control	0.75	n/a	No	2.77	n/a	n/a	NoResponse	0	n/a	n/a	3	23	Blank	Neutral	True
230.069	0.3	Control	0.75	0.004	No	2.77	-0.004	3.0	NoResponse	0	0.193	n/a	3	23	ButtonPress	Neutral	True
230.578	1.45	Control	0.75	n/a	No	2.77	n/a	5.0	NoResponse	0	0.031	229.609	3	23	Feedback	Neutral	True
232.032	2.77	Control	0.75	n/a	No	2.77	n/a	n/a	NoResponse	0	0.0	n/a	3	23	ISIslide	Neutral	True
234.824	0.25	Win2	0.72	0.0	No	3.126	0.024	n/a	NoResponse	0	n/a	n/a	3	24	Cue	MissedWin	True
235.075	3.95	Win2	0.72	0.0	No	3.126	0.001	n/a	NoResponse	0	n/a	n/a	3	24	Fixation	MissedWin	True
239.02	0.16	Win2	0.72	0.004	No	3.126	-0.004	4.0	NoResponse	0	0.175	238.195	3	24	Target	MissedWin	True
239.187	0.54	Win2	0.72	n/a	No	3.126	n/a	n/a	NoResponse	0	n/a	n/a	3	24	Blank	MissedWin	True
239.195	0.3	Win2	0.72	0.004	No	3.126	-0.004	4.0	NoResponse	0	0.175	n/a	3	24	ButtonPress	MissedWin	True
239.722	1.45	Win2	0.72	n/a	No	3.126	n/a	5.0	NoResponse	0	0.009	238.731	3	24	Feedback	MissedWin	True
241.176	3.126	Win2	0.72	n/a	No	3.126	n/a	n/a	NoResponse	0	0.0	n/a	3	24	ISIslide	MissedWin	True
244.319	0.25	Win2	0.6923	0.0	No	3.081	0.019	n/a	NoResponse	0	n/a	n/a	3	25	Cue	MissedWin	True
244.57	4.0	Win2	0.6923	0.0	No	3.081	0.001	n/a	NoResponse	0	n/a	n/a	3	25	Fixation	MissedWin	True
248.565	0.15	Win2	0.6923	0.004	No	3.081	-0.004	4.0	NoResponse	0	0.19	247.755	3	25	Target	MissedWin	True
248.716	0.55	Win2	0.6923	n/a	No	3.081	n/a	n/a	NoResponse	0	n/a	n/a	3	25	Blank	MissedWin	True
248.755	0.3	Win2	0.6923	0.004	No	3.081	-0.004	4.0	NoResponse	0	0.19	n/a	3	25	ButtonPress	MissedWin	True
249.267	1.45	Win2	0.6923	n/a	No	3.081	n/a	5.0	NoResponse	0	0.025	248.292	3	25	Feedback	MissedWin	True
250.722	3.081	Win2	0.6923	n/a	No	3.081	n/a	n/a	NoResponse	0	0.0	n/a	3	25	ISIslide	MissedWin	True
253.831	0.25	Win2	0.6667000000000001	0.0	No	2.919	0.031	n/a	NoResponse	0	n/a	n/a	3	26	Cue	MissedWin	True
254.082	3.95	Win2	0.6667000000000001	0.0	No	2.919	0.001	4.0	NoResponse	0	3.943	257.025	3	26	Fixation	MissedWin	True
258.025	0.3	Win2	0.6667000000000001	0.0	No	2.919	0.001	4.0	NoResponse	0	3.943	n/a	3	26	ButtonPress	MissedWin	True
258.027	0.15	Win2	0.6667000000000001	0.004	No	2.919	-0.004	n/a	NoResponse	0	n/a	n/a	3	26	Target	MissedWin	True
258.177	0.55	Win2	0.6667000000000001	n/a	No	2.919	n/a	n/a	NoResponse	0	n/a	n/a	3	26	Blank	MissedWin	True
258.729	1.45	Win2	0.6667000000000001	n/a	No	2.919	n/a	5.0	NoResponse	0	0.026	257.755	3	26	Feedback	MissedWin	True
260.183	2.919	Win2	0.6667000000000001	n/a	No	2.919	n/a	n/a	NoResponse	0	0.0	n/a	3	26	ISIslide	MissedWin	True
263.126	0.25	Lose2	0.6429	0.0	No	2.824	0.026	n/a	NoResponse	-1	n/a	n/a	2	27	Cue	Loss	True
263.376	4.05	Lose2	0.6429	0.0	No	2.824	0.0	n/a	NoResponse	-1	n/a	n/a	2	27	Fixation	Loss	True
267.422	0.15	Lose2	0.6429	0.004	No	2.824	-0.004	1.0	NoResponse	-1	0.173	266.595	2	27	Target	Loss	True
267.572	0.55	Lose2	0.6429	n/a	No	2.824	n/a	n/a	NoResponse	-1	n/a	n/a	2	27	Blank	Loss	True
267.595	0.3	Lose2	0.6429	0.004	No	2.824	-0.004	1.0	NoResponse	-1	0.173	n/a	2	27	ButtonPress	Loss	True
268.124	1.45	Lose2	0.6429	n/a	No	2.824	n/a	5.0	NoResponse	-1	0.046	267.17	2	27	Feedback	Loss	True
269.578	2.824	Lose2	0.6429	n/a	No	2.824	n/a	n/a	NoResponse	-1	0.0	n/a	2	27	ISIslide	Loss	True
272.42	0.25	Control	0.6207	0.0	No	2.83	0.02	n/a	NoResponse	0	n/a	n/a	2	28	Cue	Neutral	True
272.671	4.05	Control	0.6207	0.0	No	2.83	0.001	n/a	NoResponse	0	n/a	n/a	2	28	Fixation	Neutral	True
276.716	0.16	Control	0.6207	0.004	No	2.83	-0.004	3.0	NoResponse	0	0.18	275.896	2	28	Target	Neutral	True
276.883	0.54	Control	0.6207	n/a	No	2.83	n/a	n/a	NoResponse	0	n/a	n/a	2	28	Blank	Neutral	True
276.896	0.3	Control	0.6207	0.004	No	2.83	-0.004	3.0	NoResponse	0	0.18	n/a	2	28	ButtonPress	Neutral	True
277.418	1.45	Control	0.6207	n/a	No	2.83	n/a	5.0	NoResponse	0	0.02	276.438	2	28	Feedback	Neutral	True
278.873	2.83	Control	0.6207	n/a	No	2.83	n/a	n/a	NoResponse	0	0.0	n/a	2	28	ISIslide	Neutral	True
281.731	0.25	Lose2	0.6	0.0	No	2.819	0.031	n/a	NoResponse	-1	n/a	n/a	1	29	Cue	Loss	True
281.982	3.95	Lose2	0.6	0.0	No	2.819	0.001	n/a	NoResponse	-1	n/a	n/a	1	29	Fixation	Loss	True
285.927	0.17	Lose2	0.6	0.004	No	2.819	-0.004	1.0	NoResponse	-1	0.193	285.12	1	29	Target	Loss	True
286.111	0.53	Lose2	0.6	n/a	No	2.819	n/a	n/a	NoResponse	-1	n/a	n/a	1	29	Blank	Loss	True
286.12	0.3	Lose2	0.6	0.004	No	2.819	-0.004	1.0	NoResponse	-1	0.193	n/a	1	29	ButtonPress	Loss	True
286.629	1.45	Lose2	0.6	n/a	No	2.819	n/a	5.0	NoResponse	-1	0.029	285.658	1	29	Feedback	Loss	True
288.084	2.819	Lose2	0.6	n/a	No	2.819	n/a	n/a	NoResponse	-1	0.0	n/a	1	29	ISIslide	Loss	True
290.926	0.25	Win2	0.5806	0.0	No	2.774	0.026	n/a	NoResponse	0	n/a	n/a	1	30	Cue	MissedWin	True
291.176	3.9	Win2	0.5806	0.0	No	2.774	0.0	n/a	NoResponse	0	n/a	n/a	1	30	Fixation	MissedWin	True
295.088	0.18	Win2	0.5806	0.0	No	2.774	0.012	4.0	NoResponse	0	0.182	294.27	1	30	Target	MissedWin	True
295.255	0.52	Win2	0.5806	n/a	No	2.774	n/a	n/a	NoResponse	0	n/a	n/a	1	30	Blank	MissedWin	True
295.27	0.3	Win2	0.5806	0.0	No	2.774	0.012	4.0	NoResponse	0	0.182	n/a	1	30	ButtonPress	MissedWin	True
295.773	1.45	Win2	0.5806	n/a	No	2.774	n/a	5.0	NoResponse	0	0.008	294.781	1	30	Feedback	MissedWin	True
297.228	2.774	Win2	0.5806	n/a	No	2.774	n/a	n/a	NoResponse	0	0.0	n/a	1	30	ISIslide	MissedWin	True
300.02	0.25	Lose2	0.5938	0.0	Yes	2.83	0.02	n/a	GoodResponse	0	n/a	n/a	1	31	Cue	AvoidedLoss	True
300.27	4.05	Lose2	0.5938	0.0	Yes	2.83	0.0	n/a	GoodResponse	0	n/a	n/a	1	31	Fixation	AvoidedLoss	True
304.316	0.19	Lose2	0.5938	0.004	Yes	2.83	-0.004	1.0	GoodResponse	0	0.173	303.489	1	31	Target	AvoidedLoss	True
304.489	0.3	Lose2	0.5938	0.004	Yes	2.83	-0.004	1.0	GoodResponse	0	0.173	n/a	1	31	ButtonPress	AvoidedLoss	True
304.516	0.51	Lose2	0.5938	n/a	Yes	2.83	n/a	n/a	GoodResponse	0	n/a	n/a	1	31	Blank	AvoidedLoss	True
305.018	1.45	Lose2	0.5938	n/a	Yes	2.83	n/a	5.0	GoodResponse	0	0.031	304.049	1	31	Feedback	AvoidedLoss	True
306.472	2.83	Lose2	0.5938	n/a	Yes	2.83	n/a	n/a	GoodResponse	0	0.0	n/a	1	31	ISIslide	AvoidedLoss	True
309.331	0.25	Lose2	0.6061	0.0	Yes	2.619	0.031	n/a	GoodResponse	0	n/a	n/a	1	32	Cue	AvoidedLoss	True
309.582	4.15	Lose2	0.6061	0.0	Yes	2.619	0.001	n/a	GoodResponse	0	n/a	n/a	1	32	Fixation	AvoidedLoss	True
313.727	0.2	Lose2	0.6061	0.004	Yes	2.619	-0.004	1.0	GoodResponse	0	0.181	312.908	1	32	Target	AvoidedLoss	True
313.908	0.3	Lose2	0.6061	0.004	Yes	2.619	-0.004	1.0	GoodResponse	0	0.181	n/a	1	32	ButtonPress	AvoidedLoss	True
313.928	0.5	Lose2	0.6061	n/a	Yes	2.619	n/a	n/a	GoodResponse	0	n/a	n/a	1	32	Blank	AvoidedLoss	True
314.429	1.45	Lose2	0.6061	n/a	Yes	2.619	n/a	5.0	GoodResponse	0	0.033	313.462	1	32	Feedback	AvoidedLoss	True
315.884	2.619	Lose2	0.6061	n/a	Yes	2.619	n/a	n/a	GoodResponse	0	0.0	n/a	1	32	ISIslide	AvoidedLoss	True
318.525	0.25	Win2	0.6175999999999999	0.0	Yes	2.675	0.025	n/a	GoodResponse	1	n/a	n/a	2	33	Cue	Win	True
318.776	4.0	Win2	0.6175999999999999	0.0	Yes	2.675	0.001	n/a	GoodResponse	1	n/a	n/a	2	33	Fixation	Win	True
322.771	0.21	Win2	0.6175999999999999	0.004	Yes	2.675	-0.004	4.0	GoodResponse	1	0.188	321.959	2	33	Target	Win	True
322.959	0.3	Win2	0.6175999999999999	0.004	Yes	2.675	-0.004	4.0	GoodResponse	1	0.188	n/a	2	33	ButtonPress	Win	True
322.988	0.49	Win2	0.6175999999999999	n/a	Yes	2.675	n/a	n/a	GoodResponse	1	n/a	n/a	2	33	Blank	Win	True
323.473	1.45	Win2	0.6175999999999999	n/a	Yes	2.675	n/a	5.0	GoodResponse	1	0.014	322.487	2	33	Feedback	Win	True
324.928	2.675	Win2	0.6175999999999999	n/a	Yes	2.675	n/a	n/a	GoodResponse	1	0.0	n/a	2	33	ISIslide	Win	True
327.619	0.25	Lose2	0.6286	0.0	Yes	2.631	0.019	n/a	GoodResponse	0	n/a	n/a	2	34	Cue	AvoidedLoss	True
327.87	4.05	Lose2	0.6286	0.0	Yes	2.631	0.001	n/a	GoodResponse	0	n/a	n/a	2	34	Fixation	AvoidedLoss	True
331.915	0.22	Lose2	0.6286	0.004	Yes	2.631	-0.004	1.0	GoodResponse	0	0.209	331.124	2	34	Target	AvoidedLoss	True
332.124	0.3	Lose2	0.6286	0.004	Yes	2.631	-0.004	1.0	GoodResponse	0	0.209	n/a	2	34	ButtonPress	AvoidedLoss	True
332.149	0.48	Lose2	0.6286	n/a	Yes	2.631	n/a	n/a	GoodResponse	0	n/a	n/a	2	34	Blank	AvoidedLoss	True
332.617	1.45	Lose2	0.6286	n/a	Yes	2.631	n/a	5.0	GoodResponse	0	0.041	331.658	2	34	Feedback	AvoidedLoss	True
334.072	2.631	Lose2	0.6286	n/a	Yes	2.631	n/a	n/a	GoodResponse	0	0.0	n/a	2	34	ISIslide	AvoidedLoss	True
336.73	0.25	Lose2	0.6389	0.0	Yes	2.67	0.03	n/a	GoodResponse	0	n/a	n/a	2	35	Cue	AvoidedLoss	True
336.98	4.0	Lose2	0.6389	0.0	Yes	2.67	0.0	n/a	GoodResponse	0	n/a	n/a	2	35	Fixation	AvoidedLoss	True
340.976	0.23	Lose2	0.6389	0.004	Yes	2.67	-0.004	1.0	GoodResponse	0	0.193	340.169	2	35	Target	AvoidedLoss	True
341.169	0.3	Lose2	0.6389	0.004	Yes	2.67	-0.004	1.0	GoodResponse	0	0.193	n/a	2	35	ButtonPress	AvoidedLoss	True
341.21	0.47	Lose2	0.6389	n/a	Yes	2.67	n/a	n/a	GoodResponse	0	n/a	n/a	2	35	Blank	AvoidedLoss	True
341.678	1.45	Lose2	0.6389	n/a	Yes	2.67	n/a	5.0	GoodResponse	0	0.007	340.685	2	35	Feedback	AvoidedLoss	True
343.132	2.67	Lose2	0.6389	n/a	Yes	2.67	n/a	n/a	GoodResponse	0	0.0	n/a	2	35	ISIslide	AvoidedLoss	True
345.824	0.25	Control	0.6486	0.0	Yes	2.676	0.024	n/a	GoodResponse	0	n/a	n/a	2	36	Cue	Neutral	True
346.074	4.0	Control	0.6486	0.0	Yes	2.676	0.0	n/a	GoodResponse	0	n/a	n/a	2	36	Fixation	Neutral	True
350.07	0.24	Control	0.6486	0.004	Yes	2.676	-0.004	3.0	GoodResponse	0	0.178	349.248	2	36	Target	Neutral	True
350.248	0.3	Control	0.6486	0.004	Yes	2.676	-0.004	3.0	GoodResponse	0	0.178	n/a	2	36	ButtonPress	Neutral	True
350.32	0.46	Control	0.6486	n/a	Yes	2.676	n/a	n/a	GoodResponse	0	n/a	n/a	2	36	Blank	Neutral	True
350.772	1.45	Control	0.6486	n/a	Yes	2.676	n/a	5.0	GoodResponse	0	0.032	349.804	2	36	Feedback	Neutral	True
352.226	2.676	Control	0.6486	n/a	Yes	2.676	n/a	n/a	GoodResponse	0	0.0	n/a	2	36	ISIslide	Neutral	True
354.918	0.25	Win2	0.6315999999999999	0.0	No	2.882	0.018	n/a	PrematurePress	0	n/a	n/a	2	37	Cue	MissedWin	True
355.168	4.0	Win2	0.6315999999999999	0.0	No	2.882	0.0	n/a	PrematurePress	0	n/a	n/a	2	37	Fixation	MissedWin	True
359.164	0.25	Win2	0.6315999999999999	0.004	No	2.882	-0.004	4.0	PrematurePress	0	0.068	358.232	2	37	Target	MissedWin	True
359.232	0.3	Win2	0.6315999999999999	0.004	No	2.882	-0.004	4.0	PrematurePress	0	0.068	n/a	2	37	ButtonPress	MissedWin	True
359.414	0.45	Win2	0.6315999999999999	n/a	No	2.882	n/a	n/a	PrematurePress	0	n/a	n/a	2	37	Blank	MissedWin	True
359.866	1.45	Win2	0.6315999999999999	n/a	No	2.882	n/a	5.0	PrematurePress	0	0.012	358.878	2	37	Feedback	MissedWin	True
361.32	2.882	Win2	0.6315999999999999	n/a	No	2.882	n/a	n/a	PrematurePress	0	0.0	n/a	2	37	ISIslide	MissedWin	True
364.229	0.25	Lose2	0.6409999999999999	0.0	Yes	2.821	0.029	n/a	GoodResponse	0	n/a	n/a	2	38	Cue	AvoidedLoss	True
364.48	3.95	Lose2	0.6409999999999999	0.0	Yes	2.821	0.001	n/a	GoodResponse	0	n/a	n/a	2	38	Fixation	AvoidedLoss	True
368.425	0.26	Lose2	0.6409999999999999	0.004	Yes	2.821	-0.004	1.0	GoodResponse	0	0.203	367.628	2	38	Target	AvoidedLoss	True
368.628	0.3	Lose2	0.6409999999999999	0.004	Yes	2.821	-0.004	1.0	GoodResponse	0	0.203	n/a	2	38	ButtonPress	AvoidedLoss	True
368.692	0.44	Lose2	0.6409999999999999	n/a	Yes	2.821	n/a	n/a	GoodResponse	0	n/a	n/a	2	38	Blank	AvoidedLoss	True
369.127	1.45	Lose2	0.6409999999999999	n/a	Yes	2.821	n/a	5.0	GoodResponse	0	0.019	368.146	2	38	Feedback	AvoidedLoss	True
370.581	2.821	Lose2	0.6409999999999999	n/a	Yes	2.821	n/a	n/a	GoodResponse	0	0.0	n/a	2	38	ISIslide	AvoidedLoss	True
373.423	0.25	Win2	0.65	0.0	Yes	2.977	0.023	n/a	GoodResponse	1	n/a	n/a	3	39	Cue	Win	True
373.674	4.1	Win2	0.65	0.0	Yes	2.977	0.001	n/a	GoodResponse	1	n/a	n/a	3	39	Fixation	Win	True
377.769	0.27	Win2	0.65	0.004	Yes	2.977	-0.004	4.0	GoodResponse	1	0.204	376.973	3	39	Target	Win	True
377.973	0.3	Win2	0.65	0.004	Yes	2.977	-0.004	4.0	GoodResponse	1	0.204	n/a	3	39	ButtonPress	Win	True
378.054	0.43	Win2	0.65	n/a	Yes	2.977	n/a	n/a	GoodResponse	1	n/a	n/a	3	39	Blank	Win	True
378.472	1.45	Win2	0.65	n/a	Yes	2.977	n/a	5.0	GoodResponse	1	0.04	377.512	3	39	Feedback	Win	True
379.926	2.977	Win2	0.65	n/a	Yes	2.977	n/a	n/a	GoodResponse	1	0.0	n/a	3	39	ISIslide	Win	True
382.918	0.25	Win2	0.6585	0.0	Yes	2.732	0.018	n/a	GoodResponse	1	n/a	n/a	4	40	Cue	Win	True
383.169	3.95	Win2	0.6585	0.0	Yes	2.732	0.001	n/a	GoodResponse	1	n/a	n/a	4	40	Fixation	Win	True
387.114	0.28	Win2	0.6585	0.004	Yes	2.732	-0.004	4.0	GoodResponse	1	0.208	386.322	4	40	Target	Win	True
387.322	0.3	Win2	0.6585	0.004	Yes	2.732	-0.004	4.0	GoodResponse	1	0.208	n/a	4	40	ButtonPress	Win	True
387.398	0.42	Win2	0.6585	n/a	Yes	2.732	n/a	n/a	GoodResponse	1	n/a	n/a	4	40	Blank	Win	True
387.816	1.45	Win2	0.6585	n/a	Yes	2.732	n/a	5.0	GoodResponse	1	0.012	386.828	4	40	Feedback	Win	True
389.271	2.732	Win2	0.6585	n/a	Yes	2.732	n/a	n/a	GoodResponse	1	0.0	n/a	4	40	ISIslide	Win	True
392.029	0.25	Win2	0.6667000000000001	0.0	Yes	2.771	0.029	n/a	GoodResponse	1	n/a	n/a	5	41	Cue	Win	True
392.28	3.9	Win2	0.6667000000000001	0.0	Yes	2.771	0.001	n/a	GoodResponse	1	n/a	n/a	5	41	Fixation	Win	True
396.175	0.28	Win2	0.6667000000000001	0.004	Yes	2.771	-0.004	4.0	GoodResponse	1	0.202	395.377	5	41	Target	Win	True
396.377	0.3	Win2	0.6667000000000001	0.004	Yes	2.771	-0.004	4.0	GoodResponse	1	0.202	n/a	5	41	ButtonPress	Win	True
396.459	0.42	Win2	0.6667000000000001	n/a	Yes	2.771	n/a	n/a	GoodResponse	1	n/a	n/a	5	41	Blank	Win	True
396.877	1.45	Win2	0.6667000000000001	n/a	Yes	2.771	n/a	5.0	GoodResponse	1	0.024	395.901	5	41	Feedback	Win	True
398.331	2.771	Win2	0.6667000000000001	n/a	Yes	2.771	n/a	n/a	GoodResponse	1	0.0	n/a	5	41	ISIslide	Win	True
401.123	0.25	Control	0.6744	0.0	Yes	2.927	0.023	n/a	GoodResponse	0	n/a	n/a	5	42	Cue	Neutral	True
401.374	3.85	Control	0.6744	0.0	Yes	2.927	0.001	n/a	GoodResponse	0	n/a	n/a	5	42	Fixation	Neutral	True
405.235	0.27	Control	0.6744	0.0	Yes	2.927	0.012	3.0	GoodResponse	0	0.22	404.455	5	42	Target	Neutral	True
405.455	0.3	Control	0.6744	0.0	Yes	2.927	0.012	3.0	GoodResponse	0	0.22	n/a	5	42	ButtonPress	Neutral	True
405.503	0.43	Control	0.6744	n/a	Yes	2.927	n/a	n/a	GoodResponse	0	n/a	n/a	5	42	Blank	Neutral	True
405.921	1.45	Control	0.6744	n/a	Yes	2.927	n/a	5.0	GoodResponse	0	0.006	404.927	5	42	Feedback	Neutral	True
407.375	2.927	Control	0.6744	n/a	Yes	2.927	n/a	n/a	GoodResponse	0	0.0	n/a	5	42	ISIslide	Neutral	True
410.317	0.25	Win2	0.6818000000000001	0.0	Yes	3.183	0.017	n/a	GoodResponse	1	n/a	n/a	6	43	Cue	Win	True
410.568	4.0	Win2	0.6818000000000001	0.0	Yes	3.183	0.001	n/a	GoodResponse	1	n/a	n/a	6	43	Fixation	Win	True
414.563	0.26	Win2	0.6818000000000001	0.004	Yes	3.183	-0.004	4.0	GoodResponse	1	0.187	413.75	6	43	Target	Win	True
414.75	0.3	Win2	0.6818000000000001	0.004	Yes	3.183	-0.004	4.0	GoodResponse	1	0.187	n/a	6	43	ButtonPress	Win	True
414.831	0.44	Win2	0.6818000000000001	n/a	Yes	3.183	n/a	n/a	GoodResponse	1	n/a	n/a	6	43	Blank	Win	True
415.265	1.45	Win2	0.6818000000000001	n/a	Yes	3.183	n/a	5.0	GoodResponse	1	0.027	414.292	6	43	Feedback	Win	True
416.72	3.183	Win2	0.6818000000000001	n/a	Yes	3.183	n/a	n/a	GoodResponse	1	0.0	n/a	6	43	ISIslide	Win	True
419.929	0.25	Win2	0.6889	0.0	Yes	2.971	0.029	n/a	GoodResponse	1	n/a	n/a	7	44	Cue	Win	True
420.18	4.0	Win2	0.6889	0.0	Yes	2.971	0.001	n/a	GoodResponse	1	n/a	n/a	7	44	Fixation	Win	True
424.175	0.25	Win2	0.6889	0.004	Yes	2.971	-0.004	4.0	GoodResponse	1	0.187	423.362	7	44	Target	Win	True
424.362	0.3	Win2	0.6889	0.004	Yes	2.971	-0.004	4.0	GoodResponse	1	0.187	n/a	7	44	ButtonPress	Win	True
424.426	0.45	Win2	0.6889	n/a	Yes	2.971	n/a	n/a	GoodResponse	1	n/a	n/a	7	44	Blank	Win	True
424.877	1.45	Win2	0.6889	n/a	Yes	2.971	n/a	5.0	GoodResponse	1	0.025	423.902	7	44	Feedback	Win	True
426.332	2.971	Win2	0.6889	n/a	Yes	2.971	n/a	n/a	GoodResponse	1	0.0	n/a	7	44	ISIslide	Win	True
429.324	0.25	Control	0.6957	0.0	Yes	2.876	0.024	n/a	GoodResponse	0	n/a	n/a	7	45	Cue	Neutral	True
429.575	4.1	Control	0.6957	0.0	Yes	2.876	0.001	n/a	GoodResponse	0	n/a	n/a	7	45	Fixation	Neutral	True
433.67	0.24	Control	0.6957	0.004	Yes	2.876	-0.004	3.0	GoodResponse	0	0.22	432.89	7	45	Target	Neutral	True
433.89	0.3	Control	0.6957	0.004	Yes	2.876	-0.004	3.0	GoodResponse	0	0.22	n/a	7	45	ButtonPress	Neutral	True
433.921	0.46	Control	0.6957	n/a	Yes	2.876	n/a	n/a	GoodResponse	0	n/a	n/a	7	45	Blank	Neutral	True
434.373	1.45	Control	0.6957	n/a	Yes	2.876	n/a	5.0	GoodResponse	0	0.041	433.414	7	45	Feedback	Neutral	True
435.827	2.876	Control	0.6957	n/a	Yes	2.876	n/a	n/a	GoodResponse	0	0.0	n/a	7	45	ISIslide	Neutral	True
438.719	0.25	Lose2	0.7021	0.0	Yes	3.381	0.019	n/a	GoodResponse	0	n/a	n/a	7	46	Cue	AvoidedLoss	True
438.97	4.0	Lose2	0.7021	0.0	Yes	3.381	0.001	n/a	GoodResponse	0	n/a	n/a	7	46	Fixation	AvoidedLoss	True
442.965	0.23	Lose2	0.7021	0.004	Yes	3.381	-0.004	1.0	GoodResponse	0	0.183	442.148	7	46	Target	AvoidedLoss	True
443.148	0.3	Lose2	0.7021	0.004	Yes	3.381	-0.004	1.0	GoodResponse	0	0.183	n/a	7	46	ButtonPress	AvoidedLoss	True
443.199	0.47	Lose2	0.7021	n/a	Yes	3.381	n/a	n/a	GoodResponse	0	n/a	n/a	7	46	Blank	AvoidedLoss	True
443.667	1.45	Lose2	0.7021	n/a	Yes	3.381	n/a	5.0	GoodResponse	0	0.015	442.682	7	46	Feedback	AvoidedLoss	True
445.121	3.381	Lose2	0.7021	n/a	Yes	3.381	n/a	n/a	GoodResponse	0	0.0	n/a	7	46	ISIslide	AvoidedLoss	True
448.532	0.25	Lose2	0.6875	0.0	No	2.668	0.032	n/a	LatePress	-1	n/a	n/a	6	47	Cue	Loss	True
448.782	4.0	Lose2	0.6875	0.001	No	2.668	0.0	n/a	LatePress	-1	n/a	n/a	6	47	Fixation	Loss	True
452.778	0.22	Lose2	0.6875	0.004	No	2.668	-0.004	1.0	LatePress	-1	0.221	451.999	6	47	Target	Loss	True
452.999	0.3	Lose2	0.6875	0.004	No	2.668	-0.004	1.0	LatePress	-1	0.221	n/a	6	47	ButtonPress	Loss	True
453.012	0.48	Lose2	0.6875	n/a	No	2.668	n/a	n/a	LatePress	-1	n/a	n/a	6	47	Blank	Loss	True
453.48	1.45	Lose2	0.6875	n/a	No	2.668	n/a	5.0	LatePress	-1	0.007	452.487	6	47	Feedback	Loss	True
454.934	2.668	Lose2	0.6875	n/a	No	2.668	n/a	n/a	LatePress	-1	0.0	n/a	6	47	ISIslide	Loss	True
457.626	0.25	Lose2	0.6939	0.0	Yes	3.024	0.026	n/a	GoodResponse	0	n/a	n/a	6	48	Cue	AvoidedLoss	True
457.876	3.95	Lose2	0.6939	0.0	Yes	3.024	0.0	n/a	GoodResponse	0	n/a	n/a	6	48	Fixation	AvoidedLoss	True
461.822	0.21	Lose2	0.6939	0.004	Yes	3.024	-0.004	1.0	GoodResponse	0	0.196	461.018	6	48	Target	AvoidedLoss	True
462.018	0.3	Lose2	0.6939	0.004	Yes	3.024	-0.004	1.0	GoodResponse	0	0.196	n/a	6	48	ButtonPress	AvoidedLoss	True
462.039	0.49	Lose2	0.6939	n/a	Yes	3.024	n/a	n/a	GoodResponse	0	n/a	n/a	6	48	Blank	AvoidedLoss	True
462.524	1.45	Lose2	0.6939	n/a	Yes	3.024	n/a	5.0	GoodResponse	0	0.036	461.56	6	48	Feedback	AvoidedLoss	True
463.978	3.024	Lose2	0.6939	n/a	Yes	3.024	n/a	n/a	GoodResponse	0	0.0	n/a	6	48	ISIslide	AvoidedLoss	True
467.02	0.25	Control	0.7	0.001	Yes	2.88	0.02	n/a	GoodResponse	0	n/a	n/a	6	49	Cue	Neutral	True
467.271	4.0	Control	0.7	0.0	Yes	2.88	0.001	n/a	GoodResponse	0	n/a	n/a	6	49	Fixation	Neutral	True
471.267	0.2	Control	0.7	0.003	Yes	2.88	-0.003	3.0	GoodResponse	0	0.196	470.463	6	49	Target	Neutral	True
471.463	0.3	Control	0.7	0.003	Yes	2.88	-0.003	3.0	GoodResponse	0	0.196	n/a	6	49	ButtonPress	Neutral	True
471.467	0.5	Control	0.7	n/a	Yes	2.88	n/a	n/a	GoodResponse	0	n/a	n/a	6	49	Blank	Neutral	True
471.969	1.45	Control	0.7	n/a	Yes	2.88	n/a	5.0	GoodResponse	0	0.006	470.975	6	49	Feedback	Neutral	True
473.423	2.88	Control	0.7	n/a	Yes	2.88	n/a	n/a	GoodResponse	0	0.0	n/a	6	49	ISIslide	Neutral	True
476.315	0.25	Control	0.7059000000000001	0.0	Yes	2.785	0.015	n/a	GoodResponse	0	n/a	n/a	6	50	Cue	Neutral	True
476.566	4.0	Control	0.7059000000000001	0.0	Yes	2.785	0.001	n/a	GoodResponse	0	n/a	n/a	6	50	Fixation	Neutral	True
480.561	0.19	Control	0.7059000000000001	0.004	Yes	2.785	-0.004	3.0	GoodResponse	0	0.17	479.731	6	50	Target	Neutral	True
480.731	0.3	Control	0.7059000000000001	0.004	Yes	2.785	-0.004	3.0	GoodResponse	0	0.17	n/a	6	50	ButtonPress	Neutral	True
480.762	0.51	Control	0.7059000000000001	n/a	Yes	2.785	n/a	n/a	GoodResponse	0	n/a	n/a	6	50	Blank	Neutral	True
481.263	1.45	Control	0.7059000000000001	n/a	Yes	2.785	n/a	5.0	GoodResponse	0	0.029	480.292	6	50	Feedback	Neutral	True
482.718	2.785	Control	0.7059000000000001	n/a	Yes	2.785	n/a	n/a	GoodResponse	0	0.0	n/a	6	50	ISIslide	Neutral	True
485.526	0.25	Control	0.6923	0.0	No	2.724	0.026	n/a	NoResponse	0	n/a	n/a	6	51	Cue	Neutral	True
485.777	3.95	Control	0.6923	0.0	No	2.724	0.001	n/a	NoResponse	0	n/a	n/a	6	51	Fixation	Neutral	True
489.722	0.18	Control	0.6923	0.004	No	2.724	-0.004	3.0	NoResponse	0	0.216	488.938	6	51	Target	Neutral	True
489.906	0.52	Control	0.6923	n/a	No	2.724	n/a	n/a	NoResponse	0	n/a	n/a	6	51	Blank	Neutral	True
489.938	0.3	Control	0.6923	0.004	No	2.724	-0.004	3.0	NoResponse	0	0.216	n/a	6	51	ButtonPress	Neutral	True
490.424	1.45	Control	0.6923	n/a	No	2.724	n/a	5.0	NoResponse	0	0.039	489.463	6	51	Feedback	Neutral	True
491.878	2.724	Control	0.6923	n/a	No	2.724	n/a	n/a	NoResponse	0	0.0	n/a	6	51	ISIslide	Neutral	True
494.62	0.25	Control	0.6792	0.0	No	2.63	0.02	n/a	LatePress	0	n/a	n/a	6	52	Cue	Neutral	True
494.871	4.05	Control	0.6792	0.0	No	2.63	0.001	n/a	LatePress	0	n/a	n/a	6	52	Fixation	Neutral	True
498.916	0.17	Control	0.6792	0.004	No	2.63	-0.004	3.0	LatePress	0	0.17	498.086	6	52	Target	Neutral	True
499.086	0.3	Control	0.6792	0.004	No	2.63	-0.004	3.0	LatePress	0	0.17	n/a	6	52	ButtonPress	Neutral	True
499.1	0.53	Control	0.6792	n/a	No	2.63	n/a	n/a	LatePress	0	n/a	n/a	6	52	Blank	Neutral	True
499.618	1.45	Control	0.6792	n/a	No	2.63	n/a	5.0	LatePress	0	0.015	498.633	6	52	Feedback	Neutral	True
501.073	2.63	Control	0.6792	n/a	No	2.63	n/a	n/a	LatePress	0	0.0	n/a	6	52	ISIslide	Neutral	True
503.731	0.25	Win2	0.6667000000000001	0.0	No	2.919	0.031	n/a	NoResponse	0	n/a	n/a	6	53	Cue	MissedWin	True
503.981	4.05	Win2	0.6667000000000001	0.0	No	2.919	0.0	n/a	NoResponse	0	n/a	n/a	6	53	Fixation	MissedWin	True
508.027	0.16	Win2	0.6667000000000001	0.004	No	2.919	-0.004	4.0	NoResponse	0	0.179	507.206	6	53	Target	MissedWin	True
508.194	0.54	Win2	0.6667000000000001	n/a	No	2.919	n/a	n/a	NoResponse	0	n/a	n/a	6	53	Blank	MissedWin	True
508.206	0.3	Win2	0.6667000000000001	0.004	No	2.919	-0.004	4.0	NoResponse	0	0.179	n/a	6	53	ButtonPress	MissedWin	True
508.729	1.45	Win2	0.6667000000000001	n/a	No	2.919	n/a	5.0	NoResponse	0	0.026	507.755	6	53	Feedback	MissedWin	True
510.183	2.919	Win2	0.6667000000000001	n/a	No	2.919	n/a	n/a	NoResponse	0	0.0	n/a	6	53	ISIslide	MissedWin	True
513.125	0.25	Win2	0.6545000000000001	0.001	No	2.725	0.025	n/a	NoResponse	0	n/a	n/a	6	54	Cue	MissedWin	True
513.376	3.95	Win2	0.6545000000000001	0.0	No	2.725	0.001	n/a	NoResponse	0	n/a	n/a	6	54	Fixation	MissedWin	True
517.321	0.15	Win2	0.6545000000000001	0.004	No	2.725	-0.004	4.0	NoResponse	0	0.176	516.497	6	54	Target	MissedWin	True
517.472	0.55	Win2	0.6545000000000001	n/a	No	2.725	n/a	n/a	NoResponse	0	n/a	n/a	6	54	Blank	MissedWin	True
517.497	0.3	Win2	0.6545000000000001	0.004	No	2.725	-0.004	4.0	NoResponse	0	0.176	n/a	6	54	ButtonPress	MissedWin	True
518.023	1.45	Win2	0.6545000000000001	n/a	No	2.725	n/a	5.0	NoResponse	0	0.001	517.024	6	54	Feedback	MissedWin	True
519.478	2.725	Win2	0.6545000000000001	n/a	No	2.725	n/a	n/a	NoResponse	0	0.0	n/a	6	54	ISIslide	MissedWin	True
522.219	0.25	Control	0.6429	0.001	No	3.031	0.019	n/a	NoResponse	0	n/a	n/a	6	55	Cue	Neutral	True
522.47	3.95	Control	0.6429	0.0	No	3.031	0.001	n/a	NoResponse	0	n/a	n/a	6	55	Fixation	Neutral	True
526.415	0.16	Control	0.6429	0.004	No	3.031	-0.004	3.0	NoResponse	0	0.182	525.597	6	55	Target	Neutral	True
526.582	0.54	Control	0.6429	n/a	No	3.031	n/a	n/a	NoResponse	0	n/a	n/a	6	55	Blank	Neutral	True
526.597	0.3	Control	0.6429	0.004	No	3.031	-0.004	3.0	NoResponse	0	0.182	n/a	6	55	ButtonPress	Neutral	True
527.117	1.45	Control	0.6429	n/a	No	3.031	n/a	5.0	NoResponse	0	0.029	526.146	6	55	Feedback	Neutral	True
528.572	3.031	Control	0.6429	n/a	No	3.031	n/a	n/a	NoResponse	0	0.0	n/a	6	55	ISIslide	Neutral	True
531.614	0.25	Control	0.6491	0.0	Yes	2.836	0.014	n/a	GoodResponse	0	n/a	n/a	6	56	Cue	Neutral	True
531.865	3.95	Control	0.6491	0.0	Yes	2.836	0.001	n/a	GoodResponse	0	n/a	n/a	6	56	Fixation	Neutral	True
535.81	0.17	Control	0.6491	0.004	Yes	2.836	-0.004	3.0	GoodResponse	0	0.166	534.976	6	56	Target	Neutral	True
535.976	0.3	Control	0.6491	0.004	Yes	2.836	-0.004	3.0	GoodResponse	0	0.166	n/a	6	56	ButtonPress	Neutral	True
535.994	0.53	Control	0.6491	n/a	Yes	2.836	n/a	n/a	GoodResponse	0	n/a	n/a	6	56	Blank	Neutral	True
536.512	1.45	Control	0.6491	n/a	Yes	2.836	n/a	5.0	GoodResponse	0	0.048	535.56	6	56	Feedback	Neutral	True
537.967	2.836	Control	0.6491	n/a	Yes	2.836	n/a	n/a	GoodResponse	0	0.0	n/a	6	56	ISIslide	Neutral	True
540.825	0.25	Control	0.6552	0.0	Yes	3.475	0.025	n/a	GoodResponse	0	n/a	n/a	6	57	Cue	Neutral	True
541.076	4.0	Control	0.6552	0.0	Yes	3.475	0.001	n/a	GoodResponse	0	n/a	n/a	6	57	Fixation	Neutral	True
545.071	0.18	Control	0.6552	0.004	Yes	3.475	-0.004	3.0	GoodResponse	0	0.104	544.175	6	57	Target	Neutral	True
545.175	0.3	Control	0.6552	0.004	Yes	3.475	-0.004	3.0	GoodResponse	0	0.104	n/a	6	57	ButtonPress	Neutral	True
545.255	0.52	Control	0.6552	n/a	Yes	3.475	n/a	n/a	GoodResponse	0	n/a	n/a	6	57	Blank	Neutral	True
545.773	1.45	Control	0.6552	n/a	Yes	3.475	n/a	5.0	GoodResponse	0	0.008	544.781	6	57	Feedback	Neutral	True
547.228	3.475	Control	0.6552	n/a	Yes	3.475	n/a	n/a	GoodResponse	0	0.0	n/a	6	57	ISIslide	Neutral	True
550.722	0.25	Win2	0.6609999999999999	0.0	Yes	2.728	0.022	n/a	GoodResponse	1	n/a	n/a	7	58	Cue	Win	True
550.972	4.05	Win2	0.6609999999999999	0.0	Yes	2.728	0.0	n/a	GoodResponse	1	n/a	n/a	7	58	Fixation	Win	True
555.018	0.18	Win2	0.6609999999999999	0.004	Yes	2.728	-0.004	4.0	GoodResponse	1	0.177	554.195	7	58	Target	Win	True
555.195	0.3	Win2	0.6609999999999999	0.004	Yes	2.728	-0.004	4.0	GoodResponse	1	0.177	n/a	7	58	ButtonPress	Win	True
555.202	0.52	Win2	0.6609999999999999	n/a	Yes	2.728	n/a	n/a	GoodResponse	1	n/a	n/a	7	58	Blank	Win	True
555.72	1.45	Win2	0.6609999999999999	n/a	Yes	2.728	n/a	5.0	GoodResponse	1	0.011	554.731	7	58	Feedback	Win	True
557.174	2.728	Win2	0.6609999999999999	n/a	Yes	2.728	n/a	n/a	GoodResponse	1	0.0	n/a	7	58	ISIslide	Win	True
559.916	0.25	Lose2	0.65	0.0	No	2.684	0.016	n/a	NoResponse	-1	n/a	n/a	6	59	Cue	Loss	True
560.167	4.0	Lose2	0.65	0.0	No	2.684	0.001	1.0	NoResponse	-1	3.851	563.018	6	59	Fixation	Loss	True
564.018	0.3	Lose2	0.65	0.0	No	2.684	0.001	1.0	NoResponse	-1	3.851	n/a	6	59	ButtonPress	Loss	True
564.162	0.18	Lose2	0.65	0.004	No	2.684	-0.004	n/a	NoResponse	-1	n/a	n/a	6	59	Target	Loss	True
564.346	0.52	Lose2	0.65	n/a	No	2.684	n/a	n/a	NoResponse	-1	n/a	n/a	6	59	Blank	Loss	True
564.864	1.45	Lose2	0.65	n/a	No	2.684	n/a	5.0	NoResponse	-1	0.038	563.902	6	59	Feedback	Loss	True
566.318	2.684	Lose2	0.65	n/a	No	2.684	n/a	n/a	NoResponse	-1	0.0	n/a	6	59	ISIslide	Loss	True
569.026	0.25	Control	0.6393	0.001	No	2.674	0.026	n/a	NoResponse	0	n/a	n/a	6	60	Cue	Neutral	True
569.277	4.0	Control	0.6393	0.0	No	2.674	0.001	n/a	NoResponse	0	n/a	n/a	6	60	Fixation	Neutral	True
573.273	0.19	Control	0.6393	0.003	No	2.674	-0.003	3.0	NoResponse	0	0.209	572.482	6	60	Target	Neutral	True
573.473	0.51	Control	0.6393	n/a	No	2.674	n/a	n/a	NoResponse	0	n/a	n/a	6	60	Blank	Neutral	True
573.482	0.3	Control	0.6393	0.003	No	2.674	-0.003	3.0	NoResponse	0	0.209	n/a	6	60	ButtonPress	Neutral	True
573.975	1.45	Control	0.6393	n/a	No	2.674	n/a	5.0	NoResponse	0	0.0	572.975	6	60	Feedback	Neutral	True
575.429	2.674	Control	0.6393	n/a	No	2.674	n/a	n/a	NoResponse	0	0.0	n/a	6	60	ISIslide	Neutral	True
578.12	0.25	Lose2	0.6452	0.0	Yes	2.98	0.02	n/a	GoodResponse	0	n/a	n/a	6	61	Cue	AvoidedLoss	True
578.371	4.0	Lose2	0.6452	0.0	Yes	2.98	0.001	n/a	GoodResponse	0	n/a	n/a	6	61	Fixation	AvoidedLoss	True
582.366	0.2	Lose2	0.6452	0.004	Yes	2.98	-0.004	1.0	GoodResponse	0	0.193	581.559	6	61	Target	AvoidedLoss	True
582.559	0.3	Lose2	0.6452	0.004	Yes	2.98	-0.004	1.0	GoodResponse	0	0.193	n/a	6	61	ButtonPress	AvoidedLoss	True
582.567	0.5	Lose2	0.6452	n/a	Yes	2.98	n/a	n/a	GoodResponse	0	n/a	n/a	6	61	Blank	AvoidedLoss	True
583.069	1.45	Lose2	0.6452	n/a	Yes	2.98	n/a	5.0	GoodResponse	0	0.028	582.097	6	61	Feedback	AvoidedLoss	True
584.523	2.98	Lose2	0.6452	n/a	Yes	2.98	n/a	n/a	GoodResponse	0	0.0	n/a	6	61	ISIslide	AvoidedLoss	True
587.515	0.25	Lose2	0.6507999999999999	0.0	Yes	2.885	0.015	n/a	GoodResponse	0	n/a	n/a	6	62	Cue	AvoidedLoss	True
587.766	3.9	Lose2	0.6507999999999999	0.0	Yes	2.885	0.001	n/a	GoodResponse	0	n/a	n/a	6	62	Fixation	AvoidedLoss	True
591.661	0.21	Lose2	0.6507999999999999	0.004	Yes	2.885	-0.004	1.0	GoodResponse	0	0.2	590.861	6	62	Target	AvoidedLoss	True
591.861	0.3	Lose2	0.6507999999999999	0.004	Yes	2.885	-0.004	1.0	GoodResponse	0	0.2	n/a	6	62	ButtonPress	AvoidedLoss	True
591.878	0.49	Lose2	0.6507999999999999	n/a	Yes	2.885	n/a	n/a	GoodResponse	0	n/a	n/a	6	62	Blank	AvoidedLoss	True
592.363	1.45	Lose2	0.6507999999999999	n/a	Yes	2.885	n/a	5.0	GoodResponse	0	0.002	591.365	6	62	Feedback	AvoidedLoss	True
593.818	2.885	Lose2	0.6507999999999999	n/a	Yes	2.885	n/a	n/a	GoodResponse	0	0.0	n/a	6	62	ISIslide	AvoidedLoss	True
596.726	0.25	Lose2	0.6562	0.0	Yes	2.624	0.026	n/a	GoodResponse	0	n/a	n/a	6	63	Cue	AvoidedLoss	True
596.977	4.05	Lose2	0.6562	0.0	Yes	2.624	0.001	n/a	GoodResponse	0	n/a	n/a	6	63	Fixation	AvoidedLoss	True
601.022	0.22	Lose2	0.6562	0.004	Yes	2.624	-0.004	1.0	GoodResponse	0	0.161	600.183	6	63	Target	AvoidedLoss	True
601.183	0.3	Lose2	0.6562	0.004	Yes	2.624	-0.004	1.0	GoodResponse	0	0.161	n/a	6	63	ButtonPress	AvoidedLoss	True
601.256	0.48	Lose2	0.6562	n/a	Yes	2.624	n/a	n/a	GoodResponse	0	n/a	n/a	6	63	Blank	AvoidedLoss	True
601.725	1.45	Lose2	0.6562	n/a	Yes	2.624	n/a	5.0	GoodResponse	0	0.006	600.731	6	63	Feedback	AvoidedLoss	True
603.179	2.624	Lose2	0.6562	n/a	Yes	2.624	n/a	n/a	GoodResponse	0	0.0	n/a	6	63	ISIslide	AvoidedLoss	True
605.82	0.25	Win2	0.6615000000000001	0.0	Yes	3.13	0.02	n/a	GoodResponse	1	n/a	n/a	7	64	Cue	Win	True
606.071	4.15	Win2	0.6615000000000001	0.0	Yes	3.13	0.001	n/a	GoodResponse	1	n/a	n/a	7	64	Fixation	Win	True
610.217	0.22	Win2	0.6615000000000001	0.003	Yes	3.13	-0.003	4.0	GoodResponse	1	0.171	609.388	7	64	Target	Win	True
610.388	0.3	Win2	0.6615000000000001	0.003	Yes	3.13	-0.003	4.0	GoodResponse	1	0.171	n/a	7	64	ButtonPress	Win	True
610.451	0.48	Win2	0.6615000000000001	n/a	Yes	3.13	n/a	n/a	GoodResponse	1	n/a	n/a	7	64	Blank	Win	True
610.919	1.45	Win2	0.6615000000000001	n/a	Yes	3.13	n/a	5.0	GoodResponse	1	0.031	609.95	7	64	Feedback	Win	True
612.373	3.13	Win2	0.6615000000000001	n/a	Yes	3.13	n/a	n/a	GoodResponse	1	0.0	n/a	7	64	ISIslide	Win	True
615.516	0.25	Control	0.6667000000000001	0.0	Yes	2.784	0.016	n/a	GoodResponse	0	n/a	n/a	7	65	Cue	Neutral	True
615.767	4.0	Control	0.6667000000000001	0.0	Yes	2.784	0.001	n/a	GoodResponse	0	n/a	n/a	7	65	Fixation	Neutral	True
619.762	0.22	Control	0.6667000000000001	0.004	Yes	2.784	-0.004	3.0	GoodResponse	0	0.208	618.97	7	65	Target	Neutral	True
619.97	0.3	Control	0.6667000000000001	0.004	Yes	2.784	-0.004	3.0	GoodResponse	0	0.208	n/a	7	65	ButtonPress	Neutral	True
619.996	0.48	Control	0.6667000000000001	n/a	Yes	2.784	n/a	n/a	GoodResponse	0	n/a	n/a	7	65	Blank	Neutral	True
620.464	1.45	Control	0.6667000000000001	n/a	Yes	2.784	n/a	5.0	GoodResponse	0	0.047	619.511	7	65	Feedback	Neutral	True
621.918	2.784	Control	0.6667000000000001	n/a	Yes	2.784	n/a	n/a	GoodResponse	0	0.0	n/a	7	65	ISIslide	Neutral	True
624.727	0.25	Win2	0.6567000000000001	0.0	No	2.773	0.027	n/a	LatePress	0	n/a	n/a	7	66	Cue	MissedWin	True
624.978	3.9	Win2	0.6567000000000001	0.0	No	2.773	0.001	n/a	LatePress	0	n/a	n/a	7	66	Fixation	MissedWin	True
628.873	0.21	Win2	0.6567000000000001	0.004	No	2.773	-0.004	4.0	LatePress	0	0.21	628.083	7	66	Target	MissedWin	True
629.083	0.3	Win2	0.6567000000000001	0.004	No	2.773	-0.004	4.0	LatePress	0	0.21	n/a	7	66	ButtonPress	MissedWin	True
629.09	0.49	Win2	0.6567000000000001	n/a	No	2.773	n/a	n/a	LatePress	0	n/a	n/a	7	66	Blank	MissedWin	True
629.575	1.45	Win2	0.6567000000000001	n/a	No	2.773	n/a	5.0	LatePress	0	0.009	628.584	7	66	Feedback	MissedWin	True
631.029	2.773	Win2	0.6567000000000001	n/a	No	2.773	n/a	n/a	LatePress	0	0.0	n/a	7	66	ISIslide	MissedWin	True
633.821	0.25	Control	0.6470999999999999	0.0	No	2.729	0.021	n/a	NoResponse	0	n/a	n/a	7	67	Cue	Neutral	True
634.072	3.95	Control	0.6470999999999999	0.0	No	2.729	0.001	n/a	NoResponse	0	n/a	n/a	7	67	Fixation	Neutral	True
638.017	0.21	Control	0.6470999999999999	0.004	No	2.729	-0.004	3.0	NoResponse	0	0.229	637.246	7	67	Target	Neutral	True
638.234	0.49	Control	0.6470999999999999	n/a	No	2.729	n/a	n/a	NoResponse	0	n/a	n/a	7	67	Blank	Neutral	True
638.246	0.3	Control	0.6470999999999999	0.004	No	2.729	-0.004	3.0	NoResponse	0	0.229	n/a	7	67	ButtonPress	Neutral	True
638.719	1.45	Control	0.6470999999999999	n/a	No	2.729	n/a	5.0	NoResponse	0	0.036	637.755	7	67	Feedback	Neutral	True
640.173	2.729	Control	0.6470999999999999	n/a	No	2.729	n/a	n/a	NoResponse	0	0.0	n/a	7	67	ISIslide	Neutral	True
642.932	0.25	Win2	0.6522	0.0	Yes	3.068	0.032	n/a	GoodResponse	1	n/a	n/a	8	68	Cue	Win	True
643.182	4.0	Win2	0.6522	0.0	Yes	3.068	0.0	n/a	GoodResponse	1	n/a	n/a	8	68	Fixation	Win	True
647.178	0.22	Win2	0.6522	0.004	Yes	3.068	-0.004	4.0	GoodResponse	1	0.188	646.366	8	68	Target	Win	True
647.366	0.3	Win2	0.6522	0.004	Yes	3.068	-0.004	4.0	GoodResponse	1	0.188	n/a	8	68	ButtonPress	Win	True
647.412	0.48	Win2	0.6522	n/a	Yes	3.068	n/a	n/a	GoodResponse	1	n/a	n/a	8	68	Blank	Win	True
647.88	1.45	Win2	0.6522	n/a	Yes	3.068	n/a	5.0	GoodResponse	1	0.046	646.926	8	68	Feedback	Win	True
649.334	3.068	Win2	0.6522	n/a	Yes	3.068	n/a	n/a	GoodResponse	1	0.0	n/a	8	68	ISIslide	Win	True
652.427	0.25	Win2	0.6570999999999999	0.0	Yes	3.223	0.027	n/a	GoodResponse	1	n/a	n/a	9	69	Cue	Win	True
652.677	3.95	Win2	0.6570999999999999	0.0	Yes	3.223	0.0	n/a	GoodResponse	1	n/a	n/a	9	69	Fixation	Win	True
656.623	0.23	Win2	0.6570999999999999	0.004	Yes	3.223	-0.004	4.0	GoodResponse	1	0.191	655.814	9	69	Target	Win	True
656.814	0.3	Win2	0.6570999999999999	0.004	Yes	3.223	-0.004	4.0	GoodResponse	1	0.191	n/a	9	69	ButtonPress	Win	True
656.857	0.47	Win2	0.6570999999999999	n/a	Yes	3.223	n/a	n/a	GoodResponse	1	n/a	n/a	9	69	Blank	Win	True
657.325	1.45	Win2	0.6570999999999999	n/a	Yes	3.223	n/a	5.0	GoodResponse	1	0.016	656.341	9	69	Feedback	Win	True
658.779	3.223	Win2	0.6570999999999999	n/a	Yes	3.223	n/a	n/a	GoodResponse	1	0.0	n/a	9	69	ISIslide	Win	True
662.022	0.25	Lose2	0.662	0.0	Yes	3.028	0.022	n/a	GoodResponse	0	n/a	n/a	9	70	Cue	AvoidedLoss	True
662.273	4.05	Lose2	0.662	0.0	Yes	3.028	0.001	n/a	GoodResponse	0	n/a	n/a	9	70	Fixation	AvoidedLoss	True
666.318	0.23	Lose2	0.662	0.004	Yes	3.028	-0.004	1.0	GoodResponse	0	0.226	665.544	9	70	Target	AvoidedLoss	True
666.544	0.3	Lose2	0.662	0.004	Yes	3.028	-0.004	1.0	GoodResponse	0	0.226	n/a	9	70	ButtonPress	AvoidedLoss	True
666.552	0.47	Lose2	0.662	n/a	Yes	3.028	n/a	n/a	GoodResponse	0	n/a	n/a	9	70	Blank	AvoidedLoss	True
667.02	1.45	Lose2	0.662	n/a	Yes	3.028	n/a	5.0	GoodResponse	0	0.028	666.048	9	70	Feedback	AvoidedLoss	True
668.475	3.028	Lose2	0.662	n/a	Yes	3.028	n/a	n/a	GoodResponse	0	0.0	n/a	9	70	ISIslide	AvoidedLoss	True
671.517	0.25	Win2	0.6667000000000001	0.0	Yes	2.733	0.017	n/a	GoodResponse	1	n/a	n/a	10	71	Cue	Win	True
671.768	4.05	Win2	0.6667000000000001	0.0	Yes	2.733	0.001	n/a	GoodResponse	1	n/a	n/a	10	71	Fixation	Win	True
675.813	0.23	Win2	0.6667000000000001	0.004	Yes	2.733	-0.004	4.0	GoodResponse	1	0.197	675.01	10	71	Target	Win	True
676.01	0.3	Win2	0.6667000000000001	0.004	Yes	2.733	-0.004	4.0	GoodResponse	1	0.197	n/a	10	71	ButtonPress	Win	True
676.048	0.47	Win2	0.6667000000000001	n/a	Yes	2.733	n/a	n/a	GoodResponse	1	n/a	n/a	10	71	Blank	Win	True
676.516	1.45	Win2	0.6667000000000001	n/a	Yes	2.733	n/a	5.0	GoodResponse	1	0.044	675.56	10	71	Feedback	Win	True
677.97	2.733	Win2	0.6667000000000001	n/a	Yes	2.733	n/a	n/a	GoodResponse	1	0.0	n/a	10	71	ISIslide	Win	True
680.728	0.25	Win2	0.6712	0.0	Yes	2.772	0.028	n/a	GoodResponse	1	n/a	n/a	11	72	Cue	Win	True
680.979	4.1	Win2	0.6712	0.0	Yes	2.772	0.001	n/a	GoodResponse	1	n/a	n/a	11	72	Fixation	Win	True
685.075	0.22	Win2	0.6712	0.003	Yes	2.772	-0.003	4.0	GoodResponse	1	0.184	684.259	11	72	Target	Win	True
685.259	0.3	Win2	0.6712	0.003	Yes	2.772	-0.003	4.0	GoodResponse	1	0.184	n/a	11	72	ButtonPress	Win	True
685.309	0.48	Win2	0.6712	n/a	Yes	2.772	n/a	n/a	GoodResponse	1	n/a	n/a	11	72	Blank	Win	True
685.777	1.45	Win2	0.6712	n/a	Yes	2.772	n/a	5.0	GoodResponse	1	0.005	684.782	11	72	Feedback	Win	True
687.231	2.772	Win2	0.6712	n/a	Yes	2.772	n/a	n/a	GoodResponse	1	0.0	n/a	11	72	ISIslide	Win	True
690.023	0.25	Win2	0.6757	0.0	Yes	2.677	0.023	n/a	GoodResponse	1	n/a	n/a	12	73	Cue	Win	True
690.274	4.0	Win2	0.6757	0.0	Yes	2.677	0.001	n/a	GoodResponse	1	n/a	n/a	12	73	Fixation	Win	True
694.269	0.21	Win2	0.6757	0.004	Yes	2.677	-0.004	4.0	GoodResponse	1	0.167	693.436	12	73	Target	Win	True
694.436	0.3	Win2	0.6757	0.004	Yes	2.677	-0.004	4.0	GoodResponse	1	0.167	n/a	12	73	ButtonPress	Win	True
694.486	0.49	Win2	0.6757	n/a	Yes	2.677	n/a	n/a	GoodResponse	1	n/a	n/a	12	73	Blank	Win	True
694.971	1.45	Win2	0.6757	n/a	Yes	2.677	n/a	5.0	GoodResponse	1	0.028	693.999	12	73	Feedback	Win	True
696.425	2.677	Win2	0.6757	n/a	Yes	2.677	n/a	n/a	GoodResponse	1	0.0	n/a	12	73	ISIslide	Win	True
699.117	0.25	Lose2	0.6667000000000001	0.0	No	2.633	0.017	n/a	NoResponse	-1	n/a	n/a	11	74	Cue	Loss	True
699.367	4.05	Lose2	0.6667000000000001	0.001	No	2.633	0.0	n/a	NoResponse	-1	n/a	n/a	11	74	Fixation	Loss	True
703.413	0.2	Lose2	0.6667000000000001	0.004	No	2.633	-0.004	1.0	NoResponse	-1	0.226	702.639	11	74	Target	Loss	True
703.614	0.5	Lose2	0.6667000000000001	n/a	No	2.633	n/a	n/a	NoResponse	-1	n/a	n/a	11	74	Blank	Loss	True
703.639	0.3	Lose2	0.6667000000000001	0.004	No	2.633	-0.004	1.0	NoResponse	-1	0.226	n/a	11	74	ButtonPress	Loss	True
704.115	1.45	Lose2	0.6667000000000001	n/a	No	2.633	n/a	5.0	NoResponse	-1	0.007	703.122	11	74	Feedback	Loss	True
705.569	2.633	Lose2	0.6667000000000001	n/a	No	2.633	n/a	n/a	NoResponse	-1	0.0	n/a	11	74	ISIslide	Loss	True
708.227	0.25	Lose2	0.6711	0.0	Yes	2.923	0.027	n/a	GoodResponse	0	n/a	n/a	11	75	Cue	AvoidedLoss	True
708.478	3.95	Lose2	0.6711	0.0	Yes	2.923	0.001	n/a	GoodResponse	0	n/a	n/a	11	75	Fixation	AvoidedLoss	True
712.423	0.19	Lose2	0.6711	0.004	Yes	2.923	-0.004	1.0	GoodResponse	0	0.147	711.57	11	75	Target	AvoidedLoss	True
712.57	0.3	Lose2	0.6711	0.004	Yes	2.923	-0.004	1.0	GoodResponse	0	0.147	n/a	11	75	ButtonPress	AvoidedLoss	True
712.624	0.51	Lose2	0.6711	n/a	Yes	2.923	n/a	n/a	GoodResponse	0	n/a	n/a	11	75	Blank	AvoidedLoss	True
713.125	1.45	Lose2	0.6711	n/a	Yes	2.923	n/a	5.0	GoodResponse	0	0.02	712.145	11	75	Feedback	AvoidedLoss	True
714.58	2.923	Lose2	0.6711	n/a	Yes	2.923	n/a	n/a	GoodResponse	0	0.0	n/a	11	75	ISIslide	AvoidedLoss	True
717.522	0.25	Control	0.6623	0.0	No	3.228	0.022	n/a	NoResponse	0	n/a	n/a	11	76	Cue	Neutral	True
717.773	4.05	Control	0.6623	0.0	No	3.228	0.001	n/a	NoResponse	0	n/a	n/a	11	76	Fixation	Neutral	True
721.818	0.18	Control	0.6623	0.004	No	3.228	-0.004	3.0	NoResponse	0	0.199	721.017	11	76	Target	Neutral	True
722.002	0.52	Control	0.6623	n/a	No	3.228	n/a	n/a	NoResponse	0	n/a	n/a	11	76	Blank	Neutral	True
722.017	0.3	Control	0.6623	0.004	No	3.228	-0.004	3.0	NoResponse	0	0.199	n/a	11	76	ButtonPress	Neutral	True
722.52	1.45	Control	0.6623	n/a	No	3.228	n/a	5.0	NoResponse	0	0.04	721.56	11	76	Feedback	Neutral	True
723.975	3.228	Control	0.6623	n/a	No	3.228	n/a	n/a	NoResponse	0	0.0	n/a	11	76	ISIslide	Neutral	True
727.218	0.25	Lose2	0.6537999999999999	0.0	No	2.582	0.018	n/a	NoResponse	-1	n/a	n/a	10	77	Cue	Loss	True
727.468	3.95	Lose2	0.6537999999999999	0.001	No	2.582	0.0	n/a	NoResponse	-1	n/a	n/a	10	77	Fixation	Loss	True
731.414	0.18	Lose2	0.6537999999999999	0.004	No	2.582	-0.004	1.0	NoResponse	-1	0.207	730.621	10	77	Target	Loss	True
731.597	0.52	Lose2	0.6537999999999999	n/a	No	2.582	n/a	n/a	NoResponse	-1	n/a	n/a	10	77	Blank	Loss	True
731.621	0.3	Lose2	0.6537999999999999	0.004	No	2.582	-0.004	1.0	NoResponse	-1	0.207	n/a	10	77	ButtonPress	Loss	True
732.116	1.45	Lose2	0.6537999999999999	n/a	No	2.582	n/a	5.0	NoResponse	-1	0.007	731.123	10	77	Feedback	Loss	True
733.57	2.582	Lose2	0.6537999999999999	n/a	No	2.582	n/a	n/a	NoResponse	-1	0.0	n/a	10	77	ISIslide	Loss	True
